"","words","mask","corr_ans","category","nonwords","tweets","topic","LDT_prac_loop.thisRepN","LDT_prac_loop.thisTrialN","LDT_prac_loop.thisN","LDT_prac_loop.thisIndex","LDT_loop.thisRepN","LDT_loop.thisTrialN","LDT_loop.thisN","LDT_loop.thisIndex","AMP_pracloop.thisRepN","AMP_pracloop.thisTrialN","AMP_pracloop.thisN","AMP_pracloop.thisIndex","AMP_loop.thisRepN","AMP_loop.thisTrialN","AMP_loop.thisN","AMP_loop.thisIndex","tweet_loop.thisRepN","tweet_loop.thisTrialN","tweet_loop.thisN","tweet_loop.thisIndex","begin_key.keys","begin_key.rt","key_resp_AMP_instr1.keys","key_resp_AMP_instr1.rt","key_resp_LDT_instr.keys","key_resp_LDT_instr.rt","resp_LDT_prac.keys","resp_LDT_prac.rt","task","keypress","RT","corr","resp_LDT_ready.keys","resp_LDT_ready.rt","resp_LDT.keys","resp_LDT.corr","resp_LDT.rt","LDT_rating.response","LDT_rating.rt","resp_AMP_ready1.keys","resp_AMP_ready1.rt","resp_AMP_prac.keys","resp_AMP_prac.rt","resp_AMP_ready.keys","resp_AMP_ready.rt","resp_AMP.keys","resp_AMP.corr","resp_AMP.rt","AMP_nonword_rating.response","AMP_nonword_rating.rt","AMP_word_rating.response","AMP_word_rating.rt","AMP_random_rating.response","AMP_random_rating.rt","key_resp_LDT_instr_2.keys","key_resp_LDT_instr_2.rt","resp_tweets.keys","resp_tweets.rt","participant","date","expName","psychopyVersion","frameRate","X","AMP_prac_loop.thisRepN","AMP_prac_loop.thisTrialN","AMP_prac_loop.thisN","AMP_prac_loop.thisIndex","AMP_trials.thisRepN","AMP_trials.thisTrialN","AMP_trials.thisN","AMP_trials.thisIndex","LDT_pracloop.thisRepN","LDT_pracloop.thisTrialN","LDT_pracloop.thisN","LDT_pracloop.thisIndex","LDT_trials.thisRepN","LDT_trials.thisTrialN","LDT_trials.thisN","LDT_trials.thisIndex"
"1","","","","","","","",NA,NA,NA,NA,NA,NA,NA,NA,NA,NA,NA,NA,NA,NA,NA,NA,NA,NA,NA,NA,"right",952.570708645158,"",NA,"",NA,"",NA,"","",NA,NA,"",NA,"",NA,NA,NA,NA,"",NA,"",NA,"",NA,"",NA,NA,NA,NA,NA,NA,NA,NA,"",NA,"",NA,1006,"2019_Mar_06_0951","mf_amp_cond2","3.0.4",60.0139738467059,NA,NA,NA,NA,NA,NA,NA,NA,NA,NA,NA,NA,NA,NA,NA,NA,NA
"2","","","","","","","",NA,NA,NA,NA,NA,NA,NA,NA,NA,NA,NA,NA,NA,NA,NA,NA,NA,NA,NA,NA,"",NA,"right",4.60147185134701,"",NA,"",NA,"","",NA,NA,"",NA,"",NA,NA,NA,NA,"",NA,"",NA,"",NA,"",NA,NA,NA,NA,NA,NA,NA,NA,"",NA,"",NA,1006,"2019_Mar_06_0951","mf_amp_cond2","3.0.4",60.0139738467059,NA,NA,NA,NA,NA,NA,NA,NA,NA,NA,NA,NA,NA,NA,NA,NA,NA
"3","","","","","","","",NA,NA,NA,NA,NA,NA,NA,NA,NA,NA,NA,NA,NA,NA,NA,NA,NA,NA,NA,NA,"",NA,"",NA,"right",1.767378089251,"",NA,"","",NA,NA,"",NA,"",NA,NA,NA,NA,"",NA,"",NA,"",NA,"",NA,NA,NA,NA,NA,NA,NA,NA,"",NA,"",NA,1006,"2019_Mar_06_0951","mf_amp_cond2","3.0.4",60.0139738467059,NA,NA,NA,NA,NA,NA,NA,NA,NA,NA,NA,NA,NA,NA,NA,NA,NA
"4","bisebell","&&&&&&&","","","","","",0,0,0,1,NA,NA,NA,NA,NA,NA,NA,NA,NA,NA,NA,NA,NA,NA,NA,NA,"",NA,"",NA,"",NA,"right",3.20099789020605,"LDT_prac","right",3.20099789020605,0,"",NA,"",NA,NA,NA,NA,"",NA,"",NA,"",NA,"",NA,NA,NA,NA,NA,NA,NA,NA,"",NA,"",NA,1006,"2019_Mar_06_0951","mf_amp_cond2","3.0.4",60.0139738467059,NA,NA,NA,NA,NA,NA,NA,NA,NA,NA,NA,NA,NA,NA,NA,NA,NA
"5","keyboard","&&&&&&&","","","","","",0,1,1,0,NA,NA,NA,NA,NA,NA,NA,NA,NA,NA,NA,NA,NA,NA,NA,NA,"",NA,"",NA,"",NA,"right",3.9512369876029,"LDT_prac","right",3.9512369876029,0,"",NA,"",NA,NA,NA,NA,"",NA,"",NA,"",NA,"",NA,NA,NA,NA,NA,NA,NA,NA,"",NA,"",NA,1006,"2019_Mar_06_0951","mf_amp_cond2","3.0.4",60.0139738467059,NA,NA,NA,NA,NA,NA,NA,NA,NA,NA,NA,NA,NA,NA,NA,NA,NA
"6","","","","","","","",NA,NA,NA,NA,NA,NA,NA,NA,NA,NA,NA,NA,NA,NA,NA,NA,NA,NA,NA,NA,"",NA,"",NA,"",NA,"",NA,"","",NA,NA,"right",1.58398102875799,"",NA,NA,NA,NA,"",NA,"",NA,"",NA,"",NA,NA,NA,NA,NA,NA,NA,NA,"",NA,"",NA,1006,"2019_Mar_06_0951","mf_amp_cond2","3.0.4",60.0139738467059,NA,NA,NA,NA,NA,NA,NA,NA,NA,NA,NA,NA,NA,NA,NA,NA,NA
"7","thadowed","&&&&&&&&","right","nonword","","","",NA,NA,NA,NA,0,0,0,102,NA,NA,NA,NA,NA,NA,NA,NA,NA,NA,NA,NA,"",NA,"",NA,"",NA,"",NA,"LDT","right",2.20077531016432,1,"",NA,"right",1,2.20077531016432,NA,NA,"",NA,"",NA,"",NA,"",NA,NA,NA,NA,NA,NA,NA,NA,"",NA,"",NA,1006,"2019_Mar_06_0951","mf_amp_cond2","3.0.4",60.0139738467059,NA,NA,NA,NA,NA,NA,NA,NA,NA,NA,NA,NA,NA,NA,NA,NA,NA
"8","perified","&&&&&&&&","right","nonword","","","",NA,NA,NA,NA,0,1,1,13,NA,NA,NA,NA,NA,NA,NA,NA,NA,NA,NA,NA,"",NA,"",NA,"",NA,"",NA,"LDT","left",1.1671929693548,0,"",NA,"left",0,1.1671929693548,NA,NA,"",NA,"",NA,"",NA,"",NA,NA,NA,NA,NA,NA,NA,NA,"",NA,"",NA,1006,"2019_Mar_06_0951","mf_amp_cond2","3.0.4",60.0139738467059,NA,NA,NA,NA,NA,NA,NA,NA,NA,NA,NA,NA,NA,NA,NA,NA,NA
"9","celebrated","&&&&&&&&&&","left","authority.virtue","","","",NA,NA,NA,NA,0,2,2,27,NA,NA,NA,NA,NA,NA,NA,NA,NA,NA,NA,NA,"",NA,"",NA,"",NA,"",NA,"LDT","right",1.93405630183406,0,"",NA,"right",0,1.93405630183406,NA,NA,"",NA,"",NA,"",NA,"",NA,NA,NA,NA,NA,NA,NA,NA,"",NA,"",NA,1006,"2019_Mar_06_0951","mf_amp_cond2","3.0.4",60.0139738467059,NA,NA,NA,NA,NA,NA,NA,NA,NA,NA,NA,NA,NA,NA,NA,NA,NA
"10","black","&&&&&","left","loyalty.vice","","","",NA,NA,NA,NA,0,3,3,90,NA,NA,NA,NA,NA,NA,NA,NA,NA,NA,NA,NA,"",NA,"",NA,"",NA,"",NA,"LDT","right",1.7173289868515,0,"",NA,"right",0,1.7173289868515,NA,NA,"",NA,"",NA,"",NA,"",NA,NA,NA,NA,NA,NA,NA,NA,"",NA,"",NA,1006,"2019_Mar_06_0951","mf_amp_cond2","3.0.4",60.0139738467059,NA,NA,NA,NA,NA,NA,NA,NA,NA,NA,NA,NA,NA,NA,NA,NA,NA
"11","pharing","&&&&&&&","right","nonword","","","",NA,NA,NA,NA,0,4,4,64,NA,NA,NA,NA,NA,NA,NA,NA,NA,NA,NA,NA,"",NA,"",NA,"",NA,"",NA,"LDT","left",1.15055333939381,0,"",NA,"left",0,1.15055333939381,NA,NA,"",NA,"",NA,"",NA,"",NA,NA,NA,NA,NA,NA,NA,NA,"",NA,"",NA,1006,"2019_Mar_06_0951","mf_amp_cond2","3.0.4",60.0139738467059,NA,NA,NA,NA,NA,NA,NA,NA,NA,NA,NA,NA,NA,NA,NA,NA,NA
"12","police","&&&&&&","left","authority.vice","","","",NA,NA,NA,NA,0,5,5,47,NA,NA,NA,NA,NA,NA,NA,NA,NA,NA,NA,NA,"",NA,"",NA,"",NA,"",NA,"LDT","right",0.767084950581193,0,"",NA,"right",0,0.767084950581193,NA,NA,"",NA,"",NA,"",NA,"",NA,NA,NA,NA,NA,NA,NA,NA,"",NA,"",NA,1006,"2019_Mar_06_0951","mf_amp_cond2","3.0.4",60.0139738467059,NA,NA,NA,NA,NA,NA,NA,NA,NA,NA,NA,NA,NA,NA,NA,NA,NA
"13","help","&&&&","left","care.virtue","","","",NA,NA,NA,NA,0,6,6,156,NA,NA,NA,NA,NA,NA,NA,NA,NA,NA,NA,NA,"",NA,"",NA,"",NA,"",NA,"LDT","right",0.85045211983379,0,"",NA,"right",0,0.85045211983379,NA,NA,"",NA,"",NA,"",NA,"",NA,NA,NA,NA,NA,NA,NA,NA,"",NA,"",NA,1006,"2019_Mar_06_0951","mf_amp_cond2","3.0.4",60.0139738467059,NA,NA,NA,NA,NA,NA,NA,NA,NA,NA,NA,NA,NA,NA,NA,NA,NA
"14","gedious","&&&&&&&","right","nonword","","","",NA,NA,NA,NA,0,7,7,75,NA,NA,NA,NA,NA,NA,NA,NA,NA,NA,NA,NA,"",NA,"",NA,"",NA,"",NA,"LDT","left",3.95121774426661,0,"",NA,"left",0,3.95121774426661,NA,NA,"",NA,"",NA,"",NA,"",NA,NA,NA,NA,NA,NA,NA,NA,"",NA,"",NA,1006,"2019_Mar_06_0951","mf_amp_cond2","3.0.4",60.0139738467059,NA,NA,NA,NA,NA,NA,NA,NA,NA,NA,NA,NA,NA,NA,NA,NA,NA
"15","about","&&&&&","left","neutral","","","",NA,NA,NA,NA,0,8,8,144,NA,NA,NA,NA,NA,NA,NA,NA,NA,NA,NA,NA,"",NA,"",NA,"",NA,"",NA,"LDT","right",0.683749853284098,0,"",NA,"right",0,0.683749853284098,NA,NA,"",NA,"",NA,"",NA,"",NA,NA,NA,NA,NA,NA,NA,NA,"",NA,"",NA,1006,"2019_Mar_06_0951","mf_amp_cond2","3.0.4",60.0139738467059,NA,NA,NA,NA,NA,NA,NA,NA,NA,NA,NA,NA,NA,NA,NA,NA,NA
"16","ilportation","&&&&&&&&&&&","right","nonword","","","",NA,NA,NA,NA,0,9,9,19,NA,NA,NA,NA,NA,NA,NA,NA,NA,NA,NA,NA,"",NA,"",NA,"",NA,"",NA,"LDT","right",2.53421961283311,1,"",NA,"right",1,2.53421961283311,NA,NA,"",NA,"",NA,"",NA,"",NA,NA,NA,NA,NA,NA,NA,NA,"",NA,"",NA,1006,"2019_Mar_06_0951","mf_amp_cond2","3.0.4",60.0139738467059,NA,NA,NA,NA,NA,NA,NA,NA,NA,NA,NA,NA,NA,NA,NA,NA,NA
"17","promote","&&&&&&&","left","sanctity.virtue","","","",NA,NA,NA,NA,0,10,10,86,NA,NA,NA,NA,NA,NA,NA,NA,NA,NA,NA,NA,"",NA,"",NA,"",NA,"",NA,"LDT","right",0.716947008506395,0,"",NA,"right",0,0.716947008506395,NA,NA,"",NA,"",NA,"",NA,"",NA,NA,NA,NA,NA,NA,NA,NA,"",NA,"",NA,1006,"2019_Mar_06_0951","mf_amp_cond2","3.0.4",60.0139738467059,NA,NA,NA,NA,NA,NA,NA,NA,NA,NA,NA,NA,NA,NA,NA,NA,NA
"18","killed","&&&&&&","left","care.vice","","","",NA,NA,NA,NA,0,11,11,44,NA,NA,NA,NA,NA,NA,NA,NA,NA,NA,NA,NA,"",NA,"",NA,"",NA,"",NA,"LDT","right",0.683737986604683,0,"",NA,"right",0,0.683737986604683,NA,NA,"",NA,"",NA,"",NA,"",NA,NA,NA,NA,NA,NA,NA,NA,"",NA,"",NA,1006,"2019_Mar_06_0951","mf_amp_cond2","3.0.4",60.0139738467059,NA,NA,NA,NA,NA,NA,NA,NA,NA,NA,NA,NA,NA,NA,NA,NA,NA
"19","sowntrodden","&&&&&&&&&&&","right","nonword","","","",NA,NA,NA,NA,0,12,12,116,NA,NA,NA,NA,NA,NA,NA,NA,NA,NA,NA,NA,"",NA,"",NA,"",NA,"",NA,"LDT","left",0.817118658334948,0,"",NA,"left",0,0.817118658334948,NA,NA,"",NA,"",NA,"",NA,"",NA,NA,NA,NA,NA,NA,NA,NA,"",NA,"",NA,1006,"2019_Mar_06_0951","mf_amp_cond2","3.0.4",60.0139738467059,NA,NA,NA,NA,NA,NA,NA,NA,NA,NA,NA,NA,NA,NA,NA,NA,NA
"20","fraud","&&&&&","left","fairness.vice","","","",NA,NA,NA,NA,0,13,13,96,NA,NA,NA,NA,NA,NA,NA,NA,NA,NA,NA,NA,"",NA,"",NA,"",NA,"",NA,"LDT","right",0.717091333004646,0,"",NA,"right",0,0.717091333004646,NA,NA,"",NA,"",NA,"",NA,"",NA,NA,NA,NA,NA,NA,NA,NA,"",NA,"",NA,1006,"2019_Mar_06_0951","mf_amp_cond2","3.0.4",60.0139738467059,NA,NA,NA,NA,NA,NA,NA,NA,NA,NA,NA,NA,NA,NA,NA,NA,NA
"21","leact","&&&&&","right","nonword","","","",NA,NA,NA,NA,0,14,14,157,NA,NA,NA,NA,NA,NA,NA,NA,NA,NA,NA,NA,"",NA,"",NA,"",NA,"",NA,"LDT","left",3.40110257349443,0,"",NA,"left",0,3.40110257349443,NA,NA,"",NA,"",NA,"",NA,"",NA,NA,NA,NA,NA,NA,NA,NA,"",NA,"",NA,1006,"2019_Mar_06_0951","mf_amp_cond2","3.0.4",60.0139738467059,NA,NA,NA,NA,NA,NA,NA,NA,NA,NA,NA,NA,NA,NA,NA,NA,NA
"22","officers","&&&&&&&&","left","authority.vice","","","",NA,NA,NA,NA,0,15,15,199,NA,NA,NA,NA,NA,NA,NA,NA,NA,NA,NA,NA,"",NA,"",NA,"",NA,"",NA,"LDT","right",0.533707742695697,0,"",NA,"right",0,0.533707742695697,NA,NA,"",NA,"",NA,"",NA,"",NA,NA,NA,NA,NA,NA,NA,NA,"",NA,"",NA,1006,"2019_Mar_06_0951","mf_amp_cond2","3.0.4",60.0139738467059,NA,NA,NA,NA,NA,NA,NA,NA,NA,NA,NA,NA,NA,NA,NA,NA,NA
"23","although","&&&&&&&&","left","neutral","","","",NA,NA,NA,NA,0,16,16,36,NA,NA,NA,NA,NA,NA,NA,NA,NA,NA,NA,NA,"",NA,"",NA,"",NA,"",NA,"LDT","right",1.28388269583229,0,"",NA,"right",0,1.28388269583229,NA,NA,"",NA,"",NA,"",NA,"",NA,NA,NA,NA,NA,NA,NA,NA,"",NA,"",NA,1006,"2019_Mar_06_0951","mf_amp_cond2","3.0.4",60.0139738467059,NA,NA,NA,NA,NA,NA,NA,NA,NA,NA,NA,NA,NA,NA,NA,NA,NA
"24","besides","&&&&&&&","left","neutral","","","",NA,NA,NA,NA,0,17,17,184,NA,NA,NA,NA,NA,NA,NA,NA,NA,NA,NA,NA,"",NA,"",NA,"",NA,"",NA,"LDT","right",1.15052960603498,0,"",NA,"right",0,1.15052960603498,NA,NA,"",NA,"",NA,"",NA,"",NA,NA,NA,NA,NA,NA,NA,NA,"",NA,"",NA,1006,"2019_Mar_06_0951","mf_amp_cond2","3.0.4",60.0139738467059,NA,NA,NA,NA,NA,NA,NA,NA,NA,NA,NA,NA,NA,NA,NA,NA,NA
"25","wherever","&&&&&&&&","left","neutral","","","",NA,NA,NA,NA,0,18,18,128,NA,NA,NA,NA,NA,NA,NA,NA,NA,NA,NA,NA,"",NA,"",NA,"",NA,"",NA,"LDT","right",0.767094892915338,0,"",NA,"right",0,0.767094892915338,NA,NA,"",NA,"",NA,"",NA,"",NA,NA,NA,NA,NA,NA,NA,NA,"",NA,"",NA,1006,"2019_Mar_06_0951","mf_amp_cond2","3.0.4",60.0139738467059,NA,NA,NA,NA,NA,NA,NA,NA,NA,NA,NA,NA,NA,NA,NA,NA,NA
"26","fair","&&&&","left","fairness.virtue","","","",NA,NA,NA,NA,0,19,19,172,NA,NA,NA,NA,NA,NA,NA,NA,NA,NA,NA,NA,"",NA,"",NA,"",NA,"",NA,"LDT","right",0.600374345085584,0,"",NA,"right",0,0.600374345085584,NA,NA,"",NA,"",NA,"",NA,"",NA,NA,NA,NA,NA,NA,NA,NA,"",NA,"",NA,1006,"2019_Mar_06_0951","mf_amp_cond2","3.0.4",60.0139738467059,NA,NA,NA,NA,NA,NA,NA,NA,NA,NA,NA,NA,NA,NA,NA,NA,NA
"27","whereafter","&&&&&&&&&&","left","neutral","","","",NA,NA,NA,NA,0,20,20,35,NA,NA,NA,NA,NA,NA,NA,NA,NA,NA,NA,NA,"",NA,"",NA,"",NA,"",NA,"LDT","right",1.13387490226887,0,"",NA,"right",0,1.13387490226887,NA,NA,"",NA,"",NA,"",NA,"",NA,NA,NA,NA,NA,NA,NA,NA,"",NA,"",NA,1006,"2019_Mar_06_0951","mf_amp_cond2","3.0.4",60.0139738467059,NA,NA,NA,NA,NA,NA,NA,NA,NA,NA,NA,NA,NA,NA,NA,NA,NA
"28","letish","&&&&&&","right","nonword","","","",NA,NA,NA,NA,0,21,21,40,NA,NA,NA,NA,NA,NA,NA,NA,NA,NA,NA,NA,"",NA,"",NA,"",NA,"",NA,"LDT","left",0.850472004618496,0,"",NA,"left",0,0.850472004618496,NA,NA,"",NA,"",NA,"",NA,"",NA,NA,NA,NA,NA,NA,NA,NA,"",NA,"",NA,1006,"2019_Mar_06_0951","mf_amp_cond2","3.0.4",60.0139738467059,NA,NA,NA,NA,NA,NA,NA,NA,NA,NA,NA,NA,NA,NA,NA,NA,NA
"29","praised","&&&&&&&","left","loyalty.virtue","","","",NA,NA,NA,NA,0,22,22,4,NA,NA,NA,NA,NA,NA,NA,NA,NA,NA,NA,NA,"",NA,"",NA,"",NA,"",NA,"LDT","right",0.667079754872248,0,"",NA,"right",0,0.667079754872248,NA,NA,"",NA,"",NA,"",NA,"",NA,NA,NA,NA,NA,NA,NA,NA,"",NA,"",NA,1006,"2019_Mar_06_0951","mf_amp_cond2","3.0.4",60.0139738467059,NA,NA,NA,NA,NA,NA,NA,NA,NA,NA,NA,NA,NA,NA,NA,NA,NA
"30","dumid","&&&&&","right","nonword","","","",NA,NA,NA,NA,0,23,23,43,NA,NA,NA,NA,NA,NA,NA,NA,NA,NA,NA,NA,"",NA,"",NA,"",NA,"",NA,"LDT","left",3.13432711840142,0,"",NA,"left",0,3.13432711840142,NA,NA,"",NA,"",NA,"",NA,"",NA,NA,NA,NA,NA,NA,NA,NA,"",NA,"",NA,1006,"2019_Mar_06_0951","mf_amp_cond2","3.0.4",60.0139738467059,NA,NA,NA,NA,NA,NA,NA,NA,NA,NA,NA,NA,NA,NA,NA,NA,NA
"31","erks","&&&&","right","nonword","","","",NA,NA,NA,NA,0,24,24,62,NA,NA,NA,NA,NA,NA,NA,NA,NA,NA,NA,NA,"",NA,"",NA,"",NA,"",NA,"LDT","right",0.717079786933027,1,"",NA,"right",1,0.717079786933027,NA,NA,"",NA,"",NA,"",NA,"",NA,NA,NA,NA,NA,NA,NA,NA,"",NA,"",NA,1006,"2019_Mar_06_0951","mf_amp_cond2","3.0.4",60.0139738467059,NA,NA,NA,NA,NA,NA,NA,NA,NA,NA,NA,NA,NA,NA,NA,NA,NA
"32","ban","&&&","left","loyalty.vice","","","",NA,NA,NA,NA,0,25,25,9,NA,NA,NA,NA,NA,NA,NA,NA,NA,NA,NA,NA,"",NA,"",NA,"",NA,"",NA,"LDT","right",0.533721854328178,0,"",NA,"right",0,0.533721854328178,NA,NA,"",NA,"",NA,"",NA,"",NA,NA,NA,NA,NA,NA,NA,NA,"",NA,"",NA,1006,"2019_Mar_06_0951","mf_amp_cond2","3.0.4",60.0139738467059,NA,NA,NA,NA,NA,NA,NA,NA,NA,NA,NA,NA,NA,NA,NA,NA,NA
"33","Boeinf","&&&&&&","right","nonword","","","",NA,NA,NA,NA,0,26,26,149,NA,NA,NA,NA,NA,NA,NA,NA,NA,NA,NA,NA,"",NA,"",NA,"",NA,"",NA,"LDT","left",1.03384404897224,0,"",NA,"left",0,1.03384404897224,NA,NA,"",NA,"",NA,"",NA,"",NA,NA,NA,NA,NA,NA,NA,NA,"",NA,"",NA,1006,"2019_Mar_06_0951","mf_amp_cond2","3.0.4",60.0139738467059,NA,NA,NA,NA,NA,NA,NA,NA,NA,NA,NA,NA,NA,NA,NA,NA,NA
"34","with","&&&&","left","neutral","","","",NA,NA,NA,NA,0,27,27,72,NA,NA,NA,NA,NA,NA,NA,NA,NA,NA,NA,NA,"",NA,"",NA,"",NA,"",NA,"LDT","right",0.783760822028853,0,"",NA,"right",0,0.783760822028853,NA,NA,"",NA,"",NA,"",NA,"",NA,NA,NA,NA,NA,NA,NA,NA,"",NA,"",NA,1006,"2019_Mar_06_0951","mf_amp_cond2","3.0.4",60.0139738467059,NA,NA,NA,NA,NA,NA,NA,NA,NA,NA,NA,NA,NA,NA,NA,NA,NA
"35","hence","&&&&&","left","neutral","","","",NA,NA,NA,NA,0,28,28,142,NA,NA,NA,NA,NA,NA,NA,NA,NA,NA,NA,NA,"",NA,"",NA,"",NA,"",NA,"LDT","right",0.867121576913632,0,"",NA,"right",0,0.867121576913632,NA,NA,"",NA,"",NA,"",NA,"",NA,NA,NA,NA,NA,NA,NA,NA,"",NA,"",NA,1006,"2019_Mar_06_0951","mf_amp_cond2","3.0.4",60.0139738467059,NA,NA,NA,NA,NA,NA,NA,NA,NA,NA,NA,NA,NA,NA,NA,NA,NA
"36","sonvoy","&&&&&&","None","nonword","","","",NA,NA,NA,NA,0,29,29,178,NA,NA,NA,NA,NA,NA,NA,NA,NA,NA,NA,NA,"",NA,"",NA,"",NA,"",NA,"LDT","left",0.900451510562561,0,"",NA,"left",0,0.900451510562561,NA,NA,"",NA,"",NA,"",NA,"",NA,NA,NA,NA,NA,NA,NA,NA,"",NA,"",NA,1006,"2019_Mar_06_0951","mf_amp_cond2","3.0.4",60.0139738467059,NA,NA,NA,NA,NA,NA,NA,NA,NA,NA,NA,NA,NA,NA,NA,NA,NA
"37","attacks","&&&&&&&","left","care.vice","","","",NA,NA,NA,NA,0,30,30,139,NA,NA,NA,NA,NA,NA,NA,NA,NA,NA,NA,NA,"",NA,"",NA,"",NA,"",NA,"LDT","right",0.433690680307336,0,"",NA,"right",0,0.433690680307336,NA,NA,"",NA,"",NA,"",NA,"",NA,NA,NA,NA,NA,NA,NA,NA,"",NA,"",NA,1006,"2019_Mar_06_0951","mf_amp_cond2","3.0.4",60.0139738467059,NA,NA,NA,NA,NA,NA,NA,NA,NA,NA,NA,NA,NA,NA,NA,NA,NA
"38","elduringly","&&&&&&&&&&","right","nonword","","","",NA,NA,NA,NA,0,31,31,73,NA,NA,NA,NA,NA,NA,NA,NA,NA,NA,NA,NA,"",NA,"",NA,"",NA,"",NA,"LDT","right",0.900450227665715,1,"",NA,"right",1,0.900450227665715,NA,NA,"",NA,"",NA,"",NA,"",NA,NA,NA,NA,NA,NA,NA,NA,"",NA,"",NA,1006,"2019_Mar_06_0951","mf_amp_cond2","3.0.4",60.0139738467059,NA,NA,NA,NA,NA,NA,NA,NA,NA,NA,NA,NA,NA,NA,NA,NA,NA
"39","dormandi","&&&&&&&&","None","nonword","","","",NA,NA,NA,NA,0,32,32,23,NA,NA,NA,NA,NA,NA,NA,NA,NA,NA,NA,NA,"",NA,"",NA,"",NA,"",NA,"LDT","left",2.00073477101978,0,"",NA,"left",0,2.00073477101978,NA,NA,"",NA,"",NA,"",NA,"",NA,NA,NA,NA,NA,NA,NA,NA,"",NA,"",NA,1006,"2019_Mar_06_0951","mf_amp_cond2","3.0.4",60.0139738467059,NA,NA,NA,NA,NA,NA,NA,NA,NA,NA,NA,NA,NA,NA,NA,NA,NA
"40","openet","&&&&&&","None","nonword","","","",NA,NA,NA,NA,0,33,33,158,NA,NA,NA,NA,NA,NA,NA,NA,NA,NA,NA,NA,"",NA,"",NA,"",NA,"",NA,"LDT","left",2.60090064781252,0,"",NA,"left",0,2.60090064781252,NA,NA,"",NA,"",NA,"",NA,"",NA,NA,NA,NA,NA,NA,NA,NA,"",NA,"",NA,1006,"2019_Mar_06_0951","mf_amp_cond2","3.0.4",60.0139738467059,NA,NA,NA,NA,NA,NA,NA,NA,NA,NA,NA,NA,NA,NA,NA,NA,NA
"41","respect","&&&&&&&","left","sanctity.virtue","","","",NA,NA,NA,NA,0,34,34,122,NA,NA,NA,NA,NA,NA,NA,NA,NA,NA,NA,NA,"",NA,"",NA,"",NA,"",NA,"LDT","right",0.467025104095228,0,"",NA,"right",0,0.467025104095228,NA,NA,"",NA,"",NA,"",NA,"",NA,NA,NA,NA,NA,NA,NA,NA,"",NA,"",NA,1006,"2019_Mar_06_0951","mf_amp_cond2","3.0.4",60.0139738467059,NA,NA,NA,NA,NA,NA,NA,NA,NA,NA,NA,NA,NA,NA,NA,NA,NA
"42","fostet","&&&&&&","right","nonword","","","",NA,NA,NA,NA,0,35,35,109,NA,NA,NA,NA,NA,NA,NA,NA,NA,NA,NA,NA,"",NA,"",NA,"",NA,"",NA,"LDT","right",1.30058133823331,1,"",NA,"right",1,1.30058133823331,NA,NA,"",NA,"",NA,"",NA,"",NA,NA,NA,NA,NA,NA,NA,NA,"",NA,"",NA,1006,"2019_Mar_06_0951","mf_amp_cond2","3.0.4",60.0139738467059,NA,NA,NA,NA,NA,NA,NA,NA,NA,NA,NA,NA,NA,NA,NA,NA,NA
"43","shoirmaster","&&&&&&&&&&&","None","nonword","","","",NA,NA,NA,NA,0,36,36,165,NA,NA,NA,NA,NA,NA,NA,NA,NA,NA,NA,NA,"",NA,"",NA,"",NA,"",NA,"LDT","left",1.55062447523233,0,"",NA,"left",0,1.55062447523233,NA,NA,"",NA,"",NA,"",NA,"",NA,NA,NA,NA,NA,NA,NA,NA,"",NA,"",NA,1006,"2019_Mar_06_0951","mf_amp_cond2","3.0.4",60.0139738467059,NA,NA,NA,NA,NA,NA,NA,NA,NA,NA,NA,NA,NA,NA,NA,NA,NA
"44","Oregoniuns","&&&&&&&&&&","right","nonword","","","",NA,NA,NA,NA,0,37,37,82,NA,NA,NA,NA,NA,NA,NA,NA,NA,NA,NA,NA,"",NA,"",NA,"",NA,"",NA,"LDT","left",1.38390841754153,0,"",NA,"left",0,1.38390841754153,NA,NA,"",NA,"",NA,"",NA,"",NA,NA,NA,NA,NA,NA,NA,NA,"",NA,"",NA,1006,"2019_Mar_06_0951","mf_amp_cond2","3.0.4",60.0139738467059,NA,NA,NA,NA,NA,NA,NA,NA,NA,NA,NA,NA,NA,NA,NA,NA,NA
"45","reprisols","&&&&&&&&&","right","nonword","","","",NA,NA,NA,NA,0,38,38,10,NA,NA,NA,NA,NA,NA,NA,NA,NA,NA,NA,NA,"",NA,"",NA,"",NA,"",NA,"LDT","left",1.58397461439017,0,"",NA,"left",0,1.58397461439017,NA,NA,"",NA,"",NA,"",NA,"",NA,NA,NA,NA,NA,NA,NA,NA,"",NA,"",NA,1006,"2019_Mar_06_0951","mf_amp_cond2","3.0.4",60.0139738467059,NA,NA,NA,NA,NA,NA,NA,NA,NA,NA,NA,NA,NA,NA,NA,NA,NA
"46","sgrawl","&&&&&&","right","nonword","","","",NA,NA,NA,NA,0,39,39,151,NA,NA,NA,NA,NA,NA,NA,NA,NA,NA,NA,NA,"",NA,"",NA,"",NA,"",NA,"LDT","right",2.13411159417592,1,"",NA,"right",1,2.13411159417592,NA,NA,"",NA,"",NA,"",NA,"",NA,NA,NA,NA,NA,NA,NA,NA,"",NA,"",NA,1006,"2019_Mar_06_0951","mf_amp_cond2","3.0.4",60.0139738467059,NA,NA,NA,NA,NA,NA,NA,NA,NA,NA,NA,NA,NA,NA,NA,NA,NA
"47","whither","&&&&&&&","left","neutral","","","",NA,NA,NA,NA,0,40,40,66,NA,NA,NA,NA,NA,NA,NA,NA,NA,NA,NA,NA,"",NA,"",NA,"",NA,"",NA,"LDT","right",1.50063117837999,0,"",NA,"right",0,1.50063117837999,NA,NA,"",NA,"",NA,"",NA,"",NA,NA,NA,NA,NA,NA,NA,NA,"",NA,"",NA,1006,"2019_Mar_06_0951","mf_amp_cond2","3.0.4",60.0139738467059,NA,NA,NA,NA,NA,NA,NA,NA,NA,NA,NA,NA,NA,NA,NA,NA,NA
"48","less","&&&&","left","neutral","","","",NA,NA,NA,NA,0,41,41,113,NA,NA,NA,NA,NA,NA,NA,NA,NA,NA,NA,NA,"",NA,"",NA,"",NA,"",NA,"LDT","right",0.500369149493054,0,"",NA,"right",0,0.500369149493054,NA,NA,"",NA,"",NA,"",NA,"",NA,NA,NA,NA,NA,NA,NA,NA,"",NA,"",NA,1006,"2019_Mar_06_0951","mf_amp_cond2","3.0.4",60.0139738467059,NA,NA,NA,NA,NA,NA,NA,NA,NA,NA,NA,NA,NA,NA,NA,NA,NA
"49","proached","&&&&&&&&","right","nonword","","","",NA,NA,NA,NA,0,42,42,148,NA,NA,NA,NA,NA,NA,NA,NA,NA,NA,NA,NA,"",NA,"",NA,"",NA,"",NA,"LDT","left",1.38392573653255,0,"",NA,"left",0,1.38392573653255,NA,NA,"",NA,"",NA,"",NA,"",NA,NA,NA,NA,NA,NA,NA,NA,"",NA,"",NA,1006,"2019_Mar_06_0951","mf_amp_cond2","3.0.4",60.0139738467059,NA,NA,NA,NA,NA,NA,NA,NA,NA,NA,NA,NA,NA,NA,NA,NA,NA
"50","fonderland","&&&&&&&&&&","right","nonword","","","",NA,NA,NA,NA,0,43,43,115,NA,NA,NA,NA,NA,NA,NA,NA,NA,NA,NA,NA,"",NA,"",NA,"",NA,"",NA,"LDT","left",1.53396431927104,0,"",NA,"left",0,1.53396431927104,NA,NA,"",NA,"",NA,"",NA,"",NA,NA,NA,NA,NA,NA,NA,NA,"",NA,"",NA,1006,"2019_Mar_06_0951","mf_amp_cond2","3.0.4",60.0139738467059,NA,NA,NA,NA,NA,NA,NA,NA,NA,NA,NA,NA,NA,NA,NA,NA,NA
"51","party","&&&&&","left","loyalty.virtue","","","",NA,NA,NA,NA,0,44,44,83,NA,NA,NA,NA,NA,NA,NA,NA,NA,NA,NA,NA,"",NA,"",NA,"",NA,"",NA,"LDT","right",0.833795812563039,0,"",NA,"right",0,0.833795812563039,NA,NA,"",NA,"",NA,"",NA,"",NA,NA,NA,NA,NA,NA,NA,NA,"",NA,"",NA,1006,"2019_Mar_06_0951","mf_amp_cond2","3.0.4",60.0139738467059,NA,NA,NA,NA,NA,NA,NA,NA,NA,NA,NA,NA,NA,NA,NA,NA,NA
"52","latter","&&&&&&","left","neutral","","","",NA,NA,NA,NA,0,45,45,169,NA,NA,NA,NA,NA,NA,NA,NA,NA,NA,NA,NA,"",NA,"",NA,"",NA,"",NA,"LDT","right",0.78379000746645,0,"",NA,"right",0,0.78379000746645,NA,NA,"",NA,"",NA,"",NA,"",NA,NA,NA,NA,NA,NA,NA,NA,"",NA,"",NA,1006,"2019_Mar_06_0951","mf_amp_cond2","3.0.4",60.0139738467059,NA,NA,NA,NA,NA,NA,NA,NA,NA,NA,NA,NA,NA,NA,NA,NA,NA
"53","fifty","&&&&&","left","neutral","","","",NA,NA,NA,NA,0,46,46,37,NA,NA,NA,NA,NA,NA,NA,NA,NA,NA,NA,NA,"",NA,"",NA,"",NA,"",NA,"LDT","right",0.850264498381875,0,"",NA,"right",0,0.850264498381875,NA,NA,"",NA,"",NA,"",NA,"",NA,NA,NA,NA,NA,NA,NA,NA,"",NA,"",NA,1006,"2019_Mar_06_0951","mf_amp_cond2","3.0.4",60.0139738467059,NA,NA,NA,NA,NA,NA,NA,NA,NA,NA,NA,NA,NA,NA,NA,NA,NA
"54","feleological","&&&&&&&&&&&&","right","nonword","","","",NA,NA,NA,NA,0,47,47,126,NA,NA,NA,NA,NA,NA,NA,NA,NA,NA,NA,NA,"",NA,"",NA,"",NA,"",NA,"LDT","left",3.71784566785209,0,"",NA,"left",0,3.71784566785209,NA,NA,"",NA,"",NA,"",NA,"",NA,NA,NA,NA,NA,NA,NA,NA,"",NA,"",NA,1006,"2019_Mar_06_0951","mf_amp_cond2","3.0.4",60.0139738467059,NA,NA,NA,NA,NA,NA,NA,NA,NA,NA,NA,NA,NA,NA,NA,NA,NA
"55","myself","&&&&&&","left","neutral","","","",NA,NA,NA,NA,0,48,48,140,NA,NA,NA,NA,NA,NA,NA,NA,NA,NA,NA,NA,"",NA,"",NA,"",NA,"",NA,"LDT","right",0.66707334050443,0,"",NA,"right",0,0.66707334050443,NA,NA,"",NA,"",NA,"",NA,"",NA,NA,NA,NA,NA,NA,NA,NA,"",NA,"",NA,1006,"2019_Mar_06_0951","mf_amp_cond2","3.0.4",60.0139738467059,NA,NA,NA,NA,NA,NA,NA,NA,NA,NA,NA,NA,NA,NA,NA,NA,NA
"56","smapper","&&&&&&&","right","nonword","","","",NA,NA,NA,NA,0,49,49,70,NA,NA,NA,NA,NA,NA,NA,NA,NA,NA,NA,NA,"",NA,"",NA,"",NA,"",NA,"LDT","left",1.6839852622943,0,"",NA,"left",0,1.6839852622943,NA,NA,"",NA,"",NA,"",NA,"",NA,NA,NA,NA,NA,NA,NA,NA,"",NA,"",NA,1006,"2019_Mar_06_0951","mf_amp_cond2","3.0.4",60.0139738467059,NA,NA,NA,NA,NA,NA,NA,NA,NA,NA,NA,NA,NA,NA,NA,NA,NA
"57","embrace","&&&&&&&","left","authority.virtue","","","",NA,NA,NA,NA,0,50,50,31,NA,NA,NA,NA,NA,NA,NA,NA,NA,NA,NA,NA,"",NA,"",NA,"",NA,"",NA,"LDT","right",0.650410939357243,0,"",NA,"right",0,0.650410939357243,NA,NA,"",NA,"",NA,"",NA,"",NA,NA,NA,NA,NA,NA,NA,NA,"",NA,"",NA,1006,"2019_Mar_06_0951","mf_amp_cond2","3.0.4",60.0139738467059,NA,NA,NA,NA,NA,NA,NA,NA,NA,NA,NA,NA,NA,NA,NA,NA,NA
"58","faspberry","&&&&&&&&&","None","nonword","","","",NA,NA,NA,NA,0,51,51,179,NA,NA,NA,NA,NA,NA,NA,NA,NA,NA,NA,NA,"",NA,"",NA,"",NA,"",NA,"LDT","right",1.10055940097664,0,"",NA,"right",0,1.10055940097664,NA,NA,"",NA,"",NA,"",NA,"",NA,NA,NA,NA,NA,NA,NA,NA,"",NA,"",NA,1006,"2019_Mar_06_0951","mf_amp_cond2","3.0.4",60.0139738467059,NA,NA,NA,NA,NA,NA,NA,NA,NA,NA,NA,NA,NA,NA,NA,NA,NA
"59","hereby","&&&&&&","left","neutral","","","",NA,NA,NA,NA,0,52,52,194,NA,NA,NA,NA,NA,NA,NA,NA,NA,NA,NA,NA,"",NA,"",NA,"",NA,"",NA,"LDT","right",0.81711320602335,0,"",NA,"right",0,0.81711320602335,NA,NA,"",NA,"",NA,"",NA,"",NA,NA,NA,NA,NA,NA,NA,NA,"",NA,"",NA,1006,"2019_Mar_06_0951","mf_amp_cond2","3.0.4",60.0139738467059,NA,NA,NA,NA,NA,NA,NA,NA,NA,NA,NA,NA,NA,NA,NA,NA,NA
"60","scalbel","&&&&&&&","right","nonword","","","",NA,NA,NA,NA,0,53,53,63,NA,NA,NA,NA,NA,NA,NA,NA,NA,NA,NA,NA,"",NA,"",NA,"",NA,"",NA,"LDT","left",1.01715631084517,0,"",NA,"left",0,1.01715631084517,NA,NA,"",NA,"",NA,"",NA,"",NA,NA,NA,NA,NA,NA,NA,NA,"",NA,"",NA,1006,"2019_Mar_06_0951","mf_amp_cond2","3.0.4",60.0139738467059,NA,NA,NA,NA,NA,NA,NA,NA,NA,NA,NA,NA,NA,NA,NA,NA,NA
"61","praise","&&&&&&","left","authority.virtue","","","",NA,NA,NA,NA,0,54,54,138,NA,NA,NA,NA,NA,NA,NA,NA,NA,NA,NA,NA,"",NA,"",NA,"",NA,"",NA,"LDT","right",0.850453723571263,0,"",NA,"right",0,0.850453723571263,NA,NA,"",NA,"",NA,"",NA,"",NA,NA,NA,NA,NA,NA,NA,NA,"",NA,"",NA,1006,"2019_Mar_06_0951","mf_amp_cond2","3.0.4",60.0139738467059,NA,NA,NA,NA,NA,NA,NA,NA,NA,NA,NA,NA,NA,NA,NA,NA,NA
"62","refuejing","&&&&&&&&&","right","nonword","","","",NA,NA,NA,NA,0,55,55,192,NA,NA,NA,NA,NA,NA,NA,NA,NA,NA,NA,NA,"",NA,"",NA,"",NA,"",NA,"LDT","right",1.16719681792893,1,"",NA,"right",1,1.16719681792893,NA,NA,"",NA,"",NA,"",NA,"",NA,NA,NA,NA,NA,NA,NA,NA,"",NA,"",NA,1006,"2019_Mar_06_0951","mf_amp_cond2","3.0.4",60.0139738467059,NA,NA,NA,NA,NA,NA,NA,NA,NA,NA,NA,NA,NA,NA,NA,NA,NA
"63","pumber","&&&&&&","None","nonword","","","",NA,NA,NA,NA,0,56,56,59,NA,NA,NA,NA,NA,NA,NA,NA,NA,NA,NA,NA,"",NA,"",NA,"",NA,"",NA,"LDT","left",0.933806460467167,0,"",NA,"left",0,0.933806460467167,NA,NA,"",NA,"",NA,"",NA,"",NA,NA,NA,NA,NA,NA,NA,NA,"",NA,"",NA,1006,"2019_Mar_06_0951","mf_amp_cond2","3.0.4",60.0139738467059,NA,NA,NA,NA,NA,NA,NA,NA,NA,NA,NA,NA,NA,NA,NA,NA,NA
"64","mecan","&&&&&","right","nonword","","","",NA,NA,NA,NA,0,57,57,71,NA,NA,NA,NA,NA,NA,NA,NA,NA,NA,NA,NA,"",NA,"",NA,"",NA,"",NA,"LDT","right",0.783771405695006,1,"",NA,"right",1,0.783771405695006,NA,NA,"",NA,"",NA,"",NA,"",NA,NA,NA,NA,NA,NA,NA,NA,"",NA,"",NA,1006,"2019_Mar_06_0951","mf_amp_cond2","3.0.4",60.0139738467059,NA,NA,NA,NA,NA,NA,NA,NA,NA,NA,NA,NA,NA,NA,NA,NA,NA
"65","chreams","&&&&&&&","right","nonword","","","",NA,NA,NA,NA,0,58,58,150,NA,NA,NA,NA,NA,NA,NA,NA,NA,NA,NA,NA,"",NA,"",NA,"",NA,"",NA,"LDT","left",1.85070709278807,0,"",NA,"left",0,1.85070709278807,NA,NA,"",NA,"",NA,"",NA,"",NA,NA,NA,NA,NA,NA,NA,NA,"",NA,"",NA,1006,"2019_Mar_06_0951","mf_amp_cond2","3.0.4",60.0139738467059,NA,NA,NA,NA,NA,NA,NA,NA,NA,NA,NA,NA,NA,NA,NA,NA,NA
"66","drug","&&&&","left","sanctity.vice","","","",NA,NA,NA,NA,0,59,59,175,NA,NA,NA,NA,NA,NA,NA,NA,NA,NA,NA,NA,"",NA,"",NA,"",NA,"",NA,"LDT","right",1.28389231744222,0,"",NA,"right",0,1.28389231744222,NA,NA,"",NA,"",NA,"",NA,"",NA,NA,NA,NA,NA,NA,NA,NA,"",NA,"",NA,1006,"2019_Mar_06_0951","mf_amp_cond2","3.0.4",60.0139738467059,NA,NA,NA,NA,NA,NA,NA,NA,NA,NA,NA,NA,NA,NA,NA,NA,NA
"67","shot","&&&&","left","care.vice","","","",NA,NA,NA,NA,0,60,60,141,NA,NA,NA,NA,NA,NA,NA,NA,NA,NA,NA,NA,"",NA,"",NA,"",NA,"",NA,"LDT","right",1.65064282040112,0,"",NA,"right",0,1.65064282040112,NA,NA,"",NA,"",NA,"",NA,"",NA,NA,NA,NA,NA,NA,NA,NA,"",NA,"",NA,1006,"2019_Mar_06_0951","mf_amp_cond2","3.0.4",60.0139738467059,NA,NA,NA,NA,NA,NA,NA,NA,NA,NA,NA,NA,NA,NA,NA,NA,NA
"68","abointment","&&&&&&&&&&","right","nonword","","","",NA,NA,NA,NA,0,61,61,41,NA,NA,NA,NA,NA,NA,NA,NA,NA,NA,NA,NA,"",NA,"",NA,"",NA,"",NA,"LDT","right",1.050528900465,1,"",NA,"right",1,1.050528900465,NA,NA,"",NA,"",NA,"",NA,"",NA,NA,NA,NA,NA,NA,NA,NA,"",NA,"",NA,1006,"2019_Mar_06_0951","mf_amp_cond2","3.0.4",60.0139738467059,NA,NA,NA,NA,NA,NA,NA,NA,NA,NA,NA,NA,NA,NA,NA,NA,NA
"69","friends","&&&&&&&","left","loyalty.virtue","","","",NA,NA,NA,NA,0,62,62,76,NA,NA,NA,NA,NA,NA,NA,NA,NA,NA,NA,NA,"",NA,"",NA,"",NA,"",NA,"LDT","right",0.917189281084575,0,"",NA,"right",0,0.917189281084575,NA,NA,"",NA,"",NA,"",NA,"",NA,NA,NA,NA,NA,NA,NA,NA,"",NA,"",NA,1006,"2019_Mar_06_0951","mf_amp_cond2","3.0.4",60.0139738467059,NA,NA,NA,NA,NA,NA,NA,NA,NA,NA,NA,NA,NA,NA,NA,NA,NA
"70","failure","&&&&&&&","left","loyalty.vice","","","",NA,NA,NA,NA,0,63,63,197,NA,NA,NA,NA,NA,NA,NA,NA,NA,NA,NA,NA,"",NA,"",NA,"",NA,"",NA,"LDT","right",0.81711897905916,0,"",NA,"right",0,0.81711897905916,NA,NA,"",NA,"",NA,"",NA,"",NA,NA,NA,NA,NA,NA,NA,NA,"",NA,"",NA,1006,"2019_Mar_06_0951","mf_amp_cond2","3.0.4",60.0139738467059,NA,NA,NA,NA,NA,NA,NA,NA,NA,NA,NA,NA,NA,NA,NA,NA,NA
"71","godlaness","&&&&&&&&&","right","nonword","","","",NA,NA,NA,NA,0,64,64,61,NA,NA,NA,NA,NA,NA,NA,NA,NA,NA,NA,NA,"",NA,"",NA,"",NA,"",NA,"LDT","right",1.7506807296304,1,"",NA,"right",1,1.7506807296304,NA,NA,"",NA,"",NA,"",NA,"",NA,NA,NA,NA,NA,NA,NA,NA,"",NA,"",NA,1006,"2019_Mar_06_0951","mf_amp_cond2","3.0.4",60.0139738467059,NA,NA,NA,NA,NA,NA,NA,NA,NA,NA,NA,NA,NA,NA,NA,NA,NA
"72","everything","&&&&&&&&&&","left","neutral","","","",NA,NA,NA,NA,0,65,65,166,NA,NA,NA,NA,NA,NA,NA,NA,NA,NA,NA,NA,"",NA,"",NA,"",NA,"",NA,"LDT","right",0.666935430606827,0,"",NA,"right",0,0.666935430606827,NA,NA,"",NA,"",NA,"",NA,"",NA,NA,NA,NA,NA,NA,NA,NA,"",NA,"",NA,1006,"2019_Mar_06_0951","mf_amp_cond2","3.0.4",60.0139738467059,NA,NA,NA,NA,NA,NA,NA,NA,NA,NA,NA,NA,NA,NA,NA,NA,NA
"73","juck","&&&&","right","nonword","","","",NA,NA,NA,NA,0,66,66,103,NA,NA,NA,NA,NA,NA,NA,NA,NA,NA,NA,NA,"",NA,"",NA,"",NA,"",NA,"LDT","left",0.900471715955064,0,"",NA,"left",0,0.900471715955064,NA,NA,"",NA,"",NA,"",NA,"",NA,NA,NA,NA,NA,NA,NA,NA,"",NA,"",NA,1006,"2019_Mar_06_0951","mf_amp_cond2","3.0.4",60.0139738467059,NA,NA,NA,NA,NA,NA,NA,NA,NA,NA,NA,NA,NA,NA,NA,NA,NA
"74","least","&&&&&","left","neutral","","","",NA,NA,NA,NA,0,67,67,52,NA,NA,NA,NA,NA,NA,NA,NA,NA,NA,NA,NA,"",NA,"",NA,"",NA,"",NA,"LDT","right",1.00048460892867,0,"",NA,"right",0,1.00048460892867,NA,NA,"",NA,"",NA,"",NA,"",NA,NA,NA,NA,NA,NA,NA,NA,"",NA,"",NA,1006,"2019_Mar_06_0951","mf_amp_cond2","3.0.4",60.0139738467059,NA,NA,NA,NA,NA,NA,NA,NA,NA,NA,NA,NA,NA,NA,NA,NA,NA
"75","atson","&&&&&","right","nonword","","","",NA,NA,NA,NA,0,68,68,51,NA,NA,NA,NA,NA,NA,NA,NA,NA,NA,NA,NA,"",NA,"",NA,"",NA,"",NA,"LDT","left",3.41775471146684,0,"",NA,"left",0,3.41775471146684,NA,NA,"",NA,"",NA,"",NA,"",NA,NA,NA,NA,NA,NA,NA,NA,"",NA,"",NA,1006,"2019_Mar_06_0951","mf_amp_cond2","3.0.4",60.0139738467059,NA,NA,NA,NA,NA,NA,NA,NA,NA,NA,NA,NA,NA,NA,NA,NA,NA
"76","anyhow","&&&&&&","left","neutral","","","",NA,NA,NA,NA,0,69,69,133,NA,NA,NA,NA,NA,NA,NA,NA,NA,NA,NA,NA,"",NA,"",NA,"",NA,"",NA,"LDT","right",1.1672019493999,0,"",NA,"right",0,1.1672019493999,NA,NA,"",NA,"",NA,"",NA,"",NA,NA,NA,NA,NA,NA,NA,NA,"",NA,"",NA,1006,"2019_Mar_06_0951","mf_amp_cond2","3.0.4",60.0139738467059,NA,NA,NA,NA,NA,NA,NA,NA,NA,NA,NA,NA,NA,NA,NA,NA,NA
"77","protesters","&&&&&&&&&&","left","authority.vice","","","",NA,NA,NA,NA,0,70,70,3,NA,NA,NA,NA,NA,NA,NA,NA,NA,NA,NA,NA,"",NA,"",NA,"",NA,"",NA,"LDT","right",1.16719425225165,0,"",NA,"right",0,1.16719425225165,NA,NA,"",NA,"",NA,"",NA,"",NA,NA,NA,NA,NA,NA,NA,NA,"",NA,"",NA,1006,"2019_Mar_06_0951","mf_amp_cond2","3.0.4",60.0139738467059,NA,NA,NA,NA,NA,NA,NA,NA,NA,NA,NA,NA,NA,NA,NA,NA,NA
"78","pulge","&&&&&","right","nonword","","","",NA,NA,NA,NA,0,71,71,58,NA,NA,NA,NA,NA,NA,NA,NA,NA,NA,NA,NA,"",NA,"",NA,"",NA,"",NA,"LDT","right",1.18388134869747,1,"",NA,"right",1,1.18388134869747,NA,NA,"",NA,"",NA,"",NA,"",NA,NA,NA,NA,NA,NA,NA,NA,"",NA,"",NA,1006,"2019_Mar_06_0951","mf_amp_cond2","3.0.4",60.0139738467059,NA,NA,NA,NA,NA,NA,NA,NA,NA,NA,NA,NA,NA,NA,NA,NA,NA
"79","gillipede","&&&&&&&&&","None","nonword","","","",NA,NA,NA,NA,0,72,72,78,NA,NA,NA,NA,NA,NA,NA,NA,NA,NA,NA,NA,"",NA,"",NA,"",NA,"",NA,"LDT","left",0.700431818258949,0,"",NA,"left",0,0.700431818258949,NA,NA,"",NA,"",NA,"",NA,"",NA,NA,NA,NA,NA,NA,NA,NA,"",NA,"",NA,1006,"2019_Mar_06_0951","mf_amp_cond2","3.0.4",60.0139738467059,NA,NA,NA,NA,NA,NA,NA,NA,NA,NA,NA,NA,NA,NA,NA,NA,NA
"80","synchronazers","&&&&&&&&&&&&&","right","nonword","","","",NA,NA,NA,NA,0,73,73,124,NA,NA,NA,NA,NA,NA,NA,NA,NA,NA,NA,NA,"",NA,"",NA,"",NA,"",NA,"LDT","left",0.783787121064961,0,"",NA,"left",0,0.783787121064961,NA,NA,"",NA,"",NA,"",NA,"",NA,NA,NA,NA,NA,NA,NA,NA,"",NA,"",NA,1006,"2019_Mar_06_0951","mf_amp_cond2","3.0.4",60.0139738467059,NA,NA,NA,NA,NA,NA,NA,NA,NA,NA,NA,NA,NA,NA,NA,NA,NA
"81","vurtain","&&&&&&&","right","nonword","","","",NA,NA,NA,NA,0,74,74,74,NA,NA,NA,NA,NA,NA,NA,NA,NA,NA,NA,NA,"",NA,"",NA,"",NA,"",NA,"LDT","right",0.867134085041471,1,"",NA,"right",1,0.867134085041471,NA,NA,"",NA,"",NA,"",NA,"",NA,NA,NA,NA,NA,NA,NA,NA,"",NA,"",NA,1006,"2019_Mar_06_0951","mf_amp_cond2","3.0.4",60.0139738467059,NA,NA,NA,NA,NA,NA,NA,NA,NA,NA,NA,NA,NA,NA,NA,NA,NA
"82","ammessment","&&&&&&&&&&","right","nonword","","","",NA,NA,NA,NA,0,75,75,6,NA,NA,NA,NA,NA,NA,NA,NA,NA,NA,NA,NA,"",NA,"",NA,"",NA,"",NA,"LDT","right",0.733637953759171,1,"",NA,"right",1,0.733637953759171,NA,NA,"",NA,"",NA,"",NA,"",NA,NA,NA,NA,NA,NA,NA,NA,"",NA,"",NA,1006,"2019_Mar_06_0951","mf_amp_cond2","3.0.4",60.0139738467059,NA,NA,NA,NA,NA,NA,NA,NA,NA,NA,NA,NA,NA,NA,NA,NA,NA
"83","cromiscuity","&&&&&&&&&&&","right","nonword","","","",NA,NA,NA,NA,0,76,76,67,NA,NA,NA,NA,NA,NA,NA,NA,NA,NA,NA,NA,"",NA,"",NA,"",NA,"",NA,"LDT","right",0.717089729267173,1,"",NA,"right",1,0.717089729267173,NA,NA,"",NA,"",NA,"",NA,"",NA,NA,NA,NA,NA,NA,NA,NA,"",NA,"",NA,1006,"2019_Mar_06_0951","mf_amp_cond2","3.0.4",60.0139738467059,NA,NA,NA,NA,NA,NA,NA,NA,NA,NA,NA,NA,NA,NA,NA,NA,NA
"84","perfect","&&&&&&&","left","sanctity.virtue","","","",NA,NA,NA,NA,0,77,77,193,NA,NA,NA,NA,NA,NA,NA,NA,NA,NA,NA,NA,"",NA,"",NA,"",NA,"",NA,"LDT","right",0.550371747347526,0,"",NA,"right",0,0.550371747347526,NA,NA,"",NA,"",NA,"",NA,"",NA,NA,NA,NA,NA,NA,NA,NA,"",NA,"",NA,1006,"2019_Mar_06_0951","mf_amp_cond2","3.0.4",60.0139738467059,NA,NA,NA,NA,NA,NA,NA,NA,NA,NA,NA,NA,NA,NA,NA,NA,NA
"85","nomaric","&&&&&&&","None","nonword","","","",NA,NA,NA,NA,0,78,78,53,NA,NA,NA,NA,NA,NA,NA,NA,NA,NA,NA,NA,"",NA,"",NA,"",NA,"",NA,"LDT","left",2.1841404910665,0,"",NA,"left",0,2.1841404910665,NA,NA,"",NA,"",NA,"",NA,"",NA,NA,NA,NA,NA,NA,NA,NA,"",NA,"",NA,1006,"2019_Mar_06_0951","mf_amp_cond2","3.0.4",60.0139738467059,NA,NA,NA,NA,NA,NA,NA,NA,NA,NA,NA,NA,NA,NA,NA,NA,NA
"86","uller","&&&&&","right","nonword","","","",NA,NA,NA,NA,0,79,79,16,NA,NA,NA,NA,NA,NA,NA,NA,NA,NA,NA,NA,"",NA,"",NA,"",NA,"",NA,"LDT","left",1.11718940921128,0,"",NA,"left",0,1.11718940921128,NA,NA,"",NA,"",NA,"",NA,"",NA,NA,NA,NA,NA,NA,NA,NA,"",NA,"",NA,1006,"2019_Mar_06_0951","mf_amp_cond2","3.0.4",60.0139738467059,NA,NA,NA,NA,NA,NA,NA,NA,NA,NA,NA,NA,NA,NA,NA,NA,NA
"87","pafer","&&&&&","right","nonword","","","",NA,NA,NA,NA,0,80,80,154,NA,NA,NA,NA,NA,NA,NA,NA,NA,NA,NA,NA,"",NA,"",NA,"",NA,"",NA,"LDT","right",0.433685869560577,1,"",NA,"right",1,0.433685869560577,NA,NA,"",NA,"",NA,"",NA,"",NA,NA,NA,NA,NA,NA,NA,NA,"",NA,"",NA,1006,"2019_Mar_06_0951","mf_amp_cond2","3.0.4",60.0139738467059,NA,NA,NA,NA,NA,NA,NA,NA,NA,NA,NA,NA,NA,NA,NA,NA,NA
"88","reviked","&&&&&&&","right","nonword","","","",NA,NA,NA,NA,0,81,81,114,NA,NA,NA,NA,NA,NA,NA,NA,NA,NA,NA,NA,"",NA,"",NA,"",NA,"",NA,"LDT","right",0.583737281034701,1,"",NA,"right",1,0.583737281034701,NA,NA,"",NA,"",NA,"",NA,"",NA,NA,NA,NA,NA,NA,NA,NA,"",NA,"",NA,1006,"2019_Mar_06_0951","mf_amp_cond2","3.0.4",60.0139738467059,NA,NA,NA,NA,NA,NA,NA,NA,NA,NA,NA,NA,NA,NA,NA,NA,NA
"89","yane","&&&&","right","nonword","","","",NA,NA,NA,NA,0,82,82,39,NA,NA,NA,NA,NA,NA,NA,NA,NA,NA,NA,NA,"",NA,"",NA,"",NA,"",NA,"LDT","left",0.967163013992831,0,"",NA,"left",0,0.967163013992831,NA,NA,"",NA,"",NA,"",NA,"",NA,NA,NA,NA,NA,NA,NA,NA,"",NA,"",NA,1006,"2019_Mar_06_0951","mf_amp_cond2","3.0.4",60.0139738467059,NA,NA,NA,NA,NA,NA,NA,NA,NA,NA,NA,NA,NA,NA,NA,NA,NA
"90","grovelire","&&&&&&&&&","right","nonword","","","",NA,NA,NA,NA,0,83,83,117,NA,NA,NA,NA,NA,NA,NA,NA,NA,NA,NA,NA,"",NA,"",NA,"",NA,"",NA,"LDT","left",0.767100024502724,0,"",NA,"left",0,0.767100024502724,NA,NA,"",NA,"",NA,"",NA,"",NA,NA,NA,NA,NA,NA,NA,NA,"",NA,"",NA,1006,"2019_Mar_06_0951","mf_amp_cond2","3.0.4",60.0139738467059,NA,NA,NA,NA,NA,NA,NA,NA,NA,NA,NA,NA,NA,NA,NA,NA,NA
"91","thru","&&&&","left","neutral","","","",NA,NA,NA,NA,0,84,84,180,NA,NA,NA,NA,NA,NA,NA,NA,NA,NA,NA,NA,"",NA,"",NA,"",NA,"",NA,"LDT","right",0.78376434976235,0,"",NA,"right",0,0.78376434976235,NA,NA,"",NA,"",NA,"",NA,"",NA,NA,NA,NA,NA,NA,NA,NA,"",NA,"",NA,1006,"2019_Mar_06_0951","mf_amp_cond2","3.0.4",60.0139738467059,NA,NA,NA,NA,NA,NA,NA,NA,NA,NA,NA,NA,NA,NA,NA,NA,NA
"92","pistraught","&&&&&&&&&&","right","nonword","","","",NA,NA,NA,NA,0,85,85,46,NA,NA,NA,NA,NA,NA,NA,NA,NA,NA,NA,NA,"",NA,"",NA,"",NA,"",NA,"LDT","left",0.750430246815085,0,"",NA,"left",0,0.750430246815085,NA,NA,"",NA,"",NA,"",NA,"",NA,NA,NA,NA,NA,NA,NA,NA,"",NA,"",NA,1006,"2019_Mar_06_0951","mf_amp_cond2","3.0.4",60.0139738467059,NA,NA,NA,NA,NA,NA,NA,NA,NA,NA,NA,NA,NA,NA,NA,NA,NA
"93","opportunity","&&&&&&&&&&&","left","fairness.virtue","","","",NA,NA,NA,NA,0,86,86,20,NA,NA,NA,NA,NA,NA,NA,NA,NA,NA,NA,NA,"",NA,"",NA,"",NA,"",NA,"LDT","right",0.883793278830126,0,"",NA,"right",0,0.883793278830126,NA,NA,"",NA,"",NA,"",NA,"",NA,NA,NA,NA,NA,NA,NA,NA,"",NA,"",NA,1006,"2019_Mar_06_0951","mf_amp_cond2","3.0.4",60.0139738467059,NA,NA,NA,NA,NA,NA,NA,NA,NA,NA,NA,NA,NA,NA,NA,NA,NA
"94","three","&&&&&","left","neutral","","","",NA,NA,NA,NA,0,87,87,55,NA,NA,NA,NA,NA,NA,NA,NA,NA,NA,NA,NA,"",NA,"",NA,"",NA,"",NA,"LDT","right",0.817113847471774,0,"",NA,"right",0,0.817113847471774,NA,NA,"",NA,"",NA,"",NA,"",NA,NA,NA,NA,NA,NA,NA,NA,"",NA,"",NA,1006,"2019_Mar_06_0951","mf_amp_cond2","3.0.4",60.0139738467059,NA,NA,NA,NA,NA,NA,NA,NA,NA,NA,NA,NA,NA,NA,NA,NA,NA
"95","arrests","&&&&&&&","left","authority.vice","","","",NA,NA,NA,NA,0,88,88,49,NA,NA,NA,NA,NA,NA,NA,NA,NA,NA,NA,NA,"",NA,"",NA,"",NA,"",NA,"LDT","right",0.633746934705414,0,"",NA,"right",0,0.633746934705414,NA,NA,"",NA,"",NA,"",NA,"",NA,NA,NA,NA,NA,NA,NA,NA,"",NA,"",NA,1006,"2019_Mar_06_0951","mf_amp_cond2","3.0.4",60.0139738467059,NA,NA,NA,NA,NA,NA,NA,NA,NA,NA,NA,NA,NA,NA,NA,NA,NA
"96","discovars","&&&&&&&&&","right","nonword","","","",NA,NA,NA,NA,0,89,89,111,NA,NA,NA,NA,NA,NA,NA,NA,NA,NA,NA,NA,"",NA,"",NA,"",NA,"",NA,"LDT","right",1.01717234693933,1,"",NA,"right",1,1.01717234693933,NA,NA,"",NA,"",NA,"",NA,"",NA,NA,NA,NA,NA,NA,NA,NA,"",NA,"",NA,1006,"2019_Mar_06_0951","mf_amp_cond2","3.0.4",60.0139738467059,NA,NA,NA,NA,NA,NA,NA,NA,NA,NA,NA,NA,NA,NA,NA,NA,NA
"97","chonograph","&&&&&&&&&&","right","nonword","","","",NA,NA,NA,NA,0,90,90,106,NA,NA,NA,NA,NA,NA,NA,NA,NA,NA,NA,NA,"",NA,"",NA,"",NA,"",NA,"LDT","left",1.23388266365509,0,"",NA,"left",0,1.23388266365509,NA,NA,"",NA,"",NA,"",NA,"",NA,NA,NA,NA,NA,NA,NA,NA,"",NA,"",NA,1006,"2019_Mar_06_0951","mf_amp_cond2","3.0.4",60.0139738467059,NA,NA,NA,NA,NA,NA,NA,NA,NA,NA,NA,NA,NA,NA,NA,NA,NA
"98","give","&&&&","left","neutral","","","",NA,NA,NA,NA,0,91,91,171,NA,NA,NA,NA,NA,NA,NA,NA,NA,NA,NA,NA,"",NA,"",NA,"",NA,"",NA,"LDT","right",0.550378482439555,0,"",NA,"right",0,0.550378482439555,NA,NA,"",NA,"",NA,"",NA,"",NA,NA,NA,NA,NA,NA,NA,NA,"",NA,"",NA,1006,"2019_Mar_06_0951","mf_amp_cond2","3.0.4",60.0139738467059,NA,NA,NA,NA,NA,NA,NA,NA,NA,NA,NA,NA,NA,NA,NA,NA,NA
"99","gowlands","&&&&&&&&","right","nonword","","","",NA,NA,NA,NA,0,92,92,181,NA,NA,NA,NA,NA,NA,NA,NA,NA,NA,NA,NA,"",NA,"",NA,"",NA,"",NA,"LDT","left",1.55061613651924,0,"",NA,"left",0,1.55061613651924,NA,NA,"",NA,"",NA,"",NA,"",NA,NA,NA,NA,NA,NA,NA,NA,"",NA,"",NA,1006,"2019_Mar_06_0951","mf_amp_cond2","3.0.4",60.0139738467059,NA,NA,NA,NA,NA,NA,NA,NA,NA,NA,NA,NA,NA,NA,NA,NA,NA
"100","somehow","&&&&&&&","left","neutral","","","",NA,NA,NA,NA,0,93,93,164,NA,NA,NA,NA,NA,NA,NA,NA,NA,NA,NA,NA,"",NA,"",NA,"",NA,"",NA,"LDT","right",3.78453568310943,0,"",NA,"right",0,3.78453568310943,NA,NA,"",NA,"",NA,"",NA,"",NA,NA,NA,NA,NA,NA,NA,NA,"",NA,"",NA,1006,"2019_Mar_06_0951","mf_amp_cond2","3.0.4",60.0139738467059,NA,NA,NA,NA,NA,NA,NA,NA,NA,NA,NA,NA,NA,NA,NA,NA,NA
"101","ebbitter","&&&&&&&&","right","nonword","","","",NA,NA,NA,NA,0,94,94,110,NA,NA,NA,NA,NA,NA,NA,NA,NA,NA,NA,NA,"",NA,"",NA,"",NA,"",NA,"LDT","right",0.950491632800549,1,"",NA,"right",1,0.950491632800549,NA,NA,"",NA,"",NA,"",NA,"",NA,NA,NA,NA,NA,NA,NA,NA,"",NA,"",NA,1006,"2019_Mar_06_0951","mf_amp_cond2","3.0.4",60.0139738467059,NA,NA,NA,NA,NA,NA,NA,NA,NA,NA,NA,NA,NA,NA,NA,NA,NA
"102","aubos","&&&&&","right","nonword","","","",NA,NA,NA,NA,0,95,95,177,NA,NA,NA,NA,NA,NA,NA,NA,NA,NA,NA,NA,"",NA,"",NA,"",NA,"",NA,"LDT","left",0.900441247504205,0,"",NA,"left",0,0.900441247504205,NA,NA,"",NA,"",NA,"",NA,"",NA,NA,NA,NA,NA,NA,NA,NA,"",NA,"",NA,1006,"2019_Mar_06_0951","mf_amp_cond2","3.0.4",60.0139738467059,NA,NA,NA,NA,NA,NA,NA,NA,NA,NA,NA,NA,NA,NA,NA,NA,NA
"103","rorroborated","&&&&&&&&&&&&","right","nonword","","","",NA,NA,NA,NA,0,96,96,120,NA,NA,NA,NA,NA,NA,NA,NA,NA,NA,NA,NA,"",NA,"",NA,"",NA,"",NA,"LDT","right",1.31724181503523,1,"",NA,"right",1,1.31724181503523,NA,NA,"",NA,"",NA,"",NA,"",NA,NA,NA,NA,NA,NA,NA,NA,"",NA,"",NA,1006,"2019_Mar_06_0951","mf_amp_cond2","3.0.4",60.0139738467059,NA,NA,NA,NA,NA,NA,NA,NA,NA,NA,NA,NA,NA,NA,NA,NA,NA
"104","men","&&&","left","loyalty.vice","","","",NA,NA,NA,NA,0,97,97,25,NA,NA,NA,NA,NA,NA,NA,NA,NA,NA,NA,NA,"",NA,"",NA,"",NA,"",NA,"LDT","right",0.53371030848939,0,"",NA,"right",0,0.53371030848939,NA,NA,"",NA,"",NA,"",NA,"",NA,NA,NA,NA,NA,NA,NA,NA,"",NA,"",NA,1006,"2019_Mar_06_0951","mf_amp_cond2","3.0.4",60.0139738467059,NA,NA,NA,NA,NA,NA,NA,NA,NA,NA,NA,NA,NA,NA,NA,NA,NA
"105","victim","&&&&&&","left","care.vice","","","",NA,NA,NA,NA,0,98,98,85,NA,NA,NA,NA,NA,NA,NA,NA,NA,NA,NA,NA,"",NA,"",NA,"",NA,"",NA,"LDT","right",1.38391451130155,0,"",NA,"right",0,1.38391451130155,NA,NA,"",NA,"",NA,"",NA,"",NA,NA,NA,NA,NA,NA,NA,NA,"",NA,"",NA,1006,"2019_Mar_06_0951","mf_amp_cond2","3.0.4",60.0139738467059,NA,NA,NA,NA,NA,NA,NA,NA,NA,NA,NA,NA,NA,NA,NA,NA,NA
"106","fifteen","&&&&&&&","left","neutral","","","",NA,NA,NA,NA,0,99,99,95,NA,NA,NA,NA,NA,NA,NA,NA,NA,NA,NA,NA,"",NA,"",NA,"",NA,"",NA,"LDT","right",0.950473672361113,0,"",NA,"right",0,0.950473672361113,NA,NA,"",NA,"",NA,"",NA,"",NA,NA,NA,NA,NA,NA,NA,NA,"",NA,"",NA,1006,"2019_Mar_06_0951","mf_amp_cond2","3.0.4",60.0139738467059,NA,NA,NA,NA,NA,NA,NA,NA,NA,NA,NA,NA,NA,NA,NA,NA,NA
"107","elsewhere","&&&&&&&&&","left","neutral","","","",NA,NA,NA,NA,0,100,100,79,NA,NA,NA,NA,NA,NA,NA,NA,NA,NA,NA,NA,"",NA,"",NA,"",NA,"",NA,"LDT","right",1.700668510166,0,"",NA,"right",0,1.700668510166,NA,NA,"",NA,"",NA,"",NA,"",NA,NA,NA,NA,NA,NA,NA,NA,"",NA,"",NA,1006,"2019_Mar_06_0951","mf_amp_cond2","3.0.4",60.0139738467059,NA,NA,NA,NA,NA,NA,NA,NA,NA,NA,NA,NA,NA,NA,NA,NA,NA
"108","lies","&&&&","left","fairness.vice","","","",NA,NA,NA,NA,0,101,101,121,NA,NA,NA,NA,NA,NA,NA,NA,NA,NA,NA,NA,"",NA,"",NA,"",NA,"",NA,"LDT","right",2.51752225321252,0,"",NA,"right",0,2.51752225321252,NA,NA,"",NA,"",NA,"",NA,"",NA,NA,NA,NA,NA,NA,NA,NA,"",NA,"",NA,1006,"2019_Mar_06_0951","mf_amp_cond2","3.0.4",60.0139738467059,NA,NA,NA,NA,NA,NA,NA,NA,NA,NA,NA,NA,NA,NA,NA,NA,NA
"109","corruption","&&&&&&&&&&","left","sanctity.vice","","","",NA,NA,NA,NA,0,102,102,146,NA,NA,NA,NA,NA,NA,NA,NA,NA,NA,NA,NA,"",NA,"",NA,"",NA,"",NA,"LDT","right",0.800448880647309,0,"",NA,"right",0,0.800448880647309,NA,NA,"",NA,"",NA,"",NA,"",NA,NA,NA,NA,NA,NA,NA,NA,"",NA,"",NA,1006,"2019_Mar_06_0951","mf_amp_cond2","3.0.4",60.0139738467059,NA,NA,NA,NA,NA,NA,NA,NA,NA,NA,NA,NA,NA,NA,NA,NA,NA
"110","energy","&&&&&&","left","sanctity.virtue","","","",NA,NA,NA,NA,0,103,103,91,NA,NA,NA,NA,NA,NA,NA,NA,NA,NA,NA,NA,"",NA,"",NA,"",NA,"",NA,"LDT","right",1.61731192457955,0,"",NA,"right",0,1.61731192457955,NA,NA,"",NA,"",NA,"",NA,"",NA,NA,NA,NA,NA,NA,NA,NA,"",NA,"",NA,1006,"2019_Mar_06_0951","mf_amp_cond2","3.0.4",60.0139738467059,NA,NA,NA,NA,NA,NA,NA,NA,NA,NA,NA,NA,NA,NA,NA,NA,NA
"111","hescribe","&&&&&&&&","right","nonword","","","",NA,NA,NA,NA,0,104,104,15,NA,NA,NA,NA,NA,NA,NA,NA,NA,NA,NA,NA,"",NA,"",NA,"",NA,"",NA,"LDT","left",2.21745278511662,0,"",NA,"left",0,2.21745278511662,NA,NA,"",NA,"",NA,"",NA,"",NA,NA,NA,NA,NA,NA,NA,NA,"",NA,"",NA,1006,"2019_Mar_06_0951","mf_amp_cond2","3.0.4",60.0139738467059,NA,NA,NA,NA,NA,NA,NA,NA,NA,NA,NA,NA,NA,NA,NA,NA,NA
"112","could","&&&&&","left","neutral","","","",NA,NA,NA,NA,0,105,105,136,NA,NA,NA,NA,NA,NA,NA,NA,NA,NA,NA,NA,"",NA,"",NA,"",NA,"",NA,"LDT","right",3.28442663804162,0,"",NA,"right",0,3.28442663804162,NA,NA,"",NA,"",NA,"",NA,"",NA,NA,NA,NA,NA,NA,NA,NA,"",NA,"",NA,1006,"2019_Mar_06_0951","mf_amp_cond2","3.0.4",60.0139738467059,NA,NA,NA,NA,NA,NA,NA,NA,NA,NA,NA,NA,NA,NA,NA,NA,NA
"113","troubla","&&&&&&&","right","nonword","","","",NA,NA,NA,NA,0,106,106,11,NA,NA,NA,NA,NA,NA,NA,NA,NA,NA,NA,NA,"",NA,"",NA,"",NA,"",NA,"LDT","right",1.48389853944536,1,"",NA,"right",1,1.48389853944536,NA,NA,"",NA,"",NA,"",NA,"",NA,NA,NA,NA,NA,NA,NA,NA,"",NA,"",NA,1006,"2019_Mar_06_0951","mf_amp_cond2","3.0.4",60.0139738467059,NA,NA,NA,NA,NA,NA,NA,NA,NA,NA,NA,NA,NA,NA,NA,NA,NA
"114","epigrach","&&&&&&&&","right","nonword","","","",NA,NA,NA,NA,0,107,107,131,NA,NA,NA,NA,NA,NA,NA,NA,NA,NA,NA,NA,"",NA,"",NA,"",NA,"",NA,"LDT","left",0.733757903333753,0,"",NA,"left",0,0.733757903333753,NA,NA,"",NA,"",NA,"",NA,"",NA,NA,NA,NA,NA,NA,NA,NA,"",NA,"",NA,1006,"2019_Mar_06_0951","mf_amp_cond2","3.0.4",60.0139738467059,NA,NA,NA,NA,NA,NA,NA,NA,NA,NA,NA,NA,NA,NA,NA,NA,NA
"115","good","&&&&","left","care.virtue","","","",NA,NA,NA,NA,0,108,108,0,NA,NA,NA,NA,NA,NA,NA,NA,NA,NA,NA,NA,"",NA,"",NA,"",NA,"",NA,"LDT","right",1.88404279947281,0,"",NA,"right",0,1.88404279947281,NA,NA,"",NA,"",NA,"",NA,"",NA,NA,NA,NA,NA,NA,NA,NA,"",NA,"",NA,1006,"2019_Mar_06_0951","mf_amp_cond2","3.0.4",60.0139738467059,NA,NA,NA,NA,NA,NA,NA,NA,NA,NA,NA,NA,NA,NA,NA,NA,NA
"116","bruthfulness","&&&&&&&&&&&&","right","nonword","","","",NA,NA,NA,NA,0,109,109,189,NA,NA,NA,NA,NA,NA,NA,NA,NA,NA,NA,NA,"",NA,"",NA,"",NA,"",NA,"LDT","right",2.26748168212362,1,"",NA,"right",1,2.26748168212362,NA,NA,"",NA,"",NA,"",NA,"",NA,NA,NA,NA,NA,NA,NA,NA,"",NA,"",NA,1006,"2019_Mar_06_0951","mf_amp_cond2","3.0.4",60.0139738467059,NA,NA,NA,NA,NA,NA,NA,NA,NA,NA,NA,NA,NA,NA,NA,NA,NA
"117","were","&&&&","left","neutral","","","",NA,NA,NA,NA,0,110,110,18,NA,NA,NA,NA,NA,NA,NA,NA,NA,NA,NA,NA,"",NA,"",NA,"",NA,"",NA,"LDT","right",1.00050192780327,0,"",NA,"right",0,1.00050192780327,NA,NA,"",NA,"",NA,"",NA,"",NA,NA,NA,NA,NA,NA,NA,NA,"",NA,"",NA,1006,"2019_Mar_06_0951","mf_amp_cond2","3.0.4",60.0139738467059,NA,NA,NA,NA,NA,NA,NA,NA,NA,NA,NA,NA,NA,NA,NA,NA,NA
"118","ejanulated","&&&&&&&&&&","right","nonword","","","",NA,NA,NA,NA,0,111,111,137,NA,NA,NA,NA,NA,NA,NA,NA,NA,NA,NA,NA,"",NA,"",NA,"",NA,"",NA,"LDT","right",2.38416916353162,1,"",NA,"right",1,2.38416916353162,NA,NA,"",NA,"",NA,"",NA,"",NA,NA,NA,NA,NA,NA,NA,NA,"",NA,"",NA,1006,"2019_Mar_06_0951","mf_amp_cond2","3.0.4",60.0139738467059,NA,NA,NA,NA,NA,NA,NA,NA,NA,NA,NA,NA,NA,NA,NA,NA,NA
"119","prones","&&&&&&","right","nonword","","","",NA,NA,NA,NA,0,112,112,108,NA,NA,NA,NA,NA,NA,NA,NA,NA,NA,NA,NA,"",NA,"",NA,"",NA,"",NA,"LDT","right",1.08382740360685,1,"",NA,"right",1,1.08382740360685,NA,NA,"",NA,"",NA,"",NA,"",NA,NA,NA,NA,NA,NA,NA,NA,"",NA,"",NA,1006,"2019_Mar_06_0951","mf_amp_cond2","3.0.4",60.0139738467059,NA,NA,NA,NA,NA,NA,NA,NA,NA,NA,NA,NA,NA,NA,NA,NA,NA
"120","precificity","&&&&&&&&&&&","right","nonword","","","",NA,NA,NA,NA,0,113,113,12,NA,NA,NA,NA,NA,NA,NA,NA,NA,NA,NA,NA,"",NA,"",NA,"",NA,"",NA,"LDT","right",2.06737988535315,1,"",NA,"right",1,2.06737988535315,NA,NA,"",NA,"",NA,"",NA,"",NA,NA,NA,NA,NA,NA,NA,NA,"",NA,"",NA,1006,"2019_Mar_06_0951","mf_amp_cond2","3.0.4",60.0139738467059,NA,NA,NA,NA,NA,NA,NA,NA,NA,NA,NA,NA,NA,NA,NA,NA,NA
"121","become","&&&&&&","left","neutral","","","",NA,NA,NA,NA,0,114,114,174,NA,NA,NA,NA,NA,NA,NA,NA,NA,NA,NA,NA,"",NA,"",NA,"",NA,"",NA,"LDT","left",1.65062646369915,1,"",NA,"left",1,1.65062646369915,NA,NA,"",NA,"",NA,"",NA,"",NA,NA,NA,NA,NA,NA,NA,NA,"",NA,"",NA,1006,"2019_Mar_06_0951","mf_amp_cond2","3.0.4",60.0139738467059,NA,NA,NA,NA,NA,NA,NA,NA,NA,NA,NA,NA,NA,NA,NA,NA,NA
"122","compassion","&&&&&&&&&&","left","care.virtue","","","",NA,NA,NA,NA,0,115,115,57,NA,NA,NA,NA,NA,NA,NA,NA,NA,NA,NA,NA,"",NA,"",NA,"",NA,"",NA,"LDT","right",1.23387945652939,0,"",NA,"right",0,1.23387945652939,NA,NA,"",NA,"",NA,"",NA,"",NA,NA,NA,NA,NA,NA,NA,NA,"",NA,"",NA,1006,"2019_Mar_06_0951","mf_amp_cond2","3.0.4",60.0139738467059,NA,NA,NA,NA,NA,NA,NA,NA,NA,NA,NA,NA,NA,NA,NA,NA,NA
"123","further","&&&&&&&","left","neutral","","","",NA,NA,NA,NA,0,116,116,77,NA,NA,NA,NA,NA,NA,NA,NA,NA,NA,NA,NA,"",NA,"",NA,"",NA,"",NA,"LDT","right",0.76699739380274,0,"",NA,"right",0,0.76699739380274,NA,NA,"",NA,"",NA,"",NA,"",NA,NA,NA,NA,NA,NA,NA,NA,"",NA,"",NA,1006,"2019_Mar_06_0951","mf_amp_cond2","3.0.4",60.0139738467059,NA,NA,NA,NA,NA,NA,NA,NA,NA,NA,NA,NA,NA,NA,NA,NA,NA
"124","threatened","&&&&&&&&&&","left","fairness.vice","","","",NA,NA,NA,NA,0,117,117,26,NA,NA,NA,NA,NA,NA,NA,NA,NA,NA,NA,NA,"",NA,"",NA,"",NA,"",NA,"LDT","right",1.15053505823016,0,"",NA,"right",0,1.15053505823016,NA,NA,"",NA,"",NA,"",NA,"",NA,NA,NA,NA,NA,NA,NA,NA,"",NA,"",NA,1006,"2019_Mar_06_0951","mf_amp_cond2","3.0.4",60.0139738467059,NA,NA,NA,NA,NA,NA,NA,NA,NA,NA,NA,NA,NA,NA,NA,NA,NA
"125","Lacedonia","&&&&&&&&&","right","nonword","","","",NA,NA,NA,NA,0,118,118,28,NA,NA,NA,NA,NA,NA,NA,NA,NA,NA,NA,NA,"",NA,"",NA,"",NA,"",NA,"LDT","left",0.800437334692106,0,"",NA,"left",0,0.800437334692106,NA,NA,"",NA,"",NA,"",NA,"",NA,NA,NA,NA,NA,NA,NA,NA,"",NA,"",NA,1006,"2019_Mar_06_0951","mf_amp_cond2","3.0.4",60.0139738467059,NA,NA,NA,NA,NA,NA,NA,NA,NA,NA,NA,NA,NA,NA,NA,NA,NA
"126","voter","&&&&&","left","fairness.vice","","","",NA,NA,NA,NA,0,119,119,92,NA,NA,NA,NA,NA,NA,NA,NA,NA,NA,NA,NA,"",NA,"",NA,"",NA,"",NA,"LDT","right",0.650400355574675,0,"",NA,"right",0,0.650400355574675,NA,NA,"",NA,"",NA,"",NA,"",NA,NA,NA,NA,NA,NA,NA,NA,"",NA,"",NA,1006,"2019_Mar_06_0951","mf_amp_cond2","3.0.4",60.0139738467059,NA,NA,NA,NA,NA,NA,NA,NA,NA,NA,NA,NA,NA,NA,NA,NA,NA
"127","protect","&&&&&&&","left","fairness.virtue","","","",NA,NA,NA,NA,0,120,120,50,NA,NA,NA,NA,NA,NA,NA,NA,NA,NA,NA,NA,"",NA,"",NA,"",NA,"",NA,"LDT","right",1.85069907479919,0,"",NA,"right",0,1.85069907479919,NA,NA,"",NA,"",NA,"",NA,"",NA,NA,NA,NA,NA,NA,NA,NA,"",NA,"",NA,1006,"2019_Mar_06_0951","mf_amp_cond2","3.0.4",60.0139738467059,NA,NA,NA,NA,NA,NA,NA,NA,NA,NA,NA,NA,NA,NA,NA,NA,NA
"128","rivernoat","&&&&&&&&&","right","nonword","","","",NA,NA,NA,NA,0,121,121,161,NA,NA,NA,NA,NA,NA,NA,NA,NA,NA,NA,NA,"",NA,"",NA,"",NA,"",NA,"LDT","left",2.60089487477671,0,"",NA,"left",0,2.60089487477671,NA,NA,"",NA,"",NA,"",NA,"",NA,NA,NA,NA,NA,NA,NA,NA,"",NA,"",NA,1006,"2019_Mar_06_0951","mf_amp_cond2","3.0.4",60.0139738467059,NA,NA,NA,NA,NA,NA,NA,NA,NA,NA,NA,NA,NA,NA,NA,NA,NA
"129","dignity","&&&&&&&","left","sanctity.virtue","","","",NA,NA,NA,NA,0,122,122,129,NA,NA,NA,NA,NA,NA,NA,NA,NA,NA,NA,NA,"",NA,"",NA,"",NA,"",NA,"LDT","right",1.61737703089602,0,"",NA,"right",0,1.61737703089602,NA,NA,"",NA,"",NA,"",NA,"",NA,NA,NA,NA,NA,NA,NA,NA,"",NA,"",NA,1006,"2019_Mar_06_0951","mf_amp_cond2","3.0.4",60.0139738467059,NA,NA,NA,NA,NA,NA,NA,NA,NA,NA,NA,NA,NA,NA,NA,NA,NA
"130","noped","&&&&&","right","nonword","","","",NA,NA,NA,NA,0,123,123,188,NA,NA,NA,NA,NA,NA,NA,NA,NA,NA,NA,NA,"",NA,"",NA,"",NA,"",NA,"LDT","right",2.21729466982652,1,"",NA,"right",1,2.21729466982652,NA,NA,"",NA,"",NA,"",NA,"",NA,NA,NA,NA,NA,NA,NA,NA,"",NA,"",NA,1006,"2019_Mar_06_0951","mf_amp_cond2","3.0.4",60.0139738467059,NA,NA,NA,NA,NA,NA,NA,NA,NA,NA,NA,NA,NA,NA,NA,NA,NA
"131","tove","&&&&","right","nonword","","","",NA,NA,NA,NA,0,124,124,30,NA,NA,NA,NA,NA,NA,NA,NA,NA,NA,NA,NA,"",NA,"",NA,"",NA,"",NA,"LDT","right",0.733762072748505,1,"",NA,"right",1,0.733762072748505,NA,NA,"",NA,"",NA,"",NA,"",NA,NA,NA,NA,NA,NA,NA,NA,"",NA,"",NA,1006,"2019_Mar_06_0951","mf_amp_cond2","3.0.4",60.0139738467059,NA,NA,NA,NA,NA,NA,NA,NA,NA,NA,NA,NA,NA,NA,NA,NA,NA
"132","fontacts","&&&&&&&&","right","nonword","","","",NA,NA,NA,NA,0,125,125,1,NA,NA,NA,NA,NA,NA,NA,NA,NA,NA,NA,NA,"",NA,"",NA,"",NA,"",NA,"LDT","right",1.3005576049909,1,"",NA,"right",1,1.3005576049909,NA,NA,"",NA,"",NA,"",NA,"",NA,NA,NA,NA,NA,NA,NA,NA,"",NA,"",NA,1006,"2019_Mar_06_0951","mf_amp_cond2","3.0.4",60.0139738467059,NA,NA,NA,NA,NA,NA,NA,NA,NA,NA,NA,NA,NA,NA,NA,NA,NA
"133","hate","&&&&","left","fairness.vice","","","",NA,NA,NA,NA,0,126,126,48,NA,NA,NA,NA,NA,NA,NA,NA,NA,NA,NA,NA,"",NA,"",NA,"",NA,"",NA,"LDT","right",0.883813163498417,0,"",NA,"right",0,0.883813163498417,NA,NA,"",NA,"",NA,"",NA,"",NA,NA,NA,NA,NA,NA,NA,NA,"",NA,"",NA,1006,"2019_Mar_06_0951","mf_amp_cond2","3.0.4",60.0139738467059,NA,NA,NA,NA,NA,NA,NA,NA,NA,NA,NA,NA,NA,NA,NA,NA,NA
"134","erdest","&&&&&&","right","nonword","","","",NA,NA,NA,NA,0,127,127,130,NA,NA,NA,NA,NA,NA,NA,NA,NA,NA,NA,NA,"",NA,"",NA,"",NA,"",NA,"LDT","left",1.25056976033375,0,"",NA,"left",0,1.25056976033375,NA,NA,"",NA,"",NA,"",NA,"",NA,NA,NA,NA,NA,NA,NA,NA,"",NA,"",NA,1006,"2019_Mar_06_0951","mf_amp_cond2","3.0.4",60.0139738467059,NA,NA,NA,NA,NA,NA,NA,NA,NA,NA,NA,NA,NA,NA,NA,NA,NA
"135","rejected","&&&&&&&&","left","authority.vice","","","",NA,NA,NA,NA,0,128,128,84,NA,NA,NA,NA,NA,NA,NA,NA,NA,NA,NA,NA,"",NA,"",NA,"",NA,"",NA,"LDT","right",0.650414788047783,0,"",NA,"right",0,0.650414788047783,NA,NA,"",NA,"",NA,"",NA,"",NA,NA,NA,NA,NA,NA,NA,NA,"",NA,"",NA,1006,"2019_Mar_06_0951","mf_amp_cond2","3.0.4",60.0139738467059,NA,NA,NA,NA,NA,NA,NA,NA,NA,NA,NA,NA,NA,NA,NA,NA,NA
"136","pullness","&&&&&&&&","right","nonword","","","",NA,NA,NA,NA,0,129,129,153,NA,NA,NA,NA,NA,NA,NA,NA,NA,NA,NA,NA,"",NA,"",NA,"",NA,"",NA,"LDT","right",1.48394760966767,1,"",NA,"right",1,1.48394760966767,NA,NA,"",NA,"",NA,"",NA,"",NA,NA,NA,NA,NA,NA,NA,NA,"",NA,"",NA,1006,"2019_Mar_06_0951","mf_amp_cond2","3.0.4",60.0139738467059,NA,NA,NA,NA,NA,NA,NA,NA,NA,NA,NA,NA,NA,NA,NA,NA,NA
"137","mostly","&&&&&&","left","neutral","","","",NA,NA,NA,NA,0,130,130,159,NA,NA,NA,NA,NA,NA,NA,NA,NA,NA,NA,NA,"",NA,"",NA,"",NA,"",NA,"LDT","right",1.08385017467663,0,"",NA,"right",0,1.08385017467663,NA,NA,"",NA,"",NA,"",NA,"",NA,NA,NA,NA,NA,NA,NA,NA,"",NA,"",NA,1006,"2019_Mar_06_0951","mf_amp_cond2","3.0.4",60.0139738467059,NA,NA,NA,NA,NA,NA,NA,NA,NA,NA,NA,NA,NA,NA,NA,NA,NA
"138","growth","&&&&&&","left","care.virtue","","","",NA,NA,NA,NA,0,131,131,38,NA,NA,NA,NA,NA,NA,NA,NA,NA,NA,NA,NA,"",NA,"",NA,"",NA,"",NA,"LDT","right",1.26723151991609,0,"",NA,"right",0,1.26723151991609,NA,NA,"",NA,"",NA,"",NA,"",NA,NA,NA,NA,NA,NA,NA,NA,"",NA,"",NA,1006,"2019_Mar_06_0951","mf_amp_cond2","3.0.4",60.0139738467059,NA,NA,NA,NA,NA,NA,NA,NA,NA,NA,NA,NA,NA,NA,NA,NA,NA
"139","bycled","&&&&&&","None","nonword","","","",NA,NA,NA,NA,0,132,132,2,NA,NA,NA,NA,NA,NA,NA,NA,NA,NA,NA,NA,"",NA,"",NA,"",NA,"",NA,"LDT","left",1.56726250145584,0,"",NA,"left",0,1.56726250145584,NA,NA,"",NA,"",NA,"",NA,"",NA,NA,NA,NA,NA,NA,NA,NA,"",NA,"",NA,1006,"2019_Mar_06_0951","mf_amp_cond2","3.0.4",60.0139738467059,NA,NA,NA,NA,NA,NA,NA,NA,NA,NA,NA,NA,NA,NA,NA,NA,NA
"140","trust","&&&&&","left","authority.virtue","","","",NA,NA,NA,NA,0,133,133,69,NA,NA,NA,NA,NA,NA,NA,NA,NA,NA,NA,NA,"",NA,"",NA,"",NA,"",NA,"LDT","right",0.550374954589643,0,"",NA,"right",0,0.550374954589643,NA,NA,"",NA,"",NA,"",NA,"",NA,NA,NA,NA,NA,NA,NA,NA,"",NA,"",NA,1006,"2019_Mar_06_0951","mf_amp_cond2","3.0.4",60.0139738467059,NA,NA,NA,NA,NA,NA,NA,NA,NA,NA,NA,NA,NA,NA,NA,NA,NA
"141","done","&&&&","left","neutral","","","",NA,NA,NA,NA,0,134,134,176,NA,NA,NA,NA,NA,NA,NA,NA,NA,NA,NA,NA,"",NA,"",NA,"",NA,"",NA,"LDT","right",0.800453370669857,0,"",NA,"right",0,0.800453370669857,NA,NA,"",NA,"",NA,"",NA,"",NA,NA,NA,NA,NA,NA,NA,NA,"",NA,"",NA,1006,"2019_Mar_06_0951","mf_amp_cond2","3.0.4",60.0139738467059,NA,NA,NA,NA,NA,NA,NA,NA,NA,NA,NA,NA,NA,NA,NA,NA,NA
"142","loyalty","&&&&&&&","left","loyalty.virtue","","","",NA,NA,NA,NA,0,135,135,42,NA,NA,NA,NA,NA,NA,NA,NA,NA,NA,NA,NA,"",NA,"",NA,"",NA,"",NA,"LDT","right",0.650284575414844,0,"",NA,"right",0,0.650284575414844,NA,NA,"",NA,"",NA,"",NA,"",NA,NA,NA,NA,NA,NA,NA,NA,"",NA,"",NA,1006,"2019_Mar_06_0951","mf_amp_cond2","3.0.4",60.0139738467059,NA,NA,NA,NA,NA,NA,NA,NA,NA,NA,NA,NA,NA,NA,NA,NA,NA
"143","either","&&&&&&","left","neutral","","","",NA,NA,NA,NA,0,136,136,196,NA,NA,NA,NA,NA,NA,NA,NA,NA,NA,NA,NA,"",NA,"",NA,"",NA,"",NA,"LDT","right",0.517032833420672,0,"",NA,"right",0,0.517032833420672,NA,NA,"",NA,"",NA,"",NA,"",NA,NA,NA,NA,NA,NA,NA,NA,"",NA,"",NA,1006,"2019_Mar_06_0951","mf_amp_cond2","3.0.4",60.0139738467059,NA,NA,NA,NA,NA,NA,NA,NA,NA,NA,NA,NA,NA,NA,NA,NA,NA
"144","lachelor","&&&&&&&&","right","nonword","","","",NA,NA,NA,NA,0,137,137,98,NA,NA,NA,NA,NA,NA,NA,NA,NA,NA,NA,NA,"",NA,"",NA,"",NA,"",NA,"LDT","right",0.817130525014363,1,"",NA,"right",1,0.817130525014363,NA,NA,"",NA,"",NA,"",NA,"",NA,NA,NA,NA,NA,NA,NA,NA,"",NA,"",NA,1006,"2019_Mar_06_0951","mf_amp_cond2","3.0.4",60.0139738467059,NA,NA,NA,NA,NA,NA,NA,NA,NA,NA,NA,NA,NA,NA,NA,NA,NA
"145","front","&&&&&","left","neutral","","","",NA,NA,NA,NA,0,138,138,162,NA,NA,NA,NA,NA,NA,NA,NA,NA,NA,NA,NA,"",NA,"",NA,"",NA,"",NA,"LDT","right",0.517045982996933,0,"",NA,"right",0,0.517045982996933,NA,NA,"",NA,"",NA,"",NA,"",NA,NA,NA,NA,NA,NA,NA,NA,"",NA,"",NA,1006,"2019_Mar_06_0951","mf_amp_cond2","3.0.4",60.0139738467059,NA,NA,NA,NA,NA,NA,NA,NA,NA,NA,NA,NA,NA,NA,NA,NA,NA
"146","allears","&&&&&&&","right","nonword","","","",NA,NA,NA,NA,0,139,139,93,NA,NA,NA,NA,NA,NA,NA,NA,NA,NA,NA,NA,"",NA,"",NA,"",NA,"",NA,"LDT","left",1.03383378591388,0,"",NA,"left",0,1.03383378591388,NA,NA,"",NA,"",NA,"",NA,"",NA,NA,NA,NA,NA,NA,NA,NA,"",NA,"",NA,1006,"2019_Mar_06_0951","mf_amp_cond2","3.0.4",60.0139738467059,NA,NA,NA,NA,NA,NA,NA,NA,NA,NA,NA,NA,NA,NA,NA,NA,NA
"147","hatigue","&&&&&&&","right","nonword","","","",NA,NA,NA,NA,0,140,140,134,NA,NA,NA,NA,NA,NA,NA,NA,NA,NA,NA,NA,"",NA,"",NA,"",NA,"",NA,"LDT","left",1.88404504465871,0,"",NA,"left",0,1.88404504465871,NA,NA,"",NA,"",NA,"",NA,"",NA,NA,NA,NA,NA,NA,NA,NA,"",NA,"",NA,1006,"2019_Mar_06_0951","mf_amp_cond2","3.0.4",60.0139738467059,NA,NA,NA,NA,NA,NA,NA,NA,NA,NA,NA,NA,NA,NA,NA,NA,NA
"148","sickyay","&&&&&&&","right","nonword","","","",NA,NA,NA,NA,0,141,141,123,NA,NA,NA,NA,NA,NA,NA,NA,NA,NA,NA,NA,"",NA,"",NA,"",NA,"",NA,"LDT","right",0.550386500544846,1,"",NA,"right",1,0.550386500544846,NA,NA,"",NA,"",NA,"",NA,"",NA,NA,NA,NA,NA,NA,NA,NA,"",NA,"",NA,1006,"2019_Mar_06_0951","mf_amp_cond2","3.0.4",60.0139738467059,NA,NA,NA,NA,NA,NA,NA,NA,NA,NA,NA,NA,NA,NA,NA,NA,NA
"149","hasks","&&&&&","right","nonword","","","",NA,NA,NA,NA,0,142,142,168,NA,NA,NA,NA,NA,NA,NA,NA,NA,NA,NA,NA,"",NA,"",NA,"",NA,"",NA,"LDT","right",0.850452440674417,1,"",NA,"right",1,0.850452440674417,NA,NA,"",NA,"",NA,"",NA,"",NA,NA,NA,NA,NA,NA,NA,NA,"",NA,"",NA,1006,"2019_Mar_06_0951","mf_amp_cond2","3.0.4",60.0139738467059,NA,NA,NA,NA,NA,NA,NA,NA,NA,NA,NA,NA,NA,NA,NA,NA,NA
"150","groups","&&&&&&","left","loyalty.vice","","","",NA,NA,NA,NA,0,143,143,81,NA,NA,NA,NA,NA,NA,NA,NA,NA,NA,NA,NA,"",NA,"",NA,"",NA,"",NA,"LDT","right",0.683750815456733,0,"",NA,"right",0,0.683750815456733,NA,NA,"",NA,"",NA,"",NA,"",NA,NA,NA,NA,NA,NA,NA,NA,"",NA,"",NA,1006,"2019_Mar_06_0951","mf_amp_cond2","3.0.4",60.0139738467059,NA,NA,NA,NA,NA,NA,NA,NA,NA,NA,NA,NA,NA,NA,NA,NA,NA
"151","antral","&&&&&&","right","nonword","","","",NA,NA,NA,NA,0,144,144,198,NA,NA,NA,NA,NA,NA,NA,NA,NA,NA,NA,NA,"",NA,"",NA,"",NA,"",NA,"LDT","left",0.983826056472026,0,"",NA,"left",0,0.983826056472026,NA,NA,"",NA,"",NA,"",NA,"",NA,NA,NA,NA,NA,NA,NA,NA,"",NA,"",NA,1006,"2019_Mar_06_0951","mf_amp_cond2","3.0.4",60.0139738467059,NA,NA,NA,NA,NA,NA,NA,NA,NA,NA,NA,NA,NA,NA,NA,NA,NA
"152","amount","&&&&&&","left","neutral","","","",NA,NA,NA,NA,0,145,145,167,NA,NA,NA,NA,NA,NA,NA,NA,NA,NA,NA,NA,"",NA,"",NA,"",NA,"",NA,"LDT","right",0.383671405026689,0,"",NA,"right",0,0.383671405026689,NA,NA,"",NA,"",NA,"",NA,"",NA,NA,NA,NA,NA,NA,NA,NA,"",NA,"",NA,1006,"2019_Mar_06_0951","mf_amp_cond2","3.0.4",60.0139738467059,NA,NA,NA,NA,NA,NA,NA,NA,NA,NA,NA,NA,NA,NA,NA,NA,NA
"153","brudent","&&&&&&&","right","nonword","","","",NA,NA,NA,NA,0,146,146,99,NA,NA,NA,NA,NA,NA,NA,NA,NA,NA,NA,NA,"",NA,"",NA,"",NA,"",NA,"LDT","right",0.900461453013122,1,"",NA,"right",1,0.900461453013122,NA,NA,"",NA,"",NA,"",NA,"",NA,NA,NA,NA,NA,NA,NA,NA,"",NA,"",NA,1006,"2019_Mar_06_0951","mf_amp_cond2","3.0.4",60.0139738467059,NA,NA,NA,NA,NA,NA,NA,NA,NA,NA,NA,NA,NA,NA,NA,NA,NA
"154","violations","&&&&&&&&&&","left","sanctity.vice","","","",NA,NA,NA,NA,0,147,147,104,NA,NA,NA,NA,NA,NA,NA,NA,NA,NA,NA,NA,"",NA,"",NA,"",NA,"",NA,"LDT","right",0.750429284642451,0,"",NA,"right",0,0.750429284642451,NA,NA,"",NA,"",NA,"",NA,"",NA,NA,NA,NA,NA,NA,NA,NA,"",NA,"",NA,1006,"2019_Mar_06_0951","mf_amp_cond2","3.0.4",60.0139738467059,NA,NA,NA,NA,NA,NA,NA,NA,NA,NA,NA,NA,NA,NA,NA,NA,NA
"155","eight","&&&&&","left","neutral","","","",NA,NA,NA,NA,0,148,148,127,NA,NA,NA,NA,NA,NA,NA,NA,NA,NA,NA,NA,"",NA,"",NA,"",NA,"",NA,"LDT","right",0.867116445326246,0,"",NA,"right",0,0.867116445326246,NA,NA,"",NA,"",NA,"",NA,"",NA,NA,NA,NA,NA,NA,NA,NA,"",NA,"",NA,1006,"2019_Mar_06_0951","mf_amp_cond2","3.0.4",60.0139738467059,NA,NA,NA,NA,NA,NA,NA,NA,NA,NA,NA,NA,NA,NA,NA,NA,NA
"156","seem","&&&&","left","neutral","","","",NA,NA,NA,NA,0,149,149,80,NA,NA,NA,NA,NA,NA,NA,NA,NA,NA,NA,NA,"",NA,"",NA,"",NA,"",NA,"LDT","right",1.05051222303882,0,"",NA,"right",0,1.05051222303882,NA,NA,"",NA,"",NA,"",NA,"",NA,NA,NA,NA,NA,NA,NA,NA,"",NA,"",NA,1006,"2019_Mar_06_0951","mf_amp_cond2","3.0.4",60.0139738467059,NA,NA,NA,NA,NA,NA,NA,NA,NA,NA,NA,NA,NA,NA,NA,NA,NA
"157","toward","&&&&&&","left","neutral","","","",NA,NA,NA,NA,0,150,150,97,NA,NA,NA,NA,NA,NA,NA,NA,NA,NA,NA,NA,"",NA,"",NA,"",NA,"",NA,"LDT","right",0.483705786173232,0,"",NA,"right",0,0.483705786173232,NA,NA,"",NA,"",NA,"",NA,"",NA,NA,NA,NA,NA,NA,NA,NA,"",NA,"",NA,1006,"2019_Mar_06_0951","mf_amp_cond2","3.0.4",60.0139738467059,NA,NA,NA,NA,NA,NA,NA,NA,NA,NA,NA,NA,NA,NA,NA,NA,NA
"158","dramens","&&&&&&&","right","nonword","","","",NA,NA,NA,NA,0,151,151,88,NA,NA,NA,NA,NA,NA,NA,NA,NA,NA,NA,NA,"",NA,"",NA,"",NA,"",NA,"LDT","right",0.833785549388267,1,"",NA,"right",1,0.833785549388267,NA,NA,"",NA,"",NA,"",NA,"",NA,NA,NA,NA,NA,NA,NA,NA,"",NA,"",NA,1006,"2019_Mar_06_0951","mf_amp_cond2","3.0.4",60.0139738467059,NA,NA,NA,NA,NA,NA,NA,NA,NA,NA,NA,NA,NA,NA,NA,NA,NA
"159","stindig","&&&&&&&","right","nonword","","","",NA,NA,NA,NA,0,152,152,68,NA,NA,NA,NA,NA,NA,NA,NA,NA,NA,NA,NA,"",NA,"",NA,"",NA,"",NA,"LDT","right",1.11718844703864,1,"",NA,"right",1,1.11718844703864,NA,NA,"",NA,"",NA,"",NA,"",NA,NA,NA,NA,NA,NA,NA,NA,"",NA,"",NA,1006,"2019_Mar_06_0951","mf_amp_cond2","3.0.4",60.0139738467059,NA,NA,NA,NA,NA,NA,NA,NA,NA,NA,NA,NA,NA,NA,NA,NA,NA
"160","also","&&&&","left","neutral","","","",NA,NA,NA,NA,0,153,153,155,NA,NA,NA,NA,NA,NA,NA,NA,NA,NA,NA,NA,"",NA,"",NA,"",NA,"",NA,"LDT","right",0.633734747418202,0,"",NA,"right",0,0.633734747418202,NA,NA,"",NA,"",NA,"",NA,"",NA,NA,NA,NA,NA,NA,NA,NA,"",NA,"",NA,1006,"2019_Mar_06_0951","mf_amp_cond2","3.0.4",60.0139738467059,NA,NA,NA,NA,NA,NA,NA,NA,NA,NA,NA,NA,NA,NA,NA,NA,NA
"161","free","&&&&","left","fairness.virtue","","","",NA,NA,NA,NA,0,154,154,185,NA,NA,NA,NA,NA,NA,NA,NA,NA,NA,NA,NA,"",NA,"",NA,"",NA,"",NA,"LDT","right",0.700416744453833,0,"",NA,"right",0,0.700416744453833,NA,NA,"",NA,"",NA,"",NA,"",NA,NA,NA,NA,NA,NA,NA,NA,"",NA,"",NA,1006,"2019_Mar_06_0951","mf_amp_cond2","3.0.4",60.0139738467059,NA,NA,NA,NA,NA,NA,NA,NA,NA,NA,NA,NA,NA,NA,NA,NA,NA
"162","even","&&&&","left","neutral","","","",NA,NA,NA,NA,0,155,155,132,NA,NA,NA,NA,NA,NA,NA,NA,NA,NA,NA,NA,"",NA,"",NA,"",NA,"",NA,"LDT","right",0.617058234522119,0,"",NA,"right",0,0.617058234522119,NA,NA,"",NA,"",NA,"",NA,"",NA,NA,NA,NA,NA,NA,NA,NA,"",NA,"",NA,1006,"2019_Mar_06_0951","mf_amp_cond2","3.0.4",60.0139738467059,NA,NA,NA,NA,NA,NA,NA,NA,NA,NA,NA,NA,NA,NA,NA,NA,NA
"163","shoirmaster","&&&&&&&&&&&","right","nonword","","","",NA,NA,NA,NA,0,156,156,21,NA,NA,NA,NA,NA,NA,NA,NA,NA,NA,NA,NA,"",NA,"",NA,"",NA,"",NA,"LDT","left",0.867109068785794,0,"",NA,"left",0,0.867109068785794,NA,NA,"",NA,"",NA,"",NA,"",NA,NA,NA,NA,NA,NA,NA,NA,"",NA,"",NA,1006,"2019_Mar_06_0951","mf_amp_cond2","3.0.4",60.0139738467059,NA,NA,NA,NA,NA,NA,NA,NA,NA,NA,NA,NA,NA,NA,NA,NA,NA
"164","else","&&&&","left","neutral","","","",NA,NA,NA,NA,0,157,157,94,NA,NA,NA,NA,NA,NA,NA,NA,NA,NA,NA,NA,"",NA,"",NA,"",NA,"",NA,"LDT","right",1.00048909895122,0,"",NA,"right",0,1.00048909895122,NA,NA,"",NA,"",NA,"",NA,"",NA,NA,NA,NA,NA,NA,NA,NA,"",NA,"",NA,1006,"2019_Mar_06_0951","mf_amp_cond2","3.0.4",60.0139738467059,NA,NA,NA,NA,NA,NA,NA,NA,NA,NA,NA,NA,NA,NA,NA,NA,NA
"165","gournful","&&&&&&&&","right","nonword","","","",NA,NA,NA,NA,0,158,158,119,NA,NA,NA,NA,NA,NA,NA,NA,NA,NA,NA,NA,"",NA,"",NA,"",NA,"",NA,"LDT","right",0.900472678127699,1,"",NA,"right",1,0.900472678127699,NA,NA,"",NA,"",NA,"",NA,"",NA,NA,NA,NA,NA,NA,NA,NA,"",NA,"",NA,1006,"2019_Mar_06_0951","mf_amp_cond2","3.0.4",60.0139738467059,NA,NA,NA,NA,NA,NA,NA,NA,NA,NA,NA,NA,NA,NA,NA,NA,NA
"166","unscothed","&&&&&&&&&","right","nonword","","","",NA,NA,NA,NA,0,159,159,170,NA,NA,NA,NA,NA,NA,NA,NA,NA,NA,NA,NA,"",NA,"",NA,"",NA,"",NA,"LDT","right",5.51830352877732,1,"",NA,"right",1,5.51830352877732,NA,NA,"",NA,"",NA,"",NA,"",NA,NA,NA,NA,NA,NA,NA,NA,"",NA,"",NA,1006,"2019_Mar_06_0951","mf_amp_cond2","3.0.4",60.0139738467059,NA,NA,NA,NA,NA,NA,NA,NA,NA,NA,NA,NA,NA,NA,NA,NA,NA
"167","promises","&&&&&&&&","left","fairness.virtue","","","",NA,NA,NA,NA,0,160,160,24,NA,NA,NA,NA,NA,NA,NA,NA,NA,NA,NA,NA,"",NA,"",NA,"",NA,"",NA,"LDT","right",0.867127670557238,0,"",NA,"right",0,0.867127670557238,NA,NA,"",NA,"",NA,"",NA,"",NA,NA,NA,NA,NA,NA,NA,NA,"",NA,"",NA,1006,"2019_Mar_06_0951","mf_amp_cond2","3.0.4",60.0139738467059,NA,NA,NA,NA,NA,NA,NA,NA,NA,NA,NA,NA,NA,NA,NA,NA,NA
"168","nomparisons","&&&&&&&&&&&","right","nonword","","","",NA,NA,NA,NA,0,161,161,5,NA,NA,NA,NA,NA,NA,NA,NA,NA,NA,NA,NA,"",NA,"",NA,"",NA,"",NA,"LDT","left",1.40059391059913,0,"",NA,"left",0,1.40059391059913,NA,NA,"",NA,"",NA,"",NA,"",NA,NA,NA,NA,NA,NA,NA,NA,"",NA,"",NA,1006,"2019_Mar_06_0951","mf_amp_cond2","3.0.4",60.0139738467059,NA,NA,NA,NA,NA,NA,NA,NA,NA,NA,NA,NA,NA,NA,NA,NA,NA
"169","laming","&&&&&&","right","nonword","","","",NA,NA,NA,NA,0,162,162,112,NA,NA,NA,NA,NA,NA,NA,NA,NA,NA,NA,NA,"",NA,"",NA,"",NA,"",NA,"LDT","right",1.00048974039964,1,"",NA,"right",1,1.00048974039964,NA,NA,"",NA,"",NA,"",NA,"",NA,NA,NA,NA,NA,NA,NA,NA,"",NA,"",NA,1006,"2019_Mar_06_0951","mf_amp_cond2","3.0.4",60.0139738467059,NA,NA,NA,NA,NA,NA,NA,NA,NA,NA,NA,NA,NA,NA,NA,NA,NA
"170","there","&&&&&","left","neutral","","","",NA,NA,NA,NA,0,163,163,33,NA,NA,NA,NA,NA,NA,NA,NA,NA,NA,NA,NA,"",NA,"",NA,"",NA,"",NA,"LDT","right",2.70092155877501,0,"",NA,"right",0,2.70092155877501,NA,NA,"",NA,"",NA,"",NA,"",NA,NA,NA,NA,NA,NA,NA,NA,"",NA,"",NA,1006,"2019_Mar_06_0951","mf_amp_cond2","3.0.4",60.0139738467059,NA,NA,NA,NA,NA,NA,NA,NA,NA,NA,NA,NA,NA,NA,NA,NA,NA
"171","itself","&&&&&&","left","neutral","","","",NA,NA,NA,NA,0,164,164,190,NA,NA,NA,NA,NA,NA,NA,NA,NA,NA,NA,NA,"",NA,"",NA,"",NA,"",NA,"LDT","right",0.667077830526978,0,"",NA,"right",0,0.667077830526978,NA,NA,"",NA,"",NA,"",NA,"",NA,NA,NA,NA,NA,NA,NA,NA,"",NA,"",NA,1006,"2019_Mar_06_0951","mf_amp_cond2","3.0.4",60.0139738467059,NA,NA,NA,NA,NA,NA,NA,NA,NA,NA,NA,NA,NA,NA,NA,NA,NA
"172","totalestic","&&&&&&&&&&","None","nonword","","","",NA,NA,NA,NA,0,165,165,54,NA,NA,NA,NA,NA,NA,NA,NA,NA,NA,NA,NA,"",NA,"",NA,"",NA,"",NA,"LDT","right",0.750437944079749,0,"",NA,"right",0,0.750437944079749,NA,NA,"",NA,"",NA,"",NA,"",NA,NA,NA,NA,NA,NA,NA,NA,"",NA,"",NA,1006,"2019_Mar_06_0951","mf_amp_cond2","3.0.4",60.0139738467059,NA,NA,NA,NA,NA,NA,NA,NA,NA,NA,NA,NA,NA,NA,NA,NA,NA
"173","harassment","&&&&&&&&&&","left","sanctity.vice","","","",NA,NA,NA,NA,0,166,166,101,NA,NA,NA,NA,NA,NA,NA,NA,NA,NA,NA,NA,"",NA,"",NA,"",NA,"",NA,"LDT","left",1.46727911487687,1,"",NA,"left",1,1.46727911487687,NA,NA,"",NA,"",NA,"",NA,"",NA,NA,NA,NA,NA,NA,NA,NA,"",NA,"",NA,1006,"2019_Mar_06_0951","mf_amp_cond2","3.0.4",60.0139738467059,NA,NA,NA,NA,NA,NA,NA,NA,NA,NA,NA,NA,NA,NA,NA,NA,NA
"174","been","&&&&","left","neutral","","","",NA,NA,NA,NA,0,167,167,182,NA,NA,NA,NA,NA,NA,NA,NA,NA,NA,NA,NA,"",NA,"",NA,"",NA,"",NA,"LDT","right",0.617071063374169,0,"",NA,"right",0,0.617071063374169,NA,NA,"",NA,"",NA,"",NA,"",NA,NA,NA,NA,NA,NA,NA,NA,"",NA,"",NA,1006,"2019_Mar_06_0951","mf_amp_cond2","3.0.4",60.0139738467059,NA,NA,NA,NA,NA,NA,NA,NA,NA,NA,NA,NA,NA,NA,NA,NA,NA
"175","gondensed","&&&&&&&&&","right","nonword","","","",NA,NA,NA,NA,0,168,168,187,NA,NA,NA,NA,NA,NA,NA,NA,NA,NA,NA,NA,"",NA,"",NA,"",NA,"",NA,"LDT","left",1.03388157323934,0,"",NA,"left",0,1.03388157323934,NA,NA,"",NA,"",NA,"",NA,"",NA,NA,NA,NA,NA,NA,NA,NA,"",NA,"",NA,1006,"2019_Mar_06_0951","mf_amp_cond2","3.0.4",60.0139738467059,NA,NA,NA,NA,NA,NA,NA,NA,NA,NA,NA,NA,NA,NA,NA,NA,NA
"176","tracious","&&&&&&&&","right","nonword","","","",NA,NA,NA,NA,0,169,169,143,NA,NA,NA,NA,NA,NA,NA,NA,NA,NA,NA,NA,"",NA,"",NA,"",NA,"",NA,"LDT","right",0.433682020870037,1,"",NA,"right",1,0.433682020870037,NA,NA,"",NA,"",NA,"",NA,"",NA,NA,NA,NA,NA,NA,NA,NA,"",NA,"",NA,1006,"2019_Mar_06_0951","mf_amp_cond2","3.0.4",60.0139738467059,NA,NA,NA,NA,NA,NA,NA,NA,NA,NA,NA,NA,NA,NA,NA,NA,NA
"177","hefurbished","&&&&&&&&&&&","right","nonword","","","",NA,NA,NA,NA,0,170,170,7,NA,NA,NA,NA,NA,NA,NA,NA,NA,NA,NA,NA,"",NA,"",NA,"",NA,"",NA,"LDT","right",1.13383096351754,1,"",NA,"right",1,1.13383096351754,NA,NA,"",NA,"",NA,"",NA,"",NA,NA,NA,NA,NA,NA,NA,NA,"",NA,"",NA,1006,"2019_Mar_06_0951","mf_amp_cond2","3.0.4",60.0139738467059,NA,NA,NA,NA,NA,NA,NA,NA,NA,NA,NA,NA,NA,NA,NA,NA,NA
"178","promised","&&&&&&&&","left","loyalty.virtue","","","",NA,NA,NA,NA,0,171,171,118,NA,NA,NA,NA,NA,NA,NA,NA,NA,NA,NA,NA,"",NA,"",NA,"",NA,"",NA,"LDT","right",0.517047586617991,0,"",NA,"right",0,0.517047586617991,NA,NA,"",NA,"",NA,"",NA,"",NA,NA,NA,NA,NA,NA,NA,NA,"",NA,"",NA,1006,"2019_Mar_06_0951","mf_amp_cond2","3.0.4",60.0139738467059,NA,NA,NA,NA,NA,NA,NA,NA,NA,NA,NA,NA,NA,NA,NA,NA,NA
"179","spag","&&&&","None","nonword","","","",NA,NA,NA,NA,0,172,172,100,NA,NA,NA,NA,NA,NA,NA,NA,NA,NA,NA,NA,"",NA,"",NA,"",NA,"",NA,"LDT","right",0.53370453545358,0,"",NA,"right",0,0.53370453545358,NA,NA,"",NA,"",NA,"",NA,"",NA,NA,NA,NA,NA,NA,NA,NA,"",NA,"",NA,1006,"2019_Mar_06_0951","mf_amp_cond2","3.0.4",60.0139738467059,NA,NA,NA,NA,NA,NA,NA,NA,NA,NA,NA,NA,NA,NA,NA,NA,NA
"180","each","&&&&","left","neutral","","","",NA,NA,NA,NA,0,173,173,152,NA,NA,NA,NA,NA,NA,NA,NA,NA,NA,NA,NA,"",NA,"",NA,"",NA,"",NA,"LDT","left",0.83380094403401,1,"",NA,"left",1,0.83380094403401,NA,NA,"",NA,"",NA,"",NA,"",NA,NA,NA,NA,NA,NA,NA,NA,"",NA,"",NA,1006,"2019_Mar_06_0951","mf_amp_cond2","3.0.4",60.0139738467059,NA,NA,NA,NA,NA,NA,NA,NA,NA,NA,NA,NA,NA,NA,NA,NA,NA
"181","towards","&&&&&&&","left","neutral","","","",NA,NA,NA,NA,0,174,174,22,NA,NA,NA,NA,NA,NA,NA,NA,NA,NA,NA,NA,"",NA,"",NA,"",NA,"",NA,"LDT","right",1.8507019613171,0,"",NA,"right",0,1.8507019613171,NA,NA,"",NA,"",NA,"",NA,"",NA,NA,NA,NA,NA,NA,NA,NA,"",NA,"",NA,1006,"2019_Mar_06_0951","mf_amp_cond2","3.0.4",60.0139738467059,NA,NA,NA,NA,NA,NA,NA,NA,NA,NA,NA,NA,NA,NA,NA,NA,NA
"182","brotesque","&&&&&&&&&","right","nonword","","","",NA,NA,NA,NA,0,175,175,14,NA,NA,NA,NA,NA,NA,NA,NA,NA,NA,NA,NA,"",NA,"",NA,"",NA,"",NA,"LDT","right",1.21722411131486,1,"",NA,"right",1,1.21722411131486,NA,NA,"",NA,"",NA,"",NA,"",NA,NA,NA,NA,NA,NA,NA,NA,"",NA,"",NA,1006,"2019_Mar_06_0951","mf_amp_cond2","3.0.4",60.0139738467059,NA,NA,NA,NA,NA,NA,NA,NA,NA,NA,NA,NA,NA,NA,NA,NA,NA
"183","Loorish","&&&&&&&","right","nonword","","","",NA,NA,NA,NA,0,176,176,173,NA,NA,NA,NA,NA,NA,NA,NA,NA,NA,NA,NA,"",NA,"",NA,"",NA,"",NA,"LDT","right",0.850450195604935,1,"",NA,"right",1,0.850450195604935,NA,NA,"",NA,"",NA,"",NA,"",NA,NA,NA,NA,NA,NA,NA,NA,"",NA,"",NA,1006,"2019_Mar_06_0951","mf_amp_cond2","3.0.4",60.0139738467059,NA,NA,NA,NA,NA,NA,NA,NA,NA,NA,NA,NA,NA,NA,NA,NA,NA
"184","counpy's","&&&&&&&&","right","nonword","","","",NA,NA,NA,NA,0,177,177,65,NA,NA,NA,NA,NA,NA,NA,NA,NA,NA,NA,NA,"",NA,"",NA,"",NA,"",NA,"LDT","right",0.817112243850715,1,"",NA,"right",1,0.817112243850715,NA,NA,"",NA,"",NA,"",NA,"",NA,NA,NA,NA,NA,NA,NA,NA,"",NA,"",NA,1006,"2019_Mar_06_0951","mf_amp_cond2","3.0.4",60.0139738467059,NA,NA,NA,NA,NA,NA,NA,NA,NA,NA,NA,NA,NA,NA,NA,NA,NA
"185","crinking","&&&&&&&&","right","nonword","","","",NA,NA,NA,NA,0,178,178,45,NA,NA,NA,NA,NA,NA,NA,NA,NA,NA,NA,NA,"",NA,"",NA,"",NA,"",NA,"LDT","right",1.20053188316524,1,"",NA,"right",1,1.20053188316524,NA,NA,"",NA,"",NA,"",NA,"",NA,NA,NA,NA,NA,NA,NA,NA,"",NA,"",NA,1006,"2019_Mar_06_0951","mf_amp_cond2","3.0.4",60.0139738467059,NA,NA,NA,NA,NA,NA,NA,NA,NA,NA,NA,NA,NA,NA,NA,NA,NA
"186","latterly","&&&&&&&&","left","neutral","","","",NA,NA,NA,NA,0,179,179,195,NA,NA,NA,NA,NA,NA,NA,NA,NA,NA,NA,NA,"",NA,"",NA,"",NA,"",NA,"LDT","right",0.650403562816791,0,"",NA,"right",0,0.650403562816791,NA,NA,"",NA,"",NA,"",NA,"",NA,NA,NA,NA,NA,NA,NA,NA,"",NA,"",NA,1006,"2019_Mar_06_0951","mf_amp_cond2","3.0.4",60.0139738467059,NA,NA,NA,NA,NA,NA,NA,NA,NA,NA,NA,NA,NA,NA,NA,NA,NA
"187","wonderfujnoss","&&&&&&&&&&&&&","right","nonword","","","",NA,NA,NA,NA,0,180,180,135,NA,NA,NA,NA,NA,NA,NA,NA,NA,NA,NA,NA,"",NA,"",NA,"",NA,"",NA,"LDT","right",0.700426366063766,1,"",NA,"right",1,0.700426366063766,NA,NA,"",NA,"",NA,"",NA,"",NA,NA,NA,NA,NA,NA,NA,NA,"",NA,"",NA,1006,"2019_Mar_06_0951","mf_amp_cond2","3.0.4",60.0139738467059,NA,NA,NA,NA,NA,NA,NA,NA,NA,NA,NA,NA,NA,NA,NA,NA,NA
"188","sliptery","&&&&&&&&","right","nonword","","","",NA,NA,NA,NA,0,181,181,125,NA,NA,NA,NA,NA,NA,NA,NA,NA,NA,NA,NA,"",NA,"",NA,"",NA,"",NA,"LDT","right",0.917140210745856,1,"",NA,"right",1,0.917140210745856,NA,NA,"",NA,"",NA,"",NA,"",NA,NA,NA,NA,NA,NA,NA,NA,"",NA,"",NA,1006,"2019_Mar_06_0951","mf_amp_cond2","3.0.4",60.0139738467059,NA,NA,NA,NA,NA,NA,NA,NA,NA,NA,NA,NA,NA,NA,NA,NA,NA
"189","menizen","&&&&&&&","None","nonword","","","",NA,NA,NA,NA,0,182,182,87,NA,NA,NA,NA,NA,NA,NA,NA,NA,NA,NA,NA,"",NA,"",NA,"",NA,"",NA,"LDT","left",0.76709136494901,0,"",NA,"left",0,0.76709136494901,NA,NA,"",NA,"",NA,"",NA,"",NA,NA,NA,NA,NA,NA,NA,NA,"",NA,"",NA,1006,"2019_Mar_06_0951","mf_amp_cond2","3.0.4",60.0139738467059,NA,NA,NA,NA,NA,NA,NA,NA,NA,NA,NA,NA,NA,NA,NA,NA,NA
"190","amoungst","&&&&&&&&","left","neutral","","","",NA,NA,NA,NA,0,183,183,29,NA,NA,NA,NA,NA,NA,NA,NA,NA,NA,NA,NA,"",NA,"",NA,"",NA,"",NA,"LDT","right",0.717074334737845,0,"",NA,"right",0,0.717074334737845,NA,NA,"",NA,"",NA,"",NA,"",NA,NA,NA,NA,NA,NA,NA,NA,"",NA,"",NA,1006,"2019_Mar_06_0951","mf_amp_cond2","3.0.4",60.0139738467059,NA,NA,NA,NA,NA,NA,NA,NA,NA,NA,NA,NA,NA,NA,NA,NA,NA
"191","both","&&&&","left","neutral","","","",NA,NA,NA,NA,0,184,184,107,NA,NA,NA,NA,NA,NA,NA,NA,NA,NA,NA,NA,"",NA,"",NA,"",NA,"",NA,"LDT","right",1.20053573173936,0,"",NA,"right",0,1.20053573173936,NA,NA,"",NA,"",NA,"",NA,"",NA,NA,NA,NA,NA,NA,NA,NA,"",NA,"",NA,1006,"2019_Mar_06_0951","mf_amp_cond2","3.0.4",60.0139738467059,NA,NA,NA,NA,NA,NA,NA,NA,NA,NA,NA,NA,NA,NA,NA,NA,NA
"192","therefore","&&&&&&&&&","left","neutral","","","",NA,NA,NA,NA,0,185,185,32,NA,NA,NA,NA,NA,NA,NA,NA,NA,NA,NA,NA,"",NA,"",NA,"",NA,"",NA,"LDT","right",1.20053669402841,0,"",NA,"right",0,1.20053669402841,NA,NA,"",NA,"",NA,"",NA,"",NA,NA,NA,NA,NA,NA,NA,NA,"",NA,"",NA,1006,"2019_Mar_06_0951","mf_amp_cond2","3.0.4",60.0139738467059,NA,NA,NA,NA,NA,NA,NA,NA,NA,NA,NA,NA,NA,NA,NA,NA,NA
"193","death","&&&&&","left","care.vice","","","",NA,NA,NA,NA,0,186,186,160,NA,NA,NA,NA,NA,NA,NA,NA,NA,NA,NA,NA,"",NA,"",NA,"",NA,"",NA,"LDT","right",0.883795844623819,0,"",NA,"right",0,0.883795844623819,NA,NA,"",NA,"",NA,"",NA,"",NA,NA,NA,NA,NA,NA,NA,NA,"",NA,"",NA,1006,"2019_Mar_06_0951","mf_amp_cond2","3.0.4",60.0139738467059,NA,NA,NA,NA,NA,NA,NA,NA,NA,NA,NA,NA,NA,NA,NA,NA,NA
"194","ability","&&&&&&&","left","authority.virtue","","","",NA,NA,NA,NA,0,187,187,60,NA,NA,NA,NA,NA,NA,NA,NA,NA,NA,NA,NA,"",NA,"",NA,"",NA,"",NA,"LDT","right",0.750426077400334,0,"",NA,"right",0,0.750426077400334,NA,NA,"",NA,"",NA,"",NA,"",NA,NA,NA,NA,NA,NA,NA,NA,"",NA,"",NA,1006,"2019_Mar_06_0951","mf_amp_cond2","3.0.4",60.0139738467059,NA,NA,NA,NA,NA,NA,NA,NA,NA,NA,NA,NA,NA,NA,NA,NA,NA
"195","gazily","&&&&&&","right","nonword","","","",NA,NA,NA,NA,0,188,188,17,NA,NA,NA,NA,NA,NA,NA,NA,NA,NA,NA,NA,"",NA,"",NA,"",NA,"",NA,"LDT","right",0.717086522025056,1,"",NA,"right",1,0.717086522025056,NA,NA,"",NA,"",NA,"",NA,"",NA,NA,NA,NA,NA,NA,NA,NA,"",NA,"",NA,1006,"2019_Mar_06_0951","mf_amp_cond2","3.0.4",60.0139738467059,NA,NA,NA,NA,NA,NA,NA,NA,NA,NA,NA,NA,NA,NA,NA,NA,NA
"196","fangsters","&&&&&&&&&","right","nonword","","","",NA,NA,NA,NA,0,189,189,183,NA,NA,NA,NA,NA,NA,NA,NA,NA,NA,NA,NA,"",NA,"",NA,"",NA,"",NA,"LDT","left",0.817113526747562,0,"",NA,"left",0,0.817113526747562,NA,NA,"",NA,"",NA,"",NA,"",NA,NA,NA,NA,NA,NA,NA,NA,"",NA,"",NA,1006,"2019_Mar_06_0951","mf_amp_cond2","3.0.4",60.0139738467059,NA,NA,NA,NA,NA,NA,NA,NA,NA,NA,NA,NA,NA,NA,NA,NA,NA
"197","couldnt","&&&&&&&","left","neutral","","","",NA,NA,NA,NA,0,190,190,56,NA,NA,NA,NA,NA,NA,NA,NA,NA,NA,NA,NA,"",NA,"",NA,"",NA,"",NA,"LDT","right",0.750426718965173,0,"",NA,"right",0,0.750426718965173,NA,NA,"",NA,"",NA,"",NA,"",NA,NA,NA,NA,NA,NA,NA,NA,"",NA,"",NA,1006,"2019_Mar_06_0951","mf_amp_cond2","3.0.4",60.0139738467059,NA,NA,NA,NA,NA,NA,NA,NA,NA,NA,NA,NA,NA,NA,NA,NA,NA
"198","noone","&&&&&","left","neutral","","","",NA,NA,NA,NA,0,191,191,89,NA,NA,NA,NA,NA,NA,NA,NA,NA,NA,NA,NA,"",NA,"",NA,"",NA,"",NA,"LDT","right",0.950470465235412,0,"",NA,"right",0,0.950470465235412,NA,NA,"",NA,"",NA,"",NA,"",NA,NA,NA,NA,NA,NA,NA,NA,"",NA,"",NA,1006,"2019_Mar_06_0951","mf_amp_cond2","3.0.4",60.0139738467059,NA,NA,NA,NA,NA,NA,NA,NA,NA,NA,NA,NA,NA,NA,NA,NA,NA
"199","bluently","&&&&&&&&","None","nonword","","","",NA,NA,NA,NA,0,192,192,34,NA,NA,NA,NA,NA,NA,NA,NA,NA,NA,NA,NA,"",NA,"",NA,"",NA,"",NA,"LDT","left",0.850427103694528,0,"",NA,"left",0,0.850427103694528,NA,NA,"",NA,"",NA,"",NA,"",NA,NA,NA,NA,NA,NA,NA,NA,"",NA,"",NA,1006,"2019_Mar_06_0951","mf_amp_cond2","3.0.4",60.0139738467059,NA,NA,NA,NA,NA,NA,NA,NA,NA,NA,NA,NA,NA,NA,NA,NA,NA
"200","forty","&&&&&","left","neutral","","","",NA,NA,NA,NA,0,193,193,191,NA,NA,NA,NA,NA,NA,NA,NA,NA,NA,NA,NA,"",NA,"",NA,"",NA,"",NA,"LDT","right",0.817104546586052,0,"",NA,"right",0,0.817104546586052,NA,NA,"",NA,"",NA,"",NA,"",NA,NA,NA,NA,NA,NA,NA,NA,"",NA,"",NA,1006,"2019_Mar_06_0951","mf_amp_cond2","3.0.4",60.0139738467059,NA,NA,NA,NA,NA,NA,NA,NA,NA,NA,NA,NA,NA,NA,NA,NA,NA
"201","Daptist","&&&&&&&","right","nonword","","","",NA,NA,NA,NA,0,194,194,147,NA,NA,NA,NA,NA,NA,NA,NA,NA,NA,NA,NA,"",NA,"",NA,"",NA,"",NA,"LDT","left",1.08383959089406,0,"",NA,"left",0,1.08383959089406,NA,NA,"",NA,"",NA,"",NA,"",NA,NA,NA,NA,NA,NA,NA,NA,"",NA,"",NA,1006,"2019_Mar_06_0951","mf_amp_cond2","3.0.4",60.0139738467059,NA,NA,NA,NA,NA,NA,NA,NA,NA,NA,NA,NA,NA,NA,NA,NA,NA
"202","anything","&&&&&&&&","left","neutral","","","",NA,NA,NA,NA,0,195,195,145,NA,NA,NA,NA,NA,NA,NA,NA,NA,NA,NA,NA,"",NA,"",NA,"",NA,"",NA,"LDT","right",1.11718267411925,0,"",NA,"right",0,1.11718267411925,NA,NA,"",NA,"",NA,"",NA,"",NA,NA,NA,NA,NA,NA,NA,NA,"",NA,"",NA,1006,"2019_Mar_06_0951","mf_amp_cond2","3.0.4",60.0139738467059,NA,NA,NA,NA,NA,NA,NA,NA,NA,NA,NA,NA,NA,NA,NA,NA,NA
"203","tenuflect","&&&&&&&&&","right","nonword","","","",NA,NA,NA,NA,0,196,196,163,NA,NA,NA,NA,NA,NA,NA,NA,NA,NA,NA,NA,"",NA,"",NA,"",NA,"",NA,"LDT","right",1.2839176543057,1,"",NA,"right",1,1.2839176543057,NA,NA,"",NA,"",NA,"",NA,"",NA,NA,NA,NA,NA,NA,NA,NA,"",NA,"",NA,1006,"2019_Mar_06_0951","mf_amp_cond2","3.0.4",60.0139738467059,NA,NA,NA,NA,NA,NA,NA,NA,NA,NA,NA,NA,NA,NA,NA,NA,NA
"204","mih","&&&","right","nonword","","","",NA,NA,NA,NA,0,197,197,186,NA,NA,NA,NA,NA,NA,NA,NA,NA,NA,NA,NA,"",NA,"",NA,"",NA,"",NA,"LDT","left",1.56729778088629,0,"",NA,"left",0,1.56729778088629,NA,NA,"",NA,"",NA,"",NA,"",NA,NA,NA,NA,NA,NA,NA,NA,"",NA,"",NA,1006,"2019_Mar_06_0951","mf_amp_cond2","3.0.4",60.0139738467059,NA,NA,NA,NA,NA,NA,NA,NA,NA,NA,NA,NA,NA,NA,NA,NA,NA
"205","peace","&&&&&","left","care.virtue","","","",NA,NA,NA,NA,0,198,198,8,NA,NA,NA,NA,NA,NA,NA,NA,NA,NA,NA,NA,"",NA,"",NA,"",NA,"",NA,"LDT","right",1.16720964678098,0,"",NA,"right",0,1.16720964678098,NA,NA,"",NA,"",NA,"",NA,"",NA,NA,NA,NA,NA,NA,NA,NA,"",NA,"",NA,1006,"2019_Mar_06_0951","mf_amp_cond2","3.0.4",60.0139738467059,NA,NA,NA,NA,NA,NA,NA,NA,NA,NA,NA,NA,NA,NA,NA,NA,NA
"206","sexual","&&&&&&","left","sanctity.vice","","","",NA,NA,NA,NA,0,199,199,105,NA,NA,NA,NA,NA,NA,NA,NA,NA,NA,NA,NA,"",NA,"",NA,"",NA,"",NA,"LDT","right",0.900463697966188,0,"",NA,"right",0,0.900463697966188,NA,NA,"",NA,"",NA,"",NA,"",NA,NA,NA,NA,NA,NA,NA,NA,"",NA,"",NA,1006,"2019_Mar_06_0951","mf_amp_cond2","3.0.4",60.0139738467059,NA,NA,NA,NA,NA,NA,NA,NA,NA,NA,NA,NA,NA,NA,NA,NA,NA
"207","","","","","","","",NA,NA,NA,NA,NA,NA,NA,NA,NA,NA,NA,NA,NA,NA,NA,NA,NA,NA,NA,NA,"",NA,"",NA,"",NA,"",NA,"","",NA,NA,"",NA,"",NA,NA,4,10.654,"",NA,"",NA,"",NA,"",NA,NA,NA,NA,NA,NA,NA,NA,"",NA,"",NA,1006,"2019_Mar_06_0951","mf_amp_cond2","3.0.4",60.0139738467059,NA,NA,NA,NA,NA,NA,NA,NA,NA,NA,NA,NA,NA,NA,NA,NA,NA
"208","","","","","","","",NA,NA,NA,NA,NA,NA,NA,NA,NA,NA,NA,NA,NA,NA,NA,NA,NA,NA,NA,NA,"",NA,"",NA,"",NA,"",NA,"","",NA,NA,"",NA,"",NA,NA,NA,NA,"right",1.20056587958243,"",NA,"",NA,"",NA,NA,NA,NA,NA,NA,NA,NA,"",NA,"",NA,1006,"2019_Mar_06_0951","mf_amp_cond2","3.0.4",60.0139738467059,NA,NA,NA,NA,NA,NA,NA,NA,NA,NA,NA,NA,NA,NA,NA,NA,NA
"209","scarf","&&&&&&&&","","","bisebell","","",NA,NA,NA,NA,NA,NA,NA,NA,0,0,0,3,NA,NA,NA,NA,NA,NA,NA,NA,"",NA,"",NA,"",NA,"",NA,"AMP_prac","right",5.75169388623908,NA,"",NA,"",NA,NA,NA,NA,"",NA,"right",5.75169388623908,"",NA,"",NA,NA,NA,NA,NA,NA,NA,NA,"",NA,"",NA,1006,"2019_Mar_06_0951","mf_amp_cond2","3.0.4",60.0139738467059,NA,NA,NA,NA,NA,NA,NA,NA,NA,NA,NA,NA,NA,NA,NA,NA,NA
"210","car","&&&&&&&&","","","cemtuper","","",NA,NA,NA,NA,NA,NA,NA,NA,0,1,1,0,NA,NA,NA,NA,NA,NA,NA,NA,"",NA,"",NA,"",NA,"",NA,"AMP_prac","right",3.13439222471789,NA,"",NA,"",NA,NA,NA,NA,"",NA,"right",3.13439222471789,"",NA,"",NA,NA,NA,NA,NA,NA,NA,NA,"",NA,"",NA,1006,"2019_Mar_06_0951","mf_amp_cond2","3.0.4",60.0139738467059,NA,NA,NA,NA,NA,NA,NA,NA,NA,NA,NA,NA,NA,NA,NA,NA,NA
"211","banana","&&&&&&","","","kacket","","",NA,NA,NA,NA,NA,NA,NA,NA,0,2,2,1,NA,NA,NA,NA,NA,NA,NA,NA,"",NA,"",NA,"",NA,"",NA,"AMP_prac","left",0.883819577982649,NA,"",NA,"",NA,NA,NA,NA,"",NA,"left",0.883819577982649,"",NA,"",NA,NA,NA,NA,NA,NA,NA,NA,"",NA,"",NA,1006,"2019_Mar_06_0951","mf_amp_cond2","3.0.4",60.0139738467059,NA,NA,NA,NA,NA,NA,NA,NA,NA,NA,NA,NA,NA,NA,NA,NA,NA
"212","keyboard","&&&&","","","senk","","",NA,NA,NA,NA,NA,NA,NA,NA,0,3,3,2,NA,NA,NA,NA,NA,NA,NA,NA,"",NA,"",NA,"",NA,"",NA,"AMP_prac","left",0.91715175670106,NA,"",NA,"",NA,NA,NA,NA,"",NA,"left",0.91715175670106,"",NA,"",NA,NA,NA,NA,NA,NA,NA,NA,"",NA,"",NA,1006,"2019_Mar_06_0951","mf_amp_cond2","3.0.4",60.0139738467059,NA,NA,NA,NA,NA,NA,NA,NA,NA,NA,NA,NA,NA,NA,NA,NA,NA
"213","","","","","","","",NA,NA,NA,NA,NA,NA,NA,NA,NA,NA,NA,NA,NA,NA,NA,NA,NA,NA,NA,NA,"",NA,"",NA,"",NA,"",NA,"","",NA,NA,"",NA,"",NA,NA,NA,NA,"",NA,"",NA,"right",1.16716923599597,"",NA,NA,NA,NA,NA,NA,NA,NA,"",NA,"",NA,1006,"2019_Mar_06_0951","mf_amp_cond2","3.0.4",60.0139738467059,NA,NA,NA,NA,NA,NA,NA,NA,NA,NA,NA,NA,NA,NA,NA,NA,NA
"214","useful","&&&&&&","left","authority.virtue","greaks","","",NA,NA,NA,NA,NA,NA,NA,NA,NA,NA,NA,NA,0,0,0,206,NA,NA,NA,NA,"",NA,"",NA,"",NA,"",NA,"AMP","right",4.45141210104339,0,"",NA,"",NA,NA,NA,NA,"",NA,"",NA,"",NA,"right",0,4.45141210104339,NA,NA,NA,NA,NA,NA,"",NA,"",NA,1006,"2019_Mar_06_0951","mf_amp_cond2","3.0.4",60.0139738467059,NA,NA,NA,NA,NA,NA,NA,NA,NA,NA,NA,NA,NA,NA,NA,NA,NA
"215","sharing","&&&&&&&&&","left","loyalty.virtue","baladroit","","",NA,NA,NA,NA,NA,NA,NA,NA,NA,NA,NA,NA,0,1,1,72,NA,NA,NA,NA,"",NA,"",NA,"",NA,"",NA,"AMP","left",0.683745042537339,1,"",NA,"",NA,NA,NA,NA,"",NA,"",NA,"",NA,"left",1,0.683745042537339,NA,NA,NA,NA,NA,NA,"",NA,"",NA,1006,"2019_Mar_06_0951","mf_amp_cond2","3.0.4",60.0139738467059,NA,NA,NA,NA,NA,NA,NA,NA,NA,NA,NA,NA,NA,NA,NA,NA,NA
"216","fegard","&&&&&&&&&&","None","nonword","ecgagement","","",NA,NA,NA,NA,NA,NA,NA,NA,NA,NA,NA,NA,0,2,2,25,NA,NA,NA,NA,"",NA,"",NA,"",NA,"",NA,"AMP","right",1.76739123871084,0,"",NA,"",NA,NA,NA,NA,"",NA,"",NA,"",NA,"right",0,1.76739123871084,NA,NA,NA,NA,NA,NA,"",NA,"",NA,1006,"2019_Mar_06_0951","mf_amp_cond2","3.0.4",60.0139738467059,NA,NA,NA,NA,NA,NA,NA,NA,NA,NA,NA,NA,NA,NA,NA,NA,NA
"217","safe","&&&&&&&&&&&&","left","care.virtue","iptervention","","",NA,NA,NA,NA,NA,NA,NA,NA,NA,NA,NA,NA,0,3,3,285,NA,NA,NA,NA,"",NA,"",NA,"",NA,"",NA,"AMP","right",3.75119420338888,0,"",NA,"",NA,NA,NA,NA,"",NA,"",NA,"",NA,"right",0,3.75119420338888,NA,NA,NA,NA,NA,NA,"",NA,"",NA,1006,"2019_Mar_06_0951","mf_amp_cond2","3.0.4",60.0139738467059,NA,NA,NA,NA,NA,NA,NA,NA,NA,NA,NA,NA,NA,NA,NA,NA,NA
"218","honored","&&&&&&&&&","left","authority.virtue","pescinded","","",NA,NA,NA,NA,NA,NA,NA,NA,NA,NA,NA,NA,0,4,4,178,NA,NA,NA,NA,"",NA,"",NA,"",NA,"",NA,"AMP","left",0.850474249687977,1,"",NA,"",NA,NA,NA,NA,"",NA,"",NA,"",NA,"left",1,0.850474249687977,NA,NA,NA,NA,NA,NA,"",NA,"",NA,1006,"2019_Mar_06_0951","mf_amp_cond2","3.0.4",60.0139738467059,NA,NA,NA,NA,NA,NA,NA,NA,NA,NA,NA,NA,NA,NA,NA,NA,NA
"219","benefit","&&&&&&&&&","left","fairness.virtue","chressing","","",NA,NA,NA,NA,NA,NA,NA,NA,NA,NA,NA,NA,0,5,5,162,NA,NA,NA,NA,"",NA,"",NA,"",NA,"",NA,"AMP","left",0.717091974336654,1,"",NA,"",NA,NA,NA,NA,"",NA,"",NA,"",NA,"left",1,0.717091974336654,NA,NA,NA,NA,NA,NA,"",NA,"",NA,1006,"2019_Mar_06_0951","mf_amp_cond2","3.0.4",60.0139738467059,NA,NA,NA,NA,NA,NA,NA,NA,NA,NA,NA,NA,NA,NA,NA,NA,NA
"220","values","&&&&&","left","sanctity.virtue","tabin","","",NA,NA,NA,NA,NA,NA,NA,NA,NA,NA,NA,NA,0,6,6,75,NA,NA,NA,NA,"",NA,"",NA,"",NA,"",NA,"AMP","right",0.917159133241512,0,"",NA,"",NA,NA,NA,NA,"",NA,"",NA,"",NA,"right",0,0.917159133241512,NA,NA,NA,NA,NA,NA,"",NA,"",NA,1006,"2019_Mar_06_0951","mf_amp_cond2","3.0.4",60.0139738467059,NA,NA,NA,NA,NA,NA,NA,NA,NA,NA,NA,NA,NA,NA,NA,NA,NA
"221","interests","&&&&&&&&&&","left","fairness.virtue","frocessing","","",NA,NA,NA,NA,NA,NA,NA,NA,NA,NA,NA,NA,0,7,7,113,NA,NA,NA,NA,"",NA,"",NA,"",NA,"",NA,"AMP","left",1.01721692713909,1,"",NA,"",NA,NA,NA,NA,"",NA,"",NA,"",NA,"left",1,1.01721692713909,NA,NA,NA,NA,NA,NA,"",NA,"",NA,1006,"2019_Mar_06_0951","mf_amp_cond2","3.0.4",60.0139738467059,NA,NA,NA,NA,NA,NA,NA,NA,NA,NA,NA,NA,NA,NA,NA,NA,NA
"222","egpeditious","&&&&&","None","nonword","saned","","",NA,NA,NA,NA,NA,NA,NA,NA,NA,NA,NA,NA,0,8,8,20,NA,NA,NA,NA,"",NA,"",NA,"",NA,"",NA,"AMP","right",0.883812522049993,0,"",NA,"",NA,NA,NA,NA,"",NA,"",NA,"",NA,"right",0,0.883812522049993,NA,NA,NA,NA,NA,NA,"",NA,"",NA,1006,"2019_Mar_06_0951","mf_amp_cond2","3.0.4",60.0139738467059,NA,NA,NA,NA,NA,NA,NA,NA,NA,NA,NA,NA,NA,NA,NA,NA,NA
"223","gun","&&&&&&&&","right","authority.vice","slending","","",NA,NA,NA,NA,NA,NA,NA,NA,NA,NA,NA,NA,0,9,9,147,NA,NA,NA,NA,"",NA,"",NA,"",NA,"",NA,"AMP","left",0.933835966861807,0,"",NA,"",NA,NA,NA,NA,"",NA,"",NA,"",NA,"left",0,0.933835966861807,NA,NA,NA,NA,NA,NA,"",NA,"",NA,1006,"2019_Mar_06_0951","mf_amp_cond2","3.0.4",60.0139738467059,NA,NA,NA,NA,NA,NA,NA,NA,NA,NA,NA,NA,NA,NA,NA,NA,NA
"224","scandal","&&&&&","right","sanctity.vice","scock","","",NA,NA,NA,NA,NA,NA,NA,NA,NA,NA,NA,NA,0,10,10,169,NA,NA,NA,NA,"",NA,"",NA,"",NA,"",NA,"AMP","left",0.700439515640028,0,"",NA,"",NA,NA,NA,NA,"",NA,"",NA,"",NA,"left",0,0.700439515640028,NA,NA,NA,NA,NA,NA,"",NA,"",NA,1006,"2019_Mar_06_0951","mf_amp_cond2","3.0.4",60.0139738467059,NA,NA,NA,NA,NA,NA,NA,NA,NA,NA,NA,NA,NA,NA,NA,NA,NA
"225","strength","&&&&&&&&&","left","sanctity.virtue","taxpayung","","",NA,NA,NA,NA,NA,NA,NA,NA,NA,NA,NA,NA,0,11,11,226,NA,NA,NA,NA,"",NA,"",NA,"",NA,"",NA,"AMP","right",2.16733825579286,0,"",NA,"",NA,NA,NA,NA,"",NA,"",NA,"",NA,"right",0,2.16733825579286,NA,NA,NA,NA,NA,NA,"",NA,"",NA,1006,"2019_Mar_06_0951","mf_amp_cond2","3.0.4",60.0139738467059,NA,NA,NA,NA,NA,NA,NA,NA,NA,NA,NA,NA,NA,NA,NA,NA,NA
"226","war","&&&&&&","right","sanctity.vice","gikely","","",NA,NA,NA,NA,NA,NA,NA,NA,NA,NA,NA,NA,0,12,12,165,NA,NA,NA,NA,"",NA,"",NA,"",NA,"",NA,"AMP","right",2.06745749979746,1,"",NA,"",NA,NA,NA,NA,"",NA,"",NA,"",NA,"right",1,2.06745749979746,NA,NA,NA,NA,NA,NA,"",NA,"",NA,1006,"2019_Mar_06_0951","mf_amp_cond2","3.0.4",60.0139738467059,NA,NA,NA,NA,NA,NA,NA,NA,NA,NA,NA,NA,NA,NA,NA,NA,NA
"227","love","&&&&&&&&&","left","loyalty.virtue","chressing","","",NA,NA,NA,NA,NA,NA,NA,NA,NA,NA,NA,NA,0,13,13,223,NA,NA,NA,NA,"",NA,"",NA,"",NA,"",NA,"AMP","left",0.933825383079238,1,"",NA,"",NA,NA,NA,NA,"",NA,"",NA,"",NA,"left",1,0.933825383079238,NA,NA,NA,NA,NA,NA,"",NA,"",NA,1006,"2019_Mar_06_0951","mf_amp_cond2","3.0.4",60.0139738467059,NA,NA,NA,NA,NA,NA,NA,NA,NA,NA,NA,NA,NA,NA,NA,NA,NA
"228","fornicalion","&&&&&&&&&&","None","nonword","reelectiob","","",NA,NA,NA,NA,NA,NA,NA,NA,NA,NA,NA,NA,0,14,14,294,NA,NA,NA,NA,"",NA,"",NA,"",NA,"",NA,"AMP","right",1.98411662946455,0,"",NA,"",NA,NA,NA,NA,"",NA,"",NA,"",NA,"right",0,1.98411662946455,NA,NA,NA,NA,NA,NA,"",NA,"",NA,1006,"2019_Mar_06_0951","mf_amp_cond2","3.0.4",60.0139738467059,NA,NA,NA,NA,NA,NA,NA,NA,NA,NA,NA,NA,NA,NA,NA,NA,NA
"229","egpeditious","&&&&&&&&&","None","nonword","pescinded","","",NA,NA,NA,NA,NA,NA,NA,NA,NA,NA,NA,NA,0,15,15,151,NA,NA,NA,NA,"",NA,"",NA,"",NA,"",NA,"AMP","left",2.71762372914236,0,"",NA,"",NA,NA,NA,NA,"",NA,"",NA,"",NA,"left",0,2.71762372914236,NA,NA,NA,NA,NA,NA,"",NA,"",NA,1006,"2019_Mar_06_0951","mf_amp_cond2","3.0.4",60.0139738467059,NA,NA,NA,NA,NA,NA,NA,NA,NA,NA,NA,NA,NA,NA,NA,NA,NA
"230","conspiracy","&&&&&","right","sanctity.vice","lenon","","",NA,NA,NA,NA,NA,NA,NA,NA,NA,NA,NA,NA,0,16,16,132,NA,NA,NA,NA,"",NA,"",NA,"",NA,"",NA,"AMP","right",2.43422564235516,1,"",NA,"",NA,NA,NA,NA,"",NA,"",NA,"",NA,"right",1,2.43422564235516,NA,NA,NA,NA,NA,NA,"",NA,"",NA,1006,"2019_Mar_06_0951","mf_amp_cond2","3.0.4",60.0139738467059,NA,NA,NA,NA,NA,NA,NA,NA,NA,NA,NA,NA,NA,NA,NA,NA,NA
"231","pleasant","&&&&&&&&&&&","None","control","lempestuous","","",NA,NA,NA,NA,NA,NA,NA,NA,NA,NA,NA,NA,0,17,17,253,NA,NA,NA,NA,"",NA,"",NA,"",NA,"",NA,"AMP","left",1.9340858082287,0,"",NA,"",NA,NA,NA,NA,"",NA,"",NA,"",NA,"left",0,1.9340858082287,NA,NA,NA,NA,NA,NA,"",NA,"",NA,1006,"2019_Mar_06_0951","mf_amp_cond2","3.0.4",60.0139738467059,NA,NA,NA,NA,NA,NA,NA,NA,NA,NA,NA,NA,NA,NA,NA,NA,NA
"232","charges","&&&&&&&&&&&&&","right","fairness.vice","idexpressible","","",NA,NA,NA,NA,NA,NA,NA,NA,NA,NA,NA,NA,0,18,18,270,NA,NA,NA,NA,"",NA,"",NA,"",NA,"",NA,"AMP","left",1.10055266576819,0,"",NA,"",NA,NA,NA,NA,"",NA,"",NA,"",NA,"left",0,1.10055266576819,NA,NA,NA,NA,NA,NA,"",NA,"",NA,1006,"2019_Mar_06_0951","mf_amp_cond2","3.0.4",60.0139738467059,NA,NA,NA,NA,NA,NA,NA,NA,NA,NA,NA,NA,NA,NA,NA,NA,NA
"233","faith","&&&&&&&","left","sanctity.virtue","nackers","","",NA,NA,NA,NA,NA,NA,NA,NA,NA,NA,NA,NA,0,19,19,7,NA,NA,NA,NA,"",NA,"",NA,"",NA,"",NA,"AMP","right",1.10052572528366,0,"",NA,"",NA,NA,NA,NA,"",NA,"",NA,"",NA,"right",0,1.10052572528366,NA,NA,NA,NA,NA,NA,"",NA,"",NA,1006,"2019_Mar_06_0951","mf_amp_cond2","3.0.4",60.0139738467059,NA,NA,NA,NA,NA,NA,NA,NA,NA,NA,NA,NA,NA,NA,NA,NA,NA
"234","victims","&&&&&","right","care.vice","viscs","","",NA,NA,NA,NA,NA,NA,NA,NA,NA,NA,NA,NA,0,20,20,261,NA,NA,NA,NA,"",NA,"",NA,"",NA,"",NA,"AMP","right",0.950486180488952,1,"",NA,"",NA,NA,NA,NA,"",NA,"",NA,"",NA,"right",1,0.950486180488952,NA,NA,NA,NA,NA,NA,"",NA,"",NA,1006,"2019_Mar_06_0951","mf_amp_cond2","3.0.4",60.0139738467059,NA,NA,NA,NA,NA,NA,NA,NA,NA,NA,NA,NA,NA,NA,NA,NA,NA
"235","integrity","&&&&&&&&","left","fairness.virtue","ugeasily","","",NA,NA,NA,NA,NA,NA,NA,NA,NA,NA,NA,NA,0,21,21,298,NA,NA,NA,NA,"",NA,"",NA,"",NA,"",NA,"AMP","left",0.983835036633536,1,"",NA,"",NA,NA,NA,NA,"",NA,"",NA,"",NA,"left",1,0.983835036633536,NA,NA,NA,NA,NA,NA,"",NA,"",NA,1006,"2019_Mar_06_0951","mf_amp_cond2","3.0.4",60.0139738467059,NA,NA,NA,NA,NA,NA,NA,NA,NA,NA,NA,NA,NA,NA,NA,NA,NA
"236","powerful","&&&&&&&","left","authority.virtue","emports","","",NA,NA,NA,NA,NA,NA,NA,NA,NA,NA,NA,NA,0,22,22,141,NA,NA,NA,NA,"",NA,"",NA,"",NA,"",NA,"AMP","right",2.16753453679848,0,"",NA,"",NA,NA,NA,NA,"",NA,"",NA,"",NA,"right",0,2.16753453679848,NA,NA,NA,NA,NA,NA,"",NA,"",NA,1006,"2019_Mar_06_0951","mf_amp_cond2","3.0.4",60.0139738467059,NA,NA,NA,NA,NA,NA,NA,NA,NA,NA,NA,NA,NA,NA,NA,NA,NA
"237","refused","&&&&&","right","authority.vice","infet","","",NA,NA,NA,NA,NA,NA,NA,NA,NA,NA,NA,NA,0,23,23,56,NA,NA,NA,NA,"",NA,"",NA,"",NA,"",NA,"AMP","left",0.800479028373957,0,"",NA,"",NA,NA,NA,NA,"",NA,"",NA,"",NA,"left",0,0.800479028373957,NA,NA,NA,NA,NA,NA,"",NA,"",NA,1006,"2019_Mar_06_0951","mf_amp_cond2","3.0.4",60.0139738467059,NA,NA,NA,NA,NA,NA,NA,NA,NA,NA,NA,NA,NA,NA,NA,NA,NA
"238","safety","&&&&&&&&&","left","care.virtue","gaultless","","",NA,NA,NA,NA,NA,NA,NA,NA,NA,NA,NA,NA,0,24,24,136,NA,NA,NA,NA,"",NA,"",NA,"",NA,"",NA,"AMP","right",1.11721827415749,0,"",NA,"",NA,NA,NA,NA,"",NA,"",NA,"",NA,"right",0,1.11721827415749,NA,NA,NA,NA,NA,NA,"",NA,"",NA,1006,"2019_Mar_06_0951","mf_amp_cond2","3.0.4",60.0139738467059,NA,NA,NA,NA,NA,NA,NA,NA,NA,NA,NA,NA,NA,NA,NA,NA,NA
"239","values","&&&&&&&&&","left","sanctity.virtue","neputized","","",NA,NA,NA,NA,NA,NA,NA,NA,NA,NA,NA,NA,0,25,25,207,NA,NA,NA,NA,"",NA,"",NA,"",NA,"",NA,"AMP","right",1.10057704069186,0,"",NA,"",NA,NA,NA,NA,"",NA,"",NA,"",NA,"right",0,1.10057704069186,NA,NA,NA,NA,NA,NA,"",NA,"",NA,1006,"2019_Mar_06_0951","mf_amp_cond2","3.0.4",60.0139738467059,NA,NA,NA,NA,NA,NA,NA,NA,NA,NA,NA,NA,NA,NA,NA,NA,NA
"240","peaceful","&&&&&&","left","authority.virtue","squets","","",NA,NA,NA,NA,NA,NA,NA,NA,NA,NA,NA,NA,0,26,26,98,NA,NA,NA,NA,"",NA,"",NA,"",NA,"",NA,"AMP","left",0.650431786314584,1,"",NA,"",NA,NA,NA,NA,"",NA,"",NA,"",NA,"left",1,0.650431786314584,NA,NA,NA,NA,NA,NA,"",NA,"",NA,1006,"2019_Mar_06_0951","mf_amp_cond2","3.0.4",60.0139738467059,NA,NA,NA,NA,NA,NA,NA,NA,NA,NA,NA,NA,NA,NA,NA,NA,NA
"241","violence","&&&&&&&&&&","right","care.vice","lorthwhile","","",NA,NA,NA,NA,NA,NA,NA,NA,NA,NA,NA,NA,0,27,27,210,NA,NA,NA,NA,"",NA,"",NA,"",NA,"",NA,"AMP","right",1.63403141393792,1,"",NA,"",NA,NA,NA,NA,"",NA,"",NA,"",NA,"right",1,1.63403141393792,NA,NA,NA,NA,NA,NA,"",NA,"",NA,1006,"2019_Mar_06_0951","mf_amp_cond2","3.0.4",60.0139738467059,NA,NA,NA,NA,NA,NA,NA,NA,NA,NA,NA,NA,NA,NA,NA,NA,NA
"242","support","&&&&&&&&&&","left","loyalty.virtue","galamitous","","",NA,NA,NA,NA,NA,NA,NA,NA,NA,NA,NA,NA,0,28,28,244,NA,NA,NA,NA,"",NA,"",NA,"",NA,"",NA,"AMP","right",1.90076453401707,0,"",NA,"",NA,NA,NA,NA,"",NA,"",NA,"",NA,"right",0,1.90076453401707,NA,NA,NA,NA,NA,NA,"",NA,"",NA,1006,"2019_Mar_06_0951","mf_amp_cond2","3.0.4",60.0139738467059,NA,NA,NA,NA,NA,NA,NA,NA,NA,NA,NA,NA,NA,NA,NA,NA,NA
"243","ittutable","&&&&&&&&&","None","nonword","gaultless","","",NA,NA,NA,NA,NA,NA,NA,NA,NA,NA,NA,NA,0,29,29,23,NA,NA,NA,NA,"",NA,"",NA,"",NA,"",NA,"AMP","right",1.60071302612778,0,"",NA,"",NA,NA,NA,NA,"",NA,"",NA,"",NA,"right",0,1.60071302612778,NA,NA,NA,NA,NA,NA,"",NA,"",NA,1006,"2019_Mar_06_0951","mf_amp_cond2","3.0.4",60.0139738467059,NA,NA,NA,NA,NA,NA,NA,NA,NA,NA,NA,NA,NA,NA,NA,NA,NA
"244","improve","&&&&&","left","care.virtue","ablow","","",NA,NA,NA,NA,NA,NA,NA,NA,NA,NA,NA,NA,0,30,30,38,NA,NA,NA,NA,"",NA,"",NA,"",NA,"",NA,"AMP","left",1.58400796924252,1,"",NA,"",NA,NA,NA,NA,"",NA,"",NA,"",NA,"left",1,1.58400796924252,NA,NA,NA,NA,NA,NA,"",NA,"",NA,1006,"2019_Mar_06_0951","mf_amp_cond2","3.0.4",60.0139738467059,NA,NA,NA,NA,NA,NA,NA,NA,NA,NA,NA,NA,NA,NA,NA,NA,NA
"245","safety","&&&&&&&&","left","care.virtue","divility","","",NA,NA,NA,NA,NA,NA,NA,NA,NA,NA,NA,NA,0,31,31,227,NA,NA,NA,NA,"",NA,"",NA,"",NA,"",NA,"AMP","right",1.16722215490881,0,"",NA,"",NA,NA,NA,NA,"",NA,"",NA,"",NA,"right",0,1.16722215490881,NA,NA,NA,NA,NA,NA,"",NA,"",NA,1006,"2019_Mar_06_0951","mf_amp_cond2","3.0.4",60.0139738467059,NA,NA,NA,NA,NA,NA,NA,NA,NA,NA,NA,NA,NA,NA,NA,NA,NA
"246","war","&&&&&&","right","sanctity.vice","greaks","","",NA,NA,NA,NA,NA,NA,NA,NA,NA,NA,NA,NA,0,32,32,43,NA,NA,NA,NA,"",NA,"",NA,"",NA,"",NA,"AMP","right",0.7171189149376,1,"",NA,"",NA,NA,NA,NA,"",NA,"",NA,"",NA,"right",1,0.7171189149376,NA,NA,NA,NA,NA,NA,"",NA,"",NA,1006,"2019_Mar_06_0951","mf_amp_cond2","3.0.4",60.0139738467059,NA,NA,NA,NA,NA,NA,NA,NA,NA,NA,NA,NA,NA,NA,NA,NA,NA
"247","restore","&&&&&","left","care.virtue","ablow","","",NA,NA,NA,NA,NA,NA,NA,NA,NA,NA,NA,NA,0,33,33,146,NA,NA,NA,NA,"",NA,"",NA,"",NA,"",NA,"AMP","right",1.18394998286385,0,"",NA,"",NA,NA,NA,NA,"",NA,"",NA,"",NA,"right",0,1.18394998286385,NA,NA,NA,NA,NA,NA,"",NA,"",NA,1006,"2019_Mar_06_0951","mf_amp_cond2","3.0.4",60.0139738467059,NA,NA,NA,NA,NA,NA,NA,NA,NA,NA,NA,NA,NA,NA,NA,NA,NA
"248","forced","&&&&&&&&&&&&&","right","fairness.vice","photocalkodes","","",NA,NA,NA,NA,NA,NA,NA,NA,NA,NA,NA,NA,0,34,34,140,NA,NA,NA,NA,"",NA,"",NA,"",NA,"",NA,"AMP","left",0.63377676170785,0,"",NA,"",NA,NA,NA,NA,"",NA,"",NA,"",NA,"left",0,0.63377676170785,NA,NA,NA,NA,NA,NA,"",NA,"",NA,1006,"2019_Mar_06_0951","mf_amp_cond2","3.0.4",60.0139738467059,NA,NA,NA,NA,NA,NA,NA,NA,NA,NA,NA,NA,NA,NA,NA,NA,NA
"249","clean","&&&&&&&&&","left","sanctity.virtue","gandbrake","","",NA,NA,NA,NA,NA,NA,NA,NA,NA,NA,NA,NA,0,35,35,116,NA,NA,NA,NA,"",NA,"",NA,"",NA,"",NA,"AMP","left",1.58398904674686,1,"",NA,"",NA,NA,NA,NA,"",NA,"",NA,"",NA,"left",1,1.58398904674686,NA,NA,NA,NA,NA,NA,"",NA,"",NA,1006,"2019_Mar_06_0951","mf_amp_cond2","3.0.4",60.0139738467059,NA,NA,NA,NA,NA,NA,NA,NA,NA,NA,NA,NA,NA,NA,NA,NA,NA
"250","troops","&&&&&&","right","loyalty.vice","chared","","",NA,NA,NA,NA,NA,NA,NA,NA,NA,NA,NA,NA,0,36,36,293,NA,NA,NA,NA,"",NA,"",NA,"",NA,"",NA,"AMP","left",1.25057777832262,0,"",NA,"",NA,NA,NA,NA,"",NA,"",NA,"",NA,"left",0,1.25057777832262,NA,NA,NA,NA,NA,NA,"",NA,"",NA,1006,"2019_Mar_06_0951","mf_amp_cond2","3.0.4",60.0139738467059,NA,NA,NA,NA,NA,NA,NA,NA,NA,NA,NA,NA,NA,NA,NA,NA,NA
"251","fighters","&&&&&","right","authority.vice","tabin","","",NA,NA,NA,NA,NA,NA,NA,NA,NA,NA,NA,NA,0,37,37,304,NA,NA,NA,NA,"",NA,"",NA,"",NA,"",NA,"AMP","right",1.18390219553839,1,"",NA,"",NA,NA,NA,NA,"",NA,"",NA,"",NA,"right",1,1.18390219553839,NA,NA,NA,NA,NA,NA,"",NA,"",NA,1006,"2019_Mar_06_0951","mf_amp_cond2","3.0.4",60.0139738467059,NA,NA,NA,NA,NA,NA,NA,NA,NA,NA,NA,NA,NA,NA,NA,NA,NA
"252","ensure","&&&&&&&&&","left","fairness.virtue","taxpayung","","",NA,NA,NA,NA,NA,NA,NA,NA,NA,NA,NA,NA,0,38,38,126,NA,NA,NA,NA,"",NA,"",NA,"",NA,"",NA,"AMP","right",0.716959516634233,0,"",NA,"",NA,NA,NA,NA,"",NA,"",NA,"",NA,"right",0,0.716959516634233,NA,NA,NA,NA,NA,NA,"",NA,"",NA,1006,"2019_Mar_06_0951","mf_amp_cond2","3.0.4",60.0139738467059,NA,NA,NA,NA,NA,NA,NA,NA,NA,NA,NA,NA,NA,NA,NA,NA,NA
"253","strofe","&&&&&&&&&&&&","None","nonword","quarterbocks","","",NA,NA,NA,NA,NA,NA,NA,NA,NA,NA,NA,NA,0,39,39,80,NA,NA,NA,NA,"",NA,"",NA,"",NA,"",NA,"AMP","left",2.2175066662021,0,"",NA,"",NA,NA,NA,NA,"",NA,"",NA,"",NA,"left",0,2.2175066662021,NA,NA,NA,NA,NA,NA,"",NA,"",NA,1006,"2019_Mar_06_0951","mf_amp_cond2","3.0.4",60.0139738467059,NA,NA,NA,NA,NA,NA,NA,NA,NA,NA,NA,NA,NA,NA,NA,NA,NA
"254","fornicalion","&&&&&&&&&","None","nonword","taxpayung","","",NA,NA,NA,NA,NA,NA,NA,NA,NA,NA,NA,NA,0,40,40,17,NA,NA,NA,NA,"",NA,"",NA,"",NA,"",NA,"AMP","right",0.567071672645397,0,"",NA,"",NA,NA,NA,NA,"",NA,"",NA,"",NA,"right",0,0.567071672645397,NA,NA,NA,NA,NA,NA,"",NA,"",NA,1006,"2019_Mar_06_0951","mf_amp_cond2","3.0.4",60.0139738467059,NA,NA,NA,NA,NA,NA,NA,NA,NA,NA,NA,NA,NA,NA,NA,NA,NA
"255","interests","&&&&&&&","left","fairness.virtue","chadows","","",NA,NA,NA,NA,NA,NA,NA,NA,NA,NA,NA,NA,0,41,41,248,NA,NA,NA,NA,"",NA,"",NA,"",NA,"",NA,"AMP","right",2.46754659595899,0,"",NA,"",NA,NA,NA,NA,"",NA,"",NA,"",NA,"right",0,2.46754659595899,NA,NA,NA,NA,NA,NA,"",NA,"",NA,1006,"2019_Mar_06_0951","mf_amp_cond2","3.0.4",60.0139738467059,NA,NA,NA,NA,NA,NA,NA,NA,NA,NA,NA,NA,NA,NA,NA,NA,NA
"256","racist","&&&&","right","sanctity.vice","wump","","",NA,NA,NA,NA,NA,NA,NA,NA,NA,NA,NA,NA,0,42,42,232,NA,NA,NA,NA,"",NA,"",NA,"",NA,"",NA,"AMP","left",1.36727937147953,0,"",NA,"",NA,NA,NA,NA,"",NA,"",NA,"",NA,"left",0,1.36727937147953,NA,NA,NA,NA,NA,NA,"",NA,"",NA,1006,"2019_Mar_06_0951","mf_amp_cond2","3.0.4",60.0139738467059,NA,NA,NA,NA,NA,NA,NA,NA,NA,NA,NA,NA,NA,NA,NA,NA,NA
