words,mask,masks,symbols,conditionfile,corr_ans,category,LDT_trials_cond2.thisRepN,LDT_trials_cond2.thisTrialN,LDT_trials_cond2.thisN,LDT_trials_cond2.thisIndex,LDT_pracs_1.thisRepN,LDT_pracs_1.thisTrialN,LDT_pracs_1.thisN,LDT_pracs_1.thisIndex,LDT_trials_1.thisRepN,LDT_trials_1.thisTrialN,LDT_trials_1.thisN,LDT_trials_1.thisIndex,logo_trials.thisRepN,logo_trials.thisTrialN,logo_trials.thisN,logo_trials.thisIndex,AMP_pracs.thisRepN,AMP_pracs.thisTrialN,AMP_pracs.thisN,AMP_pracs.thisIndex,trials_loop.thisRepN,trials_loop.thisTrialN,trials_loop.thisN,trials_loop.thisIndex,AMP_trials.thisRepN,AMP_trials.thisTrialN,AMP_trials.thisN,AMP_trials.thisIndex,memtask_trials.thisRepN,memtask_trials.thisTrialN,memtask_trials.thisN,memtask_trials.thisIndex,LDT_cond1.thisRepN,LDT_cond1.thisTrialN,LDT_cond1.thisN,LDT_cond1.thisIndex,begin_key.keys,begin_key.rt,key_resp_instr.keys,key_resp_instr.rt,exp_time,key_resp_LDT_instr.keys,key_resp_LDT_instr.rt,resp_LDT_prac.keys,resp_LDT_prac.rt,task,keypress,RT,corr,resp_LDT_ready.keys,resp_LDT_ready.rt,resp_LDT_trial.keys,resp_LDT_trial.rt,LDT_rating.response,LDT_rating.rt,resp_sym_rate.keys,resp_sym_rate.rt,sym_resp_1.keys,sym_resp_1.rt,sym_resp_2.keys,sym_resp_2.rt,sym_resp_trial.keys,sym_resp_trial.rt,symbol_index,resp_AMP_ready1.keys,resp_AMP_ready1.rt,resp_AMP.keys,resp_AMP.rt,prime_dur,resp_AMP_ready.keys,resp_AMP_ready.rt,resp_AMP_trials.keys,resp_AMP_trials.rt,rest_key_resp.keys,rest_key_resp.rt,AMP_nonword_rating.response,AMP_nonword_rating.rt,AMP_word_rating.response,AMP_word_rating.rt,AMP_random_rating.response,AMP_random_rating.rt,key_resp_instr_memtask.keys,key_resp_instr_memtask.rt,resp_memtask.keys,resp_memtask.corr,resp_memtask.rt,participant ID,date,expName,psychopyVersion,frameRate,
,,,,,,,,,,,,,,,,,,,,,,,,,,,,,,,,,,,,,,,,,,,right,194.66494407593564,,,,,,,,,,,,,,,,,,,,,,,,,,,,,,,,,,,,,,,,,,,,,,,,,1001,2019_Apr_29_1653,mf_amp_cond1,3.0.7,59.98637887861687,
,,,,,,,,,,,,,,,,,,,,,,,,,,,,,,,,,,,,,,,,,,,,,right,4.451338976730767,,,,,,,,,,,,,,,,,,,,,,,,,,,,,,,,,,,,,,,,,,,,,,,1001,2019_Apr_29_1653,mf_amp_cond1,3.0.7,59.98637887861687,
keyboard,&&&&&&&,,,,,,0,0,0,0,0,0,0,0,,,,,,,,,,,,,,,,,,,,,,,,,,,,,,,,,302.53256661849446,right,2.8676366542676988,left,4.9014566491496225,LDT_prac,left,4.9014566491496225,0,,,,,,,,,,,,,,,,,,,,,,,,,,,,,,,,,,,,,,1001,2019_Apr_29_1653,mf_amp_cond1,3.0.7,59.98637887861687,
bisebell,&&&&&&&,,,,,,0,0,0,0,0,1,1,1,,,,,,,,,,,,,,,,,,,,,,,,,,,,,,,,,306.7668614082577,,,left,2.3841576175327646,LDT_prac,left,2.3841576175327646,0,,,,,,,,,,,,,,,,,,,,,,,,,,,,,,,,,,,,,,1001,2019_Apr_29_1653,mf_amp_cond1,3.0.7,59.98637887861687,
,,,,,,,0,0,0,0,,,,,0,0,0,0,,,,,,,,,,,,,,,,,,,,,,,,,,,,,327.48880364133583,,,,,LDT_prac,left,2.3841576175327646,0,right,1.2504449999323697,left,1.467268851800327,,,,,,,,,,,,,,,,,,,,,,,,,,,,,,,,,,1001,2019_Apr_29_1653,mf_amp_cond1,3.0.7,59.98637887861687,
,,,,,,,0,0,0,0,,,,,,,,,,,,,,,,,,,,,,,,,,,,,,,,,,,,,,,,,,,,,,,,,,1,29.959,,,,,,,,,,,,,,,,,,,,,,,,,,,,,,,,1001,2019_Apr_29_1653,mf_amp_cond1,3.0.7,59.98637887861687,
,,,,,,,,,,,,,,,,,,,,,,,,,,,,,,,,,,,,,,,,,,,,,,,,,,,,,,,,,,,,,,right,3.6511803482899268,,,,,,,,,,,,,,,,,,,,,,,,,,,,,,1001,2019_Apr_29_1653,mf_amp_cond1,3.0.7,59.98637887861687,
,,,,,,,,,,,,,,,,,,,,,,,,,,,,,,,,,,,,,,,,,,,,,,,433.1482736568396,,,,,,,,,,,,,,,,,left,8.902435809362942,,,,,,,,,,,,,,,,,,,,,,,,,,,,1001,2019_Apr_29_1653,mf_amp_cond1,3.0.7,59.98637887861687,
,,,,,,,,,,,,,,,,,,,,,,,,,,,,,,,,,,,,,,,,,,,,,,,,,,,,,,,,,,,,,,,,,,right,1.1670390233703074,,,,,,,,,,,,,,,,,,,,,,,,,,1001,2019_Apr_29_1653,mf_amp_cond1,3.0.7,59.98637887861687,
,,,,,,,,,,,,,,,,,,,,,,,,,,,,,,,,,,,,,,,,,,,,,,,459.25458646597326,,,,,,,,,,,,,,,,,,,,,left,0.7504187008380541,63,right,1.5506280031477218,,,,,,,,,,,,,,,,,,,,,1001,2019_Apr_29_1653,mf_amp_cond1,3.0.7,59.98637887861687,
keyboard,,&&&&&&&&,images/symbols/symbol_40.png,,,,,,,,,,,,,,,,,,,,0,0,0,2,,,,,,,,,,,,,,,,,,,,,645.6183173838945,,,,,AMP_prac,left,3.451087211007689,,,,,,,,,,,,,,,,,,,left,3.451087211007689,1,,,,,,,,,,,,,,,,,,1001,2019_Apr_29_1653,mf_amp_cond1,3.0.7,59.98637887861687,
scarf,,&&&&&,images/symbols/symbol_54.png,,,,,,,,,,,,,,,,,,,,0,1,1,3,,,,,,,,,,,,,,,,,,,,,649.6192118738509,,,,,AMP_prac,left,3.767870716215839,,,,,,,,,,,,,,,,,,,left,3.767870716215839,1,,,,,,,,,,,,,,,,,,1001,2019_Apr_29_1653,mf_amp_cond1,3.0.7,59.98637887861687,
banana,,&&&&&&,images/symbols/symbol_68.png,,,,,,,,,,,,,,,,,,,,0,2,2,1,,,,,,,,,,,,,,,,,,,,,650.7527869022815,,,,,AMP_prac,left,0.9004492655149079,,,,,,,,,,,,,,,,,,,left,0.9004492655149079,1,,,,,,,,,,,,,,,,,,1001,2019_Apr_29_1653,mf_amp_cond1,3.0.7,59.98637887861687,
car,,&&&,images/symbols/symbol_9.png,,,,,,,,,,,,,,,,,,,,0,3,3,0,,,,,,,,,,,,,,,,,,,,,651.7030386359365,,,,,AMP_prac,right,0.7170762590394588,,,,,,,,,,,,,,,,,,,right,0.7170762590394588,1,,,,,,,,,,,,,,,,,,1001,2019_Apr_29_1653,mf_amp_cond1,3.0.7,59.98637887861687,
,,,,,,,,,,,,,,,,,,,,,,,,,,,,,,,,,,,,,,,,,,,,,,,,,,,,,,,,,,,,,,,,,,,,,,,,,,,,right,1.0338052417282597,,,,,,,,,,,,,,,,1001,2019_Apr_29_1653,mf_amp_cond1,3.0.7,59.98637887861687,
conspiracy,,&&&&&&&&&&,images/symbols/symbol_69.png,condition_files/AMP_rep3.csv,right,sanctity.vice,,,,,,,,,,,,,,,,,,,,,0,0,0,2,0,0,0,0,,,,,,,,,,,,,674.1921296429937,,,,,AMP_prac,right,0.7170762590394588,,,,,,,,,,,,,,,,,,,,,1,,,left,1.1838601811832632,,,,,,,,,,,,,,1001,2019_Apr_29_1653,mf_amp_cond1,3.0.7,59.98637887861687,
shypse,,&&&&&&,images/symbols/symbol_9.png,condition_files/AMP_rep3.csv,None,nonword,,,,,,,,,,,,,,,,,,,,,0,0,0,2,0,1,1,1,,,,,,,,,,,,,675.7256924198955,,,,,AMP_prac,right,0.7170762590394588,,,,,,,,,,,,,,,,,,,,,1,,,left,1.3005476626167365,,,,,,,,,,,,,,1001,2019_Apr_29_1653,mf_amp_cond1,3.0.7,59.98637887861687,
loyalty,,&&&&&&&,images/symbols/symbol_12.png,condition_files/AMP_rep3.csv,left,loyalty.virtue,,,,,,,,,,,,,,,,,,,,,0,0,0,2,0,2,2,2,,,,,,,,,,,,,676.6259274440054,,,,,AMP_prac,right,0.7170762590394588,,,,,,,,,,,,,,,,,,,,,1,,,right,0.6670704539938015,,,,,,,,,,,,,,1001,2019_Apr_29_1653,mf_amp_cond1,3.0.7,59.98637887861687,
embrace,,&&&&&&&,images/symbols/symbol_21.png,condition_files/AMP_rep3.csv,left,authority.virtue,,,,,,,,,,,,,,,,,,,,,0,0,0,2,0,3,3,3,,,,,,,,,,,,,677.5928274670332,,,,,AMP_prac,right,0.7170762590394588,,,,,,,,,,,,,,,,,,,,,1,,,right,0.749629407262546,,,,,,,,,,,,,,1001,2019_Apr_29_1653,mf_amp_cond1,3.0.7,59.98637887861687,
sneaze,,&&&&&&,images/symbols/symbol_22.png,condition_files/AMP_rep3.csv,None,nonword,,,,,,,,,,,,,,,,,,,,,0,0,0,2,0,4,4,4,,,,,,,,,,,,,679.1432200612071,,,,,AMP_prac,right,0.7170762590394588,,,,,,,,,,,,,,,,,,,,,1,,,right,1.3323753406839387,,,,,,,,,,,,,,1001,2019_Apr_29_1653,mf_amp_cond1,3.0.7,59.98637887861687,
growth,,&&&&&&,images/symbols/symbol_5.png,condition_files/AMP_rep3.csv,left,care.virtue,,,,,,,,,,,,,,,,,,,,,0,0,0,2,0,5,5,5,,,,,,,,,,,,,680.1267988420695,,,,,AMP_prac,right,0.7170762590394588,,,,,,,,,,,,,,,,,,,,,1,,,left,0.7659345255160588,,,,,,,,,,,,,,1001,2019_Apr_29_1653,mf_amp_cond1,3.0.7,59.98637887861687,
civilians,,&&&&&&&&&,images/symbols/symbol_28.png,condition_files/AMP_rep3.csv,right,care.vice,,,,,,,,,,,,,,,,,,,,,0,0,0,2,0,6,6,6,,,,,,,,,,,,,681.1103756986086,,,,,AMP_prac,right,0.7170762590394588,,,,,,,,,,,,,,,,,,,,,1,,,left,0.7662594155590341,,,,,,,,,,,,,,1001,2019_Apr_29_1653,mf_amp_cond1,3.0.7,59.98637887861687,
coacs,,&&&&&,images/symbols/symbol_19.png,condition_files/AMP_rep3.csv,None,nonword,,,,,,,,,,,,,,,,,,,,,0,0,0,2,0,7,7,7,,,,,,,,,,,,,682.060637374605,,,,,AMP_prac,right,0.7170762590394588,,,,,,,,,,,,,,,,,,,,,1,,,right,0.7327453881989641,,,,,,,,,,,,,,1001,2019_Apr_29_1653,mf_amp_cond1,3.0.7,59.98637887861687,
violations,,&&&&&&&&&&,images/symbols/symbol_66.png,condition_files/AMP_rep3.csv,right,sanctity.vice,,,,,,,,,,,,,,,,,,,,,0,0,0,2,0,8,8,8,,,,,,,,,,,,,682.8441364884566,,,,,AMP_prac,right,0.7170762590394588,,,,,,,,,,,,,,,,,,,,,1,,,left,0.5503595599438995,,,,,,,,,,,,,,1001,2019_Apr_29_1653,mf_amp_cond1,3.0.7,59.98637887861687,
ban,,&&&,images/symbols/symbol_58.png,condition_files/AMP_rep3.csv,right,loyalty.vice,,,,,,,,,,,,,,,,,,,,,0,0,0,2,0,9,9,9,,,,,,,,,,,,,683.6443368105865,,,,,AMP_prac,right,0.7170762590394588,,,,,,,,,,,,,,,,,,,,,1,,,left,0.5827388775687723,,,,,,,,,,,,,,1001,2019_Apr_29_1653,mf_amp_cond1,3.0.7,59.98637887861687,
failure,,&&&&&&&,images/symbols/symbol_38.png,condition_files/AMP_rep3.csv,right,loyalty.vice,,,,,,,,,,,,,,,,,,,,,0,0,0,2,0,10,10,10,,,,,,,,,,,,,684.4278641478559,,,,,AMP_prac,right,0.7170762590394588,,,,,,,,,,,,,,,,,,,,,1,,,right,0.5660498566685419,,,,,,,,,,,,,,1001,2019_Apr_29_1653,mf_amp_cond1,3.0.7,59.98637887861687,
win,,&&&,images/symbols/symbol_51.png,condition_files/AMP_rep3.csv,left,fairness.virtue,,,,,,,,,,,,,,,,,,,,,0,0,0,2,0,11,11,11,,,,,,,,,,,,,685.4114483809717,,,,,AMP_prac,right,0.7170762590394588,,,,,,,,,,,,,,,,,,,,,1,,,left,0.7666381866692973,,,,,,,,,,,,,,1001,2019_Apr_29_1653,mf_amp_cond1,3.0.7,59.98637887861687,
lies,,&&&&,images/symbols/symbol_43.png,condition_files/AMP_rep3.csv,right,fairness.vice,,,,,,,,,,,,,,,,,,,,,0,0,0,2,0,12,12,12,,,,,,,,,,,,,686.695097912816,,,,,AMP_prac,right,0.7170762590394588,,,,,,,,,,,,,,,,,,,,,1,,,left,1.0504827166842006,,,,,,,,,,,,,,1001,2019_Apr_29_1653,mf_amp_cond1,3.0.7,59.98637887861687,
betrayal,,&&&&&&&&,images/symbols/symbol_32.png,condition_files/AMP_rep3.csv,right,loyalty.vice,,,,,,,,,,,,,,,,,,,,,0,0,0,2,0,13,13,13,,,,,,,,,,,,,687.4953235718785,,,,,AMP_prac,right,0.7170762590394588,,,,,,,,,,,,,,,,,,,,,1,,,left,0.5826904487475986,,,,,,,,,,,,,,1001,2019_Apr_29_1653,mf_amp_cond1,3.0.7,59.98637887861687,
trust,,&&&&&,images/symbols/symbol_1.png,condition_files/AMP_rep3.csv,left,authority.virtue,,,,,,,,,,,,,,,,,,,,,0,0,0,2,0,14,14,14,,,,,,,,,,,,,688.3621981938304,,,,,AMP_prac,right,0.7170762590394588,,,,,,,,,,,,,,,,,,,,,1,,,right,0.6492390260609682,,,,,,,,,,,,,,1001,2019_Apr_29_1653,mf_amp_cond1,3.0.7,59.98637887861687,
fear,,&&&&,images/symbols/symbol_60.png,condition_files/AMP_rep3.csv,right,sanctity.vice,,,,,,,,,,,,,,,,,,,,,0,0,0,2,0,15,15,15,,,,,,,,,,,,,689.1290422831735,,,,,AMP_prac,right,0.7170762590394588,,,,,,,,,,,,,,,,,,,,,1,,,right,0.5493027853299282,,,,,,,,,,,,,,1001,2019_Apr_29_1653,mf_amp_cond1,3.0.7,59.98637887861687,
army,,&&&&,images/symbols/symbol_59.png,condition_files/AMP_rep3.csv,right,loyalty.vice,,,,,,,,,,,,,,,,,,,,,0,0,0,2,0,16,16,16,,,,,,,,,,,,,689.8125471058484,,,,,AMP_prac,right,0.7170762590394588,,,,,,,,,,,,,,,,,,,,,1,,,right,0.46613799071201356,,,,,,,,,,,,,,1001,2019_Apr_29_1653,mf_amp_cond1,3.0.7,59.98637887861687,
torture,,&&&&&&&,images/symbols/symbol_33.png,condition_files/AMP_rep3.csv,right,care.vice,,,,,,,,,,,,,,,,,,,,,0,0,0,2,0,17,17,17,,,,,,,,,,,,,690.5127431944675,,,,,AMP_prac,right,0.7170762590394588,,,,,,,,,,,,,,,,,,,,,1,,,right,0.4828683845735213,,,,,,,,,,,,,,1001,2019_Apr_29_1653,mf_amp_cond1,3.0.7,59.98637887861687,
perfect,,&&&&&&&,images/symbols/symbol_26.png,condition_files/AMP_rep3.csv,left,sanctity.virtue,,,,,,,,,,,,,,,,,,,,,0,0,0,2,0,18,18,18,,,,,,,,,,,,,691.3129537796594,,,,,AMP_prac,right,0.7170762590394588,,,,,,,,,,,,,,,,,,,,,1,,,left,0.582754913601093,,,,,,,,,,,,,,1001,2019_Apr_29_1653,mf_amp_cond1,3.0.7,59.98637887861687,
good,,&&&&,images/symbols/symbol_6.png,condition_files/AMP_rep3.csv,left,care.virtue,,,,,,,,,,,,,,,,,,,,,0,0,0,2,0,19,19,19,,,,,,,,,,,,,692.0631194318885,,,,,AMP_prac,right,0.7170762590394588,,,,,,,,,,,,,,,,,,,,,1,,,right,0.5170353992216405,,,,,,,,,,,,,,1001,2019_Apr_29_1653,mf_amp_cond1,3.0.7,59.98637887861687,
health,,&&&&&&,images/symbols/symbol_48.png,condition_files/AMP_rep3.csv,left,care.virtue,,,,,,,,,,,,,,,,,,,,,0,0,0,2,0,20,20,20,,,,,,,,,,,,,692.9466680008663,,,,,AMP_prac,right,0.7170762590394588,,,,,,,,,,,,,,,,,,,,,1,,,right,0.6658962956134928,,,,,,,,,,,,,,1001,2019_Apr_29_1653,mf_amp_cond1,3.0.7,59.98637887861687,
shot,,&&&&,images/symbols/symbol_11.png,condition_files/AMP_rep3.csv,right,care.vice,,,,,,,,,,,,,,,,,,,,,0,0,0,2,0,21,21,21,,,,,,,,,,,,,693.6635543932643,,,,,AMP_prac,right,0.7170762590394588,,,,,,,,,,,,,,,,,,,,,1,,,right,0.4995875532149512,,,,,,,,,,,,,,1001,2019_Apr_29_1653,mf_amp_cond1,3.0.7,59.98637887861687,
safe,,&&&&,images/symbols/symbol_29.png,condition_files/AMP_rep3.csv,left,care.virtue,,,,,,,,,,,,,,,,,,,,,0,0,0,2,0,22,22,22,,,,,,,,,,,,,695.0638695975395,,,,,AMP_prac,right,0.7170762590394588,,,,,,,,,,,,,,,,,,,,,1,,,left,1.1826581201021327,,,,,,,,,,,,,,1001,2019_Apr_29_1653,mf_amp_cond1,3.0.7,59.98637887861687,
skypped,,&&&&&&&,images/symbols/symbol_15.png,condition_files/AMP_rep3.csv,None,nonword,,,,,,,,,,,,,,,,,,,,,0,0,0,2,0,23,23,23,,,,,,,,,,,,,695.9307461438148,,,,,AMP_prac,right,0.7170762590394588,,,,,,,,,,,,,,,,,,,,,1,,,left,0.6494381935954152,,,,,,,,,,,,,,1001,2019_Apr_29_1653,mf_amp_cond1,3.0.7,59.98637887861687,
illegal,,&&&&&&&,images/symbols/symbol_10.png,condition_files/AMP_rep3.csv,right,fairness.vice,,,,,,,,,,,,,,,,,,,,,0,0,0,2,0,24,24,24,,,,,,,,,,,,,697.0643676767431,,,,,AMP_prac,right,0.7170762590394588,,,,,,,,,,,,,,,,,,,,,1,,,left,0.9162938288864098,,,,,,,,,,,,,,1001,2019_Apr_29_1653,mf_amp_cond1,3.0.7,59.98637887861687,
energy,,&&&&&&,images/symbols/symbol_80.png,condition_files/AMP_rep3.csv,left,sanctity.virtue,,,,,,,,,,,,,,,,,,,,,0,0,0,2,0,25,25,25,,,,,,,,,,,,,697.9645840990524,,,,,AMP_prac,right,0.7170762590394588,,,,,,,,,,,,,,,,,,,,,1,,,left,0.6831440119203762,,,,,,,,,,,,,,1001,2019_Apr_29_1653,mf_amp_cond1,3.0.7,59.98637887861687,
respect,,&&&&&&&,images/symbols/symbol_44.png,condition_files/AMP_rep3.csv,left,sanctity.virtue,,,,,,,,,,,,,,,,,,,,,0,0,0,2,0,26,26,26,,,,,,,,,,,,,698.8648306691066,,,,,AMP_prac,right,0.7170762590394588,,,,,,,,,,,,,,,,,,,,,1,,,right,0.6827710137804388,,,,,,,,,,,,,,1001,2019_Apr_29_1653,mf_amp_cond1,3.0.7,59.98637887861687,
accused,,&&&&&&&,images/symbols/symbol_71.png,condition_files/AMP_rep3.csv,right,fairness.vice,,,,,,,,,,,,,,,,,,,,,0,0,0,2,0,27,27,27,,,,,,,,,,,,,699.8484062427633,,,,,AMP_prac,right,0.7170762590394588,,,,,,,,,,,,,,,,,,,,,1,,,left,0.7504193422792014,,,,,,,,,,,,,,1001,2019_Apr_29_1653,mf_amp_cond1,3.0.7,59.98637887861687,
increase,,&&&&&&&&,images/symbols/symbol_78.png,condition_files/AMP_rep3.csv,left,care.virtue,,,,,,,,,,,,,,,,,,,,,0,0,0,2,0,28,28,28,,,,,,,,,,,,,700.9820075702919,,,,,AMP_prac,right,0.7170762590394588,,,,,,,,,,,,,,,,,,,,,1,,,left,0.9160125568560034,,,,,,,,,,,,,,1001,2019_Apr_29_1653,mf_amp_cond1,3.0.7,59.98637887861687,
police,,&&&&&&,images/symbols/symbol_24.png,condition_files/AMP_rep3.csv,right,authority.vice,,,,,,,,,,,,,,,,,,,,,0,0,0,2,0,29,29,29,,,,,,,,,,,,,701.8655590257549,,,,,AMP_prac,right,0.7170762590394588,,,,,,,,,,,,,,,,,,,,,1,,,right,0.6503862439058139,,,,,,,,,,,,,,1001,2019_Apr_29_1653,mf_amp_cond1,3.0.7,59.98637887861687,
threatened,,&&&&&&&&&&,images/symbols/symbol_31.png,condition_files/AMP_rep3.csv,right,fairness.vice,,,,,,,,,,,,,,,,,,,,,0,0,0,2,0,30,30,30,,,,,,,,,,,,,702.6156249338528,,,,,AMP_prac,right,0.7170762590394588,,,,,,,,,,,,,,,,,,,,,1,,,left,0.5335133859189227,,,,,,,,,,,,,,1001,2019_Apr_29_1653,mf_amp_cond1,3.0.7,59.98637887861687,
killed,,&&&&&&,images/symbols/symbol_77.png,condition_files/AMP_rep3.csv,right,care.vice,,,,,,,,,,,,,,,,,,,,,0,0,0,2,0,31,31,31,,,,,,,,,,,,,703.3492619255157,,,,,AMP_prac,right,0.7170762590394588,,,,,,,,,,,,,,,,,,,,,1,,,right,0.5161774714251806,,,,,,,,,,,,,,1001,2019_Apr_29_1653,mf_amp_cond1,3.0.7,59.98637887861687,
charges,,&&&&&&&,images/symbols/symbol_42.png,condition_files/AMP_rep3.csv,right,fairness.vice,,,,,,,,,,,,,,,,,,,,,0,0,0,2,0,32,32,32,,,,,,,,,,,,,704.0494381294557,,,,,AMP_prac,right,0.7170762590394588,,,,,,,,,,,,,,,,,,,,,1,,,left,0.48271251432743156,,,,,,,,,,,,,,1001,2019_Apr_29_1653,mf_amp_cond1,3.0.7,59.98637887861687,
unpleasant,,&&&&&&&&&,images/symbols/symbol_72.png,condition_files/AMP_rep3.csv,left,control,,,,,,,,,,,,,,,,,,,,,0,0,0,2,0,33,33,33,,,,,,,,,,,,,704.9830146332024,,,,,AMP_prac,right,0.7170762590394588,,,,,,,,,,,,,,,,,,,,,1,,,right,0.7003602976037655,,,,,,,,,,,,,,1001,2019_Apr_29_1653,mf_amp_cond1,3.0.7,59.98637887861687,
free,,&&&&,images/symbols/symbol_70.png,condition_files/AMP_rep3.csv,left,fairness.virtue,,,,,,,,,,,,,,,,,,,,,0,0,0,2,0,34,34,34,,,,,,,,,,,,,705.7498619297512,,,,,AMP_prac,right,0.7170762590394588,,,,,,,,,,,,,,,,,,,,,1,,,right,0.5492187565141649,,,,,,,,,,,,,,1001,2019_Apr_29_1653,mf_amp_cond1,3.0.7,59.98637887861687,
faith,,&&&&&,images/symbols/symbol_7.png,condition_files/AMP_rep3.csv,left,sanctity.virtue,,,,,,,,,,,,,,,,,,,,,0,0,0,2,0,35,35,35,,,,,,,,,,,,,706.5500661005317,,,,,AMP_prac,right,0.7170762590394588,,,,,,,,,,,,,,,,,,,,,1,,,right,0.5828639586288773,,,,,,,,,,,,,,1001,2019_Apr_29_1653,mf_amp_cond1,3.0.7,59.98637887861687,
knapps,,&&&&&&,images/symbols/symbol_34.png,condition_files/AMP_rep3.csv,None,nonword,,,,,,,,,,,,,,,,,,,,,0,0,0,2,0,36,36,36,,,,,,,,,,,,,707.2169030698751,,,,,AMP_prac,right,0.7170762590394588,,,,,,,,,,,,,,,,,,,,,1,,,right,0.44924210497993045,,,,,,,,,,,,,,1001,2019_Apr_29_1653,mf_amp_cond1,3.0.7,59.98637887861687,
strength,,&&&&&&&&,images/symbols/symbol_46.png,condition_files/AMP_rep3.csv,left,sanctity.virtue,,,,,,,,,,,,,,,,,,,,,0,0,0,2,0,37,37,37,,,,,,,,,,,,,707.9671062464186,,,,,AMP_prac,right,0.7170762590394588,,,,,,,,,,,,,,,,,,,,,1,,,right,0.5325130581441044,,,,,,,,,,,,,,1001,2019_Apr_29_1653,mf_amp_cond1,3.0.7,59.98637887861687,
benefit,,&&&&&&&,images/symbols/symbol_68.png,condition_files/AMP_rep3.csv,left,fairness.virtue,,,,,,,,,,,,,,,,,,,,,0,0,0,2,0,38,38,38,,,,,,,,,,,,,708.7506120954022,,,,,AMP_prac,right,0.7170762590394588,,,,,,,,,,,,,,,,,,,,,1,,,left,0.5503659743590106,,,,,,,,,,,,,,1001,2019_Apr_29_1653,mf_amp_cond1,3.0.7,59.98637887861687,
promote,,&&&&&&&,images/symbols/symbol_73.png,condition_files/AMP_rep3.csv,left,sanctity.virtue,,,,,,,,,,,,,,,,,,,,,0,0,0,2,0,39,39,39,,,,,,,,,,,,,709.5174828045601,,,,,AMP_prac,right,0.7170762590394588,,,,,,,,,,,,,,,,,,,,,1,,,right,0.5492479420972813,,,,,,,,,,,,,,1001,2019_Apr_29_1653,mf_amp_cond1,3.0.7,59.98637887861687,
commitment,,&&&&&&&&&&,images/symbols/symbol_41.png,condition_files/AMP_rep3.csv,left,sanctity.virtue,,,,,,,,,,,,,,,,,,,,,0,0,0,2,0,40,40,40,,,,,,,,,,,,,710.2009917966061,,,,,AMP_prac,right,0.7170762590394588,,,,,,,,,,,,,,,,,,,,,1,,,left,0.4665869996533729,,,,,,,,,,,,,,1001,2019_Apr_29_1653,mf_amp_cond1,3.0.7,59.98637887861687,
friends,,&&&&&&&,images/symbols/symbol_56.png,condition_files/AMP_rep3.csv,left,loyalty.virtue,,,,,,,,,,,,,,,,,,,,,0,0,0,2,0,41,41,41,,,,,,,,,,,,,711.2012454866599,,,,,AMP_prac,right,0.7170762590394588,,,,,,,,,,,,,,,,,,,,,1,,,right,0.7827620977441256,,,,,,,,,,,,,,1001,2019_Apr_29_1653,mf_amp_cond1,3.0.7,59.98637887861687,
drug,,&&&&,images/symbols/symbol_82.png,condition_files/AMP_rep3.csv,right,sanctity.vice,,,,,,,,,,,,,,,,,,,,,0,0,0,2,0,42,42,42,,,,,,,,,,,,,712.1681512826581,,,,,AMP_prac,right,0.7170762590394588,,,,,,,,,,,,,,,,,,,,,1,,,left,0.7497692414763151,,,,,,,,,,,,,,1001,2019_Apr_29_1653,mf_amp_cond1,3.0.7,59.98637887861687,
honored,,&&&&&&&,images/symbols/symbol_39.png,condition_files/AMP_rep3.csv,left,authority.virtue,,,,,,,,,,,,,,,,,,,,,0,0,0,2,0,43,43,43,,,,,,,,,,,,,713.0350124343422,,,,,AMP_prac,right,0.7170762590394588,,,,,,,,,,,,,,,,,,,,,1,,,right,0.6494118945047376,,,,,,,,,,,,,,1001,2019_Apr_29_1653,mf_amp_cond1,3.0.7,59.98637887861687,
snauz,,&&&&&,images/symbols/symbol_50.png,condition_files/AMP_rep3.csv,None,nonword,,,,,,,,,,,,,,,,,,,,,0,0,0,2,0,44,44,44,,,,,,,,,,,,,713.7185307272848,,,,,AMP_prac,right,0.7170762590394588,,,,,,,,,,,,,,,,,,,,,1,,,left,0.4661723078243085,,,,,,,,,,,,,,1001,2019_Apr_29_1653,mf_amp_cond1,3.0.7,59.98637887861687,
actively,,&&&&&&&&,images/symbols/symbol_17.png,condition_files/AMP_rep3.csv,left,authority.virtue,,,,,,,,,,,,,,,,,,,,,0,0,0,2,0,45,45,45,,,,,,,,,,,,,714.4354091016685,,,,,AMP_prac,right,0.7170762590394588,,,,,,,,,,,,,,,,,,,,,1,,,right,0.4989185298945813,,,,,,,,,,,,,,1001,2019_Apr_29_1653,mf_amp_cond1,3.0.7,59.98637887861687,
ability,,&&&&&&&,images/symbols/symbol_14.png,condition_files/AMP_rep3.csv,left,authority.virtue,,,,,,,,,,,,,,,,,,,,,0,0,0,2,0,46,46,46,,,,,,,,,,,,,716.302506303764,,,,,AMP_prac,right,0.7170762590394588,,,,,,,,,,,,,,,,,,,,,1,,,left,1.6496909214911284,,,,,,,,,,,,,,1001,2019_Apr_29_1653,mf_amp_cond1,3.0.7,59.98637887861687,
credit,,&&&&&&,images/symbols/symbol_76.png,condition_files/AMP_rep3.csv,left,fairness.virtue,,,,,,,,,,,,,,,,,,,,,0,0,0,2,0,47,47,47,,,,,,,,,,,,,717.302781802824,,,,,AMP_prac,right,0.7170762590394588,,,,,,,,,,,,,,,,,,,,,1,,,right,0.7831187391311687,,,,,,,,,,,,,,1001,2019_Apr_29_1653,mf_amp_cond1,3.0.7,59.98637887861687,
attacks,,&&&&&&&,images/symbols/symbol_52.png,condition_files/AMP_rep3.csv,right,care.vice,,,,,,,,,,,,,,,,,,,,,0,0,0,2,0,48,48,48,,,,,,,,,,,,,718.0696156291051,,,,,AMP_prac,right,0.7170762590394588,,,,,,,,,,,,,,,,,,,,,1,,,left,0.533698441748129,,,,,,,,,,,,,,1001,2019_Apr_29_1653,mf_amp_cond1,3.0.7,59.98637887861687,
praised,,&&&&&&&,images/symbols/symbol_37.png,condition_files/AMP_rep3.csv,left,loyalty.virtue,,,,,,,,,,,,,,,,,,,,,0,0,0,2,0,49,49,49,,,,,,,,,,,,,718.8531426456502,,,,,AMP_prac,right,0.7170762590394588,,,,,,,,,,,,,,,,,,,,,1,,,left,0.5503598806681111,,,,,,,,,,,,,,1001,2019_Apr_29_1653,mf_amp_cond1,3.0.7,59.98637887861687,
refused,,&&&&&&&,images/symbols/symbol_18.png,condition_files/AMP_rep3.csv,right,authority.vice,,,,,,,,,,,,,,,,,,,,,0,0,0,2,0,50,50,50,,,,,,,,,,,,,719.6533375155304,,,,,AMP_prac,right,0.7170762590394588,,,,,,,,,,,,,,,,,,,,,1,,,right,0.5827703081959044,,,,,,,,,,,,,,1001,2019_Apr_29_1653,mf_amp_cond1,3.0.7,59.98637887861687,
great,,&&&&&,images/symbols/symbol_65.png,condition_files/AMP_rep3.csv,left,loyalty.virtue,,,,,,,,,,,,,,,,,,,,,0,0,0,2,0,51,51,51,,,,,,,,,,,,,720.4368645320792,,,,,AMP_prac,right,0.7170762590394588,,,,,,,,,,,,,,,,,,,,,1,,,left,0.5660428008159215,,,,,,,,,,,,,,1001,2019_Apr_29_1653,mf_amp_cond1,3.0.7,59.98637887861687,
support,,&&&&&&&,images/symbols/symbol_74.png,condition_files/AMP_rep3.csv,left,loyalty.virtue,,,,,,,,,,,,,,,,,,,,,0,0,0,2,0,52,52,52,,,,,,,,,,,,,721.2370770415946,,,,,AMP_prac,right,0.7170762590394588,,,,,,,,,,,,,,,,,,,,,1,,,right,0.567046656520688,,,,,,,,,,,,,,1001,2019_Apr_29_1653,mf_amp_cond1,3.0.7,59.98637887861687,
agreement,,&&&&&&&&&,images/symbols/symbol_25.png,condition_files/AMP_rep3.csv,left,fairness.virtue,,,,,,,,,,,,,,,,,,,,,0,0,0,2,0,53,53,53,,,,,,,,,,,,,724.2878346158941,,,,,AMP_prac,right,0.7170762590394588,,,,,,,,,,,,,,,,,,,,,1,,,left,2.8329000397061463,,,,,,,,,,,,,,1001,2019_Apr_29_1653,mf_amp_cond1,3.0.7,59.98637887861687,
celebrated,,&&&&&&&&&&,images/symbols/symbol_55.png,condition_files/AMP_rep3.csv,left,authority.virtue,,,,,,,,,,,,,,,,,,,,,0,0,0,2,0,54,54,54,,,,,,,,,,,,,725.7548648515149,,,,,AMP_prac,right,0.7170762590394588,,,,,,,,,,,,,,,,,,,,,1,,,right,1.2488923911587335,,,,,,,,,,,,,,1001,2019_Apr_29_1653,mf_amp_cond1,3.0.7,59.98637887861687,
arrests,,&&&&&&&,images/symbols/symbol_27.png,condition_files/AMP_rep3.csv,right,authority.vice,,,,,,,,,,,,,,,,,,,,,0,0,0,2,0,55,55,55,,,,,,,,,,,,,726.6717789541799,,,,,AMP_prac,right,0.7170762590394588,,,,,,,,,,,,,,,,,,,,,1,,,right,0.6990899230222567,,,,,,,,,,,,,,1001,2019_Apr_29_1653,mf_amp_cond1,3.0.7,59.98637887861687,
safety,,&&&&&&,images/symbols/symbol_75.png,condition_files/AMP_rep3.csv,left,care.virtue,,,,,,,,,,,,,,,,,,,,,0,0,0,2,0,56,56,56,,,,,,,,,,,,,727.5053031163152,,,,,AMP_prac,right,0.7170762590394588,,,,,,,,,,,,,,,,,,,,,1,,,left,0.6161294274679676,,,,,,,,,,,,,,1001,2019_Apr_29_1653,mf_amp_cond1,3.0.7,59.98637887861687,
racist,,&&&&&&,images/symbols/symbol_3.png,condition_files/AMP_rep3.csv,right,sanctity.vice,,,,,,,,,,,,,,,,,,,,,0,0,0,2,0,57,57,57,,,,,,,,,,,,,728.388862269072,,,,,AMP_prac,right,0.7170762590394588,,,,,,,,,,,,,,,,,,,,,1,,,right,0.6660845586484356,,,,,,,,,,,,,,1001,2019_Apr_29_1653,mf_amp_cond1,3.0.7,59.98637887861687,
interests,,&&&&&&&&&,images/symbols/symbol_8.png,condition_files/AMP_rep3.csv,left,fairness.virtue,,,,,,,,,,,,,,,,,,,,,0,0,0,2,0,58,58,58,,,,,,,,,,,,,729.2057628373259,,,,,AMP_prac,right,0.7170762590394588,,,,,,,,,,,,,,,,,,,,,1,,,left,0.599520266016043,,,,,,,,,,,,,,1001,2019_Apr_29_1653,mf_amp_cond1,3.0.7,59.98637887861687,
peaceful,,&&&&&&&&,images/symbols/symbol_81.png,condition_files/AMP_rep3.csv,left,authority.virtue,,,,,,,,,,,,,,,,,,,,,0,0,0,2,0,59,59,59,,,,,,,,,,,,,730.0892786927943,,,,,AMP_prac,right,0.7170762590394588,,,,,,,,,,,,,,,,,,,,,1,,,left,0.6503868853469612,,,,,,,,,,,,,,1001,2019_Apr_29_1653,mf_amp_cond1,3.0.7,59.98637887861687,
officers,,&&&&&&&&,images/symbols/symbol_35.png,condition_files/AMP_rep3.csv,right,authority.vice,,,,,,,,,,,,,,,,,,,,,0,0,0,2,0,60,60,60,,,,,,,,,,,,,730.8561513262757,,,,,AMP_prac,right,0.7170762590394588,,,,,,,,,,,,,,,,,,,,,1,,,right,0.5491831565195753,,,,,,,,,,,,,,1001,2019_Apr_29_1653,mf_amp_cond1,3.0.7,59.98637887861687,
party,,&&&&&,images/symbols/symbol_40.png,condition_files/AMP_rep3.csv,left,loyalty.virtue,,,,,,,,,,,,,,,,,,,,,0,0,0,2,0,61,61,61,,,,,,,,,,,,,732.9233192152096,,,,,AMP_prac,right,0.7170762590394588,,,,,,,,,,,,,,,,,,,,,1,,,left,1.849723121842544,,,,,,,,,,,,,,1001,2019_Apr_29_1653,mf_amp_cond1,3.0.7,59.98637887861687,
sharing,,&&&&&&&,images/symbols/symbol_45.png,condition_files/AMP_rep3.csv,left,loyalty.virtue,,,,,,,,,,,,,,,,,,,,,0,0,0,2,0,62,62,62,,,,,,,,,,,,,733.8068863859844,,,,,AMP_prac,right,0.7170762590394588,,,,,,,,,,,,,,,,,,,,,1,,,right,0.6660909730599087,,,,,,,,,,,,,,1001,2019_Apr_29_1653,mf_amp_cond1,3.0.7,59.98637887861687,
death,,&&&&&,images/symbols/symbol_2.png,condition_files/AMP_rep3.csv,right,care.vice,,,,,,,,,,,,,,,,,,,,,0,0,0,2,0,63,63,63,,,,,,,,,,,,,735.157260250071,,,,,AMP_prac,right,0.7170762590394588,,,,,,,,,,,,,,,,,,,,,1,,,left,1.1330496879709244,,,,,,,,,,,,,,1001,2019_Apr_29_1653,mf_amp_cond1,3.0.7,59.98637887861687,
slavery,,&&&&&&&,images/symbols/symbol_64.png,condition_files/AMP_rep3.csv,right,loyalty.vice,,,,,,,,,,,,,,,,,,,,,0,0,0,2,0,64,64,64,,,,,,,,,,,,,736.3074983210281,,,,,AMP_prac,right,0.7170762590394588,,,,,,,,,,,,,,,,,,,,,1,,,left,0.9171177602911484,,,,,,,,,,,,,,1001,2019_Apr_29_1653,mf_amp_cond1,3.0.7,59.98637887861687,
rhuissed,,&&&&&&&&,images/symbols/symbol_36.png,condition_files/AMP_rep3.csv,None,nonword,,,,,,,,,,,,,,,,,,,,,0,0,0,2,0,65,65,65,,,,,,,,,,,,,737.1910629260383,,,,,AMP_prac,right,0.7170762590394588,,,,,,,,,,,,,,,,,,,,,1,,,right,0.6659469694786821,,,,,,,,,,,,,,1001,2019_Apr_29_1653,mf_amp_cond1,3.0.7,59.98637887861687,
fighters,,&&&&&&&&,images/symbols/symbol_13.png,condition_files/AMP_rep3.csv,right,authority.vice,,,,,,,,,,,,,,,,,,,,,0,0,0,2,0,66,66,66,,,,,,,,,,,,,737.8912250182657,,,,,AMP_prac,right,0.7170762590394588,,,,,,,,,,,,,,,,,,,,,1,,,right,0.4827580566634424,,,,,,,,,,,,,,1001,2019_Apr_29_1653,mf_amp_cond1,3.0.7,59.98637887861687,
rejected,,&&&&&&&&,images/symbols/symbol_16.png,condition_files/AMP_rep3.csv,right,authority.vice,,,,,,,,,,,,,,,,,,,,,0,0,0,2,0,67,67,67,,,,,,,,,,,,,738.5413835504951,,,,,AMP_prac,right,0.7170762590394588,,,,,,,,,,,,,,,,,,,,,1,,,right,0.4330049795098603,,,,,,,,,,,,,,1001,2019_Apr_29_1653,mf_amp_cond1,3.0.7,59.98637887861687,
troalde,,&&&&&&&,images/symbols/symbol_79.png,condition_files/AMP_rep3.csv,None,nonword,,,,,,,,,,,,,,,,,,,,,0,0,0,2,0,68,68,68,,,,,,,,,,,,,739.3249214715433,,,,,AMP_prac,right,0.7170762590394588,,,,,,,,,,,,,,,,,,,,,1,,,left,0.5660225954125053,,,,,,,,,,,,,,1001,2019_Apr_29_1653,mf_amp_cond1,3.0.7,59.98637887861687,
peighld,,&&&&&&&,images/symbols/symbol_61.png,condition_files/AMP_rep3.csv,None,nonword,,,,,,,,,,,,,,,,,,,,,0,0,0,2,0,69,69,69,,,,,,,,,,,,,740.6085873601405,,,,,AMP_prac,right,0.7170762590394588,,,,,,,,,,,,,,,,,,,,,1,,,left,1.0662717953746323,,,,,,,,,,,,,,1001,2019_Apr_29_1653,mf_amp_cond1,3.0.7,59.98637887861687,
terrorist,,&&&&&&&&&,images/symbols/symbol_67.png,condition_files/AMP_rep3.csv,right,loyalty.vice,,,,,,,,,,,,,,,,,,,,,0,0,0,2,0,70,70,70,,,,,,,,,,,,,741.4254459139884,,,,,AMP_prac,right,0.7170762590394588,,,,,,,,,,,,,,,,,,,,,1,,,left,0.5993560570350382,,,,,,,,,,,,,,1001,2019_Apr_29_1653,mf_amp_cond1,3.0.7,59.98637887861687,
corruption,,&&&&&&&&&&,images/symbols/symbol_23.png,condition_files/AMP_rep3.csv,right,sanctity.vice,,,,,,,,,,,,,,,,,,,,,0,0,0,2,0,71,71,71,,,,,,,,,,,,,742.2256395009827,,,,,AMP_prac,right,0.7170762590394588,,,,,,,,,,,,,,,,,,,,,1,,,left,0.5827177100036351,,,,,,,,,,,,,,1001,2019_Apr_29_1653,mf_amp_cond1,3.0.7,59.98637887861687,
pleasant,,&&&&&&&,images/symbols/symbol_63.png,condition_files/AMP_rep3.csv,right,control,,,,,,,,,,,,,,,,,,,,,0,0,0,2,0,72,72,72,,,,,,,,,,,,,743.0591867550065,,,,,AMP_prac,right,0.7170762590394588,,,,,,,,,,,,,,,,,,,,,1,,,left,0.6161239752145775,,,,,,,,,,,,,,1001,2019_Apr_29_1653,mf_amp_cond1,3.0.7,59.98637887861687,
integrity,,&&&&&&&&&,images/symbols/symbol_57.png,condition_files/AMP_rep3.csv,left,fairness.virtue,,,,,,,,,,,,,,,,,,,,,0,0,0,2,0,73,73,73,,,,,,,,,,,,,743.9760761621801,,,,,AMP_prac,right,0.7170762590394588,,,,,,,,,,,,,,,,,,,,,1,,,left,0.6994443193616462,,,,,,,,,,,,,,1001,2019_Apr_29_1653,mf_amp_cond1,3.0.7,59.98637887861687,
abuse,,&&&&&,images/symbols/symbol_54.png,condition_files/AMP_rep3.csv,right,sanctity.vice,,,,,,,,,,,,,,,,,,,,,0,0,0,2,0,74,74,74,,,,,,,,,,,,,744.7262677927829,,,,,AMP_prac,right,0.7170762590394588,,,,,,,,,,,,,,,,,,,,,1,,,left,0.5325791266004671,,,,,,,,,,,,,,1001,2019_Apr_29_1653,mf_amp_cond1,3.0.7,59.98637887861687,
died,,&&&&,images/symbols/symbol_53.png,condition_files/AMP_rep3.csv,right,care.vice,,,,,,,,,,,,,,,,,,,,,0,0,0,2,0,75,75,75,,,,,,,,,,,,,745.7432194839093,,,,,AMP_prac,right,0.7170762590394588,,,,,,,,,,,,,,,,,,,,,1,,,left,0.7996304014959605,,,,,,,,,,,,,,1001,2019_Apr_29_1653,mf_amp_cond1,3.0.7,59.98637887861687,
crime,,&&&&&,images/symbols/symbol_4.png,condition_files/AMP_rep3.csv,right,fairness.vice,,,,,,,,,,,,,,,,,,,,,0,0,0,2,0,76,76,76,,,,,,,,,,,,,746.4267041011844,,,,,AMP_prac,right,0.7170762590394588,,,,,,,,,,,,,,,,,,,,,1,,,left,0.4659045060616336,,,,,,,,,,,,,,1001,2019_Apr_29_1653,mf_amp_cond1,3.0.7,59.98637887861687,
hate,,&&&&,images/symbols/symbol_49.png,condition_files/AMP_rep3.csv,right,fairness.vice,,,,,,,,,,,,,,,,,,,,,0,0,0,2,0,77,77,77,,,,,,,,,,,,,747.1602618748439,,,,,AMP_prac,right,0.7170762590394588,,,,,,,,,,,,,,,,,,,,,1,,,left,0.5004073152522324,,,,,,,,,,,,,,1001,2019_Apr_29_1653,mf_amp_cond1,3.0.7,59.98637887861687,
troops,,&&&&&&,images/symbols/symbol_47.png,condition_files/AMP_rep3.csv,right,loyalty.vice,,,,,,,,,,,,,,,,,,,,,0,0,0,2,0,78,78,78,,,,,,,,,,,,,747.810370053925,,,,,AMP_prac,right,0.7170762590394588,,,,,,,,,,,,,,,,,,,,,1,,,left,0.4323984967195429,,,,,,,,,,,,,,1001,2019_Apr_29_1653,mf_amp_cond1,3.0.7,59.98637887861687,
penalty,,&&&&&&&,images/symbols/symbol_30.png,condition_files/AMP_rep3.csv,right,authority.vice,,,,,,,,,,,,,,,,,,,,,0,0,0,2,0,79,79,79,,,,,,,,,,,,,748.5272628607381,,,,,AMP_prac,right,0.7170762590394588,,,,,,,,,,,,,,,,,,,,,1,,,right,0.49965875320413033,,,,,,,,,,,,,,1001,2019_Apr_29_1653,mf_amp_cond1,3.0.7,59.98637887861687,
phlaide,,&&&&&&&,images/symbols/symbol_62.png,condition_files/AMP_rep3.csv,None,nonword,,,,,,,,,,,,,,,,,,,,,0,0,0,2,0,80,80,80,,,,,,,,,,,,,749.4941420369214,,,,,AMP_prac,right,0.7170762590394588,,,,,,,,,,,,,,,,,,,,,1,,,right,0.7337607898443821,,,,,,,,,,,,,,1001,2019_Apr_29_1653,mf_amp_cond1,3.0.7,59.98637887861687,
care,,&&&&,images/symbols/symbol_20.png,condition_files/AMP_rep3.csv,left,care.virtue,,,,,,,,,,,,,,,,,,,,,0,0,0,2,0,81,81,81,,,,,,,,,,,,,750.2943205500487,,,,,AMP_prac,right,0.7170762590394588,,,,,,,,,,,,,,,,,,,,,1,,,right,0.5829973784275353,,,,,,,,,,,,,,1001,2019_Apr_29_1653,mf_amp_cond1,3.0.7,59.98637887861687,
,,,,condition_files/AMP_rep3.csv,,,,,,,,,,,,,,,,,,,,,,,0,0,0,2,,,,,,,,,,,,,,,,,,,,,,,,,,,,,,,,,,,,,,,,,,,,,,,,,,right,4.51801199367037,,,,,,,,,,,,1001,2019_Apr_29_1653,mf_amp_cond1,3.0.7,59.98637887861687,
conspiracy,,&&&&&&&&&&,images/symbols/symbol_69.png,condition_files/AMP_rep4.csv,right,sanctity.vice,,,,,,,,,,,,,,,,,,,,,0,1,1,3,0,0,0,0,,,,,,,,,,,,,756.8461108449119,,,,,AMP_prac,right,0.7170762590394588,,,,,,,,,,,,,,,,,,,,,1,,,left,1.7673559595350525,,,,,,,,,,,,,,1001,2019_Apr_29_1653,mf_amp_cond1,3.0.7,59.98637887861687,
shypse,,&&&&&&,images/symbols/symbol_9.png,condition_files/AMP_rep4.csv,None,nonword,,,,,,,,,,,,,,,,,,,,,0,1,1,3,0,1,1,1,,,,,,,,,,,,,758.5130546142391,,,,,AMP_prac,right,0.7170762590394588,,,,,,,,,,,,,,,,,,,,,1,,,left,1.4495679571846267,,,,,,,,,,,,,,1001,2019_Apr_29_1653,mf_amp_cond1,3.0.7,59.98637887861687,
loyalty,,&&&&&&&,images/symbols/symbol_12.png,condition_files/AMP_rep4.csv,left,loyalty.virtue,,,,,,,,,,,,,,,,,,,,,0,1,1,3,0,2,2,2,,,,,,,,,,,,,759.3632594585324,,,,,AMP_prac,right,0.7170762590394588,,,,,,,,,,,,,,,,,,,,,1,,,right,0.6170495750775444,,,,,,,,,,,,,,1001,2019_Apr_29_1653,mf_amp_cond1,3.0.7,59.98637887861687,
embrace,,&&&&&&&,images/symbols/symbol_21.png,condition_files/AMP_rep4.csv,left,authority.virtue,,,,,,,,,,,,,,,,,,,,,0,1,1,3,0,3,3,3,,,,,,,,,,,,,760.3800636181513,,,,,AMP_prac,right,0.7170762590394588,,,,,,,,,,,,,,,,,,,,,1,,,right,0.7994636267467286,,,,,,,,,,,,,,1001,2019_Apr_29_1653,mf_amp_cond1,3.0.7,59.98637887861687,
sneaze,,&&&&&&,images/symbols/symbol_22.png,condition_files/AMP_rep4.csv,None,nonword,,,,,,,,,,,,,,,,,,,,,0,1,1,3,0,4,4,4,,,,,,,,,,,,,761.3470919294487,,,,,AMP_prac,right,0.7170762590394588,,,,,,,,,,,,,,,,,,,,,1,,,right,0.7494369748601457,,,,,,,,,,,,,,1001,2019_Apr_29_1653,mf_amp_cond1,3.0.7,59.98637887861687,
growth,,&&&&&&,images/symbols/symbol_5.png,condition_files/AMP_rep4.csv,left,care.virtue,,,,,,,,,,,,,,,,,,,,,0,1,1,3,0,5,5,5,,,,,,,,,,,,,762.8308025265105,,,,,AMP_prac,right,0.7170762590394588,,,,,,,,,,,,,,,,,,,,,1,,,right,1.2661128462095803,,,,,,,,,,,,,,1001,2019_Apr_29_1653,mf_amp_cond1,3.0.7,59.98637887861687,
civilians,,&&&&&&&&&,images/symbols/symbol_28.png,condition_files/AMP_rep4.csv,right,care.vice,,,,,,,,,,,,,,,,,,,,,0,1,1,3,0,6,6,6,,,,,,,,,,,,,763.5643333596308,,,,,AMP_prac,right,0.7170762590394588,,,,,,,,,,,,,,,,,,,,,1,,,left,0.5162153164637857,,,,,,,,,,,,,,1001,2019_Apr_29_1653,mf_amp_cond1,3.0.7,59.98637887861687,
coacs,,&&&&&,images/symbols/symbol_19.png,condition_files/AMP_rep4.csv,None,nonword,,,,,,,,,,,,,,,,,,,,,0,1,1,3,0,7,7,7,,,,,,,,,,,,,764.4811987127541,,,,,AMP_prac,right,0.7170762590394588,,,,,,,,,,,,,,,,,,,,,1,,,right,0.6992364923680725,,,,,,,,,,,,,,1001,2019_Apr_29_1653,mf_amp_cond1,3.0.7,59.98637887861687,
violations,,&&&&&&&&&&,images/symbols/symbol_66.png,condition_files/AMP_rep4.csv,right,sanctity.vice,,,,,,,,,,,,,,,,,,,,,0,1,1,3,0,8,8,8,,,,,,,,,,,,,765.3814353404669,,,,,AMP_prac,right,0.7170762590394588,,,,,,,,,,,,,,,,,,,,,1,,,right,0.6670640395823284,,,,,,,,,,,,,,1001,2019_Apr_29_1653,mf_amp_cond1,3.0.7,59.98637887861687,
ban,,&&&,images/symbols/symbol_58.png,condition_files/AMP_rep4.csv,right,loyalty.vice,,,,,,,,,,,,,,,,,,,,,0,1,1,3,0,9,9,9,,,,,,,,,,,,,766.231639543319,,,,,AMP_prac,right,0.7170762590394588,,,,,,,,,,,,,,,,,,,,,1,,,left,0.6327209492847032,,,,,,,,,,,,,,1001,2019_Apr_29_1653,mf_amp_cond1,3.0.7,59.98637887861687,
failure,,&&&&&&&,images/symbols/symbol_38.png,condition_files/AMP_rep4.csv,right,loyalty.vice,,,,,,,,,,,,,,,,,,,,,0,1,1,3,0,10,10,10,,,,,,,,,,,,,767.4486199068742,,,,,AMP_prac,right,0.7170762590394588,,,,,,,,,,,,,,,,,,,,,1,,,right,0.999575686553726,,,,,,,,,,,,,,1001,2019_Apr_29_1653,mf_amp_cond1,3.0.7,59.98637887861687,
win,,&&&,images/symbols/symbol_51.png,condition_files/AMP_rep4.csv,left,fairness.virtue,,,,,,,,,,,,,,,,,,,,,0,1,1,3,0,11,11,11,,,,,,,,,,,,,768.615574259984,,,,,AMP_prac,right,0.7170762590394588,,,,,,,,,,,,,,,,,,,,,1,,,left,0.949917863435985,,,,,,,,,,,,,,1001,2019_Apr_29_1653,mf_amp_cond1,3.0.7,59.98637887861687,
lies,,&&&&,images/symbols/symbol_43.png,condition_files/AMP_rep4.csv,right,fairness.vice,,,,,,,,,,,,,,,,,,,,,0,1,1,3,0,12,12,12,,,,,,,,,,,,,769.9659134862413,,,,,AMP_prac,right,0.7170762590394588,,,,,,,,,,,,,,,,,,,,,1,,,left,1.117175939023582,,,,,,,,,,,,,,1001,2019_Apr_29_1653,mf_amp_cond1,3.0.7,59.98637887861687,
betrayal,,&&&&&&&&,images/symbols/symbol_32.png,condition_files/AMP_rep4.csv,right,loyalty.vice,,,,,,,,,,,,,,,,,,,,,0,1,1,3,0,13,13,13,,,,,,,,,,,,,770.9828484998943,,,,,AMP_prac,right,0.7170762590394588,,,,,,,,,,,,,,,,,,,,,1,,,right,0.7993170574009127,,,,,,,,,,,,,,1001,2019_Apr_29_1653,mf_amp_cond1,3.0.7,59.98637887861687,
trust,,&&&&&,images/symbols/symbol_1.png,condition_files/AMP_rep4.csv,left,authority.virtue,,,,,,,,,,,,,,,,,,,,,0,1,1,3,0,14,14,14,,,,,,,,,,,,,772.2498234432715,,,,,AMP_prac,right,0.7170762590394588,,,,,,,,,,,,,,,,,,,,,1,,,right,1.0494320357647666,,,,,,,,,,,,,,1001,2019_Apr_29_1653,mf_amp_cond1,3.0.7,59.98637887861687,
fear,,&&&&,images/symbols/symbol_60.png,condition_files/AMP_rep4.csv,right,sanctity.vice,,,,,,,,,,,,,,,,,,,,,0,1,1,3,0,15,15,15,,,,,,,,,,,,,773.1166990273814,,,,,AMP_prac,right,0.7170762590394588,,,,,,,,,,,,,,,,,,,,,1,,,right,0.6494378728748416,,,,,,,,,,,,,,1001,2019_Apr_29_1653,mf_amp_cond1,3.0.7,59.98637887861687,
army,,&&&&,images/symbols/symbol_59.png,condition_files/AMP_rep4.csv,right,loyalty.vice,,,,,,,,,,,,,,,,,,,,,0,1,1,3,0,16,16,16,,,,,,,,,,,,,773.9502417913136,,,,,AMP_prac,right,0.7170762590394588,,,,,,,,,,,,,,,,,,,,,1,,,right,0.6161323139531305,,,,,,,,,,,,,,1001,2019_Apr_29_1653,mf_amp_cond1,3.0.7,59.98637887861687,
torture,,&&&&&&&,images/symbols/symbol_33.png,condition_files/AMP_rep4.csv,right,care.vice,,,,,,,,,,,,,,,,,,,,,0,1,1,3,0,17,17,17,,,,,,,,,,,,,774.833803189118,,,,,AMP_prac,right,0.7170762590394588,,,,,,,,,,,,,,,,,,,,,1,,,right,0.6662529369968979,,,,,,,,,,,,,,1001,2019_Apr_29_1653,mf_amp_cond1,3.0.7,59.98637887861687,
perfect,,&&&&&&&,images/symbols/symbol_26.png,condition_files/AMP_rep4.csv,left,sanctity.virtue,,,,,,,,,,,,,,,,,,,,,0,1,1,3,0,18,18,18,,,,,,,,,,,,,775.8507253739444,,,,,AMP_prac,right,0.7170762590394588,,,,,,,,,,,,,,,,,,,,,1,,,left,0.7991432267954224,,,,,,,,,,,,,,1001,2019_Apr_29_1653,mf_amp_cond1,3.0.7,59.98637887861687,
good,,&&&&,images/symbols/symbol_6.png,condition_files/AMP_rep4.csv,left,care.virtue,,,,,,,,,,,,,,,,,,,,,0,1,1,3,0,19,19,19,,,,,,,,,,,,,776.6842662135532,,,,,AMP_prac,right,0.7170762590394588,,,,,,,,,,,,,,,,,,,,,1,,,right,0.6003884568781359,,,,,,,,,,,,,,1001,2019_Apr_29_1653,mf_amp_cond1,3.0.7,59.98637887861687,
health,,&&&&&&,images/symbols/symbol_48.png,condition_files/AMP_rep4.csv,left,care.virtue,,,,,,,,,,,,,,,,,,,,,0,1,1,3,0,20,20,20,,,,,,,,,,,,,777.6178253983817,,,,,AMP_prac,right,0.7170762590394588,,,,,,,,,,,,,,,,,,,,,1,,,right,0.715880933094013,,,,,,,,,,,,,,1001,2019_Apr_29_1653,mf_amp_cond1,3.0.7,59.98637887861687,
shot,,&&&&,images/symbols/symbol_11.png,condition_files/AMP_rep4.csv,right,care.vice,,,,,,,,,,,,,,,,,,,,,0,1,1,3,0,21,21,21,,,,,,,,,,,,,778.4847417140227,,,,,AMP_prac,right,0.7170762590394588,,,,,,,,,,,,,,,,,,,,,1,,,right,0.6495077899853641,,,,,,,,,,,,,,1001,2019_Apr_29_1653,mf_amp_cond1,3.0.7,59.98637887861687,
safe,,&&&&,images/symbols/symbol_29.png,condition_files/AMP_rep4.csv,left,care.virtue,,,,,,,,,,,,,,,,,,,,,0,1,1,3,0,22,22,22,,,,,,,,,,,,,779.3515849053474,,,,,AMP_prac,right,0.7170762590394588,,,,,,,,,,,,,,,,,,,,,1,,,left,0.6489192675508093,,,,,,,,,,,,,,1001,2019_Apr_29_1653,mf_amp_cond1,3.0.7,59.98637887861687,
skypped,,&&&&&&&,images/symbols/symbol_15.png,condition_files/AMP_rep4.csv,None,nonword,,,,,,,,,,,,,,,,,,,,,0,1,1,3,0,23,23,23,,,,,,,,,,,,,780.2184707525194,,,,,AMP_prac,right,0.7170762590394588,,,,,,,,,,,,,,,,,,,,,1,,,left,0.6494632098110742,,,,,,,,,,,,,,1001,2019_Apr_29_1653,mf_amp_cond1,3.0.7,59.98637887861687,
illegal,,&&&&&&&,images/symbols/symbol_10.png,condition_files/AMP_rep4.csv,right,fairness.vice,,,,,,,,,,,,,,,,,,,,,0,1,1,3,0,24,24,24,,,,,,,,,,,,,780.8853571128457,,,,,AMP_prac,right,0.7170762590394588,,,,,,,,,,,,,,,,,,,,,1,,,left,0.44960387789615197,,,,,,,,,,,,,,1001,2019_Apr_29_1653,mf_amp_cond1,3.0.7,59.98637887861687,
energy,,&&&&&&,images/symbols/symbol_80.png,condition_files/AMP_rep4.csv,left,sanctity.virtue,,,,,,,,,,,,,,,,,,,,,0,1,1,3,0,25,25,25,,,,,,,,,,,,,781.6188298955276,,,,,AMP_prac,right,0.7170762590394588,,,,,,,,,,,,,,,,,,,,,1,,,left,0.516157586742338,,,,,,,,,,,,,,1001,2019_Apr_29_1653,mf_amp_cond1,3.0.7,59.98637887861687,
respect,,&&&&&&&,images/symbols/symbol_44.png,condition_files/AMP_rep4.csv,left,sanctity.virtue,,,,,,,,,,,,,,,,,,,,,0,1,1,3,0,26,26,26,,,,,,,,,,,,,782.5857430681026,,,,,AMP_prac,right,0.7170762590394588,,,,,,,,,,,,,,,,,,,,,1,,,right,0.7493372307326354,,,,,,,,,,,,,,1001,2019_Apr_29_1653,mf_amp_cond1,3.0.7,59.98637887861687,
accused,,&&&&&&&,images/symbols/symbol_71.png,condition_files/AMP_rep4.csv,right,fairness.vice,,,,,,,,,,,,,,,,,,,,,0,1,1,3,0,27,27,27,,,,,,,,,,,,,783.419270116723,,,,,AMP_prac,right,0.7170762590394588,,,,,,,,,,,,,,,,,,,,,1,,,left,0.6003826839078101,,,,,,,,,,,,,,1001,2019_Apr_29_1653,mf_amp_cond1,3.0.7,59.98637887861687,
increase,,&&&&&&&&,images/symbols/symbol_78.png,condition_files/AMP_rep4.csv,left,care.virtue,,,,,,,,,,,,,,,,,,,,,0,1,1,3,0,28,28,28,,,,,,,,,,,,,784.1694591815613,,,,,AMP_prac,right,0.7170762590394588,,,,,,,,,,,,,,,,,,,,,1,,,right,0.5324123518512351,,,,,,,,,,,,,,1001,2019_Apr_29_1653,mf_amp_cond1,3.0.7,59.98637887861687,
police,,&&&&&&,images/symbols/symbol_24.png,condition_files/AMP_rep4.csv,right,authority.vice,,,,,,,,,,,,,,,,,,,,,0,1,1,3,0,29,29,29,,,,,,,,,,,,,785.8865550045593,,,,,AMP_prac,right,0.7170762590394588,,,,,,,,,,,,,,,,,,,,,1,,,right,1.4839286871174409,,,,,,,,,,,,,,1001,2019_Apr_29_1653,mf_amp_cond1,3.0.7,59.98637887861687,
threatened,,&&&&&&&&&&,images/symbols/symbol_31.png,condition_files/AMP_rep4.csv,right,fairness.vice,,,,,,,,,,,,,,,,,,,,,0,1,1,3,0,30,30,30,,,,,,,,,,,,,786.6367459937173,,,,,AMP_prac,right,0.7170762590394588,,,,,,,,,,,,,,,,,,,,,1,,,left,0.5334591841274232,,,,,,,,,,,,,,1001,2019_Apr_29_1653,mf_amp_cond1,3.0.7,59.98637887861687,
killed,,&&&&&&,images/symbols/symbol_77.png,condition_files/AMP_rep4.csv,right,care.vice,,,,,,,,,,,,,,,,,,,,,0,1,1,3,0,31,31,31,,,,,,,,,,,,,787.3869206261224,,,,,AMP_prac,right,0.7170762590394588,,,,,,,,,,,,,,,,,,,,,1,,,left,0.5328110076479788,,,,,,,,,,,,,,1001,2019_Apr_29_1653,mf_amp_cond1,3.0.7,59.98637887861687,
charges,,&&&&&&&,images/symbols/symbol_42.png,condition_files/AMP_rep4.csv,right,fairness.vice,,,,,,,,,,,,,,,,,,,,,0,1,1,3,0,32,32,32,,,,,,,,,,,,,788.0370913457373,,,,,AMP_prac,right,0.7170762590394588,,,,,,,,,,,,,,,,,,,,,1,,,left,0.4327035020796757,,,,,,,,,,,,,,1001,2019_Apr_29_1653,mf_amp_cond1,3.0.7,59.98637887861687,
unpleasant,,&&&&&&&&&,images/symbols/symbol_72.png,condition_files/AMP_rep4.csv,left,control,,,,,,,,,,,,,,,,,,,,,0,1,1,3,0,33,33,33,,,,,,,,,,,,,789.0373476015557,,,,,AMP_prac,right,0.7170762590394588,,,,,,,,,,,,,,,,,,,,,1,,,left,0.7670907235406048,,,,,,,,,,,,,,1001,2019_Apr_29_1653,mf_amp_cond1,3.0.7,59.98637887861687,
free,,&&&&,images/symbols/symbol_70.png,condition_files/AMP_rep4.csv,left,fairness.virtue,,,,,,,,,,,,,,,,,,,,,0,1,1,3,0,34,34,34,,,,,,,,,,,,,789.8542151355796,,,,,AMP_prac,right,0.7170762590394588,,,,,,,,,,,,,,,,,,,,,1,,,right,0.5991568894969532,,,,,,,,,,,,,,1001,2019_Apr_29_1653,mf_amp_cond1,3.0.7,59.98637887861687,
faith,,&&&&&,images/symbols/symbol_7.png,condition_files/AMP_rep4.csv,left,sanctity.virtue,,,,,,,,,,,,,,,,,,,,,0,1,1,3,0,35,35,35,,,,,,,,,,,,,791.1545309171524,,,,,AMP_prac,right,0.7170762590394588,,,,,,,,,,,,,,,,,,,,,1,,,right,1.0830265640106518,,,,,,,,,,,,,,1001,2019_Apr_29_1653,mf_amp_cond1,3.0.7,59.98637887861687,
knapps,,&&&&&&,images/symbols/symbol_34.png,condition_files/AMP_rep4.csv,None,nonword,,,,,,,,,,,,,,,,,,,,,0,1,1,3,0,36,36,36,,,,,,,,,,,,,792.0214234994601,,,,,AMP_prac,right,0.7170762590394588,,,,,,,,,,,,,,,,,,,,,1,,,left,0.6492598729055317,,,,,,,,,,,,,,1001,2019_Apr_29_1653,mf_amp_cond1,3.0.7,59.98637887861687,
strength,,&&&&&&&&,images/symbols/symbol_46.png,condition_files/AMP_rep4.csv,left,sanctity.virtue,,,,,,,,,,,,,,,,,,,,,0,1,1,3,0,37,37,37,,,,,,,,,,,,,792.8382939199691,,,,,AMP_prac,right,0.7170762590394588,,,,,,,,,,,,,,,,,,,,,1,,,right,0.5994330299981812,,,,,,,,,,,,,,1001,2019_Apr_29_1653,mf_amp_cond1,3.0.7,59.98637887861687,
benefit,,&&&&&&&,images/symbols/symbol_68.png,condition_files/AMP_rep4.csv,left,fairness.virtue,,,,,,,,,,,,,,,,,,,,,0,1,1,3,0,38,38,38,,,,,,,,,,,,,793.5718510521874,,,,,AMP_prac,right,0.7170762590394588,,,,,,,,,,,,,,,,,,,,,1,,,left,0.500423351288191,,,,,,,,,,,,,,1001,2019_Apr_29_1653,mf_amp_cond1,3.0.7,59.98637887861687,
promote,,&&&&&&&,images/symbols/symbol_73.png,condition_files/AMP_rep4.csv,left,sanctity.virtue,,,,,,,,,,,,,,,,,,,,,0,1,1,3,0,39,39,39,,,,,,,,,,,,,794.3220151008136,,,,,AMP_prac,right,0.7170762590394588,,,,,,,,,,,,,,,,,,,,,1,,,right,0.5322375590840238,,,,,,,,,,,,,,1001,2019_Apr_29_1653,mf_amp_cond1,3.0.7,59.98637887861687,
commitment,,&&&&&&&&&&,images/symbols/symbol_41.png,condition_files/AMP_rep4.csv,left,sanctity.virtue,,,,,,,,,,,,,,,,,,,,,0,1,1,3,0,40,40,40,,,,,,,,,,,,,795.1222112535761,,,,,AMP_prac,right,0.7170762590394588,,,,,,,,,,,,,,,,,,,,,1,,,right,0.5832433711839258,,,,,,,,,,,,,,1001,2019_Apr_29_1653,mf_amp_cond1,3.0.7,59.98637887861687,
friends,,&&&&&&&,images/symbols/symbol_56.png,condition_files/AMP_rep4.csv,left,loyalty.virtue,,,,,,,,,,,,,,,,,,,,,0,1,1,3,0,41,41,41,,,,,,,,,,,,,795.9057257620152,,,,,AMP_prac,right,0.7170762590394588,,,,,,,,,,,,,,,,,,,,,1,,,right,0.566047932348738,,,,,,,,,,,,,,1001,2019_Apr_29_1653,mf_amp_cond1,3.0.7,59.98637887861687,
drug,,&&&&,images/symbols/symbol_82.png,condition_files/AMP_rep4.csv,right,sanctity.vice,,,,,,,,,,,,,,,,,,,,,0,1,1,3,0,42,42,42,,,,,,,,,,,,,796.7726035911728,,,,,AMP_prac,right,0.7170762590394588,,,,,,,,,,,,,,,,,,,,,1,,,left,0.6496947701380122,,,,,,,,,,,,,,1001,2019_Apr_29_1653,mf_amp_cond1,3.0.7,59.98637887861687,
honored,,&&&&&&&,images/symbols/symbol_39.png,condition_files/AMP_rep4.csv,left,authority.virtue,,,,,,,,,,,,,,,,,,,,,0,1,1,3,0,43,43,43,,,,,,,,,,,,,797.6228151706018,,,,,AMP_prac,right,0.7170762590394588,,,,,,,,,,,,,,,,,,,,,1,,,right,0.6326834249630338,,,,,,,,,,,,,,1001,2019_Apr_29_1653,mf_amp_cond1,3.0.7,59.98637887861687,
snauz,,&&&&&,images/symbols/symbol_50.png,condition_files/AMP_rep4.csv,None,nonword,,,,,,,,,,,,,,,,,,,,,0,1,1,3,0,44,44,44,,,,,,,,,,,,,798.7897727309173,,,,,AMP_prac,right,0.7170762590394588,,,,,,,,,,,,,,,,,,,,,1,,,right,0.9491471716610249,,,,,,,,,,,,,,1001,2019_Apr_29_1653,mf_amp_cond1,3.0.7,59.98637887861687,
actively,,&&&&&&&&,images/symbols/symbol_17.png,condition_files/AMP_rep4.csv,left,authority.virtue,,,,,,,,,,,,,,,,,,,,,0,1,1,3,0,45,45,45,,,,,,,,,,,,,800.190119045099,,,,,AMP_prac,right,0.7170762590394588,,,,,,,,,,,,,,,,,,,,,1,,,right,1.1825846750653,,,,,,,,,,,,,,1001,2019_Apr_29_1653,mf_amp_cond1,3.0.7,59.98637887861687,
ability,,&&&&&&&,images/symbols/symbol_14.png,condition_files/AMP_rep4.csv,left,authority.virtue,,,,,,,,,,,,,,,,,,,,,0,1,1,3,0,46,46,46,,,,,,,,,,,,,800.8736386209275,,,,,AMP_prac,right,0.7170762590394588,,,,,,,,,,,,,,,,,,,,,1,,,left,0.4658990538082435,,,,,,,,,,,,,,1001,2019_Apr_29_1653,mf_amp_cond1,3.0.7,59.98637887861687,
credit,,&&&&&&,images/symbols/symbol_76.png,condition_files/AMP_rep4.csv,left,fairness.virtue,,,,,,,,,,,,,,,,,,,,,0,1,1,3,0,47,47,47,,,,,,,,,,,,,801.6738646007143,,,,,AMP_prac,right,0.7170762590394588,,,,,,,,,,,,,,,,,,,,,1,,,right,0.5832177135307575,,,,,,,,,,,,,,1001,2019_Apr_29_1653,mf_amp_cond1,3.0.7,59.98637887861687,
attacks,,&&&&&&&,images/symbols/symbol_52.png,condition_files/AMP_rep4.csv,right,care.vice,,,,,,,,,,,,,,,,,,,,,0,1,1,3,0,48,48,48,,,,,,,,,,,,,802.3906807552848,,,,,AMP_prac,right,0.7170762590394588,,,,,,,,,,,,,,,,,,,,,1,,,left,0.4836769213870866,,,,,,,,,,,,,,1001,2019_Apr_29_1653,mf_amp_cond1,3.0.7,59.98637887861687,
praised,,&&&&&&&,images/symbols/symbol_37.png,condition_files/AMP_rep4.csv,left,loyalty.virtue,,,,,,,,,,,,,,,,,,,,,0,1,1,3,0,49,49,49,,,,,,,,,,,,,803.5576379948798,,,,,AMP_prac,right,0.7170762590394588,,,,,,,,,,,,,,,,,,,,,1,,,left,0.9337978010116785,,,,,,,,,,,,,,1001,2019_Apr_29_1653,mf_amp_cond1,3.0.7,59.98637887861687,
refused,,&&&&&&&,images/symbols/symbol_18.png,condition_files/AMP_rep4.csv,right,authority.vice,,,,,,,,,,,,,,,,,,,,,0,1,1,3,0,50,50,50,,,,,,,,,,,,,804.2911556784566,,,,,AMP_prac,right,0.7170762590394588,,,,,,,,,,,,,,,,,,,,,1,,,right,0.5156954282574588,,,,,,,,,,,,,,1001,2019_Apr_29_1653,mf_amp_cond1,3.0.7,59.98637887861687,
great,,&&&&&,images/symbols/symbol_65.png,condition_files/AMP_rep4.csv,left,loyalty.virtue,,,,,,,,,,,,,,,,,,,,,0,1,1,3,0,51,51,51,,,,,,,,,,,,,805.2247180704944,,,,,AMP_prac,right,0.7170762590394588,,,,,,,,,,,,,,,,,,,,,1,,,left,0.7159864501918491,,,,,,,,,,,,,,1001,2019_Apr_29_1653,mf_amp_cond1,3.0.7,59.98637887861687,
support,,&&&&&&&,images/symbols/symbol_74.png,condition_files/AMP_rep4.csv,left,loyalty.virtue,,,,,,,,,,,,,,,,,,,,,0,1,1,3,0,52,52,52,,,,,,,,,,,,,806.1916270736983,,,,,AMP_prac,right,0.7170762590394588,,,,,,,,,,,,,,,,,,,,,1,,,left,0.733745074532635,,,,,,,,,,,,,,1001,2019_Apr_29_1653,mf_amp_cond1,3.0.7,59.98637887861687,
agreement,,&&&&&&&&&,images/symbols/symbol_25.png,condition_files/AMP_rep4.csv,left,fairness.virtue,,,,,,,,,,,,,,,,,,,,,0,1,1,3,0,53,53,53,,,,,,,,,,,,,807.1418733551036,,,,,AMP_prac,right,0.7170762590394588,,,,,,,,,,,,,,,,,,,,,1,,,left,0.7170833148920792,,,,,,,,,,,,,,1001,2019_Apr_29_1653,mf_amp_cond1,3.0.7,59.98637887861687,
celebrated,,&&&&&&&&&&,images/symbols/symbol_55.png,condition_files/AMP_rep4.csv,left,authority.virtue,,,,,,,,,,,,,,,,,,,,,0,1,1,3,0,54,54,54,,,,,,,,,,,,,807.9754036109298,,,,,AMP_prac,right,0.7170762590394588,,,,,,,,,,,,,,,,,,,,,1,,,left,0.6153247393049242,,,,,,,,,,,,,,1001,2019_Apr_29_1653,mf_amp_cond1,3.0.7,59.98637887861687,
arrests,,&&&&&&&,images/symbols/symbol_27.png,condition_files/AMP_rep4.csv,right,authority.vice,,,,,,,,,,,,,,,,,,,,,0,1,1,3,0,55,55,55,,,,,,,,,,,,,808.7089228981094,,,,,AMP_prac,right,0.7170762590394588,,,,,,,,,,,,,,,,,,,,,1,,,right,0.5158535435475642,,,,,,,,,,,,,,1001,2019_Apr_29_1653,mf_amp_cond1,3.0.7,59.98637887861687,
safety,,&&&&&&,images/symbols/symbol_75.png,condition_files/AMP_rep4.csv,left,care.virtue,,,,,,,,,,,,,,,,,,,,,0,1,1,3,0,56,56,56,,,,,,,,,,,,,809.4258099319486,,,,,AMP_prac,right,0.7170762590394588,,,,,,,,,,,,,,,,,,,,,1,,,left,0.4991706163418712,,,,,,,,,,,,,,1001,2019_Apr_29_1653,mf_amp_cond1,3.0.7,59.98637887861687,
racist,,&&&&&&,images/symbols/symbol_3.png,condition_files/AMP_rep4.csv,right,sanctity.vice,,,,,,,,,,,,,,,,,,,,,0,1,1,3,0,57,57,57,,,,,,,,,,,,,810.1592881668839,,,,,AMP_prac,right,0.7170762590394588,,,,,,,,,,,,,,,,,,,,,1,,,right,0.5160661813533807,,,,,,,,,,,,,,1001,2019_Apr_29_1653,mf_amp_cond1,3.0.7,59.98637887861687,
interests,,&&&&&&&&&,images/symbols/symbol_8.png,condition_files/AMP_rep4.csv,left,fairness.virtue,,,,,,,,,,,,,,,,,,,,,0,1,1,3,0,58,58,58,,,,,,,,,,,,,811.1428640612612,,,,,AMP_prac,right,0.7170762590394588,,,,,,,,,,,,,,,,,,,,,1,,,left,0.7662183633110544,,,,,,,,,,,,,,1001,2019_Apr_29_1653,mf_amp_cond1,3.0.7,59.98637887861687,
peaceful,,&&&&&&&&,images/symbols/symbol_81.png,condition_files/AMP_rep4.csv,left,authority.virtue,,,,,,,,,,,,,,,,,,,,,0,1,1,3,0,59,59,59,,,,,,,,,,,,,812.0764338298723,,,,,AMP_prac,right,0.7170762590394588,,,,,,,,,,,,,,,,,,,,,1,,,left,0.700398784083518,,,,,,,,,,,,,,1001,2019_Apr_29_1653,mf_amp_cond1,3.0.7,59.98637887861687,
officers,,&&&&&&&&,images/symbols/symbol_35.png,condition_files/AMP_rep4.csv,right,authority.vice,,,,,,,,,,,,,,,,,,,,,0,1,1,3,0,60,60,60,,,,,,,,,,,,,813.1934259959489,,,,,AMP_prac,right,0.7170762590394588,,,,,,,,,,,,,,,,,,,,,1,,,right,0.8988937702597468,,,,,,,,,,,,,,1001,2019_Apr_29_1653,mf_amp_cond1,3.0.7,59.98637887861687,
party,,&&&&&,images/symbols/symbol_40.png,condition_files/AMP_rep4.csv,left,loyalty.virtue,,,,,,,,,,,,,,,,,,,,,0,1,1,3,0,61,61,61,,,,,,,,,,,,,815.6940032931598,,,,,AMP_prac,right,0.7170762590394588,,,,,,,,,,,,,,,,,,,,,1,,,left,2.283091477875132,,,,,,,,,,,,,,1001,2019_Apr_29_1653,mf_amp_cond1,3.0.7,59.98637887861687,
sharing,,&&&&&&&,images/symbols/symbol_45.png,condition_files/AMP_rep4.csv,left,loyalty.virtue,,,,,,,,,,,,,,,,,,,,,0,1,1,3,0,62,62,62,,,,,,,,,,,,,816.6109071327628,,,,,AMP_prac,right,0.7170762590394588,,,,,,,,,,,,,,,,,,,,,1,,,right,0.6993788923464308,,,,,,,,,,,,,,1001,2019_Apr_29_1653,mf_amp_cond1,3.0.7,59.98637887861687,
death,,&&&&&,images/symbols/symbol_2.png,condition_files/AMP_rep4.csv,right,care.vice,,,,,,,,,,,,,,,,,,,,,0,1,1,3,0,63,63,63,,,,,,,,,,,,,817.4277685730958,,,,,AMP_prac,right,0.7170762590394588,,,,,,,,,,,,,,,,,,,,,1,,,right,0.5994144281939953,,,,,,,,,,,,,,1001,2019_Apr_29_1653,mf_amp_cond1,3.0.7,59.98637887861687,
slavery,,&&&&&&&,images/symbols/symbol_64.png,condition_files/AMP_rep4.csv,right,loyalty.vice,,,,,,,,,,,,,,,,,,,,,0,1,1,3,0,64,64,64,,,,,,,,,,,,,818.7114296508844,,,,,AMP_prac,right,0.7170762590394588,,,,,,,,,,,,,,,,,,,,,1,,,right,1.0505022806464694,,,,,,,,,,,,,,1001,2019_Apr_29_1653,mf_amp_cond1,3.0.7,59.98637887861687,
rhuissed,,&&&&&&&&,images/symbols/symbol_36.png,condition_files/AMP_rep4.csv,None,nonword,,,,,,,,,,,,,,,,,,,,,0,1,1,3,0,65,65,65,,,,,,,,,,,,,819.5449887715695,,,,,AMP_prac,right,0.7170762590394588,,,,,,,,,,,,,,,,,,,,,1,,,right,0.6155248690047301,,,,,,,,,,,,,,1001,2019_Apr_29_1653,mf_amp_cond1,3.0.7,59.98637887861687,
fighters,,&&&&&&&&,images/symbols/symbol_13.png,condition_files/AMP_rep4.csv,right,authority.vice,,,,,,,,,,,,,,,,,,,,,0,1,1,3,0,66,66,66,,,,,,,,,,,,,820.2284701816388,,,,,AMP_prac,right,0.7170762590394588,,,,,,,,,,,,,,,,,,,,,1,,,right,0.4660218898279709,,,,,,,,,,,,,,1001,2019_Apr_29_1653,mf_amp_cond1,3.0.7,59.98637887861687,
rejected,,&&&&&&&&,images/symbols/symbol_16.png,condition_files/AMP_rep4.csv,right,authority.vice,,,,,,,,,,,,,,,,,,,,,0,1,1,3,0,67,67,67,,,,,,,,,,,,,820.9786614915174,,,,,AMP_prac,right,0.7170762590394588,,,,,,,,,,,,,,,,,,,,,1,,,right,0.5329681607727252,,,,,,,,,,,,,,1001,2019_Apr_29_1653,mf_amp_cond1,3.0.7,59.98637887861687,
troalde,,&&&&&&&,images/symbols/symbol_79.png,condition_files/AMP_rep4.csv,None,nonword,,,,,,,,,,,,,,,,,,,,,0,1,1,3,0,68,68,68,,,,,,,,,,,,,821.8622058911242,,,,,AMP_prac,right,0.7170762590394588,,,,,,,,,,,,,,,,,,,,,1,,,left,0.6660095100087347,,,,,,,,,,,,,,1001,2019_Apr_29_1653,mf_amp_cond1,3.0.7,59.98637887861687,
peighld,,&&&&&&&,images/symbols/symbol_61.png,condition_files/AMP_rep4.csv,None,nonword,,,,,,,,,,,,,,,,,,,,,0,1,1,3,0,69,69,69,,,,,,,,,,,,,822.8457830683874,,,,,AMP_prac,right,0.7170762590394588,,,,,,,,,,,,,,,,,,,,,1,,,left,0.7661773110630747,,,,,,,,,,,,,,1001,2019_Apr_29_1653,mf_amp_cond1,3.0.7,59.98637887861687,
terrorist,,&&&&&&&&&,images/symbols/symbol_67.png,condition_files/AMP_rep4.csv,right,loyalty.vice,,,,,,,,,,,,,,,,,,,,,0,1,1,3,0,70,70,70,,,,,,,,,,,,,823.6459894842119,,,,,AMP_prac,right,0.7170762590394588,,,,,,,,,,,,,,,,,,,,,1,,,left,0.5826936559533351,,,,,,,,,,,,,,1001,2019_Apr_29_1653,mf_amp_cond1,3.0.7,59.98637887861687,
corruption,,&&&&&&&&&&,images/symbols/symbol_23.png,condition_files/AMP_rep4.csv,right,sanctity.vice,,,,,,,,,,,,,,,,,,,,,0,1,1,3,0,71,71,71,,,,,,,,,,,,,824.462859904721,,,,,AMP_prac,right,0.7170762590394588,,,,,,,,,,,,,,,,,,,,,1,,,left,0.599372093067359,,,,,,,,,,,,,,1001,2019_Apr_29_1653,mf_amp_cond1,3.0.7,59.98637887861687,
pleasant,,&&&&&&&,images/symbols/symbol_63.png,condition_files/AMP_rep4.csv,right,control,,,,,,,,,,,,,,,,,,,,,0,1,1,3,0,72,72,72,,,,,,,,,,,,,825.3297451104518,,,,,AMP_prac,right,0.7170762590394588,,,,,,,,,,,,,,,,,,,,,1,,,left,0.6495158080033434,,,,,,,,,,,,,,1001,2019_Apr_29_1653,mf_amp_cond1,3.0.7,59.98637887861687,
integrity,,&&&&&&&&&,images/symbols/symbol_57.png,condition_files/AMP_rep4.csv,left,fairness.virtue,,,,,,,,,,,,,,,,,,,,,0,1,1,3,0,73,73,73,,,,,,,,,,,,,826.9301576213802,,,,,AMP_prac,right,0.7170762590394588,,,,,,,,,,,,,,,,,,,,,1,,,left,1.3830110411290661,,,,,,,,,,,,,,1001,2019_Apr_29_1653,mf_amp_cond1,3.0.7,59.98637887861687,
abuse,,&&&&&,images/symbols/symbol_54.png,condition_files/AMP_rep4.csv,right,sanctity.vice,,,,,,,,,,,,,,,,,,,,,0,1,1,3,0,74,74,74,,,,,,,,,,,,,827.7304054101733,,,,,AMP_prac,right,0.7170762590394588,,,,,,,,,,,,,,,,,,,,,1,,,left,0.5825544631843513,,,,,,,,,,,,,,1001,2019_Apr_29_1653,mf_amp_cond1,3.0.7,59.98637887861687,
died,,&&&&,images/symbols/symbol_53.png,condition_files/AMP_rep4.csv,right,care.vice,,,,,,,,,,,,,,,,,,,,,0,1,1,3,0,75,75,75,,,,,,,,,,,,,828.8139467308611,,,,,AMP_prac,right,0.7170762590394588,,,,,,,,,,,,,,,,,,,,,1,,,left,0.8662517824050155,,,,,,,,,,,,,,1001,2019_Apr_29_1653,mf_amp_cond1,3.0.7,59.98637887861687,
crime,,&&&&&,images/symbols/symbol_4.png,condition_files/AMP_rep4.csv,right,fairness.vice,,,,,,,,,,,,,,,,,,,,,0,1,1,3,0,76,76,76,,,,,,,,,,,,,830.2643055852241,,,,,AMP_prac,right,0.7170762590394588,,,,,,,,,,,,,,,,,,,,,1,,,left,1.217198453614401,,,,,,,,,,,,,,1001,2019_Apr_29_1653,mf_amp_cond1,3.0.7,59.98637887861687,
hate,,&&&&,images/symbols/symbol_49.png,condition_files/AMP_rep4.csv,right,fairness.vice,,,,,,,,,,,,,,,,,,,,,0,1,1,3,0,77,77,77,,,,,,,,,,,,,831.0478643531169,,,,,AMP_prac,right,0.7170762590394588,,,,,,,,,,,,,,,,,,,,,1,,,left,0.5503868212035741,,,,,,,,,,,,,,1001,2019_Apr_29_1653,mf_amp_cond1,3.0.7,59.98637887861687,
troops,,&&&&&&,images/symbols/symbol_47.png,condition_files/AMP_rep4.csv,right,loyalty.vice,,,,,,,,,,,,,,,,,,,,,0,1,1,3,0,78,78,78,,,,,,,,,,,,,832.1147711754238,,,,,AMP_prac,right,0.7170762590394588,,,,,,,,,,,,,,,,,,,,,1,,,left,0.8490954714870895,,,,,,,,,,,,,,1001,2019_Apr_29_1653,mf_amp_cond1,3.0.7,59.98637887861687,
penalty,,&&&&&&&,images/symbols/symbol_30.png,condition_files/AMP_rep4.csv,right,authority.vice,,,,,,,,,,,,,,,,,,,,,0,1,1,3,0,79,79,79,,,,,,,,,,,,,832.8149550766539,,,,,AMP_prac,right,0.7170762590394588,,,,,,,,,,,,,,,,,,,,,1,,,right,0.48284433052685927,,,,,,,,,,,,,,1001,2019_Apr_29_1653,mf_amp_cond1,3.0.7,59.98637887861687,
phlaide,,&&&&&&&,images/symbols/symbol_62.png,condition_files/AMP_rep4.csv,None,nonword,,,,,,,,,,,,,,,,,,,,,0,1,1,3,0,80,80,80,,,,,,,,,,,,,833.5651370856358,,,,,AMP_prac,right,0.7170762590394588,,,,,,,,,,,,,,,,,,,,,1,,,left,0.5170174388658779,,,,,,,,,,,,,,1001,2019_Apr_29_1653,mf_amp_cond1,3.0.7,59.98637887861687,
care,,&&&&,images/symbols/symbol_20.png,condition_files/AMP_rep4.csv,left,care.virtue,,,,,,,,,,,,,,,,,,,,,0,1,1,3,0,81,81,81,,,,,,,,,,,,,834.3653325969572,,,,,AMP_prac,right,0.7170762590394588,,,,,,,,,,,,,,,,,,,,,1,,,right,0.5828501676405722,,,,,,,,,,,,,,1001,2019_Apr_29_1653,mf_amp_cond1,3.0.7,59.98637887861687,
,,,,condition_files/AMP_rep4.csv,,,,,,,,,,,,,,,,,,,,,,,0,1,1,3,,,,,,,,,,,,,,,,,,,,,,,,,,,,,,,,,,,,,,,,,,,,,,,,,,right,1.2338541195604193,,,,,,,,,,,,1001,2019_Apr_29_1653,mf_amp_cond1,3.0.7,59.98637887861687,
conspiracy,,&&&&&&&&&&,images/symbols/symbol_69.png,condition_files/AMP_rep2.csv,right,sanctity.vice,,,,,,,,,,,,,,,,,,,,,0,2,2,1,0,0,0,0,,,,,,,,,,,,,836.4659949492925,,,,,AMP_prac,right,0.7170762590394588,,,,,,,,,,,,,,,,,,,,,1,,,left,0.6003733830075362,,,,,,,,,,,,,,1001,2019_Apr_29_1653,mf_amp_cond1,3.0.7,59.98637887861687,
shypse,,&&&&&&,images/symbols/symbol_9.png,condition_files/AMP_rep2.csv,None,nonword,,,,,,,,,,,,,,,,,,,,,0,2,2,1,0,1,1,1,,,,,,,,,,,,,839.0164927398473,,,,,AMP_prac,right,0.7170762590394588,,,,,,,,,,,,,,,,,,,,,1,,,left,2.3328128036810085,,,,,,,,,,,,,,1001,2019_Apr_29_1653,mf_amp_cond1,3.0.7,59.98637887861687,
loyalty,,&&&&&&&,images/symbols/symbol_12.png,condition_files/AMP_rep2.csv,left,loyalty.virtue,,,,,,,,,,,,,,,,,,,,,0,2,2,1,0,2,2,2,,,,,,,,,,,,,839.9500586598115,,,,,AMP_prac,right,0.7170762590394588,,,,,,,,,,,,,,,,,,,,,1,,,right,0.700407122822071,,,,,,,,,,,,,,1001,2019_Apr_29_1653,mf_amp_cond1,3.0.7,59.98637887861687,
embrace,,&&&&&&&,images/symbols/symbol_21.png,condition_files/AMP_rep2.csv,left,authority.virtue,,,,,,,,,,,,,,,,,,,,,0,2,2,1,0,3,3,3,,,,,,,,,,,,,841.1003647235484,,,,,AMP_prac,right,0.7170762590394588,,,,,,,,,,,,,,,,,,,,,1,,,right,0.9328593723221275,,,,,,,,,,,,,,1001,2019_Apr_29_1653,mf_amp_cond1,3.0.7,59.98637887861687,
sneaze,,&&&&&&,images/symbols/symbol_22.png,condition_files/AMP_rep2.csv,None,nonword,,,,,,,,,,,,,,,,,,,,,0,2,2,1,0,4,4,4,,,,,,,,,,,,,842.9508062596979,,,,,AMP_prac,right,0.7170762590394588,,,,,,,,,,,,,,,,,,,,,1,,,right,1.6329335870905197,,,,,,,,,,,,,,1001,2019_Apr_29_1653,mf_amp_cond1,3.0.7,59.98637887861687,
growth,,&&&&&&,images/symbols/symbol_5.png,condition_files/AMP_rep2.csv,left,care.virtue,,,,,,,,,,,,,,,,,,,,,0,2,2,1,0,5,5,5,,,,,,,,,,,,,844.3845174661255,,,,,AMP_prac,right,0.7170762590394588,,,,,,,,,,,,,,,,,,,,,1,,,right,1.2163171132051502,,,,,,,,,,,,,,1001,2019_Apr_29_1653,mf_amp_cond1,3.0.7,59.98637887861687,
civilians,,&&&&&&&&&,images/symbols/symbol_28.png,condition_files/AMP_rep2.csv,right,care.vice,,,,,,,,,,,,,,,,,,,,,0,2,2,1,0,6,6,6,,,,,,,,,,,,,845.1345673381911,,,,,AMP_prac,right,0.7170762590394588,,,,,,,,,,,,,,,,,,,,,1,,,left,0.5322115807102819,,,,,,,,,,,,,,1001,2019_Apr_29_1653,mf_amp_cond1,3.0.7,59.98637887861687,
coacs,,&&&&&,images/symbols/symbol_19.png,condition_files/AMP_rep2.csv,None,nonword,,,,,,,,,,,,,,,,,,,,,0,2,2,1,0,7,7,7,,,,,,,,,,,,,845.9682499363371,,,,,AMP_prac,right,0.7170762590394588,,,,,,,,,,,,,,,,,,,,,1,,,right,0.6161579716062988,,,,,,,,,,,,,,1001,2019_Apr_29_1653,mf_amp_cond1,3.0.7,59.98637887861687,
violations,,&&&&&&&&&&,images/symbols/symbol_66.png,condition_files/AMP_rep2.csv,right,sanctity.vice,,,,,,,,,,,,,,,,,,,,,0,2,2,1,0,8,8,8,,,,,,,,,,,,,846.9518104361232,,,,,AMP_prac,right,0.7170762590394588,,,,,,,,,,,,,,,,,,,,,1,,,left,0.7503853458874801,,,,,,,,,,,,,,1001,2019_Apr_29_1653,mf_amp_cond1,3.0.7,59.98637887861687,
ban,,&&&,images/symbols/symbol_58.png,condition_files/AMP_rep2.csv,right,loyalty.vice,,,,,,,,,,,,,,,,,,,,,0,2,2,1,0,9,9,9,,,,,,,,,,,,,847.8687097856382,,,,,AMP_prac,right,0.7170762590394588,,,,,,,,,,,,,,,,,,,,,1,,,left,0.6992570184920623,,,,,,,,,,,,,,1001,2019_Apr_29_1653,mf_amp_cond1,3.0.7,59.98637887861687,
failure,,&&&&&&&,images/symbols/symbol_38.png,condition_files/AMP_rep2.csv,right,loyalty.vice,,,,,,,,,,,,,,,,,,,,,0,2,2,1,0,10,10,10,,,,,,,,,,,,,848.7355981985747,,,,,AMP_prac,right,0.7170762590394588,,,,,,,,,,,,,,,,,,,,,1,,,right,0.6494750764759374,,,,,,,,,,,,,,1001,2019_Apr_29_1653,mf_amp_cond1,3.0.7,59.98637887861687,
win,,&&&,images/symbols/symbol_51.png,condition_files/AMP_rep2.csv,left,fairness.virtue,,,,,,,,,,,,,,,,,,,,,0,2,2,1,0,11,11,11,,,,,,,,,,,,,849.4524685549404,,,,,AMP_prac,right,0.7170762590394588,,,,,,,,,,,,,,,,,,,,,1,,,left,0.49982328290934674,,,,,,,,,,,,,,1001,2019_Apr_29_1653,mf_amp_cond1,3.0.7,59.98637887861687,
lies,,&&&&,images/symbols/symbol_43.png,condition_files/AMP_rep2.csv,right,fairness.vice,,,,,,,,,,,,,,,,,,,,,0,2,2,1,0,12,12,12,,,,,,,,,,,,,850.2859923963551,,,,,AMP_prac,right,0.7170762590394588,,,,,,,,,,,,,,,,,,,,,1,,,left,0.6003945505690353,,,,,,,,,,,,,,1001,2019_Apr_29_1653,mf_amp_cond1,3.0.7,59.98637887861687,
betrayal,,&&&&&&&&,images/symbols/symbol_32.png,condition_files/AMP_rep2.csv,right,loyalty.vice,,,,,,,,,,,,,,,,,,,,,0,2,2,1,0,13,13,13,,,,,,,,,,,,,851.0361869134431,,,,,AMP_prac,right,0.7170762590394588,,,,,,,,,,,,,,,,,,,,,1,,,right,0.5325149824639084,,,,,,,,,,,,,,1001,2019_Apr_29_1653,mf_amp_cond1,3.0.7,59.98637887861687,
trust,,&&&&&,images/symbols/symbol_1.png,condition_files/AMP_rep2.csv,left,authority.virtue,,,,,,,,,,,,,,,,,,,,,0,2,2,1,0,14,14,14,,,,,,,,,,,,,852.1364534964632,,,,,AMP_prac,right,0.7170762590394588,,,,,,,,,,,,,,,,,,,,,1,,,right,0.8827506159468612,,,,,,,,,,,,,,1001,2019_Apr_29_1653,mf_amp_cond1,3.0.7,59.98637887861687,
fear,,&&&&,images/symbols/symbol_60.png,condition_files/AMP_rep2.csv,right,sanctity.vice,,,,,,,,,,,,,,,,,,,,,0,2,2,1,0,15,15,15,,,,,,,,,,,,,852.903304320942,,,,,AMP_prac,right,0.7170762590394588,,,,,,,,,,,,,,,,,,,,,1,,,left,0.5493823240576603,,,,,,,,,,,,,,1001,2019_Apr_29_1653,mf_amp_cond1,3.0.7,59.98637887861687,
army,,&&&&,images/symbols/symbol_59.png,condition_files/AMP_rep2.csv,right,loyalty.vice,,,,,,,,,,,,,,,,,,,,,0,2,2,1,0,16,16,16,,,,,,,,,,,,,854.8204355515009,,,,,AMP_prac,right,0.7170762590394588,,,,,,,,,,,,,,,,,,,,,1,,,right,1.6997541355340218,,,,,,,,,,,,,,1001,2019_Apr_29_1653,mf_amp_cond1,3.0.7,59.98637887861687,
torture,,&&&&&&&,images/symbols/symbol_33.png,condition_files/AMP_rep2.csv,right,care.vice,,,,,,,,,,,,,,,,,,,,,0,2,2,1,0,17,17,17,,,,,,,,,,,,,855.6206599276848,,,,,AMP_prac,right,0.7170762590394588,,,,,,,,,,,,,,,,,,,,,1,,,right,0.5826285496550554,,,,,,,,,,,,,,1001,2019_Apr_29_1653,mf_amp_cond1,3.0.7,59.98637887861687,
perfect,,&&&&&&&,images/symbols/symbol_26.png,condition_files/AMP_rep2.csv,left,sanctity.virtue,,,,,,,,,,,,,,,,,,,,,0,2,2,1,0,18,18,18,,,,,,,,,,,,,856.3541676689201,,,,,AMP_prac,right,0.7170762590394588,,,,,,,,,,,,,,,,,,,,,1,,,left,0.5160456552293908,,,,,,,,,,,,,,1001,2019_Apr_29_1653,mf_amp_cond1,3.0.7,59.98637887861687,
good,,&&&&,images/symbols/symbol_6.png,condition_files/AMP_rep2.csv,left,care.virtue,,,,,,,,,,,,,,,,,,,,,0,2,2,1,0,19,19,19,,,,,,,,,,,,,857.2877351924872,,,,,AMP_prac,right,0.7170762590394588,,,,,,,,,,,,,,,,,,,,,1,,,right,0.7004100093072338,,,,,,,,,,,,,,1001,2019_Apr_29_1653,mf_amp_cond1,3.0.7,59.98637887861687,
health,,&&&&&&,images/symbols/symbol_48.png,condition_files/AMP_rep2.csv,left,care.virtue,,,,,,,,,,,,,,,,,,,,,0,2,2,1,0,20,20,20,,,,,,,,,,,,,858.0379402933577,,,,,AMP_prac,right,0.7170762590394588,,,,,,,,,,,,,,,,,,,,,1,,,right,0.5324418581512873,,,,,,,,,,,,,,1001,2019_Apr_29_1653,mf_amp_cond1,3.0.7,59.98637887861687,
shot,,&&&&,images/symbols/symbol_11.png,condition_files/AMP_rep2.csv,right,care.vice,,,,,,,,,,,,,,,,,,,,,0,2,2,1,0,21,21,21,,,,,,,,,,,,,859.3382333037625,,,,,AMP_prac,right,0.7170762590394588,,,,,,,,,,,,,,,,,,,,,1,,,left,1.0829620991571574,,,,,,,,,,,,,,1001,2019_Apr_29_1653,mf_amp_cond1,3.0.7,59.98637887861687,
safe,,&&&&,images/symbols/symbol_29.png,condition_files/AMP_rep2.csv,left,care.virtue,,,,,,,,,,,,,,,,,,,,,0,2,2,1,0,22,22,22,,,,,,,,,,,,,860.321822347687,,,,,AMP_prac,right,0.7170762590394588,,,,,,,,,,,,,,,,,,,,,1,,,left,0.7658498552591482,,,,,,,,,,,,,,1001,2019_Apr_29_1653,mf_amp_cond1,3.0.7,59.98637887861687,
skypped,,&&&&&&&,images/symbols/symbol_15.png,condition_files/AMP_rep2.csv,None,nonword,,,,,,,,,,,,,,,,,,,,,0,2,2,1,0,23,23,23,,,,,,,,,,,,,861.205404592336,,,,,AMP_prac,right,0.7170762590394588,,,,,,,,,,,,,,,,,,,,,1,,,left,0.6661791712467675,,,,,,,,,,,,,,1001,2019_Apr_29_1653,mf_amp_cond1,3.0.7,59.98637887861687,
illegal,,&&&&&&&,images/symbols/symbol_10.png,condition_files/AMP_rep2.csv,right,fairness.vice,,,,,,,,,,,,,,,,,,,,,0,2,2,1,0,24,24,24,,,,,,,,,,,,,861.9555686409585,,,,,AMP_prac,right,0.7170762590394588,,,,,,,,,,,,,,,,,,,,,1,,,left,0.5329139589812257,,,,,,,,,,,,,,1001,2019_Apr_29_1653,mf_amp_cond1,3.0.7,59.98637887861687,
energy,,&&&&&&,images/symbols/symbol_80.png,condition_files/AMP_rep2.csv,left,sanctity.virtue,,,,,,,,,,,,,,,,,,,,,0,2,2,1,0,25,25,25,,,,,,,,,,,,,862.655759918769,,,,,AMP_prac,right,0.7170762590394588,,,,,,,,,,,,,,,,,,,,,1,,,left,0.48298544761928497,,,,,,,,,,,,,,1001,2019_Apr_29_1653,mf_amp_cond1,3.0.7,59.98637887861687,
respect,,&&&&&&&,images/symbols/symbol_44.png,condition_files/AMP_rep2.csv,left,sanctity.virtue,,,,,,,,,,,,,,,,,,,,,0,2,2,1,0,26,26,26,,,,,,,,,,,,,863.505957065765,,,,,AMP_prac,right,0.7170762590394588,,,,,,,,,,,,,,,,,,,,,1,,,right,0.6327151763107395,,,,,,,,,,,,,,1001,2019_Apr_29_1653,mf_amp_cond1,3.0.7,59.98637887861687,
accused,,&&&&&&&,images/symbols/symbol_71.png,condition_files/AMP_rep2.csv,right,fairness.vice,,,,,,,,,,,,,,,,,,,,,0,2,2,1,0,27,27,27,,,,,,,,,,,,,864.2061438534838,,,,,AMP_prac,right,0.7170762590394588,,,,,,,,,,,,,,,,,,,,,1,,,left,0.4670318392236368,,,,,,,,,,,,,,1001,2019_Apr_29_1653,mf_amp_cond1,3.0.7,59.98637887861687,
increase,,&&&&&&&&,images/symbols/symbol_78.png,condition_files/AMP_rep2.csv,left,care.virtue,,,,,,,,,,,,,,,,,,,,,0,2,2,1,0,28,28,28,,,,,,,,,,,,,865.1897293694819,,,,,AMP_prac,right,0.7170762590394588,,,,,,,,,,,,,,,,,,,,,1,,,left,0.7658992462420429,,,,,,,,,,,,,,1001,2019_Apr_29_1653,mf_amp_cond1,3.0.7,59.98637887861687,
police,,&&&&&&,images/symbols/symbol_24.png,condition_files/AMP_rep2.csv,right,authority.vice,,,,,,,,,,,,,,,,,,,,,0,2,2,1,0,29,29,29,,,,,,,,,,,,,866.3233213961103,,,,,AMP_prac,right,0.7170762590394588,,,,,,,,,,,,,,,,,,,,,1,,,right,0.900454717768298,,,,,,,,,,,,,,1001,2019_Apr_29_1653,mf_amp_cond1,3.0.7,59.98637887861687,
threatened,,&&&&&&&&&&,images/symbols/symbol_31.png,condition_files/AMP_rep2.csv,right,fairness.vice,,,,,,,,,,,,,,,,,,,,,0,2,2,1,0,30,30,30,,,,,,,,,,,,,867.1568631978807,,,,,AMP_prac,right,0.7170762590394588,,,,,,,,,,,,,,,,,,,,,1,,,left,0.6169507931081171,,,,,,,,,,,,,,1001,2019_Apr_29_1653,mf_amp_cond1,3.0.7,59.98637887861687,
killed,,&&&&&&,images/symbols/symbol_77.png,condition_files/AMP_rep2.csv,right,care.vice,,,,,,,,,,,,,,,,,,,,,0,2,2,1,0,31,31,31,,,,,,,,,,,,,867.9737233553278,,,,,AMP_prac,right,0.7170762590394588,,,,,,,,,,,,,,,,,,,,,1,,,right,0.5994958912488073,,,,,,,,,,,,,,1001,2019_Apr_29_1653,mf_amp_cond1,3.0.7,59.98637887861687,
charges,,&&&&&&&,images/symbols/symbol_42.png,condition_files/AMP_rep2.csv,right,fairness.vice,,,,,,,,,,,,,,,,,,,,,0,2,2,1,0,32,32,32,,,,,,,,,,,,,868.823929803224,,,,,AMP_prac,right,0.7170762590394588,,,,,,,,,,,,,,,,,,,,,1,,,left,0.632726722255029,,,,,,,,,,,,,,1001,2019_Apr_29_1653,mf_amp_cond1,3.0.7,59.98637887861687,
unpleasant,,&&&&&&&&&,images/symbols/symbol_72.png,condition_files/AMP_rep2.csv,left,control,,,,,,,,,,,,,,,,,,,,,0,2,2,1,0,33,33,33,,,,,,,,,,,,,869.7408532067893,,,,,AMP_prac,right,0.7170762590394588,,,,,,,,,,,,,,,,,,,,,1,,,right,0.6837472875049571,,,,,,,,,,,,,,1001,2019_Apr_29_1653,mf_amp_cond1,3.0.7,59.98637887861687,
free,,&&&&,images/symbols/symbol_70.png,condition_files/AMP_rep2.csv,left,fairness.virtue,,,,,,,,,,,,,,,,,,,,,0,2,2,1,0,34,34,34,,,,,,,,,,,,,870.5577095155895,,,,,AMP_prac,right,0.7170762590394588,,,,,,,,,,,,,,,,,,,,,1,,,right,0.5993919777502015,,,,,,,,,,,,,,1001,2019_Apr_29_1653,mf_amp_cond1,3.0.7,59.98637887861687,
faith,,&&&&&,images/symbols/symbol_7.png,condition_files/AMP_rep2.csv,left,sanctity.virtue,,,,,,,,,,,,,,,,,,,,,0,2,2,1,0,35,35,35,,,,,,,,,,,,,871.8080204542821,,,,,AMP_prac,right,0.7170762590394588,,,,,,,,,,,,,,,,,,,,,1,,,right,1.0330079301420483,,,,,,,,,,,,,,1001,2019_Apr_29_1653,mf_amp_cond1,3.0.7,59.98637887861687,
knapps,,&&&&&&,images/symbols/symbol_34.png,condition_files/AMP_rep2.csv,None,nonword,,,,,,,,,,,,,,,,,,,,,0,2,2,1,0,36,36,36,,,,,,,,,,,,,872.7249114650585,,,,,AMP_prac,right,0.7170762590394588,,,,,,,,,,,,,,,,,,,,,1,,,left,0.6993137860481511,,,,,,,,,,,,,,1001,2019_Apr_29_1653,mf_amp_cond1,3.0.7,59.98637887861687,
strength,,&&&&&&&&,images/symbols/symbol_46.png,condition_files/AMP_rep2.csv,left,sanctity.virtue,,,,,,,,,,,,,,,,,,,,,0,2,2,1,0,37,37,37,,,,,,,,,,,,,873.6084776736716,,,,,AMP_prac,right,0.7170762590394588,,,,,,,,,,,,,,,,,,,,,1,,,right,0.6661419676493097,,,,,,,,,,,,,,1001,2019_Apr_29_1653,mf_amp_cond1,3.0.7,59.98637887861687,
benefit,,&&&&&&&,images/symbols/symbol_68.png,condition_files/AMP_rep2.csv,left,fairness.virtue,,,,,,,,,,,,,,,,,,,,,0,2,2,1,0,38,38,38,,,,,,,,,,,,,874.4920284876935,,,,,AMP_prac,right,0.7170762590394588,,,,,,,,,,,,,,,,,,,,,1,,,left,0.6503766222849663,,,,,,,,,,,,,,1001,2019_Apr_29_1653,mf_amp_cond1,3.0.7,59.98637887861687,
promote,,&&&&&&&,images/symbols/symbol_73.png,condition_files/AMP_rep2.csv,left,sanctity.virtue,,,,,,,,,,,,,,,,,,,,,0,2,2,1,0,39,39,39,,,,,,,,,,,,,875.3089287352268,,,,,AMP_prac,right,0.7170762590394588,,,,,,,,,,,,,,,,,,,,,1,,,left,0.5991973003001476,,,,,,,,,,,,,,1001,2019_Apr_29_1653,mf_amp_cond1,3.0.7,59.98637887861687,
commitment,,&&&&&&&&&&,images/symbols/symbol_41.png,condition_files/AMP_rep2.csv,left,sanctity.virtue,,,,,,,,,,,,,,,,,,,,,0,2,2,1,0,40,40,40,,,,,,,,,,,,,876.0924172652922,,,,,AMP_prac,right,0.7170762590394588,,,,,,,,,,,,,,,,,,,,,1,,,right,0.5664892439926916,,,,,,,,,,,,,,1001,2019_Apr_29_1653,mf_amp_cond1,3.0.7,59.98637887861687,
friends,,&&&&&&&,images/symbols/symbol_56.png,condition_files/AMP_rep2.csv,left,loyalty.virtue,,,,,,,,,,,,,,,,,,,,,0,2,2,1,0,41,41,41,,,,,,,,,,,,,876.9092973074221,,,,,AMP_prac,right,0.7170762590394588,,,,,,,,,,,,,,,,,,,,,1,,,right,0.5992402768715692,,,,,,,,,,,,,,1001,2019_Apr_29_1653,mf_amp_cond1,3.0.7,59.98637887861687,
drug,,&&&&,images/symbols/symbol_82.png,condition_files/AMP_rep2.csv,right,sanctity.vice,,,,,,,,,,,,,,,,,,,,,0,2,2,1,0,42,42,42,,,,,,,,,,,,,877.6261699088318,,,,,AMP_prac,right,0.7170762590394588,,,,,,,,,,,,,,,,,,,,,1,,,left,0.49974342346104095,,,,,,,,,,,,,,1001,2019_Apr_29_1653,mf_amp_cond1,3.0.7,59.98637887861687,
honored,,&&&&&&&,images/symbols/symbol_39.png,condition_files/AMP_rep2.csv,left,authority.virtue,,,,,,,,,,,,,,,,,,,,,0,2,2,1,0,43,43,43,,,,,,,,,,,,,878.6764255552807,,,,,AMP_prac,right,0.7170762590394588,,,,,,,,,,,,,,,,,,,,,1,,,right,0.8327954847627552,,,,,,,,,,,,,,1001,2019_Apr_29_1653,mf_amp_cond1,3.0.7,59.98637887861687,
snauz,,&&&&&,images/symbols/symbol_50.png,condition_files/AMP_rep2.csv,None,nonword,,,,,,,,,,,,,,,,,,,,,0,2,2,1,0,44,44,44,,,,,,,,,,,,,879.7266683728994,,,,,AMP_prac,right,0.7170762590394588,,,,,,,,,,,,,,,,,,,,,1,,,left,0.83290036042672,,,,,,,,,,,,,,1001,2019_Apr_29_1653,mf_amp_cond1,3.0.7,59.98637887861687,
actively,,&&&&&&&&,images/symbols/symbol_17.png,condition_files/AMP_rep2.csv,left,authority.virtue,,,,,,,,,,,,,,,,,,,,,0,2,2,1,0,45,45,45,,,,,,,,,,,,,880.6268889645798,,,,,AMP_prac,right,0.7170762590394588,,,,,,,,,,,,,,,,,,,,,1,,,left,0.6821869814339152,,,,,,,,,,,,,,1001,2019_Apr_29_1653,mf_amp_cond1,3.0.7,59.98637887861687,
ability,,&&&&&&&,images/symbols/symbol_14.png,condition_files/AMP_rep2.csv,left,authority.virtue,,,,,,,,,,,,,,,,,,,,,0,2,2,1,0,46,46,46,,,,,,,,,,,,,881.5771394153526,,,,,AMP_prac,right,0.7170762590394588,,,,,,,,,,,,,,,,,,,,,1,,,left,0.732789968369616,,,,,,,,,,,,,,1001,2019_Apr_29_1653,mf_amp_cond1,3.0.7,59.98637887861687,
credit,,&&&&&&,images/symbols/symbol_76.png,condition_files/AMP_rep2.csv,left,fairness.virtue,,,,,,,,,,,,,,,,,,,,,0,2,2,1,0,47,47,47,,,,,,,,,,,,,883.3442413641133,,,,,AMP_prac,right,0.7170762590394588,,,,,,,,,,,,,,,,,,,,,1,,,left,1.5500353113457095,,,,,,,,,,,,,,1001,2019_Apr_29_1653,mf_amp_cond1,3.0.7,59.98637887861687,
attacks,,&&&&&&&,images/symbols/symbol_52.png,condition_files/AMP_rep2.csv,right,care.vice,,,,,,,,,,,,,,,,,,,,,0,2,2,1,0,48,48,48,,,,,,,,,,,,,884.2111249662448,,,,,AMP_prac,right,0.7170762590394588,,,,,,,,,,,,,,,,,,,,,1,,,left,0.6337280121915683,,,,,,,,,,,,,,1001,2019_Apr_29_1653,mf_amp_cond1,3.0.7,59.98637887861687,
praised,,&&&&&&&,images/symbols/symbol_37.png,condition_files/AMP_rep2.csv,left,loyalty.virtue,,,,,,,,,,,,,,,,,,,,,0,2,2,1,0,49,49,49,,,,,,,,,,,,,884.9279565154102,,,,,AMP_prac,right,0.7170762590394588,,,,,,,,,,,,,,,,,,,,,1,,,left,0.48366954481389257,,,,,,,,,,,,,,1001,2019_Apr_29_1653,mf_amp_cond1,3.0.7,59.98637887861687,
refused,,&&&&&&&,images/symbols/symbol_18.png,condition_files/AMP_rep2.csv,right,authority.vice,,,,,,,,,,,,,,,,,,,,,0,2,2,1,0,50,50,50,,,,,,,,,,,,,885.7448516314107,,,,,AMP_prac,right,0.7170762590394588,,,,,,,,,,,,,,,,,,,,,1,,,right,0.5994602912505798,,,,,,,,,,,,,,1001,2019_Apr_29_1653,mf_amp_cond1,3.0.7,59.98637887861687,
great,,&&&&&,images/symbols/symbol_65.png,condition_files/AMP_rep2.csv,left,loyalty.virtue,,,,,,,,,,,,,,,,,,,,,0,2,2,1,0,51,51,51,,,,,,,,,,,,,886.4116786584127,,,,,AMP_prac,right,0.7170762590394588,,,,,,,,,,,,,,,,,,,,,1,,,left,0.449295344609709,,,,,,,,,,,,,,1001,2019_Apr_29_1653,mf_amp_cond1,3.0.7,59.98637887861687,
support,,&&&&&&&,images/symbols/symbol_74.png,condition_files/AMP_rep2.csv,left,loyalty.virtue,,,,,,,,,,,,,,,,,,,,,0,2,2,1,0,52,52,52,,,,,,,,,,,,,887.211869679646,,,,,AMP_prac,right,0.7170762590394588,,,,,,,,,,,,,,,,,,,,,1,,,left,0.5670344691316132,,,,,,,,,,,,,,1001,2019_Apr_29_1653,mf_amp_cond1,3.0.7,59.98637887861687,
agreement,,&&&&&&&&&,images/symbols/symbol_25.png,condition_files/AMP_rep2.csv,left,fairness.virtue,,,,,,,,,,,,,,,,,,,,,0,2,2,1,0,53,53,53,,,,,,,,,,,,,888.1120921956463,,,,,AMP_prac,right,0.7170762590394588,,,,,,,,,,,,,,,,,,,,,1,,,left,0.6824923075146216,,,,,,,,,,,,,,1001,2019_Apr_29_1653,mf_amp_cond1,3.0.7,59.98637887861687,
celebrated,,&&&&&&&&&&,images/symbols/symbol_55.png,condition_files/AMP_rep2.csv,left,authority.virtue,,,,,,,,,,,,,,,,,,,,,0,2,2,1,0,54,54,54,,,,,,,,,,,,,889.0623327040812,,,,,AMP_prac,right,0.7170762590394588,,,,,,,,,,,,,,,,,,,,,1,,,left,0.7326581521738262,,,,,,,,,,,,,,1001,2019_Apr_29_1653,mf_amp_cond1,3.0.7,59.98637887861687,
arrests,,&&&&&&&,images/symbols/symbol_27.png,condition_files/AMP_rep2.csv,right,authority.vice,,,,,,,,,,,,,,,,,,,,,0,2,2,1,0,55,55,55,,,,,,,,,,,,,889.962555540802,,,,,AMP_prac,right,0.7170762590394588,,,,,,,,,,,,,,,,,,,,,1,,,right,0.6825676768712583,,,,,,,,,,,,,,1001,2019_Apr_29_1653,mf_amp_cond1,3.0.7,59.98637887861687,
safety,,&&&&&&,images/symbols/symbol_75.png,condition_files/AMP_rep2.csv,left,care.virtue,,,,,,,,,,,,,,,,,,,,,0,2,2,1,0,56,56,56,,,,,,,,,,,,,890.6627269339297,,,,,AMP_prac,right,0.7170762590394588,,,,,,,,,,,,,,,,,,,,,1,,,left,0.48233823330156156,,,,,,,,,,,,,,1001,2019_Apr_29_1653,mf_amp_cond1,3.0.7,59.98637887861687,
racist,,&&&&&&,images/symbols/symbol_3.png,condition_files/AMP_rep2.csv,right,sanctity.vice,,,,,,,,,,,,,,,,,,,,,0,2,2,1,0,57,57,57,,,,,,,,,,,,,891.3796502092046,,,,,AMP_prac,right,0.7170762590394588,,,,,,,,,,,,,,,,,,,,,1,,,right,0.4995115424171672,,,,,,,,,,,,,,1001,2019_Apr_29_1653,mf_amp_cond1,3.0.7,59.98637887861687,
interests,,&&&&&&&&&,images/symbols/symbol_8.png,condition_files/AMP_rep2.csv,left,fairness.virtue,,,,,,,,,,,,,,,,,,,,,0,2,2,1,0,58,58,58,,,,,,,,,,,,,892.1964689936867,,,,,AMP_prac,right,0.7170762590394588,,,,,,,,,,,,,,,,,,,,,1,,,left,0.5993079489344382,,,,,,,,,,,,,,1001,2019_Apr_29_1653,mf_amp_cond1,3.0.7,59.98637887861687,
peaceful,,&&&&&&&&,images/symbols/symbol_81.png,condition_files/AMP_rep2.csv,left,authority.virtue,,,,,,,,,,,,,,,,,,,,,0,2,2,1,0,59,59,59,,,,,,,,,,,,,893.0800005644669,,,,,AMP_prac,right,0.7170762590394588,,,,,,,,,,,,,,,,,,,,,1,,,left,0.6503801502112765,,,,,,,,,,,,,,1001,2019_Apr_29_1653,mf_amp_cond1,3.0.7,59.98637887861687,
officers,,&&&&&&&&,images/symbols/symbol_35.png,condition_files/AMP_rep2.csv,right,authority.vice,,,,,,,,,,,,,,,,,,,,,0,2,2,1,0,60,60,60,,,,,,,,,,,,,893.8302409446114,,,,,AMP_prac,right,0.7170762590394588,,,,,,,,,,,,,,,,,,,,,1,,,right,0.532647760825057,,,,,,,,,,,,,,1001,2019_Apr_29_1653,mf_amp_cond1,3.0.7,59.98637887861687,
party,,&&&&&,images/symbols/symbol_40.png,condition_files/AMP_rep2.csv,left,loyalty.virtue,,,,,,,,,,,,,,,,,,,,,0,2,2,1,0,61,61,61,,,,,,,,,,,,,894.613719532339,,,,,AMP_prac,right,0.7170762590394588,,,,,,,,,,,,,,,,,,,,,1,,,left,0.5659956548770424,,,,,,,,,,,,,,1001,2019_Apr_29_1653,mf_amp_cond1,3.0.7,59.98637887861687,
sharing,,&&&&&&&,images/symbols/symbol_45.png,condition_files/AMP_rep2.csv,left,loyalty.virtue,,,,,,,,,,,,,,,,,,,,,0,2,2,1,0,62,62,62,,,,,,,,,,,,,895.513947179872,,,,,AMP_prac,right,0.7170762590394588,,,,,,,,,,,,,,,,,,,,,1,,,left,0.6827193777498906,,,,,,,,,,,,,,1001,2019_Apr_29_1653,mf_amp_cond1,3.0.7,59.98637887861687,
death,,&&&&&,images/symbols/symbol_2.png,condition_files/AMP_rep2.csv,right,care.vice,,,,,,,,,,,,,,,,,,,,,0,2,2,1,0,63,63,63,,,,,,,,,,,,,897.0476674306228,,,,,AMP_prac,right,0.7170762590394588,,,,,,,,,,,,,,,,,,,,,1,,,left,1.3161067845867365,,,,,,,,,,,,,,1001,2019_Apr_29_1653,mf_amp_cond1,3.0.7,59.98637887861687,
slavery,,&&&&&&&,images/symbols/symbol_64.png,condition_files/AMP_rep2.csv,right,loyalty.vice,,,,,,,,,,,,,,,,,,,,,0,2,2,1,0,64,64,64,,,,,,,,,,,,,897.9478925123913,,,,,AMP_prac,right,0.7170762590394588,,,,,,,,,,,,,,,,,,,,,1,,,left,0.667065322460985,,,,,,,,,,,,,,1001,2019_Apr_29_1653,mf_amp_cond1,3.0.7,59.98637887861687,
rhuissed,,&&&&&&&&,images/symbols/symbol_36.png,condition_files/AMP_rep2.csv,None,nonword,,,,,,,,,,,,,,,,,,,,,0,2,2,1,0,65,65,65,,,,,,,,,,,,,898.7981066575849,,,,,AMP_prac,right,0.7170762590394588,,,,,,,,,,,,,,,,,,,,,1,,,right,0.6325721348912339,,,,,,,,,,,,,,1001,2019_Apr_29_1653,mf_amp_cond1,3.0.7,59.98637887861687,
fighters,,&&&&&&&&,images/symbols/symbol_13.png,condition_files/AMP_rep2.csv,right,authority.vice,,,,,,,,,,,,,,,,,,,,,0,2,2,1,0,66,66,66,,,,,,,,,,,,,899.5649616514311,,,,,AMP_prac,right,0.7170762590394588,,,,,,,,,,,,,,,,,,,,,1,,,right,0.5494368465733714,,,,,,,,,,,,,,1001,2019_Apr_29_1653,mf_amp_cond1,3.0.7,59.98637887861687,
rejected,,&&&&&&&&,images/symbols/symbol_16.png,condition_files/AMP_rep2.csv,right,authority.vice,,,,,,,,,,,,,,,,,,,,,0,2,2,1,0,67,67,67,,,,,,,,,,,,,900.2484597389703,,,,,AMP_prac,right,0.7170762590394588,,,,,,,,,,,,,,,,,,,,,1,,,right,0.46623965916296584,,,,,,,,,,,,,,1001,2019_Apr_29_1653,mf_amp_cond1,3.0.7,59.98637887861687,
troalde,,&&&&&&&,images/symbols/symbol_79.png,condition_files/AMP_rep2.csv,None,nonword,,,,,,,,,,,,,,,,,,,,,0,2,2,1,0,68,68,68,,,,,,,,,,,,,901.1320198538924,,,,,AMP_prac,right,0.7170762590394588,,,,,,,,,,,,,,,,,,,,,1,,,right,0.6660460721650452,,,,,,,,,,,,,,1001,2019_Apr_29_1653,mf_amp_cond1,3.0.7,59.98637887861687,
peighld,,&&&&&&&,images/symbols/symbol_61.png,condition_files/AMP_rep2.csv,None,nonword,,,,,,,,,,,,,,,,,,,,,0,2,2,1,0,69,69,69,,,,,,,,,,,,,901.8489078498969,,,,,AMP_prac,right,0.7170762590394588,,,,,,,,,,,,,,,,,,,,,1,,,left,0.4994858847639989,,,,,,,,,,,,,,1001,2019_Apr_29_1653,mf_amp_cond1,3.0.7,59.98637887861687,
terrorist,,&&&&&&&&&,images/symbols/symbol_67.png,condition_files/AMP_rep2.csv,right,loyalty.vice,,,,,,,,,,,,,,,,,,,,,0,2,2,1,0,70,70,70,,,,,,,,,,,,,902.8324471821179,,,,,AMP_prac,right,0.7170762590394588,,,,,,,,,,,,,,,,,,,,,1,,,left,0.7660477399113006,,,,,,,,,,,,,,1001,2019_Apr_29_1653,mf_amp_cond1,3.0.7,59.98637887861687,
corruption,,&&&&&&&&&&,images/symbols/symbol_23.png,condition_files/AMP_rep2.csv,right,sanctity.vice,,,,,,,,,,,,,,,,,,,,,0,2,2,1,0,71,71,71,,,,,,,,,,,,,904.0327420527028,,,,,AMP_prac,right,0.7170762590394588,,,,,,,,,,,,,,,,,,,,,1,,,left,0.9827439449545636,,,,,,,,,,,,,,1001,2019_Apr_29_1653,mf_amp_cond1,3.0.7,59.98637887861687,
pleasant,,&&&&&&&,images/symbols/symbol_63.png,condition_files/AMP_rep2.csv,right,control,,,,,,,,,,,,,,,,,,,,,0,2,2,1,0,72,72,72,,,,,,,,,,,,,904.7162600249248,,,,,AMP_prac,right,0.7170762590394588,,,,,,,,,,,,,,,,,,,,,1,,,left,0.46617904295635526,,,,,,,,,,,,,,1001,2019_Apr_29_1653,mf_amp_cond1,3.0.7,59.98637887861687,
integrity,,&&&&&&&&&,images/symbols/symbol_57.png,condition_files/AMP_rep2.csv,left,fairness.virtue,,,,,,,,,,,,,,,,,,,,,0,2,2,1,0,73,73,73,,,,,,,,,,,,,905.5497851492219,,,,,AMP_prac,right,0.7170762590394588,,,,,,,,,,,,,,,,,,,,,1,,,right,0.6160569446001318,,,,,,,,,,,,,,1001,2019_Apr_29_1653,mf_amp_cond1,3.0.7,59.98637887861687,
abuse,,&&&&&,images/symbols/symbol_54.png,condition_files/AMP_rep2.csv,right,sanctity.vice,,,,,,,,,,,,,,,,,,,,,0,2,2,1,0,74,74,74,,,,,,,,,,,,,906.3666546075692,,,,,AMP_prac,right,0.7170762590394588,,,,,,,,,,,,,,,,,,,,,1,,,left,0.5991809435472533,,,,,,,,,,,,,,1001,2019_Apr_29_1653,mf_amp_cond1,3.0.7,59.98637887861687,
died,,&&&&,images/symbols/symbol_53.png,condition_files/AMP_rep2.csv,right,care.vice,,,,,,,,,,,,,,,,,,,,,0,2,2,1,0,75,75,75,,,,,,,,,,,,,908.0504692464165,,,,,AMP_prac,right,0.7170762590394588,,,,,,,,,,,,,,,,,,,,,1,,,left,1.4662957852815452,,,,,,,,,,,,,,1001,2019_Apr_29_1653,mf_amp_cond1,3.0.7,59.98637887861687,
crime,,&&&&&,images/symbols/symbol_4.png,condition_files/AMP_rep2.csv,right,fairness.vice,,,,,,,,,,,,,,,,,,,,,0,2,2,1,0,76,76,76,,,,,,,,,,,,,908.8672758435132,,,,,AMP_prac,right,0.7170762590394588,,,,,,,,,,,,,,,,,,,,,1,,,left,0.5991171201349061,,,,,,,,,,,,,,1001,2019_Apr_29_1653,mf_amp_cond1,3.0.7,59.98637887861687,
hate,,&&&&,images/symbols/symbol_49.png,condition_files/AMP_rep2.csv,right,fairness.vice,,,,,,,,,,,,,,,,,,,,,0,2,2,1,0,77,77,77,,,,,,,,,,,,,909.6341388553737,,,,,AMP_prac,right,0.7170762590394588,,,,,,,,,,,,,,,,,,,,,1,,,left,0.5336945930976071,,,,,,,,,,,,,,1001,2019_Apr_29_1653,mf_amp_cond1,3.0.7,59.98637887861687,
troops,,&&&&&&,images/symbols/symbol_47.png,condition_files/AMP_rep2.csv,right,loyalty.vice,,,,,,,,,,,,,,,,,,,,,0,2,2,1,0,78,78,78,,,,,,,,,,,,,910.9678240192843,,,,,AMP_prac,right,0.7170762590394588,,,,,,,,,,,,,,,,,,,,,1,,,left,1.1157901049955399,,,,,,,,,,,,,,1001,2019_Apr_29_1653,mf_amp_cond1,3.0.7,59.98637887861687,
penalty,,&&&&&&&,images/symbols/symbol_30.png,condition_files/AMP_rep2.csv,right,authority.vice,,,,,,,,,,,,,,,,,,,,,0,2,2,1,0,79,79,79,,,,,,,,,,,,,911.6513128059269,,,,,AMP_prac,right,0.7170762590394588,,,,,,,,,,,,,,,,,,,,,1,,,right,0.46616172404173994,,,,,,,,,,,,,,1001,2019_Apr_29_1653,mf_amp_cond1,3.0.7,59.98637887861687,
phlaide,,&&&&&&&,images/symbols/symbol_62.png,condition_files/AMP_rep2.csv,None,nonword,,,,,,,,,,,,,,,,,,,,,0,2,2,1,0,80,80,80,,,,,,,,,,,,,912.4515166559868,,,,,AMP_prac,right,0.7170762590394588,,,,,,,,,,,,,,,,,,,,,1,,,left,0.5670434493149514,,,,,,,,,,,,,,1001,2019_Apr_29_1653,mf_amp_cond1,3.0.7,59.98637887861687,
care,,&&&&,images/symbols/symbol_20.png,condition_files/AMP_rep2.csv,left,care.virtue,,,,,,,,,,,,,,,,,,,,,0,2,2,1,0,81,81,81,,,,,,,,,,,,,913.2850437046072,,,,,AMP_prac,right,0.7170762590394588,,,,,,,,,,,,,,,,,,,,,1,,,right,0.616227247272036,,,,,,,,,,,,,,1001,2019_Apr_29_1653,mf_amp_cond1,3.0.7,59.98637887861687,
,,,,condition_files/AMP_rep2.csv,,,,,,,,,,,,,,,,,,,,,,,0,2,2,1,,,,,,,,,,,,,,,,,,,,,,,,,,,,,,,,,,,,,,,,,,,,,,,,,,right,0.9004377195742563,,,,,,,,,,,,1001,2019_Apr_29_1653,mf_amp_cond1,3.0.7,59.98637887861687,
conspiracy,,&&&&&&&&&&,images/symbols/symbol_69.png,condition_files/AMP_rep1.csv,right,sanctity.vice,,,,,,,,,,,,,,,,,,,,,0,3,3,0,0,0,0,0,,,,,,,,,,,,,914.985615998572,,,,,AMP_prac,right,0.7170762590394588,,,,,,,,,,,,,,,,,,,,,1,,,left,0.5336997246304236,,,,,,,,,,,,,,1001,2019_Apr_29_1653,mf_amp_cond1,3.0.7,59.98637887861687,
shypse,,&&&&&&,images/symbols/symbol_9.png,condition_files/AMP_rep1.csv,None,nonword,,,,,,,,,,,,,,,,,,,,,0,3,3,0,0,1,1,1,,,,,,,,,,,,,916.9193073203205,,,,,AMP_prac,right,0.7170762590394588,,,,,,,,,,,,,,,,,,,,,1,,,left,1.7158729150723957,,,,,,,,,,,,,,1001,2019_Apr_29_1653,mf_amp_cond1,3.0.7,59.98637887861687,
loyalty,,&&&&&&&,images/symbols/symbol_12.png,condition_files/AMP_rep1.csv,left,loyalty.virtue,,,,,,,,,,,,,,,,,,,,,0,3,3,0,0,2,2,2,,,,,,,,,,,,,917.7528645166822,,,,,AMP_prac,right,0.7170762590394588,,,,,,,,,,,,,,,,,,,,,1,,,right,0.6004048136346682,,,,,,,,,,,,,,1001,2019_Apr_29_1653,mf_amp_cond1,3.0.7,59.98637887861687,
embrace,,&&&&&&&,images/symbols/symbol_21.png,condition_files/AMP_rep1.csv,left,authority.virtue,,,,,,,,,,,,,,,,,,,,,0,3,3,0,0,3,3,3,,,,,,,,,,,,,918.7197398442186,,,,,AMP_prac,right,0.7170762590394588,,,,,,,,,,,,,,,,,,,,,1,,,right,0.7494603874692984,,,,,,,,,,,,,,1001,2019_Apr_29_1653,mf_amp_cond1,3.0.7,59.98637887861687,
sneaze,,&&&&&&,images/symbols/symbol_22.png,condition_files/AMP_rep1.csv,None,nonword,,,,,,,,,,,,,,,,,,,,,0,3,3,0,0,4,4,4,,,,,,,,,,,,,919.9867324272345,,,,,AMP_prac,right,0.7170762590394588,,,,,,,,,,,,,,,,,,,,,1,,,right,1.0495147816945973,,,,,,,,,,,,,,1001,2019_Apr_29_1653,mf_amp_cond1,3.0.7,59.98637887861687,
growth,,&&&&&&,images/symbols/symbol_5.png,condition_files/AMP_rep1.csv,left,care.virtue,,,,,,,,,,,,,,,,,,,,,0,3,3,0,0,5,5,5,,,,,,,,,,,,,920.7702581608974,,,,,AMP_prac,right,0.7170762590394588,,,,,,,,,,,,,,,,,,,,,1,,,right,0.5659327936227783,,,,,,,,,,,,,,1001,2019_Apr_29_1653,mf_amp_cond1,3.0.7,59.98637887861687,
civilians,,&&&&&&&&&,images/symbols/symbol_28.png,condition_files/AMP_rep1.csv,right,care.vice,,,,,,,,,,,,,,,,,,,,,0,3,3,0,0,6,6,6,,,,,,,,,,,,,921.4370903194322,,,,,AMP_prac,right,0.7170762590394588,,,,,,,,,,,,,,,,,,,,,1,,,left,0.4494820040417835,,,,,,,,,,,,,,1001,2019_Apr_29_1653,mf_amp_cond1,3.0.7,59.98637887861687,
coacs,,&&&&&,images/symbols/symbol_19.png,condition_files/AMP_rep1.csv,None,nonword,,,,,,,,,,,,,,,,,,,,,0,3,3,0,0,7,7,7,,,,,,,,,,,,,922.2539597777795,,,,,AMP_prac,right,0.7170762590394588,,,,,,,,,,,,,,,,,,,,,1,,,right,0.5992582372273318,,,,,,,,,,,,,,1001,2019_Apr_29_1653,mf_amp_cond1,3.0.7,59.98637887861687,
violations,,&&&&&&&&&&,images/symbols/symbol_66.png,condition_files/AMP_rep1.csv,right,sanctity.vice,,,,,,,,,,,,,,,,,,,,,0,3,3,0,0,8,8,8,,,,,,,,,,,,,923.3875960638579,,,,,AMP_prac,right,0.7170762590394588,,,,,,,,,,,,,,,,,,,,,1,,,right,0.9004656222750782,,,,,,,,,,,,,,1001,2019_Apr_29_1653,mf_amp_cond1,3.0.7,59.98637887861687,
ban,,&&&,images/symbols/symbol_58.png,condition_files/AMP_rep1.csv,right,loyalty.vice,,,,,,,,,,,,,,,,,,,,,0,3,3,0,0,9,9,9,,,,,,,,,,,,,924.0877703434744,,,,,AMP_prac,right,0.7170762590394588,,,,,,,,,,,,,,,,,,,,,1,,,left,0.48221026575629367,,,,,,,,,,,,,,1001,2019_Apr_29_1653,mf_amp_cond1,3.0.7,59.98637887861687,
failure,,&&&&&&&,images/symbols/symbol_38.png,condition_files/AMP_rep1.csv,right,loyalty.vice,,,,,,,,,,,,,,,,,,,,,0,3,3,0,0,10,10,10,,,,,,,,,,,,,924.954662925782,,,,,AMP_prac,right,0.7170762590394588,,,,,,,,,,,,,,,,,,,,,1,,,right,0.6494600026053376,,,,,,,,,,,,,,1001,2019_Apr_29_1653,mf_amp_cond1,3.0.7,59.98637887861687,
win,,&&&,images/symbols/symbol_51.png,condition_files/AMP_rep1.csv,left,fairness.virtue,,,,,,,,,,,,,,,,,,,,,0,3,3,0,0,11,11,11,,,,,,,,,,,,,925.8215118900771,,,,,AMP_prac,right,0.7170762590394588,,,,,,,,,,,,,,,,,,,,,1,,,left,0.6498702043463709,,,,,,,,,,,,,,1001,2019_Apr_29_1653,mf_amp_cond1,3.0.7,59.98637887861687,
lies,,&&&&,images/symbols/symbol_43.png,condition_files/AMP_rep1.csv,right,fairness.vice,,,,,,,,,,,,,,,,,,,,,0,3,3,0,0,12,12,12,,,,,,,,,,,,,926.938473587692,,,,,AMP_prac,right,0.7170762590394588,,,,,,,,,,,,,,,,,,,,,1,,,left,0.8837926374071685,,,,,,,,,,,,,,1001,2019_Apr_29_1653,mf_amp_cond1,3.0.7,59.98637887861687,
betrayal,,&&&&&&&&,images/symbols/symbol_32.png,condition_files/AMP_rep1.csv,right,loyalty.vice,,,,,,,,,,,,,,,,,,,,,0,3,3,0,0,13,13,13,,,,,,,,,,,,,927.5886273091091,,,,,AMP_prac,right,0.7170762590394588,,,,,,,,,,,,,,,,,,,,,1,,,left,0.43200850037828786,,,,,,,,,,,,,,1001,2019_Apr_29_1653,mf_amp_cond1,3.0.7,59.98637887861687,
trust,,&&&&&,images/symbols/symbol_1.png,condition_files/AMP_rep1.csv,left,authority.virtue,,,,,,,,,,,,,,,,,,,,,0,3,3,0,0,14,14,14,,,,,,,,,,,,,928.4721816510573,,,,,AMP_prac,right,0.7170762590394588,,,,,,,,,,,,,,,,,,,,,1,,,right,0.6659075208335707,,,,,,,,,,,,,,1001,2019_Apr_29_1653,mf_amp_cond1,3.0.7,59.98637887861687,
fear,,&&&&,images/symbols/symbol_60.png,condition_files/AMP_rep1.csv,right,sanctity.vice,,,,,,,,,,,,,,,,,,,,,0,3,3,0,0,15,15,15,,,,,,,,,,,,,929.3557366344467,,,,,AMP_prac,right,0.7170762590394588,,,,,,,,,,,,,,,,,,,,,1,,,right,0.6659710235289822,,,,,,,,,,,,,,1001,2019_Apr_29_1653,mf_amp_cond1,3.0.7,59.98637887861687,
army,,&&&&,images/symbols/symbol_59.png,condition_files/AMP_rep1.csv,right,loyalty.vice,,,,,,,,,,,,,,,,,,,,,0,3,3,0,0,16,16,16,,,,,,,,,,,,,930.155932145768,,,,,AMP_prac,right,0.7170762590394588,,,,,,,,,,,,,,,,,,,,,1,,,right,0.5828001352165302,,,,,,,,,,,,,,1001,2019_Apr_29_1653,mf_amp_cond1,3.0.7,59.98637887861687,
torture,,&&&&&&&,images/symbols/symbol_33.png,condition_files/AMP_rep1.csv,right,care.vice,,,,,,,,,,,,,,,,,,,,,0,3,3,0,0,17,17,17,,,,,,,,,,,,,930.872814048078,,,,,AMP_prac,right,0.7170762590394588,,,,,,,,,,,,,,,,,,,,,1,,,right,0.4995554811466718,,,,,,,,,,,,,,1001,2019_Apr_29_1653,mf_amp_cond1,3.0.7,59.98637887861687,
perfect,,&&&&&&&,images/symbols/symbol_26.png,condition_files/AMP_rep1.csv,left,sanctity.virtue,,,,,,,,,,,,,,,,,,,,,0,3,3,0,0,18,18,18,,,,,,,,,,,,,931.6396366491354,,,,,AMP_prac,right,0.7170762590394588,,,,,,,,,,,,,,,,,,,,,1,,,left,0.5493374231627968,,,,,,,,,,,,,,1001,2019_Apr_29_1653,mf_amp_cond1,3.0.7,59.98637887861687,
good,,&&&&,images/symbols/symbol_6.png,condition_files/AMP_rep1.csv,left,care.virtue,,,,,,,,,,,,,,,,,,,,,0,3,3,0,0,19,19,19,,,,,,,,,,,,,932.3898369391973,,,,,AMP_prac,right,0.7170762590394588,,,,,,,,,,,,,,,,,,,,,1,,,right,0.517033154177625,,,,,,,,,,,,,,1001,2019_Apr_29_1653,mf_amp_cond1,3.0.7,59.98637887861687,
health,,&&&&&&,images/symbols/symbol_48.png,condition_files/AMP_rep1.csv,left,care.virtue,,,,,,,,,,,,,,,,,,,,,0,3,3,0,0,20,20,20,,,,,,,,,,,,,933.6401366526625,,,,,AMP_prac,right,0.7170762590394588,,,,,,,,,,,,,,,,,,,,,1,,,left,1.0321442293716245,,,,,,,,,,,,,,1001,2019_Apr_29_1653,mf_amp_cond1,3.0.7,59.98637887861687,
shot,,&&&&,images/symbols/symbol_11.png,condition_files/AMP_rep1.csv,right,care.vice,,,,,,,,,,,,,,,,,,,,,0,3,3,0,0,21,21,21,,,,,,,,,,,,,936.6075421314708,,,,,AMP_prac,right,0.7170762590394588,,,,,,,,,,,,,,,,,,,,,1,,,right,2.7498984919075156,,,,,,,,,,,,,,1001,2019_Apr_29_1653,mf_amp_cond1,3.0.7,59.98637887861687,
safe,,&&&&,images/symbols/symbol_29.png,condition_files/AMP_rep1.csv,left,care.virtue,,,,,,,,,,,,,,,,,,,,,0,3,3,0,0,22,22,22,,,,,,,,,,,,,937.5077736276507,,,,,AMP_prac,right,0.7170762590394588,,,,,,,,,,,,,,,,,,,,,1,,,left,0.6823633778039948,,,,,,,,,,,,,,1001,2019_Apr_29_1653,mf_amp_cond1,3.0.7,59.98637887861687,
skypped,,&&&&&&&,images/symbols/symbol_15.png,condition_files/AMP_rep1.csv,None,nonword,,,,,,,,,,,,,,,,,,,,,0,3,3,0,0,23,23,23,,,,,,,,,,,,,938.4413639223894,,,,,AMP_prac,right,0.7170762590394588,,,,,,,,,,,,,,,,,,,,,1,,,left,0.716156111429882,,,,,,,,,,,,,,1001,2019_Apr_29_1653,mf_amp_cond1,3.0.7,59.98637887861687,
illegal,,&&&&&&&,images/symbols/symbol_10.png,condition_files/AMP_rep1.csv,right,fairness.vice,,,,,,,,,,,,,,,,,,,,,0,3,3,0,0,24,24,24,,,,,,,,,,,,,939.2748851980359,,,,,AMP_prac,right,0.7170762590394588,,,,,,,,,,,,,,,,,,,,,1,,,left,0.6162561121345789,,,,,,,,,,,,,,1001,2019_Apr_29_1653,mf_amp_cond1,3.0.7,59.98637887861687,
energy,,&&&&&&,images/symbols/symbol_80.png,condition_files/AMP_rep1.csv,left,sanctity.virtue,,,,,,,,,,,,,,,,,,,,,0,3,3,0,0,25,25,25,,,,,,,,,,,,,940.2584719969163,,,,,AMP_prac,right,0.7170762590394588,,,,,,,,,,,,,,,,,,,,,1,,,left,0.7664710911994916,,,,,,,,,,,,,,1001,2019_Apr_29_1653,mf_amp_cond1,3.0.7,59.98637887861687,
respect,,&&&&&&&,images/symbols/symbol_44.png,condition_files/AMP_rep1.csv,left,sanctity.virtue,,,,,,,,,,,,,,,,,,,,,0,3,3,0,0,26,26,26,,,,,,,,,,,,,941.4754331172335,,,,,AMP_prac,right,0.7170762590394588,,,,,,,,,,,,,,,,,,,,,1,,,right,0.9993027532582346,,,,,,,,,,,,,,1001,2019_Apr_29_1653,mf_amp_cond1,3.0.7,59.98637887861687,
accused,,&&&&&&&,images/symbols/symbol_71.png,condition_files/AMP_rep1.csv,right,fairness.vice,,,,,,,,,,,,,,,,,,,,,0,3,3,0,0,27,27,27,,,,,,,,,,,,,942.2923089899923,,,,,AMP_prac,right,0.7170762590394588,,,,,,,,,,,,,,,,,,,,,1,,,left,0.5837148305727169,,,,,,,,,,,,,,1001,2019_Apr_29_1653,mf_amp_cond1,3.0.7,59.98637887861687,
increase,,&&&&&&&&,images/symbols/symbol_78.png,condition_files/AMP_rep1.csv,left,care.virtue,,,,,,,,,,,,,,,,,,,,,0,3,3,0,0,28,28,28,,,,,,,,,,,,,944.0760810371321,,,,,AMP_prac,right,0.7170762590394588,,,,,,,,,,,,,,,,,,,,,1,,,left,1.5653054639915354,,,,,,,,,,,,,,1001,2019_Apr_29_1653,mf_amp_cond1,3.0.7,59.98637887861687,
police,,&&&&&&,images/symbols/symbol_24.png,condition_files/AMP_rep1.csv,right,authority.vice,,,,,,,,,,,,,,,,,,,,,0,3,3,0,0,29,29,29,,,,,,,,,,,,,945.0263144897108,,,,,AMP_prac,right,0.7170762590394588,,,,,,,,,,,,,,,,,,,,,1,,,right,0.7170720896683633,,,,,,,,,,,,,,1001,2019_Apr_29_1653,mf_amp_cond1,3.0.7,59.98637887861687,
threatened,,&&&&&&&&&&,images/symbols/symbol_31.png,condition_files/AMP_rep1.csv,right,fairness.vice,,,,,,,,,,,,,,,,,,,,,0,3,3,0,0,30,30,30,,,,,,,,,,,,,945.7931669177924,,,,,AMP_prac,right,0.7170762590394588,,,,,,,,,,,,,,,,,,,,,1,,,left,0.5496215816783661,,,,,,,,,,,,,,1001,2019_Apr_29_1653,mf_amp_cond1,3.0.7,59.98637887861687,
killed,,&&&&&&,images/symbols/symbol_77.png,condition_files/AMP_rep1.csv,right,care.vice,,,,,,,,,,,,,,,,,,,,,0,3,3,0,0,31,31,31,,,,,,,,,,,,,946.8434498254974,,,,,AMP_prac,right,0.7170762590394588,,,,,,,,,,,,,,,,,,,,,1,,,left,0.8328416685435514,,,,,,,,,,,,,,1001,2019_Apr_29_1653,mf_amp_cond1,3.0.7,59.98637887861687,
charges,,&&&&&&&,images/symbols/symbol_42.png,condition_files/AMP_rep1.csv,right,fairness.vice,,,,,,,,,,,,,,,,,,,,,0,3,3,0,0,32,32,32,,,,,,,,,,,,,947.4769209404294,,,,,AMP_prac,right,0.7170762590394588,,,,,,,,,,,,,,,,,,,,,1,,,left,0.4158586109333555,,,,,,,,,,,,,,1001,2019_Apr_29_1653,mf_amp_cond1,3.0.7,59.98637887861687,
unpleasant,,&&&&&&&&&,images/symbols/symbol_72.png,condition_files/AMP_rep1.csv,left,control,,,,,,,,,,,,,,,,,,,,,0,3,3,0,0,33,33,33,,,,,,,,,,,,,949.1606849054115,,,,,AMP_prac,right,0.7170762590394588,,,,,,,,,,,,,,,,,,,,,1,,,left,1.4505958669360552,,,,,,,,,,,,,,1001,2019_Apr_29_1653,mf_amp_cond1,3.0.7,59.98637887861687,
free,,&&&&,images/symbols/symbol_70.png,condition_files/AMP_rep1.csv,left,fairness.virtue,,,,,,,,,,,,,,,,,,,,,0,3,3,0,0,34,34,34,,,,,,,,,,,,,950.1442624033916,,,,,AMP_prac,right,0.7170762590394588,,,,,,,,,,,,,,,,,,,,,1,,,right,0.7655679417875945,,,,,,,,,,,,,,1001,2019_Apr_29_1653,mf_amp_cond1,3.0.7,59.98637887861687,
faith,,&&&&&,images/symbols/symbol_7.png,condition_files/AMP_rep1.csv,left,sanctity.virtue,,,,,,,,,,,,,,,,,,,,,0,3,3,0,0,35,35,35,,,,,,,,,,,,,951.2445488710946,,,,,AMP_prac,right,0.7170762590394588,,,,,,,,,,,,,,,,,,,,,1,,,right,0.8829119384427031,,,,,,,,,,,,,,1001,2019_Apr_29_1653,mf_amp_cond1,3.0.7,59.98637887861687,
knapps,,&&&&&&,images/symbols/symbol_34.png,condition_files/AMP_rep1.csv,None,nonword,,,,,,,,,,,,,,,,,,,,,0,3,3,0,0,36,36,36,,,,,,,,,,,,,952.0113932811582,,,,,AMP_prac,right,0.7170762590394588,,,,,,,,,,,,,,,,,,,,,1,,,left,0.5492739204673853,,,,,,,,,,,,,,1001,2019_Apr_29_1653,mf_amp_cond1,3.0.7,59.98637887861687,
strength,,&&&&&&&&,images/symbols/symbol_46.png,condition_files/AMP_rep1.csv,left,sanctity.virtue,,,,,,,,,,,,,,,,,,,,,0,3,3,0,0,37,37,37,,,,,,,,,,,,,952.8616128786016,,,,,AMP_prac,right,0.7170762590394588,,,,,,,,,,,,,,,,,,,,,1,,,right,0.632702668204729,,,,,,,,,,,,,,1001,2019_Apr_29_1653,mf_amp_cond1,3.0.7,59.98637887861687,
benefit,,&&&&&&&,images/symbols/symbol_68.png,condition_files/AMP_rep1.csv,left,fairness.virtue,,,,,,,,,,,,,,,,,,,,,0,3,3,0,0,38,38,38,,,,,,,,,,,,,953.5951526919052,,,,,AMP_prac,right,0.7170762590394588,,,,,,,,,,,,,,,,,,,,,1,,,left,0.5004124467850488,,,,,,,,,,,,,,1001,2019_Apr_29_1653,mf_amp_cond1,3.0.7,59.98637887861687,
promote,,&&&&&&&,images/symbols/symbol_73.png,condition_files/AMP_rep1.csv,left,sanctity.virtue,,,,,,,,,,,,,,,,,,,,,0,3,3,0,0,39,39,39,,,,,,,,,,,,,955.4789296140007,,,,,AMP_prac,right,0.7170762590394588,,,,,,,,,,,,,,,,,,,,,1,,,right,1.6656894307780021,,,,,,,,,,,,,,1001,2019_Apr_29_1653,mf_amp_cond1,3.0.7,59.98637887861687,
commitment,,&&&&&&&&&&,images/symbols/symbol_41.png,condition_files/AMP_rep1.csv,left,sanctity.virtue,,,,,,,,,,,,,,,,,,,,,0,3,3,0,0,40,40,40,,,,,,,,,,,,,956.3124800752266,,,,,AMP_prac,right,0.7170762590394588,,,,,,,,,,,,,,,,,,,,,1,,,right,0.6164562418343849,,,,,,,,,,,,,,1001,2019_Apr_29_1653,mf_amp_cond1,3.0.7,59.98637887861687,
friends,,&&&&&&&,images/symbols/symbol_56.png,condition_files/AMP_rep1.csv,left,loyalty.virtue,,,,,,,,,,,,,,,,,,,,,0,3,3,0,0,41,41,41,,,,,,,,,,,,,957.1126601919568,,,,,AMP_prac,right,0.7170762590394588,,,,,,,,,,,,,,,,,,,,,1,,,right,0.5827148235184723,,,,,,,,,,,,,,1001,2019_Apr_29_1653,mf_amp_cond1,3.0.7,59.98637887861687,
drug,,&&&&,images/symbols/symbol_82.png,condition_files/AMP_rep1.csv,right,sanctity.vice,,,,,,,,,,,,,,,,,,,,,0,3,3,0,0,42,42,42,,,,,,,,,,,,,957.8461852521104,,,,,AMP_prac,right,0.7170762590394588,,,,,,,,,,,,,,,,,,,,,1,,,left,0.5163897885104234,,,,,,,,,,,,,,1001,2019_Apr_29_1653,mf_amp_cond1,3.0.7,59.98637887861687,
honored,,&&&&&&&,images/symbols/symbol_39.png,condition_files/AMP_rep1.csv,left,authority.virtue,,,,,,,,,,,,,,,,,,,,,0,3,3,0,0,43,43,43,,,,,,,,,,,,,958.9464534387334,,,,,AMP_prac,right,0.7170762590394588,,,,,,,,,,,,,,,,,,,,,1,,,right,0.8827589546817762,,,,,,,,,,,,,,1001,2019_Apr_29_1653,mf_amp_cond1,3.0.7,59.98637887861687,
snauz,,&&&&&,images/symbols/symbol_50.png,condition_files/AMP_rep1.csv,None,nonword,,,,,,,,,,,,,,,,,,,,,0,3,3,0,0,44,44,44,,,,,,,,,,,,,959.6799778574459,,,,,AMP_prac,right,0.7170762590394588,,,,,,,,,,,,,,,,,,,,,1,,,left,0.5160969705357275,,,,,,,,,,,,,,1001,2019_Apr_29_1653,mf_amp_cond1,3.0.7,59.98637887861687,
actively,,&&&&&&&&,images/symbols/symbol_17.png,condition_files/AMP_rep1.csv,left,authority.virtue,,,,,,,,,,,,,,,,,,,,,0,3,3,0,0,45,45,45,,,,,,,,,,,,,960.8634785107533,,,,,AMP_prac,right,0.7170762590394588,,,,,,,,,,,,,,,,,,,,,1,,,right,0.9655513926009007,,,,,,,,,,,,,,1001,2019_Apr_29_1653,mf_amp_cond1,3.0.7,59.98637887861687,
ability,,&&&&&&&,images/symbols/symbol_14.png,condition_files/AMP_rep1.csv,left,authority.virtue,,,,,,,,,,,,,,,,,,,,,0,3,3,0,0,46,46,46,,,,,,,,,,,,,961.8471756375438,,,,,AMP_prac,right,0.7170762590394588,,,,,,,,,,,,,,,,,,,,,1,,,left,0.76606121018267,,,,,,,,,,,,,,1001,2019_Apr_29_1653,mf_amp_cond1,3.0.7,59.98637887861687,
credit,,&&&&&&,images/symbols/symbol_76.png,condition_files/AMP_rep1.csv,left,fairness.virtue,,,,,,,,,,,,,,,,,,,,,0,3,3,0,0,47,47,47,,,,,,,,,,,,,962.5306881575161,,,,,AMP_prac,right,0.7170762590394588,,,,,,,,,,,,,,,,,,,,,1,,,left,0.46642503571274574,,,,,,,,,,,,,,1001,2019_Apr_29_1653,mf_amp_cond1,3.0.7,59.98637887861687,
