words,masks,symbols,conditionfile,corr_ans,category,mask,LDT_trials_cond2.thisRepN,LDT_trials_cond2.thisTrialN,LDT_trials_cond2.thisN,LDT_trials_cond2.thisIndex,logo_trials.thisRepN,logo_trials.thisTrialN,logo_trials.thisN,logo_trials.thisIndex,AMP_pracs.thisRepN,AMP_pracs.thisTrialN,AMP_pracs.thisN,AMP_pracs.thisIndex,trials_loop.thisRepN,trials_loop.thisTrialN,trials_loop.thisN,trials_loop.thisIndex,AMP_trials.thisRepN,AMP_trials.thisTrialN,AMP_trials.thisN,AMP_trials.thisIndex,memtask_trials.thisRepN,memtask_trials.thisTrialN,memtask_trials.thisN,memtask_trials.thisIndex,LDT_cond1.thisRepN,LDT_cond1.thisTrialN,LDT_cond1.thisN,LDT_cond1.thisIndex,LDT_pracs.thisRepN,LDT_pracs.thisTrialN,LDT_pracs.thisN,LDT_pracs.thisIndex,LDT_trials.thisRepN,LDT_trials.thisTrialN,LDT_trials.thisN,LDT_trials.thisIndex,begin_key.keys,begin_key.rt,key_resp_instr.keys,key_resp_instr.rt,exp_time,resp_sym_rate.keys,resp_sym_rate.rt,sym_resp_1.keys,sym_resp_1.rt,sym_resp_2.keys,sym_resp_2.rt,sym_resp_trial.keys,sym_resp_trial.rt,symbol_index,resp_AMP_ready1.keys,resp_AMP_ready1.rt,resp_AMP.keys,resp_AMP.rt,task,keypress,RT,prime_dur,resp_AMP_ready.keys,resp_AMP_ready.rt,resp_AMP_trials.keys,resp_AMP_trials.rt,rest_key_resp.keys,rest_key_resp.rt,AMP_nonword_rating.response,AMP_nonword_rating.rt,AMP_word_rating.response,AMP_word_rating.rt,AMP_random_rating.response,AMP_random_rating.rt,key_resp_instr_memtask.keys,key_resp_instr_memtask.rt,resp_memtask.keys,resp_memtask.corr,resp_memtask.rt,corr,key_resp_LDT_instr.keys,key_resp_LDT_instr.rt,resp_LDT_prac.keys,resp_LDT_prac.rt,resp_LDT_ready.keys,resp_LDT_ready.rt,resp_LDT_trial.keys,resp_LDT_trial.rt,LDT_rating.response,LDT_rating.rt,participant ID,date,expName,psychopyVersion,frameRate,
,,,,,,,,,,,,,,,,,,,,,,,,,,,,,,,,,,,,,,,,,,,right,499.2737681279541,,,,,,,,,,,,,,,,,,,,,,,,,,,,,,,,,,,,,,,,,,,,,,,,,1002,2019_May_01_1348,mf_amp_cond1,3.0.7,59.99699820649063,
,,,,,,,,,,,,,,,,,,,,,,,,,,,,,,,,,,,,,,,,,,,,,right,2.834300306160003,,,,,,,,,,,,,,,,,,,,,,,,,,,,,,,,,,,,,,,,,,,,,,,1002,2019_May_01_1348,mf_amp_cond1,3.0.7,59.99699820649063,
,,,,,,,,,,,,,,,,,,,,,,,,,,,,,,,,,,,,,,,,,,,,,,,540.1408877804934,right,1.5339582254819106,,,,,,,,,,,,,,,,,,,,,,,,,,,,,,,,,,,,,,,,,,,,1002,2019_May_01_1348,mf_amp_cond1,3.0.7,59.99699820649063,
,,,,,,,,,,,,,,,,,,,,,,,,,,,,,,,,,,,,,,,,,,,,,,,603.7067634858249,,,right,2.4008277159009594,,,,,,,,,,,,,,,,,,,,,,,,,,,,,,,,,,,,,,,,,,1002,2019_May_01_1348,mf_amp_cond1,3.0.7,59.99699820649063,
,,,,,,,,,,,,,,,,,,,,,,,,,,,,,,,,,,,,,,,,,,,,,,,,,,,,right,1.4839399123447947,,,,,,,,,,,,,,,,,,,,,,,,,,,,,,,,,,,,,,,,1002,2019_May_01_1348,mf_amp_cond1,3.0.7,59.99699820649063,
,,,,,,,,,,,,,,,,,,,,,,,,,,,,,,,,,,,,,,,,,,,,,,,623.6283780706581,,,,,,,right,1.000719055737136,63,right,1.350639420794323,,,,,,,,,,,,,,,,,,,,,,,,,,,,,,,,,,,1002,2019_May_01_1348,mf_amp_cond1,3.0.7,59.99699820649063,
keyboard,&&&&&&&&,images/symbols/symbol_40.png,,,,,,,,,,,,,0,0,0,2,,,,,,,,,,,,,,,,,,,,,,,,,,,,,785.5025481257471,,,,,,,,,,,,left,0.9171459836943541,AMP_prac,left,0.9171459836943541,3,,,,,,,,,,,,,,,,,,,,,,,,,,,,,1002,2019_May_01_1348,mf_amp_cond1,3.0.7,59.99699820649063,
banana,&&&&&&,images/symbols/symbol_68.png,,,,,,,,,,,,,0,1,1,1,,,,,,,,,,,,,,,,,,,,,,,,,,,,,786.5526754839229,,,,,,,,,,,,right,0.8171241105592344,AMP_prac,right,0.8171241105592344,3,,,,,,,,,,,,,,,,,,,,,,,,,,,,,1002,2019_May_01_1348,mf_amp_cond1,3.0.7,59.99699820649063,
scarf,&&&&&,images/symbols/symbol_54.png,,,,,,,,,,,,,0,2,2,3,,,,,,,,,,,,,,,,,,,,,,,,,,,,,787.4862381966959,,,,,,,,,,,,left,0.700419951666845,AMP_prac,left,0.700419951666845,3,,,,,,,,,,,,,,,,,,,,,,,,,,,,,1002,2019_May_01_1348,mf_amp_cond1,3.0.7,59.99699820649063,
car,&&&,images/symbols/symbol_9.png,,,,,,,,,,,,,0,3,3,0,,,,,,,,,,,,,,,,,,,,,,,,,,,,,788.5365085962985,,,,,,,,,,,,right,0.83172010834096,AMP_prac,right,0.83172010834096,3,,,,,,,,,,,,,,,,,,,,,,,,,,,,,1002,2019_May_01_1348,mf_amp_cond1,3.0.7,59.99699820649063,
,,,,,,,,,,,,,,,,,,,,,,,,,,,,,,,,,,,,,,,,,,,,,,,,,,,,,,,,,,,,,,,,,right,3.0843431223765947,,,,,,,,,,,,,,,,,,,,,,,,,,,1002,2019_May_01_1348,mf_amp_cond1,3.0.7,59.99699820649063,
prosecution,&&&&&&&&&&&,images/symbols/symbol_54.png,condition_files/AMP_rep3.csv,right,authority.vice,,,,,,,,,,,,,,0,0,0,2,0,0,0,0,,,,,,,,,,,,,,,,,,,,,812.7927172674099,,,,,,,,,,,,,,AMP_prac,right,0.83172010834096,3,,,right,0.9004659430065658,,,,,,,,,,,,,,,,,,,,,,,,,1002,2019_May_01_1348,mf_amp_cond1,3.0.7,59.99699820649063,
strength,&&&&&&&&,images/symbols/symbol_27.png,condition_files/AMP_rep3.csv,left,sanctity.virtue,,,,,,,,,,,,,,0,0,0,2,0,1,1,1,,,,,,,,,,,,,,,,,,,,,813.9261883823492,,,,,,,,,,,,,,AMP_prac,right,0.83172010834096,3,,,left,0.900488072715234,,,,,,,,,,,,,,,,,,,,,,,,,1002,2019_May_01_1348,mf_amp_cond1,3.0.7,59.99699820649063,
phegned,&&&&&&&,images/symbols/symbol_9.png,condition_files/AMP_rep3.csv,None,nonword,,,,,,,,,,,,,,0,0,0,2,0,2,2,2,,,,,,,,,,,,,,,,,,,,,814.8597478879092,,,,,,,,,,,,,,AMP_prac,right,0.83172010834096,3,,,left,0.7150746413099114,,,,,,,,,,,,,,,,,,,,,,,,,1002,2019_May_01_1348,mf_amp_cond1,3.0.7,59.99699820649063,
daizz,&&&&&,images/symbols/symbol_11.png,condition_files/AMP_rep3.csv,None,nonword,,,,,,,,,,,,,,0,0,0,2,0,3,3,3,,,,,,,,,,,,,,,,,,,,,815.8933462648129,,,,,,,,,,,,,,AMP_prac,right,0.83172010834096,3,,,left,0.8158184567000717,,,,,,,,,,,,,,,,,,,,,,,,,1002,2019_May_01_1348,mf_amp_cond1,3.0.7,59.99699820649063,
faith,&&&&&,images/symbols/symbol_14.png,condition_files/AMP_rep3.csv,left,sanctity.virtue,,,,,,,,,,,,,,0,0,0,2,0,4,4,4,,,,,,,,,,,,,,,,,,,,,816.9436500193551,,,,,,,,,,,,,,AMP_prac,right,0.83172010834096,3,,,right,0.8323102343711071,,,,,,,,,,,,,,,,,,,,,,,,,1002,2019_May_01_1348,mf_amp_cond1,3.0.7,59.99699820649063,
opportunity,&&&&&&&&&&&,images/symbols/symbol_29.png,condition_files/AMP_rep3.csv,left,fairness.virtue,,,,,,,,,,,,,,0,0,0,2,0,5,5,5,,,,,,,,,,,,,,,,,,,,,817.8104851926619,,,,,,,,,,,,,,AMP_prac,right,0.83172010834096,3,,,right,0.6486258081567939,,,,,,,,,,,,,,,,,,,,,,,,,1002,2019_May_01_1348,mf_amp_cond1,3.0.7,59.99699820649063,
great,&&&&&,images/symbols/symbol_15.png,condition_files/AMP_rep3.csv,left,loyalty.virtue,,,,,,,,,,,,,,0,0,0,2,0,6,6,6,,,,,,,,,,,,,,,,,,,,,818.7940578798298,,,,,,,,,,,,,,AMP_prac,right,0.83172010834096,3,,,right,0.765925866086036,,,,,,,,,,,,,,,,,,,,,,,,,1002,2019_May_01_1348,mf_amp_cond1,3.0.7,59.99699820649063,
black,&&&&&,images/symbols/symbol_58.png,condition_files/AMP_rep3.csv,right,loyalty.vice,,,,,,,,,,,,,,0,0,0,2,0,7,7,7,,,,,,,,,,,,,,,,,,,,,819.861016017443,,,,,,,,,,,,,,AMP_prac,right,0.83172010834096,3,,,right,0.8338060755922925,,,,,,,,,,,,,,,,,,,,,,,,,1002,2019_May_01_1348,mf_amp_cond1,3.0.7,59.99699820649063,
failure,&&&&&&&,images/symbols/symbol_81.png,condition_files/AMP_rep3.csv,right,loyalty.vice,,,,,,,,,,,,,,0,0,0,2,0,8,8,8,,,,,,,,,,,,,,,,,,,,,821.2113347175764,,,,,,,,,,,,,,AMP_prac,right,0.83172010834096,3,,,left,1.1171916543098632,,,,,,,,,,,,,,,,,,,,,,,,,1002,2019_May_01_1348,mf_amp_cond1,3.0.7,59.99699820649063,
groups,&&&&&&,images/symbols/symbol_72.png,condition_files/AMP_rep3.csv,right,loyalty.vice,,,,,,,,,,,,,,0,0,0,2,0,9,9,9,,,,,,,,,,,,,,,,,,,,,822.3116109222174,,,,,,,,,,,,,,AMP_prac,right,0.83172010834096,3,,,left,0.8815514413581695,,,,,,,,,,,,,,,,,,,,,,,,,1002,2019_May_01_1348,mf_amp_cond1,3.0.7,59.99699820649063,
abuse,&&&&&,images/symbols/symbol_53.png,condition_files/AMP_rep3.csv,right,sanctity.vice,,,,,,,,,,,,,,0,0,0,2,0,10,10,10,,,,,,,,,,,,,,,,,,,,,823.3451932630851,,,,,,,,,,,,,,AMP_prac,right,0.83172010834096,3,,,right,0.8159127485996578,,,,,,,,,,,,,,,,,,,,,,,,,1002,2019_May_01_1348,mf_amp_cond1,3.0.7,59.99699820649063,
honored,&&&&&&&,images/symbols/symbol_75.png,condition_files/AMP_rep3.csv,left,authority.virtue,,,,,,,,,,,,,,0,0,0,2,0,11,11,11,,,,,,,,,,,,,,,,,,,,,824.3787942057534,,,,,,,,,,,,,,AMP_prac,right,0.83172010834096,3,,,right,0.8159076170704793,,,,,,,,,,,,,,,,,,,,,,,,,1002,2019_May_01_1348,mf_amp_cond1,3.0.7,59.99699820649063,
promises,&&&&&&&&,images/symbols/symbol_74.png,condition_files/AMP_rep3.csv,left,fairness.virtue,,,,,,,,,,,,,,0,0,0,2,0,12,12,12,,,,,,,,,,,,,,,,,,,,,825.3790453300171,,,,,,,,,,,,,,AMP_prac,right,0.83172010834096,3,,,right,0.7671080424333923,,,,,,,,,,,,,,,,,,,,,,,,,1002,2019_May_01_1348,mf_amp_cond1,3.0.7,59.99699820649063,
ensure,&&&&&&,images/symbols/symbol_59.png,condition_files/AMP_rep3.csv,left,fairness.virtue,,,,,,,,,,,,,,0,0,0,2,0,13,13,13,,,,,,,,,,,,,,,,,,,,,826.3626202622545,,,,,,,,,,,,,,AMP_prac,right,0.83172010834096,3,,,left,0.7652433724433649,,,,,,,,,,,,,,,,,,,,,,,,,1002,2019_May_01_1348,mf_amp_cond1,3.0.7,59.99699820649063,
compassion,&&&&&&&&&&,images/symbols/symbol_42.png,condition_files/AMP_rep3.csv,left,care.virtue,,,,,,,,,,,,,,0,0,0,2,0,14,14,14,,,,,,,,,,,,,,,,,,,,,827.1461382986163,,,,,,,,,,,,,,AMP_prac,right,0.83172010834096,3,,,left,0.550380406784825,,,,,,,,,,,,,,,,,,,,,,,,,1002,2019_May_01_1348,mf_amp_cond1,3.0.7,59.99699820649063,
rejected,&&&&&&&&,images/symbols/symbol_33.png,condition_files/AMP_rep3.csv,right,authority.vice,,,,,,,,,,,,,,0,0,0,2,0,15,15,15,,,,,,,,,,,,,,,,,,,,,827.9630266794702,,,,,,,,,,,,,,AMP_prac,right,0.83172010834096,3,,,left,0.5989041615976021,,,,,,,,,,,,,,,,,,,,,,,,,1002,2019_May_01_1348,mf_amp_cond1,3.0.7,59.99699820649063,
army,&&&&,images/symbols/symbol_46.png,condition_files/AMP_rep3.csv,right,loyalty.vice,,,,,,,,,,,,,,0,0,0,2,0,16,16,16,,,,,,,,,,,,,,,,,,,,,828.8799148037797,,,,,,,,,,,,,,AMP_prac,right,0.83172010834096,3,,,left,0.6992227013688534,,,,,,,,,,,,,,,,,,,,,,,,,1002,2019_May_01_1348,mf_amp_cond1,3.0.7,59.99699820649063,
clean,&&&&&,images/symbols/symbol_8.png,condition_files/AMP_rep3.csv,left,sanctity.virtue,,,,,,,,,,,,,,0,0,0,2,0,17,17,17,,,,,,,,,,,,,,,,,,,,,830.113568793633,,,,,,,,,,,,,,AMP_prac,right,0.83172010834096,3,,,right,1.0160690678458195,,,,,,,,,,,,,,,,,,,,,,,,,1002,2019_May_01_1348,mf_amp_cond1,3.0.7,59.99699820649063,
voter,&&&&&,images/symbols/symbol_69.png,condition_files/AMP_rep3.csv,right,fairness.vice,,,,,,,,,,,,,,0,0,0,2,0,18,18,18,,,,,,,,,,,,,,,,,,,,,830.8971128083649,,,,,,,,,,,,,,AMP_prac,right,0.83172010834096,3,,,right,0.5656460693280678,,,,,,,,,,,,,,,,,,,,,,,,,1002,2019_May_01_1348,mf_amp_cond1,3.0.7,59.99699820649063,
sharing,&&&&&&&,images/symbols/symbol_7.png,condition_files/AMP_rep3.csv,left,loyalty.virtue,,,,,,,,,,,,,,0,0,0,2,0,19,19,19,,,,,,,,,,,,,,,,,,,,,831.7306161236775,,,,,,,,,,,,,,AMP_prac,right,0.83172010834096,3,,,left,0.6159626527223736,,,,,,,,,,,,,,,,,,,,,,,,,1002,2019_May_01_1348,mf_amp_cond1,3.0.7,59.99699820649063,
love,&&&&,images/symbols/symbol_49.png,condition_files/AMP_rep3.csv,left,loyalty.virtue,,,,,,,,,,,,,,0,0,0,2,0,20,20,20,,,,,,,,,,,,,,,,,,,,,832.7475434400258,,,,,,,,,,,,,,AMP_prac,right,0.83172010834096,3,,,right,0.7837698021030519,,,,,,,,,,,,,,,,,,,,,,,,,1002,2019_May_01_1348,mf_amp_cond1,3.0.7,59.99699820649063,
praise,&&&&&&,images/symbols/symbol_2.png,condition_files/AMP_rep3.csv,left,authority.virtue,,,,,,,,,,,,,,0,0,0,2,0,21,21,21,,,,,,,,,,,,,,,,,,,,,833.4810681794479,,,,,,,,,,,,,,AMP_prac,right,0.83172010834096,3,,,left,0.5155517453968059,,,,,,,,,,,,,,,,,,,,,,,,,1002,2019_May_01_1348,mf_amp_cond1,3.0.7,59.99699820649063,
loyalty,&&&&&&&,images/symbols/symbol_71.png,condition_files/AMP_rep3.csv,left,loyalty.virtue,,,,,,,,,,,,,,0,0,0,2,0,22,22,22,,,,,,,,,,,,,,,,,,,,,834.1312186936557,,,,,,,,,,,,,,AMP_prac,right,0.83172010834096,3,,,right,0.4323625760152936,,,,,,,,,,,,,,,,,,,,,,,,,1002,2019_May_01_1348,mf_amp_cond1,3.0.7,59.99699820649063,
attacks,&&&&&&&,images/symbols/symbol_76.png,condition_files/AMP_rep3.csv,right,care.vice,,,,,,,,,,,,,,0,0,0,2,0,23,23,23,,,,,,,,,,,,,,,,,,,,,834.9814289901988,,,,,,,,,,,,,,AMP_prac,right,0.83172010834096,3,,,left,0.6329031186178327,,,,,,,,,,,,,,,,,,,,,,,,,1002,2019_May_01_1348,mf_amp_cond1,3.0.7,59.99699820649063,
improve,&&&&&&&,images/symbols/symbol_6.png,condition_files/AMP_rep3.csv,left,care.virtue,,,,,,,,,,,,,,0,0,0,2,0,24,24,24,,,,,,,,,,,,,,,,,,,,,836.1650784579106,,,,,,,,,,,,,,AMP_prac,right,0.83172010834096,3,,,right,0.9658887907571625,,,,,,,,,,,,,,,,,,,,,,,,,1002,2019_May_01_1348,mf_amp_cond1,3.0.7,59.99699820649063,
psured,&&&&&&,images/symbols/symbol_40.png,condition_files/AMP_rep3.csv,None,nonword,,,,,,,,,,,,,,0,0,0,2,0,25,25,25,,,,,,,,,,,,,,,,,,,,,837.2820167429163,,,,,,,,,,,,,,AMP_prac,right,0.83172010834096,3,,,right,0.8990980693197343,,,,,,,,,,,,,,,,,,,,,,,,,1002,2019_May_01_1348,mf_amp_cond1,3.0.7,59.99699820649063,
victim,&&&&&&,images/symbols/symbol_65.png,condition_files/AMP_rep3.csv,right,care.vice,,,,,,,,,,,,,,0,0,0,2,0,26,26,26,,,,,,,,,,,,,,,,,,,,,838.765737282316,,,,,,,,,,,,,,AMP_prac,right,0.83172010834096,3,,,right,1.2659839164989535,,,,,,,,,,,,,,,,,,,,,,,,,1002,2019_May_01_1348,mf_amp_cond1,3.0.7,59.99699820649063,
peaceful,&&&&&&&&,images/symbols/symbol_68.png,condition_files/AMP_rep3.csv,left,authority.virtue,,,,,,,,,,,,,,0,0,0,2,0,27,27,27,,,,,,,,,,,,,,,,,,,,,839.9326804101875,,,,,,,,,,,,,,AMP_prac,right,0.83172010834096,3,,,left,0.9338167235255241,,,,,,,,,,,,,,,,,,,,,,,,,1002,2019_May_01_1348,mf_amp_cond1,3.0.7,59.99699820649063,
corruption,&&&&&&&&&&,images/symbols/symbol_57.png,condition_files/AMP_rep3.csv,right,sanctity.vice,,,,,,,,,,,,,,0,0,0,2,0,28,28,28,,,,,,,,,,,,,,,,,,,,,840.8496384515893,,,,,,,,,,,,,,AMP_prac,right,0.83172010834096,3,,,left,0.6988708708086051,,,,,,,,,,,,,,,,,,,,,,,,,1002,2019_May_01_1348,mf_amp_cond1,3.0.7,59.99699820649063,
safety,&&&&&&,images/symbols/symbol_13.png,condition_files/AMP_rep3.csv,left,care.virtue,,,,,,,,,,,,,,0,0,0,2,0,29,29,29,,,,,,,,,,,,,,,,,,,,,842.1665598666877,,,,,,,,,,,,,,AMP_prac,right,0.83172010834096,3,,,left,1.0991703597828746,,,,,,,,,,,,,,,,,,,,,,,,,1002,2019_May_01_1348,mf_amp_cond1,3.0.7,59.99699820649063,
riot,&&&&,images/symbols/symbol_28.png,condition_files/AMP_rep3.csv,right,authority.vice,,,,,,,,,,,,,,0,0,0,2,0,30,30,30,,,,,,,,,,,,,,,,,,,,,843.1501457034028,,,,,,,,,,,,,,AMP_prac,right,0.83172010834096,3,,,right,0.7658995669626165,,,,,,,,,,,,,,,,,,,,,,,,,1002,2019_May_01_1348,mf_amp_cond1,3.0.7,59.99699820649063,
unpleasant,&&&&&&&&&,images/symbols/symbol_17.png,condition_files/AMP_rep3.csv,left,control,,,,,,,,,,,,,,0,0,0,2,0,31,31,31,,,,,,,,,,,,,,,,,,,,,844.0837093783484,,,,,,,,,,,,,,AMP_prac,right,0.83172010834096,3,,,right,0.7158312214014586,,,,,,,,,,,,,,,,,,,,,,,,,1002,2019_May_01_1348,mf_amp_cond1,3.0.7,59.99699820649063,
terrorists,&&&&&&&&&&,images/symbols/symbol_16.png,condition_files/AMP_rep3.csv,right,fairness.vice,,,,,,,,,,,,,,0,0,0,2,0,32,32,32,,,,,,,,,,,,,,,,,,,,,845.0005971819046,,,,,,,,,,,,,,AMP_prac,right,0.83172010834096,3,,,left,0.6990511158073787,,,,,,,,,,,,,,,,,,,,,,,,,1002,2019_May_01_1348,mf_amp_cond1,3.0.7,59.99699820649063,
protesters,&&&&&&&&&&,images/symbols/symbol_10.png,condition_files/AMP_rep3.csv,right,authority.vice,,,,,,,,,,,,,,0,0,0,2,0,33,33,33,,,,,,,,,,,,,,,,,,,,,845.8007978247479,,,,,,,,,,,,,,AMP_prac,right,0.83172010834096,3,,,left,0.582596477586776,,,,,,,,,,,,,,,,,,,,,,,,,1002,2019_May_01_1348,mf_amp_cond1,3.0.7,59.99699820649063,
benefit,&&&&&&&,images/symbols/symbol_50.png,condition_files/AMP_rep3.csv,left,fairness.virtue,,,,,,,,,,,,,,0,0,0,2,0,34,34,34,,,,,,,,,,,,,,,,,,,,,846.6510543050827,,,,,,,,,,,,,,AMP_prac,right,0.83172010834096,3,,,right,0.6325891330779996,,,,,,,,,,,,,,,,,,,,,,,,,1002,2019_May_01_1348,mf_amp_cond1,3.0.7,59.99699820649063,
threatened,&&&&&&&&&&,images/symbols/symbol_26.png,condition_files/AMP_rep3.csv,right,fairness.vice,,,,,,,,,,,,,,0,0,0,2,0,35,35,35,,,,,,,,,,,,,,,,,,,,,847.3679054182139,,,,,,,,,,,,,,AMP_prac,right,0.83172010834096,3,,,right,0.49919178389245644,,,,,,,,,,,,,,,,,,,,,,,,,1002,2019_May_01_1348,mf_amp_cond1,3.0.7,59.99699820649063,
spynze,&&&&&&,images/symbols/symbol_73.png,condition_files/AMP_rep3.csv,None,nonword,,,,,,,,,,,,,,0,0,0,2,0,36,36,36,,,,,,,,,,,,,,,,,,,,,848.2347726635926,,,,,,,,,,,,,,AMP_prac,right,0.83172010834096,3,,,right,0.6337604049767833,,,,,,,,,,,,,,,,,,,,,,,,,1002,2019_May_01_1348,mf_amp_cond1,3.0.7,59.99699820649063,
pleasant,&&&&&&&,images/symbols/symbol_12.png,condition_files/AMP_rep3.csv,right,control,,,,,,,,,,,,,,0,0,0,2,0,37,37,37,,,,,,,,,,,,,,,,,,,,,849.1516386581352,,,,,,,,,,,,,,AMP_prac,right,0.83172010834096,3,,,left,0.6837520983244758,,,,,,,,,,,,,,,,,,,,,,,,,1002,2019_May_01_1348,mf_amp_cond1,3.0.7,59.99699820649063,
forced,&&&&&&,images/symbols/symbol_37.png,condition_files/AMP_rep3.csv,right,fairness.vice,,,,,,,,,,,,,,0,0,0,2,0,38,38,38,,,,,,,,,,,,,,,,,,,,,849.9018280436867,,,,,,,,,,,,,,AMP_prac,right,0.83172010834096,3,,,left,0.5320573140634224,,,,,,,,,,,,,,,,,,,,,,,,,1002,2019_May_01_1348,mf_amp_cond1,3.0.7,59.99699820649063,
values,&&&&&&,images/symbols/symbol_60.png,condition_files/AMP_rep3.csv,left,sanctity.virtue,,,,,,,,,,,,,,0,0,0,2,0,39,39,39,,,,,,,,,,,,,,,,,,,,,850.6853662854701,,,,,,,,,,,,,,AMP_prac,right,0.83172010834096,3,,,left,0.5657551143667661,,,,,,,,,,,,,,,,,,,,,,,,,1002,2019_May_01_1348,mf_amp_cond1,3.0.7,59.99699820649063,
powerful,&&&&&&&&,images/symbols/symbol_18.png,condition_files/AMP_rep3.csv,left,authority.virtue,,,,,,,,,,,,,,0,0,0,2,0,40,40,40,,,,,,,,,,,,,,,,,,,,,851.3688621279725,,,,,,,,,,,,,,AMP_prac,right,0.83172010834096,3,,,right,0.46595934926881455,,,,,,,,,,,,,,,,,,,,,,,,,1002,2019_May_01_1348,mf_amp_cond1,3.0.7,59.99699820649063,
serial,&&&&&&,images/symbols/symbol_41.png,condition_files/AMP_rep3.csv,right,sanctity.vice,,,,,,,,,,,,,,0,0,0,2,0,41,41,41,,,,,,,,,,,,,,,,,,,,,852.0523653470445,,,,,,,,,,,,,,AMP_prac,right,0.83172010834096,3,,,right,0.4661716663686093,,,,,,,,,,,,,,,,,,,,,,,,,1002,2019_May_01_1348,mf_amp_cond1,3.0.7,59.99699820649063,
care,&&&&,images/symbols/symbol_63.png,condition_files/AMP_rep3.csv,left,care.virtue,,,,,,,,,,,,,,0,0,0,2,0,42,42,42,,,,,,,,,,,,,,,,,,,,,852.8192626760283,,,,,,,,,,,,,,AMP_prac,right,0.83172010834096,3,,,left,0.5493281222588848,,,,,,,,,,,,,,,,,,,,,,,,,1002,2019_May_01_1348,mf_amp_cond1,3.0.7,59.99699820649063,
civilians,&&&&&&&&&,images/symbols/symbol_47.png,condition_files/AMP_rep3.csv,right,care.vice,,,,,,,,,,,,,,0,0,0,2,0,43,43,43,,,,,,,,,,,,,,,,,,,,,853.6194209837413,,,,,,,,,,,,,,AMP_prac,right,0.83172010834096,3,,,right,0.5824476632114965,,,,,,,,,,,,,,,,,,,,,,,,,1002,2019_May_01_1348,mf_amp_cond1,3.0.7,59.99699820649063,
free,&&&&,images/symbols/symbol_56.png,condition_files/AMP_rep3.csv,left,fairness.virtue,,,,,,,,,,,,,,0,0,0,2,0,44,44,44,,,,,,,,,,,,,,,,,,,,,854.352972342982,,,,,,,,,,,,,,AMP_prac,right,0.83172010834096,3,,,right,0.500432652188465,,,,,,,,,,,,,,,,,,,,,,,,,1002,2019_May_01_1348,mf_amp_cond1,3.0.7,59.99699820649063,
progress,&&&&&&&&,images/symbols/symbol_38.png,condition_files/AMP_rep3.csv,left,authority.virtue,,,,,,,,,,,,,,0,0,0,2,0,45,45,45,,,,,,,,,,,,,,,,,,,,,855.0864598788321,,,,,,,,,,,,,,AMP_prac,right,0.83172010834096,3,,,right,0.5150943977059796,,,,,,,,,,,,,,,,,,,,,,,,,1002,2019_May_01_1348,mf_amp_cond1,3.0.7,59.99699820649063,
fighters,&&&&&&&&,images/symbols/symbol_24.png,condition_files/AMP_rep3.csv,right,authority.vice,,,,,,,,,,,,,,0,0,0,2,0,46,46,46,,,,,,,,,,,,,,,,,,,,,855.8533145519323,,,,,,,,,,,,,,AMP_prac,right,0.83172010834096,3,,,left,0.5489326736715157,,,,,,,,,,,,,,,,,,,,,,,,,1002,2019_May_01_1348,mf_amp_cond1,3.0.7,59.99699820649063,
victims,&&&&&&&,images/symbols/symbol_22.png,condition_files/AMP_rep3.csv,right,care.vice,,,,,,,,,,,,,,0,0,0,2,0,47,47,47,,,,,,,,,,,,,,,,,,,,,857.6537663190684,,,,,,,,,,,,,,AMP_prac,right,0.83172010834096,3,,,right,1.5824848668125924,,,,,,,,,,,,,,,,,,,,,,,,,1002,2019_May_01_1348,mf_amp_cond1,3.0.7,59.99699820649063,
party,&&&&&,images/symbols/symbol_25.png,condition_files/AMP_rep3.csv,left,loyalty.virtue,,,,,,,,,,,,,,0,0,0,2,0,48,48,48,,,,,,,,,,,,,,,,,,,,,859.137470501737,,,,,,,,,,,,,,AMP_prac,right,0.83172010834096,3,,,left,1.2653055923001375,,,,,,,,,,,,,,,,,,,,,,,,,1002,2019_May_01_1348,mf_amp_cond1,3.0.7,59.99699820649063,
rebels,&&&&&&,images/symbols/symbol_66.png,condition_files/AMP_rep3.csv,right,authority.vice,,,,,,,,,,,,,,0,0,0,2,0,49,49,49,,,,,,,,,,,,,,,,,,,,,860.3711148699804,,,,,,,,,,,,,,AMP_prac,right,0.83172010834096,3,,,right,1.0005035314534325,,,,,,,,,,,,,,,,,,,,,,,,,1002,2019_May_01_1348,mf_amp_cond1,3.0.7,59.99699820649063,
credit,&&&&&&,images/symbols/symbol_3.png,condition_files/AMP_rep3.csv,left,fairness.virtue,,,,,,,,,,,,,,0,0,0,2,0,50,50,50,,,,,,,,,,,,,,,,,,,,,861.1212968789623,,,,,,,,,,,,,,AMP_prac,right,0.83172010834096,3,,,left,0.5319078582397196,,,,,,,,,,,,,,,,,,,,,,,,,1002,2019_May_01_1348,mf_amp_cond1,3.0.7,59.99699820649063,
blamed,&&&&&&,images/symbols/symbol_1.png,condition_files/AMP_rep3.csv,right,loyalty.vice,,,,,,,,,,,,,,0,0,0,2,0,51,51,51,,,,,,,,,,,,,,,,,,,,,862.4217226677283,,,,,,,,,,,,,,AMP_prac,right,0.83172010834096,3,,,right,1.0825480487546884,,,,,,,,,,,,,,,,,,,,,,,,,1002,2019_May_01_1348,mf_amp_cond1,3.0.7,59.99699820649063,
police,&&&&&&,images/symbols/symbol_80.png,condition_files/AMP_rep3.csv,right,authority.vice,,,,,,,,,,,,,,0,0,0,2,0,52,52,52,,,,,,,,,,,,,,,,,,,,,863.5219289552479,,,,,,,,,,,,,,AMP_prac,right,0.83172010834096,3,,,right,0.8828394555894192,,,,,,,,,,,,,,,,,,,,,,,,,1002,2019_May_01_1348,mf_amp_cond1,3.0.7,59.99699820649063,
charges,&&&&&&&,images/symbols/symbol_64.png,condition_files/AMP_rep3.csv,right,fairness.vice,,,,,,,,,,,,,,0,0,0,2,0,53,53,53,,,,,,,,,,,,,,,,,,,,,864.3554325912555,,,,,,,,,,,,,,AMP_prac,right,0.83172010834096,3,,,left,0.6156342347385362,,,,,,,,,,,,,,,,,,,,,,,,,1002,2019_May_01_1348,mf_amp_cond1,3.0.7,59.99699820649063,
thinx,&&&&&,images/symbols/symbol_51.png,condition_files/AMP_rep3.csv,None,nonword,,,,,,,,,,,,,,0,0,0,2,0,54,54,54,,,,,,,,,,,,,,,,,,,,,865.1223315238312,,,,,,,,,,,,,,AMP_prac,right,0.83172010834096,3,,,right,0.5496504465409089,,,,,,,,,,,,,,,,,,,,,,,,,1002,2019_May_01_1348,mf_amp_cond1,3.0.7,59.99699820649063,
war,&&&,images/symbols/symbol_70.png,condition_files/AMP_rep3.csv,right,sanctity.vice,,,,,,,,,,,,,,0,0,0,2,0,55,55,55,,,,,,,,,,,,,,,,,,,,,866.1059186434431,,,,,,,,,,,,,,AMP_prac,right,0.83172010834096,3,,,right,0.7658851345186122,,,,,,,,,,,,,,,,,,,,,,,,,1002,2019_May_01_1348,mf_amp_cond1,3.0.7,59.99699820649063,
help,&&&&,images/symbols/symbol_36.png,condition_files/AMP_rep3.csv,left,care.virtue,,,,,,,,,,,,,,0,0,0,2,0,56,56,56,,,,,,,,,,,,,,,,,,,,,867.1728126369126,,,,,,,,,,,,,,AMP_prac,right,0.83172010834096,3,,,right,0.8491397309408057,,,,,,,,,,,,,,,,,,,,,,,,,1002,2019_May_01_1348,mf_amp_cond1,3.0.7,59.99699820649063,
suicide,&&&&&&&,images/symbols/symbol_48.png,condition_files/AMP_rep3.csv,right,care.vice,,,,,,,,,,,,,,0,0,0,2,0,57,57,57,,,,,,,,,,,,,,,,,,,,,867.939675648784,,,,,,,,,,,,,,AMP_prac,right,0.83172010834096,3,,,left,0.5491385763452854,,,,,,,,,,,,,,,,,,,,,,,,,1002,2019_May_01_1348,mf_amp_cond1,3.0.7,59.99699820649063,
troops,&&&&&&,images/symbols/symbol_79.png,condition_files/AMP_rep3.csv,right,loyalty.vice,,,,,,,,,,,,,,0,0,0,2,0,58,58,58,,,,,,,,,,,,,,,,,,,,,868.7065434714605,,,,,,,,,,,,,,AMP_prac,right,0.83172010834096,3,,,left,0.5490099673625082,,,,,,,,,,,,,,,,,,,,,,,,,1002,2019_May_01_1348,mf_amp_cond1,3.0.7,59.99699820649063,
killed,&&&&&&,images/symbols/symbol_5.png,condition_files/AMP_rep3.csv,right,care.vice,,,,,,,,,,,,,,0,0,0,2,0,59,59,59,,,,,,,,,,,,,,,,,,,,,869.5400881597016,,,,,,,,,,,,,,AMP_prac,right,0.83172010834096,3,,,left,0.6157859356317203,,,,,,,,,,,,,,,,,,,,,,,,,1002,2019_May_01_1348,mf_amp_cond1,3.0.7,59.99699820649063,
prison,&&&&&&,images/symbols/symbol_34.png,condition_files/AMP_rep3.csv,right,fairness.vice,,,,,,,,,,,,,,0,0,0,2,0,60,60,60,,,,,,,,,,,,,,,,,,,,,870.2903012786119,,,,,,,,,,,,,,AMP_prac,right,0.83172010834096,3,,,right,0.532316135650035,,,,,,,,,,,,,,,,,,,,,,,,,1002,2019_May_01_1348,mf_amp_cond1,3.0.7,59.99699820649063,
increase,&&&&&&&&,images/symbols/symbol_4.png,condition_files/AMP_rep3.csv,left,care.virtue,,,,,,,,,,,,,,0,0,0,2,0,61,61,61,,,,,,,,,,,,,,,,,,,,,871.1071248739026,,,,,,,,,,,,,,AMP_prac,right,0.83172010834096,3,,,right,0.5989593255799264,,,,,,,,,,,,,,,,,,,,,,,,,1002,2019_May_01_1348,mf_amp_cond1,3.0.7,59.99699820649063,
accused,&&&&&&&,images/symbols/symbol_55.png,condition_files/AMP_rep3.csv,right,fairness.vice,,,,,,,,,,,,,,0,0,0,2,0,62,62,62,,,,,,,,,,,,,,,,,,,,,871.9073386662931,,,,,,,,,,,,,,AMP_prac,right,0.83172010834096,3,,,right,0.5670668619277421,,,,,,,,,,,,,,,,,,,,,,,,,1002,2019_May_01_1348,mf_amp_cond1,3.0.7,59.99699820649063,
twild,&&&&&,images/symbols/symbol_67.png,condition_files/AMP_rep3.csv,None,nonword,,,,,,,,,,,,,,0,0,0,2,0,63,63,63,,,,,,,,,,,,,,,,,,,,,872.6909006413771,,,,,,,,,,,,,,AMP_prac,right,0.83172010834096,3,,,left,0.5651781378837768,,,,,,,,,,,,,,,,,,,,,,,,,1002,2019_May_01_1348,mf_amp_cond1,3.0.7,59.99699820649063,
actively,&&&&&&&&,images/symbols/symbol_43.png,condition_files/AMP_rep3.csv,left,authority.virtue,,,,,,,,,,,,,,0,0,0,2,0,64,64,64,,,,,,,,,,,,,,,,,,,,,873.5077271231567,,,,,,,,,,,,,,AMP_prac,right,0.83172010834096,3,,,right,0.583713868400082,,,,,,,,,,,,,,,,,,,,,,,,,1002,2019_May_01_1348,mf_amp_cond1,3.0.7,59.99699820649063,
friends,&&&&&&&,images/symbols/symbol_32.png,condition_files/AMP_rep3.csv,left,loyalty.virtue,,,,,,,,,,,,,,0,0,0,2,0,65,65,65,,,,,,,,,,,,,,,,,,,,,874.6248908748094,,,,,,,,,,,,,,AMP_prac,right,0.83172010834096,3,,,left,0.8988357198250014,,,,,,,,,,,,,,,,,,,,,,,,,1002,2019_May_01_1348,mf_amp_cond1,3.0.7,59.99699820649063,
energy,&&&&&&,images/symbols/symbol_35.png,condition_files/AMP_rep3.csv,left,sanctity.virtue,,,,,,,,,,,,,,0,0,0,2,0,66,66,66,,,,,,,,,,,,,,,,,,,,,875.2748473530228,,,,,,,,,,,,,,AMP_prac,right,0.83172010834096,3,,,right,0.4323324282595422,,,,,,,,,,,,,,,,,,,,,,,,,1002,2019_May_01_1348,mf_amp_cond1,3.0.7,59.99699820649063,
good,&&&&,images/symbols/symbol_20.png,condition_files/AMP_rep3.csv,left,care.virtue,,,,,,,,,,,,,,0,0,0,2,0,67,67,67,,,,,,,,,,,,,,,,,,,,,875.9416650791245,,,,,,,,,,,,,,AMP_prac,right,0.83172010834096,3,,,right,0.4496337049349677,,,,,,,,,,,,,,,,,,,,,,,,,1002,2019_May_01_1348,mf_amp_cond1,3.0.7,59.99699820649063,
perfect,&&&&&&&,images/symbols/symbol_30.png,condition_files/AMP_rep3.csv,left,sanctity.virtue,,,,,,,,,,,,,,0,0,0,2,0,68,68,68,,,,,,,,,,,,,,,,,,,,,876.6252250657417,,,,,,,,,,,,,,AMP_prac,right,0.83172010834096,3,,,right,0.4659038646204863,,,,,,,,,,,,,,,,,,,,,,,,,1002,2019_May_01_1348,mf_amp_cond1,3.0.7,59.99699820649063,
torture,&&&&&&&,images/symbols/symbol_19.png,condition_files/AMP_rep3.csv,right,care.vice,,,,,,,,,,,,,,0,0,0,2,0,69,69,69,,,,,,,,,,,,,,,,,,,,,877.3920277821308,,,,,,,,,,,,,,AMP_prac,right,0.83172010834096,3,,,left,0.5490981655311771,,,,,,,,,,,,,,,,,,,,,,,,,1002,2019_May_01_1348,mf_amp_cond1,3.0.7,59.99699820649063,
fair,&&&&,images/symbols/symbol_62.png,condition_files/AMP_rep3.csv,left,fairness.virtue,,,,,,,,,,,,,,0,0,0,2,0,70,70,70,,,,,,,,,,,,,,,,,,,,,878.4589596206497,,,,,,,,,,,,,,AMP_prac,right,0.83172010834096,3,,,right,0.8337845873320475,,,,,,,,,,,,,,,,,,,,,,,,,1002,2019_May_01_1348,mf_amp_cond1,3.0.7,59.99699820649063,
phluks,&&&&&&,images/symbols/symbol_45.png,condition_files/AMP_rep3.csv,None,nonword,,,,,,,,,,,,,,0,0,0,2,0,71,71,71,,,,,,,,,,,,,,,,,,,,,879.3925358036649,,,,,,,,,,,,,,AMP_prac,right,0.83172010834096,3,,,right,0.7152552070620004,,,,,,,,,,,,,,,,,,,,,,,,,1002,2019_May_01_1348,mf_amp_cond1,3.0.7,59.99699820649063,
scandal,&&&&&&&,images/symbols/symbol_23.png,condition_files/AMP_rep3.csv,right,sanctity.vice,,,,,,,,,,,,,,0,0,0,2,0,72,72,72,,,,,,,,,,,,,,,,,,,,,880.3261055722833,,,,,,,,,,,,,,AMP_prac,right,0.83172010834096,3,,,right,0.7158302592288237,,,,,,,,,,,,,,,,,,,,,,,,,1002,2019_May_01_1348,mf_amp_cond1,3.0.7,59.99699820649063,
intelligence,&&&&&&&&&&&&,images/symbols/symbol_61.png,condition_files/AMP_rep3.csv,left,loyalty.virtue,,,,,,,,,,,,,,0,0,0,2,0,73,73,73,,,,,,,,,,,,,,,,,,,,,881.026277286117,,,,,,,,,,,,,,AMP_prac,right,0.83172010834096,3,,,left,0.46703087707282975,,,,,,,,,,,,,,,,,,,,,,,,,1002,2019_May_01_1348,mf_amp_cond1,3.0.7,59.99699820649063,
useful,&&&&&&,images/symbols/symbol_21.png,condition_files/AMP_rep3.csv,left,authority.virtue,,,,,,,,,,,,,,0,0,0,2,0,74,74,74,,,,,,,,,,,,,,,,,,,,,881.9265180832008,,,,,,,,,,,,,,AMP_prac,right,0.83172010834096,3,,,left,0.6821812084526755,,,,,,,,,,,,,,,,,,,,,,,,,1002,2019_May_01_1348,mf_amp_cond1,3.0.7,59.99699820649063,
rhailled,&&&&&&&&,images/symbols/symbol_82.png,condition_files/AMP_rep3.csv,None,nonword,,,,,,,,,,,,,,0,0,0,2,0,75,75,75,,,,,,,,,,,,,,,,,,,,,882.5933547318273,,,,,,,,,,,,,,AMP_prac,right,0.83172010834096,3,,,right,0.44940727614448406,,,,,,,,,,,,,,,,,,,,,,,,,1002,2019_May_01_1348,mf_amp_cond1,3.0.7,59.99699820649063,
critics,&&&&&&&,images/symbols/symbol_44.png,condition_files/AMP_rep3.csv,right,loyalty.vice,,,,,,,,,,,,,,0,0,0,2,0,76,76,76,,,,,,,,,,,,,,,,,,,,,883.6935972608044,,,,,,,,,,,,,,AMP_prac,right,0.83172010834096,3,,,left,0.8821967313415371,,,,,,,,,,,,,,,,,,,,,,,,,1002,2019_May_01_1348,mf_amp_cond1,3.0.7,59.99699820649063,
cande,&&&&&,images/symbols/symbol_31.png,condition_files/AMP_rep3.csv,None,nonword,,,,,,,,,,,,,,0,0,0,2,0,77,77,77,,,,,,,,,,,,,,,,,,,,,884.3605057508685,,,,,,,,,,,,,,AMP_prac,right,0.83172010834096,3,,,right,0.43375290010590106,,,,,,,,,,,,,,,,,,,,,,,,,1002,2019_May_01_1348,mf_amp_cond1,3.0.7,59.99699820649063,
racist,&&&&&&,images/symbols/symbol_78.png,condition_files/AMP_rep3.csv,right,sanctity.vice,,,,,,,,,,,,,,0,0,0,2,0,78,78,78,,,,,,,,,,,,,,,,,,,,,885.0606129998341,,,,,,,,,,,,,,AMP_prac,right,0.83172010834096,3,,,right,0.4816470802470576,,,,,,,,,,,,,,,,,,,,,,,,,1002,2019_May_01_1348,mf_amp_cond1,3.0.7,59.99699820649063,
wheighlde,&&&&&&&&&,images/symbols/symbol_39.png,condition_files/AMP_rep3.csv,None,nonword,,,,,,,,,,,,,,0,0,0,2,0,79,79,79,,,,,,,,,,,,,,,,,,,,,885.9608348744223,,,,,,,,,,,,,,AMP_prac,right,0.83172010834096,3,,,left,0.6817443869076669,,,,,,,,,,,,,,,,,,,,,,,,,1002,2019_May_01_1348,mf_amp_cond1,3.0.7,59.99699820649063,
commitment,&&&&&&&&&&,images/symbols/symbol_77.png,condition_files/AMP_rep3.csv,left,sanctity.virtue,,,,,,,,,,,,,,0,0,0,2,0,80,80,80,,,,,,,,,,,,,,,,,,,,,886.5276458012231,,,,,,,,,,,,,,AMP_prac,right,0.83172010834096,3,,,right,0.3491294678824488,,,,,,,,,,,,,,,,,,,,,,,,,1002,2019_May_01_1348,mf_amp_cond1,3.0.7,59.99699820649063,
fear,&&&&,images/symbols/symbol_52.png,condition_files/AMP_rep3.csv,right,sanctity.vice,,,,,,,,,,,,,,0,0,0,2,0,81,81,81,,,,,,,,,,,,,,,,,,,,,887.2778569957882,,,,,,,,,,,,,,AMP_prac,right,0.83172010834096,3,,,right,0.5170491902390495,,,,,,,,,,,,,,,,,,,,,,,,,1002,2019_May_01_1348,mf_amp_cond1,3.0.7,59.99699820649063,
,,,condition_files/AMP_rep3.csv,,,,,,,,,,,,,,,,0,0,0,2,,,,,,,,,,,,,,,,,,,,,,,,,,,,,,,,,,,,,,,,,,,,,,,right,4.251296192611335,,,,,,,,,,,,,,,,,,,,,,,1002,2019_May_01_1348,mf_amp_cond1,3.0.7,59.99699820649063,
prosecution,&&&&&&&&&&&,images/symbols/symbol_54.png,condition_files/AMP_rep1.csv,right,authority.vice,,,,,,,,,,,,,,0,1,1,0,0,0,0,0,,,,,,,,,,,,,,,,,,,,,892.5459634416911,,,,,,,,,,,,,,AMP_prac,right,0.83172010834096,3,,,right,0.765041318431031,,,,,,,,,,,,,,,,,,,,,,,,,1002,2019_May_01_1348,mf_amp_cond1,3.0.7,59.99699820649063,
strength,&&&&&&&&,images/symbols/symbol_27.png,condition_files/AMP_rep1.csv,left,sanctity.virtue,,,,,,,,,,,,,,0,1,1,0,0,1,1,1,,,,,,,,,,,,,,,,,,,,,893.7294640949985,,,,,,,,,,,,,,AMP_prac,right,0.83172010834096,3,,,right,0.9505012543522753,,,,,,,,,,,,,,,,,,,,,,,,,1002,2019_May_01_1348,mf_amp_cond1,3.0.7,59.99699820649063,
phegned,&&&&&&&,images/symbols/symbol_9.png,condition_files/AMP_rep1.csv,None,nonword,,,,,,,,,,,,,,0,1,1,0,0,2,2,2,,,,,,,,,,,,,,,,,,,,,894.8797435389424,,,,,,,,,,,,,,AMP_prac,right,0.83172010834096,3,,,right,0.9318699490395375,,,,,,,,,,,,,,,,,,,,,,,,,1002,2019_May_01_1348,mf_amp_cond1,3.0.7,59.99699820649063,
daizz,&&&&&,images/symbols/symbol_11.png,condition_files/AMP_rep1.csv,None,nonword,,,,,,,,,,,,,,0,1,1,0,0,3,3,3,,,,,,,,,,,,,,,,,,,,,895.7632994844753,,,,,,,,,,,,,,AMP_prac,right,0.83172010834096,3,,,left,0.6658946920069866,,,,,,,,,,,,,,,,,,,,,,,,,1002,2019_May_01_1348,mf_amp_cond1,3.0.7,59.99699820649063,
faith,&&&&&,images/symbols/symbol_14.png,condition_files/AMP_rep1.csv,left,sanctity.virtue,,,,,,,,,,,,,,0,1,1,0,0,4,4,4,,,,,,,,,,,,,,,,,,,,,896.8802756145305,,,,,,,,,,,,,,AMP_prac,right,0.83172010834096,3,,,left,0.8992180188652128,,,,,,,,,,,,,,,,,,,,,,,,,1002,2019_May_01_1348,mf_amp_cond1,3.0.7,59.99699820649063,
opportunity,&&&&&&&&&&&,images/symbols/symbol_29.png,condition_files/AMP_rep1.csv,left,fairness.virtue,,,,,,,,,,,,,,0,1,1,0,0,5,5,5,,,,,,,,,,,,,,,,,,,,,897.5971187096438,,,,,,,,,,,,,,AMP_prac,right,0.83172010834096,3,,,right,0.4988739497202914,,,,,,,,,,,,,,,,,,,,,,,,,1002,2019_May_01_1348,mf_amp_cond1,3.0.7,59.99699820649063,
great,&&&&&,images/symbols/symbol_15.png,condition_files/AMP_rep1.csv,left,loyalty.virtue,,,,,,,,,,,,,,0,1,1,0,0,6,6,6,,,,,,,,,,,,,,,,,,,,,898.6973631629371,,,,,,,,,,,,,,AMP_prac,right,0.83172010834096,3,,,left,0.882567484426545,,,,,,,,,,,,,,,,,,,,,,,,,1002,2019_May_01_1348,mf_amp_cond1,3.0.7,59.99699820649063,
black,&&&&&,images/symbols/symbol_58.png,condition_files/AMP_rep1.csv,right,loyalty.vice,,,,,,,,,,,,,,0,1,1,0,0,7,7,7,,,,,,,,,,,,,,,,,,,,,899.7309493524372,,,,,,,,,,,,,,AMP_prac,right,0.83172010834096,3,,,right,0.8004546536249109,,,,,,,,,,,,,,,,,,,,,,,,,1002,2019_May_01_1348,mf_amp_cond1,3.0.7,59.99699820649063,
failure,&&&&&&&,images/symbols/symbol_81.png,condition_files/AMP_rep1.csv,right,loyalty.vice,,,,,,,,,,,,,,0,1,1,0,0,8,8,8,,,,,,,,,,,,,,,,,,,,,900.4478197088174,,,,,,,,,,,,,,AMP_prac,right,0.83172010834096,3,,,right,0.4837298402853776,,,,,,,,,,,,,,,,,,,,,,,,,1002,2019_May_01_1348,mf_amp_cond1,3.0.7,59.99699820649063,
groups,&&&&&&,images/symbols/symbol_72.png,condition_files/AMP_rep1.csv,right,loyalty.vice,,,,,,,,,,,,,,0,1,1,0,0,9,9,9,,,,,,,,,,,,,,,,,,,,,901.5313947051764,,,,,,,,,,,,,,AMP_prac,right,0.83172010834096,3,,,left,0.8652245140983723,,,,,,,,,,,,,,,,,,,,,,,,,1002,2019_May_01_1348,mf_amp_cond1,3.0.7,59.99699820649063,
abuse,&&&&&,images/symbols/symbol_53.png,condition_files/AMP_rep1.csv,right,sanctity.vice,,,,,,,,,,,,,,0,1,1,0,0,10,10,10,,,,,,,,,,,,,,,,,,,,,902.8817454773816,,,,,,,,,,,,,,AMP_prac,right,0.83172010834096,3,,,left,1.1326250537822489,,,,,,,,,,,,,,,,,,,,,,,,,1002,2019_May_01_1348,mf_amp_cond1,3.0.7,59.99699820649063,
honored,&&&&&&&,images/symbols/symbol_75.png,condition_files/AMP_rep1.csv,left,authority.virtue,,,,,,,,,,,,,,0,1,1,0,0,11,11,11,,,,,,,,,,,,,,,,,,,,,903.7319615468732,,,,,,,,,,,,,,AMP_prac,right,0.83172010834096,3,,,right,0.6323315943882335,,,,,,,,,,,,,,,,,,,,,,,,,1002,2019_May_01_1348,mf_amp_cond1,3.0.7,59.99699820649063,
promises,&&&&&&&&,images/symbols/symbol_74.png,condition_files/AMP_rep1.csv,left,fairness.virtue,,,,,,,,,,,,,,0,1,1,0,0,12,12,12,,,,,,,,,,,,,,,,,,,,,904.4154814434296,,,,,,,,,,,,,,AMP_prac,right,0.83172010834096,3,,,right,0.4503970201185439,,,,,,,,,,,,,,,,,,,,,,,,,1002,2019_May_01_1348,mf_amp_cond1,3.0.7,59.99699820649063,
ensure,&&&&&&,images/symbols/symbol_59.png,condition_files/AMP_rep1.csv,left,fairness.virtue,,,,,,,,,,,,,,0,1,1,0,0,13,13,13,,,,,,,,,,,,,,,,,,,,,905.215648410609,,,,,,,,,,,,,,AMP_prac,right,0.83172010834096,3,,,left,0.5817667732189875,,,,,,,,,,,,,,,,,,,,,,,,,1002,2019_May_01_1348,mf_amp_cond1,3.0.7,59.99699820649063,
compassion,&&&&&&&&&&,images/symbols/symbol_42.png,condition_files/AMP_rep1.csv,left,care.virtue,,,,,,,,,,,,,,0,1,1,0,0,14,14,14,,,,,,,,,,,,,,,,,,,,,905.8158306441037,,,,,,,,,,,,,,AMP_prac,right,0.83172010834096,3,,,right,0.36702888857689686,,,,,,,,,,,,,,,,,,,,,,,,,1002,2019_May_01_1348,mf_amp_cond1,3.0.7,59.99699820649063,
rejected,&&&&&&&&,images/symbols/symbol_33.png,condition_files/AMP_rep1.csv,right,authority.vice,,,,,,,,,,,,,,0,1,1,0,0,15,15,15,,,,,,,,,,,,,,,,,,,,,906.3993094242469,,,,,,,,,,,,,,AMP_prac,right,0.83172010834096,3,,,left,0.3654121356958058,,,,,,,,,,,,,,,,,,,,,,,,,1002,2019_May_01_1348,mf_amp_cond1,3.0.7,59.99699820649063,
army,&&&&,images/symbols/symbol_46.png,condition_files/AMP_rep1.csv,right,loyalty.vice,,,,,,,,,,,,,,0,1,1,0,0,16,16,16,,,,,,,,,,,,,,,,,,,,,907.0661056620884,,,,,,,,,,,,,,AMP_prac,right,0.83172010834096,3,,,right,0.44907565094763413,,,,,,,,,,,,,,,,,,,,,,,,,1002,2019_May_01_1348,mf_amp_cond1,3.0.7,59.99699820649063,
clean,&&&&&,images/symbols/symbol_8.png,condition_files/AMP_rep1.csv,left,sanctity.virtue,,,,,,,,,,,,,,0,1,1,0,0,17,17,17,,,,,,,,,,,,,,,,,,,,,907.7496201063623,,,,,,,,,,,,,,AMP_prac,right,0.83172010834096,3,,,left,0.4657136772584636,,,,,,,,,,,,,,,,,,,,,,,,,1002,2019_May_01_1348,mf_amp_cond1,3.0.7,59.99699820649063,
voter,&&&&&,images/symbols/symbol_69.png,condition_files/AMP_rep1.csv,right,fairness.vice,,,,,,,,,,,,,,0,1,1,0,0,18,18,18,,,,,,,,,,,,,,,,,,,,,908.4164513027354,,,,,,,,,,,,,,AMP_prac,right,0.83172010834096,3,,,left,0.44875493028666824,,,,,,,,,,,,,,,,,,,,,,,,,1002,2019_May_01_1348,mf_amp_cond1,3.0.7,59.99699820649063,
sharing,&&&&&&&,images/symbols/symbol_7.png,condition_files/AMP_rep1.csv,left,loyalty.virtue,,,,,,,,,,,,,,0,1,1,0,0,19,19,19,,,,,,,,,,,,,,,,,,,,,909.1999703012698,,,,,,,,,,,,,,AMP_prac,right,0.83172010834096,3,,,right,0.5656425414199475,,,,,,,,,,,,,,,,,,,,,,,,,1002,2019_May_01_1348,mf_amp_cond1,3.0.7,59.99699820649063,
love,&&&&,images/symbols/symbol_49.png,condition_files/AMP_rep1.csv,left,loyalty.virtue,,,,,,,,,,,,,,0,1,1,0,0,20,20,20,,,,,,,,,,,,,,,,,,,,,909.8001618356502,,,,,,,,,,,,,,AMP_prac,right,0.83172010834096,3,,,right,0.36703369941096753,,,,,,,,,,,,,,,,,,,,,,,,,1002,2019_May_01_1348,mf_amp_cond1,3.0.7,59.99699820649063,
praise,&&&&&&,images/symbols/symbol_2.png,condition_files/AMP_rep1.csv,left,authority.virtue,,,,,,,,,,,,,,0,1,1,0,0,21,21,21,,,,,,,,,,,,,,,,,,,,,910.3836377293337,,,,,,,,,,,,,,AMP_prac,right,0.83172010834096,3,,,left,0.3653592167538591,,,,,,,,,,,,,,,,,,,,,,,,,1002,2019_May_01_1348,mf_amp_cond1,3.0.7,59.99699820649063,
loyalty,&&&&&&&,images/symbols/symbol_71.png,condition_files/AMP_rep1.csv,left,loyalty.virtue,,,,,,,,,,,,,,0,1,1,0,0,22,22,22,,,,,,,,,,,,,,,,,,,,,911.1337902320083,,,,,,,,,,,,,,AMP_prac,right,0.83172010834096,3,,,left,0.5323344167263713,,,,,,,,,,,,,,,,,,,,,,,,,1002,2019_May_01_1348,mf_amp_cond1,3.0.7,59.99699820649063,
attacks,&&&&&&&,images/symbols/symbol_76.png,condition_files/AMP_rep1.csv,right,care.vice,,,,,,,,,,,,,,0,1,1,0,0,23,23,23,,,,,,,,,,,,,,,,,,,,,911.7339634853124,,,,,,,,,,,,,,AMP_prac,right,0.83172010834096,3,,,right,0.3827425979252439,,,,,,,,,,,,,,,,,,,,,,,,,1002,2019_May_01_1348,mf_amp_cond1,3.0.7,59.99699820649063,
improve,&&&&&&&,images/symbols/symbol_6.png,condition_files/AMP_rep1.csv,left,care.virtue,,,,,,,,,,,,,,0,1,1,0,0,24,24,24,,,,,,,,,,,,,,,,,,,,,912.2340712474543,,,,,,,,,,,,,,AMP_prac,right,0.83172010834096,3,,,right,0.2823794779833406,,,,,,,,,,,,,,,,,,,,,,,,,1002,2019_May_01_1348,mf_amp_cond1,3.0.7,59.99699820649063,
psured,&&&&&&,images/symbols/symbol_40.png,condition_files/AMP_rep1.csv,None,nonword,,,,,,,,,,,,,,0,1,1,0,0,25,25,25,,,,,,,,,,,,,,,,,,,,,912.6841764117707,,,,,,,,,,,,,,AMP_prac,right,0.83172010834096,3,,,right,0.23226687294663861,,,,,,,,,,,,,,,,,,,,,,,,,1002,2019_May_01_1348,mf_amp_cond1,3.0.7,59.99699820649063,
victim,&&&&&&,images/symbols/symbol_65.png,condition_files/AMP_rep1.csv,right,care.vice,,,,,,,,,,,,,,0,1,1,0,0,26,26,26,,,,,,,,,,,,,,,,,,,,,913.1009477937478,,,,,,,,,,,,,,AMP_prac,right,0.83172010834096,3,,,left,0.19890294285141863,,,,,,,,,,,,,,,,,,,,,,,,,1002,2019_May_01_1348,mf_amp_cond1,3.0.7,59.99699820649063,
peaceful,&&&&&&&&,images/symbols/symbol_68.png,condition_files/AMP_rep1.csv,left,authority.virtue,,,,,,,,,,,,,,0,1,1,0,0,27,27,27,,,,,,,,,,,,,,,,,,,,,913.5177198171441,,,,,,,,,,,,,,AMP_prac,right,0.83172010834096,3,,,left,0.18361899923183955,,,,,,,,,,,,,,,,,,,,,,,,,1002,2019_May_01_1348,mf_amp_cond1,3.0.7,59.99699820649063,
corruption,&&&&&&&&&&,images/symbols/symbol_57.png,condition_files/AMP_rep1.csv,right,sanctity.vice,,,,,,,,,,,,,,0,1,1,0,0,28,28,28,,,,,,,,,,,,,,,,,,,,,913.934508838749,,,,,,,,,,,,,,AMP_prac,right,0.83172010834096,3,,,right,0.1984783087100368,,,,,,,,,,,,,,,,,,,,,,,,,1002,2019_May_01_1348,mf_amp_cond1,3.0.7,59.99699820649063,
safety,&&&&&&,images/symbols/symbol_13.png,condition_files/AMP_rep1.csv,left,care.virtue,,,,,,,,,,,,,,0,1,1,0,0,29,29,29,,,,,,,,,,,,,,,,,,,,,914.4012988545874,,,,,,,,,,,,,,AMP_prac,right,0.83172010834096,3,,,left,0.2489751370740123,,,,,,,,,,,,,,,,,,,,,,,,,1002,2019_May_01_1348,mf_amp_cond1,3.0.7,59.99699820649063,
riot,&&&&,images/symbols/symbol_28.png,condition_files/AMP_rep1.csv,right,authority.vice,,,,,,,,,,,,,,0,1,1,0,0,30,30,30,,,,,,,,,,,,,,,,,,,,,914.8680561569054,,,,,,,,,,,,,,AMP_prac,right,0.83172010834096,3,,,right,0.2491422325547319,,,,,,,,,,,,,,,,,,,,,,,,,1002,2019_May_01_1348,mf_amp_cond1,3.0.7,59.99699820649063,
unpleasant,&&&&&&&&&,images/symbols/symbol_17.png,condition_files/AMP_rep1.csv,left,control,,,,,,,,,,,,,,0,1,1,0,0,31,31,31,,,,,,,,,,,,,,,,,,,,,916.0183468260511,,,,,,,,,,,,,,AMP_prac,right,0.83172010834096,3,,,left,0.932573610189138,,,,,,,,,,,,,,,,,,,,,,,,,1002,2019_May_01_1348,mf_amp_cond1,3.0.7,59.99699820649063,
terrorists,&&&&&&&&&&,images/symbols/symbol_16.png,condition_files/AMP_rep1.csv,right,fairness.vice,,,,,,,,,,,,,,0,1,1,0,0,32,32,32,,,,,,,,,,,,,,,,,,,,,917.0019349078357,,,,,,,,,,,,,,AMP_prac,right,0.83172010834096,3,,,right,0.7661279200983699,,,,,,,,,,,,,,,,,,,,,,,,,1002,2019_May_01_1348,mf_amp_cond1,3.0.7,59.99699820649063,
protesters,&&&&&&&&&&,images/symbols/symbol_10.png,condition_files/AMP_rep1.csv,right,authority.vice,,,,,,,,,,,,,,0,1,1,0,0,33,33,33,,,,,,,,,,,,,,,,,,,,,917.9355739520979,,,,,,,,,,,,,,AMP_prac,right,0.83172010834096,3,,,right,0.7157571349234786,,,,,,,,,,,,,,,,,,,,,,,,,1002,2019_May_01_1348,mf_amp_cond1,3.0.7,59.99699820649063,
benefit,&&&&&&&,images/symbols/symbol_50.png,condition_files/AMP_rep1.csv,left,fairness.virtue,,,,,,,,,,,,,,0,1,1,0,0,34,34,34,,,,,,,,,,,,,,,,,,,,,918.8857439019775,,,,,,,,,,,,,,AMP_prac,right,0.83172010834096,3,,,right,0.7325285810220521,,,,,,,,,,,,,,,,,,,,,,,,,1002,2019_May_01_1348,mf_amp_cond1,3.0.7,59.99699820649063,
threatened,&&&&&&&&&&,images/symbols/symbol_26.png,condition_files/AMP_rep1.csv,right,fairness.vice,,,,,,,,,,,,,,0,1,1,0,0,35,35,35,,,,,,,,,,,,,,,,,,,,,919.6525867084565,,,,,,,,,,,,,,AMP_prac,right,0.83172010834096,3,,,right,0.5490260033984669,,,,,,,,,,,,,,,,,,,,,,,,,1002,2019_May_01_1348,mf_amp_cond1,3.0.7,59.99699820649063,
spynze,&&&&&&,images/symbols/symbol_73.png,condition_files/AMP_rep1.csv,None,nonword,,,,,,,,,,,,,,0,1,1,0,0,36,36,36,,,,,,,,,,,,,,,,,,,,,920.4527867098514,,,,,,,,,,,,,,AMP_prac,right,0.83172010834096,3,,,left,0.5670527502079494,,,,,,,,,,,,,,,,,,,,,,,,,1002,2019_May_01_1348,mf_amp_cond1,3.0.7,59.99699820649063,
pleasant,&&&&&&&,images/symbols/symbol_12.png,condition_files/AMP_rep1.csv,right,control,,,,,,,,,,,,,,0,1,1,0,0,37,37,37,,,,,,,,,,,,,,,,,,,,,921.2696519988531,,,,,,,,,,,,,,AMP_prac,right,0.83172010834096,3,,,left,0.5837106611870695,,,,,,,,,,,,,,,,,,,,,,,,,1002,2019_May_01_1348,mf_amp_cond1,3.0.7,59.99699820649063,
forced,&&&&&&,images/symbols/symbol_37.png,condition_files/AMP_rep1.csv,right,fairness.vice,,,,,,,,,,,,,,0,1,1,0,0,38,38,38,,,,,,,,,,,,,,,,,,,,,922.136543939705,,,,,,,,,,,,,,AMP_prac,right,0.83172010834096,3,,,right,0.6488564063038211,,,,,,,,,,,,,,,,,,,,,,,,,1002,2019_May_01_1348,mf_amp_cond1,3.0.7,59.99699820649063,
values,&&&&&&,images/symbols/symbol_60.png,condition_files/AMP_rep1.csv,left,sanctity.virtue,,,,,,,,,,,,,,0,1,1,0,0,39,39,39,,,,,,,,,,,,,,,,,,,,,922.8367146913952,,,,,,,,,,,,,,AMP_prac,right,0.83172010834096,3,,,left,0.4824399017379619,,,,,,,,,,,,,,,,,,,,,,,,,1002,2019_May_01_1348,mf_amp_cond1,3.0.7,59.99699820649063,
powerful,&&&&&&&&,images/symbols/symbol_18.png,condition_files/AMP_rep1.csv,left,authority.virtue,,,,,,,,,,,,,,0,1,1,0,0,40,40,40,,,,,,,,,,,,,,,,,,,,,923.8703807403508,,,,,,,,,,,,,,AMP_prac,right,0.83172010834096,3,,,left,0.8160096062347293,,,,,,,,,,,,,,,,,,,,,,,,,1002,2019_May_01_1348,mf_amp_cond1,3.0.7,59.99699820649063,
serial,&&&&&&,images/symbols/symbol_41.png,condition_files/AMP_rep1.csv,right,sanctity.vice,,,,,,,,,,,,,,0,1,1,0,0,41,41,41,,,,,,,,,,,,,,,,,,,,,924.753862920159,,,,,,,,,,,,,,AMP_prac,right,0.83172010834096,3,,,left,0.6504106186912395,,,,,,,,,,,,,,,,,,,,,,,,,1002,2019_May_01_1348,mf_amp_cond1,3.0.7,59.99699820649063,
care,&&&&,images/symbols/symbol_63.png,condition_files/AMP_rep1.csv,left,care.virtue,,,,,,,,,,,,,,0,1,1,0,0,42,42,42,,,,,,,,,,,,,,,,,,,,,925.5707458487595,,,,,,,,,,,,,,AMP_prac,right,0.83172010834096,3,,,right,0.5990549003181513,,,,,,,,,,,,,,,,,,,,,,,,,1002,2019_May_01_1348,mf_amp_cond1,3.0.7,59.99699820649063,
civilians,&&&&&&&&&,images/symbols/symbol_47.png,condition_files/AMP_rep1.csv,right,care.vice,,,,,,,,,,,,,,0,1,1,0,0,43,43,43,,,,,,,,,,,,,,,,,,,,,926.4376150184544,,,,,,,,,,,,,,AMP_prac,right,0.83172010834096,3,,,left,0.6490648747421801,,,,,,,,,,,,,,,,,,,,,,,,,1002,2019_May_01_1348,mf_amp_cond1,3.0.7,59.99699820649063,
free,&&&&,images/symbols/symbol_56.png,condition_files/AMP_rep1.csv,left,fairness.virtue,,,,,,,,,,,,,,0,1,1,0,0,44,44,44,,,,,,,,,,,,,,,,,,,,,927.1211169546586,,,,,,,,,,,,,,AMP_prac,right,0.83172010834096,3,,,right,0.45036206155782565,,,,,,,,,,,,,,,,,,,,,,,,,1002,2019_May_01_1348,mf_amp_cond1,3.0.7,59.99699820649063,
progress,&&&&&&&&,images/symbols/symbol_38.png,condition_files/AMP_rep1.csv,left,authority.virtue,,,,,,,,,,,,,,0,1,1,0,0,45,45,45,,,,,,,,,,,,,,,,,,,,,927.8213002144475,,,,,,,,,,,,,,AMP_prac,right,0.83172010834096,3,,,right,0.4821502910053823,,,,,,,,,,,,,,,,,,,,,,,,,1002,2019_May_01_1348,mf_amp_cond1,3.0.7,59.99699820649063,
fighters,&&&&&&&&,images/symbols/symbol_24.png,condition_files/AMP_rep1.csv,right,authority.vice,,,,,,,,,,,,,,0,1,1,0,0,46,46,46,,,,,,,,,,,,,,,,,,,,,928.6881834958622,,,,,,,,,,,,,,AMP_prac,right,0.83172010834096,3,,,left,0.6490793071570806,,,,,,,,,,,,,,,,,,,,,,,,,1002,2019_May_01_1348,mf_amp_cond1,3.0.7,59.99699820649063,
victims,&&&&&&&,images/symbols/symbol_22.png,condition_files/AMP_rep1.csv,right,care.vice,,,,,,,,,,,,,,0,1,1,0,0,47,47,47,,,,,,,,,,,,,,,,,,,,,929.5383931509568,,,,,,,,,,,,,,AMP_prac,right,0.83172010834096,3,,,right,0.6324990105931647,,,,,,,,,,,,,,,,,,,,,,,,,1002,2019_May_01_1348,mf_amp_cond1,3.0.7,59.99699820649063,
party,&&&&&,images/symbols/symbol_25.png,condition_files/AMP_rep1.csv,left,loyalty.virtue,,,,,,,,,,,,,,0,1,1,0,0,48,48,48,,,,,,,,,,,,,,,,,,,,,930.3719253310992,,,,,,,,,,,,,,AMP_prac,right,0.83172010834096,3,,,left,0.6157426383288112,,,,,,,,,,,,,,,,,,,,,,,,,1002,2019_May_01_1348,mf_amp_cond1,3.0.7,59.99699820649063,
rebels,&&&&&&,images/symbols/symbol_66.png,condition_files/AMP_rep1.csv,right,authority.vice,,,,,,,,,,,,,,0,1,1,0,0,49,49,49,,,,,,,,,,,,,,,,,,,,,931.0221236326906,,,,,,,,,,,,,,AMP_prac,right,0.83172010834096,3,,,right,0.41704431525431573,,,,,,,,,,,,,,,,,,,,,,,,,1002,2019_May_01_1348,mf_amp_cond1,3.0.7,59.99699820649063,
credit,&&&&&&,images/symbols/symbol_3.png,condition_files/AMP_rep1.csv,left,fairness.virtue,,,,,,,,,,,,,,0,1,1,0,0,50,50,50,,,,,,,,,,,,,,,,,,,,,931.6222753977345,,,,,,,,,,,,,,AMP_prac,right,0.83172010834096,3,,,left,0.3821806953055784,,,,,,,,,,,,,,,,,,,,,,,,,1002,2019_May_01_1348,mf_amp_cond1,3.0.7,59.99699820649063,
blamed,&&&&&&,images/symbols/symbol_1.png,condition_files/AMP_rep1.csv,right,loyalty.vice,,,,,,,,,,,,,,0,1,1,0,0,51,51,51,,,,,,,,,,,,,,,,,,,,,932.2724438722944,,,,,,,,,,,,,,AMP_prac,right,0.83172010834096,3,,,right,0.4322843201516662,,,,,,,,,,,,,,,,,,,,,,,,,1002,2019_May_01_1348,mf_amp_cond1,3.0.7,59.99699820649063,
police,&&&&&&,images/symbols/symbol_80.png,condition_files/AMP_rep1.csv,right,authority.vice,,,,,,,,,,,,,,0,1,1,0,0,52,52,52,,,,,,,,,,,,,,,,,,,,,932.9059111385723,,,,,,,,,,,,,,AMP_prac,right,0.83172010834096,3,,,left,0.41623032616917044,,,,,,,,,,,,,,,,,,,,,,,,,1002,2019_May_01_1348,mf_amp_cond1,3.0.7,59.99699820649063,
charges,&&&&&&&,images/symbols/symbol_64.png,condition_files/AMP_rep1.csv,right,fairness.vice,,,,,,,,,,,,,,0,1,1,0,0,53,53,53,,,,,,,,,,,,,,,,,,,,,933.6894304578309,,,,,,,,,,,,,,AMP_prac,right,0.83172010834096,3,,,right,0.5656659540254623,,,,,,,,,,,,,,,,,,,,,,,,,1002,2019_May_01_1348,mf_amp_cond1,3.0.7,59.99699820649063,
thinx,&&&&&,images/symbols/symbol_51.png,condition_files/AMP_rep1.csv,None,nonword,,,,,,,,,,,,,,0,1,1,0,0,54,54,54,,,,,,,,,,,,,,,,,,,,,934.389598002308,,,,,,,,,,,,,,AMP_prac,right,0.83172010834096,3,,,right,0.48284849990159273,,,,,,,,,,,,,,,,,,,,,,,,,1002,2019_May_01_1348,mf_amp_cond1,3.0.7,59.99699820649063,
war,&&&,images/symbols/symbol_70.png,condition_files/AMP_rep1.csv,right,sanctity.vice,,,,,,,,,,,,,,0,1,1,0,0,55,55,55,,,,,,,,,,,,,,,,,,,,,935.2898349507304,,,,,,,,,,,,,,AMP_prac,right,0.83172010834096,3,,,right,0.682608729111962,,,,,,,,,,,,,,,,,,,,,,,,,1002,2019_May_01_1348,mf_amp_cond1,3.0.7,59.99699820649063,
help,&&&&,images/symbols/symbol_36.png,condition_files/AMP_rep1.csv,left,care.virtue,,,,,,,,,,,,,,0,1,1,0,0,56,56,56,,,,,,,,,,,,,,,,,,,,,936.2067115290847,,,,,,,,,,,,,,AMP_prac,right,0.83172010834096,3,,,right,0.6991107698413543,,,,,,,,,,,,,,,,,,,,,,,,,1002,2019_May_01_1348,mf_amp_cond1,3.0.7,59.99699820649063,
suicide,&&&&&&&,images/symbols/symbol_48.png,condition_files/AMP_rep1.csv,right,care.vice,,,,,,,,,,,,,,0,1,1,0,0,57,57,57,,,,,,,,,,,,,,,,,,,,,936.9068912609655,,,,,,,,,,,,,,AMP_prac,right,0.83172010834096,3,,,left,0.48238377561210655,,,,,,,,,,,,,,,,,,,,,,,,,1002,2019_May_01_1348,mf_amp_cond1,3.0.7,59.99699820649063,
troops,&&&&&&,images/symbols/symbol_79.png,condition_files/AMP_rep1.csv,right,loyalty.vice,,,,,,,,,,,,,,0,1,1,0,0,58,58,58,,,,,,,,,,,,,,,,,,,,,938.0238542414445,,,,,,,,,,,,,,AMP_prac,right,0.83172010834096,3,,,right,0.8991214819543529,,,,,,,,,,,,,,,,,,,,,,,,,1002,2019_May_01_1348,mf_amp_cond1,3.0.7,59.99699820649063,
killed,&&&&&&,images/symbols/symbol_5.png,condition_files/AMP_rep1.csv,right,care.vice,,,,,,,,,,,,,,0,1,1,0,0,59,59,59,,,,,,,,,,,,,,,,,,,,,939.0907838349231,,,,,,,,,,,,,,AMP_prac,right,0.83172010834096,3,,,right,0.8492494174279273,,,,,,,,,,,,,,,,,,,,,,,,,1002,2019_May_01_1348,mf_amp_cond1,3.0.7,59.99699820649063,
prison,&&&&&&,images/symbols/symbol_34.png,condition_files/AMP_rep1.csv,right,fairness.vice,,,,,,,,,,,,,,0,1,1,0,0,60,60,60,,,,,,,,,,,,,,,,,,,,,940.1410535930772,,,,,,,,,,,,,,AMP_prac,right,0.83172010834096,3,,,left,0.8324218451743945,,,,,,,,,,,,,,,,,,,,,,,,,1002,2019_May_01_1348,mf_amp_cond1,3.0.7,59.99699820649063,
increase,&&&&&&&&,images/symbols/symbol_4.png,condition_files/AMP_rep1.csv,left,care.virtue,,,,,,,,,,,,,,0,1,1,0,0,61,61,61,,,,,,,,,,,,,,,,,,,,,941.0746102121484,,,,,,,,,,,,,,AMP_prac,right,0.83172010834096,3,,,left,0.7153494989324827,,,,,,,,,,,,,,,,,,,,,,,,,1002,2019_May_01_1348,mf_amp_cond1,3.0.7,59.99699820649063,
accused,&&&&&&&,images/symbols/symbol_55.png,condition_files/AMP_rep1.csv,right,fairness.vice,,,,,,,,,,,,,,0,1,1,0,0,62,62,62,,,,,,,,,,,,,,,,,,,,,942.1248697072442,,,,,,,,,,,,,,AMP_prac,right,0.83172010834096,3,,,left,0.8171192997542676,,,,,,,,,,,,,,,,,,,,,,,,,1002,2019_May_01_1348,mf_amp_cond1,3.0.7,59.99699820649063,
twild,&&&&&,images/symbols/symbol_67.png,condition_files/AMP_rep1.csv,None,nonword,,,,,,,,,,,,,,0,1,1,0,0,63,63,63,,,,,,,,,,,,,,,,,,,,,943.508551054576,,,,,,,,,,,,,,AMP_prac,right,0.83172010834096,3,,,right,1.165374483098276,,,,,,,,,,,,,,,,,,,,,,,,,1002,2019_May_01_1348,mf_amp_cond1,3.0.7,59.99699820649063,
actively,&&&&&&&&,images/symbols/symbol_43.png,condition_files/AMP_rep1.csv,left,authority.virtue,,,,,,,,,,,,,,0,1,1,0,0,64,64,64,,,,,,,,,,,,,,,,,,,,,944.7088472080359,,,,,,,,,,,,,,AMP_prac,right,0.83172010834096,3,,,right,0.9671565995668061,,,,,,,,,,,,,,,,,,,,,,,,,1002,2019_May_01_1348,mf_amp_cond1,3.0.7,59.99699820649063,
friends,&&&&&&&,images/symbols/symbol_32.png,condition_files/AMP_rep1.csv,left,loyalty.virtue,,,,,,,,,,,,,,0,1,1,0,0,65,65,65,,,,,,,,,,,,,,,,,,,,,945.725779014494,,,,,,,,,,,,,,AMP_prac,right,0.83172010834096,3,,,left,0.7986396953638177,,,,,,,,,,,,,,,,,,,,,,,,,1002,2019_May_01_1348,mf_amp_cond1,3.0.7,59.99699820649063,
energy,&&&&&&,images/symbols/symbol_35.png,condition_files/AMP_rep1.csv,left,sanctity.virtue,,,,,,,,,,,,,,0,1,1,0,0,66,66,66,,,,,,,,,,,,,,,,,,,,,946.8093684432679,,,,,,,,,,,,,,AMP_prac,right,0.83172010834096,3,,,right,0.8658117536397185,,,,,,,,,,,,,,,,,,,,,,,,,1002,2019_May_01_1348,mf_amp_cond1,3.0.7,59.99699820649063,
good,&&&&,images/symbols/symbol_20.png,condition_files/AMP_rep1.csv,left,care.virtue,,,,,,,,,,,,,,0,1,1,0,0,67,67,67,,,,,,,,,,,,,,,,,,,,,947.893035486486,,,,,,,,,,,,,,AMP_prac,right,0.83172010834096,3,,,left,0.8663611481315456,,,,,,,,,,,,,,,,,,,,,,,,,1002,2019_May_01_1348,mf_amp_cond1,3.0.7,59.99699820649063,
perfect,&&&&&&&,images/symbols/symbol_30.png,condition_files/AMP_rep1.csv,left,sanctity.virtue,,,,,,,,,,,,,,0,1,1,0,0,68,68,68,,,,,,,,,,,,,,,,,,,,,949.059940769308,,,,,,,,,,,,,,AMP_prac,right,0.83172010834096,3,,,right,0.9492020149191376,,,,,,,,,,,,,,,,,,,,,,,,,1002,2019_May_01_1348,mf_amp_cond1,3.0.7,59.99699820649063,
torture,&&&&&&&,images/symbols/symbol_19.png,condition_files/AMP_rep1.csv,right,care.vice,,,,,,,,,,,,,,0,1,1,0,0,69,69,69,,,,,,,,,,,,,,,,,,,,,949.8434745210106,,,,,,,,,,,,,,AMP_prac,right,0.83172010834096,3,,,left,0.5657753197592683,,,,,,,,,,,,,,,,,,,,,,,,,1002,2019_May_01_1348,mf_amp_cond1,3.0.7,59.99699820649063,
fair,&&&&,images/symbols/symbol_62.png,condition_files/AMP_rep1.csv,left,fairness.virtue,,,,,,,,,,,,,,0,1,1,0,0,70,70,70,,,,,,,,,,,,,,,,,,,,,950.8603867634956,,,,,,,,,,,,,,AMP_prac,right,0.83172010834096,3,,,right,0.7837338813696988,,,,,,,,,,,,,,,,,,,,,,,,,1002,2019_May_01_1348,mf_amp_cond1,3.0.7,59.99699820649063,
phluks,&&&&&&,images/symbols/symbol_45.png,condition_files/AMP_rep1.csv,None,nonword,,,,,,,,,,,,,,0,1,1,0,0,71,71,71,,,,,,,,,,,,,,,,,,,,,951.6939471670485,,,,,,,,,,,,,,AMP_prac,right,0.83172010834096,3,,,left,0.614930252864724,,,,,,,,,,,,,,,,,,,,,,,,,1002,2019_May_01_1348,mf_amp_cond1,3.0.7,59.99699820649063,
scandal,&&&&&&&,images/symbols/symbol_23.png,condition_files/AMP_rep1.csv,right,sanctity.vice,,,,,,,,,,,,,,0,1,1,0,0,72,72,72,,,,,,,,,,,,,,,,,,,,,952.6441645835876,,,,,,,,,,,,,,AMP_prac,right,0.83172010834096,3,,,left,0.7323778423306067,,,,,,,,,,,,,,,,,,,,,,,,,1002,2019_May_01_1348,mf_amp_cond1,3.0.7,59.99699820649063,
intelligence,&&&&&&&&&&&&,images/symbols/symbol_61.png,condition_files/AMP_rep1.csv,left,loyalty.virtue,,,,,,,,,,,,,,0,1,1,0,0,73,73,73,,,,,,,,,,,,,,,,,,,,,953.9112347810005,,,,,,,,,,,,,,AMP_prac,right,0.83172010834096,3,,,right,1.0339037029771134,,,,,,,,,,,,,,,,,,,,,,,,,1002,2019_May_01_1348,mf_amp_cond1,3.0.7,59.99699820649063,
useful,&&&&&&,images/symbols/symbol_21.png,condition_files/AMP_rep1.csv,left,authority.virtue,,,,,,,,,,,,,,0,1,1,0,0,74,74,74,,,,,,,,,,,,,,,,,,,,,955.0614423835068,,,,,,,,,,,,,,AMP_prac,right,0.83172010834096,3,,,left,0.9314898950688075,,,,,,,,,,,,,,,,,,,,,,,,,1002,2019_May_01_1348,mf_amp_cond1,3.0.7,59.99699820649063,
rhailled,&&&&&&&&,images/symbols/symbol_82.png,condition_files/AMP_rep1.csv,None,nonword,,,,,,,,,,,,,,0,1,1,0,0,75,75,75,,,,,,,,,,,,,,,,,,,,,956.3950986825512,,,,,,,,,,,,,,AMP_prac,right,0.83172010834096,3,,,right,1.1157686166989151,,,,,,,,,,,,,,,,,,,,,,,,,1002,2019_May_01_1348,mf_amp_cond1,3.0.7,59.99699820649063,
critics,&&&&&&&,images/symbols/symbol_44.png,condition_files/AMP_rep1.csv,right,loyalty.vice,,,,,,,,,,,,,,0,1,1,0,0,76,76,76,,,,,,,,,,,,,,,,,,,,,957.5453951246745,,,,,,,,,,,,,,AMP_prac,right,0.83172010834096,3,,,right,0.93229939401499,,,,,,,,,,,,,,,,,,,,,,,,,1002,2019_May_01_1348,mf_amp_cond1,3.0.7,59.99699820649063,
cande,&&&&&,images/symbols/symbol_31.png,condition_files/AMP_rep1.csv,None,nonword,,,,,,,,,,,,,,0,1,1,0,0,77,77,77,,,,,,,,,,,,,,,,,,,,,958.5122909783386,,,,,,,,,,,,,,AMP_prac,right,0.83172010834096,3,,,left,0.7337524511094671,,,,,,,,,,,,,,,,,,,,,,,,,1002,2019_May_01_1348,mf_amp_cond1,3.0.7,59.99699820649063,
racist,&&&&&&,images/symbols/symbol_78.png,condition_files/AMP_rep1.csv,right,sanctity.vice,,,,,,,,,,,,,,0,1,1,0,0,78,78,78,,,,,,,,,,,,,,,,,,,,,959.5959326846059,,,,,,,,,,,,,,AMP_prac,right,0.83172010834096,3,,,left,0.8650943014945369,,,,,,,,,,,,,,,,,,,,,,,,,1002,2019_May_01_1348,mf_amp_cond1,3.0.7,59.99699820649063,
wheighlde,&&&&&&&&&,images/symbols/symbol_39.png,condition_files/AMP_rep1.csv,None,nonword,,,,,,,,,,,,,,0,1,1,0,0,79,79,79,,,,,,,,,,,,,,,,,,,,,960.5794784312311,,,,,,,,,,,,,,AMP_prac,right,0.83172010834096,3,,,left,0.7657481868227478,,,,,,,,,,,,,,,,,,,,,,,,,1002,2019_May_01_1348,mf_amp_cond1,3.0.7,59.99699820649063,
commitment,&&&&&&&&&&,images/symbols/symbol_77.png,condition_files/AMP_rep1.csv,left,sanctity.virtue,,,,,,,,,,,,,,0,1,1,0,0,80,80,80,,,,,,,,,,,,,,,,,,,,,961.3796854885004,,,,,,,,,,,,,,AMP_prac,right,0.83172010834096,3,,,right,0.5825300884025637,,,,,,,,,,,,,,,,,,,,,,,,,1002,2019_May_01_1348,mf_amp_cond1,3.0.7,59.99699820649063,
fear,&&&&,images/symbols/symbol_52.png,condition_files/AMP_rep1.csv,right,sanctity.vice,,,,,,,,,,,,,,0,1,1,0,0,81,81,81,,,,,,,,,,,,,,,,,,,,,962.5966559096996,,,,,,,,,,,,,,AMP_prac,right,0.83172010834096,3,,,left,0.9838353574159555,,,,,,,,,,,,,,,,,,,,,,,,,1002,2019_May_01_1348,mf_amp_cond1,3.0.7,59.99699820649063,
,,,condition_files/AMP_rep1.csv,,,,,,,,,,,,,,,,0,1,1,0,,,,,,,,,,,,,,,,,,,,,,,,,,,,,,,,,,,,,,,,,,,,,,,right,1.633986833767267,,,,,,,,,,,,,,,,,,,,,,,1002,2019_May_01_1348,mf_amp_cond1,3.0.7,59.99699820649063,
prosecution,&&&&&&&&&&&,images/symbols/symbol_54.png,condition_files/AMP_rep2.csv,right,authority.vice,,,,,,,,,,,,,,0,2,2,1,0,0,0,0,,,,,,,,,,,,,,,,,,,,,965.3141365975025,,,,,,,,,,,,,,AMP_prac,right,0.83172010834096,3,,,right,0.8316973371838685,,,,,,,,,,,,,,,,,,,,,,,,,1002,2019_May_01_1348,mf_amp_cond1,3.0.7,59.99699820649063,
strength,&&&&&&&&,images/symbols/symbol_27.png,condition_files/AMP_rep2.csv,left,sanctity.virtue,,,,,,,,,,,,,,0,2,2,1,0,1,1,1,,,,,,,,,,,,,,,,,,,,,966.3309478129959,,,,,,,,,,,,,,AMP_prac,right,0.83172010834096,3,,,left,0.7990838934783824,,,,,,,,,,,,,,,,,,,,,,,,,1002,2019_May_01_1348,mf_amp_cond1,3.0.7,59.99699820649063,
phegned,&&&&&&&,images/symbols/symbol_9.png,condition_files/AMP_rep2.csv,None,nonword,,,,,,,,,,,,,,0,2,2,1,0,2,2,2,,,,,,,,,,,,,,,,,,,,,967.7479712814093,,,,,,,,,,,,,,AMP_prac,right,0.83172010834096,3,,,right,1.1992772239027545,,,,,,,,,,,,,,,,,,,,,,,,,1002,2019_May_01_1348,mf_amp_cond1,3.0.7,59.99699820649063,
daizz,&&&&&,images/symbols/symbol_11.png,condition_files/AMP_rep2.csv,None,nonword,,,,,,,,,,,,,,0,2,2,1,0,3,3,3,,,,,,,,,,,,,,,,,,,,,969.0316073429713,,,,,,,,,,,,,,AMP_prac,right,0.83172010834096,3,,,right,1.0659667900181375,,,,,,,,,,,,,,,,,,,,,,,,,1002,2019_May_01_1348,mf_amp_cond1,3.0.7,59.99699820649063,
faith,&&&&&,images/symbols/symbol_14.png,condition_files/AMP_rep2.csv,left,sanctity.virtue,,,,,,,,,,,,,,0,2,2,1,0,4,4,4,,,,,,,,,,,,,,,,,,,,,969.9318433292501,,,,,,,,,,,,,,AMP_prac,right,0.83172010834096,3,,,right,0.6821808877575677,,,,,,,,,,,,,,,,,,,,,,,,,1002,2019_May_01_1348,mf_amp_cond1,3.0.7,59.99699820649063,
opportunity,&&&&&&&&&&&,images/symbols/symbol_29.png,condition_files/AMP_rep2.csv,left,fairness.virtue,,,,,,,,,,,,,,0,2,2,1,0,5,5,5,,,,,,,,,,,,,,,,,,,,,971.1154488582106,,,,,,,,,,,,,,AMP_prac,right,0.83172010834096,3,,,right,0.9651241926767398,,,,,,,,,,,,,,,,,,,,,,,,,1002,2019_May_01_1348,mf_amp_cond1,3.0.7,59.99699820649063,
great,&&&&&,images/symbols/symbol_15.png,condition_files/AMP_rep2.csv,left,loyalty.virtue,,,,,,,,,,,,,,0,2,2,1,0,6,6,6,,,,,,,,,,,,,,,,,,,,,971.8656359987217,,,,,,,,,,,,,,AMP_prac,right,0.83172010834096,3,,,left,0.5324893248034641,,,,,,,,,,,,,,,,,,,,,,,,,1002,2019_May_01_1348,mf_amp_cond1,3.0.7,59.99699820649063,
black,&&&&&,images/symbols/symbol_58.png,condition_files/AMP_rep2.csv,right,loyalty.vice,,,,,,,,,,,,,,0,2,2,1,0,7,7,7,,,,,,,,,,,,,,,,,,,,,972.6491812963504,,,,,,,,,,,,,,AMP_prac,right,0.83172010834096,3,,,left,0.5504095923679415,,,,,,,,,,,,,,,,,,,,,,,,,1002,2019_May_01_1348,mf_amp_cond1,3.0.7,59.99699820649063,
failure,&&&&&&&,images/symbols/symbol_81.png,condition_files/AMP_rep2.csv,right,loyalty.vice,,,,,,,,,,,,,,0,2,2,1,0,8,8,8,,,,,,,,,,,,,,,,,,,,,973.3661308707378,,,,,,,,,,,,,,AMP_prac,right,0.83172010834096,3,,,left,0.4837484420859255,,,,,,,,,,,,,,,,,,,,,,,,,1002,2019_May_01_1348,mf_amp_cond1,3.0.7,59.99699820649063,
groups,&&&&&&,images/symbols/symbol_72.png,condition_files/AMP_rep2.csv,right,loyalty.vice,,,,,,,,,,,,,,0,2,2,1,0,9,9,9,,,,,,,,,,,,,,,,,,,,,974.9330748966313,,,,,,,,,,,,,,AMP_prac,right,0.83172010834096,3,,,right,1.348793994053267,,,,,,,,,,,,,,,,,,,,,,,,,1002,2019_May_01_1348,mf_amp_cond1,3.0.7,59.99699820649063,
abuse,&&&&&,images/symbols/symbol_53.png,condition_files/AMP_rep2.csv,right,sanctity.vice,,,,,,,,,,,,,,0,2,2,1,0,10,10,10,,,,,,,,,,,,,,,,,,,,,976.0500199167582,,,,,,,,,,,,,,AMP_prac,right,0.83172010834096,3,,,right,0.8991208404768258,,,,,,,,,,,,,,,,,,,,,,,,,1002,2019_May_01_1348,mf_amp_cond1,3.0.7,59.99699820649063,
honored,&&&&&&&,images/symbols/symbol_75.png,condition_files/AMP_rep2.csv,left,authority.virtue,,,,,,,,,,,,,,0,2,2,1,0,11,11,11,,,,,,,,,,,,,,,,,,,,,977.1169485480641,,,,,,,,,,,,,,AMP_prac,right,0.83172010834096,3,,,right,0.8488158030668274,,,,,,,,,,,,,,,,,,,,,,,,,1002,2019_May_01_1348,mf_amp_cond1,3.0.7,59.99699820649063,
promises,&&&&&&&&,images/symbols/symbol_74.png,condition_files/AMP_rep2.csv,left,fairness.virtue,,,,,,,,,,,,,,0,2,2,1,0,12,12,12,,,,,,,,,,,,,,,,,,,,,978.1838800658879,,,,,,,,,,,,,,AMP_prac,right,0.83172010834096,3,,,right,0.8337881152401678,,,,,,,,,,,,,,,,,,,,,,,,,1002,2019_May_01_1348,mf_amp_cond1,3.0.7,59.99699820649063,
ensure,&&&&&&,images/symbols/symbol_59.png,condition_files/AMP_rep2.csv,left,fairness.virtue,,,,,,,,,,,,,,0,2,2,1,0,13,13,13,,,,,,,,,,,,,,,,,,,,,979.2675111883436,,,,,,,,,,,,,,AMP_prac,right,0.83172010834096,3,,,left,0.8652799987758044,,,,,,,,,,,,,,,,,,,,,,,,,1002,2019_May_01_1348,mf_amp_cond1,3.0.7,59.99699820649063,
compassion,&&&&&&&&&&,images/symbols/symbol_42.png,condition_files/AMP_rep2.csv,left,care.virtue,,,,,,,,,,,,,,0,2,2,1,0,14,14,14,,,,,,,,,,,,,,,,,,,,,980.5011356719187,,,,,,,,,,,,,,AMP_prac,right,0.83172010834096,3,,,left,1.000506738666445,,,,,,,,,,,,,,,,,,,,,,,,,1002,2019_May_01_1348,mf_amp_cond1,3.0.7,59.99699820649063,
rejected,&&&&&&&&,images/symbols/symbol_33.png,condition_files/AMP_rep2.csv,right,authority.vice,,,,,,,,,,,,,,0,2,2,1,0,15,15,15,,,,,,,,,,,,,,,,,,,,,981.6514446221408,,,,,,,,,,,,,,AMP_prac,right,0.83172010834096,3,,,left,0.9319219058088493,,,,,,,,,,,,,,,,,,,,,,,,,1002,2019_May_01_1348,mf_amp_cond1,3.0.7,59.99699820649063,
army,&&&&,images/symbols/symbol_46.png,condition_files/AMP_rep2.csv,right,loyalty.vice,,,,,,,,,,,,,,0,2,2,1,0,16,16,16,,,,,,,,,,,,,,,,,,,,,982.9684032408404,,,,,,,,,,,,,,AMP_prac,right,0.83172010834096,3,,,right,1.0992492570658214,,,,,,,,,,,,,,,,,,,,,,,,,1002,2019_May_01_1348,mf_amp_cond1,3.0.7,59.99699820649063,
clean,&&&&&,images/symbols/symbol_8.png,condition_files/AMP_rep2.csv,left,sanctity.virtue,,,,,,,,,,,,,,0,2,2,1,0,17,17,17,,,,,,,,,,,,,,,,,,,,,984.285416702769,,,,,,,,,,,,,,AMP_prac,right,0.83172010834096,3,,,right,1.0992527850030456,,,,,,,,,,,,,,,,,,,,,,,,,1002,2019_May_01_1348,mf_amp_cond1,3.0.7,59.99699820649063,
voter,&&&&&,images/symbols/symbol_69.png,condition_files/AMP_rep2.csv,right,fairness.vice,,,,,,,,,,,,,,0,2,2,1,0,18,18,18,,,,,,,,,,,,,,,,,,,,,985.5190498457814,,,,,,,,,,,,,,AMP_prac,right,0.83172010834096,3,,,left,1.0005038521776441,,,,,,,,,,,,,,,,,,,,,,,,,1002,2019_May_01_1348,mf_amp_cond1,3.0.7,59.99699820649063,
sharing,&&&&&&&,images/symbols/symbol_7.png,condition_files/AMP_rep2.csv,left,loyalty.virtue,,,,,,,,,,,,,,0,2,2,1,0,19,19,19,,,,,,,,,,,,,,,,,,,,,986.66933698699,,,,,,,,,,,,,,AMP_prac,right,0.83172010834096,3,,,left,0.9320399310090579,,,,,,,,,,,,,,,,,,,,,,,,,1002,2019_May_01_1348,mf_amp_cond1,3.0.7,59.99699820649063,
love,&&&&,images/symbols/symbol_49.png,condition_files/AMP_rep2.csv,left,loyalty.virtue,,,,,,,,,,,,,,0,2,2,1,0,20,20,20,,,,,,,,,,,,,,,,,,,,,988.1862813015468,,,,,,,,,,,,,,AMP_prac,right,0.83172010834096,3,,,right,1.283802194870077,,,,,,,,,,,,,,,,,,,,,,,,,1002,2019_May_01_1348,mf_amp_cond1,3.0.7,59.99699820649063,
praise,&&&&&&,images/symbols/symbol_2.png,condition_files/AMP_rep2.csv,left,authority.virtue,,,,,,,,,,,,,,0,2,2,1,0,21,21,21,,,,,,,,,,,,,,,,,,,,,989.2699890762742,,,,,,,,,,,,,,AMP_prac,right,0.83172010834096,3,,,left,0.8652168168046046,,,,,,,,,,,,,,,,,,,,,,,,,1002,2019_May_01_1348,mf_amp_cond1,3.0.7,59.99699820649063,
loyalty,&&&&&&&,images/symbols/symbol_71.png,condition_files/AMP_rep2.csv,left,loyalty.virtue,,,,,,,,,,,,,,0,2,2,1,0,22,22,22,,,,,,,,,,,,,,,,,,,,,990.1035292744345,,,,,,,,,,,,,,AMP_prac,right,0.83172010834096,3,,,right,0.6157596365374047,,,,,,,,,,,,,,,,,,,,,,,,,1002,2019_May_01_1348,mf_amp_cond1,3.0.7,59.99699820649063,
attacks,&&&&&&&,images/symbols/symbol_76.png,condition_files/AMP_rep2.csv,right,care.vice,,,,,,,,,,,,,,0,2,2,1,0,23,23,23,,,,,,,,,,,,,,,,,,,,,991.18713890863,,,,,,,,,,,,,,AMP_prac,right,0.83172010834096,3,,,right,0.8662370292586274,,,,,,,,,,,,,,,,,,,,,,,,,1002,2019_May_01_1348,mf_amp_cond1,3.0.7,59.99699820649063,
improve,&&&&&&&,images/symbols/symbol_6.png,condition_files/AMP_rep2.csv,left,care.virtue,,,,,,,,,,,,,,0,2,2,1,0,24,24,24,,,,,,,,,,,,,,,,,,,,,992.2540608048148,,,,,,,,,,,,,,AMP_prac,right,0.83172010834096,3,,,left,0.849132033647038,,,,,,,,,,,,,,,,,,,,,,,,,1002,2019_May_01_1348,mf_amp_cond1,3.0.7,59.99699820649063,
psured,&&&&&&,images/symbols/symbol_40.png,condition_files/AMP_rep2.csv,None,nonword,,,,,,,,,,,,,,0,2,2,1,0,25,25,25,,,,,,,,,,,,,,,,,,,,,993.1376193161123,,,,,,,,,,,,,,AMP_prac,right,0.83172010834096,3,,,right,0.6657154091517441,,,,,,,,,,,,,,,,,,,,,,,,,1002,2019_May_01_1348,mf_amp_cond1,3.0.7,59.99699820649063,
victim,&&&&&&,images/symbols/symbol_65.png,condition_files/AMP_rep2.csv,right,care.vice,,,,,,,,,,,,,,0,2,2,1,0,26,26,26,,,,,,,,,,,,,,,,,,,,,994.0044984281703,,,,,,,,,,,,,,AMP_prac,right,0.83172010834096,3,,,right,0.649085400858894,,,,,,,,,,,,,,,,,,,,,,,,,1002,2019_May_01_1348,mf_amp_cond1,3.0.7,59.99699820649063,
peaceful,&&&&&&&&,images/symbols/symbol_68.png,condition_files/AMP_rep2.csv,left,authority.virtue,,,,,,,,,,,,,,0,2,2,1,0,27,27,27,,,,,,,,,,,,,,,,,,,,,994.9880990180245,,,,,,,,,,,,,,AMP_prac,right,0.83172010834096,3,,,left,0.750452055799542,,,,,,,,,,,,,,,,,,,,,,,,,1002,2019_May_01_1348,mf_amp_cond1,3.0.7,59.99699820649063,
corruption,&&&&&&&&&&,images/symbols/symbol_57.png,condition_files/AMP_rep2.csv,right,sanctity.vice,,,,,,,,,,,,,,0,2,2,1,0,28,28,28,,,,,,,,,,,,,,,,,,,,,996.2217199736624,,,,,,,,,,,,,,AMP_prac,right,0.83172010834096,3,,,left,1.015191255370155,,,,,,,,,,,,,,,,,,,,,,,,,1002,2019_May_01_1348,mf_amp_cond1,3.0.7,59.99699820649063,
safety,&&&&&&,images/symbols/symbol_13.png,condition_files/AMP_rep2.csv,left,care.virtue,,,,,,,,,,,,,,0,2,2,1,0,29,29,29,,,,,,,,,,,,,,,,,,,,,997.4386871876777,,,,,,,,,,,,,,AMP_prac,right,0.83172010834096,3,,,left,0.9990670235420112,,,,,,,,,,,,,,,,,,,,,,,,,1002,2019_May_01_1348,mf_amp_cond1,3.0.7,59.99699820649063,
riot,&&&&,images/symbols/symbol_28.png,condition_files/AMP_rep2.csv,right,authority.vice,,,,,,,,,,,,,,0,2,2,1,0,30,30,30,,,,,,,,,,,,,,,,,,,,,998.4889652845741,,,,,,,,,,,,,,AMP_prac,right,0.83172010834096,3,,,left,0.8324776505760383,,,,,,,,,,,,,,,,,,,,,,,,,1002,2019_May_01_1348,mf_amp_cond1,3.0.7,59.99699820649063,
unpleasant,&&&&&&&&&,images/symbols/symbol_17.png,condition_files/AMP_rep2.csv,left,control,,,,,,,,,,,,,,0,2,2,1,0,31,31,31,,,,,,,,,,,,,,,,,,,,,999.3891817068798,,,,,,,,,,,,,,AMP_prac,right,0.83172010834096,3,,,right,0.682431691326201,,,,,,,,,,,,,,,,,,,,,,,,,1002,2019_May_01_1348,mf_amp_cond1,3.0.7,59.99699820649063,
terrorists,&&&&&&&&&&,images/symbols/symbol_16.png,condition_files/AMP_rep2.csv,right,fairness.vice,,,,,,,,,,,,,,0,2,2,1,0,32,32,32,,,,,,,,,,,,,,,,,,,,,1000.2393936070148,,,,,,,,,,,,,,AMP_prac,right,0.83172010834096,3,,,right,0.6325695691339206,,,,,,,,,,,,,,,,,,,,,,,,,1002,2019_May_01_1348,mf_amp_cond1,3.0.7,59.99699820649063,
protesters,&&&&&&&&&&,images/symbols/symbol_10.png,condition_files/AMP_rep2.csv,right,authority.vice,,,,,,,,,,,,,,0,2,2,1,0,33,33,33,,,,,,,,,,,,,,,,,,,,,1001.0729546520452,,,,,,,,,,,,,,AMP_prac,right,0.83172010834096,3,,,right,0.6160136473190505,,,,,,,,,,,,,,,,,,,,,,,,,1002,2019_May_01_1348,mf_amp_cond1,3.0.7,59.99699820649063,
benefit,&&&&&&&,images/symbols/symbol_50.png,condition_files/AMP_rep2.csv,left,fairness.virtue,,,,,,,,,,,,,,0,2,2,1,0,34,34,34,,,,,,,,,,,,,,,,,,,,,1001.8397868747124,,,,,,,,,,,,,,AMP_prac,right,0.83172010834096,3,,,left,0.5490818088001106,,,,,,,,,,,,,,,,,,,,,,,,,1002,2019_May_01_1348,mf_amp_cond1,3.0.7,59.99699820649063,
threatened,&&&&&&&&&&,images/symbols/symbol_26.png,condition_files/AMP_rep2.csv,right,fairness.vice,,,,,,,,,,,,,,0,2,2,1,0,35,35,35,,,,,,,,,,,,,,,,,,,,,1002.4899925528734,,,,,,,,,,,,,,AMP_prac,right,0.83172010834096,3,,,right,0.43247931834775954,,,,,,,,,,,,,,,,,,,,,,,,,1002,2019_May_01_1348,mf_amp_cond1,3.0.7,59.99699820649063,
spynze,&&&&&&,images/symbols/symbol_73.png,condition_files/AMP_rep2.csv,None,nonword,,,,,,,,,,,,,,0,2,2,1,0,36,36,36,,,,,,,,,,,,,,,,,,,,,1003.0734309222316,,,,,,,,,,,,,,AMP_prac,right,0.83172010834096,3,,,right,0.3503373019339051,,,,,,,,,,,,,,,,,,,,,,,,,1002,2019_May_01_1348,mf_amp_cond1,3.0.7,59.99699820649063,
pleasant,&&&&&&&,images/symbols/symbol_12.png,condition_files/AMP_rep2.csv,right,control,,,,,,,,,,,,,,0,2,2,1,0,37,37,37,,,,,,,,,,,,,,,,,,,,,1003.8570211207552,,,,,,,,,,,,,,AMP_prac,right,0.83172010834096,3,,,left,0.5504464752448257,,,,,,,,,,,,,,,,,,,,,,,,,1002,2019_May_01_1348,mf_amp_cond1,3.0.7,59.99699820649063,
forced,&&&&&&,images/symbols/symbol_37.png,condition_files/AMP_rep2.csv,right,fairness.vice,,,,,,,,,,,,,,0,2,2,1,0,38,38,38,,,,,,,,,,,,,,,,,,,,,1004.4738131571212,,,,,,,,,,,,,,AMP_prac,right,0.83172010834096,3,,,left,0.3984280838340055,,,,,,,,,,,,,,,,,,,,,,,,,1002,2019_May_01_1348,mf_amp_cond1,3.0.7,59.99699820649063,
values,&&&&&&,images/symbols/symbol_60.png,condition_files/AMP_rep2.csv,left,sanctity.virtue,,,,,,,,,,,,,,0,2,2,1,0,39,39,39,,,,,,,,,,,,,,,,,,,,,1005.1072788198071,,,,,,,,,,,,,,AMP_prac,right,0.83172010834096,3,,,left,0.4155827911454253,,,,,,,,,,,,,,,,,,,,,,,,,1002,2019_May_01_1348,mf_amp_cond1,3.0.7,59.99699820649063,
powerful,&&&&&&&&,images/symbols/symbol_18.png,condition_files/AMP_rep2.csv,left,authority.virtue,,,,,,,,,,,,,,0,2,2,1,0,40,40,40,,,,,,,,,,,,,,,,,,,,,1006.1575357491383,,,,,,,,,,,,,,AMP_prac,right,0.83172010834096,3,,,left,0.8326550091151148,,,,,,,,,,,,,,,,,,,,,,,,,1002,2019_May_01_1348,mf_amp_cond1,3.0.7,59.99699820649063,
serial,&&&&&&,images/symbols/symbol_41.png,condition_files/AMP_rep2.csv,right,sanctity.vice,,,,,,,,,,,,,,0,2,2,1,0,41,41,41,,,,,,,,,,,,,,,,,,,,,1007.0244260863983,,,,,,,,,,,,,,AMP_prac,right,0.83172010834096,3,,,right,0.6494789251300972,,,,,,,,,,,,,,,,,,,,,,,,,1002,2019_May_01_1348,mf_amp_cond1,3.0.7,59.99699820649063,
care,&&&&,images/symbols/symbol_63.png,condition_files/AMP_rep2.csv,left,care.virtue,,,,,,,,,,,,,,0,2,2,1,0,42,42,42,,,,,,,,,,,,,,,,,,,,,1007.8746383072867,,,,,,,,,,,,,,AMP_prac,right,0.83172010834096,3,,,right,0.6326009997574147,,,,,,,,,,,,,,,,,,,,,,,,,1002,2019_May_01_1348,mf_amp_cond1,3.0.7,59.99699820649063,
civilians,&&&&&&&&&,images/symbols/symbol_47.png,condition_files/AMP_rep2.csv,right,care.vice,,,,,,,,,,,,,,0,2,2,1,0,43,43,43,,,,,,,,,,,,,,,,,,,,,1008.924898764526,,,,,,,,,,,,,,AMP_prac,right,0.83172010834096,3,,,right,0.832289708283497,,,,,,,,,,,,,,,,,,,,,,,,,1002,2019_May_01_1348,mf_amp_cond1,3.0.7,59.99699820649063,
free,&&&&,images/symbols/symbol_56.png,condition_files/AMP_rep2.csv,left,fairness.virtue,,,,,,,,,,,,,,0,2,2,1,0,44,44,44,,,,,,,,,,,,,,,,,,,,,1009.6750833392725,,,,,,,,,,,,,,AMP_prac,right,0.83172010834096,3,,,left,0.5170491902099457,,,,,,,,,,,,,,,,,,,,,,,,,1002,2019_May_01_1348,mf_amp_cond1,3.0.7,59.99699820649063,
progress,&&&&&&&&,images/symbols/symbol_38.png,condition_files/AMP_rep2.csv,left,authority.virtue,,,,,,,,,,,,,,0,2,2,1,0,45,45,45,,,,,,,,,,,,,,,,,,,,,1010.8587408250023,,,,,,,,,,,,,,AMP_prac,right,0.83172010834096,3,,,left,0.9651418323046528,,,,,,,,,,,,,,,,,,,,,,,,,1002,2019_May_01_1348,mf_amp_cond1,3.0.7,59.99699820649063,
fighters,&&&&&&&&,images/symbols/symbol_24.png,condition_files/AMP_rep2.csv,right,authority.vice,,,,,,,,,,,,,,0,2,2,1,0,46,46,46,,,,,,,,,,,,,,,,,,,,,1013.1592952227511,,,,,,,,,,,,,,AMP_prac,right,0.83172010834096,3,,,left,2.0674411429208703,,,,,,,,,,,,,,,,,,,,,,,,,1002,2019_May_01_1348,mf_amp_cond1,3.0.7,59.99699820649063,
victims,&&&&&&&,images/symbols/symbol_22.png,condition_files/AMP_rep2.csv,right,care.vice,,,,,,,,,,,,,,0,2,2,1,0,47,47,47,,,,,,,,,,,,,,,,,,,,,1014.0928861589346,,,,,,,,,,,,,,AMP_prac,right,0.83172010834096,3,,,left,0.7153026737214532,,,,,,,,,,,,,,,,,,,,,,,,,1002,2019_May_01_1348,mf_amp_cond1,3.0.7,59.99699820649063,
party,&&&&&,images/symbols/symbol_25.png,condition_files/AMP_rep2.csv,left,loyalty.virtue,,,,,,,,,,,,,,0,2,2,1,0,48,48,48,,,,,,,,,,,,,,,,,,,,,1015.0931113048282,,,,,,,,,,,,,,AMP_prac,right,0.83172010834096,3,,,left,0.7816665159480181,,,,,,,,,,,,,,,,,,,,,,,,,1002,2019_May_01_1348,mf_amp_cond1,3.0.7,59.99699820649063,
rebels,&&&&&&,images/symbols/symbol_66.png,condition_files/AMP_rep2.csv,right,authority.vice,,,,,,,,,,,,,,0,2,2,1,0,49,49,49,,,,,,,,,,,,,,,,,,,,,1015.7932753213972,,,,,,,,,,,,,,AMP_prac,right,0.83172010834096,3,,,right,0.4670289527566638,,,,,,,,,,,,,,,,,,,,,,,,,1002,2019_May_01_1348,mf_amp_cond1,3.0.7,59.99699820649063,
credit,&&&&&&,images/symbols/symbol_3.png,condition_files/AMP_rep2.csv,left,fairness.virtue,,,,,,,,,,,,,,0,2,2,1,0,50,50,50,,,,,,,,,,,,,,,,,,,,,1016.3767585916503,,,,,,,,,,,,,,AMP_prac,right,0.83172010834096,3,,,right,0.365108092490118,,,,,,,,,,,,,,,,,,,,,,,,,1002,2019_May_01_1348,mf_amp_cond1,3.0.7,59.99699820649063,
blamed,&&&&&&,images/symbols/symbol_1.png,condition_files/AMP_rep2.csv,right,loyalty.vice,,,,,,,,,,,,,,0,2,2,1,0,51,51,51,,,,,,,,,,,,,,,,,,,,,1016.943557972525,,,,,,,,,,,,,,AMP_prac,right,0.83172010834096,3,,,right,0.3488061814568937,,,,,,,,,,,,,,,,,,,,,,,,,1002,2019_May_01_1348,mf_amp_cond1,3.0.7,59.99699820649063,
police,&&&&&&,images/symbols/symbol_80.png,condition_files/AMP_rep2.csv,right,authority.vice,,,,,,,,,,,,,,0,2,2,1,0,52,52,52,,,,,,,,,,,,,,,,,,,,,1017.6437377043767,,,,,,,,,,,,,,AMP_prac,right,0.83172010834096,3,,,left,0.4827772999124136,,,,,,,,,,,,,,,,,,,,,,,,,1002,2019_May_01_1348,mf_amp_cond1,3.0.7,59.99699820649063,
charges,&&&&&&&,images/symbols/symbol_64.png,condition_files/AMP_rep2.csv,right,fairness.vice,,,,,,,,,,,,,,0,2,2,1,0,53,53,53,,,,,,,,,,,,,,,,,,,,,1018.4439393093926,,,,,,,,,,,,,,AMP_prac,right,0.83172010834096,3,,,right,0.5820730614359491,,,,,,,,,,,,,,,,,,,,,,,,,1002,2019_May_01_1348,mf_amp_cond1,3.0.7,59.99699820649063,
thinx,&&&&&,images/symbols/symbol_51.png,condition_files/AMP_rep2.csv,None,nonword,,,,,,,,,,,,,,0,2,2,1,0,54,54,54,,,,,,,,,,,,,,,,,,,,,1019.2108003969479,,,,,,,,,,,,,,AMP_prac,right,0.83172010834096,3,,,left,0.5496793113998137,,,,,,,,,,,,,,,,,,,,,,,,,1002,2019_May_01_1348,mf_amp_cond1,3.0.7,59.99699820649063,
war,&&&,images/symbols/symbol_70.png,condition_files/AMP_rep2.csv,right,sanctity.vice,,,,,,,,,,,,,,0,2,2,1,0,55,55,55,,,,,,,,,,,,,,,,,,,,,1019.9610285896924,,,,,,,,,,,,,,AMP_prac,right,0.83172010834096,3,,,right,0.5324604599445593,,,,,,,,,,,,,,,,,,,,,,,,,1002,2019_May_01_1348,mf_amp_cond1,3.0.7,59.99699820649063,
help,&&&&,images/symbols/symbol_36.png,condition_files/AMP_rep2.csv,left,care.virtue,,,,,,,,,,,,,,0,2,2,1,0,56,56,56,,,,,,,,,,,,,,,,,,,,,1020.9112248386664,,,,,,,,,,,,,,AMP_prac,right,0.83172010834096,3,,,left,0.7324759828334209,,,,,,,,,,,,,,,,,,,,,,,,,1002,2019_May_01_1348,mf_amp_cond1,3.0.7,59.99699820649063,
suicide,&&&&&&&,images/symbols/symbol_48.png,condition_files/AMP_rep2.csv,right,care.vice,,,,,,,,,,,,,,0,2,2,1,0,57,57,57,,,,,,,,,,,,,,,,,,,,,1021.5280620966805,,,,,,,,,,,,,,AMP_prac,right,0.83172010834096,3,,,right,0.39903456665342674,,,,,,,,,,,,,,,,,,,,,,,,,1002,2019_May_01_1348,mf_amp_cond1,3.0.7,59.99699820649063,
troops,&&&&&&,images/symbols/symbol_79.png,condition_files/AMP_rep2.csv,right,loyalty.vice,,,,,,,,,,,,,,0,2,2,1,0,58,58,58,,,,,,,,,,,,,,,,,,,,,1022.1449035240221,,,,,,,,,,,,,,AMP_prac,right,0.83172010834096,3,,,left,0.3990021738281939,,,,,,,,,,,,,,,,,,,,,,,,,1002,2019_May_01_1348,mf_amp_cond1,3.0.7,59.99699820649063,
killed,&&&&&&,images/symbols/symbol_5.png,condition_files/AMP_rep2.csv,right,care.vice,,,,,,,,,,,,,,0,2,2,1,0,59,59,59,,,,,,,,,,,,,,,,,,,,,1022.8117000825587,,,,,,,,,,,,,,AMP_prac,right,0.83172010834096,3,,,right,0.44905961491167545,,,,,,,,,,,,,,,,,,,,,,,,,1002,2019_May_01_1348,mf_amp_cond1,3.0.7,59.99699820649063,
prison,&&&&&&,images/symbols/symbol_34.png,condition_files/AMP_rep2.csv,right,fairness.vice,,,,,,,,,,,,,,0,2,2,1,0,60,60,60,,,,,,,,,,,,,,,,,,,,,1023.3951762969664,,,,,,,,,,,,,,AMP_prac,right,0.83172010834096,3,,,left,0.36564145097509027,,,,,,,,,,,,,,,,,,,,,,,,,1002,2019_May_01_1348,mf_amp_cond1,3.0.7,59.99699820649063,
increase,&&&&&&&&,images/symbols/symbol_4.png,condition_files/AMP_rep2.csv,left,care.virtue,,,,,,,,,,,,,,0,2,2,1,0,61,61,61,,,,,,,,,,,,,,,,,,,,,1023.9953245340439,,,,,,,,,,,,,,AMP_prac,right,0.83172010834096,3,,,right,0.3822698556468822,,,,,,,,,,,,,,,,,,,,,,,,,1002,2019_May_01_1348,mf_amp_cond1,3.0.7,59.99699820649063,
accused,&&&&&&&,images/symbols/symbol_55.png,condition_files/AMP_rep2.csv,right,fairness.vice,,,,,,,,,,,,,,0,2,2,1,0,62,62,62,,,,,,,,,,,,,,,,,,,,,1024.5955584035546,,,,,,,,,,,,,,AMP_prac,right,0.83172010834096,3,,,left,0.3821858268638607,,,,,,,,,,,,,,,,,,,,,,,,,1002,2019_May_01_1348,mf_amp_cond1,3.0.7,59.99699820649063,
twild,&&&&&,images/symbols/symbol_67.png,condition_files/AMP_rep2.csv,None,nonword,,,,,,,,,,,,,,0,2,2,1,0,63,63,63,,,,,,,,,,,,,,,,,,,,,1025.2623123062658,,,,,,,,,,,,,,AMP_prac,right,0.83172010834096,3,,,left,0.4489425518549979,,,,,,,,,,,,,,,,,,,,,,,,,1002,2019_May_01_1348,mf_amp_cond1,3.0.7,59.99699820649063,
actively,&&&&&&&&,images/symbols/symbol_43.png,condition_files/AMP_rep2.csv,left,authority.virtue,,,,,,,,,,,,,,0,2,2,1,0,64,64,64,,,,,,,,,,,,,,,,,,,,,1025.962489472353,,,,,,,,,,,,,,AMP_prac,right,0.83172010834096,3,,,left,0.4670356878777966,,,,,,,,,,,,,,,,,,,,,,,,,1002,2019_May_01_1348,mf_amp_cond1,3.0.7,59.99699820649063,
friends,&&&&&&&,images/symbols/symbol_32.png,condition_files/AMP_rep2.csv,left,loyalty.virtue,,,,,,,,,,,,,,0,2,2,1,0,65,65,65,,,,,,,,,,,,,,,,,,,,,1026.7293608229666,,,,,,,,,,,,,,AMP_prac,right,0.83172010834096,3,,,right,0.5484875133843161,,,,,,,,,,,,,,,,,,,,,,,,,1002,2019_May_01_1348,mf_amp_cond1,3.0.7,59.99699820649063,
energy,&&&&&&,images/symbols/symbol_35.png,condition_files/AMP_rep2.csv,left,sanctity.virtue,,,,,,,,,,,,,,0,2,2,1,0,66,66,66,,,,,,,,,,,,,,,,,,,,,1027.3795017155353,,,,,,,,,,,,,,AMP_prac,right,0.83172010834096,3,,,right,0.4323802156432066,,,,,,,,,,,,,,,,,,,,,,,,,1002,2019_May_01_1348,mf_amp_cond1,3.0.7,59.99699820649063,
good,&&&&,images/symbols/symbol_20.png,condition_files/AMP_rep2.csv,left,care.virtue,,,,,,,,,,,,,,0,2,2,1,0,67,67,67,,,,,,,,,,,,,,,,,,,,,1028.2130752686644,,,,,,,,,,,,,,AMP_prac,right,0.83172010834096,3,,,left,0.6163651571550872,,,,,,,,,,,,,,,,,,,,,,,,,1002,2019_May_01_1348,mf_amp_cond1,3.0.7,59.99699820649063,
perfect,&&&&&&&,images/symbols/symbol_30.png,condition_files/AMP_rep2.csv,left,sanctity.virtue,,,,,,,,,,,,,,0,2,2,1,0,68,68,68,,,,,,,,,,,,,,,,,,,,,1029.229972437286,,,,,,,,,,,,,,AMP_prac,right,0.83172010834096,3,,,left,0.7991140412050299,,,,,,,,,,,,,,,,,,,,,,,,,1002,2019_May_01_1348,mf_amp_cond1,3.0.7,59.99699820649063,
torture,&&&&&&&,images/symbols/symbol_19.png,condition_files/AMP_rep2.csv,right,care.vice,,,,,,,,,,,,,,0,2,2,1,0,69,69,69,,,,,,,,,,,,,,,,,,,,,1029.7967820812191,,,,,,,,,,,,,,AMP_prac,right,0.83172010834096,3,,,left,0.34890720844850875,,,,,,,,,,,,,,,,,,,,,,,,,1002,2019_May_01_1348,mf_amp_cond1,3.0.7,59.99699820649063,
fair,&&&&,images/symbols/symbol_62.png,condition_files/AMP_rep2.csv,left,fairness.virtue,,,,,,,,,,,,,,0,2,2,1,0,70,70,70,,,,,,,,,,,,,,,,,,,,,1030.6970126152446,,,,,,,,,,,,,,AMP_prac,right,0.83172010834096,3,,,left,0.6670906594081316,,,,,,,,,,,,,,,,,,,,,,,,,1002,2019_May_01_1348,mf_amp_cond1,3.0.7,59.99699820649063,
phluks,&&&&&&,images/symbols/symbol_45.png,condition_files/AMP_rep2.csv,None,nonword,,,,,,,,,,,,,,0,2,2,1,0,71,71,71,,,,,,,,,,,,,,,,,,,,,1031.4471894926974,,,,,,,,,,,,,,AMP_prac,right,0.83172010834096,3,,,left,0.5316762978909537,,,,,,,,,,,,,,,,,,,,,,,,,1002,2019_May_01_1348,mf_amp_cond1,3.0.7,59.99699820649063,
scandal,&&&&&&&,images/symbols/symbol_23.png,condition_files/AMP_rep2.csv,right,sanctity.vice,,,,,,,,,,,,,,0,2,2,1,0,72,72,72,,,,,,,,,,,,,,,,,,,,,1032.147361206531,,,,,,,,,,,,,,AMP_prac,right,0.83172010834096,3,,,left,0.4822343197884038,,,,,,,,,,,,,,,,,,,,,,,,,1002,2019_May_01_1348,mf_amp_cond1,3.0.7,59.99699820649063,
intelligence,&&&&&&&&&&&&,images/symbols/symbol_61.png,condition_files/AMP_rep2.csv,left,loyalty.virtue,,,,,,,,,,,,,,0,2,2,1,0,73,73,73,,,,,,,,,,,,,,,,,,,,,1033.0142444879457,,,,,,,,,,,,,,AMP_prac,right,0.83172010834096,3,,,left,0.633734747330891,,,,,,,,,,,,,,,,,,,,,,,,,1002,2019_May_01_1348,mf_amp_cond1,3.0.7,59.99699820649063,
useful,&&&&&&,images/symbols/symbol_21.png,condition_files/AMP_rep2.csv,left,authority.virtue,,,,,,,,,,,,,,0,2,2,1,0,74,74,74,,,,,,,,,,,,,,,,,,,,,1033.8144489794504,,,,,,,,,,,,,,AMP_prac,right,0.83172010834096,3,,,right,0.582031367754098,,,,,,,,,,,,,,,,,,,,,,,,,1002,2019_May_01_1348,mf_amp_cond1,3.0.7,59.99699820649063,
rhailled,&&&&&&&&,images/symbols/symbol_82.png,condition_files/AMP_rep2.csv,None,nonword,,,,,,,,,,,,,,0,2,2,1,0,75,75,75,,,,,,,,,,,,,,,,,,,,,1034.5646332334727,,,,,,,,,,,,,,AMP_prac,right,0.83172010834096,3,,,right,0.5327619373856578,,,,,,,,,,,,,,,,,,,,,,,,,1002,2019_May_01_1348,mf_amp_cond1,3.0.7,59.99699820649063,
critics,&&&&&&&,images/symbols/symbol_44.png,condition_files/AMP_rep2.csv,right,loyalty.vice,,,,,,,,,,,,,,0,2,2,1,0,76,76,76,,,,,,,,,,,,,,,,,,,,,1035.198117177235,,,,,,,,,,,,,,AMP_prac,right,0.83172010834096,3,,,right,0.4155770181969274,,,,,,,,,,,,,,,,,,,,,,,,,1002,2019_May_01_1348,mf_amp_cond1,3.0.7,59.99699820649063,
cande,&&&&&,images/symbols/symbol_31.png,condition_files/AMP_rep2.csv,None,nonword,,,,,,,,,,,,,,0,2,2,1,0,77,77,77,,,,,,,,,,,,,,,,,,,,,1036.3317428795272,,,,,,,,,,,,,,AMP_prac,right,0.83172010834096,3,,,left,0.900472357403487,,,,,,,,,,,,,,,,,,,,,,,,,1002,2019_May_01_1348,mf_amp_cond1,3.0.7,59.99699820649063,
racist,&&&&&&,images/symbols/symbol_78.png,condition_files/AMP_rep2.csv,right,sanctity.vice,,,,,,,,,,,,,,0,2,2,1,0,78,78,78,,,,,,,,,,,,,,,,,,,,,1037.081934189424,,,,,,,,,,,,,,AMP_prac,right,0.83172010834096,3,,,right,0.5317628924967721,,,,,,,,,,,,,,,,,,,,,,,,,1002,2019_May_01_1348,mf_amp_cond1,3.0.7,59.99699820649063,
wheighlde,&&&&&&&&&,images/symbols/symbol_39.png,condition_files/AMP_rep2.csv,None,nonword,,,,,,,,,,,,,,0,2,2,1,0,79,79,79,,,,,,,,,,,,,,,,,,,,,1037.9988354632515,,,,,,,,,,,,,,AMP_prac,right,0.83172010834096,3,,,left,0.6989398257283028,,,,,,,,,,,,,,,,,,,,,,,,,1002,2019_May_01_1348,mf_amp_cond1,3.0.7,59.99699820649063,
commitment,&&&&&&&&&&,images/symbols/symbol_77.png,condition_files/AMP_rep2.csv,left,sanctity.virtue,,,,,,,,,,,,,,0,2,2,1,0,80,80,80,,,,,,,,,,,,,,,,,,,,,1038.749024848803,,,,,,,,,,,,,,AMP_prac,right,0.83172010834096,3,,,right,0.5324178040900733,,,,,,,,,,,,,,,,,,,,,,,,,1002,2019_May_01_1348,mf_amp_cond1,3.0.7,59.99699820649063,
fear,&&&&,images/symbols/symbol_52.png,condition_files/AMP_rep2.csv,right,sanctity.vice,,,,,,,,,,,,,,0,2,2,1,0,81,81,81,,,,,,,,,,,,,,,,,,,,,1039.6159697085968,,,,,,,,,,,,,,AMP_prac,right,0.83172010834096,3,,,left,0.6338072301878128,,,,,,,,,,,,,,,,,,,,,,,,,1002,2019_May_01_1348,mf_amp_cond1,3.0.7,59.99699820649063,
,,,condition_files/AMP_rep2.csv,,,,,,,,,,,,,,,,0,2,2,1,,,,,,,,,,,,,,,,,,,,,,,,,,,,,,,,,,,,,,,,,,,,,,,right,5.968399712903192,,,,,,,,,,,,,,,,,,,,,,,1002,2019_May_01_1348,mf_amp_cond1,3.0.7,59.99699820649063,
prosecution,&&&&&&&&&&&,images/symbols/symbol_54.png,condition_files/AMP_rep4.csv,right,authority.vice,,,,,,,,,,,,,,0,3,3,3,0,0,0,0,,,,,,,,,,,,,,,,,,,,,1046.4012196365802,,,,,,,,,,,,,,AMP_prac,right,0.83172010834096,3,,,right,0.5649096946581267,,,,,,,,,,,,,,,,,,,,,,,,,1002,2019_May_01_1348,mf_amp_cond1,3.0.7,59.99699820649063,
strength,&&&&&&&&,images/symbols/symbol_27.png,condition_files/AMP_rep4.csv,left,sanctity.virtue,,,,,,,,,,,,,,0,3,3,3,0,1,1,1,,,,,,,,,,,,,,,,,,,,,1047.4345235919172,,,,,,,,,,,,,,AMP_prac,right,0.83172010834096,3,,,left,0.8004495220957324,,,,,,,,,,,,,,,,,,,,,,,,,1002,2019_May_01_1348,mf_amp_cond1,3.0.7,59.99699820649063,
phegned,&&&&&&&,images/symbols/symbol_9.png,condition_files/AMP_rep4.csv,None,nonword,,,,,,,,,,,,,,0,3,3,3,0,2,2,2,,,,,,,,,,,,,,,,,,,,,1048.6182660686027,,,,,,,,,,,,,,AMP_prac,right,0.83172010834096,3,,,right,0.9653063619916793,,,,,,,,,,,,,,,,,,,,,,,,,1002,2019_May_01_1348,mf_amp_cond1,3.0.7,59.99699820649063,
daizz,&&&&&,images/symbols/symbol_11.png,condition_files/AMP_rep4.csv,None,nonword,,,,,,,,,,,,,,0,3,3,3,0,3,3,3,,,,,,,,,,,,,,,,,,,,,1049.9184772952285,,,,,,,,,,,,,,AMP_prac,right,0.83172010834096,3,,,left,1.0825711406359915,,,,,,,,,,,,,,,,,,,,,,,,,1002,2019_May_01_1348,mf_amp_cond1,3.0.7,59.99699820649063,
faith,&&&&&,images/symbols/symbol_14.png,condition_files/AMP_rep4.csv,left,sanctity.virtue,,,,,,,,,,,,,,0,3,3,3,0,4,4,4,,,,,,,,,,,,,,,,,,,,,1050.9854075301555,,,,,,,,,,,,,,AMP_prac,right,0.83172010834096,3,,,right,0.8491317129228264,,,,,,,,,,,,,,,,,,,,,,,,,1002,2019_May_01_1348,mf_amp_cond1,3.0.7,59.99699820649063,
opportunity,&&&&&&&&&&&,images/symbols/symbol_29.png,condition_files/AMP_rep4.csv,left,fairness.virtue,,,,,,,,,,,,,,0,3,3,3,0,5,5,5,,,,,,,,,,,,,,,,,,,,,1051.935657660215,,,,,,,,,,,,,,AMP_prac,right,0.83172010834096,3,,,right,0.7322845125745516,,,,,,,,,,,,,,,,,,,,,,,,,1002,2019_May_01_1348,mf_amp_cond1,3.0.7,59.99699820649063,
great,&&&&&,images/symbols/symbol_15.png,condition_files/AMP_rep4.csv,left,loyalty.virtue,,,,,,,,,,,,,,0,3,3,3,0,6,6,6,,,,,,,,,,,,,,,,,,,,,1053.002570255485,,,,,,,,,,,,,,AMP_prac,right,0.83172010834096,3,,,right,0.8485117598611396,,,,,,,,,,,,,,,,,,,,,,,,,1002,2019_May_01_1348,mf_amp_cond1,3.0.7,59.99699820649063,
black,&&&&&,images/symbols/symbol_58.png,condition_files/AMP_rep4.csv,right,loyalty.vice,,,,,,,,,,,,,,0,3,3,3,0,7,7,7,,,,,,,,,,,,,,,,,,,,,1054.0028226626455,,,,,,,,,,,,,,AMP_prac,right,0.83172010834096,3,,,right,0.7670897613861598,,,,,,,,,,,,,,,,,,,,,,,,,1002,2019_May_01_1348,mf_amp_cond1,3.0.7,59.99699820649063,
failure,&&&&&&&,images/symbols/symbol_81.png,condition_files/AMP_rep4.csv,right,loyalty.vice,,,,,,,,,,,,,,0,3,3,3,0,8,8,8,,,,,,,,,,,,,,,,,,,,,1055.0697567462048,,,,,,,,,,,,,,AMP_prac,right,0.83172010834096,3,,,right,0.8337877945159562,,,,,,,,,,,,,,,,,,,,,,,,,1002,2019_May_01_1348,mf_amp_cond1,3.0.7,59.99699820649063,
groups,&&&&&&,images/symbols/symbol_72.png,condition_files/AMP_rep4.csv,right,loyalty.vice,,,,,,,,,,,,,,0,3,3,3,0,9,9,9,,,,,,,,,,,,,,,,,,,,,1056.0700091533945,,,,,,,,,,,,,,AMP_prac,right,0.83172010834096,3,,,right,0.7818775501218624,,,,,,,,,,,,,,,,,,,,,,,,,1002,2019_May_01_1348,mf_amp_cond1,3.0.7,59.99699820649063,
abuse,&&&&&,images/symbols/symbol_53.png,condition_files/AMP_rep4.csv,right,sanctity.vice,,,,,,,,,,,,,,0,3,3,3,0,10,10,10,,,,,,,,,,,,,,,,,,,,,1057.153599544341,,,,,,,,,,,,,,AMP_prac,right,0.83172010834096,3,,,left,0.8659089319990017,,,,,,,,,,,,,,,,,,,,,,,,,1002,2019_May_01_1348,mf_amp_cond1,3.0.7,59.99699820649063,
honored,&&&&&&&,images/symbols/symbol_75.png,condition_files/AMP_rep4.csv,left,authority.virtue,,,,,,,,,,,,,,0,3,3,3,0,11,11,11,,,,,,,,,,,,,,,,,,,,,1058.1205691637588,,,,,,,,,,,,,,AMP_prac,right,0.83172010834096,3,,,left,0.7488186254049651,,,,,,,,,,,,,,,,,,,,,,,,,1002,2019_May_01_1348,mf_amp_cond1,3.0.7,59.99699820649063,
promises,&&&&&&&&,images/symbols/symbol_74.png,condition_files/AMP_rep4.csv,left,fairness.virtue,,,,,,,,,,,,,,0,3,3,3,0,12,12,12,,,,,,,,,,,,,,,,,,,,,1058.937385703175,,,,,,,,,,,,,,AMP_prac,right,0.83172010834096,3,,,left,0.5837215657229535,,,,,,,,,,,,,,,,,,,,,,,,,1002,2019_May_01_1348,mf_amp_cond1,3.0.7,59.99699820649063,
ensure,&&&&&&,images/symbols/symbol_59.png,condition_files/AMP_rep4.csv,left,fairness.virtue,,,,,,,,,,,,,,0,3,3,3,0,13,13,13,,,,,,,,,,,,,,,,,,,,,1059.6375631900155,,,,,,,,,,,,,,AMP_prac,right,0.83172010834096,3,,,right,0.4817179595120251,,,,,,,,,,,,,,,,,,,,,,,,,1002,2019_May_01_1348,mf_amp_cond1,3.0.7,59.99699820649063,
compassion,&&&&&&&&&&,images/symbols/symbol_42.png,condition_files/AMP_rep4.csv,left,care.virtue,,,,,,,,,,,,,,0,3,3,3,0,14,14,14,,,,,,,,,,,,,,,,,,,,,1060.6711692641838,,,,,,,,,,,,,,AMP_prac,right,0.83172010834096,3,,,right,0.8004552950733341,,,,,,,,,,,,,,,,,,,,,,,,,1002,2019_May_01_1348,mf_amp_cond1,3.0.7,59.99699820649063,
rejected,&&&&&&&&,images/symbols/symbol_33.png,condition_files/AMP_rep4.csv,right,authority.vice,,,,,,,,,,,,,,0,3,3,3,0,15,15,15,,,,,,,,,,,,,,,,,,,,,1061.4213538389304,,,,,,,,,,,,,,AMP_prac,right,0.83172010834096,3,,,right,0.5320278077560943,,,,,,,,,,,,,,,,,,,,,,,,,1002,2019_May_01_1348,mf_amp_cond1,3.0.7,59.99699820649063,
army,&&&&,images/symbols/symbol_46.png,condition_files/AMP_rep4.csv,right,loyalty.vice,,,,,,,,,,,,,,0,3,3,3,0,16,16,16,,,,,,,,,,,,,,,,,,,,,1062.2215512745897,,,,,,,,,,,,,,AMP_prac,right,0.83172010834096,3,,,left,0.5824434938258491,,,,,,,,,,,,,,,,,,,,,,,,,1002,2019_May_01_1348,mf_amp_cond1,3.0.7,59.99699820649063,
clean,&&&&&,images/symbols/symbol_8.png,condition_files/AMP_rep4.csv,left,sanctity.virtue,,,,,,,,,,,,,,0,3,3,3,0,17,17,17,,,,,,,,,,,,,,,,,,,,,1062.7383365116839,,,,,,,,,,,,,,AMP_prac,right,0.83172010834096,3,,,left,0.2989940916886553,,,,,,,,,,,,,,,,,,,,,,,,,1002,2019_May_01_1348,mf_amp_cond1,3.0.7,59.99699820649063,
voter,&&&&&,images/symbols/symbol_69.png,condition_files/AMP_rep4.csv,right,fairness.vice,,,,,,,,,,,,,,0,3,3,3,0,18,18,18,,,,,,,,,,,,,,,,,,,,,1063.3551522814087,,,,,,,,,,,,,,AMP_prac,right,0.83172010834096,3,,,left,0.39887773420196027,,,,,,,,,,,,,,,,,,,,,,,,,1002,2019_May_01_1348,mf_amp_cond1,3.0.7,59.99699820649063,
sharing,&&&&&&&,images/symbols/symbol_7.png,condition_files/AMP_rep4.csv,left,loyalty.virtue,,,,,,,,,,,,,,0,3,3,3,0,19,19,19,,,,,,,,,,,,,,,,,,,,,1064.5721320035227,,,,,,,,,,,,,,AMP_prac,right,0.83172010834096,3,,,right,0.9991080758045428,,,,,,,,,,,,,,,,,,,,,,,,,1002,2019_May_01_1348,mf_amp_cond1,3.0.7,59.99699820649063,
love,&&&&,images/symbols/symbol_49.png,condition_files/AMP_rep4.csv,left,loyalty.virtue,,,,,,,,,,,,,,0,3,3,3,0,20,20,20,,,,,,,,,,,,,,,,,,,,,1065.58905771625,,,,,,,,,,,,,,AMP_prac,right,0.83172010834096,3,,,left,0.783779102988774,,,,,,,,,,,,,,,,,,,,,,,,,1002,2019_May_01_1348,mf_amp_cond1,3.0.7,59.99699820649063,
praise,&&&&&&,images/symbols/symbol_2.png,condition_files/AMP_rep4.csv,left,authority.virtue,,,,,,,,,,,,,,0,3,3,3,0,21,21,21,,,,,,,,,,,,,,,,,,,,,1066.8893683663046,,,,,,,,,,,,,,AMP_prac,right,0.83172010834096,3,,,left,1.0821551659610122,,,,,,,,,,,,,,,,,,,,,,,,,1002,2019_May_01_1348,mf_amp_cond1,3.0.7,59.99699820649063,
loyalty,&&&&&&&,images/symbols/symbol_71.png,condition_files/AMP_rep4.csv,left,loyalty.virtue,,,,,,,,,,,,,,0,3,3,3,0,22,22,22,,,,,,,,,,,,,,,,,,,,,1068.1396902095003,,,,,,,,,,,,,,AMP_prac,right,0.83172010834096,3,,,right,1.0324896455276757,,,,,,,,,,,,,,,,,,,,,,,,,1002,2019_May_01_1348,mf_amp_cond1,3.0.7,59.99699820649063,
attacks,&&&&&&&,images/symbols/symbol_76.png,condition_files/AMP_rep4.csv,right,care.vice,,,,,,,,,,,,,,0,3,3,3,0,23,23,23,,,,,,,,,,,,,,,,,,,,,1069.2566371539724,,,,,,,,,,,,,,AMP_prac,right,0.83172010834096,3,,,right,0.8994303359359037,,,,,,,,,,,,,,,,,,,,,,,,,1002,2019_May_01_1348,mf_amp_cond1,3.0.7,59.99699820649063,
improve,&&&&&&&,images/symbols/symbol_6.png,condition_files/AMP_rep4.csv,left,care.virtue,,,,,,,,,,,,,,0,3,3,3,0,24,24,24,,,,,,,,,,,,,,,,,,,,,1070.0401689813298,,,,,,,,,,,,,,AMP_prac,right,0.83172010834096,3,,,left,0.5654802567732986,,,,,,,,,,,,,,,,,,,,,,,,,1002,2019_May_01_1348,mf_amp_cond1,3.0.7,59.99699820649063,
psured,&&&&&&,images/symbols/symbol_40.png,condition_files/AMP_rep4.csv,None,nonword,,,,,,,,,,,,,,0,3,3,3,0,25,25,25,,,,,,,,,,,,,,,,,,,,,1070.7570771827304,,,,,,,,,,,,,,AMP_prac,right,0.83172010834096,3,,,right,0.49906991005991586,,,,,,,,,,,,,,,,,,,,,,,,,1002,2019_May_01_1348,mf_amp_cond1,3.0.7,59.99699820649063,
victim,&&&&&&,images/symbols/symbol_65.png,condition_files/AMP_rep4.csv,right,care.vice,,,,,,,,,,,,,,0,3,3,3,0,26,26,26,,,,,,,,,,,,,,,,,,,,,1071.4238628367602,,,,,,,,,,,,,,AMP_prac,right,0.83172010834096,3,,,left,0.4489874527498614,,,,,,,,,,,,,,,,,,,,,,,,,1002,2019_May_01_1348,mf_amp_cond1,3.0.7,59.99699820649063,
peaceful,&&&&&&&&,images/symbols/symbol_68.png,condition_files/AMP_rep4.csv,left,authority.virtue,,,,,,,,,,,,,,0,3,3,3,0,27,27,27,,,,,,,,,,,,,,,,,,,,,1072.0574048309645,,,,,,,,,,,,,,AMP_prac,right,0.83172010834096,3,,,left,0.40038512137834914,,,,,,,,,,,,,,,,,,,,,,,,,1002,2019_May_01_1348,mf_amp_cond1,3.0.7,59.99699820649063,
corruption,&&&&&&&&&&,images/symbols/symbol_57.png,condition_files/AMP_rep4.csv,right,sanctity.vice,,,,,,,,,,,,,,0,3,3,3,0,28,28,28,,,,,,,,,,,,,,,,,,,,,1072.8575394053478,,,,,,,,,,,,,,AMP_prac,right,0.83172010834096,3,,,left,0.5817452849296387,,,,,,,,,,,,,,,,,,,,,,,,,1002,2019_May_01_1348,mf_amp_cond1,3.0.7,59.99699820649063,
safety,&&&&&&,images/symbols/symbol_13.png,condition_files/AMP_rep4.csv,left,care.virtue,,,,,,,,,,,,,,0,3,3,3,0,29,29,29,,,,,,,,,,,,,,,,,,,,,1073.5744783959526,,,,,,,,,,,,,,AMP_prac,right,0.83172010834096,3,,,left,0.4991196217597462,,,,,,,,,,,,,,,,,,,,,,,,,1002,2019_May_01_1348,mf_amp_cond1,3.0.7,59.99699820649063,
riot,&&&&,images/symbols/symbol_28.png,condition_files/AMP_rep4.csv,right,authority.vice,,,,,,,,,,,,,,0,3,3,3,0,30,30,30,,,,,,,,,,,,,,,,,,,,,1074.207869009988,,,,,,,,,,,,,,AMP_prac,right,0.83172010834096,3,,,left,0.41574379295343533,,,,,,,,,,,,,,,,,,,,,,,,,1002,2019_May_01_1348,mf_amp_cond1,3.0.7,59.99699820649063,
unpleasant,&&&&&&&&&,images/symbols/symbol_17.png,condition_files/AMP_rep4.csv,left,control,,,,,,,,,,,,,,0,3,3,3,0,31,31,31,,,,,,,,,,,,,,,,,,,,,1076.1248825360672,,,,,,,,,,,,,,AMP_prac,right,0.83172010834096,3,,,right,1.698759901453741,,,,,,,,,,,,,,,,,,,,,,,,,1002,2019_May_01_1348,mf_amp_cond1,3.0.7,59.99699820649063,
terrorists,&&&&&&&&&&,images/symbols/symbol_16.png,condition_files/AMP_rep4.csv,right,fairness.vice,,,,,,,,,,,,,,0,3,3,3,0,32,32,32,,,,,,,,,,,,,,,,,,,,,1077.5253953042848,,,,,,,,,,,,,,AMP_prac,right,0.83172010834096,3,,,left,1.1827610714244656,,,,,,,,,,,,,,,,,,,,,,,,,1002,2019_May_01_1348,mf_amp_cond1,3.0.7,59.99699820649063,
protesters,&&&&&&&&&&,images/symbols/symbol_10.png,condition_files/AMP_rep4.csv,right,authority.vice,,,,,,,,,,,,,,0,3,3,3,0,33,33,33,,,,,,,,,,,,,,,,,,,,,1078.6089767150406,,,,,,,,,,,,,,AMP_prac,right,0.83172010834096,3,,,right,0.8657803230162244,,,,,,,,,,,,,,,,,,,,,,,,,1002,2019_May_01_1348,mf_amp_cond1,3.0.7,59.99699820649063,
benefit,&&&&&&&,images/symbols/symbol_50.png,condition_files/AMP_rep4.csv,left,fairness.virtue,,,,,,,,,,,,,,0,3,3,3,0,34,34,34,,,,,,,,,,,,,,,,,,,,,1080.07601176147,,,,,,,,,,,,,,AMP_prac,right,0.83172010834096,3,,,right,1.2491656451893505,,,,,,,,,,,,,,,,,,,,,,,,,1002,2019_May_01_1348,mf_amp_cond1,3.0.7,59.99699820649063,
threatened,&&&&&&&&&&,images/symbols/symbol_26.png,condition_files/AMP_rep4.csv,right,fairness.vice,,,,,,,,,,,,,,0,3,3,3,0,35,35,35,,,,,,,,,,,,,,,,,,,,,1081.2763024627056,,,,,,,,,,,,,,AMP_prac,right,0.83172010834096,3,,,right,0.9824219413858373,,,,,,,,,,,,,,,,,,,,,,,,,1002,2019_May_01_1348,mf_amp_cond1,3.0.7,59.99699820649063,
spynze,&&&&&&,images/symbols/symbol_73.png,condition_files/AMP_rep4.csv,None,nonword,,,,,,,,,,,,,,0,3,3,3,0,36,36,36,,,,,,,,,,,,,,,,,,,,,1082.4599387808412,,,,,,,,,,,,,,AMP_prac,right,0.83172010834096,3,,,left,0.9504884255293291,,,,,,,,,,,,,,,,,,,,,,,,,1002,2019_May_01_1348,mf_amp_cond1,3.0.7,59.99699820649063,
pleasant,&&&&&&&,images/symbols/symbol_12.png,condition_files/AMP_rep4.csv,right,control,,,,,,,,,,,,,,0,3,3,3,0,37,37,37,,,,,,,,,,,,,,,,,,,,,1083.543541038467,,,,,,,,,,,,,,AMP_prac,right,0.83172010834096,3,,,right,0.8504562893067487,,,,,,,,,,,,,,,,,,,,,,,,,1002,2019_May_01_1348,mf_amp_cond1,3.0.7,59.99699820649063,
forced,&&&&&&,images/symbols/symbol_37.png,condition_files/AMP_rep4.csv,right,fairness.vice,,,,,,,,,,,,,,0,3,3,3,0,38,38,38,,,,,,,,,,,,,,,,,,,,,1084.7438625288778,,,,,,,,,,,,,,AMP_prac,right,0.83172010834096,3,,,right,0.9817949325079098,,,,,,,,,,,,,,,,,,,,,,,,,1002,2019_May_01_1348,mf_amp_cond1,3.0.7,59.99699820649063,
values,&&&&&&,images/symbols/symbol_60.png,condition_files/AMP_rep4.csv,left,sanctity.virtue,,,,,,,,,,,,,,0,3,3,3,0,39,39,39,,,,,,,,,,,,,,,,,,,,,1085.977477711538,,,,,,,,,,,,,,AMP_prac,right,0.83172010834096,3,,,right,1.0158060769026633,,,,,,,,,,,,,,,,,,,,,,,,,1002,2019_May_01_1348,mf_amp_cond1,3.0.7,59.99699820649063,
powerful,&&&&&&&&,images/symbols/symbol_18.png,condition_files/AMP_rep4.csv,left,authority.virtue,,,,,,,,,,,,,,0,3,3,3,0,40,40,40,,,,,,,,,,,,,,,,,,,,,1087.1444500249927,,,,,,,,,,,,,,AMP_prac,right,0.83172010834096,3,,,left,0.9491875824460294,,,,,,,,,,,,,,,,,,,,,,,,,1002,2019_May_01_1348,mf_amp_cond1,3.0.7,59.99699820649063,
serial,&&&&&&,images/symbols/symbol_41.png,condition_files/AMP_rep4.csv,right,sanctity.vice,,,,,,,,,,,,,,0,3,3,3,0,41,41,41,,,,,,,,,,,,,,,,,,,,,1088.6281869211525,,,,,,,,,,,,,,AMP_prac,right,0.83172010834096,3,,,left,1.2506101710896473,,,,,,,,,,,,,,,,,,,,,,,,,1002,2019_May_01_1348,mf_amp_cond1,3.0.7,59.99699820649063,
care,&&&&,images/symbols/symbol_63.png,condition_files/AMP_rep4.csv,left,care.virtue,,,,,,,,,,,,,,0,3,3,3,0,42,42,42,,,,,,,,,,,,,,,,,,,,,1089.6950719344604,,,,,,,,,,,,,,AMP_prac,right,0.83172010834096,3,,,right,0.8484193923068233,,,,,,,,,,,,,,,,,,,,,,,,,1002,2019_May_01_1348,mf_amp_cond1,3.0.7,59.99699820649063,
civilians,&&&&&&&&&,images/symbols/symbol_47.png,condition_files/AMP_rep4.csv,right,care.vice,,,,,,,,,,,,,,0,3,3,3,0,43,43,43,,,,,,,,,,,,,,,,,,,,,1090.7453397682984,,,,,,,,,,,,,,AMP_prac,right,0.83172010834096,3,,,right,0.832276879431447,,,,,,,,,,,,,,,,,,,,,,,,,1002,2019_May_01_1348,mf_amp_cond1,3.0.7,59.99699820649063,
free,&&&&,images/symbols/symbol_56.png,condition_files/AMP_rep4.csv,left,fairness.virtue,,,,,,,,,,,,,,0,3,3,3,0,44,44,44,,,,,,,,,,,,,,,,,,,,,1091.8456223873363,,,,,,,,,,,,,,AMP_prac,right,0.83172010834096,3,,,left,0.867140820104396,,,,,,,,,,,,,,,,,,,,,,,,,1002,2019_May_01_1348,mf_amp_cond1,3.0.7,59.99699820649063,
progress,&&&&&&&&,images/symbols/symbol_38.png,condition_files/AMP_rep4.csv,left,authority.virtue,,,,,,,,,,,,,,0,3,3,3,0,45,45,45,,,,,,,,,,,,,,,,,,,,,1092.9959383934329,,,,,,,,,,,,,,AMP_prac,right,0.83172010834096,3,,,left,0.9318551959004253,,,,,,,,,,,,,,,,,,,,,,,,,1002,2019_May_01_1348,mf_amp_cond1,3.0.7,59.99699820649063,
fighters,&&&&&&&&,images/symbols/symbol_24.png,condition_files/AMP_rep4.csv,right,authority.vice,,,,,,,,,,,,,,0,3,3,3,0,46,46,46,,,,,,,,,,,,,,,,,,,,,1094.129518874106,,,,,,,,,,,,,,AMP_prac,right,0.83172010834096,3,,,right,0.9004524727351964,,,,,,,,,,,,,,,,,,,,,,,,,1002,2019_May_01_1348,mf_amp_cond1,3.0.7,59.99699820649063,
victims,&&&&&&&,images/symbols/symbol_22.png,condition_files/AMP_rep4.csv,right,care.vice,,,,,,,,,,,,,,0,3,3,3,0,47,47,47,,,,,,,,,,,,,,,,,,,,,1095.5632098751375,,,,,,,,,,,,,,AMP_prac,right,0.83172010834096,3,,,left,1.215256489958847,,,,,,,,,,,,,,,,,,,,,,,,,1002,2019_May_01_1348,mf_amp_cond1,3.0.7,59.99699820649063,
party,&&&&&,images/symbols/symbol_25.png,condition_files/AMP_rep4.csv,left,loyalty.virtue,,,,,,,,,,,,,,0,3,3,3,0,48,48,48,,,,,,,,,,,,,,,,,,,,,1096.7968385280692,,,,,,,,,,,,,,AMP_prac,right,0.83172010834096,3,,,left,1.0155658571165986,,,,,,,,,,,,,,,,,,,,,,,,,1002,2019_May_01_1348,mf_amp_cond1,3.0.7,59.99699820649063,
rebels,&&&&&&,images/symbols/symbol_66.png,condition_files/AMP_rep4.csv,right,authority.vice,,,,,,,,,,,,,,0,3,3,3,0,49,49,49,,,,,,,,,,,,,,,,,,,,,1098.0971725907002,,,,,,,,,,,,,,AMP_prac,right,0.83172010834096,3,,,right,1.067177189834183,,,,,,,,,,,,,,,,,,,,,,,,,1002,2019_May_01_1348,mf_amp_cond1,3.0.7,59.99699820649063,
credit,&&&&&&,images/symbols/symbol_3.png,condition_files/AMP_rep4.csv,left,fairness.virtue,,,,,,,,,,,,,,0,3,3,3,0,50,50,50,,,,,,,,,,,,,,,,,,,,,1099.1474340101413,,,,,,,,,,,,,,AMP_prac,right,0.83172010834096,3,,,left,0.8316870741255116,,,,,,,,,,,,,,,,,,,,,,,,,1002,2019_May_01_1348,mf_amp_cond1,3.0.7,59.99699820649063,
blamed,&&&&&&,images/symbols/symbol_1.png,condition_files/AMP_rep4.csv,right,loyalty.vice,,,,,,,,,,,,,,0,3,3,3,0,51,51,51,,,,,,,,,,,,,,,,,,,,,1100.1310099045222,,,,,,,,,,,,,,AMP_prac,right,0.83172010834096,3,,,left,0.765441577823367,,,,,,,,,,,,,,,,,,,,,,,,,1002,2019_May_01_1348,mf_amp_cond1,3.0.7,59.99699820649063,
