words,mask,masks,symbols,conditionfile,corr_ans,category,LDT_trials_cond2.thisRepN,LDT_trials_cond2.thisTrialN,LDT_trials_cond2.thisN,LDT_trials_cond2.thisIndex,LDT_pracs_1.thisRepN,LDT_pracs_1.thisTrialN,LDT_pracs_1.thisN,LDT_pracs_1.thisIndex,LDT_trials_1.thisRepN,LDT_trials_1.thisTrialN,LDT_trials_1.thisN,LDT_trials_1.thisIndex,logo_trials.thisRepN,logo_trials.thisTrialN,logo_trials.thisN,logo_trials.thisIndex,AMP_pracs.thisRepN,AMP_pracs.thisTrialN,AMP_pracs.thisN,AMP_pracs.thisIndex,trials_loop.thisRepN,trials_loop.thisTrialN,trials_loop.thisN,trials_loop.thisIndex,AMP_trials.thisRepN,AMP_trials.thisTrialN,AMP_trials.thisN,AMP_trials.thisIndex,memtask_trials.thisRepN,memtask_trials.thisTrialN,memtask_trials.thisN,memtask_trials.thisIndex,LDT_cond1.thisRepN,LDT_cond1.thisTrialN,LDT_cond1.thisN,LDT_cond1.thisIndex,begin_key.keys,begin_key.rt,key_resp_instr.keys,key_resp_instr.rt,exp_time,key_resp_LDT_instr.keys,key_resp_LDT_instr.rt,resp_LDT_prac.keys,resp_LDT_prac.rt,task,keypress,RT,corr,resp_LDT_ready.keys,resp_LDT_ready.rt,resp_LDT_trial.keys,resp_LDT_trial.rt,LDT_rating.response,LDT_rating.rt,resp_sym_rate.keys,resp_sym_rate.rt,sym_resp_1.keys,sym_resp_1.rt,sym_resp_2.keys,sym_resp_2.rt,sym_resp_trial.keys,sym_resp_trial.rt,symbol_index,resp_AMP_ready1.keys,resp_AMP_ready1.rt,resp_AMP.keys,resp_AMP.rt,prime_dur,resp_AMP_ready.keys,resp_AMP_ready.rt,resp_AMP_trials.keys,resp_AMP_trials.rt,rest_key_resp.keys,rest_key_resp.rt,AMP_nonword_rating.response,AMP_nonword_rating.rt,AMP_word_rating.response,AMP_word_rating.rt,AMP_random_rating.response,AMP_random_rating.rt,key_resp_instr_memtask.keys,key_resp_instr_memtask.rt,resp_memtask.keys,resp_memtask.corr,resp_memtask.rt,participant ID,date,expName,psychopyVersion,frameRate,
,,,,,,,,,,,,,,,,,,,,,,,,,,,,,,,,,,,,,,,,,,,right,606.1012855126755,,,,,,,,,,,,,,,,,,,,,,,,,,,,,,,,,,,,,,,,,,,,,,,,,1003,2019_May_08_1256,mf_amp_cond1,3.0.7,59.98199375716062,
,,,,,,,,,,,,,,,,,,,,,,,,,,,,,,,,,,,,,,,,,,,,,right,1.867410546168685,,,,,,,,,,,,,,,,,,,,,,,,,,,,,,,,,,,,,,,,,,,,,,,1003,2019_May_08_1256,mf_amp_cond1,3.0.7,59.98199375716062,
bisebell,&&&&&&&,,,,,,0,0,0,0,0,0,0,1,,,,,,,,,,,,,,,,,,,,,,,,,,,,,,,,,709.4843831482576,right,3.717861062497832,left,1.7674133685650304,LDT_prac,left,1.7674133685650304,0,,,,,,,,,,,,,,,,,,,,,,,,,,,,,,,,,,,,,,1003,2019_May_08_1256,mf_amp_cond1,3.0.7,59.98199375716062,
keyboard,&&&&&&&,,,,,,0,0,0,0,0,1,1,0,,,,,,,,,,,,,,,,,,,,,,,,,,,,,,,,,712.0682464725105,,,right,0.567098613246344,LDT_prac,right,0.567098613246344,0,,,,,,,,,,,,,,,,,,,,,,,,,,,,,,,,,,,,,,1003,2019_May_08_1256,mf_amp_cond1,3.0.7,59.98199375716062,
,,,,,,,0,0,0,0,,,,,0,0,0,0,,,,,,,,,,,,,,,,,,,,,,,,,,,,,732.4900781852193,,,,,LDT_prac,right,0.567098613246344,0,right,1.6006591451587155,right,1.3672540344996378,,,,,,,,,,,,,,,,,,,,,,,,,,,,,,,,,,1003,2019_May_08_1256,mf_amp_cond1,3.0.7,59.98199375716062,
,,,,,,,0,0,0,0,,,,,,,,,,,,,,,,,,,,,,,,,,,,,,,,,,,,,,,,,,,,,,,,,,3,12.905,,,,,,,,,,,,,,,,,,,,,,,,,,,,,,,,1003,2019_May_08_1256,mf_amp_cond1,3.0.7,59.98199375716062,
,,,,,,,,,,,,,,,,,,,,,,,,,,,,,,,,,,,,,,,,,,,,,,,,,,,,,,,,,,,,,,right,1.8007481129607186,,,,,,,,,,,,,,,,,,,,,,,,,,,,,,1003,2019_May_08_1256,mf_amp_cond1,3.0.7,59.98199375716062,
,,,,,,,,,,,,,,,,,,,,,,,,,,,,,,,,,,,,,,,,,,,,,,,819.244851310621,,,,,,,,,,,,,,,,,left,2.6842476116726175,,,,,,,,,,,,,,,,,,,,,,,,,,,,1003,2019_May_08_1256,mf_amp_cond1,3.0.7,59.98199375716062,
,,,,,,,,,,,,,,,,,,,,,,,,,,,,,,,,,,,,,,,,,,,,,,,,,,,,,,,,,,,,,,,,,,right,1.9174468197161332,,,,,,,,,,,,,,,,,,,,,,,,,,1003,2019_May_08_1256,mf_amp_cond1,3.0.7,59.98199375716062,
,,,,,,,,,,,,,,,,,,,,,,,,,,,,,,,,,,,,,,,,,,,,,,,839.883301934693,,,,,,,,,,,,,,,,,,,,,left,0.6837681343313307,73,right,1.1839060442289338,,,,,,,,,,,,,,,,,,,,,1003,2019_May_08_1256,mf_amp_cond1,3.0.7,59.98199375716062,
keyboard,,&&&&&&&&,images/symbols/symbol_40.png,,,,,,,,,,,,,,,,,,,,0,0,0,2,,,,,,,,,,,,,,,,,,,,,987.0370438790414,,,,,AMP_prac,right,1.9840989897493273,,,,,,,,,,,,,,,,,,,right,1.9840989897493273,6,,,,,,,,,,,,,,,,,,1003,2019_May_08_1256,mf_amp_cond1,3.0.7,59.98199375716062,
scarf,,&&&&&,images/symbols/symbol_54.png,,,,,,,,,,,,,,,,,,,,0,1,1,3,,,,,,,,,,,,,,,,,,,,,988.2705705427798,,,,,AMP_prac,right,1.000528868404217,,,,,,,,,,,,,,,,,,,right,1.000528868404217,6,,,,,,,,,,,,,,,,,,1003,2019_May_08_1256,mf_amp_cond1,3.0.7,59.98199375716062,
car,,&&&,images/symbols/symbol_9.png,,,,,,,,,,,,,,,,,,,,0,2,2,0,,,,,,,,,,,,,,,,,,,,,989.4875784883043,,,,,AMP_prac,left,0.9981494416715577,,,,,,,,,,,,,,,,,,,left,0.9981494416715577,6,,,,,,,,,,,,,,,,,,1003,2019_May_08_1256,mf_amp_cond1,3.0.7,59.98199375716062,
banana,,&&&&&&,images/symbols/symbol_68.png,,,,,,,,,,,,,,,,,,,,0,3,3,1,,,,,,,,,,,,,,,,,,,,,990.921234530746,,,,,AMP_prac,left,1.2005177714163437,,,,,,,,,,,,,,,,,,,left,1.2005177714163437,6,,,,,,,,,,,,,,,,,,1003,2019_May_08_1256,mf_amp_cond1,3.0.7,59.98199375716062,
,,,,,,,,,,,,,,,,,,,,,,,,,,,,,,,,,,,,,,,,,,,,,,,,,,,,,,,,,,,,,,,,,,,,,,,,,,,,right,1.6173459208803251,,,,,,,,,,,,,,,,1003,2019_May_08_1256,mf_amp_cond1,3.0.7,59.98199375716062,
prosecution,,&&&&&&&&&&&,images/symbols/symbol_39.png,condition_files/AMP_rep2.csv,right,authority.vice,,,,,,,,,,,,,,,,,,,,,0,0,0,1,0,0,0,0,,,,,,,,,,,,,1013.7605079317,,,,,AMP_prac,left,1.2005177714163437,,,,,,,,,,,,,,,,,,,,,6,,,left,0.9505945841083303,,,,,,,,,,,,,,1003,2019_May_08_1256,mf_amp_cond1,3.0.7,59.98199375716062,
agreement,,&&&&&&&&&,images/symbols/symbol_14.png,condition_files/AMP_rep2.csv,left,fairness.virtue,,,,,,,,,,,,,,,,,,,,,0,0,0,1,0,1,1,1,,,,,,,,,,,,,1014.8105198304402,,,,,AMP_prac,left,1.2005177714163437,,,,,,,,,,,,,,,,,,,,,6,,,left,0.8311521121067926,,,,,,,,,,,,,,1003,2019_May_08_1256,mf_amp_cond1,3.0.7,59.98199375716062,
credit,,&&&&&&,images/symbols/symbol_22.png,condition_files/AMP_rep2.csv,left,fairness.virtue,,,,,,,,,,,,,,,,,,,,,0,0,0,1,0,2,2,2,,,,,,,,,,,,,1016.0608400700148,,,,,AMP_prac,left,1.2005177714163437,,,,,,,,,,,,,,,,,,,,,6,,,right,1.0322853464167565,,,,,,,,,,,,,,1003,2019_May_08_1256,mf_amp_cond1,3.0.7,59.98199375716062,
sharz,,&&&&&,images/symbols/symbol_57.png,condition_files/AMP_rep2.csv,None,nonword,,,,,,,,,,,,,,,,,,,,,0,0,0,1,0,3,3,3,,,,,,,,,,,,,1017.3445373892318,,,,,AMP_prac,left,1.2005177714163437,,,,,,,,,,,,,,,,,,,,,6,,,right,1.0505734806647524,,,,,,,,,,,,,,1003,2019_May_08_1256,mf_amp_cond1,3.0.7,59.98199375716062,
ban,,&&&,images/symbols/symbol_62.png,condition_files/AMP_rep2.csv,right,loyalty.vice,,,,,,,,,,,,,,,,,,,,,0,0,0,1,0,4,4,4,,,,,,,,,,,,,1018.7448323881254,,,,,AMP_prac,left,1.2005177714163437,,,,,,,,,,,,,,,,,,,,,6,,,right,1.1672150989761576,,,,,,,,,,,,,,1003,2019_May_08_1256,mf_amp_cond1,3.0.7,59.98199375716062,
peace,,&&&&&,images/symbols/symbol_18.png,condition_files/AMP_rep2.csv,left,care.virtue,,,,,,,,,,,,,,,,,,,,,0,0,0,1,0,5,5,5,,,,,,,,,,,,,1019.87845231744,,,,,AMP_prac,left,1.2005177714163437,,,,,,,,,,,,,,,,,,,,,6,,,left,0.9004887141054496,,,,,,,,,,,,,,1003,2019_May_08_1256,mf_amp_cond1,3.0.7,59.98199375716062,
penalty,,&&&&&&&,images/symbols/symbol_13.png,condition_files/AMP_rep2.csv,right,authority.vice,,,,,,,,,,,,,,,,,,,,,0,0,0,1,0,6,6,6,,,,,,,,,,,,,1021.2954780309228,,,,,AMP_prac,left,1.2005177714163437,,,,,,,,,,,,,,,,,,,,,6,,,right,1.1981928672175854,,,,,,,,,,,,,,1003,2019_May_08_1256,mf_amp_cond1,3.0.7,59.98199375716062,
war,,&&&,images/symbols/symbol_59.png,condition_files/AMP_rep2.csv,right,sanctity.vice,,,,,,,,,,,,,,,,,,,,,0,0,0,1,0,7,7,7,,,,,,,,,,,,,1022.6291545353597,,,,,AMP_prac,left,1.2005177714163437,,,,,,,,,,,,,,,,,,,,,6,,,left,1.1156566852005199,,,,,,,,,,,,,,1003,2019_May_08_1256,mf_amp_cond1,3.0.7,59.98199375716062,
crime,,&&&&&,images/symbols/symbol_36.png,condition_files/AMP_rep2.csv,right,fairness.vice,,,,,,,,,,,,,,,,,,,,,0,0,0,1,0,8,8,8,,,,,,,,,,,,,1023.9628345677629,,,,,AMP_prac,left,1.2005177714163437,,,,,,,,,,,,,,,,,,,,,6,,,right,1.115694850916043,,,,,,,,,,,,,,1003,2019_May_08_1256,mf_amp_cond1,3.0.7,59.98199375716062,
faith,,&&&&&,images/symbols/symbol_35.png,condition_files/AMP_rep2.csv,left,sanctity.virtue,,,,,,,,,,,,,,,,,,,,,0,0,0,1,0,9,9,9,,,,,,,,,,,,,1025.1797764447983,,,,,AMP_prac,left,1.2005177714163437,,,,,,,,,,,,,,,,,,,,,6,,,right,0.9986706128111109,,,,,,,,,,,,,,1003,2019_May_08_1256,mf_amp_cond1,3.0.7,59.98199375716062,
corruption,,&&&&&&&&&&,images/symbols/symbol_75.png,condition_files/AMP_rep2.csv,right,sanctity.vice,,,,,,,,,,,,,,,,,,,,,0,0,0,1,0,10,10,10,,,,,,,,,,,,,1026.313402467873,,,,,AMP_prac,left,1.2005177714163437,,,,,,,,,,,,,,,,,,,,,6,,,left,0.9156318614259362,,,,,,,,,,,,,,1003,2019_May_08_1256,mf_amp_cond1,3.0.7,59.98199375716062,
shot,,&&&&,images/symbols/symbol_79.png,condition_files/AMP_rep2.csv,right,care.vice,,,,,,,,,,,,,,,,,,,,,0,0,0,1,0,11,11,11,,,,,,,,,,,,,1027.647066464182,,,,,AMP_prac,left,1.2005177714163437,,,,,,,,,,,,,,,,,,,,,6,,,left,1.115532886935398,,,,,,,,,,,,,,1003,2019_May_08_1256,mf_amp_cond1,3.0.7,59.98199375716062,
love,,&&&&,images/symbols/symbol_40.png,condition_files/AMP_rep2.csv,left,loyalty.virtue,,,,,,,,,,,,,,,,,,,,,0,0,0,1,0,12,12,12,,,,,,,,,,,,,1028.7973481531953,,,,,AMP_prac,left,1.2005177714163437,,,,,,,,,,,,,,,,,,,,,6,,,left,0.9322407022118568,,,,,,,,,,,,,,1003,2019_May_08_1256,mf_amp_cond1,3.0.7,59.98199375716062,
clean,,&&&&&,images/symbols/symbol_29.png,condition_files/AMP_rep2.csv,left,sanctity.virtue,,,,,,,,,,,,,,,,,,,,,0,0,0,1,0,13,13,13,,,,,,,,,,,,,1030.0810053822352,,,,,AMP_prac,left,1.2005177714163437,,,,,,,,,,,,,,,,,,,,,6,,,right,1.0655283648520708,,,,,,,,,,,,,,1003,2019_May_08_1256,mf_amp_cond1,3.0.7,59.98199375716062,
illegal,,&&&&&&&,images/symbols/symbol_41.png,condition_files/AMP_rep2.csv,right,fairness.vice,,,,,,,,,,,,,,,,,,,,,0,0,0,1,0,14,14,14,,,,,,,,,,,,,1031.314646864077,,,,,AMP_prac,left,1.2005177714163437,,,,,,,,,,,,,,,,,,,,,6,,,left,1.0161344949156046,,,,,,,,,,,,,,1003,2019_May_08_1256,mf_amp_cond1,3.0.7,59.98199375716062,
dighnd,,&&&&&&,images/symbols/symbol_17.png,condition_files/AMP_rep2.csv,None,nonword,,,,,,,,,,,,,,,,,,,,,0,0,0,1,0,15,15,15,,,,,,,,,,,,,1032.4150985028828,,,,,AMP_prac,left,1.2005177714163437,,,,,,,,,,,,,,,,,,,,,6,,,left,0.8822948718443513,,,,,,,,,,,,,,1003,2019_May_08_1256,mf_amp_cond1,3.0.7,59.98199375716062,
failure,,&&&&&&&,images/symbols/symbol_32.png,condition_files/AMP_rep2.csv,right,loyalty.vice,,,,,,,,,,,,,,,,,,,,,0,0,0,1,0,16,16,16,,,,,,,,,,,,,1033.815301134251,,,,,AMP_prac,left,1.2005177714163437,,,,,,,,,,,,,,,,,,,,,6,,,left,1.1821940373629332,,,,,,,,,,,,,,1003,2019_May_08_1256,mf_amp_cond1,3.0.7,59.98199375716062,
integrity,,&&&&&&&&&,images/symbols/symbol_64.png,condition_files/AMP_rep2.csv,left,fairness.virtue,,,,,,,,,,,,,,,,,,,,,0,0,0,1,0,17,17,17,,,,,,,,,,,,,1035.0656002062606,,,,,AMP_prac,left,1.2005177714163437,,,,,,,,,,,,,,,,,,,,,6,,,right,1.0172012117691338,,,,,,,,,,,,,,1003,2019_May_08_1256,mf_amp_cond1,3.0.7,59.98199375716062,
ability,,&&&&&&&,images/symbols/symbol_66.png,condition_files/AMP_rep2.csv,left,authority.virtue,,,,,,,,,,,,,,,,,,,,,0,0,0,1,0,18,18,18,,,,,,,,,,,,,1036.5995892209467,,,,,AMP_prac,left,1.2005177714163437,,,,,,,,,,,,,,,,,,,,,6,,,left,1.3155140927992761,,,,,,,,,,,,,,1003,2019_May_08_1256,mf_amp_cond1,3.0.7,59.98199375716062,
blamed,,&&&&&&,images/symbols/symbol_10.png,condition_files/AMP_rep2.csv,right,loyalty.vice,,,,,,,,,,,,,,,,,,,,,0,0,0,1,0,19,19,19,,,,,,,,,,,,,1037.6995658724336,,,,,AMP_prac,left,1.2005177714163437,,,,,,,,,,,,,,,,,,,,,6,,,left,0.8819930736208335,,,,,,,,,,,,,,1003,2019_May_08_1256,mf_amp_cond1,3.0.7,59.98199375716062,
safe,,&&&&,images/symbols/symbol_11.png,condition_files/AMP_rep2.csv,left,care.virtue,,,,,,,,,,,,,,,,,,,,,0,0,0,1,0,20,20,20,,,,,,,,,,,,,1039.1832783938153,,,,,AMP_prac,left,1.2005177714163437,,,,,,,,,,,,,,,,,,,,,6,,,right,1.265614766976796,,,,,,,,,,,,,,1003,2019_May_08_1256,mf_amp_cond1,3.0.7,59.98199375716062,
win,,&&&,images/symbols/symbol_24.png,condition_files/AMP_rep2.csv,left,fairness.virtue,,,,,,,,,,,,,,,,,,,,,0,0,0,1,0,21,21,21,,,,,,,,,,,,,1040.266877123504,,,,,AMP_prac,left,1.2005177714163437,,,,,,,,,,,,,,,,,,,,,6,,,left,0.8504646279616281,,,,,,,,,,,,,,1003,2019_May_08_1256,mf_amp_cond1,3.0.7,59.98199375716062,
fighters,,&&&&&&&&,images/symbols/symbol_43.png,condition_files/AMP_rep2.csv,right,authority.vice,,,,,,,,,,,,,,,,,,,,,0,0,0,1,0,22,22,22,,,,,,,,,,,,,1041.5338642542483,,,,,AMP_prac,left,1.2005177714163437,,,,,,,,,,,,,,,,,,,,,6,,,right,1.0486016898648813,,,,,,,,,,,,,,1003,2019_May_08_1256,mf_amp_cond1,3.0.7,59.98199375716062,
pleasant,,&&&&&&&,images/symbols/symbol_82.png,condition_files/AMP_rep2.csv,right,control,,,,,,,,,,,,,,,,,,,,,0,0,0,1,0,23,23,23,,,,,,,,,,,,,1042.717492233729,,,,,AMP_prac,left,1.2005177714163437,,,,,,,,,,,,,,,,,,,,,6,,,left,0.9659157312707976,,,,,,,,,,,,,,1003,2019_May_08_1256,mf_amp_cond1,3.0.7,59.98199375716062,
drug,,&&&&,images/symbols/symbol_16.png,condition_files/AMP_rep2.csv,right,sanctity.vice,,,,,,,,,,,,,,,,,,,,,0,0,0,1,0,24,24,24,,,,,,,,,,,,,1044.0178137882613,,,,,AMP_prac,left,1.2005177714163437,,,,,,,,,,,,,,,,,,,,,6,,,left,1.0825679334811866,,,,,,,,,,,,,,1003,2019_May_08_1256,mf_amp_cond1,3.0.7,59.98199375716062,
victim,,&&&&&&,images/symbols/symbol_25.png,condition_files/AMP_rep2.csv,right,care.vice,,,,,,,,,,,,,,,,,,,,,0,0,0,1,0,25,25,25,,,,,,,,,,,,,1045.5682160040597,,,,,AMP_prac,left,1.2005177714163437,,,,,,,,,,,,,,,,,,,,,6,,,right,1.3323419856606051,,,,,,,,,,,,,,1003,2019_May_08_1256,mf_amp_cond1,3.0.7,59.98199375716062,
harassment,,&&&&&&&&&&,images/symbols/symbol_51.png,condition_files/AMP_rep2.csv,right,sanctity.vice,,,,,,,,,,,,,,,,,,,,,0,0,0,1,0,26,26,26,,,,,,,,,,,,,1046.7685102331452,,,,,AMP_prac,left,1.2005177714163437,,,,,,,,,,,,,,,,,,,,,6,,,left,0.9669686573324725,,,,,,,,,,,,,,1003,2019_May_08_1256,mf_amp_cond1,3.0.7,59.98199375716062,
ensure,,&&&&&&,images/symbols/symbol_34.png,condition_files/AMP_rep2.csv,left,fairness.virtue,,,,,,,,,,,,,,,,,,,,,0,0,0,1,0,27,27,27,,,,,,,,,,,,,1048.0188218132826,,,,,AMP_prac,left,1.2005177714163437,,,,,,,,,,,,,,,,,,,,,6,,,right,1.0317754006246105,,,,,,,,,,,,,,1003,2019_May_08_1256,mf_amp_cond1,3.0.7,59.98199375716062,
opportunity,,&&&&&&&&&&&,images/symbols/symbol_42.png,condition_files/AMP_rep2.csv,left,fairness.virtue,,,,,,,,,,,,,,,,,,,,,0,0,0,1,0,28,28,28,,,,,,,,,,,,,1049.035733093624,,,,,AMP_prac,left,1.2005177714163437,,,,,,,,,,,,,,,,,,,,,6,,,left,0.7989074970828369,,,,,,,,,,,,,,1003,2019_May_08_1256,mf_amp_cond1,3.0.7,59.98199375716062,
abuse,,&&&&&,images/symbols/symbol_19.png,condition_files/AMP_rep2.csv,right,sanctity.vice,,,,,,,,,,,,,,,,,,,,,0,0,0,1,0,29,29,29,,,,,,,,,,,,,1050.2026935404865,,,,,AMP_prac,left,1.2005177714163437,,,,,,,,,,,,,,,,,,,,,6,,,left,0.948954418534413,,,,,,,,,,,,,,1003,2019_May_08_1256,mf_amp_cond1,3.0.7,59.98199375716062,
promote,,&&&&&&&,images/symbols/symbol_6.png,condition_files/AMP_rep2.csv,left,sanctity.virtue,,,,,,,,,,,,,,,,,,,,,0,0,0,1,0,30,30,30,,,,,,,,,,,,,1051.836434381432,,,,,AMP_prac,left,1.2005177714163437,,,,,,,,,,,,,,,,,,,,,6,,,left,1.4006073807831854,,,,,,,,,,,,,,1003,2019_May_08_1256,mf_amp_cond1,3.0.7,59.98199375716062,
jipte,,&&&&&,images/symbols/symbol_31.png,condition_files/AMP_rep2.csv,None,nonword,,,,,,,,,,,,,,,,,,,,,0,0,0,1,0,31,31,31,,,,,,,,,,,,,1052.9367099446245,,,,,AMP_prac,left,1.2005177714163437,,,,,,,,,,,,,,,,,,,,,6,,,left,0.8827814051182941,,,,,,,,,,,,,,1003,2019_May_08_1256,mf_amp_cond1,3.0.7,59.98199375716062,
commitment,,&&&&&&&&&&,images/symbols/symbol_33.png,condition_files/AMP_rep2.csv,left,sanctity.virtue,,,,,,,,,,,,,,,,,,,,,0,0,0,1,0,32,32,32,,,,,,,,,,,,,1054.3370706912829,,,,,AMP_prac,left,1.2005177714163437,,,,,,,,,,,,,,,,,,,,,6,,,left,1.1824807615485042,,,,,,,,,,,,,,1003,2019_May_08_1256,mf_amp_cond1,3.0.7,59.98199375716062,
health,,&&&&&&,images/symbols/symbol_20.png,condition_files/AMP_rep2.csv,left,care.virtue,,,,,,,,,,,,,,,,,,,,,0,0,0,1,0,33,33,33,,,,,,,,,,,,,1055.4540474627865,,,,,AMP_prac,left,1.2005177714163437,,,,,,,,,,,,,,,,,,,,,6,,,left,0.8995111576514319,,,,,,,,,,,,,,1003,2019_May_08_1256,mf_amp_cond1,3.0.7,59.98199375716062,
civilians,,&&&&&&&&&,images/symbols/symbol_70.png,condition_files/AMP_rep2.csv,right,care.vice,,,,,,,,,,,,,,,,,,,,,0,0,0,1,0,34,34,34,,,,,,,,,,,,,1056.6042967588874,,,,,AMP_prac,left,1.2005177714163437,,,,,,,,,,,,,,,,,,,,,6,,,left,0.9171610575867817,,,,,,,,,,,,,,1003,2019_May_08_1256,mf_amp_cond1,3.0.7,59.98199375716062,
forced,,&&&&&&,images/symbols/symbol_68.png,condition_files/AMP_rep2.csv,right,fairness.vice,,,,,,,,,,,,,,,,,,,,,0,0,0,1,0,35,35,35,,,,,,,,,,,,,1057.6712257110048,,,,,AMP_prac,left,1.2005177714163437,,,,,,,,,,,,,,,,,,,,,6,,,left,0.8337993405293673,,,,,,,,,,,,,,1003,2019_May_08_1256,mf_amp_cond1,3.0.7,59.98199375716062,
rejected,,&&&&&&&&,images/symbols/symbol_54.png,condition_files/AMP_rep2.csv,right,authority.vice,,,,,,,,,,,,,,,,,,,,,0,0,0,1,0,36,36,36,,,,,,,,,,,,,1058.754828930716,,,,,AMP_prac,left,1.2005177714163437,,,,,,,,,,,,,,,,,,,,,6,,,right,0.8649701825343072,,,,,,,,,,,,,,1003,2019_May_08_1256,mf_amp_cond1,3.0.7,59.98199375716062,
sexual,,&&&&&&,images/symbols/symbol_78.png,condition_files/AMP_rep2.csv,right,sanctity.vice,,,,,,,,,,,,,,,,,,,,,0,0,0,1,0,37,37,37,,,,,,,,,,,,,1060.121835048194,,,,,AMP_prac,left,1.2005177714163437,,,,,,,,,,,,,,,,,,,,,6,,,left,1.1488634621491656,,,,,,,,,,,,,,1003,2019_May_08_1256,mf_amp_cond1,3.0.7,59.98199375716062,
groups,,&&&&&&,images/symbols/symbol_61.png,condition_files/AMP_rep2.csv,right,loyalty.vice,,,,,,,,,,,,,,,,,,,,,0,0,0,1,0,38,38,38,,,,,,,,,,,,,1061.2387903314084,,,,,AMP_prac,left,1.2005177714163437,,,,,,,,,,,,,,,,,,,,,6,,,left,0.898815835127607,,,,,,,,,,,,,,1003,2019_May_08_1256,mf_amp_cond1,3.0.7,59.98199375716062,
good,,&&&&,images/symbols/symbol_49.png,condition_files/AMP_rep2.csv,left,care.virtue,,,,,,,,,,,,,,,,,,,,,0,0,0,1,0,39,39,39,,,,,,,,,,,,,1062.4390855226666,,,,,AMP_prac,left,1.2005177714163437,,,,,,,,,,,,,,,,,,,,,6,,,left,0.9671703905332834,,,,,,,,,,,,,,1003,2019_May_08_1256,mf_amp_cond1,3.0.7,59.98199375716062,
useful,,&&&&&&,images/symbols/symbol_44.png,condition_files/AMP_rep2.csv,left,authority.virtue,,,,,,,,,,,,,,,,,,,,,0,0,0,1,0,40,40,40,,,,,,,,,,,,,1063.7394468466518,,,,,AMP_prac,left,1.2005177714163437,,,,,,,,,,,,,,,,,,,,,6,,,left,1.081580434460193,,,,,,,,,,,,,,1003,2019_May_08_1256,mf_amp_cond1,3.0.7,59.98199375716062,
unpleasant,,&&&&&&&&&,images/symbols/symbol_3.png,condition_files/AMP_rep2.csv,left,control,,,,,,,,,,,,,,,,,,,,,0,0,0,1,0,41,41,41,,,,,,,,,,,,,1065.1898140397388,,,,,AMP_prac,left,1.2005177714163437,,,,,,,,,,,,,,,,,,,,,6,,,left,1.2323579576332122,,,,,,,,,,,,,,1003,2019_May_08_1256,mf_amp_cond1,3.0.7,59.98199375716062,
perfect,,&&&&&&&,images/symbols/symbol_5.png,condition_files/AMP_rep2.csv,left,sanctity.virtue,,,,,,,,,,,,,,,,,,,,,0,0,0,1,0,42,42,42,,,,,,,,,,,,,1066.406744370819,,,,,AMP_prac,left,1.2005177714163437,,,,,,,,,,,,,,,,,,,,,6,,,left,0.9989560542162508,,,,,,,,,,,,,,1003,2019_May_08_1256,mf_amp_cond1,3.0.7,59.98199375716062,
hate,,&&&&,images/symbols/symbol_8.png,condition_files/AMP_rep2.csv,right,fairness.vice,,,,,,,,,,,,,,,,,,,,,0,0,0,1,0,43,43,43,,,,,,,,,,,,,1067.6904019206995,,,,,AMP_prac,left,1.2005177714163437,,,,,,,,,,,,,,,,,,,,,6,,,left,1.0656034135026857,,,,,,,,,,,,,,1003,2019_May_08_1256,mf_amp_cond1,3.0.7,59.98199375716062,
wreize,,&&&&&&,images/symbols/symbol_26.png,condition_files/AMP_rep2.csv,None,nonword,,,,,,,,,,,,,,,,,,,,,0,0,0,1,0,44,44,44,,,,,,,,,,,,,1068.7239906759933,,,,,AMP_prac,left,1.2005177714163437,,,,,,,,,,,,,,,,,,,,,6,,,left,0.8153877288568765,,,,,,,,,,,,,,1003,2019_May_08_1256,mf_amp_cond1,3.0.7,59.98199375716062,
actively,,&&&&&&&&,images/symbols/symbol_37.png,condition_files/AMP_rep2.csv,left,authority.virtue,,,,,,,,,,,,,,,,,,,,,0,0,0,1,0,45,45,45,,,,,,,,,,,,,1069.8909488776699,,,,,AMP_prac,left,1.2005177714163437,,,,,,,,,,,,,,,,,,,,,6,,,right,0.9338266658596694,,,,,,,,,,,,,,1003,2019_May_08_1256,mf_amp_cond1,3.0.7,59.98199375716062,
increase,,&&&&&&&&,images/symbols/symbol_15.png,condition_files/AMP_rep2.csv,left,care.virtue,,,,,,,,,,,,,,,,,,,,,0,0,0,1,0,46,46,46,,,,,,,,,,,,,1071.0412344153738,,,,,AMP_prac,left,1.2005177714163437,,,,,,,,,,,,,,,,,,,,,6,,,right,0.9315723202889785,,,,,,,,,,,,,,1003,2019_May_08_1256,mf_amp_cond1,3.0.7,59.98199375716062,
hope,,&&&&,images/symbols/symbol_2.png,condition_files/AMP_rep2.csv,left,loyalty.virtue,,,,,,,,,,,,,,,,,,,,,0,0,0,1,0,47,47,47,,,,,,,,,,,,,1072.358237934881,,,,,AMP_prac,left,1.2005177714163437,,,,,,,,,,,,,,,,,,,,,6,,,left,1.0990683706477284,,,,,,,,,,,,,,1003,2019_May_08_1256,mf_amp_cond1,3.0.7,59.98199375716062,
promised,,&&&&&&&&,images/symbols/symbol_56.png,condition_files/AMP_rep2.csv,left,loyalty.virtue,,,,,,,,,,,,,,,,,,,,,0,0,0,1,0,48,48,48,,,,,,,,,,,,,1073.541852444061,,,,,AMP_prac,left,1.2005177714163437,,,,,,,,,,,,,,,,,,,,,6,,,left,0.9504967642715201,,,,,,,,,,,,,,1003,2019_May_08_1256,mf_amp_cond1,3.0.7,59.98199375716062,
energy,,&&&&&&,images/symbols/symbol_48.png,condition_files/AMP_rep2.csv,left,sanctity.virtue,,,,,,,,,,,,,,,,,,,,,0,0,0,1,0,49,49,49,,,,,,,,,,,,,1074.5921298995381,,,,,AMP_prac,left,1.2005177714163437,,,,,,,,,,,,,,,,,,,,,6,,,right,0.8314324219245464,,,,,,,,,,,,,,1003,2019_May_08_1256,mf_amp_cond1,3.0.7,59.98199375716062,
accused,,&&&&&&&,images/symbols/symbol_12.png,condition_files/AMP_rep2.csv,right,fairness.vice,,,,,,,,,,,,,,,,,,,,,0,0,0,1,0,50,50,50,,,,,,,,,,,,,1075.7424006839283,,,,,AMP_prac,left,1.2005177714163437,,,,,,,,,,,,,,,,,,,,,6,,,right,0.917142135091126,,,,,,,,,,,,,,1003,2019_May_08_1256,mf_amp_cond1,3.0.7,59.98199375716062,
attacks,,&&&&&&&,images/symbols/symbol_30.png,condition_files/AMP_rep2.csv,right,care.vice,,,,,,,,,,,,,,,,,,,,,0,0,0,1,0,51,51,51,,,,,,,,,,,,,1076.7593405084917,,,,,AMP_prac,left,1.2005177714163437,,,,,,,,,,,,,,,,,,,,,6,,,left,0.7982785638887435,,,,,,,,,,,,,,1003,2019_May_08_1256,mf_amp_cond1,3.0.7,59.98199375716062,
army,,&&&&,images/symbols/symbol_45.png,condition_files/AMP_rep2.csv,right,loyalty.vice,,,,,,,,,,,,,,,,,,,,,0,0,0,1,0,52,52,52,,,,,,,,,,,,,1077.959632813232,,,,,AMP_prac,left,1.2005177714163437,,,,,,,,,,,,,,,,,,,,,6,,,right,0.9822044927859679,,,,,,,,,,,,,,1003,2019_May_08_1256,mf_amp_cond1,3.0.7,59.98199375716062,
stourz,,&&&&&&,images/symbols/symbol_21.png,condition_files/AMP_rep2.csv,None,nonword,,,,,,,,,,,,,,,,,,,,,0,0,0,1,0,53,53,53,,,,,,,,,,,,,1079.1099157851422,,,,,AMP_prac,left,1.2005177714163437,,,,,,,,,,,,,,,,,,,,,6,,,left,0.9320983021752909,,,,,,,,,,,,,,1003,2019_May_08_1256,mf_amp_cond1,3.0.7,59.98199375716062,
free,,&&&&,images/symbols/symbol_1.png,condition_files/AMP_rep2.csv,left,fairness.virtue,,,,,,,,,,,,,,,,,,,,,0,0,0,1,0,54,54,54,,,,,,,,,,,,,1080.2435392424231,,,,,AMP_prac,left,1.2005177714163437,,,,,,,,,,,,,,,,,,,,,6,,,right,0.9153797749895602,,,,,,,,,,,,,,1003,2019_May_08_1256,mf_amp_cond1,3.0.7,59.98199375716062,
progress,,&&&&&&&&,images/symbols/symbol_28.png,condition_files/AMP_rep2.csv,left,authority.virtue,,,,,,,,,,,,,,,,,,,,,0,0,0,1,0,55,55,55,,,,,,,,,,,,,1081.1937771850498,,,,,AMP_prac,left,1.2005177714163437,,,,,,,,,,,,,,,,,,,,,6,,,left,0.7321414711186662,,,,,,,,,,,,,,1003,2019_May_08_1256,mf_amp_cond1,3.0.7,59.98199375716062,
trust,,&&&&&,images/symbols/symbol_9.png,condition_files/AMP_rep2.csv,left,authority.virtue,,,,,,,,,,,,,,,,,,,,,0,0,0,1,0,56,56,56,,,,,,,,,,,,,1082.2273617709288,,,,,AMP_prac,left,1.2005177714163437,,,,,,,,,,,,,,,,,,,,,6,,,left,0.8155269216513261,,,,,,,,,,,,,,1003,2019_May_08_1256,mf_amp_cond1,3.0.7,59.98199375716062,
officers,,&&&&&&&&,images/symbols/symbol_4.png,condition_files/AMP_rep2.csv,right,authority.vice,,,,,,,,,,,,,,,,,,,,,0,0,0,1,0,57,57,57,,,,,,,,,,,,,1083.3443135261768,,,,,AMP_prac,left,1.2005177714163437,,,,,,,,,,,,,,,,,,,,,6,,,left,0.8987561811227351,,,,,,,,,,,,,,1003,2019_May_08_1256,mf_amp_cond1,3.0.7,59.98199375716062,
powerful,,&&&&&&&&,images/symbols/symbol_81.png,condition_files/AMP_rep2.csv,left,authority.virtue,,,,,,,,,,,,,,,,,,,,,0,0,0,1,0,58,58,58,,,,,,,,,,,,,1084.3445624054875,,,,,AMP_prac,left,1.2005177714163437,,,,,,,,,,,,,,,,,,,,,6,,,left,0.7671250406419858,,,,,,,,,,,,,,1003,2019_May_08_1256,mf_amp_cond1,3.0.7,59.98199375716062,
celebrated,,&&&&&&&&&&,images/symbols/symbol_27.png,condition_files/AMP_rep2.csv,left,authority.virtue,,,,,,,,,,,,,,,,,,,,,0,0,0,1,0,59,59,59,,,,,,,,,,,,,1085.7115746166091,,,,,AMP_prac,left,1.2005177714163437,,,,,,,,,,,,,,,,,,,,,6,,,left,1.1481152208289132,,,,,,,,,,,,,,1003,2019_May_08_1256,mf_amp_cond1,3.0.7,59.98199375716062,
black,,&&&&&,images/symbols/symbol_52.png,condition_files/AMP_rep2.csv,right,loyalty.vice,,,,,,,,,,,,,,,,,,,,,0,0,0,1,0,60,60,60,,,,,,,,,,,,,1086.7785170389106,,,,,AMP_prac,left,1.2005177714163437,,,,,,,,,,,,,,,,,,,,,6,,,left,0.8338118485407904,,,,,,,,,,,,,,1003,2019_May_08_1256,mf_amp_cond1,3.0.7,59.98199375716062,
prison,,&&&&&&,images/symbols/symbol_80.png,condition_files/AMP_rep2.csv,right,fairness.vice,,,,,,,,,,,,,,,,,,,,,0,0,0,1,0,61,61,61,,,,,,,,,,,,,1087.595374309807,,,,,AMP_prac,left,1.2005177714163437,,,,,,,,,,,,,,,,,,,,,6,,,left,0.598539822967723,,,,,,,,,,,,,,1003,2019_May_08_1256,mf_amp_cond1,3.0.7,59.98199375716062,
compassion,,&&&&&&&&&&,images/symbols/symbol_69.png,condition_files/AMP_rep2.csv,left,care.virtue,,,,,,,,,,,,,,,,,,,,,0,0,0,1,0,62,62,62,,,,,,,,,,,,,1088.5622711256146,,,,,AMP_prac,left,1.2005177714163437,,,,,,,,,,,,,,,,,,,,,6,,,right,0.7487188812810928,,,,,,,,,,,,,,1003,2019_May_08_1256,mf_amp_cond1,3.0.7,59.98199375716062,
scourld,,&&&&&&&,images/symbols/symbol_63.png,condition_files/AMP_rep2.csv,None,nonword,,,,,,,,,,,,,,,,,,,,,0,0,0,1,0,63,63,63,,,,,,,,,,,,,1090.0793331447057,,,,,AMP_prac,left,1.2005177714163437,,,,,,,,,,,,,,,,,,,,,6,,,left,1.2990062789758667,,,,,,,,,,,,,,1003,2019_May_08_1256,mf_amp_cond1,3.0.7,59.98199375716062,
injured,,&&&&&&&,images/symbols/symbol_73.png,condition_files/AMP_rep2.csv,right,care.vice,,,,,,,,,,,,,,,,,,,,,0,0,0,1,0,64,64,64,,,,,,,,,,,,,1091.0795762509806,,,,,AMP_prac,left,1.2005177714163437,,,,,,,,,,,,,,,,,,,,,6,,,left,0.7821674816077575,,,,,,,,,,,,,,1003,2019_May_08_1256,mf_amp_cond1,3.0.7,59.98199375716062,
scandal,,&&&&&&&,images/symbols/symbol_60.png,condition_files/AMP_rep2.csv,right,sanctity.vice,,,,,,,,,,,,,,,,,,,,,0,0,0,1,0,65,65,65,,,,,,,,,,,,,1092.2298813525122,,,,,AMP_prac,left,1.2005177714163437,,,,,,,,,,,,,,,,,,,,,6,,,left,0.9322993940440938,,,,,,,,,,,,,,1003,2019_May_08_1256,mf_amp_cond1,3.0.7,59.98199375716062,
phluks,,&&&&&&,images/symbols/symbol_50.png,condition_files/AMP_rep2.csv,None,nonword,,,,,,,,,,,,,,,,,,,,,0,0,0,1,0,66,66,66,,,,,,,,,,,,,1093.2968087010086,,,,,AMP_prac,left,1.2005177714163437,,,,,,,,,,,,,,,,,,,,,6,,,right,0.8338208287023008,,,,,,,,,,,,,,1003,2019_May_08_1256,mf_amp_cond1,3.0.7,59.98199375716062,
riot,,&&&&,images/symbols/symbol_74.png,condition_files/AMP_rep2.csv,right,authority.vice,,,,,,,,,,,,,,,,,,,,,0,0,0,1,0,67,67,67,,,,,,,,,,,,,1094.247026758967,,,,,AMP_prac,left,1.2005177714163437,,,,,,,,,,,,,,,,,,,,,6,,,left,0.7170964644756168,,,,,,,,,,,,,,1003,2019_May_08_1256,mf_amp_cond1,3.0.7,59.98199375716062,
police,,&&&&&&,images/symbols/symbol_46.png,condition_files/AMP_rep2.csv,right,authority.vice,,,,,,,,,,,,,,,,,,,,,0,0,0,1,0,68,68,68,,,,,,,,,,,,,1095.4306682086317,,,,,AMP_prac,left,1.2005177714163437,,,,,,,,,,,,,,,,,,,,,6,,,left,0.964894235949032,,,,,,,,,,,,,,1003,2019_May_08_1256,mf_amp_cond1,3.0.7,59.98199375716062,
care,,&&&&,images/symbols/symbol_47.png,condition_files/AMP_rep2.csv,left,care.virtue,,,,,,,,,,,,,,,,,,,,,0,0,0,1,0,69,69,69,,,,,,,,,,,,,1096.4811483595986,,,,,AMP_prac,left,1.2005177714163437,,,,,,,,,,,,,,,,,,,,,6,,,left,0.8324048470240086,,,,,,,,,,,,,,1003,2019_May_08_1256,mf_amp_cond1,3.0.7,59.98199375716062,
suicide,,&&&&&&&,images/symbols/symbol_72.png,condition_files/AMP_rep2.csv,right,care.vice,,,,,,,,,,,,,,,,,,,,,0,0,0,1,0,70,70,70,,,,,,,,,,,,,1097.664558890392,,,,,AMP_prac,left,1.2005177714163437,,,,,,,,,,,,,,,,,,,,,6,,,right,0.9504496182780713,,,,,,,,,,,,,,1003,2019_May_08_1256,mf_amp_cond1,3.0.7,59.98199375716062,
fraud,,&&&&&,images/symbols/symbol_58.png,condition_files/AMP_rep2.csv,right,fairness.vice,,,,,,,,,,,,,,,,,,,,,0,0,0,1,0,71,71,71,,,,,,,,,,,,,1098.5314341537887,,,,,AMP_prac,left,1.2005177714163437,,,,,,,,,,,,,,,,,,,,,6,,,left,0.6483134261798114,,,,,,,,,,,,,,1003,2019_May_08_1256,mf_amp_cond1,3.0.7,59.98199375716062,
betrayal,,&&&&&&&&,images/symbols/symbol_23.png,condition_files/AMP_rep2.csv,right,loyalty.vice,,,,,,,,,,,,,,,,,,,,,0,0,0,1,0,72,72,72,,,,,,,,,,,,,1099.648386229761,,,,,AMP_prac,left,1.2005177714163437,,,,,,,,,,,,,,,,,,,,,6,,,left,0.8987077523488551,,,,,,,,,,,,,,1003,2019_May_08_1256,mf_amp_cond1,3.0.7,59.98199375716062,
naidd,,&&&&&,images/symbols/symbol_53.png,condition_files/AMP_rep2.csv,None,nonword,,,,,,,,,,,,,,,,,,,,,0,0,0,1,0,73,73,73,,,,,,,,,,,,,1100.732026011683,,,,,AMP_prac,left,1.2005177714163437,,,,,,,,,,,,,,,,,,,,,6,,,left,0.8656828239327297,,,,,,,,,,,,,,1003,2019_May_08_1256,mf_amp_cond1,3.0.7,59.98199375716062,
respect,,&&&&&&&,images/symbols/symbol_7.png,condition_files/AMP_rep2.csv,left,sanctity.virtue,,,,,,,,,,,,,,,,,,,,,0,0,0,1,0,74,74,74,,,,,,,,,,,,,1101.6822219399037,,,,,AMP_prac,left,1.2005177714163437,,,,,,,,,,,,,,,,,,,,,6,,,left,0.7323268477339298,,,,,,,,,,,,,,1003,2019_May_08_1256,mf_amp_cond1,3.0.7,59.98199375716062,
strong,,&&&&&&,images/symbols/symbol_76.png,condition_files/AMP_rep2.csv,left,loyalty.virtue,,,,,,,,,,,,,,,,,,,,,0,0,0,1,0,75,75,75,,,,,,,,,,,,,1102.6824704984901,,,,,AMP_prac,left,1.2005177714163437,,,,,,,,,,,,,,,,,,,,,6,,,left,0.7826572221238166,,,,,,,,,,,,,,1003,2019_May_08_1256,mf_amp_cond1,3.0.7,59.98199375716062,
wraize,,&&&&&&,images/symbols/symbol_55.png,condition_files/AMP_rep2.csv,None,nonword,,,,,,,,,,,,,,,,,,,,,0,0,0,1,0,76,76,76,,,,,,,,,,,,,1103.7660881506745,,,,,AMP_prac,left,1.2005177714163437,,,,,,,,,,,,,,,,,,,,,6,,,right,0.8654336238978431,,,,,,,,,,,,,,1003,2019_May_08_1256,mf_amp_cond1,3.0.7,59.98199375716062,
great,,&&&&&,images/symbols/symbol_77.png,condition_files/AMP_rep2.csv,left,loyalty.virtue,,,,,,,,,,,,,,,,,,,,,0,0,0,1,0,77,77,77,,,,,,,,,,,,,1104.749666610849,,,,,AMP_prac,left,1.2005177714163437,,,,,,,,,,,,,,,,,,,,,6,,,left,0.7655268895905465,,,,,,,,,,,,,,1003,2019_May_08_1256,mf_amp_cond1,3.0.7,59.98199375716062,
loyalty,,&&&&&&&,images/symbols/symbol_67.png,condition_files/AMP_rep2.csv,left,loyalty.virtue,,,,,,,,,,,,,,,,,,,,,0,0,0,1,0,78,78,78,,,,,,,,,,,,,1106.083323551342,,,,,AMP_prac,left,1.2005177714163437,,,,,,,,,,,,,,,,,,,,,6,,,right,1.1154337843181565,,,,,,,,,,,,,,1003,2019_May_08_1256,mf_amp_cond1,3.0.7,59.98199375716062,
intelligence,,&&&&&&&&&&&&,images/symbols/symbol_38.png,condition_files/AMP_rep2.csv,left,loyalty.virtue,,,,,,,,,,,,,,,,,,,,,0,0,0,1,0,79,79,79,,,,,,,,,,,,,1107.0502312716562,,,,,AMP_prac,left,1.2005177714163437,,,,,,,,,,,,,,,,,,,,,6,,,left,0.7488510181428865,,,,,,,,,,,,,,1003,2019_May_08_1256,mf_amp_cond1,3.0.7,59.98199375716062,
plonx,,&&&&&,images/symbols/symbol_71.png,condition_files/AMP_rep2.csv,None,nonword,,,,,,,,,,,,,,,,,,,,,0,0,0,1,0,80,80,80,,,,,,,,,,,,,1108.0171370676253,,,,,AMP_prac,left,1.2005177714163437,,,,,,,,,,,,,,,,,,,,,6,,,left,0.7487730830907822,,,,,,,,,,,,,,1003,2019_May_08_1256,mf_amp_cond1,3.0.7,59.98199375716062,
died,,&&&&,images/symbols/symbol_65.png,condition_files/AMP_rep2.csv,right,care.vice,,,,,,,,,,,,,,,,,,,,,0,0,0,1,0,81,81,81,,,,,,,,,,,,,1109.2174370697467,,,,,AMP_prac,left,1.2005177714163437,,,,,,,,,,,,,,,,,,,,,6,,,left,0.9820903161307797,,,,,,,,,,,,,,1003,2019_May_08_1256,mf_amp_cond1,3.0.7,59.98199375716062,
,,,,condition_files/AMP_rep2.csv,,,,,,,,,,,,,,,,,,,,,,,0,0,0,1,,,,,,,,,,,,,,,,,,,,,,,,,,,,,,,,,,,,,,,,,,,,,,,,,,right,4.034586196532473,,,,,,,,,,,,1003,2019_May_08_1256,mf_amp_cond1,3.0.7,59.98199375716062,
prosecution,,&&&&&&&&&&&,images/symbols/symbol_39.png,condition_files/AMP_rep4.csv,right,authority.vice,,,,,,,,,,,,,,,,,,,,,0,1,1,3,0,0,0,0,,,,,,,,,,,,,1114.9190128986957,,,,,AMP_prac,left,1.2005177714163437,,,,,,,,,,,,,,,,,,,,,6,,,left,1.4006186060141772,,,,,,,,,,,,,,1003,2019_May_08_1256,mf_amp_cond1,3.0.7,59.98199375716062,
agreement,,&&&&&&&&&,images/symbols/symbol_14.png,condition_files/AMP_rep4.csv,left,fairness.virtue,,,,,,,,,,,,,,,,,,,,,0,1,1,3,0,1,1,1,,,,,,,,,,,,,1116.1358534280444,,,,,AMP_prac,left,1.2005177714163437,,,,,,,,,,,,,,,,,,,,,6,,,right,0.9983309695962816,,,,,,,,,,,,,,1003,2019_May_08_1256,mf_amp_cond1,3.0.7,59.98199375716062,
credit,,&&&&&&,images/symbols/symbol_22.png,condition_files/AMP_rep4.csv,left,fairness.virtue,,,,,,,,,,,,,,,,,,,,,0,1,1,3,0,2,2,2,,,,,,,,,,,,,1117.1027531303698,,,,,AMP_prac,left,1.2005177714163437,,,,,,,,,,,,,,,,,,,,,6,,,right,0.748897522687912,,,,,,,,,,,,,,1003,2019_May_08_1256,mf_amp_cond1,3.0.7,59.98199375716062,
sharz,,&&&&&,images/symbols/symbol_57.png,condition_files/AMP_rep4.csv,None,nonword,,,,,,,,,,,,,,,,,,,,,0,1,1,3,0,3,3,3,,,,,,,,,,,,,1118.036334124161,,,,,AMP_prac,left,1.2005177714163437,,,,,,,,,,,,,,,,,,,,,6,,,left,0.7152648287592456,,,,,,,,,,,,,,1003,2019_May_08_1256,mf_amp_cond1,3.0.7,59.98199375716062,
ban,,&&&,images/symbols/symbol_62.png,condition_files/AMP_rep4.csv,right,loyalty.vice,,,,,,,,,,,,,,,,,,,,,0,1,1,3,0,4,4,4,,,,,,,,,,,,,1119.0365701746196,,,,,AMP_prac,left,1.2005177714163437,,,,,,,,,,,,,,,,,,,,,6,,,left,0.767123116296716,,,,,,,,,,,,,,1003,2019_May_08_1256,mf_amp_cond1,3.0.7,59.98199375716062,
peace,,&&&&&,images/symbols/symbol_18.png,condition_files/AMP_rep4.csv,left,care.virtue,,,,,,,,,,,,,,,,,,,,,0,1,1,3,0,5,5,5,,,,,,,,,,,,,1119.9367840311024,,,,,AMP_prac,left,1.2005177714163437,,,,,,,,,,,,,,,,,,,,,6,,,left,0.6670986773679033,,,,,,,,,,,,,,1003,2019_May_08_1256,mf_amp_cond1,3.0.7,59.98199375716062,
penalty,,&&&&&&&,images/symbols/symbol_13.png,condition_files/AMP_rep4.csv,right,authority.vice,,,,,,,,,,,,,,,,,,,,,0,1,1,3,0,6,6,6,,,,,,,,,,,,,1121.103747685207,,,,,AMP_prac,left,1.2005177714163437,,,,,,,,,,,,,,,,,,,,,6,,,right,0.9483934780582786,,,,,,,,,,,,,,1003,2019_May_08_1256,mf_amp_cond1,3.0.7,59.98199375716062,
war,,&&&,images/symbols/symbol_59.png,condition_files/AMP_rep4.csv,right,sanctity.vice,,,,,,,,,,,,,,,,,,,,,0,1,1,3,0,7,7,7,,,,,,,,,,,,,1121.9706553412834,,,,,AMP_prac,left,1.2005177714163437,,,,,,,,,,,,,,,,,,,,,6,,,left,0.6487422297941521,,,,,,,,,,,,,,1003,2019_May_08_1256,mf_amp_cond1,3.0.7,59.98199375716062,
crime,,&&&&&,images/symbols/symbol_36.png,condition_files/AMP_rep4.csv,right,fairness.vice,,,,,,,,,,,,,,,,,,,,,0,1,1,3,0,8,8,8,,,,,,,,,,,,,1123.0042194011621,,,,,AMP_prac,left,1.2005177714163437,,,,,,,,,,,,,,,,,,,,,6,,,left,0.8156151197617874,,,,,,,,,,,,,,1003,2019_May_08_1256,mf_amp_cond1,3.0.7,59.98199375716062,
faith,,&&&&&,images/symbols/symbol_35.png,condition_files/AMP_rep4.csv,left,sanctity.virtue,,,,,,,,,,,,,,,,,,,,,0,1,1,3,0,9,9,9,,,,,,,,,,,,,1123.854434508481,,,,,AMP_prac,left,1.2005177714163437,,,,,,,,,,,,,,,,,,,,,6,,,left,0.6320785457501188,,,,,,,,,,,,,,1003,2019_May_08_1256,mf_amp_cond1,3.0.7,59.98199375716062,
corruption,,&&&&&&&&&&,images/symbols/symbol_75.png,condition_files/AMP_rep4.csv,right,sanctity.vice,,,,,,,,,,,,,,,,,,,,,0,1,1,3,0,10,10,10,,,,,,,,,,,,,1124.7046473707305,,,,,AMP_prac,left,1.2005177714163437,,,,,,,,,,,,,,,,,,,,,6,,,left,0.6320846395101398,,,,,,,,,,,,,,1003,2019_May_08_1256,mf_amp_cond1,3.0.7,59.98199375716062,
shot,,&&&&,images/symbols/symbol_79.png,condition_files/AMP_rep4.csv,right,care.vice,,,,,,,,,,,,,,,,,,,,,0,1,1,3,0,11,11,11,,,,,,,,,,,,,1125.9382901354693,,,,,AMP_prac,left,1.2005177714163437,,,,,,,,,,,,,,,,,,,,,6,,,left,1.0154529634164646,,,,,,,,,,,,,,1003,2019_May_08_1256,mf_amp_cond1,3.0.7,59.98199375716062,
love,,&&&&,images/symbols/symbol_40.png,condition_files/AMP_rep4.csv,left,loyalty.virtue,,,,,,,,,,,,,,,,,,,,,0,1,1,3,0,12,12,12,,,,,,,,,,,,,1127.9554759525927,,,,,AMP_prac,left,1.2005177714163437,,,,,,,,,,,,,,,,,,,,,6,,,left,1.7990345024736598,,,,,,,,,,,,,,1003,2019_May_08_1256,mf_amp_cond1,3.0.7,59.98199375716062,
clean,,&&&&&,images/symbols/symbol_29.png,condition_files/AMP_rep4.csv,left,sanctity.virtue,,,,,,,,,,,,,,,,,,,,,0,1,1,3,0,13,13,13,,,,,,,,,,,,,1129.022397207329,,,,,AMP_prac,left,1.2005177714163437,,,,,,,,,,,,,,,,,,,,,6,,,left,0.8487850138917565,,,,,,,,,,,,,,1003,2019_May_08_1256,mf_amp_cond1,3.0.7,59.98199375716062,
illegal,,&&&&&&&,images/symbols/symbol_41.png,condition_files/AMP_rep4.csv,right,fairness.vice,,,,,,,,,,,,,,,,,,,,,0,1,1,3,0,14,14,14,,,,,,,,,,,,,1129.8059222996235,,,,,AMP_prac,left,1.2005177714163437,,,,,,,,,,,,,,,,,,,,,6,,,left,0.5657881485531107,,,,,,,,,,,,,,1003,2019_May_08_1256,mf_amp_cond1,3.0.7,59.98199375716062,
dighnd,,&&&&&&,images/symbols/symbol_17.png,condition_files/AMP_rep4.csv,None,nonword,,,,,,,,,,,,,,,,,,,,,0,1,1,3,0,15,15,15,,,,,,,,,,,,,1130.7395125943003,,,,,AMP_prac,left,1.2005177714163437,,,,,,,,,,,,,,,,,,,,,6,,,left,0.7155159530229867,,,,,,,,,,,,,,1003,2019_May_08_1256,mf_amp_cond1,3.0.7,59.98199375716062,
failure,,&&&&&&&,images/symbols/symbol_32.png,condition_files/AMP_rep4.csv,right,loyalty.vice,,,,,,,,,,,,,,,,,,,,,0,1,1,3,0,16,16,16,,,,,,,,,,,,,1131.6897640072275,,,,,AMP_prac,left,1.2005177714163437,,,,,,,,,,,,,,,,,,,,,6,,,left,0.7322222928050905,,,,,,,,,,,,,,1003,2019_May_08_1256,mf_amp_cond1,3.0.7,59.98199375716062,
integrity,,&&&&&&&&&,images/symbols/symbol_64.png,condition_files/AMP_rep4.csv,left,fairness.virtue,,,,,,,,,,,,,,,,,,,,,0,1,1,3,0,17,17,17,,,,,,,,,,,,,1132.6566348447232,,,,,AMP_prac,left,1.2005177714163437,,,,,,,,,,,,,,,,,,,,,6,,,right,0.7337758637731895,,,,,,,,,,,,,,1003,2019_May_08_1256,mf_amp_cond1,3.0.7,59.98199375716062,
ability,,&&&&&&&,images/symbols/symbol_66.png,condition_files/AMP_rep4.csv,left,authority.virtue,,,,,,,,,,,,,,,,,,,,,0,1,1,3,0,18,18,18,,,,,,,,,,,,,1133.7735679981997,,,,,AMP_prac,left,1.2005177714163437,,,,,,,,,,,,,,,,,,,,,6,,,left,0.8985368082066998,,,,,,,,,,,,,,1003,2019_May_08_1256,mf_amp_cond1,3.0.7,59.98199375716062,
blamed,,&&&&&&,images/symbols/symbol_10.png,condition_files/AMP_rep4.csv,right,loyalty.vice,,,,,,,,,,,,,,,,,,,,,0,1,1,3,0,19,19,19,,,,,,,,,,,,,1134.4737749913475,,,,,AMP_prac,left,1.2005177714163437,,,,,,,,,,,,,,,,,,,,,6,,,left,0.4822862766450271,,,,,,,,,,,,,,1003,2019_May_08_1256,mf_amp_cond1,3.0.7,59.98199375716062,
safe,,&&&&,images/symbols/symbol_11.png,condition_files/AMP_rep4.csv,left,care.virtue,,,,,,,,,,,,,,,,,,,,,0,1,1,3,0,20,20,20,,,,,,,,,,,,,1135.2239335876657,,,,,AMP_prac,left,1.2005177714163437,,,,,,,,,,,,,,,,,,,,,6,,,left,0.5321862437995151,,,,,,,,,,,,,,1003,2019_May_08_1256,mf_amp_cond1,3.0.7,59.98199375716062,
win,,&&&,images/symbols/symbol_24.png,condition_files/AMP_rep4.csv,left,fairness.virtue,,,,,,,,,,,,,,,,,,,,,0,1,1,3,0,21,21,21,,,,,,,,,,,,,1136.0406731541734,,,,,AMP_prac,left,1.2005177714163437,,,,,,,,,,,,,,,,,,,,,6,,,left,0.5836064270697534,,,,,,,,,,,,,,1003,2019_May_08_1256,mf_amp_cond1,3.0.7,59.98199375716062,
fighters,,&&&&&&&&,images/symbols/symbol_43.png,condition_files/AMP_rep4.csv,right,authority.vice,,,,,,,,,,,,,,,,,,,,,0,1,1,3,0,22,22,22,,,,,,,,,,,,,1136.874355752254,,,,,AMP_prac,left,1.2005177714163437,,,,,,,,,,,,,,,,,,,,,6,,,left,0.6149045953061432,,,,,,,,,,,,,,1003,2019_May_08_1256,mf_amp_cond1,3.0.7,59.98199375716062,
pleasant,,&&&&&&&,images/symbols/symbol_82.png,condition_files/AMP_rep4.csv,right,control,,,,,,,,,,,,,,,,,,,,,0,1,1,3,0,23,23,23,,,,,,,,,,,,,1137.6912280971883,,,,,AMP_prac,left,1.2005177714163437,,,,,,,,,,,,,,,,,,,,,6,,,left,0.5991947345901281,,,,,,,,,,,,,,1003,2019_May_08_1256,mf_amp_cond1,3.0.7,59.98199375716062,
drug,,&&&&,images/symbols/symbol_16.png,condition_files/AMP_rep4.csv,right,sanctity.vice,,,,,,,,,,,,,,,,,,,,,0,1,1,3,0,24,24,24,,,,,,,,,,,,,1138.5914525374537,,,,,AMP_prac,left,1.2005177714163437,,,,,,,,,,,,,,,,,,,,,6,,,left,0.6824387471424416,,,,,,,,,,,,,,1003,2019_May_08_1256,mf_amp_cond1,3.0.7,59.98199375716062,
victim,,&&&&&&,images/symbols/symbol_25.png,condition_files/AMP_rep4.csv,right,care.vice,,,,,,,,,,,,,,,,,,,,,0,1,1,3,0,25,25,25,,,,,,,,,,,,,1139.7584001554642,,,,,AMP_prac,left,1.2005177714163437,,,,,,,,,,,,,,,,,,,,,6,,,left,0.948660638416186,,,,,,,,,,,,,,1003,2019_May_08_1256,mf_amp_cond1,3.0.7,59.98199375716062,
harassment,,&&&&&&&&&&,images/symbols/symbol_51.png,condition_files/AMP_rep4.csv,right,sanctity.vice,,,,,,,,,,,,,,,,,,,,,0,1,1,3,0,26,26,26,,,,,,,,,,,,,1140.6084850501502,,,,,AMP_prac,left,1.2005177714163437,,,,,,,,,,,,,,,,,,,,,6,,,left,0.6169485480058938,,,,,,,,,,,,,,1003,2019_May_08_1256,mf_amp_cond1,3.0.7,59.98199375716062,
ensure,,&&&&&&,images/symbols/symbol_34.png,condition_files/AMP_rep4.csv,left,fairness.virtue,,,,,,,,,,,,,,,,,,,,,0,1,1,3,0,27,27,27,,,,,,,,,,,,,1141.8089171892498,,,,,AMP_prac,left,1.2005177714163437,,,,,,,,,,,,,,,,,,,,,6,,,left,0.9816640784265473,,,,,,,,,,,,,,1003,2019_May_08_1256,mf_amp_cond1,3.0.7,59.98199375716062,
opportunity,,&&&&&&&&&&&,images/symbols/symbol_42.png,condition_files/AMP_rep4.csv,left,fairness.virtue,,,,,,,,,,,,,,,,,,,,,0,1,1,3,0,28,28,28,,,,,,,,,,,,,1142.5924496580847,,,,,AMP_prac,left,1.2005177714163437,,,,,,,,,,,,,,,,,,,,,6,,,left,0.5653641558019444,,,,,,,,,,,,,,1003,2019_May_08_1256,mf_amp_cond1,3.0.7,59.98199375716062,
abuse,,&&&&&,images/symbols/symbol_19.png,condition_files/AMP_rep4.csv,right,sanctity.vice,,,,,,,,,,,,,,,,,,,,,0,1,1,3,0,29,29,29,,,,,,,,,,,,,1143.4259962706128,,,,,AMP_prac,left,1.2005177714163437,,,,,,,,,,,,,,,,,,,,,6,,,left,0.6155290383612737,,,,,,,,,,,,,,1003,2019_May_08_1256,mf_amp_cond1,3.0.7,59.98199375716062,
promote,,&&&&&&&,images/symbols/symbol_6.png,condition_files/AMP_rep4.csv,left,sanctity.virtue,,,,,,,,,,,,,,,,,,,,,0,1,1,3,0,30,30,30,,,,,,,,,,,,,1144.6929811562877,,,,,AMP_prac,left,1.2005177714163437,,,,,,,,,,,,,,,,,,,,,6,,,right,1.0338642543647438,,,,,,,,,,,,,,1003,2019_May_08_1256,mf_amp_cond1,3.0.7,59.98199375716062,
jipte,,&&&&&,images/symbols/symbol_31.png,condition_files/AMP_rep4.csv,None,nonword,,,,,,,,,,,,,,,,,,,,,0,1,1,3,0,31,31,31,,,,,,,,,,,,,1145.8599230013788,,,,,AMP_prac,left,1.2005177714163437,,,,,,,,,,,,,,,,,,,,,6,,,left,0.9492174094775692,,,,,,,,,,,,,,1003,2019_May_08_1256,mf_amp_cond1,3.0.7,59.98199375716062,
commitment,,&&&&&&&&&&,images/symbols/symbol_33.png,condition_files/AMP_rep4.csv,left,sanctity.virtue,,,,,,,,,,,,,,,,,,,,,0,1,1,3,0,32,32,32,,,,,,,,,,,,,1147.1102413166082,,,,,AMP_prac,left,1.2005177714163437,,,,,,,,,,,,,,,,,,,,,6,,,left,1.0323741860920563,,,,,,,,,,,,,,1003,2019_May_08_1256,mf_amp_cond1,3.0.7,59.98199375716062,
health,,&&&&&&,images/symbols/symbol_20.png,condition_files/AMP_rep4.csv,left,care.virtue,,,,,,,,,,,,,,,,,,,,,0,1,1,3,0,33,33,33,,,,,,,,,,,,,1148.110487309401,,,,,AMP_prac,left,1.2005177714163437,,,,,,,,,,,,,,,,,,,,,6,,,left,0.7824654311407357,,,,,,,,,,,,,,1003,2019_May_08_1256,mf_amp_cond1,3.0.7,59.98199375716062,
civilians,,&&&&&&&&&,images/symbols/symbol_70.png,condition_files/AMP_rep4.csv,right,care.vice,,,,,,,,,,,,,,,,,,,,,0,1,1,3,0,34,34,34,,,,,,,,,,,,,1149.0440545121673,,,,,AMP_prac,left,1.2005177714163437,,,,,,,,,,,,,,,,,,,,,6,,,left,0.7004327805479988,,,,,,,,,,,,,,1003,2019_May_08_1256,mf_amp_cond1,3.0.7,59.98199375716062,
forced,,&&&&&&,images/symbols/symbol_68.png,condition_files/AMP_rep4.csv,right,fairness.vice,,,,,,,,,,,,,,,,,,,,,0,1,1,3,0,35,35,35,,,,,,,,,,,,,1149.8609345543664,,,,,AMP_prac,left,1.2005177714163437,,,,,,,,,,,,,,,,,,,,,6,,,left,0.5837452990235761,,,,,,,,,,,,,,1003,2019_May_08_1256,mf_amp_cond1,3.0.7,59.98199375716062,
rejected,,&&&&&&&&,images/symbols/symbol_54.png,condition_files/AMP_rep4.csv,right,authority.vice,,,,,,,,,,,,,,,,,,,,,0,1,1,3,0,36,36,36,,,,,,,,,,,,,1150.8445043549873,,,,,AMP_prac,left,1.2005177714163437,,,,,,,,,,,,,,,,,,,,,6,,,right,0.7647873077075928,,,,,,,,,,,,,,1003,2019_May_08_1256,mf_amp_cond1,3.0.7,59.98199375716062,
sexual,,&&&&&&,images/symbols/symbol_78.png,condition_files/AMP_rep4.csv,right,sanctity.vice,,,,,,,,,,,,,,,,,,,,,0,1,1,3,0,37,37,37,,,,,,,,,,,,,1151.7614114017924,,,,,AMP_prac,left,1.2005177714163437,,,,,,,,,,,,,,,,,,,,,6,,,left,0.6986492527648807,,,,,,,,,,,,,,1003,2019_May_08_1256,mf_amp_cond1,3.0.7,59.98199375716062,
groups,,&&&&&&,images/symbols/symbol_61.png,condition_files/AMP_rep4.csv,right,loyalty.vice,,,,,,,,,,,,,,,,,,,,,0,1,1,3,0,38,38,38,,,,,,,,,,,,,1152.628286665189,,,,,AMP_prac,left,1.2005177714163437,,,,,,,,,,,,,,,,,,,,,6,,,left,0.6488900819094852,,,,,,,,,,,,,,1003,2019_May_08_1256,mf_amp_cond1,3.0.7,59.98199375716062,
good,,&&&&,images/symbols/symbol_49.png,condition_files/AMP_rep4.csv,left,care.virtue,,,,,,,,,,,,,,,,,,,,,0,1,1,3,0,39,39,39,,,,,,,,,,,,,1153.4618329571094,,,,,AMP_prac,left,1.2005177714163437,,,,,,,,,,,,,,,,,,,,,6,,,left,0.6004224532516673,,,,,,,,,,,,,,1003,2019_May_08_1256,mf_amp_cond1,3.0.7,59.98199375716062,
useful,,&&&&&&,images/symbols/symbol_44.png,condition_files/AMP_rep4.csv,left,authority.virtue,,,,,,,,,,,,,,,,,,,,,0,1,1,3,0,40,40,40,,,,,,,,,,,,,1154.46207927051,,,,,AMP_prac,left,1.2005177714163437,,,,,,,,,,,,,,,,,,,,,6,,,right,0.7815026276512071,,,,,,,,,,,,,,1003,2019_May_08_1256,mf_amp_cond1,3.0.7,59.98199375716062,
unpleasant,,&&&&&&&&&,images/symbols/symbol_3.png,condition_files/AMP_rep4.csv,left,control,,,,,,,,,,,,,,,,,,,,,0,1,1,3,0,41,41,41,,,,,,,,,,,,,1155.6623940258287,,,,,AMP_prac,left,1.2005177714163437,,,,,,,,,,,,,,,,,,,,,6,,,left,0.9821765901288018,,,,,,,,,,,,,,1003,2019_May_08_1256,mf_amp_cond1,3.0.7,59.98199375716062,
perfect,,&&&&&&&,images/symbols/symbol_5.png,condition_files/AMP_rep4.csv,left,sanctity.virtue,,,,,,,,,,,,,,,,,,,,,0,1,1,3,0,42,42,42,,,,,,,,,,,,,1156.395905936486,,,,,AMP_prac,left,1.2005177714163437,,,,,,,,,,,,,,,,,,,,,6,,,left,0.5154686787864193,,,,,,,,,,,,,,1003,2019_May_08_1256,mf_amp_cond1,3.0.7,59.98199375716062,
hate,,&&&&,images/symbols/symbol_8.png,condition_files/AMP_rep4.csv,right,fairness.vice,,,,,,,,,,,,,,,,,,,,,0,1,1,3,0,43,43,43,,,,,,,,,,,,,1157.1627461771714,,,,,AMP_prac,left,1.2005177714163437,,,,,,,,,,,,,,,,,,,,,6,,,left,0.5489317114697769,,,,,,,,,,,,,,1003,2019_May_08_1256,mf_amp_cond1,3.0.7,59.98199375716062,
wreize,,&&&&&&,images/symbols/symbol_26.png,condition_files/AMP_rep4.csv,None,nonword,,,,,,,,,,,,,,,,,,,,,0,1,1,3,0,44,44,44,,,,,,,,,,,,,1157.912936204113,,,,,AMP_prac,left,1.2005177714163437,,,,,,,,,,,,,,,,,,,,,6,,,left,0.5319572491571307,,,,,,,,,,,,,,1003,2019_May_08_1256,mf_amp_cond1,3.0.7,59.98199375716062,
actively,,&&&&&&&&,images/symbols/symbol_37.png,condition_files/AMP_rep4.csv,left,authority.virtue,,,,,,,,,,,,,,,,,,,,,0,1,1,3,0,45,45,45,,,,,,,,,,,,,1158.97987092915,,,,,AMP_prac,left,1.2005177714163437,,,,,,,,,,,,,,,,,,,,,6,,,right,0.8338044720003381,,,,,,,,,,,,,,1003,2019_May_08_1256,mf_amp_cond1,3.0.7,59.98199375716062,
increase,,&&&&&&&&,images/symbols/symbol_15.png,condition_files/AMP_rep4.csv,left,care.virtue,,,,,,,,,,,,,,,,,,,,,0,1,1,3,0,46,46,46,,,,,,,,,,,,,1159.8967670714483,,,,,AMP_prac,left,1.2005177714163437,,,,,,,,,,,,,,,,,,,,,6,,,right,0.6982082619797438,,,,,,,,,,,,,,1003,2019_May_08_1256,mf_amp_cond1,3.0.7,59.98199375716062,
hope,,&&&&,images/symbols/symbol_2.png,condition_files/AMP_rep4.csv,left,loyalty.virtue,,,,,,,,,,,,,,,,,,,,,0,1,1,3,0,47,47,47,,,,,,,,,,,,,1160.8970146677457,,,,,AMP_prac,left,1.2005177714163437,,,,,,,,,,,,,,,,,,,,,6,,,right,0.7823393878061324,,,,,,,,,,,,,,1003,2019_May_08_1256,mf_amp_cond1,3.0.7,59.98199375716062,
promised,,&&&&&&&&,images/symbols/symbol_56.png,condition_files/AMP_rep4.csv,left,loyalty.virtue,,,,,,,,,,,,,,,,,,,,,0,1,1,3,0,48,48,48,,,,,,,,,,,,,1161.9139390976634,,,,,AMP_prac,left,1.2005177714163437,,,,,,,,,,,,,,,,,,,,,6,,,left,0.7837880831211805,,,,,,,,,,,,,,1003,2019_May_08_1256,mf_amp_cond1,3.0.7,59.98199375716062,
energy,,&&&&&&,images/symbols/symbol_48.png,condition_files/AMP_rep4.csv,left,sanctity.virtue,,,,,,,,,,,,,,,,,,,,,0,1,1,3,0,49,49,49,,,,,,,,,,,,,1162.8475435040891,,,,,AMP_prac,left,1.2005177714163437,,,,,,,,,,,,,,,,,,,,,6,,,left,0.714841156732291,,,,,,,,,,,,,,1003,2019_May_08_1256,mf_amp_cond1,3.0.7,59.98199375716062,
accused,,&&&&&&&,images/symbols/symbol_12.png,condition_files/AMP_rep4.csv,right,fairness.vice,,,,,,,,,,,,,,,,,,,,,0,1,1,3,0,50,50,50,,,,,,,,,,,,,1163.84775133105,,,,,AMP_prac,left,1.2005177714163437,,,,,,,,,,,,,,,,,,,,,6,,,right,0.7821989122312516,,,,,,,,,,,,,,1003,2019_May_08_1256,mf_amp_cond1,3.0.7,59.98199375716062,
attacks,,&&&&&&&,images/symbols/symbol_30.png,condition_files/AMP_rep4.csv,right,care.vice,,,,,,,,,,,,,,,,,,,,,0,1,1,3,0,51,51,51,,,,,,,,,,,,,1164.6979670799337,,,,,AMP_prac,left,1.2005177714163437,,,,,,,,,,,,,,,,,,,,,6,,,left,0.6323245385428891,,,,,,,,,,,,,,1003,2019_May_08_1256,mf_amp_cond1,3.0.7,59.98199375716062,
army,,&&&&,images/symbols/symbol_45.png,condition_files/AMP_rep4.csv,right,loyalty.vice,,,,,,,,,,,,,,,,,,,,,0,1,1,3,0,52,52,52,,,,,,,,,,,,,1165.5982014625333,,,,,AMP_prac,left,1.2005177714163437,,,,,,,,,,,,,,,,,,,,,6,,,left,0.6820458644069731,,,,,,,,,,,,,,1003,2019_May_08_1256,mf_amp_cond1,3.0.7,59.98199375716062,
stourz,,&&&&&&,images/symbols/symbol_21.png,condition_files/AMP_rep4.csv,None,nonword,,,,,,,,,,,,,,,,,,,,,0,1,1,3,0,53,53,53,,,,,,,,,,,,,1166.4484053447377,,,,,AMP_prac,left,1.2005177714163437,,,,,,,,,,,,,,,,,,,,,6,,,left,0.6322738646995276,,,,,,,,,,,,,,1003,2019_May_08_1256,mf_amp_cond1,3.0.7,59.98199375716062,
free,,&&&&,images/symbols/symbol_1.png,condition_files/AMP_rep4.csv,left,fairness.virtue,,,,,,,,,,,,,,,,,,,,,0,1,1,3,0,54,54,54,,,,,,,,,,,,,1167.4819912135135,,,,,AMP_prac,left,1.2005177714163437,,,,,,,,,,,,,,,,,,,,,6,,,right,0.8149736784398556,,,,,,,,,,,,,,1003,2019_May_08_1256,mf_amp_cond1,3.0.7,59.98199375716062,
progress,,&&&&&&&&,images/symbols/symbol_28.png,condition_files/AMP_rep4.csv,left,authority.virtue,,,,,,,,,,,,,,,,,,,,,0,1,1,3,0,55,55,55,,,,,,,,,,,,,1168.3156157612102,,,,,AMP_prac,left,1.2005177714163437,,,,,,,,,,,,,,,,,,,,,6,,,left,0.6156823427882046,,,,,,,,,,,,,,1003,2019_May_08_1256,mf_amp_cond1,3.0.7,59.98199375716062,
trust,,&&&&&,images/symbols/symbol_9.png,condition_files/AMP_rep4.csv,left,authority.virtue,,,,,,,,,,,,,,,,,,,,,0,1,1,3,0,56,56,56,,,,,,,,,,,,,1169.199106921209,,,,,AMP_prac,left,1.2005177714163437,,,,,,,,,,,,,,,,,,,,,6,,,left,0.665316432598047,,,,,,,,,,,,,,1003,2019_May_08_1256,mf_amp_cond1,3.0.7,59.98199375716062,
officers,,&&&&&&&&,images/symbols/symbol_4.png,condition_files/AMP_rep4.csv,right,authority.vice,,,,,,,,,,,,,,,,,,,,,0,1,1,3,0,57,57,57,,,,,,,,,,,,,1170.099319494795,,,,,AMP_prac,left,1.2005177714163437,,,,,,,,,,,,,,,,,,,,,6,,,right,0.682153305853717,,,,,,,,,,,,,,1003,2019_May_08_1256,mf_amp_cond1,3.0.7,59.98199375716062,
powerful,,&&&&&&&&,images/symbols/symbol_81.png,condition_files/AMP_rep4.csv,left,authority.virtue,,,,,,,,,,,,,,,,,,,,,0,1,1,3,0,58,58,58,,,,,,,,,,,,,1171.0495567960897,,,,,AMP_prac,left,1.2005177714163437,,,,,,,,,,,,,,,,,,,,,6,,,left,0.7171086518792436,,,,,,,,,,,,,,1003,2019_May_08_1256,mf_amp_cond1,3.0.7,59.98199375716062,
celebrated,,&&&&&&&&&&,images/symbols/symbol_27.png,condition_files/AMP_rep4.csv,left,authority.virtue,,,,,,,,,,,,,,,,,,,,,0,1,1,3,0,59,59,59,,,,,,,,,,,,,1172.0164677235298,,,,,AMP_prac,left,1.2005177714163437,,,,,,,,,,,,,,,,,,,,,6,,,right,0.748144791345112,,,,,,,,,,,,,,1003,2019_May_08_1256,mf_amp_cond1,3.0.7,59.98199375716062,
black,,&&&&&,images/symbols/symbol_52.png,condition_files/AMP_rep4.csv,right,loyalty.vice,,,,,,,,,,,,,,,,,,,,,0,1,1,3,0,60,60,60,,,,,,,,,,,,,1172.799984156387,,,,,AMP_prac,left,1.2005177714163437,,,,,,,,,,,,,,,,,,,,,6,,,left,0.550387141876854,,,,,,,,,,,,,,1003,2019_May_08_1256,mf_amp_cond1,3.0.7,59.98199375716062,
prison,,&&&&&&,images/symbols/symbol_80.png,condition_files/AMP_rep4.csv,right,fairness.vice,,,,,,,,,,,,,,,,,,,,,0,1,1,3,0,61,61,61,,,,,,,,,,,,,1173.6835378569085,,,,,AMP_prac,left,1.2005177714163437,,,,,,,,,,,,,,,,,,,,,6,,,left,0.665192955173552,,,,,,,,,,,,,,1003,2019_May_08_1256,mf_amp_cond1,3.0.7,59.98199375716062,
compassion,,&&&&&&&&&&,images/symbols/symbol_69.png,condition_files/AMP_rep4.csv,left,care.virtue,,,,,,,,,,,,,,,,,,,,,0,1,1,3,0,62,62,62,,,,,,,,,,,,,1174.5837901998311,,,,,AMP_prac,left,1.2005177714163437,,,,,,,,,,,,,,,,,,,,,6,,,left,0.6820356013486162,,,,,,,,,,,,,,1003,2019_May_08_1256,mf_amp_cond1,3.0.7,59.98199375716062,
scourld,,&&&&&&&,images/symbols/symbol_63.png,condition_files/AMP_rep4.csv,None,nonword,,,,,,,,,,,,,,,,,,,,,0,1,1,3,0,63,63,63,,,,,,,,,,,,,1175.4506555208936,,,,,AMP_prac,left,1.2005177714163437,,,,,,,,,,,,,,,,,,,,,6,,,left,0.6490315197734162,,,,,,,,,,,,,,1003,2019_May_08_1256,mf_amp_cond1,3.0.7,59.98199375716062,
injured,,&&&&&&&,images/symbols/symbol_73.png,condition_files/AMP_rep4.csv,right,care.vice,,,,,,,,,,,,,,,,,,,,,0,1,1,3,0,64,64,64,,,,,,,,,,,,,1176.3008792877663,,,,,AMP_prac,left,1.2005177714163437,,,,,,,,,,,,,,,,,,,,,6,,,left,0.6319396736798808,,,,,,,,,,,,,,1003,2019_May_08_1256,mf_amp_cond1,3.0.7,59.98199375716062,
scandal,,&&&&&&&,images/symbols/symbol_60.png,condition_files/AMP_rep4.csv,right,sanctity.vice,,,,,,,,,,,,,,,,,,,,,0,1,1,3,0,65,65,65,,,,,,,,,,,,,1177.234430454555,,,,,AMP_prac,left,1.2005177714163437,,,,,,,,,,,,,,,,,,,,,6,,,left,0.7154476394644007,,,,,,,,,,,,,,1003,2019_May_08_1256,mf_amp_cond1,3.0.7,59.98199375716062,
phluks,,&&&&&&,images/symbols/symbol_50.png,condition_files/AMP_rep4.csv,None,nonword,,,,,,,,,,,,,,,,,,,,,0,1,1,3,0,66,66,66,,,,,,,,,,,,,1178.0346301352838,,,,,AMP_prac,left,1.2005177714163437,,,,,,,,,,,,,,,,,,,,,6,,,left,0.5821849929634482,,,,,,,,,,,,,,1003,2019_May_08_1256,mf_amp_cond1,3.0.7,59.98199375716062,
riot,,&&&&,images/symbols/symbol_74.png,condition_files/AMP_rep4.csv,right,authority.vice,,,,,,,,,,,,,,,,,,,,,0,1,1,3,0,67,67,67,,,,,,,,,,,,,1179.0348799766507,,,,,AMP_prac,left,1.2005177714163437,,,,,,,,,,,,,,,,,,,,,6,,,right,0.7671025901800022,,,,,,,,,,,,,,1003,2019_May_08_1256,mf_amp_cond1,3.0.7,59.98199375716062,
police,,&&&&&&,images/symbols/symbol_46.png,condition_files/AMP_rep4.csv,right,authority.vice,,,,,,,,,,,,,,,,,,,,,0,1,1,3,0,68,68,68,,,,,,,,,,,,,1179.868421778432,,,,,AMP_prac,left,1.2005177714163437,,,,,,,,,,,,,,,,,,,,,6,,,left,0.6148734852904454,,,,,,,,,,,,,,1003,2019_May_08_1256,mf_amp_cond1,3.0.7,59.98199375716062,
care,,&&&&,images/symbols/symbol_47.png,condition_files/AMP_rep4.csv,left,care.virtue,,,,,,,,,,,,,,,,,,,,,0,1,1,3,0,69,69,69,,,,,,,,,,,,,1180.668797534774,,,,,AMP_prac,left,1.2005177714163437,,,,,,,,,,,,,,,,,,,,,6,,,left,0.582267738878727,,,,,,,,,,,,,,1003,2019_May_08_1256,mf_amp_cond1,3.0.7,59.98199375716062,
suicide,,&&&&&&&,images/symbols/symbol_72.png,condition_files/AMP_rep4.csv,right,care.vice,,,,,,,,,,,,,,,,,,,,,0,1,1,3,0,70,70,70,,,,,,,,,,,,,1181.4688233848428,,,,,AMP_prac,left,1.2005177714163437,,,,,,,,,,,,,,,,,,,,,6,,,left,0.5821012848755345,,,,,,,,,,,,,,1003,2019_May_08_1256,mf_amp_cond1,3.0.7,59.98199375716062,
fraud,,&&&&&,images/symbols/symbol_58.png,condition_files/AMP_rep4.csv,right,fairness.vice,,,,,,,,,,,,,,,,,,,,,0,1,1,3,0,71,71,71,,,,,,,,,,,,,1182.285697654006,,,,,AMP_prac,left,1.2005177714163437,,,,,,,,,,,,,,,,,,,,,6,,,left,0.5989301400259137,,,,,,,,,,,,,,1003,2019_May_08_1256,mf_amp_cond1,3.0.7,59.98199375716062,
betrayal,,&&&&&&&&,images/symbols/symbol_23.png,condition_files/AMP_rep4.csv,right,loyalty.vice,,,,,,,,,,,,,,,,,,,,,0,1,1,3,0,72,72,72,,,,,,,,,,,,,1183.3026204803027,,,,,AMP_prac,left,1.2005177714163437,,,,,,,,,,,,,,,,,,,,,6,,,right,0.7988148088334128,,,,,,,,,,,,,,1003,2019_May_08_1256,mf_amp_cond1,3.0.7,59.98199375716062,
naidd,,&&&&&,images/symbols/symbol_53.png,condition_files/AMP_rep4.csv,None,nonword,,,,,,,,,,,,,,,,,,,,,0,1,1,3,0,73,73,73,,,,,,,,,,,,,1184.3029697451275,,,,,AMP_prac,left,1.2005177714163437,,,,,,,,,,,,,,,,,,,,,6,,,right,0.782201798632741,,,,,,,,,,,,,,1003,2019_May_08_1256,mf_amp_cond1,3.0.7,59.98199375716062,
respect,,&&&&&&&,images/symbols/symbol_7.png,condition_files/AMP_rep4.csv,left,sanctity.virtue,,,,,,,,,,,,,,,,,,,,,0,1,1,3,0,74,74,74,,,,,,,,,,,,,1185.2197578045307,,,,,AMP_prac,left,1.2005177714163437,,,,,,,,,,,,,,,,,,,,,6,,,left,0.6989526546094567,,,,,,,,,,,,,,1003,2019_May_08_1256,mf_amp_cond1,3.0.7,59.98199375716062,
strong,,&&&&&&,images/symbols/symbol_76.png,condition_files/AMP_rep4.csv,left,loyalty.virtue,,,,,,,,,,,,,,,,,,,,,0,1,1,3,0,75,75,75,,,,,,,,,,,,,1186.103322409559,,,,,AMP_prac,left,1.2005177714163437,,,,,,,,,,,,,,,,,,,,,6,,,left,0.6659334992291406,,,,,,,,,,,,,,1003,2019_May_08_1256,mf_amp_cond1,3.0.7,59.98199375716062,
wraize,,&&&&&&,images/symbols/symbol_55.png,condition_files/AMP_rep4.csv,None,nonword,,,,,,,,,,,,,,,,,,,,,0,1,1,3,0,76,76,76,,,,,,,,,,,,,1187.0702371856896,,,,,AMP_prac,left,1.2005177714163437,,,,,,,,,,,,,,,,,,,,,6,,,right,0.7485784057062119,,,,,,,,,,,,,,1003,2019_May_08_1256,mf_amp_cond1,3.0.7,59.98199375716062,
great,,&&&&&,images/symbols/symbol_77.png,condition_files/AMP_rep4.csv,left,loyalty.virtue,,,,,,,,,,,,,,,,,,,,,0,1,1,3,0,77,77,77,,,,,,,,,,,,,1187.987112481147,,,,,AMP_prac,left,1.2005177714163437,,,,,,,,,,,,,,,,,,,,,6,,,left,0.6988487410126254,,,,,,,,,,,,,,1003,2019_May_08_1256,mf_amp_cond1,3.0.7,59.98199375716062,
loyalty,,&&&&&&&,images/symbols/symbol_67.png,condition_files/AMP_rep4.csv,left,loyalty.virtue,,,,,,,,,,,,,,,,,,,,,0,1,1,3,0,78,78,78,,,,,,,,,,,,,1188.7873172933469,,,,,AMP_prac,left,1.2005177714163437,,,,,,,,,,,,,,,,,,,,,6,,,left,0.5820557426195592,,,,,,,,,,,,,,1003,2019_May_08_1256,mf_amp_cond1,3.0.7,59.98199375716062,
intelligence,,&&&&&&&&&&&&,images/symbols/symbol_38.png,condition_files/AMP_rep4.csv,left,loyalty.virtue,,,,,,,,,,,,,,,,,,,,,0,1,1,3,0,79,79,79,,,,,,,,,,,,,1189.620858774404,,,,,AMP_prac,left,1.2005177714163437,,,,,,,,,,,,,,,,,,,,,6,,,left,0.61555501667317,,,,,,,,,,,,,,1003,2019_May_08_1256,mf_amp_cond1,3.0.7,59.98199375716062,
plonx,,&&&&&,images/symbols/symbol_71.png,condition_files/AMP_rep4.csv,None,nonword,,,,,,,,,,,,,,,,,,,,,0,1,1,3,0,80,80,80,,,,,,,,,,,,,1190.5544211665401,,,,,AMP_prac,left,1.2005177714163437,,,,,,,,,,,,,,,,,,,,,6,,,left,0.7154418665450066,,,,,,,,,,,,,,1003,2019_May_08_1256,mf_amp_cond1,3.0.7,59.98199375716062,
died,,&&&&,images/symbols/symbol_65.png,condition_files/AMP_rep4.csv,right,care.vice,,,,,,,,,,,,,,,,,,,,,0,1,1,3,0,81,81,81,,,,,,,,,,,,,1191.5046639199136,,,,,AMP_prac,left,1.2005177714163437,,,,,,,,,,,,,,,,,,,,,6,,,right,0.7320551973534748,,,,,,,,,,,,,,1003,2019_May_08_1256,mf_amp_cond1,3.0.7,59.98199375716062,
,,,,condition_files/AMP_rep4.csv,,,,,,,,,,,,,,,,,,,,,,,0,1,1,3,,,,,,,,,,,,,,,,,,,,,,,,,,,,,,,,,,,,,,,,,,,,,,,,,,right,7.102130611543544,,,,,,,,,,,,1003,2019_May_08_1256,mf_amp_cond1,3.0.7,59.98199375716062,
prosecution,,&&&&&&&&&&&,images/symbols/symbol_39.png,condition_files/AMP_rep3.csv,right,authority.vice,,,,,,,,,,,,,,,,,,,,,0,2,2,2,0,0,0,0,,,,,,,,,,,,,1199.7068590605631,,,,,AMP_prac,left,1.2005177714163437,,,,,,,,,,,,,,,,,,,,,6,,,right,0.8337749657221138,,,,,,,,,,,,,,1003,2019_May_08_1256,mf_amp_cond1,3.0.7,59.98199375716062,
agreement,,&&&&&&&&&,images/symbols/symbol_14.png,condition_files/AMP_rep3.csv,left,fairness.virtue,,,,,,,,,,,,,,,,,,,,,0,2,2,2,0,1,1,1,,,,,,,,,,,,,1200.6069334036438,,,,,AMP_prac,left,1.2005177714163437,,,,,,,,,,,,,,,,,,,,,6,,,right,0.6815740842139348,,,,,,,,,,,,,,1003,2019_May_08_1256,mf_amp_cond1,3.0.7,59.98199375716062,
credit,,&&&&&&,images/symbols/symbol_22.png,condition_files/AMP_rep3.csv,left,fairness.virtue,,,,,,,,,,,,,,,,,,,,,0,2,2,2,0,2,2,2,,,,,,,,,,,,,1201.4071465545567,,,,,AMP_prac,left,1.2005177714163437,,,,,,,,,,,,,,,,,,,,,6,,,right,0.5820868524024263,,,,,,,,,,,,,,1003,2019_May_08_1256,mf_amp_cond1,3.0.7,59.98199375716062,
sharz,,&&&&&,images/symbols/symbol_57.png,condition_files/AMP_rep3.csv,None,nonword,,,,,,,,,,,,,,,,,,,,,0,2,2,2,0,3,3,3,,,,,,,,,,,,,1202.4407298575388,,,,,AMP_prac,left,1.2005177714163437,,,,,,,,,,,,,,,,,,,,,6,,,right,0.8153595054754987,,,,,,,,,,,,,,1003,2019_May_08_1256,mf_amp_cond1,3.0.7,59.98199375716062,
ban,,&&&,images/symbols/symbol_62.png,condition_files/AMP_rep3.csv,right,loyalty.vice,,,,,,,,,,,,,,,,,,,,,0,2,2,2,0,4,4,4,,,,,,,,,,,,,1203.2742905818159,,,,,AMP_prac,left,1.2005177714163437,,,,,,,,,,,,,,,,,,,,,6,,,left,0.6004339992068708,,,,,,,,,,,,,,1003,2019_May_08_1256,mf_amp_cond1,3.0.7,59.98199375716062,
peace,,&&&&&,images/symbols/symbol_18.png,condition_files/AMP_rep3.csv,left,care.virtue,,,,,,,,,,,,,,,,,,,,,0,2,2,2,0,5,5,5,,,,,,,,,,,,,1204.057798034395,,,,,AMP_prac,left,1.2005177714163437,,,,,,,,,,,,,,,,,,,,,6,,,left,0.5503348645288497,,,,,,,,,,,,,,1003,2019_May_08_1256,mf_amp_cond1,3.0.7,59.98199375716062,
penalty,,&&&&&&&,images/symbols/symbol_13.png,condition_files/AMP_rep3.csv,right,authority.vice,,,,,,,,,,,,,,,,,,,,,0,2,2,2,0,6,6,6,,,,,,,,,,,,,1204.8913350254297,,,,,AMP_prac,left,1.2005177714163437,,,,,,,,,,,,,,,,,,,,,6,,,left,0.6149347430327907,,,,,,,,,,,,,,1003,2019_May_08_1256,mf_amp_cond1,3.0.7,59.98199375716062,
war,,&&&,images/symbols/symbol_59.png,condition_files/AMP_rep3.csv,right,sanctity.vice,,,,,,,,,,,,,,,,,,,,,0,2,2,2,0,7,7,7,,,,,,,,,,,,,1205.6248652171344,,,,,AMP_prac,left,1.2005177714163437,,,,,,,,,,,,,,,,,,,,,6,,,left,0.5155485381837934,,,,,,,,,,,,,,1003,2019_May_08_1256,mf_amp_cond1,3.0.7,59.98199375716062,
crime,,&&&&&,images/symbols/symbol_36.png,condition_files/AMP_rep3.csv,right,fairness.vice,,,,,,,,,,,,,,,,,,,,,0,2,2,2,0,8,8,8,,,,,,,,,,,,,1206.8251588047715,,,,,AMP_prac,left,1.2005177714163437,,,,,,,,,,,,,,,,,,,,,6,,,left,0.9822942946339026,,,,,,,,,,,,,,1003,2019_May_08_1256,mf_amp_cond1,3.0.7,59.98199375716062,
faith,,&&&&&,images/symbols/symbol_35.png,condition_files/AMP_rep3.csv,left,sanctity.virtue,,,,,,,,,,,,,,,,,,,,,0,2,2,2,0,9,9,9,,,,,,,,,,,,,1207.5586982973618,,,,,AMP_prac,left,1.2005177714163437,,,,,,,,,,,,,,,,,,,,,6,,,left,0.5154189669992775,,,,,,,,,,,,,,1003,2019_May_08_1256,mf_amp_cond1,3.0.7,59.98199375716062,
corruption,,&&&&&&&&&&,images/symbols/symbol_75.png,condition_files/AMP_rep3.csv,right,sanctity.vice,,,,,,,,,,,,,,,,,,,,,0,2,2,2,0,10,10,10,,,,,,,,,,,,,1208.3257771542994,,,,,AMP_prac,left,1.2005177714163437,,,,,,,,,,,,,,,,,,,,,6,,,left,0.5488412682898343,,,,,,,,,,,,,,1003,2019_May_08_1256,mf_amp_cond1,3.0.7,59.98199375716062,
shot,,&&&&,images/symbols/symbol_79.png,condition_files/AMP_rep3.csv,right,care.vice,,,,,,,,,,,,,,,,,,,,,0,2,2,2,0,11,11,11,,,,,,,,,,,,,1209.3757951466832,,,,,AMP_prac,left,1.2005177714163437,,,,,,,,,,,,,,,,,,,,,6,,,right,0.8320302452193573,,,,,,,,,,,,,,1003,2019_May_08_1256,mf_amp_cond1,3.0.7,59.98199375716062,
love,,&&&&,images/symbols/symbol_40.png,condition_files/AMP_rep3.csv,left,loyalty.virtue,,,,,,,,,,,,,,,,,,,,,0,2,2,2,0,12,12,12,,,,,,,,,,,,,1210.3426980562508,,,,,AMP_prac,left,1.2005177714163437,,,,,,,,,,,,,,,,,,,,,6,,,left,0.748748708399944,,,,,,,,,,,,,,1003,2019_May_08_1256,mf_amp_cond1,3.0.7,59.98199375716062,
clean,,&&&&&,images/symbols/symbol_29.png,condition_files/AMP_rep3.csv,left,sanctity.virtue,,,,,,,,,,,,,,,,,,,,,0,2,2,2,0,13,13,13,,,,,,,,,,,,,1211.1262395051308,,,,,AMP_prac,left,1.2005177714163437,,,,,,,,,,,,,,,,,,,,,6,,,left,0.5653288766043261,,,,,,,,,,,,,,1003,2019_May_08_1256,mf_amp_cond1,3.0.7,59.98199375716062,
illegal,,&&&&&&&,images/symbols/symbol_41.png,condition_files/AMP_rep3.csv,right,fairness.vice,,,,,,,,,,,,,,,,,,,,,0,2,2,2,0,14,14,14,,,,,,,,,,,,,1211.9097735775867,,,,,AMP_prac,left,1.2005177714163437,,,,,,,,,,,,,,,,,,,,,6,,,left,0.5659417738206685,,,,,,,,,,,,,,1003,2019_May_08_1256,mf_amp_cond1,3.0.7,59.98199375716062,
dighnd,,&&&&&&,images/symbols/symbol_17.png,condition_files/AMP_rep3.csv,None,nonword,,,,,,,,,,,,,,,,,,,,,0,2,2,2,0,15,15,15,,,,,,,,,,,,,1212.7266593927052,,,,,AMP_prac,left,1.2005177714163437,,,,,,,,,,,,,,,,,,,,,6,,,left,0.5988765796646476,,,,,,,,,,,,,,1003,2019_May_08_1256,mf_amp_cond1,3.0.7,59.98199375716062,
failure,,&&&&&&&,images/symbols/symbol_32.png,condition_files/AMP_rep3.csv,right,loyalty.vice,,,,,,,,,,,,,,,,,,,,,0,2,2,2,0,16,16,16,,,,,,,,,,,,,1213.6602468009805,,,,,AMP_prac,left,1.2005177714163437,,,,,,,,,,,,,,,,,,,,,6,,,left,0.7151516142766923,,,,,,,,,,,,,,1003,2019_May_08_1256,mf_amp_cond1,3.0.7,59.98199375716062,
integrity,,&&&&&&&&&,images/symbols/symbol_64.png,condition_files/AMP_rep3.csv,left,fairness.virtue,,,,,,,,,,,,,,,,,,,,,0,2,2,2,0,17,17,17,,,,,,,,,,,,,1214.3937644845573,,,,,AMP_prac,left,1.2005177714163437,,,,,,,,,,,,,,,,,,,,,6,,,left,0.5004621584666893,,,,,,,,,,,,,,1003,2019_May_08_1256,mf_amp_cond1,3.0.7,59.98199375716062,
ability,,&&&&&&&,images/symbols/symbol_66.png,condition_files/AMP_rep3.csv,left,authority.virtue,,,,,,,,,,,,,,,,,,,,,0,2,2,2,0,18,18,18,,,,,,,,,,,,,1215.644028597977,,,,,AMP_prac,left,1.2005177714163437,,,,,,,,,,,,,,,,,,,,,6,,,left,1.0318546185735613,,,,,,,,,,,,,,1003,2019_May_08_1256,mf_amp_cond1,3.0.7,59.98199375716062,
blamed,,&&&&&&,images/symbols/symbol_10.png,condition_files/AMP_rep3.csv,right,loyalty.vice,,,,,,,,,,,,,,,,,,,,,0,2,2,2,0,19,19,19,,,,,,,,,,,,,1216.5275960895233,,,,,AMP_prac,left,1.2005177714163437,,,,,,,,,,,,,,,,,,,,,6,,,left,0.6656426056288183,,,,,,,,,,,,,,1003,2019_May_08_1256,mf_amp_cond1,3.0.7,59.98199375716062,
safe,,&&&&,images/symbols/symbol_11.png,condition_files/AMP_rep3.csv,left,care.virtue,,,,,,,,,,,,,,,,,,,,,0,2,2,2,0,20,20,20,,,,,,,,,,,,,1217.5778610368725,,,,,AMP_prac,left,1.2005177714163437,,,,,,,,,,,,,,,,,,,,,6,,,left,0.8322053587762639,,,,,,,,,,,,,,1003,2019_May_08_1256,mf_amp_cond1,3.0.7,59.98199375716062,
win,,&&&,images/symbols/symbol_24.png,condition_files/AMP_rep3.csv,left,fairness.virtue,,,,,,,,,,,,,,,,,,,,,0,2,2,2,0,21,21,21,,,,,,,,,,,,,1218.3947211942868,,,,,AMP_prac,left,1.2005177714163437,,,,,,,,,,,,,,,,,,,,,6,,,left,0.5837353566894308,,,,,,,,,,,,,,1003,2019_May_08_1256,mf_amp_cond1,3.0.7,59.98199375716062,
fighters,,&&&&&&&&,images/symbols/symbol_43.png,condition_files/AMP_rep3.csv,right,authority.vice,,,,,,,,,,,,,,,,,,,,,0,2,2,2,0,22,22,22,,,,,,,,,,,,,1219.5117095117457,,,,,AMP_prac,left,1.2005177714163437,,,,,,,,,,,,,,,,,,,,,6,,,right,0.8983700334792957,,,,,,,,,,,,,,1003,2019_May_08_1256,mf_amp_cond1,3.0.7,59.98199375716062,
pleasant,,&&&&&&&,images/symbols/symbol_82.png,condition_files/AMP_rep3.csv,right,control,,,,,,,,,,,,,,,,,,,,,0,2,2,2,0,23,23,23,,,,,,,,,,,,,1220.2951951553114,,,,,AMP_prac,left,1.2005177714163437,,,,,,,,,,,,,,,,,,,,,6,,,left,0.5658221449702978,,,,,,,,,,,,,,1003,2019_May_08_1256,mf_amp_cond1,3.0.7,59.98199375716062,
drug,,&&&&,images/symbols/symbol_16.png,condition_files/AMP_rep3.csv,right,sanctity.vice,,,,,,,,,,,,,,,,,,,,,0,2,2,2,0,24,24,24,,,,,,,,,,,,,1221.0953957980964,,,,,AMP_prac,left,1.2005177714163437,,,,,,,,,,,,,,,,,,,,,6,,,left,0.5823338073678315,,,,,,,,,,,,,,1003,2019_May_08_1256,mf_amp_cond1,3.0.7,59.98199375716062,
victim,,&&&&&&,images/symbols/symbol_25.png,condition_files/AMP_rep3.csv,right,care.vice,,,,,,,,,,,,,,,,,,,,,0,2,2,2,0,25,25,25,,,,,,,,,,,,,1221.9622633642284,,,,,AMP_prac,left,1.2005177714163437,,,,,,,,,,,,,,,,,,,,,6,,,left,0.6487826405791566,,,,,,,,,,,,,,1003,2019_May_08_1256,mf_amp_cond1,3.0.7,59.98199375716062,
harassment,,&&&&&&&&&&,images/symbols/symbol_51.png,condition_files/AMP_rep3.csv,right,sanctity.vice,,,,,,,,,,,,,,,,,,,,,0,2,2,2,0,26,26,26,,,,,,,,,,,,,1222.7791796477977,,,,,AMP_prac,left,1.2005177714163437,,,,,,,,,,,,,,,,,,,,,6,,,left,0.5837770503712818,,,,,,,,,,,,,,1003,2019_May_08_1256,mf_amp_cond1,3.0.7,59.98199375716062,
ensure,,&&&&&&,images/symbols/symbol_34.png,condition_files/AMP_rep3.csv,left,fairness.virtue,,,,,,,,,,,,,,,,,,,,,0,2,2,2,0,27,27,27,,,,,,,,,,,,,1223.579343407764,,,,,AMP_prac,left,1.2005177714163437,,,,,,,,,,,,,,,,,,,,,6,,,left,0.5813703624298796,,,,,,,,,,,,,,1003,2019_May_08_1256,mf_amp_cond1,3.0.7,59.98199375716062,
opportunity,,&&&&&&&&&&&,images/symbols/symbol_42.png,condition_files/AMP_rep3.csv,left,fairness.virtue,,,,,,,,,,,,,,,,,,,,,0,2,2,2,0,28,28,28,,,,,,,,,,,,,1224.4128964347765,,,,,AMP_prac,left,1.2005177714163437,,,,,,,,,,,,,,,,,,,,,6,,,left,0.6151756042381749,,,,,,,,,,,,,,1003,2019_May_08_1256,mf_amp_cond1,3.0.7,59.98199375716062,
abuse,,&&&&&,images/symbols/symbol_19.png,condition_files/AMP_rep3.csv,right,sanctity.vice,,,,,,,,,,,,,,,,,,,,,0,2,2,2,0,29,29,29,,,,,,,,,,,,,1225.1797854249598,,,,,AMP_prac,left,1.2005177714163437,,,,,,,,,,,,,,,,,,,,,6,,,left,0.5488598701776937,,,,,,,,,,,,,,1003,2019_May_08_1256,mf_amp_cond1,3.0.7,59.98199375716062,
promote,,&&&&&&&,images/symbols/symbol_6.png,condition_files/AMP_rep3.csv,left,sanctity.virtue,,,,,,,,,,,,,,,,,,,,,0,2,2,2,0,30,30,30,,,,,,,,,,,,,1226.1466546588344,,,,,AMP_prac,left,1.2005177714163437,,,,,,,,,,,,,,,,,,,,,6,,,left,0.7337752222083509,,,,,,,,,,,,,,1003,2019_May_08_1256,mf_amp_cond1,3.0.7,59.98199375716062,
jipte,,&&&&&,images/symbols/symbol_31.png,condition_files/AMP_rep3.csv,None,nonword,,,,,,,,,,,,,,,,,,,,,0,2,2,2,0,31,31,31,,,,,,,,,,,,,1227.0302243953338,,,,,AMP_prac,left,1.2005177714163437,,,,,,,,,,,,,,,,,,,,,6,,,left,0.6657846848247573,,,,,,,,,,,,,,1003,2019_May_08_1256,mf_amp_cond1,3.0.7,59.98199375716062,
commitment,,&&&&&&&&&&,images/symbols/symbol_33.png,condition_files/AMP_rep3.csv,left,sanctity.virtue,,,,,,,,,,,,,,,,,,,,,0,2,2,2,0,32,32,32,,,,,,,,,,,,,1227.8970945272595,,,,,AMP_prac,left,1.2005177714163437,,,,,,,,,,,,,,,,,,,,,6,,,left,0.6485414586495608,,,,,,,,,,,,,,1003,2019_May_08_1256,mf_amp_cond1,3.0.7,59.98199375716062,
health,,&&&&&&,images/symbols/symbol_20.png,condition_files/AMP_rep3.csv,left,care.virtue,,,,,,,,,,,,,,,,,,,,,0,2,2,2,0,33,33,33,,,,,,,,,,,,,1228.7473070687847,,,,,AMP_prac,left,1.2005177714163437,,,,,,,,,,,,,,,,,,,,,6,,,left,0.632709724130109,,,,,,,,,,,,,,1003,2019_May_08_1256,mf_amp_cond1,3.0.7,59.98199375716062,
civilians,,&&&&&&&&&,images/symbols/symbol_70.png,condition_files/AMP_rep3.csv,right,care.vice,,,,,,,,,,,,,,,,,,,,,0,2,2,2,0,34,34,34,,,,,,,,,,,,,1229.7307508263038,,,,,AMP_prac,left,1.2005177714163437,,,,,,,,,,,,,,,,,,,,,6,,,left,0.7503016378032044,,,,,,,,,,,,,,1003,2019_May_08_1256,mf_amp_cond1,3.0.7,59.98199375716062,
forced,,&&&&&&,images/symbols/symbol_68.png,condition_files/AMP_rep3.csv,right,fairness.vice,,,,,,,,,,,,,,,,,,,,,0,2,2,2,0,35,35,35,,,,,,,,,,,,,1230.5644199542003,,,,,AMP_prac,left,1.2005177714163437,,,,,,,,,,,,,,,,,,,,,6,,,left,0.6004096245160326,,,,,,,,,,,,,,1003,2019_May_08_1256,mf_amp_cond1,3.0.7,59.98199375716062,
rejected,,&&&&&&&&,images/symbols/symbol_54.png,condition_files/AMP_rep3.csv,right,authority.vice,,,,,,,,,,,,,,,,,,,,,0,2,2,2,0,36,36,36,,,,,,,,,,,,,1231.6313537170645,,,,,AMP_prac,left,1.2005177714163437,,,,,,,,,,,,,,,,,,,,,6,,,right,0.8481073310831562,,,,,,,,,,,,,,1003,2019_May_08_1256,mf_amp_cond1,3.0.7,59.98199375716062,
sexual,,&&&&&&,images/symbols/symbol_78.png,condition_files/AMP_rep3.csv,right,sanctity.vice,,,,,,,,,,,,,,,,,,,,,0,2,2,2,0,37,37,37,,,,,,,,,,,,,1232.5649347108556,,,,,AMP_prac,left,1.2005177714163437,,,,,,,,,,,,,,,,,,,,,6,,,right,0.7152738088043407,,,,,,,,,,,,,,1003,2019_May_08_1256,mf_amp_cond1,3.0.7,59.98199375716062,
groups,,&&&&&&,images/symbols/symbol_61.png,condition_files/AMP_rep3.csv,right,loyalty.vice,,,,,,,,,,,,,,,,,,,,,0,2,2,2,0,38,38,38,,,,,,,,,,,,,1233.6651881443104,,,,,AMP_prac,left,1.2005177714163437,,,,,,,,,,,,,,,,,,,,,6,,,right,0.8823048141784966,,,,,,,,,,,,,,1003,2019_May_08_1256,mf_amp_cond1,3.0.7,59.98199375716062,
good,,&&&&,images/symbols/symbol_49.png,condition_files/AMP_rep3.csv,left,care.virtue,,,,,,,,,,,,,,,,,,,,,0,2,2,2,0,39,39,39,,,,,,,,,,,,,1234.4987761299126,,,,,AMP_prac,left,1.2005177714163437,,,,,,,,,,,,,,,,,,,,,6,,,left,0.6004513181978837,,,,,,,,,,,,,,1003,2019_May_08_1256,mf_amp_cond1,3.0.7,59.98199375716062,
useful,,&&&&&&,images/symbols/symbol_44.png,condition_files/AMP_rep3.csv,left,authority.virtue,,,,,,,,,,,,,,,,,,,,,0,2,2,2,0,40,40,40,,,,,,,,,,,,,1235.365612906753,,,,,AMP_prac,left,1.2005177714163437,,,,,,,,,,,,,,,,,,,,,6,,,right,0.6481395956361666,,,,,,,,,,,,,,1003,2019_May_08_1256,mf_amp_cond1,3.0.7,59.98199375716062,
unpleasant,,&&&&&&&&&,images/symbols/symbol_3.png,condition_files/AMP_rep3.csv,left,control,,,,,,,,,,,,,,,,,,,,,0,2,2,2,0,41,41,41,,,,,,,,,,,,,1236.2992179546272,,,,,AMP_prac,left,1.2005177714163437,,,,,,,,,,,,,,,,,,,,,6,,,left,0.7153222375782207,,,,,,,,,,,,,,1003,2019_May_08_1256,mf_amp_cond1,3.0.7,59.98199375716062,
perfect,,&&&&&&&,images/symbols/symbol_5.png,condition_files/AMP_rep3.csv,left,sanctity.virtue,,,,,,,,,,,,,,,,,,,,,0,2,2,2,0,42,42,42,,,,,,,,,,,,,1237.1327337780967,,,,,AMP_prac,left,1.2005177714163437,,,,,,,,,,,,,,,,,,,,,6,,,left,0.6155271140160039,,,,,,,,,,,,,,1003,2019_May_08_1256,mf_amp_cond1,3.0.7,59.98199375716062,
hate,,&&&&,images/symbols/symbol_8.png,condition_files/AMP_rep3.csv,right,fairness.vice,,,,,,,,,,,,,,,,,,,,,0,2,2,2,0,43,43,43,,,,,,,,,,,,,1237.8496204911498,,,,,AMP_prac,left,1.2005177714163437,,,,,,,,,,,,,,,,,,,,,6,,,left,0.4990150668891147,,,,,,,,,,,,,,1003,2019_May_08_1256,mf_amp_cond1,3.0.7,59.98199375716062,
wreize,,&&&&&&,images/symbols/symbol_26.png,condition_files/AMP_rep3.csv,None,nonword,,,,,,,,,,,,,,,,,,,,,0,2,2,2,0,44,44,44,,,,,,,,,,,,,1238.5830987261143,,,,,AMP_prac,left,1.2005177714163437,,,,,,,,,,,,,,,,,,,,,6,,,left,0.515097604948096,,,,,,,,,,,,,,1003,2019_May_08_1256,mf_amp_cond1,3.0.7,59.98199375716062,
actively,,&&&&&&&&,images/symbols/symbol_37.png,condition_files/AMP_rep3.csv,left,authority.virtue,,,,,,,,,,,,,,,,,,,,,0,2,2,2,0,45,45,45,,,,,,,,,,,,,1239.7167103167158,,,,,AMP_prac,left,1.2005177714163437,,,,,,,,,,,,,,,,,,,,,6,,,right,0.9004803753923625,,,,,,,,,,,,,,1003,2019_May_08_1256,mf_amp_cond1,3.0.7,59.98199375716062,
increase,,&&&&&&&&,images/symbols/symbol_15.png,condition_files/AMP_rep3.csv,left,care.virtue,,,,,,,,,,,,,,,,,,,,,0,2,2,2,0,46,46,46,,,,,,,,,,,,,1240.6501392889768,,,,,AMP_prac,left,1.2005177714163437,,,,,,,,,,,,,,,,,,,,,6,,,right,0.7148135746829212,,,,,,,,,,,,,,1003,2019_May_08_1256,mf_amp_cond1,3.0.7,59.98199375716062,
hope,,&&&&,images/symbols/symbol_2.png,condition_files/AMP_rep3.csv,left,loyalty.virtue,,,,,,,,,,,,,,,,,,,,,0,2,2,2,0,47,47,47,,,,,,,,,,,,,1241.7338804185856,,,,,AMP_prac,left,1.2005177714163437,,,,,,,,,,,,,,,,,,,,,6,,,left,0.8655811555217952,,,,,,,,,,,,,,1003,2019_May_08_1256,mf_amp_cond1,3.0.7,59.98199375716062,
promised,,&&&&&&&&,images/symbols/symbol_56.png,condition_files/AMP_rep3.csv,left,loyalty.virtue,,,,,,,,,,,,,,,,,,,,,0,2,2,2,0,48,48,48,,,,,,,,,,,,,1242.6508099158527,,,,,AMP_prac,left,1.2005177714163437,,,,,,,,,,,,,,,,,,,,,6,,,left,0.6837963577127084,,,,,,,,,,,,,,1003,2019_May_08_1256,mf_amp_cond1,3.0.7,59.98199375716062,
energy,,&&&&&&,images/symbols/symbol_48.png,condition_files/AMP_rep3.csv,left,sanctity.virtue,,,,,,,,,,,,,,,,,,,,,0,2,2,2,0,49,49,49,,,,,,,,,,,,,1243.8010620985879,,,,,AMP_prac,left,1.2005177714163437,,,,,,,,,,,,,,,,,,,,,6,,,right,0.9313843779964373,,,,,,,,,,,,,,1003,2019_May_08_1256,mf_amp_cond1,3.0.7,59.98199375716062,
accused,,&&&&&&&,images/symbols/symbol_12.png,condition_files/AMP_rep3.csv,right,fairness.vice,,,,,,,,,,,,,,,,,,,,,0,2,2,2,0,50,50,50,,,,,,,,,,,,,1245.0513727165526,,,,,AMP_prac,left,1.2005177714163437,,,,,,,,,,,,,,,,,,,,,6,,,right,1.0171713848831132,,,,,,,,,,,,,,1003,2019_May_08_1256,mf_amp_cond1,3.0.7,59.98199375716062,
attacks,,&&&&&&&,images/symbols/symbol_30.png,condition_files/AMP_rep3.csv,right,care.vice,,,,,,,,,,,,,,,,,,,,,0,2,2,2,0,51,51,51,,,,,,,,,,,,,1246.018291662098,,,,,AMP_prac,left,1.2005177714163437,,,,,,,,,,,,,,,,,,,,,6,,,left,0.7485469749663025,,,,,,,,,,,,,,1003,2019_May_08_1256,mf_amp_cond1,3.0.7,59.98199375716062,
army,,&&&&,images/symbols/symbol_45.png,condition_files/AMP_rep3.csv,right,loyalty.vice,,,,,,,,,,,,,,,,,,,,,0,2,2,2,0,52,52,52,,,,,,,,,,,,,1247.1352520767832,,,,,AMP_prac,left,1.2005177714163437,,,,,,,,,,,,,,,,,,,,,6,,,right,0.8988437377847731,,,,,,,,,,,,,,1003,2019_May_08_1256,mf_amp_cond1,3.0.7,59.98199375716062,
stourz,,&&&&&&,images/symbols/symbol_21.png,condition_files/AMP_rep3.csv,None,nonword,,,,,,,,,,,,,,,,,,,,,0,2,2,2,0,53,53,53,,,,,,,,,,,,,1248.1521649607457,,,,,AMP_prac,left,1.2005177714163437,,,,,,,,,,,,,,,,,,,,,6,,,left,0.7987753602210432,,,,,,,,,,,,,,1003,2019_May_08_1256,mf_amp_cond1,3.0.7,59.98199375716062,
free,,&&&&,images/symbols/symbol_1.png,condition_files/AMP_rep3.csv,left,fairness.virtue,,,,,,,,,,,,,,,,,,,,,0,2,2,2,0,54,54,54,,,,,,,,,,,,,1249.3524498889456,,,,,AMP_prac,left,1.2005177714163437,,,,,,,,,,,,,,,,,,,,,6,,,right,0.9821332927094772,,,,,,,,,,,,,,1003,2019_May_08_1256,mf_amp_cond1,3.0.7,59.98199375716062,
progress,,&&&&&&&&,images/symbols/symbol_28.png,condition_files/AMP_rep3.csv,left,authority.virtue,,,,,,,,,,,,,,,,,,,,,0,2,2,2,0,55,55,55,,,,,,,,,,,,,1250.2860254305415,,,,,AMP_prac,left,1.2005177714163437,,,,,,,,,,,,,,,,,,,,,6,,,left,0.7154293584171683,,,,,,,,,,,,,,1003,2019_May_08_1256,mf_amp_cond1,3.0.7,59.98199375716062,
trust,,&&&&&,images/symbols/symbol_9.png,condition_files/AMP_rep3.csv,left,authority.virtue,,,,,,,,,,,,,,,,,,,,,0,2,2,2,0,56,56,56,,,,,,,,,,,,,1251.1529013353866,,,,,AMP_prac,left,1.2005177714163437,,,,,,,,,,,,,,,,,,,,,6,,,left,0.6488281828351319,,,,,,,,,,,,,,1003,2019_May_08_1256,mf_amp_cond1,3.0.7,59.98199375716062,
officers,,&&&&&&&&,images/symbols/symbol_4.png,condition_files/AMP_rep3.csv,right,authority.vice,,,,,,,,,,,,,,,,,,,,,0,2,2,2,0,57,57,57,,,,,,,,,,,,,1252.303207719815,,,,,AMP_prac,left,1.2005177714163437,,,,,,,,,,,,,,,,,,,,,6,,,left,0.9321906697005033,,,,,,,,,,,,,,1003,2019_May_08_1256,mf_amp_cond1,3.0.7,59.98199375716062,
powerful,,&&&&&&&&,images/symbols/symbol_81.png,condition_files/AMP_rep3.csv,left,authority.virtue,,,,,,,,,,,,,,,,,,,,,0,2,2,2,0,58,58,58,,,,,,,,,,,,,1253.0867142102215,,,,,AMP_prac,left,1.2005177714163437,,,,,,,,,,,,,,,,,,,,,6,,,left,0.5503941976930946,,,,,,,,,,,,,,1003,2019_May_08_1256,mf_amp_cond1,3.0.7,59.98199375716062,
celebrated,,&&&&&&&&&&,images/symbols/symbol_27.png,condition_files/AMP_rep3.csv,left,authority.virtue,,,,,,,,,,,,,,,,,,,,,0,2,2,2,0,59,59,59,,,,,,,,,,,,,1254.203683925909,,,,,AMP_prac,left,1.2005177714163437,,,,,,,,,,,,,,,,,,,,,6,,,left,0.8981808081734926,,,,,,,,,,,,,,1003,2019_May_08_1256,mf_amp_cond1,3.0.7,59.98199375716062,
black,,&&&&&,images/symbols/symbol_52.png,condition_files/AMP_rep3.csv,right,loyalty.vice,,,,,,,,,,,,,,,,,,,,,0,2,2,2,0,60,60,60,,,,,,,,,,,,,1255.1705801002681,,,,,AMP_prac,left,1.2005177714163437,,,,,,,,,,,,,,,,,,,,,6,,,left,0.7337829195894301,,,,,,,,,,,,,,1003,2019_May_08_1256,mf_amp_cond1,3.0.7,59.98199375716062,
prison,,&&&&&&,images/symbols/symbol_80.png,condition_files/AMP_rep3.csv,right,fairness.vice,,,,,,,,,,,,,,,,,,,,,0,2,2,2,0,61,61,61,,,,,,,,,,,,,1256.3542209084844,,,,,AMP_prac,left,1.2005177714163437,,,,,,,,,,,,,,,,,,,,,6,,,left,0.9654442719183862,,,,,,,,,,,,,,1003,2019_May_08_1256,mf_amp_cond1,3.0.7,59.98199375716062,
compassion,,&&&&&&&&&&,images/symbols/symbol_69.png,condition_files/AMP_rep3.csv,left,care.virtue,,,,,,,,,,,,,,,,,,,,,0,2,2,2,0,62,62,62,,,,,,,,,,,,,1257.3878054943634,,,,,AMP_prac,left,1.2005177714163437,,,,,,,,,,,,,,,,,,,,,6,,,right,0.8154653433011845,,,,,,,,,,,,,,1003,2019_May_08_1256,mf_amp_cond1,3.0.7,59.98199375716062,
scourld,,&&&&&&&,images/symbols/symbol_63.png,condition_files/AMP_rep3.csv,None,nonword,,,,,,,,,,,,,,,,,,,,,0,2,2,2,0,63,63,63,,,,,,,,,,,,,1258.471390753868,,,,,AMP_prac,left,1.2005177714163437,,,,,,,,,,,,,,,,,,,,,6,,,left,0.8655910978559405,,,,,,,,,,,,,,1003,2019_May_08_1256,mf_amp_cond1,3.0.7,59.98199375716062,
injured,,&&&&&&&,images/symbols/symbol_73.png,condition_files/AMP_rep3.csv,right,care.vice,,,,,,,,,,,,,,,,,,,,,0,2,2,2,0,64,64,64,,,,,,,,,,,,,1259.4383571660146,,,,,AMP_prac,left,1.2005177714163437,,,,,,,,,,,,,,,,,,,,,6,,,left,0.7488304921425879,,,,,,,,,,,,,,1003,2019_May_08_1256,mf_amp_cond1,3.0.7,59.98199375716062,
scandal,,&&&&&&&,images/symbols/symbol_60.png,condition_files/AMP_rep3.csv,right,sanctity.vice,,,,,,,,,,,,,,,,,,,,,0,2,2,2,0,65,65,65,,,,,,,,,,,,,1260.388542510569,,,,,AMP_prac,left,1.2005177714163437,,,,,,,,,,,,,,,,,,,,,6,,,left,0.7321764297084883,,,,,,,,,,,,,,1003,2019_May_08_1256,mf_amp_cond1,3.0.7,59.98199375716062,
phluks,,&&&&&&,images/symbols/symbol_50.png,condition_files/AMP_rep3.csv,None,nonword,,,,,,,,,,,,,,,,,,,,,0,2,2,2,0,66,66,66,,,,,,,,,,,,,1261.1387472907081,,,,,AMP_prac,left,1.2005177714163437,,,,,,,,,,,,,,,,,,,,,6,,,left,0.517076772172004,,,,,,,,,,,,,,1003,2019_May_08_1256,mf_amp_cond1,3.0.7,59.98199375716062,
riot,,&&&&,images/symbols/symbol_74.png,condition_files/AMP_rep3.csv,right,authority.vice,,,,,,,,,,,,,,,,,,,,,0,2,2,2,0,67,67,67,,,,,,,,,,,,,1262.1890048614005,,,,,AMP_prac,left,1.2005177714163437,,,,,,,,,,,,,,,,,,,,,6,,,left,0.8171382222790271,,,,,,,,,,,,,,1003,2019_May_08_1256,mf_amp_cond1,3.0.7,59.98199375716062,
police,,&&&&&&,images/symbols/symbol_46.png,condition_files/AMP_rep3.csv,right,authority.vice,,,,,,,,,,,,,,,,,,,,,0,2,2,2,0,68,68,68,,,,,,,,,,,,,1263.0392071399838,,,,,AMP_prac,left,1.2005177714163437,,,,,,,,,,,,,,,,,,,,,6,,,left,0.6314027872867882,,,,,,,,,,,,,,1003,2019_May_08_1256,mf_amp_cond1,3.0.7,59.98199375716062,
care,,&&&&,images/symbols/symbol_47.png,condition_files/AMP_rep3.csv,left,care.virtue,,,,,,,,,,,,,,,,,,,,,0,2,2,2,0,69,69,69,,,,,,,,,,,,,1263.8894597716862,,,,,AMP_prac,left,1.2005177714163437,,,,,,,,,,,,,,,,,,,,,6,,,left,0.6321750826900825,,,,,,,,,,,,,,1003,2019_May_08_1256,mf_amp_cond1,3.0.7,59.98199375716062,
suicide,,&&&&&&&,images/symbols/symbol_72.png,condition_files/AMP_rep3.csv,right,care.vice,,,,,,,,,,,,,,,,,,,,,0,2,2,2,0,70,70,70,,,,,,,,,,,,,1264.806310050888,,,,,AMP_prac,left,1.2005177714163437,,,,,,,,,,,,,,,,,,,,,6,,,left,0.6986838906304911,,,,,,,,,,,,,,1003,2019_May_08_1256,mf_amp_cond1,3.0.7,59.98199375716062,
fraud,,&&&&&,images/symbols/symbol_58.png,condition_files/AMP_rep3.csv,right,fairness.vice,,,,,,,,,,,,,,,,,,,,,0,2,2,2,0,71,71,71,,,,,,,,,,,,,1265.706542829983,,,,,AMP_prac,left,1.2005177714163437,,,,,,,,,,,,,,,,,,,,,6,,,left,0.6822168084327132,,,,,,,,,,,,,,1003,2019_May_08_1256,mf_amp_cond1,3.0.7,59.98199375716062,
betrayal,,&&&&&&&&,images/symbols/symbol_23.png,condition_files/AMP_rep3.csv,right,loyalty.vice,,,,,,,,,,,,,,,,,,,,,0,2,2,2,0,72,72,72,,,,,,,,,,,,,1266.4234247322893,,,,,AMP_prac,left,1.2005177714163437,,,,,,,,,,,,,,,,,,,,,6,,,left,0.498779657878913,,,,,,,,,,,,,,1003,2019_May_08_1256,mf_amp_cond1,3.0.7,59.98199375716062,
naidd,,&&&&&,images/symbols/symbol_53.png,condition_files/AMP_rep3.csv,None,nonword,,,,,,,,,,,,,,,,,,,,,0,2,2,2,0,73,73,73,,,,,,,,,,,,,1267.3736261128215,,,,,AMP_prac,left,1.2005177714163437,,,,,,,,,,,,,,,,,,,,,6,,,left,0.7317360802553594,,,,,,,,,,,,,,1003,2019_May_08_1256,mf_amp_cond1,3.0.7,59.98199375716062,
respect,,&&&&&&&,images/symbols/symbol_7.png,condition_files/AMP_rep3.csv,left,sanctity.virtue,,,,,,,,,,,,,,,,,,,,,0,2,2,2,0,74,74,74,,,,,,,,,,,,,1268.2405142049538,,,,,AMP_prac,left,1.2005177714163437,,,,,,,,,,,,,,,,,,,,,6,,,left,0.6489314548671246,,,,,,,,,,,,,,1003,2019_May_08_1256,mf_amp_cond1,3.0.7,59.98199375716062,
strong,,&&&&&&,images/symbols/symbol_76.png,condition_files/AMP_rep3.csv,left,loyalty.virtue,,,,,,,,,,,,,,,,,,,,,0,2,2,2,0,75,75,75,,,,,,,,,,,,,1269.2907778694062,,,,,AMP_prac,left,1.2005177714163437,,,,,,,,,,,,,,,,,,,,,6,,,left,0.8326162019511685,,,,,,,,,,,,,,1003,2019_May_08_1256,mf_amp_cond1,3.0.7,59.98199375716062,
wraize,,&&&&&&,images/symbols/symbol_55.png,condition_files/AMP_rep3.csv,None,nonword,,,,,,,,,,,,,,,,,,,,,0,2,2,2,0,76,76,76,,,,,,,,,,,,,1270.1743177790195,,,,,AMP_prac,left,1.2005177714163437,,,,,,,,,,,,,,,,,,,,,6,,,right,0.6652157263597474,,,,,,,,,,,,,,1003,2019_May_08_1256,mf_amp_cond1,3.0.7,59.98199375716062,
great,,&&&&&,images/symbols/symbol_77.png,condition_files/AMP_rep3.csv,left,loyalty.virtue,,,,,,,,,,,,,,,,,,,,,0,2,2,2,0,77,77,77,,,,,,,,,,,,,1271.107884981786,,,,,AMP_prac,left,1.2005177714163437,,,,,,,,,,,,,,,,,,,,,6,,,left,0.7155281403101981,,,,,,,,,,,,,,1003,2019_May_08_1256,mf_amp_cond1,3.0.7,59.98199375716062,
loyalty,,&&&&&&&,images/symbols/symbol_67.png,condition_files/AMP_rep3.csv,left,loyalty.virtue,,,,,,,,,,,,,,,,,,,,,0,2,2,2,0,78,78,78,,,,,,,,,,,,,1272.0247753511649,,,,,AMP_prac,left,1.2005177714163437,,,,,,,,,,,,,,,,,,,,,6,,,left,0.6987034545745701,,,,,,,,,,,,,,1003,2019_May_08_1256,mf_amp_cond1,3.0.7,59.98199375716062,
intelligence,,&&&&&&&&&&&&,images/symbols/symbol_38.png,condition_files/AMP_rep3.csv,left,loyalty.virtue,,,,,,,,,,,,,,,,,,,,,0,2,2,2,0,79,79,79,,,,,,,,,,,,,1272.858344414155,,,,,AMP_prac,left,1.2005177714163437,,,,,,,,,,,,,,,,,,,,,6,,,left,0.6155184545787051,,,,,,,,,,,,,,1003,2019_May_08_1256,mf_amp_cond1,3.0.7,59.98199375716062,
plonx,,&&&&&,images/symbols/symbol_71.png,condition_files/AMP_rep3.csv,None,nonword,,,,,,,,,,,,,,,,,,,,,0,2,2,2,0,80,80,80,,,,,,,,,,,,,1273.7085322602652,,,,,AMP_prac,left,1.2005177714163437,,,,,,,,,,,,,,,,,,,,,6,,,left,0.6320910538779572,,,,,,,,,,,,,,1003,2019_May_08_1256,mf_amp_cond1,3.0.7,59.98199375716062,
died,,&&&&,images/symbols/symbol_65.png,condition_files/AMP_rep3.csv,right,care.vice,,,,,,,,,,,,,,,,,,,,,0,2,2,2,0,81,81,81,,,,,,,,,,,,,1274.6754861644004,,,,,AMP_prac,left,1.2005177714163437,,,,,,,,,,,,,,,,,,,,,6,,,right,0.748800344299525,,,,,,,,,,,,,,1003,2019_May_08_1256,mf_amp_cond1,3.0.7,59.98199375716062,
,,,,condition_files/AMP_rep3.csv,,,,,,,,,,,,,,,,,,,,,,,0,2,2,2,,,,,,,,,,,,,,,,,,,,,,,,,,,,,,,,,,,,,,,,,,,,,,,,,,right,21.188891967758536,,,,,,,,,,,,1003,2019_May_08_1256,mf_amp_cond1,3.0.7,59.98199375716062,
prosecution,,&&&&&&&&&&&,images/symbols/symbol_39.png,condition_files/AMP_rep1.csv,right,authority.vice,,,,,,,,,,,,,,,,,,,,,0,3,3,0,0,0,0,0,,,,,,,,,,,,,1297.0145167796873,,,,,AMP_prac,left,1.2005177714163437,,,,,,,,,,,,,,,,,,,,,6,,,right,0.8838372175814584,,,,,,,,,,,,,,1003,2019_May_08_1256,mf_amp_cond1,3.0.7,59.98199375716062,
agreement,,&&&&&&&&&,images/symbols/symbol_14.png,condition_files/AMP_rep1.csv,left,fairness.virtue,,,,,,,,,,,,,,,,,,,,,0,3,3,0,0,1,1,1,,,,,,,,,,,,,1297.964599814266,,,,,AMP_prac,left,1.2005177714163437,,,,,,,,,,,,,,,,,,,,,6,,,right,0.7312546785688028,,,,,,,,,,,,,,1003,2019_May_08_1256,mf_amp_cond1,3.0.7,59.98199375716062,
credit,,&&&&&&,images/symbols/symbol_22.png,condition_files/AMP_rep1.csv,left,fairness.virtue,,,,,,,,,,,,,,,,,,,,,0,3,3,0,0,2,2,2,,,,,,,,,,,,,1298.8314805299742,,,,,AMP_prac,left,1.2005177714163437,,,,,,,,,,,,,,,,,,,,,6,,,right,0.648830748628825,,,,,,,,,,,,,,1003,2019_May_08_1256,mf_amp_cond1,3.0.7,59.98199375716062,
sharz,,&&&&&,images/symbols/symbol_57.png,condition_files/AMP_rep1.csv,None,nonword,,,,,,,,,,,,,,,,,,,,,0,3,3,0,0,3,3,3,,,,,,,,,,,,,1299.6983638113597,,,,,AMP_prac,left,1.2005177714163437,,,,,,,,,,,,,,,,,,,,,6,,,right,0.6488073359942064,,,,,,,,,,,,,,1003,2019_May_08_1256,mf_amp_cond1,3.0.7,59.98199375716062,
ban,,&&&,images/symbols/symbol_62.png,condition_files/AMP_rep1.csv,right,loyalty.vice,,,,,,,,,,,,,,,,,,,,,0,3,3,0,0,4,4,4,,,,,,,,,,,,,1300.5652470927453,,,,,AMP_prac,left,1.2005177714163437,,,,,,,,,,,,,,,,,,,,,6,,,left,0.6337453310843557,,,,,,,,,,,,,,1003,2019_May_08_1256,mf_amp_cond1,3.0.7,59.98199375716062,
peace,,&&&&&,images/symbols/symbol_18.png,condition_files/AMP_rep1.csv,left,care.virtue,,,,,,,,,,,,,,,,,,,,,0,3,3,0,0,5,5,5,,,,,,,,,,,,,1301.365448056371,,,,,AMP_prac,left,1.2005177714163437,,,,,,,,,,,,,,,,,,,,,6,,,left,0.5670642961049452,,,,,,,,,,,,,,1003,2019_May_08_1256,mf_amp_cond1,3.0.7,59.98199375716062,
penalty,,&&&&&&&,images/symbols/symbol_13.png,condition_files/AMP_rep1.csv,right,authority.vice,,,,,,,,,,,,,,,,,,,,,0,3,3,0,0,6,6,6,,,,,,,,,,,,,1302.148977638688,,,,,AMP_prac,left,1.2005177714163437,,,,,,,,,,,,,,,,,,,,,6,,,left,0.564861586666666,,,,,,,,,,,,,,1003,2019_May_08_1256,mf_amp_cond1,3.0.7,59.98199375716062,
war,,&&&,images/symbols/symbol_59.png,condition_files/AMP_rep1.csv,right,sanctity.vice,,,,,,,,,,,,,,,,,,,,,0,3,3,0,0,7,7,7,,,,,,,,,,,,,1302.8991618927103,,,,,AMP_prac,left,1.2005177714163437,,,,,,,,,,,,,,,,,,,,,6,,,left,0.5321211374830455,,,,,,,,,,,,,,1003,2019_May_08_1256,mf_amp_cond1,3.0.7,59.98199375716062,
crime,,&&&&&,images/symbols/symbol_36.png,condition_files/AMP_rep1.csv,right,fairness.vice,,,,,,,,,,,,,,,,,,,,,0,3,3,0,0,8,8,8,,,,,,,,,,,,,1303.716027181712,,,,,AMP_prac,left,1.2005177714163437,,,,,,,,,,,,,,,,,,,,,6,,,left,0.598862467915751,,,,,,,,,,,,,,1003,2019_May_08_1256,mf_amp_cond1,3.0.7,59.98199375716062,
faith,,&&&&&,images/symbols/symbol_35.png,condition_files/AMP_rep1.csv,left,sanctity.virtue,,,,,,,,,,,,,,,,,,,,,0,3,3,0,0,9,9,9,,,,,,,,,,,,,1304.532909468864,,,,,AMP_prac,left,1.2005177714163437,,,,,,,,,,,,,,,,,,,,,6,,,left,0.5988313580164686,,,,,,,,,,,,,,1003,2019_May_08_1256,mf_amp_cond1,3.0.7,59.98199375716062,
corruption,,&&&&&&&&&&,images/symbols/symbol_75.png,condition_files/AMP_rep1.csv,right,sanctity.vice,,,,,,,,,,,,,,,,,,,,,0,3,3,0,0,10,10,10,,,,,,,,,,,,,1305.3497766820947,,,,,AMP_prac,left,1.2005177714163437,,,,,,,,,,,,,,,,,,,,,6,,,left,0.5988432246958837,,,,,,,,,,,,,,1003,2019_May_08_1256,mf_amp_cond1,3.0.7,59.98199375716062,
shot,,&&&&,images/symbols/symbol_79.png,condition_files/AMP_rep1.csv,right,care.vice,,,,,,,,,,,,,,,,,,,,,0,3,3,0,0,11,11,11,,,,,,,,,,,,,1306.1833486317191,,,,,AMP_prac,left,1.2005177714163437,,,,,,,,,,,,,,,,,,,,,6,,,left,0.6152743861312047,,,,,,,,,,,,,,1003,2019_May_08_1256,mf_amp_cond1,3.0.7,59.98199375716062,
love,,&&&&,images/symbols/symbol_40.png,condition_files/AMP_rep1.csv,left,loyalty.virtue,,,,,,,,,,,,,,,,,,,,,0,3,3,0,0,12,12,12,,,,,,,,,,,,,1307.1501036889385,,,,,AMP_prac,left,1.2005177714163437,,,,,,,,,,,,,,,,,,,,,6,,,left,0.7486117605585605,,,,,,,,,,,,,,1003,2019_May_08_1256,mf_amp_cond1,3.0.7,59.98199375716062,
clean,,&&&&&,images/symbols/symbol_29.png,condition_files/AMP_rep1.csv,left,sanctity.virtue,,,,,,,,,,,,,,,,,,,,,0,3,3,0,0,13,13,13,,,,,,,,,,,,,1308.0504500031238,,,,,AMP_prac,left,1.2005177714163437,,,,,,,,,,,,,,,,,,,,,6,,,right,0.6820375255774707,,,,,,,,,,,,,,1003,2019_May_08_1256,mf_amp_cond1,3.0.7,59.98199375716062,
illegal,,&&&&&&&,images/symbols/symbol_41.png,condition_files/AMP_rep1.csv,right,fairness.vice,,,,,,,,,,,,,,,,,,,,,0,3,3,0,0,14,14,14,,,,,,,,,,,,,1308.817323919502,,,,,AMP_prac,left,1.2005177714163437,,,,,,,,,,,,,,,,,,,,,6,,,left,0.5493281222879887,,,,,,,,,,,,,,1003,2019_May_08_1256,mf_amp_cond1,3.0.7,59.98199375716062,
dighnd,,&&&&&&,images/symbols/symbol_17.png,condition_files/AMP_rep1.csv,None,nonword,,,,,,,,,,,,,,,,,,,,,0,3,3,0,0,15,15,15,,,,,,,,,,,,,1309.7175413039513,,,,,AMP_prac,left,1.2005177714163437,,,,,,,,,,,,,,,,,,,,,6,,,left,0.682125082355924,,,,,,,,,,,,,,1003,2019_May_08_1256,mf_amp_cond1,3.0.7,59.98199375716062,
failure,,&&&&&&&,images/symbols/symbol_32.png,condition_files/AMP_rep1.csv,right,loyalty.vice,,,,,,,,,,,,,,,,,,,,,0,3,3,0,0,16,16,16,,,,,,,,,,,,,1310.5344091587467,,,,,AMP_prac,left,1.2005177714163437,,,,,,,,,,,,,,,,,,,,,6,,,left,0.5985513689229265,,,,,,,,,,,,,,1003,2019_May_08_1256,mf_amp_cond1,3.0.7,59.98199375716062,
integrity,,&&&&&&&&&,images/symbols/symbol_64.png,condition_files/AMP_rep1.csv,left,fairness.virtue,,,,,,,,,,,,,,,,,,,,,0,3,3,0,0,17,17,17,,,,,,,,,,,,,1311.818057407625,,,,,AMP_prac,left,1.2005177714163437,,,,,,,,,,,,,,,,,,,,,6,,,left,1.0505272968439385,,,,,,,,,,,,,,1003,2019_May_08_1256,mf_amp_cond1,3.0.7,59.98199375716062,
ability,,&&&&&&&,images/symbols/symbol_66.png,condition_files/AMP_rep1.csv,left,authority.virtue,,,,,,,,,,,,,,,,,,,,,0,3,3,0,0,18,18,18,,,,,,,,,,,,,1312.6849464620464,,,,,AMP_prac,left,1.2005177714163437,,,,,,,,,,,,,,,,,,,,,6,,,left,0.648326575756073,,,,,,,,,,,,,,1003,2019_May_08_1256,mf_amp_cond1,3.0.7,59.98199375716062,
blamed,,&&&&&&,images/symbols/symbol_10.png,condition_files/AMP_rep1.csv,right,loyalty.vice,,,,,,,,,,,,,,,,,,,,,0,3,3,0,0,19,19,19,,,,,,,,,,,,,1313.5685008040164,,,,,AMP_prac,left,1.2005177714163437,,,,,,,,,,,,,,,,,,,,,6,,,left,0.6655306740431115,,,,,,,,,,,,,,1003,2019_May_08_1256,mf_amp_cond1,3.0.7,59.98199375716062,
safe,,&&&&,images/symbols/symbol_11.png,condition_files/AMP_rep1.csv,left,care.virtue,,,,,,,,,,,,,,,,,,,,,0,3,3,0,0,20,20,20,,,,,,,,,,,,,1314.3021018749569,,,,,AMP_prac,left,1.2005177714163437,,,,,,,,,,,,,,,,,,,,,6,,,left,0.5156107579823583,,,,,,,,,,,,,,1003,2019_May_08_1256,mf_amp_cond1,3.0.7,59.98199375716062,
win,,&&&,images/symbols/symbol_24.png,condition_files/AMP_rep1.csv,left,fairness.virtue,,,,,,,,,,,,,,,,,,,,,0,3,3,0,0,21,21,21,,,,,,,,,,,,,1315.2356350814225,,,,,AMP_prac,left,1.2005177714163437,,,,,,,,,,,,,,,,,,,,,6,,,left,0.7004956416785717,,,,,,,,,,,,,,1003,2019_May_08_1256,mf_amp_cond1,3.0.7,59.98199375716062,
fighters,,&&&&&&&&,images/symbols/symbol_43.png,condition_files/AMP_rep1.csv,right,authority.vice,,,,,,,,,,,,,,,,,,,,,0,3,3,0,0,22,22,22,,,,,,,,,,,,,1315.9857641714625,,,,,AMP_prac,left,1.2005177714163437,,,,,,,,,,,,,,,,,,,,,6,,,left,0.53148290340323,,,,,,,,,,,,,,1003,2019_May_08_1256,mf_amp_cond1,3.0.7,59.98199375716062,
pleasant,,&&&&&&&,images/symbols/symbol_82.png,condition_files/AMP_rep1.csv,right,control,,,,,,,,,,,,,,,,,,,,,0,3,3,0,0,23,23,23,,,,,,,,,,,,,1316.902683084947,,,,,AMP_prac,left,1.2005177714163437,,,,,,,,,,,,,,,,,,,,,6,,,left,0.6991877427790314,,,,,,,,,,,,,,1003,2019_May_08_1256,mf_amp_cond1,3.0.7,59.98199375716062,
drug,,&&&&,images/symbols/symbol_16.png,condition_files/AMP_rep1.csv,right,sanctity.vice,,,,,,,,,,,,,,,,,,,,,0,3,3,0,0,24,24,24,,,,,,,,,,,,,1317.6861892546294,,,,,AMP_prac,left,1.2005177714163437,,,,,,,,,,,,,,,,,,,,,6,,,left,0.5655479287961498,,,,,,,,,,,,,,1003,2019_May_08_1256,mf_amp_cond1,3.0.7,59.98199375716062,
victim,,&&&&&&,images/symbols/symbol_25.png,condition_files/AMP_rep1.csv,right,care.vice,,,,,,,,,,,,,,,,,,,,,0,3,3,0,0,25,25,25,,,,,,,,,,,,,1318.5364110971568,,,,,AMP_prac,left,1.2005177714163437,,,,,,,,,,,,,,,,,,,,,6,,,left,0.6320965060731396,,,,,,,,,,,,,,1003,2019_May_08_1256,mf_amp_cond1,3.0.7,59.98199375716062,
harassment,,&&&&&&&&&&,images/symbols/symbol_51.png,condition_files/AMP_rep1.csv,right,sanctity.vice,,,,,,,,,,,,,,,,,,,,,0,3,3,0,0,26,26,26,,,,,,,,,,,,,1319.3866063198075,,,,,AMP_prac,left,1.2005177714163437,,,,,,,,,,,,,,,,,,,,,6,,,left,0.6170729876030236,,,,,,,,,,,,,,1003,2019_May_08_1256,mf_amp_cond1,3.0.7,59.98199375716062,
ensure,,&&&&&&,images/symbols/symbol_34.png,condition_files/AMP_rep1.csv,left,fairness.virtue,,,,,,,,,,,,,,,,,,,,,0,3,3,0,0,27,27,27,,,,,,,,,,,,,1320.203485720558,,,,,AMP_prac,left,1.2005177714163437,,,,,,,,,,,,,,,,,,,,,6,,,left,0.5980359708191827,,,,,,,,,,,,,,1003,2019_May_08_1256,mf_amp_cond1,3.0.7,59.98199375716062,
opportunity,,&&&&&&&&&&&,images/symbols/symbol_42.png,condition_files/AMP_rep1.csv,left,fairness.virtue,,,,,,,,,,,,,,,,,,,,,0,3,3,0,0,28,28,28,,,,,,,,,,,,,1321.1203857114306,,,,,AMP_prac,left,1.2005177714163437,,,,,,,,,,,,,,,,,,,,,6,,,left,0.6987711265683174,,,,,,,,,,,,,,1003,2019_May_08_1256,mf_amp_cond1,3.0.7,59.98199375716062,
abuse,,&&&&&,images/symbols/symbol_19.png,condition_files/AMP_rep1.csv,right,sanctity.vice,,,,,,,,,,,,,,,,,,,,,0,3,3,0,0,29,29,29,,,,,,,,,,,,,1322.0872911867918,,,,,AMP_prac,left,1.2005177714163437,,,,,,,,,,,,,,,,,,,,,6,,,left,0.7488510181428865,,,,,,,,,,,,,,1003,2019_May_08_1256,mf_amp_cond1,3.0.7,59.98199375716062,
promote,,&&&&&&&,images/symbols/symbol_6.png,condition_files/AMP_rep1.csv,left,sanctity.virtue,,,,,,,,,,,,,,,,,,,,,0,3,3,0,0,30,30,30,,,,,,,,,,,,,1322.9041619279888,,,,,AMP_prac,left,1.2005177714163437,,,,,,,,,,,,,,,,,,,,,6,,,left,0.583739526104182,,,,,,,,,,,,,,1003,2019_May_08_1256,mf_amp_cond1,3.0.7,59.98199375716062,
jipte,,&&&&&,images/symbols/symbol_31.png,condition_files/AMP_rep1.csv,None,nonword,,,,,,,,,,,,,,,,,,,,,0,3,3,0,0,31,31,31,,,,,,,,,,,,,1323.7043625707738,,,,,AMP_prac,left,1.2005177714163437,,,,,,,,,,,,,,,,,,,,,6,,,left,0.582480056094937,,,,,,,,,,,,,,1003,2019_May_08_1256,mf_amp_cond1,3.0.7,59.98199375716062,
commitment,,&&&&&&&&&&,images/symbols/symbol_33.png,condition_files/AMP_rep1.csv,left,sanctity.virtue,,,,,,,,,,,,,,,,,,,,,0,3,3,0,0,32,32,32,,,,,,,,,,,,,1324.521231708466,,,,,AMP_prac,left,1.2005177714163437,,,,,,,,,,,,,,,,,,,,,6,,,left,0.5985593867953867,,,,,,,,,,,,,,1003,2019_May_08_1256,mf_amp_cond1,3.0.7,59.98199375716062,
health,,&&&&&&,images/symbols/symbol_20.png,condition_files/AMP_rep1.csv,left,care.virtue,,,,,,,,,,,,,,,,,,,,,0,3,3,0,0,33,33,33,,,,,,,,,,,,,1325.321485270164,,,,,AMP_prac,left,1.2005177714163437,,,,,,,,,,,,,,,,,,,,,6,,,left,0.5826647910289466,,,,,,,,,,,,,,1003,2019_May_08_1256,mf_amp_cond1,3.0.7,59.98199375716062,
civilians,,&&&&&&&&&,images/symbols/symbol_70.png,condition_files/AMP_rep1.csv,right,care.vice,,,,,,,,,,,,,,,,,,,,,0,3,3,0,0,34,34,34,,,,,,,,,,,,,1326.0882927974453,,,,,AMP_prac,left,1.2005177714163437,,,,,,,,,,,,,,,,,,,,,6,,,left,0.5337321173865348,,,,,,,,,,,,,,1003,2019_May_08_1256,mf_amp_cond1,3.0.7,59.98199375716062,
forced,,&&&&&&,images/symbols/symbol_68.png,condition_files/AMP_rep1.csv,right,fairness.vice,,,,,,,,,,,,,,,,,,,,,0,3,3,0,0,35,35,35,,,,,,,,,,,,,1326.9718413663795,,,,,AMP_prac,left,1.2005177714163437,,,,,,,,,,,,,,,,,,,,,6,,,right,0.6504231267608702,,,,,,,,,,,,,,1003,2019_May_08_1256,mf_amp_cond1,3.0.7,59.98199375716062,
rejected,,&&&&&&&&,images/symbols/symbol_54.png,condition_files/AMP_rep1.csv,right,authority.vice,,,,,,,,,,,,,,,,,,,,,0,3,3,0,0,36,36,36,,,,,,,,,,,,,1327.872095954488,,,,,AMP_prac,left,1.2005177714163437,,,,,,,,,,,,,,,,,,,,,6,,,right,0.6814615112962201,,,,,,,,,,,,,,1003,2019_May_08_1256,mf_amp_cond1,3.0.7,59.98199375716062,
sexual,,&&&&&&,images/symbols/symbol_78.png,condition_files/AMP_rep1.csv,right,sanctity.vice,,,,,,,,,,,,,,,,,,,,,0,3,3,0,0,37,37,37,,,,,,,,,,,,,1328.738971859333,,,,,AMP_prac,left,1.2005177714163437,,,,,,,,,,,,,,,,,,,,,6,,,left,0.6485908495960757,,,,,,,,,,,,,,1003,2019_May_08_1256,mf_amp_cond1,3.0.7,59.98199375716062,
groups,,&&&&&&,images/symbols/symbol_61.png,condition_files/AMP_rep1.csv,right,loyalty.vice,,,,,,,,,,,,,,,,,,,,,0,3,3,0,0,38,38,38,,,,,,,,,,,,,1329.5058351918124,,,,,AMP_prac,left,1.2005177714163437,,,,,,,,,,,,,,,,,,,,,6,,,left,0.5488101583905518,,,,,,,,,,,,,,1003,2019_May_08_1256,mf_amp_cond1,3.0.7,59.98199375716062,
good,,&&&&,images/symbols/symbol_49.png,condition_files/AMP_rep1.csv,left,care.virtue,,,,,,,,,,,,,,,,,,,,,0,3,3,0,0,39,39,39,,,,,,,,,,,,,1330.2726667730603,,,,,AMP_prac,left,1.2005177714163437,,,,,,,,,,,,,,,,,,,,,6,,,left,0.5337295517092571,,,,,,,,,,,,,,1003,2019_May_08_1256,mf_amp_cond1,3.0.7,59.98199375716062,
useful,,&&&&&&,images/symbols/symbol_44.png,condition_files/AMP_rep1.csv,left,authority.virtue,,,,,,,,,,,,,,,,,,,,,0,3,3,0,0,40,40,40,,,,,,,,,,,,,1331.3229269096628,,,,,AMP_prac,left,1.2005177714163437,,,,,,,,,,,,,,,,,,,,,6,,,left,0.8315340903354809,,,,,,,,,,,,,,1003,2019_May_08_1256,mf_amp_cond1,3.0.7,59.98199375716062,
unpleasant,,&&&&&&&&&,images/symbols/symbol_3.png,condition_files/AMP_rep1.csv,left,control,,,,,,,,,,,,,,,,,,,,,0,3,3,0,0,41,41,41,,,,,,,,,,,,,1332.3065092184115,,,,,AMP_prac,left,1.2005177714163437,,,,,,,,,,,,,,,,,,,,,6,,,left,0.7654422192135826,,,,,,,,,,,,,,1003,2019_May_08_1256,mf_amp_cond1,3.0.7,59.98199375716062,
perfect,,&&&&&&&,images/symbols/symbol_5.png,condition_files/AMP_rep1.csv,left,sanctity.virtue,,,,,,,,,,,,,,,,,,,,,0,3,3,0,0,42,42,42,,,,,,,,,,,,,1333.0400323543,,,,,AMP_prac,left,1.2005177714163437,,,,,,,,,,,,,,,,,,,,,6,,,left,0.5155158247798681,,,,,,,,,,,,,,1003,2019_May_08_1256,mf_amp_cond1,3.0.7,59.98199375716062,
hate,,&&&&,images/symbols/symbol_8.png,condition_files/AMP_rep1.csv,right,fairness.vice,,,,,,,,,,,,,,,,,,,,,0,3,3,0,0,43,43,43,,,,,,,,,,,,,1333.8902397643542,,,,,AMP_prac,left,1.2005177714163437,,,,,,,,,,,,,,,,,,,,,6,,,left,0.6322777132736519,,,,,,,,,,,,,,1003,2019_May_08_1256,mf_amp_cond1,3.0.7,59.98199375716062,
wreize,,&&&&&&,images/symbols/symbol_26.png,condition_files/AMP_rep1.csv,None,nonword,,,,,,,,,,,,,,,,,,,,,0,3,3,0,0,44,44,44,,,,,,,,,,,,,1334.8738163001835,,,,,AMP_prac,left,1.2005177714163437,,,,,,,,,,,,,,,,,,,,,6,,,left,0.765354341827333,,,,,,,,,,,,,,1003,2019_May_08_1256,mf_amp_cond1,3.0.7,59.98199375716062,
actively,,&&&&&&&&,images/symbols/symbol_37.png,condition_files/AMP_rep1.csv,left,authority.virtue,,,,,,,,,,,,,,,,,,,,,0,3,3,0,0,45,45,45,,,,,,,,,,,,,1335.8407288312446,,,,,AMP_prac,left,1.2005177714163437,,,,,,,,,,,,,,,,,,,,,6,,,right,0.7337704114615917,,,,,,,,,,,,,,1003,2019_May_08_1256,mf_amp_cond1,3.0.7,59.98199375716062,
increase,,&&&&&&&&,images/symbols/symbol_15.png,condition_files/AMP_rep1.csv,left,care.virtue,,,,,,,,,,,,,,,,,,,,,0,3,3,0,0,46,46,46,,,,,,,,,,,,,1336.6742619735887,,,,,AMP_prac,left,1.2005177714163437,,,,,,,,,,,,,,,,,,,,,6,,,right,0.6148728438420221,,,,,,,,,,,,,,1003,2019_May_08_1256,mf_amp_cond1,3.0.7,59.98199375716062,
hope,,&&&&,images/symbols/symbol_2.png,condition_files/AMP_rep1.csv,left,loyalty.virtue,,,,,,,,,,,,,,,,,,,,,0,3,3,0,0,47,47,47,,,,,,,,,,,,,1337.5411924009677,,,,,AMP_prac,left,1.2005177714163437,,,,,,,,,,,,,,,,,,,,,6,,,left,0.6489930333336815,,,,,,,,,,,,,,1003,2019_May_08_1256,mf_amp_cond1,3.0.7,59.98199375716062,
