words,mask,masks,symbols,conditionfile,corr_ans,category,LDT_trials_cond2.thisRepN,LDT_trials_cond2.thisTrialN,LDT_trials_cond2.thisN,LDT_trials_cond2.thisIndex,LDT_pracs_1.thisRepN,LDT_pracs_1.thisTrialN,LDT_pracs_1.thisN,LDT_pracs_1.thisIndex,LDT_trials_1.thisRepN,LDT_trials_1.thisTrialN,LDT_trials_1.thisN,LDT_trials_1.thisIndex,logo_trials.thisRepN,logo_trials.thisTrialN,logo_trials.thisN,logo_trials.thisIndex,AMP_pracs.thisRepN,AMP_pracs.thisTrialN,AMP_pracs.thisN,AMP_pracs.thisIndex,trials_loop.thisRepN,trials_loop.thisTrialN,trials_loop.thisN,trials_loop.thisIndex,AMP_trials.thisRepN,AMP_trials.thisTrialN,AMP_trials.thisN,AMP_trials.thisIndex,memtask_trials.thisRepN,memtask_trials.thisTrialN,memtask_trials.thisN,memtask_trials.thisIndex,LDT_cond1.thisRepN,LDT_cond1.thisTrialN,LDT_cond1.thisN,LDT_cond1.thisIndex,begin_key.keys,begin_key.rt,key_resp_instr.keys,key_resp_instr.rt,exp_time,key_resp_LDT_instr.keys,key_resp_LDT_instr.rt,resp_LDT_prac.keys,resp_LDT_prac.rt,task,keypress,RT,corr,resp_LDT_ready.keys,resp_LDT_ready.rt,resp_LDT_trial.keys,resp_LDT_trial.rt,LDT_rating.response,LDT_rating.rt,resp_sym_rate.keys,resp_sym_rate.rt,sym_resp_1.keys,sym_resp_1.rt,sym_resp_2.keys,sym_resp_2.rt,sym_resp_trial.keys,sym_resp_trial.rt,symbol_index,resp_AMP_ready1.keys,resp_AMP_ready1.rt,resp_AMP.keys,resp_AMP.rt,prime_dur,resp_AMP_ready.keys,resp_AMP_ready.rt,resp_AMP_trials.keys,resp_AMP_trials.rt,rest_key_resp.keys,rest_key_resp.rt,AMP_nonword_rating.response,AMP_nonword_rating.rt,AMP_word_rating.response,AMP_word_rating.rt,AMP_random_rating.response,AMP_random_rating.rt,key_resp_instr_memtask.keys,key_resp_instr_memtask.rt,resp_memtask.keys,resp_memtask.corr,resp_memtask.rt,participant ID,date,expName,psychopyVersion,frameRate,
,,,,,,,,,,,,,,,,,,,,,,,,,,,,,,,,,,,,,,,,,,,right,1228.0197970614536,,,,,,,,,,,,,,,,,,,,,,,,,,,,,,,,,,,,,,,,,,,,,,,,,1005,2019_May_08_1349,mf_amp_cond1,3.0.7,59.98391702322331,
,,,,,,,,,,,,,,,,,,,,,,,,,,,,,,,,,,,,,,,,,,,,,right,4.334619632922113,,,,,,,,,,,,,,,,,,,,,,,,,,,,,,,,,,,,,,,,,,,,,,,1005,2019_May_08_1349,mf_amp_cond1,3.0.7,59.98391702322331,
bisebell,&&&&&&&,,,,,,0,0,0,0,0,0,0,1,,,,,,,,,,,,,,,,,,,,,,,,,,,,,,,,,1330.9830400245264,right,1.567341824178584,left,1.4172601049067453,LDT_prac,left,1.4172601049067453,0,,,,,,,,,,,,,,,,,,,,,,,,,,,,,,,,,,,,,,1005,2019_May_08_1349,mf_amp_cond1,3.0.7,59.98391702322331,
keyboard,&&&&&&&,,,,,,0,0,0,0,0,1,1,0,,,,,,,,,,,,,,,,,,,,,,,,,,,,,,,,,1333.1833390634274,,,left,1.0336967300390825,LDT_prac,left,1.0336967300390825,0,,,,,,,,,,,,,,,,,,,,,,,,,,,,,,,,,,,,,,1005,2019_May_08_1349,mf_amp_cond1,3.0.7,59.98391702322331,
,,,,,,,0,0,0,0,,,,,0,0,0,0,,,,,,,,,,,,,,,,,,,,,,,,,,,,,1352.638192642131,,,,,LDT_prac,left,1.0336967300390825,0,right,1.417239258182235,left,0.9002818483859301,,,,,,,,,,,,,,,,,,,,,,,,,,,,,,,,,,1005,2019_May_08_1349,mf_amp_cond1,3.0.7,59.98391702322331,
,,,,,,,0,0,0,0,,,,,,,,,,,,,,,,,,,,,,,,,,,,,,,,,,,,,,,,,,,,,,,,,,1,11.638,,,,,,,,,,,,,,,,,,,,,,,,,,,,,,,,1005,2019_May_08_1349,mf_amp_cond1,3.0.7,59.98391702322331,
,,,,,,,,,,,,,,,,,,,,,,,,,,,,,,,,,,,,,,,,,,,,,,,,,,,,,,,,,,,,,,right,2.234184672939591,,,,,,,,,,,,,,,,,,,,,,,,,,,,,,1005,2019_May_08_1349,mf_amp_cond1,3.0.7,59.98391702322331,
,,,,,,,,,,,,,,,,,,,,,,,,,,,,,,,,,,,,,,,,,,,,,,,1438.5593033070909,,,,,,,,,,,,,,,,,left,2.3674417606089264,,,,,,,,,,,,,,,,,,,,,,,,,,,,1005,2019_May_08_1349,mf_amp_cond1,3.0.7,59.98391702322331,
,,,,,,,,,,,,,,,,,,,,,,,,,,,,,,,,,,,,,,,,,,,,,,,,,,,,,,,,,,,,,,,,,,right,2.784256065147929,,,,,,,,,,,,,,,,,,,,,,,,,,1005,2019_May_08_1349,mf_amp_cond1,3.0.7,59.98391702322331,
,,,,,,,,,,,,,,,,,,,,,,,,,,,,,,,,,,,,,,,,,,,,,,,1459.7477684327168,,,,,,,,,,,,,,,,,,,,,left,0.5978682406712323,12,right,1.433993331505917,,,,,,,,,,,,,,,,,,,,,1005,2019_May_08_1349,mf_amp_cond1,3.0.7,59.98391702322331,
car,,&&&,images/symbols/symbol_9.png,,,,,,,,,,,,,,,,,,,,0,0,0,0,,,,,,,,,,,,,,,,,,,,,1625.6890016895486,,,,,AMP_prac,left,1.2338623496470973,,,,,,,,,,,,,,,,,,,left,1.2338623496470973,1,,,,,,,,,,,,,,,,,,1005,2019_May_08_1349,mf_amp_cond1,3.0.7,59.98391702322331,
banana,,&&&&&&,images/symbols/symbol_68.png,,,,,,,,,,,,,,,,,,,,0,1,1,1,,,,,,,,,,,,,,,,,,,,,1628.3728885421297,,,,,AMP_prac,left,2.450832395697944,,,,,,,,,,,,,,,,,,,left,2.450832395697944,1,,,,,,,,,,,,,,,,,,1005,2019_May_08_1349,mf_amp_cond1,3.0.7,59.98391702322331,
keyboard,,&&&&&&&&,images/symbols/symbol_40.png,,,,,,,,,,,,,,,,,,,,0,2,2,2,,,,,,,,,,,,,,,,,,,,,1629.423144989647,,,,,AMP_prac,left,0.8322934532770887,,,,,,,,,,,,,,,,,,,left,0.8322934532770887,1,,,,,,,,,,,,,,,,,,1005,2019_May_08_1349,mf_amp_cond1,3.0.7,59.98391702322331,
scarf,,&&&&&,images/symbols/symbol_54.png,,,,,,,,,,,,,,,,,,,,0,3,3,3,,,,,,,,,,,,,,,,,,,,,1630.540119782323,,,,,AMP_prac,left,0.8838144983164966,,,,,,,,,,,,,,,,,,,left,0.8838144983164966,1,,,,,,,,,,,,,,,,,,1005,2019_May_08_1349,mf_amp_cond1,3.0.7,59.98391702322331,
,,,,,,,,,,,,,,,,,,,,,,,,,,,,,,,,,,,,,,,,,,,,,,,,,,,,,,,,,,,,,,,,,,,,,,,,,,,,right,4.8514192486181855,,,,,,,,,,,,,,,,1005,2019_May_08_1349,mf_amp_cond1,3.0.7,59.98391702322331,
useful,,&&&&&&,images/symbols/symbol_82.png,condition_files/AMP_rep2.csv,left,authority.virtue,,,,,,,,,,,,,,,,,,,,,0,0,0,1,0,0,0,0,,,,,,,,,,,,,1656.513370160479,,,,,AMP_prac,left,0.8838144983164966,,,,,,,,,,,,,,,,,,,,,1,,,left,0.8504670319380239,,,,,,,,,,,,,,1005,2019_May_08_1349,mf_amp_cond1,3.0.7,59.98391702322331,
betrayal,,&&&&&&&&,images/symbols/symbol_78.png,condition_files/AMP_rep2.csv,right,loyalty.vice,,,,,,,,,,,,,,,,,,,,,0,0,0,1,0,1,1,1,,,,,,,,,,,,,1657.513404477504,,,,,AMP_prac,left,0.8838144983164966,,,,,,,,,,,,,,,,,,,,,1,,,left,0.7820963391568512,,,,,,,,,,,,,,1005,2019_May_08_1349,mf_amp_cond1,3.0.7,59.98391702322331,
strength,,&&&&&&&&,images/symbols/symbol_4.png,condition_files/AMP_rep2.csv,left,sanctity.virtue,,,,,,,,,,,,,,,,,,,,,0,0,0,1,0,2,2,2,,,,,,,,,,,,,1658.61374674947,,,,,AMP_prac,left,0.8838144983164966,,,,,,,,,,,,,,,,,,,,,1,,,left,0.8826496445108205,,,,,,,,,,,,,,1005,2019_May_08_1349,mf_amp_cond1,3.0.7,59.98391702322331,
abuse,,&&&&&,images/symbols/symbol_52.png,condition_files/AMP_rep2.csv,right,sanctity.vice,,,,,,,,,,,,,,,,,,,,,0,0,0,1,0,3,3,3,,,,,,,,,,,,,1659.4472220547032,,,,,AMP_prac,left,0.8838144983164966,,,,,,,,,,,,,,,,,,,,,1,,,left,0.6003727403003722,,,,,,,,,,,,,,1005,2019_May_08_1349,mf_amp_cond1,3.0.7,59.98391702322331,
hope,,&&&&,images/symbols/symbol_48.png,condition_files/AMP_rep2.csv,left,loyalty.virtue,,,,,,,,,,,,,,,,,,,,,0,0,0,1,0,4,4,4,,,,,,,,,,,,,1660.3974579118658,,,,,AMP_prac,left,0.8838144983164966,,,,,,,,,,,,,,,,,,,,,1,,,left,0.7325563792837784,,,,,,,,,,,,,,1005,2019_May_08_1349,mf_amp_cond1,3.0.7,59.98391702322331,
skypped,,&&&&&&&,images/symbols/symbol_71.png,condition_files/AMP_rep2.csv,None,nonword,,,,,,,,,,,,,,,,,,,,,0,0,0,1,0,5,5,5,,,,,,,,,,,,,1661.2143225054024,,,,,AMP_prac,left,0.8838144983164966,,,,,,,,,,,,,,,,,,,,,1,,,right,0.5993955075973645,,,,,,,,,,,,,,1005,2019_May_08_1349,mf_amp_cond1,3.0.7,59.98391702322331,
compassion,,&&&&&&&&&&,images/symbols/symbol_45.png,condition_files/AMP_rep2.csv,left,care.virtue,,,,,,,,,,,,,,,,,,,,,0,0,0,1,0,6,6,6,,,,,,,,,,,,,1662.9314160285285,,,,,AMP_prac,left,0.8838144983164966,,,,,,,,,,,,,,,,,,,,,1,,,left,1.4995484267128631,,,,,,,,,,,,,,1005,2019_May_08_1349,mf_amp_cond1,3.0.7,59.98391702322331,
lighnde,,&&&&&&&,images/symbols/symbol_35.png,condition_files/AMP_rep2.csv,None,nonword,,,,,,,,,,,,,,,,,,,,,0,0,0,1,0,7,7,7,,,,,,,,,,,,,1663.9483448941028,,,,,AMP_prac,left,0.8838144983164966,,,,,,,,,,,,,,,,,,,,,1,,,left,0.7994677978567779,,,,,,,,,,,,,,1005,2019_May_08_1349,mf_amp_cond1,3.0.7,59.98391702322331,
shot,,&&&&,images/symbols/symbol_41.png,condition_files/AMP_rep2.csv,right,care.vice,,,,,,,,,,,,,,,,,,,,,0,0,0,1,0,8,8,8,,,,,,,,,,,,,1664.8319477174664,,,,,AMP_prac,left,0.8838144983164966,,,,,,,,,,,,,,,,,,,,,1,,,left,0.6665779342874885,,,,,,,,,,,,,,1005,2019_May_08_1349,mf_amp_cond1,3.0.7,59.98391702322331,
support,,&&&&&&&,images/symbols/symbol_6.png,condition_files/AMP_rep2.csv,left,loyalty.virtue,,,,,,,,,,,,,,,,,,,,,0,0,0,1,0,9,9,9,,,,,,,,,,,,,1665.5987341837026,,,,,AMP_prac,left,0.8838144983164966,,,,,,,,,,,,,,,,,,,,,1,,,right,0.5336989751085639,,,,,,,,,,,,,,1005,2019_May_08_1349,mf_amp_cond1,3.0.7,59.98391702322331,
serial,,&&&&&&,images/symbols/symbol_70.png,condition_files/AMP_rep2.csv,right,sanctity.vice,,,,,,,,,,,,,,,,,,,,,0,0,0,1,0,10,10,10,,,,,,,,,,,,,1666.432318533538,,,,,AMP_prac,left,0.8838144983164966,,,,,,,,,,,,,,,,,,,,,1,,,right,0.6003813998540863,,,,,,,,,,,,,,1005,2019_May_08_1349,mf_amp_cond1,3.0.7,59.98391702322331,
lies,,&&&&,images/symbols/symbol_26.png,condition_files/AMP_rep2.csv,right,fairness.vice,,,,,,,,,,,,,,,,,,,,,0,0,0,1,0,11,11,11,,,,,,,,,,,,,1667.182520266273,,,,,AMP_prac,left,0.8838144983164966,,,,,,,,,,,,,,,,,,,,,1,,,left,0.5323946083663031,,,,,,,,,,,,,,1005,2019_May_08_1349,mf_amp_cond1,3.0.7,59.98391702322331,
powerful,,&&&&&&&&,images/symbols/symbol_67.png,condition_files/AMP_rep2.csv,left,authority.virtue,,,,,,,,,,,,,,,,,,,,,0,0,0,1,0,12,12,12,,,,,,,,,,,,,1667.916025975719,,,,,AMP_prac,left,0.8838144983164966,,,,,,,,,,,,,,,,,,,,,1,,,left,0.5158605485921726,,,,,,,,,,,,,,1005,2019_May_08_1349,mf_amp_cond1,3.0.7,59.98391702322331,
sexual,,&&&&&&,images/symbols/symbol_16.png,condition_files/AMP_rep2.csv,right,sanctity.vice,,,,,,,,,,,,,,,,,,,,,0,0,0,1,0,13,13,13,,,,,,,,,,,,,1668.7828994209412,,,,,AMP_prac,left,0.8838144983164966,,,,,,,,,,,,,,,,,,,,,1,,,left,0.6495275158667937,,,,,,,,,,,,,,1005,2019_May_08_1349,mf_amp_cond1,3.0.7,59.98391702322331,
increase,,&&&&&&&&,images/symbols/symbol_1.png,condition_files/AMP_rep2.csv,left,care.virtue,,,,,,,,,,,,,,,,,,,,,0,0,0,1,0,14,14,14,,,,,,,,,,,,,1669.5164282222977,,,,,AMP_prac,left,0.8838144983164966,,,,,,,,,,,,,,,,,,,,,1,,,left,0.5160151353338733,,,,,,,,,,,,,,1005,2019_May_08_1349,mf_amp_cond1,3.0.7,59.98391702322331,
pleasant,,&&&&&&&,images/symbols/symbol_68.png,condition_files/AMP_rep2.csv,right,control,,,,,,,,,,,,,,,,,,,,,0,0,0,1,0,15,15,15,,,,,,,,,,,,,1670.216555355466,,,,,AMP_prac,left,0.8838144983164966,,,,,,,,,,,,,,,,,,,,,1,,,left,0.4670220026746392,,,,,,,,,,,,,,1005,2019_May_08_1349,mf_amp_cond1,3.0.7,59.98391702322331,
critics,,&&&&&&&,images/symbols/symbol_44.png,condition_files/AMP_rep2.csv,right,loyalty.vice,,,,,,,,,,,,,,,,,,,,,0,0,0,1,0,16,16,16,,,,,,,,,,,,,1671.0167701094178,,,,,AMP_prac,left,0.8838144983164966,,,,,,,,,,,,,,,,,,,,,1,,,right,0.582109039532952,,,,,,,,,,,,,,1005,2019_May_08_1349,mf_amp_cond1,3.0.7,59.98391702322331,
fighters,,&&&&&&&&,images/symbols/symbol_32.png,condition_files/AMP_rep2.csv,right,authority.vice,,,,,,,,,,,,,,,,,,,,,0,0,0,1,0,17,17,17,,,,,,,,,,,,,1671.766923092655,,,,,AMP_prac,left,0.8838144983164966,,,,,,,,,,,,,,,,,,,,,1,,,left,0.5326996127841994,,,,,,,,,,,,,,1005,2019_May_08_1349,mf_amp_cond1,3.0.7,59.98391702322331,
fear,,&&&&,images/symbols/symbol_75.png,condition_files/AMP_rep2.csv,right,sanctity.vice,,,,,,,,,,,,,,,,,,,,,0,0,0,1,0,18,18,18,,,,,,,,,,,,,1673.8174447752535,,,,,AMP_prac,left,0.8838144983164966,,,,,,,,,,,,,,,,,,,,,1,,,left,1.8330208454281092,,,,,,,,,,,,,,1005,2019_May_08_1349,mf_amp_cond1,3.0.7,59.98391702322331,
terrorists,,&&&&&&&&&&,images/symbols/symbol_18.png,condition_files/AMP_rep2.csv,right,fairness.vice,,,,,,,,,,,,,,,,,,,,,0,0,0,1,0,19,19,19,,,,,,,,,,,,,1675.2677896771347,,,,,AMP_prac,left,0.8838144983164966,,,,,,,,,,,,,,,,,,,,,1,,,right,1.2171839660732076,,,,,,,,,,,,,,1005,2019_May_08_1349,mf_amp_cond1,3.0.7,59.98391702322331,
freedom,,&&&&&&&,images/symbols/symbol_9.png,condition_files/AMP_rep2.csv,left,sanctity.virtue,,,,,,,,,,,,,,,,,,,,,0,0,0,1,0,20,20,20,,,,,,,,,,,,,1676.1013409929583,,,,,AMP_prac,left,0.8838144983164966,,,,,,,,,,,,,,,,,,,,,1,,,right,0.615697366418317,,,,,,,,,,,,,,1005,2019_May_08_1349,mf_amp_cond1,3.0.7,59.98391702322331,
intelligence,,&&&&&&&&&&&&,images/symbols/symbol_19.png,condition_files/AMP_rep2.csv,left,loyalty.virtue,,,,,,,,,,,,,,,,,,,,,0,0,0,1,0,21,21,21,,,,,,,,,,,,,1676.9848726164782,,,,,AMP_prac,left,0.8838144983164966,,,,,,,,,,,,,,,,,,,,,1,,,left,0.6660990997916088,,,,,,,,,,,,,,1005,2019_May_08_1349,mf_amp_cond1,3.0.7,59.98391702322331,
help,,&&&&,images/symbols/symbol_55.png,condition_files/AMP_rep2.csv,left,care.virtue,,,,,,,,,,,,,,,,,,,,,0,0,0,1,0,22,22,22,,,,,,,,,,,,,1678.0518087304663,,,,,AMP_prac,left,0.8838144983164966,,,,,,,,,,,,,,,,,,,,,1,,,left,0.8492816521320492,,,,,,,,,,,,,,1005,2019_May_08_1349,mf_amp_cond1,3.0.7,59.98391702322331,
victim,,&&&&&&,images/symbols/symbol_39.png,condition_files/AMP_rep2.csv,right,care.vice,,,,,,,,,,,,,,,,,,,,,0,0,0,1,0,23,23,23,,,,,,,,,,,,,1678.8520068068756,,,,,AMP_prac,left,0.8838144983164966,,,,,,,,,,,,,,,,,,,,,1,,,right,0.582676392630674,,,,,,,,,,,,,,1005,2019_May_08_1349,mf_amp_cond1,3.0.7,59.98391702322331,
fraud,,&&&&&,images/symbols/symbol_76.png,condition_files/AMP_rep2.csv,right,fairness.vice,,,,,,,,,,,,,,,,,,,,,0,0,0,1,0,24,24,24,,,,,,,,,,,,,1679.7522302843863,,,,,AMP_prac,left,0.8838144983164966,,,,,,,,,,,,,,,,,,,,,1,,,left,0.6832162278005853,,,,,,,,,,,,,,1005,2019_May_08_1349,mf_amp_cond1,3.0.7,59.98391702322331,
slavery,,&&&&&&&,images/symbols/symbol_24.png,condition_files/AMP_rep2.csv,right,loyalty.vice,,,,,,,,,,,,,,,,,,,,,0,0,0,1,0,25,25,25,,,,,,,,,,,,,1681.352626437205,,,,,AMP_prac,left,0.8838144983164966,,,,,,,,,,,,,,,,,,,,,1,,,right,1.367228802642785,,,,,,,,,,,,,,1005,2019_May_08_1349,mf_amp_cond1,3.0.7,59.98391702322331,
praise,,&&&&&&,images/symbols/symbol_22.png,condition_files/AMP_rep2.csv,left,authority.virtue,,,,,,,,,,,,,,,,,,,,,0,0,0,1,0,26,26,26,,,,,,,,,,,,,1682.1861790359253,,,,,AMP_prac,left,0.8838144983164966,,,,,,,,,,,,,,,,,,,,,1,,,left,0.6156986493151635,,,,,,,,,,,,,,1005,2019_May_08_1349,mf_amp_cond1,3.0.7,59.98391702322331,
victims,,&&&&&&&,images/symbols/symbol_43.png,condition_files/AMP_rep2.csv,right,care.vice,,,,,,,,,,,,,,,,,,,,,0,0,0,1,0,27,27,27,,,,,,,,,,,,,1683.3031037963228,,,,,AMP_prac,left,0.8838144983164966,,,,,,,,,,,,,,,,,,,,,1,,,left,0.8993607416050509,,,,,,,,,,,,,,1005,2019_May_08_1349,mf_amp_cond1,3.0.7,59.98391702322331,
safe,,&&&&,images/symbols/symbol_36.png,condition_files/AMP_rep2.csv,left,care.virtue,,,,,,,,,,,,,,,,,,,,,0,0,0,1,0,28,28,28,,,,,,,,,,,,,1684.2200075817527,,,,,AMP_prac,left,0.8838144983164966,,,,,,,,,,,,,,,,,,,,,1,,,right,0.6995078236795962,,,,,,,,,,,,,,1005,2019_May_08_1349,mf_amp_cond1,3.0.7,59.98391702322331,
improve,,&&&&&&&,images/symbols/symbol_31.png,condition_files/AMP_rep2.csv,left,care.virtue,,,,,,,,,,,,,,,,,,,,,0,0,0,1,0,29,29,29,,,,,,,,,,,,,1685.3202844269108,,,,,AMP_prac,left,0.8838144983164966,,,,,,,,,,,,,,,,,,,,,1,,,right,0.883671136572957,,,,,,,,,,,,,,1005,2019_May_08_1349,mf_amp_cond1,3.0.7,59.98391702322331,
trust,,&&&&&,images/symbols/symbol_2.png,condition_files/AMP_rep2.csv,left,authority.virtue,,,,,,,,,,,,,,,,,,,,,0,0,0,1,0,30,30,30,,,,,,,,,,,,,1686.3372075196821,,,,,AMP_prac,left,0.8838144983164966,,,,,,,,,,,,,,,,,,,,,1,,,left,0.7995338659966365,,,,,,,,,,,,,,1005,2019_May_08_1349,mf_amp_cond1,3.0.7,59.98391702322331,
safety,,&&&&&&,images/symbols/symbol_34.png,condition_files/AMP_rep2.csv,left,care.virtue,,,,,,,,,,,,,,,,,,,,,0,0,0,1,0,31,31,31,,,,,,,,,,,,,1687.2540846853517,,,,,AMP_prac,left,0.8838144983164966,,,,,,,,,,,,,,,,,,,,,1,,,left,0.6992919793119654,,,,,,,,,,,,,,1005,2019_May_08_1349,mf_amp_cond1,3.0.7,59.98391702322331,
ensure,,&&&&&&,images/symbols/symbol_79.png,condition_files/AMP_rep2.csv,left,fairness.virtue,,,,,,,,,,,,,,,,,,,,,0,0,0,1,0,32,32,32,,,,,,,,,,,,,1688.0210337563185,,,,,AMP_prac,left,0.8838144983164966,,,,,,,,,,,,,,,,,,,,,1,,,left,0.5493969188537449,,,,,,,,,,,,,,1005,2019_May_08_1349,mf_amp_cond1,3.0.7,59.98391702322331,
army,,&&&&,images/symbols/symbol_58.png,condition_files/AMP_rep2.csv,right,loyalty.vice,,,,,,,,,,,,,,,,,,,,,0,0,0,1,0,33,33,33,,,,,,,,,,,,,1688.6877627494978,,,,,AMP_prac,left,0.8838144983164966,,,,,,,,,,,,,,,,,,,,,1,,,right,0.4336610659956932,,,,,,,,,,,,,,1005,2019_May_08_1349,mf_amp_cond1,3.0.7,59.98391702322331,
sneaze,,&&&&&&,images/symbols/symbol_38.png,condition_files/AMP_rep2.csv,None,nonword,,,,,,,,,,,,,,,,,,,,,0,0,0,1,0,34,34,34,,,,,,,,,,,,,1689.2712386961794,,,,,AMP_prac,left,0.8838144983164966,,,,,,,,,,,,,,,,,,,,,1,,,right,0.36527594074141234,,,,,,,,,,,,,,1005,2019_May_08_1349,mf_amp_cond1,3.0.7,59.98391702322331,
stailde,,&&&&&&&,images/symbols/symbol_77.png,condition_files/AMP_rep2.csv,None,nonword,,,,,,,,,,,,,,,,,,,,,0,0,0,1,0,35,35,35,,,,,,,,,,,,,1689.6713367722696,,,,,AMP_prac,left,0.8838144983164966,,,,,,,,,,,,,,,,,,,,,1,,,left,0.18275727808941156,,,,,,,,,,,,,,1005,2019_May_08_1349,mf_amp_cond1,3.0.7,59.98391702322331,
dignity,,&&&&&&&,images/symbols/symbol_64.png,condition_files/AMP_rep2.csv,left,sanctity.virtue,,,,,,,,,,,,,,,,,,,,,0,0,0,1,0,36,36,36,,,,,,,,,,,,,1690.1381169522647,,,,,AMP_prac,left,0.8838144983164966,,,,,,,,,,,,,,,,,,,,,1,,,left,0.24916099733673036,,,,,,,,,,,,,,1005,2019_May_08_1349,mf_amp_cond1,3.0.7,59.98391702322331,
shypse,,&&&&&&,images/symbols/symbol_27.png,condition_files/AMP_rep2.csv,None,nonword,,,,,,,,,,,,,,,,,,,,,0,0,0,1,0,37,37,37,,,,,,,,,,,,,1690.8216548620258,,,,,AMP_prac,left,0.8838144983164966,,,,,,,,,,,,,,,,,,,,,1,,,right,0.46599024755414575,,,,,,,,,,,,,,1005,2019_May_08_1349,mf_amp_cond1,3.0.7,59.98391702322331,
accused,,&&&&&&&,images/symbols/symbol_81.png,condition_files/AMP_rep2.csv,right,fairness.vice,,,,,,,,,,,,,,,,,,,,,0,0,0,1,0,38,38,38,,,,,,,,,,,,,1692.0052437661216,,,,,AMP_prac,left,0.8838144983164966,,,,,,,,,,,,,,,,,,,,,1,,,left,0.9504526637028903,,,,,,,,,,,,,,1005,2019_May_08_1349,mf_amp_cond1,3.0.7,59.98391702322331,
peace,,&&&&&,images/symbols/symbol_14.png,condition_files/AMP_rep2.csv,left,care.virtue,,,,,,,,,,,,,,,,,,,,,0,0,0,1,0,39,39,39,,,,,,,,,,,,,1692.6887999568135,,,,,AMP_prac,left,0.8838144983164966,,,,,,,,,,,,,,,,,,,,,1,,,right,0.4654107071692124,,,,,,,,,,,,,,1005,2019_May_08_1349,mf_amp_cond1,3.0.7,59.98391702322331,
voter,,&&&&&,images/symbols/symbol_7.png,condition_files/AMP_rep2.csv,right,fairness.vice,,,,,,,,,,,,,,,,,,,,,0,0,0,1,0,40,40,40,,,,,,,,,,,,,1693.672401240794,,,,,AMP_prac,left,0.8838144983164966,,,,,,,,,,,,,,,,,,,,,1,,,right,0.7660552253946662,,,,,,,,,,,,,,1005,2019_May_08_1349,mf_amp_cond1,3.0.7,59.98391702322331,
black,,&&&&&,images/symbols/symbol_10.png,condition_files/AMP_rep2.csv,right,loyalty.vice,,,,,,,,,,,,,,,,,,,,,0,0,0,1,0,41,41,41,,,,,,,,,,,,,1694.5726067578653,,,,,AMP_prac,left,0.8838144983164966,,,,,,,,,,,,,,,,,,,,,1,,,left,0.6827229611808434,,,,,,,,,,,,,,1005,2019_May_08_1349,mf_amp_cond1,3.0.7,59.98391702322331,
blamed,,&&&&&&,images/symbols/symbol_21.png,condition_files/AMP_rep2.csv,right,loyalty.vice,,,,,,,,,,,,,,,,,,,,,0,0,0,1,0,42,42,42,,,,,,,,,,,,,1695.3561373552075,,,,,AMP_prac,left,0.8838144983164966,,,,,,,,,,,,,,,,,,,,,1,,,right,0.5657879376085475,,,,,,,,,,,,,,1005,2019_May_08_1349,mf_amp_cond1,3.0.7,59.98391702322331,
gun,,&&&,images/symbols/symbol_13.png,condition_files/AMP_rep2.csv,right,authority.vice,,,,,,,,,,,,,,,,,,,,,0,0,0,1,0,43,43,43,,,,,,,,,,,,,1696.0562997675734,,,,,AMP_prac,left,0.8838144983164966,,,,,,,,,,,,,,,,,,,,,1,,,right,0.4823581745149568,,,,,,,,,,,,,,1005,2019_May_08_1349,mf_amp_cond1,3.0.7,59.98391702322331,
encourage,,&&&&&&&&&,images/symbols/symbol_15.png,condition_files/AMP_rep2.csv,left,authority.virtue,,,,,,,,,,,,,,,,,,,,,0,0,0,1,0,44,44,44,,,,,,,,,,,,,1696.6897868111264,,,,,AMP_prac,left,0.8838144983164966,,,,,,,,,,,,,,,,,,,,,1,,,right,0.41578607738483697,,,,,,,,,,,,,,1005,2019_May_08_1349,mf_amp_cond1,3.0.7,59.98391702322331,
death,,&&&&&,images/symbols/symbol_56.png,condition_files/AMP_rep2.csv,right,care.vice,,,,,,,,,,,,,,,,,,,,,0,0,0,1,0,45,45,45,,,,,,,,,,,,,1697.7566712892149,,,,,AMP_prac,left,0.8838144983164966,,,,,,,,,,,,,,,,,,,,,1,,,right,0.8337726122699678,,,,,,,,,,,,,,1005,2019_May_08_1349,mf_amp_cond1,3.0.7,59.98391702322331,
love,,&&&&,images/symbols/symbol_20.png,condition_files/AMP_rep2.csv,left,loyalty.virtue,,,,,,,,,,,,,,,,,,,,,0,0,0,1,0,46,46,46,,,,,,,,,,,,,1698.4235628872411,,,,,AMP_prac,left,0.8838144983164966,,,,,,,,,,,,,,,,,,,,,1,,,right,0.4493990996852517,,,,,,,,,,,,,,1005,2019_May_08_1349,mf_amp_cond1,3.0.7,59.98391702322331,
interests,,&&&&&&&&&,images/symbols/symbol_72.png,condition_files/AMP_rep2.csv,left,fairness.virtue,,,,,,,,,,,,,,,,,,,,,0,0,0,1,0,47,47,47,,,,,,,,,,,,,1699.2070213226834,,,,,AMP_prac,left,0.8838144983164966,,,,,,,,,,,,,,,,,,,,,1,,,right,0.5503613227047026,,,,,,,,,,,,,,1005,2019_May_08_1349,mf_amp_cond1,3.0.7,59.98391702322331,
drug,,&&&&,images/symbols/symbol_29.png,condition_files/AMP_rep2.csv,right,sanctity.vice,,,,,,,,,,,,,,,,,,,,,0,0,0,1,0,48,48,48,,,,,,,,,,,,,1699.8905666088685,,,,,AMP_prac,left,0.8838144983164966,,,,,,,,,,,,,,,,,,,,,1,,,left,0.46530807681847364,,,,,,,,,,,,,,1005,2019_May_08_1349,mf_amp_cond1,3.0.7,59.98391702322331,
rhailled,,&&&&&&&&,images/symbols/symbol_80.png,condition_files/AMP_rep2.csv,None,nonword,,,,,,,,,,,,,,,,,,,,,0,0,0,1,0,49,49,49,,,,,,,,,,,,,1700.7241160003468,,,,,AMP_prac,left,0.8838144983164966,,,,,,,,,,,,,,,,,,,,,1,,,left,0.616422513499856,,,,,,,,,,,,,,1005,2019_May_08_1349,mf_amp_cond1,3.0.7,59.98391702322331,
party,,&&&&&,images/symbols/symbol_62.png,condition_files/AMP_rep2.csv,left,loyalty.virtue,,,,,,,,,,,,,,,,,,,,,0,0,0,1,0,50,50,50,,,,,,,,,,,,,1701.841009651078,,,,,AMP_prac,left,0.8838144983164966,,,,,,,,,,,,,,,,,,,,,1,,,left,0.8993735703406855,,,,,,,,,,,,,,1005,2019_May_08_1349,mf_amp_cond1,3.0.7,59.98391702322331,
protesters,,&&&&&&&&&&,images/symbols/symbol_3.png,condition_files/AMP_rep2.csv,right,authority.vice,,,,,,,,,,,,,,,,,,,,,0,0,0,1,0,51,51,51,,,,,,,,,,,,,1702.6078711656155,,,,,AMP_prac,left,0.8838144983164966,,,,,,,,,,,,,,,,,,,,,1,,,left,0.5493571495171636,,,,,,,,,,,,,,1005,2019_May_08_1349,mf_amp_cond1,3.0.7,59.98391702322331,
integrity,,&&&&&&&&&,images/symbols/symbol_65.png,condition_files/AMP_rep2.csv,left,fairness.virtue,,,,,,,,,,,,,,,,,,,,,0,0,0,1,0,52,52,52,,,,,,,,,,,,,1703.2580205567647,,,,,AMP_prac,left,0.8838144983164966,,,,,,,,,,,,,,,,,,,,,1,,,left,0.4325792787130922,,,,,,,,,,,,,,1005,2019_May_08_1349,mf_amp_cond1,3.0.7,59.98391702322331,
arrests,,&&&&&&&,images/symbols/symbol_17.png,condition_files/AMP_rep2.csv,right,authority.vice,,,,,,,,,,,,,,,,,,,,,0,0,0,1,0,53,53,53,,,,,,,,,,,,,1704.0415906026028,,,,,AMP_prac,left,0.8838144983164966,,,,,,,,,,,,,,,,,,,,,1,,,left,0.566068246611394,,,,,,,,,,,,,,1005,2019_May_08_1349,mf_amp_cond1,3.0.7,59.98391702322331,
unpleasant,,&&&&&&&&&,images/symbols/symbol_37.png,condition_files/AMP_rep2.csv,left,control,,,,,,,,,,,,,,,,,,,,,0,0,0,1,0,54,54,54,,,,,,,,,,,,,1704.7417241502553,,,,,AMP_prac,left,0.8838144983164966,,,,,,,,,,,,,,,,,,,,,1,,,left,0.4670078909257427,,,,,,,,,,,,,,1005,2019_May_08_1349,mf_amp_cond1,3.0.7,59.98391702322331,
protect,,&&&&&&&,images/symbols/symbol_46.png,condition_files/AMP_rep2.csv,left,fairness.virtue,,,,,,,,,,,,,,,,,,,,,0,0,0,1,0,55,55,55,,,,,,,,,,,,,1705.3752657162258,,,,,AMP_prac,left,0.8838144983164966,,,,,,,,,,,,,,,,,,,,,1,,,left,0.41518087952863425,,,,,,,,,,,,,,1005,2019_May_08_1349,mf_amp_cond1,3.0.7,59.98391702322331,
suicide,,&&&&&&&,images/symbols/symbol_61.png,condition_files/AMP_rep2.csv,right,care.vice,,,,,,,,,,,,,,,,,,,,,0,0,0,1,0,56,56,56,,,,,,,,,,,,,1706.008707217523,,,,,AMP_prac,left,0.8838144983164966,,,,,,,,,,,,,,,,,,,,,1,,,left,0.4159788299584761,,,,,,,,,,,,,,1005,2019_May_08_1349,mf_amp_cond1,3.0.7,59.98391702322331,
strong,,&&&&&&,images/symbols/symbol_28.png,condition_files/AMP_rep2.csv,left,loyalty.virtue,,,,,,,,,,,,,,,,,,,,,0,0,0,1,0,57,57,57,,,,,,,,,,,,,1706.7422741844784,,,,,AMP_prac,left,0.8838144983164966,,,,,,,,,,,,,,,,,,,,,1,,,left,0.5158429088769481,,,,,,,,,,,,,,1005,2019_May_08_1349,mf_amp_cond1,3.0.7,59.98391702322331,
win,,&&&,images/symbols/symbol_47.png,condition_files/AMP_rep2.csv,left,fairness.virtue,,,,,,,,,,,,,,,,,,,,,0,0,0,1,0,58,58,58,,,,,,,,,,,,,1707.8924973411486,,,,,AMP_prac,left,0.8838144983164966,,,,,,,,,,,,,,,,,,,,,1,,,left,0.9328063481952995,,,,,,,,,,,,,,1005,2019_May_08_1349,mf_amp_cond1,3.0.7,59.98391702322331,
honored,,&&&&&&&,images/symbols/symbol_59.png,condition_files/AMP_rep2.csv,left,authority.virtue,,,,,,,,,,,,,,,,,,,,,0,0,0,1,0,59,59,59,,,,,,,,,,,,,1708.609372774954,,,,,AMP_prac,left,0.8838144983164966,,,,,,,,,,,,,,,,,,,,,1,,,right,0.4994685675483197,,,,,,,,,,,,,,1005,2019_May_08_1349,mf_amp_cond1,3.0.7,59.98391702322331,
violations,,&&&&&&&&&&,images/symbols/symbol_23.png,condition_files/AMP_rep2.csv,right,sanctity.vice,,,,,,,,,,,,,,,,,,,,,0,0,0,1,0,60,60,60,,,,,,,,,,,,,1709.4262659124797,,,,,AMP_prac,left,0.8838144983164966,,,,,,,,,,,,,,,,,,,,,1,,,left,0.5993730572517961,,,,,,,,,,,,,,1005,2019_May_08_1349,mf_amp_cond1,3.0.7,59.98391702322331,
graidd,,&&&&&&,images/symbols/symbol_12.png,condition_files/AMP_rep2.csv,None,nonword,,,,,,,,,,,,,,,,,,,,,0,0,0,1,0,61,61,61,,,,,,,,,,,,,1710.309760011849,,,,,AMP_prac,left,0.8838144983164966,,,,,,,,,,,,,,,,,,,,,1,,,right,0.650376781472005,,,,,,,,,,,,,,1005,2019_May_08_1349,mf_amp_cond1,3.0.7,59.98391702322331,
hate,,&&&&,images/symbols/symbol_40.png,condition_files/AMP_rep2.csv,right,fairness.vice,,,,,,,,,,,,,,,,,,,,,0,0,0,1,0,62,62,62,,,,,,,,,,,,,1711.043344618287,,,,,AMP_prac,left,0.8838144983164966,,,,,,,,,,,,,,,,,,,,,1,,,left,0.5153085900237784,,,,,,,,,,,,,,1005,2019_May_08_1349,mf_amp_cond1,3.0.7,59.98391702322331,
civilians,,&&&&&&&&&,images/symbols/symbol_33.png,condition_files/AMP_rep2.csv,right,care.vice,,,,,,,,,,,,,,,,,,,,,0,0,0,1,0,63,63,63,,,,,,,,,,,,,1711.7602174862986,,,,,AMP_prac,left,0.8838144983164966,,,,,,,,,,,,,,,,,,,,,1,,,left,0.4994486829964444,,,,,,,,,,,,,,1005,2019_May_08_1349,mf_amp_cond1,3.0.7,59.98391702322331,
credit,,&&&&&&,images/symbols/symbol_60.png,condition_files/AMP_rep2.csv,left,fairness.virtue,,,,,,,,,,,,,,,,,,,,,0,0,0,1,0,64,64,64,,,,,,,,,,,,,1712.627000167966,,,,,AMP_prac,left,0.8838144983164966,,,,,,,,,,,,,,,,,,,,,1,,,left,0.6491513117216527,,,,,,,,,,,,,,1005,2019_May_08_1349,mf_amp_cond1,3.0.7,59.98391702322331,
police,,&&&&&&,images/symbols/symbol_42.png,condition_files/AMP_rep2.csv,right,authority.vice,,,,,,,,,,,,,,,,,,,,,0,0,0,1,0,65,65,65,,,,,,,,,,,,,1713.5439648900647,,,,,AMP_prac,left,0.8838144983164966,,,,,,,,,,,,,,,,,,,,,1,,,left,0.6993814600864425,,,,,,,,,,,,,,1005,2019_May_08_1349,mf_amp_cond1,3.0.7,59.98391702322331,
free,,&&&&,images/symbols/symbol_54.png,condition_files/AMP_rep2.csv,left,fairness.virtue,,,,,,,,,,,,,,,,,,,,,0,0,0,1,0,66,66,66,,,,,,,,,,,,,1714.21072018228,,,,,AMP_prac,left,0.8838144983164966,,,,,,,,,,,,,,,,,,,,,1,,,left,0.4491752373287454,,,,,,,,,,,,,,1005,2019_May_08_1349,mf_amp_cond1,3.0.7,59.98391702322331,
hand,,&&&&,images/symbols/symbol_25.png,condition_files/AMP_rep2.csv,left,sanctity.virtue,,,,,,,,,,,,,,,,,,,,,0,0,0,1,0,67,67,67,,,,,,,,,,,,,1715.0443208889337,,,,,AMP_prac,left,0.8838144983164966,,,,,,,,,,,,,,,,,,,,,1,,,left,0.6160559309646487,,,,,,,,,,,,,,1005,2019_May_08_1349,mf_amp_cond1,3.0.7,59.98391702322331,
faith,,&&&&&,images/symbols/symbol_66.png,condition_files/AMP_rep2.csv,left,sanctity.virtue,,,,,,,,,,,,,,,,,,,,,0,0,0,1,0,68,68,68,,,,,,,,,,,,,1715.7110944621963,,,,,AMP_prac,left,0.8838144983164966,,,,,,,,,,,,,,,,,,,,,1,,,left,0.44908319087699056,,,,,,,,,,,,,,1005,2019_May_08_1349,mf_amp_cond1,3.0.7,59.98391702322331,
gnoozz,,&&&&&&,images/symbols/symbol_69.png,condition_files/AMP_rep2.csv,None,nonword,,,,,,,,,,,,,,,,,,,,,0,0,0,1,0,69,69,69,,,,,,,,,,,,,1716.4612763101468,,,,,AMP_prac,left,0.8838144983164966,,,,,,,,,,,,,,,,,,,,,1,,,left,0.5327127622440457,,,,,,,,,,,,,,1005,2019_May_08_1349,mf_amp_cond1,3.0.7,59.98391702322331,
rebels,,&&&&&&,images/symbols/symbol_53.png,condition_files/AMP_rep2.csv,right,authority.vice,,,,,,,,,,,,,,,,,,,,,0,0,0,1,0,70,70,70,,,,,,,,,,,,,1717.261472141603,,,,,AMP_prac,left,0.8838144983164966,,,,,,,,,,,,,,,,,,,,,1,,,left,0.5828710694331676,,,,,,,,,,,,,,1005,2019_May_08_1349,mf_amp_cond1,3.0.7,59.98391702322331,
rejected,,&&&&&&&&,images/symbols/symbol_51.png,condition_files/AMP_rep2.csv,right,authority.vice,,,,,,,,,,,,,,,,,,,,,0,0,0,1,0,71,71,71,,,,,,,,,,,,,1718.1284122966463,,,,,AMP_prac,left,0.8838144983164966,,,,,,,,,,,,,,,,,,,,,1,,,left,0.6499444514047354,,,,,,,,,,,,,,1005,2019_May_08_1349,mf_amp_cond1,3.0.7,59.98391702322331,
illegal,,&&&&&&&,images/symbols/symbol_63.png,condition_files/AMP_rep2.csv,right,fairness.vice,,,,,,,,,,,,,,,,,,,,,0,0,0,1,0,72,72,72,,,,,,,,,,,,,1719.0452583524166,,,,,AMP_prac,left,0.8838144983164966,,,,,,,,,,,,,,,,,,,,,1,,,left,0.6996438087662682,,,,,,,,,,,,,,1005,2019_May_08_1349,mf_amp_cond1,3.0.7,59.98391702322331,
injured,,&&&&&&&,images/symbols/symbol_57.png,condition_files/AMP_rep2.csv,right,care.vice,,,,,,,,,,,,,,,,,,,,,0,0,0,1,0,73,73,73,,,,,,,,,,,,,1719.7120813165093,,,,,AMP_prac,left,0.8838144983164966,,,,,,,,,,,,,,,,,,,,,1,,,left,0.44934778450988233,,,,,,,,,,,,,,1005,2019_May_08_1349,mf_amp_cond1,3.0.7,59.98391702322331,
terrorist,,&&&&&&&&&,images/symbols/symbol_73.png,condition_files/AMP_rep2.csv,right,loyalty.vice,,,,,,,,,,,,,,,,,,,,,0,0,0,1,0,74,74,74,,,,,,,,,,,,,1720.8957061412511,,,,,AMP_prac,left,0.8838144983164966,,,,,,,,,,,,,,,,,,,,,1,,,right,0.9655630490742624,,,,,,,,,,,,,,1005,2019_May_08_1349,mf_amp_cond1,3.0.7,59.98391702322331,
friends,,&&&&&&&,images/symbols/symbol_8.png,condition_files/AMP_rep2.csv,left,loyalty.virtue,,,,,,,,,,,,,,,,,,,,,0,0,0,1,0,75,75,75,,,,,,,,,,,,,1721.962631350616,,,,,AMP_prac,left,0.8838144983164966,,,,,,,,,,,,,,,,,,,,,1,,,left,0.8337559348437935,,,,,,,,,,,,,,1005,2019_May_08_1349,mf_amp_cond1,3.0.7,59.98391702322331,
peaceful,,&&&&&&&&,images/symbols/symbol_50.png,condition_files/AMP_rep2.csv,left,authority.virtue,,,,,,,,,,,,,,,,,,,,,0,0,0,1,0,76,76,76,,,,,,,,,,,,,1722.8795463612769,,,,,AMP_prac,left,0.8838144983164966,,,,,,,,,,,,,,,,,,,,,1,,,left,0.6988080133451149,,,,,,,,,,,,,,1005,2019_May_08_1349,mf_amp_cond1,3.0.7,59.98391702322331,
war,,&&&,images/symbols/symbol_74.png,condition_files/AMP_rep2.csv,right,sanctity.vice,,,,,,,,,,,,,,,,,,,,,0,0,0,1,0,77,77,77,,,,,,,,,,,,,1723.913113199873,,,,,AMP_prac,left,0.8838144983164966,,,,,,,,,,,,,,,,,,,,,1,,,left,0.8004142415011302,,,,,,,,,,,,,,1005,2019_May_08_1349,mf_amp_cond1,3.0.7,59.98391702322331,
commitment,,&&&&&&&&&&,images/symbols/symbol_11.png,condition_files/AMP_rep2.csv,left,sanctity.virtue,,,,,,,,,,,,,,,,,,,,,0,0,0,1,0,78,78,78,,,,,,,,,,,,,1724.546636164072,,,,,AMP_prac,left,0.8838144983164966,,,,,,,,,,,,,,,,,,,,,1,,,left,0.4154631127603352,,,,,,,,,,,,,,1005,2019_May_08_1349,mf_amp_cond1,3.0.7,59.98391702322331,
splysed,,&&&&&&&,images/symbols/symbol_5.png,condition_files/AMP_rep2.csv,None,nonword,,,,,,,,,,,,,,,,,,,,,0,0,0,1,0,79,79,79,,,,,,,,,,,,,1725.530194792198,,,,,AMP_prac,left,0.8838144983164966,,,,,,,,,,,,,,,,,,,,,1,,,left,0.7660446416120976,,,,,,,,,,,,,,1005,2019_May_08_1349,mf_amp_cond1,3.0.7,59.98391702322331,
energy,,&&&&&&,images/symbols/symbol_30.png,condition_files/AMP_rep2.csv,left,sanctity.virtue,,,,,,,,,,,,,,,,,,,,,0,0,0,1,0,80,80,80,,,,,,,,,,,,,1726.4304083273746,,,,,AMP_prac,left,0.8838144983164966,,,,,,,,,,,,,,,,,,,,,1,,,left,0.6826238587964326,,,,,,,,,,,,,,1005,2019_May_08_1349,mf_amp_cond1,3.0.7,59.98391702322331,
psured,,&&&&&&,images/symbols/symbol_49.png,condition_files/AMP_rep2.csv,None,nonword,,,,,,,,,,,,,,,,,,,,,0,0,0,1,0,81,81,81,,,,,,,,,,,,,1727.363970290986,,,,,AMP_prac,left,0.8838144983164966,,,,,,,,,,,,,,,,,,,,,1,,,left,0.7004013485275209,,,,,,,,,,,,,,1005,2019_May_08_1349,mf_amp_cond1,3.0.7,59.98391702322331,
,,,,condition_files/AMP_rep2.csv,,,,,,,,,,,,,,,,,,,,,,,0,0,0,1,,,,,,,,,,,,,,,,,,,,,,,,,,,,,,,,,,,,,,,,,,,,,,,,,,right,12.086550365202129,,,,,,,,,,,,1005,2019_May_08_1349,mf_amp_cond1,3.0.7,59.98391702322331,
useful,,&&&&&&,images/symbols/symbol_82.png,condition_files/AMP_rep3.csv,left,authority.virtue,,,,,,,,,,,,,,,,,,,,,0,1,1,2,0,0,0,0,,,,,,,,,,,,,1740.2506112916162,,,,,AMP_prac,left,0.8838144983164966,,,,,,,,,,,,,,,,,,,,,1,,,left,0.5503616434289142,,,,,,,,,,,,,,1005,2019_May_08_1349,mf_amp_cond1,3.0.7,59.98391702322331,
betrayal,,&&&&&&&&,images/symbols/symbol_78.png,condition_files/AMP_rep3.csv,right,loyalty.vice,,,,,,,,,,,,,,,,,,,,,0,1,1,2,0,1,1,1,,,,,,,,,,,,,1740.9673577960348,,,,,AMP_prac,left,0.8838144983164966,,,,,,,,,,,,,,,,,,,,,1,,,left,0.4985227653523907,,,,,,,,,,,,,,1005,2019_May_08_1349,mf_amp_cond1,3.0.7,59.98391702322331,
strength,,&&&&&&&&,images/symbols/symbol_4.png,condition_files/AMP_rep3.csv,left,sanctity.virtue,,,,,,,,,,,,,,,,,,,,,0,1,1,2,0,2,2,2,,,,,,,,,,,,,1741.7008731270907,,,,,AMP_prac,left,0.8838144983164966,,,,,,,,,,,,,,,,,,,,,1,,,left,0.5158910168102011,,,,,,,,,,,,,,1005,2019_May_08_1349,mf_amp_cond1,3.0.7,59.98391702322331,
abuse,,&&&&&,images/symbols/symbol_52.png,condition_files/AMP_rep3.csv,right,sanctity.vice,,,,,,,,,,,,,,,,,,,,,0,1,1,2,0,3,3,3,,,,,,,,,,,,,1742.5176979512908,,,,,AMP_prac,left,0.8838144983164966,,,,,,,,,,,,,,,,,,,,,1,,,left,0.5837036576122046,,,,,,,,,,,,,,1005,2019_May_08_1349,mf_amp_cond1,3.0.7,59.98391702322331,
hope,,&&&&,images/symbols/symbol_48.png,condition_files/AMP_rep3.csv,left,loyalty.virtue,,,,,,,,,,,,,,,,,,,,,0,1,1,2,0,4,4,4,,,,,,,,,,,,,1743.3012243792182,,,,,AMP_prac,left,0.8838144983164966,,,,,,,,,,,,,,,,,,,,,1,,,left,0.5652850491460413,,,,,,,,,,,,,,1005,2019_May_08_1349,mf_amp_cond1,3.0.7,59.98391702322331,
skypped,,&&&&&&&,images/symbols/symbol_71.png,condition_files/AMP_rep3.csv,None,nonword,,,,,,,,,,,,,,,,,,,,,0,1,1,2,0,5,5,5,,,,,,,,,,,,,1743.9513869199436,,,,,AMP_prac,left,0.8838144983164966,,,,,,,,,,,,,,,,,,,,,1,,,left,0.43269088910892606,,,,,,,,,,,,,,1005,2019_May_08_1349,mf_amp_cond1,3.0.7,59.98391702322331,
compassion,,&&&&&&&&&&,images/symbols/symbol_45.png,condition_files/AMP_rep3.csv,left,care.virtue,,,,,,,,,,,,,,,,,,,,,0,1,1,2,0,6,6,6,,,,,,,,,,,,,1744.7515920522856,,,,,AMP_prac,left,0.8838144983164966,,,,,,,,,,,,,,,,,,,,,1,,,left,0.5826135316165164,,,,,,,,,,,,,,1005,2019_May_08_1349,mf_amp_cond1,3.0.7,59.98391702322331,
lighnde,,&&&&&&&,images/symbols/symbol_35.png,condition_files/AMP_rep3.csv,None,nonword,,,,,,,,,,,,,,,,,,,,,0,1,1,2,0,7,7,7,,,,,,,,,,,,,1745.5684483069927,,,,,AMP_prac,left,0.8838144983164966,,,,,,,,,,,,,,,,,,,,,1,,,left,0.5994051292072982,,,,,,,,,,,,,,1005,2019_May_08_1349,mf_amp_cond1,3.0.7,59.98391702322331,
shot,,&&&&,images/symbols/symbol_41.png,condition_files/AMP_rep3.csv,right,care.vice,,,,,,,,,,,,,,,,,,,,,0,1,1,2,0,8,8,8,,,,,,,,,,,,,1746.26862579328,,,,,AMP_prac,left,0.8838144983164966,,,,,,,,,,,,,,,,,,,,,1,,,left,0.4832189860753715,,,,,,,,,,,,,,1005,2019_May_08_1349,mf_amp_cond1,3.0.7,59.98391702322331,
support,,&&&&&&&,images/symbols/symbol_6.png,condition_files/AMP_rep3.csv,left,loyalty.virtue,,,,,,,,,,,,,,,,,,,,,0,1,1,2,0,9,9,9,,,,,,,,,,,,,1747.3189030874055,,,,,AMP_prac,left,0.8838144983164966,,,,,,,,,,,,,,,,,,,,,1,,,right,0.8171070574317127,,,,,,,,,,,,,,1005,2019_May_08_1349,mf_amp_cond1,3.0.7,59.98391702322331,
serial,,&&&&&&,images/symbols/symbol_70.png,condition_files/AMP_rep3.csv,right,sanctity.vice,,,,,,,,,,,,,,,,,,,,,0,1,1,2,0,10,10,10,,,,,,,,,,,,,1748.102427591104,,,,,AMP_prac,left,0.8838144983164966,,,,,,,,,,,,,,,,,,,,,1,,,right,0.5653732471400872,,,,,,,,,,,,,,1005,2019_May_08_1349,mf_amp_cond1,3.0.7,59.98391702322331,
lies,,&&&&,images/symbols/symbol_26.png,condition_files/AMP_rep3.csv,right,fairness.vice,,,,,,,,,,,,,,,,,,,,,0,1,1,2,0,11,11,11,,,,,,,,,,,,,1748.7025793555658,,,,,AMP_prac,left,0.8838144983164966,,,,,,,,,,,,,,,,,,,,,1,,,left,0.3826942245941609,,,,,,,,,,,,,,1005,2019_May_08_1349,mf_amp_cond1,3.0.7,59.98391702322331,
powerful,,&&&&&&&&,images/symbols/symbol_67.png,condition_files/AMP_rep3.csv,left,authority.virtue,,,,,,,,,,,,,,,,,,,,,0,1,1,2,0,12,12,12,,,,,,,,,,,,,1749.336066719843,,,,,AMP_prac,left,0.8838144983164966,,,,,,,,,,,,,,,,,,,,,1,,,left,0.4158008305821568,,,,,,,,,,,,,,1005,2019_May_08_1349,mf_amp_cond1,3.0.7,59.98391702322331,
sexual,,&&&&&&,images/symbols/symbol_16.png,condition_files/AMP_rep3.csv,right,sanctity.vice,,,,,,,,,,,,,,,,,,,,,0,1,1,2,0,13,13,13,,,,,,,,,,,,,1749.969547028304,,,,,AMP_prac,left,0.8838144983164966,,,,,,,,,,,,,,,,,,,,,1,,,right,0.4161847318755463,,,,,,,,,,,,,,1005,2019_May_08_1349,mf_amp_cond1,3.0.7,59.98391702322331,
increase,,&&&&&&&&,images/symbols/symbol_1.png,condition_files/AMP_rep3.csv,left,care.virtue,,,,,,,,,,,,,,,,,,,,,0,1,1,2,0,14,14,14,,,,,,,,,,,,,1750.603039844893,,,,,AMP_prac,left,0.8838144983164966,,,,,,,,,,,,,,,,,,,,,1,,,left,0.41582071513403207,,,,,,,,,,,,,,1005,2019_May_08_1349,mf_amp_cond1,3.0.7,59.98391702322331,
pleasant,,&&&&&&&,images/symbols/symbol_68.png,condition_files/AMP_rep3.csv,right,control,,,,,,,,,,,,,,,,,,,,,0,1,1,2,0,15,15,15,,,,,,,,,,,,,1751.3365853235591,,,,,AMP_prac,left,0.8838144983164966,,,,,,,,,,,,,,,,,,,,,1,,,left,0.5004223877331242,,,,,,,,,,,,,,1005,2019_May_08_1349,mf_amp_cond1,3.0.7,59.98391702322331,
critics,,&&&&&&&,images/symbols/symbol_44.png,condition_files/AMP_rep3.csv,right,loyalty.vice,,,,,,,,,,,,,,,,,,,,,0,1,1,2,0,16,16,16,,,,,,,,,,,,,1752.4201927653048,,,,,AMP_prac,left,0.8838144983164966,,,,,,,,,,,,,,,,,,,,,1,,,right,0.8653894755989313,,,,,,,,,,,,,,1005,2019_May_08_1349,mf_amp_cond1,3.0.7,59.98391702322331,
fighters,,&&&&&&&&,images/symbols/symbol_32.png,condition_files/AMP_rep3.csv,right,authority.vice,,,,,,,,,,,,,,,,,,,,,0,1,1,2,0,17,17,17,,,,,,,,,,,,,1753.2036819896894,,,,,AMP_prac,left,0.8838144983164966,,,,,,,,,,,,,,,,,,,,,1,,,left,0.5660146864829585,,,,,,,,,,,,,,1005,2019_May_08_1349,mf_amp_cond1,3.0.7,59.98391702322331,
fear,,&&&&,images/symbols/symbol_75.png,condition_files/AMP_rep3.csv,right,sanctity.vice,,,,,,,,,,,,,,,,,,,,,0,1,1,2,0,18,18,18,,,,,,,,,,,,,1753.87051136815,,,,,AMP_prac,left,0.8838144983164966,,,,,,,,,,,,,,,,,,,,,1,,,left,0.44939332676585764,,,,,,,,,,,,,,1005,2019_May_08_1349,mf_amp_cond1,3.0.7,59.98391702322331,
terrorists,,&&&&&&&&&&,images/symbols/symbol_18.png,condition_files/AMP_rep3.csv,right,fairness.vice,,,,,,,,,,,,,,,,,,,,,0,1,1,2,0,19,19,19,,,,,,,,,,,,,1754.9374375398038,,,,,AMP_prac,left,0.8838144983164966,,,,,,,,,,,,,,,,,,,,,1,,,right,0.8337678016396239,,,,,,,,,,,,,,1005,2019_May_08_1349,mf_amp_cond1,3.0.7,59.98391702322331,
freedom,,&&&&&&&,images/symbols/symbol_9.png,condition_files/AMP_rep3.csv,left,sanctity.virtue,,,,,,,,,,,,,,,,,,,,,0,1,1,2,0,20,20,20,,,,,,,,,,,,,1755.8543281756574,,,,,AMP_prac,left,0.8838144983164966,,,,,,,,,,,,,,,,,,,,,1,,,right,0.6986906299134716,,,,,,,,,,,,,,1005,2019_May_08_1349,mf_amp_cond1,3.0.7,59.98391702322331,
intelligence,,&&&&&&&&&&&&,images/symbols/symbol_19.png,condition_files/AMP_rep3.csv,left,loyalty.virtue,,,,,,,,,,,,,,,,,,,,,0,1,1,2,0,21,21,21,,,,,,,,,,,,,1756.587737669237,,,,,AMP_prac,left,0.8838144983164966,,,,,,,,,,,,,,,,,,,,,1,,,left,0.5158246279461309,,,,,,,,,,,,,,1005,2019_May_08_1349,mf_amp_cond1,3.0.7,59.98391702322331,
help,,&&&&,images/symbols/symbol_55.png,condition_files/AMP_rep3.csv,left,care.virtue,,,,,,,,,,,,,,,,,,,,,0,1,1,2,0,22,22,22,,,,,,,,,,,,,1757.2713849443244,,,,,AMP_prac,left,0.8838144983164966,,,,,,,,,,,,,,,,,,,,,1,,,left,0.4659578548744321,,,,,,,,,,,,,,1005,2019_May_08_1349,mf_amp_cond1,3.0.7,59.98391702322331,
victim,,&&&&&&,images/symbols/symbol_39.png,condition_files/AMP_rep3.csv,right,care.vice,,,,,,,,,,,,,,,,,,,,,0,1,1,2,0,23,23,23,,,,,,,,,,,,,1758.0715519109508,,,,,AMP_prac,left,0.8838144983164966,,,,,,,,,,,,,,,,,,,,,1,,,right,0.5825686308089644,,,,,,,,,,,,,,1005,2019_May_08_1349,mf_amp_cond1,3.0.7,59.98391702322331,
fraud,,&&&&&,images/symbols/symbol_76.png,condition_files/AMP_rep3.csv,right,fairness.vice,,,,,,,,,,,,,,,,,,,,,0,1,1,2,0,24,24,24,,,,,,,,,,,,,1759.071786677814,,,,,AMP_prac,left,0.8838144983164966,,,,,,,,,,,,,,,,,,,,,1,,,left,0.7831130203558132,,,,,,,,,,,,,,1005,2019_May_08_1349,mf_amp_cond1,3.0.7,59.98391702322331,
slavery,,&&&&&&&,images/symbols/symbol_24.png,condition_files/AMP_rep3.csv,right,loyalty.vice,,,,,,,,,,,,,,,,,,,,,0,1,1,2,0,25,25,25,,,,,,,,,,,,,1760.1387147736968,,,,,AMP_prac,left,0.8838144983164966,,,,,,,,,,,,,,,,,,,,,1,,,right,0.8337591422023252,,,,,,,,,,,,,,1005,2019_May_08_1349,mf_amp_cond1,3.0.7,59.98391702322331,
praise,,&&&&&&,images/symbols/symbol_22.png,condition_files/AMP_rep3.csv,left,authority.virtue,,,,,,,,,,,,,,,,,,,,,0,1,1,2,0,26,26,26,,,,,,,,,,,,,1760.8556088091573,,,,,AMP_prac,left,0.8838144983164966,,,,,,,,,,,,,,,,,,,,,1,,,right,0.4988575966563076,,,,,,,,,,,,,,1005,2019_May_08_1349,mf_amp_cond1,3.0.7,59.98391702322331,
victims,,&&&&&&&,images/symbols/symbol_43.png,condition_files/AMP_rep3.csv,right,care.vice,,,,,,,,,,,,,,,,,,,,,0,1,1,2,0,27,27,27,,,,,,,,,,,,,1761.7724567893893,,,,,AMP_prac,left,0.8838144983164966,,,,,,,,,,,,,,,,,,,,,1,,,right,0.6993423323146999,,,,,,,,,,,,,,1005,2019_May_08_1349,mf_amp_cond1,3.0.7,59.98391702322331,
safe,,&&&&,images/symbols/symbol_36.png,condition_files/AMP_rep3.csv,left,care.virtue,,,,,,,,,,,,,,,,,,,,,0,1,1,2,0,28,28,28,,,,,,,,,,,,,1762.4726246540667,,,,,AMP_prac,left,0.8838144983164966,,,,,,,,,,,,,,,,,,,,,1,,,left,0.4823030107654631,,,,,,,,,,,,,,1005,2019_May_08_1349,mf_amp_cond1,3.0.7,59.98391702322331,
improve,,&&&&&&&,images/symbols/symbol_31.png,condition_files/AMP_rep3.csv,left,care.virtue,,,,,,,,,,,,,,,,,,,,,0,1,1,2,0,29,29,29,,,,,,,,,,,,,1763.5896581384586,,,,,AMP_prac,left,0.8838144983164966,,,,,,,,,,,,,,,,,,,,,1,,,left,0.9004592064302415,,,,,,,,,,,,,,1005,2019_May_08_1349,mf_amp_cond1,3.0.7,59.98391702322331,
trust,,&&&&&,images/symbols/symbol_2.png,condition_files/AMP_rep3.csv,left,authority.virtue,,,,,,,,,,,,,,,,,,,,,0,1,1,2,0,30,30,30,,,,,,,,,,,,,1764.673169685062,,,,,AMP_prac,left,0.8838144983164966,,,,,,,,,,,,,,,,,,,,,1,,,right,0.8662345717893913,,,,,,,,,,,,,,1005,2019_May_08_1349,mf_amp_cond1,3.0.7,59.98391702322331,
safety,,&&&&&&,images/symbols/symbol_34.png,condition_files/AMP_rep3.csv,left,care.virtue,,,,,,,,,,,,,,,,,,,,,0,1,1,2,0,31,31,31,,,,,,,,,,,,,1765.5232964333845,,,,,AMP_prac,left,0.8838144983164966,,,,,,,,,,,,,,,,,,,,,1,,,left,0.6324636271456257,,,,,,,,,,,,,,1005,2019_May_08_1349,mf_amp_cond1,3.0.7,59.98391702322331,
ensure,,&&&&&&,images/symbols/symbol_79.png,condition_files/AMP_rep3.csv,left,fairness.virtue,,,,,,,,,,,,,,,,,,,,,0,1,1,2,0,32,32,32,,,,,,,,,,,,,1766.6236540999962,,,,,AMP_prac,left,0.8838144983164966,,,,,,,,,,,,,,,,,,,,,1,,,left,0.8827538783662021,,,,,,,,,,,,,,1005,2019_May_08_1349,mf_amp_cond1,3.0.7,59.98391702322331,
army,,&&&&,images/symbols/symbol_58.png,condition_files/AMP_rep3.csv,right,loyalty.vice,,,,,,,,,,,,,,,,,,,,,0,1,1,2,0,33,33,33,,,,,,,,,,,,,1767.473864876898,,,,,AMP_prac,left,0.8838144983164966,,,,,,,,,,,,,,,,,,,,,1,,,left,0.6170488789211959,,,,,,,,,,,,,,1005,2019_May_08_1349,mf_amp_cond1,3.0.7,59.98391702322331,
sneaze,,&&&&&&,images/symbols/symbol_38.png,condition_files/AMP_rep3.csv,None,nonword,,,,,,,,,,,,,,,,,,,,,0,1,1,2,0,34,34,34,,,,,,,,,,,,,1768.3407540374901,,,,,AMP_prac,left,0.8838144983164966,,,,,,,,,,,,,,,,,,,,,1,,,right,0.6486545169027522,,,,,,,,,,,,,,1005,2019_May_08_1349,mf_amp_cond1,3.0.7,59.98391702322331,
stailde,,&&&&&&&,images/symbols/symbol_77.png,condition_files/AMP_rep3.csv,None,nonword,,,,,,,,,,,,,,,,,,,,,0,1,1,2,0,35,35,35,,,,,,,,,,,,,1769.324318438652,,,,,AMP_prac,left,0.8838144983164966,,,,,,,,,,,,,,,,,,,,,1,,,right,0.7661116720410064,,,,,,,,,,,,,,1005,2019_May_08_1349,mf_amp_cond1,3.0.7,59.98391702322331,
dignity,,&&&&&&&,images/symbols/symbol_64.png,condition_files/AMP_rep3.csv,left,sanctity.virtue,,,,,,,,,,,,,,,,,,,,,0,1,1,2,0,36,36,36,,,,,,,,,,,,,1770.1745699469466,,,,,AMP_prac,left,0.8838144983164966,,,,,,,,,,,,,,,,,,,,,1,,,left,0.6327179578365758,,,,,,,,,,,,,,1005,2019_May_08_1349,mf_amp_cond1,3.0.7,59.98391702322331,
shypse,,&&&&&&,images/symbols/symbol_27.png,condition_files/AMP_rep3.csv,None,nonword,,,,,,,,,,,,,,,,,,,,,0,1,1,2,0,37,37,37,,,,,,,,,,,,,1771.274799646344,,,,,AMP_prac,left,0.8838144983164966,,,,,,,,,,,,,,,,,,,,,1,,,left,0.8827224478591233,,,,,,,,,,,,,,1005,2019_May_08_1349,mf_amp_cond1,3.0.7,59.98391702322331,
accused,,&&&&&&&,images/symbols/symbol_81.png,condition_files/AMP_rep3.csv,right,fairness.vice,,,,,,,,,,,,,,,,,,,,,0,1,1,2,0,38,38,38,,,,,,,,,,,,,1772.1083455099724,,,,,AMP_prac,left,0.8838144983164966,,,,,,,,,,,,,,,,,,,,,1,,,left,0.6003804376814514,,,,,,,,,,,,,,1005,2019_May_08_1349,mf_amp_cond1,3.0.7,59.98391702322331,
peace,,&&&&&,images/symbols/symbol_14.png,condition_files/AMP_rep3.csv,left,care.virtue,,,,,,,,,,,,,,,,,,,,,0,1,1,2,0,39,39,39,,,,,,,,,,,,,1773.4587012521224,,,,,AMP_prac,left,0.8838144983164966,,,,,,,,,,,,,,,,,,,,,1,,,right,1.1321926190285012,,,,,,,,,,,,,,1005,2019_May_08_1349,mf_amp_cond1,3.0.7,59.98391702322331,
voter,,&&&&&,images/symbols/symbol_7.png,condition_files/AMP_rep3.csv,right,fairness.vice,,,,,,,,,,,,,,,,,,,,,0,1,1,2,0,40,40,40,,,,,,,,,,,,,1774.6423334534047,,,,,AMP_prac,left,0.8838144983164966,,,,,,,,,,,,,,,,,,,,,1,,,left,0.9663391904905438,,,,,,,,,,,,,,1005,2019_May_08_1349,mf_amp_cond1,3.0.7,59.98391702322331,
black,,&&&&&,images/symbols/symbol_10.png,condition_files/AMP_rep3.csv,right,loyalty.vice,,,,,,,,,,,,,,,,,,,,,0,1,1,2,0,41,41,41,,,,,,,,,,,,,1775.5091745060636,,,,,AMP_prac,left,0.8838144983164966,,,,,,,,,,,,,,,,,,,,,1,,,left,0.6494835772318766,,,,,,,,,,,,,,1005,2019_May_08_1349,mf_amp_cond1,3.0.7,59.98391702322331,
blamed,,&&&&&&,images/symbols/symbol_21.png,condition_files/AMP_rep3.csv,right,loyalty.vice,,,,,,,,,,,,,,,,,,,,,0,1,1,2,0,42,42,42,,,,,,,,,,,,,1776.7261435899418,,,,,AMP_prac,left,0.8838144983164966,,,,,,,,,,,,,,,,,,,,,1,,,left,0.9997552909189835,,,,,,,,,,,,,,1005,2019_May_08_1349,mf_amp_cond1,3.0.7,59.98391702322331,
gun,,&&&,images/symbols/symbol_13.png,condition_files/AMP_rep3.csv,right,authority.vice,,,,,,,,,,,,,,,,,,,,,0,1,1,2,0,43,43,43,,,,,,,,,,,,,1777.5263352519833,,,,,AMP_prac,left,0.8838144983164966,,,,,,,,,,,,,,,,,,,,,1,,,right,0.5826574701350182,,,,,,,,,,,,,,1005,2019_May_08_1349,mf_amp_cond1,3.0.7,59.98391702322331,
encourage,,&&&&&&&&&,images/symbols/symbol_15.png,condition_files/AMP_rep3.csv,left,authority.virtue,,,,,,,,,,,,,,,,,,,,,0,1,1,2,0,44,44,44,,,,,,,,,,,,,1778.2598602046492,,,,,AMP_prac,left,0.8838144983164966,,,,,,,,,,,,,,,,,,,,,1,,,left,0.516060356865637,,,,,,,,,,,,,,1005,2019_May_08_1349,mf_amp_cond1,3.0.7,59.98391702322331,
death,,&&&&&,images/symbols/symbol_56.png,condition_files/AMP_rep3.csv,right,care.vice,,,,,,,,,,,,,,,,,,,,,0,1,1,2,0,45,45,45,,,,,,,,,,,,,1779.0100433356129,,,,,AMP_prac,left,0.8838144983164966,,,,,,,,,,,,,,,,,,,,,1,,,right,0.5170103283599019,,,,,,,,,,,,,,1005,2019_May_08_1349,mf_amp_cond1,3.0.7,59.98391702322331,
love,,&&&&,images/symbols/symbol_20.png,condition_files/AMP_rep3.csv,left,loyalty.virtue,,,,,,,,,,,,,,,,,,,,,0,1,1,2,0,46,46,46,,,,,,,,,,,,,1779.710217293934,,,,,AMP_prac,left,0.8838144983164966,,,,,,,,,,,,,,,,,,,,,1,,,right,0.4825486820191145,,,,,,,,,,,,,,1005,2019_May_08_1349,mf_amp_cond1,3.0.7,59.98391702322331,
interests,,&&&&&&&&&,images/symbols/symbol_72.png,condition_files/AMP_rep3.csv,left,fairness.virtue,,,,,,,,,,,,,,,,,,,,,0,1,1,2,0,47,47,47,,,,,,,,,,,,,1780.6270992703503,,,,,AMP_prac,left,0.8838144983164966,,,,,,,,,,,,,,,,,,,,,1,,,right,0.6837149469647557,,,,,,,,,,,,,,1005,2019_May_08_1349,mf_amp_cond1,3.0.7,59.98391702322331,
drug,,&&&&,images/symbols/symbol_29.png,condition_files/AMP_rep3.csv,right,sanctity.vice,,,,,,,,,,,,,,,,,,,,,0,1,1,2,0,48,48,48,,,,,,,,,,,,,1781.310612163972,,,,,AMP_prac,left,0.8838144983164966,,,,,,,,,,,,,,,,,,,,,1,,,left,0.4648885754868388,,,,,,,,,,,,,,1005,2019_May_08_1349,mf_amp_cond1,3.0.7,59.98391702322331,
rhailled,,&&&&&&&&,images/symbols/symbol_80.png,condition_files/AMP_rep3.csv,None,nonword,,,,,,,,,,,,,,,,,,,,,0,1,1,2,0,49,49,49,,,,,,,,,,,,,1782.31084853434,,,,,AMP_prac,left,0.8838144983164966,,,,,,,,,,,,,,,,,,,,,1,,,left,0.7832037840271369,,,,,,,,,,,,,,1005,2019_May_08_1349,mf_amp_cond1,3.0.7,59.98391702322331,
party,,&&&&&,images/symbols/symbol_62.png,condition_files/AMP_rep3.csv,left,loyalty.virtue,,,,,,,,,,,,,,,,,,,,,0,1,1,2,0,50,50,50,,,,,,,,,,,,,1783.5111568741268,,,,,AMP_prac,left,0.8838144983164966,,,,,,,,,,,,,,,,,,,,,1,,,left,0.9828501584706828,,,,,,,,,,,,,,1005,2019_May_08_1349,mf_amp_cond1,3.0.7,59.98391702322331,
protesters,,&&&&&&&&&&,images/symbols/symbol_3.png,condition_files/AMP_rep3.csv,right,authority.vice,,,,,,,,,,,,,,,,,,,,,0,1,1,2,0,51,51,51,,,,,,,,,,,,,1784.5948303841287,,,,,AMP_prac,left,0.8838144983164966,,,,,,,,,,,,,,,,,,,,,1,,,right,0.8661742765689269,,,,,,,,,,,,,,1005,2019_May_08_1349,mf_amp_cond1,3.0.7,59.98391702322331,
integrity,,&&&&&&&&&,images/symbols/symbol_65.png,condition_files/AMP_rep3.csv,left,fairness.virtue,,,,,,,,,,,,,,,,,,,,,0,1,1,2,0,52,52,52,,,,,,,,,,,,,1785.4950317319017,,,,,AMP_prac,left,0.8838144983164966,,,,,,,,,,,,,,,,,,,,,1,,,left,0.6825096826069057,,,,,,,,,,,,,,1005,2019_May_08_1349,mf_amp_cond1,3.0.7,59.98391702322331,
arrests,,&&&&&&&,images/symbols/symbol_17.png,condition_files/AMP_rep3.csv,right,authority.vice,,,,,,,,,,,,,,,,,,,,,0,1,1,2,0,53,53,53,,,,,,,,,,,,,1786.6286085770698,,,,,AMP_prac,left,0.8838144983164966,,,,,,,,,,,,,,,,,,,,,1,,,right,0.9159057058859617,,,,,,,,,,,,,,1005,2019_May_08_1349,mf_amp_cond1,3.0.7,59.98391702322331,
unpleasant,,&&&&&&&&&,images/symbols/symbol_37.png,condition_files/AMP_rep3.csv,left,control,,,,,,,,,,,,,,,,,,,,,0,1,1,2,0,54,54,54,,,,,,,,,,,,,1787.3120932473103,,,,,AMP_prac,left,0.8838144983164966,,,,,,,,,,,,,,,,,,,,,1,,,left,0.45034041185863316,,,,,,,,,,,,,,1005,2019_May_08_1349,mf_amp_cond1,3.0.7,59.98391702322331,
protect,,&&&&&&&,images/symbols/symbol_46.png,condition_files/AMP_rep3.csv,left,fairness.virtue,,,,,,,,,,,,,,,,,,,,,0,1,1,2,0,55,55,55,,,,,,,,,,,,,1788.7791171742138,,,,,AMP_prac,left,0.8838144983164966,,,,,,,,,,,,,,,,,,,,,1,,,left,1.2486981990514323,,,,,,,,,,,,,,1005,2019_May_08_1349,mf_amp_cond1,3.0.7,59.98391702322331,
suicide,,&&&&&&&,images/symbols/symbol_61.png,condition_files/AMP_rep3.csv,right,care.vice,,,,,,,,,,,,,,,,,,,,,0,1,1,2,0,56,56,56,,,,,,,,,,,,,1789.5460284003057,,,,,AMP_prac,left,0.8838144983164966,,,,,,,,,,,,,,,,,,,,,1,,,left,0.5494254628429189,,,,,,,,,,,,,,1005,2019_May_08_1349,mf_amp_cond1,3.0.7,59.98391702322331,
strong,,&&&&&&,images/symbols/symbol_28.png,condition_files/AMP_rep3.csv,left,loyalty.virtue,,,,,,,,,,,,,,,,,,,,,0,1,1,2,0,57,57,57,,,,,,,,,,,,,1790.6629287861288,,,,,AMP_prac,left,0.8838144983164966,,,,,,,,,,,,,,,,,,,,,1,,,left,0.8995563806965947,,,,,,,,,,,,,,1005,2019_May_08_1349,mf_amp_cond1,3.0.7,59.98391702322331,
win,,&&&,images/symbols/symbol_47.png,condition_files/AMP_rep3.csv,left,fairness.virtue,,,,,,,,,,,,,,,,,,,,,0,1,1,2,0,58,58,58,,,,,,,,,,,,,1791.7131935722427,,,,,AMP_prac,left,0.8838144983164966,,,,,,,,,,,,,,,,,,,,,1,,,left,0.8327604212099686,,,,,,,,,,,,,,1005,2019_May_08_1349,mf_amp_cond1,3.0.7,59.98391702322331,
honored,,&&&&&&&,images/symbols/symbol_59.png,condition_files/AMP_rep3.csv,left,authority.virtue,,,,,,,,,,,,,,,,,,,,,0,1,1,2,0,59,59,59,,,,,,,,,,,,,1793.5302951774793,,,,,AMP_prac,left,0.8838144983164966,,,,,,,,,,,,,,,,,,,,,1,,,left,1.599491402739659,,,,,,,,,,,,,,1005,2019_May_08_1349,mf_amp_cond1,3.0.7,59.98391702322331,
violations,,&&&&&&&&&&,images/symbols/symbol_23.png,condition_files/AMP_rep3.csv,right,sanctity.vice,,,,,,,,,,,,,,,,,,,,,0,1,1,2,0,60,60,60,,,,,,,,,,,,,1794.6972486744635,,,,,AMP_prac,left,0.8838144983164966,,,,,,,,,,,,,,,,,,,,,1,,,right,0.9494257194455713,,,,,,,,,,,,,,1005,2019_May_08_1349,mf_amp_cond1,3.0.7,59.98391702322331,
graidd,,&&&&&&,images/symbols/symbol_12.png,condition_files/AMP_rep3.csv,None,nonword,,,,,,,,,,,,,,,,,,,,,0,1,1,2,0,61,61,61,,,,,,,,,,,,,1795.7308453399455,,,,,AMP_prac,left,0.8838144983164966,,,,,,,,,,,,,,,,,,,,,1,,,left,0.8004315603757277,,,,,,,,,,,,,,1005,2019_May_08_1349,mf_amp_cond1,3.0.7,59.98391702322331,
hate,,&&&&,images/symbols/symbol_40.png,condition_files/AMP_rep3.csv,right,fairness.vice,,,,,,,,,,,,,,,,,,,,,0,1,1,2,0,62,62,62,,,,,,,,,,,,,1796.3643323834985,,,,,AMP_prac,left,0.8838144983164966,,,,,,,,,,,,,,,,,,,,,1,,,left,0.41530788445379585,,,,,,,,,,,,,,1005,2019_May_08_1349,mf_amp_cond1,3.0.7,59.98391702322331,
civilians,,&&&&&&&&&,images/symbols/symbol_33.png,condition_files/AMP_rep3.csv,right,care.vice,,,,,,,,,,,,,,,,,,,,,0,1,1,2,0,63,63,63,,,,,,,,,,,,,1797.081227381248,,,,,AMP_prac,left,0.8838144983164966,,,,,,,,,,,,,,,,,,,,,1,,,left,0.49942078022286296,,,,,,,,,,,,,,1005,2019_May_08_1349,mf_amp_cond1,3.0.7,59.98391702322331,
credit,,&&&&&&,images/symbols/symbol_60.png,condition_files/AMP_rep3.csv,left,fairness.virtue,,,,,,,,,,,,,,,,,,,,,0,1,1,2,0,64,64,64,,,,,,,,,,,,,1798.0147264838452,,,,,AMP_prac,left,0.8838144983164966,,,,,,,,,,,,,,,,,,,,,1,,,left,0.7160489392699674,,,,,,,,,,,,,,1005,2019_May_08_1349,mf_amp_cond1,3.0.7,59.98391702322331,
police,,&&&&&&,images/symbols/symbol_42.png,condition_files/AMP_rep3.csv,right,authority.vice,,,,,,,,,,,,,,,,,,,,,0,1,1,2,0,65,65,65,,,,,,,,,,,,,1798.6482209039386,,,,,AMP_prac,left,0.8838144983164966,,,,,,,,,,,,,,,,,,,,,1,,,left,0.4159451543819159,,,,,,,,,,,,,,1005,2019_May_08_1349,mf_amp_cond1,3.0.7,59.98391702322331,
free,,&&&&,images/symbols/symbol_54.png,condition_files/AMP_rep3.csv,left,fairness.virtue,,,,,,,,,,,,,,,,,,,,,0,1,1,2,0,66,66,66,,,,,,,,,,,,,1799.2484101926675,,,,,AMP_prac,left,0.8838144983164966,,,,,,,,,,,,,,,,,,,,,1,,,left,0.38251526304520667,,,,,,,,,,,,,,1005,2019_May_08_1349,mf_amp_cond1,3.0.7,59.98391702322331,
hand,,&&&&,images/symbols/symbol_25.png,condition_files/AMP_rep3.csv,left,sanctity.virtue,,,,,,,,,,,,,,,,,,,,,0,1,1,2,0,67,67,67,,,,,,,,,,,,,1800.148607050418,,,,,AMP_prac,left,0.8838144983164966,,,,,,,,,,,,,,,,,,,,,1,,,right,0.6825760714709759,,,,,,,,,,,,,,1005,2019_May_08_1349,mf_amp_cond1,3.0.7,59.98391702322331,
faith,,&&&&&,images/symbols/symbol_66.png,condition_files/AMP_rep3.csv,left,sanctity.virtue,,,,,,,,,,,,,,,,,,,,,0,1,1,2,0,68,68,68,,,,,,,,,,,,,1800.8820986482315,,,,,AMP_prac,left,0.8838144983164966,,,,,,,,,,,,,,,,,,,,,1,,,left,0.5157335435505956,,,,,,,,,,,,,,1005,2019_May_08_1349,mf_amp_cond1,3.0.7,59.98391702322331,
gnoozz,,&&&&&&,images/symbols/symbol_69.png,condition_files/AMP_rep3.csv,None,nonword,,,,,,,,,,,,,,,,,,,,,0,1,1,2,0,69,69,69,,,,,,,,,,,,,1801.5823300153716,,,,,AMP_prac,left,0.8838144983164966,,,,,,,,,,,,,,,,,,,,,1,,,left,0.48268915724474937,,,,,,,,,,,,,,1005,2019_May_08_1349,mf_amp_cond1,3.0.7,59.98391702322331,
rebels,,&&&&&&,images/symbols/symbol_53.png,condition_files/AMP_rep3.csv,right,authority.vice,,,,,,,,,,,,,,,,,,,,,0,1,1,2,0,70,70,70,,,,,,,,,,,,,1802.3824681171682,,,,,AMP_prac,left,0.8838144983164966,,,,,,,,,,,,,,,,,,,,,1,,,left,0.58285375055857,,,,,,,,,,,,,,1005,2019_May_08_1349,mf_amp_cond1,3.0.7,59.98391702322331,
rejected,,&&&&&&&&,images/symbols/symbol_51.png,condition_files/AMP_rep3.csv,right,authority.vice,,,,,,,,,,,,,,,,,,,,,0,1,1,2,0,71,71,71,,,,,,,,,,,,,1803.182670042268,,,,,AMP_prac,left,0.8838144983164966,,,,,,,,,,,,,,,,,,,,,1,,,left,0.5832415005424991,,,,,,,,,,,,,,1005,2019_May_08_1349,mf_amp_cond1,3.0.7,59.98391702322331,
illegal,,&&&&&&&,images/symbols/symbol_63.png,condition_files/AMP_rep3.csv,right,fairness.vice,,,,,,,,,,,,,,,,,,,,,0,1,1,2,0,72,72,72,,,,,,,,,,,,,1804.0995690168347,,,,,AMP_prac,left,0.8838144983164966,,,,,,,,,,,,,,,,,,,,,1,,,left,0.6995976251782849,,,,,,,,,,,,,,1005,2019_May_08_1349,mf_amp_cond1,3.0.7,59.98391702322331,
injured,,&&&&&&&,images/symbols/symbol_57.png,condition_files/AMP_rep3.csv,right,care.vice,,,,,,,,,,,,,,,,,,,,,0,1,1,2,0,73,73,73,,,,,,,,,,,,,1805.0331531101838,,,,,AMP_prac,left,0.8838144983164966,,,,,,,,,,,,,,,,,,,,,1,,,right,0.7161695298273116,,,,,,,,,,,,,,1005,2019_May_08_1349,mf_amp_cond1,3.0.7,59.98391702322331,
terrorist,,&&&&&&&&&,images/symbols/symbol_73.png,condition_files/AMP_rep3.csv,right,loyalty.vice,,,,,,,,,,,,,,,,,,,,,0,1,1,2,0,74,74,74,,,,,,,,,,,,,1805.866673957673,,,,,AMP_prac,left,0.8838144983164966,,,,,,,,,,,,,,,,,,,,,1,,,right,0.6156268080230802,,,,,,,,,,,,,,1005,2019_May_08_1349,mf_amp_cond1,3.0.7,59.98391702322331,
friends,,&&&&&&&,images/symbols/symbol_8.png,condition_files/AMP_rep3.csv,left,loyalty.virtue,,,,,,,,,,,,,,,,,,,,,0,1,1,2,0,75,75,75,,,,,,,,,,,,,1806.6002527911915,,,,,AMP_prac,left,0.8838144983164966,,,,,,,,,,,,,,,,,,,,,1,,,left,0.5004538183566183,,,,,,,,,,,,,,1005,2019_May_08_1349,mf_amp_cond1,3.0.7,59.98391702322331,
peaceful,,&&&&&&&&,images/symbols/symbol_50.png,condition_files/AMP_rep3.csv,left,authority.virtue,,,,,,,,,,,,,,,,,,,,,0,1,1,2,0,76,76,76,,,,,,,,,,,,,1807.4670614510542,,,,,AMP_prac,left,0.8838144983164966,,,,,,,,,,,,,,,,,,,,,1,,,left,0.6488488730974495,,,,,,,,,,,,,,1005,2019_May_08_1349,mf_amp_cond1,3.0.7,59.98391702322331,
war,,&&&,images/symbols/symbol_74.png,condition_files/AMP_rep3.csv,right,sanctity.vice,,,,,,,,,,,,,,,,,,,,,0,1,1,2,0,77,77,77,,,,,,,,,,,,,1808.2672534339363,,,,,AMP_prac,left,0.8838144983164966,,,,,,,,,,,,,,,,,,,,,1,,,left,0.5670291226124391,,,,,,,,,,,,,,1005,2019_May_08_1349,mf_amp_cond1,3.0.7,59.98391702322331,
commitment,,&&&&&&&&&&,images/symbols/symbol_11.png,condition_files/AMP_rep3.csv,left,sanctity.virtue,,,,,,,,,,,,,,,,,,,,,0,1,1,2,0,78,78,78,,,,,,,,,,,,,1808.9841394514078,,,,,AMP_prac,left,0.8838144983164966,,,,,,,,,,,,,,,,,,,,,1,,,left,0.4988194309407845,,,,,,,,,,,,,,1005,2019_May_08_1349,mf_amp_cond1,3.0.7,59.98391702322331,
splysed,,&&&&&&&,images/symbols/symbol_5.png,condition_files/AMP_rep3.csv,None,nonword,,,,,,,,,,,,,,,,,,,,,0,1,1,2,0,79,79,79,,,,,,,,,,,,,1809.6509377200855,,,,,AMP_prac,left,0.8838144983164966,,,,,,,,,,,,,,,,,,,,,1,,,left,0.44939332676585764,,,,,,,,,,,,,,1005,2019_May_08_1349,mf_amp_cond1,3.0.7,59.98391702322331,
energy,,&&&&&&,images/symbols/symbol_30.png,condition_files/AMP_rep3.csv,left,sanctity.virtue,,,,,,,,,,,,,,,,,,,,,0,1,1,2,0,80,80,80,,,,,,,,,,,,,1810.334438747028,,,,,AMP_prac,left,0.8838144983164966,,,,,,,,,,,,,,,,,,,,,1,,,right,0.4661948666907847,,,,,,,,,,,,,,1005,2019_May_08_1349,mf_amp_cond1,3.0.7,59.98391702322331,
psured,,&&&&&&,images/symbols/symbol_49.png,condition_files/AMP_rep3.csv,None,nonword,,,,,,,,,,,,,,,,,,,,,0,1,1,2,0,81,81,81,,,,,,,,,,,,,1810.9846195686841,,,,,AMP_prac,left,0.8838144983164966,,,,,,,,,,,,,,,,,,,,,1,,,left,0.4170234138146043,,,,,,,,,,,,,,1005,2019_May_08_1349,mf_amp_cond1,3.0.7,59.98391702322331,
,,,,condition_files/AMP_rep3.csv,,,,,,,,,,,,,,,,,,,,,,,0,1,1,2,,,,,,,,,,,,,,,,,,,,,,,,,,,,,,,,,,,,,,,,,,,,,,,,,,right,1.834077937528491,,,,,,,,,,,,1005,2019_May_08_1349,mf_amp_cond1,3.0.7,59.98391702322331,
useful,,&&&&&&,images/symbols/symbol_82.png,condition_files/AMP_rep1.csv,left,authority.virtue,,,,,,,,,,,,,,,,,,,,,0,2,2,0,0,0,0,0,,,,,,,,,,,,,1813.6687864096602,,,,,AMP_prac,left,0.8838144983164966,,,,,,,,,,,,,,,,,,,,,1,,,left,0.6155360443517566,,,,,,,,,,,,,,1005,2019_May_08_1349,mf_amp_cond1,3.0.7,59.98391702322331,
betrayal,,&&&&&&&&,images/symbols/symbol_78.png,condition_files/AMP_rep1.csv,right,loyalty.vice,,,,,,,,,,,,,,,,,,,,,0,2,2,0,0,1,1,1,,,,,,,,,,,,,1814.3519715277944,,,,,AMP_prac,left,0.8838144983164966,,,,,,,,,,,,,,,,,,,,,1,,,left,0.4657336719101295,,,,,,,,,,,,,,1005,2019_May_08_1349,mf_amp_cond1,3.0.7,59.98391702322331,
strength,,&&&&&&&&,images/symbols/symbol_4.png,condition_files/AMP_rep1.csv,left,sanctity.virtue,,,,,,,,,,,,,,,,,,,,,0,2,2,0,0,2,2,2,,,,,,,,,,,,,1815.1856357367942,,,,,AMP_prac,left,0.8838144983164966,,,,,,,,,,,,,,,,,,,,,1,,,left,0.6159603564301506,,,,,,,,,,,,,,1005,2019_May_08_1349,mf_amp_cond1,3.0.7,59.98391702322331,
abuse,,&&&&&,images/symbols/symbol_52.png,condition_files/AMP_rep1.csv,right,sanctity.vice,,,,,,,,,,,,,,,,,,,,,0,2,2,0,0,3,3,3,,,,,,,,,,,,,1815.8191160452552,,,,,AMP_prac,left,0.8838144983164966,,,,,,,,,,,,,,,,,,,,,1,,,left,0.40032642846927047,,,,,,,,,,,,,,1005,2019_May_08_1349,mf_amp_cond1,3.0.7,59.98391702322331,
hope,,&&&&,images/symbols/symbol_48.png,condition_files/AMP_rep1.csv,left,loyalty.virtue,,,,,,,,,,,,,,,,,,,,,0,2,2,0,0,4,4,4,,,,,,,,,,,,,1816.4192658854881,,,,,AMP_prac,left,0.8838144983164966,,,,,,,,,,,,,,,,,,,,,1,,,left,0.3819315533619374,,,,,,,,,,,,,,1005,2019_May_08_1349,mf_amp_cond1,3.0.7,59.98391702322331,
skypped,,&&&&&&&,images/symbols/symbol_71.png,condition_files/AMP_rep1.csv,None,nonword,,,,,,,,,,,,,,,,,,,,,0,2,2,0,0,5,5,5,,,,,,,,,,,,,1817.0694284262136,,,,,AMP_prac,left,0.8838144983164966,,,,,,,,,,,,,,,,,,,,,1,,,left,0.4326876818668097,,,,,,,,,,,,,,1005,2019_May_08_1349,mf_amp_cond1,3.0.7,59.98391702322331,
compassion,,&&&&&&&&&&,images/symbols/symbol_45.png,condition_files/AMP_rep1.csv,left,care.virtue,,,,,,,,,,,,,,,,,,,,,0,2,2,0,0,6,6,6,,,,,,,,,,,,,1817.7029218841344,,,,,AMP_prac,left,0.8838144983164966,,,,,,,,,,,,,,,,,,,,,1,,,left,0.41580050985794514,,,,,,,,,,,,,,1005,2019_May_08_1349,mf_amp_cond1,3.0.7,59.98391702322331,
lighnde,,&&&&&&&,images/symbols/symbol_35.png,condition_files/AMP_rep1.csv,None,nonword,,,,,,,,,,,,,,,,,,,,,0,2,2,0,0,7,7,7,,,,,,,,,,,,,1818.6031511345645,,,,,AMP_prac,left,0.8838144983164966,,,,,,,,,,,,,,,,,,,,,1,,,left,0.6825831272872165,,,,,,,,,,,,,,1005,2019_May_08_1349,mf_amp_cond1,3.0.7,59.98391702322331,
shot,,&&&&,images/symbols/symbol_41.png,condition_files/AMP_rep1.csv,right,care.vice,,,,,,,,,,,,,,,,,,,,,0,2,2,0,0,8,8,8,,,,,,,,,,,,,1819.2866271453677,,,,,AMP_prac,left,0.8838144983164966,,,,,,,,,,,,,,,,,,,,,1,,,left,0.46651558636222035,,,,,,,,,,,,,,1005,2019_May_08_1349,mf_amp_cond1,3.0.7,59.98391702322331,
support,,&&&&&&&,images/symbols/symbol_6.png,condition_files/AMP_rep1.csv,left,loyalty.virtue,,,,,,,,,,,,,,,,,,,,,0,2,2,0,0,9,9,9,,,,,,,,,,,,,1819.9701515848283,,,,,AMP_prac,left,0.8838144983164966,,,,,,,,,,,,,,,,,,,,,1,,,right,0.45035131624899805,,,,,,,,,,,,,,1005,2019_May_08_1349,mf_amp_cond1,3.0.7,59.98391702322331,
serial,,&&&&&&,images/symbols/symbol_70.png,condition_files/AMP_rep1.csv,right,sanctity.vice,,,,,,,,,,,,,,,,,,,,,0,2,2,0,0,10,10,10,,,,,,,,,,,,,1820.5869968069019,,,,,AMP_prac,left,0.8838144983164966,,,,,,,,,,,,,,,,,,,,,1,,,right,0.3988135938998312,,,,,,,,,,,,,,1005,2019_May_08_1349,mf_amp_cond1,3.0.7,59.98391702322331,
lies,,&&&&,images/symbols/symbol_26.png,condition_files/AMP_rep1.csv,right,fairness.vice,,,,,,,,,,,,,,,,,,,,,0,2,2,0,0,11,11,11,,,,,,,,,,,,,1821.2537944340147,,,,,AMP_prac,left,0.8838144983164966,,,,,,,,,,,,,,,,,,,,,1,,,left,0.44925766228698194,,,,,,,,,,,,,,1005,2019_May_08_1349,mf_amp_cond1,3.0.7,59.98391702322331,
powerful,,&&&&&&&&,images/symbols/symbol_67.png,condition_files/AMP_rep1.csv,left,authority.virtue,,,,,,,,,,,,,,,,,,,,,0,2,2,0,0,12,12,12,,,,,,,,,,,,,1821.9039451081771,,,,,AMP_prac,left,0.8838144983164966,,,,,,,,,,,,,,,,,,,,,1,,,left,0.432497174362652,,,,,,,,,,,,,,1005,2019_May_08_1349,mf_amp_cond1,3.0.7,59.98391702322331,
sexual,,&&&&&&,images/symbols/symbol_16.png,condition_files/AMP_rep1.csv,right,sanctity.vice,,,,,,,,,,,,,,,,,,,,,0,2,2,0,0,13,13,13,,,,,,,,,,,,,1822.5041058528004,,,,,AMP_prac,left,0.8838144983164966,,,,,,,,,,,,,,,,,,,,,1,,,left,0.3828597159590572,,,,,,,,,,,,,,1005,2019_May_08_1349,mf_amp_cond1,3.0.7,59.98391702322331,
increase,,&&&&&&&&,images/symbols/symbol_1.png,condition_files/AMP_rep1.csv,left,care.virtue,,,,,,,,,,,,,,,,,,,,,0,2,2,0,0,14,14,14,,,,,,,,,,,,,1823.3209823129,,,,,AMP_prac,left,0.8838144983164966,,,,,,,,,,,,,,,,,,,,,1,,,left,0.5992733134189621,,,,,,,,,,,,,,1005,2019_May_08_1349,mf_amp_cond1,3.0.7,59.98391702322331,
pleasant,,&&&&&&&,images/symbols/symbol_68.png,condition_files/AMP_rep1.csv,right,control,,,,,,,,,,,,,,,,,,,,,0,2,2,0,0,15,15,15,,,,,,,,,,,,,1824.221403674339,,,,,AMP_prac,left,0.8838144983164966,,,,,,,,,,,,,,,,,,,,,1,,,left,0.66726299142465,,,,,,,,,,,,,,1005,2019_May_08_1349,mf_amp_cond1,3.0.7,59.98391702322331,
critics,,&&&&&&&,images/symbols/symbol_44.png,condition_files/AMP_rep1.csv,right,loyalty.vice,,,,,,,,,,,,,,,,,,,,,0,2,2,0,0,16,16,16,,,,,,,,,,,,,1824.7880036741262,,,,,AMP_prac,left,0.8838144983164966,,,,,,,,,,,,,,,,,,,,,1,,,left,0.3485241123707965,,,,,,,,,,,,,,1005,2019_May_08_1349,mf_amp_cond1,3.0.7,59.98391702322331,
fighters,,&&&&&&&&,images/symbols/symbol_32.png,condition_files/AMP_rep1.csv,right,authority.vice,,,,,,,,,,,,,,,,,,,,,0,2,2,0,0,17,17,17,,,,,,,,,,,,,1825.588198864134,,,,,AMP_prac,left,0.8838144983164966,,,,,,,,,,,,,,,,,,,,,1,,,left,0.5826882591936737,,,,,,,,,,,,,,1005,2019_May_08_1349,mf_amp_cond1,3.0.7,59.98391702322331,
fear,,&&&&,images/symbols/symbol_75.png,condition_files/AMP_rep1.csv,right,sanctity.vice,,,,,,,,,,,,,,,,,,,,,0,2,2,0,0,18,18,18,,,,,,,,,,,,,1826.2550218281103,,,,,AMP_prac,left,0.8838144983164966,,,,,,,,,,,,,,,,,,,,,1,,,left,0.4492464370559901,,,,,,,,,,,,,,1005,2019_May_08_1349,mf_amp_cond1,3.0.7,59.98391702322331,
terrorists,,&&&&&&&&&&,images/symbols/symbol_18.png,condition_files/AMP_rep1.csv,right,fairness.vice,,,,,,,,,,,,,,,,,,,,,0,2,2,0,0,19,19,19,,,,,,,,,,,,,1827.1886046385625,,,,,AMP_prac,left,0.8838144983164966,,,,,,,,,,,,,,,,,,,,,1,,,right,0.7004151395522058,,,,,,,,,,,,,,1005,2019_May_08_1349,mf_amp_cond1,3.0.7,59.98391702322331,
freedom,,&&&&&&&,images/symbols/symbol_9.png,condition_files/AMP_rep1.csv,left,sanctity.virtue,,,,,,,,,,,,,,,,,,,,,0,2,2,0,0,20,20,20,,,,,,,,,,,,,1828.072149732383,,,,,AMP_prac,left,0.8838144983164966,,,,,,,,,,,,,,,,,,,,,1,,,left,0.6653425220865756,,,,,,,,,,,,,,1005,2019_May_08_1349,mf_amp_cond1,3.0.7,59.98391702322331,
intelligence,,&&&&&&&&&&&&,images/symbols/symbol_19.png,condition_files/AMP_rep1.csv,left,loyalty.virtue,,,,,,,,,,,,,,,,,,,,,0,2,2,0,0,21,21,21,,,,,,,,,,,,,1828.855673273909,,,,,AMP_prac,left,0.8838144983164966,,,,,,,,,,,,,,,,,,,,,1,,,left,0.5661009600153193,,,,,,,,,,,,,,1005,2019_May_08_1349,mf_amp_cond1,3.0.7,59.98391702322331,
help,,&&&&,images/symbols/symbol_55.png,condition_files/AMP_rep1.csv,left,care.virtue,,,,,,,,,,,,,,,,,,,,,0,2,2,0,0,22,22,22,,,,,,,,,,,,,1829.5224927100353,,,,,AMP_prac,left,0.8838144983164966,,,,,,,,,,,,,,,,,,,,,1,,,left,0.44915086263790727,,,,,,,,,,,,,,1005,2019_May_08_1349,mf_amp_cond1,3.0.7,59.98391702322331,
victim,,&&&&&&,images/symbols/symbol_39.png,condition_files/AMP_rep1.csv,right,care.vice,,,,,,,,,,,,,,,,,,,,,0,2,2,0,0,23,23,23,,,,,,,,,,,,,1830.4060474253492,,,,,AMP_prac,left,0.8838144983164966,,,,,,,,,,,,,,,,,,,,,1,,,right,0.6660452189389616,,,,,,,,,,,,,,1005,2019_May_08_1349,mf_amp_cond1,3.0.7,59.98391702322331,
fraud,,&&&&&,images/symbols/symbol_76.png,condition_files/AMP_rep1.csv,right,fairness.vice,,,,,,,,,,,,,,,,,,,,,0,2,2,0,0,24,24,24,,,,,,,,,,,,,1831.5396752648521,,,,,AMP_prac,left,0.8838144983164966,,,,,,,,,,,,,,,,,,,,,1,,,left,0.9164271960034966,,,,,,,,,,,,,,1005,2019_May_08_1349,mf_amp_cond1,3.0.7,59.98391702322331,
slavery,,&&&&&&&,images/symbols/symbol_24.png,condition_files/AMP_rep1.csv,right,loyalty.vice,,,,,,,,,,,,,,,,,,,,,0,2,2,0,0,25,25,25,,,,,,,,,,,,,1832.6065934185171,,,,,AMP_prac,left,0.8838144983164966,,,,,,,,,,,,,,,,,,,,,1,,,right,0.8337671600747854,,,,,,,,,,,,,,1005,2019_May_08_1349,mf_amp_cond1,3.0.7,59.98391702322331,
praise,,&&&&&&,images/symbols/symbol_22.png,condition_files/AMP_rep1.csv,left,authority.virtue,,,,,,,,,,,,,,,,,,,,,0,2,2,0,0,26,26,26,,,,,,,,,,,,,1833.4901574348332,,,,,AMP_prac,left,0.8838144983164966,,,,,,,,,,,,,,,,,,,,,1,,,left,0.6655314260860905,,,,,,,,,,,,,,1005,2019_May_08_1349,mf_amp_cond1,3.0.7,59.98391702322331,
victims,,&&&&&&&,images/symbols/symbol_43.png,condition_files/AMP_rep1.csv,right,care.vice,,,,,,,,,,,,,,,,,,,,,0,2,2,0,0,27,27,27,,,,,,,,,,,,,1834.2570083655883,,,,,AMP_prac,left,0.8838144983164966,,,,,,,,,,,,,,,,,,,,,1,,,left,0.5494209727039561,,,,,,,,,,,,,,1005,2019_May_08_1349,mf_amp_cond1,3.0.7,59.98391702322331,
safe,,&&&&,images/symbols/symbol_36.png,condition_files/AMP_rep1.csv,left,care.virtue,,,,,,,,,,,,,,,,,,,,,0,2,2,0,0,28,28,28,,,,,,,,,,,,,1834.9738767435774,,,,,AMP_prac,left,0.8838144983164966,,,,,,,,,,,,,,,,,,,,,1,,,left,0.49933899682946503,,,,,,,,,,,,,,1005,2019_May_08_1349,mf_amp_cond1,3.0.7,59.98391702322331,
improve,,&&&&&&&,images/symbols/symbol_31.png,condition_files/AMP_rep1.csv,left,care.virtue,,,,,,,,,,,,,,,,,,,,,0,2,2,0,0,29,29,29,,,,,,,,,,,,,1835.9074101631995,,,,,AMP_prac,left,0.8838144983164966,,,,,,,,,,,,,,,,,,,,,1,,,left,0.716959462268278,,,,,,,,,,,,,,1005,2019_May_08_1349,mf_amp_cond1,3.0.7,59.98391702322331,
trust,,&&&&&,images/symbols/symbol_2.png,condition_files/AMP_rep1.csv,left,authority.virtue,,,,,,,,,,,,,,,,,,,,,0,2,2,0,0,30,30,30,,,,,,,,,,,,,1836.707603428862,,,,,AMP_prac,left,0.8838144983164966,,,,,,,,,,,,,,,,,,,,,1,,,left,0.5827530446695164,,,,,,,,,,,,,,1005,2019_May_08_1349,mf_amp_cond1,3.0.7,59.98391702322331,
safety,,&&&&&&,images/symbols/symbol_34.png,condition_files/AMP_rep1.csv,left,care.virtue,,,,,,,,,,,,,,,,,,,,,0,2,2,0,0,31,31,31,,,,,,,,,,,,,1837.4577894462273,,,,,AMP_prac,left,0.8838144983164966,,,,,,,,,,,,,,,,,,,,,1,,,left,0.5325491952244192,,,,,,,,,,,,,,1005,2019_May_08_1349,mf_amp_cond1,3.0.7,59.98391702322331,
ensure,,&&&&&&,images/symbols/symbol_79.png,condition_files/AMP_rep1.csv,left,fairness.virtue,,,,,,,,,,,,,,,,,,,,,0,2,2,0,0,32,32,32,,,,,,,,,,,,,1838.5080494215945,,,,,AMP_prac,left,0.8838144983164966,,,,,,,,,,,,,,,,,,,,,1,,,left,0.8326917871600017,,,,,,,,,,,,,,1005,2019_May_08_1349,mf_amp_cond1,3.0.7,59.98391702322331,
army,,&&&&,images/symbols/symbol_58.png,condition_files/AMP_rep1.csv,right,loyalty.vice,,,,,,,,,,,,,,,,,,,,,0,2,2,0,0,33,33,33,,,,,,,,,,,,,1839.2749086910626,,,,,AMP_prac,left,0.8838144983164966,,,,,,,,,,,,,,,,,,,,,1,,,left,0.533698012935929,,,,,,,,,,,,,,1005,2019_May_08_1349,mf_amp_cond1,3.0.7,59.98391702322331,
sneaze,,&&&&&&,images/symbols/symbol_38.png,condition_files/AMP_rep1.csv,None,nonword,,,,,,,,,,,,,,,,,,,,,0,2,2,0,0,34,34,34,,,,,,,,,,,,,1839.9417406352004,,,,,AMP_prac,left,0.8838144983164966,,,,,,,,,,,,,,,,,,,,,1,,,left,0.44860724289901555,,,,,,,,,,,,,,1005,2019_May_08_1349,mf_amp_cond1,3.0.7,59.98391702322331,
stailde,,&&&&&&&,images/symbols/symbol_77.png,condition_files/AMP_rep1.csv,None,nonword,,,,,,,,,,,,,,,,,,,,,0,2,2,0,0,35,35,35,,,,,,,,,,,,,1840.6419161971426,,,,,AMP_prac,left,0.8838144983164966,,,,,,,,,,,,,,,,,,,,,1,,,left,0.4824428445426747,,,,,,,,,,,,,,1005,2019_May_08_1349,mf_amp_cond1,3.0.7,59.98391702322331,
dignity,,&&&&&&&,images/symbols/symbol_64.png,condition_files/AMP_rep1.csv,left,sanctity.virtue,,,,,,,,,,,,,,,,,,,,,0,2,2,0,0,36,36,36,,,,,,,,,,,,,1841.1753727082396,,,,,AMP_prac,left,0.8838144983164966,,,,,,,,,,,,,,,,,,,,,1,,,left,0.3159168668789789,,,,,,,,,,,,,,1005,2019_May_08_1349,mf_amp_cond1,3.0.7,59.98391702322331,
shypse,,&&&&&&,images/symbols/symbol_27.png,condition_files/AMP_rep1.csv,None,nonword,,,,,,,,,,,,,,,,,,,,,0,2,2,0,0,37,37,37,,,,,,,,,,,,,1842.0255886167288,,,,,AMP_prac,left,0.8838144983164966,,,,,,,,,,,,,,,,,,,,,1,,,right,0.6326550968224183,,,,,,,,,,,,,,1005,2019_May_08_1349,mf_amp_cond1,3.0.7,59.98391702322331,
accused,,&&&&&&&,images/symbols/symbol_81.png,condition_files/AMP_rep1.csv,right,fairness.vice,,,,,,,,,,,,,,,,,,,,,0,2,2,0,0,38,38,38,,,,,,,,,,,,,1842.7424335820833,,,,,AMP_prac,left,0.8838144983164966,,,,,,,,,,,,,,,,,,,,,1,,,left,0.4836891610175371,,,,,,,,,,,,,,1005,2019_May_08_1349,mf_amp_cond1,3.0.7,59.98391702322331,
peace,,&&&&&,images/symbols/symbol_14.png,condition_files/AMP_rep1.csv,left,care.virtue,,,,,,,,,,,,,,,,,,,,,0,2,2,0,0,39,39,39,,,,,,,,,,,,,1843.5592834224226,,,,,AMP_prac,left,0.8838144983164966,,,,,,,,,,,,,,,,,,,,,1,,,right,0.5986597767332569,,,,,,,,,,,,,,1005,2019_May_08_1349,mf_amp_cond1,3.0.7,59.98391702322331,
voter,,&&&&&,images/symbols/symbol_7.png,condition_files/AMP_rep1.csv,right,fairness.vice,,,,,,,,,,,,,,,,,,,,,0,2,2,0,0,40,40,40,,,,,,,,,,,,,1844.1259850902716,,,,,AMP_prac,left,0.8838144983164966,,,,,,,,,,,,,,,,,,,,,1,,,left,0.34933841961901635,,,,,,,,,,,,,,1005,2019_May_08_1349,mf_amp_cond1,3.0.7,59.98391702322331,
black,,&&&&&,images/symbols/symbol_10.png,condition_files/AMP_rep1.csv,right,loyalty.vice,,,,,,,,,,,,,,,,,,,,,0,2,2,0,0,41,41,41,,,,,,,,,,,,,1844.7762810504064,,,,,AMP_prac,left,0.8838144983164966,,,,,,,,,,,,,,,,,,,,,1,,,left,0.4328704921063036,,,,,,,,,,,,,,1005,2019_May_08_1349,mf_amp_cond1,3.0.7,59.98391702322331,
blamed,,&&&&&&,images/symbols/symbol_21.png,condition_files/AMP_rep1.csv,right,loyalty.vice,,,,,,,,,,,,,,,,,,,,,0,2,2,0,0,42,42,42,,,,,,,,,,,,,1845.759841923602,,,,,AMP_prac,left,0.8838144983164966,,,,,,,,,,,,,,,,,,,,,1,,,left,0.7662402805872262,,,,,,,,,,,,,,1005,2019_May_08_1349,mf_amp_cond1,3.0.7,59.98391702322331,
gun,,&&&,images/symbols/symbol_13.png,condition_files/AMP_rep1.csv,right,authority.vice,,,,,,,,,,,,,,,,,,,,,0,2,2,0,0,43,43,43,,,,,,,,,,,,,1846.5433744452894,,,,,AMP_prac,left,0.8838144983164966,,,,,,,,,,,,,,,,,,,,,1,,,right,0.5657937105279416,,,,,,,,,,,,,,1005,2019_May_08_1349,mf_amp_cond1,3.0.7,59.98391702322331,
encourage,,&&&&&&&&&,images/symbols/symbol_15.png,condition_files/AMP_rep1.csv,left,authority.virtue,,,,,,,,,,,,,,,,,,,,,0,2,2,0,0,44,44,44,,,,,,,,,,,,,1847.3268957416294,,,,,AMP_prac,left,0.8838144983164966,,,,,,,,,,,,,,,,,,,,,1,,,left,0.5660820375196636,,,,,,,,,,,,,,1005,2019_May_08_1349,mf_amp_cond1,3.0.7,59.98391702322331,
death,,&&&&&,images/symbols/symbol_56.png,condition_files/AMP_rep1.csv,right,care.vice,,,,,,,,,,,,,,,,,,,,,0,2,2,0,0,45,45,45,,,,,,,,,,,,,1848.3604770126985,,,,,AMP_prac,left,0.8838144983164966,,,,,,,,,,,,,,,,,,,,,1,,,right,0.8004270703531802,,,,,,,,,,,,,,1005,2019_May_08_1349,mf_amp_cond1,3.0.7,59.98391702322331,
love,,&&&&,images/symbols/symbol_20.png,condition_files/AMP_rep1.csv,left,loyalty.virtue,,,,,,,,,,,,,,,,,,,,,0,2,2,0,0,46,46,46,,,,,,,,,,,,,1849.2440352559788,,,,,AMP_prac,left,0.8838144983164966,,,,,,,,,,,,,,,,,,,,,1,,,right,0.6660291829612106,,,,,,,,,,,,,,1005,2019_May_08_1349,mf_amp_cond1,3.0.7,59.98391702322331,
interests,,&&&&&&&&&,images/symbols/symbol_72.png,condition_files/AMP_rep1.csv,left,fairness.virtue,,,,,,,,,,,,,,,,,,,,,0,2,2,0,0,47,47,47,,,,,,,,,,,,,1849.9442121008178,,,,,AMP_prac,left,0.8838144983164966,,,,,,,,,,,,,,,,,,,,,1,,,left,0.467007891042158,,,,,,,,,,,,,,1005,2019_May_08_1349,mf_amp_cond1,3.0.7,59.98391702322331,
drug,,&&&&,images/symbols/symbol_29.png,condition_files/AMP_rep1.csv,right,sanctity.vice,,,,,,,,,,,,,,,,,,,,,0,2,2,0,0,48,48,48,,,,,,,,,,,,,1850.6277089584619,,,,,AMP_prac,left,0.8838144983164966,,,,,,,,,,,,,,,,,,,,,1,,,left,0.46518139261752367,,,,,,,,,,,,,,1005,2019_May_08_1349,mf_amp_cond1,3.0.7,59.98391702322331,
rhailled,,&&&&&&&&,images/symbols/symbol_80.png,condition_files/AMP_rep1.csv,None,nonword,,,,,,,,,,,,,,,,,,,,,0,2,2,0,0,49,49,49,,,,,,,,,,,,,1851.2611972849118,,,,,AMP_prac,left,0.8838144983164966,,,,,,,,,,,,,,,,,,,,,1,,,left,0.41637299431022257,,,,,,,,,,,,,,1005,2019_May_08_1349,mf_amp_cond1,3.0.7,59.98391702322331,
party,,&&&&&,images/symbols/symbol_62.png,condition_files/AMP_rep1.csv,left,loyalty.virtue,,,,,,,,,,,,,,,,,,,,,0,2,2,0,0,50,50,50,,,,,,,,,,,,,1851.8947119102813,,,,,AMP_prac,left,0.8838144983164966,,,,,,,,,,,,,,,,,,,,,1,,,left,0.4159570209449157,,,,,,,,,,,,,,1005,2019_May_08_1349,mf_amp_cond1,3.0.7,59.98391702322331,
protesters,,&&&&&&&&&&,images/symbols/symbol_3.png,condition_files/AMP_rep1.csv,right,authority.vice,,,,,,,,,,,,,,,,,,,,,0,2,2,0,0,51,51,51,,,,,,,,,,,,,1852.678212039289,,,,,AMP_prac,left,0.8838144983164966,,,,,,,,,,,,,,,,,,,,,1,,,left,0.5659450901439413,,,,,,,,,,,,,,1005,2019_May_08_1349,mf_amp_cond1,3.0.7,59.98391702322331,
integrity,,&&&&&&&&&,images/symbols/symbol_65.png,condition_files/AMP_rep1.csv,left,fairness.virtue,,,,,,,,,,,,,,,,,,,,,0,2,2,0,0,52,52,52,,,,,,,,,,,,,1853.2783596344525,,,,,AMP_prac,left,0.8838144983164966,,,,,,,,,,,,,,,,,,,,,1,,,left,0.38255888083949685,,,,,,,,,,,,,,1005,2019_May_08_1349,mf_amp_cond1,3.0.7,59.98391702322331,
arrests,,&&&&&&&,images/symbols/symbol_17.png,condition_files/AMP_rep1.csv,right,authority.vice,,,,,,,,,,,,,,,,,,,,,0,2,2,0,0,53,53,53,,,,,,,,,,,,,1853.861853862065,,,,,AMP_prac,left,0.8838144983164966,,,,,,,,,,,,,,,,,,,,,1,,,left,0.3659058341290802,,,,,,,,,,,,,,1005,2019_May_08_1349,mf_amp_cond1,3.0.7,59.98391702322331,
unpleasant,,&&&&&&&&&,images/symbols/symbol_37.png,condition_files/AMP_rep1.csv,left,control,,,,,,,,,,,,,,,,,,,,,0,2,2,0,0,54,54,54,,,,,,,,,,,,,1854.528669128893,,,,,AMP_prac,left,0.8838144983164966,,,,,,,,,,,,,,,,,,,,,1,,,left,0.4336578588699922,,,,,,,,,,,,,,1005,2019_May_08_1349,mf_amp_cond1,3.0.7,59.98391702322331,
protect,,&&&&&&&,images/symbols/symbol_46.png,condition_files/AMP_rep1.csv,left,fairness.virtue,,,,,,,,,,,,,,,,,,,,,0,2,2,0,0,55,55,55,,,,,,,,,,,,,1855.1288045367692,,,,,AMP_prac,left,0.8838144983164966,,,,,,,,,,,,,,,,,,,,,1,,,left,0.381893708370626,,,,,,,,,,,,,,1005,2019_May_08_1349,mf_amp_cond1,3.0.7,59.98391702322331,
suicide,,&&&&&&&,images/symbols/symbol_61.png,condition_files/AMP_rep1.csv,right,care.vice,,,,,,,,,,,,,,,,,,,,,0,2,2,0,0,56,56,56,,,,,,,,,,,,,1855.8290060769068,,,,,AMP_prac,left,0.8838144983164966,,,,,,,,,,,,,,,,,,,,,1,,,left,0.4827308508101851,,,,,,,,,,,,,,1005,2019_May_08_1349,mf_amp_cond1,3.0.7,59.98391702322331,
strong,,&&&&&&,images/symbols/symbol_28.png,condition_files/AMP_rep1.csv,left,loyalty.virtue,,,,,,,,,,,,,,,,,,,,,0,2,2,0,0,57,57,57,,,,,,,,,,,,,1856.912583050318,,,,,AMP_prac,left,0.8838144983164966,,,,,,,,,,,,,,,,,,,,,1,,,left,0.86600172938779,,,,,,,,,,,,,,1005,2019_May_08_1349,mf_amp_cond1,3.0.7,59.98391702322331,
win,,&&&,images/symbols/symbol_47.png,condition_files/AMP_rep1.csv,left,fairness.virtue,,,,,,,,,,,,,,,,,,,,,0,2,2,0,0,58,58,58,,,,,,,,,,,,,1857.7794670793228,,,,,AMP_prac,left,0.8838144983164966,,,,,,,,,,,,,,,,,,,,,1,,,left,0.6492318123346195,,,,,,,,,,,,,,1005,2019_May_08_1349,mf_amp_cond1,3.0.7,59.98391702322331,
honored,,&&&&&&&,images/symbols/symbol_59.png,condition_files/AMP_rep1.csv,left,authority.virtue,,,,,,,,,,,,,,,,,,,,,0,2,2,0,0,59,59,59,,,,,,,,,,,,,1858.4129826669814,,,,,AMP_prac,left,0.8838144983164966,,,,,,,,,,,,,,,,,,,,,1,,,left,0.41601282625924796,,,,,,,,,,,,,,1005,2019_May_08_1349,mf_amp_cond1,3.0.7,59.98391702322331,
violations,,&&&&&&&&&&,images/symbols/symbol_23.png,condition_files/AMP_rep1.csv,right,sanctity.vice,,,,,,,,,,,,,,,,,,,,,0,2,2,0,0,60,60,60,,,,,,,,,,,,,1859.0464584853034,,,,,AMP_prac,left,0.8838144983164966,,,,,,,,,,,,,,,,,,,,,1,,,left,0.41594547510612756,,,,,,,,,,,,,,1005,2019_May_08_1349,mf_amp_cond1,3.0.7,59.98391702322331,
graidd,,&&&&&&,images/symbols/symbol_12.png,condition_files/AMP_rep1.csv,None,nonword,,,,,,,,,,,,,,,,,,,,,0,2,2,0,0,61,61,61,,,,,,,,,,,,,1859.846712367027,,,,,AMP_prac,left,0.8838144983164966,,,,,,,,,,,,,,,,,,,,,1,,,left,0.5670477243838832,,,,,,,,,,,,,,1005,2019_May_08_1349,mf_amp_cond1,3.0.7,59.98391702322331,
hate,,&&&&,images/symbols/symbol_40.png,condition_files/AMP_rep1.csv,right,fairness.vice,,,,,,,,,,,,,,,,,,,,,0,2,2,0,0,62,62,62,,,,,,,,,,,,,1860.4134727265919,,,,,AMP_prac,left,0.8838144983164966,,,,,,,,,,,,,,,,,,,,,1,,,left,0.3482745924266055,,,,,,,,,,,,,,1005,2019_May_08_1349,mf_amp_cond1,3.0.7,59.98391702322331,
civilians,,&&&&&&&&&,images/symbols/symbol_33.png,condition_files/AMP_rep1.csv,right,care.vice,,,,,,,,,,,,,,,,,,,,,0,2,2,0,0,63,63,63,,,,,,,,,,,,,1861.0803351391805,,,,,AMP_prac,left,0.8838144983164966,,,,,,,,,,,,,,,,,,,,,1,,,left,0.44943020958453417,,,,,,,,,,,,,,1005,2019_May_08_1349,mf_amp_cond1,3.0.7,59.98391702322331,
credit,,&&&&&&,images/symbols/symbol_60.png,condition_files/AMP_rep1.csv,left,fairness.virtue,,,,,,,,,,,,,,,,,,,,,0,2,2,0,0,64,64,64,,,,,,,,,,,,,1861.663758808514,,,,,AMP_prac,left,0.8838144983164966,,,,,,,,,,,,,,,,,,,,,1,,,left,0.3658153912983835,,,,,,,,,,,,,,1005,2019_May_08_1349,mf_amp_cond1,3.0.7,59.98391702322331,
police,,&&&&&&,images/symbols/symbol_42.png,condition_files/AMP_rep1.csv,right,authority.vice,,,,,,,,,,,,,,,,,,,,,0,2,2,0,0,65,65,65,,,,,,,,,,,,,1862.2472466217587,,,,,AMP_prac,left,0.8838144983164966,,,,,,,,,,,,,,,,,,,,,1,,,left,0.36577658413443714,,,,,,,,,,,,,,1005,2019_May_08_1349,mf_amp_cond1,3.0.7,59.98391702322331,
free,,&&&&,images/symbols/symbol_54.png,condition_files/AMP_rep1.csv,left,fairness.virtue,,,,,,,,,,,,,,,,,,,,,0,2,2,0,0,66,66,66,,,,,,,,,,,,,1862.7807012085104,,,,,AMP_prac,left,0.8838144983164966,,,,,,,,,,,,,,,,,,,,,1,,,left,0.3157558656530455,,,,,,,,,,,,,,1005,2019_May_08_1349,mf_amp_cond1,3.0.7,59.98391702322331,
hand,,&&&&,images/symbols/symbol_25.png,condition_files/AMP_rep1.csv,left,sanctity.virtue,,,,,,,,,,,,,,,,,,,,,0,2,2,0,0,67,67,67,,,,,,,,,,,,,1863.3308553464012,,,,,AMP_prac,left,0.8838144983164966,,,,,,,,,,,,,,,,,,,,,1,,,left,0.3325737622799352,,,,,,,,,,,,,,1005,2019_May_08_1349,mf_amp_cond1,3.0.7,59.98391702322331,
faith,,&&&&&,images/symbols/symbol_66.png,condition_files/AMP_rep1.csv,left,sanctity.virtue,,,,,,,,,,,,,,,,,,,,,0,2,2,0,0,68,68,68,,,,,,,,,,,,,1864.1643784388434,,,,,AMP_prac,left,0.8838144983164966,,,,,,,,,,,,,,,,,,,,,1,,,left,0.6160228968365118,,,,,,,,,,,,,,1005,2019_May_08_1349,mf_amp_cond1,3.0.7,59.98391702322331,
gnoozz,,&&&&&&,images/symbols/symbol_69.png,condition_files/AMP_rep1.csv,None,nonword,,,,,,,,,,,,,,,,,,,,,0,2,2,0,0,69,69,69,,,,,,,,,,,,,1864.8812561177183,,,,,AMP_prac,left,0.8838144983164966,,,,,,,,,,,,,,,,,,,,,1,,,left,0.49884765432216227,,,,,,,,,,,,,,1005,2019_May_08_1349,mf_amp_cond1,3.0.7,59.98391702322331,
rebels,,&&&&&&,images/symbols/symbol_53.png,condition_files/AMP_rep1.csv,right,authority.vice,,,,,,,,,,,,,,,,,,,,,0,2,2,0,0,70,70,70,,,,,,,,,,,,,1865.7481112820096,,,,,AMP_prac,left,0.8838144983164966,,,,,,,,,,,,,,,,,,,,,1,,,left,0.6494887087028474,,,,,,,,,,,,,,1005,2019_May_08_1349,mf_amp_cond1,3.0.7,59.98391702322331,
rejected,,&&&&&&&&,images/symbols/symbol_51.png,condition_files/AMP_rep1.csv,right,authority.vice,,,,,,,,,,,,,,,,,,,,,0,2,2,0,0,71,71,71,,,,,,,,,,,,,1866.3315769656328,,,,,AMP_prac,left,0.8838144983164966,,,,,,,,,,,,,,,,,,,,,1,,,left,0.3664183442015201,,,,,,,,,,,,,,1005,2019_May_08_1349,mf_amp_cond1,3.0.7,59.98391702322331,
illegal,,&&&&&&&,images/symbols/symbol_63.png,condition_files/AMP_rep1.csv,right,fairness.vice,,,,,,,,,,,,,,,,,,,,,0,2,2,0,0,72,72,72,,,,,,,,,,,,,1866.9317396346014,,,,,AMP_prac,left,0.8838144983164966,,,,,,,,,,,,,,,,,,,,,1,,,left,0.3828218709677458,,,,,,,,,,,,,,1005,2019_May_08_1349,mf_amp_cond1,3.0.7,59.98391702322331,
injured,,&&&&&&&,images/symbols/symbol_57.png,condition_files/AMP_rep1.csv,right,care.vice,,,,,,,,,,,,,,,,,,,,,0,2,2,0,0,73,73,73,,,,,,,,,,,,,1867.4985282175476,,,,,AMP_prac,left,0.8838144983164966,,,,,,,,,,,,,,,,,,,,,1,,,left,0.3493624735856429,,,,,,,,,,,,,,1005,2019_May_08_1349,mf_amp_cond1,3.0.7,59.98391702322331,
terrorist,,&&&&&&&&&,images/symbols/symbol_73.png,condition_files/AMP_rep1.csv,right,loyalty.vice,,,,,,,,,,,,,,,,,,,,,0,2,2,0,0,74,74,74,,,,,,,,,,,,,1868.1487767110812,,,,,AMP_prac,left,0.8838144983164966,,,,,,,,,,,,,,,,,,,,,1,,,left,0.432108462206088,,,,,,,,,,,,,,1005,2019_May_08_1349,mf_amp_cond1,3.0.7,59.98391702322331,
friends,,&&&&&&&,images/symbols/symbol_8.png,condition_files/AMP_rep1.csv,left,loyalty.virtue,,,,,,,,,,,,,,,,,,,,,0,2,2,0,0,75,75,75,,,,,,,,,,,,,1868.7655199442524,,,,,AMP_prac,left,0.8838144983164966,,,,,,,,,,,,,,,,,,,,,1,,,left,0.38366440148092806,,,,,,,,,,,,,,1005,2019_May_08_1349,mf_amp_cond1,3.0.7,59.98391702322331,
peaceful,,&&&&&&&&,images/symbols/symbol_50.png,condition_files/AMP_rep1.csv,left,authority.virtue,,,,,,,,,,,,,,,,,,,,,0,2,2,0,0,76,76,76,,,,,,,,,,,,,1869.3656601628754,,,,,AMP_prac,left,0.8838144983164966,,,,,,,,,,,,,,,,,,,,,1,,,left,0.38207780150696635,,,,,,,,,,,,,,1005,2019_May_08_1349,mf_amp_cond1,3.0.7,59.98391702322331,
war,,&&&,images/symbols/symbol_74.png,condition_files/AMP_rep1.csv,right,sanctity.vice,,,,,,,,,,,,,,,,,,,,,0,2,2,0,0,77,77,77,,,,,,,,,,,,,1869.9824954424985,,,,,AMP_prac,left,0.8838144983164966,,,,,,,,,,,,,,,,,,,,,1,,,left,0.3836576663888991,,,,,,,,,,,,,,1005,2019_May_08_1349,mf_amp_cond1,3.0.7,59.98391702322331,
commitment,,&&&&&&&&&&,images/symbols/symbol_11.png,condition_files/AMP_rep1.csv,left,sanctity.virtue,,,,,,,,,,,,,,,,,,,,,0,2,2,0,0,78,78,78,,,,,,,,,,,,,1870.5993352122605,,,,,AMP_prac,left,0.8838144983164966,,,,,,,,,,,,,,,,,,,,,1,,,left,0.39876773103605956,,,,,,,,,,,,,,1005,2019_May_08_1349,mf_amp_cond1,3.0.7,59.98391702322331,
splysed,,&&&&&&&,images/symbols/symbol_5.png,condition_files/AMP_rep1.csv,None,nonword,,,,,,,,,,,,,,,,,,,,,0,2,2,0,0,79,79,79,,,,,,,,,,,,,1871.1994491318474,,,,,AMP_prac,left,0.8838144983164966,,,,,,,,,,,,,,,,,,,,,1,,,left,0.382699997513555,,,,,,,,,,,,,,1005,2019_May_08_1349,mf_amp_cond1,3.0.7,59.98391702322331,
energy,,&&&&&&,images/symbols/symbol_30.png,condition_files/AMP_rep1.csv,left,sanctity.virtue,,,,,,,,,,,,,,,,,,,,,0,2,2,0,0,80,80,80,,,,,,,,,,,,,1872.0163217433728,,,,,AMP_prac,left,0.8838144983164966,,,,,,,,,,,,,,,,,,,,,1,,,left,0.5995157775469124,,,,,,,,,,,,,,1005,2019_May_08_1349,mf_amp_cond1,3.0.7,59.98391702322331,
psured,,&&&&&&,images/symbols/symbol_49.png,condition_files/AMP_rep1.csv,None,nonword,,,,,,,,,,,,,,,,,,,,,0,2,2,0,0,81,81,81,,,,,,,,,,,,,1872.7665334183257,,,,,AMP_prac,left,0.8838144983164966,,,,,,,,,,,,,,,,,,,,,1,,,left,0.5170600400306284,,,,,,,,,,,,,,1005,2019_May_08_1349,mf_amp_cond1,3.0.7,59.98391702322331,
,,,,condition_files/AMP_rep1.csv,,,,,,,,,,,,,,,,,,,,,,,0,2,2,0,,,,,,,,,,,,,,,,,,,,,,,,,,,,,,,,,,,,,,,,,,,,,,,,,,right,1.0504860827932134,,,,,,,,,,,,1005,2019_May_08_1349,mf_amp_cond1,3.0.7,59.98391702322331,
useful,,&&&&&&,images/symbols/symbol_82.png,condition_files/AMP_rep4.csv,left,authority.virtue,,,,,,,,,,,,,,,,,,,,,0,3,3,3,0,0,0,0,,,,,,,,,,,,,1874.6837736385642,,,,,AMP_prac,left,0.8838144983164966,,,,,,,,,,,,,,,,,,,,,1,,,left,0.632046050275676,,,,,,,,,,,,,,1005,2019_May_08_1349,mf_amp_cond1,3.0.7,59.98391702322331,
betrayal,,&&&&&&&&,images/symbols/symbol_78.png,condition_files/AMP_rep4.csv,right,loyalty.vice,,,,,,,,,,,,,,,,,,,,,0,3,3,3,0,1,1,1,,,,,,,,,,,,,1875.3004860826768,,,,,AMP_prac,left,0.8838144983164966,,,,,,,,,,,,,,,,,,,,,1,,,left,0.39908107416704297,,,,,,,,,,,,,,1005,2019_May_08_1349,mf_amp_cond1,3.0.7,59.98391702322331,
strength,,&&&&&&&&,images/symbols/symbol_4.png,condition_files/AMP_rep4.csv,left,sanctity.virtue,,,,,,,,,,,,,,,,,,,,,0,3,3,3,0,2,2,2,,,,,,,,,,,,,1875.950619117124,,,,,AMP_prac,left,0.8838144983164966,,,,,,,,,,,,,,,,,,,,,1,,,left,0.4325693363789469,,,,,,,,,,,,,,1005,2019_May_08_1349,mf_amp_cond1,3.0.7,59.98391702322331,
abuse,,&&&&&,images/symbols/symbol_52.png,condition_files/AMP_rep4.csv,right,sanctity.vice,,,,,,,,,,,,,,,,,,,,,0,3,3,3,0,3,3,3,,,,,,,,,,,,,1876.5174317540368,,,,,AMP_prac,left,0.8838144983164966,,,,,,,,,,,,,,,,,,,,,1,,,left,0.3336513803806156,,,,,,,,,,,,,,1005,2019_May_08_1349,mf_amp_cond1,3.0.7,59.98391702322331,
hope,,&&&&,images/symbols/symbol_48.png,condition_files/AMP_rep4.csv,left,loyalty.virtue,,,,,,,,,,,,,,,,,,,,,0,3,3,3,0,4,4,4,,,,,,,,,,,,,1877.1175931401085,,,,,AMP_prac,left,0.8838144983164966,,,,,,,,,,,,,,,,,,,,,1,,,left,0.3819196866825223,,,,,,,,,,,,,,1005,2019_May_08_1349,mf_amp_cond1,3.0.7,59.98391702322331,
skypped,,&&&&&&&,images/symbols/symbol_71.png,condition_files/AMP_rep4.csv,None,nonword,,,,,,,,,,,,,,,,,,,,,0,3,3,3,0,5,5,5,,,,,,,,,,,,,1877.9177726148628,,,,,AMP_prac,left,0.8838144983164966,,,,,,,,,,,,,,,,,,,,,1,,,left,0.5825853082351387,,,,,,,,,,,,,,1005,2019_May_08_1349,mf_amp_cond1,3.0.7,59.98391702322331,
compassion,,&&&&&&&&&&,images/symbols/symbol_45.png,condition_files/AMP_rep4.csv,left,care.virtue,,,,,,,,,,,,,,,,,,,,,0,3,3,3,0,6,6,6,,,,,,,,,,,,,1878.46777986316,,,,,AMP_prac,left,0.8838144983164966,,,,,,,,,,,,,,,,,,,,,1,,,left,0.3321269998559728,,,,,,,,,,,,,,1005,2019_May_08_1349,mf_amp_cond1,3.0.7,59.98391702322331,
lighnde,,&&&&&&&,images/symbols/symbol_35.png,condition_files/AMP_rep4.csv,None,nonword,,,,,,,,,,,,,,,,,,,,,0,3,3,3,0,7,7,7,,,,,,,,,,,,,1879.0180558743887,,,,,AMP_prac,left,0.8838144983164966,,,,,,,,,,,,,,,,,,,,,1,,,left,0.3325262957951054,,,,,,,,,,,,,,1005,2019_May_08_1349,mf_amp_cond1,3.0.7,59.98391702322331,
shot,,&&&&,images/symbols/symbol_41.png,condition_files/AMP_rep4.csv,right,care.vice,,,,,,,,,,,,,,,,,,,,,0,3,3,3,0,8,8,8,,,,,,,,,,,,,1879.7349319496425,,,,,AMP_prac,left,0.8838144983164966,,,,,,,,,,,,,,,,,,,,,1,,,left,0.4999406668357551,,,,,,,,,,,,,,1005,2019_May_08_1349,mf_amp_cond1,3.0.7,59.98391702322331,
support,,&&&&&&&,images/symbols/symbol_6.png,condition_files/AMP_rep4.csv,left,loyalty.virtue,,,,,,,,,,,,,,,,,,,,,0,3,3,3,0,9,9,9,,,,,,,,,,,,,1880.4183832650306,,,,,AMP_prac,left,0.8838144983164966,,,,,,,,,,,,,,,,,,,,,1,,,right,0.450338808237575,,,,,,,,,,,,,,1005,2019_May_08_1349,mf_amp_cond1,3.0.7,59.98391702322331,
serial,,&&&&&&,images/symbols/symbol_70.png,condition_files/AMP_rep4.csv,right,sanctity.vice,,,,,,,,,,,,,,,,,,,,,0,3,3,3,0,10,10,10,,,,,,,,,,,,,1881.135255812318,,,,,AMP_prac,left,0.8838144983164966,,,,,,,,,,,,,,,,,,,,,1,,,right,0.4988527857931331,,,,,,,,,,,,,,1005,2019_May_08_1349,mf_amp_cond1,3.0.7,59.98391702322331,
lies,,&&&&,images/symbols/symbol_26.png,condition_files/AMP_rep4.csv,right,fairness.vice,,,,,,,,,,,,,,,,,,,,,0,3,3,3,0,11,11,11,,,,,,,,,,,,,1881.7521084109321,,,,,AMP_prac,left,0.8838144983164966,,,,,,,,,,,,,,,,,,,,,1,,,left,0.3992629221174866,,,,,,,,,,,,,,1005,2019_May_08_1349,mf_amp_cond1,3.0.7,59.98391702322331,
powerful,,&&&&&&&&,images/symbols/symbol_67.png,condition_files/AMP_rep4.csv,left,authority.virtue,,,,,,,,,,,,,,,,,,,,,0,3,3,3,0,12,12,12,,,,,,,,,,,,,1882.585583395441,,,,,AMP_prac,left,0.8838144983164966,,,,,,,,,,,,,,,,,,,,,1,,,left,0.6158628576667979,,,,,,,,,,,,,,1005,2019_May_08_1349,mf_amp_cond1,3.0.7,59.98391702322331,
sexual,,&&&&&&,images/symbols/symbol_16.png,condition_files/AMP_rep4.csv,right,sanctity.vice,,,,,,,,,,,,,,,,,,,,,0,3,3,3,0,13,13,13,,,,,,,,,,,,,1883.3190968021518,,,,,AMP_prac,left,0.8838144983164966,,,,,,,,,,,,,,,,,,,,,1,,,left,0.516125462949276,,,,,,,,,,,,,,1005,2019_May_08_1349,mf_amp_cond1,3.0.7,59.98391702322331,
increase,,&&&&&&&&,images/symbols/symbol_1.png,condition_files/AMP_rep4.csv,left,care.virtue,,,,,,,,,,,,,,,,,,,,,0,3,3,3,0,14,14,14,,,,,,,,,,,,,1883.969262870727,,,,,AMP_prac,left,0.8838144983164966,,,,,,,,,,,,,,,,,,,,,1,,,left,0.4324817799497396,,,,,,,,,,,,,,1005,2019_May_08_1349,mf_amp_cond1,3.0.7,59.98391702322331,
pleasant,,&&&&&&&,images/symbols/symbol_68.png,condition_files/AMP_rep4.csv,right,control,,,,,,,,,,,,,,,,,,,,,0,3,3,3,0,15,15,15,,,,,,,,,,,,,1884.5360633202363,,,,,AMP_prac,left,0.8838144983164966,,,,,,,,,,,,,,,,,,,,,1,,,left,0.3335968579631299,,,,,,,,,,,,,,1005,2019_May_08_1349,mf_amp_cond1,3.0.7,59.98391702322331,
critics,,&&&&&&&,images/symbols/symbol_44.png,condition_files/AMP_rep4.csv,right,loyalty.vice,,,,,,,,,,,,,,,,,,,,,0,3,3,3,0,16,16,16,,,,,,,,,,,,,1885.0695323393447,,,,,AMP_prac,left,0.8838144983164966,,,,,,,,,,,,,,,,,,,,,1,,,left,0.3149787619477138,,,,,,,,,,,,,,1005,2019_May_08_1349,mf_amp_cond1,3.0.7,59.98391702322331,
fighters,,&&&&&&&&,images/symbols/symbol_32.png,condition_files/AMP_rep4.csv,right,authority.vice,,,,,,,,,,,,,,,,,,,,,0,3,3,3,0,17,17,17,,,,,,,,,,,,,1885.6863506209338,,,,,AMP_prac,left,0.8838144983164966,,,,,,,,,,,,,,,,,,,,,1,,,left,0.3992728644516319,,,,,,,,,,,,,,1005,2019_May_08_1349,mf_amp_cond1,3.0.7,59.98391702322331,
fear,,&&&&,images/symbols/symbol_75.png,condition_files/AMP_rep4.csv,right,sanctity.vice,,,,,,,,,,,,,,,,,,,,,0,3,3,3,0,18,18,18,,,,,,,,,,,,,1886.6532603716478,,,,,AMP_prac,left,0.8838144983164966,,,,,,,,,,,,,,,,,,,,,1,,,left,0.7492793429410085,,,,,,,,,,,,,,1005,2019_May_08_1349,mf_amp_cond1,3.0.7,59.98391702322331,
terrorists,,&&&&&&&&&&,images/symbols/symbol_18.png,condition_files/AMP_rep4.csv,right,fairness.vice,,,,,,,,,,,,,,,,,,,,,0,3,3,3,0,19,19,19,,,,,,,,,,,,,1887.2700776910642,,,,,AMP_prac,left,0.8838144983164966,,,,,,,,,,,,,,,,,,,,,1,,,left,0.3836589492857456,,,,,,,,,,,,,,1005,2019_May_08_1349,mf_amp_cond1,3.0.7,59.98391702322331,
freedom,,&&&&&&&,images/symbols/symbol_9.png,condition_files/AMP_rep4.csv,left,sanctity.virtue,,,,,,,,,,,,,,,,,,,,,0,3,3,3,0,20,20,20,,,,,,,,,,,,,1887.8868921239628,,,,,AMP_prac,left,0.8838144983164966,,,,,,,,,,,,,,,,,,,,,1,,,left,0.3986679872032255,,,,,,,,,,,,,,1005,2019_May_08_1349,mf_amp_cond1,3.0.7,59.98391702322331,
intelligence,,&&&&&&&&&&&&,images/symbols/symbol_19.png,condition_files/AMP_rep4.csv,left,loyalty.virtue,,,,,,,,,,,,,,,,,,,,,0,3,3,3,0,21,21,21,,,,,,,,,,,,,1888.4703732021153,,,,,AMP_prac,left,0.8838144983164966,,,,,,,,,,,,,,,,,,,,,1,,,left,0.3658981368644163,,,,,,,,,,,,,,1005,2019_May_08_1349,mf_amp_cond1,3.0.7,59.98391702322331,
help,,&&&&,images/symbols/symbol_55.png,condition_files/AMP_rep4.csv,left,care.virtue,,,,,,,,,,,,,,,,,,,,,0,3,3,3,0,22,22,22,,,,,,,,,,,,,1889.037180386833,,,,,AMP_prac,left,0.8838144983164966,,,,,,,,,,,,,,,,,,,,,1,,,left,0.3490744672017172,,,,,,,,,,,,,,1005,2019_May_08_1349,mf_amp_cond1,3.0.7,59.98391702322331,
victim,,&&&&&&,images/symbols/symbol_39.png,condition_files/AMP_rep4.csv,right,care.vice,,,,,,,,,,,,,,,,,,,,,0,3,3,3,0,23,23,23,,,,,,,,,,,,,1889.6206649928354,,,,,AMP_prac,left,0.8838144983164966,,,,,,,,,,,,,,,,,,,,,1,,,left,0.3656470134155825,,,,,,,,,,,,,,1005,2019_May_08_1349,mf_amp_cond1,3.0.7,59.98391702322331,
fraud,,&&&&&,images/symbols/symbol_76.png,condition_files/AMP_rep4.csv,right,fairness.vice,,,,,,,,,,,,,,,,,,,,,0,3,3,3,0,24,24,24,,,,,,,,,,,,,1890.2208318312187,,,,,AMP_prac,left,0.8838144983164966,,,,,,,,,,,,,,,,,,,,,1,,,left,0.3830370740033686,,,,,,,,,,,,,,1005,2019_May_08_1349,mf_amp_cond1,3.0.7,59.98391702322331,
slavery,,&&&&&&&,images/symbols/symbol_24.png,condition_files/AMP_rep4.csv,right,loyalty.vice,,,,,,,,,,,,,,,,,,,,,0,3,3,3,0,25,25,25,,,,,,,,,,,,,1890.8209611454513,,,,,AMP_prac,left,0.8838144983164966,,,,,,,,,,,,,,,,,,,,,1,,,left,0.3824174435576424,,,,,,,,,,,,,,1005,2019_May_08_1349,mf_amp_cond1,3.0.7,59.98391702322331,
praise,,&&&&&&,images/symbols/symbol_22.png,condition_files/AMP_rep4.csv,left,authority.virtue,,,,,,,,,,,,,,,,,,,,,0,3,3,3,0,26,26,26,,,,,,,,,,,,,1891.4044402992586,,,,,AMP_prac,left,0.8838144983164966,,,,,,,,,,,,,,,,,,,,,1,,,left,0.36594207549933344,,,,,,,,,,,,,,1005,2019_May_08_1349,mf_amp_cond1,3.0.7,59.98391702322331,
victims,,&&&&&&&,images/symbols/symbol_43.png,condition_files/AMP_rep4.csv,right,care.vice,,,,,,,,,,,,,,,,,,,,,0,3,3,3,0,27,27,27,,,,,,,,,,,,,1891.9879120765254,,,,,AMP_prac,left,0.8838144983164966,,,,,,,,,,,,,,,,,,,,,1,,,left,0.36597190238535404,,,,,,,,,,,,,,1005,2019_May_08_1349,mf_amp_cond1,3.0.7,59.98391702322331,
safe,,&&&&,images/symbols/symbol_36.png,condition_files/AMP_rep4.csv,left,care.virtue,,,,,,,,,,,,,,,,,,,,,0,3,3,3,0,28,28,28,,,,,,,,,,,,,1892.5213717948645,,,,,AMP_prac,left,0.8838144983164966,,,,,,,,,,,,,,,,,,,,,1,,,left,0.3158979444997385,,,,,,,,,,,,,,1005,2019_May_08_1349,mf_amp_cond1,3.0.7,59.98391702322331,
improve,,&&&&&&&,images/symbols/symbol_31.png,condition_files/AMP_rep4.csv,left,care.virtue,,,,,,,,,,,,,,,,,,,,,0,3,3,3,0,29,29,29,,,,,,,,,,,,,1893.1215110513149,,,,,AMP_prac,left,0.8838144983164966,,,,,,,,,,,,,,,,,,,,,1,,,left,0.3834928165888414,,,,,,,,,,,,,,1005,2019_May_08_1349,mf_amp_cond1,3.0.7,59.98391702322331,
trust,,&&&&&,images/symbols/symbol_2.png,condition_files/AMP_rep4.csv,left,authority.virtue,,,,,,,,,,,,,,,,,,,,,0,3,3,3,0,30,30,30,,,,,,,,,,,,,1893.7716886658454,,,,,AMP_prac,left,0.8838144983164966,,,,,,,,,,,,,,,,,,,,,1,,,left,0.43212770542595536,,,,,,,,,,,,,,1005,2019_May_08_1349,mf_amp_cond1,3.0.7,59.98391702322331,
safety,,&&&&&&,images/symbols/symbol_34.png,condition_files/AMP_rep4.csv,left,care.virtue,,,,,,,,,,,,,,,,,,,,,0,3,3,3,0,31,31,31,,,,,,,,,,,,,1894.2884632654022,,,,,AMP_prac,left,0.8838144983164966,,,,,,,,,,,,,,,,,,,,,1,,,left,0.2991554168984294,,,,,,,,,,,,,,1005,2019_May_08_1349,mf_amp_cond1,3.0.7,59.98391702322331,
ensure,,&&&&&&,images/symbols/symbol_79.png,condition_files/AMP_rep4.csv,left,fairness.virtue,,,,,,,,,,,,,,,,,,,,,0,3,3,3,0,32,32,32,,,,,,,,,,,,,1894.7886085513746,,,,,AMP_prac,left,0.8838144983164966,,,,,,,,,,,,,,,,,,,,,1,,,left,0.2825267448788509,,,,,,,,,,,,,,1005,2019_May_08_1349,mf_amp_cond1,3.0.7,59.98391702322331,
army,,&&&&,images/symbols/symbol_58.png,condition_files/AMP_rep4.csv,right,loyalty.vice,,,,,,,,,,,,,,,,,,,,,0,3,3,3,0,33,33,33,,,,,,,,,,,,,1895.3554016243434,,,,,AMP_prac,left,0.8838144983164966,,,,,,,,,,,,,,,,,,,,,1,,,left,0.33362925064284354,,,,,,,,,,,,,,1005,2019_May_08_1349,mf_amp_cond1,3.0.7,59.98391702322331,
sneaze,,&&&&&&,images/symbols/symbol_38.png,condition_files/AMP_rep4.csv,None,nonword,,,,,,,,,,,,,,,,,,,,,0,3,3,3,0,34,34,34,,,,,,,,,,,,,1895.8555302328896,,,,,AMP_prac,left,0.8838144983164966,,,,,,,,,,,,,,,,,,,,,1,,,left,0.28204598603770137,,,,,,,,,,,,,,1005,2019_May_08_1349,mf_amp_cond1,3.0.7,59.98391702322331,
stailde,,&&&&&&&,images/symbols/symbol_77.png,condition_files/AMP_rep4.csv,None,nonword,,,,,,,,,,,,,,,,,,,,,0,3,3,3,0,35,35,35,,,,,,,,,,,,,1896.339000021806,,,,,AMP_prac,left,0.8838144983164966,,,,,,,,,,,,,,,,,,,,,1,,,left,0.2659057700075209,,,,,,,,,,,,,,1005,2019_May_08_1349,mf_amp_cond1,3.0.7,59.98391702322331,
dignity,,&&&&&&&,images/symbols/symbol_64.png,condition_files/AMP_rep4.csv,left,sanctity.virtue,,,,,,,,,,,,,,,,,,,,,0,3,3,3,0,36,36,36,,,,,,,,,,,,,1896.872445949004,,,,,AMP_prac,left,0.8838144983164966,,,,,,,,,,,,,,,,,,,,,1,,,left,0.3156933253630996,,,,,,,,,,,,,,1005,2019_May_08_1349,mf_amp_cond1,3.0.7,59.98391702322331,
shypse,,&&&&&&,images/symbols/symbol_27.png,condition_files/AMP_rep4.csv,None,nonword,,,,,,,,,,,,,,,,,,,,,0,3,3,3,0,37,37,37,,,,,,,,,,,,,1897.3727734037675,,,,,AMP_prac,left,0.8838144983164966,,,,,,,,,,,,,,,,,,,,,1,,,left,0.28260467969812453,,,,,,,,,,,,,,1005,2019_May_08_1349,mf_amp_cond1,3.0.7,59.98391702322331,
accused,,&&&&&&&,images/symbols/symbol_81.png,condition_files/AMP_rep4.csv,right,fairness.vice,,,,,,,,,,,,,,,,,,,,,0,3,3,3,0,38,38,38,,,,,,,,,,,,,1897.9227043207502,,,,,AMP_prac,left,0.8838144983164966,,,,,,,,,,,,,,,,,,,,,1,,,left,0.3169537535868585,,,,,,,,,,,,,,1005,2019_May_08_1349,mf_amp_cond1,3.0.7,59.98391702322331,
peace,,&&&&&,images/symbols/symbol_14.png,condition_files/AMP_rep4.csv,left,care.virtue,,,,,,,,,,,,,,,,,,,,,0,3,3,3,0,39,39,39,,,,,,,,,,,,,1898.5395267716376,,,,,AMP_prac,left,0.8838144983164966,,,,,,,,,,,,,,,,,,,,,1,,,left,0.39858427934814245,,,,,,,,,,,,,,1005,2019_May_08_1349,mf_amp_cond1,3.0.7,59.98391702322331,
voter,,&&&&&,images/symbols/symbol_7.png,condition_files/AMP_rep4.csv,right,fairness.vice,,,,,,,,,,,,,,,,,,,,,0,3,3,3,0,40,40,40,,,,,,,,,,,,,1899.4397666058503,,,,,AMP_prac,left,0.8838144983164966,,,,,,,,,,,,,,,,,,,,,1,,,left,0.6827219990082085,,,,,,,,,,,,,,1005,2019_May_08_1349,mf_amp_cond1,3.0.7,59.98391702322331,
black,,&&&&&,images/symbols/symbol_10.png,condition_files/AMP_rep4.csv,right,loyalty.vice,,,,,,,,,,,,,,,,,,,,,0,3,3,3,0,41,41,41,,,,,,,,,,,,,1900.0232348552672,,,,,AMP_prac,left,0.8838144983164966,,,,,,,,,,,,,,,,,,,,,1,,,left,0.3659459240734577,,,,,,,,,,,,,,1005,2019_May_08_1349,mf_amp_cond1,3.0.7,59.98391702322331,
blamed,,&&&&&&,images/symbols/symbol_21.png,condition_files/AMP_rep4.csv,right,loyalty.vice,,,,,,,,,,,,,,,,,,,,,0,3,3,3,0,42,42,42,,,,,,,,,,,,,1900.5233429378131,,,,,AMP_prac,left,0.8838144983164966,,,,,,,,,,,,,,,,,,,,,1,,,left,0.2827413062332198,,,,,,,,,,,,,,1005,2019_May_08_1349,mf_amp_cond1,3.0.7,59.98391702322331,
gun,,&&&,images/symbols/symbol_13.png,condition_files/AMP_rep4.csv,right,authority.vice,,,,,,,,,,,,,,,,,,,,,0,3,3,3,0,43,43,43,,,,,,,,,,,,,1901.073485850473,,,,,AMP_prac,left,0.8838144983164966,,,,,,,,,,,,,,,,,,,,,1,,,left,0.3324708113214001,,,,,,,,,,,,,,1005,2019_May_08_1349,mf_amp_cond1,3.0.7,59.98391702322331,
encourage,,&&&&&&&&&,images/symbols/symbol_15.png,condition_files/AMP_rep4.csv,left,authority.virtue,,,,,,,,,,,,,,,,,,,,,0,3,3,3,0,44,44,44,,,,,,,,,,,,,1901.6569694944192,,,,,AMP_prac,left,0.8838144983164966,,,,,,,,,,,,,,,,,,,,,1,,,left,0.36533912259619683,,,,,,,,,,,,,,1005,2019_May_08_1349,mf_amp_cond1,3.0.7,59.98391702322331,
death,,&&&&&,images/symbols/symbol_56.png,condition_files/AMP_rep4.csv,right,care.vice,,,,,,,,,,,,,,,,,,,,,0,3,3,3,0,45,45,45,,,,,,,,,,,,,1902.3905146523612,,,,,AMP_prac,left,0.8838144983164966,,,,,,,,,,,,,,,,,,,,,1,,,right,0.5004146904684603,,,,,,,,,,,,,,1005,2019_May_08_1349,mf_amp_cond1,3.0.7,59.98391702322331,
love,,&&&&,images/symbols/symbol_20.png,condition_files/AMP_rep4.csv,left,loyalty.virtue,,,,,,,,,,,,,,,,,,,,,0,3,3,3,0,46,46,46,,,,,,,,,,,,,1903.0072905989364,,,,,AMP_prac,left,0.8838144983164966,,,,,,,,,,,,,,,,,,,,,1,,,right,0.3991368792485446,,,,,,,,,,,,,,1005,2019_May_08_1349,mf_amp_cond1,3.0.7,59.98391702322331,
interests,,&&&&&&&&&,images/symbols/symbol_72.png,condition_files/AMP_rep4.csv,left,fairness.virtue,,,,,,,,,,,,,,,,,,,,,0,3,3,3,0,47,47,47,,,,,,,,,,,,,1903.7574769370258,,,,,AMP_prac,left,0.8838144983164966,,,,,,,,,,,,,,,,,,,,,1,,,left,0.5170276473509148,,,,,,,,,,,,,,1005,2019_May_08_1349,mf_amp_cond1,3.0.7,59.98391702322331,
