words,masks,symbols,conditionfile,corr_ans,category,mask,LDT_trials_cond2.thisRepN,LDT_trials_cond2.thisTrialN,LDT_trials_cond2.thisN,LDT_trials_cond2.thisIndex,logo_trials.thisRepN,logo_trials.thisTrialN,logo_trials.thisN,logo_trials.thisIndex,AMP_pracs.thisRepN,AMP_pracs.thisTrialN,AMP_pracs.thisN,AMP_pracs.thisIndex,trials_loop.thisRepN,trials_loop.thisTrialN,trials_loop.thisN,trials_loop.thisIndex,AMP_trials.thisRepN,AMP_trials.thisTrialN,AMP_trials.thisN,AMP_trials.thisIndex,memtask_trials.thisRepN,memtask_trials.thisTrialN,memtask_trials.thisN,memtask_trials.thisIndex,LDT_cond1.thisRepN,LDT_cond1.thisTrialN,LDT_cond1.thisN,LDT_cond1.thisIndex,LDT_pracs.thisRepN,LDT_pracs.thisTrialN,LDT_pracs.thisN,LDT_pracs.thisIndex,LDT_trials.thisRepN,LDT_trials.thisTrialN,LDT_trials.thisN,LDT_trials.thisIndex,begin_key.keys,begin_key.rt,key_resp_instr.keys,key_resp_instr.rt,exp_time,resp_sym_rate.keys,resp_sym_rate.rt,sym_resp_1.keys,sym_resp_1.rt,sym_resp_2.keys,sym_resp_2.rt,sym_resp_trial.keys,sym_resp_trial.rt,symbol_index,resp_AMP_ready1.keys,resp_AMP_ready1.rt,resp_AMP.keys,resp_AMP.rt,task,keypress,RT,prime_dur,resp_AMP_ready.keys,resp_AMP_ready.rt,resp_AMP_trials.keys,resp_AMP_trials.rt,rest_key_resp.keys,rest_key_resp.rt,AMP_nonword_rating.response,AMP_nonword_rating.rt,AMP_word_rating.response,AMP_word_rating.rt,AMP_random_rating.response,AMP_random_rating.rt,key_resp_instr_memtask.keys,key_resp_instr_memtask.rt,resp_memtask.keys,resp_memtask.corr,resp_memtask.rt,corr,key_resp_LDT_instr.keys,key_resp_LDT_instr.rt,resp_LDT_prac.keys,resp_LDT_prac.rt,resp_LDT_ready.keys,resp_LDT_ready.rt,resp_LDT_trial.keys,resp_LDT_trial.rt,LDT_rating.response,LDT_rating.rt,participant ID,date,expName,psychopyVersion,frameRate,
,,,,,,,,,,,,,,,,,,,,,,,,,,,,,,,,,,,,,,,,,,,right,673.7175897327252,,,,,,,,,,,,,,,,,,,,,,,,,,,,,,,,,,,,,,,,,,,,,,,,,1008,2019_May_08_1649,mf_amp_cond1,3.0.7,59.984994042421704,
,,,,,,,,,,,,,,,,,,,,,,,,,,,,,,,,,,,,,,,,,,,,,right,0.9838279808172956,,,,,,,,,,,,,,,,,,,,,,,,,,,,,,,,,,,,,,,,,,,,,,,1008,2019_May_08_1649,mf_amp_cond1,3.0.7,59.984994042421704,
,,,,,,,,,,,,,,,,,,,,,,,,,,,,,,,,,,,,,,,,,,,,,,,712.7342492474709,right,1.2839000147068873,,,,,,,,,,,,,,,,,,,,,,,,,,,,,,,,,,,,,,,,,,,,1008,2019_May_08_1649,mf_amp_cond1,3.0.7,59.984994042421704,
,,,,,,,,,,,,,,,,,,,,,,,,,,,,,,,,,,,,,,,,,,,,,,,776.0500959275523,,,left,2.5508714301977307,,,,,,,,,,,,,,,,,,,,,,,,,,,,,,,,,,,,,,,,,,1008,2019_May_08_1649,mf_amp_cond1,3.0.7,59.984994042421704,
,,,,,,,,,,,,,,,,,,,,,,,,,,,,,,,,,,,,,,,,,,,,,,,,,,,,right,1.06716692680493,,,,,,,,,,,,,,,,,,,,,,,,,,,,,,,,,,,,,,,,1008,2019_May_08_1649,mf_amp_cond1,3.0.7,59.984994042421704,
,,,,,,,,,,,,,,,,,,,,,,,,,,,,,,,,,,,,,,,,,,,,,,,795.7049696950708,,,,,,,left,0.7816777410916984,6,right,0.8837916752090678,,,,,,,,,,,,,,,,,,,,,,,,,,,,,,,,,,,1008,2019_May_08_1649,mf_amp_cond1,3.0.7,59.984994042421704,
banana,&&&&&&,images/symbols/symbol_68.png,,,,,,,,,,,,,0,0,0,1,,,,,,,,,,,,,,,,,,,,,,,,,,,,,940.3415322366636,,,,,,,,,,,,left,1.5339742614887655,AMP_prac,left,1.5339742614887655,3,,,,,,,,,,,,,,,,,,,,,,,,,,,,,1008,2019_May_08_1649,mf_amp_cond1,3.0.7,59.984994042421704,
keyboard,&&&&&&&&,images/symbols/symbol_40.png,,,,,,,,,,,,,0,1,1,2,,,,,,,,,,,,,,,,,,,,,,,,,,,,,941.4749991821591,,,,,,,,,,,,left,0.9004941664170474,AMP_prac,left,0.9004941664170474,3,,,,,,,,,,,,,,,,,,,,,,,,,,,,,1008,2019_May_08_1649,mf_amp_cond1,3.0.7,59.984994042421704,
scarf,&&&&&,images/symbols/symbol_54.png,,,,,,,,,,,,,0,2,2,3,,,,,,,,,,,,,,,,,,,,,,,,,,,,,943.0753626228543,,,,,,,,,,,,left,1.3672575623495504,AMP_prac,left,1.3672575623495504,3,,,,,,,,,,,,,,,,,,,,,,,,,,,,,1008,2019_May_08_1649,mf_amp_cond1,3.0.7,59.984994042421704,
car,&&&,images/symbols/symbol_9.png,,,,,,,,,,,,,0,3,3,0,,,,,,,,,,,,,,,,,,,,,,,,,,,,,944.6924279131927,,,,,,,,,,,,left,1.398419103701599,AMP_prac,left,1.398419103701599,3,,,,,,,,,,,,,,,,,,,,,,,,,,,,,1008,2019_May_08_1649,mf_amp_cond1,3.0.7,59.984994042421704,
,,,,,,,,,,,,,,,,,,,,,,,,,,,,,,,,,,,,,,,,,,,,,,,,,,,,,,,,,,,,,,,,,right,1.033826409257017,,,,,,,,,,,,,,,,,,,,,,,,,,,1008,2019_May_08_1649,mf_amp_cond1,3.0.7,59.984994042421704,
drug,&&&&,images/symbols/symbol_64.png,condition_files/AMP_rep3.csv,right,sanctity.vice,,,,,,,,,,,,,,0,0,0,2,0,0,0,0,,,,,,,,,,,,,,,,,,,,,966.9481324114604,,,,,,,,,,,,,,AMP_prac,left,1.398419103701599,3,,,left,0.9504865012131631,,,,,,,,,,,,,,,,,,,,,,,,,1008,2019_May_08_1649,mf_amp_cond1,3.0.7,59.984994042421704,
men,&&&,images/symbols/symbol_11.png,condition_files/AMP_rep3.csv,right,loyalty.vice,,,,,,,,,,,,,,0,0,0,2,0,1,1,1,,,,,,,,,,,,,,,,,,,,,967.748186485027,,,,,,,,,,,,,,AMP_prac,left,1.398419103701599,3,,,left,0.5670533917145804,,,,,,,,,,,,,,,,,,,,,,,,,1008,2019_May_08_1649,mf_amp_cond1,3.0.7,59.984994042421704,
trust,&&&&&,images/symbols/symbol_75.png,condition_files/AMP_rep3.csv,left,authority.virtue,,,,,,,,,,,,,,0,0,0,2,0,2,2,2,,,,,,,,,,,,,,,,,,,,,968.8651340708602,,,,,,,,,,,,,,AMP_prac,left,1.398419103701599,3,,,right,0.8989261629758403,,,,,,,,,,,,,,,,,,,,,,,,,1008,2019_May_08_1649,mf_amp_cond1,3.0.7,59.984994042421704,
terrorists,&&&&&&&&&&,images/symbols/symbol_12.png,condition_files/AMP_rep3.csv,right,fairness.vice,,,,,,,,,,,,,,0,0,0,2,0,3,3,3,,,,,,,,,,,,,,,,,,,,,969.998792486731,,,,,,,,,,,,,,AMP_prac,left,1.398419103701599,3,,,right,0.9005066745448858,,,,,,,,,,,,,,,,,,,,,,,,,1008,2019_May_08_1649,mf_amp_cond1,3.0.7,59.984994042421704,
critics,&&&&&&&,images/symbols/symbol_74.png,condition_files/AMP_rep3.csv,right,loyalty.vice,,,,,,,,,,,,,,0,0,0,2,0,4,4,4,,,,,,,,,,,,,,,,,,,,,970.715592284454,,,,,,,,,,,,,,AMP_prac,left,1.398419103701599,3,,,left,0.4836919952649623,,,,,,,,,,,,,,,,,,,,,,,,,1008,2019_May_08_1649,mf_amp_cond1,3.0.7,59.984994042421704,
unpleasant,&&&&&&&&&,images/symbols/symbol_61.png,condition_files/AMP_rep3.csv,left,control,,,,,,,,,,,,,,0,0,0,2,0,5,5,5,,,,,,,,,,,,,,,,,,,,,971.5491430665134,,,,,,,,,,,,,,AMP_prac,left,1.398419103701599,3,,,right,0.6157317338511348,,,,,,,,,,,,,,,,,,,,,,,,,1008,2019_May_08_1649,mf_amp_cond1,3.0.7,59.984994042421704,
improve,&&&&&&&,images/symbols/symbol_40.png,condition_files/AMP_rep3.csv,left,care.virtue,,,,,,,,,,,,,,0,0,0,2,0,6,6,6,,,,,,,,,,,,,,,,,,,,,972.282675503171,,,,,,,,,,,,,,AMP_prac,left,1.398419103701599,3,,,left,0.5157387255458161,,,,,,,,,,,,,,,,,,,,,,,,,1008,2019_May_08_1649,mf_amp_cond1,3.0.7,59.984994042421704,
freedom,&&&&&&&,images/symbols/symbol_65.png,condition_files/AMP_rep3.csv,left,sanctity.virtue,,,,,,,,,,,,,,0,0,0,2,0,7,7,7,,,,,,,,,,,,,,,,,,,,,972.8828083457192,,,,,,,,,,,,,,AMP_prac,left,1.398419103701599,3,,,left,0.38239012588746846,,,,,,,,,,,,,,,,,,,,,,,,,1008,2019_May_08_1649,mf_amp_cond1,3.0.7,59.984994042421704,
loyalty,&&&&&&&,images/symbols/symbol_67.png,condition_files/AMP_rep3.csv,left,loyalty.virtue,,,,,,,,,,,,,,0,0,0,2,0,8,8,8,,,,,,,,,,,,,,,,,,,,,973.56631797913,,,,,,,,,,,,,,AMP_prac,left,1.398419103701599,3,,,left,0.46577782137319446,,,,,,,,,,,,,,,,,,,,,,,,,1008,2019_May_08_1649,mf_amp_cond1,3.0.7,59.984994042421704,
embrace,&&&&&&&,images/symbols/symbol_77.png,condition_files/AMP_rep3.csv,left,authority.virtue,,,,,,,,,,,,,,0,0,0,2,0,9,9,9,,,,,,,,,,,,,,,,,,,,,974.2998276447179,,,,,,,,,,,,,,AMP_prac,left,1.398419103701599,3,,,right,0.5158609201898798,,,,,,,,,,,,,,,,,,,,,,,,,1008,2019_May_08_1649,mf_amp_cond1,3.0.7,59.984994042421704,
safety,&&&&&&,images/symbols/symbol_22.png,condition_files/AMP_rep3.csv,left,care.virtue,,,,,,,,,,,,,,0,0,0,2,0,10,10,10,,,,,,,,,,,,,,,,,,,,,975.1000407957472,,,,,,,,,,,,,,AMP_prac,left,1.398419103701599,3,,,right,0.5822950000874698,,,,,,,,,,,,,,,,,,,,,,,,,1008,2019_May_08_1649,mf_amp_cond1,3.0.7,59.984994042421704,
death,&&&&&,images/symbols/symbol_15.png,condition_files/AMP_rep3.csv,right,care.vice,,,,,,,,,,,,,,0,0,0,2,0,11,11,11,,,,,,,,,,,,,,,,,,,,,975.8835556248669,,,,,,,,,,,,,,AMP_prac,left,1.398419103701599,3,,,left,0.5657875071046874,,,,,,,,,,,,,,,,,,,,,,,,,1008,2019_May_08_1649,mf_amp_cond1,3.0.7,59.984994042421704,
slypped,&&&&&&&,images/symbols/symbol_3.png,condition_files/AMP_rep3.csv,None,nonword,,,,,,,,,,,,,,0,0,0,2,0,12,12,12,,,,,,,,,,,,,,,,,,,,,976.5670877087396,,,,,,,,,,,,,,AMP_prac,left,1.398419103701599,3,,,left,0.46584838000126183,,,,,,,,,,,,,,,,,,,,,,,,,1008,2019_May_08_1649,mf_amp_cond1,3.0.7,59.984994042421704,
frord,&&&&&,images/symbols/symbol_60.png,condition_files/AMP_rep3.csv,None,nonword,,,,,,,,,,,,,,0,0,0,2,0,13,13,13,,,,,,,,,,,,,,,,,,,,,977.4006137952674,,,,,,,,,,,,,,AMP_prac,left,1.398419103701599,3,,,right,0.6158083860063925,,,,,,,,,,,,,,,,,,,,,,,,,1008,2019_May_08_1649,mf_amp_cond1,3.0.7,59.984994042421704,
energy,&&&&&&,images/symbols/symbol_70.png,condition_files/AMP_rep3.csv,left,sanctity.virtue,,,,,,,,,,,,,,0,0,0,2,0,14,14,14,,,,,,,,,,,,,,,,,,,,,978.0174253955483,,,,,,,,,,,,,,AMP_prac,left,1.398419103701599,3,,,left,0.39923213061410934,,,,,,,,,,,,,,,,,,,,,,,,,1008,2019_May_08_1649,mf_amp_cond1,3.0.7,59.984994042421704,
sharing,&&&&&&&,images/symbols/symbol_35.png,condition_files/AMP_rep3.csv,left,loyalty.virtue,,,,,,,,,,,,,,0,0,0,2,0,15,15,15,,,,,,,,,,,,,,,,,,,,,978.9343786261743,,,,,,,,,,,,,,AMP_prac,left,1.398419103701599,3,,,left,0.6991636888124049,,,,,,,,,,,,,,,,,,,,,,,,,1008,2019_May_08_1649,mf_amp_cond1,3.0.7,59.984994042421704,
powerful,&&&&&&&&,images/symbols/symbol_46.png,condition_files/AMP_rep3.csv,left,authority.virtue,,,,,,,,,,,,,,0,0,0,2,0,16,16,16,,,,,,,,,,,,,,,,,,,,,979.6512393609155,,,,,,,,,,,,,,AMP_prac,left,1.398419103701599,3,,,right,0.4992177622625604,,,,,,,,,,,,,,,,,,,,,,,,,1008,2019_May_08_1649,mf_amp_cond1,3.0.7,59.984994042421704,
restore,&&&&&&&,images/symbols/symbol_5.png,condition_files/AMP_rep3.csv,left,care.virtue,,,,,,,,,,,,,,0,0,0,2,0,17,17,17,,,,,,,,,,,,,,,,,,,,,980.7847896938911,,,,,,,,,,,,,,AMP_prac,left,1.398419103701599,3,,,left,0.915982729755342,,,,,,,,,,,,,,,,,,,,,,,,,1008,2019_May_08_1649,mf_amp_cond1,3.0.7,59.984994042421704,
dignity,&&&&&&&,images/symbols/symbol_19.png,condition_files/AMP_rep3.csv,left,sanctity.virtue,,,,,,,,,,,,,,0,0,0,2,0,18,18,18,,,,,,,,,,,,,,,,,,,,,981.5849816772388,,,,,,,,,,,,,,AMP_prac,left,1.398419103701599,3,,,left,0.5825381063623354,,,,,,,,,,,,,,,,,,,,,,,,,1008,2019_May_08_1649,mf_amp_cond1,3.0.7,59.984994042421704,
safe,&&&&,images/symbols/symbol_58.png,condition_files/AMP_rep3.csv,left,care.virtue,,,,,,,,,,,,,,0,0,0,2,0,19,19,19,,,,,,,,,,,,,,,,,,,,,982.2351434166776,,,,,,,,,,,,,,AMP_prac,left,1.398419103701599,3,,,left,0.4324504534015432,,,,,,,,,,,,,,,,,,,,,,,,,1008,2019_May_08_1649,mf_amp_cond1,3.0.7,59.984994042421704,
benefit,&&&&&&&,images/symbols/symbol_51.png,condition_files/AMP_rep3.csv,left,fairness.virtue,,,,,,,,,,,,,,0,0,0,2,0,20,20,20,,,,,,,,,,,,,,,,,,,,,982.9019813481718,,,,,,,,,,,,,,AMP_prac,left,1.398419103701599,3,,,left,0.4496051607420668,,,,,,,,,,,,,,,,,,,,,,,,,1008,2019_May_08_1649,mf_amp_cond1,3.0.7,59.984994042421704,
intelligence,&&&&&&&&&&&&,images/symbols/symbol_45.png,condition_files/AMP_rep3.csv,left,loyalty.virtue,,,,,,,,,,,,,,0,0,0,2,0,21,21,21,,,,,,,,,,,,,,,,,,,,,983.6021530620055,,,,,,,,,,,,,,AMP_prac,left,1.398419103701599,3,,,left,0.4824315629666671,,,,,,,,,,,,,,,,,,,,,,,,,1008,2019_May_08_1649,mf_amp_cond1,3.0.7,59.984994042421704,
respect,&&&&&&&,images/symbols/symbol_62.png,condition_files/AMP_rep3.csv,left,sanctity.virtue,,,,,,,,,,,,,,0,0,0,2,0,22,22,22,,,,,,,,,,,,,,,,,,,,,984.3357175708516,,,,,,,,,,,,,,AMP_prac,left,1.398419103701599,3,,,left,0.5004470846615732,,,,,,,,,,,,,,,,,,,,,,,,,1008,2019_May_08_1649,mf_amp_cond1,3.0.7,59.984994042421704,
strength,&&&&&&&&,images/symbols/symbol_80.png,condition_files/AMP_rep3.csv,left,sanctity.virtue,,,,,,,,,,,,,,0,0,0,2,0,23,23,23,,,,,,,,,,,,,,,,,,,,,985.035853684647,,,,,,,,,,,,,,AMP_prac,left,1.398419103701599,3,,,left,0.482409754069522,,,,,,,,,,,,,,,,,,,,,,,,,1008,2019_May_08_1649,mf_amp_cond1,3.0.7,59.984994042421704,
abuse,&&&&&,images/symbols/symbol_55.png,condition_files/AMP_rep3.csv,right,sanctity.vice,,,,,,,,,,,,,,0,0,0,2,0,24,24,24,,,,,,,,,,,,,,,,,,,,,986.1361180226086,,,,,,,,,,,,,,AMP_prac,left,1.398419103701599,3,,,left,0.8824090484995395,,,,,,,,,,,,,,,,,,,,,,,,,1008,2019_May_08_1649,mf_amp_cond1,3.0.7,59.984994042421704,
love,&&&&,images/symbols/symbol_41.png,condition_files/AMP_rep3.csv,left,loyalty.virtue,,,,,,,,,,,,,,0,0,0,2,0,25,25,25,,,,,,,,,,,,,,,,,,,,,987.2363990381127,,,,,,,,,,,,,,AMP_prac,left,1.398419103701599,3,,,left,0.8830306051531807,,,,,,,,,,,,,,,,,,,,,,,,,1008,2019_May_08_1649,mf_amp_cond1,3.0.7,59.984994042421704,
help,&&&&,images/symbols/symbol_39.png,condition_files/AMP_rep3.csv,left,care.virtue,,,,,,,,,,,,,,0,0,0,2,0,26,26,26,,,,,,,,,,,,,,,,,,,,,988.520063002361,,,,,,,,,,,,,,AMP_prac,left,1.398419103701599,3,,,right,1.0658878927351907,,,,,,,,,,,,,,,,,,,,,,,,,1008,2019_May_08_1649,mf_amp_cond1,3.0.7,59.984994042421704,
ban,&&&,images/symbols/symbol_78.png,condition_files/AMP_rep3.csv,right,loyalty.vice,,,,,,,,,,,,,,0,0,0,2,0,27,27,27,,,,,,,,,,,,,,,,,,,,,989.3369183490286,,,,,,,,,,,,,,AMP_prac,left,1.398419103701599,3,,,left,0.5986331526655704,,,,,,,,,,,,,,,,,,,,,,,,,1008,2019_May_08_1649,mf_amp_cond1,3.0.7,59.984994042421704,
hand,&&&&,images/symbols/symbol_1.png,condition_files/AMP_rep3.csv,left,sanctity.virtue,,,,,,,,,,,,,,0,0,0,2,0,28,28,28,,,,,,,,,,,,,,,,,,,,,990.1037848888664,,,,,,,,,,,,,,AMP_prac,left,1.398419103701599,3,,,left,0.5490802051499486,,,,,,,,,,,,,,,,,,,,,,,,,1008,2019_May_08_1649,mf_amp_cond1,3.0.7,59.984994042421704,
betrayal,&&&&&&&&,images/symbols/symbol_29.png,condition_files/AMP_rep3.csv,right,loyalty.vice,,,,,,,,,,,,,,0,0,0,2,0,29,29,29,,,,,,,,,,,,,,,,,,,,,990.7539475903613,,,,,,,,,,,,,,AMP_prac,left,1.398419103701599,3,,,left,0.432351992232725,,,,,,,,,,,,,,,,,,,,,,,,,1008,2019_May_08_1649,mf_amp_cond1,3.0.7,59.984994042421704,
corruption,&&&&&&&&&&,images/symbols/symbol_44.png,condition_files/AMP_rep3.csv,right,sanctity.vice,,,,,,,,,,,,,,0,0,0,2,0,30,30,30,,,,,,,,,,,,,,,,,,,,,991.6708501471439,,,,,,,,,,,,,,AMP_prac,left,1.398419103701599,3,,,right,0.6990389283746481,,,,,,,,,,,,,,,,,,,,,,,,,1008,2019_May_08_1649,mf_amp_cond1,3.0.7,59.984994042421704,
victims,&&&&&&&,images/symbols/symbol_13.png,condition_files/AMP_rep3.csv,right,care.vice,,,,,,,,,,,,,,0,0,0,2,0,31,31,31,,,,,,,,,,,,,,,,,,,,,992.3877198620467,,,,,,,,,,,,,,AMP_prac,left,1.398419103701599,3,,,right,0.49920204700902104,,,,,,,,,,,,,,,,,,,,,,,,,1008,2019_May_08_1649,mf_amp_cond1,3.0.7,59.984994042421704,
care,&&&&,images/symbols/symbol_42.png,condition_files/AMP_rep3.csv,left,care.virtue,,,,,,,,,,,,,,0,0,0,2,0,32,32,32,,,,,,,,,,,,,,,,,,,,,993.1878842634615,,,,,,,,,,,,,,AMP_prac,left,1.398419103701599,3,,,left,0.5824656236218289,,,,,,,,,,,,,,,,,,,,,,,,,1008,2019_May_08_1649,mf_amp_cond1,3.0.7,59.984994042421704,
died,&&&&,images/symbols/symbol_79.png,condition_files/AMP_rep3.csv,right,care.vice,,,,,,,,,,,,,,0,0,0,2,0,33,33,33,,,,,,,,,,,,,,,,,,,,,994.1381196404109,,,,,,,,,,,,,,AMP_prac,left,1.398419103701599,3,,,right,0.7324477593647316,,,,,,,,,,,,,,,,,,,,,,,,,1008,2019_May_08_1649,mf_amp_cond1,3.0.7,59.984994042421704,
phlaizz,&&&&&&&,images/symbols/symbol_21.png,condition_files/AMP_rep3.csv,None,nonword,,,,,,,,,,,,,,0,0,0,2,0,34,34,34,,,,,,,,,,,,,,,,,,,,,994.9383465823485,,,,,,,,,,,,,,AMP_prac,left,1.398419103701599,3,,,left,0.5827180307824165,,,,,,,,,,,,,,,,,,,,,,,,,1008,2019_May_08_1649,mf_amp_cond1,3.0.7,59.984994042421704,
rhailled,&&&&&&&&,images/symbols/symbol_66.png,condition_files/AMP_rep3.csv,None,nonword,,,,,,,,,,,,,,0,0,0,2,0,35,35,35,,,,,,,,,,,,,,,,,,,,,995.6385009773076,,,,,,,,,,,,,,AMP_prac,left,1.398419103701599,3,,,left,0.4670385743957013,,,,,,,,,,,,,,,,,,,,,,,,,1008,2019_May_08_1649,mf_amp_cond1,3.0.7,59.984994042421704,
great,&&&&&,images/symbols/symbol_36.png,condition_files/AMP_rep3.csv,left,loyalty.virtue,,,,,,,,,,,,,,0,0,0,2,0,36,36,36,,,,,,,,,,,,,,,,,,,,,996.605428261566,,,,,,,,,,,,,,AMP_prac,left,1.398419103701599,3,,,right,0.7489369713002816,,,,,,,,,,,,,,,,,,,,,,,,,1008,2019_May_08_1649,mf_amp_cond1,3.0.7,59.984994042421704,
thinx,&&&&&,images/symbols/symbol_34.png,condition_files/AMP_rep3.csv,None,nonword,,,,,,,,,,,,,,0,0,0,2,0,37,37,37,,,,,,,,,,,,,,,,,,,,,997.3389308712212,,,,,,,,,,,,,,AMP_prac,left,1.398419103701599,3,,,left,0.5157021634513512,,,,,,,,,,,,,,,,,,,,,,,,,1008,2019_May_08_1649,mf_amp_cond1,3.0.7,59.984994042421704,
officers,&&&&&&&&,images/symbols/symbol_16.png,condition_files/AMP_rep3.csv,right,authority.vice,,,,,,,,,,,,,,0,0,0,2,0,38,38,38,,,,,,,,,,,,,,,,,,,,,998.1057788092876,,,,,,,,,,,,,,AMP_prac,left,1.398419103701599,3,,,right,0.549415358225815,,,,,,,,,,,,,,,,,,,,,,,,,1008,2019_May_08_1649,mf_amp_cond1,3.0.7,59.984994042421704,
opportunity,&&&&&&&&&&&,images/symbols/symbol_48.png,condition_files/AMP_rep3.csv,left,fairness.virtue,,,,,,,,,,,,,,0,0,0,2,0,39,39,39,,,,,,,,,,,,,,,,,,,,,998.9393193281721,,,,,,,,,,,,,,AMP_prac,left,1.398419103701599,3,,,left,0.6157833697507158,,,,,,,,,,,,,,,,,,,,,,,,,1008,2019_May_08_1649,mf_amp_cond1,3.0.7,59.984994042421704,
gun,&&&,images/symbols/symbol_27.png,condition_files/AMP_rep3.csv,right,authority.vice,,,,,,,,,,,,,,0,0,0,2,0,40,40,40,,,,,,,,,,,,,,,,,,,,,999.6394942491315,,,,,,,,,,,,,,AMP_prac,left,1.398419103701599,3,,,left,0.4824264314956963,,,,,,,,,,,,,,,,,,,,,,,,,1008,2019_May_08_1649,mf_amp_cond1,3.0.7,59.984994042421704,
racist,&&&&&&,images/symbols/symbol_25.png,condition_files/AMP_rep3.csv,right,sanctity.vice,,,,,,,,,,,,,,0,0,0,2,0,41,41,41,,,,,,,,,,,,,,,,,,,,,1000.3229923367035,,,,,,,,,,,,,,AMP_prac,left,1.398419103701599,3,,,left,0.46569956559687853,,,,,,,,,,,,,,,,,,,,,,,,,1008,2019_May_08_1649,mf_amp_cond1,3.0.7,59.984994042421704,
lies,&&&&,images/symbols/symbol_23.png,condition_files/AMP_rep3.csv,right,fairness.vice,,,,,,,,,,,,,,0,0,0,2,0,42,42,42,,,,,,,,,,,,,,,,,,,,,1001.2399346628226,,,,,,,,,,,,,,AMP_prac,left,1.398419103701599,3,,,left,0.6987791446736082,,,,,,,,,,,,,,,,,,,,,,,,,1008,2019_May_08_1649,mf_amp_cond1,3.0.7,59.984994042421704,
slavery,&&&&&&&,images/symbols/symbol_20.png,condition_files/AMP_rep3.csv,right,loyalty.vice,,,,,,,,,,,,,,0,0,0,2,0,43,43,43,,,,,,,,,,,,,,,,,,,,,1002.0067479630234,,,,,,,,,,,,,,AMP_prac,left,1.398419103701599,3,,,right,0.5496658411575481,,,,,,,,,,,,,,,,,,,,,,,,,1008,2019_May_08_1649,mf_amp_cond1,3.0.7,59.984994042421704,
support,&&&&&&&,images/symbols/symbol_10.png,condition_files/AMP_rep3.csv,left,loyalty.virtue,,,,,,,,,,,,,,0,0,0,2,0,44,44,44,,,,,,,,,,,,,,,,,,,,,1002.690249257721,,,,,,,,,,,,,,AMP_prac,left,1.398419103701599,3,,,left,0.4658984123962,,,,,,,,,,,,,,,,,,,,,,,,,1008,2019_May_08_1649,mf_amp_cond1,3.0.7,59.984994042421704,
promises,&&&&&&&&,images/symbols/symbol_73.png,condition_files/AMP_rep3.csv,left,fairness.virtue,,,,,,,,,,,,,,0,0,0,2,0,45,45,45,,,,,,,,,,,,,,,,,,,,,1003.3571250342065,,,,,,,,,,,,,,AMP_prac,left,1.398419103701599,3,,,left,0.43372307310346514,,,,,,,,,,,,,,,,,,,,,,,,,1008,2019_May_08_1649,mf_amp_cond1,3.0.7,59.984994042421704,
hate,&&&&,images/symbols/symbol_54.png,condition_files/AMP_rep3.csv,right,fairness.vice,,,,,,,,,,,,,,0,0,0,2,0,46,46,46,,,,,,,,,,,,,,,,,,,,,1004.0405923326034,,,,,,,,,,,,,,AMP_prac,left,1.398419103701599,3,,,left,0.46537371340673417,,,,,,,,,,,,,,,,,,,,,,,,,1008,2019_May_08_1649,mf_amp_cond1,3.0.7,59.984994042421704,
prison,&&&&&&,images/symbols/symbol_2.png,condition_files/AMP_rep3.csv,right,fairness.vice,,,,,,,,,,,,,,0,0,0,2,0,47,47,47,,,,,,,,,,,,,,,,,,,,,1004.8241164627252,,,,,,,,,,,,,,AMP_prac,left,1.398419103701599,3,,,left,0.5658324080286548,,,,,,,,,,,,,,,,,,,,,,,,,1008,2019_May_08_1649,mf_amp_cond1,3.0.7,59.984994042421704,
riot,&&&&,images/symbols/symbol_43.png,condition_files/AMP_rep3.csv,right,authority.vice,,,,,,,,,,,,,,0,0,0,2,0,48,48,48,,,,,,,,,,,,,,,,,,,,,1005.5076264168601,,,,,,,,,,,,,,AMP_prac,left,1.398419103701599,3,,,left,0.45035244000609964,,,,,,,,,,,,,,,,,,,,,,,,,1008,2019_May_08_1649,mf_amp_cond1,3.0.7,59.984994042421704,
credit,&&&&&&,images/symbols/symbol_37.png,condition_files/AMP_rep3.csv,left,fairness.virtue,,,,,,,,,,,,,,0,0,0,2,0,49,49,49,,,,,,,,,,,,,,,,,,,,,1006.1577855905052,,,,,,,,,,,,,,AMP_prac,left,1.398419103701599,3,,,left,0.43218970764428377,,,,,,,,,,,,,,,,,,,,,,,,,1008,2019_May_08_1649,mf_amp_cond1,3.0.7,59.984994042421704,
violations,&&&&&&&&&&,images/symbols/symbol_57.png,condition_files/AMP_rep3.csv,right,sanctity.vice,,,,,,,,,,,,,,0,0,0,2,0,50,50,50,,,,,,,,,,,,,,,,,,,,,1006.9913241851609,,,,,,,,,,,,,,AMP_prac,left,1.398419103701599,3,,,left,0.6158606635872275,,,,,,,,,,,,,,,,,,,,,,,,,1008,2019_May_08_1649,mf_amp_cond1,3.0.7,59.984994042421704,
injured,&&&&&&&,images/symbols/symbol_68.png,condition_files/AMP_rep3.csv,right,care.vice,,,,,,,,,,,,,,0,0,0,2,0,51,51,51,,,,,,,,,,,,,,,,,,,,,1007.6915019926382,,,,,,,,,,,,,,AMP_prac,left,1.398419103701599,3,,,left,0.4670299148419872,,,,,,,,,,,,,,,,,,,,,,,,,1008,2019_May_08_1649,mf_amp_cond1,3.0.7,59.984994042421704,
health,&&&&&&,images/symbols/symbol_32.png,condition_files/AMP_rep3.csv,left,care.virtue,,,,,,,,,,,,,,0,0,0,2,0,52,52,52,,,,,,,,,,,,,,,,,,,,,1008.3083363642218,,,,,,,,,,,,,,AMP_prac,left,1.398419103701599,3,,,left,0.39892391802277416,,,,,,,,,,,,,,,,,,,,,,,,,1008,2019_May_08_1649,mf_amp_cond1,3.0.7,59.984994042421704,
progress,&&&&&&&&,images/symbols/symbol_28.png,condition_files/AMP_rep3.csv,left,authority.virtue,,,,,,,,,,,,,,0,0,0,2,0,53,53,53,,,,,,,,,,,,,,,,,,,,,1008.9085112210596,,,,,,,,,,,,,,AMP_prac,left,1.398419103701599,3,,,left,0.38257935107685626,,,,,,,,,,,,,,,,,,,,,,,,,1008,2019_May_08_1649,mf_amp_cond1,3.0.7,59.984994042421704,
rhaps,&&&&&,images/symbols/symbol_18.png,condition_files/AMP_rep3.csv,None,nonword,,,,,,,,,,,,,,0,0,0,2,0,54,54,54,,,,,,,,,,,,,,,,,,,,,1009.5753093832172,,,,,,,,,,,,,,AMP_prac,left,1.398419103701599,3,,,right,0.4492533302400261,,,,,,,,,,,,,,,,,,,,,,,,,1008,2019_May_08_1649,mf_amp_cond1,3.0.7,59.984994042421704,
agreement,&&&&&&&&&,images/symbols/symbol_52.png,condition_files/AMP_rep3.csv,left,fairness.virtue,,,,,,,,,,,,,,0,0,0,2,0,55,55,55,,,,,,,,,,,,,,,,,,,,,1010.2421482768841,,,,,,,,,,,,,,AMP_prac,left,1.398419103701599,3,,,left,0.44953460223041475,,,,,,,,,,,,,,,,,,,,,,,,,1008,2019_May_08_1649,mf_amp_cond1,3.0.7,59.984994042421704,
voter,&&&&&,images/symbols/symbol_33.png,condition_files/AMP_rep3.csv,right,fairness.vice,,,,,,,,,,,,,,0,0,0,2,0,56,56,56,,,,,,,,,,,,,,,,,,,,,1011.159043777734,,,,,,,,,,,,,,AMP_prac,left,1.398419103701599,3,,,left,0.6993141068378463,,,,,,,,,,,,,,,,,,,,,,,,,1008,2019_May_08_1649,mf_amp_cond1,3.0.7,59.984994042421704,
torture,&&&&&&&,images/symbols/symbol_81.png,condition_files/AMP_rep3.csv,right,care.vice,,,,,,,,,,,,,,0,0,0,2,0,57,57,57,,,,,,,,,,,,,,,,,,,,,1011.8258785021026,,,,,,,,,,,,,,AMP_prac,left,1.398419103701599,3,,,left,0.4491625662194565,,,,,,,,,,,,,,,,,,,,,,,,,1008,2019_May_08_1649,mf_amp_cond1,3.0.7,59.984994042421704,
values,&&&&&&,images/symbols/symbol_50.png,condition_files/AMP_rep3.csv,left,sanctity.virtue,,,,,,,,,,,,,,0,0,0,2,0,58,58,58,,,,,,,,,,,,,,,,,,,,,1012.509381079697,,,,,,,,,,,,,,AMP_prac,left,1.398419103701599,3,,,left,0.4652665925677866,,,,,,,,,,,,,,,,,,,,,,,,,1008,2019_May_08_1649,mf_amp_cond1,3.0.7,59.984994042421704,
encourage,&&&&&&&&&,images/symbols/symbol_17.png,condition_files/AMP_rep3.csv,left,authority.virtue,,,,,,,,,,,,,,0,0,0,2,0,59,59,59,,,,,,,,,,,,,,,,,,,,,1013.6430013297359,,,,,,,,,,,,,,AMP_prac,left,1.398419103701599,3,,,left,0.9158942110370845,,,,,,,,,,,,,,,,,,,,,,,,,1008,2019_May_08_1649,mf_amp_cond1,3.0.7,59.984994042421704,
fighters,&&&&&&&&,images/symbols/symbol_69.png,condition_files/AMP_rep3.csv,right,authority.vice,,,,,,,,,,,,,,0,0,0,2,0,60,60,60,,,,,,,,,,,,,,,,,,,,,1014.3265148118371,,,,,,,,,,,,,,AMP_prac,left,1.398419103701599,3,,,left,0.46565530612133443,,,,,,,,,,,,,,,,,,,,,,,,,1008,2019_May_08_1649,mf_amp_cond1,3.0.7,59.984994042421704,
sexual,&&&&&&,images/symbols/symbol_49.png,condition_files/AMP_rep3.csv,right,sanctity.vice,,,,,,,,,,,,,,0,0,0,2,0,61,61,61,,,,,,,,,,,,,,,,,,,,,1014.9433180735214,,,,,,,,,,,,,,AMP_prac,left,1.398419103701599,3,,,left,0.399587489082478,,,,,,,,,,,,,,,,,,,,,,,,,1008,2019_May_08_1649,mf_amp_cond1,3.0.7,59.984994042421704,
threatened,&&&&&&&&&&,images/symbols/symbol_8.png,condition_files/AMP_rep3.csv,right,fairness.vice,,,,,,,,,,,,,,0,0,0,2,0,62,62,62,,,,,,,,,,,,,,,,,,,,,1015.5934923209716,,,,,,,,,,,,,,AMP_prac,left,1.398419103701599,3,,,left,0.43254763178993016,,,,,,,,,,,,,,,,,,,,,,,,,1008,2019_May_08_1649,mf_amp_cond1,3.0.7,59.984994042421704,
integrity,&&&&&&&&&,images/symbols/symbol_63.png,condition_files/AMP_rep3.csv,left,fairness.virtue,,,,,,,,,,,,,,0,0,0,2,0,63,63,63,,,,,,,,,,,,,,,,,,,,,1016.5437767681433,,,,,,,,,,,,,,AMP_prac,left,1.398419103701599,3,,,right,0.73272101348266,,,,,,,,,,,,,,,,,,,,,,,,,1008,2019_May_08_1649,mf_amp_cond1,3.0.7,59.984994042421704,
serial,&&&&&&,images/symbols/symbol_26.png,condition_files/AMP_rep3.csv,right,sanctity.vice,,,,,,,,,,,,,,0,0,0,2,0,64,64,64,,,,,,,,,,,,,,,,,,,,,1017.2439257109072,,,,,,,,,,,,,,AMP_prac,left,1.398419103701599,3,,,left,0.48238153057172894,,,,,,,,,,,,,,,,,,,,,,,,,1008,2019_May_08_1649,mf_amp_cond1,3.0.7,59.984994042421704,
promised,&&&&&&&&,images/symbols/symbol_4.png,condition_files/AMP_rep3.csv,left,loyalty.virtue,,,,,,,,,,,,,,0,0,0,2,0,65,65,65,,,,,,,,,,,,,,,,,,,,,1017.9107283630874,,,,,,,,,,,,,,AMP_prac,left,1.398419103701599,3,,,left,0.44896500231698155,,,,,,,,,,,,,,,,,,,,,,,,,1008,2019_May_08_1649,mf_amp_cond1,3.0.7,59.984994042421704,
killed,&&&&&&,images/symbols/symbol_30.png,condition_files/AMP_rep3.csv,right,care.vice,,,,,,,,,,,,,,0,0,0,2,0,66,66,66,,,,,,,,,,,,,,,,,,,,,1018.6276128311874,,,,,,,,,,,,,,AMP_prac,left,1.398419103701599,3,,,right,0.49935503071174026,,,,,,,,,,,,,,,,,,,,,,,,,1008,2019_May_08_1649,mf_amp_cond1,3.0.7,59.984994042421704,
terrorist,&&&&&&&&&,images/symbols/symbol_14.png,condition_files/AMP_rep3.csv,right,loyalty.vice,,,,,,,,,,,,,,0,0,0,2,0,67,67,67,,,,,,,,,,,,,,,,,,,,,1019.3944283763412,,,,,,,,,,,,,,AMP_prac,left,1.398419103701599,3,,,right,0.5490481330780312,,,,,,,,,,,,,,,,,,,,,,,,,1008,2019_May_08_1649,mf_amp_cond1,3.0.7,59.984994042421704,
fourz,&&&&&,images/symbols/symbol_71.png,condition_files/AMP_rep3.csv,None,nonword,,,,,,,,,,,,,,0,0,0,2,0,68,68,68,,,,,,,,,,,,,,,,,,,,,1020.2279801204568,,,,,,,,,,,,,,AMP_prac,left,1.398419103701599,3,,,left,0.6156505915569142,,,,,,,,,,,,,,,,,,,,,,,,,1008,2019_May_08_1649,mf_amp_cond1,3.0.7,59.984994042421704,
police,&&&&&&,images/symbols/symbol_53.png,condition_files/AMP_rep3.csv,right,authority.vice,,,,,,,,,,,,,,0,0,0,2,0,69,69,69,,,,,,,,,,,,,,,,,,,,,1020.828112963005,,,,,,,,,,,,,,AMP_prac,left,1.398419103701599,3,,,right,0.3825177727267146,,,,,,,,,,,,,,,,,,,,,,,,,1008,2019_May_08_1649,mf_amp_cond1,3.0.7,59.984994042421704,
suicide,&&&&&&&,images/symbols/symbol_9.png,condition_files/AMP_rep3.csv,right,care.vice,,,,,,,,,,,,,,0,0,0,2,0,70,70,70,,,,,,,,,,,,,,,,,,,,,1021.7283598537324,,,,,,,,,,,,,,AMP_prac,left,1.398419103701599,3,,,left,0.6824047507252544,,,,,,,,,,,,,,,,,,,,,,,,,1008,2019_May_08_1649,mf_amp_cond1,3.0.7,59.984994042421704,
feuld,&&&&&,images/symbols/symbol_72.png,condition_files/AMP_rep3.csv,None,nonword,,,,,,,,,,,,,,0,0,0,2,0,71,71,71,,,,,,,,,,,,,,,,,,,,,1022.9619910723995,,,,,,,,,,,,,,AMP_prac,left,1.398419103701599,3,,,left,1.0158285273937508,,,,,,,,,,,,,,,,,,,,,,,,,1008,2019_May_08_1649,mf_amp_cond1,3.0.7,59.984994042421704,
crime,&&&&&,images/symbols/symbol_82.png,condition_files/AMP_rep3.csv,right,fairness.vice,,,,,,,,,,,,,,0,0,0,2,0,72,72,72,,,,,,,,,,,,,,,,,,,,,1023.8288846169598,,,,,,,,,,,,,,AMP_prac,left,1.398419103701599,3,,,left,0.6494757179170847,,,,,,,,,,,,,,,,,,,,,,,,,1008,2019_May_08_1649,mf_amp_cond1,3.0.7,59.984994042421704,
praise,&&&&&&,images/symbols/symbol_59.png,condition_files/AMP_rep3.csv,left,authority.virtue,,,,,,,,,,,,,,0,0,0,2,0,73,73,73,,,,,,,,,,,,,,,,,,,,,1024.4623813894577,,,,,,,,,,,,,,AMP_prac,left,1.398419103701599,3,,,left,0.4157656019087881,,,,,,,,,,,,,,,,,,,,,,,,,1008,2019_May_08_1649,mf_amp_cond1,3.0.7,59.984994042421704,
ensure,&&&&&&,images/symbols/symbol_6.png,condition_files/AMP_rep3.csv,left,fairness.virtue,,,,,,,,,,,,,,0,0,0,2,0,74,74,74,,,,,,,,,,,,,,,,,,,,,1025.2959042687435,,,,,,,,,,,,,,AMP_prac,left,1.398419103701599,3,,,right,0.6003990407334641,,,,,,,,,,,,,,,,,,,,,,,,,1008,2019_May_08_1649,mf_amp_cond1,3.0.7,59.984994042421704,
refused,&&&&&&&,images/symbols/symbol_31.png,condition_files/AMP_rep3.csv,right,authority.vice,,,,,,,,,,,,,,0,0,0,2,0,75,75,75,,,,,,,,,,,,,,,,,,,,,1026.4628772236174,,,,,,,,,,,,,,AMP_prac,left,1.398419103701599,3,,,left,0.9497539752628654,,,,,,,,,,,,,,,,,,,,,,,,,1008,2019_May_08_1649,mf_amp_cond1,3.0.7,59.984994042421704,
prosecution,&&&&&&&&&&&,images/symbols/symbol_56.png,condition_files/AMP_rep3.csv,right,authority.vice,,,,,,,,,,,,,,0,0,0,2,0,76,76,76,,,,,,,,,,,,,,,,,,,,,1027.2797332117334,,,,,,,,,,,,,,AMP_prac,left,1.398419103701599,3,,,right,0.5837183584226295,,,,,,,,,,,,,,,,,,,,,,,,,1008,2019_May_08_1649,mf_amp_cond1,3.0.7,59.984994042421704,
jogns,&&&&&,images/symbols/symbol_47.png,condition_files/AMP_rep3.csv,None,nonword,,,,,,,,,,,,,,0,0,0,2,0,77,77,77,,,,,,,,,,,,,,,,,,,,,1028.1299403010635,,,,,,,,,,,,,,AMP_prac,left,1.398419103701599,3,,,left,0.6322648844216019,,,,,,,,,,,,,,,,,,,,,,,,,1008,2019_May_08_1649,mf_amp_cond1,3.0.7,59.984994042421704,
celebrated,&&&&&&&&&&,images/symbols/symbol_76.png,condition_files/AMP_rep3.csv,left,authority.virtue,,,,,,,,,,,,,,0,0,0,2,0,78,78,78,,,,,,,,,,,,,,,,,,,,,1028.9301451132633,,,,,,,,,,,,,,AMP_prac,left,1.398419103701599,3,,,left,0.5828941063955426,,,,,,,,,,,,,,,,,,,,,,,,,1008,2019_May_08_1649,mf_amp_cond1,3.0.7,59.984994042421704,
pleasant,&&&&&&&,images/symbols/symbol_7.png,condition_files/AMP_rep3.csv,right,control,,,,,,,,,,,,,,0,0,0,2,0,79,79,79,,,,,,,,,,,,,,,,,,,,,1029.680330008734,,,,,,,,,,,,,,AMP_prac,left,1.398419103701599,3,,,right,0.5324155590496957,,,,,,,,,,,,,,,,,,,,,,,,,1008,2019_May_08_1649,mf_amp_cond1,3.0.7,59.984994042421704,
failure,&&&&&&&,images/symbols/symbol_24.png,condition_files/AMP_rep3.csv,right,loyalty.vice,,,,,,,,,,,,,,0,0,0,2,0,80,80,80,,,,,,,,,,,,,,,,,,,,,1030.5805595805869,,,,,,,,,,,,,,AMP_prac,left,1.398419103701599,3,,,right,0.6823659435613081,,,,,,,,,,,,,,,,,,,,,,,,,1008,2019_May_08_1649,mf_amp_cond1,3.0.7,59.984994042421704,
phlux,&&&&&,images/symbols/symbol_38.png,condition_files/AMP_rep3.csv,None,nonword,,,,,,,,,,,,,,0,0,0,2,0,81,81,81,,,,,,,,,,,,,,,,,,,,,1031.2307226029225,,,,,,,,,,,,,,AMP_prac,left,1.398419103701599,3,,,right,0.43236610398162156,,,,,,,,,,,,,,,,,,,,,,,,,1008,2019_May_08_1649,mf_amp_cond1,3.0.7,59.984994042421704,
,,,condition_files/AMP_rep3.csv,,,,,,,,,,,,,,,,0,0,0,2,,,,,,,,,,,,,,,,,,,,,,,,,,,,,,,,,,,,,,,,,,,,,,,right,2.1674434521701187,,,,,,,,,,,,,,,,,,,,,,,1008,2019_May_08_1649,mf_amp_cond1,3.0.7,59.984994042421704,
drug,&&&&,images/symbols/symbol_64.png,condition_files/AMP_rep4.csv,right,sanctity.vice,,,,,,,,,,,,,,0,1,1,3,0,0,0,0,,,,,,,,,,,,,,,,,,,,,1034.9484563393053,,,,,,,,,,,,,,AMP_prac,left,1.398419103701599,3,,,left,1.2839105984894559,,,,,,,,,,,,,,,,,,,,,,,,,1008,2019_May_08_1649,mf_amp_cond1,3.0.7,59.984994042421704,
men,&&&,images/symbols/symbol_11.png,condition_files/AMP_rep4.csv,right,loyalty.vice,,,,,,,,,,,,,,0,1,1,3,0,1,1,1,,,,,,,,,,,,,,,,,,,,,1035.6985770907486,,,,,,,,,,,,,,AMP_prac,left,1.398419103701599,3,,,left,0.5324043338187039,,,,,,,,,,,,,,,,,,,,,,,,,1008,2019_May_08_1649,mf_amp_cond1,3.0.7,59.984994042421704,
trust,&&&&&,images/symbols/symbol_75.png,condition_files/AMP_rep4.csv,left,authority.virtue,,,,,,,,,,,,,,0,1,1,3,0,2,2,2,,,,,,,,,,,,,,,,,,,,,1036.4987039677799,,,,,,,,,,,,,,AMP_prac,left,1.398419103701599,3,,,right,0.5824653028976172,,,,,,,,,,,,,,,,,,,,,,,,,1008,2019_May_08_1649,mf_amp_cond1,3.0.7,59.984994042421704,
terrorists,&&&&&&&&&&,images/symbols/symbol_12.png,condition_files/AMP_rep4.csv,right,fairness.vice,,,,,,,,,,,,,,0,1,1,3,0,3,3,3,,,,,,,,,,,,,,,,,,,,,1037.0988967850571,,,,,,,,,,,,,,AMP_prac,left,1.398419103701599,3,,,left,0.36702792637515813,,,,,,,,,,,,,,,,,,,,,,,,,1008,2019_May_08_1649,mf_amp_cond1,3.0.7,59.984994042421704,
critics,&&&&&&&,images/symbols/symbol_74.png,condition_files/AMP_rep4.csv,right,loyalty.vice,,,,,,,,,,,,,,0,1,1,3,0,4,4,4,,,,,,,,,,,,,,,,,,,,,1037.7156881799456,,,,,,,,,,,,,,AMP_prac,left,1.398419103701599,3,,,left,0.3836983455112204,,,,,,,,,,,,,,,,,,,,,,,,,1008,2019_May_08_1649,mf_amp_cond1,3.0.7,59.984994042421704,
unpleasant,&&&&&&&&&,images/symbols/symbol_61.png,condition_files/AMP_rep4.csv,left,control,,,,,,,,,,,,,,0,1,1,3,0,5,5,5,,,,,,,,,,,,,,,,,,,,,1038.3825328466482,,,,,,,,,,,,,,AMP_prac,left,1.398419103701599,3,,,left,0.4487658346770331,,,,,,,,,,,,,,,,,,,,,,,,,1008,2019_May_08_1649,mf_amp_cond1,3.0.7,59.984994042421704,
improve,&&&&&&&,images/symbols/symbol_40.png,condition_files/AMP_rep4.csv,left,care.virtue,,,,,,,,,,,,,,0,1,1,3,0,6,6,6,,,,,,,,,,,,,,,,,,,,,1038.949304966256,,,,,,,,,,,,,,AMP_prac,left,1.398419103701599,3,,,left,0.3489623724017292,,,,,,,,,,,,,,,,,,,,,,,,,1008,2019_May_08_1649,mf_amp_cond1,3.0.7,59.984994042421704,
freedom,&&&&&&&,images/symbols/symbol_65.png,condition_files/AMP_rep4.csv,left,sanctity.virtue,,,,,,,,,,,,,,0,1,1,3,0,7,7,7,,,,,,,,,,,,,,,,,,,,,1039.5161479650997,,,,,,,,,,,,,,AMP_prac,left,1.398419103701599,3,,,left,0.3490172156598419,,,,,,,,,,,,,,,,,,,,,,,,,1008,2019_May_08_1649,mf_amp_cond1,3.0.7,59.984994042421704,
loyalty,&&&&&&&,images/symbols/symbol_67.png,condition_files/AMP_rep4.csv,left,loyalty.virtue,,,,,,,,,,,,,,0,1,1,3,0,8,8,8,,,,,,,,,,,,,,,,,,,,,1040.0996245002607,,,,,,,,,,,,,,AMP_prac,left,1.398419103701599,3,,,left,0.3656940491637215,,,,,,,,,,,,,,,,,,,,,,,,,1008,2019_May_08_1649,mf_amp_cond1,3.0.7,59.984994042421704,
embrace,&&&&&&&,images/symbols/symbol_77.png,condition_files/AMP_rep4.csv,left,authority.virtue,,,,,,,,,,,,,,0,1,1,3,0,9,9,9,,,,,,,,,,,,,,,,,,,,,1040.6664097694447,,,,,,,,,,,,,,AMP_prac,left,1.398419103701599,3,,,left,0.349142296705395,,,,,,,,,,,,,,,,,,,,,,,,,1008,2019_May_08_1649,mf_amp_cond1,3.0.7,59.984994042421704,
safety,&&&&&&,images/symbols/symbol_22.png,condition_files/AMP_rep4.csv,left,care.virtue,,,,,,,,,,,,,,0,1,1,3,0,10,10,10,,,,,,,,,,,,,,,,,,,,,1041.333246097318,,,,,,,,,,,,,,AMP_prac,left,1.398419103701599,3,,,right,0.44911574106663465,,,,,,,,,,,,,,,,,,,,,,,,,1008,2019_May_08_1649,mf_amp_cond1,3.0.7,59.984994042421704,
death,&&&&&,images/symbols/symbol_15.png,condition_files/AMP_rep4.csv,right,care.vice,,,,,,,,,,,,,,0,1,1,3,0,11,11,11,,,,,,,,,,,,,,,,,,,,,1041.8667216382455,,,,,,,,,,,,,,AMP_prac,left,1.398419103701599,3,,,left,0.3152430837508291,,,,,,,,,,,,,,,,,,,,,,,,,1008,2019_May_08_1649,mf_amp_cond1,3.0.7,59.984994042421704,
slypped,&&&&&&&,images/symbols/symbol_3.png,condition_files/AMP_rep4.csv,None,nonword,,,,,,,,,,,,,,0,1,1,3,0,12,12,12,,,,,,,,,,,,,,,,,,,,,1042.5335467408877,,,,,,,,,,,,,,AMP_prac,left,1.398419103701599,3,,,right,0.44897911394946277,,,,,,,,,,,,,,,,,,,,,,,,,1008,2019_May_08_1649,mf_amp_cond1,3.0.7,59.984994042421704,
frord,&&&&&,images/symbols/symbol_60.png,condition_files/AMP_rep4.csv,None,nonword,,,,,,,,,,,,,,0,1,1,3,0,13,13,13,,,,,,,,,,,,,,,,,,,,,1043.083677947754,,,,,,,,,,,,,,AMP_prac,left,1.398419103701599,3,,,right,0.33237758569885045,,,,,,,,,,,,,,,,,,,,,,,,,1008,2019_May_08_1649,mf_amp_cond1,3.0.7,59.984994042421704,
energy,&&&&&&,images/symbols/symbol_70.png,condition_files/AMP_rep4.csv,left,sanctity.virtue,,,,,,,,,,,,,,0,1,1,3,0,14,14,14,,,,,,,,,,,,,,,,,,,,,1043.633820379735,,,,,,,,,,,,,,AMP_prac,left,1.398419103701599,3,,,left,0.3324766884325072,,,,,,,,,,,,,,,,,,,,,,,,,1008,2019_May_08_1649,mf_amp_cond1,3.0.7,59.984994042421704,
sharing,&&&&&&&,images/symbols/symbol_35.png,condition_files/AMP_rep4.csv,left,loyalty.virtue,,,,,,,,,,,,,,0,1,1,3,0,15,15,15,,,,,,,,,,,,,,,,,,,,,1044.4006673556287,,,,,,,,,,,,,,AMP_prac,left,1.398419103701599,3,,,left,0.5490869403583929,,,,,,,,,,,,,,,,,,,,,,,,,1008,2019_May_08_1649,mf_amp_cond1,3.0.7,59.984994042421704,
powerful,&&&&&&&&,images/symbols/symbol_46.png,condition_files/AMP_rep4.csv,left,authority.virtue,,,,,,,,,,,,,,0,1,1,3,0,16,16,16,,,,,,,,,,,,,,,,,,,,,1045.0008258557646,,,,,,,,,,,,,,AMP_prac,left,1.398419103701599,3,,,right,0.38243663031607866,,,,,,,,,,,,,,,,,,,,,,,,,1008,2019_May_08_1649,mf_amp_cond1,3.0.7,59.984994042421704,
restore,&&&&&&&,images/symbols/symbol_5.png,condition_files/AMP_rep4.csv,left,care.virtue,,,,,,,,,,,,,,0,1,1,3,0,17,17,17,,,,,,,,,,,,,,,,,,,,,1045.5342850398738,,,,,,,,,,,,,,AMP_prac,left,1.398419103701599,3,,,right,0.31578574317973107,,,,,,,,,,,,,,,,,,,,,,,,,1008,2019_May_08_1649,mf_amp_cond1,3.0.7,59.984994042421704,
dignity,&&&&&&&,images/symbols/symbol_19.png,condition_files/AMP_rep4.csv,left,sanctity.virtue,,,,,,,,,,,,,,0,1,1,3,0,18,18,18,,,,,,,,,,,,,,,,,,,,,1046.1177708759205,,,,,,,,,,,,,,AMP_prac,left,1.398419103701599,3,,,left,0.36569661484099925,,,,,,,,,,,,,,,,,,,,,,,,,1008,2019_May_08_1649,mf_amp_cond1,3.0.7,59.984994042421704,
safe,&&&&,images/symbols/symbol_58.png,condition_files/AMP_rep4.csv,left,care.virtue,,,,,,,,,,,,,,0,1,1,3,0,19,19,19,,,,,,,,,,,,,,,,,,,,,1046.8179364959942,,,,,,,,,,,,,,AMP_prac,left,1.398419103701599,3,,,left,0.4824896134668961,,,,,,,,,,,,,,,,,,,,,,,,,1008,2019_May_08_1649,mf_amp_cond1,3.0.7,59.984994042421704,
benefit,&&&&&&&,images/symbols/symbol_51.png,condition_files/AMP_rep4.csv,left,fairness.virtue,,,,,,,,,,,,,,0,1,1,3,0,20,20,20,,,,,,,,,,,,,,,,,,,,,1047.3680830975063,,,,,,,,,,,,,,AMP_prac,left,1.398419103701599,3,,,right,0.3328666847664863,,,,,,,,,,,,,,,,,,,,,,,,,1008,2019_May_08_1649,mf_amp_cond1,3.0.7,59.984994042421704,
intelligence,&&&&&&&&&&&&,images/symbols/symbol_45.png,condition_files/AMP_rep4.csv,left,loyalty.virtue,,,,,,,,,,,,,,0,1,1,3,0,21,21,21,,,,,,,,,,,,,,,,,,,,,1047.884867372457,,,,,,,,,,,,,,AMP_prac,left,1.398419103701599,3,,,left,0.29894502146635205,,,,,,,,,,,,,,,,,,,,,,,,,1008,2019_May_08_1649,mf_amp_cond1,3.0.7,59.984994042421704,
respect,&&&&&&&,images/symbols/symbol_62.png,condition_files/AMP_rep4.csv,left,sanctity.virtue,,,,,,,,,,,,,,0,1,1,3,0,22,22,22,,,,,,,,,,,,,,,,,,,,,1048.4016789086163,,,,,,,,,,,,,,AMP_prac,left,1.398419103701599,3,,,left,0.28364600392524153,,,,,,,,,,,,,,,,,,,,,,,,,1008,2019_May_08_1649,mf_amp_cond1,3.0.7,59.984994042421704,
strength,&&&&&&&&,images/symbols/symbol_80.png,condition_files/AMP_rep4.csv,left,sanctity.virtue,,,,,,,,,,,,,,0,1,1,3,0,23,23,23,,,,,,,,,,,,,,,,,,,,,1048.9851564058335,,,,,,,,,,,,,,AMP_prac,left,1.398419103701599,3,,,left,0.3653669140767306,,,,,,,,,,,,,,,,,,,,,,,,,1008,2019_May_08_1649,mf_amp_cond1,3.0.7,59.984994042421704,
abuse,&&&&&,images/symbols/symbol_55.png,condition_files/AMP_rep4.csv,right,sanctity.vice,,,,,,,,,,,,,,0,1,1,3,0,24,24,24,,,,,,,,,,,,,,,,,,,,,1049.6853252332658,,,,,,,,,,,,,,AMP_prac,left,1.398419103701599,3,,,left,0.4822923702886328,,,,,,,,,,,,,,,,,,,,,,,,,1008,2019_May_08_1649,mf_amp_cond1,3.0.7,59.984994042421704,
love,&&&&,images/symbols/symbol_41.png,condition_files/AMP_rep4.csv,left,loyalty.virtue,,,,,,,,,,,,,,0,1,1,3,0,25,25,25,,,,,,,,,,,,,,,,,,,,,1050.418866650085,,,,,,,,,,,,,,AMP_prac,left,1.398419103701599,3,,,left,0.5162198065081611,,,,,,,,,,,,,,,,,,,,,,,,,1008,2019_May_08_1649,mf_amp_cond1,3.0.7,59.984994042421704,
help,&&&&,images/symbols/symbol_39.png,condition_files/AMP_rep4.csv,left,care.virtue,,,,,,,,,,,,,,0,1,1,3,0,26,26,26,,,,,,,,,,,,,,,,,,,,,1051.102355116047,,,,,,,,,,,,,,AMP_prac,left,1.398419103701599,3,,,left,0.4657034142874181,,,,,,,,,,,,,,,,,,,,,,,,,1008,2019_May_08_1649,mf_amp_cond1,3.0.7,59.984994042421704,
ban,&&&,images/symbols/symbol_78.png,condition_files/AMP_rep4.csv,right,loyalty.vice,,,,,,,,,,,,,,0,1,1,3,0,27,27,27,,,,,,,,,,,,,,,,,,,,,1051.7691853502765,,,,,,,,,,,,,,AMP_prac,left,1.398419103701599,3,,,left,0.4490217698039487,,,,,,,,,,,,,,,,,,,,,,,,,1008,2019_May_08_1649,mf_amp_cond1,3.0.7,59.984994042421704,
hand,&&&&,images/symbols/symbol_1.png,condition_files/AMP_rep4.csv,left,sanctity.virtue,,,,,,,,,,,,,,0,1,1,3,0,28,28,28,,,,,,,,,,,,,,,,,,,,,1052.4693570641102,,,,,,,,,,,,,,AMP_prac,left,1.398419103701599,3,,,left,0.4822330370079726,,,,,,,,,,,,,,,,,,,,,,,,,1008,2019_May_08_1649,mf_amp_cond1,3.0.7,59.984994042421704,
betrayal,&&&&&&&&,images/symbols/symbol_29.png,condition_files/AMP_rep4.csv,right,loyalty.vice,,,,,,,,,,,,,,0,1,1,3,0,29,29,29,,,,,,,,,,,,,,,,,,,,,1053.1028474222403,,,,,,,,,,,,,,AMP_prac,left,1.398419103701599,3,,,left,0.41500549390912056,,,,,,,,,,,,,,,,,,,,,,,,,1008,2019_May_08_1649,mf_amp_cond1,3.0.7,59.984994042421704,
corruption,&&&&&&&&&&,images/symbols/symbol_44.png,condition_files/AMP_rep4.csv,right,sanctity.vice,,,,,,,,,,,,,,0,1,1,3,0,30,30,30,,,,,,,,,,,,,,,,,,,,,1053.9532774124527,,,,,,,,,,,,,,AMP_prac,left,1.398419103701599,3,,,right,0.6326199222821742,,,,,,,,,,,,,,,,,,,,,,,,,1008,2019_May_08_1649,mf_amp_cond1,3.0.7,59.984994042421704,
victims,&&&&&&&,images/symbols/symbol_13.png,condition_files/AMP_rep4.csv,right,care.vice,,,,,,,,,,,,,,0,1,1,3,0,31,31,31,,,,,,,,,,,,,,,,,,,,,1055.170042572543,,,,,,,,,,,,,,AMP_prac,left,1.398419103701599,3,,,right,0.999099737033248,,,,,,,,,,,,,,,,,,,,,,,,,1008,2019_May_08_1649,mf_amp_cond1,3.0.7,59.984994042421704,
care,&&&&,images/symbols/symbol_42.png,condition_files/AMP_rep4.csv,left,care.virtue,,,,,,,,,,,,,,0,1,1,3,0,32,32,32,,,,,,,,,,,,,,,,,,,,,1055.9869181244867,,,,,,,,,,,,,,AMP_prac,left,1.398419103701599,3,,,left,0.5991350805852562,,,,,,,,,,,,,,,,,,,,,,,,,1008,2019_May_08_1649,mf_amp_cond1,3.0.7,59.984994042421704,
died,&&&&,images/symbols/symbol_79.png,condition_files/AMP_rep4.csv,right,care.vice,,,,,,,,,,,,,,0,1,1,3,0,33,33,33,,,,,,,,,,,,,,,,,,,,,1057.3372929508332,,,,,,,,,,,,,,AMP_prac,left,1.398419103701599,3,,,left,1.1325567403109744,,,,,,,,,,,,,,,,,,,,,,,,,1008,2019_May_08_1649,mf_amp_cond1,3.0.7,59.984994042421704,
phlaizz,&&&&&&&,images/symbols/symbol_21.png,condition_files/AMP_rep4.csv,None,nonword,,,,,,,,,,,,,,0,1,1,3,0,34,34,34,,,,,,,,,,,,,,,,,,,,,1058.4375091806287,,,,,,,,,,,,,,AMP_prac,left,1.398419103701599,3,,,left,0.8827589546563104,,,,,,,,,,,,,,,,,,,,,,,,,1008,2019_May_08_1649,mf_amp_cond1,3.0.7,59.984994042421704,
rhailled,&&&&&&&&,images/symbols/symbol_66.png,condition_files/AMP_rep4.csv,None,nonword,,,,,,,,,,,,,,0,1,1,3,0,35,35,35,,,,,,,,,,,,,,,,,,,,,1059.1210194556043,,,,,,,,,,,,,,AMP_prac,left,1.398419103701599,3,,,left,0.45035981643013656,,,,,,,,,,,,,,,,,,,,,,,,,1008,2019_May_08_1649,mf_amp_cond1,3.0.7,59.984994042421704,
great,&&&&&,images/symbols/symbol_36.png,condition_files/AMP_rep4.csv,left,loyalty.virtue,,,,,,,,,,,,,,0,1,1,3,0,36,36,36,,,,,,,,,,,,,,,,,,,,,1060.2379689657828,,,,,,,,,,,,,,AMP_prac,left,1.398419103701599,3,,,left,0.8985108297783881,,,,,,,,,,,,,,,,,,,,,,,,,1008,2019_May_08_1649,mf_amp_cond1,3.0.7,59.984994042421704,
thinx,&&&&&,images/symbols/symbol_34.png,condition_files/AMP_rep4.csv,None,nonword,,,,,,,,,,,,,,0,1,1,3,0,37,37,37,,,,,,,,,,,,,,,,,,,,,1061.121518497006,,,,,,,,,,,,,,AMP_prac,left,1.398419103701599,3,,,left,0.665652227238752,,,,,,,,,,,,,,,,,,,,,,,,,1008,2019_May_08_1649,mf_amp_cond1,3.0.7,59.984994042421704,
officers,&&&&&&&&,images/symbols/symbol_16.png,condition_files/AMP_rep4.csv,right,authority.vice,,,,,,,,,,,,,,0,1,1,3,0,38,38,38,,,,,,,,,,,,,,,,,,,,,1062.0217403714778,,,,,,,,,,,,,,AMP_prac,left,1.398419103701599,3,,,right,0.682757864240557,,,,,,,,,,,,,,,,,,,,,,,,,1008,2019_May_08_1649,mf_amp_cond1,3.0.7,59.984994042421704,
opportunity,&&&&&&&&&&&,images/symbols/symbol_48.png,condition_files/AMP_rep4.csv,left,fairness.virtue,,,,,,,,,,,,,,0,1,1,3,0,39,39,39,,,,,,,,,,,,,,,,,,,,,1064.705749367131,,,,,,,,,,,,,,AMP_prac,left,1.398419103701599,3,,,left,2.466189626720734,,,,,,,,,,,,,,,,,,,,,,,,,1008,2019_May_08_1649,mf_amp_cond1,3.0.7,59.984994042421704,
gun,&&&,images/symbols/symbol_27.png,condition_files/AMP_rep4.csv,right,authority.vice,,,,,,,,,,,,,,0,1,1,3,0,40,40,40,,,,,,,,,,,,,,,,,,,,,1065.5226185047068,,,,,,,,,,,,,,AMP_prac,left,1.398419103701599,3,,,left,0.5988422624068335,,,,,,,,,,,,,,,,,,,,,,,,,1008,2019_May_08_1649,mf_amp_cond1,3.0.7,59.984994042421704,
racist,&&&&&&,images/symbols/symbol_25.png,condition_files/AMP_rep4.csv,right,sanctity.vice,,,,,,,,,,,,,,0,1,1,3,0,41,41,41,,,,,,,,,,,,,,,,,,,,,1066.4728920473717,,,,,,,,,,,,,,AMP_prac,left,1.398419103701599,3,,,right,0.7324666819768026,,,,,,,,,,,,,,,,,,,,,,,,,1008,2019_May_08_1649,mf_amp_cond1,3.0.7,59.984994042421704,
lies,&&&&,images/symbols/symbol_23.png,condition_files/AMP_rep4.csv,right,fairness.vice,,,,,,,,,,,,,,0,1,1,3,0,42,42,42,,,,,,,,,,,,,,,,,,,,,1067.156358383596,,,,,,,,,,,,,,AMP_prac,left,1.398419103701599,3,,,left,0.4656912268837914,,,,,,,,,,,,,,,,,,,,,,,,,1008,2019_May_08_1649,mf_amp_cond1,3.0.7,59.984994042421704,
slavery,&&&&&&&,images/symbols/symbol_20.png,condition_files/AMP_rep4.csv,right,loyalty.vice,,,,,,,,,,,,,,0,1,1,3,0,43,43,43,,,,,,,,,,,,,,,,,,,,,1067.8732765272725,,,,,,,,,,,,,,AMP_prac,left,1.398419103701599,3,,,right,0.49972353875637054,,,,,,,,,,,,,,,,,,,,,,,,,1008,2019_May_08_1649,mf_amp_cond1,3.0.7,59.984994042421704,
support,&&&&&&&,images/symbols/symbol_10.png,condition_files/AMP_rep4.csv,left,loyalty.virtue,,,,,,,,,,,,,,0,1,1,3,0,44,44,44,,,,,,,,,,,,,,,,,,,,,1068.6067332739476,,,,,,,,,,,,,,AMP_prac,left,1.398419103701599,3,,,right,0.5159010102506727,,,,,,,,,,,,,,,,,,,,,,,,,1008,2019_May_08_1649,mf_amp_cond1,3.0.7,59.984994042421704,
promises,&&&&&&&&,images/symbols/symbol_73.png,condition_files/AMP_rep4.csv,left,fairness.virtue,,,,,,,,,,,,,,0,1,1,3,0,45,45,45,,,,,,,,,,,,,,,,,,,,,1069.3569255459588,,,,,,,,,,,,,,AMP_prac,left,1.398419103701599,3,,,left,0.5170565667795017,,,,,,,,,,,,,,,,,,,,,,,,,1008,2019_May_08_1649,mf_amp_cond1,3.0.7,59.984994042421704,
hate,&&&&,images/symbols/symbol_54.png,condition_files/AMP_rep4.csv,right,fairness.vice,,,,,,,,,,,,,,0,1,1,3,0,46,46,46,,,,,,,,,,,,,,,,,,,,,1070.040417219163,,,,,,,,,,,,,,AMP_prac,left,1.398419103701599,3,,,left,0.4649769818643108,,,,,,,,,,,,,,,,,,,,,,,,,1008,2019_May_08_1649,mf_amp_cond1,3.0.7,59.984994042421704,
prison,&&&&&&,images/symbols/symbol_2.png,condition_files/AMP_rep4.csv,right,fairness.vice,,,,,,,,,,,,,,0,1,1,3,0,47,47,47,,,,,,,,,,,,,,,,,,,,,1070.8572889225325,,,,,,,,,,,,,,AMP_prac,left,1.398419103701599,3,,,left,0.5991617002291605,,,,,,,,,,,,,,,,,,,,,,,,,1008,2019_May_08_1649,mf_amp_cond1,3.0.7,59.984994042421704,
riot,&&&&,images/symbols/symbol_43.png,condition_files/AMP_rep4.csv,right,authority.vice,,,,,,,,,,,,,,0,1,1,3,0,48,48,48,,,,,,,,,,,,,,,,,,,,,1071.5241162702441,,,,,,,,,,,,,,AMP_prac,left,1.398419103701599,3,,,left,0.43368362449109554,,,,,,,,,,,,,,,,,,,,,,,,,1008,2019_May_08_1649,mf_amp_cond1,3.0.7,59.984994042421704,
credit,&&&&&&,images/symbols/symbol_37.png,condition_files/AMP_rep4.csv,left,fairness.virtue,,,,,,,,,,,,,,0,1,1,3,0,49,49,49,,,,,,,,,,,,,,,,,,,,,1072.190948428819,,,,,,,,,,,,,,AMP_prac,left,1.398419103701599,3,,,left,0.4484816762851551,,,,,,,,,,,,,,,,,,,,,,,,,1008,2019_May_08_1649,mf_amp_cond1,3.0.7,59.984994042421704,
violations,&&&&&&&&&&,images/symbols/symbol_57.png,condition_files/AMP_rep4.csv,right,sanctity.vice,,,,,,,,,,,,,,0,1,1,3,0,50,50,50,,,,,,,,,,,,,,,,,,,,,1073.0578605750343,,,,,,,,,,,,,,AMP_prac,left,1.398419103701599,3,,,left,0.6491761647630483,,,,,,,,,,,,,,,,,,,,,,,,,1008,2019_May_08_1649,mf_amp_cond1,3.0.7,59.984994042421704,
injured,&&&&&&&,images/symbols/symbol_68.png,condition_files/AMP_rep4.csv,right,care.vice,,,,,,,,,,,,,,0,1,1,3,0,51,51,51,,,,,,,,,,,,,,,,,,,,,1073.6746773069026,,,,,,,,,,,,,,AMP_prac,left,1.398419103701599,3,,,left,0.3836707635782659,,,,,,,,,,,,,,,,,,,,,,,,,1008,2019_May_08_1649,mf_amp_cond1,3.0.7,59.984994042421704,
health,&&&&&&,images/symbols/symbol_32.png,condition_files/AMP_rep4.csv,left,care.virtue,,,,,,,,,,,,,,0,1,1,3,0,52,52,52,,,,,,,,,,,,,,,,,,,,,1074.3081561191939,,,,,,,,,,,,,,AMP_prac,left,1.398419103701599,3,,,left,0.41519568127114326,,,,,,,,,,,,,,,,,,,,,,,,,1008,2019_May_08_1649,mf_amp_cond1,3.0.7,59.984994042421704,
progress,&&&&&&&&,images/symbols/symbol_28.png,condition_files/AMP_rep4.csv,left,authority.virtue,,,,,,,,,,,,,,0,1,1,3,0,53,53,53,,,,,,,,,,,,,,,,,,,,,1074.9416374971624,,,,,,,,,,,,,,AMP_prac,left,1.398419103701599,3,,,left,0.415827821707353,,,,,,,,,,,,,,,,,,,,,,,,,1008,2019_May_08_1649,mf_amp_cond1,3.0.7,59.984994042421704,
rhaps,&&&&&,images/symbols/symbol_18.png,condition_files/AMP_rep4.csv,None,nonword,,,,,,,,,,,,,,0,1,1,3,0,54,54,54,,,,,,,,,,,,,,,,,,,,,1075.6585447363323,,,,,,,,,,,,,,AMP_prac,left,1.398419103701599,3,,,right,0.4993133370298892,,,,,,,,,,,,,,,,,,,,,,,,,1008,2019_May_08_1649,mf_amp_cond1,3.0.7,59.984994042421704,
agreement,&&&&&&&&&,images/symbols/symbol_52.png,condition_files/AMP_rep4.csv,left,fairness.virtue,,,,,,,,,,,,,,0,1,1,3,0,55,55,55,,,,,,,,,,,,,,,,,,,,,1076.2919738369528,,,,,,,,,,,,,,AMP_prac,left,1.398419103701599,3,,,left,0.4161533531732857,,,,,,,,,,,,,,,,,,,,,,,,,1008,2019_May_08_1649,mf_amp_cond1,3.0.7,59.984994042421704,
voter,&&&&&,images/symbols/symbol_33.png,condition_files/AMP_rep4.csv,right,fairness.vice,,,,,,,,,,,,,,0,1,1,3,0,56,56,56,,,,,,,,,,,,,,,,,,,,,1076.9588069575839,,,,,,,,,,,,,,AMP_prac,left,1.398419103701599,3,,,left,0.44918694102671,,,,,,,,,,,,,,,,,,,,,,,,,1008,2019_May_08_1649,mf_amp_cond1,3.0.7,59.984994042421704,
torture,&&&&&&&,images/symbols/symbol_81.png,condition_files/AMP_rep4.csv,right,care.vice,,,,,,,,,,,,,,0,1,1,3,0,57,57,57,,,,,,,,,,,,,,,,,,,,,1077.6089792808052,,,,,,,,,,,,,,AMP_prac,left,1.398419103701599,3,,,left,0.43241741927340627,,,,,,,,,,,,,,,,,,,,,,,,,1008,2019_May_08_1649,mf_amp_cond1,3.0.7,59.984994042421704,
values,&&&&&&,images/symbols/symbol_50.png,condition_files/AMP_rep4.csv,left,sanctity.virtue,,,,,,,,,,,,,,0,1,1,3,0,58,58,58,,,,,,,,,,,,,,,,,,,,,1078.2424824677873,,,,,,,,,,,,,,AMP_prac,left,1.398419103701599,3,,,left,0.41577009204775095,,,,,,,,,,,,,,,,,,,,,,,,,1008,2019_May_08_1649,mf_amp_cond1,3.0.7,59.984994042421704,
encourage,&&&&&&&&&,images/symbols/symbol_17.png,condition_files/AMP_rep4.csv,left,authority.virtue,,,,,,,,,,,,,,0,1,1,3,0,59,59,59,,,,,,,,,,,,,,,,,,,,,1078.9259712544736,,,,,,,,,,,,,,AMP_prac,left,1.398419103701599,3,,,left,0.465252801659517,,,,,,,,,,,,,,,,,,,,,,,,,1008,2019_May_08_1649,mf_amp_cond1,3.0.7,59.984994042421704,
fighters,&&&&&&&&,images/symbols/symbol_69.png,condition_files/AMP_rep4.csv,right,authority.vice,,,,,,,,,,,,,,0,1,1,3,0,60,60,60,,,,,,,,,,,,,,,,,,,,,1079.5594619333278,,,,,,,,,,,,,,AMP_prac,left,1.398419103701599,3,,,left,0.41569119470659643,,,,,,,,,,,,,,,,,,,,,,,,,1008,2019_May_08_1649,mf_amp_cond1,3.0.7,59.984994042421704,
sexual,&&&&&&,images/symbols/symbol_49.png,condition_files/AMP_rep4.csv,right,sanctity.vice,,,,,,,,,,,,,,0,1,1,3,0,61,61,61,,,,,,,,,,,,,,,,,,,,,1080.1763226039475,,,,,,,,,,,,,,AMP_prac,left,1.398419103701599,3,,,left,0.3996121846139431,,,,,,,,,,,,,,,,,,,,,,,,,1008,2019_May_08_1649,mf_amp_cond1,3.0.7,59.984994042421704,
threatened,&&&&&&&&&&,images/symbols/symbol_8.png,condition_files/AMP_rep4.csv,right,fairness.vice,,,,,,,,,,,,,,0,1,1,3,0,62,62,62,,,,,,,,,,,,,,,,,,,,,1080.8097690234426,,,,,,,,,,,,,,AMP_prac,left,1.398419103701599,3,,,left,0.4158217280637473,,,,,,,,,,,,,,,,,,,,,,,,,1008,2019_May_08_1649,mf_amp_cond1,3.0.7,59.984994042421704,
integrity,&&&&&&&&&,images/symbols/symbol_63.png,condition_files/AMP_rep4.csv,left,fairness.virtue,,,,,,,,,,,,,,0,1,1,3,0,63,63,63,,,,,,,,,,,,,,,,,,,,,1081.4099166190717,,,,,,,,,,,,,,AMP_prac,left,1.398419103701599,3,,,left,0.3825678051216528,,,,,,,,,,,,,,,,,,,,,,,,,1008,2019_May_08_1649,mf_amp_cond1,3.0.7,59.984994042421704,
serial,&&&&&&,images/symbols/symbol_26.png,condition_files/AMP_rep4.csv,right,sanctity.vice,,,,,,,,,,,,,,0,1,1,3,0,64,64,64,,,,,,,,,,,,,,,,,,,,,1082.0267423311016,,,,,,,,,,,,,,AMP_prac,left,1.398419103701599,3,,,left,0.399028793675825,,,,,,,,,,,,,,,,,,,,,,,,,1008,2019_May_08_1649,mf_amp_cond1,3.0.7,59.984994042421704,
promised,&&&&&&&&,images/symbols/symbol_4.png,condition_files/AMP_rep4.csv,left,loyalty.virtue,,,,,,,,,,,,,,0,1,1,3,0,65,65,65,,,,,,,,,,,,,,,,,,,,,1082.7769368481822,,,,,,,,,,,,,,AMP_prac,left,1.398419103701599,3,,,left,0.532358470838517,,,,,,,,,,,,,,,,,,,,,,,,,1008,2019_May_08_1649,mf_amp_cond1,3.0.7,59.984994042421704,
killed,&&&&&&,images/symbols/symbol_30.png,condition_files/AMP_rep4.csv,right,care.vice,,,,,,,,,,,,,,0,1,1,3,0,66,66,66,,,,,,,,,,,,,,,,,,,,,1083.4938357487554,,,,,,,,,,,,,,AMP_prac,left,1.398419103701599,3,,,right,0.49934508837759495,,,,,,,,,,,,,,,,,,,,,,,,,1008,2019_May_08_1649,mf_amp_cond1,3.0.7,59.984994042421704,
terrorist,&&&&&&&&&,images/symbols/symbol_14.png,condition_files/AMP_rep4.csv,right,loyalty.vice,,,,,,,,,,,,,,0,1,1,3,0,67,67,67,,,,,,,,,,,,,,,,,,,,,1084.3440223119687,,,,,,,,,,,,,,AMP_prac,left,1.398419103701599,3,,,right,0.6323306321864948,,,,,,,,,,,,,,,,,,,,,,,,,1008,2019_May_08_1649,mf_amp_cond1,3.0.7,59.984994042421704,
fourz,&&&&&,images/symbols/symbol_71.png,condition_files/AMP_rep4.csv,None,nonword,,,,,,,,,,,,,,0,1,1,3,0,68,68,68,,,,,,,,,,,,,,,,,,,,,1085.0108201532857,,,,,,,,,,,,,,AMP_prac,left,1.398419103701599,3,,,right,0.4483832149999216,,,,,,,,,,,,,,,,,,,,,,,,,1008,2019_May_08_1649,mf_amp_cond1,3.0.7,59.984994042421704,
police,&&&&&&,images/symbols/symbol_53.png,condition_files/AMP_rep4.csv,right,authority.vice,,,,,,,,,,,,,,0,1,1,3,0,69,69,69,,,,,,,,,,,,,,,,,,,,,1086.0777507090243,,,,,,,,,,,,,,AMP_prac,left,1.398419103701599,3,,,left,0.8492782822577283,,,,,,,,,,,,,,,,,,,,,,,,,1008,2019_May_08_1649,mf_amp_cond1,3.0.7,59.984994042421704,
suicide,&&&&&&&,images/symbols/symbol_9.png,condition_files/AMP_rep4.csv,right,care.vice,,,,,,,,,,,,,,0,1,1,3,0,70,70,70,,,,,,,,,,,,,,,,,,,,,1086.8112783349352,,,,,,,,,,,,,,AMP_prac,left,1.398419103701599,3,,,left,0.515730386832729,,,,,,,,,,,,,,,,,,,,,,,,,1008,2019_May_08_1649,mf_amp_cond1,3.0.7,59.984994042421704,
feuld,&&&&&,images/symbols/symbol_72.png,condition_files/AMP_rep4.csv,None,nonword,,,,,,,,,,,,,,0,1,1,3,0,71,71,71,,,,,,,,,,,,,,,,,,,,,1087.6781564847333,,,,,,,,,,,,,,AMP_prac,left,1.398419103701599,3,,,left,0.6490392171544954,,,,,,,,,,,,,,,,,,,,,,,,,1008,2019_May_08_1649,mf_amp_cond1,3.0.7,59.984994042421704,
crime,&&&&&,images/symbols/symbol_82.png,condition_files/AMP_rep4.csv,right,fairness.vice,,,,,,,,,,,,,,0,1,1,3,0,72,72,72,,,,,,,,,,,,,,,,,,,,,1088.3283191863447,,,,,,,,,,,,,,AMP_prac,left,1.398419103701599,3,,,left,0.432568478747271,,,,,,,,,,,,,,,,,,,,,,,,,1008,2019_May_08_1649,mf_amp_cond1,3.0.7,59.984994042421704,
praise,&&&&&&,images/symbols/symbol_59.png,condition_files/AMP_rep4.csv,left,authority.virtue,,,,,,,,,,,,,,0,1,1,3,0,73,73,73,,,,,,,,,,,,,,,,,,,,,1089.0118236882845,,,,,,,,,,,,,,AMP_prac,left,1.398419103701599,3,,,left,0.46566813497338444,,,,,,,,,,,,,,,,,,,,,,,,,1008,2019_May_08_1649,mf_amp_cond1,3.0.7,59.984994042421704,
ensure,&&&&&&,images/symbols/symbol_6.png,condition_files/AMP_rep4.csv,left,fairness.virtue,,,,,,,,,,,,,,0,1,1,3,0,74,74,74,,,,,,,,,,,,,,,,,,,,,1089.895413951017,,,,,,,,,,,,,,AMP_prac,left,1.398419103701599,3,,,right,0.6504462186712772,,,,,,,,,,,,,,,,,,,,,,,,,1008,2019_May_08_1649,mf_amp_cond1,3.0.7,59.984994042421704,
refused,&&&&&&&,images/symbols/symbol_31.png,condition_files/AMP_rep4.csv,right,authority.vice,,,,,,,,,,,,,,0,1,1,3,0,75,75,75,,,,,,,,,,,,,,,,,,,,,1090.7456094943918,,,,,,,,,,,,,,AMP_prac,left,1.398419103701599,3,,,left,0.6326725203543901,,,,,,,,,,,,,,,,,,,,,,,,,1008,2019_May_08_1649,mf_amp_cond1,3.0.7,59.984994042421704,
prosecution,&&&&&&&&&&&,images/symbols/symbol_56.png,condition_files/AMP_rep4.csv,right,authority.vice,,,,,,,,,,,,,,0,1,1,3,0,76,76,76,,,,,,,,,,,,,,,,,,,,,1091.545827456168,,,,,,,,,,,,,,AMP_prac,left,1.398419103701599,3,,,right,0.5670976510737091,,,,,,,,,,,,,,,,,,,,,,,,,1008,2019_May_08_1649,mf_amp_cond1,3.0.7,59.984994042421704,
jogns,&&&&&,images/symbols/symbol_47.png,condition_files/AMP_rep4.csv,None,nonword,,,,,,,,,,,,,,0,1,1,3,0,77,77,77,,,,,,,,,,,,,,,,,,,,,1092.2460084708873,,,,,,,,,,,,,,AMP_prac,left,1.398419103701599,3,,,left,0.48189082799945027,,,,,,,,,,,,,,,,,,,,,,,,,1008,2019_May_08_1649,mf_amp_cond1,3.0.7,59.984994042421704,
celebrated,&&&&&&&&&&,images/symbols/symbol_76.png,condition_files/AMP_rep4.csv,left,authority.virtue,,,,,,,,,,,,,,0,1,1,3,0,78,78,78,,,,,,,,,,,,,,,,,,,,,1093.479641934624,,,,,,,,,,,,,,AMP_prac,left,1.398419103701599,3,,,right,1.0163484155200422,,,,,,,,,,,,,,,,,,,,,,,,,1008,2019_May_08_1649,mf_amp_cond1,3.0.7,59.984994042421704,
pleasant,&&&&&&&,images/symbols/symbol_7.png,condition_files/AMP_rep4.csv,right,control,,,,,,,,,,,,,,0,1,1,3,0,79,79,79,,,,,,,,,,,,,,,,,,,,,1094.5132143332157,,,,,,,,,,,,,,AMP_prac,left,1.398419103701599,3,,,left,0.815915314364247,,,,,,,,,,,,,,,,,,,,,,,,,1008,2019_May_08_1649,mf_amp_cond1,3.0.7,59.984994042421704,
failure,&&&&&&&,images/symbols/symbol_24.png,condition_files/AMP_rep4.csv,right,loyalty.vice,,,,,,,,,,,,,,0,1,1,3,0,80,80,80,,,,,,,,,,,,,,,,,,,,,1095.1633651681477,,,,,,,,,,,,,,AMP_prac,left,1.398419103701599,3,,,left,0.4323362768627703,,,,,,,,,,,,,,,,,,,,,,,,,1008,2019_May_08_1649,mf_amp_cond1,3.0.7,59.984994042421704,
phlux,&&&&&,images/symbols/symbol_38.png,condition_files/AMP_rep4.csv,None,nonword,,,,,,,,,,,,,,0,1,1,3,0,81,81,81,,,,,,,,,,,,,,,,,,,,,1095.9802314192057,,,,,,,,,,,,,,AMP_prac,left,1.398419103701599,3,,,right,0.5991228931816295,,,,,,,,,,,,,,,,,,,,,,,,,1008,2019_May_08_1649,mf_amp_cond1,3.0.7,59.984994042421704,
,,,condition_files/AMP_rep4.csv,,,,,,,,,,,,,,,,0,1,1,3,,,,,,,,,,,,,,,,,,,,,,,,,,,,,,,,,,,,,,,,,,,,,,,right,1.3672370362328365,,,,,,,,,,,,,,,,,,,,,,,1008,2019_May_08_1649,mf_amp_cond1,3.0.7,59.984994042421704,
drug,&&&&,images/symbols/symbol_64.png,condition_files/AMP_rep1.csv,right,sanctity.vice,,,,,,,,,,,,,,0,2,2,0,0,0,0,0,,,,,,,,,,,,,,,,,,,,,1098.1142743790988,,,,,,,,,,,,,,AMP_prac,left,1.398419103701599,3,,,left,0.5004432359710336,,,,,,,,,,,,,,,,,,,,,,,,,1008,2019_May_08_1649,mf_amp_cond1,3.0.7,59.984994042421704,
men,&&&,images/symbols/symbol_11.png,condition_files/AMP_rep1.csv,right,loyalty.vice,,,,,,,,,,,,,,0,2,2,0,0,1,1,1,,,,,,,,,,,,,,,,,,,,,1098.9476365773007,,,,,,,,,,,,,,AMP_prac,left,1.398419103701599,3,,,left,0.6154001087415963,,,,,,,,,,,,,,,,,,,,,,,,,1008,2019_May_08_1649,mf_amp_cond1,3.0.7,59.984994042421704,
trust,&&&&&,images/symbols/symbol_75.png,condition_files/AMP_rep1.csv,left,authority.virtue,,,,,,,,,,,,,,0,2,2,0,0,2,2,2,,,,,,,,,,,,,,,,,,,,,1099.4310883528087,,,,,,,,,,,,,,AMP_prac,left,1.398419103701599,3,,,left,0.2656798732932657,,,,,,,,,,,,,,,,,,,,,,,,,1008,2019_May_08_1649,mf_amp_cond1,3.0.7,59.984994042421704,
terrorists,&&&&&&&&&&,images/symbols/symbol_12.png,condition_files/AMP_rep1.csv,right,fairness.vice,,,,,,,,,,,,,,0,2,2,0,0,3,3,3,,,,,,,,,,,,,,,,,,,,,1099.831224915688,,,,,,,,,,,,,,AMP_prac,left,1.398419103701599,3,,,left,0.16698578372597694,,,,,,,,,,,,,,,,,,,,,,,,,1008,2019_May_08_1649,mf_amp_cond1,3.0.7,59.984994042421704,
critics,&&&&&&&,images/symbols/symbol_74.png,condition_files/AMP_rep1.csv,right,loyalty.vice,,,,,,,,,,,,,,0,2,2,0,0,4,4,4,,,,,,,,,,,,,,,,,,,,,1100.2979770865059,,,,,,,,,,,,,,AMP_prac,left,1.398419103701599,3,,,left,0.233632180839777,,,,,,,,,,,,,,,,,,,,,,,,,1008,2019_May_08_1649,mf_amp_cond1,3.0.7,59.984994042421704,
unpleasant,&&&&&&&&&,images/symbols/symbol_61.png,condition_files/AMP_rep1.csv,left,control,,,,,,,,,,,,,,0,2,2,0,0,5,5,5,,,,,,,,,,,,,,,,,,,,,1100.8481236879015,,,,,,,,,,,,,,AMP_prac,left,1.398419103701599,3,,,left,0.3320459604728967,,,,,,,,,,,,,,,,,,,,,,,,,1008,2019_May_08_1649,mf_amp_cond1,3.0.7,59.984994042421704,
improve,&&&&&&&,images/symbols/symbol_40.png,condition_files/AMP_rep1.csv,left,care.virtue,,,,,,,,,,,,,,0,2,2,0,0,6,6,6,,,,,,,,,,,,,,,,,,,,,1101.4649619080592,,,,,,,,,,,,,,AMP_prac,left,1.398419103701599,3,,,left,0.3989171829307452,,,,,,,,,,,,,,,,,,,,,,,,,1008,2019_May_08_1649,mf_amp_cond1,3.0.7,59.984994042421704,
freedom,&&&&&&&,images/symbols/symbol_65.png,condition_files/AMP_rep1.csv,left,sanctity.virtue,,,,,,,,,,,,,,0,2,2,0,0,7,7,7,,,,,,,,,,,,,,,,,,,,,1102.0317410834832,,,,,,,,,,,,,,AMP_prac,left,1.398419103701599,3,,,left,0.3489540336886421,,,,,,,,,,,,,,,,,,,,,,,,,1008,2019_May_08_1649,mf_amp_cond1,3.0.7,59.984994042421704,
loyalty,&&&&&&&,images/symbols/symbol_67.png,condition_files/AMP_rep1.csv,left,loyalty.virtue,,,,,,,,,,,,,,0,2,2,0,0,8,8,8,,,,,,,,,,,,,,,,,,,,,1102.6152144114021,,,,,,,,,,,,,,AMP_prac,left,1.398419103701599,3,,,left,0.36563664011191577,,,,,,,,,,,,,,,,,,,,,,,,,1008,2019_May_08_1649,mf_amp_cond1,3.0.7,59.984994042421704,
embrace,&&&&&&&,images/symbols/symbol_77.png,condition_files/AMP_rep1.csv,left,authority.virtue,,,,,,,,,,,,,,0,2,2,0,0,9,9,9,,,,,,,,,,,,,,,,,,,,,1103.4320915670833,,,,,,,,,,,,,,AMP_prac,left,1.398419103701599,3,,,right,0.5990837651770562,,,,,,,,,,,,,,,,,,,,,,,,,1008,2019_May_08_1649,mf_amp_cond1,3.0.7,59.984994042421704,
safety,&&&&&&,images/symbols/symbol_22.png,condition_files/AMP_rep1.csv,left,care.virtue,,,,,,,,,,,,,,0,2,2,0,0,10,10,10,,,,,,,,,,,,,,,,,,,,,1104.2323024729267,,,,,,,,,,,,,,AMP_prac,left,1.398419103701599,3,,,right,0.5824136668816209,,,,,,,,,,,,,,,,,,,,,,,,,1008,2019_May_08_1649,mf_amp_cond1,3.0.7,59.984994042421704,
death,&&&&&,images/symbols/symbol_15.png,condition_files/AMP_rep1.csv,right,care.vice,,,,,,,,,,,,,,0,2,2,0,0,11,11,11,,,,,,,,,,,,,,,,,,,,,1105.015833979589,,,,,,,,,,,,,,AMP_prac,left,1.398419103701599,3,,,left,0.5653596657793969,,,,,,,,,,,,,,,,,,,,,,,,,1008,2019_May_08_1649,mf_amp_cond1,3.0.7,59.984994042421704,
slypped,&&&&&&&,images/symbols/symbol_3.png,condition_files/AMP_rep1.csv,None,nonword,,,,,,,,,,,,,,0,2,2,0,0,12,12,12,,,,,,,,,,,,,,,,,,,,,1105.9160334037151,,,,,,,,,,,,,,AMP_prac,left,1.398419103701599,3,,,right,0.6824047507252544,,,,,,,,,,,,,,,,,,,,,,,,,1008,2019_May_08_1649,mf_amp_cond1,3.0.7,59.984994042421704,
frord,&&&&&,images/symbols/symbol_60.png,condition_files/AMP_rep1.csv,None,nonword,,,,,,,,,,,,,,0,2,2,0,0,13,13,13,,,,,,,,,,,,,,,,,,,,,1106.9163044126472,,,,,,,,,,,,,,AMP_prac,left,1.398419103701599,3,,,left,0.7824298311024904,,,,,,,,,,,,,,,,,,,,,,,,,1008,2019_May_08_1649,mf_amp_cond1,3.0.7,59.984994042421704,
energy,&&&&&&,images/symbols/symbol_70.png,condition_files/AMP_rep1.csv,left,sanctity.virtue,,,,,,,,,,,,,,0,2,2,0,0,14,14,14,,,,,,,,,,,,,,,,,,,,,1107.733174512512,,,,,,,,,,,,,,AMP_prac,left,1.398419103701599,3,,,right,0.5991831886349246,,,,,,,,,,,,,,,,,,,,,,,,,1008,2019_May_08_1649,mf_amp_cond1,3.0.7,59.984994042421704,
sharing,&&&&&&&,images/symbols/symbol_35.png,condition_files/AMP_rep1.csv,left,loyalty.virtue,,,,,,,,,,,,,,0,2,2,0,0,15,15,15,,,,,,,,,,,,,,,,,,,,,1108.4500586598879,,,,,,,,,,,,,,AMP_prac,left,1.398419103701599,3,,,left,0.4990965297911316,,,,,,,,,,,,,,,,,,,,,,,,,1008,2019_May_08_1649,mf_amp_cond1,3.0.7,59.984994042421704,
powerful,&&&&&&&&,images/symbols/symbol_46.png,condition_files/AMP_rep1.csv,left,authority.virtue,,,,,,,,,,,,,,0,2,2,0,0,16,16,16,,,,,,,,,,,,,,,,,,,,,1109.3169012097642,,,,,,,,,,,,,,AMP_prac,left,1.398419103701599,3,,,left,0.6490898908814415,,,,,,,,,,,,,,,,,,,,,,,,,1008,2019_May_08_1649,mf_amp_cond1,3.0.7,59.984994042421704,
restore,&&&&&&&,images/symbols/symbol_5.png,condition_files/AMP_rep1.csv,left,care.virtue,,,,,,,,,,,,,,0,2,2,0,0,17,17,17,,,,,,,,,,,,,,,,,,,,,1109.9504399966681,,,,,,,,,,,,,,AMP_prac,left,1.398419103701599,3,,,left,0.4158088992116973,,,,,,,,,,,,,,,,,,,,,,,,,1008,2019_May_08_1649,mf_amp_cond1,3.0.7,59.984994042421704,
dignity,&&&&&&&,images/symbols/symbol_19.png,condition_files/AMP_rep1.csv,left,sanctity.virtue,,,,,,,,,,,,,,0,2,2,0,0,18,18,18,,,,,,,,,,,,,,,,,,,,,1110.8672857858473,,,,,,,,,,,,,,AMP_prac,left,1.398419103701599,3,,,left,0.6991723482497036,,,,,,,,,,,,,,,,,,,,,,,,,1008,2019_May_08_1649,mf_amp_cond1,3.0.7,59.984994042421704,
safe,&&&&,images/symbols/symbol_58.png,condition_files/AMP_rep1.csv,left,care.virtue,,,,,,,,,,,,,,0,2,2,0,0,19,19,19,,,,,,,,,,,,,,,,,,,,,1111.5007700503338,,,,,,,,,,,,,,AMP_prac,left,1.398419103701599,3,,,left,0.415637313737534,,,,,,,,,,,,,,,,,,,,,,,,,1008,2019_May_08_1649,mf_amp_cond1,3.0.7,59.984994042421704,
benefit,&&&&&&&,images/symbols/symbol_51.png,condition_files/AMP_rep1.csv,left,fairness.virtue,,,,,,,,,,,,,,0,2,2,0,0,20,20,20,,,,,,,,,,,,,,,,,,,,,1112.0842501133448,,,,,,,,,,,,,,AMP_prac,left,1.398419103701599,3,,,left,0.36618154461029917,,,,,,,,,,,,,,,,,,,,,,,,,1008,2019_May_08_1649,mf_amp_cond1,3.0.7,59.984994042421704,
intelligence,&&&&&&&&&&&&,images/symbols/symbol_45.png,condition_files/AMP_rep1.csv,left,loyalty.virtue,,,,,,,,,,,,,,0,2,2,0,0,21,21,21,,,,,,,,,,,,,,,,,,,,,1112.6844028405612,,,,,,,,,,,,,,AMP_prac,left,1.398419103701599,3,,,left,0.38235260162036866,,,,,,,,,,,,,,,,,,,,,,,,,1008,2019_May_08_1649,mf_amp_cond1,3.0.7,59.984994042421704,
respect,&&&&&&&,images/symbols/symbol_62.png,condition_files/AMP_rep1.csv,left,sanctity.virtue,,,,,,,,,,,,,,0,2,2,0,0,22,22,22,,,,,,,,,,,,,,,,,,,,,1113.2845603785245,,,,,,,,,,,,,,AMP_prac,left,1.398419103701599,3,,,left,0.36701413546688855,,,,,,,,,,,,,,,,,,,,,,,,,1008,2019_May_08_1649,mf_amp_cond1,3.0.7,59.984994042421704,
strength,&&&&&&&&,images/symbols/symbol_80.png,condition_files/AMP_rep1.csv,left,sanctity.virtue,,,,,,,,,,,,,,0,2,2,0,0,23,23,23,,,,,,,,,,,,,,,,,,,,,1114.0014451673487,,,,,,,,,,,,,,AMP_prac,left,1.398419103701599,3,,,left,0.49889960733707994,,,,,,,,,,,,,,,,,,,,,,,,,1008,2019_May_08_1649,mf_amp_cond1,3.0.7,59.984994042421704,
abuse,&&&&&,images/symbols/symbol_55.png,condition_files/AMP_rep1.csv,right,sanctity.vice,,,,,,,,,,,,,,0,2,2,0,0,24,24,24,,,,,,,,,,,,,,,,,,,,,1114.718289545388,,,,,,,,,,,,,,AMP_prac,left,1.398419103701599,3,,,left,0.499028216348961,,,,,,,,,,,,,,,,,,,,,,,,,1008,2019_May_08_1649,mf_amp_cond1,3.0.7,59.984994042421704,
love,&&&&,images/symbols/symbol_41.png,condition_files/AMP_rep1.csv,left,loyalty.virtue,,,,,,,,,,,,,,0,2,2,0,0,25,25,25,,,,,,,,,,,,,,,,,,,,,1115.4184195655398,,,,,,,,,,,,,,AMP_prac,left,1.398419103701599,3,,,left,0.4829091161955148,,,,,,,,,,,,,,,,,,,,,,,,,1008,2019_May_08_1649,mf_amp_cond1,3.0.7,59.984994042421704,
help,&&&&,images/symbols/symbol_39.png,condition_files/AMP_rep1.csv,left,care.virtue,,,,,,,,,,,,,,0,2,2,0,0,26,26,26,,,,,,,,,,,,,,,,,,,,,1116.4353430332849,,,,,,,,,,,,,,AMP_prac,left,1.398419103701599,3,,,right,0.7991316808620468,,,,,,,,,,,,,,,,,,,,,,,,,1008,2019_May_08_1649,mf_amp_cond1,3.0.7,59.984994042421704,
ban,&&&,images/symbols/symbol_78.png,condition_files/AMP_rep1.csv,right,loyalty.vice,,,,,,,,,,,,,,0,2,2,0,0,27,27,27,,,,,,,,,,,,,,,,,,,,,1117.1355141056702,,,,,,,,,,,,,,AMP_prac,left,1.398419103701599,3,,,left,0.48228691797703505,,,,,,,,,,,,,,,,,,,,,,,,,1008,2019_May_08_1649,mf_amp_cond1,3.0.7,59.984994042421704,
hand,&&&&,images/symbols/symbol_1.png,condition_files/AMP_rep1.csv,left,sanctity.virtue,,,,,,,,,,,,,,0,2,2,0,0,28,28,28,,,,,,,,,,,,,,,,,,,,,1117.8023488299223,,,,,,,,,,,,,,AMP_prac,left,1.398419103701599,3,,,left,0.44893838244024664,,,,,,,,,,,,,,,,,,,,,,,,,1008,2019_May_08_1649,mf_amp_cond1,3.0.7,59.984994042421704,
betrayal,&&&&&&&&,images/symbols/symbol_29.png,condition_files/AMP_rep1.csv,right,loyalty.vice,,,,,,,,,,,,,,0,2,2,0,0,29,29,29,,,,,,,,,,,,,,,,,,,,,1118.4525689405855,,,,,,,,,,,,,,AMP_prac,left,1.398419103701599,3,,,left,0.4321791237452999,,,,,,,,,,,,,,,,,,,,,,,,,1008,2019_May_08_1649,mf_amp_cond1,3.0.7,59.984994042421704,
corruption,&&&&&&&&&&,images/symbols/symbol_44.png,condition_files/AMP_rep1.csv,right,sanctity.vice,,,,,,,,,,,,,,0,2,2,0,0,30,30,30,,,,,,,,,,,,,,,,,,,,,1119.4861031733453,,,,,,,,,,,,,,AMP_prac,left,1.398419103701599,3,,,right,0.8157648963388056,,,,,,,,,,,,,,,,,,,,,,,,,1008,2019_May_08_1649,mf_amp_cond1,3.0.7,59.984994042421704,
victims,&&&&&&&,images/symbols/symbol_13.png,condition_files/AMP_rep1.csv,right,care.vice,,,,,,,,,,,,,,0,2,2,0,0,31,31,31,,,,,,,,,,,,,,,,,,,,,1120.3196472200798,,,,,,,,,,,,,,AMP_prac,left,1.398419103701599,3,,,right,0.6154867032309994,,,,,,,,,,,,,,,,,,,,,,,,,1008,2019_May_08_1649,mf_amp_cond1,3.0.7,59.984994042421704,
care,&&&&,images/symbols/symbol_42.png,condition_files/AMP_rep1.csv,left,care.virtue,,,,,,,,,,,,,,0,2,2,0,0,32,32,32,,,,,,,,,,,,,,,,,,,,,1120.936463951948,,,,,,,,,,,,,,AMP_prac,left,1.398419103701599,3,,,left,0.3990445090457797,,,,,,,,,,,,,,,,,,,,,,,,,1008,2019_May_08_1649,mf_amp_cond1,3.0.7,59.984994042421704,
died,&&&&,images/symbols/symbol_79.png,condition_files/AMP_rep1.csv,right,care.vice,,,,,,,,,,,,,,0,2,2,0,0,33,33,33,,,,,,,,,,,,,,,,,,,,,1121.5199818600668,,,,,,,,,,,,,,AMP_prac,left,1.398419103701599,3,,,left,0.3656594112981111,,,,,,,,,,,,,,,,,,,,,,,,,1008,2019_May_08_1649,mf_amp_cond1,3.0.7,59.984994042421704,
phlaizz,&&&&&&&,images/symbols/symbol_21.png,condition_files/AMP_rep1.csv,None,nonword,,,,,,,,,,,,,,0,2,2,0,0,34,34,34,,,,,,,,,,,,,,,,,,,,,1122.403507337207,,,,,,,,,,,,,,AMP_prac,left,1.398419103701599,3,,,left,0.6660499208373949,,,,,,,,,,,,,,,,,,,,,,,,,1008,2019_May_08_1649,mf_amp_cond1,3.0.7,59.984994042421704,
rhailled,&&&&&&&&,images/symbols/symbol_66.png,condition_files/AMP_rep1.csv,None,nonword,,,,,,,,,,,,,,0,2,2,0,0,35,35,35,,,,,,,,,,,,,,,,,,,,,1122.9703080009203,,,,,,,,,,,,,,AMP_prac,left,1.398419103701599,3,,,left,0.3336694485042244,,,,,,,,,,,,,,,,,,,,,,,,,1008,2019_May_08_1649,mf_amp_cond1,3.0.7,59.984994042421704,
great,&&&&&,images/symbols/symbol_36.png,condition_files/AMP_rep1.csv,left,loyalty.virtue,,,,,,,,,,,,,,0,2,2,0,0,36,36,36,,,,,,,,,,,,,,,,,,,,,1123.587120884098,,,,,,,,,,,,,,AMP_prac,left,1.398419103701599,3,,,left,0.39858074695803225,,,,,,,,,,,,,,,,,,,,,,,,,1008,2019_May_08_1649,mf_amp_cond1,3.0.7,59.984994042421704,
thinx,&&&&&,images/symbols/symbol_34.png,condition_files/AMP_rep1.csv,None,nonword,,,,,,,,,,,,,,0,2,2,0,0,37,37,37,,,,,,,,,,,,,,,,,,,,,1124.1539375839056,,,,,,,,,,,,,,AMP_prac,left,1.398419103701599,3,,,left,0.34890752914361656,,,,,,,,,,,,,,,,,,,,,,,,,1008,2019_May_08_1649,mf_amp_cond1,3.0.7,59.984994042421704,
officers,&&&&&&&&,images/symbols/symbol_16.png,condition_files/AMP_rep1.csv,right,authority.vice,,,,,,,,,,,,,,0,2,2,0,0,38,38,38,,,,,,,,,,,,,,,,,,,,,1124.9541407926008,,,,,,,,,,,,,,AMP_prac,left,1.398419103701599,3,,,left,0.5827276523923501,,,,,,,,,,,,,,,,,,,,,,,,,1008,2019_May_08_1649,mf_amp_cond1,3.0.7,59.984994042421704,
opportunity,&&&&&&&&&&&,images/symbols/symbol_48.png,condition_files/AMP_rep1.csv,left,fairness.virtue,,,,,,,,,,,,,,0,2,2,0,0,39,39,39,,,,,,,,,,,,,,,,,,,,,1125.6376350314822,,,,,,,,,,,,,,AMP_prac,left,1.398419103701599,3,,,left,0.46570084837730974,,,,,,,,,,,,,,,,,,,,,,,,,1008,2019_May_08_1649,mf_amp_cond1,3.0.7,59.984994042421704,
gun,&&&,images/symbols/symbol_27.png,condition_files/AMP_rep1.csv,right,authority.vice,,,,,,,,,,,,,,0,2,2,0,0,40,40,40,,,,,,,,,,,,,,,,,,,,,1126.2544732516399,,,,,,,,,,,,,,AMP_prac,left,1.398419103701599,3,,,left,0.3990201342385262,,,,,,,,,,,,,,,,,,,,,,,,,1008,2019_May_08_1649,mf_amp_cond1,3.0.7,59.984994042421704,
racist,&&&&&&,images/symbols/symbol_25.png,condition_files/AMP_rep1.csv,right,sanctity.vice,,,,,,,,,,,,,,0,2,2,0,0,41,41,41,,,,,,,,,,,,,,,,,,,,,1127.1046732850373,,,,,,,,,,,,,,AMP_prac,left,1.398419103701599,3,,,right,0.6323514791438356,,,,,,,,,,,,,,,,,,,,,,,,,1008,2019_May_08_1649,mf_amp_cond1,3.0.7,59.984994042421704,
lies,&&&&,images/symbols/symbol_23.png,condition_files/AMP_rep1.csv,right,fairness.vice,,,,,,,,,,,,,,0,2,2,0,0,42,42,42,,,,,,,,,,,,,,,,,,,,,1127.6548333567334,,,,,,,,,,,,,,AMP_prac,left,1.398419103701599,3,,,left,0.3319096543127671,,,,,,,,,,,,,,,,,,,,,,,,,1008,2019_May_08_1649,mf_amp_cond1,3.0.7,59.984994042421704,
slavery,&&&&&&&,images/symbols/symbol_20.png,condition_files/AMP_rep1.csv,right,loyalty.vice,,,,,,,,,,,,,,0,2,2,0,0,43,43,43,,,,,,,,,,,,,,,,,,,,,1128.2883006230695,,,,,,,,,,,,,,AMP_prac,left,1.398419103701599,3,,,left,0.4162848487030715,,,,,,,,,,,,,,,,,,,,,,,,,1008,2019_May_08_1649,mf_amp_cond1,3.0.7,59.984994042421704,
support,&&&&&&&,images/symbols/symbol_10.png,condition_files/AMP_rep1.csv,left,loyalty.virtue,,,,,,,,,,,,,,0,2,2,0,0,44,44,44,,,,,,,,,,,,,,,,,,,,,1129.3218913027085,,,,,,,,,,,,,,AMP_prac,left,1.398419103701599,3,,,left,0.8159640638623387,,,,,,,,,,,,,,,,,,,,,,,,,1008,2019_May_08_1649,mf_amp_cond1,3.0.7,59.984994042421704,
promises,&&&&&&&&,images/symbols/symbol_73.png,condition_files/AMP_rep1.csv,left,fairness.virtue,,,,,,,,,,,,,,0,2,2,0,0,45,45,45,,,,,,,,,,,,,,,,,,,,,1129.9553922446212,,,,,,,,,,,,,,AMP_prac,left,1.398419103701599,3,,,left,0.4003504836000502,,,,,,,,,,,,,,,,,,,,,,,,,1008,2019_May_08_1649,mf_amp_cond1,3.0.7,59.984994042421704,
hate,&&&&,images/symbols/symbol_54.png,condition_files/AMP_rep1.csv,right,fairness.vice,,,,,,,,,,,,,,0,2,2,0,0,46,46,46,,,,,,,,,,,,,,,,,,,,,1130.6055680958088,,,,,,,,,,,,,,AMP_prac,left,1.398419103701599,3,,,left,0.4318847021786496,,,,,,,,,,,,,,,,,,,,,,,,,1008,2019_May_08_1649,mf_amp_cond1,3.0.7,59.984994042421704,
prison,&&&&&&,images/symbols/symbol_2.png,condition_files/AMP_rep1.csv,right,fairness.vice,,,,,,,,,,,,,,0,2,2,0,0,47,47,47,,,,,,,,,,,,,,,,,,,,,1131.3224342827452,,,,,,,,,,,,,,AMP_prac,left,1.398419103701599,3,,,left,0.49927132262382656,,,,,,,,,,,,,,,,,,,,,,,,,1008,2019_May_08_1649,mf_amp_cond1,3.0.7,59.984994042421704,
riot,&&&&,images/symbols/symbol_43.png,condition_files/AMP_rep1.csv,right,authority.vice,,,,,,,,,,,,,,0,2,2,0,0,48,48,48,,,,,,,,,,,,,,,,,,,,,1132.1559324664995,,,,,,,,,,,,,,AMP_prac,left,1.398419103701599,3,,,left,0.6003855704329908,,,,,,,,,,,,,,,,,,,,,,,,,1008,2019_May_08_1649,mf_amp_cond1,3.0.7,59.984994042421704,
credit,&&&&&&,images/symbols/symbol_37.png,condition_files/AMP_rep1.csv,left,fairness.virtue,,,,,,,,,,,,,,0,2,2,0,0,49,49,49,,,,,,,,,,,,,,,,,,,,,1132.7894882516703,,,,,,,,,,,,,,AMP_prac,left,1.398419103701599,3,,,left,0.4151841354323551,,,,,,,,,,,,,,,,,,,,,,,,,1008,2019_May_08_1649,mf_amp_cond1,3.0.7,59.984994042421704,
violations,&&&&&&&&&&,images/symbols/symbol_57.png,condition_files/AMP_rep1.csv,right,sanctity.vice,,,,,,,,,,,,,,0,2,2,0,0,50,50,50,,,,,,,,,,,,,,,,,,,,,1133.4562790372875,,,,,,,,,,,,,,AMP_prac,left,1.398419103701599,3,,,left,0.4491122131003067,,,,,,,,,,,,,,,,,,,,,,,,,1008,2019_May_08_1649,mf_amp_cond1,3.0.7,59.984994042421704,
injured,&&&&&&&,images/symbols/symbol_68.png,condition_files/AMP_rep1.csv,right,care.vice,,,,,,,,,,,,,,0,2,2,0,0,51,51,51,,,,,,,,,,,,,,,,,,,,,1134.0564041824546,,,,,,,,,,,,,,AMP_prac,left,1.398419103701599,3,,,left,0.3670041930163279,,,,,,,,,,,,,,,,,,,,,,,,,1008,2019_May_08_1649,mf_amp_cond1,3.0.7,59.984994042421704,
health,&&&&&&,images/symbols/symbol_32.png,condition_files/AMP_rep1.csv,left,care.virtue,,,,,,,,,,,,,,0,2,2,0,0,52,52,52,,,,,,,,,,,,,,,,,,,,,1134.706575222779,,,,,,,,,,,,,,AMP_prac,left,1.398419103701599,3,,,left,0.43179939058609307,,,,,,,,,,,,,,,,,,,,,,,,,1008,2019_May_08_1649,mf_amp_cond1,3.0.7,59.984994042421704,
progress,&&&&&&&&,images/symbols/symbol_28.png,condition_files/AMP_rep1.csv,left,authority.virtue,,,,,,,,,,,,,,0,2,2,0,0,53,53,53,,,,,,,,,,,,,,,,,,,,,1135.3400626945077,,,,,,,,,,,,,,AMP_prac,left,1.398419103701599,3,,,left,0.415734171285294,,,,,,,,,,,,,,,,,,,,,,,,,1008,2019_May_08_1649,mf_amp_cond1,3.0.7,59.984994042421704,
rhaps,&&&&&,images/symbols/symbol_18.png,condition_files/AMP_rep1.csv,None,nonword,,,,,,,,,,,,,,0,2,2,0,0,54,54,54,,,,,,,,,,,,,,,,,,,,,1135.973561070743,,,,,,,,,,,,,,AMP_prac,left,1.398419103701599,3,,,left,0.4158515550661832,,,,,,,,,,,,,,,,,,,,,,,,,1008,2019_May_08_1649,mf_amp_cond1,3.0.7,59.984994042421704,
agreement,&&&&&&&&&,images/symbols/symbol_52.png,condition_files/AMP_rep1.csv,left,fairness.virtue,,,,,,,,,,,,,,0,2,2,0,0,55,55,55,,,,,,,,,,,,,,,,,,,,,1136.5737266266951,,,,,,,,,,,,,,AMP_prac,left,1.398419103701599,3,,,left,0.3828125150175765,,,,,,,,,,,,,,,,,,,,,,,,,1008,2019_May_08_1649,mf_amp_cond1,3.0.7,59.984994042421704,
voter,&&&&&,images/symbols/symbol_33.png,condition_files/AMP_rep1.csv,right,fairness.vice,,,,,,,,,,,,,,0,2,2,0,0,56,56,56,,,,,,,,,,,,,,,,,,,,,1137.1905253982404,,,,,,,,,,,,,,AMP_prac,left,1.398419103701599,3,,,left,0.39914649818092585,,,,,,,,,,,,,,,,,,,,,,,,,1008,2019_May_08_1649,mf_amp_cond1,3.0.7,59.984994042421704,
torture,&&&&&&&,images/symbols/symbol_81.png,condition_files/AMP_rep1.csv,right,care.vice,,,,,,,,,,,,,,0,2,2,0,0,57,57,57,,,,,,,,,,,,,,,,,,,,,1137.8573681404814,,,,,,,,,,,,,,AMP_prac,left,1.398419103701599,3,,,left,0.4490916869835928,,,,,,,,,,,,,,,,,,,,,,,,,1008,2019_May_08_1649,mf_amp_cond1,3.0.7,59.984994042421704,
values,&&&&&&,images/symbols/symbol_50.png,condition_files/AMP_rep1.csv,left,sanctity.virtue,,,,,,,,,,,,,,0,2,2,0,0,58,58,58,,,,,,,,,,,,,,,,,,,,,1138.5909339322243,,,,,,,,,,,,,,AMP_prac,left,1.398419103701599,3,,,left,0.5157262175343931,,,,,,,,,,,,,,,,,,,,,,,,,1008,2019_May_08_1649,mf_amp_cond1,3.0.7,59.984994042421704,
encourage,&&&&&&&&&,images/symbols/symbol_17.png,condition_files/AMP_rep1.csv,left,authority.virtue,,,,,,,,,,,,,,0,2,2,0,0,59,59,59,,,,,,,,,,,,,,,,,,,,,1139.6744851951953,,,,,,,,,,,,,,AMP_prac,left,1.398419103701599,3,,,left,0.8653117500944063,,,,,,,,,,,,,,,,,,,,,,,,,1008,2019_May_08_1649,mf_amp_cond1,3.0.7,59.984994042421704,
fighters,&&&&&&&&,images/symbols/symbol_69.png,condition_files/AMP_rep1.csv,right,authority.vice,,,,,,,,,,,,,,0,2,2,0,0,60,60,60,,,,,,,,,,,,,,,,,,,,,1140.3080278309062,,,,,,,,,,,,,,AMP_prac,left,1.398419103701599,3,,,left,0.4157123622717336,,,,,,,,,,,,,,,,,,,,,,,,,1008,2019_May_08_1649,mf_amp_cond1,3.0.7,59.984994042421704,
sexual,&&&&&&,images/symbols/symbol_49.png,condition_files/AMP_rep1.csv,right,sanctity.vice,,,,,,,,,,,,,,0,2,2,0,0,61,61,61,,,,,,,,,,,,,,,,,,,,,1141.0081613790244,,,,,,,,,,,,,,AMP_prac,left,1.398419103701599,3,,,left,0.4829350943909958,,,,,,,,,,,,,,,,,,,,,,,,,1008,2019_May_08_1649,mf_amp_cond1,3.0.7,59.984994042421704,
threatened,&&&&&&&&&&,images/symbols/symbol_8.png,condition_files/AMP_rep1.csv,right,fairness.vice,,,,,,,,,,,,,,0,2,2,0,0,62,62,62,,,,,,,,,,,,,,,,,,,,,1141.658319911221,,,,,,,,,,,,,,AMP_prac,left,1.398419103701599,3,,,left,0.4324783560587093,,,,,,,,,,,,,,,,,,,,,,,,,1008,2019_May_08_1649,mf_amp_cond1,3.0.7,59.984994042421704,
integrity,&&&&&&&&&,images/symbols/symbol_63.png,condition_files/AMP_rep1.csv,left,fairness.virtue,,,,,,,,,,,,,,0,2,2,0,0,63,63,63,,,,,,,,,,,,,,,,,,,,,1142.6252115954412,,,,,,,,,,,,,,AMP_prac,left,1.398419103701599,3,,,right,0.7492769352393225,,,,,,,,,,,,,,,,,,,,,,,,,1008,2019_May_08_1649,mf_amp_cond1,3.0.7,59.984994042421704,
serial,&&&&&&,images/symbols/symbol_26.png,condition_files/AMP_rep1.csv,right,sanctity.vice,,,,,,,,,,,,,,0,2,2,0,0,64,64,64,,,,,,,,,,,,,,,,,,,,,1143.3754000188783,,,,,,,,,,,,,,AMP_prac,left,1.398419103701599,3,,,left,0.532290157279931,,,,,,,,,,,,,,,,,,,,,,,,,1008,2019_May_08_1649,mf_amp_cond1,3.0.7,59.984994042421704,
promised,&&&&&&&&,images/symbols/symbol_4.png,condition_files/AMP_rep1.csv,left,loyalty.virtue,,,,,,,,,,,,,,0,2,2,0,0,65,65,65,,,,,,,,,,,,,,,,,,,,,1145.7259849171387,,,,,,,,,,,,,,AMP_prac,left,1.398419103701599,3,,,left,2.132696895278059,,,,,,,,,,,,,,,,,,,,,,,,,1008,2019_May_08_1649,mf_amp_cond1,3.0.7,59.984994042421704,
killed,&&&&&&,images/symbols/symbol_30.png,condition_files/AMP_rep1.csv,right,care.vice,,,,,,,,,,,,,,0,2,2,0,0,66,66,66,,,,,,,,,,,,,,,,,,,,,1146.52620480326,,,,,,,,,,,,,,AMP_prac,left,1.398419103701599,3,,,right,0.5821875587571412,,,,,,,,,,,,,,,,,,,,,,,,,1008,2019_May_08_1649,mf_amp_cond1,3.0.7,59.984994042421704,
terrorist,&&&&&&&&&,images/symbols/symbol_14.png,condition_files/AMP_rep1.csv,right,loyalty.vice,,,,,,,,,,,,,,0,2,2,0,0,67,67,67,,,,,,,,,,,,,,,,,,,,,1147.459628964658,,,,,,,,,,,,,,AMP_prac,left,1.398419103701599,3,,,right,0.7156650881515816,,,,,,,,,,,,,,,,,,,,,,,,,1008,2019_May_08_1649,mf_amp_cond1,3.0.7,59.984994042421704,
fourz,&&&&&,images/symbols/symbol_71.png,condition_files/AMP_rep1.csv,None,nonword,,,,,,,,,,,,,,0,2,2,0,0,68,68,68,,,,,,,,,,,,,,,,,,,,,1148.6100463184994,,,,,,,,,,,,,,AMP_prac,left,1.398419103701599,3,,,right,0.917144700884819,,,,,,,,,,,,,,,,,,,,,,,,,1008,2019_May_08_1649,mf_amp_cond1,3.0.7,59.984994042421704,
police,&&&&&&,images/symbols/symbol_53.png,condition_files/AMP_rep1.csv,right,authority.vice,,,,,,,,,,,,,,0,2,2,0,0,69,69,69,,,,,,,,,,,,,,,,,,,,,1149.5436253880616,,,,,,,,,,,,,,AMP_prac,left,1.398419103701599,3,,,right,0.7153071637731045,,,,,,,,,,,,,,,,,,,,,,,,,1008,2019_May_08_1649,mf_amp_cond1,3.0.7,59.984994042421704,
suicide,&&&&&&&,images/symbols/symbol_9.png,condition_files/AMP_rep1.csv,right,care.vice,,,,,,,,,,,,,,0,2,2,0,0,70,70,70,,,,,,,,,,,,,,,,,,,,,1150.6272144961404,,,,,,,,,,,,,,AMP_prac,left,1.398419103701599,3,,,right,0.8656562040559947,,,,,,,,,,,,,,,,,,,,,,,,,1008,2019_May_08_1649,mf_amp_cond1,3.0.7,59.984994042421704,
feuld,&&&&&,images/symbols/symbol_72.png,condition_files/AMP_rep1.csv,None,nonword,,,,,,,,,,,,,,0,2,2,0,0,71,71,71,,,,,,,,,,,,,,,,,,,,,1151.3107170737348,,,,,,,,,,,,,,AMP_prac,left,1.398419103701599,3,,,left,0.4655228484189138,,,,,,,,,,,,,,,,,,,,,,,,,1008,2019_May_08_1649,mf_amp_cond1,3.0.7,59.984994042421704,
crime,&&&&&,images/symbols/symbol_82.png,condition_files/AMP_rep1.csv,right,fairness.vice,,,,,,,,,,,,,,0,2,2,0,0,72,72,72,,,,,,,,,,,,,,,,,,,,,1151.9108816675143,,,,,,,,,,,,,,AMP_prac,left,1.398419103701599,3,,,left,0.38265696552116424,,,,,,,,,,,,,,,,,,,,,,,,,1008,2019_May_08_1649,mf_amp_cond1,3.0.7,59.984994042421704,
praise,&&&&&&,images/symbols/symbol_59.png,condition_files/AMP_rep1.csv,left,authority.virtue,,,,,,,,,,,,,,0,2,2,0,0,73,73,73,,,,,,,,,,,,,,,,,,,,,1152.4776746340794,,,,,,,,,,,,,,AMP_prac,left,1.398419103701599,3,,,left,0.3486567256040871,,,,,,,,,,,,,,,,,,,,,,,,,1008,2019_May_08_1649,mf_amp_cond1,3.0.7,59.984994042421704,
ensure,&&&&&&,images/symbols/symbol_6.png,condition_files/AMP_rep1.csv,left,fairness.virtue,,,,,,,,,,,,,,0,2,2,0,0,74,74,74,,,,,,,,,,,,,,,,,,,,,1153.3112193222623,,,,,,,,,,,,,,AMP_prac,left,1.398419103701599,3,,,right,0.600392946973443,,,,,,,,,,,,,,,,,,,,,,,,,1008,2019_May_08_1649,mf_amp_cond1,3.0.7,59.984994042421704,
refused,&&&&&&&,images/symbols/symbol_31.png,condition_files/AMP_rep1.csv,right,authority.vice,,,,,,,,,,,,,,0,2,2,0,0,75,75,75,,,,,,,,,,,,,,,,,,,,,1153.8780507752672,,,,,,,,,,,,,,AMP_prac,left,1.398419103701599,3,,,left,0.3494117020163685,,,,,,,,,,,,,,,,,,,,,,,,,1008,2019_May_08_1649,mf_amp_cond1,3.0.7,59.984994042421704,
prosecution,&&&&&&&&&&&,images/symbols/symbol_56.png,condition_files/AMP_rep1.csv,right,authority.vice,,,,,,,,,,,,,,0,2,2,0,0,76,76,76,,,,,,,,,,,,,,,,,,,,,1154.54487010499,,,,,,,,,,,,,,AMP_prac,left,1.398419103701599,3,,,left,0.4336913217557594,,,,,,,,,,,,,,,,,,,,,,,,,1008,2019_May_08_1649,mf_amp_cond1,3.0.7,59.984994042421704,
jogns,&&&&&,images/symbols/symbol_47.png,condition_files/AMP_rep1.csv,None,nonword,,,,,,,,,,,,,,0,2,2,0,0,77,77,77,,,,,,,,,,,,,,,,,,,,,1155.1783556522569,,,,,,,,,,,,,,AMP_prac,left,1.398419103701599,3,,,left,0.4151299335062504,,,,,,,,,,,,,,,,,,,,,,,,,1008,2019_May_08_1649,mf_amp_cond1,3.0.7,59.984994042421704,
celebrated,&&&&&&&&&&,images/symbols/symbol_76.png,condition_files/AMP_rep1.csv,left,authority.virtue,,,,,,,,,,,,,,0,2,2,0,0,78,78,78,,,,,,,,,,,,,,,,,,,,,1155.8952503834153,,,,,,,,,,,,,,AMP_prac,left,1.398419103701599,3,,,left,0.49953431356698275,,,,,,,,,,,,,,,,,,,,,,,,,1008,2019_May_08_1649,mf_amp_cond1,3.0.7,59.984994042421704,
pleasant,&&&&&&&,images/symbols/symbol_7.png,condition_files/AMP_rep1.csv,right,control,,,,,,,,,,,,,,0,2,2,0,0,79,79,79,,,,,,,,,,,,,,,,,,,,,1156.6954118984286,,,,,,,,,,,,,,AMP_prac,left,1.398419103701599,3,,,right,0.5825611982727423,,,,,,,,,,,,,,,,,,,,,,,,,1008,2019_May_08_1649,mf_amp_cond1,3.0.7,59.984994042421704,
failure,&&&&&&&,images/symbols/symbol_24.png,condition_files/AMP_rep1.csv,right,loyalty.vice,,,,,,,,,,,,,,0,2,2,0,0,80,80,80,,,,,,,,,,,,,,,,,,,,,1157.4956186349737,,,,,,,,,,,,,,AMP_prac,left,1.398419103701599,3,,,right,0.5820313678123057,,,,,,,,,,,,,,,,,,,,,,,,,1008,2019_May_08_1649,mf_amp_cond1,3.0.7,59.984994042421704,
phlux,&&&&&,images/symbols/symbol_38.png,condition_files/AMP_rep1.csv,None,nonword,,,,,,,,,,,,,,0,2,2,0,0,81,81,81,,,,,,,,,,,,,,,,,,,,,1158.329151135753,,,,,,,,,,,,,,AMP_prac,left,1.398419103701599,3,,,right,0.6158253842731938,,,,,,,,,,,,,,,,,,,,,,,,,1008,2019_May_08_1649,mf_amp_cond1,3.0.7,59.984994042421704,
,,,condition_files/AMP_rep1.csv,,,,,,,,,,,,,,,,0,2,2,0,,,,,,,,,,,,,,,,,,,,,,,,,,,,,,,,,,,,,,,,,,,,,,,right,0.800427713082172,,,,,,,,,,,,,,,,,,,,,,,1008,2019_May_08_1649,mf_amp_cond1,3.0.7,59.984994042421704,
drug,&&&&,images/symbols/symbol_64.png,condition_files/AMP_rep2.csv,right,sanctity.vice,,,,,,,,,,,,,,0,3,3,1,0,0,0,0,,,,,,,,,,,,,,,,,,,,,1159.8296447249595,,,,,,,,,,,,,,AMP_prac,left,1.398419103701599,3,,,left,0.4336839452153072,,,,,,,,,,,,,,,,,,,,,,,,,1008,2019_May_08_1649,mf_amp_cond1,3.0.7,59.984994042421704,
men,&&&,images/symbols/symbol_11.png,condition_files/AMP_rep2.csv,right,loyalty.vice,,,,,,,,,,,,,,0,3,3,1,0,1,1,1,,,,,,,,,,,,,,,,,,,,,1160.2962942650774,,,,,,,,,,,,,,AMP_prac,left,1.398419103701599,3,,,left,0.2484581352910027,,,,,,,,,,,,,,,,,,,,,,,,,1008,2019_May_08_1649,mf_amp_cond1,3.0.7,59.984994042421704,
trust,&&&&&,images/symbols/symbol_75.png,condition_files/AMP_rep2.csv,left,authority.virtue,,,,,,,,,,,,,,0,3,3,1,0,2,2,2,,,,,,,,,,,,,,,,,,,,,1160.5630687579978,,,,,,,,,,,,,,AMP_prac,left,1.398419103701599,3,,,left,0.04897244309540838,,,,,,,,,,,,,,,,,,,,,,,,,1008,2019_May_08_1649,mf_amp_cond1,3.0.7,59.984994042421704,
terrorists,&&&&&&&&&&,images/symbols/symbol_12.png,condition_files/AMP_rep2.csv,right,fairness.vice,,,,,,,,,,,,,,0,3,3,1,0,3,3,3,,,,,,,,,,,,,,,,,,,,,1161.079831223935,,,,,,,,,,,,,,AMP_prac,left,1.398419103701599,3,,,left,0.2990104485070333,,,,,,,,,,,,,,,,,,,,,,,,,1008,2019_May_08_1649,mf_amp_cond1,3.0.7,59.984994042421704,
critics,&&&&&&&,images/symbols/symbol_74.png,condition_files/AMP_rep2.csv,right,loyalty.vice,,,,,,,,,,,,,,0,3,3,1,0,4,4,4,,,,,,,,,,,,,,,,,,,,,1161.429904572782,,,,,,,,,,,,,,AMP_prac,left,1.398419103701599,3,,,left,0.11693860567174852,,,,,,,,,,,,,,,,,,,,,,,,,1008,2019_May_08_1649,mf_amp_cond1,3.0.7,59.984994042421704,
unpleasant,&&&&&&&&&,images/symbols/symbol_61.png,condition_files/AMP_rep2.csv,left,control,,,,,,,,,,,,,,0,3,3,1,0,5,5,5,,,,,,,,,,,,,,,,,,,,,1161.7800003720913,,,,,,,,,,,,,,AMP_prac,left,1.398419103701599,3,,,left,0.1316458935616538,,,,,,,,,,,,,,,,,,,,,,,,,1008,2019_May_08_1649,mf_amp_cond1,3.0.7,59.984994042421704,
improve,&&&&&&&,images/symbols/symbol_40.png,condition_files/AMP_rep2.csv,left,care.virtue,,,,,,,,,,,,,,0,3,3,1,0,6,6,6,,,,,,,,,,,,,,,,,,,,,1162.9302936069435,,,,,,,,,,,,,,AMP_prac,left,1.398419103701599,3,,,left,0.9324013831792399,,,,,,,,,,,,,,,,,,,,,,,,,1008,2019_May_08_1649,mf_amp_cond1,3.0.7,59.984994042421704,
freedom,&&&&&&&,images/symbols/symbol_65.png,condition_files/AMP_rep2.csv,left,sanctity.virtue,,,,,,,,,,,,,,0,3,3,1,0,7,7,7,,,,,,,,,,,,,,,,,,,,,1163.4470923143672,,,,,,,,,,,,,,AMP_prac,left,1.398419103701599,3,,,left,0.2988994790939614,,,,,,,,,,,,,,,,,,,,,,,,,1008,2019_May_08_1649,mf_amp_cond1,3.0.7,59.984994042421704,
loyalty,&&&&&&&,images/symbols/symbol_67.png,condition_files/AMP_rep2.csv,left,loyalty.virtue,,,,,,,,,,,,,,0,3,3,1,0,8,8,8,,,,,,,,,,,,,,,,,,,,,1163.8971894605784,,,,,,,,,,,,,,AMP_prac,left,1.398419103701599,3,,,left,0.23227713606320322,,,,,,,,,,,,,,,,,,,,,,,,,1008,2019_May_08_1649,mf_amp_cond1,3.0.7,59.984994042421704,
embrace,&&&&&&&,images/symbols/symbol_77.png,condition_files/AMP_rep2.csv,left,authority.virtue,,,,,,,,,,,,,,0,3,3,1,0,9,9,9,,,,,,,,,,,,,,,,,,,,,1164.7474058509106,,,,,,,,,,,,,,AMP_prac,left,1.398419103701599,3,,,right,0.6324781638104469,,,,,,,,,,,,,,,,,,,,,,,,,1008,2019_May_08_1649,mf_amp_cond1,3.0.7,59.984994042421704,
safety,&&&&&&,images/symbols/symbol_22.png,condition_files/AMP_rep2.csv,left,care.virtue,,,,,,,,,,,,,,0,3,3,1,0,10,10,10,,,,,,,,,,,,,,,,,,,,,1165.2141904144082,,,,,,,,,,,,,,AMP_prac,left,1.398419103701599,3,,,left,0.24905756232328713,,,,,,,,,,,,,,,,,,,,,,,,,1008,2019_May_08_1649,mf_amp_cond1,3.0.7,59.984994042421704,
death,&&&&&,images/symbols/symbol_15.png,condition_files/AMP_rep2.csv,right,care.vice,,,,,,,,,,,,,,0,3,3,1,0,11,11,11,,,,,,,,,,,,,,,,,,,,,1166.264473642921,,,,,,,,,,,,,,AMP_prac,left,1.398419103701599,3,,,left,0.8320661658653989,,,,,,,,,,,,,,,,,,,,,,,,,1008,2019_May_08_1649,mf_amp_cond1,3.0.7,59.984994042421704,
slypped,&&&&&&&,images/symbols/symbol_3.png,condition_files/AMP_rep2.csv,None,nonword,,,,,,,,,,,,,,0,3,3,1,0,12,12,12,,,,,,,,,,,,,,,,,,,,,1167.0479913585586,,,,,,,,,,,,,,AMP_prac,left,1.398419103701599,3,,,left,0.5657743575284258,,,,,,,,,,,,,,,,,,,,,,,,,1008,2019_May_08_1649,mf_amp_cond1,3.0.7,59.984994042421704,
frord,&&&&&,images/symbols/symbol_60.png,condition_files/AMP_rep2.csv,None,nonword,,,,,,,,,,,,,,0,3,3,1,0,13,13,13,,,,,,,,,,,,,,,,,,,,,1167.4981148039224,,,,,,,,,,,,,,AMP_prac,left,1.398419103701599,3,,,right,0.23216841171961278,,,,,,,,,,,,,,,,,,,,,,,,,1008,2019_May_08_1649,mf_amp_cond1,3.0.7,59.984994042421704,
energy,&&&&&&,images/symbols/symbol_70.png,condition_files/AMP_rep2.csv,left,sanctity.virtue,,,,,,,,,,,,,,0,3,3,1,0,14,14,14,,,,,,,,,,,,,,,,,,,,,1168.0982896608766,,,,,,,,,,,,,,AMP_prac,left,1.398419103701599,3,,,left,0.3825068682199344,,,,,,,,,,,,,,,,,,,,,,,,,1008,2019_May_08_1649,mf_amp_cond1,3.0.7,59.984994042421704,
sharing,&&&&&&&,images/symbols/symbol_35.png,condition_files/AMP_rep2.csv,left,loyalty.virtue,,,,,,,,,,,,,,0,3,3,1,0,15,15,15,,,,,,,,,,,,,,,,,,,,,1169.0318093970418,,,,,,,,,,,,,,AMP_prac,left,1.398419103701599,3,,,right,0.7157462304458022,,,,,,,,,,,,,,,,,,,,,,,,,1008,2019_May_08_1649,mf_amp_cond1,3.0.7,59.984994042421704,
powerful,&&&&&&&&,images/symbols/symbol_46.png,condition_files/AMP_rep2.csv,left,authority.virtue,,,,,,,,,,,,,,0,3,3,1,0,16,16,16,,,,,,,,,,,,,,,,,,,,,1169.2650817292742,,,,,,,,,,,,,,AMP_prac,left,1.398419103701599,3,,,right,0.015489846235141158,,,,,,,,,,,,,,,,,,,,,,,,,1008,2019_May_08_1649,mf_amp_cond1,3.0.7,59.984994042421704,
restore,&&&&&&&,images/symbols/symbol_5.png,condition_files/AMP_rep2.csv,left,care.virtue,,,,,,,,,,,,,,0,3,3,1,0,17,17,17,,,,,,,,,,,,,,,,,,,,,1170.0487370340852,,,,,,,,,,,,,,AMP_prac,left,1.398419103701599,3,,,left,0.5658099575666711,,,,,,,,,,,,,,,,,,,,,,,,,1008,2019_May_08_1649,mf_amp_cond1,3.0.7,59.984994042421704,
dignity,&&&&&&&,images/symbols/symbol_19.png,condition_files/AMP_rep2.csv,left,sanctity.virtue,,,,,,,,,,,,,,0,3,3,1,0,18,18,18,,,,,,,,,,,,,,,,,,,,,1170.8489511471707,,,,,,,,,,,,,,AMP_prac,left,1.398419103701599,3,,,left,0.5824197605252266,,,,,,,,,,,,,,,,,,,,,,,,,1008,2019_May_08_1649,mf_amp_cond1,3.0.7,59.984994042421704,
safe,&&&&,images/symbols/symbol_58.png,condition_files/AMP_rep2.csv,left,care.virtue,,,,,,,,,,,,,,0,3,3,1,0,19,19,19,,,,,,,,,,,,,,,,,,,,,1171.6158035752596,,,,,,,,,,,,,,AMP_prac,left,1.398419103701599,3,,,left,0.5490446052281186,,,,,,,,,,,,,,,,,,,,,,,,,1008,2019_May_08_1649,mf_amp_cond1,3.0.7,59.984994042421704,
benefit,&&&&&&&,images/symbols/symbol_51.png,condition_files/AMP_rep2.csv,left,fairness.virtue,,,,,,,,,,,,,,0,3,3,1,0,20,20,20,,,,,,,,,,,,,,,,,,,,,1172.3826524754986,,,,,,,,,,,,,,AMP_prac,left,1.398419103701599,3,,,left,0.549496500636451,,,,,,,,,,,,,,,,,,,,,,,,,1008,2019_May_08_1649,mf_amp_cond1,3.0.7,59.984994042421704,
intelligence,&&&&&&&&&&&&,images/symbols/symbol_45.png,condition_files/AMP_rep2.csv,left,loyalty.virtue,,,,,,,,,,,,,,0,3,3,1,0,21,21,21,,,,,,,,,,,,,,,,,,,,,1173.1328537276713,,,,,,,,,,,,,,AMP_prac,left,1.398419103701599,3,,,left,0.5321884888689965,,,,,,,,,,,,,,,,,,,,,,,,,1008,2019_May_08_1649,mf_amp_cond1,3.0.7,59.984994042421704,
respect,&&&&&&&,images/symbols/symbol_62.png,condition_files/AMP_rep2.csv,left,sanctity.virtue,,,,,,,,,,,,,,0,3,3,1,0,22,22,22,,,,,,,,,,,,,,,,,,,,,1173.7329907395178,,,,,,,,,,,,,,AMP_prac,left,1.398419103701599,3,,,left,0.36700323096010834,,,,,,,,,,,,,,,,,,,,,,,,,1008,2019_May_08_1649,mf_amp_cond1,3.0.7,59.984994042421704,
strength,&&&&&&&&,images/symbols/symbol_80.png,condition_files/AMP_rep2.csv,left,sanctity.virtue,,,,,,,,,,,,,,0,3,3,1,0,23,23,23,,,,,,,,,,,,,,,,,,,,,1174.2831309265457,,,,,,,,,,,,,,AMP_prac,left,1.398419103701599,3,,,left,0.3320036253426224,,,,,,,,,,,,,,,,,,,,,,,,,1008,2019_May_08_1649,mf_amp_cond1,3.0.7,59.984994042421704,
abuse,&&&&&,images/symbols/symbol_55.png,condition_files/AMP_rep2.csv,right,sanctity.vice,,,,,,,,,,,,,,0,3,3,1,0,24,24,24,,,,,,,,,,,,,,,,,,,,,1175.0500205581775,,,,,,,,,,,,,,AMP_prac,left,1.398419103701599,3,,,right,0.548940371023491,,,,,,,,,,,,,,,,,,,,,,,,,1008,2019_May_08_1649,mf_amp_cond1,3.0.7,59.984994042421704,
love,&&&&,images/symbols/symbol_41.png,condition_files/AMP_rep2.csv,left,loyalty.virtue,,,,,,,,,,,,,,0,3,3,1,0,25,25,25,,,,,,,,,,,,,,,,,,,,,1175.950231848983,,,,,,,,,,,,,,AMP_prac,left,1.398419103701599,3,,,left,0.6828390066511929,,,,,,,,,,,,,,,,,,,,,,,,,1008,2019_May_08_1649,mf_amp_cond1,3.0.7,59.984994042421704,
help,&&&&,images/symbols/symbol_39.png,condition_files/AMP_rep2.csv,left,care.virtue,,,,,,,,,,,,,,0,3,3,1,0,26,26,26,,,,,,,,,,,,,,,,,,,,,1176.5503624464618,,,,,,,,,,,,,,AMP_prac,left,1.398419103701599,3,,,left,0.3822721007745713,,,,,,,,,,,,,,,,,,,,,,,,,1008,2019_May_08_1649,mf_amp_cond1,3.0.7,59.984994042421704,
ban,&&&,images/symbols/symbol_78.png,condition_files/AMP_rep2.csv,right,loyalty.vice,,,,,,,,,,,,,,0,3,3,1,0,27,27,27,,,,,,,,,,,,,,,,,,,,,1177.333897480974,,,,,,,,,,,,,,AMP_prac,left,1.398419103701599,3,,,left,0.5656624260591343,,,,,,,,,,,,,,,,,,,,,,,,,1008,2019_May_08_1649,mf_amp_cond1,3.0.7,59.984994042421704,
hand,&&&&,images/symbols/symbol_1.png,condition_files/AMP_rep2.csv,left,sanctity.virtue,,,,,,,,,,,,,,0,3,3,1,0,28,28,28,,,,,,,,,,,,,,,,,,,,,1178.000934259384,,,,,,,,,,,,,,AMP_prac,left,1.398419103701599,3,,,left,0.448896368034184,,,,,,,,,,,,,,,,,,,,,,,,,1008,2019_May_08_1649,mf_amp_cond1,3.0.7,59.984994042421704,
betrayal,&&&&&&&&,images/symbols/symbol_29.png,condition_files/AMP_rep2.csv,right,loyalty.vice,,,,,,,,,,,,,,0,3,3,1,0,29,29,29,,,,,,,,,,,,,,,,,,,,,1178.6509285825305,,,,,,,,,,,,,,AMP_prac,left,1.398419103701599,3,,,left,0.4317977868486196,,,,,,,,,,,,,,,,,,,,,,,,,1008,2019_May_08_1649,mf_amp_cond1,3.0.7,59.984994042421704,
corruption,&&&&&&&&&&,images/symbols/symbol_44.png,condition_files/AMP_rep2.csv,right,sanctity.vice,,,,,,,,,,,,,,0,3,3,1,0,30,30,30,,,,,,,,,,,,,,,,,,,,,1179.4010849338956,,,,,,,,,,,,,,AMP_prac,left,1.398419103701599,3,,,right,0.5323231915244833,,,,,,,,,,,,,,,,,,,,,,,,,1008,2019_May_08_1649,mf_amp_cond1,3.0.7,59.984994042421704,
victims,&&&&&&&,images/symbols/symbol_13.png,condition_files/AMP_rep2.csv,right,care.vice,,,,,,,,,,,,,,0,3,3,1,0,31,31,31,,,,,,,,,,,,,,,,,,,,,1180.2012746722903,,,,,,,,,,,,,,AMP_prac,left,1.398419103701599,3,,,right,0.5822722289012745,,,,,,,,,,,,,,,,,,,,,,,,,1008,2019_May_08_1649,mf_amp_cond1,3.0.7,59.984994042421704,
care,&&&&,images/symbols/symbol_42.png,condition_files/AMP_rep2.csv,left,care.virtue,,,,,,,,,,,,,,0,3,3,1,0,32,32,32,,,,,,,,,,,,,,,,,,,,,1180.9181562538724,,,,,,,,,,,,,,AMP_prac,left,1.398419103701599,3,,,left,0.4991388649214059,,,,,,,,,,,,,,,,,,,,,,,,,1008,2019_May_08_1649,mf_amp_cond1,3.0.7,59.984994042421704,
died,&&&&,images/symbols/symbol_79.png,condition_files/AMP_rep2.csv,right,care.vice,,,,,,,,,,,,,,0,3,3,1,0,33,33,33,,,,,,,,,,,,,,,,,,,,,1181.6516357716173,,,,,,,,,,,,,,AMP_prac,left,1.398419103701599,3,,,left,0.5156579039758071,,,,,,,,,,,,,,,,,,,,,,,,,1008,2019_May_08_1649,mf_amp_cond1,3.0.7,59.984994042421704,
phlaizz,&&&&&&&,images/symbols/symbol_21.png,condition_files/AMP_rep2.csv,None,nonword,,,,,,,,,,,,,,0,3,3,1,0,34,34,34,,,,,,,,,,,,,,,,,,,,,1182.5685351211578,,,,,,,,,,,,,,AMP_prac,left,1.398419103701599,3,,,left,0.6993644599569961,,,,,,,,,,,,,,,,,,,,,,,,,1008,2019_May_08_1649,mf_amp_cond1,3.0.7,59.984994042421704,
rhailled,&&&&&&&&,images/symbols/symbol_66.png,condition_files/AMP_rep2.csv,None,nonword,,,,,,,,,,,,,,0,3,3,1,0,35,35,35,,,,,,,,,,,,,,,,,,,,,1183.2353692040779,,,,,,,,,,,,,,AMP_prac,left,1.398419103701599,3,,,left,0.43369773612357676,,,,,,,,,,,,,,,,,,,,,,,,,1008,2019_May_08_1649,mf_amp_cond1,3.0.7,59.984994042421704,
great,&&&&&,images/symbols/symbol_36.png,condition_files/AMP_rep2.csv,left,loyalty.virtue,,,,,,,,,,,,,,0,3,3,1,0,36,36,36,,,,,,,,,,,,,,,,,,,,,1183.8021907146322,,,,,,,,,,,,,,AMP_prac,left,1.398419103701599,3,,,left,0.3482712192926556,,,,,,,,,,,,,,,,,,,,,,,,,1008,2019_May_08_1649,mf_amp_cond1,3.0.7,59.984994042421704,
thinx,&&&&&,images/symbols/symbol_34.png,condition_files/AMP_rep2.csv,None,nonword,,,,,,,,,,,,,,0,3,3,1,0,37,37,37,,,,,,,,,,,,,,,,,,,,,1184.5356958900811,,,,,,,,,,,,,,AMP_prac,left,1.398419103701599,3,,,left,0.5156255111796781,,,,,,,,,,,,,,,,,,,,,,,,,1008,2019_May_08_1649,mf_amp_cond1,3.0.7,59.984994042421704,
officers,&&&&&&&&,images/symbols/symbol_16.png,condition_files/AMP_rep2.csv,right,authority.vice,,,,,,,,,,,,,,0,3,3,1,0,38,38,38,,,,,,,,,,,,,,,,,,,,,1185.2025437639095,,,,,,,,,,,,,,AMP_prac,left,1.398419103701599,3,,,left,0.4492097122129053,,,,,,,,,,,,,,,,,,,,,,,,,1008,2019_May_08_1649,mf_amp_cond1,3.0.7,59.984994042421704,
opportunity,&&&&&&&&&&&,images/symbols/symbol_48.png,condition_files/AMP_rep2.csv,left,fairness.virtue,,,,,,,,,,,,,,0,3,3,1,0,39,39,39,,,,,,,,,,,,,,,,,,,,,1185.8193425354548,,,,,,,,,,,,,,AMP_prac,left,1.398419103701599,3,,,left,0.3990150026511401,,,,,,,,,,,,,,,,,,,,,,,,,1008,2019_May_08_1649,mf_amp_cond1,3.0.7,59.984994042421704,
gun,&&&,images/symbols/symbol_27.png,condition_files/AMP_rep2.csv,right,authority.vice,,,,,,,,,,,,,,0,3,3,1,0,40,40,40,,,,,,,,,,,,,,,,,,,,,1186.436177227646,,,,,,,,,,,,,,AMP_prac,left,1.398419103701599,3,,,left,0.3989668946014717,,,,,,,,,,,,,,,,,,,,,,,,,1008,2019_May_08_1649,mf_amp_cond1,3.0.7,59.984994042421704,
racist,&&&&&&,images/symbols/symbol_25.png,condition_files/AMP_rep2.csv,right,sanctity.vice,,,,,,,,,,,,,,0,3,3,1,0,41,41,41,,,,,,,,,,,,,,,,,,,,,1187.03631584323,,,,,,,,,,,,,,AMP_prac,left,1.398419103701599,3,,,left,0.3822714592097327,,,,,,,,,,,,,,,,,,,,,,,,,1008,2019_May_08_1649,mf_amp_cond1,3.0.7,59.984994042421704,
lies,&&&&,images/symbols/symbol_23.png,condition_files/AMP_rep2.csv,right,fairness.vice,,,,,,,,,,,,,,0,3,3,1,0,42,42,42,,,,,,,,,,,,,,,,,,,,,1187.7031592269195,,,,,,,,,,,,,,AMP_prac,left,1.398419103701599,3,,,left,0.4489714168012142,,,,,,,,,,,,,,,,,,,,,,,,,1008,2019_May_08_1649,mf_amp_cond1,3.0.7,59.984994042421704,
slavery,&&&&&&&,images/symbols/symbol_20.png,condition_files/AMP_rep2.csv,right,loyalty.vice,,,,,,,,,,,,,,0,3,3,1,0,43,43,43,,,,,,,,,,,,,,,,,,,,,1188.4700078063179,,,,,,,,,,,,,,AMP_prac,left,1.398419103701599,3,,,right,0.5491010519908741,,,,,,,,,,,,,,,,,,,,,,,,,1008,2019_May_08_1649,mf_amp_cond1,3.0.7,59.984994042421704,
support,&&&&&&&,images/symbols/symbol_10.png,condition_files/AMP_rep2.csv,left,loyalty.virtue,,,,,,,,,,,,,,0,3,3,1,0,44,44,44,,,,,,,,,,,,,,,,,,,,,1188.8201007191092,,,,,,,,,,,,,,AMP_prac,left,1.398419103701599,3,,,left,0.13243358361069113,,,,,,,,,,,,,,,,,,,,,,,,,1008,2019_May_08_1649,mf_amp_cond1,3.0.7,59.984994042421704,
promises,&&&&&&&&,images/symbols/symbol_73.png,condition_files/AMP_rep2.csv,left,fairness.virtue,,,,,,,,,,,,,,0,3,3,1,0,45,45,45,,,,,,,,,,,,,,,,,,,,,1189.2702029970242,,,,,,,,,,,,,,AMP_prac,left,1.398419103701599,3,,,right,0.21692519960924983,,,,,,,,,,,,,,,,,,,,,,,,,1008,2019_May_08_1649,mf_amp_cond1,3.0.7,59.984994042421704,
hate,&&&&,images/symbols/symbol_54.png,condition_files/AMP_rep2.csv,right,fairness.vice,,,,,,,,,,,,,,0,3,3,1,0,46,46,46,,,,,,,,,,,,,,,,,,,,,1190.2871553294826,,,,,,,,,,,,,,AMP_prac,left,1.398419103701599,3,,,left,0.798380232299678,,,,,,,,,,,,,,,,,,,,,,,,,1008,2019_May_08_1649,mf_amp_cond1,3.0.7,59.984994042421704,
prison,&&&&&&,images/symbols/symbol_2.png,condition_files/AMP_rep2.csv,right,fairness.vice,,,,,,,,,,,,,,0,3,3,1,0,47,47,47,,,,,,,,,,,,,,,,,,,,,1190.5205283680698,,,,,,,,,,,,,,AMP_prac,left,1.398419103701599,3,,,left,0.01564154715742916,,,,,,,,,,,,,,,,,,,,,,,,,1008,2019_May_08_1649,mf_amp_cond1,3.0.7,59.984994042421704,
riot,&&&&,images/symbols/symbol_43.png,condition_files/AMP_rep2.csv,right,authority.vice,,,,,,,,,,,,,,0,3,3,1,0,48,48,48,,,,,,,,,,,,,,,,,,,,,1191.6708049254958,,,,,,,,,,,,,,AMP_prac,left,1.398419103701599,3,,,right,0.9171321927569807,,,,,,,,,,,,,,,,,,,,,,,,,1008,2019_May_08_1649,mf_amp_cond1,3.0.7,59.984994042421704,
credit,&&&&&&,images/symbols/symbol_37.png,condition_files/AMP_rep2.csv,left,fairness.virtue,,,,,,,,,,,,,,0,3,3,1,0,49,49,49,,,,,,,,,,,,,,,,,,,,,1192.304298490868,,,,,,,,,,,,,,AMP_prac,left,1.398419103701599,3,,,left,0.41512865072581917,,,,,,,,,,,,,,,,,,,,,,,,,1008,2019_May_08_1649,mf_amp_cond1,3.0.7,59.984994042421704,
violations,&&&&&&&&&&,images/symbols/symbol_57.png,condition_files/AMP_rep2.csv,right,sanctity.vice,,,,,,,,,,,,,,0,3,3,1,0,50,50,50,,,,,,,,,,,,,,,,,,,,,1194.3381402947707,,,,,,,,,,,,,,AMP_prac,left,1.398419103701599,3,,,left,1.8160824098158628,,,,,,,,,,,,,,,,,,,,,,,,,1008,2019_May_08_1649,mf_amp_cond1,3.0.7,59.984994042421704,
