words,mask,masks,symbols,conditionfile,corr_ans,category,LDT_trials_cond2.thisRepN,LDT_trials_cond2.thisTrialN,LDT_trials_cond2.thisN,LDT_trials_cond2.thisIndex,LDT_pracs_1.thisRepN,LDT_pracs_1.thisTrialN,LDT_pracs_1.thisN,LDT_pracs_1.thisIndex,LDT_trials_1.thisRepN,LDT_trials_1.thisTrialN,LDT_trials_1.thisN,LDT_trials_1.thisIndex,logo_trials.thisRepN,logo_trials.thisTrialN,logo_trials.thisN,logo_trials.thisIndex,AMP_pracs.thisRepN,AMP_pracs.thisTrialN,AMP_pracs.thisN,AMP_pracs.thisIndex,trials_loop.thisRepN,trials_loop.thisTrialN,trials_loop.thisN,trials_loop.thisIndex,AMP_trials.thisRepN,AMP_trials.thisTrialN,AMP_trials.thisN,AMP_trials.thisIndex,memtask_trials.thisRepN,memtask_trials.thisTrialN,memtask_trials.thisN,memtask_trials.thisIndex,LDT_cond1.thisRepN,LDT_cond1.thisTrialN,LDT_cond1.thisN,LDT_cond1.thisIndex,begin_key.keys,begin_key.rt,key_resp_instr.keys,key_resp_instr.rt,exp_time,key_resp_LDT_instr.keys,key_resp_LDT_instr.rt,resp_LDT_prac.keys,resp_LDT_prac.rt,task,keypress,RT,corr,resp_LDT_ready.keys,resp_LDT_ready.rt,resp_LDT_trial.keys,resp_LDT_trial.rt,LDT_rating.response,LDT_rating.rt,resp_sym_rate.keys,resp_sym_rate.rt,sym_resp_1.keys,sym_resp_1.rt,sym_resp_2.keys,sym_resp_2.rt,sym_resp_trial.keys,sym_resp_trial.rt,symbol_index,resp_AMP_ready1.keys,resp_AMP_ready1.rt,resp_AMP.keys,resp_AMP.rt,prime_dur,resp_AMP_ready.keys,resp_AMP_ready.rt,resp_AMP_trials.keys,resp_AMP_trials.rt,rest_key_resp.keys,rest_key_resp.rt,AMP_nonword_rating.response,AMP_nonword_rating.rt,AMP_word_rating.response,AMP_word_rating.rt,AMP_random_rating.response,AMP_random_rating.rt,key_resp_instr_memtask.keys,key_resp_instr_memtask.rt,resp_memtask.keys,resp_memtask.corr,resp_memtask.rt,participant ID,date,expName,psychopyVersion,frameRate,
,,,,,,,,,,,,,,,,,,,,,,,,,,,,,,,,,,,,,,,,,,,right,648.0600066452753,,,,,,,,,,,,,,,,,,,,,,,,,,,,,,,,,,,,,,,,,,,,,,,,,1009,2019_May_08_1649,mf_amp_cond1,3.0.7,59.98472478399624,
,,,,,,,,,,,,,,,,,,,,,,,,,,,,,,,,,,,,,,,,,,,,,right,0.03358255384955555,,,,,,,,,,,,,,,,,,,,,,,,,,,,,,,,,,,,,,,,,,,,,,,1009,2019_May_08_1649,mf_amp_cond1,3.0.7,59.98472478399624,
bisebell,&&&&&&&,,,,,,0,0,0,0,0,0,0,1,,,,,,,,,,,,,,,,,,,,,,,,,,,,,,,,,748.7777005556272,right,2.7342494582990184,right,2.6342221329687163,LDT_prac,right,2.6342221329687163,0,,,,,,,,,,,,,,,,,,,,,,,,,,,,,,,,,,,,,,1009,2019_May_08_1649,mf_amp_cond1,3.0.7,59.98472478399624,
keyboard,&&&&&&&,,,,,,0,0,0,0,0,1,1,0,,,,,,,,,,,,,,,,,,,,,,,,,,,,,,,,,752.4451649589464,,,right,2.08409461483825,LDT_prac,right,2.08409461483825,0,,,,,,,,,,,,,,,,,,,,,,,,,,,,,,,,,,,,,,1009,2019_May_08_1649,mf_amp_cond1,3.0.7,59.98472478399624,
,,,,,,,0,0,0,0,,,,,0,0,0,0,,,,,,,,,,,,,,,,,,,,,,,,,,,,,772.3168421430746,,,,,LDT_prac,right,2.08409461483825,0,right,1.5672959614312276,right,1.0004704957827926,,,,,,,,,,,,,,,,,,,,,,,,,,,,,,,,,,1009,2019_May_08_1649,mf_amp_cond1,3.0.7,59.98472478399624,
,,,,,,,0,0,0,0,,,,,,,,,,,,,,,,,,,,,,,,,,,,,,,,,,,,,,,,,,,,,,,,,,2,14.939,,,,,,,,,,,,,,,,,,,,,,,,,,,,,,,,1009,2019_May_08_1649,mf_amp_cond1,3.0.7,59.98472478399624,
,,,,,,,,,,,,,,,,,,,,,,,,,,,,,,,,,,,,,,,,,,,,,,,,,,,,,,,,,,,,,,right,1.1838980778120458,,,,,,,,,,,,,,,,,,,,,,,,,,,,,,1009,2019_May_08_1649,mf_amp_cond1,3.0.7,59.98472478399624,
,,,,,,,,,,,,,,,,,,,,,,,,,,,,,,,,,,,,,,,,,,,,,,,860.4882995059015,,,,,,,,,,,,,,,,,left,6.268449076684192,,,,,,,,,,,,,,,,,,,,,,,,,,,,1009,2019_May_08_1649,mf_amp_cond1,3.0.7,59.98472478399624,
,,,,,,,,,,,,,,,,,,,,,,,,,,,,,,,,,,,,,,,,,,,,,,,,,,,,,,,,,,,,,,,,,,right,2.8842702409019694,,,,,,,,,,,,,,,,,,,,,,,,,,1009,2019_May_08_1649,mf_amp_cond1,3.0.7,59.98472478399624,
,,,,,,,,,,,,,,,,,,,,,,,,,,,,,,,,,,,,,,,,,,,,,,,885.6777768227039,,,,,,,,,,,,,,,,,,,,,right,0.9485642664367333,54,right,1.317328674835153,,,,,,,,,,,,,,,,,,,,,1009,2019_May_08_1649,mf_amp_cond1,3.0.7,59.98472478399624,
banana,,&&&&&&,images/symbols/symbol_68.png,,,,,,,,,,,,,,,,,,,,0,0,0,1,,,,,,,,,,,,,,,,,,,,,1066.1893317101058,,,,,AMP_prac,left,1.1004987832857296,,,,,,,,,,,,,,,,,,,left,1.1004987832857296,1,,,,,,,,,,,,,,,,,,1009,2019_May_08_1649,mf_amp_cond1,3.0.7,59.98472478399624,
keyboard,,&&&&&&&&,images/symbols/symbol_40.png,,,,,,,,,,,,,,,,,,,,0,1,1,2,,,,,,,,,,,,,,,,,,,,,1069.3733407568652,,,,,AMP_prac,right,2.9509773610625416,,,,,,,,,,,,,,,,,,,right,2.9509773610625416,1,,,,,,,,,,,,,,,,,,1009,2019_May_08_1649,mf_amp_cond1,3.0.7,59.98472478399624,
scarf,,&&&&&,images/symbols/symbol_54.png,,,,,,,,,,,,,,,,,,,,0,2,2,3,,,,,,,,,,,,,,,,,,,,,1070.40693132882,,,,,AMP_prac,right,0.8004434269387275,,,,,,,,,,,,,,,,,,,right,0.8004434269387275,1,,,,,,,,,,,,,,,,,,1009,2019_May_08_1649,mf_amp_cond1,3.0.7,59.98472478399624,
car,,&&&,images/symbols/symbol_9.png,,,,,,,,,,,,,,,,,,,,0,3,3,0,,,,,,,,,,,,,,,,,,,,,1071.840612279484,,,,,AMP_prac,right,1.2152057673083618,,,,,,,,,,,,,,,,,,,right,1.2152057673083618,1,,,,,,,,,,,,,,,,,,1009,2019_May_08_1649,mf_amp_cond1,3.0.7,59.98472478399624,
,,,,,,,,,,,,,,,,,,,,,,,,,,,,,,,,,,,,,,,,,,,,,,,,,,,,,,,,,,,,,,,,,,,,,,,,,,,,right,2.7009039162658155,,,,,,,,,,,,,,,,1009,2019_May_08_1649,mf_amp_cond1,3.0.7,59.98472478399624,
charges,,&&&&&&&,images/symbols/symbol_65.png,condition_files/AMP_rep1.csv,right,fairness.vice,,,,,,,,,,,,,,,,,,,,,0,0,0,0,0,0,0,0,,,,,,,,,,,,,1095.6633287235163,,,,,AMP_prac,right,1.2152057673083618,,,,,,,,,,,,,,,,,,,,,1,,,right,0.8504509959602728,,,,,,,,,,,,,,1009,2019_May_08_1649,mf_amp_cond1,3.0.7,59.98472478399624,
betrayal,,&&&&&&&&,images/symbols/symbol_57.png,condition_files/AMP_rep1.csv,right,loyalty.vice,,,,,,,,,,,,,,,,,,,,,0,0,0,0,0,1,1,1,,,,,,,,,,,,,1096.7299421934877,,,,,AMP_prac,right,1.2152057673083618,,,,,,,,,,,,,,,,,,,,,1,,,right,0.8485407897969708,,,,,,,,,,,,,,1009,2019_May_08_1649,mf_amp_cond1,3.0.7,59.98472478399624,
rebels,,&&&&&&,images/symbols/symbol_28.png,condition_files/AMP_rep1.csv,right,authority.vice,,,,,,,,,,,,,,,,,,,,,0,0,0,0,0,2,2,2,,,,,,,,,,,,,1097.6469675316475,,,,,AMP_prac,right,1.2152057673083618,,,,,,,,,,,,,,,,,,,,,1,,,left,0.6837386802071705,,,,,,,,,,,,,,1009,2019_May_08_1649,mf_amp_cond1,3.0.7,59.98472478399624,
men,,&&&,images/symbols/symbol_22.png,condition_files/AMP_rep1.csv,right,loyalty.vice,,,,,,,,,,,,,,,,,,,,,0,0,0,0,0,3,3,3,,,,,,,,,,,,,1098.547182991053,,,,,AMP_prac,right,1.2152057673083618,,,,,,,,,,,,,,,,,,,,,1,,,right,0.6822239212924615,,,,,,,,,,,,,,1009,2019_May_08_1649,mf_amp_cond1,3.0.7,59.98472478399624,
promised,,&&&&&&&&,images/symbols/symbol_40.png,condition_files/AMP_rep1.csv,left,loyalty.virtue,,,,,,,,,,,,,,,,,,,,,0,0,0,0,0,4,4,4,,,,,,,,,,,,,1099.6141229536152,,,,,AMP_prac,right,1.2152057673083618,,,,,,,,,,,,,,,,,,,,,1,,,left,0.8491421390790492,,,,,,,,,,,,,,1009,2019_May_08_1649,mf_amp_cond1,3.0.7,59.98472478399624,
values,,&&&&&&,images/symbols/symbol_81.png,condition_files/AMP_rep1.csv,left,sanctity.virtue,,,,,,,,,,,,,,,,,,,,,0,0,0,0,0,5,5,5,,,,,,,,,,,,,1100.647723788512,,,,,AMP_prac,right,1.2152057673083618,,,,,,,,,,,,,,,,,,,,,1,,,left,0.8004434269387275,,,,,,,,,,,,,,1009,2019_May_08_1649,mf_amp_cond1,3.0.7,59.98472478399624,
ability,,&&&&&&&,images/symbols/symbol_52.png,condition_files/AMP_rep1.csv,left,authority.virtue,,,,,,,,,,,,,,,,,,,,,0,0,0,0,0,6,6,6,,,,,,,,,,,,,1101.6312859446043,,,,,AMP_prac,right,1.2152057673083618,,,,,,,,,,,,,,,,,,,,,1,,,left,0.7660247570602223,,,,,,,,,,,,,,1009,2019_May_08_1649,mf_amp_cond1,3.0.7,59.98472478399624,
scourld,,&&&&&&&,images/symbols/symbol_58.png,condition_files/AMP_rep1.csv,None,nonword,,,,,,,,,,,,,,,,,,,,,0,0,0,0,0,7,7,7,,,,,,,,,,,,,1102.631537709618,,,,,AMP_prac,right,1.2152057673083618,,,,,,,,,,,,,,,,,,,,,1,,,left,0.7825620239600539,,,,,,,,,,,,,,1009,2019_May_08_1649,mf_amp_cond1,3.0.7,59.98472478399624,
increase,,&&&&&&&&,images/symbols/symbol_79.png,condition_files/AMP_rep1.csv,left,care.virtue,,,,,,,,,,,,,,,,,,,,,0,0,0,0,0,8,8,8,,,,,,,,,,,,,1103.6317788907327,,,,,AMP_prac,right,1.2152057673083618,,,,,,,,,,,,,,,,,,,,,1,,,right,0.7824122479651123,,,,,,,,,,,,,,1009,2019_May_08_1649,mf_amp_cond1,3.0.7,59.98472478399624,
fraud,,&&&&&,images/symbols/symbol_77.png,condition_files/AMP_rep1.csv,right,fairness.vice,,,,,,,,,,,,,,,,,,,,,0,0,0,0,0,9,9,9,,,,,,,,,,,,,1104.398652592674,,,,,AMP_prac,right,1.2152057673083618,,,,,,,,,,,,,,,,,,,,,1,,,right,0.5492115429369733,,,,,,,,,,,,,,1009,2019_May_08_1649,mf_amp_cond1,3.0.7,59.98472478399624,
pleasant,,&&&&&&&,images/symbols/symbol_48.png,condition_files/AMP_rep1.csv,right,control,,,,,,,,,,,,,,,,,,,,,0,0,0,0,0,10,10,10,,,,,,,,,,,,,1105.1988301429665,,,,,AMP_prac,right,1.2152057673083618,,,,,,,,,,,,,,,,,,,,,1,,,right,0.5824566995725036,,,,,,,,,,,,,,1009,2019_May_08_1649,mf_amp_cond1,3.0.7,59.98472478399624,
slavery,,&&&&&&&,images/symbols/symbol_18.png,condition_files/AMP_rep1.csv,right,loyalty.vice,,,,,,,,,,,,,,,,,,,,,0,0,0,0,0,11,11,11,,,,,,,,,,,,,1105.8990146850701,,,,,AMP_prac,right,1.2152057673083618,,,,,,,,,,,,,,,,,,,,,1,,,right,0.46703322790563107,,,,,,,,,,,,,,1009,2019_May_08_1649,mf_amp_cond1,3.0.7,59.98472478399624,
serial,,&&&&&&,images/symbols/symbol_33.png,condition_files/AMP_rep1.csv,right,sanctity.vice,,,,,,,,,,,,,,,,,,,,,0,0,0,0,0,12,12,12,,,,,,,,,,,,,1106.765890054754,,,,,AMP_prac,right,1.2152057673083618,,,,,,,,,,,,,,,,,,,,,1,,,right,0.6490268723573536,,,,,,,,,,,,,,1009,2019_May_08_1649,mf_amp_cond1,3.0.7,59.98472478399624,
officers,,&&&&&&&&,images/symbols/symbol_36.png,condition_files/AMP_rep1.csv,right,authority.vice,,,,,,,,,,,,,,,,,,,,,0,0,0,0,0,13,13,13,,,,,,,,,,,,,1107.699453301262,,,,,AMP_prac,right,1.2152057673083618,,,,,,,,,,,,,,,,,,,,,1,,,right,0.7154892834369093,,,,,,,,,,,,,,1009,2019_May_08_1649,mf_amp_cond1,3.0.7,59.98472478399624,
death,,&&&&&,images/symbols/symbol_32.png,condition_files/AMP_rep1.csv,right,care.vice,,,,,,,,,,,,,,,,,,,,,0,0,0,0,0,14,14,14,,,,,,,,,,,,,1108.6330460540485,,,,,AMP_prac,right,1.2152057673083618,,,,,,,,,,,,,,,,,,,,,1,,,left,0.7158747884677723,,,,,,,,,,,,,,1009,2019_May_08_1649,mf_amp_cond1,3.0.7,59.98472478399624,
wence,,&&&&&,images/symbols/symbol_61.png,condition_files/AMP_rep1.csv,None,nonword,,,,,,,,,,,,,,,,,,,,,0,0,0,0,0,15,15,15,,,,,,,,,,,,,1109.766635407228,,,,,AMP_prac,right,1.2152057673083618,,,,,,,,,,,,,,,,,,,,,1,,,right,0.9004633757285774,,,,,,,,,,,,,,1009,2019_May_08_1649,mf_amp_cond1,3.0.7,59.98472478399624,
unpleasant,,&&&&&&&&&,images/symbols/symbol_82.png,condition_files/AMP_rep1.csv,left,control,,,,,,,,,,,,,,,,,,,,,0,0,0,0,0,16,16,16,,,,,,,,,,,,,1110.750196921872,,,,,AMP_prac,right,1.2152057673083618,,,,,,,,,,,,,,,,,,,,,1,,,left,0.765759521862492,,,,,,,,,,,,,,1009,2019_May_08_1649,mf_amp_cond1,3.0.7,59.98472478399624,
encourage,,&&&&&&&&&,images/symbols/symbol_55.png,condition_files/AMP_rep1.csv,left,authority.virtue,,,,,,,,,,,,,,,,,,,,,0,0,0,0,0,17,17,17,,,,,,,,,,,,,1111.8504811435705,,,,,AMP_prac,right,1.2152057673083618,,,,,,,,,,,,,,,,,,,,,1,,,left,0.8820668970001861,,,,,,,,,,,,,,1009,2019_May_08_1649,mf_amp_cond1,3.0.7,59.98472478399624,
gun,,&&&,images/symbols/symbol_80.png,condition_files/AMP_rep1.csv,right,authority.vice,,,,,,,,,,,,,,,,,,,,,0,0,0,0,0,18,18,18,,,,,,,,,,,,,1112.6506965389708,,,,,AMP_prac,right,1.2152057673083618,,,,,,,,,,,,,,,,,,,,,1,,,left,0.5828861432382837,,,,,,,,,,,,,,1009,2019_May_08_1649,mf_amp_cond1,3.0.7,59.98472478399624,
black,,&&&&&,images/symbols/symbol_56.png,condition_files/AMP_rep1.csv,right,loyalty.vice,,,,,,,,,,,,,,,,,,,,,0,0,0,0,0,19,19,19,,,,,,,,,,,,,1113.5008839033544,,,,,AMP_prac,right,1.2152057673083618,,,,,,,,,,,,,,,,,,,,,1,,,right,0.617063311394304,,,,,,,,,,,,,,1009,2019_May_08_1649,mf_amp_cond1,3.0.7,59.98472478399624,
penalty,,&&&&&&&,images/symbols/symbol_37.png,condition_files/AMP_rep1.csv,right,authority.vice,,,,,,,,,,,,,,,,,,,,,0,0,0,0,0,20,20,20,,,,,,,,,,,,,1114.9345687025925,,,,,AMP_prac,right,1.2152057673083618,,,,,,,,,,,,,,,,,,,,,1,,,right,1.2005338058806956,,,,,,,,,,,,,,1009,2019_May_08_1649,mf_amp_cond1,3.0.7,59.98472478399624,
support,,&&&&&&&,images/symbols/symbol_14.png,condition_files/AMP_rep1.csv,left,loyalty.virtue,,,,,,,,,,,,,,,,,,,,,0,0,0,0,0,21,21,21,,,,,,,,,,,,,1115.9514895502944,,,,,AMP_prac,right,1.2152057673083618,,,,,,,,,,,,,,,,,,,,,1,,,right,0.7990187903633341,,,,,,,,,,,,,,1009,2019_May_08_1649,mf_amp_cond1,3.0.7,59.98472478399624,
stealde,,&&&&&&&,images/symbols/symbol_3.png,condition_files/AMP_rep1.csv,None,nonword,,,,,,,,,,,,,,,,,,,,,0,0,0,0,0,22,22,22,,,,,,,,,,,,,1116.6016443937551,,,,,AMP_prac,right,1.2152057673083618,,,,,,,,,,,,,,,,,,,,,1,,,right,0.43233200383838266,,,,,,,,,,,,,,1009,2019_May_08_1649,mf_amp_cond1,3.0.7,59.98472478399624,
fair,,&&&&,images/symbols/symbol_62.png,condition_files/AMP_rep1.csv,left,fairness.virtue,,,,,,,,,,,,,,,,,,,,,0,0,0,0,0,23,23,23,,,,,,,,,,,,,1118.3020633818815,,,,,AMP_prac,right,1.2152057673083618,,,,,,,,,,,,,,,,,,,,,1,,,left,1.4826522745424882,,,,,,,,,,,,,,1009,2019_May_08_1649,mf_amp_cond1,3.0.7,59.98472478399624,
mawlde,,&&&&&&,images/symbols/symbol_41.png,condition_files/AMP_rep1.csv,None,nonword,,,,,,,,,,,,,,,,,,,,,0,0,0,0,0,24,24,24,,,,,,,,,,,,,1121.4028787154239,,,,,AMP_prac,right,1.2152057673083618,,,,,,,,,,,,,,,,,,,,,1,,,left,2.8835037209792063,,,,,,,,,,,,,,1009,2019_May_08_1649,mf_amp_cond1,3.0.7,59.98472478399624,
forced,,&&&&&&,images/symbols/symbol_60.png,condition_files/AMP_rep1.csv,right,fairness.vice,,,,,,,,,,,,,,,,,,,,,0,0,0,0,0,25,25,25,,,,,,,,,,,,,1122.219695521635,,,,,AMP_prac,right,1.2152057673083618,,,,,,,,,,,,,,,,,,,,,1,,,right,0.5837219385430217,,,,,,,,,,,,,,1009,2019_May_08_1649,mf_amp_cond1,3.0.7,59.98472478399624,
peace,,&&&&&,images/symbols/symbol_47.png,condition_files/AMP_rep1.csv,left,care.virtue,,,,,,,,,,,,,,,,,,,,,0,0,0,0,0,26,26,26,,,,,,,,,,,,,1123.1199728799984,,,,,AMP_prac,right,1.2152057673083618,,,,,,,,,,,,,,,,,,,,,1,,,right,0.6822357878554612,,,,,,,,,,,,,,1009,2019_May_08_1649,mf_amp_cond1,3.0.7,59.98472478399624,
freazz,,&&&&&&,images/symbols/symbol_17.png,condition_files/AMP_rep1.csv,None,nonword,,,,,,,,,,,,,,,,,,,,,0,0,0,0,0,27,27,27,,,,,,,,,,,,,1124.7536626183428,,,,,AMP_prac,right,1.2152057673083618,,,,,,,,,,,,,,,,,,,,,1,,,right,1.4159977523377165,,,,,,,,,,,,,,1009,2019_May_08_1649,mf_amp_cond1,3.0.7,59.98472478399624,
great,,&&&&&,images/symbols/symbol_67.png,condition_files/AMP_rep1.csv,left,loyalty.virtue,,,,,,,,,,,,,,,,,,,,,0,0,0,0,0,28,28,28,,,,,,,,,,,,,1125.8372511375928,,,,,AMP_prac,right,1.2152057673083618,,,,,,,,,,,,,,,,,,,,,1,,,left,0.8657368149142712,,,,,,,,,,,,,,1009,2019_May_08_1649,mf_amp_cond1,3.0.7,59.98472478399624,
scandal,,&&&&&&&,images/symbols/symbol_73.png,condition_files/AMP_rep1.csv,right,sanctity.vice,,,,,,,,,,,,,,,,,,,,,0,0,0,0,0,29,29,29,,,,,,,,,,,,,1126.85416428803,,,,,AMP_prac,right,1.2152057673083618,,,,,,,,,,,,,,,,,,,,,1,,,right,0.799149964703247,,,,,,,,,,,,,,1009,2019_May_08_1649,mf_amp_cond1,3.0.7,59.98472478399624,
sexual,,&&&&&&,images/symbols/symbol_13.png,condition_files/AMP_rep1.csv,right,sanctity.vice,,,,,,,,,,,,,,,,,,,,,0,0,0,0,0,30,30,30,,,,,,,,,,,,,1128.4045586448628,,,,,AMP_prac,right,1.2152057673083618,,,,,,,,,,,,,,,,,,,,,1,,,right,1.3326144937891513,,,,,,,,,,,,,,1009,2019_May_08_1649,mf_amp_cond1,3.0.7,59.98472478399624,
torture,,&&&&&&&,images/symbols/symbol_16.png,condition_files/AMP_rep1.csv,right,care.vice,,,,,,,,,,,,,,,,,,,,,0,0,0,0,0,31,31,31,,,,,,,,,,,,,1129.5381698069395,,,,,AMP_prac,right,1.2152057673083618,,,,,,,,,,,,,,,,,,,,,1,,,right,0.9161536220926791,,,,,,,,,,,,,,1009,2019_May_08_1649,mf_amp_cond1,3.0.7,59.98472478399624,
naidd,,&&&&&,images/symbols/symbol_4.png,condition_files/AMP_rep1.csv,None,nonword,,,,,,,,,,,,,,,,,,,,,0,0,0,0,0,32,32,32,,,,,,,,,,,,,1130.7551350422436,,,,,AMP_prac,right,1.2152057673083618,,,,,,,,,,,,,,,,,,,,,1,,,right,0.9991686947178096,,,,,,,,,,,,,,1009,2019_May_08_1649,mf_amp_cond1,3.0.7,59.98472478399624,
loyalty,,&&&&&&&,images/symbols/symbol_49.png,condition_files/AMP_rep1.csv,left,loyalty.virtue,,,,,,,,,,,,,,,,,,,,,0,0,0,0,0,33,33,33,,,,,,,,,,,,,1131.855448128772,,,,,AMP_prac,right,1.2152057673083618,,,,,,,,,,,,,,,,,,,,,1,,,right,0.8671553578460589,,,,,,,,,,,,,,1009,2019_May_08_1649,mf_amp_cond1,3.0.7,59.98472478399624,
refused,,&&&&&&&,images/symbols/symbol_25.png,condition_files/AMP_rep1.csv,right,authority.vice,,,,,,,,,,,,,,,,,,,,,0,0,0,0,0,34,34,34,,,,,,,,,,,,,1132.9056824465515,,,,,AMP_prac,right,1.2152057673083618,,,,,,,,,,,,,,,,,,,,,1,,,right,0.8318370692431927,,,,,,,,,,,,,,1009,2019_May_08_1649,mf_amp_cond1,3.0.7,59.98472478399624,
victim,,&&&&&&,images/symbols/symbol_54.png,condition_files/AMP_rep1.csv,right,care.vice,,,,,,,,,,,,,,,,,,,,,0,0,0,0,0,35,35,35,,,,,,,,,,,,,1133.8559025884606,,,,,AMP_prac,right,1.2152057673083618,,,,,,,,,,,,,,,,,,,,,1,,,right,0.7170864673098549,,,,,,,,,,,,,,1009,2019_May_08_1649,mf_amp_cond1,3.0.7,59.98472478399624,
failure,,&&&&&&&,images/symbols/symbol_5.png,condition_files/AMP_rep1.csv,right,loyalty.vice,,,,,,,,,,,,,,,,,,,,,0,0,0,0,0,36,36,36,,,,,,,,,,,,,1134.8728256811155,,,,,AMP_prac,right,1.2152057673083618,,,,,,,,,,,,,,,,,,,,,1,,,right,0.7988205855945125,,,,,,,,,,,,,,1009,2019_May_08_1649,mf_amp_cond1,3.0.7,59.98472478399624,
sharing,,&&&&&&&,images/symbols/symbol_75.png,condition_files/AMP_rep1.csv,left,loyalty.virtue,,,,,,,,,,,,,,,,,,,,,0,0,0,0,0,37,37,37,,,,,,,,,,,,,1135.8563929687953,,,,,AMP_prac,right,1.2152057673083618,,,,,,,,,,,,,,,,,,,,,1,,,left,0.7658361739013344,,,,,,,,,,,,,,1009,2019_May_08_1649,mf_amp_cond1,3.0.7,59.98472478399624,
drug,,&&&&,images/symbols/symbol_44.png,condition_files/AMP_rep1.csv,right,sanctity.vice,,,,,,,,,,,,,,,,,,,,,0,0,0,0,0,38,38,38,,,,,,,,,,,,,1137.0567009879742,,,,,AMP_prac,right,1.2152057673083618,,,,,,,,,,,,,,,,,,,,,1,,,left,0.9824361094506457,,,,,,,,,,,,,,1009,2019_May_08_1649,mf_amp_cond1,3.0.7,59.98472478399624,
commitment,,&&&&&&&&&&,images/symbols/symbol_8.png,condition_files/AMP_rep1.csv,left,sanctity.virtue,,,,,,,,,,,,,,,,,,,,,0,0,0,0,0,39,39,39,,,,,,,,,,,,,1138.2069818741875,,,,,AMP_prac,right,1.2152057673083618,,,,,,,,,,,,,,,,,,,,,1,,,left,0.9325638841837645,,,,,,,,,,,,,,1009,2019_May_08_1649,mf_amp_cond1,3.0.7,59.98472478399624,
violations,,&&&&&&&&&&,images/symbols/symbol_63.png,condition_files/AMP_rep1.csv,right,sanctity.vice,,,,,,,,,,,,,,,,,,,,,0,0,0,0,0,40,40,40,,,,,,,,,,,,,1139.2238921381067,,,,,AMP_prac,right,1.2152057673083618,,,,,,,,,,,,,,,,,,,,,1,,,left,0.7993100037565455,,,,,,,,,,,,,,1009,2019_May_08_1649,mf_amp_cond1,3.0.7,59.98472478399624,
ensure,,&&&&&&,images/symbols/symbol_15.png,condition_files/AMP_rep1.csv,left,fairness.virtue,,,,,,,,,,,,,,,,,,,,,0,0,0,0,0,41,41,41,,,,,,,,,,,,,1140.2074854040984,,,,,AMP_prac,right,1.2152057673083618,,,,,,,,,,,,,,,,,,,,,1,,,left,0.7658361737849191,,,,,,,,,,,,,,1009,2019_May_08_1649,mf_amp_cond1,3.0.7,59.98472478399624,
honored,,&&&&&&&,images/symbols/symbol_20.png,condition_files/AMP_rep1.csv,left,authority.virtue,,,,,,,,,,,,,,,,,,,,,0,0,0,0,0,42,42,42,,,,,,,,,,,,,1142.20796135196,,,,,AMP_prac,right,1.2152057673083618,,,,,,,,,,,,,,,,,,,,,1,,,right,1.783223027130589,,,,,,,,,,,,,,1009,2019_May_08_1649,mf_amp_cond1,3.0.7,59.98472478399624,
hand,,&&&&,images/symbols/symbol_70.png,condition_files/AMP_rep1.csv,left,sanctity.virtue,,,,,,,,,,,,,,,,,,,,,0,0,0,0,0,43,43,43,,,,,,,,,,,,,1142.974834733177,,,,,AMP_prac,right,1.2152057673083618,,,,,,,,,,,,,,,,,,,,,1,,,right,0.5491400223691016,,,,,,,,,,,,,,1009,2019_May_08_1649,mf_amp_cond1,3.0.7,59.98472478399624,
troops,,&&&&&&,images/symbols/symbol_24.png,condition_files/AMP_rep1.csv,right,loyalty.vice,,,,,,,,,,,,,,,,,,,,,0,0,0,0,0,44,44,44,,,,,,,,,,,,,1143.7416673828848,,,,,AMP_prac,right,1.2152057673083618,,,,,,,,,,,,,,,,,,,,,1,,,right,0.5337037858553231,,,,,,,,,,,,,,1009,2019_May_08_1649,mf_amp_cond1,3.0.7,59.98472478399624,
freedom,,&&&&&&&,images/symbols/symbol_2.png,condition_files/AMP_rep1.csv,left,sanctity.virtue,,,,,,,,,,,,,,,,,,,,,0,0,0,0,0,45,45,45,,,,,,,,,,,,,1145.0419911814388,,,,,AMP_prac,right,1.2152057673083618,,,,,,,,,,,,,,,,,,,,,1,,,right,1.0820269352989271,,,,,,,,,,,,,,1009,2019_May_08_1649,mf_amp_cond1,3.0.7,59.98472478399624,
wheighlde,,&&&&&&&&&,images/symbols/symbol_9.png,condition_files/AMP_rep1.csv,None,nonword,,,,,,,,,,,,,,,,,,,,,0,0,0,0,0,46,46,46,,,,,,,,,,,,,1146.2089552622056,,,,,AMP_prac,right,1.2152057673083618,,,,,,,,,,,,,,,,,,,,,1,,,right,0.9491531077073887,,,,,,,,,,,,,,1009,2019_May_08_1649,mf_amp_cond1,3.0.7,59.98472478399624,
hate,,&&&&,images/symbols/symbol_43.png,condition_files/AMP_rep1.csv,right,fairness.vice,,,,,,,,,,,,,,,,,,,,,0,0,0,0,0,47,47,47,,,,,,,,,,,,,1147.1925289641367,,,,,AMP_prac,right,1.2152057673083618,,,,,,,,,,,,,,,,,,,,,1,,,right,0.7657938387710601,,,,,,,,,,,,,,1009,2019_May_08_1649,mf_amp_cond1,3.0.7,59.98472478399624,
protect,,&&&&&&&,images/symbols/symbol_69.png,condition_files/AMP_rep1.csv,left,fairness.virtue,,,,,,,,,,,,,,,,,,,,,0,0,0,0,0,48,48,48,,,,,,,,,,,,,1148.3261519928928,,,,,AMP_prac,right,1.2152057673083618,,,,,,,,,,,,,,,,,,,,,1,,,right,0.9004758838564157,,,,,,,,,,,,,,1009,2019_May_08_1649,mf_amp_cond1,3.0.7,59.98472478399624,
voter,,&&&&&,images/symbols/symbol_34.png,condition_files/AMP_rep1.csv,right,fairness.vice,,,,,,,,,,,,,,,,,,,,,0,0,0,0,0,49,49,49,,,,,,,,,,,,,1149.2096893894486,,,,,AMP_prac,right,1.2152057673083618,,,,,,,,,,,,,,,,,,,,,1,,,right,0.6652126307599247,,,,,,,,,,,,,,1009,2019_May_08_1649,mf_amp_cond1,3.0.7,59.98472478399624,
groups,,&&&&&&,images/symbols/symbol_12.png,condition_files/AMP_rep1.csv,right,loyalty.vice,,,,,,,,,,,,,,,,,,,,,0,0,0,0,0,50,50,50,,,,,,,,,,,,,1150.2766222961945,,,,,AMP_prac,right,1.2152057673083618,,,,,,,,,,,,,,,,,,,,,1,,,right,0.849121292354539,,,,,,,,,,,,,,1009,2019_May_08_1649,mf_amp_cond1,3.0.7,59.98472478399624,
crime,,&&&&&,images/symbols/symbol_7.png,condition_files/AMP_rep1.csv,right,fairness.vice,,,,,,,,,,,,,,,,,,,,,0,0,0,0,0,51,51,51,,,,,,,,,,,,,1151.2602123548277,,,,,AMP_prac,right,1.2152057673083618,,,,,,,,,,,,,,,,,,,,,1,,,right,0.7658368152333423,,,,,,,,,,,,,,1009,2019_May_08_1649,mf_amp_cond1,3.0.7,59.98472478399624,
abuse,,&&&&&,images/symbols/symbol_6.png,condition_files/AMP_rep1.csv,right,sanctity.vice,,,,,,,,,,,,,,,,,,,,,0,0,0,0,0,52,52,52,,,,,,,,,,,,,1151.8936846452998,,,,,AMP_prac,right,1.2152057673083618,,,,,,,,,,,,,,,,,,,,,1,,,right,0.41571038763504475,,,,,,,,,,,,,,1009,2019_May_08_1649,mf_amp_cond1,3.0.7,59.98472478399624,
health,,&&&&&&,images/symbols/symbol_29.png,condition_files/AMP_rep1.csv,left,care.virtue,,,,,,,,,,,,,,,,,,,,,0,0,0,0,0,53,53,53,,,,,,,,,,,,,1152.7272327538813,,,,,AMP_prac,right,1.2152057673083618,,,,,,,,,,,,,,,,,,,,,1,,,left,0.6156405990477651,,,,,,,,,,,,,,1009,2019_May_08_1649,mf_amp_cond1,3.0.7,59.98472478399624,
trust,,&&&&&,images/symbols/symbol_38.png,condition_files/AMP_rep1.csv,left,authority.virtue,,,,,,,,,,,,,,,,,,,,,0,0,0,0,0,54,54,54,,,,,,,,,,,,,1153.827495166799,,,,,AMP_prac,right,1.2152057673083618,,,,,,,,,,,,,,,,,,,,,1,,,left,0.8823199447942898,,,,,,,,,,,,,,1009,2019_May_08_1649,mf_amp_cond1,3.0.7,59.98472478399624,
terrorists,,&&&&&&&&&&,images/symbols/symbol_50.png,condition_files/AMP_rep1.csv,right,fairness.vice,,,,,,,,,,,,,,,,,,,,,0,0,0,0,0,55,55,55,,,,,,,,,,,,,1154.777723326697,,,,,AMP_prac,right,1.2152057673083618,,,,,,,,,,,,,,,,,,,,,1,,,left,0.7325355325592682,,,,,,,,,,,,,,1009,2019_May_08_1649,mf_amp_cond1,3.0.7,59.98472478399624,
care,,&&&&,images/symbols/symbol_53.png,condition_files/AMP_rep1.csv,left,care.virtue,,,,,,,,,,,,,,,,,,,,,0,0,0,0,0,56,56,56,,,,,,,,,,,,,1155.794659248204,,,,,AMP_prac,right,1.2152057673083618,,,,,,,,,,,,,,,,,,,,,1,,,left,0.7837708162842318,,,,,,,,,,,,,,1009,2019_May_08_1649,mf_amp_cond1,3.0.7,59.98472478399624,
wreize,,&&&&&&,images/symbols/symbol_23.png,condition_files/AMP_rep1.csv,None,nonword,,,,,,,,,,,,,,,,,,,,,0,0,0,0,0,57,57,57,,,,,,,,,,,,,1156.7949132581707,,,,,AMP_prac,right,1.2152057673083618,,,,,,,,,,,,,,,,,,,,,1,,,left,0.7817916553467512,,,,,,,,,,,,,,1009,2019_May_08_1649,mf_amp_cond1,3.0.7,59.98472478399624,
celebrated,,&&&&&&&&&&,images/symbols/symbol_35.png,condition_files/AMP_rep1.csv,left,authority.virtue,,,,,,,,,,,,,,,,,,,,,0,0,0,0,0,58,58,58,,,,,,,,,,,,,1157.8118232013658,,,,,AMP_prac,right,1.2152057673083618,,,,,,,,,,,,,,,,,,,,,1,,,right,0.7991166097344831,,,,,,,,,,,,,,1009,2019_May_08_1649,mf_amp_cond1,3.0.7,59.98472478399624,
shypse,,&&&&&&,images/symbols/symbol_78.png,condition_files/AMP_rep1.csv,None,nonword,,,,,,,,,,,,,,,,,,,,,0,0,0,0,0,59,59,59,,,,,,,,,,,,,1158.828730258043,,,,,AMP_prac,right,1.2152057673083618,,,,,,,,,,,,,,,,,,,,,1,,,left,0.7990951215615496,,,,,,,,,,,,,,1009,2019_May_08_1649,mf_amp_cond1,3.0.7,59.98472478399624,
intelligence,,&&&&&&&&&&&&,images/symbols/symbol_64.png,condition_files/AMP_rep1.csv,left,loyalty.virtue,,,,,,,,,,,,,,,,,,,,,0,0,0,0,0,60,60,60,,,,,,,,,,,,,1160.1457199321594,,,,,AMP_prac,right,1.2152057673083618,,,,,,,,,,,,,,,,,,,,,1,,,left,1.0991639479761943,,,,,,,,,,,,,,1009,2019_May_08_1649,mf_amp_cond1,3.0.7,59.98472478399624,
civilians,,&&&&&&&&&,images/symbols/symbol_30.png,condition_files/AMP_rep1.csv,right,care.vice,,,,,,,,,,,,,,,,,,,,,0,0,0,0,0,61,61,61,,,,,,,,,,,,,1161.0292772133835,,,,,AMP_prac,right,1.2152057673083618,,,,,,,,,,,,,,,,,,,,,1,,,right,0.6659682461759076,,,,,,,,,,,,,,1009,2019_May_08_1649,mf_amp_cond1,3.0.7,59.98472478399624,
arrests,,&&&&&&&,images/symbols/symbol_51.png,condition_files/AMP_rep1.csv,right,authority.vice,,,,,,,,,,,,,,,,,,,,,0,0,0,0,0,62,62,62,,,,,,,,,,,,,1163.6132627835032,,,,,AMP_prac,right,1.2152057673083618,,,,,,,,,,,,,,,,,,,,,1,,,left,2.3666986530879512,,,,,,,,,,,,,,1009,2019_May_08_1649,mf_amp_cond1,3.0.7,59.98472478399624,
free,,&&&&,images/symbols/symbol_11.png,condition_files/AMP_rep1.csv,left,fairness.virtue,,,,,,,,,,,,,,,,,,,,,0,0,0,0,0,63,63,63,,,,,,,,,,,,,1164.6635096094105,,,,,AMP_prac,right,1.2152057673083618,,,,,,,,,,,,,,,,,,,,,1,,,right,0.8325259750708938,,,,,,,,,,,,,,1009,2019_May_08_1649,mf_amp_cond1,3.0.7,59.98472478399624,
prosecution,,&&&&&&&&&&&,images/symbols/symbol_27.png,condition_files/AMP_rep1.csv,right,authority.vice,,,,,,,,,,,,,,,,,,,,,0,0,0,0,0,64,64,64,,,,,,,,,,,,,1165.4470440553268,,,,,AMP_prac,right,1.2152057673083618,,,,,,,,,,,,,,,,,,,,,1,,,right,0.5656695920042694,,,,,,,,,,,,,,1009,2019_May_08_1649,mf_amp_cond1,3.0.7,59.98472478399624,
violence,,&&&&&&&&,images/symbols/symbol_26.png,condition_files/AMP_rep1.csv,right,care.vice,,,,,,,,,,,,,,,,,,,,,0,0,0,0,0,65,65,65,,,,,,,,,,,,,1166.3139194250107,,,,,AMP_prac,right,1.2152057673083618,,,,,,,,,,,,,,,,,,,,,1,,,left,0.6490621515549719,,,,,,,,,,,,,,1009,2019_May_08_1649,mf_amp_cond1,3.0.7,59.98472478399624,
faith,,&&&&&,images/symbols/symbol_10.png,condition_files/AMP_rep1.csv,left,sanctity.virtue,,,,,,,,,,,,,,,,,,,,,0,0,0,0,0,66,66,66,,,,,,,,,,,,,1167.3141609268496,,,,,AMP_prac,right,1.2152057673083618,,,,,,,,,,,,,,,,,,,,,1,,,left,0.7825703626731411,,,,,,,,,,,,,,1009,2019_May_08_1649,mf_amp_cond1,3.0.7,59.98472478399624,
victims,,&&&&&&&,images/symbols/symbol_1.png,condition_files/AMP_rep1.csv,right,care.vice,,,,,,,,,,,,,,,,,,,,,0,0,0,0,0,67,67,67,,,,,,,,,,,,,1168.4311055719154,,,,,AMP_prac,right,1.2152057673083618,,,,,,,,,,,,,,,,,,,,,1,,,right,0.8988947359612212,,,,,,,,,,,,,,1009,2019_May_08_1649,mf_amp_cond1,3.0.7,59.98472478399624,
interests,,&&&&&&&&&,images/symbols/symbol_72.png,condition_files/AMP_rep1.csv,left,fairness.virtue,,,,,,,,,,,,,,,,,,,,,0,0,0,0,0,68,68,68,,,,,,,,,,,,,1169.3812086512335,,,,,AMP_prac,right,1.2152057673083618,,,,,,,,,,,,,,,,,,,,,1,,,right,0.7169633109588176,,,,,,,,,,,,,,1009,2019_May_08_1649,mf_amp_cond1,3.0.7,59.98472478399624,
hope,,&&&&,images/symbols/symbol_19.png,condition_files/AMP_rep1.csv,left,loyalty.virtue,,,,,,,,,,,,,,,,,,,,,0,0,0,0,0,69,69,69,,,,,,,,,,,,,1170.3482380304486,,,,,AMP_prac,right,1.2152057673083618,,,,,,,,,,,,,,,,,,,,,1,,,right,0.748630527057685,,,,,,,,,,,,,,1009,2019_May_08_1649,mf_amp_cond1,3.0.7,59.98472478399624,
war,,&&&,images/symbols/symbol_39.png,condition_files/AMP_rep1.csv,right,sanctity.vice,,,,,,,,,,,,,,,,,,,,,0,0,0,0,0,70,70,70,,,,,,,,,,,,,1171.2984783777501,,,,,AMP_prac,right,1.2152057673083618,,,,,,,,,,,,,,,,,,,,,1,,,right,0.7324152626097202,,,,,,,,,,,,,,1009,2019_May_08_1649,mf_amp_cond1,3.0.7,59.98472478399624,
credit,,&&&&&&,images/symbols/symbol_46.png,condition_files/AMP_rep1.csv,left,fairness.virtue,,,,,,,,,,,,,,,,,,,,,0,0,0,0,0,71,71,71,,,,,,,,,,,,,1172.2153779937653,,,,,AMP_prac,right,1.2152057673083618,,,,,,,,,,,,,,,,,,,,,1,,,right,0.6991245636017993,,,,,,,,,,,,,,1009,2019_May_08_1649,mf_amp_cond1,3.0.7,59.98472478399624,
clean,,&&&&&,images/symbols/symbol_45.png,condition_files/AMP_rep1.csv,left,sanctity.virtue,,,,,,,,,,,,,,,,,,,,,0,0,0,0,0,72,72,72,,,,,,,,,,,,,1173.0989227668615,,,,,AMP_prac,right,1.2152057673083618,,,,,,,,,,,,,,,,,,,,,1,,,right,0.6657652306603268,,,,,,,,,,,,,,1009,2019_May_08_1649,mf_amp_cond1,3.0.7,59.98472478399624,
integrity,,&&&&&&&&&,images/symbols/symbol_59.png,condition_files/AMP_rep1.csv,left,fairness.virtue,,,,,,,,,,,,,,,,,,,,,0,0,0,0,0,73,73,73,,,,,,,,,,,,,1173.9658010229468,,,,,AMP_prac,right,1.2152057673083618,,,,,,,,,,,,,,,,,,,,,1,,,right,0.6491804971592501,,,,,,,,,,,,,,1009,2019_May_08_1649,mf_amp_cond1,3.0.7,59.98472478399624,
help,,&&&&,images/symbols/symbol_74.png,condition_files/AMP_rep1.csv,left,care.virtue,,,,,,,,,,,,,,,,,,,,,0,0,0,0,0,74,74,74,,,,,,,,,,,,,1174.7326448978856,,,,,AMP_prac,right,1.2152057673083618,,,,,,,,,,,,,,,,,,,,,1,,,left,0.5337034651311114,,,,,,,,,,,,,,1009,2019_May_08_1649,mf_amp_cond1,3.0.7,59.98472478399624,
creinned,,&&&&&&&&,images/symbols/symbol_42.png,condition_files/AMP_rep1.csv,None,nonword,,,,,,,,,,,,,,,,,,,,,0,0,0,0,0,75,75,75,,,,,,,,,,,,,1175.6495499662124,,,,,AMP_prac,right,1.2152057673083618,,,,,,,,,,,,,,,,,,,,,1,,,left,0.6984959532273933,,,,,,,,,,,,,,1009,2019_May_08_1649,mf_amp_cond1,3.0.7,59.98472478399624,
praise,,&&&&&&,images/symbols/symbol_71.png,condition_files/AMP_rep1.csv,left,authority.virtue,,,,,,,,,,,,,,,,,,,,,0,0,0,0,0,76,76,76,,,,,,,,,,,,,1176.4830865288386,,,,,AMP_prac,right,1.2152057673083618,,,,,,,,,,,,,,,,,,,,,1,,,left,0.6157278347527608,,,,,,,,,,,,,,1009,2019_May_08_1649,mf_amp_cond1,3.0.7,59.98472478399624,
safety,,&&&&&&,images/symbols/symbol_21.png,condition_files/AMP_rep1.csv,left,care.virtue,,,,,,,,,,,,,,,,,,,,,0,0,0,0,0,77,77,77,,,,,,,,,,,,,1177.9001176399179,,,,,AMP_prac,right,1.2152057673083618,,,,,,,,,,,,,,,,,,,,,1,,,left,1.199457791284658,,,,,,,,,,,,,,1009,2019_May_08_1649,mf_amp_cond1,3.0.7,59.98472478399624,
shot,,&&&&,images/symbols/symbol_68.png,condition_files/AMP_rep1.csv,right,care.vice,,,,,,,,,,,,,,,,,,,,,0,0,0,0,0,78,78,78,,,,,,,,,,,,,1178.8169915984618,,,,,AMP_prac,right,1.2152057673083618,,,,,,,,,,,,,,,,,,,,,1,,,left,0.699043742264621,,,,,,,,,,,,,,1009,2019_May_08_1649,mf_amp_cond1,3.0.7,59.98472478399624,
good,,&&&&,images/symbols/symbol_66.png,condition_files/AMP_rep1.csv,left,care.virtue,,,,,,,,,,,,,,,,,,,,,0,0,0,0,0,79,79,79,,,,,,,,,,,,,1179.7505522791762,,,,,AMP_prac,right,1.2152057673083618,,,,,,,,,,,,,,,,,,,,,1,,,left,0.7159100676653907,,,,,,,,,,,,,,1009,2019_May_08_1649,mf_amp_cond1,3.0.7,59.98472478399624,
strength,,&&&&&&&&,images/symbols/symbol_76.png,condition_files/AMP_rep1.csv,left,sanctity.virtue,,,,,,,,,,,,,,,,,,,,,0,0,0,0,0,80,80,80,,,,,,,,,,,,,1180.9508545254357,,,,,AMP_prac,right,1.2152057673083618,,,,,,,,,,,,,,,,,,,,,1,,,left,0.9827520183753222,,,,,,,,,,,,,,1009,2019_May_08_1649,mf_amp_cond1,3.0.7,59.98472478399624,
embrace,,&&&&&&&,images/symbols/symbol_31.png,condition_files/AMP_rep1.csv,left,authority.virtue,,,,,,,,,,,,,,,,,,,,,0,0,0,0,0,81,81,81,,,,,,,,,,,,,1182.201158567681,,,,,AMP_prac,right,1.2152057673083618,,,,,,,,,,,,,,,,,,,,,1,,,right,1.017154973000288,,,,,,,,,,,,,,1009,2019_May_08_1649,mf_amp_cond1,3.0.7,59.98472478399624,
,,,,condition_files/AMP_rep1.csv,,,,,,,,,,,,,,,,,,,,,,,0,0,0,0,,,,,,,,,,,,,,,,,,,,,,,,,,,,,,,,,,,,,,,,,,,,,,,,,,right,8.719034518464468,,,,,,,,,,,,1009,2019_May_08_1649,mf_amp_cond1,3.0.7,59.98472478399624,
charges,,&&&&&&&,images/symbols/symbol_65.png,condition_files/AMP_rep4.csv,right,fairness.vice,,,,,,,,,,,,,,,,,,,,,0,1,1,3,0,0,0,0,,,,,,,,,,,,,1192.8039402331924,,,,,AMP_prac,right,1.2152057673083618,,,,,,,,,,,,,,,,,,,,,1,,,right,1.6340078922221437,,,,,,,,,,,,,,1009,2019_May_08_1649,mf_amp_cond1,3.0.7,59.98472478399624,
betrayal,,&&&&&&&&,images/symbols/symbol_57.png,condition_files/AMP_rep4.csv,right,loyalty.vice,,,,,,,,,,,,,,,,,,,,,0,1,1,3,0,1,1,1,,,,,,,,,,,,,1194.0040776295355,,,,,AMP_prac,right,1.2152057673083618,,,,,,,,,,,,,,,,,,,,,1,,,right,0.9819518227595836,,,,,,,,,,,,,,1009,2019_May_08_1649,mf_amp_cond1,3.0.7,59.98472478399624,
rebels,,&&&&&&,images/symbols/symbol_28.png,condition_files/AMP_rep4.csv,right,authority.vice,,,,,,,,,,,,,,,,,,,,,0,1,1,3,0,2,2,2,,,,,,,,,,,,,1194.870969035197,,,,,AMP_prac,right,1.2152057673083618,,,,,,,,,,,,,,,,,,,,,1,,,left,0.6337477886117995,,,,,,,,,,,,,,1009,2019_May_08_1649,mf_amp_cond1,3.0.7,59.98472478399624,
men,,&&&,images/symbols/symbol_22.png,condition_files/AMP_rep4.csv,right,loyalty.vice,,,,,,,,,,,,,,,,,,,,,0,1,1,3,0,3,3,3,,,,,,,,,,,,,1195.971250691102,,,,,AMP_prac,right,1.2152057673083618,,,,,,,,,,,,,,,,,,,,,1,,,right,0.8819568902254105,,,,,,,,,,,,,,1009,2019_May_08_1649,mf_amp_cond1,3.0.7,59.98472478399624,
promised,,&&&&&&&&,images/symbols/symbol_40.png,condition_files/AMP_rep4.csv,left,loyalty.virtue,,,,,,,,,,,,,,,,,,,,,0,1,1,3,0,4,4,4,,,,,,,,,,,,,1196.7881066252012,,,,,AMP_prac,right,1.2152057673083618,,,,,,,,,,,,,,,,,,,,,1,,,left,0.5990164169343188,,,,,,,,,,,,,,1009,2019_May_08_1649,mf_amp_cond1,3.0.7,59.98472478399624,
values,,&&&&&&,images/symbols/symbol_81.png,condition_files/AMP_rep4.csv,left,sanctity.virtue,,,,,,,,,,,,,,,,,,,,,0,1,1,3,0,5,5,5,,,,,,,,,,,,,1197.521658197511,,,,,AMP_prac,right,1.2152057673083618,,,,,,,,,,,,,,,,,,,,,1,,,left,0.5004425931256264,,,,,,,,,,,,,,1009,2019_May_08_1649,mf_amp_cond1,3.0.7,59.98472478399624,
ability,,&&&&&&&,images/symbols/symbol_52.png,condition_files/AMP_rep4.csv,left,authority.virtue,,,,,,,,,,,,,,,,,,,,,0,1,1,3,0,6,6,6,,,,,,,,,,,,,1198.3218072038144,,,,,AMP_prac,right,1.2152057673083618,,,,,,,,,,,,,,,,,,,,,1,,,left,0.582273889449425,,,,,,,,,,,,,,1009,2019_May_08_1649,mf_amp_cond1,3.0.7,59.98472478399624,
scourld,,&&&&&&&,images/symbols/symbol_58.png,condition_files/AMP_rep4.csv,None,nonword,,,,,,,,,,,,,,,,,,,,,0,1,1,3,0,7,7,7,,,,,,,,,,,,,1199.0219959153328,,,,,AMP_prac,right,1.2152057673083618,,,,,,,,,,,,,,,,,,,,,1,,,left,0.4824800480855629,,,,,,,,,,,,,,1009,2019_May_08_1649,mf_amp_cond1,3.0.7,59.98472478399624,
increase,,&&&&&&&&,images/symbols/symbol_79.png,condition_files/AMP_rep4.csv,left,care.virtue,,,,,,,,,,,,,,,,,,,,,0,1,1,3,0,8,8,8,,,,,,,,,,,,,1199.7388739148155,,,,,AMP_prac,right,1.2152057673083618,,,,,,,,,,,,,,,,,,,,,1,,,right,0.499022125848569,,,,,,,,,,,,,,1009,2019_May_08_1649,mf_amp_cond1,3.0.7,59.98472478399624,
fraud,,&&&&&,images/symbols/symbol_77.png,condition_files/AMP_rep4.csv,right,fairness.vice,,,,,,,,,,,,,,,,,,,,,0,1,1,3,0,9,9,9,,,,,,,,,,,,,1200.4223217023537,,,,,AMP_prac,right,1.2152057673083618,,,,,,,,,,,,,,,,,,,,,1,,,right,0.46581577614415437,,,,,,,,,,,,,,1009,2019_May_08_1649,mf_amp_cond1,3.0.7,59.98472478399624,
pleasant,,&&&&&&&,images/symbols/symbol_48.png,condition_files/AMP_rep4.csv,right,control,,,,,,,,,,,,,,,,,,,,,0,1,1,3,0,10,10,10,,,,,,,,,,,,,1201.1224956606748,,,,,AMP_prac,right,1.2152057673083618,,,,,,,,,,,,,,,,,,,,,1,,,right,0.48239858529996127,,,,,,,,,,,,,,1009,2019_May_08_1649,mf_amp_cond1,3.0.7,59.98472478399624,
slavery,,&&&&&&&,images/symbols/symbol_18.png,condition_files/AMP_rep4.csv,right,loyalty.vice,,,,,,,,,,,,,,,,,,,,,0,1,1,3,0,11,11,11,,,,,,,,,,,,,1201.889345308533,,,,,AMP_prac,right,1.2152057673083618,,,,,,,,,,,,,,,,,,,,,1,,,right,0.5492484255228192,,,,,,,,,,,,,,1009,2019_May_08_1649,mf_amp_cond1,3.0.7,59.98472478399624,
serial,,&&&&&&,images/symbols/symbol_33.png,condition_files/AMP_rep4.csv,right,sanctity.vice,,,,,,,,,,,,,,,,,,,,,0,1,1,3,0,12,12,12,,,,,,,,,,,,,1202.7062345974846,,,,,AMP_prac,right,1.2152057673083618,,,,,,,,,,,,,,,,,,,,,1,,,right,0.599244769429788,,,,,,,,,,,,,,1009,2019_May_08_1649,mf_amp_cond1,3.0.7,59.98472478399624,
officers,,&&&&&&&&,images/symbols/symbol_36.png,condition_files/AMP_rep4.csv,right,authority.vice,,,,,,,,,,,,,,,,,,,,,0,1,1,3,0,13,13,13,,,,,,,,,,,,,1203.8065005381359,,,,,AMP_prac,right,1.2152057673083618,,,,,,,,,,,,,,,,,,,,,1,,,right,0.882560805301182,,,,,,,,,,,,,,1009,2019_May_08_1649,mf_amp_cond1,3.0.7,59.98472478399624,
death,,&&&&&,images/symbols/symbol_32.png,condition_files/AMP_rep4.csv,right,care.vice,,,,,,,,,,,,,,,,,,,,,0,1,1,3,0,14,14,14,,,,,,,,,,,,,1204.6067063119262,,,,,AMP_prac,right,1.2152057673083618,,,,,,,,,,,,,,,,,,,,,1,,,left,0.5821815221570432,,,,,,,,,,,,,,1009,2019_May_08_1649,mf_amp_cond1,3.0.7,59.98472478399624,
wence,,&&&&&,images/symbols/symbol_61.png,condition_files/AMP_rep4.csv,None,nonword,,,,,,,,,,,,,,,,,,,,,0,1,1,3,0,15,15,15,,,,,,,,,,,,,1205.8069918806432,,,,,AMP_prac,right,1.2152057673083618,,,,,,,,,,,,,,,,,,,,,1,,,right,0.9671615157276392,,,,,,,,,,,,,,1009,2019_May_08_1649,mf_amp_cond1,3.0.7,59.98472478399624,
unpleasant,,&&&&&&&&&,images/symbols/symbol_82.png,condition_files/AMP_rep4.csv,left,control,,,,,,,,,,,,,,,,,,,,,0,1,1,3,0,16,16,16,,,,,,,,,,,,,1207.7575288936496,,,,,AMP_prac,right,1.2152057673083618,,,,,,,,,,,,,,,,,,,,,1,,,right,1.732466257060878,,,,,,,,,,,,,,1009,2019_May_08_1649,mf_amp_cond1,3.0.7,59.98472478399624,
encourage,,&&&&&&&&&,images/symbols/symbol_55.png,condition_files/AMP_rep4.csv,left,authority.virtue,,,,,,,,,,,,,,,,,,,,,0,1,1,3,0,17,17,17,,,,,,,,,,,,,1209.2411660981597,,,,,AMP_prac,right,1.2152057673083618,,,,,,,,,,,,,,,,,,,,,1,,,right,1.2656726067652926,,,,,,,,,,,,,,1009,2019_May_08_1649,mf_amp_cond1,3.0.7,59.98472478399624,
gun,,&&&,images/symbols/symbol_80.png,condition_files/AMP_rep4.csv,right,authority.vice,,,,,,,,,,,,,,,,,,,,,0,1,1,3,0,18,18,18,,,,,,,,,,,,,1210.424799903063,,,,,AMP_prac,right,1.2152057673083618,,,,,,,,,,,,,,,,,,,,,1,,,left,0.9662044883007184,,,,,,,,,,,,,,1009,2019_May_08_1649,mf_amp_cond1,3.0.7,59.98472478399624,
black,,&&&&&,images/symbols/symbol_56.png,condition_files/AMP_rep4.csv,right,loyalty.vice,,,,,,,,,,,,,,,,,,,,,0,1,1,3,0,19,19,19,,,,,,,,,,,,,1211.3250070237555,,,,,AMP_prac,right,1.2152057673083618,,,,,,,,,,,,,,,,,,,,,1,,,right,0.6670721631962806,,,,,,,,,,,,,,1009,2019_May_08_1649,mf_amp_cond1,3.0.7,59.98472478399624,
penalty,,&&&&&&&,images/symbols/symbol_37.png,condition_files/AMP_rep4.csv,right,authority.vice,,,,,,,,,,,,,,,,,,,,,0,1,1,3,0,20,20,20,,,,,,,,,,,,,1212.2585718738846,,,,,AMP_prac,right,1.2152057673083618,,,,,,,,,,,,,,,,,,,,,1,,,right,0.7004193088505417,,,,,,,,,,,,,,1009,2019_May_08_1649,mf_amp_cond1,3.0.7,59.98472478399624,
support,,&&&&&&&,images/symbols/symbol_14.png,condition_files/AMP_rep4.csv,left,loyalty.virtue,,,,,,,,,,,,,,,,,,,,,0,1,1,3,0,21,21,21,,,,,,,,,,,,,1213.2421465381049,,,,,AMP_prac,right,1.2152057673083618,,,,,,,,,,,,,,,,,,,,,1,,,right,0.7651710013160482,,,,,,,,,,,,,,1009,2019_May_08_1649,mf_amp_cond1,3.0.7,59.98472478399624,
stealde,,&&&&&&&,images/symbols/symbol_3.png,condition_files/AMP_rep4.csv,None,nonword,,,,,,,,,,,,,,,,,,,,,0,1,1,3,0,22,22,22,,,,,,,,,,,,,1213.859004909522,,,,,AMP_prac,right,1.2152057673083618,,,,,,,,,,,,,,,,,,,,,1,,,right,0.39913367212284356,,,,,,,,,,,,,,1009,2019_May_08_1649,mf_amp_cond1,3.0.7,59.98472478399624,
fair,,&&&&,images/symbols/symbol_62.png,condition_files/AMP_rep4.csv,left,fairness.virtue,,,,,,,,,,,,,,,,,,,,,0,1,1,3,0,23,23,23,,,,,,,,,,,,,1215.2260082463035,,,,,AMP_prac,right,1.2152057673083618,,,,,,,,,,,,,,,,,,,,,1,,,left,1.1491939674597234,,,,,,,,,,,,,,1009,2019_May_08_1649,mf_amp_cond1,3.0.7,59.98472478399624,
mawlde,,&&&&&&,images/symbols/symbol_41.png,condition_files/AMP_rep4.csv,None,nonword,,,,,,,,,,,,,,,,,,,,,0,1,1,3,0,24,24,24,,,,,,,,,,,,,1216.2095469898777,,,,,AMP_prac,right,1.2152057673083618,,,,,,,,,,,,,,,,,,,,,1,,,left,0.7663134046597406,,,,,,,,,,,,,,1009,2019_May_08_1649,mf_amp_cond1,3.0.7,59.98472478399624,
forced,,&&&&&&,images/symbols/symbol_60.png,condition_files/AMP_rep4.csv,right,fairness.vice,,,,,,,,,,,,,,,,,,,,,0,1,1,3,0,25,25,25,,,,,,,,,,,,,1217.3765078634024,,,,,AMP_prac,right,1.2152057673083618,,,,,,,,,,,,,,,,,,,,,1,,,right,0.933809238485992,,,,,,,,,,,,,,1009,2019_May_08_1649,mf_amp_cond1,3.0.7,59.98472478399624,
peace,,&&&&&,images/symbols/symbol_47.png,condition_files/AMP_rep4.csv,left,care.virtue,,,,,,,,,,,,,,,,,,,,,0,1,1,3,0,26,26,26,,,,,,,,,,,,,1218.4267713666195,,,,,AMP_prac,right,1.2152057673083618,,,,,,,,,,,,,,,,,,,,,1,,,left,0.8316545798443258,,,,,,,,,,,,,,1009,2019_May_08_1649,mf_amp_cond1,3.0.7,59.98472478399624,
freazz,,&&&&&&,images/symbols/symbol_17.png,condition_files/AMP_rep4.csv,None,nonword,,,,,,,,,,,,,,,,,,,,,0,1,1,3,0,27,27,27,,,,,,,,,,,,,1219.6770744466921,,,,,AMP_prac,right,1.2152057673083618,,,,,,,,,,,,,,,,,,,,,1,,,left,1.0325001251185313,,,,,,,,,,,,,,1009,2019_May_08_1649,mf_amp_cond1,3.0.7,59.98472478399624,
great,,&&&&&,images/symbols/symbol_67.png,condition_files/AMP_rep4.csv,left,loyalty.virtue,,,,,,,,,,,,,,,,,,,,,0,1,1,3,0,28,28,28,,,,,,,,,,,,,1220.427256294759,,,,,AMP_prac,right,1.2152057673083618,,,,,,,,,,,,,,,,,,,,,1,,,left,0.5322336070239544,,,,,,,,,,,,,,1009,2019_May_08_1649,mf_amp_cond1,3.0.7,59.98472478399624,
scandal,,&&&&&&&,images/symbols/symbol_73.png,condition_files/AMP_rep4.csv,right,sanctity.vice,,,,,,,,,,,,,,,,,,,,,0,1,1,3,0,29,29,29,,,,,,,,,,,,,1221.17745161301,,,,,AMP_prac,right,1.2152057673083618,,,,,,,,,,,,,,,,,,,,,1,,,right,0.5324023055145517,,,,,,,,,,,,,,1009,2019_May_08_1649,mf_amp_cond1,3.0.7,59.98472478399624,
sexual,,&&&&&&,images/symbols/symbol_13.png,condition_files/AMP_rep4.csv,right,sanctity.vice,,,,,,,,,,,,,,,,,,,,,0,1,1,3,0,30,30,30,,,,,,,,,,,,,1221.860969958827,,,,,AMP_prac,right,1.2152057673083618,,,,,,,,,,,,,,,,,,,,,1,,,right,0.46570063766557723,,,,,,,,,,,,,,1009,2019_May_08_1649,mf_amp_cond1,3.0.7,59.98472478399624,
torture,,&&&&&&&,images/symbols/symbol_16.png,condition_files/AMP_rep4.csv,right,care.vice,,,,,,,,,,,,,,,,,,,,,0,1,1,3,0,31,31,31,,,,,,,,,,,,,1222.4610838784138,,,,,AMP_prac,right,1.2152057673083618,,,,,,,,,,,,,,,,,,,,,1,,,right,0.3826595868449658,,,,,,,,,,,,,,1009,2019_May_08_1649,mf_amp_cond1,3.0.7,59.98472478399624,
naidd,,&&&&&,images/symbols/symbol_4.png,condition_files/AMP_rep4.csv,None,nonword,,,,,,,,,,,,,,,,,,,,,0,1,1,3,0,32,32,32,,,,,,,,,,,,,1223.5113477024715,,,,,AMP_prac,right,1.2152057673083618,,,,,,,,,,,,,,,,,,,,,1,,,left,0.8324140439508483,,,,,,,,,,,,,,1009,2019_May_08_1649,mf_amp_cond1,3.0.7,59.98472478399624,
loyalty,,&&&&&&&,images/symbols/symbol_49.png,condition_files/AMP_rep4.csv,left,loyalty.virtue,,,,,,,,,,,,,,,,,,,,,0,1,1,3,0,33,33,33,,,,,,,,,,,,,1224.4115702176932,,,,,AMP_prac,right,1.2152057673083618,,,,,,,,,,,,,,,,,,,,,1,,,right,0.6670766532188281,,,,,,,,,,,,,,1009,2019_May_08_1649,mf_amp_cond1,3.0.7,59.98472478399624,
refused,,&&&&&&&,images/symbols/symbol_25.png,condition_files/AMP_rep4.csv,right,authority.vice,,,,,,,,,,,,,,,,,,,,,0,1,1,3,0,34,34,34,,,,,,,,,,,,,1225.1450922838412,,,,,AMP_prac,right,1.2152057673083618,,,,,,,,,,,,,,,,,,,,,1,,,right,0.5148602239787579,,,,,,,,,,,,,,1009,2019_May_08_1649,mf_amp_cond1,3.0.7,59.98472478399624,
victim,,&&&&&&,images/symbols/symbol_54.png,condition_files/AMP_rep4.csv,right,care.vice,,,,,,,,,,,,,,,,,,,,,0,1,1,3,0,35,35,35,,,,,,,,,,,,,1225.8285917071626,,,,,AMP_prac,right,1.2152057673083618,,,,,,,,,,,,,,,,,,,,,1,,,right,0.4655405986122787,,,,,,,,,,,,,,1009,2019_May_08_1649,mf_amp_cond1,3.0.7,59.98472478399624,
failure,,&&&&&&&,images/symbols/symbol_5.png,condition_files/AMP_rep4.csv,right,loyalty.vice,,,,,,,,,,,,,,,,,,,,,0,1,1,3,0,36,36,36,,,,,,,,,,,,,1226.4954140298069,,,,,AMP_prac,right,1.2152057673083618,,,,,,,,,,,,,,,,,,,,,1,,,right,0.4490617025876418,,,,,,,,,,,,,,1009,2019_May_08_1649,mf_amp_cond1,3.0.7,59.98472478399624,
sharing,,&&&&&&&,images/symbols/symbol_75.png,condition_files/AMP_rep4.csv,left,loyalty.virtue,,,,,,,,,,,,,,,,,,,,,0,1,1,3,0,37,37,37,,,,,,,,,,,,,1227.3122805475723,,,,,AMP_prac,right,1.2152057673083618,,,,,,,,,,,,,,,,,,,,,1,,,left,0.5990526583045721,,,,,,,,,,,,,,1009,2019_May_08_1649,mf_amp_cond1,3.0.7,59.98472478399624,
drug,,&&&&,images/symbols/symbol_44.png,condition_files/AMP_rep4.csv,right,sanctity.vice,,,,,,,,,,,,,,,,,,,,,0,1,1,3,0,38,38,38,,,,,,,,,,,,,1228.2958783035865,,,,,AMP_prac,right,1.2152057673083618,,,,,,,,,,,,,,,,,,,,,1,,,left,0.7656896049156785,,,,,,,,,,,,,,1009,2019_May_08_1649,mf_amp_cond1,3.0.7,59.98472478399624,
commitment,,&&&&&&&&&&,images/symbols/symbol_8.png,condition_files/AMP_rep4.csv,left,sanctity.virtue,,,,,,,,,,,,,,,,,,,,,0,1,1,3,0,39,39,39,,,,,,,,,,,,,1229.2627681697486,,,,,AMP_prac,right,1.2152057673083618,,,,,,,,,,,,,,,,,,,,,1,,,left,0.7492427809629589,,,,,,,,,,,,,,1009,2019_May_08_1649,mf_amp_cond1,3.0.7,59.98472478399624,
violations,,&&&&&&&&&&,images/symbols/symbol_63.png,condition_files/AMP_rep4.csv,right,sanctity.vice,,,,,,,,,,,,,,,,,,,,,0,1,1,3,0,40,40,40,,,,,,,,,,,,,1230.0296136483084,,,,,AMP_prac,right,1.2152057673083618,,,,,,,,,,,,,,,,,,,,,1,,,left,0.548835338675417,,,,,,,,,,,,,,1009,2019_May_08_1649,mf_amp_cond1,3.0.7,59.98472478399624,
ensure,,&&&&&&,images/symbols/symbol_15.png,condition_files/AMP_rep4.csv,left,fairness.virtue,,,,,,,,,,,,,,,,,,,,,0,1,1,3,0,41,41,41,,,,,,,,,,,,,1230.863165605464,,,,,AMP_prac,right,1.2152057673083618,,,,,,,,,,,,,,,,,,,,,1,,,left,0.6157926201121882,,,,,,,,,,,,,,1009,2019_May_08_1649,mf_amp_cond1,3.0.7,59.98472478399624,
honored,,&&&&&&&,images/symbols/symbol_20.png,condition_files/AMP_rep4.csv,left,authority.virtue,,,,,,,,,,,,,,,,,,,,,0,1,1,3,0,42,42,42,,,,,,,,,,,,,1231.5466849134536,,,,,AMP_prac,right,1.2152057673083618,,,,,,,,,,,,,,,,,,,,,1,,,right,0.46614387223962694,,,,,,,,,,,,,,1009,2019_May_08_1649,mf_amp_cond1,3.0.7,59.98472478399624,
hand,,&&&&,images/symbols/symbol_70.png,condition_files/AMP_rep4.csv,left,sanctity.virtue,,,,,,,,,,,,,,,,,,,,,0,1,1,3,0,43,43,43,,,,,,,,,,,,,1232.2468290448887,,,,,AMP_prac,right,1.2152057673083618,,,,,,,,,,,,,,,,,,,,,1,,,right,0.48246882285457104,,,,,,,,,,,,,,1009,2019_May_08_1649,mf_amp_cond1,3.0.7,59.98472478399624,
troops,,&&&&&&,images/symbols/symbol_24.png,condition_files/AMP_rep4.csv,right,loyalty.vice,,,,,,,,,,,,,,,,,,,,,0,1,1,3,0,44,44,44,,,,,,,,,,,,,1232.8968645805726,,,,,AMP_prac,right,1.2152057673083618,,,,,,,,,,,,,,,,,,,,,1,,,right,0.416880693519488,,,,,,,,,,,,,,1009,2019_May_08_1649,mf_amp_cond1,3.0.7,59.98472478399624,
freedom,,&&&&&&&,images/symbols/symbol_2.png,condition_files/AMP_rep4.csv,left,sanctity.virtue,,,,,,,,,,,,,,,,,,,,,0,1,1,3,0,45,45,45,,,,,,,,,,,,,1233.5971754862694,,,,,AMP_prac,right,1.2152057673083618,,,,,,,,,,,,,,,,,,,,,1,,,right,0.48173245054204017,,,,,,,,,,,,,,1009,2019_May_08_1649,mf_amp_cond1,3.0.7,59.98472478399624,
wheighlde,,&&&&&&&&&,images/symbols/symbol_9.png,condition_files/AMP_rep4.csv,None,nonword,,,,,,,,,,,,,,,,,,,,,0,1,1,3,0,46,46,46,,,,,,,,,,,,,1234.2973446337273,,,,,AMP_prac,right,1.2152057673083618,,,,,,,,,,,,,,,,,,,,,1,,,right,0.4822869747877121,,,,,,,,,,,,,,1009,2019_May_08_1649,mf_amp_cond1,3.0.7,59.98472478399624,
hate,,&&&&,images/symbols/symbol_43.png,condition_files/AMP_rep4.csv,right,fairness.vice,,,,,,,,,,,,,,,,,,,,,0,1,1,3,0,47,47,47,,,,,,,,,,,,,1235.1308904973557,,,,,AMP_prac,right,1.2152057673083618,,,,,,,,,,,,,,,,,,,,,1,,,right,0.61574547435157,,,,,,,,,,,,,,1009,2019_May_08_1649,mf_amp_cond1,3.0.7,59.98472478399624,
protect,,&&&&&&&,images/symbols/symbol_69.png,condition_files/AMP_rep4.csv,left,fairness.virtue,,,,,,,,,,,,,,,,,,,,,0,1,1,3,0,48,48,48,,,,,,,,,,,,,1235.8310606069863,,,,,AMP_prac,right,1.2152057673083618,,,,,,,,,,,,,,,,,,,,,1,,,right,0.4823084630770609,,,,,,,,,,,,,,1009,2019_May_08_1649,mf_amp_cond1,3.0.7,59.98472478399624,
voter,,&&&&&,images/symbols/symbol_34.png,condition_files/AMP_rep4.csv,right,fairness.vice,,,,,,,,,,,,,,,,,,,,,0,1,1,3,0,49,49,49,,,,,,,,,,,,,1236.6145700368797,,,,,AMP_prac,right,1.2152057673083618,,,,,,,,,,,,,,,,,,,,,1,,,right,0.5656554803717881,,,,,,,,,,,,,,1009,2019_May_08_1649,mf_amp_cond1,3.0.7,59.98472478399624,
groups,,&&&&&&,images/symbols/symbol_12.png,condition_files/AMP_rep4.csv,right,loyalty.vice,,,,,,,,,,,,,,,,,,,,,0,1,1,3,0,50,50,50,,,,,,,,,,,,,1237.3481001210166,,,,,AMP_prac,right,1.2152057673083618,,,,,,,,,,,,,,,,,,,,,1,,,right,0.5157964045647532,,,,,,,,,,,,,,1009,2019_May_08_1649,mf_amp_cond1,3.0.7,59.98472478399624,
crime,,&&&&&,images/symbols/symbol_7.png,condition_files/AMP_rep4.csv,right,fairness.vice,,,,,,,,,,,,,,,,,,,,,0,1,1,3,0,51,51,51,,,,,,,,,,,,,1238.1149686913704,,,,,AMP_prac,right,1.2152057673083618,,,,,,,,,,,,,,,,,,,,,1,,,right,0.5492378418566659,,,,,,,,,,,,,,1009,2019_May_08_1649,mf_amp_cond1,3.0.7,59.98472478399624,
abuse,,&&&&&,images/symbols/symbol_6.png,condition_files/AMP_rep4.csv,right,sanctity.vice,,,,,,,,,,,,,,,,,,,,,0,1,1,3,0,52,52,52,,,,,,,,,,,,,1239.0652593916748,,,,,AMP_prac,right,1.2152057673083618,,,,,,,,,,,,,,,,,,,,,1,,,right,0.7325159686151892,,,,,,,,,,,,,,1009,2019_May_08_1649,mf_amp_cond1,3.0.7,59.98472478399624,
health,,&&&&&&,images/symbols/symbol_29.png,condition_files/AMP_rep4.csv,left,care.virtue,,,,,,,,,,,,,,,,,,,,,0,1,1,3,0,53,53,53,,,,,,,,,,,,,1240.4155179557856,,,,,AMP_prac,right,1.2152057673083618,,,,,,,,,,,,,,,,,,,,,1,,,right,1.132402369636111,,,,,,,,,,,,,,1009,2019_May_08_1649,mf_amp_cond1,3.0.7,59.98472478399624,
trust,,&&&&&,images/symbols/symbol_38.png,condition_files/AMP_rep4.csv,left,authority.virtue,,,,,,,,,,,,,,,,,,,,,0,1,1,3,0,54,54,54,,,,,,,,,,,,,1241.6825071168132,,,,,AMP_prac,right,1.2152057673083618,,,,,,,,,,,,,,,,,,,,,1,,,left,1.048895954620093,,,,,,,,,,,,,,1009,2019_May_08_1649,mf_amp_cond1,3.0.7,59.98472478399624,
terrorists,,&&&&&&&&&&,images/symbols/symbol_50.png,condition_files/AMP_rep4.csv,right,fairness.vice,,,,,,,,,,,,,,,,,,,,,0,1,1,3,0,55,55,55,,,,,,,,,,,,,1242.5327069892082,,,,,AMP_prac,right,1.2152057673083618,,,,,,,,,,,,,,,,,,,,,1,,,left,0.632535147597082,,,,,,,,,,,,,,1009,2019_May_08_1649,mf_amp_cond1,3.0.7,59.98472478399624,
care,,&&&&,images/symbols/symbol_53.png,condition_files/AMP_rep4.csv,left,care.virtue,,,,,,,,,,,,,,,,,,,,,0,1,1,3,0,56,56,56,,,,,,,,,,,,,1243.8997193061514,,,,,AMP_prac,right,1.2152057673083618,,,,,,,,,,,,,,,,,,,,,1,,,left,1.1338606820208952,,,,,,,,,,,,,,1009,2019_May_08_1649,mf_amp_cond1,3.0.7,59.98472478399624,
wreize,,&&&&&&,images/symbols/symbol_23.png,condition_files/AMP_rep4.csv,None,nonword,,,,,,,,,,,,,,,,,,,,,0,1,1,3,0,57,57,57,,,,,,,,,,,,,1244.966650288552,,,,,AMP_prac,right,1.2152057673083618,,,,,,,,,,,,,,,,,,,,,1,,,right,0.8484365558251739,,,,,,,,,,,,,,1009,2019_May_08_1649,mf_amp_cond1,3.0.7,59.98472478399624,
celebrated,,&&&&&&&&&&,images/symbols/symbol_35.png,condition_files/AMP_rep4.csv,left,authority.virtue,,,,,,,,,,,,,,,,,,,,,0,1,1,3,0,58,58,58,,,,,,,,,,,,,1246.5170209121425,,,,,AMP_prac,right,1.2152057673083618,,,,,,,,,,,,,,,,,,,,,1,,,left,1.3325327101629227,,,,,,,,,,,,,,1009,2019_May_08_1649,mf_amp_cond1,3.0.7,59.98472478399624,
shypse,,&&&&&&,images/symbols/symbol_78.png,condition_files/AMP_rep4.csv,None,nonword,,,,,,,,,,,,,,,,,,,,,0,1,1,3,0,59,59,59,,,,,,,,,,,,,1248.067422324908,,,,,AMP_prac,right,1.2152057673083618,,,,,,,,,,,,,,,,,,,,,1,,,left,1.332441946491599,,,,,,,,,,,,,,1009,2019_May_08_1649,mf_amp_cond1,3.0.7,59.98472478399624,
intelligence,,&&&&&&&&&&&&,images/symbols/symbol_64.png,condition_files/AMP_rep4.csv,left,loyalty.virtue,,,,,,,,,,,,,,,,,,,,,0,1,1,3,0,60,60,60,,,,,,,,,,,,,1249.134335988434,,,,,AMP_prac,right,1.2152057673083618,,,,,,,,,,,,,,,,,,,,,1,,,left,0.8337678016396239,,,,,,,,,,,,,,1009,2019_May_08_1649,mf_amp_cond1,3.0.7,59.98472478399624,
civilians,,&&&&&&&&&,images/symbols/symbol_30.png,condition_files/AMP_rep4.csv,right,care.vice,,,,,,,,,,,,,,,,,,,,,0,1,1,3,0,61,61,61,,,,,,,,,,,,,1250.1345774903893,,,,,AMP_prac,right,1.2152057673083618,,,,,,,,,,,,,,,,,,,,,1,,,right,0.7821842161938548,,,,,,,,,,,,,,1009,2019_May_08_1649,mf_amp_cond1,3.0.7,59.98472478399624,
arrests,,&&&&&&&,images/symbols/symbol_51.png,condition_files/AMP_rep4.csv,right,authority.vice,,,,,,,,,,,,,,,,,,,,,0,1,1,3,0,62,62,62,,,,,,,,,,,,,1251.2348642778816,,,,,AMP_prac,right,1.2152057673083618,,,,,,,,,,,,,,,,,,,,,1,,,right,0.8829318778589368,,,,,,,,,,,,,,1009,2019_May_08_1649,mf_amp_cond1,3.0.7,59.98472478399624,
free,,&&&&,images/symbols/symbol_11.png,condition_files/AMP_rep4.csv,left,fairness.virtue,,,,,,,,,,,,,,,,,,,,,0,1,1,3,0,63,63,63,,,,,,,,,,,,,1252.2017563889967,,,,,AMP_prac,right,1.2152057673083618,,,,,,,,,,,,,,,,,,,,,1,,,right,0.7489804322831333,,,,,,,,,,,,,,1009,2019_May_08_1649,mf_amp_cond1,3.0.7,59.98472478399624,
prosecution,,&&&&&&&&&&&,images/symbols/symbol_27.png,condition_files/AMP_rep4.csv,right,authority.vice,,,,,,,,,,,,,,,,,,,,,0,1,1,3,0,64,64,64,,,,,,,,,,,,,1253.0519678074634,,,,,AMP_prac,right,1.2152057673083618,,,,,,,,,,,,,,,,,,,,,1,,,right,0.6321666408330202,,,,,,,,,,,,,,1009,2019_May_08_1649,mf_amp_cond1,3.0.7,59.98472478399624,
violence,,&&&&&&&&,images/symbols/symbol_26.png,condition_files/AMP_rep4.csv,right,care.vice,,,,,,,,,,,,,,,,,,,,,0,1,1,3,0,65,65,65,,,,,,,,,,,,,1254.0188762752805,,,,,AMP_prac,right,1.2152057673083618,,,,,,,,,,,,,,,,,,,,,1,,,right,0.748947718879208,,,,,,,,,,,,,,1009,2019_May_08_1649,mf_amp_cond1,3.0.7,59.98472478399624,
faith,,&&&&&,images/symbols/symbol_10.png,condition_files/AMP_rep4.csv,left,sanctity.virtue,,,,,,,,,,,,,,,,,,,,,0,1,1,3,0,66,66,66,,,,,,,,,,,,,1255.0191174565116,,,,,AMP_prac,right,1.2152057673083618,,,,,,,,,,,,,,,,,,,,,1,,,left,0.782606924767606,,,,,,,,,,,,,,1009,2019_May_08_1649,mf_amp_cond1,3.0.7,59.98472478399624,
victims,,&&&&&&&,images/symbols/symbol_1.png,condition_files/AMP_rep4.csv,right,care.vice,,,,,,,,,,,,,,,,,,,,,0,1,1,3,0,67,67,67,,,,,,,,,,,,,1256.1194401646499,,,,,AMP_prac,right,1.2152057673083618,,,,,,,,,,,,,,,,,,,,,1,,,right,0.8823773536132649,,,,,,,,,,,,,,1009,2019_May_08_1649,mf_amp_cond1,3.0.7,59.98472478399624,
interests,,&&&&&&&&&,images/symbols/symbol_72.png,condition_files/AMP_rep4.csv,left,fairness.virtue,,,,,,,,,,,,,,,,,,,,,0,1,1,3,0,68,68,68,,,,,,,,,,,,,1257.1863214354962,,,,,AMP_prac,right,1.2152057673083618,,,,,,,,,,,,,,,,,,,,,1,,,right,0.8337790266377851,,,,,,,,,,,,,,1009,2019_May_08_1649,mf_amp_cond1,3.0.7,59.98472478399624,
hope,,&&&&,images/symbols/symbol_19.png,condition_files/AMP_rep4.csv,left,loyalty.virtue,,,,,,,,,,,,,,,,,,,,,0,1,1,3,0,69,69,69,,,,,,,,,,,,,1258.5699993072776,,,,,AMP_prac,right,1.2152057673083618,,,,,,,,,,,,,,,,,,,,,1,,,left,1.1653024322586134,,,,,,,,,,,,,,1009,2019_May_08_1649,mf_amp_cond1,3.0.7,59.98472478399624,
war,,&&&,images/symbols/symbol_39.png,condition_files/AMP_rep4.csv,right,sanctity.vice,,,,,,,,,,,,,,,,,,,,,0,1,1,3,0,70,70,70,,,,,,,,,,,,,1259.6702697380679,,,,,AMP_prac,right,1.2152057673083618,,,,,,,,,,,,,,,,,,,,,1,,,right,0.8824071804992855,,,,,,,,,,,,,,1009,2019_May_08_1649,mf_amp_cond1,3.0.7,59.98472478399624,
credit,,&&&&&&,images/symbols/symbol_46.png,condition_files/AMP_rep4.csv,left,fairness.virtue,,,,,,,,,,,,,,,,,,,,,0,1,1,3,0,71,71,71,,,,,,,,,,,,,1260.3371100209188,,,,,AMP_prac,right,1.2152057673083618,,,,,,,,,,,,,,,,,,,,,1,,,right,0.449065872002393,,,,,,,,,,,,,,1009,2019_May_08_1649,mf_amp_cond1,3.0.7,59.98472478399624,
clean,,&&&&&,images/symbols/symbol_45.png,condition_files/AMP_rep4.csv,left,sanctity.virtue,,,,,,,,,,,,,,,,,,,,,0,1,1,3,0,72,72,72,,,,,,,,,,,,,1261.170639207121,,,,,AMP_prac,right,1.2152057673083618,,,,,,,,,,,,,,,,,,,,,1,,,right,0.6157332870643586,,,,,,,,,,,,,,1009,2019_May_08_1649,mf_amp_cond1,3.0.7,59.98472478399624,
integrity,,&&&&&&&&&,images/symbols/symbol_59.png,condition_files/AMP_rep4.csv,left,fairness.virtue,,,,,,,,,,,,,,,,,,,,,0,1,1,3,0,73,73,73,,,,,,,,,,,,,1261.9041631974978,,,,,AMP_prac,right,1.2152057673083618,,,,,,,,,,,,,,,,,,,,,1,,,right,0.5156915292609483,,,,,,,,,,,,,,1009,2019_May_08_1649,mf_amp_cond1,3.0.7,59.98472478399624,
help,,&&&&,images/symbols/symbol_74.png,condition_files/AMP_rep4.csv,left,care.virtue,,,,,,,,,,,,,,,,,,,,,0,1,1,3,0,74,74,74,,,,,,,,,,,,,1262.6377096383367,,,,,AMP_prac,right,1.2152057673083618,,,,,,,,,,,,,,,,,,,,,1,,,left,0.5004384237108752,,,,,,,,,,,,,,1009,2019_May_08_1649,mf_amp_cond1,3.0.7,59.98472478399624,
creinned,,&&&&&&&&,images/symbols/symbol_42.png,condition_files/AMP_rep4.csv,None,nonword,,,,,,,,,,,,,,,,,,,,,0,1,1,3,0,75,75,75,,,,,,,,,,,,,1263.3211911014514,,,,,AMP_prac,right,1.2152057673083618,,,,,,,,,,,,,,,,,,,,,1,,,left,0.46501365618314594,,,,,,,,,,,,,,1009,2019_May_08_1649,mf_amp_cond1,3.0.7,59.98472478399624,
praise,,&&&&&&,images/symbols/symbol_71.png,condition_files/AMP_rep4.csv,left,authority.virtue,,,,,,,,,,,,,,,,,,,,,0,1,1,3,0,76,76,76,,,,,,,,,,,,,1264.2047233664198,,,,,AMP_prac,right,1.2152057673083618,,,,,,,,,,,,,,,,,,,,,1,,,left,0.6657873603980988,,,,,,,,,,,,,,1009,2019_May_08_1649,mf_amp_cond1,3.0.7,59.98472478399624,
safety,,&&&&&&,images/symbols/symbol_21.png,condition_files/AMP_rep4.csv,left,care.virtue,,,,,,,,,,,,,,,,,,,,,0,1,1,3,0,77,77,77,,,,,,,,,,,,,1265.0382657020818,,,,,AMP_prac,right,1.2152057673083618,,,,,,,,,,,,,,,,,,,,,1,,,right,0.6159680536948144,,,,,,,,,,,,,,1009,2019_May_08_1649,mf_amp_cond1,3.0.7,59.98472478399624,
shot,,&&&&,images/symbols/symbol_68.png,condition_files/AMP_rep4.csv,right,care.vice,,,,,,,,,,,,,,,,,,,,,0,1,1,3,0,78,78,78,,,,,,,,,,,,,1266.5719717330066,,,,,AMP_prac,right,1.2152057673083618,,,,,,,,,,,,,,,,,,,,,1,,,right,1.3158132744720206,,,,,,,,,,,,,,1009,2019_May_08_1649,mf_amp_cond1,3.0.7,59.98472478399624,
good,,&&&&,images/symbols/symbol_66.png,condition_files/AMP_rep4.csv,left,care.virtue,,,,,,,,,,,,,,,,,,,,,0,1,1,3,0,79,79,79,,,,,,,,,,,,,1267.6555769296829,,,,,AMP_prac,right,1.2152057673083618,,,,,,,,,,,,,,,,,,,,,1,,,left,0.865878893644549,,,,,,,,,,,,,,1009,2019_May_08_1649,mf_amp_cond1,3.0.7,59.98472478399624,
strength,,&&&&&&&&,images/symbols/symbol_76.png,condition_files/AMP_rep4.csv,left,sanctity.virtue,,,,,,,,,,,,,,,,,,,,,0,1,1,3,0,80,80,80,,,,,,,,,,,,,1269.2224979698658,,,,,AMP_prac,right,1.2152057673083618,,,,,,,,,,,,,,,,,,,,,1,,,left,1.349454199313186,,,,,,,,,,,,,,1009,2019_May_08_1649,mf_amp_cond1,3.0.7,59.98472478399624,
embrace,,&&&&&&&,images/symbols/symbol_31.png,condition_files/AMP_rep4.csv,left,authority.virtue,,,,,,,,,,,,,,,,,,,,,0,1,1,3,0,81,81,81,,,,,,,,,,,,,1272.1066748813028,,,,,AMP_prac,right,1.2152057673083618,,,,,,,,,,,,,,,,,,,,,1,,,left,2.6508985923137516,,,,,,,,,,,,,,1009,2019_May_08_1649,mf_amp_cond1,3.0.7,59.98472478399624,
,,,,condition_files/AMP_rep4.csv,,,,,,,,,,,,,,,,,,,,,,,0,1,1,3,,,,,,,,,,,,,,,,,,,,,,,,,,,,,,,,,,,,,,,,,,,,,,,,,,right,22.589161343756132,,,,,,,,,,,,1009,2019_May_08_1649,mf_amp_cond1,3.0.7,59.98472478399624,
charges,,&&&&&&&,images/symbols/symbol_65.png,condition_files/AMP_rep2.csv,right,fairness.vice,,,,,,,,,,,,,,,,,,,,,0,2,2,1,0,0,0,0,,,,,,,,,,,,,1295.812664448982,,,,,AMP_prac,right,1.2152057673083618,,,,,,,,,,,,,,,,,,,,,1,,,left,0.867124889511615,,,,,,,,,,,,,,1009,2019_May_08_1649,mf_amp_cond1,3.0.7,59.98472478399624,
betrayal,,&&&&&&&&,images/symbols/symbol_57.png,condition_files/AMP_rep2.csv,right,loyalty.vice,,,,,,,,,,,,,,,,,,,,,0,2,2,1,0,1,1,1,,,,,,,,,,,,,1296.8961240389617,,,,,AMP_prac,right,1.2152057673083618,,,,,,,,,,,,,,,,,,,,,1,,,left,0.8653112198226154,,,,,,,,,,,,,,1009,2019_May_08_1649,mf_amp_cond1,3.0.7,59.98472478399624,
rebels,,&&&&&&,images/symbols/symbol_28.png,condition_files/AMP_rep2.csv,right,authority.vice,,,,,,,,,,,,,,,,,,,,,0,2,2,1,0,2,2,2,,,,,,,,,,,,,1297.7129905567272,,,,,AMP_prac,right,1.2152057673083618,,,,,,,,,,,,,,,,,,,,,1,,,left,0.5837283530272543,,,,,,,,,,,,,,1009,2019_May_08_1649,mf_amp_cond1,3.0.7,59.98472478399624,
men,,&&&,images/symbols/symbol_22.png,condition_files/AMP_rep2.csv,right,loyalty.vice,,,,,,,,,,,,,,,,,,,,,0,2,2,1,0,3,3,3,,,,,,,,,,,,,1298.529859319562,,,,,AMP_prac,right,1.2152057673083618,,,,,,,,,,,,,,,,,,,,,1,,,right,0.5986524001928046,,,,,,,,,,,,,,1009,2019_May_08_1649,mf_amp_cond1,3.0.7,59.98472478399624,
promised,,&&&&&&&&,images/symbols/symbol_40.png,condition_files/AMP_rep2.csv,left,loyalty.virtue,,,,,,,,,,,,,,,,,,,,,0,2,2,1,0,4,4,4,,,,,,,,,,,,,1299.3800601541298,,,,,AMP_prac,right,1.2152057673083618,,,,,,,,,,,,,,,,,,,,,1,,,left,0.6323526581982151,,,,,,,,,,,,,,1009,2019_May_08_1649,mf_amp_cond1,3.0.7,59.98472478399624,
values,,&&&&&&,images/symbols/symbol_81.png,condition_files/AMP_rep2.csv,left,sanctity.virtue,,,,,,,,,,,,,,,,,,,,,0,2,2,1,0,5,5,5,,,,,,,,,,,,,1300.0802392440382,,,,,AMP_prac,right,1.2152057673083618,,,,,,,,,,,,,,,,,,,,,1,,,left,0.4670335485134274,,,,,,,,,,,,,,1009,2019_May_08_1649,mf_amp_cond1,3.0.7,59.98472478399624,
ability,,&&&&&&&,images/symbols/symbol_52.png,condition_files/AMP_rep2.csv,left,authority.virtue,,,,,,,,,,,,,,,,,,,,,0,2,2,1,0,6,6,6,,,,,,,,,,,,,1300.7304563070647,,,,,AMP_prac,right,1.2152057673083618,,,,,,,,,,,,,,,,,,,,,1,,,left,0.4324086557608098,,,,,,,,,,,,,,1009,2019_May_08_1649,mf_amp_cond1,3.0.7,59.98472478399624,
scourld,,&&&&&&&,images/symbols/symbol_58.png,condition_files/AMP_rep2.csv,None,nonword,,,,,,,,,,,,,,,,,,,,,0,2,2,1,0,7,7,7,,,,,,,,,,,,,1301.580470162211,,,,,AMP_prac,right,1.2152057673083618,,,,,,,,,,,,,,,,,,,,,1,,,left,0.6321983920643106,,,,,,,,,,,,,,1009,2019_May_08_1649,mf_amp_cond1,3.0.7,59.98472478399624,
increase,,&&&&&&&&,images/symbols/symbol_79.png,condition_files/AMP_rep2.csv,left,care.virtue,,,,,,,,,,,,,,,,,,,,,0,2,2,1,0,8,8,8,,,,,,,,,,,,,1302.3141371936072,,,,,AMP_prac,right,1.2152057673083618,,,,,,,,,,,,,,,,,,,,,1,,,right,0.5154371985699981,,,,,,,,,,,,,,1009,2019_May_08_1649,mf_amp_cond1,3.0.7,59.98472478399624,
fraud,,&&&&&,images/symbols/symbol_77.png,condition_files/AMP_rep2.csv,right,fairness.vice,,,,,,,,,,,,,,,,,,,,,0,2,2,1,0,9,9,9,,,,,,,,,,,,,1302.997622505296,,,,,AMP_prac,right,1.2152057673083618,,,,,,,,,,,,,,,,,,,,,1,,,right,0.4658093616599217,,,,,,,,,,,,,,1009,2019_May_08_1649,mf_amp_cond1,3.0.7,59.98472478399624,
pleasant,,&&&&&&&,images/symbols/symbol_48.png,condition_files/AMP_rep2.csv,right,control,,,,,,,,,,,,,,,,,,,,,0,2,2,1,0,10,10,10,,,,,,,,,,,,,1303.681124494411,,,,,AMP_prac,right,1.2152057673083618,,,,,,,,,,,,,,,,,,,,,1,,,right,0.46568299806676805,,,,,,,,,,,,,,1009,2019_May_08_1649,mf_amp_cond1,3.0.7,59.98472478399624,
slavery,,&&&&&&&,images/symbols/symbol_18.png,condition_files/AMP_rep2.csv,right,loyalty.vice,,,,,,,,,,,,,,,,,,,,,0,2,2,1,0,11,11,11,,,,,,,,,,,,,1304.4146462398348,,,,,AMP_prac,right,1.2152057673083618,,,,,,,,,,,,,,,,,,,,,1,,,right,0.5158640764420852,,,,,,,,,,,,,,1009,2019_May_08_1649,mf_amp_cond1,3.0.7,59.98472478399624,
serial,,&&&&&&,images/symbols/symbol_33.png,condition_files/AMP_rep2.csv,right,sanctity.vice,,,,,,,,,,,,,,,,,,,,,0,2,2,1,0,12,12,12,,,,,,,,,,,,,1305.0314613141818,,,,,AMP_prac,right,1.2152057673083618,,,,,,,,,,,,,,,,,,,,,1,,,right,0.3991535567911342,,,,,,,,,,,,,,1009,2019_May_08_1649,mf_amp_cond1,3.0.7,59.98472478399624,
officers,,&&&&&&&&,images/symbols/symbol_36.png,condition_files/AMP_rep2.csv,right,authority.vice,,,,,,,,,,,,,,,,,,,,,0,2,2,1,0,13,13,13,,,,,,,,,,,,,1305.6149385436438,,,,,AMP_prac,right,1.2152057673083618,,,,,,,,,,,,,,,,,,,,,1,,,right,0.36571340227965266,,,,,,,,,,,,,,1009,2019_May_08_1649,mf_amp_cond1,3.0.7,59.98472478399624,
death,,&&&&&,images/symbols/symbol_32.png,condition_files/AMP_rep2.csv,right,care.vice,,,,,,,,,,,,,,,,,,,,,0,2,2,1,0,14,14,14,,,,,,,,,,,,,1306.5318333489122,,,,,AMP_prac,right,1.2152057673083618,,,,,,,,,,,,,,,,,,,,,1,,,left,0.6988448960473761,,,,,,,,,,,,,,1009,2019_May_08_1649,mf_amp_cond1,3.0.7,59.98472478399624,
wence,,&&&&&,images/symbols/symbol_61.png,condition_files/AMP_rep2.csv,None,nonword,,,,,,,,,,,,,,,,,,,,,0,2,2,1,0,15,15,15,,,,,,,,,,,,,1307.3153501552297,,,,,AMP_prac,right,1.2152057673083618,,,,,,,,,,,,,,,,,,,,,1,,,left,0.5503616434289142,,,,,,,,,,,,,,1009,2019_May_08_1649,mf_amp_cond1,3.0.7,59.98472478399624,
unpleasant,,&&&&&&&&&,images/symbols/symbol_82.png,condition_files/AMP_rep2.csv,left,control,,,,,,,,,,,,,,,,,,,,,0,2,2,1,0,16,16,16,,,,,,,,,,,,,1308.082217442803,,,,,AMP_prac,right,1.2152057673083618,,,,,,,,,,,,,,,,,,,,,1,,,left,0.5489321959903464,,,,,,,,,,,,,,1009,2019_May_08_1649,mf_amp_cond1,3.0.7,59.98472478399624,
encourage,,&&&&&&&&&,images/symbols/symbol_55.png,condition_files/AMP_rep2.csv,left,authority.virtue,,,,,,,,,,,,,,,,,,,,,0,2,2,1,0,17,17,17,,,,,,,,,,,,,1308.9157517604763,,,,,AMP_prac,right,1.2152057673083618,,,,,,,,,,,,,,,,,,,,,1,,,left,0.6156184693099931,,,,,,,,,,,,,,1009,2019_May_08_1649,mf_amp_cond1,3.0.7,59.98472478399624,
gun,,&&&,images/symbols/symbol_80.png,condition_files/AMP_rep2.csv,right,authority.vice,,,,,,,,,,,,,,,,,,,,,0,2,2,1,0,18,18,18,,,,,,,,,,,,,1309.7993000614224,,,,,AMP_prac,right,1.2152057673083618,,,,,,,,,,,,,,,,,,,,,1,,,left,0.6660362387774512,,,,,,,,,,,,,,1009,2019_May_08_1649,mf_amp_cond1,3.0.7,59.98472478399624,
black,,&&&&&,images/symbols/symbol_56.png,condition_files/AMP_rep2.csv,right,loyalty.vice,,,,,,,,,,,,,,,,,,,,,0,2,2,1,0,19,19,19,,,,,,,,,,,,,1310.5661657453747,,,,,AMP_prac,right,1.2152057673083618,,,,,,,,,,,,,,,,,,,,,1,,,right,0.5337204633979127,,,,,,,,,,,,,,1009,2019_May_08_1649,mf_amp_cond1,3.0.7,59.98472478399624,
penalty,,&&&&&&&,images/symbols/symbol_37.png,condition_files/AMP_rep2.csv,right,authority.vice,,,,,,,,,,,,,,,,,,,,,0,2,2,1,0,20,20,20,,,,,,,,,,,,,1311.7997997426428,,,,,AMP_prac,right,1.2152057673083618,,,,,,,,,,,,,,,,,,,,,1,,,right,1.0005012847250327,,,,,,,,,,,,,,1009,2019_May_08_1649,mf_amp_cond1,3.0.7,59.98472478399624,
support,,&&&&&&&,images/symbols/symbol_14.png,condition_files/AMP_rep2.csv,left,loyalty.virtue,,,,,,,,,,,,,,,,,,,,,0,2,2,1,0,21,21,21,,,,,,,,,,,,,1312.833389993757,,,,,AMP_prac,right,1.2152057673083618,,,,,,,,,,,,,,,,,,,,,1,,,left,0.815594864427112,,,,,,,,,,,,,,1009,2019_May_08_1649,mf_amp_cond1,3.0.7,59.98472478399624,
stealde,,&&&&&&&,images/symbols/symbol_3.png,condition_files/AMP_rep2.csv,None,nonword,,,,,,,,,,,,,,,,,,,,,0,2,2,1,0,22,22,22,,,,,,,,,,,,,1313.5669062869856,,,,,AMP_prac,right,1.2152057673083618,,,,,,,,,,,,,,,,,,,,,1,,,left,0.515804101829417,,,,,,,,,,,,,,1009,2019_May_08_1649,mf_amp_cond1,3.0.7,59.98472478399624,
fair,,&&&&,images/symbols/symbol_62.png,condition_files/AMP_rep2.csv,left,fairness.virtue,,,,,,,,,,,,,,,,,,,,,0,2,2,1,0,23,23,23,,,,,,,,,,,,,1314.633823478478,,,,,AMP_prac,right,1.2152057673083618,,,,,,,,,,,,,,,,,,,,,1,,,left,0.8490263592684641,,,,,,,,,,,,,,1009,2019_May_08_1649,mf_amp_cond1,3.0.7,59.98472478399624,
mawlde,,&&&&&&,images/symbols/symbol_41.png,condition_files/AMP_rep2.csv,None,nonword,,,,,,,,,,,,,,,,,,,,,0,2,2,1,0,24,24,24,,,,,,,,,,,,,1315.5174080207944,,,,,AMP_prac,right,1.2152057673083618,,,,,,,,,,,,,,,,,,,,,1,,,right,0.6662905694684014,,,,,,,,,,,,,,1009,2019_May_08_1649,mf_amp_cond1,3.0.7,59.98472478399624,
forced,,&&&&&&,images/symbols/symbol_60.png,condition_files/AMP_rep2.csv,right,fairness.vice,,,,,,,,,,,,,,,,,,,,,0,2,2,1,0,25,25,25,,,,,,,,,,,,,1316.3509099457879,,,,,AMP_prac,right,1.2152057673083618,,,,,,,,,,,,,,,,,,,,,1,,,right,0.6003817204618827,,,,,,,,,,,,,,1009,2019_May_08_1649,mf_amp_cond1,3.0.7,59.98472478399624,
peace,,&&&&&,images/symbols/symbol_47.png,condition_files/AMP_rep2.csv,left,care.virtue,,,,,,,,,,,,,,,,,,,,,0,2,2,1,0,26,26,26,,,,,,,,,,,,,1317.5345331669087,,,,,AMP_prac,right,1.2152057673083618,,,,,,,,,,,,,,,,,,,,,1,,,right,0.9655091681051999,,,,,,,,,,,,,,1009,2019_May_08_1649,mf_amp_cond1,3.0.7,59.98472478399624,
freazz,,&&&&&&,images/symbols/symbol_17.png,condition_files/AMP_rep2.csv,None,nonword,,,,,,,,,,,,,,,,,,,,,0,2,2,1,0,27,27,27,,,,,,,,,,,,,1318.9015695378184,,,,,AMP_prac,right,1.2152057673083618,,,,,,,,,,,,,,,,,,,,,1,,,left,1.14928441029042,,,,,,,,,,,,,,1009,2019_May_08_1649,mf_amp_cond1,3.0.7,59.98472478399624,
great,,&&&&&,images/symbols/symbol_67.png,condition_files/AMP_rep2.csv,left,loyalty.virtue,,,,,,,,,,,,,,,,,,,,,0,2,2,1,0,28,28,28,,,,,,,,,,,,,1320.6186515149893,,,,,AMP_prac,right,1.2152057673083618,,,,,,,,,,,,,,,,,,,,,1,,,left,1.4991363019216806,,,,,,,,,,,,,,1009,2019_May_08_1649,mf_amp_cond1,3.0.7,59.98472478399624,
scandal,,&&&&&&&,images/symbols/symbol_73.png,condition_files/AMP_rep2.csv,right,sanctity.vice,,,,,,,,,,,,,,,,,,,,,0,2,2,1,0,29,29,29,,,,,,,,,,,,,1321.3688179685269,,,,,AMP_prac,right,1.2152057673083618,,,,,,,,,,,,,,,,,,,,,1,,,right,0.5323535562492907,,,,,,,,,,,,,,1009,2019_May_08_1649,mf_amp_cond1,3.0.7,59.98472478399624,
sexual,,&&&&&&,images/symbols/symbol_13.png,condition_files/AMP_rep2.csv,right,sanctity.vice,,,,,,,,,,,,,,,,,,,,,0,2,2,1,0,30,30,30,,,,,,,,,,,,,1321.9856513238046,,,,,AMP_prac,right,1.2152057673083618,,,,,,,,,,,,,,,,,,,,,1,,,right,0.39897299162112176,,,,,,,,,,,,,,1009,2019_May_08_1649,mf_amp_cond1,3.0.7,59.98472478399624,
torture,,&&&&&&&,images/symbols/symbol_16.png,condition_files/AMP_rep2.csv,right,care.vice,,,,,,,,,,,,,,,,,,,,,0,2,2,1,0,31,31,31,,,,,,,,,,,,,1322.535772106843,,,,,AMP_prac,right,1.2152057673083618,,,,,,,,,,,,,,,,,,,,,1,,,right,0.3325776109704748,,,,,,,,,,,,,,1009,2019_May_08_1649,mf_amp_cond1,3.0.7,59.98472478399624,
naidd,,&&&&&,images/symbols/symbol_4.png,condition_files/AMP_rep2.csv,None,nonword,,,,,,,,,,,,,,,,,,,,,0,2,2,1,0,32,32,32,,,,,,,,,,,,,1323.5526881437982,,,,,AMP_prac,right,1.2152057673083618,,,,,,,,,,,,,,,,,,,,,1,,,left,0.7990194318117574,,,,,,,,,,,,,,1009,2019_May_08_1649,mf_amp_cond1,3.0.7,59.98472478399624,
loyalty,,&&&&&&&,images/symbols/symbol_49.png,condition_files/AMP_rep2.csv,left,loyalty.virtue,,,,,,,,,,,,,,,,,,,,,0,2,2,1,0,33,33,33,,,,,,,,,,,,,1324.3695639624493,,,,,AMP_prac,right,1.2152057673083618,,,,,,,,,,,,,,,,,,,,,1,,,right,0.583709430648014,,,,,,,,,,,,,,1009,2019_May_08_1649,mf_amp_cond1,3.0.7,59.98472478399624,
refused,,&&&&&&&,images/symbols/symbol_25.png,condition_files/AMP_rep2.csv,right,authority.vice,,,,,,,,,,,,,,,,,,,,,0,2,2,1,0,34,34,34,,,,,,,,,,,,,1324.953057227889,,,,,AMP_prac,right,1.2152057673083618,,,,,,,,,,,,,,,,,,,,,1,,,right,0.365179083426483,,,,,,,,,,,,,,1009,2019_May_08_1649,mf_amp_cond1,3.0.7,59.98472478399624,
victim,,&&&&&&,images/symbols/symbol_54.png,condition_files/AMP_rep2.csv,right,care.vice,,,,,,,,,,,,,,,,,,,,,0,2,2,1,0,35,35,35,,,,,,,,,,,,,1325.5198503008578,,,,,AMP_prac,right,1.2152057673083618,,,,,,,,,,,,,,,,,,,,,1,,,right,0.3488621508004144,,,,,,,,,,,,,,1009,2019_May_08_1649,mf_amp_cond1,3.0.7,59.98472478399624,
failure,,&&&&&&&,images/symbols/symbol_5.png,condition_files/AMP_rep2.csv,right,loyalty.vice,,,,,,,,,,,,,,,,,,,,,0,2,2,1,0,36,36,36,,,,,,,,,,,,,1326.3200361899799,,,,,AMP_prac,right,1.2152057673083618,,,,,,,,,,,,,,,,,,,,,1,,,left,0.5824698491487652,,,,,,,,,,,,,,1009,2019_May_08_1649,mf_amp_cond1,3.0.7,59.98472478399624,
sharing,,&&&&&&&,images/symbols/symbol_75.png,condition_files/AMP_rep2.csv,left,loyalty.virtue,,,,,,,,,,,,,,,,,,,,,0,2,2,1,0,37,37,37,,,,,,,,,,,,,1327.22026544041,,,,,AMP_prac,right,1.2152057673083618,,,,,,,,,,,,,,,,,,,,,1,,,right,0.6825109653873369,,,,,,,,,,,,,,1009,2019_May_08_1649,mf_amp_cond1,3.0.7,59.98472478399624,
drug,,&&&&,images/symbols/symbol_44.png,condition_files/AMP_rep2.csv,right,sanctity.vice,,,,,,,,,,,,,,,,,,,,,0,2,2,1,0,38,38,38,,,,,,,,,,,,,1329.3541402340634,,,,,AMP_prac,right,1.2152057673083618,,,,,,,,,,,,,,,,,,,,,1,,,left,1.9160416909726337,,,,,,,,,,,,,,1009,2019_May_08_1649,mf_amp_cond1,3.0.7,59.98472478399624,
commitment,,&&&&&&&&&&,images/symbols/symbol_8.png,condition_files/AMP_rep2.csv,left,sanctity.virtue,,,,,,,,,,,,,,,,,,,,,0,2,2,1,0,39,39,39,,,,,,,,,,,,,1330.4210519732442,,,,,AMP_prac,right,1.2152057673083618,,,,,,,,,,,,,,,,,,,,,1,,,left,0.8489869107725099,,,,,,,,,,,,,,1009,2019_May_08_1649,mf_amp_cond1,3.0.7,59.98472478399624,
violations,,&&&&&&&&&&,images/symbols/symbol_63.png,condition_files/AMP_rep2.csv,right,sanctity.vice,,,,,,,,,,,,,,,,,,,,,0,2,2,1,0,40,40,40,,,,,,,,,,,,,1331.2379168873886,,,,,AMP_prac,right,1.2152057673083618,,,,,,,,,,,,,,,,,,,,,1,,,left,0.5992402792908251,,,,,,,,,,,,,,1009,2019_May_08_1649,mf_amp_cond1,3.0.7,59.98472478399624,
ensure,,&&&&&&,images/symbols/symbol_15.png,condition_files/AMP_rep2.csv,left,fairness.virtue,,,,,,,,,,,,,,,,,,,,,0,2,2,1,0,41,41,41,,,,,,,,,,,,,1332.3882029051892,,,,,AMP_prac,right,1.2152057673083618,,,,,,,,,,,,,,,,,,,,,1,,,left,0.9325321328360587,,,,,,,,,,,,,,1009,2019_May_08_1649,mf_amp_cond1,3.0.7,59.98472478399624,
honored,,&&&&&&&,images/symbols/symbol_20.png,condition_files/AMP_rep2.csv,left,authority.virtue,,,,,,,,,,,,,,,,,,,,,0,2,2,1,0,42,42,42,,,,,,,,,,,,,1333.3383005323121,,,,,AMP_prac,right,1.2152057673083618,,,,,,,,,,,,,,,,,,,,,1,,,right,0.7328835133230314,,,,,,,,,,,,,,1009,2019_May_08_1649,mf_amp_cond1,3.0.7,59.98472478399624,
hand,,&&&&,images/symbols/symbol_70.png,condition_files/AMP_rep2.csv,left,sanctity.virtue,,,,,,,,,,,,,,,,,,,,,0,2,2,1,0,43,43,43,,,,,,,,,,,,,1333.9384587111417,,,,,AMP_prac,right,1.2152057673083618,,,,,,,,,,,,,,,,,,,,,1,,,right,0.3823180205654353,,,,,,,,,,,,,,1009,2019_May_08_1649,mf_amp_cond1,3.0.7,59.98472478399624,
troops,,&&&&&&,images/symbols/symbol_24.png,condition_files/AMP_rep2.csv,right,loyalty.vice,,,,,,,,,,,,,,,,,,,,,0,2,2,1,0,44,44,44,,,,,,,,,,,,,1334.5387547995197,,,,,AMP_prac,right,1.2152057673083618,,,,,,,,,,,,,,,,,,,,,1,,,right,0.3670232213335112,,,,,,,,,,,,,,1009,2019_May_08_1649,mf_amp_cond1,3.0.7,59.98472478399624,
freedom,,&&&&&&&,images/symbols/symbol_2.png,condition_files/AMP_rep2.csv,left,sanctity.virtue,,,,,,,,,,,,,,,,,,,,,0,2,2,1,0,45,45,45,,,,,,,,,,,,,1335.1055417788448,,,,,AMP_prac,right,1.2152057673083618,,,,,,,,,,,,,,,,,,,,,1,,,right,0.34868126502260566,,,,,,,,,,,,,,1009,2019_May_08_1649,mf_amp_cond1,3.0.7,59.98472478399624,
wheighlde,,&&&&&&&&&,images/symbols/symbol_9.png,condition_files/AMP_rep2.csv,None,nonword,,,,,,,,,,,,,,,,,,,,,0,2,2,1,0,46,46,46,,,,,,,,,,,,,1335.6890174048021,,,,,AMP_prac,right,1.2152057673083618,,,,,,,,,,,,,,,,,,,,,1,,,right,0.3656790853710845,,,,,,,,,,,,,,1009,2019_May_08_1649,mf_amp_cond1,3.0.7,59.98472478399624,
hate,,&&&&,images/symbols/symbol_43.png,condition_files/AMP_rep2.csv,right,fairness.vice,,,,,,,,,,,,,,,,,,,,,0,2,2,1,0,47,47,47,,,,,,,,,,,,,1336.5058826396707,,,,,AMP_prac,right,1.2152057673083618,,,,,,,,,,,,,,,,,,,,,1,,,right,0.599121933686547,,,,,,,,,,,,,,1009,2019_May_08_1649,mf_amp_cond1,3.0.7,59.98472478399624,
protect,,&&&&&&&,images/symbols/symbol_69.png,condition_files/AMP_rep2.csv,left,fairness.virtue,,,,,,,,,,,,,,,,,,,,,0,2,2,1,0,48,48,48,,,,,,,,,,,,,1338.3063764196122,,,,,AMP_prac,right,1.2152057673083618,,,,,,,,,,,,,,,,,,,,,1,,,right,1.5826215494889766,,,,,,,,,,,,,,1009,2019_May_08_1649,mf_amp_cond1,3.0.7,59.98472478399624,
voter,,&&&&&,images/symbols/symbol_34.png,condition_files/AMP_rep2.csv,right,fairness.vice,,,,,,,,,,,,,,,,,,,,,0,2,2,1,0,49,49,49,,,,,,,,,,,,,1340.9069682115223,,,,,AMP_prac,right,1.2152057673083618,,,,,,,,,,,,,,,,,,,,,1,,,right,2.382753557758406,,,,,,,,,,,,,,1009,2019_May_08_1649,mf_amp_cond1,3.0.7,59.98472478399624,
groups,,&&&&&&,images/symbols/symbol_12.png,condition_files/AMP_rep2.csv,right,loyalty.vice,,,,,,,,,,,,,,,,,,,,,0,2,2,1,0,50,50,50,,,,,,,,,,,,,1342.1072605154477,,,,,AMP_prac,right,1.2152057673083618,,,,,,,,,,,,,,,,,,,,,1,,,right,0.9671397067140788,,,,,,,,,,,,,,1009,2019_May_08_1649,mf_amp_cond1,3.0.7,59.98472478399624,
crime,,&&&&&,images/symbols/symbol_7.png,condition_files/AMP_rep2.csv,right,fairness.vice,,,,,,,,,,,,,,,,,,,,,0,2,2,1,0,51,51,51,,,,,,,,,,,,,1342.907484570169,,,,,AMP_prac,right,1.2152057673083618,,,,,,,,,,,,,,,,,,,,,1,,,right,0.5824740185635164,,,,,,,,,,,,,,1009,2019_May_08_1649,mf_amp_cond1,3.0.7,59.98472478399624,
abuse,,&&&&&,images/symbols/symbol_6.png,condition_files/AMP_rep2.csv,right,sanctity.vice,,,,,,,,,,,,,,,,,,,,,0,2,2,1,0,52,52,52,,,,,,,,,,,,,1343.6076492276043,,,,,AMP_prac,right,1.2152057673083618,,,,,,,,,,,,,,,,,,,,,1,,,right,0.4823010864201933,,,,,,,,,,,,,,1009,2019_May_08_1649,mf_amp_cond1,3.0.7,59.98472478399624,
health,,&&&&&&,images/symbols/symbol_29.png,condition_files/AMP_rep2.csv,left,care.virtue,,,,,,,,,,,,,,,,,,,,,0,2,2,1,0,53,53,53,,,,,,,,,,,,,1344.7245775159681,,,,,AMP_prac,right,1.2152057673083618,,,,,,,,,,,,,,,,,,,,,1,,,right,0.8990002527134493,,,,,,,,,,,,,,1009,2019_May_08_1649,mf_amp_cond1,3.0.7,59.98472478399624,
trust,,&&&&&,images/symbols/symbol_38.png,condition_files/AMP_rep2.csv,left,authority.virtue,,,,,,,,,,,,,,,,,,,,,0,2,2,1,0,54,54,54,,,,,,,,,,,,,1345.5748059325852,,,,,AMP_prac,right,1.2152057673083618,,,,,,,,,,,,,,,,,,,,,1,,,right,0.6324973027221859,,,,,,,,,,,,,,1009,2019_May_08_1649,mf_amp_cond1,3.0.7,59.98472478399624,
terrorists,,&&&&&&&&&&,images/symbols/symbol_50.png,condition_files/AMP_rep2.csv,right,fairness.vice,,,,,,,,,,,,,,,,,,,,,0,2,2,1,0,55,55,55,,,,,,,,,,,,,1346.3083501283545,,,,,AMP_prac,right,1.2152057673083618,,,,,,,,,,,,,,,,,,,,,1,,,right,0.5158403431996703,,,,,,,,,,,,,,1009,2019_May_08_1649,mf_amp_cond1,3.0.7,59.98472478399624,
care,,&&&&,images/symbols/symbol_53.png,condition_files/AMP_rep2.csv,left,care.virtue,,,,,,,,,,,,,,,,,,,,,0,2,2,1,0,56,56,56,,,,,,,,,,,,,1347.1585134387715,,,,,AMP_prac,right,1.2152057673083618,,,,,,,,,,,,,,,,,,,,,1,,,left,0.6170661977957934,,,,,,,,,,,,,,1009,2019_May_08_1649,mf_amp_cond1,3.0.7,59.98472478399624,
wreize,,&&&&&&,images/symbols/symbol_23.png,condition_files/AMP_rep2.csv,None,nonword,,,,,,,,,,,,,,,,,,,,,0,2,2,1,0,57,57,57,,,,,,,,,,,,,1347.8420404440258,,,,,AMP_prac,right,1.2152057673083618,,,,,,,,,,,,,,,,,,,,,1,,,left,0.4653959539718926,,,,,,,,,,,,,,1009,2019_May_08_1649,mf_amp_cond1,3.0.7,59.98472478399624,
celebrated,,&&&&&&&&&&,images/symbols/symbol_35.png,condition_files/AMP_rep2.csv,left,authority.virtue,,,,,,,,,,,,,,,,,,,,,0,2,2,1,0,58,58,58,,,,,,,,,,,,,1349.1256637292681,,,,,AMP_prac,right,1.2152057673083618,,,,,,,,,,,,,,,,,,,,,1,,,left,1.0658238581381738,,,,,,,,,,,,,,1009,2019_May_08_1649,mf_amp_cond1,3.0.7,59.98472478399624,
shypse,,&&&&&&,images/symbols/symbol_78.png,condition_files/AMP_rep2.csv,None,nonword,,,,,,,,,,,,,,,,,,,,,0,2,2,1,0,59,59,59,,,,,,,,,,,,,1351.676300550229,,,,,AMP_prac,right,1.2152057673083618,,,,,,,,,,,,,,,,,,,,,1,,,left,2.3327594590373337,,,,,,,,,,,,,,1009,2019_May_08_1649,mf_amp_cond1,3.0.7,59.98472478399624,
intelligence,,&&&&&&&&&&&&,images/symbols/symbol_64.png,condition_files/AMP_rep2.csv,left,loyalty.virtue,,,,,,,,,,,,,,,,,,,,,0,2,2,1,0,60,60,60,,,,,,,,,,,,,1352.643210621667,,,,,AMP_prac,right,1.2152057673083618,,,,,,,,,,,,,,,,,,,,,1,,,left,0.73376196436584,,,,,,,,,,,,,,1009,2019_May_08_1649,mf_amp_cond1,3.0.7,59.98472478399624,
civilians,,&&&&&&&&&,images/symbols/symbol_30.png,condition_files/AMP_rep2.csv,right,care.vice,,,,,,,,,,,,,,,,,,,,,0,2,2,1,0,61,61,61,,,,,,,,,,,,,1353.2766950995428,,,,,AMP_prac,right,1.2152057673083618,,,,,,,,,,,,,,,,,,,,,1,,,right,0.4157261027721688,,,,,,,,,,,,,,1009,2019_May_08_1649,mf_amp_cond1,3.0.7,59.98472478399624,
arrests,,&&&&&&&,images/symbols/symbol_51.png,condition_files/AMP_rep2.csv,right,authority.vice,,,,,,,,,,,,,,,,,,,,,0,2,2,1,0,62,62,62,,,,,,,,,,,,,1354.4603131891927,,,,,AMP_prac,right,1.2152057673083618,,,,,,,,,,,,,,,,,,,,,1,,,right,0.9663096843287349,,,,,,,,,,,,,,1009,2019_May_08_1649,mf_amp_cond1,3.0.7,59.98472478399624,
free,,&&&&,images/symbols/symbol_11.png,condition_files/AMP_rep2.csv,left,fairness.virtue,,,,,,,,,,,,,,,,,,,,,0,2,2,1,0,63,63,63,,,,,,,,,,,,,1355.1271473784,,,,,AMP_prac,right,1.2152057673083618,,,,,,,,,,,,,,,,,,,,,1,,,right,0.44909698178526014,,,,,,,,,,,,,,1009,2019_May_08_1649,mf_amp_cond1,3.0.7,59.98472478399624,
prosecution,,&&&&&&&&&&&,images/symbols/symbol_27.png,condition_files/AMP_rep2.csv,right,authority.vice,,,,,,,,,,,,,,,,,,,,,0,2,2,1,0,64,64,64,,,,,,,,,,,,,1356.044043787173,,,,,AMP_prac,right,1.2152057673083618,,,,,,,,,,,,,,,,,,,,,1,,,right,0.6990472702309489,,,,,,,,,,,,,,1009,2019_May_08_1649,mf_amp_cond1,3.0.7,59.98472478399624,
violence,,&&&&&&&&,images/symbols/symbol_26.png,condition_files/AMP_rep2.csv,right,care.vice,,,,,,,,,,,,,,,,,,,,,0,2,2,1,0,65,65,65,,,,,,,,,,,,,1357.1776507799514,,,,,AMP_prac,right,1.2152057673083618,,,,,,,,,,,,,,,,,,,,,1,,,left,0.9158143007662147,,,,,,,,,,,,,,1009,2019_May_08_1649,mf_amp_cond1,3.0.7,59.98472478399624,
faith,,&&&&&,images/symbols/symbol_10.png,condition_files/AMP_rep2.csv,left,sanctity.virtue,,,,,,,,,,,,,,,,,,,,,0,2,2,1,0,66,66,66,,,,,,,,,,,,,1358.0278641226469,,,,,AMP_prac,right,1.2152057673083618,,,,,,,,,,,,,,,,,,,,,1,,,left,0.6326069888891652,,,,,,,,,,,,,,1009,2019_May_08_1649,mf_amp_cond1,3.0.7,59.98472478399624,
victims,,&&&&&&&,images/symbols/symbol_1.png,condition_files/AMP_rep2.csv,right,care.vice,,,,,,,,,,,,,,,,,,,,,0,2,2,1,0,67,67,67,,,,,,,,,,,,,1359.6115831747884,,,,,AMP_prac,right,1.2152057673083618,,,,,,,,,,,,,,,,,,,,,1,,,left,1.3658590089762583,,,,,,,,,,,,,,1009,2019_May_08_1649,mf_amp_cond1,3.0.7,59.98472478399624,
interests,,&&&&&&&&&,images/symbols/symbol_72.png,condition_files/AMP_rep2.csv,left,fairness.virtue,,,,,,,,,,,,,,,,,,,,,0,2,2,1,0,68,68,68,,,,,,,,,,,,,1360.5784948498476,,,,,AMP_prac,right,1.2152057673083618,,,,,,,,,,,,,,,,,,,,,1,,,right,0.7337635679868981,,,,,,,,,,,,,,1009,2019_May_08_1649,mf_amp_cond1,3.0.7,59.98472478399624,
hope,,&&&&,images/symbols/symbol_19.png,condition_files/AMP_rep2.csv,left,loyalty.virtue,,,,,,,,,,,,,,,,,,,,,0,2,2,1,0,69,69,69,,,,,,,,,,,,,1361.7787999825086,,,,,AMP_prac,right,1.2152057673083618,,,,,,,,,,,,,,,,,,,,,1,,,right,0.9824405995896086,,,,,,,,,,,,,,1009,2019_May_08_1649,mf_amp_cond1,3.0.7,59.98472478399624,
war,,&&&,images/symbols/symbol_39.png,condition_files/AMP_rep2.csv,right,sanctity.vice,,,,,,,,,,,,,,,,,,,,,0,2,2,1,0,70,70,70,,,,,,,,,,,,,1362.6289940821007,,,,,AMP_prac,right,1.2152057673083618,,,,,,,,,,,,,,,,,,,,,1,,,right,0.6323359807720408,,,,,,,,,,,,,,1009,2019_May_08_1649,mf_amp_cond1,3.0.7,59.98472478399624,
credit,,&&&&&&,images/symbols/symbol_46.png,condition_files/AMP_rep2.csv,left,fairness.virtue,,,,,,,,,,,,,,,,,,,,,0,2,2,1,0,71,71,71,,,,,,,,,,,,,1363.595914095873,,,,,AMP_prac,right,1.2152057673083618,,,,,,,,,,,,,,,,,,,,,1,,,right,0.7491481686010957,,,,,,,,,,,,,,1009,2019_May_08_1649,mf_amp_cond1,3.0.7,59.98472478399624,
clean,,&&&&&,images/symbols/symbol_45.png,condition_files/AMP_rep2.csv,left,sanctity.virtue,,,,,,,,,,,,,,,,,,,,,0,2,2,1,0,72,72,72,,,,,,,,,,,,,1364.6461570730899,,,,,AMP_prac,right,1.2152057673083618,,,,,,,,,,,,,,,,,,,,,1,,,right,0.8324708113214001,,,,,,,,,,,,,,1009,2019_May_08_1649,mf_amp_cond1,3.0.7,59.98472478399624,
integrity,,&&&&&&&&&,images/symbols/symbol_59.png,condition_files/AMP_rep2.csv,left,fairness.virtue,,,,,,,,,,,,,,,,,,,,,0,2,2,1,0,73,73,73,,,,,,,,,,,,,1365.579728658311,,,,,AMP_prac,right,1.2152057673083618,,,,,,,,,,,,,,,,,,,,,1,,,right,0.7004193088505417,,,,,,,,,,,,,,1009,2019_May_08_1649,mf_amp_cond1,3.0.7,59.98472478399624,
help,,&&&&,images/symbols/symbol_74.png,condition_files/AMP_rep2.csv,left,care.virtue,,,,,,,,,,,,,,,,,,,,,0,2,2,1,0,74,74,74,,,,,,,,,,,,,1366.5799579728628,,,,,AMP_prac,right,1.2152057673083618,,,,,,,,,,,,,,,,,,,,,1,,,left,0.7670876218471676,,,,,,,,,,,,,,1009,2019_May_08_1649,mf_amp_cond1,3.0.7,59.98472478399624,
creinned,,&&&&&&&&,images/symbols/symbol_42.png,condition_files/AMP_rep2.csv,None,nonword,,,,,,,,,,,,,,,,,,,,,0,2,2,1,0,75,75,75,,,,,,,,,,,,,1367.7469188463874,,,,,AMP_prac,right,1.2152057673083618,,,,,,,,,,,,,,,,,,,,,1,,,right,0.9487605468602851,,,,,,,,,,,,,,1009,2019_May_08_1649,mf_amp_cond1,3.0.7,59.98472478399624,
praise,,&&&&&&,images/symbols/symbol_71.png,condition_files/AMP_rep2.csv,left,authority.virtue,,,,,,,,,,,,,,,,,,,,,0,2,2,1,0,76,76,76,,,,,,,,,,,,,1368.8138501495123,,,,,AMP_prac,right,1.2152057673083618,,,,,,,,,,,,,,,,,,,,,1,,,left,0.8490770329954103,,,,,,,,,,,,,,1009,2019_May_08_1649,mf_amp_cond1,3.0.7,59.98472478399624,
safety,,&&&&&&,images/symbols/symbol_21.png,condition_files/AMP_rep2.csv,left,care.virtue,,,,,,,,,,,,,,,,,,,,,0,2,2,1,0,77,77,77,,,,,,,,,,,,,1370.9310353343608,,,,,AMP_prac,right,1.2152057673083618,,,,,,,,,,,,,,,,,,,,,1,,,right,1.8996426541125402,,,,,,,,,,,,,,1009,2019_May_08_1649,mf_amp_cond1,3.0.7,59.98472478399624,
shot,,&&&&,images/symbols/symbol_68.png,condition_files/AMP_rep2.csv,right,care.vice,,,,,,,,,,,,,,,,,,,,,0,2,2,1,0,78,78,78,,,,,,,,,,,,,1372.7815184022766,,,,,AMP_prac,right,1.2152057673083618,,,,,,,,,,,,,,,,,,,,,1,,,left,1.6173314329935238,,,,,,,,,,,,,,1009,2019_May_08_1649,mf_amp_cond1,3.0.7,59.98472478399624,
good,,&&&&,images/symbols/symbol_66.png,condition_files/AMP_rep2.csv,left,care.virtue,,,,,,,,,,,,,,,,,,,,,0,2,2,1,0,79,79,79,,,,,,,,,,,,,1373.7651466266252,,,,,AMP_prac,right,1.2152057673083618,,,,,,,,,,,,,,,,,,,,,1,,,left,0.7657797271385789,,,,,,,,,,,,,,1009,2019_May_08_1649,mf_amp_cond1,3.0.7,59.98472478399624,
strength,,&&&&&&&&,images/symbols/symbol_76.png,condition_files/AMP_rep2.csv,left,sanctity.virtue,,,,,,,,,,,,,,,,,,,,,0,2,2,1,0,80,80,80,,,,,,,,,,,,,1374.815335722873,,,,,AMP_prac,right,1.2152057673083618,,,,,,,,,,,,,,,,,,,,,1,,,right,0.8327562517952174,,,,,,,,,,,,,,1009,2019_May_08_1649,mf_amp_cond1,3.0.7,59.98472478399624,
embrace,,&&&&&&&,images/symbols/symbol_31.png,condition_files/AMP_rep2.csv,left,authority.virtue,,,,,,,,,,,,,,,,,,,,,0,2,2,1,0,81,81,81,,,,,,,,,,,,,1375.6155248192372,,,,,AMP_prac,right,1.2152057673083618,,,,,,,,,,,,,,,,,,,,,1,,,right,0.5670451585901901,,,,,,,,,,,,,,1009,2019_May_08_1649,mf_amp_cond1,3.0.7,59.98472478399624,
,,,,condition_files/AMP_rep2.csv,,,,,,,,,,,,,,,,,,,,,,,0,2,2,1,,,,,,,,,,,,,,,,,,,,,,,,,,,,,,,,,,,,,,,,,,,,,,,,,,right,1.867354845511727,,,,,,,,,,,,1009,2019_May_08_1649,mf_amp_cond1,3.0.7,59.98472478399624,
charges,,&&&&&&&,images/symbols/symbol_65.png,condition_files/AMP_rep3.csv,right,fairness.vice,,,,,,,,,,,,,,,,,,,,,0,3,3,2,0,0,0,0,,,,,,,,,,,,,1380.2334803725826,,,,,AMP_prac,right,1.2152057673083618,,,,,,,,,,,,,,,,,,,,,1,,,right,2.5156203294172883,,,,,,,,,,,,,,1009,2019_May_08_1649,mf_amp_cond1,3.0.7,59.98472478399624,
betrayal,,&&&&&&&&,images/symbols/symbol_57.png,condition_files/AMP_rep3.csv,right,loyalty.vice,,,,,,,,,,,,,,,,,,,,,0,3,3,2,0,1,1,1,,,,,,,,,,,,,1381.0501974349609,,,,,AMP_prac,right,1.2152057673083618,,,,,,,,,,,,,,,,,,,,,1,,,right,0.5990058332681656,,,,,,,,,,,,,,1009,2019_May_08_1649,mf_amp_cond1,3.0.7,59.98472478399624,
rebels,,&&&&&&,images/symbols/symbol_28.png,condition_files/AMP_rep3.csv,right,authority.vice,,,,,,,,,,,,,,,,,,,,,0,3,3,2,0,2,2,2,,,,,,,,,,,,,1381.883746505715,,,,,AMP_prac,right,1.2152057673083618,,,,,,,,,,,,,,,,,,,,,1,,,left,0.6003794753924012,,,,,,,,,,,,,,1009,2019_May_08_1649,mf_amp_cond1,3.0.7,59.98472478399624,
men,,&&&,images/symbols/symbol_22.png,condition_files/AMP_rep3.csv,right,loyalty.vice,,,,,,,,,,,,,,,,,,,,,0,3,3,2,0,3,3,3,,,,,,,,,,,,,1382.7339678663993,,,,,AMP_prac,right,1.2152057673083618,,,,,,,,,,,,,,,,,,,,,1,,,right,0.6321897326270118,,,,,,,,,,,,,,1009,2019_May_08_1649,mf_amp_cond1,3.0.7,59.98472478399624,
promised,,&&&&&&&&,images/symbols/symbol_40.png,condition_files/AMP_rep3.csv,left,loyalty.virtue,,,,,,,,,,,,,,,,,,,,,0,3,3,2,0,4,4,4,,,,,,,,,,,,,1383.6508514465531,,,,,AMP_prac,right,1.2152057673083618,,,,,,,,,,,,,,,,,,,,,1,,,left,0.6990469495067373,,,,,,,,,,,,,,1009,2019_May_08_1649,mf_amp_cond1,3.0.7,59.98472478399624,
values,,&&&&&&,images/symbols/symbol_81.png,condition_files/AMP_rep3.csv,left,sanctity.virtue,,,,,,,,,,,,,,,,,,,,,0,3,3,2,0,5,5,5,,,,,,,,,,,,,1386.734970115358,,,,,AMP_prac,right,1.2152057673083618,,,,,,,,,,,,,,,,,,,,,1,,,left,2.850964147481136,,,,,,,,,,,,,,1009,2019_May_08_1649,mf_amp_cond1,3.0.7,59.98472478399624,
ability,,&&&&&&&,images/symbols/symbol_52.png,condition_files/AMP_rep3.csv,left,authority.virtue,,,,,,,,,,,,,,,,,,,,,0,3,3,2,0,6,6,6,,,,,,,,,,,,,1387.6018227138557,,,,,AMP_prac,right,1.2152057673083618,,,,,,,,,,,,,,,,,,,,,1,,,left,0.6337269418872893,,,,,,,,,,,,,,1009,2019_May_08_1649,mf_amp_cond1,3.0.7,59.98472478399624,
scourld,,&&&&&&&,images/symbols/symbol_58.png,condition_files/AMP_rep3.csv,None,nonword,,,,,,,,,,,,,,,,,,,,,0,3,3,2,0,7,7,7,,,,,,,,,,,,,1388.2853436254663,,,,,AMP_prac,right,1.2152057673083618,,,,,,,,,,,,,,,,,,,,,1,,,left,0.46533277223352343,,,,,,,,,,,,,,1009,2019_May_08_1649,mf_amp_cond1,3.0.7,59.98472478399624,
increase,,&&&&&&&&,images/symbols/symbol_79.png,condition_files/AMP_rep3.csv,left,care.virtue,,,,,,,,,,,,,,,,,,,,,0,3,3,2,0,8,8,8,,,,,,,,,,,,,1389.085520534427,,,,,AMP_prac,right,1.2152057673083618,,,,,,,,,,,,,,,,,,,,,1,,,right,0.5670576667180285,,,,,,,,,,,,,,1009,2019_May_08_1649,mf_amp_cond1,3.0.7,59.98472478399624,
fraud,,&&&&&,images/symbols/symbol_77.png,condition_files/AMP_rep3.csv,right,fairness.vice,,,,,,,,,,,,,,,,,,,,,0,3,3,2,0,9,9,9,,,,,,,,,,,,,1389.75235440291,,,,,AMP_prac,right,1.2152057673083618,,,,,,,,,,,,,,,,,,,,,1,,,right,0.4486492571886629,,,,,,,,,,,,,,1009,2019_May_08_1649,mf_amp_cond1,3.0.7,59.98472478399624,
pleasant,,&&&&&&&,images/symbols/symbol_48.png,condition_files/AMP_rep3.csv,right,control,,,,,,,,,,,,,,,,,,,,,0,3,3,2,0,10,10,10,,,,,,,,,,,,,1390.4525232297601,,,,,AMP_prac,right,1.2152057673083618,,,,,,,,,,,,,,,,,,,,,1,,,right,0.4822064741747454,,,,,,,,,,,,,,1009,2019_May_08_1649,mf_amp_cond1,3.0.7,59.98472478399624,
slavery,,&&&&&&&,images/symbols/symbol_18.png,condition_files/AMP_rep3.csv,right,loyalty.vice,,,,,,,,,,,,,,,,,,,,,0,3,3,2,0,11,11,11,,,,,,,,,,,,,1391.1694243210368,,,,,AMP_prac,right,1.2152057673083618,,,,,,,,,,,,,,,,,,,,,1,,,right,0.49926779710222036,,,,,,,,,,,,,,1009,2019_May_08_1649,mf_amp_cond1,3.0.7,59.98472478399624,
serial,,&&&&&&,images/symbols/symbol_33.png,condition_files/AMP_rep3.csv,right,sanctity.vice,,,,,,,,,,,,,,,,,,,,,0,3,3,2,0,12,12,12,,,,,,,,,,,,,1391.8695453606779,,,,,AMP_prac,right,1.2152057673083618,,,,,,,,,,,,,,,,,,,,,1,,,right,0.4824149418855086,,,,,,,,,,,,,,1009,2019_May_08_1649,mf_amp_cond1,3.0.7,59.98472478399624,
officers,,&&&&&&&&,images/symbols/symbol_36.png,condition_files/AMP_rep3.csv,right,authority.vice,,,,,,,,,,,,,,,,,,,,,0,3,3,2,0,13,13,13,,,,,,,,,,,,,1392.503058703267,,,,,AMP_prac,right,1.2152057673083618,,,,,,,,,,,,,,,,,,,,,1,,,right,0.4156523373676464,,,,,,,,,,,,,,1009,2019_May_08_1649,mf_amp_cond1,3.0.7,59.98472478399624,
death,,&&&&&,images/symbols/symbol_32.png,condition_files/AMP_rep3.csv,right,care.vice,,,,,,,,,,,,,,,,,,,,,0,3,3,2,0,14,14,14,,,,,,,,,,,,,1393.203201231081,,,,,AMP_prac,right,1.2152057673083618,,,,,,,,,,,,,,,,,,,,,1,,,left,0.481941559817642,,,,,,,,,,,,,,1009,2019_May_08_1649,mf_amp_cond1,3.0.7,59.98472478399624,
wence,,&&&&&,images/symbols/symbol_61.png,condition_files/AMP_rep3.csv,None,nonword,,,,,,,,,,,,,,,,,,,,,0,3,3,2,0,15,15,15,,,,,,,,,,,,,1394.8536437599687,,,,,AMP_prac,right,1.2152057673083618,,,,,,,,,,,,,,,,,,,,,1,,,left,1.4172947426559404,,,,,,,,,,,,,,1009,2019_May_08_1649,mf_amp_cond1,3.0.7,59.98472478399624,
unpleasant,,&&&&&&&&&,images/symbols/symbol_82.png,condition_files/AMP_rep3.csv,left,control,,,,,,,,,,,,,,,,,,,,,0,3,3,2,0,16,16,16,,,,,,,,,,,,,1395.5204458772205,,,,,AMP_prac,right,1.2152057673083618,,,,,,,,,,,,,,,,,,,,,1,,,left,0.4489683732390404,,,,,,,,,,,,,,1009,2019_May_08_1649,mf_amp_cond1,3.0.7,59.98472478399624,
encourage,,&&&&&&&&&,images/symbols/symbol_55.png,condition_files/AMP_rep3.csv,left,authority.virtue,,,,,,,,,,,,,,,,,,,,,0,3,3,2,0,17,17,17,,,,,,,,,,,,,1396.387317718938,,,,,AMP_prac,right,1.2152057673083618,,,,,,,,,,,,,,,,,,,,,1,,,right,0.6489046782953665,,,,,,,,,,,,,,1009,2019_May_08_1649,mf_amp_cond1,3.0.7,59.98472478399624,
gun,,&&&,images/symbols/symbol_80.png,condition_files/AMP_rep3.csv,right,authority.vice,,,,,,,,,,,,,,,,,,,,,0,3,3,2,0,18,18,18,,,,,,,,,,,,,1397.3208822484594,,,,,AMP_prac,right,1.2152057673083618,,,,,,,,,,,,,,,,,,,,,1,,,left,0.7161765856435522,,,,,,,,,,,,,,1009,2019_May_08_1649,mf_amp_cond1,3.0.7,59.98472478399624,
black,,&&&&&,images/symbols/symbol_56.png,condition_files/AMP_rep3.csv,right,loyalty.vice,,,,,,,,,,,,,,,,,,,,,0,3,3,2,0,19,19,19,,,,,,,,,,,,,1398.104408997111,,,,,AMP_prac,right,1.2152057673083618,,,,,,,,,,,,,,,,,,,,,1,,,right,0.5503760757856071,,,,,,,,,,,,,,1009,2019_May_08_1649,mf_amp_cond1,3.0.7,59.98472478399624,
penalty,,&&&&&&&,images/symbols/symbol_37.png,condition_files/AMP_rep3.csv,right,authority.vice,,,,,,,,,,,,,,,,,,,,,0,3,3,2,0,20,20,20,,,,,,,,,,,,,1399.771492706146,,,,,AMP_prac,right,1.2152057673083618,,,,,,,,,,,,,,,,,,,,,1,,,left,1.433931753388606,,,,,,,,,,,,,,1009,2019_May_08_1649,mf_amp_cond1,3.0.7,59.98472478399624,
support,,&&&&&&&,images/symbols/symbol_14.png,condition_files/AMP_rep3.csv,left,loyalty.virtue,,,,,,,,,,,,,,,,,,,,,0,3,3,2,0,21,21,21,,,,,,,,,,,,,1400.9551204174059,,,,,AMP_prac,right,1.2152057673083618,,,,,,,,,,,,,,,,,,,,,1,,,right,0.9650947982445359,,,,,,,,,,,,,,1009,2019_May_08_1649,mf_amp_cond1,3.0.7,59.98472478399624,
stealde,,&&&&&&&,images/symbols/symbol_3.png,condition_files/AMP_rep3.csv,None,nonword,,,,,,,,,,,,,,,,,,,,,0,3,3,2,0,22,22,22,,,,,,,,,,,,,1401.805326704285,,,,,AMP_prac,right,1.2152057673083618,,,,,,,,,,,,,,,,,,,,,1,,,right,0.6323305285768583,,,,,,,,,,,,,,1009,2019_May_08_1649,mf_amp_cond1,3.0.7,59.98472478399624,
fair,,&&&&,images/symbols/symbol_62.png,condition_files/AMP_rep3.csv,left,fairness.virtue,,,,,,,,,,,,,,,,,,,,,0,3,3,2,0,23,23,23,,,,,,,,,,,,,1402.6888759674039,,,,,AMP_prac,right,1.2152057673083618,,,,,,,,,,,,,,,,,,,,,1,,,right,0.6657556091668084,,,,,,,,,,,,,,1009,2019_May_08_1649,mf_amp_cond1,3.0.7,59.98472478399624,
mawlde,,&&&&&&,images/symbols/symbol_41.png,condition_files/AMP_rep3.csv,None,nonword,,,,,,,,,,,,,,,,,,,,,0,3,3,2,0,24,24,24,,,,,,,,,,,,,1403.739147168002,,,,,AMP_prac,right,1.2152057673083618,,,,,,,,,,,,,,,,,,,,,1,,,left,0.8328790874220431,,,,,,,,,,,,,,1009,2019_May_08_1649,mf_amp_cond1,3.0.7,59.98472478399624,
forced,,&&&&&&,images/symbols/symbol_60.png,condition_files/AMP_rep3.csv,right,fairness.vice,,,,,,,,,,,,,,,,,,,,,0,3,3,2,0,25,25,25,,,,,,,,,,,,,1404.60602991411,,,,,AMP_prac,right,1.2152057673083618,,,,,,,,,,,,,,,,,,,,,1,,,right,0.6337378462776542,,,,,,,,,,,,,,1009,2019_May_08_1649,mf_amp_cond1,3.0.7,59.98472478399624,
peace,,&&&&&,images/symbols/symbol_47.png,condition_files/AMP_rep3.csv,left,care.virtue,,,,,,,,,,,,,,,,,,,,,0,3,3,2,0,26,26,26,,,,,,,,,,,,,1405.6729448605329,,,,,AMP_prac,right,1.2152057673083618,,,,,,,,,,,,,,,,,,,,,1,,,right,0.8485625986941159,,,,,,,,,,,,,,1009,2019_May_08_1649,mf_amp_cond1,3.0.7,59.98472478399624,
freazz,,&&&&&&,images/symbols/symbol_17.png,condition_files/AMP_rep3.csv,None,nonword,,,,,,,,,,,,,,,,,,,,,0,3,3,2,0,27,27,27,,,,,,,,,,,,,1406.7565599995432,,,,,AMP_prac,right,1.2152057673083618,,,,,,,,,,,,,,,,,,,,,1,,,left,0.8657688868697733,,,,,,,,,,,,,,1009,2019_May_08_1649,mf_amp_cond1,3.0.7,59.98472478399624,
great,,&&&&&,images/symbols/symbol_67.png,condition_files/AMP_rep3.csv,left,loyalty.virtue,,,,,,,,,,,,,,,,,,,,,0,3,3,2,0,28,28,28,,,,,,,,,,,,,1407.8401437080465,,,,,AMP_prac,right,1.2152057673083618,,,,,,,,,,,,,,,,,,,,,1,,,left,0.8654565059114248,,,,,,,,,,,,,,1009,2019_May_08_1649,mf_amp_cond1,3.0.7,59.98472478399624,
scandal,,&&&&&&&,images/symbols/symbol_73.png,condition_files/AMP_rep3.csv,right,sanctity.vice,,,,,,,,,,,,,,,,,,,,,0,3,3,2,0,29,29,29,,,,,,,,,,,,,1408.573692714679,,,,,AMP_prac,right,1.2152057673083618,,,,,,,,,,,,,,,,,,,,,1,,,right,0.5157309778733179,,,,,,,,,,,,,,1009,2019_May_08_1649,mf_amp_cond1,3.0.7,59.98472478399624,
sexual,,&&&&&&,images/symbols/symbol_13.png,condition_files/AMP_rep3.csv,right,sanctity.vice,,,,,,,,,,,,,,,,,,,,,0,3,3,2,0,30,30,30,,,,,,,,,,,,,1409.1571474937955,,,,,AMP_prac,right,1.2152057673083618,,,,,,,,,,,,,,,,,,,,,1,,,right,0.3656800475437194,,,,,,,,,,,,,,1009,2019_May_08_1649,mf_amp_cond1,3.0.7,59.98472478399624,
torture,,&&&&&&&,images/symbols/symbol_16.png,condition_files/AMP_rep3.csv,right,care.vice,,,,,,,,,,,,,,,,,,,,,0,3,3,2,0,31,31,31,,,,,,,,,,,,,1409.7573047105689,,,,,AMP_prac,right,1.2152057673083618,,,,,,,,,,,,,,,,,,,,,1,,,right,0.3826454752124846,,,,,,,,,,,,,,1009,2019_May_08_1649,mf_amp_cond1,3.0.7,59.98472478399624,
naidd,,&&&&&,images/symbols/symbol_4.png,condition_files/AMP_rep3.csv,None,nonword,,,,,,,,,,,,,,,,,,,,,0,3,3,2,0,32,32,32,,,,,,,,,,,,,1412.1078872015933,,,,,AMP_prac,right,1.2152057673083618,,,,,,,,,,,,,,,,,,,,,1,,,left,2.1326329672010615,,,,,,,,,,,,,,1009,2019_May_08_1649,mf_amp_cond1,3.0.7,59.98472478399624,
loyalty,,&&&&&&&,images/symbols/symbol_49.png,condition_files/AMP_rep3.csv,left,loyalty.virtue,,,,,,,,,,,,,,,,,,,,,0,3,3,2,0,33,33,33,,,,,,,,,,,,,1413.808298492455,,,,,AMP_prac,right,1.2152057673083618,,,,,,,,,,,,,,,,,,,,,1,,,right,1.4672737675718963,,,,,,,,,,,,,,1009,2019_May_08_1649,mf_amp_cond1,3.0.7,59.98472478399624,
refused,,&&&&&&&,images/symbols/symbol_25.png,condition_files/AMP_rep3.csv,right,authority.vice,,,,,,,,,,,,,,,,,,,,,0,3,3,2,0,34,34,34,,,,,,,,,,,,,1414.5751423673937,,,,,AMP_prac,right,1.2152057673083618,,,,,,,,,,,,,,,,,,,,,1,,,right,0.548232706496492,,,,,,,,,,,,,,1009,2019_May_08_1649,mf_amp_cond1,3.0.7,59.98472478399624,
victim,,&&&&&&,images/symbols/symbol_54.png,condition_files/AMP_rep3.csv,right,care.vice,,,,,,,,,,,,,,,,,,,,,0,3,3,2,0,35,35,35,,,,,,,,,,,,,1415.7587851524586,,,,,AMP_prac,right,1.2152057673083618,,,,,,,,,,,,,,,,,,,,,1,,,right,0.9504985265666619,,,,,,,,,,,,,,1009,2019_May_08_1649,mf_amp_cond1,3.0.7,59.98472478399624,
failure,,&&&&&&&,images/symbols/symbol_5.png,condition_files/AMP_rep3.csv,right,loyalty.vice,,,,,,,,,,,,,,,,,,,,,0,3,3,2,0,36,36,36,,,,,,,,,,,,,1416.7756983028958,,,,,AMP_prac,right,1.2152057673083618,,,,,,,,,,,,,,,,,,,,,1,,,right,0.7984334769425914,,,,,,,,,,,,,,1009,2019_May_08_1649,mf_amp_cond1,3.0.7,59.98472478399624,
sharing,,&&&&&&&,images/symbols/symbol_75.png,condition_files/AMP_rep3.csv,left,loyalty.virtue,,,,,,,,,,,,,,,,,,,,,0,3,3,2,0,37,37,37,,,,,,,,,,,,,1417.6592353787273,,,,,AMP_prac,right,1.2152057673083618,,,,,,,,,,,,,,,,,,,,,1,,,left,0.6657661928329617,,,,,,,,,,,,,,1009,2019_May_08_1649,mf_amp_cond1,3.0.7,59.98472478399624,
drug,,&&&&,images/symbols/symbol_44.png,condition_files/AMP_rep3.csv,right,sanctity.vice,,,,,,,,,,,,,,,,,,,,,0,3,3,2,0,38,38,38,,,,,,,,,,,,,1419.5263788700104,,,,,AMP_prac,right,1.2152057673083618,,,,,,,,,,,,,,,,,,,,,1,,,left,1.6492456033593044,,,,,,,,,,,,,,1009,2019_May_08_1649,mf_amp_cond1,3.0.7,59.98472478399624,
commitment,,&&&&&&&&&&,images/symbols/symbol_8.png,condition_files/AMP_rep3.csv,left,sanctity.virtue,,,,,,,,,,,,,,,,,,,,,0,3,3,2,0,39,39,39,,,,,,,,,,,,,1420.543288171757,,,,,AMP_prac,right,1.2152057673083618,,,,,,,,,,,,,,,,,,,,,1,,,left,0.7990377128589898,,,,,,,,,,,,,,1009,2019_May_08_1649,mf_amp_cond1,3.0.7,59.98472478399624,
violations,,&&&&&&&&&&,images/symbols/symbol_63.png,condition_files/AMP_rep3.csv,right,sanctity.vice,,,,,,,,,,,,,,,,,,,,,0,3,3,2,0,40,40,40,,,,,,,,,,,,,1421.4768696993124,,,,,AMP_prac,right,1.2152057673083618,,,,,,,,,,,,,,,,,,,,,1,,,left,0.7159251414705068,,,,,,,,,,,,,,1009,2019_May_08_1649,mf_amp_cond1,3.0.7,59.98472478399624,
ensure,,&&&&&&,images/symbols/symbol_15.png,condition_files/AMP_rep3.csv,left,fairness.virtue,,,,,,,,,,,,,,,,,,,,,0,3,3,2,0,41,41,41,,,,,,,,,,,,,1422.8438570001163,,,,,AMP_prac,right,1.2152057673083618,,,,,,,,,,,,,,,,,,,,,1,,,left,1.1491955709643662,,,,,,,,,,,,,,1009,2019_May_08_1649,mf_amp_cond1,3.0.7,59.98472478399624,
honored,,&&&&&&&,images/symbols/symbol_20.png,condition_files/AMP_rep3.csv,left,authority.virtue,,,,,,,,,,,,,,,,,,,,,0,3,3,2,0,42,42,42,,,,,,,,,,,,,1423.6940597590292,,,,,AMP_prac,right,1.2152057673083618,,,,,,,,,,,,,,,,,,,,,1,,,right,0.6328959572128952,,,,,,,,,,,,,,1009,2019_May_08_1649,mf_amp_cond1,3.0.7,59.98472478399624,
hand,,&&&&,images/symbols/symbol_70.png,condition_files/AMP_rep3.csv,left,sanctity.virtue,,,,,,,,,,,,,,,,,,,,,0,3,3,2,0,43,43,43,,,,,,,,,,,,,1424.3442200546851,,,,,AMP_prac,right,1.2152057673083618,,,,,,,,,,,,,,,,,,,,,1,,,right,0.4323881297605112,,,,,,,,,,,,,,1009,2019_May_08_1649,mf_amp_cond1,3.0.7,59.98472478399624,
troops,,&&&&&&,images/symbols/symbol_24.png,condition_files/AMP_rep3.csv,right,loyalty.vice,,,,,,,,,,,,,,,,,,,,,0,3,3,2,0,44,44,44,,,,,,,,,,,,,1424.9943829161348,,,,,AMP_prac,right,1.2152057673083618,,,,,,,,,,,,,,,,,,,,,1,,,right,0.41700160480104387,,,,,,,,,,,,,,1009,2019_May_08_1649,mf_amp_cond1,3.0.7,59.98472478399624,
freedom,,&&&&&&&,images/symbols/symbol_2.png,condition_files/AMP_rep3.csv,left,sanctity.virtue,,,,,,,,,,,,,,,,,,,,,0,3,3,2,0,45,45,45,,,,,,,,,,,,,1426.1779990814393,,,,,AMP_prac,right,1.2152057673083618,,,,,,,,,,,,,,,,,,,,,1,,,right,0.9651268703164533,,,,,,,,,,,,,,1009,2019_May_08_1649,mf_amp_cond1,3.0.7,59.98472478399624,
wheighlde,,&&&&&&&&&,images/symbols/symbol_9.png,condition_files/AMP_rep3.csv,None,nonword,,,,,,,,,,,,,,,,,,,,,0,3,3,2,0,46,46,46,,,,,,,,,,,,,1429.1954356463393,,,,,AMP_prac,right,1.2152057673083618,,,,,,,,,,,,,,,,,,,,,1,,,right,2.7995438083307818,,,,,,,,,,,,,,1009,2019_May_08_1649,mf_amp_cond1,3.0.7,59.98472478399624,
