words,masks,symbols,conditionfile,corr_ans,category,mask,LDT_trials_cond2.thisRepN,LDT_trials_cond2.thisTrialN,LDT_trials_cond2.thisN,LDT_trials_cond2.thisIndex,logo_trials.thisRepN,logo_trials.thisTrialN,logo_trials.thisN,logo_trials.thisIndex,AMP_pracs.thisRepN,AMP_pracs.thisTrialN,AMP_pracs.thisN,AMP_pracs.thisIndex,trials_loop.thisRepN,trials_loop.thisTrialN,trials_loop.thisN,trials_loop.thisIndex,AMP_trials.thisRepN,AMP_trials.thisTrialN,AMP_trials.thisN,AMP_trials.thisIndex,memtask_trials.thisRepN,memtask_trials.thisTrialN,memtask_trials.thisN,memtask_trials.thisIndex,LDT_cond1.thisRepN,LDT_cond1.thisTrialN,LDT_cond1.thisN,LDT_cond1.thisIndex,LDT_pracs.thisRepN,LDT_pracs.thisTrialN,LDT_pracs.thisN,LDT_pracs.thisIndex,LDT_trials.thisRepN,LDT_trials.thisTrialN,LDT_trials.thisN,LDT_trials.thisIndex,begin_key.keys,begin_key.rt,key_resp_instr.keys,key_resp_instr.rt,exp_time,resp_sym_rate.keys,resp_sym_rate.rt,sym_resp_1.keys,sym_resp_1.rt,sym_resp_2.keys,sym_resp_2.rt,sym_resp_trial.keys,sym_resp_trial.rt,symbol_index,resp_AMP_ready1.keys,resp_AMP_ready1.rt,resp_AMP.keys,resp_AMP.rt,task,keypress,RT,prime_dur,resp_AMP_ready.keys,resp_AMP_ready.rt,resp_AMP_trials.keys,resp_AMP_trials.rt,rest_key_resp.keys,rest_key_resp.rt,AMP_nonword_rating.response,AMP_nonword_rating.rt,AMP_word_rating.response,AMP_word_rating.rt,AMP_random_rating.response,AMP_random_rating.rt,key_resp_instr_memtask.keys,key_resp_instr_memtask.rt,resp_memtask.keys,resp_memtask.corr,resp_memtask.rt,corr,key_resp_LDT_instr.keys,key_resp_LDT_instr.rt,resp_LDT_prac.keys,resp_LDT_prac.rt,resp_LDT_ready.keys,resp_LDT_ready.rt,resp_LDT_trial.keys,resp_LDT_trial.rt,LDT_rating.response,LDT_rating.rt,participant ID,date,expName,psychopyVersion,frameRate,
,,,,,,,,,,,,,,,,,,,,,,,,,,,,,,,,,,,,,,,,,,,right,601.0831404199125,,,,,,,,,,,,,,,,,,,,,,,,,,,,,,,,,,,,,,,,,,,,,,,,,1010,2019_May_10_1255,mf_amp_cond1,3.0.7,59.98280146613552,
,,,,,,,,,,,,,,,,,,,,,,,,,,,,,,,,,,,,,,,,,,,,,right,0.7671362658729777,,,,,,,,,,,,,,,,,,,,,,,,,,,,,,,,,,,,,,,,,,,,,,,1010,2019_May_10_1255,mf_amp_cond1,3.0.7,59.98280146613552,
,,,,,,,,,,,,,,,,,,,,,,,,,,,,,,,,,,,,,,,,,,,,,,,639.8831088609295,right,2.034072722773999,,,,,,,,,,,,,,,,,,,,,,,,,,,,,,,,,,,,,,,,,,,,1010,2019_May_10_1255,mf_amp_cond1,3.0.7,59.98280146613552,
,,,,,,,,,,,,,,,,,,,,,,,,,,,,,,,,,,,,,,,,,,,,,,,703.9491000256967,,,left,3.567831139313057,,,,,,,,,,,,,,,,,,,,,,,,,,,,,,,,,,,,,,,,,,1010,2019_May_10_1255,mf_amp_cond1,3.0.7,59.98280146613552,
,,,,,,,,,,,,,,,,,,,,,,,,,,,,,,,,,,,,,,,,,,,,,,,,,,,,right,2.9843228528043255,,,,,,,,,,,,,,,,,,,,,,,,,,,,,,,,,,,,,,,,1010,2019_May_10_1255,mf_amp_cond1,3.0.7,59.98280146613552,
,,,,,,,,,,,,,,,,,,,,,,,,,,,,,,,,,,,,,,,,,,,,,,,726.5380493383855,,,,,,,right,0.38148922147229314,2,right,12.536701990873553,,,,,,,,,,,,,,,,,,,,,,,,,,,,,,,,,,,1010,2019_May_10_1255,mf_amp_cond1,3.0.7,59.98280146613552,
car,&&&,images/symbols/symbol_9.png,,,,,,,,,,,,,0,0,0,0,,,,,,,,,,,,,,,,,,,,,,,,,,,,,859.7883586734533,,,,,,,,,,,,right,2.300805842736736,AMP_prac,right,2.300805842736736,3,,,,,,,,,,,,,,,,,,,,,,,,,,,,,1010,2019_May_10_1255,mf_amp_cond1,3.0.7,59.98280146613552,
scarf,&&&&&,images/symbols/symbol_54.png,,,,,,,,,,,,,0,1,1,3,,,,,,,,,,,,,,,,,,,,,,,,,,,,,861.5720893476391,,,,,,,,,,,,right,1.5506992031587288,AMP_prac,right,1.5506992031587288,3,,,,,,,,,,,,,,,,,,,,,,,,,,,,,1010,2019_May_10_1255,mf_amp_cond1,3.0.7,59.98280146613552,
keyboard,&&&&&&&&,images/symbols/symbol_40.png,,,,,,,,,,,,,0,2,2,2,,,,,,,,,,,,,,,,,,,,,,,,,,,,,862.889018459944,,,,,,,,,,,,left,1.0987726661842316,AMP_prac,left,1.0987726661842316,3,,,,,,,,,,,,,,,,,,,,,,,,,,,,,1010,2019_May_10_1255,mf_amp_cond1,3.0.7,59.98280146613552,
banana,&&&&&&,images/symbols/symbol_68.png,,,,,,,,,,,,,0,3,3,1,,,,,,,,,,,,,,,,,,,,,,,,,,,,,866.7566522277193,,,,,,,,,,,,right,3.6344849129673094,AMP_prac,right,3.6344849129673094,3,,,,,,,,,,,,,,,,,,,,,,,,,,,,,1010,2019_May_10_1255,mf_amp_cond1,3.0.7,59.98280146613552,
,,,,,,,,,,,,,,,,,,,,,,,,,,,,,,,,,,,,,,,,,,,,,,,,,,,,,,,,,,,,,,,,,right,0.9671367148403078,,,,,,,,,,,,,,,,,,,,,,,,,,,1010,2019_May_10_1255,mf_amp_cond1,3.0.7,59.98280146613552,
praise,&&&&&&,images/symbols/symbol_44.png,condition_files/AMP_rep3.csv,left,authority.virtue,,,,,,,,,,,,,,0,0,0,2,0,0,0,0,,,,,,,,,,,,,,,,,,,,,888.9290071963333,,,,,,,,,,,,,,AMP_prac,right,3.6344849129673094,3,,,right,0.9338112713303417,,,,,,,,,,,,,,,,,,,,,,,,,1010,2019_May_10_1255,mf_amp_cond1,3.0.7,59.98280146613552,
hope,&&&&,images/symbols/symbol_77.png,condition_files/AMP_rep3.csv,left,loyalty.virtue,,,,,,,,,,,,,,0,0,0,2,0,1,1,1,,,,,,,,,,,,,,,,,,,,,889.6457425291883,,,,,,,,,,,,,,AMP_prac,right,3.6344849129673094,3,,,right,0.4987485478632152,,,,,,,,,,,,,,,,,,,,,,,,,1010,2019_May_10_1255,mf_amp_cond1,3.0.7,59.98280146613552,
intelligence,&&&&&&&&&&&&,images/symbols/symbol_50.png,condition_files/AMP_rep3.csv,left,loyalty.virtue,,,,,,,,,,,,,,0,0,0,2,0,2,2,2,,,,,,,,,,,,,,,,,,,,,890.3125362013234,,,,,,,,,,,,,,AMP_prac,right,3.6344849129673094,3,,,right,0.4491795643698424,,,,,,,,,,,,,,,,,,,,,,,,,1010,2019_May_10_1255,mf_amp_cond1,3.0.7,59.98280146613552,
slavery,&&&&&&&,images/symbols/symbol_51.png,condition_files/AMP_rep3.csv,right,loyalty.vice,,,,,,,,,,,,,,0,0,0,2,0,3,3,3,,,,,,,,,,,,,,,,,,,,,890.9960455140099,,,,,,,,,,,,,,AMP_prac,right,3.6344849129673094,3,,,right,0.4503569300286472,,,,,,,,,,,,,,,,,,,,,,,,,1010,2019_May_10_1255,mf_amp_cond1,3.0.7,59.98280146613552,
died,&&&&,images/symbols/symbol_52.png,condition_files/AMP_rep3.csv,right,care.vice,,,,,,,,,,,,,,0,0,0,2,0,4,4,4,,,,,,,,,,,,,,,,,,,,,892.062986653531,,,,,,,,,,,,,,AMP_prac,right,3.6344849129673094,3,,,right,0.849119204794988,,,,,,,,,,,,,,,,,,,,,,,,,1010,2019_May_10_1255,mf_amp_cond1,3.0.7,59.98280146613552,
fighters,&&&&&&&&,images/symbols/symbol_43.png,condition_files/AMP_rep3.csv,right,authority.vice,,,,,,,,,,,,,,0,0,0,2,0,5,5,5,,,,,,,,,,,,,,,,,,,,,892.8632806260139,,,,,,,,,,,,,,AMP_prac,right,3.6344849129673094,3,,,right,0.5671329303877428,,,,,,,,,,,,,,,,,,,,,,,,,1010,2019_May_10_1255,mf_amp_cond1,3.0.7,59.98280146613552,
terrorists,&&&&&&&&&&,images/symbols/symbol_14.png,condition_files/AMP_rep3.csv,right,fairness.vice,,,,,,,,,,,,,,0,0,0,2,0,6,6,6,,,,,,,,,,,,,,,,,,,,,893.6133689845446,,,,,,,,,,,,,,AMP_prac,right,3.6344849129673094,3,,,right,0.5315890619531274,,,,,,,,,,,,,,,,,,,,,,,,,1010,2019_May_10_1255,mf_amp_cond1,3.0.7,59.98280146613552,
encourage,&&&&&&&&&,images/symbols/symbol_34.png,condition_files/AMP_rep3.csv,left,authority.virtue,,,,,,,,,,,,,,0,0,0,2,0,7,7,7,,,,,,,,,,,,,,,,,,,,,894.3135593002662,,,,,,,,,,,,,,AMP_prac,right,3.6344849129673094,3,,,right,0.4823314981767908,,,,,,,,,,,,,,,,,,,,,,,,,1010,2019_May_10_1255,mf_amp_cond1,3.0.7,59.98280146613552,
terrorist,&&&&&&&&&,images/symbols/symbol_65.png,condition_files/AMP_rep3.csv,right,loyalty.vice,,,,,,,,,,,,,,0,0,0,2,0,8,8,8,,,,,,,,,,,,,,,,,,,,,894.9637203982566,,,,,,,,,,,,,,AMP_prac,right,3.6344849129673094,3,,,right,0.43235712382011116,,,,,,,,,,,,,,,,,,,,,,,,,1010,2019_May_10_1255,mf_amp_cond1,3.0.7,59.98280146613552,
safe,&&&&,images/symbols/symbol_41.png,condition_files/AMP_rep3.csv,left,care.virtue,,,,,,,,,,,,,,0,0,0,2,0,9,9,9,,,,,,,,,,,,,,,,,,,,,895.7305622425629,,,,,,,,,,,,,,AMP_prac,right,3.6344849129673094,3,,,right,0.5495224790647626,,,,,,,,,,,,,,,,,,,,,,,,,1010,2019_May_10_1255,mf_amp_cond1,3.0.7,59.98280146613552,
friends,&&&&&&&,images/symbols/symbol_73.png,condition_files/AMP_rep3.csv,left,loyalty.virtue,,,,,,,,,,,,,,0,0,0,2,0,10,10,10,,,,,,,,,,,,,,,,,,,,,896.8475050176494,,,,,,,,,,,,,,AMP_prac,right,3.6344849129673094,3,,,right,0.898997042211704,,,,,,,,,,,,,,,,,,,,,,,,,1010,2019_May_10_1255,mf_amp_cond1,3.0.7,59.98280146613552,
illegal,&&&&&&&,images/symbols/symbol_2.png,condition_files/AMP_rep3.csv,right,fairness.vice,,,,,,,,,,,,,,0,0,0,2,0,11,11,11,,,,,,,,,,,,,,,,,,,,,897.4643464449327,,,,,,,,,,,,,,AMP_prac,right,3.6344849129673094,3,,,left,0.39909742784220725,,,,,,,,,,,,,,,,,,,,,,,,,1010,2019_May_10_1255,mf_amp_cond1,3.0.7,59.98280146613552,
betrayal,&&&&&&&&,images/symbols/symbol_70.png,condition_files/AMP_rep3.csv,right,loyalty.vice,,,,,,,,,,,,,,0,0,0,2,0,12,12,12,,,,,,,,,,,,,,,,,,,,,898.0144645022228,,,,,,,,,,,,,,AMP_prac,right,3.6344849129673094,3,,,left,0.33215949567966163,,,,,,,,,,,,,,,,,,,,,,,,,1010,2019_May_10_1255,mf_amp_cond1,3.0.7,59.98280146613552,
failure,&&&&&&&,images/symbols/symbol_75.png,condition_files/AMP_rep3.csv,right,loyalty.vice,,,,,,,,,,,,,,0,0,0,2,0,13,13,13,,,,,,,,,,,,,,,,,,,,,898.6146120979683,,,,,,,,,,,,,,AMP_prac,right,3.6344849129673094,3,,,left,0.38235163944773376,,,,,,,,,,,,,,,,,,,,,,,,,1010,2019_May_10_1255,mf_amp_cond1,3.0.7,59.98280146613552,
growth,&&&&&&,images/symbols/symbol_29.png,condition_files/AMP_rep3.csv,left,care.virtue,,,,,,,,,,,,,,0,0,0,2,0,14,14,14,,,,,,,,,,,,,,,,,,,,,899.2314288298367,,,,,,,,,,,,,,AMP_prac,right,3.6344849129673094,3,,,left,0.3989540657494217,,,,,,,,,,,,,,,,,,,,,,,,,1010,2019_May_10_1255,mf_amp_cond1,3.0.7,59.98280146613552,
credit,&&&&&&,images/symbols/symbol_35.png,condition_files/AMP_rep3.csv,left,fairness.virtue,,,,,,,,,,,,,,0,0,0,2,0,15,15,15,,,,,,,,,,,,,,,,,,,,,899.798233983689,,,,,,,,,,,,,,AMP_prac,right,3.6344849129673094,3,,,left,0.3490743038710207,,,,,,,,,,,,,,,,,,,,,,,,,1010,2019_May_10_1255,mf_amp_cond1,3.0.7,59.98280146613552,
police,&&&&&&,images/symbols/symbol_30.png,condition_files/AMP_rep3.csv,right,authority.vice,,,,,,,,,,,,,,0,0,0,2,0,16,16,16,,,,,,,,,,,,,,,,,,,,,900.3483767363941,,,,,,,,,,,,,,AMP_prac,right,3.6344849129673094,3,,,left,0.33258348843082786,,,,,,,,,,,,,,,,,,,,,,,,,1010,2019_May_10_1255,mf_amp_cond1,3.0.7,59.98280146613552,
rejected,&&&&&&&&,images/symbols/symbol_27.png,condition_files/AMP_rep3.csv,right,authority.vice,,,,,,,,,,,,,,0,0,0,2,0,17,17,17,,,,,,,,,,,,,,,,,,,,,900.781819820404,,,,,,,,,,,,,,AMP_prac,right,3.6344849129673094,3,,,left,0.21561633853707463,,,,,,,,,,,,,,,,,,,,,,,,,1010,2019_May_10_1255,mf_amp_cond1,3.0.7,59.98280146613552,
forced,&&&&&&,images/symbols/symbol_7.png,condition_files/AMP_rep3.csv,right,fairness.vice,,,,,,,,,,,,,,0,0,0,2,0,18,18,18,,,,,,,,,,,,,,,,,,,,,901.031884445576,,,,,,,,,,,,,,AMP_prac,right,3.6344849129673094,3,,,left,0.032380279852077365,,,,,,,,,,,,,,,,,,,,,,,,,1010,2019_May_10_1255,mf_amp_cond1,3.0.7,59.98280146613552,
ensure,&&&&&&,images/symbols/symbol_11.png,condition_files/AMP_rep3.csv,left,fairness.virtue,,,,,,,,,,,,,,0,0,0,2,0,19,19,19,,,,,,,,,,,,,,,,,,,,,901.3986477775034,,,,,,,,,,,,,,AMP_prac,right,3.6344849129673094,3,,,left,0.1490510837174952,,,,,,,,,,,,,,,,,,,,,,,,,1010,2019_May_10_1255,mf_amp_cond1,3.0.7,59.98280146613552,
torture,&&&&&&&,images/symbols/symbol_74.png,condition_files/AMP_rep3.csv,right,care.vice,,,,,,,,,,,,,,0,0,0,2,0,20,20,20,,,,,,,,,,,,,,,,,,,,,901.7653953940608,,,,,,,,,,,,,,AMP_prac,right,3.6344849129673094,3,,,left,0.13359908247366548,,,,,,,,,,,,,,,,,,,,,,,,,1010,2019_May_10_1255,mf_amp_cond1,3.0.7,59.98280146613552,
promote,&&&&&&&,images/symbols/symbol_39.png,condition_files/AMP_rep3.csv,left,sanctity.virtue,,,,,,,,,,,,,,0,0,0,2,0,21,21,21,,,,,,,,,,,,,,,,,,,,,902.1321641781833,,,,,,,,,,,,,,AMP_prac,right,3.6344849129673094,3,,,left,0.14810431632213295,,,,,,,,,,,,,,,,,,,,,,,,,1010,2019_May_10_1255,mf_amp_cond1,3.0.7,59.98280146613552,
spauned,&&&&&&&,images/symbols/symbol_8.png,condition_files/AMP_rep3.csv,None,nonword,,,,,,,,,,,,,,0,0,0,2,0,22,22,22,,,,,,,,,,,,,,,,,,,,,902.4989111532923,,,,,,,,,,,,,,AMP_prac,right,3.6344849129673094,3,,,left,0.14898309099953622,,,,,,,,,,,,,,,,,,,,,,,,,1010,2019_May_10_1255,mf_amp_cond1,3.0.7,59.98280146613552,
ailled,&&&&&&,images/symbols/symbol_22.png,condition_files/AMP_rep3.csv,None,nonword,,,,,,,,,,,,,,0,0,0,2,0,23,23,23,,,,,,,,,,,,,,,,,,,,,903.8826027637115,,,,,,,,,,,,,,AMP_prac,right,3.6344849129673094,3,,,left,1.1659565911395475,,,,,,,,,,,,,,,,,,,,,,,,,1010,2019_May_10_1255,mf_amp_cond1,3.0.7,59.98280146613552,
free,&&&&,images/symbols/symbol_25.png,condition_files/AMP_rep3.csv,left,fairness.virtue,,,,,,,,,,,,,,0,0,0,2,0,24,24,24,,,,,,,,,,,,,,,,,,,,,904.1826699867379,,,,,,,,,,,,,,AMP_prac,right,3.6344849129673094,3,,,left,0.08214586495887488,,,,,,,,,,,,,,,,,,,,,,,,,1010,2019_May_10_1255,mf_amp_cond1,3.0.7,59.98280146613552,
troops,&&&&&&,images/symbols/symbol_80.png,condition_files/AMP_rep3.csv,right,loyalty.vice,,,,,,,,,,,,,,0,0,0,2,0,25,25,25,,,,,,,,,,,,,,,,,,,,,905.933113703737,,,,,,,,,,,,,,AMP_prac,right,3.6344849129673094,3,,,left,1.5331355769885704,,,,,,,,,,,,,,,,,,,,,,,,,1010,2019_May_10_1255,mf_amp_cond1,3.0.7,59.98280146613552,
hate,&&&&,images/symbols/symbol_56.png,condition_files/AMP_rep3.csv,right,fairness.vice,,,,,,,,,,,,,,0,0,0,2,0,26,26,26,,,,,,,,,,,,,,,,,,,,,906.5165822209092,,,,,,,,,,,,,,AMP_prac,right,3.6344849129673094,3,,,left,0.3503244729945436,,,,,,,,,,,,,,,,,,,,,,,,,1010,2019_May_10_1255,mf_amp_cond1,3.0.7,59.98280146613552,
gryssed,&&&&&&&,images/symbols/symbol_23.png,condition_files/AMP_rep3.csv,None,nonword,,,,,,,,,,,,,,0,0,0,2,0,27,27,27,,,,,,,,,,,,,,,,,,,,,907.1167371930787,,,,,,,,,,,,,,AMP_prac,right,3.6344849129673094,3,,,left,0.381813149433583,,,,,,,,,,,,,,,,,,,,,,,,,1010,2019_May_10_1255,mf_amp_cond1,3.0.7,59.98280146613552,
celebrated,&&&&&&&&&&,images/symbols/symbol_31.png,condition_files/AMP_rep3.csv,left,authority.virtue,,,,,,,,,,,,,,0,0,0,2,0,28,28,28,,,,,,,,,,,,,,,,,,,,,907.6669283746742,,,,,,,,,,,,,,AMP_prac,right,3.6344849129673094,3,,,left,0.31704585475381464,,,,,,,,,,,,,,,,,,,,,,,,,1010,2019_May_10_1255,mf_amp_cond1,3.0.7,59.98280146613552,
crime,&&&&&,images/symbols/symbol_33.png,condition_files/AMP_rep3.csv,right,fairness.vice,,,,,,,,,,,,,,0,0,0,2,0,29,29,29,,,,,,,,,,,,,,,,,,,,,908.2503619332565,,,,,,,,,,,,,,AMP_prac,right,3.6344849129673094,3,,,left,0.3650808313395828,,,,,,,,,,,,,,,,,,,,,,,,,1010,2019_May_10_1255,mf_amp_cond1,3.0.7,59.98280146613552,
progress,&&&&&&&&,images/symbols/symbol_1.png,condition_files/AMP_rep3.csv,left,authority.virtue,,,,,,,,,,,,,,0,0,0,2,0,30,30,30,,,,,,,,,,,,,,,,,,,,,908.833834619727,,,,,,,,,,,,,,AMP_prac,right,3.6344849129673094,3,,,left,0.36558147612959146,,,,,,,,,,,,,,,,,,,,,,,,,1010,2019_May_10_1255,mf_amp_cond1,3.0.7,59.98280146613552,
prinse,&&&&&&,images/symbols/symbol_60.png,condition_files/AMP_rep3.csv,None,nonword,,,,,,,,,,,,,,0,0,0,2,0,31,31,31,,,,,,,,,,,,,,,,,,,,,909.7007175803883,,,,,,,,,,,,,,AMP_prac,right,3.6344849129673094,3,,,left,0.6337292951066047,,,,,,,,,,,,,,,,,,,,,,,,,1010,2019_May_10_1255,mf_amp_cond1,3.0.7,59.98280146613552,
pleasant,&&&&&&&,images/symbols/symbol_24.png,condition_files/AMP_rep3.csv,right,control,,,,,,,,,,,,,,0,0,0,2,0,32,32,32,,,,,,,,,,,,,,,,,,,,,910.5175803035963,,,,,,,,,,,,,,AMP_prac,right,3.6344849129673094,3,,,left,0.5982931887265295,,,,,,,,,,,,,,,,,,,,,,,,,1010,2019_May_10_1255,mf_amp_cond1,3.0.7,59.98280146613552,
fear,&&&&,images/symbols/symbol_13.png,condition_files/AMP_rep3.csv,right,sanctity.vice,,,,,,,,,,,,,,0,0,0,2,0,33,33,33,,,,,,,,,,,,,,,,,,,,,911.2511165889446,,,,,,,,,,,,,,AMP_prac,right,3.6344849129673094,3,,,left,0.5157631003530696,,,,,,,,,,,,,,,,,,,,,,,,,1010,2019_May_10_1255,mf_amp_cond1,3.0.7,59.98280146613552,
injured,&&&&&&&,images/symbols/symbol_12.png,condition_files/AMP_rep3.csv,right,care.vice,,,,,,,,,,,,,,0,0,0,2,0,34,34,34,,,,,,,,,,,,,,,,,,,,,911.9012590851635,,,,,,,,,,,,,,AMP_prac,right,3.6344849129673094,3,,,left,0.4323446156922728,,,,,,,,,,,,,,,,,,,,,,,,,1010,2019_May_10_1255,mf_amp_cond1,3.0.7,59.98280146613552,
promised,&&&&&&&&,images/symbols/symbol_17.png,condition_files/AMP_rep3.csv,left,loyalty.virtue,,,,,,,,,,,,,,0,0,0,2,0,35,35,35,,,,,,,,,,,,,,,,,,,,,912.6014375342056,,,,,,,,,,,,,,AMP_prac,right,3.6344849129673094,3,,,left,0.48233823326881975,,,,,,,,,,,,,,,,,,,,,,,,,1010,2019_May_10_1255,mf_amp_cond1,3.0.7,59.98280146613552,
dignity,&&&&&&&,images/symbols/symbol_66.png,condition_files/AMP_rep3.csv,left,sanctity.virtue,,,,,,,,,,,,,,0,0,0,2,0,36,36,36,,,,,,,,,,,,,,,,,,,,,913.2682754656998,,,,,,,,,,,,,,AMP_prac,right,3.6344849129673094,3,,,left,0.449183413060382,,,,,,,,,,,,,,,,,,,,,,,,,1010,2019_May_10_1255,mf_amp_cond1,3.0.7,59.98280146613552,
serial,&&&&&&,images/symbols/symbol_15.png,condition_files/AMP_rep3.csv,right,sanctity.vice,,,,,,,,,,,,,,0,0,0,2,0,37,37,37,,,,,,,,,,,,,,,,,,,,,913.8350767708616,,,,,,,,,,,,,,AMP_prac,right,3.6344849129673094,3,,,left,0.3489659003680572,,,,,,,,,,,,,,,,,,,,,,,,,1010,2019_May_10_1255,mf_amp_cond1,3.0.7,59.98280146613552,
skypped,&&&&&&&,images/symbols/symbol_62.png,condition_files/AMP_rep3.csv,None,nonword,,,,,,,,,,,,,,0,0,0,2,0,38,38,38,,,,,,,,,,,,,,,,,,,,,914.3852153542684,,,,,,,,,,,,,,AMP_prac,right,3.6344849129673094,3,,,left,0.3169756168499589,,,,,,,,,,,,,,,,,,,,,,,,,1010,2019_May_10_1255,mf_amp_cond1,3.0.7,59.98280146613552,
embrace,&&&&&&&,images/symbols/symbol_45.png,condition_files/AMP_rep3.csv,left,authority.virtue,,,,,,,,,,,,,,0,0,0,2,0,39,39,39,,,,,,,,,,,,,,,,,,,,,914.7686442944687,,,,,,,,,,,,,,AMP_prac,right,3.6344849129673094,3,,,left,0.16491617320571095,,,,,,,,,,,,,,,,,,,,,,,,,1010,2019_May_10_1255,mf_amp_cond1,3.0.7,59.98280146613552,
rebels,&&&&&&,images/symbols/symbol_54.png,condition_files/AMP_rep3.csv,right,authority.vice,,,,,,,,,,,,,,0,0,0,2,0,40,40,40,,,,,,,,,,,,,,,,,,,,,915.2354330273811,,,,,,,,,,,,,,AMP_prac,right,3.6344849129673094,3,,,left,0.2488218325888738,,,,,,,,,,,,,,,,,,,,,,,,,1010,2019_May_10_1255,mf_amp_cond1,3.0.7,59.98280146613552,
prosecution,&&&&&&&&&&&,images/symbols/symbol_18.png,condition_files/AMP_rep3.csv,right,authority.vice,,,,,,,,,,,,,,0,0,0,2,0,41,41,41,,,,,,,,,,,,,,,,,,,,,916.819172232761,,,,,,,,,,,,,,AMP_prac,right,3.6344849129673094,3,,,left,1.3661520383320749,,,,,,,,,,,,,,,,,,,,,,,,,1010,2019_May_10_1255,mf_amp_cond1,3.0.7,59.98280146613552,
shot,&&&&,images/symbols/symbol_72.png,condition_files/AMP_rep3.csv,right,care.vice,,,,,,,,,,,,,,0,0,0,2,0,42,42,42,,,,,,,,,,,,,,,,,,,,,917.1525857462548,,,,,,,,,,,,,,AMP_prac,right,3.6344849129673094,3,,,left,0.11553224548697472,,,,,,,,,,,,,,,,,,,,,,,,,1010,2019_May_10_1255,mf_amp_cond1,3.0.7,59.98280146613552,
suicide,&&&&&&&,images/symbols/symbol_79.png,condition_files/AMP_rep3.csv,right,care.vice,,,,,,,,,,,,,,0,0,0,2,0,43,43,43,,,,,,,,,,,,,,,,,,,,,917.4359713249141,,,,,,,,,,,,,,AMP_prac,right,3.6344849129673094,3,,,left,0.06544080807361752,,,,,,,,,,,,,,,,,,,,,,,,,1010,2019_May_10_1255,mf_amp_cond1,3.0.7,59.98280146613552,
promises,&&&&&&&&,images/symbols/symbol_10.png,condition_files/AMP_rep3.csv,left,fairness.virtue,,,,,,,,,,,,,,0,0,0,2,0,44,44,44,,,,,,,,,,,,,,,,,,,,,917.8863135018619,,,,,,,,,,,,,,AMP_prac,right,3.6344849129673094,3,,,left,0.2325253738090396,,,,,,,,,,,,,,,,,,,,,,,,,1010,2019_May_10_1255,mf_amp_cond1,3.0.7,59.98280146613552,
increase,&&&&&&&&,images/symbols/symbol_16.png,condition_files/AMP_rep3.csv,left,care.virtue,,,,,,,,,,,,,,0,0,0,2,0,45,45,45,,,,,,,,,,,,,,,,,,,,,918.1361667721067,,,,,,,,,,,,,,AMP_prac,right,3.6344849129673094,3,,,left,0.03259740769863129,,,,,,,,,,,,,,,,,,,,,,,,,1010,2019_May_10_1255,mf_amp_cond1,3.0.7,59.98280146613552,
safety,&&&&&&,images/symbols/symbol_26.png,condition_files/AMP_rep3.csv,left,care.virtue,,,,,,,,,,,,,,0,0,0,2,0,46,46,46,,,,,,,,,,,,,,,,,,,,,918.5529294946464,,,,,,,,,,,,,,AMP_prac,right,3.6344849129673094,3,,,left,0.1988602870842442,,,,,,,,,,,,,,,,,,,,,,,,,1010,2019_May_10_1255,mf_amp_cond1,3.0.7,59.98280146613552,
values,&&&&&&,images/symbols/symbol_67.png,condition_files/AMP_rep3.csv,left,sanctity.virtue,,,,,,,,,,,,,,0,0,0,2,0,47,47,47,,,,,,,,,,,,,,,,,,,,,919.7698947843164,,,,,,,,,,,,,,AMP_prac,right,3.6344849129673094,3,,,left,0.9985577191691846,,,,,,,,,,,,,,,,,,,,,,,,,1010,2019_May_10_1255,mf_amp_cond1,3.0.7,59.98280146613552,
attacks,&&&&&&&,images/symbols/symbol_32.png,condition_files/AMP_rep3.csv,right,care.vice,,,,,,,,,,,,,,0,0,0,2,0,48,48,48,,,,,,,,,,,,,,,,,,,,,920.2866966988659,,,,,,,,,,,,,,AMP_prac,right,3.6344849129673094,3,,,left,0.29897581064142287,,,,,,,,,,,,,,,,,,,,,,,,,1010,2019_May_10_1255,mf_amp_cond1,3.0.7,59.98280146613552,
perfect,&&&&&&&,images/symbols/symbol_76.png,condition_files/AMP_rep3.csv,left,sanctity.virtue,,,,,,,,,,,,,,0,0,0,2,0,49,49,49,,,,,,,,,,,,,,,,,,,,,920.9868786757579,,,,,,,,,,,,,,AMP_prac,right,3.6344849129673094,3,,,left,0.4828895521350205,,,,,,,,,,,,,,,,,,,,,,,,,1010,2019_May_10_1255,mf_amp_cond1,3.0.7,59.98280146613552,
phegned,&&&&&&&,images/symbols/symbol_37.png,condition_files/AMP_rep3.csv,None,nonword,,,,,,,,,,,,,,0,0,0,2,0,50,50,50,,,,,,,,,,,,,,,,,,,,,921.7704307085369,,,,,,,,,,,,,,AMP_prac,right,3.6344849129673094,3,,,left,0.5504172897199169,,,,,,,,,,,,,,,,,,,,,,,,,1010,2019_May_10_1255,mf_amp_cond1,3.0.7,59.98280146613552,
respect,&&&&&&&,images/symbols/symbol_53.png,condition_files/AMP_rep3.csv,left,sanctity.virtue,,,,,,,,,,,,,,0,0,0,2,0,51,51,51,,,,,,,,,,,,,,,,,,,,,922.9040143964812,,,,,,,,,,,,,,AMP_prac,right,3.6344849129673094,3,,,left,0.9154917064588517,,,,,,,,,,,,,,,,,,,,,,,,,1010,2019_May_10_1255,mf_amp_cond1,3.0.7,59.98280146613552,
lies,&&&&,images/symbols/symbol_82.png,condition_files/AMP_rep3.csv,right,fairness.vice,,,,,,,,,,,,,,0,0,0,2,0,52,52,52,,,,,,,,,,,,,,,,,,,,,923.7709008851089,,,,,,,,,,,,,,AMP_prac,right,3.6344849129673094,3,,,left,0.649476359365508,,,,,,,,,,,,,,,,,,,,,,,,,1010,2019_May_10_1255,mf_amp_cond1,3.0.7,59.98280146613552,
great,&&&&&,images/symbols/symbol_69.png,condition_files/AMP_rep3.csv,left,loyalty.virtue,,,,,,,,,,,,,,0,0,0,2,0,53,53,53,,,,,,,,,,,,,,,,,,,,,927.7218925213674,,,,,,,,,,,,,,AMP_prac,right,3.6344849129673094,3,,,right,3.7330099827377126,,,,,,,,,,,,,,,,,,,,,,,,,1010,2019_May_10_1255,mf_amp_cond1,3.0.7,59.98280146613552,
abuse,&&&&&,images/symbols/symbol_3.png,condition_files/AMP_rep3.csv,right,sanctity.vice,,,,,,,,,,,,,,0,0,0,2,0,54,54,54,,,,,,,,,,,,,,,,,,,,,928.5387683940353,,,,,,,,,,,,,,AMP_prac,right,3.6344849129673094,3,,,right,0.5987903057830408,,,,,,,,,,,,,,,,,,,,,,,,,1010,2019_May_10_1255,mf_amp_cond1,3.0.7,59.98280146613552,
interests,&&&&&&&&&,images/symbols/symbol_36.png,condition_files/AMP_rep3.csv,left,fairness.virtue,,,,,,,,,,,,,,0,0,0,2,0,55,55,55,,,,,,,,,,,,,,,,,,,,,929.7057253129315,,,,,,,,,,,,,,AMP_prac,right,3.6344849129673094,3,,,right,0.9492113158339635,,,,,,,,,,,,,,,,,,,,,,,,,1010,2019_May_10_1255,mf_amp_cond1,3.0.7,59.98280146613552,
violence,&&&&&&&&,images/symbols/symbol_78.png,condition_files/AMP_rep3.csv,right,care.vice,,,,,,,,,,,,,,0,0,0,2,0,56,56,56,,,,,,,,,,,,,,,,,,,,,931.2394346592482,,,,,,,,,,,,,,AMP_prac,right,3.6344849129673094,3,,,right,1.3158761863596737,,,,,,,,,,,,,,,,,,,,,,,,,1010,2019_May_10_1255,mf_amp_cond1,3.0.7,59.98280146613552,
penalty,&&&&&&&,images/symbols/symbol_64.png,condition_files/AMP_rep3.csv,right,authority.vice,,,,,,,,,,,,,,0,0,0,2,0,57,57,57,,,,,,,,,,,,,,,,,,,,,932.439762884751,,,,,,,,,,,,,,AMP_prac,right,3.6344849129673094,3,,,right,0.9824453541077673,,,,,,,,,,,,,,,,,,,,,,,,,1010,2019_May_10_1255,mf_amp_cond1,3.0.7,59.98280146613552,
sexual,&&&&&&,images/symbols/symbol_59.png,condition_files/AMP_rep3.csv,right,sanctity.vice,,,,,,,,,,,,,,0,0,0,2,0,58,58,58,,,,,,,,,,,,,,,,,,,,,933.1566175258486,,,,,,,,,,,,,,AMP_prac,right,3.6344849129673094,3,,,right,0.4991792757064104,,,,,,,,,,,,,,,,,,,,,,,,,1010,2019_May_10_1255,mf_amp_cond1,3.0.7,59.98280146613552,
agreement,&&&&&&&&&,images/symbols/symbol_6.png,condition_files/AMP_rep3.csv,left,fairness.virtue,,,,,,,,,,,,,,0,0,0,2,0,59,59,59,,,,,,,,,,,,,,,,,,,,,933.9068062698934,,,,,,,,,,,,,,AMP_prac,right,3.6344849129673094,3,,,right,0.517073565046303,,,,,,,,,,,,,,,,,,,,,,,,,1010,2019_May_10_1255,mf_amp_cond1,3.0.7,59.98280146613552,
sharing,&&&&&&&,images/symbols/symbol_21.png,condition_files/AMP_rep3.csv,left,loyalty.virtue,,,,,,,,,,,,,,0,0,0,2,0,60,60,60,,,,,,,,,,,,,,,,,,,,,934.656952037476,,,,,,,,,,,,,,AMP_prac,right,3.6344849129673094,3,,,right,0.5318959915312007,,,,,,,,,,,,,,,,,,,,,,,,,1010,2019_May_10_1255,mf_amp_cond1,3.0.7,59.98280146613552,
ban,&&&,images/symbols/symbol_71.png,condition_files/AMP_rep3.csv,right,loyalty.vice,,,,,,,,,,,,,,0,0,0,2,0,61,61,61,,,,,,,,,,,,,,,,,,,,,935.0403838640777,,,,,,,,,,,,,,AMP_prac,right,3.6344849129673094,3,,,right,0.16546717134770006,,,,,,,,,,,,,,,,,,,,,,,,,1010,2019_May_10_1255,mf_amp_cond1,3.0.7,59.98280146613552,
clorze,&&&&&&,images/symbols/symbol_81.png,condition_files/AMP_rep3.csv,None,nonword,,,,,,,,,,,,,,0,0,0,2,0,62,62,62,,,,,,,,,,,,,,,,,,,,,935.2737995585194,,,,,,,,,,,,,,AMP_prac,right,3.6344849129673094,3,,,right,0.015541482251137495,,,,,,,,,,,,,,,,,,,,,,,,,1010,2019_May_10_1255,mf_amp_cond1,3.0.7,59.98280146613552,
voter,&&&&&,images/symbols/symbol_57.png,condition_files/AMP_rep3.csv,right,fairness.vice,,,,,,,,,,,,,,0,0,0,2,0,63,63,63,,,,,,,,,,,,,,,,,,,,,935.5071600889787,,,,,,,,,,,,,,AMP_prac,right,3.6344849129673094,3,,,right,0.015656620962545276,,,,,,,,,,,,,,,,,,,,,,,,,1010,2019_May_10_1255,mf_amp_cond1,3.0.7,59.98280146613552,
compassion,&&&&&&&&&&,images/symbols/symbol_48.png,condition_files/AMP_rep3.csv,left,care.virtue,,,,,,,,,,,,,,0,0,0,2,0,64,64,64,,,,,,,,,,,,,,,,,,,,,935.9072626554407,,,,,,,,,,,,,,AMP_prac,right,3.6344849129673094,3,,,right,0.1822527291951701,,,,,,,,,,,,,,,,,,,,,,,,,1010,2019_May_10_1255,mf_amp_cond1,3.0.7,59.98280146613552,
unpleasant,&&&&&&&&&,images/symbols/symbol_28.png,condition_files/AMP_rep3.csv,left,control,,,,,,,,,,,,,,0,0,0,2,0,65,65,65,,,,,,,,,,,,,,,,,,,,,936.2906909541925,,,,,,,,,,,,,,AMP_prac,right,3.6344849129673094,3,,,right,0.1656310596736148,,,,,,,,,,,,,,,,,,,,,,,,,1010,2019_May_10_1255,mf_amp_cond1,3.0.7,59.98280146613552,
good,&&&&,images/symbols/symbol_58.png,condition_files/AMP_rep3.csv,left,care.virtue,,,,,,,,,,,,,,0,0,0,2,0,66,66,66,,,,,,,,,,,,,,,,,,,,,936.6741195735522,,,,,,,,,,,,,,AMP_prac,right,3.6344849129673094,3,,,right,0.16560219472739846,,,,,,,,,,,,,,,,,,,,,,,,,1010,2019_May_10_1255,mf_amp_cond1,3.0.7,59.98280146613552,
help,&&&&,images/symbols/symbol_46.png,condition_files/AMP_rep3.csv,left,care.virtue,,,,,,,,,,,,,,0,0,0,2,0,67,67,67,,,,,,,,,,,,,,,,,,,,,937.1575742355781,,,,,,,,,,,,,,AMP_prac,right,3.6344849129673094,3,,,left,0.26568340125959367,,,,,,,,,,,,,,,,,,,,,,,,,1010,2019_May_10_1255,mf_amp_cond1,3.0.7,59.98280146613552,
twild,&&&&&,images/symbols/symbol_55.png,condition_files/AMP_rep3.csv,None,nonword,,,,,,,,,,,,,,0,0,0,2,0,68,68,68,,,,,,,,,,,,,,,,,,,,,937.5410015721573,,,,,,,,,,,,,,AMP_prac,right,3.6344849129673094,3,,,left,0.1653918019728735,,,,,,,,,,,,,,,,,,,,,,,,,1010,2019_May_10_1255,mf_amp_cond1,3.0.7,59.98280146613552,
snoze,&&&&&,images/symbols/symbol_19.png,condition_files/AMP_rep3.csv,None,nonword,,,,,,,,,,,,,,0,0,0,2,0,69,69,69,,,,,,,,,,,,,,,,,,,,,937.9744485047413,,,,,,,,,,,,,,AMP_prac,right,3.6344849129673094,3,,,right,0.21552012243773788,,,,,,,,,,,,,,,,,,,,,,,,,1010,2019_May_10_1255,mf_amp_cond1,3.0.7,59.98280146613552,
freedom,&&&&&&&,images/symbols/symbol_61.png,condition_files/AMP_rep3.csv,left,sanctity.virtue,,,,,,,,,,,,,,0,0,0,2,0,70,70,70,,,,,,,,,,,,,,,,,,,,,938.2078735000687,,,,,,,,,,,,,,AMP_prac,right,3.6344849129673094,3,,,left,0.01559985347557813,,,,,,,,,,,,,,,,,,,,,,,,,1010,2019_May_10_1255,mf_amp_cond1,3.0.7,59.98280146613552,
peaceful,&&&&&&&&,images/symbols/symbol_38.png,condition_files/AMP_rep3.csv,left,authority.virtue,,,,,,,,,,,,,,0,0,0,2,0,71,71,71,,,,,,,,,,,,,,,,,,,,,938.5579497353174,,,,,,,,,,,,,,AMP_prac,right,3.6344849129673094,3,,,left,0.13211029709782451,,,,,,,,,,,,,,,,,,,,,,,,,1010,2019_May_10_1255,mf_amp_cond1,3.0.7,59.98280146613552,
riot,&&&&,images/symbols/symbol_40.png,condition_files/AMP_rep3.csv,right,authority.vice,,,,,,,,,,,,,,0,0,0,2,0,72,72,72,,,,,,,,,,,,,,,,,,,,,938.99137806613,,,,,,,,,,,,,,AMP_prac,right,3.6344849129673094,3,,,right,0.21545918541960418,,,,,,,,,,,,,,,,,,,,,,,,,1010,2019_May_10_1255,mf_amp_cond1,3.0.7,59.98280146613552,
feuld,&&&&&,images/symbols/symbol_63.png,condition_files/AMP_rep3.csv,None,nonword,,,,,,,,,,,,,,0,0,0,2,0,73,73,73,,,,,,,,,,,,,,,,,,,,,939.3747874422697,,,,,,,,,,,,,,AMP_prac,right,3.6344849129673094,3,,,right,0.16563394607510418,,,,,,,,,,,,,,,,,,,,,,,,,1010,2019_May_10_1255,mf_amp_cond1,3.0.7,59.98280146613552,
drug,&&&&,images/symbols/symbol_20.png,condition_files/AMP_rep3.csv,right,sanctity.vice,,,,,,,,,,,,,,0,0,0,2,0,74,74,74,,,,,,,,,,,,,,,,,,,,,939.6082079475746,,,,,,,,,,,,,,AMP_prac,right,3.6344849129673094,3,,,left,0.015819226391613483,,,,,,,,,,,,,,,,,,,,,,,,,1010,2019_May_10_1255,mf_amp_cond1,3.0.7,59.98280146613552,
party,&&&&&,images/symbols/symbol_9.png,condition_files/AMP_rep3.csv,left,loyalty.virtue,,,,,,,,,,,,,,0,0,0,2,0,75,75,75,,,,,,,,,,,,,,,,,,,,,939.8582417835714,,,,,,,,,,,,,,AMP_prac,right,3.6344849129673094,3,,,right,0.03228855365887284,,,,,,,,,,,,,,,,,,,,,,,,,1010,2019_May_10_1255,mf_amp_cond1,3.0.7,59.98280146613552,
groups,&&&&&&,images/symbols/symbol_42.png,condition_files/AMP_rep3.csv,right,loyalty.vice,,,,,,,,,,,,,,0,0,0,2,0,76,76,76,,,,,,,,,,,,,,,,,,,,,940.1249867702136,,,,,,,,,,,,,,AMP_prac,right,3.6344849129673094,3,,,right,0.04895897279493511,,,,,,,,,,,,,,,,,,,,,,,,,1010,2019_May_10_1255,mf_amp_cond1,3.0.7,59.98280146613552,
corruption,&&&&&&&&&&,images/symbols/symbol_49.png,condition_files/AMP_rep3.csv,right,sanctity.vice,,,,,,,,,,,,,,0,0,0,2,0,77,77,77,,,,,,,,,,,,,,,,,,,,,940.4750690992223,,,,,,,,,,,,,,AMP_prac,right,3.6344849129673094,3,,,left,0.11693700205069035,,,,,,,,,,,,,,,,,,,,,,,,,1010,2019_May_10_1255,mf_amp_cond1,3.0.7,59.98280146613552,
commitment,&&&&&&&&&&,images/symbols/symbol_5.png,condition_files/AMP_rep3.csv,left,sanctity.virtue,,,,,,,,,,,,,,0,0,0,2,0,78,78,78,,,,,,,,,,,,,,,,,,,,,940.8751703827875,,,,,,,,,,,,,,AMP_prac,right,3.6344849129673094,3,,,right,0.18173380312509835,,,,,,,,,,,,,,,,,,,,,,,,,1010,2019_May_10_1255,mf_amp_cond1,3.0.7,59.98280146613552,
violations,&&&&&&&&&&,images/symbols/symbol_4.png,condition_files/AMP_rep3.csv,right,sanctity.vice,,,,,,,,,,,,,,0,0,0,2,0,79,79,79,,,,,,,,,,,,,,,,,,,,,941.1919038555352,,,,,,,,,,,,,,AMP_prac,right,3.6344849129673094,3,,,right,0.09892372554168105,,,,,,,,,,,,,,,,,,,,,,,,,1010,2019_May_10_1255,mf_amp_cond1,3.0.7,59.98280146613552,
fair,&&&&,images/symbols/symbol_47.png,condition_files/AMP_rep3.csv,left,fairness.virtue,,,,,,,,,,,,,,0,0,0,2,0,80,80,80,,,,,,,,,,,,,,,,,,,,,941.4100349649088,,,,,,,,,,,,,,AMP_prac,right,3.6344849129673094,3,,,right,0.0003078917507082224,,,,,,,,,,,,,,,,,,,,,,,,,1010,2019_May_10_1255,mf_amp_cond1,3.0.7,59.98280146613552,
trust,&&&&&,images/symbols/symbol_68.png,condition_files/AMP_rep3.csv,left,authority.virtue,,,,,,,,,,,,,,0,0,0,2,0,81,81,81,,,,,,,,,,,,,,,,,,,,,941.6420568072936,,,,,,,,,,,,,,AMP_prac,right,3.6344849129673094,3,,,left,0.0002998738782480359,,,,,,,,,,,,,,,,,,,,,,,,,1010,2019_May_10_1255,mf_amp_cond1,3.0.7,59.98280146613552,
,,,condition_files/AMP_rep3.csv,,,,,,,,,,,,,,,,0,0,0,2,,,,,,,,,,,,,,,,,,,,,,,,,,,,,,,,,,,,,,,,,,,,,,,right,4.301317071542144,,,,,,,,,,,,,,,,,,,,,,,1010,2019_May_10_1255,mf_amp_cond1,3.0.7,59.98280146613552,
praise,&&&&&&,images/symbols/symbol_44.png,condition_files/AMP_rep4.csv,left,authority.virtue,,,,,,,,,,,,,,0,1,1,3,0,0,0,0,,,,,,,,,,,,,,,,,,,,,946.5934082921594,,,,,,,,,,,,,,AMP_prac,right,3.6344849129673094,3,,,right,0.38367108430247754,,,,,,,,,,,,,,,,,,,,,,,,,1010,2019_May_10_1255,mf_amp_cond1,3.0.7,59.98280146613552,
hope,&&&&,images/symbols/symbol_77.png,condition_files/AMP_rep4.csv,left,loyalty.virtue,,,,,,,,,,,,,,0,1,1,3,0,1,1,1,,,,,,,,,,,,,,,,,,,,,947.0433668870246,,,,,,,,,,,,,,AMP_prac,right,3.6344849129673094,3,,,left,0.23217739188112319,,,,,,,,,,,,,,,,,,,,,,,,,1010,2019_May_10_1255,mf_amp_cond1,3.0.7,59.98280146613552,
intelligence,&&&&&&&&&&&&,images/symbols/symbol_50.png,condition_files/AMP_rep4.csv,left,loyalty.virtue,,,,,,,,,,,,,,0,1,1,3,0,2,2,2,,,,,,,,,,,,,,,,,,,,,947.2767758463742,,,,,,,,,,,,,,AMP_prac,right,3.6344849129673094,3,,,left,0.01571306784171611,,,,,,,,,,,,,,,,,,,,,,,,,1010,2019_May_10_1255,mf_amp_cond1,3.0.7,59.98280146613552,
slavery,&&&&&&&,images/symbols/symbol_51.png,condition_files/AMP_rep4.csv,right,loyalty.vice,,,,,,,,,,,,,,0,1,1,3,0,3,3,3,,,,,,,,,,,,,,,,,,,,,947.6435340467142,,,,,,,,,,,,,,AMP_prac,right,3.6344849129673094,3,,,left,0.1336189671419561,,,,,,,,,,,,,,,,,,,,,,,,,1010,2019_May_10_1255,mf_amp_cond1,3.0.7,59.98280146613552,
died,&&&&,images/symbols/symbol_52.png,condition_files/AMP_rep4.csv,right,care.vice,,,,,,,,,,,,,,0,1,1,3,0,4,4,4,,,,,,,,,,,,,,,,,,,,,947.9936093197903,,,,,,,,,,,,,,AMP_prac,right,3.6344849129673094,3,,,left,0.13241626461967826,,,,,,,,,,,,,,,,,,,,,,,,,1010,2019_May_10_1255,mf_amp_cond1,3.0.7,59.98280146613552,
fighters,&&&&&&&&,images/symbols/symbol_43.png,condition_files/AMP_rep4.csv,right,authority.vice,,,,,,,,,,,,,,0,1,1,3,0,5,5,5,,,,,,,,,,,,,,,,,,,,,948.360376179684,,,,,,,,,,,,,,AMP_prac,right,3.6344849129673094,3,,,right,0.13361640134826303,,,,,,,,,,,,,,,,,,,,,,,,,1010,2019_May_10_1255,mf_amp_cond1,3.0.7,59.98280146613552,
terrorists,&&&&&&&&&&,images/symbols/symbol_14.png,condition_files/AMP_rep4.csv,right,fairness.vice,,,,,,,,,,,,,,0,1,1,3,0,6,6,6,,,,,,,,,,,,,,,,,,,,,948.5937703857198,,,,,,,,,,,,,,AMP_prac,right,3.6344849129673094,3,,,right,0.015236477018333972,,,,,,,,,,,,,,,,,,,,,,,,,1010,2019_May_10_1255,mf_amp_cond1,3.0.7,59.98280146613552,
encourage,&&&&&&&&&,images/symbols/symbol_34.png,condition_files/AMP_rep4.csv,left,authority.virtue,,,,,,,,,,,,,,0,1,1,3,0,7,7,7,,,,,,,,,,,,,,,,,,,,,949.0105372776743,,,,,,,,,,,,,,AMP_prac,right,3.6344849129673094,3,,,right,0.19885932479519397,,,,,,,,,,,,,,,,,,,,,,,,,1010,2019_May_10_1255,mf_amp_cond1,3.0.7,59.98280146613552,
terrorist,&&&&&&&&&,images/symbols/symbol_65.png,condition_files/AMP_rep4.csv,right,loyalty.vice,,,,,,,,,,,,,,0,1,1,3,0,8,8,8,,,,,,,,,,,,,,,,,,,,,949.3606366048334,,,,,,,,,,,,,,AMP_prac,right,3.6344849129673094,3,,,right,0.1322619979036972,,,,,,,,,,,,,,,,,,,,,,,,,1010,2019_May_10_1255,mf_amp_cond1,3.0.7,59.98280146613552,
safe,&&&&,images/symbols/symbol_41.png,condition_files/AMP_rep4.csv,left,care.virtue,,,,,,,,,,,,,,0,1,1,3,0,9,9,9,,,,,,,,,,,,,,,,,,,,,949.8107347133337,,,,,,,,,,,,,,AMP_prac,right,3.6344849129673094,3,,,right,0.23274057731032372,,,,,,,,,,,,,,,,,,,,,,,,,1010,2019_May_10_1255,mf_amp_cond1,3.0.7,59.98280146613552,
friends,&&&&&&&,images/symbols/symbol_73.png,condition_files/AMP_rep4.csv,left,loyalty.virtue,,,,,,,,,,,,,,0,1,1,3,0,10,10,10,,,,,,,,,,,,,,,,,,,,,950.1608613017015,,,,,,,,,,,,,,AMP_prac,right,3.6344849129673094,3,,,right,0.13226712960749865,,,,,,,,,,,,,,,,,,,,,,,,,1010,2019_May_10_1255,mf_amp_cond1,3.0.7,59.98280146613552,
illegal,&&&&&&&,images/symbols/symbol_2.png,condition_files/AMP_rep4.csv,right,fairness.vice,,,,,,,,,,,,,,0,1,1,3,0,11,11,11,,,,,,,,,,,,,,,,,,,,,950.5442543211393,,,,,,,,,,,,,,AMP_prac,right,3.6344849129673094,3,,,right,0.1652763425372541,,,,,,,,,,,,,,,,,,,,,,,,,1010,2019_May_10_1255,mf_amp_cond1,3.0.7,59.98280146613552,
betrayal,&&&&&&&&,images/symbols/symbol_70.png,condition_files/AMP_rep4.csv,right,loyalty.vice,,,,,,,,,,,,,,0,1,1,3,0,12,12,12,,,,,,,,,,,,,,,,,,,,,950.911005465663,,,,,,,,,,,,,,AMP_prac,right,3.6344849129673094,3,,,right,0.14905717747751623,,,,,,,,,,,,,,,,,,,,,,,,,1010,2019_May_10_1255,mf_amp_cond1,3.0.7,59.98280146613552,
failure,&&&&&&&,images/symbols/symbol_75.png,condition_files/AMP_rep4.csv,right,loyalty.vice,,,,,,,,,,,,,,0,1,1,3,0,13,13,13,,,,,,,,,,,,,,,,,,,,,951.2944311986212,,,,,,,,,,,,,,AMP_prac,right,3.6344849129673094,3,,,right,0.16560989199206233,,,,,,,,,,,,,,,,,,,,,,,,,1010,2019_May_10_1255,mf_amp_cond1,3.0.7,59.98280146613552,
growth,&&&&&&,images/symbols/symbol_29.png,condition_files/AMP_rep4.csv,left,care.virtue,,,,,,,,,,,,,,0,1,1,3,0,14,14,14,,,,,,,,,,,,,,,,,,,,,951.8945871330798,,,,,,,,,,,,,,AMP_prac,right,3.6344849129673094,3,,,right,0.38212296564597636,,,,,,,,,,,,,,,,,,,,,,,,,1010,2019_May_10_1255,mf_amp_cond1,3.0.7,59.98280146613552,
credit,&&&&&&,images/symbols/symbol_35.png,condition_files/AMP_rep4.csv,left,fairness.virtue,,,,,,,,,,,,,,0,1,1,3,0,15,15,15,,,,,,,,,,,,,,,,,,,,,952.2947342796251,,,,,,,,,,,,,,AMP_prac,right,3.6344849129673094,3,,,right,0.18234990758355707,,,,,,,,,,,,,,,,,,,,,,,,,1010,2019_May_10_1255,mf_amp_cond1,3.0.7,59.98280146613552,
police,&&&&&&,images/symbols/symbol_30.png,condition_files/AMP_rep4.csv,right,authority.vice,,,,,,,,,,,,,,0,1,1,3,0,16,16,16,,,,,,,,,,,,,,,,,,,,,952.76146849012,,,,,,,,,,,,,,AMP_prac,right,3.6344849129673094,3,,,right,0.24920990457758307,,,,,,,,,,,,,,,,,,,,,,,,,1010,2019_May_10_1255,mf_amp_cond1,3.0.7,59.98280146613552,
rejected,&&&&&&&&,images/symbols/symbol_27.png,condition_files/AMP_rep4.csv,right,authority.vice,,,,,,,,,,,,,,0,1,1,3,0,17,17,17,,,,,,,,,,,,,,,,,,,,,953.2616025513271,,,,,,,,,,,,,,AMP_prac,right,3.6344849129673094,3,,,right,0.2819445807253942,,,,,,,,,,,,,,,,,,,,,,,,,1010,2019_May_10_1255,mf_amp_cond1,3.0.7,59.98280146613552,
forced,&&&&&&,images/symbols/symbol_7.png,condition_files/AMP_rep4.csv,right,fairness.vice,,,,,,,,,,,,,,0,1,1,3,0,18,18,18,,,,,,,,,,,,,,,,,,,,,953.4950230565155,,,,,,,,,,,,,,AMP_prac,right,3.6344849129673094,3,,,right,0.015802228241227567,,,,,,,,,,,,,,,,,,,,,,,,,1010,2019_May_10_1255,mf_amp_cond1,3.0.7,59.98280146613552,
ensure,&&&&&&,images/symbols/symbol_11.png,condition_files/AMP_rep4.csv,left,fairness.virtue,,,,,,,,,,,,,,0,1,1,3,0,19,19,19,,,,,,,,,,,,,,,,,,,,,953.811742738355,,,,,,,,,,,,,,AMP_prac,right,3.6344849129673094,3,,,right,0.09904303366784006,,,,,,,,,,,,,,,,,,,,,,,,,1010,2019_May_10_1255,mf_amp_cond1,3.0.7,59.98280146613552,
torture,&&&&&&&,images/symbols/symbol_74.png,condition_files/AMP_rep4.csv,right,care.vice,,,,,,,,,,,,,,0,1,1,3,0,20,20,20,,,,,,,,,,,,,,,,,,,,,954.3118774410104,,,,,,,,,,,,,,AMP_prac,right,3.6344849129673094,3,,,right,0.26699418667703867,,,,,,,,,,,,,,,,,,,,,,,,,1010,2019_May_10_1255,mf_amp_cond1,3.0.7,59.98280146613552,
promote,&&&&&&&,images/symbols/symbol_39.png,condition_files/AMP_rep4.csv,left,sanctity.virtue,,,,,,,,,,,,,,0,1,1,3,0,21,21,21,,,,,,,,,,,,,,,,,,,,,954.6952932316344,,,,,,,,,,,,,,AMP_prac,right,3.6344849129673094,3,,,right,0.16508102358784527,,,,,,,,,,,,,,,,,,,,,,,,,1010,2019_May_10_1255,mf_amp_cond1,3.0.7,59.98280146613552,
spauned,&&&&&&&,images/symbols/symbol_8.png,condition_files/AMP_rep4.csv,None,nonword,,,,,,,,,,,,,,0,1,1,3,0,22,22,22,,,,,,,,,,,,,,,,,,,,,955.1287465787027,,,,,,,,,,,,,,AMP_prac,right,3.6344849129673094,3,,,right,0.21585238887928426,,,,,,,,,,,,,,,,,,,,,,,,,1010,2019_May_10_1255,mf_amp_cond1,3.0.7,59.98280146613552,
ailled,&&&&&&,images/symbols/symbol_22.png,condition_files/AMP_rep4.csv,None,nonword,,,,,,,,,,,,,,0,1,1,3,0,23,23,23,,,,,,,,,,,,,,,,,,,,,955.5623971688328,,,,,,,,,,,,,,AMP_prac,right,3.6344849129673094,3,,,right,0.21583827724680305,,,,,,,,,,,,,,,,,,,,,,,,,1010,2019_May_10_1255,mf_amp_cond1,3.0.7,59.98280146613552,
free,&&&&,images/symbols/symbol_25.png,condition_files/AMP_rep4.csv,left,fairness.virtue,,,,,,,,,,,,,,0,1,1,3,0,24,24,24,,,,,,,,,,,,,,,,,,,,,955.8955893851817,,,,,,,,,,,,,,AMP_prac,right,3.6344849129673094,3,,,right,0.11548702395521104,,,,,,,,,,,,,,,,,,,,,,,,,1010,2019_May_10_1255,mf_amp_cond1,3.0.7,59.98280146613552,
troops,&&&&&&,images/symbols/symbol_80.png,condition_files/AMP_rep4.csv,right,loyalty.vice,,,,,,,,,,,,,,0,1,1,3,0,25,25,25,,,,,,,,,,,,,,,,,,,,,956.1456447094679,,,,,,,,,,,,,,AMP_prac,right,3.6344849129673094,3,,,right,0.032678870717063546,,,,,,,,,,,,,,,,,,,,,,,,,1010,2019_May_10_1255,mf_amp_cond1,3.0.7,59.98280146613552,
hate,&&&&,images/symbols/symbol_56.png,condition_files/AMP_rep4.csv,right,fairness.vice,,,,,,,,,,,,,,0,1,1,3,0,26,26,26,,,,,,,,,,,,,,,,,,,,,956.4790726553183,,,,,,,,,,,,,,AMP_prac,right,3.6344849129673094,3,,,right,0.1156127464491874,,,,,,,,,,,,,,,,,,,,,,,,,1010,2019_May_10_1255,mf_amp_cond1,3.0.7,59.98280146613552,
gryssed,&&&&&&&,images/symbols/symbol_23.png,condition_files/AMP_rep4.csv,None,nonword,,,,,,,,,,,,,,0,1,1,3,0,27,27,27,,,,,,,,,,,,,,,,,,,,,956.7791440477595,,,,,,,,,,,,,,AMP_prac,right,3.6344849129673094,3,,,right,0.08214746857993305,,,,,,,,,,,,,,,,,,,,,,,,,1010,2019_May_10_1255,mf_amp_cond1,3.0.7,59.98280146613552,
celebrated,&&&&&&&&&&,images/symbols/symbol_31.png,condition_files/AMP_rep4.csv,left,authority.virtue,,,,,,,,,,,,,,0,1,1,3,0,28,28,28,,,,,,,,,,,,,,,,,,,,,957.14589038142,,,,,,,,,,,,,,AMP_prac,right,3.6344849129673094,3,,,left,0.1336032518884167,,,,,,,,,,,,,,,,,,,,,,,,,1010,2019_May_10_1255,mf_amp_cond1,3.0.7,59.98280146613552,
crime,&&&&&,images/symbols/symbol_33.png,condition_files/AMP_rep4.csv,right,fairness.vice,,,,,,,,,,,,,,0,1,1,3,0,29,29,29,,,,,,,,,,,,,,,,,,,,,957.4126350474544,,,,,,,,,,,,,,AMP_prac,right,3.6344849129673094,3,,,left,0.048423369182273746,,,,,,,,,,,,,,,,,,,,,,,,,1010,2019_May_10_1255,mf_amp_cond1,3.0.7,59.98280146613552,
progress,&&&&&&&&,images/symbols/symbol_1.png,condition_files/AMP_rep4.csv,left,authority.virtue,,,,,,,,,,,,,,0,1,1,3,0,30,30,30,,,,,,,,,,,,,,,,,,,,,957.6308418468107,,,,,,,,,,,,,,AMP_prac,right,3.6344849129673094,3,,,left,0.00030468462500721216,,,,,,,,,,,,,,,,,,,,,,,,,1010,2019_May_10_1255,mf_amp_cond1,3.0.7,59.98280146613552,
prinse,&&&&&&,images/symbols/symbol_60.png,condition_files/AMP_rep4.csv,None,nonword,,,,,,,,,,,,,,0,1,1,3,0,31,31,31,,,,,,,,,,,,,,,,,,,,,958.1294797461014,,,,,,,,,,,,,,AMP_prac,right,3.6344849129673094,3,,,left,0.26698135782498866,,,,,,,,,,,,,,,,,,,,,,,,,1010,2019_May_10_1255,mf_amp_cond1,3.0.7,59.98280146613552,
pleasant,&&&&&&&,images/symbols/symbol_24.png,condition_files/AMP_rep4.csv,right,control,,,,,,,,,,,,,,0,1,1,3,0,32,32,32,,,,,,,,,,,,,,,,,,,,,958.5462527316995,,,,,,,,,,,,,,AMP_prac,right,3.6344849129673094,3,,,left,0.1981864528497681,,,,,,,,,,,,,,,,,,,,,,,,,1010,2019_May_10_1255,mf_amp_cond1,3.0.7,59.98280146613552,
fear,&&&&,images/symbols/symbol_13.png,condition_files/AMP_rep4.csv,right,sanctity.vice,,,,,,,,,,,,,,0,1,1,3,0,33,33,33,,,,,,,,,,,,,,,,,,,,,958.8129736642586,,,,,,,,,,,,,,AMP_prac,right,3.6344849129673094,3,,,left,0.04889803589321673,,,,,,,,,,,,,,,,,,,,,,,,,1010,2019_May_10_1255,mf_amp_cond1,3.0.7,59.98280146613552,
injured,&&&&&&&,images/symbols/symbol_12.png,condition_files/AMP_rep4.csv,right,care.vice,,,,,,,,,,,,,,0,1,1,3,0,34,34,34,,,,,,,,,,,,,,,,,,,,,959.0310784744797,,,,,,,,,,,,,,AMP_prac,right,3.6344849129673094,3,,,left,0.000305967521853745,,,,,,,,,,,,,,,,,,,,,,,,,1010,2019_May_10_1255,mf_amp_cond1,3.0.7,59.98280146613552,
promised,&&&&&&&&,images/symbols/symbol_17.png,condition_files/AMP_rep4.csv,left,loyalty.virtue,,,,,,,,,,,,,,0,1,1,3,0,35,35,35,,,,,,,,,,,,,,,,,,,,,959.5799271194264,,,,,,,,,,,,,,AMP_prac,right,3.6344849129673094,3,,,left,0.3323394199833274,,,,,,,,,,,,,,,,,,,,,,,,,1010,2019_May_10_1255,mf_amp_cond1,3.0.7,59.98280146613552,
dignity,&&&&&&&,images/symbols/symbol_66.png,condition_files/AMP_rep4.csv,left,sanctity.virtue,,,,,,,,,,,,,,0,1,1,3,0,36,36,36,,,,,,,,,,,,,,,,,,,,,960.0634571507107,,,,,,,,,,,,,,AMP_prac,right,3.6344849129673094,3,,,left,0.2657667886232957,,,,,,,,,,,,,,,,,,,,,,,,,1010,2019_May_10_1255,mf_amp_cond1,3.0.7,59.98280146613552,
serial,&&&&&&,images/symbols/symbol_15.png,condition_files/AMP_rep4.csv,right,sanctity.vice,,,,,,,,,,,,,,0,1,1,3,0,37,37,37,,,,,,,,,,,,,,,,,,,,,960.513412217726,,,,,,,,,,,,,,AMP_prac,right,3.6344849129673094,3,,,left,0.2322505161864683,,,,,,,,,,,,,,,,,,,,,,,,,1010,2019_May_10_1255,mf_amp_cond1,3.0.7,59.98280146613552,
skypped,&&&&&&&,images/symbols/symbol_62.png,condition_files/AMP_rep4.csv,None,nonword,,,,,,,,,,,,,,0,1,1,3,0,38,38,38,,,,,,,,,,,,,,,,,,,,,960.9635250793071,,,,,,,,,,,,,,AMP_prac,right,3.6344849129673094,3,,,left,0.21695759240537882,,,,,,,,,,,,,,,,,,,,,,,,,1010,2019_May_10_1255,mf_amp_cond1,3.0.7,59.98280146613552,
embrace,&&&&&&&,images/symbols/symbol_45.png,condition_files/AMP_rep4.csv,left,authority.virtue,,,,,,,,,,,,,,0,1,1,3,0,39,39,39,,,,,,,,,,,,,,,,,,,,,961.4803234660067,,,,,,,,,,,,,,AMP_prac,right,3.6344849129673094,3,,,left,0.2984992197016254,,,,,,,,,,,,,,,,,,,,,,,,,1010,2019_May_10_1255,mf_amp_cond1,3.0.7,59.98280146613552,
rebels,&&&&&&,images/symbols/symbol_54.png,condition_files/AMP_rep4.csv,right,authority.vice,,,,,,,,,,,,,,0,1,1,3,0,40,40,40,,,,,,,,,,,,,,,,,,,,,962.0137986860937,,,,,,,,,,,,,,AMP_prac,right,3.6344849129673094,3,,,left,0.3154775305883959,,,,,,,,,,,,,,,,,,,,,,,,,1010,2019_May_10_1255,mf_amp_cond1,3.0.7,59.98280146613552,
prosecution,&&&&&&&&&&&,images/symbols/symbol_18.png,condition_files/AMP_rep4.csv,right,authority.vice,,,,,,,,,,,,,,0,1,1,3,0,41,41,41,,,,,,,,,,,,,,,,,,,,,962.5639420803636,,,,,,,,,,,,,,AMP_prac,right,3.6344849129673094,3,,,left,0.3324349947506562,,,,,,,,,,,,,,,,,,,,,,,,,1010,2019_May_10_1255,mf_amp_cond1,3.0.7,59.98280146613552,
shot,&&&&,images/symbols/symbol_72.png,condition_files/AMP_rep4.csv,right,care.vice,,,,,,,,,,,,,,0,1,1,3,0,42,42,42,,,,,,,,,,,,,,,,,,,,,963.0807128850138,,,,,,,,,,,,,,AMP_prac,right,3.6344849129673094,3,,,left,0.2988824809435755,,,,,,,,,,,,,,,,,,,,,,,,,1010,2019_May_10_1255,mf_amp_cond1,3.0.7,59.98280146613552,
suicide,&&&&&&&,images/symbols/symbol_79.png,condition_files/AMP_rep4.csv,right,care.vice,,,,,,,,,,,,,,0,1,1,3,0,43,43,43,,,,,,,,,,,,,,,,,,,,,963.6141800872283,,,,,,,,,,,,,,AMP_prac,right,3.6344849129673094,3,,,left,0.3154470621375367,,,,,,,,,,,,,,,,,,,,,,,,,1010,2019_May_10_1255,mf_amp_cond1,3.0.7,59.98280146613552,
promises,&&&&&&&&,images/symbols/symbol_10.png,condition_files/AMP_rep4.csv,left,fairness.virtue,,,,,,,,,,,,,,0,1,1,3,0,44,44,44,,,,,,,,,,,,,,,,,,,,,964.1643302164739,,,,,,,,,,,,,,AMP_prac,right,3.6344849129673094,3,,,left,0.3322755965637043,,,,,,,,,,,,,,,,,,,,,,,,,1010,2019_May_10_1255,mf_amp_cond1,3.0.7,59.98280146613552,
increase,&&&&&&&&,images/symbols/symbol_16.png,condition_files/AMP_rep4.csv,left,care.virtue,,,,,,,,,,,,,,0,1,1,3,0,45,45,45,,,,,,,,,,,,,,,,,,,,,964.7644762085984,,,,,,,,,,,,,,AMP_prac,right,3.6344849129673094,3,,,left,0.38250558532308787,,,,,,,,,,,,,,,,,,,,,,,,,1010,2019_May_10_1255,mf_amp_cond1,3.0.7,59.98280146613552,
safety,&&&&&&,images/symbols/symbol_26.png,condition_files/AMP_rep4.csv,left,care.virtue,,,,,,,,,,,,,,0,1,1,3,0,46,46,46,,,,,,,,,,,,,,,,,,,,,965.3479508194141,,,,,,,,,,,,,,AMP_prac,right,3.6344849129673094,3,,,left,0.36548558075446635,,,,,,,,,,,,,,,,,,,,,,,,,1010,2019_May_10_1255,mf_amp_cond1,3.0.7,59.98280146613552,
values,&&&&&&,images/symbols/symbol_67.png,condition_files/AMP_rep4.csv,left,sanctity.virtue,,,,,,,,,,,,,,0,1,1,3,0,47,47,47,,,,,,,,,,,,,,,,,,,,,965.8814286052948,,,,,,,,,,,,,,AMP_prac,right,3.6344849129673094,3,,,left,0.31516963872127235,,,,,,,,,,,,,,,,,,,,,,,,,1010,2019_May_10_1255,mf_amp_cond1,3.0.7,59.98280146613552,
attacks,&&&&&&&,images/symbols/symbol_32.png,condition_files/AMP_rep4.csv,right,care.vice,,,,,,,,,,,,,,0,1,1,3,0,48,48,48,,,,,,,,,,,,,,,,,,,,,966.3315356939565,,,,,,,,,,,,,,AMP_prac,right,3.6344849129673094,3,,,left,0.23233582789544016,,,,,,,,,,,,,,,,,,,,,,,,,1010,2019_May_10_1255,mf_amp_cond1,3.0.7,59.98280146613552,
perfect,&&&&&&&,images/symbols/symbol_76.png,condition_files/AMP_rep4.csv,left,sanctity.virtue,,,,,,,,,,,,,,0,1,1,3,0,49,49,49,,,,,,,,,,,,,,,,,,,,,966.8483283076202,,,,,,,,,,,,,,AMP_prac,right,3.6344849129673094,3,,,left,0.2994248195318505,,,,,,,,,,,,,,,,,,,,,,,,,1010,2019_May_10_1255,mf_amp_cond1,3.0.7,59.98280146613552,
phegned,&&&&&&&,images/symbols/symbol_37.png,condition_files/AMP_rep4.csv,None,nonword,,,,,,,,,,,,,,0,1,1,3,0,50,50,50,,,,,,,,,,,,,,,,,,,,,967.3984643252334,,,,,,,,,,,,,,AMP_prac,right,3.6344849129673094,3,,,left,0.31697593769058585,,,,,,,,,,,,,,,,,,,,,,,,,1010,2019_May_10_1255,mf_amp_cond1,3.0.7,59.98280146613552,
respect,&&&&&&&,images/symbols/symbol_53.png,condition_files/AMP_rep4.csv,left,sanctity.virtue,,,,,,,,,,,,,,0,1,1,3,0,51,51,51,,,,,,,,,,,,,,,,,,,,,967.9652877601329,,,,,,,,,,,,,,AMP_prac,right,3.6344849129673094,3,,,left,0.34850053465925157,,,,,,,,,,,,,,,,,,,,,,,,,1010,2019_May_10_1255,mf_amp_cond1,3.0.7,59.98280146613552,
lies,&&&&,images/symbols/symbol_82.png,condition_files/AMP_rep4.csv,right,fairness.vice,,,,,,,,,,,,,,0,1,1,3,0,52,52,52,,,,,,,,,,,,,,,,,,,,,968.5320807265816,,,,,,,,,,,,,,AMP_prac,right,3.6344849129673094,3,,,left,0.3492830931209028,,,,,,,,,,,,,,,,,,,,,,,,,1010,2019_May_10_1255,mf_amp_cond1,3.0.7,59.98280146613552,
great,&&&&&,images/symbols/symbol_69.png,condition_files/AMP_rep4.csv,left,loyalty.virtue,,,,,,,,,,,,,,0,1,1,3,0,53,53,53,,,,,,,,,,,,,,,,,,,,,969.0988868426066,,,,,,,,,,,,,,AMP_prac,right,3.6344849129673094,3,,,right,0.34892837598454207,,,,,,,,,,,,,,,,,,,,,,,,,1010,2019_May_10_1255,mf_amp_cond1,3.0.7,59.98280146613552,
abuse,&&&&&,images/symbols/symbol_3.png,condition_files/AMP_rep4.csv,right,sanctity.vice,,,,,,,,,,,,,,0,1,1,3,0,54,54,54,,,,,,,,,,,,,,,,,,,,,969.5657262494788,,,,,,,,,,,,,,AMP_prac,right,3.6344849129673094,3,,,right,0.24891163443680853,,,,,,,,,,,,,,,,,,,,,,,,,1010,2019_May_10_1255,mf_amp_cond1,3.0.7,59.98280146613552,
interests,&&&&&&&&&,images/symbols/symbol_36.png,condition_files/AMP_rep4.csv,left,fairness.virtue,,,,,,,,,,,,,,0,1,1,3,0,55,55,55,,,,,,,,,,,,,,,,,,,,,970.149163335911,,,,,,,,,,,,,,AMP_prac,right,3.6344849129673094,3,,,right,0.36573862936347723,,,,,,,,,,,,,,,,,,,,,,,,,1010,2019_May_10_1255,mf_amp_cond1,3.0.7,59.98280146613552,
violence,&&&&&&&&,images/symbols/symbol_78.png,condition_files/AMP_rep4.csv,right,care.vice,,,,,,,,,,,,,,0,1,1,3,0,56,56,56,,,,,,,,,,,,,,,,,,,,,970.7159550194629,,,,,,,,,,,,,,AMP_prac,right,3.6344849129673094,3,,,right,0.3488658354617655,,,,,,,,,,,,,,,,,,,,,,,,,1010,2019_May_10_1255,mf_amp_cond1,3.0.7,59.98280146613552,
penalty,&&&&&&&,images/symbols/symbol_64.png,condition_files/AMP_rep4.csv,right,authority.vice,,,,,,,,,,,,,,0,1,1,3,0,57,57,57,,,,,,,,,,,,,,,,,,,,,971.332784259459,,,,,,,,,,,,,,AMP_prac,right,3.6344849129673094,3,,,right,0.398922314401716,,,,,,,,,,,,,,,,,,,,,,,,,1010,2019_May_10_1255,mf_amp_cond1,3.0.7,59.98280146613552,
sexual,&&&&&&,images/symbols/symbol_59.png,condition_files/AMP_rep4.csv,right,sanctity.vice,,,,,,,,,,,,,,0,1,1,3,0,58,58,58,,,,,,,,,,,,,,,,,,,,,971.932923516375,,,,,,,,,,,,,,AMP_prac,right,3.6344849129673094,3,,,right,0.382410331396386,,,,,,,,,,,,,,,,,,,,,,,,,1010,2019_May_10_1255,mf_amp_cond1,3.0.7,59.98280146613552,
agreement,&&&&&&&&&,images/symbols/symbol_6.png,condition_files/AMP_rep4.csv,left,fairness.virtue,,,,,,,,,,,,,,0,1,1,3,0,59,59,59,,,,,,,,,,,,,,,,,,,,,972.5497492284048,,,,,,,,,,,,,,AMP_prac,right,3.6344849129673094,3,,,right,0.38367236719932407,,,,,,,,,,,,,,,,,,,,,,,,,1010,2019_May_10_1255,mf_amp_cond1,3.0.7,59.98280146613552,
sharing,&&&&&&&,images/symbols/symbol_21.png,condition_files/AMP_rep4.csv,left,loyalty.virtue,,,,,,,,,,,,,,0,1,1,3,0,60,60,60,,,,,,,,,,,,,,,,,,,,,973.1165620796382,,,,,,,,,,,,,,AMP_prac,right,3.6344849129673094,3,,,left,0.34843959764111787,,,,,,,,,,,,,,,,,,,,,,,,,1010,2019_May_10_1255,mf_amp_cond1,3.0.7,59.98280146613552,
ban,&&&,images/symbols/symbol_71.png,condition_files/AMP_rep4.csv,right,loyalty.vice,,,,,,,,,,,,,,0,1,1,3,0,61,61,61,,,,,,,,,,,,,,,,,,,,,973.6833569704322,,,,,,,,,,,,,,AMP_prac,right,3.6344849129673094,3,,,left,0.3489553165854886,,,,,,,,,,,,,,,,,,,,,,,,,1010,2019_May_10_1255,mf_amp_cond1,3.0.7,59.98280146613552,
clorze,&&&&&&,images/symbols/symbol_81.png,condition_files/AMP_rep4.csv,None,nonword,,,,,,,,,,,,,,0,1,1,3,0,62,62,62,,,,,,,,,,,,,,,,,,,,,974.2668453721562,,,,,,,,,,,,,,AMP_prac,right,3.6344849129673094,3,,,left,0.3656841068295762,,,,,,,,,,,,,,,,,,,,,,,,,1010,2019_May_10_1255,mf_amp_cond1,3.0.7,59.98280146613552,
voter,&&&&&,images/symbols/symbol_57.png,condition_files/AMP_rep4.csv,right,fairness.vice,,,,,,,,,,,,,,0,1,1,3,0,63,63,63,,,,,,,,,,,,,,,,,,,,,975.7005392597057,,,,,,,,,,,,,,AMP_prac,right,3.6344849129673094,3,,,left,1.2158950448501855,,,,,,,,,,,,,,,,,,,,,,,,,1010,2019_May_10_1255,mf_amp_cond1,3.0.7,59.98280146613552,
compassion,&&&&&&&&&&,images/symbols/symbol_48.png,condition_files/AMP_rep4.csv,left,care.virtue,,,,,,,,,,,,,,0,1,1,3,0,64,64,64,,,,,,,,,,,,,,,,,,,,,976.3673941893503,,,,,,,,,,,,,,AMP_prac,right,3.6344849129673094,3,,,left,0.44894319330342114,,,,,,,,,,,,,,,,,,,,,,,,,1010,2019_May_10_1255,mf_amp_cond1,3.0.7,59.98280146613552,
unpleasant,&&&&&&&&&,images/symbols/symbol_28.png,condition_files/AMP_rep4.csv,left,control,,,,,,,,,,,,,,0,1,1,3,0,65,65,65,,,,,,,,,,,,,,,,,,,,,977.1509147915058,,,,,,,,,,,,,,AMP_prac,right,3.6344849129673094,3,,,left,0.5657862243242562,,,,,,,,,,,,,,,,,,,,,,,,,1010,2019_May_10_1255,mf_amp_cond1,3.0.7,59.98280146613552,
good,&&&&,images/symbols/symbol_58.png,condition_files/AMP_rep4.csv,left,care.virtue,,,,,,,,,,,,,,0,1,1,3,0,66,66,66,,,,,,,,,,,,,,,,,,,,,978.9346826693509,,,,,,,,,,,,,,AMP_prac,right,3.6344849129673094,3,,,left,1.565406491048634,,,,,,,,,,,,,,,,,,,,,,,,,1010,2019_May_10_1255,mf_amp_cond1,3.0.7,59.98280146613552,
help,&&&&,images/symbols/symbol_46.png,condition_files/AMP_rep4.csv,left,care.virtue,,,,,,,,,,,,,,0,1,1,3,0,67,67,67,,,,,,,,,,,,,,,,,,,,,979.3181177031947,,,,,,,,,,,,,,AMP_prac,right,3.6344849129673094,3,,,left,0.16496139485388994,,,,,,,,,,,,,,,,,,,,,,,,,1010,2019_May_10_1255,mf_amp_cond1,3.0.7,59.98280146613552,
twild,&&&&&,images/symbols/symbol_55.png,condition_files/AMP_rep4.csv,None,nonword,,,,,,,,,,,,,,0,1,1,3,0,68,68,68,,,,,,,,,,,,,,,,,,,,,979.801560819149,,,,,,,,,,,,,,AMP_prac,right,3.6344849129673094,3,,,left,0.26549706258811057,,,,,,,,,,,,,,,,,,,,,,,,,1010,2019_May_10_1255,mf_amp_cond1,3.0.7,59.98280146613552,
snoze,&&&&&,images/symbols/symbol_19.png,condition_files/AMP_rep4.csv,None,nonword,,,,,,,,,,,,,,0,1,1,3,0,69,69,69,,,,,,,,,,,,,,,,,,,,,980.1183199496008,,,,,,,,,,,,,,AMP_prac,right,3.6344849129673094,3,,,left,0.09888331487309188,,,,,,,,,,,,,,,,,,,,,,,,,1010,2019_May_10_1255,mf_amp_cond1,3.0.7,59.98280146613552,
freedom,&&&&&&&,images/symbols/symbol_61.png,condition_files/AMP_rep4.csv,left,sanctity.virtue,,,,,,,,,,,,,,0,1,1,3,0,70,70,70,,,,,,,,,,,,,,,,,,,,,980.5184193088207,,,,,,,,,,,,,,AMP_prac,right,3.6344849129673094,3,,,left,0.18232970219105482,,,,,,,,,,,,,,,,,,,,,,,,,1010,2019_May_10_1255,mf_amp_cond1,3.0.7,59.98280146613552,
peaceful,&&&&&&&&,images/symbols/symbol_38.png,condition_files/AMP_rep4.csv,left,authority.virtue,,,,,,,,,,,,,,0,1,1,3,0,71,71,71,,,,,,,,,,,,,,,,,,,,,980.9851884779055,,,,,,,,,,,,,,AMP_prac,right,3.6344849129673094,3,,,left,0.24896038393490016,,,,,,,,,,,,,,,,,,,,,,,,,1010,2019_May_10_1255,mf_amp_cond1,3.0.7,59.98280146613552,
riot,&&&&,images/symbols/symbol_40.png,condition_files/AMP_rep4.csv,right,authority.vice,,,,,,,,,,,,,,0,1,1,3,0,72,72,72,,,,,,,,,,,,,,,,,,,,,981.4019592184341,,,,,,,,,,,,,,AMP_prac,right,3.6344849129673094,3,,,left,0.19884521316271275,,,,,,,,,,,,,,,,,,,,,,,,,1010,2019_May_10_1255,mf_amp_cond1,3.0.7,59.98280146613552,
feuld,&&&&&,images/symbols/symbol_63.png,condition_files/AMP_rep4.csv,None,nonword,,,,,,,,,,,,,,0,1,1,3,0,73,73,73,,,,,,,,,,,,,,,,,,,,,981.8187203373527,,,,,,,,,,,,,,AMP_prac,right,3.6344849129673094,3,,,left,0.19896452128887177,,,,,,,,,,,,,,,,,,,,,,,,,1010,2019_May_10_1255,mf_amp_cond1,3.0.7,59.98280146613552,
drug,&&&&,images/symbols/symbol_20.png,condition_files/AMP_rep4.csv,right,sanctity.vice,,,,,,,,,,,,,,0,1,1,3,0,74,74,74,,,,,,,,,,,,,,,,,,,,,982.3521910674172,,,,,,,,,,,,,,AMP_prac,right,3.6344849129673094,3,,,right,0.31611576478462666,,,,,,,,,,,,,,,,,,,,,,,,,1010,2019_May_10_1255,mf_amp_cond1,3.0.7,59.98280146613552,
party,&&&&&,images/symbols/symbol_9.png,condition_files/AMP_rep4.csv,left,loyalty.virtue,,,,,,,,,,,,,,0,1,1,3,0,75,75,75,,,,,,,,,,,,,,,,,,,,,982.8523504654877,,,,,,,,,,,,,,AMP_prac,right,3.6344849129673094,3,,,right,0.28228711045812815,,,,,,,,,,,,,,,,,,,,,,,,,1010,2019_May_10_1255,mf_amp_cond1,3.0.7,59.98280146613552,
groups,&&&&&&,images/symbols/symbol_42.png,condition_files/AMP_rep4.csv,right,loyalty.vice,,,,,,,,,,,,,,0,1,1,3,0,76,76,76,,,,,,,,,,,,,,,,,,,,,983.4024765408831,,,,,,,,,,,,,,AMP_prac,right,3.6344849129673094,3,,,right,0.33217553165741265,,,,,,,,,,,,,,,,,,,,,,,,,1010,2019_May_10_1255,mf_amp_cond1,3.0.7,59.98280146613552,
corruption,&&&&&&&&&&,images/symbols/symbol_49.png,condition_files/AMP_rep4.csv,right,sanctity.vice,,,,,,,,,,,,,,0,1,1,3,0,77,77,77,,,,,,,,,,,,,,,,,,,,,983.9859351156047,,,,,,,,,,,,,,AMP_prac,right,3.6344849129673094,3,,,right,0.3503244729945436,,,,,,,,,,,,,,,,,,,,,,,,,1010,2019_May_10_1255,mf_amp_cond1,3.0.7,59.98280146613552,
commitment,&&&&&&&&&&,images/symbols/symbol_5.png,condition_files/AMP_rep4.csv,left,sanctity.virtue,,,,,,,,,,,,,,0,1,1,3,0,78,78,78,,,,,,,,,,,,,,,,,,,,,985.7363794740522,,,,,,,,,,,,,,AMP_prac,right,3.6344849129673094,3,,,right,1.5317038798239082,,,,,,,,,,,,,,,,,,,,,,,,,1010,2019_May_10_1255,mf_amp_cond1,3.0.7,59.98280146613552,
violations,&&&&&&&&&&,images/symbols/symbol_4.png,condition_files/AMP_rep4.csv,right,sanctity.vice,,,,,,,,,,,,,,0,1,1,3,0,79,79,79,,,,,,,,,,,,,,,,,,,,,986.6366324585397,,,,,,,,,,,,,,AMP_prac,right,3.6344849129673094,3,,,right,0.6823463796172291,,,,,,,,,,,,,,,,,,,,,,,,,1010,2019_May_10_1255,mf_amp_cond1,3.0.7,59.98280146613552,
fair,&&&&,images/symbols/symbol_47.png,condition_files/AMP_rep4.csv,left,fairness.virtue,,,,,,,,,,,,,,0,1,1,3,0,80,80,80,,,,,,,,,,,,,,,,,,,,,987.4034669263056,,,,,,,,,,,,,,AMP_prac,right,3.6344849129673094,3,,,right,0.5489583312300965,,,,,,,,,,,,,,,,,,,,,,,,,1010,2019_May_10_1255,mf_amp_cond1,3.0.7,59.98280146613552,
trust,&&&&&,images/symbols/symbol_68.png,condition_files/AMP_rep4.csv,left,authority.virtue,,,,,,,,,,,,,,0,1,1,3,0,81,81,81,,,,,,,,,,,,,,,,,,,,,988.1370070603443,,,,,,,,,,,,,,AMP_prac,right,3.6344849129673094,3,,,right,0.5004265585448593,,,,,,,,,,,,,,,,,,,,,,,,,1010,2019_May_10_1255,mf_amp_cond1,3.0.7,59.98280146613552,
,,,condition_files/AMP_rep4.csv,,,,,,,,,,,,,,,,0,1,1,3,,,,,,,,,,,,,,,,,,,,,,,,,,,,,,,,,,,,,,,,,,,,,,,right,2.0841051476309076,,,,,,,,,,,,,,,,,,,,,,,1010,2019_May_10_1255,mf_amp_cond1,3.0.7,59.98280146613552,
praise,&&&&&&,images/symbols/symbol_44.png,condition_files/AMP_rep2.csv,left,authority.virtue,,,,,,,,,,,,,,0,2,2,1,0,0,0,0,,,,,,,,,,,,,,,,,,,,,990.8544835787034,,,,,,,,,,,,,,AMP_prac,right,3.6344849129673094,3,,,right,0.3813416900811717,,,,,,,,,,,,,,,,,,,,,,,,,1010,2019_May_10_1255,mf_amp_cond1,3.0.7,59.98280146613552,
hope,&&&&,images/symbols/symbol_77.png,condition_files/AMP_rep2.csv,left,loyalty.virtue,,,,,,,,,,,,,,0,2,2,1,0,1,1,1,,,,,,,,,,,,,,,,,,,,,991.4378016778501,,,,,,,,,,,,,,AMP_prac,right,3.6344849129673094,3,,,right,0.3656459409976378,,,,,,,,,,,,,,,,,,,,,,,,,1010,2019_May_10_1255,mf_amp_cond1,3.0.7,59.98280146613552,
intelligence,&&&&&&&&&&&&,images/symbols/symbol_50.png,condition_files/AMP_rep2.csv,left,loyalty.virtue,,,,,,,,,,,,,,0,2,2,1,0,2,2,2,,,,,,,,,,,,,,,,,,,,,992.2880148608238,,,,,,,,,,,,,,AMP_prac,right,3.6344849129673094,3,,,right,0.6324646935099736,,,,,,,,,,,,,,,,,,,,,,,,,1010,2019_May_10_1255,mf_amp_cond1,3.0.7,59.98280146613552,
slavery,&&&&&&&,images/symbols/symbol_51.png,condition_files/AMP_rep2.csv,right,loyalty.vice,,,,,,,,,,,,,,0,2,2,1,0,3,3,3,,,,,,,,,,,,,,,,,,,,,993.3716248157434,,,,,,,,,,,,,,AMP_prac,right,3.6344849129673094,3,,,right,0.8504585343180224,,,,,,,,,,,,,,,,,,,,,,,,,1010,2019_May_10_1255,mf_amp_cond1,3.0.7,59.98280146613552,
died,&&&&,images/symbols/symbol_52.png,condition_files/AMP_rep2.csv,right,care.vice,,,,,,,,,,,,,,0,2,2,1,0,4,4,4,,,,,,,,,,,,,,,,,,,,,994.5552531159483,,,,,,,,,,,,,,AMP_prac,right,3.6344849129673094,3,,,right,0.9653541494626552,,,,,,,,,,,,,,,,,,,,,,,,,1010,2019_May_10_1255,mf_amp_cond1,3.0.7,59.98280146613552,
fighters,&&&&&&&&,images/symbols/symbol_43.png,condition_files/AMP_rep2.csv,right,authority.vice,,,,,,,,,,,,,,0,2,2,1,0,5,5,5,,,,,,,,,,,,,,,,,,,,,995.60553217493,,,,,,,,,,,,,,AMP_prac,right,3.6344849129673094,3,,,right,0.8171189789427444,,,,,,,,,,,,,,,,,,,,,,,,,1010,2019_May_10_1255,mf_amp_cond1,3.0.7,59.98280146613552,
terrorists,&&&&&&&&&&,images/symbols/symbol_14.png,condition_files/AMP_rep2.csv,right,fairness.vice,,,,,,,,,,,,,,0,2,2,1,0,6,6,6,,,,,,,,,,,,,,,,,,,,,996.3557228434365,,,,,,,,,,,,,,AMP_prac,right,3.6344849129673094,3,,,right,0.5315640456974506,,,,,,,,,,,,,,,,,,,,,,,,,1010,2019_May_10_1255,mf_amp_cond1,3.0.7,59.98280146613552,
encourage,&&&&&&&&&,images/symbols/symbol_34.png,condition_files/AMP_rep2.csv,left,authority.virtue,,,,,,,,,,,,,,0,2,2,1,0,7,7,7,,,,,,,,,,,,,,,,,,,,,997.0558794833487,,,,,,,,,,,,,,AMP_prac,right,3.6344849129673094,3,,,right,0.48221315222326666,,,,,,,,,,,,,,,,,,,,,,,,,1010,2019_May_10_1255,mf_amp_cond1,3.0.7,59.98280146613552,
terrorist,&&&&&&&&&,images/symbols/symbol_65.png,condition_files/AMP_rep2.csv,right,loyalty.vice,,,,,,,,,,,,,,0,2,2,1,0,8,8,8,,,,,,,,,,,,,,,,,,,,,997.7060287146596,,,,,,,,,,,,,,AMP_prac,right,3.6344849129673094,3,,,right,0.4322570589138195,,,,,,,,,,,,,,,,,,,,,,,,,1010,2019_May_10_1255,mf_amp_cond1,3.0.7,59.98280146613552,
safe,&&&&,images/symbols/symbol_41.png,condition_files/AMP_rep2.csv,left,care.virtue,,,,,,,,,,,,,,0,2,2,1,0,9,9,9,,,,,,,,,,,,,,,,,,,,,998.3061868941877,,,,,,,,,,,,,,AMP_prac,right,3.6344849129673094,3,,,right,0.38277723581995815,,,,,,,,,,,,,,,,,,,,,,,,,1010,2019_May_10_1255,mf_amp_cond1,3.0.7,59.98280146613552,
friends,&&&&&&&,images/symbols/symbol_73.png,condition_files/AMP_rep2.csv,left,loyalty.virtue,,,,,,,,,,,,,,0,2,2,1,0,10,10,10,,,,,,,,,,,,,,,,,,,,,999.6731926908251,,,,,,,,,,,,,,AMP_prac,right,3.6344849129673094,3,,,right,1.1490385755896568,,,,,,,,,,,,,,,,,,,,,,,,,1010,2019_May_10_1255,mf_amp_cond1,3.0.7,59.98280146613552,
illegal,&&&&&&&,images/symbols/symbol_2.png,condition_files/AMP_rep2.csv,right,fairness.vice,,,,,,,,,,,,,,0,2,2,1,0,11,11,11,,,,,,,,,,,,,,,,,,,,,1000.5234180613188,,,,,,,,,,,,,,AMP_prac,right,3.6344849129673094,3,,,right,0.6318219692911953,,,,,,,,,,,,,,,,,,,,,,,,,1010,2019_May_10_1255,mf_amp_cond1,3.0.7,59.98280146613552,
betrayal,&&&&&&&&,images/symbols/symbol_70.png,condition_files/AMP_rep2.csv,right,loyalty.vice,,,,,,,,,,,,,,0,2,2,1,0,12,12,12,,,,,,,,,,,,,,,,,,,,,1001.2235852850135,,,,,,,,,,,,,,AMP_prac,right,3.6344849129673094,3,,,right,0.4824857647763565,,,,,,,,,,,,,,,,,,,,,,,,,1010,2019_May_10_1255,mf_amp_cond1,3.0.7,59.98280146613552,
failure,&&&&&&&,images/symbols/symbol_75.png,condition_files/AMP_rep2.csv,right,loyalty.vice,,,,,,,,,,,,,,0,2,2,1,0,13,13,13,,,,,,,,,,,,,,,,,,,,,1001.9237605268136,,,,,,,,,,,,,,AMP_prac,right,3.6344849129673094,3,,,left,0.48242771439254284,,,,,,,,,,,,,,,,,,,,,,,,,1010,2019_May_10_1255,mf_amp_cond1,3.0.7,59.98280146613552,
growth,&&&&&&,images/symbols/symbol_29.png,condition_files/AMP_rep2.csv,left,care.virtue,,,,,,,,,,,,,,0,2,2,1,0,14,14,14,,,,,,,,,,,,,,,,,,,,,1002.7239679048071,,,,,,,,,,,,,,AMP_prac,right,3.6344849129673094,3,,,left,0.5822985281702131,,,,,,,,,,,,,,,,,,,,,,,,,1010,2019_May_10_1255,mf_amp_cond1,3.0.7,59.98280146613552,
credit,&&&&&&,images/symbols/symbol_35.png,condition_files/AMP_rep2.csv,left,fairness.virtue,,,,,,,,,,,,,,0,2,2,1,0,15,15,15,,,,,,,,,,,,,,,,,,,,,1003.4574788532918,,,,,,,,,,,,,,AMP_prac,right,3.6344849129673094,3,,,left,0.5156540552852675,,,,,,,,,,,,,,,,,,,,,,,,,1010,2019_May_10_1255,mf_amp_cond1,3.0.7,59.98280146613552,
police,&&&&&&,images/symbols/symbol_30.png,condition_files/AMP_rep2.csv,right,authority.vice,,,,,,,,,,,,,,0,2,2,1,0,16,16,16,,,,,,,,,,,,,,,,,,,,,1004.6411026632413,,,,,,,,,,,,,,AMP_prac,right,3.6344849129673094,3,,,left,0.9659821204841137,,,,,,,,,,,,,,,,,,,,,,,,,1010,2019_May_10_1255,mf_amp_cond1,3.0.7,59.98280146613552,
rejected,&&&&&&&&,images/symbols/symbol_27.png,condition_files/AMP_rep2.csv,right,authority.vice,,,,,,,,,,,,,,0,2,2,1,0,17,17,17,,,,,,,,,,,,,,,,,,,,,1005.2412528246641,,,,,,,,,,,,,,AMP_prac,right,3.6344849129673094,3,,,left,0.3823359241941944,,,,,,,,,,,,,,,,,,,,,,,,,1010,2019_May_10_1255,mf_amp_cond1,3.0.7,59.98280146613552,
forced,&&&&&&,images/symbols/symbol_7.png,condition_files/AMP_rep2.csv,right,fairness.vice,,,,,,,,,,,,,,0,2,2,1,0,18,18,18,,,,,,,,,,,,,,,,,,,,,1005.9914361165138,,,,,,,,,,,,,,AMP_prac,right,3.6344849129673094,3,,,left,0.5325284526916221,,,,,,,,,,,,,,,,,,,,,,,,,1010,2019_May_10_1255,mf_amp_cond1,3.0.7,59.98280146613552,
ensure,&&&&&&,images/symbols/symbol_11.png,condition_files/AMP_rep2.csv,left,fairness.virtue,,,,,,,,,,,,,,0,2,2,1,0,19,19,19,,,,,,,,,,,,,,,,,,,,,1006.8083068578271,,,,,,,,,,,,,,AMP_prac,right,3.6344849129673094,3,,,left,0.5986228896072134,,,,,,,,,,,,,,,,,,,,,,,,,1010,2019_May_10_1255,mf_amp_cond1,3.0.7,59.98280146613552,
torture,&&&&&&&,images/symbols/symbol_74.png,condition_files/AMP_rep2.csv,right,care.vice,,,,,,,,,,,,,,0,2,2,1,0,20,20,20,,,,,,,,,,,,,,,,,,,,,1007.5751692282502,,,,,,,,,,,,,,AMP_prac,right,3.6344849129673094,3,,,left,0.5337087047519162,,,,,,,,,,,,,,,,,,,,,,,,,1010,2019_May_10_1255,mf_amp_cond1,3.0.7,59.98280146613552,
promote,&&&&&&&,images/symbols/symbol_39.png,condition_files/AMP_rep2.csv,left,sanctity.virtue,,,,,,,,,,,,,,0,2,2,1,0,21,21,21,,,,,,,,,,,,,,,,,,,,,1008.2586682778783,,,,,,,,,,,,,,AMP_prac,right,3.6344849129673094,3,,,left,0.4649663980817422,,,,,,,,,,,,,,,,,,,,,,,,,1010,2019_May_10_1255,mf_amp_cond1,3.0.7,59.98280146613552,
spauned,&&&&&&&,images/symbols/symbol_8.png,condition_files/AMP_rep2.csv,None,nonword,,,,,,,,,,,,,,0,2,2,1,0,22,22,22,,,,,,,,,,,,,,,,,,,,,1009.0088650400285,,,,,,,,,,,,,,AMP_prac,right,3.6344849129673094,3,,,left,0.5325223590480164,,,,,,,,,,,,,,,,,,,,,,,,,1010,2019_May_10_1255,mf_amp_cond1,3.0.7,59.98280146613552,
ailled,&&&&&&,images/symbols/symbol_22.png,condition_files/AMP_rep2.csv,None,nonword,,,,,,,,,,,,,,0,2,2,1,0,23,23,23,,,,,,,,,,,,,,,,,,,,,1010.609261194244,,,,,,,,,,,,,,AMP_prac,right,3.6344849129673094,3,,,left,1.3825838412158191,,,,,,,,,,,,,,,,,,,,,,,,,1010,2019_May_10_1255,mf_amp_cond1,3.0.7,59.98280146613552,
free,&&&&,images/symbols/symbol_25.png,condition_files/AMP_rep2.csv,left,fairness.virtue,,,,,,,,,,,,,,0,2,2,1,0,24,24,24,,,,,,,,,,,,,,,,,,,,,1011.126055732253,,,,,,,,,,,,,,AMP_prac,right,3.6344849129673094,3,,,left,0.2988433529390022,,,,,,,,,,,,,,,,,,,,,,,,,1010,2019_May_10_1255,mf_amp_cond1,3.0.7,59.98280146613552,
troops,&&&&&&,images/symbols/symbol_80.png,condition_files/AMP_rep2.csv,right,loyalty.vice,,,,,,,,,,,,,,0,2,2,1,0,25,25,25,,,,,,,,,,,,,,,,,,,,,1011.5594914396061,,,,,,,,,,,,,,AMP_prac,right,3.6344849129673094,3,,,left,0.2159720177296549,,,,,,,,,,,,,,,,,,,,,,,,,1010,2019_May_10_1255,mf_amp_cond1,3.0.7,59.98280146613552,
hate,&&&&,images/symbols/symbol_56.png,condition_files/AMP_rep2.csv,right,fairness.vice,,,,,,,,,,,,,,0,2,2,1,0,26,26,26,,,,,,,,,,,,,,,,,,,,,1012.3096772972494,,,,,,,,,,,,,,AMP_prac,right,3.6344849129673094,3,,,left,0.5323536599753425,,,,,,,,,,,,,,,,,,,,,,,,,1010,2019_May_10_1255,mf_amp_cond1,3.0.7,59.98280146613552,
gryssed,&&&&&&&,images/symbols/symbol_23.png,condition_files/AMP_rep2.csv,None,nonword,,,,,,,,,,,,,,0,2,2,1,0,27,27,27,,,,,,,,,,,,,,,,,,,,,1012.7097939754603,,,,,,,,,,,,,,AMP_prac,right,3.6344849129673094,3,,,left,0.1821738318540156,,,,,,,,,,,,,,,,,,,,,,,,,1010,2019_May_10_1255,mf_amp_cond1,3.0.7,59.98280146613552,
celebrated,&&&&&&&&&&,images/symbols/symbol_31.png,condition_files/AMP_rep2.csv,left,authority.virtue,,,,,,,,,,,,,,0,2,2,1,0,28,28,28,,,,,,,,,,,,,,,,,,,,,1013.2265814575367,,,,,,,,,,,,,,AMP_prac,right,3.6344849129673094,3,,,left,0.2836466453736648,,,,,,,,,,,,,,,,,,,,,,,,,1010,2019_May_10_1255,mf_amp_cond1,3.0.7,59.98280146613552,
crime,&&&&&,images/symbols/symbol_33.png,condition_files/AMP_rep2.csv,right,fairness.vice,,,,,,,,,,,,,,0,2,2,1,0,29,29,29,,,,,,,,,,,,,,,,,,,,,1013.7100406095851,,,,,,,,,,,,,,AMP_prac,right,3.6344849129673094,3,,,left,0.26498551305849105,,,,,,,,,,,,,,,,,,,,,,,,,1010,2019_May_10_1255,mf_amp_cond1,3.0.7,59.98280146613552,
progress,&&&&&&&&,images/symbols/symbol_1.png,condition_files/AMP_rep2.csv,left,authority.virtue,,,,,,,,,,,,,,0,2,2,1,0,30,30,30,,,,,,,,,,,,,,,,,,,,,1014.126806539367,,,,,,,,,,,,,,AMP_prac,right,3.6344849129673094,3,,,left,0.19880384020507336,,,,,,,,,,,,,,,,,,,,,,,,,1010,2019_May_10_1255,mf_amp_cond1,3.0.7,59.98280146613552,
prinse,&&&&&&,images/symbols/symbol_60.png,condition_files/AMP_rep2.csv,None,nonword,,,,,,,,,,,,,,0,2,2,1,0,31,31,31,,,,,,,,,,,,,,,,,,,,,1014.6936142588966,,,,,,,,,,,,,,AMP_prac,right,3.6344849129673094,3,,,left,0.3336639964254573,,,,,,,,,,,,,,,,,,,,,,,,,1010,2019_May_10_1255,mf_amp_cond1,3.0.7,59.98280146613552,
pleasant,&&&&&&&,images/symbols/symbol_24.png,condition_files/AMP_rep2.csv,right,control,,,,,,,,,,,,,,0,2,2,1,0,32,32,32,,,,,,,,,,,,,,,,,,,,,1015.3437753568869,,,,,,,,,,,,,,AMP_prac,right,3.6344849129673094,3,,,left,0.43169002479407936,,,,,,,,,,,,,,,,,,,,,,,,,1010,2019_May_10_1255,mf_amp_cond1,3.0.7,59.98280146613552,
fear,&&&&,images/symbols/symbol_13.png,condition_files/AMP_rep2.csv,right,sanctity.vice,,,,,,,,,,,,,,0,2,2,1,0,33,33,33,,,,,,,,,,,,,,,,,,,,,1015.9439300084487,,,,,,,,,,,,,,AMP_prac,right,3.6344849129673094,3,,,left,0.3823314340552315,,,,,,,,,,,,,,,,,,,,,,,,,1010,2019_May_10_1255,mf_amp_cond1,3.0.7,59.98280146613552,
injured,&&&&&&&,images/symbols/symbol_12.png,condition_files/AMP_rep2.csv,right,care.vice,,,,,,,,,,,,,,0,2,2,1,0,34,34,34,,,,,,,,,,,,,,,,,,,,,1016.5774219701998,,,,,,,,,,,,,,AMP_prac,right,3.6344849129673094,3,,,left,0.41571075876709074,,,,,,,,,,,,,,,,,,,,,,,,,1010,2019_May_10_1255,mf_amp_cond1,3.0.7,59.98280146613552,
promised,&&&&&&&&,images/symbols/symbol_17.png,condition_files/AMP_rep2.csv,left,loyalty.virtue,,,,,,,,,,,,,,0,2,2,1,0,35,35,35,,,,,,,,,,,,,,,,,,,,,1017.2609402631642,,,,,,,,,,,,,,AMP_prac,right,3.6344849129673094,3,,,left,0.4654481206089258,,,,,,,,,,,,,,,,,,,,,,,,,1010,2019_May_10_1255,mf_amp_cond1,3.0.7,59.98280146613552,
dignity,&&&&&&&,images/symbols/symbol_66.png,condition_files/AMP_rep2.csv,left,sanctity.virtue,,,,,,,,,,,,,,0,2,2,1,0,36,36,36,,,,,,,,,,,,,,,,,,,,,1017.8944299798459,,,,,,,,,,,,,,AMP_prac,right,3.6344849129673094,3,,,left,0.4158515550661832,,,,,,,,,,,,,,,,,,,,,,,,,1010,2019_May_10_1255,mf_amp_cond1,3.0.7,59.98280146613552,
serial,&&&&&&,images/symbols/symbol_15.png,condition_files/AMP_rep2.csv,right,sanctity.vice,,,,,,,,,,,,,,0,2,2,1,0,37,37,37,,,,,,,,,,,,,,,,,,,,,1018.5446074346546,,,,,,,,,,,,,,AMP_prac,right,3.6344849129673094,3,,,left,0.4323773292126134,,,,,,,,,,,,,,,,,,,,,,,,,1010,2019_May_10_1255,mf_amp_cond1,3.0.7,59.98280146613552,
skypped,&&&&&&&,images/symbols/symbol_62.png,condition_files/AMP_rep2.csv,None,nonword,,,,,,,,,,,,,,0,2,2,1,0,38,38,38,,,,,,,,,,,,,,,,,,,,,1019.1947316497099,,,,,,,,,,,,,,AMP_prac,right,3.6344849129673094,3,,,left,0.4170064702630043,,,,,,,,,,,,,,,,,,,,,,,,,1010,2019_May_10_1255,mf_amp_cond1,3.0.7,59.98280146613552,
embrace,&&&&&&&,images/symbols/symbol_45.png,condition_files/AMP_rep2.csv,left,authority.virtue,,,,,,,,,,,,,,0,2,2,1,0,39,39,39,,,,,,,,,,,,,,,,,,,,,1019.8282406097278,,,,,,,,,,,,,,AMP_prac,right,3.6344849129673094,3,,,left,0.41516713716555387,,,,,,,,,,,,,,,,,,,,,,,,,1010,2019_May_10_1255,mf_amp_cond1,3.0.7,59.98280146613552,
rebels,&&&&&&,images/symbols/symbol_54.png,condition_files/AMP_rep2.csv,right,authority.vice,,,,,,,,,,,,,,0,2,2,1,0,40,40,40,,,,,,,,,,,,,,,,,,,,,1020.5117348486092,,,,,,,,,,,,,,AMP_prac,right,3.6344849129673094,3,,,left,0.4655266971094534,,,,,,,,,,,,,,,,,,,,,,,,,1010,2019_May_10_1255,mf_amp_cond1,3.0.7,59.98280146613552,
prosecution,&&&&&&&&&&&,images/symbols/symbol_18.png,condition_files/AMP_rep2.csv,right,authority.vice,,,,,,,,,,,,,,0,2,2,1,0,41,41,41,,,,,,,,,,,,,,,,,,,,,1021.0618869023165,,,,,,,,,,,,,,AMP_prac,right,3.6344849129673094,3,,,left,0.3324885551119223,,,,,,,,,,,,,,,,,,,,,,,,,1010,2019_May_10_1255,mf_amp_cond1,3.0.7,59.98280146613552,
shot,&&&&,images/symbols/symbol_72.png,condition_files/AMP_rep2.csv,right,care.vice,,,,,,,,,,,,,,0,2,2,1,0,42,42,42,,,,,,,,,,,,,,,,,,,,,1021.6786962576443,,,,,,,,,,,,,,AMP_prac,right,3.6344849129673094,3,,,left,0.3989794026128948,,,,,,,,,,,,,,,,,,,,,,,,,1010,2019_May_10_1255,mf_amp_cond1,3.0.7,59.98280146613552,
suicide,&&&&&&&,images/symbols/symbol_79.png,condition_files/AMP_rep2.csv,right,care.vice,,,,,,,,,,,,,,0,2,2,1,0,43,43,43,,,,,,,,,,,,,,,,,,,,,1022.078790806001,,,,,,,,,,,,,,AMP_prac,right,3.6344849129673094,3,,,left,0.1821837741881609,,,,,,,,,,,,,,,,,,,,,,,,,1010,2019_May_10_1255,mf_amp_cond1,3.0.7,59.98280146613552,
promises,&&&&&&&&,images/symbols/symbol_10.png,condition_files/AMP_rep2.csv,left,fairness.virtue,,,,,,,,,,,,,,0,2,2,1,0,44,44,44,,,,,,,,,,,,,,,,,,,,,1022.5789235844277,,,,,,,,,,,,,,AMP_prac,right,3.6344849129673094,3,,,left,0.28244875371456146,,,,,,,,,,,,,,,,,,,,,,,,,1010,2019_May_10_1255,mf_amp_cond1,3.0.7,59.98280146613552,
increase,&&&&&&&&,images/symbols/symbol_16.png,condition_files/AMP_rep2.csv,left,care.virtue,,,,,,,,,,,,,,0,2,2,1,0,45,45,45,,,,,,,,,,,,,,,,,,,,,1023.145762413973,,,,,,,,,,,,,,AMP_prac,right,3.6344849129673094,3,,,left,0.34928597952239215,,,,,,,,,,,,,,,,,,,,,,,,,1010,2019_May_10_1255,mf_amp_cond1,3.0.7,59.98280146613552,
safety,&&&&&&,images/symbols/symbol_26.png,condition_files/AMP_rep2.csv,left,care.virtue,,,,,,,,,,,,,,0,2,2,1,0,46,46,46,,,,,,,,,,,,,,,,,,,,,1023.7459225177299,,,,,,,,,,,,,,AMP_prac,right,3.6344849129673094,3,,,left,0.3822259168373421,,,,,,,,,,,,,,,,,,,,,,,,,1010,2019_May_10_1255,mf_amp_cond1,3.0.7,59.98280146613552,
values,&&&&&&,images/symbols/symbol_67.png,condition_files/AMP_rep2.csv,left,sanctity.virtue,,,,,,,,,,,,,,0,2,2,1,0,47,47,47,,,,,,,,,,,,,,,,,,,,,1024.562780750799,,,,,,,,,,,,,,AMP_prac,right,3.6344849129673094,3,,,left,0.5985674049006775,,,,,,,,,,,,,,,,,,,,,,,,,1010,2019_May_10_1255,mf_amp_cond1,3.0.7,59.98280146613552,
attacks,&&&&&&&,images/symbols/symbol_32.png,condition_files/AMP_rep2.csv,right,care.vice,,,,,,,,,,,,,,0,2,2,1,0,48,48,48,,,,,,,,,,,,,,,,,,,,,1025.4296476754826,,,,,,,,,,,,,,AMP_prac,right,3.6344849129673094,3,,,left,0.6491261324845254,,,,,,,,,,,,,,,,,,,,,,,,,1010,2019_May_10_1255,mf_amp_cond1,3.0.7,59.98280146613552,
perfect,&&&&&&&,images/symbols/symbol_76.png,condition_files/AMP_rep2.csv,left,sanctity.virtue,,,,,,,,,,,,,,0,2,2,1,0,49,49,49,,,,,,,,,,,,,,,,,,,,,1026.179835136747,,,,,,,,,,,,,,AMP_prac,right,3.6344849129673094,3,,,left,0.5324527625925839,,,,,,,,,,,,,,,,,,,,,,,,,1010,2019_May_10_1255,mf_amp_cond1,3.0.7,59.98280146613552,
phegned,&&&&&&&,images/symbols/symbol_37.png,condition_files/AMP_rep2.csv,None,nonword,,,,,,,,,,,,,,0,2,2,1,0,50,50,50,,,,,,,,,,,,,,,,,,,,,1026.9800328930141,,,,,,,,,,,,,,AMP_prac,right,3.6344849129673094,3,,,left,0.5670623717596754,,,,,,,,,,,,,,,,,,,,,,,,,1010,2019_May_10_1255,mf_amp_cond1,3.0.7,59.98280146613552,
respect,&&&&&&&,images/symbols/symbol_53.png,condition_files/AMP_rep2.csv,left,sanctity.virtue,,,,,,,,,,,,,,0,2,2,1,0,51,51,51,,,,,,,,,,,,,,,,,,,,,1027.746888207621,,,,,,,,,,,,,,AMP_prac,right,3.6344849129673094,3,,,left,0.5487761619733647,,,,,,,,,,,,,,,,,,,,,,,,,1010,2019_May_10_1255,mf_amp_cond1,3.0.7,59.98280146613552,
lies,&&&&,images/symbols/symbol_82.png,condition_files/AMP_rep2.csv,right,fairness.vice,,,,,,,,,,,,,,0,2,2,1,0,52,52,52,,,,,,,,,,,,,,,,,,,,,1028.5137403149856,,,,,,,,,,,,,,AMP_prac,right,3.6344849129673094,3,,,left,0.5492591673973948,,,,,,,,,,,,,,,,,,,,,,,,,1010,2019_May_10_1255,mf_amp_cond1,3.0.7,59.98280146613552,
great,&&&&&,images/symbols/symbol_69.png,condition_files/AMP_rep2.csv,left,loyalty.virtue,,,,,,,,,,,,,,0,2,2,1,0,53,53,53,,,,,,,,,,,,,,,,,,,,,1029.4473363826983,,,,,,,,,,,,,,AMP_prac,right,3.6344849129673094,3,,,left,0.7157176862237975,,,,,,,,,,,,,,,,,,,,,,,,,1010,2019_May_10_1255,mf_amp_cond1,3.0.7,59.98280146613552,
abuse,&&&&&,images/symbols/symbol_3.png,condition_files/AMP_rep2.csv,right,sanctity.vice,,,,,,,,,,,,,,0,2,2,1,0,54,54,54,,,,,,,,,,,,,,,,,,,,,1030.1308193963487,,,,,,,,,,,,,,AMP_prac,right,3.6344849129673094,3,,,left,0.4656767942942679,,,,,,,,,,,,,,,,,,,,,,,,,1010,2019_May_10_1255,mf_amp_cond1,3.0.7,59.98280146613552,
interests,&&&&&&&&&,images/symbols/symbol_36.png,condition_files/AMP_rep2.csv,left,fairness.virtue,,,,,,,,,,,,,,0,2,2,1,0,55,55,55,,,,,,,,,,,,,,,,,,,,,1030.9143868237734,,,,,,,,,,,,,,AMP_prac,right,3.6344849129673094,3,,,left,0.5657836584141478,,,,,,,,,,,,,,,,,,,,,,,,,1010,2019_May_10_1255,mf_amp_cond1,3.0.7,59.98280146613552,
violence,&&&&&&&&,images/symbols/symbol_78.png,condition_files/AMP_rep2.csv,right,care.vice,,,,,,,,,,,,,,0,2,2,1,0,56,56,56,,,,,,,,,,,,,,,,,,,,,1031.5978374446277,,,,,,,,,,,,,,AMP_prac,right,3.6344849129673094,3,,,left,0.4655209241900593,,,,,,,,,,,,,,,,,,,,,,,,,1010,2019_May_10_1255,mf_amp_cond1,3.0.7,59.98280146613552,
penalty,&&&&&&&,images/symbols/symbol_64.png,condition_files/AMP_rep2.csv,right,authority.vice,,,,,,,,,,,,,,0,2,2,1,0,57,57,57,,,,,,,,,,,,,,,,,,,,,1032.2813451538095,,,,,,,,,,,,,,AMP_prac,right,3.6344849129673094,3,,,left,0.46543368813581765,,,,,,,,,,,,,,,,,,,,,,,,,1010,2019_May_10_1255,mf_amp_cond1,3.0.7,59.98280146613552,
sexual,&&&&&&,images/symbols/symbol_59.png,condition_files/AMP_rep2.csv,right,sanctity.vice,,,,,,,,,,,,,,0,2,2,1,0,58,58,58,,,,,,,,,,,,,,,,,,,,,1032.9148621317,,,,,,,,,,,,,,AMP_prac,right,3.6344849129673094,3,,,left,0.41576912987511605,,,,,,,,,,,,,,,,,,,,,,,,,1010,2019_May_10_1255,mf_amp_cond1,3.0.7,59.98280146613552,
agreement,&&&&&&&&&,images/symbols/symbol_6.png,condition_files/AMP_rep2.csv,left,fairness.virtue,,,,,,,,,,,,,,0,2,2,1,0,59,59,59,,,,,,,,,,,,,,,,,,,,,1033.5816785750212,,,,,,,,,,,,,,AMP_prac,right,3.6344849129673094,3,,,left,0.43369452888146043,,,,,,,,,,,,,,,,,,,,,,,,,1010,2019_May_10_1255,mf_amp_cond1,3.0.7,59.98280146613552,
sharing,&&&&&&&,images/symbols/symbol_21.png,condition_files/AMP_rep2.csv,left,loyalty.virtue,,,,,,,,,,,,,,0,2,2,1,0,60,60,60,,,,,,,,,,,,,,,,,,,,,1034.2151599529898,,,,,,,,,,,,,,AMP_prac,right,3.6344849129673094,3,,,left,0.4154875371605158,,,,,,,,,,,,,,,,,,,,,,,,,1010,2019_May_10_1255,mf_amp_cond1,3.0.7,59.98280146613552,
ban,&&&,images/symbols/symbol_71.png,condition_files/AMP_rep2.csv,right,loyalty.vice,,,,,,,,,,,,,,0,2,2,1,0,61,61,61,,,,,,,,,,,,,,,,,,,,,1034.798648675438,,,,,,,,,,,,,,AMP_prac,right,3.6344849129673094,3,,,left,0.36570623656734824,,,,,,,,,,,,,,,,,,,,,,,,,1010,2019_May_10_1255,mf_amp_cond1,3.0.7,59.98280146613552,
clorze,&&&&&&,images/symbols/symbol_81.png,condition_files/AMP_rep2.csv,None,nonword,,,,,,,,,,,,,,0,2,2,1,0,62,62,62,,,,,,,,,,,,,,,,,,,,,1035.3821159097133,,,,,,,,,,,,,,AMP_prac,right,3.6344849129673094,3,,,left,0.36576845636591315,,,,,,,,,,,,,,,,,,,,,,,,,1010,2019_May_10_1255,mf_amp_cond1,3.0.7,59.98280146613552,
voter,&&&&&,images/symbols/symbol_57.png,condition_files/AMP_rep2.csv,right,fairness.vice,,,,,,,,,,,,,,0,2,2,1,0,63,63,63,,,,,,,,,,,,,,,,,,,,,1035.9656161781168,,,,,,,,,,,,,,AMP_prac,right,3.6344849129673094,3,,,left,0.36569725640583783,,,,,,,,,,,,,,,,,,,,,,,,,1010,2019_May_10_1255,mf_amp_cond1,3.0.7,59.98280146613552,
compassion,&&&&&&&&&&,images/symbols/symbol_48.png,condition_files/AMP_rep2.csv,left,care.virtue,,,,,,,,,,,,,,0,2,2,1,0,64,64,64,,,,,,,,,,,,,,,,,,,,,1036.6491027197335,,,,,,,,,,,,,,AMP_prac,right,3.6344849129673094,3,,,left,0.46571239444892853,,,,,,,,,,,,,,,,,,,,,,,,,1010,2019_May_10_1255,mf_amp_cond1,3.0.7,59.98280146613552,
unpleasant,&&&&&&&&&,images/symbols/symbol_28.png,condition_files/AMP_rep2.csv,left,control,,,,,,,,,,,,,,0,2,2,1,0,65,65,65,,,,,,,,,,,,,,,,,,,,,1037.2826113590272,,,,,,,,,,,,,,AMP_prac,right,3.6344849129673094,3,,,left,0.4154808019520715,,,,,,,,,,,,,,,,,,,,,,,,,1010,2019_May_10_1255,mf_amp_cond1,3.0.7,59.98280146613552,
good,&&&&,images/symbols/symbol_58.png,condition_files/AMP_rep2.csv,left,care.virtue,,,,,,,,,,,,,,0,2,2,1,0,66,66,66,,,,,,,,,,,,,,,,,,,,,1037.8660971949575,,,,,,,,,,,,,,AMP_prac,right,3.6344849129673094,3,,,left,0.36577422940172255,,,,,,,,,,,,,,,,,,,,,,,,,1010,2019_May_10_1255,mf_amp_cond1,3.0.7,59.98280146613552,
help,&&&&,images/symbols/symbol_46.png,condition_files/AMP_rep2.csv,left,care.virtue,,,,,,,,,,,,,,0,2,2,1,0,67,67,67,,,,,,,,,,,,,,,,,,,,,1038.4329334587092,,,,,,,,,,,,,,AMP_prac,right,3.6344849129673094,3,,,left,0.3490281201666221,,,,,,,,,,,,,,,,,,,,,,,,,1010,2019_May_10_1255,mf_amp_cond1,3.0.7,59.98280146613552,
twild,&&&&&,images/symbols/symbol_55.png,condition_files/AMP_rep2.csv,None,nonword,,,,,,,,,,,,,,0,2,2,1,0,68,68,68,,,,,,,,,,,,,,,,,,,,,1039.0663923863322,,,,,,,,,,,,,,AMP_prac,right,3.6344849129673094,3,,,left,0.4155587371205911,,,,,,,,,,,,,,,,,,,,,,,,,1010,2019_May_10_1255,mf_amp_cond1,3.0.7,59.98280146613552,
snoze,&&&&&,images/symbols/symbol_19.png,condition_files/AMP_rep2.csv,None,nonword,,,,,,,,,,,,,,0,2,2,1,0,69,69,69,,,,,,,,,,,,,,,,,,,,,1039.5331474435516,,,,,,,,,,,,,,AMP_prac,right,3.6344849129673094,3,,,left,0.24897032626904547,,,,,,,,,,,,,,,,,,,,,,,,,1010,2019_May_10_1255,mf_amp_cond1,3.0.7,59.98280146613552,
freedom,&&&&&&&,images/symbols/symbol_61.png,condition_files/AMP_rep2.csv,left,sanctity.virtue,,,,,,,,,,,,,,0,2,2,1,0,70,70,70,,,,,,,,,,,,,,,,,,,,,1039.9832686439622,,,,,,,,,,,,,,AMP_prac,right,3.6344849129673094,3,,,left,0.23187783872708678,,,,,,,,,,,,,,,,,,,,,,,,,1010,2019_May_10_1255,mf_amp_cond1,3.0.7,59.98280146613552,
peaceful,&&&&&&&&,images/symbols/symbol_38.png,condition_files/AMP_rep2.csv,left,authority.virtue,,,,,,,,,,,,,,0,2,2,1,0,71,71,71,,,,,,,,,,,,,,,,,,,,,1040.4500570561504,,,,,,,,,,,,,,AMP_prac,right,3.6344849129673094,3,,,left,0.24904184695333242,,,,,,,,,,,,,,,,,,,,,,,,,1010,2019_May_10_1255,mf_amp_cond1,3.0.7,59.98280146613552,
riot,&&&&,images/symbols/symbol_40.png,condition_files/AMP_rep2.csv,right,authority.vice,,,,,,,,,,,,,,0,2,2,1,0,72,72,72,,,,,,,,,,,,,,,,,,,,,1040.9001686348347,,,,,,,,,,,,,,AMP_prac,right,3.6344849129673094,3,,,left,0.2322938134893775,,,,,,,,,,,,,,,,,,,,,,,,,1010,2019_May_10_1255,mf_amp_cond1,3.0.7,59.98280146613552,
feuld,&&&&&,images/symbols/symbol_63.png,condition_files/AMP_rep2.csv,None,nonword,,,,,,,,,,,,,,0,2,2,1,0,73,73,73,,,,,,,,,,,,,,,,,,,,,1041.283584746183,,,,,,,,,,,,,,AMP_prac,right,3.6344849129673094,3,,,left,0.16579526860732585,,,,,,,,,,,,,,,,,,,,,,,,,1010,2019_May_10_1255,mf_amp_cond1,3.0.7,59.98280146613552,
drug,&&&&,images/symbols/symbol_20.png,condition_files/AMP_rep2.csv,right,sanctity.vice,,,,,,,,,,,,,,0,2,2,1,0,74,74,74,,,,,,,,,,,,,,,,,,,,,1041.650349361007,,,,,,,,,,,,,,AMP_prac,right,3.6344849129673094,3,,,left,0.14950426202267408,,,,,,,,,,,,,,,,,,,,,,,,,1010,2019_May_10_1255,mf_amp_cond1,3.0.7,59.98280146613552,
party,&&&&&,images/symbols/symbol_9.png,condition_files/AMP_rep2.csv,left,loyalty.virtue,,,,,,,,,,,,,,0,2,2,1,0,75,75,75,,,,,,,,,,,,,,,,,,,,,1042.0171415577643,,,,,,,,,,,,,,AMP_prac,right,3.6344849129673094,3,,,left,0.14887981896754354,,,,,,,,,,,,,,,,,,,,,,,,,1010,2019_May_10_1255,mf_amp_cond1,3.0.7,59.98280146613552,
groups,&&&&&&,images/symbols/symbol_42.png,condition_files/AMP_rep2.csv,right,loyalty.vice,,,,,,,,,,,,,,0,2,2,1,0,76,76,76,,,,,,,,,,,,,,,,,,,,,1042.2838499821955,,,,,,,,,,,,,,AMP_prac,right,3.6344849129673094,3,,,left,0.04897116019856185,,,,,,,,,,,,,,,,,,,,,,,,,1010,2019_May_10_1255,mf_amp_cond1,3.0.7,59.98280146613552,
corruption,&&&&&&&&&&,images/symbols/symbol_49.png,condition_files/AMP_rep2.csv,right,sanctity.vice,,,,,,,,,,,,,,0,2,2,1,0,77,77,77,,,,,,,,,,,,,,,,,,,,,1042.70060115878,,,,,,,,,,,,,,AMP_prac,right,3.6344849129673094,3,,,left,0.18360969831701368,,,,,,,,,,,,,,,,,,,,,,,,,1010,2019_May_10_1255,mf_amp_cond1,3.0.7,59.98280146613552,
commitment,&&&&&&&&&&,images/symbols/symbol_5.png,condition_files/AMP_rep2.csv,left,sanctity.virtue,,,,,,,,,,,,,,0,2,2,1,0,78,78,78,,,,,,,,,,,,,,,,,,,,,1042.9340155703248,,,,,,,,,,,,,,AMP_prac,right,3.6344849129673094,3,,,left,0.015090228291228414,,,,,,,,,,,,,,,,,,,,,,,,,1010,2019_May_10_1255,mf_amp_cond1,3.0.7,59.98280146613552,
violations,&&&&&&&&&&,images/symbols/symbol_4.png,condition_files/AMP_rep2.csv,right,sanctity.vice,,,,,,,,,,,,,,0,2,2,1,0,79,79,79,,,,,,,,,,,,,,,,,,,,,1043.350764822564,,,,,,,,,,,,,,AMP_prac,right,3.6344849129673094,3,,,left,0.19890230137389153,,,,,,,,,,,,,,,,,,,,,,,,,1010,2019_May_10_1255,mf_amp_cond1,3.0.7,59.98280146613552,
fair,&&&&,images/symbols/symbol_47.png,condition_files/AMP_rep2.csv,left,fairness.virtue,,,,,,,,,,,,,,0,2,2,1,0,80,80,80,,,,,,,,,,,,,,,,,,,,,1043.5688728400273,,,,,,,,,,,,,,AMP_prac,right,3.6344849129673094,3,,,left,0.0003085333155468106,,,,,,,,,,,,,,,,,,,,,,,,,1010,2019_May_10_1255,mf_amp_cond1,3.0.7,59.98280146613552,
trust,&&&&&,images/symbols/symbol_68.png,condition_files/AMP_rep2.csv,left,authority.virtue,,,,,,,,,,,,,,0,2,2,1,0,81,81,81,,,,,,,,,,,,,,,,,,,,,1043.8009100769414,,,,,,,,,,,,,,AMP_prac,right,3.6344849129673094,3,,,left,0.00029762880876660347,,,,,,,,,,,,,,,,,,,,,,,,,1010,2019_May_10_1255,mf_amp_cond1,3.0.7,59.98280146613552,
,,,condition_files/AMP_rep2.csv,,,,,,,,,,,,,,,,0,2,2,1,,,,,,,,,,,,,,,,,,,,,,,,,,,,,,,,,,,,,,,,,,,,,,,right,1.834010054008104,,,,,,,,,,,,,,,,,,,,,,,1010,2019_May_10_1255,mf_amp_cond1,3.0.7,59.98280146613552,
praise,&&&&&&,images/symbols/symbol_44.png,condition_files/AMP_rep1.csv,left,authority.virtue,,,,,,,,,,,,,,0,3,3,0,0,0,0,0,,,,,,,,,,,,,,,,,,,,,1046.2683184422785,,,,,,,,,,,,,,AMP_prac,right,3.6344849129673094,3,,,right,0.38199371518567204,,,,,,,,,,,,,,,,,,,,,,,,,1010,2019_May_10_1255,mf_amp_cond1,3.0.7,59.98280146613552,
hope,&&&&,images/symbols/symbol_77.png,condition_files/AMP_rep1.csv,left,loyalty.virtue,,,,,,,,,,,,,,0,3,3,0,0,1,1,1,,,,,,,,,,,,,,,,,,,,,1046.6849512729095,,,,,,,,,,,,,,AMP_prac,right,3.6344849129673094,3,,,right,0.19902834459207952,,,,,,,,,,,,,,,,,,,,,,,,,1010,2019_May_10_1255,mf_amp_cond1,3.0.7,59.98280146613552,
intelligence,&&&&&&&&&&&&,images/symbols/symbol_50.png,condition_files/AMP_rep1.csv,left,loyalty.virtue,,,,,,,,,,,,,,0,3,3,0,0,2,2,2,,,,,,,,,,,,,,,,,,,,,1047.1183840937447,,,,,,,,,,,,,,AMP_prac,right,3.6344849129673094,3,,,left,0.21572794939856976,,,,,,,,,,,,,,,,,,,,,,,,,1010,2019_May_10_1255,mf_amp_cond1,3.0.7,59.98280146613552,
slavery,&&&&&&&,images/symbols/symbol_51.png,condition_files/AMP_rep1.csv,right,loyalty.vice,,,,,,,,,,,,,,0,3,3,0,0,3,3,3,,,,,,,,,,,,,,,,,,,,,1047.601840038551,,,,,,,,,,,,,,AMP_prac,right,3.6344849129673094,3,,,right,0.25031318375840783,,,,,,,,,,,,,,,,,,,,,,,,,1010,2019_May_10_1255,mf_amp_cond1,3.0.7,59.98280146613552,
died,&&&&,images/symbols/symbol_52.png,condition_files/AMP_rep1.csv,right,care.vice,,,,,,,,,,,,,,0,3,3,0,0,4,4,4,,,,,,,,,,,,,,,,,,,,,1048.1019638368161,,,,,,,,,,,,,,AMP_prac,right,3.6344849129673094,3,,,left,0.28269410505890846,,,,,,,,,,,,,,,,,,,,,,,,,1010,2019_May_10_1255,mf_amp_cond1,3.0.7,59.98280146613552,
fighters,&&&&&&&&,images/symbols/symbol_43.png,condition_files/AMP_rep1.csv,right,authority.vice,,,,,,,,,,,,,,0,3,3,0,0,5,5,5,,,,,,,,,,,,,,,,,,,,,1048.5020574231166,,,,,,,,,,,,,,AMP_prac,right,3.6344849129673094,3,,,left,0.16694505221676081,,,,,,,,,,,,,,,,,,,,,,,,,1010,2019_May_10_1255,mf_amp_cond1,3.0.7,59.98280146613552,
terrorists,&&&&&&&&&&,images/symbols/symbol_14.png,condition_files/AMP_rep1.csv,right,fairness.vice,,,,,,,,,,,,,,0,3,3,0,0,6,6,6,,,,,,,,,,,,,,,,,,,,,1048.9021635174286,,,,,,,,,,,,,,AMP_prac,right,3.6344849129673094,3,,,left,0.18209044449031353,,,,,,,,,,,,,,,,,,,,,,,,,1010,2019_May_10_1255,mf_amp_cond1,3.0.7,59.98280146613552,
encourage,&&&&&&&&&,images/symbols/symbol_34.png,condition_files/AMP_rep1.csv,left,authority.virtue,,,,,,,,,,,,,,0,3,3,0,0,7,7,7,,,,,,,,,,,,,,,,,,,,,1049.2022410036298,,,,,,,,,,,,,,AMP_prac,right,3.6344849129673094,3,,,left,0.08216190105304122,,,,,,,,,,,,,,,,,,,,,,,,,1010,2019_May_10_1255,mf_amp_cond1,3.0.7,59.98280146613552,
terrorist,&&&&&&&&&,images/symbols/symbol_65.png,condition_files/AMP_rep1.csv,right,loyalty.vice,,,,,,,,,,,,,,0,3,3,0,0,8,8,8,,,,,,,,,,,,,,,,,,,,,1049.4689738028683,,,,,,,,,,,,,,AMP_prac,right,3.6344849129673094,3,,,left,0.048863077303394675,,,,,,,,,,,,,,,,,,,,,,,,,1010,2019_May_10_1255,mf_amp_cond1,3.0.7,59.98280146613552,
safe,&&&&,images/symbols/symbol_41.png,condition_files/AMP_rep1.csv,left,care.virtue,,,,,,,,,,,,,,0,3,3,0,0,9,9,9,,,,,,,,,,,,,,,,,,,,,1049.7190374658676,,,,,,,,,,,,,,AMP_prac,right,3.6344849129673094,3,,,left,0.03274718427564949,,,,,,,,,,,,,,,,,,,,,,,,,1010,2019_May_10_1255,mf_amp_cond1,3.0.7,59.98280146613552,
friends,&&&&&&&,images/symbols/symbol_73.png,condition_files/AMP_rep1.csv,left,loyalty.virtue,,,,,,,,,,,,,,0,3,3,0,0,10,10,10,,,,,,,,,,,,,,,,,,,,,1050.0691396795446,,,,,,,,,,,,,,AMP_prac,right,3.6344849129673094,3,,,right,0.13167123054154217,,,,,,,,,,,,,,,,,,,,,,,,,1010,2019_May_10_1255,mf_amp_cond1,3.0.7,59.98280146613552,
illegal,&&&&&&&,images/symbols/symbol_2.png,condition_files/AMP_rep1.csv,right,fairness.vice,,,,,,,,,,,,,,0,3,3,0,0,11,11,11,,,,,,,,,,,,,,,,,,,,,1050.4525439242134,,,,,,,,,,,,,,AMP_prac,right,3.6344849129673094,3,,,left,0.16561598575208336,,,,,,,,,,,,,,,,,,,,,,,,,1010,2019_May_10_1255,mf_amp_cond1,3.0.7,59.98280146613552,
betrayal,&&&&&&&&,images/symbols/symbol_70.png,condition_files/AMP_rep1.csv,right,loyalty.vice,,,,,,,,,,,,,,0,3,3,0,0,12,12,12,,,,,,,,,,,,,,,,,,,,,1050.7526486716233,,,,,,,,,,,,,,AMP_prac,right,3.6344849129673094,3,,,left,0.08237261464819312,,,,,,,,,,,,,,,,,,,,,,,,,1010,2019_May_10_1255,mf_amp_cond1,3.0.7,59.98280146613552,
failure,&&&&&&&,images/symbols/symbol_75.png,condition_files/AMP_rep1.csv,right,loyalty.vice,,,,,,,,,,,,,,0,3,3,0,0,13,13,13,,,,,,,,,,,,,,,,,,,,,1051.2360763930483,,,,,,,,,,,,,,AMP_prac,right,3.6344849129673094,3,,,right,0.265621822909452,,,,,,,,,,,,,,,,,,,,,,,,,1010,2019_May_10_1255,mf_amp_cond1,3.0.7,59.98280146613552,
growth,&&&&&&,images/symbols/symbol_29.png,condition_files/AMP_rep1.csv,left,care.virtue,,,,,,,,,,,,,,0,3,3,0,0,14,14,14,,,,,,,,,,,,,,,,,,,,,1051.602831065422,,,,,,,,,,,,,,AMP_prac,right,3.6344849129673094,3,,,left,0.14880829816684127,,,,,,,,,,,,,,,,,,,,,,,,,1010,2019_May_10_1255,mf_amp_cond1,3.0.7,59.98280146613552,
credit,&&&&&&,images/symbols/symbol_35.png,condition_files/AMP_rep1.csv,left,fairness.virtue,,,,,,,,,,,,,,0,3,3,0,0,15,15,15,,,,,,,,,,,,,,,,,,,,,1051.9029140038183,,,,,,,,,,,,,,AMP_prac,right,3.6344849129673094,3,,,left,0.08223823260050267,,,,,,,,,,,,,,,,,,,,,,,,,1010,2019_May_10_1255,mf_amp_cond1,3.0.7,59.98280146613552,
police,&&&&&&,images/symbols/symbol_30.png,condition_files/AMP_rep1.csv,right,authority.vice,,,,,,,,,,,,,,0,3,3,0,0,16,16,16,,,,,,,,,,,,,,,,,,,,,1052.2697321790038,,,,,,,,,,,,,,AMP_prac,right,3.6344849129673094,3,,,right,0.14921817916911095,,,,,,,,,,,,,,,,,,,,,,,,,1010,2019_May_10_1255,mf_amp_cond1,3.0.7,59.98280146613552,
rejected,&&&&&&&&,images/symbols/symbol_27.png,condition_files/AMP_rep1.csv,right,authority.vice,,,,,,,,,,,,,,0,3,3,0,0,17,17,17,,,,,,,,,,,,,,,,,,,,,1052.6364239901304,,,,,,,,,,,,,,AMP_prac,right,3.6344849129673094,3,,,left,0.1488794982433319,,,,,,,,,,,,,,,,,,,,,,,,,1010,2019_May_10_1255,mf_amp_cond1,3.0.7,59.98280146613552,
forced,&&&&&&,images/symbols/symbol_7.png,condition_files/AMP_rep1.csv,right,fairness.vice,,,,,,,,,,,,,,0,3,3,0,0,18,18,18,,,,,,,,,,,,,,,,,,,,,1052.8698255728232,,,,,,,,,,,,,,AMP_prac,right,3.6344849129673094,3,,,left,0.015183237264864147,,,,,,,,,,,,,,,,,,,,,,,,,1010,2019_May_10_1255,mf_amp_cond1,3.0.7,59.98280146613552,
ensure,&&&&&&,images/symbols/symbol_11.png,condition_files/AMP_rep1.csv,left,fairness.virtue,,,,,,,,,,,,,,0,3,3,0,0,19,19,19,,,,,,,,,,,,,,,,,,,,,1053.1198825007305,,,,,,,,,,,,,,AMP_prac,right,3.6344849129673094,3,,,left,0.032308117602951825,,,,,,,,,,,,,,,,,,,,,,,,,1010,2019_May_10_1255,mf_amp_cond1,3.0.7,59.98280146613552,
torture,&&&&&&&,images/symbols/symbol_74.png,condition_files/AMP_rep1.csv,right,care.vice,,,,,,,,,,,,,,0,3,3,0,0,20,20,20,,,,,,,,,,,,,,,,,,,,,1053.4032818704145,,,,,,,,,,,,,,AMP_prac,right,3.6344849129673094,3,,,right,0.050255005015060306,,,,,,,,,,,,,,,,,,,,,,,,,1010,2019_May_10_1255,mf_amp_cond1,3.0.7,59.98280146613552,
promote,&&&&&&&,images/symbols/symbol_39.png,condition_files/AMP_rep1.csv,left,sanctity.virtue,,,,,,,,,,,,,,0,3,3,0,0,21,21,21,,,,,,,,,,,,,,,,,,,,,1053.7533921021968,,,,,,,,,,,,,,AMP_prac,right,3.6344849129673094,3,,,left,0.13201632595155388,,,,,,,,,,,,,,,,,,,,,,,,,1010,2019_May_10_1255,mf_amp_cond1,3.0.7,59.98280146613552,
spauned,&&&&&&&,images/symbols/symbol_8.png,condition_files/AMP_rep1.csv,None,nonword,,,,,,,,,,,,,,0,3,3,0,0,22,22,22,,,,,,,,,,,,,,,,,,,,,1053.9713189123431,,,,,,,,,,,,,,AMP_prac,right,3.6344849129673094,3,,,left,0.0003066089702770114,,,,,,,,,,,,,,,,,,,,,,,,,1010,2019_May_10_1255,mf_amp_cond1,3.0.7,59.98280146613552,
ailled,&&&&&&,images/symbols/symbol_22.png,condition_files/AMP_rep1.csv,None,nonword,,,,,,,,,,,,,,0,3,3,0,0,23,23,23,,,,,,,,,,,,,,,,,,,,,1054.1881414813688,,,,,,,,,,,,,,AMP_prac,right,3.6344849129673094,3,,,left,0.00030500534921884537,,,,,,,,,,,,,,,,,,,,,,,,,1010,2019_May_10_1255,mf_amp_cond1,3.0.7,59.98280146613552,
free,&&&&,images/symbols/symbol_25.png,condition_files/AMP_rep1.csv,left,fairness.virtue,,,,,,,,,,,,,,0,3,3,0,0,24,24,24,,,,,,,,,,,,,,,,,,,,,1054.6369195035659,,,,,,,,,,,,,,AMP_prac,right,3.6344849129673094,3,,,right,0.23225083691067994,,,,,,,,,,,,,,,,,,,,,,,,,1010,2019_May_10_1255,mf_amp_cond1,3.0.7,59.98280146613552,
troops,&&&&&&,images/symbols/symbol_80.png,condition_files/AMP_rep1.csv,right,loyalty.vice,,,,,,,,,,,,,,0,3,3,0,0,25,25,25,,,,,,,,,,,,,,,,,,,,,1055.0036777039059,,,,,,,,,,,,,,AMP_prac,right,3.6344849129673094,3,,,left,0.14936699357349426,,,,,,,,,,,,,,,,,,,,,,,,,1010,2019_May_10_1255,mf_amp_cond1,3.0.7,59.98280146613552,
hate,&&&&,images/symbols/symbol_56.png,condition_files/AMP_rep1.csv,right,fairness.vice,,,,,,,,,,,,,,0,3,3,0,0,26,26,26,,,,,,,,,,,,,,,,,,,,,1055.2870844502468,,,,,,,,,,,,,,AMP_prac,right,3.6344849129673094,3,,,right,0.06548891623970121,,,,,,,,,,,,,,,,,,,,,,,,,1010,2019_May_10_1255,mf_amp_cond1,3.0.7,59.98280146613552,
gryssed,&&&&&&&,images/symbols/symbol_23.png,condition_files/AMP_rep1.csv,None,nonword,,,,,,,,,,,,,,0,3,3,0,0,27,27,27,,,,,,,,,,,,,,,,,,,,,1055.5205155392177,,,,,,,,,,,,,,AMP_prac,right,3.6344849129673094,3,,,right,0.015350974164903164,,,,,,,,,,,,,,,,,,,,,,,,,1010,2019_May_10_1255,mf_amp_cond1,3.0.7,59.98280146613552,
celebrated,&&&&&&&&&&,images/symbols/symbol_31.png,condition_files/AMP_rep1.csv,left,authority.virtue,,,,,,,,,,,,,,0,3,3,0,0,28,28,28,,,,,,,,,,,,,,,,,,,,,1055.8705741348676,,,,,,,,,,,,,,AMP_prac,right,3.6344849129673094,3,,,right,0.11694405798334628,,,,,,,,,,,,,,,,,,,,,,,,,1010,2019_May_10_1255,mf_amp_cond1,3.0.7,59.98280146613552,
crime,&&&&&,images/symbols/symbol_33.png,condition_files/AMP_rep1.csv,right,fairness.vice,,,,,,,,,,,,,,0,3,3,0,0,29,29,29,,,,,,,,,,,,,,,,,,,,,1056.2375465766527,,,,,,,,,,,,,,AMP_prac,right,3.6344849129673094,3,,,left,0.14908604230731726,,,,,,,,,,,,,,,,,,,,,,,,,1010,2019_May_10_1255,mf_amp_cond1,3.0.7,59.98280146613552,
progress,&&&&&&&&,images/symbols/symbol_1.png,condition_files/AMP_rep1.csv,left,authority.virtue,,,,,,,,,,,,,,0,3,3,0,0,30,30,30,,,,,,,,,,,,,,,,,,,,,1056.6040809139377,,,,,,,,,,,,,,AMP_prac,right,3.6344849129673094,3,,,right,0.14883363514672965,,,,,,,,,,,,,,,,,,,,,,,,,1010,2019_May_10_1255,mf_amp_cond1,3.0.7,59.98280146613552,
prinse,&&&&&&,images/symbols/symbol_60.png,condition_files/AMP_rep1.csv,None,nonword,,,,,,,,,,,,,,0,3,3,0,0,31,31,31,,,,,,,,,,,,,,,,,,,,,1056.8875004890142,,,,,,,,,,,,,,AMP_prac,right,3.6344849129673094,3,,,right,0.050267192418687046,,,,,,,,,,,,,,,,,,,,,,,,,1010,2019_May_10_1255,mf_amp_cond1,3.0.7,59.98280146613552,
pleasant,&&&&&&&,images/symbols/symbol_24.png,condition_files/AMP_rep1.csv,right,control,,,,,,,,,,,,,,0,3,3,0,0,32,32,32,,,,,,,,,,,,,,,,,,,,,1057.1542358540464,,,,,,,,,,,,,,AMP_prac,right,3.6344849129673094,3,,,right,0.04864370438735932,,,,,,,,,,,,,,,,,,,,,,,,,1010,2019_May_10_1255,mf_amp_cond1,3.0.7,59.98280146613552,
fear,&&&&,images/symbols/symbol_13.png,condition_files/AMP_rep1.csv,right,sanctity.vice,,,,,,,,,,,,,,0,3,3,0,0,33,33,33,,,,,,,,,,,,,,,,,,,,,1057.6543487478048,,,,,,,,,,,,,,AMP_prac,right,3.6344849129673094,3,,,right,0.28228422394022346,,,,,,,,,,,,,,,,,,,,,,,,,1010,2019_May_10_1255,mf_amp_cond1,3.0.7,59.98280146613552,
injured,&&&&&&&,images/symbols/symbol_12.png,condition_files/AMP_rep1.csv,right,care.vice,,,,,,,,,,,,,,0,3,3,0,0,34,34,34,,,,,,,,,,,,,,,,,,,,,1058.2044860483147,,,,,,,,,,,,,,AMP_prac,right,3.6344849129673094,3,,,right,0.3322047172114253,,,,,,,,,,,,,,,,,,,,,,,,,1010,2019_May_10_1255,mf_amp_cond1,3.0.7,59.98280146613552,
promised,&&&&&&&&,images/symbols/symbol_17.png,condition_files/AMP_rep1.csv,left,loyalty.virtue,,,,,,,,,,,,,,0,3,3,0,0,35,35,35,,,,,,,,,,,,,,,,,,,,,1058.6879381444305,,,,,,,,,,,,,,AMP_prac,right,3.6344849129673094,3,,,right,0.2654098265338689,,,,,,,,,,,,,,,,,,,,,,,,,1010,2019_May_10_1255,mf_amp_cond1,3.0.7,59.98280146613552,
dignity,&&&&&&&,images/symbols/symbol_66.png,condition_files/AMP_rep1.csv,left,sanctity.virtue,,,,,,,,,,,,,,0,3,3,0,0,36,36,36,,,,,,,,,,,,,,,,,,,,,1059.1380654384848,,,,,,,,,,,,,,AMP_prac,right,3.6344849129673094,3,,,right,0.23242819542065263,,,,,,,,,,,,,,,,,,,,,,,,,1010,2019_May_10_1255,mf_amp_cond1,3.0.7,59.98280146613552,
serial,&&&&&&,images/symbols/symbol_15.png,condition_files/AMP_rep1.csv,right,sanctity.vice,,,,,,,,,,,,,,0,3,3,0,0,37,37,37,,,,,,,,,,,,,,,,,,,,,1059.671534244204,,,,,,,,,,,,,,AMP_prac,right,3.6344849129673094,3,,,left,0.3156657936051488,,,,,,,,,,,,,,,,,,,,,,,,,1010,2019_May_10_1255,mf_amp_cond1,3.0.7,59.98280146613552,
skypped,&&&&&&&,images/symbols/symbol_62.png,condition_files/AMP_rep1.csv,None,nonword,,,,,,,,,,,,,,0,3,3,0,0,38,38,38,,,,,,,,,,,,,,,,,,,,,1060.0382853887277,,,,,,,,,,,,,,AMP_prac,right,3.6344849129673094,3,,,left,0.1336237780051306,,,,,,,,,,,,,,,,,,,,,,,,,1010,2019_May_10_1255,mf_amp_cond1,3.0.7,59.98280146613552,
embrace,&&&&&&&,images/symbols/symbol_45.png,condition_files/AMP_rep1.csv,left,authority.virtue,,,,,,,,,,,,,,0,3,3,0,0,39,39,39,,,,,,,,,,,,,,,,,,,,,1060.3383708929177,,,,,,,,,,,,,,AMP_prac,right,3.6344849129673094,3,,,left,0.08206440205685794,,,,,,,,,,,,,,,,,,,,,,,,,1010,2019_May_10_1255,mf_amp_cond1,3.0.7,59.98280146613552,
rebels,&&&&&&,images/symbols/symbol_54.png,condition_files/AMP_rep1.csv,right,authority.vice,,,,,,,,,,,,,,0,3,3,0,0,40,40,40,,,,,,,,,,,,,,,,,,,,,1060.6217545472318,,,,,,,,,,,,,,AMP_prac,right,3.6344849129673094,3,,,left,0.06539077567867935,,,,,,,,,,,,,,,,,,,,,,,,,1010,2019_May_10_1255,mf_amp_cond1,3.0.7,59.98280146613552,
prosecution,&&&&&&&&&&&,images/symbols/symbol_18.png,condition_files/AMP_rep1.csv,right,authority.vice,,,,,,,,,,,,,,0,3,3,0,0,41,41,41,,,,,,,,,,,,,,,,,,,,,1061.1052220381098,,,,,,,,,,,,,,AMP_prac,right,3.6344849129673094,3,,,right,0.2656603093491867,,,,,,,,,,,,,,,,,,,,,,,,,1010,2019_May_10_1255,mf_amp_cond1,3.0.7,59.98280146613552,
shot,&&&&,images/symbols/symbol_72.png,condition_files/AMP_rep1.csv,right,care.vice,,,,,,,,,,,,,,0,3,3,0,0,42,42,42,,,,,,,,,,,,,,,,,,,,,1061.4719622781267,,,,,,,,,,,,,,AMP_prac,right,3.6344849129673094,3,,,left,0.14872940082568675,,,,,,,,,,,,,,,,,,,,,,,,,1010,2019_May_10_1255,mf_amp_cond1,3.0.7,59.98280146613552,
suicide,&&&&&&&,images/symbols/symbol_79.png,condition_files/AMP_rep1.csv,right,care.vice,,,,,,,,,,,,,,0,3,3,0,0,43,43,43,,,,,,,,,,,,,,,,,,,,,1061.7387213764014,,,,,,,,,,,,,,AMP_prac,right,3.6344849129673094,3,,,left,0.048833571025170386,,,,,,,,,,,,,,,,,,,,,,,,,1010,2019_May_10_1255,mf_amp_cond1,3.0.7,59.98280146613552,
promises,&&&&&&&&,images/symbols/symbol_10.png,condition_files/AMP_rep1.csv,left,fairness.virtue,,,,,,,,,,,,,,0,3,3,0,0,44,44,44,,,,,,,,,,,,,,,,,,,,,1062.0221127280965,,,,,,,,,,,,,,AMP_prac,right,3.6344849129673094,3,,,left,0.06570828915573657,,,,,,,,,,,,,,,,,,,,,,,,,1010,2019_May_10_1255,mf_amp_cond1,3.0.7,59.98280146613552,
increase,&&&&&&&&,images/symbols/symbol_16.png,condition_files/AMP_rep1.csv,left,care.virtue,,,,,,,,,,,,,,0,3,3,0,0,45,45,45,,,,,,,,,,,,,,,,,,,,,1062.30552043661,,,,,,,,,,,,,,AMP_prac,right,3.6344849129673094,3,,,left,0.06581989990081638,,,,,,,,,,,,,,,,,,,,,,,,,1010,2019_May_10_1255,mf_amp_cond1,3.0.7,59.98280146613552,
safety,&&&&&&,images/symbols/symbol_26.png,condition_files/AMP_rep1.csv,left,care.virtue,,,,,,,,,,,,,,0,3,3,0,0,46,46,46,,,,,,,,,,,,,,,,,,,,,1062.9223291504895,,,,,,,,,,,,,,AMP_prac,right,3.6344849129673094,3,,,right,0.3988219287712127,,,,,,,,,,,,,,,,,,,,,,,,,1010,2019_May_10_1255,mf_amp_cond1,3.0.7,59.98280146613552,
values,&&&&&&,images/symbols/symbol_67.png,condition_files/AMP_rep1.csv,left,sanctity.virtue,,,,,,,,,,,,,,0,3,3,0,0,47,47,47,,,,,,,,,,,,,,,,,,,,,1063.2557644729968,,,,,,,,,,,,,,AMP_prac,right,3.6344849129673094,3,,,left,0.11540267441887408,,,,,,,,,,,,,,,,,,,,,,,,,1010,2019_May_10_1255,mf_amp_cond1,3.0.7,59.98280146613552,
attacks,&&&&&&&,images/symbols/symbol_32.png,condition_files/AMP_rep1.csv,right,care.vice,,,,,,,,,,,,,,0,3,3,0,0,48,48,48,,,,,,,,,,,,,,,,,,,,,1063.5391433165642,,,,,,,,,,,,,,AMP_prac,right,3.6344849129673094,3,,,right,0.0654613341903314,,,,,,,,,,,,,,,,,,,,,,,,,1010,2019_May_10_1255,mf_amp_cond1,3.0.7,59.98280146613552,
perfect,&&&&&&&,images/symbols/symbol_76.png,condition_files/AMP_rep1.csv,left,sanctity.virtue,,,,,,,,,,,,,,0,3,3,0,0,49,49,49,,,,,,,,,,,,,,,,,,,,,1063.7892073002877,,,,,,,,,,,,,,AMP_prac,right,3.6344849129673094,3,,,right,0.032592276111245155,,,,,,,,,,,,,,,,,,,,,,,,,1010,2019_May_10_1255,mf_amp_cond1,3.0.7,59.98280146613552,
