words,mask,masks,symbols,conditionfile,corr_ans,category,LDT_trials_cond2.thisRepN,LDT_trials_cond2.thisTrialN,LDT_trials_cond2.thisN,LDT_trials_cond2.thisIndex,LDT_pracs_1.thisRepN,LDT_pracs_1.thisTrialN,LDT_pracs_1.thisN,LDT_pracs_1.thisIndex,LDT_trials_1.thisRepN,LDT_trials_1.thisTrialN,LDT_trials_1.thisN,LDT_trials_1.thisIndex,logo_trials.thisRepN,logo_trials.thisTrialN,logo_trials.thisN,logo_trials.thisIndex,AMP_pracs.thisRepN,AMP_pracs.thisTrialN,AMP_pracs.thisN,AMP_pracs.thisIndex,trials_loop.thisRepN,trials_loop.thisTrialN,trials_loop.thisN,trials_loop.thisIndex,AMP_trials.thisRepN,AMP_trials.thisTrialN,AMP_trials.thisN,AMP_trials.thisIndex,memtask_trials.thisRepN,memtask_trials.thisTrialN,memtask_trials.thisN,memtask_trials.thisIndex,LDT_cond1.thisRepN,LDT_cond1.thisTrialN,LDT_cond1.thisN,LDT_cond1.thisIndex,begin_key.keys,begin_key.rt,key_resp_instr.keys,key_resp_instr.rt,exp_time,key_resp_LDT_instr.keys,key_resp_LDT_instr.rt,resp_LDT_prac.keys,resp_LDT_prac.rt,task,keypress,RT,corr,resp_LDT_ready.keys,resp_LDT_ready.rt,resp_LDT_trial.keys,resp_LDT_trial.rt,LDT_rating.response,LDT_rating.rt,resp_sym_rate.keys,resp_sym_rate.rt,sym_resp_1.keys,sym_resp_1.rt,sym_resp_2.keys,sym_resp_2.rt,sym_resp_trial.keys,sym_resp_trial.rt,symbol_index,resp_AMP_ready1.keys,resp_AMP_ready1.rt,resp_AMP.keys,resp_AMP.rt,prime_dur,resp_AMP_ready.keys,resp_AMP_ready.rt,resp_AMP_trials.keys,resp_AMP_trials.rt,rest_key_resp.keys,rest_key_resp.rt,AMP_nonword_rating.response,AMP_nonword_rating.rt,AMP_word_rating.response,AMP_word_rating.rt,AMP_random_rating.response,AMP_random_rating.rt,key_resp_instr_memtask.keys,key_resp_instr_memtask.rt,resp_memtask.keys,resp_memtask.corr,resp_memtask.rt,participant ID,date,expName,psychopyVersion,frameRate,
,,,,,,,,,,,,,,,,,,,,,,,,,,,,,,,,,,,,,,,,,,,right,570.2891496054363,,,,,,,,,,,,,,,,,,,,,,,,,,,,,,,,,,,,,,,,,,,,,,,,,1011,2019_May_10_1256,mf_amp_cond1,3.0.7,60.01231815654939,
,,,,,,,,,,,,,,,,,,,,,,,,,,,,,,,,,,,,,,,,,,,,,right,0.4003325221128762,,,,,,,,,,,,,,,,,,,,,,,,,,,,,,,,,,,,,,,,,,,,,,,1011,2019_May_10_1256,mf_amp_cond1,3.0.7,60.01231815654939,
keyboard,&&&&&&&,,,,,,0,0,0,0,0,0,0,0,,,,,,,,,,,,,,,,,,,,,,,,,,,,,,,,,669.0540492780274,right,1.3506155251525342,left,1.1171762046869844,LDT_prac,left,1.1171762046869844,0,,,,,,,,,,,,,,,,,,,,,,,,,,,,,,,,,,,,,,1011,2019_May_10_1256,mf_amp_cond1,3.0.7,60.01231815654939,
bisebell,&&&&&&&,,,,,,0,0,0,0,0,1,1,1,,,,,,,,,,,,,,,,,,,,,,,,,,,,,,,,,672.5213589661289,,,right,1.8172388733364642,LDT_prac,right,1.8172388733364642,0,,,,,,,,,,,,,,,,,,,,,,,,,,,,,,,,,,,,,,1011,2019_May_10_1256,mf_amp_cond1,3.0.7,60.01231815654939,
,,,,,,,0,0,0,0,,,,,0,0,0,0,,,,,,,,,,,,,,,,,,,,,,,,,,,,,692.34312768362,,,,,LDT_prac,right,1.8172388733364642,0,right,0.1836094302125275,left,1.6673098164610565,,,,,,,,,,,,,,,,,,,,,,,,,,,,,,,,,,1011,2019_May_10_1256,mf_amp_cond1,3.0.7,60.01231815654939,
,,,,,,,0,0,0,0,,,,,,,,,,,,,,,,,,,,,,,,,,,,,,,,,,,,,,,,,,,,,,,,,,6,10.971,,,,,,,,,,,,,,,,,,,,,,,,,,,,,,,,1011,2019_May_10_1256,mf_amp_cond1,3.0.7,60.01231815654939,
,,,,,,,,,,,,,,,,,,,,,,,,,,,,,,,,,,,,,,,,,,,,,,,,,,,,,,,,,,,,,,right,5.468266394804232,,,,,,,,,,,,,,,,,,,,,,,,,,,,,,1011,2019_May_10_1256,mf_amp_cond1,3.0.7,60.01231815654939,
,,,,,,,,,,,,,,,,,,,,,,,,,,,,,,,,,,,,,,,,,,,,,,,780.8313389917603,,,,,,,,,,,,,,,,,left,3.034334000083618,,,,,,,,,,,,,,,,,,,,,,,,,,,,1011,2019_May_10_1256,mf_amp_cond1,3.0.7,60.01231815654939,
,,,,,,,,,,,,,,,,,,,,,,,,,,,,,,,,,,,,,,,,,,,,,,,,,,,,,,,,,,,,,,,,,,right,1.1005334209185094,,,,,,,,,,,,,,,,,,,,,,,,,,1011,2019_May_10_1256,mf_amp_cond1,3.0.7,60.01231815654939,
,,,,,,,,,,,,,,,,,,,,,,,,,,,,,,,,,,,,,,,,,,,,,,,801.0029576766538,,,,,,,,,,,,,,,,,,,,,right,0.46467593836132437,57,right,0.45035099564120173,,,,,,,,,,,,,,,,,,,,,1011,2019_May_10_1256,mf_amp_cond1,3.0.7,60.01231815654939,
keyboard,,&&&&&&&&,images/symbols/symbol_40.png,,,,,,,,,,,,,,,,,,,,0,0,0,2,,,,,,,,,,,,,,,,,,,,,938.403836063575,,,,,AMP_prac,right,0.2169552929699421,,,,,,,,,,,,,,,,,,,right,0.2169552929699421,1,,,,,,,,,,,,,,,,,,1011,2019_May_10_1256,mf_amp_cond1,3.0.7,60.01231815654939,
scarf,,&&&&&,images/symbols/symbol_54.png,,,,,,,,,,,,,,,,,,,,0,1,1,3,,,,,,,,,,,,,,,,,,,,,938.7704202197492,,,,,AMP_prac,right,0.13359544682316482,,,,,,,,,,,,,,,,,,,right,0.13359544682316482,1,,,,,,,,,,,,,,,,,,1011,2019_May_10_1256,mf_amp_cond1,3.0.7,60.01231815654939,
car,,&&&,images/symbols/symbol_9.png,,,,,,,,,,,,,,,,,,,,0,2,2,0,,,,,,,,,,,,,,,,,,,,,939.1371849410934,,,,,AMP_prac,right,0.14895438973326236,,,,,,,,,,,,,,,,,,,right,0.14895438973326236,1,,,,,,,,,,,,,,,,,,1011,2019_May_10_1256,mf_amp_cond1,3.0.7,60.01231815654939,
banana,,&&&&&&,images/symbols/symbol_68.png,,,,,,,,,,,,,,,,,,,,0,3,3,1,,,,,,,,,,,,,,,,,,,,,940.270843569655,,,,,AMP_prac,right,0.9004649792332202,,,,,,,,,,,,,,,,,,,right,0.9004649792332202,1,,,,,,,,,,,,,,,,,,1011,2019_May_10_1256,mf_amp_cond1,3.0.7,60.01231815654939,
,,,,,,,,,,,,,,,,,,,,,,,,,,,,,,,,,,,,,,,,,,,,,,,,,,,,,,,,,,,,,,,,,,,,,,,,,,,,right,0.5170330995460972,,,,,,,,,,,,,,,,1011,2019_May_10_1256,mf_amp_cond1,3.0.7,60.01231815654939,
noost,,&&&&&,images/symbols/symbol_9.png,condition_files/AMP_rep1.csv,None,nonword,,,,,,,,,,,,,,,,,,,,,0,0,0,0,0,0,0,0,,,,,,,,,,,,,962.0263538538711,,,,,AMP_prac,right,0.9004649792332202,,,,,,,,,,,,,,,,,,,,,1,,,right,0.9671441968530416,,,,,,,,,,,,,,1011,2019_May_10_1256,mf_amp_cond1,3.0.7,60.01231815654939,
improve,,&&&&&&&,images/symbols/symbol_27.png,condition_files/AMP_rep1.csv,left,care.virtue,,,,,,,,,,,,,,,,,,,,,0,0,0,0,0,1,1,1,,,,,,,,,,,,,962.6763682221062,,,,,AMP_prac,right,0.9004649792332202,,,,,,,,,,,,,,,,,,,,,1,,,right,0.43186118733137846,,,,,,,,,,,,,,1011,2019_May_10_1256,mf_amp_cond1,3.0.7,60.01231815654939,
death,,&&&&&,images/symbols/symbol_80.png,condition_files/AMP_rep1.csv,right,care.vice,,,,,,,,,,,,,,,,,,,,,0,0,0,0,0,2,2,2,,,,,,,,,,,,,963.0764627702301,,,,,AMP_prac,right,0.9004649792332202,,,,,,,,,,,,,,,,,,,,,1,,,right,0.1827874256996438,,,,,,,,,,,,,,1011,2019_May_10_1256,mf_amp_cond1,3.0.7,60.01231815654939,
ability,,&&&&&&&,images/symbols/symbol_20.png,condition_files/AMP_rep1.csv,left,authority.virtue,,,,,,,,,,,,,,,,,,,,,0,0,0,0,0,3,3,3,,,,,,,,,,,,,963.4098303136416,,,,,AMP_prac,right,0.9004649792332202,,,,,,,,,,,,,,,,,,,,,1,,,right,0.11632084532175213,,,,,,,,,,,,,,1011,2019_May_10_1256,mf_amp_cond1,3.0.7,60.01231815654939,
protect,,&&&&&&&,images/symbols/symbol_48.png,condition_files/AMP_rep1.csv,left,fairness.virtue,,,,,,,,,,,,,,,,,,,,,0,0,0,0,0,4,4,4,,,,,,,,,,,,,964.1933538551675,,,,,AMP_prac,right,0.9004649792332202,,,,,,,,,,,,,,,,,,,,,1,,,right,0.566071453737095,,,,,,,,,,,,,,1011,2019_May_10_1256,mf_amp_cond1,3.0.7,60.01231815654939,
spraize,,&&&&&&&,images/symbols/symbol_77.png,condition_files/AMP_rep1.csv,None,nonword,,,,,,,,,,,,,,,,,,,,,0,0,0,0,0,5,5,5,,,,,,,,,,,,,964.6768149845302,,,,,AMP_prac,right,0.9004649792332202,,,,,,,,,,,,,,,,,,,,,1,,,right,0.26606869557872415,,,,,,,,,,,,,,1011,2019_May_10_1256,mf_amp_cond1,3.0.7,60.01231815654939,
sharing,,&&&&&&&,images/symbols/symbol_33.png,condition_files/AMP_rep1.csv,left,loyalty.virtue,,,,,,,,,,,,,,,,,,,,,0,0,0,0,0,6,6,6,,,,,,,,,,,,,965.043571688002,,,,,AMP_prac,right,0.9004649792332202,,,,,,,,,,,,,,,,,,,,,1,,,right,0.14948582230135798,,,,,,,,,,,,,,1011,2019_May_10_1256,mf_amp_cond1,3.0.7,60.01231815654939,
protesters,,&&&&&&&&&&,images/symbols/symbol_25.png,condition_files/AMP_rep1.csv,right,authority.vice,,,,,,,,,,,,,,,,,,,,,0,0,0,0,0,7,7,7,,,,,,,,,,,,,965.3436498153023,,,,,AMP_prac,right,0.9004649792332202,,,,,,,,,,,,,,,,,,,,,1,,,right,0.08258755318820477,,,,,,,,,,,,,,1011,2019_May_10_1256,mf_amp_cond1,3.0.7,60.01231815654939,
slavery,,&&&&&&&,images/symbols/symbol_46.png,condition_files/AMP_rep1.csv,right,loyalty.vice,,,,,,,,,,,,,,,,,,,,,0,0,0,0,0,8,8,8,,,,,,,,,,,,,965.6603880451294,,,,,AMP_prac,right,0.9004649792332202,,,,,,,,,,,,,,,,,,,,,1,,,right,0.09926305047702044,,,,,,,,,,,,,,1011,2019_May_10_1256,mf_amp_cond1,3.0.7,60.01231815654939,
hand,,&&&&,images/symbols/symbol_73.png,condition_files/AMP_rep1.csv,left,sanctity.virtue,,,,,,,,,,,,,,,,,,,,,0,0,0,0,0,9,9,9,,,,,,,,,,,,,965.9937879812205,,,,,AMP_prac,right,0.9004649792332202,,,,,,,,,,,,,,,,,,,,,1,,,right,0.10024669754784554,,,,,,,,,,,,,,1011,2019_May_10_1256,mf_amp_cond1,3.0.7,60.01231815654939,
army,,&&&&,images/symbols/symbol_52.png,condition_files/AMP_rep1.csv,right,loyalty.vice,,,,,,,,,,,,,,,,,,,,,0,0,0,0,0,10,10,10,,,,,,,,,,,,,966.3272132542916,,,,,AMP_prac,right,0.9004649792332202,,,,,,,,,,,,,,,,,,,,,1,,,right,0.1156104514375329,,,,,,,,,,,,,,1011,2019_May_10_1256,mf_amp_cond1,3.0.7,60.01231815654939,
values,,&&&&&&,images/symbols/symbol_5.png,condition_files/AMP_rep1.csv,left,sanctity.virtue,,,,,,,,,,,,,,,,,,,,,0,0,0,0,0,11,11,11,,,,,,,,,,,,,966.6273019652581,,,,,AMP_prac,right,0.9004649792332202,,,,,,,,,,,,,,,,,,,,,1,,,right,0.08267061971127987,,,,,,,,,,,,,,1011,2019_May_10_1256,mf_amp_cond1,3.0.7,60.01231815654939,
squintce,,&&&&&&&&,images/symbols/symbol_49.png,condition_files/AMP_rep1.csv,None,nonword,,,,,,,,,,,,,,,,,,,,,0,0,0,0,0,12,12,12,,,,,,,,,,,,,966.8940364748705,,,,,AMP_prac,right,0.9004649792332202,,,,,,,,,,,,,,,,,,,,,1,,,right,0.033565555699169636,,,,,,,,,,,,,,1011,2019_May_10_1256,mf_amp_cond1,3.0.7,60.01231815654939,
violations,,&&&&&&&&&&,images/symbols/symbol_50.png,condition_files/AMP_rep1.csv,right,sanctity.vice,,,,,,,,,,,,,,,,,,,,,0,0,0,0,0,13,13,13,,,,,,,,,,,,,967.127416782896,,,,,AMP_prac,right,0.9004649792332202,,,,,,,,,,,,,,,,,,,,,1,,,right,0.015331040369346738,,,,,,,,,,,,,,1011,2019_May_10_1256,mf_amp_cond1,3.0.7,60.01231815654939,
restore,,&&&&&&&,images/symbols/symbol_43.png,condition_files/AMP_rep1.csv,left,care.virtue,,,,,,,,,,,,,,,,,,,,,0,0,0,0,0,14,14,14,,,,,,,,,,,,,967.660878425464,,,,,AMP_prac,right,0.9004649792332202,,,,,,,,,,,,,,,,,,,,,1,,,right,0.3160939041990787,,,,,,,,,,,,,,1011,2019_May_10_1256,mf_amp_cond1,3.0.7,60.01231815654939,
integrity,,&&&&&&&&&,images/symbols/symbol_11.png,condition_files/AMP_rep1.csv,left,fairness.virtue,,,,,,,,,,,,,,,,,,,,,0,0,0,0,0,15,15,15,,,,,,,,,,,,,967.9942918318557,,,,,AMP_prac,right,0.9004649792332202,,,,,,,,,,,,,,,,,,,,,1,,,right,0.11600654013454914,,,,,,,,,,,,,,1011,2019_May_10_1256,mf_amp_cond1,3.0.7,60.01231815654939,
ban,,&&&,images/symbols/symbol_10.png,condition_files/AMP_rep1.csv,right,loyalty.vice,,,,,,,,,,,,,,,,,,,,,0,0,0,0,0,16,16,16,,,,,,,,,,,,,968.5611086380668,,,,,AMP_prac,right,0.9004649792332202,,,,,,,,,,,,,,,,,,,,,1,,,right,0.3495087216142565,,,,,,,,,,,,,,1011,2019_May_10_1256,mf_amp_cond1,3.0.7,60.01231815654939,
failure,,&&&&&&&,images/symbols/symbol_79.png,condition_files/AMP_rep1.csv,right,loyalty.vice,,,,,,,,,,,,,,,,,,,,,0,0,0,0,0,17,17,17,,,,,,,,,,,,,969.1279007488629,,,,,AMP_prac,right,0.9004649792332202,,,,,,,,,,,,,,,,,,,,,1,,,right,0.3492749170400202,,,,,,,,,,,,,,1011,2019_May_10_1256,mf_amp_cond1,3.0.7,60.01231815654939,
critics,,&&&&&&&,images/symbols/symbol_53.png,condition_files/AMP_rep1.csv,right,loyalty.vice,,,,,,,,,,,,,,,,,,,,,0,0,0,0,0,18,18,18,,,,,,,,,,,,,969.7613964518532,,,,,AMP_prac,right,0.9004649792332202,,,,,,,,,,,,,,,,,,,,,1,,,right,0.4161366239422932,,,,,,,,,,,,,,1011,2019_May_10_1256,mf_amp_cond1,3.0.7,60.01231815654939,
abuse,,&&&&&,images/symbols/symbol_68.png,condition_files/AMP_rep1.csv,right,sanctity.vice,,,,,,,,,,,,,,,,,,,,,0,0,0,0,0,19,19,19,,,,,,,,,,,,,970.5282598907361,,,,,AMP_prac,right,0.9004649792332202,,,,,,,,,,,,,,,,,,,,,1,,,right,0.5336954471422359,,,,,,,,,,,,,,1011,2019_May_10_1256,mf_amp_cond1,3.0.7,60.01231815654939,
hate,,&&&&,images/symbols/symbol_44.png,condition_files/AMP_rep1.csv,right,fairness.vice,,,,,,,,,,,,,,,,,,,,,0,0,0,0,0,20,20,20,,,,,,,,,,,,,971.261686382466,,,,,AMP_prac,right,0.9004649792332202,,,,,,,,,,,,,,,,,,,,,1,,,right,0.5150767096783966,,,,,,,,,,,,,,1011,2019_May_10_1256,mf_amp_cond1,3.0.7,60.01231815654939,
win,,&&&,images/symbols/symbol_62.png,condition_files/AMP_rep1.csv,left,fairness.virtue,,,,,,,,,,,,,,,,,,,,,0,0,0,0,0,21,21,21,,,,,,,,,,,,,971.9452679100214,,,,,AMP_prac,right,0.9004649792332202,,,,,,,,,,,,,,,,,,,,,1,,,right,0.4656554162502289,,,,,,,,,,,,,,1011,2019_May_10_1256,mf_amp_cond1,3.0.7,60.01231815654939,
serial,,&&&&&&,images/symbols/symbol_26.png,condition_files/AMP_rep1.csv,right,sanctity.vice,,,,,,,,,,,,,,,,,,,,,0,0,0,0,0,22,22,22,,,,,,,,,,,,,972.5620874743909,,,,,AMP_prac,right,0.9004649792332202,,,,,,,,,,,,,,,,,,,,,1,,,right,0.39902847597841173,,,,,,,,,,,,,,1011,2019_May_10_1256,mf_amp_cond1,3.0.7,60.01231815654939,
agreement,,&&&&&&&&&,images/symbols/symbol_51.png,condition_files/AMP_rep1.csv,left,fairness.virtue,,,,,,,,,,,,,,,,,,,,,0,0,0,0,0,23,23,23,,,,,,,,,,,,,973.1455631003482,,,,,AMP_prac,right,0.9004649792332202,,,,,,,,,,,,,,,,,,,,,1,,,right,0.3664026288315654,,,,,,,,,,,,,,1011,2019_May_10_1256,mf_amp_cond1,3.0.7,60.01231815654939,
prison,,&&&&&&,images/symbols/symbol_28.png,condition_files/AMP_rep1.csv,right,fairness.vice,,,,,,,,,,,,,,,,,,,,,0,0,0,0,0,24,24,24,,,,,,,,,,,,,973.6456814459525,,,,,AMP_prac,right,0.9004649792332202,,,,,,,,,,,,,,,,,,,,,1,,,right,0.28263675165362656,,,,,,,,,,,,,,1011,2019_May_10_1256,mf_amp_cond1,3.0.7,60.01231815654939,
loyalty,,&&&&&&&,images/symbols/symbol_56.png,condition_files/AMP_rep1.csv,left,loyalty.virtue,,,,,,,,,,,,,,,,,,,,,0,0,0,0,0,25,25,25,,,,,,,,,,,,,974.112471889006,,,,,AMP_prac,right,0.9004649792332202,,,,,,,,,,,,,,,,,,,,,1,,,right,0.24916067661251873,,,,,,,,,,,,,,1011,2019_May_10_1256,mf_amp_cond1,3.0.7,60.01231815654939,
coacs,,&&&&&,images/symbols/symbol_12.png,condition_files/AMP_rep1.csv,None,nonword,,,,,,,,,,,,,,,,,,,,,0,0,0,0,0,26,26,26,,,,,,,,,,,,,974.6292692596326,,,,,AMP_prac,right,0.9004649792332202,,,,,,,,,,,,,,,,,,,,,1,,,right,0.2836402833927423,,,,,,,,,,,,,,1011,2019_May_10_1256,mf_amp_cond1,3.0.7,60.01231815654939,
interests,,&&&&&&&&&,images/symbols/symbol_75.png,condition_files/AMP_rep1.csv,left,fairness.virtue,,,,,,,,,,,,,,,,,,,,,0,0,0,0,0,27,27,27,,,,,,,,,,,,,975.0960420630872,,,,,AMP_prac,right,0.9004649792332202,,,,,,,,,,,,,,,,,,,,,1,,,right,0.2482046113582328,,,,,,,,,,,,,,1011,2019_May_10_1256,mf_amp_cond1,3.0.7,60.01231815654939,
perfect,,&&&&&&&,images/symbols/symbol_42.png,condition_files/AMP_rep1.csv,left,sanctity.virtue,,,,,,,,,,,,,,,,,,,,,0,0,0,0,0,28,28,28,,,,,,,,,,,,,975.5128198056482,,,,,AMP_prac,right,0.9004649792332202,,,,,,,,,,,,,,,,,,,,,1,,,right,0.1992769055068493,,,,,,,,,,,,,,1011,2019_May_10_1256,mf_amp_cond1,3.0.7,60.01231815654939,
peaceful,,&&&&&&&&,images/symbols/symbol_35.png,condition_files/AMP_rep1.csv,left,authority.virtue,,,,,,,,,,,,,,,,,,,,,0,0,0,0,0,29,29,29,,,,,,,,,,,,,975.9129153159447,,,,,AMP_prac,right,0.9004649792332202,,,,,,,,,,,,,,,,,,,,,1,,,right,0.18259050394408405,,,,,,,,,,,,,,1011,2019_May_10_1256,mf_amp_cond1,3.0.7,60.01231815654939,
safe,,&&&&,images/symbols/symbol_66.png,condition_files/AMP_rep1.csv,left,care.virtue,,,,,,,,,,,,,,,,,,,,,0,0,0,0,0,30,30,30,,,,,,,,,,,,,976.2130101206712,,,,,AMP_prac,right,0.9004649792332202,,,,,,,,,,,,,,,,,,,,,1,,,right,0.08262571890372783,,,,,,,,,,,,,,1011,2019_May_10_1256,mf_amp_cond1,3.0.7,60.01231815654939,
rebels,,&&&&&&,images/symbols/symbol_30.png,condition_files/AMP_rep1.csv,right,authority.vice,,,,,,,,,,,,,,,,,,,,,0,0,0,0,0,31,31,31,,,,,,,,,,,,,976.513065797626,,,,,AMP_prac,right,0.9004649792332202,,,,,,,,,,,,,,,,,,,,,1,,,right,0.08275368600152433,,,,,,,,,,,,,,1011,2019_May_10_1256,mf_amp_cond1,3.0.7,60.01231815654939,
suicide,,&&&&&&&,images/symbols/symbol_81.png,condition_files/AMP_rep1.csv,right,care.vice,,,,,,,,,,,,,,,,,,,,,0,0,0,0,0,32,32,32,,,,,,,,,,,,,976.813167978893,,,,,AMP_prac,right,0.9004649792332202,,,,,,,,,,,,,,,,,,,,,1,,,right,0.08258466678671539,,,,,,,,,,,,,,1011,2019_May_10_1256,mf_amp_cond1,3.0.7,60.01231815654939,
friends,,&&&&&&&,images/symbols/symbol_36.png,condition_files/AMP_rep1.csv,left,loyalty.virtue,,,,,,,,,,,,,,,,,,,,,0,0,0,0,0,33,33,33,,,,,,,,,,,,,977.1965722767636,,,,,AMP_prac,right,0.9004649792332202,,,,,,,,,,,,,,,,,,,,,1,,,right,0.16599999752361327,,,,,,,,,,,,,,1011,2019_May_10_1256,mf_amp_cond1,3.0.7,60.01231815654939,
officers,,&&&&&&&&,images/symbols/symbol_71.png,condition_files/AMP_rep1.csv,right,authority.vice,,,,,,,,,,,,,,,,,,,,,0,0,0,0,0,34,34,34,,,,,,,,,,,,,977.7300246184459,,,,,AMP_prac,right,0.9004649792332202,,,,,,,,,,,,,,,,,,,,,1,,,right,0.31595984334126115,,,,,,,,,,,,,,1011,2019_May_10_1256,mf_amp_cond1,3.0.7,60.01231815654939,
embrace,,&&&&&&&,images/symbols/symbol_69.png,condition_files/AMP_rep1.csv,left,authority.virtue,,,,,,,,,,,,,,,,,,,,,0,0,0,0,0,35,35,35,,,,,,,,,,,,,978.2801617581863,,,,,AMP_prac,right,0.9004649792332202,,,,,,,,,,,,,,,,,,,,,1,,,right,0.33253142738249153,,,,,,,,,,,,,,1011,2019_May_10_1256,mf_amp_cond1,3.0.7,60.01231815654939,
penalty,,&&&&&&&,images/symbols/symbol_39.png,condition_files/AMP_rep1.csv,right,authority.vice,,,,,,,,,,,,,,,,,,,,,0,0,0,0,0,36,36,36,,,,,,,,,,,,,978.6469226309564,,,,,AMP_prac,right,0.9004649792332202,,,,,,,,,,,,,,,,,,,,,1,,,right,0.1485858829692006,,,,,,,,,,,,,,1011,2019_May_10_1256,mf_amp_cond1,3.0.7,60.01231815654939,
great,,&&&&&,images/symbols/symbol_41.png,condition_files/AMP_rep1.csv,left,loyalty.virtue,,,,,,,,,,,,,,,,,,,,,0,0,0,0,0,37,37,37,,,,,,,,,,,,,979.0303599629551,,,,,AMP_prac,right,0.9004649792332202,,,,,,,,,,,,,,,,,,,,,1,,,right,0.16647273814305663,,,,,,,,,,,,,,1011,2019_May_10_1256,mf_amp_cond1,3.0.7,60.01231815654939,
war,,&&&,images/symbols/symbol_61.png,condition_files/AMP_rep1.csv,right,sanctity.vice,,,,,,,,,,,,,,,,,,,,,0,0,0,0,0,38,38,38,,,,,,,,,,,,,979.380439565517,,,,,AMP_prac,right,0.9004649792332202,,,,,,,,,,,,,,,,,,,,,1,,,right,0.13265573827084154,,,,,,,,,,,,,,1011,2019_May_10_1256,mf_amp_cond1,3.0.7,60.01231815654939,
health,,&&&&&&,images/symbols/symbol_57.png,condition_files/AMP_rep1.csv,left,care.virtue,,,,,,,,,,,,,,,,,,,,,0,0,0,0,0,39,39,39,,,,,,,,,,,,,979.7305146780564,,,,,AMP_prac,right,0.9004649792332202,,,,,,,,,,,,,,,,,,,,,1,,,right,0.1326919796410948,,,,,,,,,,,,,,1011,2019_May_10_1256,mf_amp_cond1,3.0.7,60.01231815654939,
pleasant,,&&&&&&&,images/symbols/symbol_64.png,condition_files/AMP_rep1.csv,right,control,,,,,,,,,,,,,,,,,,,,,0,0,0,0,0,40,40,40,,,,,,,,,,,,,980.0639322537463,,,,,AMP_prac,right,0.9004649792332202,,,,,,,,,,,,,,,,,,,,,1,,,right,0.11587408289778978,,,,,,,,,,,,,,1011,2019_May_10_1256,mf_amp_cond1,3.0.7,60.01231815654939,
energy,,&&&&&&,images/symbols/symbol_2.png,condition_files/AMP_rep1.csv,left,sanctity.virtue,,,,,,,,,,,,,,,,,,,,,0,0,0,0,0,41,41,41,,,,,,,,,,,,,980.4307030688506,,,,,AMP_prac,right,0.9004649792332202,,,,,,,,,,,,,,,,,,,,,1,,,right,0.14935753447934985,,,,,,,,,,,,,,1011,2019_May_10_1256,mf_amp_cond1,3.0.7,60.01231815654939,
killed,,&&&&&&,images/symbols/symbol_63.png,condition_files/AMP_rep1.csv,right,care.vice,,,,,,,,,,,,,,,,,,,,,0,0,0,0,0,42,42,42,,,,,,,,,,,,,980.7641078156885,,,,,AMP_prac,right,0.9004649792332202,,,,,,,,,,,,,,,,,,,,,1,,,right,0.11598056182265282,,,,,,,,,,,,,,1011,2019_May_10_1256,mf_amp_cond1,3.0.7,60.01231815654939,
torture,,&&&&&&&,images/symbols/symbol_74.png,condition_files/AMP_rep1.csv,right,care.vice,,,,,,,,,,,,,,,,,,,,,0,0,0,0,0,43,43,43,,,,,,,,,,,,,981.0642170528881,,,,,AMP_prac,right,0.9004649792332202,,,,,,,,,,,,,,,,,,,,,1,,,right,0.06693002034444362,,,,,,,,,,,,,,1011,2019_May_10_1256,mf_amp_cond1,3.0.7,60.01231815654939,
party,,&&&&&,images/symbols/symbol_21.png,condition_files/AMP_rep1.csv,left,loyalty.virtue,,,,,,,,,,,,,,,,,,,,,0,0,0,0,0,44,44,44,,,,,,,,,,,,,981.364253486623,,,,,AMP_prac,right,0.9004649792332202,,,,,,,,,,,,,,,,,,,,,1,,,right,0.08182840992230922,,,,,,,,,,,,,,1011,2019_May_10_1256,mf_amp_cond1,3.0.7,60.01231815654939,
honored,,&&&&&&&,images/symbols/symbol_7.png,condition_files/AMP_rep1.csv,left,authority.virtue,,,,,,,,,,,,,,,,,,,,,0,0,0,0,0,45,45,45,,,,,,,,,,,,,981.6476573996479,,,,,AMP_prac,right,0.9004649792332202,,,,,,,,,,,,,,,,,,,,,1,,,right,0.06604932411573827,,,,,,,,,,,,,,1011,2019_May_10_1256,mf_amp_cond1,3.0.7,60.01231815654939,
slypped,,&&&&&&&,images/symbols/symbol_14.png,condition_files/AMP_rep1.csv,None,nonword,,,,,,,,,,,,,,,,,,,,,0,0,0,0,0,46,46,46,,,,,,,,,,,,,981.9977437373018,,,,,AMP_prac,right,0.9004649792332202,,,,,,,,,,,,,,,,,,,,,1,,,right,0.132544448482804,,,,,,,,,,,,,,1011,2019_May_10_1256,mf_amp_cond1,3.0.7,60.01231815654939,
safety,,&&&&&&,images/symbols/symbol_24.png,condition_files/AMP_rep1.csv,left,care.virtue,,,,,,,,,,,,,,,,,,,,,0,0,0,0,0,47,47,47,,,,,,,,,,,,,982.2811697800644,,,,,AMP_prac,right,0.9004649792332202,,,,,,,,,,,,,,,,,,,,,1,,,right,0.050256768125109375,,,,,,,,,,,,,,1011,2019_May_10_1256,mf_amp_cond1,3.0.7,60.01231815654939,
sexual,,&&&&&&,images/symbols/symbol_4.png,condition_files/AMP_rep1.csv,right,sanctity.vice,,,,,,,,,,,,,,,,,,,,,0,0,0,0,0,48,48,48,,,,,,,,,,,,,982.6145764512476,,,,,AMP_prac,right,0.9004649792332202,,,,,,,,,,,,,,,,,,,,,1,,,right,0.11481955670751631,,,,,,,,,,,,,,1011,2019_May_10_1256,mf_amp_cond1,3.0.7,60.01231815654939,
strength,,&&&&&&&&,images/symbols/symbol_16.png,condition_files/AMP_rep1.csv,left,sanctity.virtue,,,,,,,,,,,,,,,,,,,,,0,0,0,0,0,49,49,49,,,,,,,,,,,,,983.7648746564519,,,,,AMP_prac,right,0.9004649792332202,,,,,,,,,,,,,,,,,,,,,1,,,right,0.9329651043517515,,,,,,,,,,,,,,1011,2019_May_10_1256,mf_amp_cond1,3.0.7,60.01231815654939,
progress,,&&&&&&&&,images/symbols/symbol_22.png,condition_files/AMP_rep1.csv,left,authority.virtue,,,,,,,,,,,,,,,,,,,,,0,0,0,0,0,50,50,50,,,,,,,,,,,,,984.2316294995835,,,,,AMP_prac,right,0.9004649792332202,,,,,,,,,,,,,,,,,,,,,1,,,right,0.24932905449531972,,,,,,,,,,,,,,1011,2019_May_10_1256,mf_amp_cond1,3.0.7,60.01231815654939,
fear,,&&&&,images/symbols/symbol_17.png,condition_files/AMP_rep1.csv,right,sanctity.vice,,,,,,,,,,,,,,,,,,,,,0,0,0,0,0,51,51,51,,,,,,,,,,,,,984.765123214107,,,,,AMP_prac,right,0.9004649792332202,,,,,,,,,,,,,,,,,,,,,1,,,right,0.3160275152185932,,,,,,,,,,,,,,1011,2019_May_10_1256,mf_amp_cond1,3.0.7,60.01231815654939,
civilians,,&&&&&&&&&,images/symbols/symbol_13.png,condition_files/AMP_rep1.csv,right,care.vice,,,,,,,,,,,,,,,,,,,,,0,0,0,0,0,52,52,52,,,,,,,,,,,,,985.1318488076795,,,,,AMP_prac,right,0.9004649792332202,,,,,,,,,,,,,,,,,,,,,1,,,right,0.14924047177191824,,,,,,,,,,,,,,1011,2019_May_10_1256,mf_amp_cond1,3.0.7,60.01231815654939,
benefit,,&&&&&&&,images/symbols/symbol_72.png,condition_files/AMP_rep1.csv,left,fairness.virtue,,,,,,,,,,,,,,,,,,,,,0,0,0,0,0,53,53,53,,,,,,,,,,,,,985.5319468837697,,,,,AMP_prac,right,0.9004649792332202,,,,,,,,,,,,,,,,,,,,,1,,,right,0.16693200869485736,,,,,,,,,,,,,,1011,2019_May_10_1256,mf_amp_cond1,3.0.7,60.01231815654939,
intelligence,,&&&&&&&&&&&&,images/symbols/symbol_15.png,condition_files/AMP_rep1.csv,left,loyalty.virtue,,,,,,,,,,,,,,,,,,,,,0,0,0,0,0,54,54,54,,,,,,,,,,,,,985.8487191098975,,,,,AMP_prac,right,0.9004649792332202,,,,,,,,,,,,,,,,,,,,,1,,,right,0.09869441436603665,,,,,,,,,,,,,,1011,2019_May_10_1256,mf_amp_cond1,3.0.7,60.01231815654939,
stryct,,&&&&&&,images/symbols/symbol_6.png,condition_files/AMP_rep1.csv,None,nonword,,,,,,,,,,,,,,,,,,,,,0,0,0,0,0,55,55,55,,,,,,,,,,,,,986.1821283468744,,,,,AMP_prac,right,0.9004649792332202,,,,,,,,,,,,,,,,,,,,,1,,,right,0.11587761086411774,,,,,,,,,,,,,,1011,2019_May_10_1256,mf_amp_cond1,3.0.7,60.01231815654939,
phluks,,&&&&&&,images/symbols/symbol_19.png,condition_files/AMP_rep1.csv,None,nonword,,,,,,,,,,,,,,,,,,,,,0,0,0,0,0,56,56,56,,,,,,,,,,,,,986.498855672311,,,,,AMP_prac,right,0.9004649792332202,,,,,,,,,,,,,,,,,,,,,1,,,right,0.0992765206610784,,,,,,,,,,,,,,1011,2019_May_10_1256,mf_amp_cond1,3.0.7,60.01231815654939,
unpleasant,,&&&&&&&&&,images/symbols/symbol_8.png,condition_files/AMP_rep1.csv,left,control,,,,,,,,,,,,,,,,,,,,,0,0,0,0,0,57,57,57,,,,,,,,,,,,,986.8322761345189,,,,,AMP_prac,right,0.9004649792332202,,,,,,,,,,,,,,,,,,,,,1,,,right,0.11597190238535404,,,,,,,,,,,,,,1011,2019_May_10_1256,mf_amp_cond1,3.0.7,60.01231815654939,
shypse,,&&&&&&,images/symbols/symbol_67.png,condition_files/AMP_rep1.csv,None,nonword,,,,,,,,,,,,,,,,,,,,,0,0,0,0,0,58,58,58,,,,,,,,,,,,,987.1490473985905,,,,,AMP_prac,right,0.9004649792332202,,,,,,,,,,,,,,,,,,,,,1,,,right,0.09900679544080049,,,,,,,,,,,,,,1011,2019_May_10_1256,mf_amp_cond1,3.0.7,60.01231815654939,
victims,,&&&&&&&,images/symbols/symbol_55.png,condition_files/AMP_rep1.csv,right,care.vice,,,,,,,,,,,,,,,,,,,,,0,0,0,0,0,59,59,59,,,,,,,,,,,,,987.599151760689,,,,,AMP_prac,right,0.9004649792332202,,,,,,,,,,,,,,,,,,,,,1,,,right,0.2321760058403015,,,,,,,,,,,,,,1011,2019_May_10_1256,mf_amp_cond1,3.0.7,60.01231815654939,
peace,,&&&&&,images/symbols/symbol_29.png,condition_files/AMP_rep1.csv,left,care.virtue,,,,,,,,,,,,,,,,,,,,,0,0,0,0,0,60,60,60,,,,,,,,,,,,,988.81609903567,,,,,AMP_prac,right,0.9004649792332202,,,,,,,,,,,,,,,,,,,,,1,,,right,0.9990493869408965,,,,,,,,,,,,,,1011,2019_May_10_1256,mf_amp_cond1,3.0.7,60.01231815654939,
blamed,,&&&&&&,images/symbols/symbol_60.png,condition_files/AMP_rep1.csv,right,loyalty.vice,,,,,,,,,,,,,,,,,,,,,0,0,0,0,0,61,61,61,,,,,,,,,,,,,990.0997941622045,,,,,AMP_prac,right,0.9004649792332202,,,,,,,,,,,,,,,,,,,,,1,,,right,1.0660923005780205,,,,,,,,,,,,,,1011,2019_May_10_1256,mf_amp_cond1,3.0.7,60.01231815654939,
riot,,&&&&,images/symbols/symbol_31.png,condition_files/AMP_rep1.csv,right,authority.vice,,,,,,,,,,,,,,,,,,,,,0,0,0,0,0,62,62,62,,,,,,,,,,,,,990.7166159716435,,,,,AMP_prac,right,0.9004649792332202,,,,,,,,,,,,,,,,,,,,,1,,,right,0.39984823553822935,,,,,,,,,,,,,,1011,2019_May_10_1256,mf_amp_cond1,3.0.7,60.01231815654939,
crime,,&&&&&,images/symbols/symbol_59.png,condition_files/AMP_rep1.csv,right,fairness.vice,,,,,,,,,,,,,,,,,,,,,0,0,0,0,0,63,63,63,,,,,,,,,,,,,991.1500150096836,,,,,AMP_prac,right,0.9004649792332202,,,,,,,,,,,,,,,,,,,,,1,,,right,0.21565317118074745,,,,,,,,,,,,,,1011,2019_May_10_1256,mf_amp_cond1,3.0.7,60.01231815654939,
injured,,&&&&&&&,images/symbols/symbol_32.png,condition_files/AMP_rep1.csv,right,care.vice,,,,,,,,,,,,,,,,,,,,,0,0,0,0,0,64,64,64,,,,,,,,,,,,,991.5168403470889,,,,,AMP_prac,right,0.9004649792332202,,,,,,,,,,,,,,,,,,,,,1,,,right,0.14928505173884332,,,,,,,,,,,,,,1011,2019_May_10_1256,mf_amp_cond1,3.0.7,60.01231815654939,
ensure,,&&&&&&,images/symbols/symbol_1.png,condition_files/AMP_rep1.csv,left,fairness.virtue,,,,,,,,,,,,,,,,,,,,,0,0,0,0,0,65,65,65,,,,,,,,,,,,,991.8668564471882,,,,,AMP_prac,right,0.9004649792332202,,,,,,,,,,,,,,,,,,,,,1,,,right,0.13242385792545974,,,,,,,,,,,,,,1011,2019_May_10_1256,mf_amp_cond1,3.0.7,60.01231815654939,
terrorist,,&&&&&&&&&,images/symbols/symbol_18.png,condition_files/AMP_rep1.csv,right,loyalty.vice,,,,,,,,,,,,,,,,,,,,,0,0,0,0,0,66,66,66,,,,,,,,,,,,,992.2002637599362,,,,,AMP_prac,right,0.9004649792332202,,,,,,,,,,,,,,,,,,,,,1,,,right,0.11593630257993937,,,,,,,,,,,,,,1011,2019_May_10_1256,mf_amp_cond1,3.0.7,60.01231815654939,
faith,,&&&&&,images/symbols/symbol_76.png,condition_files/AMP_rep1.csv,left,sanctity.virtue,,,,,,,,,,,,,,,,,,,,,0,0,0,0,0,67,67,67,,,,,,,,,,,,,992.5003649790306,,,,,AMP_prac,right,0.9004649792332202,,,,,,,,,,,,,,,,,,,,,1,,,right,0.08287010726053268,,,,,,,,,,,,,,1011,2019_May_10_1256,mf_amp_cond1,3.0.7,60.01231815654939,
respect,,&&&&&&&,images/symbols/symbol_78.png,condition_files/AMP_rep1.csv,left,sanctity.virtue,,,,,,,,,,,,,,,,,,,,,0,0,0,0,0,68,68,68,,,,,,,,,,,,,992.8170817206847,,,,,AMP_prac,right,0.9004649792332202,,,,,,,,,,,,,,,,,,,,,1,,,right,0.0989493866218254,,,,,,,,,,,,,,1011,2019_May_10_1256,mf_amp_cond1,3.0.7,60.01231815654939,
refused,,&&&&&&&,images/symbols/symbol_38.png,condition_files/AMP_rep1.csv,right,authority.vice,,,,,,,,,,,,,,,,,,,,,0,0,0,0,0,69,69,69,,,,,,,,,,,,,993.1338250820991,,,,,AMP_prac,right,0.9004649792332202,,,,,,,,,,,,,,,,,,,,,1,,,right,0.09915913722943515,,,,,,,,,,,,,,1011,2019_May_10_1256,mf_amp_cond1,3.0.7,60.01231815654939,
celebrated,,&&&&&&&&&&,images/symbols/symbol_58.png,condition_files/AMP_rep1.csv,left,authority.virtue,,,,,,,,,,,,,,,,,,,,,0,0,0,0,0,70,70,70,,,,,,,,,,,,,993.483922644984,,,,,AMP_prac,right,0.9004649792332202,,,,,,,,,,,,,,,,,,,,,1,,,right,0.13241167063824832,,,,,,,,,,,,,,1011,2019_May_10_1256,mf_amp_cond1,3.0.7,60.01231815654939,
accused,,&&&&&&&,images/symbols/symbol_34.png,condition_files/AMP_rep1.csv,right,fairness.vice,,,,,,,,,,,,,,,,,,,,,0,0,0,0,0,71,71,71,,,,,,,,,,,,,993.8006490083644,,,,,AMP_prac,right,0.9004649792332202,,,,,,,,,,,,,,,,,,,,,1,,,right,0.09902635926846415,,,,,,,,,,,,,,1011,2019_May_10_1256,mf_amp_cond1,3.0.7,60.01231815654939,
thinx,,&&&&&,images/symbols/symbol_45.png,condition_files/AMP_rep1.csv,None,nonword,,,,,,,,,,,,,,,,,,,,,0,0,0,0,0,72,72,72,,,,,,,,,,,,,994.1007550382055,,,,,AMP_prac,right,0.9004649792332202,,,,,,,,,,,,,,,,,,,,,1,,,right,0.08243553212378174,,,,,,,,,,,,,,1011,2019_May_10_1256,mf_amp_cond1,3.0.7,60.01231815654939,
actively,,&&&&&&&&,images/symbols/symbol_70.png,condition_files/AMP_rep1.csv,left,authority.virtue,,,,,,,,,,,,,,,,,,,,,0,0,0,0,0,73,73,73,,,,,,,,,,,,,994.5841824921081,,,,,AMP_prac,right,0.9004649792332202,,,,,,,,,,,,,,,,,,,,,1,,,right,0.2658698493614793,,,,,,,,,,,,,,1011,2019_May_10_1256,mf_amp_cond1,3.0.7,60.01231815654939,
forced,,&&&&&&,images/symbols/symbol_23.png,condition_files/AMP_rep1.csv,right,fairness.vice,,,,,,,,,,,,,,,,,,,,,0,0,0,0,0,74,74,74,,,,,,,,,,,,,994.9509427233133,,,,,AMP_prac,right,0.9004649792332202,,,,,,,,,,,,,,,,,,,,,1,,,right,0.14914650085847825,,,,,,,,,,,,,,1011,2019_May_10_1256,mf_amp_cond1,3.0.7,60.01231815654939,
conspiracy,,&&&&&&&&&&,images/symbols/symbol_40.png,condition_files/AMP_rep1.csv,right,sanctity.vice,,,,,,,,,,,,,,,,,,,,,0,0,0,0,0,75,75,75,,,,,,,,,,,,,995.2676912163151,,,,,AMP_prac,right,0.9004649792332202,,,,,,,,,,,,,,,,,,,,,1,,,right,0.09914117690641433,,,,,,,,,,,,,,1011,2019_May_10_1256,mf_amp_cond1,3.0.7,60.01231815654939,
strong,,&&&&&&,images/symbols/symbol_37.png,condition_files/AMP_rep1.csv,left,loyalty.virtue,,,,,,,,,,,,,,,,,,,,,0,0,0,0,0,76,76,76,,,,,,,,,,,,,995.8678609410999,,,,,AMP_prac,right,0.9004649792332202,,,,,,,,,,,,,,,,,,,,,1,,,right,0.38246972078923136,,,,,,,,,,,,,,1011,2019_May_10_1256,mf_amp_cond1,3.0.7,60.01231815654939,
help,,&&&&,images/symbols/symbol_47.png,condition_files/AMP_rep1.csv,left,care.virtue,,,,,,,,,,,,,,,,,,,,,0,0,0,0,0,77,77,77,,,,,,,,,,,,,996.2179177727085,,,,,AMP_prac,right,0.9004649792332202,,,,,,,,,,,,,,,,,,,,,1,,,right,0.13239242741838098,,,,,,,,,,,,,,1011,2019_May_10_1256,mf_amp_cond1,3.0.7,60.01231815654939,
gun,,&&&,images/symbols/symbol_3.png,condition_files/AMP_rep1.csv,right,authority.vice,,,,,,,,,,,,,,,,,,,,,0,0,0,0,0,78,78,78,,,,,,,,,,,,,996.5346604926744,,,,,AMP_prac,right,0.9004649792332202,,,,,,,,,,,,,,,,,,,,,1,,,right,0.09917389031033963,,,,,,,,,,,,,,1011,2019_May_10_1256,mf_amp_cond1,3.0.7,60.01231815654939,
illegal,,&&&&&&&,images/symbols/symbol_54.png,condition_files/AMP_rep1.csv,right,fairness.vice,,,,,,,,,,,,,,,,,,,,,0,0,0,0,0,79,79,79,,,,,,,,,,,,,996.8847660735482,,,,,AMP_prac,right,0.9004649792332202,,,,,,,,,,,,,,,,,,,,,1,,,right,0.13217690377496183,,,,,,,,,,,,,,1011,2019_May_10_1256,mf_amp_cond1,3.0.7,60.01231815654939,
voter,,&&&&&,images/symbols/symbol_82.png,condition_files/AMP_rep1.csv,right,fairness.vice,,,,,,,,,,,,,,,,,,,,,0,0,0,0,0,80,80,80,,,,,,,,,,,,,997.2014959647786,,,,,AMP_prac,right,0.9004649792332202,,,,,,,,,,,,,,,,,,,,,1,,,right,0.09935702127404511,,,,,,,,,,,,,,1011,2019_May_10_1256,mf_amp_cond1,3.0.7,60.01231815654939,
spewd,,&&&&&,images/symbols/symbol_65.png,condition_files/AMP_rep1.csv,None,nonword,,,,,,,,,,,,,,,,,,,,,0,0,0,0,0,81,81,81,,,,,,,,,,,,,997.5849288067548,,,,,AMP_prac,right,0.9004649792332202,,,,,,,,,,,,,,,,,,,,,1,,,right,0.16558851418085396,,,,,,,,,,,,,,1011,2019_May_10_1256,mf_amp_cond1,3.0.7,60.01231815654939,
,,,,condition_files/AMP_rep1.csv,,,,,,,,,,,,,,,,,,,,,,,0,0,0,0,,,,,,,,,,,,,,,,,,,,,,,,,,,,,,,,,,,,,,,,,,,,,,,,,,right,0.2669336765538901,,,,,,,,,,,,1011,2019_May_10_1256,mf_amp_cond1,3.0.7,60.01231815654939,
noost,,&&&&&,images/symbols/symbol_9.png,condition_files/AMP_rep4.csv,None,nonword,,,,,,,,,,,,,,,,,,,,,0,1,1,3,0,0,0,0,,,,,,,,,,,,,998.2352032786002,,,,,AMP_prac,right,0.9004649792332202,,,,,,,,,,,,,,,,,,,,,1,,,right,0.1490371354157105,,,,,,,,,,,,,,1011,2019_May_10_1256,mf_amp_cond1,3.0.7,60.01231815654939,
improve,,&&&&&&&,images/symbols/symbol_27.png,condition_files/AMP_rep4.csv,left,care.virtue,,,,,,,,,,,,,,,,,,,,,0,1,1,3,0,1,1,1,,,,,,,,,,,,,998.6018518994097,,,,,AMP_prac,right,0.9004649792332202,,,,,,,,,,,,,,,,,,,,,1,,,right,0.14907401823438704,,,,,,,,,,,,,,1011,2019_May_10_1256,mf_amp_cond1,3.0.7,60.01231815654939,
death,,&&&&&,images/symbols/symbol_80.png,condition_files/AMP_rep4.csv,right,care.vice,,,,,,,,,,,,,,,,,,,,,0,1,1,3,0,2,2,2,,,,,,,,,,,,,998.9852642152691,,,,,AMP_prac,right,0.9004649792332202,,,,,,,,,,,,,,,,,,,,,1,,,right,0.16621904901694506,,,,,,,,,,,,,,1011,2019_May_10_1256,mf_amp_cond1,3.0.7,60.01231815654939,
ability,,&&&&&&&,images/symbols/symbol_20.png,condition_files/AMP_rep4.csv,left,authority.virtue,,,,,,,,,,,,,,,,,,,,,0,1,1,3,0,3,3,3,,,,,,,,,,,,,999.3353511944879,,,,,AMP_prac,right,0.9004649792332202,,,,,,,,,,,,,,,,,,,,,1,,,right,0.13304124330170453,,,,,,,,,,,,,,1011,2019_May_10_1256,mf_amp_cond1,3.0.7,60.01231815654939,
protect,,&&&&&&&,images/symbols/symbol_48.png,condition_files/AMP_rep4.csv,left,fairness.virtue,,,,,,,,,,,,,,,,,,,,,0,1,1,3,0,4,4,4,,,,,,,,,,,,,999.635434132535,,,,,AMP_prac,right,0.9004649792332202,,,,,,,,,,,,,,,,,,,,,1,,,right,0.08258049737196416,,,,,,,,,,,,,,1011,2019_May_10_1256,mf_amp_cond1,3.0.7,60.01231815654939,
spraize,,&&&&&&&,images/symbols/symbol_77.png,condition_files/AMP_rep4.csv,None,nonword,,,,,,,,,,,,,,,,,,,,,0,1,1,3,0,5,5,5,,,,,,,,,,,,,999.8855152745964,,,,,AMP_prac,right,0.9004649792332202,,,,,,,,,,,,,,,,,,,,,1,,,right,0.032485692645423114,,,,,,,,,,,,,,1011,2019_May_10_1256,mf_amp_cond1,3.0.7,60.01231815654939,
sharing,,&&&&&&&,images/symbols/symbol_33.png,condition_files/AMP_rep4.csv,left,loyalty.virtue,,,,,,,,,,,,,,,,,,,,,0,1,1,3,0,6,6,6,,,,,,,,,,,,,1000.1190896180924,,,,,AMP_prac,right,0.9004649792332202,,,,,,,,,,,,,,,,,,,,,1,,,right,0.016169722191989422,,,,,,,,,,,,,,1011,2019_May_10_1256,mf_amp_cond1,3.0.7,60.01231815654939,
protesters,,&&&&&&&&&&,images/symbols/symbol_25.png,condition_files/AMP_rep4.csv,right,authority.vice,,,,,,,,,,,,,,,,,,,,,0,1,1,3,0,7,7,7,,,,,,,,,,,,,1000.3370862877928,,,,,AMP_prac,right,0.9004649792332202,,,,,,,,,,,,,,,,,,,,,1,,,right,0.000280950334854424,,,,,,,,,,,,,,1011,2019_May_10_1256,mf_amp_cond1,3.0.7,60.01231815654939,
slavery,,&&&&&&&,images/symbols/symbol_46.png,condition_files/AMP_rep4.csv,right,loyalty.vice,,,,,,,,,,,,,,,,,,,,,0,1,1,3,0,8,8,8,,,,,,,,,,,,,1000.5856606889283,,,,,AMP_prac,right,0.9004649792332202,,,,,,,,,,,,,,,,,,,,,1,,,right,0.03262456424999982,,,,,,,,,,,,,,1011,2019_May_10_1256,mf_amp_cond1,3.0.7,60.01231815654939,
hand,,&&&&,images/symbols/symbol_73.png,condition_files/AMP_rep4.csv,left,sanctity.virtue,,,,,,,,,,,,,,,,,,,,,0,1,1,3,0,9,9,9,,,,,,,,,,,,,1000.8524086687248,,,,,AMP_prac,right,0.9004649792332202,,,,,,,,,,,,,,,,,,,,,1,,,right,0.04921314644161612,,,,,,,,,,,,,,1011,2019_May_10_1256,mf_amp_cond1,3.0.7,60.01231815654939,
army,,&&&&,images/symbols/symbol_52.png,condition_files/AMP_rep4.csv,right,loyalty.vice,,,,,,,,,,,,,,,,,,,,,0,1,1,3,0,10,10,10,,,,,,,,,,,,,1001.3025082200766,,,,,AMP_prac,right,0.9004649792332202,,,,,,,,,,,,,,,,,,,,,1,,,right,0.23307466227561235,,,,,,,,,,,,,,1011,2019_May_10_1256,mf_amp_cond1,3.0.7,60.01231815654939,
values,,&&&&&&,images/symbols/symbol_5.png,condition_files/AMP_rep4.csv,left,sanctity.virtue,,,,,,,,,,,,,,,,,,,,,0,1,1,3,0,11,11,11,,,,,,,,,,,,,1001.7027073228965,,,,,AMP_prac,right,0.9004649792332202,,,,,,,,,,,,,,,,,,,,,1,,,right,0.18271782959345728,,,,,,,,,,,,,,1011,2019_May_10_1256,mf_amp_cond1,3.0.7,60.01231815654939,
squintce,,&&&&&&&&,images/symbols/symbol_49.png,condition_files/AMP_rep4.csv,None,nonword,,,,,,,,,,,,,,,,,,,,,0,1,1,3,0,12,12,12,,,,,,,,,,,,,1002.2194562647492,,,,,AMP_prac,right,0.9004649792332202,,,,,,,,,,,,,,,,,,,,,1,,,right,0.28366690315306187,,,,,,,,,,,,,,1011,2019_May_10_1256,mf_amp_cond1,3.0.7,60.01231815654939,
violations,,&&&&&&&&&&,images/symbols/symbol_50.png,condition_files/AMP_rep4.csv,right,sanctity.vice,,,,,,,,,,,,,,,,,,,,,0,1,1,3,0,13,13,13,,,,,,,,,,,,,1002.786211492843,,,,,AMP_prac,right,0.9004649792332202,,,,,,,,,,,,,,,,,,,,,1,,,right,0.34852731961291283,,,,,,,,,,,,,,1011,2019_May_10_1256,mf_amp_cond1,3.0.7,60.01231815654939,
restore,,&&&&&&&,images/symbols/symbol_43.png,condition_files/AMP_rep4.csv,left,care.virtue,,,,,,,,,,,,,,,,,,,,,0,1,1,3,0,14,14,14,,,,,,,,,,,,,1003.4697109161643,,,,,AMP_prac,right,0.9004649792332202,,,,,,,,,,,,,,,,,,,,,1,,,right,0.46606337162666023,,,,,,,,,,,,,,1011,2019_May_10_1256,mf_amp_cond1,3.0.7,60.01231815654939,
integrity,,&&&&&&&&&,images/symbols/symbol_11.png,condition_files/AMP_rep4.csv,left,fairness.virtue,,,,,,,,,,,,,,,,,,,,,0,1,1,3,0,15,15,15,,,,,,,,,,,,,1003.8864902623463,,,,,AMP_prac,right,0.9004649792332202,,,,,,,,,,,,,,,,,,,,,1,,,right,0.1993461810052395,,,,,,,,,,,,,,1011,2019_May_10_1256,mf_amp_cond1,3.0.7,60.01231815654939,
ban,,&&&,images/symbols/symbol_10.png,condition_files/AMP_rep4.csv,right,loyalty.vice,,,,,,,,,,,,,,,,,,,,,0,1,1,3,0,16,16,16,,,,,,,,,,,,,1004.419941641856,,,,,AMP_prac,right,0.9004649792332202,,,,,,,,,,,,,,,,,,,,,1,,,right,0.3160554178757593,,,,,,,,,,,,,,1011,2019_May_10_1256,mf_amp_cond1,3.0.7,60.01231815654939,
failure,,&&&&&&&,images/symbols/symbol_79.png,condition_files/AMP_rep4.csv,right,loyalty.vice,,,,,,,,,,,,,,,,,,,,,0,1,1,3,0,17,17,17,,,,,,,,,,,,,1005.1534739710623,,,,,AMP_prac,right,0.9004649792332202,,,,,,,,,,,,,,,,,,,,,1,,,right,0.5159641408827156,,,,,,,,,,,,,,1011,2019_May_10_1256,mf_amp_cond1,3.0.7,60.01231815654939,
critics,,&&&&&&&,images/symbols/symbol_53.png,condition_files/AMP_rep4.csv,right,loyalty.vice,,,,,,,,,,,,,,,,,,,,,0,1,1,3,0,18,18,18,,,,,,,,,,,,,1005.6702556264354,,,,,AMP_prac,right,0.9004649792332202,,,,,,,,,,,,,,,,,,,,,1,,,right,0.2992705552605912,,,,,,,,,,,,,,1011,2019_May_10_1256,mf_amp_cond1,3.0.7,60.01231815654939,
abuse,,&&&&&,images/symbols/symbol_68.png,condition_files/AMP_rep4.csv,right,sanctity.vice,,,,,,,,,,,,,,,,,,,,,0,1,1,3,0,19,19,19,,,,,,,,,,,,,1006.1537045685109,,,,,AMP_prac,right,0.9004649792332202,,,,,,,,,,,,,,,,,,,,,1,,,right,0.25029377918690443,,,,,,,,,,,,,,1011,2019_May_10_1256,mf_amp_cond1,3.0.7,60.01231815654939,
hate,,&&&&,images/symbols/symbol_44.png,condition_files/AMP_rep4.csv,right,fairness.vice,,,,,,,,,,,,,,,,,,,,,0,1,1,3,0,20,20,20,,,,,,,,,,,,,1006.5371300339466,,,,,AMP_prac,right,0.9004649792332202,,,,,,,,,,,,,,,,,,,,,1,,,right,0.16508883296046406,,,,,,,,,,,,,,1011,2019_May_10_1256,mf_amp_cond1,3.0.7,60.01231815654939,
win,,&&&,images/symbols/symbol_62.png,condition_files/AMP_rep4.csv,left,fairness.virtue,,,,,,,,,,,,,,,,,,,,,0,1,1,3,0,21,21,21,,,,,,,,,,,,,1006.9872709581396,,,,,AMP_prac,right,0.9004649792332202,,,,,,,,,,,,,,,,,,,,,1,,,right,0.23256920801941305,,,,,,,,,,,,,,1011,2019_May_10_1256,mf_amp_cond1,3.0.7,60.01231815654939,
serial,,&&&&&&,images/symbols/symbol_26.png,condition_files/AMP_rep4.csv,right,sanctity.vice,,,,,,,,,,,,,,,,,,,,,0,1,1,3,0,22,22,22,,,,,,,,,,,,,1007.8874655708205,,,,,AMP_prac,right,0.9004649792332202,,,,,,,,,,,,,,,,,,,,,1,,,right,0.6825917867245153,,,,,,,,,,,,,,1011,2019_May_10_1256,mf_amp_cond1,3.0.7,60.01231815654939,
agreement,,&&&&&&&&&,images/symbols/symbol_51.png,condition_files/AMP_rep4.csv,left,fairness.virtue,,,,,,,,,,,,,,,,,,,,,0,1,1,3,0,23,23,23,,,,,,,,,,,,,1008.4209451737115,,,,,AMP_prac,right,0.9004649792332202,,,,,,,,,,,,,,,,,,,,,1,,,right,0.31627799721900374,,,,,,,,,,,,,,1011,2019_May_10_1256,mf_amp_cond1,3.0.7,60.01231815654939,
prison,,&&&&&&,images/symbols/symbol_28.png,condition_files/AMP_rep4.csv,right,fairness.vice,,,,,,,,,,,,,,,,,,,,,0,1,1,3,0,24,24,24,,,,,,,,,,,,,1009.0210956552764,,,,,AMP_prac,right,0.9004649792332202,,,,,,,,,,,,,,,,,,,,,1,,,right,0.38274714339058846,,,,,,,,,,,,,,1011,2019_May_10_1256,mf_amp_cond1,3.0.7,60.01231815654939,
loyalty,,&&&&&&&,images/symbols/symbol_56.png,condition_files/AMP_rep4.csv,left,loyalty.virtue,,,,,,,,,,,,,,,,,,,,,0,1,1,3,0,25,25,25,,,,,,,,,,,,,1009.387847547885,,,,,AMP_prac,right,0.9004649792332202,,,,,,,,,,,,,,,,,,,,,1,,,right,0.14917312061879784,,,,,,,,,,,,,,1011,2019_May_10_1256,mf_amp_cond1,3.0.7,60.01231815654939,
coacs,,&&&&&,images/symbols/symbol_12.png,condition_files/AMP_rep4.csv,None,nonword,,,,,,,,,,,,,,,,,,,,,0,1,1,3,0,26,26,26,,,,,,,,,,,,,1009.6712386321742,,,,,AMP_prac,right,0.9004649792332202,,,,,,,,,,,,,,,,,,,,,1,,,right,0.050244580837897956,,,,,,,,,,,,,,1011,2019_May_10_1256,mf_amp_cond1,3.0.7,60.01231815654939,
interests,,&&&&&&&&&,images/symbols/symbol_75.png,condition_files/AMP_rep4.csv,left,fairness.virtue,,,,,,,,,,,,,,,,,,,,,0,1,1,3,0,27,27,27,,,,,,,,,,,,,1009.9713504350511,,,,,AMP_prac,right,0.9004649792332202,,,,,,,,,,,,,,,,,,,,,1,,,right,0.08217863563913852,,,,,,,,,,,,,,1011,2019_May_10_1256,mf_amp_cond1,3.0.7,60.01231815654939,
perfect,,&&&&&&&,images/symbols/symbol_42.png,condition_files/AMP_rep4.csv,left,sanctity.virtue,,,,,,,,,,,,,,,,,,,,,0,1,1,3,0,28,28,28,,,,,,,,,,,,,1010.3047279207967,,,,,AMP_prac,right,0.9004649792332202,,,,,,,,,,,,,,,,,,,,,1,,,right,0.11595458351075649,,,,,,,,,,,,,,1011,2019_May_10_1256,mf_amp_cond1,3.0.7,60.01231815654939,
peaceful,,&&&&&&&&,images/symbols/symbol_35.png,condition_files/AMP_rep4.csv,left,authority.virtue,,,,,,,,,,,,,,,,,,,,,0,1,1,3,0,29,29,29,,,,,,,,,,,,,1011.5549514623126,,,,,AMP_prac,right,0.9004649792332202,,,,,,,,,,,,,,,,,,,,,1,,,right,1.0325860779266804,,,,,,,,,,,,,,1011,2019_May_10_1256,mf_amp_cond1,3.0.7,60.01231815654939,
safe,,&&&&,images/symbols/symbol_66.png,condition_files/AMP_rep4.csv,left,care.virtue,,,,,,,,,,,,,,,,,,,,,0,1,1,3,0,30,30,30,,,,,,,,,,,,,1011.8717871910194,,,,,AMP_prac,right,0.9004649792332202,,,,,,,,,,,,,,,,,,,,,1,,,right,0.09916426870040596,,,,,,,,,,,,,,1011,2019_May_10_1256,mf_amp_cond1,3.0.7,60.01231815654939,
rebels,,&&&&&&,images/symbols/symbol_30.png,condition_files/AMP_rep4.csv,right,authority.vice,,,,,,,,,,,,,,,,,,,,,0,1,1,3,0,31,31,31,,,,,,,,,,,,,1012.2052089361241,,,,,AMP_prac,right,0.9004649792332202,,,,,,,,,,,,,,,,,,,,,1,,,right,0.11614797753281891,,,,,,,,,,,,,,1011,2019_May_10_1256,mf_amp_cond1,3.0.7,60.01231815654939,
suicide,,&&&&&&&,images/symbols/symbol_81.png,condition_files/AMP_rep4.csv,right,care.vice,,,,,,,,,,,,,,,,,,,,,0,1,1,3,0,32,32,32,,,,,,,,,,,,,1012.5219446002739,,,,,AMP_prac,right,0.9004649792332202,,,,,,,,,,,,,,,,,,,,,1,,,right,0.09935349330771714,,,,,,,,,,,,,,1011,2019_May_10_1256,mf_amp_cond1,3.0.7,60.01231815654939,
friends,,&&&&&&&,images/symbols/symbol_36.png,condition_files/AMP_rep4.csv,left,loyalty.virtue,,,,,,,,,,,,,,,,,,,,,0,1,1,3,0,33,33,33,,,,,,,,,,,,,1012.8053590969648,,,,,AMP_prac,right,0.9004649792332202,,,,,,,,,,,,,,,,,,,,,1,,,right,0.06599416036624461,,,,,,,,,,,,,,1011,2019_May_10_1256,mf_amp_cond1,3.0.7,60.01231815654939,
officers,,&&&&&&&&,images/symbols/symbol_71.png,condition_files/AMP_rep4.csv,right,authority.vice,,,,,,,,,,,,,,,,,,,,,0,1,1,3,0,34,34,34,,,,,,,,,,,,,1013.138770258287,,,,,AMP_prac,right,0.9004649792332202,,,,,,,,,,,,,,,,,,,,,1,,,right,0.11594720697030425,,,,,,,,,,,,,,1011,2019_May_10_1256,mf_amp_cond1,3.0.7,60.01231815654939,
embrace,,&&&&&&&,images/symbols/symbol_69.png,condition_files/AMP_rep4.csv,left,authority.virtue,,,,,,,,,,,,,,,,,,,,,0,1,1,3,0,35,35,35,,,,,,,,,,,,,1013.4388403675985,,,,,AMP_prac,right,0.9004649792332202,,,,,,,,,,,,,,,,,,,,,1,,,right,0.08255323627963662,,,,,,,,,,,,,,1011,2019_May_10_1256,mf_amp_cond1,3.0.7,60.01231815654939,
penalty,,&&&&&&&,images/symbols/symbol_39.png,condition_files/AMP_rep4.csv,right,authority.vice,,,,,,,,,,,,,,,,,,,,,0,1,1,3,0,36,36,36,,,,,,,,,,,,,1013.7722698099678,,,,,AMP_prac,right,0.9004649792332202,,,,,,,,,,,,,,,,,,,,,1,,,right,0.11505432345438749,,,,,,,,,,,,,,1011,2019_May_10_1256,mf_amp_cond1,3.0.7,60.01231815654939,
great,,&&&&&,images/symbols/symbol_41.png,condition_files/AMP_rep4.csv,left,loyalty.virtue,,,,,,,,,,,,,,,,,,,,,0,1,1,3,0,37,37,37,,,,,,,,,,,,,1014.0889980975771,,,,,AMP_prac,right,0.9004649792332202,,,,,,,,,,,,,,,,,,,,,1,,,right,0.09981565037742257,,,,,,,,,,,,,,1011,2019_May_10_1256,mf_amp_cond1,3.0.7,60.01231815654939,
war,,&&&,images/symbols/symbol_61.png,condition_files/AMP_rep4.csv,right,sanctity.vice,,,,,,,,,,,,,,,,,,,,,0,1,1,3,0,38,38,38,,,,,,,,,,,,,1014.4390793037601,,,,,AMP_prac,right,0.9004649792332202,,,,,,,,,,,,,,,,,,,,,1,,,right,0.1325752375414595,,,,,,,,,,,,,,1011,2019_May_10_1256,mf_amp_cond1,3.0.7,60.01231815654939,
health,,&&&&&&,images/symbols/symbol_57.png,condition_files/AMP_rep4.csv,left,care.virtue,,,,,,,,,,,,,,,,,,,,,0,1,1,3,0,39,39,39,,,,,,,,,,,,,1014.7558319660602,,,,,AMP_prac,right,0.9004649792332202,,,,,,,,,,,,,,,,,,,,,1,,,right,0.09925888106226921,,,,,,,,,,,,,,1011,2019_May_10_1256,mf_amp_cond1,3.0.7,60.01231815654939,
pleasant,,&&&&&&&,images/symbols/symbol_64.png,condition_files/AMP_rep4.csv,right,control,,,,,,,,,,,,,,,,,,,,,0,1,1,3,0,40,40,40,,,,,,,,,,,,,1015.122578085633,,,,,AMP_prac,right,0.9004649792332202,,,,,,,,,,,,,,,,,,,,,1,,,right,0.1492529798997566,,,,,,,,,,,,,,1011,2019_May_10_1256,mf_amp_cond1,3.0.7,60.01231815654939,
energy,,&&&&&&,images/symbols/symbol_2.png,condition_files/AMP_rep4.csv,left,sanctity.virtue,,,,,,,,,,,,,,,,,,,,,0,1,1,3,0,41,41,41,,,,,,,,,,,,,1015.4059893751983,,,,,AMP_prac,right,0.9004649792332202,,,,,,,,,,,,,,,,,,,,,1,,,right,0.06596882338635623,,,,,,,,,,,,,,1011,2019_May_10_1256,mf_amp_cond1,3.0.7,60.01231815654939,
killed,,&&&&&&,images/symbols/symbol_63.png,condition_files/AMP_rep4.csv,right,care.vice,,,,,,,,,,,,,,,,,,,,,0,1,1,3,0,42,42,42,,,,,,,,,,,,,1015.7394252319355,,,,,AMP_prac,right,0.9004649792332202,,,,,,,,,,,,,,,,,,,,,1,,,right,0.11611430183984339,,,,,,,,,,,,,,1011,2019_May_10_1256,mf_amp_cond1,3.0.7,60.01231815654939,
torture,,&&&&&&&,images/symbols/symbol_74.png,condition_files/AMP_rep4.csv,right,care.vice,,,,,,,,,,,,,,,,,,,,,0,1,1,3,0,43,43,43,,,,,,,,,,,,,1016.1561824484961,,,,,AMP_prac,right,0.9004649792332202,,,,,,,,,,,,,,,,,,,,,1,,,right,0.18361103371717036,,,,,,,,,,,,,,1011,2019_May_10_1256,mf_amp_cond1,3.0.7,60.01231815654939,
party,,&&&&&,images/symbols/symbol_21.png,condition_files/AMP_rep4.csv,left,loyalty.virtue,,,,,,,,,,,,,,,,,,,,,0,1,1,3,0,44,44,44,,,,,,,,,,,,,1016.672975649708,,,,,AMP_prac,right,0.9004649792332202,,,,,,,,,,,,,,,,,,,,,1,,,right,0.2989116699900478,,,,,,,,,,,,,,1011,2019_May_10_1256,mf_amp_cond1,3.0.7,60.01231815654939,
honored,,&&&&&&&,images/symbols/symbol_7.png,condition_files/AMP_rep4.csv,left,authority.virtue,,,,,,,,,,,,,,,,,,,,,0,1,1,3,0,45,45,45,,,,,,,,,,,,,1017.3398079146864,,,,,AMP_prac,right,0.9004649792332202,,,,,,,,,,,,,,,,,,,,,1,,,right,0.4490674756234512,,,,,,,,,,,,,,1011,2019_May_10_1256,mf_amp_cond1,3.0.7,60.01231815654939,
slypped,,&&&&&&&,images/symbols/symbol_14.png,condition_files/AMP_rep4.csv,None,nonword,,,,,,,,,,,,,,,,,,,,,0,1,1,3,0,46,46,46,,,,,,,,,,,,,1018.1067255551461,,,,,AMP_prac,right,0.9004649792332202,,,,,,,,,,,,,,,,,,,,,1,,,right,0.5493318127701059,,,,,,,,,,,,,,1011,2019_May_10_1256,mf_amp_cond1,3.0.7,60.01231815654939,
safety,,&&&&&&,images/symbols/symbol_24.png,condition_files/AMP_rep4.csv,left,care.virtue,,,,,,,,,,,,,,,,,,,,,0,1,1,3,0,47,47,47,,,,,,,,,,,,,1019.3903016946279,,,,,AMP_prac,right,0.9004649792332202,,,,,,,,,,,,,,,,,,,,,1,,,right,1.050487044849433,,,,,,,,,,,,,,1011,2019_May_10_1256,mf_amp_cond1,3.0.7,60.01231815654939,
sexual,,&&&&&&,images/symbols/symbol_4.png,condition_files/AMP_rep4.csv,right,sanctity.vice,,,,,,,,,,,,,,,,,,,,,0,1,1,3,0,48,48,48,,,,,,,,,,,,,1020.2405089436797,,,,,AMP_prac,right,0.9004649792332202,,,,,,,,,,,,,,,,,,,,,1,,,right,0.6323770327726379,,,,,,,,,,,,,,1011,2019_May_10_1256,mf_amp_cond1,3.0.7,60.01231815654939,
strength,,&&&&&&&&,images/symbols/symbol_16.png,condition_files/AMP_rep4.csv,left,sanctity.virtue,,,,,,,,,,,,,,,,,,,,,0,1,1,3,0,49,49,49,,,,,,,,,,,,,1020.8906891238876,,,,,AMP_prac,right,0.9004649792332202,,,,,,,,,,,,,,,,,,,,,1,,,right,0.4328916596714407,,,,,,,,,,,,,,1011,2019_May_10_1256,mf_amp_cond1,3.0.7,60.01231815654939,
progress,,&&&&&&&&,images/symbols/symbol_22.png,condition_files/AMP_rep4.csv,left,authority.virtue,,,,,,,,,,,,,,,,,,,,,0,1,1,3,0,50,50,50,,,,,,,,,,,,,1021.207415487268,,,,,AMP_prac,right,0.9004649792332202,,,,,,,,,,,,,,,,,,,,,1,,,right,0.09933328803163022,,,,,,,,,,,,,,1011,2019_May_10_1256,mf_amp_cond1,3.0.7,60.01231815654939,
fear,,&&&&,images/symbols/symbol_17.png,condition_files/AMP_rep4.csv,right,sanctity.vice,,,,,,,,,,,,,,,,,,,,,0,1,1,3,0,51,51,51,,,,,,,,,,,,,1021.5074920109473,,,,,AMP_prac,right,0.9004649792332202,,,,,,,,,,,,,,,,,,,,,1,,,right,0.08261738019064069,,,,,,,,,,,,,,1011,2019_May_10_1256,mf_amp_cond1,3.0.7,60.01231815654939,
civilians,,&&&&&&&&&,images/symbols/symbol_13.png,condition_files/AMP_rep4.csv,right,care.vice,,,,,,,,,,,,,,,,,,,,,0,1,1,3,0,52,52,52,,,,,,,,,,,,,1021.8075614788104,,,,,AMP_prac,right,0.9004649792332202,,,,,,,,,,,,,,,,,,,,,1,,,right,0.08255965064745396,,,,,,,,,,,,,,1011,2019_May_10_1256,mf_amp_cond1,3.0.7,60.01231815654939,
benefit,,&&&&&&&,images/symbols/symbol_72.png,condition_files/AMP_rep4.csv,left,fairness.virtue,,,,,,,,,,,,,,,,,,,,,0,1,1,3,0,53,53,53,,,,,,,,,,,,,1022.140993486857,,,,,AMP_prac,right,0.9004649792332202,,,,,,,,,,,,,,,,,,,,,1,,,right,0.10025760205462575,,,,,,,,,,,,,,1011,2019_May_10_1256,mf_amp_cond1,3.0.7,60.01231815654939,
intelligence,,&&&&&&&&&&&&,images/symbols/symbol_15.png,condition_files/AMP_rep4.csv,left,loyalty.virtue,,,,,,,,,,,,,,,,,,,,,0,1,1,3,0,54,54,54,,,,,,,,,,,,,1022.441049484536,,,,,AMP_prac,right,0.9004649792332202,,,,,,,,,,,,,,,,,,,,,1,,,right,0.08232007303740829,,,,,,,,,,,,,,1011,2019_May_10_1256,mf_amp_cond1,3.0.7,60.01231815654939,
stryct,,&&&&&&,images/symbols/symbol_6.png,condition_files/AMP_rep4.csv,None,nonword,,,,,,,,,,,,,,,,,,,,,0,1,1,3,0,55,55,55,,,,,,,,,,,,,1022.6744746933691,,,,,AMP_prac,right,0.9004649792332202,,,,,,,,,,,,,,,,,,,,,1,,,right,0.015948105021379888,,,,,,,,,,,,,,1011,2019_May_10_1256,mf_amp_cond1,3.0.7,60.01231815654939,
phluks,,&&&&&&,images/symbols/symbol_19.png,condition_files/AMP_rep4.csv,None,nonword,,,,,,,,,,,,,,,,,,,,,0,1,1,3,0,56,56,56,,,,,,,,,,,,,1022.9411729616113,,,,,AMP_prac,right,0.9004649792332202,,,,,,,,,,,,,,,,,,,,,1,,,right,0.04926446150057018,,,,,,,,,,,,,,1011,2019_May_10_1256,mf_amp_cond1,3.0.7,60.01231815654939,
unpleasant,,&&&&&&&&&,images/symbols/symbol_8.png,condition_files/AMP_rep4.csv,left,control,,,,,,,,,,,,,,,,,,,,,0,1,1,3,0,57,57,57,,,,,,,,,,,,,1023.2745866886107,,,,,AMP_prac,right,0.9004649792332202,,,,,,,,,,,,,,,,,,,,,1,,,right,0.1160568930208683,,,,,,,,,,,,,,1011,2019_May_10_1256,mf_amp_cond1,3.0.7,60.01231815654939,
shypse,,&&&&&&,images/symbols/symbol_67.png,condition_files/AMP_rep4.csv,None,nonword,,,,,,,,,,,,,,,,,,,,,0,1,1,3,0,58,58,58,,,,,,,,,,,,,1024.3415228025988,,,,,AMP_prac,right,0.9004649792332202,,,,,,,,,,,,,,,,,,,,,1,,,right,0.8493682463886216,,,,,,,,,,,,,,1011,2019_May_10_1256,mf_amp_cond1,3.0.7,60.01231815654939,
victims,,&&&&&&&,images/symbols/symbol_55.png,condition_files/AMP_rep4.csv,right,care.vice,,,,,,,,,,,,,,,,,,,,,0,1,1,3,0,59,59,59,,,,,,,,,,,,,1024.8416632778244,,,,,AMP_prac,right,0.9004649792332202,,,,,,,,,,,,,,,,,,,,,1,,,right,0.28250397369265556,,,,,,,,,,,,,,1011,2019_May_10_1256,mf_amp_cond1,3.0.7,60.01231815654939,
peace,,&&&&&,images/symbols/symbol_29.png,condition_files/AMP_rep4.csv,left,care.virtue,,,,,,,,,,,,,,,,,,,,,0,1,1,3,0,60,60,60,,,,,,,,,,,,,1025.241744676372,,,,,AMP_prac,right,0.9004649792332202,,,,,,,,,,,,,,,,,,,,,1,,,right,0.18240192078519613,,,,,,,,,,,,,,1011,2019_May_10_1256,mf_amp_cond1,3.0.7,60.01231815654939,
blamed,,&&&&&&,images/symbols/symbol_60.png,condition_files/AMP_rep4.csv,right,loyalty.vice,,,,,,,,,,,,,,,,,,,,,0,1,1,3,0,61,61,61,,,,,,,,,,,,,1025.5584912450286,,,,,AMP_prac,right,0.9004649792332202,,,,,,,,,,,,,,,,,,,,,1,,,right,0.0992133388062939,,,,,,,,,,,,,,1011,2019_May_10_1256,mf_amp_cond1,3.0.7,60.01231815654939,
riot,,&&&&,images/symbols/symbol_31.png,condition_files/AMP_rep4.csv,right,authority.vice,,,,,,,,,,,,,,,,,,,,,0,1,1,3,0,62,62,62,,,,,,,,,,,,,1025.8586107451702,,,,,AMP_prac,right,0.9004649792332202,,,,,,,,,,,,,,,,,,,,,1,,,right,0.08358082198537886,,,,,,,,,,,,,,1011,2019_May_10_1256,mf_amp_cond1,3.0.7,60.01231815654939,
crime,,&&&&&,images/symbols/symbol_59.png,condition_files/AMP_rep4.csv,right,fairness.vice,,,,,,,,,,,,,,,,,,,,,0,1,1,3,0,63,63,63,,,,,,,,,,,,,1026.158638840192,,,,,AMP_prac,right,0.9004649792332202,,,,,,,,,,,,,,,,,,,,,1,,,right,0.08254778408445418,,,,,,,,,,,,,,1011,2019_May_10_1256,mf_amp_cond1,3.0.7,60.01231815654939,
injured,,&&&&&&&,images/symbols/symbol_32.png,condition_files/AMP_rep4.csv,right,care.vice,,,,,,,,,,,,,,,,,,,,,0,1,1,3,0,64,64,64,,,,,,,,,,,,,1026.4587923366344,,,,,AMP_prac,right,0.9004649792332202,,,,,,,,,,,,,,,,,,,,,1,,,right,0.082591722602956,,,,,,,,,,,,,,1011,2019_May_10_1256,mf_amp_cond1,3.0.7,60.01231815654939,
ensure,,&&&&&&,images/symbols/symbol_1.png,condition_files/AMP_rep4.csv,left,fairness.virtue,,,,,,,,,,,,,,,,,,,,,0,1,1,3,0,65,65,65,,,,,,,,,,,,,1026.7587893218733,,,,,AMP_prac,right,0.9004649792332202,,,,,,,,,,,,,,,,,,,,,1,,,right,0.0824252690654248,,,,,,,,,,,,,,1011,2019_May_10_1256,mf_amp_cond1,3.0.7,60.01231815654939,
terrorist,,&&&&&&&&&,images/symbols/symbol_18.png,condition_files/AMP_rep4.csv,right,loyalty.vice,,,,,,,,,,,,,,,,,,,,,0,1,1,3,0,66,66,66,,,,,,,,,,,,,1027.0088489757618,,,,,AMP_prac,right,0.9004649792332202,,,,,,,,,,,,,,,,,,,,,1,,,right,0.03267844521906227,,,,,,,,,,,,,,1011,2019_May_10_1256,mf_amp_cond1,3.0.7,60.01231815654939,
faith,,&&&&&,images/symbols/symbol_76.png,condition_files/AMP_rep4.csv,left,sanctity.virtue,,,,,,,,,,,,,,,,,,,,,0,1,1,3,0,67,67,67,,,,,,,,,,,,,1027.4589639216429,,,,,AMP_prac,right,0.9004649792332202,,,,,,,,,,,,,,,,,,,,,1,,,right,0.2330364965600893,,,,,,,,,,,,,,1011,2019_May_10_1256,mf_amp_cond1,3.0.7,60.01231815654939,
respect,,&&&&&&&,images/symbols/symbol_78.png,condition_files/AMP_rep4.csv,left,sanctity.virtue,,,,,,,,,,,,,,,,,,,,,0,1,1,3,0,68,68,68,,,,,,,,,,,,,1028.1091287074378,,,,,AMP_prac,right,0.9004649792332202,,,,,,,,,,,,,,,,,,,,,1,,,right,0.43262033083010465,,,,,,,,,,,,,,1011,2019_May_10_1256,mf_amp_cond1,3.0.7,60.01231815654939,
refused,,&&&&&&&,images/symbols/symbol_38.png,condition_files/AMP_rep4.csv,right,authority.vice,,,,,,,,,,,,,,,,,,,,,0,1,1,3,0,69,69,69,,,,,,,,,,,,,1028.6925956739578,,,,,AMP_prac,right,0.9004649792332202,,,,,,,,,,,,,,,,,,,,,1,,,right,0.3660847956780344,,,,,,,,,,,,,,1011,2019_May_10_1256,mf_amp_cond1,3.0.7,60.01231815654939,
celebrated,,&&&&&&&&&&,images/symbols/symbol_58.png,condition_files/AMP_rep4.csv,left,authority.virtue,,,,,,,,,,,,,,,,,,,,,0,1,1,3,0,70,70,70,,,,,,,,,,,,,1029.359460972948,,,,,AMP_prac,right,0.9004649792332202,,,,,,,,,,,,,,,,,,,,,1,,,right,0.4493760078912601,,,,,,,,,,,,,,1011,2019_May_10_1256,mf_amp_cond1,3.0.7,60.01231815654939,
accused,,&&&&&&&,images/symbols/symbol_34.png,condition_files/AMP_rep4.csv,right,fairness.vice,,,,,,,,,,,,,,,,,,,,,0,1,1,3,0,71,71,71,,,,,,,,,,,,,1029.8429467978422,,,,,AMP_prac,right,0.9004649792332202,,,,,,,,,,,,,,,,,,,,,1,,,right,0.26583264593500644,,,,,,,,,,,,,,1011,2019_May_10_1256,mf_amp_cond1,3.0.7,60.01231815654939,
thinx,,&&&&&,images/symbols/symbol_45.png,condition_files/AMP_rep4.csv,None,nonword,,,,,,,,,,,,,,,,,,,,,0,1,1,3,0,72,72,72,,,,,,,,,,,,,1030.2096679012757,,,,,AMP_prac,right,0.9004649792332202,,,,,,,,,,,,,,,,,,,,,1,,,right,0.1491679890314117,,,,,,,,,,,,,,1011,2019_May_10_1256,mf_amp_cond1,3.0.7,60.01231815654939,
actively,,&&&&&&&&,images/symbols/symbol_70.png,condition_files/AMP_rep4.csv,left,authority.virtue,,,,,,,,,,,,,,,,,,,,,0,1,1,3,0,73,73,73,,,,,,,,,,,,,1030.5764137001242,,,,,AMP_prac,right,0.9004649792332202,,,,,,,,,,,,,,,,,,,,,1,,,right,0.14906728314235806,,,,,,,,,,,,,,1011,2019_May_10_1256,mf_amp_cond1,3.0.7,60.01231815654939,
forced,,&&&&&&,images/symbols/symbol_23.png,condition_files/AMP_rep4.csv,right,fairness.vice,,,,,,,,,,,,,,,,,,,,,0,1,1,3,0,74,74,74,,,,,,,,,,,,,1030.8931416670093,,,,,AMP_prac,right,0.9004649792332202,,,,,,,,,,,,,,,,,,,,,1,,,right,0.09916298591997474,,,,,,,,,,,,,,1011,2019_May_10_1256,mf_amp_cond1,3.0.7,60.01231815654939,
conspiracy,,&&&&&&&&&&,images/symbols/symbol_40.png,condition_files/AMP_rep4.csv,right,sanctity.vice,,,,,,,,,,,,,,,,,,,,,0,1,1,3,0,75,75,75,,,,,,,,,,,,,1031.1932223601034,,,,,AMP_prac,right,0.9004649792332202,,,,,,,,,,,,,,,,,,,,,1,,,right,0.08248845080379397,,,,,,,,,,,,,,1011,2019_May_10_1256,mf_amp_cond1,3.0.7,60.01231815654939,
strong,,&&&&&&,images/symbols/symbol_37.png,condition_files/AMP_rep4.csv,left,loyalty.virtue,,,,,,,,,,,,,,,,,,,,,0,1,1,3,0,76,76,76,,,,,,,,,,,,,1031.4766166515183,,,,,AMP_prac,right,0.9004649792332202,,,,,,,,,,,,,,,,,,,,,1,,,right,0.05023175210226327,,,,,,,,,,,,,,1011,2019_May_10_1256,mf_amp_cond1,3.0.7,60.01231815654939,
help,,&&&&,images/symbols/symbol_47.png,condition_files/AMP_rep4.csv,left,care.virtue,,,,,,,,,,,,,,,,,,,,,0,1,1,3,0,77,77,77,,,,,,,,,,,,,1031.7766995896818,,,,,AMP_prac,right,0.9004649792332202,,,,,,,,,,,,,,,,,,,,,1,,,right,0.08232937392313033,,,,,,,,,,,,,,1011,2019_May_10_1256,mf_amp_cond1,3.0.7,60.01231815654939,
gun,,&&&,images/symbols/symbol_3.png,condition_files/AMP_rep4.csv,right,authority.vice,,,,,,,,,,,,,,,,,,,,,0,1,1,3,0,78,78,78,,,,,,,,,,,,,1032.093444233993,,,,,AMP_prac,right,0.9004649792332202,,,,,,,,,,,,,,,,,,,,,1,,,right,0.09931725193746388,,,,,,,,,,,,,,1011,2019_May_10_1256,mf_amp_cond1,3.0.7,60.01231815654939,
illegal,,&&&&&&&,images/symbols/symbol_54.png,condition_files/AMP_rep4.csv,right,fairness.vice,,,,,,,,,,,,,,,,,,,,,0,1,1,3,0,79,79,79,,,,,,,,,,,,,1032.3935117775109,,,,,AMP_prac,right,0.9004649792332202,,,,,,,,,,,,,,,,,,,,,1,,,right,0.08236048370599747,,,,,,,,,,,,,,1011,2019_May_10_1256,mf_amp_cond1,3.0.7,60.01231815654939,
voter,,&&&&&,images/symbols/symbol_82.png,condition_files/AMP_rep4.csv,right,fairness.vice,,,,,,,,,,,,,,,,,,,,,0,1,1,3,0,80,80,80,,,,,,,,,,,,,1032.71025930834,,,,,AMP_prac,right,0.9004649792332202,,,,,,,,,,,,,,,,,,,,,1,,,right,0.0995760727673769,,,,,,,,,,,,,,1011,2019_May_10_1256,mf_amp_cond1,3.0.7,60.01231815654939,
spewd,,&&&&&,images/symbols/symbol_65.png,condition_files/AMP_rep4.csv,None,nonword,,,,,,,,,,,,,,,,,,,,,0,1,1,3,0,81,81,81,,,,,,,,,,,,,1033.0604739339324,,,,,AMP_prac,right,0.9004649792332202,,,,,,,,,,,,,,,,,,,,,1,,,right,0.13268460310064256,,,,,,,,,,,,,,1011,2019_May_10_1256,mf_amp_cond1,3.0.7,60.01231815654939,
,,,,condition_files/AMP_rep4.csv,,,,,,,,,,,,,,,,,,,,,,,0,1,1,3,,,,,,,,,,,,,,,,,,,,,,,,,,,,,,,,,,,,,,,,,,,,,,,,,,right,2.0674066096544266,,,,,,,,,,,,1011,2019_May_10_1256,mf_amp_cond1,3.0.7,60.01231815654939,
noost,,&&&&&,images/symbols/symbol_9.png,condition_files/AMP_rep3.csv,None,nonword,,,,,,,,,,,,,,,,,,,,,0,2,2,2,0,0,0,0,,,,,,,,,,,,,1035.7944873424713,,,,,AMP_prac,right,0.9004649792332202,,,,,,,,,,,,,,,,,,,,,1,,,right,0.432626745197922,,,,,,,,,,,,,,1011,2019_May_10_1256,mf_amp_cond1,3.0.7,60.01231815654939,
improve,,&&&&&&&,images/symbols/symbol_27.png,condition_files/AMP_rep3.csv,left,care.virtue,,,,,,,,,,,,,,,,,,,,,0,2,2,2,0,1,1,1,,,,,,,,,,,,,1036.1277634808794,,,,,AMP_prac,right,0.9004649792332202,,,,,,,,,,,,,,,,,,,,,1,,,right,0.11575669946614653,,,,,,,,,,,,,,1011,2019_May_10_1256,mf_amp_cond1,3.0.7,60.01231815654939,
death,,&&&&&,images/symbols/symbol_80.png,condition_files/AMP_rep3.csv,right,care.vice,,,,,,,,,,,,,,,,,,,,,0,2,2,2,0,2,2,2,,,,,,,,,,,,,1036.4778604023159,,,,,AMP_prac,right,0.9004649792332202,,,,,,,,,,,,,,,,,,,,,1,,,right,0.13301494426559657,,,,,,,,,,,,,,1011,2019_May_10_1256,mf_amp_cond1,3.0.7,60.01231815654939,
ability,,&&&&&&&,images/symbols/symbol_20.png,condition_files/AMP_rep3.csv,left,authority.virtue,,,,,,,,,,,,,,,,,,,,,0,2,2,2,0,3,3,3,,,,,,,,,,,,,1036.927958991495,,,,,AMP_prac,right,0.9004649792332202,,,,,,,,,,,,,,,,,,,,,1,,,right,0.23320904385764152,,,,,,,,,,,,,,1011,2019_May_10_1256,mf_amp_cond1,3.0.7,60.01231815654939,
protect,,&&&&&&&,images/symbols/symbol_48.png,condition_files/AMP_rep3.csv,left,fairness.virtue,,,,,,,,,,,,,,,,,,,,,0,2,2,2,0,4,4,4,,,,,,,,,,,,,1037.4114307047566,,,,,AMP_prac,right,0.9004649792332202,,,,,,,,,,,,,,,,,,,,,1,,,right,0.2659779319074005,,,,,,,,,,,,,,1011,2019_May_10_1256,mf_amp_cond1,3.0.7,60.01231815654939,
spraize,,&&&&&&&,images/symbols/symbol_77.png,condition_files/AMP_rep3.csv,None,nonword,,,,,,,,,,,,,,,,,,,,,0,2,2,2,0,5,5,5,,,,,,,,,,,,,1038.1116085116519,,,,,AMP_prac,right,0.9004649792332202,,,,,,,,,,,,,,,,,,,,,1,,,right,0.482741113868542,,,,,,,,,,,,,,1011,2019_May_10_1256,mf_amp_cond1,3.0.7,60.01231815654939,
sharing,,&&&&&&&,images/symbols/symbol_33.png,condition_files/AMP_rep3.csv,left,loyalty.virtue,,,,,,,,,,,,,,,,,,,,,0,2,2,2,0,6,6,6,,,,,,,,,,,,,1038.695067460183,,,,,AMP_prac,right,0.9004649792332202,,,,,,,,,,,,,,,,,,,,,1,,,right,0.366172993555665,,,,,,,,,,,,,,1011,2019_May_10_1256,mf_amp_cond1,3.0.7,60.01231815654939,
protesters,,&&&&&&&&&&,images/symbols/symbol_25.png,condition_files/AMP_rep3.csv,right,authority.vice,,,,,,,,,,,,,,,,,,,,,0,2,2,2,0,7,7,7,,,,,,,,,,,,,1039.1785147986375,,,,,AMP_prac,right,0.9004649792332202,,,,,,,,,,,,,,,,,,,,,1,,,right,0.26591218437533826,,,,,,,,,,,,,,1011,2019_May_10_1256,mf_amp_cond1,3.0.7,60.01231815654939,
slavery,,&&&&&&&,images/symbols/symbol_46.png,condition_files/AMP_rep3.csv,right,loyalty.vice,,,,,,,,,,,,,,,,,,,,,0,2,2,2,0,8,8,8,,,,,,,,,,,,,1039.5119326950517,,,,,AMP_prac,right,0.9004649792332202,,,,,,,,,,,,,,,,,,,,,1,,,right,0.11595939437393099,,,,,,,,,,,,,,1011,2019_May_10_1256,mf_amp_cond1,3.0.7,60.01231815654939,
hand,,&&&&,images/symbols/symbol_73.png,condition_files/AMP_rep3.csv,left,sanctity.virtue,,,,,,,,,,,,,,,,,,,,,0,2,2,2,0,9,9,9,,,,,,,,,,,,,1039.912031091866,,,,,AMP_prac,right,0.9004649792332202,,,,,,,,,,,,,,,,,,,,,1,,,right,0.16693200869485736,,,,,,,,,,,,,,1011,2019_May_10_1256,mf_amp_cond1,3.0.7,60.01231815654939,
army,,&&&&,images/symbols/symbol_52.png,condition_files/AMP_rep3.csv,right,loyalty.vice,,,,,,,,,,,,,,,,,,,,,0,2,2,2,0,10,10,10,,,,,,,,,,,,,1040.2954738761764,,,,,AMP_prac,right,0.9004649792332202,,,,,,,,,,,,,,,,,,,,,1,,,right,0.1661789589561522,,,,,,,,,,,,,,1011,2019_May_10_1256,mf_amp_cond1,3.0.7,60.01231815654939,
values,,&&&&&&,images/symbols/symbol_5.png,condition_files/AMP_rep3.csv,left,sanctity.virtue,,,,,,,,,,,,,,,,,,,,,0,2,2,2,0,11,11,11,,,,,,,,,,,,,1040.6288651528303,,,,,AMP_prac,right,0.9004649792332202,,,,,,,,,,,,,,,,,,,,,1,,,right,0.11596228077542037,,,,,,,,,,,,,,1011,2019_May_10_1256,mf_amp_cond1,3.0.7,60.01231815654939,
squintce,,&&&&&&&&,images/symbols/symbol_49.png,condition_files/AMP_rep3.csv,None,nonword,,,,,,,,,,,,,,,,,,,,,0,2,2,2,0,12,12,12,,,,,,,,,,,,,1040.9622897843365,,,,,AMP_prac,right,0.9004649792332202,,,,,,,,,,,,,,,,,,,,,1,,,right,0.10025214974302799,,,,,,,,,,,,,,1011,2019_May_10_1256,mf_amp_cond1,3.0.7,60.01231815654939,
violations,,&&&&&&&&&&,images/symbols/symbol_50.png,condition_files/AMP_rep3.csv,right,sanctity.vice,,,,,,,,,,,,,,,,,,,,,0,2,2,2,0,13,13,13,,,,,,,,,,,,,1041.4791291692527,,,,,AMP_prac,right,0.9004649792332202,,,,,,,,,,,,,,,,,,,,,1,,,right,0.2991384187480435,,,,,,,,,,,,,,1011,2019_May_10_1256,mf_amp_cond1,3.0.7,60.01231815654939,
restore,,&&&&&&&,images/symbols/symbol_43.png,condition_files/AMP_rep3.csv,left,care.virtue,,,,,,,,,,,,,,,,,,,,,0,2,2,2,0,14,14,14,,,,,,,,,,,,,1041.9458836916601,,,,,AMP_prac,right,0.9004649792332202,,,,,,,,,,,,,,,,,,,,,1,,,right,0.2493989714421332,,,,,,,,,,,,,,1011,2019_May_10_1256,mf_amp_cond1,3.0.7,60.01231815654939,
integrity,,&&&&&&&&&,images/symbols/symbol_11.png,condition_files/AMP_rep3.csv,left,fairness.virtue,,,,,,,,,,,,,,,,,,,,,0,2,2,2,0,15,15,15,,,,,,,,,,,,,1042.379302614485,,,,,AMP_prac,right,0.9004649792332202,,,,,,,,,,,,,,,,,,,,,1,,,right,0.215958817047067,,,,,,,,,,,,,,1011,2019_May_10_1256,mf_amp_cond1,3.0.7,60.01231815654939,
ban,,&&&,images/symbols/symbol_10.png,condition_files/AMP_rep3.csv,right,loyalty.vice,,,,,,,,,,,,,,,,,,,,,0,2,2,2,0,16,16,16,,,,,,,,,,,,,1042.796077470528,,,,,AMP_prac,right,0.9004649792332202,,,,,,,,,,,,,,,,,,,,,1,,,right,0.19947895896621048,,,,,,,,,,,,,,1011,2019_May_10_1256,mf_amp_cond1,3.0.7,60.01231815654939,
failure,,&&&&&&&,images/symbols/symbol_79.png,condition_files/AMP_rep3.csv,right,loyalty.vice,,,,,,,,,,,,,,,,,,,,,0,2,2,2,0,17,17,17,,,,,,,,,,,,,1043.1461721470114,,,,,AMP_prac,right,0.9004649792332202,,,,,,,,,,,,,,,,,,,,,1,,,right,0.13258453854359686,,,,,,,,,,,,,,1011,2019_May_10_1256,mf_amp_cond1,3.0.7,60.01231815654939,
critics,,&&&&&&&,images/symbols/symbol_53.png,condition_files/AMP_rep3.csv,right,loyalty.vice,,,,,,,,,,,,,,,,,,,,,0,2,2,2,0,18,18,18,,,,,,,,,,,,,1043.6629704796942,,,,,AMP_prac,right,0.9004649792332202,,,,,,,,,,,,,,,,,,,,,1,,,right,0.2993914665421471,,,,,,,,,,,,,,1011,2019_May_10_1256,mf_amp_cond1,3.0.7,60.01231815654939,
abuse,,&&&&&,images/symbols/symbol_68.png,condition_files/AMP_rep3.csv,right,sanctity.vice,,,,,,,,,,,,,,,,,,,,,0,2,2,2,0,19,19,19,,,,,,,,,,,,,1044.16314110253,,,,,AMP_prac,right,0.9004649792332202,,,,,,,,,,,,,,,,,,,,,1,,,right,0.2670247608330101,,,,,,,,,,,,,,1011,2019_May_10_1256,mf_amp_cond1,3.0.7,60.01231815654939,
hate,,&&&&,images/symbols/symbol_44.png,condition_files/AMP_rep3.csv,right,fairness.vice,,,,,,,,,,,,,,,,,,,,,0,2,2,2,0,20,20,20,,,,,,,,,,,,,1044.7132240406936,,,,,AMP_prac,right,0.9004649792332202,,,,,,,,,,,,,,,,,,,,,1,,,right,0.33216388255823404,,,,,,,,,,,,,,1011,2019_May_10_1256,mf_amp_cond1,3.0.7,60.01231815654939,
win,,&&&,images/symbols/symbol_62.png,condition_files/AMP_rep3.csv,left,fairness.virtue,,,,,,,,,,,,,,,,,,,,,0,2,2,2,0,21,21,21,,,,,,,,,,,,,1045.2133420654573,,,,,AMP_prac,right,0.9004649792332202,,,,,,,,,,,,,,,,,,,,,1,,,right,0.2826620885170996,,,,,,,,,,,,,,1011,2019_May_10_1256,mf_amp_cond1,3.0.7,60.01231815654939,
serial,,&&&&&&,images/symbols/symbol_26.png,condition_files/AMP_rep3.csv,right,sanctity.vice,,,,,,,,,,,,,,,,,,,,,0,2,2,2,0,22,22,22,,,,,,,,,,,,,1046.4636557293124,,,,,AMP_prac,right,0.9004649792332202,,,,,,,,,,,,,,,,,,,,,1,,,left,1.03281058173161,,,,,,,,,,,,,,1011,2019_May_10_1256,mf_amp_cond1,3.0.7,60.01231815654939,
agreement,,&&&&&&&&&,images/symbols/symbol_51.png,condition_files/AMP_rep3.csv,left,fairness.virtue,,,,,,,,,,,,,,,,,,,,,0,2,2,2,0,23,23,23,,,,,,,,,,,,,1046.747063811752,,,,,AMP_prac,right,0.9004649792332202,,,,,,,,,,,,,,,,,,,,,1,,,right,0.0662468874361366,,,,,,,,,,,,,,1011,2019_May_10_1256,mf_amp_cond1,3.0.7,60.01231815654939,
prison,,&&&&&&,images/symbols/symbol_28.png,condition_files/AMP_rep3.csv,right,fairness.vice,,,,,,,,,,,,,,,,,,,,,0,2,2,2,0,24,24,24,,,,,,,,,,,,,1047.1304847870488,,,,,AMP_prac,right,0.9004649792332202,,,,,,,,,,,,,,,,,,,,,1,,,right,0.16599101724568754,,,,,,,,,,,,,,1011,2019_May_10_1256,mf_amp_cond1,3.0.7,60.01231815654939,
loyalty,,&&&&&&&,images/symbols/symbol_56.png,condition_files/AMP_rep3.csv,left,loyalty.virtue,,,,,,,,,,,,,,,,,,,,,0,2,2,2,0,25,25,25,,,,,,,,,,,,,1047.4305468783714,,,,,AMP_prac,right,0.9004649792332202,,,,,,,,,,,,,,,,,,,,,1,,,right,0.08257793169468641,,,,,,,,,,,,,,1011,2019_May_10_1256,mf_amp_cond1,3.0.7,60.01231815654939,
coacs,,&&&&&,images/symbols/symbol_12.png,condition_files/AMP_rep3.csv,None,nonword,,,,,,,,,,,,,,,,,,,,,0,2,2,2,0,26,26,26,,,,,,,,,,,,,1047.7139498292236,,,,,AMP_prac,right,0.9004649792332202,,,,,,,,,,,,,,,,,,,,,1,,,right,0.05023495911154896,,,,,,,,,,,,,,1011,2019_May_10_1256,mf_amp_cond1,3.0.7,60.01231815654939,
interests,,&&&&&&&&&,images/symbols/symbol_75.png,condition_files/AMP_rep3.csv,left,fairness.virtue,,,,,,,,,,,,,,,,,,,,,0,2,2,2,0,27,27,27,,,,,,,,,,,,,1048.0640470713843,,,,,AMP_prac,right,0.9004649792332202,,,,,,,,,,,,,,,,,,,,,1,,,right,0.13245240203104913,,,,,,,,,,,,,,1011,2019_May_10_1256,mf_amp_cond1,3.0.7,60.01231815654939,
perfect,,&&&&&&&,images/symbols/symbol_42.png,condition_files/AMP_rep3.csv,left,sanctity.virtue,,,,,,,,,,,,,,,,,,,,,0,2,2,2,0,28,28,28,,,,,,,,,,,,,1048.347453870927,,,,,AMP_prac,right,0.9004649792332202,,,,,,,,,,,,,,,,,,,,,1,,,right,0.0659534289734438,,,,,,,,,,,,,,1011,2019_May_10_1256,mf_amp_cond1,3.0.7,60.01231815654939,
peaceful,,&&&&&&&&,images/symbols/symbol_35.png,condition_files/AMP_rep3.csv,left,authority.virtue,,,,,,,,,,,,,,,,,,,,,0,2,2,2,0,29,29,29,,,,,,,,,,,,,1048.6308452759404,,,,,AMP_prac,right,0.9004649792332202,,,,,,,,,,,,,,,,,,,,,1,,,right,0.06589762365911156,,,,,,,,,,,,,,1011,2019_May_10_1256,mf_amp_cond1,3.0.7,60.01231815654939,
safe,,&&&&,images/symbols/symbol_66.png,condition_files/AMP_rep3.csv,left,care.virtue,,,,,,,,,,,,,,,,,,,,,0,2,2,2,0,30,30,30,,,,,,,,,,,,,1048.9476043526083,,,,,AMP_prac,right,0.9004649792332202,,,,,,,,,,,,,,,,,,,,,1,,,right,0.09936375636607409,,,,,,,,,,,,,,1011,2019_May_10_1256,mf_amp_cond1,3.0.7,60.01231815654939,
rebels,,&&&&&&,images/symbols/symbol_30.png,condition_files/AMP_rep3.csv,right,authority.vice,,,,,,,,,,,,,,,,,,,,,0,2,2,2,0,31,31,31,,,,,,,,,,,,,1049.2810068544932,,,,,AMP_prac,right,0.9004649792332202,,,,,,,,,,,,,,,,,,,,,1,,,right,0.11613065865822136,,,,,,,,,,,,,,1011,2019_May_10_1256,mf_amp_cond1,3.0.7,60.01231815654939,
suicide,,&&&&&&&,images/symbols/symbol_81.png,condition_files/AMP_rep3.csv,right,care.vice,,,,,,,,,,,,,,,,,,,,,0,2,2,2,0,32,32,32,,,,,,,,,,,,,1049.6144205814926,,,,,AMP_prac,right,0.9004649792332202,,,,,,,,,,,,,,,,,,,,,1,,,right,0.11598793836310506,,,,,,,,,,,,,,1011,2019_May_10_1256,mf_amp_cond1,3.0.7,60.01231815654939,
friends,,&&&&&&&,images/symbols/symbol_36.png,condition_files/AMP_rep3.csv,left,loyalty.virtue,,,,,,,,,,,,,,,,,,,,,0,2,2,2,0,33,33,33,,,,,,,,,,,,,1049.9645104471128,,,,,AMP_prac,right,0.9004649792332202,,,,,,,,,,,,,,,,,,,,,1,,,right,0.1326227041427046,,,,,,,,,,,,,,1011,2019_May_10_1256,mf_amp_cond1,3.0.7,60.01231815654939,
officers,,&&&&&&&&,images/symbols/symbol_71.png,condition_files/AMP_rep3.csv,right,authority.vice,,,,,,,,,,,,,,,,,,,,,0,2,2,2,0,34,34,34,,,,,,,,,,,,,1050.314627894666,,,,,AMP_prac,right,0.9004649792332202,,,,,,,,,,,,,,,,,,,,,1,,,right,0.13226125307846814,,,,,,,,,,,,,,1011,2019_May_10_1256,mf_amp_cond1,3.0.7,60.01231815654939,
embrace,,&&&&&&&,images/symbols/symbol_69.png,condition_files/AMP_rep3.csv,left,authority.virtue,,,,,,,,,,,,,,,,,,,,,0,2,2,2,0,35,35,35,,,,,,,,,,,,,1050.6980430970434,,,,,AMP_prac,right,0.9004649792332202,,,,,,,,,,,,,,,,,,,,,1,,,right,0.1657219334738329,,,,,,,,,,,,,,1011,2019_May_10_1256,mf_amp_cond1,3.0.7,60.01231815654939,
penalty,,&&&&&&&,images/symbols/symbol_39.png,condition_files/AMP_rep3.csv,right,authority.vice,,,,,,,,,,,,,,,,,,,,,0,2,2,2,0,36,36,36,,,,,,,,,,,,,1051.0314449574798,,,,,AMP_prac,right,0.9004649792332202,,,,,,,,,,,,,,,,,,,,,1,,,right,0.11584297311492264,,,,,,,,,,,,,,1011,2019_May_10_1256,mf_amp_cond1,3.0.7,60.01231815654939,
great,,&&&&&,images/symbols/symbol_41.png,condition_files/AMP_rep3.csv,left,loyalty.virtue,,,,,,,,,,,,,,,,,,,,,0,2,2,2,0,37,37,37,,,,,,,,,,,,,1051.9483352726093,,,,,AMP_prac,right,0.9004649792332202,,,,,,,,,,,,,,,,,,,,,1,,,left,0.6999128925381228,,,,,,,,,,,,,,1011,2019_May_10_1256,mf_amp_cond1,3.0.7,60.01231815654939,
war,,&&&,images/symbols/symbol_61.png,condition_files/AMP_rep3.csv,right,sanctity.vice,,,,,,,,,,,,,,,,,,,,,0,2,2,2,0,38,38,38,,,,,,,,,,,,,1052.2817608664045,,,,,AMP_prac,right,0.9004649792332202,,,,,,,,,,,,,,,,,,,,,1,,,right,0.11587408289778978,,,,,,,,,,,,,,1011,2019_May_10_1256,mf_amp_cond1,3.0.7,60.01231815654939,
health,,&&&&&&,images/symbols/symbol_57.png,condition_files/AMP_rep3.csv,left,care.virtue,,,,,,,,,,,,,,,,,,,,,0,2,2,2,0,39,39,39,,,,,,,,,,,,,1052.6651981984032,,,,,AMP_prac,right,0.9004649792332202,,,,,,,,,,,,,,,,,,,,,1,,,right,0.16603688022587448,,,,,,,,,,,,,,1011,2019_May_10_1256,mf_amp_cond1,3.0.7,60.01231815654939,
pleasant,,&&&&&&&,images/symbols/symbol_64.png,condition_files/AMP_rep3.csv,right,control,,,,,,,,,,,,,,,,,,,,,0,2,2,2,0,40,40,40,,,,,,,,,,,,,1053.0319379036082,,,,,AMP_prac,right,0.9004649792332202,,,,,,,,,,,,,,,,,,,,,1,,,right,0.14917344134300947,,,,,,,,,,,,,,1011,2019_May_10_1256,mf_amp_cond1,3.0.7,60.01231815654939,
energy,,&&&&&&,images/symbols/symbol_2.png,condition_files/AMP_rep3.csv,left,sanctity.virtue,,,,,,,,,,,,,,,,,,,,,0,2,2,2,0,41,41,41,,,,,,,,,,,,,1053.3653580450919,,,,,AMP_prac,right,0.9004649792332202,,,,,,,,,,,,,,,,,,,,,1,,,right,0.11601744464132935,,,,,,,,,,,,,,1011,2019_May_10_1256,mf_amp_cond1,3.0.7,60.01231815654939,
killed,,&&&&&&,images/symbols/symbol_63.png,condition_files/AMP_rep3.csv,right,care.vice,,,,,,,,,,,,,,,,,,,,,0,2,2,2,0,42,42,42,,,,,,,,,,,,,1053.7487732474692,,,,,AMP_prac,right,0.9004649792332202,,,,,,,,,,,,,,,,,,,,,1,,,right,0.16610872140154243,,,,,,,,,,,,,,1011,2019_May_10_1256,mf_amp_cond1,3.0.7,60.01231815654939,
torture,,&&&&&&&,images/symbols/symbol_74.png,condition_files/AMP_rep3.csv,right,care.vice,,,,,,,,,,,,,,,,,,,,,0,2,2,2,0,43,43,43,,,,,,,,,,,,,1054.0488625998842,,,,,AMP_prac,right,0.9004649792332202,,,,,,,,,,,,,,,,,,,,,1,,,right,0.06691462569870055,,,,,,,,,,,,,,1011,2019_May_10_1256,mf_amp_cond1,3.0.7,60.01231815654939,
party,,&&&&&,images/symbols/symbol_21.png,condition_files/AMP_rep3.csv,left,loyalty.virtue,,,,,,,,,,,,,,,,,,,,,0,2,2,2,0,44,44,44,,,,,,,,,,,,,1054.3822641395964,,,,,AMP_prac,right,0.9004649792332202,,,,,,,,,,,,,,,,,,,,,1,,,right,0.11584906675852835,,,,,,,,,,,,,,1011,2019_May_10_1256,mf_amp_cond1,3.0.7,60.01231815654939,
honored,,&&&&&&&,images/symbols/symbol_7.png,condition_files/AMP_rep3.csv,left,authority.virtue,,,,,,,,,,,,,,,,,,,,,0,2,2,2,0,45,45,45,,,,,,,,,,,,,1054.6990475909552,,,,,AMP_prac,right,0.9004649792332202,,,,,,,,,,,,,,,,,,,,,1,,,right,0.09941378864459693,,,,,,,,,,,,,,1011,2019_May_10_1256,mf_amp_cond1,3.0.7,60.01231815654939,
slypped,,&&&&&&&,images/symbols/symbol_14.png,condition_files/AMP_rep3.csv,None,nonword,,,,,,,,,,,,,,,,,,,,,0,2,2,2,0,46,46,46,,,,,,,,,,,,,1055.0491127612768,,,,,AMP_prac,right,0.9004649792332202,,,,,,,,,,,,,,,,,,,,,1,,,right,0.13257523765787482,,,,,,,,,,,,,,1011,2019_May_10_1256,mf_amp_cond1,3.0.7,60.01231815654939,
safety,,&&&&&&,images/symbols/symbol_24.png,condition_files/AMP_rep3.csv,left,care.virtue,,,,,,,,,,,,,,,,,,,,,0,2,2,2,0,47,47,47,,,,,,,,,,,,,1055.3991804971593,,,,,AMP_prac,right,0.9004649792332202,,,,,,,,,,,,,,,,,,,,,1,,,right,0.11691802542190999,,,,,,,,,,,,,,1011,2019_May_10_1256,mf_amp_cond1,3.0.7,60.01231815654939,
sexual,,&&&&&&,images/symbols/symbol_4.png,condition_files/AMP_rep3.csv,right,sanctity.vice,,,,,,,,,,,,,,,,,,,,,0,2,2,2,0,48,48,48,,,,,,,,,,,,,1055.6992576624034,,,,,AMP_prac,right,0.9004649792332202,,,,,,,,,,,,,,,,,,,,,1,,,right,0.08190185471903533,,,,,,,,,,,,,,1011,2019_May_10_1256,mf_amp_cond1,3.0.7,60.01231815654939,
strength,,&&&&&&&&,images/symbols/symbol_16.png,condition_files/AMP_rep3.csv,left,sanctity.virtue,,,,,,,,,,,,,,,,,,,,,0,2,2,2,0,49,49,49,,,,,,,,,,,,,1056.0493635640014,,,,,AMP_prac,right,0.9004649792332202,,,,,,,,,,,,,,,,,,,,,1,,,right,0.13291744550224394,,,,,,,,,,,,,,1011,2019_May_10_1256,mf_amp_cond1,3.0.7,60.01231815654939,
progress,,&&&&&&&&,images/symbols/symbol_22.png,condition_files/AMP_rep3.csv,left,authority.virtue,,,,,,,,,,,,,,,,,,,,,0,2,2,2,0,50,50,50,,,,,,,,,,,,,1056.349410581519,,,,,AMP_prac,right,0.9004649792332202,,,,,,,,,,,,,,,,,,,,,1,,,right,0.08254393539391458,,,,,,,,,,,,,,1011,2019_May_10_1256,mf_amp_cond1,3.0.7,60.01231815654939,
fear,,&&&&,images/symbols/symbol_17.png,condition_files/AMP_rep3.csv,right,sanctity.vice,,,,,,,,,,,,,,,,,,,,,0,2,2,2,0,51,51,51,,,,,,,,,,,,,1056.6494948024629,,,,,AMP_prac,right,0.9004649792332202,,,,,,,,,,,,,,,,,,,,,1,,,right,0.08255355700384825,,,,,,,,,,,,,,1011,2019_May_10_1256,mf_amp_cond1,3.0.7,60.01231815654939,
civilians,,&&&&&&&&&,images/symbols/symbol_13.png,condition_files/AMP_rep3.csv,right,care.vice,,,,,,,,,,,,,,,,,,,,,0,2,2,2,0,52,52,52,,,,,,,,,,,,,1056.9995692735538,,,,,AMP_prac,right,0.9004649792332202,,,,,,,,,,,,,,,,,,,,,1,,,right,0.13257042679470032,,,,,,,,,,,,,,1011,2019_May_10_1256,mf_amp_cond1,3.0.7,60.01231815654939,
benefit,,&&&&&&&,images/symbols/symbol_72.png,condition_files/AMP_rep3.csv,left,fairness.virtue,,,,,,,,,,,,,,,,,,,,,0,2,2,2,0,53,53,53,,,,,,,,,,,,,1057.3496613842435,,,,,AMP_prac,right,0.9004649792332202,,,,,,,,,,,,,,,,,,,,,1,,,right,0.13250596215948462,,,,,,,,,,,,,,1011,2019_May_10_1256,mf_amp_cond1,3.0.7,60.01231815654939,
intelligence,,&&&&&&&&&&&&,images/symbols/symbol_15.png,condition_files/AMP_rep3.csv,left,loyalty.virtue,,,,,,,,,,,,,,,,,,,,,0,2,2,2,0,54,54,54,,,,,,,,,,,,,1058.0998550988734,,,,,AMP_prac,right,0.9004649792332202,,,,,,,,,,,,,,,,,,,,,1,,,right,0.5326973675983027,,,,,,,,,,,,,,1011,2019_May_10_1256,mf_amp_cond1,3.0.7,60.01231815654939,
stryct,,&&&&&&,images/symbols/symbol_6.png,condition_files/AMP_rep3.csv,None,nonword,,,,,,,,,,,,,,,,,,,,,0,2,2,2,0,55,55,55,,,,,,,,,,,,,1058.4332794097718,,,,,AMP_prac,right,0.9004649792332202,,,,,,,,,,,,,,,,,,,,,1,,,right,0.11516657541505992,,,,,,,,,,,,,,1011,2019_May_10_1256,mf_amp_cond1,3.0.7,60.01231815654939,
phluks,,&&&&&&,images/symbols/symbol_19.png,condition_files/AMP_rep3.csv,None,nonword,,,,,,,,,,,,,,,,,,,,,0,2,2,2,0,56,56,56,,,,,,,,,,,,,1058.8500715846894,,,,,AMP_prac,right,0.9004649792332202,,,,,,,,,,,,,,,,,,,,,1,,,right,0.19934810523409396,,,,,,,,,,,,,,1011,2019_May_10_1256,mf_amp_cond1,3.0.7,60.01231815654939,
unpleasant,,&&&&&&&&&,images/symbols/symbol_8.png,condition_files/AMP_rep3.csv,left,control,,,,,,,,,,,,,,,,,,,,,0,2,2,2,0,57,57,57,,,,,,,,,,,,,1059.5168685704703,,,,,AMP_prac,right,0.9004649792332202,,,,,,,,,,,,,,,,,,,,,1,,,right,0.4495286704041064,,,,,,,,,,,,,,1011,2019_May_10_1256,mf_amp_cond1,3.0.7,60.01231815654939,
shypse,,&&&&&&,images/symbols/symbol_67.png,condition_files/AMP_rep3.csv,None,nonword,,,,,,,,,,,,,,,,,,,,,0,2,2,2,0,58,58,58,,,,,,,,,,,,,1059.916976268054,,,,,AMP_prac,right,0.9004649792332202,,,,,,,,,,,,,,,,,,,,,1,,,right,0.1824910807190463,,,,,,,,,,,,,,1011,2019_May_10_1256,mf_amp_cond1,3.0.7,60.01231815654939,
victims,,&&&&&&&,images/symbols/symbol_55.png,condition_files/AMP_rep3.csv,right,care.vice,,,,,,,,,,,,,,,,,,,,,0,2,2,2,0,59,59,59,,,,,,,,,,,,,1060.2670513805933,,,,,AMP_prac,right,0.9004649792332202,,,,,,,,,,,,,,,,,,,,,1,,,right,0.13253610976971686,,,,,,,,,,,,,,1011,2019_May_10_1256,mf_amp_cond1,3.0.7,60.01231815654939,
peace,,&&&&&,images/symbols/symbol_29.png,condition_files/AMP_rep3.csv,left,care.virtue,,,,,,,,,,,,,,,,,,,,,0,2,2,2,0,60,60,60,,,,,,,,,,,,,1060.583818154526,,,,,AMP_prac,right,0.9004649792332202,,,,,,,,,,,,,,,,,,,,,1,,,right,0.09914983646012843,,,,,,,,,,,,,,1011,2019_May_10_1256,mf_amp_cond1,3.0.7,60.01231815654939,
blamed,,&&&&&&,images/symbols/symbol_60.png,condition_files/AMP_rep3.csv,right,loyalty.vice,,,,,,,,,,,,,,,,,,,,,0,2,2,2,0,61,61,61,,,,,,,,,,,,,1060.9172161663882,,,,,AMP_prac,right,0.9004649792332202,,,,,,,,,,,,,,,,,,,,,1,,,right,0.11587312072515488,,,,,,,,,,,,,,1011,2019_May_10_1256,mf_amp_cond1,3.0.7,60.01231815654939,
riot,,&&&&,images/symbols/symbol_31.png,condition_files/AMP_rep3.csv,right,authority.vice,,,,,,,,,,,,,,,,,,,,,0,2,2,2,0,62,62,62,,,,,,,,,,,,,1061.1839731263462,,,,,AMP_prac,right,0.9004649792332202,,,,,,,,,,,,,,,,,,,,,1,,,right,0.05024393938947469,,,,,,,,,,,,,,1011,2019_May_10_1256,mf_amp_cond1,3.0.7,60.01231815654939,
crime,,&&&&&,images/symbols/symbol_59.png,condition_files/AMP_rep3.csv,right,fairness.vice,,,,,,,,,,,,,,,,,,,,,0,2,2,2,0,63,63,63,,,,,,,,,,,,,1061.484022709541,,,,,AMP_prac,right,0.9004649792332202,,,,,,,,,,,,,,,,,,,,,1,,,right,0.08252084348350763,,,,,,,,,,,,,,1011,2019_May_10_1256,mf_amp_cond1,3.0.7,60.01231815654939,
injured,,&&&&&&&,images/symbols/symbol_32.png,condition_files/AMP_rep3.csv,right,care.vice,,,,,,,,,,,,,,,,,,,,,0,2,2,2,0,64,64,64,,,,,,,,,,,,,1061.7841094962787,,,,,AMP_prac,right,0.9004649792332202,,,,,,,,,,,,,,,,,,,,,1,,,right,0.08251346705947071,,,,,,,,,,,,,,1011,2019_May_10_1256,mf_amp_cond1,3.0.7,60.01231815654939,
ensure,,&&&&&&,images/symbols/symbol_1.png,condition_files/AMP_rep3.csv,left,fairness.virtue,,,,,,,,,,,,,,,,,,,,,0,2,2,2,0,65,65,65,,,,,,,,,,,,,1062.0674935247516,,,,,AMP_prac,right,0.9004649792332202,,,,,,,,,,,,,,,,,,,,,1,,,right,0.06580942578148097,,,,,,,,,,,,,,1011,2019_May_10_1256,mf_amp_cond1,3.0.7,60.01231815654939,
terrorist,,&&&&&&&&&,images/symbols/symbol_18.png,condition_files/AMP_rep3.csv,right,loyalty.vice,,,,,,,,,,,,,,,,,,,,,0,2,2,2,0,66,66,66,,,,,,,,,,,,,1062.4342762064189,,,,,AMP_prac,right,0.9004649792332202,,,,,,,,,,,,,,,,,,,,,1,,,right,0.14934213983360678,,,,,,,,,,,,,,1011,2019_May_10_1256,mf_amp_cond1,3.0.7,60.01231815654939,
faith,,&&&&&,images/symbols/symbol_76.png,condition_files/AMP_rep3.csv,left,sanctity.virtue,,,,,,,,,,,,,,,,,,,,,0,2,2,2,0,67,67,67,,,,,,,,,,,,,1063.1511295104865,,,,,AMP_prac,right,0.9004649792332202,,,,,,,,,,,,,,,,,,,,,1,,,right,0.4997325198492035,,,,,,,,,,,,,,1011,2019_May_10_1256,mf_amp_cond1,3.0.7,60.01231815654939,
respect,,&&&&&&&,images/symbols/symbol_78.png,condition_files/AMP_rep3.csv,left,sanctity.virtue,,,,,,,,,,,,,,,,,,,,,0,2,2,2,0,68,68,68,,,,,,,,,,,,,1064.2346978244605,,,,,AMP_prac,right,0.9004649792332202,,,,,,,,,,,,,,,,,,,,,1,,,right,0.8657932615606114,,,,,,,,,,,,,,1011,2019_May_10_1256,mf_amp_cond1,3.0.7,60.01231815654939,
refused,,&&&&&&&,images/symbols/symbol_38.png,condition_files/AMP_rep3.csv,right,authority.vice,,,,,,,,,,,,,,,,,,,,,0,2,2,2,0,69,69,69,,,,,,,,,,,,,1065.0015554903075,,,,,AMP_prac,right,0.9004649792332202,,,,,,,,,,,,,,,,,,,,,1,,,right,0.5491788294166327,,,,,,,,,,,,,,1011,2019_May_10_1256,mf_amp_cond1,3.0.7,60.01231815654939,
celebrated,,&&&&&&&&&&,images/symbols/symbol_58.png,condition_files/AMP_rep3.csv,left,authority.virtue,,,,,,,,,,,,,,,,,,,,,0,2,2,2,0,70,70,70,,,,,,,,,,,,,1065.4183216870297,,,,,AMP_prac,right,0.9004649792332202,,,,,,,,,,,,,,,,,,,,,1,,,right,0.19910628267098218,,,,,,,,,,,,,,1011,2019_May_10_1256,mf_amp_cond1,3.0.7,60.01231815654939,
accused,,&&&&&&&,images/symbols/symbol_34.png,condition_files/AMP_rep3.csv,right,fairness.vice,,,,,,,,,,,,,,,,,,,,,0,2,2,2,0,71,71,71,,,,,,,,,,,,,1065.851780058234,,,,,AMP_prac,right,0.9004649792332202,,,,,,,,,,,,,,,,,,,,,1,,,right,0.2156685657100752,,,,,,,,,,,,,,1011,2019_May_10_1256,mf_amp_cond1,3.0.7,60.01231815654939,
thinx,,&&&&&,images/symbols/symbol_45.png,condition_files/AMP_rep3.csv,None,nonword,,,,,,,,,,,,,,,,,,,,,0,2,2,2,0,72,72,72,,,,,,,,,,,,,1066.218513028347,,,,,AMP_prac,right,0.9004649792332202,,,,,,,,,,,,,,,,,,,,,1,,,right,0.14900474285241216,,,,,,,,,,,,,,1011,2019_May_10_1256,mf_amp_cond1,3.0.7,60.01231815654939,
actively,,&&&&&&&&,images/symbols/symbol_70.png,condition_files/AMP_rep3.csv,left,authority.virtue,,,,,,,,,,,,,,,,,,,,,0,2,2,2,0,73,73,73,,,,,,,,,,,,,1066.5686112326803,,,,,AMP_prac,right,0.9004649792332202,,,,,,,,,,,,,,,,,,,,,1,,,right,0.13264290941879153,,,,,,,,,,,,,,1011,2019_May_10_1256,mf_amp_cond1,3.0.7,60.01231815654939,
forced,,&&&&&&,images/symbols/symbol_23.png,condition_files/AMP_rep3.csv,right,fairness.vice,,,,,,,,,,,,,,,,,,,,,0,2,2,2,0,74,74,74,,,,,,,,,,,,,1067.1687569034984,,,,,AMP_prac,right,0.9004649792332202,,,,,,,,,,,,,,,,,,,,,1,,,right,0.3822173145599663,,,,,,,,,,,,,,1011,2019_May_10_1256,mf_amp_cond1,3.0.7,60.01231815654939,
conspiracy,,&&&&&&&&&&,images/symbols/symbol_40.png,condition_files/AMP_rep3.csv,right,sanctity.vice,,,,,,,,,,,,,,,,,,,,,0,2,2,2,0,75,75,75,,,,,,,,,,,,,1067.7022233569296,,,,,AMP_prac,right,0.9004649792332202,,,,,,,,,,,,,,,,,,,,,1,,,right,0.31597074773162603,,,,,,,,,,,,,,1011,2019_May_10_1256,mf_amp_cond1,3.0.7,60.01231815654939,
strong,,&&&&&&,images/symbols/symbol_37.png,condition_files/AMP_rep3.csv,left,loyalty.virtue,,,,,,,,,,,,,,,,,,,,,0,2,2,2,0,76,76,76,,,,,,,,,,,,,1068.152330605546,,,,,AMP_prac,right,0.9004649792332202,,,,,,,,,,,,,,,,,,,,,1,,,right,0.2169415020616725,,,,,,,,,,,,,,1011,2019_May_10_1256,mf_amp_cond1,3.0.7,60.01231815654939,
help,,&&&&,images/symbols/symbol_47.png,condition_files/AMP_rep3.csv,left,care.virtue,,,,,,,,,,,,,,,,,,,,,0,2,2,2,0,77,77,77,,,,,,,,,,,,,1068.5191136079375,,,,,AMP_prac,right,0.9004649792332202,,,,,,,,,,,,,,,,,,,,,1,,,right,0.148663176340051,,,,,,,,,,,,,,1011,2019_May_10_1256,mf_amp_cond1,3.0.7,60.01231815654939,
gun,,&&&,images/symbols/symbol_3.png,condition_files/AMP_rep3.csv,right,authority.vice,,,,,,,,,,,,,,,,,,,,,0,2,2,2,0,78,78,78,,,,,,,,,,,,,1068.9358618443366,,,,,AMP_prac,right,0.9004649792332202,,,,,,,,,,,,,,,,,,,,,1,,,right,0.19934425654355437,,,,,,,,,,,,,,1011,2019_May_10_1256,mf_amp_cond1,3.0.7,60.01231815654939,
illegal,,&&&&&&&,images/symbols/symbol_54.png,condition_files/AMP_rep3.csv,right,fairness.vice,,,,,,,,,,,,,,,,,,,,,0,2,2,2,0,79,79,79,,,,,,,,,,,,,1069.185942986398,,,,,AMP_prac,right,0.9004649792332202,,,,,,,,,,,,,,,,,,,,,1,,,right,0.032416096539236605,,,,,,,,,,,,,,1011,2019_May_10_1256,mf_amp_cond1,3.0.7,60.01231815654939,
voter,,&&&&&,images/symbols/symbol_82.png,condition_files/AMP_rep3.csv,right,fairness.vice,,,,,,,,,,,,,,,,,,,,,0,2,2,2,0,80,80,80,,,,,,,,,,,,,1069.5193342630519,,,,,AMP_prac,right,0.9004649792332202,,,,,,,,,,,,,,,,,,,,,1,,,right,0.11620282044168562,,,,,,,,,,,,,,1011,2019_May_10_1256,mf_amp_cond1,3.0.7,60.01231815654939,
spewd,,&&&&&,images/symbols/symbol_65.png,condition_files/AMP_rep3.csv,None,nonword,,,,,,,,,,,,,,,,,,,,,0,2,2,2,0,81,81,81,,,,,,,,,,,,,1069.8527499143966,,,,,AMP_prac,right,0.9004649792332202,,,,,,,,,,,,,,,,,,,,,1,,,right,0.11587280000094324,,,,,,,,,,,,,,1011,2019_May_10_1256,mf_amp_cond1,3.0.7,60.01231815654939,
,,,,condition_files/AMP_rep3.csv,,,,,,,,,,,,,,,,,,,,,,,0,2,2,2,,,,,,,,,,,,,,,,,,,,,,,,,,,,,,,,,,,,,,,,,,,,,,,,,,right,1.8339971160748973,,,,,,,,,,,,1011,2019_May_10_1256,mf_amp_cond1,3.0.7,60.01231815654939,
noost,,&&&&&,images/symbols/symbol_9.png,condition_files/AMP_rep2.csv,None,nonword,,,,,,,,,,,,,,,,,,,,,0,3,3,1,0,0,0,0,,,,,,,,,,,,,1072.2367978966795,,,,,AMP_prac,right,0.9004649792332202,,,,,,,,,,,,,,,,,,,,,1,,,right,0.31593418575357646,,,,,,,,,,,,,,1011,2019_May_10_1256,mf_amp_cond1,3.0.7,60.01231815654939,
improve,,&&&&&&&,images/symbols/symbol_27.png,condition_files/AMP_rep2.csv,left,care.virtue,,,,,,,,,,,,,,,,,,,,,0,3,3,1,0,1,1,1,,,,,,,,,,,,,1072.553423553938,,,,,AMP_prac,right,0.9004649792332202,,,,,,,,,,,,,,,,,,,,,1,,,right,0.09868992434348911,,,,,,,,,,,,,,1011,2019_May_10_1256,mf_amp_cond1,3.0.7,60.01231815654939,
death,,&&&&&,images/symbols/symbol_80.png,condition_files/AMP_rep2.csv,right,care.vice,,,,,,,,,,,,,,,,,,,,,0,3,3,1,0,2,2,2,,,,,,,,,,,,,1072.9035259276861,,,,,AMP_prac,right,0.9004649792332202,,,,,,,,,,,,,,,,,,,,,1,,,right,0.13306946656666696,,,,,,,,,,,,,,1011,2019_May_10_1256,mf_amp_cond1,3.0.7,60.01231815654939,
ability,,&&&&&&&,images/symbols/symbol_20.png,condition_files/AMP_rep2.csv,left,authority.virtue,,,,,,,,,,,,,,,,,,,,,0,3,3,1,0,3,3,3,,,,,,,,,,,,,1073.48697621678,,,,,AMP_prac,right,0.9004649792332202,,,,,,,,,,,,,,,,,,,,,1,,,right,0.3665575364138931,,,,,,,,,,,,,,1011,2019_May_10_1256,mf_amp_cond1,3.0.7,60.01231815654939,
protect,,&&&&&&&,images/symbols/symbol_48.png,condition_files/AMP_rep2.csv,left,fairness.virtue,,,,,,,,,,,,,,,,,,,,,0,3,3,1,0,4,4,4,,,,,,,,,,,,,1073.9371065571904,,,,,AMP_prac,right,0.9004649792332202,,,,,,,,,,,,,,,,,,,,,1,,,right,0.23263976641464978,,,,,,,,,,,,,,1011,2019_May_10_1256,mf_amp_cond1,3.0.7,60.01231815654939,
spraize,,&&&&&&&,images/symbols/symbol_77.png,condition_files/AMP_rep2.csv,None,nonword,,,,,,,,,,,,,,,,,,,,,0,3,3,1,0,5,5,5,,,,,,,,,,,,,1074.3538528692443,,,,,AMP_prac,right,0.9004649792332202,,,,,,,,,,,,,,,,,,,,,1,,,right,0.19938498793635517,,,,,,,,,,,,,,1011,2019_May_10_1256,mf_amp_cond1,3.0.7,60.01231815654939,
sharing,,&&&&&&&,images/symbols/symbol_33.png,condition_files/AMP_rep2.csv,left,loyalty.virtue,,,,,,,,,,,,,,,,,,,,,0,3,3,1,0,6,6,6,,,,,,,,,,,,,1074.7373004643014,,,,,AMP_prac,right,0.9004649792332202,,,,,,,,,,,,,,,,,,,,,1,,,right,0.16614496265538037,,,,,,,,,,,,,,1011,2019_May_10_1256,mf_amp_cond1,3.0.7,60.01231815654939,
protesters,,&&&&&&&&&&,images/symbols/symbol_25.png,condition_files/AMP_rep2.csv,right,authority.vice,,,,,,,,,,,,,,,,,,,,,0,3,3,1,0,7,7,7,,,,,,,,,,,,,1075.187399053597,,,,,AMP_prac,right,0.9004649792332202,,,,,,,,,,,,,,,,,,,,,1,,,right,0.23256439727265388,,,,,,,,,,,,,,1011,2019_May_10_1256,mf_amp_cond1,3.0.7,60.01231815654939,
slavery,,&&&&&&&,images/symbols/symbol_46.png,condition_files/AMP_rep2.csv,right,loyalty.vice,,,,,,,,,,,,,,,,,,,,,0,3,3,1,0,8,8,8,,,,,,,,,,,,,1075.5041376041481,,,,,AMP_prac,right,0.9004649792332202,,,,,,,,,,,,,,,,,,,,,1,,,right,0.09924829727970064,,,,,,,,,,,,,,1011,2019_May_10_1256,mf_amp_cond1,3.0.7,60.01231815654939,
hand,,&&&&,images/symbols/symbol_73.png,condition_files/AMP_rep2.csv,left,sanctity.virtue,,,,,,,,,,,,,,,,,,,,,0,3,3,1,0,9,9,9,,,,,,,,,,,,,1075.8707775656367,,,,,AMP_prac,right,0.9004649792332202,,,,,,,,,,,,,,,,,,,,,1,,,right,0.14902430668007582,,,,,,,,,,,,,,1011,2019_May_10_1256,mf_amp_cond1,3.0.7,60.01231815654939,
army,,&&&&,images/symbols/symbol_52.png,condition_files/AMP_rep2.csv,right,loyalty.vice,,,,,,,,,,,,,,,,,,,,,0,3,3,1,0,10,10,10,,,,,,,,,,,,,1076.2043147697113,,,,,AMP_prac,right,0.9004649792332202,,,,,,,,,,,,,,,,,,,,,1,,,right,0.11626856809016317,,,,,,,,,,,,,,1011,2019_May_10_1256,mf_amp_cond1,3.0.7,60.01231815654939,
values,,&&&&&&,images/symbols/symbol_5.png,condition_files/AMP_rep2.csv,left,sanctity.virtue,,,,,,,,,,,,,,,,,,,,,0,3,3,1,0,11,11,11,,,,,,,,,,,,,1076.5210677527357,,,,,AMP_prac,right,0.9004649792332202,,,,,,,,,,,,,,,,,,,,,1,,,right,0.09910750132985413,,,,,,,,,,,,,,1011,2019_May_10_1256,mf_amp_cond1,3.0.7,60.01231815654939,
squintce,,&&&&&&&&,images/symbols/symbol_49.png,condition_files/AMP_rep2.csv,None,nonword,,,,,,,,,,,,,,,,,,,,,0,3,3,1,0,12,12,12,,,,,,,,,,,,,1076.837799888919,,,,,AMP_prac,right,0.9004649792332202,,,,,,,,,,,,,,,,,,,,,1,,,right,0.08357184194028378,,,,,,,,,,,,,,1011,2019_May_10_1256,mf_amp_cond1,3.0.7,60.01231815654939,
violations,,&&&&&&&&&&,images/symbols/symbol_50.png,condition_files/AMP_rep2.csv,right,sanctity.vice,,,,,,,,,,,,,,,,,,,,,0,3,3,1,0,13,13,13,,,,,,,,,,,,,1077.0878925769357,,,,,AMP_prac,right,0.9004649792332202,,,,,,,,,,,,,,,,,,,,,1,,,right,0.031965806148946285,,,,,,,,,,,,,,1011,2019_May_10_1256,mf_amp_cond1,3.0.7,60.01231815654939,
restore,,&&&&&&&,images/symbols/symbol_43.png,condition_files/AMP_rep2.csv,left,care.virtue,,,,,,,,,,,,,,,,,,,,,0,3,3,1,0,14,14,14,,,,,,,,,,,,,1077.4546271506697,,,,,AMP_prac,right,0.9004649792332202,,,,,,,,,,,,,,,,,,,,,1,,,right,0.1492866553599015,,,,,,,,,,,,,,1011,2019_May_10_1256,mf_amp_cond1,3.0.7,60.01231815654939,
integrity,,&&&&&&&&&,images/symbols/symbol_11.png,condition_files/AMP_rep2.csv,left,fairness.virtue,,,,,,,,,,,,,,,,,,,,,0,3,3,1,0,15,15,15,,,,,,,,,,,,,1077.721350114327,,,,,AMP_prac,right,0.9004649792332202,,,,,,,,,,,,,,,,,,,,,1,,,right,0.04927280033007264,,,,,,,,,,,,,,1011,2019_May_10_1256,mf_amp_cond1,3.0.7,60.01231815654939,
ban,,&&&,images/symbols/symbol_10.png,condition_files/AMP_rep2.csv,right,loyalty.vice,,,,,,,,,,,,,,,,,,,,,0,3,3,1,0,16,16,16,,,,,,,,,,,,,1078.0047524237307,,,,,AMP_prac,right,0.9004649792332202,,,,,,,,,,,,,,,,,,,,,1,,,right,0.06593707227148116,,,,,,,,,,,,,,1011,2019_May_10_1256,mf_amp_cond1,3.0.7,60.01231815654939,
failure,,&&&&&&&,images/symbols/symbol_79.png,condition_files/AMP_rep2.csv,right,loyalty.vice,,,,,,,,,,,,,,,,,,,,,0,3,3,1,0,17,17,17,,,,,,,,,,,,,1078.4048633285565,,,,,AMP_prac,right,0.9004649792332202,,,,,,,,,,,,,,,,,,,,,1,,,right,0.18251609685830772,,,,,,,,,,,,,,1011,2019_May_10_1256,mf_amp_cond1,3.0.7,60.01231815654939,
critics,,&&&&&&&,images/symbols/symbol_53.png,condition_files/AMP_rep2.csv,right,loyalty.vice,,,,,,,,,,,,,,,,,,,,,0,3,3,1,0,18,18,18,,,,,,,,,,,,,1078.9883335023187,,,,,AMP_prac,right,0.9004649792332202,,,,,,,,,,,,,,,,,,,,,1,,,right,0.36591866286471486,,,,,,,,,,,,,,1011,2019_May_10_1256,mf_amp_cond1,3.0.7,60.01231815654939,
abuse,,&&&&&,images/symbols/symbol_68.png,condition_files/AMP_rep2.csv,right,sanctity.vice,,,,,,,,,,,,,,,,,,,,,0,3,3,1,0,19,19,19,,,,,,,,,,,,,1079.288406818756,,,,,AMP_prac,right,0.9004649792332202,,,,,,,,,,,,,,,,,,,,,1,,,right,0.06690981495194137,,,,,,,,,,,,,,1011,2019_May_10_1256,mf_amp_cond1,3.0.7,60.01231815654939,
hate,,&&&&,images/symbols/symbol_44.png,condition_files/AMP_rep2.csv,right,fairness.vice,,,,,,,,,,,,,,,,,,,,,0,3,3,1,0,20,20,20,,,,,,,,,,,,,1079.6551885382505,,,,,AMP_prac,right,0.9004649792332202,,,,,,,,,,,,,,,,,,,,,1,,,right,0.14836586930323392,,,,,,,,,,,,,,1011,2019_May_10_1256,mf_amp_cond1,3.0.7,60.01231815654939,
win,,&&&,images/symbols/symbol_62.png,condition_files/AMP_rep2.csv,left,fairness.virtue,,,,,,,,,,,,,,,,,,,,,0,3,3,1,0,21,21,21,,,,,,,,,,,,,1079.9052209309302,,,,,AMP_prac,right,0.9004649792332202,,,,,,,,,,,,,,,,,,,,,1,,,right,0.032536687212996185,,,,,,,,,,,,,,1011,2019_May_10_1256,mf_amp_cond1,3.0.7,60.01231815654939,
serial,,&&&&&&,images/symbols/symbol_26.png,condition_files/AMP_rep2.csv,right,sanctity.vice,,,,,,,,,,,,,,,,,,,,,0,3,3,1,0,22,22,22,,,,,,,,,,,,,1080.2053029069211,,,,,AMP_prac,right,0.9004649792332202,,,,,,,,,,,,,,,,,,,,,1,,,right,0.08248139510396868,,,,,,,,,,,,,,1011,2019_May_10_1256,mf_amp_cond1,3.0.7,60.01231815654939,
agreement,,&&&&&&&&&,images/symbols/symbol_51.png,condition_files/AMP_rep2.csv,left,fairness.virtue,,,,,,,,,,,,,,,,,,,,,0,3,3,1,0,23,23,23,,,,,,,,,,,,,1080.438724908512,,,,,AMP_prac,right,0.9004649792332202,,,,,,,,,,,,,,,,,,,,,1,,,right,0.016378510859794915,,,,,,,,,,,,,,1011,2019_May_10_1256,mf_amp_cond1,3.0.7,60.01231815654939,
prison,,&&&&&&,images/symbols/symbol_28.png,condition_files/AMP_rep2.csv,right,fairness.vice,,,,,,,,,,,,,,,,,,,,,0,3,3,1,0,24,24,24,,,,,,,,,,,,,1080.8221256785328,,,,,AMP_prac,right,0.9004649792332202,,,,,,,,,,,,,,,,,,,,,1,,,right,0.16601956135127693,,,,,,,,,,,,,,1011,2019_May_10_1256,mf_amp_cond1,3.0.7,60.01231815654939,
loyalty,,&&&&&&&,images/symbols/symbol_56.png,condition_files/AMP_rep2.csv,left,loyalty.virtue,,,,,,,,,,,,,,,,,,,,,0,3,3,1,0,25,25,25,,,,,,,,,,,,,1081.4556236265926,,,,,AMP_prac,right,0.9004649792332202,,,,,,,,,,,,,,,,,,,,,1,,,right,0.4159252697136253,,,,,,,,,,,,,,1011,2019_May_10_1256,mf_amp_cond1,3.0.7,60.01231815654939,
coacs,,&&&&&,images/symbols/symbol_12.png,condition_files/AMP_rep2.csv,None,nonword,,,,,,,,,,,,,,,,,,,,,0,3,3,1,0,26,26,26,,,,,,,,,,,,,1081.6890081040328,,,,,AMP_prac,right,0.9004649792332202,,,,,,,,,,,,,,,,,,,,,1,,,right,0.015892620547674596,,,,,,,,,,,,,,1011,2019_May_10_1256,mf_amp_cond1,3.0.7,60.01231815654939,
interests,,&&&&&&&&&,images/symbols/symbol_75.png,condition_files/AMP_rep2.csv,left,fairness.virtue,,,,,,,,,,,,,,,,,,,,,0,3,3,1,0,27,27,27,,,,,,,,,,,,,1082.055753261433,,,,,AMP_prac,right,0.9004649792332202,,,,,,,,,,,,,,,,,,,,,1,,,right,0.14923983020707965,,,,,,,,,,,,,,1011,2019_May_10_1256,mf_amp_cond1,3.0.7,60.01231815654939,
perfect,,&&&&&&&,images/symbols/symbol_42.png,condition_files/AMP_rep2.csv,left,sanctity.virtue,,,,,,,,,,,,,,,,,,,,,0,3,3,1,0,28,28,28,,,,,,,,,,,,,1082.5058768667514,,,,,AMP_prac,right,0.9004649792332202,,,,,,,,,,,,,,,,,,,,,1,,,right,0.23248999030329287,,,,,,,,,,,,,,1011,2019_May_10_1256,mf_amp_cond1,3.0.7,60.01231815654939,
peaceful,,&&&&&&&&,images/symbols/symbol_35.png,condition_files/AMP_rep2.csv,left,authority.virtue,,,,,,,,,,,,,,,,,,,,,0,3,3,1,0,29,29,29,,,,,,,,,,,,,1083.0560043848818,,,,,AMP_prac,right,0.9004649792332202,,,,,,,,,,,,,,,,,,,,,1,,,right,0.3325044868979603,,,,,,,,,,,,,,1011,2019_May_10_1256,mf_amp_cond1,3.0.7,60.01231815654939,
safe,,&&&&,images/symbols/symbol_66.png,condition_files/AMP_rep2.csv,left,care.virtue,,,,,,,,,,,,,,,,,,,,,0,3,3,1,0,30,30,30,,,,,,,,,,,,,1083.6561660917941,,,,,AMP_prac,right,0.9004649792332202,,,,,,,,,,,,,,,,,,,,,1,,,right,0.3826259112684056,,,,,,,,,,,,,,1011,2019_May_10_1256,mf_amp_cond1,3.0.7,60.01231815654939,
rebels,,&&&&&&,images/symbols/symbol_30.png,condition_files/AMP_rep2.csv,right,authority.vice,,,,,,,,,,,,,,,,,,,,,0,3,3,1,0,31,31,31,,,,,,,,,,,,,1084.0396114417817,,,,,AMP_prac,right,0.9004649792332202,,,,,,,,,,,,,,,,,,,,,1,,,right,0.16583610977977514,,,,,,,,,,,,,,1011,2019_May_10_1256,mf_amp_cond1,3.0.7,60.01231815654939,
suicide,,&&&&&&&,images/symbols/symbol_81.png,condition_files/AMP_rep2.csv,right,care.vice,,,,,,,,,,,,,,,,,,,,,0,3,3,1,0,32,32,32,,,,,,,,,,,,,1084.3563294663327,,,,,AMP_prac,right,0.9004649792332202,,,,,,,,,,,,,,,,,,,,,1,,,right,0.09894906589761376,,,,,,,,,,,,,,1011,2019_May_10_1256,mf_amp_cond1,3.0.7,60.01231815654939,
friends,,&&&&&&&,images/symbols/symbol_36.png,condition_files/AMP_rep2.csv,left,loyalty.virtue,,,,,,,,,,,,,,,,,,,,,0,3,3,1,0,33,33,33,,,,,,,,,,,,,1084.7397546110442,,,,,AMP_prac,right,0.9004649792332202,,,,,,,,,,,,,,,,,,,,,1,,,right,0.16594034363515675,,,,,,,,,,,,,,1011,2019_May_10_1256,mf_amp_cond1,3.0.7,60.01231815654939,
officers,,&&&&&&&&,images/symbols/symbol_71.png,condition_files/AMP_rep2.csv,right,authority.vice,,,,,,,,,,,,,,,,,,,,,0,3,3,1,0,34,34,34,,,,,,,,,,,,,1085.27322266798,,,,,AMP_prac,right,0.9004649792332202,,,,,,,,,,,,,,,,,,,,,1,,,right,0.3159364308230579,,,,,,,,,,,,,,1011,2019_May_10_1256,mf_amp_cond1,3.0.7,60.01231815654939,
embrace,,&&&&&&&,images/symbols/symbol_69.png,condition_files/AMP_rep2.csv,left,authority.virtue,,,,,,,,,,,,,,,,,,,,,0,3,3,1,0,35,35,35,,,,,,,,,,,,,1085.7566735344008,,,,,AMP_prac,right,0.9004649792332202,,,,,,,,,,,,,,,,,,,,,1,,,right,0.2657749163918197,,,,,,,,,,,,,,1011,2019_May_10_1256,mf_amp_cond1,3.0.7,60.01231815654939,
penalty,,&&&&&&&,images/symbols/symbol_39.png,condition_files/AMP_rep2.csv,right,authority.vice,,,,,,,,,,,,,,,,,,,,,0,3,3,1,0,36,36,36,,,,,,,,,,,,,1086.3900438359706,,,,,AMP_prac,right,0.9004649792332202,,,,,,,,,,,,,,,,,,,,,1,,,right,0.4154807523591444,,,,,,,,,,,,,,1011,2019_May_10_1256,mf_amp_cond1,3.0.7,60.01231815654939,
great,,&&&&&,images/symbols/symbol_41.png,condition_files/AMP_rep2.csv,left,loyalty.virtue,,,,,,,,,,,,,,,,,,,,,0,3,3,1,0,37,37,37,,,,,,,,,,,,,1086.9569716112455,,,,,AMP_prac,right,0.9004649792332202,,,,,,,,,,,,,,,,,,,,,1,,,right,0.34984002506826073,,,,,,,,,,,,,,1011,2019_May_10_1256,mf_amp_cond1,3.0.7,60.01231815654939,
war,,&&&,images/symbols/symbol_61.png,condition_files/AMP_rep2.csv,right,sanctity.vice,,,,,,,,,,,,,,,,,,,,,0,3,3,1,0,38,38,38,,,,,,,,,,,,,1087.290383414016,,,,,AMP_prac,right,0.9004649792332202,,,,,,,,,,,,,,,,,,,,,1,,,right,0.11598697619047016,,,,,,,,,,,,,,1011,2019_May_10_1256,mf_amp_cond1,3.0.7,60.01231815654939,
health,,&&&&&&,images/symbols/symbol_57.png,condition_files/AMP_rep2.csv,left,care.virtue,,,,,,,,,,,,,,,,,,,,,0,3,3,1,0,39,39,39,,,,,,,,,,,,,1087.6404857876478,,,,,AMP_prac,right,0.9004649792332202,,,,,,,,,,,,,,,,,,,,,1,,,right,0.13267850934062153,,,,,,,,,,,,,,1011,2019_May_10_1256,mf_amp_cond1,3.0.7,60.01231815654939,
pleasant,,&&&&&&&,images/symbols/symbol_64.png,condition_files/AMP_rep2.csv,right,control,,,,,,,,,,,,,,,,,,,,,0,3,3,1,0,40,40,40,,,,,,,,,,,,,1088.0405803357717,,,,,AMP_prac,right,0.9004649792332202,,,,,,,,,,,,,,,,,,,,,1,,,right,0.18242340895812958,,,,,,,,,,,,,,1011,2019_May_10_1256,mf_amp_cond1,3.0.7,60.01231815654939,
energy,,&&&&&&,images/symbols/symbol_2.png,condition_files/AMP_rep2.csv,left,sanctity.virtue,,,,,,,,,,,,,,,,,,,,,0,3,3,1,0,41,41,41,,,,,,,,,,,,,1088.4573397974018,,,,,AMP_prac,right,0.9004649792332202,,,,,,,,,,,,,,,,,,,,,1,,,right,0.1993593304650858,,,,,,,,,,,,,,1011,2019_May_10_1256,mf_amp_cond1,3.0.7,60.01231815654939,
killed,,&&&&&&,images/symbols/symbol_63.png,condition_files/AMP_rep2.csv,right,care.vice,,,,,,,,,,,,,,,,,,,,,0,3,3,1,0,42,42,42,,,,,,,,,,,,,1088.7907650703564,,,,,AMP_prac,right,0.9004649792332202,,,,,,,,,,,,,,,,,,,,,1,,,right,0.11562135571148247,,,,,,,,,,,,,,1011,2019_May_10_1256,mf_amp_cond1,3.0.7,60.01231815654939,
torture,,&&&&&&&,images/symbols/symbol_74.png,condition_files/AMP_rep2.csv,right,care.vice,,,,,,,,,,,,,,,,,,,,,0,3,3,1,0,43,43,43,,,,,,,,,,,,,1089.2242061226862,,,,,AMP_prac,right,0.9004649792332202,,,,,,,,,,,,,,,,,,,,,1,,,right,0.20028973813168705,,,,,,,,,,,,,,1011,2019_May_10_1256,mf_amp_cond1,3.0.7,60.01231815654939,
party,,&&&&&,images/symbols/symbol_21.png,condition_files/AMP_rep2.csv,left,loyalty.virtue,,,,,,,,,,,,,,,,,,,,,0,3,3,1,0,44,44,44,,,,,,,,,,,,,1089.5242688554572,,,,,AMP_prac,right,0.9004649792332202,,,,,,,,,,,,,,,,,,,,,1,,,right,0.08215009176637977,,,,,,,,,,,,,,1011,2019_May_10_1256,mf_amp_cond1,3.0.7,60.01231815654939,
honored,,&&&&&&&,images/symbols/symbol_7.png,condition_files/AMP_rep2.csv,left,authority.virtue,,,,,,,,,,,,,,,,,,,,,0,3,3,1,0,45,45,45,,,,,,,,,,,,,1089.8410285735736,,,,,AMP_prac,right,0.9004649792332202,,,,,,,,,,,,,,,,,,,,,1,,,right,0.09942533459980041,,,,,,,,,,,,,,1011,2019_May_10_1256,mf_amp_cond1,3.0.7,60.01231815654939,
