words,masks,symbols,conditionfile,corr_ans,category,mask,LDT_trials_cond2.thisRepN,LDT_trials_cond2.thisTrialN,LDT_trials_cond2.thisN,LDT_trials_cond2.thisIndex,logo_trials.thisRepN,logo_trials.thisTrialN,logo_trials.thisN,logo_trials.thisIndex,AMP_pracs.thisRepN,AMP_pracs.thisTrialN,AMP_pracs.thisN,AMP_pracs.thisIndex,trials_loop.thisRepN,trials_loop.thisTrialN,trials_loop.thisN,trials_loop.thisIndex,AMP_trials.thisRepN,AMP_trials.thisTrialN,AMP_trials.thisN,AMP_trials.thisIndex,memtask_trials.thisRepN,memtask_trials.thisTrialN,memtask_trials.thisN,memtask_trials.thisIndex,LDT_cond1.thisRepN,LDT_cond1.thisTrialN,LDT_cond1.thisN,LDT_cond1.thisIndex,LDT_pracs.thisRepN,LDT_pracs.thisTrialN,LDT_pracs.thisN,LDT_pracs.thisIndex,LDT_trials.thisRepN,LDT_trials.thisTrialN,LDT_trials.thisN,LDT_trials.thisIndex,begin_key.keys,begin_key.rt,key_resp_instr.keys,key_resp_instr.rt,exp_time,resp_sym_rate.keys,resp_sym_rate.rt,sym_resp_1.keys,sym_resp_1.rt,sym_resp_2.keys,sym_resp_2.rt,sym_resp_trial.keys,sym_resp_trial.rt,symbol_index,resp_AMP_ready1.keys,resp_AMP_ready1.rt,resp_AMP.keys,resp_AMP.rt,task,keypress,RT,prime_dur,resp_AMP_ready.keys,resp_AMP_ready.rt,resp_AMP_trials.keys,resp_AMP_trials.rt,rest_key_resp.keys,rest_key_resp.rt,AMP_nonword_rating.response,AMP_nonword_rating.rt,AMP_word_rating.response,AMP_word_rating.rt,AMP_random_rating.response,AMP_random_rating.rt,key_resp_instr_memtask.keys,key_resp_instr_memtask.rt,resp_memtask.keys,resp_memtask.corr,resp_memtask.rt,corr,key_resp_LDT_instr.keys,key_resp_LDT_instr.rt,resp_LDT_prac.keys,resp_LDT_prac.rt,resp_LDT_ready.keys,resp_LDT_ready.rt,resp_LDT_trial.keys,resp_LDT_trial.rt,LDT_rating.response,LDT_rating.rt,participant ID,date,expName,psychopyVersion,frameRate,
,,,,,,,,,,,,,,,,,,,,,,,,,,,,,,,,,,,,,,,,,,,right,78.53680185300175,,,,,,,,,,,,,,,,,,,,,,,,,,,,,,,,,,,,,,,,,,,,,,,,,1012,2019_May_15_1702,mf_amp_cond1,3.0.7,59.98318606713136,
,,,,,,,,,,,,,,,,,,,,,,,,,,,,,,,,,,,,,,,,,,,,,right,2.4509170716312383,,,,,,,,,,,,,,,,,,,,,,,,,,,,,,,,,,,,,,,,,,,,,,,1012,2019_May_15_1702,mf_amp_cond1,3.0.7,59.98318606713136,
,,,,,,,,,,,,,,,,,,,,,,,,,,,,,,,,,,,,,,,,,,,,,,,119.05217500628612,right,3.8846457051514562,,,,,,,,,,,,,,,,,,,,,,,,,,,,,,,,,,,,,,,,,,,,1012,2019_May_15_1702,mf_amp_cond1,3.0.7,59.98318606713136,
,,,,,,,,,,,,,,,,,,,,,,,,,,,,,,,,,,,,,,,,,,,,,,,185.00253370143628,,,right,4.317959004069394,,,,,,,,,,,,,,,,,,,,,,,,,,,,,,,,,,,,,,,,,,1012,2019_May_15_1702,mf_amp_cond1,3.0.7,59.98318606713136,
,,,,,,,,,,,,,,,,,,,,,,,,,,,,,,,,,,,,,,,,,,,,,,,,,,,,right,3.5678291117804974,,,,,,,,,,,,,,,,,,,,,,,,,,,,,,,,,,,,,,,,1012,2019_May_15_1702,mf_amp_cond1,3.0.7,59.98318606713136,
,,,,,,,,,,,,,,,,,,,,,,,,,,,,,,,,,,,,,,,,,,,,,,,208.9248799217952,,,,,,,left,1.6006402246590596,39,right,3.901234072960392,,,,,,,,,,,,,,,,,,,,,,,,,,,,,,,,,,,1012,2019_May_15_1702,mf_amp_cond1,3.0.7,59.98318606713136,
banana,&&&&&&,images/symbols/symbol_68.png,,,,,,,,,,,,,0,0,0,1,,,,,,,,,,,,,,,,,,,,,,,,,,,,,415.9943177736269,,,,,,,,,,,,right,2.100793529632142,AMP_prac,right,2.100793529632142,3,,,,,,,,,,,,,,,,,,,,,,,,,,,,,1012,2019_May_15_1702,mf_amp_cond1,3.0.7,59.98318606713136,
scarf,&&&&&,images/symbols/symbol_54.png,,,,,,,,,,,,,0,1,1,3,,,,,,,,,,,,,,,,,,,,,,,,,,,,,417.56124277093284,,,,,,,,,,,,right,1.3339165122926033,AMP_prac,right,1.3339165122926033,3,,,,,,,,,,,,,,,,,,,,,,,,,,,,,1012,2019_May_15_1702,mf_amp_cond1,3.0.7,59.98318606713136,
car,&&&,images/symbols/symbol_9.png,,,,,,,,,,,,,0,2,2,0,,,,,,,,,,,,,,,,,,,,,,,,,,,,,418.96157914385265,,,,,,,,,,,,left,1.167206975825252,AMP_prac,left,1.167206975825252,3,,,,,,,,,,,,,,,,,,,,,,,,,,,,,1012,2019_May_15_1702,mf_amp_cond1,3.0.7,59.98318606713136,
keyboard,&&&&&&&&,images/symbols/symbol_40.png,,,,,,,,,,,,,0,3,3,2,,,,,,,,,,,,,,,,,,,,,,,,,,,,,420.0118445731322,,,,,,,,,,,,left,0.831926754860774,AMP_prac,left,0.831926754860774,3,,,,,,,,,,,,,,,,,,,,,,,,,,,,,1012,2019_May_15_1702,mf_amp_cond1,3.0.7,59.98318606713136,
,,,,,,,,,,,,,,,,,,,,,,,,,,,,,,,,,,,,,,,,,,,,,,,,,,,,,,,,,,,,,,,,,right,1.6673519420339744,,,,,,,,,,,,,,,,,,,,,,,,,,,1012,2019_May_15_1702,mf_amp_cond1,3.0.7,59.98318606713136,
serial,&&&&&&,images/symbols/symbol_21.png,condition_files/AMP_rep3.csv,right,sanctity.vice,,,,,,,,,,,,,,0,0,0,2,0,0,0,0,,,,,,,,,,,,,,,,,,,,,442.8511145720546,,,,,,,,,,,,,,AMP_prac,left,0.831926754860774,3,,,left,0.900482301293664,,,,,,,,,,,,,,,,,,,,,,,,,1012,2019_May_15_1702,mf_amp_cond1,3.0.7,59.98318606713136,
safety,&&&&&&,images/symbols/symbol_9.png,condition_files/AMP_rep3.csv,left,care.virtue,,,,,,,,,,,,,,0,0,0,2,0,1,1,1,,,,,,,,,,,,,,,,,,,,,444.48472434611256,,,,,,,,,,,,,,AMP_prac,left,0.831926754860774,3,,,left,1.415835569832666,,,,,,,,,,,,,,,,,,,,,,,,,1012,2019_May_15_1702,mf_amp_cond1,3.0.7,59.98318606713136,
rheys,&&&&&,images/symbols/symbol_4.png,condition_files/AMP_rep3.csv,None,nonword,,,,,,,,,,,,,,0,0,0,2,0,2,2,2,,,,,,,,,,,,,,,,,,,,,445.7350245416245,,,,,,,,,,,,,,AMP_prac,left,0.831926754860774,3,,,left,1.032492956951387,,,,,,,,,,,,,,,,,,,,,,,,,1012,2019_May_15_1702,mf_amp_cond1,3.0.7,59.98318606713136,
care,&&&&,images/symbols/symbol_68.png,condition_files/AMP_rep3.csv,left,care.virtue,,,,,,,,,,,,,,0,0,0,2,0,3,3,3,,,,,,,,,,,,,,,,,,,,,447.06871879377843,,,,,,,,,,,,,,AMP_prac,left,0.831926754860774,3,,,right,1.1005298963940504,,,,,,,,,,,,,,,,,,,,,,,,,1012,2019_May_15_1702,mf_amp_cond1,3.0.7,59.98318606713136,
corruption,&&&&&&&&&&,images/symbols/symbol_38.png,condition_files/AMP_rep3.csv,right,sanctity.vice,,,,,,,,,,,,,,0,0,0,2,0,4,4,4,,,,,,,,,,,,,,,,,,,,,448.8191694077681,,,,,,,,,,,,,,AMP_prac,left,0.831926754860774,3,,,right,1.5325715337681913,,,,,,,,,,,,,,,,,,,,,,,,,1012,2019_May_15_1702,mf_amp_cond1,3.0.7,59.98318606713136,
suicide,&&&&&&&,images/symbols/symbol_14.png,condition_files/AMP_rep3.csv,right,care.vice,,,,,,,,,,,,,,0,0,0,2,0,5,5,5,,,,,,,,,,,,,,,,,,,,,450.0028043905518,,,,,,,,,,,,,,AMP_prac,left,0.831926754860774,3,,,right,0.9657850882368848,,,,,,,,,,,,,,,,,,,,,,,,,1012,2019_May_15_1702,mf_amp_cond1,3.0.7,59.98318606713136,
hope,&&&&,images/symbols/symbol_79.png,condition_files/AMP_rep3.csv,left,loyalty.virtue,,,,,,,,,,,,,,0,0,0,2,0,6,6,6,,,,,,,,,,,,,,,,,,,,,451.1698121982008,,,,,,,,,,,,,,AMP_prac,left,0.831926754860774,3,,,right,0.9491925510460533,,,,,,,,,,,,,,,,,,,,,,,,,1012,2019_May_15_1702,mf_amp_cond1,3.0.7,59.98318606713136,
squauzz,&&&&&&&,images/symbols/symbol_11.png,condition_files/AMP_rep3.csv,None,nonword,,,,,,,,,,,,,,0,0,0,2,0,7,7,7,,,,,,,,,,,,,,,,,,,,,452.3700419632273,,,,,,,,,,,,,,AMP_prac,left,0.831926754860774,3,,,right,0.9821694770440672,,,,,,,,,,,,,,,,,,,,,,,,,1012,2019_May_15_1702,mf_amp_cond1,3.0.7,59.98318606713136,
arrests,&&&&&&&,images/symbols/symbol_81.png,condition_files/AMP_rep3.csv,right,authority.vice,,,,,,,,,,,,,,0,0,0,2,0,8,8,8,,,,,,,,,,,,,,,,,,,,,453.7203848788698,,,,,,,,,,,,,,AMP_prac,left,0.831926754860774,3,,,left,1.1171987653497126,,,,,,,,,,,,,,,,,,,,,,,,,1012,2019_May_15_1702,mf_amp_cond1,3.0.7,59.98318606713136,
officers,&&&&&&&&,images/symbols/symbol_46.png,condition_files/AMP_rep3.csv,right,authority.vice,,,,,,,,,,,,,,0,0,0,2,0,9,9,9,,,,,,,,,,,,,,,,,,,,,454.7539705346559,,,,,,,,,,,,,,AMP_prac,left,0.831926754860774,3,,,left,0.8157011232956393,,,,,,,,,,,,,,,,,,,,,,,,,1012,2019_May_15_1702,mf_amp_cond1,3.0.7,59.98318606713136,
commitment,&&&&&&&&&&,images/symbols/symbol_26.png,condition_files/AMP_rep3.csv,left,sanctity.virtue,,,,,,,,,,,,,,0,0,0,2,0,10,10,10,,,,,,,,,,,,,,,,,,,,,456.03764599251815,,,,,,,,,,,,,,AMP_prac,left,0.831926754860774,3,,,left,1.065923383434324,,,,,,,,,,,,,,,,,,,,,,,,,1012,2019_May_15_1702,mf_amp_cond1,3.0.7,59.98318606713136,
rebels,&&&&&&,images/symbols/symbol_31.png,condition_files/AMP_rep3.csv,right,authority.vice,,,,,,,,,,,,,,0,0,0,2,0,11,11,11,,,,,,,,,,,,,,,,,,,,,457.1546093481395,,,,,,,,,,,,,,AMP_prac,left,0.831926754860774,3,,,left,0.900154844437111,,,,,,,,,,,,,,,,,,,,,,,,,1012,2019_May_15_1702,mf_amp_cond1,3.0.7,59.98318606713136,
failure,&&&&&&&,images/symbols/symbol_8.png,condition_files/AMP_rep3.csv,right,loyalty.vice,,,,,,,,,,,,,,0,0,0,2,0,12,12,12,,,,,,,,,,,,,,,,,,,,,458.3382443309232,,,,,,,,,,,,,,AMP_prac,left,0.831926754860774,3,,,right,0.9660172907483684,,,,,,,,,,,,,,,,,,,,,,,,,1012,2019_May_15_1702,mf_amp_cond1,3.0.7,59.98318606713136,
forced,&&&&&&,images/symbols/symbol_72.png,condition_files/AMP_rep3.csv,right,fairness.vice,,,,,,,,,,,,,,0,0,0,2,0,13,13,13,,,,,,,,,,,,,,,,,,,,,459.7219076655052,,,,,,,,,,,,,,AMP_prac,left,0.831926754860774,3,,,right,1.150541314086695,,,,,,,,,,,,,,,,,,,,,,,,,1012,2019_May_15_1702,mf_amp_cond1,3.0.7,59.98318606713136,
fighters,&&&&&&&&,images/symbols/symbol_65.png,condition_files/AMP_rep3.csv,right,authority.vice,,,,,,,,,,,,,,0,0,0,2,0,14,14,14,,,,,,,,,,,,,,,,,,,,,461.1224043992754,,,,,,,,,,,,,,AMP_prac,left,0.831926754860774,3,,,right,1.1825095703355828,,,,,,,,,,,,,,,,,,,,,,,,,1012,2019_May_15_1702,mf_amp_cond1,3.0.7,59.98318606713136,
protect,&&&&&&&,images/symbols/symbol_67.png,condition_files/AMP_rep3.csv,left,fairness.virtue,,,,,,,,,,,,,,0,0,0,2,0,15,15,15,,,,,,,,,,,,,,,,,,,,,462.339235040257,,,,,,,,,,,,,,AMP_prac,left,0.831926754860774,3,,,left,0.9991388622333943,,,,,,,,,,,,,,,,,,,,,,,,,1012,2019_May_15_1702,mf_amp_cond1,3.0.7,59.98318606713136,
peace,&&&&&,images/symbols/symbol_36.png,condition_files/AMP_rep3.csv,left,care.virtue,,,,,,,,,,,,,,0,0,0,2,0,16,16,16,,,,,,,,,,,,,,,,,,,,,463.5728734226907,,,,,,,,,,,,,,AMP_prac,left,0.831926754860774,3,,,right,1.0157294750940764,,,,,,,,,,,,,,,,,,,,,,,,,1012,2019_May_15_1702,mf_amp_cond1,3.0.7,59.98318606713136,
encourage,&&&&&&&&&,images/symbols/symbol_50.png,condition_files/AMP_rep3.csv,left,authority.virtue,,,,,,,,,,,,,,0,0,0,2,0,17,17,17,,,,,,,,,,,,,,,,,,,,,465.9568177094826,,,,,,,,,,,,,,AMP_prac,left,0.831926754860774,3,,,right,2.1661912501988354,,,,,,,,,,,,,,,,,,,,,,,,,1012,2019_May_15_1702,mf_amp_cond1,3.0.7,59.98318606713136,
died,&&&&,images/symbols/symbol_51.png,condition_files/AMP_rep3.csv,right,care.vice,,,,,,,,,,,,,,0,0,0,2,0,18,18,18,,,,,,,,,,,,,,,,,,,,,467.0737993462409,,,,,,,,,,,,,,AMP_prac,left,0.831926754860774,3,,,left,0.8997308503486465,,,,,,,,,,,,,,,,,,,,,,,,,1012,2019_May_15_1702,mf_amp_cond1,3.0.7,59.98318606713136,
abuse,&&&&&,images/symbols/symbol_56.png,condition_files/AMP_rep3.csv,right,sanctity.vice,,,,,,,,,,,,,,0,0,0,2,0,19,19,19,,,,,,,,,,,,,,,,,,,,,468.5741354625833,,,,,,,,,,,,,,AMP_prac,left,0.831926754860774,3,,,left,1.2672320562622872,,,,,,,,,,,,,,,,,,,,,,,,,1012,2019_May_15_1702,mf_amp_cond1,3.0.7,59.98318606713136,
troops,&&&&&&,images/symbols/symbol_13.png,condition_files/AMP_rep3.csv,right,loyalty.vice,,,,,,,,,,,,,,0,0,0,2,0,20,20,20,,,,,,,,,,,,,,,,,,,,,469.9911631549778,,,,,,,,,,,,,,AMP_prac,left,0.831926754860774,3,,,right,1.1990376424646456,,,,,,,,,,,,,,,,,,,,,,,,,1012,2019_May_15_1702,mf_amp_cond1,3.0.7,59.98318606713136,
actively,&&&&&&&&,images/symbols/symbol_42.png,condition_files/AMP_rep3.csv,left,authority.virtue,,,,,,,,,,,,,,0,0,0,2,0,21,21,21,,,,,,,,,,,,,,,,,,,,,471.4415321132225,,,,,,,,,,,,,,AMP_prac,left,0.831926754860774,3,,,right,1.2325966783495232,,,,,,,,,,,,,,,,,,,,,,,,,1012,2019_May_15_1702,mf_amp_cond1,3.0.7,59.98318606713136,
respect,&&&&&&&,images/symbols/symbol_29.png,condition_files/AMP_rep3.csv,left,sanctity.virtue,,,,,,,,,,,,,,0,0,0,2,0,22,22,22,,,,,,,,,,,,,,,,,,,,,472.675187814628,,,,,,,,,,,,,,AMP_prac,left,0.831926754860774,3,,,left,1.0157916951039851,,,,,,,,,,,,,,,,,,,,,,,,,1012,2019_May_15_1702,mf_amp_cond1,3.0.7,59.98318606713136,
sexual,&&&&&&,images/symbols/symbol_5.png,condition_files/AMP_rep3.csv,right,sanctity.vice,,,,,,,,,,,,,,0,0,0,2,0,23,23,23,,,,,,,,,,,,,,,,,,,,,475.0089718688581,,,,,,,,,,,,,,AMP_prac,left,0.831926754860774,3,,,right,2.1159392912306885,,,,,,,,,,,,,,,,,,,,,,,,,1012,2019_May_15_1702,mf_amp_cond1,3.0.7,59.98318606713136,
opportunity,&&&&&&&&&&&,images/symbols/symbol_15.png,condition_files/AMP_rep3.csv,left,fairness.virtue,,,,,,,,,,,,,,0,0,0,2,0,24,24,24,,,,,,,,,,,,,,,,,,,,,476.34277580783373,,,,,,,,,,,,,,AMP_prac,left,0.831926754860774,3,,,left,1.1159017667918079,,,,,,,,,,,,,,,,,,,,,,,,,1012,2019_May_15_1702,mf_amp_cond1,3.0.7,59.98318606713136,
sharing,&&&&&&&,images/symbols/symbol_48.png,condition_files/AMP_rep3.csv,left,loyalty.virtue,,,,,,,,,,,,,,0,0,0,2,0,25,25,25,,,,,,,,,,,,,,,,,,,,,477.9098326217587,,,,,,,,,,,,,,AMP_prac,left,0.831926754860774,3,,,left,1.3493342458934876,,,,,,,,,,,,,,,,,,,,,,,,,1012,2019_May_15_1702,mf_amp_cond1,3.0.7,59.98318606713136,
terrorist,&&&&&&&&&,images/symbols/symbol_70.png,condition_files/AMP_rep3.csv,right,loyalty.vice,,,,,,,,,,,,,,0,0,0,2,0,26,26,26,,,,,,,,,,,,,,,,,,,,,479.2768376712012,,,,,,,,,,,,,,AMP_prac,left,0.831926754860774,3,,,left,1.1338291477013627,,,,,,,,,,,,,,,,,,,,,,,,,1012,2019_May_15_1702,mf_amp_cond1,3.0.7,59.98318606713136,
protesters,&&&&&&&&&&,images/symbols/symbol_69.png,condition_files/AMP_rep3.csv,right,authority.vice,,,,,,,,,,,,,,0,0,0,2,0,27,27,27,,,,,,,,,,,,,,,,,,,,,480.560552257111,,,,,,,,,,,,,,AMP_prac,left,0.831926754860774,3,,,left,1.0658361471317903,,,,,,,,,,,,,,,,,,,,,,,,,1012,2019_May_15_1702,mf_amp_cond1,3.0.7,59.98318606713136,
stailde,&&&&&&&,images/symbols/symbol_39.png,condition_files/AMP_rep3.csv,None,nonword,,,,,,,,,,,,,,0,0,0,2,0,28,28,28,,,,,,,,,,,,,,,,,,,,,482.0275509562638,,,,,,,,,,,,,,AMP_prac,left,0.831926754860774,3,,,left,1.2492100624508566,,,,,,,,,,,,,,,,,,,,,,,,,1012,2019_May_15_1702,mf_amp_cond1,3.0.7,59.98318606713136,
promises,&&&&&&&&,images/symbols/symbol_32.png,condition_files/AMP_rep3.csv,left,fairness.virtue,,,,,,,,,,,,,,0,0,0,2,0,29,29,29,,,,,,,,,,,,,,,,,,,,,483.3945582507581,,,,,,,,,,,,,,AMP_prac,left,0.831926754860774,3,,,right,1.1490271869371327,,,,,,,,,,,,,,,,,,,,,,,,,1012,2019_May_15_1702,mf_amp_cond1,3.0.7,59.98318606713136,
riot,&&&&,images/symbols/symbol_3.png,condition_files/AMP_rep3.csv,right,authority.vice,,,,,,,,,,,,,,0,0,0,2,0,30,30,30,,,,,,,,,,,,,,,,,,,,,484.6782228040827,,,,,,,,,,,,,,AMP_prac,left,0.831926754860774,3,,,left,1.0659743781847055,,,,,,,,,,,,,,,,,,,,,,,,,1012,2019_May_15_1702,mf_amp_cond1,3.0.7,59.98318606713136,
stryct,&&&&&&,images/symbols/symbol_19.png,condition_files/AMP_rep3.csv,None,nonword,,,,,,,,,,,,,,0,0,0,2,0,31,31,31,,,,,,,,,,,,,,,,,,,,,486.52868534891957,,,,,,,,,,,,,,AMP_prac,left,0.831926754860774,3,,,left,1.6322274635275562,,,,,,,,,,,,,,,,,,,,,,,,,1012,2019_May_15_1702,mf_amp_cond1,3.0.7,59.98318606713136,
lighnde,&&&&&&&,images/symbols/symbol_80.png,condition_files/AMP_rep3.csv,None,nonword,,,,,,,,,,,,,,0,0,0,2,0,32,32,32,,,,,,,,,,,,,,,,,,,,,487.4122364309062,,,,,,,,,,,,,,AMP_prac,left,0.831926754860774,3,,,left,0.66624641433134,,,,,,,,,,,,,,,,,,,,,,,,,1012,2019_May_15_1702,mf_amp_cond1,3.0.7,59.98318606713136,
safe,&&&&,images/symbols/symbol_23.png,condition_files/AMP_rep3.csv,left,care.virtue,,,,,,,,,,,,,,0,0,0,2,0,33,33,33,,,,,,,,,,,,,,,,,,,,,489.1293489862628,,,,,,,,,,,,,,AMP_prac,left,0.831926754860774,3,,,left,1.4993675368060622,,,,,,,,,,,,,,,,,,,,,,,,,1012,2019_May_15_1702,mf_amp_cond1,3.0.7,59.98318606713136,
war,&&&,images/symbols/symbol_10.png,condition_files/AMP_rep3.csv,right,sanctity.vice,,,,,,,,,,,,,,0,0,0,2,0,34,34,34,,,,,,,,,,,,,,,,,,,,,490.8964582061137,,,,,,,,,,,,,,AMP_prac,left,0.831926754860774,3,,,right,1.5494998665797084,,,,,,,,,,,,,,,,,,,,,,,,,1012,2019_May_15_1702,mf_amp_cond1,3.0.7,59.98318606713136,
great,&&&&&,images/symbols/symbol_49.png,condition_files/AMP_rep3.csv,left,loyalty.virtue,,,,,,,,,,,,,,0,0,0,2,0,35,35,35,,,,,,,,,,,,,,,,,,,,,492.34682620219314,,,,,,,,,,,,,,AMP_prac,left,0.831926754860774,3,,,right,1.217213903413949,,,,,,,,,,,,,,,,,,,,,,,,,1012,2019_May_15_1702,mf_amp_cond1,3.0.7,59.98318606713136,
shot,&&&&,images/symbols/symbol_22.png,condition_files/AMP_rep3.csv,right,care.vice,,,,,,,,,,,,,,0,0,0,2,0,36,36,36,,,,,,,,,,,,,,,,,,,,,493.53046086425513,,,,,,,,,,,,,,AMP_prac,left,0.831926754860774,3,,,right,0.9657424322506358,,,,,,,,,,,,,,,,,,,,,,,,,1012,2019_May_15_1702,mf_amp_cond1,3.0.7,59.98318606713136,
prison,&&&&&&,images/symbols/symbol_28.png,condition_files/AMP_rep3.csv,right,fairness.vice,,,,,,,,,,,,,,0,0,0,2,0,37,37,37,,,,,,,,,,,,,,,,,,,,,494.7307624709425,,,,,,,,,,,,,,AMP_prac,left,0.831926754860774,3,,,right,0.982653766812291,,,,,,,,,,,,,,,,,,,,,,,,,1012,2019_May_15_1702,mf_amp_cond1,3.0.7,59.98318606713136,
charges,&&&&&&&,images/symbols/symbol_58.png,condition_files/AMP_rep3.csv,right,fairness.vice,,,,,,,,,,,,,,0,0,0,2,0,38,38,38,,,,,,,,,,,,,,,,,,,,,496.19779388370887,,,,,,,,,,,,,,AMP_prac,left,0.831926754860774,3,,,left,1.2338818102045934,,,,,,,,,,,,,,,,,,,,,,,,,1012,2019_May_15_1702,mf_amp_cond1,3.0.7,59.98318606713136,
benefit,&&&&&&&,images/symbols/symbol_20.png,condition_files/AMP_rep3.csv,left,fairness.virtue,,,,,,,,,,,,,,0,0,0,2,0,39,39,39,,,,,,,,,,,,,,,,,,,,,497.38142822504904,,,,,,,,,,,,,,AMP_prac,left,0.831926754860774,3,,,right,0.9663091474960765,,,,,,,,,,,,,,,,,,,,,,,,,1012,2019_May_15_1702,mf_amp_cond1,3.0.7,59.98318606713136,
jipte,&&&&&,images/symbols/symbol_35.png,condition_files/AMP_rep3.csv,None,nonword,,,,,,,,,,,,,,0,0,0,2,0,40,40,40,,,,,,,,,,,,,,,,,,,,,498.89847618705505,,,,,,,,,,,,,,AMP_prac,left,0.831926754860774,3,,,right,1.2991958224074551,,,,,,,,,,,,,,,,,,,,,,,,,1012,2019_May_15_1702,mf_amp_cond1,3.0.7,59.98318606713136,
snoze,&&&&&,images/symbols/symbol_44.png,condition_files/AMP_rep3.csv,None,nonword,,,,,,,,,,,,,,0,0,0,2,0,41,41,41,,,,,,,,,,,,,,,,,,,,,500.382190580532,,,,,,,,,,,,,,AMP_prac,left,0.831926754860774,3,,,left,1.2659215873927678,,,,,,,,,,,,,,,,,,,,,,,,,1012,2019_May_15_1702,mf_amp_cond1,3.0.7,59.98318606713136,
fraud,&&&&&,images/symbols/symbol_82.png,condition_files/AMP_rep3.csv,right,fairness.vice,,,,,,,,,,,,,,0,0,0,2,0,42,42,42,,,,,,,,,,,,,,,,,,,,,501.43246114135866,,,,,,,,,,,,,,AMP_prac,left,0.831926754860774,3,,,right,0.8327317663297436,,,,,,,,,,,,,,,,,,,,,,,,,1012,2019_May_15_1702,mf_amp_cond1,3.0.7,59.98318606713136,
strength,&&&&&&&&,images/symbols/symbol_62.png,condition_files/AMP_rep3.csv,left,sanctity.virtue,,,,,,,,,,,,,,0,0,0,2,0,43,43,43,,,,,,,,,,,,,,,,,,,,,502.64944284226124,,,,,,,,,,,,,,AMP_prac,left,0.831926754860774,3,,,left,0.9837641053402422,,,,,,,,,,,,,,,,,,,,,,,,,1012,2019_May_15_1702,mf_amp_cond1,3.0.7,59.98318606713136,
faith,&&&&&,images/symbols/symbol_75.png,condition_files/AMP_rep3.csv,left,sanctity.virtue,,,,,,,,,,,,,,0,0,0,2,0,44,44,44,,,,,,,,,,,,,,,,,,,,,503.99979570027665,,,,,,,,,,,,,,AMP_prac,left,0.831926754860774,3,,,left,1.1172003689582652,,,,,,,,,,,,,,,,,,,,,,,,,1012,2019_May_15_1702,mf_amp_cond1,3.0.7,59.98318606713136,
army,&&&&,images/symbols/symbol_61.png,condition_files/AMP_rep3.csv,right,loyalty.vice,,,,,,,,,,,,,,0,0,0,2,0,45,45,45,,,,,,,,,,,,,,,,,,,,,505.30009095667435,,,,,,,,,,,,,,AMP_prac,left,0.831926754860774,3,,,right,1.0824963566014958,,,,,,,,,,,,,,,,,,,,,,,,,1012,2019_May_15_1702,mf_amp_cond1,3.0.7,59.98318606713136,
integrity,&&&&&&&&&,images/symbols/symbol_52.png,condition_files/AMP_rep3.csv,left,fairness.virtue,,,,,,,,,,,,,,0,0,0,2,0,46,46,46,,,,,,,,,,,,,,,,,,,,,506.63376051325724,,,,,,,,,,,,,,AMP_prac,left,0.831926754860774,3,,,left,1.116311007682043,,,,,,,,,,,,,,,,,,,,,,,,,1012,2019_May_15_1702,mf_amp_cond1,3.0.7,59.98318606713136,
blamed,&&&&&&,images/symbols/symbol_60.png,condition_files/AMP_rep3.csv,right,loyalty.vice,,,,,,,,,,,,,,0,0,0,2,0,47,47,47,,,,,,,,,,,,,,,,,,,,,507.9174212179213,,,,,,,,,,,,,,AMP_prac,left,0.831926754860774,3,,,right,1.0657428171168704,,,,,,,,,,,,,,,,,,,,,,,,,1012,2019_May_15_1702,mf_amp_cond1,3.0.7,59.98318606713136,
values,&&&&&&,images/symbols/symbol_24.png,condition_files/AMP_rep3.csv,left,sanctity.virtue,,,,,,,,,,,,,,0,0,0,2,0,48,48,48,,,,,,,,,,,,,,,,,,,,,509.25109622677326,,,,,,,,,,,,,,AMP_prac,left,0.831926754860774,3,,,left,1.1005180296911021,,,,,,,,,,,,,,,,,,,,,,,,,1012,2019_May_15_1702,mf_amp_cond1,3.0.7,59.98318606713136,
violence,&&&&&&&&,images/symbols/symbol_77.png,condition_files/AMP_rep3.csv,right,care.vice,,,,,,,,,,,,,,0,0,0,2,0,49,49,49,,,,,,,,,,,,,,,,,,,,,510.7181353368604,,,,,,,,,,,,,,AMP_prac,left,0.831926754860774,3,,,right,1.2338853381434092,,,,,,,,,,,,,,,,,,,,,,,,,1012,2019_May_15_1702,mf_amp_cond1,3.0.7,59.98318606713136,
civilians,&&&&&&&&&,images/symbols/symbol_71.png,condition_files/AMP_rep3.csv,right,care.vice,,,,,,,,,,,,,,0,0,0,2,0,50,50,50,,,,,,,,,,,,,,,,,,,,,512.2185157127975,,,,,,,,,,,,,,AMP_prac,left,0.831926754860774,3,,,left,1.2822623580486834,,,,,,,,,,,,,,,,,,,,,,,,,1012,2019_May_15_1702,mf_amp_cond1,3.0.7,59.98318606713136,
fair,&&&&,images/symbols/symbol_12.png,condition_files/AMP_rep3.csv,left,fairness.virtue,,,,,,,,,,,,,,0,0,0,2,0,51,51,51,,,,,,,,,,,,,,,,,,,,,513.4021558271285,,,,,,,,,,,,,,AMP_prac,left,0.831926754860774,3,,,right,0.9658072180343424,,,,,,,,,,,,,,,,,,,,,,,,,1012,2019_May_15_1702,mf_amp_cond1,3.0.7,59.98318606713136,
friends,&&&&&&&,images/symbols/symbol_2.png,condition_files/AMP_rep3.csv,left,loyalty.virtue,,,,,,,,,,,,,,0,0,0,2,0,52,52,52,,,,,,,,,,,,,,,,,,,,,514.7358532864995,,,,,,,,,,,,,,AMP_prac,left,0.831926754860774,3,,,left,1.1160342248542747,,,,,,,,,,,,,,,,,,,,,,,,,1012,2019_May_15_1702,mf_amp_cond1,3.0.7,59.98318606713136,
crime,&&&&&,images/symbols/symbol_43.png,condition_files/AMP_rep3.csv,right,fairness.vice,,,,,,,,,,,,,,0,0,0,2,0,53,53,53,,,,,,,,,,,,,,,,,,,,,516.102827225937,,,,,,,,,,,,,,AMP_prac,left,0.831926754860774,3,,,right,1.1493607375059582,,,,,,,,,,,,,,,,,,,,,,,,,1012,2019_May_15_1702,mf_amp_cond1,3.0.7,59.98318606713136,
loyalty,&&&&&&&,images/symbols/symbol_27.png,condition_files/AMP_rep3.csv,left,loyalty.virtue,,,,,,,,,,,,,,0,0,0,2,0,54,54,54,,,,,,,,,,,,,,,,,,,,,518.0033117722825,,,,,,,,,,,,,,AMP_prac,left,0.831926754860774,3,,,right,1.682709379955213,,,,,,,,,,,,,,,,,,,,,,,,,1012,2019_May_15_1702,mf_amp_cond1,3.0.7,59.98318606713136,
pleasant,&&&&&&&,images/symbols/symbol_45.png,condition_files/AMP_rep3.csv,right,control,,,,,,,,,,,,,,0,0,0,2,0,55,55,55,,,,,,,,,,,,,,,,,,,,,519.2036181897953,,,,,,,,,,,,,,AMP_prac,left,0.831926754860774,3,,,left,0.9821492715768727,,,,,,,,,,,,,,,,,,,,,,,,,1012,2019_May_15_1702,mf_amp_cond1,3.0.7,59.98318606713136,
threatened,&&&&&&&&&&,images/symbols/symbol_78.png,condition_files/AMP_rep3.csv,right,fairness.vice,,,,,,,,,,,,,,0,0,0,2,0,56,56,56,,,,,,,,,,,,,,,,,,,,,520.3206235599595,,,,,,,,,,,,,,AMP_prac,left,0.831926754860774,3,,,right,0.8991971694385938,,,,,,,,,,,,,,,,,,,,,,,,,1012,2019_May_15_1702,mf_amp_cond1,3.0.7,59.98318606713136,
critics,&&&&&&&,images/symbols/symbol_34.png,condition_files/AMP_rep3.csv,right,loyalty.vice,,,,,,,,,,,,,,0,0,0,2,0,57,57,57,,,,,,,,,,,,,,,,,,,,,521.7710069506808,,,,,,,,,,,,,,AMP_prac,left,0.831926754860774,3,,,left,1.2324735212162068,,,,,,,,,,,,,,,,,,,,,,,,,1012,2019_May_15_1702,mf_amp_cond1,3.0.7,59.98318606713136,
compassion,&&&&&&&&&&,images/symbols/symbol_63.png,condition_files/AMP_rep3.csv,left,care.virtue,,,,,,,,,,,,,,0,0,0,2,0,58,58,58,,,,,,,,,,,,,,,,,,,,,522.9712399229242,,,,,,,,,,,,,,AMP_prac,left,0.831926754860774,3,,,right,0.9671523248473477,,,,,,,,,,,,,,,,,,,,,,,,,1012,2019_May_15_1702,mf_amp_cond1,3.0.7,59.98318606713136,
honored,&&&&&&&,images/symbols/symbol_16.png,condition_files/AMP_rep3.csv,left,authority.virtue,,,,,,,,,,,,,,0,0,0,2,0,59,59,59,,,,,,,,,,,,,,,,,,,,,524.0715350510333,,,,,,,,,,,,,,AMP_prac,left,0.831926754860774,3,,,right,0.8825392050207483,,,,,,,,,,,,,,,,,,,,,,,,,1012,2019_May_15_1702,mf_amp_cond1,3.0.7,59.98318606713136,
promote,&&&&&&&,images/symbols/symbol_17.png,condition_files/AMP_rep3.csv,left,sanctity.virtue,,,,,,,,,,,,,,0,0,0,2,0,60,60,60,,,,,,,,,,,,,,,,,,,,,525.0717877797334,,,,,,,,,,,,,,AMP_prac,left,0.831926754860774,3,,,right,0.7825288777819424,,,,,,,,,,,,,,,,,,,,,,,,,1012,2019_May_15_1702,mf_amp_cond1,3.0.7,59.98318606713136,
death,&&&&&,images/symbols/symbol_7.png,condition_files/AMP_rep3.csv,right,care.vice,,,,,,,,,,,,,,0,0,0,2,0,61,61,61,,,,,,,,,,,,,,,,,,,,,526.222065460582,,,,,,,,,,,,,,AMP_prac,left,0.831926754860774,3,,,left,0.9326519707706211,,,,,,,,,,,,,,,,,,,,,,,,,1012,2019_May_15_1702,mf_amp_cond1,3.0.7,59.98318606713136,
intelligence,&&&&&&&&&&&&,images/symbols/symbol_37.png,condition_files/AMP_rep3.csv,left,loyalty.virtue,,,,,,,,,,,,,,0,0,0,2,0,62,62,62,,,,,,,,,,,,,,,,,,,,,530.3564321378539,,,,,,,,,,,,,,AMP_prac,left,0.831926754860774,3,,,left,3.9012189990403385,,,,,,,,,,,,,,,,,,,,,,,,,1012,2019_May_15_1702,mf_amp_cond1,3.0.7,59.98318606713136,
useful,&&&&&&,images/symbols/symbol_55.png,condition_files/AMP_rep3.csv,left,authority.virtue,,,,,,,,,,,,,,0,0,0,2,0,63,63,63,,,,,,,,,,,,,,,,,,,,,532.4903263920604,,,,,,,,,,,,,,AMP_prac,left,0.831926754860774,3,,,left,1.900736312880781,,,,,,,,,,,,,,,,,,,,,,,,,1012,2019_May_15_1702,mf_amp_cond1,3.0.7,59.98318606713136,
support,&&&&&&&,images/symbols/symbol_54.png,condition_files/AMP_rep3.csv,left,loyalty.virtue,,,,,,,,,,,,,,0,0,0,2,0,64,64,64,,,,,,,,,,,,,,,,,,,,,533.6072583169552,,,,,,,,,,,,,,AMP_prac,left,0.831926754860774,3,,,left,0.8988382818554328,,,,,,,,,,,,,,,,,,,,,,,,,1012,2019_May_15_1702,mf_amp_cond1,3.0.7,59.98318606713136,
embrace,&&&&&&&,images/symbols/symbol_41.png,condition_files/AMP_rep3.csv,left,authority.virtue,,,,,,,,,,,,,,0,0,0,2,0,65,65,65,,,,,,,,,,,,,,,,,,,,,534.8409124147521,,,,,,,,,,,,,,AMP_prac,left,0.831926754860774,3,,,left,1.0004939114191984,,,,,,,,,,,,,,,,,,,,,,,,,1012,2019_May_15_1702,mf_amp_cond1,3.0.7,59.98318606713136,
phiks,&&&&&,images/symbols/symbol_6.png,condition_files/AMP_rep3.csv,None,nonword,,,,,,,,,,,,,,0,0,0,2,0,66,66,66,,,,,,,,,,,,,,,,,,,,,536.107906816234,,,,,,,,,,,,,,AMP_prac,left,0.831926754860774,3,,,right,1.033839988094769,,,,,,,,,,,,,,,,,,,,,,,,,1012,2019_May_15_1702,mf_amp_cond1,3.0.7,59.98318606713136,
unpleasant,&&&&&&&&&,images/symbols/symbol_73.png,condition_files/AMP_rep3.csv,left,control,,,,,,,,,,,,,,0,0,0,2,0,67,67,67,,,,,,,,,,,,,,,,,,,,,537.8250180887038,,,,,,,,,,,,,,AMP_prac,left,0.831926754860774,3,,,left,1.4992235327624712,,,,,,,,,,,,,,,,,,,,,,,,,1012,2019_May_15_1702,mf_amp_cond1,3.0.7,59.98318606713136,
free,&&&&,images/symbols/symbol_76.png,condition_files/AMP_rep3.csv,left,fairness.virtue,,,,,,,,,,,,,,0,0,0,2,0,68,68,68,,,,,,,,,,,,,,,,,,,,,539.125211034879,,,,,,,,,,,,,,AMP_prac,left,0.831926754860774,3,,,left,1.0828735253214745,,,,,,,,,,,,,,,,,,,,,,,,,1012,2019_May_15_1702,mf_amp_cond1,3.0.7,59.98318606713136,
hand,&&&&,images/symbols/symbol_18.png,condition_files/AMP_rep3.csv,left,sanctity.virtue,,,,,,,,,,,,,,0,0,0,2,0,69,69,69,,,,,,,,,,,,,,,,,,,,,540.3422902351787,,,,,,,,,,,,,,AMP_prac,left,0.831926754860774,3,,,right,0.9993431619566309,,,,,,,,,,,,,,,,,,,,,,,,,1012,2019_May_15_1702,mf_amp_cond1,3.0.7,59.98318606713136,
increase,&&&&&&&&,images/symbols/symbol_66.png,condition_files/AMP_rep3.csv,left,care.virtue,,,,,,,,,,,,,,0,0,0,2,0,70,70,70,,,,,,,,,,,,,,,,,,,,,541.8926932540679,,,,,,,,,,,,,,AMP_prac,left,0.831926754860774,3,,,left,1.332776988089563,,,,,,,,,,,,,,,,,,,,,,,,,1012,2019_May_15_1702,mf_amp_cond1,3.0.7,59.98318606713136,
conspiracy,&&&&&&&&&&,images/symbols/symbol_1.png,condition_files/AMP_rep3.csv,right,sanctity.vice,,,,,,,,,,,,,,0,0,0,2,0,71,71,71,,,,,,,,,,,,,,,,,,,,,542.909651093276,,,,,,,,,,,,,,AMP_prac,left,0.831926754860774,3,,,left,0.7990765139347786,,,,,,,,,,,,,,,,,,,,,,,,,1012,2019_May_15_1702,mf_amp_cond1,3.0.7,59.98318606713136,
refused,&&&&&&&,images/symbols/symbol_40.png,condition_files/AMP_rep3.csv,right,authority.vice,,,,,,,,,,,,,,0,0,0,2,0,72,72,72,,,,,,,,,,,,,,,,,,,,,543.9598793188385,,,,,,,,,,,,,,AMP_prac,left,0.831926754860774,3,,,left,0.8324123275158399,,,,,,,,,,,,,,,,,,,,,,,,,1012,2019_May_15_1702,mf_amp_cond1,3.0.7,59.98318606713136,
powerful,&&&&&&&&,images/symbols/symbol_25.png,condition_files/AMP_rep3.csv,left,authority.virtue,,,,,,,,,,,,,,0,0,0,2,0,73,73,73,,,,,,,,,,,,,,,,,,,,,545.0935490678545,,,,,,,,,,,,,,AMP_prac,left,0.831926754860774,3,,,right,0.91584038065821,,,,,,,,,,,,,,,,,,,,,,,,,1012,2019_May_15_1702,mf_amp_cond1,3.0.7,59.98318606713136,
men,&&&,images/symbols/symbol_47.png,condition_files/AMP_rep3.csv,right,loyalty.vice,,,,,,,,,,,,,,0,0,0,2,0,74,74,74,,,,,,,,,,,,,,,,,,,,,546.0104045326956,,,,,,,,,,,,,,AMP_prac,left,0.831926754860774,3,,,right,0.6986851693154676,,,,,,,,,,,,,,,,,,,,,,,,,1012,2019_May_15_1702,mf_amp_cond1,3.0.7,59.98318606713136,
crict,&&&&&,images/symbols/symbol_64.png,condition_files/AMP_rep3.csv,None,nonword,,,,,,,,,,,,,,0,0,0,2,0,75,75,75,,,,,,,,,,,,,,,,,,,,,546.9773134297722,,,,,,,,,,,,,,AMP_prac,left,0.831926754860774,3,,,left,0.7337313917269057,,,,,,,,,,,,,,,,,,,,,,,,,1012,2019_May_15_1702,mf_amp_cond1,3.0.7,59.98318606713136,
trust,&&&&&,images/symbols/symbol_33.png,condition_files/AMP_rep3.csv,left,authority.virtue,,,,,,,,,,,,,,0,0,0,2,0,76,76,76,,,,,,,,,,,,,,,,,,,,,547.9275544200581,,,,,,,,,,,,,,AMP_prac,left,0.831926754860774,3,,,right,0.7323926993476562,,,,,,,,,,,,,,,,,,,,,,,,,1012,2019_May_15_1702,mf_amp_cond1,3.0.7,59.98318606713136,
terrorists,&&&&&&&&&&,images/symbols/symbol_57.png,condition_files/AMP_rep3.csv,right,fairness.vice,,,,,,,,,,,,,,0,0,0,2,0,77,77,77,,,,,,,,,,,,,,,,,,,,,549.9947388812201,,,,,,,,,,,,,,AMP_prac,left,0.831926754860774,3,,,left,1.8494538750878746,,,,,,,,,,,,,,,,,,,,,,,,,1012,2019_May_15_1702,mf_amp_cond1,3.0.7,59.98318606713136,
beest,&&&&&,images/symbols/symbol_74.png,condition_files/AMP_rep3.csv,None,nonword,,,,,,,,,,,,,,0,0,0,2,0,78,78,78,,,,,,,,,,,,,,,,,,,,,550.9116382849342,,,,,,,,,,,,,,AMP_prac,left,0.831926754860774,3,,,right,0.6837481975439914,,,,,,,,,,,,,,,,,,,,,,,,,1012,2019_May_15_1702,mf_amp_cond1,3.0.7,59.98318606713136,
torture,&&&&&&&,images/symbols/symbol_59.png,condition_files/AMP_rep3.csv,right,care.vice,,,,,,,,,,,,,,0,0,0,2,0,79,79,79,,,,,,,,,,,,,,,,,,,,,551.8285466688561,,,,,,,,,,,,,,AMP_prac,left,0.831926754860774,3,,,left,0.6986922251928718,,,,,,,,,,,,,,,,,,,,,,,,,1012,2019_May_15_1702,mf_amp_cond1,3.0.7,59.98318606713136,
harassment,&&&&&&&&&&,images/symbols/symbol_53.png,condition_files/AMP_rep3.csv,right,sanctity.vice,,,,,,,,,,,,,,0,0,0,2,0,80,80,80,,,,,,,,,,,,,,,,,,,,,552.7787956771846,,,,,,,,,,,,,,AMP_prac,left,0.831926754860774,3,,,right,0.7325931504105938,,,,,,,,,,,,,,,,,,,,,,,,,1012,2019_May_15_1702,mf_amp_cond1,3.0.7,59.98318606713136,
good,&&&&,images/symbols/symbol_30.png,condition_files/AMP_rep3.csv,left,care.virtue,,,,,,,,,,,,,,0,0,0,2,0,81,81,81,,,,,,,,,,,,,,,,,,,,,553.6456798145458,,,,,,,,,,,,,,AMP_prac,left,0.831926754860774,3,,,left,0.6337460807808384,,,,,,,,,,,,,,,,,,,,,,,,,1012,2019_May_15_1702,mf_amp_cond1,3.0.7,59.98318606713136,
,,,condition_files/AMP_rep3.csv,,,,,,,,,,,,,,,,0,0,0,2,,,,,,,,,,,,,,,,,,,,,,,,,,,,,,,,,,,,,,,,,,,,,,,right,26.757028616073057,,,,,,,,,,,,,,,,,,,,,,,1012,2019_May_15_1702,mf_amp_cond1,3.0.7,59.98318606713136,
serial,&&&&&&,images/symbols/symbol_21.png,condition_files/AMP_rep1.csv,right,sanctity.vice,,,,,,,,,,,,,,0,1,1,0,0,0,0,0,,,,,,,,,,,,,,,,,,,,,581.7862704171433,,,,,,,,,,,,,,AMP_prac,left,0.831926754860774,3,,,right,1.1326065565779118,,,,,,,,,,,,,,,,,,,,,,,,,1012,2019_May_15_1702,mf_amp_cond1,3.0.7,59.98318606713136,
safety,&&&&&&,images/symbols/symbol_9.png,condition_files/AMP_rep1.csv,left,care.virtue,,,,,,,,,,,,,,0,1,1,0,0,1,1,1,,,,,,,,,,,,,,,,,,,,,583.1364616314214,,,,,,,,,,,,,,AMP_prac,left,0.831926754860774,3,,,left,1.1325725600777332,,,,,,,,,,,,,,,,,,,,,,,,,1012,2019_May_15_1702,mf_amp_cond1,3.0.7,59.98318606713136,
rheys,&&&&&,images/symbols/symbol_4.png,condition_files/AMP_rep1.csv,None,nonword,,,,,,,,,,,,,,0,1,1,0,0,2,2,2,,,,,,,,,,,,,,,,,,,,,584.1033644347857,,,,,,,,,,,,,,AMP_prac,left,0.831926754860774,3,,,left,0.7490407213929302,,,,,,,,,,,,,,,,,,,,,,,,,1012,2019_May_15_1702,mf_amp_cond1,3.0.7,59.98318606713136,
care,&&&&,images/symbols/symbol_68.png,condition_files/AMP_rep1.csv,left,care.virtue,,,,,,,,,,,,,,0,1,1,0,0,3,3,3,,,,,,,,,,,,,,,,,,,,,585.0369436119935,,,,,,,,,,,,,,AMP_prac,left,0.831926754860774,3,,,right,0.7004154628912147,,,,,,,,,,,,,,,,,,,,,,,,,1012,2019_May_15_1702,mf_amp_cond1,3.0.7,59.98318606713136,
corruption,&&&&&&&&&&,images/symbols/symbol_38.png,condition_files/AMP_rep1.csv,right,sanctity.vice,,,,,,,,,,,,,,0,1,1,0,0,4,4,4,,,,,,,,,,,,,,,,,,,,,586.0705754517045,,,,,,,,,,,,,,AMP_prac,left,0.831926754860774,3,,,right,0.8155888707003669,,,,,,,,,,,,,,,,,,,,,,,,,1012,2019_May_15_1702,mf_amp_cond1,3.0.7,59.98318606713136,
suicide,&&&&&&&,images/symbols/symbol_14.png,condition_files/AMP_rep1.csv,right,care.vice,,,,,,,,,,,,,,0,1,1,0,0,5,5,5,,,,,,,,,,,,,,,,,,,,,587.0374625397054,,,,,,,,,,,,,,AMP_prac,left,0.831926754860774,3,,,right,0.7491382207899733,,,,,,,,,,,,,,,,,,,,,,,,,1012,2019_May_15_1702,mf_amp_cond1,3.0.7,59.98318606713136,
hope,&&&&,images/symbols/symbol_79.png,condition_files/AMP_rep1.csv,left,loyalty.virtue,,,,,,,,,,,,,,0,1,1,0,0,6,6,6,,,,,,,,,,,,,,,,,,,,,587.9543799038348,,,,,,,,,,,,,,AMP_prac,left,0.831926754860774,3,,,right,0.69911012556895,,,,,,,,,,,,,,,,,,,,,,,,,1012,2019_May_15_1702,mf_amp_cond1,3.0.7,59.98318606713136,
squauzz,&&&&&&&,images/symbols/symbol_11.png,condition_files/AMP_rep1.csv,None,nonword,,,,,,,,,,,,,,0,1,1,0,0,7,7,7,,,,,,,,,,,,,,,,,,,,,589.021332483207,,,,,,,,,,,,,,AMP_prac,left,0.831926754860774,3,,,right,0.8492935142373881,,,,,,,,,,,,,,,,,,,,,,,,,1012,2019_May_15_1702,mf_amp_cond1,3.0.7,59.98318606713136,
arrests,&&&&&&&,images/symbols/symbol_81.png,condition_files/AMP_rep1.csv,right,authority.vice,,,,,,,,,,,,,,0,1,1,0,0,8,8,8,,,,,,,,,,,,,,,,,,,,,590.0215541019023,,,,,,,,,,,,,,AMP_prac,left,0.831926754860774,3,,,left,0.7671271802662432,,,,,,,,,,,,,,,,,,,,,,,,,1012,2019_May_15_1702,mf_amp_cond1,3.0.7,59.98318606713136,
officers,&&&&&&&&,images/symbols/symbol_46.png,condition_files/AMP_rep1.csv,right,authority.vice,,,,,,,,,,,,,,0,1,1,0,0,9,9,9,,,,,,,,,,,,,,,,,,,,,590.9384406767484,,,,,,,,,,,,,,AMP_prac,left,0.831926754860774,3,,,right,0.698917051105127,,,,,,,,,,,,,,,,,,,,,,,,,1012,2019_May_15_1702,mf_amp_cond1,3.0.7,59.98318606713136,
commitment,&&&&&&&&&&,images/symbols/symbol_26.png,condition_files/AMP_rep1.csv,left,sanctity.virtue,,,,,,,,,,,,,,0,1,1,0,0,10,10,10,,,,,,,,,,,,,,,,,,,,,592.0887209233705,,,,,,,,,,,,,,AMP_prac,left,0.831926754860774,3,,,right,0.9324730080616064,,,,,,,,,,,,,,,,,,,,,,,,,1012,2019_May_15_1702,mf_amp_cond1,3.0.7,59.98318606713136,
rebels,&&&&&&,images/symbols/symbol_31.png,condition_files/AMP_rep1.csv,right,authority.vice,,,,,,,,,,,,,,0,1,1,0,0,11,11,11,,,,,,,,,,,,,,,,,,,,,593.0723230642521,,,,,,,,,,,,,,AMP_prac,left,0.831926754860774,3,,,right,0.7667541809280465,,,,,,,,,,,,,,,,,,,,,,,,,1012,2019_May_15_1702,mf_amp_cond1,3.0.7,59.98318606713136,
failure,&&&&&&&,images/symbols/symbol_8.png,condition_files/AMP_rep1.csv,right,loyalty.vice,,,,,,,,,,,,,,0,1,1,0,0,12,12,12,,,,,,,,,,,,,,,,,,,,,594.072573868622,,,,,,,,,,,,,,AMP_prac,left,0.831926754860774,3,,,right,0.7826311880044159,,,,,,,,,,,,,,,,,,,,,,,,,1012,2019_May_15_1702,mf_amp_cond1,3.0.7,59.98318606713136,
forced,&&&&&&,images/symbols/symbol_72.png,condition_files/AMP_rep1.csv,right,fairness.vice,,,,,,,,,,,,,,0,1,1,0,0,13,13,13,,,,,,,,,,,,,,,,,,,,,595.7229907426887,,,,,,,,,,,,,,AMP_prac,left,0.831926754860774,3,,,left,1.4172759309908542,,,,,,,,,,,,,,,,,,,,,,,,,1012,2019_May_15_1702,mf_amp_cond1,3.0.7,59.98318606713136,
fighters,&&&&&&&&,images/symbols/symbol_65.png,condition_files/AMP_rep1.csv,right,authority.vice,,,,,,,,,,,,,,0,1,1,0,0,14,14,14,,,,,,,,,,,,,,,,,,,,,596.5565291240961,,,,,,,,,,,,,,AMP_prac,left,0.831926754860774,3,,,left,0.6155101655949693,,,,,,,,,,,,,,,,,,,,,,,,,1012,2019_May_15_1702,mf_amp_cond1,3.0.7,59.98318606713136,
protect,&&&&&&&,images/symbols/symbol_67.png,condition_files/AMP_rep1.csv,left,fairness.virtue,,,,,,,,,,,,,,0,1,1,0,0,15,15,15,,,,,,,,,,,,,,,,,,,,,597.4901233752238,,,,,,,,,,,,,,AMP_prac,left,0.831926754860774,3,,,left,0.715791181949271,,,,,,,,,,,,,,,,,,,,,,,,,1012,2019_May_15_1702,mf_amp_cond1,3.0.7,59.98318606713136,
peace,&&&&&,images/symbols/symbol_36.png,condition_files/AMP_rep1.csv,left,care.virtue,,,,,,,,,,,,,,0,1,1,0,0,16,16,16,,,,,,,,,,,,,,,,,,,,,598.3736555346303,,,,,,,,,,,,,,AMP_prac,left,0.831926754860774,3,,,right,0.665720110020402,,,,,,,,,,,,,,,,,,,,,,,,,1012,2019_May_15_1702,mf_amp_cond1,3.0.7,59.98318606713136,
encourage,&&&&&&&&&,images/symbols/symbol_50.png,condition_files/AMP_rep1.csv,left,authority.virtue,,,,,,,,,,,,,,0,1,1,0,0,17,17,17,,,,,,,,,,,,,,,,,,,,,599.2905430716415,,,,,,,,,,,,,,AMP_prac,left,0.831926754860774,3,,,right,0.6992082664094141,,,,,,,,,,,,,,,,,,,,,,,,,1012,2019_May_15_1702,mf_amp_cond1,3.0.7,59.98318606713136,
died,&&&&,images/symbols/symbol_51.png,condition_files/AMP_rep1.csv,right,care.vice,,,,,,,,,,,,,,0,1,1,0,0,18,18,18,,,,,,,,,,,,,,,,,,,,,600.4074980884985,,,,,,,,,,,,,,AMP_prac,left,0.831926754860774,3,,,right,0.8996766483812735,,,,,,,,,,,,,,,,,,,,,,,,,1012,2019_May_15_1702,mf_amp_cond1,3.0.7,59.98318606713136,
abuse,&&&&&,images/symbols/symbol_56.png,condition_files/AMP_rep1.csv,right,sanctity.vice,,,,,,,,,,,,,,0,1,1,0,0,19,19,19,,,,,,,,,,,,,,,,,,,,,601.2577146397911,,,,,,,,,,,,,,AMP_prac,left,0.831926754860774,3,,,right,0.6170669487307805,,,,,,,,,,,,,,,,,,,,,,,,,1012,2019_May_15_1702,mf_amp_cond1,3.0.7,59.98318606713136,
troops,&&&&&&,images/symbols/symbol_13.png,condition_files/AMP_rep1.csv,right,loyalty.vice,,,,,,,,,,,,,,0,1,1,0,0,20,20,20,,,,,,,,,,,,,,,,,,,,,601.9912353173605,,,,,,,,,,,,,,AMP_prac,left,0.831926754860774,3,,,right,0.5155729629041161,,,,,,,,,,,,,,,,,,,,,,,,,1012,2019_May_15_1702,mf_amp_cond1,3.0.7,59.98318606713136,
actively,&&&&&&&&,images/symbols/symbol_42.png,condition_files/AMP_rep1.csv,left,authority.virtue,,,,,,,,,,,,,,0,1,1,0,0,21,21,21,,,,,,,,,,,,,,,,,,,,,602.8914777188219,,,,,,,,,,,,,,AMP_prac,left,0.831926754860774,3,,,left,0.6824159195989523,,,,,,,,,,,,,,,,,,,,,,,,,1012,2019_May_15_1702,mf_amp_cond1,3.0.7,59.98318606713136,
respect,&&&&&&&,images/symbols/symbol_29.png,condition_files/AMP_rep1.csv,left,sanctity.virtue,,,,,,,,,,,,,,0,1,1,0,0,22,22,22,,,,,,,,,,,,,,,,,,,,,603.858390464559,,,,,,,,,,,,,,AMP_prac,left,0.831926754860774,3,,,left,0.749042645722966,,,,,,,,,,,,,,,,,,,,,,,,,1012,2019_May_15_1702,mf_amp_cond1,3.0.7,59.98318606713136,
sexual,&&&&&&,images/symbols/symbol_5.png,condition_files/AMP_rep1.csv,right,sanctity.vice,,,,,,,,,,,,,,0,1,1,0,0,23,23,23,,,,,,,,,,,,,,,,,,,,,604.7919494362994,,,,,,,,,,,,,,AMP_prac,left,0.831926754860774,3,,,left,0.7157850882369985,,,,,,,,,,,,,,,,,,,,,,,,,1012,2019_May_15_1702,mf_amp_cond1,3.0.7,59.98318606713136,
opportunity,&&&&&&&&&&&,images/symbols/symbol_15.png,condition_files/AMP_rep1.csv,left,fairness.virtue,,,,,,,,,,,,,,0,1,1,0,0,24,24,24,,,,,,,,,,,,,,,,,,,,,605.4421094122839,,,,,,,,,,,,,,AMP_prac,left,0.831926754860774,3,,,right,0.4321067438793307,,,,,,,,,,,,,,,,,,,,,,,,,1012,2019_May_15_1702,mf_amp_cond1,3.0.7,59.98318606713136,
sharing,&&&&&&&,images/symbols/symbol_48.png,condition_files/AMP_rep1.csv,left,loyalty.virtue,,,,,,,,,,,,,,0,1,1,0,0,25,25,25,,,,,,,,,,,,,,,,,,,,,606.0422547633588,,,,,,,,,,,,,,AMP_prac,left,0.831926754860774,3,,,left,0.3822200869283279,,,,,,,,,,,,,,,,,,,,,,,,,1012,2019_May_15_1702,mf_amp_cond1,3.0.7,59.98318606713136,
terrorist,&&&&&&&&&,images/symbols/symbol_70.png,condition_files/AMP_rep1.csv,right,loyalty.vice,,,,,,,,,,,,,,0,1,1,0,0,26,26,26,,,,,,,,,,,,,,,,,,,,,606.875805011469,,,,,,,,,,,,,,AMP_prac,left,0.831926754860774,3,,,right,0.600352537293702,,,,,,,,,,,,,,,,,,,,,,,,,1012,2019_May_15_1702,mf_amp_cond1,3.0.7,59.98318606713136,
protesters,&&&&&&&&&&,images/symbols/symbol_69.png,condition_files/AMP_rep1.csv,right,authority.vice,,,,,,,,,,,,,,0,1,1,0,0,27,27,27,,,,,,,,,,,,,,,,,,,,,608.2262390120744,,,,,,,,,,,,,,AMP_prac,left,0.831926754860774,3,,,left,1.1325000769732014,,,,,,,,,,,,,,,,,,,,,,,,,1012,2019_May_15_1702,mf_amp_cond1,3.0.7,59.98318606713136,
stailde,&&&&&&&,images/symbols/symbol_39.png,condition_files/AMP_rep1.csv,None,nonword,,,,,,,,,,,,,,0,1,1,0,0,28,28,28,,,,,,,,,,,,,,,,,,,,,609.0263517778245,,,,,,,,,,,,,,AMP_prac,left,0.831926754860774,3,,,right,0.5823501075060449,,,,,,,,,,,,,,,,,,,,,,,,,1012,2019_May_15_1702,mf_amp_cond1,3.0.7,59.98318606713136,
promises,&&&&&&&&,images/symbols/symbol_32.png,condition_files/AMP_rep1.csv,left,fairness.virtue,,,,,,,,,,,,,,0,1,1,0,0,29,29,29,,,,,,,,,,,,,,,,,,,,,610.0266038650813,,,,,,,,,,,,,,AMP_prac,left,0.831926754860774,3,,,left,0.782474034371262,,,,,,,,,,,,,,,,,,,,,,,,,1012,2019_May_15_1702,mf_amp_cond1,3.0.7,59.98318606713136,
riot,&&&&,images/symbols/symbol_3.png,condition_files/AMP_rep1.csv,right,authority.vice,,,,,,,,,,,,,,0,1,1,0,0,30,30,30,,,,,,,,,,,,,,,,,,,,,610.7267775038102,,,,,,,,,,,,,,AMP_prac,left,0.831926754860774,3,,,right,0.4824350346123083,,,,,,,,,,,,,,,,,,,,,,,,,1012,2019_May_15_1702,mf_amp_cond1,3.0.7,59.98318606713136,
stryct,&&&&&&,images/symbols/symbol_19.png,condition_files/AMP_rep1.csv,None,nonword,,,,,,,,,,,,,,0,1,1,0,0,31,31,31,,,,,,,,,,,,,,,,,,,,,611.8937388068126,,,,,,,,,,,,,,AMP_prac,left,0.831926754860774,3,,,right,0.9492377728058727,,,,,,,,,,,,,,,,,,,,,,,,,1012,2019_May_15_1702,mf_amp_cond1,3.0.7,59.98318606713136,
lighnde,&&&&&&&,images/symbols/symbol_80.png,condition_files/AMP_rep1.csv,None,nonword,,,,,,,,,,,,,,0,1,1,0,0,32,32,32,,,,,,,,,,,,,,,,,,,,,612.9106549521997,,,,,,,,,,,,,,AMP_prac,left,0.831926754860774,3,,,right,0.7995479748349226,,,,,,,,,,,,,,,,,,,,,,,,,1012,2019_May_15_1702,mf_amp_cond1,3.0.7,59.98318606713136,
safe,&&&&,images/symbols/symbol_23.png,condition_files/AMP_rep1.csv,left,care.virtue,,,,,,,,,,,,,,0,1,1,0,0,33,33,33,,,,,,,,,,,,,,,,,,,,,613.9442556819057,,,,,,,,,,,,,,AMP_prac,left,0.831926754860774,3,,,left,0.8153383870521793,,,,,,,,,,,,,,,,,,,,,,,,,1012,2019_May_15_1702,mf_amp_cond1,3.0.7,59.98318606713136,
war,&&&,images/symbols/symbol_10.png,condition_files/AMP_rep1.csv,right,sanctity.vice,,,,,,,,,,,,,,0,1,1,0,0,34,34,34,,,,,,,,,,,,,,,,,,,,,614.6944394554401,,,,,,,,,,,,,,AMP_prac,left,0.831926754860774,3,,,left,0.5325657607775156,,,,,,,,,,,,,,,,,,,,,,,,,1012,2019_May_15_1702,mf_amp_cond1,3.0.7,59.98318606713136,
great,&&&&&,images/symbols/symbol_49.png,condition_files/AMP_rep1.csv,left,loyalty.virtue,,,,,,,,,,,,,,0,1,1,0,0,35,35,35,,,,,,,,,,,,,,,,,,,,,615.3779689207844,,,,,,,,,,,,,,AMP_prac,left,0.831926754860774,3,,,right,0.4503660717493858,,,,,,,,,,,,,,,,,,,,,,,,,1012,2019_May_15_1702,mf_amp_cond1,3.0.7,59.98318606713136,
shot,&&&&,images/symbols/symbol_22.png,condition_files/AMP_rep1.csv,right,care.vice,,,,,,,,,,,,,,0,1,1,0,0,36,36,36,,,,,,,,,,,,,,,,,,,,,616.0447858990213,,,,,,,,,,,,,,AMP_prac,left,0.831926754860774,3,,,left,0.44885707614707826,,,,,,,,,,,,,,,,,,,,,,,,,1012,2019_May_15_1702,mf_amp_cond1,3.0.7,59.98318606713136,
prison,&&&&&&,images/symbols/symbol_28.png,condition_files/AMP_rep1.csv,right,fairness.vice,,,,,,,,,,,,,,0,1,1,0,0,37,37,37,,,,,,,,,,,,,,,,,,,,,616.7448322112349,,,,,,,,,,,,,,AMP_prac,left,0.831926754860774,3,,,right,0.4823532505786261,,,,,,,,,,,,,,,,,,,,,,,,,1012,2019_May_15_1702,mf_amp_cond1,3.0.7,59.98318606713136,
charges,&&&&&&&,images/symbols/symbol_58.png,condition_files/AMP_rep1.csv,right,fairness.vice,,,,,,,,,,,,,,0,1,1,0,0,38,38,38,,,,,,,,,,,,,,,,,,,,,617.711888640294,,,,,,,,,,,,,,AMP_prac,left,0.831926754860774,3,,,left,0.7337730855481368,,,,,,,,,,,,,,,,,,,,,,,,,1012,2019_May_15_1702,mf_amp_cond1,3.0.7,59.98318606713136,
benefit,&&&&&&&,images/symbols/symbol_20.png,condition_files/AMP_rep1.csv,left,fairness.virtue,,,,,,,,,,,,,,0,1,1,0,0,39,39,39,,,,,,,,,,,,,,,,,,,,,618.6287864403997,,,,,,,,,,,,,,AMP_prac,left,0.831926754860774,3,,,right,0.6995119898601843,,,,,,,,,,,,,,,,,,,,,,,,,1012,2019_May_15_1702,mf_amp_cond1,3.0.7,59.98318606713136,
jipte,&&&&&,images/symbols/symbol_35.png,condition_files/AMP_rep1.csv,None,nonword,,,,,,,,,,,,,,0,1,1,0,0,40,40,40,,,,,,,,,,,,,,,,,,,,,619.4789898421024,,,,,,,,,,,,,,AMP_prac,left,0.831926754860774,3,,,right,0.632432083972617,,,,,,,,,,,,,,,,,,,,,,,,,1012,2019_May_15_1702,mf_amp_cond1,3.0.7,59.98318606713136,
snoze,&&&&&,images/symbols/symbol_44.png,condition_files/AMP_rep1.csv,None,nonword,,,,,,,,,,,,,,0,1,1,0,0,41,41,41,,,,,,,,,,,,,,,,,,,,,620.3792162074786,,,,,,,,,,,,,,AMP_prac,left,0.831926754860774,3,,,left,0.6821660773939584,,,,,,,,,,,,,,,,,,,,,,,,,1012,2019_May_15_1702,mf_amp_cond1,3.0.7,59.98318606713136,
fraud,&&&&&,images/symbols/symbol_82.png,condition_files/AMP_rep1.csv,right,fairness.vice,,,,,,,,,,,,,,0,1,1,0,0,42,42,42,,,,,,,,,,,,,,,,,,,,,621.3461347262063,,,,,,,,,,,,,,AMP_prac,left,0.831926754860774,3,,,left,0.7495198796138993,,,,,,,,,,,,,,,,,,,,,,,,,1012,2019_May_15_1702,mf_amp_cond1,3.0.7,59.98318606713136,
strength,&&&&&&&&,images/symbols/symbol_62.png,condition_files/AMP_rep1.csv,left,sanctity.virtue,,,,,,,,,,,,,,0,1,1,0,0,43,43,43,,,,,,,,,,,,,,,,,,,,,622.2797078097016,,,,,,,,,,,,,,AMP_prac,left,0.831926754860774,3,,,left,0.7004087277352937,,,,,,,,,,,,,,,,,,,,,,,,,1012,2019_May_15_1702,mf_amp_cond1,3.0.7,59.98318606713136,
faith,&&&&&,images/symbols/symbol_75.png,condition_files/AMP_rep1.csv,left,sanctity.virtue,,,,,,,,,,,,,,0,1,1,0,0,44,44,44,,,,,,,,,,,,,,,,,,,,,623.3299636173302,,,,,,,,,,,,,,AMP_prac,left,0.831926754860774,3,,,left,0.8170693220713474,,,,,,,,,,,,,,,,,,,,,,,,,1012,2019_May_15_1702,mf_amp_cond1,3.0.7,59.98318606713136,
army,&&&&,images/symbols/symbol_61.png,condition_files/AMP_rep1.csv,right,loyalty.vice,,,,,,,,,,,,,,0,1,1,0,0,45,45,45,,,,,,,,,,,,,,,,,,,,,624.6302973603321,,,,,,,,,,,,,,AMP_prac,left,0.831926754860774,3,,,left,1.0824626808230278,,,,,,,,,,,,,,,,,,,,,,,,,1012,2019_May_15_1702,mf_amp_cond1,3.0.7,59.98318606713136,
integrity,&&&&&&&&&,images/symbols/symbol_52.png,condition_files/AMP_rep1.csv,left,fairness.virtue,,,,,,,,,,,,,,0,1,1,0,0,46,46,46,,,,,,,,,,,,,,,,,,,,,625.4971885535707,,,,,,,,,,,,,,AMP_prac,left,0.831926754860774,3,,,left,0.6495871670267661,,,,,,,,,,,,,,,,,,,,,,,,,1012,2019_May_15_1702,mf_amp_cond1,3.0.7,59.98318606713136,
blamed,&&&&&&,images/symbols/symbol_60.png,condition_files/AMP_rep1.csv,right,loyalty.vice,,,,,,,,,,,,,,0,1,1,0,0,47,47,47,,,,,,,,,,,,,,,,,,,,,626.4474138284935,,,,,,,,,,,,,,AMP_prac,left,0.831926754860774,3,,,left,0.7322002663272542,,,,,,,,,,,,,,,,,,,,,,,,,1012,2019_May_15_1702,mf_amp_cond1,3.0.7,59.98318606713136,
values,&&&&&&,images/symbols/symbol_24.png,condition_files/AMP_rep1.csv,left,sanctity.virtue,,,,,,,,,,,,,,0,1,1,0,0,48,48,48,,,,,,,,,,,,,,,,,,,,,627.2476167170413,,,,,,,,,,,,,,AMP_prac,left,0.831926754860774,3,,,left,0.5670359670145899,,,,,,,,,,,,,,,,,,,,,,,,,1012,2019_May_15_1702,mf_amp_cond1,3.0.7,59.98318606713136,
violence,&&&&&&&&,images/symbols/symbol_77.png,condition_files/AMP_rep1.csv,right,care.vice,,,,,,,,,,,,,,0,1,1,0,0,49,49,49,,,,,,,,,,,,,,,,,,,,,628.0978441728715,,,,,,,,,,,,,,AMP_prac,left,0.831926754860774,3,,,left,0.6170647036788068,,,,,,,,,,,,,,,,,,,,,,,,,1012,2019_May_15_1702,mf_amp_cond1,3.0.7,59.98318606713136,
civilians,&&&&&&&&&,images/symbols/symbol_71.png,condition_files/AMP_rep1.csv,right,care.vice,,,,,,,,,,,,,,0,1,1,0,0,50,50,50,,,,,,,,,,,,,,,,,,,,,628.8813650428741,,,,,,,,,,,,,,AMP_prac,left,0.831926754860774,3,,,left,0.5652489056974446,,,,,,,,,,,,,,,,,,,,,,,,,1012,2019_May_15_1702,mf_amp_cond1,3.0.7,59.98318606713136,
fair,&&&&,images/symbols/symbol_12.png,condition_files/AMP_rep1.csv,left,fairness.virtue,,,,,,,,,,,,,,0,1,1,0,0,51,51,51,,,,,,,,,,,,,,,,,,,,,631.1319368896665,,,,,,,,,,,,,,AMP_prac,left,0.831926754860774,3,,,left,2.0327960389588497,,,,,,,,,,,,,,,,,,,,,,,,,1012,2019_May_15_1702,mf_amp_cond1,3.0.7,59.98318606713136,
friends,&&&&&&&,images/symbols/symbol_2.png,condition_files/AMP_rep1.csv,left,loyalty.virtue,,,,,,,,,,,,,,0,1,1,0,0,52,52,52,,,,,,,,,,,,,,,,,,,,,632.3822518383766,,,,,,,,,,,,,,AMP_prac,left,0.831926754860774,3,,,right,1.032586286966307,,,,,,,,,,,,,,,,,,,,,,,,,1012,2019_May_15_1702,mf_amp_cond1,3.0.7,59.98318606713136,
crime,&&&&&,images/symbols/symbol_43.png,condition_files/AMP_rep1.csv,right,fairness.vice,,,,,,,,,,,,,,0,1,1,0,0,53,53,53,,,,,,,,,,,,,,,,,,,,,633.1658009318888,,,,,,,,,,,,,,AMP_prac,left,0.831926754860774,3,,,left,0.5657415342298009,,,,,,,,,,,,,,,,,,,,,,,,,1012,2019_May_15_1702,mf_amp_cond1,3.0.7,59.98318606713136,
loyalty,&&&&&&&,images/symbols/symbol_27.png,condition_files/AMP_rep1.csv,left,loyalty.virtue,,,,,,,,,,,,,,0,1,1,0,0,54,54,54,,,,,,,,,,,,,,,,,,,,,633.8159839998358,,,,,,,,,,,,,,AMP_prac,left,0.831926754860774,3,,,right,0.4320788410911973,,,,,,,,,,,,,,,,,,,,,,,,,1012,2019_May_15_1702,mf_amp_cond1,3.0.7,59.98318606713136,
pleasant,&&&&&&&,images/symbols/symbol_45.png,condition_files/AMP_rep1.csv,right,control,,,,,,,,,,,,,,0,1,1,0,0,55,55,55,,,,,,,,,,,,,,,,,,,,,634.6662230016472,,,,,,,,,,,,,,AMP_prac,left,0.831926754860774,3,,,left,0.6325141887280097,,,,,,,,,,,,,,,,,,,,,,,,,1012,2019_May_15_1702,mf_amp_cond1,3.0.7,59.98318606713136,
threatened,&&&&&&&&&&,images/symbols/symbol_78.png,condition_files/AMP_rep1.csv,right,fairness.vice,,,,,,,,,,,,,,0,1,1,0,0,56,56,56,,,,,,,,,,,,,,,,,,,,,635.3997257188015,,,,,,,,,,,,,,AMP_prac,left,0.831926754860774,3,,,right,0.5157018930278809,,,,,,,,,,,,,,,,,,,,,,,,,1012,2019_May_15_1702,mf_amp_cond1,3.0.7,59.98318606713136,
critics,&&&&&&&,images/symbols/symbol_34.png,condition_files/AMP_rep1.csv,right,loyalty.vice,,,,,,,,,,,,,,0,1,1,0,0,57,57,57,,,,,,,,,,,,,,,,,,,,,636.0832041893951,,,,,,,,,,,,,,AMP_prac,left,0.831926754860774,3,,,left,0.46555769655105905,,,,,,,,,,,,,,,,,,,,,,,,,1012,2019_May_15_1702,mf_amp_cond1,3.0.7,59.98318606713136,
compassion,&&&&&&&&&&,images/symbols/symbol_63.png,condition_files/AMP_rep1.csv,left,care.virtue,,,,,,,,,,,,,,0,1,1,0,0,58,58,58,,,,,,,,,,,,,,,,,,,,,636.9334043838807,,,,,,,,,,,,,,AMP_prac,left,0.831926754860774,3,,,right,0.6170640622353858,,,,,,,,,,,,,,,,,,,,,,,,,1012,2019_May_15_1702,mf_amp_cond1,3.0.7,59.98318606713136,
honored,&&&&&&&,images/symbols/symbol_16.png,condition_files/AMP_rep1.csv,left,authority.virtue,,,,,,,,,,,,,,0,1,1,0,0,59,59,59,,,,,,,,,,,,,,,,,,,,,637.8503233516186,,,,,,,,,,,,,,AMP_prac,left,0.831926754860774,3,,,left,0.6991338589748466,,,,,,,,,,,,,,,,,,,,,,,,,1012,2019_May_15_1702,mf_amp_cond1,3.0.7,59.98318606713136,
promote,&&&&&&&,images/symbols/symbol_17.png,condition_files/AMP_rep1.csv,left,sanctity.virtue,,,,,,,,,,,,,,0,1,1,0,0,60,60,60,,,,,,,,,,,,,,,,,,,,,638.6338560883243,,,,,,,,,,,,,,AMP_prac,left,0.831926754860774,3,,,right,0.5655715517284534,,,,,,,,,,,,,,,,,,,,,,,,,1012,2019_May_15_1702,mf_amp_cond1,3.0.7,59.98318606713136,
death,&&&&&,images/symbols/symbol_7.png,condition_files/AMP_rep1.csv,right,care.vice,,,,,,,,,,,,,,0,1,1,0,0,61,61,61,,,,,,,,,,,,,,,,,,,,,639.350730347457,,,,,,,,,,,,,,AMP_prac,left,0.831926754860774,3,,,left,0.4993155798904354,,,,,,,,,,,,,,,,,,,,,,,,,1012,2019_May_15_1702,mf_amp_cond1,3.0.7,59.98318606713136,
intelligence,&&&&&&&&&&&&,images/symbols/symbol_37.png,condition_files/AMP_rep1.csv,left,loyalty.virtue,,,,,,,,,,,,,,0,1,1,0,0,62,62,62,,,,,,,,,,,,,,,,,,,,,640.1175461069516,,,,,,,,,,,,,,AMP_prac,left,0.831926754860774,3,,,right,0.533696946216196,,,,,,,,,,,,,,,,,,,,,,,,,1012,2019_May_15_1702,mf_amp_cond1,3.0.7,59.98318606713136,
useful,&&&&&&,images/symbols/symbol_55.png,condition_files/AMP_rep1.csv,left,authority.virtue,,,,,,,,,,,,,,0,1,1,0,0,63,63,63,,,,,,,,,,,,,,,,,,,,,641.1344680253293,,,,,,,,,,,,,,AMP_prac,left,0.831926754860774,3,,,right,0.7988279546166268,,,,,,,,,,,,,,,,,,,,,,,,,1012,2019_May_15_1702,mf_amp_cond1,3.0.7,59.98318606713136,
support,&&&&&&&,images/symbols/symbol_54.png,condition_files/AMP_rep1.csv,left,loyalty.virtue,,,,,,,,,,,,,,0,1,1,0,0,64,64,64,,,,,,,,,,,,,,,,,,,,,642.4014758971226,,,,,,,,,,,,,,AMP_prac,left,0.831926754860774,3,,,right,1.0490790797082354,,,,,,,,,,,,,,,,,,,,,,,,,1012,2019_May_15_1702,mf_amp_cond1,3.0.7,59.98318606713136,
embrace,&&&&&&&,images/symbols/symbol_41.png,condition_files/AMP_rep1.csv,left,authority.virtue,,,,,,,,,,,,,,0,1,1,0,0,65,65,65,,,,,,,,,,,,,,,,,,,,,643.3850539838767,,,,,,,,,,,,,,AMP_prac,left,0.831926754860774,3,,,right,0.766287530853333,,,,,,,,,,,,,,,,,,,,,,,,,1012,2019_May_15_1702,mf_amp_cond1,3.0.7,59.98318606713136,
phiks,&&&&&,images/symbols/symbol_6.png,condition_files/AMP_rep1.csv,None,nonword,,,,,,,,,,,,,,0,1,1,0,0,66,66,66,,,,,,,,,,,,,,,,,,,,,644.6853662385246,,,,,,,,,,,,,,AMP_prac,left,0.831926754860774,3,,,right,1.082470057421915,,,,,,,,,,,,,,,,,,,,,,,,,1012,2019_May_15_1702,mf_amp_cond1,3.0.7,59.98318606713136,
unpleasant,&&&&&&&&&,images/symbols/symbol_73.png,condition_files/AMP_rep1.csv,left,control,,,,,,,,,,,,,,0,1,1,0,0,67,67,67,,,,,,,,,,,,,,,,,,,,,645.7189647231786,,,,,,,,,,,,,,AMP_prac,left,0.831926754860774,3,,,left,0.815754683819705,,,,,,,,,,,,,,,,,,,,,,,,,1012,2019_May_15_1702,mf_amp_cond1,3.0.7,59.98318606713136,
free,&&&&,images/symbols/symbol_76.png,condition_files/AMP_rep1.csv,left,fairness.virtue,,,,,,,,,,,,,,0,1,1,0,0,68,68,68,,,,,,,,,,,,,,,,,,,,,646.4358559805618,,,,,,,,,,,,,,AMP_prac,left,0.831926754860774,3,,,right,0.49956830859059664,,,,,,,,,,,,,,,,,,,,,,,,,1012,2019_May_15_1702,mf_amp_cond1,3.0.7,59.98318606713136,
hand,&&&&,images/symbols/symbol_18.png,condition_files/AMP_rep1.csv,left,sanctity.virtue,,,,,,,,,,,,,,0,1,1,0,0,69,69,69,,,,,,,,,,,,,,,,,,,,,647.2360152509583,,,,,,,,,,,,,,AMP_prac,left,0.831926754860774,3,,,left,0.582613420022426,,,,,,,,,,,,,,,,,,,,,,,,,1012,2019_May_15_1702,mf_amp_cond1,3.0.7,59.98318606713136,
increase,&&&&&&&&,images/symbols/symbol_66.png,condition_files/AMP_rep1.csv,left,care.virtue,,,,,,,,,,,,,,0,1,1,0,0,70,70,70,,,,,,,,,,,,,,,,,,,,,647.9028822617807,,,,,,,,,,,,,,AMP_prac,left,0.831926754860774,3,,,right,0.4492509223957768,,,,,,,,,,,,,,,,,,,,,,,,,1012,2019_May_15_1702,mf_amp_cond1,3.0.7,59.98318606713136,
conspiracy,&&&&&&&&&&,images/symbols/symbol_1.png,condition_files/AMP_rep1.csv,right,sanctity.vice,,,,,,,,,,,,,,0,1,1,0,0,71,71,71,,,,,,,,,,,,,,,,,,,,,648.6197452956541,,,,,,,,,,,,,,AMP_prac,left,0.831926754860774,3,,,left,0.49856541183248737,,,,,,,,,,,,,,,,,,,,,,,,,1012,2019_May_15_1702,mf_amp_cond1,3.0.7,59.98318606713136,
refused,&&&&&&&,images/symbols/symbol_40.png,condition_files/AMP_rep1.csv,right,authority.vice,,,,,,,,,,,,,,0,1,1,0,0,72,72,72,,,,,,,,,,,,,,,,,,,,,649.2865443134759,,,,,,,,,,,,,,AMP_prac,left,0.831926754860774,3,,,right,0.44889460058607256,,,,,,,,,,,,,,,,,,,,,,,,,1012,2019_May_15_1702,mf_amp_cond1,3.0.7,59.98318606713136,
powerful,&&&&&&&&,images/symbols/symbol_25.png,condition_files/AMP_rep1.csv,left,authority.virtue,,,,,,,,,,,,,,0,1,1,0,0,73,73,73,,,,,,,,,,,,,,,,,,,,,650.0867680489345,,,,,,,,,,,,,,AMP_prac,left,0.831926754860774,3,,,right,0.5823930842138907,,,,,,,,,,,,,,,,,,,,,,,,,1012,2019_May_15_1702,mf_amp_cond1,3.0.7,59.98318606713136,
men,&&&,images/symbols/symbol_47.png,condition_files/AMP_rep1.csv,right,loyalty.vice,,,,,,,,,,,,,,0,1,1,0,0,74,74,74,,,,,,,,,,,,,,,,,,,,,651.4537641181693,,,,,,,,,,,,,,AMP_prac,left,0.831926754860774,3,,,right,1.1492356560427197,,,,,,,,,,,,,,,,,,,,,,,,,1012,2019_May_15_1702,mf_amp_cond1,3.0.7,59.98318606713136,
crict,&&&&&,images/symbols/symbol_64.png,condition_files/AMP_rep1.csv,None,nonword,,,,,,,,,,,,,,0,1,1,0,0,75,75,75,,,,,,,,,,,,,,,,,,,,,652.2372766494076,,,,,,,,,,,,,,AMP_prac,left,0.831926754860774,3,,,right,0.5653627619012696,,,,,,,,,,,,,,,,,,,,,,,,,1012,2019_May_15_1702,mf_amp_cond1,3.0.7,59.98318606713136,
trust,&&&&&,images/symbols/symbol_33.png,condition_files/AMP_rep1.csv,left,authority.virtue,,,,,,,,,,,,,,0,1,1,0,0,76,76,76,,,,,,,,,,,,,,,,,,,,,653.137510391383,,,,,,,,,,,,,,AMP_prac,left,0.831926754860774,3,,,right,0.6825945615862565,,,,,,,,,,,,,,,,,,,,,,,,,1012,2019_May_15_1702,mf_amp_cond1,3.0.7,59.98318606713136,
terrorists,&&&&&&&&&&,images/symbols/symbol_57.png,condition_files/AMP_rep1.csv,right,fairness.vice,,,,,,,,,,,,,,0,1,1,0,0,77,77,77,,,,,,,,,,,,,,,,,,,,,654.2711259384317,,,,,,,,,,,,,,AMP_prac,left,0.831926754860774,3,,,right,0.9158596239601593,,,,,,,,,,,,,,,,,,,,,,,,,1012,2019_May_15_1702,mf_amp_cond1,3.0.7,59.98318606713136,
beest,&&&&&,images/symbols/symbol_74.png,condition_files/AMP_rep1.csv,None,nonword,,,,,,,,,,,,,,0,1,1,0,0,78,78,78,,,,,,,,,,,,,,,,,,,,,655.138007830741,,,,,,,,,,,,,,AMP_prac,left,0.831926754860774,3,,,right,0.6337284410874418,,,,,,,,,,,,,,,,,,,,,,,,,1012,2019_May_15_1702,mf_amp_cond1,3.0.7,59.98318606713136,
torture,&&&&&&&,images/symbols/symbol_59.png,condition_files/AMP_rep1.csv,right,care.vice,,,,,,,,,,,,,,0,1,1,0,0,79,79,79,,,,,,,,,,,,,,,,,,,,,655.9215482647672,,,,,,,,,,,,,,AMP_prac,left,0.831926754860774,3,,,right,0.5655080488318163,,,,,,,,,,,,,,,,,,,,,,,,,1012,2019_May_15_1702,mf_amp_cond1,3.0.7,59.98318606713136,
harassment,&&&&&&&&&&,images/symbols/symbol_53.png,condition_files/AMP_rep1.csv,right,sanctity.vice,,,,,,,,,,,,,,0,1,1,0,0,80,80,80,,,,,,,,,,,,,,,,,,,,,656.8717918208268,,,,,,,,,,,,,,AMP_prac,left,0.831926754860774,3,,,left,0.7325909053588475,,,,,,,,,,,,,,,,,,,,,,,,,1012,2019_May_15_1702,mf_amp_cond1,3.0.7,59.98318606713136,
good,&&&&,images/symbols/symbol_30.png,condition_files/AMP_rep1.csv,left,care.virtue,,,,,,,,,,,,,,0,1,1,0,0,81,81,81,,,,,,,,,,,,,,,,,,,,,657.7053398238853,,,,,,,,,,,,,,AMP_prac,left,0.831926754860774,3,,,left,0.6159315939098633,,,,,,,,,,,,,,,,,,,,,,,,,1012,2019_May_15_1702,mf_amp_cond1,3.0.7,59.98318606713136,
,,,condition_files/AMP_rep1.csv,,,,,,,,,,,,,,,,0,1,1,0,,,,,,,,,,,,,,,,,,,,,,,,,,,,,,,,,,,,,,,,,,,,,,,right,3.401282181215265,,,,,,,,,,,,,,,,,,,,,,,1012,2019_May_15_1702,mf_amp_cond1,3.0.7,59.98318606713136,
serial,&&&&&&,images/symbols/symbol_21.png,condition_files/AMP_rep4.csv,right,sanctity.vice,,,,,,,,,,,,,,0,2,2,3,0,0,0,0,,,,,,,,,,,,,,,,,,,,,662.7400791156291,,,,,,,,,,,,,,AMP_prac,left,0.831926754860774,3,,,right,1.3824936625392183,,,,,,,,,,,,,,,,,,,,,,,,,1012,2019_May_15_1702,mf_amp_cond1,3.0.7,59.98318606713136,
safety,&&&&&&,images/symbols/symbol_9.png,condition_files/AMP_rep4.csv,left,care.virtue,,,,,,,,,,,,,,0,2,2,3,0,1,1,1,,,,,,,,,,,,,,,,,,,,,663.5401392830203,,,,,,,,,,,,,,AMP_prac,left,0.831926754860774,3,,,right,0.5824020644213306,,,,,,,,,,,,,,,,,,,,,,,,,1012,2019_May_15_1702,mf_amp_cond1,3.0.7,59.98318606713136,
rheys,&&&&&,images/symbols/symbol_4.png,condition_files/AMP_rep4.csv,None,nonword,,,,,,,,,,,,,,0,2,2,3,0,2,2,2,,,,,,,,,,,,,,,,,,,,,664.4570406110646,,,,,,,,,,,,,,AMP_prac,left,0.831926754860774,3,,,right,0.6990392460729709,,,,,,,,,,,,,,,,,,,,,,,,,1012,2019_May_15_1702,mf_amp_cond1,3.0.7,59.98318606713136,
care,&&&&,images/symbols/symbol_68.png,condition_files/AMP_rep4.csv,left,care.virtue,,,,,,,,,,,,,,0,2,2,3,0,3,3,3,,,,,,,,,,,,,,,,,,,,,665.4072783941336,,,,,,,,,,,,,,AMP_prac,left,0.831926754860774,3,,,right,0.7170923498892989,,,,,,,,,,,,,,,,,,,,,,,,,1012,2019_May_15_1702,mf_amp_cond1,3.0.7,59.98318606713136,
corruption,&&&&&&&&&&,images/symbols/symbol_38.png,condition_files/AMP_rep4.csv,right,sanctity.vice,,,,,,,,,,,,,,0,2,2,3,0,4,4,4,,,,,,,,,,,,,,,,,,,,,666.4408781616745,,,,,,,,,,,,,,AMP_prac,left,0.831926754860774,3,,,right,0.8154070214959575,,,,,,,,,,,,,,,,,,,,,,,,,1012,2019_May_15_1702,mf_amp_cond1,3.0.7,59.98318606713136,
suicide,&&&&&&&,images/symbols/symbol_14.png,condition_files/AMP_rep4.csv,right,care.vice,,,,,,,,,,,,,,0,2,2,3,0,5,5,5,,,,,,,,,,,,,,,,,,,,,667.2244153884836,,,,,,,,,,,,,,AMP_prac,left,0.831926754860774,3,,,left,0.5656783520551016,,,,,,,,,,,,,,,,,,,,,,,,,1012,2019_May_15_1702,mf_amp_cond1,3.0.7,59.98318606713136,
hope,&&&&,images/symbols/symbol_79.png,condition_files/AMP_rep4.csv,left,loyalty.virtue,,,,,,,,,,,,,,0,2,2,3,0,6,6,6,,,,,,,,,,,,,,,,,,,,,667.8912471199191,,,,,,,,,,,,,,AMP_prac,left,0.831926754860774,3,,,right,0.448985364827422,,,,,,,,,,,,,,,,,,,,,,,,,1012,2019_May_15_1702,mf_amp_cond1,3.0.7,59.98318606713136,
squauzz,&&&&&&&,images/symbols/symbol_11.png,condition_files/AMP_rep4.csv,None,nonword,,,,,,,,,,,,,,0,2,2,3,0,7,7,7,,,,,,,,,,,,,,,,,,,,,668.6247796641916,,,,,,,,,,,,,,AMP_prac,left,0.831926754860774,3,,,right,0.5157269093206196,,,,,,,,,,,,,,,,,,,,,,,,,1012,2019_May_15_1702,mf_amp_cond1,3.0.7,59.98318606713136,
arrests,&&&&&&&,images/symbols/symbol_81.png,condition_files/AMP_rep4.csv,right,authority.vice,,,,,,,,,,,,,,0,2,2,3,0,8,8,8,,,,,,,,,,,,,,,,,,,,,669.3916214021439,,,,,,,,,,,,,,AMP_prac,left,0.831926754860774,3,,,left,0.5337091336407411,,,,,,,,,,,,,,,,,,,,,,,,,1012,2019_May_15_1702,mf_amp_cond1,3.0.7,59.98318606713136,
officers,&&&&&&&&,images/symbols/symbol_46.png,condition_files/AMP_rep4.csv,right,authority.vice,,,,,,,,,,,,,,0,2,2,3,0,9,9,9,,,,,,,,,,,,,,,,,,,,,670.1751551010144,,,,,,,,,,,,,,AMP_prac,left,0.831926754860774,3,,,left,0.5653197851934237,,,,,,,,,,,,,,,,,,,,,,,,,1012,2019_May_15_1702,mf_amp_cond1,3.0.7,59.98318606713136,
commitment,&&&&&&&&&&,images/symbols/symbol_26.png,condition_files/AMP_rep4.csv,left,sanctity.virtue,,,,,,,,,,,,,,0,2,2,3,0,10,10,10,,,,,,,,,,,,,,,,,,,,,670.9753563859539,,,,,,,,,,,,,,AMP_prac,left,0.831926754860774,3,,,left,0.5823100172933664,,,,,,,,,,,,,,,,,,,,,,,,,1012,2019_May_15_1702,mf_amp_cond1,3.0.7,59.98318606713136,
rebels,&&&&&&,images/symbols/symbol_31.png,condition_files/AMP_rep4.csv,right,authority.vice,,,,,,,,,,,,,,0,2,2,3,0,11,11,11,,,,,,,,,,,,,,,,,,,,,671.9923033206243,,,,,,,,,,,,,,AMP_prac,left,0.831926754860774,3,,,right,0.8001085963678634,,,,,,,,,,,,,,,,,,,,,,,,,1012,2019_May_15_1702,mf_amp_cond1,3.0.7,59.98318606713136,
failure,&&&&&&&,images/symbols/symbol_8.png,condition_files/AMP_rep4.csv,right,loyalty.vice,,,,,,,,,,,,,,0,2,2,3,0,12,12,12,,,,,,,,,,,,,,,,,,,,,672.8091516654437,,,,,,,,,,,,,,AMP_prac,left,0.831926754860774,3,,,right,0.5991844688592209,,,,,,,,,,,,,,,,,,,,,,,,,1012,2019_May_15_1702,mf_amp_cond1,3.0.7,59.98318606713136,
forced,&&&&&&,images/symbols/symbol_72.png,condition_files/AMP_rep4.csv,right,fairness.vice,,,,,,,,,,,,,,0,2,2,3,0,13,13,13,,,,,,,,,,,,,,,,,,,,,673.5760164953584,,,,,,,,,,,,,,AMP_prac,left,0.831926754860774,3,,,right,0.5337081714758369,,,,,,,,,,,,,,,,,,,,,,,,,1012,2019_May_15_1702,mf_amp_cond1,3.0.7,59.98318606713136,
fighters,&&&&&&&&,images/symbols/symbol_65.png,condition_files/AMP_rep4.csv,right,authority.vice,,,,,,,,,,,,,,0,2,2,3,0,14,14,14,,,,,,,,,,,,,,,,,,,,,674.4095616119215,,,,,,,,,,,,,,AMP_prac,left,0.831926754860774,3,,,right,0.6151698798705638,,,,,,,,,,,,,,,,,,,,,,,,,1012,2019_May_15_1702,mf_amp_cond1,3.0.7,59.98318606713136,
protect,&&&&&&&,images/symbols/symbol_67.png,condition_files/AMP_rep4.csv,left,fairness.virtue,,,,,,,,,,,,,,0,2,2,3,0,15,15,15,,,,,,,,,,,,,,,,,,,,,675.3931566969258,,,,,,,,,,,,,,AMP_prac,left,0.831926754860774,3,,,right,0.7657727725236327,,,,,,,,,,,,,,,,,,,,,,,,,1012,2019_May_15_1702,mf_amp_cond1,3.0.7,59.98318606713136,
peace,&&&&&,images/symbols/symbol_36.png,condition_files/AMP_rep4.csv,left,care.virtue,,,,,,,,,,,,,,0,2,2,3,0,16,16,16,,,,,,,,,,,,,,,,,,,,,676.3934010868617,,,,,,,,,,,,,,AMP_prac,left,0.831926754860774,3,,,right,0.7825372165461886,,,,,,,,,,,,,,,,,,,,,,,,,1012,2019_May_15_1702,mf_amp_cond1,3.0.7,59.98318606713136,
encourage,&&&&&&&&&,images/symbols/symbol_50.png,condition_files/AMP_rep4.csv,left,authority.virtue,,,,,,,,,,,,,,0,2,2,3,0,17,17,17,,,,,,,,,,,,,,,,,,,,,677.4603292913847,,,,,,,,,,,,,,AMP_prac,left,0.831926754860774,3,,,right,0.8490087133670841,,,,,,,,,,,,,,,,,,,,,,,,,1012,2019_May_15_1702,mf_amp_cond1,3.0.7,59.98318606713136,
died,&&&&,images/symbols/symbol_51.png,condition_files/AMP_rep4.csv,right,care.vice,,,,,,,,,,,,,,0,2,2,3,0,18,18,18,,,,,,,,,,,,,,,,,,,,,678.3272361999867,,,,,,,,,,,,,,AMP_prac,left,0.831926754860774,3,,,right,0.6494864604126178,,,,,,,,,,,,,,,,,,,,,,,,,1012,2019_May_15_1702,mf_amp_cond1,3.0.7,59.98318606713136,
abuse,&&&&&,images/symbols/symbol_56.png,condition_files/AMP_rep4.csv,right,sanctity.vice,,,,,,,,,,,,,,0,2,2,3,0,19,19,19,,,,,,,,,,,,,,,,,,,,,679.4441761429238,,,,,,,,,,,,,,AMP_prac,left,0.831926754860774,3,,,right,0.8837967548095094,,,,,,,,,,,,,,,,,,,,,,,,,1012,2019_May_15_1702,mf_amp_cond1,3.0.7,59.98318606713136,
troops,&&&&&&,images/symbols/symbol_13.png,condition_files/AMP_rep4.csv,right,loyalty.vice,,,,,,,,,,,,,,0,2,2,3,0,20,20,20,,,,,,,,,,,,,,,,,,,,,680.9612154454438,,,,,,,,,,,,,,AMP_prac,left,0.831926754860774,3,,,right,1.298721795733627,,,,,,,,,,,,,,,,,,,,,,,,,1012,2019_May_15_1702,mf_amp_cond1,3.0.7,59.98318606713136,
actively,&&&&&&&&,images/symbols/symbol_42.png,condition_files/AMP_rep4.csv,left,authority.virtue,,,,,,,,,,,,,,0,2,2,3,0,21,21,21,,,,,,,,,,,,,,,,,,,,,682.0281567995565,,,,,,,,,,,,,,AMP_prac,left,0.831926754860774,3,,,left,0.849106533486065,,,,,,,,,,,,,,,,,,,,,,,,,1012,2019_May_15_1702,mf_amp_cond1,3.0.7,59.98318606713136,
respect,&&&&&&&,images/symbols/symbol_29.png,condition_files/AMP_rep4.csv,left,sanctity.virtue,,,,,,,,,,,,,,0,2,2,3,0,22,22,22,,,,,,,,,,,,,,,,,,,,,683.1117750406676,,,,,,,,,,,,,,AMP_prac,left,0.831926754860774,3,,,left,0.865626908294189,,,,,,,,,,,,,,,,,,,,,,,,,1012,2019_May_15_1702,mf_amp_cond1,3.0.7,59.98318606713136,
sexual,&&&&&&,images/symbols/symbol_5.png,condition_files/AMP_rep4.csv,right,sanctity.vice,,,,,,,,,,,,,,0,2,2,3,0,23,23,23,,,,,,,,,,,,,,,,,,,,,683.9786466698823,,,,,,,,,,,,,,AMP_prac,left,0.831926754860774,3,,,right,0.6489049919691752,,,,,,,,,,,,,,,,,,,,,,,,,1012,2019_May_15_1702,mf_amp_cond1,3.0.7,59.98318606713136,
opportunity,&&&&&&&&&&&,images/symbols/symbol_15.png,condition_files/AMP_rep4.csv,left,fairness.virtue,,,,,,,,,,,,,,0,2,2,3,0,24,24,24,,,,,,,,,,,,,,,,,,,,,684.8121946729408,,,,,,,,,,,,,,AMP_prac,left,0.831926754860774,3,,,left,0.6157019571721776,,,,,,,,,,,,,,,,,,,,,,,,,1012,2019_May_15_1702,mf_amp_cond1,3.0.7,59.98318606713136,
sharing,&&&&&&&,images/symbols/symbol_48.png,condition_files/AMP_rep4.csv,left,loyalty.virtue,,,,,,,,,,,,,,0,2,2,3,0,25,25,25,,,,,,,,,,,,,,,,,,,,,685.8957901428108,,,,,,,,,,,,,,AMP_prac,left,0.831926754860774,3,,,right,0.8658212656448541,,,,,,,,,,,,,,,,,,,,,,,,,1012,2019_May_15_1702,mf_amp_cond1,3.0.7,59.98318606713136,
terrorist,&&&&&&&&&,images/symbols/symbol_70.png,condition_files/AMP_rep4.csv,right,loyalty.vice,,,,,,,,,,,,,,0,2,2,3,0,26,26,26,,,,,,,,,,,,,,,,,,,,,686.9960778943208,,,,,,,,,,,,,,AMP_prac,left,0.831926754860774,3,,,right,0.8671198678114251,,,,,,,,,,,,,,,,,,,,,,,,,1012,2019_May_15_1702,mf_amp_cond1,3.0.7,59.98318606713136,
protesters,&&&&&&&&&&,images/symbols/symbol_69.png,condition_files/AMP_rep4.csv,right,authority.vice,,,,,,,,,,,,,,0,2,2,3,0,27,27,27,,,,,,,,,,,,,,,,,,,,,687.9296496949295,,,,,,,,,,,,,,AMP_prac,left,0.831926754860774,3,,,right,0.7151863008216424,,,,,,,,,,,,,,,,,,,,,,,,,1012,2019_May_15_1702,mf_amp_cond1,3.0.7,59.98318606713136,
stailde,&&&&&&&,images/symbols/symbol_39.png,condition_files/AMP_rep4.csv,None,nonword,,,,,,,,,,,,,,0,2,2,3,0,28,28,28,,,,,,,,,,,,,,,,,,,,,689.4133579946939,,,,,,,,,,,,,,AMP_prac,left,0.831926754860774,3,,,left,1.2658333889251026,,,,,,,,,,,,,,,,,,,,,,,,,1012,2019_May_15_1702,mf_amp_cond1,3.0.7,59.98318606713136,
promises,&&&&&&&&,images/symbols/symbol_32.png,condition_files/AMP_rep4.csv,left,fairness.virtue,,,,,,,,,,,,,,0,2,2,3,0,29,29,29,,,,,,,,,,,,,,,,,,,,,690.2802588095836,,,,,,,,,,,,,,AMP_prac,left,0.831926754860774,3,,,right,0.6491060844755339,,,,,,,,,,,,,,,,,,,,,,,,,1012,2019_May_15_1702,mf_amp_cond1,3.0.7,59.98318606713136,
riot,&&&&,images/symbols/symbol_3.png,condition_files/AMP_rep4.csv,right,authority.vice,,,,,,,,,,,,,,0,2,2,3,0,30,30,30,,,,,,,,,,,,,,,,,,,,,691.3305210316463,,,,,,,,,,,,,,AMP_prac,left,0.831926754860774,3,,,right,0.8325114305214356,,,,,,,,,,,,,,,,,,,,,,,,,1012,2019_May_15_1702,mf_amp_cond1,3.0.7,59.98318606713136,
stryct,&&&&&&,images/symbols/symbol_19.png,condition_files/AMP_rep4.csv,None,nonword,,,,,,,,,,,,,,0,2,2,3,0,31,31,31,,,,,,,,,,,,,,,,,,,,,692.0640410677723,,,,,,,,,,,,,,AMP_prac,left,0.831926754860774,3,,,right,0.5157471147877004,,,,,,,,,,,,,,,,,,,,,,,,,1012,2019_May_15_1702,mf_amp_cond1,3.0.7,59.98318606713136,
lighnde,&&&&&&&,images/symbols/symbol_80.png,condition_files/AMP_rep4.csv,None,nonword,,,,,,,,,,,,,,0,2,2,3,0,32,32,32,,,,,,,,,,,,,,,,,,,,,692.9309152627608,,,,,,,,,,,,,,AMP_prac,left,0.831926754860774,3,,,left,0.6490419401352483,,,,,,,,,,,,,,,,,,,,,,,,,1012,2019_May_15_1702,mf_amp_cond1,3.0.7,59.98318606713136,
safe,&&&&,images/symbols/symbol_23.png,condition_files/AMP_rep4.csv,left,care.virtue,,,,,,,,,,,,,,0,2,2,3,0,33,33,33,,,,,,,,,,,,,,,,,,,,,693.581108593802,,,,,,,,,,,,,,AMP_prac,left,0.831926754860774,3,,,right,0.432365887013475,,,,,,,,,,,,,,,,,,,,,,,,,1012,2019_May_15_1702,mf_amp_cond1,3.0.7,59.98318606713136,
war,&&&,images/symbols/symbol_10.png,condition_files/AMP_rep4.csv,right,sanctity.vice,,,,,,,,,,,,,,0,2,2,3,0,34,34,34,,,,,,,,,,,,,,,,,,,,,694.6813594623164,,,,,,,,,,,,,,AMP_prac,left,0.831926754860774,3,,,left,0.882660437823688,,,,,,,,,,,,,,,,,,,,,,,,,1012,2019_May_15_1702,mf_amp_cond1,3.0.7,59.98318606713136,
great,&&&&&,images/symbols/symbol_49.png,condition_files/AMP_rep4.csv,left,loyalty.virtue,,,,,,,,,,,,,,0,2,2,3,0,35,35,35,,,,,,,,,,,,,,,,,,,,,695.4482156327455,,,,,,,,,,,,,,AMP_prac,left,0.831926754860774,3,,,right,0.5337177931269252,,,,,,,,,,,,,,,,,,,,,,,,,1012,2019_May_15_1702,mf_amp_cond1,3.0.7,59.98318606713136,
shot,&&&&,images/symbols/symbol_22.png,condition_files/AMP_rep4.csv,right,care.vice,,,,,,,,,,,,,,0,2,2,3,0,36,36,36,,,,,,,,,,,,,,,,,,,,,696.4151261334304,,,,,,,,,,,,,,AMP_prac,left,0.831926754860774,3,,,left,0.7484826656334462,,,,,,,,,,,,,,,,,,,,,,,,,1012,2019_May_15_1702,mf_amp_cond1,3.0.7,59.98318606713136,
prison,&&&&&&,images/symbols/symbol_28.png,condition_files/AMP_rep4.csv,right,fairness.vice,,,,,,,,,,,,,,0,2,2,3,0,37,37,37,,,,,,,,,,,,,,,,,,,,,697.3653773868108,,,,,,,,,,,,,,AMP_prac,left,0.831926754860774,3,,,right,0.7325370241130713,,,,,,,,,,,,,,,,,,,,,,,,,1012,2019_May_15_1702,mf_amp_cond1,3.0.7,59.98318606713136,
charges,&&&&&&&,images/symbols/symbol_58.png,condition_files/AMP_rep4.csv,right,fairness.vice,,,,,,,,,,,,,,0,2,2,3,0,38,38,38,,,,,,,,,,,,,,,,,,,,,698.198983440497,,,,,,,,,,,,,,AMP_prac,left,0.831926754860774,3,,,left,0.6004554889593692,,,,,,,,,,,,,,,,,,,,,,,,,1012,2019_May_15_1702,mf_amp_cond1,3.0.7,59.98318606713136,
benefit,&&&&&&&,images/symbols/symbol_20.png,condition_files/AMP_rep4.csv,left,fairness.virtue,,,,,,,,,,,,,,0,2,2,3,0,39,39,39,,,,,,,,,,,,,,,,,,,,,699.4992443796729,,,,,,,,,,,,,,AMP_prac,left,0.831926754860774,3,,,right,1.0823703129728983,,,,,,,,,,,,,,,,,,,,,,,,,1012,2019_May_15_1702,mf_amp_cond1,3.0.7,59.98318606713136,
jipte,&&&&&,images/symbols/symbol_35.png,condition_files/AMP_rep4.csv,None,nonword,,,,,,,,,,,,,,0,2,2,3,0,40,40,40,,,,,,,,,,,,,,,,,,,,,700.4995548382793,,,,,,,,,,,,,,AMP_prac,left,0.831926754860774,3,,,right,0.7821606892694035,,,,,,,,,,,,,,,,,,,,,,,,,1012,2019_May_15_1702,mf_amp_cond1,3.0.7,59.98318606713136,
snoze,&&&&&,images/symbols/symbol_44.png,condition_files/AMP_rep4.csv,None,nonword,,,,,,,,,,,,,,0,2,2,3,0,41,41,41,,,,,,,,,,,,,,,,,,,,,701.4830691014148,,,,,,,,,,,,,,AMP_prac,left,0.831926754860774,3,,,left,0.7655104221723832,,,,,,,,,,,,,,,,,,,,,,,,,1012,2019_May_15_1702,mf_amp_cond1,3.0.7,59.98318606713136,
fraud,&&&&&,images/symbols/symbol_82.png,condition_files/AMP_rep4.csv,right,fairness.vice,,,,,,,,,,,,,,0,2,2,3,0,42,42,42,,,,,,,,,,,,,,,,,,,,,702.2999809491308,,,,,,,,,,,,,,AMP_prac,left,0.831926754860774,3,,,right,0.5994833814843332,,,,,,,,,,,,,,,,,,,,,,,,,1012,2019_May_15_1702,mf_amp_cond1,3.0.7,59.98318606713136,
strength,&&&&&&&&,images/symbols/symbol_62.png,condition_files/AMP_rep4.csv,left,sanctity.virtue,,,,,,,,,,,,,,0,2,2,3,0,43,43,43,,,,,,,,,,,,,,,,,,,,,703.0335077204128,,,,,,,,,,,,,,AMP_prac,left,0.831926754860774,3,,,left,0.5004326535743076,,,,,,,,,,,,,,,,,,,,,,,,,1012,2019_May_15_1702,mf_amp_cond1,3.0.7,59.98318606713136,
faith,&&&&&,images/symbols/symbol_75.png,condition_files/AMP_rep4.csv,left,sanctity.virtue,,,,,,,,,,,,,,0,2,2,3,0,44,44,44,,,,,,,,,,,,,,,,,,,,,704.4171511702492,,,,,,,,,,,,,,AMP_prac,left,0.831926754860774,3,,,right,1.150528805940212,,,,,,,,,,,,,,,,,,,,,,,,,1012,2019_May_15_1702,mf_amp_cond1,3.0.7,59.98318606713136,
army,&&&&,images/symbols/symbol_61.png,condition_files/AMP_rep4.csv,right,loyalty.vice,,,,,,,,,,,,,,0,2,2,3,0,45,45,45,,,,,,,,,,,,,,,,,,,,,706.0676174354579,,,,,,,,,,,,,,AMP_prac,left,0.831926754860774,3,,,right,1.4319713993215828,,,,,,,,,,,,,,,,,,,,,,,,,1012,2019_May_15_1702,mf_amp_cond1,3.0.7,59.98318606713136,
integrity,&&&&&&&&&,images/symbols/symbol_52.png,condition_files/AMP_rep4.csv,left,fairness.virtue,,,,,,,,,,,,,,0,2,2,3,0,46,46,46,,,,,,,,,,,,,,,,,,,,,707.5679487409749,,,,,,,,,,,,,,AMP_prac,left,0.831926754860774,3,,,left,1.282986868370699,,,,,,,,,,,,,,,,,,,,,,,,,1012,2019_May_15_1702,mf_amp_cond1,3.0.7,59.98318606713136,
blamed,&&&&&&,images/symbols/symbol_60.png,condition_files/AMP_rep4.csv,right,loyalty.vice,,,,,,,,,,,,,,0,2,2,3,0,47,47,47,,,,,,,,,,,,,,,,,,,,,708.8349383316314,,,,,,,,,,,,,,AMP_prac,left,0.831926754860774,3,,,right,1.0489145494757395,,,,,,,,,,,,,,,,,,,,,,,,,1012,2019_May_15_1702,mf_amp_cond1,3.0.7,59.98318606713136,
values,&&&&&&,images/symbols/symbol_24.png,condition_files/AMP_rep4.csv,left,sanctity.virtue,,,,,,,,,,,,,,0,2,2,3,0,48,48,48,,,,,,,,,,,,,,,,,,,,,709.8685380991723,,,,,,,,,,,,,,AMP_prac,left,0.831926754860774,3,,,right,0.8004472784839436,,,,,,,,,,,,,,,,,,,,,,,,,1012,2019_May_15_1702,mf_amp_cond1,3.0.7,59.98318606713136,
violence,&&&&&&&&,images/symbols/symbol_77.png,condition_files/AMP_rep4.csv,right,care.vice,,,,,,,,,,,,,,0,2,2,3,0,49,49,49,,,,,,,,,,,,,,,,,,,,,710.8354902936784,,,,,,,,,,,,,,AMP_prac,left,0.831926754860774,3,,,right,0.7337801414255409,,,,,,,,,,,,,,,,,,,,,,,,,1012,2019_May_15_1702,mf_amp_cond1,3.0.7,59.98318606713136,
civilians,&&&&&&&&&,images/symbols/symbol_71.png,condition_files/AMP_rep4.csv,right,care.vice,,,,,,,,,,,,,,0,2,2,3,0,50,50,50,,,,,,,,,,,,,,,,,,,,,712.0524293385948,,,,,,,,,,,,,,AMP_prac,left,0.831926754860774,3,,,left,0.9985978047241133,,,,,,,,,,,,,,,,,,,,,,,,,1012,2019_May_15_1702,mf_amp_cond1,3.0.7,59.98318606713136,
fair,&&&&,images/symbols/symbol_12.png,condition_files/AMP_rep4.csv,left,fairness.virtue,,,,,,,,,,,,,,0,2,2,3,0,51,51,51,,,,,,,,,,,,,,,,,,,,,712.9193057786352,,,,,,,,,,,,,,AMP_prac,left,0.831926754860774,3,,,left,0.6490868411735846,,,,,,,,,,,,,,,,,,,,,,,,,1012,2019_May_15_1702,mf_amp_cond1,3.0.7,59.98318606713136,
friends,&&&&&&&,images/symbols/symbol_2.png,condition_files/AMP_rep4.csv,left,loyalty.virtue,,,,,,,,,,,,,,0,2,2,3,0,52,52,52,,,,,,,,,,,,,,,,,,,,,714.0195893607632,,,,,,,,,,,,,,AMP_prac,left,0.831926754860774,3,,,left,0.8825683906954964,,,,,,,,,,,,,,,,,,,,,,,,,1012,2019_May_15_1702,mf_amp_cond1,3.0.7,59.98318606713136,
crime,&&&&&,images/symbols/symbol_43.png,condition_files/AMP_rep4.csv,right,fairness.vice,,,,,,,,,,,,,,0,2,2,3,0,53,53,53,,,,,,,,,,,,,,,,,,,,,715.1365353974126,,,,,,,,,,,,,,AMP_prac,left,0.831926754860774,3,,,right,0.8991028772584286,,,,,,,,,,,,,,,,,,,,,,,,,1012,2019_May_15_1702,mf_amp_cond1,3.0.7,59.98318606713136,
loyalty,&&&&&&&,images/symbols/symbol_27.png,condition_files/AMP_rep4.csv,left,loyalty.virtue,,,,,,,,,,,,,,0,2,2,3,0,54,54,54,,,,,,,,,,,,,,,,,,,,,716.2368160930451,,,,,,,,,,,,,,AMP_prac,left,0.831926754860774,3,,,right,0.8824490822228199,,,,,,,,,,,,,,,,,,,,,,,,,1012,2019_May_15_1702,mf_amp_cond1,3.0.7,59.98318606713136,
pleasant,&&&&&&&,images/symbols/symbol_45.png,condition_files/AMP_rep4.csv,right,control,,,,,,,,,,,,,,0,2,2,3,0,55,55,55,,,,,,,,,,,,,,,,,,,,,717.1370414962565,,,,,,,,,,,,,,AMP_prac,left,0.831926754860774,3,,,right,0.6820156589162707,,,,,,,,,,,,,,,,,,,,,,,,,1012,2019_May_15_1702,mf_amp_cond1,3.0.7,59.98318606713136,
threatened,&&&&&&&&&&,images/symbols/symbol_78.png,condition_files/AMP_rep4.csv,right,fairness.vice,,,,,,,,,,,,,,0,2,2,3,0,56,56,56,,,,,,,,,,,,,,,,,,,,,717.8872281562864,,,,,,,,,,,,,,AMP_prac,left,0.831926754860774,3,,,right,0.5323460664126287,,,,,,,,,,,,,,,,,,,,,,,,,1012,2019_May_15_1702,mf_amp_cond1,3.0.7,59.98318606713136,
critics,&&&&&&&,images/symbols/symbol_34.png,condition_files/AMP_rep4.csv,right,loyalty.vice,,,,,,,,,,,,,,0,2,2,3,0,57,57,57,,,,,,,,,,,,,,,,,,,,,718.8374688258506,,,,,,,,,,,,,,AMP_prac,left,0.831926754860774,3,,,right,0.7323324036681242,,,,,,,,,,,,,,,,,,,,,,,,,1012,2019_May_15_1702,mf_amp_cond1,3.0.7,59.98318606713136,
compassion,&&&&&&&&&&,images/symbols/symbol_63.png,condition_files/AMP_rep4.csv,left,care.virtue,,,,,,,,,,,,,,0,2,2,3,0,58,58,58,,,,,,,,,,,,,,,,,,,,,719.7543608529658,,,,,,,,,,,,,,AMP_prac,left,0.831926754860774,3,,,right,0.6837135596001644,,,,,,,,,,,,,,,,,,,,,,,,,1012,2019_May_15_1702,mf_amp_cond1,3.0.7,59.98318606713136,
honored,&&&&&&&,images/symbols/symbol_16.png,condition_files/AMP_rep4.csv,left,authority.virtue,,,,,,,,,,,,,,0,2,2,3,0,59,59,59,,,,,,,,,,,,,,,,,,,,,720.471272315816,,,,,,,,,,,,,,AMP_prac,left,0.831926754860774,3,,,right,0.49884315682538727,,,,,,,,,,,,,,,,,,,,,,,,,1012,2019_May_15_1702,mf_amp_cond1,3.0.7,59.98318606713136,
promote,&&&&&&&,images/symbols/symbol_17.png,condition_files/AMP_rep4.csv,left,sanctity.virtue,,,,,,,,,,,,,,0,2,2,3,0,60,60,60,,,,,,,,,,,,,,,,,,,,,721.2380710770605,,,,,,,,,,,,,,AMP_prac,left,0.831926754860774,3,,,right,0.5490848526990249,,,,,,,,,,,,,,,,,,,,,,,,,1012,2019_May_15_1702,mf_amp_cond1,3.0.7,59.98318606713136,
death,&&&&&,images/symbols/symbol_7.png,condition_files/AMP_rep4.csv,right,care.vice,,,,,,,,,,,,,,0,2,2,3,0,61,61,61,,,,,,,,,,,,,,,,,,,,,722.0882885905179,,,,,,,,,,,,,,AMP_prac,left,0.831926754860774,3,,,left,0.6325151508931413,,,,,,,,,,,,,,,,,,,,,,,,,1012,2019_May_15_1702,mf_amp_cond1,3.0.7,59.98318606713136,
intelligence,&&&&&&&&&&&&,images/symbols/symbol_37.png,condition_files/AMP_rep4.csv,left,loyalty.virtue,,,,,,,,,,,,,,0,2,2,3,0,62,62,62,,,,,,,,,,,,,,,,,,,,,722.9383733251913,,,,,,,,,,,,,,AMP_prac,left,0.831926754860774,3,,,right,0.6169316041728052,,,,,,,,,,,,,,,,,,,,,,,,,1012,2019_May_15_1702,mf_amp_cond1,3.0.7,59.98318606713136,
useful,&&&&&&,images/symbols/symbol_55.png,condition_files/AMP_rep4.csv,left,authority.virtue,,,,,,,,,,,,,,0,2,2,3,0,63,63,63,,,,,,,,,,,,,,,,,,,,,723.8554090356282,,,,,,,,,,,,,,AMP_prac,left,0.831926754860774,3,,,right,0.6982829843025229,,,,,,,,,,,,,,,,,,,,,,,,,1012,2019_May_15_1702,mf_amp_cond1,3.0.7,59.98318606713136,
support,&&&&&&&,images/symbols/symbol_54.png,condition_files/AMP_rep4.csv,left,loyalty.virtue,,,,,,,,,,,,,,0,2,2,3,0,64,64,64,,,,,,,,,,,,,,,,,,,,,724.7389822474123,,,,,,,,,,,,,,AMP_prac,left,0.831926754860774,3,,,left,0.6655882934012425,,,,,,,,,,,,,,,,,,,,,,,,,1012,2019_May_15_1702,mf_amp_cond1,3.0.7,59.98318606713136,
embrace,&&&&&&&,images/symbols/symbol_41.png,condition_files/AMP_rep4.csv,left,authority.virtue,,,,,,,,,,,,,,0,2,2,3,0,65,65,65,,,,,,,,,,,,,,,,,,,,,725.7725650167032,,,,,,,,,,,,,,AMP_prac,left,0.831926754860774,3,,,right,0.8161831680120031,,,,,,,,,,,,,,,,,,,,,,,,,1012,2019_May_15_1702,mf_amp_cond1,3.0.7,59.98318606713136,
phiks,&&&&&,images/symbols/symbol_6.png,condition_files/AMP_rep4.csv,None,nonword,,,,,,,,,,,,,,0,2,2,3,0,66,66,66,,,,,,,,,,,,,,,,,,,,,727.3563080185558,,,,,,,,,,,,,,AMP_prac,left,0.831926754860774,3,,,left,1.365945384942961,,,,,,,,,,,,,,,,,,,,,,,,,1012,2019_May_15_1702,mf_amp_cond1,3.0.7,59.98318606713136,
unpleasant,&&&&&&&&&,images/symbols/symbol_73.png,condition_files/AMP_rep4.csv,left,control,,,,,,,,,,,,,,0,2,2,3,0,67,67,67,,,,,,,,,,,,,,,,,,,,,728.3898824490822,,,,,,,,,,,,,,AMP_prac,left,0.831926754860774,3,,,left,0.8157117071118591,,,,,,,,,,,,,,,,,,,,,,,,,1012,2019_May_15_1702,mf_amp_cond1,3.0.7,59.98318606713136,
free,&&&&,images/symbols/symbol_76.png,condition_files/AMP_rep4.csv,left,fairness.virtue,,,,,,,,,,,,,,0,2,2,3,0,68,68,68,,,,,,,,,,,,,,,,,,,,,729.6068801860698,,,,,,,,,,,,,,AMP_prac,left,0.831926754860774,3,,,right,0.9995464995149632,,,,,,,,,,,,,,,,,,,,,,,,,1012,2019_May_15_1702,mf_amp_cond1,3.0.7,59.98318606713136,
hand,&&&&,images/symbols/symbol_18.png,condition_files/AMP_rep4.csv,left,sanctity.virtue,,,,,,,,,,,,,,0,2,2,3,0,69,69,69,,,,,,,,,,,,,,,,,,,,,730.5570984051152,,,,,,,,,,,,,,AMP_prac,left,0.831926754860774,3,,,left,0.7324507499756692,,,,,,,,,,,,,,,,,,,,,,,,,1012,2019_May_15_1702,mf_amp_cond1,3.0.7,59.98318606713136,
increase,&&&&&&&&,images/symbols/symbol_66.png,condition_files/AMP_rep4.csv,left,care.virtue,,,,,,,,,,,,,,0,2,2,3,0,70,70,70,,,,,,,,,,,,,,,,,,,,,731.5073579972596,,,,,,,,,,,,,,AMP_prac,left,0.831926754860774,3,,,right,0.7324642202870564,,,,,,,,,,,,,,,,,,,,,,,,,1012,2019_May_15_1702,mf_amp_cond1,3.0.7,59.98318606713136,
conspiracy,&&&&&&&&&&,images/symbols/symbol_1.png,condition_files/AMP_rep4.csv,right,sanctity.vice,,,,,,,,,,,,,,0,2,2,3,0,71,71,71,,,,,,,,,,,,,,,,,,,,,732.7909972135698,,,,,,,,,,,,,,AMP_prac,left,0.831926754860774,3,,,right,1.0656004166817183,,,,,,,,,,,,,,,,,,,,,,,,,1012,2019_May_15_1702,mf_amp_cond1,3.0.7,59.98318606713136,
refused,&&&&&&&,images/symbols/symbol_40.png,condition_files/AMP_rep4.csv,right,authority.vice,,,,,,,,,,,,,,0,2,2,3,0,72,72,72,,,,,,,,,,,,,,,,,,,,,733.8746738260303,,,,,,,,,,,,,,AMP_prac,left,0.831926754860774,3,,,left,0.8656920147993787,,,,,,,,,,,,,,,,,,,,,,,,,1012,2019_May_15_1702,mf_amp_cond1,3.0.7,59.98318606713136,
powerful,&&&&&&&&,images/symbols/symbol_25.png,condition_files/AMP_rep4.csv,left,authority.virtue,,,,,,,,,,,,,,0,2,2,3,0,73,73,73,,,,,,,,,,,,,,,,,,,,,734.9415359618828,,,,,,,,,,,,,,AMP_prac,left,0.831926754860774,3,,,right,0.8489301365505071,,,,,,,,,,,,,,,,,,,,,,,,,1012,2019_May_15_1702,mf_amp_cond1,3.0.7,59.98318606713136,
men,&&&,images/symbols/symbol_47.png,condition_files/AMP_rep4.csv,right,loyalty.vice,,,,,,,,,,,,,,0,2,2,3,0,74,74,74,,,,,,,,,,,,,,,,,,,,,736.025152920107,,,,,,,,,,,,,,AMP_prac,left,0.831926754860774,3,,,right,0.8655178629157945,,,,,,,,,,,,,,,,,,,,,,,,,1012,2019_May_15_1702,mf_amp_cond1,3.0.7,59.98318606713136,
crict,&&&&&,images/symbols/symbol_64.png,condition_files/AMP_rep4.csv,None,nonword,,,,,,,,,,,,,,0,2,2,3,0,75,75,75,,,,,,,,,,,,,,,,,,,,,737.275477490468,,,,,,,,,,,,,,AMP_prac,left,0.831926754860774,3,,,left,1.017182344398634,,,,,,,,,,,,,,,,,,,,,,,,,1012,2019_May_15_1702,mf_amp_cond1,3.0.7,59.98318606713136,
trust,&&&&&,images/symbols/symbol_33.png,condition_files/AMP_rep4.csv,left,authority.virtue,,,,,,,,,,,,,,0,2,2,3,0,76,76,76,,,,,,,,,,,,,,,,,,,,,738.6591587854654,,,,,,,,,,,,,,AMP_prac,left,0.831926754860774,3,,,right,1.1655289598868421,,,,,,,,,,,,,,,,,,,,,,,,,1012,2019_May_15_1702,mf_amp_cond1,3.0.7,59.98318606713136,
terrorists,&&&&&&&&&&,images/symbols/symbol_57.png,condition_files/AMP_rep4.csv,right,fairness.vice,,,,,,,,,,,,,,0,2,2,3,0,77,77,77,,,,,,,,,,,,,,,,,,,,,739.6094340929734,,,,,,,,,,,,,,AMP_prac,left,0.831926754860774,3,,,right,0.7324408076028703,,,,,,,,,,,,,,,,,,,,,,,,,1012,2019_May_15_1702,mf_amp_cond1,3.0.7,59.98318606713136,
beest,&&&&&,images/symbols/symbol_74.png,condition_files/AMP_rep4.csv,None,nonword,,,,,,,,,,,,,,0,2,2,3,0,78,78,78,,,,,,,,,,,,,,,,,,,,,740.509616198755,,,,,,,,,,,,,,AMP_prac,left,0.831926754860774,3,,,right,0.6670767628147587,,,,,,,,,,,,,,,,,,,,,,,,,1012,2019_May_15_1702,mf_amp_cond1,3.0.7,59.98318606713136,
torture,&&&&&&&,images/symbols/symbol_59.png,condition_files/AMP_rep4.csv,right,care.vice,,,,,,,,,,,,,,0,2,2,3,0,79,79,79,,,,,,,,,,,,,,,,,,,,,741.3931823546617,,,,,,,,,,,,,,AMP_prac,left,0.831926754860774,3,,,left,0.6651902777707619,,,,,,,,,,,,,,,,,,,,,,,,,1012,2019_May_15_1702,mf_amp_cond1,3.0.7,59.98318606713136,
harassment,&&&&&&&&&&,images/symbols/symbol_53.png,condition_files/AMP_rep4.csv,right,sanctity.vice,,,,,,,,,,,,,,0,2,2,3,0,80,80,80,,,,,,,,,,,,,,,,,,,,,742.6434979448153,,,,,,,,,,,,,,AMP_prac,left,0.831926754860774,3,,,right,1.0326173969715455,,,,,,,,,,,,,,,,,,,,,,,,,1012,2019_May_15_1702,mf_amp_cond1,3.0.7,59.98318606713136,
good,&&&&,images/symbols/symbol_30.png,condition_files/AMP_rep4.csv,left,care.virtue,,,,,,,,,,,,,,0,2,2,3,0,81,81,81,,,,,,,,,,,,,,,,,,,,,743.8938892252903,,,,,,,,,,,,,,AMP_prac,left,0.831926754860774,3,,,left,1.0327132927598086,,,,,,,,,,,,,,,,,,,,,,,,,1012,2019_May_15_1702,mf_amp_cond1,3.0.7,59.98318606713136,
,,,condition_files/AMP_rep4.csv,,,,,,,,,,,,,,,,0,2,2,3,,,,,,,,,,,,,,,,,,,,,,,,,,,,,,,,,,,,,,,,,,,,,,,right,8.285606202501185,,,,,,,,,,,,,,,,,,,,,,,1012,2019_May_15_1702,mf_amp_cond1,3.0.7,59.98318606713136,
serial,&&&&&&,images/symbols/symbol_21.png,condition_files/AMP_rep2.csv,right,sanctity.vice,,,,,,,,,,,,,,0,3,3,1,0,0,0,0,,,,,,,,,,,,,,,,,,,,,753.5630997495804,,,,,,,,,,,,,,AMP_prac,left,0.831926754860774,3,,,right,1.1326274034884136,,,,,,,,,,,,,,,,,,,,,,,,,1012,2019_May_15_1702,mf_amp_cond1,3.0.7,59.98318606713136,
safety,&&&&&&,images/symbols/symbol_9.png,condition_files/AMP_rep2.csv,left,care.virtue,,,,,,,,,,,,,,0,3,3,1,0,1,1,1,,,,,,,,,,,,,,,,,,,,,754.3631400322262,,,,,,,,,,,,,,AMP_prac,left,0.831926754860774,3,,,right,0.582327656986763,,,,,,,,,,,,,,,,,,,,,,,,,1012,2019_May_15_1702,mf_amp_cond1,3.0.7,59.98318606713136,
rheys,&&&&&,images/symbols/symbol_4.png,condition_files/AMP_rep2.csv,None,nonword,,,,,,,,,,,,,,0,3,3,1,0,2,2,2,,,,,,,,,,,,,,,,,,,,,755.2965633386872,,,,,,,,,,,,,,AMP_prac,left,0.831926754860774,3,,,right,0.7155403775791456,,,,,,,,,,,,,,,,,,,,,,,,,1012,2019_May_15_1702,mf_amp_cond1,3.0.7,59.98318606713136,
care,&&&&,images/symbols/symbol_68.png,condition_files/AMP_rep2.csv,left,care.virtue,,,,,,,,,,,,,,0,3,3,1,0,3,3,3,,,,,,,,,,,,,,,,,,,,,756.2803033899,,,,,,,,,,,,,,AMP_prac,left,0.831926754860774,3,,,right,0.7504644050227398,,,,,,,,,,,,,,,,,,,,,,,,,1012,2019_May_15_1702,mf_amp_cond1,3.0.7,59.98318606713136,
corruption,&&&&&&&&&&,images/symbols/symbol_38.png,condition_files/AMP_rep2.csv,right,sanctity.vice,,,,,,,,,,,,,,0,3,3,1,0,4,4,4,,,,,,,,,,,,,,,,,,,,,757.1305051879941,,,,,,,,,,,,,,AMP_prac,left,0.831926754860774,3,,,right,0.6315186685687877,,,,,,,,,,,,,,,,,,,,,,,,,1012,2019_May_15_1702,mf_amp_cond1,3.0.7,59.98318606713136,
suicide,&&&&&&&,images/symbols/symbol_14.png,condition_files/AMP_rep2.csv,right,care.vice,,,,,,,,,,,,,,0,3,3,1,0,5,5,5,,,,,,,,,,,,,,,,,,,,,757.9307128873676,,,,,,,,,,,,,,AMP_prac,left,0.831926754860774,3,,,right,0.5823953292658643,,,,,,,,,,,,,,,,,,,,,,,,,1012,2019_May_15_1702,mf_amp_cond1,3.0.7,59.98318606713136,
hope,&&&&,images/symbols/symbol_79.png,condition_files/AMP_rep2.csv,left,loyalty.virtue,,,,,,,,,,,,,,0,3,3,1,0,6,6,6,,,,,,,,,,,,,,,,,,,,,758.7308952497268,,,,,,,,,,,,,,AMP_prac,left,0.831926754860774,3,,,right,0.582282114505233,,,,,,,,,,,,,,,,,,,,,,,,,1012,2019_May_15_1702,mf_amp_cond1,3.0.7,59.98318606713136,
squauzz,&&&&&&&,images/symbols/symbol_11.png,condition_files/AMP_rep2.csv,None,nonword,,,,,,,,,,,,,,0,3,3,1,0,7,7,7,,,,,,,,,,,,,,,,,,,,,760.1146025231818,,,,,,,,,,,,,,AMP_prac,left,0.831926754860774,3,,,right,1.1658894510783284,,,,,,,,,,,,,,,,,,,,,,,,,1012,2019_May_15_1702,mf_amp_cond1,3.0.7,59.98318606713136,
arrests,&&&&&&&,images/symbols/symbol_81.png,condition_files/AMP_rep2.csv,right,authority.vice,,,,,,,,,,,,,,0,3,3,1,0,8,8,8,,,,,,,,,,,,,,,,,,,,,760.9147852062625,,,,,,,,,,,,,,AMP_prac,left,0.831926754860774,3,,,right,0.5670516823779508,,,,,,,,,,,,,,,,,,,,,,,,,1012,2019_May_15_1702,mf_amp_cond1,3.0.7,59.98318606713136,
officers,&&&&&&&&,images/symbols/symbol_46.png,condition_files/AMP_rep2.csv,right,authority.vice,,,,,,,,,,,,,,0,3,3,1,0,9,9,9,,,,,,,,,,,,,,,,,,,,,761.8817027628251,,,,,,,,,,,,,,AMP_prac,left,0.831926754860774,3,,,right,0.7483588670568224,,,,,,,,,,,,,,,,,,,,,,,,,1012,2019_May_15_1702,mf_amp_cond1,3.0.7,59.98318606713136,
commitment,&&&&&&&&&&,images/symbols/symbol_26.png,condition_files/AMP_rep2.csv,left,sanctity.virtue,,,,,,,,,,,,,,0,3,3,1,0,10,10,10,,,,,,,,,,,,,,,,,,,,,762.6319048174965,,,,,,,,,,,,,,AMP_prac,left,0.831926754860774,3,,,right,0.5322892986714578,,,,,,,,,,,,,,,,,,,,,,,,,1012,2019_May_15_1702,mf_amp_cond1,3.0.7,59.98318606713136,
rebels,&&&&&&,images/symbols/symbol_31.png,condition_files/AMP_rep2.csv,right,authority.vice,,,,,,,,,,,,,,0,3,3,1,0,11,11,11,,,,,,,,,,,,,,,,,,,,,763.3654027238252,,,,,,,,,,,,,,AMP_prac,left,0.831926754860774,3,,,right,0.5166416076110636,,,,,,,,,,,,,,,,,,,,,,,,,1012,2019_May_15_1702,mf_amp_cond1,3.0.7,59.98318606713136,
failure,&&&&&&&,images/symbols/symbol_8.png,condition_files/AMP_rep2.csv,right,loyalty.vice,,,,,,,,,,,,,,0,3,3,1,0,12,12,12,,,,,,,,,,,,,,,,,,,,,764.5657027269041,,,,,,,,,,,,,,AMP_prac,left,0.831926754860774,3,,,right,0.9825767936040393,,,,,,,,,,,,,,,,,,,,,,,,,1012,2019_May_15_1702,mf_amp_cond1,3.0.7,59.98318606713136,
forced,&&&&&&,images/symbols/symbol_72.png,condition_files/AMP_rep2.csv,right,fairness.vice,,,,,,,,,,,,,,0,3,3,1,0,13,13,13,,,,,,,,,,,,,,,,,,,,,765.3825786537899,,,,,,,,,,,,,,AMP_prac,left,0.831926754860774,3,,,right,0.583721834220114,,,,,,,,,,,,,,,,,,,,,,,,,1012,2019_May_15_1702,mf_amp_cond1,3.0.7,59.98318606713136,
fighters,&&&&&&&&,images/symbols/symbol_65.png,condition_files/AMP_rep2.csv,right,authority.vice,,,,,,,,,,,,,,0,3,3,1,0,14,14,14,,,,,,,,,,,,,,,,,,,,,766.6828998886455,,,,,,,,,,,,,,AMP_prac,left,0.831926754860774,3,,,left,1.081889551143604,,,,,,,,,,,,,,,,,,,,,,,,,1012,2019_May_15_1702,mf_amp_cond1,3.0.7,59.98318606713136,
protect,&&&&&&&,images/symbols/symbol_67.png,condition_files/AMP_rep2.csv,left,fairness.virtue,,,,,,,,,,,,,,0,3,3,1,0,15,15,15,,,,,,,,,,,,,,,,,,,,,767.4831040600801,,,,,,,,,,,,,,AMP_prac,left,0.831926754860774,3,,,left,0.582344013793545,,,,,,,,,,,,,,,,,,,,,,,,,1012,2019_May_15_1702,mf_amp_cond1,3.0.7,59.98318606713136,
peace,&&&&&,images/symbols/symbol_36.png,condition_files/AMP_rep2.csv,left,care.virtue,,,,,,,,,,,,,,0,3,3,1,0,16,16,16,,,,,,,,,,,,,,,,,,,,,768.3166783623179,,,,,,,,,,,,,,AMP_prac,left,0.831926754860774,3,,,right,0.615661225516078,,,,,,,,,,,,,,,,,,,,,,,,,1012,2019_May_15_1702,mf_amp_cond1,3.0.7,59.98318606713136,
encourage,&&&&&&&&&,images/symbols/symbol_50.png,condition_files/AMP_rep2.csv,left,authority.virtue,,,,,,,,,,,,,,0,3,3,1,0,17,17,17,,,,,,,,,,,,,,,,,,,,,769.183541332047,,,,,,,,,,,,,,AMP_prac,left,0.831926754860774,3,,,right,0.6491663801552932,,,,,,,,,,,,,,,,,,,,,,,,,1012,2019_May_15_1702,mf_amp_cond1,3.0.7,59.98318606713136,
died,&&&&,images/symbols/symbol_51.png,condition_files/AMP_rep2.csv,right,care.vice,,,,,,,,,,,,,,0,3,3,1,0,18,18,18,,,,,,,,,,,,,,,,,,,,,770.03376365633,,,,,,,,,,,,,,AMP_prac,left,0.831926754860774,3,,,right,0.6329128458021387,,,,,,,,,,,,,,,,,,,,,,,,,1012,2019_May_15_1702,mf_amp_cond1,3.0.7,59.98318606713136,
abuse,&&&&&,images/symbols/symbol_56.png,condition_files/AMP_rep2.csv,right,sanctity.vice,,,,,,,,,,,,,,0,3,3,1,0,19,19,19,,,,,,,,,,,,,,,,,,,,,770.9673316082782,,,,,,,,,,,,,,AMP_prac,left,0.831926754860774,3,,,right,0.7004071241269685,,,,,,,,,,,,,,,,,,,,,,,,,1012,2019_May_15_1702,mf_amp_cond1,3.0.7,59.98318606713136,
troops,&&&&&&,images/symbols/symbol_13.png,condition_files/AMP_rep2.csv,right,loyalty.vice,,,,,,,,,,,,,,0,3,3,1,0,20,20,20,,,,,,,,,,,,,,,,,,,,,771.8842245975583,,,,,,,,,,,,,,AMP_prac,left,0.831926754860774,3,,,right,0.6984936984599699,,,,,,,,,,,,,,,,,,,,,,,,,1012,2019_May_15_1702,mf_amp_cond1,3.0.7,59.98318606713136,
actively,&&&&&&&&,images/symbols/symbol_42.png,condition_files/AMP_rep2.csv,left,authority.virtue,,,,,,,,,,,,,,0,3,3,1,0,21,21,21,,,,,,,,,,,,,,,,,,,,,772.667762465811,,,,,,,,,,,,,,AMP_prac,left,0.831926754860774,3,,,left,0.5657123485552802,,,,,,,,,,,,,,,,,,,,,,,,,1012,2019_May_15_1702,mf_amp_cond1,3.0.7,59.98318606713136,
respect,&&&&&&&,images/symbols/symbol_29.png,condition_files/AMP_rep2.csv,left,sanctity.virtue,,,,,,,,,,,,,,0,3,3,1,0,22,22,22,,,,,,,,,,,,,,,,,,,,,773.4846268467155,,,,,,,,,,,,,,AMP_prac,left,0.831926754860774,3,,,left,0.5988887634509865,,,,,,,,,,,,,,,,,,,,,,,,,1012,2019_May_15_1702,mf_amp_cond1,3.0.7,59.98318606713136,
sexual,&&&&&&,images/symbols/symbol_5.png,condition_files/AMP_rep2.csv,right,sanctity.vice,,,,,,,,,,,,,,0,3,3,1,0,23,23,23,,,,,,,,,,,,,,,,,,,,,774.1848399342135,,,,,,,,,,,,,,AMP_prac,left,0.831926754860774,3,,,right,0.48247191760788155,,,,,,,,,,,,,,,,,,,,,,,,,1012,2019_May_15_1702,mf_amp_cond1,3.0.7,59.98318606713136,
opportunity,&&&&&&&&&&&,images/symbols/symbol_15.png,condition_files/AMP_rep2.csv,left,fairness.virtue,,,,,,,,,,,,,,0,3,3,1,0,24,24,24,,,,,,,,,,,,,,,,,,,,,774.951696746086,,,,,,,,,,,,,,AMP_prac,left,0.831926754860774,3,,,right,0.5486861956248958,,,,,,,,,,,,,,,,,,,,,,,,,1012,2019_May_15_1702,mf_amp_cond1,3.0.7,59.98318606713136,
sharing,&&&&&&&,images/symbols/symbol_48.png,condition_files/AMP_rep2.csv,left,loyalty.virtue,,,,,,,,,,,,,,0,3,3,1,0,25,25,25,,,,,,,,,,,,,,,,,,,,,775.7852572572907,,,,,,,,,,,,,,AMP_prac,left,0.831926754860774,3,,,left,0.615695222016484,,,,,,,,,,,,,,,,,,,,,,,,,1012,2019_May_15_1702,mf_amp_cond1,3.0.7,59.98318606713136,
terrorist,&&&&&&&&&,images/symbols/symbol_70.png,condition_files/AMP_rep2.csv,right,loyalty.vice,,,,,,,,,,,,,,0,3,3,1,0,26,26,26,,,,,,,,,,,,,,,,,,,,,776.5187837078507,,,,,,,,,,,,,,AMP_prac,left,0.831926754860774,3,,,right,0.5004502932679316,,,,,,,,,,,,,,,,,,,,,,,,,1012,2019_May_15_1702,mf_amp_cond1,3.0.7,59.98318606713136,
protesters,&&&&&&&&&&,images/symbols/symbol_69.png,condition_files/AMP_rep2.csv,right,authority.vice,,,,,,,,,,,,,,0,3,3,1,0,27,27,27,,,,,,,,,,,,,,,,,,,,,777.485661815644,,,,,,,,,,,,,,AMP_prac,left,0.831926754860774,3,,,left,0.7484278222227658,,,,,,,,,,,,,,,,,,,,,,,,,1012,2019_May_15_1702,mf_amp_cond1,3.0.7,59.98318606713136,
stailde,&&&&&&&,images/symbols/symbol_39.png,condition_files/AMP_rep2.csv,None,nonword,,,,,,,,,,,,,,0,3,3,1,0,28,28,28,,,,,,,,,,,,,,,,,,,,,778.2358356468059,,,,,,,,,,,,,,AMP_prac,left,0.831926754860774,3,,,right,0.532296995992283,,,,,,,,,,,,,,,,,,,,,,,,,1012,2019_May_15_1702,mf_amp_cond1,3.0.7,59.98318606713136,
promises,&&&&&&&&,images/symbols/symbol_32.png,condition_files/AMP_rep2.csv,left,fairness.virtue,,,,,,,,,,,,,,0,3,3,1,0,29,29,29,,,,,,,,,,,,,,,,,,,,,779.1194309883873,,,,,,,,,,,,,,AMP_prac,left,0.831926754860774,3,,,left,0.6657922724029959,,,,,,,,,,,,,,,,,,,,,,,,,1012,2019_May_15_1702,mf_amp_cond1,3.0.7,59.98318606713136,
riot,&&&&,images/symbols/symbol_3.png,condition_files/AMP_rep2.csv,right,authority.vice,,,,,,,,,,,,,,0,3,3,1,0,30,30,30,,,,,,,,,,,,,,,,,,,,,780.5364310987155,,,,,,,,,,,,,,AMP_prac,left,0.831926754860774,3,,,right,1.1992384142492938,,,,,,,,,,,,,,,,,,,,,,,,,1012,2019_May_15_1702,mf_amp_cond1,3.0.7,59.98318606713136,
stryct,&&&&&&,images/symbols/symbol_19.png,condition_files/AMP_rep2.csv,None,nonword,,,,,,,,,,,,,,0,3,3,1,0,31,31,31,,,,,,,,,,,,,,,,,,,,,781.6533636650537,,,,,,,,,,,,,,AMP_prac,left,0.831926754860774,3,,,right,0.899146174687985,,,,,,,,,,,,,,,,,,,,,,,,,1012,2019_May_15_1702,mf_amp_cond1,3.0.7,59.98318606713136,
lighnde,&&&&&&&,images/symbols/symbol_80.png,condition_files/AMP_rep2.csv,None,nonword,,,,,,,,,,,,,,0,3,3,1,0,32,32,32,,,,,,,,,,,,,,,,,,,,,783.2037756641504,,,,,,,,,,,,,,AMP_prac,left,0.831926754860774,3,,,right,1.3325893658945915,,,,,,,,,,,,,,,,,,,,,,,,,1012,2019_May_15_1702,mf_amp_cond1,3.0.7,59.98318606713136,
safe,&&&&,images/symbols/symbol_23.png,condition_files/AMP_rep2.csv,left,care.virtue,,,,,,,,,,,,,,0,3,3,1,0,33,33,33,,,,,,,,,,,,,,,,,,,,,784.2873900566009,,,,,,,,,,,,,,AMP_prac,left,0.831926754860774,3,,,right,0.8656615462377886,,,,,,,,,,,,,,,,,,,,,,,,,1012,2019_May_15_1702,mf_amp_cond1,3.0.7,59.98318606713136,
war,&&&,images/symbols/symbol_10.png,condition_files/AMP_rep2.csv,right,sanctity.vice,,,,,,,,,,,,,,0,3,3,1,0,34,34,34,,,,,,,,,,,,,,,,,,,,,785.370978149872,,,,,,,,,,,,,,AMP_prac,left,0.831926754860774,3,,,left,0.8659649489668482,,,,,,,,,,,,,,,,,,,,,,,,,1012,2019_May_15_1702,mf_amp_cond1,3.0.7,59.98318606713136,
great,&&&&&,images/symbols/symbol_49.png,condition_files/AMP_rep2.csv,left,loyalty.virtue,,,,,,,,,,,,,,0,3,3,1,0,35,35,35,,,,,,,,,,,,,,,,,,,,,786.4379082787251,,,,,,,,,,,,,,AMP_prac,left,0.831926754860774,3,,,right,0.8337757154661176,,,,,,,,,,,,,,,,,,,,,,,,,1012,2019_May_15_1702,mf_amp_cond1,3.0.7,59.98318606713136,
shot,&&&&,images/symbols/symbol_22.png,condition_files/AMP_rep2.csv,right,care.vice,,,,,,,,,,,,,,0,3,3,1,0,36,36,36,,,,,,,,,,,,,,,,,,,,,787.3714807207772,,,,,,,,,,,,,,AMP_prac,left,0.831926754860774,3,,,left,0.7143444063569859,,,,,,,,,,,,,,,,,,,,,,,,,1012,2019_May_15_1702,mf_amp_cond1,3.0.7,59.98318606713136,
prison,&&&&&&,images/symbols/symbol_28.png,condition_files/AMP_rep2.csv,right,fairness.vice,,,,,,,,,,,,,,0,3,3,1,0,37,37,37,,,,,,,,,,,,,,,,,,,,,788.3050416168479,,,,,,,,,,,,,,AMP_prac,left,0.831926754860774,3,,,right,0.7158251784494496,,,,,,,,,,,,,,,,,,,,,,,,,1012,2019_May_15_1702,mf_amp_cond1,3.0.7,59.98318606713136,
charges,&&&&&&&,images/symbols/symbol_58.png,condition_files/AMP_rep2.csv,right,fairness.vice,,,,,,,,,,,,,,0,3,3,1,0,38,38,38,,,,,,,,,,,,,,,,,,,,,789.1052547684902,,,,,,,,,,,,,,AMP_prac,left,0.831926754860774,3,,,right,0.5670561724816707,,,,,,,,,,,,,,,,,,,,,,,,,1012,2019_May_15_1702,mf_amp_cond1,3.0.7,59.98318606713136,
benefit,&&&&&&&,images/symbols/symbol_20.png,condition_files/AMP_rep2.csv,left,fairness.virtue,,,,,,,,,,,,,,0,3,3,1,0,39,39,39,,,,,,,,,,,,,,,,,,,,,789.8888019376722,,,,,,,,,,,,,,AMP_prac,left,0.831926754860774,3,,,left,0.5656674475171712,,,,,,,,,,,,,,,,,,,,,,,,,1012,2019_May_15_1702,mf_amp_cond1,3.0.7,59.98318606713136,
jipte,&&&&&,images/symbols/symbol_35.png,condition_files/AMP_rep2.csv,None,nonword,,,,,,,,,,,,,,0,3,3,1,0,40,40,40,,,,,,,,,,,,,,,,,,,,,790.6056704238146,,,,,,,,,,,,,,AMP_prac,left,0.831926754860774,3,,,right,0.4990926783084433,,,,,,,,,,,,,,,,,,,,,,,,,1012,2019_May_15_1702,mf_amp_cond1,3.0.7,59.98318606713136,
snoze,&&&&&,images/symbols/symbol_44.png,condition_files/AMP_rep2.csv,None,nonword,,,,,,,,,,,,,,0,3,3,1,0,41,41,41,,,,,,,,,,,,,,,,,,,,,792.1226968974664,,,,,,,,,,,,,,AMP_prac,left,0.831926754860774,3,,,left,1.2987468120263657,,,,,,,,,,,,,,,,,,,,,,,,,1012,2019_May_15_1702,mf_amp_cond1,3.0.7,59.98318606713136,
fraud,&&&&&,images/symbols/symbol_82.png,condition_files/AMP_rep2.csv,right,fairness.vice,,,,,,,,,,,,,,0,3,3,1,0,42,42,42,,,,,,,,,,,,,,,,,,,,,793.4230065863409,,,,,,,,,,,,,,AMP_prac,left,0.831926754860774,3,,,left,1.0828696766611756,,,,,,,,,,,,,,,,,,,,,,,,,1012,2019_May_15_1702,mf_amp_cond1,3.0.7,59.98318606713136,
strength,&&&&&&&&,images/symbols/symbol_62.png,condition_files/AMP_rep2.csv,left,sanctity.virtue,,,,,,,,,,,,,,0,3,3,1,0,43,43,43,,,,,,,,,,,,,,,,,,,,,794.3565902536524,,,,,,,,,,,,,,AMP_prac,left,0.831926754860774,3,,,right,0.7004209151602936,,,,,,,,,,,,,,,,,,,,,,,,,1012,2019_May_15_1702,mf_amp_cond1,3.0.7,59.98318606713136,
faith,&&&&&,images/symbols/symbol_75.png,condition_files/AMP_rep2.csv,left,sanctity.virtue,,,,,,,,,,,,,,0,3,3,1,0,44,44,44,,,,,,,,,,,,,,,,,,,,,795.2234849748298,,,,,,,,,,,,,,AMP_prac,left,0.831926754860774,3,,,left,0.6337557024316993,,,,,,,,,,,,,,,,,,,,,,,,,1012,2019_May_15_1702,mf_amp_cond1,3.0.7,59.98318606713136,
army,&&&&,images/symbols/symbol_61.png,condition_files/AMP_rep2.csv,right,loyalty.vice,,,,,,,,,,,,,,0,3,3,1,0,45,45,45,,,,,,,,,,,,,,,,,,,,,795.9403508951983,,,,,,,,,,,,,,AMP_prac,left,0.831926754860774,3,,,right,0.4985224351244142,,,,,,,,,,,,,,,,,,,,,,,,,1012,2019_May_15_1702,mf_amp_cond1,3.0.7,59.98318606713136,
integrity,&&&&&&&&&,images/symbols/symbol_52.png,condition_files/AMP_rep2.csv,left,fairness.virtue,,,,,,,,,,,,,,0,3,3,1,0,46,46,46,,,,,,,,,,,,,,,,,,,,,796.7905536554575,,,,,,,,,,,,,,AMP_prac,left,0.831926754860774,3,,,right,0.632877566415118,,,,,,,,,,,,,,,,,,,,,,,,,1012,2019_May_15_1702,mf_amp_cond1,3.0.7,59.98318606713136,
blamed,&&&&&&,images/symbols/symbol_60.png,condition_files/AMP_rep2.csv,right,loyalty.vice,,,,,,,,,,,,,,0,3,3,1,0,47,47,47,,,,,,,,,,,,,,,,,,,,,797.4573914806052,,,,,,,,,,,,,,AMP_prac,left,0.831926754860774,3,,,right,0.44902513431839,,,,,,,,,,,,,,,,,,,,,,,,,1012,2019_May_15_1702,mf_amp_cond1,3.0.7,59.98318606713136,
values,&&&&&&,images/symbols/symbol_24.png,condition_files/AMP_rep2.csv,left,sanctity.virtue,,,,,,,,,,,,,,0,3,3,1,0,48,48,48,,,,,,,,,,,,,,,,,,,,,798.257561334818,,,,,,,,,,,,,,AMP_prac,left,0.831926754860774,3,,,right,0.5670353255709415,,,,,,,,,,,,,,,,,,,,,,,,,1012,2019_May_15_1702,mf_amp_cond1,3.0.7,59.98318606713136,
violence,&&&&&&&&,images/symbols/symbol_77.png,condition_files/AMP_rep2.csv,right,care.vice,,,,,,,,,,,,,,0,3,3,1,0,49,49,49,,,,,,,,,,,,,,,,,,,,,798.9744067289979,,,,,,,,,,,,,,AMP_prac,left,0.831926754860774,3,,,right,0.4837034889389997,,,,,,,,,,,,,,,,,,,,,,,,,1012,2019_May_15_1702,mf_amp_cond1,3.0.7,59.98318606713136,
civilians,&&&&&&&&&,images/symbols/symbol_71.png,condition_files/AMP_rep2.csv,right,care.vice,,,,,,,,,,,,,,0,3,3,1,0,50,50,50,,,,,,,,,,,,,,,,,,,,,799.5912594356324,,,,,,,,,,,,,,AMP_prac,left,0.831926754860774,3,,,right,0.39828375403476457,,,,,,,,,,,,,,,,,,,,,,,,,1012,2019_May_15_1702,mf_amp_cond1,3.0.7,59.98318606713136,
fair,&&&&,images/symbols/symbol_12.png,condition_files/AMP_rep2.csv,left,fairness.virtue,,,,,,,,,,,,,,0,3,3,1,0,51,51,51,,,,,,,,,,,,,,,,,,,,,800.3247807546453,,,,,,,,,,,,,,AMP_prac,left,0.831926754860774,3,,,left,0.5156120909514357,,,,,,,,,,,,,,,,,,,,,,,,,1012,2019_May_15_1702,mf_amp_cond1,3.0.7,59.98318606713136,
