words,mask,masks,symbols,conditionfile,corr_ans,category,LDT_trials_cond2.thisRepN,LDT_trials_cond2.thisTrialN,LDT_trials_cond2.thisN,LDT_trials_cond2.thisIndex,LDT_pracs_1.thisRepN,LDT_pracs_1.thisTrialN,LDT_pracs_1.thisN,LDT_pracs_1.thisIndex,LDT_trials_1.thisRepN,LDT_trials_1.thisTrialN,LDT_trials_1.thisN,LDT_trials_1.thisIndex,logo_trials.thisRepN,logo_trials.thisTrialN,logo_trials.thisN,logo_trials.thisIndex,AMP_pracs.thisRepN,AMP_pracs.thisTrialN,AMP_pracs.thisN,AMP_pracs.thisIndex,trials_loop.thisRepN,trials_loop.thisTrialN,trials_loop.thisN,trials_loop.thisIndex,AMP_trials.thisRepN,AMP_trials.thisTrialN,AMP_trials.thisN,AMP_trials.thisIndex,memtask_trials.thisRepN,memtask_trials.thisTrialN,memtask_trials.thisN,memtask_trials.thisIndex,LDT_cond1.thisRepN,LDT_cond1.thisTrialN,LDT_cond1.thisN,LDT_cond1.thisIndex,begin_key.keys,begin_key.rt,key_resp_instr.keys,key_resp_instr.rt,exp_time,key_resp_LDT_instr.keys,key_resp_LDT_instr.rt,resp_LDT_prac.keys,resp_LDT_prac.rt,task,keypress,RT,corr,resp_LDT_ready.keys,resp_LDT_ready.rt,resp_LDT_trial.keys,resp_LDT_trial.rt,LDT_rating.response,LDT_rating.rt,resp_sym_rate.keys,resp_sym_rate.rt,sym_resp_1.keys,sym_resp_1.rt,sym_resp_2.keys,sym_resp_2.rt,sym_resp_trial.keys,sym_resp_trial.rt,symbol_index,resp_AMP_ready1.keys,resp_AMP_ready1.rt,resp_AMP.keys,resp_AMP.rt,prime_dur,resp_AMP_ready.keys,resp_AMP_ready.rt,resp_AMP_trials.keys,resp_AMP_trials.rt,rest_key_resp.keys,rest_key_resp.rt,AMP_nonword_rating.response,AMP_nonword_rating.rt,AMP_word_rating.response,AMP_word_rating.rt,AMP_random_rating.response,AMP_random_rating.rt,key_resp_instr_memtask.keys,key_resp_instr_memtask.rt,resp_memtask.keys,resp_memtask.corr,resp_memtask.rt,participant ID,date,expName,psychopyVersion,frameRate,
,,,,,,,,,,,,,,,,,,,,,,,,,,,,,,,,,,,,,,,,,,,right,922.9889433727112,,,,,,,,,,,,,,,,,,,,,,,,,,,,,,,,,,,,,,,,,,,,,,,,,1013,2019_May_16_1651,mf_amp_cond1,3.0.7,59.97774362248134,
,,,,,,,,,,,,,,,,,,,,,,,,,,,,,,,,,,,,,,,,,,,,,right,0.9171567591401981,,,,,,,,,,,,,,,,,,,,,,,,,,,,,,,,,,,,,,,,,,,,,,,1013,2019_May_16_1651,mf_amp_cond1,3.0.7,59.97774362248134,
keyboard,&&&&&&&,,,,,,0,0,0,0,0,0,0,0,,,,,,,,,,,,,,,,,,,,,,,,,,,,,,,,,1023.933020392571,right,1.4006547252720338,left,3.217741855303757,LDT_prac,left,3.217741855303757,0,,,,,,,,,,,,,,,,,,,,,,,,,,,,,,,,,,,,,,1013,2019_May_16_1651,mf_amp_cond1,3.0.7,59.97774362248134,
bisebell,&&&&&&&,,,,,,0,0,0,0,0,1,1,1,,,,,,,,,,,,,,,,,,,,,,,,,,,,,,,,,1027.2670842274856,,,left,2.1841377136042865,LDT_prac,left,2.1841377136042865,0,,,,,,,,,,,,,,,,,,,,,,,,,,,,,,,,,,,,,,1013,2019_May_16_1651,mf_amp_cond1,3.0.7,59.97774362248134,
,,,,,,,0,0,0,0,,,,,0,0,0,0,,,,,,,,,,,,,,,,,,,,,,,,,,,,,1048.6394010934746,,,,,LDT_prac,left,2.1841377136042865,0,right,0.8004755690380989,right,2.550901570230053,,,,,,,,,,,,,,,,,,,,,,,,,,,,,,,,,,1013,2019_May_16_1651,mf_amp_cond1,3.0.7,59.97774362248134,
,,,,,,,0,0,0,0,,,,,,,,,,,,,,,,,,,,,,,,,,,,,,,,,,,,,,,,,,,,,,,,,,7,6.72,,,,,,,,,,,,,,,,,,,,,,,,,,,,,,,,1013,2019_May_16_1651,mf_amp_cond1,3.0.7,59.97774362248134,
,,,,,,,,,,,,,,,,,,,,,,,,,,,,,,,,,,,,,,,,,,,,,,,,,,,,,,,,,,,,,,right,1.6840150368079776,,,,,,,,,,,,,,,,,,,,,,,,,,,,,,1013,2019_May_16_1651,mf_amp_cond1,3.0.7,59.97774362248134,
,,,,,,,,,,,,,,,,,,,,,,,,,,,,,,,,,,,,,,,,,,,,,,,1129.0933013978101,,,,,,,,,,,,,,,,,right,2.2674880185659276,,,,,,,,,,,,,,,,,,,,,,,,,,,,1013,2019_May_16_1651,mf_amp_cond1,3.0.7,59.97774362248134,
,,,,,,,,,,,,,,,,,,,,,,,,,,,,,,,,,,,,,,,,,,,,,,,,,,,,,,,,,,,,,,,,,,right,0.7170890223023889,,,,,,,,,,,,,,,,,,,,,,,,,,1013,2019_May_16_1651,mf_amp_cond1,3.0.7,59.97774362248134,
,,,,,,,,,,,,,,,,,,,,,,,,,,,,,,,,,,,,,,,,,,,,,,,1148.114866214939,,,,,,,,,,,,,,,,,,,,,left,0.8812318610725924,75,right,1.0171927122573834,,,,,,,,,,,,,,,,,,,,,1013,2019_May_16_1651,mf_amp_cond1,3.0.7,59.97774362248134,
scarf,,&&&&&,images/symbols/symbol_54.png,,,,,,,,,,,,,,,,,,,,0,0,0,3,,,,,,,,,,,,,,,,,,,,,1297.1038111912676,,,,,AMP_prac,left,3.9179380419627705,,,,,,,,,,,,,,,,,,,left,3.9179380419627705,6,,,,,,,,,,,,,,,,,,1013,2019_May_16_1651,mf_amp_cond1,3.0.7,59.97774362248134,
car,,&&&,images/symbols/symbol_9.png,,,,,,,,,,,,,,,,,,,,0,1,1,0,,,,,,,,,,,,,,,,,,,,,1298.75415281007,,,,,AMP_prac,left,1.4173099046820425,,,,,,,,,,,,,,,,,,,left,1.4173099046820425,6,,,,,,,,,,,,,,,,,,1013,2019_May_16_1651,mf_amp_cond1,3.0.7,59.97774362248134,
banana,,&&&&&&,images/symbols/symbol_68.png,,,,,,,,,,,,,,,,,,,,0,2,2,1,,,,,,,,,,,,,,,,,,,,,1301.1380622325778,,,,,AMP_prac,right,2.1508033005011384,,,,,,,,,,,,,,,,,,,right,2.1508033005011384,6,,,,,,,,,,,,,,,,,,1013,2019_May_16_1651,mf_amp_cond1,3.0.7,59.97774362248134,
keyboard,,&&&&&&&&,images/symbols/symbol_40.png,,,,,,,,,,,,,,,,,,,,0,3,3,2,,,,,,,,,,,,,,,,,,,,,1302.2216598154737,,,,,AMP_prac,left,0.8654320516470762,,,,,,,,,,,,,,,,,,,left,0.8654320516470762,6,,,,,,,,,,,,,,,,,,1013,2019_May_16_1651,mf_amp_cond1,3.0.7,59.97774362248134,
,,,,,,,,,,,,,,,,,,,,,,,,,,,,,,,,,,,,,,,,,,,,,,,,,,,,,,,,,,,,,,,,,,,,,,,,,,,,right,1.8340797107302933,,,,,,,,,,,,,,,,1013,2019_May_16_1651,mf_amp_cond1,3.0.7,59.97774362248134,
army,,&&&&,images/symbols/symbol_7.png,condition_files/AMP_rep3.csv,right,loyalty.vice,,,,,,,,,,,,,,,,,,,,,0,0,0,2,0,0,0,0,,,,,,,,,,,,,1325.5946351271305,,,,,AMP_prac,left,0.8654320516470762,,,,,,,,,,,,,,,,,,,,,6,,,right,1.267324449501757,,,,,,,,,,,,,,1013,2019_May_16_1651,mf_amp_cond1,3.0.7,59.97774362248134,
celebrated,,&&&&&&&&&&,images/symbols/symbol_76.png,condition_files/AMP_rep3.csv,left,authority.virtue,,,,,,,,,,,,,,,,,,,,,0,0,0,2,0,1,1,1,,,,,,,,,,,,,1326.6113320006189,,,,,AMP_prac,left,0.8654320516470762,,,,,,,,,,,,,,,,,,,,,6,,,right,0.7993613750586519,,,,,,,,,,,,,,1013,2019_May_16_1651,mf_amp_cond1,3.0.7,59.97774362248134,
ban,,&&&,images/symbols/symbol_55.png,condition_files/AMP_rep3.csv,right,loyalty.vice,,,,,,,,,,,,,,,,,,,,,0,0,0,2,0,2,2,2,,,,,,,,,,,,,1327.4782111573986,,,,,AMP_prac,left,0.8654320516470762,,,,,,,,,,,,,,,,,,,,,6,,,left,0.6337246055009018,,,,,,,,,,,,,,1013,2019_May_16_1651,mf_amp_cond1,3.0.7,59.97774362248134,
party,,&&&&&,images/symbols/symbol_68.png,condition_files/AMP_rep3.csv,left,loyalty.virtue,,,,,,,,,,,,,,,,,,,,,0,0,0,2,0,3,3,3,,,,,,,,,,,,,1329.4120615827924,,,,,AMP_prac,left,0.8654320516470762,,,,,,,,,,,,,,,,,,,,,6,,,left,1.7007019678640063,,,,,,,,,,,,,,1013,2019_May_16_1651,mf_amp_cond1,3.0.7,59.97774362248134,
friends,,&&&&&&&,images/symbols/symbol_17.png,condition_files/AMP_rep3.csv,left,loyalty.virtue,,,,,,,,,,,,,,,,,,,,,0,0,0,2,0,4,4,4,,,,,,,,,,,,,1330.845758862637,,,,,AMP_prac,left,0.8654320516470762,,,,,,,,,,,,,,,,,,,,,6,,,right,1.2158232863985177,,,,,,,,,,,,,,1013,2019_May_16_1651,mf_amp_cond1,3.0.7,59.97774362248134,
safety,,&&&&&&,images/symbols/symbol_82.png,condition_files/AMP_rep3.csv,left,care.virtue,,,,,,,,,,,,,,,,,,,,,0,0,0,2,0,5,5,5,,,,,,,,,,,,,1331.8960419172981,,,,,AMP_prac,left,0.8654320516470762,,,,,,,,,,,,,,,,,,,,,6,,,left,0.8329526878078468,,,,,,,,,,,,,,1013,2019_May_16_1651,mf_amp_cond1,3.0.7,59.97774362248134,
opportunity,,&&&&&&&&&&&,images/symbols/symbol_32.png,condition_files/AMP_rep3.csv,left,fairness.virtue,,,,,,,,,,,,,,,,,,,,,0,0,0,2,0,6,6,6,,,,,,,,,,,,,1332.8129334379737,,,,,AMP_prac,left,0.8654320516470762,,,,,,,,,,,,,,,,,,,,,6,,,left,0.6990868035354652,,,,,,,,,,,,,,1013,2019_May_16_1651,mf_amp_cond1,3.0.7,59.97774362248134,
win,,&&&,images/symbols/symbol_6.png,condition_files/AMP_rep3.csv,left,fairness.virtue,,,,,,,,,,,,,,,,,,,,,0,0,0,2,0,7,7,7,,,,,,,,,,,,,1333.6798667970506,,,,,AMP_prac,left,0.8654320516470762,,,,,,,,,,,,,,,,,,,,,6,,,right,0.6337954854316195,,,,,,,,,,,,,,1013,2019_May_16_1651,mf_amp_cond1,3.0.7,59.97774362248134,
hand,,&&&&,images/symbols/symbol_21.png,condition_files/AMP_rep3.csv,left,sanctity.virtue,,,,,,,,,,,,,,,,,,,,,0,0,0,2,0,8,8,8,,,,,,,,,,,,,1334.6301004281995,,,,,AMP_prac,left,0.8654320516470762,,,,,,,,,,,,,,,,,,,,,6,,,right,0.73262519688069,,,,,,,,,,,,,,1013,2019_May_16_1651,mf_amp_cond1,3.0.7,59.97774362248134,
betrayal,,&&&&&&&&,images/symbols/symbol_31.png,condition_files/AMP_rep3.csv,right,loyalty.vice,,,,,,,,,,,,,,,,,,,,,0,0,0,2,0,9,9,9,,,,,,,,,,,,,1335.6303246140342,,,,,AMP_prac,left,0.8654320516470762,,,,,,,,,,,,,,,,,,,,,6,,,right,0.7835333419498056,,,,,,,,,,,,,,1013,2019_May_16_1651,mf_amp_cond1,3.0.7,59.97774362248134,
protect,,&&&&&&&,images/symbols/symbol_41.png,condition_files/AMP_rep3.csv,left,fairness.virtue,,,,,,,,,,,,,,,,,,,,,0,0,0,2,0,10,10,10,,,,,,,,,,,,,1336.5305795572676,,,,,AMP_prac,left,0.8654320516470762,,,,,,,,,,,,,,,,,,,,,6,,,right,0.6829309908534924,,,,,,,,,,,,,,1013,2019_May_16_1651,mf_amp_cond1,3.0.7,59.97774362248134,
restore,,&&&&&&&,images/symbols/symbol_36.png,condition_files/AMP_rep3.csv,left,care.virtue,,,,,,,,,,,,,,,,,,,,,0,0,0,2,0,11,11,11,,,,,,,,,,,,,1337.5975023966093,,,,,AMP_prac,left,0.8654320516470762,,,,,,,,,,,,,,,,,,,,,6,,,left,0.8493637965220842,,,,,,,,,,,,,,1013,2019_May_16_1651,mf_amp_cond1,3.0.7,59.97774362248134,
police,,&&&&&&,images/symbols/symbol_80.png,condition_files/AMP_rep3.csv,right,authority.vice,,,,,,,,,,,,,,,,,,,,,0,0,0,2,0,12,12,12,,,,,,,,,,,,,1338.6310946715312,,,,,AMP_prac,left,0.8654320516470762,,,,,,,,,,,,,,,,,,,,,6,,,left,0.8163337501646311,,,,,,,,,,,,,,1013,2019_May_16_1651,mf_amp_cond1,3.0.7,59.97774362248134,
death,,&&&&&,images/symbols/symbol_51.png,condition_files/AMP_rep3.csv,right,care.vice,,,,,,,,,,,,,,,,,,,,,0,0,0,2,0,13,13,13,,,,,,,,,,,,,1340.6149510463438,,,,,AMP_prac,left,0.8654320516470762,,,,,,,,,,,,,,,,,,,,,6,,,left,1.7506838630142738,,,,,,,,,,,,,,1013,2019_May_16_1651,mf_amp_cond1,3.0.7,59.97774362248134,
refused,,&&&&&&&,images/symbols/symbol_27.png,condition_files/AMP_rep3.csv,right,authority.vice,,,,,,,,,,,,,,,,,,,,,0,0,0,2,0,14,14,14,,,,,,,,,,,,,1342.0653230697499,,,,,AMP_prac,left,0.8654320516470762,,,,,,,,,,,,,,,,,,,,,6,,,right,1.232524650018604,,,,,,,,,,,,,,1013,2019_May_16_1651,mf_amp_cond1,3.0.7,59.97774362248134,
strong,,&&&&&&,images/symbols/symbol_67.png,condition_files/AMP_rep3.csv,left,loyalty.virtue,,,,,,,,,,,,,,,,,,,,,0,0,0,2,0,15,15,15,,,,,,,,,,,,,1343.1156391589466,,,,,AMP_prac,left,0.8654320516470762,,,,,,,,,,,,,,,,,,,,,6,,,left,0.8325149000193051,,,,,,,,,,,,,,1013,2019_May_16_1651,mf_amp_cond1,3.0.7,59.97774362248134,
threatened,,&&&&&&&&&&,images/symbols/symbol_47.png,condition_files/AMP_rep3.csv,right,fairness.vice,,,,,,,,,,,,,,,,,,,,,0,0,0,2,0,16,16,16,,,,,,,,,,,,,1344.1492025687403,,,,,AMP_prac,left,0.8654320516470762,,,,,,,,,,,,,,,,,,,,,6,,,right,0.8159280347463209,,,,,,,,,,,,,,1013,2019_May_16_1651,mf_amp_cond1,3.0.7,59.97774362248134,
gun,,&&&,images/symbols/symbol_63.png,condition_files/AMP_rep3.csv,right,authority.vice,,,,,,,,,,,,,,,,,,,,,0,0,0,2,0,17,17,17,,,,,,,,,,,,,1345.0161012896606,,,,,AMP_prac,left,0.8654320516470762,,,,,,,,,,,,,,,,,,,,,6,,,left,0.6492274248230387,,,,,,,,,,,,,,1013,2019_May_16_1651,mf_amp_cond1,3.0.7,59.97774362248134,
promised,,&&&&&&&&,images/symbols/symbol_16.png,condition_files/AMP_rep3.csv,left,loyalty.virtue,,,,,,,,,,,,,,,,,,,,,0,0,0,2,0,18,18,18,,,,,,,,,,,,,1348.4336520578108,,,,,AMP_prac,left,0.8654320516470762,,,,,,,,,,,,,,,,,,,,,6,,,right,3.200075754928548,,,,,,,,,,,,,,1013,2019_May_16_1651,mf_amp_cond1,3.0.7,59.97774362248134,
promote,,&&&&&&&,images/symbols/symbol_28.png,condition_files/AMP_rep3.csv,left,sanctity.virtue,,,,,,,,,,,,,,,,,,,,,0,0,0,2,0,19,19,19,,,,,,,,,,,,,1349.6006191890883,,,,,AMP_prac,left,0.8654320516470762,,,,,,,,,,,,,,,,,,,,,6,,,right,0.949269535838539,,,,,,,,,,,,,,1013,2019_May_16_1651,mf_amp_cond1,3.0.7,59.97774362248134,
energy,,&&&&&&,images/symbols/symbol_50.png,condition_files/AMP_rep3.csv,left,sanctity.virtue,,,,,,,,,,,,,,,,,,,,,0,0,0,2,0,20,20,20,,,,,,,,,,,,,1350.767597545695,,,,,AMP_prac,left,0.8654320516470762,,,,,,,,,,,,,,,,,,,,,6,,,right,0.9490049388259649,,,,,,,,,,,,,,1013,2019_May_16_1651,mf_amp_cond1,3.0.7,59.97774362248134,
improve,,&&&&&&&,images/symbols/symbol_4.png,condition_files/AMP_rep3.csv,left,care.virtue,,,,,,,,,,,,,,,,,,,,,0,0,0,2,0,21,21,21,,,,,,,,,,,,,1351.8845436535375,,,,,AMP_prac,left,0.8654320516470762,,,,,,,,,,,,,,,,,,,,,6,,,left,0.8992170814854035,,,,,,,,,,,,,,1013,2019_May_16_1651,mf_amp_cond1,3.0.7,59.97774362248134,
respect,,&&&&&&&,images/symbols/symbol_70.png,condition_files/AMP_rep3.csv,left,sanctity.virtue,,,,,,,,,,,,,,,,,,,,,0,0,0,2,0,22,22,22,,,,,,,,,,,,,1352.8014406265138,,,,,AMP_prac,left,0.8654320516470762,,,,,,,,,,,,,,,,,,,,,6,,,right,0.6837472325569252,,,,,,,,,,,,,,1013,2019_May_16_1651,mf_amp_cond1,3.0.7,59.97774362248134,
ability,,&&&&&&&,images/symbols/symbol_44.png,condition_files/AMP_rep3.csv,left,authority.virtue,,,,,,,,,,,,,,,,,,,,,0,0,0,2,0,23,23,23,,,,,,,,,,,,,1353.7683554156902,,,,,AMP_prac,left,0.8654320516470762,,,,,,,,,,,,,,,,,,,,,6,,,right,0.7489134684365126,,,,,,,,,,,,,,1013,2019_May_16_1651,mf_amp_cond1,3.0.7,59.97774362248134,
trust,,&&&&&,images/symbols/symbol_18.png,condition_files/AMP_rep3.csv,left,authority.virtue,,,,,,,,,,,,,,,,,,,,,0,0,0,2,0,24,24,24,,,,,,,,,,,,,1354.6017879060892,,,,,AMP_prac,left,0.8654320516470762,,,,,,,,,,,,,,,,,,,,,6,,,right,0.6002728075400228,,,,,,,,,,,,,,1013,2019_May_16_1651,mf_amp_cond1,3.0.7,59.97774362248134,
civilians,,&&&&&&&&&,images/symbols/symbol_81.png,condition_files/AMP_rep3.csv,right,care.vice,,,,,,,,,,,,,,,,,,,,,0,0,0,2,0,25,25,25,,,,,,,,,,,,,1355.4521305512062,,,,,AMP_prac,left,0.8654320516470762,,,,,,,,,,,,,,,,,,,,,6,,,left,0.6324914230463037,,,,,,,,,,,,,,1013,2019_May_16_1651,mf_amp_cond1,3.0.7,59.97774362248134,
great,,&&&&&,images/symbols/symbol_40.png,condition_files/AMP_rep3.csv,left,loyalty.virtue,,,,,,,,,,,,,,,,,,,,,0,0,0,2,0,26,26,26,,,,,,,,,,,,,1356.2856775399487,,,,,AMP_prac,left,0.8654320516470762,,,,,,,,,,,,,,,,,,,,,6,,,left,0.6157749854173744,,,,,,,,,,,,,,1013,2019_May_16_1651,mf_amp_cond1,3.0.7,59.97774362248134,
penalty,,&&&&&&&,images/symbols/symbol_48.png,condition_files/AMP_rep3.csv,right,authority.vice,,,,,,,,,,,,,,,,,,,,,0,0,0,2,0,27,27,27,,,,,,,,,,,,,1357.2025761165423,,,,,AMP_prac,left,0.8654320516470762,,,,,,,,,,,,,,,,,,,,,6,,,left,0.6992038676689845,,,,,,,,,,,,,,1013,2019_May_16_1651,mf_amp_cond1,3.0.7,59.97774362248134,
useful,,&&&&&&,images/symbols/symbol_37.png,condition_files/AMP_rep3.csv,left,authority.virtue,,,,,,,,,,,,,,,,,,,,,0,0,0,2,0,28,28,28,,,,,,,,,,,,,1358.0528090741718,,,,,AMP_prac,left,0.8654320516470762,,,,,,,,,,,,,,,,,,,,,6,,,left,0.6321476072880614,,,,,,,,,,,,,,1013,2019_May_16_1651,mf_amp_cond1,3.0.7,59.97774362248134,
lies,,&&&&,images/symbols/symbol_54.png,condition_files/AMP_rep3.csv,right,fairness.vice,,,,,,,,,,,,,,,,,,,,,0,0,0,2,0,29,29,29,,,,,,,,,,,,,1358.9363572014809,,,,,AMP_prac,left,0.8654320516470762,,,,,,,,,,,,,,,,,,,,,6,,,left,0.65040319774198,,,,,,,,,,,,,,1013,2019_May_16_1651,mf_amp_cond1,3.0.7,59.97774362248134,
corruption,,&&&&&&&&&&,images/symbols/symbol_72.png,condition_files/AMP_rep3.csv,right,sanctity.vice,,,,,,,,,,,,,,,,,,,,,0,0,0,2,0,30,30,30,,,,,,,,,,,,,1360.0699934476143,,,,,AMP_prac,left,0.8654320516470762,,,,,,,,,,,,,,,,,,,,,6,,,left,0.9157365947939979,,,,,,,,,,,,,,1013,2019_May_16_1651,mf_amp_cond1,3.0.7,59.97774362248134,
strength,,&&&&&&&&,images/symbols/symbol_59.png,condition_files/AMP_rep3.csv,left,sanctity.virtue,,,,,,,,,,,,,,,,,,,,,0,0,0,2,0,31,31,31,,,,,,,,,,,,,1360.9035420399741,,,,,AMP_prac,left,0.8654320516470762,,,,,,,,,,,,,,,,,,,,,6,,,left,0.6159151416504756,,,,,,,,,,,,,,1013,2019_May_16_1651,mf_amp_cond1,3.0.7,59.97774362248134,
spewd,,&&&&&,images/symbols/symbol_15.png,condition_files/AMP_rep3.csv,None,nonword,,,,,,,,,,,,,,,,,,,,,0,0,0,2,0,32,32,32,,,,,,,,,,,,,1361.6704067321189,,,,,AMP_prac,left,0.8654320516470762,,,,,,,,,,,,,,,,,,,,,6,,,left,0.5491436838747177,,,,,,,,,,,,,,1013,2019_May_16_1651,mf_amp_cond1,3.0.7,59.97774362248134,
praise,,&&&&&&,images/symbols/symbol_60.png,condition_files/AMP_rep3.csv,left,authority.virtue,,,,,,,,,,,,,,,,,,,,,0,0,0,2,0,33,33,33,,,,,,,,,,,,,1362.554000402186,,,,,AMP_prac,left,0.8654320516470762,,,,,,,,,,,,,,,,,,,,,6,,,left,0.6657507868148969,,,,,,,,,,,,,,1013,2019_May_16_1651,mf_amp_cond1,3.0.7,59.97774362248134,
serial,,&&&&&&,images/symbols/symbol_9.png,condition_files/AMP_rep3.csv,right,sanctity.vice,,,,,,,,,,,,,,,,,,,,,0,0,0,2,0,34,34,34,,,,,,,,,,,,,1363.7542759679527,,,,,AMP_prac,left,0.8654320516470762,,,,,,,,,,,,,,,,,,,,,6,,,left,0.9821289572100795,,,,,,,,,,,,,,1013,2019_May_16_1651,mf_amp_cond1,3.0.7,59.97774362248134,
help,,&&&&,images/symbols/symbol_78.png,condition_files/AMP_rep3.csv,left,care.virtue,,,,,,,,,,,,,,,,,,,,,0,0,0,2,0,35,35,35,,,,,,,,,,,,,1364.5878386721524,,,,,AMP_prac,left,0.8654320516470762,,,,,,,,,,,,,,,,,,,,,6,,,left,0.6158121893604402,,,,,,,,,,,,,,1013,2019_May_16_1651,mf_amp_cond1,3.0.7,59.97774362248134,
rhailled,,&&&&&&&&,images/symbols/symbol_61.png,condition_files/AMP_rep3.csv,None,nonword,,,,,,,,,,,,,,,,,,,,,0,0,0,2,0,36,36,36,,,,,,,,,,,,,1365.554733576464,,,,,AMP_prac,left,0.8654320516470762,,,,,,,,,,,,,,,,,,,,,6,,,right,0.7492691509687575,,,,,,,,,,,,,,1013,2019_May_16_1651,mf_amp_cond1,3.0.7,59.97774362248134,
good,,&&&&,images/symbols/symbol_53.png,condition_files/AMP_rep3.csv,left,care.virtue,,,,,,,,,,,,,,,,,,,,,0,0,0,2,0,37,37,37,,,,,,,,,,,,,1366.4382964570614,,,,,AMP_prac,left,0.8654320516470762,,,,,,,,,,,,,,,,,,,,,6,,,right,0.6659669545624638,,,,,,,,,,,,,,1013,2019_May_16_1651,mf_amp_cond1,3.0.7,59.97774362248134,
benefit,,&&&&&&&,images/symbols/symbol_14.png,condition_files/AMP_rep3.csv,left,fairness.virtue,,,,,,,,,,,,,,,,,,,,,0,0,0,2,0,38,38,38,,,,,,,,,,,,,1367.5052459164654,,,,,AMP_prac,left,0.8654320516470762,,,,,,,,,,,,,,,,,,,,,6,,,right,0.8491662307496881,,,,,,,,,,,,,,1013,2019_May_16_1651,mf_amp_cond1,3.0.7,59.97774362248134,
increase,,&&&&&&&&,images/symbols/symbol_22.png,condition_files/AMP_rep3.csv,left,care.virtue,,,,,,,,,,,,,,,,,,,,,0,0,0,2,0,39,39,39,,,,,,,,,,,,,1368.3388044512612,,,,,AMP_prac,left,0.8654320516470762,,,,,,,,,,,,,,,,,,,,,6,,,right,0.6159282913213247,,,,,,,,,,,,,,1013,2019_May_16_1651,mf_amp_cond1,3.0.7,59.97774362248134,
honored,,&&&&&&&,images/symbols/symbol_64.png,condition_files/AMP_rep3.csv,left,authority.virtue,,,,,,,,,,,,,,,,,,,,,0,0,0,2,0,40,40,40,,,,,,,,,,,,,1369.2223557858051,,,,,AMP_prac,left,0.8654320516470762,,,,,,,,,,,,,,,,,,,,,6,,,left,0.6657777276050183,,,,,,,,,,,,,,1013,2019_May_16_1651,mf_amp_cond1,3.0.7,59.97774362248134,
progress,,&&&&&&&&,images/symbols/symbol_34.png,condition_files/AMP_rep3.csv,left,authority.virtue,,,,,,,,,,,,,,,,,,,,,0,0,0,2,0,41,41,41,,,,,,,,,,,,,1371.4062590504218,,,,,AMP_prac,left,0.8654320516470762,,,,,,,,,,,,,,,,,,,,,6,,,left,1.9660812283982523,,,,,,,,,,,,,,1013,2019_May_16_1651,mf_amp_cond1,3.0.7,59.97774362248134,
cande,,&&&&&,images/symbols/symbol_3.png,condition_files/AMP_rep3.csv,None,nonword,,,,,,,,,,,,,,,,,,,,,0,0,0,2,0,42,42,42,,,,,,,,,,,,,1372.2898963389089,,,,,AMP_prac,left,0.8654320516470762,,,,,,,,,,,,,,,,,,,,,6,,,right,0.6659072999609634,,,,,,,,,,,,,,1013,2019_May_16_1651,mf_amp_cond1,3.0.7,59.97774362248134,
violence,,&&&&&&&&,images/symbols/symbol_49.png,condition_files/AMP_rep3.csv,right,care.vice,,,,,,,,,,,,,,,,,,,,,0,0,0,2,0,43,43,43,,,,,,,,,,,,,1373.2067301293246,,,,,AMP_prac,left,0.8654320516470762,,,,,,,,,,,,,,,,,,,,,6,,,left,0.683724461174279,,,,,,,,,,,,,,1013,2019_May_16_1651,mf_amp_cond1,3.0.7,59.97774362248134,
injured,,&&&&&&&,images/symbols/symbol_13.png,condition_files/AMP_rep3.csv,right,care.vice,,,,,,,,,,,,,,,,,,,,,0,0,0,2,0,44,44,44,,,,,,,,,,,,,1374.0902949342671,,,,,AMP_prac,left,0.8654320516470762,,,,,,,,,,,,,,,,,,,,,6,,,right,0.6652738707416574,,,,,,,,,,,,,,1013,2019_May_16_1651,mf_amp_cond1,3.0.7,59.97774362248134,
daizz,,&&&&&,images/symbols/symbol_52.png,condition_files/AMP_rep3.csv,None,nonword,,,,,,,,,,,,,,,,,,,,,0,0,0,2,0,45,45,45,,,,,,,,,,,,,1375.0405516575156,,,,,AMP_prac,left,0.8654320516470762,,,,,,,,,,,,,,,,,,,,,6,,,left,0.7171082657223451,,,,,,,,,,,,,,1013,2019_May_16_1651,mf_amp_cond1,3.0.7,59.97774362248134,
victim,,&&&&&&,images/symbols/symbol_77.png,condition_files/AMP_rep3.csv,right,care.vice,,,,,,,,,,,,,,,,,,,,,0,0,0,2,0,46,46,46,,,,,,,,,,,,,1377.2411040077968,,,,,AMP_prac,left,0.8654320516470762,,,,,,,,,,,,,,,,,,,,,6,,,left,1.9825228058543871,,,,,,,,,,,,,,1013,2019_May_16_1651,mf_amp_cond1,3.0.7,59.97774362248134,
brored,,&&&&&&,images/symbols/symbol_75.png,condition_files/AMP_rep3.csv,None,nonword,,,,,,,,,,,,,,,,,,,,,0,0,0,2,0,47,47,47,,,,,,,,,,,,,1378.241392338361,,,,,AMP_prac,left,0.8654320516470762,,,,,,,,,,,,,,,,,,,,,6,,,right,0.782301442392054,,,,,,,,,,,,,,1013,2019_May_16_1651,mf_amp_cond1,3.0.7,59.97774362248134,
riot,,&&&&,images/symbols/symbol_33.png,condition_files/AMP_rep3.csv,right,authority.vice,,,,,,,,,,,,,,,,,,,,,0,0,0,2,0,48,48,48,,,,,,,,,,,,,1379.4083357360869,,,,,AMP_prac,left,0.8654320516470762,,,,,,,,,,,,,,,,,,,,,6,,,right,0.9493670358315285,,,,,,,,,,,,,,1013,2019_May_16_1651,mf_amp_cond1,3.0.7,59.97774362248134,
credit,,&&&&&&,images/symbols/symbol_45.png,condition_files/AMP_rep3.csv,left,fairness.virtue,,,,,,,,,,,,,,,,,,,,,0,0,0,2,0,49,49,49,,,,,,,,,,,,,1380.2418840077262,,,,,AMP_prac,left,0.8654320516470762,,,,,,,,,,,,,,,,,,,,,6,,,left,0.6158368850810803,,,,,,,,,,,,,,1013,2019_May_16_1651,mf_amp_cond1,3.0.7,59.97774362248134,
sexual,,&&&&&&,images/symbols/symbol_58.png,condition_files/AMP_rep3.csv,right,sanctity.vice,,,,,,,,,,,,,,,,,,,,,0,0,0,2,0,50,50,50,,,,,,,,,,,,,1381.07544190107,,,,,AMP_prac,left,0.8654320516470762,,,,,,,,,,,,,,,,,,,,,6,,,left,0.6159343850740697,,,,,,,,,,,,,,1013,2019_May_16_1651,mf_amp_cond1,3.0.7,59.97774362248134,
troops,,&&&&&&,images/symbols/symbol_43.png,condition_files/AMP_rep3.csv,right,loyalty.vice,,,,,,,,,,,,,,,,,,,,,0,0,0,2,0,51,51,51,,,,,,,,,,,,,1381.9923693427954,,,,,AMP_prac,left,0.8654320516470762,,,,,,,,,,,,,,,,,,,,,6,,,left,0.6837834743309941,,,,,,,,,,,,,,1013,2019_May_16_1651,mf_amp_cond1,3.0.7,59.97774362248134,
harassment,,&&&&&&&&&&,images/symbols/symbol_73.png,condition_files/AMP_rep3.csv,right,sanctity.vice,,,,,,,,,,,,,,,,,,,,,0,0,0,2,0,52,52,52,,,,,,,,,,,,,1382.8425593234533,,,,,AMP_prac,left,0.8654320516470762,,,,,,,,,,,,,,,,,,,,,6,,,left,0.6317826237682311,,,,,,,,,,,,,,1013,2019_May_16_1651,mf_amp_cond1,3.0.7,59.97774362248134,
health,,&&&&&&,images/symbols/symbol_20.png,condition_files/AMP_rep3.csv,left,care.virtue,,,,,,,,,,,,,,,,,,,,,0,0,0,2,0,53,53,53,,,,,,,,,,,,,1383.642765163895,,,,,AMP_prac,left,0.8654320516470762,,,,,,,,,,,,,,,,,,,,,6,,,right,0.5830483436402574,,,,,,,,,,,,,,1013,2019_May_16_1651,mf_amp_cond1,3.0.7,59.97774362248134,
illegal,,&&&&&&&,images/symbols/symbol_12.png,condition_files/AMP_rep3.csv,right,fairness.vice,,,,,,,,,,,,,,,,,,,,,0,0,0,2,0,54,54,54,,,,,,,,,,,,,1384.5930209249746,,,,,AMP_prac,left,0.8654320516470762,,,,,,,,,,,,,,,,,,,,,6,,,right,0.7325972939252097,,,,,,,,,,,,,,1013,2019_May_16_1651,mf_amp_cond1,3.0.7,59.97774362248134,
stintz,,&&&&&&,images/symbols/symbol_79.png,condition_files/AMP_rep3.csv,None,nonword,,,,,,,,,,,,,,,,,,,,,0,0,0,2,0,55,55,55,,,,,,,,,,,,,1385.5599684279623,,,,,AMP_prac,left,0.8654320516470762,,,,,,,,,,,,,,,,,,,,,6,,,right,0.7490844141466368,,,,,,,,,,,,,,1013,2019_May_16_1651,mf_amp_cond1,3.0.7,59.97774362248134,
died,,&&&&,images/symbols/symbol_1.png,condition_files/AMP_rep3.csv,right,care.vice,,,,,,,,,,,,,,,,,,,,,0,0,0,2,0,56,56,56,,,,,,,,,,,,,1386.460158905742,,,,,AMP_prac,left,0.8654320516470762,,,,,,,,,,,,,,,,,,,,,6,,,right,0.6823934580061177,,,,,,,,,,,,,,1013,2019_May_16_1651,mf_amp_cond1,3.0.7,59.97774362248134,
agreement,,&&&&&&&&&,images/symbols/symbol_10.png,condition_files/AMP_rep3.csv,left,fairness.virtue,,,,,,,,,,,,,,,,,,,,,0,0,0,2,0,57,57,57,,,,,,,,,,,,,1387.3770719149034,,,,,AMP_prac,left,0.8654320516470762,,,,,,,,,,,,,,,,,,,,,6,,,left,0.6993629466051061,,,,,,,,,,,,,,1013,2019_May_16_1651,mf_amp_cond1,3.0.7,59.97774362248134,
clean,,&&&&&,images/symbols/symbol_74.png,condition_files/AMP_rep3.csv,left,sanctity.virtue,,,,,,,,,,,,,,,,,,,,,0,0,0,2,0,58,58,58,,,,,,,,,,,,,1388.2272846669402,,,,,AMP_prac,left,0.8654320516470762,,,,,,,,,,,,,,,,,,,,,6,,,left,0.6170649359555682,,,,,,,,,,,,,,1013,2019_May_16_1651,mf_amp_cond1,3.0.7,59.97774362248134,
violations,,&&&&&&&&&&,images/symbols/symbol_35.png,condition_files/AMP_rep3.csv,right,sanctity.vice,,,,,,,,,,,,,,,,,,,,,0,0,0,2,0,59,59,59,,,,,,,,,,,,,1389.0775054370679,,,,,AMP_prac,left,0.8654320516470762,,,,,,,,,,,,,,,,,,,,,6,,,right,0.6319477964498219,,,,,,,,,,,,,,1013,2019_May_16_1651,mf_amp_cond1,3.0.7,59.97774362248134,
pleasant,,&&&&&&&,images/symbols/symbol_57.png,condition_files/AMP_rep3.csv,right,control,,,,,,,,,,,,,,,,,,,,,0,0,0,2,0,60,60,60,,,,,,,,,,,,,1390.027752217884,,,,,AMP_prac,left,0.8654320516470762,,,,,,,,,,,,,,,,,,,,,6,,,right,0.7170874186849687,,,,,,,,,,,,,,1013,2019_May_16_1651,mf_amp_cond1,3.0.7,59.97774362248134,
phlaizz,,&&&&&&&,images/symbols/symbol_65.png,condition_files/AMP_rep3.csv,None,nonword,,,,,,,,,,,,,,,,,,,,,0,0,0,2,0,61,61,61,,,,,,,,,,,,,1390.8946448450588,,,,,AMP_prac,left,0.8654320516470762,,,,,,,,,,,,,,,,,,,,,6,,,left,0.6485032308082737,,,,,,,,,,,,,,1013,2019_May_16_1651,mf_amp_cond1,3.0.7,59.97774362248134,
hate,,&&&&,images/symbols/symbol_42.png,condition_files/AMP_rep3.csv,right,fairness.vice,,,,,,,,,,,,,,,,,,,,,0,0,0,2,0,62,62,62,,,,,,,,,,,,,1391.7615480561108,,,,,AMP_prac,left,0.8654320516470762,,,,,,,,,,,,,,,,,,,,,6,,,left,0.6491395465418464,,,,,,,,,,,,,,1013,2019_May_16_1651,mf_amp_cond1,3.0.7,59.97774362248134,
unpleasant,,&&&&&&&&&,images/symbols/symbol_56.png,condition_files/AMP_rep3.csv,left,control,,,,,,,,,,,,,,,,,,,,,0,0,0,2,0,63,63,63,,,,,,,,,,,,,1392.5950867060383,,,,,AMP_prac,left,0.8654320516470762,,,,,,,,,,,,,,,,,,,,,6,,,right,0.6157573456112004,,,,,,,,,,,,,,1013,2019_May_16_1651,mf_amp_cond1,3.0.7,59.97774362248134,
scrauld,,&&&&&&&,images/symbols/symbol_5.png,condition_files/AMP_rep3.csv,None,nonword,,,,,,,,,,,,,,,,,,,,,0,0,0,2,0,64,64,64,,,,,,,,,,,,,1393.528674779478,,,,,AMP_prac,left,0.8654320516470762,,,,,,,,,,,,,,,,,,,,,6,,,right,0.715917418790923,,,,,,,,,,,,,,1013,2019_May_16_1651,mf_amp_cond1,3.0.7,59.97774362248134,
voter,,&&&&&,images/symbols/symbol_38.png,condition_files/AMP_rep3.csv,right,fairness.vice,,,,,,,,,,,,,,,,,,,,,0,0,0,2,0,65,65,65,,,,,,,,,,,,,1394.362222409669,,,,,AMP_prac,left,0.8654320516470762,,,,,,,,,,,,,,,,,,,,,6,,,right,0.6159029541558994,,,,,,,,,,,,,,1013,2019_May_16_1651,mf_amp_cond1,3.0.7,59.97774362248134,
torture,,&&&&&&&,images/symbols/symbol_66.png,condition_files/AMP_rep3.csv,right,care.vice,,,,,,,,,,,,,,,,,,,,,0,0,0,2,0,66,66,66,,,,,,,,,,,,,1395.2457798379655,,,,,AMP_prac,left,0.8654320516470762,,,,,,,,,,,,,,,,,,,,,6,,,left,0.6659695203488809,,,,,,,,,,,,,,1013,2019_May_16_1651,mf_amp_cond1,3.0.7,59.97774362248134,
racist,,&&&&&&,images/symbols/symbol_19.png,condition_files/AMP_rep3.csv,right,sanctity.vice,,,,,,,,,,,,,,,,,,,,,0,0,0,2,0,67,67,67,,,,,,,,,,,,,1396.2793766030154,,,,,AMP_prac,left,0.8654320516470762,,,,,,,,,,,,,,,,,,,,,6,,,left,0.8158853784989333,,,,,,,,,,,,,,1013,2019_May_16_1651,mf_amp_cond1,3.0.7,59.97774362248134,
love,,&&&&,images/symbols/symbol_25.png,condition_files/AMP_rep3.csv,left,loyalty.virtue,,,,,,,,,,,,,,,,,,,,,0,0,0,2,0,68,68,68,,,,,,,,,,,,,1397.212947998829,,,,,AMP_prac,left,0.8654320516470762,,,,,,,,,,,,,,,,,,,,,6,,,right,0.7157233809775789,,,,,,,,,,,,,,1013,2019_May_16_1651,mf_amp_cond1,3.0.7,59.97774362248134,
drug,,&&&&,images/symbols/symbol_8.png,condition_files/AMP_rep3.csv,right,sanctity.vice,,,,,,,,,,,,,,,,,,,,,0,0,0,2,0,69,69,69,,,,,,,,,,,,,1398.1798586185978,,,,,AMP_prac,left,0.8654320516470762,,,,,,,,,,,,,,,,,,,,,6,,,right,0.7487983286446251,,,,,,,,,,,,,,1013,2019_May_16_1651,mf_amp_cond1,3.0.7,59.97774362248134,
kuntz,,&&&&&,images/symbols/symbol_39.png,condition_files/AMP_rep3.csv,None,nonword,,,,,,,,,,,,,,,,,,,,,0,0,0,2,0,70,70,70,,,,,,,,,,,,,1399.1134457298685,,,,,AMP_prac,left,0.8654320516470762,,,,,,,,,,,,,,,,,,,,,6,,,right,0.7158497460986837,,,,,,,,,,,,,,1013,2019_May_16_1651,mf_amp_cond1,3.0.7,59.97774362248134,
charges,,&&&&&&&,images/symbols/symbol_24.png,condition_files/AMP_rep3.csv,right,fairness.vice,,,,,,,,,,,,,,,,,,,,,0,0,0,2,0,71,71,71,,,,,,,,,,,,,1400.0136724494223,,,,,AMP_prac,left,0.8654320516470762,,,,,,,,,,,,,,,,,,,,,6,,,right,0.6670715268264757,,,,,,,,,,,,,,1013,2019_May_16_1651,mf_amp_cond1,3.0.7,59.97774362248134,
slavery,,&&&&&&&,images/symbols/symbol_62.png,condition_files/AMP_rep3.csv,right,loyalty.vice,,,,,,,,,,,,,,,,,,,,,0,0,0,2,0,72,72,72,,,,,,,,,,,,,1400.913923864693,,,,,AMP_prac,left,0.8654320516470762,,,,,,,,,,,,,,,,,,,,,6,,,left,0.6670955811023305,,,,,,,,,,,,,,1013,2019_May_16_1651,mf_amp_cond1,3.0.7,59.97774362248134,
cifte,,&&&&&,images/symbols/symbol_2.png,condition_files/AMP_rep3.csv,None,nonword,,,,,,,,,,,,,,,,,,,,,0,0,0,2,0,73,73,73,,,,,,,,,,,,,1401.8642023971515,,,,,AMP_prac,left,0.8654320516470762,,,,,,,,,,,,,,,,,,,,,6,,,right,0.7320241607521893,,,,,,,,,,,,,,1013,2019_May_16_1651,mf_amp_cond1,3.0.7,59.97774362248134,
blamed,,&&&&&&,images/symbols/symbol_23.png,condition_files/AMP_rep3.csv,right,loyalty.vice,,,,,,,,,,,,,,,,,,,,,0,0,0,2,0,74,74,74,,,,,,,,,,,,,1402.6310754281112,,,,,AMP_prac,left,0.8654320516470762,,,,,,,,,,,,,,,,,,,,,6,,,left,0.5490461838853662,,,,,,,,,,,,,,1013,2019_May_16_1651,mf_amp_cond1,3.0.7,59.97774362248134,
fighters,,&&&&&&&&,images/symbols/symbol_11.png,condition_files/AMP_rep3.csv,right,authority.vice,,,,,,,,,,,,,,,,,,,,,0,0,0,2,0,75,75,75,,,,,,,,,,,,,1403.564603526229,,,,,AMP_prac,left,0.8654320516470762,,,,,,,,,,,,,,,,,,,,,6,,,left,0.7157185701253184,,,,,,,,,,,,,,1013,2019_May_16_1651,mf_amp_cond1,3.0.7,59.97774362248134,
promises,,&&&&&&&&,images/symbols/symbol_71.png,condition_files/AMP_rep3.csv,left,fairness.virtue,,,,,,,,,,,,,,,,,,,,,0,0,0,2,0,76,76,76,,,,,,,,,,,,,1404.4148255792497,,,,,AMP_prac,left,0.8654320516470762,,,,,,,,,,,,,,,,,,,,,6,,,left,0.617078406346991,,,,,,,,,,,,,,1013,2019_May_16_1651,mf_amp_cond1,3.0.7,59.97774362248134,
crime,,&&&&&,images/symbols/symbol_26.png,condition_files/AMP_rep3.csv,right,fairness.vice,,,,,,,,,,,,,,,,,,,,,0,0,0,2,0,77,77,77,,,,,,,,,,,,,1405.2150532289015,,,,,AMP_prac,left,0.8654320516470762,,,,,,,,,,,,,,,,,,,,,6,,,left,0.5817628832264745,,,,,,,,,,,,,,1013,2019_May_16_1651,mf_amp_cond1,3.0.7,59.97774362248134,
loyalty,,&&&&&&&,images/symbols/symbol_29.png,condition_files/AMP_rep3.csv,left,loyalty.virtue,,,,,,,,,,,,,,,,,,,,,0,0,0,2,0,78,78,78,,,,,,,,,,,,,1406.0819108971955,,,,,AMP_prac,left,0.8654320516470762,,,,,,,,,,,,,,,,,,,,,6,,,left,0.6489785432677309,,,,,,,,,,,,,,1013,2019_May_16_1651,mf_amp_cond1,3.0.7,59.97774362248134,
commitment,,&&&&&&&&&&,images/symbols/symbol_69.png,condition_files/AMP_rep3.csv,left,sanctity.virtue,,,,,,,,,,,,,,,,,,,,,0,0,0,2,0,79,79,79,,,,,,,,,,,,,1406.8654474463838,,,,,AMP_prac,left,0.8654320516470762,,,,,,,,,,,,,,,,,,,,,6,,,left,0.5656946281014825,,,,,,,,,,,,,,1013,2019_May_16_1651,mf_amp_cond1,3.0.7,59.97774362248134,
critics,,&&&&&&&,images/symbols/symbol_30.png,condition_files/AMP_rep3.csv,right,loyalty.vice,,,,,,,,,,,,,,,,,,,,,0,0,0,2,0,80,80,80,,,,,,,,,,,,,1407.7823703979775,,,,,AMP_prac,left,0.8654320516470762,,,,,,,,,,,,,,,,,,,,,6,,,left,0.6993420995640918,,,,,,,,,,,,,,1013,2019_May_16_1651,mf_amp_cond1,3.0.7,59.97774362248134,
prosecution,,&&&&&&&&&&&,images/symbols/symbol_46.png,condition_files/AMP_rep3.csv,right,authority.vice,,,,,,,,,,,,,,,,,,,,,0,0,0,2,0,81,81,81,,,,,,,,,,,,,1408.6492396123213,,,,,AMP_prac,left,0.8654320516470762,,,,,,,,,,,,,,,,,,,,,6,,,left,0.6491517340400605,,,,,,,,,,,,,,1013,2019_May_16_1651,mf_amp_cond1,3.0.7,59.97774362248134,
,,,,condition_files/AMP_rep3.csv,,,,,,,,,,,,,,,,,,,,,,,0,0,0,2,,,,,,,,,,,,,,,,,,,,,,,,,,,,,,,,,,,,,,,,,,,,,,,,,,right,4.8514966088296205,,,,,,,,,,,,1013,2019_May_16_1651,mf_amp_cond1,3.0.7,59.97774362248134,
army,,&&&&,images/symbols/symbol_7.png,condition_files/AMP_rep4.csv,right,loyalty.vice,,,,,,,,,,,,,,,,,,,,,0,1,1,3,0,0,0,0,,,,,,,,,,,,,1414.467570508692,,,,,AMP_prac,left,0.8654320516470762,,,,,,,,,,,,,,,,,,,,,6,,,right,0.7158179944563017,,,,,,,,,,,,,,1013,2019_May_16_1651,mf_amp_cond1,3.0.7,59.97774362248134,
celebrated,,&&&&&&&&&&,images/symbols/symbol_76.png,condition_files/AMP_rep4.csv,left,authority.virtue,,,,,,,,,,,,,,,,,,,,,0,1,1,3,0,1,1,1,,,,,,,,,,,,,1415.300977341194,,,,,AMP_prac,left,0.8654320516470762,,,,,,,,,,,,,,,,,,,,,6,,,right,0.6162637682682544,,,,,,,,,,,,,,1013,2019_May_16_1651,mf_amp_cond1,3.0.7,59.97774362248134,
ban,,&&&,images/symbols/symbol_55.png,condition_files/AMP_rep4.csv,right,loyalty.vice,,,,,,,,,,,,,,,,,,,,,0,1,1,3,0,2,2,2,,,,,,,,,,,,,1416.1678622709987,,,,,AMP_prac,left,0.8654320516470762,,,,,,,,,,,,,,,,,,,,,6,,,right,0.6337428867518611,,,,,,,,,,,,,,1013,2019_May_16_1651,mf_amp_cond1,3.0.7,59.97774362248134,
party,,&&&&&,images/symbols/symbol_68.png,condition_files/AMP_rep4.csv,left,loyalty.virtue,,,,,,,,,,,,,,,,,,,,,0,1,1,3,0,3,3,3,,,,,,,,,,,,,1417.2348101267853,,,,,AMP_prac,left,0.8654320516470762,,,,,,,,,,,,,,,,,,,,,6,,,left,0.833739422934741,,,,,,,,,,,,,,1013,2019_May_16_1651,mf_amp_cond1,3.0.7,59.97774362248134,
friends,,&&&&&&&,images/symbols/symbol_17.png,condition_files/AMP_rep4.csv,left,loyalty.virtue,,,,,,,,,,,,,,,,,,,,,0,1,1,3,0,4,4,4,,,,,,,,,,,,,1418.4017766166144,,,,,AMP_prac,left,0.8654320516470762,,,,,,,,,,,,,,,,,,,,,6,,,right,0.9486332201049663,,,,,,,,,,,,,,1013,2019_May_16_1651,mf_amp_cond1,3.0.7,59.97774362248134,
safety,,&&&&&&,images/symbols/symbol_82.png,condition_files/AMP_rep4.csv,left,care.virtue,,,,,,,,,,,,,,,,,,,,,0,1,1,3,0,5,5,5,,,,,,,,,,,,,1419.2353335477892,,,,,AMP_prac,left,0.8654320516470762,,,,,,,,,,,,,,,,,,,,,6,,,left,0.6161867945884296,,,,,,,,,,,,,,1013,2019_May_16_1651,mf_amp_cond1,3.0.7,59.97774362248134,
opportunity,,&&&&&&&&&&&,images/symbols/symbol_32.png,condition_files/AMP_rep4.csv,left,fairness.virtue,,,,,,,,,,,,,,,,,,,,,0,1,1,3,0,6,6,6,,,,,,,,,,,,,1420.0188591923725,,,,,AMP_prac,left,0.8654320516470762,,,,,,,,,,,,,,,,,,,,,6,,,left,0.5657334356656065,,,,,,,,,,,,,,1013,2019_May_16_1651,mf_amp_cond1,3.0.7,59.97774362248134,
win,,&&&,images/symbols/symbol_6.png,condition_files/AMP_rep4.csv,left,fairness.virtue,,,,,,,,,,,,,,,,,,,,,0,1,1,3,0,7,7,7,,,,,,,,,,,,,1420.8690793210553,,,,,AMP_prac,left,0.8654320516470762,,,,,,,,,,,,,,,,,,,,,6,,,right,0.6170691053630435,,,,,,,,,,,,,,1013,2019_May_16_1651,mf_amp_cond1,3.0.7,59.97774362248134,
hand,,&&&&,images/symbols/symbol_21.png,condition_files/AMP_rep4.csv,left,sanctity.virtue,,,,,,,,,,,,,,,,,,,,,0,1,1,3,0,8,8,8,,,,,,,,,,,,,1421.8193270640404,,,,,AMP_prac,left,0.8654320516470762,,,,,,,,,,,,,,,,,,,,,6,,,left,0.7320802873946377,,,,,,,,,,,,,,1013,2019_May_16_1651,mf_amp_cond1,3.0.7,59.97774362248134,
betrayal,,&&&&&&&&,images/symbols/symbol_31.png,condition_files/AMP_rep4.csv,right,loyalty.vice,,,,,,,,,,,,,,,,,,,,,0,1,1,3,0,9,9,9,,,,,,,,,,,,,1422.552875303605,,,,,AMP_prac,left,0.8654320516470762,,,,,,,,,,,,,,,,,,,,,6,,,right,0.5167733660782687,,,,,,,,,,,,,,1013,2019_May_16_1651,mf_amp_cond1,3.0.7,59.97774362248134,
protect,,&&&&&&&,images/symbols/symbol_41.png,condition_files/AMP_rep4.csv,left,fairness.virtue,,,,,,,,,,,,,,,,,,,,,0,1,1,3,0,10,10,10,,,,,,,,,,,,,1423.51976892502,,,,,AMP_prac,left,0.8654320516470762,,,,,,,,,,,,,,,,,,,,,6,,,right,0.7496690933694481,,,,,,,,,,,,,,1013,2019_May_16_1651,mf_amp_cond1,3.0.7,59.97774362248134,
restore,,&&&&&&&,images/symbols/symbol_36.png,condition_files/AMP_rep4.csv,left,care.virtue,,,,,,,,,,,,,,,,,,,,,0,1,1,3,0,11,11,11,,,,,,,,,,,,,1424.3366607343487,,,,,AMP_prac,left,0.8654320516470762,,,,,,,,,,,,,,,,,,,,,6,,,right,0.5992641316443041,,,,,,,,,,,,,,1013,2019_May_16_1651,mf_amp_cond1,3.0.7,59.97774362248134,
police,,&&&&&&,images/symbols/symbol_80.png,condition_files/AMP_rep4.csv,right,authority.vice,,,,,,,,,,,,,,,,,,,,,0,1,1,3,0,12,12,12,,,,,,,,,,,,,1425.2035386082316,,,,,AMP_prac,left,0.8654320516470762,,,,,,,,,,,,,,,,,,,,,6,,,left,0.6495834280794952,,,,,,,,,,,,,,1013,2019_May_16_1651,mf_amp_cond1,3.0.7,59.97774362248134,
death,,&&&&&,images/symbols/symbol_51.png,condition_files/AMP_rep4.csv,right,care.vice,,,,,,,,,,,,,,,,,,,,,0,1,1,3,0,13,13,13,,,,,,,,,,,,,1425.937104808323,,,,,AMP_prac,left,0.8654320516470762,,,,,,,,,,,,,,,,,,,,,6,,,left,0.5004434004513314,,,,,,,,,,,,,,1013,2019_May_16_1651,mf_amp_cond1,3.0.7,59.97774362248134,
refused,,&&&&&&&,images/symbols/symbol_27.png,condition_files/AMP_rep4.csv,right,authority.vice,,,,,,,,,,,,,,,,,,,,,0,1,1,3,0,14,14,14,,,,,,,,,,,,,1426.903980469211,,,,,AMP_prac,left,0.8654320516470762,,,,,,,,,,,,,,,,,,,,,6,,,right,0.7484609273560636,,,,,,,,,,,,,,1013,2019_May_16_1651,mf_amp_cond1,3.0.7,59.97774362248134,
strong,,&&&&&&,images/symbols/symbol_67.png,condition_files/AMP_rep4.csv,left,loyalty.virtue,,,,,,,,,,,,,,,,,,,,,0,1,1,3,0,15,15,15,,,,,,,,,,,,,1427.5041487208437,,,,,AMP_prac,left,0.8654320516470762,,,,,,,,,,,,,,,,,,,,,6,,,left,0.3823577614639362,,,,,,,,,,,,,,1013,2019_May_16_1651,mf_amp_cond1,3.0.7,59.97774362248134,
threatened,,&&&&&&&&&&,images/symbols/symbol_47.png,condition_files/AMP_rep4.csv,right,fairness.vice,,,,,,,,,,,,,,,,,,,,,0,1,1,3,0,16,16,16,,,,,,,,,,,,,1428.2043189288852,,,,,AMP_prac,left,0.8654320516470762,,,,,,,,,,,,,,,,,,,,,6,,,left,0.4824780649068998,,,,,,,,,,,,,,1013,2019_May_16_1651,mf_amp_cond1,3.0.7,59.97774362248134,
gun,,&&&,images/symbols/symbol_63.png,condition_files/AMP_rep4.csv,right,authority.vice,,,,,,,,,,,,,,,,,,,,,0,1,1,3,0,17,17,17,,,,,,,,,,,,,1429.071217329085,,,,,AMP_prac,left,0.8654320516470762,,,,,,,,,,,,,,,,,,,,,6,,,left,0.649372712639888,,,,,,,,,,,,,,1013,2019_May_16_1651,mf_amp_cond1,3.0.7,59.97774362248134,
promised,,&&&&&&&&,images/symbols/symbol_16.png,condition_files/AMP_rep4.csv,left,loyalty.virtue,,,,,,,,,,,,,,,,,,,,,0,1,1,3,0,18,18,18,,,,,,,,,,,,,1430.021456733255,,,,,AMP_prac,left,0.8654320516470762,,,,,,,,,,,,,,,,,,,,,6,,,left,0.7328211590356659,,,,,,,,,,,,,,1013,2019_May_16_1651,mf_amp_cond1,3.0.7,59.97774362248134,
promote,,&&&&&&&,images/symbols/symbol_28.png,condition_files/AMP_rep4.csv,left,sanctity.virtue,,,,,,,,,,,,,,,,,,,,,0,1,1,3,0,19,19,19,,,,,,,,,,,,,1430.8550062877875,,,,,AMP_prac,left,0.8654320516470762,,,,,,,,,,,,,,,,,,,,,6,,,left,0.615903274876473,,,,,,,,,,,,,,1013,2019_May_16_1651,mf_amp_cond1,3.0.7,59.97774362248134,
energy,,&&&&&&,images/symbols/symbol_50.png,condition_files/AMP_rep4.csv,left,sanctity.virtue,,,,,,,,,,,,,,,,,,,,,0,1,1,3,0,20,20,20,,,,,,,,,,,,,1431.7719183347763,,,,,AMP_prac,left,0.8654320516470762,,,,,,,,,,,,,,,,,,,,,6,,,left,0.6992741061512788,,,,,,,,,,,,,,1013,2019_May_16_1651,mf_amp_cond1,3.0.7,59.97774362248134,
improve,,&&&&&&&,images/symbols/symbol_4.png,condition_files/AMP_rep4.csv,left,care.virtue,,,,,,,,,,,,,,,,,,,,,0,1,1,3,0,21,21,21,,,,,,,,,,,,,1432.6054528152963,,,,,AMP_prac,left,0.8654320516470762,,,,,,,,,,,,,,,,,,,,,6,,,left,0.6157560627179919,,,,,,,,,,,,,,1013,2019_May_16_1651,mf_amp_cond1,3.0.7,59.97774362248134,
respect,,&&&&&&&,images/symbols/symbol_70.png,condition_files/AMP_rep4.csv,left,sanctity.virtue,,,,,,,,,,,,,,,,,,,,,0,1,1,3,0,22,22,22,,,,,,,,,,,,,1433.4056592971865,,,,,AMP_prac,left,0.8654320516470762,,,,,,,,,,,,,,,,,,,,,6,,,right,0.5825101693480974,,,,,,,,,,,,,,1013,2019_May_16_1651,mf_amp_cond1,3.0.7,59.97774362248134,
ability,,&&&&&&&,images/symbols/symbol_44.png,condition_files/AMP_rep4.csv,left,authority.virtue,,,,,,,,,,,,,,,,,,,,,0,1,1,3,0,23,23,23,,,,,,,,,,,,,1435.1394381370592,,,,,AMP_prac,left,0.8654320516470762,,,,,,,,,,,,,,,,,,,,,6,,,right,1.5159144681347243,,,,,,,,,,,,,,1013,2019_May_16_1651,mf_amp_cond1,3.0.7,59.97774362248134,
trust,,&&&&&,images/symbols/symbol_18.png,condition_files/AMP_rep4.csv,left,authority.virtue,,,,,,,,,,,,,,,,,,,,,0,1,1,3,0,24,24,24,,,,,,,,,,,,,1435.9563267391495,,,,,AMP_prac,left,0.8654320516470762,,,,,,,,,,,,,,,,,,,,,6,,,right,0.5837298814076348,,,,,,,,,,,,,,1013,2019_May_16_1651,mf_amp_cond1,3.0.7,59.97774362248134,
civilians,,&&&&&&&&&,images/symbols/symbol_81.png,condition_files/AMP_rep4.csv,right,care.vice,,,,,,,,,,,,,,,,,,,,,0,1,1,3,0,25,25,25,,,,,,,,,,,,,1436.8732269193642,,,,,AMP_prac,left,0.8654320516470762,,,,,,,,,,,,,,,,,,,,,6,,,left,0.6985444598358299,,,,,,,,,,,,,,1013,2019_May_16_1651,mf_amp_cond1,3.0.7,59.97774362248134,
great,,&&&&&,images/symbols/symbol_40.png,condition_files/AMP_rep4.csv,left,loyalty.virtue,,,,,,,,,,,,,,,,,,,,,0,1,1,3,0,26,26,26,,,,,,,,,,,,,1437.8068018431331,,,,,AMP_prac,left,0.8654320516470762,,,,,,,,,,,,,,,,,,,,,6,,,left,0.7157124763725733,,,,,,,,,,,,,,1013,2019_May_16_1651,mf_amp_cond1,3.0.7,59.97774362248134,
penalty,,&&&&&&&,images/symbols/symbol_48.png,condition_files/AMP_rep4.csv,right,authority.vice,,,,,,,,,,,,,,,,,,,,,0,1,1,3,0,27,27,27,,,,,,,,,,,,,1438.7403867093417,,,,,AMP_prac,left,0.8654320516470762,,,,,,,,,,,,,,,,,,,,,6,,,right,0.7158038826164557,,,,,,,,,,,,,,1013,2019_May_16_1651,mf_amp_cond1,3.0.7,59.97774362248134,
useful,,&&&&&&,images/symbols/symbol_37.png,condition_files/AMP_rep4.csv,left,authority.virtue,,,,,,,,,,,,,,,,,,,,,0,1,1,3,0,28,28,28,,,,,,,,,,,,,1439.557253502222,,,,,AMP_prac,left,0.8654320516470762,,,,,,,,,,,,,,,,,,,,,6,,,left,0.5990495675214333,,,,,,,,,,,,,,1013,2019_May_16_1651,mf_amp_cond1,3.0.7,59.97774362248134,
lies,,&&&&,images/symbols/symbol_54.png,condition_files/AMP_rep4.csv,right,fairness.vice,,,,,,,,,,,,,,,,,,,,,0,1,1,3,0,29,29,29,,,,,,,,,,,,,1440.4074745930739,,,,,AMP_prac,left,0.8654320516470762,,,,,,,,,,,,,,,,,,,,,6,,,left,0.6170626908933627,,,,,,,,,,,,,,1013,2019_May_16_1651,mf_amp_cond1,3.0.7,59.97774362248134,
corruption,,&&&&&&&&&&,images/symbols/symbol_72.png,condition_files/AMP_rep4.csv,right,sanctity.vice,,,,,,,,,,,,,,,,,,,,,0,1,1,3,0,30,30,30,,,,,,,,,,,,,1441.4577544405001,,,,,AMP_prac,left,0.8654320516470762,,,,,,,,,,,,,,,,,,,,,6,,,left,0.8318955826398451,,,,,,,,,,,,,,1013,2019_May_16_1651,mf_amp_cond1,3.0.7,59.97774362248134,
strength,,&&&&&&&&,images/symbols/symbol_59.png,condition_files/AMP_rep4.csv,left,sanctity.virtue,,,,,,,,,,,,,,,,,,,,,0,1,1,3,0,31,31,31,,,,,,,,,,,,,1442.2580295572516,,,,,AMP_prac,left,0.8654320516470762,,,,,,,,,,,,,,,,,,,,,6,,,right,0.5825874637448578,,,,,,,,,,,,,,1013,2019_May_16_1651,mf_amp_cond1,3.0.7,59.97774362248134,
spewd,,&&&&&,images/symbols/symbol_15.png,condition_files/AMP_rep4.csv,None,nonword,,,,,,,,,,,,,,,,,,,,,0,1,1,3,0,32,32,32,,,,,,,,,,,,,1442.9915261603055,,,,,AMP_prac,left,0.8654320516470762,,,,,,,,,,,,,,,,,,,,,6,,,left,0.5158249862324737,,,,,,,,,,,,,,1013,2019_May_16_1651,mf_amp_cond1,3.0.7,59.97774362248134,
praise,,&&&&&&,images/symbols/symbol_60.png,condition_files/AMP_rep4.csv,left,authority.virtue,,,,,,,,,,,,,,,,,,,,,0,1,1,3,0,33,33,33,,,,,,,,,,,,,1443.6583221855144,,,,,AMP_prac,left,0.8654320516470762,,,,,,,,,,,,,,,,,,,,,6,,,right,0.4490188903037051,,,,,,,,,,,,,,1013,2019_May_16_1651,mf_amp_cond1,3.0.7,59.97774362248134,
serial,,&&&&&&,images/symbols/symbol_9.png,condition_files/AMP_rep4.csv,right,sanctity.vice,,,,,,,,,,,,,,,,,,,,,0,1,1,3,0,34,34,34,,,,,,,,,,,,,1444.2751472201744,,,,,AMP_prac,left,0.8654320516470762,,,,,,,,,,,,,,,,,,,,,6,,,left,0.3986373734769586,,,,,,,,,,,,,,1013,2019_May_16_1651,mf_amp_cond1,3.0.7,59.97774362248134,
help,,&&&&,images/symbols/symbol_78.png,condition_files/AMP_rep4.csv,left,care.virtue,,,,,,,,,,,,,,,,,,,,,0,1,1,3,0,35,35,35,,,,,,,,,,,,,1445.0420138366608,,,,,AMP_prac,left,0.8654320516470762,,,,,,,,,,,,,,,,,,,,,6,,,left,0.5491228368409793,,,,,,,,,,,,,,1013,2019_May_16_1651,mf_amp_cond1,3.0.7,59.97774362248134,
rhailled,,&&&&&&&&,images/symbols/symbol_61.png,condition_files/AMP_rep4.csv,None,nonword,,,,,,,,,,,,,,,,,,,,,0,1,1,3,0,36,36,36,,,,,,,,,,,,,1445.8755502415224,,,,,AMP_prac,left,0.8654320516470762,,,,,,,,,,,,,,,,,,,,,6,,,left,0.615808019952965,,,,,,,,,,,,,,1013,2019_May_16_1651,mf_amp_cond1,3.0.7,59.97774362248134,
good,,&&&&,images/symbols/symbol_53.png,condition_files/AMP_rep4.csv,left,care.virtue,,,,,,,,,,,,,,,,,,,,,0,1,1,3,0,37,37,37,,,,,,,,,,,,,1446.6257555848424,,,,,AMP_prac,left,0.8654320516470762,,,,,,,,,,,,,,,,,,,,,6,,,left,0.5325388580749859,,,,,,,,,,,,,,1013,2019_May_16_1651,mf_amp_cond1,3.0.7,59.97774362248134,
benefit,,&&&&&&&,images/symbols/symbol_14.png,condition_files/AMP_rep4.csv,left,fairness.virtue,,,,,,,,,,,,,,,,,,,,,0,1,1,3,0,38,38,38,,,,,,,,,,,,,1447.5593237734174,,,,,AMP_prac,left,0.8654320516470762,,,,,,,,,,,,,,,,,,,,,6,,,right,0.7157811112374475,,,,,,,,,,,,,,1013,2019_May_16_1651,mf_amp_cond1,3.0.7,59.97774362248134,
increase,,&&&&&&&&,images/symbols/symbol_22.png,condition_files/AMP_rep4.csv,left,care.virtue,,,,,,,,,,,,,,,,,,,,,0,1,1,3,0,39,39,39,,,,,,,,,,,,,1448.326197766546,,,,,AMP_prac,left,0.8654320516470762,,,,,,,,,,,,,,,,,,,,,6,,,right,0.54915747499399,,,,,,,,,,,,,,1013,2019_May_16_1651,mf_amp_cond1,3.0.7,59.97774362248134,
honored,,&&&&&&&,images/symbols/symbol_64.png,condition_files/AMP_rep4.csv,left,authority.virtue,,,,,,,,,,,,,,,,,,,,,0,1,1,3,0,40,40,40,,,,,,,,,,,,,1449.1930810927297,,,,,AMP_prac,left,0.8654320516470762,,,,,,,,,,,,,,,,,,,,,6,,,left,0.649069308059552,,,,,,,,,,,,,,1013,2019_May_16_1651,mf_amp_cond1,3.0.7,59.97774362248134,
progress,,&&&&&&&&,images/symbols/symbol_34.png,condition_files/AMP_rep4.csv,left,authority.virtue,,,,,,,,,,,,,,,,,,,,,0,1,1,3,0,41,41,41,,,,,,,,,,,,,1449.8599188120133,,,,,AMP_prac,left,0.8654320516470762,,,,,,,,,,,,,,,,,,,,,6,,,right,0.44889861893170746,,,,,,,,,,,,,,1013,2019_May_16_1651,mf_amp_cond1,3.0.7,59.97774362248134,
cande,,&&&&&,images/symbols/symbol_3.png,condition_files/AMP_rep4.csv,None,nonword,,,,,,,,,,,,,,,,,,,,,0,1,1,3,0,42,42,42,,,,,,,,,,,,,1450.6766794453652,,,,,AMP_prac,left,0.8654320516470762,,,,,,,,,,,,,,,,,,,,,6,,,left,0.5988930543753668,,,,,,,,,,,,,,1013,2019_May_16_1651,mf_amp_cond1,3.0.7,59.97774362248134,
violence,,&&&&&&&&,images/symbols/symbol_49.png,condition_files/AMP_rep4.csv,right,care.vice,,,,,,,,,,,,,,,,,,,,,0,1,1,3,0,43,43,43,,,,,,,,,,,,,1451.5437321136415,,,,,AMP_prac,left,0.8654320516470762,,,,,,,,,,,,,,,,,,,,,6,,,left,0.6337749591148167,,,,,,,,,,,,,,1013,2019_May_16_1651,mf_amp_cond1,3.0.7,59.97774362248134,
injured,,&&&&&&&,images/symbols/symbol_13.png,condition_files/AMP_rep4.csv,right,care.vice,,,,,,,,,,,,,,,,,,,,,0,1,1,3,0,44,44,44,,,,,,,,,,,,,1452.2438747394517,,,,,AMP_prac,left,0.8654320516470762,,,,,,,,,,,,,,,,,,,,,6,,,right,0.48171281826944323,,,,,,,,,,,,,,1013,2019_May_16_1651,mf_amp_cond1,3.0.7,59.97774362248134,
daizz,,&&&&&,images/symbols/symbol_52.png,condition_files/AMP_rep4.csv,None,nonword,,,,,,,,,,,,,,,,,,,,,0,1,1,3,0,45,45,45,,,,,,,,,,,,,1452.9774117536872,,,,,AMP_prac,left,0.8654320516470762,,,,,,,,,,,,,,,,,,,,,6,,,right,0.5162893940832873,,,,,,,,,,,,,,1013,2019_May_16_1651,mf_amp_cond1,3.0.7,59.97774362248134,
victim,,&&&&&&,images/symbols/symbol_77.png,condition_files/AMP_rep4.csv,right,care.vice,,,,,,,,,,,,,,,,,,,,,0,1,1,3,0,46,46,46,,,,,,,,,,,,,1454.0777251327709,,,,,AMP_prac,left,0.8654320516470762,,,,,,,,,,,,,,,,,,,,,6,,,left,0.8827229053458723,,,,,,,,,,,,,,1013,2019_May_16_1651,mf_amp_cond1,3.0.7,59.97774362248134,
brored,,&&&&&&,images/symbols/symbol_75.png,condition_files/AMP_rep4.csv,None,nonword,,,,,,,,,,,,,,,,,,,,,0,1,1,3,0,47,47,47,,,,,,,,,,,,,1454.8445875798498,,,,,AMP_prac,left,0.8654320516470762,,,,,,,,,,,,,,,,,,,,,6,,,left,0.5490618993462704,,,,,,,,,,,,,,1013,2019_May_16_1651,mf_amp_cond1,3.0.7,59.97774362248134,
riot,,&&&&,images/symbols/symbol_33.png,condition_files/AMP_rep4.csv,right,authority.vice,,,,,,,,,,,,,,,,,,,,,0,1,1,3,0,48,48,48,,,,,,,,,,,,,1455.5947448146217,,,,,AMP_prac,left,0.8654320516470762,,,,,,,,,,,,,,,,,,,,,6,,,left,0.5326341130021319,,,,,,,,,,,,,,1013,2019_May_16_1651,mf_amp_cond1,3.0.7,59.97774362248134,
credit,,&&&&&&,images/symbols/symbol_45.png,condition_files/AMP_rep4.csv,left,fairness.virtue,,,,,,,,,,,,,,,,,,,,,0,1,1,3,0,49,49,49,,,,,,,,,,,,,1456.3449392533366,,,,,AMP_prac,left,0.8654320516470762,,,,,,,,,,,,,,,,,,,,,6,,,left,0.5319827232597163,,,,,,,,,,,,,,1013,2019_May_16_1651,mf_amp_cond1,3.0.7,59.97774362248134,
sexual,,&&&&&&,images/symbols/symbol_58.png,condition_files/AMP_rep4.csv,right,sanctity.vice,,,,,,,,,,,,,,,,,,,,,0,1,1,3,0,50,50,50,,,,,,,,,,,,,1457.09513689929,,,,,AMP_prac,left,0.8654320516470762,,,,,,,,,,,,,,,,,,,,,6,,,left,0.5325571393223072,,,,,,,,,,,,,,1013,2019_May_16_1651,mf_amp_cond1,3.0.7,59.97774362248134,
troops,,&&&&&&,images/symbols/symbol_43.png,condition_files/AMP_rep4.csv,right,loyalty.vice,,,,,,,,,,,,,,,,,,,,,0,1,1,3,0,51,51,51,,,,,,,,,,,,,1457.8454031801048,,,,,AMP_prac,left,0.8654320516470762,,,,,,,,,,,,,,,,,,,,,6,,,left,0.5171021078276681,,,,,,,,,,,,,,1013,2019_May_16_1651,mf_amp_cond1,3.0.7,59.97774362248134,
harassment,,&&&&&&&&&&,images/symbols/symbol_73.png,condition_files/AMP_rep4.csv,right,sanctity.vice,,,,,,,,,,,,,,,,,,,,,0,1,1,3,0,52,52,52,,,,,,,,,,,,,1458.7789040167117,,,,,AMP_prac,left,0.8654320516470762,,,,,,,,,,,,,,,,,,,,,6,,,right,0.7151980356320564,,,,,,,,,,,,,,1013,2019_May_16_1651,mf_amp_cond1,3.0.7,59.97774362248134,
health,,&&&&&&,images/symbols/symbol_20.png,condition_files/AMP_rep4.csv,left,care.virtue,,,,,,,,,,,,,,,,,,,,,0,1,1,3,0,53,53,53,,,,,,,,,,,,,1459.3290566972064,,,,,AMP_prac,left,0.8654320516470762,,,,,,,,,,,,,,,,,,,,,6,,,left,0.33292847317352425,,,,,,,,,,,,,,1013,2019_May_16_1651,mf_amp_cond1,3.0.7,59.97774362248134,
illegal,,&&&&&&&,images/symbols/symbol_12.png,condition_files/AMP_rep4.csv,right,fairness.vice,,,,,,,,,,,,,,,,,,,,,0,1,1,3,0,54,54,54,,,,,,,,,,,,,1460.4460024843247,,,,,AMP_prac,left,0.8654320516470762,,,,,,,,,,,,,,,,,,,,,6,,,right,0.8992109877362964,,,,,,,,,,,,,,1013,2019_May_16_1651,mf_amp_cond1,3.0.7,59.97774362248134,
stintz,,&&&&&&,images/symbols/symbol_79.png,condition_files/AMP_rep4.csv,None,nonword,,,,,,,,,,,,,,,,,,,,,0,1,1,3,0,55,55,55,,,,,,,,,,,,,1461.1461880871066,,,,,AMP_prac,left,0.8654320516470762,,,,,,,,,,,,,,,,,,,,,6,,,right,0.48240077050650143,,,,,,,,,,,,,,1013,2019_May_16_1651,mf_amp_cond1,3.0.7,59.97774362248134,
died,,&&&&,images/symbols/symbol_1.png,condition_files/AMP_rep4.csv,right,care.vice,,,,,,,,,,,,,,,,,,,,,0,1,1,3,0,56,56,56,,,,,,,,,,,,,1461.9797687518294,,,,,AMP_prac,left,0.8654320516470762,,,,,,,,,,,,,,,,,,,,,6,,,left,0.6157579870596237,,,,,,,,,,,,,,1013,2019_May_16_1651,mf_amp_cond1,3.0.7,59.97774362248134,
agreement,,&&&&&&&&&,images/symbols/symbol_10.png,condition_files/AMP_rep4.csv,left,fairness.virtue,,,,,,,,,,,,,,,,,,,,,0,1,1,3,0,57,57,57,,,,,,,,,,,,,1462.8299625811705,,,,,AMP_prac,left,0.8654320516470762,,,,,,,,,,,,,,,,,,,,,6,,,left,0.6326665381602652,,,,,,,,,,,,,,1013,2019_May_16_1651,mf_amp_cond1,3.0.7,59.97774362248134,
clean,,&&&&&,images/symbols/symbol_74.png,condition_files/AMP_rep4.csv,left,sanctity.virtue,,,,,,,,,,,,,,,,,,,,,0,1,1,3,0,58,58,58,,,,,,,,,,,,,1463.646823601026,,,,,AMP_prac,left,0.8654320516470762,,,,,,,,,,,,,,,,,,,,,6,,,left,0.5837180146299943,,,,,,,,,,,,,,1013,2019_May_16_1651,mf_amp_cond1,3.0.7,59.97774362248134,
violations,,&&&&&&&&&&,images/symbols/symbol_35.png,condition_files/AMP_rep4.csv,right,sanctity.vice,,,,,,,,,,,,,,,,,,,,,0,1,1,3,0,59,59,59,,,,,,,,,,,,,1464.563744628278,,,,,AMP_prac,left,0.8654320516470762,,,,,,,,,,,,,,,,,,,,,6,,,left,0.698677560154465,,,,,,,,,,,,,,1013,2019_May_16_1651,mf_amp_cond1,3.0.7,59.97774362248134,
pleasant,,&&&&&&&,images/symbols/symbol_57.png,condition_files/AMP_rep4.csv,right,control,,,,,,,,,,,,,,,,,,,,,0,1,1,3,0,60,60,60,,,,,,,,,,,,,1465.4139628326193,,,,,AMP_prac,left,0.8654320516470762,,,,,,,,,,,,,,,,,,,,,6,,,left,0.6170758405605739,,,,,,,,,,,,,,1013,2019_May_16_1651,mf_amp_cond1,3.0.7,59.97774362248134,
phlaizz,,&&&&&&&,images/symbols/symbol_65.png,condition_files/AMP_rep4.csv,None,nonword,,,,,,,,,,,,,,,,,,,,,0,1,1,3,0,61,61,61,,,,,,,,,,,,,1466.2141763704276,,,,,AMP_prac,left,0.8654320516470762,,,,,,,,,,,,,,,,,,,,,6,,,left,0.5819893141269858,,,,,,,,,,,,,,1013,2019_May_16_1651,mf_amp_cond1,3.0.7,59.97774362248134,
hate,,&&&&,images/symbols/symbol_42.png,condition_files/AMP_rep4.csv,right,fairness.vice,,,,,,,,,,,,,,,,,,,,,0,1,1,3,0,62,62,62,,,,,,,,,,,,,1466.9977109952742,,,,,AMP_prac,left,0.8654320516470762,,,,,,,,,,,,,,,,,,,,,6,,,left,0.565823879736854,,,,,,,,,,,,,,1013,2019_May_16_1651,mf_amp_cond1,3.0.7,59.97774362248134,
unpleasant,,&&&&&&&&&,images/symbols/symbol_56.png,condition_files/AMP_rep4.csv,left,control,,,,,,,,,,,,,,,,,,,,,0,1,1,3,0,63,63,63,,,,,,,,,,,,,1467.8145790710514,,,,,AMP_prac,left,0.8654320516470762,,,,,,,,,,,,,,,,,,,,,6,,,right,0.5989825362739793,,,,,,,,,,,,,,1013,2019_May_16_1651,mf_amp_cond1,3.0.7,59.97774362248134,
scrauld,,&&&&&&&,images/symbols/symbol_5.png,condition_files/AMP_rep4.csv,None,nonword,,,,,,,,,,,,,,,,,,,,,0,1,1,3,0,64,64,64,,,,,,,,,,,,,1468.6481299084735,,,,,AMP_prac,left,0.8654320516470762,,,,,,,,,,,,,,,,,,,,,6,,,right,0.6155738916822884,,,,,,,,,,,,,,1013,2019_May_16_1651,mf_amp_cond1,3.0.7,59.97774362248134,
voter,,&&&&&,images/symbols/symbol_38.png,condition_files/AMP_rep4.csv,right,fairness.vice,,,,,,,,,,,,,,,,,,,,,0,1,1,3,0,65,65,65,,,,,,,,,,,,,1469.4316722306867,,,,,AMP_prac,left,0.8654320516470762,,,,,,,,,,,,,,,,,,,,,6,,,right,0.5658639701941865,,,,,,,,,,,,,,1013,2019_May_16_1651,mf_amp_cond1,3.0.7,59.97774362248134,
torture,,&&&&&&&,images/symbols/symbol_66.png,condition_files/AMP_rep4.csv,right,care.vice,,,,,,,,,,,,,,,,,,,,,0,1,1,3,0,66,66,66,,,,,,,,,,,,,1470.248554097583,,,,,AMP_prac,left,0.8654320516470762,,,,,,,,,,,,,,,,,,,,,6,,,left,0.5992445675001363,,,,,,,,,,,,,,1013,2019_May_16_1651,mf_amp_cond1,3.0.7,59.97774362248134,
racist,,&&&&&&,images/symbols/symbol_19.png,condition_files/AMP_rep4.csv,right,sanctity.vice,,,,,,,,,,,,,,,,,,,,,0,1,1,3,0,67,67,67,,,,,,,,,,,,,1471.0154114130783,,,,,AMP_prac,left,0.8654320516470762,,,,,,,,,,,,,,,,,,,,,6,,,left,0.5490734453960613,,,,,,,,,,,,,,1013,2019_May_16_1651,mf_amp_cond1,3.0.7,59.97774362248134,
love,,&&&&,images/symbols/symbol_25.png,condition_files/AMP_rep4.csv,left,loyalty.virtue,,,,,,,,,,,,,,,,,,,,,0,1,1,3,0,68,68,68,,,,,,,,,,,,,1471.8822892869648,,,,,AMP_prac,left,0.8654320516470762,,,,,,,,,,,,,,,,,,,,,6,,,right,0.6491440366735333,,,,,,,,,,,,,,1013,2019_May_16_1651,mf_amp_cond1,3.0.7,59.97774362248134,
drug,,&&&&,images/symbols/symbol_8.png,condition_files/AMP_rep4.csv,right,sanctity.vice,,,,,,,,,,,,,,,,,,,,,0,1,1,3,0,69,69,69,,,,,,,,,,,,,1472.7992096727685,,,,,AMP_prac,left,0.8654320516470762,,,,,,,,,,,,,,,,,,,,,6,,,left,0.6987086703484238,,,,,,,,,,,,,,1013,2019_May_16_1651,mf_amp_cond1,3.0.7,59.97774362248134,
kuntz,,&&&&&,images/symbols/symbol_39.png,condition_files/AMP_rep4.csv,None,nonword,,,,,,,,,,,,,,,,,,,,,0,1,1,3,0,70,70,70,,,,,,,,,,,,,1473.7327752955534,,,,,AMP_prac,left,0.8654320516470762,,,,,,,,,,,,,,,,,,,,,6,,,right,0.7158375586004695,,,,,,,,,,,,,,1013,2019_May_16_1651,mf_amp_cond1,3.0.7,59.97774362248134,
charges,,&&&&&&&,images/symbols/symbol_24.png,condition_files/AMP_rep4.csv,right,fairness.vice,,,,,,,,,,,,,,,,,,,,,0,1,1,3,0,71,71,71,,,,,,,,,,,,,1474.482994750717,,,,,AMP_prac,left,0.8654320516470762,,,,,,,,,,,,,,,,,,,,,6,,,left,0.5170629795393324,,,,,,,,,,,,,,1013,2019_May_16_1651,mf_amp_cond1,3.0.7,59.97774362248134,
slavery,,&&&&&&&,images/symbols/symbol_62.png,condition_files/AMP_rep4.csv,right,loyalty.vice,,,,,,,,,,,,,,,,,,,,,0,1,1,3,0,72,72,72,,,,,,,,,,,,,1475.5499297775568,,,,,AMP_prac,left,0.8654320516470762,,,,,,,,,,,,,,,,,,,,,6,,,left,0.8337868900380272,,,,,,,,,,,,,,1013,2019_May_16_1651,mf_amp_cond1,3.0.7,59.97774362248134,
cifte,,&&&&&,images/symbols/symbol_2.png,condition_files/AMP_rep4.csv,None,nonword,,,,,,,,,,,,,,,,,,,,,0,1,1,3,0,73,73,73,,,,,,,,,,,,,1476.283477054949,,,,,AMP_prac,left,0.8654320516470762,,,,,,,,,,,,,,,,,,,,,6,,,left,0.5152807181912067,,,,,,,,,,,,,,1013,2019_May_16_1651,mf_amp_cond1,3.0.7,59.97774362248134,
blamed,,&&&&&&,images/symbols/symbol_23.png,condition_files/AMP_rep4.csv,right,loyalty.vice,,,,,,,,,,,,,,,,,,,,,0,1,1,3,0,74,74,74,,,,,,,,,,,,,1477.0669869840713,,,,,AMP_prac,left,0.8654320516470762,,,,,,,,,,,,,,,,,,,,,6,,,left,0.5656487646192545,,,,,,,,,,,,,,1013,2019_May_16_1651,mf_amp_cond1,3.0.7,59.97774362248134,
fighters,,&&&&&&&&,images/symbols/symbol_11.png,condition_files/AMP_rep4.csv,right,authority.vice,,,,,,,,,,,,,,,,,,,,,0,1,1,3,0,75,75,75,,,,,,,,,,,,,1477.8838932259641,,,,,AMP_prac,left,0.8654320516470762,,,,,,,,,,,,,,,,,,,,,6,,,left,0.5991964589557028,,,,,,,,,,,,,,1013,2019_May_16_1651,mf_amp_cond1,3.0.7,59.97774362248134,
promises,,&&&&&&&&,images/symbols/symbol_71.png,condition_files/AMP_rep4.csv,left,fairness.virtue,,,,,,,,,,,,,,,,,,,,,0,1,1,3,0,76,76,76,,,,,,,,,,,,,1478.667271658389,,,,,AMP_prac,left,0.8654320516470762,,,,,,,,,,,,,,,,,,,,,6,,,left,0.5502633301584865,,,,,,,,,,,,,,1013,2019_May_16_1651,mf_amp_cond1,3.0.7,59.97774362248134,
crime,,&&&&&,images/symbols/symbol_26.png,condition_files/AMP_rep4.csv,right,fairness.vice,,,,,,,,,,,,,,,,,,,,,0,1,1,3,0,77,77,77,,,,,,,,,,,,,1479.4009250953095,,,,,AMP_prac,left,0.8654320516470762,,,,,,,,,,,,,,,,,,,,,6,,,left,0.5151011129419203,,,,,,,,,,,,,,1013,2019_May_16_1651,mf_amp_cond1,3.0.7,59.97774362248134,
loyalty,,&&&&&&&,images/symbols/symbol_29.png,condition_files/AMP_rep4.csv,left,loyalty.virtue,,,,,,,,,,,,,,,,,,,,,0,1,1,3,0,78,78,78,,,,,,,,,,,,,1480.2011229176605,,,,,AMP_prac,left,0.8654320516470762,,,,,,,,,,,,,,,,,,,,,6,,,left,0.5821916907552804,,,,,,,,,,,,,,1013,2019_May_16_1651,mf_amp_cond1,3.0.7,59.97774362248134,
commitment,,&&&&&&&&&&,images/symbols/symbol_69.png,condition_files/AMP_rep4.csv,left,sanctity.virtue,,,,,,,,,,,,,,,,,,,,,0,1,1,3,0,79,79,79,,,,,,,,,,,,,1480.918008280445,,,,,AMP_prac,left,0.8654320516470762,,,,,,,,,,,,,,,,,,,,,6,,,left,0.49888821144850226,,,,,,,,,,,,,,1013,2019_May_16_1651,mf_amp_cond1,3.0.7,59.97774362248134,
critics,,&&&&&&&,images/symbols/symbol_30.png,condition_files/AMP_rep4.csv,right,loyalty.vice,,,,,,,,,,,,,,,,,,,,,0,1,1,3,0,80,80,80,,,,,,,,,,,,,1481.7515305734632,,,,,AMP_prac,left,0.8654320516470762,,,,,,,,,,,,,,,,,,,,,6,,,right,0.6160424689442152,,,,,,,,,,,,,,1013,2019_May_16_1651,mf_amp_cond1,3.0.7,59.97774362248134,
prosecution,,&&&&&&&&&&&,images/symbols/symbol_46.png,condition_files/AMP_rep4.csv,right,authority.vice,,,,,,,,,,,,,,,,,,,,,0,1,1,3,0,81,81,81,,,,,,,,,,,,,1482.5850791658231,,,,,AMP_prac,left,0.8654320516470762,,,,,,,,,,,,,,,,,,,,,6,,,right,0.6158801827732532,,,,,,,,,,,,,,1013,2019_May_16_1651,mf_amp_cond1,3.0.7,59.97774362248134,
,,,,condition_files/AMP_rep4.csv,,,,,,,,,,,,,,,,,,,,,,,0,1,1,3,,,,,,,,,,,,,,,,,,,,,,,,,,,,,,,,,,,,,,,,,,,,,,,,,,right,3.401153129827435,,,,,,,,,,,,1013,2019_May_16_1651,mf_amp_cond1,3.0.7,59.97774362248134,
army,,&&&&,images/symbols/symbol_7.png,condition_files/AMP_rep1.csv,right,loyalty.vice,,,,,,,,,,,,,,,,,,,,,0,2,2,0,0,0,0,0,,,,,,,,,,,,,1486.9196648181241,,,,,AMP_prac,left,0.8654320516470762,,,,,,,,,,,,,,,,,,,,,6,,,right,0.6824120599776506,,,,,,,,,,,,,,1013,2019_May_16_1651,mf_amp_cond1,3.0.7,59.97774362248134,
celebrated,,&&&&&&&&&&,images/symbols/symbol_76.png,condition_files/AMP_rep1.csv,left,authority.virtue,,,,,,,,,,,,,,,,,,,,,0,2,2,0,0,1,1,1,,,,,,,,,,,,,1487.6030505951203,,,,,AMP_prac,left,0.8654320516470762,,,,,,,,,,,,,,,,,,,,,6,,,right,0.4662735022320703,,,,,,,,,,,,,,1013,2019_May_16_1651,mf_amp_cond1,3.0.7,59.97774362248134,
ban,,&&&,images/symbols/symbol_55.png,condition_files/AMP_rep1.csv,right,loyalty.vice,,,,,,,,,,,,,,,,,,,,,0,2,2,0,0,2,2,2,,,,,,,,,,,,,1488.419918991618,,,,,AMP_prac,left,0.8654320516470762,,,,,,,,,,,,,,,,,,,,,6,,,left,0.5837112794324639,,,,,,,,,,,,,,1013,2019_May_16_1651,mf_amp_cond1,3.0.7,59.97774362248134,
party,,&&&&&,images/symbols/symbol_68.png,condition_files/AMP_rep1.csv,left,loyalty.virtue,,,,,,,,,,,,,,,,,,,,,0,2,2,0,0,3,3,3,,,,,,,,,,,,,1489.2034831230412,,,,,AMP_prac,left,0.8654320516470762,,,,,,,,,,,,,,,,,,,,,6,,,left,0.5504179189592833,,,,,,,,,,,,,,1013,2019_May_16_1651,mf_amp_cond1,3.0.7,59.97774362248134,
friends,,&&&&&&&,images/symbols/symbol_17.png,condition_files/AMP_rep1.csv,left,loyalty.virtue,,,,,,,,,,,,,,,,,,,,,0,2,2,0,0,4,4,4,,,,,,,,,,,,,1489.97031862933,,,,,AMP_prac,left,0.8654320516470762,,,,,,,,,,,,,,,,,,,,,6,,,left,0.5484945391981455,,,,,,,,,,,,,,1013,2019_May_16_1651,mf_amp_cond1,3.0.7,59.97774362248134,
safety,,&&&&&&,images/symbols/symbol_82.png,condition_files/AMP_rep1.csv,left,care.virtue,,,,,,,,,,,,,,,,,,,,,0,2,2,0,0,5,5,5,,,,,,,,,,,,,1490.720520444691,,,,,AMP_prac,left,0.8654320516470762,,,,,,,,,,,,,,,,,,,,,6,,,left,0.5328226985111542,,,,,,,,,,,,,,1013,2019_May_16_1651,mf_amp_cond1,3.0.7,59.97774362248134,
opportunity,,&&&&&&&&&&&,images/symbols/symbol_32.png,condition_files/AMP_rep1.csv,left,fairness.virtue,,,,,,,,,,,,,,,,,,,,,0,2,2,0,0,6,6,6,,,,,,,,,,,,,1491.487385136832,,,,,AMP_prac,left,0.8654320516470762,,,,,,,,,,,,,,,,,,,,,6,,,left,0.5490028861931933,,,,,,,,,,,,,,1013,2019_May_16_1651,mf_amp_cond1,3.0.7,59.97774362248134,
win,,&&&,images/symbols/symbol_6.png,condition_files/AMP_rep1.csv,left,fairness.virtue,,,,,,,,,,,,,,,,,,,,,0,2,2,0,0,7,7,7,,,,,,,,,,,,,1492.3042631550416,,,,,AMP_prac,left,0.8654320516470762,,,,,,,,,,,,,,,,,,,,,6,,,right,0.5837228254858928,,,,,,,,,,,,,,1013,2019_May_16_1651,mf_amp_cond1,3.0.7,59.97774362248134,
hand,,&&&&,images/symbols/symbol_21.png,condition_files/AMP_rep1.csv,left,sanctity.virtue,,,,,,,,,,,,,,,,,,,,,0,2,2,0,0,8,8,8,,,,,,,,,,,,,1493.1544807179343,,,,,AMP_prac,left,0.8654320516470762,,,,,,,,,,,,,,,,,,,,,6,,,right,0.6321472865638498,,,,,,,,,,,,,,1013,2019_May_16_1651,mf_amp_cond1,3.0.7,59.97774362248134,
betrayal,,&&&&&&&&,images/symbols/symbol_31.png,condition_files/AMP_rep1.csv,right,loyalty.vice,,,,,,,,,,,,,,,,,,,,,0,2,2,0,0,9,9,9,,,,,,,,,,,,,1494.0213707793155,,,,,AMP_prac,left,0.8654320516470762,,,,,,,,,,,,,,,,,,,,,6,,,left,0.6499929921883449,,,,,,,,,,,,,,1013,2019_May_16_1651,mf_amp_cond1,3.0.7,59.97774362248134,
protect,,&&&&&&&,images/symbols/symbol_41.png,condition_files/AMP_rep1.csv,left,fairness.virtue,,,,,,,,,,,,,,,,,,,,,0,2,2,0,0,10,10,10,,,,,,,,,,,,,1494.738340171698,,,,,AMP_prac,left,0.8654320516470762,,,,,,,,,,,,,,,,,,,,,6,,,right,0.49972690380673157,,,,,,,,,,,,,,1013,2019_May_16_1651,mf_amp_cond1,3.0.7,59.97774362248134,
restore,,&&&&&&&,images/symbols/symbol_36.png,condition_files/AMP_rep1.csv,left,care.virtue,,,,,,,,,,,,,,,,,,,,,0,2,2,0,0,11,11,11,,,,,,,,,,,,,1495.821836085197,,,,,AMP_prac,left,0.8654320516470762,,,,,,,,,,,,,,,,,,,,,6,,,right,0.8659981288983545,,,,,,,,,,,,,,1013,2019_May_16_1651,mf_amp_cond1,3.0.7,59.97774362248134,
police,,&&&&&&,images/symbols/symbol_80.png,condition_files/AMP_rep1.csv,right,authority.vice,,,,,,,,,,,,,,,,,,,,,0,2,2,0,0,12,12,12,,,,,,,,,,,,,1496.55536059121,,,,,AMP_prac,left,0.8654320516470762,,,,,,,,,,,,,,,,,,,,,6,,,right,0.5162143447487324,,,,,,,,,,,,,,1013,2019_May_16_1651,mf_amp_cond1,3.0.7,59.97774362248134,
death,,&&&&&,images/symbols/symbol_51.png,condition_files/AMP_rep1.csv,right,care.vice,,,,,,,,,,,,,,,,,,,,,0,2,2,0,0,13,13,13,,,,,,,,,,,,,1497.5556267918437,,,,,AMP_prac,left,0.8654320516470762,,,,,,,,,,,,,,,,,,,,,6,,,left,0.7671052348850935,,,,,,,,,,,,,,1013,2019_May_16_1651,mf_amp_cond1,3.0.7,59.97774362248134,
refused,,&&&&&&&,images/symbols/symbol_27.png,condition_files/AMP_rep1.csv,right,authority.vice,,,,,,,,,,,,,,,,,,,,,0,2,2,0,0,14,14,14,,,,,,,,,,,,,1498.3224821830008,,,,,AMP_prac,left,0.8654320516470762,,,,,,,,,,,,,,,,,,,,,6,,,left,0.5483399503937108,,,,,,,,,,,,,,1013,2019_May_16_1651,mf_amp_cond1,3.0.7,59.97774362248134,
strong,,&&&&&&,images/symbols/symbol_67.png,condition_files/AMP_rep1.csv,left,loyalty.virtue,,,,,,,,,,,,,,,,,,,,,0,2,2,0,0,15,15,15,,,,,,,,,,,,,1499.0893520067184,,,,,AMP_prac,left,0.8654320516470762,,,,,,,,,,,,,,,,,,,,,6,,,left,0.5489948680988164,,,,,,,,,,,,,,1013,2019_May_16_1651,mf_amp_cond1,3.0.7,59.97774362248134,
threatened,,&&&&&&&&&&,images/symbols/symbol_47.png,condition_files/AMP_rep1.csv,right,fairness.vice,,,,,,,,,,,,,,,,,,,,,0,2,2,0,0,16,16,16,,,,,,,,,,,,,1499.8062476326595,,,,,AMP_prac,left,0.8654320516470762,,,,,,,,,,,,,,,,,,,,,6,,,left,0.49912843346828595,,,,,,,,,,,,,,1013,2019_May_16_1651,mf_amp_cond1,3.0.7,59.97774362248134,
gun,,&&&,images/symbols/symbol_63.png,condition_files/AMP_rep1.csv,right,authority.vice,,,,,,,,,,,,,,,,,,,,,0,2,2,0,0,17,17,17,,,,,,,,,,,,,1500.5231285053087,,,,,AMP_prac,left,0.8654320516470762,,,,,,,,,,,,,,,,,,,,,6,,,left,0.49938982324601966,,,,,,,,,,,,,,1013,2019_May_16_1651,mf_amp_cond1,3.0.7,59.97774362248134,
promised,,&&&&&&&&,images/symbols/symbol_16.png,condition_files/AMP_rep1.csv,left,loyalty.virtue,,,,,,,,,,,,,,,,,,,,,0,2,2,0,0,18,18,18,,,,,,,,,,,,,1501.3732796784025,,,,,AMP_prac,left,0.8654320516470762,,,,,,,,,,,,,,,,,,,,,6,,,left,0.6327759049308952,,,,,,,,,,,,,,1013,2019_May_16_1651,mf_amp_cond1,3.0.7,59.97774362248134,
promote,,&&&&&&&,images/symbols/symbol_28.png,condition_files/AMP_rep1.csv,left,sanctity.virtue,,,,,,,,,,,,,,,,,,,,,0,2,2,0,0,19,19,19,,,,,,,,,,,,,1502.2235010899785,,,,,AMP_prac,left,0.8654320516470762,,,,,,,,,,,,,,,,,,,,,6,,,left,0.6326088079076726,,,,,,,,,,,,,,1013,2019_May_16_1651,mf_amp_cond1,3.0.7,59.97774362248134,
energy,,&&&&&&,images/symbols/symbol_50.png,condition_files/AMP_rep1.csv,left,sanctity.virtue,,,,,,,,,,,,,,,,,,,,,0,2,2,0,0,20,20,20,,,,,,,,,,,,,1503.0570493616142,,,,,AMP_prac,left,0.8654320516470762,,,,,,,,,,,,,,,,,,,,,6,,,left,0.6159157830988988,,,,,,,,,,,,,,1013,2019_May_16_1651,mf_amp_cond1,3.0.7,59.97774362248134,
improve,,&&&&&&&,images/symbols/symbol_4.png,condition_files/AMP_rep1.csv,left,care.virtue,,,,,,,,,,,,,,,,,,,,,0,2,2,0,0,21,21,21,,,,,,,,,,,,,1503.8405798170534,,,,,AMP_prac,left,0.8654320516470762,,,,,,,,,,,,,,,,,,,,,6,,,left,0.5657292662581312,,,,,,,,,,,,,,1013,2019_May_16_1651,mf_amp_cond1,3.0.7,59.97774362248134,
respect,,&&&&&&&,images/symbols/symbol_70.png,condition_files/AMP_rep1.csv,left,sanctity.virtue,,,,,,,,,,,,,,,,,,,,,0,2,2,0,0,22,22,22,,,,,,,,,,,,,1504.5907662376776,,,,,AMP_prac,left,0.8654320516470762,,,,,,,,,,,,,,,,,,,,,6,,,right,0.5324987676212913,,,,,,,,,,,,,,1013,2019_May_16_1651,mf_amp_cond1,3.0.7,59.97774362248134,
ability,,&&&&&&&,images/symbols/symbol_44.png,condition_files/AMP_rep1.csv,left,authority.virtue,,,,,,,,,,,,,,,,,,,,,0,2,2,0,0,23,23,23,,,,,,,,,,,,,1505.4243186787207,,,,,AMP_prac,left,0.8654320516470762,,,,,,,,,,,,,,,,,,,,,6,,,right,0.6155982666823547,,,,,,,,,,,,,,1013,2019_May_16_1651,mf_amp_cond1,3.0.7,59.97774362248134,
trust,,&&&&&,images/symbols/symbol_18.png,condition_files/AMP_rep1.csv,left,authority.virtue,,,,,,,,,,,,,,,,,,,,,0,2,2,0,0,24,24,24,,,,,,,,,,,,,1506.157891614006,,,,,AMP_prac,left,0.8654320516470762,,,,,,,,,,,,,,,,,,,,,6,,,right,0.5004408346612763,,,,,,,,,,,,,,1013,2019_May_16_1651,mf_amp_cond1,3.0.7,59.97774362248134,
civilians,,&&&&&&&&&,images/symbols/symbol_81.png,condition_files/AMP_rep1.csv,right,care.vice,,,,,,,,,,,,,,,,,,,,,0,2,2,0,0,25,25,25,,,,,,,,,,,,,1506.991403323147,,,,,AMP_prac,left,0.8654320516470762,,,,,,,,,,,,,,,,,,,,,6,,,left,0.6151489328403841,,,,,,,,,,,,,,1013,2019_May_16_1651,mf_amp_cond1,3.0.7,59.97774362248134,
great,,&&&&&,images/symbols/symbol_40.png,condition_files/AMP_rep1.csv,left,loyalty.virtue,,,,,,,,,,,,,,,,,,,,,0,2,2,0,0,26,26,26,,,,,,,,,,,,,1507.6915953403986,,,,,AMP_prac,left,0.8654320516470762,,,,,,,,,,,,,,,,,,,,,6,,,right,0.4823353428837436,,,,,,,,,,,,,,1013,2019_May_16_1651,mf_amp_cond1,3.0.7,59.97774362248134,
penalty,,&&&&&&&,images/symbols/symbol_48.png,condition_files/AMP_rep1.csv,right,authority.vice,,,,,,,,,,,,,,,,,,,,,0,2,2,0,0,27,27,27,,,,,,,,,,,,,1508.441653150836,,,,,AMP_prac,left,0.8654320516470762,,,,,,,,,,,,,,,,,,,,,6,,,right,0.532353479804442,,,,,,,,,,,,,,1013,2019_May_16_1651,mf_amp_cond1,3.0.7,59.97774362248134,
useful,,&&&&&&,images/symbols/symbol_37.png,condition_files/AMP_rep1.csv,left,authority.virtue,,,,,,,,,,,,,,,,,,,,,0,2,2,0,0,28,28,28,,,,,,,,,,,,,1509.0919543584569,,,,,AMP_prac,left,0.8654320516470762,,,,,,,,,,,,,,,,,,,,,6,,,left,0.4323139987245668,,,,,,,,,,,,,,1013,2019_May_16_1651,mf_amp_cond1,3.0.7,59.97774362248134,
lies,,&&&&,images/symbols/symbol_54.png,condition_files/AMP_rep1.csv,right,fairness.vice,,,,,,,,,,,,,,,,,,,,,0,2,2,0,0,29,29,29,,,,,,,,,,,,,1509.975507617346,,,,,AMP_prac,left,0.8654320516470762,,,,,,,,,,,,,,,,,,,,,6,,,left,0.6504051220872498,,,,,,,,,,,,,,1013,2019_May_16_1651,mf_amp_cond1,3.0.7,59.97774362248134,
corruption,,&&&&&&&&&&,images/symbols/symbol_72.png,condition_files/AMP_rep1.csv,right,sanctity.vice,,,,,,,,,,,,,,,,,,,,,0,2,2,0,0,30,30,30,,,,,,,,,,,,,1510.7757747160067,,,,,AMP_prac,left,0.8654320516470762,,,,,,,,,,,,,,,,,,,,,6,,,left,0.581878023022,,,,,,,,,,,,,,1013,2019_May_16_1651,mf_amp_cond1,3.0.7,59.97774362248134,
strength,,&&&&&&&&,images/symbols/symbol_59.png,condition_files/AMP_rep1.csv,left,sanctity.virtue,,,,,,,,,,,,,,,,,,,,,0,2,2,0,0,31,31,31,,,,,,,,,,,,,1511.5259139902555,,,,,AMP_prac,left,0.8654320516470762,,,,,,,,,,,,,,,,,,,,,6,,,left,0.5325180110376095,,,,,,,,,,,,,,1013,2019_May_16_1651,mf_amp_cond1,3.0.7,59.97774362248134,
spewd,,&&&&&,images/symbols/symbol_15.png,condition_files/AMP_rep1.csv,None,nonword,,,,,,,,,,,,,,,,,,,,,0,2,2,0,0,32,32,32,,,,,,,,,,,,,1512.259447476532,,,,,AMP_prac,left,0.8654320516470762,,,,,,,,,,,,,,,,,,,,,6,,,left,0.5156710388801002,,,,,,,,,,,,,,1013,2019_May_16_1651,mf_amp_cond1,3.0.7,59.97774362248134,
praise,,&&&&&&,images/symbols/symbol_60.png,condition_files/AMP_rep1.csv,left,authority.virtue,,,,,,,,,,,,,,,,,,,,,0,2,2,0,0,33,33,33,,,,,,,,,,,,,1513.0429705553252,,,,,AMP_prac,left,0.8654320516470762,,,,,,,,,,,,,,,,,,,,,6,,,right,0.5657914866460487,,,,,,,,,,,,,,1013,2019_May_16_1651,mf_amp_cond1,3.0.7,59.97774362248134,
serial,,&&&&&&,images/symbols/symbol_9.png,condition_files/AMP_rep1.csv,right,sanctity.vice,,,,,,,,,,,,,,,,,,,,,0,2,2,0,0,34,34,34,,,,,,,,,,,,,1513.959874263499,,,,,AMP_prac,left,0.8654320516470762,,,,,,,,,,,,,,,,,,,,,6,,,left,0.6990188101190142,,,,,,,,,,,,,,1013,2019_May_16_1651,mf_amp_cond1,3.0.7,59.97774362248134,
help,,&&&&,images/symbols/symbol_78.png,condition_files/AMP_rep1.csv,left,care.virtue,,,,,,,,,,,,,,,,,,,,,0,2,2,0,0,35,35,35,,,,,,,,,,,,,1514.8434425964006,,,,,AMP_prac,left,0.8654320516470762,,,,,,,,,,,,,,,,,,,,,6,,,left,0.6655933114998334,,,,,,,,,,,,,,1013,2019_May_16_1651,mf_amp_cond1,3.0.7,59.97774362248134,
rhailled,,&&&&&&&&,images/symbols/symbol_61.png,condition_files/AMP_rep1.csv,None,nonword,,,,,,,,,,,,,,,,,,,,,0,2,2,0,0,36,36,36,,,,,,,,,,,,,1515.8603723152628,,,,,AMP_prac,left,0.8654320516470762,,,,,,,,,,,,,,,,,,,,,6,,,left,0.7992783076297201,,,,,,,,,,,,,,1013,2019_May_16_1651,mf_amp_cond1,3.0.7,59.97774362248134,
good,,&&&&,images/symbols/symbol_53.png,condition_files/AMP_rep1.csv,left,care.virtue,,,,,,,,,,,,,,,,,,,,,0,2,2,0,0,37,37,37,,,,,,,,,,,,,1516.9771926994326,,,,,AMP_prac,left,0.8654320516470762,,,,,,,,,,,,,,,,,,,,,6,,,right,0.8991635206366482,,,,,,,,,,,,,,1013,2019_May_16_1651,mf_amp_cond1,3.0.7,59.97774362248134,
benefit,,&&&&&&&,images/symbols/symbol_14.png,condition_files/AMP_rep1.csv,left,fairness.virtue,,,,,,,,,,,,,,,,,,,,,0,2,2,0,0,38,38,38,,,,,,,,,,,,,1517.777571089202,,,,,AMP_prac,left,0.8654320516470762,,,,,,,,,,,,,,,,,,,,,6,,,right,0.5824627022448112,,,,,,,,,,,,,,1013,2019_May_16_1651,mf_amp_cond1,3.0.7,59.97774362248134,
increase,,&&&&&&&&,images/symbols/symbol_22.png,condition_files/AMP_rep1.csv,left,care.virtue,,,,,,,,,,,,,,,,,,,,,0,2,2,0,0,39,39,39,,,,,,,,,,,,,1518.5610701137193,,,,,AMP_prac,left,0.8654320516470762,,,,,,,,,,,,,,,,,,,,,6,,,right,0.5658565935482329,,,,,,,,,,,,,,1013,2019_May_16_1651,mf_amp_cond1,3.0.7,59.97774362248134,
honored,,&&&&&&&,images/symbols/symbol_64.png,condition_files/AMP_rep1.csv,left,authority.virtue,,,,,,,,,,,,,,,,,,,,,0,2,2,0,0,40,40,40,,,,,,,,,,,,,1519.427949270499,,,,,AMP_prac,left,0.8654320516470762,,,,,,,,,,,,,,,,,,,,,6,,,left,0.6489968245150521,,,,,,,,,,,,,,1013,2019_May_16_1651,mf_amp_cond1,3.0.7,59.97774362248134,
progress,,&&&&&&&&,images/symbols/symbol_34.png,condition_files/AMP_rep1.csv,left,authority.virtue,,,,,,,,,,,,,,,,,,,,,0,2,2,0,0,41,41,41,,,,,,,,,,,,,1520.1114671856412,,,,,AMP_prac,left,0.8654320516470762,,,,,,,,,,,,,,,,,,,,,6,,,right,0.4656272440661269,,,,,,,,,,,,,,1013,2019_May_16_1651,mf_amp_cond1,3.0.7,59.97774362248134,
cande,,&&&&&,images/symbols/symbol_3.png,condition_files/AMP_rep1.csv,None,nonword,,,,,,,,,,,,,,,,,,,,,0,2,2,0,0,42,42,42,,,,,,,,,,,,,1520.9448887714316,,,,,AMP_prac,left,0.8654320516470762,,,,,,,,,,,,,,,,,,,,,6,,,right,0.6156325841111538,,,,,,,,,,,,,,1013,2019_May_16_1651,mf_amp_cond1,3.0.7,59.97774362248134,
violence,,&&&&&&&&,images/symbols/symbol_49.png,condition_files/AMP_rep1.csv,right,care.vice,,,,,,,,,,,,,,,,,,,,,0,2,2,0,0,43,43,43,,,,,,,,,,,,,1521.6785723563808,,,,,AMP_prac,left,0.8654320516470762,,,,,,,,,,,,,,,,,,,,,6,,,right,0.5004369859816507,,,,,,,,,,,,,,1013,2019_May_16_1651,mf_amp_cond1,3.0.7,59.97774362248134,
injured,,&&&&&&&,images/symbols/symbol_13.png,condition_files/AMP_rep1.csv,right,care.vice,,,,,,,,,,,,,,,,,,,,,0,2,2,0,0,44,44,44,,,,,,,,,,,,,1522.4620697772807,,,,,AMP_prac,left,0.8654320516470762,,,,,,,,,,,,,,,,,,,,,6,,,left,0.5651795459125424,,,,,,,,,,,,,,1013,2019_May_16_1651,mf_amp_cond1,3.0.7,59.97774362248134,
daizz,,&&&&&,images/symbols/symbol_52.png,condition_files/AMP_rep1.csv,None,nonword,,,,,,,,,,,,,,,,,,,,,0,2,2,0,0,45,45,45,,,,,,,,,,,,,1523.2622781835125,,,,,AMP_prac,left,0.8654320516470762,,,,,,,,,,,,,,,,,,,,,6,,,left,0.5829190920085239,,,,,,,,,,,,,,1013,2019_May_16_1651,mf_amp_cond1,3.0.7,59.97774362248134,
victim,,&&&&&&,images/symbols/symbol_77.png,condition_files/AMP_rep1.csv,right,care.vice,,,,,,,,,,,,,,,,,,,,,0,2,2,0,0,46,46,46,,,,,,,,,,,,,1523.9457989851653,,,,,AMP_prac,left,0.8654320516470762,,,,,,,,,,,,,,,,,,,,,6,,,left,0.4658103772708273,,,,,,,,,,,,,,1013,2019_May_16_1651,mf_amp_cond1,3.0.7,59.97774362248134,
brored,,&&&&&&,images/symbols/symbol_75.png,condition_files/AMP_rep1.csv,None,nonword,,,,,,,,,,,,,,,,,,,,,0,2,2,0,0,47,47,47,,,,,,,,,,,,,1524.6959879715796,,,,,AMP_prac,left,0.8654320516470762,,,,,,,,,,,,,,,,,,,,,6,,,left,0.5325208975518763,,,,,,,,,,,,,,1013,2019_May_16_1651,mf_amp_cond1,3.0.7,59.97774362248134,
riot,,&&&&,images/symbols/symbol_33.png,condition_files/AMP_rep1.csv,right,authority.vice,,,,,,,,,,,,,,,,,,,,,0,2,2,0,0,48,48,48,,,,,,,,,,,,,1525.3295207843366,,,,,AMP_prac,left,0.8654320516470762,,,,,,,,,,,,,,,,,,,,,6,,,left,0.4158701761953125,,,,,,,,,,,,,,1013,2019_May_16_1651,mf_amp_cond1,3.0.7,59.97774362248134,
credit,,&&&&&&,images/symbols/symbol_45.png,condition_files/AMP_rep1.csv,left,fairness.virtue,,,,,,,,,,,,,,,,,,,,,0,2,2,0,0,49,49,49,,,,,,,,,,,,,1526.1297282283958,,,,,AMP_prac,left,0.8654320516470762,,,,,,,,,,,,,,,,,,,,,6,,,left,0.5824880394138745,,,,,,,,,,,,,,1013,2019_May_16_1651,mf_amp_cond1,3.0.7,59.97774362248134,
sexual,,&&&&&&,images/symbols/symbol_58.png,condition_files/AMP_rep1.csv,right,sanctity.vice,,,,,,,,,,,,,,,,,,,,,0,2,2,0,0,50,50,50,,,,,,,,,,,,,1526.9132237249542,,,,,AMP_prac,left,0.8654320516470762,,,,,,,,,,,,,,,,,,,,,6,,,left,0.5654062975372653,,,,,,,,,,,,,,1013,2019_May_16_1651,mf_amp_cond1,3.0.7,59.97774362248134,
troops,,&&&&&&,images/symbols/symbol_43.png,condition_files/AMP_rep1.csv,right,loyalty.vice,,,,,,,,,,,,,,,,,,,,,0,2,2,0,0,51,51,51,,,,,,,,,,,,,1527.9634987615245,,,,,AMP_prac,left,0.8654320516470762,,,,,,,,,,,,,,,,,,,,,6,,,left,0.8171089392417343,,,,,,,,,,,,,,1013,2019_May_16_1651,mf_amp_cond1,3.0.7,59.97774362248134,
harassment,,&&&&&&&&&&,images/symbols/symbol_73.png,condition_files/AMP_rep1.csv,right,sanctity.vice,,,,,,,,,,,,,,,,,,,,,0,2,2,0,0,52,52,52,,,,,,,,,,,,,1528.7304516526747,,,,,AMP_prac,left,0.8654320516470762,,,,,,,,,,,,,,,,,,,,,6,,,left,0.548592039191135,,,,,,,,,,,,,,1013,2019_May_16_1651,mf_amp_cond1,3.0.7,59.97774362248134,
health,,&&&&&&,images/symbols/symbol_20.png,condition_files/AMP_rep1.csv,left,care.virtue,,,,,,,,,,,,,,,,,,,,,0,2,2,0,0,53,53,53,,,,,,,,,,,,,1529.580586789587,,,,,AMP_prac,left,0.8654320516470762,,,,,,,,,,,,,,,,,,,,,6,,,right,0.6319384954658744,,,,,,,,,,,,,,1013,2019_May_16_1651,mf_amp_cond1,3.0.7,59.97774362248134,
illegal,,&&&&&&&,images/symbols/symbol_12.png,condition_files/AMP_rep1.csv,right,fairness.vice,,,,,,,,,,,,,,,,,,,,,0,2,2,0,0,54,54,54,,,,,,,,,,,,,1530.464183025444,,,,,AMP_prac,left,0.8654320516470762,,,,,,,,,,,,,,,,,,,,,6,,,left,0.6657581634608505,,,,,,,,,,,,,,1013,2019_May_16_1651,mf_amp_cond1,3.0.7,59.97774362248134,
stintz,,&&&&&&,images/symbols/symbol_79.png,condition_files/AMP_rep1.csv,None,nonword,,,,,,,,,,,,,,,,,,,,,0,2,2,0,0,55,55,55,,,,,,,,,,,,,1531.314379099851,,,,,AMP_prac,left,0.8654320516470762,,,,,,,,,,,,,,,,,,,,,6,,,left,0.6323580020070949,,,,,,,,,,,,,,1013,2019_May_16_1651,mf_amp_cond1,3.0.7,59.97774362248134,
died,,&&&&,images/symbols/symbol_1.png,condition_files/AMP_rep1.csv,right,care.vice,,,,,,,,,,,,,,,,,,,,,0,2,2,0,0,56,56,56,,,,,,,,,,,,,1532.064601120801,,,,,AMP_prac,left,0.8654320516470762,,,,,,,,,,,,,,,,,,,,,6,,,left,0.5323752890108153,,,,,,,,,,,,,,1013,2019_May_16_1651,mf_amp_cond1,3.0.7,59.97774362248134,
agreement,,&&&&&&&&&,images/symbols/symbol_10.png,condition_files/AMP_rep1.csv,left,fairness.virtue,,,,,,,,,,,,,,,,,,,,,0,2,2,0,0,57,57,57,,,,,,,,,,,,,1532.7980932337268,,,,,AMP_prac,left,0.8654320516470762,,,,,,,,,,,,,,,,,,,,,6,,,left,0.5160113266756525,,,,,,,,,,,,,,1013,2019_May_16_1651,mf_amp_cond1,3.0.7,59.97774362248134,
clean,,&&&&&,images/symbols/symbol_74.png,condition_files/AMP_rep1.csv,left,sanctity.virtue,,,,,,,,,,,,,,,,,,,,,0,2,2,0,0,58,58,58,,,,,,,,,,,,,1534.33194385155,,,,,AMP_prac,left,0.8654320516470762,,,,,,,,,,,,,,,,,,,,,6,,,left,1.3005828510977153,,,,,,,,,,,,,,1013,2019_May_16_1651,mf_amp_cond1,3.0.7,59.97774362248134,
violations,,&&&&&&&&&&,images/symbols/symbol_35.png,condition_files/AMP_rep1.csv,right,sanctity.vice,,,,,,,,,,,,,,,,,,,,,0,2,2,0,0,59,59,59,,,,,,,,,,,,,1535.082017056724,,,,,AMP_prac,left,0.8654320516470762,,,,,,,,,,,,,,,,,,,,,6,,,right,0.5322187758683867,,,,,,,,,,,,,,1013,2019_May_16_1651,mf_amp_cond1,3.0.7,59.97774362248134,
pleasant,,&&&&&&&,images/symbols/symbol_57.png,condition_files/AMP_rep1.csv,right,control,,,,,,,,,,,,,,,,,,,,,0,2,2,0,0,60,60,60,,,,,,,,,,,,,1536.0155916597723,,,,,AMP_prac,left,0.8654320516470762,,,,,,,,,,,,,,,,,,,,,6,,,left,0.7004232590079482,,,,,,,,,,,,,,1013,2019_May_16_1651,mf_amp_cond1,3.0.7,59.97774362248134,
phlaizz,,&&&&&&&,images/symbols/symbol_65.png,condition_files/AMP_rep1.csv,None,nonword,,,,,,,,,,,,,,,,,,,,,0,2,2,0,0,61,61,61,,,,,,,,,,,,,1537.1492253401193,,,,,AMP_prac,left,0.8654320516470762,,,,,,,,,,,,,,,,,,,,,6,,,left,0.9153802708096919,,,,,,,,,,,,,,1013,2019_May_16_1651,mf_amp_cond1,3.0.7,59.97774362248134,
hate,,&&&&,images/symbols/symbol_42.png,condition_files/AMP_rep1.csv,right,fairness.vice,,,,,,,,,,,,,,,,,,,,,0,2,2,0,0,62,62,62,,,,,,,,,,,,,1537.9660959816865,,,,,AMP_prac,left,0.8654320516470762,,,,,,,,,,,,,,,,,,,,,6,,,left,0.5991409737616777,,,,,,,,,,,,,,1013,2019_May_16_1651,mf_amp_cond1,3.0.7,59.97774362248134,
unpleasant,,&&&&&&&&&,images/symbols/symbol_56.png,condition_files/AMP_rep1.csv,left,control,,,,,,,,,,,,,,,,,,,,,0,2,2,0,0,63,63,63,,,,,,,,,,,,,1538.649606840907,,,,,AMP_prac,left,0.8654320516470762,,,,,,,,,,,,,,,,,,,,,6,,,right,0.46574911905190675,,,,,,,,,,,,,,1013,2019_May_16_1651,mf_amp_cond1,3.0.7,59.97774362248134,
scrauld,,&&&&&&&,images/symbols/symbol_5.png,condition_files/AMP_rep1.csv,None,nonword,,,,,,,,,,,,,,,,,,,,,0,2,2,0,0,64,64,64,,,,,,,,,,,,,1539.5665156806608,,,,,AMP_prac,left,0.8654320516470762,,,,,,,,,,,,,,,,,,,,,6,,,left,0.6991794926725561,,,,,,,,,,,,,,1013,2019_May_16_1651,mf_amp_cond1,3.0.7,59.97774362248134,
voter,,&&&&&,images/symbols/symbol_38.png,condition_files/AMP_rep1.csv,right,fairness.vice,,,,,,,,,,,,,,,,,,,,,0,2,2,0,0,65,65,65,,,,,,,,,,,,,1540.233355324286,,,,,AMP_prac,left,0.8654320516470762,,,,,,,,,,,,,,,,,,,,,6,,,right,0.4491728376560786,,,,,,,,,,,,,,1013,2019_May_16_1651,mf_amp_cond1,3.0.7,59.97774362248134,
torture,,&&&&&&&,images/symbols/symbol_66.png,condition_files/AMP_rep1.csv,right,care.vice,,,,,,,,,,,,,,,,,,,,,0,2,2,0,0,66,66,66,,,,,,,,,,,,,1540.9502483844335,,,,,AMP_prac,left,0.8654320516470762,,,,,,,,,,,,,,,,,,,,,6,,,left,0.4993051522033056,,,,,,,,,,,,,,1013,2019_May_16_1651,mf_amp_cond1,3.0.7,59.97774362248134,
racist,,&&&&&&,images/symbols/symbol_19.png,condition_files/AMP_rep1.csv,right,sanctity.vice,,,,,,,,,,,,,,,,,,,,,0,2,2,0,0,67,67,67,,,,,,,,,,,,,1541.9504571755351,,,,,AMP_prac,left,0.8654320516470762,,,,,,,,,,,,,,,,,,,,,6,,,left,0.7824432022462133,,,,,,,,,,,,,,1013,2019_May_16_1651,mf_amp_cond1,3.0.7,59.97774362248134,
love,,&&&&,images/symbols/symbol_25.png,condition_files/AMP_rep1.csv,left,loyalty.virtue,,,,,,,,,,,,,,,,,,,,,0,2,2,0,0,68,68,68,,,,,,,,,,,,,1542.6839868131246,,,,,AMP_prac,left,0.8654320516470762,,,,,,,,,,,,,,,,,,,,,6,,,right,0.5157210717698035,,,,,,,,,,,,,,1013,2019_May_16_1651,mf_amp_cond1,3.0.7,59.97774362248134,
drug,,&&&&,images/symbols/symbol_8.png,condition_files/AMP_rep1.csv,right,sanctity.vice,,,,,,,,,,,,,,,,,,,,,0,2,2,0,0,69,69,69,,,,,,,,,,,,,1543.4342046646707,,,,,AMP_prac,left,0.8654320516470762,,,,,,,,,,,,,,,,,,,,,6,,,left,0.5323974189450382,,,,,,,,,,,,,,1013,2019_May_16_1651,mf_amp_cond1,3.0.7,59.97774362248134,
kuntz,,&&&&&,images/symbols/symbol_39.png,condition_files/AMP_rep1.csv,None,nonword,,,,,,,,,,,,,,,,,,,,,0,2,2,0,0,70,70,70,,,,,,,,,,,,,1544.2343822814291,,,,,AMP_prac,left,0.8654320516470762,,,,,,,,,,,,,,,,,,,,,6,,,left,0.5819533930807665,,,,,,,,,,,,,,1013,2019_May_16_1651,mf_amp_cond1,3.0.7,59.97774362248134,
charges,,&&&&&&&,images/symbols/symbol_24.png,condition_files/AMP_rep1.csv,right,fairness.vice,,,,,,,,,,,,,,,,,,,,,0,2,2,0,0,71,71,71,,,,,,,,,,,,,1545.0012569160062,,,,,AMP_prac,left,0.8654320516470762,,,,,,,,,,,,,,,,,,,,,6,,,right,0.5337082165206084,,,,,,,,,,,,,,1013,2019_May_16_1651,mf_amp_cond1,3.0.7,59.97774362248134,
slavery,,&&&&&&&,images/symbols/symbol_62.png,condition_files/AMP_rep1.csv,right,loyalty.vice,,,,,,,,,,,,,,,,,,,,,0,2,2,0,0,72,72,72,,,,,,,,,,,,,1545.6347438652774,,,,,AMP_prac,left,0.8654320516470762,,,,,,,,,,,,,,,,,,,,,6,,,left,0.4003455476668023,,,,,,,,,,,,,,1013,2019_May_16_1651,mf_amp_cond1,3.0.7,59.97774362248134,
cifte,,&&&&&,images/symbols/symbol_2.png,condition_files/AMP_rep1.csv,None,nonword,,,,,,,,,,,,,,,,,,,,,0,2,2,0,0,73,73,73,,,,,,,,,,,,,1546.3182454235139,,,,,AMP_prac,left,0.8654320516470762,,,,,,,,,,,,,,,,,,,,,6,,,right,0.46535783619401627,,,,,,,,,,,,,,1013,2019_May_16_1651,mf_amp_cond1,3.0.7,59.97774362248134,
blamed,,&&&&&&,images/symbols/symbol_23.png,condition_files/AMP_rep1.csv,right,loyalty.vice,,,,,,,,,,,,,,,,,,,,,0,2,2,0,0,74,74,74,,,,,,,,,,,,,1546.918418806723,,,,,AMP_prac,left,0.8654320516470762,,,,,,,,,,,,,,,,,,,,,6,,,left,0.38228624008843326,,,,,,,,,,,,,,1013,2019_May_16_1651,mf_amp_cond1,3.0.7,59.97774362248134,
fighters,,&&&&&&&&,images/symbols/symbol_11.png,condition_files/AMP_rep1.csv,right,authority.vice,,,,,,,,,,,,,,,,,,,,,0,2,2,0,0,75,75,75,,,,,,,,,,,,,1547.5352480107904,,,,,AMP_prac,left,0.8654320516470762,,,,,,,,,,,,,,,,,,,,,6,,,right,0.39885514483830775,,,,,,,,,,,,,,1013,2019_May_16_1651,mf_amp_cond1,3.0.7,59.97774362248134,
promises,,&&&&&&&&,images/symbols/symbol_71.png,condition_files/AMP_rep1.csv,left,fairness.virtue,,,,,,,,,,,,,,,,,,,,,0,2,2,0,0,76,76,76,,,,,,,,,,,,,1548.1187258034042,,,,,AMP_prac,left,0.8654320516470762,,,,,,,,,,,,,,,,,,,,,6,,,left,0.3503232413349906,,,,,,,,,,,,,,1013,2019_May_16_1651,mf_amp_cond1,3.0.7,59.97774362248134,
crime,,&&&&&,images/symbols/symbol_26.png,condition_files/AMP_rep1.csv,right,fairness.vice,,,,,,,,,,,,,,,,,,,,,0,2,2,0,0,77,77,77,,,,,,,,,,,,,1548.7688923070891,,,,,AMP_prac,left,0.8654320516470762,,,,,,,,,,,,,,,,,,,,,6,,,left,0.4317639576547663,,,,,,,,,,,,,,1013,2019_May_16_1651,mf_amp_cond1,3.0.7,59.97774362248134,
loyalty,,&&&&&&&,images/symbols/symbol_29.png,condition_files/AMP_rep1.csv,left,loyalty.virtue,,,,,,,,,,,,,,,,,,,,,0,2,2,0,0,78,78,78,,,,,,,,,,,,,1549.769157866278,,,,,AMP_prac,left,0.8654320516470762,,,,,,,,,,,,,,,,,,,,,6,,,left,0.7823864341589797,,,,,,,,,,,,,,1013,2019_May_16_1651,mf_amp_cond1,3.0.7,59.97774362248134,
commitment,,&&&&&&&&&&,images/symbols/symbol_69.png,condition_files/AMP_rep1.csv,left,sanctity.virtue,,,,,,,,,,,,,,,,,,,,,0,2,2,0,0,79,79,79,,,,,,,,,,,,,1550.5193436454538,,,,,AMP_prac,left,0.8654320516470762,,,,,,,,,,,,,,,,,,,,,6,,,left,0.532240585078398,,,,,,,,,,,,,,1013,2019_May_16_1651,mf_amp_cond1,3.0.7,59.97774362248134,
critics,,&&&&&&&,images/symbols/symbol_30.png,condition_files/AMP_rep1.csv,right,loyalty.vice,,,,,,,,,,,,,,,,,,,,,0,2,2,0,0,80,80,80,,,,,,,,,,,,,1551.2528687929153,,,,,AMP_prac,left,0.8654320516470762,,,,,,,,,,,,,,,,,,,,,6,,,right,0.5159491062840971,,,,,,,,,,,,,,1013,2019_May_16_1651,mf_amp_cond1,3.0.7,59.97774362248134,
prosecution,,&&&&&&&&&&&,images/symbols/symbol_46.png,condition_files/AMP_rep1.csv,right,authority.vice,,,,,,,,,,,,,,,,,,,,,0,2,2,0,0,81,81,81,,,,,,,,,,,,,1552.1364749712084,,,,,AMP_prac,left,0.8654320516470762,,,,,,,,,,,,,,,,,,,,,6,,,right,0.6658598328576772,,,,,,,,,,,,,,1013,2019_May_16_1651,mf_amp_cond1,3.0.7,59.97774362248134,
,,,,condition_files/AMP_rep1.csv,,,,,,,,,,,,,,,,,,,,,,,0,2,2,0,,,,,,,,,,,,,,,,,,,,,,,,,,,,,,,,,,,,,,,,,,,,,,,,,,right,3.151047050479974,,,,,,,,,,,,1013,2019_May_16_1651,mf_amp_cond1,3.0.7,59.97774362248134,
army,,&&&&,images/symbols/symbol_7.png,condition_files/AMP_rep2.csv,right,loyalty.vice,,,,,,,,,,,,,,,,,,,,,0,3,3,1,0,0,0,0,,,,,,,,,,,,,1556.504414600753,,,,,AMP_prac,left,0.8654320516470762,,,,,,,,,,,,,,,,,,,,,6,,,right,0.9827078634043573,,,,,,,,,,,,,,1013,2019_May_16_1651,mf_amp_cond1,3.0.7,59.97774362248134,
celebrated,,&&&&&&&&&&,images/symbols/symbol_76.png,condition_files/AMP_rep2.csv,left,authority.virtue,,,,,,,,,,,,,,,,,,,,,0,3,3,1,0,1,1,1,,,,,,,,,,,,,1557.2544278306013,,,,,AMP_prac,left,0.8654320516470762,,,,,,,,,,,,,,,,,,,,,6,,,right,0.532895182059292,,,,,,,,,,,,,,1013,2019_May_16_1651,mf_amp_cond1,3.0.7,59.97774362248134,
ban,,&&&,images/symbols/symbol_55.png,condition_files/AMP_rep2.csv,right,loyalty.vice,,,,,,,,,,,,,,,,,,,,,0,3,3,1,0,2,2,2,,,,,,,,,,,,,1558.1046463556668,,,,,AMP_prac,left,0.8654320516470762,,,,,,,,,,,,,,,,,,,,,6,,,right,0.6170665395729884,,,,,,,,,,,,,,1013,2019_May_16_1651,mf_amp_cond1,3.0.7,59.97774362248134,
party,,&&&&&,images/symbols/symbol_68.png,condition_files/AMP_rep2.csv,left,loyalty.virtue,,,,,,,,,,,,,,,,,,,,,0,3,3,1,0,3,3,3,,,,,,,,,,,,,1558.9048788161708,,,,,AMP_prac,left,0.8654320516470762,,,,,,,,,,,,,,,,,,,,,6,,,left,0.5670846444263589,,,,,,,,,,,,,,1013,2019_May_16_1651,mf_amp_cond1,3.0.7,59.97774362248134,
friends,,&&&&&&&,images/symbols/symbol_17.png,condition_files/AMP_rep2.csv,left,loyalty.virtue,,,,,,,,,,,,,,,,,,,,,0,3,3,1,0,4,4,4,,,,,,,,,,,,,1559.6217516707293,,,,,AMP_prac,left,0.8654320516470762,,,,,,,,,,,,,,,,,,,,,6,,,left,0.4985277180603589,,,,,,,,,,,,,,1013,2019_May_16_1651,mf_amp_cond1,3.0.7,59.97774362248134,
safety,,&&&&&&,images/symbols/symbol_82.png,condition_files/AMP_rep2.csv,left,care.virtue,,,,,,,,,,,,,,,,,,,,,0,3,3,1,0,5,5,5,,,,,,,,,,,,,1560.3386796897576,,,,,AMP_prac,left,0.8654320516470762,,,,,,,,,,,,,,,,,,,,,6,,,left,0.49955788244187715,,,,,,,,,,,,,,1013,2019_May_16_1651,mf_amp_cond1,3.0.7,59.97774362248134,
opportunity,,&&&&&&&&&&&,images/symbols/symbol_32.png,condition_files/AMP_rep2.csv,left,fairness.virtue,,,,,,,,,,,,,,,,,,,,,0,3,3,1,0,6,6,6,,,,,,,,,,,,,1561.0387376445215,,,,,AMP_prac,left,0.8654320516470762,,,,,,,,,,,,,,,,,,,,,6,,,left,0.4823982047200843,,,,,,,,,,,,,,1013,2019_May_16_1651,mf_amp_cond1,3.0.7,59.97774362248134,
win,,&&&,images/symbols/symbol_6.png,condition_files/AMP_rep2.csv,left,fairness.virtue,,,,,,,,,,,,,,,,,,,,,0,3,3,1,0,7,7,7,,,,,,,,,,,,,1561.7889407427756,,,,,AMP_prac,left,0.8654320516470762,,,,,,,,,,,,,,,,,,,,,6,,,right,0.5170418117777444,,,,,,,,,,,,,,1013,2019_May_16_1651,mf_amp_cond1,3.0.7,59.97774362248134,
hand,,&&&&,images/symbols/symbol_21.png,condition_files/AMP_rep2.csv,left,sanctity.virtue,,,,,,,,,,,,,,,,,,,,,0,3,3,1,0,8,8,8,,,,,,,,,,,,,1562.4724625066046,,,,,AMP_prac,left,0.8654320516470762,,,,,,,,,,,,,,,,,,,,,6,,,right,0.4653873427705548,,,,,,,,,,,,,,1013,2019_May_16_1651,mf_amp_cond1,3.0.7,59.97774362248134,
betrayal,,&&&&&&&&,images/symbols/symbol_31.png,condition_files/AMP_rep2.csv,right,loyalty.vice,,,,,,,,,,,,,,,,,,,,,0,3,3,1,0,9,9,9,,,,,,,,,,,,,1563.139300867333,,,,,AMP_prac,left,0.8654320516470762,,,,,,,,,,,,,,,,,,,,,6,,,right,0.4499441780462803,,,,,,,,,,,,,,1013,2019_May_16_1651,mf_amp_cond1,3.0.7,59.97774362248134,
protect,,&&&&&&&,images/symbols/symbol_41.png,condition_files/AMP_rep2.csv,left,fairness.virtue,,,,,,,,,,,,,,,,,,,,,0,3,3,1,0,10,10,10,,,,,,,,,,,,,1563.8394986576095,,,,,AMP_prac,left,0.8654320516470762,,,,,,,,,,,,,,,,,,,,,6,,,right,0.48293862407808774,,,,,,,,,,,,,,1013,2019_May_16_1651,mf_amp_cond1,3.0.7,59.97774362248134,
restore,,&&&&&&&,images/symbols/symbol_36.png,condition_files/AMP_rep2.csv,left,care.virtue,,,,,,,,,,,,,,,,,,,,,0,3,3,1,0,11,11,11,,,,,,,,,,,,,1564.5229819345986,,,,,AMP_prac,left,0.8654320516470762,,,,,,,,,,,,,,,,,,,,,6,,,right,0.46590050061786314,,,,,,,,,,,,,,1013,2019_May_16_1651,mf_amp_cond1,3.0.7,59.97774362248134,
police,,&&&&&&,images/symbols/symbol_80.png,condition_files/AMP_rep2.csv,right,authority.vice,,,,,,,,,,,,,,,,,,,,,0,3,3,1,0,12,12,12,,,,,,,,,,,,,1565.1898183709854,,,,,AMP_prac,left,0.8654320516470762,,,,,,,,,,,,,,,,,,,,,6,,,right,0.4495240300602745,,,,,,,,,,,,,,1013,2019_May_16_1651,mf_amp_cond1,3.0.7,59.97774362248134,
death,,&&&&&,images/symbols/symbol_51.png,condition_files/AMP_rep2.csv,right,care.vice,,,,,,,,,,,,,,,,,,,,,0,3,3,1,0,13,13,13,,,,,,,,,,,,,1566.0567068287528,,,,,AMP_prac,left,0.8654320516470762,,,,,,,,,,,,,,,,,,,,,6,,,left,0.6337425660240115,,,,,,,,,,,,,,1013,2019_May_16_1651,mf_amp_cond1,3.0.7,59.97774362248134,
refused,,&&&&&&&,images/symbols/symbol_27.png,condition_files/AMP_rep2.csv,right,authority.vice,,,,,,,,,,,,,,,,,,,,,0,3,3,1,0,14,14,14,,,,,,,,,,,,,1566.7404348178898,,,,,AMP_prac,left,0.8654320516470762,,,,,,,,,,,,,,,,,,,,,6,,,left,0.46538670132213156,,,,,,,,,,,,,,1013,2019_May_16_1651,mf_amp_cond1,3.0.7,59.97774362248134,
strong,,&&&&&&,images/symbols/symbol_67.png,condition_files/AMP_rep2.csv,left,loyalty.virtue,,,,,,,,,,,,,,,,,,,,,0,3,3,1,0,15,15,15,,,,,,,,,,,,,1567.4571210112808,,,,,AMP_prac,left,0.8654320516470762,,,,,,,,,,,,,,,,,,,,,6,,,left,0.4990472903846239,,,,,,,,,,,,,,1013,2019_May_16_1651,mf_amp_cond1,3.0.7,59.97774362248134,
threatened,,&&&&&&&&&&,images/symbols/symbol_47.png,condition_files/AMP_rep2.csv,right,fairness.vice,,,,,,,,,,,,,,,,,,,,,0,3,3,1,0,16,16,16,,,,,,,,,,,,,1568.1238974723456,,,,,AMP_prac,left,0.8654320516470762,,,,,,,,,,,,,,,,,,,,,6,,,left,0.44893742649583146,,,,,,,,,,,,,,1013,2019_May_16_1651,mf_amp_cond1,3.0.7,59.97774362248134,
gun,,&&&,images/symbols/symbol_63.png,condition_files/AMP_rep2.csv,right,authority.vice,,,,,,,,,,,,,,,,,,,,,0,3,3,1,0,17,17,17,,,,,,,,,,,,,1568.824097828412,,,,,AMP_prac,left,0.8654320516470762,,,,,,,,,,,,,,,,,,,,,6,,,left,0.48253900240160874,,,,,,,,,,,,,,1013,2019_May_16_1651,mf_amp_cond1,3.0.7,59.97774362248134,
promised,,&&&&&&&&,images/symbols/symbol_16.png,condition_files/AMP_rep2.csv,left,loyalty.virtue,,,,,,,,,,,,,,,,,,,,,0,3,3,1,0,18,18,18,,,,,,,,,,,,,1569.4575976066335,,,,,AMP_prac,left,0.8654320516470762,,,,,,,,,,,,,,,,,,,,,6,,,left,0.41605876170797274,,,,,,,,,,,,,,1013,2019_May_16_1651,mf_amp_cond1,3.0.7,59.97774362248134,
promote,,&&&&&&&,images/symbols/symbol_28.png,condition_files/AMP_rep2.csv,left,sanctity.virtue,,,,,,,,,,,,,,,,,,,,,0,3,3,1,0,19,19,19,,,,,,,,,,,,,1570.2411165160192,,,,,AMP_prac,left,0.8654320516470762,,,,,,,,,,,,,,,,,,,,,6,,,left,0.5659107958490495,,,,,,,,,,,,,,1013,2019_May_16_1651,mf_amp_cond1,3.0.7,59.97774362248134,
energy,,&&&&&&,images/symbols/symbol_50.png,condition_files/AMP_rep2.csv,left,sanctity.virtue,,,,,,,,,,,,,,,,,,,,,0,3,3,1,0,20,20,20,,,,,,,,,,,,,1570.9079683471427,,,,,AMP_prac,left,0.8654320516470762,,,,,,,,,,,,,,,,,,,,,6,,,left,0.44917123403865844,,,,,,,,,,,,,,1013,2019_May_16_1651,mf_amp_cond1,3.0.7,59.97774362248134,
improve,,&&&&&&&,images/symbols/symbol_4.png,condition_files/AMP_rep2.csv,left,care.virtue,,,,,,,,,,,,,,,,,,,,,0,3,3,1,0,21,21,21,,,,,,,,,,,,,1571.5581467176016,,,,,AMP_prac,left,0.8654320516470762,,,,,,,,,,,,,,,,,,,,,6,,,left,0.43239353818717063,,,,,,,,,,,,,,1013,2019_May_16_1651,mf_amp_cond1,3.0.7,59.97774362248134,
respect,,&&&&&&&,images/symbols/symbol_70.png,condition_files/AMP_rep2.csv,left,sanctity.virtue,,,,,,,,,,,,,,,,,,,,,0,3,3,1,0,22,22,22,,,,,,,,,,,,,1572.458357080246,,,,,AMP_prac,left,0.8654320516470762,,,,,,,,,,,,,,,,,,,,,6,,,right,0.6825628000951838,,,,,,,,,,,,,,1013,2019_May_16_1651,mf_amp_cond1,3.0.7,59.97774362248134,
ability,,&&&&&&&,images/symbols/symbol_44.png,condition_files/AMP_rep2.csv,left,authority.virtue,,,,,,,,,,,,,,,,,,,,,0,3,3,1,0,23,23,23,,,,,,,,,,,,,1573.1585805284194,,,,,AMP_prac,left,0.8654320516470762,,,,,,,,,,,,,,,,,,,,,6,,,right,0.48240012905807816,,,,,,,,,,,,,,1013,2019_May_16_1651,mf_amp_cond1,3.0.7,59.97774362248134,
trust,,&&&&&,images/symbols/symbol_18.png,condition_files/AMP_rep2.csv,left,authority.virtue,,,,,,,,,,,,,,,,,,,,,0,3,3,1,0,24,24,24,,,,,,,,,,,,,1573.8253929105304,,,,,AMP_prac,left,0.8654320516470762,,,,,,,,,,,,,,,,,,,,,6,,,right,0.433695355503005,,,,,,,,,,,,,,1013,2019_May_16_1651,mf_amp_cond1,3.0.7,59.97774362248134,
civilians,,&&&&&&&&&,images/symbols/symbol_81.png,condition_files/AMP_rep2.csv,right,care.vice,,,,,,,,,,,,,,,,,,,,,0,3,3,1,0,25,25,25,,,,,,,,,,,,,1574.4588817841468,,,,,AMP_prac,left,0.8654320516470762,,,,,,,,,,,,,,,,,,,,,6,,,right,0.4151036466610094,,,,,,,,,,,,,,1013,2019_May_16_1651,mf_amp_cond1,3.0.7,59.97774362248134,
great,,&&&&&,images/symbols/symbol_40.png,condition_files/AMP_rep2.csv,left,loyalty.virtue,,,,,,,,,,,,,,,,,,,,,0,3,3,1,0,26,26,26,,,,,,,,,,,,,1575.209079109376,,,,,AMP_prac,left,0.8654320516470762,,,,,,,,,,,,,,,,,,,,,6,,,left,0.532368553813285,,,,,,,,,,,,,,1013,2019_May_16_1651,mf_amp_cond1,3.0.7,59.97774362248134,
penalty,,&&&&&&&,images/symbols/symbol_48.png,condition_files/AMP_rep2.csv,right,authority.vice,,,,,,,,,,,,,,,,,,,,,0,3,3,1,0,27,27,27,,,,,,,,,,,,,1575.8425881885814,,,,,AMP_prac,left,0.8654320516470762,,,,,,,,,,,,,,,,,,,,,6,,,left,0.4157707518643292,,,,,,,,,,,,,,1013,2019_May_16_1651,mf_amp_cond1,3.0.7,59.97774362248134,
useful,,&&&&&&,images/symbols/symbol_37.png,condition_files/AMP_rep2.csv,left,authority.virtue,,,,,,,,,,,,,,,,,,,,,0,3,3,1,0,28,28,28,,,,,,,,,,,,,1576.4760754585805,,,,,AMP_prac,left,0.8654320516470762,,,,,,,,,,,,,,,,,,,,,6,,,left,0.4156466318090679,,,,,,,,,,,,,,1013,2019_May_16_1651,mf_amp_cond1,3.0.7,59.97774362248134,
lies,,&&&&,images/symbols/symbol_54.png,condition_files/AMP_rep2.csv,right,fairness.vice,,,,,,,,,,,,,,,,,,,,,0,3,3,1,0,29,29,29,,,,,,,,,,,,,1577.1261245774076,,,,,AMP_prac,left,0.8654320516470762,,,,,,,,,,,,,,,,,,,,,6,,,left,0.4321529954431753,,,,,,,,,,,,,,1013,2019_May_16_1651,mf_amp_cond1,3.0.7,59.97774362248134,
corruption,,&&&&&&&&&&,images/symbols/symbol_72.png,condition_files/AMP_rep2.csv,right,sanctity.vice,,,,,,,,,,,,,,,,,,,,,0,3,3,1,0,30,30,30,,,,,,,,,,,,,1577.7764097488434,,,,,AMP_prac,left,0.8654320516470762,,,,,,,,,,,,,,,,,,,,,6,,,left,0.4323265069433546,,,,,,,,,,,,,,1013,2019_May_16_1651,mf_amp_cond1,3.0.7,59.97774362248134,
strength,,&&&&&&&&,images/symbols/symbol_59.png,condition_files/AMP_rep2.csv,left,sanctity.virtue,,,,,,,,,,,,,,,,,,,,,0,3,3,1,0,31,31,31,,,,,,,,,,,,,1578.4265810633842,,,,,AMP_prac,left,0.8654320516470762,,,,,,,,,,,,,,,,,,,,,6,,,left,0.43246217304840684,,,,,,,,,,,,,,1013,2019_May_16_1651,mf_amp_cond1,3.0.7,59.97774362248134,
spewd,,&&&&&,images/symbols/symbol_15.png,condition_files/AMP_rep2.csv,None,nonword,,,,,,,,,,,,,,,,,,,,,0,3,3,1,0,32,32,32,,,,,,,,,,,,,1579.1100867910282,,,,,AMP_prac,left,0.8654320516470762,,,,,,,,,,,,,,,,,,,,,6,,,left,0.46576675885444274,,,,,,,,,,,,,,1013,2019_May_16_1651,mf_amp_cond1,3.0.7,59.97774362248134,
praise,,&&&&&&,images/symbols/symbol_60.png,condition_files/AMP_rep2.csv,left,authority.virtue,,,,,,,,,,,,,,,,,,,,,0,3,3,1,0,33,33,33,,,,,,,,,,,,,1579.760260671359,,,,,AMP_prac,left,0.8654320516470762,,,,,,,,,,,,,,,,,,,,,6,,,left,0.43234799542915425,,,,,,,,,,,,,,1013,2019_May_16_1651,mf_amp_cond1,3.0.7,59.97774362248134,
serial,,&&&&&&,images/symbols/symbol_9.png,condition_files/AMP_rep2.csv,right,sanctity.vice,,,,,,,,,,,,,,,,,,,,,0,3,3,1,0,34,34,34,,,,,,,,,,,,,1580.3770863474674,,,,,AMP_prac,left,0.8654320516470762,,,,,,,,,,,,,,,,,,,,,6,,,left,0.39891672378143994,,,,,,,,,,,,,,1013,2019_May_16_1651,mf_amp_cond1,3.0.7,59.97774362248134,
help,,&&&&,images/symbols/symbol_78.png,condition_files/AMP_rep2.csv,left,care.virtue,,,,,,,,,,,,,,,,,,,,,0,3,3,1,0,35,35,35,,,,,,,,,,,,,1581.0105768247013,,,,,AMP_prac,left,0.8654320516470762,,,,,,,,,,,,,,,,,,,,,6,,,left,0.41544906603667187,,,,,,,,,,,,,,1013,2019_May_16_1651,mf_amp_cond1,3.0.7,59.97774362248134,
rhailled,,&&&&&&&&,images/symbols/symbol_61.png,condition_files/AMP_rep2.csv,None,nonword,,,,,,,,,,,,,,,,,,,,,0,3,3,1,0,36,36,36,,,,,,,,,,,,,1581.6607660997652,,,,,AMP_prac,left,0.8654320516470762,,,,,,,,,,,,,,,,,,,,,6,,,left,0.431923036583612,,,,,,,,,,,,,,1013,2019_May_16_1651,mf_amp_cond1,3.0.7,59.97774362248134,
good,,&&&&,images/symbols/symbol_53.png,condition_files/AMP_rep2.csv,left,care.virtue,,,,,,,,,,,,,,,,,,,,,0,3,3,1,0,37,37,37,,,,,,,,,,,,,1582.34426829945,,,,,AMP_prac,left,0.8654320516470762,,,,,,,,,,,,,,,,,,,,,6,,,left,0.46583186575662694,,,,,,,,,,,,,,1013,2019_May_16_1651,mf_amp_cond1,3.0.7,59.97774362248134,
benefit,,&&&&&&&,images/symbols/symbol_14.png,condition_files/AMP_rep2.csv,left,fairness.virtue,,,,,,,,,,,,,,,,,,,,,0,3,3,1,0,38,38,38,,,,,,,,,,,,,1583.0277685747897,,,,,AMP_prac,left,0.8654320516470762,,,,,,,,,,,,,,,,,,,,,6,,,left,0.465661561494926,,,,,,,,,,,,,,1013,2019_May_16_1651,mf_amp_cond1,3.0.7,59.97774362248134,
increase,,&&&&&&&&,images/symbols/symbol_22.png,condition_files/AMP_rep2.csv,left,care.virtue,,,,,,,,,,,,,,,,,,,,,0,3,3,1,0,39,39,39,,,,,,,,,,,,,1583.7779668621915,,,,,AMP_prac,left,0.8654320516470762,,,,,,,,,,,,,,,,,,,,,6,,,right,0.5324278876905737,,,,,,,,,,,,,,1013,2019_May_16_1651,mf_amp_cond1,3.0.7,59.97774362248134,
honored,,&&&&&&&,images/symbols/symbol_64.png,condition_files/AMP_rep2.csv,left,authority.virtue,,,,,,,,,,,,,,,,,,,,,0,3,3,1,0,40,40,40,,,,,,,,,,,,,1584.761551904794,,,,,AMP_prac,left,0.8654320516470762,,,,,,,,,,,,,,,,,,,,,6,,,left,0.7655237465405662,,,,,,,,,,,,,,1013,2019_May_16_1651,mf_amp_cond1,3.0.7,59.97774362248134,
progress,,&&&&&&&&,images/symbols/symbol_34.png,condition_files/AMP_rep2.csv,left,authority.virtue,,,,,,,,,,,,,,,,,,,,,0,3,3,1,0,41,41,41,,,,,,,,,,,,,1585.5450849260196,,,,,AMP_prac,left,0.8654320516470762,,,,,,,,,,,,,,,,,,,,,6,,,left,0.5654537646405515,,,,,,,,,,,,,,1013,2019_May_16_1651,mf_amp_cond1,3.0.7,59.97774362248134,
cande,,&&&&&,images/symbols/symbol_3.png,condition_files/AMP_rep2.csv,None,nonword,,,,,,,,,,,,,,,,,,,,,0,3,3,1,0,42,42,42,,,,,,,,,,,,,1586.3619732073857,,,,,AMP_prac,left,0.8654320516470762,,,,,,,,,,,,,,,,,,,,,6,,,right,0.5990380214680044,,,,,,,,,,,,,,1013,2019_May_16_1651,mf_amp_cond1,3.0.7,59.97774362248134,
violence,,&&&&&&&&,images/symbols/symbol_49.png,condition_files/AMP_rep2.csv,right,care.vice,,,,,,,,,,,,,,,,,,,,,0,3,3,1,0,43,43,43,,,,,,,,,,,,,1586.9954675333065,,,,,AMP_prac,left,0.8654320516470762,,,,,,,,,,,,,,,,,,,,,6,,,left,0.4003041743162612,,,,,,,,,,,,,,1013,2019_May_16_1651,mf_amp_cond1,3.0.7,59.97774362248134,
injured,,&&&&&&&,images/symbols/symbol_13.png,condition_files/AMP_rep2.csv,right,care.vice,,,,,,,,,,,,,,,,,,,,,0,3,3,1,0,44,44,44,,,,,,,,,,,,,1587.8790249616031,,,,,AMP_prac,left,0.8654320516470762,,,,,,,,,,,,,,,,,,,,,6,,,right,0.6653049809356162,,,,,,,,,,,,,,1013,2019_May_16_1651,mf_amp_cond1,3.0.7,59.97774362248134,
daizz,,&&&&&,images/symbols/symbol_52.png,condition_files/AMP_rep2.csv,None,nonword,,,,,,,,,,,,,,,,,,,,,0,3,3,1,0,45,45,45,,,,,,,,,,,,,1588.8959556426344,,,,,AMP_prac,left,0.8654320516470762,,,,,,,,,,,,,,,,,,,,,6,,,left,0.7996801743720425,,,,,,,,,,,,,,1013,2019_May_16_1651,mf_amp_cond1,3.0.7,59.97774362248134,
victim,,&&&&&&,images/symbols/symbol_77.png,condition_files/AMP_rep2.csv,right,care.vice,,,,,,,,,,,,,,,,,,,,,0,3,3,1,0,46,46,46,,,,,,,,,,,,,1590.3463395328145,,,,,AMP_prac,left,0.8654320516470762,,,,,,,,,,,,,,,,,,,,,6,,,right,1.2327206121699419,,,,,,,,,,,,,,1013,2019_May_16_1651,mf_amp_cond1,3.0.7,59.97774362248134,
brored,,&&&&&&,images/symbols/symbol_75.png,condition_files/AMP_rep2.csv,None,nonword,,,,,,,,,,,,,,,,,,,,,0,3,3,1,0,47,47,47,,,,,,,,,,,,,1591.3132479075175,,,,,AMP_prac,left,0.8654320516470762,,,,,,,,,,,,,,,,,,,,,6,,,left,0.7492091756466834,,,,,,,,,,,,,,1013,2019_May_16_1651,mf_amp_cond1,3.0.7,59.97774362248134,
