words,masks,symbols,conditionfile,corr_ans,category,mask,LDT_trials_cond2.thisRepN,LDT_trials_cond2.thisTrialN,LDT_trials_cond2.thisN,LDT_trials_cond2.thisIndex,logo_trials.thisRepN,logo_trials.thisTrialN,logo_trials.thisN,logo_trials.thisIndex,AMP_pracs.thisRepN,AMP_pracs.thisTrialN,AMP_pracs.thisN,AMP_pracs.thisIndex,trials_loop.thisRepN,trials_loop.thisTrialN,trials_loop.thisN,trials_loop.thisIndex,AMP_trials.thisRepN,AMP_trials.thisTrialN,AMP_trials.thisN,AMP_trials.thisIndex,memtask_trials.thisRepN,memtask_trials.thisTrialN,memtask_trials.thisN,memtask_trials.thisIndex,LDT_cond1.thisRepN,LDT_cond1.thisTrialN,LDT_cond1.thisN,LDT_cond1.thisIndex,LDT_pracs.thisRepN,LDT_pracs.thisTrialN,LDT_pracs.thisN,LDT_pracs.thisIndex,LDT_trials.thisRepN,LDT_trials.thisTrialN,LDT_trials.thisN,LDT_trials.thisIndex,begin_key.keys,begin_key.rt,key_resp_instr.keys,key_resp_instr.rt,exp_time,resp_sym_rate.keys,resp_sym_rate.rt,sym_resp_1.keys,sym_resp_1.rt,sym_resp_2.keys,sym_resp_2.rt,sym_resp_trial.keys,sym_resp_trial.rt,symbol_index,resp_AMP_ready1.keys,resp_AMP_ready1.rt,resp_AMP.keys,resp_AMP.rt,task,keypress,RT,prime_dur,resp_AMP_ready.keys,resp_AMP_ready.rt,resp_AMP_trials.keys,resp_AMP_trials.rt,rest_key_resp.keys,rest_key_resp.rt,AMP_nonword_rating.response,AMP_nonword_rating.rt,AMP_word_rating.response,AMP_word_rating.rt,AMP_random_rating.response,AMP_random_rating.rt,key_resp_instr_memtask.keys,key_resp_instr_memtask.rt,resp_memtask.keys,resp_memtask.corr,resp_memtask.rt,corr,key_resp_LDT_instr.keys,key_resp_LDT_instr.rt,resp_LDT_prac.keys,resp_LDT_prac.rt,resp_LDT_ready.keys,resp_LDT_ready.rt,resp_LDT_trial.keys,resp_LDT_trial.rt,LDT_rating.response,LDT_rating.rt,participant ID,date,expName,psychopyVersion,frameRate,
,,,,,,,,,,,,,,,,,,,,,,,,,,,,,,,,,,,,,,,,,,,right,960.3686964369736,,,,,,,,,,,,,,,,,,,,,,,,,,,,,,,,,,,,,,,,,,,,,,,,,1014,2019_May_16_1650,mf_amp_cond1,3.0.7,59.98124347096968,
,,,,,,,,,,,,,,,,,,,,,,,,,,,,,,,,,,,,,,,,,,,,,right,1.8840548195476003,,,,,,,,,,,,,,,,,,,,,,,,,,,,,,,,,,,,,,,,,,,,,,,1014,2019_May_16_1650,mf_amp_cond1,3.0.7,59.98124347096968,
,,,,,,,,,,,,,,,,,,,,,,,,,,,,,,,,,,,,,,,,,,,,,,,1000.364631893055,right,3.051034353142313,,,,,,,,,,,,,,,,,,,,,,,,,,,,,,,,,,,,,,,,,,,,1014,2019_May_16_1650,mf_amp_cond1,3.0.7,59.98124347096968,
,,,,,,,,,,,,,,,,,,,,,,,,,,,,,,,,,,,,,,,,,,,,,,,1065.515091539637,,,left,1.9340702303670696,,,,,,,,,,,,,,,,,,,,,,,,,,,,,,,,,,,,,,,,,,1014,2019_May_16_1650,mf_amp_cond1,3.0.7,59.98124347096968,
,,,,,,,,,,,,,,,,,,,,,,,,,,,,,,,,,,,,,,,,,,,,,,,,,,,,right,1.050495535670052,,,,,,,,,,,,,,,,,,,,,,,,,,,,,,,,,,,,,,,,1014,2019_May_16_1650,mf_amp_cond1,3.0.7,59.98124347096968,
,,,,,,,,,,,,,,,,,,,,,,,,,,,,,,,,,,,,,,,,,,,,,,,1084.5367042139078,,,,,,,left,0.9649136817643011,53,right,1.667319662123191,,,,,,,,,,,,,,,,,,,,,,,,,,,,,,,,,,,1014,2019_May_16_1650,mf_amp_cond1,3.0.7,59.98124347096968,
keyboard,&&&&&&&&,images/symbols/symbol_40.png,,,,,,,,,,,,,0,0,0,2,,,,,,,,,,,,,,,,,,,,,,,,,,,,,1240.3279095582075,,,,,,,,,,,,left,2.8509752756544913,AMP_prac,left,2.8509752756544913,3,,,,,,,,,,,,,,,,,,,,,,,,,,,,,1014,2019_May_16_1650,mf_amp_cond1,3.0.7,59.98124347096968,
car,&&&,images/symbols/symbol_9.png,,,,,,,,,,,,,0,1,1,0,,,,,,,,,,,,,,,,,,,,,,,,,,,,,1244.1121176520792,,,,,,,,,,,,right,3.566453352679673,AMP_prac,right,3.566453352679673,3,,,,,,,,,,,,,,,,,,,,,,,,,,,,,1014,2019_May_16_1650,mf_amp_cond1,3.0.7,59.98124347096968,
scarf,&&&&&,images/symbols/symbol_54.png,,,,,,,,,,,,,0,2,2,3,,,,,,,,,,,,,,,,,,,,,,,,,,,,,1245.0623726121667,,,,,,,,,,,,left,0.7170906807332358,AMP_prac,left,0.7170906807332358,3,,,,,,,,,,,,,,,,,,,,,,,,,,,,,1014,2019_May_16_1650,mf_amp_cond1,3.0.7,59.98124347096968,
banana,&&&&&&,images/symbols/symbol_68.png,,,,,,,,,,,,,0,3,3,1,,,,,,,,,,,,,,,,,,,,,,,,,,,,,1246.0292965962471,,,,,,,,,,,,left,0.7337606669025263,AMP_prac,left,0.7337606669025263,3,,,,,,,,,,,,,,,,,,,,,,,,,,,,,1014,2019_May_16_1650,mf_amp_cond1,3.0.7,59.98124347096968,
,,,,,,,,,,,,,,,,,,,,,,,,,,,,,,,,,,,,,,,,,,,,,,,,,,,,,,,,,,,,,,,,,right,1.1005167195398826,,,,,,,,,,,,,,,,,,,,,,,,,,,1014,2019_May_16_1650,mf_amp_cond1,3.0.7,59.98124347096968,
crime,&&&&&,images/symbols/symbol_15.png,condition_files/AMP_rep2.csv,right,fairness.vice,,,,,,,,,,,,,,0,0,0,1,0,0,0,0,,,,,,,,,,,,,,,,,,,,,1268.2852974352609,,,,,,,,,,,,,,AMP_prac,left,0.7337606669025263,3,,,left,0.8838229356006195,,,,,,,,,,,,,,,,,,,,,,,,,1014,2019_May_16_1650,mf_amp_cond1,3.0.7,59.98124347096968,
prison,&&&&&&,images/symbols/symbol_77.png,condition_files/AMP_rep2.csv,right,fairness.vice,,,,,,,,,,,,,,0,0,0,1,0,1,1,1,,,,,,,,,,,,,,,,,,,,,1269.3854145318437,,,,,,,,,,,,,,AMP_prac,left,0.7337606669025263,3,,,right,0.8827520358790935,,,,,,,,,,,,,,,,,,,,,,,,,1014,2019_May_16_1650,mf_amp_cond1,3.0.7,59.98124347096968,
stroad,&&&&&&,images/symbols/symbol_38.png,condition_files/AMP_rep2.csv,None,nonword,,,,,,,,,,,,,,0,0,0,1,0,2,2,2,,,,,,,,,,,,,,,,,,,,,1270.4356884467597,,,,,,,,,,,,,,AMP_prac,left,0.7337606669025263,3,,,right,0.8328617076876981,,,,,,,,,,,,,,,,,,,,,,,,,1014,2019_May_16_1650,mf_amp_cond1,3.0.7,59.98124347096968,
care,&&&&,images/symbols/symbol_66.png,condition_files/AMP_rep2.csv,left,care.virtue,,,,,,,,,,,,,,0,0,0,1,0,3,3,3,,,,,,,,,,,,,,,,,,,,,1271.352665655104,,,,,,,,,,,,,,AMP_prac,left,0.7337606669025263,3,,,left,0.683795609853405,,,,,,,,,,,,,,,,,,,,,,,,,1014,2019_May_16_1650,mf_amp_cond1,3.0.7,59.98124347096968,
opportunity,&&&&&&&&&&&,images/symbols/symbol_76.png,condition_files/AMP_rep2.csv,left,fairness.virtue,,,,,,,,,,,,,,0,0,0,1,0,4,4,4,,,,,,,,,,,,,,,,,,,,,1272.2695504947333,,,,,,,,,,,,,,AMP_prac,left,0.7337606669025263,3,,,right,0.6994700666036806,,,,,,,,,,,,,,,,,,,,,,,,,1014,2019_May_16_1650,mf_amp_cond1,3.0.7,59.98124347096968,
love,&&&&,images/symbols/symbol_42.png,condition_files/AMP_rep2.csv,left,loyalty.virtue,,,,,,,,,,,,,,0,0,0,1,0,5,5,5,,,,,,,,,,,,,,,,,,,,,1273.1030539725143,,,,,,,,,,,,,,AMP_prac,left,0.7337606669025263,3,,,left,0.6160521421334124,,,,,,,,,,,,,,,,,,,,,,,,,1014,2019_May_16_1650,mf_amp_cond1,3.0.7,59.98124347096968,
terrorist,&&&&&&&&&,images/symbols/symbol_13.png,condition_files/AMP_rep2.csv,right,loyalty.vice,,,,,,,,,,,,,,0,0,0,1,0,6,6,6,,,,,,,,,,,,,,,,,,,,,1274.3533834369446,,,,,,,,,,,,,,AMP_prac,left,0.7337606669025263,3,,,right,1.0328473392182786,,,,,,,,,,,,,,,,,,,,,,,,,1014,2019_May_16_1650,mf_amp_cond1,3.0.7,59.98124347096968,
terrorists,&&&&&&&&&&,images/symbols/symbol_12.png,condition_files/AMP_rep2.csv,right,fairness.vice,,,,,,,,,,,,,,0,0,0,1,0,7,7,7,,,,,,,,,,,,,,,,,,,,,1275.4703677653742,,,,,,,,,,,,,,AMP_prac,left,0.7337606669025263,3,,,right,0.8838123516834457,,,,,,,,,,,,,,,,,,,,,,,,,1014,2019_May_16_1650,mf_amp_cond1,3.0.7,59.98124347096968,
civilians,&&&&&&&&&,images/symbols/symbol_45.png,condition_files/AMP_rep2.csv,right,care.vice,,,,,,,,,,,,,,0,0,0,1,0,8,8,8,,,,,,,,,,,,,,,,,,,,,1276.6373492233179,,,,,,,,,,,,,,AMP_prac,left,0.7337606669025263,3,,,left,0.9489855317879119,,,,,,,,,,,,,,,,,,,,,,,,,1014,2019_May_16_1650,mf_amp_cond1,3.0.7,59.98124347096968,
phegned,&&&&&&&,images/symbols/symbol_54.png,condition_files/AMP_rep2.csv,None,nonword,,,,,,,,,,,,,,0,0,0,1,0,9,9,9,,,,,,,,,,,,,,,,,,,,,1277.4542045242088,,,,,,,,,,,,,,AMP_prac,left,0.7337606669025263,3,,,left,0.583719245307293,,,,,,,,,,,,,,,,,,,,,,,,,1014,2019_May_16_1650,mf_amp_cond1,3.0.7,59.98124347096968,
suicide,&&&&&&&,images/symbols/symbol_27.png,condition_files/AMP_rep2.csv,right,care.vice,,,,,,,,,,,,,,0,0,0,1,0,10,10,10,,,,,,,,,,,,,,,,,,,,,1278.537818732184,,,,,,,,,,,,,,AMP_prac,left,0.7337606669025263,3,,,right,0.8656144331216638,,,,,,,,,,,,,,,,,,,,,,,,,1014,2019_May_16_1650,mf_amp_cond1,3.0.7,59.98124347096968,
yakks,&&&&&,images/symbols/symbol_21.png,condition_files/AMP_rep2.csv,None,nonword,,,,,,,,,,,,,,0,0,0,1,0,11,11,11,,,,,,,,,,,,,,,,,,,,,1279.3713767331574,,,,,,,,,,,,,,AMP_prac,left,0.7337606669025263,3,,,left,0.6162942892733554,,,,,,,,,,,,,,,,,,,,,,,,,1014,2019_May_16_1650,mf_amp_cond1,3.0.7,59.98124347096968,
serial,&&&&&&,images/symbols/symbol_24.png,condition_files/AMP_rep2.csv,right,sanctity.vice,,,,,,,,,,,,,,0,0,0,1,0,12,12,12,,,,,,,,,,,,,,,,,,,,,1280.27162494199,,,,,,,,,,,,,,AMP_prac,left,0.7337606669025263,3,,,right,0.6826724320126232,,,,,,,,,,,,,,,,,,,,,,,,,1014,2019_May_16_1650,mf_amp_cond1,3.0.7,59.98124347096968,
violence,&&&&&&&&,images/symbols/symbol_16.png,condition_files/AMP_rep2.csv,right,care.vice,,,,,,,,,,,,,,0,0,0,1,0,13,13,13,,,,,,,,,,,,,,,,,,,,,1280.9551229193385,,,,,,,,,,,,,,AMP_prac,left,0.7337606669025263,3,,,right,0.4662640930437192,,,,,,,,,,,,,,,,,,,,,,,,,1014,2019_May_16_1650,mf_amp_cond1,3.0.7,59.98124347096968,
slavery,&&&&&&&,images/symbols/symbol_23.png,condition_files/AMP_rep2.csv,right,loyalty.vice,,,,,,,,,,,,,,0,0,0,1,0,14,14,14,,,,,,,,,,,,,,,,,,,,,1281.5719656478213,,,,,,,,,,,,,,AMP_prac,left,0.7337606669025263,3,,,right,0.39929774123083916,,,,,,,,,,,,,,,,,,,,,,,,,1014,2019_May_16_1650,mf_amp_cond1,3.0.7,59.98124347096968,
energy,&&&&&&,images/symbols/symbol_58.png,condition_files/AMP_rep2.csv,left,sanctity.virtue,,,,,,,,,,,,,,0,0,0,1,0,15,15,15,,,,,,,,,,,,,,,,,,,,,1282.3888578320511,,,,,,,,,,,,,,AMP_prac,left,0.7337606669025263,3,,,left,0.5837349608191289,,,,,,,,,,,,,,,,,,,,,,,,,1014,2019_May_16_1650,mf_amp_cond1,3.0.7,59.98124347096968,
compassion,&&&&&&&&&&,images/symbols/symbol_72.png,condition_files/AMP_rep2.csv,left,care.virtue,,,,,,,,,,,,,,0,0,0,1,0,16,16,16,,,,,,,,,,,,,,,,,,,,,1283.2390476529545,,,,,,,,,,,,,,AMP_prac,left,0.7337606669025263,3,,,right,0.6322394376547891,,,,,,,,,,,,,,,,,,,,,,,,,1014,2019_May_16_1650,mf_amp_cond1,3.0.7,59.98124347096968,
freedom,&&&&&&&,images/symbols/symbol_48.png,condition_files/AMP_rep2.csv,left,sanctity.virtue,,,,,,,,,,,,,,0,0,0,1,0,17,17,17,,,,,,,,,,,,,,,,,,,,,1285.156243274807,,,,,,,,,,,,,,AMP_prac,left,0.7337606669025263,3,,,right,1.6995162509592774,,,,,,,,,,,,,,,,,,,,,,,,,1014,2019_May_16_1650,mf_amp_cond1,3.0.7,59.98124347096968,
benefit,&&&&&&&,images/symbols/symbol_2.png,condition_files/AMP_rep2.csv,left,fairness.virtue,,,,,,,,,,,,,,0,0,0,1,0,18,18,18,,,,,,,,,,,,,,,,,,,,,1286.1231650138143,,,,,,,,,,,,,,AMP_prac,left,0.7337606669025263,3,,,right,0.7490874580907985,,,,,,,,,,,,,,,,,,,,,,,,,1014,2019_May_16_1650,mf_amp_cond1,3.0.7,59.98124347096968,
accused,&&&&&&&,images/symbols/symbol_67.png,condition_files/AMP_rep2.csv,right,fairness.vice,,,,,,,,,,,,,,0,0,0,1,0,19,19,19,,,,,,,,,,,,,,,,,,,,,1286.923364440423,,,,,,,,,,,,,,AMP_prac,left,0.7337606669025263,3,,,left,0.5825880493503064,,,,,,,,,,,,,,,,,,,,,,,,,1014,2019_May_16_1650,mf_amp_cond1,3.0.7,59.98124347096968,
conspiracy,&&&&&&&&&&,images/symbols/symbol_4.png,condition_files/AMP_rep2.csv,right,sanctity.vice,,,,,,,,,,,,,,0,0,0,1,0,20,20,20,,,,,,,,,,,,,,,,,,,,,1287.6402549889535,,,,,,,,,,,,,,AMP_prac,left,0.7337606669025263,3,,,left,0.4993599938934494,,,,,,,,,,,,,,,,,,,,,,,,,1014,2019_May_16_1650,mf_amp_cond1,3.0.7,59.98124347096968,
promised,&&&&&&&&,images/symbols/symbol_20.png,condition_files/AMP_rep2.csv,left,loyalty.virtue,,,,,,,,,,,,,,0,0,0,1,0,21,21,21,,,,,,,,,,,,,,,,,,,,,1288.4404156078745,,,,,,,,,,,,,,AMP_prac,left,0.7337606669025263,3,,,right,0.5832230842243007,,,,,,,,,,,,,,,,,,,,,,,,,1014,2019_May_16_1650,mf_amp_cond1,3.0.7,59.98124347096968,
peaceful,&&&&&&&&,images/symbols/symbol_69.png,condition_files/AMP_rep2.csv,left,authority.virtue,,,,,,,,,,,,,,0,0,0,1,0,22,22,22,,,,,,,,,,,,,,,,,,,,,1289.2072872496865,,,,,,,,,,,,,,AMP_prac,left,0.7337606669025263,3,,,left,0.5492018926634046,,,,,,,,,,,,,,,,,,,,,,,,,1014,2019_May_16_1650,mf_amp_cond1,3.0.7,59.98124347096968,
safety,&&&&&&,images/symbols/symbol_51.png,condition_files/AMP_rep2.csv,left,care.virtue,,,,,,,,,,,,,,0,0,0,1,0,23,23,23,,,,,,,,,,,,,,,,,,,,,1289.9908279154915,,,,,,,,,,,,,,AMP_prac,left,0.7337606669025263,3,,,left,0.5665431555898977,,,,,,,,,,,,,,,,,,,,,,,,,1014,2019_May_16_1650,mf_amp_cond1,3.0.7,59.98124347096968,
killed,&&&&&&,images/symbols/symbol_56.png,condition_files/AMP_rep2.csv,right,care.vice,,,,,,,,,,,,,,0,0,0,1,0,24,24,24,,,,,,,,,,,,,,,,,,,,,1290.7244153910651,,,,,,,,,,,,,,AMP_prac,left,0.7337606669025263,3,,,right,0.5004482127478695,,,,,,,,,,,,,,,,,,,,,,,,,1014,2019_May_16_1650,mf_amp_cond1,3.0.7,59.98124347096968,
clean,&&&&&,images/symbols/symbol_47.png,condition_files/AMP_rep2.csv,left,sanctity.virtue,,,,,,,,,,,,,,0,0,0,1,0,25,25,25,,,,,,,,,,,,,,,,,,,,,1291.6079137532834,,,,,,,,,,,,,,AMP_prac,left,0.7337606669025263,3,,,left,0.6652987758934614,,,,,,,,,,,,,,,,,,,,,,,,,1014,2019_May_16_1650,mf_amp_cond1,3.0.7,59.98124347096968,
praise,&&&&&&,images/symbols/symbol_57.png,condition_files/AMP_rep2.csv,left,authority.virtue,,,,,,,,,,,,,,0,0,0,1,0,26,26,26,,,,,,,,,,,,,,,,,,,,,1292.6248688636952,,,,,,,,,,,,,,AMP_prac,left,0.7337606669025263,3,,,right,0.7994142925854248,,,,,,,,,,,,,,,,,,,,,,,,,1014,2019_May_16_1650,mf_amp_cond1,3.0.7,59.98124347096968,
abuse,&&&&&,images/symbols/symbol_65.png,condition_files/AMP_rep2.csv,right,sanctity.vice,,,,,,,,,,,,,,0,0,0,1,0,27,27,27,,,,,,,,,,,,,,,,,,,,,1293.558428821092,,,,,,,,,,,,,,AMP_prac,left,0.7337606669025263,3,,,left,0.7160624373973405,,,,,,,,,,,,,,,,,,,,,,,,,1014,2019_May_16_1650,mf_amp_cond1,3.0.7,59.98124347096968,
fair,&&&&,images/symbols/symbol_37.png,condition_files/AMP_rep2.csv,left,fairness.virtue,,,,,,,,,,,,,,0,0,0,1,0,28,28,28,,,,,,,,,,,,,,,,,,,,,1294.4920054561699,,,,,,,,,,,,,,AMP_prac,left,0.7337606669025263,3,,,left,0.7004168458734057,,,,,,,,,,,,,,,,,,,,,,,,,1014,2019_May_16_1650,mf_amp_cond1,3.0.7,59.98124347096968,
powerful,&&&&&&&&,images/symbols/symbol_18.png,condition_files/AMP_rep2.csv,left,authority.virtue,,,,,,,,,,,,,,0,0,0,1,0,29,29,29,,,,,,,,,,,,,,,,,,,,,1295.24220614964,,,,,,,,,,,,,,AMP_prac,left,0.7337606669025263,3,,,right,0.5322208035504445,,,,,,,,,,,,,,,,,,,,,,,,,1014,2019_May_16_1650,mf_amp_cond1,3.0.7,59.98124347096968,
help,&&&&,images/symbols/symbol_30.png,condition_files/AMP_rep2.csv,left,care.virtue,,,,,,,,,,,,,,0,0,0,1,0,30,30,30,,,,,,,,,,,,,,,,,,,,,1296.1424572449941,,,,,,,,,,,,,,AMP_prac,left,0.7337606669025263,3,,,right,0.6828369637769356,,,,,,,,,,,,,,,,,,,,,,,,,1014,2019_May_16_1650,mf_amp_cond1,3.0.7,59.98124347096968,
unpleasant,&&&&&&&&&,images/symbols/symbol_14.png,condition_files/AMP_rep2.csv,left,control,,,,,,,,,,,,,,0,0,0,1,0,31,31,31,,,,,,,,,,,,,,,,,,,,,1296.909315095647,,,,,,,,,,,,,,AMP_prac,left,0.7337606669025263,3,,,right,0.5493346726798336,,,,,,,,,,,,,,,,,,,,,,,,,1014,2019_May_16_1650,mf_amp_cond1,3.0.7,59.98124347096968,
threatened,&&&&&&&&&&,images/symbols/symbol_19.png,condition_files/AMP_rep2.csv,right,fairness.vice,,,,,,,,,,,,,,0,0,0,1,0,32,32,32,,,,,,,,,,,,,,,,,,,,,1297.7928840172972,,,,,,,,,,,,,,AMP_prac,left,0.7337606669025263,3,,,left,0.6660556861424993,,,,,,,,,,,,,,,,,,,,,,,,,1014,2019_May_16_1650,mf_amp_cond1,3.0.7,59.98124347096968,
commitment,&&&&&&&&&&,images/symbols/symbol_74.png,condition_files/AMP_rep2.csv,left,sanctity.virtue,,,,,,,,,,,,,,0,0,0,1,0,33,33,33,,,,,,,,,,,,,,,,,,,,,1298.5930751050619,,,,,,,,,,,,,,AMP_prac,left,0.7337606669025263,3,,,left,0.5670367508791969,,,,,,,,,,,,,,,,,,,,,,,,,1014,2019_May_16_1650,mf_amp_cond1,3.0.7,59.98124347096968,
men,&&&,images/symbols/symbol_75.png,condition_files/AMP_rep2.csv,right,loyalty.vice,,,,,,,,,,,,,,0,0,0,1,0,34,34,34,,,,,,,,,,,,,,,,,,,,,1299.4766456303369,,,,,,,,,,,,,,AMP_prac,left,0.7337606669025263,3,,,left,0.6503963034556364,,,,,,,,,,,,,,,,,,,,,,,,,1014,2019_May_16_1650,mf_amp_cond1,3.0.7,59.98124347096968,
growth,&&&&&&,images/symbols/symbol_33.png,condition_files/AMP_rep2.csv,left,care.virtue,,,,,,,,,,,,,,0,0,0,1,0,35,35,35,,,,,,,,,,,,,,,,,,,,,1300.243556079833,,,,,,,,,,,,,,AMP_prac,left,0.7337606669025263,3,,,right,0.5490546800319862,,,,,,,,,,,,,,,,,,,,,,,,,1014,2019_May_16_1650,mf_amp_cond1,3.0.7,59.98124347096968,
faith,&&&&&,images/symbols/symbol_9.png,condition_files/AMP_rep2.csv,left,sanctity.virtue,,,,,,,,,,,,,,0,0,0,1,0,36,36,36,,,,,,,,,,,,,,,,,,,,,1300.9436996682743,,,,,,,,,,,,,,AMP_prac,left,0.7337606669025263,3,,,right,0.4825742261164123,,,,,,,,,,,,,,,,,,,,,,,,,1014,2019_May_16_1650,mf_amp_cond1,3.0.7,59.98124347096968,
rebels,&&&&&&,images/symbols/symbol_64.png,condition_files/AMP_rep2.csv,right,authority.vice,,,,,,,,,,,,,,0,0,0,1,0,37,37,37,,,,,,,,,,,,,,,,,,,,,1301.8439465942101,,,,,,,,,,,,,,AMP_prac,left,0.7337606669025263,3,,,left,0.6826259269364527,,,,,,,,,,,,,,,,,,,,,,,,,1014,2019_May_16_1650,mf_amp_cond1,3.0.7,59.98124347096968,
attacks,&&&&&&&,images/symbols/symbol_78.png,condition_files/AMP_rep2.csv,right,care.vice,,,,,,,,,,,,,,0,0,0,1,0,38,38,38,,,,,,,,,,,,,,,,,,,,,1303.1942863539043,,,,,,,,,,,,,,AMP_prac,left,0.7337606669025263,3,,,left,1.1327620585288969,,,,,,,,,,,,,,,,,,,,,,,,,1014,2019_May_16_1650,mf_amp_cond1,3.0.7,59.98124347096968,
actively,&&&&&&&&,images/symbols/symbol_73.png,condition_files/AMP_rep2.csv,left,authority.virtue,,,,,,,,,,,,,,0,0,0,1,0,39,39,39,,,,,,,,,,,,,,,,,,,,,1303.9611679381815,,,,,,,,,,,,,,AMP_prac,left,0.7337606669025263,3,,,right,0.549035757274396,,,,,,,,,,,,,,,,,,,,,,,,,1014,2019_May_16_1650,mf_amp_cond1,3.0.7,59.98124347096968,
lies,&&&&,images/symbols/symbol_1.png,condition_files/AMP_rep2.csv,right,fairness.vice,,,,,,,,,,,,,,0,0,0,1,0,40,40,40,,,,,,,,,,,,,,,,,,,,,1304.6113297918928,,,,,,,,,,,,,,AMP_prac,left,0.7337606669025263,3,,,right,0.43254277906089555,,,,,,,,,,,,,,,,,,,,,,,,,1014,2019_May_16_1650,mf_amp_cond1,3.0.7,59.98124347096968,
intelligence,&&&&&&&&&&&&,images/symbols/symbol_7.png,condition_files/AMP_rep2.csv,left,loyalty.virtue,,,,,,,,,,,,,,0,0,0,1,0,41,41,41,,,,,,,,,,,,,,,,,,,,,1305.2448232630595,,,,,,,,,,,,,,AMP_prac,left,0.7337606669025263,3,,,right,0.4160847919083608,,,,,,,,,,,,,,,,,,,,,,,,,1014,2019_May_16_1650,mf_amp_cond1,3.0.7,59.98124347096968,
prosecution,&&&&&&&&&&&,images/symbols/symbol_10.png,condition_files/AMP_rep2.csv,right,authority.vice,,,,,,,,,,,,,,0,0,0,1,0,42,42,42,,,,,,,,,,,,,,,,,,,,,1306.0617327664222,,,,,,,,,,,,,,AMP_prac,left,0.7337606669025263,3,,,left,0.5995842125194031,,,,,,,,,,,,,,,,,,,,,,,,,1014,2019_May_16_1650,mf_amp_cond1,3.0.7,59.98124347096968,
fighters,&&&&&&&&,images/symbols/symbol_71.png,condition_files/AMP_rep2.csv,right,authority.vice,,,,,,,,,,,,,,0,0,0,1,0,43,43,43,,,,,,,,,,,,,,,,,,,,,1307.2786834508333,,,,,,,,,,,,,,AMP_prac,left,0.7337606669025263,3,,,right,0.9994547680362302,,,,,,,,,,,,,,,,,,,,,,,,,1014,2019_May_16_1650,mf_amp_cond1,3.0.7,59.98124347096968,
pleasant,&&&&&&&,images/symbols/symbol_59.png,condition_files/AMP_rep2.csv,right,control,,,,,,,,,,,,,,0,0,0,1,0,44,44,44,,,,,,,,,,,,,,,,,,,,,1308.1622693708887,,,,,,,,,,,,,,AMP_prac,left,0.7337606669025263,3,,,right,0.6661483755742665,,,,,,,,,,,,,,,,,,,,,,,,,1014,2019_May_16_1650,mf_amp_cond1,3.0.7,59.98124347096968,
perfect,&&&&&&&,images/symbols/symbol_49.png,condition_files/AMP_rep2.csv,left,sanctity.virtue,,,,,,,,,,,,,,0,0,0,1,0,45,45,45,,,,,,,,,,,,,,,,,,,,,1309.4125921001032,,,,,,,,,,,,,,AMP_prac,left,0.7337606669025263,3,,,right,1.01717031667431,,,,,,,,,,,,,,,,,,,,,,,,,1014,2019_May_16_1650,mf_amp_cond1,3.0.7,59.98124347096968,
cifte,&&&&&,images/symbols/symbol_50.png,condition_files/AMP_rep2.csv,None,nonword,,,,,,,,,,,,,,0,0,0,1,0,46,46,46,,,,,,,,,,,,,,,,,,,,,1310.4461851242122,,,,,,,,,,,,,,AMP_prac,left,0.7337606669025263,3,,,right,0.8154296796710696,,,,,,,,,,,,,,,,,,,,,,,,,1014,2019_May_16_1650,mf_amp_cond1,3.0.7,59.98124347096968,
trust,&&&&&,images/symbols/symbol_25.png,condition_files/AMP_rep2.csv,left,authority.virtue,,,,,,,,,,,,,,0,0,0,1,0,47,47,47,,,,,,,,,,,,,,,,,,,,,1311.17973796152,,,,,,,,,,,,,,AMP_prac,left,0.7337606669025263,3,,,right,0.5156945020389685,,,,,,,,,,,,,,,,,,,,,,,,,1014,2019_May_16_1650,mf_amp_cond1,3.0.7,59.98124347096968,
sexual,&&&&&&,images/symbols/symbol_26.png,condition_files/AMP_rep2.csv,right,sanctity.vice,,,,,,,,,,,,,,0,0,0,1,0,48,48,48,,,,,,,,,,,,,,,,,,,,,1312.1299669429063,,,,,,,,,,,,,,AMP_prac,left,0.7337606669025263,3,,,left,0.7327462147259212,,,,,,,,,,,,,,,,,,,,,,,,,1014,2019_May_16_1650,mf_amp_cond1,3.0.7,59.98124347096968,
sharing,&&&&&&&,images/symbols/symbol_70.png,condition_files/AMP_rep2.csv,left,loyalty.virtue,,,,,,,,,,,,,,0,0,0,1,0,49,49,49,,,,,,,,,,,,,,,,,,,,,1312.9635605443218,,,,,,,,,,,,,,AMP_prac,left,0.7337606669025263,3,,,right,0.6161509253397526,,,,,,,,,,,,,,,,,,,,,,,,,1014,2019_May_16_1650,mf_amp_cond1,3.0.7,59.98124347096968,
values,&&&&&&,images/symbols/symbol_80.png,condition_files/AMP_rep2.csv,left,sanctity.virtue,,,,,,,,,,,,,,0,0,0,1,0,50,50,50,,,,,,,,,,,,,,,,,,,,,1313.897091636496,,,,,,,,,,,,,,AMP_prac,left,0.7337606669025263,3,,,left,0.7164809831119783,,,,,,,,,,,,,,,,,,,,,,,,,1014,2019_May_16_1650,mf_amp_cond1,3.0.7,59.98124347096968,
torture,&&&&&&&,images/symbols/symbol_82.png,condition_files/AMP_rep2.csv,right,care.vice,,,,,,,,,,,,,,0,0,0,1,0,51,51,51,,,,,,,,,,,,,,,,,,,,,1314.630618815827,,,,,,,,,,,,,,AMP_prac,left,0.7337606669025263,3,,,left,0.5159972661422216,,,,,,,,,,,,,,,,,,,,,,,,,1014,2019_May_16_1650,mf_amp_cond1,3.0.7,59.98124347096968,
safe,&&&&,images/symbols/symbol_11.png,condition_files/AMP_rep2.csv,left,care.virtue,,,,,,,,,,,,,,0,0,0,1,0,52,52,52,,,,,,,,,,,,,,,,,,,,,1315.7142590025032,,,,,,,,,,,,,,AMP_prac,left,0.7337606669025263,3,,,right,0.8662767295973026,,,,,,,,,,,,,,,,,,,,,,,,,1014,2019_May_16_1650,mf_amp_cond1,3.0.7,59.98124347096968,
praised,&&&&&&&,images/symbols/symbol_79.png,condition_files/AMP_rep2.csv,left,loyalty.virtue,,,,,,,,,,,,,,0,0,0,1,0,53,53,53,,,,,,,,,,,,,,,,,,,,,1316.5978038698013,,,,,,,,,,,,,,AMP_prac,left,0.7337606669025263,3,,,right,0.6660303488934005,,,,,,,,,,,,,,,,,,,,,,,,,1014,2019_May_16_1650,mf_amp_cond1,3.0.7,59.98124347096968,
rhoalled,&&&&&&&&,images/symbols/symbol_43.png,condition_files/AMP_rep2.csv,None,nonword,,,,,,,,,,,,,,0,0,0,1,0,54,54,54,,,,,,,,,,,,,,,,,,,,,1317.3146908903618,,,,,,,,,,,,,,AMP_prac,left,0.7337606669025263,3,,,right,0.483725307007262,,,,,,,,,,,,,,,,,,,,,,,,,1014,2019_May_16_1650,mf_amp_cond1,3.0.7,59.98124347096968,
agreement,&&&&&&&&&,images/symbols/symbol_68.png,condition_files/AMP_rep2.csv,left,fairness.virtue,,,,,,,,,,,,,,0,0,0,1,0,55,55,55,,,,,,,,,,,,,,,,,,,,,1318.0148373653246,,,,,,,,,,,,,,AMP_prac,left,0.7337606669025263,3,,,right,0.46701426807703683,,,,,,,,,,,,,,,,,,,,,,,,,1014,2019_May_16_1650,mf_amp_cond1,3.0.7,59.98124347096968,
encourage,&&&&&&&&&,images/symbols/symbol_62.png,condition_files/AMP_rep2.csv,left,authority.virtue,,,,,,,,,,,,,,0,0,0,1,0,56,56,56,,,,,,,,,,,,,,,,,,,,,1318.6483334022887,,,,,,,,,,,,,,AMP_prac,left,0.7337606669025263,3,,,right,0.41533269252613536,,,,,,,,,,,,,,,,,,,,,,,,,1014,2019_May_16_1650,mf_amp_cond1,3.0.7,59.98124347096968,
free,&&&&,images/symbols/symbol_8.png,condition_files/AMP_rep2.csv,left,fairness.virtue,,,,,,,,,,,,,,0,0,0,1,0,57,57,57,,,,,,,,,,,,,,,,,,,,,1319.8819948049022,,,,,,,,,,,,,,AMP_prac,left,0.7337606669025263,3,,,left,1.0161831260957115,,,,,,,,,,,,,,,,,,,,,,,,,1014,2019_May_16_1650,mf_amp_cond1,3.0.7,59.98124347096968,
win,&&&,images/symbols/symbol_3.png,condition_files/AMP_rep2.csv,left,fairness.virtue,,,,,,,,,,,,,,0,0,0,1,0,58,58,58,,,,,,,,,,,,,,,,,,,,,1320.6655335463583,,,,,,,,,,,,,,AMP_prac,left,0.7337606669025263,3,,,right,0.5659632853639778,,,,,,,,,,,,,,,,,,,,,,,,,1014,2019_May_16_1650,mf_amp_cond1,3.0.7,59.98124347096968,
blamed,&&&&&&,images/symbols/symbol_81.png,condition_files/AMP_rep2.csv,right,loyalty.vice,,,,,,,,,,,,,,0,0,0,1,0,59,59,59,,,,,,,,,,,,,,,,,,,,,1321.6824722998135,,,,,,,,,,,,,,AMP_prac,left,0.7337606669025263,3,,,left,0.7994274422926537,,,,,,,,,,,,,,,,,,,,,,,,,1014,2019_May_16_1650,mf_amp_cond1,3.0.7,59.98124347096968,
support,&&&&&&&,images/symbols/symbol_39.png,condition_files/AMP_rep2.csv,left,loyalty.virtue,,,,,,,,,,,,,,0,0,0,1,0,60,60,60,,,,,,,,,,,,,,,,,,,,,1322.39938594052,,,,,,,,,,,,,,AMP_prac,left,0.7337606669025263,3,,,right,0.49935390012251446,,,,,,,,,,,,,,,,,,,,,,,,,1014,2019_May_16_1650,mf_amp_cond1,3.0.7,59.98124347096968,
strong,&&&&&&,images/symbols/symbol_60.png,condition_files/AMP_rep2.csv,left,loyalty.virtue,,,,,,,,,,,,,,0,0,0,1,0,61,61,61,,,,,,,,,,,,,,,,,,,,,1323.482951398346,,,,,,,,,,,,,,AMP_prac,left,0.7337606669025263,3,,,right,0.8504496079003729,,,,,,,,,,,,,,,,,,,,,,,,,1014,2019_May_16_1650,mf_amp_cond1,3.0.7,59.98124347096968,
gun,&&&,images/symbols/symbol_40.png,condition_files/AMP_rep2.csv,right,authority.vice,,,,,,,,,,,,,,0,0,0,1,0,62,62,62,,,,,,,,,,,,,,,,,,,,,1324.233140225002,,,,,,,,,,,,,,AMP_prac,left,0.7337606669025263,3,,,left,0.5318538945139153,,,,,,,,,,,,,,,,,,,,,,,,,1014,2019_May_16_1650,mf_amp_cond1,3.0.7,59.98124347096968,
scandal,&&&&&&&,images/symbols/symbol_61.png,condition_files/AMP_rep2.csv,right,sanctity.vice,,,,,,,,,,,,,,0,0,0,1,0,63,63,63,,,,,,,,,,,,,,,,,,,,,1325.0500279190856,,,,,,,,,,,,,,AMP_prac,left,0.7337606669025263,3,,,right,0.5994161527851247,,,,,,,,,,,,,,,,,,,,,,,,,1014,2019_May_16_1650,mf_amp_cond1,3.0.7,59.98124347096968,
voter,&&&&&,images/symbols/symbol_44.png,condition_files/AMP_rep2.csv,right,fairness.vice,,,,,,,,,,,,,,0,0,0,1,0,64,64,64,,,,,,,,,,,,,,,,,,,,,1325.6835242767738,,,,,,,,,,,,,,AMP_prac,left,0.7337606669025263,3,,,left,0.41586028463279945,,,,,,,,,,,,,,,,,,,,,,,,,1014,2019_May_16_1650,mf_amp_cond1,3.0.7,59.98124347096968,
troops,&&&&&&,images/symbols/symbol_63.png,condition_files/AMP_rep2.csv,right,loyalty.vice,,,,,,,,,,,,,,0,0,0,1,0,65,65,65,,,,,,,,,,,,,,,,,,,,,1326.7671535588088,,,,,,,,,,,,,,AMP_prac,left,0.7337606669025263,3,,,left,0.8662757674210297,,,,,,,,,,,,,,,,,,,,,,,,,1014,2019_May_16_1650,mf_amp_cond1,3.0.7,59.98124347096968,
ability,&&&&&&&,images/symbols/symbol_17.png,condition_files/AMP_rep2.csv,left,authority.virtue,,,,,,,,,,,,,,0,0,0,1,0,66,66,66,,,,,,,,,,,,,,,,,,,,,1328.134164587569,,,,,,,,,,,,,,AMP_prac,left,0.7337606669025263,3,,,right,1.1492627020597865,,,,,,,,,,,,,,,,,,,,,,,,,1014,2019_May_16_1650,mf_amp_cond1,3.0.7,59.98124347096968,
ban,&&&,images/symbols/symbol_55.png,condition_files/AMP_rep2.csv,right,loyalty.vice,,,,,,,,,,,,,,0,0,0,1,0,67,67,67,,,,,,,,,,,,,,,,,,,,,1329.0677643148265,,,,,,,,,,,,,,AMP_prac,left,0.7337606669025263,3,,,left,0.7159806526033208,,,,,,,,,,,,,,,,,,,,,,,,,1014,2019_May_16_1650,mf_amp_cond1,3.0.7,59.98124347096968,
good,&&&&,images/symbols/symbol_35.png,condition_files/AMP_rep2.csv,left,care.virtue,,,,,,,,,,,,,,0,0,0,1,0,68,68,68,,,,,,,,,,,,,,,,,,,,,1330.4514379530847,,,,,,,,,,,,,,AMP_prac,left,0.7337606669025263,3,,,right,1.1661831742057984,,,,,,,,,,,,,,,,,,,,,,,,,1014,2019_May_16_1650,mf_amp_cond1,3.0.7,59.98124347096968,
feuld,&&&&&,images/symbols/symbol_52.png,condition_files/AMP_rep2.csv,None,nonword,,,,,,,,,,,,,,0,0,0,1,0,69,69,69,,,,,,,,,,,,,,,,,,,,,1331.3349988566188,,,,,,,,,,,,,,AMP_prac,left,0.7337606669025263,3,,,left,0.6664915509900311,,,,,,,,,,,,,,,,,,,,,,,,,1014,2019_May_16_1650,mf_amp_cond1,3.0.7,59.98124347096968,
wence,&&&&&,images/symbols/symbol_5.png,condition_files/AMP_rep2.csv,None,nonword,,,,,,,,,,,,,,0,0,0,1,0,70,70,70,,,,,,,,,,,,,,,,,,,,,1332.2019170355816,,,,,,,,,,,,,,AMP_prac,left,0.7337606669025263,3,,,right,0.6493196306910249,,,,,,,,,,,,,,,,,,,,,,,,,1014,2019_May_16_1650,mf_amp_cond1,3.0.7,59.98124347096968,
prous,&&&&&,images/symbols/symbol_41.png,condition_files/AMP_rep2.csv,None,nonword,,,,,,,,,,,,,,0,0,0,1,0,71,71,71,,,,,,,,,,,,,,,,,,,,,1332.9354458185371,,,,,,,,,,,,,,AMP_prac,left,0.7337606669025263,3,,,right,0.5165633452088514,,,,,,,,,,,,,,,,,,,,,,,,,1014,2019_May_16_1650,mf_amp_cond1,3.0.7,59.98124347096968,
failure,&&&&&&&,images/symbols/symbol_6.png,condition_files/AMP_rep2.csv,right,loyalty.vice,,,,,,,,,,,,,,0,0,0,1,0,72,72,72,,,,,,,,,,,,,,,,,,,,,1333.5856172939893,,,,,,,,,,,,,,AMP_prac,left,0.7337606669025263,3,,,right,0.41701008262316464,,,,,,,,,,,,,,,,,,,,,,,,,1014,2019_May_16_1650,mf_amp_cond1,3.0.7,59.98124347096968,
refused,&&&&&&&,images/symbols/symbol_29.png,condition_files/AMP_rep2.csv,right,authority.vice,,,,,,,,,,,,,,0,0,0,1,0,73,73,73,,,,,,,,,,,,,,,,,,,,,1334.419179785109,,,,,,,,,,,,,,AMP_prac,left,0.7337606669025263,3,,,left,0.6152038253458159,,,,,,,,,,,,,,,,,,,,,,,,,1014,2019_May_16_1650,mf_amp_cond1,3.0.7,59.98124347096968,
thripht,&&&&&&&,images/symbols/symbol_34.png,condition_files/AMP_rep2.csv,None,nonword,,,,,,,,,,,,,,0,0,0,1,0,74,74,74,,,,,,,,,,,,,,,,,,,,,1335.5027689765593,,,,,,,,,,,,,,AMP_prac,left,0.7337606669025263,3,,,right,0.8660445249261102,,,,,,,,,,,,,,,,,,,,,,,,,1014,2019_May_16_1650,mf_amp_cond1,3.0.7,59.98124347096968,
credit,&&&&&&,images/symbols/symbol_28.png,condition_files/AMP_rep2.csv,left,fairness.virtue,,,,,,,,,,,,,,0,0,0,1,0,75,75,75,,,,,,,,,,,,,,,,,,,,,1336.3196691789053,,,,,,,,,,,,,,AMP_prac,left,0.7337606669025263,3,,,left,0.5993718927784357,,,,,,,,,,,,,,,,,,,,,,,,,1014,2019_May_16_1650,mf_amp_cond1,3.0.7,59.98124347096968,
death,&&&&&,images/symbols/symbol_53.png,condition_files/AMP_rep2.csv,right,care.vice,,,,,,,,,,,,,,0,0,0,1,0,76,76,76,,,,,,,,,,,,,,,,,,,,,1337.3365915753966,,,,,,,,,,,,,,AMP_prac,left,0.7337606669025263,3,,,left,0.7837703046789102,,,,,,,,,,,,,,,,,,,,,,,,,1014,2019_May_16_1650,mf_amp_cond1,3.0.7,59.98124347096968,
violations,&&&&&&&&&&,images/symbols/symbol_36.png,condition_files/AMP_rep2.csv,right,sanctity.vice,,,,,,,,,,,,,,0,0,0,1,0,77,77,77,,,,,,,,,,,,,,,,,,,,,1338.1534555358521,,,,,,,,,,,,,,AMP_prac,left,0.7337606669025263,3,,,right,0.5988523187916144,,,,,,,,,,,,,,,,,,,,,,,,,1014,2019_May_16_1650,mf_amp_cond1,3.0.7,59.98124347096968,
penalty,&&&&&&&,images/symbols/symbol_31.png,condition_files/AMP_rep2.csv,right,authority.vice,,,,,,,,,,,,,,0,0,0,1,0,78,78,78,,,,,,,,,,,,,,,,,,,,,1338.8870170327282,,,,,,,,,,,,,,AMP_prac,left,0.7337606669025263,3,,,right,0.5004171024520474,,,,,,,,,,,,,,,,,,,,,,,,,1014,2019_May_16_1650,mf_amp_cond1,3.0.7,59.98124347096968,
war,&&&,images/symbols/symbol_32.png,condition_files/AMP_rep2.csv,right,sanctity.vice,,,,,,,,,,,,,,0,0,0,1,0,79,79,79,,,,,,,,,,,,,,,,,,,,,1339.6871988194762,,,,,,,,,,,,,,AMP_prac,left,0.7337606669025263,3,,,left,0.5822346107488556,,,,,,,,,,,,,,,,,,,,,,,,,1014,2019_May_16_1650,mf_amp_cond1,3.0.7,59.98124347096968,
frord,&&&&&,images/symbols/symbol_46.png,condition_files/AMP_rep2.csv,None,nonword,,,,,,,,,,,,,,0,0,0,1,0,80,80,80,,,,,,,,,,,,,,,,,,,,,1340.4041009141001,,,,,,,,,,,,,,AMP_prac,left,0.7337606669025263,3,,,right,0.4994446652090119,,,,,,,,,,,,,,,,,,,,,,,,,1014,2019_May_16_1650,mf_amp_cond1,3.0.7,59.98124347096968,
rejected,&&&&&&&&,images/symbols/symbol_22.png,condition_files/AMP_rep2.csv,right,authority.vice,,,,,,,,,,,,,,0,0,0,1,0,81,81,81,,,,,,,,,,,,,,,,,,,,,1341.0208804598187,,,,,,,,,,,,,,AMP_prac,left,0.7337606669025263,3,,,right,0.3993301344271458,,,,,,,,,,,,,,,,,,,,,,,,,1014,2019_May_16_1650,mf_amp_cond1,3.0.7,59.98124347096968,
,,,condition_files/AMP_rep2.csv,,,,,,,,,,,,,,,,0,0,0,1,,,,,,,,,,,,,,,,,,,,,,,,,,,,,,,,,,,,,,,,,,,,,,,right,6.318538945117325,,,,,,,,,,,,,,,,,,,,,,,1014,2019_May_16_1650,mf_amp_cond1,3.0.7,59.98124347096968,
crime,&&&&&,images/symbols/symbol_15.png,condition_files/AMP_rep1.csv,right,fairness.vice,,,,,,,,,,,,,,0,1,1,0,0,0,0,0,,,,,,,,,,,,,,,,,,,,,1348.2062413664935,,,,,,,,,,,,,,AMP_prac,left,0.7337606669025263,3,,,left,0.6158071084792027,,,,,,,,,,,,,,,,,,,,,,,,,1014,2019_May_16_1650,mf_amp_cond1,3.0.7,59.98124347096968,
prison,&&&&&&,images/symbols/symbol_77.png,condition_files/AMP_rep1.csv,right,fairness.vice,,,,,,,,,,,,,,0,1,1,0,0,1,1,1,,,,,,,,,,,,,,,,,,,,,1349.1230078587178,,,,,,,,,,,,,,AMP_prac,left,0.7337606669025263,3,,,right,0.699218939174898,,,,,,,,,,,,,,,,,,,,,,,,,1014,2019_May_16_1650,mf_amp_cond1,3.0.7,59.98124347096968,
stroad,&&&&&&,images/symbols/symbol_38.png,condition_files/AMP_rep1.csv,None,nonword,,,,,,,,,,,,,,0,1,1,0,0,2,2,2,,,,,,,,,,,,,,,,,,,,,1349.873214966683,,,,,,,,,,,,,,AMP_prac,left,0.7337606669025263,3,,,right,0.5326425565108366,,,,,,,,,,,,,,,,,,,,,,,,,1014,2019_May_16_1650,mf_amp_cond1,3.0.7,59.98124347096968,
care,&&&&,images/symbols/symbol_66.png,condition_files/AMP_rep1.csv,left,care.virtue,,,,,,,,,,,,,,0,1,1,0,0,3,3,3,,,,,,,,,,,,,,,,,,,,,1351.0401710873775,,,,,,,,,,,,,,AMP_prac,left,0.7337606669025263,3,,,left,0.9338030667058774,,,,,,,,,,,,,,,,,,,,,,,,,1014,2019_May_16_1650,mf_amp_cond1,3.0.7,59.98124347096968,
opportunity,&&&&&&&&&&&,images/symbols/symbol_76.png,condition_files/AMP_rep1.csv,left,fairness.virtue,,,,,,,,,,,,,,0,1,1,0,0,4,4,4,,,,,,,,,,,,,,,,,,,,,1351.8737265225536,,,,,,,,,,,,,,AMP_prac,left,0.7337606669025263,3,,,right,0.6159062124061165,,,,,,,,,,,,,,,,,,,,,,,,,1014,2019_May_16_1650,mf_amp_cond1,3.0.7,59.98124347096968,
love,&&&&,images/symbols/symbol_42.png,condition_files/AMP_rep1.csv,left,loyalty.virtue,,,,,,,,,,,,,,0,1,1,0,0,5,5,5,,,,,,,,,,,,,,,,,,,,,1352.673938778149,,,,,,,,,,,,,,AMP_prac,left,0.7337606669025263,3,,,left,0.5826974164665444,,,,,,,,,,,,,,,,,,,,,,,,,1014,2019_May_16_1650,mf_amp_cond1,3.0.7,59.98124347096968,
terrorist,&&&&&&&&&,images/symbols/symbol_13.png,condition_files/AMP_rep1.csv,right,loyalty.vice,,,,,,,,,,,,,,0,1,1,0,0,6,6,6,,,,,,,,,,,,,,,,,,,,,1353.4408325499644,,,,,,,,,,,,,,AMP_prac,left,0.7337606669025263,3,,,right,0.5493157499222434,,,,,,,,,,,,,,,,,,,,,,,,,1014,2019_May_16_1650,mf_amp_cond1,3.0.7,59.98124347096968,
terrorists,&&&&&&&&&&,images/symbols/symbol_12.png,condition_files/AMP_rep1.csv,right,fairness.vice,,,,,,,,,,,,,,0,1,1,0,0,7,7,7,,,,,,,,,,,,,,,,,,,,,1354.2910287853629,,,,,,,,,,,,,,AMP_prac,left,0.7337606669025263,3,,,right,0.6170608212669322,,,,,,,,,,,,,,,,,,,,,,,,,1014,2019_May_16_1650,mf_amp_cond1,3.0.7,59.98124347096968,
civilians,&&&&&&&&&,images/symbols/symbol_45.png,condition_files/AMP_rep1.csv,right,care.vice,,,,,,,,,,,,,,0,1,1,0,0,8,8,8,,,,,,,,,,,,,,,,,,,,,1354.9411996193667,,,,,,,,,,,,,,AMP_prac,left,0.7337606669025263,3,,,right,0.43189619809709257,,,,,,,,,,,,,,,,,,,,,,,,,1014,2019_May_16_1650,mf_amp_cond1,3.0.7,59.98124347096968,
phegned,&&&&&&&,images/symbols/symbol_54.png,condition_files/AMP_rep1.csv,None,nonword,,,,,,,,,,,,,,0,1,1,0,0,9,9,9,,,,,,,,,,,,,,,,,,,,,1355.624720368167,,,,,,,,,,,,,,AMP_prac,left,0.7337606669025263,3,,,left,0.46559281627924065,,,,,,,,,,,,,,,,,,,,,,,,,1014,2019_May_16_1650,mf_amp_cond1,3.0.7,59.98124347096968,
suicide,&&&&&&&,images/symbols/symbol_27.png,condition_files/AMP_rep1.csv,right,care.vice,,,,,,,,,,,,,,0,1,1,0,0,10,10,10,,,,,,,,,,,,,,,,,,,,,1356.2915560567417,,,,,,,,,,,,,,AMP_prac,left,0.7337606669025263,3,,,right,0.4492233491400839,,,,,,,,,,,,,,,,,,,,,,,,,1014,2019_May_16_1650,mf_amp_cond1,3.0.7,59.98124347096968,
yakks,&&&&&,images/symbols/symbol_21.png,condition_files/AMP_rep1.csv,None,nonword,,,,,,,,,,,,,,0,1,1,0,0,11,11,11,,,,,,,,,,,,,,,,,,,,,1357.1584456912096,,,,,,,,,,,,,,AMP_prac,left,0.7337606669025263,3,,,right,0.6495181592690642,,,,,,,,,,,,,,,,,,,,,,,,,1014,2019_May_16_1650,mf_amp_cond1,3.0.7,59.98124347096968,
serial,&&&&&&,images/symbols/symbol_24.png,condition_files/AMP_rep1.csv,right,sanctity.vice,,,,,,,,,,,,,,0,1,1,0,0,12,12,12,,,,,,,,,,,,,,,,,,,,,1357.858636105455,,,,,,,,,,,,,,AMP_prac,left,0.7337606669025263,3,,,right,0.48235581260451,,,,,,,,,,,,,,,,,,,,,,,,,1014,2019_May_16_1650,mf_amp_cond1,3.0.7,59.98124347096968,
violence,&&&&&&&&,images/symbols/symbol_16.png,condition_files/AMP_rep1.csv,right,care.vice,,,,,,,,,,,,,,0,1,1,0,0,13,13,13,,,,,,,,,,,,,,,,,,,,,1358.5421350449797,,,,,,,,,,,,,,AMP_prac,left,0.7337606669025263,3,,,right,0.46593631241921685,,,,,,,,,,,,,,,,,,,,,,,,,1014,2019_May_16_1650,mf_amp_cond1,3.0.7,59.98124347096968,
slavery,&&&&&&&,images/symbols/symbol_23.png,condition_files/AMP_rep1.csv,right,loyalty.vice,,,,,,,,,,,,,,0,1,1,0,0,14,14,14,,,,,,,,,,,,,,,,,,,,,1359.625770420782,,,,,,,,,,,,,,AMP_prac,left,0.7337606669025263,3,,,left,0.8659085376566509,,,,,,,,,,,,,,,,,,,,,,,,,1014,2019_May_16_1650,mf_amp_cond1,3.0.7,59.98124347096968,
energy,&&&&&&,images/symbols/symbol_58.png,condition_files/AMP_rep1.csv,left,sanctity.virtue,,,,,,,,,,,,,,0,1,1,0,0,15,15,15,,,,,,,,,,,,,,,,,,,,,1360.3926603439031,,,,,,,,,,,,,,AMP_prac,left,0.7337606669025263,3,,,left,0.5494238341416349,,,,,,,,,,,,,,,,,,,,,,,,,1014,2019_May_16_1650,mf_amp_cond1,3.0.7,59.98124347096968,
compassion,&&&&&&&&&&,images/symbols/symbol_72.png,condition_files/AMP_rep1.csv,left,care.virtue,,,,,,,,,,,,,,0,1,1,0,0,16,16,16,,,,,,,,,,,,,,,,,,,,,1361.1261487155462,,,,,,,,,,,,,,AMP_prac,left,0.7337606669025263,3,,,right,0.515976098311512,,,,,,,,,,,,,,,,,,,,,,,,,1014,2019_May_16_1650,mf_amp_cond1,3.0.7,59.98124347096968,
freedom,&&&&&&&,images/symbols/symbol_48.png,condition_files/AMP_rep1.csv,left,sanctity.virtue,,,,,,,,,,,,,,0,1,1,0,0,17,17,17,,,,,,,,,,,,,,,,,,,,,1361.9096996445405,,,,,,,,,,,,,,AMP_prac,left,0.7337606669025263,3,,,right,0.5659937542077387,,,,,,,,,,,,,,,,,,,,,,,,,1014,2019_May_16_1650,mf_amp_cond1,3.0.7,59.98124347096968,
benefit,&&&&&&&,images/symbols/symbol_2.png,condition_files/AMP_rep1.csv,left,fairness.virtue,,,,,,,,,,,,,,0,1,1,0,0,18,18,18,,,,,,,,,,,,,,,,,,,,,1362.6932271606347,,,,,,,,,,,,,,AMP_prac,left,0.7337606669025263,3,,,right,0.5659270434734935,,,,,,,,,,,,,,,,,,,,,,,,,1014,2019_May_16_1650,mf_amp_cond1,3.0.7,59.98124347096968,
accused,&&&&&&&,images/symbols/symbol_67.png,condition_files/AMP_rep1.csv,right,fairness.vice,,,,,,,,,,,,,,0,1,1,0,0,19,19,19,,,,,,,,,,,,,,,,,,,,,1363.3934249515478,,,,,,,,,,,,,,AMP_prac,left,0.7337606669025263,3,,,left,0.4822336165016168,,,,,,,,,,,,,,,,,,,,,,,,,1014,2019_May_16_1650,mf_amp_cond1,3.0.7,59.98124347096968,
conspiracy,&&&&&&&&&&,images/symbols/symbol_4.png,condition_files/AMP_rep1.csv,right,sanctity.vice,,,,,,,,,,,,,,0,1,1,0,0,20,20,20,,,,,,,,,,,,,,,,,,,,,1364.2269823110728,,,,,,,,,,,,,,AMP_prac,left,0.7337606669025263,3,,,left,0.6159616977747646,,,,,,,,,,,,,,,,,,,,,,,,,1014,2019_May_16_1650,mf_amp_cond1,3.0.7,59.98124347096968,
promised,&&&&&&&&,images/symbols/symbol_20.png,condition_files/AMP_rep1.csv,left,loyalty.virtue,,,,,,,,,,,,,,0,1,1,0,0,21,21,21,,,,,,,,,,,,,,,,,,,,,1364.9271518782116,,,,,,,,,,,,,,AMP_prac,left,0.7337606669025263,3,,,right,0.4832625012859353,,,,,,,,,,,,,,,,,,,,,,,,,1014,2019_May_16_1650,mf_amp_cond1,3.0.7,59.98124347096968,
peaceful,&&&&&&&&,images/symbols/symbol_69.png,condition_files/AMP_rep1.csv,left,authority.virtue,,,,,,,,,,,,,,0,1,1,0,0,22,22,22,,,,,,,,,,,,,,,,,,,,,1365.7940501722478,,,,,,,,,,,,,,AMP_prac,left,0.7337606669025263,3,,,left,0.6493170648936939,,,,,,,,,,,,,,,,,,,,,,,,,1014,2019_May_16_1650,mf_amp_cond1,3.0.7,59.98124347096968,
safety,&&&&&&,images/symbols/symbol_51.png,condition_files/AMP_rep1.csv,left,care.virtue,,,,,,,,,,,,,,0,1,1,0,0,23,23,23,,,,,,,,,,,,,,,,,,,,,1366.894346874651,,,,,,,,,,,,,,AMP_prac,left,0.7337606669025263,3,,,left,0.8831166998461413,,,,,,,,,,,,,,,,,,,,,,,,,1014,2019_May_16_1650,mf_amp_cond1,3.0.7,59.98124347096968,
killed,&&&&&&,images/symbols/symbol_56.png,condition_files/AMP_rep1.csv,right,care.vice,,,,,,,,,,,,,,0,1,1,0,0,24,24,24,,,,,,,,,,,,,,,,,,,,,1367.6612271760314,,,,,,,,,,,,,,AMP_prac,left,0.7337606669025263,3,,,right,0.5337304546374071,,,,,,,,,,,,,,,,,,,,,,,,,1014,2019_May_16_1650,mf_amp_cond1,3.0.7,59.98124347096968,
clean,&&&&&,images/symbols/symbol_47.png,condition_files/AMP_rep1.csv,left,sanctity.virtue,,,,,,,,,,,,,,0,1,1,0,0,25,25,25,,,,,,,,,,,,,,,,,,,,,1368.728184868276,,,,,,,,,,,,,,AMP_prac,left,0.7337606669025263,3,,,right,0.8488219301289064,,,,,,,,,,,,,,,,,,,,,,,,,1014,2019_May_16_1650,mf_amp_cond1,3.0.7,59.98124347096968,
praise,&&&&&&,images/symbols/symbol_57.png,condition_files/AMP_rep1.csv,left,authority.virtue,,,,,,,,,,,,,,0,1,1,0,0,26,26,26,,,,,,,,,,,,,,,,,,,,,1370.0785207792724,,,,,,,,,,,,,,AMP_prac,left,0.7337606669025263,3,,,right,1.1328775194160698,,,,,,,,,,,,,,,,,,,,,,,,,1014,2019_May_16_1650,mf_amp_cond1,3.0.7,59.98124347096968,
abuse,&&&&&,images/symbols/symbol_65.png,condition_files/AMP_rep1.csv,right,sanctity.vice,,,,,,,,,,,,,,0,1,1,0,0,27,27,27,,,,,,,,,,,,,,,,,,,,,1371.0287587409512,,,,,,,,,,,,,,AMP_prac,left,0.7337606669025263,3,,,left,0.7326833526894916,,,,,,,,,,,,,,,,,,,,,,,,,1014,2019_May_16_1650,mf_amp_cond1,3.0.7,59.98124347096968,
fair,&&&&,images/symbols/symbol_37.png,condition_files/AMP_rep1.csv,left,fairness.virtue,,,,,,,,,,,,,,0,1,1,0,0,28,28,28,,,,,,,,,,,,,,,,,,,,,1371.8958655060305,,,,,,,,,,,,,,AMP_prac,left,0.7337606669025263,3,,,left,0.6339136205024261,,,,,,,,,,,,,,,,,,,,,,,,,1014,2019_May_16_1650,mf_amp_cond1,3.0.7,59.98124347096968,
powerful,&&&&&&&&,images/symbols/symbol_18.png,condition_files/AMP_rep1.csv,left,authority.virtue,,,,,,,,,,,,,,0,1,1,0,0,29,29,29,,,,,,,,,,,,,,,,,,,,,1372.6458394471483,,,,,,,,,,,,,,AMP_prac,left,0.7337606669025263,3,,,right,0.5323240768957476,,,,,,,,,,,,,,,,,,,,,,,,,1014,2019_May_16_1650,mf_amp_cond1,3.0.7,59.98124347096968,
help,&&&&,images/symbols/symbol_30.png,condition_files/AMP_rep1.csv,left,care.virtue,,,,,,,,,,,,,,0,1,1,0,0,30,30,30,,,,,,,,,,,,,,,,,,,,,1373.362734806553,,,,,,,,,,,,,,AMP_prac,left,0.7337606669025263,3,,,right,0.49956365406978875,,,,,,,,,,,,,,,,,,,,,,,,,1014,2019_May_16_1650,mf_amp_cond1,3.0.7,59.98124347096968,
unpleasant,&&&&&&&&&,images/symbols/symbol_14.png,condition_files/AMP_rep1.csv,left,control,,,,,,,,,,,,,,0,1,1,0,0,31,31,31,,,,,,,,,,,,,,,,,,,,,1374.0795900753692,,,,,,,,,,,,,,AMP_prac,left,0.7337606669025263,3,,,right,0.49937827519897837,,,,,,,,,,,,,,,,,,,,,,,,,1014,2019_May_16_1650,mf_amp_cond1,3.0.7,59.98124347096968,
threatened,&&&&&&&&&&,images/symbols/symbol_19.png,condition_files/AMP_rep1.csv,right,fairness.vice,,,,,,,,,,,,,,0,1,1,0,0,32,32,32,,,,,,,,,,,,,,,,,,,,,1375.0798530696084,,,,,,,,,,,,,,AMP_prac,left,0.7337606669025263,3,,,left,0.7827218556885782,,,,,,,,,,,,,,,,,,,,,,,,,1014,2019_May_16_1650,mf_amp_cond1,3.0.7,59.98124347096968,
commitment,&&&&&&&&&&,images/symbols/symbol_74.png,condition_files/AMP_rep1.csv,left,sanctity.virtue,,,,,,,,,,,,,,0,1,1,0,0,33,33,33,,,,,,,,,,,,,,,,,,,,,1375.8967032389046,,,,,,,,,,,,,,AMP_prac,left,0.7337606669025263,3,,,left,0.5837170002341736,,,,,,,,,,,,,,,,,,,,,,,,,1014,2019_May_16_1650,mf_amp_cond1,3.0.7,59.98124347096968,
men,&&&,images/symbols/symbol_75.png,condition_files/AMP_rep1.csv,right,loyalty.vice,,,,,,,,,,,,,,0,1,1,0,0,34,34,34,,,,,,,,,,,,,,,,,,,,,1376.8302872506501,,,,,,,,,,,,,,AMP_prac,left,0.7337606669025263,3,,,left,0.7004245432617608,,,,,,,,,,,,,,,,,,,,,,,,,1014,2019_May_16_1650,mf_amp_cond1,3.0.7,59.98124347096968,
growth,&&&&&&,images/symbols/symbol_33.png,condition_files/AMP_rep1.csv,left,care.virtue,,,,,,,,,,,,,,0,1,1,0,0,35,35,35,,,,,,,,,,,,,,,,,,,,,1377.6138150874685,,,,,,,,,,,,,,AMP_prac,left,0.7337606669025263,3,,,right,0.5654270336890477,,,,,,,,,,,,,,,,,,,,,,,,,1014,2019_May_16_1650,mf_amp_cond1,3.0.7,59.98124347096968,
faith,&&&&&,images/symbols/symbol_9.png,condition_files/AMP_rep1.csv,left,sanctity.virtue,,,,,,,,,,,,,,0,1,1,0,0,36,36,36,,,,,,,,,,,,,,,,,,,,,1378.5641297023467,,,,,,,,,,,,,,AMP_prac,left,0.7337606669025263,3,,,right,0.7327308199419349,,,,,,,,,,,,,,,,,,,,,,,,,1014,2019_May_16_1650,mf_amp_cond1,3.0.7,59.98124347096968,
rebels,&&&&&&,images/symbols/symbol_64.png,condition_files/AMP_rep1.csv,right,authority.vice,,,,,,,,,,,,,,0,1,1,0,0,37,37,37,,,,,,,,,,,,,,,,,,,,,1379.430963209994,,,,,,,,,,,,,,AMP_prac,left,0.7337606669025263,3,,,left,0.6492830680763291,,,,,,,,,,,,,,,,,,,,,,,,,1014,2019_May_16_1650,mf_amp_cond1,3.0.7,59.98124347096968,
attacks,&&&&&&&,images/symbols/symbol_78.png,condition_files/AMP_rep1.csv,right,care.vice,,,,,,,,,,,,,,0,1,1,0,0,38,38,38,,,,,,,,,,,,,,,,,,,,,1380.247734481014,,,,,,,,,,,,,,AMP_prac,left,0.7337606669025263,3,,,right,0.5991547621670179,,,,,,,,,,,,,,,,,,,,,,,,,1014,2019_May_16_1650,mf_amp_cond1,3.0.7,59.98124347096968,
actively,&&&&&&&&,images/symbols/symbol_73.png,condition_files/AMP_rep1.csv,left,authority.virtue,,,,,,,,,,,,,,0,1,1,0,0,39,39,39,,,,,,,,,,,,,,,,,,,,,1381.8482580961354,,,,,,,,,,,,,,AMP_prac,left,0.7337606669025263,3,,,right,1.3825238402678224,,,,,,,,,,,,,,,,,,,,,,,,,1014,2019_May_16_1650,mf_amp_cond1,3.0.7,59.98124347096968,
lies,&&&&,images/symbols/symbol_1.png,condition_files/AMP_rep1.csv,right,fairness.vice,,,,,,,,,,,,,,0,1,1,0,0,40,40,40,,,,,,,,,,,,,,,,,,,,,1382.7151573523406,,,,,,,,,,,,,,AMP_prac,left,0.7337606669025263,3,,,right,0.6492182816909917,,,,,,,,,,,,,,,,,,,,,,,,,1014,2019_May_16_1650,mf_amp_cond1,3.0.7,59.98124347096968,
intelligence,&&&&&&&&&&&&,images/symbols/symbol_7.png,condition_files/AMP_rep1.csv,left,loyalty.virtue,,,,,,,,,,,,,,0,1,1,0,0,41,41,41,,,,,,,,,,,,,,,,,,,,,1383.8154405843088,,,,,,,,,,,,,,AMP_prac,left,0.7337606669025263,3,,,right,0.8827584503742401,,,,,,,,,,,,,,,,,,,,,,,,,1014,2019_May_16_1650,mf_amp_cond1,3.0.7,59.98124347096968,
prosecution,&&&&&&&&&&&,images/symbols/symbol_10.png,condition_files/AMP_rep1.csv,right,authority.vice,,,,,,,,,,,,,,0,1,1,0,0,42,42,42,,,,,,,,,,,,,,,,,,,,,1384.5823026043836,,,,,,,,,,,,,,AMP_prac,left,0.7337606669025263,3,,,left,0.5495126748792245,,,,,,,,,,,,,,,,,,,,,,,,,1014,2019_May_16_1650,mf_amp_cond1,3.0.7,59.98124347096968,
fighters,&&&&&&&&,images/symbols/symbol_71.png,condition_files/AMP_rep1.csv,right,authority.vice,,,,,,,,,,,,,,0,1,1,0,0,43,43,43,,,,,,,,,,,,,,,,,,,,,1385.432539251091,,,,,,,,,,,,,,AMP_prac,left,0.7337606669025263,3,,,left,0.6327525971501018,,,,,,,,,,,,,,,,,,,,,,,,,1014,2019_May_16_1650,mf_amp_cond1,3.0.7,59.98124347096968,
pleasant,&&&&&&&,images/symbols/symbol_59.png,condition_files/AMP_rep1.csv,right,control,,,,,,,,,,,,,,0,1,1,0,0,44,44,44,,,,,,,,,,,,,,,,,,,,,1386.299444601067,,,,,,,,,,,,,,AMP_prac,left,0.7337606669025263,3,,,right,0.6493424021427927,,,,,,,,,,,,,,,,,,,,,,,,,1014,2019_May_16_1650,mf_amp_cond1,3.0.7,59.98124347096968,
perfect,&&&&&&&,images/symbols/symbol_49.png,condition_files/AMP_rep1.csv,left,sanctity.virtue,,,,,,,,,,,,,,0,1,1,0,0,45,45,45,,,,,,,,,,,,,,,,,,,,,1387.4830607654621,,,,,,,,,,,,,,AMP_prac,left,0.7337606669025263,3,,,right,0.9504752979446494,,,,,,,,,,,,,,,,,,,,,,,,,1014,2019_May_16_1650,mf_amp_cond1,3.0.7,59.98124347096968,
cifte,&&&&&,images/symbols/symbol_50.png,condition_files/AMP_rep1.csv,None,nonword,,,,,,,,,,,,,,0,1,1,0,0,46,46,46,,,,,,,,,,,,,,,,,,,,,1388.1832781205812,,,,,,,,,,,,,,AMP_prac,left,0.7337606669025263,3,,,right,0.4820126371923834,,,,,,,,,,,,,,,,,,,,,,,,,1014,2019_May_16_1650,mf_amp_cond1,3.0.7,59.98124347096968,
trust,&&&&&,images/symbols/symbol_25.png,condition_files/AMP_rep1.csv,left,authority.virtue,,,,,,,,,,,,,,0,1,1,0,0,47,47,47,,,,,,,,,,,,,,,,,,,,,1388.7834101308617,,,,,,,,,,,,,,AMP_prac,left,0.7337606669025263,3,,,right,0.38259183389891405,,,,,,,,,,,,,,,,,,,,,,,,,1014,2019_May_16_1650,mf_amp_cond1,3.0.7,59.98124347096968,
sexual,&&&&&&,images/symbols/symbol_26.png,condition_files/AMP_rep1.csv,right,sanctity.vice,,,,,,,,,,,,,,0,1,1,0,0,48,48,48,,,,,,,,,,,,,,,,,,,,,1389.4669478780706,,,,,,,,,,,,,,AMP_prac,left,0.7337606669025263,3,,,right,0.46596998850873206,,,,,,,,,,,,,,,,,,,,,,,,,1014,2019_May_16_1650,mf_amp_cond1,3.0.7,59.98124347096968,
sharing,&&&&&&&,images/symbols/symbol_70.png,condition_files/AMP_rep1.csv,left,loyalty.virtue,,,,,,,,,,,,,,0,1,1,0,0,49,49,49,,,,,,,,,,,,,,,,,,,,,1390.1170949784464,,,,,,,,,,,,,,AMP_prac,left,0.7337606669025263,3,,,right,0.43270602792472346,,,,,,,,,,,,,,,,,,,,,,,,,1014,2019_May_16_1650,mf_amp_cond1,3.0.7,59.98124347096968,
values,&&&&&&,images/symbols/symbol_80.png,condition_files/AMP_rep1.csv,left,sanctity.virtue,,,,,,,,,,,,,,0,1,1,0,0,50,50,50,,,,,,,,,,,,,,,,,,,,,1390.9340028781844,,,,,,,,,,,,,,AMP_prac,left,0.7337606669025263,3,,,left,0.5997416883401456,,,,,,,,,,,,,,,,,,,,,,,,,1014,2019_May_16_1650,mf_amp_cond1,3.0.7,59.98124347096968,
torture,&&&&&&&,images/symbols/symbol_82.png,condition_files/AMP_rep1.csv,right,care.vice,,,,,,,,,,,,,,0,1,1,0,0,51,51,51,,,,,,,,,,,,,,,,,,,,,1391.700836995209,,,,,,,,,,,,,,AMP_prac,left,0.7337606669025263,3,,,left,0.5497112034609017,,,,,,,,,,,,,,,,,,,,,,,,,1014,2019_May_16_1650,mf_amp_cond1,3.0.7,59.98124347096968,
safe,&&&&,images/symbols/symbol_11.png,condition_files/AMP_rep1.csv,left,care.virtue,,,,,,,,,,,,,,0,1,1,0,0,52,52,52,,,,,,,,,,,,,,,,,,,,,1392.8511494291597,,,,,,,,,,,,,,AMP_prac,left,0.7337606669025263,3,,,right,0.9324024620109412,,,,,,,,,,,,,,,,,,,,,,,,,1014,2019_May_16_1650,mf_amp_cond1,3.0.7,59.98124347096968,
praised,&&&&&&&,images/symbols/symbol_79.png,condition_files/AMP_rep1.csv,left,loyalty.virtue,,,,,,,,,,,,,,0,1,1,0,0,53,53,53,,,,,,,,,,,,,,,,,,,,,1393.6180156186529,,,,,,,,,,,,,,AMP_prac,left,0.7337606669025263,3,,,right,0.5492403796233702,,,,,,,,,,,,,,,,,,,,,,,,,1014,2019_May_16_1650,mf_amp_cond1,3.0.7,59.98124347096968,
rhoalled,&&&&&&&&,images/symbols/symbol_43.png,condition_files/AMP_rep1.csv,None,nonword,,,,,,,,,,,,,,0,1,1,0,0,54,54,54,,,,,,,,,,,,,,,,,,,,,1394.6849518223426,,,,,,,,,,,,,,AMP_prac,left,0.7337606669025263,3,,,right,0.8337546052061953,,,,,,,,,,,,,,,,,,,,,,,,,1014,2019_May_16_1650,mf_amp_cond1,3.0.7,59.98124347096968,
agreement,&&&&&&&&&,images/symbols/symbol_68.png,condition_files/AMP_rep1.csv,left,fairness.virtue,,,,,,,,,,,,,,0,1,1,0,0,55,55,55,,,,,,,,,,,,,,,,,,,,,1395.5350637071497,,,,,,,,,,,,,,AMP_prac,left,0.7337606669025263,3,,,left,0.6169296448679233,,,,,,,,,,,,,,,,,,,,,,,,,1014,2019_May_16_1650,mf_amp_cond1,3.0.7,59.98124347096968,
encourage,&&&&&&&&&,images/symbols/symbol_62.png,condition_files/AMP_rep1.csv,left,authority.virtue,,,,,,,,,,,,,,0,1,1,0,0,56,56,56,,,,,,,,,,,,,,,,,,,,,1396.3187223996392,,,,,,,,,,,,,,AMP_prac,left,0.7337606669025263,3,,,right,0.5653619265794987,,,,,,,,,,,,,,,,,,,,,,,,,1014,2019_May_16_1650,mf_amp_cond1,3.0.7,59.98124347096968,
free,&&&&,images/symbols/symbol_8.png,condition_files/AMP_rep1.csv,left,fairness.virtue,,,,,,,,,,,,,,0,1,1,0,0,57,57,57,,,,,,,,,,,,,,,,,,,,,1397.1689644986654,,,,,,,,,,,,,,AMP_prac,left,0.7337606669025263,3,,,right,0.632815779910743,,,,,,,,,,,,,,,,,,,,,,,,,1014,2019_May_16_1650,mf_amp_cond1,3.0.7,59.98124347096968,
win,&&&,images/symbols/symbol_3.png,condition_files/AMP_rep1.csv,left,fairness.virtue,,,,,,,,,,,,,,0,1,1,0,0,58,58,58,,,,,,,,,,,,,,,,,,,,,1397.802429104613,,,,,,,,,,,,,,AMP_prac,left,0.7337606669025263,3,,,right,0.4159690103006142,,,,,,,,,,,,,,,,,,,,,,,,,1014,2019_May_16_1650,mf_amp_cond1,3.0.7,59.98124347096968,
blamed,&&&&&&,images/symbols/symbol_81.png,condition_files/AMP_rep1.csv,right,loyalty.vice,,,,,,,,,,,,,,0,1,1,0,0,59,59,59,,,,,,,,,,,,,,,,,,,,,1398.635993520078,,,,,,,,,,,,,,AMP_prac,left,0.7337606669025263,3,,,left,0.6160235976385593,,,,,,,,,,,,,,,,,,,,,,,,,1014,2019_May_16_1650,mf_amp_cond1,3.0.7,59.98124347096968,
support,&&&&&&&,images/symbols/symbol_39.png,condition_files/AMP_rep1.csv,left,loyalty.virtue,,,,,,,,,,,,,,0,1,1,0,0,60,60,60,,,,,,,,,,,,,,,,,,,,,1399.336181368526,,,,,,,,,,,,,,AMP_prac,left,0.7337606669025263,3,,,right,0.48256813234547735,,,,,,,,,,,,,,,,,,,,,,,,,1014,2019_May_16_1650,mf_amp_cond1,3.0.7,59.98124347096968,
strong,&&&&&&,images/symbols/symbol_60.png,condition_files/AMP_rep1.csv,left,loyalty.virtue,,,,,,,,,,,,,,0,1,1,0,0,61,61,61,,,,,,,,,,,,,,,,,,,,,1400.2531008464248,,,,,,,,,,,,,,AMP_prac,left,0.7337606669025263,3,,,right,0.6837555192723812,,,,,,,,,,,,,,,,,,,,,,,,,1014,2019_May_16_1650,mf_amp_cond1,3.0.7,59.98124347096968,
gun,&&&,images/symbols/symbol_40.png,condition_files/AMP_rep1.csv,right,authority.vice,,,,,,,,,,,,,,0,1,1,0,0,62,62,62,,,,,,,,,,,,,,,,,,,,,1400.9866084615533,,,,,,,,,,,,,,AMP_prac,left,0.7337606669025263,3,,,left,0.5152005860290956,,,,,,,,,,,,,,,,,,,,,,,,,1014,2019_May_16_1650,mf_amp_cond1,3.0.7,59.98124347096968,
scandal,&&&&&&&,images/symbols/symbol_61.png,condition_files/AMP_rep1.csv,right,sanctity.vice,,,,,,,,,,,,,,0,1,1,0,0,63,63,63,,,,,,,,,,,,,,,,,,,,,1401.7701526553283,,,,,,,,,,,,,,AMP_prac,left,0.7337606669025263,3,,,left,0.5660729732044274,,,,,,,,,,,,,,,,,,,,,,,,,1014,2019_May_16_1650,mf_amp_cond1,3.0.7,59.98124347096968,
voter,&&&&&,images/symbols/symbol_44.png,condition_files/AMP_rep1.csv,right,fairness.vice,,,,,,,,,,,,,,0,1,1,0,0,64,64,64,,,,,,,,,,,,,,,,,,,,,1402.7203973522264,,,,,,,,,,,,,,AMP_prac,left,0.7337606669025263,3,,,right,0.7326426206527685,,,,,,,,,,,,,,,,,,,,,,,,,1014,2019_May_16_1650,mf_amp_cond1,3.0.7,59.98124347096968,
troops,&&&&&&,images/symbols/symbol_63.png,condition_files/AMP_rep1.csv,right,loyalty.vice,,,,,,,,,,,,,,0,1,1,0,0,65,65,65,,,,,,,,,,,,,,,,,,,,,1403.5373552850142,,,,,,,,,,,,,,AMP_prac,left,0.7337606669025263,3,,,left,0.5993747793036164,,,,,,,,,,,,,,,,,,,,,,,,,1014,2019_May_16_1650,mf_amp_cond1,3.0.7,59.98124347096968,
ability,&&&&&&&,images/symbols/symbol_17.png,condition_files/AMP_rep1.csv,left,authority.virtue,,,,,,,,,,,,,,0,1,1,0,0,66,66,66,,,,,,,,,,,,,,,,,,,,,1404.5708902579572,,,,,,,,,,,,,,AMP_prac,left,0.7337606669025263,3,,,right,0.8159851748205256,,,,,,,,,,,,,,,,,,,,,,,,,1014,2019_May_16_1650,mf_amp_cond1,3.0.7,59.98124347096968,
ban,&&&,images/symbols/symbol_55.png,condition_files/AMP_rep1.csv,right,loyalty.vice,,,,,,,,,,,,,,0,1,1,0,0,67,67,67,,,,,,,,,,,,,,,,,,,,,1405.4544476335177,,,,,,,,,,,,,,AMP_prac,left,0.7337606669025263,3,,,left,0.6659046248205414,,,,,,,,,,,,,,,,,,,,,,,,,1014,2019_May_16_1650,mf_amp_cond1,3.0.7,59.98124347096968,
good,&&&&,images/symbols/symbol_35.png,condition_files/AMP_rep1.csv,left,care.virtue,,,,,,,,,,,,,,0,1,1,0,0,68,68,68,,,,,,,,,,,,,,,,,,,,,1406.2545434660533,,,,,,,,,,,,,,AMP_prac,left,0.7337606669025263,3,,,right,0.5825357712274126,,,,,,,,,,,,,,,,,,,,,,,,,1014,2019_May_16_1650,mf_amp_cond1,3.0.7,59.98124347096968,
feuld,&&&&&,images/symbols/symbol_52.png,condition_files/AMP_rep1.csv,None,nonword,,,,,,,,,,,,,,0,1,1,0,0,69,69,69,,,,,,,,,,,,,,,,,,,,,1407.6384005588334,,,,,,,,,,,,,,AMP_prac,left,0.7337606669025263,3,,,right,1.1666286607905931,,,,,,,,,,,,,,,,,,,,,,,,,1014,2019_May_16_1650,mf_amp_cond1,3.0.7,59.98124347096968,
wence,&&&&&,images/symbols/symbol_5.png,condition_files/AMP_rep1.csv,None,nonword,,,,,,,,,,,,,,0,1,1,0,0,70,70,70,,,,,,,,,,,,,,,,,,,,,1408.3885666140377,,,,,,,,,,,,,,AMP_prac,left,0.7337606669025263,3,,,right,0.5327288314510952,,,,,,,,,,,,,,,,,,,,,,,,,1014,2019_May_16_1650,mf_amp_cond1,3.0.7,59.98124347096968,
prous,&&&&&,images/symbols/symbol_41.png,condition_files/AMP_rep1.csv,None,nonword,,,,,,,,,,,,,,0,1,1,0,0,71,71,71,,,,,,,,,,,,,,,,,,,,,1409.1054536345982,,,,,,,,,,,,,,AMP_prac,left,0.7337606669025263,3,,,left,0.4998526270064758,,,,,,,,,,,,,,,,,,,,,,,,,1014,2019_May_16_1650,mf_amp_cond1,3.0.7,59.98124347096968,
failure,&&&&&&&,images/symbols/symbol_6.png,condition_files/AMP_rep1.csv,right,loyalty.vice,,,,,,,,,,,,,,0,1,1,0,0,72,72,72,,,,,,,,,,,,,,,,,,,,,1409.772269758967,,,,,,,,,,,,,,AMP_prac,left,0.7337606669025263,3,,,right,0.4336890490812948,,,,,,,,,,,,,,,,,,,,,,,,,1014,2019_May_16_1650,mf_amp_cond1,3.0.7,59.98124347096968,
refused,&&&&&&&,images/symbols/symbol_29.png,condition_files/AMP_rep1.csv,right,authority.vice,,,,,,,,,,,,,,0,1,1,0,0,73,73,73,,,,,,,,,,,,,,,,,,,,,1410.6391452815478,,,,,,,,,,,,,,AMP_prac,left,0.7337606669025263,3,,,left,0.6484546362189576,,,,,,,,,,,,,,,,,,,,,,,,,1014,2019_May_16_1650,mf_amp_cond1,3.0.7,59.98124347096968,
thripht,&&&&&&&,images/symbols/symbol_34.png,condition_files/AMP_rep1.csv,None,nonword,,,,,,,,,,,,,,0,1,1,0,0,74,74,74,,,,,,,,,,,,,,,,,,,,,1412.0562124531643,,,,,,,,,,,,,,AMP_prac,left,0.7337606669025263,3,,,right,1.1994400788498751,,,,,,,,,,,,,,,,,,,,,,,,,1014,2019_May_16_1650,mf_amp_cond1,3.0.7,59.98124347096968,
credit,&&&&&&,images/symbols/symbol_28.png,condition_files/AMP_rep1.csv,left,fairness.virtue,,,,,,,,,,,,,,0,1,1,0,0,75,75,75,,,,,,,,,,,,,,,,,,,,,1412.8564051445537,,,,,,,,,,,,,,AMP_prac,left,0.7337606669025263,3,,,left,0.5827266024134587,,,,,,,,,,,,,,,,,,,,,,,,,1014,2019_May_16_1650,mf_amp_cond1,3.0.7,59.98124347096968,
death,&&&&&,images/symbols/symbol_53.png,condition_files/AMP_rep1.csv,right,care.vice,,,,,,,,,,,,,,0,1,1,0,0,76,76,76,,,,,,,,,,,,,,,,,,,,,1413.839990134511,,,,,,,,,,,,,,AMP_prac,left,0.7337606669025263,3,,,left,0.7504357846628409,,,,,,,,,,,,,,,,,,,,,,,,,1014,2019_May_16_1650,mf_amp_cond1,3.0.7,59.98124347096968,
violations,&&&&&&&&&&,images/symbols/symbol_36.png,condition_files/AMP_rep1.csv,right,sanctity.vice,,,,,,,,,,,,,,0,1,1,0,0,77,77,77,,,,,,,,,,,,,,,,,,,,,1414.640199182857,,,,,,,,,,,,,,AMP_prac,left,0.7337606669025263,3,,,right,0.5821060001471778,,,,,,,,,,,,,,,,,,,,,,,,,1014,2019_May_16_1650,mf_amp_cond1,3.0.7,59.98124347096968,
penalty,&&&&&&&,images/symbols/symbol_31.png,condition_files/AMP_rep1.csv,right,authority.vice,,,,,,,,,,,,,,0,1,1,0,0,78,78,78,,,,,,,,,,,,,,,,,,,,,1415.6237905873095,,,,,,,,,,,,,,AMP_prac,left,0.7337606669025263,3,,,right,0.7504338603139331,,,,,,,,,,,,,,,,,,,,,,,,,1014,2019_May_16_1650,mf_amp_cond1,3.0.7,59.98124347096968,
war,&&&,images/symbols/symbol_32.png,condition_files/AMP_rep1.csv,right,sanctity.vice,,,,,,,,,,,,,,0,1,1,0,0,79,79,79,,,,,,,,,,,,,,,,,,,,,1416.4740047832893,,,,,,,,,,,,,,AMP_prac,left,0.7337606669025263,3,,,left,0.6322711893990345,,,,,,,,,,,,,,,,,,,,,,,,,1014,2019_May_16_1650,mf_amp_cond1,3.0.7,59.98124347096968,
frord,&&&&&,images/symbols/symbol_46.png,condition_files/AMP_rep1.csv,None,nonword,,,,,,,,,,,,,,0,1,1,0,0,80,80,80,,,,,,,,,,,,,,,,,,,,,1417.2408812359718,,,,,,,,,,,,,,AMP_prac,left,0.7337606669025263,3,,,right,0.5493051660087076,,,,,,,,,,,,,,,,,,,,,,,,,1014,2019_May_16_1650,mf_amp_cond1,3.0.7,59.98124347096968,
rejected,&&&&&&&&,images/symbols/symbol_22.png,condition_files/AMP_rep1.csv,right,authority.vice,,,,,,,,,,,,,,0,1,1,0,0,81,81,81,,,,,,,,,,,,,,,,,,,,,1417.9578003290007,,,,,,,,,,,,,,AMP_prac,left,0.7337606669025263,3,,,right,0.49939687723235693,,,,,,,,,,,,,,,,,,,,,,,,,1014,2019_May_16_1650,mf_amp_cond1,3.0.7,59.98124347096968,
,,,condition_files/AMP_rep1.csv,,,,,,,,,,,,,,,,0,1,1,0,,,,,,,,,,,,,,,,,,,,,,,,,,,,,,,,,,,,,,,,,,,,,,,right,3.0510054879196105,,,,,,,,,,,,,,,,,,,,,,,1014,2019_May_16_1650,mf_amp_cond1,3.0.7,59.98124347096968,
crime,&&&&&,images/symbols/symbol_15.png,condition_files/AMP_rep4.csv,right,fairness.vice,,,,,,,,,,,,,,0,2,2,3,0,0,0,0,,,,,,,,,,,,,,,,,,,,,1422.4423656139516,,,,,,,,,,,,,,AMP_prac,left,0.7337606669025263,3,,,left,1.1993428992682311,,,,,,,,,,,,,,,,,,,,,,,,,1014,2019_May_16_1650,mf_amp_cond1,3.0.7,59.98124347096968,
prison,&&&&&&,images/symbols/symbol_77.png,condition_files/AMP_rep4.csv,right,fairness.vice,,,,,,,,,,,,,,0,2,2,3,0,1,1,1,,,,,,,,,,,,,,,,,,,,,1423.1924498843655,,,,,,,,,,,,,,AMP_prac,left,0.7337606669025263,3,,,right,0.5328083711719955,,,,,,,,,,,,,,,,,,,,,,,,,1014,2019_May_16_1650,mf_amp_cond1,3.0.7,59.98124347096968,
stroad,&&&&&&,images/symbols/symbol_38.png,condition_files/AMP_rep4.csv,None,nonword,,,,,,,,,,,,,,0,2,2,3,0,2,2,2,,,,,,,,,,,,,,,,,,,,,1423.9593301857421,,,,,,,,,,,,,,AMP_prac,left,0.7337606669025263,3,,,right,0.5494677734204743,,,,,,,,,,,,,,,,,,,,,,,,,1014,2019_May_16_1650,mf_amp_cond1,3.0.7,59.98124347096968,
care,&&&&,images/symbols/symbol_66.png,condition_files/AMP_rep4.csv,left,care.virtue,,,,,,,,,,,,,,0,2,2,3,0,3,3,3,,,,,,,,,,,,,,,,,,,,,1425.743116526657,,,,,,,,,,,,,,AMP_prac,left,0.7337606669025263,3,,,left,1.5506464366371802,,,,,,,,,,,,,,,,,,,,,,,,,1014,2019_May_16_1650,mf_amp_cond1,3.0.7,59.98124347096968,
opportunity,&&&&&&&&&&&,images/symbols/symbol_76.png,condition_files/AMP_rep4.csv,left,fairness.virtue,,,,,,,,,,,,,,0,2,2,3,0,4,4,4,,,,,,,,,,,,,,,,,,,,,1426.6100440066366,,,,,,,,,,,,,,AMP_prac,left,0.7337606669025263,3,,,right,0.6492163573457219,,,,,,,,,,,,,,,,,,,,,,,,,1014,2019_May_16_1650,mf_amp_cond1,3.0.7,59.98124347096968,
love,&&&&,images/symbols/symbol_42.png,condition_files/AMP_rep4.csv,left,loyalty.virtue,,,,,,,,,,,,,,0,2,2,3,0,5,5,5,,,,,,,,,,,,,,,,,,,,,1427.7436405907902,,,,,,,,,,,,,,AMP_prac,left,0.7337606669025263,3,,,left,0.916108044446446,,,,,,,,,,,,,,,,,,,,,,,,,1014,2019_May_16_1650,mf_amp_cond1,3.0.7,59.98124347096968,
terrorist,&&&&&&&&&,images/symbols/symbol_13.png,condition_files/AMP_rep4.csv,right,loyalty.vice,,,,,,,,,,,,,,0,2,2,3,0,6,6,6,,,,,,,,,,,,,,,,,,,,,1428.577181593355,,,,,,,,,,,,,,AMP_prac,left,0.7337606669025263,3,,,right,0.6160178245954739,,,,,,,,,,,,,,,,,,,,,,,,,1014,2019_May_16_1650,mf_amp_cond1,3.0.7,59.98124347096968,
terrorists,&&&&&&&&&&,images/symbols/symbol_12.png,condition_files/AMP_rep4.csv,right,fairness.vice,,,,,,,,,,,,,,0,2,2,3,0,7,7,7,,,,,,,,,,,,,,,,,,,,,1429.2273607661991,,,,,,,,,,,,,,AMP_prac,left,0.7337606669025263,3,,,right,0.41700302667959477,,,,,,,,,,,,,,,,,,,,,,,,,1014,2019_May_16_1650,mf_amp_cond1,3.0.7,59.98124347096968,
civilians,&&&&&&&&&,images/symbols/symbol_45.png,condition_files/AMP_rep4.csv,right,care.vice,,,,,,,,,,,,,,0,2,2,3,0,8,8,8,,,,,,,,,,,,,,,,,,,,,1429.9275614436337,,,,,,,,,,,,,,AMP_prac,left,0.7337606669025263,3,,,right,0.48198056472392636,,,,,,,,,,,,,,,,,,,,,,,,,1014,2019_May_16_1650,mf_amp_cond1,3.0.7,59.98124347096968,
phegned,&&&&&&&,images/symbols/symbol_54.png,condition_files/AMP_rep4.csv,None,nonword,,,,,,,,,,,,,,0,2,2,3,0,9,9,9,,,,,,,,,,,,,,,,,,,,,1430.8611149865355,,,,,,,,,,,,,,AMP_prac,left,0.7337606669025263,3,,,left,0.7004085070293513,,,,,,,,,,,,,,,,,,,,,,,,,1014,2019_May_16_1650,mf_amp_cond1,3.0.7,59.98124347096968,
suicide,&&&&&&&,images/symbols/symbol_27.png,condition_files/AMP_rep4.csv,right,care.vice,,,,,,,,,,,,,,0,2,2,3,0,10,10,10,,,,,,,,,,,,,,,,,,,,,1431.6279895148691,,,,,,,,,,,,,,AMP_prac,left,0.7337606669025263,3,,,right,0.548793610138091,,,,,,,,,,,,,,,,,,,,,,,,,1014,2019_May_16_1650,mf_amp_cond1,3.0.7,59.98124347096968,
yakks,&&&&&,images/symbols/symbol_21.png,condition_files/AMP_rep4.csv,None,nonword,,,,,,,,,,,,,,0,2,2,3,0,11,11,11,,,,,,,,,,,,,,,,,,,,,1432.4281850927837,,,,,,,,,,,,,,AMP_prac,left,0.7337606669025263,3,,,right,0.582910377659573,,,,,,,,,,,,,,,,,,,,,,,,,1014,2019_May_16_1650,mf_amp_cond1,3.0.7,59.98124347096968,
serial,&&&&&&,images/symbols/symbol_24.png,condition_files/AMP_rep4.csv,right,sanctity.vice,,,,,,,,,,,,,,0,2,2,3,0,12,12,12,,,,,,,,,,,,,,,,,,,,,1433.2284018385217,,,,,,,,,,,,,,AMP_prac,left,0.7337606669025263,3,,,right,0.5825360919516243,,,,,,,,,,,,,,,,,,,,,,,,,1014,2019_May_16_1650,mf_amp_cond1,3.0.7,59.98124347096968,
violence,&&&&&&&&,images/symbols/symbol_16.png,condition_files/AMP_rep4.csv,right,care.vice,,,,,,,,,,,,,,0,2,2,3,0,13,13,13,,,,,,,,,,,,,,,,,,,,,1433.8952526011599,,,,,,,,,,,,,,AMP_prac,left,0.7337606669025263,3,,,right,0.44945908178488025,,,,,,,,,,,,,,,,,,,,,,,,,1014,2019_May_16_1650,mf_amp_cond1,3.0.7,59.98124347096968,
slavery,&&&&&&&,images/symbols/symbol_23.png,condition_files/AMP_rep4.csv,right,loyalty.vice,,,,,,,,,,,,,,0,2,2,3,0,14,14,14,,,,,,,,,,,,,,,,,,,,,1435.0122112716126,,,,,,,,,,,,,,AMP_prac,left,0.7337606669025263,3,,,left,0.8994066272643977,,,,,,,,,,,,,,,,,,,,,,,,,1014,2019_May_16_1650,mf_amp_cond1,3.0.7,59.98124347096968,
energy,&&&&&&,images/symbols/symbol_58.png,condition_files/AMP_rep4.csv,left,sanctity.virtue,,,,,,,,,,,,,,0,2,2,3,0,15,15,15,,,,,,,,,,,,,,,,,,,,,1435.8624395794795,,,,,,,,,,,,,,AMP_prac,left,0.7337606669025263,3,,,left,0.6170720466325292,,,,,,,,,,,,,,,,,,,,,,,,,1014,2019_May_16_1650,mf_amp_cond1,3.0.7,59.98124347096968,
compassion,&&&&&&&&&&,images/symbols/symbol_72.png,condition_files/AMP_rep4.csv,left,care.virtue,,,,,,,,,,,,,,0,2,2,3,0,16,16,16,,,,,,,,,,,,,,,,,,,,,1436.69597673335,,,,,,,,,,,,,,AMP_prac,left,0.7337606669025263,3,,,right,0.6155643198908365,,,,,,,,,,,,,,,,,,,,,,,,,1014,2019_May_16_1650,mf_amp_cond1,3.0.7,59.98124347096968,
freedom,&&&&&&&,images/symbols/symbol_48.png,condition_files/AMP_rep4.csv,left,sanctity.virtue,,,,,,,,,,,,,,0,2,2,3,0,17,17,17,,,,,,,,,,,,,,,,,,,,,1437.7962663798098,,,,,,,,,,,,,,AMP_prac,left,0.7337606669025263,3,,,right,0.8826522905037564,,,,,,,,,,,,,,,,,,,,,,,,,1014,2019_May_16_1650,mf_amp_cond1,3.0.7,59.98124347096968,
benefit,&&&&&&&,images/symbols/symbol_2.png,condition_files/AMP_rep4.csv,left,fairness.virtue,,,,,,,,,,,,,,0,2,2,3,0,18,18,18,,,,,,,,,,,,,,,,,,,,,1438.4964462101416,,,,,,,,,,,,,,AMP_prac,left,0.7337606669025263,3,,,right,0.4824571616045432,,,,,,,,,,,,,,,,,,,,,,,,,1014,2019_May_16_1650,mf_amp_cond1,3.0.7,59.98124347096968,
accused,&&&&&&&,images/symbols/symbol_67.png,condition_files/AMP_rep4.csv,right,fairness.vice,,,,,,,,,,,,,,0,2,2,3,0,19,19,19,,,,,,,,,,,,,,,,,,,,,1439.3466758009054,,,,,,,,,,,,,,AMP_prac,left,0.7337606669025263,3,,,left,0.6326493238011608,,,,,,,,,,,,,,,,,,,,,,,,,1014,2019_May_16_1650,mf_amp_cond1,3.0.7,59.98124347096968,
conspiracy,&&&&&&&&&&,images/symbols/symbol_4.png,condition_files/AMP_rep4.csv,right,sanctity.vice,,,,,,,,,,,,,,0,2,2,3,0,20,20,20,,,,,,,,,,,,,,,,,,,,,1442.8975935706258,,,,,,,,,,,,,,AMP_prac,left,0.7337606669025263,3,,,left,3.333302543764148,,,,,,,,,,,,,,,,,,,,,,,,,1014,2019_May_16_1650,mf_amp_cond1,3.0.7,59.98124347096968,
promised,&&&&&&&&,images/symbols/symbol_20.png,condition_files/AMP_rep4.csv,left,loyalty.virtue,,,,,,,,,,,,,,0,2,2,3,0,21,21,21,,,,,,,,,,,,,,,,,,,,,1443.981227342807,,,,,,,,,,,,,,AMP_prac,left,0.7337606669025263,3,,,right,0.8666349790655659,,,,,,,,,,,,,,,,,,,,,,,,,1014,2019_May_16_1650,mf_amp_cond1,3.0.7,59.98124347096968,
peaceful,&&&&&&&&,images/symbols/symbol_69.png,condition_files/AMP_rep4.csv,left,authority.virtue,,,,,,,,,,,,,,0,2,2,3,0,22,22,22,,,,,,,,,,,,,,,,,,,,,1444.9481494025385,,,,,,,,,,,,,,AMP_prac,left,0.7337606669025263,3,,,left,0.7337516866100486,,,,,,,,,,,,,,,,,,,,,,,,,1014,2019_May_16_1650,mf_amp_cond1,3.0.7,59.98124347096968,
safety,&&&&&&,images/symbols/symbol_51.png,condition_files/AMP_rep4.csv,left,care.virtue,,,,,,,,,,,,,,0,2,2,3,0,23,23,23,,,,,,,,,,,,,,,,,,,,,1446.065111921689,,,,,,,,,,,,,,AMP_prac,left,0.7337606669025263,3,,,left,0.8994521701679332,,,,,,,,,,,,,,,,,,,,,,,,,1014,2019_May_16_1650,mf_amp_cond1,3.0.7,59.98124347096968,
killed,&&&&&&,images/symbols/symbol_56.png,condition_files/AMP_rep4.csv,right,care.vice,,,,,,,,,,,,,,0,2,2,3,0,24,24,24,,,,,,,,,,,,,,,,,,,,,1446.7653020152102,,,,,,,,,,,,,,AMP_prac,left,0.7337606669025263,3,,,right,0.4670258141668455,,,,,,,,,,,,,,,,,,,,,,,,,1014,2019_May_16_1650,mf_amp_cond1,3.0.7,59.98124347096968,
clean,&&&&&,images/symbols/symbol_47.png,condition_files/AMP_rep4.csv,left,sanctity.virtue,,,,,,,,,,,,,,0,2,2,3,0,25,25,25,,,,,,,,,,,,,,,,,,,,,1447.3987890718854,,,,,,,,,,,,,,AMP_prac,left,0.7337606669025263,3,,,right,0.415294847010955,,,,,,,,,,,,,,,,,,,,,,,,,1014,2019_May_16_1650,mf_amp_cond1,3.0.7,59.98124347096968,
praise,&&&&&&,images/symbols/symbol_57.png,condition_files/AMP_rep4.csv,left,authority.virtue,,,,,,,,,,,,,,0,2,2,3,0,26,26,26,,,,,,,,,,,,,,,,,,,,,1448.0156234615242,,,,,,,,,,,,,,AMP_prac,left,0.7337606669025263,3,,,right,0.3993391147159855,,,,,,,,,,,,,,,,,,,,,,,,,1014,2019_May_16_1650,mf_amp_cond1,3.0.7,59.98124347096968,
abuse,&&&&&,images/symbols/symbol_65.png,condition_files/AMP_rep4.csv,right,sanctity.vice,,,,,,,,,,,,,,0,2,2,3,0,27,27,27,,,,,,,,,,,,,,,,,,,,,1449.2992816729275,,,,,,,,,,,,,,AMP_prac,left,0.7337606669025263,3,,,left,1.066107130383898,,,,,,,,,,,,,,,,,,,,,,,,,1014,2019_May_16_1650,mf_amp_cond1,3.0.7,59.98124347096968,
fair,&&&&,images/symbols/symbol_37.png,condition_files/AMP_rep4.csv,left,fairness.virtue,,,,,,,,,,,,,,0,2,2,3,0,28,28,28,,,,,,,,,,,,,,,,,,,,,1450.1328390324525,,,,,,,,,,,,,,AMP_prac,left,0.7337606669025263,3,,,left,0.6003773646625632,,,,,,,,,,,,,,,,,,,,,,,,,1014,2019_May_16_1650,mf_amp_cond1,3.0.7,59.98124347096968,
powerful,&&&&&&&&,images/symbols/symbol_18.png,condition_files/AMP_rep4.csv,left,authority.virtue,,,,,,,,,,,,,,0,2,2,3,0,29,29,29,,,,,,,,,,,,,,,,,,,,,1450.7830140358747,,,,,,,,,,,,,,AMP_prac,left,0.7337606669025263,3,,,right,0.43224675017700065,,,,,,,,,,,,,,,,,,,,,,,,,1014,2019_May_16_1650,mf_amp_cond1,3.0.7,59.98124347096968,
help,&&&&,images/symbols/symbol_30.png,condition_files/AMP_rep4.csv,left,care.virtue,,,,,,,,,,,,,,0,2,2,3,0,30,30,30,,,,,,,,,,,,,,,,,,,,,1451.3498432778833,,,,,,,,,,,,,,AMP_prac,left,0.7337606669025263,3,,,right,0.3492002248931385,,,,,,,,,,,,,,,,,,,,,,,,,1014,2019_May_16_1650,mf_amp_cond1,3.0.7,59.98124347096968,
unpleasant,&&&&&&&&&,images/symbols/symbol_14.png,condition_files/AMP_rep4.csv,left,control,,,,,,,,,,,,,,0,2,2,3,0,31,31,31,,,,,,,,,,,,,,,,,,,,,1451.9833242407913,,,,,,,,,,,,,,AMP_prac,left,0.7337606669025263,3,,,right,0.41578106563247275,,,,,,,,,,,,,,,,,,,,,,,,,1014,2019_May_16_1650,mf_amp_cond1,3.0.7,59.98124347096968,
threatened,&&&&&&&&&&,images/symbols/symbol_19.png,condition_files/AMP_rep4.csv,right,fairness.vice,,,,,,,,,,,,,,0,2,2,3,0,32,32,32,,,,,,,,,,,,,,,,,,,,,1453.1003092106694,,,,,,,,,,,,,,AMP_prac,left,0.7337606669025263,3,,,left,0.8994374168323702,,,,,,,,,,,,,,,,,,,,,,,,,1014,2019_May_16_1650,mf_amp_cond1,3.0.7,59.98124347096968,
commitment,&&&&&&&&&&,images/symbols/symbol_74.png,condition_files/AMP_rep4.csv,left,sanctity.virtue,,,,,,,,,,,,,,0,2,2,3,0,33,33,33,,,,,,,,,,,,,,,,,,,,,1453.9505173128782,,,,,,,,,,,,,,AMP_prac,left,0.7337606669025263,3,,,left,0.6170617834395671,,,,,,,,,,,,,,,,,,,,,,,,,1014,2019_May_16_1650,mf_amp_cond1,3.0.7,59.98124347096968,
men,&&&,images/symbols/symbol_75.png,condition_files/AMP_rep4.csv,right,loyalty.vice,,,,,,,,,,,,,,0,2,2,3,0,34,34,34,,,,,,,,,,,,,,,,,,,,,1454.9174265436268,,,,,,,,,,,,,,AMP_prac,left,0.7337606669025263,3,,,left,0.7337430270454206,,,,,,,,,,,,,,,,,,,,,,,,,1014,2019_May_16_1650,mf_amp_cond1,3.0.7,59.98124347096968,
growth,&&&&&&,images/symbols/symbol_33.png,condition_files/AMP_rep4.csv,left,care.virtue,,,,,,,,,,,,,,0,2,2,3,0,35,35,35,,,,,,,,,,,,,,,,,,,,,1455.6509511571603,,,,,,,,,,,,,,AMP_prac,left,0.7337606669025263,3,,,right,0.5155681365140481,,,,,,,,,,,,,,,,,,,,,,,,,1014,2019_May_16_1650,mf_amp_cond1,3.0.7,59.98124347096968,
faith,&&&&&,images/symbols/symbol_9.png,condition_files/AMP_rep4.csv,left,sanctity.virtue,,,,,,,,,,,,,,0,2,2,3,0,36,36,36,,,,,,,,,,,,,,,,,,,,,1456.2511213336766,,,,,,,,,,,,,,AMP_prac,left,0.7337606669025263,3,,,right,0.3825616857793648,,,,,,,,,,,,,,,,,,,,,,,,,1014,2019_May_16_1650,mf_amp_cond1,3.0.7,59.98124347096968,
rebels,&&&&&&,images/symbols/symbol_64.png,condition_files/AMP_rep4.csv,right,authority.vice,,,,,,,,,,,,,,0,2,2,3,0,37,37,37,,,,,,,,,,,,,,,,,,,,,1457.2347076065307,,,,,,,,,,,,,,AMP_prac,left,0.7337606669025263,3,,,left,0.7659376915325993,,,,,,,,,,,,,,,,,,,,,,,,,1014,2019_May_16_1650,mf_amp_cond1,3.0.7,59.98124347096968,
attacks,&&&&&&&,images/symbols/symbol_78.png,condition_files/AMP_rep4.csv,right,care.vice,,,,,,,,,,,,,,0,2,2,3,0,38,38,38,,,,,,,,,,,,,,,,,,,,,1458.4683904976991,,,,,,,,,,,,,,AMP_prac,left,0.7337606669025263,3,,,left,1.0160031995474128,,,,,,,,,,,,,,,,,,,,,,,,,1014,2019_May_16_1650,mf_amp_cond1,3.0.7,59.98124347096968,
actively,&&&&&&&&,images/symbols/symbol_73.png,condition_files/AMP_rep4.csv,left,authority.virtue,,,,,,,,,,,,,,0,2,2,3,0,39,39,39,,,,,,,,,,,,,,,,,,,,,1459.2685738880718,,,,,,,,,,,,,,AMP_prac,left,0.7337606669025263,3,,,right,0.5823253758317151,,,,,,,,,,,,,,,,,,,,,,,,,1014,2019_May_16_1650,mf_amp_cond1,3.0.7,59.98124347096968,
lies,&&&&,images/symbols/symbol_1.png,condition_files/AMP_rep4.csv,right,fairness.vice,,,,,,,,,,,,,,0,2,2,3,0,40,40,40,,,,,,,,,,,,,,,,,,,,,1460.0687855022188,,,,,,,,,,,,,,AMP_prac,left,0.7337606669025263,3,,,right,0.582597991811781,,,,,,,,,,,,,,,,,,,,,,,,,1014,2019_May_16_1650,mf_amp_cond1,3.0.7,59.98124347096968,
intelligence,&&&&&&&&&&&&,images/symbols/symbol_7.png,condition_files/AMP_rep4.csv,left,loyalty.virtue,,,,,,,,,,,,,,0,2,2,3,0,41,41,41,,,,,,,,,,,,,,,,,,,,,1460.8189865164131,,,,,,,,,,,,,,AMP_prac,left,0.7337606669025263,3,,,right,0.5328612907433126,,,,,,,,,,,,,,,,,,,,,,,,,1014,2019_May_16_1650,mf_amp_cond1,3.0.7,59.98124347096968,
prosecution,&&&&&&&&&&&,images/symbols/symbol_10.png,condition_files/AMP_rep4.csv,right,authority.vice,,,,,,,,,,,,,,0,2,2,3,0,42,42,42,,,,,,,,,,,,,,,,,,,,,1461.6358841529618,,,,,,,,,,,,,,AMP_prac,left,0.7337606669025263,3,,,left,0.5995713835327479,,,,,,,,,,,,,,,,,,,,,,,,,1014,2019_May_16_1650,mf_amp_cond1,3.0.7,59.98124347096968,
fighters,&&&&&&&&,images/symbols/symbol_71.png,condition_files/AMP_rep4.csv,right,authority.vice,,,,,,,,,,,,,,0,2,2,3,0,43,43,43,,,,,,,,,,,,,,,,,,,,,1462.4860945002474,,,,,,,,,,,,,,AMP_prac,left,0.7337606669025263,3,,,left,0.6326906972863071,,,,,,,,,,,,,,,,,,,,,,,,,1014,2019_May_16_1650,mf_amp_cond1,3.0.7,59.98124347096968,
pleasant,&&&&&&&,images/symbols/symbol_59.png,condition_files/AMP_rep4.csv,right,control,,,,,,,,,,,,,,0,2,2,3,0,44,44,44,,,,,,,,,,,,,,,,,,,,,1463.319629729769,,,,,,,,,,,,,,AMP_prac,left,0.7337606669025263,3,,,right,0.6161073067814868,,,,,,,,,,,,,,,,,,,,,,,,,1014,2019_May_16_1650,mf_amp_cond1,3.0.7,59.98124347096968,
perfect,&&&&&&&,images/symbols/symbol_49.png,condition_files/AMP_rep4.csv,left,sanctity.virtue,,,,,,,,,,,,,,0,2,2,3,0,45,45,45,,,,,,,,,,,,,,,,,,,,,1464.3032166440717,,,,,,,,,,,,,,AMP_prac,left,0.7337606669025263,3,,,right,0.7504098059653188,,,,,,,,,,,,,,,,,,,,,,,,,1014,2019_May_16_1650,mf_amp_cond1,3.0.7,59.98124347096968,
cifte,&&&&&,images/symbols/symbol_50.png,condition_files/AMP_rep4.csv,None,nonword,,,,,,,,,,,,,,0,2,2,3,0,46,46,46,,,,,,,,,,,,,,,,,,,,,1465.0534292043558,,,,,,,,,,,,,,AMP_prac,left,0.7337606669025263,3,,,right,0.53195748858343,,,,,,,,,,,,,,,,,,,,,,,,,1014,2019_May_16_1650,mf_amp_cond1,3.0.7,59.98124347096968,
trust,&&&&&,images/symbols/symbol_25.png,condition_files/AMP_rep4.csv,left,authority.virtue,,,,,,,,,,,,,,0,2,2,3,0,47,47,47,,,,,,,,,,,,,,,,,,,,,1465.7869435547036,,,,,,,,,,,,,,AMP_prac,left,0.7337606669025263,3,,,right,0.5159777019362082,,,,,,,,,,,,,,,,,,,,,,,,,1014,2019_May_16_1650,mf_amp_cond1,3.0.7,59.98124347096968,
sexual,&&&&&&,images/symbols/symbol_26.png,condition_files/AMP_rep4.csv,right,sanctity.vice,,,,,,,,,,,,,,0,2,2,3,0,48,48,48,,,,,,,,,,,,,,,,,,,,,1466.9539320685872,,,,,,,,,,,,,,AMP_prac,left,0.7337606669025263,3,,,left,0.9494287733032252,,,,,,,,,,,,,,,,,,,,,,,,,1014,2019_May_16_1650,mf_amp_cond1,3.0.7,59.98124347096968,
sharing,&&&&&&&,images/symbols/symbol_70.png,condition_files/AMP_rep4.csv,left,loyalty.virtue,,,,,,,,,,,,,,0,2,2,3,0,49,49,49,,,,,,,,,,,,,,,,,,,,,1467.5874624230964,,,,,,,,,,,,,,AMP_prac,left,0.7337606669025263,3,,,right,0.4160575303103542,,,,,,,,,,,,,,,,,,,,,,,,,1014,2019_May_16_1650,mf_amp_cond1,3.0.7,59.98124347096968,
values,&&&&&&,images/symbols/symbol_80.png,condition_files/AMP_rep4.csv,left,sanctity.virtue,,,,,,,,,,,,,,0,2,2,3,0,50,50,50,,,,,,,,,,,,,,,,,,,,,1468.5043273777992,,,,,,,,,,,,,,AMP_prac,left,0.7337606669025263,3,,,left,0.6997622467933979,,,,,,,,,,,,,,,,,,,,,,,,,1014,2019_May_16_1650,mf_amp_cond1,3.0.7,59.98124347096968,
torture,&&&&&&&,images/symbols/symbol_82.png,condition_files/AMP_rep4.csv,right,care.vice,,,,,,,,,,,,,,0,2,2,3,0,51,51,51,,,,,,,,,,,,,,,,,,,,,1470.6548941464243,,,,,,,,,,,,,,AMP_prac,left,0.7337606669025263,3,,,left,1.933024026446219,,,,,,,,,,,,,,,,,,,,,,,,,1014,2019_May_16_1650,mf_amp_cond1,3.0.7,59.98124347096968,
safe,&&&&,images/symbols/symbol_11.png,condition_files/AMP_rep4.csv,left,care.virtue,,,,,,,,,,,,,,0,2,2,3,0,52,52,52,,,,,,,,,,,,,,,,,,,,,1471.721838047506,,,,,,,,,,,,,,AMP_prac,left,0.7337606669025263,3,,,right,0.8494351557237678,,,,,,,,,,,,,,,,,,,,,,,,,1014,2019_May_16_1650,mf_amp_cond1,3.0.7,59.98124347096968,
praised,&&&&&&&,images/symbols/symbol_79.png,condition_files/AMP_rep4.csv,left,loyalty.virtue,,,,,,,,,,,,,,0,2,2,3,0,53,53,53,,,,,,,,,,,,,,,,,,,,,1472.5053716573675,,,,,,,,,,,,,,AMP_prac,left,0.7337606669025263,3,,,right,0.56554473964934,,,,,,,,,,,,,,,,,,,,,,,,,1014,2019_May_16_1650,mf_amp_cond1,3.0.7,59.98124347096968,
rhoalled,&&&&&&&&,images/symbols/symbol_43.png,condition_files/AMP_rep4.csv,None,nonword,,,,,,,,,,,,,,0,2,2,3,0,54,54,54,,,,,,,,,,,,,,,,,,,,,1473.1888927268956,,,,,,,,,,,,,,AMP_prac,left,0.7337606669025263,3,,,right,0.45034780988135026,,,,,,,,,,,,,,,,,,,,,,,,,1014,2019_May_16_1650,mf_amp_cond1,3.0.7,59.98124347096968,
agreement,&&&&&&&&&,images/symbols/symbol_68.png,condition_files/AMP_rep4.csv,left,fairness.virtue,,,,,,,,,,,,,,0,2,2,3,0,55,55,55,,,,,,,,,,,,,,,,,,,,,1474.2058183306362,,,,,,,,,,,,,,AMP_prac,left,0.7337606669025263,3,,,left,0.7837677388815791,,,,,,,,,,,,,,,,,,,,,,,,,1014,2019_May_16_1650,mf_amp_cond1,3.0.7,59.98124347096968,
encourage,&&&&&&&&&,images/symbols/symbol_62.png,condition_files/AMP_rep4.csv,left,authority.virtue,,,,,,,,,,,,,,0,2,2,3,0,56,56,56,,,,,,,,,,,,,,,,,,,,,1475.0393724829155,,,,,,,,,,,,,,AMP_prac,left,0.7337606669025263,3,,,right,0.615388562764565,,,,,,,,,,,,,,,,,,,,,,,,,1014,2019_May_16_1650,mf_amp_cond1,3.0.7,59.98124347096968,
free,&&&&,images/symbols/symbol_8.png,condition_files/AMP_rep4.csv,left,fairness.virtue,,,,,,,,,,,,,,0,2,2,3,0,57,57,57,,,,,,,,,,,,,,,,,,,,,1475.9896175005342,,,,,,,,,,,,,,AMP_prac,left,0.7337606669025263,3,,,left,0.7326746931248636,,,,,,,,,,,,,,,,,,,,,,,,,1014,2019_May_16_1650,mf_amp_cond1,3.0.7,59.98124347096968,
win,&&&,images/symbols/symbol_3.png,condition_files/AMP_rep4.csv,left,fairness.virtue,,,,,,,,,,,,,,0,2,2,3,0,58,58,58,,,,,,,,,,,,,,,,,,,,,1477.106620110273,,,,,,,,,,,,,,AMP_prac,left,0.7337606669025263,3,,,right,0.8993873837825959,,,,,,,,,,,,,,,,,,,,,,,,,1014,2019_May_16_1650,mf_amp_cond1,3.0.7,59.98124347096968,
blamed,&&&&&&,images/symbols/symbol_81.png,condition_files/AMP_rep4.csv,right,loyalty.vice,,,,,,,,,,,,,,0,2,2,3,0,59,59,59,,,,,,,,,,,,,,,,,,,,,1478.0068237383748,,,,,,,,,,,,,,AMP_prac,left,0.7337606669025263,3,,,left,0.682641321716801,,,,,,,,,,,,,,,,,,,,,,,,,1014,2019_May_16_1650,mf_amp_cond1,3.0.7,59.98124347096968,
support,&&&&&&&,images/symbols/symbol_39.png,condition_files/AMP_rep4.csv,left,loyalty.virtue,,,,,,,,,,,,,,0,2,2,3,0,60,60,60,,,,,,,,,,,,,,,,,,,,,1478.7070234536368,,,,,,,,,,,,,,AMP_prac,left,0.7337606669025263,3,,,right,0.48246902841856354,,,,,,,,,,,,,,,,,,,,,,,,,1014,2019_May_16_1650,mf_amp_cond1,3.0.7,59.98124347096968,
strong,&&&&&&,images/symbols/symbol_60.png,condition_files/AMP_rep4.csv,left,loyalty.virtue,,,,,,,,,,,,,,0,2,2,3,0,61,61,61,,,,,,,,,,,,,,,,,,,,,1479.6072325340574,,,,,,,,,,,,,,AMP_prac,left,0.7337606669025263,3,,,right,0.6670640445518075,,,,,,,,,,,,,,,,,,,,,,,,,1014,2019_May_16_1650,mf_amp_cond1,3.0.7,59.98124347096968,
gun,&&&,images/symbols/symbol_40.png,condition_files/AMP_rep4.csv,right,authority.vice,,,,,,,,,,,,,,0,2,2,3,0,62,62,62,,,,,,,,,,,,,,,,,,,,,1480.5074756112954,,,,,,,,,,,,,,AMP_prac,left,0.7337606669025263,3,,,left,0.6818353405906237,,,,,,,,,,,,,,,,,,,,,,,,,1014,2019_May_16_1650,mf_amp_cond1,3.0.7,59.98124347096968,
scandal,&&&&&&&,images/symbols/symbol_61.png,condition_files/AMP_rep4.csv,right,sanctity.vice,,,,,,,,,,,,,,0,2,2,3,0,63,63,63,,,,,,,,,,,,,,,,,,,,,1482.407976871902,,,,,,,,,,,,,,AMP_prac,left,0.7337606669025263,3,,,right,1.6828962978433992,,,,,,,,,,,,,,,,,,,,,,,,,1014,2019_May_16_1650,mf_amp_cond1,3.0.7,59.98124347096968,
voter,&&&&&,images/symbols/symbol_44.png,condition_files/AMP_rep4.csv,right,fairness.vice,,,,,,,,,,,,,,0,2,2,3,0,64,64,64,,,,,,,,,,,,,,,,,,,,,1483.1414973160172,,,,,,,,,,,,,,AMP_prac,left,0.7337606669025263,3,,,right,0.515436318670254,,,,,,,,,,,,,,,,,,,,,,,,,1014,2019_May_16_1650,mf_amp_cond1,3.0.7,59.98124347096968,
troops,&&&&&&,images/symbols/symbol_63.png,condition_files/AMP_rep4.csv,right,loyalty.vice,,,,,,,,,,,,,,0,2,2,3,0,65,65,65,,,,,,,,,,,,,,,,,,,,,1483.9917143985185,,,,,,,,,,,,,,AMP_prac,left,0.7337606669025263,3,,,left,0.6327667090372415,,,,,,,,,,,,,,,,,,,,,,,,,1014,2019_May_16_1650,mf_amp_cond1,3.0.7,59.98124347096968,
ability,&&&&&&&,images/symbols/symbol_17.png,condition_files/AMP_rep4.csv,left,authority.virtue,,,,,,,,,,,,,,0,2,2,3,0,66,66,66,,,,,,,,,,,,,,,,,,,,,1485.108680766367,,,,,,,,,,,,,,AMP_prac,left,0.7337606669025263,3,,,right,0.8993123342042963,,,,,,,,,,,,,,,,,,,,,,,,,1014,2019_May_16_1650,mf_amp_cond1,3.0.7,59.98124347096968,
ban,&&&,images/symbols/symbol_55.png,condition_files/AMP_rep4.csv,right,loyalty.vice,,,,,,,,,,,,,,0,2,2,3,0,67,67,67,,,,,,,,,,,,,,,,,,,,,1485.842208907874,,,,,,,,,,,,,,AMP_prac,left,0.7337606669025263,3,,,left,0.5157092553745315,,,,,,,,,,,,,,,,,,,,,,,,,1014,2019_May_16_1650,mf_amp_cond1,3.0.7,59.98124347096968,
good,&&&&,images/symbols/symbol_35.png,condition_files/AMP_rep4.csv,left,care.virtue,,,,,,,,,,,,,,0,2,2,3,0,68,68,68,,,,,,,,,,,,,,,,,,,,,1486.7424503814873,,,,,,,,,,,,,,AMP_prac,left,0.7337606669025263,3,,,right,0.6824806386503042,,,,,,,,,,,,,,,,,,,,,,,,,1014,2019_May_16_1650,mf_amp_cond1,3.0.7,59.98124347096968,
feuld,&&&&&,images/symbols/symbol_52.png,condition_files/AMP_rep4.csv,None,nonword,,,,,,,,,,,,,,0,2,2,3,0,69,69,69,,,,,,,,,,,,,,,,,,,,,1487.5426523738934,,,,,,,,,,,,,,AMP_prac,left,0.7337606669025263,3,,,left,0.582872211420181,,,,,,,,,,,,,,,,,,,,,,,,,1014,2019_May_16_1650,mf_amp_cond1,3.0.7,59.98124347096968,
wence,&&&&&,images/symbols/symbol_5.png,condition_files/AMP_rep4.csv,None,nonword,,,,,,,,,,,,,,0,2,2,3,0,70,70,70,,,,,,,,,,,,,,,,,,,,,1488.2428366943677,,,,,,,,,,,,,,AMP_prac,left,0.7337606669025263,3,,,right,0.4822419553420332,,,,,,,,,,,,,,,,,,,,,,,,,1014,2019_May_16_1650,mf_amp_cond1,3.0.7,59.98124347096968,
prous,&&&&&,images/symbols/symbol_41.png,condition_files/AMP_rep4.csv,None,nonword,,,,,,,,,,,,,,0,2,2,3,0,71,71,71,,,,,,,,,,,,,,,,,,,,,1489.0097048082098,,,,,,,,,,,,,,AMP_prac,left,0.7337606669025263,3,,,right,0.5495534069159476,,,,,,,,,,,,,,,,,,,,,,,,,1014,2019_May_16_1650,mf_amp_cond1,3.0.7,59.98124347096968,
failure,&&&&&&&,images/symbols/symbol_6.png,condition_files/AMP_rep4.csv,right,loyalty.vice,,,,,,,,,,,,,,0,2,2,3,0,72,72,72,,,,,,,,,,,,,,,,,,,,,1489.709894581003,,,,,,,,,,,,,,AMP_prac,left,0.7337606669025263,3,,,right,0.46701972039954853,,,,,,,,,,,,,,,,,,,,,,,,,1014,2019_May_16_1650,mf_amp_cond1,3.0.7,59.98124347096968,
refused,&&&&&&&,images/symbols/symbol_29.png,condition_files/AMP_rep4.csv,right,authority.vice,,,,,,,,,,,,,,0,2,2,3,0,73,73,73,,,,,,,,,,,,,,,,,,,,,1490.4767713544134,,,,,,,,,,,,,,AMP_prac,left,0.7337606669025263,3,,,left,0.5483285593472829,,,,,,,,,,,,,,,,,,,,,,,,,1014,2019_May_16_1650,mf_amp_cond1,3.0.7,59.98124347096968,
thripht,&&&&&&&,images/symbols/symbol_34.png,condition_files/AMP_rep4.csv,None,nonword,,,,,,,,,,,,,,0,2,2,3,0,74,74,74,,,,,,,,,,,,,,,,,,,,,1491.3103014523404,,,,,,,,,,,,,,AMP_prac,left,0.7337606669025263,3,,,left,0.61529394898389,,,,,,,,,,,,,,,,,,,,,,,,,1014,2019_May_16_1650,mf_amp_cond1,3.0.7,59.98124347096968,
credit,&&&&&&,images/symbols/symbol_28.png,condition_files/AMP_rep4.csv,left,fairness.virtue,,,,,,,,,,,,,,0,2,2,3,0,75,75,75,,,,,,,,,,,,,,,,,,,,,1492.5940173941854,,,,,,,,,,,,,,AMP_prac,left,0.7337606669025263,3,,,right,1.0658168745467265,,,,,,,,,,,,,,,,,,,,,,,,,1014,2019_May_16_1650,mf_amp_cond1,3.0.7,59.98124347096968,
death,&&&&&,images/symbols/symbol_53.png,condition_files/AMP_rep4.csv,right,care.vice,,,,,,,,,,,,,,0,2,2,3,0,76,76,76,,,,,,,,,,,,,,,,,,,,,1494.1110441865603,,,,,,,,,,,,,,AMP_prac,left,0.7337606669025263,3,,,right,1.283873738389957,,,,,,,,,,,,,,,,,,,,,,,,,1014,2019_May_16_1650,mf_amp_cond1,3.0.7,59.98124347096968,
violations,&&&&&&&&&&,images/symbols/symbol_36.png,condition_files/AMP_rep4.csv,right,sanctity.vice,,,,,,,,,,,,,,0,2,2,3,0,77,77,77,,,,,,,,,,,,,,,,,,,,,1495.2113444169372,,,,,,,,,,,,,,AMP_prac,left,0.7337606669025263,3,,,right,0.881870684446767,,,,,,,,,,,,,,,,,,,,,,,,,1014,2019_May_16_1650,mf_amp_cond1,3.0.7,59.98124347096968,
penalty,&&&&&&&,images/symbols/symbol_31.png,condition_files/AMP_rep4.csv,right,authority.vice,,,,,,,,,,,,,,0,2,2,3,0,78,78,78,,,,,,,,,,,,,,,,,,,,,1495.944893726275,,,,,,,,,,,,,,AMP_prac,left,0.7337606669025263,3,,,right,0.5004110086847504,,,,,,,,,,,,,,,,,,,,,,,,,1014,2019_May_16_1650,mf_amp_cond1,3.0.7,59.98124347096968,
war,&&&,images/symbols/symbol_32.png,condition_files/AMP_rep4.csv,right,sanctity.vice,,,,,,,,,,,,,,0,2,2,3,0,79,79,79,,,,,,,,,,,,,,,,,,,,,1496.9284492095576,,,,,,,,,,,,,,AMP_prac,left,0.7337606669025263,3,,,left,0.7652744328879635,,,,,,,,,,,,,,,,,,,,,,,,,1014,2019_May_16_1650,mf_amp_cond1,3.0.7,59.98124347096968,
frord,&&&&&,images/symbols/symbol_46.png,condition_files/AMP_rep4.csv,None,nonword,,,,,,,,,,,,,,0,2,2,3,0,80,80,80,,,,,,,,,,,,,,,,,,,,,1497.9287352959764,,,,,,,,,,,,,,AMP_prac,left,0.7337606669025263,3,,,right,0.7824364107182191,,,,,,,,,,,,,,,,,,,,,,,,,1014,2019_May_16_1650,mf_amp_cond1,3.0.7,59.98124347096968,
rejected,&&&&&&&&,images/symbols/symbol_22.png,condition_files/AMP_rep4.csv,right,authority.vice,,,,,,,,,,,,,,0,2,2,3,0,81,81,81,,,,,,,,,,,,,,,,,,,,,1498.6288994107963,,,,,,,,,,,,,,AMP_prac,left,0.7337606669025263,3,,,right,0.4823442665183393,,,,,,,,,,,,,,,,,,,,,,,,,1014,2019_May_16_1650,mf_amp_cond1,3.0.7,59.98124347096968,
,,,condition_files/AMP_rep4.csv,,,,,,,,,,,,,,,,0,2,2,3,,,,,,,,,,,,,,,,,,,,,,,,,,,,,,,,,,,,,,,,,,,,,,,right,6.368459421431908,,,,,,,,,,,,,,,,,,,,,,,1014,2019_May_16_1650,mf_amp_cond1,3.0.7,59.98124347096968,
crime,&&&&&,images/symbols/symbol_15.png,condition_files/AMP_rep3.csv,right,fairness.vice,,,,,,,,,,,,,,0,3,3,2,0,0,0,0,,,,,,,,,,,,,,,,,,,,,1506.1476629273384,,,,,,,,,,,,,,AMP_prac,left,0.7337606669025263,3,,,left,0.9151096285058884,,,,,,,,,,,,,,,,,,,,,,,,,1014,2019_May_16_1650,mf_amp_cond1,3.0.7,59.98124347096968,
prison,&&&&&&,images/symbols/symbol_77.png,condition_files/AMP_rep3.csv,right,fairness.vice,,,,,,,,,,,,,,0,3,3,2,0,1,1,1,,,,,,,,,,,,,,,,,,,,,1507.0144351765703,,,,,,,,,,,,,,AMP_prac,left,0.7337606669025263,3,,,right,0.6493164234452706,,,,,,,,,,,,,,,,,,,,,,,,,1014,2019_May_16_1650,mf_amp_cond1,3.0.7,59.98124347096968,
stroad,&&&&&&,images/symbols/symbol_38.png,condition_files/AMP_rep3.csv,None,nonword,,,,,,,,,,,,,,0,3,3,2,0,2,2,2,,,,,,,,,,,,,,,,,,,,,1507.9146808196056,,,,,,,,,,,,,,AMP_prac,left,0.7337606669025263,3,,,right,0.6826323414279614,,,,,,,,,,,,,,,,,,,,,,,,,1014,2019_May_16_1650,mf_amp_cond1,3.0.7,59.98124347096968,
care,&&&&,images/symbols/symbol_66.png,condition_files/AMP_rep3.csv,left,care.virtue,,,,,,,,,,,,,,0,3,3,2,0,3,3,3,,,,,,,,,,,,,,,,,,,,,1509.0482908741978,,,,,,,,,,,,,,AMP_prac,left,0.7337606669025263,3,,,left,0.9004351913245046,,,,,,,,,,,,,,,,,,,,,,,,,1014,2019_May_16_1650,mf_amp_cond1,3.0.7,59.98124347096968,
opportunity,&&&&&&&&&&&,images/symbols/symbol_76.png,condition_files/AMP_rep3.csv,left,fairness.virtue,,,,,,,,,,,,,,0,3,3,2,0,4,4,4,,,,,,,,,,,,,,,,,,,,,1510.2486116630243,,,,,,,,,,,,,,AMP_prac,left,0.7337606669025263,3,,,right,0.9825275606744981,,,,,,,,,,,,,,,,,,,,,,,,,1014,2019_May_16_1650,mf_amp_cond1,3.0.7,59.98124347096968,
love,&&&&,images/symbols/symbol_42.png,condition_files/AMP_rep3.csv,left,loyalty.virtue,,,,,,,,,,,,,,0,3,3,2,0,5,5,5,,,,,,,,,,,,,,,,,,,,,1512.1657829098003,,,,,,,,,,,,,,AMP_prac,left,0.7337606669025263,3,,,left,1.699342097457702,,,,,,,,,,,,,,,,,,,,,,,,,1014,2019_May_16_1650,mf_amp_cond1,3.0.7,59.98124347096968,
terrorist,&&&&&&&&&,images/symbols/symbol_13.png,condition_files/AMP_rep3.csv,right,loyalty.vice,,,,,,,,,,,,,,0,3,3,2,0,6,6,6,,,,,,,,,,,,,,,,,,,,,1512.999335779179,,,,,,,,,,,,,,AMP_prac,left,0.7337606669025263,3,,,right,0.6156954962898453,,,,,,,,,,,,,,,,,,,,,,,,,1014,2019_May_16_1650,mf_amp_cond1,3.0.7,59.98124347096968,
terrorists,&&&&&&&&&&,images/symbols/symbol_12.png,condition_files/AMP_rep3.csv,right,fairness.vice,,,,,,,,,,,,,,0,3,3,2,0,7,7,7,,,,,,,,,,,,,,,,,,,,,1513.7161958588695,,,,,,,,,,,,,,AMP_prac,left,0.7337606669025263,3,,,right,0.48369387598722824,,,,,,,,,,,,,,,,,,,,,,,,,1014,2019_May_16_1650,mf_amp_cond1,3.0.7,59.98124347096968,
civilians,&&&&&&&&&,images/symbols/symbol_45.png,condition_files/AMP_rep3.csv,right,care.vice,,,,,,,,,,,,,,0,3,3,2,0,8,8,8,,,,,,,,,,,,,,,,,,,,,1514.8498129694017,,,,,,,,,,,,,,AMP_prac,left,0.7337606669025263,3,,,right,0.9151272683629941,,,,,,,,,,,,,,,,,,,,,,,,,1014,2019_May_16_1650,mf_amp_cond1,3.0.7,59.98124347096968,
phegned,&&&&&&&,images/symbols/symbol_54.png,condition_files/AMP_rep3.csv,None,nonword,,,,,,,,,,,,,,0,3,3,2,0,9,9,9,,,,,,,,,,,,,,,,,,,,,1515.700041918717,,,,,,,,,,,,,,AMP_prac,left,0.7337606669025263,3,,,left,0.6170560103964817,,,,,,,,,,,,,,,,,,,,,,,,,1014,2019_May_16_1650,mf_amp_cond1,3.0.7,59.98124347096968,
suicide,&&&&&&&,images/symbols/symbol_27.png,condition_files/AMP_rep3.csv,right,care.vice,,,,,,,,,,,,,,0,3,3,2,0,10,10,10,,,,,,,,,,,,,,,,,,,,,1516.4669158056022,,,,,,,,,,,,,,AMP_prac,left,0.7337606669025263,3,,,right,0.548507202995097,,,,,,,,,,,,,,,,,,,,,,,,,1014,2019_May_16_1650,mf_amp_cond1,3.0.7,59.98124347096968,
yakks,&&&&&,images/symbols/symbol_21.png,condition_files/AMP_rep3.csv,None,nonword,,,,,,,,,,,,,,0,3,3,2,0,11,11,11,,,,,,,,,,,,,,,,,,,,,1517.2171091224045,,,,,,,,,,,,,,AMP_prac,left,0.7337606669025263,3,,,right,0.532482514892763,,,,,,,,,,,,,,,,,,,,,,,,,1014,2019_May_16_1650,mf_amp_cond1,3.0.7,59.98124347096968,
serial,&&&&&&,images/symbols/symbol_24.png,condition_files/AMP_rep3.csv,right,sanctity.vice,,,,,,,,,,,,,,0,3,3,2,0,12,12,12,,,,,,,,,,,,,,,,,,,,,1518.0006395250202,,,,,,,,,,,,,,AMP_prac,left,0.7337606669025263,3,,,right,0.5654530123938457,,,,,,,,,,,,,,,,,,,,,,,,,1014,2019_May_16_1650,mf_amp_cond1,3.0.7,59.98124347096968,
violence,&&&&&&&&,images/symbols/symbol_16.png,condition_files/AMP_rep3.csv,right,care.vice,,,,,,,,,,,,,,0,3,3,2,0,13,13,13,,,,,,,,,,,,,,,,,,,,,1518.6674797037413,,,,,,,,,,,,,,AMP_prac,left,0.7337606669025263,3,,,right,0.44898312635632465,,,,,,,,,,,,,,,,,,,,,,,,,1014,2019_May_16_1650,mf_amp_cond1,3.0.7,59.98124347096968,
slavery,&&&&&&&,images/symbols/symbol_23.png,condition_files/AMP_rep3.csv,right,loyalty.vice,,,,,,,,,,,,,,0,3,3,2,0,14,14,14,,,,,,,,,,,,,,,,,,,,,1519.8344662932795,,,,,,,,,,,,,,AMP_prac,left,0.7337606669025263,3,,,left,0.9488877107614826,,,,,,,,,,,,,,,,,,,,,,,,,1014,2019_May_16_1650,mf_amp_cond1,3.0.7,59.98124347096968,
energy,&&&&&&,images/symbols/symbol_58.png,condition_files/AMP_rep3.csv,left,sanctity.virtue,,,,,,,,,,,,,,0,3,3,2,0,15,15,15,,,,,,,,,,,,,,,,,,,,,1520.8013755240245,,,,,,,,,,,,,,AMP_prac,left,0.7337606669025263,3,,,left,0.7337497622611409,,,,,,,,,,,,,,,,,,,,,,,,,1014,2019_May_16_1650,mf_amp_cond1,3.0.7,59.98124347096968,
compassion,&&&&&&&&&&,images/symbols/symbol_72.png,condition_files/AMP_rep3.csv,left,care.virtue,,,,,,,,,,,,,,0,3,3,2,0,16,16,16,,,,,,,,,,,,,,,,,,,,,1521.5849495451985,,,,,,,,,,,,,,AMP_prac,left,0.7337606669025263,3,,,right,0.5651370985760877,,,,,,,,,,,,,,,,,,,,,,,,,1014,2019_May_16_1650,mf_amp_cond1,3.0.7,59.98124347096968,
freedom,&&&&&&&,images/symbols/symbol_48.png,condition_files/AMP_rep3.csv,left,sanctity.virtue,,,,,,,,,,,,,,0,3,3,2,0,17,17,17,,,,,,,,,,,,,,,,,,,,,1524.4189956891423,,,,,,,,,,,,,,AMP_prac,left,0.7337606669025263,3,,,right,2.616002109087276,,,,,,,,,,,,,,,,,,,,,,,,,1014,2019_May_16_1650,mf_amp_cond1,3.0.7,59.98124347096968,
benefit,&&&&&&&,images/symbols/symbol_2.png,condition_files/AMP_rep3.csv,left,fairness.virtue,,,,,,,,,,,,,,0,3,3,2,0,18,18,18,,,,,,,,,,,,,,,,,,,,,1525.1191957251249,,,,,,,,,,,,,,AMP_prac,left,0.7337606669025263,3,,,right,0.4819401534150529,,,,,,,,,,,,,,,,,,,,,,,,,1014,2019_May_16_1650,mf_amp_cond1,3.0.7,59.98124347096968,
accused,&&&&&&&,images/symbols/symbol_67.png,condition_files/AMP_rep3.csv,right,fairness.vice,,,,,,,,,,,,,,0,3,3,2,0,19,19,19,,,,,,,,,,,,,,,,,,,,,1525.9360616099293,,,,,,,,,,,,,,AMP_prac,left,0.7337606669025263,3,,,left,0.5987589879077859,,,,,,,,,,,,,,,,,,,,,,,,,1014,2019_May_16_1650,mf_amp_cond1,3.0.7,59.98124347096968,
conspiracy,&&&&&&&&&&,images/symbols/symbol_4.png,condition_files/AMP_rep3.csv,right,sanctity.vice,,,,,,,,,,,,,,0,3,3,2,0,20,20,20,,,,,,,,,,,,,,,,,,,,,1526.9363210761985,,,,,,,,,,,,,,AMP_prac,left,0.7337606669025263,3,,,left,0.7822324298213061,,,,,,,,,,,,,,,,,,,,,,,,,1014,2019_May_16_1650,mf_amp_cond1,3.0.7,59.98124347096968,
promised,&&&&&&&&,images/symbols/symbol_20.png,condition_files/AMP_rep3.csv,left,loyalty.virtue,,,,,,,,,,,,,,0,3,3,2,0,21,21,21,,,,,,,,,,,,,,,,,,,,,1527.7198514788142,,,,,,,,,,,,,,AMP_prac,left,0.7337606669025263,3,,,right,0.5661416082875803,,,,,,,,,,,,,,,,,,,,,,,,,1014,2019_May_16_1650,mf_amp_cond1,3.0.7,59.98124347096968,
peaceful,&&&&&&&&,images/symbols/symbol_69.png,condition_files/AMP_rep3.csv,left,authority.virtue,,,,,,,,,,,,,,0,3,3,2,0,22,22,22,,,,,,,,,,,,,,,,,,,,,1528.6034149481457,,,,,,,,,,,,,,AMP_prac,left,0.7337606669025263,3,,,left,0.6656053886872542,,,,,,,,,,,,,,,,,,,,,,,,,1014,2019_May_16_1650,mf_amp_cond1,3.0.7,59.98124347096968,
safety,&&&&&&,images/symbols/symbol_51.png,condition_files/AMP_rep3.csv,left,care.virtue,,,,,,,,,,,,,,0,3,3,2,0,23,23,23,,,,,,,,,,,,,,,,,,,,,1529.4036358633057,,,,,,,,,,,,,,AMP_prac,left,0.7337606669025263,3,,,left,0.5828241027156764,,,,,,,,,,,,,,,,,,,,,,,,,1014,2019_May_16_1650,mf_amp_cond1,3.0.7,59.98124347096968,
killed,&&&&&&,images/symbols/symbol_56.png,condition_files/AMP_rep3.csv,right,care.vice,,,,,,,,,,,,,,0,3,3,2,0,24,24,24,,,,,,,,,,,,,,,,,,,,,1530.0871479525413,,,,,,,,,,,,,,AMP_prac,left,0.7337606669025263,3,,,right,0.4503484513297735,,,,,,,,,,,,,,,,,,,,,,,,,1014,2019_May_16_1650,mf_amp_cond1,3.0.7,59.98124347096968,
clean,&&&&&,images/symbols/symbol_47.png,condition_files/AMP_rep3.csv,left,sanctity.virtue,,,,,,,,,,,,,,0,3,3,2,0,25,25,25,,,,,,,,,,,,,,,,,,,,,1530.7206731754559,,,,,,,,,,,,,,AMP_prac,left,0.7337606669025263,3,,,right,0.4153172977421491,,,,,,,,,,,,,,,,,,,,,,,,,1014,2019_May_16_1650,mf_amp_cond1,3.0.7,59.98124347096968,
praise,&&&&&&,images/symbols/symbol_57.png,condition_files/AMP_rep3.csv,left,authority.virtue,,,,,,,,,,,,,,0,3,3,2,0,26,26,26,,,,,,,,,,,,,,,,,,,,,1531.3208067893574,,,,,,,,,,,,,,AMP_prac,left,0.7337606669025263,3,,,right,0.38210144585900707,,,,,,,,,,,,,,,,,,,,,,,,,1014,2019_May_16_1650,mf_amp_cond1,3.0.7,59.98124347096968,
abuse,&&&&&,images/symbols/symbol_65.png,condition_files/AMP_rep3.csv,right,sanctity.vice,,,,,,,,,,,,,,0,3,3,2,0,27,27,27,,,,,,,,,,,,,,,,,,,,,1531.887620315858,,,,,,,,,,,,,,AMP_prac,left,0.7337606669025263,3,,,right,0.348853521511046,,,,,,,,,,,,,,,,,,,,,,,,,1014,2019_May_16_1650,mf_amp_cond1,3.0.7,59.98124347096968,
fair,&&&&,images/symbols/symbol_37.png,condition_files/AMP_rep3.csv,left,fairness.virtue,,,,,,,,,,,,,,0,3,3,2,0,28,28,28,,,,,,,,,,,,,,,,,,,,,1532.7711844266378,,,,,,,,,,,,,,AMP_prac,left,0.7337606669025263,3,,,left,0.6503979070803325,,,,,,,,,,,,,,,,,,,,,,,,,1014,2019_May_16_1650,mf_amp_cond1,3.0.7,59.98124347096968,
powerful,&&&&&&&&,images/symbols/symbol_18.png,condition_files/AMP_rep3.csv,left,authority.virtue,,,,,,,,,,,,,,0,3,3,2,0,29,29,29,,,,,,,,,,,,,,,,,,,,,1533.5880727621698,,,,,,,,,,,,,,AMP_prac,left,0.7337606669025263,3,,,right,0.5989671382303641,,,,,,,,,,,,,,,,,,,,,,,,,1014,2019_May_16_1650,mf_amp_cond1,3.0.7,59.98124347096968,
help,&&&&,images/symbols/symbol_30.png,condition_files/AMP_rep3.csv,left,care.virtue,,,,,,,,,,,,,,0,3,3,2,0,30,30,30,,,,,,,,,,,,,,,,,,,,,1534.3384575516066,,,,,,,,,,,,,,AMP_prac,left,0.7337606669025263,3,,,right,0.5326175399859494,,,,,,,,,,,,,,,,,,,,,,,,,1014,2019_May_16_1650,mf_amp_cond1,3.0.7,59.98124347096968,
unpleasant,&&&&&&&&&,images/symbols/symbol_14.png,condition_files/AMP_rep3.csv,left,control,,,,,,,,,,,,,,0,3,3,2,0,31,31,31,,,,,,,,,,,,,,,,,,,,,1534.971779435069,,,,,,,,,,,,,,AMP_prac,left,0.7337606669025263,3,,,right,0.4151781032269355,,,,,,,,,,,,,,,,,,,,,,,,,1014,2019_May_16_1650,mf_amp_cond1,3.0.7,59.98124347096968,
threatened,&&&&&&&&&&,images/symbols/symbol_19.png,condition_files/AMP_rep3.csv,right,fairness.vice,,,,,,,,,,,,,,0,3,3,2,0,32,32,32,,,,,,,,,,,,,,,,,,,,,1535.5719146525953,,,,,,,,,,,,,,AMP_prac,left,0.7337606669025263,3,,,right,0.38225699733084184,,,,,,,,,,,,,,,,,,,,,,,,,1014,2019_May_16_1650,mf_amp_cond1,3.0.7,59.98124347096968,
commitment,&&&&&&&&&&,images/symbols/symbol_74.png,condition_files/AMP_rep3.csv,left,sanctity.virtue,,,,,,,,,,,,,,0,3,3,2,0,33,33,33,,,,,,,,,,,,,,,,,,,,,1536.4221519407547,,,,,,,,,,,,,,AMP_prac,left,0.7337606669025263,3,,,left,0.6170492751807615,,,,,,,,,,,,,,,,,,,,,,,,,1014,2019_May_16_1650,mf_amp_cond1,3.0.7,59.98124347096968,
men,&&&,images/symbols/symbol_75.png,condition_files/AMP_rep3.csv,right,loyalty.vice,,,,,,,,,,,,,,0,3,3,2,0,34,34,34,,,,,,,,,,,,,,,,,,,,,1540.2731759665621,,,,,,,,,,,,,,AMP_prac,left,0.7337606669025263,3,,,left,3.617845634569676,,,,,,,,,,,,,,,,,,,,,,,,,1014,2019_May_16_1650,mf_amp_cond1,3.0.7,59.98124347096968,
growth,&&&&&&,images/symbols/symbol_33.png,condition_files/AMP_rep3.csv,left,care.virtue,,,,,,,,,,,,,,0,3,3,2,0,35,35,35,,,,,,,,,,,,,,,,,,,,,1540.9733429679036,,,,,,,,,,,,,,AMP_prac,left,0.7337606669025263,3,,,right,0.4670190789474873,,,,,,,,,,,,,,,,,,,,,,,,,1014,2019_May_16_1650,mf_amp_cond1,3.0.7,59.98124347096968,
faith,&&&&&,images/symbols/symbol_9.png,condition_files/AMP_rep3.csv,left,sanctity.virtue,,,,,,,,,,,,,,0,3,3,2,0,36,36,36,,,,,,,,,,,,,,,,,,,,,1541.5568203868024,,,,,,,,,,,,,,AMP_prac,left,0.7337606669025263,3,,,right,0.36500457513466245,,,,,,,,,,,,,,,,,,,,,,,,,1014,2019_May_16_1650,mf_amp_cond1,3.0.7,59.98124347096968,
rebels,&&&&&&,images/symbols/symbol_64.png,condition_files/AMP_rep3.csv,right,authority.vice,,,,,,,,,,,,,,0,3,3,2,0,37,37,37,,,,,,,,,,,,,,,,,,,,,1542.4570708407082,,,,,,,,,,,,,,AMP_prac,left,0.7337606669025263,3,,,left,0.6818311711649585,,,,,,,,,,,,,,,,,,,,,,,,,1014,2019_May_16_1650,mf_amp_cond1,3.0.7,59.98124347096968,
attacks,&&&&&&&,images/symbols/symbol_78.png,condition_files/AMP_rep3.csv,right,care.vice,,,,,,,,,,,,,,0,3,3,2,0,38,38,38,,,,,,,,,,,,,,,,,,,,,1543.7740828156057,,,,,,,,,,,,,,AMP_prac,left,0.7337606669025263,3,,,right,1.098751130153687,,,,,,,,,,,,,,,,,,,,,,,,,1014,2019_May_16_1650,mf_amp_cond1,3.0.7,59.98124347096968,
actively,&&&&&&&&,images/symbols/symbol_73.png,condition_files/AMP_rep3.csv,left,authority.virtue,,,,,,,,,,,,,,0,3,3,2,0,39,39,39,,,,,,,,,,,,,,,,,,,,,1544.5742771106197,,,,,,,,,,,,,,AMP_prac,left,0.7337606669025263,3,,,right,0.5819642398382712,,,,,,,,,,,,,,,,,,,,,,,,,1014,2019_May_16_1650,mf_amp_cond1,3.0.7,59.98124347096968,
lies,&&&&,images/symbols/symbol_1.png,condition_files/AMP_rep3.csv,right,fairness.vice,,,,,,,,,,,,,,0,3,3,2,0,40,40,40,,,,,,,,,,,,,,,,,,,,,1545.207779562079,,,,,,,,,,,,,,AMP_prac,left,0.7337606669025263,3,,,right,0.41551069472552626,,,,,,,,,,,,,,,,,,,,,,,,,1014,2019_May_16_1650,mf_amp_cond1,3.0.7,59.98124347096968,
intelligence,&&&&&&&&&&&&,images/symbols/symbol_7.png,condition_files/AMP_rep3.csv,left,loyalty.virtue,,,,,,,,,,,,,,0,3,3,2,0,41,41,41,,,,,,,,,,,,,,,,,,,,,1545.7913041275024,,,,,,,,,,,,,,AMP_prac,left,0.7337606669025263,3,,,right,0.3657974065572489,,,,,,,,,,,,,,,,,,,,,,,,,1014,2019_May_16_1650,mf_amp_cond1,3.0.7,59.98124347096968,
prosecution,&&&&&&&&&&&,images/symbols/symbol_10.png,condition_files/AMP_rep3.csv,right,authority.vice,,,,,,,,,,,,,,0,3,3,2,0,42,42,42,,,,,,,,,,,,,,,,,,,,,1546.6915106421256,,,,,,,,,,,,,,AMP_prac,left,0.7337606669025263,3,,,left,0.6825431799661601,,,,,,,,,,,,,,,,,,,,,,,,,1014,2019_May_16_1650,mf_amp_cond1,3.0.7,59.98124347096968,
fighters,&&&&&&&&,images/symbols/symbol_71.png,condition_files/AMP_rep3.csv,right,authority.vice,,,,,,,,,,,,,,0,3,3,2,0,43,43,43,,,,,,,,,,,,,,,,,,,,,1548.225249435607,,,,,,,,,,,,,,AMP_prac,left,0.7337606669025263,3,,,left,1.315780071385234,,,,,,,,,,,,,,,,,,,,,,,,,1014,2019_May_16_1650,mf_amp_cond1,3.0.7,59.98124347096968,
pleasant,&&&&&&&,images/symbols/symbol_59.png,condition_files/AMP_rep3.csv,right,control,,,,,,,,,,,,,,0,3,3,2,0,44,44,44,,,,,,,,,,,,,,,,,,,,,1549.0421275079461,,,,,,,,,,,,,,AMP_prac,left,0.7337606669025263,3,,,right,0.5990104360607802,,,,,,,,,,,,,,,,,,,,,,,,,1014,2019_May_16_1650,mf_amp_cond1,3.0.7,59.98124347096968,
perfect,&&&&&&&,images/symbols/symbol_49.png,condition_files/AMP_rep3.csv,left,sanctity.virtue,,,,,,,,,,,,,,0,3,3,2,0,45,45,45,,,,,,,,,,,,,,,,,,,,,1549.9256813555367,,,,,,,,,,,,,,AMP_prac,left,0.7337606669025263,3,,,right,0.6503908511331247,,,,,,,,,,,,,,,,,,,,,,,,,1014,2019_May_16_1650,mf_amp_cond1,3.0.7,59.98124347096968,
cifte,&&&&&,images/symbols/symbol_50.png,condition_files/AMP_rep3.csv,None,nonword,,,,,,,,,,,,,,0,3,3,2,0,46,46,46,,,,,,,,,,,,,,,,,,,,,1550.6592165529873,,,,,,,,,,,,,,AMP_prac,left,0.7337606669025263,3,,,right,0.5155989260856586,,,,,,,,,,,,,,,,,,,,,,,,,1014,2019_May_16_1650,mf_amp_cond1,3.0.7,59.98124347096968,
trust,&&&&&,images/symbols/symbol_25.png,condition_files/AMP_rep3.csv,left,authority.virtue,,,,,,,,,,,,,,0,3,3,2,0,47,47,47,,,,,,,,,,,,,,,,,,,,,1551.3427331323692,,,,,,,,,,,,,,AMP_prac,left,0.7337606669025263,3,,,right,0.46552450192029937,,,,,,,,,,,,,,,,,,,,,,,,,1014,2019_May_16_1650,mf_amp_cond1,3.0.7,59.98124347096968,
sexual,&&&&&&,images/symbols/symbol_26.png,condition_files/AMP_rep3.csv,right,sanctity.vice,,,,,,,,,,,,,,0,3,3,2,0,48,48,48,,,,,,,,,,,,,,,,,,,,,1552.4930343409542,,,,,,,,,,,,,,AMP_prac,left,0.7337606669025263,3,,,left,0.9321202242863365,,,,,,,,,,,,,,,,,,,,,,,,,1014,2019_May_16_1650,mf_amp_cond1,3.0.7,59.98124347096968,
sharing,&&&&&&&,images/symbols/symbol_70.png,condition_files/AMP_rep3.csv,left,loyalty.virtue,,,,,,,,,,,,,,0,3,3,2,0,49,49,49,,,,,,,,,,,,,,,,,,,,,1553.0931900848627,,,,,,,,,,,,,,AMP_prac,left,0.7337606669025263,3,,,right,0.3822566766066302,,,,,,,,,,,,,,,,,,,,,,,,,1014,2019_May_16_1650,mf_amp_cond1,3.0.7,59.98124347096968,
