words,mask,masks,symbols,conditionfile,corr_ans,category,LDT_trials_cond2.thisRepN,LDT_trials_cond2.thisTrialN,LDT_trials_cond2.thisN,LDT_trials_cond2.thisIndex,LDT_pracs_1.thisRepN,LDT_pracs_1.thisTrialN,LDT_pracs_1.thisN,LDT_pracs_1.thisIndex,LDT_trials_1.thisRepN,LDT_trials_1.thisTrialN,LDT_trials_1.thisN,LDT_trials_1.thisIndex,logo_trials.thisRepN,logo_trials.thisTrialN,logo_trials.thisN,logo_trials.thisIndex,AMP_pracs.thisRepN,AMP_pracs.thisTrialN,AMP_pracs.thisN,AMP_pracs.thisIndex,trials_loop.thisRepN,trials_loop.thisTrialN,trials_loop.thisN,trials_loop.thisIndex,AMP_trials.thisRepN,AMP_trials.thisTrialN,AMP_trials.thisN,AMP_trials.thisIndex,memtask_trials.thisRepN,memtask_trials.thisTrialN,memtask_trials.thisN,memtask_trials.thisIndex,LDT_cond1.thisRepN,LDT_cond1.thisTrialN,LDT_cond1.thisN,LDT_cond1.thisIndex,begin_key.keys,begin_key.rt,key_resp_instr.keys,key_resp_instr.rt,exp_time,key_resp_LDT_instr.keys,key_resp_LDT_instr.rt,resp_LDT_prac.keys,resp_LDT_prac.rt,task,keypress,RT,corr,resp_LDT_ready.keys,resp_LDT_ready.rt,resp_LDT_trial.keys,resp_LDT_trial.rt,LDT_rating.response,LDT_rating.rt,resp_sym_rate.keys,resp_sym_rate.rt,sym_resp_1.keys,sym_resp_1.rt,sym_resp_2.keys,sym_resp_2.rt,sym_resp_trial.keys,sym_resp_trial.rt,symbol_index,resp_AMP_ready1.keys,resp_AMP_ready1.rt,resp_AMP.keys,resp_AMP.rt,prime_dur,resp_AMP_ready.keys,resp_AMP_ready.rt,resp_AMP_trials.keys,resp_AMP_trials.rt,rest_key_resp.keys,rest_key_resp.rt,AMP_nonword_rating.response,AMP_nonword_rating.rt,AMP_word_rating.response,AMP_word_rating.rt,AMP_random_rating.response,AMP_random_rating.rt,key_resp_instr_memtask.keys,key_resp_instr_memtask.rt,resp_memtask.keys,resp_memtask.corr,resp_memtask.rt,participant ID,date,expName,psychopyVersion,frameRate,
,,,,,,,,,,,,,,,,,,,,,,,,,,,,,,,,,,,,,,,,,,,right,278.68776904627964,,,,,,,,,,,,,,,,,,,,,,,,,,,,,,,,,,,,,,,,,,,,,,,,,1015,2019_May_17_1256,mf_amp_cond1,3.0.7,59.98657113833475,
,,,,,,,,,,,,,,,,,,,,,,,,,,,,,,,,,,,,,,,,,,,,,right,7.868781426818259,,,,,,,,,,,,,,,,,,,,,,,,,,,,,,,,,,,,,,,,,,,,,,,1015,2019_May_17_1256,mf_amp_cond1,3.0.7,59.98657113833475,
keyboard,&&&&&&&,,,,,,0,0,0,0,0,0,0,0,,,,,,,,,,,,,,,,,,,,,,,,,,,,,,,,,390.56099793518706,right,3.18437836558428,right,4.918174330763804,LDT_prac,right,4.918174330763804,0,,,,,,,,,,,,,,,,,,,,,,,,,,,,,,,,,,,,,,1015,2019_May_17_1256,mf_amp_cond1,3.0.7,59.98657113833475,
bisebell,&&&&&&&,,,,,,0,0,0,0,0,1,1,1,,,,,,,,,,,,,,,,,,,,,,,,,,,,,,,,,401.1469929999057,,,right,8.652469661233454,LDT_prac,right,8.652469661233454,0,,,,,,,,,,,,,,,,,,,,,,,,,,,,,,,,,,,,,,1015,2019_May_17_1256,mf_amp_cond1,3.0.7,59.98657113833475,
,,,,,,,0,0,0,0,,,,,0,0,0,0,,,,,,,,,,,,,,,,,,,,,,,,,,,,,422.1691174159498,,,,,LDT_prac,right,8.652469661233454,0,right,1.934064538393386,right,1.2005662039066465,,,,,,,,,,,,,,,,,,,,,,,,,,,,,,,,,,1015,2019_May_17_1256,mf_amp_cond1,3.0.7,59.98657113833475,
,,,,,,,0,0,0,0,,,,,,,,,,,,,,,,,,,,,,,,,,,,,,,,,,,,,,,,,,,,,,,,,,6,13.505,,,,,,,,,,,,,,,,,,,,,,,,,,,,,,,,1015,2019_May_17_1256,mf_amp_cond1,3.0.7,59.98657113833475,
,,,,,,,,,,,,,,,,,,,,,,,,,,,,,,,,,,,,,,,,,,,,,,,,,,,,,,,,,,,,,,right,1.4339234203923752,,,,,,,,,,,,,,,,,,,,,,,,,,,,,,1015,2019_May_17_1256,mf_amp_cond1,3.0.7,59.98657113833475,
,,,,,,,,,,,,,,,,,,,,,,,,,,,,,,,,,,,,,,,,,,,,,,,509.15773240050044,,,,,,,,,,,,,,,,,right,2.4674989207680937,,,,,,,,,,,,,,,,,,,,,,,,,,,,1015,2019_May_17_1256,mf_amp_cond1,3.0.7,59.98657113833475,
,,,,,,,,,,,,,,,,,,,,,,,,,,,,,,,,,,,,,,,,,,,,,,,,,,,,,,,,,,,,,,,,,,right,1.4172737413396135,,,,,,,,,,,,,,,,,,,,,,,,,,1015,2019_May_17_1256,mf_amp_cond1,3.0.7,59.98657113833475,
,,,,,,,,,,,,,,,,,,,,,,,,,,,,,,,,,,,,,,,,,,,,,,,529.079493052825,,,,,,,,,,,,,,,,,,,,,right,0.8170982418621406,34,right,0.5670791588597694,,,,,,,,,,,,,,,,,,,,,1015,2019_May_17_1256,mf_amp_cond1,3.0.7,59.98657113833475,
scarf,,&&&&&,images/symbols/symbol_54.png,,,,,,,,,,,,,,,,,,,,0,0,0,3,,,,,,,,,,,,,,,,,,,,,674.1669647249898,,,,,AMP_prac,right,0.9838105580640786,,,,,,,,,,,,,,,,,,,right,0.9838105580640786,6,,,,,,,,,,,,,,,,,,1015,2019_May_17_1256,mf_amp_cond1,3.0.7,59.98657113833475,
banana,,&&&&&&,images/symbols/symbol_68.png,,,,,,,,,,,,,,,,,,,,0,1,1,1,,,,,,,,,,,,,,,,,,,,,675.2171270427632,,,,,AMP_prac,right,0.8171014490894777,,,,,,,,,,,,,,,,,,,right,0.8171014490894777,6,,,,,,,,,,,,,,,,,,1015,2019_May_17_1256,mf_amp_cond1,3.0.7,59.98657113833475,
car,,&&&,images/symbols/symbol_9.png,,,,,,,,,,,,,,,,,,,,0,2,2,0,,,,,,,,,,,,,,,,,,,,,676.2007496573078,,,,,AMP_prac,right,0.7504373054416646,,,,,,,,,,,,,,,,,,,right,0.7504373054416646,6,,,,,,,,,,,,,,,,,,1015,2019_May_17_1256,mf_amp_cond1,3.0.7,59.98657113833475,
keyboard,,&&&&&&&&,images/symbols/symbol_40.png,,,,,,,,,,,,,,,,,,,,0,3,3,2,,,,,,,,,,,,,,,,,,,,,677.3009851319357,,,,,AMP_prac,right,0.882290268181805,,,,,,,,,,,,,,,,,,,right,0.882290268181805,6,,,,,,,,,,,,,,,,,,1015,2019_May_17_1256,mf_amp_cond1,3.0.7,59.98657113833475,
,,,,,,,,,,,,,,,,,,,,,,,,,,,,,,,,,,,,,,,,,,,,,,,,,,,,,,,,,,,,,,,,,,,,,,,,,,,,right,0.9004560035766644,,,,,,,,,,,,,,,,1015,2019_May_17_1256,mf_amp_cond1,3.0.7,59.98657113833475,
embrace,,&&&&&&&,images/symbols/symbol_11.png,condition_files/AMP_rep3.csv,left,authority.virtue,,,,,,,,,,,,,,,,,,,,,0,0,0,2,0,0,0,0,,,,,,,,,,,,,699.1567234067938,,,,,AMP_prac,right,0.882290268181805,,,,,,,,,,,,,,,,,,,,,6,,,right,0.6837404480752411,,,,,,,,,,,,,,1015,2019_May_17_1256,mf_amp_cond1,3.0.7,59.98657113833475,
freedom,,&&&&&&&,images/symbols/symbol_66.png,condition_files/AMP_rep3.csv,left,sanctity.virtue,,,,,,,,,,,,,,,,,,,,,0,0,0,2,0,1,1,1,,,,,,,,,,,,,699.9067758449601,,,,,AMP_prac,right,0.882290268181805,,,,,,,,,,,,,,,,,,,,,6,,,right,0.5170297354870854,,,,,,,,,,,,,,1015,2019_May_17_1256,mf_amp_cond1,3.0.7,59.98657113833475,
corruption,,&&&&&&&&&&,images/symbols/symbol_14.png,condition_files/AMP_rep3.csv,right,sanctity.vice,,,,,,,,,,,,,,,,,,,,,0,0,0,2,0,2,2,2,,,,,,,,,,,,,701.0237402171549,,,,,AMP_prac,right,0.882290268181805,,,,,,,,,,,,,,,,,,,,,6,,,right,0.8990794616220228,,,,,,,,,,,,,,1015,2019_May_17_1256,mf_amp_cond1,3.0.7,59.98657113833475,
pleasant,,&&&&&&&,images/symbols/symbol_21.png,condition_files/AMP_rep3.csv,right,control,,,,,,,,,,,,,,,,,,,,,0,0,0,2,0,3,3,3,,,,,,,,,,,,,702.0073147232899,,,,,AMP_prac,right,0.882290268181805,,,,,,,,,,,,,,,,,,,,,6,,,right,0.766341624871302,,,,,,,,,,,,,,1015,2019_May_17_1256,mf_amp_cond1,3.0.7,59.98657113833475,
improve,,&&&&&&&,images/symbols/symbol_57.png,condition_files/AMP_rep3.csv,left,care.virtue,,,,,,,,,,,,,,,,,,,,,0,0,0,2,0,4,4,4,,,,,,,,,,,,,702.8242051368234,,,,,AMP_prac,right,0.882290268181805,,,,,,,,,,,,,,,,,,,,,6,,,right,0.5994307812998159,,,,,,,,,,,,,,1015,2019_May_17_1256,mf_amp_cond1,3.0.7,59.98657113833475,
civilians,,&&&&&&&&&,images/symbols/symbol_47.png,condition_files/AMP_rep3.csv,right,care.vice,,,,,,,,,,,,,,,,,,,,,0,0,0,2,0,5,5,5,,,,,,,,,,,,,703.6244320802268,,,,,AMP_prac,right,0.882290268181805,,,,,,,,,,,,,,,,,,,,,6,,,right,0.5827846301972386,,,,,,,,,,,,,,1015,2019_May_17_1256,mf_amp_cond1,3.0.7,59.98657113833475,
support,,&&&&&&&,images/symbols/symbol_5.png,condition_files/AMP_rep3.csv,left,loyalty.virtue,,,,,,,,,,,,,,,,,,,,,0,0,0,2,0,6,6,6,,,,,,,,,,,,,704.4246218197936,,,,,AMP_prac,right,0.882290268181805,,,,,,,,,,,,,,,,,,,,,6,,,right,0.5827615381604119,,,,,,,,,,,,,,1015,2019_May_17_1256,mf_amp_cond1,3.0.7,59.98657113833475,
gryssed,,&&&&&&&,images/symbols/symbol_26.png,condition_files/AMP_rep3.csv,None,nonword,,,,,,,,,,,,,,,,,,,,,0,0,0,2,0,7,7,7,,,,,,,,,,,,,705.3748482179683,,,,,AMP_prac,right,0.882290268181805,,,,,,,,,,,,,,,,,,,,,6,,,right,0.7326901132087187,,,,,,,,,,,,,,1015,2019_May_17_1256,mf_amp_cond1,3.0.7,59.98657113833475,
party,,&&&&&,images/symbols/symbol_43.png,condition_files/AMP_rep3.csv,left,loyalty.virtue,,,,,,,,,,,,,,,,,,,,,0,0,0,2,0,8,8,8,,,,,,,,,,,,,706.5085806159032,,,,,AMP_prac,right,0.882290268181805,,,,,,,,,,,,,,,,,,,,,6,,,right,0.9005644078592923,,,,,,,,,,,,,,1015,2019_May_17_1256,mf_amp_cond1,3.0.7,59.98657113833475,
trust,,&&&&&,images/symbols/symbol_78.png,condition_files/AMP_rep3.csv,left,authority.virtue,,,,,,,,,,,,,,,,,,,,,0,0,0,2,0,9,9,9,,,,,,,,,,,,,707.392030296752,,,,,AMP_prac,right,0.882290268181805,,,,,,,,,,,,,,,,,,,,,6,,,right,0.6656937008131081,,,,,,,,,,,,,,1015,2019_May_17_1256,mf_amp_cond1,3.0.7,59.98657113833475,
honored,,&&&&&&&,images/symbols/symbol_38.png,condition_files/AMP_rep3.csv,left,authority.virtue,,,,,,,,,,,,,,,,,,,,,0,0,0,2,0,10,10,10,,,,,,,,,,,,,708.2922553799633,,,,,AMP_prac,right,0.882290268181805,,,,,,,,,,,,,,,,,,,,,6,,,right,0.682774431214284,,,,,,,,,,,,,,1015,2019_May_17_1256,mf_amp_cond1,3.0.7,59.98657113833475,
loyalty,,&&&&&&&,images/symbols/symbol_28.png,condition_files/AMP_rep3.csv,left,loyalty.virtue,,,,,,,,,,,,,,,,,,,,,0,0,0,2,0,11,11,11,,,,,,,,,,,,,709.0425233438039,,,,,AMP_prac,right,0.882290268181805,,,,,,,,,,,,,,,,,,,,,6,,,right,0.5328346308706386,,,,,,,,,,,,,,1015,2019_May_17_1256,mf_amp_cond1,3.0.7,59.98657113833475,
stintz,,&&&&&&,images/symbols/symbol_46.png,condition_files/AMP_rep3.csv,None,nonword,,,,,,,,,,,,,,,,,,,,,0,0,0,2,0,12,12,12,,,,,,,,,,,,,710.2594425582383,,,,,AMP_prac,right,0.882290268181805,,,,,,,,,,,,,,,,,,,,,6,,,right,0.9994708074964365,,,,,,,,,,,,,,1015,2019_May_17_1256,mf_amp_cond1,3.0.7,59.98657113833475,
praised,,&&&&&&&,images/symbols/symbol_36.png,condition_files/AMP_rep3.csv,left,loyalty.virtue,,,,,,,,,,,,,,,,,,,,,0,0,0,2,0,13,13,13,,,,,,,,,,,,,711.042963054666,,,,,AMP_prac,right,0.882290268181805,,,,,,,,,,,,,,,,,,,,,6,,,right,0.5661436106579458,,,,,,,,,,,,,,1015,2019_May_17_1256,mf_amp_cond1,3.0.7,59.98657113833475,
attacks,,&&&&&&&,images/symbols/symbol_45.png,condition_files/AMP_rep3.csv,right,care.vice,,,,,,,,,,,,,,,,,,,,,0,0,0,2,0,14,14,14,,,,,,,,,,,,,711.8598569961493,,,,,AMP_prac,right,0.882290268181805,,,,,,,,,,,,,,,,,,,,,6,,,right,0.599292870526142,,,,,,,,,,,,,,1015,2019_May_17_1256,mf_amp_cond1,3.0.7,59.98657113833475,
hand,,&&&&,images/symbols/symbol_35.png,condition_files/AMP_rep3.csv,left,sanctity.virtue,,,,,,,,,,,,,,,,,,,,,0,0,0,2,0,15,15,15,,,,,,,,,,,,,712.8101212396061,,,,,AMP_prac,right,0.882290268181805,,,,,,,,,,,,,,,,,,,,,6,,,right,0.732739183786407,,,,,,,,,,,,,,1015,2019_May_17_1256,mf_amp_cond1,3.0.7,59.98657113833475,
peaceful,,&&&&&&&&,images/symbols/symbol_19.png,condition_files/AMP_rep3.csv,left,authority.virtue,,,,,,,,,,,,,,,,,,,,,0,0,0,2,0,16,16,16,,,,,,,,,,,,,713.7936739365957,,,,,AMP_prac,right,0.882290268181805,,,,,,,,,,,,,,,,,,,,,6,,,right,0.7661575300244294,,,,,,,,,,,,,,1015,2019_May_17_1256,mf_amp_cond1,3.0.7,59.98657113833475,
strong,,&&&&&&,images/symbols/symbol_61.png,condition_files/AMP_rep3.csv,left,loyalty.virtue,,,,,,,,,,,,,,,,,,,,,0,0,0,2,0,17,17,17,,,,,,,,,,,,,714.693900302698,,,,,AMP_prac,right,0.882290268181805,,,,,,,,,,,,,,,,,,,,,6,,,right,0.6670275866449629,,,,,,,,,,,,,,1015,2019_May_17_1256,mf_amp_cond1,3.0.7,59.98657113833475,
serial,,&&&&&&,images/symbols/symbol_7.png,condition_files/AMP_rep3.csv,right,sanctity.vice,,,,,,,,,,,,,,,,,,,,,0,0,0,2,0,18,18,18,,,,,,,,,,,,,715.6108109859081,,,,,AMP_prac,right,0.882290268181805,,,,,,,,,,,,,,,,,,,,,6,,,right,0.6992470713203147,,,,,,,,,,,,,,1015,2019_May_17_1256,mf_amp_cond1,3.0.7,59.98657113833475,
threatened,,&&&&&&&&&&,images/symbols/symbol_49.png,condition_files/AMP_rep3.csv,right,fairness.vice,,,,,,,,,,,,,,,,,,,,,0,0,0,2,0,19,19,19,,,,,,,,,,,,,716.6610647096593,,,,,AMP_prac,right,0.882290268181805,,,,,,,,,,,,,,,,,,,,,6,,,right,0.8171046563168147,,,,,,,,,,,,,,1015,2019_May_17_1256,mf_amp_cond1,3.0.7,59.98657113833475,
perfect,,&&&&&&&,images/symbols/symbol_50.png,condition_files/AMP_rep3.csv,left,sanctity.virtue,,,,,,,,,,,,,,,,,,,,,0,0,0,2,0,20,20,20,,,,,,,,,,,,,717.6778850132041,,,,,AMP_prac,right,0.882290268181805,,,,,,,,,,,,,,,,,,,,,6,,,right,0.799104413850273,,,,,,,,,,,,,,1015,2019_May_17_1256,mf_amp_cond1,3.0.7,59.98657113833475,
compassion,,&&&&&&&&&&,images/symbols/symbol_58.png,condition_files/AMP_rep3.csv,left,care.virtue,,,,,,,,,,,,,,,,,,,,,0,0,0,2,0,21,21,21,,,,,,,,,,,,,718.5948973655193,,,,,AMP_prac,right,0.882290268181805,,,,,,,,,,,,,,,,,,,,,6,,,right,0.6994885755357245,,,,,,,,,,,,,,1015,2019_May_17_1256,mf_amp_cond1,3.0.7,59.98657113833475,
spraize,,&&&&&&&,images/symbols/symbol_71.png,condition_files/AMP_rep3.csv,None,nonword,,,,,,,,,,,,,,,,,,,,,0,0,0,2,0,22,22,22,,,,,,,,,,,,,719.5951731870666,,,,,AMP_prac,right,0.882290268181805,,,,,,,,,,,,,,,,,,,,,6,,,right,0.782741781640425,,,,,,,,,,,,,,1015,2019_May_17_1256,mf_amp_cond1,3.0.7,59.98657113833475,
illegal,,&&&&&&&,images/symbols/symbol_30.png,condition_files/AMP_rep3.csv,right,fairness.vice,,,,,,,,,,,,,,,,,,,,,0,0,0,2,0,23,23,23,,,,,,,,,,,,,720.4953973081099,,,,,AMP_prac,right,0.882290268181805,,,,,,,,,,,,,,,,,,,,,6,,,right,0.6829796937611263,,,,,,,,,,,,,,1015,2019_May_17_1256,mf_amp_cond1,3.0.7,59.98657113833475,
hate,,&&&&,images/symbols/symbol_2.png,condition_files/AMP_rep3.csv,right,fairness.vice,,,,,,,,,,,,,,,,,,,,,0,0,0,2,0,24,24,24,,,,,,,,,,,,,721.3956130903623,,,,,AMP_prac,right,0.882290268181805,,,,,,,,,,,,,,,,,,,,,6,,,right,0.6828328027509087,,,,,,,,,,,,,,1015,2019_May_17_1256,mf_amp_cond1,3.0.7,59.98657113833475,
squintce,,&&&&&&&&,images/symbols/symbol_53.png,condition_files/AMP_rep3.csv,None,nonword,,,,,,,,,,,,,,,,,,,,,0,0,0,2,0,25,25,25,,,,,,,,,,,,,722.329194941048,,,,,AMP_prac,right,0.882290268181805,,,,,,,,,,,,,,,,,,,,,6,,,right,0.7157245222674646,,,,,,,,,,,,,,1015,2019_May_17_1256,mf_amp_cond1,3.0.7,59.98657113833475,
prison,,&&&&&&,images/symbols/symbol_68.png,condition_files/AMP_rep3.csv,right,fairness.vice,,,,,,,,,,,,,,,,,,,,,0,0,0,2,0,26,26,26,,,,,,,,,,,,,723.2627899413653,,,,,AMP_prac,right,0.882290268181805,,,,,,,,,,,,,,,,,,,,,6,,,right,0.7004254066282556,,,,,,,,,,,,,,1015,2019_May_17_1256,mf_amp_cond1,3.0.7,59.98657113833475,
war,,&&&,images/symbols/symbol_37.png,condition_files/AMP_rep3.csv,right,sanctity.vice,,,,,,,,,,,,,,,,,,,,,0,0,0,2,0,27,27,27,,,,,,,,,,,,,724.4964184892804,,,,,AMP_prac,right,0.882290268181805,,,,,,,,,,,,,,,,,,,,,6,,,right,1.0004878192714841,,,,,,,,,,,,,,1015,2019_May_17_1256,mf_amp_cond1,3.0.7,59.98657113833475,
agreement,,&&&&&&&&&,images/symbols/symbol_13.png,condition_files/AMP_rep3.csv,left,fairness.virtue,,,,,,,,,,,,,,,,,,,,,0,0,0,2,0,28,28,28,,,,,,,,,,,,,725.8467615663842,,,,,AMP_prac,right,0.882290268181805,,,,,,,,,,,,,,,,,,,,,6,,,right,1.1327227627825778,,,,,,,,,,,,,,1015,2019_May_17_1256,mf_amp_cond1,3.0.7,59.98657113833475,
army,,&&&&,images/symbols/symbol_73.png,condition_files/AMP_rep3.csv,right,loyalty.vice,,,,,,,,,,,,,,,,,,,,,0,0,0,2,0,29,29,29,,,,,,,,,,,,,728.1806945443138,,,,,AMP_prac,right,0.882290268181805,,,,,,,,,,,,,,,,,,,,,6,,,right,2.1164101633185055,,,,,,,,,,,,,,1015,2019_May_17_1256,mf_amp_cond1,3.0.7,59.98657113833475,
suicide,,&&&&&&&,images/symbols/symbol_25.png,condition_files/AMP_rep3.csv,right,care.vice,,,,,,,,,,,,,,,,,,,,,0,0,0,2,0,30,30,30,,,,,,,,,,,,,730.7480177731707,,,,,AMP_prac,right,0.882290268181805,,,,,,,,,,,,,,,,,,,,,6,,,right,2.3496913685173695,,,,,,,,,,,,,,1015,2019_May_17_1256,mf_amp_cond1,3.0.7,59.98657113833475,
credit,,&&&&&&,images/symbols/symbol_44.png,condition_files/AMP_rep3.csv,left,fairness.virtue,,,,,,,,,,,,,,,,,,,,,0,0,0,2,0,31,31,31,,,,,,,,,,,,,732.1317006194438,,,,,AMP_prac,right,0.882290268181805,,,,,,,,,,,,,,,,,,,,,6,,,left,1.166098132174966,,,,,,,,,,,,,,1015,2019_May_17_1256,mf_amp_cond1,3.0.7,59.98657113833475,
increase,,&&&&&&&&,images/symbols/symbol_6.png,condition_files/AMP_rep3.csv,left,care.virtue,,,,,,,,,,,,,,,,,,,,,0,0,0,2,0,32,32,32,,,,,,,,,,,,,733.3487317661111,,,,,AMP_prac,right,0.882290268181805,,,,,,,,,,,,,,,,,,,,,6,,,right,0.9838602700870069,,,,,,,,,,,,,,1015,2019_May_17_1256,mf_amp_cond1,3.0.7,59.98657113833475,
restore,,&&&&&&&,images/symbols/symbol_1.png,condition_files/AMP_rep3.csv,left,care.virtue,,,,,,,,,,,,,,,,,,,,,0,0,0,2,0,33,33,33,,,,,,,,,,,,,734.3656338539517,,,,,AMP_prac,right,0.882290268181805,,,,,,,,,,,,,,,,,,,,,6,,,right,0.7991656718916147,,,,,,,,,,,,,,1015,2019_May_17_1256,mf_amp_cond1,3.0.7,59.98657113833475,
killed,,&&&&&&,images/symbols/symbol_63.png,condition_files/AMP_rep3.csv,right,care.vice,,,,,,,,,,,,,,,,,,,,,0,0,0,2,0,34,34,34,,,,,,,,,,,,,734.9657827334429,,,,,AMP_prac,right,0.882290268181805,,,,,,,,,,,,,,,,,,,,,6,,,left,0.3670049436202589,,,,,,,,,,,,,,1015,2019_May_17_1256,mf_amp_cond1,3.0.7,59.98657113833475,
sexual,,&&&&&&,images/symbols/symbol_9.png,condition_files/AMP_rep3.csv,right,sanctity.vice,,,,,,,,,,,,,,,,,,,,,0,0,0,2,0,35,35,35,,,,,,,,,,,,,735.8660350780863,,,,,AMP_prac,right,0.882290268181805,,,,,,,,,,,,,,,,,,,,,6,,,right,0.6824848185895007,,,,,,,,,,,,,,1015,2019_May_17_1256,mf_amp_cond1,3.0.7,59.98657113833475,
rejected,,&&&&&&&&,images/symbols/symbol_8.png,condition_files/AMP_rep3.csv,right,authority.vice,,,,,,,,,,,,,,,,,,,,,0,0,0,2,0,36,36,36,,,,,,,,,,,,,737.14967616626,,,,,AMP_prac,right,0.882290268181805,,,,,,,,,,,,,,,,,,,,,6,,,left,1.0663296298412206,,,,,,,,,,,,,,1015,2019_May_17_1256,mf_amp_cond1,3.0.7,59.98657113833475,
faith,,&&&&&,images/symbols/symbol_80.png,condition_files/AMP_rep3.csv,left,sanctity.virtue,,,,,,,,,,,,,,,,,,,,,0,0,0,2,0,37,37,37,,,,,,,,,,,,,737.8332081445612,,,,,AMP_prac,right,0.882290268181805,,,,,,,,,,,,,,,,,,,,,6,,,right,0.4664960207931017,,,,,,,,,,,,,,1015,2019_May_17_1256,mf_amp_cond1,3.0.7,59.98657113833475,
win,,&&&,images/symbols/symbol_70.png,condition_files/AMP_rep3.csv,left,fairness.virtue,,,,,,,,,,,,,,,,,,,,,0,0,0,2,0,38,38,38,,,,,,,,,,,,,738.9501321056921,,,,,AMP_prac,right,0.882290268181805,,,,,,,,,,,,,,,,,,,,,6,,,right,0.8991647738680513,,,,,,,,,,,,,,1015,2019_May_17_1256,mf_amp_cond1,3.0.7,59.98657113833475,
scandal,,&&&&&&&,images/symbols/symbol_3.png,condition_files/AMP_rep3.csv,right,sanctity.vice,,,,,,,,,,,,,,,,,,,,,0,0,0,2,0,39,39,39,,,,,,,,,,,,,739.650300934137,,,,,AMP_prac,right,0.882290268181805,,,,,,,,,,,,,,,,,,,,,6,,,left,0.48261394156043025,,,,,,,,,,,,,,1015,2019_May_17_1256,mf_amp_cond1,3.0.7,59.98657113833475,
arrests,,&&&&&&&,images/symbols/symbol_56.png,condition_files/AMP_rep3.csv,right,authority.vice,,,,,,,,,,,,,,,,,,,,,0,0,0,2,0,40,40,40,,,,,,,,,,,,,740.4505031818901,,,,,AMP_prac,right,0.882290268181805,,,,,,,,,,,,,,,,,,,,,6,,,right,0.5670400306867123,,,,,,,,,,,,,,1015,2019_May_17_1256,mf_amp_cond1,3.0.7,59.98657113833475,
died,,&&&&,images/symbols/symbol_75.png,condition_files/AMP_rep3.csv,right,care.vice,,,,,,,,,,,,,,,,,,,,,0,0,0,2,0,41,41,41,,,,,,,,,,,,,741.8675408713009,,,,,AMP_prac,right,0.882290268181805,,,,,,,,,,,,,,,,,,,,,6,,,left,1.199414488585262,,,,,,,,,,,,,,1015,2019_May_17_1256,mf_amp_cond1,3.0.7,59.98657113833475,
great,,&&&&&,images/symbols/symbol_59.png,condition_files/AMP_rep3.csv,left,loyalty.virtue,,,,,,,,,,,,,,,,,,,,,0,0,0,2,0,42,42,42,,,,,,,,,,,,,742.5010275956251,,,,,AMP_prac,right,0.882290268181805,,,,,,,,,,,,,,,,,,,,,6,,,right,0.41610727277293336,,,,,,,,,,,,,,1015,2019_May_17_1256,mf_amp_cond1,3.0.7,59.98657113833475,
useful,,&&&&&&,images/symbols/symbol_42.png,condition_files/AMP_rep3.csv,left,authority.virtue,,,,,,,,,,,,,,,,,,,,,0,0,0,2,0,43,43,43,,,,,,,,,,,,,743.2678926399906,,,,,AMP_prac,right,0.882290268181805,,,,,,,,,,,,,,,,,,,,,6,,,left,0.5494006012909267,,,,,,,,,,,,,,1015,2019_May_17_1256,mf_amp_cond1,3.0.7,59.98657113833475,
peighld,,&&&&&&&,images/symbols/symbol_39.png,condition_files/AMP_rep3.csv,None,nonword,,,,,,,,,,,,,,,,,,,,,0,0,0,2,0,44,44,44,,,,,,,,,,,,,744.7016184951817,,,,,AMP_prac,right,0.882290268181805,,,,,,,,,,,,,,,,,,,,,6,,,right,1.2162543562164956,,,,,,,,,,,,,,1015,2019_May_17_1256,mf_amp_cond1,3.0.7,59.98657113833475,
strength,,&&&&&&&&,images/symbols/symbol_62.png,condition_files/AMP_rep3.csv,left,sanctity.virtue,,,,,,,,,,,,,,,,,,,,,0,0,0,2,0,45,45,45,,,,,,,,,,,,,745.5184816472831,,,,,AMP_prac,right,0.882290268181805,,,,,,,,,,,,,,,,,,,,,6,,,right,0.5837204991214548,,,,,,,,,,,,,,1015,2019_May_17_1256,mf_amp_cond1,3.0.7,59.98657113833475,
failure,,&&&&&&&,images/symbols/symbol_55.png,condition_files/AMP_rep3.csv,right,loyalty.vice,,,,,,,,,,,,,,,,,,,,,0,0,0,2,0,46,46,46,,,,,,,,,,,,,746.1019474925577,,,,,AMP_prac,right,0.882290268181805,,,,,,,,,,,,,,,,,,,,,6,,,left,0.36576021870746445,,,,,,,,,,,,,,1015,2019_May_17_1256,mf_amp_cond1,3.0.7,59.98657113833475,
lies,,&&&&,images/symbols/symbol_32.png,condition_files/AMP_rep3.csv,right,fairness.vice,,,,,,,,,,,,,,,,,,,,,0,0,0,2,0,47,47,47,,,,,,,,,,,,,746.8521647822067,,,,,AMP_prac,right,0.882290268181805,,,,,,,,,,,,,,,,,,,,,6,,,left,0.5327473942882079,,,,,,,,,,,,,,1015,2019_May_17_1256,mf_amp_cond1,3.0.7,59.98657113833475,
sharz,,&&&&&,images/symbols/symbol_82.png,condition_files/AMP_rep3.csv,None,nonword,,,,,,,,,,,,,,,,,,,,,0,0,0,2,0,48,48,48,,,,,,,,,,,,,747.9190944842746,,,,,AMP_prac,right,0.882290268181805,,,,,,,,,,,,,,,,,,,,,6,,,left,0.8498658416822309,,,,,,,,,,,,,,1015,2019_May_17_1256,mf_amp_cond1,3.0.7,59.98657113833475,
officers,,&&&&&&&&,images/symbols/symbol_41.png,condition_files/AMP_rep3.csv,right,authority.vice,,,,,,,,,,,,,,,,,,,,,0,0,0,2,0,49,49,49,,,,,,,,,,,,,748.6692899647783,,,,,AMP_prac,right,0.882290268181805,,,,,,,,,,,,,,,,,,,,,6,,,left,0.5332637578826507,,,,,,,,,,,,,,1015,2019_May_17_1256,mf_amp_cond1,3.0.7,59.98657113833475,
riot,,&&&&,images/symbols/symbol_10.png,condition_files/AMP_rep3.csv,right,authority.vice,,,,,,,,,,,,,,,,,,,,,0,0,0,2,0,50,50,50,,,,,,,,,,,,,749.4360215884883,,,,,AMP_prac,right,0.882290268181805,,,,,,,,,,,,,,,,,,,,,6,,,left,0.5494557656004417,,,,,,,,,,,,,,1015,2019_May_17_1256,mf_amp_cond1,3.0.7,59.98657113833475,
protesters,,&&&&&&&&&&,images/symbols/symbol_18.png,condition_files/AMP_rep3.csv,right,authority.vice,,,,,,,,,,,,,,,,,,,,,0,0,0,2,0,51,51,51,,,,,,,,,,,,,751.2532692871423,,,,,AMP_prac,right,0.882290268181805,,,,,,,,,,,,,,,,,,,,,6,,,left,1.5839652105642017,,,,,,,,,,,,,,1015,2019_May_17_1256,mf_amp_cond1,3.0.7,59.98657113833475,
ensure,,&&&&&&,images/symbols/symbol_48.png,condition_files/AMP_rep3.csv,left,fairness.virtue,,,,,,,,,,,,,,,,,,,,,0,0,0,2,0,52,52,52,,,,,,,,,,,,,752.9870431224538,,,,,AMP_prac,right,0.882290268181805,,,,,,,,,,,,,,,,,,,,,6,,,right,1.5158356847653067,,,,,,,,,,,,,,1015,2019_May_17_1256,mf_amp_cond1,3.0.7,59.98657113833475,
dighnd,,&&&&&&,images/symbols/symbol_52.png,condition_files/AMP_rep3.csv,None,nonword,,,,,,,,,,,,,,,,,,,,,0,0,0,2,0,53,53,53,,,,,,,,,,,,,753.5872272814449,,,,,AMP_prac,right,0.882290268181805,,,,,,,,,,,,,,,,,,,,,6,,,right,0.3670148860248901,,,,,,,,,,,,,,1015,2019_May_17_1256,mf_amp_cond1,3.0.7,59.98657113833475,
gun,,&&&,images/symbols/symbol_29.png,condition_files/AMP_rep3.csv,right,authority.vice,,,,,,,,,,,,,,,,,,,,,0,0,0,2,0,54,54,54,,,,,,,,,,,,,754.2207091949281,,,,,AMP_prac,right,0.882290268181805,,,,,,,,,,,,,,,,,,,,,6,,,left,0.4158166979798352,,,,,,,,,,,,,,1015,2019_May_17_1256,mf_amp_cond1,3.0.7,59.98657113833475,
brored,,&&&&&&,images/symbols/symbol_69.png,condition_files/AMP_rep3.csv,None,nonword,,,,,,,,,,,,,,,,,,,,,0,0,0,2,0,55,55,55,,,,,,,,,,,,,755.270981199875,,,,,AMP_prac,right,0.882290268181805,,,,,,,,,,,,,,,,,,,,,6,,,left,0.8327825454991853,,,,,,,,,,,,,,1015,2019_May_17_1256,mf_amp_cond1,3.0.7,59.98657113833475,
fair,,&&&&,images/symbols/symbol_40.png,condition_files/AMP_rep3.csv,left,fairness.virtue,,,,,,,,,,,,,,,,,,,,,0,0,0,2,0,56,56,56,,,,,,,,,,,,,756.3379028838747,,,,,AMP_prac,right,0.882290268181805,,,,,,,,,,,,,,,,,,,,,6,,,left,0.8494242064837181,,,,,,,,,,,,,,1015,2019_May_17_1256,mf_amp_cond1,3.0.7,59.98657113833475,
charges,,&&&&&&&,images/symbols/symbol_72.png,condition_files/AMP_rep3.csv,right,fairness.vice,,,,,,,,,,,,,,,,,,,,,0,0,0,2,0,57,57,57,,,,,,,,,,,,,757.4882047801798,,,,,AMP_prac,right,0.882290268181805,,,,,,,,,,,,,,,,,,,,,6,,,left,0.9323634250365558,,,,,,,,,,,,,,1015,2019_May_17_1256,mf_amp_cond1,3.0.7,59.98657113833475,
growth,,&&&&&&,images/symbols/symbol_20.png,condition_files/AMP_rep3.csv,left,care.virtue,,,,,,,,,,,,,,,,,,,,,0,0,0,2,0,58,58,58,,,,,,,,,,,,,758.1050302794329,,,,,AMP_prac,right,0.882290268181805,,,,,,,,,,,,,,,,,,,,,6,,,right,0.39989538024565263,,,,,,,,,,,,,,1015,2019_May_17_1256,mf_amp_cond1,3.0.7,59.98657113833475,
abuse,,&&&&&,images/symbols/symbol_17.png,condition_files/AMP_rep3.csv,right,sanctity.vice,,,,,,,,,,,,,,,,,,,,,0,0,0,2,0,59,59,59,,,,,,,,,,,,,758.7718731297855,,,,,AMP_prac,right,0.882290268181805,,,,,,,,,,,,,,,,,,,,,6,,,left,0.44938450100994487,,,,,,,,,,,,,,1015,2019_May_17_1256,mf_amp_cond1,3.0.7,59.98657113833475,
black,,&&&&&,images/symbols/symbol_79.png,condition_files/AMP_rep3.csv,right,loyalty.vice,,,,,,,,,,,,,,,,,,,,,0,0,0,2,0,60,60,60,,,,,,,,,,,,,759.9388298367071,,,,,AMP_prac,right,0.882290268181805,,,,,,,,,,,,,,,,,,,,,6,,,right,0.9494059894329894,,,,,,,,,,,,,,1015,2019_May_17_1256,mf_amp_cond1,3.0.7,59.98657113833475,
betrayal,,&&&&&&&&,images/symbols/symbol_65.png,condition_files/AMP_rep3.csv,right,loyalty.vice,,,,,,,,,,,,,,,,,,,,,0,0,0,2,0,61,61,61,,,,,,,,,,,,,760.7223638034893,,,,,AMP_prac,right,0.882290268181805,,,,,,,,,,,,,,,,,,,,,6,,,left,0.5660236603573594,,,,,,,,,,,,,,1015,2019_May_17_1256,mf_amp_cond1,3.0.7,59.98657113833475,
energy,,&&&&&&,images/symbols/symbol_4.png,condition_files/AMP_rep3.csv,left,sanctity.virtue,,,,,,,,,,,,,,,,,,,,,0,0,0,2,0,62,62,62,,,,,,,,,,,,,761.5392356151044,,,,,AMP_prac,right,0.882290268181805,,,,,,,,,,,,,,,,,,,,,6,,,right,0.5993387338764933,,,,,,,,,,,,,,1015,2019_May_17_1256,mf_amp_cond1,3.0.7,59.98657113833475,
powerful,,&&&&&&&&,images/symbols/symbol_12.png,condition_files/AMP_rep3.csv,left,authority.virtue,,,,,,,,,,,,,,,,,,,,,0,0,0,2,0,63,63,63,,,,,,,,,,,,,762.8562434131568,,,,,AMP_prac,right,0.882290268181805,,,,,,,,,,,,,,,,,,,,,6,,,right,1.0838372421949316,,,,,,,,,,,,,,1015,2019_May_17_1256,mf_amp_cond1,3.0.7,59.98657113833475,
unpleasant,,&&&&&&&&&,images/symbols/symbol_15.png,condition_files/AMP_rep3.csv,left,control,,,,,,,,,,,,,,,,,,,,,0,0,0,2,0,64,64,64,,,,,,,,,,,,,763.9398827694279,,,,,AMP_prac,right,0.882290268181805,,,,,,,,,,,,,,,,,,,,,6,,,left,0.8658984502037583,,,,,,,,,,,,,,1015,2019_May_17_1256,mf_amp_cond1,3.0.7,59.98657113833475,
shind,,&&&&&,images/symbols/symbol_76.png,condition_files/AMP_rep3.csv,None,nonword,,,,,,,,,,,,,,,,,,,,,0,0,0,2,0,65,65,65,,,,,,,,,,,,,765.6903062837921,,,,,AMP_prac,right,0.882290268181805,,,,,,,,,,,,,,,,,,,,,6,,,left,1.5333840289060845,,,,,,,,,,,,,,1015,2019_May_17_1256,mf_amp_cond1,3.0.7,59.98657113833475,
jogns,,&&&&&,images/symbols/symbol_22.png,condition_files/AMP_rep3.csv,None,nonword,,,,,,,,,,,,,,,,,,,,,0,0,0,2,0,66,66,66,,,,,,,,,,,,,766.5238665819104,,,,,AMP_prac,right,0.882290268181805,,,,,,,,,,,,,,,,,,,,,6,,,right,0.6158732734693331,,,,,,,,,,,,,,1015,2019_May_17_1256,mf_amp_cond1,3.0.7,59.98657113833475,
ability,,&&&&&&&,images/symbols/symbol_34.png,condition_files/AMP_rep3.csv,left,authority.virtue,,,,,,,,,,,,,,,,,,,,,0,0,0,2,0,67,67,67,,,,,,,,,,,,,767.8908997491305,,,,,AMP_prac,right,0.882290268181805,,,,,,,,,,,,,,,,,,,,,6,,,left,1.1495081075497637,,,,,,,,,,,,,,1015,2019_May_17_1256,mf_amp_cond1,3.0.7,59.98657113833475,
health,,&&&&&&,images/symbols/symbol_33.png,condition_files/AMP_rep3.csv,left,care.virtue,,,,,,,,,,,,,,,,,,,,,0,0,0,2,0,68,68,68,,,,,,,,,,,,,768.7911014195829,,,,,AMP_prac,right,0.882290268181805,,,,,,,,,,,,,,,,,,,,,6,,,right,0.6828087485464494,,,,,,,,,,,,,,1015,2019_May_17_1256,mf_amp_cond1,3.0.7,59.98657113833475,
opportunity,,&&&&&&&&&&&,images/symbols/symbol_81.png,condition_files/AMP_rep3.csv,left,fairness.virtue,,,,,,,,,,,,,,,,,,,,,0,0,0,2,0,69,69,69,,,,,,,,,,,,,769.6747124239646,,,,,AMP_prac,right,0.882290268181805,,,,,,,,,,,,,,,,,,,,,6,,,right,0.6504471837017718,,,,,,,,,,,,,,1015,2019_May_17_1256,mf_amp_cond1,3.0.7,59.98657113833475,
safety,,&&&&&&,images/symbols/symbol_74.png,condition_files/AMP_rep3.csv,left,care.virtue,,,,,,,,,,,,,,,,,,,,,0,0,0,2,0,70,70,70,,,,,,,,,,,,,770.9249749355185,,,,,AMP_prac,right,0.882290268181805,,,,,,,,,,,,,,,,,,,,,6,,,right,1.0171538551833237,,,,,,,,,,,,,,1015,2019_May_17_1256,mf_amp_cond1,3.0.7,59.98657113833475,
promote,,&&&&&&&,images/symbols/symbol_16.png,condition_files/AMP_rep3.csv,left,sanctity.virtue,,,,,,,,,,,,,,,,,,,,,0,0,0,2,0,71,71,71,,,,,,,,,,,,,771.9085699679085,,,,,AMP_prac,right,0.882290268181805,,,,,,,,,,,,,,,,,,,,,6,,,right,0.7662280890249349,,,,,,,,,,,,,,1015,2019_May_17_1256,mf_amp_cond1,3.0.7,59.98657113833475,
interests,,&&&&&&&&&,images/symbols/symbol_60.png,condition_files/AMP_rep3.csv,left,fairness.virtue,,,,,,,,,,,,,,,,,,,,,0,0,0,2,0,72,72,72,,,,,,,,,,,,,772.9921724410656,,,,,AMP_prac,right,0.882290268181805,,,,,,,,,,,,,,,,,,,,,6,,,right,0.8504482741591346,,,,,,,,,,,,,,1015,2019_May_17_1256,mf_amp_cond1,3.0.7,59.98657113833475,
victim,,&&&&&&,images/symbols/symbol_31.png,condition_files/AMP_rep3.csv,right,care.vice,,,,,,,,,,,,,,,,,,,,,0,0,0,2,0,73,73,73,,,,,,,,,,,,,773.8590705840168,,,,,AMP_prac,right,0.882290268181805,,,,,,,,,,,,,,,,,,,,,6,,,left,0.650142176385998,,,,,,,,,,,,,,1015,2019_May_17_1256,mf_amp_cond1,3.0.7,59.98657113833475,
police,,&&&&&&,images/symbols/symbol_23.png,condition_files/AMP_rep3.csv,right,authority.vice,,,,,,,,,,,,,,,,,,,,,0,0,0,2,0,74,74,74,,,,,,,,,,,,,775.0927161302366,,,,,AMP_prac,right,0.882290268181805,,,,,,,,,,,,,,,,,,,,,6,,,left,1.0161313911221441,,,,,,,,,,,,,,1015,2019_May_17_1256,mf_amp_cond1,3.0.7,59.98657113833475,
critics,,&&&&&&&,images/symbols/symbol_64.png,condition_files/AMP_rep3.csv,right,loyalty.vice,,,,,,,,,,,,,,,,,,,,,0,0,0,2,0,75,75,75,,,,,,,,,,,,,776.393041214795,,,,,AMP_prac,right,0.882290268181805,,,,,,,,,,,,,,,,,,,,,6,,,left,1.0825957245092468,,,,,,,,,,,,,,1015,2019_May_17_1256,mf_amp_cond1,3.0.7,59.98657113833475,
voter,,&&&&&,images/symbols/symbol_77.png,condition_files/AMP_rep3.csv,right,fairness.vice,,,,,,,,,,,,,,,,,,,,,0,0,0,2,0,76,76,76,,,,,,,,,,,,,777.5600187686941,,,,,AMP_prac,right,0.882290268181805,,,,,,,,,,,,,,,,,,,,,6,,,right,0.9494771898789622,,,,,,,,,,,,,,1015,2019_May_17_1256,mf_amp_cond1,3.0.7,59.98657113833475,
groups,,&&&&&&,images/symbols/symbol_24.png,condition_files/AMP_rep3.csv,right,loyalty.vice,,,,,,,,,,,,,,,,,,,,,0,0,0,2,0,77,77,77,,,,,,,,,,,,,778.6769603695752,,,,,AMP_prac,right,0.882290268181805,,,,,,,,,,,,,,,,,,,,,6,,,right,0.8994216727744515,,,,,,,,,,,,,,1015,2019_May_17_1256,mf_amp_cond1,3.0.7,59.98657113833475,
violence,,&&&&&&&&,images/symbols/symbol_54.png,condition_files/AMP_rep3.csv,right,care.vice,,,,,,,,,,,,,,,,,,,,,0,0,0,2,0,78,78,78,,,,,,,,,,,,,779.3604756702944,,,,,AMP_prac,right,0.882290268181805,,,,,,,,,,,,,,,,,,,,,6,,,left,0.4657869028383175,,,,,,,,,,,,,,1015,2019_May_17_1256,mf_amp_cond1,3.0.7,59.98657113833475,
intelligence,,&&&&&&&&&&&&,images/symbols/symbol_51.png,condition_files/AMP_rep3.csv,left,loyalty.virtue,,,,,,,,,,,,,,,,,,,,,0,0,0,2,0,79,79,79,,,,,,,,,,,,,780.4274307094579,,,,,AMP_prac,right,0.882290268181805,,,,,,,,,,,,,,,,,,,,,6,,,right,0.8500095254648841,,,,,,,,,,,,,,1015,2019_May_17_1256,mf_amp_cond1,3.0.7,59.98657113833475,
blamed,,&&&&&&,images/symbols/symbol_67.png,condition_files/AMP_rep3.csv,right,loyalty.vice,,,,,,,,,,,,,,,,,,,,,0,0,0,2,0,80,80,80,,,,,,,,,,,,,781.1942800384097,,,,,AMP_prac,right,0.882290268181805,,,,,,,,,,,,,,,,,,,,,6,,,left,0.5492957249584833,,,,,,,,,,,,,,1015,2019_May_17_1256,mf_amp_cond1,3.0.7,59.98657113833475,
conspiracy,,&&&&&&&&&&,images/symbols/symbol_27.png,condition_files/AMP_rep3.csv,right,sanctity.vice,,,,,,,,,,,,,,,,,,,,,0,0,0,2,0,81,81,81,,,,,,,,,,,,,782.0111649996568,,,,,AMP_prac,right,0.882290268181805,,,,,,,,,,,,,,,,,,,,,6,,,left,0.5993576565174408,,,,,,,,,,,,,,1015,2019_May_17_1256,mf_amp_cond1,3.0.7,59.98657113833475,
,,,,condition_files/AMP_rep3.csv,,,,,,,,,,,,,,,,,,,,,,,0,0,0,2,,,,,,,,,,,,,,,,,,,,,,,,,,,,,,,,,,,,,,,,,,,,,,,,,,right,5.151547583386218,,,,,,,,,,,,1015,2019_May_17_1256,mf_amp_cond1,3.0.7,59.98657113833475,
embrace,,&&&&&&&,images/symbols/symbol_11.png,condition_files/AMP_rep2.csv,left,authority.virtue,,,,,,,,,,,,,,,,,,,,,0,1,1,1,0,0,0,0,,,,,,,,,,,,,788.4462725283663,,,,,AMP_prac,right,0.882290268181805,,,,,,,,,,,,,,,,,,,,,6,,,right,1.032295816685064,,,,,,,,,,,,,,1015,2019_May_17_1256,mf_amp_cond1,3.0.7,59.98657113833475,
freedom,,&&&&&&&,images/symbols/symbol_66.png,condition_files/AMP_rep2.csv,left,sanctity.virtue,,,,,,,,,,,,,,,,,,,,,0,1,1,1,0,1,1,1,,,,,,,,,,,,,789.3297177190968,,,,,AMP_prac,right,0.882290268181805,,,,,,,,,,,,,,,,,,,,,6,,,right,0.6503987545695509,,,,,,,,,,,,,,1015,2019_May_17_1256,mf_amp_cond1,3.0.7,59.98657113833475,
corruption,,&&&&&&&&&&,images/symbols/symbol_14.png,condition_files/AMP_rep2.csv,right,sanctity.vice,,,,,,,,,,,,,,,,,,,,,0,1,1,1,0,2,2,2,,,,,,,,,,,,,789.8965758999962,,,,,AMP_prac,right,0.882290268181805,,,,,,,,,,,,,,,,,,,,,6,,,left,0.3492471675372144,,,,,,,,,,,,,,1015,2019_May_17_1256,mf_amp_cond1,3.0.7,59.98657113833475,
pleasant,,&&&&&&&,images/symbols/symbol_21.png,condition_files/AMP_rep2.csv,right,control,,,,,,,,,,,,,,,,,,,,,0,1,1,1,0,3,3,3,,,,,,,,,,,,,790.6300341441417,,,,,AMP_prac,right,0.882290268181805,,,,,,,,,,,,,,,,,,,,,6,,,right,0.5162612838275891,,,,,,,,,,,,,,1015,2019_May_17_1256,mf_amp_cond1,3.0.7,59.98657113833475,
improve,,&&&&&&&,images/symbols/symbol_57.png,condition_files/AMP_rep2.csv,left,care.virtue,,,,,,,,,,,,,,,,,,,,,0,1,1,1,0,4,4,4,,,,,,,,,,,,,791.4802418762536,,,,,AMP_prac,right,0.882290268181805,,,,,,,,,,,,,,,,,,,,,6,,,left,0.6327076888142074,,,,,,,,,,,,,,1015,2019_May_17_1256,mf_amp_cond1,3.0.7,59.98657113833475,
civilians,,&&&&&&&&&,images/symbols/symbol_47.png,condition_files/AMP_rep2.csv,right,care.vice,,,,,,,,,,,,,,,,,,,,,0,1,1,1,0,5,5,5,,,,,,,,,,,,,792.6639082373783,,,,,AMP_prac,right,0.882290268181805,,,,,,,,,,,,,,,,,,,,,6,,,left,0.9661849197457286,,,,,,,,,,,,,,1015,2019_May_17_1256,mf_amp_cond1,3.0.7,59.98657113833475,
support,,&&&&&&&,images/symbols/symbol_5.png,condition_files/AMP_rep2.csv,left,loyalty.virtue,,,,,,,,,,,,,,,,,,,,,0,1,1,1,0,6,6,6,,,,,,,,,,,,,793.3140821653146,,,,,AMP_prac,right,0.882290268181805,,,,,,,,,,,,,,,,,,,,,6,,,right,0.43278196819846926,,,,,,,,,,,,,,1015,2019_May_17_1256,mf_amp_cond1,3.0.7,59.98657113833475,
gryssed,,&&&&&&&,images/symbols/symbol_26.png,condition_files/AMP_rep2.csv,None,nonword,,,,,,,,,,,,,,,,,,,,,0,1,1,1,0,7,7,7,,,,,,,,,,,,,794.0976398655787,,,,,AMP_prac,right,0.882290268181805,,,,,,,,,,,,,,,,,,,,,6,,,left,0.5660326405936758,,,,,,,,,,,,,,1015,2019_May_17_1256,mf_amp_cond1,3.0.7,59.98657113833475,
party,,&&&&&,images/symbols/symbol_43.png,condition_files/AMP_rep2.csv,left,loyalty.virtue,,,,,,,,,,,,,,,,,,,,,0,1,1,1,0,8,8,8,,,,,,,,,,,,,794.7644198542764,,,,,AMP_prac,right,0.882290268181805,,,,,,,,,,,,,,,,,,,,,6,,,right,0.4336729359408764,,,,,,,,,,,,,,1015,2019_May_17_1256,mf_amp_cond1,3.0.7,59.98657113833475,
trust,,&&&&&,images/symbols/symbol_78.png,condition_files/AMP_rep2.csv,left,authority.virtue,,,,,,,,,,,,,,,,,,,,,0,1,1,1,0,9,9,9,,,,,,,,,,,,,795.4813390687109,,,,,AMP_prac,right,0.882290268181805,,,,,,,,,,,,,,,,,,,,,6,,,right,0.49879632759643755,,,,,,,,,,,,,,1015,2019_May_17_1256,mf_amp_cond1,3.0.7,59.98657113833475,
honored,,&&&&&&&,images/symbols/symbol_38.png,condition_files/AMP_rep2.csv,left,authority.virtue,,,,,,,,,,,,,,,,,,,,,0,1,1,1,0,10,10,10,,,,,,,,,,,,,796.2648515470703,,,,,AMP_prac,right,0.882290268181805,,,,,,,,,,,,,,,,,,,,,6,,,right,0.5661365547578043,,,,,,,,,,,,,,1015,2019_May_17_1256,mf_amp_cond1,3.0.7,59.98657113833475,
loyalty,,&&&&&&&,images/symbols/symbol_28.png,condition_files/AMP_rep2.csv,left,loyalty.virtue,,,,,,,,,,,,,,,,,,,,,0,1,1,1,0,11,11,11,,,,,,,,,,,,,797.0983576430472,,,,,AMP_prac,right,0.882290268181805,,,,,,,,,,,,,,,,,,,,,6,,,right,0.6160657071070545,,,,,,,,,,,,,,1015,2019_May_17_1256,mf_amp_cond1,3.0.7,59.98657113833475,
stintz,,&&&&&&,images/symbols/symbol_46.png,condition_files/AMP_rep2.csv,None,nonword,,,,,,,,,,,,,,,,,,,,,0,1,1,1,0,12,12,12,,,,,,,,,,,,,799.0155216972132,,,,,AMP_prac,right,0.882290268181805,,,,,,,,,,,,,,,,,,,,,6,,,left,1.6996723496597497,,,,,,,,,,,,,,1015,2019_May_17_1256,mf_amp_cond1,3.0.7,59.98657113833475,
praised,,&&&&&&&,images/symbols/symbol_36.png,condition_files/AMP_rep2.csv,left,loyalty.virtue,,,,,,,,,,,,,,,,,,,,,0,1,1,1,0,13,13,13,,,,,,,,,,,,,799.8824115013736,,,,,AMP_prac,right,0.882290268181805,,,,,,,,,,,,,,,,,,,,,6,,,right,0.6494038726630151,,,,,,,,,,,,,,1015,2019_May_17_1256,mf_amp_cond1,3.0.7,59.98657113833475,
attacks,,&&&&&&&,images/symbols/symbol_45.png,condition_files/AMP_rep2.csv,right,care.vice,,,,,,,,,,,,,,,,,,,,,0,1,1,1,0,14,14,14,,,,,,,,,,,,,800.715957366969,,,,,AMP_prac,right,0.882290268181805,,,,,,,,,,,,,,,,,,,,,6,,,left,0.6160766116797731,,,,,,,,,,,,,,1015,2019_May_17_1256,mf_amp_cond1,3.0.7,59.98657113833475,
hand,,&&&&,images/symbols/symbol_35.png,condition_files/AMP_rep2.csv,left,sanctity.virtue,,,,,,,,,,,,,,,,,,,,,0,1,1,1,0,15,15,15,,,,,,,,,,,,,801.6828603849058,,,,,AMP_prac,right,0.882290268181805,,,,,,,,,,,,,,,,,,,,,6,,,right,0.7494523659395327,,,,,,,,,,,,,,1015,2019_May_17_1256,mf_amp_cond1,3.0.7,59.98657113833475,
peaceful,,&&&&&&&&,images/symbols/symbol_19.png,condition_files/AMP_rep2.csv,left,authority.virtue,,,,,,,,,,,,,,,,,,,,,0,1,1,1,0,16,16,16,,,,,,,,,,,,,802.4997305929073,,,,,AMP_prac,right,0.882290268181805,,,,,,,,,,,,,,,,,,,,,6,,,right,0.599451628277393,,,,,,,,,,,,,,1015,2019_May_17_1256,mf_amp_cond1,3.0.7,59.98657113833475,
strong,,&&&&&&,images/symbols/symbol_61.png,condition_files/AMP_rep2.csv,left,loyalty.virtue,,,,,,,,,,,,,,,,,,,,,0,1,1,1,0,17,17,17,,,,,,,,,,,,,803.2999408587286,,,,,AMP_prac,right,0.882290268181805,,,,,,,,,,,,,,,,,,,,,6,,,right,0.5670348991232004,,,,,,,,,,,,,,1015,2019_May_17_1256,mf_amp_cond1,3.0.7,59.98657113833475,
serial,,&&&&&&,images/symbols/symbol_7.png,condition_files/AMP_rep2.csv,right,sanctity.vice,,,,,,,,,,,,,,,,,,,,,0,1,1,1,0,18,18,18,,,,,,,,,,,,,803.9167660372589,,,,,AMP_prac,right,0.882290268181805,,,,,,,,,,,,,,,,,,,,,6,,,left,0.3992186552864041,,,,,,,,,,,,,,1015,2019_May_17_1256,mf_amp_cond1,3.0.7,59.98657113833475,
threatened,,&&&&&&&&&&,images/symbols/symbol_49.png,condition_files/AMP_rep2.csv,right,fairness.vice,,,,,,,,,,,,,,,,,,,,,0,1,1,1,0,19,19,19,,,,,,,,,,,,,804.816886244138,,,,,AMP_prac,right,0.882290268181805,,,,,,,,,,,,,,,,,,,,,6,,,right,0.6669586312580122,,,,,,,,,,,,,,1015,2019_May_17_1256,mf_amp_cond1,3.0.7,59.98657113833475,
perfect,,&&&&&&&,images/symbols/symbol_50.png,condition_files/AMP_rep2.csv,left,sanctity.virtue,,,,,,,,,,,,,,,,,,,,,0,1,1,1,0,20,20,20,,,,,,,,,,,,,806.084003376569,,,,,AMP_prac,right,0.882290268181805,,,,,,,,,,,,,,,,,,,,,6,,,right,1.049493610882564,,,,,,,,,,,,,,1015,2019_May_17_1256,mf_amp_cond1,3.0.7,59.98657113833475,
compassion,,&&&&&&&&&&,images/symbols/symbol_58.png,condition_files/AMP_rep2.csv,left,care.virtue,,,,,,,,,,,,,,,,,,,,,0,1,1,1,0,21,21,21,,,,,,,,,,,,,806.9175354510869,,,,,AMP_prac,right,0.882290268181805,,,,,,,,,,,,,,,,,,,,,6,,,left,0.615977187633689,,,,,,,,,,,,,,1015,2019_May_17_1256,mf_amp_cond1,3.0.7,59.98657113833475,
spraize,,&&&&&&&,images/symbols/symbol_71.png,condition_files/AMP_rep2.csv,None,nonword,,,,,,,,,,,,,,,,,,,,,0,1,1,1,0,22,22,22,,,,,,,,,,,,,808.4679508190936,,,,,AMP_prac,right,0.882290268181805,,,,,,,,,,,,,,,,,,,,,6,,,right,1.3329615087823186,,,,,,,,,,,,,,1015,2019_May_17_1256,mf_amp_cond1,3.0.7,59.98657113833475,
illegal,,&&&&&&&,images/symbols/symbol_30.png,condition_files/AMP_rep2.csv,right,fairness.vice,,,,,,,,,,,,,,,,,,,,,0,1,1,1,0,23,23,23,,,,,,,,,,,,,809.5348725030933,,,,,AMP_prac,right,0.882290268181805,,,,,,,,,,,,,,,,,,,,,6,,,left,0.8495694938803808,,,,,,,,,,,,,,1015,2019_May_17_1256,mf_amp_cond1,3.0.7,59.98657113833475,
hate,,&&&&,images/symbols/symbol_2.png,condition_files/AMP_rep2.csv,right,fairness.vice,,,,,,,,,,,,,,,,,,,,,0,1,1,1,0,24,24,24,,,,,,,,,,,,,810.5517967208025,,,,,AMP_prac,right,0.882290268181805,,,,,,,,,,,,,,,,,,,,,6,,,left,0.7991980648873778,,,,,,,,,,,,,,1015,2019_May_17_1256,mf_amp_cond1,3.0.7,59.98657113833475,
squintce,,&&&&&&&&,images/symbols/symbol_53.png,condition_files/AMP_rep2.csv,None,nonword,,,,,,,,,,,,,,,,,,,,,0,1,1,1,0,25,25,25,,,,,,,,,,,,,811.6020892520039,,,,,AMP_prac,right,0.882290268181805,,,,,,,,,,,,,,,,,,,,,6,,,left,0.8328537459451582,,,,,,,,,,,,,,1015,2019_May_17_1256,mf_amp_cond1,3.0.7,59.98657113833475,
prison,,&&&&&&,images/symbols/symbol_68.png,condition_files/AMP_rep2.csv,right,fairness.vice,,,,,,,,,,,,,,,,,,,,,0,1,1,1,0,26,26,26,,,,,,,,,,,,,812.2188945457251,,,,,AMP_prac,right,0.882290268181805,,,,,,,,,,,,,,,,,,,,,6,,,left,0.38366167857293476,,,,,,,,,,,,,,1015,2019_May_17_1256,mf_amp_cond1,3.0.7,59.98657113833475,
war,,&&&,images/symbols/symbol_37.png,condition_files/AMP_rep2.csv,right,sanctity.vice,,,,,,,,,,,,,,,,,,,,,0,1,1,1,0,27,27,27,,,,,,,,,,,,,812.8690684736612,,,,,AMP_prac,right,0.882290268181805,,,,,,,,,,,,,,,,,,,,,6,,,left,0.417014597374191,,,,,,,,,,,,,,1015,2019_May_17_1256,mf_amp_cond1,3.0.7,59.98657113833475,
agreement,,&&&&&&&&&,images/symbols/symbol_13.png,condition_files/AMP_rep2.csv,left,fairness.virtue,,,,,,,,,,,,,,,,,,,,,0,1,1,1,0,28,28,28,,,,,,,,,,,,,813.6359210098403,,,,,AMP_prac,right,0.882290268181805,,,,,,,,,,,,,,,,,,,,,6,,,right,0.5493438333678569,,,,,,,,,,,,,,1015,2019_May_17_1256,mf_amp_cond1,3.0.7,59.98657113833475,
army,,&&&&,images/symbols/symbol_73.png,condition_files/AMP_rep2.csv,right,loyalty.vice,,,,,,,,,,,,,,,,,,,,,0,1,1,1,0,29,29,29,,,,,,,,,,,,,814.2194112300422,,,,,AMP_prac,right,0.882290268181805,,,,,,,,,,,,,,,,,,,,,6,,,left,0.36596002896772006,,,,,,,,,,,,,,1015,2019_May_17_1256,mf_amp_cond1,3.0.7,59.98657113833475,
suicide,,&&&&&&&,images/symbols/symbol_25.png,condition_files/AMP_rep2.csv,right,care.vice,,,,,,,,,,,,,,,,,,,,,0,1,1,1,0,30,30,30,,,,,,,,,,,,,814.8695720083465,,,,,AMP_prac,right,0.882290268181805,,,,,,,,,,,,,,,,,,,,,6,,,left,0.4326716395794392,,,,,,,,,,,,,,1015,2019_May_17_1256,mf_amp_cond1,3.0.7,59.98657113833475,
credit,,&&&&&&,images/symbols/symbol_44.png,condition_files/AMP_rep2.csv,left,fairness.virtue,,,,,,,,,,,,,,,,,,,,,0,1,1,1,0,31,31,31,,,,,,,,,,,,,816.0698816340694,,,,,AMP_prac,right,0.882290268181805,,,,,,,,,,,,,,,,,,,,,6,,,right,0.9827929048435635,,,,,,,,,,,,,,1015,2019_May_17_1256,mf_amp_cond1,3.0.7,59.98657113833475,
increase,,&&&&&&&&,images/symbols/symbol_6.png,condition_files/AMP_rep2.csv,left,care.virtue,,,,,,,,,,,,,,,,,,,,,0,1,1,1,0,32,32,32,,,,,,,,,,,,,817.4202314463505,,,,,AMP_prac,right,0.882290268181805,,,,,,,,,,,,,,,,,,,,,6,,,right,1.1328914629382325,,,,,,,,,,,,,,1015,2019_May_17_1256,mf_amp_cond1,3.0.7,59.98657113833475,
restore,,&&&&&&&,images/symbols/symbol_1.png,condition_files/AMP_rep2.csv,left,care.virtue,,,,,,,,,,,,,,,,,,,,,0,1,1,1,0,33,33,33,,,,,,,,,,,,,818.4038104426038,,,,,AMP_prac,right,0.882290268181805,,,,,,,,,,,,,,,,,,,,,6,,,right,0.7656783702666417,,,,,,,,,,,,,,1015,2019_May_17_1256,mf_amp_cond1,3.0.7,59.98657113833475,
killed,,&&&&&&,images/symbols/symbol_63.png,condition_files/AMP_rep2.csv,right,care.vice,,,,,,,,,,,,,,,,,,,,,0,1,1,1,0,34,34,34,,,,,,,,,,,,,818.9706493801391,,,,,AMP_prac,right,0.882290268181805,,,,,,,,,,,,,,,,,,,,,6,,,left,0.33366902312354796,,,,,,,,,,,,,,1015,2019_May_17_1256,mf_amp_cond1,3.0.7,59.98657113833475,
sexual,,&&&&&&,images/symbols/symbol_9.png,condition_files/AMP_rep2.csv,right,sanctity.vice,,,,,,,,,,,,,,,,,,,,,0,1,1,1,0,35,35,35,,,,,,,,,,,,,819.6875127888188,,,,,AMP_prac,right,0.882290268181805,,,,,,,,,,,,,,,,,,,,,6,,,right,0.4991815155945005,,,,,,,,,,,,,,1015,2019_May_17_1256,mf_amp_cond1,3.0.7,59.98657113833475,
rejected,,&&&&&&&&,images/symbols/symbol_8.png,condition_files/AMP_rep2.csv,right,authority.vice,,,,,,,,,,,,,,,,,,,,,0,1,1,1,0,36,36,36,,,,,,,,,,,,,820.6377189814616,,,,,AMP_prac,right,0.882290268181805,,,,,,,,,,,,,,,,,,,,,6,,,left,0.732843418673383,,,,,,,,,,,,,,1015,2019_May_17_1256,mf_amp_cond1,3.0.7,59.98657113833475,
faith,,&&&&&,images/symbols/symbol_80.png,condition_files/AMP_rep2.csv,left,sanctity.virtue,,,,,,,,,,,,,,,,,,,,,0,1,1,1,0,37,37,37,,,,,,,,,,,,,821.4045721590862,,,,,AMP_prac,right,0.882290268181805,,,,,,,,,,,,,,,,,,,,,6,,,right,0.5496991941522538,,,,,,,,,,,,,,1015,2019_May_17_1256,mf_amp_cond1,3.0.7,59.98657113833475,
win,,&&&,images/symbols/symbol_70.png,condition_files/AMP_rep2.csv,left,fairness.virtue,,,,,,,,,,,,,,,,,,,,,0,1,1,1,0,38,38,38,,,,,,,,,,,,,822.0881147212374,,,,,AMP_prac,right,0.882290268181805,,,,,,,,,,,,,,,,,,,,,6,,,right,0.46605149909009924,,,,,,,,,,,,,,1015,2019_May_17_1256,mf_amp_cond1,3.0.7,59.98657113833475,
scandal,,&&&&&&&,images/symbols/symbol_3.png,condition_files/AMP_rep2.csv,right,sanctity.vice,,,,,,,,,,,,,,,,,,,,,0,1,1,1,0,39,39,39,,,,,,,,,,,,,822.7382492002778,,,,,AMP_prac,right,0.882290268181805,,,,,,,,,,,,,,,,,,,,,6,,,left,0.4323961387549389,,,,,,,,,,,,,,1015,2019_May_17_1256,mf_amp_cond1,3.0.7,59.98657113833475,
arrests,,&&&&&&&,images/symbols/symbol_56.png,condition_files/AMP_rep2.csv,right,authority.vice,,,,,,,,,,,,,,,,,,,,,0,1,1,1,0,40,40,40,,,,,,,,,,,,,823.338410908678,,,,,AMP_prac,right,0.882290268181805,,,,,,,,,,,,,,,,,,,,,6,,,left,0.3669873038700189,,,,,,,,,,,,,,1015,2019_May_17_1256,mf_amp_cond1,3.0.7,59.98657113833475,
died,,&&&&,images/symbols/symbol_75.png,condition_files/AMP_rep2.csv,right,care.vice,,,,,,,,,,,,,,,,,,,,,0,1,1,1,0,41,41,41,,,,,,,,,,,,,824.4720406753395,,,,,AMP_prac,right,0.882290268181805,,,,,,,,,,,,,,,,,,,,,6,,,left,0.9158734659031325,,,,,,,,,,,,,,1015,2019_May_17_1256,mf_amp_cond1,3.0.7,59.98657113833475,
great,,&&&&&,images/symbols/symbol_59.png,condition_files/AMP_rep2.csv,left,loyalty.virtue,,,,,,,,,,,,,,,,,,,,,0,1,1,1,0,42,42,42,,,,,,,,,,,,,825.1388719796739,,,,,AMP_prac,right,0.882290268181805,,,,,,,,,,,,,,,,,,,,,6,,,right,0.44941817689664276,,,,,,,,,,,,,,1015,2019_May_17_1256,mf_amp_cond1,3.0.7,59.98657113833475,
useful,,&&&&&&,images/symbols/symbol_42.png,condition_files/AMP_rep2.csv,left,authority.virtue,,,,,,,,,,,,,,,,,,,,,0,1,1,1,0,43,43,43,,,,,,,,,,,,,825.7390253492831,,,,,AMP_prac,right,0.882290268181805,,,,,,,,,,,,,,,,,,,,,6,,,right,0.3826844364164117,,,,,,,,,,,,,,1015,2019_May_17_1256,mf_amp_cond1,3.0.7,59.98657113833475,
peighld,,&&&&&&&,images/symbols/symbol_39.png,condition_files/AMP_rep2.csv,None,nonword,,,,,,,,,,,,,,,,,,,,,0,1,1,1,0,44,44,44,,,,,,,,,,,,,827.3061080360928,,,,,AMP_prac,right,0.882290268181805,,,,,,,,,,,,,,,,,,,,,6,,,right,1.3495707767713156,,,,,,,,,,,,,,1015,2019_May_17_1256,mf_amp_cond1,3.0.7,59.98657113833475,
strength,,&&&&&&&&,images/symbols/symbol_62.png,condition_files/AMP_rep2.csv,left,sanctity.virtue,,,,,,,,,,,,,,,,,,,,,0,1,1,1,0,45,45,45,,,,,,,,,,,,,828.689774204784,,,,,AMP_prac,right,0.882290268181805,,,,,,,,,,,,,,,,,,,,,6,,,right,1.1661847273117019,,,,,,,,,,,,,,1015,2019_May_17_1256,mf_amp_cond1,3.0.7,59.98657113833475,
failure,,&&&&&&&,images/symbols/symbol_55.png,condition_files/AMP_rep2.csv,right,loyalty.vice,,,,,,,,,,,,,,,,,,,,,0,1,1,1,0,46,46,46,,,,,,,,,,,,,829.3399545471748,,,,,AMP_prac,right,0.882290268181805,,,,,,,,,,,,,,,,,,,,,6,,,left,0.4325648389105936,,,,,,,,,,,,,,1015,2019_May_17_1256,mf_amp_cond1,3.0.7,59.98657113833475,
lies,,&&&&,images/symbols/symbol_32.png,condition_files/AMP_rep2.csv,right,fairness.vice,,,,,,,,,,,,,,,,,,,,,0,1,1,1,0,47,47,47,,,,,,,,,,,,,830.123481137334,,,,,AMP_prac,right,0.882290268181805,,,,,,,,,,,,,,,,,,,,,6,,,left,0.5660413001073721,,,,,,,,,,,,,,1015,2019_May_17_1256,mf_amp_cond1,3.0.7,59.98657113833475,
sharz,,&&&&&,images/symbols/symbol_82.png,condition_files/AMP_rep2.csv,None,nonword,,,,,,,,,,,,,,,,,,,,,0,1,1,1,0,48,48,48,,,,,,,,,,,,,831.2571205256772,,,,,AMP_prac,right,0.882290268181805,,,,,,,,,,,,,,,,,,,,,6,,,left,0.916562057603187,,,,,,,,,,,,,,1015,2019_May_17_1256,mf_amp_cond1,3.0.7,59.98657113833475,
officers,,&&&&&&&&,images/symbols/symbol_41.png,condition_files/AMP_rep2.csv,right,authority.vice,,,,,,,,,,,,,,,,,,,,,0,1,1,1,0,49,49,49,,,,,,,,,,,,,832.6574780673761,,,,,AMP_prac,right,0.882290268181805,,,,,,,,,,,,,,,,,,,,,6,,,right,1.1834219704048792,,,,,,,,,,,,,,1015,2019_May_17_1256,mf_amp_cond1,3.0.7,59.98657113833475,
riot,,&&&&,images/symbols/symbol_10.png,condition_files/AMP_rep2.csv,right,authority.vice,,,,,,,,,,,,,,,,,,,,,0,1,1,1,0,50,50,50,,,,,,,,,,,,,833.2576410586671,,,,,AMP_prac,right,0.882290268181805,,,,,,,,,,,,,,,,,,,,,6,,,left,0.3828172156263463,,,,,,,,,,,,,,1015,2019_May_17_1256,mf_amp_cond1,3.0.7,59.98657113833475,
protesters,,&&&&&&&&&&,images/symbols/symbol_18.png,condition_files/AMP_rep2.csv,right,authority.vice,,,,,,,,,,,,,,,,,,,,,0,1,1,1,0,51,51,51,,,,,,,,,,,,,834.1078369240381,,,,,AMP_prac,right,0.882290268181805,,,,,,,,,,,,,,,,,,,,,6,,,right,0.6170570610636332,,,,,,,,,,,,,,1015,2019_May_17_1256,mf_amp_cond1,3.0.7,59.98657113833475,
ensure,,&&&&&&,images/symbols/symbol_48.png,condition_files/AMP_rep2.csv,left,fairness.virtue,,,,,,,,,,,,,,,,,,,,,0,1,1,1,0,52,52,52,,,,,,,,,,,,,835.291476985899,,,,,AMP_prac,right,0.882290268181805,,,,,,,,,,,,,,,,,,,,,6,,,left,0.9660181439262487,,,,,,,,,,,,,,1015,2019_May_17_1256,mf_amp_cond1,3.0.7,59.98657113833475,
dighnd,,&&&&&&,images/symbols/symbol_52.png,condition_files/AMP_rep2.csv,None,nonword,,,,,,,,,,,,,,,,,,,,,0,1,1,1,0,53,53,53,,,,,,,,,,,,,836.3917560788182,,,,,AMP_prac,right,0.882290268181805,,,,,,,,,,,,,,,,,,,,,6,,,left,0.8671114235662571,,,,,,,,,,,,,,1015,2019_May_17_1256,mf_amp_cond1,3.0.7,59.98657113833475,
gun,,&&&,images/symbols/symbol_29.png,condition_files/AMP_rep2.csv,right,authority.vice,,,,,,,,,,,,,,,,,,,,,0,1,1,1,0,54,54,54,,,,,,,,,,,,,837.6420759997409,,,,,AMP_prac,right,0.882290268181805,,,,,,,,,,,,,,,,,,,,,6,,,left,1.032472855631795,,,,,,,,,,,,,,1015,2019_May_17_1256,mf_amp_cond1,3.0.7,59.98657113833475,
brored,,&&&&&&,images/symbols/symbol_69.png,condition_files/AMP_rep2.csv,None,nonword,,,,,,,,,,,,,,,,,,,,,0,1,1,1,0,55,55,55,,,,,,,,,,,,,838.7923871970052,,,,,AMP_prac,right,0.882290268181805,,,,,,,,,,,,,,,,,,,,,6,,,left,0.9327479715891513,,,,,,,,,,,,,,1015,2019_May_17_1256,mf_amp_cond1,3.0.7,59.98657113833475,
fair,,&&&&,images/symbols/symbol_40.png,condition_files/AMP_rep2.csv,left,fairness.virtue,,,,,,,,,,,,,,,,,,,,,0,1,1,1,0,56,56,56,,,,,,,,,,,,,839.3591815540813,,,,,AMP_prac,right,0.882290268181805,,,,,,,,,,,,,,,,,,,,,6,,,right,0.34912850012733543,,,,,,,,,,,,,,1015,2019_May_17_1256,mf_amp_cond1,3.0.7,59.98657113833475,
charges,,&&&&&&&,images/symbols/symbol_72.png,condition_files/AMP_rep2.csv,right,fairness.vice,,,,,,,,,,,,,,,,,,,,,0,1,1,1,0,57,57,57,,,,,,,,,,,,,840.07606484757,,,,,AMP_prac,right,0.882290268181805,,,,,,,,,,,,,,,,,,,,,6,,,left,0.4993822880232983,,,,,,,,,,,,,,1015,2019_May_17_1256,mf_amp_cond1,3.0.7,59.98657113833475,
growth,,&&&&&&,images/symbols/symbol_20.png,condition_files/AMP_rep2.csv,left,care.virtue,,,,,,,,,,,,,,,,,,,,,0,1,1,1,0,58,58,58,,,,,,,,,,,,,840.8929077941395,,,,,AMP_prac,right,0.882290268181805,,,,,,,,,,,,,,,,,,,,,6,,,right,0.599921807798637,,,,,,,,,,,,,,1015,2019_May_17_1256,mf_amp_cond1,3.0.7,59.98657113833475,
abuse,,&&&&&,images/symbols/symbol_17.png,condition_files/AMP_rep2.csv,right,sanctity.vice,,,,,,,,,,,,,,,,,,,,,0,1,1,1,0,59,59,59,,,,,,,,,,,,,841.4763919206096,,,,,AMP_prac,right,0.882290268181805,,,,,,,,,,,,,,,,,,,,,6,,,left,0.3659561802949156,,,,,,,,,,,,,,1015,2019_May_17_1256,mf_amp_cond1,3.0.7,59.98657113833475,
black,,&&&&&,images/symbols/symbol_79.png,condition_files/AMP_rep2.csv,right,loyalty.vice,,,,,,,,,,,,,,,,,,,,,0,1,1,1,0,60,60,60,,,,,,,,,,,,,842.0432055210492,,,,,AMP_prac,right,0.882290268181805,,,,,,,,,,,,,,,,,,,,,6,,,right,0.34929014438284867,,,,,,,,,,,,,,1015,2019_May_17_1256,mf_amp_cond1,3.0.7,59.98657113833475,
betrayal,,&&&&&&&&,images/symbols/symbol_65.png,condition_files/AMP_rep2.csv,right,loyalty.vice,,,,,,,,,,,,,,,,,,,,,0,1,1,1,0,61,61,61,,,,,,,,,,,,,842.9267578331715,,,,,AMP_prac,right,0.882290268181805,,,,,,,,,,,,,,,,,,,,,6,,,right,0.6659993495743493,,,,,,,,,,,,,,1015,2019_May_17_1256,mf_amp_cond1,3.0.7,59.98657113833475,
energy,,&&&&&&,images/symbols/symbol_4.png,condition_files/AMP_rep2.csv,left,sanctity.virtue,,,,,,,,,,,,,,,,,,,,,0,1,1,1,0,62,62,62,,,,,,,,,,,,,844.2604406473724,,,,,AMP_prac,right,0.882290268181805,,,,,,,,,,,,,,,,,,,,,6,,,left,1.1161077217846014,,,,,,,,,,,,,,1015,2019_May_17_1256,mf_amp_cond1,3.0.7,59.98657113833475,
powerful,,&&&&&&&&,images/symbols/symbol_12.png,condition_files/AMP_rep2.csv,left,authority.virtue,,,,,,,,,,,,,,,,,,,,,0,1,1,1,0,63,63,63,,,,,,,,,,,,,844.9606431517038,,,,,AMP_prac,right,0.882290268181805,,,,,,,,,,,,,,,,,,,,,6,,,right,0.46703996654218827,,,,,,,,,,,,,,1015,2019_May_17_1256,mf_amp_cond1,3.0.7,59.98657113833475,
unpleasant,,&&&&&&&&&,images/symbols/symbol_15.png,condition_files/AMP_rep2.csv,left,control,,,,,,,,,,,,,,,,,,,,,0,1,1,1,0,64,64,64,,,,,,,,,,,,,846.3109948883211,,,,,AMP_prac,right,0.882290268181805,,,,,,,,,,,,,,,,,,,,,6,,,right,1.1323439892391889,,,,,,,,,,,,,,1015,2019_May_17_1256,mf_amp_cond1,3.0.7,59.98657113833475,
shind,,&&&&&,images/symbols/symbol_76.png,condition_files/AMP_rep2.csv,None,nonword,,,,,,,,,,,,,,,,,,,,,0,1,1,1,0,65,65,65,,,,,,,,,,,,,847.1111900801743,,,,,AMP_prac,right,0.882290268181805,,,,,,,,,,,,,,,,,,,,,6,,,left,0.5831306900222444,,,,,,,,,,,,,,1015,2019_May_17_1256,mf_amp_cond1,3.0.7,59.98657113833475,
jogns,,&&&&&,images/symbols/symbol_22.png,condition_files/AMP_rep2.csv,None,nonword,,,,,,,,,,,,,,,,,,,,,0,1,1,1,0,66,66,66,,,,,,,,,,,,,847.9614917840458,,,,,AMP_prac,right,0.882290268181805,,,,,,,,,,,,,,,,,,,,,6,,,right,0.6326801066595635,,,,,,,,,,,,,,1015,2019_May_17_1256,mf_amp_cond1,3.0.7,59.98657113833475,
ability,,&&&&&&&,images/symbols/symbol_34.png,condition_files/AMP_rep2.csv,left,authority.virtue,,,,,,,,,,,,,,,,,,,,,0,1,1,1,0,67,67,67,,,,,,,,,,,,,849.0116560261556,,,,,AMP_prac,right,0.882290268181805,,,,,,,,,,,,,,,,,,,,,6,,,right,0.8325955641480505,,,,,,,,,,,,,,1015,2019_May_17_1256,mf_amp_cond1,3.0.7,59.98657113833475,
health,,&&&&&&,images/symbols/symbol_33.png,condition_files/AMP_rep2.csv,left,care.virtue,,,,,,,,,,,,,,,,,,,,,0,1,1,1,0,68,68,68,,,,,,,,,,,,,850.0952822327947,,,,,AMP_prac,right,0.882290268181805,,,,,,,,,,,,,,,,,,,,,6,,,right,0.8661098064824273,,,,,,,,,,,,,,1015,2019_May_17_1256,mf_amp_cond1,3.0.7,59.98657113833475,
opportunity,,&&&&&&&&&&&,images/symbols/symbol_81.png,condition_files/AMP_rep2.csv,left,fairness.virtue,,,,,,,,,,,,,,,,,,,,,0,1,1,1,0,69,69,69,,,,,,,,,,,,,851.4456150467709,,,,,AMP_prac,right,0.882290268181805,,,,,,,,,,,,,,,,,,,,,6,,,right,1.1171840672643611,,,,,,,,,,,,,,1015,2019_May_17_1256,mf_amp_cond1,3.0.7,59.98657113833475,
safety,,&&&&&&,images/symbols/symbol_74.png,condition_files/AMP_rep2.csv,left,care.virtue,,,,,,,,,,,,,,,,,,,,,0,1,1,1,0,70,70,70,,,,,,,,,,,,,852.6959455515437,,,,,AMP_prac,right,0.882290268181805,,,,,,,,,,,,,,,,,,,,,6,,,right,1.0171657219245844,,,,,,,,,,,,,,1015,2019_May_17_1256,mf_amp_cond1,3.0.7,59.98657113833475,
promote,,&&&&&&&,images/symbols/symbol_16.png,condition_files/AMP_rep2.csv,left,sanctity.virtue,,,,,,,,,,,,,,,,,,,,,0,1,1,1,0,71,71,71,,,,,,,,,,,,,854.3797004321418,,,,,AMP_prac,right,0.882290268181805,,,,,,,,,,,,,,,,,,,,,6,,,right,1.4660540648719689,,,,,,,,,,,,,,1015,2019_May_17_1256,mf_amp_cond1,3.0.7,59.98657113833475,
interests,,&&&&&&&&&,images/symbols/symbol_60.png,condition_files/AMP_rep2.csv,left,fairness.virtue,,,,,,,,,,,,,,,,,,,,,0,1,1,1,0,72,72,72,,,,,,,,,,,,,856.0801547038157,,,,,AMP_prac,right,0.882290268181805,,,,,,,,,,,,,,,,,,,,,6,,,right,1.4672901302712944,,,,,,,,,,,,,,1015,2019_May_17_1256,mf_amp_cond1,3.0.7,59.98657113833475,
victim,,&&&&&&,images/symbols/symbol_31.png,condition_files/AMP_rep2.csv,right,care.vice,,,,,,,,,,,,,,,,,,,,,0,1,1,1,0,73,73,73,,,,,,,,,,,,,856.6803074319794,,,,,AMP_prac,right,0.882290268181805,,,,,,,,,,,,,,,,,,,,,6,,,left,0.36697319206996326,,,,,,,,,,,,,,1015,2019_May_17_1256,mf_amp_cond1,3.0.7,59.98657113833475,
police,,&&&&&&,images/symbols/symbol_23.png,condition_files/AMP_rep2.csv,right,authority.vice,,,,,,,,,,,,,,,,,,,,,0,1,1,1,0,74,74,74,,,,,,,,,,,,,857.9639587832805,,,,,AMP_prac,right,0.882290268181805,,,,,,,,,,,,,,,,,,,,,6,,,left,1.0658578467061943,,,,,,,,,,,,,,1015,2019_May_17_1256,mf_amp_cond1,3.0.7,59.98657113833475,
critics,,&&&&&&&,images/symbols/symbol_64.png,condition_files/AMP_rep2.csv,right,loyalty.vice,,,,,,,,,,,,,,,,,,,,,0,1,1,1,0,75,75,75,,,,,,,,,,,,,859.0809019877752,,,,,AMP_prac,right,0.882290268181805,,,,,,,,,,,,,,,,,,,,,6,,,left,0.8992500861140797,,,,,,,,,,,,,,1015,2019_May_17_1256,mf_amp_cond1,3.0.7,59.98657113833475,
voter,,&&&&&,images/symbols/symbol_77.png,condition_files/AMP_rep2.csv,right,fairness.vice,,,,,,,,,,,,,,,,,,,,,0,1,1,1,0,76,76,76,,,,,,,,,,,,,859.6643963773727,,,,,AMP_prac,right,0.882290268181805,,,,,,,,,,,,,,,,,,,,,6,,,right,0.3660844693868057,,,,,,,,,,,,,,1015,2019_May_17_1256,mf_amp_cond1,3.0.7,59.98657113833475,
groups,,&&&&&&,images/symbols/symbol_24.png,condition_files/AMP_rep2.csv,right,loyalty.vice,,,,,,,,,,,,,,,,,,,,,0,1,1,1,0,77,77,77,,,,,,,,,,,,,860.5479425957631,,,,,AMP_prac,right,0.882290268181805,,,,,,,,,,,,,,,,,,,,,6,,,right,0.6659332806921157,,,,,,,,,,,,,,1015,2019_May_17_1256,mf_amp_cond1,3.0.7,59.98657113833475,
violence,,&&&&&&&&,images/symbols/symbol_54.png,condition_files/AMP_rep2.csv,right,care.vice,,,,,,,,,,,,,,,,,,,,,0,1,1,1,0,78,78,78,,,,,,,,,,,,,861.0980965747453,,,,,AMP_prac,right,0.882290268181805,,,,,,,,,,,,,,,,,,,,,6,,,left,0.3324566912062892,,,,,,,,,,,,,,1015,2019_May_17_1256,mf_amp_cond1,3.0.7,59.98657113833475,
intelligence,,&&&&&&&&&&&&,images/symbols/symbol_51.png,condition_files/AMP_rep2.csv,left,loyalty.virtue,,,,,,,,,,,,,,,,,,,,,0,1,1,1,0,79,79,79,,,,,,,,,,,,,862.2984071626365,,,,,AMP_prac,right,0.882290268181805,,,,,,,,,,,,,,,,,,,,,6,,,left,0.9832294084783371,,,,,,,,,,,,,,1015,2019_May_17_1256,mf_amp_cond1,3.0.7,59.98657113833475,
blamed,,&&&&&&,images/symbols/symbol_67.png,condition_files/AMP_rep2.csv,right,loyalty.vice,,,,,,,,,,,,,,,,,,,,,0,1,1,1,0,80,80,80,,,,,,,,,,,,,863.532036351997,,,,,AMP_prac,right,0.882290268181805,,,,,,,,,,,,,,,,,,,,,6,,,left,1.016063077180661,,,,,,,,,,,,,,1015,2019_May_17_1256,mf_amp_cond1,3.0.7,59.98657113833475,
conspiracy,,&&&&&&&&&&,images/symbols/symbol_27.png,condition_files/AMP_rep2.csv,right,sanctity.vice,,,,,,,,,,,,,,,,,,,,,0,1,1,1,0,81,81,81,,,,,,,,,,,,,864.7323607309656,,,,,AMP_prac,right,0.882290268181805,,,,,,,,,,,,,,,,,,,,,6,,,left,0.9827682091934093,,,,,,,,,,,,,,1015,2019_May_17_1256,mf_amp_cond1,3.0.7,59.98657113833475,
,,,,condition_files/AMP_rep2.csv,,,,,,,,,,,,,,,,,,,,,,,0,1,1,1,,,,,,,,,,,,,,,,,,,,,,,,,,,,,,,,,,,,,,,,,,,,,,,,,,right,1.4673052042394374,,,,,,,,,,,,1015,2019_May_17_1256,mf_amp_cond1,3.0.7,59.98657113833475,
embrace,,&&&&&&&,images/symbols/symbol_11.png,condition_files/AMP_rep4.csv,left,authority.virtue,,,,,,,,,,,,,,,,,,,,,0,2,2,3,0,0,0,0,,,,,,,,,,,,,867.7333129567492,,,,,AMP_prac,right,0.882290268181805,,,,,,,,,,,,,,,,,,,,,6,,,right,1.2825054089887544,,,,,,,,,,,,,,1015,2019_May_17_1256,mf_amp_cond1,3.0.7,59.98657113833475,
freedom,,&&&&&&&,images/symbols/symbol_66.png,condition_files/AMP_rep4.csv,left,sanctity.virtue,,,,,,,,,,,,,,,,,,,,,0,2,2,3,0,1,1,1,,,,,,,,,,,,,869.1501485908404,,,,,AMP_prac,right,0.882290268181805,,,,,,,,,,,,,,,,,,,,,6,,,right,1.1838581533168053,,,,,,,,,,,,,,1015,2019_May_17_1256,mf_amp_cond1,3.0.7,59.98657113833475,
corruption,,&&&&&&&&&&,images/symbols/symbol_14.png,condition_files/AMP_rep4.csv,right,sanctity.vice,,,,,,,,,,,,,,,,,,,,,0,2,2,3,0,2,2,2,,,,,,,,,,,,,869.6836111968153,,,,,AMP_prac,right,0.882290268181805,,,,,,,,,,,,,,,,,,,,,6,,,left,0.31545165136913056,,,,,,,,,,,,,,1015,2019_May_17_1256,mf_amp_cond1,3.0.7,59.98657113833475,
pleasant,,&&&&&&&,images/symbols/symbol_21.png,condition_files/AMP_rep4.csv,right,control,,,,,,,,,,,,,,,,,,,,,0,2,2,3,0,3,3,3,,,,,,,,,,,,,871.1339873725046,,,,,AMP_prac,right,0.882290268181805,,,,,,,,,,,,,,,,,,,,,6,,,left,1.2331436151480375,,,,,,,,,,,,,,1015,2019_May_17_1256,mf_amp_cond1,3.0.7,59.98657113833475,
improve,,&&&&&&&,images/symbols/symbol_57.png,condition_files/AMP_rep4.csv,left,care.virtue,,,,,,,,,,,,,,,,,,,,,0,2,2,3,0,4,4,4,,,,,,,,,,,,,871.9508617499016,,,,,AMP_prac,right,0.882290268181805,,,,,,,,,,,,,,,,,,,,,6,,,left,0.5994025576997046,,,,,,,,,,,,,,1015,2019_May_17_1256,mf_amp_cond1,3.0.7,59.98657113833475,
civilians,,&&&&&&&&&,images/symbols/symbol_47.png,condition_files/AMP_rep4.csv,right,care.vice,,,,,,,,,,,,,,,,,,,,,0,2,2,3,0,5,5,5,,,,,,,,,,,,,873.067819707642,,,,,AMP_prac,right,0.882290268181805,,,,,,,,,,,,,,,,,,,,,6,,,left,0.8991920353000751,,,,,,,,,,,,,,1015,2019_May_17_1256,mf_amp_cond1,3.0.7,59.98657113833475,
support,,&&&&&&&,images/symbols/symbol_5.png,condition_files/AMP_rep4.csv,left,loyalty.virtue,,,,,,,,,,,,,,,,,,,,,0,2,2,3,0,6,6,6,,,,,,,,,,,,,873.6346288179634,,,,,AMP_prac,right,0.882290268181805,,,,,,,,,,,,,,,,,,,,,6,,,right,0.3492664109010093,,,,,,,,,,,,,,1015,2019_May_17_1256,mf_amp_cond1,3.0.7,59.98657113833475,
gryssed,,&&&&&&&,images/symbols/symbol_26.png,condition_files/AMP_rep4.csv,None,nonword,,,,,,,,,,,,,,,,,,,,,0,2,2,3,0,7,7,7,,,,,,,,,,,,,874.918323466833,,,,,AMP_prac,right,0.882290268181805,,,,,,,,,,,,,,,,,,,,,6,,,right,1.0660214152981098,,,,,,,,,,,,,,1015,2019_May_17_1256,mf_amp_cond1,3.0.7,59.98657113833475,
party,,&&&&&,images/symbols/symbol_43.png,condition_files/AMP_rep4.csv,left,loyalty.virtue,,,,,,,,,,,,,,,,,,,,,0,2,2,3,0,8,8,8,,,,,,,,,,,,,876.1020036190353,,,,,AMP_prac,right,0.882290268181805,,,,,,,,,,,,,,,,,,,,,6,,,right,0.950486504308401,,,,,,,,,,,,,,1015,2019_May_17_1256,mf_amp_cond1,3.0.7,59.98657113833475,
trust,,&&&&&,images/symbols/symbol_78.png,condition_files/AMP_rep4.csv,left,authority.virtue,,,,,,,,,,,,,,,,,,,,,0,2,2,3,0,9,9,9,,,,,,,,,,,,,877.3355824549271,,,,,AMP_prac,right,0.882290268181805,,,,,,,,,,,,,,,,,,,,,6,,,right,1.0155370919044344,,,,,,,,,,,,,,1015,2019_May_17_1256,mf_amp_cond1,3.0.7,59.98657113833475,
honored,,&&&&&&&,images/symbols/symbol_38.png,condition_files/AMP_rep4.csv,left,authority.virtue,,,,,,,,,,,,,,,,,,,,,0,2,2,3,0,10,10,10,,,,,,,,,,,,,878.7526124469925,,,,,AMP_prac,right,0.882290268181805,,,,,,,,,,,,,,,,,,,,,6,,,right,1.1995495128544462,,,,,,,,,,,,,,1015,2019_May_17_1256,mf_amp_cond1,3.0.7,59.98657113833475,
loyalty,,&&&&&&&,images/symbols/symbol_28.png,condition_files/AMP_rep4.csv,left,loyalty.virtue,,,,,,,,,,,,,,,,,,,,,0,2,2,3,0,11,11,11,,,,,,,,,,,,,880.2029950371364,,,,,AMP_prac,right,0.882290268181805,,,,,,,,,,,,,,,,,,,,,6,,,right,1.2329518229560108,,,,,,,,,,,,,,1015,2019_May_17_1256,mf_amp_cond1,3.0.7,59.98657113833475,
stintz,,&&&&&&,images/symbols/symbol_46.png,condition_files/AMP_rep4.csv,None,nonword,,,,,,,,,,,,,,,,,,,,,0,2,2,3,0,12,12,12,,,,,,,,,,,,,881.4533300320272,,,,,AMP_prac,right,0.882290268181805,,,,,,,,,,,,,,,,,,,,,6,,,right,1.0326736280603654,,,,,,,,,,,,,,1015,2019_May_17_1256,mf_amp_cond1,3.0.7,59.98657113833475,
praised,,&&&&&&&,images/symbols/symbol_36.png,condition_files/AMP_rep4.csv,left,loyalty.virtue,,,,,,,,,,,,,,,,,,,,,0,2,2,3,0,13,13,13,,,,,,,,,,,,,882.8536731412032,,,,,AMP_prac,right,0.882290268181805,,,,,,,,,,,,,,,,,,,,,6,,,left,1.1829428106473188,,,,,,,,,,,,,,1015,2019_May_17_1256,mf_amp_cond1,3.0.7,59.98657113833475,
attacks,,&&&&&&&,images/symbols/symbol_45.png,condition_files/AMP_rep4.csv,right,care.vice,,,,,,,,,,,,,,,,,,,,,0,2,2,3,0,14,14,14,,,,,,,,,,,,,884.2873611511122,,,,,AMP_prac,right,0.882290268181805,,,,,,,,,,,,,,,,,,,,,6,,,right,1.216118369779224,,,,,,,,,,,,,,1015,2019_May_17_1256,mf_amp_cond1,3.0.7,59.98657113833475,
hand,,&&&&,images/symbols/symbol_35.png,condition_files/AMP_rep4.csv,left,sanctity.virtue,,,,,,,,,,,,,,,,,,,,,0,2,2,3,0,15,15,15,,,,,,,,,,,,,885.6710478460582,,,,,AMP_prac,right,0.882290268181805,,,,,,,,,,,,,,,,,,,,,6,,,left,1.1659855584969137,,,,,,,,,,,,,,1015,2019_May_17_1256,mf_amp_cond1,3.0.7,59.98657113833475,
peaceful,,&&&&&&&&,images/symbols/symbol_19.png,condition_files/AMP_rep4.csv,left,authority.virtue,,,,,,,,,,,,,,,,,,,,,0,2,2,3,0,16,16,16,,,,,,,,,,,,,886.5879485868636,,,,,AMP_prac,right,0.882290268181805,,,,,,,,,,,,,,,,,,,,,6,,,right,0.6994561825399614,,,,,,,,,,,,,,1015,2019_May_17_1256,mf_amp_cond1,3.0.7,59.98657113833475,
strong,,&&&&&&,images/symbols/symbol_61.png,condition_files/AMP_rep4.csv,left,loyalty.virtue,,,,,,,,,,,,,,,,,,,,,0,2,2,3,0,17,17,17,,,,,,,,,,,,,887.504910906433,,,,,AMP_prac,right,0.882290268181805,,,,,,,,,,,,,,,,,,,,,6,,,right,0.6837943294938214,,,,,,,,,,,,,,1015,2019_May_17_1256,mf_amp_cond1,3.0.7,59.98657113833475,
serial,,&&&&&&,images/symbols/symbol_7.png,condition_files/AMP_rep4.csv,right,sanctity.vice,,,,,,,,,,,,,,,,,,,,,0,2,2,3,0,18,18,18,,,,,,,,,,,,,888.8885350604467,,,,,AMP_prac,right,0.882290268181805,,,,,,,,,,,,,,,,,,,,,6,,,left,1.1656590627585501,,,,,,,,,,,,,,1015,2019_May_17_1256,mf_amp_cond1,3.0.7,59.98657113833475,
threatened,,&&&&&&&&&&,images/symbols/symbol_49.png,condition_files/AMP_rep4.csv,right,fairness.vice,,,,,,,,,,,,,,,,,,,,,0,2,2,3,0,19,19,19,,,,,,,,,,,,,890.5723043735675,,,,,AMP_prac,right,0.882290268181805,,,,,,,,,,,,,,,,,,,,,6,,,left,1.4505993987090733,,,,,,,,,,,,,,1015,2019_May_17_1256,mf_amp_cond1,3.0.7,59.98657113833475,
perfect,,&&&&&&&,images/symbols/symbol_50.png,condition_files/AMP_rep4.csv,left,sanctity.virtue,,,,,,,,,,,,,,,,,,,,,0,2,2,3,0,20,20,20,,,,,,,,,,,,,891.972665763939,,,,,AMP_prac,right,0.882290268181805,,,,,,,,,,,,,,,,,,,,,6,,,right,1.1823177220476282,,,,,,,,,,,,,,1015,2019_May_17_1256,mf_amp_cond1,3.0.7,59.98657113833475,
compassion,,&&&&&&&&&&,images/symbols/symbol_58.png,condition_files/AMP_rep4.csv,left,care.virtue,,,,,,,,,,,,,,,,,,,,,0,2,2,3,0,21,21,21,,,,,,,,,,,,,892.7728747468695,,,,,AMP_prac,right,0.882290268181805,,,,,,,,,,,,,,,,,,,,,6,,,right,0.5670432379140493,,,,,,,,,,,,,,1015,2019_May_17_1256,mf_amp_cond1,3.0.7,59.98657113833475,
spraize,,&&&&&&&,images/symbols/symbol_71.png,condition_files/AMP_rep4.csv,None,nonword,,,,,,,,,,,,,,,,,,,,,0,2,2,3,0,22,22,22,,,,,,,,,,,,,894.0565511145435,,,,,AMP_prac,right,0.882290268181805,,,,,,,,,,,,,,,,,,,,,6,,,left,1.0657189737642057,,,,,,,,,,,,,,1015,2019_May_17_1256,mf_amp_cond1,3.0.7,59.98657113833475,
illegal,,&&&&&&&,images/symbols/symbol_30.png,condition_files/AMP_rep4.csv,right,fairness.vice,,,,,,,,,,,,,,,,,,,,,0,2,2,3,0,23,23,23,,,,,,,,,,,,,895.1234727985432,,,,,AMP_prac,right,0.882290268181805,,,,,,,,,,,,,,,,,,,,,6,,,left,0.8496028490442313,,,,,,,,,,,,,,1015,2019_May_17_1256,mf_amp_cond1,3.0.7,59.98657113833475,
hate,,&&&&,images/symbols/symbol_2.png,condition_files/AMP_rep4.csv,right,fairness.vice,,,,,,,,,,,,,,,,,,,,,0,2,2,3,0,24,24,24,,,,,,,,,,,,,895.7736557067158,,,,,AMP_prac,right,0.882290268181805,,,,,,,,,,,,,,,,,,,,,6,,,right,0.43256195240610396,,,,,,,,,,,,,,1015,2019_May_17_1256,mf_amp_cond1,3.0.7,59.98657113833475,
squintce,,&&&&&&&&,images/symbols/symbol_53.png,condition_files/AMP_rep4.csv,None,nonword,,,,,,,,,,,,,,,,,,,,,0,2,2,3,0,25,25,25,,,,,,,,,,,,,897.0406310797002,,,,,AMP_prac,right,0.882290268181805,,,,,,,,,,,,,,,,,,,,,6,,,left,1.0495786024059726,,,,,,,,,,,,,,1015,2019_May_17_1256,mf_amp_cond1,3.0.7,59.98657113833475,
prison,,&&&&&&,images/symbols/symbol_68.png,condition_files/AMP_rep4.csv,right,fairness.vice,,,,,,,,,,,,,,,,,,,,,0,2,2,3,0,26,26,26,,,,,,,,,,,,,898.457670052002,,,,,AMP_prac,right,0.882290268181805,,,,,,,,,,,,,,,,,,,,,6,,,right,1.1838754723444254,,,,,,,,,,,,,,1015,2019_May_17_1256,mf_amp_cond1,3.0.7,59.98657113833475,
war,,&&&,images/symbols/symbol_37.png,condition_files/AMP_rep4.csv,right,sanctity.vice,,,,,,,,,,,,,,,,,,,,,0,2,2,3,0,27,27,27,,,,,,,,,,,,,900.1081133870309,,,,,AMP_prac,right,0.882290268181805,,,,,,,,,,,,,,,,,,,,,6,,,right,1.4172791936262001,,,,,,,,,,,,,,1015,2019_May_17_1256,mf_amp_cond1,3.0.7,59.98657113833475,
agreement,,&&&&&&&&&,images/symbols/symbol_13.png,condition_files/AMP_rep4.csv,left,fairness.virtue,,,,,,,,,,,,,,,,,,,,,0,2,2,3,0,28,28,28,,,,,,,,,,,,,901.6584809673511,,,,,AMP_prac,right,0.882290268181805,,,,,,,,,,,,,,,,,,,,,6,,,right,1.3172387184176841,,,,,,,,,,,,,,1015,2019_May_17_1256,mf_amp_cond1,3.0.7,59.98657113833475,
army,,&&&&,images/symbols/symbol_73.png,condition_files/AMP_rep4.csv,right,loyalty.vice,,,,,,,,,,,,,,,,,,,,,0,2,2,3,0,29,29,29,,,,,,,,,,,,,902.7587587773792,,,,,AMP_prac,right,0.882290268181805,,,,,,,,,,,,,,,,,,,,,6,,,left,0.8671117442891045,,,,,,,,,,,,,,1015,2019_May_17_1256,mf_amp_cond1,3.0.7,59.98657113833475,
suicide,,&&&&&&&,images/symbols/symbol_25.png,condition_files/AMP_rep4.csv,right,care.vice,,,,,,,,,,,,,,,,,,,,,0,2,2,3,0,30,30,30,,,,,,,,,,,,,903.3922669901262,,,,,AMP_prac,right,0.882290268181805,,,,,,,,,,,,,,,,,,,,,6,,,left,0.41545780924570863,,,,,,,,,,,,,,1015,2019_May_17_1256,mf_amp_cond1,3.0.7,59.98657113833475,
credit,,&&&&&&,images/symbols/symbol_44.png,condition_files/AMP_rep4.csv,left,fairness.virtue,,,,,,,,,,,,,,,,,,,,,0,2,2,3,0,31,31,31,,,,,,,,,,,,,904.1924727658293,,,,,AMP_prac,right,0.882290268181805,,,,,,,,,,,,,,,,,,,,,6,,,right,0.5825899515002675,,,,,,,,,,,,,,1015,2019_May_17_1256,mf_amp_cond1,3.0.7,59.98657113833475,
increase,,&&&&&&&&,images/symbols/symbol_6.png,condition_files/AMP_rep4.csv,left,care.virtue,,,,,,,,,,,,,,,,,,,,,0,2,2,3,0,32,32,32,,,,,,,,,,,,,905.4928055477335,,,,,AMP_prac,right,0.882290268181805,,,,,,,,,,,,,,,,,,,,,6,,,left,1.0671769792922987,,,,,,,,,,,,,,1015,2019_May_17_1256,mf_amp_cond1,3.0.7,59.98657113833475,
restore,,&&&&&&&,images/symbols/symbol_1.png,condition_files/AMP_rep4.csv,left,care.virtue,,,,,,,,,,,,,,,,,,,,,0,2,2,3,0,33,33,33,,,,,,,,,,,,,906.4763944863914,,,,,AMP_prac,right,0.882290268181805,,,,,,,,,,,,,,,,,,,,,6,,,left,0.7654131325693925,,,,,,,,,,,,,,1015,2019_May_17_1256,mf_amp_cond1,3.0.7,59.98657113833475,
killed,,&&&&&&,images/symbols/symbol_63.png,condition_files/AMP_rep4.csv,right,care.vice,,,,,,,,,,,,,,,,,,,,,0,2,2,3,0,34,34,34,,,,,,,,,,,,,907.7933888140892,,,,,AMP_prac,right,0.882290268181805,,,,,,,,,,,,,,,,,,,,,6,,,left,1.0994756824818523,,,,,,,,,,,,,,1015,2019_May_17_1256,mf_amp_cond1,3.0.7,59.98657113833475,
sexual,,&&&&&&,images/symbols/symbol_9.png,condition_files/AMP_rep4.csv,right,sanctity.vice,,,,,,,,,,,,,,,,,,,,,0,2,2,3,0,35,35,35,,,,,,,,,,,,,908.6769610110207,,,,,AMP_prac,right,0.882290268181805,,,,,,,,,,,,,,,,,,,,,6,,,right,0.6657636183681461,,,,,,,,,,,,,,1015,2019_May_17_1256,mf_amp_cond1,3.0.7,59.98657113833475,
rejected,,&&&&&&&&,images/symbols/symbol_8.png,condition_files/AMP_rep4.csv,right,authority.vice,,,,,,,,,,,,,,,,,,,,,0,2,2,3,0,36,36,36,,,,,,,,,,,,,909.3104352271582,,,,,AMP_prac,right,0.882290268181805,,,,,,,,,,,,,,,,,,,,,6,,,left,0.4159956612627411,,,,,,,,,,,,,,1015,2019_May_17_1256,mf_amp_cond1,3.0.7,59.98657113833475,
faith,,&&&&&,images/symbols/symbol_80.png,condition_files/AMP_rep4.csv,left,sanctity.virtue,,,,,,,,,,,,,,,,,,,,,0,2,2,3,0,37,37,37,,,,,,,,,,,,,910.3440514593206,,,,,AMP_prac,right,0.882290268181805,,,,,,,,,,,,,,,,,,,,,6,,,right,0.8163336388752214,,,,,,,,,,,,,,1015,2019_May_17_1256,mf_amp_cond1,3.0.7,59.98657113833475,
win,,&&&,images/symbols/symbol_70.png,condition_files/AMP_rep4.csv,left,fairness.virtue,,,,,,,,,,,,,,,,,,,,,0,2,2,3,0,38,38,38,,,,,,,,,,,,,911.5443521048071,,,,,AMP_prac,right,0.882290268181805,,,,,,,,,,,,,,,,,,,,,6,,,left,0.9825831521784494,,,,,,,,,,,,,,1015,2019_May_17_1256,mf_amp_cond1,3.0.7,59.98657113833475,
scandal,,&&&&&&&,images/symbols/symbol_3.png,condition_files/AMP_rep4.csv,right,sanctity.vice,,,,,,,,,,,,,,,,,,,,,0,2,2,3,0,39,39,39,,,,,,,,,,,,,912.7446742387165,,,,,AMP_prac,right,0.882290268181805,,,,,,,,,,,,,,,,,,,,,6,,,left,0.982741909929473,,,,,,,,,,,,,,1015,2019_May_17_1256,mf_amp_cond1,3.0.7,59.98657113833475,
arrests,,&&&&&&&,images/symbols/symbol_56.png,condition_files/AMP_rep4.csv,right,authority.vice,,,,,,,,,,,,,,,,,,,,,0,2,2,3,0,40,40,40,,,,,,,,,,,,,913.9449889960031,,,,,AMP_prac,right,0.882290268181805,,,,,,,,,,,,,,,,,,,,,6,,,left,0.9671397113108924,,,,,,,,,,,,,,1015,2019_May_17_1256,mf_amp_cond1,3.0.7,59.98657113833475,
died,,&&&&,images/symbols/symbol_75.png,condition_files/AMP_rep4.csv,right,care.vice,,,,,,,,,,,,,,,,,,,,,0,2,2,3,0,41,41,41,,,,,,,,,,,,,915.2453092697208,,,,,AMP_prac,right,0.882290268181805,,,,,,,,,,,,,,,,,,,,,6,,,left,1.0819882756597963,,,,,,,,,,,,,,1015,2019_May_17_1256,mf_amp_cond1,3.0.7,59.98657113833475,
great,,&&&&&,images/symbols/symbol_59.png,condition_files/AMP_rep4.csv,left,loyalty.virtue,,,,,,,,,,,,,,,,,,,,,0,2,2,3,0,42,42,42,,,,,,,,,,,,,916.1455327493186,,,,,AMP_prac,right,0.882290268181805,,,,,,,,,,,,,,,,,,,,,6,,,right,0.6827170218457468,,,,,,,,,,,,,,1015,2019_May_17_1256,mf_amp_cond1,3.0.7,59.98657113833475,
useful,,&&&&&&,images/symbols/symbol_42.png,condition_files/AMP_rep4.csv,left,authority.virtue,,,,,,,,,,,,,,,,,,,,,0,2,2,3,0,43,43,43,,,,,,,,,,,,,917.362581215013,,,,,AMP_prac,right,0.882290268181805,,,,,,,,,,,,,,,,,,,,,6,,,left,0.9995291790332885,,,,,,,,,,,,,,1015,2019_May_17_1256,mf_amp_cond1,3.0.7,59.98657113833475,
peighld,,&&&&&&&,images/symbols/symbol_39.png,condition_files/AMP_rep4.csv,None,nonword,,,,,,,,,,,,,,,,,,,,,0,2,2,3,0,44,44,44,,,,,,,,,,,,,918.5628741631542,,,,,AMP_prac,right,0.882290268181805,,,,,,,,,,,,,,,,,,,,,6,,,left,0.9827717371433664,,,,,,,,,,,,,,1015,2019_May_17_1256,mf_amp_cond1,3.0.7,59.98657113833475,
strength,,&&&&&&&&,images/symbols/symbol_62.png,condition_files/AMP_rep4.csv,left,sanctity.virtue,,,,,,,,,,,,,,,,,,,,,0,2,2,3,0,45,45,45,,,,,,,,,,,,,919.8131353918172,,,,,AMP_prac,right,0.882290268181805,,,,,,,,,,,,,,,,,,,,,6,,,left,1.0171544966290185,,,,,,,,,,,,,,1015,2019_May_17_1256,mf_amp_cond1,3.0.7,59.98657113833475,
failure,,&&&&&&&,images/symbols/symbol_55.png,condition_files/AMP_rep4.csv,right,loyalty.vice,,,,,,,,,,,,,,,,,,,,,0,2,2,3,0,46,46,46,,,,,,,,,,,,,921.2635131711204,,,,,AMP_prac,right,0.882290268181805,,,,,,,,,,,,,,,,,,,,,6,,,left,1.2322308382601932,,,,,,,,,,,,,,1015,2019_May_17_1256,mf_amp_cond1,3.0.7,59.98657113833475,
lies,,&&&&,images/symbols/symbol_32.png,condition_files/AMP_rep4.csv,right,fairness.vice,,,,,,,,,,,,,,,,,,,,,0,2,2,3,0,47,47,47,,,,,,,,,,,,,922.4971571137264,,,,,AMP_prac,right,0.882290268181805,,,,,,,,,,,,,,,,,,,,,6,,,left,1.016121769440133,,,,,,,,,,,,,,1015,2019_May_17_1256,mf_amp_cond1,3.0.7,59.98657113833475,
sharz,,&&&&&,images/symbols/symbol_82.png,condition_files/AMP_rep4.csv,None,nonword,,,,,,,,,,,,,,,,,,,,,0,2,2,3,0,48,48,48,,,,,,,,,,,,,923.5807823581972,,,,,AMP_prac,right,0.882290268181805,,,,,,,,,,,,,,,,,,,,,6,,,left,0.8664648465437494,,,,,,,,,,,,,,1015,2019_May_17_1256,mf_amp_cond1,3.0.7,59.98657113833475,
officers,,&&&&&&&&,images/symbols/symbol_41.png,condition_files/AMP_rep4.csv,right,authority.vice,,,,,,,,,,,,,,,,,,,,,0,2,2,3,0,49,49,49,,,,,,,,,,,,,924.7143893535449,,,,,AMP_prac,right,0.882290268181805,,,,,,,,,,,,,,,,,,,,,6,,,left,0.9165899604806782,,,,,,,,,,,,,,1015,2019_May_17_1256,mf_amp_cond1,3.0.7,59.98657113833475,
riot,,&&&&,images/symbols/symbol_10.png,condition_files/AMP_rep4.csv,right,authority.vice,,,,,,,,,,,,,,,,,,,,,0,2,2,3,0,50,50,50,,,,,,,,,,,,,925.9480432385553,,,,,AMP_prac,right,0.882290268181805,,,,,,,,,,,,,,,,,,,,,6,,,left,1.01584755150634,,,,,,,,,,,,,,1015,2019_May_17_1256,mf_amp_cond1,3.0.7,59.98657113833475,
protesters,,&&&&&&&&&&,images/symbols/symbol_18.png,condition_files/AMP_rep4.csv,right,authority.vice,,,,,,,,,,,,,,,,,,,,,0,2,2,3,0,51,51,51,,,,,,,,,,,,,928.0819590898914,,,,,AMP_prac,right,0.882290268181805,,,,,,,,,,,,,,,,,,,,,6,,,right,1.9007475405376226,,,,,,,,,,,,,,1015,2019_May_17_1256,mf_amp_cond1,3.0.7,59.98657113833475,
ensure,,&&&&&&,images/symbols/symbol_48.png,condition_files/AMP_rep4.csv,left,fairness.virtue,,,,,,,,,,,,,,,,,,,,,0,2,2,3,0,52,52,52,,,,,,,,,,,,,929.3989322498892,,,,,AMP_prac,right,0.882290268181805,,,,,,,,,,,,,,,,,,,,,6,,,left,1.0988826661553048,,,,,,,,,,,,,,1015,2019_May_17_1256,mf_amp_cond1,3.0.7,59.98657113833475,
dighnd,,&&&&&&,images/symbols/symbol_52.png,condition_files/AMP_rep4.csv,None,nonword,,,,,,,,,,,,,,,,,,,,,0,2,2,3,0,53,53,53,,,,,,,,,,,,,931.5328099352205,,,,,AMP_prac,right,0.882290268181805,,,,,,,,,,,,,,,,,,,,,6,,,right,1.9007193169375114,,,,,,,,,,,,,,1015,2019_May_17_1256,mf_amp_cond1,3.0.7,59.98657113833475,
gun,,&&&,images/symbols/symbol_29.png,condition_files/AMP_rep4.csv,right,authority.vice,,,,,,,,,,,,,,,,,,,,,0,2,2,3,0,54,54,54,,,,,,,,,,,,,932.4663757497694,,,,,AMP_prac,right,0.882290268181805,,,,,,,,,,,,,,,,,,,,,6,,,left,0.7152735861100155,,,,,,,,,,,,,,1015,2019_May_17_1256,mf_amp_cond1,3.0.7,59.98657113833475,
brored,,&&&&&&,images/symbols/symbol_69.png,condition_files/AMP_rep4.csv,None,nonword,,,,,,,,,,,,,,,,,,,,,0,2,2,3,0,55,55,55,,,,,,,,,,,,,933.8167409567416,,,,,AMP_prac,right,0.882290268181805,,,,,,,,,,,,,,,,,,,,,6,,,left,1.1327185933871533,,,,,,,,,,,,,,1015,2019_May_17_1256,mf_amp_cond1,3.0.7,59.98657113833475,
fair,,&&&&,images/symbols/symbol_40.png,condition_files/AMP_rep4.csv,left,fairness.virtue,,,,,,,,,,,,,,,,,,,,,0,2,2,3,0,56,56,56,,,,,,,,,,,,,934.8670001327791,,,,,AMP_prac,right,0.882290268181805,,,,,,,,,,,,,,,,,,,,,6,,,right,0.8327116657760598,,,,,,,,,,,,,,1015,2019_May_17_1256,mf_amp_cond1,3.0.7,59.98657113833475,
charges,,&&&&&&&,images/symbols/symbol_72.png,condition_files/AMP_rep4.csv,right,fairness.vice,,,,,,,,,,,,,,,,,,,,,0,2,2,3,0,57,57,57,,,,,,,,,,,,,935.700533490188,,,,,AMP_prac,right,0.882290268181805,,,,,,,,,,,,,,,,,,,,,6,,,left,0.6159666037835905,,,,,,,,,,,,,,1015,2019_May_17_1256,mf_amp_cond1,3.0.7,59.98657113833475,
growth,,&&&&&&,images/symbols/symbol_20.png,condition_files/AMP_rep4.csv,left,care.virtue,,,,,,,,,,,,,,,,,,,,,0,2,2,3,0,58,58,58,,,,,,,,,,,,,937.1676061704486,,,,,AMP_prac,right,0.882290268181805,,,,,,,,,,,,,,,,,,,,,6,,,right,1.2500174793888164,,,,,,,,,,,,,,1015,2019_May_17_1256,mf_amp_cond1,3.0.7,59.98657113833475,
abuse,,&&&&&,images/symbols/symbol_17.png,condition_files/AMP_rep4.csv,right,sanctity.vice,,,,,,,,,,,,,,,,,,,,,0,2,2,3,0,59,59,59,,,,,,,,,,,,,937.9011718567087,,,,,AMP_prac,right,0.882290268181805,,,,,,,,,,,,,,,,,,,,,6,,,left,0.5159854622802413,,,,,,,,,,,,,,1015,2019_May_17_1256,mf_amp_cond1,3.0.7,59.98657113833475,
black,,&&&&&,images/symbols/symbol_79.png,condition_files/AMP_rep4.csv,right,loyalty.vice,,,,,,,,,,,,,,,,,,,,,0,2,2,3,0,60,60,60,,,,,,,,,,,,,939.6182187187896,,,,,AMP_prac,right,0.882290268181805,,,,,,,,,,,,,,,,,,,,,6,,,right,1.4994820327920024,,,,,,,,,,,,,,1015,2019_May_17_1256,mf_amp_cond1,3.0.7,59.98657113833475,
betrayal,,&&&&&&&&,images/symbols/symbol_65.png,condition_files/AMP_rep4.csv,right,loyalty.vice,,,,,,,,,,,,,,,,,,,,,0,2,2,3,0,61,61,61,,,,,,,,,,,,,941.0685904043607,,,,,AMP_prac,right,0.882290268181805,,,,,,,,,,,,,,,,,,,,,6,,,left,1.2326192334855932,,,,,,,,,,,,,,1015,2019_May_17_1256,mf_amp_cond1,3.0.7,59.98657113833475,
energy,,&&&&&&,images/symbols/symbol_4.png,condition_files/AMP_rep4.csv,left,sanctity.virtue,,,,,,,,,,,,,,,,,,,,,0,2,2,3,0,62,62,62,,,,,,,,,,,,,942.2688859182836,,,,,AMP_prac,right,0.882290268181805,,,,,,,,,,,,,,,,,,,,,6,,,right,0.9826405615469866,,,,,,,,,,,,,,1015,2019_May_17_1256,mf_amp_cond1,3.0.7,59.98657113833475,
powerful,,&&&&&&&&,images/symbols/symbol_12.png,condition_files/AMP_rep4.csv,left,authority.virtue,,,,,,,,,,,,,,,,,,,,,0,2,2,3,0,63,63,63,,,,,,,,,,,,,943.5358798931863,,,,,AMP_prac,right,0.882290268181805,,,,,,,,,,,,,,,,,,,,,6,,,right,1.0338327200045114,,,,,,,,,,,,,,1015,2019_May_17_1256,mf_amp_cond1,3.0.7,59.98657113833475,
unpleasant,,&&&&&&&&&,images/symbols/symbol_15.png,condition_files/AMP_rep4.csv,left,control,,,,,,,,,,,,,,,,,,,,,0,2,2,3,0,64,64,64,,,,,,,,,,,,,944.7862078321773,,,,,AMP_prac,right,0.882290268181805,,,,,,,,,,,,,,,,,,,,,6,,,left,1.0320818946247527,,,,,,,,,,,,,,1015,2019_May_17_1256,mf_amp_cond1,3.0.7,59.98657113833475,
shind,,&&&&&,images/symbols/symbol_76.png,condition_files/AMP_rep4.csv,None,nonword,,,,,,,,,,,,,,,,,,,,,0,2,2,3,0,65,65,65,,,,,,,,,,,,,946.5533185501536,,,,,AMP_prac,right,0.882290268181805,,,,,,,,,,,,,,,,,,,,,6,,,left,1.549976298590309,,,,,,,,,,,,,,1015,2019_May_17_1256,mf_amp_cond1,3.0.7,59.98657113833475,
jogns,,&&&&&,images/symbols/symbol_22.png,condition_files/AMP_rep4.csv,None,nonword,,,,,,,,,,,,,,,,,,,,,0,2,2,3,0,66,66,66,,,,,,,,,,,,,947.6536008503001,,,,,AMP_prac,right,0.882290268181805,,,,,,,,,,,,,,,,,,,,,6,,,left,0.8825571094928364,,,,,,,,,,,,,,1015,2019_May_17_1256,mf_amp_cond1,3.0.7,59.98657113833475,
ability,,&&&&&&&,images/symbols/symbol_34.png,condition_files/AMP_rep4.csv,left,authority.virtue,,,,,,,,,,,,,,,,,,,,,0,2,2,3,0,67,67,67,,,,,,,,,,,,,948.7372155109208,,,,,AMP_prac,right,0.882290268181805,,,,,,,,,,,,,,,,,,,,,6,,,right,0.8658503417941574,,,,,,,,,,,,,,1015,2019_May_17_1256,mf_amp_cond1,3.0.7,59.98657113833475,
health,,&&&&&&,images/symbols/symbol_33.png,condition_files/AMP_rep4.csv,left,care.virtue,,,,,,,,,,,,,,,,,,,,,0,2,2,3,0,68,68,68,,,,,,,,,,,,,949.8708876129826,,,,,AMP_prac,right,0.882290268181805,,,,,,,,,,,,,,,,,,,,,6,,,right,0.9162066968187901,,,,,,,,,,,,,,1015,2019_May_17_1256,mf_amp_cond1,3.0.7,59.98657113833475,
opportunity,,&&&&&&&&&&&,images/symbols/symbol_81.png,condition_files/AMP_rep4.csv,left,fairness.virtue,,,,,,,,,,,,,,,,,,,,,0,2,2,3,0,69,69,69,,,,,,,,,,,,,951.1211847625914,,,,,AMP_prac,right,0.882290268181805,,,,,,,,,,,,,,,,,,,,,6,,,right,1.017177267942543,,,,,,,,,,,,,,1015,2019_May_17_1256,mf_amp_cond1,3.0.7,59.98657113833475,
safety,,&&&&&&,images/symbols/symbol_74.png,condition_files/AMP_rep4.csv,left,care.virtue,,,,,,,,,,,,,,,,,,,,,0,2,2,3,0,70,70,70,,,,,,,,,,,,,952.4548348630738,,,,,AMP_prac,right,0.882290268181805,,,,,,,,,,,,,,,,,,,,,6,,,right,1.1005010330479763,,,,,,,,,,,,,,1015,2019_May_17_1256,mf_amp_cond1,3.0.7,59.98657113833475,
promote,,&&&&&&&,images/symbols/symbol_16.png,condition_files/AMP_rep4.csv,left,sanctity.virtue,,,,,,,,,,,,,,,,,,,,,0,2,2,3,0,71,71,71,,,,,,,,,,,,,953.9218770746752,,,,,AMP_prac,right,0.882290268181805,,,,,,,,,,,,,,,,,,,,,6,,,right,1.2490604427639482,,,,,,,,,,,,,,1015,2019_May_17_1256,mf_amp_cond1,3.0.7,59.98657113833475,
interests,,&&&&&&&&&,images/symbols/symbol_60.png,condition_files/AMP_rep4.csv,left,fairness.virtue,,,,,,,,,,,,,,,,,,,,,0,2,2,3,0,72,72,72,,,,,,,,,,,,,955.1221825310026,,,,,AMP_prac,right,0.882290268181805,,,,,,,,,,,,,,,,,,,,,6,,,right,0.9671486915474361,,,,,,,,,,,,,,1015,2019_May_17_1256,mf_amp_cond1,3.0.7,59.98657113833475,
victim,,&&&&&&,images/symbols/symbol_31.png,condition_files/AMP_rep4.csv,right,care.vice,,,,,,,,,,,,,,,,,,,,,0,2,2,3,0,73,73,73,,,,,,,,,,,,,956.339160116974,,,,,AMP_prac,right,0.882290268181805,,,,,,,,,,,,,,,,,,,,,6,,,left,0.999759457952905,,,,,,,,,,,,,,1015,2019_May_17_1256,mf_amp_cond1,3.0.7,59.98657113833475,
police,,&&&&&&,images/symbols/symbol_23.png,condition_files/AMP_rep4.csv,right,authority.vice,,,,,,,,,,,,,,,,,,,,,0,2,2,3,0,74,74,74,,,,,,,,,,,,,957.5728091911437,,,,,AMP_prac,right,0.882290268181805,,,,,,,,,,,,,,,,,,,,,6,,,left,1.0160354950257897,,,,,,,,,,,,,,1015,2019_May_17_1256,mf_amp_cond1,3.0.7,59.98657113833475,
critics,,&&&&&&&,images/symbols/symbol_64.png,condition_files/AMP_rep4.csv,right,loyalty.vice,,,,,,,,,,,,,,,,,,,,,0,2,2,3,0,75,75,75,,,,,,,,,,,,,958.9064977783537,,,,,AMP_prac,right,0.882290268181805,,,,,,,,,,,,,,,,,,,,,6,,,left,1.115907590801271,,,,,,,,,,,,,,1015,2019_May_17_1256,mf_amp_cond1,3.0.7,59.98657113833475,
voter,,&&&&&,images/symbols/symbol_77.png,condition_files/AMP_rep4.csv,right,fairness.vice,,,,,,,,,,,,,,,,,,,,,0,2,2,3,0,76,76,76,,,,,,,,,,,,,960.1734808486835,,,,,AMP_prac,right,0.882290268181805,,,,,,,,,,,,,,,,,,,,,6,,,right,1.0495561518146133,,,,,,,,,,,,,,1015,2019_May_17_1256,mf_amp_cond1,3.0.7,59.98657113833475,
groups,,&&&&&&,images/symbols/symbol_24.png,condition_files/AMP_rep4.csv,right,loyalty.vice,,,,,,,,,,,,,,,,,,,,,0,2,2,3,0,77,77,77,,,,,,,,,,,,,961.3737834185065,,,,,AMP_prac,right,0.882290268181805,,,,,,,,,,,,,,,,,,,,,6,,,right,0.982681293333826,,,,,,,,,,,,,,1015,2019_May_17_1256,mf_amp_cond1,3.0.7,59.98657113833475,
violence,,&&&&&&&&,images/symbols/symbol_54.png,condition_files/AMP_rep4.csv,right,care.vice,,,,,,,,,,,,,,,,,,,,,0,2,2,3,0,78,78,78,,,,,,,,,,,,,962.5240728066253,,,,,AMP_prac,right,0.882290268181805,,,,,,,,,,,,,,,,,,,,,6,,,left,0.9324615661917051,,,,,,,,,,,,,,1015,2019_May_17_1256,mf_amp_cond1,3.0.7,59.98657113833475,
intelligence,,&&&&&&&&&&&&,images/symbols/symbol_51.png,condition_files/AMP_rep4.csv,left,loyalty.virtue,,,,,,,,,,,,,,,,,,,,,0,2,2,3,0,79,79,79,,,,,,,,,,,,,963.7410702774059,,,,,AMP_prac,right,0.882290268181805,,,,,,,,,,,,,,,,,,,,,6,,,right,0.9999820395271399,,,,,,,,,,,,,,1015,2019_May_17_1256,mf_amp_cond1,3.0.7,59.98657113833475,
blamed,,&&&&&&,images/symbols/symbol_67.png,condition_files/AMP_rep4.csv,right,loyalty.vice,,,,,,,,,,,,,,,,,,,,,0,2,2,3,0,80,80,80,,,,,,,,,,,,,965.0914066193322,,,,,AMP_prac,right,0.882290268181805,,,,,,,,,,,,,,,,,,,,,6,,,left,1.1327121789324792,,,,,,,,,,,,,,1015,2019_May_17_1256,mf_amp_cond1,3.0.7,59.98657113833475,
conspiracy,,&&&&&&&&&&,images/symbols/symbol_27.png,condition_files/AMP_rep4.csv,right,sanctity.vice,,,,,,,,,,,,,,,,,,,,,0,2,2,3,0,81,81,81,,,,,,,,,,,,,966.2083857447726,,,,,AMP_prac,right,0.882290268181805,,,,,,,,,,,,,,,,,,,,,6,,,left,0.8838210777694258,,,,,,,,,,,,,,1015,2019_May_17_1256,mf_amp_cond1,3.0.7,59.98657113833475,
,,,,condition_files/AMP_rep4.csv,,,,,,,,,,,,,,,,,,,,,,,0,2,2,3,,,,,,,,,,,,,,,,,,,,,,,,,,,,,,,,,,,,,,,,,,,,,,,,,,right,1.000472745303341,,,,,,,,,,,,1015,2019_May_17_1256,mf_amp_cond1,3.0.7,59.98657113833475,
embrace,,&&&&&&&,images/symbols/symbol_11.png,condition_files/AMP_rep1.csv,left,authority.virtue,,,,,,,,,,,,,,,,,,,,,0,3,3,0,0,0,0,0,,,,,,,,,,,,,969.3926412735514,,,,,AMP_prac,right,0.882290268181805,,,,,,,,,,,,,,,,,,,,,6,,,left,1.9324480958371169,,,,,,,,,,,,,,1015,2019_May_17_1256,mf_amp_cond1,3.0.7,59.98657113833475,
freedom,,&&&&&&&,images/symbols/symbol_66.png,condition_files/AMP_rep1.csv,left,sanctity.virtue,,,,,,,,,,,,,,,,,,,,,0,3,3,0,0,1,1,1,,,,,,,,,,,,,970.4594388378548,,,,,AMP_prac,right,0.882290268181805,,,,,,,,,,,,,,,,,,,,,6,,,right,0.8337729372876765,,,,,,,,,,,,,,1015,2019_May_17_1256,mf_amp_cond1,3.0.7,59.98657113833475,
corruption,,&&&&&&&&&&,images/symbols/symbol_14.png,condition_files/AMP_rep1.csv,right,sanctity.vice,,,,,,,,,,,,,,,,,,,,,0,3,3,0,0,2,2,2,,,,,,,,,,,,,971.576410907395,,,,,AMP_prac,right,0.882290268181805,,,,,,,,,,,,,,,,,,,,,6,,,left,0.8987580974469438,,,,,,,,,,,,,,1015,2019_May_17_1256,mf_amp_cond1,3.0.7,59.98657113833475,
pleasant,,&&&&&&&,images/symbols/symbol_21.png,condition_files/AMP_rep1.csv,right,control,,,,,,,,,,,,,,,,,,,,,0,3,3,0,0,3,3,3,,,,,,,,,,,,,972.6766848687505,,,,,AMP_prac,right,0.882290268181805,,,,,,,,,,,,,,,,,,,,,6,,,right,0.8828569852448709,,,,,,,,,,,,,,1015,2019_May_17_1256,mf_amp_cond1,3.0.7,59.98657113833475,
improve,,&&&&&&&,images/symbols/symbol_57.png,condition_files/AMP_rep1.csv,left,care.virtue,,,,,,,,,,,,,,,,,,,,,0,3,3,0,0,4,4,4,,,,,,,,,,,,,973.776955302156,,,,,AMP_prac,right,0.882290268181805,,,,,,,,,,,,,,,,,,,,,6,,,left,0.8826991896619347,,,,,,,,,,,,,,1015,2019_May_17_1256,mf_amp_cond1,3.0.7,59.98657113833475,
civilians,,&&&&&&&&&,images/symbols/symbol_47.png,condition_files/AMP_rep1.csv,right,care.vice,,,,,,,,,,,,,,,,,,,,,0,3,3,0,0,5,5,5,,,,,,,,,,,,,975.5774407480792,,,,,AMP_prac,right,0.882290268181805,,,,,,,,,,,,,,,,,,,,,6,,,left,1.5829100327841843,,,,,,,,,,,,,,1015,2019_May_17_1256,mf_amp_cond1,3.0.7,59.98657113833475,
support,,&&&&&&&,images/symbols/symbol_5.png,condition_files/AMP_rep1.csv,left,loyalty.virtue,,,,,,,,,,,,,,,,,,,,,0,3,3,0,0,6,6,6,,,,,,,,,,,,,976.644359866297,,,,,AMP_prac,right,0.882290268181805,,,,,,,,,,,,,,,,,,,,,6,,,right,0.849376739519812,,,,,,,,,,,,,,1015,2019_May_17_1256,mf_amp_cond1,3.0.7,59.98657113833475,
gryssed,,&&&&&&&,images/symbols/symbol_26.png,condition_files/AMP_rep1.csv,None,nonword,,,,,,,,,,,,,,,,,,,,,0,3,3,0,0,7,7,7,,,,,,,,,,,,,977.7946665734432,,,,,AMP_prac,right,0.882290268181805,,,,,,,,,,,,,,,,,,,,,6,,,left,0.9326754882522437,,,,,,,,,,,,,,1015,2019_May_17_1256,mf_amp_cond1,3.0.7,59.98657113833475,
party,,&&&&&,images/symbols/symbol_43.png,condition_files/AMP_rep1.csv,left,loyalty.virtue,,,,,,,,,,,,,,,,,,,,,0,3,3,0,0,8,8,8,,,,,,,,,,,,,979.0949980724563,,,,,AMP_prac,right,0.882290268181805,,,,,,,,,,,,,,,,,,,,,6,,,right,1.067171206283092,,,,,,,,,,,,,,1015,2019_May_17_1256,mf_amp_cond1,3.0.7,59.98657113833475,
trust,,&&&&&,images/symbols/symbol_78.png,condition_files/AMP_rep1.csv,left,authority.virtue,,,,,,,,,,,,,,,,,,,,,0,3,3,0,0,9,9,9,,,,,,,,,,,,,980.1452793783624,,,,,AMP_prac,right,0.882290268181805,,,,,,,,,,,,,,,,,,,,,6,,,right,0.8321609848496792,,,,,,,,,,,,,,1015,2019_May_17_1256,mf_amp_cond1,3.0.7,59.98657113833475,
honored,,&&&&&&&,images/symbols/symbol_38.png,condition_files/AMP_rep1.csv,left,authority.virtue,,,,,,,,,,,,,,,,,,,,,0,3,3,0,0,10,10,10,,,,,,,,,,,,,981.4122666180879,,,,,AMP_prac,right,0.882290268181805,,,,,,,,,,,,,,,,,,,,,6,,,right,1.0494958559415863,,,,,,,,,,,,,,1015,2019_May_17_1256,mf_amp_cond1,3.0.7,59.98657113833475,
loyalty,,&&&&&&&,images/symbols/symbol_28.png,condition_files/AMP_rep1.csv,left,loyalty.virtue,,,,,,,,,,,,,,,,,,,,,0,3,3,0,0,11,11,11,,,,,,,,,,,,,982.5125376929386,,,,,AMP_prac,right,0.882290268181805,,,,,,,,,,,,,,,,,,,,,6,,,right,0.8828162534582589,,,,,,,,,,,,,,1015,2019_May_17_1256,mf_amp_cond1,3.0.7,59.98657113833475,
stintz,,&&&&&&,images/symbols/symbol_46.png,condition_files/AMP_rep1.csv,None,nonword,,,,,,,,,,,,,,,,,,,,,0,3,3,0,0,12,12,12,,,,,,,,,,,,,983.6294911605607,,,,,AMP_prac,right,0.882290268181805,,,,,,,,,,,,,,,,,,,,,6,,,left,0.8993405299236201,,,,,,,,,,,,,,1015,2019_May_17_1256,mf_amp_cond1,3.0.7,59.98657113833475,
praised,,&&&&&&&,images/symbols/symbol_36.png,condition_files/AMP_rep1.csv,left,loyalty.virtue,,,,,,,,,,,,,,,,,,,,,0,3,3,0,0,13,13,13,,,,,,,,,,,,,984.6797612411713,,,,,AMP_prac,right,0.882290268181805,,,,,,,,,,,,,,,,,,,,,6,,,right,0.8325869046343541,,,,,,,,,,,,,,1015,2019_May_17_1256,mf_amp_cond1,3.0.7,59.98657113833475,
attacks,,&&&&&&&,images/symbols/symbol_45.png,condition_files/AMP_rep1.csv,right,care.vice,,,,,,,,,,,,,,,,,,,,,0,3,3,0,0,14,14,14,,,,,,,,,,,,,985.7467050550392,,,,,AMP_prac,right,0.882290268181805,,,,,,,,,,,,,,,,,,,,,6,,,left,0.849408811792955,,,,,,,,,,,,,,1015,2019_May_17_1256,mf_amp_cond1,3.0.7,59.98657113833475,
hand,,&&&&,images/symbols/symbol_35.png,condition_files/AMP_rep1.csv,left,sanctity.virtue,,,,,,,,,,,,,,,,,,,,,0,3,3,0,0,15,15,15,,,,,,,,,,,,,986.7636260655211,,,,,AMP_prac,right,0.882290268181805,,,,,,,,,,,,,,,,,,,,,6,,,right,0.7993933850293615,,,,,,,,,,,,,,1015,2019_May_17_1256,mf_amp_cond1,3.0.7,59.98657113833475,
peaceful,,&&&&&&&&,images/symbols/symbol_19.png,condition_files/AMP_rep1.csv,left,authority.virtue,,,,,,,,,,,,,,,,,,,,,0,3,3,0,0,16,16,16,,,,,,,,,,,,,987.8138983911906,,,,,AMP_prac,right,0.882290268181805,,,,,,,,,,,,,,,,,,,,,6,,,right,0.8327530390083666,,,,,,,,,,,,,,1015,2019_May_17_1256,mf_amp_cond1,3.0.7,59.98657113833475,
strong,,&&&&&&,images/symbols/symbol_61.png,condition_files/AMP_rep1.csv,left,loyalty.virtue,,,,,,,,,,,,,,,,,,,,,0,3,3,0,0,17,17,17,,,,,,,,,,,,,988.9643115782828,,,,,AMP_prac,right,0.882290268181805,,,,,,,,,,,,,,,,,,,,,6,,,right,0.9172496871349267,,,,,,,,,,,,,,1015,2019_May_17_1256,mf_amp_cond1,3.0.7,59.98657113833475,
serial,,&&&&&&,images/symbols/symbol_7.png,condition_files/AMP_rep1.csv,right,sanctity.vice,,,,,,,,,,,,,,,,,,,,,0,3,3,0,0,18,18,18,,,,,,,,,,,,,989.9977857302761,,,,,AMP_prac,right,0.882290268181805,,,,,,,,,,,,,,,,,,,,,6,,,left,0.8151597936855524,,,,,,,,,,,,,,1015,2019_May_17_1256,mf_amp_cond1,3.0.7,59.98657113833475,
threatened,,&&&&&&&&&&,images/symbols/symbol_49.png,condition_files/AMP_rep1.csv,right,fairness.vice,,,,,,,,,,,,,,,,,,,,,0,3,3,0,0,19,19,19,,,,,,,,,,,,,991.3314714309813,,,,,AMP_prac,right,0.882290268181805,,,,,,,,,,,,,,,,,,,,,6,,,left,1.1005145034025645,,,,,,,,,,,,,,1015,2019_May_17_1256,mf_amp_cond1,3.0.7,59.98657113833475,
perfect,,&&&&&&&,images/symbols/symbol_50.png,condition_files/AMP_rep1.csv,left,sanctity.virtue,,,,,,,,,,,,,,,,,,,,,0,3,3,0,0,20,20,20,,,,,,,,,,,,,992.3817367007509,,,,,AMP_prac,right,0.882290268181805,,,,,,,,,,,,,,,,,,,,,6,,,right,0.8322764450324485,,,,,,,,,,,,,,1015,2019_May_17_1256,mf_amp_cond1,3.0.7,59.98657113833475,
compassion,,&&&&&&&&&&,images/symbols/symbol_58.png,condition_files/AMP_rep1.csv,left,care.virtue,,,,,,,,,,,,,,,,,,,,,0,3,3,0,0,21,21,21,,,,,,,,,,,,,993.3986852933874,,,,,AMP_prac,right,0.882290268181805,,,,,,,,,,,,,,,,,,,,,6,,,right,0.7993385414429213,,,,,,,,,,,,,,1015,2019_May_17_1256,mf_amp_cond1,3.0.7,59.98657113833475,
spraize,,&&&&&&&,images/symbols/symbol_71.png,condition_files/AMP_rep1.csv,None,nonword,,,,,,,,,,,,,,,,,,,,,0,3,3,0,0,22,22,22,,,,,,,,,,,,,994.4656172405143,,,,,AMP_prac,right,0.882290268181805,,,,,,,,,,,,,,,,,,,,,6,,,left,0.8490037389856298,,,,,,,,,,,,,,1015,2019_May_17_1256,mf_amp_cond1,3.0.7,59.98657113833475,
illegal,,&&&&&&&,images/symbols/symbol_30.png,condition_files/AMP_rep1.csv,right,fairness.vice,,,,,,,,,,,,,,,,,,,,,0,3,3,0,0,23,23,23,,,,,,,,,,,,,995.5659537428021,,,,,AMP_prac,right,0.882290268181805,,,,,,,,,,,,,,,,,,,,,6,,,left,0.8828159327354115,,,,,,,,,,,,,,1015,2019_May_17_1256,mf_amp_cond1,3.0.7,59.98657113833475,
hate,,&&&&,images/symbols/symbol_2.png,condition_files/AMP_rep1.csv,right,fairness.vice,,,,,,,,,,,,,,,,,,,,,0,3,3,0,0,24,24,24,,,,,,,,,,,,,996.6494907885224,,,,,AMP_prac,right,0.882290268181805,,,,,,,,,,,,,,,,,,,,,6,,,left,0.8658936393626391,,,,,,,,,,,,,,1015,2019_May_17_1256,mf_amp_cond1,3.0.7,59.98657113833475,
squintce,,&&&&&&&&,images/symbols/symbol_53.png,condition_files/AMP_rep1.csv,None,nonword,,,,,,,,,,,,,,,,,,,,,0,3,3,0,0,25,25,25,,,,,,,,,,,,,997.7831157443429,,,,,AMP_prac,right,0.882290268181805,,,,,,,,,,,,,,,,,,,,,6,,,left,0.9161377414320668,,,,,,,,,,,,,,1015,2019_May_17_1256,mf_amp_cond1,3.0.7,59.98657113833475,
prison,,&&&&&&,images/symbols/symbol_68.png,condition_files/AMP_rep1.csv,right,fairness.vice,,,,,,,,,,,,,,,,,,,,,0,3,3,0,0,26,26,26,,,,,,,,,,,,,998.9167410208861,,,,,AMP_prac,right,0.882290268181805,,,,,,,,,,,,,,,,,,,,,6,,,left,0.9004640216448934,,,,,,,,,,,,,,1015,2019_May_17_1256,mf_amp_cond1,3.0.7,59.98657113833475,
war,,&&&,images/symbols/symbol_37.png,condition_files/AMP_rep1.csv,right,sanctity.vice,,,,,,,,,,,,,,,,,,,,,0,3,3,0,0,27,27,27,,,,,,,,,,,,,1000.0170201138053,,,,,AMP_prac,right,0.882290268181805,,,,,,,,,,,,,,,,,,,,,6,,,left,0.8670697296115577,,,,,,,,,,,,,,1015,2019_May_17_1256,mf_amp_cond1,3.0.7,59.98657113833475,
agreement,,&&&&&&&&&,images/symbols/symbol_13.png,condition_files/AMP_rep1.csv,left,fairness.virtue,,,,,,,,,,,,,,,,,,,,,0,3,3,0,0,28,28,28,,,,,,,,,,,,,1001.2506618113521,,,,,AMP_prac,right,0.882290268181805,,,,,,,,,,,,,,,,,,,,,6,,,right,1.0155486379226204,,,,,,,,,,,,,,1015,2019_May_17_1256,mf_amp_cond1,3.0.7,59.98657113833475,
army,,&&&&,images/symbols/symbol_73.png,condition_files/AMP_rep1.csv,right,loyalty.vice,,,,,,,,,,,,,,,,,,,,,0,3,3,0,0,29,29,29,,,,,,,,,,,,,1002.2509254454358,,,,,AMP_prac,right,0.882290268181805,,,,,,,,,,,,,,,,,,,,,6,,,left,0.7826269629033504,,,,,,,,,,,,,,1015,2019_May_17_1256,mf_amp_cond1,3.0.7,59.98657113833475,
suicide,,&&&&&&&,images/symbols/symbol_25.png,condition_files/AMP_rep1.csv,right,care.vice,,,,,,,,,,,,,,,,,,,,,0,3,3,0,0,30,30,30,,,,,,,,,,,,,1003.2678615298857,,,,,AMP_prac,right,0.882290268181805,,,,,,,,,,,,,,,,,,,,,6,,,left,0.7992933195380374,,,,,,,,,,,,,,1015,2019_May_17_1256,mf_amp_cond1,3.0.7,59.98657113833475,
credit,,&&&&&&,images/symbols/symbol_44.png,condition_files/AMP_rep1.csv,left,fairness.virtue,,,,,,,,,,,,,,,,,,,,,0,3,3,0,0,31,31,31,,,,,,,,,,,,,1004.651539565318,,,,,AMP_prac,right,0.882290268181805,,,,,,,,,,,,,,,,,,,,,6,,,left,1.1658344980912716,,,,,,,,,,,,,,1015,2019_May_17_1256,mf_amp_cond1,3.0.7,59.98657113833475,
increase,,&&&&&&&&,images/symbols/symbol_6.png,condition_files/AMP_rep1.csv,left,care.virtue,,,,,,,,,,,,,,,,,,,,,0,3,3,0,0,32,32,32,,,,,,,,,,,,,1005.8518507946546,,,,,AMP_prac,right,0.882290268181805,,,,,,,,,,,,,,,,,,,,,6,,,right,0.9671486915474361,,,,,,,,,,,,,,1015,2019_May_17_1256,mf_amp_cond1,3.0.7,59.98657113833475,
restore,,&&&&&&&,images/symbols/symbol_1.png,condition_files/AMP_rep1.csv,left,care.virtue,,,,,,,,,,,,,,,,,,,,,0,3,3,0,0,33,33,33,,,,,,,,,,,,,1006.9354702661165,,,,,AMP_prac,right,0.882290268181805,,,,,,,,,,,,,,,,,,,,,6,,,right,0.8654375716414506,,,,,,,,,,,,,,1015,2019_May_17_1256,mf_amp_cond1,3.0.7,59.98657113833475,
killed,,&&&&&&,images/symbols/symbol_63.png,condition_files/AMP_rep1.csv,right,care.vice,,,,,,,,,,,,,,,,,,,,,0,3,3,0,0,34,34,34,,,,,,,,,,,,,1008.035746472531,,,,,AMP_prac,right,0.882290268181805,,,,,,,,,,,,,,,,,,,,,6,,,left,0.8670777476795593,,,,,,,,,,,,,,1015,2019_May_17_1256,mf_amp_cond1,3.0.7,59.98657113833475,
sexual,,&&&&&&,images/symbols/symbol_9.png,condition_files/AMP_rep1.csv,right,sanctity.vice,,,,,,,,,,,,,,,,,,,,,0,3,3,0,0,35,35,35,,,,,,,,,,,,,1009.1027101712082,,,,,AMP_prac,right,0.882290268181805,,,,,,,,,,,,,,,,,,,,,6,,,right,0.8488084188434186,,,,,,,,,,,,,,1015,2019_May_17_1256,mf_amp_cond1,3.0.7,59.98657113833475,
rejected,,&&&&&&&&,images/symbols/symbol_8.png,condition_files/AMP_rep1.csv,right,authority.vice,,,,,,,,,,,,,,,,,,,,,0,3,3,0,0,36,36,36,,,,,,,,,,,,,1010.1696177434076,,,,,AMP_prac,right,0.882290268181805,,,,,,,,,,,,,,,,,,,,,6,,,left,0.8494319038295544,,,,,,,,,,,,,,1015,2019_May_17_1256,mf_amp_cond1,3.0.7,59.98657113833475,
faith,,&&&&&,images/symbols/symbol_80.png,condition_files/AMP_rep1.csv,left,sanctity.virtue,,,,,,,,,,,,,,,,,,,,,0,3,3,0,0,37,37,37,,,,,,,,,,,,,1011.4699575812117,,,,,AMP_prac,right,0.882290268181805,,,,,,,,,,,,,,,,,,,,,6,,,left,1.083156668563106,,,,,,,,,,,,,,1015,2019_May_17_1256,mf_amp_cond1,3.0.7,59.98657113833475,
win,,&&&,images/symbols/symbol_70.png,condition_files/AMP_rep1.csv,left,fairness.virtue,,,,,,,,,,,,,,,,,,,,,0,3,3,0,0,38,38,38,,,,,,,,,,,,,1012.5702405228037,,,,,AMP_prac,right,0.882290268181805,,,,,,,,,,,,,,,,,,,,,6,,,right,0.8827982929853988,,,,,,,,,,,,,,1015,2019_May_17_1256,mf_amp_cond1,3.0.7,59.98657113833475,
scandal,,&&&&&&&,images/symbols/symbol_3.png,condition_files/AMP_rep1.csv,right,sanctity.vice,,,,,,,,,,,,,,,,,,,,,0,3,3,0,0,39,39,39,,,,,,,,,,,,,1013.7038779868105,,,,,AMP_prac,right,0.882290268181805,,,,,,,,,,,,,,,,,,,,,6,,,left,0.9161098385545756,,,,,,,,,,,,,,1015,2019_May_17_1256,mf_amp_cond1,3.0.7,59.98657113833475,
arrests,,&&&&&&&,images/symbols/symbol_56.png,condition_files/AMP_rep1.csv,right,authority.vice,,,,,,,,,,,,,,,,,,,,,0,3,3,0,0,40,40,40,,,,,,,,,,,,,1014.7874740455131,,,,,AMP_prac,right,0.882290268181805,,,,,,,,,,,,,,,,,,,,,6,,,left,0.8504489156043746,,,,,,,,,,,,,,1015,2019_May_17_1256,mf_amp_cond1,3.0.7,59.98657113833475,
died,,&&&&,images/symbols/symbol_75.png,condition_files/AMP_rep1.csv,right,care.vice,,,,,,,,,,,,,,,,,,,,,0,3,3,0,0,41,41,41,,,,,,,,,,,,,1015.9544442227893,,,,,AMP_prac,right,0.882290268181805,,,,,,,,,,,,,,,,,,,,,6,,,left,0.9488081622653226,,,,,,,,,,,,,,1015,2019_May_17_1256,mf_amp_cond1,3.0.7,59.98657113833475,
great,,&&&&&,images/symbols/symbol_59.png,condition_files/AMP_rep1.csv,left,loyalty.virtue,,,,,,,,,,,,,,,,,,,,,0,3,3,0,0,42,42,42,,,,,,,,,,,,,1017.0714143679934,,,,,AMP_prac,right,0.882290268181805,,,,,,,,,,,,,,,,,,,,,6,,,right,0.8994306530107679,,,,,,,,,,,,,,1015,2019_May_17_1256,mf_amp_cond1,3.0.7,59.98657113833475,
useful,,&&&&&&,images/symbols/symbol_42.png,condition_files/AMP_rep1.csv,left,authority.virtue,,,,,,,,,,,,,,,,,,,,,0,3,3,0,0,43,43,43,,,,,,,,,,,,,1018.2383576045604,,,,,AMP_prac,right,0.882290268181805,,,,,,,,,,,,,,,,,,,,,6,,,right,0.949298226595829,,,,,,,,,,,,,,1015,2019_May_17_1256,mf_amp_cond1,3.0.7,59.98657113833475,
peighld,,&&&&&&&,images/symbols/symbol_39.png,condition_files/AMP_rep1.csv,None,nonword,,,,,,,,,,,,,,,,,,,,,0,3,3,0,0,44,44,44,,,,,,,,,,,,,1019.4053492702594,,,,,AMP_prac,right,0.882290268181805,,,,,,,,,,,,,,,,,,,,,6,,,left,0.9493511458460944,,,,,,,,,,,,,,1015,2019_May_17_1256,mf_amp_cond1,3.0.7,59.98657113833475,
strength,,&&&&&&&&,images/symbols/symbol_62.png,condition_files/AMP_rep1.csv,left,sanctity.virtue,,,,,,,,,,,,,,,,,,,,,0,3,3,0,0,45,45,45,,,,,,,,,,,,,1020.5222741935586,,,,,AMP_prac,right,0.882290268181805,,,,,,,,,,,,,,,,,,,,,6,,,right,0.8837787423690315,,,,,,,,,,,,,,1015,2019_May_17_1256,mf_amp_cond1,3.0.7,59.98657113833475,
failure,,&&&&&&&,images/symbols/symbol_55.png,condition_files/AMP_rep1.csv,right,loyalty.vice,,,,,,,,,,,,,,,,,,,,,0,3,3,0,0,46,46,46,,,,,,,,,,,,,1021.8226191629265,,,,,AMP_prac,right,0.882290268181805,,,,,,,,,,,,,,,,,,,,,6,,,left,1.0821768606247133,,,,,,,,,,,,,,1015,2019_May_17_1256,mf_amp_cond1,3.0.7,59.98657113833475,
lies,,&&&&,images/symbols/symbol_32.png,condition_files/AMP_rep1.csv,right,fairness.vice,,,,,,,,,,,,,,,,,,,,,0,3,3,0,0,47,47,47,,,,,,,,,,,,,1022.8228706095463,,,,,AMP_prac,right,0.882290268181805,,,,,,,,,,,,,,,,,,,,,6,,,left,0.7826545450579943,,,,,,,,,,,,,,1015,2019_May_17_1256,mf_amp_cond1,3.0.7,59.98657113833475,
