words,masks,symbols,conditionfile,corr_ans,category,mask,LDT_trials_cond2.thisRepN,LDT_trials_cond2.thisTrialN,LDT_trials_cond2.thisN,LDT_trials_cond2.thisIndex,logo_trials.thisRepN,logo_trials.thisTrialN,logo_trials.thisN,logo_trials.thisIndex,AMP_pracs.thisRepN,AMP_pracs.thisTrialN,AMP_pracs.thisN,AMP_pracs.thisIndex,trials_loop.thisRepN,trials_loop.thisTrialN,trials_loop.thisN,trials_loop.thisIndex,AMP_trials.thisRepN,AMP_trials.thisTrialN,AMP_trials.thisN,AMP_trials.thisIndex,memtask_trials.thisRepN,memtask_trials.thisTrialN,memtask_trials.thisN,memtask_trials.thisIndex,LDT_cond1.thisRepN,LDT_cond1.thisTrialN,LDT_cond1.thisN,LDT_cond1.thisIndex,LDT_pracs.thisRepN,LDT_pracs.thisTrialN,LDT_pracs.thisN,LDT_pracs.thisIndex,LDT_trials.thisRepN,LDT_trials.thisTrialN,LDT_trials.thisN,LDT_trials.thisIndex,begin_key.keys,begin_key.rt,key_resp_instr.keys,key_resp_instr.rt,exp_time,resp_sym_rate.keys,resp_sym_rate.rt,sym_resp_1.keys,sym_resp_1.rt,sym_resp_2.keys,sym_resp_2.rt,sym_resp_trial.keys,sym_resp_trial.rt,symbol_index,resp_AMP_ready1.keys,resp_AMP_ready1.rt,resp_AMP.keys,resp_AMP.rt,task,keypress,RT,prime_dur,resp_AMP_ready.keys,resp_AMP_ready.rt,resp_AMP_trials.keys,resp_AMP_trials.rt,rest_key_resp.keys,rest_key_resp.rt,AMP_nonword_rating.response,AMP_nonword_rating.rt,AMP_word_rating.response,AMP_word_rating.rt,AMP_random_rating.response,AMP_random_rating.rt,key_resp_instr_memtask.keys,key_resp_instr_memtask.rt,resp_memtask.keys,resp_memtask.corr,resp_memtask.rt,corr,key_resp_LDT_instr.keys,key_resp_LDT_instr.rt,resp_LDT_prac.keys,resp_LDT_prac.rt,resp_LDT_ready.keys,resp_LDT_ready.rt,resp_LDT_trial.keys,resp_LDT_trial.rt,LDT_rating.response,LDT_rating.rt,participant ID,date,expName,psychopyVersion,frameRate,
,,,,,,,,,,,,,,,,,,,,,,,,,,,,,,,,,,,,,,,,,,,right,270.68578410289774,,,,,,,,,,,,,,,,,,,,,,,,,,,,,,,,,,,,,,,,,,,,,,,,,1016,2019_May_17_1256,mf_amp_cond1,3.0.7,59.98182042445167,
,,,,,,,,,,,,,,,,,,,,,,,,,,,,,,,,,,,,,,,,,,,,,right,0.11692082493391354,,,,,,,,,,,,,,,,,,,,,,,,,,,,,,,,,,,,,,,,,,,,,,,1016,2019_May_17_1256,mf_amp_cond1,3.0.7,59.98182042445167,
,,,,,,,,,,,,,,,,,,,,,,,,,,,,,,,,,,,,,,,,,,,,,,,308.8359971121972,right,1.3839109745167661,,,,,,,,,,,,,,,,,,,,,,,,,,,,,,,,,,,,,,,,,,,,1016,2019_May_17_1256,mf_amp_cond1,3.0.7,59.98182042445167,
,,,,,,,,,,,,,,,,,,,,,,,,,,,,,,,,,,,,,,,,,,,,,,,372.2526550391194,,,left,6.068487869706587,,,,,,,,,,,,,,,,,,,,,,,,,,,,,,,,,,,,,,,,,,1016,2019_May_17_1256,mf_amp_cond1,3.0.7,59.98182042445167,
,,,,,,,,,,,,,,,,,,,,,,,,,,,,,,,,,,,,,,,,,,,,,,,,,,,,right,1.0504987429158064,,,,,,,,,,,,,,,,,,,,,,,,,,,,,,,,,,,,,,,,1016,2019_May_17_1256,mf_amp_cond1,3.0.7,59.98182042445167,
,,,,,,,,,,,,,,,,,,,,,,,,,,,,,,,,,,,,,,,,,,,,,,,395.4087036340352,,,,,,,right,1.6487731158267707,50,right,0.9004566798830638,,,,,,,,,,,,,,,,,,,,,,,,,,,,,,,,,,,1016,2019_May_17_1256,mf_amp_cond1,3.0.7,59.98182042445167,
car,&&&,images/symbols/symbol_9.png,,,,,,,,,,,,,0,0,0,0,,,,,,,,,,,,,,,,,,,,,,,,,,,,,543.9146641419356,,,,,,,,,,,,right,1.6839983078534715,AMP_prac,right,1.6839983078534715,6,,,,,,,,,,,,,,,,,,,,,,,,,,,,,1016,2019_May_17_1256,mf_amp_cond1,3.0.7,59.98182042445167,
scarf,&&&&&,images/symbols/symbol_54.png,,,,,,,,,,,,,0,1,1,3,,,,,,,,,,,,,,,,,,,,,,,,,,,,,546.2318400071381,,,,,,,,,,,,right,2.084120311526931,AMP_prac,right,2.084120311526931,6,,,,,,,,,,,,,,,,,,,,,,,,,,,,,1016,2019_May_17_1256,mf_amp_cond1,3.0.7,59.98182042445167,
keyboard,&&&&&&&&,images/symbols/symbol_40.png,,,,,,,,,,,,,0,2,2,2,,,,,,,,,,,,,,,,,,,,,,,,,,,,,548.8325262296712,,,,,,,,,,,,right,2.382609153035446,AMP_prac,right,2.382609153035446,6,,,,,,,,,,,,,,,,,,,,,,,,,,,,,1016,2019_May_17_1256,mf_amp_cond1,3.0.7,59.98182042445167,
banana,&&&&&&,images/symbols/symbol_68.png,,,,,,,,,,,,,0,3,3,1,,,,,,,,,,,,,,,,,,,,,,,,,,,,,550.3829141622118,,,,,,,,,,,,left,1.3172425759548787,AMP_prac,left,1.3172425759548787,6,,,,,,,,,,,,,,,,,,,,,,,,,,,,,1016,2019_May_17_1256,mf_amp_cond1,3.0.7,59.98182042445167,
,,,,,,,,,,,,,,,,,,,,,,,,,,,,,,,,,,,,,,,,,,,,,,,,,,,,,,,,,,,,,,,,,right,8.869221302928054,,,,,,,,,,,,,,,,,,,,,,,,,,,1016,2019_May_17_1256,mf_amp_cond1,3.0.7,59.98182042445167,
love,&&&&,images/symbols/symbol_11.png,condition_files/AMP_rep1.csv,left,loyalty.virtue,,,,,,,,,,,,,,0,0,0,0,0,0,0,0,,,,,,,,,,,,,,,,,,,,,581.657919221645,,,,,,,,,,,,,,AMP_prac,left,1.3172425759548787,6,,,right,2.134111347273574,,,,,,,,,,,,,,,,,,,,,,,,,1016,2019_May_17_1256,mf_amp_cond1,3.0.7,59.98182042445167,
energy,&&&&&&,images/symbols/symbol_80.png,condition_files/AMP_rep1.csv,left,sanctity.virtue,,,,,,,,,,,,,,0,0,0,0,0,1,1,1,,,,,,,,,,,,,,,,,,,,,582.624703049034,,,,,,,,,,,,,,AMP_prac,left,1.3172425759548787,6,,,left,0.7490778363571735,,,,,,,,,,,,,,,,,,,,,,,,,1016,2019_May_17_1256,mf_amp_cond1,3.0.7,59.98182042445167,
fighters,&&&&&&&&,images/symbols/symbol_49.png,condition_files/AMP_rep1.csv,right,authority.vice,,,,,,,,,,,,,,0,0,0,0,0,2,2,2,,,,,,,,,,,,,,,,,,,,,583.5916193357261,,,,,,,,,,,,,,AMP_prac,left,1.3172425759548787,6,,,left,0.7337433477659943,,,,,,,,,,,,,,,,,,,,,,,,,1016,2019_May_17_1256,mf_amp_cond1,3.0.7,59.98182042445167,
honored,&&&&&&&,images/symbols/symbol_2.png,condition_files/AMP_rep1.csv,left,authority.virtue,,,,,,,,,,,,,,0,0,0,0,0,3,3,3,,,,,,,,,,,,,,,,,,,,,584.5585481306771,,,,,,,,,,,,,,AMP_prac,left,1.3172425759548787,6,,,right,0.7489485843107104,,,,,,,,,,,,,,,,,,,,,,,,,1016,2019_May_17_1256,mf_amp_cond1,3.0.7,59.98182042445167,
encourage,&&&&&&&&&,images/symbols/symbol_37.png,condition_files/AMP_rep1.csv,left,authority.virtue,,,,,,,,,,,,,,0,0,0,0,0,4,4,4,,,,,,,,,,,,,,,,,,,,,585.55880663477,,,,,,,,,,,,,,AMP_prac,left,1.3172425759548787,6,,,right,0.7825400048022857,,,,,,,,,,,,,,,,,,,,,,,,,1016,2019_May_17_1256,mf_amp_cond1,3.0.7,59.98182042445167,
prison,&&&&&&,images/symbols/symbol_76.png,condition_files/AMP_rep1.csv,right,fairness.vice,,,,,,,,,,,,,,0,0,0,0,0,5,5,5,,,,,,,,,,,,,,,,,,,,,586.5591049087234,,,,,,,,,,,,,,AMP_prac,left,1.3172425759548787,6,,,left,0.7829903022502549,,,,,,,,,,,,,,,,,,,,,,,,,1016,2019_May_17_1256,mf_amp_cond1,3.0.7,59.98182042445167,
gun,&&&,images/symbols/symbol_13.png,condition_files/AMP_rep1.csv,right,authority.vice,,,,,,,,,,,,,,0,0,0,0,0,6,6,6,,,,,,,,,,,,,,,,,,,,,587.5760026094213,,,,,,,,,,,,,,AMP_prac,left,1.3172425759548787,6,,,left,0.7992273100971943,,,,,,,,,,,,,,,,,,,,,,,,,1016,2019_May_17_1256,mf_amp_cond1,3.0.7,59.98182042445167,
friends,&&&&&&&,images/symbols/symbol_63.png,condition_files/AMP_rep1.csv,left,loyalty.virtue,,,,,,,,,,,,,,0,0,0,0,0,7,7,7,,,,,,,,,,,,,,,,,,,,,588.5262473063194,,,,,,,,,,,,,,AMP_prac,left,1.3172425759548787,6,,,right,0.717074003056041,,,,,,,,,,,,,,,,,,,,,,,,,1016,2019_May_17_1256,mf_amp_cond1,3.0.7,59.98182042445167,
stealde,&&&&&&&,images/symbols/symbol_22.png,condition_files/AMP_rep1.csv,None,nonword,,,,,,,,,,,,,,0,0,0,0,0,8,8,8,,,,,,,,,,,,,,,,,,,,,589.459823299956,,,,,,,,,,,,,,AMP_prac,left,1.3172425759548787,6,,,left,0.7151878211880103,,,,,,,,,,,,,,,,,,,,,,,,,1016,2019_May_17_1256,mf_amp_cond1,3.0.7,59.98182042445167,
victims,&&&&&&&,images/symbols/symbol_41.png,condition_files/AMP_rep1.csv,right,care.vice,,,,,,,,,,,,,,0,0,0,0,0,9,9,9,,,,,,,,,,,,,,,,,,,,,590.4434188738232,,,,,,,,,,,,,,AMP_prac,left,1.3172425759548787,6,,,left,0.7666240423568524,,,,,,,,,,,,,,,,,,,,,,,,,1016,2019_May_17_1256,mf_amp_cond1,3.0.7,59.98182042445167,
violations,&&&&&&&&&&,images/symbols/symbol_28.png,condition_files/AMP_rep1.csv,right,sanctity.vice,,,,,,,,,,,,,,0,0,0,0,0,10,10,10,,,,,,,,,,,,,,,,,,,,,591.3436523293203,,,,,,,,,,,,,,AMP_prac,left,1.3172425759548787,6,,,right,0.6826647346169921,,,,,,,,,,,,,,,,,,,,,,,,,1016,2019_May_17_1256,mf_amp_cond1,3.0.7,59.98182042445167,
protect,&&&&&&&,images/symbols/symbol_19.png,condition_files/AMP_rep1.csv,left,fairness.virtue,,,,,,,,,,,,,,0,0,0,0,0,11,11,11,,,,,,,,,,,,,,,,,,,,,592.7774000710197,,,,,,,,,,,,,,AMP_prac,left,1.3172425759548787,6,,,left,1.216280690539861,,,,,,,,,,,,,,,,,,,,,,,,,1016,2019_May_17_1256,mf_amp_cond1,3.0.7,59.98182042445167,
celebrated,&&&&&&&&&&,images/symbols/symbol_51.png,condition_files/AMP_rep1.csv,left,authority.virtue,,,,,,,,,,,,,,0,0,0,0,0,12,12,12,,,,,,,,,,,,,,,,,,,,,593.6109221508232,,,,,,,,,,,,,,AMP_prac,left,1.3172425759548787,6,,,left,0.6003764024935663,,,,,,,,,,,,,,,,,,,,,,,,,1016,2019_May_17_1256,mf_amp_cond1,3.0.7,59.98182042445167,
threatened,&&&&&&&&&&,images/symbols/symbol_56.png,condition_files/AMP_rep1.csv,right,fairness.vice,,,,,,,,,,,,,,0,0,0,0,0,13,13,13,,,,,,,,,,,,,,,,,,,,,594.4111340856907,,,,,,,,,,,,,,AMP_prac,left,1.3172425759548787,6,,,right,0.5670524663873948,,,,,,,,,,,,,,,,,,,,,,,,,1016,2019_May_17_1256,mf_amp_cond1,3.0.7,59.98182042445167,
abuse,&&&&&,images/symbols/symbol_65.png,condition_files/AMP_rep1.csv,right,sanctity.vice,,,,,,,,,,,,,,0,0,0,0,0,14,14,14,,,,,,,,,,,,,,,,,,,,,595.3447148901905,,,,,,,,,,,,,,AMP_prac,left,1.3172425759548787,6,,,right,0.7150685116066597,,,,,,,,,,,,,,,,,,,,,,,,,1016,2019_May_17_1256,mf_amp_cond1,3.0.7,59.98182042445167,
promised,&&&&&&&&,images/symbols/symbol_58.png,condition_files/AMP_rep1.csv,left,loyalty.virtue,,,,,,,,,,,,,,0,0,0,0,0,15,15,15,,,,,,,,,,,,,,,,,,,,,596.1115679299692,,,,,,,,,,,,,,AMP_prac,left,1.3172425759548787,6,,,right,0.5491698201803956,,,,,,,,,,,,,,,,,,,,,,,,,1016,2019_May_17_1256,mf_amp_cond1,3.0.7,59.98182042445167,
care,&&&&,images/symbols/symbol_26.png,condition_files/AMP_rep1.csv,left,care.virtue,,,,,,,,,,,,,,0,0,0,0,0,16,16,16,,,,,,,,,,,,,,,,,,,,,597.0284883700515,,,,,,,,,,,,,,AMP_prac,left,1.3172425759548787,6,,,right,0.6992474836733891,,,,,,,,,,,,,,,,,,,,,,,,,1016,2019_May_17_1256,mf_amp_cond1,3.0.7,59.98182042445167,
promote,&&&&&&&,images/symbols/symbol_73.png,condition_files/AMP_rep1.csv,left,sanctity.virtue,,,,,,,,,,,,,,0,0,0,0,0,17,17,17,,,,,,,,,,,,,,,,,,,,,597.9120646683732,,,,,,,,,,,,,,AMP_prac,left,1.3172425759548787,6,,,left,0.6660062945447862,,,,,,,,,,,,,,,,,,,,,,,,,1016,2019_May_17_1256,mf_amp_cond1,3.0.7,59.98182042445167,
agreement,&&&&&&&&&,images/symbols/symbol_32.png,condition_files/AMP_rep1.csv,left,fairness.virtue,,,,,,,,,,,,,,0,0,0,0,0,18,18,18,,,,,,,,,,,,,,,,,,,,,598.6790043038054,,,,,,,,,,,,,,AMP_prac,left,1.3172425759548787,6,,,right,0.5494013834104408,,,,,,,,,,,,,,,,,,,,,,,,,1016,2019_May_17_1256,mf_amp_cond1,3.0.7,59.98182042445167,
praise,&&&&&&,images/symbols/symbol_46.png,condition_files/AMP_rep1.csv,left,authority.virtue,,,,,,,,,,,,,,0,0,0,0,0,19,19,19,,,,,,,,,,,,,,,,,,,,,599.5459112574172,,,,,,,,,,,,,,AMP_prac,left,1.3172425759548787,6,,,left,0.6491852470498998,,,,,,,,,,,,,,,,,,,,,,,,,1016,2019_May_17_1256,mf_amp_cond1,3.0.7,59.98182042445167,
compassion,&&&&&&&&&&,images/symbols/symbol_50.png,condition_files/AMP_rep1.csv,left,care.virtue,,,,,,,,,,,,,,0,0,0,0,0,20,20,20,,,,,,,,,,,,,,,,,,,,,600.2627540179674,,,,,,,,,,,,,,AMP_prac,left,1.3172425759548787,6,,,left,0.4995386375376256,,,,,,,,,,,,,,,,,,,,,,,,,1016,2019_May_17_1256,mf_amp_cond1,3.0.7,59.98182042445167,
credit,&&&&&&,images/symbols/symbol_47.png,condition_files/AMP_rep1.csv,left,fairness.virtue,,,,,,,,,,,,,,0,0,0,0,0,21,21,21,,,,,,,,,,,,,,,,,,,,,601.012870681574,,,,,,,,,,,,,,AMP_prac,left,1.3172425759548787,6,,,left,0.5327031734777847,,,,,,,,,,,,,,,,,,,,,,,,,1016,2019_May_17_1256,mf_amp_cond1,3.0.7,59.98182042445167,
rebels,&&&&&&,images/symbols/symbol_5.png,condition_files/AMP_rep1.csv,right,authority.vice,,,,,,,,,,,,,,0,0,0,0,0,22,22,22,,,,,,,,,,,,,,,,,,,,,601.6963712247234,,,,,,,,,,,,,,AMP_prac,left,1.3172425759548787,6,,,left,0.46597351647506,,,,,,,,,,,,,,,,,,,,,,,,,1016,2019_May_17_1256,mf_amp_cond1,3.0.7,59.98182042445167,
spynze,&&&&&&,images/symbols/symbol_43.png,condition_files/AMP_rep1.csv,None,nonword,,,,,,,,,,,,,,0,0,0,0,0,23,23,23,,,,,,,,,,,,,,,,,,,,,602.3632264774933,,,,,,,,,,,,,,AMP_prac,left,1.3172425759548787,6,,,left,0.43367237139318604,,,,,,,,,,,,,,,,,,,,,,,,,1016,2019_May_17_1256,mf_amp_cond1,3.0.7,59.98182042445167,
army,&&&&,images/symbols/symbol_33.png,condition_files/AMP_rep1.csv,right,loyalty.vice,,,,,,,,,,,,,,0,0,0,0,0,24,24,24,,,,,,,,,,,,,,,,,,,,,603.0300624867959,,,,,,,,,,,,,,AMP_prac,left,1.3172425759548787,6,,,left,0.4485491858504247,,,,,,,,,,,,,,,,,,,,,,,,,1016,2019_May_17_1256,mf_amp_cond1,3.0.7,59.98182042445167,
rejected,&&&&&&&&,images/symbols/symbol_10.png,condition_files/AMP_rep1.csv,right,authority.vice,,,,,,,,,,,,,,0,0,0,0,0,25,25,25,,,,,,,,,,,,,,,,,,,,,603.9303116578085,,,,,,,,,,,,,,AMP_prac,left,1.3172425759548787,6,,,right,0.6827939866780071,,,,,,,,,,,,,,,,,,,,,,,,,1016,2019_May_17_1256,mf_amp_cond1,3.0.7,59.98182042445167,
loyalty,&&&&&&&,images/symbols/symbol_52.png,condition_files/AMP_rep1.csv,left,loyalty.virtue,,,,,,,,,,,,,,0,0,0,0,0,26,26,26,,,,,,,,,,,,,,,,,,,,,604.680502729534,,,,,,,,,,,,,,AMP_prac,left,1.3172425759548787,6,,,right,0.5170280752790859,,,,,,,,,,,,,,,,,,,,,,,,,1016,2019_May_17_1256,mf_amp_cond1,3.0.7,59.98182042445167,
integrity,&&&&&&&&&,images/symbols/symbol_20.png,condition_files/AMP_rep1.csv,left,fairness.virtue,,,,,,,,,,,,,,0,0,0,0,0,27,27,27,,,,,,,,,,,,,,,,,,,,,605.4640395466413,,,,,,,,,,,,,,AMP_prac,left,1.3172425759548787,6,,,left,0.5655838680686429,,,,,,,,,,,,,,,,,,,,,,,,,1016,2019_May_17_1256,mf_amp_cond1,3.0.7,59.98182042445167,
noost,&&&&&,images/symbols/symbol_61.png,condition_files/AMP_rep1.csv,None,nonword,,,,,,,,,,,,,,0,0,0,0,0,28,28,28,,,,,,,,,,,,,,,,,,,,,606.2309028496093,,,,,,,,,,,,,,AMP_prac,left,1.3172425759548787,6,,,left,0.549402024858864,,,,,,,,,,,,,,,,,,,,,,,,,1016,2019_May_17_1256,mf_amp_cond1,3.0.7,59.98182042445167,
illegal,&&&&&&&,images/symbols/symbol_7.png,condition_files/AMP_rep1.csv,right,fairness.vice,,,,,,,,,,,,,,0,0,0,0,0,29,29,29,,,,,,,,,,,,,,,,,,,,,606.9477901908976,,,,,,,,,,,,,,AMP_prac,left,1.3172425759548787,6,,,left,0.4995145831926493,,,,,,,,,,,,,,,,,,,,,,,,,1016,2019_May_17_1256,mf_amp_cond1,3.0.7,59.98182042445167,
lies,&&&&,images/symbols/symbol_29.png,condition_files/AMP_rep1.csv,right,fairness.vice,,,,,,,,,,,,,,0,0,0,0,0,30,30,30,,,,,,,,,,,,,,,,,,,,,607.9313427876623,,,,,,,,,,,,,,AMP_prac,left,1.3172425759548787,6,,,right,0.7657510297722183,,,,,,,,,,,,,,,,,,,,,,,,,1016,2019_May_17_1256,mf_amp_cond1,3.0.7,59.98182042445167,
critics,&&&&&&&,images/symbols/symbol_69.png,condition_files/AMP_rep1.csv,right,loyalty.vice,,,,,,,,,,,,,,0,0,0,0,0,31,31,31,,,,,,,,,,,,,,,,,,,,,608.7982462132932,,,,,,,,,,,,,,AMP_prac,left,1.3172425759548787,6,,,right,0.6493279695423553,,,,,,,,,,,,,,,,,,,,,,,,,1016,2019_May_17_1256,mf_amp_cond1,3.0.7,59.98182042445167,
accused,&&&&&&&,images/symbols/symbol_1.png,condition_files/AMP_rep1.csv,right,fairness.vice,,,,,,,,,,,,,,0,0,0,0,0,32,32,32,,,,,,,,,,,,,,,,,,,,,609.5317676195846,,,,,,,,,,,,,,AMP_prac,left,1.3172425759548787,6,,,left,0.5158025862619979,,,,,,,,,,,,,,,,,,,,,,,,,1016,2019_May_17_1256,mf_amp_cond1,3.0.7,59.98182042445167,
civilians,&&&&&&&&&,images/symbols/symbol_17.png,condition_files/AMP_rep1.csv,right,care.vice,,,,,,,,,,,,,,0,0,0,0,0,33,33,33,,,,,,,,,,,,,,,,,,,,,610.5153577411256,,,,,,,,,,,,,,AMP_prac,left,1.3172425759548787,6,,,right,0.7660589254664956,,,,,,,,,,,,,,,,,,,,,,,,,1016,2019_May_17_1256,mf_amp_cond1,3.0.7,59.98182042445167,
shot,&&&&,images/symbols/symbol_78.png,condition_files/AMP_rep1.csv,right,care.vice,,,,,,,,,,,,,,0,0,0,0,0,34,34,34,,,,,,,,,,,,,,,,,,,,,611.2322508554644,,,,,,,,,,,,,,AMP_prac,left,1.3172425759548787,6,,,right,0.49934299547749106,,,,,,,,,,,,,,,,,,,,,,,,,1016,2019_May_17_1256,mf_amp_cond1,3.0.7,59.98182042445167,
blamed,&&&&&&,images/symbols/symbol_8.png,condition_files/AMP_rep1.csv,right,loyalty.vice,,,,,,,,,,,,,,0,0,0,0,0,35,35,35,,,,,,,,,,,,,,,,,,,,,611.899053830115,,,,,,,,,,,,,,AMP_prac,left,1.3172425759548787,6,,,right,0.44929038059490267,,,,,,,,,,,,,,,,,,,,,,,,,1016,2019_May_17_1256,mf_amp_cond1,3.0.7,59.98182042445167,
respect,&&&&&&&,images/symbols/symbol_27.png,condition_files/AMP_rep1.csv,left,sanctity.virtue,,,,,,,,,,,,,,0,0,0,0,0,36,36,36,,,,,,,,,,,,,,,,,,,,,612.5659251191391,,,,,,,,,,,,,,AMP_prac,left,1.3172425759548787,6,,,left,0.4492477242165478,,,,,,,,,,,,,,,,,,,,,,,,,1016,2019_May_17_1256,mf_amp_cond1,3.0.7,59.98182042445167,
unpleasant,&&&&&&&&&,images/symbols/symbol_16.png,condition_files/AMP_rep1.csv,left,control,,,,,,,,,,,,,,0,0,0,0,0,37,37,37,,,,,,,,,,,,,,,,,,,,,614.1663393671333,,,,,,,,,,,,,,AMP_prac,left,1.3172425759548787,6,,,left,1.3831720248563215,,,,,,,,,,,,,,,,,,,,,,,,,1016,2019_May_17_1256,mf_amp_cond1,3.0.7,59.98182042445167,
progress,&&&&&&&&,images/symbols/symbol_42.png,condition_files/AMP_rep1.csv,left,authority.virtue,,,,,,,,,,,,,,0,0,0,0,0,38,38,38,,,,,,,,,,,,,,,,,,,,,615.1499269228807,,,,,,,,,,,,,,AMP_prac,left,1.3172425759548787,6,,,left,0.7657882338389754,,,,,,,,,,,,,,,,,,,,,,,,,1016,2019_May_17_1256,mf_amp_cond1,3.0.7,59.98182042445167,
strength,&&&&&&&&,images/symbols/symbol_45.png,condition_files/AMP_rep1.csv,left,sanctity.virtue,,,,,,,,,,,,,,0,0,0,0,0,39,39,39,,,,,,,,,,,,,,,,,,,,,615.8834342172922,,,,,,,,,,,,,,AMP_prac,left,1.3172425759548787,6,,,left,0.5160184339620173,,,,,,,,,,,,,,,,,,,,,,,,,1016,2019_May_17_1256,mf_amp_cond1,3.0.7,59.98182042445167,
crarft,&&&&&&,images/symbols/symbol_71.png,condition_files/AMP_rep1.csv,None,nonword,,,,,,,,,,,,,,0,0,0,0,0,40,40,40,,,,,,,,,,,,,,,,,,,,,616.7336833722657,,,,,,,,,,,,,,AMP_prac,left,1.3172425759548787,6,,,right,0.6170733295293758,,,,,,,,,,,,,,,,,,,,,,,,,1016,2019_May_17_1256,mf_amp_cond1,3.0.7,59.98182042445167,
betrayal,&&&&&&&&,images/symbols/symbol_15.png,condition_files/AMP_rep1.csv,right,loyalty.vice,,,,,,,,,,,,,,0,0,0,0,0,41,41,41,,,,,,,,,,,,,,,,,,,,,617.8339435120579,,,,,,,,,,,,,,AMP_prac,left,1.3172425759548787,6,,,left,0.8819402817025548,,,,,,,,,,,,,,,,,,,,,,,,,1016,2019_May_17_1256,mf_amp_cond1,3.0.7,59.98182042445167,
police,&&&&&&,images/symbols/symbol_68.png,condition_files/AMP_rep1.csv,right,authority.vice,,,,,,,,,,,,,,0,0,0,0,0,42,42,42,,,,,,,,,,,,,,,,,,,,,618.8175342750474,,,,,,,,,,,,,,AMP_prac,left,1.3172425759548787,6,,,left,0.7504239178524585,,,,,,,,,,,,,,,,,,,,,,,,,1016,2019_May_17_1256,mf_amp_cond1,3.0.7,59.98182042445167,
refused,&&&&&&&,images/symbols/symbol_35.png,condition_files/AMP_rep1.csv,right,authority.vice,,,,,,,,,,,,,,0,0,0,0,0,43,43,43,,,,,,,,,,,,,,,,,,,,,620.1012030703714,,,,,,,,,,,,,,AMP_prac,left,1.3172425759548787,6,,,right,1.065438098696177,,,,,,,,,,,,,,,,,,,,,,,,,1016,2019_May_17_1256,mf_amp_cond1,3.0.7,59.98182042445167,
daizz,&&&&&,images/symbols/symbol_6.png,condition_files/AMP_rep1.csv,None,nonword,,,,,,,,,,,,,,0,0,0,0,0,44,44,44,,,,,,,,,,,,,,,,,,,,,620.9347533739492,,,,,,,,,,,,,,AMP_prac,left,1.3172425759548787,6,,,left,0.6003857035102556,,,,,,,,,,,,,,,,,,,,,,,,,1016,2019_May_17_1256,mf_amp_cond1,3.0.7,59.98182042445167,
serial,&&&&&&,images/symbols/symbol_12.png,condition_files/AMP_rep1.csv,right,sanctity.vice,,,,,,,,,,,,,,0,0,0,0,0,45,45,45,,,,,,,,,,,,,,,,,,,,,621.7016160354688,,,,,,,,,,,,,,AMP_prac,left,1.3172425759548787,6,,,left,0.5487455014372244,,,,,,,,,,,,,,,,,,,,,,,,,1016,2019_May_17_1256,mf_amp_cond1,3.0.7,59.98182042445167,
forced,&&&&&&,images/symbols/symbol_30.png,condition_files/AMP_rep1.csv,right,fairness.vice,,,,,,,,,,,,,,0,0,0,0,0,46,46,46,,,,,,,,,,,,,,,,,,,,,622.5518488334783,,,,,,,,,,,,,,AMP_prac,left,1.3172425759548787,6,,,left,0.6328709445660934,,,,,,,,,,,,,,,,,,,,,,,,,1016,2019_May_17_1256,mf_amp_cond1,3.0.7,59.98182042445167,
increase,&&&&&&&&,images/symbols/symbol_81.png,condition_files/AMP_rep1.csv,left,care.virtue,,,,,,,,,,,,,,0,0,0,0,0,47,47,47,,,,,,,,,,,,,,,,,,,,,623.368732678864,,,,,,,,,,,,,,AMP_prac,left,1.3172425759548787,6,,,right,0.5993103136424907,,,,,,,,,,,,,,,,,,,,,,,,,1016,2019_May_17_1256,mf_amp_cond1,3.0.7,59.98182042445167,
snoze,&&&&&,images/symbols/symbol_25.png,condition_files/AMP_rep1.csv,None,nonword,,,,,,,,,,,,,,0,0,0,0,0,48,48,48,,,,,,,,,,,,,,,,,,,,,624.1523034927959,,,,,,,,,,,,,,AMP_prac,left,1.3172425759548787,6,,,left,0.565512667177245,,,,,,,,,,,,,,,,,,,,,,,,,1016,2019_May_17_1256,mf_amp_cond1,3.0.7,59.98182042445167,
conspiracy,&&&&&&&&&&,images/symbols/symbol_79.png,condition_files/AMP_rep1.csv,right,sanctity.vice,,,,,,,,,,,,,,0,0,0,0,0,49,49,49,,,,,,,,,,,,,,,,,,,,,625.1358644284046,,,,,,,,,,,,,,AMP_prac,left,1.3172425759548787,6,,,left,0.7656952236720826,,,,,,,,,,,,,,,,,,,,,,,,,1016,2019_May_17_1256,mf_amp_cond1,3.0.7,59.98182042445167,
racist,&&&&&&,images/symbols/symbol_34.png,condition_files/AMP_rep1.csv,right,sanctity.vice,,,,,,,,,,,,,,0,0,0,0,0,50,50,50,,,,,,,,,,,,,,,,,,,,,625.8527559391077,,,,,,,,,,,,,,AMP_prac,left,1.3172425759548787,6,,,left,0.4990046309394529,,,,,,,,,,,,,,,,,,,,,,,,,1016,2019_May_17_1256,mf_amp_cond1,3.0.7,59.98182042445167,
opportunity,&&&&&&&&&&&,images/symbols/symbol_36.png,condition_files/AMP_rep1.csv,left,fairness.virtue,,,,,,,,,,,,,,0,0,0,0,0,51,51,51,,,,,,,,,,,,,,,,,,,,,626.5862433485745,,,,,,,,,,,,,,AMP_prac,left,1.3172425759548787,6,,,left,0.5158333758299705,,,,,,,,,,,,,,,,,,,,,,,,,1016,2019_May_17_1256,mf_amp_cond1,3.0.7,59.98182042445167,
officers,&&&&&&&&,images/symbols/symbol_23.png,condition_files/AMP_rep1.csv,right,authority.vice,,,,,,,,,,,,,,0,0,0,0,0,52,52,52,,,,,,,,,,,,,,,,,,,,,627.2697727569466,,,,,,,,,,,,,,AMP_prac,left,1.3172425759548787,6,,,left,0.4659068057371769,,,,,,,,,,,,,,,,,,,,,,,,,1016,2019_May_17_1256,mf_amp_cond1,3.0.7,59.98182042445167,
cifte,&&&&&,images/symbols/symbol_67.png,condition_files/AMP_rep1.csv,None,nonword,,,,,,,,,,,,,,0,0,0,0,0,53,53,53,,,,,,,,,,,,,,,,,,,,,628.0866482634883,,,,,,,,,,,,,,AMP_prac,left,1.3172425759548787,6,,,left,0.5837301499559544,,,,,,,,,,,,,,,,,,,,,,,,,1016,2019_May_17_1256,mf_amp_cond1,3.0.7,59.98182042445167,
safety,&&&&&&,images/symbols/symbol_62.png,condition_files/AMP_rep1.csv,left,care.virtue,,,,,,,,,,,,,,0,0,0,0,0,54,54,54,,,,,,,,,,,,,,,,,,,,,628.8201946862973,,,,,,,,,,,,,,AMP_prac,left,1.3172425759548787,6,,,left,0.5004219133261358,,,,,,,,,,,,,,,,,,,,,,,,,1016,2019_May_17_1256,mf_amp_cond1,3.0.7,59.98182042445167,
scandal,&&&&&&&,images/symbols/symbol_4.png,condition_files/AMP_rep1.csv,right,sanctity.vice,,,,,,,,,,,,,,0,0,0,0,0,55,55,55,,,,,,,,,,,,,,,,,,,,,630.02048596846,,,,,,,,,,,,,,AMP_prac,left,1.3172425759548787,6,,,left,0.9823716884857276,,,,,,,,,,,,,,,,,,,,,,,,,1016,2019_May_17_1256,mf_amp_cond1,3.0.7,59.98182042445167,
clean,&&&&&,images/symbols/symbol_9.png,condition_files/AMP_rep1.csv,left,sanctity.virtue,,,,,,,,,,,,,,0,0,0,0,0,56,56,56,,,,,,,,,,,,,,,,,,,,,630.8372681441251,,,,,,,,,,,,,,AMP_prac,left,1.3172425759548787,6,,,left,0.5992820898682112,,,,,,,,,,,,,,,,,,,,,,,,,1016,2019_May_17_1256,mf_amp_cond1,3.0.7,59.98182042445167,
hope,&&&&,images/symbols/symbol_55.png,condition_files/AMP_rep1.csv,left,loyalty.virtue,,,,,,,,,,,,,,0,0,0,0,0,57,57,57,,,,,,,,,,,,,,,,,,,,,631.570894106655,,,,,,,,,,,,,,AMP_prac,left,1.3172425759548787,6,,,left,0.5159097083087545,,,,,,,,,,,,,,,,,,,,,,,,,1016,2019_May_17_1256,mf_amp_cond1,3.0.7,59.98182042445167,
failure,&&&&&&&,images/symbols/symbol_39.png,condition_files/AMP_rep1.csv,right,loyalty.vice,,,,,,,,,,,,,,0,0,0,0,0,58,58,58,,,,,,,,,,,,,,,,,,,,,632.3544142460887,,,,,,,,,,,,,,AMP_prac,left,1.3172425759548787,6,,,left,0.5659825288457796,,,,,,,,,,,,,,,,,,,,,,,,,1016,2019_May_17_1256,mf_amp_cond1,3.0.7,59.98182042445167,
pleasant,&&&&&&&,images/symbols/symbol_24.png,condition_files/AMP_rep1.csv,right,control,,,,,,,,,,,,,,0,0,0,0,0,59,59,59,,,,,,,,,,,,,,,,,,,,,633.1212849257281,,,,,,,,,,,,,,AMP_prac,left,1.3172425759548787,6,,,left,0.5336910055048065,,,,,,,,,,,,,,,,,,,,,,,,,1016,2019_May_17_1256,mf_amp_cond1,3.0.7,59.98182042445167,
violence,&&&&&&&&,images/symbols/symbol_72.png,condition_files/AMP_rep1.csv,right,care.vice,,,,,,,,,,,,,,0,0,0,0,0,60,60,60,,,,,,,,,,,,,,,,,,,,,633.7881318396685,,,,,,,,,,,,,,AMP_prac,left,1.3172425759548787,6,,,left,0.4488853053189814,,,,,,,,,,,,,,,,,,,,,,,,,1016,2019_May_17_1256,mf_amp_cond1,3.0.7,59.98182042445167,
restore,&&&&&&&,images/symbols/symbol_38.png,condition_files/AMP_rep1.csv,left,care.virtue,,,,,,,,,,,,,,0,0,0,0,0,61,61,61,,,,,,,,,,,,,,,,,,,,,634.6550272471795,,,,,,,,,,,,,,AMP_prac,left,1.3172425759548787,6,,,right,0.649448882744764,,,,,,,,,,,,,,,,,,,,,,,,,1016,2019_May_17_1256,mf_amp_cond1,3.0.7,59.98182042445167,
yeussed,&&&&&&&,images/symbols/symbol_54.png,condition_files/AMP_rep1.csv,None,nonword,,,,,,,,,,,,,,0,0,0,0,0,62,62,62,,,,,,,,,,,,,,,,,,,,,635.3218661430001,,,,,,,,,,,,,,AMP_prac,left,1.3172425759548787,6,,,left,0.4491447715990944,,,,,,,,,,,,,,,,,,,,,,,,,1016,2019_May_17_1256,mf_amp_cond1,3.0.7,59.98182042445167,
corruption,&&&&&&&&&&,images/symbols/symbol_3.png,condition_files/AMP_rep1.csv,right,sanctity.vice,,,,,,,,,,,,,,0,0,0,0,0,63,63,63,,,,,,,,,,,,,,,,,,,,,636.3721535283403,,,,,,,,,,,,,,AMP_prac,left,1.3172425759548787,6,,,left,0.8327988456439925,,,,,,,,,,,,,,,,,,,,,,,,,1016,2019_May_17_1256,mf_amp_cond1,3.0.7,59.98182042445167,
killed,&&&&&&,images/symbols/symbol_48.png,condition_files/AMP_rep1.csv,right,care.vice,,,,,,,,,,,,,,0,0,0,0,0,64,64,64,,,,,,,,,,,,,,,,,,,,,637.0556604859885,,,,,,,,,,,,,,AMP_prac,left,1.3172425759548787,6,,,left,0.46595106575114187,,,,,,,,,,,,,,,,,,,,,,,,,1016,2019_May_17_1256,mf_amp_cond1,3.0.7,59.98182042445167,
died,&&&&,images/symbols/symbol_21.png,condition_files/AMP_rep1.csv,right,care.vice,,,,,,,,,,,,,,0,0,0,0,0,65,65,65,,,,,,,,,,,,,,,,,,,,,638.0559238009591,,,,,,,,,,,,,,AMP_prac,left,1.3172425759548787,6,,,left,0.7830069799383637,,,,,,,,,,,,,,,,,,,,,,,,,1016,2019_May_17_1256,mf_amp_cond1,3.0.7,59.98182042445167,
crime,&&&&&,images/symbols/symbol_18.png,condition_files/AMP_rep1.csv,right,fairness.vice,,,,,,,,,,,,,,0,0,0,0,0,66,66,66,,,,,,,,,,,,,,,,,,,,,638.8728012318461,,,,,,,,,,,,,,AMP_prac,left,1.3172425759548787,6,,,right,0.5837189245794434,,,,,,,,,,,,,,,,,,,,,,,,,1016,2019_May_17_1256,mf_amp_cond1,3.0.7,59.98182042445167,
safe,&&&&,images/symbols/symbol_74.png,condition_files/AMP_rep1.csv,left,care.virtue,,,,,,,,,,,,,,0,0,0,0,0,67,67,67,,,,,,,,,,,,,,,,,,,,,639.7730706085131,,,,,,,,,,,,,,AMP_prac,left,1.3172425759548787,6,,,right,0.6670900232420536,,,,,,,,,,,,,,,,,,,,,,,,,1016,2019_May_17_1256,mf_amp_cond1,3.0.7,59.98182042445167,
free,&&&&,images/symbols/symbol_59.png,condition_files/AMP_rep1.csv,left,fairness.virtue,,,,,,,,,,,,,,0,0,0,0,0,68,68,68,,,,,,,,,,,,,,,,,,,,,640.4898886732553,,,,,,,,,,,,,,AMP_prac,left,1.3172425759548787,6,,,left,0.48368714077514596,,,,,,,,,,,,,,,,,,,,,,,,,1016,2019_May_17_1256,mf_amp_cond1,3.0.7,59.98182042445167,
praised,&&&&&&&,images/symbols/symbol_31.png,condition_files/AMP_rep1.csv,left,loyalty.virtue,,,,,,,,,,,,,,0,0,0,0,0,69,69,69,,,,,,,,,,,,,,,,,,,,,641.423466270513,,,,,,,,,,,,,,AMP_prac,left,1.3172425759548787,6,,,left,0.7165813699248247,,,,,,,,,,,,,,,,,,,,,,,,,1016,2019_May_17_1256,mf_amp_cond1,3.0.7,59.98182042445167,
death,&&&&&,images/symbols/symbol_64.png,condition_files/AMP_rep1.csv,right,care.vice,,,,,,,,,,,,,,0,0,0,0,0,70,70,70,,,,,,,,,,,,,,,,,,,,,642.4237395279488,,,,,,,,,,,,,,AMP_prac,left,1.3172425759548787,6,,,right,0.782668294661562,,,,,,,,,,,,,,,,,,,,,,,,,1016,2019_May_17_1256,mf_amp_cond1,3.0.7,59.98182042445167,
treas,&&&&&,images/symbols/symbol_82.png,condition_files/AMP_rep1.csv,None,nonword,,,,,,,,,,,,,,0,0,0,0,0,71,71,71,,,,,,,,,,,,,,,,,,,,,643.2906185784959,,,,,,,,,,,,,,AMP_prac,left,1.3172425759548787,6,,,left,0.6337211856880458,,,,,,,,,,,,,,,,,,,,,,,,,1016,2019_May_17_1256,mf_amp_cond1,3.0.7,59.98182042445167,
ability,&&&&&&&,images/symbols/symbol_53.png,condition_files/AMP_rep1.csv,left,authority.virtue,,,,,,,,,,,,,,0,0,0,0,0,72,72,72,,,,,,,,,,,,,,,,,,,,,643.9908028989739,,,,,,,,,,,,,,AMP_prac,left,1.3172425759548787,6,,,left,0.4822887811460532,,,,,,,,,,,,,,,,,,,,,,,,,1016,2019_May_17_1256,mf_amp_cond1,3.0.7,59.98182042445167,
win,&&&,images/symbols/symbol_75.png,condition_files/AMP_rep1.csv,left,fairness.virtue,,,,,,,,,,,,,,0,0,0,0,0,73,73,73,,,,,,,,,,,,,,,,,,,,,644.9577413156658,,,,,,,,,,,,,,AMP_prac,left,1.3172425759548787,6,,,right,0.7492526312998962,,,,,,,,,,,,,,,,,,,,,,,,,1016,2019_May_17_1256,mf_amp_cond1,3.0.7,59.98182042445167,
ban,&&&,images/symbols/symbol_14.png,condition_files/AMP_rep1.csv,right,loyalty.vice,,,,,,,,,,,,,,0,0,0,0,0,74,74,74,,,,,,,,,,,,,,,,,,,,,645.8412961254216,,,,,,,,,,,,,,AMP_prac,left,1.3172425759548787,6,,,left,0.666025538026588,,,,,,,,,,,,,,,,,,,,,,,,,1016,2019_May_17_1256,mf_amp_cond1,3.0.7,59.98182042445167,
faith,&&&&&,images/symbols/symbol_60.png,condition_files/AMP_rep1.csv,left,sanctity.virtue,,,,,,,,,,,,,,0,0,0,0,0,75,75,75,,,,,,,,,,,,,,,,,,,,,646.4914608656691,,,,,,,,,,,,,,AMP_prac,left,1.3172425759548787,6,,,left,0.43256747486884706,,,,,,,,,,,,,,,,,,,,,,,,,1016,2019_May_17_1256,mf_amp_cond1,3.0.7,59.98182042445167,
sharing,&&&&&&&,images/symbols/symbol_57.png,condition_files/AMP_rep1.csv,left,loyalty.virtue,,,,,,,,,,,,,,0,0,0,0,0,76,76,76,,,,,,,,,,,,,,,,,,,,,647.1083311764669,,,,,,,,,,,,,,AMP_prac,left,1.3172425759548787,6,,,left,0.3994661216856912,,,,,,,,,,,,,,,,,,,,,,,,,1016,2019_May_17_1256,mf_amp_cond1,3.0.7,59.98182042445167,
groups,&&&&&&,images/symbols/symbol_77.png,condition_files/AMP_rep1.csv,right,loyalty.vice,,,,,,,,,,,,,,0,0,0,0,0,77,77,77,,,,,,,,,,,,,,,,,,,,,647.7417890471988,,,,,,,,,,,,,,AMP_prac,left,1.3172425759548787,6,,,left,0.415929240436526,,,,,,,,,,,,,,,,,,,,,,,,,1016,2019_May_17_1256,mf_amp_cond1,3.0.7,59.98182042445167,
peizz,&&&&&,images/symbols/symbol_66.png,condition_files/AMP_rep1.csv,None,nonword,,,,,,,,,,,,,,0,0,0,0,0,78,78,78,,,,,,,,,,,,,,,,,,,,,648.408633395331,,,,,,,,,,,,,,AMP_prac,left,1.3172425759548787,6,,,left,0.44938691874267533,,,,,,,,,,,,,,,,,,,,,,,,,1016,2019_May_17_1256,mf_amp_cond1,3.0.7,59.98182042445167,
growth,&&&&&&,images/symbols/symbol_40.png,condition_files/AMP_rep1.csv,left,care.virtue,,,,,,,,,,,,,,0,0,0,0,0,79,79,79,,,,,,,,,,,,,,,,,,,,,649.1588247877953,,,,,,,,,,,,,,AMP_prac,left,1.3172425759548787,6,,,right,0.5325963721552398,,,,,,,,,,,,,,,,,,,,,,,,,1016,2019_May_17_1256,mf_amp_cond1,3.0.7,59.98182042445167,
trust,&&&&&,images/symbols/symbol_70.png,condition_files/AMP_rep1.csv,left,authority.virtue,,,,,,,,,,,,,,0,0,0,0,0,80,80,80,,,,,,,,,,,,,,,,,,,,,650.05907716605,,,,,,,,,,,,,,AMP_prac,left,1.3172425759548787,6,,,right,0.6828315114544239,,,,,,,,,,,,,,,,,,,,,,,,,1016,2019_May_17_1256,mf_amp_cond1,3.0.7,59.98182042445167,
freedom,&&&&&&&,images/symbols/symbol_44.png,condition_files/AMP_rep1.csv,left,sanctity.virtue,,,,,,,,,,,,,,0,0,0,0,0,81,81,81,,,,,,,,,,,,,,,,,,,,,650.8426008334354,,,,,,,,,,,,,,AMP_prac,left,1.3172425759548787,6,,,right,0.5659020269522443,,,,,,,,,,,,,,,,,,,,,,,,,1016,2019_May_17_1256,mf_amp_cond1,3.0.7,59.98182042445167,
,,,condition_files/AMP_rep1.csv,,,,,,,,,,,,,,,,0,0,0,0,,,,,,,,,,,,,,,,,,,,,,,,,,,,,,,,,,,,,,,,,,,,,,,right,3.9846215721336193,,,,,,,,,,,,,,,,,,,,,,,1016,2019_May_17_1256,mf_amp_cond1,3.0.7,59.98182042445167,
love,&&&&,images/symbols/symbol_11.png,condition_files/AMP_rep3.csv,left,loyalty.virtue,,,,,,,,,,,,,,0,1,1,2,0,0,0,0,,,,,,,,,,,,,,,,,,,,,655.8607548127184,,,,,,,,,,,,,,AMP_prac,left,1.3172425759548787,6,,,left,0.7990621368808206,,,,,,,,,,,,,,,,,,,,,,,,,1016,2019_May_17_1256,mf_amp_cond1,3.0.7,59.98182042445167,
energy,&&&&&&,images/symbols/symbol_80.png,condition_files/AMP_rep3.csv,left,sanctity.virtue,,,,,,,,,,,,,,0,1,1,2,0,1,1,1,,,,,,,,,,,,,,,,,,,,,656.660817289885,,,,,,,,,,,,,,AMP_prac,left,1.3172425759548787,6,,,left,0.583098643051926,,,,,,,,,,,,,,,,,,,,,,,,,1016,2019_May_17_1256,mf_amp_cond1,3.0.7,59.98182042445167,
fighters,&&&&&&&&,images/symbols/symbol_49.png,condition_files/AMP_rep3.csv,right,authority.vice,,,,,,,,,,,,,,0,1,1,2,0,2,2,2,,,,,,,,,,,,,,,,,,,,,657.4109952119034,,,,,,,,,,,,,,AMP_prac,left,1.3172425759548787,6,,,left,0.5170354519505054,,,,,,,,,,,,,,,,,,,,,,,,,1016,2019_May_17_1256,mf_amp_cond1,3.0.7,59.98182042445167,
honored,&&&&&&&,images/symbols/symbol_2.png,condition_files/AMP_rep3.csv,left,authority.virtue,,,,,,,,,,,,,,0,1,1,2,0,3,3,3,,,,,,,,,,,,,,,,,,,,,658.1111798531056,,,,,,,,,,,,,,AMP_prac,left,1.3172425759548787,6,,,left,0.4822313714248594,,,,,,,,,,,,,,,,,,,,,,,,,1016,2019_May_17_1256,mf_amp_cond1,3.0.7,59.98182042445167,
encourage,&&&&&&&&&,images/symbols/symbol_37.png,condition_files/AMP_rep3.csv,left,authority.virtue,,,,,,,,,,,,,,0,1,1,2,0,4,4,4,,,,,,,,,,,,,,,,,,,,,658.9113812040596,,,,,,,,,,,,,,AMP_prac,left,1.3172425759548787,6,,,left,0.5824379502009833,,,,,,,,,,,,,,,,,,,,,,,,,1016,2019_May_17_1256,mf_amp_cond1,3.0.7,59.98182042445167,
prison,&&&&&&,images/symbols/symbol_76.png,condition_files/AMP_rep3.csv,right,fairness.vice,,,,,,,,,,,,,,0,1,1,2,0,5,5,5,,,,,,,,,,,,,,,,,,,,,659.6615889534733,,,,,,,,,,,,,,AMP_prac,left,1.3172425759548787,6,,,left,0.5330989477370167,,,,,,,,,,,,,,,,,,,,,,,,,1016,2019_May_17_1256,mf_amp_cond1,3.0.7,59.98182042445167,
gun,&&&,images/symbols/symbol_13.png,condition_files/AMP_rep3.csv,right,authority.vice,,,,,,,,,,,,,,0,1,1,2,0,6,6,6,,,,,,,,,,,,,,,,,,,,,660.8119190272846,,,,,,,,,,,,,,AMP_prac,left,1.3172425759548787,6,,,right,0.9327783513435861,,,,,,,,,,,,,,,,,,,,,,,,,1016,2019_May_17_1256,mf_amp_cond1,3.0.7,59.98182042445167,
friends,&&&&&&&,images/symbols/symbol_63.png,condition_files/AMP_rep3.csv,left,loyalty.virtue,,,,,,,,,,,,,,0,1,1,2,0,7,7,7,,,,,,,,,,,,,,,,,,,,,662.6123907491565,,,,,,,,,,,,,,AMP_prac,left,1.3172425759548787,6,,,right,1.5673112912190845,,,,,,,,,,,,,,,,,,,,,,,,,1016,2019_May_17_1256,mf_amp_cond1,3.0.7,59.98182042445167,
stealde,&&&&&&&,images/symbols/symbol_22.png,condition_files/AMP_rep3.csv,None,nonword,,,,,,,,,,,,,,0,1,1,2,0,8,8,8,,,,,,,,,,,,,,,,,,,,,663.4625847394782,,,,,,,,,,,,,,AMP_prac,left,1.3172425759548787,6,,,left,0.6318946586106904,,,,,,,,,,,,,,,,,,,,,,,,,1016,2019_May_17_1256,mf_amp_cond1,3.0.7,59.98182042445167,
victims,&&&&&&&,images/symbols/symbol_41.png,condition_files/AMP_rep3.csv,right,care.vice,,,,,,,,,,,,,,0,1,1,2,0,9,9,9,,,,,,,,,,,,,,,,,,,,,664.4961921961949,,,,,,,,,,,,,,AMP_prac,left,1.3172425759548787,6,,,left,0.8165413114184048,,,,,,,,,,,,,,,,,,,,,,,,,1016,2019_May_17_1256,mf_amp_cond1,3.0.7,59.98182042445167,
violations,&&&&&&&&&&,images/symbols/symbol_28.png,condition_files/AMP_rep3.csv,right,sanctity.vice,,,,,,,,,,,,,,0,1,1,2,0,10,10,10,,,,,,,,,,,,,,,,,,,,,665.3297412168758,,,,,,,,,,,,,,AMP_prac,left,1.3172425759548787,6,,,right,0.6160806866391795,,,,,,,,,,,,,,,,,,,,,,,,,1016,2019_May_17_1256,mf_amp_cond1,3.0.7,59.98182042445167,
protect,&&&&&&&,images/symbols/symbol_19.png,condition_files/AMP_rep3.csv,left,fairness.virtue,,,,,,,,,,,,,,0,1,1,2,0,11,11,11,,,,,,,,,,,,,,,,,,,,,666.1299441714655,,,,,,,,,,,,,,AMP_prac,left,1.3172425759548787,6,,,left,0.582735903430148,,,,,,,,,,,,,,,,,,,,,,,,,1016,2019_May_17_1256,mf_amp_cond1,3.0.7,59.98182042445167,
celebrated,&&&&&&&&&&,images/symbols/symbol_51.png,condition_files/AMP_rep3.csv,left,authority.virtue,,,,,,,,,,,,,,0,1,1,2,0,12,12,12,,,,,,,,,,,,,,,,,,,,,666.8968206241407,,,,,,,,,,,,,,AMP_prac,left,1.3172425759548787,6,,,left,0.5498366068059113,,,,,,,,,,,,,,,,,,,,,,,,,1016,2019_May_17_1256,mf_amp_cond1,3.0.7,59.98182042445167,
threatened,&&&&&&&&&&,images/symbols/symbol_56.png,condition_files/AMP_rep3.csv,right,fairness.vice,,,,,,,,,,,,,,0,1,1,2,0,13,13,13,,,,,,,,,,,,,,,,,,,,,667.6803606485046,,,,,,,,,,,,,,AMP_prac,left,1.3172425759548787,6,,,right,0.5503834424016532,,,,,,,,,,,,,,,,,,,,,,,,,1016,2019_May_17_1256,mf_amp_cond1,3.0.7,59.98182042445167,
abuse,&&&&&,images/symbols/symbol_65.png,condition_files/AMP_rep3.csv,right,sanctity.vice,,,,,,,,,,,,,,0,1,1,2,0,14,14,14,,,,,,,,,,,,,,,,,,,,,668.6139369628509,,,,,,,,,,,,,,AMP_prac,left,1.3172425759548787,6,,,right,0.7153177146828966,,,,,,,,,,,,,,,,,,,,,,,,,1016,2019_May_17_1256,mf_amp_cond1,3.0.7,59.98182042445167,
promised,&&&&&&&&,images/symbols/symbol_58.png,condition_files/AMP_rep3.csv,left,loyalty.virtue,,,,,,,,,,,,,,0,1,1,2,0,15,15,15,,,,,,,,,,,,,,,,,,,,,669.3808053974208,,,,,,,,,,,,,,AMP_prac,left,1.3172425759548787,6,,,right,0.5494308900815668,,,,,,,,,,,,,,,,,,,,,,,,,1016,2019_May_17_1256,mf_amp_cond1,3.0.7,59.98182042445167,
care,&&&&,images/symbols/symbol_26.png,condition_files/AMP_rep3.csv,left,care.virtue,,,,,,,,,,,,,,0,1,1,2,0,16,16,16,,,,,,,,,,,,,,,,,,,,,670.2810378907452,,,,,,,,,,,,,,AMP_prac,left,1.3172425759548787,6,,,right,0.682653509255033,,,,,,,,,,,,,,,,,,,,,,,,,1016,2019_May_17_1256,mf_amp_cond1,3.0.7,59.98182042445167,
promote,&&&&&&&,images/symbols/symbol_73.png,condition_files/AMP_rep3.csv,left,sanctity.virtue,,,,,,,,,,,,,,0,1,1,2,0,17,17,17,,,,,,,,,,,,,,,,,,,,,670.9812145138276,,,,,,,,,,,,,,AMP_prac,left,1.3172425759548787,6,,,left,0.4825427951000165,,,,,,,,,,,,,,,,,,,,,,,,,1016,2019_May_17_1256,mf_amp_cond1,3.0.7,59.98182042445167,
agreement,&&&&&&&&&,images/symbols/symbol_32.png,condition_files/AMP_rep3.csv,left,fairness.virtue,,,,,,,,,,,,,,0,1,1,2,0,18,18,18,,,,,,,,,,,,,,,,,,,,,671.7147493905504,,,,,,,,,,,,,,AMP_prac,left,1.3172425759548787,6,,,right,0.5160598074580776,,,,,,,,,,,,,,,,,,,,,,,,,1016,2019_May_17_1256,mf_amp_cond1,3.0.7,59.98182042445167,
praise,&&&&&&,images/symbols/symbol_46.png,condition_files/AMP_rep3.csv,left,authority.virtue,,,,,,,,,,,,,,0,1,1,2,0,19,19,19,,,,,,,,,,,,,,,,,,,,,672.4316341660306,,,,,,,,,,,,,,AMP_prac,left,1.3172425759548787,6,,,left,0.4992070082225837,,,,,,,,,,,,,,,,,,,,,,,,,1016,2019_May_17_1256,mf_amp_cond1,3.0.7,59.98182042445167,
compassion,&&&&&&&&&&,images/symbols/symbol_50.png,condition_files/AMP_rep3.csv,left,care.virtue,,,,,,,,,,,,,,0,1,1,2,0,20,20,20,,,,,,,,,,,,,,,,,,,,,673.1984647550853,,,,,,,,,,,,,,AMP_prac,left,1.3172425759548787,6,,,left,0.5491762346937321,,,,,,,,,,,,,,,,,,,,,,,,,1016,2019_May_17_1256,mf_amp_cond1,3.0.7,59.98182042445167,
credit,&&&&&&,images/symbols/symbol_47.png,condition_files/AMP_rep3.csv,left,fairness.virtue,,,,,,,,,,,,,,0,1,1,2,0,21,21,21,,,,,,,,,,,,,,,,,,,,,674.2320802299218,,,,,,,,,,,,,,AMP_prac,left,1.3172425759548787,6,,,left,0.8161230864498066,,,,,,,,,,,,,,,,,,,,,,,,,1016,2019_May_17_1256,mf_amp_cond1,3.0.7,59.98182042445167,
rebels,&&&&&&,images/symbols/symbol_5.png,condition_files/AMP_rep3.csv,right,authority.vice,,,,,,,,,,,,,,0,1,1,2,0,22,22,22,,,,,,,,,,,,,,,,,,,,,675.0322960134945,,,,,,,,,,,,,,AMP_prac,left,1.3172425759548787,6,,,left,0.5828038970648777,,,,,,,,,,,,,,,,,,,,,,,,,1016,2019_May_17_1256,mf_amp_cond1,3.0.7,59.98182042445167,
spynze,&&&&&&,images/symbols/symbol_43.png,condition_files/AMP_rep3.csv,None,nonword,,,,,,,,,,,,,,0,1,1,2,0,23,23,23,,,,,,,,,,,,,,,,,,,,,676.1992556621553,,,,,,,,,,,,,,AMP_prac,left,1.3172425759548787,6,,,right,0.9337940864206757,,,,,,,,,,,,,,,,,,,,,,,,,1016,2019_May_17_1256,mf_amp_cond1,3.0.7,59.98182042445167,
army,&&&&,images/symbols/symbol_33.png,condition_files/AMP_rep3.csv,right,loyalty.vice,,,,,,,,,,,,,,0,1,1,2,0,24,24,24,,,,,,,,,,,,,,,,,,,,,677.2662367673038,,,,,,,,,,,,,,AMP_prac,left,1.3172425759548787,6,,,left,0.8491535594512243,,,,,,,,,,,,,,,,,,,,,,,,,1016,2019_May_17_1256,mf_amp_cond1,3.0.7,59.98182042445167,
rejected,&&&&&&&&,images/symbols/symbol_10.png,condition_files/AMP_rep3.csv,right,authority.vice,,,,,,,,,,,,,,0,1,1,2,0,25,25,25,,,,,,,,,,,,,,,,,,,,,678.2331196986343,,,,,,,,,,,,,,AMP_prac,left,1.3172425759548787,6,,,right,0.7494643095997162,,,,,,,,,,,,,,,,,,,,,,,,,1016,2019_May_17_1256,mf_amp_cond1,3.0.7,59.98182042445167,
loyalty,&&&&&&&,images/symbols/symbol_52.png,condition_files/AMP_rep3.csv,left,loyalty.virtue,,,,,,,,,,,,,,0,1,1,2,0,26,26,26,,,,,,,,,,,,,,,,,,,,,679.2167139896046,,,,,,,,,,,,,,AMP_prac,left,1.3172425759548787,6,,,right,0.7504248800250934,,,,,,,,,,,,,,,,,,,,,,,,,1016,2019_May_17_1256,mf_amp_cond1,3.0.7,59.98182042445167,
integrity,&&&&&&&&&,images/symbols/symbol_20.png,condition_files/AMP_rep3.csv,left,fairness.virtue,,,,,,,,,,,,,,0,1,1,2,0,27,27,27,,,,,,,,,,,,,,,,,,,,,680.066943580372,,,,,,,,,,,,,,AMP_prac,left,1.3172425759548787,6,,,right,0.6323532949172659,,,,,,,,,,,,,,,,,,,,,,,,,1016,2019_May_17_1256,mf_amp_cond1,3.0.7,59.98182042445167,
noost,&&&&&,images/symbols/symbol_61.png,condition_files/AMP_rep3.csv,None,nonword,,,,,,,,,,,,,,0,1,1,2,0,28,28,28,,,,,,,,,,,,,,,,,,,,,680.8505147150136,,,,,,,,,,,,,,AMP_prac,left,1.3172425759548787,6,,,left,0.5661175539280521,,,,,,,,,,,,,,,,,,,,,,,,,1016,2019_May_17_1256,mf_amp_cond1,3.0.7,59.98182042445167,
illegal,&&&&&&&,images/symbols/symbol_7.png,condition_files/AMP_rep3.csv,right,fairness.vice,,,,,,,,,,,,,,0,1,1,2,0,29,29,29,,,,,,,,,,,,,,,,,,,,,682.2341713548667,,,,,,,,,,,,,,AMP_prac,left,1.3172425759548787,6,,,left,1.166147894487949,,,,,,,,,,,,,,,,,,,,,,,,,1016,2019_May_17_1256,mf_amp_cond1,3.0.7,59.98182042445167,
lies,&&&&,images/symbols/symbol_29.png,condition_files/AMP_rep3.csv,right,fairness.vice,,,,,,,,,,,,,,0,1,1,2,0,30,30,30,,,,,,,,,,,,,,,,,,,,,683.234437235631,,,,,,,,,,,,,,AMP_prac,left,1.3172425759548787,6,,,right,0.7826564278511796,,,,,,,,,,,,,,,,,,,,,,,,,1016,2019_May_17_1256,mf_amp_cond1,3.0.7,59.98182042445167,
critics,&&&&&&&,images/symbols/symbol_69.png,condition_files/AMP_rep3.csv,right,loyalty.vice,,,,,,,,,,,,,,0,1,1,2,0,31,31,31,,,,,,,,,,,,,,,,,,,,,684.1846822532534,,,,,,,,,,,,,,AMP_prac,left,1.3172425759548787,6,,,left,0.7326836734137032,,,,,,,,,,,,,,,,,,,,,,,,,1016,2019_May_17_1256,mf_amp_cond1,3.0.7,59.98182042445167,
accused,&&&&&&&,images/symbols/symbol_1.png,condition_files/AMP_rep3.csv,right,fairness.vice,,,,,,,,,,,,,,0,1,1,2,0,32,32,32,,,,,,,,,,,,,,,,,,,,,685.3349924421345,,,,,,,,,,,,,,AMP_prac,left,1.3172425759548787,6,,,right,0.9325974626262905,,,,,,,,,,,,,,,,,,,,,,,,,1016,2019_May_17_1256,mf_amp_cond1,3.0.7,59.98182042445167,
civilians,&&&&&&&&&,images/symbols/symbol_17.png,condition_files/AMP_rep3.csv,right,care.vice,,,,,,,,,,,,,,0,1,1,2,0,33,33,33,,,,,,,,,,,,,,,,,,,,,686.251898128874,,,,,,,,,,,,,,AMP_prac,left,1.3172425759548787,6,,,right,0.6994088081992231,,,,,,,,,,,,,,,,,,,,,,,,,1016,2019_May_17_1256,mf_amp_cond1,3.0.7,59.98182042445167,
shot,&&&&,images/symbols/symbol_78.png,condition_files/AMP_rep3.csv,right,care.vice,,,,,,,,,,,,,,0,1,1,2,0,34,34,34,,,,,,,,,,,,,,,,,,,,,687.6022834314645,,,,,,,,,,,,,,AMP_prac,left,1.3172425759548787,6,,,right,1.1328598795516882,,,,,,,,,,,,,,,,,,,,,,,,,1016,2019_May_17_1256,mf_amp_cond1,3.0.7,59.98182042445167,
blamed,&&&&&&,images/symbols/symbol_8.png,condition_files/AMP_rep3.csv,right,loyalty.vice,,,,,,,,,,,,,,0,1,1,2,0,35,35,35,,,,,,,,,,,,,,,,,,,,,688.7525512846914,,,,,,,,,,,,,,AMP_prac,left,1.3172425759548787,6,,,right,0.9329108106321655,,,,,,,,,,,,,,,,,,,,,,,,,1016,2019_May_17_1256,mf_amp_cond1,3.0.7,59.98182042445167,
respect,&&&&&&&,images/symbols/symbol_27.png,condition_files/AMP_rep3.csv,left,sanctity.virtue,,,,,,,,,,,,,,0,1,1,2,0,36,36,36,,,,,,,,,,,,,,,,,,,,,689.6027972324082,,,,,,,,,,,,,,AMP_prac,left,1.3172425759548787,6,,,right,0.6323741420201259,,,,,,,,,,,,,,,,,,,,,,,,,1016,2019_May_17_1256,mf_amp_cond1,3.0.7,59.98182042445167,
unpleasant,&&&&&&&&&,images/symbols/symbol_16.png,condition_files/AMP_rep3.csv,left,control,,,,,,,,,,,,,,0,1,1,2,0,37,37,37,,,,,,,,,,,,,,,,,,,,,690.4863350437663,,,,,,,,,,,,,,AMP_prac,left,1.3172425759548787,6,,,right,0.6663299057399854,,,,,,,,,,,,,,,,,,,,,,,,,1016,2019_May_17_1256,mf_amp_cond1,3.0.7,59.98182042445167,
progress,&&&&&&&&,images/symbols/symbol_42.png,condition_files/AMP_rep3.csv,left,authority.virtue,,,,,,,,,,,,,,0,1,1,2,0,38,38,38,,,,,,,,,,,,,,,,,,,,,691.3865733101266,,,,,,,,,,,,,,AMP_prac,left,1.3172425759548787,6,,,left,0.6822526034084149,,,,,,,,,,,,,,,,,,,,,,,,,1016,2019_May_17_1256,mf_amp_cond1,3.0.7,59.98182042445167,
strength,&&&&&&&&,images/symbols/symbol_45.png,condition_files/AMP_rep3.csv,left,sanctity.virtue,,,,,,,,,,,,,,0,1,1,2,0,39,39,39,,,,,,,,,,,,,,,,,,,,,692.3034825248469,,,,,,,,,,,,,,AMP_prac,left,1.3172425759548787,6,,,left,0.6987298340391135,,,,,,,,,,,,,,,,,,,,,,,,,1016,2019_May_17_1256,mf_amp_cond1,3.0.7,59.98182042445167,
crarft,&&&&&&,images/symbols/symbol_71.png,condition_files/AMP_rep3.csv,None,nonword,,,,,,,,,,,,,,0,1,1,2,0,40,40,40,,,,,,,,,,,,,,,,,,,,,693.2370809691929,,,,,,,,,,,,,,AMP_prac,left,1.3172425759548787,6,,,right,0.7004299955879105,,,,,,,,,,,,,,,,,,,,,,,,,1016,2019_May_17_1256,mf_amp_cond1,3.0.7,59.98182042445167,
betrayal,&&&&&&&&,images/symbols/symbol_15.png,condition_files/AMP_rep3.csv,right,loyalty.vice,,,,,,,,,,,,,,0,1,1,2,0,41,41,41,,,,,,,,,,,,,,,,,,,,,694.0039404234703,,,,,,,,,,,,,,AMP_prac,left,1.3172425759548787,6,,,left,0.5487015621474711,,,,,,,,,,,,,,,,,,,,,,,,,1016,2019_May_17_1256,mf_amp_cond1,3.0.7,59.98182042445167,
police,&&&&&&,images/symbols/symbol_68.png,condition_files/AMP_rep3.csv,right,authority.vice,,,,,,,,,,,,,,0,1,1,2,0,42,42,42,,,,,,,,,,,,,,,,,,,,,694.820809836252,,,,,,,,,,,,,,AMP_prac,left,1.3172425759548787,6,,,left,0.5837118686467875,,,,,,,,,,,,,,,,,,,,,,,,,1016,2019_May_17_1256,mf_amp_cond1,3.0.7,59.98182042445167,
refused,&&&&&&&,images/symbols/symbol_35.png,condition_files/AMP_rep3.csv,right,authority.vice,,,,,,,,,,,,,,0,1,1,2,0,43,43,43,,,,,,,,,,,,,,,,,,,,,695.6210394109803,,,,,,,,,,,,,,AMP_prac,left,1.3172425759548787,6,,,left,0.5820287054957589,,,,,,,,,,,,,,,,,,,,,,,,,1016,2019_May_17_1256,mf_amp_cond1,3.0.7,59.98182042445167,
daizz,&&&&&,images/symbols/symbol_6.png,condition_files/AMP_rep3.csv,None,nonword,,,,,,,,,,,,,,0,1,1,2,0,44,44,44,,,,,,,,,,,,,,,,,,,,,696.8546873431478,,,,,,,,,,,,,,AMP_prac,left,1.3172425759548787,6,,,left,1.0004993683396606,,,,,,,,,,,,,,,,,,,,,,,,,1016,2019_May_17_1256,mf_amp_cond1,3.0.7,59.98182042445167,
serial,&&&&&&,images/symbols/symbol_12.png,condition_files/AMP_rep3.csv,right,sanctity.vice,,,,,,,,,,,,,,0,1,1,2,0,45,45,45,,,,,,,,,,,,,,,,,,,,,699.372016899637,,,,,,,,,,,,,,AMP_prac,left,1.3172425759548787,6,,,left,2.299221376684727,,,,,,,,,,,,,,,,,,,,,,,,,1016,2019_May_17_1256,mf_amp_cond1,3.0.7,59.98182042445167,
forced,&&&&&&,images/symbols/symbol_30.png,condition_files/AMP_rep3.csv,right,fairness.vice,,,,,,,,,,,,,,0,1,1,2,0,46,46,46,,,,,,,,,,,,,,,,,,,,,700.272248751513,,,,,,,,,,,,,,AMP_prac,left,1.3172425759548787,6,,,left,0.6828068156610243,,,,,,,,,,,,,,,,,,,,,,,,,1016,2019_May_17_1256,mf_amp_cond1,3.0.7,59.98182042445167,
increase,&&&&&&&&,images/symbols/symbol_81.png,condition_files/AMP_rep3.csv,left,care.virtue,,,,,,,,,,,,,,0,1,1,2,0,47,47,47,,,,,,,,,,,,,,,,,,,,,701.072450102467,,,,,,,,,,,,,,AMP_prac,left,1.3172425759548787,6,,,left,0.5827782390842913,,,,,,,,,,,,,,,,,,,,,,,,,1016,2019_May_17_1256,mf_amp_cond1,3.0.7,59.98182042445167,
snoze,&&&&&,images/symbols/symbol_25.png,condition_files/AMP_rep3.csv,None,nonword,,,,,,,,,,,,,,0,1,1,2,0,48,48,48,,,,,,,,,,,,,,,,,,,,,701.905995595167,,,,,,,,,,,,,,AMP_prac,left,1.3172425759548787,6,,,right,0.6159187206794741,,,,,,,,,,,,,,,,,,,,,,,,,1016,2019_May_17_1256,mf_amp_cond1,3.0.7,59.98182042445167,
conspiracy,&&&&&&&&&&,images/symbols/symbol_79.png,condition_files/AMP_rep3.csv,right,sanctity.vice,,,,,,,,,,,,,,0,1,1,2,0,49,49,49,,,,,,,,,,,,,,,,,,,,,702.6228858229879,,,,,,,,,,,,,,AMP_prac,left,1.3172425759548787,6,,,left,0.4993320908397436,,,,,,,,,,,,,,,,,,,,,,,,,1016,2019_May_17_1256,mf_amp_cond1,3.0.7,59.98182042445167,
racist,&&&&&&,images/symbols/symbol_34.png,condition_files/AMP_rep3.csv,right,sanctity.vice,,,,,,,,,,,,,,0,1,1,2,0,50,50,50,,,,,,,,,,,,,,,,,,,,,703.4897491580195,,,,,,,,,,,,,,AMP_prac,left,1.3172425759548787,6,,,left,0.6492060941527598,,,,,,,,,,,,,,,,,,,,,,,,,1016,2019_May_17_1256,mf_amp_cond1,3.0.7,59.98182042445167,
opportunity,&&&&&&&&&&&,images/symbols/symbol_36.png,condition_files/AMP_rep3.csv,left,fairness.virtue,,,,,,,,,,,,,,0,1,1,2,0,51,51,51,,,,,,,,,,,,,,,,,,,,,704.2399578696059,,,,,,,,,,,,,,AMP_prac,left,1.3172425759548787,6,,,left,0.5327108708734158,,,,,,,,,,,,,,,,,,,,,,,,,1016,2019_May_17_1256,mf_amp_cond1,3.0.7,59.98182042445167,
officers,&&&&&&&&,images/symbols/symbol_23.png,condition_files/AMP_rep3.csv,right,authority.vice,,,,,,,,,,,,,,0,1,1,2,0,52,52,52,,,,,,,,,,,,,,,,,,,,,705.0234841028141,,,,,,,,,,,,,,AMP_prac,left,1.3172425759548787,6,,,left,0.5659966407256434,,,,,,,,,,,,,,,,,,,,,,,,,1016,2019_May_17_1256,mf_amp_cond1,3.0.7,59.98182042445167,
cifte,&&&&&,images/symbols/symbol_67.png,condition_files/AMP_rep3.csv,None,nonword,,,,,,,,,,,,,,0,1,1,2,0,53,53,53,,,,,,,,,,,,,,,,,,,,,705.7903512544726,,,,,,,,,,,,,,AMP_prac,left,1.3172425759548787,6,,,left,0.5336874775239266,,,,,,,,,,,,,,,,,,,,,,,,,1016,2019_May_17_1256,mf_amp_cond1,3.0.7,59.98182042445167,
safety,&&&&&&,images/symbols/symbol_62.png,condition_files/AMP_rep3.csv,left,care.virtue,,,,,,,,,,,,,,0,1,1,2,0,54,54,54,,,,,,,,,,,,,,,,,,,,,706.6239018787746,,,,,,,,,,,,,,AMP_prac,left,1.3172425759548787,6,,,right,0.600381854819716,,,,,,,,,,,,,,,,,,,,,,,,,1016,2019_May_17_1256,mf_amp_cond1,3.0.7,59.98182042445167,
scandal,&&&&&&&,images/symbols/symbol_4.png,condition_files/AMP_rep3.csv,right,sanctity.vice,,,,,,,,,,,,,,0,1,1,2,0,55,55,55,,,,,,,,,,,,,,,,,,,,,707.657580857107,,,,,,,,,,,,,,AMP_prac,left,1.3172425759548787,6,,,right,0.8150842591858236,,,,,,,,,,,,,,,,,,,,,,,,,1016,2019_May_17_1256,mf_amp_cond1,3.0.7,59.98182042445167,
clean,&&&&&,images/symbols/symbol_9.png,condition_files/AMP_rep3.csv,left,sanctity.virtue,,,,,,,,,,,,,,0,1,1,2,0,56,56,56,,,,,,,,,,,,,,,,,,,,,708.6077565981977,,,,,,,,,,,,,,AMP_prac,left,1.3172425759548787,6,,,right,0.7326160005031852,,,,,,,,,,,,,,,,,,,,,,,,,1016,2019_May_17_1256,mf_amp_cond1,3.0.7,59.98182042445167,
hope,&&&&,images/symbols/symbol_55.png,condition_files/AMP_rep3.csv,left,loyalty.virtue,,,,,,,,,,,,,,0,1,1,2,0,57,57,57,,,,,,,,,,,,,,,,,,,,,709.3079524647619,,,,,,,,,,,,,,AMP_prac,left,1.3172425759548787,6,,,left,0.48252291016979143,,,,,,,,,,,,,,,,,,,,,,,,,1016,2019_May_17_1256,mf_amp_cond1,3.0.7,59.98182042445167,
failure,&&&&&&&,images/symbols/symbol_39.png,condition_files/AMP_rep3.csv,right,loyalty.vice,,,,,,,,,,,,,,0,1,1,2,0,58,58,58,,,,,,,,,,,,,,,,,,,,,710.1248263676825,,,,,,,,,,,,,,AMP_prac,left,1.3172425759548787,6,,,right,0.5992314153700136,,,,,,,,,,,,,,,,,,,,,,,,,1016,2019_May_17_1256,mf_amp_cond1,3.0.7,59.98182042445167,
pleasant,&&&&&&&,images/symbols/symbol_24.png,condition_files/AMP_rep3.csv,right,control,,,,,,,,,,,,,,0,1,1,2,0,59,59,59,,,,,,,,,,,,,,,,,,,,,711.4418251928728,,,,,,,,,,,,,,AMP_prac,left,1.3172425759548787,6,,,right,1.0837867578520672,,,,,,,,,,,,,,,,,,,,,,,,,1016,2019_May_17_1256,mf_amp_cond1,3.0.7,59.98182042445167,
violence,&&&&&&&&,images/symbols/symbol_72.png,condition_files/AMP_rep3.csv,right,care.vice,,,,,,,,,,,,,,0,1,1,2,0,60,60,60,,,,,,,,,,,,,,,,,,,,,712.0586708078772,,,,,,,,,,,,,,AMP_prac,left,1.3172425759548787,6,,,left,0.39855879156675655,,,,,,,,,,,,,,,,,,,,,,,,,1016,2019_May_17_1256,mf_amp_cond1,3.0.7,59.98182042445167,
restore,&&&&&&&,images/symbols/symbol_38.png,condition_files/AMP_rep3.csv,left,care.virtue,,,,,,,,,,,,,,0,1,1,2,0,61,61,61,,,,,,,,,,,,,,,,,,,,,713.0922821132845,,,,,,,,,,,,,,AMP_prac,left,1.3172425759548787,6,,,right,0.816134953245637,,,,,,,,,,,,,,,,,,,,,,,,,1016,2019_May_17_1256,mf_amp_cond1,3.0.7,59.98182042445167,
yeussed,&&&&&&&,images/symbols/symbol_54.png,condition_files/AMP_rep3.csv,None,nonword,,,,,,,,,,,,,,0,1,1,2,0,62,62,62,,,,,,,,,,,,,,,,,,,,,713.775781373537,,,,,,,,,,,,,,AMP_prac,left,1.3172425759548787,6,,,left,0.4658218137046788,,,,,,,,,,,,,,,,,,,,,,,,,1016,2019_May_17_1256,mf_amp_cond1,3.0.7,59.98182042445167,
corruption,&&&&&&&&&&,images/symbols/symbol_3.png,condition_files/AMP_rep3.csv,right,sanctity.vice,,,,,,,,,,,,,,0,1,1,2,0,63,63,63,,,,,,,,,,,,,,,,,,,,,714.6426767810481,,,,,,,,,,,,,,AMP_prac,left,1.3172425759548787,6,,,left,0.6493116125639062,,,,,,,,,,,,,,,,,,,,,,,,,1016,2019_May_17_1256,mf_amp_cond1,3.0.7,59.98182042445167,
killed,&&&&&&,images/symbols/symbol_48.png,condition_files/AMP_rep3.csv,right,care.vice,,,,,,,,,,,,,,0,1,1,2,0,64,64,64,,,,,,,,,,,,,,,,,,,,,715.3261866252142,,,,,,,,,,,,,,AMP_prac,left,1.3172425759548787,6,,,left,0.4659273321303772,,,,,,,,,,,,,,,,,,,,,,,,,1016,2019_May_17_1256,mf_amp_cond1,3.0.7,59.98182042445167,
died,&&&&,images/symbols/symbol_21.png,condition_files/AMP_rep3.csv,right,care.vice,,,,,,,,,,,,,,0,1,1,2,0,65,65,65,,,,,,,,,,,,,,,,,,,,,716.7098830349278,,,,,,,,,,,,,,AMP_prac,left,1.3172425759548787,6,,,right,1.1664243591658305,,,,,,,,,,,,,,,,,,,,,,,,,1016,2019_May_17_1256,mf_amp_cond1,3.0.7,59.98182042445167,
crime,&&&&&,images/symbols/symbol_18.png,condition_files/AMP_rep3.csv,right,fairness.vice,,,,,,,,,,,,,,0,1,1,2,0,66,66,66,,,,,,,,,,,,,,,,,,,,,717.493425945795,,,,,,,,,,,,,,AMP_prac,left,1.3172425759548787,6,,,right,0.5503718963009305,,,,,,,,,,,,,,,,,,,,,,,,,1016,2019_May_17_1256,mf_amp_cond1,3.0.7,59.98182042445167,
safe,&&&&,images/symbols/symbol_74.png,condition_files/AMP_rep3.csv,left,care.virtue,,,,,,,,,,,,,,0,1,1,2,0,67,67,67,,,,,,,,,,,,,,,,,,,,,718.3768774822092,,,,,,,,,,,,,,AMP_prac,left,1.3172425759548787,6,,,left,0.6502789182122797,,,,,,,,,,,,,,,,,,,,,,,,,1016,2019_May_17_1256,mf_amp_cond1,3.0.7,59.98182042445167,
free,&&&&,images/symbols/symbol_59.png,condition_files/AMP_rep3.csv,left,fairness.virtue,,,,,,,,,,,,,,0,1,1,2,0,68,68,68,,,,,,,,,,,,,,,,,,,,,719.2605519222852,,,,,,,,,,,,,,AMP_prac,left,1.3172425759548787,6,,,right,0.6503979070694186,,,,,,,,,,,,,,,,,,,,,,,,,1016,2019_May_17_1256,mf_amp_cond1,3.0.7,59.98182042445167,
praised,&&&&&&&,images/symbols/symbol_31.png,condition_files/AMP_rep3.csv,left,loyalty.virtue,,,,,,,,,,,,,,0,1,1,2,0,69,69,69,,,,,,,,,,,,,,,,,,,,,720.3607437477185,,,,,,,,,,,,,,AMP_prac,left,1.3172425759548787,6,,,left,0.8830820615839912,,,,,,,,,,,,,,,,,,,,,,,,,1016,2019_May_17_1256,mf_amp_cond1,3.0.7,59.98182042445167,
death,&&&&&,images/symbols/symbol_64.png,condition_files/AMP_rep3.csv,right,care.vice,,,,,,,,,,,,,,0,1,1,2,0,70,70,70,,,,,,,,,,,,,,,,,,,,,721.0443539787084,,,,,,,,,,,,,,AMP_prac,left,1.3172425759548787,6,,,left,0.46579775934515055,,,,,,,,,,,,,,,,,,,,,,,,,1016,2019_May_17_1256,mf_amp_cond1,3.0.7,59.98182042445167,
treas,&&&&&,images/symbols/symbol_82.png,condition_files/AMP_rep3.csv,None,nonword,,,,,,,,,,,,,,0,1,1,2,0,71,71,71,,,,,,,,,,,,,,,,,,,,,722.194666412659,,,,,,,,,,,,,,AMP_prac,left,1.3172425759548787,6,,,left,0.9171446266409475,,,,,,,,,,,,,,,,,,,,,,,,,1016,2019_May_17_1256,mf_amp_cond1,3.0.7,59.98182042445167,
ability,&&&&&&&,images/symbols/symbol_53.png,condition_files/AMP_rep3.csv,left,authority.virtue,,,,,,,,,,,,,,0,1,1,2,0,72,72,72,,,,,,,,,,,,,,,,,,,,,722.9615274705575,,,,,,,,,,,,,,AMP_prac,left,1.3172425759548787,6,,,left,0.5489494823268615,,,,,,,,,,,,,,,,,,,,,,,,,1016,2019_May_17_1256,mf_amp_cond1,3.0.7,59.98182042445167,
win,&&&,images/symbols/symbol_75.png,condition_files/AMP_rep3.csv,left,fairness.virtue,,,,,,,,,,,,,,0,1,1,2,0,73,73,73,,,,,,,,,,,,,,,,,,,,,723.6950459903164,,,,,,,,,,,,,,AMP_prac,left,1.3172425759548787,6,,,right,0.5158654482947895,,,,,,,,,,,,,,,,,,,,,,,,,1016,2019_May_17_1256,mf_amp_cond1,3.0.7,59.98182042445167,
ban,&&&,images/symbols/symbol_14.png,condition_files/AMP_rep3.csv,right,loyalty.vice,,,,,,,,,,,,,,0,1,1,2,0,74,74,74,,,,,,,,,,,,,,,,,,,,,724.3785612868087,,,,,,,,,,,,,,AMP_prac,left,1.3172425759548787,6,,,left,0.46598121387069114,,,,,,,,,,,,,,,,,,,,,,,,,1016,2019_May_17_1256,mf_amp_cond1,3.0.7,59.98182042445167,
faith,&&&&&,images/symbols/symbol_60.png,condition_files/AMP_rep3.csv,left,sanctity.virtue,,,,,,,,,,,,,,0,1,1,2,0,75,75,75,,,,,,,,,,,,,,,,,,,,,725.0954566462024,,,,,,,,,,,,,,AMP_prac,left,1.3172425759548787,6,,,left,0.4991056592116365,,,,,,,,,,,,,,,,,,,,,,,,,1016,2019_May_17_1256,mf_amp_cond1,3.0.7,59.98182042445167,
sharing,&&&&&&&,images/symbols/symbol_57.png,condition_files/AMP_rep3.csv,left,loyalty.virtue,,,,,,,,,,,,,,0,1,1,2,0,76,76,76,,,,,,,,,,,,,,,,,,,,,725.8456178905471,,,,,,,,,,,,,,AMP_prac,left,1.3172425759548787,6,,,right,0.532518115331186,,,,,,,,,,,,,,,,,,,,,,,,,1016,2019_May_17_1256,mf_amp_cond1,3.0.7,59.98182042445167,
groups,&&&&&&,images/symbols/symbol_77.png,condition_files/AMP_rep3.csv,right,loyalty.vice,,,,,,,,,,,,,,0,1,1,2,0,77,77,77,,,,,,,,,,,,,,,,,,,,,726.5791434662533,,,,,,,,,,,,,,AMP_prac,left,1.3172425759548787,6,,,right,0.516070712095825,,,,,,,,,,,,,,,,,,,,,,,,,1016,2019_May_17_1256,mf_amp_cond1,3.0.7,59.98182042445167,
peizz,&&&&&,images/symbols/symbol_66.png,condition_files/AMP_rep3.csv,None,nonword,,,,,,,,,,,,,,0,1,1,2,0,78,78,78,,,,,,,,,,,,,,,,,,,,,727.3626927916193,,,,,,,,,,,,,,AMP_prac,left,1.3172425759548787,6,,,left,0.5660848400148097,,,,,,,,,,,,,,,,,,,,,,,,,1016,2019_May_17_1256,mf_amp_cond1,3.0.7,59.98182042445167,
growth,&&&&&&,images/symbols/symbol_40.png,condition_files/AMP_rep3.csv,left,care.virtue,,,,,,,,,,,,,,0,1,1,2,0,79,79,79,,,,,,,,,,,,,,,,,,,,,728.0795705111668,,,,,,,,,,,,,,AMP_prac,left,1.3172425759548787,6,,,left,0.49933593954483513,,,,,,,,,,,,,,,,,,,,,,,,,1016,2019_May_17_1256,mf_amp_cond1,3.0.7,59.98182042445167,
trust,&&&&&,images/symbols/symbol_70.png,condition_files/AMP_rep3.csv,left,authority.virtue,,,,,,,,,,,,,,0,1,1,2,0,80,80,80,,,,,,,,,,,,,,,,,,,,,728.8797516564664,,,,,,,,,,,,,,AMP_prac,left,1.3172425759548787,6,,,right,0.5827554676361615,,,,,,,,,,,,,,,,,,,,,,,,,1016,2019_May_17_1256,mf_amp_cond1,3.0.7,59.98182042445167,
freedom,&&&&&&&,images/symbols/symbol_44.png,condition_files/AMP_rep3.csv,left,sanctity.virtue,,,,,,,,,,,,,,0,1,1,2,0,81,81,81,,,,,,,,,,,,,,,,,,,,,729.9300217226846,,,,,,,,,,,,,,AMP_prac,left,1.3172425759548787,6,,,right,0.8326506708399393,,,,,,,,,,,,,,,,,,,,,,,,,1016,2019_May_17_1256,mf_amp_cond1,3.0.7,59.98182042445167,
,,,condition_files/AMP_rep3.csv,,,,,,,,,,,,,,,,0,1,1,2,,,,,,,,,,,,,,,,,,,,,,,,,,,,,,,,,,,,,,,,,,,,,,,right,2.7675935930747073,,,,,,,,,,,,,,,,,,,,,,,1016,2019_May_17_1256,mf_amp_cond1,3.0.7,59.98182042445167,
love,&&&&,images/symbols/symbol_11.png,condition_files/AMP_rep2.csv,left,loyalty.virtue,,,,,,,,,,,,,,0,2,2,1,0,0,0,0,,,,,,,,,,,,,,,,,,,,,734.6980874224973,,,,,,,,,,,,,,AMP_prac,left,1.3172425759548787,6,,,left,1.7663087699911557,,,,,,,,,,,,,,,,,,,,,,,,,1016,2019_May_17_1256,mf_amp_cond1,3.0.7,59.98182042445167,
energy,&&&&&&,images/symbols/symbol_80.png,condition_files/AMP_rep2.csv,left,sanctity.virtue,,,,,,,,,,,,,,0,2,2,1,0,1,1,1,,,,,,,,,,,,,,,,,,,,,735.7648780171876,,,,,,,,,,,,,,AMP_prac,left,1.3172425759548787,6,,,left,0.8492340613447595,,,,,,,,,,,,,,,,,,,,,,,,,1016,2019_May_17_1256,mf_amp_cond1,3.0.7,59.98182042445167,
fighters,&&&&&&&&,images/symbols/symbol_49.png,condition_files/AMP_rep2.csv,right,authority.vice,,,,,,,,,,,,,,0,2,2,1,0,2,2,2,,,,,,,,,,,,,,,,,,,,,736.7318206032942,,,,,,,,,,,,,,AMP_prac,left,1.3172425759548787,6,,,left,0.7337520073342603,,,,,,,,,,,,,,,,,,,,,,,,,1016,2019_May_17_1256,mf_amp_cond1,3.0.7,59.98182042445167,
honored,&&&&&&&,images/symbols/symbol_2.png,condition_files/AMP_rep2.csv,left,authority.virtue,,,,,,,,,,,,,,0,2,2,1,0,3,3,3,,,,,,,,,,,,,,,,,,,,,737.832156754841,,,,,,,,,,,,,,AMP_prac,left,1.3172425759548787,6,,,right,0.8821654304338153,,,,,,,,,,,,,,,,,,,,,,,,,1016,2019_May_17_1256,mf_amp_cond1,3.0.7,59.98182042445167,
encourage,&&&&&&&&&,images/symbols/symbol_37.png,condition_files/AMP_rep2.csv,left,authority.virtue,,,,,,,,,,,,,,0,2,2,1,0,4,4,4,,,,,,,,,,,,,,,,,,,,,738.6656660056615,,,,,,,,,,,,,,AMP_prac,left,1.3172425759548787,6,,,right,0.6159020429768134,,,,,,,,,,,,,,,,,,,,,,,,,1016,2019_May_17_1256,mf_amp_cond1,3.0.7,59.98182042445167,
prison,&&&&&&,images/symbols/symbol_76.png,condition_files/AMP_rep2.csv,right,fairness.vice,,,,,,,,,,,,,,0,2,2,1,0,5,5,5,,,,,,,,,,,,,,,,,,,,,739.432515838198,,,,,,,,,,,,,,AMP_prac,left,1.3172425759548787,6,,,right,0.5497801592573524,,,,,,,,,,,,,,,,,,,,,,,,,1016,2019_May_17_1256,mf_amp_cond1,3.0.7,59.98182042445167,
gun,&&&,images/symbols/symbol_13.png,condition_files/AMP_rep2.csv,right,authority.vice,,,,,,,,,,,,,,0,2,2,1,0,6,6,6,,,,,,,,,,,,,,,,,,,,,740.082690520896,,,,,,,,,,,,,,AMP_prac,left,1.3172425759548787,6,,,right,0.4326871051744092,,,,,,,,,,,,,,,,,,,,,,,,,1016,2019_May_17_1256,mf_amp_cond1,3.0.7,59.98182042445167,
friends,&&&&&&&,images/symbols/symbol_63.png,condition_files/AMP_rep2.csv,left,loyalty.virtue,,,,,,,,,,,,,,0,2,2,1,0,7,7,7,,,,,,,,,,,,,,,,,,,,,740.8995557642484,,,,,,,,,,,,,,AMP_prac,left,1.3172425759548787,6,,,right,0.583687172838836,,,,,,,,,,,,,,,,,,,,,,,,,1016,2019_May_17_1256,mf_amp_cond1,3.0.7,59.98182042445167,
stealde,&&&&&&&,images/symbols/symbol_22.png,condition_files/AMP_rep2.csv,None,nonword,,,,,,,,,,,,,,0,2,2,1,0,8,8,8,,,,,,,,,,,,,,,,,,,,,741.6331037906784,,,,,,,,,,,,,,AMP_prac,left,1.3172425759548787,6,,,right,0.5153837198304245,,,,,,,,,,,,,,,,,,,,,,,,,1016,2019_May_17_1256,mf_amp_cond1,3.0.7,59.98182042445167,
victims,&&&&&&&,images/symbols/symbol_41.png,condition_files/AMP_rep2.csv,right,care.vice,,,,,,,,,,,,,,0,2,2,1,0,9,9,9,,,,,,,,,,,,,,,,,,,,,742.4332974442514,,,,,,,,,,,,,,AMP_prac,left,1.3172425759548787,6,,,right,0.5832285365322605,,,,,,,,,,,,,,,,,,,,,,,,,1016,2019_May_17_1256,mf_amp_cond1,3.0.7,59.98182042445167,
violations,&&&&&&&&&&,images/symbols/symbol_28.png,condition_files/AMP_rep2.csv,right,sanctity.vice,,,,,,,,,,,,,,0,2,2,1,0,10,10,10,,,,,,,,,,,,,,,,,,,,,743.5835187923949,,,,,,,,,,,,,,AMP_prac,left,1.3172425759548787,6,,,right,0.9327379400347127,,,,,,,,,,,,,,,,,,,,,,,,,1016,2019_May_17_1256,mf_amp_cond1,3.0.7,59.98182042445167,
protect,&&&&&&&,images/symbols/symbol_19.png,condition_files/AMP_rep2.csv,left,fairness.virtue,,,,,,,,,,,,,,0,2,2,1,0,11,11,11,,,,,,,,,,,,,,,,,,,,,744.2337762220559,,,,,,,,,,,,,,AMP_prac,left,1.3172425759548787,6,,,right,0.4325591360247927,,,,,,,,,,,,,,,,,,,,,,,,,1016,2019_May_17_1256,mf_amp_cond1,3.0.7,59.98182042445167,
celebrated,&&&&&&&&&&,images/symbols/symbol_51.png,condition_files/AMP_rep2.csv,left,authority.virtue,,,,,,,,,,,,,,0,2,2,1,0,12,12,12,,,,,,,,,,,,,,,,,,,,,745.2173733995442,,,,,,,,,,,,,,AMP_prac,left,1.3172425759548787,6,,,left,0.7665746507555014,,,,,,,,,,,,,,,,,,,,,,,,,1016,2019_May_17_1256,mf_amp_cond1,3.0.7,59.98182042445167,
threatened,&&&&&&&&&&,images/symbols/symbol_56.png,condition_files/AMP_rep2.csv,right,fairness.vice,,,,,,,,,,,,,,0,2,2,1,0,13,13,13,,,,,,,,,,,,,,,,,,,,,745.9509211052646,,,,,,,,,,,,,,AMP_prac,left,1.3172425759548787,6,,,right,0.5004222340357956,,,,,,,,,,,,,,,,,,,,,,,,,1016,2019_May_17_1256,mf_amp_cond1,3.0.7,59.98182042445167,
abuse,&&&&&,images/symbols/symbol_65.png,condition_files/AMP_rep2.csv,right,sanctity.vice,,,,,,,,,,,,,,0,2,2,1,0,14,14,14,,,,,,,,,,,,,,,,,,,,,746.5677368928737,,,,,,,,,,,,,,AMP_prac,left,1.3172425759548787,6,,,right,0.3985992028610781,,,,,,,,,,,,,,,,,,,,,,,,,1016,2019_May_17_1256,mf_amp_cond1,3.0.7,59.98182042445167,
promised,&&&&&&&&,images/symbols/symbol_58.png,condition_files/AMP_rep2.csv,left,loyalty.virtue,,,,,,,,,,,,,,0,2,2,1,0,15,15,15,,,,,,,,,,,,,,,,,,,,,747.3512547872233,,,,,,,,,,,,,,AMP_prac,left,1.3172425759548787,6,,,right,0.5661088943597861,,,,,,,,,,,,,,,,,,,,,,,,,1016,2019_May_17_1256,mf_amp_cond1,3.0.7,59.98182042445167,
care,&&&&,images/symbols/symbol_26.png,condition_files/AMP_rep2.csv,left,care.virtue,,,,,,,,,,,,,,0,2,2,1,0,16,16,16,,,,,,,,,,,,,,,,,,,,,748.0847915882914,,,,,,,,,,,,,,AMP_prac,left,1.3172425759548787,6,,,right,0.5159603828069521,,,,,,,,,,,,,,,,,,,,,,,,,1016,2019_May_17_1256,mf_amp_cond1,3.0.7,59.98182042445167,
promote,&&&&&&&,images/symbols/symbol_73.png,condition_files/AMP_rep2.csv,left,sanctity.virtue,,,,,,,,,,,,,,0,2,2,1,0,17,17,17,,,,,,,,,,,,,,,,,,,,,748.9516905237833,,,,,,,,,,,,,,AMP_prac,left,1.3172425759548787,6,,,right,0.6492493919795379,,,,,,,,,,,,,,,,,,,,,,,,,1016,2019_May_17_1256,mf_amp_cond1,3.0.7,59.98182042445167,
agreement,&&&&&&&&&,images/symbols/symbol_32.png,condition_files/AMP_rep2.csv,left,fairness.virtue,,,,,,,,,,,,,,0,2,2,1,0,18,18,18,,,,,,,,,,,,,,,,,,,,,750.0686325165443,,,,,,,,,,,,,,AMP_prac,left,1.3172425759548787,6,,,right,0.8994390204607043,,,,,,,,,,,,,,,,,,,,,,,,,1016,2019_May_17_1256,mf_amp_cond1,3.0.7,59.98182042445167,
praise,&&&&&&,images/symbols/symbol_46.png,condition_files/AMP_rep2.csv,left,authority.virtue,,,,,,,,,,,,,,0,2,2,1,0,19,19,19,,,,,,,,,,,,,,,,,,,,,750.7521523031755,,,,,,,,,,,,,,AMP_prac,left,1.3172425759548787,6,,,right,0.46547318596276455,,,,,,,,,,,,,,,,,,,,,,,,,1016,2019_May_17_1256,mf_amp_cond1,3.0.7,59.98182042445167,
compassion,&&&&&&&&&&,images/symbols/symbol_50.png,condition_files/AMP_rep2.csv,left,care.virtue,,,,,,,,,,,,,,0,2,2,1,0,20,20,20,,,,,,,,,,,,,,,,,,,,,751.4356971063389,,,,,,,,,,,,,,AMP_prac,left,1.3172425759548787,6,,,right,0.4661130317253992,,,,,,,,,,,,,,,,,,,,,,,,,1016,2019_May_17_1256,mf_amp_cond1,3.0.7,59.98182042445167,
credit,&&&&&&,images/symbols/symbol_47.png,condition_files/AMP_rep2.csv,left,fairness.virtue,,,,,,,,,,,,,,0,2,2,1,0,21,21,21,,,,,,,,,,,,,,,,,,,,,752.0858259254019,,,,,,,,,,,,,,AMP_prac,left,1.3172425759548787,6,,,right,0.43267042747174855,,,,,,,,,,,,,,,,,,,,,,,,,1016,2019_May_17_1256,mf_amp_cond1,3.0.7,59.98182042445167,
rebels,&&&&&&,images/symbols/symbol_5.png,condition_files/AMP_rep2.csv,right,authority.vice,,,,,,,,,,,,,,0,2,2,1,0,22,22,22,,,,,,,,,,,,,,,,,,,,,753.3695341698476,,,,,,,,,,,,,,AMP_prac,left,1.3172425759548787,6,,,right,1.0662848118663533,,,,,,,,,,,,,,,,,,,,,,,,,1016,2019_May_17_1256,mf_amp_cond1,3.0.7,59.98182042445167,
spynze,&&&&&&,images/symbols/symbol_43.png,condition_files/AMP_rep2.csv,None,nonword,,,,,,,,,,,,,,0,2,2,1,0,23,23,23,,,,,,,,,,,,,,,,,,,,,754.0863689122925,,,,,,,,,,,,,,AMP_prac,left,1.3172425759548787,6,,,right,0.48367495322600007,,,,,,,,,,,,,,,,,,,,,,,,,1016,2019_May_17_1256,mf_amp_cond1,3.0.7,59.98182042445167,
army,&&&&,images/symbols/symbol_33.png,condition_files/AMP_rep2.csv,right,loyalty.vice,,,,,,,,,,,,,,0,2,2,1,0,24,24,24,,,,,,,,,,,,,,,,,,,,,754.8865625658509,,,,,,,,,,,,,,AMP_prac,left,1.3172425759548787,6,,,left,0.5821739937819075,,,,,,,,,,,,,,,,,,,,,,,,,1016,2019_May_17_1256,mf_amp_cond1,3.0.7,59.98182042445167,
rejected,&&&&&&&&,images/symbols/symbol_10.png,condition_files/AMP_rep2.csv,right,authority.vice,,,,,,,,,,,,,,0,2,2,1,0,25,25,25,,,,,,,,,,,,,,,,,,,,,755.8034890996933,,,,,,,,,,,,,,AMP_prac,left,1.3172425759548787,6,,,right,0.6994912344380282,,,,,,,,,,,,,,,,,,,,,,,,,1016,2019_May_17_1256,mf_amp_cond1,3.0.7,59.98182042445167,
loyalty,&&&&&&&,images/symbols/symbol_52.png,condition_files/AMP_rep2.csv,left,loyalty.virtue,,,,,,,,,,,,,,0,2,2,1,0,26,26,26,,,,,,,,,,,,,,,,,,,,,756.5203353882243,,,,,,,,,,,,,,AMP_prac,left,1.3172425759548787,6,,,right,0.4836743117775768,,,,,,,,,,,,,,,,,,,,,,,,,1016,2019_May_17_1256,mf_amp_cond1,3.0.7,59.98182042445167,
integrity,&&&&&&&&&,images/symbols/symbol_20.png,condition_files/AMP_rep2.csv,left,fairness.virtue,,,,,,,,,,,,,,0,2,2,1,0,27,27,27,,,,,,,,,,,,,,,,,,,,,757.2705344780697,,,,,,,,,,,,,,AMP_prac,left,1.3172425759548787,6,,,right,0.5326585927396081,,,,,,,,,,,,,,,,,,,,,,,,,1016,2019_May_17_1256,mf_amp_cond1,3.0.7,59.98182042445167,
noost,&&&&&,images/symbols/symbol_61.png,condition_files/AMP_rep2.csv,None,nonword,,,,,,,,,,,,,,0,2,2,1,0,28,28,28,,,,,,,,,,,,,,,,,,,,,758.3874976386724,,,,,,,,,,,,,,AMP_prac,left,1.3172425759548787,6,,,left,0.8995034861145541,,,,,,,,,,,,,,,,,,,,,,,,,1016,2019_May_17_1256,mf_amp_cond1,3.0.7,59.98182042445167,
illegal,&&&&&&&,images/symbols/symbol_7.png,condition_files/AMP_rep2.csv,right,fairness.vice,,,,,,,,,,,,,,0,2,2,1,0,29,29,29,,,,,,,,,,,,,,,,,,,,,759.2377050994401,,,,,,,,,,,,,,AMP_prac,left,1.3172425759548787,6,,,left,0.632458171894541,,,,,,,,,,,,,,,,,,,,,,,,,1016,2019_May_17_1256,mf_amp_cond1,3.0.7,59.98182042445167,
lies,&&&&,images/symbols/symbol_29.png,condition_files/AMP_rep2.csv,right,fairness.vice,,,,,,,,,,,,,,0,2,2,1,0,30,30,30,,,,,,,,,,,,,,,,,,,,,760.5213867237326,,,,,,,,,,,,,,AMP_prac,left,1.3172425759548787,6,,,left,1.066010912967613,,,,,,,,,,,,,,,,,,,,,,,,,1016,2019_May_17_1256,mf_amp_cond1,3.0.7,59.98182042445167,
critics,&&&&&&&,images/symbols/symbol_69.png,condition_files/AMP_rep2.csv,right,loyalty.vice,,,,,,,,,,,,,,0,2,2,1,0,31,31,31,,,,,,,,,,,,,,,,,,,,,761.2715854928538,,,,,,,,,,,,,,AMP_prac,left,1.3172425759548787,6,,,left,0.532564941138844,,,,,,,,,,,,,,,,,,,,,,,,,1016,2019_May_17_1256,mf_amp_cond1,3.0.7,59.98182042445167,
accused,&&&&&&&,images/symbols/symbol_1.png,condition_files/AMP_rep2.csv,right,fairness.vice,,,,,,,,,,,,,,0,2,2,1,0,32,32,32,,,,,,,,,,,,,,,,,,,,,762.0384667564067,,,,,,,,,,,,,,AMP_prac,left,1.3172425759548787,6,,,right,0.5492166460026056,,,,,,,,,,,,,,,,,,,,,,,,,1016,2019_May_17_1256,mf_amp_cond1,3.0.7,59.98182042445167,
civilians,&&&&&&&&&,images/symbols/symbol_17.png,condition_files/AMP_rep2.csv,right,care.vice,,,,,,,,,,,,,,0,2,2,1,0,33,33,33,,,,,,,,,,,,,,,,,,,,,762.7886379432166,,,,,,,,,,,,,,AMP_prac,left,1.3172425759548787,6,,,left,0.5327006076695397,,,,,,,,,,,,,,,,,,,,,,,,,1016,2019_May_17_1256,mf_amp_cond1,3.0.7,59.98182042445167,
shot,&&&&,images/symbols/symbol_78.png,condition_files/AMP_rep2.csv,right,care.vice,,,,,,,,,,,,,,0,2,2,1,0,34,34,34,,,,,,,,,,,,,,,,,,,,,763.5055272088503,,,,,,,,,,,,,,AMP_prac,left,1.3172425759548787,6,,,left,0.49932086547778454,,,,,,,,,,,,,,,,,,,,,,,,,1016,2019_May_17_1256,mf_amp_cond1,3.0.7,59.98182042445167,
blamed,&&&&&&,images/symbols/symbol_8.png,condition_files/AMP_rep2.csv,right,loyalty.vice,,,,,,,,,,,,,,0,2,2,1,0,35,35,35,,,,,,,,,,,,,,,,,,,,,764.3223754537903,,,,,,,,,,,,,,AMP_prac,left,1.3172425759548787,6,,,right,0.5994729210651712,,,,,,,,,,,,,,,,,,,,,,,,,1016,2019_May_17_1256,mf_amp_cond1,3.0.7,59.98182042445167,
respect,&&&&&&&,images/symbols/symbol_27.png,condition_files/AMP_rep2.csv,left,sanctity.virtue,,,,,,,,,,,,,,0,2,2,1,0,36,36,36,,,,,,,,,,,,,,,,,,,,,765.1059157988784,,,,,,,,,,,,,,AMP_prac,left,1.3172425759548787,6,,,right,0.565911007244722,,,,,,,,,,,,,,,,,,,,,,,,,1016,2019_May_17_1256,mf_amp_cond1,3.0.7,59.98182042445167,
unpleasant,&&&&&&&&&,images/symbols/symbol_16.png,condition_files/AMP_rep2.csv,left,control,,,,,,,,,,,,,,0,2,2,1,0,37,37,37,,,,,,,,,,,,,,,,,,,,,765.7894496973895,,,,,,,,,,,,,,AMP_prac,left,1.3172425759548787,6,,,left,0.46622785116778687,,,,,,,,,,,,,,,,,,,,,,,,,1016,2019_May_17_1256,mf_amp_cond1,3.0.7,59.98182042445167,
progress,&&&&&&&&,images/symbols/symbol_42.png,condition_files/AMP_rep2.csv,left,authority.virtue,,,,,,,,,,,,,,0,2,2,1,0,38,38,38,,,,,,,,,,,,,,,,,,,,,766.7896998626384,,,,,,,,,,,,,,AMP_prac,left,1.3172425759548787,6,,,left,0.7822641815582756,,,,,,,,,,,,,,,,,,,,,,,,,1016,2019_May_17_1256,mf_amp_cond1,3.0.7,59.98182042445167,
strength,&&&&&&&&,images/symbols/symbol_45.png,condition_files/AMP_rep2.csv,left,sanctity.virtue,,,,,,,,,,,,,,0,2,2,1,0,39,39,39,,,,,,,,,,,,,,,,,,,,,767.473205216651,,,,,,,,,,,,,,AMP_prac,left,1.3172425759548787,6,,,left,0.46600045735249296,,,,,,,,,,,,,,,,,,,,,,,,,1016,2019_May_17_1256,mf_amp_cond1,3.0.7,59.98182042445167,
crarft,&&&&&&,images/symbols/symbol_71.png,condition_files/AMP_rep2.csv,None,nonword,,,,,,,,,,,,,,0,2,2,1,0,40,40,40,,,,,,,,,,,,,,,,,,,,,768.156713457196,,,,,,,,,,,,,,AMP_prac,left,1.3172425759548787,6,,,left,0.45033498089469504,,,,,,,,,,,,,,,,,,,,,,,,,1016,2019_May_17_1256,mf_amp_cond1,3.0.7,59.98182042445167,
betrayal,&&&&&&&&,images/symbols/symbol_15.png,condition_files/AMP_rep2.csv,right,loyalty.vice,,,,,,,,,,,,,,0,2,2,1,0,41,41,41,,,,,,,,,,,,,,,,,,,,,768.7735529784259,,,,,,,,,,,,,,AMP_prac,left,1.3172425759548787,6,,,left,0.3986476323043462,,,,,,,,,,,,,,,,,,,,,,,,,1016,2019_May_17_1256,mf_amp_cond1,3.0.7,59.98182042445167,
police,&&&&&&,images/symbols/symbol_68.png,condition_files/AMP_rep2.csv,right,authority.vice,,,,,,,,,,,,,,0,2,2,1,0,42,42,42,,,,,,,,,,,,,,,,,,,,,769.440391874261,,,,,,,,,,,,,,AMP_prac,left,1.3172425759548787,6,,,left,0.4336823138582986,,,,,,,,,,,,,,,,,,,,,,,,,1016,2019_May_17_1256,mf_amp_cond1,3.0.7,59.98182042445167,
refused,&&&&&&&,images/symbols/symbol_35.png,condition_files/AMP_rep2.csv,right,authority.vice,,,,,,,,,,,,,,0,2,2,1,0,43,43,43,,,,,,,,,,,,,,,,,,,,,770.1739216193819,,,,,,,,,,,,,,AMP_prac,left,1.3172425759548787,6,,,left,0.515421565331053,,,,,,,,,,,,,,,,,,,,,,,,,1016,2019_May_17_1256,mf_amp_cond1,3.0.7,59.98182042445167,
daizz,&&&&&,images/symbols/symbol_6.png,condition_files/AMP_rep2.csv,None,nonword,,,,,,,,,,,,,,0,2,2,1,0,44,44,44,,,,,,,,,,,,,,,,,,,,,771.424251083823,,,,,,,,,,,,,,AMP_prac,left,1.3172425759548787,6,,,right,1.017164222910651,,,,,,,,,,,,,,,,,,,,,,,,,1016,2019_May_17_1256,mf_amp_cond1,3.0.7,59.98182042445167,
serial,&&&&&&,images/symbols/symbol_12.png,condition_files/AMP_rep2.csv,right,sanctity.vice,,,,,,,,,,,,,,0,2,2,1,0,45,45,45,,,,,,,,,,,,,,,,,,,,,772.124433159217,,,,,,,,,,,,,,AMP_prac,left,1.3172425759548787,6,,,right,0.48217781040875707,,,,,,,,,,,,,,,,,,,,,,,,,1016,2019_May_17_1256,mf_amp_cond1,3.0.7,59.98182042445167,
forced,&&&&&&,images/symbols/symbol_30.png,condition_files/AMP_rep2.csv,right,fairness.vice,,,,,,,,,,,,,,0,2,2,1,0,46,46,46,,,,,,,,,,,,,,,,,,,,,772.8579475095612,,,,,,,,,,,,,,AMP_prac,left,1.3172425759548787,6,,,left,0.5161845693655778,,,,,,,,,,,,,,,,,,,,,,,,,1016,2019_May_17_1256,mf_amp_cond1,3.0.7,59.98182042445167,
increase,&&&&&&&&,images/symbols/symbol_81.png,condition_files/AMP_rep2.csv,left,care.virtue,,,,,,,,,,,,,,0,2,2,1,0,47,47,47,,,,,,,,,,,,,,,,,,,,,774.2249854792026,,,,,,,,,,,,,,AMP_prac,left,1.3172425759548787,6,,,right,1.1494605891930405,,,,,,,,,,,,,,,,,,,,,,,,,1016,2019_May_17_1256,mf_amp_cond1,3.0.7,59.98182042445167,
snoze,&&&&&,images/symbols/symbol_25.png,condition_files/AMP_rep2.csv,None,nonword,,,,,,,,,,,,,,0,2,2,1,0,48,48,48,,,,,,,,,,,,,,,,,,,,,774.9751749473071,,,,,,,,,,,,,,AMP_prac,left,1.3172425759548787,6,,,left,0.5326464052050142,,,,,,,,,,,,,,,,,,,,,,,,,1016,2019_May_17_1256,mf_amp_cond1,3.0.7,59.98182042445167,
conspiracy,&&&&&&&&&&,images/symbols/symbol_79.png,condition_files/AMP_rep2.csv,right,sanctity.vice,,,,,,,,,,,,,,0,2,2,1,0,49,49,49,,,,,,,,,,,,,,,,,,,,,775.825400047921,,,,,,,,,,,,,,AMP_prac,left,1.3172425759548787,6,,,left,0.6326384191488614,,,,,,,,,,,,,,,,,,,,,,,,,1016,2019_May_17_1256,mf_amp_cond1,3.0.7,59.98182042445167,
racist,&&&&&&,images/symbols/symbol_34.png,condition_files/AMP_rep2.csv,right,sanctity.vice,,,,,,,,,,,,,,0,2,2,1,0,50,50,50,,,,,,,,,,,,,,,,,,,,,776.7256264474709,,,,,,,,,,,,,,AMP_prac,left,1.3172425759548787,6,,,left,0.6825422177935252,,,,,,,,,,,,,,,,,,,,,,,,,1016,2019_May_17_1256,mf_amp_cond1,3.0.7,59.98182042445167,
opportunity,&&&&&&&&&&&,images/symbols/symbol_36.png,condition_files/AMP_rep2.csv,left,fairness.virtue,,,,,,,,,,,,,,0,2,2,1,0,51,51,51,,,,,,,,,,,,,,,,,,,,,777.4924935991439,,,,,,,,,,,,,,AMP_prac,left,1.3172425759548787,6,,,right,0.5493754047056427,,,,,,,,,,,,,,,,,,,,,,,,,1016,2019_May_17_1256,mf_amp_cond1,3.0.7,59.98182042445167,
officers,&&&&&&&&,images/symbols/symbol_23.png,condition_files/AMP_rep2.csv,right,authority.vice,,,,,,,,,,,,,,0,2,2,1,0,52,52,52,,,,,,,,,,,,,,,,,,,,,778.1260444800282,,,,,,,,,,,,,,AMP_prac,left,1.3172425759548787,6,,,left,0.4158862633194076,,,,,,,,,,,,,,,,,,,,,,,,,1016,2019_May_17_1256,mf_amp_cond1,3.0.7,59.98182042445167,
cifte,&&&&&,images/symbols/symbol_67.png,condition_files/AMP_rep2.csv,None,nonword,,,,,,,,,,,,,,0,2,2,1,0,53,53,53,,,,,,,,,,,,,,,,,,,,,779.092937033085,,,,,,,,,,,,,,AMP_prac,left,1.3172425759548787,6,,,left,0.7337613083509495,,,,,,,,,,,,,,,,,,,,,,,,,1016,2019_May_17_1256,mf_amp_cond1,3.0.7,59.98182042445167,
safety,&&&&&&,images/symbols/symbol_62.png,condition_files/AMP_rep2.csv,left,care.virtue,,,,,,,,,,,,,,0,2,2,1,0,54,54,54,,,,,,,,,,,,,,,,,,,,,780.293258142643,,,,,,,,,,,,,,AMP_prac,left,1.3172425759548787,6,,,left,0.9671606788906502,,,,,,,,,,,,,,,,,,,,,,,,,1016,2019_May_17_1256,mf_amp_cond1,3.0.7,59.98182042445167,
scandal,&&&&&&&,images/symbols/symbol_4.png,condition_files/AMP_rep2.csv,right,sanctity.vice,,,,,,,,,,,,,,0,2,2,1,0,55,55,55,,,,,,,,,,,,,,,,,,,,,781.0601233699708,,,,,,,,,,,,,,AMP_prac,left,1.3172425759548787,6,,,left,0.5487413320224732,,,,,,,,,,,,,,,,,,,,,,,,,1016,2019_May_17_1256,mf_amp_cond1,3.0.7,59.98182042445167,
clean,&&&&&,images/symbols/symbol_9.png,condition_files/AMP_rep2.csv,left,sanctity.virtue,,,,,,,,,,,,,,0,2,2,1,0,56,56,56,,,,,,,,,,,,,,,,,,,,,781.8769854060665,,,,,,,,,,,,,,AMP_prac,left,1.3172425759548787,6,,,left,0.5993449519010028,,,,,,,,,,,,,,,,,,,,,,,,,1016,2019_May_17_1256,mf_amp_cond1,3.0.7,59.98182042445167,
hope,&&&&,images/symbols/symbol_55.png,condition_files/AMP_rep2.csv,left,loyalty.virtue,,,,,,,,,,,,,,0,2,2,1,0,57,57,57,,,,,,,,,,,,,,,,,,,,,782.5938907079399,,,,,,,,,,,,,,AMP_prac,left,1.3172425759548787,6,,,left,0.49932118620199617,,,,,,,,,,,,,,,,,,,,,,,,,1016,2019_May_17_1256,mf_amp_cond1,3.0.7,59.98182042445167,
failure,&&&&&&&,images/symbols/symbol_39.png,condition_files/AMP_rep2.csv,right,loyalty.vice,,,,,,,,,,,,,,0,2,2,1,0,58,58,58,,,,,,,,,,,,,,,,,,,,,783.2940365414543,,,,,,,,,,,,,,AMP_prac,left,1.3172425759548787,6,,,left,0.4825777540827403,,,,,,,,,,,,,,,,,,,,,,,,,1016,2019_May_17_1256,mf_amp_cond1,3.0.7,59.98182042445167,
pleasant,&&&&&&&,images/symbols/symbol_24.png,condition_files/AMP_rep2.csv,right,control,,,,,,,,,,,,,,0,2,2,1,0,59,59,59,,,,,,,,,,,,,,,,,,,,,784.360962481951,,,,,,,,,,,,,,AMP_prac,left,1.3172425759548787,6,,,right,0.8337735279492335,,,,,,,,,,,,,,,,,,,,,,,,,1016,2019_May_17_1256,mf_amp_cond1,3.0.7,59.98182042445167,
violence,&&&&&&&&,images/symbols/symbol_72.png,condition_files/AMP_rep2.csv,right,care.vice,,,,,,,,,,,,,,0,2,2,1,0,60,60,60,,,,,,,,,,,,,,,,,,,,,785.0278267150279,,,,,,,,,,,,,,AMP_prac,left,1.3172425759548787,6,,,left,0.44861910383042414,,,,,,,,,,,,,,,,,,,,,,,,,1016,2019_May_17_1256,mf_amp_cond1,3.0.7,59.98182042445167,
restore,&&&&&&&,images/symbols/symbol_38.png,condition_files/AMP_rep2.csv,left,care.virtue,,,,,,,,,,,,,,0,2,2,1,0,61,61,61,,,,,,,,,,,,,,,,,,,,,786.0447497529676,,,,,,,,,,,,,,AMP_prac,left,1.3172425759548787,6,,,right,0.7994736266409745,,,,,,,,,,,,,,,,,,,,,,,,,1016,2019_May_17_1256,mf_amp_cond1,3.0.7,59.98182042445167,
yeussed,&&&&&&&,images/symbols/symbol_54.png,condition_files/AMP_rep2.csv,None,nonword,,,,,,,,,,,,,,0,2,2,1,0,62,62,62,,,,,,,,,,,,,,,,,,,,,786.8282782312308,,,,,,,,,,,,,,AMP_prac,left,1.3172425759548787,6,,,left,0.5658183178165928,,,,,,,,,,,,,,,,,,,,,,,,,1016,2019_May_17_1256,mf_amp_cond1,3.0.7,59.98182042445167,
corruption,&&&&&&&&&&,images/symbols/symbol_3.png,condition_files/AMP_rep2.csv,right,sanctity.vice,,,,,,,,,,,,,,0,2,2,1,0,63,63,63,,,,,,,,,,,,,,,,,,,,,787.6618506648229,,,,,,,,,,,,,,AMP_prac,left,1.3172425759548787,6,,,right,0.6160268048843136,,,,,,,,,,,,,,,,,,,,,,,,,1016,2019_May_17_1256,mf_amp_cond1,3.0.7,59.98182042445167,
killed,&&&&&&,images/symbols/symbol_48.png,condition_files/AMP_rep2.csv,right,care.vice,,,,,,,,,,,,,,0,2,2,1,0,64,64,64,,,,,,,,,,,,,,,,,,,,,788.4120317940833,,,,,,,,,,,,,,AMP_prac,left,1.3172425759548787,6,,,right,0.5325867504143389,,,,,,,,,,,,,,,,,,,,,,,,,1016,2019_May_17_1256,mf_amp_cond1,3.0.7,59.98182042445167,
died,&&&&,images/symbols/symbol_21.png,condition_files/AMP_rep2.csv,right,care.vice,,,,,,,,,,,,,,0,2,2,1,0,65,65,65,,,,,,,,,,,,,,,,,,,,,789.0622135327285,,,,,,,,,,,,,,AMP_prac,left,1.3172425759548787,6,,,left,0.432246429452789,,,,,,,,,,,,,,,,,,,,,,,,,1016,2019_May_17_1256,mf_amp_cond1,3.0.7,59.98182042445167,
crime,&&&&&,images/symbols/symbol_18.png,condition_files/AMP_rep2.csv,right,fairness.vice,,,,,,,,,,,,,,0,2,2,1,0,66,66,66,,,,,,,,,,,,,,,,,,,,,789.8124039630056,,,,,,,,,,,,,,AMP_prac,left,1.3172425759548787,6,,,right,0.5170277545548743,,,,,,,,,,,,,,,,,,,,,,,,,1016,2019_May_17_1256,mf_amp_cond1,3.0.7,59.98182042445167,
safe,&&&&,images/symbols/symbol_74.png,condition_files/AMP_rep2.csv,left,care.virtue,,,,,,,,,,,,,,0,2,2,1,0,67,67,67,,,,,,,,,,,,,,,,,,,,,790.8793584480009,,,,,,,,,,,,,,AMP_prac,left,1.3172425759548787,6,,,right,0.8337825082562631,,,,,,,,,,,,,,,,,,,,,,,,,1016,2019_May_17_1256,mf_amp_cond1,3.0.7,59.98182042445167,
free,&&&&,images/symbols/symbol_59.png,condition_files/AMP_rep2.csv,left,fairness.virtue,,,,,,,,,,,,,,0,2,2,1,0,68,68,68,,,,,,,,,,,,,,,,,,,,,791.6795639683842,,,,,,,,,,,,,,AMP_prac,left,1.3172425759548787,6,,,left,0.5670556736295111,,,,,,,,,,,,,,,,,,,,,,,,,1016,2019_May_17_1256,mf_amp_cond1,3.0.7,59.98182042445167,
praised,&&&&&&&,images/symbols/symbol_31.png,condition_files/AMP_rep2.csv,left,loyalty.virtue,,,,,,,,,,,,,,0,2,2,1,0,69,69,69,,,,,,,,,,,,,,,,,,,,,792.6298115518002,,,,,,,,,,,,,,AMP_prac,left,1.3172425759548787,6,,,left,0.7331621946359519,,,,,,,,,,,,,,,,,,,,,,,,,1016,2019_May_17_1256,mf_amp_cond1,3.0.7,59.98182042445167,
death,&&&&&,images/symbols/symbol_64.png,condition_files/AMP_rep2.csv,right,care.vice,,,,,,,,,,,,,,0,2,2,1,0,70,70,70,,,,,,,,,,,,,,,,,,,,,793.296849938386,,,,,,,,,,,,,,AMP_prac,left,1.3172425759548787,6,,,right,0.4494016720709624,,,,,,,,,,,,,,,,,,,,,,,,,1016,2019_May_17_1256,mf_amp_cond1,3.0.7,59.98182042445167,
treas,&&&&&,images/symbols/symbol_82.png,condition_files/AMP_rep2.csv,None,nonword,,,,,,,,,,,,,,0,2,2,1,0,71,71,71,,,,,,,,,,,,,,,,,,,,,793.9634899849043,,,,,,,,,,,,,,AMP_prac,left,1.3172425759548787,6,,,left,0.43368103096145205,,,,,,,,,,,,,,,,,,,,,,,,,1016,2019_May_17_1256,mf_amp_cond1,3.0.7,59.98182042445167,
ability,&&&&&&&,images/symbols/symbol_53.png,condition_files/AMP_rep2.csv,left,authority.virtue,,,,,,,,,,,,,,0,2,2,1,0,72,72,72,,,,,,,,,,,,,,,,,,,,,794.7303487977188,,,,,,,,,,,,,,AMP_prac,left,1.3172425759548787,6,,,right,0.548858717244002,,,,,,,,,,,,,,,,,,,,,,,,,1016,2019_May_17_1256,mf_amp_cond1,3.0.7,59.98182042445167,
win,&&&,images/symbols/symbol_75.png,condition_files/AMP_rep2.csv,left,fairness.virtue,,,,,,,,,,,,,,0,2,2,1,0,73,73,73,,,,,,,,,,,,,,,,,,,,,795.3971892971749,,,,,,,,,,,,,,AMP_prac,left,1.3172425759548787,6,,,left,0.44922848073474597,,,,,,,,,,,,,,,,,,,,,,,,,1016,2019_May_17_1256,mf_amp_cond1,3.0.7,59.98182042445167,
ban,&&&,images/symbols/symbol_14.png,condition_files/AMP_rep2.csv,right,loyalty.vice,,,,,,,,,,,,,,0,2,2,1,0,74,74,74,,,,,,,,,,,,,,,,,,,,,796.0973822772066,,,,,,,,,,,,,,AMP_prac,left,1.3172425759548787,6,,,left,0.48235485042096116,,,,,,,,,,,,,,,,,,,,,,,,,1016,2019_May_17_1256,mf_amp_cond1,3.0.7,59.98182042445167,
faith,&&&&&,images/symbols/symbol_60.png,condition_files/AMP_rep2.csv,left,sanctity.virtue,,,,,,,,,,,,,,0,2,2,1,0,75,75,75,,,,,,,,,,,,,,,,,,,,,796.7475473381637,,,,,,,,,,,,,,AMP_prac,left,1.3172425759548787,6,,,left,0.4326219980575843,,,,,,,,,,,,,,,,,,,,,,,,,1016,2019_May_17_1256,mf_amp_cond1,3.0.7,59.98182042445167,
sharing,&&&&&&&,images/symbols/symbol_57.png,condition_files/AMP_rep2.csv,left,loyalty.virtue,,,,,,,,,,,,,,0,2,2,1,0,76,76,76,,,,,,,,,,,,,,,,,,,,,797.9311991029972,,,,,,,,,,,,,,AMP_prac,left,1.3172425759548787,6,,,left,0.9659598856815137,,,,,,,,,,,,,,,,,,,,,,,,,1016,2019_May_17_1256,mf_amp_cond1,3.0.7,59.98182042445167,
groups,&&&&&&,images/symbols/symbol_77.png,condition_files/AMP_rep2.csv,right,loyalty.vice,,,,,,,,,,,,,,0,2,2,1,0,77,77,77,,,,,,,,,,,,,,,,,,,,,798.864775417358,,,,,,,,,,,,,,AMP_prac,left,1.3172425759548787,6,,,right,0.716147108701989,,,,,,,,,,,,,,,,,,,,,,,,,1016,2019_May_17_1256,mf_amp_cond1,3.0.7,59.98182042445167,
peizz,&&&&&,images/symbols/symbol_66.png,condition_files/AMP_rep2.csv,None,nonword,,,,,,,,,,,,,,0,2,2,1,0,78,78,78,,,,,,,,,,,,,,,,,,,,,799.8983761388663,,,,,,,,,,,,,,AMP_prac,left,1.3172425759548787,6,,,left,0.8162035883287899,,,,,,,,,,,,,,,,,,,,,,,,,1016,2019_May_17_1256,mf_amp_cond1,3.0.7,59.98182042445167,
growth,&&&&&&,images/symbols/symbol_40.png,condition_files/AMP_rep2.csv,left,care.virtue,,,,,,,,,,,,,,0,2,2,1,0,79,79,79,,,,,,,,,,,,,,,,,,,,,800.7486192000651,,,,,,,,,,,,,,AMP_prac,left,1.3172425759548787,6,,,right,0.6326207793026697,,,,,,,,,,,,,,,,,,,,,,,,,1016,2019_May_17_1256,mf_amp_cond1,3.0.7,59.98182042445167,
trust,&&&&&,images/symbols/symbol_70.png,condition_files/AMP_rep2.csv,left,authority.virtue,,,,,,,,,,,,,,0,2,2,1,0,80,80,80,,,,,,,,,,,,,,,,,,,,,801.5488263240695,,,,,,,,,,,,,,AMP_prac,left,1.3172425759548787,6,,,right,0.5827266024134587,,,,,,,,,,,,,,,,,,,,,,,,,1016,2019_May_17_1256,mf_amp_cond1,3.0.7,59.98182042445167,
freedom,&&&&&&&,images/symbols/symbol_44.png,condition_files/AMP_rep2.csv,left,sanctity.virtue,,,,,,,,,,,,,,0,2,2,1,0,81,81,81,,,,,,,,,,,,,,,,,,,,,802.3490126009565,,,,,,,,,,,,,,AMP_prac,left,1.3172425759548787,6,,,right,0.5825906151585514,,,,,,,,,,,,,,,,,,,,,,,,,1016,2019_May_17_1256,mf_amp_cond1,3.0.7,59.98182042445167,
,,,condition_files/AMP_rep2.csv,,,,,,,,,,,,,,,,0,2,2,1,,,,,,,,,,,,,,,,,,,,,,,,,,,,,,,,,,,,,,,,,,,,,,,right,6.485253560123965,,,,,,,,,,,,,,,,,,,,,,,1016,2019_May_17_1256,mf_amp_cond1,3.0.7,59.98182042445167,
love,&&&&,images/symbols/symbol_11.png,condition_files/AMP_rep4.csv,left,loyalty.virtue,,,,,,,,,,,,,,0,3,3,3,0,0,0,0,,,,,,,,,,,,,,,,,,,,,811.2348240295978,,,,,,,,,,,,,,AMP_prac,left,1.3172425759548787,6,,,left,2.166153026089887,,,,,,,,,,,,,,,,,,,,,,,,,1016,2019_May_17_1256,mf_amp_cond1,3.0.7,59.98182042445167,
energy,&&&&&&,images/symbols/symbol_80.png,condition_files/AMP_rep4.csv,left,sanctity.virtue,,,,,,,,,,,,,,0,3,3,3,0,1,1,1,,,,,,,,,,,,,,,,,,,,,811.8681937010406,,,,,,,,,,,,,,AMP_prac,left,1.3172425759548787,6,,,left,0.4164571532601258,,,,,,,,,,,,,,,,,,,,,,,,,1016,2019_May_17_1256,mf_amp_cond1,3.0.7,59.98182042445167,
fighters,&&&&&&&&,images/symbols/symbol_49.png,condition_files/AMP_rep4.csv,right,authority.vice,,,,,,,,,,,,,,0,3,3,3,0,2,2,2,,,,,,,,,,,,,,,,,,,,,812.4683430304576,,,,,,,,,,,,,,AMP_prac,left,1.3172425759548787,6,,,left,0.3669956339726923,,,,,,,,,,,,,,,,,,,,,,,,,1016,2019_May_17_1256,mf_amp_cond1,3.0.7,59.98182042445167,
honored,&&&&&&&,images/symbols/symbol_2.png,condition_files/AMP_rep4.csv,left,authority.virtue,,,,,,,,,,,,,,0,3,3,3,0,3,3,3,,,,,,,,,,,,,,,,,,,,,813.1351780775731,,,,,,,,,,,,,,AMP_prac,left,1.3172425759548787,6,,,left,0.44883302721427754,,,,,,,,,,,,,,,,,,,,,,,,,1016,2019_May_17_1256,mf_amp_cond1,3.0.7,59.98182042445167,
encourage,&&&&&&&&&,images/symbols/symbol_37.png,condition_files/AMP_rep4.csv,left,authority.virtue,,,,,,,,,,,,,,0,3,3,3,0,4,4,4,,,,,,,,,,,,,,,,,,,,,814.9523287658958,,,,,,,,,,,,,,AMP_prac,left,1.3172425759548787,6,,,left,1.5994276988785714,,,,,,,,,,,,,,,,,,,,,,,,,1016,2019_May_17_1256,mf_amp_cond1,3.0.7,59.98182042445167,
prison,&&&&&&,images/symbols/symbol_76.png,condition_files/AMP_rep4.csv,right,fairness.vice,,,,,,,,,,,,,,0,3,3,3,0,5,5,5,,,,,,,,,,,,,,,,,,,,,815.6358350820956,,,,,,,,,,,,,,AMP_prac,left,1.3172425759548787,6,,,left,0.4662939204426948,,,,,,,,,,,,,,,,,,,,,,,,,1016,2019_May_17_1256,mf_amp_cond1,3.0.7,59.98182042445167,
gun,&&&,images/symbols/symbol_13.png,condition_files/AMP_rep4.csv,right,authority.vice,,,,,,,,,,,,,,0,3,3,3,0,6,6,6,,,,,,,,,,,,,,,,,,,,,816.4360518278263,,,,,,,,,,,,,,AMP_prac,left,1.3172425759548787,6,,,right,0.5827015858958475,,,,,,,,,,,,,,,,,,,,,,,,,1016,2019_May_17_1256,mf_amp_cond1,3.0.7,59.98182042445167,
friends,&&&&&&&,images/symbols/symbol_63.png,condition_files/AMP_rep4.csv,left,loyalty.virtue,,,,,,,,,,,,,,0,3,3,3,0,7,7,7,,,,,,,,,,,,,,,,,,,,,817.086229717781,,,,,,,,,,,,,,AMP_prac,left,1.3172425759548787,6,,,right,0.4170152142178267,,,,,,,,,,,,,,,,,,,,,,,,,1016,2019_May_17_1256,mf_amp_cond1,3.0.7,59.98182042445167,
stealde,&&&&&&&,images/symbols/symbol_22.png,condition_files/AMP_rep4.csv,None,nonword,,,,,,,,,,,,,,0,3,3,3,0,8,8,8,,,,,,,,,,,,,,,,,,,,,817.6697311910248,,,,,,,,,,,,,,AMP_prac,left,1.3172425759548787,6,,,right,0.3652759082178818,,,,,,,,,,,,,,,,,,,,,,,,,1016,2019_May_17_1256,mf_amp_cond1,3.0.7,59.98182042445167,
victims,&&&&&&&,images/symbols/symbol_41.png,condition_files/AMP_rep4.csv,right,care.vice,,,,,,,,,,,,,,0,3,3,3,0,9,9,9,,,,,,,,,,,,,,,,,,,,,818.253194818768,,,,,,,,,,,,,,AMP_prac,left,1.3172425759548787,6,,,right,0.3664500812883489,,,,,,,,,,,,,,,,,,,,,,,,,1016,2019_May_17_1256,mf_amp_cond1,3.0.7,59.98182042445167,
violations,&&&&&&&&&&,images/symbols/symbol_28.png,condition_files/AMP_rep4.csv,right,sanctity.vice,,,,,,,,,,,,,,0,3,3,3,0,10,10,10,,,,,,,,,,,,,,,,,,,,,818.9033656527608,,,,,,,,,,,,,,AMP_prac,left,1.3172425759548787,6,,,left,0.4326078861777205,,,,,,,,,,,,,,,,,,,,,,,,,1016,2019_May_17_1256,mf_amp_cond1,3.0.7,59.98182042445167,
protect,&&&&&&&,images/symbols/symbol_19.png,condition_files/AMP_rep4.csv,left,fairness.virtue,,,,,,,,,,,,,,0,3,3,3,0,11,11,11,,,,,,,,,,,,,,,,,,,,,819.8202690944308,,,,,,,,,,,,,,AMP_prac,left,1.3172425759548787,6,,,left,0.699369038324221,,,,,,,,,,,,,,,,,,,,,,,,,1016,2019_May_17_1256,mf_amp_cond1,3.0.7,59.98182042445167,
celebrated,&&&&&&&&&&,images/symbols/symbol_51.png,condition_files/AMP_rep4.csv,left,authority.virtue,,,,,,,,,,,,,,0,3,3,3,0,12,12,12,,,,,,,,,,,,,,,,,,,,,820.687161615424,,,,,,,,,,,,,,AMP_prac,left,1.3172425759548787,6,,,left,0.6494998779671732,,,,,,,,,,,,,,,,,,,,,,,,,1016,2019_May_17_1256,mf_amp_cond1,3.0.7,59.98182042445167,
threatened,&&&&&&&&&&,images/symbols/symbol_56.png,condition_files/AMP_rep4.csv,right,fairness.vice,,,,,,,,,,,,,,0,3,3,3,0,13,13,13,,,,,,,,,,,,,,,,,,,,,821.4207253573695,,,,,,,,,,,,,,AMP_prac,left,1.3172425759548787,6,,,right,0.5004280070861569,,,,,,,,,,,,,,,,,,,,,,,,,1016,2019_May_17_1256,mf_amp_cond1,3.0.7,59.98182042445167,
abuse,&&&&&,images/symbols/symbol_65.png,condition_files/AMP_rep4.csv,right,sanctity.vice,,,,,,,,,,,,,,0,3,3,3,0,14,14,14,,,,,,,,,,,,,,,,,,,,,822.137581267627,,,,,,,,,,,,,,AMP_prac,left,1.3172425759548787,6,,,right,0.49872784555191174,,,,,,,,,,,,,,,,,,,,,,,,,1016,2019_May_17_1256,mf_amp_cond1,3.0.7,59.98182042445167,
promised,&&&&&&&&,images/symbols/symbol_58.png,condition_files/AMP_rep4.csv,left,loyalty.virtue,,,,,,,,,,,,,,0,3,3,3,0,15,15,15,,,,,,,,,,,,,,,,,,,,,822.8710799024702,,,,,,,,,,,,,,AMP_prac,left,1.3172425759548787,6,,,left,0.5160626939759823,,,,,,,,,,,,,,,,,,,,,,,,,1016,2019_May_17_1256,mf_amp_cond1,3.0.7,59.98182042445167,
care,&&&&,images/symbols/symbol_26.png,condition_files/AMP_rep4.csv,left,care.virtue,,,,,,,,,,,,,,0,3,3,3,0,16,16,16,,,,,,,,,,,,,,,,,,,,,823.754662294552,,,,,,,,,,,,,,AMP_prac,left,1.3172425759548787,6,,,right,0.6659694112022407,,,,,,,,,,,,,,,,,,,,,,,,,1016,2019_May_17_1256,mf_amp_cond1,3.0.7,59.98182042445167,
promote,&&&&&&&,images/symbols/symbol_73.png,condition_files/AMP_rep4.csv,left,sanctity.virtue,,,,,,,,,,,,,,0,3,3,3,0,17,17,17,,,,,,,,,,,,,,,,,,,,,824.4214880406653,,,,,,,,,,,,,,AMP_prac,left,1.3172425759548787,6,,,right,0.44911975506693125,,,,,,,,,,,,,,,,,,,,,,,,,1016,2019_May_17_1256,mf_amp_cond1,3.0.7,59.98182042445167,
agreement,&&&&&&&&&,images/symbols/symbol_32.png,condition_files/AMP_rep4.csv,left,fairness.virtue,,,,,,,,,,,,,,0,3,3,3,0,18,18,18,,,,,,,,,,,,,,,,,,,,,825.0549747766199,,,,,,,,,,,,,,AMP_prac,left,1.3172425759548787,6,,,right,0.41589363999082707,,,,,,,,,,,,,,,,,,,,,,,,,1016,2019_May_17_1256,mf_amp_cond1,3.0.7,59.98182042445167,
praise,&&&&&&,images/symbols/symbol_46.png,condition_files/AMP_rep4.csv,left,authority.virtue,,,,,,,,,,,,,,0,3,3,3,0,19,19,19,,,,,,,,,,,,,,,,,,,,,825.7218111066322,,,,,,,,,,,,,,AMP_prac,left,1.3172425759548787,6,,,right,0.44930353031668346,,,,,,,,,,,,,,,,,,,,,,,,,1016,2019_May_17_1256,mf_amp_cond1,3.0.7,59.98182042445167,
compassion,&&&&&&&&&&,images/symbols/symbol_50.png,condition_files/AMP_rep4.csv,left,care.virtue,,,,,,,,,,,,,,0,3,3,3,0,20,20,20,,,,,,,,,,,,,,,,,,,,,826.3553292736033,,,,,,,,,,,,,,AMP_prac,left,1.3172425759548787,6,,,right,0.4156951114273397,,,,,,,,,,,,,,,,,,,,,,,,,1016,2019_May_17_1256,mf_amp_cond1,3.0.7,59.98182042445167,
credit,&&&&&&,images/symbols/symbol_47.png,condition_files/AMP_rep4.csv,left,fairness.virtue,,,,,,,,,,,,,,0,3,3,3,0,21,21,21,,,,,,,,,,,,,,,,,,,,,826.9054750590149,,,,,,,,,,,,,,AMP_prac,left,1.3172425759548787,6,,,right,0.33267809280368965,,,,,,,,,,,,,,,,,,,,,,,,,1016,2019_May_17_1256,mf_amp_cond1,3.0.7,59.98182042445167,
rebels,&&&&&&,images/symbols/symbol_5.png,condition_files/AMP_rep4.csv,right,authority.vice,,,,,,,,,,,,,,0,3,3,3,0,22,22,22,,,,,,,,,,,,,,,,,,,,,827.53896564366,,,,,,,,,,,,,,AMP_prac,left,1.3172425759548787,6,,,right,0.41604951219051145,,,,,,,,,,,,,,,,,,,,,,,,,1016,2019_May_17_1256,mf_amp_cond1,3.0.7,59.98182042445167,
spynze,&&&&&&,images/symbols/symbol_43.png,condition_files/AMP_rep4.csv,None,nonword,,,,,,,,,,,,,,0,3,3,3,0,23,23,23,,,,,,,,,,,,,,,,,,,,,828.172467132943,,,,,,,,,,,,,,AMP_prac,left,1.3172425759548787,6,,,right,0.4003391342703253,,,,,,,,,,,,,,,,,,,,,,,,,1016,2019_May_17_1256,mf_amp_cond1,3.0.7,59.98182042445167,
army,&&&&,images/symbols/symbol_33.png,condition_files/AMP_rep4.csv,right,loyalty.vice,,,,,,,,,,,,,,0,3,3,3,0,24,24,24,,,,,,,,,,,,,,,,,,,,,829.156044425501,,,,,,,,,,,,,,AMP_prac,left,1.3172425759548787,6,,,left,0.7653889315988636,,,,,,,,,,,,,,,,,,,,,,,,,1016,2019_May_17_1256,mf_amp_cond1,3.0.7,59.98182042445167,
rejected,&&&&&&&&,images/symbols/symbol_10.png,condition_files/AMP_rep4.csv,right,authority.vice,,,,,,,,,,,,,,0,3,3,3,0,25,25,25,,,,,,,,,,,,,,,,,,,,,829.9062656453607,,,,,,,,,,,,,,AMP_prac,left,1.3172425759548787,6,,,left,0.5327817510260502,,,,,,,,,,,,,,,,,,,,,,,,,1016,2019_May_17_1256,mf_amp_cond1,3.0.7,59.98182042445167,
loyalty,&&&&&&&,images/symbols/symbol_52.png,condition_files/AMP_rep4.csv,left,loyalty.virtue,,,,,,,,,,,,,,0,3,3,3,0,26,26,26,,,,,,,,,,,,,,,,,,,,,830.8231485606375,,,,,,,,,,,,,,AMP_prac,left,1.3172425759548787,6,,,left,0.6837346721731592,,,,,,,,,,,,,,,,,,,,,,,,,1016,2019_May_17_1256,mf_amp_cond1,3.0.7,59.98182042445167,
integrity,&&&&&&&&&,images/symbols/symbol_20.png,condition_files/AMP_rep4.csv,left,fairness.virtue,,,,,,,,,,,,,,0,3,3,3,0,27,27,27,,,,,,,,,,,,,,,,,,,,,831.5233607841656,,,,,,,,,,,,,,AMP_prac,left,1.3172425759548787,6,,,right,0.48254247436125297,,,,,,,,,,,,,,,,,,,,,,,,,1016,2019_May_17_1256,mf_amp_cond1,3.0.7,59.98182042445167,
noost,&&&&&,images/symbols/symbol_61.png,condition_files/AMP_rep4.csv,None,nonword,,,,,,,,,,,,,,0,3,3,3,0,28,28,28,,,,,,,,,,,,,,,,,,,,,832.2235467082646,,,,,,,,,,,,,,AMP_prac,left,1.3172425759548787,6,,,right,0.48273426773084793,,,,,,,,,,,,,,,,,,,,,,,,,1016,2019_May_17_1256,mf_amp_cond1,3.0.7,59.98182042445167,
illegal,&&&&&&&,images/symbols/symbol_7.png,condition_files/AMP_rep4.csv,right,fairness.vice,,,,,,,,,,,,,,0,3,3,3,0,29,29,29,,,,,,,,,,,,,,,,,,,,,832.8736976573418,,,,,,,,,,,,,,AMP_prac,left,1.3172425759548787,6,,,right,0.4323593245499069,,,,,,,,,,,,,,,,,,,,,,,,,1016,2019_May_17_1256,mf_amp_cond1,3.0.7,59.98182042445167,
lies,&&&&,images/symbols/symbol_29.png,condition_files/AMP_rep4.csv,right,fairness.vice,,,,,,,,,,,,,,0,3,3,3,0,30,30,30,,,,,,,,,,,,,,,,,,,,,833.4905195387109,,,,,,,,,,,,,,AMP_prac,left,1.3172425759548787,6,,,right,0.39912326699413825,,,,,,,,,,,,,,,,,,,,,,,,,1016,2019_May_17_1256,mf_amp_cond1,3.0.7,59.98182042445167,
critics,&&&&&&&,images/symbols/symbol_69.png,condition_files/AMP_rep4.csv,right,loyalty.vice,,,,,,,,,,,,,,0,3,3,3,0,31,31,31,,,,,,,,,,,,,,,,,,,,,834.3240756153391,,,,,,,,,,,,,,AMP_prac,left,1.3172425759548787,6,,,right,0.6158269934094278,,,,,,,,,,,,,,,,,,,,,,,,,1016,2019_May_17_1256,mf_amp_cond1,3.0.7,59.98182042445167,
accused,&&&&&&&,images/symbols/symbol_1.png,condition_files/AMP_rep4.csv,right,fairness.vice,,,,,,,,,,,,,,0,3,3,3,0,32,32,32,,,,,,,,,,,,,,,,,,,,,835.00758962892,,,,,,,,,,,,,,AMP_prac,left,1.3172425759548787,6,,,right,0.46583945356542245,,,,,,,,,,,,,,,,,,,,,,,,,1016,2019_May_17_1256,mf_amp_cond1,3.0.7,59.98182042445167,
civilians,&&&&&&&&&,images/symbols/symbol_17.png,condition_files/AMP_rep4.csv,right,care.vice,,,,,,,,,,,,,,0,3,3,3,0,33,33,33,,,,,,,,,,,,,,,,,,,,,835.6077424863033,,,,,,,,,,,,,,AMP_prac,left,1.3172425759548787,6,,,right,0.3826133224647492,,,,,,,,,,,,,,,,,,,,,,,,,1016,2019_May_17_1256,mf_amp_cond1,3.0.7,59.98182042445167,
shot,&&&&,images/symbols/symbol_78.png,condition_files/AMP_rep4.csv,right,care.vice,,,,,,,,,,,,,,0,3,3,3,0,34,34,34,,,,,,,,,,,,,,,,,,,,,836.2745894002437,,,,,,,,,,,,,,AMP_prac,left,1.3172425759548787,6,,,right,0.4492531765426975,,,,,,,,,,,,,,,,,,,,,,,,,1016,2019_May_17_1256,mf_amp_cond1,3.0.7,59.98182042445167,
blamed,&&&&&&,images/symbols/symbol_8.png,condition_files/AMP_rep4.csv,right,loyalty.vice,,,,,,,,,,,,,,0,3,3,3,0,35,35,35,,,,,,,,,,,,,,,,,,,,,836.9247624793206,,,,,,,,,,,,,,AMP_prac,left,1.3172425759548787,6,,,right,0.43276151329337154,,,,,,,,,,,,,,,,,,,,,,,,,1016,2019_May_17_1256,mf_amp_cond1,3.0.7,59.98182042445167,
respect,&&&&&&&,images/symbols/symbol_27.png,condition_files/AMP_rep4.csv,left,sanctity.virtue,,,,,,,,,,,,,,0,3,3,3,0,36,36,36,,,,,,,,,,,,,,,,,,,,,837.7416370236897,,,,,,,,,,,,,,AMP_prac,left,1.3172425759548787,6,,,right,0.5992747131967917,,,,,,,,,,,,,,,,,,,,,,,,,1016,2019_May_17_1256,mf_amp_cond1,3.0.7,59.98182042445167,
unpleasant,&&&&&&&&&,images/symbols/symbol_16.png,condition_files/AMP_rep4.csv,left,control,,,,,,,,,,,,,,0,3,3,3,0,37,37,37,,,,,,,,,,,,,,,,,,,,,838.3918068955245,,,,,,,,,,,,,,AMP_prac,left,1.3172425759548787,6,,,right,0.4328676731674932,,,,,,,,,,,,,,,,,,,,,,,,,1016,2019_May_17_1256,mf_amp_cond1,3.0.7,59.98182042445167,
progress,&&&&&&&&,images/symbols/symbol_42.png,condition_files/AMP_rep4.csv,left,authority.virtue,,,,,,,,,,,,,,0,3,3,3,0,38,38,38,,,,,,,,,,,,,,,,,,,,,839.0586685627932,,,,,,,,,,,,,,AMP_prac,left,1.3172425759548787,6,,,right,0.44855527962499764,,,,,,,,,,,,,,,,,,,,,,,,,1016,2019_May_17_1256,mf_amp_cond1,3.0.7,59.98182042445167,
strength,&&&&&&&&,images/symbols/symbol_45.png,condition_files/AMP_rep4.csv,left,sanctity.virtue,,,,,,,,,,,,,,0,3,3,3,0,39,39,39,,,,,,,,,,,,,,,,,,,,,840.1422725075827,,,,,,,,,,,,,,AMP_prac,left,1.3172425759548787,6,,,left,0.8661012931843288,,,,,,,,,,,,,,,,,,,,,,,,,1016,2019_May_17_1256,mf_amp_cond1,3.0.7,59.98182042445167,
crarft,&&&&&&,images/symbols/symbol_71.png,condition_files/AMP_rep4.csv,None,nonword,,,,,,,,,,,,,,0,3,3,3,0,40,40,40,,,,,,,,,,,,,,,,,,,,,840.7257803953253,,,,,,,,,,,,,,AMP_prac,left,1.3172425759548787,6,,,left,0.35034489128156565,,,,,,,,,,,,,,,,,,,,,,,,,1016,2019_May_17_1256,mf_amp_cond1,3.0.7,59.98182042445167,
betrayal,&&&&&&&&,images/symbols/symbol_15.png,condition_files/AMP_rep4.csv,right,loyalty.vice,,,,,,,,,,,,,,0,3,3,3,0,41,41,41,,,,,,,,,,,,,,,,,,,,,841.0425021143892,,,,,,,,,,,,,,AMP_prac,left,1.3172425759548787,6,,,left,0.09858788129349705,,,,,,,,,,,,,,,,,,,,,,,,,1016,2019_May_17_1256,mf_amp_cond1,3.0.7,59.98182042445167,
police,&&&&&&,images/symbols/symbol_68.png,condition_files/AMP_rep4.csv,right,authority.vice,,,,,,,,,,,,,,0,3,3,3,0,42,42,42,,,,,,,,,,,,,,,,,,,,,841.442635984873,,,,,,,,,,,,,,AMP_prac,left,1.3172425759548787,6,,,left,0.16697247765841894,,,,,,,,,,,,,,,,,,,,,,,,,1016,2019_May_17_1256,mf_amp_cond1,3.0.7,59.98182042445167,
refused,&&&&&&&,images/symbols/symbol_35.png,condition_files/AMP_rep4.csv,right,authority.vice,,,,,,,,,,,,,,0,3,3,3,0,43,43,43,,,,,,,,,,,,,,,,,,,,,842.2261436160334,,,,,,,,,,,,,,AMP_prac,left,1.3172425759548787,6,,,left,0.5654135632503312,,,,,,,,,,,,,,,,,,,,,,,,,1016,2019_May_17_1256,mf_amp_cond1,3.0.7,59.98182042445167,
daizz,&&&&&,images/symbols/symbol_6.png,condition_files/AMP_rep4.csv,None,nonword,,,,,,,,,,,,,,0,3,3,3,0,44,44,44,,,,,,,,,,,,,,,,,,,,,843.4598245828529,,,,,,,,,,,,,,AMP_prac,left,1.3172425759548787,6,,,left,1.0005073864449514,,,,,,,,,,,,,,,,,,,,,,,,,1016,2019_May_17_1256,mf_amp_cond1,3.0.7,59.98182042445167,
serial,&&&&&&,images/symbols/symbol_12.png,condition_files/AMP_rep4.csv,right,sanctity.vice,,,,,,,,,,,,,,0,3,3,3,0,45,45,45,,,,,,,,,,,,,,,,,,,,,844.0599556309608,,,,,,,,,,,,,,AMP_prac,left,1.3172425759548787,6,,,left,0.3820289620925905,,,,,,,,,,,,,,,,,,,,,,,,,1016,2019_May_17_1256,mf_amp_cond1,3.0.7,59.98182042445167,
forced,&&&&&&,images/symbols/symbol_30.png,condition_files/AMP_rep4.csv,right,fairness.vice,,,,,,,,,,,,,,0,3,3,3,0,46,46,46,,,,,,,,,,,,,,,,,,,,,844.9435453997139,,,,,,,,,,,,,,AMP_prac,left,1.3172425759548787,6,,,left,0.6661214347113855,,,,,,,,,,,,,,,,,,,,,,,,,1016,2019_May_17_1256,mf_amp_cond1,3.0.7,59.98182042445167,
increase,&&&&&&&&,images/symbols/symbol_81.png,condition_files/AMP_rep4.csv,left,care.virtue,,,,,,,,,,,,,,0,3,3,3,0,47,47,47,,,,,,,,,,,,,,,,,,,,,845.4269846202951,,,,,,,,,,,,,,AMP_prac,left,1.3172425759548787,6,,,left,0.26588653594080824,,,,,,,,,,,,,,,,,,,,,,,,,1016,2019_May_17_1256,mf_amp_cond1,3.0.7,59.98182042445167,
snoze,&&&&&,images/symbols/symbol_25.png,condition_files/AMP_rep4.csv,None,nonword,,,,,,,,,,,,,,0,3,3,3,0,48,48,48,,,,,,,,,,,,,,,,,,,,,846.2605467906978,,,,,,,,,,,,,,AMP_prac,left,1.3172425759548787,6,,,left,0.6159626599546755,,,,,,,,,,,,,,,,,,,,,,,,,1016,2019_May_17_1256,mf_amp_cond1,3.0.7,59.98182042445167,
conspiracy,&&&&&&&&&&,images/symbols/symbol_79.png,condition_files/AMP_rep4.csv,right,sanctity.vice,,,,,,,,,,,,,,0,3,3,3,0,49,49,49,,,,,,,,,,,,,,,,,,,,,846.8107191962481,,,,,,,,,,,,,,AMP_prac,left,1.3172425759548787,6,,,left,0.33252029625873547,,,,,,,,,,,,,,,,,,,,,,,,,1016,2019_May_17_1256,mf_amp_cond1,3.0.7,59.98182042445167,
racist,&&&&&&,images/symbols/symbol_34.png,condition_files/AMP_rep4.csv,right,sanctity.vice,,,,,,,,,,,,,,0,3,3,3,0,50,50,50,,,,,,,,,,,,,,,,,,,,,847.3274855601776,,,,,,,,,,,,,,AMP_prac,left,1.3172425759548787,6,,,left,0.299149534344906,,,,,,,,,,,,,,,,,,,,,,,,,1016,2019_May_17_1256,mf_amp_cond1,3.0.7,59.98182042445167,
