words,mask,masks,symbols,conditionfile,corr_ans,category,LDT_trials_cond2.thisRepN,LDT_trials_cond2.thisTrialN,LDT_trials_cond2.thisN,LDT_trials_cond2.thisIndex,LDT_pracs_1.thisRepN,LDT_pracs_1.thisTrialN,LDT_pracs_1.thisN,LDT_pracs_1.thisIndex,LDT_trials_1.thisRepN,LDT_trials_1.thisTrialN,LDT_trials_1.thisN,LDT_trials_1.thisIndex,logo_trials.thisRepN,logo_trials.thisTrialN,logo_trials.thisN,logo_trials.thisIndex,AMP_pracs.thisRepN,AMP_pracs.thisTrialN,AMP_pracs.thisN,AMP_pracs.thisIndex,trials_loop.thisRepN,trials_loop.thisTrialN,trials_loop.thisN,trials_loop.thisIndex,AMP_trials.thisRepN,AMP_trials.thisTrialN,AMP_trials.thisN,AMP_trials.thisIndex,memtask_trials.thisRepN,memtask_trials.thisTrialN,memtask_trials.thisN,memtask_trials.thisIndex,LDT_cond1.thisRepN,LDT_cond1.thisTrialN,LDT_cond1.thisN,LDT_cond1.thisIndex,begin_key.keys,begin_key.rt,key_resp_instr.keys,key_resp_instr.rt,exp_time,key_resp_LDT_instr.keys,key_resp_LDT_instr.rt,resp_LDT_prac.keys,resp_LDT_prac.rt,task,keypress,RT,corr,resp_LDT_ready.keys,resp_LDT_ready.rt,resp_LDT_trial.keys,resp_LDT_trial.rt,LDT_rating.response,LDT_rating.rt,resp_sym_rate.keys,resp_sym_rate.rt,sym_resp_1.keys,sym_resp_1.rt,sym_resp_2.keys,sym_resp_2.rt,sym_resp_trial.keys,sym_resp_trial.rt,symbol_index,resp_AMP_ready1.keys,resp_AMP_ready1.rt,resp_AMP.keys,resp_AMP.rt,prime_dur,resp_AMP_ready.keys,resp_AMP_ready.rt,resp_AMP_trials.keys,resp_AMP_trials.rt,rest_key_resp.keys,rest_key_resp.rt,AMP_nonword_rating.response,AMP_nonword_rating.rt,AMP_word_rating.response,AMP_word_rating.rt,AMP_random_rating.response,AMP_random_rating.rt,key_resp_instr_memtask.keys,key_resp_instr_memtask.rt,resp_memtask.keys,resp_memtask.corr,resp_memtask.rt,participant ID,date,expName,psychopyVersion,frameRate,
,,,,,,,,,,,,,,,,,,,,,,,,,,,,,,,,,,,,,,,,,,,right,263.44350612023845,,,,,,,,,,,,,,,,,,,,,,,,,,,,,,,,,,,,,,,,,,,,,,,,,1017,2019_May_17_1257,mf_amp_cond1,3.0.7,59.991091331924856,
,,,,,,,,,,,,,,,,,,,,,,,,,,,,,,,,,,,,,,,,,,,,,right,1.0172291749622673,,,,,,,,,,,,,,,,,,,,,,,,,,,,,,,,,,,,,,,,,,,,,,,1017,2019_May_17_1257,mf_amp_cond1,3.0.7,59.991091331924856,
bisebell,&&&&&&&,,,,,,0,0,0,0,0,0,0,1,,,,,,,,,,,,,,,,,,,,,,,,,,,,,,,,,364.0747232628055,right,1.4506988949142396,right,2.717708768090233,LDT_prac,right,2.717708768090233,0,,,,,,,,,,,,,,,,,,,,,,,,,,,,,,,,,,,,,,1017,2019_May_17_1257,mf_amp_cond1,3.0.7,59.991091331924856,
keyboard,&&&&&&&,,,,,,0,0,0,0,0,1,1,0,,,,,,,,,,,,,,,,,,,,,,,,,,,,,,,,,367.2588821593672,,,left,1.2839539155829698,LDT_prac,left,1.2839539155829698,0,,,,,,,,,,,,,,,,,,,,,,,,,,,,,,,,,,,,,,1017,2019_May_17_1257,mf_amp_cond1,3.0.7,59.991091331924856,
,,,,,,,0,0,0,0,,,,,0,0,0,0,,,,,,,,,,,,,,,,,,,,,,,,,,,,,388.5152103162836,,,,,LDT_prac,left,1.2839539155829698,0,right,2.6510362424887717,left,0.9839155238587409,,,,,,,,,,,,,,,,,,,,,,,,,,,,,,,,,,1017,2019_May_17_1257,mf_amp_cond1,3.0.7,59.991091331924856,
,,,,,,,0,0,0,0,,,,,,,,,,,,,,,,,,,,,,,,,,,,,,,,,,,,,,,,,,,,,,,,,,7,8.488,,,,,,,,,,,,,,,,,,,,,,,,,,,,,,,,1017,2019_May_17_1257,mf_amp_cond1,3.0.7,59.991091331924856,
,,,,,,,,,,,,,,,,,,,,,,,,,,,,,,,,,,,,,,,,,,,,,,,,,,,,,,,,,,,,,,right,2.20089157554321,,,,,,,,,,,,,,,,,,,,,,,,,,,,,,1017,2019_May_17_1257,mf_amp_cond1,3.0.7,59.991091331924856,
,,,,,,,,,,,,,,,,,,,,,,,,,,,,,,,,,,,,,,,,,,,,,,,471.23889499530196,,,,,,,,,,,,,,,,,left,1.5007429798133671,,,,,,,,,,,,,,,,,,,,,,,,,,,,1017,2019_May_17_1257,mf_amp_cond1,3.0.7,59.991091331924856,
,,,,,,,,,,,,,,,,,,,,,,,,,,,,,,,,,,,,,,,,,,,,,,,,,,,,,,,,,,,,,,,,,,right,1.233958261553198,,,,,,,,,,,,,,,,,,,,,,,,,,1017,2019_May_17_1257,mf_amp_cond1,3.0.7,59.991091331924856,
,,,,,,,,,,,,,,,,,,,,,,,,,,,,,,,,,,,,,,,,,,,,,,,490.0109860925004,,,,,,,,,,,,,,,,,,,,,left,0.7813638304360211,78,right,1.6840846468694508,,,,,,,,,,,,,,,,,,,,,1017,2019_May_17_1257,mf_amp_cond1,3.0.7,59.991091331924856,
keyboard,,&&&&&&&&,images/symbols/symbol_40.png,,,,,,,,,,,,,,,,,,,,0,0,0,2,,,,,,,,,,,,,,,,,,,,,619.2655402710661,,,,,AMP_prac,left,0.7004436710849404,,,,,,,,,,,,,,,,,,,left,0.7004436710849404,1,,,,,,,,,,,,,,,,,,1017,2019_May_17_1257,mf_amp_cond1,3.0.7,59.991091331924856,
car,,&&&,images/symbols/symbol_9.png,,,,,,,,,,,,,,,,,,,,0,1,1,0,,,,,,,,,,,,,,,,,,,,,620.1490074412432,,,,,AMP_prac,right,0.6645288695581257,,,,,,,,,,,,,,,,,,,right,0.6645288695581257,1,,,,,,,,,,,,,,,,,,1017,2019_May_17_1257,mf_amp_cond1,3.0.7,59.991091331924856,
banana,,&&&&&&,images/symbols/symbol_68.png,,,,,,,,,,,,,,,,,,,,0,2,2,1,,,,,,,,,,,,,,,,,,,,,620.8658771698829,,,,,AMP_prac,left,0.48371554631739855,,,,,,,,,,,,,,,,,,,left,0.48371554631739855,1,,,,,,,,,,,,,,,,,,1017,2019_May_17_1257,mf_amp_cond1,3.0.7,59.991091331924856,
scarf,,&&&&&,images/symbols/symbol_54.png,,,,,,,,,,,,,,,,,,,,0,3,3,3,,,,,,,,,,,,,,,,,,,,,621.5327541308943,,,,,AMP_prac,left,0.4337160433642566,,,,,,,,,,,,,,,,,,,left,0.4337160433642566,1,,,,,,,,,,,,,,,,,,1017,2019_May_17_1257,mf_amp_cond1,3.0.7,59.991091331924856,
,,,,,,,,,,,,,,,,,,,,,,,,,,,,,,,,,,,,,,,,,,,,,,,,,,,,,,,,,,,,,,,,,,,,,,,,,,,,right,2.000840642955154,,,,,,,,,,,,,,,,1017,2019_May_17_1257,mf_amp_cond1,3.0.7,59.991091331924856,
trust,,&&&&&,images/symbols/symbol_16.png,condition_files/AMP_rep1.csv,left,authority.virtue,,,,,,,,,,,,,,,,,,,,,0,0,0,0,0,0,0,0,,,,,,,,,,,,,644.789656721754,,,,,AMP_prac,left,0.4337160433642566,,,,,,,,,,,,,,,,,,,,,1,,,right,0.983880884712562,,,,,,,,,,,,,,1017,2019_May_17_1257,mf_amp_cond1,3.0.7,59.991091331924856,
honored,,&&&&&&&,images/symbols/symbol_31.png,condition_files/AMP_rep1.csv,left,authority.virtue,,,,,,,,,,,,,,,,,,,,,0,0,0,0,0,1,1,1,,,,,,,,,,,,,645.5897379314993,,,,,AMP_prac,left,0.4337160433642566,,,,,,,,,,,,,,,,,,,,,1,,,left,0.5670793761964887,,,,,,,,,,,,,,1017,2019_May_17_1257,mf_amp_cond1,3.0.7,59.991091331924856,
cande,,&&&&&,images/symbols/symbol_14.png,condition_files/AMP_rep1.csv,None,nonword,,,,,,,,,,,,,,,,,,,,,0,0,0,0,0,2,2,2,,,,,,,,,,,,,646.6401848578826,,,,,AMP_prac,left,0.4337160433642566,,,,,,,,,,,,,,,,,,,,,1,,,right,0.8317745139356703,,,,,,,,,,,,,,1017,2019_May_17_1257,mf_amp_cond1,3.0.7,59.991091331924856,
suicide,,&&&&&&&,images/symbols/symbol_55.png,condition_files/AMP_rep1.csv,right,care.vice,,,,,,,,,,,,,,,,,,,,,0,0,0,0,0,3,3,3,,,,,,,,,,,,,647.37369361124,,,,,AMP_prac,left,0.4337160433642566,,,,,,,,,,,,,,,,,,,,,1,,,left,0.5005107684992254,,,,,,,,,,,,,,1017,2019_May_17_1257,mf_amp_cond1,3.0.7,59.991091331924856,
sexual,,&&&&&&,images/symbols/symbol_6.png,condition_files/AMP_rep1.csv,right,sanctity.vice,,,,,,,,,,,,,,,,,,,,,0,0,0,0,0,4,4,4,,,,,,,,,,,,,647.9904742080253,,,,,AMP_prac,left,0.4337160433642566,,,,,,,,,,,,,,,,,,,,,1,,,right,0.3980106811504811,,,,,,,,,,,,,,1017,2019_May_17_1257,mf_amp_cond1,3.0.7,59.991091331924856,
illegal,,&&&&&&&,images/symbols/symbol_9.png,condition_files/AMP_rep1.csv,right,fairness.vice,,,,,,,,,,,,,,,,,,,,,0,0,0,0,0,5,5,5,,,,,,,,,,,,,648.607316385489,,,,,AMP_prac,left,0.4337160433642566,,,,,,,,,,,,,,,,,,,,,1,,,left,0.39894690294750035,,,,,,,,,,,,,,1017,2019_May_17_1257,mf_amp_cond1,3.0.7,59.991091331924856,
peaceful,,&&&&&&&&,images/symbols/symbol_73.png,condition_files/AMP_rep1.csv,left,authority.virtue,,,,,,,,,,,,,,,,,,,,,0,0,0,0,0,6,6,6,,,,,,,,,,,,,649.2741625560448,,,,,AMP_prac,left,0.4337160433642566,,,,,,,,,,,,,,,,,,,,,1,,,right,0.4489265203010291,,,,,,,,,,,,,,1017,2019_May_17_1257,mf_amp_cond1,3.0.7,59.991091331924856,
interests,,&&&&&&&&&,images/symbols/symbol_34.png,condition_files/AMP_rep1.csv,left,fairness.virtue,,,,,,,,,,,,,,,,,,,,,0,0,0,0,0,7,7,7,,,,,,,,,,,,,649.9575486448593,,,,,AMP_prac,left,0.4337160433642566,,,,,,,,,,,,,,,,,,,,,1,,,right,0.46530510927550495,,,,,,,,,,,,,,1017,2019_May_17_1257,mf_amp_cond1,3.0.7,59.991091331924856,
abuse,,&&&&&,images/symbols/symbol_21.png,condition_files/AMP_rep1.csv,right,sanctity.vice,,,,,,,,,,,,,,,,,,,,,0,0,0,0,0,8,8,8,,,,,,,,,,,,,650.8079654863104,,,,,AMP_prac,left,0.4337160433642566,,,,,,,,,,,,,,,,,,,,,1,,,right,0.6324343271553516,,,,,,,,,,,,,,1017,2019_May_17_1257,mf_amp_cond1,3.0.7,59.991091331924856,
great,,&&&&&,images/symbols/symbol_27.png,condition_files/AMP_rep1.csv,left,loyalty.virtue,,,,,,,,,,,,,,,,,,,,,0,0,0,0,0,9,9,9,,,,,,,,,,,,,651.6581770584453,,,,,AMP_prac,left,0.4337160433642566,,,,,,,,,,,,,,,,,,,,,1,,,left,0.6322559993714094,,,,,,,,,,,,,,1017,2019_May_17_1257,mf_amp_cond1,3.0.7,59.991091331924856,
useful,,&&&&&&,images/symbols/symbol_76.png,condition_files/AMP_rep1.csv,left,authority.virtue,,,,,,,,,,,,,,,,,,,,,0,0,0,0,0,10,10,10,,,,,,,,,,,,,652.508434495423,,,,,AMP_prac,left,0.4337160433642566,,,,,,,,,,,,,,,,,,,,,1,,,left,0.6327752673532814,,,,,,,,,,,,,,1017,2019_May_17_1257,mf_amp_cond1,3.0.7,59.991091331924856,
rebels,,&&&&&&,images/symbols/symbol_4.png,condition_files/AMP_rep1.csv,right,authority.vice,,,,,,,,,,,,,,,,,,,,,0,0,0,0,0,11,11,11,,,,,,,,,,,,,653.3086658085231,,,,,AMP_prac,left,0.4337160433642566,,,,,,,,,,,,,,,,,,,,,1,,,left,0.5817356249317527,,,,,,,,,,,,,,1017,2019_May_17_1257,mf_amp_cond1,3.0.7,59.991091331924856,
lies,,&&&&,images/symbols/symbol_62.png,condition_files/AMP_rep1.csv,right,fairness.vice,,,,,,,,,,,,,,,,,,,,,0,0,0,0,0,12,12,12,,,,,,,,,,,,,653.925534927519,,,,,AMP_prac,left,0.4337160433642566,,,,,,,,,,,,,,,,,,,,,1,,,left,0.3837357845623046,,,,,,,,,,,,,,1017,2019_May_17_1257,mf_amp_cond1,3.0.7,59.991091331924856,
stourz,,&&&&&&,images/symbols/symbol_68.png,condition_files/AMP_rep1.csv,None,nonword,,,,,,,,,,,,,,,,,,,,,0,0,0,0,0,13,13,13,,,,,,,,,,,,,654.492346491199,,,,,AMP_prac,left,0.4337160433642566,,,,,,,,,,,,,,,,,,,,,1,,,left,0.3481920720078051,,,,,,,,,,,,,,1017,2019_May_17_1257,mf_amp_cond1,3.0.7,59.991091331924856,
officers,,&&&&&&&&,images/symbols/symbol_79.png,condition_files/AMP_rep1.csv,right,authority.vice,,,,,,,,,,,,,,,,,,,,,0,0,0,0,0,14,14,14,,,,,,,,,,,,,655.042501068674,,,,,AMP_prac,left,0.4337160433642566,,,,,,,,,,,,,,,,,,,,,1,,,left,0.3321759121026844,,,,,,,,,,,,,,1017,2019_May_17_1257,mf_amp_cond1,3.0.7,59.991091331924856,
hand,,&&&&,images/symbols/symbol_35.png,condition_files/AMP_rep1.csv,left,sanctity.virtue,,,,,,,,,,,,,,,,,,,,,0,0,0,0,0,15,15,15,,,,,,,,,,,,,656.1928341025487,,,,,AMP_prac,left,0.4337160433642566,,,,,,,,,,,,,,,,,,,,,1,,,left,0.9325028681196272,,,,,,,,,,,,,,1017,2019_May_17_1257,mf_amp_cond1,3.0.7,59.991091331924856,
support,,&&&&&&&,images/symbols/symbol_52.png,condition_files/AMP_rep1.csv,left,loyalty.virtue,,,,,,,,,,,,,,,,,,,,,0,0,0,0,0,16,16,16,,,,,,,,,,,,,657.026407612022,,,,,AMP_prac,left,0.4337160433642566,,,,,,,,,,,,,,,,,,,,,1,,,left,0.6004366469569504,,,,,,,,,,,,,,1017,2019_May_17_1257,mf_amp_cond1,3.0.7,59.991091331924856,
foald,,&&&&&,images/symbols/symbol_43.png,condition_files/AMP_rep1.csv,None,nonword,,,,,,,,,,,,,,,,,,,,,0,0,0,0,0,17,17,17,,,,,,,,,,,,,657.8100011833012,,,,,AMP_prac,left,0.4337160433642566,,,,,,,,,,,,,,,,,,,,,1,,,right,0.5504502942785621,,,,,,,,,,,,,,1017,2019_May_17_1257,mf_amp_cond1,3.0.7,59.991091331924856,
fighters,,&&&&&&&&,images/symbols/symbol_50.png,condition_files/AMP_rep1.csv,right,authority.vice,,,,,,,,,,,,,,,,,,,,,0,0,0,0,0,18,18,18,,,,,,,,,,,,,658.3767983138096,,,,,AMP_prac,left,0.4337160433642566,,,,,,,,,,,,,,,,,,,,,1,,,left,0.34825236978940666,,,,,,,,,,,,,,1017,2019_May_17_1257,mf_amp_cond1,3.0.7,59.991091331924856,
troalde,,&&&&&&&,images/symbols/symbol_38.png,condition_files/AMP_rep1.csv,None,nonword,,,,,,,,,,,,,,,,,,,,,0,0,0,0,0,19,19,19,,,,,,,,,,,,,658.9269487219863,,,,,AMP_prac,left,0.4337160433642566,,,,,,,,,,,,,,,,,,,,,1,,,right,0.3323247325606644,,,,,,,,,,,,,,1017,2019_May_17_1257,mf_amp_cond1,3.0.7,59.991091331924856,
energy,,&&&&&&,images/symbols/symbol_39.png,condition_files/AMP_rep1.csv,left,sanctity.virtue,,,,,,,,,,,,,,,,,,,,,0,0,0,0,0,20,20,20,,,,,,,,,,,,,659.6271688414272,,,,,AMP_prac,left,0.4337160433642566,,,,,,,,,,,,,,,,,,,,,1,,,right,0.4819450960494578,,,,,,,,,,,,,,1017,2019_May_17_1257,mf_amp_cond1,3.0.7,59.991091331924856,
fraud,,&&&&&,images/symbols/symbol_24.png,condition_files/AMP_rep1.csv,right,fairness.vice,,,,,,,,,,,,,,,,,,,,,0,0,0,0,0,21,21,21,,,,,,,,,,,,,660.1939993281849,,,,,AMP_prac,left,0.4337160433642566,,,,,,,,,,,,,,,,,,,,,1,,,right,0.34886978240683675,,,,,,,,,,,,,,1017,2019_May_17_1257,mf_amp_cond1,3.0.7,59.991091331924856,
killed,,&&&&&&,images/symbols/symbol_63.png,condition_files/AMP_rep1.csv,right,care.vice,,,,,,,,,,,,,,,,,,,,,0,0,0,0,0,22,22,22,,,,,,,,,,,,,660.8275607139803,,,,,AMP_prac,left,0.4337160433642566,,,,,,,,,,,,,,,,,,,,,1,,,left,0.4158386657945812,,,,,,,,,,,,,,1017,2019_May_17_1257,mf_amp_cond1,3.0.7,59.991091331924856,
drug,,&&&&,images/symbols/symbol_28.png,condition_files/AMP_rep1.csv,right,sanctity.vice,,,,,,,,,,,,,,,,,,,,,0,0,0,0,0,23,23,23,,,,,,,,,,,,,661.4276910601184,,,,,AMP_prac,left,0.4337160433642566,,,,,,,,,,,,,,,,,,,,,1,,,left,0.38235085643827915,,,,,,,,,,,,,,1017,2019_May_17_1257,mf_amp_cond1,3.0.7,59.991091331924856,
strong,,&&&&&&,images/symbols/symbol_64.png,condition_files/AMP_rep1.csv,left,loyalty.virtue,,,,,,,,,,,,,,,,,,,,,0,0,0,0,0,24,24,24,,,,,,,,,,,,,662.0445220121183,,,,,AMP_prac,left,0.4337160433642566,,,,,,,,,,,,,,,,,,,,,1,,,left,0.39883336308412254,,,,,,,,,,,,,,1017,2019_May_17_1257,mf_amp_cond1,3.0.7,59.991091331924856,
corruption,,&&&&&&&&&&,images/symbols/symbol_10.png,condition_files/AMP_rep1.csv,right,sanctity.vice,,,,,,,,,,,,,,,,,,,,,0,0,0,0,0,25,25,25,,,,,,,,,,,,,662.6280367469881,,,,,AMP_prac,left,0.4337160433642566,,,,,,,,,,,,,,,,,,,,,1,,,left,0.36573460372164845,,,,,,,,,,,,,,1017,2019_May_17_1257,mf_amp_cond1,3.0.7,59.991091331924856,
credit,,&&&&&&,images/symbols/symbol_53.png,condition_files/AMP_rep1.csv,left,fairness.virtue,,,,,,,,,,,,,,,,,,,,,0,0,0,0,0,26,26,26,,,,,,,,,,,,,663.1781932490412,,,,,AMP_prac,left,0.4337160433642566,,,,,,,,,,,,,,,,,,,,,1,,,left,0.3323738048784435,,,,,,,,,,,,,,1017,2019_May_17_1257,mf_amp_cond1,3.0.7,59.991091331924856,
phiks,,&&&&&,images/symbols/symbol_3.png,condition_files/AMP_rep1.csv,None,nonword,,,,,,,,,,,,,,,,,,,,,0,0,0,0,0,27,27,27,,,,,,,,,,,,,664.028442026116,,,,,AMP_prac,left,0.4337160433642566,,,,,,,,,,,,,,,,,,,,,1,,,right,0.632327843690291,,,,,,,,,,,,,,1017,2019_May_17_1257,mf_amp_cond1,3.0.7,59.991091331924856,
accused,,&&&&&&&,images/symbols/symbol_77.png,condition_files/AMP_rep1.csv,right,fairness.vice,,,,,,,,,,,,,,,,,,,,,0,0,0,0,0,28,28,28,,,,,,,,,,,,,664.6286188787781,,,,,AMP_prac,left,0.4337160433642566,,,,,,,,,,,,,,,,,,,,,1,,,left,0.3822209592908621,,,,,,,,,,,,,,1017,2019_May_17_1257,mf_amp_cond1,3.0.7,59.991091331924856,
pleasant,,&&&&&&&,images/symbols/symbol_51.png,condition_files/AMP_rep1.csv,right,control,,,,,,,,,,,,,,,,,,,,,0,0,0,0,0,29,29,29,,,,,,,,,,,,,665.2621642276645,,,,,AMP_prac,left,0.4337160433642566,,,,,,,,,,,,,,,,,,,,,1,,,left,0.4155676458030939,,,,,,,,,,,,,,1017,2019_May_17_1257,mf_amp_cond1,3.0.7,59.991091331924856,
strength,,&&&&&&&&,images/symbols/symbol_82.png,condition_files/AMP_rep1.csv,left,sanctity.virtue,,,,,,,,,,,,,,,,,,,,,0,0,0,0,0,30,30,30,,,,,,,,,,,,,666.0457010292448,,,,,AMP_prac,left,0.4337160433642566,,,,,,,,,,,,,,,,,,,,,1,,,right,0.5659997863695025,,,,,,,,,,,,,,1017,2019_May_17_1257,mf_amp_cond1,3.0.7,59.991091331924856,
protect,,&&&&&&&,images/symbols/symbol_33.png,condition_files/AMP_rep1.csv,left,fairness.virtue,,,,,,,,,,,,,,,,,,,,,0,0,0,0,0,31,31,31,,,,,,,,,,,,,666.8959321659058,,,,,AMP_prac,left,0.4337160433642566,,,,,,,,,,,,,,,,,,,,,1,,,right,0.632539528189227,,,,,,,,,,,,,,1017,2019_May_17_1257,mf_amp_cond1,3.0.7,59.991091331924856,
fair,,&&&&,images/symbols/symbol_69.png,condition_files/AMP_rep1.csv,left,fairness.virtue,,,,,,,,,,,,,,,,,,,,,0,0,0,0,0,32,32,32,,,,,,,,,,,,,667.6961884964257,,,,,AMP_prac,left,0.4337160433642566,,,,,,,,,,,,,,,,,,,,,1,,,left,0.5823206433560699,,,,,,,,,,,,,,1017,2019_May_17_1257,mf_amp_cond1,3.0.7,59.991091331924856,
violence,,&&&&&&&&,images/symbols/symbol_23.png,condition_files/AMP_rep1.csv,right,care.vice,,,,,,,,,,,,,,,,,,,,,0,0,0,0,0,33,33,33,,,,,,,,,,,,,668.4964121119119,,,,,AMP_prac,left,0.4337160433642566,,,,,,,,,,,,,,,,,,,,,1,,,left,0.5823222468607128,,,,,,,,,,,,,,1017,2019_May_17_1257,mf_amp_cond1,3.0.7,59.991091331924856,
encourage,,&&&&&&&&&,images/symbols/symbol_32.png,condition_files/AMP_rep1.csv,left,authority.virtue,,,,,,,,,,,,,,,,,,,,,0,0,0,0,0,34,34,34,,,,,,,,,,,,,669.2132099962328,,,,,AMP_prac,left,0.4337160433642566,,,,,,,,,,,,,,,,,,,,,1,,,left,0.4989776611328125,,,,,,,,,,,,,,1017,2019_May_17_1257,mf_amp_cond1,3.0.7,59.991091331924856,
hope,,&&&&,images/symbols/symbol_81.png,condition_files/AMP_rep1.csv,left,loyalty.virtue,,,,,,,,,,,,,,,,,,,,,0,0,0,0,0,35,35,35,,,,,,,,,,,,,669.7801068748813,,,,,AMP_prac,left,0.4337160433642566,,,,,,,,,,,,,,,,,,,,,1,,,left,0.3336830399930477,,,,,,,,,,,,,,1017,2019_May_17_1257,mf_amp_cond1,3.0.7,59.991091331924856,
riot,,&&&&,images/symbols/symbol_12.png,condition_files/AMP_rep1.csv,right,authority.vice,,,,,,,,,,,,,,,,,,,,,0,0,0,0,0,36,36,36,,,,,,,,,,,,,670.4970275999513,,,,,AMP_prac,left,0.4337160433642566,,,,,,,,,,,,,,,,,,,,,1,,,right,0.49831438390538096,,,,,,,,,,,,,,1017,2019_May_17_1257,mf_amp_cond1,3.0.7,59.991091331924856,
penalty,,&&&&&&&,images/symbols/symbol_57.png,condition_files/AMP_rep1.csv,right,authority.vice,,,,,,,,,,,,,,,,,,,,,0,0,0,0,0,37,37,37,,,,,,,,,,,,,671.130514896242,,,,,AMP_prac,left,0.4337160433642566,,,,,,,,,,,,,,,,,,,,,1,,,left,0.4156170387286693,,,,,,,,,,,,,,1017,2019_May_17_1257,mf_amp_cond1,3.0.7,59.991091331924856,
groups,,&&&&&&,images/symbols/symbol_20.png,condition_files/AMP_rep1.csv,right,loyalty.vice,,,,,,,,,,,,,,,,,,,,,0,0,0,0,0,38,38,38,,,,,,,,,,,,,672.0641111456789,,,,,AMP_prac,left,0.4337160433642566,,,,,,,,,,,,,,,,,,,,,1,,,right,0.7162446186412126,,,,,,,,,,,,,,1017,2019_May_17_1257,mf_amp_cond1,3.0.7,59.991091331924856,
increase,,&&&&&&&&,images/symbols/symbol_37.png,condition_files/AMP_rep1.csv,left,care.virtue,,,,,,,,,,,,,,,,,,,,,0,0,0,0,0,39,39,39,,,,,,,,,,,,,672.8143269193824,,,,,AMP_prac,left,0.4337160433642566,,,,,,,,,,,,,,,,,,,,,1,,,left,0.5320090663153678,,,,,,,,,,,,,,1017,2019_May_17_1257,mf_amp_cond1,3.0.7,59.991091331924856,
praised,,&&&&&&&,images/symbols/symbol_67.png,condition_files/AMP_rep1.csv,left,loyalty.virtue,,,,,,,,,,,,,,,,,,,,,0,0,0,0,0,40,40,40,,,,,,,,,,,,,673.4645196320489,,,,,AMP_prac,left,0.4337160433642566,,,,,,,,,,,,,,,,,,,,,1,,,left,0.43208639533258975,,,,,,,,,,,,,,1017,2019_May_17_1257,mf_amp_cond1,3.0.7,59.991091331924856,
harassment,,&&&&&&&&&&,images/symbols/symbol_72.png,condition_files/AMP_rep1.csv,right,sanctity.vice,,,,,,,,,,,,,,,,,,,,,0,0,0,0,0,41,41,41,,,,,,,,,,,,,674.0313700044062,,,,,AMP_prac,left,0.4337160433642566,,,,,,,,,,,,,,,,,,,,,1,,,left,0.34897017222829163,,,,,,,,,,,,,,1017,2019_May_17_1257,mf_amp_cond1,3.0.7,59.991091331924856,
army,,&&&&,images/symbols/symbol_15.png,condition_files/AMP_rep1.csv,right,loyalty.vice,,,,,,,,,,,,,,,,,,,,,0,0,0,0,0,42,42,42,,,,,,,,,,,,,674.6815380207263,,,,,AMP_prac,left,0.4337160433642566,,,,,,,,,,,,,,,,,,,,,1,,,left,0.43215503240935504,,,,,,,,,,,,,,1017,2019_May_17_1257,mf_amp_cond1,3.0.7,59.991091331924856,
died,,&&&&,images/symbols/symbol_7.png,condition_files/AMP_rep1.csv,right,care.vice,,,,,,,,,,,,,,,,,,,,,0,0,0,0,0,43,43,43,,,,,,,,,,,,,675.4484245718922,,,,,AMP_prac,left,0.4337160433642566,,,,,,,,,,,,,,,,,,,,,1,,,right,0.5490615169983357,,,,,,,,,,,,,,1017,2019_May_17_1257,mf_amp_cond1,3.0.7,59.991091331924856,
men,,&&&,images/symbols/symbol_61.png,condition_files/AMP_rep1.csv,right,loyalty.vice,,,,,,,,,,,,,,,,,,,,,0,0,0,0,0,44,44,44,,,,,,,,,,,,,676.1819695681334,,,,,AMP_prac,left,0.4337160433642566,,,,,,,,,,,,,,,,,,,,,1,,,left,0.5156981523614377,,,,,,,,,,,,,,1017,2019_May_17_1257,mf_amp_cond1,3.0.7,59.991091331924856,
sneaze,,&&&&&&,images/symbols/symbol_5.png,condition_files/AMP_rep1.csv,None,nonword,,,,,,,,,,,,,,,,,,,,,0,0,0,0,0,45,45,45,,,,,,,,,,,,,676.9488586848602,,,,,AMP_prac,left,0.4337160433642566,,,,,,,,,,,,,,,,,,,,,1,,,left,0.548943807836622,,,,,,,,,,,,,,1017,2019_May_17_1257,mf_amp_cond1,3.0.7,59.991091331924856,
peace,,&&&&&,images/symbols/symbol_65.png,condition_files/AMP_rep1.csv,left,care.virtue,,,,,,,,,,,,,,,,,,,,,0,0,0,0,0,46,46,46,,,,,,,,,,,,,677.6657845419832,,,,,AMP_prac,left,0.4337160433642566,,,,,,,,,,,,,,,,,,,,,1,,,left,0.4985228606965393,,,,,,,,,,,,,,1017,2019_May_17_1257,mf_amp_cond1,3.0.7,59.991091331924856,
safety,,&&&&&&,images/symbols/symbol_36.png,condition_files/AMP_rep1.csv,left,care.virtue,,,,,,,,,,,,,,,,,,,,,0,0,0,0,0,47,47,47,,,,,,,,,,,,,678.3992965025827,,,,,AMP_prac,left,0.4337160433642566,,,,,,,,,,,,,,,,,,,,,1,,,left,0.5157353575341403,,,,,,,,,,,,,,1017,2019_May_17_1257,mf_amp_cond1,3.0.7,59.991091331924856,
dignity,,&&&&&&&,images/symbols/symbol_40.png,condition_files/AMP_rep1.csv,left,sanctity.virtue,,,,,,,,,,,,,,,,,,,,,0,0,0,0,0,48,48,48,,,,,,,,,,,,,679.449582741363,,,,,AMP_prac,left,0.4337160433642566,,,,,,,,,,,,,,,,,,,,,1,,,left,0.8323797383345664,,,,,,,,,,,,,,1017,2019_May_17_1257,mf_amp_cond1,3.0.7,59.991091331924856,
wence,,&&&&&,images/symbols/symbol_29.png,condition_files/AMP_rep1.csv,None,nonword,,,,,,,,,,,,,,,,,,,,,0,0,0,0,0,49,49,49,,,,,,,,,,,,,680.1997997979634,,,,,AMP_prac,left,0.4337160433642566,,,,,,,,,,,,,,,,,,,,,1,,,left,0.5320562142878771,,,,,,,,,,,,,,1017,2019_May_17_1257,mf_amp_cond1,3.0.7,59.991091331924856,
growth,,&&&&&&,images/symbols/symbol_74.png,condition_files/AMP_rep1.csv,left,care.virtue,,,,,,,,,,,,,,,,,,,,,0,0,0,0,0,50,50,50,,,,,,,,,,,,,680.8666697028093,,,,,AMP_prac,left,0.4337160433642566,,,,,,,,,,,,,,,,,,,,,1,,,left,0.4337221374735236,,,,,,,,,,,,,,1017,2019_May_17_1257,mf_amp_cond1,3.0.7,59.991091331924856,
ban,,&&&,images/symbols/symbol_22.png,condition_files/AMP_rep1.csv,right,loyalty.vice,,,,,,,,,,,,,,,,,,,,,0,0,0,0,0,51,51,51,,,,,,,,,,,,,681.6502254277002,,,,,AMP_prac,left,0.4337160433642566,,,,,,,,,,,,,,,,,,,,,1,,,left,0.5652232898864895,,,,,,,,,,,,,,1017,2019_May_17_1257,mf_amp_cond1,3.0.7,59.991091331924856,
death,,&&&&&,images/symbols/symbol_56.png,condition_files/AMP_rep1.csv,right,care.vice,,,,,,,,,,,,,,,,,,,,,0,0,0,0,0,52,52,52,,,,,,,,,,,,,682.4004408805631,,,,,AMP_prac,left,0.4337160433642566,,,,,,,,,,,,,,,,,,,,,1,,,right,0.5323128013405949,,,,,,,,,,,,,,1017,2019_May_17_1257,mf_amp_cond1,3.0.7,59.991091331924856,
lighnde,,&&&&&&&,images/symbols/symbol_25.png,condition_files/AMP_rep1.csv,None,nonword,,,,,,,,,,,,,,,,,,,,,0,0,0,0,0,53,53,53,,,,,,,,,,,,,683.067307578167,,,,,AMP_prac,left,0.4337160433642566,,,,,,,,,,,,,,,,,,,,,1,,,right,0.44880464137531817,,,,,,,,,,,,,,1017,2019_May_17_1257,mf_amp_cond1,3.0.7,59.991091331924856,
loyalty,,&&&&&&&,images/symbols/symbol_80.png,condition_files/AMP_rep1.csv,left,loyalty.virtue,,,,,,,,,,,,,,,,,,,,,0,0,0,0,0,54,54,54,,,,,,,,,,,,,683.8341941291001,,,,,AMP_prac,left,0.4337160433642566,,,,,,,,,,,,,,,,,,,,,1,,,left,0.5494306816253811,,,,,,,,,,,,,,1017,2019_May_17_1257,mf_amp_cond1,3.0.7,59.991091331924856,
freedom,,&&&&&&&,images/symbols/symbol_75.png,condition_files/AMP_rep1.csv,left,sanctity.virtue,,,,,,,,,,,,,,,,,,,,,0,0,0,0,0,55,55,55,,,,,,,,,,,,,684.7678432995453,,,,,AMP_prac,left,0.4337160433642566,,,,,,,,,,,,,,,,,,,,,1,,,left,0.7004837628919631,,,,,,,,,,,,,,1017,2019_May_17_1257,mf_amp_cond1,3.0.7,59.991091331924856,
good,,&&&&,images/symbols/symbol_1.png,condition_files/AMP_rep1.csv,left,care.virtue,,,,,,,,,,,,,,,,,,,,,0,0,0,0,0,56,56,56,,,,,,,,,,,,,685.7680912269279,,,,,AMP_prac,left,0.4337160433642566,,,,,,,,,,,,,,,,,,,,,1,,,right,0.7820036942139268,,,,,,,,,,,,,,1017,2019_May_17_1257,mf_amp_cond1,3.0.7,59.991091331924856,
racist,,&&&&&&,images/symbols/symbol_71.png,condition_files/AMP_rep1.csv,right,sanctity.vice,,,,,,,,,,,,,,,,,,,,,0,0,0,0,0,57,57,57,,,,,,,,,,,,,686.4850135557353,,,,,AMP_prac,left,0.4337160433642566,,,,,,,,,,,,,,,,,,,,,1,,,left,0.4989571343176067,,,,,,,,,,,,,,1017,2019_May_17_1257,mf_amp_cond1,3.0.7,59.991091331924856,
threatened,,&&&&&&&&&&,images/symbols/symbol_78.png,condition_files/AMP_rep1.csv,right,fairness.vice,,,,,,,,,,,,,,,,,,,,,0,0,0,0,0,58,58,58,,,,,,,,,,,,,687.0851756546181,,,,,AMP_prac,left,0.4337160433642566,,,,,,,,,,,,,,,,,,,,,1,,,left,0.38191433786414564,,,,,,,,,,,,,,1017,2019_May_17_1257,mf_amp_cond1,3.0.7,59.991091331924856,
powerful,,&&&&&&&&,images/symbols/symbol_47.png,condition_files/AMP_rep1.csv,left,authority.virtue,,,,,,,,,,,,,,,,,,,,,0,0,0,0,0,59,59,59,,,,,,,,,,,,,687.6353093844373,,,,,AMP_prac,left,0.4337160433642566,,,,,,,,,,,,,,,,,,,,,1,,,left,0.3322763016913086,,,,,,,,,,,,,,1017,2019_May_17_1257,mf_amp_cond1,3.0.7,59.991091331924856,
terrorist,,&&&&&&&&&,images/symbols/symbol_30.png,condition_files/AMP_rep1.csv,right,loyalty.vice,,,,,,,,,,,,,,,,,,,,,0,0,0,0,0,60,60,60,,,,,,,,,,,,,688.2854953620117,,,,,AMP_prac,left,0.4337160433642566,,,,,,,,,,,,,,,,,,,,,1,,,right,0.43246037093922496,,,,,,,,,,,,,,1017,2019_May_17_1257,mf_amp_cond1,3.0.7,59.991091331924856,
celebrated,,&&&&&&&&&&,images/symbols/symbol_18.png,condition_files/AMP_rep1.csv,left,authority.virtue,,,,,,,,,,,,,,,,,,,,,0,0,0,0,0,61,61,61,,,,,,,,,,,,,688.919016976608,,,,,AMP_prac,left,0.4337160433642566,,,,,,,,,,,,,,,,,,,,,1,,,right,0.4003748095128685,,,,,,,,,,,,,,1017,2019_May_17_1257,mf_amp_cond1,3.0.7,59.991091331924856,
free,,&&&&,images/symbols/symbol_2.png,condition_files/AMP_rep1.csv,left,fairness.virtue,,,,,,,,,,,,,,,,,,,,,0,0,0,0,0,62,62,62,,,,,,,,,,,,,689.5191970365122,,,,,AMP_prac,left,0.4337160433642566,,,,,,,,,,,,,,,,,,,,,1,,,right,0.3821093437727541,,,,,,,,,,,,,,1017,2019_May_17_1257,mf_amp_cond1,3.0.7,59.991091331924856,
scandal,,&&&&&&&,images/symbols/symbol_42.png,condition_files/AMP_rep1.csv,right,sanctity.vice,,,,,,,,,,,,,,,,,,,,,0,0,0,0,0,63,63,63,,,,,,,,,,,,,690.0860220708419,,,,,AMP_prac,left,0.4337160433642566,,,,,,,,,,,,,,,,,,,,,1,,,right,0.34900000016205013,,,,,,,,,,,,,,1017,2019_May_17_1257,mf_amp_cond1,3.0.7,59.991091331924856,
charges,,&&&&&&&,images/symbols/symbol_46.png,condition_files/AMP_rep1.csv,right,fairness.vice,,,,,,,,,,,,,,,,,,,,,0,0,0,0,0,64,64,64,,,,,,,,,,,,,691.2196740638465,,,,,AMP_prac,left,0.4337160433642566,,,,,,,,,,,,,,,,,,,,,1,,,right,0.9157592842821032,,,,,,,,,,,,,,1017,2019_May_17_1257,mf_amp_cond1,3.0.7,59.991091331924856,
shypse,,&&&&&&,images/symbols/symbol_44.png,condition_files/AMP_rep1.csv,None,nonword,,,,,,,,,,,,,,,,,,,,,0,0,0,0,0,65,65,65,,,,,,,,,,,,,691.8532261482906,,,,,AMP_prac,left,0.4337160433642566,,,,,,,,,,,,,,,,,,,,,1,,,left,0.4154181838966906,,,,,,,,,,,,,,1017,2019_May_17_1257,mf_amp_cond1,3.0.7,59.991091331924856,
integrity,,&&&&&&&&&,images/symbols/symbol_58.png,condition_files/AMP_rep1.csv,left,fairness.virtue,,,,,,,,,,,,,,,,,,,,,0,0,0,0,0,66,66,66,,,,,,,,,,,,,692.620081908768,,,,,AMP_prac,left,0.4337160433642566,,,,,,,,,,,,,,,,,,,,,1,,,left,0.5337468020152301,,,,,,,,,,,,,,1017,2019_May_17_1257,mf_amp_cond1,3.0.7,59.991091331924856,
faith,,&&&&&,images/symbols/symbol_48.png,condition_files/AMP_rep1.csv,left,sanctity.virtue,,,,,,,,,,,,,,,,,,,,,0,0,0,0,0,67,67,67,,,,,,,,,,,,,693.3869601208717,,,,,AMP_prac,left,0.4337160433642566,,,,,,,,,,,,,,,,,,,,,1,,,right,0.548732444178313,,,,,,,,,,,,,,1017,2019_May_17_1257,mf_amp_cond1,3.0.7,59.991091331924856,
torture,,&&&&&&&,images/symbols/symbol_41.png,condition_files/AMP_rep1.csv,right,care.vice,,,,,,,,,,,,,,,,,,,,,0,0,0,0,0,68,68,68,,,,,,,,,,,,,694.2538934668992,,,,,AMP_prac,left,0.4337160433642566,,,,,,,,,,,,,,,,,,,,,1,,,right,0.6494976826943457,,,,,,,,,,,,,,1017,2019_May_17_1257,mf_amp_cond1,3.0.7,59.991091331924856,
psyncs,,&&&&&&,images/symbols/symbol_66.png,condition_files/AMP_rep1.csv,None,nonword,,,,,,,,,,,,,,,,,,,,,0,0,0,0,0,69,69,69,,,,,,,,,,,,,694.9374270930421,,,,,AMP_prac,left,0.4337160433642566,,,,,,,,,,,,,,,,,,,,,1,,,left,0.46556362067349255,,,,,,,,,,,,,,1017,2019_May_17_1257,mf_amp_cond1,3.0.7,59.991091331924856,
opportunity,,&&&&&&&&&&&,images/symbols/symbol_59.png,condition_files/AMP_rep1.csv,left,fairness.virtue,,,,,,,,,,,,,,,,,,,,,0,0,0,0,0,70,70,70,,,,,,,,,,,,,695.5209148863796,,,,,AMP_prac,left,0.4337160433642566,,,,,,,,,,,,,,,,,,,,,1,,,left,0.36554954038001597,,,,,,,,,,,,,,1017,2019_May_17_1257,mf_amp_cond1,3.0.7,59.991091331924856,
terrorists,,&&&&&&&&&&,images/symbols/symbol_11.png,condition_files/AMP_rep1.csv,right,fairness.vice,,,,,,,,,,,,,,,,,,,,,0,0,0,0,0,71,71,71,,,,,,,,,,,,,696.1378346814308,,,,,AMP_prac,left,0.4337160433642566,,,,,,,,,,,,,,,,,,,,,1,,,left,0.39906878187321126,,,,,,,,,,,,,,1017,2019_May_17_1257,mf_amp_cond1,3.0.7,59.991091331924856,
values,,&&&&&&,images/symbols/symbol_17.png,condition_files/AMP_rep1.csv,left,sanctity.virtue,,,,,,,,,,,,,,,,,,,,,0,0,0,0,0,72,72,72,,,,,,,,,,,,,697.004549928708,,,,,AMP_prac,left,0.4337160433642566,,,,,,,,,,,,,,,,,,,,,1,,,right,0.6488344054669142,,,,,,,,,,,,,,1017,2019_May_17_1257,mf_amp_cond1,3.0.7,59.991091331924856,
improve,,&&&&&&&,images/symbols/symbol_45.png,condition_files/AMP_rep1.csv,left,care.virtue,,,,,,,,,,,,,,,,,,,,,0,0,0,0,0,73,73,73,,,,,,,,,,,,,697.5882115596905,,,,,AMP_prac,left,0.4337160433642566,,,,,,,,,,,,,,,,,,,,,1,,,right,0.36567623005248606,,,,,,,,,,,,,,1017,2019_May_17_1257,mf_amp_cond1,3.0.7,59.991091331924856,
prosecution,,&&&&&&&&&&&,images/symbols/symbol_60.png,condition_files/AMP_rep1.csv,right,authority.vice,,,,,,,,,,,,,,,,,,,,,0,0,0,0,0,74,74,74,,,,,,,,,,,,,698.3384061648976,,,,,AMP_prac,left,0.4337160433642566,,,,,,,,,,,,,,,,,,,,,1,,,right,0.5323128013405949,,,,,,,,,,,,,,1017,2019_May_17_1257,mf_amp_cond1,3.0.7,59.991091331924856,
safe,,&&&&,images/symbols/symbol_19.png,condition_files/AMP_rep1.csv,left,care.virtue,,,,,,,,,,,,,,,,,,,,,0,0,0,0,0,75,75,75,,,,,,,,,,,,,699.1053026586305,,,,,AMP_prac,left,0.4337160433642566,,,,,,,,,,,,,,,,,,,,,1,,,left,0.5488831892143935,,,,,,,,,,,,,,1017,2019_May_17_1257,mf_amp_cond1,3.0.7,59.991091331924856,
shot,,&&&&,images/symbols/symbol_54.png,condition_files/AMP_rep1.csv,right,care.vice,,,,,,,,,,,,,,,,,,,,,0,0,0,0,0,76,76,76,,,,,,,,,,,,,699.9722950197756,,,,,AMP_prac,left,0.4337160433642566,,,,,,,,,,,,,,,,,,,,,1,,,left,0.6488651959225535,,,,,,,,,,,,,,1017,2019_May_17_1257,mf_amp_cond1,3.0.7,59.991091331924856,
betrayal,,&&&&&&&&,images/symbols/symbol_13.png,condition_files/AMP_rep1.csv,right,loyalty.vice,,,,,,,,,,,,,,,,,,,,,0,0,0,0,0,77,77,77,,,,,,,,,,,,,700.6224097942468,,,,,AMP_prac,left,0.4337160433642566,,,,,,,,,,,,,,,,,,,,,1,,,right,0.4322666476946324,,,,,,,,,,,,,,1017,2019_May_17_1257,mf_amp_cond1,3.0.7,59.991091331924856,
slavery,,&&&&&&&,images/symbols/symbol_70.png,condition_files/AMP_rep1.csv,right,loyalty.vice,,,,,,,,,,,,,,,,,,,,,0,0,0,0,0,78,78,78,,,,,,,,,,,,,701.2226058908273,,,,,AMP_prac,left,0.4337160433642566,,,,,,,,,,,,,,,,,,,,,1,,,right,0.38214943557977676,,,,,,,,,,,,,,1017,2019_May_17_1257,mf_amp_cond1,3.0.7,59.991091331924856,
intelligence,,&&&&&&&&&&&&,images/symbols/symbol_49.png,condition_files/AMP_rep1.csv,left,loyalty.virtue,,,,,,,,,,,,,,,,,,,,,0,0,0,0,0,79,79,79,,,,,,,,,,,,,701.9227836737409,,,,,AMP_prac,left,0.4337160433642566,,,,,,,,,,,,,,,,,,,,,1,,,left,0.46706433361396194,,,,,,,,,,,,,,1017,2019_May_17_1257,mf_amp_cond1,3.0.7,59.991091331924856,
refused,,&&&&&&&,images/symbols/symbol_8.png,condition_files/AMP_rep1.csv,right,authority.vice,,,,,,,,,,,,,,,,,,,,,0,0,0,0,0,80,80,80,,,,,,,,,,,,,702.4564172565006,,,,,AMP_prac,left,0.4337160433642566,,,,,,,,,,,,,,,,,,,,,1,,,right,0.3152466232422739,,,,,,,,,,,,,,1017,2019_May_17_1257,mf_amp_cond1,3.0.7,59.991091331924856,
unpleasant,,&&&&&&&&&,images/symbols/symbol_26.png,condition_files/AMP_rep1.csv,left,control,,,,,,,,,,,,,,,,,,,,,0,0,0,0,0,81,81,81,,,,,,,,,,,,,702.9897647448815,,,,,AMP_prac,left,0.4337160433642566,,,,,,,,,,,,,,,,,,,,,1,,,left,0.3155086627230048,,,,,,,,,,,,,,1017,2019_May_17_1257,mf_amp_cond1,3.0.7,59.991091331924856,
,,,,condition_files/AMP_rep1.csv,,,,,,,,,,,,,,,,,,,,,,,0,0,0,0,,,,,,,,,,,,,,,,,,,,,,,,,,,,,,,,,,,,,,,,,,,,,,,,,,right,3.351248985156417,,,,,,,,,,,,1017,2019_May_17_1257,mf_amp_cond1,3.0.7,59.991091331924856,
trust,,&&&&&,images/symbols/symbol_16.png,condition_files/AMP_rep3.csv,left,authority.virtue,,,,,,,,,,,,,,,,,,,,,0,1,1,2,0,0,0,0,,,,,,,,,,,,,707.5245523278136,,,,,AMP_prac,left,0.4337160433642566,,,,,,,,,,,,,,,,,,,,,1,,,right,0.9325288475956768,,,,,,,,,,,,,,1017,2019_May_17_1257,mf_amp_cond1,3.0.7,59.991091331924856,
honored,,&&&&&&&,images/symbols/symbol_31.png,condition_files/AMP_rep3.csv,left,authority.virtue,,,,,,,,,,,,,,,,,,,,,0,1,1,2,0,1,1,1,,,,,,,,,,,,,708.3246749122627,,,,,AMP_prac,left,0.4337160433642566,,,,,,,,,,,,,,,,,,,,,1,,,right,0.5671229958534241,,,,,,,,,,,,,,1017,2019_May_17_1257,mf_amp_cond1,3.0.7,59.991091331924856,
cande,,&&&&&,images/symbols/symbol_14.png,condition_files/AMP_rep3.csv,None,nonword,,,,,,,,,,,,,,,,,,,,,0,1,1,2,0,2,2,2,,,,,,,,,,,,,708.9248536892701,,,,,AMP_prac,left,0.4337160433642566,,,,,,,,,,,,,,,,,,,,,1,,,right,0.38150764745660126,,,,,,,,,,,,,,1017,2019_May_17_1257,mf_amp_cond1,3.0.7,59.991091331924856,
suicide,,&&&&&&&,images/symbols/symbol_55.png,condition_files/AMP_rep3.csv,right,care.vice,,,,,,,,,,,,,,,,,,,,,0,1,1,2,0,3,3,3,,,,,,,,,,,,,709.6750396345742,,,,,AMP_prac,left,0.4337160433642566,,,,,,,,,,,,,,,,,,,,,1,,,left,0.5170494036283344,,,,,,,,,,,,,,1017,2019_May_17_1257,mf_amp_cond1,3.0.7,59.991091331924856,
sexual,,&&&&&&,images/symbols/symbol_6.png,condition_files/AMP_rep3.csv,right,sanctity.vice,,,,,,,,,,,,,,,,,,,,,0,1,1,2,0,4,4,4,,,,,,,,,,,,,710.3418922198471,,,,,AMP_prac,left,0.4337160433642566,,,,,,,,,,,,,,,,,,,,,1,,,right,0.4484595318790525,,,,,,,,,,,,,,1017,2019_May_17_1257,mf_amp_cond1,3.0.7,59.991091331924856,
illegal,,&&&&&&&,images/symbols/symbol_9.png,condition_files/AMP_rep3.csv,right,fairness.vice,,,,,,,,,,,,,,,,,,,,,0,1,1,2,0,5,5,5,,,,,,,,,,,,,711.1921429214999,,,,,AMP_prac,left,0.4337160433642566,,,,,,,,,,,,,,,,,,,,,1,,,right,0.6322996192611754,,,,,,,,,,,,,,1017,2019_May_17_1257,mf_amp_cond1,3.0.7,59.991091331924856,
peaceful,,&&&&&&&&,images/symbols/symbol_73.png,condition_files/AMP_rep3.csv,left,authority.virtue,,,,,,,,,,,,,,,,,,,,,0,1,1,2,0,6,6,6,,,,,,,,,,,,,712.1257446233649,,,,,AMP_prac,left,0.4337160433642566,,,,,,,,,,,,,,,,,,,,,1,,,right,0.7155704363249242,,,,,,,,,,,,,,1017,2019_May_17_1257,mf_amp_cond1,3.0.7,59.991091331924856,
interests,,&&&&&&&&&,images/symbols/symbol_34.png,condition_files/AMP_rep3.csv,left,fairness.virtue,,,,,,,,,,,,,,,,,,,,,0,1,1,2,0,7,7,7,,,,,,,,,,,,,712.8426669521723,,,,,AMP_prac,left,0.4337160433642566,,,,,,,,,,,,,,,,,,,,,1,,,right,0.4989215328823775,,,,,,,,,,,,,,1017,2019_May_17_1257,mf_amp_cond1,3.0.7,59.991091331924856,
abuse,,&&&&&,images/symbols/symbol_21.png,condition_files/AMP_rep3.csv,right,sanctity.vice,,,,,,,,,,,,,,,,,,,,,0,1,1,2,0,8,8,8,,,,,,,,,,,,,713.6261973390356,,,,,AMP_prac,left,0.4337160433642566,,,,,,,,,,,,,,,,,,,,,1,,,right,0.5659250556491315,,,,,,,,,,,,,,1017,2019_May_17_1257,mf_amp_cond1,3.0.7,59.991091331924856,
great,,&&&&&,images/symbols/symbol_27.png,condition_files/AMP_rep3.csv,left,loyalty.virtue,,,,,,,,,,,,,,,,,,,,,0,1,1,2,0,9,9,9,,,,,,,,,,,,,714.3597481085453,,,,,AMP_prac,left,0.4337160433642566,,,,,,,,,,,,,,,,,,,,,1,,,right,0.5156327225267887,,,,,,,,,,,,,,1017,2019_May_17_1257,mf_amp_cond1,3.0.7,59.991091331924856,
useful,,&&&&&&,images/symbols/symbol_76.png,condition_files/AMP_rep3.csv,left,authority.virtue,,,,,,,,,,,,,,,,,,,,,0,1,1,2,0,10,10,10,,,,,,,,,,,,,715.0766858325806,,,,,AMP_prac,left,0.4337160433642566,,,,,,,,,,,,,,,,,,,,,1,,,right,0.4992855656892061,,,,,,,,,,,,,,1017,2019_May_17_1257,mf_amp_cond1,3.0.7,59.991091331924856,
rebels,,&&&&&&,images/symbols/symbol_4.png,condition_files/AMP_rep3.csv,right,authority.vice,,,,,,,,,,,,,,,,,,,,,0,1,1,2,0,11,11,11,,,,,,,,,,,,,715.6934417325538,,,,,AMP_prac,left,0.4337160433642566,,,,,,,,,,,,,,,,,,,,,1,,,right,0.39845682168379426,,,,,,,,,,,,,,1017,2019_May_17_1257,mf_amp_cond1,3.0.7,59.991091331924856,
lies,,&&&&,images/symbols/symbol_62.png,condition_files/AMP_rep3.csv,right,fairness.vice,,,,,,,,,,,,,,,,,,,,,0,1,1,2,0,12,12,12,,,,,,,,,,,,,716.3103121346794,,,,,AMP_prac,left,0.4337160433642566,,,,,,,,,,,,,,,,,,,,,1,,,left,0.3837126917205751,,,,,,,,,,,,,,1017,2019_May_17_1257,mf_amp_cond1,3.0.7,59.991091331924856,
stourz,,&&&&&&,images/symbols/symbol_68.png,condition_files/AMP_rep3.csv,None,nonword,,,,,,,,,,,,,,,,,,,,,0,1,1,2,0,13,13,13,,,,,,,,,,,,,716.9104841763619,,,,,AMP_prac,left,0.4337160433642566,,,,,,,,,,,,,,,,,,,,,1,,,left,0.3815676246304065,,,,,,,,,,,,,,1017,2019_May_17_1257,mf_amp_cond1,3.0.7,59.991091331924856,
officers,,&&&&&&&&,images/symbols/symbol_79.png,condition_files/AMP_rep3.csv,right,authority.vice,,,,,,,,,,,,,,,,,,,,,0,1,1,2,0,14,14,14,,,,,,,,,,,,,717.4939831953961,,,,,AMP_prac,left,0.4337160433642566,,,,,,,,,,,,,,,,,,,,,1,,,left,0.3652044308837503,,,,,,,,,,,,,,1017,2019_May_17_1257,mf_amp_cond1,3.0.7,59.991091331924856,
hand,,&&&&,images/symbols/symbol_35.png,condition_files/AMP_rep3.csv,left,sanctity.virtue,,,,,,,,,,,,,,,,,,,,,0,1,1,2,0,15,15,15,,,,,,,,,,,,,718.2275439074729,,,,,AMP_prac,left,0.4337160433642566,,,,,,,,,,,,,,,,,,,,,1,,,right,0.5153883234597743,,,,,,,,,,,,,,1017,2019_May_17_1257,mf_amp_cond1,3.0.7,59.991091331924856,
support,,&&&&&&&,images/symbols/symbol_52.png,condition_files/AMP_rep3.csv,left,loyalty.virtue,,,,,,,,,,,,,,,,,,,,,0,1,1,2,0,16,16,16,,,,,,,,,,,,,718.844370369101,,,,,AMP_prac,left,0.4337160433642566,,,,,,,,,,,,,,,,,,,,,1,,,right,0.38365143188275397,,,,,,,,,,,,,,1017,2019_May_17_1257,mf_amp_cond1,3.0.7,59.991091331924856,
foald,,&&&&&,images/symbols/symbol_43.png,condition_files/AMP_rep3.csv,None,nonword,,,,,,,,,,,,,,,,,,,,,0,1,1,2,0,17,17,17,,,,,,,,,,,,,719.4945557049941,,,,,AMP_prac,left,0.4337160433642566,,,,,,,,,,,,,,,,,,,,,1,,,right,0.4170471904799342,,,,,,,,,,,,,,1017,2019_May_17_1257,mf_amp_cond1,3.0.7,59.991091331924856,
fighters,,&&&&&&&&,images/symbols/symbol_50.png,condition_files/AMP_rep3.csv,right,authority.vice,,,,,,,,,,,,,,,,,,,,,0,1,1,2,0,18,18,18,,,,,,,,,,,,,720.3448041614611,,,,,AMP_prac,left,0.4337160433642566,,,,,,,,,,,,,,,,,,,,,1,,,left,0.6317668803967535,,,,,,,,,,,,,,1017,2019_May_17_1257,mf_amp_cond1,3.0.7,59.991091331924856,
troalde,,&&&&&&&,images/symbols/symbol_38.png,condition_files/AMP_rep3.csv,None,nonword,,,,,,,,,,,,,,,,,,,,,0,1,1,2,0,19,19,19,,,,,,,,,,,,,720.9950045719743,,,,,AMP_prac,left,0.4337160433642566,,,,,,,,,,,,,,,,,,,,,1,,,right,0.4323150785639882,,,,,,,,,,,,,,1017,2019_May_17_1257,mf_amp_cond1,3.0.7,59.991091331924856,
energy,,&&&&&&,images/symbols/symbol_39.png,condition_files/AMP_rep3.csv,left,sanctity.virtue,,,,,,,,,,,,,,,,,,,,,0,1,1,2,0,20,20,20,,,,,,,,,,,,,721.6118887655903,,,,,AMP_prac,left,0.4337160433642566,,,,,,,,,,,,,,,,,,,,,1,,,right,0.3986431681551039,,,,,,,,,,,,,,1017,2019_May_17_1257,mf_amp_cond1,3.0.7,59.991091331924856,
fraud,,&&&&&,images/symbols/symbol_24.png,condition_files/AMP_rep3.csv,right,fairness.vice,,,,,,,,,,,,,,,,,,,,,0,1,1,2,0,21,21,21,,,,,,,,,,,,,722.378730093129,,,,,AMP_prac,left,0.4337160433642566,,,,,,,,,,,,,,,,,,,,,1,,,left,0.5488575303461403,,,,,,,,,,,,,,1017,2019_May_17_1257,mf_amp_cond1,3.0.7,59.991091331924856,
killed,,&&&&&&,images/symbols/symbol_63.png,condition_files/AMP_rep3.csv,right,care.vice,,,,,,,,,,,,,,,,,,,,,0,1,1,2,0,22,22,22,,,,,,,,,,,,,723.0622887366917,,,,,AMP_prac,left,0.4337160433642566,,,,,,,,,,,,,,,,,,,,,1,,,right,0.46580032212659717,,,,,,,,,,,,,,1017,2019_May_17_1257,mf_amp_cond1,3.0.7,59.991091331924856,
drug,,&&&&,images/symbols/symbol_28.png,condition_files/AMP_rep3.csv,right,sanctity.vice,,,,,,,,,,,,,,,,,,,,,0,1,1,2,0,23,23,23,,,,,,,,,,,,,723.7291159839369,,,,,AMP_prac,left,0.4337160433642566,,,,,,,,,,,,,,,,,,,,,1,,,left,0.4490009306464344,,,,,,,,,,,,,,1017,2019_May_17_1257,mf_amp_cond1,3.0.7,59.991091331924856,
strong,,&&&&&&,images/symbols/symbol_64.png,condition_files/AMP_rep3.csv,left,loyalty.virtue,,,,,,,,,,,,,,,,,,,,,0,1,1,2,0,24,24,24,,,,,,,,,,,,,724.329283214407,,,,,AMP_prac,left,0.4337160433642566,,,,,,,,,,,,,,,,,,,,,1,,,right,0.3821638685185462,,,,,,,,,,,,,,1017,2019_May_17_1257,mf_amp_cond1,3.0.7,59.991091331924856,
corruption,,&&&&&&&&&&,images/symbols/symbol_10.png,condition_files/AMP_rep3.csv,right,sanctity.vice,,,,,,,,,,,,,,,,,,,,,0,1,1,2,0,25,25,25,,,,,,,,,,,,,724.996013920987,,,,,AMP_prac,left,0.4337160433642566,,,,,,,,,,,,,,,,,,,,,1,,,left,0.44890984217636287,,,,,,,,,,,,,,1017,2019_May_17_1257,mf_amp_cond1,3.0.7,59.991091331924856,
credit,,&&&&&&,images/symbols/symbol_53.png,condition_files/AMP_rep3.csv,left,fairness.virtue,,,,,,,,,,,,,,,,,,,,,0,1,1,2,0,26,26,26,,,,,,,,,,,,,725.8464073489886,,,,,AMP_prac,left,0.4337160433642566,,,,,,,,,,,,,,,,,,,,,1,,,right,0.6324407421052456,,,,,,,,,,,,,,1017,2019_May_17_1257,mf_amp_cond1,3.0.7,59.991091331924856,
phiks,,&&&&&,images/symbols/symbol_3.png,condition_files/AMP_rep3.csv,None,nonword,,,,,,,,,,,,,,,,,,,,,0,1,1,2,0,27,27,27,,,,,,,,,,,,,726.5634698385838,,,,,AMP_prac,left,0.4337160433642566,,,,,,,,,,,,,,,,,,,,,1,,,left,0.49918485525995493,,,,,,,,,,,,,,1017,2019_May_17_1257,mf_amp_cond1,3.0.7,59.991091331924856,
accused,,&&&&&&&,images/symbols/symbol_77.png,condition_files/AMP_rep3.csv,right,fairness.vice,,,,,,,,,,,,,,,,,,,,,0,1,1,2,0,28,28,28,,,,,,,,,,,,,727.2301296629012,,,,,AMP_prac,left,0.4337160433642566,,,,,,,,,,,,,,,,,,,,,1,,,right,0.4485134151764214,,,,,,,,,,,,,,1017,2019_May_17_1257,mf_amp_cond1,3.0.7,59.991091331924856,
pleasant,,&&&&&&&,images/symbols/symbol_51.png,condition_files/AMP_rep3.csv,right,control,,,,,,,,,,,,,,,,,,,,,0,1,1,2,0,29,29,29,,,,,,,,,,,,,728.0637115114368,,,,,AMP_prac,left,0.4337160433642566,,,,,,,,,,,,,,,,,,,,,1,,,left,0.6161789000034332,,,,,,,,,,,,,,1017,2019_May_17_1257,mf_amp_cond1,3.0.7,59.991091331924856,
strength,,&&&&&&&&,images/symbols/symbol_82.png,condition_files/AMP_rep3.csv,left,sanctity.virtue,,,,,,,,,,,,,,,,,,,,,0,1,1,2,0,30,30,30,,,,,,,,,,,,,728.7972597149201,,,,,AMP_prac,left,0.4337160433642566,,,,,,,,,,,,,,,,,,,,,1,,,left,0.5160355642437935,,,,,,,,,,,,,,1017,2019_May_17_1257,mf_amp_cond1,3.0.7,59.991091331924856,
protect,,&&&&&&&,images/symbols/symbol_33.png,condition_files/AMP_rep3.csv,left,fairness.virtue,,,,,,,,,,,,,,,,,,,,,0,1,1,2,0,31,31,31,,,,,,,,,,,,,729.4807837191038,,,,,AMP_prac,left,0.4337160433642566,,,,,,,,,,,,,,,,,,,,,1,,,left,0.46583496150560677,,,,,,,,,,,,,,1017,2019_May_17_1257,mf_amp_cond1,3.0.7,59.991091331924856,
fair,,&&&&,images/symbols/symbol_69.png,condition_files/AMP_rep3.csv,left,fairness.virtue,,,,,,,,,,,,,,,,,,,,,0,1,1,2,0,32,32,32,,,,,,,,,,,,,730.1477459955495,,,,,AMP_prac,left,0.4337160433642566,,,,,,,,,,,,,,,,,,,,,1,,,left,0.44903941871598363,,,,,,,,,,,,,,1017,2019_May_17_1257,mf_amp_cond1,3.0.7,59.991091331924856,
violence,,&&&&&&&&,images/symbols/symbol_23.png,condition_files/AMP_rep3.csv,right,care.vice,,,,,,,,,,,,,,,,,,,,,0,1,1,2,0,33,33,33,,,,,,,,,,,,,730.8812092046719,,,,,AMP_prac,left,0.4337160433642566,,,,,,,,,,,,,,,,,,,,,1,,,left,0.515428415266797,,,,,,,,,,,,,,1017,2019_May_17_1257,mf_amp_cond1,3.0.7,59.991091331924856,
encourage,,&&&&&&&&&,images/symbols/symbol_32.png,condition_files/AMP_rep3.csv,left,authority.virtue,,,,,,,,,,,,,,,,,,,,,0,1,1,2,0,34,34,34,,,,,,,,,,,,,731.514721197309,,,,,AMP_prac,left,0.4337160433642566,,,,,,,,,,,,,,,,,,,,,1,,,left,0.4155435909051448,,,,,,,,,,,,,,1017,2019_May_17_1257,mf_amp_cond1,3.0.7,59.991091331924856,
hope,,&&&&,images/symbols/symbol_81.png,condition_files/AMP_rep3.csv,left,loyalty.virtue,,,,,,,,,,,,,,,,,,,,,0,1,1,2,0,35,35,35,,,,,,,,,,,,,732.2484169383533,,,,,AMP_prac,left,0.4337160433642566,,,,,,,,,,,,,,,,,,,,,1,,,left,0.5005938385147601,,,,,,,,,,,,,,1017,2019_May_17_1257,mf_amp_cond1,3.0.7,59.991091331924856,
riot,,&&&&,images/symbols/symbol_12.png,condition_files/AMP_rep3.csv,right,authority.vice,,,,,,,,,,,,,,,,,,,,,0,1,1,2,0,36,36,36,,,,,,,,,,,,,733.0484984689392,,,,,AMP_prac,left,0.4337160433642566,,,,,,,,,,,,,,,,,,,,,1,,,right,0.5816079729702324,,,,,,,,,,,,,,1017,2019_May_17_1257,mf_amp_cond1,3.0.7,59.991091331924856,
penalty,,&&&&&&&,images/symbols/symbol_57.png,condition_files/AMP_rep3.csv,right,authority.vice,,,,,,,,,,,,,,,,,,,,,0,1,1,2,0,37,37,37,,,,,,,,,,,,,733.6486615298782,,,,,AMP_prac,left,0.4337160433642566,,,,,,,,,,,,,,,,,,,,,1,,,right,0.38221711036749184,,,,,,,,,,,,,,1017,2019_May_17_1257,mf_amp_cond1,3.0.7,59.991091331924856,
groups,,&&&&&&,images/symbols/symbol_20.png,condition_files/AMP_rep3.csv,right,loyalty.vice,,,,,,,,,,,,,,,,,,,,,0,1,1,2,0,38,38,38,,,,,,,,,,,,,734.2489012463484,,,,,AMP_prac,left,0.4337160433642566,,,,,,,,,,,,,,,,,,,,,1,,,right,0.3828197692055255,,,,,,,,,,,,,,1017,2019_May_17_1257,mf_amp_cond1,3.0.7,59.991091331924856,
increase,,&&&&&&&&,images/symbols/symbol_37.png,condition_files/AMP_rep3.csv,left,care.virtue,,,,,,,,,,,,,,,,,,,,,0,1,1,2,0,39,39,39,,,,,,,,,,,,,734.83234445774,,,,,AMP_prac,left,0.4337160433642566,,,,,,,,,,,,,,,,,,,,,1,,,right,0.36544915079139173,,,,,,,,,,,,,,1017,2019_May_17_1257,mf_amp_cond1,3.0.7,59.991091331924856,
praised,,&&&&&&&,images/symbols/symbol_67.png,condition_files/AMP_rep3.csv,left,loyalty.virtue,,,,,,,,,,,,,,,,,,,,,0,1,1,2,0,40,40,40,,,,,,,,,,,,,735.4158521364443,,,,,AMP_prac,left,0.4337160433642566,,,,,,,,,,,,,,,,,,,,,1,,,right,0.3655242023523897,,,,,,,,,,,,,,1017,2019_May_17_1257,mf_amp_cond1,3.0.7,59.991091331924856,
harassment,,&&&&&&&&&&,images/symbols/symbol_72.png,condition_files/AMP_rep3.csv,right,sanctity.vice,,,,,,,,,,,,,,,,,,,,,0,1,1,2,0,41,41,41,,,,,,,,,,,,,735.9826762084849,,,,,AMP_prac,left,0.4337160433642566,,,,,,,,,,,,,,,,,,,,,1,,,left,0.3489185341168195,,,,,,,,,,,,,,1017,2019_May_17_1257,mf_amp_cond1,3.0.7,59.991091331924856,
army,,&&&&,images/symbols/symbol_15.png,condition_files/AMP_rep3.csv,right,loyalty.vice,,,,,,,,,,,,,,,,,,,,,0,1,1,2,0,42,42,42,,,,,,,,,,,,,736.7995824688114,,,,,AMP_prac,left,0.4337160433642566,,,,,,,,,,,,,,,,,,,,,1,,,left,0.5989144446793944,,,,,,,,,,,,,,1017,2019_May_17_1257,mf_amp_cond1,3.0.7,59.991091331924856,
died,,&&&&,images/symbols/symbol_7.png,condition_files/AMP_rep3.csv,right,care.vice,,,,,,,,,,,,,,,,,,,,,0,1,1,2,0,43,43,43,,,,,,,,,,,,,737.4664466003887,,,,,AMP_prac,left,0.4337160433642566,,,,,,,,,,,,,,,,,,,,,1,,,right,0.44903140026144683,,,,,,,,,,,,,,1017,2019_May_17_1257,mf_amp_cond1,3.0.7,59.991091331924856,
men,,&&&,images/symbols/symbol_61.png,condition_files/AMP_rep3.csv,right,loyalty.vice,,,,,,,,,,,,,,,,,,,,,0,1,1,2,0,44,44,44,,,,,,,,,,,,,738.3000149780419,,,,,AMP_prac,left,0.4337160433642566,,,,,,,,,,,,,,,,,,,,,1,,,right,0.6155980513431132,,,,,,,,,,,,,,1017,2019_May_17_1257,mf_amp_cond1,3.0.7,59.991091331924856,
sneaze,,&&&&&&,images/symbols/symbol_5.png,condition_files/AMP_rep3.csv,None,nonword,,,,,,,,,,,,,,,,,,,,,0,1,1,2,0,45,45,45,,,,,,,,,,,,,738.933527932968,,,,,AMP_prac,left,0.4337160433642566,,,,,,,,,,,,,,,,,,,,,1,,,right,0.41552402591332793,,,,,,,,,,,,,,1017,2019_May_17_1257,mf_amp_cond1,3.0.7,59.991091331924856,
peace,,&&&&&,images/symbols/symbol_65.png,condition_files/AMP_rep3.csv,left,care.virtue,,,,,,,,,,,,,,,,,,,,,0,1,1,2,0,46,46,46,,,,,,,,,,,,,739.7171016188804,,,,,AMP_prac,left,0.4337160433642566,,,,,,,,,,,,,,,,,,,,,1,,,left,0.5650500936899334,,,,,,,,,,,,,,1017,2019_May_17_1257,mf_amp_cond1,3.0.7,59.991091331924856,
safety,,&&&&&&,images/symbols/symbol_36.png,condition_files/AMP_rep3.csv,left,care.virtue,,,,,,,,,,,,,,,,,,,,,0,1,1,2,0,47,47,47,,,,,,,,,,,,,740.8007566749584,,,,,AMP_prac,left,0.4337160433642566,,,,,,,,,,,,,,,,,,,,,1,,,right,0.8657382919918746,,,,,,,,,,,,,,1017,2019_May_17_1257,mf_amp_cond1,3.0.7,59.991091331924856,
dignity,,&&&&&&&,images/symbols/symbol_40.png,condition_files/AMP_rep3.csv,left,sanctity.virtue,,,,,,,,,,,,,,,,,,,,,0,1,1,2,0,48,48,48,,,,,,,,,,,,,741.5843024568167,,,,,AMP_prac,left,0.4337160433642566,,,,,,,,,,,,,,,,,,,,,1,,,left,0.5654843673110008,,,,,,,,,,,,,,1017,2019_May_17_1257,mf_amp_cond1,3.0.7,59.991091331924856,
wence,,&&&&&,images/symbols/symbol_29.png,condition_files/AMP_rep3.csv,None,nonword,,,,,,,,,,,,,,,,,,,,,0,1,1,2,0,49,49,49,,,,,,,,,,,,,742.2512297732756,,,,,AMP_prac,left,0.4337160433642566,,,,,,,,,,,,,,,,,,,,,1,,,left,0.44885499658994377,,,,,,,,,,,,,,1017,2019_May_17_1257,mf_amp_cond1,3.0.7,59.991091331924856,
growth,,&&&&&&,images/symbols/symbol_74.png,condition_files/AMP_rep3.csv,left,care.virtue,,,,,,,,,,,,,,,,,,,,,0,1,1,2,0,50,50,50,,,,,,,,,,,,,742.8846843545325,,,,,AMP_prac,left,0.4337160433642566,,,,,,,,,,,,,,,,,,,,,1,,,right,0.40035396185703576,,,,,,,,,,,,,,1017,2019_May_17_1257,mf_amp_cond1,3.0.7,59.991091331924856,
ban,,&&&,images/symbols/symbol_22.png,condition_files/AMP_rep3.csv,right,loyalty.vice,,,,,,,,,,,,,,,,,,,,,0,1,1,2,0,51,51,51,,,,,,,,,,,,,743.6349004488438,,,,,AMP_prac,left,0.4337160433642566,,,,,,,,,,,,,,,,,,,,,1,,,right,0.5316450335085392,,,,,,,,,,,,,,1017,2019_May_17_1257,mf_amp_cond1,3.0.7,59.991091331924856,
death,,&&&&&,images/symbols/symbol_56.png,condition_files/AMP_rep3.csv,right,care.vice,,,,,,,,,,,,,,,,,,,,,0,1,1,2,0,52,52,52,,,,,,,,,,,,,744.3184404899366,,,,,AMP_prac,left,0.4337160433642566,,,,,,,,,,,,,,,,,,,,,1,,,right,0.4656203903723508,,,,,,,,,,,,,,1017,2019_May_17_1257,mf_amp_cond1,3.0.7,59.991091331924856,
lighnde,,&&&&&&&,images/symbols/symbol_25.png,condition_files/AMP_rep3.csv,None,nonword,,,,,,,,,,,,,,,,,,,,,0,1,1,2,0,53,53,53,,,,,,,,,,,,,744.9686165244784,,,,,AMP_prac,left,0.4337160433642566,,,,,,,,,,,,,,,,,,,,,1,,,right,0.4321457310579717,,,,,,,,,,,,,,1017,2019_May_17_1257,mf_amp_cond1,3.0.7,59.991091331924856,
loyalty,,&&&&&&&,images/symbols/symbol_80.png,condition_files/AMP_rep3.csv,left,loyalty.virtue,,,,,,,,,,,,,,,,,,,,,0,1,1,2,0,54,54,54,,,,,,,,,,,,,745.602149685612,,,,,AMP_prac,left,0.4337160433642566,,,,,,,,,,,,,,,,,,,,,1,,,right,0.41607376374304295,,,,,,,,,,,,,,1017,2019_May_17_1257,mf_amp_cond1,3.0.7,59.991091331924856,
freedom,,&&&&&&&,images/symbols/symbol_75.png,condition_files/AMP_rep3.csv,left,sanctity.virtue,,,,,,,,,,,,,,,,,,,,,0,1,1,2,0,55,55,55,,,,,,,,,,,,,746.2190034096129,,,,,AMP_prac,left,0.4337160433642566,,,,,,,,,,,,,,,,,,,,,1,,,right,0.38371301256120205,,,,,,,,,,,,,,1017,2019_May_17_1257,mf_amp_cond1,3.0.7,59.991091331924856,
good,,&&&&,images/symbols/symbol_1.png,condition_files/AMP_rep3.csv,left,care.virtue,,,,,,,,,,,,,,,,,,,,,0,1,1,2,0,56,56,56,,,,,,,,,,,,,746.8525567769539,,,,,AMP_prac,left,0.4337160433642566,,,,,,,,,,,,,,,,,,,,,1,,,right,0.4149835896678269,,,,,,,,,,,,,,1017,2019_May_17_1257,mf_amp_cond1,3.0.7,59.991091331924856,
racist,,&&&&&&,images/symbols/symbol_71.png,condition_files/AMP_rep3.csv,right,sanctity.vice,,,,,,,,,,,,,,,,,,,,,0,1,1,2,0,57,57,57,,,,,,,,,,,,,747.5527034485713,,,,,AMP_prac,left,0.4337160433642566,,,,,,,,,,,,,,,,,,,,,1,,,left,0.4823120154906064,,,,,,,,,,,,,,1017,2019_May_17_1257,mf_amp_cond1,3.0.7,59.991091331924856,
threatened,,&&&&&&&&&&,images/symbols/symbol_78.png,condition_files/AMP_rep3.csv,right,fairness.vice,,,,,,,,,,,,,,,,,,,,,0,1,1,2,0,58,58,58,,,,,,,,,,,,,748.2029032174032,,,,,AMP_prac,left,0.4337160433642566,,,,,,,,,,,,,,,,,,,,,1,,,left,0.43209120631217957,,,,,,,,,,,,,,1017,2019_May_17_1257,mf_amp_cond1,3.0.7,59.991091331924856,
powerful,,&&&&&&&&,images/symbols/symbol_47.png,condition_files/AMP_rep3.csv,left,authority.virtue,,,,,,,,,,,,,,,,,,,,,0,1,1,2,0,59,59,59,,,,,,,,,,,,,749.0531914448366,,,,,AMP_prac,left,0.4337160433642566,,,,,,,,,,,,,,,,,,,,,1,,,right,0.632322391262278,,,,,,,,,,,,,,1017,2019_May_17_1257,mf_amp_cond1,3.0.7,59.991091331924856,
terrorist,,&&&&&&&&&,images/symbols/symbol_30.png,condition_files/AMP_rep3.csv,right,loyalty.vice,,,,,,,,,,,,,,,,,,,,,0,1,1,2,0,60,60,60,,,,,,,,,,,,,749.7366673389915,,,,,AMP_prac,left,0.4337160433642566,,,,,,,,,,,,,,,,,,,,,1,,,right,0.465519038727507,,,,,,,,,,,,,,1017,2019_May_17_1257,mf_amp_cond1,3.0.7,59.991091331924856,
celebrated,,&&&&&&&&&&,images/symbols/symbol_18.png,condition_files/AMP_rep3.csv,left,authority.virtue,,,,,,,,,,,,,,,,,,,,,0,1,1,2,0,61,61,61,,,,,,,,,,,,,750.3201827155426,,,,,AMP_prac,left,0.4337160433642566,,,,,,,,,,,,,,,,,,,,,1,,,right,0.3503567040897906,,,,,,,,,,,,,,1017,2019_May_17_1257,mf_amp_cond1,3.0.7,59.991091331924856,
free,,&&&&,images/symbols/symbol_2.png,condition_files/AMP_rep3.csv,left,fairness.virtue,,,,,,,,,,,,,,,,,,,,,0,1,1,2,0,62,62,62,,,,,,,,,,,,,750.9537049715873,,,,,AMP_prac,left,0.4337160433642566,,,,,,,,,,,,,,,,,,,,,1,,,right,0.4151327309664339,,,,,,,,,,,,,,1017,2019_May_17_1257,mf_amp_cond1,3.0.7,59.991091331924856,
scandal,,&&&&&&&,images/symbols/symbol_42.png,condition_files/AMP_rep3.csv,right,sanctity.vice,,,,,,,,,,,,,,,,,,,,,0,1,1,2,0,63,63,63,,,,,,,,,,,,,751.7205857494846,,,,,AMP_prac,left,0.4337160433642566,,,,,,,,,,,,,,,,,,,,,1,,,left,0.548921997891739,,,,,,,,,,,,,,1017,2019_May_17_1257,mf_amp_cond1,3.0.7,59.991091331924856,
charges,,&&&&&&&,images/symbols/symbol_46.png,condition_files/AMP_rep3.csv,right,fairness.vice,,,,,,,,,,,,,,,,,,,,,0,1,1,2,0,64,64,64,,,,,,,,,,,,,752.4208308863454,,,,,AMP_prac,left,0.4337160433642566,,,,,,,,,,,,,,,,,,,,,1,,,left,0.4820368259679526,,,,,,,,,,,,,,1017,2019_May_17_1257,mf_amp_cond1,3.0.7,59.991091331924856,
shypse,,&&&&&&,images/symbols/symbol_44.png,condition_files/AMP_rep3.csv,None,nonword,,,,,,,,,,,,,,,,,,,,,0,1,1,2,0,65,65,65,,,,,,,,,,,,,753.0043106612284,,,,,AMP_prac,left,0.4337160433642566,,,,,,,,,,,,,,,,,,,,,1,,,left,0.3656002162024379,,,,,,,,,,,,,,1017,2019_May_17_1257,mf_amp_cond1,3.0.7,59.991091331924856,
integrity,,&&&&&&&&&,images/symbols/symbol_58.png,condition_files/AMP_rep3.csv,left,fairness.virtue,,,,,,,,,,,,,,,,,,,,,0,1,1,2,0,66,66,66,,,,,,,,,,,,,753.6044634587597,,,,,AMP_prac,left,0.4337160433642566,,,,,,,,,,,,,,,,,,,,,1,,,right,0.36703133024275303,,,,,,,,,,,,,,1017,2019_May_17_1257,mf_amp_cond1,3.0.7,59.991091331924856,
faith,,&&&&&,images/symbols/symbol_48.png,condition_files/AMP_rep3.csv,left,sanctity.virtue,,,,,,,,,,,,,,,,,,,,,0,1,1,2,0,67,67,67,,,,,,,,,,,,,754.1880048147868,,,,,AMP_prac,left,0.4337160433642566,,,,,,,,,,,,,,,,,,,,,1,,,right,0.36511334241367877,,,,,,,,,,,,,,1017,2019_May_17_1257,mf_amp_cond1,3.0.7,59.991091331924856,
torture,,&&&&&&&,images/symbols/symbol_41.png,condition_files/AMP_rep3.csv,right,care.vice,,,,,,,,,,,,,,,,,,,,,0,1,1,2,0,68,68,68,,,,,,,,,,,,,754.7714679115452,,,,,AMP_prac,left,0.4337160433642566,,,,,,,,,,,,,,,,,,,,,1,,,left,0.3660604692995548,,,,,,,,,,,,,,1017,2019_May_17_1257,mf_amp_cond1,3.0.7,59.991091331924856,
psyncs,,&&&&&&,images/symbols/symbol_66.png,condition_files/AMP_rep3.csv,None,nonword,,,,,,,,,,,,,,,,,,,,,0,1,1,2,0,69,69,69,,,,,,,,,,,,,755.3216317906044,,,,,AMP_prac,left,0.4337160433642566,,,,,,,,,,,,,,,,,,,,,1,,,left,0.33208033349364996,,,,,,,,,,,,,,1017,2019_May_17_1257,mf_amp_cond1,3.0.7,59.991091331924856,
opportunity,,&&&&&&&&&&&,images/symbols/symbol_59.png,condition_files/AMP_rep3.csv,left,fairness.virtue,,,,,,,,,,,,,,,,,,,,,0,1,1,2,0,70,70,70,,,,,,,,,,,,,755.9051333754323,,,,,AMP_prac,left,0.4337160433642566,,,,,,,,,,,,,,,,,,,,,1,,,right,0.3655819343402982,,,,,,,,,,,,,,1017,2019_May_17_1257,mf_amp_cond1,3.0.7,59.991091331924856,
terrorists,,&&&&&&&&&&,images/symbols/symbol_11.png,condition_files/AMP_rep3.csv,right,fairness.vice,,,,,,,,,,,,,,,,,,,,,0,1,1,2,0,71,71,71,,,,,,,,,,,,,756.4886356017087,,,,,AMP_prac,left,0.4337160433642566,,,,,,,,,,,,,,,,,,,,,1,,,right,0.36557167093269527,,,,,,,,,,,,,,1017,2019_May_17_1257,mf_amp_cond1,3.0.7,59.991091331924856,
values,,&&&&&&,images/symbols/symbol_17.png,condition_files/AMP_rep3.csv,left,sanctity.virtue,,,,,,,,,,,,,,,,,,,,,0,1,1,2,0,72,72,72,,,,,,,,,,,,,757.0721448843833,,,,,AMP_prac,left,0.4337160433642566,,,,,,,,,,,,,,,,,,,,,1,,,right,0.3656277994159609,,,,,,,,,,,,,,1017,2019_May_17_1257,mf_amp_cond1,3.0.7,59.991091331924856,
improve,,&&&&&&&,images/symbols/symbol_45.png,condition_files/AMP_rep3.csv,left,care.virtue,,,,,,,,,,,,,,,,,,,,,0,1,1,2,0,73,73,73,,,,,,,,,,,,,757.6889912313782,,,,,AMP_prac,left,0.4337160433642566,,,,,,,,,,,,,,,,,,,,,1,,,right,0.39895363827235997,,,,,,,,,,,,,,1017,2019_May_17_1257,mf_amp_cond1,3.0.7,59.991091331924856,
prosecution,,&&&&&&&&&&&,images/symbols/symbol_60.png,condition_files/AMP_rep3.csv,right,authority.vice,,,,,,,,,,,,,,,,,,,,,0,1,1,2,0,74,74,74,,,,,,,,,,,,,758.2891735364683,,,,,AMP_prac,left,0.4337160433642566,,,,,,,,,,,,,,,,,,,,,1,,,right,0.38220973359420896,,,,,,,,,,,,,,1017,2019_May_17_1257,mf_amp_cond1,3.0.7,59.991091331924856,
safe,,&&&&,images/symbols/symbol_19.png,condition_files/AMP_rep3.csv,left,care.virtue,,,,,,,,,,,,,,,,,,,,,0,1,1,2,0,75,75,75,,,,,,,,,,,,,758.8059811068233,,,,,AMP_prac,left,0.4337160433642566,,,,,,,,,,,,,,,,,,,,,1,,,right,0.2988314707763493,,,,,,,,,,,,,,1017,2019_May_17_1257,mf_amp_cond1,3.0.7,59.991091331924856,
shot,,&&&&,images/symbols/symbol_54.png,condition_files/AMP_rep3.csv,right,care.vice,,,,,,,,,,,,,,,,,,,,,0,1,1,2,0,76,76,76,,,,,,,,,,,,,759.3728093483951,,,,,AMP_prac,left,0.4337160433642566,,,,,,,,,,,,,,,,,,,,,1,,,right,0.3486006867606193,,,,,,,,,,,,,,1017,2019_May_17_1257,mf_amp_cond1,3.0.7,59.991091331924856,
betrayal,,&&&&&&&&,images/symbols/symbol_13.png,condition_files/AMP_rep3.csv,right,loyalty.vice,,,,,,,,,,,,,,,,,,,,,0,1,1,2,0,77,77,77,,,,,,,,,,,,,759.9229655296076,,,,,AMP_prac,left,0.4337160433642566,,,,,,,,,,,,,,,,,,,,,1,,,left,0.33216115832328796,,,,,,,,,,,,,,1017,2019_May_17_1257,mf_amp_cond1,3.0.7,59.991091331924856,
slavery,,&&&&&&&,images/symbols/symbol_70.png,condition_files/AMP_rep3.csv,right,loyalty.vice,,,,,,,,,,,,,,,,,,,,,0,1,1,2,0,78,78,78,,,,,,,,,,,,,760.7565473781433,,,,,AMP_prac,left,0.4337160433642566,,,,,,,,,,,,,,,,,,,,,1,,,right,0.615518830018118,,,,,,,,,,,,,,1017,2019_May_17_1257,mf_amp_cond1,3.0.7,59.991091331924856,
intelligence,,&&&&&&&&&&&&,images/symbols/symbol_49.png,condition_files/AMP_rep3.csv,left,loyalty.virtue,,,,,,,,,,,,,,,,,,,,,0,1,1,2,0,79,79,79,,,,,,,,,,,,,761.4067644667812,,,,,AMP_prac,left,0.4337160433642566,,,,,,,,,,,,,,,,,,,,,1,,,right,0.41706835897639394,,,,,,,,,,,,,,1017,2019_May_17_1257,mf_amp_cond1,3.0.7,59.991091331924856,
refused,,&&&&&&&,images/symbols/symbol_8.png,condition_files/AMP_rep3.csv,right,authority.vice,,,,,,,,,,,,,,,,,,,,,0,1,1,2,0,80,80,80,,,,,,,,,,,,,762.1236941725947,,,,,AMP_prac,left,0.4337160433642566,,,,,,,,,,,,,,,,,,,,,1,,,left,0.4985972710419446,,,,,,,,,,,,,,1017,2019_May_17_1257,mf_amp_cond1,3.0.7,59.991091331924856,
unpleasant,,&&&&&&&&&,images/symbols/symbol_26.png,condition_files/AMP_rep3.csv,left,control,,,,,,,,,,,,,,,,,,,,,0,1,1,2,0,81,81,81,,,,,,,,,,,,,762.9571913473774,,,,,AMP_prac,left,0.4337160433642566,,,,,,,,,,,,,,,,,,,,,1,,,left,0.6156487273983657,,,,,,,,,,,,,,1017,2019_May_17_1257,mf_amp_cond1,3.0.7,59.991091331924856,
,,,,condition_files/AMP_rep3.csv,,,,,,,,,,,,,,,,,,,,,,,0,1,1,2,,,,,,,,,,,,,,,,,,,,,,,,,,,,,,,,,,,,,,,,,,,,,,,,,,right,2.7177411620505154,,,,,,,,,,,,1017,2019_May_17_1257,mf_amp_cond1,3.0.7,59.991091331924856,
trust,,&&&&&,images/symbols/symbol_16.png,condition_files/AMP_rep2.csv,left,authority.virtue,,,,,,,,,,,,,,,,,,,,,0,2,2,1,0,0,0,0,,,,,,,,,,,,,766.5583781905007,,,,,AMP_prac,left,0.4337160433642566,,,,,,,,,,,,,,,,,,,,,1,,,right,0.6323891039937735,,,,,,,,,,,,,,1017,2019_May_17_1257,mf_amp_cond1,3.0.7,59.991091331924856,
honored,,&&&&&&&,images/symbols/symbol_31.png,condition_files/AMP_rep2.csv,left,authority.virtue,,,,,,,,,,,,,,,,,,,,,0,2,2,1,0,1,1,1,,,,,,,,,,,,,767.2751273231115,,,,,AMP_prac,left,0.4337160433642566,,,,,,,,,,,,,,,,,,,,,1,,,right,0.48373735626228154,,,,,,,,,,,,,,1017,2019_May_17_1257,mf_amp_cond1,3.0.7,59.991091331924856,
cande,,&&&&&,images/symbols/symbol_14.png,condition_files/AMP_rep2.csv,None,nonword,,,,,,,,,,,,,,,,,,,,,0,2,2,1,0,2,2,2,,,,,,,,,,,,,767.8753109110985,,,,,AMP_prac,left,0.4337160433642566,,,,,,,,,,,,,,,,,,,,,1,,,right,0.3816057920921594,,,,,,,,,,,,,,1017,2019_May_17_1257,mf_amp_cond1,3.0.7,59.991091331924856,
suicide,,&&&&&&&,images/symbols/symbol_55.png,condition_files/AMP_rep2.csv,right,care.vice,,,,,,,,,,,,,,,,,,,,,0,2,2,1,0,3,3,3,,,,,,,,,,,,,768.5088094330858,,,,,AMP_prac,left,0.4337160433642566,,,,,,,,,,,,,,,,,,,,,1,,,right,0.40038378979079425,,,,,,,,,,,,,,1017,2019_May_17_1257,mf_amp_cond1,3.0.7,59.991091331924856,
sexual,,&&&&&&,images/symbols/symbol_6.png,condition_files/AMP_rep2.csv,right,sanctity.vice,,,,,,,,,,,,,,,,,,,,,0,2,2,1,0,4,4,4,,,,,,,,,,,,,769.2590585630387,,,,,AMP_prac,left,0.4337160433642566,,,,,,,,,,,,,,,,,,,,,1,,,right,0.531858321512118,,,,,,,,,,,,,,1017,2019_May_17_1257,mf_amp_cond1,3.0.7,59.991091331924856,
illegal,,&&&&&&&,images/symbols/symbol_9.png,condition_files/AMP_rep2.csv,right,fairness.vice,,,,,,,,,,,,,,,,,,,,,0,2,2,1,0,5,5,5,,,,,,,,,,,,,769.9592215919401,,,,,AMP_prac,left,0.4337160433642566,,,,,,,,,,,,,,,,,,,,,1,,,right,0.48222221015021205,,,,,,,,,,,,,,1017,2019_May_17_1257,mf_amp_cond1,3.0.7,59.991091331924856,
peaceful,,&&&&&&&&,images/symbols/symbol_73.png,condition_files/AMP_rep2.csv,left,authority.virtue,,,,,,,,,,,,,,,,,,,,,0,2,2,1,0,6,6,6,,,,,,,,,,,,,770.5760737122037,,,,,AMP_prac,left,0.4337160433642566,,,,,,,,,,,,,,,,,,,,,1,,,right,0.39876119792461395,,,,,,,,,,,,,,1017,2019_May_17_1257,mf_amp_cond1,3.0.7,59.991091331924856,
interests,,&&&&&&&&&,images/symbols/symbol_34.png,condition_files/AMP_rep2.csv,left,fairness.virtue,,,,,,,,,,,,,,,,,,,,,0,2,2,1,0,7,7,7,,,,,,,,,,,,,771.4428473329172,,,,,AMP_prac,left,0.4337160433642566,,,,,,,,,,,,,,,,,,,,,1,,,left,0.6487651269417256,,,,,,,,,,,,,,1017,2019_May_17_1257,mf_amp_cond1,3.0.7,59.991091331924856,
abuse,,&&&&&,images/symbols/symbol_21.png,condition_files/AMP_rep2.csv,right,sanctity.vice,,,,,,,,,,,,,,,,,,,,,0,2,2,1,0,8,8,8,,,,,,,,,,,,,772.2098708371632,,,,,AMP_prac,left,0.4337160433642566,,,,,,,,,,,,,,,,,,,,,1,,,left,0.5492315059527755,,,,,,,,,,,,,,1017,2019_May_17_1257,mf_amp_cond1,3.0.7,59.991091331924856,
great,,&&&&&,images/symbols/symbol_27.png,condition_files/AMP_rep2.csv,left,loyalty.virtue,,,,,,,,,,,,,,,,,,,,,0,2,2,1,0,9,9,9,,,,,,,,,,,,,772.8433934140485,,,,,AMP_prac,left,0.4337160433642566,,,,,,,,,,,,,,,,,,,,,1,,,right,0.4155843239277601,,,,,,,,,,,,,,1017,2019_May_17_1257,mf_amp_cond1,3.0.7,59.991091331924856,
useful,,&&&&&&,images/symbols/symbol_76.png,condition_files/AMP_rep2.csv,left,authority.virtue,,,,,,,,,,,,,,,,,,,,,0,2,2,1,0,10,10,10,,,,,,,,,,,,,773.4602477794979,,,,,AMP_prac,left,0.4337160433642566,,,,,,,,,,,,,,,,,,,,,1,,,right,0.3993773276451975,,,,,,,,,,,,,,1017,2019_May_17_1257,mf_amp_cond1,3.0.7,59.991091331924856,
rebels,,&&&&&&,images/symbols/symbol_4.png,condition_files/AMP_rep2.csv,right,authority.vice,,,,,,,,,,,,,,,,,,,,,0,2,2,1,0,11,11,11,,,,,,,,,,,,,774.2271263122093,,,,,AMP_prac,left,0.4337160433642566,,,,,,,,,,,,,,,,,,,,,1,,,left,0.5484056167770177,,,,,,,,,,,,,,1017,2019_May_17_1257,mf_amp_cond1,3.0.7,59.991091331924856,
lies,,&&&&,images/symbols/symbol_62.png,condition_files/AMP_rep2.csv,right,fairness.vice,,,,,,,,,,,,,,,,,,,,,0,2,2,1,0,12,12,12,,,,,,,,,,,,,775.1774116209708,,,,,AMP_prac,left,0.4337160433642566,,,,,,,,,,,,,,,,,,,,,1,,,right,0.7171330510172993,,,,,,,,,,,,,,1017,2019_May_17_1257,mf_amp_cond1,3.0.7,59.991091331924856,
stourz,,&&&&&&,images/symbols/symbol_68.png,condition_files/AMP_rep2.csv,None,nonword,,,,,,,,,,,,,,,,,,,,,0,2,2,1,0,13,13,13,,,,,,,,,,,,,776.0276783590671,,,,,AMP_prac,left,0.4337160433642566,,,,,,,,,,,,,,,,,,,,,1,,,left,0.6317190912086517,,,,,,,,,,,,,,1017,2019_May_17_1257,mf_amp_cond1,3.0.7,59.991091331924856,
officers,,&&&&&&&&,images/symbols/symbol_79.png,condition_files/AMP_rep2.csv,right,authority.vice,,,,,,,,,,,,,,,,,,,,,0,2,2,1,0,14,14,14,,,,,,,,,,,,,776.8278792025521,,,,,AMP_prac,left,0.4337160433642566,,,,,,,,,,,,,,,,,,,,,1,,,right,0.5820223607588559,,,,,,,,,,,,,,1017,2019_May_17_1257,mf_amp_cond1,3.0.7,59.991091331924856,
hand,,&&&&,images/symbols/symbol_35.png,condition_files/AMP_rep2.csv,left,sanctity.virtue,,,,,,,,,,,,,,,,,,,,,0,2,2,1,0,15,15,15,,,,,,,,,,,,,777.544803135097,,,,,AMP_prac,left,0.4337160433642566,,,,,,,,,,,,,,,,,,,,,1,,,left,0.49901743209920824,,,,,,,,,,,,,,1017,2019_May_17_1257,mf_amp_cond1,3.0.7,59.991091331924856,
support,,&&&&&&&,images/symbols/symbol_52.png,condition_files/AMP_rep2.csv,left,loyalty.virtue,,,,,,,,,,,,,,,,,,,,,0,2,2,1,0,16,16,16,,,,,,,,,,,,,778.4450103612617,,,,,AMP_prac,left,0.4337160433642566,,,,,,,,,,,,,,,,,,,,,1,,,left,0.6670918527524918,,,,,,,,,,,,,,1017,2019_May_17_1257,mf_amp_cond1,3.0.7,59.991091331924856,
foald,,&&&&&,images/symbols/symbol_43.png,condition_files/AMP_rep2.csv,None,nonword,,,,,,,,,,,,,,,,,,,,,0,2,2,1,0,17,17,17,,,,,,,,,,,,,779.1786156552844,,,,,AMP_prac,left,0.4337160433642566,,,,,,,,,,,,,,,,,,,,,1,,,left,0.5004527156706899,,,,,,,,,,,,,,1017,2019_May_17_1257,mf_amp_cond1,3.0.7,59.991091331924856,
fighters,,&&&&&&&&,images/symbols/symbol_50.png,condition_files/AMP_rep2.csv,right,authority.vice,,,,,,,,,,,,,,,,,,,,,0,2,2,1,0,18,18,18,,,,,,,,,,,,,780.0121455451008,,,,,AMP_prac,left,0.4337160433642566,,,,,,,,,,,,,,,,,,,,,1,,,left,0.6151429302990437,,,,,,,,,,,,,,1017,2019_May_17_1257,mf_amp_cond1,3.0.7,59.991091331924856,
troalde,,&&&&&&&,images/symbols/symbol_38.png,condition_files/AMP_rep2.csv,None,nonword,,,,,,,,,,,,,,,,,,,,,0,2,2,1,0,19,19,19,,,,,,,,,,,,,781.1124649636913,,,,,AMP_prac,left,0.4337160433642566,,,,,,,,,,,,,,,,,,,,,1,,,right,0.882503365399316,,,,,,,,,,,,,,1017,2019_May_17_1257,mf_amp_cond1,3.0.7,59.991091331924856,
energy,,&&&&&&,images/symbols/symbol_39.png,condition_files/AMP_rep2.csv,left,sanctity.virtue,,,,,,,,,,,,,,,,,,,,,0,2,2,1,0,20,20,20,,,,,,,,,,,,,781.7293052168097,,,,,AMP_prac,left,0.4337160433642566,,,,,,,,,,,,,,,,,,,,,1,,,right,0.398596019949764,,,,,,,,,,,,,,1017,2019_May_17_1257,mf_amp_cond1,3.0.7,59.991091331924856,
fraud,,&&&&&,images/symbols/symbol_24.png,condition_files/AMP_rep2.csv,right,fairness.vice,,,,,,,,,,,,,,,,,,,,,0,2,2,1,0,21,21,21,,,,,,,,,,,,,782.4462320359889,,,,,AMP_prac,left,0.4337160433642566,,,,,,,,,,,,,,,,,,,,,1,,,right,0.49901101761497557,,,,,,,,,,,,,,1017,2019_May_17_1257,mf_amp_cond1,3.0.7,59.991091331924856,
killed,,&&&&&&,images/symbols/symbol_63.png,condition_files/AMP_rep2.csv,right,care.vice,,,,,,,,,,,,,,,,,,,,,0,2,2,1,0,22,22,22,,,,,,,,,,,,,783.1631242157891,,,,,AMP_prac,left,0.4337160433642566,,,,,,,,,,,,,,,,,,,,,1,,,left,0.499268245883286,,,,,,,,,,,,,,1017,2019_May_17_1257,mf_amp_cond1,3.0.7,59.991091331924856,
drug,,&&&&,images/symbols/symbol_28.png,condition_files/AMP_rep2.csv,right,sanctity.vice,,,,,,,,,,,,,,,,,,,,,0,2,2,1,0,23,23,23,,,,,,,,,,,,,783.9132739184424,,,,,AMP_prac,left,0.4337160433642566,,,,,,,,,,,,,,,,,,,,,1,,,right,0.532333007780835,,,,,,,,,,,,,,1017,2019_May_17_1257,mf_amp_cond1,3.0.7,59.991091331924856,
strong,,&&&&&&,images/symbols/symbol_64.png,condition_files/AMP_rep2.csv,left,loyalty.virtue,,,,,,,,,,,,,,,,,,,,,0,2,2,1,0,24,24,24,,,,,,,,,,,,,784.6968674897216,,,,,AMP_prac,left,0.4337160433642566,,,,,,,,,,,,,,,,,,,,,1,,,right,0.5653724311850965,,,,,,,,,,,,,,1017,2019_May_17_1257,mf_amp_cond1,3.0.7,59.991091331924856,
corruption,,&&&&&&&&&&,images/symbols/symbol_10.png,condition_files/AMP_rep2.csv,right,sanctity.vice,,,,,,,,,,,,,,,,,,,,,0,2,2,1,0,25,25,25,,,,,,,,,,,,,785.4637527577579,,,,,AMP_prac,left,0.4337160433642566,,,,,,,,,,,,,,,,,,,,,1,,,left,0.5489976911339909,,,,,,,,,,,,,,1017,2019_May_17_1257,mf_amp_cond1,3.0.7,59.991091331924856,
credit,,&&&&&&,images/symbols/symbol_53.png,condition_files/AMP_rep2.csv,left,fairness.virtue,,,,,,,,,,,,,,,,,,,,,0,2,2,1,0,26,26,26,,,,,,,,,,,,,786.2973127963487,,,,,AMP_prac,left,0.4337160433642566,,,,,,,,,,,,,,,,,,,,,1,,,right,0.6157385327387601,,,,,,,,,,,,,,1017,2019_May_17_1257,mf_amp_cond1,3.0.7,59.991091331924856,
phiks,,&&&&&,images/symbols/symbol_3.png,condition_files/AMP_rep2.csv,None,nonword,,,,,,,,,,,,,,,,,,,,,0,2,2,1,0,27,27,27,,,,,,,,,,,,,787.1143066168297,,,,,AMP_prac,left,0.4337160433642566,,,,,,,,,,,,,,,,,,,,,1,,,left,0.5989917414262891,,,,,,,,,,,,,,1017,2019_May_17_1257,mf_amp_cond1,3.0.7,59.991091331924856,
accused,,&&&&&&&,images/symbols/symbol_77.png,condition_files/AMP_rep2.csv,right,fairness.vice,,,,,,,,,,,,,,,,,,,,,0,2,2,1,0,28,28,28,,,,,,,,,,,,,787.9311342972796,,,,,AMP_prac,left,0.4337160433642566,,,,,,,,,,,,,,,,,,,,,1,,,left,0.5987011566758156,,,,,,,,,,,,,,1017,2019_May_17_1257,mf_amp_cond1,3.0.7,59.991091331924856,
pleasant,,&&&&&&&,images/symbols/symbol_51.png,condition_files/AMP_rep2.csv,right,control,,,,,,,,,,,,,,,,,,,,,0,2,2,1,0,29,29,29,,,,,,,,,,,,,788.6980019249022,,,,,AMP_prac,left,0.4337160433642566,,,,,,,,,,,,,,,,,,,,,1,,,left,0.549397966824472,,,,,,,,,,,,,,1017,2019_May_17_1257,mf_amp_cond1,3.0.7,59.991091331924856,
strength,,&&&&&&&&,images/symbols/symbol_82.png,condition_files/AMP_rep2.csv,left,sanctity.virtue,,,,,,,,,,,,,,,,,,,,,0,2,2,1,0,30,30,30,,,,,,,,,,,,,789.9316946191248,,,,,AMP_prac,left,0.4337160433642566,,,,,,,,,,,,,,,,,,,,,1,,,left,1.0161614522803575,,,,,,,,,,,,,,1017,2019_May_17_1257,mf_amp_cond1,3.0.7,59.991091331924856,
protect,,&&&&&&&,images/symbols/symbol_33.png,condition_files/AMP_rep2.csv,left,fairness.virtue,,,,,,,,,,,,,,,,,,,,,0,2,2,1,0,31,31,31,,,,,,,,,,,,,791.0486893055495,,,,,AMP_prac,left,0.4337160433642566,,,,,,,,,,,,,,,,,,,,,1,,,left,0.8991651621181518,,,,,,,,,,,,,,1017,2019_May_17_1257,mf_amp_cond1,3.0.7,59.991091331924856,
fair,,&&&&,images/symbols/symbol_69.png,condition_files/AMP_rep2.csv,left,fairness.virtue,,,,,,,,,,,,,,,,,,,,,0,2,2,1,0,32,32,32,,,,,,,,,,,,,791.798909569392,,,,,AMP_prac,left,0.4337160433642566,,,,,,,,,,,,,,,,,,,,,1,,,left,0.5320854012388736,,,,,,,,,,,,,,1017,2019_May_17_1257,mf_amp_cond1,3.0.7,59.991091331924856,
violence,,&&&&&&&&,images/symbols/symbol_23.png,condition_files/AMP_rep2.csv,right,care.vice,,,,,,,,,,,,,,,,,,,,,0,2,2,1,0,33,33,33,,,,,,,,,,,,,792.4823023935314,,,,,AMP_prac,left,0.4337160433642566,,,,,,,,,,,,,,,,,,,,,1,,,left,0.4654452698305249,,,,,,,,,,,,,,1017,2019_May_17_1257,mf_amp_cond1,3.0.7,59.991091331924856,
encourage,,&&&&&&&&&,images/symbols/symbol_32.png,condition_files/AMP_rep2.csv,left,authority.virtue,,,,,,,,,,,,,,,,,,,,,0,2,2,1,0,34,34,34,,,,,,,,,,,,,793.1826540138572,,,,,AMP_prac,left,0.4337160433642566,,,,,,,,,,,,,,,,,,,,,1,,,left,0.48222958692349494,,,,,,,,,,,,,,1017,2019_May_17_1257,mf_amp_cond1,3.0.7,59.991091331924856,
hope,,&&&&,images/symbols/symbol_81.png,condition_files/AMP_rep2.csv,left,loyalty.virtue,,,,,,,,,,,,,,,,,,,,,0,2,2,1,0,35,35,35,,,,,,,,,,,,,793.7494639735669,,,,,AMP_prac,left,0.4337160433642566,,,,,,,,,,,,,,,,,,,,,1,,,left,0.3336846437305212,,,,,,,,,,,,,,1017,2019_May_17_1257,mf_amp_cond1,3.0.7,59.991091331924856,
riot,,&&&&,images/symbols/symbol_12.png,condition_files/AMP_rep2.csv,right,authority.vice,,,,,,,,,,,,,,,,,,,,,0,2,2,1,0,36,36,36,,,,,,,,,,,,,794.5663744031917,,,,,AMP_prac,left,0.4337160433642566,,,,,,,,,,,,,,,,,,,,,1,,,right,0.5982072267215699,,,,,,,,,,,,,,1017,2019_May_17_1257,mf_amp_cond1,3.0.7,59.991091331924856,
penalty,,&&&&&&&,images/symbols/symbol_57.png,condition_files/AMP_rep2.csv,right,authority.vice,,,,,,,,,,,,,,,,,,,,,0,2,2,1,0,37,37,37,,,,,,,,,,,,,795.4666772079654,,,,,AMP_prac,left,0.4337160433642566,,,,,,,,,,,,,,,,,,,,,1,,,right,0.6824906000401825,,,,,,,,,,,,,,1017,2019_May_17_1257,mf_amp_cond1,3.0.7,59.991091331924856,
groups,,&&&&&&,images/symbols/symbol_20.png,condition_files/AMP_rep2.csv,right,loyalty.vice,,,,,,,,,,,,,,,,,,,,,0,2,2,1,0,38,38,38,,,,,,,,,,,,,796.10019080434,,,,,AMP_prac,left,0.4337160433642566,,,,,,,,,,,,,,,,,,,,,1,,,right,0.4161221943795681,,,,,,,,,,,,,,1017,2019_May_17_1257,mf_amp_cond1,3.0.7,59.991091331924856,
increase,,&&&&&&&&,images/symbols/symbol_37.png,condition_files/AMP_rep2.csv,left,care.virtue,,,,,,,,,,,,,,,,,,,,,0,2,2,1,0,39,39,39,,,,,,,,,,,,,796.750337010948,,,,,AMP_prac,left,0.4337160433642566,,,,,,,,,,,,,,,,,,,,,1,,,right,0.4321152614429593,,,,,,,,,,,,,,1017,2019_May_17_1257,mf_amp_cond1,3.0.7,59.991091331924856,
praised,,&&&&&&&,images/symbols/symbol_67.png,condition_files/AMP_rep2.csv,left,loyalty.virtue,,,,,,,,,,,,,,,,,,,,,0,2,2,1,0,40,40,40,,,,,,,,,,,,,797.4672856398392,,,,,AMP_prac,left,0.4337160433642566,,,,,,,,,,,,,,,,,,,,,1,,,left,0.49899626383557916,,,,,,,,,,,,,,1017,2019_May_17_1257,mf_amp_cond1,3.0.7,59.991091331924856,
harassment,,&&&&&&&&&&,images/symbols/symbol_72.png,condition_files/AMP_rep2.csv,right,sanctity.vice,,,,,,,,,,,,,,,,,,,,,0,2,2,1,0,41,41,41,,,,,,,,,,,,,798.200776752783,,,,,AMP_prac,left,0.4337160433642566,,,,,,,,,,,,,,,,,,,,,1,,,right,0.5155891028698534,,,,,,,,,,,,,,1017,2019_May_17_1257,mf_amp_cond1,3.0.7,59.991091331924856,
army,,&&&&,images/symbols/symbol_15.png,condition_files/AMP_rep2.csv,right,loyalty.vice,,,,,,,,,,,,,,,,,,,,,0,2,2,1,0,42,42,42,,,,,,,,,,,,,798.8842985120136,,,,,AMP_prac,left,0.4337160433642566,,,,,,,,,,,,,,,,,,,,,1,,,right,0.4654266673605889,,,,,,,,,,,,,,1017,2019_May_17_1257,mf_amp_cond1,3.0.7,59.991091331924856,
died,,&&&&,images/symbols/symbol_7.png,condition_files/AMP_rep2.csv,right,care.vice,,,,,,,,,,,,,,,,,,,,,0,2,2,1,0,43,43,43,,,,,,,,,,,,,799.751272270456,,,,,AMP_prac,left,0.4337160433642566,,,,,,,,,,,,,,,,,,,,,1,,,right,0.6492279458325356,,,,,,,,,,,,,,1017,2019_May_17_1257,mf_amp_cond1,3.0.7,59.991091331924856,
men,,&&&,images/symbols/symbol_61.png,condition_files/AMP_rep2.csv,right,loyalty.vice,,,,,,,,,,,,,,,,,,,,,0,2,2,1,0,44,44,44,,,,,,,,,,,,,800.5347644898575,,,,,AMP_prac,left,0.4337160433642566,,,,,,,,,,,,,,,,,,,,,1,,,right,0.5655696822796017,,,,,,,,,,,,,,1017,2019_May_17_1257,mf_amp_cond1,3.0.7,59.991091331924856,
sneaze,,&&&&&&,images/symbols/symbol_5.png,condition_files/AMP_rep2.csv,None,nonword,,,,,,,,,,,,,,,,,,,,,0,2,2,1,0,45,45,45,,,,,,,,,,,,,801.2849918098655,,,,,AMP_prac,left,0.4337160433642566,,,,,,,,,,,,,,,,,,,,,1,,,left,0.5322117700707167,,,,,,,,,,,,,,1017,2019_May_17_1257,mf_amp_cond1,3.0.7,59.991091331924856,
peace,,&&&&&,images/symbols/symbol_65.png,condition_files/AMP_rep2.csv,left,care.virtue,,,,,,,,,,,,,,,,,,,,,0,2,2,1,0,46,46,46,,,,,,,,,,,,,801.9185224052053,,,,,AMP_prac,left,0.4337160433642566,,,,,,,,,,,,,,,,,,,,,1,,,left,0.41475041629746556,,,,,,,,,,,,,,1017,2019_May_17_1257,mf_amp_cond1,3.0.7,59.991091331924856,
safety,,&&&&&&,images/symbols/symbol_36.png,condition_files/AMP_rep2.csv,left,care.virtue,,,,,,,,,,,,,,,,,,,,,0,2,2,1,0,47,47,47,,,,,,,,,,,,,802.7854249607772,,,,,AMP_prac,left,0.4337160433642566,,,,,,,,,,,,,,,,,,,,,1,,,right,0.6490739935543388,,,,,,,,,,,,,,1017,2019_May_17_1257,mf_amp_cond1,3.0.7,59.991091331924856,
dignity,,&&&&&&&,images/symbols/symbol_40.png,condition_files/AMP_rep2.csv,left,sanctity.virtue,,,,,,,,,,,,,,,,,,,,,0,2,2,1,0,48,48,48,,,,,,,,,,,,,803.6190096959472,,,,,AMP_prac,left,0.4337160433642566,,,,,,,,,,,,,,,,,,,,,1,,,left,0.6156426332890987,,,,,,,,,,,,,,1017,2019_May_17_1257,mf_amp_cond1,3.0.7,59.991091331924856,
wence,,&&&&&,images/symbols/symbol_29.png,condition_files/AMP_rep2.csv,None,nonword,,,,,,,,,,,,,,,,,,,,,0,2,2,1,0,49,49,49,,,,,,,,,,,,,804.2691879759077,,,,,AMP_prac,left,0.4337160433642566,,,,,,,,,,,,,,,,,,,,,1,,,left,0.4321813324932009,,,,,,,,,,,,,,1017,2019_May_17_1257,mf_amp_cond1,3.0.7,59.991091331924856,
growth,,&&&&&&,images/symbols/symbol_74.png,condition_files/AMP_rep2.csv,left,care.virtue,,,,,,,,,,,,,,,,,,,,,0,2,2,1,0,50,50,50,,,,,,,,,,,,,804.9193768398836,,,,,AMP_prac,left,0.4337160433642566,,,,,,,,,,,,,,,,,,,,,1,,,left,0.41703820996917784,,,,,,,,,,,,,,1017,2019_May_17_1257,mf_amp_cond1,3.0.7,59.991091331924856,
ban,,&&&,images/symbols/symbol_22.png,condition_files/AMP_rep2.csv,right,loyalty.vice,,,,,,,,,,,,,,,,,,,,,0,2,2,1,0,51,51,51,,,,,,,,,,,,,805.652929212898,,,,,AMP_prac,left,0.4337160433642566,,,,,,,,,,,,,,,,,,,,,1,,,right,0.5150836263783276,,,,,,,,,,,,,,1017,2019_May_17_1257,mf_amp_cond1,3.0.7,59.991091331924856,
death,,&&&&&,images/symbols/symbol_56.png,condition_files/AMP_rep2.csv,right,care.vice,,,,,,,,,,,,,,,,,,,,,0,2,2,1,0,52,52,52,,,,,,,,,,,,,806.3865143009461,,,,,AMP_prac,left,0.4337160433642566,,,,,,,,,,,,,,,,,,,,,1,,,right,0.5155919895041734,,,,,,,,,,,,,,1017,2019_May_17_1257,mf_amp_cond1,3.0.7,59.991091331924856,
lighnde,,&&&&&&&,images/symbols/symbol_25.png,condition_files/AMP_rep2.csv,None,nonword,,,,,,,,,,,,,,,,,,,,,0,2,2,1,0,53,53,53,,,,,,,,,,,,,806.9699767562561,,,,,AMP_prac,left,0.4337160433642566,,,,,,,,,,,,,,,,,,,,,1,,,right,0.36526761553250253,,,,,,,,,,,,,,1017,2019_May_17_1257,mf_amp_cond1,3.0.7,59.991091331924856,
loyalty,,&&&&&&&,images/symbols/symbol_80.png,condition_files/AMP_rep2.csv,left,loyalty.virtue,,,,,,,,,,,,,,,,,,,,,0,2,2,1,0,54,54,54,,,,,,,,,,,,,807.8202191188466,,,,,AMP_prac,left,0.4337160433642566,,,,,,,,,,,,,,,,,,,,,1,,,right,0.6326703873928636,,,,,,,,,,,,,,1017,2019_May_17_1257,mf_amp_cond1,3.0.7,59.991091331924856,
freedom,,&&&&&&&,images/symbols/symbol_75.png,condition_files/AMP_rep2.csv,left,sanctity.virtue,,,,,,,,,,,,,,,,,,,,,0,2,2,1,0,55,55,55,,,,,,,,,,,,,808.6037793338764,,,,,AMP_prac,left,0.4337160433642566,,,,,,,,,,,,,,,,,,,,,1,,,left,0.5504050706513226,,,,,,,,,,,,,,1017,2019_May_17_1257,mf_amp_cond1,3.0.7,59.991091331924856,
good,,&&&&,images/symbols/symbol_1.png,condition_files/AMP_rep2.csv,left,care.virtue,,,,,,,,,,,,,,,,,,,,,0,2,2,1,0,56,56,56,,,,,,,,,,,,,809.3206990968902,,,,,AMP_prac,left,0.4337160433642566,,,,,,,,,,,,,,,,,,,,,1,,,right,0.4983907185960561,,,,,,,,,,,,,,1017,2019_May_17_1257,mf_amp_cond1,3.0.7,59.991091331924856,
racist,,&&&&&&,images/symbols/symbol_71.png,condition_files/AMP_rep2.csv,right,sanctity.vice,,,,,,,,,,,,,,,,,,,,,0,2,2,1,0,57,57,57,,,,,,,,,,,,,810.1042195409536,,,,,AMP_prac,left,0.4337160433642566,,,,,,,,,,,,,,,,,,,,,1,,,right,0.5655308736022562,,,,,,,,,,,,,,1017,2019_May_17_1257,mf_amp_cond1,3.0.7,59.991091331924856,
threatened,,&&&&&&&&&&,images/symbols/symbol_78.png,condition_files/AMP_rep2.csv,right,fairness.vice,,,,,,,,,,,,,,,,,,,,,0,2,2,1,0,58,58,58,,,,,,,,,,,,,810.7710772578139,,,,,AMP_prac,left,0.4337160433642566,,,,,,,,,,,,,,,,,,,,,1,,,right,0.4488681466318667,,,,,,,,,,,,,,1017,2019_May_17_1257,mf_amp_cond1,3.0.7,59.991091331924856,
powerful,,&&&&&&&&,images/symbols/symbol_47.png,condition_files/AMP_rep2.csv,left,authority.virtue,,,,,,,,,,,,,,,,,,,,,0,2,2,1,0,59,59,59,,,,,,,,,,,,,811.6047408934683,,,,,AMP_prac,left,0.4337160433642566,,,,,,,,,,,,,,,,,,,,,1,,,right,0.615164419170469,,,,,,,,,,,,,,1017,2019_May_17_1257,mf_amp_cond1,3.0.7,59.991091331924856,
terrorist,,&&&&&&&&&,images/symbols/symbol_30.png,condition_files/AMP_rep2.csv,right,loyalty.vice,,,,,,,,,,,,,,,,,,,,,0,2,2,1,0,60,60,60,,,,,,,,,,,,,812.2715203515254,,,,,AMP_prac,left,0.4337160433642566,,,,,,,,,,,,,,,,,,,,,1,,,right,0.44898489373736084,,,,,,,,,,,,,,1017,2019_May_17_1257,mf_amp_cond1,3.0.7,59.991091331924856,
celebrated,,&&&&&&&&&&,images/symbols/symbol_18.png,condition_files/AMP_rep2.csv,left,authority.virtue,,,,,,,,,,,,,,,,,,,,,0,2,2,1,0,61,61,61,,,,,,,,,,,,,812.8883609254844,,,,,AMP_prac,left,0.4337160433642566,,,,,,,,,,,,,,,,,,,,,1,,,right,0.3836960135959089,,,,,,,,,,,,,,1017,2019_May_17_1257,mf_amp_cond1,3.0.7,59.991091331924856,
free,,&&&&,images/symbols/symbol_2.png,condition_files/AMP_rep2.csv,left,fairness.virtue,,,,,,,,,,,,,,,,,,,,,0,2,2,1,0,62,62,62,,,,,,,,,,,,,813.6385712465271,,,,,AMP_prac,left,0.4337160433642566,,,,,,,,,,,,,,,,,,,,,1,,,right,0.5317098221275955,,,,,,,,,,,,,,1017,2019_May_17_1257,mf_amp_cond1,3.0.7,59.991091331924856,
scandal,,&&&&&&&,images/symbols/symbol_42.png,condition_files/AMP_rep2.csv,right,sanctity.vice,,,,,,,,,,,,,,,,,,,,,0,2,2,1,0,63,63,63,,,,,,,,,,,,,814.222082453547,,,,,AMP_prac,left,0.4337160433642566,,,,,,,,,,,,,,,,,,,,,1,,,right,0.3655931600369513,,,,,,,,,,,,,,1017,2019_May_17_1257,mf_amp_cond1,3.0.7,59.991091331924856,
charges,,&&&&&&&,images/symbols/symbol_46.png,condition_files/AMP_rep2.csv,right,fairness.vice,,,,,,,,,,,,,,,,,,,,,0,2,2,1,0,64,64,64,,,,,,,,,,,,,814.9889661178458,,,,,AMP_prac,left,0.4337160433642566,,,,,,,,,,,,,,,,,,,,,1,,,right,0.548763234866783,,,,,,,,,,,,,,1017,2019_May_17_1257,mf_amp_cond1,3.0.7,59.991091331924856,
shypse,,&&&&&&,images/symbols/symbol_44.png,condition_files/AMP_rep2.csv,None,nonword,,,,,,,,,,,,,,,,,,,,,0,2,2,1,0,65,65,65,,,,,,,,,,,,,815.8725599779282,,,,,AMP_prac,left,0.4337160433642566,,,,,,,,,,,,,,,,,,,,,1,,,right,0.6656357215251774,,,,,,,,,,,,,,1017,2019_May_17_1257,mf_amp_cond1,3.0.7,59.991091331924856,
integrity,,&&&&&&&&&,images/symbols/symbol_58.png,condition_files/AMP_rep2.csv,left,fairness.virtue,,,,,,,,,,,,,,,,,,,,,0,2,2,1,0,66,66,66,,,,,,,,,,,,,816.6227866564877,,,,,AMP_prac,left,0.4337160433642566,,,,,,,,,,,,,,,,,,,,,1,,,left,0.5170744208153337,,,,,,,,,,,,,,1017,2019_May_17_1257,mf_amp_cond1,3.0.7,59.991091331924856,
faith,,&&&&&,images/symbols/symbol_48.png,condition_files/AMP_rep2.csv,left,sanctity.virtue,,,,,,,,,,,,,,,,,,,,,0,2,2,1,0,67,67,67,,,,,,,,,,,,,817.3563377466053,,,,,AMP_prac,left,0.4337160433642566,,,,,,,,,,,,,,,,,,,,,1,,,right,0.515020762803033,,,,,,,,,,,,,,1017,2019_May_17_1257,mf_amp_cond1,3.0.7,59.991091331924856,
torture,,&&&&&&&,images/symbols/symbol_41.png,condition_files/AMP_rep2.csv,right,care.vice,,,,,,,,,,,,,,,,,,,,,0,2,2,1,0,68,68,68,,,,,,,,,,,,,818.0897406577133,,,,,AMP_prac,left,0.4337160433642566,,,,,,,,,,,,,,,,,,,,,1,,,left,0.5158639717847109,,,,,,,,,,,,,,1017,2019_May_17_1257,mf_amp_cond1,3.0.7,59.991091331924856,
psyncs,,&&&&&&,images/symbols/symbol_66.png,condition_files/AMP_rep2.csv,None,nonword,,,,,,,,,,,,,,,,,,,,,0,2,2,1,0,69,69,69,,,,,,,,,,,,,819.006800517207,,,,,AMP_prac,left,0.4337160433642566,,,,,,,,,,,,,,,,,,,,,1,,,left,0.69909274042584,,,,,,,,,,,,,,1017,2019_May_17_1257,mf_amp_cond1,3.0.7,59.991091331924856,
opportunity,,&&&&&&&&&&&,images/symbols/symbol_59.png,condition_files/AMP_rep2.csv,left,fairness.virtue,,,,,,,,,,,,,,,,,,,,,0,2,2,1,0,70,70,70,,,,,,,,,,,,,819.7736845023464,,,,,AMP_prac,left,0.4337160433642566,,,,,,,,,,,,,,,,,,,,,1,,,right,0.5488469460979104,,,,,,,,,,,,,,1017,2019_May_17_1257,mf_amp_cond1,3.0.7,59.991091331924856,
terrorists,,&&&&&&&&&&,images/symbols/symbol_11.png,condition_files/AMP_rep2.csv,right,fairness.vice,,,,,,,,,,,,,,,,,,,,,0,2,2,1,0,71,71,71,,,,,,,,,,,,,820.5239127846435,,,,,AMP_prac,left,0.4337160433642566,,,,,,,,,,,,,,,,,,,,,1,,,right,0.5323374979197979,,,,,,,,,,,,,,1017,2019_May_17_1257,mf_amp_cond1,3.0.7,59.991091331924856,
values,,&&&&&&,images/symbols/symbol_17.png,condition_files/AMP_rep2.csv,left,sanctity.virtue,,,,,,,,,,,,,,,,,,,,,0,2,2,1,0,72,72,72,,,,,,,,,,,,,821.6409029809292,,,,,AMP_prac,left,0.4337160433642566,,,,,,,,,,,,,,,,,,,,,1,,,right,0.8990439248736948,,,,,,,,,,,,,,1017,2019_May_17_1257,mf_amp_cond1,3.0.7,59.991091331924856,
improve,,&&&&&&&,images/symbols/symbol_45.png,condition_files/AMP_rep2.csv,left,care.virtue,,,,,,,,,,,,,,,,,,,,,0,2,2,1,0,73,73,73,,,,,,,,,,,,,822.2911021083128,,,,,AMP_prac,left,0.4337160433642566,,,,,,,,,,,,,,,,,,,,,1,,,right,0.4322060290724039,,,,,,,,,,,,,,1017,2019_May_17_1257,mf_amp_cond1,3.0.7,59.991091331924856,
prosecution,,&&&&&&&&&&&,images/symbols/symbol_60.png,condition_files/AMP_rep2.csv,right,authority.vice,,,,,,,,,,,,,,,,,,,,,0,2,2,1,0,74,74,74,,,,,,,,,,,,,822.9079458895139,,,,,AMP_prac,left,0.4337160433642566,,,,,,,,,,,,,,,,,,,,,1,,,right,0.39890232076868415,,,,,,,,,,,,,,1017,2019_May_17_1257,mf_amp_cond1,3.0.7,59.991091331924856,
safe,,&&&&,images/symbols/symbol_19.png,condition_files/AMP_rep2.csv,left,care.virtue,,,,,,,,,,,,,,,,,,,,,0,2,2,1,0,75,75,75,,,,,,,,,,,,,823.6915247070137,,,,,AMP_prac,left,0.4337160433642566,,,,,,,,,,,,,,,,,,,,,1,,,left,0.5656402437016368,,,,,,,,,,,,,,1017,2019_May_17_1257,mf_amp_cond1,3.0.7,59.991091331924856,
shot,,&&&&,images/symbols/symbol_54.png,condition_files/AMP_rep2.csv,right,care.vice,,,,,,,,,,,,,,,,,,,,,0,2,2,1,0,76,76,76,,,,,,,,,,,,,824.4250539874192,,,,,AMP_prac,left,0.4337160433642566,,,,,,,,,,,,,,,,,,,,,1,,,right,0.5153774186037481,,,,,,,,,,,,,,1017,2019_May_17_1257,mf_amp_cond1,3.0.7,59.991091331924856,
betrayal,,&&&&&&&&,images/symbols/symbol_13.png,condition_files/AMP_rep2.csv,right,loyalty.vice,,,,,,,,,,,,,,,,,,,,,0,2,2,1,0,77,77,77,,,,,,,,,,,,,825.0585691875312,,,,,AMP_prac,left,0.4337160433642566,,,,,,,,,,,,,,,,,,,,,1,,,left,0.415529478341341,,,,,,,,,,,,,,1017,2019_May_17_1257,mf_amp_cond1,3.0.7,59.991091331924856,
slavery,,&&&&&&&,images/symbols/symbol_70.png,condition_files/AMP_rep2.csv,right,loyalty.vice,,,,,,,,,,,,,,,,,,,,,0,2,2,1,0,78,78,78,,,,,,,,,,,,,825.5253669915255,,,,,AMP_prac,left,0.4337160433642566,,,,,,,,,,,,,,,,,,,,,1,,,right,0.24888104014098644,,,,,,,,,,,,,,1017,2019_May_17_1257,mf_amp_cond1,3.0.7,59.991091331924856,
intelligence,,&&&&&&&&&&&&,images/symbols/symbol_49.png,condition_files/AMP_rep2.csv,left,loyalty.virtue,,,,,,,,,,,,,,,,,,,,,0,2,2,1,0,79,79,79,,,,,,,,,,,,,826.1088669726159,,,,,AMP_prac,left,0.4337160433642566,,,,,,,,,,,,,,,,,,,,,1,,,right,0.35035285516642034,,,,,,,,,,,,,,1017,2019_May_17_1257,mf_amp_cond1,3.0.7,59.991091331924856,
refused,,&&&&&&&,images/symbols/symbol_8.png,condition_files/AMP_rep2.csv,right,authority.vice,,,,,,,,,,,,,,,,,,,,,0,2,2,1,0,80,80,80,,,,,,,,,,,,,827.1925165762659,,,,,AMP_prac,left,0.4337160433642566,,,,,,,,,,,,,,,,,,,,,1,,,right,0.8653184515424073,,,,,,,,,,,,,,1017,2019_May_17_1257,mf_amp_cond1,3.0.7,59.991091331924856,
unpleasant,,&&&&&&&&&,images/symbols/symbol_26.png,condition_files/AMP_rep2.csv,left,control,,,,,,,,,,,,,,,,,,,,,0,2,2,1,0,81,81,81,,,,,,,,,,,,,828.1261282209307,,,,,AMP_prac,left,0.4337160433642566,,,,,,,,,,,,,,,,,,,,,1,,,left,0.7155380421318114,,,,,,,,,,,,,,1017,2019_May_17_1257,mf_amp_cond1,3.0.7,59.991091331924856,
,,,,condition_files/AMP_rep2.csv,,,,,,,,,,,,,,,,,,,,,,,0,2,2,1,,,,,,,,,,,,,,,,,,,,,,,,,,,,,,,,,,,,,,,,,,,,,,,,,,right,1.4673180340323597,,,,,,,,,,,,1017,2019_May_17_1257,mf_amp_cond1,3.0.7,59.991091331924856,
trust,,&&&&&,images/symbols/symbol_16.png,condition_files/AMP_rep4.csv,left,authority.virtue,,,,,,,,,,,,,,,,,,,,,0,3,3,3,0,0,0,0,,,,,,,,,,,,,830.0435062481556,,,,,AMP_prac,left,0.4337160433642566,,,,,,,,,,,,,,,,,,,,,1,,,right,0.19883310655131936,,,,,,,,,,,,,,1017,2019_May_17_1257,mf_amp_cond1,3.0.7,59.991091331924856,
honored,,&&&&&&&,images/symbols/symbol_31.png,condition_files/AMP_rep4.csv,left,authority.virtue,,,,,,,,,,,,,,,,,,,,,0,3,3,3,0,1,1,1,,,,,,,,,,,,,830.8103145402856,,,,,AMP_prac,left,0.4337160433642566,,,,,,,,,,,,,,,,,,,,,1,,,right,0.5499951730016619,,,,,,,,,,,,,,1017,2019_May_17_1257,mf_amp_cond1,3.0.7,59.991091331924856,
cande,,&&&&&,images/symbols/symbol_14.png,condition_files/AMP_rep4.csv,None,nonword,,,,,,,,,,,,,,,,,,,,,0,3,3,3,0,2,2,2,,,,,,,,,,,,,831.443759820424,,,,,AMP_prac,left,0.4337160433642566,,,,,,,,,,,,,,,,,,,,,1,,,right,0.41552402591332793,,,,,,,,,,,,,,1017,2019_May_17_1257,mf_amp_cond1,3.0.7,59.991091331924856,
suicide,,&&&&&&&,images/symbols/symbol_55.png,condition_files/AMP_rep4.csv,right,care.vice,,,,,,,,,,,,,,,,,,,,,0,3,3,3,0,3,3,3,,,,,,,,,,,,,831.977241054643,,,,,AMP_prac,left,0.4337160433642566,,,,,,,,,,,,,,,,,,,,,1,,,right,0.3003408438526094,,,,,,,,,,,,,,1017,2019_May_17_1257,mf_amp_cond1,3.0.7,59.991091331924856,
sexual,,&&&&&&,images/symbols/symbol_6.png,condition_files/AMP_rep4.csv,right,sanctity.vice,,,,,,,,,,,,,,,,,,,,,0,3,3,3,0,4,4,4,,,,,,,,,,,,,832.7107844471466,,,,,AMP_prac,left,0.4337160433642566,,,,,,,,,,,,,,,,,,,,,1,,,right,0.5151320572476834,,,,,,,,,,,,,,1017,2019_May_17_1257,mf_amp_cond1,3.0.7,59.991091331924856,
illegal,,&&&&&&&,images/symbols/symbol_9.png,condition_files/AMP_rep4.csv,right,fairness.vice,,,,,,,,,,,,,,,,,,,,,0,3,3,3,0,5,5,5,,,,,,,,,,,,,833.6777318734676,,,,,AMP_prac,left,0.4337160433642566,,,,,,,,,,,,,,,,,,,,,1,,,right,0.7488321282435209,,,,,,,,,,,,,,1017,2019_May_17_1257,mf_amp_cond1,3.0.7,59.991091331924856,
peaceful,,&&&&&&&&,images/symbols/symbol_73.png,condition_files/AMP_rep4.csv,left,authority.virtue,,,,,,,,,,,,,,,,,,,,,0,3,3,3,0,6,6,6,,,,,,,,,,,,,834.3946753707714,,,,,AMP_prac,left,0.4337160433642566,,,,,,,,,,,,,,,,,,,,,1,,,right,0.49891062802635133,,,,,,,,,,,,,,1017,2019_May_17_1257,mf_amp_cond1,3.0.7,59.991091331924856,
interests,,&&&&&&&&&,images/symbols/symbol_34.png,condition_files/AMP_rep4.csv,left,fairness.virtue,,,,,,,,,,,,,,,,,,,,,0,3,3,3,0,7,7,7,,,,,,,,,,,,,834.994787755888,,,,,AMP_prac,left,0.4337160433642566,,,,,,,,,,,,,,,,,,,,,1,,,right,0.3821151170413941,,,,,,,,,,,,,,1017,2019_May_17_1257,mf_amp_cond1,3.0.7,59.991091331924856,
abuse,,&&&&&,images/symbols/symbol_21.png,condition_files/AMP_rep4.csv,right,sanctity.vice,,,,,,,,,,,,,,,,,,,,,0,3,3,3,0,8,8,8,,,,,,,,,,,,,835.5616326758172,,,,,AMP_prac,left,0.4337160433642566,,,,,,,,,,,,,,,,,,,,,1,,,right,0.3491517072543502,,,,,,,,,,,,,,1017,2019_May_17_1257,mf_amp_cond1,3.0.7,59.991091331924856,
great,,&&&&&,images/symbols/symbol_27.png,condition_files/AMP_rep4.csv,left,loyalty.virtue,,,,,,,,,,,,,,,,,,,,,0,3,3,3,0,9,9,9,,,,,,,,,,,,,836.1452987969387,,,,,AMP_prac,left,0.4337160433642566,,,,,,,,,,,,,,,,,,,,,1,,,right,0.3656970779411495,,,,,,,,,,,,,,1017,2019_May_17_1257,mf_amp_cond1,3.0.7,59.991091331924856,
useful,,&&&&&&,images/symbols/symbol_76.png,condition_files/AMP_rep4.csv,left,authority.virtue,,,,,,,,,,,,,,,,,,,,,0,3,3,3,0,10,10,10,,,,,,,,,,,,,836.7786661388818,,,,,AMP_prac,left,0.4337160433642566,,,,,,,,,,,,,,,,,,,,,1,,,right,0.4159204529132694,,,,,,,,,,,,,,1017,2019_May_17_1257,mf_amp_cond1,3.0.7,59.991091331924856,
rebels,,&&&&&&,images/symbols/symbol_4.png,condition_files/AMP_rep4.csv,right,authority.vice,,,,,,,,,,,,,,,,,,,,,0,3,3,3,0,11,11,11,,,,,,,,,,,,,837.3457054232713,,,,,AMP_prac,left,0.4337160433642566,,,,,,,,,,,,,,,,,,,,,1,,,right,0.34831074345856905,,,,,,,,,,,,,,1017,2019_May_17_1257,mf_amp_cond1,3.0.7,59.991091331924856,
lies,,&&&&,images/symbols/symbol_62.png,condition_files/AMP_rep4.csv,right,fairness.vice,,,,,,,,,,,,,,,,,,,,,0,3,3,3,0,12,12,12,,,,,,,,,,,,,838.1123671398964,,,,,AMP_prac,left,0.4337160433642566,,,,,,,,,,,,,,,,,,,,,1,,,left,0.5337573860306293,,,,,,,,,,,,,,1017,2019_May_17_1257,mf_amp_cond1,3.0.7,59.991091331924856,
stourz,,&&&&&&,images/symbols/symbol_68.png,condition_files/AMP_rep4.csv,None,nonword,,,,,,,,,,,,,,,,,,,,,0,3,3,3,0,13,13,13,,,,,,,,,,,,,838.7292827654164,,,,,AMP_prac,left,0.4337160433642566,,,,,,,,,,,,,,,,,,,,,1,,,left,0.39841576758772135,,,,,,,,,,,,,,1017,2019_May_17_1257,mf_amp_cond1,3.0.7,59.991091331924856,
officers,,&&&&&&&&,images/symbols/symbol_79.png,condition_files/AMP_rep4.csv,right,authority.vice,,,,,,,,,,,,,,,,,,,,,0,3,3,3,0,14,14,14,,,,,,,,,,,,,839.3294304313604,,,,,AMP_prac,left,0.4337160433642566,,,,,,,,,,,,,,,,,,,,,1,,,left,0.38199772872030735,,,,,,,,,,,,,,1017,2019_May_17_1257,mf_amp_cond1,3.0.7,59.991091331924856,
hand,,&&&&,images/symbols/symbol_35.png,condition_files/AMP_rep4.csv,left,sanctity.virtue,,,,,,,,,,,,,,,,,,,,,0,3,3,3,0,15,15,15,,,,,,,,,,,,,839.9629081054591,,,,,AMP_prac,left,0.4337160433642566,,,,,,,,,,,,,,,,,,,,,1,,,left,0.41560100205242634,,,,,,,,,,,,,,1017,2019_May_17_1257,mf_amp_cond1,3.0.7,59.991091331924856,
support,,&&&&&&&,images/symbols/symbol_52.png,condition_files/AMP_rep4.csv,left,loyalty.virtue,,,,,,,,,,,,,,,,,,,,,0,3,3,3,0,16,16,16,,,,,,,,,,,,,840.6464298644569,,,,,AMP_prac,left,0.4337160433642566,,,,,,,,,,,,,,,,,,,,,1,,,left,0.4503871416673064,,,,,,,,,,,,,,1017,2019_May_17_1257,mf_amp_cond1,3.0.7,59.991091331924856,
foald,,&&&&&,images/symbols/symbol_43.png,condition_files/AMP_rep4.csv,None,nonword,,,,,,,,,,,,,,,,,,,,,0,3,3,3,0,17,17,17,,,,,,,,,,,,,841.2299426752143,,,,,AMP_prac,left,0.4337160433642566,,,,,,,,,,,,,,,,,,,,,1,,,left,0.35034996876493096,,,,,,,,,,,,,,1017,2019_May_17_1257,mf_amp_cond1,3.0.7,59.991091331924856,
fighters,,&&&&&&&&,images/symbols/symbol_50.png,condition_files/AMP_rep4.csv,right,authority.vice,,,,,,,,,,,,,,,,,,,,,0,3,3,3,0,18,18,18,,,,,,,,,,,,,841.8134339966346,,,,,AMP_prac,left,0.4337160433642566,,,,,,,,,,,,,,,,,,,,,1,,,left,0.36516049038618803,,,,,,,,,,,,,,1017,2019_May_17_1257,mf_amp_cond1,3.0.7,59.991091331924856,
troalde,,&&&&&&&,images/symbols/symbol_38.png,condition_files/AMP_rep4.csv,None,nonword,,,,,,,,,,,,,,,,,,,,,0,3,3,3,0,19,19,19,,,,,,,,,,,,,842.3802599930204,,,,,AMP_prac,left,0.4337160433642566,,,,,,,,,,,,,,,,,,,,,1,,,left,0.34888902632519603,,,,,,,,,,,,,,1017,2019_May_17_1257,mf_amp_cond1,3.0.7,59.991091331924856,
energy,,&&&&&&,images/symbols/symbol_39.png,condition_files/AMP_rep4.csv,left,sanctity.virtue,,,,,,,,,,,,,,,,,,,,,0,3,3,3,0,20,20,20,,,,,,,,,,,,,842.9639803182799,,,,,AMP_prac,left,0.4337160433642566,,,,,,,,,,,,,,,,,,,,,1,,,right,0.36562074325047433,,,,,,,,,,,,,,1017,2019_May_17_1257,mf_amp_cond1,3.0.7,59.991091331924856,
fraud,,&&&&&,images/symbols/symbol_24.png,condition_files/AMP_rep4.csv,right,fairness.vice,,,,,,,,,,,,,,,,,,,,,0,3,3,3,0,21,21,21,,,,,,,,,,,,,843.5139610583428,,,,,AMP_prac,left,0.4337160433642566,,,,,,,,,,,,,,,,,,,,,1,,,right,0.3317698633763939,,,,,,,,,,,,,,1017,2019_May_17_1257,mf_amp_cond1,3.0.7,59.991091331924856,
killed,,&&&&&&,images/symbols/symbol_63.png,condition_files/AMP_rep4.csv,right,care.vice,,,,,,,,,,,,,,,,,,,,,0,3,3,3,0,22,22,22,,,,,,,,,,,,,844.2141256909817,,,,,AMP_prac,left,0.4337160433642566,,,,,,,,,,,,,,,,,,,,,1,,,left,0.48248296650126576,,,,,,,,,,,,,,1017,2019_May_17_1257,mf_amp_cond1,3.0.7,59.991091331924856,
drug,,&&&&,images/symbols/symbol_28.png,condition_files/AMP_rep4.csv,right,sanctity.vice,,,,,,,,,,,,,,,,,,,,,0,3,3,3,0,23,23,23,,,,,,,,,,,,,844.9310464160517,,,,,AMP_prac,left,0.4337160433642566,,,,,,,,,,,,,,,,,,,,,1,,,left,0.49910274730063975,,,,,,,,,,,,,,1017,2019_May_17_1257,mf_amp_cond1,3.0.7,59.991091331924856,
strong,,&&&&&&,images/symbols/symbol_64.png,condition_files/AMP_rep4.csv,left,loyalty.virtue,,,,,,,,,,,,,,,,,,,,,0,3,3,3,0,24,24,24,,,,,,,,,,,,,845.5811878116801,,,,,AMP_prac,left,0.4337160433642566,,,,,,,,,,,,,,,,,,,,,1,,,right,0.43207741482183337,,,,,,,,,,,,,,1017,2019_May_17_1257,mf_amp_cond1,3.0.7,59.991091331924856,
corruption,,&&&&&&&&&&,images/symbols/symbol_10.png,condition_files/AMP_rep4.csv,right,sanctity.vice,,,,,,,,,,,,,,,,,,,,,0,3,3,3,0,25,25,25,,,,,,,,,,,,,846.4147776784375,,,,,AMP_prac,left,0.4337160433642566,,,,,,,,,,,,,,,,,,,,,1,,,left,0.6158225650433451,,,,,,,,,,,,,,1017,2019_May_17_1257,mf_amp_cond1,3.0.7,59.991091331924856,
credit,,&&&&&&,images/symbols/symbol_53.png,condition_files/AMP_rep4.csv,left,fairness.virtue,,,,,,,,,,,,,,,,,,,,,0,3,3,3,0,26,26,26,,,,,,,,,,,,,847.5317611391656,,,,,AMP_prac,left,0.4337160433642566,,,,,,,,,,,,,,,,,,,,,1,,,left,0.8991148069035262,,,,,,,,,,,,,,1017,2019_May_17_1257,mf_amp_cond1,3.0.7,59.991091331924856,
phiks,,&&&&&,images/symbols/symbol_3.png,condition_files/AMP_rep4.csv,None,nonword,,,,,,,,,,,,,,,,,,,,,0,3,3,3,0,27,27,27,,,,,,,,,,,,,848.4653634827118,,,,,AMP_prac,left,0.4337160433642566,,,,,,,,,,,,,,,,,,,,,1,,,right,0.7155133455526084,,,,,,,,,,,,,,1017,2019_May_17_1257,mf_amp_cond1,3.0.7,59.991091331924856,
accused,,&&&&&&&,images/symbols/symbol_77.png,condition_files/AMP_rep4.csv,right,fairness.vice,,,,,,,,,,,,,,,,,,,,,0,3,3,3,0,28,28,28,,,,,,,,,,,,,849.2158294285182,,,,,AMP_prac,left,0.4337160433642566,,,,,,,,,,,,,,,,,,,,,1,,,right,0.5321870737243444,,,,,,,,,,,,,,1017,2019_May_17_1257,mf_amp_cond1,3.0.7,59.991091331924856,
pleasant,,&&&&&&&,images/symbols/symbol_51.png,condition_files/AMP_rep4.csv,right,control,,,,,,,,,,,,,,,,,,,,,0,3,3,3,0,29,29,29,,,,,,,,,,,,,849.9824658073485,,,,,AMP_prac,left,0.4337160433642566,,,,,,,,,,,,,,,,,,,,,1,,,left,0.5491965459659696,,,,,,,,,,,,,,1017,2019_May_17_1257,mf_amp_cond1,3.0.7,59.991091331924856,
strength,,&&&&&&&&,images/symbols/symbol_82.png,condition_files/AMP_rep4.csv,left,sanctity.virtue,,,,,,,,,,,,,,,,,,,,,0,3,3,3,0,30,30,30,,,,,,,,,,,,,850.716021387605,,,,,AMP_prac,left,0.4337160433642566,,,,,,,,,,,,,,,,,,,,,1,,,left,0.5159457589033991,,,,,,,,,,,,,,1017,2019_May_17_1257,mf_amp_cond1,3.0.7,59.991091331924856,
protect,,&&&&&&&,images/symbols/symbol_33.png,condition_files/AMP_rep4.csv,left,fairness.virtue,,,,,,,,,,,,,,,,,,,,,0,3,3,3,0,31,31,31,,,,,,,,,,,,,851.4995828857645,,,,,AMP_prac,left,0.4337160433642566,,,,,,,,,,,,,,,,,,,,,1,,,left,0.5658246658276767,,,,,,,,,,,,,,1017,2019_May_17_1257,mf_amp_cond1,3.0.7,59.991091331924856,
fair,,&&&&,images/symbols/symbol_69.png,condition_files/AMP_rep4.csv,left,fairness.virtue,,,,,,,,,,,,,,,,,,,,,0,3,3,3,0,32,32,32,,,,,,,,,,,,,852.183100795839,,,,,AMP_prac,left,0.4337160433642566,,,,,,,,,,,,,,,,,,,,,1,,,left,0.4655527158174664,,,,,,,,,,,,,,1017,2019_May_17_1257,mf_amp_cond1,3.0.7,59.991091331924856,
violence,,&&&&&&&&,images/symbols/symbol_23.png,condition_files/AMP_rep4.csv,right,care.vice,,,,,,,,,,,,,,,,,,,,,0,3,3,3,0,33,33,33,,,,,,,,,,,,,852.8501102200244,,,,,AMP_prac,left,0.4337160433642566,,,,,,,,,,,,,,,,,,,,,1,,,left,0.4488893151283264,,,,,,,,,,,,,,1017,2019_May_17_1257,mf_amp_cond1,3.0.7,59.991091331924856,
encourage,,&&&&&&&&&,images/symbols/symbol_32.png,condition_files/AMP_rep4.csv,left,authority.virtue,,,,,,,,,,,,,,,,,,,,,0,3,3,3,0,34,34,34,,,,,,,,,,,,,853.4835045034997,,,,,AMP_prac,left,0.4337160433642566,,,,,,,,,,,,,,,,,,,,,1,,,left,0.41554262838326395,,,,,,,,,,,,,,1017,2019_May_17_1257,mf_amp_cond1,3.0.7,59.991091331924856,
hope,,&&&&,images/symbols/symbol_81.png,condition_files/AMP_rep4.csv,left,loyalty.virtue,,,,,,,,,,,,,,,,,,,,,0,3,3,3,0,35,35,35,,,,,,,,,,,,,854.0670006358996,,,,,AMP_prac,left,0.4337160433642566,,,,,,,,,,,,,,,,,,,,,1,,,left,0.35035734553821385,,,,,,,,,,,,,,1017,2019_May_17_1257,mf_amp_cond1,3.0.7,59.991091331924856,
riot,,&&&&,images/symbols/symbol_12.png,condition_files/AMP_rep4.csv,right,authority.vice,,,,,,,,,,,,,,,,,,,,,0,3,3,3,0,36,36,36,,,,,,,,,,,,,854.7839107769541,,,,,AMP_prac,left,0.4337160433642566,,,,,,,,,,,,,,,,,,,,,1,,,right,0.49835094762966037,,,,,,,,,,,,,,1017,2019_May_17_1257,mf_amp_cond1,3.0.7,59.991091331924856,
penalty,,&&&&&&&,images/symbols/symbol_57.png,condition_files/AMP_rep4.csv,right,authority.vice,,,,,,,,,,,,,,,,,,,,,0,3,3,3,0,37,37,37,,,,,,,,,,,,,855.3840375950094,,,,,AMP_prac,left,0.4337160433642566,,,,,,,,,,,,,,,,,,,,,1,,,left,0.3822629754431546,,,,,,,,,,,,,,1017,2019_May_17_1257,mf_amp_cond1,3.0.7,59.991091331924856,
groups,,&&&&&&,images/symbols/symbol_20.png,condition_files/AMP_rep4.csv,right,loyalty.vice,,,,,,,,,,,,,,,,,,,,,0,3,3,3,0,38,38,38,,,,,,,,,,,,,856.0509597796481,,,,,AMP_prac,left,0.4337160433642566,,,,,,,,,,,,,,,,,,,,,1,,,right,0.44945893809199333,,,,,,,,,,,,,,1017,2019_May_17_1257,mf_amp_cond1,3.0.7,59.991091331924856,
increase,,&&&&&&&&,images/symbols/symbol_37.png,condition_files/AMP_rep4.csv,left,care.virtue,,,,,,,,,,,,,,,,,,,,,0,3,3,3,0,39,39,39,,,,,,,,,,,,,856.7678198860958,,,,,AMP_prac,left,0.4337160433642566,,,,,,,,,,,,,,,,,,,,,1,,,left,0.49880542722530663,,,,,,,,,,,,,,1017,2019_May_17_1257,mf_amp_cond1,3.0.7,59.991091331924856,
praised,,&&&&&&&,images/symbols/symbol_67.png,condition_files/AMP_rep4.csv,left,loyalty.virtue,,,,,,,,,,,,,,,,,,,,,0,3,3,3,0,40,40,40,,,,,,,,,,,,,857.4179612814914,,,,,AMP_prac,left,0.4337160433642566,,,,,,,,,,,,,,,,,,,,,1,,,right,0.4321264869067818,,,,,,,,,,,,,,1017,2019_May_17_1257,mf_amp_cond1,3.0.7,59.991091331924856,
harassment,,&&&&&&&&&&,images/symbols/symbol_72.png,condition_files/AMP_rep4.csv,right,sanctity.vice,,,,,,,,,,,,,,,,,,,,,0,3,3,3,0,41,41,41,,,,,,,,,,,,,858.8016983491834,,,,,AMP_prac,left,0.4337160433642566,,,,,,,,,,,,,,,,,,,,,1,,,right,1.165747176622972,,,,,,,,,,,,,,1017,2019_May_17_1257,mf_amp_cond1,3.0.7,59.991091331924856,
army,,&&&&,images/symbols/symbol_15.png,condition_files/AMP_rep4.csv,right,loyalty.vice,,,,,,,,,,,,,,,,,,,,,0,3,3,3,0,42,42,42,,,,,,,,,,,,,859.4852303715888,,,,,AMP_prac,left,0.4337160433642566,,,,,,,,,,,,,,,,,,,,,1,,,right,0.46548824827186763,,,,,,,,,,,,,,1017,2019_May_17_1257,mf_amp_cond1,3.0.7,59.991091331924856,
died,,&&&&,images/symbols/symbol_7.png,condition_files/AMP_rep4.csv,right,care.vice,,,,,,,,,,,,,,,,,,,,,0,3,3,3,0,43,43,43,,,,,,,,,,,,,860.1022710835095,,,,,AMP_prac,left,0.4337160433642566,,,,,,,,,,,,,,,,,,,,,1,,,left,0.3992499962914735,,,,,,,,,,,,,,1017,2019_May_17_1257,mf_amp_cond1,3.0.7,59.991091331924856,
men,,&&&,images/symbols/symbol_61.png,condition_files/AMP_rep4.csv,right,loyalty.vice,,,,,,,,,,,,,,,,,,,,,0,3,3,3,0,44,44,44,,,,,,,,,,,,,862.0859845450614,,,,,AMP_prac,left,0.4337160433642566,,,,,,,,,,,,,,,,,,,,,1,,,right,1.7658396761398762,,,,,,,,,,,,,,1017,2019_May_17_1257,mf_amp_cond1,3.0.7,59.991091331924856,
sneaze,,&&&&&&,images/symbols/symbol_5.png,condition_files/AMP_rep4.csv,None,nonword,,,,,,,,,,,,,,,,,,,,,0,3,3,3,0,45,45,45,,,,,,,,,,,,,862.8529083011672,,,,,AMP_prac,left,0.4337160433642566,,,,,,,,,,,,,,,,,,,,,1,,,right,0.5486105654854327,,,,,,,,,,,,,,1017,2019_May_17_1257,mf_amp_cond1,3.0.7,59.991091331924856,
peace,,&&&&&,images/symbols/symbol_65.png,condition_files/AMP_rep4.csv,left,care.virtue,,,,,,,,,,,,,,,,,,,,,0,3,3,3,0,46,46,46,,,,,,,,,,,,,863.4863952766173,,,,,AMP_prac,left,0.4337160433642566,,,,,,,,,,,,,,,,,,,,,1,,,right,0.415448653511703,,,,,,,,,,,,,,1017,2019_May_17_1257,mf_amp_cond1,3.0.7,59.991091331924856,
