words,masks,symbols,conditionfile,corr_ans,category,mask,LDT_trials_cond2.thisRepN,LDT_trials_cond2.thisTrialN,LDT_trials_cond2.thisN,LDT_trials_cond2.thisIndex,logo_trials.thisRepN,logo_trials.thisTrialN,logo_trials.thisN,logo_trials.thisIndex,AMP_pracs.thisRepN,AMP_pracs.thisTrialN,AMP_pracs.thisN,AMP_pracs.thisIndex,trials_loop.thisRepN,trials_loop.thisTrialN,trials_loop.thisN,trials_loop.thisIndex,AMP_trials.thisRepN,AMP_trials.thisTrialN,AMP_trials.thisN,AMP_trials.thisIndex,memtask_trials.thisRepN,memtask_trials.thisTrialN,memtask_trials.thisN,memtask_trials.thisIndex,LDT_cond1.thisRepN,LDT_cond1.thisTrialN,LDT_cond1.thisN,LDT_cond1.thisIndex,LDT_pracs.thisRepN,LDT_pracs.thisTrialN,LDT_pracs.thisN,LDT_pracs.thisIndex,LDT_trials.thisRepN,LDT_trials.thisTrialN,LDT_trials.thisN,LDT_trials.thisIndex,begin_key.keys,begin_key.rt,key_resp_instr.keys,key_resp_instr.rt,exp_time,resp_sym_rate.keys,resp_sym_rate.rt,sym_resp_1.keys,sym_resp_1.rt,sym_resp_2.keys,sym_resp_2.rt,sym_resp_trial.keys,sym_resp_trial.rt,symbol_index,resp_AMP_ready1.keys,resp_AMP_ready1.rt,resp_AMP.keys,resp_AMP.rt,task,keypress,RT,prime_dur,resp_AMP_ready.keys,resp_AMP_ready.rt,resp_AMP_trials.keys,resp_AMP_trials.rt,rest_key_resp.keys,rest_key_resp.rt,AMP_nonword_rating.response,AMP_nonword_rating.rt,AMP_word_rating.response,AMP_word_rating.rt,AMP_random_rating.response,AMP_random_rating.rt,key_resp_instr_memtask.keys,key_resp_instr_memtask.rt,resp_memtask.keys,resp_memtask.corr,resp_memtask.rt,corr,key_resp_LDT_instr.keys,key_resp_LDT_instr.rt,resp_LDT_prac.keys,resp_LDT_prac.rt,resp_LDT_ready.keys,resp_LDT_ready.rt,resp_LDT_trial.keys,resp_LDT_trial.rt,LDT_rating.response,LDT_rating.rt,participant ID,date,expName,psychopyVersion,frameRate,
,,,,,,,,,,,,,,,,,,,,,,,,,,,,,,,,,,,,,,,,,,,right,730.6207383165602,,,,,,,,,,,,,,,,,,,,,,,,,,,,,,,,,,,,,,,,,,,,,,,,,1018,2019_May_20_1657,mf_amp_cond1,3.0.7,60.048840897409036,
,,,,,,,,,,,,,,,,,,,,,,,,,,,,,,,,,,,,,,,,,,,,,right,2.000765565142501,,,,,,,,,,,,,,,,,,,,,,,,,,,,,,,,,,,,,,,,,,,,,,,1018,2019_May_20_1657,mf_amp_cond1,3.0.7,60.048840897409036,
,,,,,,,,,,,,,,,,,,,,,,,,,,,,,,,,,,,,,,,,,,,,,,,770.6683181748958,right,2.0507591827772558,,,,,,,,,,,,,,,,,,,,,,,,,,,,,,,,,,,,,,,,,,,,1018,2019_May_20_1657,mf_amp_cond1,3.0.7,60.048840897409036,
,,,,,,,,,,,,,,,,,,,,,,,,,,,,,,,,,,,,,,,,,,,,,,,834.7514042844996,,,left,4.851448929053731,,,,,,,,,,,,,,,,,,,,,,,,,,,,,,,,,,,,,,,,,,1018,2019_May_20_1657,mf_amp_cond1,3.0.7,60.048840897409036,
,,,,,,,,,,,,,,,,,,,,,,,,,,,,,,,,,,,,,,,,,,,,,,,,,,,,right,2.1673867960926145,,,,,,,,,,,,,,,,,,,,,,,,,,,,,,,,,,,,,,,,1018,2019_May_20_1657,mf_amp_cond1,3.0.7,60.048840897409036,
,,,,,,,,,,,,,,,,,,,,,,,,,,,,,,,,,,,,,,,,,,,,,,,857.8072655244032,,,,,,,right,0.7816285530570894,4,right,2.050802159588784,,,,,,,,,,,,,,,,,,,,,,,,,,,,,,,,,,,1018,2019_May_20_1657,mf_amp_cond1,3.0.7,60.048840897409036,
banana,&&&&&&,images/symbols/symbol_68.png,,,,,,,,,,,,,0,0,0,1,,,,,,,,,,,,,,,,,,,,,,,,,,,,,1044.922271242889,,,,,,,,,,,,right,2.2675122628570534,AMP_prac,right,2.2675122628570534,6,,,,,,,,,,,,,,,,,,,,,,,,,,,,,1018,2019_May_20_1657,mf_amp_cond1,3.0.7,60.048840897409036,
keyboard,&&&&&&&&,images/symbols/symbol_40.png,,,,,,,,,,,,,0,1,1,2,,,,,,,,,,,,,,,,,,,,,,,,,,,,,1045.98907939106,,,,,,,,,,,,left,0.8337905770167708,AMP_prac,left,0.8337905770167708,6,,,,,,,,,,,,,,,,,,,,,,,,,,,,,1018,2019_May_20_1657,mf_amp_cond1,3.0.7,60.048840897409036,
car,&&&,images/symbols/symbol_9.png,,,,,,,,,,,,,0,2,2,0,,,,,,,,,,,,,,,,,,,,,,,,,,,,,1047.67285672226,,,,,,,,,,,,right,1.4658776673604734,AMP_prac,right,1.4658776673604734,6,,,,,,,,,,,,,,,,,,,,,,,,,,,,,1018,2019_May_20_1657,mf_amp_cond1,3.0.7,60.048840897409036,
scarf,&&&&&,images/symbols/symbol_54.png,,,,,,,,,,,,,0,3,3,3,,,,,,,,,,,,,,,,,,,,,,,,,,,,,1048.789817887242,,,,,,,,,,,,left,0.883830058039166,AMP_prac,left,0.883830058039166,6,,,,,,,,,,,,,,,,,,,,,,,,,,,,,1018,2019_May_20_1657,mf_amp_cond1,3.0.7,60.048840897409036,
,,,,,,,,,,,,,,,,,,,,,,,,,,,,,,,,,,,,,,,,,,,,,,,,,,,,,,,,,,,,,,,,,right,12.95351861702511,,,,,,,,,,,,,,,,,,,,,,,,,,,1018,2019_May_20_1657,mf_amp_cond1,3.0.7,60.048840897409036,
compassion,&&&&&&&&&&,images/symbols/symbol_42.png,condition_files/AMP_rep4.csv,left,care.virtue,,,,,,,,,,,,,,0,0,0,3,0,0,0,0,,,,,,,,,,,,,,,,,,,,,1082.765305049019,,,,,,,,,,,,,,AMP_prac,left,0.883830058039166,6,,,left,0.7504488514387049,,,,,,,,,,,,,,,,,,,,,,,,,1018,2019_May_20_1657,mf_amp_cond1,3.0.7,60.048840897409036,
praise,&&&&&&,images/symbols/symbol_41.png,condition_files/AMP_rep4.csv,left,authority.virtue,,,,,,,,,,,,,,0,0,0,3,0,1,1,1,,,,,,,,,,,,,,,,,,,,,1083.7987423178856,,,,,,,,,,,,,,AMP_prac,left,0.883830058039166,6,,,right,0.8161325457622297,,,,,,,,,,,,,,,,,,,,,,,,,1018,2019_May_20_1657,mf_amp_cond1,3.0.7,60.048840897409036,
promised,&&&&&&&&,images/symbols/symbol_54.png,condition_files/AMP_rep4.csv,left,loyalty.virtue,,,,,,,,,,,,,,0,0,0,3,0,2,2,2,,,,,,,,,,,,,,,,,,,,,1084.732326092897,,,,,,,,,,,,,,AMP_prac,left,0.883830058039166,6,,,left,0.7004215579363517,,,,,,,,,,,,,,,,,,,,,,,,,1018,2019_May_20_1657,mf_amp_cond1,3.0.7,60.048840897409036,
loyalty,&&&&&&&,images/symbols/symbol_1.png,condition_files/AMP_rep4.csv,left,loyalty.virtue,,,,,,,,,,,,,,0,0,0,3,0,3,3,3,,,,,,,,,,,,,,,,,,,,,1085.6825627541984,,,,,,,,,,,,,,AMP_prac,left,0.883830058039166,6,,,right,0.7322767016012222,,,,,,,,,,,,,,,,,,,,,,,,,1018,2019_May_20_1657,mf_amp_cond1,3.0.7,60.048840897409036,
harassment,&&&&&&&&&&,images/symbols/symbol_28.png,condition_files/AMP_rep4.csv,right,sanctity.vice,,,,,,,,,,,,,,0,0,0,3,0,4,4,4,,,,,,,,,,,,,,,,,,,,,1086.6161356246448,,,,,,,,,,,,,,AMP_prac,left,0.883830058039166,6,,,left,0.716195022512693,,,,,,,,,,,,,,,,,,,,,,,,,1018,2019_May_20_1657,mf_amp_cond1,3.0.7,60.048840897409036,
lighnde,&&&&&&&,images/symbols/symbol_47.png,condition_files/AMP_rep4.csv,None,nonword,,,,,,,,,,,,,,0,0,0,3,0,5,5,5,,,,,,,,,,,,,,,,,,,,,1087.4496770001133,,,,,,,,,,,,,,AMP_prac,left,0.883830058039166,6,,,right,0.6160410114680417,,,,,,,,,,,,,,,,,,,,,,,,,1018,2019_May_20_1657,mf_amp_cond1,3.0.7,60.048840897409036,
crime,&&&&&,images/symbols/symbol_78.png,condition_files/AMP_rep4.csv,right,fairness.vice,,,,,,,,,,,,,,0,0,0,3,0,6,6,6,,,,,,,,,,,,,,,,,,,,,1088.3832678310573,,,,,,,,,,,,,,AMP_prac,left,0.883830058039166,6,,,right,0.7158589051105082,,,,,,,,,,,,,,,,,,,,,,,,,1018,2019_May_20_1657,mf_amp_cond1,3.0.7,60.048840897409036,
wepte,&&&&&,images/symbols/symbol_11.png,condition_files/AMP_rep4.csv,None,nonword,,,,,,,,,,,,,,0,0,0,3,0,7,7,7,,,,,,,,,,,,,,,,,,,,,1089.1667864031624,,,,,,,,,,,,,,AMP_prac,left,0.883830058039166,6,,,right,0.5660756174474955,,,,,,,,,,,,,,,,,,,,,,,,,1018,2019_May_20_1657,mf_amp_cond1,3.0.7,60.048840897409036,
strength,&&&&&&&&,images/symbols/symbol_18.png,condition_files/AMP_rep4.csv,left,sanctity.virtue,,,,,,,,,,,,,,0,0,0,3,0,8,8,8,,,,,,,,,,,,,,,,,,,,,1089.9003572209622,,,,,,,,,,,,,,AMP_prac,left,0.883830058039166,6,,,left,0.5004275233950466,,,,,,,,,,,,,,,,,,,,,,,,,1018,2019_May_20_1657,mf_amp_cond1,3.0.7,60.048840897409036,
yeussed,&&&&&&&,images/symbols/symbol_51.png,condition_files/AMP_rep4.csv,None,nonword,,,,,,,,,,,,,,0,0,0,3,0,9,9,9,,,,,,,,,,,,,,,,,,,,,1091.1839752171072,,,,,,,,,,,,,,AMP_prac,left,0.883830058039166,6,,,left,1.0505026045721024,,,,,,,,,,,,,,,,,,,,,,,,,1018,2019_May_20_1657,mf_amp_cond1,3.0.7,60.048840897409036,
improve,&&&&&&&,images/symbols/symbol_55.png,condition_files/AMP_rep4.csv,left,care.virtue,,,,,,,,,,,,,,0,0,0,3,0,10,10,10,,,,,,,,,,,,,,,,,,,,,1091.817467714427,,,,,,,,,,,,,,AMP_prac,left,0.883830058039166,6,,,right,0.4156476770876907,,,,,,,,,,,,,,,,,,,,,,,,,1018,2019_May_20_1657,mf_amp_cond1,3.0.7,60.048840897409036,
ban,&&&,images/symbols/symbol_76.png,condition_files/AMP_rep4.csv,right,loyalty.vice,,,,,,,,,,,,,,0,0,0,3,0,11,11,11,,,,,,,,,,,,,,,,,,,,,1092.5009842980653,,,,,,,,,,,,,,AMP_prac,left,0.883830058039166,6,,,right,0.4665409220033325,,,,,,,,,,,,,,,,,,,,,,,,,1018,2019_May_20_1657,mf_amp_cond1,3.0.7,60.048840897409036,
civilians,&&&&&&&&&,images/symbols/symbol_65.png,condition_files/AMP_rep4.csv,right,care.vice,,,,,,,,,,,,,,0,0,0,3,0,12,12,12,,,,,,,,,,,,,,,,,,,,,1093.234501875937,,,,,,,,,,,,,,AMP_prac,left,0.883830058039166,6,,,right,0.5160499275662005,,,,,,,,,,,,,,,,,,,,,,,,,1018,2019_May_20_1657,mf_amp_cond1,3.0.7,60.048840897409036,
fraud,&&&&&,images/symbols/symbol_69.png,condition_files/AMP_rep4.csv,right,fairness.vice,,,,,,,,,,,,,,0,0,0,3,0,13,13,13,,,,,,,,,,,,,,,,,,,,,1094.1680744256591,,,,,,,,,,,,,,AMP_prac,left,0.883830058039166,6,,,left,0.7160686577553861,,,,,,,,,,,,,,,,,,,,,,,,,1018,2019_May_20_1657,mf_amp_cond1,3.0.7,60.048840897409036,
faith,&&&&&,images/symbols/symbol_19.png,condition_files/AMP_rep4.csv,left,sanctity.virtue,,,,,,,,,,,,,,0,0,0,3,0,14,14,14,,,,,,,,,,,,,,,,,,,,,1094.868258969509,,,,,,,,,,,,,,AMP_prac,left,0.883830058039166,6,,,right,0.48252830863930285,,,,,,,,,,,,,,,,,,,,,,,,,1018,2019_May_20_1657,mf_amp_cond1,3.0.7,60.048840897409036,
promises,&&&&&&&&,images/symbols/symbol_52.png,condition_files/AMP_rep4.csv,left,fairness.virtue,,,,,,,,,,,,,,0,0,0,3,0,15,15,15,,,,,,,,,,,,,,,,,,,,,1095.8685315838084,,,,,,,,,,,,,,AMP_prac,left,0.883830058039166,6,,,left,0.7833190825767815,,,,,,,,,,,,,,,,,,,,,,,,,1018,2019_May_20_1657,mf_amp_cond1,3.0.7,60.048840897409036,
encourage,&&&&&&&&&,images/symbols/symbol_9.png,condition_files/AMP_rep4.csv,left,authority.virtue,,,,,,,,,,,,,,0,0,0,3,0,16,16,16,,,,,,,,,,,,,,,,,,,,,1097.768992077501,,,,,,,,,,,,,,AMP_prac,left,0.883830058039166,6,,,right,1.6830403103376739,,,,,,,,,,,,,,,,,,,,,,,,,1018,2019_May_20_1657,mf_amp_cond1,3.0.7,60.048840897409036,
creinned,&&&&&&&&,images/symbols/symbol_57.png,condition_files/AMP_rep4.csv,None,nonword,,,,,,,,,,,,,,0,0,0,3,0,17,17,17,,,,,,,,,,,,,,,,,,,,,1099.3694084397284,,,,,,,,,,,,,,AMP_prac,left,0.883830058039166,6,,,left,1.3830430044326931,,,,,,,,,,,,,,,,,,,,,,,,,1018,2019_May_20_1657,mf_amp_cond1,3.0.7,60.048840897409036,
attacks,&&&&&&&,images/symbols/symbol_60.png,condition_files/AMP_rep4.csv,right,care.vice,,,,,,,,,,,,,,0,0,0,3,0,18,18,18,,,,,,,,,,,,,,,,,,,,,1100.2196248313994,,,,,,,,,,,,,,AMP_prac,left,0.883830058039166,6,,,right,0.632818338170182,,,,,,,,,,,,,,,,,,,,,,,,,1018,2019_May_20_1657,mf_amp_cond1,3.0.7,60.048840897409036,
sexual,&&&&&&,images/symbols/symbol_17.png,condition_files/AMP_rep4.csv,right,sanctity.vice,,,,,,,,,,,,,,0,0,0,3,0,19,19,19,,,,,,,,,,,,,,,,,,,,,1102.2201456850744,,,,,,,,,,,,,,AMP_prac,left,0.883830058039166,6,,,right,1.7830814269836992,,,,,,,,,,,,,,,,,,,,,,,,,1018,2019_May_20_1657,mf_amp_cond1,3.0.7,60.048840897409036,
free,&&&&,images/symbols/symbol_67.png,condition_files/AMP_rep4.csv,left,fairness.virtue,,,,,,,,,,,,,,0,0,0,3,0,20,20,20,,,,,,,,,,,,,,,,,,,,,1103.0036751617445,,,,,,,,,,,,,,AMP_prac,left,0.883830058039166,6,,,left,0.5660615056403913,,,,,,,,,,,,,,,,,,,,,,,,,1018,2019_May_20_1657,mf_amp_cond1,3.0.7,60.048840897409036,
peace,&&&&&,images/symbols/symbol_6.png,condition_files/AMP_rep4.csv,left,care.virtue,,,,,,,,,,,,,,0,0,0,3,0,21,21,21,,,,,,,,,,,,,,,,,,,,,1103.9539175960817,,,,,,,,,,,,,,AMP_prac,left,0.883830058039166,6,,,right,0.7170747649506666,,,,,,,,,,,,,,,,,,,,,,,,,1018,2019_May_20_1657,mf_amp_cond1,3.0.7,60.048840897409036,
useful,&&&&&&,images/symbols/symbol_39.png,condition_files/AMP_rep4.csv,left,authority.virtue,,,,,,,,,,,,,,0,0,0,3,0,22,22,22,,,,,,,,,,,,,,,,,,,,,1104.9374943472794,,,,,,,,,,,,,,AMP_prac,left,0.883830058039166,6,,,right,0.7656424493179657,,,,,,,,,,,,,,,,,,,,,,,,,1018,2019_May_20_1657,mf_amp_cond1,3.0.7,60.048840897409036,
good,&&&&,images/symbols/symbol_4.png,condition_files/AMP_rep4.csv,left,care.virtue,,,,,,,,,,,,,,0,0,0,3,0,23,23,23,,,,,,,,,,,,,,,,,,,,,1107.454818185477,,,,,,,,,,,,,,AMP_prac,left,0.883830058039166,6,,,right,2.2998321336926892,,,,,,,,,,,,,,,,,,,,,,,,,1018,2019_May_20_1657,mf_amp_cond1,3.0.7,60.048840897409036,
actively,&&&&&&&&,images/symbols/symbol_2.png,condition_files/AMP_rep4.csv,left,authority.virtue,,,,,,,,,,,,,,0,0,0,3,0,24,24,24,,,,,,,,,,,,,,,,,,,,,1108.288353787968,,,,,,,,,,,,,,AMP_prac,left,0.883830058039166,6,,,right,0.6162167675211094,,,,,,,,,,,,,,,,,,,,,,,,,1018,2019_May_20_1657,mf_amp_cond1,3.0.7,60.048840897409036,
party,&&&&&,images/symbols/symbol_8.png,condition_files/AMP_rep4.csv,left,loyalty.virtue,,,,,,,,,,,,,,0,0,0,3,0,25,25,25,,,,,,,,,,,,,,,,,,,,,1109.4219745743903,,,,,,,,,,,,,,AMP_prac,left,0.883830058039166,6,,,left,0.9162778972531669,,,,,,,,,,,,,,,,,,,,,,,,,1018,2019_May_20_1657,mf_amp_cond1,3.0.7,60.048840897409036,
black,&&&&&,images/symbols/symbol_48.png,condition_files/AMP_rep4.csv,right,loyalty.vice,,,,,,,,,,,,,,0,0,0,3,0,26,26,26,,,,,,,,,,,,,,,,,,,,,1110.1054853849928,,,,,,,,,,,,,,AMP_prac,left,0.883830058039166,6,,,right,0.46607683622278273,,,,,,,,,,,,,,,,,,,,,,,,,1018,2019_May_20_1657,mf_amp_cond1,3.0.7,60.048840897409036,
great,&&&&&,images/symbols/symbol_56.png,condition_files/AMP_rep4.csv,left,loyalty.virtue,,,,,,,,,,,,,,0,0,0,3,0,27,27,27,,,,,,,,,,,,,,,,,,,,,1110.855698825966,,,,,,,,,,,,,,AMP_prac,left,0.883830058039166,6,,,right,0.5170476959901862,,,,,,,,,,,,,,,,,,,,,,,,,1018,2019_May_20_1657,mf_amp_cond1,3.0.7,60.048840897409036,
shot,&&&&,images/symbols/symbol_75.png,condition_files/AMP_rep4.csv,right,care.vice,,,,,,,,,,,,,,0,0,0,3,0,28,28,28,,,,,,,,,,,,,,,,,,,,,1111.8726188743021,,,,,,,,,,,,,,AMP_prac,left,0.883830058039166,6,,,left,0.7837789990007877,,,,,,,,,,,,,,,,,,,,,,,,,1018,2019_May_20_1657,mf_amp_cond1,3.0.7,60.048840897409036,
powerful,&&&&&&&&,images/symbols/symbol_14.png,condition_files/AMP_rep4.csv,left,authority.virtue,,,,,,,,,,,,,,0,0,0,3,0,29,29,29,,,,,,,,,,,,,,,,,,,,,1112.8729270888143,,,,,,,,,,,,,,AMP_prac,left,0.883830058039166,6,,,right,0.7827097093686461,,,,,,,,,,,,,,,,,,,,,,,,,1018,2019_May_20_1657,mf_amp_cond1,3.0.7,60.048840897409036,
serial,&&&&&&,images/symbols/symbol_70.png,condition_files/AMP_rep4.csv,right,sanctity.vice,,,,,,,,,,,,,,0,0,0,3,0,30,30,30,,,,,,,,,,,,,,,,,,,,,1113.5563699062332,,,,,,,,,,,,,,AMP_prac,left,0.883830058039166,6,,,right,0.4661489987629466,,,,,,,,,,,,,,,,,,,,,,,,,1018,2019_May_20_1657,mf_amp_cond1,3.0.7,60.048840897409036,
penalty,&&&&&&&,images/symbols/symbol_23.png,condition_files/AMP_rep4.csv,right,authority.vice,,,,,,,,,,,,,,0,0,0,3,0,31,31,31,,,,,,,,,,,,,,,,,,,,,1114.806691430742,,,,,,,,,,,,,,AMP_prac,left,0.883830058039166,6,,,left,1.0328731175977737,,,,,,,,,,,,,,,,,,,,,,,,,1018,2019_May_20_1657,mf_amp_cond1,3.0.7,60.048840897409036,
respect,&&&&&&&,images/symbols/symbol_49.png,condition_files/AMP_rep4.csv,left,sanctity.virtue,,,,,,,,,,,,,,0,0,0,3,0,32,32,32,,,,,,,,,,,,,,,,,,,,,1115.7402588488767,,,,,,,,,,,,,,AMP_prac,left,0.883830058039166,6,,,left,0.7004023146000691,,,,,,,,,,,,,,,,,,,,,,,,,1018,2019_May_20_1657,mf_amp_cond1,3.0.7,60.048840897409036,
voter,&&&&&,images/symbols/symbol_59.png,condition_files/AMP_rep4.csv,right,fairness.vice,,,,,,,,,,,,,,0,0,0,3,0,33,33,33,,,,,,,,,,,,,,,,,,,,,1116.5904765234445,,,,,,,,,,,,,,AMP_prac,left,0.883830058039166,6,,,right,0.6327150654396974,,,,,,,,,,,,,,,,,,,,,,,,,1018,2019_May_20_1657,mf_amp_cond1,3.0.7,60.048840897409036,
fear,&&&&,images/symbols/symbol_33.png,condition_files/AMP_rep4.csv,right,sanctity.vice,,,,,,,,,,,,,,0,0,0,3,0,34,34,34,,,,,,,,,,,,,,,,,,,,,1117.4573753078002,,,,,,,,,,,,,,AMP_prac,left,0.883830058039166,6,,,right,0.6496418489259668,,,,,,,,,,,,,,,,,,,,,,,,,1018,2019_May_20_1657,mf_amp_cond1,3.0.7,60.048840897409036,
blamed,&&&&&&,images/symbols/symbol_10.png,condition_files/AMP_rep4.csv,right,loyalty.vice,,,,,,,,,,,,,,0,0,0,3,0,35,35,35,,,,,,,,,,,,,,,,,,,,,1118.3576023153728,,,,,,,,,,,,,,AMP_prac,left,0.883830058039166,6,,,left,0.6830015029408969,,,,,,,,,,,,,,,,,,,,,,,,,1018,2019_May_20_1657,mf_amp_cond1,3.0.7,60.048840897409036,
scourld,&&&&&&&,images/symbols/symbol_32.png,condition_files/AMP_rep4.csv,None,nonword,,,,,,,,,,,,,,0,0,0,3,0,36,36,36,,,,,,,,,,,,,,,,,,,,,1119.2244914780604,,,,,,,,,,,,,,AMP_prac,left,0.883830058039166,6,,,left,0.6495004102471285,,,,,,,,,,,,,,,,,,,,,,,,,1018,2019_May_20_1657,mf_amp_cond1,3.0.7,60.048840897409036,
peaceful,&&&&&&&&,images/symbols/symbol_74.png,condition_files/AMP_rep4.csv,left,authority.virtue,,,,,,,,,,,,,,0,0,0,3,0,37,37,37,,,,,,,,,,,,,,,,,,,,,1120.6248535098857,,,,,,,,,,,,,,AMP_prac,left,0.883830058039166,6,,,left,1.1671988525777124,,,,,,,,,,,,,,,,,,,,,,,,,1018,2019_May_20_1657,mf_amp_cond1,3.0.7,60.048840897409036,
hand,&&&&,images/symbols/symbol_12.png,condition_files/AMP_rep4.csv,left,sanctity.virtue,,,,,,,,,,,,,,0,0,0,3,0,38,38,38,,,,,,,,,,,,,,,,,,,,,1121.3417351997923,,,,,,,,,,,,,,AMP_prac,left,0.883830058039166,6,,,right,0.4837268494302407,,,,,,,,,,,,,,,,,,,,,,,,,1018,2019_May_20_1657,mf_amp_cond1,3.0.7,60.048840897409036,
opportunity,&&&&&&&&&&&,images/symbols/symbol_5.png,condition_files/AMP_rep4.csv,left,fairness.virtue,,,,,,,,,,,,,,0,0,0,3,0,39,39,39,,,,,,,,,,,,,,,,,,,,,1122.6420432860032,,,,,,,,,,,,,,AMP_prac,left,0.883830058039166,6,,,right,1.0825354286353104,,,,,,,,,,,,,,,,,,,,,,,,,1018,2019_May_20_1657,mf_amp_cond1,3.0.7,60.048840897409036,
safety,&&&&&&,images/symbols/symbol_82.png,condition_files/AMP_rep4.csv,left,care.virtue,,,,,,,,,,,,,,0,0,0,3,0,40,40,40,,,,,,,,,,,,,,,,,,,,,1123.4755872272654,,,,,,,,,,,,,,AMP_prac,left,0.883830058039166,6,,,left,0.6164217093028128,,,,,,,,,,,,,,,,,,,,,,,,,1018,2019_May_20_1657,mf_amp_cond1,3.0.7,60.048840897409036,
prosecution,&&&&&&&&&&&,images/symbols/symbol_58.png,condition_files/AMP_rep4.csv,right,authority.vice,,,,,,,,,,,,,,0,0,0,3,0,41,41,41,,,,,,,,,,,,,,,,,,,,,1124.492522028857,,,,,,,,,,,,,,AMP_prac,left,0.883830058039166,6,,,left,0.7837777161039412,,,,,,,,,,,,,,,,,,,,,,,,,1018,2019_May_20_1657,mf_amp_cond1,3.0.7,60.048840897409036,
growth,&&&&&&,images/symbols/symbol_45.png,condition_files/AMP_rep4.csv,left,care.virtue,,,,,,,,,,,,,,0,0,0,3,0,42,42,42,,,,,,,,,,,,,,,,,,,,,1125.5261039437028,,,,,,,,,,,,,,AMP_prac,left,0.883830058039166,6,,,right,0.8157358117168769,,,,,,,,,,,,,,,,,,,,,,,,,1018,2019_May_20_1657,mf_amp_cond1,3.0.7,60.048840897409036,
violations,&&&&&&&&&&,images/symbols/symbol_31.png,condition_files/AMP_rep4.csv,right,sanctity.vice,,,,,,,,,,,,,,0,0,0,3,0,43,43,43,,,,,,,,,,,,,,,,,,,,,1130.3607027420076,,,,,,,,,,,,,,AMP_prac,left,0.883830058039166,6,,,left,4.601437864184845,,,,,,,,,,,,,,,,,,,,,,,,,1018,2019_May_20_1657,mf_amp_cond1,3.0.7,60.048840897409036,
prison,&&&&&&,images/symbols/symbol_53.png,condition_files/AMP_rep4.csv,right,fairness.vice,,,,,,,,,,,,,,0,0,0,3,0,44,44,44,,,,,,,,,,,,,,,,,,,,,1131.2943282109918,,,,,,,,,,,,,,AMP_prac,left,0.883830058039166,6,,,left,0.7004776844405569,,,,,,,,,,,,,,,,,,,,,,,,,1018,2019_May_20_1657,mf_amp_cond1,3.0.7,60.048840897409036,
integrity,&&&&&&&&&,images/symbols/symbol_3.png,condition_files/AMP_rep4.csv,left,fairness.virtue,,,,,,,,,,,,,,0,0,0,3,0,45,45,45,,,,,,,,,,,,,,,,,,,,,1132.444544153579,,,,,,,,,,,,,,AMP_prac,left,0.883830058039166,6,,,right,0.9171127385343425,,,,,,,,,,,,,,,,,,,,,,,,,1018,2019_May_20_1657,mf_amp_cond1,3.0.7,60.048840897409036,
illegal,&&&&&&&,images/symbols/symbol_44.png,condition_files/AMP_rep4.csv,right,fairness.vice,,,,,,,,,,,,,,0,0,0,3,0,46,46,46,,,,,,,,,,,,,,,,,,,,,1134.728466515604,,,,,,,,,,,,,,AMP_prac,left,0.883830058039166,6,,,right,2.0661875496734865,,,,,,,,,,,,,,,,,,,,,,,,,1018,2019_May_20_1657,mf_amp_cond1,3.0.7,60.048840897409036,
psured,&&&&&&,images/symbols/symbol_81.png,condition_files/AMP_rep4.csv,None,nonword,,,,,,,,,,,,,,0,0,0,3,0,47,47,47,,,,,,,,,,,,,,,,,,,,,1135.6120210727677,,,,,,,,,,,,,,AMP_prac,left,0.883830058039166,6,,,left,0.6503843220416456,,,,,,,,,,,,,,,,,,,,,,,,,1018,2019_May_20_1657,mf_amp_cond1,3.0.7,60.048840897409036,
care,&&&&,images/symbols/symbol_72.png,condition_files/AMP_rep4.csv,left,care.virtue,,,,,,,,,,,,,,0,0,0,3,0,48,48,48,,,,,,,,,,,,,,,,,,,,,1136.5455929810414,,,,,,,,,,,,,,AMP_prac,left,0.883830058039166,6,,,right,0.7004109740955755,,,,,,,,,,,,,,,,,,,,,,,,,1018,2019_May_20_1657,mf_amp_cond1,3.0.7,60.048840897409036,
support,&&&&&&&,images/symbols/symbol_22.png,condition_files/AMP_rep4.csv,left,loyalty.virtue,,,,,,,,,,,,,,0,0,0,3,0,49,49,49,,,,,,,,,,,,,,,,,,,,,1138.3794011978316,,,,,,,,,,,,,,AMP_prac,left,0.883830058039166,6,,,right,1.616002204013057,,,,,,,,,,,,,,,,,,,,,,,,,1018,2019_May_20_1657,mf_amp_cond1,3.0.7,60.048840897409036,
pleasant,&&&&&&&,images/symbols/symbol_61.png,condition_files/AMP_rep4.csv,right,control,,,,,,,,,,,,,,0,0,0,3,0,50,50,50,,,,,,,,,,,,,,,,,,,,,1139.2961916100467,,,,,,,,,,,,,,AMP_prac,left,0.883830058039166,6,,,left,0.6994016597163863,,,,,,,,,,,,,,,,,,,,,,,,,1018,2019_May_20_1657,mf_amp_cond1,3.0.7,60.048840897409036,
beest,&&&&&,images/symbols/symbol_24.png,condition_files/AMP_rep4.csv,None,nonword,,,,,,,,,,,,,,0,0,0,3,0,51,51,51,,,,,,,,,,,,,,,,,,,,,1140.1631856490858,,,,,,,,,,,,,,AMP_prac,left,0.883830058039166,6,,,right,0.6493734040413983,,,,,,,,,,,,,,,,,,,,,,,,,1018,2019_May_20_1657,mf_amp_cond1,3.0.7,60.048840897409036,
values,&&&&&&,images/symbols/symbol_21.png,condition_files/AMP_rep4.csv,left,sanctity.virtue,,,,,,,,,,,,,,0,0,0,3,0,52,52,52,,,,,,,,,,,,,,,,,,,,,1141.0967748764087,,,,,,,,,,,,,,AMP_prac,left,0.883830058039166,6,,,right,0.7163685334962793,,,,,,,,,,,,,,,,,,,,,,,,,1018,2019_May_20_1657,mf_amp_cond1,3.0.7,60.048840897409036,
riot,&&&&,images/symbols/symbol_26.png,condition_files/AMP_rep4.csv,right,authority.vice,,,,,,,,,,,,,,0,0,0,3,0,53,53,53,,,,,,,,,,,,,,,,,,,,,1142.0136663162266,,,,,,,,,,,,,,AMP_prac,left,0.883830058039166,6,,,left,0.6994061497971416,,,,,,,,,,,,,,,,,,,,,,,,,1018,2019_May_20_1657,mf_amp_cond1,3.0.7,60.048840897409036,
gun,&&&,images/symbols/symbol_29.png,condition_files/AMP_rep4.csv,right,authority.vice,,,,,,,,,,,,,,0,0,0,3,0,54,54,54,,,,,,,,,,,,,,,,,,,,,1143.0638125978876,,,,,,,,,,,,,,AMP_prac,left,0.883830058039166,6,,,left,0.8325092897284776,,,,,,,,,,,,,,,,,,,,,,,,,1018,2019_May_20_1657,mf_amp_cond1,3.0.7,60.048840897409036,
sharing,&&&&&&&,images/symbols/symbol_43.png,condition_files/AMP_rep4.csv,left,loyalty.virtue,,,,,,,,,,,,,,0,0,0,3,0,55,55,55,,,,,,,,,,,,,,,,,,,,,1144.0141791518545,,,,,,,,,,,,,,AMP_prac,left,0.883830058039166,6,,,right,0.7328498330898583,,,,,,,,,,,,,,,,,,,,,,,,,1018,2019_May_20_1657,mf_amp_cond1,3.0.7,60.048840897409036,
failure,&&&&&&&,images/symbols/symbol_80.png,condition_files/AMP_rep4.csv,right,loyalty.vice,,,,,,,,,,,,,,0,0,0,3,0,56,56,56,,,,,,,,,,,,,,,,,,,,,1144.847731111222,,,,,,,,,,,,,,AMP_prac,left,0.883830058039166,6,,,left,0.616073083714582,,,,,,,,,,,,,,,,,,,,,,,,,1018,2019_May_20_1657,mf_amp_cond1,3.0.7,60.048840897409036,
victims,&&&&&&&,images/symbols/symbol_16.png,condition_files/AMP_rep4.csv,right,care.vice,,,,,,,,,,,,,,0,0,0,3,0,57,57,57,,,,,,,,,,,,,,,,,,,,,1145.631263795076,,,,,,,,,,,,,,AMP_prac,left,0.883830058039166,6,,,right,0.5663828697870485,,,,,,,,,,,,,,,,,,,,,,,,,1018,2019_May_20_1657,mf_amp_cond1,3.0.7,60.048840897409036,
men,&&&,images/symbols/symbol_46.png,condition_files/AMP_rep4.csv,right,loyalty.vice,,,,,,,,,,,,,,0,0,0,3,0,58,58,58,,,,,,,,,,,,,,,,,,,,,1146.4481606230838,,,,,,,,,,,,,,AMP_prac,left,0.883830058039166,6,,,right,0.5994946051505394,,,,,,,,,,,,,,,,,,,,,,,,,1018,2019_May_20_1657,mf_amp_cond1,3.0.7,60.048840897409036,
accused,&&&&&&&,images/symbols/symbol_73.png,condition_files/AMP_rep4.csv,right,fairness.vice,,,,,,,,,,,,,,0,0,0,3,0,59,59,59,,,,,,,,,,,,,,,,,,,,,1147.415059150895,,,,,,,,,,,,,,AMP_prac,left,0.883830058039166,6,,,right,0.7337635721778497,,,,,,,,,,,,,,,,,,,,,,,,,1018,2019_May_20_1657,mf_amp_cond1,3.0.7,60.048840897409036,
scandal,&&&&&&&,images/symbols/symbol_27.png,condition_files/AMP_rep4.csv,right,sanctity.vice,,,,,,,,,,,,,,0,0,0,3,0,60,60,60,,,,,,,,,,,,,,,,,,,,,1148.9988152502337,,,,,,,,,,,,,,AMP_prac,left,0.883830058039166,6,,,left,1.3657467483426444,,,,,,,,,,,,,,,,,,,,,,,,,1018,2019_May_20_1657,mf_amp_cond1,3.0.7,60.048840897409036,
celebrated,&&&&&&&&&&,images/symbols/symbol_38.png,condition_files/AMP_rep4.csv,left,authority.virtue,,,,,,,,,,,,,,0,0,0,3,0,61,61,61,,,,,,,,,,,,,,,,,,,,,1149.9156887296122,,,,,,,,,,,,,,AMP_prac,left,0.883830058039166,6,,,right,0.6994391842163168,,,,,,,,,,,,,,,,,,,,,,,,,1018,2019_May_20_1657,mf_amp_cond1,3.0.7,60.048840897409036,
rheys,&&&&&,images/symbols/symbol_62.png,condition_files/AMP_rep4.csv,None,nonword,,,,,,,,,,,,,,0,0,0,3,0,62,62,62,,,,,,,,,,,,,,,,,,,,,1151.5161105441512,,,,,,,,,,,,,,AMP_prac,left,0.883830058039166,6,,,left,1.367247089277953,,,,,,,,,,,,,,,,,,,,,,,,,1018,2019_May_20_1657,mf_amp_cond1,3.0.7,60.048840897409036,
unpleasant,&&&&&&&&&,images/symbols/symbol_30.png,condition_files/AMP_rep4.csv,left,control,,,,,,,,,,,,,,0,0,0,3,0,63,63,63,,,,,,,,,,,,,,,,,,,,,1152.216273278871,,,,,,,,,,,,,,AMP_prac,left,0.883830058039166,6,,,right,0.482276861963328,,,,,,,,,,,,,,,,,,,,,,,,,1018,2019_May_20_1657,mf_amp_cond1,3.0.7,60.048840897409036,
slavery,&&&&&&&,images/symbols/symbol_77.png,condition_files/AMP_rep4.csv,right,loyalty.vice,,,,,,,,,,,,,,0,0,0,3,0,64,64,64,,,,,,,,,,,,,,,,,,,,,1152.9998194330838,,,,,,,,,,,,,,AMP_prac,left,0.883830058039166,6,,,right,0.5661192357074469,,,,,,,,,,,,,,,,,,,,,,,,,1018,2019_May_20_1657,mf_amp_cond1,3.0.7,60.048840897409036,
credit,&&&&&&,images/symbols/symbol_15.png,condition_files/AMP_rep4.csv,left,fairness.virtue,,,,,,,,,,,,,,0,0,0,3,0,65,65,65,,,,,,,,,,,,,,,,,,,,,1153.9167253054911,,,,,,,,,,,,,,AMP_prac,left,0.883830058039166,6,,,left,0.699455861817114,,,,,,,,,,,,,,,,,,,,,,,,,1018,2019_May_20_1657,mf_amp_cond1,3.0.7,60.048840897409036,
commitment,&&&&&&&&&&,images/symbols/symbol_66.png,condition_files/AMP_rep4.csv,left,sanctity.virtue,,,,,,,,,,,,,,0,0,0,3,0,66,66,66,,,,,,,,,,,,,,,,,,,,,1155.3004540150869,,,,,,,,,,,,,,AMP_prac,left,0.883830058039166,6,,,right,1.150572586338967,,,,,,,,,,,,,,,,,,,,,,,,,1018,2019_May_20_1657,mf_amp_cond1,3.0.7,60.048840897409036,
refused,&&&&&&&,images/symbols/symbol_40.png,condition_files/AMP_rep4.csv,right,authority.vice,,,,,,,,,,,,,,0,0,0,3,0,67,67,67,,,,,,,,,,,,,,,,,,,,,1156.1673197650816,,,,,,,,,,,,,,AMP_prac,left,0.883830058039166,6,,,left,0.6486973204882815,,,,,,,,,,,,,,,,,,,,,,,,,1018,2019_May_20_1657,mf_amp_cond1,3.0.7,60.048840897409036,
win,&&&,images/symbols/symbol_37.png,condition_files/AMP_rep4.csv,left,fairness.virtue,,,,,,,,,,,,,,0,0,0,3,0,68,68,68,,,,,,,,,,,,,,,,,,,,,1157.5343134833965,,,,,,,,,,,,,,AMP_prac,left,0.883830058039166,6,,,left,1.1338613284751773,,,,,,,,,,,,,,,,,,,,,,,,,1018,2019_May_20_1657,mf_amp_cond1,3.0.7,60.048840897409036,
racist,&&&&&&,images/symbols/symbol_20.png,condition_files/AMP_rep4.csv,right,sanctity.vice,,,,,,,,,,,,,,0,0,0,3,0,69,69,69,,,,,,,,,,,,,,,,,,,,,1158.3511904265615,,,,,,,,,,,,,,AMP_prac,left,0.883830058039166,6,,,right,0.5992277638288215,,,,,,,,,,,,,,,,,,,,,,,,,1018,2019_May_20_1657,mf_amp_cond1,3.0.7,60.048840897409036,
clean,&&&&&,images/symbols/symbol_71.png,condition_files/AMP_rep4.csv,left,sanctity.virtue,,,,,,,,,,,,,,0,0,0,3,0,70,70,70,,,,,,,,,,,,,,,,,,,,,1159.268105920637,,,,,,,,,,,,,,AMP_prac,left,0.883830058039166,6,,,left,0.6994083948084153,,,,,,,,,,,,,,,,,,,,,,,,,1018,2019_May_20_1657,mf_amp_cond1,3.0.7,60.048840897409036,
benefit,&&&&&&&,images/symbols/symbol_7.png,condition_files/AMP_rep4.csv,left,fairness.virtue,,,,,,,,,,,,,,0,0,0,3,0,71,71,71,,,,,,,,,,,,,,,,,,,,,1160.1849842108204,,,,,,,,,,,,,,AMP_prac,left,0.883830058039166,6,,,right,0.699549192097038,,,,,,,,,,,,,,,,,,,,,,,,,1018,2019_May_20_1657,mf_amp_cond1,3.0.7,60.048840897409036,
love,&&&&,images/symbols/symbol_25.png,condition_files/AMP_rep4.csv,left,loyalty.virtue,,,,,,,,,,,,,,0,0,0,3,0,72,72,72,,,,,,,,,,,,,,,,,,,,,1162.0021273538587,,,,,,,,,,,,,,AMP_prac,left,0.883830058039166,6,,,right,1.5996235356433317,,,,,,,,,,,,,,,,,,,,,,,,,1018,2019_May_20_1657,mf_amp_cond1,3.0.7,60.048840897409036,
fighters,&&&&&&&&,images/symbols/symbol_34.png,condition_files/AMP_rep4.csv,right,authority.vice,,,,,,,,,,,,,,0,0,0,3,0,73,73,73,,,,,,,,,,,,,,,,,,,,,1163.2524392566993,,,,,,,,,,,,,,AMP_prac,left,0.883830058039166,6,,,right,1.032471893413458,,,,,,,,,,,,,,,,,,,,,,,,,1018,2019_May_20_1657,mf_amp_cond1,3.0.7,60.048840897409036,
violence,&&&&&&&&,images/symbols/symbol_63.png,condition_files/AMP_rep4.csv,right,care.vice,,,,,,,,,,,,,,0,0,0,3,0,74,74,74,,,,,,,,,,,,,,,,,,,,,1163.9859622868826,,,,,,,,,,,,,,AMP_prac,left,0.883830058039166,6,,,left,0.5161647462518886,,,,,,,,,,,,,,,,,,,,,,,,,1018,2019_May_20_1657,mf_amp_cond1,3.0.7,60.048840897409036,
victim,&&&&&&,images/symbols/symbol_36.png,condition_files/AMP_rep4.csv,right,care.vice,,,,,,,,,,,,,,0,0,0,3,0,75,75,75,,,,,,,,,,,,,,,,,,,,,1164.9862252795137,,,,,,,,,,,,,,AMP_prac,left,0.883830058039166,6,,,right,0.7828691085451283,,,,,,,,,,,,,,,,,,,,,,,,,1018,2019_May_20_1657,mf_amp_cond1,3.0.7,60.048840897409036,
terrorists,&&&&&&&&&&,images/symbols/symbol_64.png,condition_files/AMP_rep4.csv,right,fairness.vice,,,,,,,,,,,,,,0,0,0,3,0,76,76,76,,,,,,,,,,,,,,,,,,,,,1165.8364365395391,,,,,,,,,,,,,,AMP_prac,left,0.883830058039166,6,,,left,0.6326801066752523,,,,,,,,,,,,,,,,,,,,,,,,,1018,2019_May_20_1657,mf_amp_cond1,3.0.7,60.048840897409036,
suicide,&&&&&&&,images/symbols/symbol_35.png,condition_files/AMP_rep4.csv,right,care.vice,,,,,,,,,,,,,,0,0,0,3,0,77,77,77,,,,,,,,,,,,,,,,,,,,,1166.6033038289752,,,,,,,,,,,,,,AMP_prac,left,0.883830058039166,6,,,right,0.5493791128974408,,,,,,,,,,,,,,,,,,,,,,,,,1018,2019_May_20_1657,mf_amp_cond1,3.0.7,60.048840897409036,
jogns,&&&&&,images/symbols/symbol_50.png,condition_files/AMP_rep4.csv,None,nonword,,,,,,,,,,,,,,0,0,0,3,0,78,78,78,,,,,,,,,,,,,,,,,,,,,1168.1036819610745,,,,,,,,,,,,,,AMP_prac,left,0.883830058039166,6,,,left,1.283028507779818,,,,,,,,,,,,,,,,,,,,,,,,,1018,2019_May_20_1657,mf_amp_cond1,3.0.7,60.048840897409036,
laudd,&&&&&,images/symbols/symbol_79.png,condition_files/AMP_rep4.csv,None,nonword,,,,,,,,,,,,,,0,0,0,3,0,79,79,79,,,,,,,,,,,,,,,,,,,,,1170.1208759066067,,,,,,,,,,,,,,AMP_prac,left,0.883830058039166,6,,,left,1.799663754296489,,,,,,,,,,,,,,,,,,,,,,,,,1018,2019_May_20_1657,mf_amp_cond1,3.0.7,60.048840897409036,
rebels,&&&&&&,images/symbols/symbol_68.png,condition_files/AMP_rep4.csv,right,authority.vice,,,,,,,,,,,,,,0,0,0,3,0,80,80,80,,,,,,,,,,,,,,,,,,,,,1170.8877425545943,,,,,,,,,,,,,,AMP_prac,left,0.883830058039166,6,,,left,0.5337169390986674,,,,,,,,,,,,,,,,,,,,,,,,,1018,2019_May_20_1657,mf_amp_cond1,3.0.7,60.048840897409036,
groups,&&&&&&,images/symbols/symbol_13.png,condition_files/AMP_rep4.csv,right,loyalty.vice,,,,,,,,,,,,,,0,0,0,3,0,81,81,81,,,,,,,,,,,,,,,,,,,,,1171.571235404699,,,,,,,,,,,,,,AMP_prac,left,0.883830058039166,6,,,right,0.4654122986830771,,,,,,,,,,,,,,,,,,,,,,,,,1018,2019_May_20_1657,mf_amp_cond1,3.0.7,60.048840897409036,
,,,condition_files/AMP_rep4.csv,,,,,,,,,,,,,,,,0,0,0,3,,,,,,,,,,,,,,,,,,,,,,,,,,,,,,,,,,,,,,,,,,,,,,,right,4.334669357340317,,,,,,,,,,,,,,,,,,,,,,,1018,2019_May_20_1657,mf_amp_cond1,3.0.7,60.048840897409036,
compassion,&&&&&&&&&&,images/symbols/symbol_42.png,condition_files/AMP_rep2.csv,left,care.virtue,,,,,,,,,,,,,,0,1,1,1,0,0,0,0,,,,,,,,,,,,,,,,,,,,,1178.1230638770503,,,,,,,,,,,,,,AMP_prac,left,0.883830058039166,6,,,left,1.9662833816255443,,,,,,,,,,,,,,,,,,,,,,,,,1018,2019_May_20_1657,mf_amp_cond1,3.0.7,60.048840897409036,
praise,&&&&&&,images/symbols/symbol_41.png,condition_files/AMP_rep2.csv,left,authority.virtue,,,,,,,,,,,,,,0,1,1,1,0,1,1,1,,,,,,,,,,,,,,,,,,,,,1178.9397997022606,,,,,,,,,,,,,,AMP_prac,left,0.883830058039166,6,,,right,0.5999192419694737,,,,,,,,,,,,,,,,,,,,,,,,,1018,2019_May_20_1657,mf_amp_cond1,3.0.7,60.048840897409036,
promised,&&&&&&&&,images/symbols/symbol_54.png,condition_files/AMP_rep2.csv,left,loyalty.virtue,,,,,,,,,,,,,,0,1,1,1,0,2,2,2,,,,,,,,,,,,,,,,,,,,,1179.8733623095904,,,,,,,,,,,,,,AMP_prac,left,0.883830058039166,6,,,left,0.7004016731516458,,,,,,,,,,,,,,,,,,,,,,,,,1018,2019_May_20_1657,mf_amp_cond1,3.0.7,60.048840897409036,
loyalty,&&&&&&&,images/symbols/symbol_1.png,condition_files/AMP_rep2.csv,left,loyalty.virtue,,,,,,,,,,,,,,0,1,1,1,0,3,3,3,,,,,,,,,,,,,,,,,,,,,1180.6902366869617,,,,,,,,,,,,,,AMP_prac,left,0.883830058039166,6,,,right,0.5985212116502225,,,,,,,,,,,,,,,,,,,,,,,,,1018,2019_May_20_1657,mf_amp_cond1,3.0.7,60.048840897409036,
harassment,&&&&&&&&&&,images/symbols/symbol_28.png,condition_files/AMP_rep2.csv,right,sanctity.vice,,,,,,,,,,,,,,0,1,1,1,0,4,4,4,,,,,,,,,,,,,,,,,,,,,1181.623829762917,,,,,,,,,,,,,,AMP_prac,left,0.883830058039166,6,,,left,0.7161966261337511,,,,,,,,,,,,,,,,,,,,,,,,,1018,2019_May_20_1657,mf_amp_cond1,3.0.7,60.048840897409036,
lighnde,&&&&&&&,images/symbols/symbol_47.png,condition_files/AMP_rep2.csv,None,nonword,,,,,,,,,,,,,,0,1,1,1,0,5,5,5,,,,,,,,,,,,,,,,,,,,,1183.1742326227832,,,,,,,,,,,,,,AMP_prac,left,0.883830058039166,6,,,right,1.3329698475426994,,,,,,,,,,,,,,,,,,,,,,,,,1018,2019_May_20_1657,mf_amp_cond1,3.0.7,60.048840897409036,
crime,&&&&&,images/symbols/symbol_78.png,condition_files/AMP_rep2.csv,right,fairness.vice,,,,,,,,,,,,,,0,1,1,1,0,6,6,6,,,,,,,,,,,,,,,,,,,,,1184.307829034282,,,,,,,,,,,,,,AMP_prac,left,0.883830058039166,6,,,left,0.9160739175858907,,,,,,,,,,,,,,,,,,,,,,,,,1018,2019_May_20_1657,mf_amp_cond1,3.0.7,60.048840897409036,
wepte,&&&&&,images/symbols/symbol_11.png,condition_files/AMP_rep2.csv,None,nonword,,,,,,,,,,,,,,0,1,1,1,0,7,7,7,,,,,,,,,,,,,,,,,,,,,1185.041362968972,,,,,,,,,,,,,,AMP_prac,left,0.883830058039166,6,,,right,0.5158725678920746,,,,,,,,,,,,,,,,,,,,,,,,,1018,2019_May_20_1657,mf_amp_cond1,3.0.7,60.048840897409036,
strength,&&&&&&&&,images/symbols/symbol_18.png,condition_files/AMP_rep2.csv,left,sanctity.virtue,,,,,,,,,,,,,,0,1,1,1,0,8,8,8,,,,,,,,,,,,,,,,,,,,,1185.8582293282961,,,,,,,,,,,,,,AMP_prac,left,0.883830058039166,6,,,right,0.583707028767094,,,,,,,,,,,,,,,,,,,,,,,,,1018,2019_May_20_1657,mf_amp_cond1,3.0.7,60.048840897409036,
yeussed,&&&&&&&,images/symbols/symbol_51.png,condition_files/AMP_rep2.csv,None,nonword,,,,,,,,,,,,,,0,1,1,1,0,9,9,9,,,,,,,,,,,,,,,,,,,,,1187.2585900772247,,,,,,,,,,,,,,AMP_prac,left,0.883830058039166,6,,,left,1.1671946832211688,,,,,,,,,,,,,,,,,,,,,,,,,1018,2019_May_20_1657,mf_amp_cond1,3.0.7,60.048840897409036,
improve,&&&&&&&,images/symbols/symbol_55.png,condition_files/AMP_rep2.csv,left,care.virtue,,,,,,,,,,,,,,0,1,1,1,0,10,10,10,,,,,,,,,,,,,,,,,,,,,1188.525585335039,,,,,,,,,,,,,,AMP_prac,left,0.883830058039166,6,,,left,1.0487209897837602,,,,,,,,,,,,,,,,,,,,,,,,,1018,2019_May_20_1657,mf_amp_cond1,3.0.7,60.048840897409036,
ban,&&&,images/symbols/symbol_76.png,condition_files/AMP_rep2.csv,right,loyalty.vice,,,,,,,,,,,,,,0,1,1,1,0,11,11,11,,,,,,,,,,,,,,,,,,,,,1189.492489635828,,,,,,,,,,,,,,AMP_prac,left,0.883830058039166,6,,,right,0.7498032366274856,,,,,,,,,,,,,,,,,,,,,,,,,1018,2019_May_20_1657,mf_amp_cond1,3.0.7,60.048840897409036,
civilians,&&&&&&&&&,images/symbols/symbol_65.png,condition_files/AMP_rep2.csv,right,care.vice,,,,,,,,,,,,,,0,1,1,1,0,12,12,12,,,,,,,,,,,,,,,,,,,,,1192.493294970598,,,,,,,,,,,,,,AMP_prac,left,0.883830058039166,6,,,right,2.783299839182291,,,,,,,,,,,,,,,,,,,,,,,,,1018,2019_May_20_1657,mf_amp_cond1,3.0.7,60.048840897409036,
fraud,&&&&&,images/symbols/symbol_69.png,condition_files/AMP_rep2.csv,right,fairness.vice,,,,,,,,,,,,,,0,1,1,1,0,13,13,13,,,,,,,,,,,,,,,,,,,,,1193.3101539533236,,,,,,,,,,,,,,AMP_prac,left,0.883830058039166,6,,,left,0.5990481590852141,,,,,,,,,,,,,,,,,,,,,,,,,1018,2019_May_20_1657,mf_amp_cond1,3.0.7,60.048840897409036,
faith,&&&&&,images/symbols/symbol_19.png,condition_files/AMP_rep2.csv,left,sanctity.virtue,,,,,,,,,,,,,,0,1,1,1,0,14,14,14,,,,,,,,,,,,,,,,,,,,,1194.1270196711994,,,,,,,,,,,,,,AMP_prac,left,0.883830058039166,6,,,right,0.599457401316613,,,,,,,,,,,,,,,,,,,,,,,,,1018,2019_May_20_1657,mf_amp_cond1,3.0.7,60.048840897409036,
promises,&&&&&&&&,images/symbols/symbol_52.png,condition_files/AMP_rep2.csv,left,fairness.virtue,,,,,,,,,,,,,,0,1,1,1,0,15,15,15,,,,,,,,,,,,,,,,,,,,,1196.1942245533573,,,,,,,,,,,,,,AMP_prac,left,0.883830058039166,6,,,left,1.8502401250880212,,,,,,,,,,,,,,,,,,,,,,,,,1018,2019_May_20_1657,mf_amp_cond1,3.0.7,60.048840897409036,
encourage,&&&&&&&&&,images/symbols/symbol_9.png,condition_files/AMP_rep2.csv,left,authority.virtue,,,,,,,,,,,,,,0,1,1,1,0,16,16,16,,,,,,,,,,,,,,,,,,,,,1197.0944576546317,,,,,,,,,,,,,,AMP_prac,left,0.883830058039166,6,,,right,0.6827933538588695,,,,,,,,,,,,,,,,,,,,,,,,,1018,2019_May_20_1657,mf_amp_cond1,3.0.7,60.048840897409036,
creinned,&&&&&&&&,images/symbols/symbol_57.png,condition_files/AMP_rep2.csv,None,nonword,,,,,,,,,,,,,,0,1,1,1,0,17,17,17,,,,,,,,,,,,,,,,,,,,,1198.4614741443074,,,,,,,,,,,,,,AMP_prac,left,0.883830058039166,6,,,right,1.1495421041036025,,,,,,,,,,,,,,,,,,,,,,,,,1018,2019_May_20_1657,mf_amp_cond1,3.0.7,60.048840897409036,
attacks,&&&&&&&,images/symbols/symbol_60.png,condition_files/AMP_rep2.csv,right,care.vice,,,,,,,,,,,,,,0,1,1,1,0,18,18,18,,,,,,,,,,,,,,,,,,,,,1199.111626904516,,,,,,,,,,,,,,AMP_prac,left,0.883830058039166,6,,,right,0.4326825441676192,,,,,,,,,,,,,,,,,,,,,,,,,1018,2019_May_20_1657,mf_amp_cond1,3.0.7,60.048840897409036,
sexual,&&&&&&,images/symbols/symbol_17.png,condition_files/AMP_rep2.csv,right,sanctity.vice,,,,,,,,,,,,,,0,1,1,1,0,19,19,19,,,,,,,,,,,,,,,,,,,,,1200.0785642397823,,,,,,,,,,,,,,AMP_prac,left,0.883830058039166,6,,,left,0.7494481964968145,,,,,,,,,,,,,,,,,,,,,,,,,1018,2019_May_20_1657,mf_amp_cond1,3.0.7,60.048840897409036,
free,&&&&,images/symbols/symbol_67.png,condition_files/AMP_rep2.csv,left,fairness.virtue,,,,,,,,,,,,,,0,1,1,1,0,20,20,20,,,,,,,,,,,,,,,,,,,,,1200.9954470201628,,,,,,,,,,,,,,AMP_prac,left,0.883830058039166,6,,,left,0.6993654179968871,,,,,,,,,,,,,,,,,,,,,,,,,1018,2019_May_20_1657,mf_amp_cond1,3.0.7,60.048840897409036,
peace,&&&&&,images/symbols/symbol_6.png,condition_files/AMP_rep2.csv,left,care.virtue,,,,,,,,,,,,,,0,1,1,1,0,21,21,21,,,,,,,,,,,,,,,,,,,,,1201.678974829032,,,,,,,,,,,,,,AMP_prac,left,0.883830058039166,6,,,right,0.4503671954735182,,,,,,,,,,,,,,,,,,,,,,,,,1018,2019_May_20_1657,mf_amp_cond1,3.0.7,60.048840897409036,
useful,&&&&&&,images/symbols/symbol_39.png,condition_files/AMP_rep2.csv,left,authority.virtue,,,,,,,,,,,,,,0,1,1,1,0,22,22,22,,,,,,,,,,,,,,,,,,,,,1202.3457907387055,,,,,,,,,,,,,,AMP_prac,left,0.883830058039166,6,,,right,0.4485053999815136,,,,,,,,,,,,,,,,,,,,,,,,,1018,2019_May_20_1657,mf_amp_cond1,3.0.7,60.048840897409036,
good,&&&&,images/symbols/symbol_4.png,condition_files/AMP_rep2.csv,left,care.virtue,,,,,,,,,,,,,,0,1,1,1,0,23,23,23,,,,,,,,,,,,,,,,,,,,,1203.6627914808341,,,,,,,,,,,,,,AMP_prac,left,0.883830058039166,6,,,left,1.0994872285518795,,,,,,,,,,,,,,,,,,,,,,,,,1018,2019_May_20_1657,mf_amp_cond1,3.0.7,60.048840897409036,
actively,&&&&&&&&,images/symbols/symbol_2.png,condition_files/AMP_rep2.csv,left,authority.virtue,,,,,,,,,,,,,,0,1,1,1,0,24,24,24,,,,,,,,,,,,,,,,,,,,,1204.396321887616,,,,,,,,,,,,,,AMP_prac,left,0.883830058039166,6,,,right,0.5161997050163336,,,,,,,,,,,,,,,,,,,,,,,,,1018,2019_May_20_1657,mf_amp_cond1,3.0.7,60.048840897409036,
party,&&&&&,images/symbols/symbol_8.png,condition_files/AMP_rep2.csv,left,loyalty.virtue,,,,,,,,,,,,,,0,1,1,1,0,25,25,25,,,,,,,,,,,,,,,,,,,,,1206.2801561150118,,,,,,,,,,,,,,AMP_prac,left,0.883830058039166,6,,,left,1.666476584970951,,,,,,,,,,,,,,,,,,,,,,,,,1018,2019_May_20_1657,mf_amp_cond1,3.0.7,60.048840897409036,
black,&&&&&,images/symbols/symbol_48.png,condition_files/AMP_rep2.csv,right,loyalty.vice,,,,,,,,,,,,,,0,1,1,1,0,26,26,26,,,,,,,,,,,,,,,,,,,,,1207.163692711736,,,,,,,,,,,,,,AMP_prac,left,0.883830058039166,6,,,right,0.6658361016889103,,,,,,,,,,,,,,,,,,,,,,,,,1018,2019_May_20_1657,mf_amp_cond1,3.0.7,60.048840897409036,
great,&&&&&,images/symbols/symbol_56.png,condition_files/AMP_rep2.csv,left,loyalty.virtue,,,,,,,,,,,,,,0,1,1,1,0,27,27,27,,,,,,,,,,,,,,,,,,,,,1207.9472321307985,,,,,,,,,,,,,,AMP_prac,left,0.883830058039166,6,,,right,0.5503804092295468,,,,,,,,,,,,,,,,,,,,,,,,,1018,2019_May_20_1657,mf_amp_cond1,3.0.7,60.048840897409036,
shot,&&&&,images/symbols/symbol_75.png,condition_files/AMP_rep2.csv,right,care.vice,,,,,,,,,,,,,,0,1,1,1,0,28,28,28,,,,,,,,,,,,,,,,,,,,,1208.8474559310707,,,,,,,,,,,,,,AMP_prac,left,0.883830058039166,6,,,left,0.6670603003585711,,,,,,,,,,,,,,,,,,,,,,,,,1018,2019_May_20_1657,mf_amp_cond1,3.0.7,60.048840897409036,
powerful,&&&&&&&&,images/symbols/symbol_14.png,condition_files/AMP_rep2.csv,left,authority.virtue,,,,,,,,,,,,,,0,1,1,1,0,29,29,29,,,,,,,,,,,,,,,,,,,,,1209.5476417578175,,,,,,,,,,,,,,AMP_prac,left,0.883830058039166,6,,,right,0.4822207354591228,,,,,,,,,,,,,,,,,,,,,,,,,1018,2019_May_20_1657,mf_amp_cond1,3.0.7,60.048840897409036,
serial,&&&&&&,images/symbols/symbol_70.png,condition_files/AMP_rep2.csv,right,sanctity.vice,,,,,,,,,,,,,,0,1,1,1,0,30,30,30,,,,,,,,,,,,,,,,,,,,,1210.1811502912897,,,,,,,,,,,,,,AMP_prac,left,0.883830058039166,6,,,right,0.4161101592471823,,,,,,,,,,,,,,,,,,,,,,,,,1018,2019_May_20_1657,mf_amp_cond1,3.0.7,60.048840897409036,
penalty,&&&&&&&,images/symbols/symbol_23.png,condition_files/AMP_rep2.csv,right,authority.vice,,,,,,,,,,,,,,0,1,1,1,0,31,31,31,,,,,,,,,,,,,,,,,,,,,1211.1480889094528,,,,,,,,,,,,,,AMP_prac,left,0.883830058039166,6,,,left,0.7493574320105836,,,,,,,,,,,,,,,,,,,,,,,,,1018,2019_May_20_1657,mf_amp_cond1,3.0.7,60.048840897409036,
respect,&&&&&&&,images/symbols/symbol_49.png,condition_files/AMP_rep2.csv,left,sanctity.virtue,,,,,,,,,,,,,,0,1,1,1,0,32,32,32,,,,,,,,,,,,,,,,,,,,,1212.1149653074099,,,,,,,,,,,,,,AMP_prac,left,0.883830058039166,6,,,left,0.73375427123392,,,,,,,,,,,,,,,,,,,,,,,,,1018,2019_May_20_1657,mf_amp_cond1,3.0.7,60.048840897409036,
voter,&&&&&,images/symbols/symbol_59.png,condition_files/AMP_rep2.csv,right,fairness.vice,,,,,,,,,,,,,,0,1,1,1,0,33,33,33,,,,,,,,,,,,,,,,,,,,,1213.3653163384297,,,,,,,,,,,,,,AMP_prac,left,0.883830058039166,6,,,right,1.0322849121293984,,,,,,,,,,,,,,,,,,,,,,,,,1018,2019_May_20_1657,mf_amp_cond1,3.0.7,60.048840897409036,
fear,&&&&,images/symbols/symbol_33.png,condition_files/AMP_rep2.csv,right,sanctity.vice,,,,,,,,,,,,,,0,1,1,1,0,34,34,34,,,,,,,,,,,,,,,,,,,,,1214.1821573606576,,,,,,,,,,,,,,AMP_prac,left,0.883830058039166,6,,,right,0.5995735028991476,,,,,,,,,,,,,,,,,,,,,,,,,1018,2019_May_20_1657,mf_amp_cond1,3.0.7,60.048840897409036,
blamed,&&&&&&,images/symbols/symbol_10.png,condition_files/AMP_rep2.csv,right,loyalty.vice,,,,,,,,,,,,,,0,1,1,1,0,35,35,35,,,,,,,,,,,,,,,,,,,,,1215.1490918094642,,,,,,,,,,,,,,AMP_prac,left,0.883830058039166,6,,,left,0.7496255562291481,,,,,,,,,,,,,,,,,,,,,,,,,1018,2019_May_20_1657,mf_amp_cond1,3.0.7,60.048840897409036,
scourld,&&&&&&&,images/symbols/symbol_32.png,condition_files/AMP_rep2.csv,None,nonword,,,,,,,,,,,,,,0,1,1,1,0,36,36,36,,,,,,,,,,,,,,,,,,,,,1215.9492812282988,,,,,,,,,,,,,,AMP_prac,left,0.883830058039166,6,,,left,0.5827573688002303,,,,,,,,,,,,,,,,,,,,,,,,,1018,2019_May_20_1657,mf_amp_cond1,3.0.7,60.048840897409036,
peaceful,&&&&&&&&,images/symbols/symbol_74.png,condition_files/AMP_rep2.csv,left,authority.virtue,,,,,,,,,,,,,,0,1,1,1,0,37,37,37,,,,,,,,,,,,,,,,,,,,,1217.182922605134,,,,,,,,,,,,,,AMP_prac,left,0.883830058039166,6,,,left,1.000479159760289,,,,,,,,,,,,,,,,,,,,,,,,,1018,2019_May_20_1657,mf_amp_cond1,3.0.7,60.048840897409036,
hand,&&&&,images/symbols/symbol_12.png,condition_files/AMP_rep2.csv,left,sanctity.virtue,,,,,,,,,,,,,,0,1,1,1,0,38,38,38,,,,,,,,,,,,,,,,,,,,,1218.0998506073374,,,,,,,,,,,,,,AMP_prac,left,0.883830058039166,6,,,right,0.6837571256328374,,,,,,,,,,,,,,,,,,,,,,,,,1018,2019_May_20_1657,mf_amp_cond1,3.0.7,60.048840897409036,
opportunity,&&&&&&&&&&&,images/symbols/symbol_5.png,condition_files/AMP_rep2.csv,left,fairness.virtue,,,,,,,,,,,,,,0,1,1,1,0,39,39,39,,,,,,,,,,,,,,,,,,,,,1219.5668713305495,,,,,,,,,,,,,,AMP_prac,left,0.883830058039166,6,,,right,1.2491191350272857,,,,,,,,,,,,,,,,,,,,,,,,,1018,2019_May_20_1657,mf_amp_cond1,3.0.7,60.048840897409036,
safety,&&&&&&,images/symbols/symbol_82.png,condition_files/AMP_rep2.csv,left,care.virtue,,,,,,,,,,,,,,0,1,1,1,0,40,40,40,,,,,,,,,,,,,,,,,,,,,1220.3337370163645,,,,,,,,,,,,,,AMP_prac,left,0.883830058039166,6,,,left,0.5497193997143768,,,,,,,,,,,,,,,,,,,,,,,,,1018,2019_May_20_1657,mf_amp_cond1,3.0.7,60.048840897409036,
prosecution,&&&&&&&&&&&,images/symbols/symbol_58.png,condition_files/AMP_rep2.csv,right,authority.vice,,,,,,,,,,,,,,0,1,1,1,0,41,41,41,,,,,,,,,,,,,,,,,,,,,1221.2172938185977,,,,,,,,,,,,,,AMP_prac,left,0.883830058039166,6,,,left,0.6503987545147538,,,,,,,,,,,,,,,,,,,,,,,,,1018,2019_May_20_1657,mf_amp_cond1,3.0.7,60.048840897409036,
growth,&&&&&&,images/symbols/symbol_45.png,condition_files/AMP_rep2.csv,left,care.virtue,,,,,,,,,,,,,,0,1,1,1,0,42,42,42,,,,,,,,,,,,,,,,,,,,,1222.534351328679,,,,,,,,,,,,,,AMP_prac,left,0.883830058039166,6,,,left,1.0985410964931361,,,,,,,,,,,,,,,,,,,,,,,,,1018,2019_May_20_1657,mf_amp_cond1,3.0.7,60.048840897409036,
violations,&&&&&&&&&&,images/symbols/symbol_31.png,condition_files/AMP_rep2.csv,right,sanctity.vice,,,,,,,,,,,,,,0,1,1,1,0,43,43,43,,,,,,,,,,,,,,,,,,,,,1223.4512225629878,,,,,,,,,,,,,,AMP_prac,left,0.883830058039166,6,,,right,0.6837648230139166,,,,,,,,,,,,,,,,,,,,,,,,,1018,2019_May_20_1657,mf_amp_cond1,3.0.7,60.048840897409036,
prison,&&&&&&,images/symbols/symbol_53.png,condition_files/AMP_rep2.csv,right,fairness.vice,,,,,,,,,,,,,,0,1,1,1,0,44,44,44,,,,,,,,,,,,,,,,,,,,,1224.5014673065161,,,,,,,,,,,,,,AMP_prac,left,0.883830058039166,6,,,right,0.8322889531846158,,,,,,,,,,,,,,,,,,,,,,,,,1018,2019_May_20_1657,mf_amp_cond1,3.0.7,60.048840897409036,
integrity,&&&&&&&&&,images/symbols/symbol_3.png,condition_files/AMP_rep2.csv,left,fairness.virtue,,,,,,,,,,,,,,0,1,1,1,0,45,45,45,,,,,,,,,,,,,,,,,,,,,1225.3516971684876,,,,,,,,,,,,,,AMP_prac,left,0.883830058039166,6,,,right,0.6327500242041424,,,,,,,,,,,,,,,,,,,,,,,,,1018,2019_May_20_1657,mf_amp_cond1,3.0.7,60.048840897409036,
illegal,&&&&&&&,images/symbols/symbol_44.png,condition_files/AMP_rep2.csv,right,fairness.vice,,,,,,,,,,,,,,0,1,1,1,0,46,46,46,,,,,,,,,,,,,,,,,,,,,1226.468682066945,,,,,,,,,,,,,,AMP_prac,left,0.883830058039166,6,,,right,0.8992398229893297,,,,,,,,,,,,,,,,,,,,,,,,,1018,2019_May_20_1657,mf_amp_cond1,3.0.7,60.048840897409036,
psured,&&&&&&,images/symbols/symbol_81.png,condition_files/AMP_rep2.csv,None,nonword,,,,,,,,,,,,,,0,1,1,1,0,47,47,47,,,,,,,,,,,,,,,,,,,,,1227.335526969924,,,,,,,,,,,,,,AMP_prac,left,0.883830058039166,6,,,left,0.6493249748600647,,,,,,,,,,,,,,,,,,,,,,,,,1018,2019_May_20_1657,mf_amp_cond1,3.0.7,60.048840897409036,
care,&&&&,images/symbols/symbol_72.png,condition_files/AMP_rep2.csv,left,care.virtue,,,,,,,,,,,,,,0,1,1,1,0,48,48,48,,,,,,,,,,,,,,,,,,,,,1228.0524275824428,,,,,,,,,,,,,,AMP_prac,left,0.883830058039166,6,,,right,0.4990894681541249,,,,,,,,,,,,,,,,,,,,,,,,,1018,2019_May_20_1657,mf_amp_cond1,3.0.7,60.048840897409036,
support,&&&&&&&,images/symbols/symbol_22.png,condition_files/AMP_rep2.csv,left,loyalty.virtue,,,,,,,,,,,,,,0,1,1,1,0,49,49,49,,,,,,,,,,,,,,,,,,,,,1228.9025942620356,,,,,,,,,,,,,,AMP_prac,left,0.883830058039166,6,,,right,0.6324594494653866,,,,,,,,,,,,,,,,,,,,,,,,,1018,2019_May_20_1657,mf_amp_cond1,3.0.7,60.048840897409036,
pleasant,&&&&&&&,images/symbols/symbol_61.png,condition_files/AMP_rep2.csv,right,control,,,,,,,,,,,,,,0,1,1,1,0,50,50,50,,,,,,,,,,,,,,,,,,,,,1230.0028829766088,,,,,,,,,,,,,,AMP_prac,left,0.883830058039166,6,,,left,0.8827351105865091,,,,,,,,,,,,,,,,,,,,,,,,,1018,2019_May_20_1657,mf_amp_cond1,3.0.7,60.048840897409036,
beest,&&&&&,images/symbols/symbol_24.png,condition_files/AMP_rep2.csv,None,nonword,,,,,,,,,,,,,,0,1,1,1,0,51,51,51,,,,,,,,,,,,,,,,,,,,,1231.0531421526684,,,,,,,,,,,,,,AMP_prac,left,0.883830058039166,6,,,right,0.8326651609386317,,,,,,,,,,,,,,,,,,,,,,,,,1018,2019_May_20_1657,mf_amp_cond1,3.0.7,60.048840897409036,
values,&&&&&&,images/symbols/symbol_21.png,condition_files/AMP_rep2.csv,left,sanctity.virtue,,,,,,,,,,,,,,0,1,1,1,0,52,52,52,,,,,,,,,,,,,,,,,,,,,1232.4701846528915,,,,,,,,,,,,,,AMP_prac,left,0.883830058039166,6,,,left,1.1997307211859152,,,,,,,,,,,,,,,,,,,,,,,,,1018,2019_May_20_1657,mf_amp_cond1,3.0.7,60.048840897409036,
riot,&&&&,images/symbols/symbol_26.png,condition_files/AMP_rep2.csv,right,authority.vice,,,,,,,,,,,,,,0,1,1,1,0,53,53,53,,,,,,,,,,,,,,,,,,,,,1233.4037588062347,,,,,,,,,,,,,,AMP_prac,left,0.883830058039166,6,,,left,0.7161645538872108,,,,,,,,,,,,,,,,,,,,,,,,,1018,2019_May_20_1657,mf_amp_cond1,3.0.7,60.048840897409036,
gun,&&&,images/symbols/symbol_29.png,condition_files/AMP_rep2.csv,right,authority.vice,,,,,,,,,,,,,,0,1,1,1,0,54,54,54,,,,,,,,,,,,,,,,,,,,,1234.3039800407714,,,,,,,,,,,,,,AMP_prac,left,0.883830058039166,6,,,left,0.6825621127500199,,,,,,,,,,,,,,,,,,,,,,,,,1018,2019_May_20_1657,mf_amp_cond1,3.0.7,60.048840897409036,
sharing,&&&&&&&,images/symbols/symbol_43.png,condition_files/AMP_rep2.csv,left,loyalty.virtue,,,,,,,,,,,,,,0,1,1,1,0,55,55,55,,,,,,,,,,,,,,,,,,,,,1235.4542761640623,,,,,,,,,,,,,,AMP_prac,left,0.883830058039166,6,,,right,0.932565480354242,,,,,,,,,,,,,,,,,,,,,,,,,1018,2019_May_20_1657,mf_amp_cond1,3.0.7,60.048840897409036,
failure,&&&&&&&,images/symbols/symbol_80.png,condition_files/AMP_rep2.csv,right,loyalty.vice,,,,,,,,,,,,,,0,1,1,1,0,56,56,56,,,,,,,,,,,,,,,,,,,,,1236.5879139488097,,,,,,,,,,,,,,AMP_prac,left,0.883830058039166,6,,,left,0.9166322958772071,,,,,,,,,,,,,,,,,,,,,,,,,1018,2019_May_20_1657,mf_amp_cond1,3.0.7,60.048840897409036,
victims,&&&&&&&,images/symbols/symbol_16.png,condition_files/AMP_rep2.csv,right,care.vice,,,,,,,,,,,,,,0,1,1,1,0,57,57,57,,,,,,,,,,,,,,,,,,,,,1237.4214655873948,,,,,,,,,,,,,,AMP_prac,left,0.883830058039166,6,,,right,0.6164646861725487,,,,,,,,,,,,,,,,,,,,,,,,,1018,2019_May_20_1657,mf_amp_cond1,3.0.7,60.048840897409036,
men,&&&,images/symbols/symbol_46.png,condition_files/AMP_rep2.csv,right,loyalty.vice,,,,,,,,,,,,,,0,1,1,1,0,58,58,58,,,,,,,,,,,,,,,,,,,,,1238.1549645633204,,,,,,,,,,,,,,AMP_prac,left,0.883830058039166,6,,,right,0.516112147772219,,,,,,,,,,,,,,,,,,,,,,,,,1018,2019_May_20_1657,mf_amp_cond1,3.0.7,60.048840897409036,
accused,&&&&&&&,images/symbols/symbol_73.png,condition_files/AMP_rep2.csv,right,fairness.vice,,,,,,,,,,,,,,0,1,1,1,0,59,59,59,,,,,,,,,,,,,,,,,,,,,1239.2385782618076,,,,,,,,,,,,,,AMP_prac,left,0.883830058039166,6,,,left,0.8504540472058579,,,,,,,,,,,,,,,,,,,,,,,,,1018,2019_May_20_1657,mf_amp_cond1,3.0.7,60.048840897409036,
scandal,&&&&&&&,images/symbols/symbol_27.png,condition_files/AMP_rep2.csv,right,sanctity.vice,,,,,,,,,,,,,,0,1,1,1,0,60,60,60,,,,,,,,,,,,,,,,,,,,,1239.9721118757734,,,,,,,,,,,,,,AMP_prac,left,0.883830058039166,6,,,right,0.5152927011949942,,,,,,,,,,,,,,,,,,,,,,,,,1018,2019_May_20_1657,mf_amp_cond1,3.0.7,60.048840897409036,
celebrated,&&&&&&&&&&,images/symbols/symbol_38.png,condition_files/AMP_rep2.csv,left,authority.virtue,,,,,,,,,,,,,,0,1,1,1,0,61,61,61,,,,,,,,,,,,,,,,,,,,,1240.6222803514102,,,,,,,,,,,,,,AMP_prac,left,0.883830058039166,6,,,right,0.43270371184917167,,,,,,,,,,,,,,,,,,,,,,,,,1018,2019_May_20_1657,mf_amp_cond1,3.0.7,60.048840897409036,
rheys,&&&&&,images/symbols/symbol_62.png,condition_files/AMP_rep2.csv,None,nonword,,,,,,,,,,,,,,0,1,1,1,0,62,62,62,,,,,,,,,,,,,,,,,,,,,1241.5891820864636,,,,,,,,,,,,,,AMP_prac,left,0.883830058039166,6,,,left,0.7337510639918037,,,,,,,,,,,,,,,,,,,,,,,,,1018,2019_May_20_1657,mf_amp_cond1,3.0.7,60.048840897409036,
unpleasant,&&&&&&&&&,images/symbols/symbol_30.png,condition_files/AMP_rep2.csv,left,control,,,,,,,,,,,,,,0,1,1,1,0,63,63,63,,,,,,,,,,,,,,,,,,,,,1242.2726887277095,,,,,,,,,,,,,,AMP_prac,left,0.883830058039166,6,,,right,0.46552647597854957,,,,,,,,,,,,,,,,,,,,,,,,,1018,2019_May_20_1657,mf_amp_cond1,3.0.7,60.048840897409036,
slavery,&&&&&&&,images/symbols/symbol_77.png,condition_files/AMP_rep2.csv,right,loyalty.vice,,,,,,,,,,,,,,0,1,1,1,0,64,64,64,,,,,,,,,,,,,,,,,,,,,1243.3229732408072,,,,,,,,,,,,,,AMP_prac,left,0.883830058039166,6,,,right,0.8328572738682851,,,,,,,,,,,,,,,,,,,,,,,,,1018,2019_May_20_1657,mf_amp_cond1,3.0.7,60.048840897409036,
credit,&&&&&&,images/symbols/symbol_15.png,condition_files/AMP_rep2.csv,left,fairness.virtue,,,,,,,,,,,,,,0,1,1,1,0,65,65,65,,,,,,,,,,,,,,,,,,,,,1244.8233452792047,,,,,,,,,,,,,,AMP_prac,left,0.883830058039166,6,,,left,1.2826487720012665,,,,,,,,,,,,,,,,,,,,,,,,,1018,2019_May_20_1657,mf_amp_cond1,3.0.7,60.048840897409036,
commitment,&&&&&&&&&&,images/symbols/symbol_66.png,condition_files/AMP_rep2.csv,left,sanctity.virtue,,,,,,,,,,,,,,0,1,1,1,0,66,66,66,,,,,,,,,,,,,,,,,,,,,1245.7902531079599,,,,,,,,,,,,,,AMP_prac,left,0.883830058039166,6,,,left,0.7337513847160153,,,,,,,,,,,,,,,,,,,,,,,,,1018,2019_May_20_1657,mf_amp_cond1,3.0.7,60.048840897409036,
refused,&&&&&&&,images/symbols/symbol_40.png,condition_files/AMP_rep2.csv,right,authority.vice,,,,,,,,,,,,,,0,1,1,1,0,67,67,67,,,,,,,,,,,,,,,,,,,,,1246.6071229952504,,,,,,,,,,,,,,AMP_prac,left,0.883830058039166,6,,,left,0.5986145419883542,,,,,,,,,,,,,,,,,,,,,,,,,1018,2019_May_20_1657,mf_amp_cond1,3.0.7,60.048840897409036,
win,&&&,images/symbols/symbol_37.png,condition_files/AMP_rep2.csv,left,fairness.virtue,,,,,,,,,,,,,,0,1,1,1,0,68,68,68,,,,,,,,,,,,,,,,,,,,,1247.7407614214462,,,,,,,,,,,,,,AMP_prac,left,0.883830058039166,6,,,left,0.9004171960987151,,,,,,,,,,,,,,,,,,,,,,,,,1018,2019_May_20_1657,mf_amp_cond1,3.0.7,60.048840897409036,
racist,&&&&&&,images/symbols/symbol_20.png,condition_files/AMP_rep2.csv,right,sanctity.vice,,,,,,,,,,,,,,0,1,1,1,0,69,69,69,,,,,,,,,,,,,,,,,,,,,1248.5743197951815,,,,,,,,,,,,,,AMP_prac,left,0.883830058039166,6,,,right,0.615987130033318,,,,,,,,,,,,,,,,,,,,,,,,,1018,2019_May_20_1657,mf_amp_cond1,3.0.7,60.048840897409036,
clean,&&&&&,images/symbols/symbol_71.png,condition_files/AMP_rep2.csv,left,sanctity.virtue,,,,,,,,,,,,,,0,1,1,1,0,70,70,70,,,,,,,,,,,,,,,,,,,,,1249.4411954875686,,,,,,,,,,,,,,AMP_prac,left,0.883830058039166,6,,,left,0.6494362656376325,,,,,,,,,,,,,,,,,,,,,,,,,1018,2019_May_20_1657,mf_amp_cond1,3.0.7,60.048840897409036,
benefit,&&&&&&&,images/symbols/symbol_7.png,condition_files/AMP_rep2.csv,left,fairness.virtue,,,,,,,,,,,,,,0,1,1,1,0,71,71,71,,,,,,,,,,,,,,,,,,,,,1250.6081650233828,,,,,,,,,,,,,,AMP_prac,left,0.883830058039166,6,,,right,0.9496308160596527,,,,,,,,,,,,,,,,,,,,,,,,,1018,2019_May_20_1657,mf_amp_cond1,3.0.7,60.048840897409036,
love,&&&&,images/symbols/symbol_25.png,condition_files/AMP_rep2.csv,left,loyalty.virtue,,,,,,,,,,,,,,0,1,1,1,0,72,72,72,,,,,,,,,,,,,,,,,,,,,1251.5250548596377,,,,,,,,,,,,,,AMP_prac,left,0.883830058039166,6,,,right,0.6993359114858322,,,,,,,,,,,,,,,,,,,,,,,,,1018,2019_May_20_1657,mf_amp_cond1,3.0.7,60.048840897409036,
fighters,&&&&&&&&,images/symbols/symbol_34.png,condition_files/AMP_rep2.csv,right,authority.vice,,,,,,,,,,,,,,0,1,1,1,0,73,73,73,,,,,,,,,,,,,,,,,,,,,1252.7920805860776,,,,,,,,,,,,,,AMP_prac,left,0.883830058039166,6,,,right,1.0494442195631564,,,,,,,,,,,,,,,,,,,,,,,,,1018,2019_May_20_1657,mf_amp_cond1,3.0.7,60.048840897409036,
violence,&&&&&&&&,images/symbols/symbol_63.png,condition_files/AMP_rep2.csv,right,care.vice,,,,,,,,,,,,,,0,1,1,1,0,74,74,74,,,,,,,,,,,,,,,,,,,,,1253.6922845015652,,,,,,,,,,,,,,AMP_prac,left,0.883830058039166,6,,,left,0.6824594814679585,,,,,,,,,,,,,,,,,,,,,,,,,1018,2019_May_20_1657,mf_amp_cond1,3.0.7,60.048840897409036,
victim,&&&&&&,images/symbols/symbol_36.png,condition_files/AMP_rep2.csv,right,care.vice,,,,,,,,,,,,,,0,1,1,1,0,75,75,75,,,,,,,,,,,,,,,,,,,,,1254.4256882228656,,,,,,,,,,,,,,AMP_prac,left,0.883830058039166,6,,,right,0.5160133651806973,,,,,,,,,,,,,,,,,,,,,,,,,1018,2019_May_20_1657,mf_amp_cond1,3.0.7,60.048840897409036,
terrorists,&&&&&&&&&&,images/symbols/symbol_64.png,condition_files/AMP_rep2.csv,right,fairness.vice,,,,,,,,,,,,,,0,1,1,1,0,76,76,76,,,,,,,,,,,,,,,,,,,,,1255.3427028202568,,,,,,,,,,,,,,AMP_prac,left,0.883830058039166,6,,,left,0.699398773140274,,,,,,,,,,,,,,,,,,,,,,,,,1018,2019_May_20_1657,mf_amp_cond1,3.0.7,60.048840897409036,
suicide,&&&&&&&,images/symbols/symbol_35.png,condition_files/AMP_rep2.csv,right,care.vice,,,,,,,,,,,,,,0,1,1,1,0,77,77,77,,,,,,,,,,,,,,,,,,,,,1256.6097038510488,,,,,,,,,,,,,,AMP_prac,left,0.883830058039166,6,,,right,1.049508684896864,,,,,,,,,,,,,,,,,,,,,,,,,1018,2019_May_20_1657,mf_amp_cond1,3.0.7,60.048840897409036,
jogns,&&&&&,images/symbols/symbol_50.png,condition_files/AMP_rep2.csv,None,nonword,,,,,,,,,,,,,,0,1,1,1,0,78,78,78,,,,,,,,,,,,,,,,,,,,,1257.5599373051082,,,,,,,,,,,,,,AMP_prac,left,0.883830058039166,6,,,right,0.7328110256930813,,,,,,,,,,,,,,,,,,,,,,,,,1018,2019_May_20_1657,mf_amp_cond1,3.0.7,60.048840897409036,
laudd,&&&&&,images/symbols/symbol_79.png,condition_files/AMP_rep2.csv,None,nonword,,,,,,,,,,,,,,0,1,1,1,0,79,79,79,,,,,,,,,,,,,,,,,,,,,1258.6435596630909,,,,,,,,,,,,,,AMP_prac,left,0.883830058039166,6,,,left,0.8661447652848437,,,,,,,,,,,,,,,,,,,,,,,,,1018,2019_May_20_1657,mf_amp_cond1,3.0.7,60.048840897409036,
rebels,&&&&&&,images/symbols/symbol_68.png,condition_files/AMP_rep2.csv,right,authority.vice,,,,,,,,,,,,,,0,1,1,1,0,80,80,80,,,,,,,,,,,,,,,,,,,,,1259.8438603085815,,,,,,,,,,,,,,AMP_prac,left,0.883830058039166,6,,,left,0.9671400320366956,,,,,,,,,,,,,,,,,,,,,,,,,1018,2019_May_20_1657,mf_amp_cond1,3.0.7,60.048840897409036,
groups,&&&&&&,images/symbols/symbol_13.png,condition_files/AMP_rep2.csv,right,loyalty.vice,,,,,,,,,,,,,,0,1,1,1,0,81,81,81,,,,,,,,,,,,,,,,,,,,,1260.544041324465,,,,,,,,,,,,,,AMP_prac,left,0.883830058039166,6,,,right,0.4818717891466804,,,,,,,,,,,,,,,,,,,,,,,,,1018,2019_May_20_1657,mf_amp_cond1,3.0.7,60.048840897409036,
,,,condition_files/AMP_rep2.csv,,,,,,,,,,,,,,,,0,1,1,1,,,,,,,,,,,,,,,,,,,,,,,,,,,,,,,,,,,,,,,,,,,,,,,right,1.383916973893065,,,,,,,,,,,,,,,,,,,,,,,1018,2019_May_20_1657,mf_amp_cond1,3.0.7,60.048840897409036,
compassion,&&&&&&&&&&,images/symbols/symbol_42.png,condition_files/AMP_rep3.csv,left,care.virtue,,,,,,,,,,,,,,0,2,2,2,0,0,0,0,,,,,,,,,,,,,,,,,,,,,1262.961488897563,,,,,,,,,,,,,,AMP_prac,left,0.883830058039166,6,,,left,0.7827581384917721,,,,,,,,,,,,,,,,,,,,,,,,,1018,2019_May_20_1657,mf_amp_cond1,3.0.7,60.048840897409036,
praise,&&&&&&,images/symbols/symbol_41.png,condition_files/AMP_rep3.csv,left,authority.virtue,,,,,,,,,,,,,,0,2,2,2,0,1,1,1,,,,,,,,,,,,,,,,,,,,,1263.811559681024,,,,,,,,,,,,,,AMP_prac,left,0.883830058039166,6,,,right,0.6333010258385912,,,,,,,,,,,,,,,,,,,,,,,,,1018,2019_May_20_1657,mf_amp_cond1,3.0.7,60.048840897409036,
promised,&&&&&&&&,images/symbols/symbol_54.png,condition_files/AMP_rep3.csv,left,loyalty.virtue,,,,,,,,,,,,,,0,2,2,2,0,2,2,2,,,,,,,,,,,,,,,,,,,,,1264.6450898312032,,,,,,,,,,,,,,AMP_prac,left,0.883830058039166,6,,,left,0.6003576699877158,,,,,,,,,,,,,,,,,,,,,,,,,1018,2019_May_20_1657,mf_amp_cond1,3.0.7,60.048840897409036,
loyalty,&&&&&&&,images/symbols/symbol_1.png,condition_files/AMP_rep3.csv,left,loyalty.virtue,,,,,,,,,,,,,,0,2,2,2,0,3,3,3,,,,,,,,,,,,,,,,,,,,,1265.8453994569718,,,,,,,,,,,,,,AMP_prac,left,0.883830058039166,6,,,right,0.9820228495518677,,,,,,,,,,,,,,,,,,,,,,,,,1018,2019_May_20_1657,mf_amp_cond1,3.0.7,60.048840897409036,
harassment,&&&&&&&&&&,images/symbols/symbol_28.png,condition_files/AMP_rep3.csv,right,sanctity.vice,,,,,,,,,,,,,,0,2,2,2,0,4,4,4,,,,,,,,,,,,,,,,,,,,,1266.595586277952,,,,,,,,,,,,,,AMP_prac,left,0.883830058039166,6,,,left,0.5328198776696809,,,,,,,,,,,,,,,,,,,,,,,,,1018,2019_May_20_1657,mf_amp_cond1,3.0.7,60.048840897409036,
lighnde,&&&&&&&,images/symbols/symbol_47.png,condition_files/AMP_rep3.csv,None,nonword,,,,,,,,,,,,,,0,2,2,2,0,5,5,5,,,,,,,,,,,,,,,,,,,,,1268.5961109803175,,,,,,,,,,,,,,AMP_prac,left,0.883830058039166,6,,,right,1.7830756540060975,,,,,,,,,,,,,,,,,,,,,,,,,1018,2019_May_20_1657,mf_amp_cond1,3.0.7,60.048840897409036,
crime,&&&&&,images/symbols/symbol_78.png,condition_files/AMP_rep3.csv,right,fairness.vice,,,,,,,,,,,,,,0,2,2,2,0,6,6,6,,,,,,,,,,,,,,,,,,,,,1269.3796327596647,,,,,,,,,,,,,,AMP_prac,left,0.883830058039166,6,,,left,0.5659925502841361,,,,,,,,,,,,,,,,,,,,,,,,,1018,2019_May_20_1657,mf_amp_cond1,3.0.7,60.048840897409036,
wepte,&&&&&,images/symbols/symbol_11.png,condition_files/AMP_rep3.csv,None,nonword,,,,,,,,,,,,,,0,2,2,2,0,7,7,7,,,,,,,,,,,,,,,,,,,,,1270.163184366189,,,,,,,,,,,,,,AMP_prac,left,0.883830058039166,6,,,right,0.5659332165378146,,,,,,,,,,,,,,,,,,,,,,,,,1018,2019_May_20_1657,mf_amp_cond1,3.0.7,60.048840897409036,
strength,&&&&&&&&,images/symbols/symbol_18.png,condition_files/AMP_rep3.csv,left,sanctity.virtue,,,,,,,,,,,,,,0,2,2,2,0,8,8,8,,,,,,,,,,,,,,,,,,,,,1270.9633805201738,,,,,,,,,,,,,,AMP_prac,left,0.883830058039166,6,,,right,0.5670464450959116,,,,,,,,,,,,,,,,,,,,,,,,,1018,2019_May_20_1657,mf_amp_cond1,3.0.7,60.048840897409036,
yeussed,&&&&&&&,images/symbols/symbol_51.png,condition_files/AMP_rep3.csv,None,nonword,,,,,,,,,,,,,,0,2,2,2,0,9,9,9,,,,,,,,,,,,,,,,,,,,,1272.0803349500056,,,,,,,,,,,,,,AMP_prac,left,0.883830058039166,6,,,left,0.8838005514699034,,,,,,,,,,,,,,,,,,,,,,,,,1018,2019_May_20_1657,mf_amp_cond1,3.0.7,60.048840897409036,
improve,&&&&&&&,images/symbols/symbol_55.png,condition_files/AMP_rep3.csv,left,care.virtue,,,,,,,,,,,,,,0,2,2,2,0,10,10,10,,,,,,,,,,,,,,,,,,,,,1272.747177479614,,,,,,,,,,,,,,AMP_prac,left,0.883830058039166,6,,,right,0.4487276608706452,,,,,,,,,,,,,,,,,,,,,,,,,1018,2019_May_20_1657,mf_amp_cond1,3.0.7,60.048840897409036,
ban,&&&,images/symbols/symbol_76.png,condition_files/AMP_rep3.csv,right,loyalty.vice,,,,,,,,,,,,,,0,2,2,2,0,11,11,11,,,,,,,,,,,,,,,,,,,,,1273.4807011511875,,,,,,,,,,,,,,AMP_prac,left,0.883830058039166,6,,,right,0.5165242764633149,,,,,,,,,,,,,,,,,,,,,,,,,1018,2019_May_20_1657,mf_amp_cond1,3.0.7,60.048840897409036,
civilians,&&&&&&&&&,images/symbols/symbol_65.png,condition_files/AMP_rep3.csv,right,care.vice,,,,,,,,,,,,,,0,2,2,2,0,12,12,12,,,,,,,,,,,,,,,,,,,,,1274.2975604546373,,,,,,,,,,,,,,AMP_prac,left,0.883830058039166,6,,,left,0.5993352059158497,,,,,,,,,,,,,,,,,,,,,,,,,1018,2019_May_20_1657,mf_amp_cond1,3.0.7,60.048840897409036,
fraud,&&&&&,images/symbols/symbol_69.png,condition_files/AMP_rep3.csv,right,fairness.vice,,,,,,,,,,,,,,0,2,2,2,0,13,13,13,,,,,,,,,,,,,,,,,,,,,1275.0477617081488,,,,,,,,,,,,,,AMP_prac,left,0.883830058039166,6,,,left,0.5326553469058126,,,,,,,,,,,,,,,,,,,,,,,,,1018,2019_May_20_1657,mf_amp_cond1,3.0.7,60.048840897409036,
faith,&&&&&,images/symbols/symbol_19.png,condition_files/AMP_rep3.csv,left,sanctity.virtue,,,,,,,,,,,,,,0,2,2,2,0,14,14,14,,,,,,,,,,,,,,,,,,,,,1275.8313085038099,,,,,,,,,,,,,,AMP_prac,left,0.883830058039166,6,,,right,0.5654935056809336,,,,,,,,,,,,,,,,,,,,,,,,,1018,2019_May_20_1657,mf_amp_cond1,3.0.7,60.048840897409036,
promises,&&&&&&&&,images/symbols/symbol_52.png,condition_files/AMP_rep3.csv,left,fairness.virtue,,,,,,,,,,,,,,0,2,2,2,0,15,15,15,,,,,,,,,,,,,,,,,,,,,1276.6648700848455,,,,,,,,,,,,,,AMP_prac,left,0.883830058039166,6,,,left,0.616573411214631,,,,,,,,,,,,,,,,,,,,,,,,,1018,2019_May_20_1657,mf_amp_cond1,3.0.7,60.048840897409036,
encourage,&&&&&&&&&,images/symbols/symbol_9.png,condition_files/AMP_rep3.csv,left,authority.virtue,,,,,,,,,,,,,,0,2,2,2,0,16,16,16,,,,,,,,,,,,,,,,,,,,,1278.181893726578,,,,,,,,,,,,,,AMP_prac,left,0.883830058039166,6,,,right,1.2995713861309923,,,,,,,,,,,,,,,,,,,,,,,,,1018,2019_May_20_1657,mf_amp_cond1,3.0.7,60.048840897409036,
creinned,&&&&&&&&,images/symbols/symbol_57.png,condition_files/AMP_rep3.csv,None,nonword,,,,,,,,,,,,,,0,2,2,2,0,17,17,17,,,,,,,,,,,,,,,,,,,,,1279.3488821850624,,,,,,,,,,,,,,AMP_prac,left,0.883830058039166,6,,,left,0.9495775760733522,,,,,,,,,,,,,,,,,,,,,,,,,1018,2019_May_20_1657,mf_amp_cond1,3.0.7,60.048840897409036,
attacks,&&&&&&&,images/symbols/symbol_60.png,condition_files/AMP_rep3.csv,right,care.vice,,,,,,,,,,,,,,0,2,2,2,0,18,18,18,,,,,,,,,,,,,,,,,,,,,1280.1490629444015,,,,,,,,,,,,,,AMP_prac,left,0.883830058039166,6,,,right,0.5827509543159977,,,,,,,,,,,,,,,,,,,,,,,,,1018,2019_May_20_1657,mf_amp_cond1,3.0.7,60.048840897409036,
sexual,&&&&&&,images/symbols/symbol_17.png,condition_files/AMP_rep3.csv,right,sanctity.vice,,,,,,,,,,,,,,0,2,2,2,0,19,19,19,,,,,,,,,,,,,,,,,,,,,1281.3827229231247,,,,,,,,,,,,,,AMP_prac,left,0.883830058039166,6,,,right,1.016196497832425,,,,,,,,,,,,,,,,,,,,,,,,,1018,2019_May_20_1657,mf_amp_cond1,3.0.7,60.048840897409036,
free,&&&&,images/symbols/symbol_67.png,condition_files/AMP_rep3.csv,left,fairness.virtue,,,,,,,,,,,,,,0,2,2,2,0,20,20,20,,,,,,,,,,,,,,,,,,,,,1282.1829113798449,,,,,,,,,,,,,,AMP_prac,left,0.883830058039166,6,,,left,0.5826669249217957,,,,,,,,,,,,,,,,,,,,,,,,,1018,2019_May_20_1657,mf_amp_cond1,3.0.7,60.048840897409036,
peace,&&&&&,images/symbols/symbol_6.png,condition_files/AMP_rep3.csv,left,care.virtue,,,,,,,,,,,,,,0,2,2,2,0,21,21,21,,,,,,,,,,,,,,,,,,,,,1282.9164911778644,,,,,,,,,,,,,,AMP_prac,left,0.883830058039166,6,,,right,0.5004355414421298,,,,,,,,,,,,,,,,,,,,,,,,,1018,2019_May_20_1657,mf_amp_cond1,3.0.7,60.048840897409036,
useful,&&&&&&,images/symbols/symbol_39.png,condition_files/AMP_rep3.csv,left,authority.virtue,,,,,,,,,,,,,,0,2,2,2,0,22,22,22,,,,,,,,,,,,,,,,,,,,,1283.5832759774057,,,,,,,,,,,,,,AMP_prac,left,0.883830058039166,6,,,right,0.4484624231699854,,,,,,,,,,,,,,,,,,,,,,,,,1018,2019_May_20_1657,mf_amp_cond1,3.0.7,60.048840897409036,
good,&&&&,images/symbols/symbol_4.png,condition_files/AMP_rep3.csv,left,care.virtue,,,,,,,,,,,,,,0,2,2,2,0,23,23,23,,,,,,,,,,,,,,,,,,,,,1284.6168713626103,,,,,,,,,,,,,,AMP_prac,left,0.883830058039166,6,,,left,0.8160664768656716,,,,,,,,,,,,,,,,,,,,,,,,,1018,2019_May_20_1657,mf_amp_cond1,3.0.7,60.048840897409036,
actively,&&&&&&&&,images/symbols/symbol_2.png,condition_files/AMP_rep3.csv,left,authority.virtue,,,,,,,,,,,,,,0,2,2,2,0,24,24,24,,,,,,,,,,,,,,,,,,,,,1285.5337688961881,,,,,,,,,,,,,,AMP_prac,left,0.883830058039166,6,,,right,0.699491782754194,,,,,,,,,,,,,,,,,,,,,,,,,1018,2019_May_20_1657,mf_amp_cond1,3.0.7,60.048840897409036,
party,&&&&&,images/symbols/symbol_8.png,condition_files/AMP_rep3.csv,left,loyalty.virtue,,,,,,,,,,,,,,0,2,2,2,0,25,25,25,,,,,,,,,,,,,,,,,,,,,1287.0175005564815,,,,,,,,,,,,,,AMP_prac,left,0.883830058039166,6,,,right,1.2663496429449879,,,,,,,,,,,,,,,,,,,,,,,,,1018,2019_May_20_1657,mf_amp_cond1,3.0.7,60.048840897409036,
black,&&&&&,images/symbols/symbol_48.png,condition_files/AMP_rep3.csv,right,loyalty.vice,,,,,,,,,,,,,,0,2,2,2,0,26,26,26,,,,,,,,,,,,,,,,,,,,,1288.4178555323742,,,,,,,,,,,,,,AMP_prac,left,0.883830058039166,6,,,left,1.1823979027103633,,,,,,,,,,,,,,,,,,,,,,,,,1018,2019_May_20_1657,mf_amp_cond1,3.0.7,60.048840897409036,
great,&&&&&,images/symbols/symbol_56.png,condition_files/AMP_rep3.csv,left,loyalty.virtue,,,,,,,,,,,,,,0,2,2,2,0,27,27,27,,,,,,,,,,,,,,,,,,,,,1289.0846855537966,,,,,,,,,,,,,,AMP_prac,left,0.883830058039166,6,,,right,0.4336790296365507,,,,,,,,,,,,,,,,,,,,,,,,,1018,2019_May_20_1657,mf_amp_cond1,3.0.7,60.048840897409036,
shot,&&&&,images/symbols/symbol_75.png,condition_files/AMP_rep3.csv,right,care.vice,,,,,,,,,,,,,,0,2,2,2,0,28,28,28,,,,,,,,,,,,,,,,,,,,,1289.9182317401282,,,,,,,,,,,,,,AMP_prac,left,0.883830058039166,6,,,left,0.6003830070840195,,,,,,,,,,,,,,,,,,,,,,,,,1018,2019_May_20_1657,mf_amp_cond1,3.0.7,60.048840897409036,
powerful,&&&&&&&&,images/symbols/symbol_14.png,condition_files/AMP_rep3.csv,left,authority.virtue,,,,,,,,,,,,,,0,2,2,2,0,29,29,29,,,,,,,,,,,,,,,,,,,,,1290.635115354322,,,,,,,,,,,,,,AMP_prac,left,0.883830058039166,6,,,right,0.49890729767503217,,,,,,,,,,,,,,,,,,,,,,,,,1018,2019_May_20_1657,mf_amp_cond1,3.0.7,60.048840897409036,
serial,&&&&&&,images/symbols/symbol_70.png,condition_files/AMP_rep3.csv,right,sanctity.vice,,,,,,,,,,,,,,0,2,2,2,0,30,30,30,,,,,,,,,,,,,,,,,,,,,1291.251913271437,,,,,,,,,,,,,,AMP_prac,left,0.883830058039166,6,,,right,0.39941654121503234,,,,,,,,,,,,,,,,,,,,,,,,,1018,2019_May_20_1657,mf_amp_cond1,3.0.7,60.048840897409036,
penalty,&&&&&&&,images/symbols/symbol_23.png,condition_files/AMP_rep3.csv,right,authority.vice,,,,,,,,,,,,,,0,2,2,2,0,31,31,31,,,,,,,,,,,,,,,,,,,,,1292.1688268411672,,,,,,,,,,,,,,AMP_prac,left,0.883830058039166,6,,,left,0.6993147438042797,,,,,,,,,,,,,,,,,,,,,,,,,1018,2019_May_20_1657,mf_amp_cond1,3.0.7,60.048840897409036,
respect,&&&&&&&,images/symbols/symbol_49.png,condition_files/AMP_rep3.csv,left,sanctity.virtue,,,,,,,,,,,,,,0,2,2,2,0,32,32,32,,,,,,,,,,,,,,,,,,,,,1293.8359002911602,,,,,,,,,,,,,,AMP_prac,left,0.883830058039166,6,,,right,1.4339269483461976,,,,,,,,,,,,,,,,,,,,,,,,,1018,2019_May_20_1657,mf_amp_cond1,3.0.7,60.048840897409036,
voter,&&&&&,images/symbols/symbol_59.png,condition_files/AMP_rep3.csv,right,fairness.vice,,,,,,,,,,,,,,0,2,2,2,0,33,33,33,,,,,,,,,,,,,,,,,,,,,1294.4694078624598,,,,,,,,,,,,,,AMP_prac,left,0.883830058039166,6,,,right,0.41544113168492913,,,,,,,,,,,,,,,,,,,,,,,,,1018,2019_May_20_1657,mf_amp_cond1,3.0.7,60.048840897409036,
fear,&&&&,images/symbols/symbol_33.png,condition_files/AMP_rep3.csv,right,sanctity.vice,,,,,,,,,,,,,,0,2,2,2,0,34,34,34,,,,,,,,,,,,,,,,,,,,,1295.2362578328466,,,,,,,,,,,,,,AMP_prac,left,0.883830058039166,6,,,right,0.5495134957018308,,,,,,,,,,,,,,,,,,,,,,,,,1018,2019_May_20_1657,mf_amp_cond1,3.0.7,60.048840897409036,
blamed,&&&&&&,images/symbols/symbol_10.png,condition_files/AMP_rep3.csv,right,loyalty.vice,,,,,,,,,,,,,,0,2,2,2,0,35,35,35,,,,,,,,,,,,,,,,,,,,,1296.0197950068396,,,,,,,,,,,,,,AMP_prac,left,0.883830058039166,6,,,left,0.5662039064918645,,,,,,,,,,,,,,,,,,,,,,,,,1018,2019_May_20_1657,mf_amp_cond1,3.0.7,60.048840897409036,
scourld,&&&&&&&,images/symbols/symbol_32.png,condition_files/AMP_rep3.csv,None,nonword,,,,,,,,,,,,,,0,2,2,2,0,36,36,36,,,,,,,,,,,,,,,,,,,,,1296.7866805774975,,,,,,,,,,,,,,AMP_prac,left,0.883830058039166,6,,,left,0.5494034878211096,,,,,,,,,,,,,,,,,,,,,,,,,1018,2019_May_20_1657,mf_amp_cond1,3.0.7,60.048840897409036,
peaceful,&&&&&&&&,images/symbols/symbol_74.png,condition_files/AMP_rep3.csv,left,authority.virtue,,,,,,,,,,,,,,0,2,2,2,0,37,37,37,,,,,,,,,,,,,,,,,,,,,1297.7535973864724,,,,,,,,,,,,,,AMP_prac,left,0.883830058039166,6,,,left,0.7337677415343933,,,,,,,,,,,,,,,,,,,,,,,,,1018,2019_May_20_1657,mf_amp_cond1,3.0.7,60.048840897409036,
hand,&&&&,images/symbols/symbol_12.png,condition_files/AMP_rep3.csv,left,sanctity.virtue,,,,,,,,,,,,,,0,2,2,2,0,38,38,38,,,,,,,,,,,,,,,,,,,,,1298.4704688132624,,,,,,,,,,,,,,AMP_prac,left,0.883830058039166,6,,,right,0.49875944445375353,,,,,,,,,,,,,,,,,,,,,,,,,1018,2019_May_20_1657,mf_amp_cond1,3.0.7,60.048840897409036,
opportunity,&&&&&&&&&&&,images/symbols/symbol_5.png,condition_files/AMP_rep3.csv,left,fairness.virtue,,,,,,,,,,,,,,0,2,2,2,0,39,39,39,,,,,,,,,,,,,,,,,,,,,1299.3206451145234,,,,,,,,,,,,,,AMP_prac,left,0.883830058039166,6,,,right,0.6328103200648911,,,,,,,,,,,,,,,,,,,,,,,,,1018,2019_May_20_1657,mf_amp_cond1,3.0.7,60.048840897409036,
safety,&&&&&&,images/symbols/symbol_82.png,condition_files/AMP_rep3.csv,left,care.virtue,,,,,,,,,,,,,,0,2,2,2,0,40,40,40,,,,,,,,,,,,,,,,,,,,,1300.1208415892906,,,,,,,,,,,,,,AMP_prac,left,0.883830058039166,6,,,left,0.5830742428079247,,,,,,,,,,,,,,,,,,,,,,,,,1018,2019_May_20_1657,mf_amp_cond1,3.0.7,60.048840897409036,
prosecution,&&&&&&&&&&&,images/symbols/symbol_58.png,condition_files/AMP_rep3.csv,right,authority.vice,,,,,,,,,,,,,,0,2,2,2,0,41,41,41,,,,,,,,,,,,,,,,,,,,,1300.8377001871122,,,,,,,,,,,,,,AMP_prac,left,0.883830058039166,6,,,right,0.4836893248721026,,,,,,,,,,,,,,,,,,,,,,,,,1018,2019_May_20_1657,mf_amp_cond1,3.0.7,60.048840897409036,
growth,&&&&&&,images/symbols/symbol_45.png,condition_files/AMP_rep3.csv,left,care.virtue,,,,,,,,,,,,,,0,2,2,2,0,42,42,42,,,,,,,,,,,,,,,,,,,,,1302.571480757615,,,,,,,,,,,,,,AMP_prac,left,0.883830058039166,6,,,right,1.515734336397145,,,,,,,,,,,,,,,,,,,,,,,,,1018,2019_May_20_1657,mf_amp_cond1,3.0.7,60.048840897409036,
violations,&&&&&&&&&&,images/symbols/symbol_31.png,condition_files/AMP_rep3.csv,right,sanctity.vice,,,,,,,,,,,,,,0,2,2,2,0,43,43,43,,,,,,,,,,,,,,,,,,,,,1303.4549240240012,,,,,,,,,,,,,,AMP_prac,left,0.883830058039166,6,,,right,0.650281049311161,,,,,,,,,,,,,,,,,,,,,,,,,1018,2019_May_20_1657,mf_amp_cond1,3.0.7,60.048840897409036,
prison,&&&&&&,images/symbols/symbol_53.png,condition_files/AMP_rep3.csv,right,fairness.vice,,,,,,,,,,,,,,0,2,2,2,0,44,44,44,,,,,,,,,,,,,,,,,,,,,1304.4052851257147,,,,,,,,,,,,,,AMP_prac,left,0.883830058039166,6,,,left,0.732345657015685,,,,,,,,,,,,,,,,,,,,,,,,,1018,2019_May_20_1657,mf_amp_cond1,3.0.7,60.048840897409036,
integrity,&&&&&&&&&,images/symbols/symbol_3.png,condition_files/AMP_rep3.csv,left,fairness.virtue,,,,,,,,,,,,,,0,2,2,2,0,45,45,45,,,,,,,,,,,,,,,,,,,,,1305.5555674579227,,,,,,,,,,,,,,AMP_prac,left,0.883830058039166,6,,,right,0.9328262279159389,,,,,,,,,,,,,,,,,,,,,,,,,1018,2019_May_20_1657,mf_amp_cond1,3.0.7,60.048840897409036,
illegal,&&&&&&&,images/symbols/symbol_44.png,condition_files/AMP_rep3.csv,right,fairness.vice,,,,,,,,,,,,,,0,2,2,2,0,46,46,46,,,,,,,,,,,,,,,,,,,,,1307.1393113697995,,,,,,,,,,,,,,AMP_prac,left,0.883830058039166,6,,,right,1.3660889595048502,,,,,,,,,,,,,,,,,,,,,,,,,1018,2019_May_20_1657,mf_amp_cond1,3.0.7,60.048840897409036,
psured,&&&&&&,images/symbols/symbol_81.png,condition_files/AMP_rep3.csv,None,nonword,,,,,,,,,,,,,,0,2,2,2,0,47,47,47,,,,,,,,,,,,,,,,,,,,,1308.5396679493715,,,,,,,,,,,,,,AMP_prac,left,0.883830058039166,6,,,left,1.1828392171883024,,,,,,,,,,,,,,,,,,,,,,,,,1018,2019_May_20_1657,mf_amp_cond1,3.0.7,60.048840897409036,
care,&&&&,images/symbols/symbol_72.png,condition_files/AMP_rep3.csv,left,care.virtue,,,,,,,,,,,,,,0,2,2,2,0,48,48,48,,,,,,,,,,,,,,,,,,,,,1309.7066426167148,,,,,,,,,,,,,,AMP_prac,left,0.883830058039166,6,,,left,0.933811167429667,,,,,,,,,,,,,,,,,,,,,,,,,1018,2019_May_20_1657,mf_amp_cond1,3.0.7,60.048840897409036,
support,&&&&&&&,images/symbols/symbol_22.png,condition_files/AMP_rep3.csv,left,loyalty.virtue,,,,,,,,,,,,,,0,2,2,2,0,49,49,49,,,,,,,,,,,,,,,,,,,,,1310.423530079599,,,,,,,,,,,,,,AMP_prac,left,0.883830058039166,6,,,right,0.49894450150895864,,,,,,,,,,,,,,,,,,,,,,,,,1018,2019_May_20_1657,mf_amp_cond1,3.0.7,60.048840897409036,
pleasant,&&&&&&&,images/symbols/symbol_61.png,condition_files/AMP_rep3.csv,right,control,,,,,,,,,,,,,,0,2,2,2,0,50,50,50,,,,,,,,,,,,,,,,,,,,,1312.0739111944567,,,,,,,,,,,,,,AMP_prac,left,0.883830058039166,6,,,left,1.4328281522612087,,,,,,,,,,,,,,,,,,,,,,,,,1018,2019_May_20_1657,mf_amp_cond1,3.0.7,60.048840897409036,
beest,&&&&&,images/symbols/symbol_24.png,condition_files/AMP_rep3.csv,None,nonword,,,,,,,,,,,,,,0,2,2,2,0,51,51,51,,,,,,,,,,,,,,,,,,,,,1312.840803820989,,,,,,,,,,,,,,AMP_prac,left,0.883830058039166,6,,,right,0.5491921314969659,,,,,,,,,,,,,,,,,,,,,,,,,1018,2019_May_20_1657,mf_amp_cond1,3.0.7,60.048840897409036,
values,&&&&&&,images/symbols/symbol_21.png,condition_files/AMP_rep3.csv,left,sanctity.virtue,,,,,,,,,,,,,,0,2,2,2,0,52,52,52,,,,,,,,,,,,,,,,,,,,,1313.4742802821565,,,,,,,,,,,,,,AMP_prac,left,0.883830058039166,6,,,right,0.41620541393058375,,,,,,,,,,,,,,,,,,,,,,,,,1018,2019_May_20_1657,mf_amp_cond1,3.0.7,60.048840897409036,
riot,&&&&,images/symbols/symbol_26.png,condition_files/AMP_rep3.csv,right,authority.vice,,,,,,,,,,,,,,0,2,2,2,0,53,53,53,,,,,,,,,,,,,,,,,,,,,1314.2911613947363,,,,,,,,,,,,,,AMP_prac,left,0.883830058039166,6,,,left,0.5993659953237511,,,,,,,,,,,,,,,,,,,,,,,,,1018,2019_May_20_1657,mf_amp_cond1,3.0.7,60.048840897409036,
gun,&&&,images/symbols/symbol_29.png,condition_files/AMP_rep3.csv,right,authority.vice,,,,,,,,,,,,,,0,2,2,2,0,54,54,54,,,,,,,,,,,,,,,,,,,,,1315.2080589283141,,,,,,,,,,,,,,AMP_prac,left,0.883830058039166,6,,,right,0.69930544286035,,,,,,,,,,,,,,,,,,,,,,,,,1018,2019_May_20_1657,mf_amp_cond1,3.0.7,60.048840897409036,
sharing,&&&&&&&,images/symbols/symbol_43.png,condition_files/AMP_rep3.csv,left,loyalty.virtue,,,,,,,,,,,,,,0,2,2,2,0,55,55,55,,,,,,,,,,,,,,,,,,,,,1315.8915915480466,,,,,,,,,,,,,,AMP_prac,left,0.883830058039166,6,,,right,0.46611403999850154,,,,,,,,,,,,,,,,,,,,,,,,,1018,2019_May_20_1657,mf_amp_cond1,3.0.7,60.048840897409036,
failure,&&&&&&&,images/symbols/symbol_80.png,condition_files/AMP_rep3.csv,right,loyalty.vice,,,,,,,,,,,,,,0,2,2,2,0,56,56,56,,,,,,,,,,,,,,,,,,,,,1316.7084386640345,,,,,,,,,,,,,,AMP_prac,left,0.883830058039166,6,,,left,0.5996905667125247,,,,,,,,,,,,,,,,,,,,,,,,,1018,2019_May_20_1657,mf_amp_cond1,3.0.7,60.048840897409036,
victims,&&&&&&&,images/symbols/symbol_16.png,condition_files/AMP_rep3.csv,right,care.vice,,,,,,,,,,,,,,0,2,2,2,0,57,57,57,,,,,,,,,,,,,,,,,,,,,1317.3085798461689,,,,,,,,,,,,,,AMP_prac,left,0.883830058039166,6,,,right,0.38246185483876616,,,,,,,,,,,,,,,,,,,,,,,,,1018,2019_May_20_1657,mf_amp_cond1,3.0.7,60.048840897409036,
men,&&&,images/symbols/symbol_46.png,condition_files/AMP_rep3.csv,right,loyalty.vice,,,,,,,,,,,,,,0,2,2,2,0,58,58,58,,,,,,,,,,,,,,,,,,,,,1317.942100567103,,,,,,,,,,,,,,AMP_prac,left,0.883830058039166,6,,,right,0.41607776627643034,,,,,,,,,,,,,,,,,,,,,,,,,1018,2019_May_20_1657,mf_amp_cond1,3.0.7,60.048840897409036,
accused,&&&&&&&,images/symbols/symbol_73.png,condition_files/AMP_rep3.csv,right,fairness.vice,,,,,,,,,,,,,,0,2,2,2,0,59,59,59,,,,,,,,,,,,,,,,,,,,,1319.1423999296967,,,,,,,,,,,,,,AMP_prac,left,0.883830058039166,6,,,right,0.9671608790522441,,,,,,,,,,,,,,,,,,,,,,,,,1018,2019_May_20_1657,mf_amp_cond1,3.0.7,60.048840897409036,
scandal,&&&&&&&,images/symbols/symbol_27.png,condition_files/AMP_rep3.csv,right,sanctity.vice,,,,,,,,,,,,,,0,2,2,2,0,60,60,60,,,,,,,,,,,,,,,,,,,,,1319.825901118631,,,,,,,,,,,,,,AMP_prac,left,0.883830058039166,6,,,right,0.46528561325976625,,,,,,,,,,,,,,,,,,,,,,,,,1018,2019_May_20_1657,mf_amp_cond1,3.0.7,60.048840897409036,
celebrated,&&&&&&&&&&,images/symbols/symbol_38.png,condition_files/AMP_rep3.csv,left,authority.virtue,,,,,,,,,,,,,,0,2,2,2,0,61,61,61,,,,,,,,,,,,,,,,,,,,,1320.4593965024687,,,,,,,,,,,,,,AMP_prac,left,0.883830058039166,6,,,right,0.41602933715330437,,,,,,,,,,,,,,,,,,,,,,,,,1018,2019_May_20_1657,mf_amp_cond1,3.0.7,60.048840897409036,
rheys,&&&&&,images/symbols/symbol_62.png,condition_files/AMP_rep3.csv,None,nonword,,,,,,,,,,,,,,0,2,2,2,0,62,62,62,,,,,,,,,,,,,,,,,,,,,1321.4763393221074,,,,,,,,,,,,,,AMP_prac,left,0.883830058039166,6,,,right,0.7837815647362731,,,,,,,,,,,,,,,,,,,,,,,,,1018,2019_May_20_1657,mf_amp_cond1,3.0.7,60.048840897409036,
unpleasant,&&&&&&&&&,images/symbols/symbol_30.png,condition_files/AMP_rep3.csv,left,control,,,,,,,,,,,,,,0,2,2,2,0,63,63,63,,,,,,,,,,,,,,,,,,,,,1322.1265081184683,,,,,,,,,,,,,,AMP_prac,left,0.883830058039166,6,,,right,0.4323242968530394,,,,,,,,,,,,,,,,,,,,,,,,,1018,2019_May_20_1657,mf_amp_cond1,3.0.7,60.048840897409036,
slavery,&&&&&&&,images/symbols/symbol_77.png,condition_files/AMP_rep3.csv,right,loyalty.vice,,,,,,,,,,,,,,0,2,2,2,0,64,64,64,,,,,,,,,,,,,,,,,,,,,1323.0267203727853,,,,,,,,,,,,,,AMP_prac,left,0.883830058039166,6,,,right,0.6827744311885908,,,,,,,,,,,,,,,,,,,,,,,,,1018,2019_May_20_1657,mf_amp_cond1,3.0.7,60.048840897409036,
credit,&&&&&&,images/symbols/symbol_15.png,condition_files/AMP_rep3.csv,left,fairness.virtue,,,,,,,,,,,,,,0,2,2,2,0,65,65,65,,,,,,,,,,,,,,,,,,,,,1323.7935812477372,,,,,,,,,,,,,,AMP_prac,left,0.883830058039166,6,,,left,0.5493989976821467,,,,,,,,,,,,,,,,,,,,,,,,,1018,2019_May_20_1657,mf_amp_cond1,3.0.7,60.048840897409036,
commitment,&&&&&&&&&&,images/symbols/symbol_66.png,condition_files/AMP_rep3.csv,left,sanctity.virtue,,,,,,,,,,,,,,0,2,2,2,0,66,66,66,,,,,,,,,,,,,,,,,,,,,1324.4104105956503,,,,,,,,,,,,,,AMP_prac,left,0.883830058039166,6,,,right,0.3836655272752978,,,,,,,,,,,,,,,,,,,,,,,,,1018,2019_May_20_1657,mf_amp_cond1,3.0.7,60.048840897409036,
refused,&&&&&&&,images/symbols/symbol_40.png,condition_files/AMP_rep3.csv,right,authority.vice,,,,,,,,,,,,,,0,2,2,2,0,67,67,67,,,,,,,,,,,,,,,,,,,,,1325.2439542161883,,,,,,,,,,,,,,AMP_prac,left,0.883830058039166,6,,,left,0.6154338833293878,,,,,,,,,,,,,,,,,,,,,,,,,1018,2019_May_20_1657,mf_amp_cond1,3.0.7,60.048840897409036,
win,&&&,images/symbols/symbol_37.png,condition_files/AMP_rep3.csv,left,fairness.virtue,,,,,,,,,,,,,,0,2,2,2,0,68,68,68,,,,,,,,,,,,,,,,,,,,,1325.9941458480316,,,,,,,,,,,,,,AMP_prac,left,0.883830058039166,6,,,left,0.517036470642779,,,,,,,,,,,,,,,,,,,,,,,,,1018,2019_May_20_1657,mf_amp_cond1,3.0.7,60.048840897409036,
racist,&&&&&&,images/symbols/symbol_20.png,condition_files/AMP_rep3.csv,right,sanctity.vice,,,,,,,,,,,,,,0,2,2,2,0,69,69,69,,,,,,,,,,,,,,,,,,,,,1326.6109719887027,,,,,,,,,,,,,,AMP_prac,left,0.883830058039166,6,,,right,0.3993857518071309,,,,,,,,,,,,,,,,,,,,,,,,,1018,2019_May_20_1657,mf_amp_cond1,3.0.7,60.048840897409036,
clean,&&&&&,images/symbols/symbol_71.png,condition_files/AMP_rep3.csv,left,sanctity.virtue,,,,,,,,,,,,,,0,2,2,2,0,70,70,70,,,,,,,,,,,,,,,,,,,,,1327.5112092593918,,,,,,,,,,,,,,AMP_prac,left,0.883830058039166,6,,,left,0.6827786006033421,,,,,,,,,,,,,,,,,,,,,,,,,1018,2019_May_20_1657,mf_amp_cond1,3.0.7,60.048840897409036,
benefit,&&&&&&&,images/symbols/symbol_7.png,condition_files/AMP_rep3.csv,left,fairness.virtue,,,,,,,,,,,,,,0,2,2,2,0,71,71,71,,,,,,,,,,,,,,,,,,,,,1328.1113549316651,,,,,,,,,,,,,,AMP_prac,left,0.883830058039166,6,,,right,0.38277776673203334,,,,,,,,,,,,,,,,,,,,,,,,,1018,2019_May_20_1657,mf_amp_cond1,3.0.7,60.048840897409036,
love,&&&&,images/symbols/symbol_25.png,condition_files/AMP_rep3.csv,left,loyalty.virtue,,,,,,,,,,,,,,0,2,2,2,0,72,72,72,,,,,,,,,,,,,,,,,,,,,1328.778191688296,,,,,,,,,,,,,,AMP_prac,left,0.883830058039166,6,,,right,0.4493110555340536,,,,,,,,,,,,,,,,,,,,,,,,,1018,2019_May_20_1657,mf_amp_cond1,3.0.7,60.048840897409036,
fighters,&&&&&&&&,images/symbols/symbol_34.png,condition_files/AMP_rep3.csv,right,authority.vice,,,,,,,,,,,,,,0,2,2,2,0,73,73,73,,,,,,,,,,,,,,,,,,,,,1330.795385313104,,,,,,,,,,,,,,AMP_prac,left,0.883830058039166,6,,,right,1.7995896673528478,,,,,,,,,,,,,,,,,,,,,,,,,1018,2019_May_20_1657,mf_amp_cond1,3.0.7,60.048840897409036,
violence,&&&&&&&&,images/symbols/symbol_63.png,condition_files/AMP_rep3.csv,right,care.vice,,,,,,,,,,,,,,0,2,2,2,0,74,74,74,,,,,,,,,,,,,,,,,,,,,1331.562238811457,,,,,,,,,,,,,,AMP_prac,left,0.883830058039166,6,,,left,0.5492626904742792,,,,,,,,,,,,,,,,,,,,,,,,,1018,2019_May_20_1657,mf_amp_cond1,3.0.7,60.048840897409036,
victim,&&&&&&,images/symbols/symbol_36.png,condition_files/AMP_rep3.csv,right,care.vice,,,,,,,,,,,,,,0,2,2,2,0,75,75,75,,,,,,,,,,,,,,,,,,,,,1332.2624448437127,,,,,,,,,,,,,,AMP_prac,left,0.883830058039166,6,,,right,0.4828108653309755,,,,,,,,,,,,,,,,,,,,,,,,,1018,2019_May_20_1657,mf_amp_cond1,3.0.7,60.048840897409036,
terrorists,&&&&&&&&&&,images/symbols/symbol_64.png,condition_files/AMP_rep3.csv,right,fairness.vice,,,,,,,,,,,,,,0,2,2,2,0,76,76,76,,,,,,,,,,,,,,,,,,,,,1332.9626152757555,,,,,,,,,,,,,,AMP_prac,left,0.883830058039166,6,,,right,0.4826046405942179,,,,,,,,,,,,,,,,,,,,,,,,,1018,2019_May_20_1657,mf_amp_cond1,3.0.7,60.048840897409036,
suicide,&&&&&&&,images/symbols/symbol_35.png,condition_files/AMP_rep3.csv,right,care.vice,,,,,,,,,,,,,,0,2,2,2,0,77,77,77,,,,,,,,,,,,,,,,,,,,,1333.7794781071716,,,,,,,,,,,,,,AMP_prac,left,0.883830058039166,6,,,right,0.599392936041113,,,,,,,,,,,,,,,,,,,,,,,,,1018,2019_May_20_1657,mf_amp_cond1,3.0.7,60.048840897409036,
jogns,&&&&&,images/symbols/symbol_50.png,condition_files/AMP_rep3.csv,None,nonword,,,,,,,,,,,,,,0,2,2,2,0,78,78,78,,,,,,,,,,,,,,,,,,,,,1334.479654312192,,,,,,,,,,,,,,AMP_prac,left,0.883830058039166,6,,,right,0.4827855282346718,,,,,,,,,,,,,,,,,,,,,,,,,1018,2019_May_20_1657,mf_amp_cond1,3.0.7,60.048840897409036,
laudd,&&&&&,images/symbols/symbol_79.png,condition_files/AMP_rep3.csv,None,nonword,,,,,,,,,,,,,,0,2,2,2,0,79,79,79,,,,,,,,,,,,,,,,,,,,,1335.2298385674367,,,,,,,,,,,,,,AMP_prac,left,0.883830058039166,6,,,right,0.5326633649528958,,,,,,,,,,,,,,,,,,,,,,,,,1018,2019_May_20_1657,mf_amp_cond1,3.0.7,60.048840897409036,
rebels,&&&&&&,images/symbols/symbol_68.png,condition_files/AMP_rep3.csv,right,authority.vice,,,,,,,,,,,,,,0,2,2,2,0,80,80,80,,,,,,,,,,,,,,,,,,,,,1335.9967084226082,,,,,,,,,,,,,,AMP_prac,left,0.883830058039166,6,,,left,0.5336967335315421,,,,,,,,,,,,,,,,,,,,,,,,,1018,2019_May_20_1657,mf_amp_cond1,3.0.7,60.048840897409036,
groups,&&&&&&,images/symbols/symbol_13.png,condition_files/AMP_rep3.csv,right,loyalty.vice,,,,,,,,,,,,,,0,2,2,2,0,81,81,81,,,,,,,,,,,,,,,,,,,,,1336.6802285342128,,,,,,,,,,,,,,AMP_prac,left,0.883830058039166,6,,,right,0.4652512958855368,,,,,,,,,,,,,,,,,,,,,,,,,1018,2019_May_20_1657,mf_amp_cond1,3.0.7,60.048840897409036,
,,,condition_files/AMP_rep3.csv,,,,,,,,,,,,,,,,0,2,2,2,,,,,,,,,,,,,,,,,,,,,,,,,,,,,,,,,,,,,,,,,,,,,,,right,2.7675966129172593,,,,,,,,,,,,,,,,,,,,,,,1018,2019_May_20_1657,mf_amp_cond1,3.0.7,60.048840897409036,
compassion,&&&&&&&&&&,images/symbols/symbol_42.png,condition_files/AMP_rep1.csv,left,care.virtue,,,,,,,,,,,,,,0,3,3,0,0,0,0,0,,,,,,,,,,,,,,,,,,,,,1340.414639324823,,,,,,,,,,,,,,AMP_prac,left,0.883830058039166,6,,,left,0.7160574324661866,,,,,,,,,,,,,,,,,,,,,,,,,1018,2019_May_20_1657,mf_amp_cond1,3.0.7,60.048840897409036,
praise,&&&&&&,images/symbols/symbol_41.png,condition_files/AMP_rep1.csv,left,authority.virtue,,,,,,,,,,,,,,0,3,3,0,0,1,1,1,,,,,,,,,,,,,,,,,,,,,1341.0813436229946,,,,,,,,,,,,,,AMP_prac,left,0.883830058039166,6,,,right,0.44981972174718976,,,,,,,,,,,,,,,,,,,,,,,,,1018,2019_May_20_1657,mf_amp_cond1,3.0.7,60.048840897409036,
promised,&&&&&&&&,images/symbols/symbol_54.png,condition_files/AMP_rep1.csv,left,loyalty.virtue,,,,,,,,,,,,,,0,3,3,0,0,2,2,2,,,,,,,,,,,,,,,,,,,,,1341.9648994630552,,,,,,,,,,,,,,AMP_prac,left,0.883830058039166,6,,,left,0.6503958680550568,,,,,,,,,,,,,,,,,,,,,,,,,1018,2019_May_20_1657,mf_amp_cond1,3.0.7,60.048840897409036,
loyalty,&&&&&&&,images/symbols/symbol_1.png,condition_files/AMP_rep1.csv,left,loyalty.virtue,,,,,,,,,,,,,,0,3,3,0,0,3,3,3,,,,,,,,,,,,,,,,,,,,,1342.5317137049278,,,,,,,,,,,,,,AMP_prac,left,0.883830058039166,6,,,right,0.34862656908808276,,,,,,,,,,,,,,,,,,,,,,,,,1018,2019_May_20_1657,mf_amp_cond1,3.0.7,60.048840897409036,
harassment,&&&&&&&&&&,images/symbols/symbol_28.png,condition_files/AMP_rep1.csv,right,sanctity.vice,,,,,,,,,,,,,,0,3,3,0,0,4,4,4,,,,,,,,,,,,,,,,,,,,,1343.5653491804842,,,,,,,,,,,,,,AMP_prac,left,0.883830058039166,6,,,left,0.8162156129255891,,,,,,,,,,,,,,,,,,,,,,,,,1018,2019_May_20_1657,mf_amp_cond1,3.0.7,60.048840897409036,
lighnde,&&&&&&&,images/symbols/symbol_47.png,condition_files/AMP_rep1.csv,None,nonword,,,,,,,,,,,,,,0,3,3,0,0,5,5,5,,,,,,,,,,,,,,,,,,,,,1344.1821480597137,,,,,,,,,,,,,,AMP_prac,left,0.883830058039166,6,,,right,0.39934918942162767,,,,,,,,,,,,,,,,,,,,,,,,,1018,2019_May_20_1657,mf_amp_cond1,3.0.7,60.048840897409036,
crime,&&&&&,images/symbols/symbol_78.png,condition_files/AMP_rep1.csv,right,fairness.vice,,,,,,,,,,,,,,0,3,3,0,0,6,6,6,,,,,,,,,,,,,,,,,,,,,1344.8489860992413,,,,,,,,,,,,,,AMP_prac,left,0.883830058039166,6,,,left,0.4492728895274922,,,,,,,,,,,,,,,,,,,,,,,,,1018,2019_May_20_1657,mf_amp_cond1,3.0.7,60.048840897409036,
wepte,&&&&&,images/symbols/symbol_11.png,condition_files/AMP_rep1.csv,None,nonword,,,,,,,,,,,,,,0,3,3,0,0,7,7,7,,,,,,,,,,,,,,,,,,,,,1345.7325361663243,,,,,,,,,,,,,,AMP_prac,left,0.883830058039166,6,,,right,0.6661125646787696,,,,,,,,,,,,,,,,,,,,,,,,,1018,2019_May_20_1657,mf_amp_cond1,3.0.7,60.048840897409036,
strength,&&&&&&&&,images/symbols/symbol_18.png,condition_files/AMP_rep1.csv,left,sanctity.virtue,,,,,,,,,,,,,,0,3,3,0,0,8,8,8,,,,,,,,,,,,,,,,,,,,,1346.6327618909418,,,,,,,,,,,,,,AMP_prac,left,0.883830058039166,6,,,right,0.6670619039796293,,,,,,,,,,,,,,,,,,,,,,,,,1018,2019_May_20_1657,mf_amp_cond1,3.0.7,60.048840897409036,
yeussed,&&&&&&&,images/symbols/symbol_51.png,condition_files/AMP_rep1.csv,None,nonword,,,,,,,,,,,,,,0,3,3,0,0,9,9,9,,,,,,,,,,,,,,,,,,,,,1347.7163768723258,,,,,,,,,,,,,,AMP_prac,left,0.883830058039166,6,,,left,0.8504450669279322,,,,,,,,,,,,,,,,,,,,,,,,,1018,2019_May_20_1657,mf_amp_cond1,3.0.7,60.048840897409036,
improve,&&&&&&&,images/symbols/symbol_55.png,condition_files/AMP_rep1.csv,left,care.virtue,,,,,,,,,,,,,,0,3,3,0,0,10,10,10,,,,,,,,,,,,,,,,,,,,,1348.3498761047958,,,,,,,,,,,,,,AMP_prac,left,0.883830058039166,6,,,right,0.4153375382302329,,,,,,,,,,,,,,,,,,,,,,,,,1018,2019_May_20_1657,mf_amp_cond1,3.0.7,60.048840897409036,
ban,&&&,images/symbols/symbol_76.png,condition_files/AMP_rep1.csv,right,loyalty.vice,,,,,,,,,,,,,,0,3,3,0,0,11,11,11,,,,,,,,,,,,,,,,,,,,,1350.033641248534,,,,,,,,,,,,,,AMP_prac,left,0.883830058039166,6,,,right,1.4665848609874956,,,,,,,,,,,,,,,,,,,,,,,,,1018,2019_May_20_1657,mf_amp_cond1,3.0.7,60.048840897409036,
civilians,&&&&&&&&&,images/symbols/symbol_65.png,condition_files/AMP_rep1.csv,right,care.vice,,,,,,,,,,,,,,0,3,3,0,0,12,12,12,,,,,,,,,,,,,,,,,,,,,1350.8838730348507,,,,,,,,,,,,,,AMP_prac,left,0.883830058039166,6,,,left,0.6326563732000068,,,,,,,,,,,,,,,,,,,,,,,,,1018,2019_May_20_1657,mf_amp_cond1,3.0.7,60.048840897409036,
fraud,&&&&&,images/symbols/symbol_69.png,condition_files/AMP_rep1.csv,right,fairness.vice,,,,,,,,,,,,,,0,3,3,0,0,13,13,13,,,,,,,,,,,,,,,,,,,,,1351.8007551737246,,,,,,,,,,,,,,AMP_prac,left,0.883830058039166,6,,,left,0.699080616235733,,,,,,,,,,,,,,,,,,,,,,,,,1018,2019_May_20_1657,mf_amp_cond1,3.0.7,60.048840897409036,
faith,&&&&&,images/symbols/symbol_19.png,condition_files/AMP_rep1.csv,left,sanctity.virtue,,,,,,,,,,,,,,0,3,3,0,0,14,14,14,,,,,,,,,,,,,,,,,,,,,1352.4843009430915,,,,,,,,,,,,,,AMP_prac,left,0.883830058039166,6,,,right,0.46611885086167604,,,,,,,,,,,,,,,,,,,,,,,,,1018,2019_May_20_1657,mf_amp_cond1,3.0.7,60.048840897409036,
promises,&&&&&&&&,images/symbols/symbol_52.png,condition_files/AMP_rep1.csv,left,fairness.virtue,,,,,,,,,,,,,,0,3,3,0,0,15,15,15,,,,,,,,,,,,,,,,,,,,,1353.3678275974235,,,,,,,,,,,,,,AMP_prac,left,0.883830058039166,6,,,left,0.6665439367643557,,,,,,,,,,,,,,,,,,,,,,,,,1018,2019_May_20_1657,mf_amp_cond1,3.0.7,60.048840897409036,
encourage,&&&&&&&&&,images/symbols/symbol_9.png,condition_files/AMP_rep1.csv,left,authority.virtue,,,,,,,,,,,,,,0,3,3,0,0,16,16,16,,,,,,,,,,,,,,,,,,,,,1354.3180928030633,,,,,,,,,,,,,,AMP_prac,left,0.883830058039166,6,,,right,0.7327555406372994,,,,,,,,,,,,,,,,,,,,,,,,,1018,2019_May_20_1657,mf_amp_cond1,3.0.7,60.048840897409036,
creinned,&&&&&&&&,images/symbols/symbol_57.png,condition_files/AMP_rep1.csv,None,nonword,,,,,,,,,,,,,,0,3,3,0,0,17,17,17,,,,,,,,,,,,,,,,,,,,,1356.501960257301,,,,,,,,,,,,,,AMP_prac,left,0.883830058039166,6,,,left,1.9664437429746613,,,,,,,,,,,,,,,,,,,,,,,,,1018,2019_May_20_1657,mf_amp_cond1,3.0.7,60.048840897409036,
attacks,&&&&&&&,images/symbols/symbol_60.png,condition_files/AMP_rep1.csv,right,care.vice,,,,,,,,,,,,,,0,3,3,0,0,18,18,18,,,,,,,,,,,,,,,,,,,,,1357.2688269052887,,,,,,,,,,,,,,AMP_prac,left,0.883830058039166,6,,,right,0.5493797542876564,,,,,,,,,,,,,,,,,,,,,,,,,1018,2019_May_20_1657,mf_amp_cond1,3.0.7,60.048840897409036,
sexual,&&&&&&,images/symbols/symbol_17.png,condition_files/AMP_rep1.csv,right,sanctity.vice,,,,,,,,,,,,,,0,3,3,0,0,19,19,19,,,,,,,,,,,,,,,,,,,,,1359.3193532433943,,,,,,,,,,,,,,AMP_prac,left,0.883830058039166,6,,,left,1.833000636950601,,,,,,,,,,,,,,,,,,,,,,,,,1018,2019_May_20_1657,mf_amp_cond1,3.0.7,60.048840897409036,
free,&&&&,images/symbols/symbol_67.png,condition_files/AMP_rep1.csv,left,fairness.virtue,,,,,,,,,,,,,,0,3,3,0,0,20,20,20,,,,,,,,,,,,,,,,,,,,,1360.102882078616,,,,,,,,,,,,,,AMP_prac,left,0.883830058039166,6,,,left,0.5658126247581095,,,,,,,,,,,,,,,,,,,,,,,,,1018,2019_May_20_1657,mf_amp_cond1,3.0.7,60.048840897409036,
peace,&&&&&,images/symbols/symbol_6.png,condition_files/AMP_rep1.csv,left,care.virtue,,,,,,,,,,,,,,0,3,3,0,0,21,21,21,,,,,,,,,,,,,,,,,,,,,1360.8030611701543,,,,,,,,,,,,,,AMP_prac,left,0.883830058039166,6,,,right,0.4670111014856957,,,,,,,,,,,,,,,,,,,,,,,,,1018,2019_May_20_1657,mf_amp_cond1,3.0.7,60.048840897409036,
useful,&&&&&&,images/symbols/symbol_39.png,condition_files/AMP_rep1.csv,left,authority.virtue,,,,,,,,,,,,,,0,3,3,0,0,22,22,22,,,,,,,,,,,,,,,,,,,,,1361.4865668492275,,,,,,,,,,,,,,AMP_prac,left,0.883830058039166,6,,,right,0.4652035082108341,,,,,,,,,,,,,,,,,,,,,,,,,1018,2019_May_20_1657,mf_amp_cond1,3.0.7,60.048840897409036,
good,&&&&,images/symbols/symbol_4.png,condition_files/AMP_rep1.csv,left,care.virtue,,,,,,,,,,,,,,0,3,3,0,0,23,23,23,,,,,,,,,,,,,,,,,,,,,1362.4868263138924,,,,,,,,,,,,,,AMP_prac,left,0.883830058039166,6,,,left,0.7827514033415355,,,,,,,,,,,,,,,,,,,,,,,,,1018,2019_May_20_1657,mf_amp_cond1,3.0.7,60.048840897409036,
actively,&&&&&&&&,images/symbols/symbol_2.png,condition_files/AMP_rep1.csv,left,authority.virtue,,,,,,,,,,,,,,0,3,3,0,0,24,24,24,,,,,,,,,,,,,,,,,,,,,1363.153678144503,,,,,,,,,,,,,,AMP_prac,left,0.883830058039166,6,,,right,0.4495236946386285,,,,,,,,,,,,,,,,,,,,,,,,,1018,2019_May_20_1657,mf_amp_cond1,3.0.7,60.048840897409036,
party,&&&&&,images/symbols/symbol_8.png,condition_files/AMP_rep1.csv,left,loyalty.virtue,,,,,,,,,,,,,,0,3,3,0,0,25,25,25,,,,,,,,,,,,,,,,,,,,,1364.2039392448496,,,,,,,,,,,,,,AMP_prac,left,0.883830058039166,6,,,left,0.8329300779732876,,,,,,,,,,,,,,,,,,,,,,,,,1018,2019_May_20_1657,mf_amp_cond1,3.0.7,60.048840897409036,
black,&&&&&,images/symbols/symbol_48.png,condition_files/AMP_rep1.csv,right,loyalty.vice,,,,,,,,,,,,,,0,3,3,0,0,26,26,26,,,,,,,,,,,,,,,,,,,,,1364.870779850171,,,,,,,,,,,,,,AMP_prac,left,0.883830058039166,6,,,right,0.4490586466854438,,,,,,,,,,,,,,,,,,,,,,,,,1018,2019_May_20_1657,mf_amp_cond1,3.0.7,60.048840897409036,
great,&&&&&,images/symbols/symbol_56.png,condition_files/AMP_rep1.csv,left,loyalty.virtue,,,,,,,,,,,,,,0,3,3,0,0,27,27,27,,,,,,,,,,,,,,,,,,,,,1365.6709740798105,,,,,,,,,,,,,,AMP_prac,left,0.883830058039166,6,,,right,0.5670371441519819,,,,,,,,,,,,,,,,,,,,,,,,,1018,2019_May_20_1657,mf_amp_cond1,3.0.7,60.048840897409036,
shot,&&&&,images/symbols/symbol_75.png,condition_files/AMP_rep1.csv,right,care.vice,,,,,,,,,,,,,,0,3,3,0,0,28,28,28,,,,,,,,,,,,,,,,,,,,,1366.504526039178,,,,,,,,,,,,,,AMP_prac,left,0.883830058039166,6,,,left,0.6003788377274759,,,,,,,,,,,,,,,,,,,,,,,,,1018,2019_May_20_1657,mf_amp_cond1,3.0.7,60.048840897409036,
powerful,&&&&&&&&,images/symbols/symbol_14.png,condition_files/AMP_rep1.csv,left,authority.virtue,,,,,,,,,,,,,,0,3,3,0,0,29,29,29,,,,,,,,,,,,,,,,,,,,,1367.1713643993717,,,,,,,,,,,,,,AMP_prac,left,0.883830058039166,6,,,right,0.44862951966933906,,,,,,,,,,,,,,,,,,,,,,,,,1018,2019_May_20_1657,mf_amp_cond1,3.0.7,60.048840897409036,
serial,&&&&&&,images/symbols/symbol_70.png,condition_files/AMP_rep1.csv,right,sanctity.vice,,,,,,,,,,,,,,0,3,3,0,0,30,30,30,,,,,,,,,,,,,,,,,,,,,1367.8215405723895,,,,,,,,,,,,,,AMP_prac,left,0.883830058039166,6,,,right,0.43274284002836794,,,,,,,,,,,,,,,,,,,,,,,,,1018,2019_May_20_1657,mf_amp_cond1,3.0.7,60.048840897409036,
penalty,&&&&&&&,images/symbols/symbol_23.png,condition_files/AMP_rep1.csv,right,authority.vice,,,,,,,,,,,,,,0,3,3,0,0,31,31,31,,,,,,,,,,,,,,,,,,,,,1368.605075180647,,,,,,,,,,,,,,AMP_prac,left,0.883830058039166,6,,,left,0.5658992199460045,,,,,,,,,,,,,,,,,,,,,,,,,1018,2019_May_20_1657,mf_amp_cond1,3.0.7,60.048840897409036,
respect,&&&&&&&,images/symbols/symbol_49.png,condition_files/AMP_rep1.csv,left,sanctity.virtue,,,,,,,,,,,,,,0,3,3,0,0,32,32,32,,,,,,,,,,,,,,,,,,,,,1369.2885818218347,,,,,,,,,,,,,,AMP_prac,left,0.883830058039166,6,,,right,0.450356611632742,,,,,,,,,,,,,,,,,,,,,,,,,1018,2019_May_20_1657,mf_amp_cond1,3.0.7,60.048840897409036,
voter,&&&&&,images/symbols/symbol_59.png,condition_files/AMP_rep1.csv,right,fairness.vice,,,,,,,,,,,,,,0,3,3,0,0,33,33,33,,,,,,,,,,,,,,,,,,,,,1369.9389549185871,,,,,,,,,,,,,,AMP_prac,left,0.883830058039166,6,,,right,0.43236310430802405,,,,,,,,,,,,,,,,,,,,,,,,,1018,2019_May_20_1657,mf_amp_cond1,3.0.7,60.048840897409036,
fear,&&&&,images/symbols/symbol_33.png,condition_files/AMP_rep1.csv,right,sanctity.vice,,,,,,,,,,,,,,0,3,3,0,0,34,34,34,,,,,,,,,,,,,,,,,,,,,1370.6055780738825,,,,,,,,,,,,,,AMP_prac,left,0.883830058039166,6,,,right,0.4494627573294565,,,,,,,,,,,,,,,,,,,,,,,,,1018,2019_May_20_1657,mf_amp_cond1,3.0.7,60.048840897409036,
blamed,&&&&&&,images/symbols/symbol_10.png,condition_files/AMP_rep1.csv,right,loyalty.vice,,,,,,,,,,,,,,0,3,3,0,0,35,35,35,,,,,,,,,,,,,,,,,,,,,1371.3557674606564,,,,,,,,,,,,,,AMP_prac,left,0.883830058039166,6,,,left,0.5329148115124553,,,,,,,,,,,,,,,,,,,,,,,,,1018,2019_May_20_1657,mf_amp_cond1,3.0.7,60.048840897409036,
scourld,&&&&&&&,images/symbols/symbol_32.png,condition_files/AMP_rep1.csv,None,nonword,,,,,,,,,,,,,,0,3,3,0,0,36,36,36,,,,,,,,,,,,,,,,,,,,,1372.172654987662,,,,,,,,,,,,,,AMP_prac,left,0.883830058039166,6,,,left,0.5994384786463343,,,,,,,,,,,,,,,,,,,,,,,,,1018,2019_May_20_1657,mf_amp_cond1,3.0.7,60.048840897409036,
peaceful,&&&&&&&&,images/symbols/symbol_74.png,condition_files/AMP_rep1.csv,left,authority.virtue,,,,,,,,,,,,,,0,3,3,0,0,37,37,37,,,,,,,,,,,,,,,,,,,,,1372.9228434122633,,,,,,,,,,,,,,AMP_prac,left,0.883830058039166,6,,,left,0.517030056216754,,,,,,,,,,,,,,,,,,,,,,,,,1018,2019_May_20_1657,mf_amp_cond1,3.0.7,60.048840897409036,
hand,&&&&,images/symbols/symbol_12.png,condition_files/AMP_rep1.csv,left,sanctity.virtue,,,,,,,,,,,,,,0,3,3,0,0,38,38,38,,,,,,,,,,,,,,,,,,,,,1373.5896734336857,,,,,,,,,,,,,,AMP_prac,left,0.883830058039166,6,,,right,0.44872926449170336,,,,,,,,,,,,,,,,,,,,,,,,,1018,2019_May_20_1657,mf_amp_cond1,3.0.7,60.048840897409036,
opportunity,&&&&&&&&&&&,images/symbols/symbol_5.png,condition_files/AMP_rep1.csv,left,fairness.virtue,,,,,,,,,,,,,,0,3,3,0,0,39,39,39,,,,,,,,,,,,,,,,,,,,,1374.2231729869382,,,,,,,,,,,,,,AMP_prac,left,0.883830058039166,6,,,right,0.41607776627643034,,,,,,,,,,,,,,,,,,,,,,,,,1018,2019_May_20_1657,mf_amp_cond1,3.0.7,60.048840897409036,
safety,&&&&&&,images/symbols/symbol_82.png,condition_files/AMP_rep1.csv,left,care.virtue,,,,,,,,,,,,,,0,3,3,0,0,40,40,40,,,,,,,,,,,,,,,,,,,,,1374.9067270951346,,,,,,,,,,,,,,AMP_prac,left,0.883830058039166,6,,,right,0.46639916248386726,,,,,,,,,,,,,,,,,,,,,,,,,1018,2019_May_20_1657,mf_amp_cond1,3.0.7,60.048840897409036,
prosecution,&&&&&&&&&&&,images/symbols/symbol_58.png,condition_files/AMP_rep1.csv,right,authority.vice,,,,,,,,,,,,,,0,3,3,0,0,41,41,41,,,,,,,,,,,,,,,,,,,,,1375.790240920498,,,,,,,,,,,,,,AMP_prac,left,0.883830058039166,6,,,left,0.650403565436136,,,,,,,,,,,,,,,,,,,,,,,,,1018,2019_May_20_1657,mf_amp_cond1,3.0.7,60.048840897409036,
growth,&&&&&&,images/symbols/symbol_45.png,condition_files/AMP_rep1.csv,left,care.virtue,,,,,,,,,,,,,,0,3,3,0,0,42,42,42,,,,,,,,,,,,,,,,,,,,,1376.507152758306,,,,,,,,,,,,,,AMP_prac,left,0.883830058039166,6,,,right,0.49882551335031167,,,,,,,,,,,,,,,,,,,,,,,,,1018,2019_May_20_1657,mf_amp_cond1,3.0.7,60.048840897409036,
violations,&&&&&&&&&&,images/symbols/symbol_31.png,condition_files/AMP_rep1.csv,right,sanctity.vice,,,,,,,,,,,,,,0,3,3,0,0,43,43,43,,,,,,,,,,,,,,,,,,,,,1377.6573911515297,,,,,,,,,,,,,,AMP_prac,left,0.883830058039166,6,,,left,0.9337088569300249,,,,,,,,,,,,,,,,,,,,,,,,,1018,2019_May_20_1657,mf_amp_cond1,3.0.7,60.048840897409036,
prison,&&&&&&,images/symbols/symbol_53.png,condition_files/AMP_rep1.csv,right,fairness.vice,,,,,,,,,,,,,,0,3,3,0,0,44,44,44,,,,,,,,,,,,,,,,,,,,,1378.6576406738022,,,,,,,,,,,,,,AMP_prac,left,0.883830058039166,6,,,left,0.7827350464649498,,,,,,,,,,,,,,,,,,,,,,,,,1018,2019_May_20_1657,mf_amp_cond1,3.0.7,60.048840897409036,
integrity,&&&&&&&&&,images/symbols/symbol_3.png,condition_files/AMP_rep1.csv,left,fairness.virtue,,,,,,,,,,,,,,0,3,3,0,0,45,45,45,,,,,,,,,,,,,,,,,,,,,1379.3578165581566,,,,,,,,,,,,,,AMP_prac,left,0.883830058039166,6,,,right,0.48271849716547877,,,,,,,,,,,,,,,,,,,,,,,,,1018,2019_May_20_1657,mf_amp_cond1,3.0.7,60.048840897409036,
illegal,&&&&&&&,images/symbols/symbol_44.png,condition_files/AMP_rep1.csv,right,fairness.vice,,,,,,,,,,,,,,0,3,3,0,0,46,46,46,,,,,,,,,,,,,,,,,,,,,1380.6414855492185,,,,,,,,,,,,,,AMP_prac,left,0.883830058039166,6,,,right,1.066147780045867,,,,,,,,,,,,,,,,,,,,,,,,,1018,2019_May_20_1657,mf_amp_cond1,3.0.7,60.048840897409036,
psured,&&&&&&,images/symbols/symbol_81.png,condition_files/AMP_rep1.csv,None,nonword,,,,,,,,,,,,,,0,3,3,0,0,47,47,47,,,,,,,,,,,,,,,,,,,,,1381.458459671354,,,,,,,,,,,,,,AMP_prac,left,0.883830058039166,6,,,left,0.5994949258165434,,,,,,,,,,,,,,,,,,,,,,,,,1018,2019_May_20_1657,mf_amp_cond1,3.0.7,60.048840897409036,
care,&&&&,images/symbols/symbol_72.png,condition_files/AMP_rep1.csv,left,care.virtue,,,,,,,,,,,,,,0,3,3,0,0,48,48,48,,,,,,,,,,,,,,,,,,,,,1382.2418971005827,,,,,,,,,,,,,,AMP_prac,left,0.883830058039166,6,,,right,0.5660185287706554,,,,,,,,,,,,,,,,,,,,,,,,,1018,2019_May_20_1657,mf_amp_cond1,3.0.7,60.048840897409036,
support,&&&&&&&,images/symbols/symbol_22.png,condition_files/AMP_rep1.csv,left,loyalty.virtue,,,,,,,,,,,,,,0,3,3,0,0,49,49,49,,,,,,,,,,,,,,,,,,,,,1383.0587964943843,,,,,,,,,,,,,,AMP_prac,left,0.883830058039166,6,,,right,0.5994371957494877,,,,,,,,,,,,,,,,,,,,,,,,,1018,2019_May_20_1657,mf_amp_cond1,3.0.7,60.048840897409036,
pleasant,&&&&&&&,images/symbols/symbol_61.png,condition_files/AMP_rep1.csv,right,control,,,,,,,,,,,,,,0,3,3,0,0,50,50,50,,,,,,,,,,,,,,,,,,,,,1384.1590464015026,,,,,,,,,,,,,,AMP_prac,left,0.883830058039166,6,,,left,0.8826459496631287,,,,,,,,,,,,,,,,,,,,,,,,,1018,2019_May_20_1657,mf_amp_cond1,3.0.7,60.048840897409036,
