words,mask,masks,symbols,conditionfile,corr_ans,category,LDT_trials_cond2.thisRepN,LDT_trials_cond2.thisTrialN,LDT_trials_cond2.thisN,LDT_trials_cond2.thisIndex,LDT_pracs_1.thisRepN,LDT_pracs_1.thisTrialN,LDT_pracs_1.thisN,LDT_pracs_1.thisIndex,LDT_trials_1.thisRepN,LDT_trials_1.thisTrialN,LDT_trials_1.thisN,LDT_trials_1.thisIndex,logo_trials.thisRepN,logo_trials.thisTrialN,logo_trials.thisN,logo_trials.thisIndex,AMP_pracs.thisRepN,AMP_pracs.thisTrialN,AMP_pracs.thisN,AMP_pracs.thisIndex,trials_loop.thisRepN,trials_loop.thisTrialN,trials_loop.thisN,trials_loop.thisIndex,AMP_trials.thisRepN,AMP_trials.thisTrialN,AMP_trials.thisN,AMP_trials.thisIndex,memtask_trials.thisRepN,memtask_trials.thisTrialN,memtask_trials.thisN,memtask_trials.thisIndex,LDT_cond1.thisRepN,LDT_cond1.thisTrialN,LDT_cond1.thisN,LDT_cond1.thisIndex,begin_key.keys,begin_key.rt,key_resp_instr.keys,key_resp_instr.rt,exp_time,key_resp_LDT_instr.keys,key_resp_LDT_instr.rt,resp_LDT_prac.keys,resp_LDT_prac.rt,task,keypress,RT,corr,resp_LDT_ready.keys,resp_LDT_ready.rt,resp_LDT_trial.keys,resp_LDT_trial.rt,LDT_rating.response,LDT_rating.rt,resp_sym_rate.keys,resp_sym_rate.rt,sym_resp_1.keys,sym_resp_1.rt,sym_resp_2.keys,sym_resp_2.rt,sym_resp_trial.keys,sym_resp_trial.rt,symbol_index,resp_AMP_ready1.keys,resp_AMP_ready1.rt,resp_AMP.keys,resp_AMP.rt,prime_dur,resp_AMP_ready.keys,resp_AMP_ready.rt,resp_AMP_trials.keys,resp_AMP_trials.rt,rest_key_resp.keys,rest_key_resp.rt,AMP_nonword_rating.response,AMP_nonword_rating.rt,AMP_word_rating.response,AMP_word_rating.rt,AMP_random_rating.response,AMP_random_rating.rt,key_resp_instr_memtask.keys,key_resp_instr_memtask.rt,resp_memtask.keys,resp_memtask.corr,resp_memtask.rt,participant ID,date,expName,psychopyVersion,frameRate,
,,,,,,,,,,,,,,,,,,,,,,,,,,,,,,,,,,,,,,,,,,,right,775.3369982542936,,,,,,,,,,,,,,,,,,,,,,,,,,,,,,,,,,,,,,,,,,,,,,,,,1019,2019_May_22_1654,mf_amp_cond1,3.0.7,59.98043578301177,
,,,,,,,,,,,,,,,,,,,,,,,,,,,,,,,,,,,,,,,,,,,,,right,1.984070246340707,,,,,,,,,,,,,,,,,,,,,,,,,,,,,,,,,,,,,,,,,,,,,,,1019,2019_May_22_1654,mf_amp_cond1,3.0.7,59.98043578301177,
keyboard,&&&&&&&,,,,,,0,0,0,0,0,0,0,0,,,,,,,,,,,,,,,,,,,,,,,,,,,,,,,,,877.8425552905537,right,2.734352083178237,right,2.167457413394004,LDT_prac,right,2.167457413394004,0,,,,,,,,,,,,,,,,,,,,,,,,,,,,,,,,,,,,,,1019,2019_May_22_1654,mf_amp_cond1,3.0.7,59.98043578301177,
bisebell,&&&&&&&,,,,,,0,0,0,0,0,1,1,1,,,,,,,,,,,,,,,,,,,,,,,,,,,,,,,,,880.5264933021972,,,left,1.383914181846194,LDT_prac,left,1.383914181846194,0,,,,,,,,,,,,,,,,,,,,,,,,,,,,,,,,,,,,,,1019,2019_May_22_1654,mf_amp_cond1,3.0.7,59.98043578301177,
,,,,,,,0,0,0,0,,,,,0,0,0,0,,,,,,,,,,,,,,,,,,,,,,,,,,,,,899.9650281805079,,,,,LDT_prac,left,1.383914181846194,0,right,1.6173315128544345,right,0.6504017558181658,,,,,,,,,,,,,,,,,,,,,,,,,,,,,,,,,,1019,2019_May_22_1654,mf_amp_cond1,3.0.7,59.98043578301177,
,,,,,,,0,0,0,0,,,,,,,,,,,,,,,,,,,,,,,,,,,,,,,,,,,,,,,,,,,,,,,,,,5,10.521,,,,,,,,,,,,,,,,,,,,,,,,,,,,,,,,1019,2019_May_22_1654,mf_amp_cond1,3.0.7,59.98043578301177,
,,,,,,,,,,,,,,,,,,,,,,,,,,,,,,,,,,,,,,,,,,,,,,,,,,,,,,,,,,,,,,right,1.7507077591726556,,,,,,,,,,,,,,,,,,,,,,,,,,,,,,1019,2019_May_22_1654,mf_amp_cond1,3.0.7,59.98043578301177,
,,,,,,,,,,,,,,,,,,,,,,,,,,,,,,,,,,,,,,,,,,,,,,,984.2868648167932,,,,,,,,,,,,,,,,,left,2.0840892012929544,,,,,,,,,,,,,,,,,,,,,,,,,,,,1019,2019_May_22_1654,mf_amp_cond1,3.0.7,59.98043578301177,
,,,,,,,,,,,,,,,,,,,,,,,,,,,,,,,,,,,,,,,,,,,,,,,,,,,,,,,,,,,,,,,,,,right,1.4339295926038176,,,,,,,,,,,,,,,,,,,,,,,,,,1019,2019_May_22_1654,mf_amp_cond1,3.0.7,59.98043578301177,
,,,,,,,,,,,,,,,,,,,,,,,,,,,,,,,,,,,,,,,,,,,,,,,1003.841965157073,,,,,,,,,,,,,,,,,,,,,left,0.3318175885360688,21,right,0.8504406275460497,,,,,,,,,,,,,,,,,,,,,1019,2019_May_22_1654,mf_amp_cond1,3.0.7,59.98043578301177,
banana,,&&&&&&,images/symbols/symbol_68.png,,,,,,,,,,,,,,,,,,,,0,0,0,1,,,,,,,,,,,,,,,,,,,,,1142.3451552451588,,,,,AMP_prac,left,2.650784380384721,,,,,,,,,,,,,,,,,,,left,2.650784380384721,3,,,,,,,,,,,,,,,,,,1019,2019_May_22_1654,mf_amp_cond1,3.0.7,59.98043578301177,
car,,&&&,images/symbols/symbol_9.png,,,,,,,,,,,,,,,,,,,,0,1,1,0,,,,,,,,,,,,,,,,,,,,,1143.4121302565327,,,,,AMP_prac,right,0.8337709620827809,,,,,,,,,,,,,,,,,,,right,0.8337709620827809,3,,,,,,,,,,,,,,,,,,1019,2019_May_22_1654,mf_amp_cond1,3.0.7,59.98043578301177,
keyboard,,&&&&&&&&,images/symbols/symbol_40.png,,,,,,,,,,,,,,,,,,,,0,2,2,2,,,,,,,,,,,,,,,,,,,,,1143.9789489146788,,,,,AMP_prac,left,0.3490562195656821,,,,,,,,,,,,,,,,,,,left,0.3490562195656821,3,,,,,,,,,,,,,,,,,,1019,2019_May_22_1654,mf_amp_cond1,3.0.7,59.98043578301177,
scarf,,&&&&&,images/symbols/symbol_54.png,,,,,,,,,,,,,,,,,,,,0,3,3,3,,,,,,,,,,,,,,,,,,,,,1144.879221498617,,,,,AMP_prac,right,0.667096116929315,,,,,,,,,,,,,,,,,,,right,0.667096116929315,3,,,,,,,,,,,,,,,,,,1019,2019_May_22_1654,mf_amp_cond1,3.0.7,59.98043578301177,
,,,,,,,,,,,,,,,,,,,,,,,,,,,,,,,,,,,,,,,,,,,,,,,,,,,,,,,,,,,,,,,,,,,,,,,,,,,,right,0.9838098179316148,,,,,,,,,,,,,,,,1019,2019_May_22_1654,mf_amp_cond1,3.0.7,59.98043578301177,
knapps,,&&&&&&,images/symbols/symbol_44.png,condition_files/AMP_rep2.csv,None,nonword,,,,,,,,,,,,,,,,,,,,,0,0,0,1,0,0,0,0,,,,,,,,,,,,,1168.3188051466132,,,,,AMP_prac,right,0.667096116929315,,,,,,,,,,,,,,,,,,,,,3,,,left,2.184132851776667,,,,,,,,,,,,,,1019,2019_May_22_1654,mf_amp_cond1,3.0.7,59.98043578301177,
prosecution,,&&&&&&&&&&&,images/symbols/symbol_50.png,condition_files/AMP_rep2.csv,right,authority.vice,,,,,,,,,,,,,,,,,,,,,0,0,0,1,0,1,1,1,,,,,,,,,,,,,1169.318935360876,,,,,AMP_prac,right,0.667096116929315,,,,,,,,,,,,,,,,,,,,,3,,,left,0.7828055649297312,,,,,,,,,,,,,,1019,2019_May_22_1654,mf_amp_cond1,3.0.7,59.98043578301177,
strong,,&&&&&&,images/symbols/symbol_37.png,condition_files/AMP_rep2.csv,left,loyalty.virtue,,,,,,,,,,,,,,,,,,,,,0,0,0,1,0,2,2,2,,,,,,,,,,,,,1170.5859264725586,,,,,AMP_prac,right,0.667096116929315,,,,,,,,,,,,,,,,,,,,,3,,,left,1.0338297189446166,,,,,,,,,,,,,,1019,2019_May_22_1654,mf_amp_cond1,3.0.7,59.98043578301177,
violence,,&&&&&&&&,images/symbols/symbol_76.png,condition_files/AMP_rep2.csv,right,care.vice,,,,,,,,,,,,,,,,,,,,,0,0,0,1,0,3,3,3,,,,,,,,,,,,,1171.4194745310815,,,,,AMP_prac,right,0.667096116929315,,,,,,,,,,,,,,,,,,,,,3,,,right,0.6163901858963072,,,,,,,,,,,,,,1019,2019_May_22_1654,mf_amp_cond1,3.0.7,59.98043578301177,
prison,,&&&&&&,images/symbols/symbol_21.png,condition_files/AMP_rep2.csv,right,fairness.vice,,,,,,,,,,,,,,,,,,,,,0,0,0,1,0,4,4,4,,,,,,,,,,,,,1172.1696649614023,,,,,AMP_prac,right,0.667096116929315,,,,,,,,,,,,,,,,,,,,,3,,,right,0.5329177383100614,,,,,,,,,,,,,,1019,2019_May_22_1654,mf_amp_cond1,3.0.7,59.98043578301177,
opportunity,,&&&&&&&&&&&,images/symbols/symbol_60.png,condition_files/AMP_rep2.csv,left,fairness.virtue,,,,,,,,,,,,,,,,,,,,,0,0,0,1,0,5,5,5,,,,,,,,,,,,,1172.9532248706091,,,,,AMP_prac,right,0.667096116929315,,,,,,,,,,,,,,,,,,,,,3,,,left,0.5503882531775162,,,,,,,,,,,,,,1019,2019_May_22_1654,mf_amp_cond1,3.0.7,59.98043578301177,
spewd,,&&&&&,images/symbols/symbol_67.png,condition_files/AMP_rep2.csv,None,nonword,,,,,,,,,,,,,,,,,,,,,0,0,0,1,0,6,6,6,,,,,,,,,,,,,1173.8201071284711,,,,,AMP_prac,right,0.667096116929315,,,,,,,,,,,,,,,,,,,,,3,,,left,0.6492981421761215,,,,,,,,,,,,,,1019,2019_May_22_1654,mf_amp_cond1,3.0.7,59.98043578301177,
party,,&&&&&,images/symbols/symbol_47.png,condition_files/AMP_rep2.csv,left,loyalty.virtue,,,,,,,,,,,,,,,,,,,,,0,0,0,1,0,7,7,7,,,,,,,,,,,,,1174.570294672274,,,,,AMP_prac,right,0.667096116929315,,,,,,,,,,,,,,,,,,,,,3,,,right,0.5325482635525987,,,,,,,,,,,,,,1019,2019_May_22_1654,mf_amp_cond1,3.0.7,59.98043578301177,
wraughsed,,&&&&&&&&&,images/symbols/symbol_38.png,condition_files/AMP_rep2.csv,None,nonword,,,,,,,,,,,,,,,,,,,,,0,0,0,1,0,8,8,8,,,,,,,,,,,,,1175.2704863693798,,,,,AMP_prac,right,0.667096116929315,,,,,,,,,,,,,,,,,,,,,3,,,right,0.48268519691191614,,,,,,,,,,,,,,1019,2019_May_22_1654,mf_amp_cond1,3.0.7,59.98043578301177,
loyalty,,&&&&&&&,images/symbols/symbol_1.png,condition_files/AMP_rep2.csv,left,loyalty.virtue,,,,,,,,,,,,,,,,,,,,,0,0,0,1,0,9,9,9,,,,,,,,,,,,,1176.0206780825974,,,,,AMP_prac,right,0.667096116929315,,,,,,,,,,,,,,,,,,,,,3,,,left,0.5324719310738146,,,,,,,,,,,,,,1019,2019_May_22_1654,mf_amp_cond1,3.0.7,59.98043578301177,
values,,&&&&&&,images/symbols/symbol_12.png,condition_files/AMP_rep2.csv,left,sanctity.virtue,,,,,,,,,,,,,,,,,,,,,0,0,0,1,0,10,10,10,,,,,,,,,,,,,1176.8542335176608,,,,,AMP_prac,right,0.667096116929315,,,,,,,,,,,,,,,,,,,,,3,,,right,0.6003834585426375,,,,,,,,,,,,,,1019,2019_May_22_1654,mf_amp_cond1,3.0.7,59.98043578301177,
blamed,,&&&&&&,images/symbols/symbol_16.png,condition_files/AMP_rep2.csv,right,loyalty.vice,,,,,,,,,,,,,,,,,,,,,0,0,0,1,0,11,11,11,,,,,,,,,,,,,1177.5544165553292,,,,,AMP_prac,right,0.667096116929315,,,,,,,,,,,,,,,,,,,,,3,,,left,0.48290296900086105,,,,,,,,,,,,,,1019,2019_May_22_1654,mf_amp_cond1,3.0.7,59.98043578301177,
energy,,&&&&&&,images/symbols/symbol_61.png,condition_files/AMP_rep2.csv,left,sanctity.virtue,,,,,,,,,,,,,,,,,,,,,0,0,0,1,0,12,12,12,,,,,,,,,,,,,1178.2212657142663,,,,,AMP_prac,right,0.667096116929315,,,,,,,,,,,,,,,,,,,,,3,,,right,0.4494613268179819,,,,,,,,,,,,,,1019,2019_May_22_1654,mf_amp_cond1,3.0.7,59.98043578301177,
praise,,&&&&&&,images/symbols/symbol_52.png,condition_files/AMP_rep2.csv,left,authority.virtue,,,,,,,,,,,,,,,,,,,,,0,0,0,1,0,13,13,13,,,,,,,,,,,,,1179.0381569364108,,,,,AMP_prac,right,0.667096116929315,,,,,,,,,,,,,,,,,,,,,3,,,right,0.5999379719141871,,,,,,,,,,,,,,1019,2019_May_22_1654,mf_amp_cond1,3.0.7,59.98043578301177,
safety,,&&&&&&,images/symbols/symbol_54.png,condition_files/AMP_rep2.csv,left,care.virtue,,,,,,,,,,,,,,,,,,,,,0,0,0,1,0,14,14,14,,,,,,,,,,,,,1180.0050661670975,,,,,AMP_prac,right,0.667096116929315,,,,,,,,,,,,,,,,,,,,,3,,,left,0.7493485279846936,,,,,,,,,,,,,,1019,2019_May_22_1654,mf_amp_cond1,3.0.7,59.98043578301177,
arrests,,&&&&&&&,images/symbols/symbol_7.png,condition_files/AMP_rep2.csv,right,authority.vice,,,,,,,,,,,,,,,,,,,,,0,0,0,1,0,15,15,15,,,,,,,,,,,,,1180.7886440369766,,,,,AMP_prac,right,0.667096116929315,,,,,,,,,,,,,,,,,,,,,3,,,right,0.5662904245546088,,,,,,,,,,,,,,1019,2019_May_22_1654,mf_amp_cond1,3.0.7,59.98043578301177,
ban,,&&&,images/symbols/symbol_24.png,condition_files/AMP_rep2.csv,right,loyalty.vice,,,,,,,,,,,,,,,,,,,,,0,0,0,1,0,16,16,16,,,,,,,,,,,,,1181.4054229411995,,,,,AMP_prac,right,0.667096116929315,,,,,,,,,,,,,,,,,,,,,3,,,left,0.39932917221449316,,,,,,,,,,,,,,1019,2019_May_22_1654,mf_amp_cond1,3.0.7,59.98043578301177,
ability,,&&&&&&&,images/symbols/symbol_57.png,condition_files/AMP_rep2.csv,left,authority.virtue,,,,,,,,,,,,,,,,,,,,,0,0,0,1,0,17,17,17,,,,,,,,,,,,,1182.205638724845,,,,,AMP_prac,right,0.667096116929315,,,,,,,,,,,,,,,,,,,,,3,,,left,0.5828600239474326,,,,,,,,,,,,,,1019,2019_May_22_1654,mf_amp_cond1,3.0.7,59.98043578301177,
praised,,&&&&&&&,images/symbols/symbol_55.png,condition_files/AMP_rep2.csv,left,loyalty.virtue,,,,,,,,,,,,,,,,,,,,,0,0,0,1,0,18,18,18,,,,,,,,,,,,,1183.0892140609212,,,,,AMP_prac,right,0.667096116929315,,,,,,,,,,,,,,,,,,,,,3,,,left,0.6660957767162472,,,,,,,,,,,,,,1019,2019_May_22_1654,mf_amp_cond1,3.0.7,59.98043578301177,
unpleasant,,&&&&&&&&&,images/symbols/symbol_62.png,condition_files/AMP_rep2.csv,left,control,,,,,,,,,,,,,,,,,,,,,0,0,0,1,0,19,19,19,,,,,,,,,,,,,1183.7560433350736,,,,,AMP_prac,right,0.667096116929315,,,,,,,,,,,,,,,,,,,,,3,,,left,0.4336723714368418,,,,,,,,,,,,,,1019,2019_May_22_1654,mf_amp_cond1,3.0.7,59.98043578301177,
creinned,,&&&&&&&&,images/symbols/symbol_66.png,condition_files/AMP_rep2.csv,None,nonword,,,,,,,,,,,,,,,,,,,,,0,0,0,1,0,20,20,20,,,,,,,,,,,,,1184.6562806392321,,,,,AMP_prac,right,0.667096116929315,,,,,,,,,,,,,,,,,,,,,3,,,left,0.6823687057476491,,,,,,,,,,,,,,1019,2019_May_22_1654,mf_amp_cond1,3.0.7,59.98043578301177,
perfect,,&&&&&&&,images/symbols/symbol_70.png,condition_files/AMP_rep2.csv,left,sanctity.virtue,,,,,,,,,,,,,,,,,,,,,0,0,0,1,0,21,21,21,,,,,,,,,,,,,1185.3397872761125,,,,,AMP_prac,right,0.667096116929315,,,,,,,,,,,,,,,,,,,,,3,,,right,0.4661111073801294,,,,,,,,,,,,,,1019,2019_May_22_1654,mf_amp_cond1,3.0.7,59.98043578301177,
phlux,,&&&&&,images/symbols/symbol_32.png,condition_files/AMP_rep2.csv,None,nonword,,,,,,,,,,,,,,,,,,,,,0,0,0,1,0,22,22,22,,,,,,,,,,,,,1186.2567093198886,,,,,AMP_prac,right,0.667096116929315,,,,,,,,,,,,,,,,,,,,,3,,,left,0.6837500670226291,,,,,,,,,,,,,,1019,2019_May_22_1654,mf_amp_cond1,3.0.7,59.98043578301177,
rejected,,&&&&&&&&,images/symbols/symbol_3.png,condition_files/AMP_rep2.csv,right,authority.vice,,,,,,,,,,,,,,,,,,,,,0,0,0,1,0,23,23,23,,,,,,,,,,,,,1187.0069161070278,,,,,AMP_prac,right,0.667096116929315,,,,,,,,,,,,,,,,,,,,,3,,,right,0.5325232468312606,,,,,,,,,,,,,,1019,2019_May_22_1654,mf_amp_cond1,3.0.7,59.98043578301177,
trust,,&&&&&,images/symbols/symbol_2.png,condition_files/AMP_rep2.csv,left,authority.virtue,,,,,,,,,,,,,,,,,,,,,0,0,0,1,0,24,24,24,,,,,,,,,,,,,1187.757088897517,,,,,AMP_prac,right,0.667096116929315,,,,,,,,,,,,,,,,,,,,,3,,,right,0.5328218416543677,,,,,,,,,,,,,,1019,2019_May_22_1654,mf_amp_cond1,3.0.7,59.98043578301177,
benefit,,&&&&&&&,images/symbols/symbol_15.png,condition_files/AMP_rep2.csv,left,fairness.virtue,,,,,,,,,,,,,,,,,,,,,0,0,0,1,0,25,25,25,,,,,,,,,,,,,1188.5072940811515,,,,,AMP_prac,right,0.667096116929315,,,,,,,,,,,,,,,,,,,,,3,,,left,0.5327034941874444,,,,,,,,,,,,,,1019,2019_May_22_1654,mf_amp_cond1,3.0.7,59.98043578301177,
good,,&&&&,images/symbols/symbol_71.png,condition_files/AMP_rep2.csv,left,care.virtue,,,,,,,,,,,,,,,,,,,,,0,0,0,1,0,26,26,26,,,,,,,,,,,,,1189.3908764731605,,,,,AMP_prac,right,0.667096116929315,,,,,,,,,,,,,,,,,,,,,3,,,right,0.6657882017316297,,,,,,,,,,,,,,1019,2019_May_22_1654,mf_amp_cond1,3.0.7,59.98043578301177,
spauned,,&&&&&&&,images/symbols/symbol_77.png,condition_files/AMP_rep2.csv,None,nonword,,,,,,,,,,,,,,,,,,,,,0,0,0,1,0,27,27,27,,,,,,,,,,,,,1190.2577766915783,,,,,AMP_prac,right,0.667096116929315,,,,,,,,,,,,,,,,,,,,,3,,,left,0.6495697959326208,,,,,,,,,,,,,,1019,2019_May_22_1654,mf_amp_cond1,3.0.7,59.98043578301177,
officers,,&&&&&&&&,images/symbols/symbol_33.png,condition_files/AMP_rep2.csv,right,authority.vice,,,,,,,,,,,,,,,,,,,,,0,0,0,1,0,28,28,28,,,,,,,,,,,,,1190.8912650311831,,,,,AMP_prac,right,0.667096116929315,,,,,,,,,,,,,,,,,,,,,3,,,right,0.41624002263415605,,,,,,,,,,,,,,1019,2019_May_22_1654,mf_amp_cond1,3.0.7,59.98043578301177,
restore,,&&&&&&&,images/symbols/symbol_14.png,condition_files/AMP_rep2.csv,left,care.virtue,,,,,,,,,,,,,,,,,,,,,0,0,0,1,0,29,29,29,,,,,,,,,,,,,1191.608145957929,,,,,AMP_prac,right,0.667096116929315,,,,,,,,,,,,,,,,,,,,,3,,,left,0.4994311948539689,,,,,,,,,,,,,,1019,2019_May_22_1654,mf_amp_cond1,3.0.7,59.98043578301177,
wrantse,,&&&&&&&,images/symbols/symbol_73.png,condition_files/AMP_rep2.csv,None,nonword,,,,,,,,,,,,,,,,,,,,,0,0,0,1,0,30,30,30,,,,,,,,,,,,,1192.3749739811756,,,,,AMP_prac,right,0.667096116929315,,,,,,,,,,,,,,,,,,,,,3,,,left,0.5493593683931977,,,,,,,,,,,,,,1019,2019_May_22_1654,mf_amp_cond1,3.0.7,59.98043578301177,
harassment,,&&&&&&&&&&,images/symbols/symbol_28.png,condition_files/AMP_rep2.csv,right,sanctity.vice,,,,,,,,,,,,,,,,,,,,,0,0,0,1,0,31,31,31,,,,,,,,,,,,,1193.2585406578146,,,,,AMP_prac,right,0.667096116929315,,,,,,,,,,,,,,,,,,,,,3,,,left,0.666181089472957,,,,,,,,,,,,,,1019,2019_May_22_1654,mf_amp_cond1,3.0.7,59.98043578301177,
critics,,&&&&&&&,images/symbols/symbol_19.png,condition_files/AMP_rep2.csv,right,loyalty.vice,,,,,,,,,,,,,,,,,,,,,0,0,0,1,0,32,32,32,,,,,,,,,,,,,1194.0587394429604,,,,,AMP_prac,right,0.667096116929315,,,,,,,,,,,,,,,,,,,,,3,,,right,0.5827041517477483,,,,,,,,,,,,,,1019,2019_May_22_1654,mf_amp_cond1,3.0.7,59.98043578301177,
fraud,,&&&&&,images/symbols/symbol_9.png,condition_files/AMP_rep2.csv,right,fairness.vice,,,,,,,,,,,,,,,,,,,,,0,0,0,1,0,33,33,33,,,,,,,,,,,,,1194.9421909793746,,,,,AMP_prac,right,0.667096116929315,,,,,,,,,,,,,,,,,,,,,3,,,right,0.6658802496967837,,,,,,,,,,,,,,1019,2019_May_22_1654,mf_amp_cond1,3.0.7,59.98043578301177,
crime,,&&&&&,images/symbols/symbol_11.png,condition_files/AMP_rep2.csv,right,fairness.vice,,,,,,,,,,,,,,,,,,,,,0,0,0,1,0,34,34,34,,,,,,,,,,,,,1195.7091771198902,,,,,AMP_prac,right,0.667096116929315,,,,,,,,,,,,,,,,,,,,,3,,,left,0.549429607228376,,,,,,,,,,,,,,1019,2019_May_22_1654,mf_amp_cond1,3.0.7,59.98043578301177,
forced,,&&&&&&,images/symbols/symbol_17.png,condition_files/AMP_rep2.csv,right,fairness.vice,,,,,,,,,,,,,,,,,,,,,0,0,0,1,0,35,35,35,,,,,,,,,,,,,1196.6427537549753,,,,,AMP_prac,right,0.667096116929315,,,,,,,,,,,,,,,,,,,,,3,,,left,0.716061154496856,,,,,,,,,,,,,,1019,2019_May_22_1654,mf_amp_cond1,3.0.7,59.98043578301177,
honored,,&&&&&&&,images/symbols/symbol_25.png,condition_files/AMP_rep2.csv,left,authority.virtue,,,,,,,,,,,,,,,,,,,,,0,0,0,1,0,36,36,36,,,,,,,,,,,,,1197.5262110644253,,,,,AMP_prac,right,0.667096116929315,,,,,,,,,,,,,,,,,,,,,3,,,left,0.6655428473604843,,,,,,,,,,,,,,1019,2019_May_22_1654,mf_amp_cond1,3.0.7,59.98043578301177,
protect,,&&&&&&&,images/symbols/symbol_82.png,condition_files/AMP_rep2.csv,left,fairness.virtue,,,,,,,,,,,,,,,,,,,,,0,0,0,1,0,37,37,37,,,,,,,,,,,,,1198.1764903033618,,,,,AMP_prac,right,0.667096116929315,,,,,,,,,,,,,,,,,,,,,3,,,left,0.4331053300993517,,,,,,,,,,,,,,1019,2019_May_22_1654,mf_amp_cond1,3.0.7,59.98043578301177,
win,,&&&,images/symbols/symbol_56.png,condition_files/AMP_rep2.csv,left,fairness.virtue,,,,,,,,,,,,,,,,,,,,,0,0,0,1,0,38,38,38,,,,,,,,,,,,,1199.0767359463498,,,,,AMP_prac,right,0.667096116929315,,,,,,,,,,,,,,,,,,,,,3,,,right,0.6670714212814346,,,,,,,,,,,,,,1019,2019_May_22_1654,mf_amp_cond1,3.0.7,59.98043578301177,
wraize,,&&&&&&,images/symbols/symbol_78.png,condition_files/AMP_rep2.csv,None,nonword,,,,,,,,,,,,,,,,,,,,,0,0,0,1,0,39,39,39,,,,,,,,,,,,,1199.7769077586709,,,,,AMP_prac,right,0.667096116929315,,,,,,,,,,,,,,,,,,,,,3,,,left,0.4821608120109886,,,,,,,,,,,,,,1019,2019_May_22_1654,mf_amp_cond1,3.0.7,59.98043578301177,
increase,,&&&&&&&&,images/symbols/symbol_53.png,condition_files/AMP_rep2.csv,left,care.virtue,,,,,,,,,,,,,,,,,,,,,0,0,0,1,0,40,40,40,,,,,,,,,,,,,1200.4604496752145,,,,,AMP_prac,right,0.667096116929315,,,,,,,,,,,,,,,,,,,,,3,,,left,0.4503705813549459,,,,,,,,,,,,,,1019,2019_May_22_1654,mf_amp_cond1,3.0.7,59.98043578301177,
serial,,&&&&&&,images/symbols/symbol_31.png,condition_files/AMP_rep2.csv,right,sanctity.vice,,,,,,,,,,,,,,,,,,,,,0,0,0,1,0,41,41,41,,,,,,,,,,,,,1201.1773039818509,,,,,AMP_prac,right,0.667096116929315,,,,,,,,,,,,,,,,,,,,,3,,,right,0.4837051013018936,,,,,,,,,,,,,,1019,2019_May_22_1654,mf_amp_cond1,3.0.7,59.98043578301177,
support,,&&&&&&&,images/symbols/symbol_65.png,condition_files/AMP_rep2.csv,left,loyalty.virtue,,,,,,,,,,,,,,,,,,,,,0,0,0,1,0,42,42,42,,,,,,,,,,,,,1201.844117861241,,,,,AMP_prac,right,0.667096116929315,,,,,,,,,,,,,,,,,,,,,3,,,left,0.4486845317296684,,,,,,,,,,,,,,1019,2019_May_22_1654,mf_amp_cond1,3.0.7,59.98043578301177,
gun,,&&&,images/symbols/symbol_48.png,condition_files/AMP_rep2.csv,right,authority.vice,,,,,,,,,,,,,,,,,,,,,0,0,0,1,0,43,43,43,,,,,,,,,,,,,1202.5943188753445,,,,,AMP_prac,right,0.667096116929315,,,,,,,,,,,,,,,,,,,,,3,,,left,0.5324985510669649,,,,,,,,,,,,,,1019,2019_May_22_1654,mf_amp_cond1,3.0.7,59.98043578301177,
rebels,,&&&&&&,images/symbols/symbol_23.png,condition_files/AMP_rep2.csv,right,authority.vice,,,,,,,,,,,,,,,,,,,,,0,0,0,1,0,44,44,44,,,,,,,,,,,,,1203.4112007963704,,,,,AMP_prac,right,0.667096116929315,,,,,,,,,,,,,,,,,,,,,3,,,left,0.5992054367670789,,,,,,,,,,,,,,1019,2019_May_22_1654,mf_amp_cond1,3.0.7,59.98043578301177,
stintz,,&&&&&&,images/symbols/symbol_81.png,condition_files/AMP_rep2.csv,None,nonword,,,,,,,,,,,,,,,,,,,,,0,0,0,1,0,45,45,45,,,,,,,,,,,,,1204.344782883767,,,,,AMP_prac,right,0.667096116929315,,,,,,,,,,,,,,,,,,,,,3,,,left,0.7155938586220145,,,,,,,,,,,,,,1019,2019_May_22_1654,mf_amp_cond1,3.0.7,59.98043578301177,
illegal,,&&&&&&&,images/symbols/symbol_29.png,condition_files/AMP_rep2.csv,right,fairness.vice,,,,,,,,,,,,,,,,,,,,,0,0,0,1,0,46,46,46,,,,,,,,,,,,,1205.5451347829076,,,,,AMP_prac,right,0.667096116929315,,,,,,,,,,,,,,,,,,,,,3,,,left,0.9825961957685649,,,,,,,,,,,,,,1019,2019_May_22_1654,mf_amp_cond1,3.0.7,59.98043578301177,
terrorist,,&&&&&&&&&,images/symbols/symbol_35.png,condition_files/AMP_rep2.csv,right,loyalty.vice,,,,,,,,,,,,,,,,,,,,,0,0,0,1,0,47,47,47,,,,,,,,,,,,,1206.1619172152132,,,,,AMP_prac,right,0.667096116929315,,,,,,,,,,,,,,,,,,,,,3,,,right,0.39915662235580385,,,,,,,,,,,,,,1019,2019_May_22_1654,mf_amp_cond1,3.0.7,59.98043578301177,
health,,&&&&&&,images/symbols/symbol_43.png,condition_files/AMP_rep2.csv,left,care.virtue,,,,,,,,,,,,,,,,,,,,,0,0,0,1,0,48,48,48,,,,,,,,,,,,,1207.012155786273,,,,,AMP_prac,right,0.667096116929315,,,,,,,,,,,,,,,,,,,,,3,,,left,0.6323215431766585,,,,,,,,,,,,,,1019,2019_May_22_1654,mf_amp_cond1,3.0.7,59.98043578301177,
scandal,,&&&&&&&,images/symbols/symbol_5.png,condition_files/AMP_rep2.csv,right,sanctity.vice,,,,,,,,,,,,,,,,,,,,,0,0,0,1,0,49,49,49,,,,,,,,,,,,,1207.66231571557,,,,,AMP_prac,right,0.667096116929315,,,,,,,,,,,,,,,,,,,,,3,,,right,0.43266754096839577,,,,,,,,,,,,,,1019,2019_May_22_1654,mf_amp_cond1,3.0.7,59.98043578301177,
hate,,&&&&,images/symbols/symbol_13.png,condition_files/AMP_rep2.csv,right,fairness.vice,,,,,,,,,,,,,,,,,,,,,0,0,0,1,0,50,50,50,,,,,,,,,,,,,1208.5958913884824,,,,,AMP_prac,right,0.667096116929315,,,,,,,,,,,,,,,,,,,,,3,,,left,0.7160457597346976,,,,,,,,,,,,,,1019,2019_May_22_1654,mf_amp_cond1,3.0.7,59.98043578301177,
conspiracy,,&&&&&&&&&&,images/symbols/symbol_58.png,condition_files/AMP_rep2.csv,right,sanctity.vice,,,,,,,,,,,,,,,,,,,,,0,0,0,1,0,51,51,51,,,,,,,,,,,,,1209.5127983581042,,,,,AMP_prac,right,0.667096116929315,,,,,,,,,,,,,,,,,,,,,3,,,left,0.6837426902493462,,,,,,,,,,,,,,1019,2019_May_22_1654,mf_amp_cond1,3.0.7,59.98043578301177,
victim,,&&&&&&,images/symbols/symbol_27.png,condition_files/AMP_rep2.csv,right,care.vice,,,,,,,,,,,,,,,,,,,,,0,0,0,1,0,52,52,52,,,,,,,,,,,,,1210.2629961650819,,,,,AMP_prac,right,0.667096116929315,,,,,,,,,,,,,,,,,,,,,3,,,left,0.5320302930194885,,,,,,,,,,,,,,1019,2019_May_22_1654,mf_amp_cond1,3.0.7,59.98043578301177,
racist,,&&&&&&,images/symbols/symbol_79.png,condition_files/AMP_rep2.csv,right,sanctity.vice,,,,,,,,,,,,,,,,,,,,,0,0,0,1,0,53,53,53,,,,,,,,,,,,,1211.029860751005,,,,,AMP_prac,right,0.667096116929315,,,,,,,,,,,,,,,,,,,,,3,,,right,0.5491457658354193,,,,,,,,,,,,,,1019,2019_May_22_1654,mf_amp_cond1,3.0.7,59.98043578301177,
death,,&&&&&,images/symbols/symbol_74.png,condition_files/AMP_rep2.csv,right,care.vice,,,,,,,,,,,,,,,,,,,,,0,0,0,1,0,54,54,54,,,,,,,,,,,,,1211.6633785972372,,,,,AMP_prac,right,0.667096116929315,,,,,,,,,,,,,,,,,,,,,3,,,left,0.4001848656916991,,,,,,,,,,,,,,1019,2019_May_22_1654,mf_amp_cond1,3.0.7,59.98043578301177,
credit,,&&&&&&,images/symbols/symbol_18.png,condition_files/AMP_rep2.csv,left,fairness.virtue,,,,,,,,,,,,,,,,,,,,,0,0,0,1,0,55,55,55,,,,,,,,,,,,,1212.413606873015,,,,,AMP_prac,right,0.667096116929315,,,,,,,,,,,,,,,,,,,,,3,,,left,0.5170742596965283,,,,,,,,,,,,,,1019,2019_May_22_1654,mf_amp_cond1,3.0.7,59.98043578301177,
attacks,,&&&&&&&,images/symbols/symbol_49.png,condition_files/AMP_rep2.csv,right,care.vice,,,,,,,,,,,,,,,,,,,,,0,0,0,1,0,56,56,56,,,,,,,,,,,,,1213.5638699153205,,,,,AMP_prac,right,0.667096116929315,,,,,,,,,,,,,,,,,,,,,3,,,left,0.9328052921919152,,,,,,,,,,,,,,1019,2019_May_22_1654,mf_amp_cond1,3.0.7,59.98043578301177,
fear,,&&&&,images/symbols/symbol_40.png,condition_files/AMP_rep2.csv,right,sanctity.vice,,,,,,,,,,,,,,,,,,,,,0,0,0,1,0,57,57,57,,,,,,,,,,,,,1214.3974109179107,,,,,AMP_prac,right,0.667096116929315,,,,,,,,,,,,,,,,,,,,,3,,,left,0.6155954301357269,,,,,,,,,,,,,,1019,2019_May_22_1654,mf_amp_cond1,3.0.7,59.98043578301177,
celebrated,,&&&&&&&&&&,images/symbols/symbol_68.png,condition_files/AMP_rep2.csv,left,authority.virtue,,,,,,,,,,,,,,,,,,,,,0,0,0,1,0,58,58,58,,,,,,,,,,,,,1215.1976533216657,,,,,AMP_prac,right,0.667096116929315,,,,,,,,,,,,,,,,,,,,,3,,,right,0.5819597496883944,,,,,,,,,,,,,,1019,2019_May_22_1654,mf_amp_cond1,3.0.7,59.98043578301177,
great,,&&&&&,images/symbols/symbol_30.png,condition_files/AMP_rep2.csv,left,loyalty.virtue,,,,,,,,,,,,,,,,,,,,,0,0,0,1,0,59,59,59,,,,,,,,,,,,,1215.9478245084174,,,,,AMP_prac,right,0.667096116929315,,,,,,,,,,,,,,,,,,,,,3,,,right,0.5327015698421746,,,,,,,,,,,,,,1019,2019_May_22_1654,mf_amp_cond1,3.0.7,59.98043578301177,
pleasant,,&&&&&&&,images/symbols/symbol_4.png,condition_files/AMP_rep2.csv,right,control,,,,,,,,,,,,,,,,,,,,,0,0,0,1,0,60,60,60,,,,,,,,,,,,,1216.7980435153004,,,,,AMP_prac,right,0.667096116929315,,,,,,,,,,,,,,,,,,,,,3,,,left,0.6324360419530421,,,,,,,,,,,,,,1019,2019_May_22_1654,mf_amp_cond1,3.0.7,59.98043578301177,
peaceful,,&&&&&&&&,images/symbols/symbol_45.png,condition_files/AMP_rep2.csv,left,authority.virtue,,,,,,,,,,,,,,,,,,,,,0,0,0,1,0,61,61,61,,,,,,,,,,,,,1217.631604723516,,,,,AMP_prac,right,0.667096116929315,,,,,,,,,,,,,,,,,,,,,3,,,right,0.6158879310823977,,,,,,,,,,,,,,1019,2019_May_22_1654,mf_amp_cond1,3.0.7,59.98043578301177,
agreement,,&&&&&&&&&,images/symbols/symbol_72.png,condition_files/AMP_rep2.csv,left,fairness.virtue,,,,,,,,,,,,,,,,,,,,,0,0,0,1,0,62,62,62,,,,,,,,,,,,,1218.4318208277691,,,,,AMP_prac,right,0.667096116929315,,,,,,,,,,,,,,,,,,,,,3,,,left,0.5670547113986686,,,,,,,,,,,,,,1019,2019_May_22_1654,mf_amp_cond1,3.0.7,59.98043578301177,
violations,,&&&&&&&&&&,images/symbols/symbol_39.png,condition_files/AMP_rep2.csv,right,sanctity.vice,,,,,,,,,,,,,,,,,,,,,0,0,0,1,0,63,63,63,,,,,,,,,,,,,1219.1986966390396,,,,,AMP_prac,right,0.667096116929315,,,,,,,,,,,,,,,,,,,,,3,,,right,0.5487057316349819,,,,,,,,,,,,,,1019,2019_May_22_1654,mf_amp_cond1,3.0.7,59.98043578301177,
progress,,&&&&&&&&,images/symbols/symbol_69.png,condition_files/AMP_rep2.csv,left,authority.virtue,,,,,,,,,,,,,,,,,,,,,0,0,0,1,0,64,64,64,,,,,,,,,,,,,1220.015551939956,,,,,AMP_prac,right,0.667096116929315,,,,,,,,,,,,,,,,,,,,,3,,,left,0.599064959329553,,,,,,,,,,,,,,1019,2019_May_22_1654,mf_amp_cond1,3.0.7,59.98043578301177,
police,,&&&&&&,images/symbols/symbol_26.png,condition_files/AMP_rep2.csv,right,authority.vice,,,,,,,,,,,,,,,,,,,,,0,0,0,1,0,65,65,65,,,,,,,,,,,,,1220.8657959633274,,,,,AMP_prac,right,0.667096116929315,,,,,,,,,,,,,,,,,,,,,3,,,left,0.6320284007815644,,,,,,,,,,,,,,1019,2019_May_22_1654,mf_amp_cond1,3.0.7,59.98043578301177,
ensure,,&&&&&&,images/symbols/symbol_64.png,condition_files/AMP_rep2.csv,left,fairness.virtue,,,,,,,,,,,,,,,,,,,,,0,0,0,1,0,66,66,66,,,,,,,,,,,,,1221.6159748474602,,,,,AMP_prac,right,0.667096116929315,,,,,,,,,,,,,,,,,,,,,3,,,right,0.532433443935588,,,,,,,,,,,,,,1019,2019_May_22_1654,mf_amp_cond1,3.0.7,59.98043578301177,
civilians,,&&&&&&&&&,images/symbols/symbol_46.png,condition_files/AMP_rep2.csv,right,care.vice,,,,,,,,,,,,,,,,,,,,,0,0,0,1,0,67,67,67,,,,,,,,,,,,,1222.3995135889854,,,,,AMP_prac,right,0.667096116929315,,,,,,,,,,,,,,,,,,,,,3,,,left,0.5658580877352506,,,,,,,,,,,,,,1019,2019_May_22_1654,mf_amp_cond1,3.0.7,59.98043578301177,
peace,,&&&&&,images/symbols/symbol_42.png,condition_files/AMP_rep2.csv,left,care.virtue,,,,,,,,,,,,,,,,,,,,,0,0,0,1,0,68,68,68,,,,,,,,,,,,,1223.2330664583715,,,,,AMP_prac,right,0.667096116929315,,,,,,,,,,,,,,,,,,,,,3,,,right,0.6159235315863043,,,,,,,,,,,,,,1019,2019_May_22_1654,mf_amp_cond1,3.0.7,59.98043578301177,
sharing,,&&&&&&&,images/symbols/symbol_41.png,condition_files/AMP_rep2.csv,left,loyalty.virtue,,,,,,,,,,,,,,,,,,,,,0,0,0,1,0,69,69,69,,,,,,,,,,,,,1224.1333015174605,,,,,AMP_prac,right,0.667096116929315,,,,,,,,,,,,,,,,,,,,,3,,,left,0.6831012408947572,,,,,,,,,,,,,,1019,2019_May_22_1654,mf_amp_cond1,3.0.7,59.98043578301177,
freedom,,&&&&&&&,images/symbols/symbol_63.png,condition_files/AMP_rep2.csv,left,sanctity.virtue,,,,,,,,,,,,,,,,,,,,,0,0,0,1,0,70,70,70,,,,,,,,,,,,,1225.000204301672,,,,,AMP_prac,right,0.667096116929315,,,,,,,,,,,,,,,,,,,,,3,,,right,0.6493760782759637,,,,,,,,,,,,,,1019,2019_May_22_1654,mf_amp_cond1,3.0.7,59.98043578301177,
spreussed,,&&&&&&&&&,images/symbols/symbol_22.png,condition_files/AMP_rep2.csv,None,nonword,,,,,,,,,,,,,,,,,,,,,0,0,0,1,0,71,71,71,,,,,,,,,,,,,1225.7503934489796,,,,,AMP_prac,right,0.667096116929315,,,,,,,,,,,,,,,,,,,,,3,,,right,0.532541528227739,,,,,,,,,,,,,,1019,2019_May_22_1654,mf_amp_cond1,3.0.7,59.98043578301177,
clean,,&&&&&,images/symbols/symbol_59.png,condition_files/AMP_rep2.csv,left,sanctity.virtue,,,,,,,,,,,,,,,,,,,,,0,0,0,1,0,72,72,72,,,,,,,,,,,,,1226.517276636907,,,,,AMP_prac,right,0.667096116929315,,,,,,,,,,,,,,,,,,,,,3,,,right,0.5491124105174094,,,,,,,,,,,,,,1019,2019_May_22_1654,mf_amp_cond1,3.0.7,59.98043578301177,
groups,,&&&&&&,images/symbols/symbol_34.png,condition_files/AMP_rep2.csv,right,loyalty.vice,,,,,,,,,,,,,,,,,,,,,0,0,0,1,0,73,73,73,,,,,,,,,,,,,1227.3174815158127,,,,,AMP_prac,right,0.667096116929315,,,,,,,,,,,,,,,,,,,,,3,,,left,0.5823798989877105,,,,,,,,,,,,,,1019,2019_May_22_1654,mf_amp_cond1,3.0.7,59.98043578301177,
died,,&&&&,images/symbols/symbol_80.png,condition_files/AMP_rep2.csv,right,care.vice,,,,,,,,,,,,,,,,,,,,,0,0,0,1,0,74,74,74,,,,,,,,,,,,,1228.1510250841966,,,,,AMP_prac,right,0.667096116929315,,,,,,,,,,,,,,,,,,,,,3,,,right,0.6163478503003716,,,,,,,,,,,,,,1019,2019_May_22_1654,mf_amp_cond1,3.0.7,59.98043578301177,
slavery,,&&&&&&&,images/symbols/symbol_75.png,condition_files/AMP_rep2.csv,right,loyalty.vice,,,,,,,,,,,,,,,,,,,,,0,0,0,1,0,75,75,75,,,,,,,,,,,,,1229.1346225824673,,,,,AMP_prac,right,0.667096116929315,,,,,,,,,,,,,,,,,,,,,3,,,left,0.7660749617498368,,,,,,,,,,,,,,1019,2019_May_22_1654,mf_amp_cond1,3.0.7,59.98043578301177,
suicide,,&&&&&&&,images/symbols/symbol_51.png,condition_files/AMP_rep2.csv,right,care.vice,,,,,,,,,,,,,,,,,,,,,0,0,0,1,0,76,76,76,,,,,,,,,,,,,1230.9684355595382,,,,,AMP_prac,right,0.667096116929315,,,,,,,,,,,,,,,,,,,,,3,,,left,1.6167949405498803,,,,,,,,,,,,,,1019,2019_May_22_1654,mf_amp_cond1,3.0.7,59.98043578301177,
improve,,&&&&&&&,images/symbols/symbol_36.png,condition_files/AMP_rep2.csv,left,care.virtue,,,,,,,,,,,,,,,,,,,,,0,0,0,1,0,77,77,77,,,,,,,,,,,,,1231.768686943571,,,,,AMP_prac,right,0.667096116929315,,,,,,,,,,,,,,,,,,,,,3,,,right,0.5827843329170719,,,,,,,,,,,,,,1019,2019_May_22_1654,mf_amp_cond1,3.0.7,59.98043578301177,
accused,,&&&&&&&,images/symbols/symbol_10.png,condition_files/AMP_rep2.csv,right,fairness.vice,,,,,,,,,,,,,,,,,,,,,0,0,0,1,0,78,78,78,,,,,,,,,,,,,1232.5855146620888,,,,,AMP_prac,right,0.667096116929315,,,,,,,,,,,,,,,,,,,,,3,,,left,0.5994995412183926,,,,,,,,,,,,,,1019,2019_May_22_1654,mf_amp_cond1,3.0.7,59.98043578301177,
dignity,,&&&&&&&,images/symbols/symbol_20.png,condition_files/AMP_rep2.csv,left,sanctity.virtue,,,,,,,,,,,,,,,,,,,,,0,0,0,1,0,79,79,79,,,,,,,,,,,,,1233.6024540569633,,,,,AMP_prac,right,0.667096116929315,,,,,,,,,,,,,,,,,,,,,3,,,left,0.7999996150610968,,,,,,,,,,,,,,1019,2019_May_22_1654,mf_amp_cond1,3.0.7,59.98043578301177,
faith,,&&&&&,images/symbols/symbol_8.png,condition_files/AMP_rep2.csv,left,sanctity.virtue,,,,,,,,,,,,,,,,,,,,,0,0,0,1,0,80,80,80,,,,,,,,,,,,,1235.0194965328556,,,,,AMP_prac,right,0.667096116929315,,,,,,,,,,,,,,,,,,,,,3,,,left,1.1996443804819137,,,,,,,,,,,,,,1019,2019_May_22_1654,mf_amp_cond1,3.0.7,59.98043578301177,
failure,,&&&&&&&,images/symbols/symbol_6.png,condition_files/AMP_rep2.csv,right,loyalty.vice,,,,,,,,,,,,,,,,,,,,,0,0,0,1,0,81,81,81,,,,,,,,,,,,,1236.4532070704736,,,,,AMP_prac,right,0.667096116929315,,,,,,,,,,,,,,,,,,,,,3,,,right,1.2005494656041265,,,,,,,,,,,,,,1019,2019_May_22_1654,mf_amp_cond1,3.0.7,59.98043578301177,
,,,,condition_files/AMP_rep2.csv,,,,,,,,,,,,,,,,,,,,,,,0,0,0,1,,,,,,,,,,,,,,,,,,,,,,,,,,,,,,,,,,,,,,,,,,,,,,,,,,right,5.65168593742419,,,,,,,,,,,,1019,2019_May_22_1654,mf_amp_cond1,3.0.7,59.98043578301177,
knapps,,&&&&&&,images/symbols/symbol_44.png,condition_files/AMP_rep3.csv,None,nonword,,,,,,,,,,,,,,,,,,,,,0,1,1,2,0,0,0,0,,,,,,,,,,,,,1243.4385031266138,,,,,AMP_prac,right,0.667096116929315,,,,,,,,,,,,,,,,,,,,,3,,,left,1.0671873311512172,,,,,,,,,,,,,,1019,2019_May_22_1654,mf_amp_cond1,3.0.7,59.98043578301177,
prosecution,,&&&&&&&&&&&,images/symbols/symbol_50.png,condition_files/AMP_rep3.csv,right,authority.vice,,,,,,,,,,,,,,,,,,,,,0,1,1,2,0,1,1,1,,,,,,,,,,,,,1244.5886760452995,,,,,AMP_prac,right,0.667096116929315,,,,,,,,,,,,,,,,,,,,,3,,,left,0.932185010635294,,,,,,,,,,,,,,1019,2019_May_22_1654,mf_amp_cond1,3.0.7,59.98043578301177,
strong,,&&&&&&,images/symbols/symbol_37.png,condition_files/AMP_rep3.csv,left,loyalty.virtue,,,,,,,,,,,,,,,,,,,,,0,1,1,2,0,2,2,2,,,,,,,,,,,,,1246.572525953874,,,,,AMP_prac,right,0.667096116929315,,,,,,,,,,,,,,,,,,,,,3,,,left,1.7659453889355063,,,,,,,,,,,,,,1019,2019_May_22_1654,mf_amp_cond1,3.0.7,59.98043578301177,
violence,,&&&&&&&&,images/symbols/symbol_76.png,condition_files/AMP_rep3.csv,right,care.vice,,,,,,,,,,,,,,,,,,,,,0,1,1,2,0,3,3,3,,,,,,,,,,,,,1247.6394717792282,,,,,AMP_prac,right,0.667096116929315,,,,,,,,,,,,,,,,,,,,,3,,,left,0.849652286269702,,,,,,,,,,,,,,1019,2019_May_22_1654,mf_amp_cond1,3.0.7,59.98043578301177,
prison,,&&&&&&,images/symbols/symbol_21.png,condition_files/AMP_rep3.csv,right,fairness.vice,,,,,,,,,,,,,,,,,,,,,0,1,1,2,0,4,4,4,,,,,,,,,,,,,1248.3563693837496,,,,,AMP_prac,right,0.667096116929315,,,,,,,,,,,,,,,,,,,,,3,,,left,0.49948668014258146,,,,,,,,,,,,,,1019,2019_May_22_1654,mf_amp_cond1,3.0.7,59.98043578301177,
opportunity,,&&&&&&&&&&&,images/symbols/symbol_60.png,condition_files/AMP_rep3.csv,left,fairness.virtue,,,,,,,,,,,,,,,,,,,,,0,1,1,2,0,5,5,5,,,,,,,,,,,,,1249.5233004878974,,,,,AMP_prac,right,0.667096116929315,,,,,,,,,,,,,,,,,,,,,3,,,right,0.9337992180371657,,,,,,,,,,,,,,1019,2019_May_22_1654,mf_amp_cond1,3.0.7,59.98043578301177,
spewd,,&&&&&,images/symbols/symbol_67.png,condition_files/AMP_rep3.csv,None,nonword,,,,,,,,,,,,,,,,,,,,,0,1,1,2,0,6,6,6,,,,,,,,,,,,,1250.323502159561,,,,,AMP_prac,right,0.667096116929315,,,,,,,,,,,,,,,,,,,,,3,,,right,0.582062702276744,,,,,,,,,,,,,,1019,2019_May_22_1654,mf_amp_cond1,3.0.7,59.98043578301177,
party,,&&&&&,images/symbols/symbol_47.png,condition_files/AMP_rep3.csv,left,loyalty.virtue,,,,,,,,,,,,,,,,,,,,,0,1,1,2,0,7,7,7,,,,,,,,,,,,,1251.1403799111722,,,,,AMP_prac,right,0.667096116929315,,,,,,,,,,,,,,,,,,,,,3,,,right,0.5989927961491048,,,,,,,,,,,,,,1019,2019_May_22_1654,mf_amp_cond1,3.0.7,59.98043578301177,
wraughsed,,&&&&&&&&&,images/symbols/symbol_38.png,condition_files/AMP_rep3.csv,None,nonword,,,,,,,,,,,,,,,,,,,,,0,1,1,2,0,8,8,8,,,,,,,,,,,,,1251.8906129979296,,,,,AMP_prac,right,0.667096116929315,,,,,,,,,,,,,,,,,,,,,3,,,right,0.5320809676777571,,,,,,,,,,,,,,1019,2019_May_22_1654,mf_amp_cond1,3.0.7,59.98043578301177,
loyalty,,&&&&&&&,images/symbols/symbol_1.png,condition_files/AMP_rep3.csv,left,loyalty.virtue,,,,,,,,,,,,,,,,,,,,,0,1,1,2,0,9,9,9,,,,,,,,,,,,,1252.8241633335128,,,,,AMP_prac,right,0.667096116929315,,,,,,,,,,,,,,,,,,,,,3,,,right,0.7156945661408827,,,,,,,,,,,,,,1019,2019_May_22_1654,mf_amp_cond1,3.0.7,59.98043578301177,
values,,&&&&&&,images/symbols/symbol_12.png,condition_files/AMP_rep3.csv,left,sanctity.virtue,,,,,,,,,,,,,,,,,,,,,0,1,1,2,0,10,10,10,,,,,,,,,,,,,1253.641050065402,,,,,AMP_prac,right,0.667096116929315,,,,,,,,,,,,,,,,,,,,,3,,,left,0.5837250183103606,,,,,,,,,,,,,,1019,2019_May_22_1654,mf_amp_cond1,3.0.7,59.98043578301177,
blamed,,&&&&&&,images/symbols/symbol_16.png,condition_files/AMP_rep3.csv,right,loyalty.vice,,,,,,,,,,,,,,,,,,,,,0,1,1,2,0,11,11,11,,,,,,,,,,,,,1254.4245949006872,,,,,AMP_prac,right,0.667096116929315,,,,,,,,,,,,,,,,,,,,,3,,,left,0.5656037529697642,,,,,,,,,,,,,,1019,2019_May_22_1654,mf_amp_cond1,3.0.7,59.98043578301177,
energy,,&&&&&&,images/symbols/symbol_61.png,condition_files/AMP_rep3.csv,left,sanctity.virtue,,,,,,,,,,,,,,,,,,,,,0,1,1,2,0,12,12,12,,,,,,,,,,,,,1255.1747821236495,,,,,AMP_prac,right,0.667096116929315,,,,,,,,,,,,,,,,,,,,,3,,,left,0.5170178121188655,,,,,,,,,,,,,,1019,2019_May_22_1654,mf_amp_cond1,3.0.7,59.98043578301177,
praise,,&&&&&&,images/symbols/symbol_52.png,condition_files/AMP_rep3.csv,left,authority.virtue,,,,,,,,,,,,,,,,,,,,,0,1,1,2,0,13,13,13,,,,,,,,,,,,,1255.9249834585935,,,,,AMP_prac,right,0.667096116929315,,,,,,,,,,,,,,,,,,,,,3,,,left,0.5325938062742352,,,,,,,,,,,,,,1019,2019_May_22_1654,mf_amp_cond1,3.0.7,59.98043578301177,
safety,,&&&&&&,images/symbols/symbol_54.png,condition_files/AMP_rep3.csv,left,care.virtue,,,,,,,,,,,,,,,,,,,,,0,1,1,2,0,14,14,14,,,,,,,,,,,,,1256.8752326456597,,,,,AMP_prac,right,0.667096116929315,,,,,,,,,,,,,,,,,,,,,3,,,right,0.7322404319420457,,,,,,,,,,,,,,1019,2019_May_22_1654,mf_amp_cond1,3.0.7,59.98043578301177,
arrests,,&&&&&&&,images/symbols/symbol_7.png,condition_files/AMP_rep3.csv,right,authority.vice,,,,,,,,,,,,,,,,,,,,,0,1,1,2,0,15,15,15,,,,,,,,,,,,,1257.608751486172,,,,,AMP_prac,right,0.667096116929315,,,,,,,,,,,,,,,,,,,,,3,,,right,0.5157301024300978,,,,,,,,,,,,,,1019,2019_May_22_1654,mf_amp_cond1,3.0.7,59.98043578301177,
ban,,&&&,images/symbols/symbol_24.png,condition_files/AMP_rep3.csv,right,loyalty.vice,,,,,,,,,,,,,,,,,,,,,0,1,1,2,0,16,16,16,,,,,,,,,,,,,1258.3589489724254,,,,,AMP_prac,right,0.667096116929315,,,,,,,,,,,,,,,,,,,,,3,,,right,0.532145753968507,,,,,,,,,,,,,,1019,2019_May_22_1654,mf_amp_cond1,3.0.7,59.98043578301177,
ability,,&&&&&&&,images/symbols/symbol_57.png,condition_files/AMP_rep3.csv,left,authority.virtue,,,,,,,,,,,,,,,,,,,,,0,1,1,2,0,17,17,17,,,,,,,,,,,,,1259.0590078894747,,,,,AMP_prac,right,0.667096116929315,,,,,,,,,,,,,,,,,,,,,3,,,left,0.4822583122877404,,,,,,,,,,,,,,1019,2019_May_22_1654,mf_amp_cond1,3.0.7,59.98043578301177,
praised,,&&&&&&&,images/symbols/symbol_55.png,condition_files/AMP_rep3.csv,left,loyalty.virtue,,,,,,,,,,,,,,,,,,,,,0,1,1,2,0,18,18,18,,,,,,,,,,,,,1260.3594804131426,,,,,AMP_prac,right,0.667096116929315,,,,,,,,,,,,,,,,,,,,,3,,,right,1.0824743524426594,,,,,,,,,,,,,,1019,2019_May_22_1654,mf_amp_cond1,3.0.7,59.98043578301177,
unpleasant,,&&&&&&&&&,images/symbols/symbol_62.png,condition_files/AMP_rep3.csv,left,control,,,,,,,,,,,,,,,,,,,,,0,1,1,2,0,19,19,19,,,,,,,,,,,,,1260.9262862423202,,,,,AMP_prac,right,0.667096116929315,,,,,,,,,,,,,,,,,,,,,3,,,right,0.33364668139256537,,,,,,,,,,,,,,1019,2019_May_22_1654,mf_amp_cond1,3.0.7,59.98043578301177,
creinned,,&&&&&&&&,images/symbols/symbol_66.png,condition_files/AMP_rep3.csv,None,nonword,,,,,,,,,,,,,,,,,,,,,0,1,1,2,0,20,20,20,,,,,,,,,,,,,1261.7931803668616,,,,,AMP_prac,right,0.667096116929315,,,,,,,,,,,,,,,,,,,,,3,,,left,0.6489774173824117,,,,,,,,,,,,,,1019,2019_May_22_1654,mf_amp_cond1,3.0.7,59.98043578301177,
perfect,,&&&&&&&,images/symbols/symbol_70.png,condition_files/AMP_rep3.csv,left,sanctity.virtue,,,,,,,,,,,,,,,,,,,,,0,1,1,2,0,21,21,21,,,,,,,,,,,,,1262.9101521871053,,,,,AMP_prac,right,0.667096116929315,,,,,,,,,,,,,,,,,,,,,3,,,left,0.8989441422745585,,,,,,,,,,,,,,1019,2019_May_22_1654,mf_amp_cond1,3.0.7,59.98043578301177,
phlux,,&&&&&,images/symbols/symbol_32.png,condition_files/AMP_rep3.csv,None,nonword,,,,,,,,,,,,,,,,,,,,,0,1,1,2,0,22,22,22,,,,,,,,,,,,,1263.6437120803166,,,,,AMP_prac,right,0.667096116929315,,,,,,,,,,,,,,,,,,,,,3,,,left,0.5004289691569284,,,,,,,,,,,,,,1019,2019_May_22_1654,mf_amp_cond1,3.0.7,59.98043578301177,
rejected,,&&&&&&&&,images/symbols/symbol_3.png,condition_files/AMP_rep3.csv,right,authority.vice,,,,,,,,,,,,,,,,,,,,,0,1,1,2,0,23,23,23,,,,,,,,,,,,,1264.5772425309988,,,,,AMP_prac,right,0.667096116929315,,,,,,,,,,,,,,,,,,,,,3,,,right,0.7155085458653048,,,,,,,,,,,,,,1019,2019_May_22_1654,mf_amp_cond1,3.0.7,59.98043578301177,
trust,,&&&&&,images/symbols/symbol_2.png,condition_files/AMP_rep3.csv,left,authority.virtue,,,,,,,,,,,,,,,,,,,,,0,1,1,2,0,24,24,24,,,,,,,,,,,,,1265.310780935688,,,,,AMP_prac,right,0.667096116929315,,,,,,,,,,,,,,,,,,,,,3,,,right,0.5156422239961103,,,,,,,,,,,,,,1019,2019_May_22_1654,mf_amp_cond1,3.0.7,59.98043578301177,
benefit,,&&&&&&&,images/symbols/symbol_15.png,condition_files/AMP_rep3.csv,left,fairness.virtue,,,,,,,,,,,,,,,,,,,,,0,1,1,2,0,25,25,25,,,,,,,,,,,,,1266.327704615076,,,,,AMP_prac,right,0.667096116929315,,,,,,,,,,,,,,,,,,,,,3,,,left,0.7987609764095396,,,,,,,,,,,,,,1019,2019_May_22_1654,mf_amp_cond1,3.0.7,59.98043578301177,
good,,&&&&,images/symbols/symbol_71.png,condition_files/AMP_rep3.csv,left,care.virtue,,,,,,,,,,,,,,,,,,,,,0,1,1,2,0,26,26,26,,,,,,,,,,,,,1267.1612677477533,,,,,AMP_prac,right,0.667096116929315,,,,,,,,,,,,,,,,,,,,,3,,,right,0.6156089006690308,,,,,,,,,,,,,,1019,2019_May_22_1654,mf_amp_cond1,3.0.7,59.98043578301177,
spauned,,&&&&&&&,images/symbols/symbol_77.png,condition_files/AMP_rep3.csv,None,nonword,,,,,,,,,,,,,,,,,,,,,0,1,1,2,0,27,27,27,,,,,,,,,,,,,1268.044834424276,,,,,AMP_prac,right,0.667096116929315,,,,,,,,,,,,,,,,,,,,,3,,,left,0.6658654963830486,,,,,,,,,,,,,,1019,2019_May_22_1654,mf_amp_cond1,3.0.7,59.98043578301177,
officers,,&&&&&&&&,images/symbols/symbol_33.png,condition_files/AMP_rep3.csv,right,authority.vice,,,,,,,,,,,,,,,,,,,,,0,1,1,2,0,28,28,28,,,,,,,,,,,,,1268.645053671673,,,,,AMP_prac,right,0.667096116929315,,,,,,,,,,,,,,,,,,,,,3,,,left,0.38245648809242994,,,,,,,,,,,,,,1019,2019_May_22_1654,mf_amp_cond1,3.0.7,59.98043578301177,
restore,,&&&&&&&,images/symbols/symbol_14.png,condition_files/AMP_rep3.csv,left,care.virtue,,,,,,,,,,,,,,,,,,,,,0,1,1,2,0,29,29,29,,,,,,,,,,,,,1269.3118204044877,,,,,AMP_prac,right,0.667096116929315,,,,,,,,,,,,,,,,,,,,,3,,,right,0.44895394041668624,,,,,,,,,,,,,,1019,2019_May_22_1654,mf_amp_cond1,3.0.7,59.98043578301177,
wrantse,,&&&&&&&,images/symbols/symbol_73.png,condition_files/AMP_rep3.csv,None,nonword,,,,,,,,,,,,,,,,,,,,,0,1,1,2,0,30,30,30,,,,,,,,,,,,,1270.1120339429472,,,,,AMP_prac,right,0.667096116929315,,,,,,,,,,,,,,,,,,,,,3,,,right,0.5823661078466102,,,,,,,,,,,,,,1019,2019_May_22_1654,mf_amp_cond1,3.0.7,59.98043578301177,
harassment,,&&&&&&&&&&,images/symbols/symbol_28.png,condition_files/AMP_rep3.csv,right,sanctity.vice,,,,,,,,,,,,,,,,,,,,,0,1,1,2,0,31,31,31,,,,,,,,,,,,,1270.7788677071221,,,,,AMP_prac,right,0.667096116929315,,,,,,,,,,,,,,,,,,,,,3,,,left,0.4491922388551757,,,,,,,,,,,,,,1019,2019_May_22_1654,mf_amp_cond1,3.0.7,59.98043578301177,
critics,,&&&&&&&,images/symbols/symbol_19.png,condition_files/AMP_rep3.csv,right,loyalty.vice,,,,,,,,,,,,,,,,,,,,,0,1,1,2,0,32,32,32,,,,,,,,,,,,,1271.529087002622,,,,,AMP_prac,right,0.667096116929315,,,,,,,,,,,,,,,,,,,,,3,,,left,0.5324953438248485,,,,,,,,,,,,,,1019,2019_May_22_1654,mf_amp_cond1,3.0.7,59.98043578301177,
fraud,,&&&&&,images/symbols/symbol_9.png,condition_files/AMP_rep3.csv,right,fairness.vice,,,,,,,,,,,,,,,,,,,,,0,1,1,2,0,33,33,33,,,,,,,,,,,,,1272.4626610719133,,,,,AMP_prac,right,0.667096116929315,,,,,,,,,,,,,,,,,,,,,3,,,right,0.7158581357216462,,,,,,,,,,,,,,1019,2019_May_22_1654,mf_amp_cond1,3.0.7,59.98043578301177,
crime,,&&&&&,images/symbols/symbol_11.png,condition_files/AMP_rep3.csv,right,fairness.vice,,,,,,,,,,,,,,,,,,,,,0,1,1,2,0,34,34,34,,,,,,,,,,,,,1273.1461805378785,,,,,AMP_prac,right,0.667096116929315,,,,,,,,,,,,,,,,,,,,,3,,,right,0.46585067897103727,,,,,,,,,,,,,,1019,2019_May_22_1654,mf_amp_cond1,3.0.7,59.98043578301177,
forced,,&&&&&&,images/symbols/symbol_17.png,condition_files/AMP_rep3.csv,right,fairness.vice,,,,,,,,,,,,,,,,,,,,,0,1,1,2,0,35,35,35,,,,,,,,,,,,,1274.0297337439843,,,,,AMP_prac,right,0.667096116929315,,,,,,,,,,,,,,,,,,,,,3,,,right,0.6657416967209429,,,,,,,,,,,,,,1019,2019_May_22_1654,mf_amp_cond1,3.0.7,59.98043578301177,
honored,,&&&&&&&,images/symbols/symbol_25.png,condition_files/AMP_rep3.csv,left,authority.virtue,,,,,,,,,,,,,,,,,,,,,0,1,1,2,0,36,36,36,,,,,,,,,,,,,1274.8966204919852,,,,,AMP_prac,right,0.667096116929315,,,,,,,,,,,,,,,,,,,,,3,,,right,0.6490636924281716,,,,,,,,,,,,,,1019,2019_May_22_1654,mf_amp_cond1,3.0.7,59.98043578301177,
protect,,&&&&&&&,images/symbols/symbol_82.png,condition_files/AMP_rep3.csv,left,fairness.virtue,,,,,,,,,,,,,,,,,,,,,0,1,1,2,0,37,37,37,,,,,,,,,,,,,1275.4967775187688,,,,,AMP_prac,right,0.667096116929315,,,,,,,,,,,,,,,,,,,,,3,,,left,0.3824734864756465,,,,,,,,,,,,,,1019,2019_May_22_1654,mf_amp_cond1,3.0.7,59.98043578301177,
win,,&&&,images/symbols/symbol_56.png,condition_files/AMP_rep3.csv,left,fairness.virtue,,,,,,,,,,,,,,,,,,,,,0,1,1,2,0,38,38,38,,,,,,,,,,,,,1276.3302094748942,,,,,AMP_prac,right,0.667096116929315,,,,,,,,,,,,,,,,,,,,,3,,,left,0.6002596586477011,,,,,,,,,,,,,,1019,2019_May_22_1654,mf_amp_cond1,3.0.7,59.98043578301177,
wraize,,&&&&&&,images/symbols/symbol_78.png,condition_files/AMP_rep3.csv,None,nonword,,,,,,,,,,,,,,,,,,,,,0,1,1,2,0,39,39,39,,,,,,,,,,,,,1276.963842140627,,,,,AMP_prac,right,0.667096116929315,,,,,,,,,,,,,,,,,,,,,3,,,right,0.41542602342087775,,,,,,,,,,,,,,1019,2019_May_22_1654,mf_amp_cond1,3.0.7,59.98043578301177,
increase,,&&&&&&&&,images/symbols/symbol_53.png,condition_files/AMP_rep3.csv,left,care.virtue,,,,,,,,,,,,,,,,,,,,,0,1,1,2,0,40,40,40,,,,,,,,,,,,,1277.7807333626552,,,,,AMP_prac,right,0.667096116929315,,,,,,,,,,,,,,,,,,,,,3,,,right,0.5837352816015482,,,,,,,,,,,,,,1019,2019_May_22_1654,mf_amp_cond1,3.0.7,59.98043578301177,
serial,,&&&&&&,images/symbols/symbol_31.png,condition_files/AMP_rep3.csv,right,sanctity.vice,,,,,,,,,,,,,,,,,,,,,0,1,1,2,0,41,41,41,,,,,,,,,,,,,1278.8309954107972,,,,,AMP_prac,right,0.667096116929315,,,,,,,,,,,,,,,,,,,,,3,,,left,0.8171192572917789,,,,,,,,,,,,,,1019,2019_May_22_1654,mf_amp_cond1,3.0.7,59.98043578301177,
support,,&&&&&&&,images/symbols/symbol_65.png,condition_files/AMP_rep3.csv,left,loyalty.virtue,,,,,,,,,,,,,,,,,,,,,0,1,1,2,0,42,42,42,,,,,,,,,,,,,1280.0479990147287,,,,,AMP_prac,right,0.667096116929315,,,,,,,,,,,,,,,,,,,,,3,,,left,0.9989165919832885,,,,,,,,,,,,,,1019,2019_May_22_1654,mf_amp_cond1,3.0.7,59.98043578301177,
gun,,&&&,images/symbols/symbol_48.png,condition_files/AMP_rep3.csv,right,authority.vice,,,,,,,,,,,,,,,,,,,,,0,1,1,2,0,43,43,43,,,,,,,,,,,,,1280.7981705222046,,,,,AMP_prac,right,0.667096116929315,,,,,,,,,,,,,,,,,,,,,3,,,right,0.532044725609012,,,,,,,,,,,,,,1019,2019_May_22_1654,mf_amp_cond1,3.0.7,59.98043578301177,
rebels,,&&&&&&,images/symbols/symbol_23.png,condition_files/AMP_rep3.csv,right,authority.vice,,,,,,,,,,,,,,,,,,,,,0,1,1,2,0,44,44,44,,,,,,,,,,,,,1281.7984405724565,,,,,AMP_prac,right,0.667096116929315,,,,,,,,,,,,,,,,,,,,,3,,,right,0.7819389667129144,,,,,,,,,,,,,,1019,2019_May_22_1654,mf_amp_cond1,3.0.7,59.98043578301177,
stintz,,&&&&&&,images/symbols/symbol_81.png,condition_files/AMP_rep3.csv,None,nonword,,,,,,,,,,,,,,,,,,,,,0,1,1,2,0,45,45,45,,,,,,,,,,,,,1282.465276581701,,,,,AMP_prac,right,0.667096116929315,,,,,,,,,,,,,,,,,,,,,3,,,left,0.449077740078792,,,,,,,,,,,,,,1019,2019_May_22_1654,mf_amp_cond1,3.0.7,59.98043578301177,
illegal,,&&&&&&&,images/symbols/symbol_29.png,condition_files/AMP_rep3.csv,right,fairness.vice,,,,,,,,,,,,,,,,,,,,,0,1,1,2,0,46,46,46,,,,,,,,,,,,,1283.315500399447,,,,,AMP_prac,right,0.667096116929315,,,,,,,,,,,,,,,,,,,,,3,,,right,0.6322262879693881,,,,,,,,,,,,,,1019,2019_May_22_1654,mf_amp_cond1,3.0.7,59.98043578301177,
terrorist,,&&&&&&&&&,images/symbols/symbol_35.png,condition_files/AMP_rep3.csv,right,loyalty.vice,,,,,,,,,,,,,,,,,,,,,0,1,1,2,0,47,47,47,,,,,,,,,,,,,1284.0656991685973,,,,,AMP_prac,right,0.667096116929315,,,,,,,,,,,,,,,,,,,,,3,,,left,0.5323064370313659,,,,,,,,,,,,,,1019,2019_May_22_1654,mf_amp_cond1,3.0.7,59.98043578301177,
health,,&&&&&&,images/symbols/symbol_43.png,condition_files/AMP_rep3.csv,left,care.virtue,,,,,,,,,,,,,,,,,,,,,0,1,1,2,0,48,48,48,,,,,,,,,,,,,1284.8492388721788,,,,,AMP_prac,right,0.667096116929315,,,,,,,,,,,,,,,,,,,,,3,,,left,0.5658952917438,,,,,,,,,,,,,,1019,2019_May_22_1654,mf_amp_cond1,3.0.7,59.98043578301177,
scandal,,&&&&&&&,images/symbols/symbol_5.png,condition_files/AMP_rep3.csv,right,sanctity.vice,,,,,,,,,,,,,,,,,,,,,0,1,1,2,0,49,49,49,,,,,,,,,,,,,1285.7661599537823,,,,,AMP_prac,right,0.667096116929315,,,,,,,,,,,,,,,,,,,,,3,,,right,0.6990200899308547,,,,,,,,,,,,,,1019,2019_May_22_1654,mf_amp_cond1,3.0.7,59.98043578301177,
hate,,&&&&,images/symbols/symbol_13.png,condition_files/AMP_rep3.csv,right,fairness.vice,,,,,,,,,,,,,,,,,,,,,0,1,1,2,0,50,50,50,,,,,,,,,,,,,1286.749733718345,,,,,AMP_prac,right,0.667096116929315,,,,,,,,,,,,,,,,,,,,,3,,,right,0.7659922147868201,,,,,,,,,,,,,,1019,2019_May_22_1654,mf_amp_cond1,3.0.7,59.98043578301177,
conspiracy,,&&&&&&&&&&,images/symbols/symbol_58.png,condition_files/AMP_rep3.csv,right,sanctity.vice,,,,,,,,,,,,,,,,,,,,,0,1,1,2,0,51,51,51,,,,,,,,,,,,,1287.49993665691,,,,,AMP_prac,right,0.667096116929315,,,,,,,,,,,,,,,,,,,,,3,,,right,0.5170389799168333,,,,,,,,,,,,,,1019,2019_May_22_1654,mf_amp_cond1,3.0.7,59.98043578301177,
victim,,&&&&&&,images/symbols/symbol_27.png,condition_files/AMP_rep3.csv,right,care.vice,,,,,,,,,,,,,,,,,,,,,0,1,1,2,0,52,52,52,,,,,,,,,,,,,1288.3501585501945,,,,,AMP_prac,right,0.667096116929315,,,,,,,,,,,,,,,,,,,,,3,,,left,0.632351691252552,,,,,,,,,,,,,,1019,2019_May_22_1654,mf_amp_cond1,3.0.7,59.98043578301177,
racist,,&&&&&&,images/symbols/symbol_79.png,condition_files/AMP_rep3.csv,right,sanctity.vice,,,,,,,,,,,,,,,,,,,,,0,1,1,2,0,53,53,53,,,,,,,,,,,,,1289.0336748089176,,,,,AMP_prac,right,0.667096116929315,,,,,,,,,,,,,,,,,,,,,3,,,right,0.4657336144009605,,,,,,,,,,,,,,1019,2019_May_22_1654,mf_amp_cond1,3.0.7,59.98043578301177,
death,,&&&&&,images/symbols/symbol_74.png,condition_files/AMP_rep3.csv,right,care.vice,,,,,,,,,,,,,,,,,,,,,0,1,1,2,0,54,54,54,,,,,,,,,,,,,1289.7171827286948,,,,,AMP_prac,right,0.667096116929315,,,,,,,,,,,,,,,,,,,,,3,,,right,0.4503484512679279,,,,,,,,,,,,,,1019,2019_May_22_1654,mf_amp_cond1,3.0.7,59.98043578301177,
credit,,&&&&&&,images/symbols/symbol_18.png,condition_files/AMP_rep3.csv,left,fairness.virtue,,,,,,,,,,,,,,,,,,,,,0,1,1,2,0,55,55,55,,,,,,,,,,,,,1290.450758337509,,,,,AMP_prac,right,0.667096116929315,,,,,,,,,,,,,,,,,,,,,3,,,left,0.5004312143428251,,,,,,,,,,,,,,1019,2019_May_22_1654,mf_amp_cond1,3.0.7,59.98043578301177,
attacks,,&&&&&&&,images/symbols/symbol_49.png,condition_files/AMP_rep3.csv,right,care.vice,,,,,,,,,,,,,,,,,,,,,0,1,1,2,0,56,56,56,,,,,,,,,,,,,1291.1675943628652,,,,,AMP_prac,right,0.667096116929315,,,,,,,,,,,,,,,,,,,,,3,,,right,0.49941612069960684,,,,,,,,,,,,,,1019,2019_May_22_1654,mf_amp_cond1,3.0.7,59.98043578301177,
fear,,&&&&,images/symbols/symbol_40.png,condition_files/AMP_rep3.csv,right,sanctity.vice,,,,,,,,,,,,,,,,,,,,,0,1,1,2,0,57,57,57,,,,,,,,,,,,,1291.8343963753432,,,,,AMP_prac,right,0.667096116929315,,,,,,,,,,,,,,,,,,,,,3,,,right,0.44878748431801796,,,,,,,,,,,,,,1019,2019_May_22_1654,mf_amp_cond1,3.0.7,59.98043578301177,
celebrated,,&&&&&&&&&&,images/symbols/symbol_68.png,condition_files/AMP_rep3.csv,left,authority.virtue,,,,,,,,,,,,,,,,,,,,,0,1,1,2,0,58,58,58,,,,,,,,,,,,,1292.8013264531037,,,,,AMP_prac,right,0.667096116929315,,,,,,,,,,,,,,,,,,,,,3,,,left,0.7488674409687519,,,,,,,,,,,,,,1019,2019_May_22_1654,mf_amp_cond1,3.0.7,59.98043578301177,
great,,&&&&&,images/symbols/symbol_30.png,condition_files/AMP_rep3.csv,left,loyalty.virtue,,,,,,,,,,,,,,,,,,,,,0,1,1,2,0,59,59,59,,,,,,,,,,,,,1293.2847736919066,,,,,AMP_prac,right,0.667096116929315,,,,,,,,,,,,,,,,,,,,,3,,,right,0.265841955319047,,,,,,,,,,,,,,1019,2019_May_22_1654,mf_amp_cond1,3.0.7,59.98043578301177,
pleasant,,&&&&&&&,images/symbols/symbol_4.png,condition_files/AMP_rep3.csv,right,control,,,,,,,,,,,,,,,,,,,,,0,1,1,2,0,60,60,60,,,,,,,,,,,,,1293.868280938128,,,,,AMP_prac,right,0.667096116929315,,,,,,,,,,,,,,,,,,,,,3,,,left,0.36554948636330664,,,,,,,,,,,,,,1019,2019_May_22_1654,mf_amp_cond1,3.0.7,59.98043578301177,
peaceful,,&&&&&&&&,images/symbols/symbol_45.png,condition_files/AMP_rep3.csv,left,authority.virtue,,,,,,,,,,,,,,,,,,,,,0,1,1,2,0,61,61,61,,,,,,,,,,,,,1294.8852036553435,,,,,AMP_prac,right,0.667096116929315,,,,,,,,,,,,,,,,,,,,,3,,,right,0.7991477703908458,,,,,,,,,,,,,,1019,2019_May_22_1654,mf_amp_cond1,3.0.7,59.98043578301177,
agreement,,&&&&&&&&&,images/symbols/symbol_72.png,condition_files/AMP_rep3.csv,left,fairness.virtue,,,,,,,,,,,,,,,,,,,,,0,1,1,2,0,62,62,62,,,,,,,,,,,,,1295.5353709614137,,,,,AMP_prac,right,0.667096116929315,,,,,,,,,,,,,,,,,,,,,3,,,right,0.41700078162830323,,,,,,,,,,,,,,1019,2019_May_22_1654,mf_amp_cond1,3.0.7,59.98043578301177,
violations,,&&&&&&&&&&,images/symbols/symbol_39.png,condition_files/AMP_rep3.csv,right,sanctity.vice,,,,,,,,,,,,,,,,,,,,,0,1,1,2,0,63,63,63,,,,,,,,,,,,,1296.5356541612418,,,,,AMP_prac,right,0.667096116929315,,,,,,,,,,,,,,,,,,,,,3,,,right,0.7825730394106358,,,,,,,,,,,,,,1019,2019_May_22_1654,mf_amp_cond1,3.0.7,59.98043578301177,
progress,,&&&&&&&&,images/symbols/symbol_69.png,condition_files/AMP_rep3.csv,left,authority.virtue,,,,,,,,,,,,,,,,,,,,,0,1,1,2,0,64,64,64,,,,,,,,,,,,,1297.0857938529225,,,,,AMP_prac,right,0.667096116929315,,,,,,,,,,,,,,,,,,,,,3,,,right,0.33215819811448455,,,,,,,,,,,,,,1019,2019_May_22_1654,mf_amp_cond1,3.0.7,59.98043578301177,
police,,&&&&&&,images/symbols/symbol_26.png,condition_files/AMP_rep3.csv,right,authority.vice,,,,,,,,,,,,,,,,,,,,,0,1,1,2,0,65,65,65,,,,,,,,,,,,,1297.8693204068113,,,,,AMP_prac,right,0.667096116929315,,,,,,,,,,,,,,,,,,,,,3,,,right,0.5653320990968496,,,,,,,,,,,,,,1019,2019_May_22_1654,mf_amp_cond1,3.0.7,59.98043578301177,
ensure,,&&&&&&,images/symbols/symbol_64.png,condition_files/AMP_rep3.csv,left,fairness.virtue,,,,,,,,,,,,,,,,,,,,,0,1,1,2,0,66,66,66,,,,,,,,,,,,,1298.4528029573848,,,,,AMP_prac,right,0.667096116929315,,,,,,,,,,,,,,,,,,,,,3,,,left,0.36553120508324355,,,,,,,,,,,,,,1019,2019_May_22_1654,mf_amp_cond1,3.0.7,59.98043578301177,
civilians,,&&&&&&&&&,images/symbols/symbol_46.png,condition_files/AMP_rep3.csv,right,care.vice,,,,,,,,,,,,,,,,,,,,,0,1,1,2,0,67,67,67,,,,,,,,,,,,,1299.5531137716025,,,,,AMP_prac,right,0.667096116929315,,,,,,,,,,,,,,,,,,,,,3,,,right,0.882390899816528,,,,,,,,,,,,,,1019,2019_May_22_1654,mf_amp_cond1,3.0.7,59.98043578301177,
peace,,&&&&&,images/symbols/symbol_42.png,condition_files/AMP_rep3.csv,left,care.virtue,,,,,,,,,,,,,,,,,,,,,0,1,1,2,0,68,68,68,,,,,,,,,,,,,1300.0365465776995,,,,,AMP_prac,right,0.667096116929315,,,,,,,,,,,,,,,,,,,,,3,,,left,0.26570211921352893,,,,,,,,,,,,,,1019,2019_May_22_1654,mf_amp_cond1,3.0.7,59.98043578301177,
sharing,,&&&&&&&,images/symbols/symbol_41.png,condition_files/AMP_rep3.csv,left,loyalty.virtue,,,,,,,,,,,,,,,,,,,,,0,1,1,2,0,69,69,69,,,,,,,,,,,,,1300.803431689972,,,,,AMP_prac,right,0.667096116929315,,,,,,,,,,,,,,,,,,,,,3,,,left,0.5497798385331407,,,,,,,,,,,,,,1019,2019_May_22_1654,mf_amp_cond1,3.0.7,59.98043578301177,
freedom,,&&&&&&&,images/symbols/symbol_63.png,condition_files/AMP_rep3.csv,left,sanctity.virtue,,,,,,,,,,,,,,,,,,,,,0,1,1,2,0,70,70,70,,,,,,,,,,,,,1301.5702937101014,,,,,AMP_prac,right,0.667096116929315,,,,,,,,,,,,,,,,,,,,,3,,,right,0.5494863755302504,,,,,,,,,,,,,,1019,2019_May_22_1654,mf_amp_cond1,3.0.7,59.98043578301177,
spreussed,,&&&&&&&&&,images/symbols/symbol_22.png,condition_files/AMP_rep3.csv,None,nonword,,,,,,,,,,,,,,,,,,,,,0,1,1,2,0,71,71,71,,,,,,,,,,,,,1302.537211921066,,,,,AMP_prac,right,0.667096116929315,,,,,,,,,,,,,,,,,,,,,3,,,right,0.7494017683202401,,,,,,,,,,,,,,1019,2019_May_22_1654,mf_amp_cond1,3.0.7,59.98043578301177,
clean,,&&&&&,images/symbols/symbol_59.png,condition_files/AMP_rep3.csv,left,sanctity.virtue,,,,,,,,,,,,,,,,,,,,,0,1,1,2,0,72,72,72,,,,,,,,,,,,,1303.1207220539218,,,,,AMP_prac,right,0.667096116929315,,,,,,,,,,,,,,,,,,,,,3,,,left,0.36596065550111234,,,,,,,,,,,,,,1019,2019_May_22_1654,mf_amp_cond1,3.0.7,59.98043578301177,
groups,,&&&&&&,images/symbols/symbol_34.png,condition_files/AMP_rep3.csv,right,loyalty.vice,,,,,,,,,,,,,,,,,,,,,0,1,1,2,0,73,73,73,,,,,,,,,,,,,1303.654163535568,,,,,AMP_prac,right,0.667096116929315,,,,,,,,,,,,,,,,,,,,,3,,,right,0.3157726946519688,,,,,,,,,,,,,,1019,2019_May_22_1654,mf_amp_cond1,3.0.7,59.98043578301177,
died,,&&&&,images/symbols/symbol_80.png,condition_files/AMP_rep3.csv,right,care.vice,,,,,,,,,,,,,,,,,,,,,0,1,1,2,0,74,74,74,,,,,,,,,,,,,1304.421035818872,,,,,AMP_prac,right,0.667096116929315,,,,,,,,,,,,,,,,,,,,,3,,,right,0.5497808007057756,,,,,,,,,,,,,,1019,2019_May_22_1654,mf_amp_cond1,3.0.7,59.98043578301177,
slavery,,&&&&&&&,images/symbols/symbol_75.png,condition_files/AMP_rep3.csv,right,loyalty.vice,,,,,,,,,,,,,,,,,,,,,0,1,1,2,0,75,75,75,,,,,,,,,,,,,1305.171226569917,,,,,AMP_prac,right,0.667096116929315,,,,,,,,,,,,,,,,,,,,,3,,,left,0.5326082389801741,,,,,,,,,,,,,,1019,2019_May_22_1654,mf_amp_cond1,3.0.7,59.98043578301177,
suicide,,&&&&&&&,images/symbols/symbol_51.png,condition_files/AMP_rep3.csv,right,care.vice,,,,,,,,,,,,,,,,,,,,,0,1,1,2,0,76,76,76,,,,,,,,,,,,,1305.988194124424,,,,,AMP_prac,right,0.667096116929315,,,,,,,,,,,,,,,,,,,,,3,,,left,0.5999062201008201,,,,,,,,,,,,,,1019,2019_May_22_1654,mf_amp_cond1,3.0.7,59.98043578301177,
improve,,&&&&&&&,images/symbols/symbol_36.png,condition_files/AMP_rep3.csv,left,care.virtue,,,,,,,,,,,,,,,,,,,,,0,1,1,2,0,77,77,77,,,,,,,,,,,,,1306.955138314166,,,,,AMP_prac,right,0.667096116929315,,,,,,,,,,,,,,,,,,,,,3,,,right,0.7495233229128644,,,,,,,,,,,,,,1019,2019_May_22_1654,mf_amp_cond1,3.0.7,59.98043578301177,
accused,,&&&&&&&,images/symbols/symbol_10.png,condition_files/AMP_rep3.csv,right,fairness.vice,,,,,,,,,,,,,,,,,,,,,0,1,1,2,0,78,78,78,,,,,,,,,,,,,1307.3884915644303,,,,,AMP_prac,right,0.667096116929315,,,,,,,,,,,,,,,,,,,,,3,,,left,0.21608953864779323,,,,,,,,,,,,,,1019,2019_May_22_1654,mf_amp_cond1,3.0.7,59.98043578301177,
dignity,,&&&&&&&,images/symbols/symbol_20.png,condition_files/AMP_rep3.csv,left,sanctity.virtue,,,,,,,,,,,,,,,,,,,,,0,1,1,2,0,79,79,79,,,,,,,,,,,,,1308.4221022283891,,,,,AMP_prac,right,0.667096116929315,,,,,,,,,,,,,,,,,,,,,3,,,left,0.8166519614169374,,,,,,,,,,,,,,1019,2019_May_22_1654,mf_amp_cond1,3.0.7,59.98043578301177,
faith,,&&&&&,images/symbols/symbol_8.png,condition_files/AMP_rep3.csv,left,sanctity.virtue,,,,,,,,,,,,,,,,,,,,,0,1,1,2,0,80,80,80,,,,,,,,,,,,,1309.405692350003,,,,,AMP_prac,right,0.667096116929315,,,,,,,,,,,,,,,,,,,,,3,,,right,0.7662276267074049,,,,,,,,,,,,,,1019,2019_May_22_1654,mf_amp_cond1,3.0.7,59.98043578301177,
failure,,&&&&&&&,images/symbols/symbol_6.png,condition_files/AMP_rep3.csv,right,loyalty.vice,,,,,,,,,,,,,,,,,,,,,0,1,1,2,0,81,81,81,,,,,,,,,,,,,1310.1058821227634,,,,,AMP_prac,right,0.667096116929315,,,,,,,,,,,,,,,,,,,,,3,,,left,0.4670120229711756,,,,,,,,,,,,,,1019,2019_May_22_1654,mf_amp_cond1,3.0.7,59.98043578301177,
,,,,condition_files/AMP_rep3.csv,,,,,,,,,,,,,,,,,,,,,,,0,1,1,2,,,,,,,,,,,,,,,,,,,,,,,,,,,,,,,,,,,,,,,,,,,,,,,,,,right,4.134642467368394,,,,,,,,,,,,1019,2019_May_22_1654,mf_amp_cond1,3.0.7,59.98043578301177,
knapps,,&&&&&&,images/symbols/symbol_44.png,condition_files/AMP_rep4.csv,None,nonword,,,,,,,,,,,,,,,,,,,,,0,2,2,3,0,0,0,0,,,,,,,,,,,,,1316.490999663598,,,,,AMP_prac,right,0.667096116929315,,,,,,,,,,,,,,,,,,,,,3,,,left,1.9840837168740109,,,,,,,,,,,,,,1019,2019_May_22_1654,mf_amp_cond1,3.0.7,59.98043578301177,
prosecution,,&&&&&&&&&&&,images/symbols/symbol_50.png,condition_files/AMP_rep4.csv,right,authority.vice,,,,,,,,,,,,,,,,,,,,,0,2,2,3,0,1,1,1,,,,,,,,,,,,,1317.3911404296523,,,,,AMP_prac,right,0.667096116929315,,,,,,,,,,,,,,,,,,,,,3,,,left,0.6821057115448639,,,,,,,,,,,,,,1019,2019_May_22_1654,mf_amp_cond1,3.0.7,59.98043578301177,
strong,,&&&&&&,images/symbols/symbol_37.png,condition_files/AMP_rep4.csv,left,loyalty.virtue,,,,,,,,,,,,,,,,,,,,,0,2,2,3,0,2,2,2,,,,,,,,,,,,,1318.3747180429054,,,,,AMP_prac,right,0.667096116929315,,,,,,,,,,,,,,,,,,,,,3,,,left,0.7650595473824069,,,,,,,,,,,,,,1019,2019_May_22_1654,mf_amp_cond1,3.0.7,59.98043578301177,
violence,,&&&&&&&&,images/symbols/symbol_76.png,condition_files/AMP_rep4.csv,right,care.vice,,,,,,,,,,,,,,,,,,,,,0,2,2,3,0,3,3,3,,,,,,,,,,,,,1319.6917091707,,,,,AMP_prac,right,0.667096116929315,,,,,,,,,,,,,,,,,,,,,3,,,left,1.0994387639220804,,,,,,,,,,,,,,1019,2019_May_22_1654,mf_amp_cond1,3.0.7,59.98043578301177,
prison,,&&&&&&,images/symbols/symbol_21.png,condition_files/AMP_rep4.csv,right,fairness.vice,,,,,,,,,,,,,,,,,,,,,0,2,2,3,0,4,4,4,,,,,,,,,,,,,1320.5919625111856,,,,,AMP_prac,right,0.667096116929315,,,,,,,,,,,,,,,,,,,,,3,,,left,0.6828481891425326,,,,,,,,,,,,,,1019,2019_May_22_1654,mf_amp_cond1,3.0.7,59.98043578301177,
opportunity,,&&&&&&&&&&&,images/symbols/symbol_60.png,condition_files/AMP_rep4.csv,left,fairness.virtue,,,,,,,,,,,,,,,,,,,,,0,2,2,3,0,5,5,5,,,,,,,,,,,,,1321.542206566548,,,,,AMP_prac,right,0.667096116929315,,,,,,,,,,,,,,,,,,,,,3,,,left,0.7170865113148466,,,,,,,,,,,,,,1019,2019_May_22_1654,mf_amp_cond1,3.0.7,59.98043578301177,
spewd,,&&&&&,images/symbols/symbol_67.png,condition_files/AMP_rep4.csv,None,nonword,,,,,,,,,,,,,,,,,,,,,0,2,2,3,0,6,6,6,,,,,,,,,,,,,1323.1926397533389,,,,,AMP_prac,right,0.667096116929315,,,,,,,,,,,,,,,,,,,,,3,,,left,1.4326710689347237,,,,,,,,,,,,,,1019,2019_May_22_1654,mf_amp_cond1,3.0.7,59.98043578301177,
party,,&&&&&,images/symbols/symbol_47.png,condition_files/AMP_rep4.csv,left,loyalty.virtue,,,,,,,,,,,,,,,,,,,,,0,2,2,3,0,7,7,7,,,,,,,,,,,,,1324.0261839631712,,,,,AMP_prac,right,0.667096116929315,,,,,,,,,,,,,,,,,,,,,3,,,right,0.6158237861236557,,,,,,,,,,,,,,1019,2019_May_22_1654,mf_amp_cond1,3.0.7,59.98043578301177,
wraughsed,,&&&&&&&&&,images/symbols/symbol_38.png,condition_files/AMP_rep4.csv,None,nonword,,,,,,,,,,,,,,,,,,,,,0,2,2,3,0,8,8,8,,,,,,,,,,,,,1324.9597573910141,,,,,AMP_prac,right,0.667096116929315,,,,,,,,,,,,,,,,,,,,,3,,,left,0.7156631351681426,,,,,,,,,,,,,,1019,2019_May_22_1654,mf_amp_cond1,3.0.7,59.98043578301177,
loyalty,,&&&&&&&,images/symbols/symbol_1.png,condition_files/AMP_rep4.csv,left,loyalty.virtue,,,,,,,,,,,,,,,,,,,,,0,2,2,3,0,9,9,9,,,,,,,,,,,,,1325.9100117096677,,,,,AMP_prac,right,0.667096116929315,,,,,,,,,,,,,,,,,,,,,3,,,right,0.7324341495987028,,,,,,,,,,,,,,1019,2019_May_22_1654,mf_amp_cond1,3.0.7,59.98043578301177,
values,,&&&&&&,images/symbols/symbol_12.png,condition_files/AMP_rep4.csv,left,sanctity.virtue,,,,,,,,,,,,,,,,,,,,,0,2,2,3,0,10,10,10,,,,,,,,,,,,,1327.1770124431932,,,,,AMP_prac,right,0.667096116929315,,,,,,,,,,,,,,,,,,,,,3,,,right,1.0338274738751352,,,,,,,,,,,,,,1019,2019_May_22_1654,mf_amp_cond1,3.0.7,59.98043578301177,
blamed,,&&&&&&,images/symbols/symbol_16.png,condition_files/AMP_rep4.csv,right,loyalty.vice,,,,,,,,,,,,,,,,,,,,,0,2,2,3,0,11,11,11,,,,,,,,,,,,,1328.9274835075485,,,,,AMP_prac,right,0.667096116929315,,,,,,,,,,,,,,,,,,,,,3,,,left,1.533026784658432,,,,,,,,,,,,,,1019,2019_May_22_1654,mf_amp_cond1,3.0.7,59.98043578301177,
energy,,&&&&&&,images/symbols/symbol_61.png,condition_files/AMP_rep4.csv,left,sanctity.virtue,,,,,,,,,,,,,,,,,,,,,0,2,2,3,0,12,12,12,,,,,,,,,,,,,1329.961090643541,,,,,AMP_prac,right,0.667096116929315,,,,,,,,,,,,,,,,,,,,,3,,,right,0.8004604964517057,,,,,,,,,,,,,,1019,2019_May_22_1654,mf_amp_cond1,3.0.7,59.98043578301177,
praise,,&&&&&&,images/symbols/symbol_52.png,condition_files/AMP_rep4.csv,left,authority.virtue,,,,,,,,,,,,,,,,,,,,,0,2,2,3,0,13,13,13,,,,,,,,,,,,,1331.1113716465188,,,,,AMP_prac,right,0.667096116929315,,,,,,,,,,,,,,,,,,,,,3,,,left,0.9327972742030397,,,,,,,,,,,,,,1019,2019_May_22_1654,mf_amp_cond1,3.0.7,59.98043578301177,
safety,,&&&&&&,images/symbols/symbol_54.png,condition_files/AMP_rep4.csv,left,care.virtue,,,,,,,,,,,,,,,,,,,,,0,2,2,3,0,14,14,14,,,,,,,,,,,,,1332.1115053886315,,,,,AMP_prac,right,0.667096116929315,,,,,,,,,,,,,,,,,,,,,3,,,right,0.7820188271580264,,,,,,,,,,,,,,1019,2019_May_22_1654,mf_amp_cond1,3.0.7,59.98043578301177,
arrests,,&&&&&&&,images/symbols/symbol_7.png,condition_files/AMP_rep4.csv,right,authority.vice,,,,,,,,,,,,,,,,,,,,,0,2,2,3,0,15,15,15,,,,,,,,,,,,,1333.3953246038873,,,,,AMP_prac,right,0.667096116929315,,,,,,,,,,,,,,,,,,,,,3,,,left,1.0659586349502206,,,,,,,,,,,,,,1019,2019_May_22_1654,mf_amp_cond1,3.0.7,59.98043578301177,
ban,,&&&,images/symbols/symbol_24.png,condition_files/AMP_rep4.csv,right,loyalty.vice,,,,,,,,,,,,,,,,,,,,,0,2,2,3,0,16,16,16,,,,,,,,,,,,,1334.4289096097928,,,,,AMP_prac,right,0.667096116929315,,,,,,,,,,,,,,,,,,,,,3,,,right,0.8004412529990077,,,,,,,,,,,,,,1019,2019_May_22_1654,mf_amp_cond1,3.0.7,59.98043578301177,
ability,,&&&&&&&,images/symbols/symbol_57.png,condition_files/AMP_rep4.csv,left,authority.virtue,,,,,,,,,,,,,,,,,,,,,0,2,2,3,0,17,17,17,,,,,,,,,,,,,1335.7292554472806,,,,,AMP_prac,right,0.667096116929315,,,,,,,,,,,,,,,,,,,,,3,,,right,1.0823768521659076,,,,,,,,,,,,,,1019,2019_May_22_1654,mf_amp_cond1,3.0.7,59.98043578301177,
praised,,&&&&&&&,images/symbols/symbol_55.png,condition_files/AMP_rep4.csv,left,loyalty.virtue,,,,,,,,,,,,,,,,,,,,,0,2,2,3,0,18,18,18,,,,,,,,,,,,,1336.5294677028432,,,,,AMP_prac,right,0.667096116929315,,,,,,,,,,,,,,,,,,,,,3,,,right,0.5824017082341015,,,,,,,,,,,,,,1019,2019_May_22_1654,mf_amp_cond1,3.0.7,59.98043578301177,
unpleasant,,&&&&&&&&&,images/symbols/symbol_62.png,condition_files/AMP_rep4.csv,left,control,,,,,,,,,,,,,,,,,,,,,0,2,2,3,0,19,19,19,,,,,,,,,,,,,1337.413026361377,,,,,AMP_prac,right,0.667096116929315,,,,,,,,,,,,,,,,,,,,,3,,,right,0.6503911719191819,,,,,,,,,,,,,,1019,2019_May_22_1654,mf_amp_cond1,3.0.7,59.98043578301177,
creinned,,&&&&&&&&,images/symbols/symbol_66.png,condition_files/AMP_rep4.csv,None,nonword,,,,,,,,,,,,,,,,,,,,,0,2,2,3,0,20,20,20,,,,,,,,,,,,,1338.1798928715289,,,,,AMP_prac,right,0.667096116929315,,,,,,,,,,,,,,,,,,,,,3,,,right,0.5491262016585097,,,,,,,,,,,,,,1019,2019_May_22_1654,mf_amp_cond1,3.0.7,59.98043578301177,
perfect,,&&&&&&&,images/symbols/symbol_70.png,condition_files/AMP_rep4.csv,left,sanctity.virtue,,,,,,,,,,,,,,,,,,,,,0,2,2,3,0,21,21,21,,,,,,,,,,,,,1338.9467770216288,,,,,AMP_prac,right,0.667096116929315,,,,,,,,,,,,,,,,,,,,,3,,,right,0.5490328707965091,,,,,,,,,,,,,,1019,2019_May_22_1654,mf_amp_cond1,3.0.7,59.98043578301177,
phlux,,&&&&&,images/symbols/symbol_32.png,condition_files/AMP_rep4.csv,None,nonword,,,,,,,,,,,,,,,,,,,,,0,2,2,3,0,22,22,22,,,,,,,,,,,,,1339.663615933503,,,,,AMP_prac,right,0.667096116929315,,,,,,,,,,,,,,,,,,,,,3,,,right,0.483691630885005,,,,,,,,,,,,,,1019,2019_May_22_1654,mf_amp_cond1,3.0.7,59.98043578301177,
rejected,,&&&&&&&&,images/symbols/symbol_3.png,condition_files/AMP_rep4.csv,right,authority.vice,,,,,,,,,,,,,,,,,,,,,0,2,2,3,0,23,23,23,,,,,,,,,,,,,1340.2137649260694,,,,,AMP_prac,right,0.667096116929315,,,,,,,,,,,,,,,,,,,,,3,,,right,0.3321299742674455,,,,,,,,,,,,,,1019,2019_May_22_1654,mf_amp_cond1,3.0.7,59.98043578301177,
trust,,&&&&&,images/symbols/symbol_2.png,condition_files/AMP_rep4.csv,left,authority.virtue,,,,,,,,,,,,,,,,,,,,,0,2,2,3,0,24,24,24,,,,,,,,,,,,,1340.830582317314,,,,,AMP_prac,right,0.667096116929315,,,,,,,,,,,,,,,,,,,,,3,,,left,0.3990187107119709,,,,,,,,,,,,,,1019,2019_May_22_1654,mf_amp_cond1,3.0.7,59.98043578301177,
benefit,,&&&&&&&,images/symbols/symbol_15.png,condition_files/AMP_rep4.csv,left,fairness.virtue,,,,,,,,,,,,,,,,,,,,,0,2,2,3,0,25,25,25,,,,,,,,,,,,,1341.197360820719,,,,,AMP_prac,right,0.667096116929315,,,,,,,,,,,,,,,,,,,,,3,,,right,0.14915686286985874,,,,,,,,,,,,,,1019,2019_May_22_1654,mf_amp_cond1,3.0.7,59.98043578301177,
good,,&&&&,images/symbols/symbol_71.png,condition_files/AMP_rep4.csv,left,care.virtue,,,,,,,,,,,,,,,,,,,,,0,2,2,3,0,26,26,26,,,,,,,,,,,,,1341.614119134494,,,,,AMP_prac,right,0.667096116929315,,,,,,,,,,,,,,,,,,,,,3,,,right,0.19921332655940205,,,,,,,,,,,,,,1019,2019_May_22_1654,mf_amp_cond1,3.0.7,59.98043578301177,
spauned,,&&&&&&&,images/symbols/symbol_77.png,condition_files/AMP_rep4.csv,None,nonword,,,,,,,,,,,,,,,,,,,,,0,2,2,3,0,27,27,27,,,,,,,,,,,,,1341.9142263527028,,,,,AMP_prac,right,0.667096116929315,,,,,,,,,,,,,,,,,,,,,3,,,left,0.08252021600492299,,,,,,,,,,,,,,1019,2019_May_22_1654,mf_amp_cond1,3.0.7,59.98043578301177,
officers,,&&&&&&&&,images/symbols/symbol_33.png,condition_files/AMP_rep4.csv,right,authority.vice,,,,,,,,,,,,,,,,,,,,,0,2,2,3,0,28,28,28,,,,,,,,,,,,,1342.431003942038,,,,,AMP_prac,right,0.667096116929315,,,,,,,,,,,,,,,,,,,,,3,,,right,0.2992184901377186,,,,,,,,,,,,,,1019,2019_May_22_1654,mf_amp_cond1,3.0.7,59.98043578301177,
restore,,&&&&&&&,images/symbols/symbol_14.png,condition_files/AMP_rep4.csv,left,care.virtue,,,,,,,,,,,,,,,,,,,,,0,2,2,3,0,29,29,29,,,,,,,,,,,,,1343.1311972427648,,,,,AMP_prac,right,0.667096116929315,,,,,,,,,,,,,,,,,,,,,3,,,right,0.4823872435372323,,,,,,,,,,,,,,1019,2019_May_22_1654,mf_amp_cond1,3.0.7,59.98043578301177,
wrantse,,&&&&&&&,images/symbols/symbol_73.png,condition_files/AMP_rep4.csv,None,nonword,,,,,,,,,,,,,,,,,,,,,0,2,2,3,0,30,30,30,,,,,,,,,,,,,1343.564635805902,,,,,AMP_prac,right,0.667096116929315,,,,,,,,,,,,,,,,,,,,,3,,,left,0.21579864132218063,,,,,,,,,,,,,,1019,2019_May_22_1654,mf_amp_cond1,3.0.7,59.98043578301177,
harassment,,&&&&&&&&&&,images/symbols/symbol_28.png,condition_files/AMP_rep4.csv,right,sanctity.vice,,,,,,,,,,,,,,,,,,,,,0,2,2,3,0,31,31,31,,,,,,,,,,,,,1344.0647783679888,,,,,AMP_prac,right,0.667096116929315,,,,,,,,,,,,,,,,,,,,,3,,,right,0.2827063004951924,,,,,,,,,,,,,,1019,2019_May_22_1654,mf_amp_cond1,3.0.7,59.98043578301177,
critics,,&&&&&&&,images/symbols/symbol_19.png,condition_files/AMP_rep4.csv,right,loyalty.vice,,,,,,,,,,,,,,,,,,,,,0,2,2,3,0,32,32,32,,,,,,,,,,,,,1344.4815376439365,,,,,AMP_prac,right,0.667096116929315,,,,,,,,,,,,,,,,,,,,,3,,,right,0.19929222471546382,,,,,,,,,,,,,,1019,2019_May_22_1654,mf_amp_cond1,3.0.7,59.98043578301177,
fraud,,&&&&&,images/symbols/symbol_9.png,condition_files/AMP_rep4.csv,right,fairness.vice,,,,,,,,,,,,,,,,,,,,,0,2,2,3,0,33,33,33,,,,,,,,,,,,,1344.7983119618148,,,,,AMP_prac,right,0.667096116929315,,,,,,,,,,,,,,,,,,,,,3,,,left,0.09921457734890282,,,,,,,,,,,,,,1019,2019_May_22_1654,mf_amp_cond1,3.0.7,59.98043578301177,
crime,,&&&&&,images/symbols/symbol_11.png,condition_files/AMP_rep4.csv,right,fairness.vice,,,,,,,,,,,,,,,,,,,,,0,2,2,3,0,34,34,34,,,,,,,,,,,,,1345.131708477973,,,,,AMP_prac,right,0.667096116929315,,,,,,,,,,,,,,,,,,,,,3,,,right,0.11597564932890236,,,,,,,,,,,,,,1019,2019_May_22_1654,mf_amp_cond1,3.0.7,59.98043578301177,
forced,,&&&&&&,images/symbols/symbol_17.png,condition_files/AMP_rep4.csv,right,fairness.vice,,,,,,,,,,,,,,,,,,,,,0,2,2,3,0,35,35,35,,,,,,,,,,,,,1345.4984773595352,,,,,AMP_prac,right,0.667096116929315,,,,,,,,,,,,,,,,,,,,,3,,,right,0.14917033328674734,,,,,,,,,,,,,,1019,2019_May_22_1654,mf_amp_cond1,3.0.7,59.98043578301177,
honored,,&&&&&&&,images/symbols/symbol_25.png,condition_files/AMP_rep4.csv,left,authority.virtue,,,,,,,,,,,,,,,,,,,,,0,2,2,3,0,36,36,36,,,,,,,,,,,,,1345.8652433546958,,,,,AMP_prac,right,0.667096116929315,,,,,,,,,,,,,,,,,,,,,3,,,left,0.14919823640957475,,,,,,,,,,,,,,1019,2019_May_22_1654,mf_amp_cond1,3.0.7,59.98043578301177,
protect,,&&&&&&&,images/symbols/symbol_82.png,condition_files/AMP_rep4.csv,left,fairness.virtue,,,,,,,,,,,,,,,,,,,,,0,2,2,3,0,37,37,37,,,,,,,,,,,,,1346.131986866938,,,,,AMP_prac,right,0.667096116929315,,,,,,,,,,,,,,,,,,,,,3,,,right,0.04953111649956554,,,,,,,,,,,,,,1019,2019_May_22_1654,mf_amp_cond1,3.0.7,59.98043578301177,
win,,&&&,images/symbols/symbol_56.png,condition_files/AMP_rep4.csv,left,fairness.virtue,,,,,,,,,,,,,,,,,,,,,0,2,2,3,0,38,38,38,,,,,,,,,,,,,1346.4987493341323,,,,,AMP_prac,right,0.667096116929315,,,,,,,,,,,,,,,,,,,,,3,,,right,0.1335978670977056,,,,,,,,,,,,,,1019,2019_May_22_1654,mf_amp_cond1,3.0.7,59.98043578301177,
wraize,,&&&&&&,images/symbols/symbol_78.png,condition_files/AMP_rep4.csv,None,nonword,,,,,,,,,,,,,,,,,,,,,0,2,2,3,0,39,39,39,,,,,,,,,,,,,1346.8154874100583,,,,,AMP_prac,right,0.667096116929315,,,,,,,,,,,,,,,,,,,,,3,,,left,0.09876011055894196,,,,,,,,,,,,,,1019,2019_May_22_1654,mf_amp_cond1,3.0.7,59.98043578301177,
increase,,&&&&&&&&,images/symbols/symbol_53.png,condition_files/AMP_rep4.csv,left,care.virtue,,,,,,,,,,,,,,,,,,,,,0,2,2,3,0,40,40,40,,,,,,,,,,,,,1347.0988941733958,,,,,AMP_prac,right,0.667096116929315,,,,,,,,,,,,,,,,,,,,,3,,,right,0.06572097784373909,,,,,,,,,,,,,,1019,2019_May_22_1654,mf_amp_cond1,3.0.7,59.98043578301177,
serial,,&&&&&&,images/symbols/symbol_31.png,condition_files/AMP_rep4.csv,right,sanctity.vice,,,,,,,,,,,,,,,,,,,,,0,2,2,3,0,41,41,41,,,,,,,,,,,,,1347.4823660757393,,,,,AMP_prac,right,0.667096116929315,,,,,,,,,,,,,,,,,,,,,3,,,right,0.1503076230874285,,,,,,,,,,,,,,1019,2019_May_22_1654,mf_amp_cond1,3.0.7,59.98043578301177,
support,,&&&&&&&,images/symbols/symbol_65.png,condition_files/AMP_rep4.csv,left,loyalty.virtue,,,,,,,,,,,,,,,,,,,,,0,2,2,3,0,42,42,42,,,,,,,,,,,,,1347.832426484325,,,,,AMP_prac,right,0.667096116929315,,,,,,,,,,,,,,,,,,,,,3,,,left,0.13177871669176966,,,,,,,,,,,,,,1019,2019_May_22_1654,mf_amp_cond1,3.0.7,59.98043578301177,
gun,,&&&,images/symbols/symbol_48.png,condition_files/AMP_rep4.csv,right,authority.vice,,,,,,,,,,,,,,,,,,,,,0,2,2,3,0,43,43,43,,,,,,,,,,,,,1348.4492528558476,,,,,AMP_prac,right,0.667096116929315,,,,,,,,,,,,,,,,,,,,,3,,,left,0.3991078722756356,,,,,,,,,,,,,,1019,2019_May_22_1654,mf_amp_cond1,3.0.7,59.98043578301177,
rebels,,&&&&&&,images/symbols/symbol_23.png,condition_files/AMP_rep4.csv,right,authority.vice,,,,,,,,,,,,,,,,,,,,,0,2,2,3,0,44,44,44,,,,,,,,,,,,,1349.3494956123177,,,,,AMP_prac,right,0.667096116929315,,,,,,,,,,,,,,,,,,,,,3,,,left,0.6825297095347196,,,,,,,,,,,,,,1019,2019_May_22_1654,mf_amp_cond1,3.0.7,59.98043578301177,
stintz,,&&&&&&,images/symbols/symbol_81.png,condition_files/AMP_rep4.csv,None,nonword,,,,,,,,,,,,,,,,,,,,,0,2,2,3,0,45,45,45,,,,,,,,,,,,,1350.0997040031943,,,,,AMP_prac,right,0.667096116929315,,,,,,,,,,,,,,,,,,,,,3,,,right,0.5325954100117087,,,,,,,,,,,,,,1019,2019_May_22_1654,mf_amp_cond1,3.0.7,59.98043578301177,
illegal,,&&&&&&&,images/symbols/symbol_29.png,condition_files/AMP_rep4.csv,right,fairness.vice,,,,,,,,,,,,,,,,,,,,,0,2,2,3,0,46,46,46,,,,,,,,,,,,,1350.9664554053452,,,,,AMP_prac,right,0.667096116929315,,,,,,,,,,,,,,,,,,,,,3,,,right,0.6489357232348993,,,,,,,,,,,,,,1019,2019_May_22_1654,mf_amp_cond1,3.0.7,59.98043578301177,
terrorist,,&&&&&&&&&,images/symbols/symbol_35.png,condition_files/AMP_rep4.csv,right,loyalty.vice,,,,,,,,,,,,,,,,,,,,,0,2,2,3,0,47,47,47,,,,,,,,,,,,,1351.5333933730144,,,,,AMP_prac,right,0.667096116929315,,,,,,,,,,,,,,,,,,,,,3,,,left,0.3487159305950627,,,,,,,,,,,,,,1019,2019_May_22_1654,mf_amp_cond1,3.0.7,59.98043578301177,
health,,&&&&&&,images/symbols/symbol_43.png,condition_files/AMP_rep4.csv,left,care.virtue,,,,,,,,,,,,,,,,,,,,,0,2,2,3,0,48,48,48,,,,,,,,,,,,,1352.20025792683,,,,,AMP_prac,right,0.667096116929315,,,,,,,,,,,,,,,,,,,,,3,,,left,0.449166580918245,,,,,,,,,,,,,,1019,2019_May_22_1654,mf_amp_cond1,3.0.7,59.98043578301177,
scandal,,&&&&&&&,images/symbols/symbol_5.png,condition_files/AMP_rep4.csv,right,sanctity.vice,,,,,,,,,,,,,,,,,,,,,0,2,2,3,0,49,49,49,,,,,,,,,,,,,1352.750386393047,,,,,AMP_prac,right,0.667096116929315,,,,,,,,,,,,,,,,,,,,,3,,,right,0.3322698102565482,,,,,,,,,,,,,,1019,2019_May_22_1654,mf_amp_cond1,3.0.7,59.98043578301177,
hate,,&&&&,images/symbols/symbol_13.png,condition_files/AMP_rep4.csv,right,fairness.vice,,,,,,,,,,,,,,,,,,,,,0,2,2,3,0,50,50,50,,,,,,,,,,,,,1353.7172972274711,,,,,AMP_prac,right,0.667096116929315,,,,,,,,,,,,,,,,,,,,,3,,,left,0.7492032396839932,,,,,,,,,,,,,,1019,2019_May_22_1654,mf_amp_cond1,3.0.7,59.98043578301177,
conspiracy,,&&&&&&&&&&,images/symbols/symbol_58.png,condition_files/AMP_rep4.csv,right,sanctity.vice,,,,,,,,,,,,,,,,,,,,,0,2,2,3,0,51,51,51,,,,,,,,,,,,,1354.3341364279622,,,,,AMP_prac,right,0.667096116929315,,,,,,,,,,,,,,,,,,,,,3,,,left,0.3836707517039031,,,,,,,,,,,,,,1019,2019_May_22_1654,mf_amp_cond1,3.0.7,59.98043578301177,
victim,,&&&&&&,images/symbols/symbol_27.png,condition_files/AMP_rep4.csv,right,care.vice,,,,,,,,,,,,,,,,,,,,,0,2,2,3,0,52,52,52,,,,,,,,,,,,,1354.7342363016214,,,,,AMP_prac,right,0.667096116929315,,,,,,,,,,,,,,,,,,,,,3,,,right,0.1818656490650028,,,,,,,,,,,,,,1019,2019_May_22_1654,mf_amp_cond1,3.0.7,59.98043578301177,
racist,,&&&&&&,images/symbols/symbol_79.png,condition_files/AMP_rep4.csv,right,sanctity.vice,,,,,,,,,,,,,,,,,,,,,0,2,2,3,0,53,53,53,,,,,,,,,,,,,1355.2677114594262,,,,,AMP_prac,right,0.667096116929315,,,,,,,,,,,,,,,,,,,,,3,,,right,0.3156886649085209,,,,,,,,,,,,,,1019,2019_May_22_1654,mf_amp_cond1,3.0.7,59.98043578301177,
death,,&&&&&,images/symbols/symbol_74.png,condition_files/AMP_rep4.csv,right,care.vice,,,,,,,,,,,,,,,,,,,,,0,2,2,3,0,54,54,54,,,,,,,,,,,,,1355.767858832376,,,,,AMP_prac,right,0.667096116929315,,,,,,,,,,,,,,,,,,,,,3,,,left,0.2669673780910671,,,,,,,,,,,,,,1019,2019_May_22_1654,mf_amp_cond1,3.0.7,59.98043578301177,
credit,,&&&&&&,images/symbols/symbol_18.png,condition_files/AMP_rep4.csv,left,fairness.virtue,,,,,,,,,,,,,,,,,,,,,0,2,2,3,0,55,55,55,,,,,,,,,,,,,1356.1679487635847,,,,,AMP_prac,right,0.667096116929315,,,,,,,,,,,,,,,,,,,,,3,,,right,0.18210234388243407,,,,,,,,,,,,,,1019,2019_May_22_1654,mf_amp_cond1,3.0.7,59.98043578301177,
attacks,,&&&&&&&,images/symbols/symbol_49.png,condition_files/AMP_rep4.csv,right,care.vice,,,,,,,,,,,,,,,,,,,,,0,2,2,3,0,56,56,56,,,,,,,,,,,,,1356.7681186193367,,,,,AMP_prac,right,0.667096116929315,,,,,,,,,,,,,,,,,,,,,3,,,right,0.3830767695326358,,,,,,,,,,,,,,1019,2019_May_22_1654,mf_amp_cond1,3.0.7,59.98043578301177,
fear,,&&&&,images/symbols/symbol_40.png,condition_files/AMP_rep4.csv,right,sanctity.vice,,,,,,,,,,,,,,,,,,,,,0,2,2,3,0,57,57,57,,,,,,,,,,,,,1357.151547224028,,,,,AMP_prac,right,0.667096116929315,,,,,,,,,,,,,,,,,,,,,3,,,left,0.16559175797738135,,,,,,,,,,,,,,1019,2019_May_22_1654,mf_amp_cond1,3.0.7,59.98043578301177,
celebrated,,&&&&&&&&&&,images/symbols/symbol_68.png,condition_files/AMP_rep4.csv,left,authority.virtue,,,,,,,,,,,,,,,,,,,,,0,2,2,3,0,58,58,58,,,,,,,,,,,,,1357.6183347397018,,,,,AMP_prac,right,0.667096116929315,,,,,,,,,,,,,,,,,,,,,3,,,right,0.2490193040575832,,,,,,,,,,,,,,1019,2019_May_22_1654,mf_amp_cond1,3.0.7,59.98043578301177,
great,,&&&&&,images/symbols/symbol_30.png,condition_files/AMP_rep4.csv,left,loyalty.virtue,,,,,,,,,,,,,,,,,,,,,0,2,2,3,0,59,59,59,,,,,,,,,,,,,1358.3185318891192,,,,,AMP_prac,right,0.667096116929315,,,,,,,,,,,,,,,,,,,,,3,,,right,0.4827820557402447,,,,,,,,,,,,,,1019,2019_May_22_1654,mf_amp_cond1,3.0.7,59.98043578301177,
pleasant,,&&&&&&&,images/symbols/symbol_4.png,condition_files/AMP_rep4.csv,right,control,,,,,,,,,,,,,,,,,,,,,0,2,2,3,0,60,60,60,,,,,,,,,,,,,1358.902008666657,,,,,AMP_prac,right,0.667096116929315,,,,,,,,,,,,,,,,,,,,,3,,,right,0.3657707864185795,,,,,,,,,,,,,,1019,2019_May_22_1654,mf_amp_cond1,3.0.7,59.98043578301177,
peaceful,,&&&&&&&&,images/symbols/symbol_45.png,condition_files/AMP_rep4.csv,left,authority.virtue,,,,,,,,,,,,,,,,,,,,,0,2,2,3,0,61,61,61,,,,,,,,,,,,,1359.5855114548467,,,,,AMP_prac,right,0.667096116929315,,,,,,,,,,,,,,,,,,,,,3,,,right,0.4654773554066196,,,,,,,,,,,,,,1019,2019_May_22_1654,mf_amp_cond1,3.0.7,59.98043578301177,
agreement,,&&&&&&&&&,images/symbols/symbol_72.png,condition_files/AMP_rep4.csv,left,fairness.virtue,,,,,,,,,,,,,,,,,,,,,0,2,2,3,0,62,62,62,,,,,,,,,,,,,1359.9022649256513,,,,,AMP_prac,right,0.667096116929315,,,,,,,,,,,,,,,,,,,,,3,,,left,0.08359753026161343,,,,,,,,,,,,,,1019,2019_May_22_1654,mf_amp_cond1,3.0.7,59.98043578301177,
violations,,&&&&&&&&&&,images/symbols/symbol_39.png,condition_files/AMP_rep4.csv,right,sanctity.vice,,,,,,,,,,,,,,,,,,,,,0,2,2,3,0,63,63,63,,,,,,,,,,,,,1360.5357564724982,,,,,AMP_prac,right,0.667096116929315,,,,,,,,,,,,,,,,,,,,,3,,,left,0.4153397484915331,,,,,,,,,,,,,,1019,2019_May_22_1654,mf_amp_cond1,3.0.7,59.98043578301177,
progress,,&&&&&&&&,images/symbols/symbol_69.png,condition_files/AMP_rep4.csv,left,authority.virtue,,,,,,,,,,,,,,,,,,,,,0,2,2,3,0,64,64,64,,,,,,,,,,,,,1360.8858665933367,,,,,AMP_prac,right,0.667096116929315,,,,,,,,,,,,,,,,,,,,,3,,,right,0.1324737271061167,,,,,,,,,,,,,,1019,2019_May_22_1654,mf_amp_cond1,3.0.7,59.98043578301177,
police,,&&&&&&,images/symbols/symbol_26.png,condition_files/AMP_rep4.csv,right,authority.vice,,,,,,,,,,,,,,,,,,,,,0,2,2,3,0,65,65,65,,,,,,,,,,,,,1361.5026807772228,,,,,AMP_prac,right,0.667096116929315,,,,,,,,,,,,,,,,,,,,,3,,,right,0.398695740965195,,,,,,,,,,,,,,1019,2019_May_22_1654,mf_amp_cond1,3.0.7,59.98043578301177,
ensure,,&&&&&&,images/symbols/symbol_64.png,condition_files/AMP_rep4.csv,left,fairness.virtue,,,,,,,,,,,,,,,,,,,,,0,2,2,3,0,66,66,66,,,,,,,,,,,,,1362.0028133969754,,,,,AMP_prac,right,0.667096116929315,,,,,,,,,,,,,,,,,,,,,3,,,left,0.28233875008299947,,,,,,,,,,,,,,1019,2019_May_22_1654,mf_amp_cond1,3.0.7,59.98043578301177,
civilians,,&&&&&&&&&,images/symbols/symbol_46.png,condition_files/AMP_rep4.csv,right,care.vice,,,,,,,,,,,,,,,,,,,,,0,2,2,3,0,67,67,67,,,,,,,,,,,,,1362.4195794080151,,,,,AMP_prac,right,0.667096116929315,,,,,,,,,,,,,,,,,,,,,3,,,right,0.19894071051385254,,,,,,,,,,,,,,1019,2019_May_22_1654,mf_amp_cond1,3.0.7,59.98043578301177,
peace,,&&&&&,images/symbols/symbol_42.png,condition_files/AMP_rep4.csv,left,care.virtue,,,,,,,,,,,,,,,,,,,,,0,2,2,3,0,68,68,68,,,,,,,,,,,,,1363.2031287334394,,,,,AMP_prac,right,0.667096116929315,,,,,,,,,,,,,,,,,,,,,3,,,right,0.5657028568675742,,,,,,,,,,,,,,1019,2019_May_22_1654,mf_amp_cond1,3.0.7,59.98043578301177,
sharing,,&&&&&&&,images/symbols/symbol_41.png,condition_files/AMP_rep4.csv,left,loyalty.virtue,,,,,,,,,,,,,,,,,,,,,0,2,2,3,0,69,69,69,,,,,,,,,,,,,1363.5532160828589,,,,,AMP_prac,right,0.667096116929315,,,,,,,,,,,,,,,,,,,,,3,,,left,0.13299362175166607,,,,,,,,,,,,,,1019,2019_May_22_1654,mf_amp_cond1,3.0.7,59.98043578301177,
freedom,,&&&&&&&,images/symbols/symbol_63.png,condition_files/AMP_rep4.csv,left,sanctity.virtue,,,,,,,,,,,,,,,,,,,,,0,2,2,3,0,70,70,70,,,,,,,,,,,,,1364.2033907654695,,,,,AMP_prac,right,0.667096116929315,,,,,,,,,,,,,,,,,,,,,3,,,left,0.43268838804215193,,,,,,,,,,,,,,1019,2019_May_22_1654,mf_amp_cond1,3.0.7,59.98043578301177,
spreussed,,&&&&&&&&&,images/symbols/symbol_22.png,condition_files/AMP_rep4.csv,None,nonword,,,,,,,,,,,,,,,,,,,,,0,2,2,3,0,71,71,71,,,,,,,,,,,,,1364.5201416704804,,,,,AMP_prac,right,0.667096116929315,,,,,,,,,,,,,,,,,,,,,3,,,right,0.09919469233136624,,,,,,,,,,,,,,1019,2019_May_22_1654,mf_amp_cond1,3.0.7,59.98043578301177,
clean,,&&&&&,images/symbols/symbol_59.png,condition_files/AMP_rep4.csv,left,sanctity.virtue,,,,,,,,,,,,,,,,,,,,,0,2,2,3,0,72,72,72,,,,,,,,,,,,,1365.0702823243337,,,,,AMP_prac,right,0.667096116929315,,,,,,,,,,,,,,,,,,,,,3,,,right,0.33253376674838364,,,,,,,,,,,,,,1019,2019_May_22_1654,mf_amp_cond1,3.0.7,59.98043578301177,
groups,,&&&&&&,images/symbols/symbol_34.png,condition_files/AMP_rep4.csv,right,loyalty.vice,,,,,,,,,,,,,,,,,,,,,0,2,2,3,0,73,73,73,,,,,,,,,,,,,1365.5704098123824,,,,,AMP_prac,right,0.667096116929315,,,,,,,,,,,,,,,,,,,,,3,,,right,0.2823826892999932,,,,,,,,,,,,,,1019,2019_May_22_1654,mf_amp_cond1,3.0.7,59.98043578301177,
died,,&&&&,images/symbols/symbol_80.png,condition_files/AMP_rep4.csv,right,care.vice,,,,,,,,,,,,,,,,,,,,,0,2,2,3,0,74,74,74,,,,,,,,,,,,,1366.103890743223,,,,,AMP_prac,right,0.667096116929315,,,,,,,,,,,,,,,,,,,,,3,,,left,0.3162322931457311,,,,,,,,,,,,,,1019,2019_May_22_1654,mf_amp_cond1,3.0.7,59.98043578301177,
slavery,,&&&&&&&,images/symbols/symbol_75.png,condition_files/AMP_rep4.csv,right,loyalty.vice,,,,,,,,,,,,,,,,,,,,,0,2,2,3,0,75,75,75,,,,,,,,,,,,,1366.4706477579894,,,,,AMP_prac,right,0.667096116929315,,,,,,,,,,,,,,,,,,,,,3,,,right,0.14913152565713972,,,,,,,,,,,,,,1019,2019_May_22_1654,mf_amp_cond1,3.0.7,59.98043578301177,
suicide,,&&&&&&&,images/symbols/symbol_51.png,condition_files/AMP_rep4.csv,right,care.vice,,,,,,,,,,,,,,,,,,,,,0,2,2,3,0,76,76,76,,,,,,,,,,,,,1366.9541139195208,,,,,AMP_prac,right,0.667096116929315,,,,,,,,,,,,,,,,,,,,,3,,,right,0.2662489549256861,,,,,,,,,,,,,,1019,2019_May_22_1654,mf_amp_cond1,3.0.7,59.98043578301177,
improve,,&&&&&&&,images/symbols/symbol_36.png,condition_files/AMP_rep4.csv,left,care.virtue,,,,,,,,,,,,,,,,,,,,,0,2,2,3,0,77,77,77,,,,,,,,,,,,,1367.4042243930744,,,,,AMP_prac,right,0.667096116929315,,,,,,,,,,,,,,,,,,,,,3,,,right,0.23240993486251682,,,,,,,,,,,,,,1019,2019_May_22_1654,mf_amp_cond1,3.0.7,59.98043578301177,
accused,,&&&&&&&,images/symbols/symbol_10.png,condition_files/AMP_rep4.csv,right,fairness.vice,,,,,,,,,,,,,,,,,,,,,0,2,2,3,0,78,78,78,,,,,,,,,,,,,1367.871024737833,,,,,AMP_prac,right,0.667096116929315,,,,,,,,,,,,,,,,,,,,,3,,,right,0.24930442834738642,,,,,,,,,,,,,,1019,2019_May_22_1654,mf_amp_cond1,3.0.7,59.98043578301177,
dignity,,&&&&&&&,images/symbols/symbol_20.png,condition_files/AMP_rep4.csv,left,sanctity.virtue,,,,,,,,,,,,,,,,,,,,,0,2,2,3,0,79,79,79,,,,,,,,,,,,,1368.25444436213,,,,,AMP_prac,right,0.667096116929315,,,,,,,,,,,,,,,,,,,,,3,,,left,0.16628773044794798,,,,,,,,,,,,,,1019,2019_May_22_1654,mf_amp_cond1,3.0.7,59.98043578301177,
faith,,&&&&&,images/symbols/symbol_8.png,condition_files/AMP_rep4.csv,left,sanctity.virtue,,,,,,,,,,,,,,,,,,,,,0,2,2,3,0,80,80,80,,,,,,,,,,,,,1368.5045092287473,,,,,AMP_prac,right,0.667096116929315,,,,,,,,,,,,,,,,,,,,,3,,,right,0.032457017339766026,,,,,,,,,,,,,,1019,2019_May_22_1654,mf_amp_cond1,3.0.7,59.98043578301177,
failure,,&&&&&&&,images/symbols/symbol_6.png,condition_files/AMP_rep4.csv,right,loyalty.vice,,,,,,,,,,,,,,,,,,,,,0,2,2,3,0,81,81,81,,,,,,,,,,,,,1369.0379792548483,,,,,AMP_prac,right,0.667096116929315,,,,,,,,,,,,,,,,,,,,,3,,,right,0.3002954835537821,,,,,,,,,,,,,,1019,2019_May_22_1654,mf_amp_cond1,3.0.7,59.98043578301177,
,,,,condition_files/AMP_rep4.csv,,,,,,,,,,,,,,,,,,,,,,,0,2,2,3,,,,,,,,,,,,,,,,,,,,,,,,,,,,,,,,,,,,,,,,,,,,,,,,,,right,1.5673080838751048,,,,,,,,,,,,1019,2019_May_22_1654,mf_amp_cond1,3.0.7,59.98043578301177,
knapps,,&&&&&&,images/symbols/symbol_44.png,condition_files/AMP_rep1.csv,None,nonword,,,,,,,,,,,,,,,,,,,,,0,3,3,0,0,0,0,0,,,,,,,,,,,,,1371.172013307456,,,,,AMP_prac,right,0.667096116929315,,,,,,,,,,,,,,,,,,,,,3,,,right,0.3153188693104312,,,,,,,,,,,,,,1019,2019_May_22_1654,mf_amp_cond1,3.0.7,59.98043578301177,
prosecution,,&&&&&&&&&&&,images/symbols/symbol_50.png,condition_files/AMP_rep1.csv,right,authority.vice,,,,,,,,,,,,,,,,,,,,,0,3,3,0,0,1,1,1,,,,,,,,,,,,,1371.6886850576848,,,,,AMP_prac,right,0.667096116929315,,,,,,,,,,,,,,,,,,,,,3,,,right,0.29894523276016116,,,,,,,,,,,,,,1019,2019_May_22_1654,mf_amp_cond1,3.0.7,59.98043578301177,
strong,,&&&&&&,images/symbols/symbol_37.png,condition_files/AMP_rep1.csv,left,loyalty.virtue,,,,,,,,,,,,,,,,,,,,,0,3,3,0,0,2,2,2,,,,,,,,,,,,,1372.3888969604159,,,,,AMP_prac,right,0.667096116929315,,,,,,,,,,,,,,,,,,,,,3,,,right,0.48223842738661915,,,,,,,,,,,,,,1019,2019_May_22_1654,mf_amp_cond1,3.0.7,59.98043578301177,
violence,,&&&&&&&&,images/symbols/symbol_76.png,condition_files/AMP_rep1.csv,right,care.vice,,,,,,,,,,,,,,,,,,,,,0,3,3,0,0,3,3,3,,,,,,,,,,,,,1372.8223117899615,,,,,AMP_prac,right,0.667096116929315,,,,,,,,,,,,,,,,,,,,,3,,,left,0.216270427335985,,,,,,,,,,,,,,1019,2019_May_22_1654,mf_amp_cond1,3.0.7,59.98043578301177,
prison,,&&&&&&,images/symbols/symbol_21.png,condition_files/AMP_rep1.csv,right,fairness.vice,,,,,,,,,,,,,,,,,,,,,0,3,3,0,0,4,4,4,,,,,,,,,,,,,1373.1057153459406,,,,,AMP_prac,right,0.667096116929315,,,,,,,,,,,,,,,,,,,,,3,,,right,0.06609590502921492,,,,,,,,,,,,,,1019,2019_May_22_1654,mf_amp_cond1,3.0.7,59.98043578301177,
opportunity,,&&&&&&&&&&&,images/symbols/symbol_60.png,condition_files/AMP_rep1.csv,left,fairness.virtue,,,,,,,,,,,,,,,,,,,,,0,3,3,0,0,5,5,5,,,,,,,,,,,,,1373.6225259698695,,,,,AMP_prac,right,0.667096116929315,,,,,,,,,,,,,,,,,,,,,3,,,right,0.28363928862381727,,,,,,,,,,,,,,1019,2019_May_22_1654,mf_amp_cond1,3.0.7,59.98043578301177,
spewd,,&&&&&,images/symbols/symbol_67.png,condition_files/AMP_rep1.csv,None,nonword,,,,,,,,,,,,,,,,,,,,,0,3,3,0,0,6,6,6,,,,,,,,,,,,,1374.022618787596,,,,,AMP_prac,right,0.667096116929315,,,,,,,,,,,,,,,,,,,,,3,,,left,0.18177103530615568,,,,,,,,,,,,,,1019,2019_May_22_1654,mf_amp_cond1,3.0.7,59.98043578301177,
party,,&&&&&,images/symbols/symbol_47.png,condition_files/AMP_rep1.csv,left,loyalty.virtue,,,,,,,,,,,,,,,,,,,,,0,3,3,0,0,7,7,7,,,,,,,,,,,,,1374.306044473662,,,,,AMP_prac,right,0.667096116929315,,,,,,,,,,,,,,,,,,,,,3,,,right,0.06577838759403676,,,,,,,,,,,,,,1019,2019_May_22_1654,mf_amp_cond1,3.0.7,59.98043578301177,
wraughsed,,&&&&&&&&&,images/symbols/symbol_38.png,condition_files/AMP_rep1.csv,None,nonword,,,,,,,,,,,,,,,,,,,,,0,3,3,0,0,8,8,8,,,,,,,,,,,,,1375.0395774260396,,,,,AMP_prac,right,0.667096116929315,,,,,,,,,,,,,,,,,,,,,3,,,right,0.5160001526819542,,,,,,,,,,,,,,1019,2019_May_22_1654,mf_amp_cond1,3.0.7,59.98043578301177,
loyalty,,&&&&&&&,images/symbols/symbol_1.png,condition_files/AMP_rep1.csv,left,loyalty.virtue,,,,,,,,,,,,,,,,,,,,,0,3,3,0,0,9,9,9,,,,,,,,,,,,,1375.523018570966,,,,,AMP_prac,right,0.667096116929315,,,,,,,,,,,,,,,,,,,,,3,,,left,0.26577043370343745,,,,,,,,,,,,,,1019,2019_May_22_1654,mf_amp_cond1,3.0.7,59.98043578301177,
values,,&&&&&&,images/symbols/symbol_12.png,condition_files/AMP_rep1.csv,left,sanctity.virtue,,,,,,,,,,,,,,,,,,,,,0,3,3,0,0,10,10,10,,,,,,,,,,,,,1375.8564468387049,,,,,AMP_prac,right,0.667096116929315,,,,,,,,,,,,,,,,,,,,,3,,,right,0.11580791021697223,,,,,,,,,,,,,,1019,2019_May_22_1654,mf_amp_cond1,3.0.7,59.98043578301177,
blamed,,&&&&&&,images/symbols/symbol_16.png,condition_files/AMP_rep1.csv,right,loyalty.vice,,,,,,,,,,,,,,,,,,,,,0,3,3,0,0,11,11,11,,,,,,,,,,,,,1376.3732969118282,,,,,AMP_prac,right,0.667096116929315,,,,,,,,,,,,,,,,,,,,,3,,,right,0.2995565339224413,,,,,,,,,,,,,,1019,2019_May_22_1654,mf_amp_cond1,3.0.7,59.98043578301177,
energy,,&&&&&&,images/symbols/symbol_61.png,condition_files/AMP_rep1.csv,left,sanctity.virtue,,,,,,,,,,,,,,,,,,,,,0,3,3,0,0,12,12,12,,,,,,,,,,,,,1376.8400286214892,,,,,AMP_prac,right,0.667096116929315,,,,,,,,,,,,,,,,,,,,,3,,,left,0.24917742132674903,,,,,,,,,,,,,,1019,2019_May_22_1654,mf_amp_cond1,3.0.7,59.98043578301177,
praise,,&&&&&&,images/symbols/symbol_52.png,condition_files/AMP_rep1.csv,left,authority.virtue,,,,,,,,,,,,,,,,,,,,,0,3,3,0,0,13,13,13,,,,,,,,,,,,,1377.1067904151278,,,,,AMP_prac,right,0.667096116929315,,,,,,,,,,,,,,,,,,,,,3,,,right,0.04961771226953715,,,,,,,,,,,,,,1019,2019_May_22_1654,mf_amp_cond1,3.0.7,59.98043578301177,
safety,,&&&&&&,images/symbols/symbol_54.png,condition_files/AMP_rep1.csv,left,care.virtue,,,,,,,,,,,,,,,,,,,,,0,3,3,0,0,14,14,14,,,,,,,,,,,,,1377.5568826074013,,,,,AMP_prac,right,0.667096116929315,,,,,,,,,,,,,,,,,,,,,3,,,right,0.2324038411024958,,,,,,,,,,,,,,1019,2019_May_22_1654,mf_amp_cond1,3.0.7,59.98043578301177,
arrests,,&&&&&&&,images/symbols/symbol_7.png,condition_files/AMP_rep1.csv,right,authority.vice,,,,,,,,,,,,,,,,,,,,,0,3,3,0,0,15,15,15,,,,,,,,,,,,,1377.973679728806,,,,,AMP_prac,right,0.667096116929315,,,,,,,,,,,,,,,,,,,,,3,,,left,0.19930441223550588,,,,,,,,,,,,,,1019,2019_May_22_1654,mf_amp_cond1,3.0.7,59.98043578301177,
ban,,&&&,images/symbols/symbol_24.png,condition_files/AMP_rep1.csv,right,loyalty.vice,,,,,,,,,,,,,,,,,,,,,0,3,3,0,0,16,16,16,,,,,,,,,,,,,1378.2737356311409,,,,,AMP_prac,right,0.667096116929315,,,,,,,,,,,,,,,,,,,,,3,,,right,0.08237845578696579,,,,,,,,,,,,,,1019,2019_May_22_1654,mf_amp_cond1,3.0.7,59.98043578301177,
ability,,&&&&&&&,images/symbols/symbol_57.png,condition_files/AMP_rep1.csv,left,authority.virtue,,,,,,,,,,,,,,,,,,,,,0,3,3,0,0,17,17,17,,,,,,,,,,,,,1378.723859895952,,,,,AMP_prac,right,0.667096116929315,,,,,,,,,,,,,,,,,,,,,3,,,right,0.2325029451167211,,,,,,,,,,,,,,1019,2019_May_22_1654,mf_amp_cond1,3.0.7,59.98043578301177,
praised,,&&&&&&&,images/symbols/symbol_55.png,condition_files/AMP_rep1.csv,left,loyalty.virtue,,,,,,,,,,,,,,,,,,,,,0,3,3,0,0,18,18,18,,,,,,,,,,,,,1379.44074402994,,,,,AMP_prac,right,0.667096116929315,,,,,,,,,,,,,,,,,,,,,3,,,left,0.49925415485631675,,,,,,,,,,,,,,1019,2019_May_22_1654,mf_amp_cond1,3.0.7,59.98043578301177,
unpleasant,,&&&&&&&&&,images/symbols/symbol_62.png,condition_files/AMP_rep1.csv,left,control,,,,,,,,,,,,,,,,,,,,,0,3,3,0,0,19,19,19,,,,,,,,,,,,,1380.0242102234624,,,,,AMP_prac,right,0.667096116929315,,,,,,,,,,,,,,,,,,,,,3,,,left,0.3503278928110376,,,,,,,,,,,,,,1019,2019_May_22_1654,mf_amp_cond1,3.0.7,59.98043578301177,
creinned,,&&&&&&&&,images/symbols/symbol_66.png,condition_files/AMP_rep1.csv,None,nonword,,,,,,,,,,,,,,,,,,,,,0,3,3,0,0,20,20,20,,,,,,,,,,,,,1380.3742940449156,,,,,AMP_prac,right,0.667096116929315,,,,,,,,,,,,,,,,,,,,,3,,,right,0.13209270616061985,,,,,,,,,,,,,,1019,2019_May_22_1654,mf_amp_cond1,3.0.7,59.98043578301177,
perfect,,&&&&&&&,images/symbols/symbol_70.png,condition_files/AMP_rep1.csv,left,sanctity.virtue,,,,,,,,,,,,,,,,,,,,,0,3,3,0,0,21,21,21,,,,,,,,,,,,,1380.6577075433452,,,,,AMP_prac,right,0.667096116929315,,,,,,,,,,,,,,,,,,,,,3,,,left,0.06600289489142597,,,,,,,,,,,,,,1019,2019_May_22_1654,mf_amp_cond1,3.0.7,59.98043578301177,
phlux,,&&&&&,images/symbols/symbol_32.png,condition_files/AMP_rep1.csv,None,nonword,,,,,,,,,,,,,,,,,,,,,0,3,3,0,0,22,22,22,,,,,,,,,,,,,1381.0244581436273,,,,,AMP_prac,right,0.667096116929315,,,,,,,,,,,,,,,,,,,,,3,,,left,0.14924089272972196,,,,,,,,,,,,,,1019,2019_May_22_1654,mf_amp_cond1,3.0.7,59.98043578301177,
rejected,,&&&&&&&&,images/symbols/symbol_3.png,condition_files/AMP_rep1.csv,right,authority.vice,,,,,,,,,,,,,,,,,,,,,0,3,3,0,0,23,23,23,,,,,,,,,,,,,1381.3578838456888,,,,,AMP_prac,right,0.667096116929315,,,,,,,,,,,,,,,,,,,,,3,,,right,0.11581400409340858,,,,,,,,,,,,,,1019,2019_May_22_1654,mf_amp_cond1,3.0.7,59.98043578301177,
trust,,&&&&&,images/symbols/symbol_2.png,condition_files/AMP_rep1.csv,left,authority.virtue,,,,,,,,,,,,,,,,,,,,,0,3,3,0,0,24,24,24,,,,,,,,,,,,,1381.6746302605607,,,,,AMP_prac,right,0.667096116929315,,,,,,,,,,,,,,,,,,,,,3,,,left,0.09928417461924255,,,,,,,,,,,,,,1019,2019_May_22_1654,mf_amp_cond1,3.0.7,59.98043578301177,
benefit,,&&&&&&&,images/symbols/symbol_15.png,condition_files/AMP_rep1.csv,left,fairness.virtue,,,,,,,,,,,,,,,,,,,,,0,3,3,0,0,25,25,25,,,,,,,,,,,,,1382.0747371901525,,,,,AMP_prac,right,0.667096116929315,,,,,,,,,,,,,,,,,,,,,3,,,right,0.18254750967025757,,,,,,,,,,,,,,1019,2019_May_22_1654,mf_amp_cond1,3.0.7,59.98043578301177,
good,,&&&&,images/symbols/symbol_71.png,condition_files/AMP_rep1.csv,left,care.virtue,,,,,,,,,,,,,,,,,,,,,0,3,3,0,0,26,26,26,,,,,,,,,,,,,1382.3748149017338,,,,,AMP_prac,right,0.667096116929315,,,,,,,,,,,,,,,,,,,,,3,,,right,0.08249840675853193,,,,,,,,,,,,,,1019,2019_May_22_1654,mf_amp_cond1,3.0.7,59.98043578301177,
spauned,,&&&&&&&,images/symbols/symbol_77.png,condition_files/AMP_rep1.csv,None,nonword,,,,,,,,,,,,,,,,,,,,,0,3,3,0,0,27,27,27,,,,,,,,,,,,,1382.7582560146693,,,,,AMP_prac,right,0.667096116929315,,,,,,,,,,,,,,,,,,,,,3,,,left,0.16555519530083984,,,,,,,,,,,,,,1019,2019_May_22_1654,mf_amp_cond1,3.0.7,59.98043578301177,
officers,,&&&&&&&&,images/symbols/symbol_33.png,condition_files/AMP_rep1.csv,right,authority.vice,,,,,,,,,,,,,,,,,,,,,0,3,3,0,0,28,28,28,,,,,,,,,,,,,1383.3584168901434,,,,,AMP_prac,right,0.667096116929315,,,,,,,,,,,,,,,,,,,,,3,,,right,0.38253570708911866,,,,,,,,,,,,,,1019,2019_May_22_1654,mf_amp_cond1,3.0.7,59.98043578301177,
restore,,&&&&&&&,images/symbols/symbol_14.png,condition_files/AMP_rep1.csv,left,care.virtue,,,,,,,,,,,,,,,,,,,,,0,3,3,0,0,29,29,29,,,,,,,,,,,,,1384.0252474470763,,,,,AMP_prac,right,0.667096116929315,,,,,,,,,,,,,,,,,,,,,3,,,left,0.44924996921326965,,,,,,,,,,,,,,1019,2019_May_22_1654,mf_amp_cond1,3.0.7,59.98043578301177,
wrantse,,&&&&&&&,images/symbols/symbol_73.png,condition_files/AMP_rep1.csv,None,nonword,,,,,,,,,,,,,,,,,,,,,0,3,3,0,0,30,30,30,,,,,,,,,,,,,1384.808791320189,,,,,AMP_prac,right,0.667096116929315,,,,,,,,,,,,,,,,,,,,,3,,,right,0.5659020269522443,,,,,,,,,,,,,,1019,2019_May_22_1654,mf_amp_cond1,3.0.7,59.98043578301177,
harassment,,&&&&&&&&&&,images/symbols/symbol_28.png,condition_files/AMP_rep1.csv,right,sanctity.vice,,,,,,,,,,,,,,,,,,,,,0,3,3,0,0,31,31,31,,,,,,,,,,,,,1385.375619599945,,,,,AMP_prac,right,0.667096116929315,,,,,,,,,,,,,,,,,,,,,3,,,left,0.3489654543809593,,,,,,,,,,,,,,1019,2019_May_22_1654,mf_amp_cond1,3.0.7,59.98043578301177,
critics,,&&&&&&&,images/symbols/symbol_19.png,condition_files/AMP_rep1.csv,right,loyalty.vice,,,,,,,,,,,,,,,,,,,,,0,3,3,0,0,32,32,32,,,,,,,,,,,,,1385.9757596283453,,,,,AMP_prac,right,0.667096116929315,,,,,,,,,,,,,,,,,,,,,3,,,right,0.3824985029641539,,,,,,,,,,,,,,1019,2019_May_22_1654,mf_amp_cond1,3.0.7,59.98043578301177,
fraud,,&&&&&,images/symbols/symbol_9.png,condition_files/AMP_rep1.csv,right,fairness.vice,,,,,,,,,,,,,,,,,,,,,0,3,3,0,0,33,33,33,,,,,,,,,,,,,1386.5259105453733,,,,,AMP_prac,right,0.667096116929315,,,,,,,,,,,,,,,,,,,,,3,,,right,0.33250426000449806,,,,,,,,,,,,,,1019,2019_May_22_1654,mf_amp_cond1,3.0.7,59.98043578301177,
crime,,&&&&&,images/symbols/symbol_11.png,condition_files/AMP_rep1.csv,right,fairness.vice,,,,,,,,,,,,,,,,,,,,,0,3,3,0,0,34,34,34,,,,,,,,,,,,,1387.0593863446265,,,,,AMP_prac,right,0.667096116929315,,,,,,,,,,,,,,,,,,,,,3,,,left,0.3160042578820139,,,,,,,,,,,,,,1019,2019_May_22_1654,mf_amp_cond1,3.0.7,59.98043578301177,
forced,,&&&&&&,images/symbols/symbol_17.png,condition_files/AMP_rep1.csv,right,fairness.vice,,,,,,,,,,,,,,,,,,,,,0,3,3,0,0,35,35,35,,,,,,,,,,,,,1387.5595221715048,,,,,AMP_prac,right,0.667096116929315,,,,,,,,,,,,,,,,,,,,,3,,,right,0.28255171119235456,,,,,,,,,,,,,,1019,2019_May_22_1654,mf_amp_cond1,3.0.7,59.98043578301177,
honored,,&&&&&&&,images/symbols/symbol_25.png,condition_files/AMP_rep1.csv,left,authority.virtue,,,,,,,,,,,,,,,,,,,,,0,3,3,0,0,36,36,36,,,,,,,,,,,,,1388.2096872325055,,,,,AMP_prac,right,0.667096116929315,,,,,,,,,,,,,,,,,,,,,3,,,right,0.43249883980024606,,,,,,,,,,,,,,1019,2019_May_22_1654,mf_amp_cond1,3.0.7,59.98043578301177,
protect,,&&&&&&&,images/symbols/symbol_82.png,condition_files/AMP_rep1.csv,left,fairness.virtue,,,,,,,,,,,,,,,,,,,,,0,3,3,0,0,37,37,37,,,,,,,,,,,,,1389.109927423182,,,,,AMP_prac,right,0.667096116929315,,,,,,,,,,,,,,,,,,,,,3,,,right,0.6830085514811799,,,,,,,,,,,,,,1019,2019_May_22_1654,mf_amp_cond1,3.0.7,59.98043578301177,
win,,&&&,images/symbols/symbol_56.png,condition_files/AMP_rep1.csv,left,fairness.virtue,,,,,,,,,,,,,,,,,,,,,0,3,3,0,0,38,38,38,,,,,,,,,,,,,1389.7434391756542,,,,,AMP_prac,right,0.667096116929315,,,,,,,,,,,,,,,,,,,,,3,,,left,0.40034939744509757,,,,,,,,,,,,,,1019,2019_May_22_1654,mf_amp_cond1,3.0.7,59.98043578301177,
wraize,,&&&&&&,images/symbols/symbol_78.png,condition_files/AMP_rep1.csv,None,nonword,,,,,,,,,,,,,,,,,,,,,0,3,3,0,0,39,39,39,,,,,,,,,,,,,1390.143520126585,,,,,AMP_prac,right,0.667096116929315,,,,,,,,,,,,,,,,,,,,,3,,,right,0.18177295965142548,,,,,,,,,,,,,,1019,2019_May_22_1654,mf_amp_cond1,3.0.7,59.98043578301177,
increase,,&&&&&&&&,images/symbols/symbol_53.png,condition_files/AMP_rep1.csv,left,care.virtue,,,,,,,,,,,,,,,,,,,,,0,3,3,0,0,40,40,40,,,,,,,,,,,,,1390.8937355733942,,,,,AMP_prac,right,0.667096116929315,,,,,,,,,,,,,,,,,,,,,3,,,right,0.517035772674717,,,,,,,,,,,,,,1019,2019_May_22_1654,mf_amp_cond1,3.0.7,59.98043578301177,
serial,,&&&&&&,images/symbols/symbol_31.png,condition_files/AMP_rep1.csv,right,sanctity.vice,,,,,,,,,,,,,,,,,,,,,0,3,3,0,0,41,41,41,,,,,,,,,,,,,1391.3771783219418,,,,,AMP_prac,right,0.667096116929315,,,,,,,,,,,,,,,,,,,,,3,,,left,0.2502938639372587,,,,,,,,,,,,,,1019,2019_May_22_1654,mf_amp_cond1,3.0.7,59.98043578301177,
support,,&&&&&&&,images/symbols/symbol_65.png,condition_files/AMP_rep1.csv,left,loyalty.virtue,,,,,,,,,,,,,,,,,,,,,0,3,3,0,0,42,42,42,,,,,,,,,,,,,1391.8439757801825,,,,,AMP_prac,right,0.667096116929315,,,,,,,,,,,,,,,,,,,,,3,,,right,0.24865367799066007,,,,,,,,,,,,,,1019,2019_May_22_1654,mf_amp_cond1,3.0.7,59.98043578301177,
gun,,&&&,images/symbols/symbol_48.png,condition_files/AMP_rep1.csv,right,authority.vice,,,,,,,,,,,,,,,,,,,,,0,3,3,0,0,43,43,43,,,,,,,,,,,,,1392.4441684073536,,,,,AMP_prac,right,0.667096116929315,,,,,,,,,,,,,,,,,,,,,3,,,right,0.3825584785081446,,,,,,,,,,,,,,1019,2019_May_22_1654,mf_amp_cond1,3.0.7,59.98043578301177,
rebels,,&&&&&&,images/symbols/symbol_23.png,condition_files/AMP_rep1.csv,right,authority.vice,,,,,,,,,,,,,,,,,,,,,0,3,3,0,0,44,44,44,,,,,,,,,,,,,1392.9609437516192,,,,,AMP_prac,right,0.667096116929315,,,,,,,,,,,,,,,,,,,,,3,,,right,0.29904722317587584,,,,,,,,,,,,,,1019,2019_May_22_1654,mf_amp_cond1,3.0.7,59.98043578301177,
stintz,,&&&&&&,images/symbols/symbol_81.png,condition_files/AMP_rep1.csv,None,nonword,,,,,,,,,,,,,,,,,,,,,0,3,3,0,0,45,45,45,,,,,,,,,,,,,1393.4442671906436,,,,,AMP_prac,right,0.667096116929315,,,,,,,,,,,,,,,,,,,,,3,,,right,0.26585735008120537,,,,,,,,,,,,,,1019,2019_May_22_1654,mf_amp_cond1,3.0.7,59.98043578301177,
illegal,,&&&&&&&,images/symbols/symbol_29.png,condition_files/AMP_rep1.csv,right,fairness.vice,,,,,,,,,,,,,,,,,,,,,0,3,3,0,0,46,46,46,,,,,,,,,,,,,1393.9778635823168,,,,,AMP_prac,right,0.667096116929315,,,,,,,,,,,,,,,,,,,,,3,,,right,0.3156562716467306,,,,,,,,,,,,,,1019,2019_May_22_1654,mf_amp_cond1,3.0.7,59.98043578301177,
