words,masks,symbols,conditionfile,corr_ans,category,mask,LDT_trials_cond2.thisRepN,LDT_trials_cond2.thisTrialN,LDT_trials_cond2.thisN,LDT_trials_cond2.thisIndex,logo_trials.thisRepN,logo_trials.thisTrialN,logo_trials.thisN,logo_trials.thisIndex,AMP_pracs.thisRepN,AMP_pracs.thisTrialN,AMP_pracs.thisN,AMP_pracs.thisIndex,trials_loop.thisRepN,trials_loop.thisTrialN,trials_loop.thisN,trials_loop.thisIndex,AMP_trials.thisRepN,AMP_trials.thisTrialN,AMP_trials.thisN,AMP_trials.thisIndex,memtask_trials.thisRepN,memtask_trials.thisTrialN,memtask_trials.thisN,memtask_trials.thisIndex,LDT_cond1.thisRepN,LDT_cond1.thisTrialN,LDT_cond1.thisN,LDT_cond1.thisIndex,LDT_pracs.thisRepN,LDT_pracs.thisTrialN,LDT_pracs.thisN,LDT_pracs.thisIndex,LDT_trials.thisRepN,LDT_trials.thisTrialN,LDT_trials.thisN,LDT_trials.thisIndex,begin_key.keys,begin_key.rt,key_resp_instr.keys,key_resp_instr.rt,exp_time,resp_sym_rate.keys,resp_sym_rate.rt,sym_resp_1.keys,sym_resp_1.rt,sym_resp_2.keys,sym_resp_2.rt,sym_resp_trial.keys,sym_resp_trial.rt,symbol_index,resp_AMP_ready1.keys,resp_AMP_ready1.rt,resp_AMP.keys,resp_AMP.rt,task,keypress,RT,prime_dur,resp_AMP_ready.keys,resp_AMP_ready.rt,resp_AMP_trials.keys,resp_AMP_trials.rt,rest_key_resp.keys,rest_key_resp.rt,AMP_nonword_rating.response,AMP_nonword_rating.rt,AMP_word_rating.response,AMP_word_rating.rt,AMP_random_rating.response,AMP_random_rating.rt,key_resp_instr_memtask.keys,key_resp_instr_memtask.rt,resp_memtask.keys,resp_memtask.corr,resp_memtask.rt,corr,key_resp_LDT_instr.keys,key_resp_LDT_instr.rt,resp_LDT_prac.keys,resp_LDT_prac.rt,resp_LDT_ready.keys,resp_LDT_ready.rt,resp_LDT_trial.keys,resp_LDT_trial.rt,LDT_rating.response,LDT_rating.rt,participant ID,date,expName,psychopyVersion,frameRate,
,,,,,,,,,,,,,,,,,,,,,,,,,,,,,,,,,,,,,,,,,,,right,138.5873603515647,,,,,,,,,,,,,,,,,,,,,,,,,,,,,,,,,,,,,,,,,,,,,,,,,1020,2019_May_23_1656,mf_amp_cond1,3.0.7,59.994477594622516,
,,,,,,,,,,,,,,,,,,,,,,,,,,,,,,,,,,,,,,,,,,,,,right,2.750986796003417,,,,,,,,,,,,,,,,,,,,,,,,,,,,,,,,,,,,,,,,,,,,,,,1020,2019_May_23_1656,mf_amp_cond1,3.0.7,59.994477594622516,
,,,,,,,,,,,,,,,,,,,,,,,,,,,,,,,,,,,,,,,,,,,,,,,179.45658338141584,right,3.41786011759541,,,,,,,,,,,,,,,,,,,,,,,,,,,,,,,,,,,,,,,,,,,,1020,2019_May_23_1656,mf_amp_cond1,3.0.7,59.994477594622516,
,,,,,,,,,,,,,,,,,,,,,,,,,,,,,,,,,,,,,,,,,,,,,,,244.97422832344455,,,left,2.0507957390836964,,,,,,,,,,,,,,,,,,,,,,,,,,,,,,,,,,,,,,,,,,1020,2019_May_23_1656,mf_amp_cond1,3.0.7,59.994477594622516,
,,,,,,,,,,,,,,,,,,,,,,,,,,,,,,,,,,,,,,,,,,,,,,,,,,,,right,1.3006826027231,,,,,,,,,,,,,,,,,,,,,,,,,,,,,,,,,,,,,,,,1020,2019_May_23_1656,mf_amp_cond1,3.0.7,59.994477594622516,
,,,,,,,,,,,,,,,,,,,,,,,,,,,,,,,,,,,,,,,,,,,,,,,264.36279775068033,,,,,,,right,0.7478250717867923,68,right,1.5007176260805863,,,,,,,,,,,,,,,,,,,,,,,,,,,,,,,,,,,1020,2019_May_23_1656,mf_amp_cond1,3.0.7,59.994477594622516,
keyboard,&&&&&&&&,images/symbols/symbol_40.png,,,,,,,,,,,,,0,0,0,2,,,,,,,,,,,,,,,,,,,,,,,,,,,,,410.0355583323362,,,,,,,,,,,,left,1.9007822204512195,AMP_prac,left,1.9007822204512195,1,,,,,,,,,,,,,,,,,,,,,,,,,,,,,1020,2019_May_23_1656,mf_amp_cond1,3.0.7,59.994477594622516,
banana,&&&&&&,images/symbols/symbol_68.png,,,,,,,,,,,,,0,1,1,1,,,,,,,,,,,,,,,,,,,,,,,,,,,,,413.03623314139986,,,,,,,,,,,,right,2.767671642526693,AMP_prac,right,2.767671642526693,1,,,,,,,,,,,,,,,,,,,,,,,,,,,,,1020,2019_May_23_1656,mf_amp_cond1,3.0.7,59.994477594622516,
car,&&&,images/symbols/symbol_9.png,,,,,,,,,,,,,0,2,2,0,,,,,,,,,,,,,,,,,,,,,,,,,,,,,414.26991368281233,,,,,,,,,,,,right,1.0153047593594238,AMP_prac,right,1.0153047593594238,1,,,,,,,,,,,,,,,,,,,,,,,,,,,,,1020,2019_May_23_1656,mf_amp_cond1,3.0.7,59.994477594622516,
scarf,&&&&&,images/symbols/symbol_54.png,,,,,,,,,,,,,0,3,3,3,,,,,,,,,,,,,,,,,,,,,,,,,,,,,415.30350339441065,,,,,,,,,,,,right,0.8004704419836344,AMP_prac,right,0.8004704419836344,1,,,,,,,,,,,,,,,,,,,,,,,,,,,,,1020,2019_May_23_1656,mf_amp_cond1,3.0.7,59.994477594622516,
,,,,,,,,,,,,,,,,,,,,,,,,,,,,,,,,,,,,,,,,,,,,,,,,,,,,,,,,,,,,,,,,,right,1.1172400565883436,,,,,,,,,,,,,,,,,,,,,,,,,,,1020,2019_May_23_1656,mf_amp_cond1,3.0.7,59.994477594622516,
gryssed,&&&&&&&,images/symbols/symbol_11.png,condition_files/AMP_rep3.csv,None,nonword,,,,,,,,,,,,,,0,0,0,2,0,0,0,0,,,,,,,,,,,,,,,,,,,,,438.05956889835943,,,,,,,,,,,,,,AMP_prac,right,0.8004704419836344,1,,,right,1.3671291653190565,,,,,,,,,,,,,,,,,,,,,,,,,1020,2019_May_23_1656,mf_amp_cond1,3.0.7,59.994477594622516,
dighnd,&&&&&&,images/symbols/symbol_7.png,condition_files/AMP_rep3.csv,None,nonword,,,,,,,,,,,,,,0,0,0,2,0,1,1,1,,,,,,,,,,,,,,,,,,,,,439.0098091066502,,,,,,,,,,,,,,AMP_prac,right,0.8004704419836344,1,,,right,0.7318172794075508,,,,,,,,,,,,,,,,,,,,,,,,,1020,2019_May_23_1656,mf_amp_cond1,3.0.7,59.994477594622516,
died,&&&&,images/symbols/symbol_54.png,condition_files/AMP_rep3.csv,right,care.vice,,,,,,,,,,,,,,0,0,0,2,0,2,2,2,,,,,,,,,,,,,,,,,,,,,439.9433965410899,,,,,,,,,,,,,,AMP_prac,right,0.8004704419836344,1,,,left,0.7004338470615039,,,,,,,,,,,,,,,,,,,,,,,,,1020,2019_May_23_1656,mf_amp_cond1,3.0.7,59.994477594622516,
attacks,&&&&&&&,images/symbols/symbol_76.png,condition_files/AMP_rep3.csv,right,care.vice,,,,,,,,,,,,,,0,0,0,2,0,3,3,3,,,,,,,,,,,,,,,,,,,,,441.1603941603353,,,,,,,,,,,,,,AMP_prac,right,0.8004704419836344,1,,,left,0.999159375212912,,,,,,,,,,,,,,,,,,,,,,,,,1020,2019_May_23_1656,mf_amp_cond1,3.0.7,59.994477594622516,
drug,&&&&,images/symbols/symbol_24.png,condition_files/AMP_rep3.csv,right,sanctity.vice,,,,,,,,,,,,,,0,0,0,2,0,4,4,4,,,,,,,,,,,,,,,,,,,,,442.36071719630854,,,,,,,,,,,,,,AMP_prac,right,0.8004704419836344,1,,,left,0.9671720144106075,,,,,,,,,,,,,,,,,,,,,,,,,1020,2019_May_23_1656,mf_amp_cond1,3.0.7,59.994477594622516,
riot,&&&&,images/symbols/symbol_14.png,condition_files/AMP_rep3.csv,right,authority.vice,,,,,,,,,,,,,,0,0,0,2,0,5,5,5,,,,,,,,,,,,,,,,,,,,,443.3443136271344,,,,,,,,,,,,,,AMP_prac,right,0.8004704419836344,1,,,left,0.76516420086773,,,,,,,,,,,,,,,,,,,,,,,,,1020,2019_May_23_1656,mf_amp_cond1,3.0.7,59.994477594622516,
troops,&&&&&&,images/symbols/symbol_8.png,condition_files/AMP_rep3.csv,right,loyalty.vice,,,,,,,,,,,,,,0,0,0,2,0,6,6,6,,,,,,,,,,,,,,,,,,,,,444.31123739904797,,,,,,,,,,,,,,AMP_prac,right,0.8004704419836344,1,,,left,0.7492965660749178,,,,,,,,,,,,,,,,,,,,,,,,,1020,2019_May_23_1656,mf_amp_cond1,3.0.7,59.994477594622516,
pseighs,&&&&&&&,images/symbols/symbol_56.png,condition_files/AMP_rep3.csv,None,nonword,,,,,,,,,,,,,,0,0,0,2,0,7,7,7,,,,,,,,,,,,,,,,,,,,,445.14479176656096,,,,,,,,,,,,,,AMP_prac,right,0.8004704419836344,1,,,right,0.6003943655996409,,,,,,,,,,,,,,,,,,,,,,,,,1020,2019_May_23_1656,mf_amp_cond1,3.0.7,59.994477594622516,
friends,&&&&&&&,images/symbols/symbol_32.png,condition_files/AMP_rep3.csv,left,loyalty.virtue,,,,,,,,,,,,,,0,0,0,2,0,8,8,8,,,,,,,,,,,,,,,,,,,,,445.9116692896787,,,,,,,,,,,,,,AMP_prac,right,0.8004704419836344,1,,,left,0.5485520951624494,,,,,,,,,,,,,,,,,,,,,,,,,1020,2019_May_23_1656,mf_amp_cond1,3.0.7,59.994477594622516,
killed,&&&&&&,images/symbols/symbol_29.png,condition_files/AMP_rep3.csv,right,care.vice,,,,,,,,,,,,,,0,0,0,2,0,9,9,9,,,,,,,,,,,,,,,,,,,,,446.92861424559305,,,,,,,,,,,,,,AMP_prac,right,0.8004704419836344,1,,,left,0.7991028631586232,,,,,,,,,,,,,,,,,,,,,,,,,1020,2019_May_23_1656,mf_amp_cond1,3.0.7,59.994477594622516,
improve,&&&&&&&,images/symbols/symbol_10.png,condition_files/AMP_rep3.csv,left,care.virtue,,,,,,,,,,,,,,0,0,0,2,0,10,10,10,,,,,,,,,,,,,,,,,,,,,447.72883580362395,,,,,,,,,,,,,,AMP_prac,right,0.8004704419836344,1,,,left,0.5825209057729808,,,,,,,,,,,,,,,,,,,,,,,,,1020,2019_May_23_1656,mf_amp_cond1,3.0.7,59.994477594622516,
conspiracy,&&&&&&&&&&,images/symbols/symbol_71.png,condition_files/AMP_rep3.csv,right,sanctity.vice,,,,,,,,,,,,,,0,0,0,2,0,11,11,11,,,,,,,,,,,,,,,,,,,,,448.6790849922654,,,,,,,,,,,,,,AMP_prac,right,0.8004704419836344,1,,,left,0.7170981670788024,,,,,,,,,,,,,,,,,,,,,,,,,1020,2019_May_23_1656,mf_amp_cond1,3.0.7,59.994477594622516,
illegal,&&&&&&&,images/symbols/symbol_81.png,condition_files/AMP_rep3.csv,right,fairness.vice,,,,,,,,,,,,,,0,0,0,2,0,12,12,12,,,,,,,,,,,,,,,,,,,,,449.3626104462637,,,,,,,,,,,,,,AMP_prac,right,0.8004704419836344,1,,,left,0.4503744324319996,,,,,,,,,,,,,,,,,,,,,,,,,1020,2019_May_23_1656,mf_amp_cond1,3.0.7,59.994477594622516,
protect,&&&&&&&,images/symbols/symbol_15.png,condition_files/AMP_rep3.csv,left,fairness.virtue,,,,,,,,,,,,,,0,0,0,2,0,13,13,13,,,,,,,,,,,,,,,,,,,,,450.0961282188546,,,,,,,,,,,,,,AMP_prac,right,0.8004704419836344,1,,,left,0.5152853553918249,,,,,,,,,,,,,,,,,,,,,,,,,1020,2019_May_23_1656,mf_amp_cond1,3.0.7,59.994477594622516,
accused,&&&&&&&,images/symbols/symbol_17.png,condition_files/AMP_rep3.csv,right,fairness.vice,,,,,,,,,,,,,,0,0,0,2,0,14,14,14,,,,,,,,,,,,,,,,,,,,,450.8463337245121,,,,,,,,,,,,,,AMP_prac,right,0.8004704419836344,1,,,right,0.5325362846160715,,,,,,,,,,,,,,,,,,,,,,,,,1020,2019_May_23_1656,mf_amp_cond1,3.0.7,59.994477594622516,
actively,&&&&&&&&,images/symbols/symbol_50.png,condition_files/AMP_rep3.csv,left,authority.virtue,,,,,,,,,,,,,,0,0,0,2,0,15,15,15,,,,,,,,,,,,,,,,,,,,,451.61319970146724,,,,,,,,,,,,,,AMP_prac,right,0.8004704419836344,1,,,right,0.5491608345182613,,,,,,,,,,,,,,,,,,,,,,,,,1020,2019_May_23_1656,mf_amp_cond1,3.0.7,59.994477594622516,
ensure,&&&&&&,images/symbols/symbol_39.png,condition_files/AMP_rep3.csv,left,fairness.virtue,,,,,,,,,,,,,,0,0,0,2,0,16,16,16,,,,,,,,,,,,,,,,,,,,,452.29674119180345,,,,,,,,,,,,,,AMP_prac,right,0.8004704419836344,1,,,right,0.46576803310017567,,,,,,,,,,,,,,,,,,,,,,,,,1020,2019_May_23_1656,mf_amp_cond1,3.0.7,59.994477594622516,
strong,&&&&&&,images/symbols/symbol_55.png,condition_files/AMP_rep3.csv,left,loyalty.virtue,,,,,,,,,,,,,,0,0,0,2,0,17,17,17,,,,,,,,,,,,,,,,,,,,,453.01361677452223,,,,,,,,,,,,,,AMP_prac,right,0.8004704419836344,1,,,left,0.4991175203685998,,,,,,,,,,,,,,,,,,,,,,,,,1020,2019_May_23_1656,mf_amp_cond1,3.0.7,59.994477594622516,
voter,&&&&&,images/symbols/symbol_53.png,condition_files/AMP_rep3.csv,right,fairness.vice,,,,,,,,,,,,,,0,0,0,2,0,18,18,18,,,,,,,,,,,,,,,,,,,,,453.79712846934126,,,,,,,,,,,,,,AMP_prac,right,0.8004704419836344,1,,,left,0.565976216828858,,,,,,,,,,,,,,,,,,,,,,,,,1020,2019_May_23_1656,mf_amp_cond1,3.0.7,59.994477594622516,
promote,&&&&&&&,images/symbols/symbol_20.png,condition_files/AMP_rep3.csv,left,sanctity.virtue,,,,,,,,,,,,,,0,0,0,2,0,19,19,19,,,,,,,,,,,,,,,,,,,,,454.9640991315064,,,,,,,,,,,,,,AMP_prac,right,0.8004704419836344,1,,,right,0.9494140162096301,,,,,,,,,,,,,,,,,,,,,,,,,1020,2019_May_23_1656,mf_amp_cond1,3.0.7,59.994477594622516,
loyalty,&&&&&&&,images/symbols/symbol_37.png,condition_files/AMP_rep3.csv,left,loyalty.virtue,,,,,,,,,,,,,,0,0,0,2,0,20,20,20,,,,,,,,,,,,,,,,,,,,,455.9643861819386,,,,,,,,,,,,,,AMP_prac,right,0.8004704419836344,1,,,left,0.7671132572686474,,,,,,,,,,,,,,,,,,,,,,,,,1020,2019_May_23_1656,mf_amp_cond1,3.0.7,59.994477594622516,
threatened,&&&&&&&&&&,images/symbols/symbol_80.png,condition_files/AMP_rep3.csv,right,fairness.vice,,,,,,,,,,,,,,0,0,0,2,0,21,21,21,,,,,,,,,,,,,,,,,,,,,456.84796622362774,,,,,,,,,,,,,,AMP_prac,right,0.8004704419836344,1,,,left,0.6658344876814226,,,,,,,,,,,,,,,,,,,,,,,,,1020,2019_May_23_1656,mf_amp_cond1,3.0.7,59.994477594622516,
promises,&&&&&&&&,images/symbols/symbol_49.png,condition_files/AMP_rep3.csv,left,fairness.virtue,,,,,,,,,,,,,,0,0,0,2,0,22,22,22,,,,,,,,,,,,,,,,,,,,,457.64815987843394,,,,,,,,,,,,,,AMP_prac,right,0.8004704419836344,1,,,left,0.5830125798638619,,,,,,,,,,,,,,,,,,,,,,,,,1020,2019_May_23_1656,mf_amp_cond1,3.0.7,59.994477594622516,
hope,&&&&,images/symbols/symbol_40.png,condition_files/AMP_rep3.csv,left,loyalty.virtue,,,,,,,,,,,,,,0,0,0,2,0,23,23,23,,,,,,,,,,,,,,,,,,,,,458.4317030044731,,,,,,,,,,,,,,AMP_prac,right,0.8004704419836344,1,,,left,0.5658039865702449,,,,,,,,,,,,,,,,,,,,,,,,,1020,2019_May_23_1656,mf_amp_cond1,3.0.7,59.994477594622516,
suicide,&&&&&&&,images/symbols/symbol_36.png,condition_files/AMP_rep3.csv,right,care.vice,,,,,,,,,,,,,,0,0,0,2,0,24,24,24,,,,,,,,,,,,,,,,,,,,,459.3652862694653,,,,,,,,,,,,,,AMP_prac,right,0.8004704419836344,1,,,right,0.7158232782858249,,,,,,,,,,,,,,,,,,,,,,,,,1020,2019_May_23_1656,mf_amp_cond1,3.0.7,59.994477594622516,
crarft,&&&&&&,images/symbols/symbol_18.png,condition_files/AMP_rep3.csv,None,nonword,,,,,,,,,,,,,,0,0,0,2,0,25,25,25,,,,,,,,,,,,,,,,,,,,,460.24886599042657,,,,,,,,,,,,,,AMP_prac,right,0.8004704419836344,1,,,right,0.6660577134935011,,,,,,,,,,,,,,,,,,,,,,,,,1020,2019_May_23_1656,mf_amp_cond1,3.0.7,59.994477594622516,
protesters,&&&&&&&&&&,images/symbols/symbol_27.png,condition_files/AMP_rep3.csv,right,authority.vice,,,,,,,,,,,,,,0,0,0,2,0,26,26,26,,,,,,,,,,,,,,,,,,,,,461.132430316502,,,,,,,,,,,,,,AMP_prac,right,0.8004704419836344,1,,,left,0.6657847750357178,,,,,,,,,,,,,,,,,,,,,,,,,1020,2019_May_23_1656,mf_amp_cond1,3.0.7,59.994477594622516,
rejected,&&&&&&&&,images/symbols/symbol_19.png,condition_files/AMP_rep3.csv,right,authority.vice,,,,,,,,,,,,,,0,0,0,2,0,27,27,27,,,,,,,,,,,,,,,,,,,,,461.89932676249737,,,,,,,,,,,,,,AMP_prac,right,0.8004704419836344,1,,,right,0.5491675697776373,,,,,,,,,,,,,,,,,,,,,,,,,1020,2019_May_23_1656,mf_amp_cond1,3.0.7,59.994477594622516,
freazz,&&&&&&,images/symbols/symbol_70.png,condition_files/AMP_rep3.csv,None,nonword,,,,,,,,,,,,,,0,0,0,2,0,28,28,28,,,,,,,,,,,,,,,,,,,,,462.7495290929619,,,,,,,,,,,,,,AMP_prac,right,0.8004704419836344,1,,,right,0.6170763255868223,,,,,,,,,,,,,,,,,,,,,,,,,1020,2019_May_23_1656,mf_amp_cond1,3.0.7,59.994477594622516,
ability,&&&&&&&,images/symbols/symbol_52.png,condition_files/AMP_rep3.csv,left,authority.virtue,,,,,,,,,,,,,,0,0,0,2,0,29,29,29,,,,,,,,,,,,,,,,,,,,,463.6831466757176,,,,,,,,,,,,,,AMP_prac,right,0.8004704419836344,1,,,left,0.7157780558118247,,,,,,,,,,,,,,,,,,,,,,,,,1020,2019_May_23_1656,mf_amp_cond1,3.0.7,59.994477594622516,
love,&&&&,images/symbols/symbol_26.png,condition_files/AMP_rep3.csv,left,loyalty.virtue,,,,,,,,,,,,,,0,0,0,2,0,30,30,30,,,,,,,,,,,,,,,,,,,,,464.4666946126563,,,,,,,,,,,,,,AMP_prac,right,0.8004704419836344,1,,,left,0.5658460017730249,,,,,,,,,,,,,,,,,,,,,,,,,1020,2019_May_23_1656,mf_amp_cond1,3.0.7,59.994477594622516,
peaceful,&&&&&&&&,images/symbols/symbol_73.png,condition_files/AMP_rep3.csv,left,authority.virtue,,,,,,,,,,,,,,0,0,0,2,0,31,31,31,,,,,,,,,,,,,,,,,,,,,465.3502451474851,,,,,,,,,,,,,,AMP_prac,right,0.8004704419836344,1,,,left,0.665536532542319,,,,,,,,,,,,,,,,,,,,,,,,,1020,2019_May_23_1656,mf_amp_cond1,3.0.7,59.994477594622516,
safety,&&&&&&,images/symbols/symbol_2.png,condition_files/AMP_rep3.csv,left,care.virtue,,,,,,,,,,,,,,0,0,0,2,0,32,32,32,,,,,,,,,,,,,,,,,,,,,466.18378893101544,,,,,,,,,,,,,,AMP_prac,right,0.8004704419836344,1,,,left,0.6160230589703133,,,,,,,,,,,,,,,,,,,,,,,,,1020,2019_May_23_1656,mf_amp_cond1,3.0.7,59.994477594622516,
army,&&&&,images/symbols/symbol_33.png,condition_files/AMP_rep3.csv,right,loyalty.vice,,,,,,,,,,,,,,0,0,0,2,0,33,33,33,,,,,,,,,,,,,,,,,,,,,466.933991229409,,,,,,,,,,,,,,AMP_prac,right,0.8004704419836344,1,,,right,0.5326620095001999,,,,,,,,,,,,,,,,,,,,,,,,,1020,2019_May_23_1656,mf_amp_cond1,3.0.7,59.994477594622516,
free,&&&&,images/symbols/symbol_63.png,condition_files/AMP_rep3.csv,left,fairness.virtue,,,,,,,,,,,,,,0,0,0,2,0,34,34,34,,,,,,,,,,,,,,,,,,,,,467.71753275181254,,,,,,,,,,,,,,AMP_prac,right,0.8004704419836344,1,,,left,0.5659412576133036,,,,,,,,,,,,,,,,,,,,,,,,,1020,2019_May_23_1656,mf_amp_cond1,3.0.7,59.994477594622516,
shot,&&&&,images/symbols/symbol_51.png,condition_files/AMP_rep3.csv,right,care.vice,,,,,,,,,,,,,,0,0,0,2,0,35,35,35,,,,,,,,,,,,,,,,,,,,,469.5013491370373,,,,,,,,,,,,,,AMP_prac,right,0.8004704419836344,1,,,right,1.5666561575199012,,,,,,,,,,,,,,,,,,,,,,,,,1020,2019_May_23_1656,mf_amp_cond1,3.0.7,59.994477594622516,
gun,&&&,images/symbols/symbol_28.png,condition_files/AMP_rep3.csv,right,authority.vice,,,,,,,,,,,,,,0,0,0,2,0,36,36,36,,,,,,,,,,,,,,,,,,,,,470.33490318382246,,,,,,,,,,,,,,AMP_prac,right,0.8004704419836344,1,,,left,0.6159678939729929,,,,,,,,,,,,,,,,,,,,,,,,,1020,2019_May_23_1656,mf_amp_cond1,3.0.7,59.994477594622516,
health,&&&&&&,images/symbols/symbol_31.png,condition_files/AMP_rep3.csv,left,care.virtue,,,,,,,,,,,,,,0,0,0,2,0,37,37,37,,,,,,,,,,,,,,,,,,,,,471.03510963562803,,,,,,,,,,,,,,AMP_prac,right,0.8004704419836344,1,,,left,0.4670608825945237,,,,,,,,,,,,,,,,,,,,,,,,,1020,2019_May_23_1656,mf_amp_cond1,3.0.7,59.994477594622516,
celebrated,&&&&&&&&&&,images/symbols/symbol_45.png,condition_files/AMP_rep3.csv,left,authority.virtue,,,,,,,,,,,,,,0,0,0,2,0,38,38,38,,,,,,,,,,,,,,,,,,,,,471.9019955297117,,,,,,,,,,,,,,AMP_prac,right,0.8004704419836344,1,,,right,0.6486772106654826,,,,,,,,,,,,,,,,,,,,,,,,,1020,2019_May_23_1656,mf_amp_cond1,3.0.7,59.994477594622516,
opportunity,&&&&&&&&&&&,images/symbols/symbol_34.png,condition_files/AMP_rep3.csv,left,fairness.virtue,,,,,,,,,,,,,,0,0,0,2,0,39,39,39,,,,,,,,,,,,,,,,,,,,,473.28569792865164,,,,,,,,,,,,,,AMP_prac,right,0.8004704419836344,1,,,left,1.1658352894992277,,,,,,,,,,,,,,,,,,,,,,,,,1020,2019_May_23_1656,mf_amp_cond1,3.0.7,59.994477594622516,
integrity,&&&&&&&&&,images/symbols/symbol_47.png,condition_files/AMP_rep3.csv,left,fairness.virtue,,,,,,,,,,,,,,0,0,0,2,0,40,40,40,,,,,,,,,,,,,,,,,,,,,473.9858784015887,,,,,,,,,,,,,,AMP_prac,right,0.8004704419836344,1,,,left,0.4824647465175076,,,,,,,,,,,,,,,,,,,,,,,,,1020,2019_May_23_1656,mf_amp_cond1,3.0.7,59.994477594622516,
violations,&&&&&&&&&&,images/symbols/symbol_16.png,condition_files/AMP_rep3.csv,right,sanctity.vice,,,,,,,,,,,,,,0,0,0,2,0,41,41,41,,,,,,,,,,,,,,,,,,,,,474.8527793698304,,,,,,,,,,,,,,AMP_prac,right,0.8004704419836344,1,,,right,0.6492853085692332,,,,,,,,,,,,,,,,,,,,,,,,,1020,2019_May_23_1656,mf_amp_cond1,3.0.7,59.994477594622516,
terrorist,&&&&&&&&&,images/symbols/symbol_30.png,condition_files/AMP_rep3.csv,right,loyalty.vice,,,,,,,,,,,,,,0,0,0,2,0,42,42,42,,,,,,,,,,,,,,,,,,,,,475.63633243840013,,,,,,,,,,,,,,AMP_prac,right,0.8004704419836344,1,,,right,0.5660689068572538,,,,,,,,,,,,,,,,,,,,,,,,,1020,2019_May_23_1656,mf_amp_cond1,3.0.7,59.994477594622516,
graidd,&&&&&&,images/symbols/symbol_57.png,condition_files/AMP_rep3.csv,None,nonword,,,,,,,,,,,,,,0,0,0,2,0,43,43,43,,,,,,,,,,,,,,,,,,,,,476.4698932204483,,,,,,,,,,,,,,AMP_prac,right,0.8004704419836344,1,,,left,0.6004078361220309,,,,,,,,,,,,,,,,,,,,,,,,,1020,2019_May_23_1656,mf_amp_cond1,3.0.7,59.994477594622516,
embrace,&&&&&&&,images/symbols/symbol_82.png,condition_files/AMP_rep3.csv,left,authority.virtue,,,,,,,,,,,,,,0,0,0,2,0,44,44,44,,,,,,,,,,,,,,,,,,,,,477.2201028955533,,,,,,,,,,,,,,AMP_prac,right,0.8004704419836344,1,,,left,0.5323698274369235,,,,,,,,,,,,,,,,,,,,,,,,,1020,2019_May_23_1656,mf_amp_cond1,3.0.7,59.994477594622516,
good,&&&&,images/symbols/symbol_4.png,condition_files/AMP_rep3.csv,left,care.virtue,,,,,,,,,,,,,,0,0,0,2,0,45,45,45,,,,,,,,,,,,,,,,,,,,,477.95364760919256,,,,,,,,,,,,,,AMP_prac,right,0.8004704419836344,1,,,left,0.5156609264086001,,,,,,,,,,,,,,,,,,,,,,,,,1020,2019_May_23_1656,mf_amp_cond1,3.0.7,59.994477594622516,
black,&&&&&,images/symbols/symbol_46.png,condition_files/AMP_rep3.csv,right,loyalty.vice,,,,,,,,,,,,,,0,0,0,2,0,46,46,46,,,,,,,,,,,,,,,,,,,,,478.60378027780826,,,,,,,,,,,,,,AMP_prac,right,0.8004704419836344,1,,,right,0.43240635821712203,,,,,,,,,,,,,,,,,,,,,,,,,1020,2019_May_23_1656,mf_amp_cond1,3.0.7,59.994477594622516,
energy,&&&&&&,images/symbols/symbol_48.png,condition_files/AMP_rep3.csv,left,sanctity.virtue,,,,,,,,,,,,,,0,0,0,2,0,47,47,47,,,,,,,,,,,,,,,,,,,,,479.3540271572165,,,,,,,,,,,,,,AMP_prac,right,0.8004704419836344,1,,,left,0.5325196068260993,,,,,,,,,,,,,,,,,,,,,,,,,1020,2019_May_23_1656,mf_amp_cond1,3.0.7,59.994477594622516,
commitment,&&&&&&&&&&,images/symbols/symbol_41.png,condition_files/AMP_rep3.csv,left,sanctity.virtue,,,,,,,,,,,,,,0,0,0,2,0,48,48,48,,,,,,,,,,,,,,,,,,,,,480.07089055232063,,,,,,,,,,,,,,AMP_prac,right,0.8004704419836344,1,,,right,0.4997365229828574,,,,,,,,,,,,,,,,,,,,,,,,,1020,2019_May_23_1656,mf_amp_cond1,3.0.7,59.994477594622516,
fear,&&&&,images/symbols/symbol_77.png,condition_files/AMP_rep3.csv,right,sanctity.vice,,,,,,,,,,,,,,0,0,0,2,0,49,49,49,,,,,,,,,,,,,,,,,,,,,481.0211034988424,,,,,,,,,,,,,,AMP_prac,right,0.8004704419836344,1,,,left,0.7326588663781877,,,,,,,,,,,,,,,,,,,,,,,,,1020,2019_May_23_1656,mf_amp_cond1,3.0.7,59.994477594622516,
blamed,&&&&&&,images/symbols/symbol_12.png,condition_files/AMP_rep3.csv,right,loyalty.vice,,,,,,,,,,,,,,0,0,0,2,0,50,50,50,,,,,,,,,,,,,,,,,,,,,481.75470882983063,,,,,,,,,,,,,,AMP_prac,right,0.8004704419836344,1,,,right,0.5004780432063853,,,,,,,,,,,,,,,,,,,,,,,,,1020,2019_May_23_1656,mf_amp_cond1,3.0.7,59.994477594622516,
praised,&&&&&&&,images/symbols/symbol_3.png,condition_files/AMP_rep3.csv,left,loyalty.virtue,,,,,,,,,,,,,,0,0,0,2,0,51,51,51,,,,,,,,,,,,,,,,,,,,,482.72143631698054,,,,,,,,,,,,,,AMP_prac,right,0.8004704419836344,1,,,right,0.7487016179693455,,,,,,,,,,,,,,,,,,,,,,,,,1020,2019_May_23_1656,mf_amp_cond1,3.0.7,59.994477594622516,
dignity,&&&&&&&,images/symbols/symbol_60.png,condition_files/AMP_rep3.csv,left,sanctity.virtue,,,,,,,,,,,,,,0,0,0,2,0,52,52,52,,,,,,,,,,,,,,,,,,,,,483.38840970531965,,,,,,,,,,,,,,AMP_prac,right,0.8004704419836344,1,,,right,0.43368798227311345,,,,,,,,,,,,,,,,,,,,,,,,,1020,2019_May_23_1656,mf_amp_cond1,3.0.7,59.994477594622516,
harassment,&&&&&&&&&&,images/symbols/symbol_68.png,condition_files/AMP_rep3.csv,right,sanctity.vice,,,,,,,,,,,,,,0,0,0,2,0,53,53,53,,,,,,,,,,,,,,,,,,,,,484.1886261317268,,,,,,,,,,,,,,AMP_prac,right,0.8004704419836344,1,,,left,0.5670580281257571,,,,,,,,,,,,,,,,,,,,,,,,,1020,2019_May_23_1656,mf_amp_cond1,3.0.7,59.994477594622516,
interests,&&&&&&&&&,images/symbols/symbol_6.png,condition_files/AMP_rep3.csv,left,fairness.virtue,,,,,,,,,,,,,,0,0,0,2,0,54,54,54,,,,,,,,,,,,,,,,,,,,,484.9721798417486,,,,,,,,,,,,,,AMP_prac,right,0.8004704419836344,1,,,right,0.5653023699451296,,,,,,,,,,,,,,,,,,,,,,,,,1020,2019_May_23_1656,mf_amp_cond1,3.0.7,59.994477594622516,
sexual,&&&&&&,images/symbols/symbol_69.png,condition_files/AMP_rep3.csv,right,sanctity.vice,,,,,,,,,,,,,,0,0,0,2,0,55,55,55,,,,,,,,,,,,,,,,,,,,,485.83907086745967,,,,,,,,,,,,,,AMP_prac,right,0.8004704419836344,1,,,left,0.6489905606904358,,,,,,,,,,,,,,,,,,,,,,,,,1020,2019_May_23_1656,mf_amp_cond1,3.0.7,59.994477594622516,
pleasant,&&&&&&&,images/symbols/symbol_61.png,condition_files/AMP_rep3.csv,right,control,,,,,,,,,,,,,,0,0,0,2,0,56,56,56,,,,,,,,,,,,,,,,,,,,,486.8393441266453,,,,,,,,,,,,,,AMP_prac,right,0.8004704419836344,1,,,left,0.7825456658756593,,,,,,,,,,,,,,,,,,,,,,,,,1020,2019_May_23_1656,mf_amp_cond1,3.0.7,59.994477594622516,
wraize,&&&&&&,images/symbols/symbol_13.png,condition_files/AMP_rep3.csv,None,nonword,,,,,,,,,,,,,,0,0,0,2,0,57,57,57,,,,,,,,,,,,,,,,,,,,,487.73958367744854,,,,,,,,,,,,,,AMP_prac,right,0.8004704419836344,1,,,right,0.6670971888597705,,,,,,,,,,,,,,,,,,,,,,,,,1020,2019_May_23_1656,mf_amp_cond1,3.0.7,59.994477594622516,
praise,&&&&&&,images/symbols/symbol_21.png,condition_files/AMP_rep3.csv,left,authority.virtue,,,,,,,,,,,,,,0,0,0,2,0,58,58,58,,,,,,,,,,,,,,,,,,,,,488.75652253955195,,,,,,,,,,,,,,AMP_prac,right,0.8004704419836344,1,,,left,0.7989697615630575,,,,,,,,,,,,,,,,,,,,,,,,,1020,2019_May_23_1656,mf_amp_cond1,3.0.7,59.994477594622516,
feulde,&&&&&&,images/symbols/symbol_22.png,condition_files/AMP_rep3.csv,None,nonword,,,,,,,,,,,,,,0,0,0,2,0,59,59,59,,,,,,,,,,,,,,,,,,,,,489.6400923179863,,,,,,,,,,,,,,AMP_prac,right,0.8004704419836344,1,,,right,0.665566039398982,,,,,,,,,,,,,,,,,,,,,,,,,1020,2019_May_23_1656,mf_amp_cond1,3.0.7,59.994477594622516,
safe,&&&&,images/symbols/symbol_64.png,condition_files/AMP_rep3.csv,left,care.virtue,,,,,,,,,,,,,,0,0,0,2,0,60,60,60,,,,,,,,,,,,,,,,,,,,,490.7403867772082,,,,,,,,,,,,,,AMP_prac,right,0.8004704419836344,1,,,left,0.8824735344314831,,,,,,,,,,,,,,,,,,,,,,,,,1020,2019_May_23_1656,mf_amp_cond1,3.0.7,59.994477594622516,
betrayal,&&&&&&&&,images/symbols/symbol_65.png,condition_files/AMP_rep3.csv,right,loyalty.vice,,,,,,,,,,,,,,0,0,0,2,0,61,61,61,,,,,,,,,,,,,,,,,,,,,492.4408440373227,,,,,,,,,,,,,,AMP_prac,right,0.8004704419836344,1,,,left,1.4827399300593243,,,,,,,,,,,,,,,,,,,,,,,,,1020,2019_May_23_1656,mf_amp_cond1,3.0.7,59.994477594622516,
abuse,&&&&&,images/symbols/symbol_23.png,condition_files/AMP_rep3.csv,right,sanctity.vice,,,,,,,,,,,,,,0,0,0,2,0,62,62,62,,,,,,,,,,,,,,,,,,,,,493.17437912915557,,,,,,,,,,,,,,AMP_prac,right,0.8004704419836344,1,,,left,0.515812309429748,,,,,,,,,,,,,,,,,,,,,,,,,1020,2019_May_23_1656,mf_amp_cond1,3.0.7,59.994477594622516,
slypped,&&&&&&&,images/symbols/symbol_35.png,condition_files/AMP_rep3.csv,None,nonword,,,,,,,,,,,,,,0,0,0,2,0,63,63,63,,,,,,,,,,,,,,,,,,,,,493.9412605009966,,,,,,,,,,,,,,AMP_prac,right,0.8004704419836344,1,,,right,0.5491682112333365,,,,,,,,,,,,,,,,,,,,,,,,,1020,2019_May_23_1656,mf_amp_cond1,3.0.7,59.994477594622516,
charges,&&&&&&&,images/symbols/symbol_42.png,condition_files/AMP_rep3.csv,right,fairness.vice,,,,,,,,,,,,,,0,0,0,2,0,64,64,64,,,,,,,,,,,,,,,,,,,,,494.6748260618697,,,,,,,,,,,,,,AMP_prac,right,0.8004704419836344,1,,,right,0.5159114139933081,,,,,,,,,,,,,,,,,,,,,,,,,1020,2019_May_23_1656,mf_amp_cond1,3.0.7,59.994477594622516,
growth,&&&&&&,images/symbols/symbol_38.png,condition_files/AMP_rep3.csv,left,care.virtue,,,,,,,,,,,,,,0,0,0,2,0,65,65,65,,,,,,,,,,,,,,,,,,,,,495.6917190600543,,,,,,,,,,,,,,AMP_prac,right,0.8004704419836344,1,,,right,0.7993462947561056,,,,,,,,,,,,,,,,,,,,,,,,,1020,2019_May_23_1656,mf_amp_cond1,3.0.7,59.994477594622516,
officers,&&&&&&&&,images/symbols/symbol_43.png,condition_files/AMP_rep3.csv,right,authority.vice,,,,,,,,,,,,,,0,0,0,2,0,66,66,66,,,,,,,,,,,,,,,,,,,,,496.75866820145166,,,,,,,,,,,,,,AMP_prac,right,0.8004704419836344,1,,,left,0.8337958747470111,,,,,,,,,,,,,,,,,,,,,,,,,1020,2019_May_23_1656,mf_amp_cond1,3.0.7,59.994477594622516,
great,&&&&&,images/symbols/symbol_74.png,condition_files/AMP_rep3.csv,left,loyalty.virtue,,,,,,,,,,,,,,0,0,0,2,0,67,67,67,,,,,,,,,,,,,,,,,,,,,497.60878329424304,,,,,,,,,,,,,,AMP_prac,right,0.8004704419836344,1,,,left,0.6169473934387497,,,,,,,,,,,,,,,,,,,,,,,,,1020,2019_May_23_1656,mf_amp_cond1,3.0.7,59.994477594622516,
unpleasant,&&&&&&&&&,images/symbols/symbol_1.png,condition_files/AMP_rep3.csv,left,control,,,,,,,,,,,,,,0,0,0,2,0,68,68,68,,,,,,,,,,,,,,,,,,,,,498.325815391614,,,,,,,,,,,,,,AMP_prac,right,0.8004704419836344,1,,,right,0.49844720148394117,,,,,,,,,,,,,,,,,,,,,,,,,1020,2019_May_23_1656,mf_amp_cond1,3.0.7,59.994477594622516,
help,&&&&,images/symbols/symbol_25.png,condition_files/AMP_rep3.csv,left,care.virtue,,,,,,,,,,,,,,0,0,0,2,0,69,69,69,,,,,,,,,,,,,,,,,,,,,499.1593267817407,,,,,,,,,,,,,,AMP_prac,right,0.8004704419836344,1,,,left,0.6157151612969756,,,,,,,,,,,,,,,,,,,,,,,,,1020,2019_May_23_1656,mf_amp_cond1,3.0.7,59.994477594622516,
men,&&&,images/symbols/symbol_72.png,condition_files/AMP_rep3.csv,right,loyalty.vice,,,,,,,,,,,,,,0,0,0,2,0,70,70,70,,,,,,,,,,,,,,,,,,,,,499.89288977680553,,,,,,,,,,,,,,AMP_prac,right,0.8004704419836344,1,,,right,0.500448857073934,,,,,,,,,,,,,,,,,,,,,,,,,1020,2019_May_23_1656,mf_amp_cond1,3.0.7,59.994477594622516,
arrests,&&&&&&&,images/symbols/symbol_9.png,condition_files/AMP_rep3.csv,right,authority.vice,,,,,,,,,,,,,,0,0,0,2,0,71,71,71,,,,,,,,,,,,,,,,,,,,,500.65973201997986,,,,,,,,,,,,,,AMP_prac,right,0.8004704419836344,1,,,right,0.5484889119943546,,,,,,,,,,,,,,,,,,,,,,,,,1020,2019_May_23_1656,mf_amp_cond1,3.0.7,59.994477594622516,
prison,&&&&&&,images/symbols/symbol_75.png,condition_files/AMP_rep3.csv,right,fairness.vice,,,,,,,,,,,,,,0,0,0,2,0,72,72,72,,,,,,,,,,,,,,,,,,,,,501.3599099271014,,,,,,,,,,,,,,AMP_prac,right,0.8004704419836344,1,,,left,0.4823435118123598,,,,,,,,,,,,,,,,,,,,,,,,,1020,2019_May_23_1656,mf_amp_cond1,3.0.7,59.994477594622516,
death,&&&&&,images/symbols/symbol_58.png,condition_files/AMP_rep3.csv,right,care.vice,,,,,,,,,,,,,,0,0,0,2,0,73,73,73,,,,,,,,,,,,,,,,,,,,,502.07680667778914,,,,,,,,,,,,,,AMP_prac,right,0.8004704419836344,1,,,left,0.4991730060974078,,,,,,,,,,,,,,,,,,,,,,,,,1020,2019_May_23_1656,mf_amp_cond1,3.0.7,59.994477594622516,
clean,&&&&&,images/symbols/symbol_5.png,condition_files/AMP_rep3.csv,left,sanctity.virtue,,,,,,,,,,,,,,0,0,0,2,0,74,74,74,,,,,,,,,,,,,,,,,,,,,502.74361296749703,,,,,,,,,,,,,,AMP_prac,right,0.8004704419836344,1,,,right,0.44911654215684393,,,,,,,,,,,,,,,,,,,,,,,,,1020,2019_May_23_1656,mf_amp_cond1,3.0.7,59.994477594622516,
stintz,&&&&&&,images/symbols/symbol_66.png,condition_files/AMP_rep3.csv,None,nonword,,,,,,,,,,,,,,0,0,0,2,0,75,75,75,,,,,,,,,,,,,,,,,,,,,503.4104622345876,,,,,,,,,,,,,,AMP_prac,right,0.8004704419836344,1,,,right,0.4492996771223261,,,,,,,,,,,,,,,,,,,,,,,,,1020,2019_May_23_1656,mf_amp_cond1,3.0.7,59.994477594622516,
fraud,&&&&&,images/symbols/symbol_59.png,condition_files/AMP_rep3.csv,right,fairness.vice,,,,,,,,,,,,,,0,0,0,2,0,76,76,76,,,,,,,,,,,,,,,,,,,,,504.0939758216955,,,,,,,,,,,,,,AMP_prac,right,0.8004704419836344,1,,,left,0.4658206322892511,,,,,,,,,,,,,,,,,,,,,,,,,1020,2019_May_23_1656,mf_amp_cond1,3.0.7,59.994477594622516,
freedom,&&&&&&&,images/symbols/symbol_62.png,condition_files/AMP_rep3.csv,left,sanctity.virtue,,,,,,,,,,,,,,0,0,0,2,0,77,77,77,,,,,,,,,,,,,,,,,,,,,504.8275340058535,,,,,,,,,,,,,,AMP_prac,right,0.8004704419836344,1,,,right,0.5004289720163797,,,,,,,,,,,,,,,,,,,,,,,,,1020,2019_May_23_1656,mf_amp_cond1,3.0.7,59.994477594622516,
trust,&&&&&,images/symbols/symbol_67.png,condition_files/AMP_rep3.csv,left,authority.virtue,,,,,,,,,,,,,,0,0,0,2,0,78,78,78,,,,,,,,,,,,,,,,,,,,,505.7277495021517,,,,,,,,,,,,,,AMP_prac,right,0.8004704419836344,1,,,right,0.6816710119783238,,,,,,,,,,,,,,,,,,,,,,,,,1020,2019_May_23_1656,mf_amp_cond1,3.0.7,59.994477594622516,
strength,&&&&&&&&,images/symbols/symbol_78.png,condition_files/AMP_rep3.csv,left,sanctity.virtue,,,,,,,,,,,,,,0,0,0,2,0,79,79,79,,,,,,,,,,,,,,,,,,,,,506.91140116212046,,,,,,,,,,,,,,AMP_prac,right,0.8004704419836344,1,,,right,0.965846771516226,,,,,,,,,,,,,,,,,,,,,,,,,1020,2019_May_23_1656,mf_amp_cond1,3.0.7,59.994477594622516,
penalty,&&&&&&&,images/symbols/symbol_44.png,condition_files/AMP_rep3.csv,right,authority.vice,,,,,,,,,,,,,,0,0,0,2,0,80,80,80,,,,,,,,,,,,,,,,,,,,,507.9283371376878,,,,,,,,,,,,,,AMP_prac,right,0.8004704419836344,1,,,left,0.7990627723156649,,,,,,,,,,,,,,,,,,,,,,,,,1020,2019_May_23_1656,mf_amp_cond1,3.0.7,59.994477594622516,
civilians,&&&&&&&&&,images/symbols/symbol_79.png,condition_files/AMP_rep3.csv,right,care.vice,,,,,,,,,,,,,,0,0,0,2,0,81,81,81,,,,,,,,,,,,,,,,,,,,,508.9786412026733,,,,,,,,,,,,,,AMP_prac,right,0.8004704419836344,1,,,left,0.832412259587727,,,,,,,,,,,,,,,,,,,,,,,,,1020,2019_May_23_1656,mf_amp_cond1,3.0.7,59.994477594622516,
,,,condition_files/AMP_rep3.csv,,,,,,,,,,,,,,,,0,0,0,2,,,,,,,,,,,,,,,,,,,,,,,,,,,,,,,,,,,,,,,,,,,,,,,right,3.6678832901052374,,,,,,,,,,,,,,,,,,,,,,,1020,2019_May_23_1656,mf_amp_cond1,3.0.7,59.994477594622516,
gryssed,&&&&&&&,images/symbols/symbol_11.png,condition_files/AMP_rep4.csv,None,nonword,,,,,,,,,,,,,,0,1,1,3,0,0,0,0,,,,,,,,,,,,,,,,,,,,,513.5800554793132,,,,,,,,,,,,,,AMP_prac,right,0.8004704419836344,1,,,left,0.6822502444738348,,,,,,,,,,,,,,,,,,,,,,,,,1020,2019_May_23_1656,mf_amp_cond1,3.0.7,59.994477594622516,
dighnd,&&&&&&,images/symbols/symbol_7.png,condition_files/AMP_rep4.csv,None,nonword,,,,,,,,,,,,,,0,1,1,3,0,1,1,1,,,,,,,,,,,,,,,,,,,,,514.6801979140582,,,,,,,,,,,,,,AMP_prac,right,0.8004704419836344,1,,,right,0.8828096560573613,,,,,,,,,,,,,,,,,,,,,,,,,1020,2019_May_23_1656,mf_amp_cond1,3.0.7,59.994477594622516,
died,&&&&,images/symbols/symbol_54.png,condition_files/AMP_rep4.csv,right,care.vice,,,,,,,,,,,,,,0,1,1,3,0,2,2,2,,,,,,,,,,,,,,,,,,,,,515.5304182052205,,,,,,,,,,,,,,AMP_prac,right,0.8004704419836344,1,,,left,0.617105190995062,,,,,,,,,,,,,,,,,,,,,,,,,1020,2019_May_23_1656,mf_amp_cond1,3.0.7,59.994477594622516,
attacks,&&&&&&&,images/symbols/symbol_76.png,condition_files/AMP_rep4.csv,right,care.vice,,,,,,,,,,,,,,0,1,1,3,0,3,3,3,,,,,,,,,,,,,,,,,,,,,516.2806195414305,,,,,,,,,,,,,,AMP_prac,right,0.8004704419836344,1,,,right,0.5322348014815361,,,,,,,,,,,,,,,,,,,,,,,,,1020,2019_May_23_1656,mf_amp_cond1,3.0.7,59.994477594622516,
drug,&&&&,images/symbols/symbol_24.png,condition_files/AMP_rep4.csv,right,sanctity.vice,,,,,,,,,,,,,,0,1,1,3,0,4,4,4,,,,,,,,,,,,,,,,,,,,,516.9641026594982,,,,,,,,,,,,,,AMP_prac,right,0.8004704419836344,1,,,right,0.4503545473780832,,,,,,,,,,,,,,,,,,,,,,,,,1020,2019_May_23_1656,mf_amp_cond1,3.0.7,59.994477594622516,
riot,&&&&,images/symbols/symbol_14.png,condition_files/AMP_rep4.csv,right,authority.vice,,,,,,,,,,,,,,0,1,1,3,0,5,5,5,,,,,,,,,,,,,,,,,,,,,517.7309975018616,,,,,,,,,,,,,,AMP_prac,right,0.8004704419836344,1,,,left,0.5484635745815467,,,,,,,,,,,,,,,,,,,,,,,,,1020,2019_May_23_1656,mf_amp_cond1,3.0.7,59.994477594622516,
troops,&&&&&&,images/symbols/symbol_8.png,condition_files/AMP_rep4.csv,right,loyalty.vice,,,,,,,,,,,,,,0,1,1,3,0,6,6,6,,,,,,,,,,,,,,,,,,,,,518.4811988380716,,,,,,,,,,,,,,AMP_prac,right,0.8004704419836344,1,,,left,0.5325273042690242,,,,,,,,,,,,,,,,,,,,,,,,,1020,2019_May_23_1656,mf_amp_cond1,3.0.7,59.994477594622516,
pseighs,&&&&&&&,images/symbols/symbol_56.png,condition_files/AMP_rep4.csv,None,nonword,,,,,,,,,,,,,,0,1,1,3,0,7,7,7,,,,,,,,,,,,,,,,,,,,,519.1813870084516,,,,,,,,,,,,,,AMP_prac,right,0.8004704419836344,1,,,right,0.4670464498885849,,,,,,,,,,,,,,,,,,,,,,,,,1020,2019_May_23_1656,mf_amp_cond1,3.0.7,59.994477594622516,
friends,&&&&&&&,images/symbols/symbol_32.png,condition_files/AMP_rep4.csv,left,loyalty.virtue,,,,,,,,,,,,,,0,1,1,3,0,8,8,8,,,,,,,,,,,,,,,,,,,,,519.8148848639103,,,,,,,,,,,,,,AMP_prac,right,0.8004704419836344,1,,,left,0.41511662105403957,,,,,,,,,,,,,,,,,,,,,,,,,1020,2019_May_23_1656,mf_amp_cond1,3.0.7,59.994477594622516,
killed,&&&&&&,images/symbols/symbol_29.png,condition_files/AMP_rep4.csv,right,care.vice,,,,,,,,,,,,,,0,1,1,3,0,9,9,9,,,,,,,,,,,,,,,,,,,,,520.615082688164,,,,,,,,,,,,,,AMP_prac,right,0.8004704419836344,1,,,left,0.5821860670512251,,,,,,,,,,,,,,,,,,,,,,,,,1020,2019_May_23_1656,mf_amp_cond1,3.0.7,59.994477594622516,
improve,&&&&&&&,images/symbols/symbol_10.png,condition_files/AMP_rep4.csv,left,care.virtue,,,,,,,,,,,,,,0,1,1,3,0,10,10,10,,,,,,,,,,,,,,,,,,,,,521.2819261821751,,,,,,,,,,,,,,AMP_prac,right,0.8004704419836344,1,,,right,0.44927337753324537,,,,,,,,,,,,,,,,,,,,,,,,,1020,2019_May_23_1656,mf_amp_cond1,3.0.7,59.994477594622516,
conspiracy,&&&&&&&&&&,images/symbols/symbol_71.png,condition_files/AMP_rep4.csv,right,sanctity.vice,,,,,,,,,,,,,,0,1,1,3,0,11,11,11,,,,,,,,,,,,,,,,,,,,,521.9154249998173,,,,,,,,,,,,,,AMP_prac,right,0.8004704419836344,1,,,left,0.400342985176394,,,,,,,,,,,,,,,,,,,,,,,,,1020,2019_May_23_1656,mf_amp_cond1,3.0.7,59.994477594622516,
illegal,&&&&&&&,images/symbols/symbol_81.png,condition_files/AMP_rep4.csv,right,fairness.vice,,,,,,,,,,,,,,0,1,1,3,0,12,12,12,,,,,,,,,,,,,,,,,,,,,522.4989234806926,,,,,,,,,,,,,,AMP_prac,right,0.8004704419836344,1,,,left,0.3503359131536854,,,,,,,,,,,,,,,,,,,,,,,,,1020,2019_May_23_1656,mf_amp_cond1,3.0.7,59.994477594622516,
protect,&&&&&&&,images/symbols/symbol_15.png,condition_files/AMP_rep4.csv,left,fairness.virtue,,,,,,,,,,,,,,0,1,1,3,0,13,13,13,,,,,,,,,,,,,,,,,,,,,523.0657804131552,,,,,,,,,,,,,,AMP_prac,right,0.8004704419836344,1,,,left,0.34853984340224997,,,,,,,,,,,,,,,,,,,,,,,,,1020,2019_May_23_1656,mf_amp_cond1,3.0.7,59.994477594622516,
accused,&&&&&&&,images/symbols/symbol_17.png,condition_files/AMP_rep4.csv,right,fairness.vice,,,,,,,,,,,,,,0,1,1,3,0,14,14,14,,,,,,,,,,,,,,,,,,,,,523.6825761028449,,,,,,,,,,,,,,AMP_prac,right,0.8004704419836344,1,,,left,0.3991325624556339,,,,,,,,,,,,,,,,,,,,,,,,,1020,2019_May_23_1656,mf_amp_cond1,3.0.7,59.994477594622516,
actively,&&&&&&&&,images/symbols/symbol_50.png,condition_files/AMP_rep4.csv,left,authority.virtue,,,,,,,,,,,,,,0,1,1,3,0,15,15,15,,,,,,,,,,,,,,,,,,,,,524.5496582816959,,,,,,,,,,,,,,AMP_prac,right,0.8004704419836344,1,,,left,0.649246821358247,,,,,,,,,,,,,,,,,,,,,,,,,1020,2019_May_23_1656,mf_amp_cond1,3.0.7,59.994477594622516,
ensure,&&&&&&,images/symbols/symbol_39.png,condition_files/AMP_rep4.csv,left,fairness.virtue,,,,,,,,,,,,,,0,1,1,3,0,16,16,16,,,,,,,,,,,,,,,,,,,,,525.3330134618627,,,,,,,,,,,,,,AMP_prac,right,0.8004704419836344,1,,,left,0.5658062316542782,,,,,,,,,,,,,,,,,,,,,,,,,1020,2019_May_23_1656,mf_amp_cond1,3.0.7,59.994477594622516,
strong,&&&&&&,images/symbols/symbol_55.png,condition_files/AMP_rep4.csv,left,loyalty.virtue,,,,,,,,,,,,,,0,1,1,3,0,17,17,17,,,,,,,,,,,,,,,,,,,,,526.0499265696126,,,,,,,,,,,,,,AMP_prac,right,0.8004704419836344,1,,,left,0.4991287458105944,,,,,,,,,,,,,,,,,,,,,,,,,1020,2019_May_23_1656,mf_amp_cond1,3.0.7,59.994477594622516,
voter,&&&&&,images/symbols/symbol_53.png,condition_files/AMP_rep4.csv,right,fairness.vice,,,,,,,,,,,,,,0,1,1,3,0,18,18,18,,,,,,,,,,,,,,,,,,,,,526.700068218579,,,,,,,,,,,,,,AMP_prac,right,0.8004704419836344,1,,,left,0.43258211647116696,,,,,,,,,,,,,,,,,,,,,,,,,1020,2019_May_23_1656,mf_amp_cond1,3.0.7,59.994477594622516,
promote,&&&&&&&,images/symbols/symbol_20.png,condition_files/AMP_rep4.csv,left,sanctity.virtue,,,,,,,,,,,,,,0,1,1,3,0,19,19,19,,,,,,,,,,,,,,,,,,,,,527.3835741082439,,,,,,,,,,,,,,AMP_prac,right,0.8004704419836344,1,,,right,0.4659858065570006,,,,,,,,,,,,,,,,,,,,,,,,,1020,2019_May_23_1656,mf_amp_cond1,3.0.7,59.994477594622516,
loyalty,&&&&&&&,images/symbols/symbol_37.png,condition_files/AMP_rep4.csv,left,loyalty.virtue,,,,,,,,,,,,,,0,1,1,3,0,20,20,20,,,,,,,,,,,,,,,,,,,,,528.0170671528031,,,,,,,,,,,,,,AMP_prac,right,0.8004704419836344,1,,,left,0.4003519655234413,,,,,,,,,,,,,,,,,,,,,,,,,1020,2019_May_23_1656,mf_amp_cond1,3.0.7,59.994477594622516,
threatened,&&&&&&&&&&,images/symbols/symbol_80.png,condition_files/AMP_rep4.csv,right,fairness.vice,,,,,,,,,,,,,,0,1,1,3,0,21,21,21,,,,,,,,,,,,,,,,,,,,,528.7005788155511,,,,,,,,,,,,,,AMP_prac,right,0.8004704419836344,1,,,left,0.4656301206050557,,,,,,,,,,,,,,,,,,,,,,,,,1020,2019_May_23_1656,mf_amp_cond1,3.0.7,59.994477594622516,
promises,&&&&&&&&,images/symbols/symbol_49.png,condition_files/AMP_rep4.csv,left,fairness.virtue,,,,,,,,,,,,,,0,1,1,3,0,22,22,22,,,,,,,,,,,,,,,,,,,,,529.3507650455322,,,,,,,,,,,,,,AMP_prac,right,0.8004704419836344,1,,,left,0.43286179018832627,,,,,,,,,,,,,,,,,,,,,,,,,1020,2019_May_23_1656,mf_amp_cond1,3.0.7,59.994477594622516,
hope,&&&&,images/symbols/symbol_40.png,condition_files/AMP_rep4.csv,left,loyalty.virtue,,,,,,,,,,,,,,0,1,1,3,0,23,23,23,,,,,,,,,,,,,,,,,,,,,529.9674661208337,,,,,,,,,,,,,,AMP_prac,right,0.8004704419836344,1,,,left,0.3987059958926693,,,,,,,,,,,,,,,,,,,,,,,,,1020,2019_May_23_1656,mf_amp_cond1,3.0.7,59.994477594622516,
suicide,&&&&&&&,images/symbols/symbol_36.png,condition_files/AMP_rep4.csv,right,care.vice,,,,,,,,,,,,,,0,1,1,3,0,24,24,24,,,,,,,,,,,,,,,,,,,,,530.7177983135552,,,,,,,,,,,,,,AMP_prac,right,0.8004704419836344,1,,,right,0.5324897792415868,,,,,,,,,,,,,,,,,,,,,,,,,1020,2019_May_23_1656,mf_amp_cond1,3.0.7,59.994477594622516,
crarft,&&&&&&,images/symbols/symbol_18.png,condition_files/AMP_rep4.csv,None,nonword,,,,,,,,,,,,,,0,1,1,3,0,25,25,25,,,,,,,,,,,,,,,,,,,,,531.4179829559398,,,,,,,,,,,,,,AMP_prac,right,0.8004704419836344,1,,,right,0.48235666160690016,,,,,,,,,,,,,,,,,,,,,,,,,1020,2019_May_23_1656,mf_amp_cond1,3.0.7,59.994477594622516,
protesters,&&&&&&&&&&,images/symbols/symbol_27.png,condition_files/AMP_rep4.csv,right,authority.vice,,,,,,,,,,,,,,0,1,1,3,0,26,26,26,,,,,,,,,,,,,,,,,,,,,532.1848854957425,,,,,,,,,,,,,,AMP_prac,right,0.8004704419836344,1,,,left,0.5488741048102384,,,,,,,,,,,,,,,,,,,,,,,,,1020,2019_May_23_1656,mf_amp_cond1,3.0.7,59.994477594622516,
rejected,&&&&&&&&,images/symbols/symbol_19.png,condition_files/AMP_rep4.csv,right,authority.vice,,,,,,,,,,,,,,0,1,1,3,0,27,27,27,,,,,,,,,,,,,,,,,,,,,533.0017643178035,,,,,,,,,,,,,,AMP_prac,right,0.8004704419836344,1,,,left,0.5992445602350926,,,,,,,,,,,,,,,,,,,,,,,,,1020,2019_May_23_1656,mf_amp_cond1,3.0.7,59.994477594622516,
freazz,&&&&&&,images/symbols/symbol_70.png,condition_files/AMP_rep4.csv,None,nonword,,,,,,,,,,,,,,0,1,1,3,0,28,28,28,,,,,,,,,,,,,,,,,,,,,533.7019358103935,,,,,,,,,,,,,,AMP_prac,right,0.8004704419836344,1,,,right,0.46703522445750423,,,,,,,,,,,,,,,,,,,,,,,,,1020,2019_May_23_1656,mf_amp_cond1,3.0.7,59.994477594622516,
ability,&&&&&&&,images/symbols/symbol_52.png,condition_files/AMP_rep4.csv,left,authority.virtue,,,,,,,,,,,,,,0,1,1,3,0,29,29,29,,,,,,,,,,,,,,,,,,,,,534.4354936738273,,,,,,,,,,,,,,AMP_prac,right,0.8004704419836344,1,,,left,0.5156169868423603,,,,,,,,,,,,,,,,,,,,,,,,,1020,2019_May_23_1656,mf_amp_cond1,3.0.7,59.994477594622516,
love,&&&&,images/symbols/symbol_26.png,condition_files/AMP_rep4.csv,left,loyalty.virtue,,,,,,,,,,,,,,0,1,1,3,0,30,30,30,,,,,,,,,,,,,,,,,,,,,535.1356526580712,,,,,,,,,,,,,,AMP_prac,right,0.8004704419836344,1,,,left,0.482433315297385,,,,,,,,,,,,,,,,,,,,,,,,,1020,2019_May_23_1656,mf_amp_cond1,3.0.7,59.994477594622516,
peaceful,&&&&&&&&,images/symbols/symbol_73.png,condition_files/AMP_rep4.csv,left,authority.virtue,,,,,,,,,,,,,,0,1,1,3,0,31,31,31,,,,,,,,,,,,,,,,,,,,,535.9192660232693,,,,,,,,,,,,,,AMP_prac,right,0.8004704419836344,1,,,right,0.5657578019163338,,,,,,,,,,,,,,,,,,,,,,,,,1020,2019_May_23_1656,mf_amp_cond1,3.0.7,59.994477594622516,
safety,&&&&&&,images/symbols/symbol_2.png,condition_files/AMP_rep4.csv,left,care.virtue,,,,,,,,,,,,,,0,1,1,3,0,32,32,32,,,,,,,,,,,,,,,,,,,,,536.6527347246665,,,,,,,,,,,,,,AMP_prac,right,0.8004704419836344,1,,,left,0.5158581733521714,,,,,,,,,,,,,,,,,,,,,,,,,1020,2019_May_23_1656,mf_amp_cond1,3.0.7,59.994477594622516,
army,&&&&,images/symbols/symbol_33.png,condition_files/AMP_rep4.csv,right,loyalty.vice,,,,,,,,,,,,,,0,1,1,3,0,33,33,33,,,,,,,,,,,,,,,,,,,,,537.3862768724903,,,,,,,,,,,,,,AMP_prac,right,0.8004704419836344,1,,,right,0.5160339316062164,,,,,,,,,,,,,,,,,,,,,,,,,1020,2019_May_23_1656,mf_amp_cond1,3.0.7,59.994477594622516,
free,&&&&,images/symbols/symbol_63.png,condition_files/AMP_rep4.csv,left,fairness.virtue,,,,,,,,,,,,,,0,1,1,3,0,34,34,34,,,,,,,,,,,,,,,,,,,,,538.8699918118473,,,,,,,,,,,,,,AMP_prac,right,0.8004704419836344,1,,,left,1.2661784991869354,,,,,,,,,,,,,,,,,,,,,,,,,1020,2019_May_23_1656,mf_amp_cond1,3.0.7,59.994477594622516,
shot,&&&&,images/symbols/symbol_51.png,condition_files/AMP_rep4.csv,right,care.vice,,,,,,,,,,,,,,0,1,1,3,0,35,35,35,,,,,,,,,,,,,,,,,,,,,539.970279856534,,,,,,,,,,,,,,AMP_prac,right,0.8004704419836344,1,,,right,0.8831400045964983,,,,,,,,,,,,,,,,,,,,,,,,,1020,2019_May_23_1656,mf_amp_cond1,3.0.7,59.994477594622516,
gun,&&&,images/symbols/symbol_28.png,condition_files/AMP_rep4.csv,right,authority.vice,,,,,,,,,,,,,,0,1,1,3,0,36,36,36,,,,,,,,,,,,,,,,,,,,,540.6871756450382,,,,,,,,,,,,,,AMP_prac,right,0.8004704419836344,1,,,right,0.4993054662409122,,,,,,,,,,,,,,,,,,,,,,,,,1020,2019_May_23_1656,mf_amp_cond1,3.0.7,59.994477594622516,
health,&&&&&&,images/symbols/symbol_31.png,condition_files/AMP_rep4.csv,left,care.virtue,,,,,,,,,,,,,,0,1,1,3,0,37,37,37,,,,,,,,,,,,,,,,,,,,,541.3873282147506,,,,,,,,,,,,,,AMP_prac,right,0.8004704419836344,1,,,left,0.4670246404748468,,,,,,,,,,,,,,,,,,,,,,,,,1020,2019_May_23_1656,mf_amp_cond1,3.0.7,59.994477594622516,
celebrated,&&&&&&&&&&,images/symbols/symbol_45.png,condition_files/AMP_rep4.csv,left,authority.virtue,,,,,,,,,,,,,,0,1,1,3,0,38,38,38,,,,,,,,,,,,,,,,,,,,,541.9875128250605,,,,,,,,,,,,,,AMP_prac,right,0.8004704419836344,1,,,left,0.38182582677472965,,,,,,,,,,,,,,,,,,,,,,,,,1020,2019_May_23_1656,mf_amp_cond1,3.0.7,59.994477594622516,
opportunity,&&&&&&&&&&&,images/symbols/symbol_34.png,condition_files/AMP_rep4.csv,left,fairness.virtue,,,,,,,,,,,,,,0,1,1,3,0,39,39,39,,,,,,,,,,,,,,,,,,,,,542.5876644005184,,,,,,,,,,,,,,AMP_prac,right,0.8004704419836344,1,,,left,0.38225143116142135,,,,,,,,,,,,,,,,,,,,,,,,,1020,2019_May_23_1656,mf_amp_cond1,3.0.7,59.994477594622516,
integrity,&&&&&&&&&,images/symbols/symbol_47.png,condition_files/AMP_rep4.csv,left,fairness.virtue,,,,,,,,,,,,,,0,1,1,3,0,40,40,40,,,,,,,,,,,,,,,,,,,,,543.1711439585197,,,,,,,,,,,,,,AMP_prac,right,0.8004704419836344,1,,,left,0.3657477952474437,,,,,,,,,,,,,,,,,,,,,,,,,1020,2019_May_23_1656,mf_amp_cond1,3.0.7,59.994477594622516,
violations,&&&&&&&&&&,images/symbols/symbol_16.png,condition_files/AMP_rep4.csv,right,sanctity.vice,,,,,,,,,,,,,,0,1,1,3,0,41,41,41,,,,,,,,,,,,,,,,,,,,,543.7713009863328,,,,,,,,,,,,,,AMP_prac,right,0.8004704419836344,1,,,right,0.38269275115817436,,,,,,,,,,,,,,,,,,,,,,,,,1020,2019_May_23_1656,mf_amp_cond1,3.0.7,59.994477594622516,
terrorist,&&&&&&&&&,images/symbols/symbol_30.png,condition_files/AMP_rep4.csv,right,loyalty.vice,,,,,,,,,,,,,,0,1,1,3,0,42,42,42,,,,,,,,,,,,,,,,,,,,,544.4381585923184,,,,,,,,,,,,,,AMP_prac,right,0.8004704419836344,1,,,right,0.44922238197978004,,,,,,,,,,,,,,,,,,,,,,,,,1020,2019_May_23_1656,mf_amp_cond1,3.0.7,59.994477594622516,
graidd,&&&&&&,images/symbols/symbol_57.png,condition_files/AMP_rep4.csv,None,nonword,,,,,,,,,,,,,,0,1,1,3,0,43,43,43,,,,,,,,,,,,,,,,,,,,,545.1050024070537,,,,,,,,,,,,,,AMP_prac,right,0.8004704419836344,1,,,left,0.43369118954069563,,,,,,,,,,,,,,,,,,,,,,,,,1020,2019_May_23_1656,mf_amp_cond1,3.0.7,59.994477594622516,
embrace,&&&&&&&,images/symbols/symbol_82.png,condition_files/AMP_rep4.csv,left,authority.virtue,,,,,,,,,,,,,,0,1,1,3,0,44,44,44,,,,,,,,,,,,,,,,,,,,,545.7051693773974,,,,,,,,,,,,,,AMP_prac,right,0.8004704419836344,1,,,left,0.382144949886424,,,,,,,,,,,,,,,,,,,,,,,,,1020,2019_May_23_1656,mf_amp_cond1,3.0.7,59.994477594622516,
good,&&&&,images/symbols/symbol_4.png,condition_files/AMP_rep4.csv,left,care.virtue,,,,,,,,,,,,,,0,1,1,3,0,45,45,45,,,,,,,,,,,,,,,,,,,,,546.4053485674267,,,,,,,,,,,,,,AMP_prac,right,0.8004704419836344,1,,,left,0.4822636508506548,,,,,,,,,,,,,,,,,,,,,,,,,1020,2019_May_23_1656,mf_amp_cond1,3.0.7,59.994477594622516,
black,&&&&&,images/symbols/symbol_46.png,condition_files/AMP_rep4.csv,right,loyalty.vice,,,,,,,,,,,,,,0,1,1,3,0,46,46,46,,,,,,,,,,,,,,,,,,,,,547.0388528374206,,,,,,,,,,,,,,AMP_prac,right,0.8004704419836344,1,,,right,0.4157574330820353,,,,,,,,,,,,,,,,,,,,,,,,,1020,2019_May_23_1656,mf_amp_cond1,3.0.7,59.994477594622516,
energy,&&&&&&,images/symbols/symbol_48.png,condition_files/AMP_rep4.csv,left,sanctity.virtue,,,,,,,,,,,,,,0,1,1,3,0,47,47,47,,,,,,,,,,,,,,,,,,,,,547.6723522965149,,,,,,,,,,,,,,AMP_prac,right,0.8004704419836344,1,,,left,0.41566474305363954,,,,,,,,,,,,,,,,,,,,,,,,,1020,2019_May_23_1656,mf_amp_cond1,3.0.7,59.994477594622516,
commitment,&&&&&&&&&&,images/symbols/symbol_41.png,condition_files/AMP_rep4.csv,left,sanctity.virtue,,,,,,,,,,,,,,0,1,1,3,0,48,48,48,,,,,,,,,,,,,,,,,,,,,548.189160783204,,,,,,,,,,,,,,AMP_prac,right,0.8004704419836344,1,,,right,0.2995318351750029,,,,,,,,,,,,,,,,,,,,,,,,,1020,2019_May_23_1656,mf_amp_cond1,3.0.7,59.994477594622516,
fear,&&&&,images/symbols/symbol_77.png,condition_files/AMP_rep4.csv,right,sanctity.vice,,,,,,,,,,,,,,0,1,1,3,0,49,49,49,,,,,,,,,,,,,,,,,,,,,548.8560045979393,,,,,,,,,,,,,,AMP_prac,right,0.8004704419836344,1,,,right,0.44920666636971873,,,,,,,,,,,,,,,,,,,,,,,,,1020,2019_May_23_1656,mf_amp_cond1,3.0.7,59.994477594622516,
blamed,&&&&&&,images/symbols/symbol_12.png,condition_files/AMP_rep4.csv,right,loyalty.vice,,,,,,,,,,,,,,0,1,1,3,0,50,50,50,,,,,,,,,,,,,,,,,,,,,549.4561657951999,,,,,,,,,,,,,,AMP_prac,right,0.8004704419836344,1,,,right,0.3670021575271676,,,,,,,,,,,,,,,,,,,,,,,,,1020,2019_May_23_1656,mf_amp_cond1,3.0.7,59.994477594622516,
praised,&&&&&&&,images/symbols/symbol_3.png,condition_files/AMP_rep4.csv,left,loyalty.virtue,,,,,,,,,,,,,,0,1,1,3,0,51,51,51,,,,,,,,,,,,,,,,,,,,,550.022995786614,,,,,,,,,,,,,,AMP_prac,right,0.8004704419836344,1,,,left,0.3483804422139656,,,,,,,,,,,,,,,,,,,,,,,,,1020,2019_May_23_1656,mf_amp_cond1,3.0.7,59.994477594622516,
dignity,&&&&&&&,images/symbols/symbol_60.png,condition_files/AMP_rep4.csv,left,sanctity.virtue,,,,,,,,,,,,,,0,1,1,3,0,52,52,52,,,,,,,,,,,,,,,,,,,,,550.5898004406154,,,,,,,,,,,,,,AMP_prac,right,0.8004704419836344,1,,,right,0.33365812261399697,,,,,,,,,,,,,,,,,,,,,,,,,1020,2019_May_23_1656,mf_amp_cond1,3.0.7,59.994477594622516,
harassment,&&&&&&&&&&,images/symbols/symbol_68.png,condition_files/AMP_rep4.csv,right,sanctity.vice,,,,,,,,,,,,,,0,1,1,3,0,53,53,53,,,,,,,,,,,,,,,,,,,,,551.2733230080703,,,,,,,,,,,,,,AMP_prac,right,0.8004704419836344,1,,,left,0.4503660935370135,,,,,,,,,,,,,,,,,,,,,,,,,1020,2019_May_23_1656,mf_amp_cond1,3.0.7,59.994477594622516,
interests,&&&&&&&&&,images/symbols/symbol_6.png,condition_files/AMP_rep4.csv,left,fairness.virtue,,,,,,,,,,,,,,0,1,1,3,0,54,54,54,,,,,,,,,,,,,,,,,,,,,551.9735005944676,,,,,,,,,,,,,,AMP_prac,right,0.8004704419836344,1,,,right,0.48183740501553984,,,,,,,,,,,,,,,,,,,,,,,,,1020,2019_May_23_1656,mf_amp_cond1,3.0.7,59.994477594622516,
sexual,&&&&&&,images/symbols/symbol_69.png,condition_files/AMP_rep4.csv,right,sanctity.vice,,,,,,,,,,,,,,0,1,1,3,0,55,55,55,,,,,,,,,,,,,,,,,,,,,553.1238181620502,,,,,,,,,,,,,,AMP_prac,right,0.8004704419836344,1,,,left,0.932529998372047,,,,,,,,,,,,,,,,,,,,,,,,,1020,2019_May_23_1656,mf_amp_cond1,3.0.7,59.994477594622516,
pleasant,&&&&&&&,images/symbols/symbol_61.png,condition_files/AMP_rep4.csv,right,control,,,,,,,,,,,,,,0,1,1,3,0,56,56,56,,,,,,,,,,,,,,,,,,,,,553.8907136458656,,,,,,,,,,,,,,AMP_prac,right,0.8004704419836344,1,,,left,0.5491345349255425,,,,,,,,,,,,,,,,,,,,,,,,,1020,2019_May_23_1656,mf_amp_cond1,3.0.7,59.994477594622516,
wraize,&&&&&&,images/symbols/symbol_13.png,condition_files/AMP_rep4.csv,None,nonword,,,,,,,,,,,,,,0,1,1,3,0,57,57,57,,,,,,,,,,,,,,,,,,,,,554.6242432853469,,,,,,,,,,,,,,AMP_prac,right,0.8004704419836344,1,,,right,0.5157369386470236,,,,,,,,,,,,,,,,,,,,,,,,,1020,2019_May_23_1656,mf_amp_cond1,3.0.7,59.994477594622516,
praise,&&&&&&,images/symbols/symbol_21.png,condition_files/AMP_rep4.csv,left,authority.virtue,,,,,,,,,,,,,,0,1,1,3,0,58,58,58,,,,,,,,,,,,,,,,,,,,,555.374426981587,,,,,,,,,,,,,,AMP_prac,right,0.8004704419836344,1,,,left,0.5326405208106735,,,,,,,,,,,,,,,,,,,,,,,,,1020,2019_May_23_1656,mf_amp_cond1,3.0.7,59.994477594622516,
feulde,&&&&&&,images/symbols/symbol_22.png,condition_files/AMP_rep4.csv,None,nonword,,,,,,,,,,,,,,0,1,1,3,0,59,59,59,,,,,,,,,,,,,,,,,,,,,556.2246761381539,,,,,,,,,,,,,,AMP_prac,right,0.8004704419836344,1,,,right,0.6320177015513764,,,,,,,,,,,,,,,,,,,,,,,,,1020,2019_May_23_1656,mf_amp_cond1,3.0.7,59.994477594622516,
safe,&&&&,images/symbols/symbol_64.png,condition_files/AMP_rep4.csv,left,care.virtue,,,,,,,,,,,,,,0,1,1,3,0,60,60,60,,,,,,,,,,,,,,,,,,,,,557.1582327828291,,,,,,,,,,,,,,AMP_prac,right,0.8004704419836344,1,,,left,0.7156548967468552,,,,,,,,,,,,,,,,,,,,,,,,,1020,2019_May_23_1656,mf_amp_cond1,3.0.7,59.994477594622516,
betrayal,&&&&&&&&,images/symbols/symbol_65.png,condition_files/AMP_rep4.csv,right,loyalty.vice,,,,,,,,,,,,,,0,1,1,3,0,61,61,61,,,,,,,,,,,,,,,,,,,,,558.0418275779448,,,,,,,,,,,,,,AMP_prac,right,0.8004704419836344,1,,,right,0.6658886904988321,,,,,,,,,,,,,,,,,,,,,,,,,1020,2019_May_23_1656,mf_amp_cond1,3.0.7,59.994477594622516,
abuse,&&&&&,images/symbols/symbol_23.png,condition_files/AMP_rep4.csv,right,sanctity.vice,,,,,,,,,,,,,,0,1,1,3,0,62,62,62,,,,,,,,,,,,,,,,,,,,,558.7753729330361,,,,,,,,,,,,,,AMP_prac,right,0.8004704419836344,1,,,left,0.5157071110588731,,,,,,,,,,,,,,,,,,,,,,,,,1020,2019_May_23_1656,mf_amp_cond1,3.0.7,59.994477594622516,
slypped,&&&&&&&,images/symbols/symbol_35.png,condition_files/AMP_rep4.csv,None,nonword,,,,,,,,,,,,,,0,1,1,3,0,63,63,63,,,,,,,,,,,,,,,,,,,,,559.442185958007,,,,,,,,,,,,,,AMP_prac,right,0.8004704419836344,1,,,left,0.4491328992189665,,,,,,,,,,,,,,,,,,,,,,,,,1020,2019_May_23_1656,mf_amp_cond1,3.0.7,59.994477594622516,
charges,&&&&&&&,images/symbols/symbol_42.png,condition_files/AMP_rep4.csv,right,fairness.vice,,,,,,,,,,,,,,0,1,1,3,0,64,64,64,,,,,,,,,,,,,,,,,,,,,560.2424036673183,,,,,,,,,,,,,,AMP_prac,right,0.8004704419836344,1,,,right,0.5824638164085627,,,,,,,,,,,,,,,,,,,,,,,,,1020,2019_May_23_1656,mf_amp_cond1,3.0.7,59.994477594622516,
growth,&&&&&&,images/symbols/symbol_38.png,condition_files/AMP_rep4.csv,left,care.virtue,,,,,,,,,,,,,,0,1,1,3,0,65,65,65,,,,,,,,,,,,,,,,,,,,,560.9593235103275,,,,,,,,,,,,,,AMP_prac,right,0.8004704419836344,1,,,left,0.499322464758734,,,,,,,,,,,,,,,,,,,,,,,,,1020,2019_May_23_1656,mf_amp_cond1,3.0.7,59.994477594622516,
officers,&&&&&&&&,images/symbols/symbol_43.png,condition_files/AMP_rep4.csv,right,authority.vice,,,,,,,,,,,,,,0,1,1,3,0,66,66,66,,,,,,,,,,,,,,,,,,,,,561.7761542233784,,,,,,,,,,,,,,AMP_prac,right,0.8004704419836344,1,,,left,0.5837342150334734,,,,,,,,,,,,,,,,,,,,,,,,,1020,2019_May_23_1656,mf_amp_cond1,3.0.7,59.994477594622516,
great,&&&&&,images/symbols/symbol_74.png,condition_files/AMP_rep4.csv,left,loyalty.virtue,,,,,,,,,,,,,,0,1,1,3,0,67,67,67,,,,,,,,,,,,,,,,,,,,,562.5430227661454,,,,,,,,,,,,,,AMP_prac,right,0.8004704419836344,1,,,left,0.5337188041121408,,,,,,,,,,,,,,,,,,,,,,,,,1020,2019_May_23_1656,mf_amp_cond1,3.0.7,59.994477594622516,
unpleasant,&&&&&&&&&,images/symbols/symbol_1.png,condition_files/AMP_rep4.csv,left,control,,,,,,,,,,,,,,0,1,1,3,0,68,68,68,,,,,,,,,,,,,,,,,,,,,563.6766602981043,,,,,,,,,,,,,,AMP_prac,right,0.8004704419836344,1,,,right,0.9150648236864072,,,,,,,,,,,,,,,,,,,,,,,,,1020,2019_May_23_1656,mf_amp_cond1,3.0.7,59.994477594622516,
help,&&&&,images/symbols/symbol_25.png,condition_files/AMP_rep4.csv,left,care.virtue,,,,,,,,,,,,,,0,1,1,3,0,69,69,69,,,,,,,,,,,,,,,,,,,,,564.4101886546778,,,,,,,,,,,,,,AMP_prac,right,0.8004704419836344,1,,,right,0.5157577858808509,,,,,,,,,,,,,,,,,,,,,,,,,1020,2019_May_23_1656,mf_amp_cond1,3.0.7,59.994477594622516,
men,&&&,images/symbols/symbol_72.png,condition_files/AMP_rep4.csv,right,loyalty.vice,,,,,,,,,,,,,,0,1,1,3,0,70,70,70,,,,,,,,,,,,,,,,,,,,,565.0270372642772,,,,,,,,,,,,,,AMP_prac,right,0.8004704419836344,1,,,left,0.3836812309746165,,,,,,,,,,,,,,,,,,,,,,,,,1020,2019_May_23_1656,mf_amp_cond1,3.0.7,59.994477594622516,
arrests,&&&&&&&,images/symbols/symbol_9.png,condition_files/AMP_rep4.csv,right,authority.vice,,,,,,,,,,,,,,0,1,1,3,0,71,71,71,,,,,,,,,,,,,,,,,,,,,565.8605778405399,,,,,,,,,,,,,,AMP_prac,right,0.8004704419836344,1,,,right,0.6151760196444229,,,,,,,,,,,,,,,,,,,,,,,,,1020,2019_May_23_1656,mf_amp_cond1,3.0.7,59.994477594622516,
prison,&&&&&&,images/symbols/symbol_75.png,condition_files/AMP_rep4.csv,right,fairness.vice,,,,,,,,,,,,,,0,1,1,3,0,72,72,72,,,,,,,,,,,,,,,,,,,,,566.8608469302781,,,,,,,,,,,,,,AMP_prac,right,0.8004704419836344,1,,,left,0.7824924252381606,,,,,,,,,,,,,,,,,,,,,,,,,1020,2019_May_23_1656,mf_amp_cond1,3.0.7,59.994477594622516,
death,&&&&&,images/symbols/symbol_58.png,condition_files/AMP_rep4.csv,right,care.vice,,,,,,,,,,,,,,0,1,1,3,0,73,73,73,,,,,,,,,,,,,,,,,,,,,567.6777542970158,,,,,,,,,,,,,,AMP_prac,right,0.8004704419836344,1,,,left,0.5992750292753044,,,,,,,,,,,,,,,,,,,,,,,,,1020,2019_May_23_1656,mf_amp_cond1,3.0.7,59.994477594622516,
clean,&&&&&,images/symbols/symbol_5.png,condition_files/AMP_rep4.csv,left,sanctity.virtue,,,,,,,,,,,,,,0,1,1,3,0,74,74,74,,,,,,,,,,,,,,,,,,,,,568.5279668907388,,,,,,,,,,,,,,AMP_prac,right,0.8004704419836344,1,,,left,0.6325757660815725,,,,,,,,,,,,,,,,,,,,,,,,,1020,2019_May_23_1656,mf_amp_cond1,3.0.7,59.994477594622516,
stintz,&&&&&&,images/symbols/symbol_66.png,condition_files/AMP_rep4.csv,None,nonword,,,,,,,,,,,,,,0,1,1,3,0,75,75,75,,,,,,,,,,,,,,,,,,,,,569.1781393294696,,,,,,,,,,,,,,AMP_prac,right,0.8004704419836344,1,,,left,0.432593021178036,,,,,,,,,,,,,,,,,,,,,,,,,1020,2019_May_23_1656,mf_amp_cond1,3.0.7,59.994477594622516,
fraud,&&&&&,images/symbols/symbol_59.png,condition_files/AMP_rep4.csv,right,fairness.vice,,,,,,,,,,,,,,0,1,1,3,0,76,76,76,,,,,,,,,,,,,,,,,,,,,570.0283612242674,,,,,,,,,,,,,,AMP_prac,right,0.8004704419836344,1,,,left,0.6324866040449706,,,,,,,,,,,,,,,,,,,,,,,,,1020,2019_May_23_1656,mf_amp_cond1,3.0.7,59.994477594622516,
freedom,&&&&&&&,images/symbols/symbol_62.png,condition_files/AMP_rep4.csv,left,sanctity.virtue,,,,,,,,,,,,,,0,1,1,3,0,77,77,77,,,,,,,,,,,,,,,,,,,,,570.7619280680483,,,,,,,,,,,,,,AMP_prac,right,0.8004704419836344,1,,,left,0.5004395559990371,,,,,,,,,,,,,,,,,,,,,,,,,1020,2019_May_23_1656,mf_amp_cond1,3.0.7,59.994477594622516,
trust,&&&&&,images/symbols/symbol_67.png,condition_files/AMP_rep4.csv,left,authority.virtue,,,,,,,,,,,,,,0,1,1,3,0,78,78,78,,,,,,,,,,,,,,,,,,,,,571.4120616988439,,,,,,,,,,,,,,AMP_prac,right,0.8004704419836344,1,,,left,0.43163725548947696,,,,,,,,,,,,,,,,,,,,,,,,,1020,2019_May_23_1656,mf_amp_cond1,3.0.7,59.994477594622516,
strength,&&&&&&&&,images/symbols/symbol_78.png,condition_files/AMP_rep4.csv,left,sanctity.virtue,,,,,,,,,,,,,,0,1,1,3,0,79,79,79,,,,,,,,,,,,,,,,,,,,,572.0455685346533,,,,,,,,,,,,,,AMP_prac,right,0.8004704419836344,1,,,left,0.41559033445082605,,,,,,,,,,,,,,,,,,,,,,,,,1020,2019_May_23_1656,mf_amp_cond1,3.0.7,59.994477594622516,
penalty,&&&&&&&,images/symbols/symbol_44.png,condition_files/AMP_rep4.csv,right,authority.vice,,,,,,,,,,,,,,0,1,1,3,0,80,80,80,,,,,,,,,,,,,,,,,,,,,572.7957913595565,,,,,,,,,,,,,,AMP_prac,right,0.8004704419836344,1,,,right,0.5324230680816981,,,,,,,,,,,,,,,,,,,,,,,,,1020,2019_May_23_1656,mf_amp_cond1,3.0.7,59.994477594622516,
civilians,&&&&&&&&&,images/symbols/symbol_79.png,condition_files/AMP_rep4.csv,right,care.vice,,,,,,,,,,,,,,0,1,1,3,0,81,81,81,,,,,,,,,,,,,,,,,,,,,573.5293485815382,,,,,,,,,,,,,,AMP_prac,right,0.8004704419836344,1,,,left,0.5156962063447281,,,,,,,,,,,,,,,,,,,,,,,,,1020,2019_May_23_1656,mf_amp_cond1,3.0.7,59.994477594622516,
,,,condition_files/AMP_rep4.csv,,,,,,,,,,,,,,,,0,1,1,3,,,,,,,,,,,,,,,,,,,,,,,,,,,,,,,,,,,,,,,,,,,,,,,right,1.3672802276159928,,,,,,,,,,,,,,,,,,,,,,,1020,2019_May_23_1656,mf_amp_cond1,3.0.7,59.994477594622516,
gryssed,&&&&&&&,images/symbols/symbol_11.png,condition_files/AMP_rep2.csv,None,nonword,,,,,,,,,,,,,,0,2,2,1,0,0,0,0,,,,,,,,,,,,,,,,,,,,,575.7633706969318,,,,,,,,,,,,,,AMP_prac,right,0.8004704419836344,1,,,right,0.6154200926976046,,,,,,,,,,,,,,,,,,,,,,,,,1020,2019_May_23_1656,mf_amp_cond1,3.0.7,59.994477594622516,
dighnd,&&&&&&,images/symbols/symbol_7.png,condition_files/AMP_rep2.csv,None,nonword,,,,,,,,,,,,,,0,2,2,1,0,1,1,1,,,,,,,,,,,,,,,,,,,,,576.2967164958427,,,,,,,,,,,,,,AMP_prac,right,0.8004704419836344,1,,,left,0.31594374324777164,,,,,,,,,,,,,,,,,,,,,,,,,1020,2019_May_23_1656,mf_amp_cond1,3.0.7,59.994477594622516,
died,&&&&,images/symbols/symbol_54.png,condition_files/AMP_rep2.csv,right,care.vice,,,,,,,,,,,,,,0,2,2,1,0,2,2,2,,,,,,,,,,,,,,,,,,,,,577.1969695171683,,,,,,,,,,,,,,AMP_prac,right,0.8004704419836344,1,,,left,0.6670946230478876,,,,,,,,,,,,,,,,,,,,,,,,,1020,2019_May_23_1656,mf_amp_cond1,3.0.7,59.994477594622516,
attacks,&&&&&&&,images/symbols/symbol_76.png,condition_files/AMP_rep2.csv,right,care.vice,,,,,,,,,,,,,,0,2,2,1,0,3,3,3,,,,,,,,,,,,,,,,,,,,,577.8471297682845,,,,,,,,,,,,,,AMP_prac,right,0.8004704419836344,1,,,right,0.4322418253941578,,,,,,,,,,,,,,,,,,,,,,,,,1020,2019_May_23_1656,mf_amp_cond1,3.0.7,59.994477594622516,
drug,&&&&,images/symbols/symbol_24.png,condition_files/AMP_rep2.csv,right,sanctity.vice,,,,,,,,,,,,,,0,2,2,1,0,4,4,4,,,,,,,,,,,,,,,,,,,,,578.4806327553742,,,,,,,,,,,,,,AMP_prac,right,0.8004704419836344,1,,,right,0.4003397779088118,,,,,,,,,,,,,,,,,,,,,,,,,1020,2019_May_23_1656,mf_amp_cond1,3.0.7,59.994477594622516,
riot,&&&&,images/symbols/symbol_14.png,condition_files/AMP_rep2.csv,right,authority.vice,,,,,,,,,,,,,,0,2,2,1,0,5,5,5,,,,,,,,,,,,,,,,,,,,,579.3808819279802,,,,,,,,,,,,,,AMP_prac,right,0.8004704419836344,1,,,left,0.6818666552899231,,,,,,,,,,,,,,,,,,,,,,,,,1020,2019_May_23_1656,mf_amp_cond1,3.0.7,59.994477594622516,
troops,&&&&&&,images/symbols/symbol_8.png,condition_files/AMP_rep2.csv,right,loyalty.vice,,,,,,,,,,,,,,0,2,2,1,0,6,6,6,,,,,,,,,,,,,,,,,,,,,580.0643961565402,,,,,,,,,,,,,,AMP_prac,right,0.8004704419836344,1,,,left,0.46592358556881663,,,,,,,,,,,,,,,,,,,,,,,,,1020,2019_May_23_1656,mf_amp_cond1,3.0.7,59.994477594622516,
pseighs,&&&&&&&,images/symbols/symbol_56.png,condition_files/AMP_rep2.csv,None,nonword,,,,,,,,,,,,,,0,2,2,1,0,7,7,7,,,,,,,,,,,,,,,,,,,,,580.8145958891182,,,,,,,,,,,,,,AMP_prac,right,0.8004704419836344,1,,,right,0.5170512768272602,,,,,,,,,,,,,,,,,,,,,,,,,1020,2019_May_23_1656,mf_amp_cond1,3.0.7,59.994477594622516,
friends,&&&&&&&,images/symbols/symbol_32.png,condition_files/AMP_rep2.csv,left,loyalty.virtue,,,,,,,,,,,,,,0,2,2,1,0,8,8,8,,,,,,,,,,,,,,,,,,,,,581.5147837387703,,,,,,,,,,,,,,AMP_prac,right,0.8004704419836344,1,,,left,0.48173092373326654,,,,,,,,,,,,,,,,,,,,,,,,,1020,2019_May_23_1656,mf_amp_cond1,3.0.7,59.994477594622516,
killed,&&&&&&,images/symbols/symbol_29.png,condition_files/AMP_rep2.csv,right,care.vice,,,,,,,,,,,,,,0,2,2,1,0,9,9,9,,,,,,,,,,,,,,,,,,,,,582.3816811790166,,,,,,,,,,,,,,AMP_prac,right,0.8004704419836344,1,,,right,0.6490021068530041,,,,,,,,,,,,,,,,,,,,,,,,,1020,2019_May_23_1656,mf_amp_cond1,3.0.7,59.994477594622516,
improve,&&&&&&&,images/symbols/symbol_10.png,condition_files/AMP_rep2.csv,left,care.virtue,,,,,,,,,,,,,,0,2,2,1,0,10,10,10,,,,,,,,,,,,,,,,,,,,,583.0151909013694,,,,,,,,,,,,,,AMP_prac,right,0.8004704419836344,1,,,left,0.41590849537897157,,,,,,,,,,,,,,,,,,,,,,,,,1020,2019_May_23_1656,mf_amp_cond1,3.0.7,59.994477594622516,
conspiracy,&&&&&&&&&&,images/symbols/symbol_71.png,condition_files/AMP_rep2.csv,right,sanctity.vice,,,,,,,,,,,,,,0,2,2,1,0,11,11,11,,,,,,,,,,,,,,,,,,,,,583.6820356782846,,,,,,,,,,,,,,AMP_prac,right,0.8004704419836344,1,,,left,0.43367387029502424,,,,,,,,,,,,,,,,,,,,,,,,,1020,2019_May_23_1656,mf_amp_cond1,3.0.7,59.994477594622516,
illegal,&&&&&&&,images/symbols/symbol_81.png,condition_files/AMP_rep2.csv,right,fairness.vice,,,,,,,,,,,,,,0,2,2,1,0,12,12,12,,,,,,,,,,,,,,,,,,,,,584.4156092573285,,,,,,,,,,,,,,AMP_prac,right,0.8004704419836344,1,,,left,0.5004578374209814,,,,,,,,,,,,,,,,,,,,,,,,,1020,2019_May_23_1656,mf_amp_cond1,3.0.7,59.994477594622516,
protect,&&&&&&&,images/symbols/symbol_15.png,condition_files/AMP_rep2.csv,left,fairness.virtue,,,,,,,,,,,,,,0,2,2,1,0,13,13,13,,,,,,,,,,,,,,,,,,,,,585.0990901303085,,,,,,,,,,,,,,AMP_prac,right,0.8004704419836344,1,,,left,0.46520034677087096,,,,,,,,,,,,,,,,,,,,,,,,,1020,2019_May_23_1656,mf_amp_cond1,3.0.7,59.994477594622516,
accused,&&&&&&&,images/symbols/symbol_17.png,condition_files/AMP_rep2.csv,right,fairness.vice,,,,,,,,,,,,,,0,2,2,1,0,14,14,14,,,,,,,,,,,,,,,,,,,,,585.8659484098207,,,,,,,,,,,,,,AMP_prac,right,0.8004704419836344,1,,,right,0.5490190732962219,,,,,,,,,,,,,,,,,,,,,,,,,1020,2019_May_23_1656,mf_amp_cond1,3.0.7,59.994477594622516,
actively,&&&&&&&&,images/symbols/symbol_50.png,condition_files/AMP_rep2.csv,left,authority.virtue,,,,,,,,,,,,,,0,2,2,1,0,15,15,15,,,,,,,,,,,,,,,,,,,,,586.6329308105815,,,,,,,,,,,,,,AMP_prac,right,0.8004704419836344,1,,,right,0.5491082353328238,,,,,,,,,,,,,,,,,,,,,,,,,1020,2019_May_23_1656,mf_amp_cond1,3.0.7,59.994477594622516,
ensure,&&&&&&,images/symbols/symbol_39.png,condition_files/AMP_rep2.csv,left,fairness.virtue,,,,,,,,,,,,,,0,2,2,1,0,16,16,16,,,,,,,,,,,,,,,,,,,,,587.5164021259043,,,,,,,,,,,,,,AMP_prac,right,0.8004704419836344,1,,,right,0.6657668143379851,,,,,,,,,,,,,,,,,,,,,,,,,1020,2019_May_23_1656,mf_amp_cond1,3.0.7,59.994477594622516,
strong,&&&&&&,images/symbols/symbol_55.png,condition_files/AMP_rep2.csv,left,loyalty.virtue,,,,,,,,,,,,,,0,2,2,1,0,17,17,17,,,,,,,,,,,,,,,,,,,,,588.3335044945052,,,,,,,,,,,,,,AMP_prac,right,0.8004704419836344,1,,,right,0.5992843303502013,,,,,,,,,,,,,,,,,,,,,,,,,1020,2019_May_23_1656,mf_amp_cond1,3.0.7,59.994477594622516,
voter,&&&&&,images/symbols/symbol_53.png,condition_files/AMP_rep2.csv,right,fairness.vice,,,,,,,,,,,,,,0,2,2,1,0,18,18,18,,,,,,,,,,,,,,,,,,,,,589.1001543016355,,,,,,,,,,,,,,AMP_prac,right,0.8004704419836344,1,,,right,0.5492730888763617,,,,,,,,,,,,,,,,,,,,,,,,,1020,2019_May_23_1656,mf_amp_cond1,3.0.7,59.994477594622516,
promote,&&&&&&&,images/symbols/symbol_20.png,condition_files/AMP_rep2.csv,left,sanctity.virtue,,,,,,,,,,,,,,0,2,2,1,0,19,19,19,,,,,,,,,,,,,,,,,,,,,589.8170532974073,,,,,,,,,,,,,,AMP_prac,right,0.8004704419836344,1,,,right,0.4993465192637814,,,,,,,,,,,,,,,,,,,,,,,,,1020,2019_May_23_1656,mf_amp_cond1,3.0.7,59.994477594622516,
loyalty,&&&&&&&,images/symbols/symbol_37.png,condition_files/AMP_rep2.csv,left,loyalty.virtue,,,,,,,,,,,,,,0,2,2,1,0,20,20,20,,,,,,,,,,,,,,,,,,,,,590.6839164198936,,,,,,,,,,,,,,AMP_prac,right,0.8004704419836344,1,,,right,0.6337380797885999,,,,,,,,,,,,,,,,,,,,,,,,,1020,2019_May_23_1656,mf_amp_cond1,3.0.7,59.994477594622516,
threatened,&&&&&&&&&&,images/symbols/symbol_80.png,condition_files/AMP_rep2.csv,right,fairness.vice,,,,,,,,,,,,,,0,2,2,1,0,21,21,21,,,,,,,,,,,,,,,,,,,,,591.4008038695065,,,,,,,,,,,,,,AMP_prac,right,0.8004704419836344,1,,,left,0.49901424636118463,,,,,,,,,,,,,,,,,,,,,,,,,1020,2019_May_23_1656,mf_amp_cond1,3.0.7,59.994477594622516,
promises,&&&&&&&&,images/symbols/symbol_49.png,condition_files/AMP_rep2.csv,left,fairness.virtue,,,,,,,,,,,,,,0,2,2,1,0,22,22,22,,,,,,,,,,,,,,,,,,,,,592.1676502821283,,,,,,,,,,,,,,AMP_prac,right,0.8004704419836344,1,,,left,0.5496457733534044,,,,,,,,,,,,,,,,,,,,,,,,,1020,2019_May_23_1656,mf_amp_cond1,3.0.7,59.994477594622516,
hope,&&&&,images/symbols/symbol_40.png,condition_files/AMP_rep2.csv,left,loyalty.virtue,,,,,,,,,,,,,,0,2,2,1,0,23,23,23,,,,,,,,,,,,,,,,,,,,,592.8512427680143,,,,,,,,,,,,,,AMP_prac,right,0.8004704419836344,1,,,left,0.4649963645642856,,,,,,,,,,,,,,,,,,,,,,,,,1020,2019_May_23_1656,mf_amp_cond1,3.0.7,59.994477594622516,
suicide,&&&&&&&,images/symbols/symbol_36.png,condition_files/AMP_rep2.csv,right,care.vice,,,,,,,,,,,,,,0,2,2,1,0,24,24,24,,,,,,,,,,,,,,,,,,,,,593.5846944708974,,,,,,,,,,,,,,AMP_prac,right,0.8004704419836344,1,,,right,0.5154870925107389,,,,,,,,,,,,,,,,,,,,,,,,,1020,2019_May_23_1656,mf_amp_cond1,3.0.7,59.994477594622516,
crarft,&&&&&&,images/symbols/symbol_18.png,condition_files/AMP_rep2.csv,None,nonword,,,,,,,,,,,,,,0,2,2,1,0,25,25,25,,,,,,,,,,,,,,,,,,,,,594.3515675038398,,,,,,,,,,,,,,AMP_prac,right,0.8004704419836344,1,,,right,0.5492823899548966,,,,,,,,,,,,,,,,,,,,,,,,,1020,2019_May_23_1656,mf_amp_cond1,3.0.7,59.994477594622516,
protesters,&&&&&&&&&&,images/symbols/symbol_27.png,condition_files/AMP_rep2.csv,right,authority.vice,,,,,,,,,,,,,,0,2,2,1,0,26,26,26,,,,,,,,,,,,,,,,,,,,,595.151785213151,,,,,,,,,,,,,,AMP_prac,right,0.8004704419836344,1,,,left,0.5823108297554427,,,,,,,,,,,,,,,,,,,,,,,,,1020,2019_May_23_1656,mf_amp_cond1,3.0.7,59.994477594622516,
rejected,&&&&&&&&,images/symbols/symbol_19.png,condition_files/AMP_rep2.csv,right,authority.vice,,,,,,,,,,,,,,0,2,2,1,0,27,27,27,,,,,,,,,,,,,,,,,,,,,595.8687178852306,,,,,,,,,,,,,,AMP_prac,right,0.8004704419836344,1,,,right,0.49931893676694017,,,,,,,,,,,,,,,,,,,,,,,,,1020,2019_May_23_1656,mf_amp_cond1,3.0.7,59.994477594622516,
freazz,&&&&&&,images/symbols/symbol_70.png,condition_files/AMP_rep2.csv,None,nonword,,,,,,,,,,,,,,0,2,2,1,0,28,28,28,,,,,,,,,,,,,,,,,,,,,596.6688900513473,,,,,,,,,,,,,,AMP_prac,right,0.8004704419836344,1,,,left,0.5670849691741751,,,,,,,,,,,,,,,,,,,,,,,,,1020,2019_May_23_1656,mf_amp_cond1,3.0.7,59.994477594622516,
ability,&&&&&&&,images/symbols/symbol_52.png,condition_files/AMP_rep2.csv,left,authority.virtue,,,,,,,,,,,,,,0,2,2,1,0,29,29,29,,,,,,,,,,,,,,,,,,,,,597.3357213577401,,,,,,,,,,,,,,AMP_prac,right,0.8004704419836344,1,,,right,0.44887343128721113,,,,,,,,,,,,,,,,,,,,,,,,,1020,2019_May_23_1656,mf_amp_cond1,3.0.7,59.994477594622516,
love,&&&&,images/symbols/symbol_26.png,condition_files/AMP_rep2.csv,left,loyalty.virtue,,,,,,,,,,,,,,0,2,2,1,0,30,30,30,,,,,,,,,,,,,,,,,,,,,598.0859072990679,,,,,,,,,,,,,,AMP_prac,right,0.8004704419836344,1,,,left,0.5324615552854084,,,,,,,,,,,,,,,,,,,,,,,,,1020,2019_May_23_1656,mf_amp_cond1,3.0.7,59.994477594622516,
peaceful,&&&&&&&&,images/symbols/symbol_73.png,condition_files/AMP_rep2.csv,left,authority.virtue,,,,,,,,,,,,,,0,2,2,1,0,31,31,31,,,,,,,,,,,,,,,,,,,,,599.3195692383306,,,,,,,,,,,,,,AMP_prac,right,0.8004704419836344,1,,,right,1.0158323548494081,,,,,,,,,,,,,,,,,,,,,,,,,1020,2019_May_23_1656,mf_amp_cond1,3.0.7,59.994477594622516,
safety,&&&&&&,images/symbols/symbol_2.png,condition_files/AMP_rep2.csv,left,care.virtue,,,,,,,,,,,,,,0,2,2,1,0,32,32,32,,,,,,,,,,,,,,,,,,,,,599.9197291526834,,,,,,,,,,,,,,AMP_prac,right,0.8004704419836344,1,,,left,0.3824538097360346,,,,,,,,,,,,,,,,,,,,,,,,,1020,2019_May_23_1656,mf_amp_cond1,3.0.7,59.994477594622516,
army,&&&&,images/symbols/symbol_33.png,condition_files/AMP_rep2.csv,right,loyalty.vice,,,,,,,,,,,,,,0,2,2,1,0,33,33,33,,,,,,,,,,,,,,,,,,,,,600.4532564829315,,,,,,,,,,,,,,AMP_prac,right,0.8004704419836344,1,,,left,0.315988003534585,,,,,,,,,,,,,,,,,,,,,,,,,1020,2019_May_23_1656,mf_amp_cond1,3.0.7,59.994477594622516,
free,&&&&,images/symbols/symbol_63.png,condition_files/AMP_rep2.csv,left,fairness.virtue,,,,,,,,,,,,,,0,2,2,1,0,34,34,34,,,,,,,,,,,,,,,,,,,,,601.220090066483,,,,,,,,,,,,,,AMP_prac,right,0.8004704419836344,1,,,left,0.5493330647768744,,,,,,,,,,,,,,,,,,,,,,,,,1020,2019_May_23_1656,mf_amp_cond1,3.0.7,59.994477594622516,
shot,&&&&,images/symbols/symbol_51.png,condition_files/AMP_rep2.csv,right,care.vice,,,,,,,,,,,,,,0,2,2,1,0,35,35,35,,,,,,,,,,,,,,,,,,,,,601.8202429248486,,,,,,,,,,,,,,AMP_prac,right,0.8004704419836344,1,,,left,0.3829506154579576,,,,,,,,,,,,,,,,,,,,,,,,,1020,2019_May_23_1656,mf_amp_cond1,3.0.7,59.994477594622516,
gun,&&&,images/symbols/symbol_28.png,condition_files/AMP_rep2.csv,right,authority.vice,,,,,,,,,,,,,,0,2,2,1,0,36,36,36,,,,,,,,,,,,,,,,,,,,,602.4371143060489,,,,,,,,,,,,,,AMP_prac,right,0.8004704419836344,1,,,left,0.39924642044934444,,,,,,,,,,,,,,,,,,,,,,,,,1020,2019_May_23_1656,mf_amp_cond1,3.0.7,59.994477594622516,
health,&&&&&&,images/symbols/symbol_31.png,condition_files/AMP_rep2.csv,left,care.virtue,,,,,,,,,,,,,,0,2,2,1,0,37,37,37,,,,,,,,,,,,,,,,,,,,,603.0539132030062,,,,,,,,,,,,,,AMP_prac,right,0.8004704419836344,1,,,left,0.3836815517024661,,,,,,,,,,,,,,,,,,,,,,,,,1020,2019_May_23_1656,mf_amp_cond1,3.0.7,59.994477594622516,
celebrated,&&&&&&&&&&,images/symbols/symbol_45.png,condition_files/AMP_rep2.csv,left,authority.virtue,,,,,,,,,,,,,,0,2,2,1,0,38,38,38,,,,,,,,,,,,,,,,,,,,,603.7040805101096,,,,,,,,,,,,,,AMP_prac,right,0.8004704419836344,1,,,left,0.43168247795983916,,,,,,,,,,,,,,,,,,,,,,,,,1020,2019_May_23_1656,mf_amp_cond1,3.0.7,59.994477594622516,
opportunity,&&&&&&&&&&&,images/symbols/symbol_34.png,condition_files/AMP_rep2.csv,left,fairness.virtue,,,,,,,,,,,,,,0,2,2,1,0,39,39,39,,,,,,,,,,,,,,,,,,,,,604.4042696426695,,,,,,,,,,,,,,AMP_prac,right,0.8004704419836344,1,,,left,0.48237526375669404,,,,,,,,,,,,,,,,,,,,,,,,,1020,2019_May_23_1656,mf_amp_cond1,3.0.7,59.994477594622516,
integrity,&&&&&&&&&,images/symbols/symbol_47.png,condition_files/AMP_rep2.csv,left,fairness.virtue,,,,,,,,,,,,,,0,2,2,1,0,40,40,40,,,,,,,,,,,,,,,,,,,,,605.2044899177963,,,,,,,,,,,,,,AMP_prac,right,0.8004704419836344,1,,,left,0.5824359131875099,,,,,,,,,,,,,,,,,,,,,,,,,1020,2019_May_23_1656,mf_amp_cond1,3.0.7,59.994477594622516,
violations,&&&&&&&&&&,images/symbols/symbol_16.png,condition_files/AMP_rep2.csv,right,sanctity.vice,,,,,,,,,,,,,,0,2,2,1,0,41,41,41,,,,,,,,,,,,,,,,,,,,,605.8546668467025,,,,,,,,,,,,,,AMP_prac,right,0.8004704419836344,1,,,right,0.43271778388225357,,,,,,,,,,,,,,,,,,,,,,,,,1020,2019_May_23_1656,mf_amp_cond1,3.0.7,59.994477594622516,
terrorist,&&&&&&&&&,images/symbols/symbol_30.png,condition_files/AMP_rep2.csv,right,loyalty.vice,,,,,,,,,,,,,,0,2,2,1,0,42,42,42,,,,,,,,,,,,,,,,,,,,,606.5215289428634,,,,,,,,,,,,,,AMP_prac,right,0.8004704419836344,1,,,right,0.44905624552848167,,,,,,,,,,,,,,,,,,,,,,,,,1020,2019_May_23_1656,mf_amp_cond1,3.0.7,59.994477594622516,
graidd,&&&&&&,images/symbols/symbol_57.png,condition_files/AMP_rep2.csv,None,nonword,,,,,,,,,,,,,,0,2,2,1,0,43,43,43,,,,,,,,,,,,,,,,,,,,,607.2216965867301,,,,,,,,,,,,,,AMP_prac,right,0.8004704419836344,1,,,left,0.4670365073616267,,,,,,,,,,,,,,,,,,,,,,,,,1020,2019_May_23_1656,mf_amp_cond1,3.0.7,59.994477594622516,
embrace,&&&&&&&,images/symbols/symbol_82.png,condition_files/AMP_rep2.csv,left,authority.virtue,,,,,,,,,,,,,,0,2,2,1,0,44,44,44,,,,,,,,,,,,,,,,,,,,,608.0552548029627,,,,,,,,,,,,,,AMP_prac,right,0.8004704419836344,1,,,left,0.615541648130602,,,,,,,,,,,,,,,,,,,,,,,,,1020,2019_May_23_1656,mf_amp_cond1,3.0.7,59.994477594622516,
good,&&&&,images/symbols/symbol_4.png,condition_files/AMP_rep2.csv,left,care.virtue,,,,,,,,,,,,,,0,2,2,1,0,45,45,45,,,,,,,,,,,,,,,,,,,,,608.8554766817251,,,,,,,,,,,,,,AMP_prac,right,0.8004704419836344,1,,,left,0.5824407240834262,,,,,,,,,,,,,,,,,,,,,,,,,1020,2019_May_23_1656,mf_amp_cond1,3.0.7,59.994477594622516,
black,&&&&&,images/symbols/symbol_46.png,condition_files/AMP_rep2.csv,right,loyalty.vice,,,,,,,,,,,,,,0,2,2,1,0,46,46,46,,,,,,,,,,,,,,,,,,,,,609.7223686696161,,,,,,,,,,,,,,AMP_prac,right,0.8004704419836344,1,,,right,0.6491583007737063,,,,,,,,,,,,,,,,,,,,,,,,,1020,2019_May_23_1656,mf_amp_cond1,3.0.7,59.994477594622516,
energy,&&&&&&,images/symbols/symbol_48.png,condition_files/AMP_rep2.csv,left,sanctity.virtue,,,,,,,,,,,,,,0,2,2,1,0,47,47,47,,,,,,,,,,,,,,,,,,,,,611.1060665783807,,,,,,,,,,,,,,AMP_prac,right,0.8004704419836344,1,,,left,1.1659161126372055,,,,,,,,,,,,,,,,,,,,,,,,,1020,2019_May_23_1656,mf_amp_cond1,3.0.7,59.994477594622516,
commitment,&&&&&&&&&&,images/symbols/symbol_41.png,condition_files/AMP_rep2.csv,left,sanctity.virtue,,,,,,,,,,,,,,0,2,2,1,0,48,48,48,,,,,,,,,,,,,,,,,,,,,612.2730555219678,,,,,,,,,,,,,,AMP_prac,right,0.8004704419836344,1,,,left,0.9495246669321205,,,,,,,,,,,,,,,,,,,,,,,,,1020,2019_May_23_1656,mf_amp_cond1,3.0.7,59.994477594622516,
fear,&&&&,images/symbols/symbol_77.png,condition_files/AMP_rep2.csv,right,sanctity.vice,,,,,,,,,,,,,,0,2,2,1,0,49,49,49,,,,,,,,,,,,,,,,,,,,,613.1732912240514,,,,,,,,,,,,,,AMP_prac,right,0.8004704419836344,1,,,left,0.6824128529333393,,,,,,,,,,,,,,,,,,,,,,,,,1020,2019_May_23_1656,mf_amp_cond1,3.0.7,59.994477594622516,
blamed,&&&&&&,images/symbols/symbol_12.png,condition_files/AMP_rep2.csv,right,loyalty.vice,,,,,,,,,,,,,,0,2,2,1,0,50,50,50,,,,,,,,,,,,,,,,,,,,,613.9068478045774,,,,,,,,,,,,,,AMP_prac,right,0.8004704419836344,1,,,right,0.5004341036437836,,,,,,,,,,,,,,,,,,,,,,,,,1020,2019_May_23_1656,mf_amp_cond1,3.0.7,59.994477594622516,
praised,&&&&&&&,images/symbols/symbol_3.png,condition_files/AMP_rep2.csv,left,loyalty.virtue,,,,,,,,,,,,,,0,2,2,1,0,51,51,51,,,,,,,,,,,,,,,,,,,,,614.9571005532853,,,,,,,,,,,,,,AMP_prac,right,0.8004704419836344,1,,,right,0.8319369425589684,,,,,,,,,,,,,,,,,,,,,,,,,1020,2019_May_23_1656,mf_amp_cond1,3.0.7,59.994477594622516,
dignity,&&&&&&&,images/symbols/symbol_60.png,condition_files/AMP_rep2.csv,left,sanctity.virtue,,,,,,,,,,,,,,0,2,2,1,0,52,52,52,,,,,,,,,,,,,,,,,,,,,616.0073917892041,,,,,,,,,,,,,,AMP_prac,right,0.8004704419836344,1,,,left,0.8171328376374731,,,,,,,,,,,,,,,,,,,,,,,,,1020,2019_May_23_1656,mf_amp_cond1,3.0.7,59.994477594622516,
harassment,&&&&&&&&&&,images/symbols/symbol_68.png,condition_files/AMP_rep2.csv,right,sanctity.vice,,,,,,,,,,,,,,0,2,2,1,0,53,53,53,,,,,,,,,,,,,,,,,,,,,617.3076093381533,,,,,,,,,,,,,,AMP_prac,right,0.8004704419836344,1,,,left,1.0670578677636513,,,,,,,,,,,,,,,,,,,,,,,,,1020,2019_May_23_1656,mf_amp_cond1,3.0.7,59.994477594622516,
interests,&&&&&&&&&,images/symbols/symbol_6.png,condition_files/AMP_rep2.csv,left,fairness.virtue,,,,,,,,,,,,,,0,2,2,1,0,54,54,54,,,,,,,,,,,,,,,,,,,,,618.0246330966256,,,,,,,,,,,,,,AMP_prac,right,0.8004704419836344,1,,,right,0.4986296950010001,,,,,,,,,,,,,,,,,,,,,,,,,1020,2019_May_23_1656,mf_amp_cond1,3.0.7,59.994477594622516,
sexual,&&&&&&,images/symbols/symbol_69.png,condition_files/AMP_rep2.csv,right,sanctity.vice,,,,,,,,,,,,,,0,2,2,1,0,55,55,55,,,,,,,,,,,,,,,,,,,,,618.7248084379353,,,,,,,,,,,,,,AMP_prac,right,0.8004704419836344,1,,,left,0.4824166375074128,,,,,,,,,,,,,,,,,,,,,,,,,1020,2019_May_23_1656,mf_amp_cond1,3.0.7,59.994477594622516,
pleasant,&&&&&&&,images/symbols/symbol_61.png,condition_files/AMP_rep2.csv,right,control,,,,,,,,,,,,,,0,2,2,1,0,56,56,56,,,,,,,,,,,,,,,,,,,,,619.6250681945239,,,,,,,,,,,,,,AMP_prac,right,0.8004704419836344,1,,,left,0.6826043267974455,,,,,,,,,,,,,,,,,,,,,,,,,1020,2019_May_23_1656,mf_amp_cond1,3.0.7,59.994477594622516,
wraize,&&&&&&,images/symbols/symbol_13.png,condition_files/AMP_rep2.csv,None,nonword,,,,,,,,,,,,,,0,2,2,1,0,57,57,57,,,,,,,,,,,,,,,,,,,,,620.3252159533331,,,,,,,,,,,,,,AMP_prac,right,0.8004704419836344,1,,,right,0.46703009282646235,,,,,,,,,,,,,,,,,,,,,,,,,1020,2019_May_23_1656,mf_amp_cond1,3.0.7,59.994477594622516,
praise,&&&&&&,images/symbols/symbol_21.png,condition_files/AMP_rep2.csv,left,authority.virtue,,,,,,,,,,,,,,0,2,2,1,0,58,58,58,,,,,,,,,,,,,,,,,,,,,620.942059752033,,,,,,,,,,,,,,AMP_prac,right,0.8004704419836344,1,,,left,0.3987650096132711,,,,,,,,,,,,,,,,,,,,,,,,,1020,2019_May_23_1656,mf_amp_cond1,3.0.7,59.994477594622516,
feulde,&&&&&&,images/symbols/symbol_22.png,condition_files/AMP_rep2.csv,None,nonword,,,,,,,,,,,,,,0,2,2,1,0,59,59,59,,,,,,,,,,,,,,,,,,,,,621.6589340518476,,,,,,,,,,,,,,AMP_prac,right,0.8004704419836344,1,,,right,0.4992390758052352,,,,,,,,,,,,,,,,,,,,,,,,,1020,2019_May_23_1656,mf_amp_cond1,3.0.7,59.994477594622516,
safe,&&&&,images/symbols/symbol_64.png,condition_files/AMP_rep2.csv,left,care.virtue,,,,,,,,,,,,,,0,2,2,1,0,60,60,60,,,,,,,,,,,,,,,,,,,,,622.7258735714422,,,,,,,,,,,,,,AMP_prac,right,0.8004704419836344,1,,,left,0.8490615054433874,,,,,,,,,,,,,,,,,,,,,,,,,1020,2019_May_23_1656,mf_amp_cond1,3.0.7,59.994477594622516,
betrayal,&&&&&&&&,images/symbols/symbol_65.png,condition_files/AMP_rep2.csv,right,loyalty.vice,,,,,,,,,,,,,,0,2,2,1,0,61,61,61,,,,,,,,,,,,,,,,,,,,,623.6427697448198,,,,,,,,,,,,,,AMP_prac,right,0.8004704419836344,1,,,left,0.699119829601841,,,,,,,,,,,,,,,,,,,,,,,,,1020,2019_May_23_1656,mf_amp_cond1,3.0.7,59.994477594622516,
abuse,&&&&&,images/symbols/symbol_23.png,condition_files/AMP_rep2.csv,right,sanctity.vice,,,,,,,,,,,,,,0,2,2,1,0,62,62,62,,,,,,,,,,,,,,,,,,,,,625.5599625904324,,,,,,,,,,,,,,AMP_prac,right,0.8004704419836344,1,,,left,1.6993651855591452,,,,,,,,,,,,,,,,,,,,,,,,,1020,2019_May_23_1656,mf_amp_cond1,3.0.7,59.994477594622516,
slypped,&&&&&&&,images/symbols/symbol_35.png,condition_files/AMP_rep2.csv,None,nonword,,,,,,,,,,,,,,0,2,2,1,0,63,63,63,,,,,,,,,,,,,,,,,,,,,627.2103999494539,,,,,,,,,,,,,,AMP_prac,right,0.8004704419836344,1,,,right,1.4326953330091783,,,,,,,,,,,,,,,,,,,,,,,,,1020,2019_May_23_1656,mf_amp_cond1,3.0.7,59.994477594622516,
charges,&&&&&&&,images/symbols/symbol_42.png,condition_files/AMP_rep2.csv,right,fairness.vice,,,,,,,,,,,,,,0,2,2,1,0,64,64,64,,,,,,,,,,,,,,,,,,,,,628.0939787082352,,,,,,,,,,,,,,AMP_prac,right,0.8004704419836344,1,,,left,0.6658633530896623,,,,,,,,,,,,,,,,,,,,,,,,,1020,2019_May_23_1656,mf_amp_cond1,3.0.7,59.994477594622516,
growth,&&&&&&,images/symbols/symbol_38.png,condition_files/AMP_rep2.csv,left,care.virtue,,,,,,,,,,,,,,0,2,2,1,0,65,65,65,,,,,,,,,,,,,,,,,,,,,629.0942805120976,,,,,,,,,,,,,,AMP_prac,right,0.8004704419836344,1,,,left,0.7823888304992579,,,,,,,,,,,,,,,,,,,,,,,,,1020,2019_May_23_1656,mf_amp_cond1,3.0.7,59.994477594622516,
officers,&&&&&&&&,images/symbols/symbol_43.png,condition_files/AMP_rep2.csv,right,authority.vice,,,,,,,,,,,,,,0,2,2,1,0,66,66,66,,,,,,,,,,,,,,,,,,,,,629.9278894031559,,,,,,,,,,,,,,AMP_prac,right,0.8004704419836344,1,,,left,0.6004873763558862,,,,,,,,,,,,,,,,,,,,,,,,,1020,2019_May_23_1656,mf_amp_cond1,3.0.7,59.994477594622516,
great,&&&&&,images/symbols/symbol_74.png,condition_files/AMP_rep2.csv,left,loyalty.virtue,,,,,,,,,,,,,,0,2,2,1,0,67,67,67,,,,,,,,,,,,,,,,,,,,,630.6946697460735,,,,,,,,,,,,,,AMP_prac,right,0.8004704419836344,1,,,right,0.5337232942874834,,,,,,,,,,,,,,,,,,,,,,,,,1020,2019_May_23_1656,mf_amp_cond1,3.0.7,59.994477594622516,
unpleasant,&&&&&&&&&,images/symbols/symbol_1.png,condition_files/AMP_rep2.csv,left,control,,,,,,,,,,,,,,0,2,2,1,0,68,68,68,,,,,,,,,,,,,,,,,,,,,631.6449356125049,,,,,,,,,,,,,,AMP_prac,right,0.8004704419836344,1,,,left,0.7319218363263644,,,,,,,,,,,,,,,,,,,,,,,,,1020,2019_May_23_1656,mf_amp_cond1,3.0.7,59.994477594622516,
help,&&&&,images/symbols/symbol_25.png,condition_files/AMP_rep2.csv,left,care.virtue,,,,,,,,,,,,,,0,2,2,1,0,69,69,69,,,,,,,,,,,,,,,,,,,,,632.5118317698434,,,,,,,,,,,,,,AMP_prac,right,0.8004704419836344,1,,,left,0.6491210964741185,,,,,,,,,,,,,,,,,,,,,,,,,1020,2019_May_23_1656,mf_amp_cond1,3.0.7,59.994477594622516,
men,&&&,images/symbols/symbol_72.png,condition_files/AMP_rep2.csv,right,loyalty.vice,,,,,,,,,,,,,,0,2,2,1,0,70,70,70,,,,,,,,,,,,,,,,,,,,,633.3453864580842,,,,,,,,,,,,,,AMP_prac,right,0.8004704419836344,1,,,left,0.6002965439438412,,,,,,,,,,,,,,,,,,,,,,,,,1020,2019_May_23_1656,mf_amp_cond1,3.0.7,59.994477594622516,
arrests,&&&&&&&,images/symbols/symbol_9.png,condition_files/AMP_rep2.csv,right,authority.vice,,,,,,,,,,,,,,0,2,2,1,0,71,71,71,,,,,,,,,,,,,,,,,,,,,634.3956998241447,,,,,,,,,,,,,,AMP_prac,right,0.8004704419836344,1,,,left,0.8319395083708514,,,,,,,,,,,,,,,,,,,,,,,,,1020,2019_May_23_1656,mf_amp_cond1,3.0.7,59.994477594622516,
prison,&&&&&&,images/symbols/symbol_75.png,condition_files/AMP_rep2.csv,right,fairness.vice,,,,,,,,,,,,,,0,2,2,1,0,72,72,72,,,,,,,,,,,,,,,,,,,,,635.1125510316342,,,,,,,,,,,,,,AMP_prac,right,0.8004704419836344,1,,,left,0.4991146338325052,,,,,,,,,,,,,,,,,,,,,,,,,1020,2019_May_23_1656,mf_amp_cond1,3.0.7,59.994477594622516,
death,&&&&&,images/symbols/symbol_58.png,condition_files/AMP_rep2.csv,right,care.vice,,,,,,,,,,,,,,0,2,2,1,0,73,73,73,,,,,,,,,,,,,,,,,,,,,635.7126929852893,,,,,,,,,,,,,,AMP_prac,right,0.8004704419836344,1,,,left,0.3823915887478506,,,,,,,,,,,,,,,,,,,,,,,,,1020,2019_May_23_1656,mf_amp_cond1,3.0.7,59.994477594622516,
clean,&&&&&,images/symbols/symbol_5.png,condition_files/AMP_rep2.csv,left,sanctity.virtue,,,,,,,,,,,,,,0,2,2,1,0,74,74,74,,,,,,,,,,,,,,,,,,,,,636.5962589150004,,,,,,,,,,,,,,AMP_prac,right,0.8004704419836344,1,,,left,0.6658951050339965,,,,,,,,,,,,,,,,,,,,,,,,,1020,2019_May_23_1656,mf_amp_cond1,3.0.7,59.994477594622516,
stintz,&&&&&&,images/symbols/symbol_66.png,condition_files/AMP_rep2.csv,None,nonword,,,,,,,,,,,,,,0,2,2,1,0,75,75,75,,,,,,,,,,,,,,,,,,,,,637.2797692948407,,,,,,,,,,,,,,AMP_prac,right,0.8004704419836344,1,,,left,0.4659146052217693,,,,,,,,,,,,,,,,,,,,,,,,,1020,2019_May_23_1656,mf_amp_cond1,3.0.7,59.994477594622516,
fraud,&&&&&,images/symbols/symbol_59.png,condition_files/AMP_rep2.csv,right,fairness.vice,,,,,,,,,,,,,,0,2,2,1,0,76,76,76,,,,,,,,,,,,,,,,,,,,,638.3634023205886,,,,,,,,,,,,,,AMP_prac,right,0.8004704419836344,1,,,left,0.8659618803430931,,,,,,,,,,,,,,,,,,,,,,,,,1020,2019_May_23_1656,mf_amp_cond1,3.0.7,59.994477594622516,
freedom,&&&&&&&,images/symbols/symbol_62.png,condition_files/AMP_rep2.csv,left,sanctity.virtue,,,,,,,,,,,,,,0,2,2,1,0,77,77,77,,,,,,,,,,,,,,,,,,,,,639.1802930095364,,,,,,,,,,,,,,AMP_prac,right,0.8004704419836344,1,,,left,0.5837412710206991,,,,,,,,,,,,,,,,,,,,,,,,,1020,2019_May_23_1656,mf_amp_cond1,3.0.7,59.994477594622516,
trust,&&&&&,images/symbols/symbol_67.png,condition_files/AMP_rep2.csv,left,authority.virtue,,,,,,,,,,,,,,0,2,2,1,0,78,78,78,,,,,,,,,,,,,,,,,,,,,639.8471384279073,,,,,,,,,,,,,,AMP_prac,right,0.8004704419836344,1,,,left,0.44863224477376207,,,,,,,,,,,,,,,,,,,,,,,,,1020,2019_May_23_1656,mf_amp_cond1,3.0.7,59.994477594622516,
strength,&&&&&&&&,images/symbols/symbol_78.png,condition_files/AMP_rep2.csv,left,sanctity.virtue,,,,,,,,,,,,,,0,2,2,1,0,79,79,79,,,,,,,,,,,,,,,,,,,,,640.4973349211468,,,,,,,,,,,,,,AMP_prac,right,0.8004704419836344,1,,,left,0.43231976199604105,,,,,,,,,,,,,,,,,,,,,,,,,1020,2019_May_23_1656,mf_amp_cond1,3.0.7,59.994477594622516,
penalty,&&&&&&&,images/symbols/symbol_44.png,condition_files/AMP_rep2.csv,right,authority.vice,,,,,,,,,,,,,,0,2,2,1,0,80,80,80,,,,,,,,,,,,,,,,,,,,,641.2308453170226,,,,,,,,,,,,,,AMP_prac,right,0.8004704419836344,1,,,right,0.5157398251867562,,,,,,,,,,,,,,,,,,,,,,,,,1020,2019_May_23_1656,mf_amp_cond1,3.0.7,59.994477594622516,
civilians,&&&&&&&&&,images/symbols/symbol_79.png,condition_files/AMP_rep2.csv,right,care.vice,,,,,,,,,,,,,,0,2,2,1,0,81,81,81,,,,,,,,,,,,,,,,,,,,,641.9810357485258,,,,,,,,,,,,,,AMP_prac,right,0.8004704419836344,1,,,left,0.5323691859848623,,,,,,,,,,,,,,,,,,,,,,,,,1020,2019_May_23_1656,mf_amp_cond1,3.0.7,59.994477594622516,
,,,condition_files/AMP_rep2.csv,,,,,,,,,,,,,,,,0,2,2,1,,,,,,,,,,,,,,,,,,,,,,,,,,,,,,,,,,,,,,,,,,,,,,,right,1.200583466084936,,,,,,,,,,,,,,,,,,,,,,,1020,2019_May_23_1656,mf_amp_cond1,3.0.7,59.994477594622516,
gryssed,&&&&&&&,images/symbols/symbol_11.png,condition_files/AMP_rep1.csv,None,nonword,,,,,,,,,,,,,,0,3,3,0,0,0,0,0,,,,,,,,,,,,,,,,,,,,,643.9483742201119,,,,,,,,,,,,,,AMP_prac,right,0.8004704419836344,1,,,right,0.5158139130617201,,,,,,,,,,,,,,,,,,,,,,,,,1020,2019_May_23_1656,mf_amp_cond1,3.0.7,59.994477594622516,
dighnd,&&&&&&,images/symbols/symbol_7.png,condition_files/AMP_rep1.csv,None,nonword,,,,,,,,,,,,,,0,3,3,0,0,1,1,1,,,,,,,,,,,,,,,,,,,,,644.6317531019886,,,,,,,,,,,,,,AMP_prac,right,0.8004704419836344,1,,,right,0.46535140906780725,,,,,,,,,,,,,,,,,,,,,,,,,1020,2019_May_23_1656,mf_amp_cond1,3.0.7,59.994477594622516,
died,&&&&,images/symbols/symbol_54.png,condition_files/AMP_rep1.csv,right,care.vice,,,,,,,,,,,,,,0,3,3,0,0,2,2,2,,,,,,,,,,,,,,,,,,,,,645.3653330955676,,,,,,,,,,,,,,AMP_prac,right,0.8004704419836344,1,,,left,0.5004478948940232,,,,,,,,,,,,,,,,,,,,,,,,,1020,2019_May_23_1656,mf_amp_cond1,3.0.7,59.994477594622516,
attacks,&&&&&&&,images/symbols/symbol_76.png,condition_files/AMP_rep1.csv,right,care.vice,,,,,,,,,,,,,,0,3,3,0,0,3,3,3,,,,,,,,,,,,,,,,,,,,,646.1488255467848,,,,,,,,,,,,,,AMP_prac,right,0.8004704419836344,1,,,left,0.5658065523821278,,,,,,,,,,,,,,,,,,,,,,,,,1020,2019_May_23_1656,mf_amp_cond1,3.0.7,59.994477594622516,
drug,&&&&,images/symbols/symbol_24.png,condition_files/AMP_rep1.csv,right,sanctity.vice,,,,,,,,,,,,,,0,3,3,0,0,4,4,4,,,,,,,,,,,,,,,,,,,,,646.8490085855337,,,,,,,,,,,,,,AMP_prac,right,0.8004704419836344,1,,,right,0.46703682808947633,,,,,,,,,,,,,,,,,,,,,,,,,1020,2019_May_23_1656,mf_amp_cond1,3.0.7,59.994477594622516,
riot,&&&&,images/symbols/symbol_14.png,condition_files/AMP_rep1.csv,right,authority.vice,,,,,,,,,,,,,,0,3,3,0,0,5,5,5,,,,,,,,,,,,,,,,,,,,,647.5158588148079,,,,,,,,,,,,,,AMP_prac,right,0.8004704419836344,1,,,left,0.4485068406211212,,,,,,,,,,,,,,,,,,,,,,,,,1020,2019_May_23_1656,mf_amp_cond1,3.0.7,59.994477594622516,
troops,&&&&&&,images/symbols/symbol_8.png,condition_files/AMP_rep1.csv,right,loyalty.vice,,,,,,,,,,,,,,0,3,3,0,0,6,6,6,,,,,,,,,,,,,,,,,,,,,648.182697177188,,,,,,,,,,,,,,AMP_prac,right,0.8004704419836344,1,,,right,0.44929262113873847,,,,,,,,,,,,,,,,,,,,,,,,,1020,2019_May_23_1656,mf_amp_cond1,3.0.7,59.994477594622516,
pseighs,&&&&&&&,images/symbols/symbol_56.png,condition_files/AMP_rep1.csv,None,nonword,,,,,,,,,,,,,,0,3,3,0,0,7,7,7,,,,,,,,,,,,,,,,,,,,,648.8829270420429,,,,,,,,,,,,,,AMP_prac,right,0.8004704419836344,1,,,right,0.46707178730503074,,,,,,,,,,,,,,,,,,,,,,,,,1020,2019_May_23_1656,mf_amp_cond1,3.0.7,59.994477594622516,
friends,&&&&&&&,images/symbols/symbol_32.png,condition_files/AMP_rep1.csv,left,loyalty.virtue,,,,,,,,,,,,,,0,3,3,0,0,8,8,8,,,,,,,,,,,,,,,,,,,,,649.5830844226548,,,,,,,,,,,,,,AMP_prac,right,0.8004704419836344,1,,,left,0.4818749300429772,,,,,,,,,,,,,,,,,,,,,,,,,1020,2019_May_23_1656,mf_amp_cond1,3.0.7,59.994477594622516,
killed,&&&&&&,images/symbols/symbol_29.png,condition_files/AMP_rep1.csv,right,care.vice,,,,,,,,,,,,,,0,3,3,0,0,9,9,9,,,,,,,,,,,,,,,,,,,,,650.2999715515398,,,,,,,,,,,,,,AMP_prac,right,0.8004704419836344,1,,,left,0.4988769753181259,,,,,,,,,,,,,,,,,,,,,,,,,1020,2019_May_23_1656,mf_amp_cond1,3.0.7,59.994477594622516,
improve,&&&&&&&,images/symbols/symbol_10.png,condition_files/AMP_rep1.csv,left,care.virtue,,,,,,,,,,,,,,0,3,3,0,0,10,10,10,,,,,,,,,,,,,,,,,,,,,651.0001318186914,,,,,,,,,,,,,,AMP_prac,right,0.8004704419836344,1,,,left,0.48261356372677255,,,,,,,,,,,,,,,,,,,,,,,,,1020,2019_May_23_1656,mf_amp_cond1,3.0.7,59.994477594622516,
conspiracy,&&&&&&&&&&,images/symbols/symbol_71.png,condition_files/AMP_rep1.csv,right,sanctity.vice,,,,,,,,,,,,,,0,3,3,0,0,11,11,11,,,,,,,,,,,,,,,,,,,,,651.6836486130669,,,,,,,,,,,,,,AMP_prac,right,0.8004704419836344,1,,,right,0.45036898008038406,,,,,,,,,,,,,,,,,,,,,,,,,1020,2019_May_23_1656,mf_amp_cond1,3.0.7,59.994477594622516,
illegal,&&&&&&&,images/symbols/symbol_81.png,condition_files/AMP_rep1.csv,right,fairness.vice,,,,,,,,,,,,,,0,3,3,0,0,12,12,12,,,,,,,,,,,,,,,,,,,,,652.3672391745895,,,,,,,,,,,,,,AMP_prac,right,0.8004704419836344,1,,,right,0.4504215792658215,,,,,,,,,,,,,,,,,,,,,,,,,1020,2019_May_23_1656,mf_amp_cond1,3.0.7,59.994477594622516,
protect,&&&&&&&,images/symbols/symbol_15.png,condition_files/AMP_rep1.csv,left,fairness.virtue,,,,,,,,,,,,,,0,3,3,0,0,13,13,13,,,,,,,,,,,,,,,,,,,,,653.0673686519767,,,,,,,,,,,,,,AMP_prac,right,0.8004704419836344,1,,,left,0.48184734754249803,,,,,,,,,,,,,,,,,,,,,,,,,1020,2019_May_23_1656,mf_amp_cond1,3.0.7,59.994477594622516,
accused,&&&&&&&,images/symbols/symbol_17.png,condition_files/AMP_rep1.csv,right,fairness.vice,,,,,,,,,,,,,,0,3,3,0,0,14,14,14,,,,,,,,,,,,,,,,,,,,,653.8342923597447,,,,,,,,,,,,,,AMP_prac,right,0.8004704419836344,1,,,left,0.5488369005106506,,,,,,,,,,,,,,,,,,,,,,,,,1020,2019_May_23_1656,mf_amp_cond1,3.0.7,59.994477594622516,
actively,&&&&&&&&,images/symbols/symbol_50.png,condition_files/AMP_rep1.csv,left,authority.virtue,,,,,,,,,,,,,,0,3,3,0,0,15,15,15,,,,,,,,,,,,,,,,,,,,,654.5678011519885,,,,,,,,,,,,,,AMP_prac,right,0.8004704419836344,1,,,left,0.5159633717230463,,,,,,,,,,,,,,,,,,,,,,,,,1020,2019_May_23_1656,mf_amp_cond1,3.0.7,59.994477594622516,
ensure,&&&&&&,images/symbols/symbol_39.png,condition_files/AMP_rep1.csv,left,fairness.virtue,,,,,,,,,,,,,,0,3,3,0,0,16,16,16,,,,,,,,,,,,,,,,,,,,,655.5346970206738,,,,,,,,,,,,,,AMP_prac,right,0.8004704419836344,1,,,left,0.7491766142738925,,,,,,,,,,,,,,,,,,,,,,,,,1020,2019_May_23_1656,mf_amp_cond1,3.0.7,59.994477594622516,
strong,&&&&&&,images/symbols/symbol_55.png,condition_files/AMP_rep1.csv,left,loyalty.virtue,,,,,,,,,,,,,,0,3,3,0,0,17,17,17,,,,,,,,,,,,,,,,,,,,,656.334889071848,,,,,,,,,,,,,,AMP_prac,right,0.8004704419836344,1,,,right,0.5822723425480945,,,,,,,,,,,,,,,,,,,,,,,,,1020,2019_May_23_1656,mf_amp_cond1,3.0.7,59.994477594622516,
voter,&&&&&,images/symbols/symbol_53.png,condition_files/AMP_rep1.csv,right,fairness.vice,,,,,,,,,,,,,,0,3,3,0,0,18,18,18,,,,,,,,,,,,,,,,,,,,,657.2017983789847,,,,,,,,,,,,,,AMP_prac,right,0.8004704419836344,1,,,left,0.6492901194687875,,,,,,,,,,,,,,,,,,,,,,,,,1020,2019_May_23_1656,mf_amp_cond1,3.0.7,59.994477594622516,
promote,&&&&&&&,images/symbols/symbol_20.png,condition_files/AMP_rep1.csv,left,sanctity.virtue,,,,,,,,,,,,,,0,3,3,0,0,19,19,19,,,,,,,,,,,,,,,,,,,,,657.9353238490185,,,,,,,,,,,,,,AMP_prac,right,0.8004704419836344,1,,,left,0.5161009634975926,,,,,,,,,,,,,,,,,,,,,,,,,1020,2019_May_23_1656,mf_amp_cond1,3.0.7,59.994477594622516,
loyalty,&&&&&&&,images/symbols/symbol_37.png,condition_files/AMP_rep1.csv,left,loyalty.virtue,,,,,,,,,,,,,,0,3,3,0,0,20,20,20,,,,,,,,,,,,,,,,,,,,,658.6521837161272,,,,,,,,,,,,,,AMP_prac,right,0.8004704419836344,1,,,right,0.4837062797341787,,,,,,,,,,,,,,,,,,,,,,,,,1020,2019_May_23_1656,mf_amp_cond1,3.0.7,59.994477594622516,
threatened,&&&&&&&&&&,images/symbols/symbol_80.png,condition_files/AMP_rep1.csv,right,fairness.vice,,,,,,,,,,,,,,0,3,3,0,0,21,21,21,,,,,,,,,,,,,,,,,,,,,659.3023564755858,,,,,,,,,,,,,,AMP_prac,right,0.8004704419836344,1,,,left,0.43239096333127236,,,,,,,,,,,,,,,,,,,,,,,,,1020,2019_May_23_1656,mf_amp_cond1,3.0.7,59.994477594622516,
promises,&&&&&&&&,images/symbols/symbol_49.png,condition_files/AMP_rep1.csv,left,fairness.virtue,,,,,,,,,,,,,,0,3,3,0,0,22,22,22,,,,,,,,,,,,,,,,,,,,,659.9525366117596,,,,,,,,,,,,,,AMP_prac,right,0.8004704419836344,1,,,left,0.4329631398395577,,,,,,,,,,,,,,,,,,,,,,,,,1020,2019_May_23_1656,mf_amp_cond1,3.0.7,59.994477594622516,
hope,&&&&,images/symbols/symbol_40.png,condition_files/AMP_rep1.csv,left,loyalty.virtue,,,,,,,,,,,,,,0,3,3,0,0,23,23,23,,,,,,,,,,,,,,,,,,,,,660.7360893596015,,,,,,,,,,,,,,AMP_prac,right,0.8004704419836344,1,,,left,0.5657869880524231,,,,,,,,,,,,,,,,,,,,,,,,,1020,2019_May_23_1656,mf_amp_cond1,3.0.7,59.994477594622516,
suicide,&&&&&&&,images/symbols/symbol_36.png,condition_files/AMP_rep1.csv,right,care.vice,,,,,,,,,,,,,,0,3,3,0,0,24,24,24,,,,,,,,,,,,,,,,,,,,,661.3362393314274,,,,,,,,,,,,,,AMP_prac,right,0.8004704419836344,1,,,right,0.3825298219744582,,,,,,,,,,,,,,,,,,,,,,,,,1020,2019_May_23_1656,mf_amp_cond1,3.0.7,59.994477594622516,
crarft,&&&&&&,images/symbols/symbol_18.png,condition_files/AMP_rep1.csv,None,nonword,,,,,,,,,,,,,,0,3,3,0,0,25,25,25,,,,,,,,,,,,,,,,,,,,,661.9363966799647,,,,,,,,,,,,,,AMP_prac,right,0.8004704419836344,1,,,left,0.3822700333148532,,,,,,,,,,,,,,,,,,,,,,,,,1020,2019_May_23_1656,mf_amp_cond1,3.0.7,59.994477594622516,
protesters,&&&&&&&&&&,images/symbols/symbol_27.png,condition_files/AMP_rep1.csv,right,authority.vice,,,,,,,,,,,,,,0,3,3,0,0,26,26,26,,,,,,,,,,,,,,,,,,,,,662.8533393587204,,,,,,,,,,,,,,AMP_prac,right,0.8004704419836344,1,,,left,0.6991172637899581,,,,,,,,,,,,,,,,,,,,,,,,,1020,2019_May_23_1656,mf_amp_cond1,3.0.7,59.994477594622516,
rejected,&&&&&&&&,images/symbols/symbol_19.png,condition_files/AMP_rep1.csv,right,authority.vice,,,,,,,,,,,,,,0,3,3,0,0,27,27,27,,,,,,,,,,,,,,,,,,,,,663.5201546287753,,,,,,,,,,,,,,AMP_prac,right,0.8004704419836344,1,,,left,0.449131616314844,,,,,,,,,,,,,,,,,,,,,,,,,1020,2019_May_23_1656,mf_amp_cond1,3.0.7,59.994477594622516,
freazz,&&&&&&,images/symbols/symbol_70.png,condition_files/AMP_rep1.csv,None,nonword,,,,,,,,,,,,,,0,3,3,0,0,28,28,28,,,,,,,,,,,,,,,,,,,,,664.2870491504109,,,,,,,,,,,,,,AMP_prac,right,0.8004704419836344,1,,,left,0.5337383684418455,,,,,,,,,,,,,,,,,,,,,,,,,1020,2019_May_23_1656,mf_amp_cond1,3.0.7,59.994477594622516,
ability,&&&&&&&,images/symbols/symbol_52.png,condition_files/AMP_rep1.csv,left,authority.virtue,,,,,,,,,,,,,,0,3,3,0,0,29,29,29,,,,,,,,,,,,,,,,,,,,,664.9205341768029,,,,,,,,,,,,,,AMP_prac,right,0.8004704419836344,1,,,left,0.4155864857311826,,,,,,,,,,,,,,,,,,,,,,,,,1020,2019_May_23_1656,mf_amp_cond1,3.0.7,59.994477594622516,
love,&&&&,images/symbols/symbol_26.png,condition_files/AMP_rep1.csv,left,loyalty.virtue,,,,,,,,,,,,,,0,3,3,0,0,30,30,30,,,,,,,,,,,,,,,,,,,,,665.6040471224551,,,,,,,,,,,,,,AMP_prac,right,0.8004704419836344,1,,,left,0.46573499824808096,,,,,,,,,,,,,,,,,,,,,,,,,1020,2019_May_23_1656,mf_amp_cond1,3.0.7,59.994477594622516,
peaceful,&&&&&&&&,images/symbols/symbol_73.png,condition_files/AMP_rep1.csv,left,authority.virtue,,,,,,,,,,,,,,0,3,3,0,0,31,31,31,,,,,,,,,,,,,,,,,,,,,666.170870699334,,,,,,,,,,,,,,AMP_prac,right,0.8004704419836344,1,,,right,0.3490283102291869,,,,,,,,,,,,,,,,,,,,,,,,,1020,2019_May_23_1656,mf_amp_cond1,3.0.7,59.994477594622516,
safety,&&&&&&,images/symbols/symbol_2.png,condition_files/AMP_rep1.csv,left,care.virtue,,,,,,,,,,,,,,0,3,3,0,0,32,32,32,,,,,,,,,,,,,,,,,,,,,666.7376073592677,,,,,,,,,,,,,,AMP_prac,right,0.8004704419836344,1,,,right,0.34865787084345357,,,,,,,,,,,,,,,,,,,,,,,,,1020,2019_May_23_1656,mf_amp_cond1,3.0.7,59.994477594622516,
army,&&&&,images/symbols/symbol_33.png,condition_files/AMP_rep1.csv,right,loyalty.vice,,,,,,,,,,,,,,0,3,3,0,0,33,33,33,,,,,,,,,,,,,,,,,,,,,667.3045114385604,,,,,,,,,,,,,,AMP_prac,right,0.8004704419836344,1,,,left,0.3491623740083014,,,,,,,,,,,,,,,,,,,,,,,,,1020,2019_May_23_1656,mf_amp_cond1,3.0.7,59.994477594622516,
free,&&&&,images/symbols/symbol_63.png,condition_files/AMP_rep1.csv,left,fairness.virtue,,,,,,,,,,,,,,0,3,3,0,0,34,34,34,,,,,,,,,,,,,,,,,,,,,667.9713581398355,,,,,,,,,,,,,,AMP_prac,right,0.8004704419836344,1,,,right,0.4492111565414234,,,,,,,,,,,,,,,,,,,,,,,,,1020,2019_May_23_1656,mf_amp_cond1,3.0.7,59.994477594622516,
shot,&&&&,images/symbols/symbol_51.png,condition_files/AMP_rep1.csv,right,care.vice,,,,,,,,,,,,,,0,3,3,0,0,35,35,35,,,,,,,,,,,,,,,,,,,,,668.5213846158294,,,,,,,,,,,,,,AMP_prac,right,0.8004704419836344,1,,,left,0.3328463632315106,,,,,,,,,,,,,,,,,,,,,,,,,1020,2019_May_23_1656,mf_amp_cond1,3.0.7,59.994477594622516,
gun,&&&,images/symbols/symbol_28.png,condition_files/AMP_rep1.csv,right,authority.vice,,,,,,,,,,,,,,0,3,3,0,0,36,36,36,,,,,,,,,,,,,,,,,,,,,669.2216949830981,,,,,,,,,,,,,,AMP_prac,right,0.8004704419836344,1,,,left,0.4825221566061373,,,,,,,,,,,,,,,,,,,,,,,,,1020,2019_May_23_1656,mf_amp_cond1,3.0.7,59.994477594622516,
health,&&&&&&,images/symbols/symbol_31.png,condition_files/AMP_rep1.csv,left,care.virtue,,,,,,,,,,,,,,0,3,3,0,0,37,37,37,,,,,,,,,,,,,,,,,,,,,669.4717617744391,,,,,,,,,,,,,,AMP_prac,right,0.8004704419836344,1,,,left,0.016920259953622008,,,,,,,,,,,,,,,,,,,,,,,,,1020,2019_May_23_1656,mf_amp_cond1,3.0.7,59.994477594622516,
celebrated,&&&&&&&&&&,images/symbols/symbol_45.png,condition_files/AMP_rep1.csv,left,authority.virtue,,,,,,,,,,,,,,0,3,3,0,0,38,38,38,,,,,,,,,,,,,,,,,,,,,669.7551748457881,,,,,,,,,,,,,,AMP_prac,right,0.8004704419836344,1,,,left,0.0650311954850622,,,,,,,,,,,,,,,,,,,,,,,,,1020,2019_May_23_1656,mf_amp_cond1,3.0.7,59.994477594622516,
opportunity,&&&&&&&&&&&,images/symbols/symbol_34.png,condition_files/AMP_rep1.csv,left,fairness.virtue,,,,,,,,,,,,,,0,3,3,0,0,39,39,39,,,,,,,,,,,,,,,,,,,,,670.1052923440293,,,,,,,,,,,,,,AMP_prac,right,0.8004704419836344,1,,,left,0.13226738731827936,,,,,,,,,,,,,,,,,,,,,,,,,1020,2019_May_23_1656,mf_amp_cond1,3.0.7,59.994477594622516,
integrity,&&&&&&&&&,images/symbols/symbol_47.png,condition_files/AMP_rep1.csv,left,fairness.virtue,,,,,,,,,,,,,,0,3,3,0,0,40,40,40,,,,,,,,,,,,,,,,,,,,,671.2889090447825,,,,,,,,,,,,,,AMP_prac,right,0.8004704419836344,1,,,left,0.965833300993836,,,,,,,,,,,,,,,,,,,,,,,,,1020,2019_May_23_1656,mf_amp_cond1,3.0.7,59.994477594622516,
violations,&&&&&&&&&&,images/symbols/symbol_16.png,condition_files/AMP_rep1.csv,right,sanctity.vice,,,,,,,,,,,,,,0,3,3,0,0,41,41,41,,,,,,,,,,,,,,,,,,,,,671.9557624813242,,,,,,,,,,,,,,AMP_prac,right,0.8004704419836344,1,,,right,0.4493692748292233,,,,,,,,,,,,,,,,,,,,,,,,,1020,2019_May_23_1656,mf_amp_cond1,3.0.7,59.994477594622516,
terrorist,&&&&&&&&&,images/symbols/symbol_30.png,condition_files/AMP_rep1.csv,right,loyalty.vice,,,,,,,,,,,,,,0,3,3,0,0,42,42,42,,,,,,,,,,,,,,,,,,,,,672.6226024473399,,,,,,,,,,,,,,AMP_prac,right,0.8004704419836344,1,,,right,0.44929422477071057,,,,,,,,,,,,,,,,,,,,,,,,,1020,2019_May_23_1656,mf_amp_cond1,3.0.7,59.994477594622516,
graidd,&&&&&&,images/symbols/symbol_57.png,condition_files/AMP_rep1.csv,None,nonword,,,,,,,,,,,,,,0,3,3,0,0,43,43,43,,,,,,,,,,,,,,,,,,,,,673.306148748572,,,,,,,,,,,,,,AMP_prac,right,0.8004704419836344,1,,,left,0.45039303458543145,,,,,,,,,,,,,,,,,,,,,,,,,1020,2019_May_23_1656,mf_amp_cond1,3.0.7,59.994477594622516,
embrace,&&&&&&&,images/symbols/symbol_82.png,condition_files/AMP_rep1.csv,left,authority.virtue,,,,,,,,,,,,,,0,3,3,0,0,44,44,44,,,,,,,,,,,,,,,,,,,,,673.9896485444297,,,,,,,,,,,,,,AMP_prac,right,0.8004704419836344,1,,,left,0.4656955488608219,,,,,,,,,,,,,,,,,,,,,,,,,1020,2019_May_23_1656,mf_amp_cond1,3.0.7,59.994477594622516,
good,&&&&,images/symbols/symbol_4.png,condition_files/AMP_rep1.csv,left,care.virtue,,,,,,,,,,,,,,0,3,3,0,0,45,45,45,,,,,,,,,,,,,,,,,,,,,674.6898655802179,,,,,,,,,,,,,,AMP_prac,right,0.8004704419836344,1,,,left,0.4820484432093508,,,,,,,,,,,,,,,,,,,,,,,,,1020,2019_May_23_1656,mf_amp_cond1,3.0.7,59.994477594622516,
black,&&&&&,images/symbols/symbol_46.png,condition_files/AMP_rep1.csv,right,loyalty.vice,,,,,,,,,,,,,,0,3,3,0,0,46,46,46,,,,,,,,,,,,,,,,,,,,,675.3733416422947,,,,,,,,,,,,,,AMP_prac,right,0.8004704419836344,1,,,right,0.46577508909103926,,,,,,,,,,,,,,,,,,,,,,,,,1020,2019_May_23_1656,mf_amp_cond1,3.0.7,59.994477594622516,
energy,&&&&&&,images/symbols/symbol_48.png,condition_files/AMP_rep1.csv,left,sanctity.virtue,,,,,,,,,,,,,,0,3,3,0,0,47,47,47,,,,,,,,,,,,,,,,,,,,,675.9901774228274,,,,,,,,,,,,,,AMP_prac,right,0.8004704419836344,1,,,right,0.39911235667022993,,,,,,,,,,,,,,,,,,,,,,,,,1020,2019_May_23_1656,mf_amp_cond1,3.0.7,59.994477594622516,
commitment,&&&&&&&&&&,images/symbols/symbol_41.png,condition_files/AMP_rep1.csv,left,sanctity.virtue,,,,,,,,,,,,,,0,3,3,0,0,48,48,48,,,,,,,,,,,,,,,,,,,,,676.6903684797471,,,,,,,,,,,,,,AMP_prac,right,0.8004704419836344,1,,,left,0.482989776195609,,,,,,,,,,,,,,,,,,,,,,,,,1020,2019_May_23_1656,mf_amp_cond1,3.0.7,59.994477594622516,
