words,mask,masks,symbols,conditionfile,corr_ans,category,LDT_trials_cond2.thisRepN,LDT_trials_cond2.thisTrialN,LDT_trials_cond2.thisN,LDT_trials_cond2.thisIndex,LDT_pracs_1.thisRepN,LDT_pracs_1.thisTrialN,LDT_pracs_1.thisN,LDT_pracs_1.thisIndex,LDT_trials_1.thisRepN,LDT_trials_1.thisTrialN,LDT_trials_1.thisN,LDT_trials_1.thisIndex,logo_trials.thisRepN,logo_trials.thisTrialN,logo_trials.thisN,logo_trials.thisIndex,AMP_pracs.thisRepN,AMP_pracs.thisTrialN,AMP_pracs.thisN,AMP_pracs.thisIndex,trials_loop.thisRepN,trials_loop.thisTrialN,trials_loop.thisN,trials_loop.thisIndex,AMP_trials.thisRepN,AMP_trials.thisTrialN,AMP_trials.thisN,AMP_trials.thisIndex,memtask_trials.thisRepN,memtask_trials.thisTrialN,memtask_trials.thisN,memtask_trials.thisIndex,LDT_cond1.thisRepN,LDT_cond1.thisTrialN,LDT_cond1.thisN,LDT_cond1.thisIndex,begin_key.keys,begin_key.rt,key_resp_instr.keys,key_resp_instr.rt,exp_time,key_resp_LDT_instr.keys,key_resp_LDT_instr.rt,resp_LDT_prac.keys,resp_LDT_prac.rt,task,keypress,RT,corr,resp_LDT_ready.keys,resp_LDT_ready.rt,resp_LDT_trial.keys,resp_LDT_trial.rt,LDT_rating.response,LDT_rating.rt,resp_sym_rate.keys,resp_sym_rate.rt,sym_resp_1.keys,sym_resp_1.rt,sym_resp_2.keys,sym_resp_2.rt,sym_resp_trial.keys,sym_resp_trial.rt,symbol_index,resp_AMP_ready1.keys,resp_AMP_ready1.rt,resp_AMP.keys,resp_AMP.rt,prime_dur,resp_AMP_ready.keys,resp_AMP_ready.rt,resp_AMP_trials.keys,resp_AMP_trials.rt,rest_key_resp.keys,rest_key_resp.rt,AMP_nonword_rating.response,AMP_nonword_rating.rt,AMP_word_rating.response,AMP_word_rating.rt,AMP_random_rating.response,AMP_random_rating.rt,key_resp_instr_memtask.keys,key_resp_instr_memtask.rt,resp_memtask.keys,resp_memtask.corr,resp_memtask.rt,participant ID,date,expName,psychopyVersion,frameRate,
,,,,,,,,,,,,,,,,,,,,,,,,,,,,,,,,,,,,,,,,,,,right,3565.657997529721,,,,,,,,,,,,,,,,,,,,,,,,,,,,,,,,,,,,,,,,,,,,,,,,,1021,2019_May_29_1257,mf_amp_cond1,3.0.7,59.98316654231645,
,,,,,,,,,,,,,,,,,,,,,,,,,,,,,,,,,,,,,,,,,,,,,right,6.418667707475834,,,,,,,,,,,,,,,,,,,,,,,,,,,,,,,,,,,,,,,,,,,,,,,1021,2019_May_29_1257,mf_amp_cond1,3.0.7,59.98316654231645,
keyboard,&&&&&&&,,,,,,0,0,0,0,0,0,0,0,,,,,,,,,,,,,,,,,,,,,,,,,,,,,,,,,3672.1772804232314,right,1.9341503098839894,left,2.4009289529640228,LDT_prac,left,2.4009289529640228,0,,,,,,,,,,,,,,,,,,,,,,,,,,,,,,,,,,,,,,1021,2019_May_29_1257,mf_amp_cond1,3.0.7,59.98316654231645,
bisebell,&&&&&&&,,,,,,0,0,0,0,0,1,1,1,,,,,,,,,,,,,,,,,,,,,,,,,,,,,,,,,3678.612256123335,,,left,4.834930285229348,LDT_prac,left,4.834930285229348,0,,,,,,,,,,,,,,,,,,,,,,,,,,,,,,,,,,,,,,1021,2019_May_29_1257,mf_amp_cond1,3.0.7,59.98316654231645,
,,,,,,,0,0,0,0,,,,,0,0,0,0,,,,,,,,,,,,,,,,,,,,,,,,,,,,,3699.401237491984,,,,,LDT_prac,left,4.834930285229348,0,right,1.1839262021239847,right,2.067474171053618,,,,,,,,,,,,,,,,,,,,,,,,,,,,,,,,,,1021,2019_May_29_1257,mf_amp_cond1,3.0.7,59.98316654231645,
,,,,,,,0,0,0,0,,,,,,,,,,,,,,,,,,,,,,,,,,,,,,,,,,,,,,,,,,,,,,,,,,3,9.671,,,,,,,,,,,,,,,,,,,,,,,,,,,,,,,,1021,2019_May_29_1257,mf_amp_cond1,3.0.7,59.98316654231645,
,,,,,,,,,,,,,,,,,,,,,,,,,,,,,,,,,,,,,,,,,,,,,,,,,,,,,,,,,,,,,,right,3.067784634535201,,,,,,,,,,,,,,,,,,,,,,,,,,,,,,1021,2019_May_29_1257,mf_amp_cond1,3.0.7,59.98316654231645,
,,,,,,,,,,,,,,,,,,,,,,,,,,,,,,,,,,,,,,,,,,,,,,,3784.190458764322,,,,,,,,,,,,,,,,,left,2.284225151524879,,,,,,,,,,,,,,,,,,,,,,,,,,,,1021,2019_May_29_1257,mf_amp_cond1,3.0.7,59.98316654231645,
,,,,,,,,,,,,,,,,,,,,,,,,,,,,,,,,,,,,,,,,,,,,,,,,,,,,,,,,,,,,,,,,,,right,1.083905643550679,,,,,,,,,,,,,,,,,,,,,,,,,,1021,2019_May_29_1257,mf_amp_cond1,3.0.7,59.98316654231645,
,,,,,,,,,,,,,,,,,,,,,,,,,,,,,,,,,,,,,,,,,,,,,,,3803.5955991800874,,,,,,,,,,,,,,,,,,,,,left,0.8643928851233795,53,right,1.1005600210046396,,,,,,,,,,,,,,,,,,,,,1021,2019_May_29_1257,mf_amp_cond1,3.0.7,59.98316654231645,
scarf,,&&&&&,images/symbols/symbol_54.png,,,,,,,,,,,,,,,,,,,,0,0,0,3,,,,,,,,,,,,,,,,,,,,,3961.1716151060537,,,,,AMP_prac,left,1.834110828465782,,,,,,,,,,,,,,,,,,,left,1.834110828465782,3,,,,,,,,,,,,,,,,,,1021,2019_May_29_1257,mf_amp_cond1,3.0.7,59.98316654231645,
keyboard,,&&&&&&&&,images/symbols/symbol_40.png,,,,,,,,,,,,,,,,,,,,0,1,1,2,,,,,,,,,,,,,,,,,,,,,3962.4051724884193,,,,,AMP_prac,left,1.0005436318460852,,,,,,,,,,,,,,,,,,,left,1.0005436318460852,3,,,,,,,,,,,,,,,,,,1021,2019_May_29_1257,mf_amp_cond1,3.0.7,59.98316654231645,
banana,,&&&&&&,images/symbols/symbol_68.png,,,,,,,,,,,,,,,,,,,,0,2,2,1,,,,,,,,,,,,,,,,,,,,,3963.7388790406985,,,,,AMP_prac,left,1.1005981874186546,,,,,,,,,,,,,,,,,,,left,1.1005981874186546,3,,,,,,,,,,,,,,,,,,1021,2019_May_29_1257,mf_amp_cond1,3.0.7,59.98316654231645,
car,,&&&,images/symbols/symbol_9.png,,,,,,,,,,,,,,,,,,,,0,3,3,0,,,,,,,,,,,,,,,,,,,,,3964.8558205007575,,,,,AMP_prac,left,0.8984149363823235,,,,,,,,,,,,,,,,,,,left,0.8984149363823235,3,,,,,,,,,,,,,,,,,,1021,2019_May_29_1257,mf_amp_cond1,3.0.7,59.98316654231645,
,,,,,,,,,,,,,,,,,,,,,,,,,,,,,,,,,,,,,,,,,,,,,,,,,,,,,,,,,,,,,,,,,,,,,,,,,,,,right,0.7838173473719507,,,,,,,,,,,,,,,,1021,2019_May_29_1257,mf_amp_cond1,3.0.7,59.98316654231645,
accused,,&&&&&&&,images/symbols/symbol_16.png,condition_files/AMP_rep2.csv,right,fairness.vice,,,,,,,,,,,,,,,,,,,,,0,0,0,1,0,0,0,0,,,,,,,,,,,,,3986.645191231626,,,,,AMP_prac,left,0.8984149363823235,,,,,,,,,,,,,,,,,,,,,3,,,right,0.7338048230158165,,,,,,,,,,,,,,1021,2019_May_29_1257,mf_amp_cond1,3.0.7,59.98316654231645,
powerful,,&&&&&&&&,images/symbols/symbol_9.png,condition_files/AMP_rep2.csv,left,authority.virtue,,,,,,,,,,,,,,,,,,,,,0,0,0,1,0,1,1,1,,,,,,,,,,,,,3987.578674109187,,,,,AMP_prac,left,0.8984149363823235,,,,,,,,,,,,,,,,,,,,,3,,,left,0.7151433376129717,,,,,,,,,,,,,,1021,2019_May_29_1257,mf_amp_cond1,3.0.7,59.98316654231645,
violations,,&&&&&&&&&&,images/symbols/symbol_38.png,condition_files/AMP_rep2.csv,right,sanctity.vice,,,,,,,,,,,,,,,,,,,,,0,0,0,1,0,2,2,2,,,,,,,,,,,,,3988.562197093619,,,,,AMP_prac,left,0.8984149363823235,,,,,,,,,,,,,,,,,,,,,3,,,left,0.7649137133266777,,,,,,,,,,,,,,1021,2019_May_29_1257,mf_amp_cond1,3.0.7,59.98316654231645,
freedom,,&&&&&&&,images/symbols/symbol_34.png,condition_files/AMP_rep2.csv,left,sanctity.virtue,,,,,,,,,,,,,,,,,,,,,0,0,0,1,0,3,3,3,,,,,,,,,,,,,3989.6624723091954,,,,,AMP_prac,left,0.8984149363823235,,,,,,,,,,,,,,,,,,,,,3,,,left,0.8816306644584984,,,,,,,,,,,,,,1021,2019_May_29_1257,mf_amp_cond1,3.0.7,59.98316654231645,
unpleasant,,&&&&&&&&&,images/symbols/symbol_72.png,condition_files/AMP_rep2.csv,left,control,,,,,,,,,,,,,,,,,,,,,0,0,0,1,0,4,4,4,,,,,,,,,,,,,3990.879466721206,,,,,AMP_prac,left,0.8984149363823235,,,,,,,,,,,,,,,,,,,,,3,,,left,0.9838587852427736,,,,,,,,,,,,,,1021,2019_May_29_1257,mf_amp_cond1,3.0.7,59.98316654231645,
good,,&&&&,images/symbols/symbol_29.png,condition_files/AMP_rep2.csv,left,care.virtue,,,,,,,,,,,,,,,,,,,,,0,0,0,1,0,5,5,5,,,,,,,,,,,,,3991.9464232393075,,,,,AMP_prac,left,0.8984149363823235,,,,,,,,,,,,,,,,,,,,,3,,,left,0.8485451353481039,,,,,,,,,,,,,,1021,2019_May_29_1257,mf_amp_cond1,3.0.7,59.98316654231645,
interests,,&&&&&&&&&,images/symbols/symbol_42.png,condition_files/AMP_rep2.csv,left,fairness.virtue,,,,,,,,,,,,,,,,,,,,,0,0,0,1,0,6,6,6,,,,,,,,,,,,,3993.0133759087184,,,,,AMP_prac,left,0.8984149363823235,,,,,,,,,,,,,,,,,,,,,3,,,left,0.8486140916356817,,,,,,,,,,,,,,1021,2019_May_29_1257,mf_amp_cond1,3.0.7,59.98316654231645,
black,,&&&&&,images/symbols/symbol_37.png,condition_files/AMP_rep2.csv,right,loyalty.vice,,,,,,,,,,,,,,,,,,,,,0,0,0,1,0,7,7,7,,,,,,,,,,,,,3994.097008613753,,,,,AMP_prac,left,0.8984149363823235,,,,,,,,,,,,,,,,,,,,,3,,,left,0.8505047757644206,,,,,,,,,,,,,,1021,2019_May_29_1257,mf_amp_cond1,3.0.7,59.98316654231645,
rhuissed,,&&&&&&&&,images/symbols/symbol_28.png,condition_files/AMP_rep2.csv,None,nonword,,,,,,,,,,,,,,,,,,,,,0,0,0,1,0,8,8,8,,,,,,,,,,,,,3995.2973271595547,,,,,AMP_prac,left,0.8984149363823235,,,,,,,,,,,,,,,,,,,,,3,,,left,0.9822031938238069,,,,,,,,,,,,,,1021,2019_May_29_1257,mf_amp_cond1,3.0.7,59.98316654231645,
health,,&&&&&&,images/symbols/symbol_78.png,condition_files/AMP_rep2.csv,left,care.virtue,,,,,,,,,,,,,,,,,,,,,0,0,0,1,0,9,9,9,,,,,,,,,,,,,3996.2809216659516,,,,,AMP_prac,left,0.8984149363823235,,,,,,,,,,,,,,,,,,,,,3,,,left,0.7650538708548993,,,,,,,,,,,,,,1021,2019_May_29_1257,mf_amp_cond1,3.0.7,59.98316654231645,
increase,,&&&&&&&&,images/symbols/symbol_6.png,condition_files/AMP_rep2.csv,left,care.virtue,,,,,,,,,,,,,,,,,,,,,0,0,0,1,0,10,10,10,,,,,,,,,,,,,3997.264517776086,,,,,AMP_prac,left,0.8984149363823235,,,,,,,,,,,,,,,,,,,,,3,,,right,0.765244061825797,,,,,,,,,,,,,,1021,2019_May_29_1257,mf_amp_cond1,3.0.7,59.98316654231645,
peace,,&&&&&,images/symbols/symbol_40.png,condition_files/AMP_rep2.csv,left,care.virtue,,,,,,,,,,,,,,,,,,,,,0,0,0,1,0,11,11,11,,,,,,,,,,,,,3998.214777227957,,,,,AMP_prac,left,0.8984149363823235,,,,,,,,,,,,,,,,,,,,,3,,,left,0.731561660184525,,,,,,,,,,,,,,1021,2019_May_29_1257,mf_amp_cond1,3.0.7,59.98316654231645,
spreussed,,&&&&&&&&&,images/symbols/symbol_2.png,condition_files/AMP_rep2.csv,None,nonword,,,,,,,,,,,,,,,,,,,,,0,0,0,1,0,12,12,12,,,,,,,,,,,,,3999.3650848530233,,,,,AMP_prac,left,0.8984149363823235,,,,,,,,,,,,,,,,,,,,,3,,,left,0.9321326179197058,,,,,,,,,,,,,,1021,2019_May_29_1257,mf_amp_cond1,3.0.7,59.98316654231645,
peaceful,,&&&&&&&&,images/symbols/symbol_51.png,condition_files/AMP_rep2.csv,left,authority.virtue,,,,,,,,,,,,,,,,,,,,,0,0,0,1,0,13,13,13,,,,,,,,,,,,,4000.565416869358,,,,,AMP_prac,left,0.8984149363823235,,,,,,,,,,,,,,,,,,,,,3,,,left,0.9671938238898292,,,,,,,,,,,,,,1021,2019_May_29_1257,mf_amp_cond1,3.0.7,59.98316654231645,
prinse,,&&&&&&,images/symbols/symbol_35.png,condition_files/AMP_rep2.csv,None,nonword,,,,,,,,,,,,,,,,,,,,,0,0,0,1,0,14,14,14,,,,,,,,,,,,,4001.7824067911133,,,,,AMP_prac,left,0.8984149363823235,,,,,,,,,,,,,,,,,,,,,3,,,left,0.9988857952412218,,,,,,,,,,,,,,1021,2019_May_29_1257,mf_amp_cond1,3.0.7,59.98316654231645,
energy,,&&&&&&,images/symbols/symbol_4.png,condition_files/AMP_rep2.csv,left,sanctity.virtue,,,,,,,,,,,,,,,,,,,,,0,0,0,1,0,15,15,15,,,,,,,,,,,,,4002.7326588663273,,,,,AMP_prac,left,0.8984149363823235,,,,,,,,,,,,,,,,,,,,,3,,,left,0.7317826409125701,,,,,,,,,,,,,,1021,2019_May_29_1257,mf_amp_cond1,3.0.7,59.98316654231645,
loyalty,,&&&&&&&,images/symbols/symbol_14.png,condition_files/AMP_rep2.csv,left,loyalty.virtue,,,,,,,,,,,,,,,,,,,,,0,0,0,1,0,16,16,16,,,,,,,,,,,,,4003.782985061407,,,,,AMP_prac,left,0.8984149363823235,,,,,,,,,,,,,,,,,,,,,3,,,right,0.8318169907433912,,,,,,,,,,,,,,1021,2019_May_29_1257,mf_amp_cond1,3.0.7,59.98316654231645,
threatened,,&&&&&&&&&&,images/symbols/symbol_70.png,condition_files/AMP_rep2.csv,right,fairness.vice,,,,,,,,,,,,,,,,,,,,,0,0,0,1,0,17,17,17,,,,,,,,,,,,,4005.2833373798057,,,,,AMP_prac,left,0.8984149363823235,,,,,,,,,,,,,,,,,,,,,3,,,left,1.2819216919597238,,,,,,,,,,,,,,1021,2019_May_29_1257,mf_amp_cond1,3.0.7,59.98316654231645,
wence,,&&&&&,images/symbols/symbol_69.png,condition_files/AMP_rep2.csv,None,nonword,,,,,,,,,,,,,,,,,,,,,0,0,0,1,0,18,18,18,,,,,,,,,,,,,4006.316961409175,,,,,AMP_prac,left,0.8984149363823235,,,,,,,,,,,,,,,,,,,,,3,,,left,0.8153528042603284,,,,,,,,,,,,,,1021,2019_May_29_1257,mf_amp_cond1,3.0.7,59.98316654231645,
fair,,&&&&,images/symbols/symbol_10.png,condition_files/AMP_rep2.csv,left,fairness.virtue,,,,,,,,,,,,,,,,,,,,,0,0,0,1,0,19,19,19,,,,,,,,,,,,,4007.267284364905,,,,,AMP_prac,left,0.8984149363823235,,,,,,,,,,,,,,,,,,,,,3,,,left,0.7322980487952009,,,,,,,,,,,,,,1021,2019_May_29_1257,mf_amp_cond1,3.0.7,59.98316654231645,
police,,&&&&&&,images/symbols/symbol_44.png,condition_files/AMP_rep2.csv,right,authority.vice,,,,,,,,,,,,,,,,,,,,,0,0,0,1,0,20,20,20,,,,,,,,,,,,,4008.3841783573152,,,,,AMP_prac,left,0.8984149363823235,,,,,,,,,,,,,,,,,,,,,3,,,left,0.8987247584154829,,,,,,,,,,,,,,1021,2019_May_29_1257,mf_amp_cond1,3.0.7,59.98316654231645,
love,,&&&&,images/symbols/symbol_46.png,condition_files/AMP_rep2.csv,left,loyalty.virtue,,,,,,,,,,,,,,,,,,,,,0,0,0,1,0,21,21,21,,,,,,,,,,,,,4009.351107260911,,,,,AMP_prac,left,0.8984149363823235,,,,,,,,,,,,,,,,,,,,,3,,,left,0.7489052794408053,,,,,,,,,,,,,,1021,2019_May_29_1257,mf_amp_cond1,3.0.7,59.98316654231645,
prosecution,,&&&&&&&&&&&,images/symbols/symbol_25.png,condition_files/AMP_rep2.csv,right,authority.vice,,,,,,,,,,,,,,,,,,,,,0,0,0,1,0,22,22,22,,,,,,,,,,,,,4010.7681466387585,,,,,AMP_prac,left,0.8984149363823235,,,,,,,,,,,,,,,,,,,,,3,,,left,1.1989285161253065,,,,,,,,,,,,,,1021,2019_May_29_1257,mf_amp_cond1,3.0.7,59.98316654231645,
party,,&&&&&,images/symbols/symbol_17.png,condition_files/AMP_rep2.csv,left,loyalty.virtue,,,,,,,,,,,,,,,,,,,,,0,0,0,1,0,23,23,23,,,,,,,,,,,,,4011.8350970631,,,,,AMP_prac,left,0.8984149363823235,,,,,,,,,,,,,,,,,,,,,3,,,left,0.848686896613799,,,,,,,,,,,,,,1021,2019_May_29_1257,mf_amp_cond1,3.0.7,59.98316654231645,
strong,,&&&&&&,images/symbols/symbol_11.png,condition_files/AMP_rep2.csv,left,loyalty.virtue,,,,,,,,,,,,,,,,,,,,,0,0,0,1,0,24,24,24,,,,,,,,,,,,,4012.968742933939,,,,,AMP_prac,left,0.8984149363823235,,,,,,,,,,,,,,,,,,,,,3,,,left,0.9155914570437744,,,,,,,,,,,,,,1021,2019_May_29_1257,mf_amp_cond1,3.0.7,59.98316654231645,
wraize,,&&&&&&,images/symbols/symbol_19.png,condition_files/AMP_rep2.csv,None,nonword,,,,,,,,,,,,,,,,,,,,,0,0,0,1,0,25,25,25,,,,,,,,,,,,,4013.88565001206,,,,,AMP_prac,left,0.8984149363823235,,,,,,,,,,,,,,,,,,,,,3,,,left,0.6987355989404023,,,,,,,,,,,,,,1021,2019_May_29_1257,mf_amp_cond1,3.0.7,59.98316654231645,
praise,,&&&&&&,images/symbols/symbol_20.png,condition_files/AMP_rep2.csv,left,authority.virtue,,,,,,,,,,,,,,,,,,,,,0,0,0,1,0,26,26,26,,,,,,,,,,,,,4014.819252841291,,,,,AMP_prac,left,0.8984149363823235,,,,,,,,,,,,,,,,,,,,,3,,,right,0.7156786305131391,,,,,,,,,,,,,,1021,2019_May_29_1257,mf_amp_cond1,3.0.7,59.98316654231645,
hate,,&&&&,images/symbols/symbol_71.png,condition_files/AMP_rep2.csv,right,fairness.vice,,,,,,,,,,,,,,,,,,,,,0,0,0,1,0,27,27,27,,,,,,,,,,,,,4015.8695148911793,,,,,AMP_prac,left,0.8984149363823235,,,,,,,,,,,,,,,,,,,,,3,,,left,0.817132196156308,,,,,,,,,,,,,,1021,2019_May_29_1257,mf_amp_cond1,3.0.7,59.98316654231645,
betrayal,,&&&&&&&&,images/symbols/symbol_52.png,condition_files/AMP_rep2.csv,right,loyalty.vice,,,,,,,,,,,,,,,,,,,,,0,0,0,1,0,28,28,28,,,,,,,,,,,,,4016.8364396252437,,,,,AMP_prac,left,0.8984149363823235,,,,,,,,,,,,,,,,,,,,,3,,,left,0.7492561544058844,,,,,,,,,,,,,,1021,2019_May_29_1257,mf_amp_cond1,3.0.7,59.98316654231645,
faith,,&&&&&,images/symbols/symbol_32.png,condition_files/AMP_rep2.csv,left,sanctity.virtue,,,,,,,,,,,,,,,,,,,,,0,0,0,1,0,29,29,29,,,,,,,,,,,,,4017.8033707739087,,,,,AMP_prac,left,0.8984149363823235,,,,,,,,,,,,,,,,,,,,,3,,,left,0.7487680084304884,,,,,,,,,,,,,,1021,2019_May_29_1257,mf_amp_cond1,3.0.7,59.98316654231645,
protesters,,&&&&&&&&&&,images/symbols/symbol_58.png,condition_files/AMP_rep2.csv,right,authority.vice,,,,,,,,,,,,,,,,,,,,,0,0,0,1,0,30,30,30,,,,,,,,,,,,,4018.8203115602955,,,,,AMP_prac,left,0.8984149363823235,,,,,,,,,,,,,,,,,,,,,3,,,left,0.798453712137416,,,,,,,,,,,,,,1021,2019_May_29_1257,mf_amp_cond1,3.0.7,59.98316654231645,
injured,,&&&&&&&,images/symbols/symbol_30.png,condition_files/AMP_rep2.csv,right,care.vice,,,,,,,,,,,,,,,,,,,,,0,0,0,1,0,31,31,31,,,,,,,,,,,,,4019.8039054253604,,,,,AMP_prac,left,0.8984149363823235,,,,,,,,,,,,,,,,,,,,,3,,,left,0.765466004726477,,,,,,,,,,,,,,1021,2019_May_29_1257,mf_amp_cond1,3.0.7,59.98316654231645,
died,,&&&&,images/symbols/symbol_63.png,condition_files/AMP_rep2.csv,right,care.vice,,,,,,,,,,,,,,,,,,,,,0,0,0,1,0,32,32,32,,,,,,,,,,,,,4020.82084717392,,,,,AMP_prac,left,0.8984149363823235,,,,,,,,,,,,,,,,,,,,,3,,,right,0.7989970233757049,,,,,,,,,,,,,,1021,2019_May_29_1257,mf_amp_cond1,3.0.7,59.98316654231645,
drug,,&&&&,images/symbols/symbol_45.png,condition_files/AMP_rep2.csv,right,sanctity.vice,,,,,,,,,,,,,,,,,,,,,0,0,0,1,0,33,33,33,,,,,,,,,,,,,4021.9044734644704,,,,,AMP_prac,left,0.8984149363823235,,,,,,,,,,,,,,,,,,,,,3,,,left,0.8654455102514476,,,,,,,,,,,,,,1021,2019_May_29_1257,mf_amp_cond1,3.0.7,59.98316654231645,
praised,,&&&&&&&,images/symbols/symbol_60.png,condition_files/AMP_rep2.csv,left,loyalty.virtue,,,,,,,,,,,,,,,,,,,,,0,0,0,1,0,34,34,34,,,,,,,,,,,,,4023.0047679237323,,,,,AMP_prac,left,0.8984149363823235,,,,,,,,,,,,,,,,,,,,,3,,,left,0.8822208017809317,,,,,,,,,,,,,,1021,2019_May_29_1257,mf_amp_cond1,3.0.7,59.98316654231645,
prison,,&&&&&&,images/symbols/symbol_47.png,condition_files/AMP_rep2.csv,right,fairness.vice,,,,,,,,,,,,,,,,,,,,,0,0,0,1,0,35,35,35,,,,,,,,,,,,,4023.95501390507,,,,,AMP_prac,left,0.8984149363823235,,,,,,,,,,,,,,,,,,,,,3,,,left,0.7321370439603925,,,,,,,,,,,,,,1021,2019_May_29_1257,mf_amp_cond1,3.0.7,59.98316654231645,
help,,&&&&,images/symbols/symbol_48.png,condition_files/AMP_rep2.csv,left,care.virtue,,,,,,,,,,,,,,,,,,,,,0,0,0,1,0,36,36,36,,,,,,,,,,,,,4025.5721206996823,,,,,AMP_prac,left,0.8984149363823235,,,,,,,,,,,,,,,,,,,,,3,,,left,1.3989016391569749,,,,,,,,,,,,,,1021,2019_May_29_1257,mf_amp_cond1,3.0.7,59.98316654231645,
embrace,,&&&&&&&,images/symbols/symbol_31.png,condition_files/AMP_rep2.csv,left,authority.virtue,,,,,,,,,,,,,,,,,,,,,0,0,0,1,0,37,37,37,,,,,,,,,,,,,4026.7891205640044,,,,,AMP_prac,left,0.8984149363823235,,,,,,,,,,,,,,,,,,,,,3,,,left,0.9838616718770936,,,,,,,,,,,,,,1021,2019_May_29_1257,mf_amp_cond1,3.0.7,59.98316654231645,
penalty,,&&&&&&&,images/symbols/symbol_50.png,condition_files/AMP_rep2.csv,right,authority.vice,,,,,,,,,,,,,,,,,,,,,0,0,0,1,0,38,38,38,,,,,,,,,,,,,4028.089472497464,,,,,AMP_prac,left,0.8984149363823235,,,,,,,,,,,,,,,,,,,,,3,,,left,1.0821759642567486,,,,,,,,,,,,,,1021,2019_May_29_1257,mf_amp_cond1,3.0.7,59.98316654231645,
conspiracy,,&&&&&&&&&&,images/symbols/symbol_36.png,condition_files/AMP_rep2.csv,right,sanctity.vice,,,,,,,,,,,,,,,,,,,,,0,0,0,1,0,39,39,39,,,,,,,,,,,,,4029.106411359622,,,,,AMP_prac,left,0.8984149363823235,,,,,,,,,,,,,,,,,,,,,3,,,left,0.798469107132405,,,,,,,,,,,,,,1021,2019_May_29_1257,mf_amp_cond1,3.0.7,59.98316654231645,
agreement,,&&&&&&&&&,images/symbols/symbol_1.png,condition_files/AMP_rep2.csv,left,fairness.virtue,,,,,,,,,,,,,,,,,,,,,0,0,0,1,0,40,40,40,,,,,,,,,,,,,4029.9899801758584,,,,,AMP_prac,left,0.8984149363823235,,,,,,,,,,,,,,,,,,,,,3,,,left,0.6649014935828745,,,,,,,,,,,,,,1021,2019_May_29_1257,mf_amp_cond1,3.0.7,59.98316654231645,
koozz,,&&&&&,images/symbols/symbol_24.png,condition_files/AMP_rep2.csv,None,nonword,,,,,,,,,,,,,,,,,,,,,0,0,0,1,0,41,41,41,,,,,,,,,,,,,4030.873567273491,,,,,AMP_prac,left,0.8984149363823235,,,,,,,,,,,,,,,,,,,,,3,,,left,0.6650717994198203,,,,,,,,,,,,,,1021,2019_May_29_1257,mf_amp_cond1,3.0.7,59.98316654231645,
lies,,&&&&,images/symbols/symbol_8.png,condition_files/AMP_rep2.csv,right,fairness.vice,,,,,,,,,,,,,,,,,,,,,0,0,0,1,0,42,42,42,,,,,,,,,,,,,4031.807132257032,,,,,AMP_prac,left,0.8984149363823235,,,,,,,,,,,,,,,,,,,,,3,,,left,0.715390938683413,,,,,,,,,,,,,,1021,2019_May_29_1257,mf_amp_cond1,3.0.7,59.98316654231645,
critics,,&&&&&&&,images/symbols/symbol_7.png,condition_files/AMP_rep2.csv,right,loyalty.vice,,,,,,,,,,,,,,,,,,,,,0,0,0,1,0,43,43,43,,,,,,,,,,,,,4032.7740666129394,,,,,AMP_prac,left,0.8984149363823235,,,,,,,,,,,,,,,,,,,,,3,,,left,0.7489383143838495,,,,,,,,,,,,,,1021,2019_May_29_1257,mf_amp_cond1,3.0.7,59.98316654231645,
crime,,&&&&&,images/symbols/symbol_55.png,condition_files/AMP_rep2.csv,right,fairness.vice,,,,,,,,,,,,,,,,,,,,,0,0,0,1,0,44,44,44,,,,,,,,,,,,,4033.590950566693,,,,,AMP_prac,left,0.8984149363823235,,,,,,,,,,,,,,,,,,,,,3,,,left,0.5837492891587317,,,,,,,,,,,,,,1021,2019_May_29_1257,mf_amp_cond1,3.0.7,59.98316654231645,
win,,&&&,images/symbols/symbol_5.png,condition_files/AMP_rep2.csv,left,fairness.virtue,,,,,,,,,,,,,,,,,,,,,0,0,0,1,0,45,45,45,,,,,,,,,,,,,4034.491193645401,,,,,AMP_prac,left,0.8984149363823235,,,,,,,,,,,,,,,,,,,,,3,,,left,0.6819359322544187,,,,,,,,,,,,,,1021,2019_May_29_1257,mf_amp_cond1,3.0.7,59.98316654231645,
stailde,,&&&&&&&,images/symbols/symbol_57.png,condition_files/AMP_rep2.csv,None,nonword,,,,,,,,,,,,,,,,,,,,,0,0,0,1,0,46,46,46,,,,,,,,,,,,,4035.574822181021,,,,,AMP_prac,left,0.8984149363823235,,,,,,,,,,,,,,,,,,,,,3,,,left,0.8651350467698649,,,,,,,,,,,,,,1021,2019_May_29_1257,mf_amp_cond1,3.0.7,59.98316654231645,
terrorist,,&&&&&&&&&,images/symbols/symbol_81.png,condition_files/AMP_rep2.csv,right,loyalty.vice,,,,,,,,,,,,,,,,,,,,,0,0,0,1,0,47,47,47,,,,,,,,,,,,,4036.608543069917,,,,,AMP_prac,left,0.8984149363823235,,,,,,,,,,,,,,,,,,,,,3,,,left,0.8005669807316735,,,,,,,,,,,,,,1021,2019_May_29_1257,mf_amp_cond1,3.0.7,59.98316654231645,
refused,,&&&&&&&,images/symbols/symbol_53.png,condition_files/AMP_rep2.csv,right,authority.vice,,,,,,,,,,,,,,,,,,,,,0,0,0,1,0,48,48,48,,,,,,,,,,,,,4037.8921059205895,,,,,AMP_prac,left,0.8984149363823235,,,,,,,,,,,,,,,,,,,,,3,,,left,1.0650895676808432,,,,,,,,,,,,,,1021,2019_May_29_1257,mf_amp_cond1,3.0.7,59.98316654231645,
failure,,&&&&&&&,images/symbols/symbol_56.png,condition_files/AMP_rep2.csv,right,loyalty.vice,,,,,,,,,,,,,,,,,,,,,0,0,0,1,0,49,49,49,,,,,,,,,,,,,4038.7256618917454,,,,,AMP_prac,left,0.8984149363823235,,,,,,,,,,,,,,,,,,,,,3,,,right,0.6004203443881124,,,,,,,,,,,,,,1021,2019_May_29_1257,mf_amp_cond1,3.0.7,59.98316654231645,
men,,&&&,images/symbols/symbol_65.png,condition_files/AMP_rep2.csv,right,loyalty.vice,,,,,,,,,,,,,,,,,,,,,0,0,0,1,0,50,50,50,,,,,,,,,,,,,4039.525883770548,,,,,AMP_prac,left,0.8984149363823235,,,,,,,,,,,,,,,,,,,,,3,,,left,0.5815625742543489,,,,,,,,,,,,,,1021,2019_May_29_1257,mf_amp_cond1,3.0.7,59.98316654231645,
yakks,,&&&&&,images/symbols/symbol_39.png,condition_files/AMP_rep2.csv,None,nonword,,,,,,,,,,,,,,,,,,,,,0,0,0,1,0,51,51,51,,,,,,,,,,,,,4040.692854432622,,,,,AMP_prac,left,0.8984149363823235,,,,,,,,,,,,,,,,,,,,,3,,,left,0.9338369597680867,,,,,,,,,,,,,,1021,2019_May_29_1257,mf_amp_cond1,3.0.7,59.98316654231645,
scandal,,&&&&&&&,images/symbols/symbol_61.png,condition_files/AMP_rep2.csv,right,sanctity.vice,,,,,,,,,,,,,,,,,,,,,0,0,0,1,0,52,52,52,,,,,,,,,,,,,4041.4930734249065,,,,,AMP_prac,left,0.8984149363823235,,,,,,,,,,,,,,,,,,,,,3,,,left,0.5815484622726217,,,,,,,,,,,,,,1021,2019_May_29_1257,mf_amp_cond1,3.0.7,59.98316654231645,
victim,,&&&&&&,images/symbols/symbol_12.png,condition_files/AMP_rep2.csv,right,care.vice,,,,,,,,,,,,,,,,,,,,,0,0,0,1,0,53,53,53,,,,,,,,,,,,,4042.576694263029,,,,,AMP_prac,left,0.8984149363823235,,,,,,,,,,,,,,,,,,,,,3,,,left,0.8504358194768429,,,,,,,,,,,,,,1021,2019_May_29_1257,mf_amp_cond1,3.0.7,59.98316654231645,
crarft,,&&&&&&,images/symbols/symbol_33.png,condition_files/AMP_rep2.csv,None,nonword,,,,,,,,,,,,,,,,,,,,,0,0,0,1,0,54,54,54,,,,,,,,,,,,,4043.6436642516637,,,,,AMP_prac,left,0.8984149363823235,,,,,,,,,,,,,,,,,,,,,3,,,left,0.8485265332274139,,,,,,,,,,,,,,1021,2019_May_29_1257,mf_amp_cond1,3.0.7,59.98316654231645,
hand,,&&&&,images/symbols/symbol_59.png,condition_files/AMP_rep2.csv,left,sanctity.virtue,,,,,,,,,,,,,,,,,,,,,0,0,0,1,0,55,55,55,,,,,,,,,,,,,4044.7939606512664,,,,,AMP_prac,left,0.8984149363823235,,,,,,,,,,,,,,,,,,,,,3,,,left,0.9318449260899797,,,,,,,,,,,,,,1021,2019_May_29_1257,mf_amp_cond1,3.0.7,59.98316654231645,
harassment,,&&&&&&&&&&,images/symbols/symbol_80.png,condition_files/AMP_rep2.csv,right,sanctity.vice,,,,,,,,,,,,,,,,,,,,,0,0,0,1,0,56,56,56,,,,,,,,,,,,,4045.827603282756,,,,,AMP_prac,left,0.8984149363823235,,,,,,,,,,,,,,,,,,,,,3,,,left,0.8155077152187005,,,,,,,,,,,,,,1021,2019_May_29_1257,mf_amp_cond1,3.0.7,59.98316654231645,
charges,,&&&&&&&,images/symbols/symbol_64.png,condition_files/AMP_rep2.csv,right,fairness.vice,,,,,,,,,,,,,,,,,,,,,0,0,0,1,0,57,57,57,,,,,,,,,,,,,4046.9612042518565,,,,,AMP_prac,left,0.8984149363823235,,,,,,,,,,,,,,,,,,,,,3,,,left,0.9150179976131767,,,,,,,,,,,,,,1021,2019_May_29_1257,mf_amp_cond1,3.0.7,59.98316654231645,
opportunity,,&&&&&&&&&&&,images/symbols/symbol_26.png,condition_files/AMP_rep2.csv,left,fairness.virtue,,,,,,,,,,,,,,,,,,,,,0,0,0,1,0,58,58,58,,,,,,,,,,,,,4047.8281084273476,,,,,AMP_prac,left,0.8984149363823235,,,,,,,,,,,,,,,,,,,,,3,,,left,0.6485274313017726,,,,,,,,,,,,,,1021,2019_May_29_1257,mf_amp_cond1,3.0.7,59.98316654231645,
safety,,&&&&&&,images/symbols/symbol_82.png,condition_files/AMP_rep2.csv,left,care.virtue,,,,,,,,,,,,,,,,,,,,,0,0,0,1,0,59,59,59,,,,,,,,,,,,,4048.7450472573983,,,,,AMP_prac,left,0.8984149363823235,,,,,,,,,,,,,,,,,,,,,3,,,left,0.6987837080378085,,,,,,,,,,,,,,1021,2019_May_29_1257,mf_amp_cond1,3.0.7,59.98316654231645,
clean,,&&&&&,images/symbols/symbol_54.png,condition_files/AMP_rep2.csv,left,sanctity.virtue,,,,,,,,,,,,,,,,,,,,,0,0,0,1,0,60,60,60,,,,,,,,,,,,,4050.028699911665,,,,,AMP_prac,left,0.8984149363823235,,,,,,,,,,,,,,,,,,,,,3,,,left,1.0650424208724871,,,,,,,,,,,,,,1021,2019_May_29_1257,mf_amp_cond1,3.0.7,59.98316654231645,
suicide,,&&&&&&&,images/symbols/symbol_22.png,condition_files/AMP_rep2.csv,right,care.vice,,,,,,,,,,,,,,,,,,,,,0,0,0,1,0,61,61,61,,,,,,,,,,,,,4051.1289991817903,,,,,AMP_prac,left,0.8984149363823235,,,,,,,,,,,,,,,,,,,,,3,,,left,0.8820633249124512,,,,,,,,,,,,,,1021,2019_May_29_1257,mf_amp_cond1,3.0.7,59.98316654231645,
rebels,,&&&&&&,images/symbols/symbol_68.png,condition_files/AMP_rep2.csv,right,authority.vice,,,,,,,,,,,,,,,,,,,,,0,0,0,1,0,62,62,62,,,,,,,,,,,,,4052.029236487462,,,,,AMP_prac,left,0.8984149363823235,,,,,,,,,,,,,,,,,,,,,3,,,left,0.6671064900001511,,,,,,,,,,,,,,1021,2019_May_29_1257,mf_amp_cond1,3.0.7,59.98316654231645,
fear,,&&&&,images/symbols/symbol_18.png,condition_files/AMP_rep2.csv,right,sanctity.vice,,,,,,,,,,,,,,,,,,,,,0,0,0,1,0,63,63,63,,,,,,,,,,,,,4053.0128354841145,,,,,AMP_prac,left,0.8984149363823235,,,,,,,,,,,,,,,,,,,,,3,,,right,0.7504543896066025,,,,,,,,,,,,,,1021,2019_May_29_1257,mf_amp_cond1,3.0.7,59.98316654231645,
gun,,&&&,images/symbols/symbol_21.png,condition_files/AMP_rep2.csv,right,authority.vice,,,,,,,,,,,,,,,,,,,,,0,0,0,1,0,64,64,64,,,,,,,,,,,,,4054.1964791258797,,,,,AMP_prac,left,0.8984149363823235,,,,,,,,,,,,,,,,,,,,,3,,,left,0.9652925557456911,,,,,,,,,,,,,,1021,2019_May_29_1257,mf_amp_cond1,3.0.7,59.98316654231645,
preighs,,&&&&&&&,images/symbols/symbol_77.png,condition_files/AMP_rep2.csv,None,nonword,,,,,,,,,,,,,,,,,,,,,0,0,0,1,0,65,65,65,,,,,,,,,,,,,4055.0133688526694,,,,,AMP_prac,left,0.8984149363823235,,,,,,,,,,,,,,,,,,,,,3,,,left,0.5984635907225311,,,,,,,,,,,,,,1021,2019_May_29_1257,mf_amp_cond1,3.0.7,59.98316654231645,
pleasant,,&&&&&&&,images/symbols/symbol_79.png,condition_files/AMP_rep2.csv,right,control,,,,,,,,,,,,,,,,,,,,,0,0,0,1,0,66,66,66,,,,,,,,,,,,,4055.797019742895,,,,,AMP_prac,left,0.8984149363823235,,,,,,,,,,,,,,,,,,,,,3,,,left,0.5651628538034856,,,,,,,,,,,,,,1021,2019_May_29_1257,mf_amp_cond1,3.0.7,59.98316654231645,
benefit,,&&&&&&&,images/symbols/symbol_43.png,condition_files/AMP_rep2.csv,left,fairness.virtue,,,,,,,,,,,,,,,,,,,,,0,0,0,1,0,67,67,67,,,,,,,,,,,,,4056.630478213192,,,,,AMP_prac,left,0.8984149363823235,,,,,,,,,,,,,,,,,,,,,3,,,left,0.6153129700105637,,,,,,,,,,,,,,1021,2019_May_29_1257,mf_amp_cond1,3.0.7,59.98316654231645,
corruption,,&&&&&&&&&&,images/symbols/symbol_76.png,condition_files/AMP_rep2.csv,right,sanctity.vice,,,,,,,,,,,,,,,,,,,,,0,0,0,1,0,68,68,68,,,,,,,,,,,,,4057.5973962119315,,,,,AMP_prac,left,0.8984149363823235,,,,,,,,,,,,,,,,,,,,,3,,,left,0.7489373522112146,,,,,,,,,,,,,,1021,2019_May_29_1257,mf_amp_cond1,3.0.7,59.98316654231645,
honored,,&&&&&&&,images/symbols/symbol_67.png,condition_files/AMP_rep2.csv,left,authority.virtue,,,,,,,,,,,,,,,,,,,,,0,0,0,1,0,69,69,69,,,,,,,,,,,,,4058.431001895806,,,,,AMP_prac,left,0.8984149363823235,,,,,,,,,,,,,,,,,,,,,3,,,left,0.6004617182770744,,,,,,,,,,,,,,1021,2019_May_29_1257,mf_amp_cond1,3.0.7,59.98316654231645,
celebrated,,&&&&&&&&&&,images/symbols/symbol_3.png,condition_files/AMP_rep2.csv,left,authority.virtue,,,,,,,,,,,,,,,,,,,,,0,0,0,1,0,70,70,70,,,,,,,,,,,,,4059.3812129179714,,,,,AMP_prac,left,0.8984149363823235,,,,,,,,,,,,,,,,,,,,,3,,,left,0.7317755849799141,,,,,,,,,,,,,,1021,2019_May_29_1257,mf_amp_cond1,3.0.7,59.98316654231645,
civilians,,&&&&&&&&&,images/symbols/symbol_23.png,condition_files/AMP_rep2.csv,right,care.vice,,,,,,,,,,,,,,,,,,,,,0,0,0,1,0,71,71,71,,,,,,,,,,,,,4060.314794258564,,,,,AMP_prac,left,0.8984149363823235,,,,,,,,,,,,,,,,,,,,,3,,,left,0.7153688084799796,,,,,,,,,,,,,,1021,2019_May_29_1257,mf_amp_cond1,3.0.7,59.98316654231645,
support,,&&&&&&&,images/symbols/symbol_27.png,condition_files/AMP_rep2.csv,left,loyalty.virtue,,,,,,,,,,,,,,,,,,,,,0,0,0,1,0,72,72,72,,,,,,,,,,,,,4061.2483906733105,,,,,AMP_prac,left,0.8984149363823235,,,,,,,,,,,,,,,,,,,,,3,,,left,0.7155102490214631,,,,,,,,,,,,,,1021,2019_May_29_1257,mf_amp_cond1,3.0.7,59.98316654231645,
trust,,&&&&&,images/symbols/symbol_62.png,condition_files/AMP_rep2.csv,left,authority.virtue,,,,,,,,,,,,,,,,,,,,,0,0,0,1,0,73,73,73,,,,,,,,,,,,,4062.1653137877584,,,,,AMP_prac,left,0.8984149363823235,,,,,,,,,,,,,,,,,,,,,3,,,left,0.6837935815565288,,,,,,,,,,,,,,1021,2019_May_29_1257,mf_amp_cond1,3.0.7,59.98316654231645,
dignity,,&&&&&&&,images/symbols/symbol_49.png,condition_files/AMP_rep2.csv,left,sanctity.virtue,,,,,,,,,,,,,,,,,,,,,0,0,0,1,0,74,74,74,,,,,,,,,,,,,4062.9821784978267,,,,,AMP_prac,left,0.8984149363823235,,,,,,,,,,,,,,,,,,,,,3,,,left,0.5837486477103084,,,,,,,,,,,,,,1021,2019_May_29_1257,mf_amp_cond1,3.0.7,59.98316654231645,
army,,&&&&,images/symbols/symbol_75.png,condition_files/AMP_rep2.csv,right,loyalty.vice,,,,,,,,,,,,,,,,,,,,,0,0,0,1,0,75,75,75,,,,,,,,,,,,,4063.9823250699556,,,,,AMP_prac,left,0.8984149363823235,,,,,,,,,,,,,,,,,,,,,3,,,left,0.7670054930495098,,,,,,,,,,,,,,1021,2019_May_29_1257,mf_amp_cond1,3.0.7,59.98316654231645,
values,,&&&&&&,images/symbols/symbol_41.png,condition_files/AMP_rep2.csv,left,sanctity.virtue,,,,,,,,,,,,,,,,,,,,,0,0,0,1,0,76,76,76,,,,,,,,,,,,,4064.84935304604,,,,,AMP_prac,left,0.8984149363823235,,,,,,,,,,,,,,,,,,,,,3,,,left,0.6488131987862289,,,,,,,,,,,,,,1021,2019_May_29_1257,mf_amp_cond1,3.0.7,59.98316654231645,
integrity,,&&&&&&&&&,images/symbols/symbol_66.png,condition_files/AMP_rep2.csv,left,fairness.virtue,,,,,,,,,,,,,,,,,,,,,0,0,0,1,0,77,77,77,,,,,,,,,,,,,4065.7829282928724,,,,,AMP_prac,left,0.8984149363823235,,,,,,,,,,,,,,,,,,,,,3,,,left,0.7155394351575524,,,,,,,,,,,,,,1021,2019_May_29_1257,mf_amp_cond1,3.0.7,59.98316654231645,
attacks,,&&&&&&&,images/symbols/symbol_73.png,condition_files/AMP_rep2.csv,right,care.vice,,,,,,,,,,,,,,,,,,,,,0,0,0,1,0,78,78,78,,,,,,,,,,,,,4066.8332079825923,,,,,AMP_prac,left,0.8984149363823235,,,,,,,,,,,,,,,,,,,,,3,,,left,0.8320148790953681,,,,,,,,,,,,,,1021,2019_May_29_1257,mf_amp_cond1,3.0.7,59.98316654231645,
friends,,&&&&&&&,images/symbols/symbol_15.png,condition_files/AMP_rep2.csv,left,loyalty.virtue,,,,,,,,,,,,,,,,,,,,,0,0,0,1,0,79,79,79,,,,,,,,,,,,,4067.6501044445904,,,,,AMP_prac,left,0.8984149363823235,,,,,,,,,,,,,,,,,,,,,3,,,left,0.5983381863916293,,,,,,,,,,,,,,1021,2019_May_29_1257,mf_amp_cond1,3.0.7,59.98316654231645,
killed,,&&&&&&,images/symbols/symbol_13.png,condition_files/AMP_rep2.csv,right,care.vice,,,,,,,,,,,,,,,,,,,,,0,0,0,1,0,80,80,80,,,,,,,,,,,,,4068.533675505896,,,,,AMP_prac,left,0.8984149363823235,,,,,,,,,,,,,,,,,,,,,3,,,right,0.6650887980358675,,,,,,,,,,,,,,1021,2019_May_29_1257,mf_amp_cond1,3.0.7,59.98316654231645,
improve,,&&&&&&&,images/symbols/symbol_74.png,condition_files/AMP_rep2.csv,left,care.virtue,,,,,,,,,,,,,,,,,,,,,0,0,0,1,0,81,81,81,,,,,,,,,,,,,4069.4672594123986,,,,,AMP_prac,left,0.8984149363823235,,,,,,,,,,,,,,,,,,,,,3,,,left,0.7004559771157801,,,,,,,,,,,,,,1021,2019_May_29_1257,mf_amp_cond1,3.0.7,59.98316654231645,
,,,,condition_files/AMP_rep2.csv,,,,,,,,,,,,,,,,,,,,,,,0,0,0,1,,,,,,,,,,,,,,,,,,,,,,,,,,,,,,,,,,,,,,,,,,,,,,,,,,right,7.85236819810234,,,,,,,,,,,,1021,2019_May_29_1257,mf_amp_cond1,3.0.7,59.98316654231645,
accused,,&&&&&&&,images/symbols/symbol_16.png,condition_files/AMP_rep1.csv,right,fairness.vice,,,,,,,,,,,,,,,,,,,,,0,1,1,0,0,0,0,0,,,,,,,,,,,,,4078.5198457689257,,,,,AMP_prac,left,0.8984149363823235,,,,,,,,,,,,,,,,,,,,,3,,,right,0.9505131467012689,,,,,,,,,,,,,,1021,2019_May_29_1257,mf_amp_cond1,3.0.7,59.98316654231645,
powerful,,&&&&&&&&,images/symbols/symbol_9.png,condition_files/AMP_rep1.csv,left,authority.virtue,,,,,,,,,,,,,,,,,,,,,0,1,1,0,0,1,1,1,,,,,,,,,,,,,4079.269927794696,,,,,AMP_prac,left,0.8984149363823235,,,,,,,,,,,,,,,,,,,,,3,,,left,0.5316004040651023,,,,,,,,,,,,,,1021,2019_May_29_1257,mf_amp_cond1,3.0.7,59.98316654231645,
violations,,&&&&&&&&&&,images/symbols/symbol_38.png,condition_files/AMP_rep1.csv,right,sanctity.vice,,,,,,,,,,,,,,,,,,,,,0,1,1,0,0,2,2,2,,,,,,,,,,,,,4080.2702119586756,,,,,AMP_prac,left,0.8984149363823235,,,,,,,,,,,,,,,,,,,,,3,,,left,0.7821938287233934,,,,,,,,,,,,,,1021,2019_May_29_1257,mf_amp_cond1,3.0.7,59.98316654231645,
freedom,,&&&&&&&,images/symbols/symbol_34.png,condition_files/AMP_rep1.csv,left,sanctity.virtue,,,,,,,,,,,,,,,,,,,,,0,1,1,0,0,3,3,3,,,,,,,,,,,,,4081.220421697828,,,,,AMP_prac,left,0.8984149363823235,,,,,,,,,,,,,,,,,,,,,3,,,left,0.7320193372434005,,,,,,,,,,,,,,1021,2019_May_29_1257,mf_amp_cond1,3.0.7,59.98316654231645,
unpleasant,,&&&&&&&&&,images/symbols/symbol_72.png,condition_files/AMP_rep1.csv,left,control,,,,,,,,,,,,,,,,,,,,,0,1,1,0,0,4,4,4,,,,,,,,,,,,,4082.153998869122,,,,,AMP_prac,left,0.8984149363823235,,,,,,,,,,,,,,,,,,,,,3,,,right,0.700443789595738,,,,,,,,,,,,,,1021,2019_May_29_1257,mf_amp_cond1,3.0.7,59.98316654231645,
good,,&&&&,images/symbols/symbol_29.png,condition_files/AMP_rep1.csv,left,care.virtue,,,,,,,,,,,,,,,,,,,,,0,1,1,0,0,5,5,5,,,,,,,,,,,,,4082.9542268416844,,,,,AMP_prac,left,0.8984149363823235,,,,,,,,,,,,,,,,,,,,,3,,,left,0.5810317714931443,,,,,,,,,,,,,,1021,2019_May_29_1257,mf_amp_cond1,3.0.7,59.98316654231645,
interests,,&&&&&&&&&,images/symbols/symbol_42.png,condition_files/AMP_rep1.csv,left,fairness.virtue,,,,,,,,,,,,,,,,,,,,,0,1,1,0,0,6,6,6,,,,,,,,,,,,,4083.754431721871,,,,,AMP_prac,left,0.8984149363823235,,,,,,,,,,,,,,,,,,,,,3,,,left,0.5820093465736136,,,,,,,,,,,,,,1021,2019_May_29_1257,mf_amp_cond1,3.0.7,59.98316654231645,
black,,&&&&&,images/symbols/symbol_37.png,condition_files/AMP_rep1.csv,right,loyalty.vice,,,,,,,,,,,,,,,,,,,,,0,1,1,0,0,7,7,7,,,,,,,,,,,,,4084.621366687119,,,,,AMP_prac,left,0.8984149363823235,,,,,,,,,,,,,,,,,,,,,3,,,left,0.6338031874038279,,,,,,,,,,,,,,1021,2019_May_29_1257,mf_amp_cond1,3.0.7,59.98316654231645,
rhuissed,,&&&&&&&&,images/symbols/symbol_28.png,condition_files/AMP_rep1.csv,None,nonword,,,,,,,,,,,,,,,,,,,,,0,1,1,0,0,8,8,8,,,,,,,,,,,,,4085.6716191151645,,,,,AMP_prac,left,0.8984149363823235,,,,,,,,,,,,,,,,,,,,,3,,,left,0.8318407245678827,,,,,,,,,,,,,,1021,2019_May_29_1257,mf_amp_cond1,3.0.7,59.98316654231645,
health,,&&&&&&,images/symbols/symbol_78.png,condition_files/AMP_rep1.csv,left,care.virtue,,,,,,,,,,,,,,,,,,,,,0,1,1,0,0,9,9,9,,,,,,,,,,,,,4086.4551609582268,,,,,AMP_prac,left,0.8984149363823235,,,,,,,,,,,,,,,,,,,,,3,,,left,0.5654056438943371,,,,,,,,,,,,,,1021,2019_May_29_1257,mf_amp_cond1,3.0.7,59.98316654231645,
increase,,&&&&&&&&,images/symbols/symbol_6.png,condition_files/AMP_rep1.csv,left,care.virtue,,,,,,,,,,,,,,,,,,,,,0,1,1,0,0,10,10,10,,,,,,,,,,,,,4087.3053854189347,,,,,AMP_prac,left,0.8984149363823235,,,,,,,,,,,,,,,,,,,,,3,,,right,0.6318974290043116,,,,,,,,,,,,,,1021,2019_May_29_1257,mf_amp_cond1,3.0.7,59.98316654231645,
peace,,&&&&&,images/symbols/symbol_40.png,condition_files/AMP_rep1.csv,left,care.virtue,,,,,,,,,,,,,,,,,,,,,0,1,1,0,0,11,11,11,,,,,,,,,,,,,4088.0722735259915,,,,,AMP_prac,left,0.8984149363823235,,,,,,,,,,,,,,,,,,,,,3,,,left,0.5485646035522223,,,,,,,,,,,,,,1021,2019_May_29_1257,mf_amp_cond1,3.0.7,59.98316654231645,
spreussed,,&&&&&&&&&,images/symbols/symbol_2.png,condition_files/AMP_rep1.csv,None,nonword,,,,,,,,,,,,,,,,,,,,,0,1,1,0,0,12,12,12,,,,,,,,,,,,,4089.0392396338284,,,,,AMP_prac,left,0.8984149363823235,,,,,,,,,,,,,,,,,,,,,3,,,left,0.7490444749128073,,,,,,,,,,,,,,1021,2019_May_29_1257,mf_amp_cond1,3.0.7,59.98316654231645,
peaceful,,&&&&&&&&,images/symbols/symbol_51.png,condition_files/AMP_rep1.csv,left,authority.virtue,,,,,,,,,,,,,,,,,,,,,0,1,1,0,0,13,13,13,,,,,,,,,,,,,4089.9227571338415,,,,,AMP_prac,left,0.8984149363823235,,,,,,,,,,,,,,,,,,,,,3,,,left,0.6504174739820883,,,,,,,,,,,,,,1021,2019_May_29_1257,mf_amp_cond1,3.0.7,59.98316654231645,
prinse,,&&&&&&,images/symbols/symbol_35.png,condition_files/AMP_rep1.csv,None,nonword,,,,,,,,,,,,,,,,,,,,,0,1,1,0,0,14,14,14,,,,,,,,,,,,,4090.773039325257,,,,,AMP_prac,left,0.8984149363823235,,,,,,,,,,,,,,,,,,,,,3,,,left,0.631753422669135,,,,,,,,,,,,,,1021,2019_May_29_1257,mf_amp_cond1,3.0.7,59.98316654231645,
energy,,&&&&&&,images/symbols/symbol_4.png,condition_files/AMP_rep1.csv,left,sanctity.virtue,,,,,,,,,,,,,,,,,,,,,0,1,1,0,0,15,15,15,,,,,,,,,,,,,4091.556552302907,,,,,AMP_prac,left,0.8984149363823235,,,,,,,,,,,,,,,,,,,,,3,,,left,0.5653889661189169,,,,,,,,,,,,,,1021,2019_May_29_1257,mf_amp_cond1,3.0.7,59.98316654231645,
loyalty,,&&&&&&&,images/symbols/symbol_14.png,condition_files/AMP_rep1.csv,left,loyalty.virtue,,,,,,,,,,,,,,,,,,,,,0,1,1,0,0,16,16,16,,,,,,,,,,,,,4092.6234761069063,,,,,AMP_prac,left,0.8984149363823235,,,,,,,,,,,,,,,,,,,,,3,,,right,0.8483485298929736,,,,,,,,,,,,,,1021,2019_May_29_1257,mf_amp_cond1,3.0.7,59.98316654231645,
threatened,,&&&&&&&&&&,images/symbols/symbol_70.png,condition_files/AMP_rep1.csv,right,fairness.vice,,,,,,,,,,,,,,,,,,,,,0,1,1,0,0,17,17,17,,,,,,,,,,,,,4093.490391187137,,,,,AMP_prac,left,0.8984149363823235,,,,,,,,,,,,,,,,,,,,,3,,,right,0.6488661187468097,,,,,,,,,,,,,,1021,2019_May_29_1257,mf_amp_cond1,3.0.7,59.98316654231645,
wence,,&&&&&,images/symbols/symbol_69.png,condition_files/AMP_rep1.csv,None,nonword,,,,,,,,,,,,,,,,,,,,,0,1,1,0,0,18,18,18,,,,,,,,,,,,,4094.3573466789676,,,,,AMP_prac,left,0.8984149363823235,,,,,,,,,,,,,,,,,,,,,3,,,left,0.6488985121250153,,,,,,,,,,,,,,1021,2019_May_29_1257,mf_amp_cond1,3.0.7,59.98316654231645,
fair,,&&&&,images/symbols/symbol_10.png,condition_files/AMP_rep1.csv,left,fairness.virtue,,,,,,,,,,,,,,,,,,,,,0,1,1,0,0,19,19,19,,,,,,,,,,,,,4095.357616410125,,,,,AMP_prac,left,0.8984149363823235,,,,,,,,,,,,,,,,,,,,,3,,,left,0.7824157715076581,,,,,,,,,,,,,,1021,2019_May_29_1257,mf_amp_cond1,3.0.7,59.98316654231645,
police,,&&&&&&,images/symbols/symbol_44.png,condition_files/AMP_rep1.csv,right,authority.vice,,,,,,,,,,,,,,,,,,,,,0,1,1,0,0,20,20,20,,,,,,,,,,,,,4096.507859248319,,,,,AMP_prac,left,0.8984149363823235,,,,,,,,,,,,,,,,,,,,,3,,,left,0.9321707844501361,,,,,,,,,,,,,,1021,2019_May_29_1257,mf_amp_cond1,3.0.7,59.98316654231645,
love,,&&&&,images/symbols/symbol_46.png,condition_files/AMP_rep1.csv,left,loyalty.virtue,,,,,,,,,,,,,,,,,,,,,0,1,1,0,0,21,21,21,,,,,,,,,,,,,4097.408100723522,,,,,AMP_prac,left,0.8984149363823235,,,,,,,,,,,,,,,,,,,,,3,,,left,0.6821097661741078,,,,,,,,,,,,,,1021,2019_May_29_1257,mf_amp_cond1,3.0.7,59.98316654231645,
prosecution,,&&&&&&&&&&&,images/symbols/symbol_25.png,condition_files/AMP_rep1.csv,right,authority.vice,,,,,,,,,,,,,,,,,,,,,0,1,1,0,0,22,22,22,,,,,,,,,,,,,4098.358397059026,,,,,AMP_prac,left,0.8984149363823235,,,,,,,,,,,,,,,,,,,,,3,,,left,0.7321145931491628,,,,,,,,,,,,,,1021,2019_May_29_1257,mf_amp_cond1,3.0.7,59.98316654231645,
party,,&&&&&,images/symbols/symbol_17.png,condition_files/AMP_rep1.csv,left,loyalty.virtue,,,,,,,,,,,,,,,,,,,,,0,1,1,0,0,23,23,23,,,,,,,,,,,,,4099.10861539375,,,,,AMP_prac,left,0.8984149363823235,,,,,,,,,,,,,,,,,,,,,3,,,left,0.5321405078284442,,,,,,,,,,,,,,1021,2019_May_29_1257,mf_amp_cond1,3.0.7,59.98316654231645,
strong,,&&&&&&,images/symbols/symbol_11.png,condition_files/AMP_rep1.csv,left,loyalty.virtue,,,,,,,,,,,,,,,,,,,,,0,1,1,0,0,24,24,24,,,,,,,,,,,,,4099.825455055106,,,,,AMP_prac,left,0.8984149363823235,,,,,,,,,,,,,,,,,,,,,3,,,left,0.49851423338986933,,,,,,,,,,,,,,1021,2019_May_29_1257,mf_amp_cond1,3.0.7,59.98316654231645,
wraize,,&&&&&&,images/symbols/symbol_19.png,condition_files/AMP_rep1.csv,None,nonword,,,,,,,,,,,,,,,,,,,,,0,1,1,0,0,25,25,25,,,,,,,,,,,,,4100.558958074194,,,,,AMP_prac,left,0.8984149363823235,,,,,,,,,,,,,,,,,,,,,3,,,left,0.5154463602229953,,,,,,,,,,,,,,1021,2019_May_29_1257,mf_amp_cond1,3.0.7,59.98316654231645,
praise,,&&&&&&,images/symbols/symbol_20.png,condition_files/AMP_rep1.csv,left,authority.virtue,,,,,,,,,,,,,,,,,,,,,0,1,1,0,0,26,26,26,,,,,,,,,,,,,4101.359181877342,,,,,AMP_prac,left,0.8984149363823235,,,,,,,,,,,,,,,,,,,,,3,,,right,0.582728415960446,,,,,,,,,,,,,,1021,2019_May_29_1257,mf_amp_cond1,3.0.7,59.98316654231645,
hate,,&&&&,images/symbols/symbol_71.png,condition_files/AMP_rep1.csv,right,fairness.vice,,,,,,,,,,,,,,,,,,,,,0,1,1,0,0,27,27,27,,,,,,,,,,,,,4102.076034688507,,,,,AMP_prac,left,0.8984149363823235,,,,,,,,,,,,,,,,,,,,,3,,,left,0.48373193794395775,,,,,,,,,,,,,,1021,2019_May_29_1257,mf_amp_cond1,3.0.7,59.98316654231645,
betrayal,,&&&&&&&&,images/symbols/symbol_52.png,condition_files/AMP_rep1.csv,right,loyalty.vice,,,,,,,,,,,,,,,,,,,,,0,1,1,0,0,28,28,28,,,,,,,,,,,,,4102.742886200664,,,,,AMP_prac,left,0.8984149363823235,,,,,,,,,,,,,,,,,,,,,3,,,left,0.44875925255473703,,,,,,,,,,,,,,1021,2019_May_29_1257,mf_amp_cond1,3.0.7,59.98316654231645,
faith,,&&&&&,images/symbols/symbol_32.png,condition_files/AMP_rep1.csv,left,sanctity.virtue,,,,,,,,,,,,,,,,,,,,,0,1,1,0,0,29,29,29,,,,,,,,,,,,,4103.476411670679,,,,,AMP_prac,left,0.8984149363823235,,,,,,,,,,,,,,,,,,,,,3,,,left,0.5155085811857134,,,,,,,,,,,,,,1021,2019_May_29_1257,mf_amp_cond1,3.0.7,59.98316654231645,
protesters,,&&&&&&&&&&,images/symbols/symbol_58.png,condition_files/AMP_rep1.csv,right,authority.vice,,,,,,,,,,,,,,,,,,,,,0,1,1,0,0,30,30,30,,,,,,,,,,,,,4104.443329669535,,,,,AMP_prac,left,0.8984149363823235,,,,,,,,,,,,,,,,,,,,,3,,,left,0.7489158634562045,,,,,,,,,,,,,,1021,2019_May_29_1257,mf_amp_cond1,3.0.7,59.98316654231645,
injured,,&&&&&&&,images/symbols/symbol_30.png,condition_files/AMP_rep1.csv,right,care.vice,,,,,,,,,,,,,,,,,,,,,0,1,1,0,0,31,31,31,,,,,,,,,,,,,4105.510284263291,,,,,AMP_prac,left,0.8984149363823235,,,,,,,,,,,,,,,,,,,,,3,,,left,0.8490339230047539,,,,,,,,,,,,,,1021,2019_May_29_1257,mf_amp_cond1,3.0.7,59.98316654231645,
died,,&&&&,images/symbols/symbol_63.png,condition_files/AMP_rep1.csv,right,care.vice,,,,,,,,,,,,,,,,,,,,,0,1,1,0,0,32,32,32,,,,,,,,,,,,,4106.32716372679,,,,,AMP_prac,left,0.8984149363823235,,,,,,,,,,,,,,,,,,,,,3,,,right,0.5989578305743635,,,,,,,,,,,,,,1021,2019_May_29_1257,mf_amp_cond1,3.0.7,59.98316654231645,
drug,,&&&&,images/symbols/symbol_45.png,condition_files/AMP_rep1.csv,right,sanctity.vice,,,,,,,,,,,,,,,,,,,,,0,1,1,0,0,33,33,33,,,,,,,,,,,,,4107.010679879691,,,,,AMP_prac,left,0.8984149363823235,,,,,,,,,,,,,,,,,,,,,3,,,left,0.4653754635946825,,,,,,,,,,,,,,1021,2019_May_29_1257,mf_amp_cond1,3.0.7,59.98316654231645,
praised,,&&&&&&&,images/symbols/symbol_60.png,condition_files/AMP_rep1.csv,left,loyalty.virtue,,,,,,,,,,,,,,,,,,,,,0,1,1,0,0,34,34,34,,,,,,,,,,,,,4107.827561908984,,,,,AMP_prac,left,0.8984149363823235,,,,,,,,,,,,,,,,,,,,,3,,,left,0.5987766199978068,,,,,,,,,,,,,,1021,2019_May_29_1257,mf_amp_cond1,3.0.7,59.98316654231645,
prison,,&&&&&&,images/symbols/symbol_47.png,condition_files/AMP_rep1.csv,right,fairness.vice,,,,,,,,,,,,,,,,,,,,,0,1,1,0,0,35,35,35,,,,,,,,,,,,,4109.077909977757,,,,,AMP_prac,left,0.8984149363823235,,,,,,,,,,,,,,,,,,,,,3,,,left,1.0322660723468289,,,,,,,,,,,,,,1021,2019_May_29_1257,mf_amp_cond1,3.0.7,59.98316654231645,
help,,&&&&,images/symbols/symbol_48.png,condition_files/AMP_rep1.csv,left,care.virtue,,,,,,,,,,,,,,,,,,,,,0,1,1,0,0,36,36,36,,,,,,,,,,,,,4109.928175170673,,,,,AMP_prac,left,0.8984149363823235,,,,,,,,,,,,,,,,,,,,,3,,,left,0.6321071843849495,,,,,,,,,,,,,,1021,2019_May_29_1257,mf_amp_cond1,3.0.7,59.98316654231645,
embrace,,&&&&&&&,images/symbols/symbol_31.png,condition_files/AMP_rep1.csv,left,authority.virtue,,,,,,,,,,,,,,,,,,,,,0,1,1,0,0,37,37,37,,,,,,,,,,,,,4110.828416966484,,,,,AMP_prac,left,0.8984149363823235,,,,,,,,,,,,,,,,,,,,,3,,,left,0.6671411283314228,,,,,,,,,,,,,,1021,2019_May_29_1257,mf_amp_cond1,3.0.7,59.98316654231645,
penalty,,&&&&&&&,images/symbols/symbol_50.png,condition_files/AMP_rep1.csv,right,authority.vice,,,,,,,,,,,,,,,,,,,,,0,1,1,0,0,38,38,38,,,,,,,,,,,,,4111.561922872206,,,,,AMP_prac,left,0.8984149363823235,,,,,,,,,,,,,,,,,,,,,3,,,left,0.5150823353324085,,,,,,,,,,,,,,1021,2019_May_29_1257,mf_amp_cond1,3.0.7,59.98316654231645,
conspiracy,,&&&&&&&&&&,images/symbols/symbol_36.png,condition_files/AMP_rep1.csv,right,sanctity.vice,,,,,,,,,,,,,,,,,,,,,0,1,1,0,0,39,39,39,,,,,,,,,,,,,4112.478855929221,,,,,AMP_prac,left,0.8984149363823235,,,,,,,,,,,,,,,,,,,,,3,,,left,0.6990595329552889,,,,,,,,,,,,,,1021,2019_May_29_1257,mf_amp_cond1,3.0.7,59.98316654231645,
agreement,,&&&&&&&&&,images/symbols/symbol_1.png,condition_files/AMP_rep1.csv,left,fairness.virtue,,,,,,,,,,,,,,,,,,,,,0,1,1,0,0,40,40,40,,,,,,,,,,,,,4113.295702678617,,,,,AMP_prac,left,0.8984149363823235,,,,,,,,,,,,,,,,,,,,,3,,,left,0.5983660897472873,,,,,,,,,,,,,,1021,2019_May_29_1257,mf_amp_cond1,3.0.7,59.98316654231645,
koozz,,&&&&&,images/symbols/symbol_24.png,condition_files/AMP_rep1.csv,None,nonword,,,,,,,,,,,,,,,,,,,,,0,1,1,0,0,41,41,41,,,,,,,,,,,,,4114.029302236508,,,,,AMP_prac,left,0.8984149363823235,,,,,,,,,,,,,,,,,,,,,3,,,left,0.5153341058176011,,,,,,,,,,,,,,1021,2019_May_29_1257,mf_amp_cond1,3.0.7,59.98316654231645,
lies,,&&&&,images/symbols/symbol_8.png,condition_files/AMP_rep1.csv,right,fairness.vice,,,,,,,,,,,,,,,,,,,,,0,1,1,0,0,42,42,42,,,,,,,,,,,,,4114.729432355263,,,,,AMP_prac,left,0.8984149363823235,,,,,,,,,,,,,,,,,,,,,3,,,left,0.48226076434366405,,,,,,,,,,,,,,1021,2019_May_29_1257,mf_amp_cond1,3.0.7,59.98316654231645,
critics,,&&&&&&&,images/symbols/symbol_7.png,condition_files/AMP_rep1.csv,right,loyalty.vice,,,,,,,,,,,,,,,,,,,,,0,1,1,0,0,43,43,43,,,,,,,,,,,,,4115.529641084257,,,,,AMP_prac,left,0.8984149363823235,,,,,,,,,,,,,,,,,,,,,3,,,left,0.5823890870669857,,,,,,,,,,,,,,1021,2019_May_29_1257,mf_amp_cond1,3.0.7,59.98316654231645,
crime,,&&&&&,images/symbols/symbol_55.png,condition_files/AMP_rep1.csv,right,fairness.vice,,,,,,,,,,,,,,,,,,,,,0,1,1,0,0,44,44,44,,,,,,,,,,,,,4116.279844665551,,,,,AMP_prac,left,0.8984149363823235,,,,,,,,,,,,,,,,,,,,,3,,,left,0.5170730862300843,,,,,,,,,,,,,,1021,2019_May_29_1257,mf_amp_cond1,3.0.7,59.98316654231645,
win,,&&&,images/symbols/symbol_5.png,condition_files/AMP_rep1.csv,left,fairness.virtue,,,,,,,,,,,,,,,,,,,,,0,1,1,0,0,45,45,45,,,,,,,,,,,,,4117.046713529038,,,,,AMP_prac,left,0.8984149363823235,,,,,,,,,,,,,,,,,,,,,3,,,left,0.5482467632973567,,,,,,,,,,,,,,1021,2019_May_29_1257,mf_amp_cond1,3.0.7,59.98316654231645,
stailde,,&&&&&&&,images/symbols/symbol_57.png,condition_files/AMP_rep1.csv,None,nonword,,,,,,,,,,,,,,,,,,,,,0,1,1,0,0,46,46,46,,,,,,,,,,,,,4117.813586562057,,,,,AMP_prac,left,0.8984149363823235,,,,,,,,,,,,,,,,,,,,,3,,,left,0.5488352968823165,,,,,,,,,,,,,,1021,2019_May_29_1257,mf_amp_cond1,3.0.7,59.98316654231645,
terrorist,,&&&&&&&&&,images/symbols/symbol_81.png,condition_files/AMP_rep1.csv,right,loyalty.vice,,,,,,,,,,,,,,,,,,,,,0,1,1,0,0,47,47,47,,,,,,,,,,,,,4118.630476930179,,,,,AMP_prac,left,0.8984149363823235,,,,,,,,,,,,,,,,,,,,,3,,,left,0.598863536841236,,,,,,,,,,,,,,1021,2019_May_29_1257,mf_amp_cond1,3.0.7,59.98316654231645,
refused,,&&&&&&&,images/symbols/symbol_53.png,condition_files/AMP_rep1.csv,right,authority.vice,,,,,,,,,,,,,,,,,,,,,0,1,1,0,0,48,48,48,,,,,,,,,,,,,4119.880807359004,,,,,AMP_prac,left,0.8984149363823235,,,,,,,,,,,,,,,,,,,,,3,,,left,1.0322724869474769,,,,,,,,,,,,,,1021,2019_May_29_1257,mf_amp_cond1,3.0.7,59.98316654231645,
failure,,&&&&&&&,images/symbols/symbol_56.png,condition_files/AMP_rep1.csv,right,loyalty.vice,,,,,,,,,,,,,,,,,,,,,0,1,1,0,0,49,49,49,,,,,,,,,,,,,4120.747703836998,,,,,AMP_prac,left,0.8984149363823235,,,,,,,,,,,,,,,,,,,,,3,,,right,0.6337550783064216,,,,,,,,,,,,,,1021,2019_May_29_1257,mf_amp_cond1,3.0.7,59.98316654231645,
men,,&&&,images/symbols/symbol_65.png,condition_files/AMP_rep1.csv,right,loyalty.vice,,,,,,,,,,,,,,,,,,,,,0,1,1,0,0,50,50,50,,,,,,,,,,,,,4121.614607050316,,,,,AMP_prac,left,0.8984149363823235,,,,,,,,,,,,,,,,,,,,,3,,,left,0.6482483990257606,,,,,,,,,,,,,,1021,2019_May_29_1257,mf_amp_cond1,3.0.7,59.98316654231645,
yakks,,&&&&&,images/symbols/symbol_39.png,condition_files/AMP_rep1.csv,None,nonword,,,,,,,,,,,,,,,,,,,,,0,1,1,0,0,51,51,51,,,,,,,,,,,,,4122.5648623327725,,,,,AMP_prac,left,0.8984149363823235,,,,,,,,,,,,,,,,,,,,,3,,,left,0.7171244666678831,,,,,,,,,,,,,,1021,2019_May_29_1257,mf_amp_cond1,3.0.7,59.98316654231645,
scandal,,&&&&&&&,images/symbols/symbol_61.png,condition_files/AMP_rep1.csv,right,sanctity.vice,,,,,,,,,,,,,,,,,,,,,0,1,1,0,0,52,52,52,,,,,,,,,,,,,4123.731946211541,,,,,AMP_prac,left,0.8984149363823235,,,,,,,,,,,,,,,,,,,,,3,,,left,0.9484130280325189,,,,,,,,,,,,,,1021,2019_May_29_1257,mf_amp_cond1,3.0.7,59.98316654231645,
victim,,&&&&&&,images/symbols/symbol_12.png,condition_files/AMP_rep1.csv,right,care.vice,,,,,,,,,,,,,,,,,,,,,0,1,1,0,0,53,53,53,,,,,,,,,,,,,4124.49871500826,,,,,AMP_prac,left,0.8984149363823235,,,,,,,,,,,,,,,,,,,,,3,,,left,0.533674864564091,,,,,,,,,,,,,,1021,2019_May_29_1257,mf_amp_cond1,3.0.7,59.98316654231645,
crarft,,&&&&&&,images/symbols/symbol_33.png,condition_files/AMP_rep1.csv,None,nonword,,,,,,,,,,,,,,,,,,,,,0,1,1,0,0,54,54,54,,,,,,,,,,,,,4125.315469709109,,,,,AMP_prac,left,0.8984149363823235,,,,,,,,,,,,,,,,,,,,,3,,,left,0.5982179139973596,,,,,,,,,,,,,,1021,2019_May_29_1257,mf_amp_cond1,3.0.7,59.98316654231645,
hand,,&&&&,images/symbols/symbol_59.png,condition_files/AMP_rep1.csv,left,sanctity.virtue,,,,,,,,,,,,,,,,,,,,,0,1,1,0,0,55,55,55,,,,,,,,,,,,,4125.99912537809,,,,,AMP_prac,left,0.8984149363823235,,,,,,,,,,,,,,,,,,,,,3,,,left,0.464872884680517,,,,,,,,,,,,,,1021,2019_May_29_1257,mf_amp_cond1,3.0.7,59.98316654231645,
harassment,,&&&&&&&&&&,images/symbols/symbol_80.png,condition_files/AMP_rep1.csv,right,sanctity.vice,,,,,,,,,,,,,,,,,,,,,0,1,1,0,0,56,56,56,,,,,,,,,,,,,4126.732695108396,,,,,AMP_prac,left,0.8984149363823235,,,,,,,,,,,,,,,,,,,,,3,,,left,0.5156727933790535,,,,,,,,,,,,,,1021,2019_May_29_1257,mf_amp_cond1,3.0.7,59.98316654231645,
charges,,&&&&&&&,images/symbols/symbol_64.png,condition_files/AMP_rep1.csv,right,fairness.vice,,,,,,,,,,,,,,,,,,,,,0,1,1,0,0,57,57,57,,,,,,,,,,,,,4127.64956049202,,,,,AMP_prac,left,0.8984149363823235,,,,,,,,,,,,,,,,,,,,,3,,,left,0.6986374565167353,,,,,,,,,,,,,,1021,2019_May_29_1257,mf_amp_cond1,3.0.7,59.98316654231645,
opportunity,,&&&&&&&&&&&,images/symbols/symbol_26.png,condition_files/AMP_rep1.csv,left,fairness.virtue,,,,,,,,,,,,,,,,,,,,,0,1,1,0,0,58,58,58,,,,,,,,,,,,,4128.499797460972,,,,,AMP_prac,left,0.8984149363823235,,,,,,,,,,,,,,,,,,,,,3,,,left,0.6320491328369826,,,,,,,,,,,,,,1021,2019_May_29_1257,mf_amp_cond1,3.0.7,59.98316654231645,
safety,,&&&&&&,images/symbols/symbol_82.png,condition_files/AMP_rep1.csv,left,care.virtue,,,,,,,,,,,,,,,,,,,,,0,1,1,0,0,59,59,59,,,,,,,,,,,,,4129.500109528075,,,,,AMP_prac,left,0.8984149363823235,,,,,,,,,,,,,,,,,,,,,3,,,left,0.7826136599760503,,,,,,,,,,,,,,1021,2019_May_29_1257,mf_amp_cond1,3.0.7,59.98316654231645,
clean,,&&&&&,images/symbols/symbol_54.png,condition_files/AMP_rep1.csv,left,sanctity.virtue,,,,,,,,,,,,,,,,,,,,,0,1,1,0,0,60,60,60,,,,,,,,,,,,,4130.517024335684,,,,,AMP_prac,left,0.8984149363823235,,,,,,,,,,,,,,,,,,,,,3,,,left,0.7981628130655736,,,,,,,,,,,,,,1021,2019_May_29_1257,mf_amp_cond1,3.0.7,59.98316654231645,
suicide,,&&&&&&&,images/symbols/symbol_22.png,condition_files/AMP_rep1.csv,right,care.vice,,,,,,,,,,,,,,,,,,,,,0,1,1,0,0,61,61,61,,,,,,,,,,,,,4131.367223779671,,,,,AMP_prac,left,0.8984149363823235,,,,,,,,,,,,,,,,,,,,,3,,,left,0.6318643941776827,,,,,,,,,,,,,,1021,2019_May_29_1257,mf_amp_cond1,3.0.7,59.98316654231645,
rebels,,&&&&&&,images/symbols/symbol_68.png,condition_files/AMP_rep1.csv,right,authority.vice,,,,,,,,,,,,,,,,,,,,,0,1,1,0,0,62,62,62,,,,,,,,,,,,,4132.150759528973,,,,,AMP_prac,left,0.8984149363823235,,,,,,,,,,,,,,,,,,,,,3,,,left,0.5503985189134255,,,,,,,,,,,,,,1021,2019_May_29_1257,mf_amp_cond1,3.0.7,59.98316654231645,
fear,,&&&&,images/symbols/symbol_18.png,condition_files/AMP_rep1.csv,right,sanctity.vice,,,,,,,,,,,,,,,,,,,,,0,1,1,0,0,63,63,63,,,,,,,,,,,,,4133.717864383245,,,,,AMP_prac,left,0.8984149363823235,,,,,,,,,,,,,,,,,,,,,3,,,left,1.3339483803138137,,,,,,,,,,,,,,1021,2019_May_29_1257,mf_amp_cond1,3.0.7,59.98316654231645,
gun,,&&&,images/symbols/symbol_21.png,condition_files/AMP_rep1.csv,right,authority.vice,,,,,,,,,,,,,,,,,,,,,0,1,1,0,0,64,64,64,,,,,,,,,,,,,4134.618104575435,,,,,AMP_prac,left,0.8984149363823235,,,,,,,,,,,,,,,,,,,,,3,,,left,0.6817178380442783,,,,,,,,,,,,,,1021,2019_May_29_1257,mf_amp_cond1,3.0.7,59.98316654231645,
preighs,,&&&&&&&,images/symbols/symbol_77.png,condition_files/AMP_rep1.csv,None,nonword,,,,,,,,,,,,,,,,,,,,,0,1,1,0,0,65,65,65,,,,,,,,,,,,,4135.4183200396365,,,,,AMP_prac,left,0.8984149363823235,,,,,,,,,,,,,,,,,,,,,3,,,left,0.5818403236335143,,,,,,,,,,,,,,1021,2019_May_29_1257,mf_amp_cond1,3.0.7,59.98316654231645,
pleasant,,&&&&&&&,images/symbols/symbol_79.png,condition_files/AMP_rep1.csv,right,control,,,,,,,,,,,,,,,,,,,,,0,1,1,0,0,66,66,66,,,,,,,,,,,,,4136.218530051527,,,,,AMP_prac,left,0.8984149363823235,,,,,,,,,,,,,,,,,,,,,3,,,left,0.5817899694666266,,,,,,,,,,,,,,1021,2019_May_29_1257,mf_amp_cond1,3.0.7,59.98316654231645,
benefit,,&&&&&&&,images/symbols/symbol_43.png,condition_files/AMP_rep1.csv,left,fairness.virtue,,,,,,,,,,,,,,,,,,,,,0,1,1,0,0,67,67,67,,,,,,,,,,,,,4137.068771831458,,,,,AMP_prac,left,0.8984149363823235,,,,,,,,,,,,,,,,,,,,,3,,,left,0.6318999947980046,,,,,,,,,,,,,,1021,2019_May_29_1257,mf_amp_cond1,3.0.7,59.98316654231645,
corruption,,&&&&&&&&&&,images/symbols/symbol_76.png,condition_files/AMP_rep1.csv,right,sanctity.vice,,,,,,,,,,,,,,,,,,,,,0,1,1,0,0,68,68,68,,,,,,,,,,,,,4138.0023397015175,,,,,AMP_prac,left,0.8984149363823235,,,,,,,,,,,,,,,,,,,,,3,,,left,0.7154890809906647,,,,,,,,,,,,,,1021,2019_May_29_1257,mf_amp_cond1,3.0.7,59.98316654231645,
honored,,&&&&&&&,images/symbols/symbol_67.png,condition_files/AMP_rep1.csv,left,authority.virtue,,,,,,,,,,,,,,,,,,,,,0,1,1,0,0,69,69,69,,,,,,,,,,,,,4138.919264419586,,,,,AMP_prac,left,0.8984149363823235,,,,,,,,,,,,,,,,,,,,,3,,,left,0.6837785074021667,,,,,,,,,,,,,,1021,2019_May_29_1257,mf_amp_cond1,3.0.7,59.98316654231645,
celebrated,,&&&&&&&&&&,images/symbols/symbol_3.png,condition_files/AMP_rep1.csv,left,authority.virtue,,,,,,,,,,,,,,,,,,,,,0,1,1,0,0,70,70,70,,,,,,,,,,,,,4139.752833540551,,,,,AMP_prac,left,0.8984149363823235,,,,,,,,,,,,,,,,,,,,,3,,,left,0.6149428512435406,,,,,,,,,,,,,,1021,2019_May_29_1257,mf_amp_cond1,3.0.7,59.98316654231645,
civilians,,&&&&&&&&&,images/symbols/symbol_23.png,condition_files/AMP_rep1.csv,right,care.vice,,,,,,,,,,,,,,,,,,,,,0,1,1,0,0,71,71,71,,,,,,,,,,,,,4140.486344577861,,,,,AMP_prac,left,0.8984149363823235,,,,,,,,,,,,,,,,,,,,,3,,,left,0.5152786200633273,,,,,,,,,,,,,,1021,2019_May_29_1257,mf_amp_cond1,3.0.7,59.98316654231645,
support,,&&&&&&&,images/symbols/symbol_27.png,condition_files/AMP_rep1.csv,left,loyalty.virtue,,,,,,,,,,,,,,,,,,,,,0,1,1,0,0,72,72,72,,,,,,,,,,,,,4141.136522468994,,,,,AMP_prac,left,0.8984149363823235,,,,,,,,,,,,,,,,,,,,,3,,,left,0.43199807312339544,,,,,,,,,,,,,,1021,2019_May_29_1257,mf_amp_cond1,3.0.7,59.98316654231645,
trust,,&&&&&,images/symbols/symbol_62.png,condition_files/AMP_rep1.csv,left,authority.virtue,,,,,,,,,,,,,,,,,,,,,0,1,1,0,0,73,73,73,,,,,,,,,,,,,4141.803416317096,,,,,AMP_prac,left,0.8984149363823235,,,,,,,,,,,,,,,,,,,,,3,,,left,0.4337553349323571,,,,,,,,,,,,,,1021,2019_May_29_1257,mf_amp_cond1,3.0.7,59.98316654231645,
dignity,,&&&&&&&,images/symbols/symbol_49.png,condition_files/AMP_rep1.csv,left,sanctity.virtue,,,,,,,,,,,,,,,,,,,,,0,1,1,0,0,74,74,74,,,,,,,,,,,,,4142.50354964321,,,,,AMP_prac,left,0.8984149363823235,,,,,,,,,,,,,,,,,,,,,3,,,left,0.46704805351328105,,,,,,,,,,,,,,1021,2019_May_29_1257,mf_amp_cond1,3.0.7,59.98316654231645,
army,,&&&&,images/symbols/symbol_75.png,condition_files/AMP_rep1.csv,right,loyalty.vice,,,,,,,,,,,,,,,,,,,,,0,1,1,0,0,75,75,75,,,,,,,,,,,,,4143.253749696421,,,,,AMP_prac,left,0.8984149363823235,,,,,,,,,,,,,,,,,,,,,3,,,left,0.5316716053057462,,,,,,,,,,,,,,1021,2019_May_29_1257,mf_amp_cond1,3.0.7,59.98316654231645,
values,,&&&&&&,images/symbols/symbol_41.png,condition_files/AMP_rep1.csv,left,sanctity.virtue,,,,,,,,,,,,,,,,,,,,,0,1,1,0,0,76,76,76,,,,,,,,,,,,,4144.370721625513,,,,,AMP_prac,left,0.8984149363823235,,,,,,,,,,,,,,,,,,,,,3,,,left,0.8994483179412782,,,,,,,,,,,,,,1021,2019_May_29_1257,mf_amp_cond1,3.0.7,59.98316654231645,
integrity,,&&&&&&&&&,images/symbols/symbol_66.png,condition_files/AMP_rep1.csv,left,fairness.virtue,,,,,,,,,,,,,,,,,,,,,0,1,1,0,0,77,77,77,,,,,,,,,,,,,4145.287631269428,,,,,AMP_prac,left,0.8984149363823235,,,,,,,,,,,,,,,,,,,,,3,,,left,0.6990255359560251,,,,,,,,,,,,,,1021,2019_May_29_1257,mf_amp_cond1,3.0.7,59.98316654231645,
attacks,,&&&&&&&,images/symbols/symbol_73.png,condition_files/AMP_rep1.csv,right,care.vice,,,,,,,,,,,,,,,,,,,,,0,1,1,0,0,78,78,78,,,,,,,,,,,,,4146.121191730723,,,,,AMP_prac,left,0.8984149363823235,,,,,,,,,,,,,,,,,,,,,3,,,left,0.6154550518840551,,,,,,,,,,,,,,1021,2019_May_29_1257,mf_amp_cond1,3.0.7,59.98316654231645,
friends,,&&&&&&&,images/symbols/symbol_15.png,condition_files/AMP_rep1.csv,left,loyalty.virtue,,,,,,,,,,,,,,,,,,,,,0,1,1,0,0,79,79,79,,,,,,,,,,,,,4146.8213770145085,,,,,AMP_prac,left,0.8984149363823235,,,,,,,,,,,,,,,,,,,,,3,,,left,0.4815869174199179,,,,,,,,,,,,,,1021,2019_May_29_1257,mf_amp_cond1,3.0.7,59.98316654231645,
killed,,&&&&&&,images/symbols/symbol_13.png,condition_files/AMP_rep1.csv,right,care.vice,,,,,,,,,,,,,,,,,,,,,0,1,1,0,0,80,80,80,,,,,,,,,,,,,4147.938361772685,,,,,AMP_prac,left,0.8984149363823235,,,,,,,,,,,,,,,,,,,,,3,,,right,0.8984970423625782,,,,,,,,,,,,,,1021,2019_May_29_1257,mf_amp_cond1,3.0.7,59.98316654231645,
improve,,&&&&&&&,images/symbols/symbol_74.png,condition_files/AMP_rep1.csv,left,care.virtue,,,,,,,,,,,,,,,,,,,,,0,1,1,0,0,81,81,81,,,,,,,,,,,,,4148.738437079242,,,,,AMP_prac,left,0.8984149363823235,,,,,,,,,,,,,,,,,,,,,3,,,left,0.5669576406944543,,,,,,,,,,,,,,1021,2019_May_29_1257,mf_amp_cond1,3.0.7,59.98316654231645,
,,,,condition_files/AMP_rep1.csv,,,,,,,,,,,,,,,,,,,,,,,0,1,1,0,,,,,,,,,,,,,,,,,,,,,,,,,,,,,,,,,,,,,,,,,,,,,,,,,,right,1.7340495375683531,,,,,,,,,,,,1021,2019_May_29_1257,mf_amp_cond1,3.0.7,59.98316654231645,
accused,,&&&&&&&,images/symbols/symbol_16.png,condition_files/AMP_rep3.csv,right,fairness.vice,,,,,,,,,,,,,,,,,,,,,0,2,2,2,0,0,0,0,,,,,,,,,,,,,4151.55614048976,,,,,AMP_prac,left,0.8984149363823235,,,,,,,,,,,,,,,,,,,,,3,,,left,0.8482715553836897,,,,,,,,,,,,,,1021,2019_May_29_1257,mf_amp_cond1,3.0.7,59.98316654231645,
powerful,,&&&&&&&&,images/symbols/symbol_9.png,condition_files/AMP_rep3.csv,left,authority.virtue,,,,,,,,,,,,,,,,,,,,,0,2,2,2,0,1,1,1,,,,,,,,,,,,,4152.672951734741,,,,,AMP_prac,left,0.8984149363823235,,,,,,,,,,,,,,,,,,,,,3,,,left,0.8985310394782573,,,,,,,,,,,,,,1021,2019_May_29_1257,mf_amp_cond1,3.0.7,59.98316654231645,
violations,,&&&&&&&&&&,images/symbols/symbol_38.png,condition_files/AMP_rep3.csv,right,sanctity.vice,,,,,,,,,,,,,,,,,,,,,0,2,2,2,0,2,2,2,,,,,,,,,,,,,4153.539851420093,,,,,AMP_prac,left,0.8984149363823235,,,,,,,,,,,,,,,,,,,,,3,,,left,0.6486829837085679,,,,,,,,,,,,,,1021,2019_May_29_1257,mf_amp_cond1,3.0.7,59.98316654231645,
freedom,,&&&&&&&,images/symbols/symbol_34.png,condition_files/AMP_rep3.csv,left,sanctity.virtue,,,,,,,,,,,,,,,,,,,,,0,2,2,2,0,3,3,3,,,,,,,,,,,,,4154.323448107461,,,,,AMP_prac,left,0.8984149363823235,,,,,,,,,,,,,,,,,,,,,3,,,left,0.5653376498958096,,,,,,,,,,,,,,1021,2019_May_29_1257,mf_amp_cond1,3.0.7,59.98316654231645,
unpleasant,,&&&&&&&&&,images/symbols/symbol_72.png,condition_files/AMP_rep3.csv,left,control,,,,,,,,,,,,,,,,,,,,,0,2,2,2,0,4,4,4,,,,,,,,,,,,,4155.140295177582,,,,,AMP_prac,left,0.8984149363823235,,,,,,,,,,,,,,,,,,,,,3,,,left,0.5837358186254278,,,,,,,,,,,,,,1021,2019_May_29_1257,mf_amp_cond1,3.0.7,59.98316654231645,
good,,&&&&,images/symbols/symbol_29.png,condition_files/AMP_rep3.csv,left,care.virtue,,,,,,,,,,,,,,,,,,,,,0,2,2,2,0,5,5,5,,,,,,,,,,,,,4155.940514811315,,,,,AMP_prac,left,0.8984149363823235,,,,,,,,,,,,,,,,,,,,,3,,,left,0.5811725705862045,,,,,,,,,,,,,,1021,2019_May_29_1257,mf_amp_cond1,3.0.7,59.98316654231645,
interests,,&&&&&&&&&,images/symbols/symbol_42.png,condition_files/AMP_rep3.csv,left,fairness.virtue,,,,,,,,,,,,,,,,,,,,,0,2,2,2,0,6,6,6,,,,,,,,,,,,,4156.724087444134,,,,,AMP_prac,left,0.8984149363823235,,,,,,,,,,,,,,,,,,,,,3,,,left,0.565225716214627,,,,,,,,,,,,,,1021,2019_May_29_1257,mf_amp_cond1,3.0.7,59.98316654231645,
black,,&&&&&,images/symbols/symbol_37.png,condition_files/AMP_rep3.csv,right,loyalty.vice,,,,,,,,,,,,,,,,,,,,,0,2,2,2,0,7,7,7,,,,,,,,,,,,,4157.49097426841,,,,,AMP_prac,left,0.8984149363823235,,,,,,,,,,,,,,,,,,,,,3,,,left,0.5337922505568713,,,,,,,,,,,,,,1021,2019_May_29_1257,mf_amp_cond1,3.0.7,59.98316654231645,
rhuissed,,&&&&&&&&,images/symbols/symbol_28.png,condition_files/AMP_rep3.csv,None,nonword,,,,,,,,,,,,,,,,,,,,,0,2,2,2,0,8,8,8,,,,,,,,,,,,,4158.3578203923535,,,,,AMP_prac,left,0.8984149363823235,,,,,,,,,,,,,,,,,,,,,3,,,left,0.648405875894241,,,,,,,,,,,,,,1021,2019_May_29_1257,mf_amp_cond1,3.0.7,59.98316654231645,
health,,&&&&&&,images/symbols/symbol_78.png,condition_files/AMP_rep3.csv,left,care.virtue,,,,,,,,,,,,,,,,,,,,,0,2,2,2,0,9,9,9,,,,,,,,,,,,,4159.1747091569705,,,,,AMP_prac,left,0.8984149363823235,,,,,,,,,,,,,,,,,,,,,3,,,left,0.5986787982983515,,,,,,,,,,,,,,1021,2019_May_29_1257,mf_amp_cond1,3.0.7,59.98316654231645,
increase,,&&&&&&&&,images/symbols/symbol_6.png,condition_files/AMP_rep3.csv,left,care.virtue,,,,,,,,,,,,,,,,,,,,,0,2,2,2,0,10,10,10,,,,,,,,,,,,,4160.358360175393,,,,,AMP_prac,left,0.8984149363823235,,,,,,,,,,,,,,,,,,,,,3,,,right,0.9655456091277301,,,,,,,,,,,,,,1021,2019_May_29_1257,mf_amp_cond1,3.0.7,59.98316654231645,
peace,,&&&&&,images/symbols/symbol_40.png,condition_files/AMP_rep3.csv,left,care.virtue,,,,,,,,,,,,,,,,,,,,,0,2,2,2,0,11,11,11,,,,,,,,,,,,,4161.041918664239,,,,,AMP_prac,left,0.8984149363823235,,,,,,,,,,,,,,,,,,,,,3,,,left,0.4647824397543445,,,,,,,,,,,,,,1021,2019_May_29_1257,mf_amp_cond1,3.0.7,59.98316654231645,
spreussed,,&&&&&&&&&,images/symbols/symbol_2.png,condition_files/AMP_rep3.csv,None,nonword,,,,,,,,,,,,,,,,,,,,,0,2,2,2,0,12,12,12,,,,,,,,,,,,,4161.808745833347,,,,,AMP_prac,left,0.8984149363823235,,,,,,,,,,,,,,,,,,,,,3,,,left,0.5488077143672854,,,,,,,,,,,,,,1021,2019_May_29_1257,mf_amp_cond1,3.0.7,59.98316654231645,
peaceful,,&&&&&&&&,images/symbols/symbol_51.png,condition_files/AMP_rep3.csv,left,authority.virtue,,,,,,,,,,,,,,,,,,,,,0,2,2,2,0,13,13,13,,,,,,,,,,,,,4162.625627541915,,,,,AMP_prac,left,0.8984149363823235,,,,,,,,,,,,,,,,,,,,,3,,,left,0.5837380638113245,,,,,,,,,,,,,,1021,2019_May_29_1257,mf_amp_cond1,3.0.7,59.98316654231645,
prinse,,&&&&&&,images/symbols/symbol_35.png,condition_files/AMP_rep3.csv,None,nonword,,,,,,,,,,,,,,,,,,,,,0,2,2,2,0,14,14,14,,,,,,,,,,,,,4163.442511495552,,,,,AMP_prac,left,0.8984149363823235,,,,,,,,,,,,,,,,,,,,,3,,,left,0.5982830214779824,,,,,,,,,,,,,,1021,2019_May_29_1257,mf_amp_cond1,3.0.7,59.98316654231645,
energy,,&&&&&&,images/symbols/symbol_4.png,condition_files/AMP_rep3.csv,left,sanctity.virtue,,,,,,,,,,,,,,,,,,,,,0,2,2,2,0,15,15,15,,,,,,,,,,,,,4164.242751655751,,,,,AMP_prac,left,0.8984149363823235,,,,,,,,,,,,,,,,,,,,,3,,,left,0.5821405239403248,,,,,,,,,,,,,,1021,2019_May_29_1257,mf_amp_cond1,3.0.7,59.98316654231645,
loyalty,,&&&&&&&,images/symbols/symbol_14.png,condition_files/AMP_rep3.csv,left,loyalty.virtue,,,,,,,,,,,,,,,,,,,,,0,2,2,2,0,16,16,16,,,,,,,,,,,,,4165.176316960133,,,,,AMP_prac,left,0.8984149363823235,,,,,,,,,,,,,,,,,,,,,3,,,left,0.7155089661246166,,,,,,,,,,,,,,1021,2019_May_29_1257,mf_amp_cond1,3.0.7,59.98316654231645,
threatened,,&&&&&&&&&&,images/symbols/symbol_70.png,condition_files/AMP_rep3.csv,right,fairness.vice,,,,,,,,,,,,,,,,,,,,,0,2,2,2,0,17,17,17,,,,,,,,,,,,,4166.109897338552,,,,,AMP_prac,left,0.8984149363823235,,,,,,,,,,,,,,,,,,,,,3,,,right,0.7152062000241131,,,,,,,,,,,,,,1021,2019_May_29_1257,mf_amp_cond1,3.0.7,59.98316654231645,
wence,,&&&&&,images/symbols/symbol_69.png,condition_files/AMP_rep3.csv,None,nonword,,,,,,,,,,,,,,,,,,,,,0,2,2,2,0,18,18,18,,,,,,,,,,,,,4166.843451032531,,,,,AMP_prac,left,0.8984149363823235,,,,,,,,,,,,,,,,,,,,,3,,,left,0.5153113342821598,,,,,,,,,,,,,,1021,2019_May_29_1257,mf_amp_cond1,3.0.7,59.98316654231645,
fair,,&&&&,images/symbols/symbol_10.png,condition_files/AMP_rep3.csv,left,fairness.virtue,,,,,,,,,,,,,,,,,,,,,0,2,2,2,0,19,19,19,,,,,,,,,,,,,4167.510275603621,,,,,AMP_prac,left,0.8984149363823235,,,,,,,,,,,,,,,,,,,,,3,,,left,0.4488901090808213,,,,,,,,,,,,,,1021,2019_May_29_1257,mf_amp_cond1,3.0.7,59.98316654231645,
police,,&&&&&&,images/symbols/symbol_44.png,condition_files/AMP_rep3.csv,right,authority.vice,,,,,,,,,,,,,,,,,,,,,0,2,2,2,0,20,20,20,,,,,,,,,,,,,4168.1437744213035,,,,,AMP_prac,left,0.8984149363823235,,,,,,,,,,,,,,,,,,,,,3,,,left,0.41539886058308184,,,,,,,,,,,,,,1021,2019_May_29_1257,mf_amp_cond1,3.0.7,59.98316654231645,
love,,&&&&,images/symbols/symbol_46.png,condition_files/AMP_rep3.csv,left,loyalty.virtue,,,,,,,,,,,,,,,,,,,,,0,2,2,2,0,21,21,21,,,,,,,,,,,,,4168.72726199741,,,,,AMP_prac,left,0.8984149363823235,,,,,,,,,,,,,,,,,,,,,3,,,left,0.3653616403462365,,,,,,,,,,,,,,1021,2019_May_29_1257,mf_amp_cond1,3.0.7,59.98316654231645,
prosecution,,&&&&&&&&&&&,images/symbols/symbol_25.png,condition_files/AMP_rep3.csv,right,authority.vice,,,,,,,,,,,,,,,,,,,,,0,2,2,2,0,22,22,22,,,,,,,,,,,,,4169.510811217246,,,,,AMP_prac,left,0.8984149363823235,,,,,,,,,,,,,,,,,,,,,3,,,left,0.565441565355286,,,,,,,,,,,,,,1021,2019_May_29_1257,mf_amp_cond1,3.0.7,59.98316654231645,
party,,&&&&&,images/symbols/symbol_17.png,condition_files/AMP_rep3.csv,left,loyalty.virtue,,,,,,,,,,,,,,,,,,,,,0,2,2,2,0,23,23,23,,,,,,,,,,,,,4170.177661767346,,,,,AMP_prac,left,0.8984149363823235,,,,,,,,,,,,,,,,,,,,,3,,,left,0.4487114642979577,,,,,,,,,,,,,,1021,2019_May_29_1257,mf_amp_cond1,3.0.7,59.98316654231645,
strong,,&&&&&&,images/symbols/symbol_11.png,condition_files/AMP_rep3.csv,left,loyalty.virtue,,,,,,,,,,,,,,,,,,,,,0,2,2,2,0,24,24,24,,,,,,,,,,,,,4170.877847371856,,,,,AMP_prac,left,0.8984149363823235,,,,,,,,,,,,,,,,,,,,,3,,,left,0.4821853934554383,,,,,,,,,,,,,,1021,2019_May_29_1257,mf_amp_cond1,3.0.7,59.98316654231645,
wraize,,&&&&&&,images/symbols/symbol_19.png,condition_files/AMP_rep3.csv,None,nonword,,,,,,,,,,,,,,,,,,,,,0,2,2,2,0,25,25,25,,,,,,,,,,,,,4171.578038108069,,,,,AMP_prac,left,0.8984149363823235,,,,,,,,,,,,,,,,,,,,,3,,,left,0.4815907661104575,,,,,,,,,,,,,,1021,2019_May_29_1257,mf_amp_cond1,3.0.7,59.98316654231645,
praise,,&&&&&&,images/symbols/symbol_20.png,condition_files/AMP_rep3.csv,left,authority.virtue,,,,,,,,,,,,,,,,,,,,,0,2,2,2,0,26,26,26,,,,,,,,,,,,,4172.394915326498,,,,,AMP_prac,left,0.8984149363823235,,,,,,,,,,,,,,,,,,,,,3,,,right,0.5992028657346964,,,,,,,,,,,,,,1021,2019_May_29_1257,mf_amp_cond1,3.0.7,59.98316654231645,
hate,,&&&&,images/symbols/symbol_71.png,condition_files/AMP_rep3.csv,right,fairness.vice,,,,,,,,,,,,,,,,,,,,,0,2,2,2,0,27,27,27,,,,,,,,,,,,,4173.028423445183,,,,,AMP_prac,left,0.8984149363823235,,,,,,,,,,,,,,,,,,,,,3,,,left,0.4003676810534671,,,,,,,,,,,,,,1021,2019_May_29_1257,mf_amp_cond1,3.0.7,59.98316654231645,
betrayal,,&&&&&&&&,images/symbols/symbol_52.png,condition_files/AMP_rep3.csv,right,loyalty.vice,,,,,,,,,,,,,,,,,,,,,0,2,2,2,0,28,28,28,,,,,,,,,,,,,4173.761959499214,,,,,AMP_prac,left,0.8984149363823235,,,,,,,,,,,,,,,,,,,,,3,,,left,0.5153793282806873,,,,,,,,,,,,,,1021,2019_May_29_1257,mf_amp_cond1,3.0.7,59.98316654231645,
faith,,&&&&&,images/symbols/symbol_32.png,condition_files/AMP_rep3.csv,left,sanctity.virtue,,,,,,,,,,,,,,,,,,,,,0,2,2,2,0,29,29,29,,,,,,,,,,,,,4174.428895041812,,,,,AMP_prac,left,0.8984149363823235,,,,,,,,,,,,,,,,,,,,,3,,,left,0.4484750886913389,,,,,,,,,,,,,,1021,2019_May_29_1257,mf_amp_cond1,3.0.7,59.98316654231645,
protesters,,&&&&&&&&&&,images/symbols/symbol_58.png,condition_files/AMP_rep3.csv,right,authority.vice,,,,,,,,,,,,,,,,,,,,,0,2,2,2,0,30,30,30,,,,,,,,,,,,,4175.045631717774,,,,,AMP_prac,left,0.8984149363823235,,,,,,,,,,,,,,,,,,,,,3,,,left,0.39872267364989966,,,,,,,,,,,,,,1021,2019_May_29_1257,mf_amp_cond1,3.0.7,59.98316654231645,
injured,,&&&&&&&,images/symbols/symbol_30.png,condition_files/AMP_rep3.csv,right,care.vice,,,,,,,,,,,,,,,,,,,,,0,2,2,2,0,31,31,31,,,,,,,,,,,,,4175.99589533906,,,,,AMP_prac,left,0.8984149363823235,,,,,,,,,,,,,,,,,,,,,3,,,left,0.7323166510323063,,,,,,,,,,,,,,1021,2019_May_29_1257,mf_amp_cond1,3.0.7,59.98316654231645,
died,,&&&&,images/symbols/symbol_63.png,condition_files/AMP_rep3.csv,right,care.vice,,,,,,,,,,,,,,,,,,,,,0,2,2,2,0,32,32,32,,,,,,,,,,,,,4177.129404901061,,,,,AMP_prac,left,0.8984149363823235,,,,,,,,,,,,,,,,,,,,,3,,,left,0.915566761046648,,,,,,,,,,,,,,1021,2019_May_29_1257,mf_amp_cond1,3.0.7,59.98316654231645,
drug,,&&&&,images/symbols/symbol_45.png,condition_files/AMP_rep3.csv,right,sanctity.vice,,,,,,,,,,,,,,,,,,,,,0,2,2,2,0,33,33,33,,,,,,,,,,,,,4177.946425484377,,,,,AMP_prac,left,0.8984149363823235,,,,,,,,,,,,,,,,,,,,,3,,,left,0.5987881660694256,,,,,,,,,,,,,,1021,2019_May_29_1257,mf_amp_cond1,3.0.7,59.98316654231645,
praised,,&&&&&&&,images/symbols/symbol_60.png,condition_files/AMP_rep3.csv,left,loyalty.virtue,,,,,,,,,,,,,,,,,,,,,0,2,2,2,0,34,34,34,,,,,,,,,,,,,4178.7132927442435,,,,,AMP_prac,left,0.8984149363823235,,,,,,,,,,,,,,,,,,,,,3,,,left,0.5487753208726645,,,,,,,,,,,,,,1021,2019_May_29_1257,mf_amp_cond1,3.0.7,59.98316654231645,
prison,,&&&&&&,images/symbols/symbol_47.png,condition_files/AMP_rep3.csv,right,fairness.vice,,,,,,,,,,,,,,,,,,,,,0,2,2,2,0,35,35,35,,,,,,,,,,,,,4179.663535197615,,,,,AMP_prac,left,0.8984149363823235,,,,,,,,,,,,,,,,,,,,,3,,,left,0.7321280635660514,,,,,,,,,,,,,,1021,2019_May_29_1257,mf_amp_cond1,3.0.7,59.98316654231645,
help,,&&&&,images/symbols/symbol_48.png,condition_files/AMP_rep3.csv,left,care.virtue,,,,,,,,,,,,,,,,,,,,,0,2,2,2,0,36,36,36,,,,,,,,,,,,,4180.647137722233,,,,,AMP_prac,left,0.8984149363823235,,,,,,,,,,,,,,,,,,,,,3,,,left,0.7654842861229554,,,,,,,,,,,,,,1021,2019_May_29_1257,mf_amp_cond1,3.0.7,59.98316654231645,
embrace,,&&&&&&&,images/symbols/symbol_31.png,condition_files/AMP_rep3.csv,left,authority.virtue,,,,,,,,,,,,,,,,,,,,,0,2,2,2,0,37,37,37,,,,,,,,,,,,,4182.397618732182,,,,,AMP_prac,left,0.8984149363823235,,,,,,,,,,,,,,,,,,,,,3,,,left,1.5173489111475646,,,,,,,,,,,,,,1021,2019_May_29_1257,mf_amp_cond1,3.0.7,59.98316654231645,
penalty,,&&&&&&&,images/symbols/symbol_50.png,condition_files/AMP_rep3.csv,right,authority.vice,,,,,,,,,,,,,,,,,,,,,0,2,2,2,0,38,38,38,,,,,,,,,,,,,4183.147805956425,,,,,AMP_prac,left,0.8984149363823235,,,,,,,,,,,,,,,,,,,,,3,,,left,0.5317229215288535,,,,,,,,,,,,,,1021,2019_May_29_1257,mf_amp_cond1,3.0.7,59.98316654231645,
conspiracy,,&&&&&&&&&&,images/symbols/symbol_36.png,condition_files/AMP_rep3.csv,right,sanctity.vice,,,,,,,,,,,,,,,,,,,,,0,2,2,2,0,39,39,39,,,,,,,,,,,,,4183.881362536922,,,,,AMP_prac,left,0.8984149363823235,,,,,,,,,,,,,,,,,,,,,3,,,left,0.5152696396689862,,,,,,,,,,,,,,1021,2019_May_29_1257,mf_amp_cond1,3.0.7,59.98316654231645,
agreement,,&&&&&&&&&,images/symbols/symbol_1.png,condition_files/AMP_rep3.csv,left,fairness.virtue,,,,,,,,,,,,,,,,,,,,,0,2,2,2,0,40,40,40,,,,,,,,,,,,,4184.614895704435,,,,,AMP_prac,left,0.8984149363823235,,,,,,,,,,,,,,,,,,,,,3,,,left,0.5152847139397636,,,,,,,,,,,,,,1021,2019_May_29_1257,mf_amp_cond1,3.0.7,59.98316654231645,
koozz,,&&&&&,images/symbols/symbol_24.png,condition_files/AMP_rep3.csv,None,nonword,,,,,,,,,,,,,,,,,,,,,0,2,2,2,0,41,41,41,,,,,,,,,,,,,4185.398416379583,,,,,AMP_prac,left,0.8984149363823235,,,,,,,,,,,,,,,,,,,,,3,,,left,0.5653472717385739,,,,,,,,,,,,,,1021,2019_May_29_1257,mf_amp_cond1,3.0.7,59.98316654231645,
lies,,&&&&,images/symbols/symbol_8.png,condition_files/AMP_rep3.csv,right,fairness.vice,,,,,,,,,,,,,,,,,,,,,0,2,2,2,0,42,42,42,,,,,,,,,,,,,4186.148610339034,,,,,AMP_prac,left,0.8984149363823235,,,,,,,,,,,,,,,,,,,,,3,,,left,0.5322463476331905,,,,,,,,,,,,,,1021,2019_May_29_1257,mf_amp_cond1,3.0.7,59.98316654231645,
critics,,&&&&&&&,images/symbols/symbol_7.png,condition_files/AMP_rep3.csv,right,loyalty.vice,,,,,,,,,,,,,,,,,,,,,0,2,2,2,0,43,43,43,,,,,,,,,,,,,4187.032187173492,,,,,AMP_prac,left,0.8984149363823235,,,,,,,,,,,,,,,,,,,,,3,,,left,0.6656622574664652,,,,,,,,,,,,,,1021,2019_May_29_1257,mf_amp_cond1,3.0.7,59.98316654231645,
crime,,&&&&&,images/symbols/symbol_55.png,condition_files/AMP_rep3.csv,right,fairness.vice,,,,,,,,,,,,,,,,,,,,,0,2,2,2,0,44,44,44,,,,,,,,,,,,,4187.64888792811,,,,,AMP_prac,left,0.8984149363823235,,,,,,,,,,,,,,,,,,,,,3,,,left,0.383560637710616,,,,,,,,,,,,,,1021,2019_May_29_1257,mf_amp_cond1,3.0.7,59.98316654231645,
win,,&&&,images/symbols/symbol_5.png,condition_files/AMP_rep3.csv,left,fairness.virtue,,,,,,,,,,,,,,,,,,,,,0,2,2,2,0,45,45,45,,,,,,,,,,,,,4188.432568004471,,,,,AMP_prac,left,0.8984149363823235,,,,,,,,,,,,,,,,,,,,,3,,,left,0.5650695223594084,,,,,,,,,,,,,,1021,2019_May_29_1257,mf_amp_cond1,3.0.7,59.98316654231645,
stailde,,&&&&&&&,images/symbols/symbol_57.png,condition_files/AMP_rep3.csv,None,nonword,,,,,,,,,,,,,,,,,,,,,0,2,2,2,0,46,46,46,,,,,,,,,,,,,4189.09941438504,,,,,AMP_prac,left,0.8984149363823235,,,,,,,,,,,,,,,,,,,,,3,,,left,0.44884135865140706,,,,,,,,,,,,,,1021,2019_May_29_1257,mf_amp_cond1,3.0.7,59.98316654231645,
terrorist,,&&&&&&&&&,images/symbols/symbol_81.png,condition_files/AMP_rep3.csv,right,loyalty.vice,,,,,,,,,,,,,,,,,,,,,0,2,2,2,0,47,47,47,,,,,,,,,,,,,4189.7829273307,,,,,AMP_prac,left,0.8984149363823235,,,,,,,,,,,,,,,,,,,,,3,,,left,0.4655755970161408,,,,,,,,,,,,,,1021,2019_May_29_1257,mf_amp_cond1,3.0.7,59.98316654231645,
refused,,&&&&&&&,images/symbols/symbol_53.png,condition_files/AMP_rep3.csv,right,authority.vice,,,,,,,,,,,,,,,,,,,,,0,2,2,2,0,48,48,48,,,,,,,,,,,,,4190.9665953476215,,,,,AMP_prac,left,0.8984149363823235,,,,,,,,,,,,,,,,,,,,,3,,,left,0.965768514201045,,,,,,,,,,,,,,1021,2019_May_29_1257,mf_amp_cond1,3.0.7,59.98316654231645,
failure,,&&&&&&&,images/symbols/symbol_56.png,condition_files/AMP_rep3.csv,right,loyalty.vice,,,,,,,,,,,,,,,,,,,,,0,2,2,2,0,49,49,49,,,,,,,,,,,,,4191.750124361715,,,,,AMP_prac,left,0.8984149363823235,,,,,,,,,,,,,,,,,,,,,3,,,right,0.5504087822046131,,,,,,,,,,,,,,1021,2019_May_29_1257,mf_amp_cond1,3.0.7,59.98316654231645,
men,,&&&,images/symbols/symbol_65.png,condition_files/AMP_rep3.csv,right,loyalty.vice,,,,,,,,,,,,,,,,,,,,,0,2,2,2,0,50,50,50,,,,,,,,,,,,,4192.917099834769,,,,,AMP_prac,left,0.8984149363823235,,,,,,,,,,,,,,,,,,,,,3,,,left,0.9481987826293334,,,,,,,,,,,,,,1021,2019_May_29_1257,mf_amp_cond1,3.0.7,59.98316654231645,
yakks,,&&&&&,images/symbols/symbol_39.png,condition_files/AMP_rep3.csv,None,nonword,,,,,,,,,,,,,,,,,,,,,0,2,2,2,0,51,51,51,,,,,,,,,,,,,4193.867362493998,,,,,AMP_prac,left,0.8984149363823235,,,,,,,,,,,,,,,,,,,,,3,,,left,0.7171241459436715,,,,,,,,,,,,,,1021,2019_May_29_1257,mf_amp_cond1,3.0.7,59.98316654231645,
scandal,,&&&&&&&,images/symbols/symbol_61.png,condition_files/AMP_rep3.csv,right,sanctity.vice,,,,,,,,,,,,,,,,,,,,,0,2,2,2,0,52,52,52,,,,,,,,,,,,,4194.800945438212,,,,,AMP_prac,left,0.8984149363823235,,,,,,,,,,,,,,,,,,,,,3,,,left,0.7148934914730489,,,,,,,,,,,,,,1021,2019_May_29_1257,mf_amp_cond1,3.0.7,59.98316654231645,
victim,,&&&&&&,images/symbols/symbol_12.png,condition_files/AMP_rep3.csv,right,care.vice,,,,,,,,,,,,,,,,,,,,,0,2,2,2,0,53,53,53,,,,,,,,,,,,,4195.78442159656,,,,,AMP_prac,left,0.8984149363823235,,,,,,,,,,,,,,,,,,,,,3,,,left,0.7503373243380338,,,,,,,,,,,,,,1021,2019_May_29_1257,mf_amp_cond1,3.0.7,59.98316654231645,
crarft,,&&&&&&,images/symbols/symbol_33.png,condition_files/AMP_rep3.csv,None,nonword,,,,,,,,,,,,,,,,,,,,,0,2,2,2,0,54,54,54,,,,,,,,,,,,,4196.518129560049,,,,,AMP_prac,left,0.8984149363823235,,,,,,,,,,,,,,,,,,,,,3,,,left,0.5151038240874186,,,,,,,,,,,,,,1021,2019_May_29_1257,mf_amp_cond1,3.0.7,59.98316654231645,
hand,,&&&&,images/symbols/symbol_59.png,condition_files/AMP_rep3.csv,left,sanctity.virtue,,,,,,,,,,,,,,,,,,,,,0,2,2,2,0,55,55,55,,,,,,,,,,,,,4197.218271225109,,,,,AMP_prac,left,0.8984149363823235,,,,,,,,,,,,,,,,,,,,,3,,,left,0.48159974650479853,,,,,,,,,,,,,,1021,2019_May_29_1257,mf_amp_cond1,3.0.7,59.98316654231645,
harassment,,&&&&&&&&&&,images/symbols/symbol_80.png,condition_files/AMP_rep3.csv,right,sanctity.vice,,,,,,,,,,,,,,,,,,,,,0,2,2,2,0,56,56,56,,,,,,,,,,,,,4197.9184420761885,,,,,AMP_prac,left,0.8984149363823235,,,,,,,,,,,,,,,,,,,,,3,,,left,0.4824448615545407,,,,,,,,,,,,,,1021,2019_May_29_1257,mf_amp_cond1,3.0.7,59.98316654231645,
charges,,&&&&&&&,images/symbols/symbol_64.png,condition_files/AMP_rep3.csv,right,fairness.vice,,,,,,,,,,,,,,,,,,,,,0,2,2,2,0,57,57,57,,,,,,,,,,,,,4198.601959832828,,,,,AMP_prac,left,0.8984149363823235,,,,,,,,,,,,,,,,,,,,,3,,,left,0.46537289780098945,,,,,,,,,,,,,,1021,2019_May_29_1257,mf_amp_cond1,3.0.7,59.98316654231645,
opportunity,,&&&&&&&&&&&,images/symbols/symbol_26.png,condition_files/AMP_rep3.csv,left,fairness.virtue,,,,,,,,,,,,,,,,,,,,,0,2,2,2,0,58,58,58,,,,,,,,,,,,,4199.302150889649,,,,,AMP_prac,left,0.8984149363823235,,,,,,,,,,,,,,,,,,,,,3,,,left,0.4821748095564544,,,,,,,,,,,,,,1021,2019_May_29_1257,mf_amp_cond1,3.0.7,59.98316654231645,
safety,,&&&&&&,images/symbols/symbol_82.png,condition_files/AMP_rep3.csv,left,care.virtue,,,,,,,,,,,,,,,,,,,,,0,2,2,2,0,59,59,59,,,,,,,,,,,,,4200.2357392862905,,,,,AMP_prac,left,0.8984149363823235,,,,,,,,,,,,,,,,,,,,,3,,,left,0.7159987157210708,,,,,,,,,,,,,,1021,2019_May_29_1257,mf_amp_cond1,3.0.7,59.98316654231645,
clean,,&&&&&,images/symbols/symbol_54.png,condition_files/AMP_rep3.csv,left,sanctity.virtue,,,,,,,,,,,,,,,,,,,,,0,2,2,2,0,60,60,60,,,,,,,,,,,,,4201.019281129469,,,,,AMP_prac,left,0.8984149363823235,,,,,,,,,,,,,,,,,,,,,3,,,left,0.5650201303651556,,,,,,,,,,,,,,1021,2019_May_29_1257,mf_amp_cond1,3.0.7,59.98316654231645,
suicide,,&&&&&&&,images/symbols/symbol_22.png,condition_files/AMP_rep3.csv,right,care.vice,,,,,,,,,,,,,,,,,,,,,0,2,2,2,0,61,61,61,,,,,,,,,,,,,4201.852843194385,,,,,AMP_prac,left,0.8984149363823235,,,,,,,,,,,,,,,,,,,,,3,,,left,0.6154204134363681,,,,,,,,,,,,,,1021,2019_May_29_1257,mf_amp_cond1,3.0.7,59.98316654231645,
rebels,,&&&&&&,images/symbols/symbol_68.png,condition_files/AMP_rep3.csv,right,authority.vice,,,,,,,,,,,,,,,,,,,,,0,2,2,2,0,62,62,62,,,,,,,,,,,,,4202.519680915284,,,,,AMP_prac,left,0.8984149363823235,,,,,,,,,,,,,,,,,,,,,3,,,left,0.4337072258349508,,,,,,,,,,,,,,1021,2019_May_29_1257,mf_amp_cond1,3.0.7,59.98316654231645,
fear,,&&&&,images/symbols/symbol_18.png,condition_files/AMP_rep3.csv,right,sanctity.vice,,,,,,,,,,,,,,,,,,,,,0,2,2,2,0,63,63,63,,,,,,,,,,,,,4203.353241376695,,,,,AMP_prac,left,0.8984149363823235,,,,,,,,,,,,,,,,,,,,,3,,,right,0.6004216274013743,,,,,,,,,,,,,,1021,2019_May_29_1257,mf_amp_cond1,3.0.7,59.98316654231645,
gun,,&&&,images/symbols/symbol_21.png,condition_files/AMP_rep3.csv,right,authority.vice,,,,,,,,,,,,,,,,,,,,,0,2,2,2,0,64,64,64,,,,,,,,,,,,,4204.136839026236,,,,,AMP_prac,left,0.8984149363823235,,,,,,,,,,,,,,,,,,,,,3,,,left,0.5651634952519089,,,,,,,,,,,,,,1021,2019_May_29_1257,mf_amp_cond1,3.0.7,59.98316654231645,
preighs,,&&&&&&&,images/symbols/symbol_77.png,condition_files/AMP_rep3.csv,None,nonword,,,,,,,,,,,,,,,,,,,,,0,2,2,2,0,65,65,65,,,,,,,,,,,,,4204.8703093312215,,,,,AMP_prac,left,0.8984149363823235,,,,,,,,,,,,,,,,,,,,,3,,,left,0.5155640669399872,,,,,,,,,,,,,,1021,2019_May_29_1257,mf_amp_cond1,3.0.7,59.98316654231645,
pleasant,,&&&&&&&,images/symbols/symbol_79.png,condition_files/AMP_rep3.csv,right,control,,,,,,,,,,,,,,,,,,,,,0,2,2,2,0,66,66,66,,,,,,,,,,,,,4205.5538415205665,,,,,AMP_prac,left,0.8984149363823235,,,,,,,,,,,,,,,,,,,,,3,,,left,0.46537385997362435,,,,,,,,,,,,,,1021,2019_May_29_1257,mf_amp_cond1,3.0.7,59.98316654231645,
benefit,,&&&&&&&,images/symbols/symbol_43.png,condition_files/AMP_rep3.csv,left,fairness.virtue,,,,,,,,,,,,,,,,,,,,,0,2,2,2,0,67,67,67,,,,,,,,,,,,,4206.27073281887,,,,,AMP_prac,left,0.8984149363823235,,,,,,,,,,,,,,,,,,,,,3,,,left,0.49844848446082324,,,,,,,,,,,,,,1021,2019_May_29_1257,mf_amp_cond1,3.0.7,59.98316654231645,
corruption,,&&&&&&&&&&,images/symbols/symbol_76.png,condition_files/AMP_rep3.csv,right,sanctity.vice,,,,,,,,,,,,,,,,,,,,,0,2,2,2,0,68,68,68,,,,,,,,,,,,,4207.037571213325,,,,,AMP_prac,left,0.8984149363823235,,,,,,,,,,,,,,,,,,,,,3,,,left,0.5489995089592412,,,,,,,,,,,,,,1021,2019_May_29_1257,mf_amp_cond1,3.0.7,59.98316654231645,
honored,,&&&&&&&,images/symbols/symbol_67.png,condition_files/AMP_rep3.csv,left,authority.virtue,,,,,,,,,,,,,,,,,,,,,0,2,2,2,0,69,69,69,,,,,,,,,,,,,4207.821103755385,,,,,AMP_prac,left,0.8984149363823235,,,,,,,,,,,,,,,,,,,,,3,,,left,0.5504139139084145,,,,,,,,,,,,,,1021,2019_May_29_1257,mf_amp_cond1,3.0.7,59.98316654231645,
celebrated,,&&&&&&&&&&,images/symbols/symbol_3.png,condition_files/AMP_rep3.csv,left,authority.virtue,,,,,,,,,,,,,,,,,,,,,0,2,2,2,0,70,70,70,,,,,,,,,,,,,4208.82138503273,,,,,AMP_prac,left,0.8984149363823235,,,,,,,,,,,,,,,,,,,,,3,,,left,0.7816559699131176,,,,,,,,,,,,,,1021,2019_May_29_1257,mf_amp_cond1,3.0.7,59.98316654231645,
civilians,,&&&&&&&&&,images/symbols/symbol_23.png,condition_files/AMP_rep3.csv,right,care.vice,,,,,,,,,,,,,,,,,,,,,0,2,2,2,0,71,71,71,,,,,,,,,,,,,4209.554931349936,,,,,AMP_prac,left,0.8984149363823235,,,,,,,,,,,,,,,,,,,,,3,,,left,0.5151015790179372,,,,,,,,,,,,,,1021,2019_May_29_1257,mf_amp_cond1,3.0.7,59.98316654231645,
support,,&&&&&&&,images/symbols/symbol_27.png,condition_files/AMP_rep3.csv,left,loyalty.virtue,,,,,,,,,,,,,,,,,,,,,0,2,2,2,0,72,72,72,,,,,,,,,,,,,4210.388462625211,,,,,AMP_prac,left,0.8984149363823235,,,,,,,,,,,,,,,,,,,,,3,,,left,0.615513103432022,,,,,,,,,,,,,,1021,2019_May_29_1257,mf_amp_cond1,3.0.7,59.98316654231645,
trust,,&&&&&,images/symbols/symbol_62.png,condition_files/AMP_rep3.csv,left,authority.virtue,,,,,,,,,,,,,,,,,,,,,0,2,2,2,0,73,73,73,,,,,,,,,,,,,4211.505432950566,,,,,AMP_prac,left,0.8984149363823235,,,,,,,,,,,,,,,,,,,,,3,,,left,0.8838055126834661,,,,,,,,,,,,,,1021,2019_May_29_1257,mf_amp_cond1,3.0.7,59.98316654231645,
dignity,,&&&&&&&,images/symbols/symbol_49.png,condition_files/AMP_rep3.csv,left,sanctity.virtue,,,,,,,,,,,,,,,,,,,,,0,2,2,2,0,74,74,74,,,,,,,,,,,,,4213.089188975049,,,,,AMP_prac,left,0.8984149363823235,,,,,,,,,,,,,,,,,,,,,3,,,left,1.3506239257985726,,,,,,,,,,,,,,1021,2019_May_29_1257,mf_amp_cond1,3.0.7,59.98316654231645,
army,,&&&&,images/symbols/symbol_75.png,condition_files/AMP_rep3.csv,right,loyalty.vice,,,,,,,,,,,,,,,,,,,,,0,2,2,2,0,75,75,75,,,,,,,,,,,,,4214.239585762145,,,,,AMP_prac,left,0.8984149363823235,,,,,,,,,,,,,,,,,,,,,3,,,left,0.9172582739265636,,,,,,,,,,,,,,1021,2019_May_29_1257,mf_amp_cond1,3.0.7,59.98316654231645,
values,,&&&&&&,images/symbols/symbol_41.png,condition_files/AMP_rep3.csv,left,sanctity.virtue,,,,,,,,,,,,,,,,,,,,,0,2,2,2,0,76,76,76,,,,,,,,,,,,,4215.023043574882,,,,,AMP_prac,left,0.8984149363823235,,,,,,,,,,,,,,,,,,,,,3,,,left,0.5654518286464736,,,,,,,,,,,,,,1021,2019_May_29_1257,mf_amp_cond1,3.0.7,59.98316654231645,
integrity,,&&&&&&&&&,images/symbols/symbol_66.png,condition_files/AMP_rep3.csv,left,fairness.virtue,,,,,,,,,,,,,,,,,,,,,0,2,2,2,0,77,77,77,,,,,,,,,,,,,4216.023354038363,,,,,AMP_prac,left,0.8984149363823235,,,,,,,,,,,,,,,,,,,,,3,,,left,0.7823355898726732,,,,,,,,,,,,,,1021,2019_May_29_1257,mf_amp_cond1,3.0.7,59.98316654231645,
attacks,,&&&&&&&,images/symbols/symbol_73.png,condition_files/AMP_rep3.csv,right,care.vice,,,,,,,,,,,,,,,,,,,,,0,2,2,2,0,78,78,78,,,,,,,,,,,,,4216.806864129496,,,,,AMP_prac,left,0.8984149363823235,,,,,,,,,,,,,,,,,,,,,3,,,left,0.5650698429672047,,,,,,,,,,,,,,1021,2019_May_29_1257,mf_amp_cond1,3.0.7,59.98316654231645,
friends,,&&&&&&&,images/symbols/symbol_15.png,condition_files/AMP_rep3.csv,left,loyalty.virtue,,,,,,,,,,,,,,,,,,,,,0,2,2,2,0,79,79,79,,,,,,,,,,,,,4217.607080876594,,,,,AMP_prac,left,0.8984149363823235,,,,,,,,,,,,,,,,,,,,,3,,,left,0.5820022906409577,,,,,,,,,,,,,,1021,2019_May_29_1257,mf_amp_cond1,3.0.7,59.98316654231645,
killed,,&&&&&&,images/symbols/symbol_13.png,condition_files/AMP_rep3.csv,right,care.vice,,,,,,,,,,,,,,,,,,,,,0,2,2,2,0,80,80,80,,,,,,,,,,,,,4218.674030338763,,,,,AMP_prac,left,0.8984149363823235,,,,,,,,,,,,,,,,,,,,,3,,,right,0.8486067148623988,,,,,,,,,,,,,,1021,2019_May_29_1257,mf_amp_cond1,3.0.7,59.98316654231645,
improve,,&&&&&&&,images/symbols/symbol_74.png,condition_files/AMP_rep3.csv,left,care.virtue,,,,,,,,,,,,,,,,,,,,,0,2,2,2,0,81,81,81,,,,,,,,,,,,,4219.357553868438,,,,,AMP_prac,left,0.8984149363823235,,,,,,,,,,,,,,,,,,,,,3,,,left,0.45038982736878097,,,,,,,,,,,,,,1021,2019_May_29_1257,mf_amp_cond1,3.0.7,59.98316654231645,
,,,,condition_files/AMP_rep3.csv,,,,,,,,,,,,,,,,,,,,,,,0,2,2,2,,,,,,,,,,,,,,,,,,,,,,,,,,,,,,,,,,,,,,,,,,,,,,,,,,right,4.968244203948416,,,,,,,,,,,,1021,2019_May_29_1257,mf_amp_cond1,3.0.7,59.98316654231645,
accused,,&&&&&&&,images/symbols/symbol_16.png,condition_files/AMP_rep4.csv,right,fairness.vice,,,,,,,,,,,,,,,,,,,,,0,3,3,3,0,0,0,0,,,,,,,,,,,,,4225.542683437234,,,,,AMP_prac,left,0.8984149363823235,,,,,,,,,,,,,,,,,,,,,3,,,left,0.9671935031656176,,,,,,,,,,,,,,1021,2019_May_29_1257,mf_amp_cond1,3.0.7,59.98316654231645,
powerful,,&&&&&&&&,images/symbols/symbol_9.png,condition_files/AMP_rep4.csv,left,authority.virtue,,,,,,,,,,,,,,,,,,,,,0,3,3,3,0,1,1,1,,,,,,,,,,,,,4226.359470531461,,,,,AMP_prac,left,0.8984149363823235,,,,,,,,,,,,,,,,,,,,,3,,,left,0.5982855872716755,,,,,,,,,,,,,,1021,2019_May_29_1257,mf_amp_cond1,3.0.7,59.98316654231645,
violations,,&&&&&&&&&&,images/symbols/symbol_38.png,condition_files/AMP_rep4.csv,right,sanctity.vice,,,,,,,,,,,,,,,,,,,,,0,3,3,3,0,2,2,2,,,,,,,,,,,,,4227.326391416835,,,,,AMP_prac,left,0.8984149363823235,,,,,,,,,,,,,,,,,,,,,3,,,left,0.7487465196754783,,,,,,,,,,,,,,1021,2019_May_29_1257,mf_amp_cond1,3.0.7,59.98316654231645,
freedom,,&&&&&&&,images/symbols/symbol_34.png,condition_files/AMP_rep4.csv,left,sanctity.virtue,,,,,,,,,,,,,,,,,,,,,0,3,3,3,0,3,3,3,,,,,,,,,,,,,4228.45998789568,,,,,AMP_prac,left,0.8984149363823235,,,,,,,,,,,,,,,,,,,,,3,,,left,0.9151562307961285,,,,,,,,,,,,,,1021,2019_May_29_1257,mf_amp_cond1,3.0.7,59.98316654231645,
unpleasant,,&&&&&&&&&,images/symbols/symbol_72.png,condition_files/AMP_rep4.csv,left,control,,,,,,,,,,,,,,,,,,,,,0,3,3,3,0,4,4,4,,,,,,,,,,,,,4229.376908444334,,,,,AMP_prac,left,0.8984149363823235,,,,,,,,,,,,,,,,,,,,,3,,,left,0.683785242610611,,,,,,,,,,,,,,1021,2019_May_29_1257,mf_amp_cond1,3.0.7,59.98316654231645,
good,,&&&&,images/symbols/symbol_29.png,condition_files/AMP_rep4.csv,left,care.virtue,,,,,,,,,,,,,,,,,,,,,0,3,3,3,0,5,5,5,,,,,,,,,,,,,4230.2271665812,,,,,AMP_prac,left,0.8984149363823235,,,,,,,,,,,,,,,,,,,,,3,,,left,0.6313977368408814,,,,,,,,,,,,,,1021,2019_May_29_1257,mf_amp_cond1,3.0.7,59.98316654231645,
interests,,&&&&&&&&&,images/symbols/symbol_42.png,condition_files/AMP_rep4.csv,left,fairness.virtue,,,,,,,,,,,,,,,,,,,,,0,3,3,3,0,6,6,6,,,,,,,,,,,,,4231.077360252035,,,,,AMP_prac,left,0.8984149363823235,,,,,,,,,,,,,,,,,,,,,3,,,left,0.6320289269788191,,,,,,,,,,,,,,1021,2019_May_29_1257,mf_amp_cond1,3.0.7,59.98316654231645,
black,,&&&&&,images/symbols/symbol_37.png,condition_files/AMP_rep4.csv,right,loyalty.vice,,,,,,,,,,,,,,,,,,,,,0,3,3,3,0,7,7,7,,,,,,,,,,,,,4231.894247092307,,,,,AMP_prac,left,0.8984149363823235,,,,,,,,,,,,,,,,,,,,,3,,,left,0.5837396673159674,,,,,,,,,,,,,,1021,2019_May_29_1257,mf_amp_cond1,3.0.7,59.98316654231645,
rhuissed,,&&&&&&&&,images/symbols/symbol_28.png,condition_files/AMP_rep4.csv,None,nonword,,,,,,,,,,,,,,,,,,,,,0,3,3,3,0,8,8,8,,,,,,,,,,,,,4232.727830966702,,,,,AMP_prac,left,0.8984149363823235,,,,,,,,,,,,,,,,,,,,,3,,,left,0.6150227122707292,,,,,,,,,,,,,,1021,2019_May_29_1257,mf_amp_cond1,3.0.7,59.98316654231645,
health,,&&&&&&,images/symbols/symbol_78.png,condition_files/AMP_rep4.csv,left,care.virtue,,,,,,,,,,,,,,,,,,,,,0,3,3,3,0,9,9,9,,,,,,,,,,,,,4233.4447007763665,,,,,AMP_prac,left,0.8984149363823235,,,,,,,,,,,,,,,,,,,,,3,,,left,0.49874227005057037,,,,,,,,,,,,,,1021,2019_May_29_1257,mf_amp_cond1,3.0.7,59.98316654231645,
increase,,&&&&&&&&,images/symbols/symbol_6.png,condition_files/AMP_rep4.csv,left,care.virtue,,,,,,,,,,,,,,,,,,,,,0,3,3,3,0,10,10,10,,,,,,,,,,,,,4234.428258078522,,,,,AMP_prac,left,0.8984149363823235,,,,,,,,,,,,,,,,,,,,,3,,,right,0.7646718852920458,,,,,,,,,,,,,,1021,2019_May_29_1257,mf_amp_cond1,3.0.7,59.98316654231645,
peace,,&&&&&,images/symbols/symbol_40.png,condition_files/AMP_rep4.csv,left,care.virtue,,,,,,,,,,,,,,,,,,,,,0,3,3,3,0,11,11,11,,,,,,,,,,,,,4235.128469341202,,,,,AMP_prac,left,0.8984149363823235,,,,,,,,,,,,,,,,,,,,,3,,,left,0.48199391970410943,,,,,,,,,,,,,,1021,2019_May_29_1257,mf_amp_cond1,3.0.7,59.98316654231645,
spreussed,,&&&&&&&&&,images/symbols/symbol_2.png,condition_files/AMP_rep4.csv,None,nonword,,,,,,,,,,,,,,,,,,,,,0,3,3,3,0,12,12,12,,,,,,,,,,,,,4235.828694074415,,,,,AMP_prac,left,0.8984149363823235,,,,,,,,,,,,,,,,,,,,,3,,,left,0.48203817987814546,,,,,,,,,,,,,,1021,2019_May_29_1257,mf_amp_cond1,3.0.7,59.98316654231645,
peaceful,,&&&&&&&&,images/symbols/symbol_51.png,condition_files/AMP_rep4.csv,left,authority.virtue,,,,,,,,,,,,,,,,,,,,,0,3,3,3,0,13,13,13,,,,,,,,,,,,,4236.545575750992,,,,,AMP_prac,left,0.8984149363823235,,,,,,,,,,,,,,,,,,,,,3,,,left,0.4837925552856177,,,,,,,,,,,,,,1021,2019_May_29_1257,mf_amp_cond1,3.0.7,59.98316654231645,
prinse,,&&&&&&,images/symbols/symbol_35.png,condition_files/AMP_rep4.csv,None,nonword,,,,,,,,,,,,,,,,,,,,,0,3,3,3,0,14,14,14,,,,,,,,,,,,,4237.229011401418,,,,,AMP_prac,left,0.8984149363823235,,,,,,,,,,,,,,,,,,,,,3,,,left,0.4648334353696555,,,,,,,,,,,,,,1021,2019_May_29_1257,mf_amp_cond1,3.0.7,59.98316654231645,
energy,,&&&&&&,images/symbols/symbol_4.png,condition_files/AMP_rep4.csv,left,sanctity.virtue,,,,,,,,,,,,,,,,,,,,,0,3,3,3,0,15,15,15,,,,,,,,,,,,,4237.912543911487,,,,,AMP_prac,left,0.8984149363823235,,,,,,,,,,,,,,,,,,,,,3,,,left,0.46524653141386807,,,,,,,,,,,,,,1021,2019_May_29_1257,mf_amp_cond1,3.0.7,59.98316654231645,
loyalty,,&&&&&&&,images/symbols/symbol_14.png,condition_files/AMP_rep4.csv,left,loyalty.virtue,,,,,,,,,,,,,,,,,,,,,0,3,3,3,0,16,16,16,,,,,,,,,,,,,4238.629427512293,,,,,AMP_prac,left,0.8984149363823235,,,,,,,,,,,,,,,,,,,,,3,,,left,0.49876600387506187,,,,,,,,,,,,,,1021,2019_May_29_1257,mf_amp_cond1,3.0.7,59.98316654231645,
threatened,,&&&&&&&&&&,images/symbols/symbol_70.png,condition_files/AMP_rep4.csv,right,fairness.vice,,,,,,,,,,,,,,,,,,,,,0,3,3,3,0,17,17,17,,,,,,,,,,,,,4239.429623732925,,,,,AMP_prac,left,0.8984149363823235,,,,,,,,,,,,,,,,,,,,,3,,,right,0.5817688015522435,,,,,,,,,,,,,,1021,2019_May_29_1257,mf_amp_cond1,3.0.7,59.98316654231645,
wence,,&&&&&,images/symbols/symbol_69.png,condition_files/AMP_rep4.csv,None,nonword,,,,,,,,,,,,,,,,,,,,,0,3,3,3,0,18,18,18,,,,,,,,,,,,,4240.096449266304,,,,,AMP_prac,left,0.8984149363823235,,,,,,,,,,,,,,,,,,,,,3,,,left,0.4484638632275164,,,,,,,,,,,,,,1021,2019_May_29_1257,mf_amp_cond1,3.0.7,59.98316654231645,
fair,,&&&&,images/symbols/symbol_10.png,condition_files/AMP_rep4.csv,left,fairness.virtue,,,,,,,,,,,,,,,,,,,,,0,3,3,3,0,19,19,19,,,,,,,,,,,,,4240.729955781368,,,,,AMP_prac,left,0.8984149363823235,,,,,,,,,,,,,,,,,,,,,3,,,left,0.4154347820440307,,,,,,,,,,,,,,1021,2019_May_29_1257,mf_amp_cond1,3.0.7,59.98316654231645,
police,,&&&&&&,images/symbols/symbol_44.png,condition_files/AMP_rep4.csv,right,authority.vice,,,,,,,,,,,,,,,,,,,,,0,3,3,3,0,20,20,20,,,,,,,,,,,,,4241.496833304525,,,,,AMP_prac,left,0.8984149363823235,,,,,,,,,,,,,,,,,,,,,3,,,left,0.5484597259201109,,,,,,,,,,,,,,1021,2019_May_29_1257,mf_amp_cond1,3.0.7,59.98316654231645,
love,,&&&&,images/symbols/symbol_46.png,condition_files/AMP_rep4.csv,left,loyalty.virtue,,,,,,,,,,,,,,,,,,,,,0,3,3,3,0,21,21,21,,,,,,,,,,,,,4242.147005101782,,,,,AMP_prac,left,0.8984149363823235,,,,,,,,,,,,,,,,,,,,,3,,,left,0.4320032047107816,,,,,,,,,,,,,,1021,2019_May_29_1257,mf_amp_cond1,3.0.7,59.98316654231645,
prosecution,,&&&&&&&&&&&,images/symbols/symbol_25.png,condition_files/AMP_rep4.csv,right,authority.vice,,,,,,,,,,,,,,,,,,,,,0,3,3,3,0,22,22,22,,,,,,,,,,,,,4242.830387190916,,,,,AMP_prac,left,0.8984149363823235,,,,,,,,,,,,,,,,,,,,,3,,,left,0.4651288246968761,,,,,,,,,,,,,,1021,2019_May_29_1257,mf_amp_cond1,3.0.7,59.98316654231645,
party,,&&&&&,images/symbols/symbol_17.png,condition_files/AMP_rep4.csv,left,loyalty.virtue,,,,,,,,,,,,,,,,,,,,,0,3,3,3,0,23,23,23,,,,,,,,,,,,,4243.614066305105,,,,,AMP_prac,left,0.8984149363823235,,,,,,,,,,,,,,,,,,,,,3,,,left,0.5655265579698607,,,,,,,,,,,,,,1021,2019_May_29_1257,mf_amp_cond1,3.0.7,59.98316654231645,
strong,,&&&&&&,images/symbols/symbol_11.png,condition_files/AMP_rep4.csv,left,loyalty.virtue,,,,,,,,,,,,,,,,,,,,,0,3,3,3,0,24,24,24,,,,,,,,,,,,,4244.347698256373,,,,,AMP_prac,left,0.8984149363823235,,,,,,,,,,,,,,,,,,,,,3,,,left,0.5156782456906512,,,,,,,,,,,,,,1021,2019_May_29_1257,mf_amp_cond1,3.0.7,59.98316654231645,
wraize,,&&&&&&,images/symbols/symbol_19.png,condition_files/AMP_rep4.csv,None,nonword,,,,,,,,,,,,,,,,,,,,,0,3,3,3,0,25,25,25,,,,,,,,,,,,,4245.064671340049,,,,,AMP_prac,left,0.8984149363823235,,,,,,,,,,,,,,,,,,,,,3,,,left,0.4984064692398533,,,,,,,,,,,,,,1021,2019_May_29_1257,mf_amp_cond1,3.0.7,59.98316654231645,
praise,,&&&&&&,images/symbols/symbol_20.png,condition_files/AMP_rep4.csv,left,authority.virtue,,,,,,,,,,,,,,,,,,,,,0,3,3,3,0,26,26,26,,,,,,,,,,,,,4245.848002786399,,,,,AMP_prac,left,0.8984149363823235,,,,,,,,,,,,,,,,,,,,,3,,,right,0.5658389457967132,,,,,,,,,,,,,,1021,2019_May_29_1257,mf_amp_cond1,3.0.7,59.98316654231645,
hate,,&&&&,images/symbols/symbol_71.png,condition_files/AMP_rep4.csv,right,fairness.vice,,,,,,,,,,,,,,,,,,,,,0,3,3,3,0,27,27,27,,,,,,,,,,,,,4247.014979863074,,,,,AMP_prac,left,0.8984149363823235,,,,,,,,,,,,,,,,,,,,,3,,,left,0.9338472231756896,,,,,,,,,,,,,,1021,2019_May_29_1257,mf_amp_cond1,3.0.7,59.98316654231645,
betrayal,,&&&&&&&&,images/symbols/symbol_52.png,condition_files/AMP_rep4.csv,right,loyalty.vice,,,,,,,,,,,,,,,,,,,,,0,3,3,3,0,28,28,28,,,,,,,,,,,,,4248.031916800886,,,,,AMP_prac,left,0.8984149363823235,,,,,,,,,,,,,,,,,,,,,3,,,left,0.7987032376695424,,,,,,,,,,,,,,1021,2019_May_29_1257,mf_amp_cond1,3.0.7,59.98316654231645,
faith,,&&&&&,images/symbols/symbol_32.png,condition_files/AMP_rep4.csv,left,sanctity.virtue,,,,,,,,,,,,,,,,,,,,,0,3,3,3,0,29,29,29,,,,,,,,,,,,,4248.815474680392,,,,,AMP_prac,left,0.8984149363823235,,,,,,,,,,,,,,,,,,,,,3,,,left,0.5653915320290253,,,,,,,,,,,,,,1021,2019_May_29_1257,mf_amp_cond1,3.0.7,59.98316654231645,
protesters,,&&&&&&&&&&,images/symbols/symbol_58.png,condition_files/AMP_rep4.csv,right,authority.vice,,,,,,,,,,,,,,,,,,,,,0,3,3,3,0,30,30,30,,,,,,,,,,,,,4249.432300518383,,,,,AMP_prac,left,0.8984149363823235,,,,,,,,,,,,,,,,,,,,,3,,,left,0.39868226216640323,,,,,,,,,,,,,,1021,2019_May_29_1257,mf_amp_cond1,3.0.7,59.98316654231645,
injured,,&&&&&&&,images/symbols/symbol_30.png,condition_files/AMP_rep4.csv,right,care.vice,,,,,,,,,,,,,,,,,,,,,0,3,3,3,0,31,31,31,,,,,,,,,,,,,4250.199209793354,,,,,AMP_prac,left,0.8984149363823235,,,,,,,,,,,,,,,,,,,,,3,,,left,0.5489683984778821,,,,,,,,,,,,,,1021,2019_May_29_1257,mf_amp_cond1,3.0.7,59.98316654231645,
died,,&&&&,images/symbols/symbol_63.png,condition_files/AMP_rep4.csv,right,care.vice,,,,,,,,,,,,,,,,,,,,,0,3,3,3,0,32,32,32,,,,,,,,,,,,,4250.866046231473,,,,,AMP_prac,left,0.8984149363823235,,,,,,,,,,,,,,,,,,,,,3,,,left,0.4488195492886007,,,,,,,,,,,,,,1021,2019_May_29_1257,mf_amp_cond1,3.0.7,59.98316654231645,
drug,,&&&&,images/symbols/symbol_45.png,condition_files/AMP_rep4.csv,right,sanctity.vice,,,,,,,,,,,,,,,,,,,,,0,3,3,3,0,33,33,33,,,,,,,,,,,,,4251.666232830263,,,,,AMP_prac,left,0.8984149363823235,,,,,,,,,,,,,,,,,,,,,3,,,left,0.5821873499080539,,,,,,,,,,,,,,1021,2019_May_29_1257,mf_amp_cond1,3.0.7,59.98316654231645,
praised,,&&&&&&&,images/symbols/symbol_60.png,condition_files/AMP_rep4.csv,left,loyalty.virtue,,,,,,,,,,,,,,,,,,,,,0,3,3,3,0,34,34,34,,,,,,,,,,,,,4252.416444429662,,,,,AMP_prac,left,0.8984149363823235,,,,,,,,,,,,,,,,,,,,,3,,,left,0.532000029576011,,,,,,,,,,,,,,1021,2019_May_29_1257,mf_amp_cond1,3.0.7,59.98316654231645,
prison,,&&&&&&,images/symbols/symbol_47.png,condition_files/AMP_rep4.csv,right,fairness.vice,,,,,,,,,,,,,,,,,,,,,0,3,3,3,0,35,35,35,,,,,,,,,,,,,4253.2333117056405,,,,,AMP_prac,left,0.8984149363823235,,,,,,,,,,,,,,,,,,,,,3,,,left,0.5987823930336162,,,,,,,,,,,,,,1021,2019_May_29_1257,mf_amp_cond1,3.0.7,59.98316654231645,
help,,&&&&,images/symbols/symbol_48.png,condition_files/AMP_rep4.csv,left,care.virtue,,,,,,,,,,,,,,,,,,,,,0,3,3,3,0,36,36,36,,,,,,,,,,,,,4254.033567902166,,,,,AMP_prac,left,0.8984149363823235,,,,,,,,,,,,,,,,,,,,,3,,,left,0.5822402698686346,,,,,,,,,,,,,,1021,2019_May_29_1257,mf_amp_cond1,3.0.7,59.98316654231645,
embrace,,&&&&&&&,images/symbols/symbol_31.png,condition_files/AMP_rep4.csv,left,authority.virtue,,,,,,,,,,,,,,,,,,,,,0,3,3,3,0,37,37,37,,,,,,,,,,,,,4254.717056151829,,,,,AMP_prac,left,0.8984149363823235,,,,,,,,,,,,,,,,,,,,,3,,,left,0.4503539060242474,,,,,,,,,,,,,,1021,2019_May_29_1257,mf_amp_cond1,3.0.7,59.98316654231645,
penalty,,&&&&&&&,images/symbols/symbol_50.png,condition_files/AMP_rep4.csv,right,authority.vice,,,,,,,,,,,,,,,,,,,,,0,3,3,3,0,38,38,38,,,,,,,,,,,,,4255.483927901834,,,,,AMP_prac,left,0.8984149363823235,,,,,,,,,,,,,,,,,,,,,3,,,left,0.5483724881196395,,,,,,,,,,,,,,1021,2019_May_29_1257,mf_amp_cond1,3.0.7,59.98316654231645,
conspiracy,,&&&&&&&&&&,images/symbols/symbol_36.png,condition_files/AMP_rep4.csv,right,sanctity.vice,,,,,,,,,,,,,,,,,,,,,0,3,3,3,0,39,39,39,,,,,,,,,,,,,4256.2008374816505,,,,,AMP_prac,left,0.8984149363823235,,,,,,,,,,,,,,,,,,,,,3,,,left,0.49891161383129656,,,,,,,,,,,,,,1021,2019_May_29_1257,mf_amp_cond1,3.0.7,59.98316654231645,
agreement,,&&&&&&&&&,images/symbols/symbol_1.png,condition_files/AMP_rep4.csv,left,fairness.virtue,,,,,,,,,,,,,,,,,,,,,0,3,3,3,0,40,40,40,,,,,,,,,,,,,4256.934332161909,,,,,AMP_prac,left,0.8984149363823235,,,,,,,,,,,,,,,,,,,,,3,,,left,0.5153357094386593,,,,,,,,,,,,,,1021,2019_May_29_1257,mf_amp_cond1,3.0.7,59.98316654231645,
koozz,,&&&&&,images/symbols/symbol_24.png,condition_files/AMP_rep4.csv,None,nonword,,,,,,,,,,,,,,,,,,,,,0,3,3,3,0,41,41,41,,,,,,,,,,,,,4257.651218649349,,,,,AMP_prac,left,0.8984149363823235,,,,,,,,,,,,,,,,,,,,,3,,,left,0.49816015106625855,,,,,,,,,,,,,,1021,2019_May_29_1257,mf_amp_cond1,3.0.7,59.98316654231645,
lies,,&&&&,images/symbols/symbol_8.png,condition_files/AMP_rep4.csv,right,fairness.vice,,,,,,,,,,,,,,,,,,,,,0,3,3,3,0,42,42,42,,,,,,,,,,,,,4258.317879329086,,,,,AMP_prac,left,0.8984149363823235,,,,,,,,,,,,,,,,,,,,,3,,,left,0.4485430826898664,,,,,,,,,,,,,,1021,2019_May_29_1257,mf_amp_cond1,3.0.7,59.98316654231645,
critics,,&&&&&&&,images/symbols/symbol_7.png,condition_files/AMP_rep4.csv,right,loyalty.vice,,,,,,,,,,,,,,,,,,,,,0,3,3,3,0,43,43,43,,,,,,,,,,,,,4258.918191267876,,,,,AMP_prac,left,0.8984149363823235,,,,,,,,,,,,,,,,,,,,,3,,,left,0.3821180087979883,,,,,,,,,,,,,,1021,2019_May_29_1257,mf_amp_cond1,3.0.7,59.98316654231645,
crime,,&&&&&,images/symbols/symbol_55.png,condition_files/AMP_rep4.csv,right,fairness.vice,,,,,,,,,,,,,,,,,,,,,0,3,3,3,0,44,44,44,,,,,,,,,,,,,4259.6683810579125,,,,,AMP_prac,left,0.8984149363823235,,,,,,,,,,,,,,,,,,,,,3,,,left,0.5170657095732167,,,,,,,,,,,,,,1021,2019_May_29_1257,mf_amp_cond1,3.0.7,59.98316654231645,
win,,&&&,images/symbols/symbol_5.png,condition_files/AMP_rep4.csv,left,fairness.virtue,,,,,,,,,,,,,,,,,,,,,0,3,3,3,0,45,45,45,,,,,,,,,,,,,4260.50198064791,,,,,AMP_prac,left,0.8984149363823235,,,,,,,,,,,,,,,,,,,,,3,,,left,0.6151147608179599,,,,,,,,,,,,,,1021,2019_May_29_1257,mf_amp_cond1,3.0.7,59.98316654231645,
stailde,,&&&&&&&,images/symbols/symbol_57.png,condition_files/AMP_rep4.csv,None,nonword,,,,,,,,,,,,,,,,,,,,,0,3,3,3,0,46,46,46,,,,,,,,,,,,,4261.135444827145,,,,,AMP_prac,left,0.8984149363823235,,,,,,,,,,,,,,,,,,,,,3,,,left,0.4155014931457117,,,,,,,,,,,,,,1021,2019_May_29_1257,mf_amp_cond1,3.0.7,59.98316654231645,
terrorist,,&&&&&&&&&,images/symbols/symbol_81.png,condition_files/AMP_rep4.csv,right,loyalty.vice,,,,,,,,,,,,,,,,,,,,,0,3,3,3,0,47,47,47,,,,,,,,,,,,,4261.785613096319,,,,,AMP_prac,left,0.8984149363823235,,,,,,,,,,,,,,,,,,,,,3,,,left,0.4320484271738678,,,,,,,,,,,,,,1021,2019_May_29_1257,mf_amp_cond1,3.0.7,59.98316654231645,
refused,,&&&&&&&,images/symbols/symbol_53.png,condition_files/AMP_rep4.csv,right,authority.vice,,,,,,,,,,,,,,,,,,,,,0,3,3,3,0,48,48,48,,,,,,,,,,,,,4262.385775897303,,,,,AMP_prac,left,0.8984149363823235,,,,,,,,,,,,,,,,,,,,,3,,,left,0.3820580330211669,,,,,,,,,,,,,,1021,2019_May_29_1257,mf_amp_cond1,3.0.7,59.98316654231645,
