words,masks,symbols,conditionfile,corr_ans,category,mask,LDT_trials_cond2.thisRepN,LDT_trials_cond2.thisTrialN,LDT_trials_cond2.thisN,LDT_trials_cond2.thisIndex,logo_trials.thisRepN,logo_trials.thisTrialN,logo_trials.thisN,logo_trials.thisIndex,AMP_pracs.thisRepN,AMP_pracs.thisTrialN,AMP_pracs.thisN,AMP_pracs.thisIndex,trials_loop.thisRepN,trials_loop.thisTrialN,trials_loop.thisN,trials_loop.thisIndex,AMP_trials.thisRepN,AMP_trials.thisTrialN,AMP_trials.thisN,AMP_trials.thisIndex,memtask_trials.thisRepN,memtask_trials.thisTrialN,memtask_trials.thisN,memtask_trials.thisIndex,LDT_cond1.thisRepN,LDT_cond1.thisTrialN,LDT_cond1.thisN,LDT_cond1.thisIndex,LDT_pracs.thisRepN,LDT_pracs.thisTrialN,LDT_pracs.thisN,LDT_pracs.thisIndex,LDT_trials.thisRepN,LDT_trials.thisTrialN,LDT_trials.thisN,LDT_trials.thisIndex,begin_key.keys,begin_key.rt,key_resp_instr.keys,key_resp_instr.rt,exp_time,resp_sym_rate.keys,resp_sym_rate.rt,sym_resp_1.keys,sym_resp_1.rt,sym_resp_2.keys,sym_resp_2.rt,sym_resp_trial.keys,sym_resp_trial.rt,symbol_index,resp_AMP_ready1.keys,resp_AMP_ready1.rt,resp_AMP.keys,resp_AMP.rt,task,keypress,RT,prime_dur,resp_AMP_ready.keys,resp_AMP_ready.rt,resp_AMP_trials.keys,resp_AMP_trials.rt,rest_key_resp.keys,rest_key_resp.rt,AMP_nonword_rating.response,AMP_nonword_rating.rt,AMP_word_rating.response,AMP_word_rating.rt,AMP_random_rating.response,AMP_random_rating.rt,key_resp_instr_memtask.keys,key_resp_instr_memtask.rt,resp_memtask.keys,resp_memtask.corr,resp_memtask.rt,corr,key_resp_LDT_instr.keys,key_resp_LDT_instr.rt,resp_LDT_prac.keys,resp_LDT_prac.rt,resp_LDT_ready.keys,resp_LDT_ready.rt,resp_LDT_trial.keys,resp_LDT_trial.rt,LDT_rating.response,LDT_rating.rt,participant ID,date,expName,psychopyVersion,frameRate,
,,,,,,,,,,,,,,,,,,,,,,,,,,,,,,,,,,,,,,,,,,,right,450.6879463514779,,,,,,,,,,,,,,,,,,,,,,,,,,,,,,,,,,,,,,,,,,,,,,,,,1022,2019_May_29_1700,mf_amp_cond1,3.0.7,59.984205165632716,
,,,,,,,,,,,,,,,,,,,,,,,,,,,,,,,,,,,,,,,,,,,,,right,6.018516196287237,,,,,,,,,,,,,,,,,,,,,,,,,,,,,,,,,,,,,,,,,,,,,,,1022,2019_May_29_1700,mf_amp_cond1,3.0.7,59.984205165632716,
,,,,,,,,,,,,,,,,,,,,,,,,,,,,,,,,,,,,,,,,,,,,,,,494.75003840692807,right,3.5345283184433356,,,,,,,,,,,,,,,,,,,,,,,,,,,,,,,,,,,,,,,,,,,,1022,2019_May_29_1700,mf_amp_cond1,3.0.7,59.984205165632716,
,,,,,,,,,,,,,,,,,,,,,,,,,,,,,,,,,,,,,,,,,,,,,,,560.3177029293729,,,left,4.084651012439281,,,,,,,,,,,,,,,,,,,,,,,,,,,,,,,,,,,,,,,,,,1022,2019_May_29_1700,mf_amp_cond1,3.0.7,59.984205165632716,
,,,,,,,,,,,,,,,,,,,,,,,,,,,,,,,,,,,,,,,,,,,,,,,,,,,,right,2.017431177664548,,,,,,,,,,,,,,,,,,,,,,,,,,,,,,,,,,,,,,,,1022,2019_May_29_1700,mf_amp_cond1,3.0.7,59.984205165632716,
,,,,,,,,,,,,,,,,,,,,,,,,,,,,,,,,,,,,,,,,,,,,,,,582.4569304076722,,,,,,,left,1.1005641904193908,56,right,1.5006759316893294,,,,,,,,,,,,,,,,,,,,,,,,,,,,,,,,,,,1022,2019_May_29_1700,mf_amp_cond1,3.0.7,59.984205165632716,
keyboard,&&&&&&&&,images/symbols/symbol_40.png,,,,,,,,,,,,,0,0,0,2,,,,,,,,,,,,,,,,,,,,,,,,,,,,,824.9556553584989,,,,,,,,,,,,right,2.700810380280018,AMP_prac,right,2.700810380280018,1,,,,,,,,,,,,,,,,,,,,,,,,,,,,,1022,2019_May_29_1700,mf_amp_cond1,3.0.7,59.984205165632716,
car,&&&,images/symbols/symbol_9.png,,,,,,,,,,,,,0,1,1,0,,,,,,,,,,,,,,,,,,,,,,,,,,,,,831.7241451749578,,,,,,,,,,,,left,6.550493774819188,AMP_prac,left,6.550493774819188,1,,,,,,,,,,,,,,,,,,,,,,,,,,,,,1022,2019_May_29_1700,mf_amp_cond1,3.0.7,59.984205165632716,
scarf,&&&&&,images/symbols/symbol_54.png,,,,,,,,,,,,,0,2,2,3,,,,,,,,,,,,,,,,,,,,,,,,,,,,,838.0925213259179,,,,,,,,,,,,left,6.135198829811998,AMP_prac,left,6.135198829811998,1,,,,,,,,,,,,,,,,,,,,,,,,,,,,,1022,2019_May_29_1700,mf_amp_cond1,3.0.7,59.984205165632716,
banana,&&&&&&,images/symbols/symbol_68.png,,,,,,,,,,,,,0,3,3,1,,,,,,,,,,,,,,,,,,,,,,,,,,,,,840.1930932137184,,,,,,,,,,,,left,1.867394887492992,AMP_prac,left,1.867394887492992,1,,,,,,,,,,,,,,,,,,,,,,,,,,,,,1022,2019_May_29_1700,mf_amp_cond1,3.0.7,59.984205165632716,
,,,,,,,,,,,,,,,,,,,,,,,,,,,,,,,,,,,,,,,,,,,,,,,,,,,,,,,,,,,,,,,,,right,1.6506532081402838,,,,,,,,,,,,,,,,,,,,,,,,,,,1022,2019_May_29_1700,mf_amp_cond1,3.0.7,59.984205165632716,
mawlde,&&&&&&,images/symbols/symbol_7.png,condition_files/AMP_rep1.csv,None,nonword,,,,,,,,,,,,,,0,0,0,0,0,0,0,0,,,,,,,,,,,,,,,,,,,,,864.0163076717872,,,,,,,,,,,,,,AMP_prac,left,1.867394887492992,1,,,right,1.9007353943306953,,,,,,,,,,,,,,,,,,,,,,,,,1022,2019_May_29_1700,mf_amp_cond1,3.0.7,59.984205165632716,
ability,&&&&&&&,images/symbols/symbol_19.png,condition_files/AMP_rep1.csv,left,authority.virtue,,,,,,,,,,,,,,0,0,0,0,0,1,1,1,,,,,,,,,,,,,,,,,,,,,867.4337816344341,,,,,,,,,,,,,,AMP_prac,left,1.867394887492992,1,,,left,3.1999355980660766,,,,,,,,,,,,,,,,,,,,,,,,,1022,2019_May_29_1700,mf_amp_cond1,3.0.7,59.984205165632716,
rejected,&&&&&&&&,images/symbols/symbol_12.png,condition_files/AMP_rep1.csv,right,authority.vice,,,,,,,,,,,,,,0,0,0,0,0,2,2,2,,,,,,,,,,,,,,,,,,,,,868.8174808260519,,,,,,,,,,,,,,AMP_prac,left,1.867394887492992,1,,,left,1.1505680551053956,,,,,,,,,,,,,,,,,,,,,,,,,1022,2019_May_29_1700,mf_amp_cond1,3.0.7,59.984205165632716,
useful,&&&&&&,images/symbols/symbol_58.png,condition_files/AMP_rep1.csv,left,authority.virtue,,,,,,,,,,,,,,0,0,0,0,0,3,3,3,,,,,,,,,,,,,,,,,,,,,870.6346155881183,,,,,,,,,,,,,,AMP_prac,left,1.867394887492992,1,,,right,1.5839837404200807,,,,,,,,,,,,,,,,,,,,,,,,,1022,2019_May_29_1700,mf_amp_cond1,3.0.7,59.984205165632716,
voter,&&&&&,images/symbols/symbol_62.png,condition_files/AMP_rep1.csv,right,fairness.vice,,,,,,,,,,,,,,0,0,0,0,0,4,4,4,,,,,,,,,,,,,,,,,,,,,873.301997903036,,,,,,,,,,,,,,AMP_prac,left,1.867394887492992,1,,,left,2.434217822854407,,,,,,,,,,,,,,,,,,,,,,,,,1022,2019_May_29_1700,mf_amp_cond1,3.0.7,59.984205165632716,
racist,&&&&&&,images/symbols/symbol_26.png,condition_files/AMP_rep1.csv,right,sanctity.vice,,,,,,,,,,,,,,0,0,0,0,0,5,5,5,,,,,,,,,,,,,,,,,,,,,875.8360133793904,,,,,,,,,,,,,,AMP_prac,left,1.867394887492992,1,,,right,2.3008570780511945,,,,,,,,,,,,,,,,,,,,,,,,,1022,2019_May_29_1700,mf_amp_cond1,3.0.7,59.984205165632716,
free,&&&&,images/symbols/symbol_76.png,condition_files/AMP_rep1.csv,left,fairness.virtue,,,,,,,,,,,,,,0,0,0,0,0,6,6,6,,,,,,,,,,,,,,,,,,,,,877.2530591718387,,,,,,,,,,,,,,AMP_prac,left,1.867394887492992,1,,,right,1.1998846024507657,,,,,,,,,,,,,,,,,,,,,,,,,1022,2019_May_29_1700,mf_amp_cond1,3.0.7,59.984205165632716,
slavery,&&&&&&&,images/symbols/symbol_56.png,condition_files/AMP_rep1.csv,right,loyalty.vice,,,,,,,,,,,,,,0,0,0,0,0,7,7,7,,,,,,,,,,,,,,,,,,,,,878.486723676906,,,,,,,,,,,,,,AMP_prac,left,1.867394887492992,1,,,left,1.0160799559671432,,,,,,,,,,,,,,,,,,,,,,,,,1022,2019_May_29_1700,mf_amp_cond1,3.0.7,59.984205165632716,
penalty,&&&&&&&,images/symbols/symbol_80.png,condition_files/AMP_rep1.csv,right,authority.vice,,,,,,,,,,,,,,0,0,0,0,0,8,8,8,,,,,,,,,,,,,,,,,,,,,881.1374333328567,,,,,,,,,,,,,,AMP_prac,left,1.867394887492992,1,,,right,2.4335920850280672,,,,,,,,,,,,,,,,,,,,,,,,,1022,2019_May_29_1700,mf_amp_cond1,3.0.7,59.984205165632716,
peaceful,&&&&&&&&,images/symbols/symbol_69.png,condition_files/AMP_rep1.csv,left,authority.virtue,,,,,,,,,,,,,,0,0,0,0,0,9,9,9,,,,,,,,,,,,,,,,,,,,,882.2043981899042,,,,,,,,,,,,,,AMP_prac,left,1.867394887492992,1,,,left,0.8338016478810459,,,,,,,,,,,,,,,,,,,,,,,,,1022,2019_May_29_1700,mf_amp_cond1,3.0.7,59.984205165632716,
freazz,&&&&&&,images/symbols/symbol_41.png,condition_files/AMP_rep1.csv,None,nonword,,,,,,,,,,,,,,0,0,0,0,0,10,10,10,,,,,,,,,,,,,,,,,,,,,884.4883423846914,,,,,,,,,,,,,,AMP_prac,left,1.867394887492992,1,,,left,2.066882430226542,,,,,,,,,,,,,,,,,,,,,,,,,1022,2019_May_29_1700,mf_amp_cond1,3.0.7,59.984205165632716,
good,&&&&,images/symbols/symbol_53.png,condition_files/AMP_rep1.csv,left,care.virtue,,,,,,,,,,,,,,0,0,0,0,0,11,11,11,,,,,,,,,,,,,,,,,,,,,885.8387087669689,,,,,,,,,,,,,,AMP_prac,left,1.867394887492992,1,,,left,1.1326317328494042,,,,,,,,,,,,,,,,,,,,,,,,,1022,2019_May_29_1700,mf_amp_cond1,3.0.7,59.984205165632716,
embrace,&&&&&&&,images/symbols/symbol_18.png,condition_files/AMP_rep1.csv,left,authority.virtue,,,,,,,,,,,,,,0,0,0,0,0,12,12,12,,,,,,,,,,,,,,,,,,,,,888.8061610965524,,,,,,,,,,,,,,AMP_prac,left,1.867394887492992,1,,,left,2.7342916862107813,,,,,,,,,,,,,,,,,,,,,,,,,1022,2019_May_29_1700,mf_amp_cond1,3.0.7,59.984205165632716,
energy,&&&&&&,images/symbols/symbol_63.png,condition_files/AMP_rep1.csv,left,sanctity.virtue,,,,,,,,,,,,,,0,0,0,0,0,13,13,13,,,,,,,,,,,,,,,,,,,,,890.0231561498949,,,,,,,,,,,,,,AMP_prac,left,1.867394887492992,1,,,right,0.9996366165578365,,,,,,,,,,,,,,,,,,,,,,,,,1022,2019_May_29_1700,mf_amp_cond1,3.0.7,59.984205165632716,
rebels,&&&&&&,images/symbols/symbol_57.png,condition_files/AMP_rep1.csv,right,authority.vice,,,,,,,,,,,,,,0,0,0,0,0,14,14,14,,,,,,,,,,,,,,,,,,,,,891.5235924986191,,,,,,,,,,,,,,AMP_prac,left,1.867394887492992,1,,,right,1.282972713583149,,,,,,,,,,,,,,,,,,,,,,,,,1022,2019_May_29_1700,mf_amp_cond1,3.0.7,59.984205165632716,
fear,&&&&,images/symbols/symbol_25.png,condition_files/AMP_rep1.csv,right,sanctity.vice,,,,,,,,,,,,,,0,0,0,0,0,15,15,15,,,,,,,,,,,,,,,,,,,,,892.9906299682334,,,,,,,,,,,,,,AMP_prac,left,1.867394887492992,1,,,right,1.2338678458472714,,,,,,,,,,,,,,,,,,,,,,,,,1022,2019_May_29_1700,mf_amp_cond1,3.0.7,59.984205165632716,
attacks,&&&&&&&,images/symbols/symbol_5.png,condition_files/AMP_rep1.csv,right,care.vice,,,,,,,,,,,,,,0,0,0,0,0,16,16,16,,,,,,,,,,,,,,,,,,,,,894.2409543031827,,,,,,,,,,,,,,AMP_prac,left,1.867394887492992,1,,,left,1.0325835917610675,,,,,,,,,,,,,,,,,,,,,,,,,1022,2019_May_29_1700,mf_amp_cond1,3.0.7,59.984205165632716,
promised,&&&&&&&&,images/symbols/symbol_34.png,condition_files/AMP_rep1.csv,left,loyalty.virtue,,,,,,,,,,,,,,0,0,0,0,0,17,17,17,,,,,,,,,,,,,,,,,,,,,895.3579316844698,,,,,,,,,,,,,,AMP_prac,left,1.867394887492992,1,,,left,0.8992869923822582,,,,,,,,,,,,,,,,,,,,,,,,,1022,2019_May_29_1700,mf_amp_cond1,3.0.7,59.984205165632716,
war,&&&,images/symbols/symbol_31.png,condition_files/AMP_rep1.csv,right,sanctity.vice,,,,,,,,,,,,,,0,0,0,0,0,18,18,18,,,,,,,,,,,,,,,,,,,,,896.8249893598258,,,,,,,,,,,,,,AMP_prac,left,1.867394887492992,1,,,right,1.2338970319833606,,,,,,,,,,,,,,,,,,,,,,,,,1022,2019_May_29_1700,mf_amp_cond1,3.0.7,59.984205165632716,
opportunity,&&&&&&&&&&&,images/symbols/symbol_21.png,condition_files/AMP_rep1.csv,left,fairness.virtue,,,,,,,,,,,,,,0,0,0,0,0,19,19,19,,,,,,,,,,,,,,,,,,,,,898.1086766525405,,,,,,,,,,,,,,AMP_prac,left,1.867394887492992,1,,,left,1.0661601535975933,,,,,,,,,,,,,,,,,,,,,,,,,1022,2019_May_29_1700,mf_amp_cond1,3.0.7,59.984205165632716,
promote,&&&&&&&,images/symbols/symbol_81.png,condition_files/AMP_rep1.csv,left,sanctity.virtue,,,,,,,,,,,,,,0,0,0,0,0,20,20,20,,,,,,,,,,,,,,,,,,,,,899.6757574522635,,,,,,,,,,,,,,AMP_prac,left,1.867394887492992,1,,,left,1.3493788645137101,,,,,,,,,,,,,,,,,,,,,,,,,1022,2019_May_29_1700,mf_amp_cond1,3.0.7,59.984205165632716,
values,&&&&&&,images/symbols/symbol_20.png,condition_files/AMP_rep1.csv,left,sanctity.virtue,,,,,,,,,,,,,,0,0,0,0,0,21,21,21,,,,,,,,,,,,,,,,,,,,,901.7096358179115,,,,,,,,,,,,,,AMP_prac,left,1.867394887492992,1,,,left,1.8169529099250212,,,,,,,,,,,,,,,,,,,,,,,,,1022,2019_May_29_1700,mf_amp_cond1,3.0.7,59.984205165632716,
sexual,&&&&&&,images/symbols/symbol_71.png,condition_files/AMP_rep1.csv,right,sanctity.vice,,,,,,,,,,,,,,0,0,0,0,0,22,22,22,,,,,,,,,,,,,,,,,,,,,904.3603493226692,,,,,,,,,,,,,,AMP_prac,left,1.867394887492992,1,,,left,2.417551578488201,,,,,,,,,,,,,,,,,,,,,,,,,1022,2019_May_29_1700,mf_amp_cond1,3.0.7,59.984205165632716,
faith,&&&&&,images/symbols/symbol_27.png,condition_files/AMP_rep1.csv,left,sanctity.virtue,,,,,,,,,,,,,,0,0,0,0,0,23,23,23,,,,,,,,,,,,,,,,,,,,,906.5109298862517,,,,,,,,,,,,,,AMP_prac,left,1.867394887492992,1,,,left,1.9329485467169434,,,,,,,,,,,,,,,,,,,,,,,,,1022,2019_May_29_1700,mf_amp_cond1,3.0.7,59.984205165632716,
ensure,&&&&&&,images/symbols/symbol_28.png,condition_files/AMP_rep1.csv,left,fairness.virtue,,,,,,,,,,,,,,0,0,0,0,0,24,24,24,,,,,,,,,,,,,,,,,,,,,907.9278432184365,,,,,,,,,,,,,,AMP_prac,left,1.867394887492992,1,,,right,1.199577025603503,,,,,,,,,,,,,,,,,,,,,,,,,1022,2019_May_29_1700,mf_amp_cond1,3.0.7,59.984205165632716,
psured,&&&&&&,images/symbols/symbol_51.png,condition_files/AMP_rep1.csv,None,nonword,,,,,,,,,,,,,,0,0,0,0,0,25,25,25,,,,,,,,,,,,,,,,,,,,,909.4117085787002,,,,,,,,,,,,,,AMP_prac,left,1.867394887492992,1,,,right,1.2667266211938113,,,,,,,,,,,,,,,,,,,,,,,,,1022,2019_May_29_1700,mf_amp_cond1,3.0.7,59.984205165632716,
rhailled,&&&&&&&&,images/symbols/symbol_22.png,condition_files/AMP_rep1.csv,None,nonword,,,,,,,,,,,,,,0,0,0,0,0,26,26,26,,,,,,,,,,,,,,,,,,,,,911.4955940163927,,,,,,,,,,,,,,AMP_prac,left,1.867394887492992,1,,,left,1.8663797872141004,,,,,,,,,,,,,,,,,,,,,,,,,1022,2019_May_29_1700,mf_amp_cond1,3.0.7,59.984205165632716,
gryssed,&&&&&&&,images/symbols/symbol_49.png,condition_files/AMP_rep1.csv,None,nonword,,,,,,,,,,,,,,0,0,0,0,0,27,27,27,,,,,,,,,,,,,,,,,,,,,912.7626054428983,,,,,,,,,,,,,,AMP_prac,left,1.867394887492992,1,,,right,1.033841802738607,,,,,,,,,,,,,,,,,,,,,,,,,1022,2019_May_29_1700,mf_amp_cond1,3.0.7,59.984205165632716,
troops,&&&&&&,images/symbols/symbol_23.png,condition_files/AMP_rep1.csv,right,loyalty.vice,,,,,,,,,,,,,,0,0,0,0,0,28,28,28,,,,,,,,,,,,,,,,,,,,,913.8462724656565,,,,,,,,,,,,,,AMP_prac,left,1.867394887492992,1,,,left,0.8659413538407534,,,,,,,,,,,,,,,,,,,,,,,,,1022,2019_May_29_1700,mf_amp_cond1,3.0.7,59.984205165632716,
spauned,&&&&&&&,images/symbols/symbol_8.png,condition_files/AMP_rep1.csv,None,nonword,,,,,,,,,,,,,,0,0,0,0,0,29,29,29,,,,,,,,,,,,,,,,,,,,,915.129904593341,,,,,,,,,,,,,,AMP_prac,left,1.867394887492992,1,,,left,1.0659026100765914,,,,,,,,,,,,,,,,,,,,,,,,,1022,2019_May_29_1700,mf_amp_cond1,3.0.7,59.984205165632716,
love,&&&&,images/symbols/symbol_9.png,condition_files/AMP_rep1.csv,left,loyalty.virtue,,,,,,,,,,,,,,0,0,0,0,0,30,30,30,,,,,,,,,,,,,,,,,,,,,916.2468656176934,,,,,,,,,,,,,,AMP_prac,left,1.867394887492992,1,,,left,0.89940951007884,,,,,,,,,,,,,,,,,,,,,,,,,1022,2019_May_29_1700,mf_amp_cond1,3.0.7,59.984205165632716,
illegal,&&&&&&&,images/symbols/symbol_52.png,condition_files/AMP_rep1.csv,right,fairness.vice,,,,,,,,,,,,,,0,0,0,0,0,31,31,31,,,,,,,,,,,,,,,,,,,,,918.0973607716151,,,,,,,,,,,,,,AMP_prac,left,1.867394887492992,1,,,left,1.617323605925776,,,,,,,,,,,,,,,,,,,,,,,,,1022,2019_May_29_1700,mf_amp_cond1,3.0.7,59.984205165632716,
interests,&&&&&&&&&,images/symbols/symbol_79.png,condition_files/AMP_rep1.csv,left,fairness.virtue,,,,,,,,,,,,,,0,0,0,0,0,32,32,32,,,,,,,,,,,,,,,,,,,,,919.9812092616921,,,,,,,,,,,,,,AMP_prac,left,1.867394887492992,1,,,left,1.6657732288585976,,,,,,,,,,,,,,,,,,,,,,,,,1022,2019_May_29_1700,mf_amp_cond1,3.0.7,59.984205165632716,
critics,&&&&&&&,images/symbols/symbol_50.png,condition_files/AMP_rep1.csv,right,loyalty.vice,,,,,,,,,,,,,,0,0,0,0,0,33,33,33,,,,,,,,,,,,,,,,,,,,,921.6816613901174,,,,,,,,,,,,,,AMP_prac,left,1.867394887492992,1,,,left,1.4829358941642568,,,,,,,,,,,,,,,,,,,,,,,,,1022,2019_May_29_1700,mf_amp_cond1,3.0.7,59.984205165632716,
powerful,&&&&&&&&,images/symbols/symbol_60.png,condition_files/AMP_rep1.csv,left,authority.virtue,,,,,,,,,,,,,,0,0,0,0,0,34,34,34,,,,,,,,,,,,,,,,,,,,,923.6488613077672,,,,,,,,,,,,,,AMP_prac,left,1.867394887492992,1,,,left,1.7496593079995364,,,,,,,,,,,,,,,,,,,,,,,,,1022,2019_May_29_1700,mf_amp_cond1,3.0.7,59.984205165632716,
scandal,&&&&&&&,images/symbols/symbol_24.png,condition_files/AMP_rep1.csv,right,sanctity.vice,,,,,,,,,,,,,,0,0,0,0,0,35,35,35,,,,,,,,,,,,,,,,,,,,,924.6324638323858,,,,,,,,,,,,,,AMP_prac,left,1.867394887492992,1,,,left,0.7504319387953728,,,,,,,,,,,,,,,,,,,,,,,,,1022,2019_May_29_1700,mf_amp_cond1,3.0.7,59.984205165632716,
strong,&&&&&&,images/symbols/symbol_13.png,condition_files/AMP_rep1.csv,left,loyalty.virtue,,,,,,,,,,,,,,0,0,0,0,0,36,36,36,,,,,,,,,,,,,,,,,,,,,925.9328090306371,,,,,,,,,,,,,,AMP_prac,left,1.867394887492992,1,,,left,1.0822548628784716,,,,,,,,,,,,,,,,,,,,,,,,,1022,2019_May_29_1700,mf_amp_cond1,3.0.7,59.984205165632716,
support,&&&&&&&,images/symbols/symbol_68.png,condition_files/AMP_rep1.csv,left,loyalty.virtue,,,,,,,,,,,,,,0,0,0,0,0,37,37,37,,,,,,,,,,,,,,,,,,,,,929.9672159539768,,,,,,,,,,,,,,AMP_prac,left,1.867394887492992,1,,,left,3.8012408275390044,,,,,,,,,,,,,,,,,,,,,,,,,1022,2019_May_29_1700,mf_amp_cond1,3.0.7,59.984205165632716,
men,&&&,images/symbols/symbol_36.png,condition_files/AMP_rep1.csv,right,loyalty.vice,,,,,,,,,,,,,,0,0,0,0,0,38,38,38,,,,,,,,,,,,,,,,,,,,,933.1680826217635,,,,,,,,,,,,,,AMP_prac,left,1.867394887492992,1,,,left,2.967696723411791,,,,,,,,,,,,,,,,,,,,,,,,,1022,2019_May_29_1700,mf_amp_cond1,3.0.7,59.984205165632716,
killed,&&&&&&,images/symbols/symbol_30.png,condition_files/AMP_rep1.csv,right,care.vice,,,,,,,,,,,,,,0,0,0,0,0,39,39,39,,,,,,,,,,,,,,,,,,,,,935.5353939598426,,,,,,,,,,,,,,AMP_prac,left,1.867394887492992,1,,,left,2.149551672046073,,,,,,,,,,,,,,,,,,,,,,,,,1022,2019_May_29_1700,mf_amp_cond1,3.0.7,59.984205165632716,
fighters,&&&&&&&&,images/symbols/symbol_4.png,condition_files/AMP_rep1.csv,right,authority.vice,,,,,,,,,,,,,,0,0,0,0,0,40,40,40,,,,,,,,,,,,,,,,,,,,,937.9693779728841,,,,,,,,,,,,,,AMP_prac,left,1.867394887492992,1,,,left,2.216126525425352,,,,,,,,,,,,,,,,,,,,,,,,,1022,2019_May_29_1700,mf_amp_cond1,3.0.7,59.984205165632716,
failure,&&&&&&&,images/symbols/symbol_35.png,condition_files/AMP_rep1.csv,right,loyalty.vice,,,,,,,,,,,,,,0,0,0,0,0,41,41,41,,,,,,,,,,,,,,,,,,,,,943.7209263613913,,,,,,,,,,,,,,AMP_prac,left,1.867394887492992,1,,,left,5.5340157970786095,,,,,,,,,,,,,,,,,,,,,,,,,1022,2019_May_29_1700,mf_amp_cond1,3.0.7,59.984205165632716,
conspiracy,&&&&&&&&&&,images/symbols/symbol_43.png,condition_files/AMP_rep1.csv,right,sanctity.vice,,,,,,,,,,,,,,0,0,0,0,0,42,42,42,,,,,,,,,,,,,,,,,,,,,944.5711623681709,,,,,,,,,,,,,,AMP_prac,left,1.867394887492992,1,,,right,0.6170657415641472,,,,,,,,,,,,,,,,,,,,,,,,,1022,2019_May_29_1700,mf_amp_cond1,3.0.7,59.984205165632716,
loyalty,&&&&&&&,images/symbols/symbol_66.png,condition_files/AMP_rep1.csv,left,loyalty.virtue,,,,,,,,,,,,,,0,0,0,0,0,43,43,43,,,,,,,,,,,,,,,,,,,,,945.7548044063151,,,,,,,,,,,,,,AMP_prac,left,1.867394887492992,1,,,right,0.9504964689258486,,,,,,,,,,,,,,,,,,,,,,,,,1022,2019_May_29_1700,mf_amp_cond1,3.0.7,59.984205165632716,
safety,&&&&&&,images/symbols/symbol_64.png,condition_files/AMP_rep1.csv,left,care.virtue,,,,,,,,,,,,,,0,0,0,0,0,44,44,44,,,,,,,,,,,,,,,,,,,,,946.8384797680192,,,,,,,,,,,,,,AMP_prac,left,1.867394887492992,1,,,right,0.8655045240884647,,,,,,,,,,,,,,,,,,,,,,,,,1022,2019_May_29_1700,mf_amp_cond1,3.0.7,59.984205165632716,
hate,&&&&,images/symbols/symbol_44.png,condition_files/AMP_rep1.csv,right,fairness.vice,,,,,,,,,,,,,,0,0,0,0,0,45,45,45,,,,,,,,,,,,,,,,,,,,,949.9392636562698,,,,,,,,,,,,,,AMP_prac,left,1.867394887492992,1,,,right,2.883202867116779,,,,,,,,,,,,,,,,,,,,,,,,,1022,2019_May_29_1700,mf_amp_cond1,3.0.7,59.984205165632716,
shot,&&&&,images/symbols/symbol_3.png,condition_files/AMP_rep1.csv,right,care.vice,,,,,,,,,,,,,,0,0,0,0,0,46,46,46,,,,,,,,,,,,,,,,,,,,,951.2061644321075,,,,,,,,,,,,,,AMP_prac,left,1.867394887492992,1,,,left,1.0493197545874864,,,,,,,,,,,,,,,,,,,,,,,,,1022,2019_May_29_1700,mf_amp_cond1,3.0.7,59.984205165632716,
torture,&&&&&&&,images/symbols/symbol_48.png,condition_files/AMP_rep1.csv,right,care.vice,,,,,,,,,,,,,,0,0,0,0,0,47,47,47,,,,,,,,,,,,,,,,,,,,,952.6733311545104,,,,,,,,,,,,,,AMP_prac,left,1.867394887492992,1,,,right,1.2495744758052751,,,,,,,,,,,,,,,,,,,,,,,,,1022,2019_May_29_1700,mf_amp_cond1,3.0.7,59.984205165632716,
protect,&&&&&&&,images/symbols/symbol_46.png,condition_files/AMP_rep1.csv,left,fairness.virtue,,,,,,,,,,,,,,0,0,0,0,0,48,48,48,,,,,,,,,,,,,,,,,,,,,953.7736275381176,,,,,,,,,,,,,,AMP_prac,left,1.867394887492992,1,,,left,0.8828032414894551,,,,,,,,,,,,,,,,,,,,,,,,,1022,2019_May_29_1700,mf_amp_cond1,3.0.7,59.984205165632716,
pleasant,&&&&&&&,images/symbols/symbol_75.png,condition_files/AMP_rep1.csv,right,control,,,,,,,,,,,,,,0,0,0,0,0,49,49,49,,,,,,,,,,,,,,,,,,,,,956.4743420210434,,,,,,,,,,,,,,AMP_prac,left,1.867394887492992,1,,,right,2.46755127387587,,,,,,,,,,,,,,,,,,,,,,,,,1022,2019_May_29_1700,mf_amp_cond1,3.0.7,59.984205165632716,
spreussed,&&&&&&&&&,images/symbols/symbol_67.png,condition_files/AMP_rep1.csv,None,nonword,,,,,,,,,,,,,,0,0,0,0,0,50,50,50,,,,,,,,,,,,,,,,,,,,,958.9083385424456,,,,,,,,,,,,,,AMP_prac,left,1.867394887492992,1,,,right,2.215742615517229,,,,,,,,,,,,,,,,,,,,,,,,,1022,2019_May_29_1700,mf_amp_cond1,3.0.7,59.984205165632716,
hand,&&&&,images/symbols/symbol_2.png,condition_files/AMP_rep1.csv,left,sanctity.virtue,,,,,,,,,,,,,,0,0,0,0,0,51,51,51,,,,,,,,,,,,,,,,,,,,,960.5087649807101,,,,,,,,,,,,,,AMP_prac,left,1.867394887492992,1,,,left,1.3672683608019724,,,,,,,,,,,,,,,,,,,,,,,,,1022,2019_May_29_1700,mf_amp_cond1,3.0.7,59.984205165632716,
strength,&&&&&&&&,images/symbols/symbol_37.png,condition_files/AMP_rep1.csv,left,sanctity.virtue,,,,,,,,,,,,,,0,0,0,0,0,52,52,52,,,,,,,,,,,,,,,,,,,,,961.5757336864481,,,,,,,,,,,,,,AMP_prac,left,1.867394887492992,1,,,left,0.8338058172957972,,,,,,,,,,,,,,,,,,,,,,,,,1022,2019_May_29_1700,mf_amp_cond1,3.0.7,59.984205165632716,
benefit,&&&&&&&,images/symbols/symbol_16.png,condition_files/AMP_rep1.csv,left,fairness.virtue,,,,,,,,,,,,,,0,0,0,0,0,53,53,53,,,,,,,,,,,,,,,,,,,,,963.3761970724445,,,,,,,,,,,,,,AMP_prac,left,1.867394887492992,1,,,left,1.5826049362076446,,,,,,,,,,,,,,,,,,,,,,,,,1022,2019_May_29_1700,mf_amp_cond1,3.0.7,59.984205165632716,
suicide,&&&&&&&,images/symbols/symbol_17.png,condition_files/AMP_rep1.csv,right,care.vice,,,,,,,,,,,,,,0,0,0,0,0,54,54,54,,,,,,,,,,,,,,,,,,,,,964.69327266037,,,,,,,,,,,,,,AMP_prac,left,1.867394887492992,1,,,right,1.0994887936394662,,,,,,,,,,,,,,,,,,,,,,,,,1022,2019_May_29_1700,mf_amp_cond1,3.0.7,59.984205165632716,
restore,&&&&&&&,images/symbols/symbol_6.png,condition_files/AMP_rep1.csv,left,care.virtue,,,,,,,,,,,,,,0,0,0,0,0,55,55,55,,,,,,,,,,,,,,,,,,,,,965.7268418454332,,,,,,,,,,,,,,AMP_prac,left,1.867394887492992,1,,,left,0.8160808540415019,,,,,,,,,,,,,,,,,,,,,,,,,1022,2019_May_29_1700,mf_amp_cond1,3.0.7,59.984205165632716,
blamed,&&&&&&,images/symbols/symbol_11.png,condition_files/AMP_rep1.csv,right,loyalty.vice,,,,,,,,,,,,,,0,0,0,0,0,56,56,56,,,,,,,,,,,,,,,,,,,,,966.8771456218092,,,,,,,,,,,,,,AMP_prac,left,1.867394887492992,1,,,left,0.9328927402384579,,,,,,,,,,,,,,,,,,,,,,,,,1022,2019_May_29_1700,mf_amp_cond1,3.0.7,59.984205165632716,
terrorists,&&&&&&&&&&,images/symbols/symbol_39.png,condition_files/AMP_rep1.csv,right,fairness.vice,,,,,,,,,,,,,,0,0,0,0,0,57,57,57,,,,,,,,,,,,,,,,,,,,,969.4612066573463,,,,,,,,,,,,,,AMP_prac,left,1.867394887492992,1,,,left,2.366518180933781,,,,,,,,,,,,,,,,,,,,,,,,,1022,2019_May_29_1700,mf_amp_cond1,3.0.7,59.984205165632716,
accused,&&&&&&&,images/symbols/symbol_1.png,condition_files/AMP_rep1.csv,right,fairness.vice,,,,,,,,,,,,,,0,0,0,0,0,58,58,58,,,,,,,,,,,,,,,,,,,,,970.511469990015,,,,,,,,,,,,,,AMP_prac,left,1.867394887492992,1,,,left,0.8327336277579889,,,,,,,,,,,,,,,,,,,,,,,,,1022,2019_May_29_1700,mf_amp_cond1,3.0.7,59.984205165632716,
lies,&&&&,images/symbols/symbol_54.png,condition_files/AMP_rep1.csv,right,fairness.vice,,,,,,,,,,,,,,0,0,0,0,0,59,59,59,,,,,,,,,,,,,,,,,,,,,971.7951309831114,,,,,,,,,,,,,,AMP_prac,left,1.867394887492992,1,,,right,1.0505125373601913,,,,,,,,,,,,,,,,,,,,,,,,,1022,2019_May_29_1700,mf_amp_cond1,3.0.7,59.984205165632716,
care,&&&&,images/symbols/symbol_78.png,condition_files/AMP_rep1.csv,left,care.virtue,,,,,,,,,,,,,,0,0,0,0,0,60,60,60,,,,,,,,,,,,,,,,,,,,,973.0288092794362,,,,,,,,,,,,,,AMP_prac,left,1.867394887492992,1,,,right,1.0154112406307831,,,,,,,,,,,,,,,,,,,,,,,,,1022,2019_May_29_1700,mf_amp_cond1,3.0.7,59.984205165632716,
help,&&&&,images/symbols/symbol_55.png,condition_files/AMP_rep1.csv,left,care.virtue,,,,,,,,,,,,,,0,0,0,0,0,61,61,61,,,,,,,,,,,,,,,,,,,,,974.7625996697461,,,,,,,,,,,,,,AMP_prac,left,1.867394887492992,1,,,right,1.516015970846638,,,,,,,,,,,,,,,,,,,,,,,,,1022,2019_May_29_1700,mf_amp_cond1,3.0.7,59.984205165632716,
compassion,&&&&&&&&&&,images/symbols/symbol_47.png,condition_files/AMP_rep1.csv,left,care.virtue,,,,,,,,,,,,,,0,0,0,0,0,62,62,62,,,,,,,,,,,,,,,,,,,,,976.3797019742196,,,,,,,,,,,,,,AMP_prac,left,1.867394887492992,1,,,right,1.3993917097104713,,,,,,,,,,,,,,,,,,,,,,,,,1022,2019_May_29_1700,mf_amp_cond1,3.0.7,59.984205165632716,
hope,&&&&,images/symbols/symbol_45.png,condition_files/AMP_rep1.csv,left,loyalty.virtue,,,,,,,,,,,,,,0,0,0,0,0,63,63,63,,,,,,,,,,,,,,,,,,,,,977.9467840568395,,,,,,,,,,,,,,AMP_prac,left,1.867394887492992,1,,,left,1.3494077299255878,,,,,,,,,,,,,,,,,,,,,,,,,1022,2019_May_29_1700,mf_amp_cond1,3.0.7,59.984205165632716,
honored,&&&&&&&,images/symbols/symbol_42.png,condition_files/AMP_rep1.csv,left,authority.virtue,,,,,,,,,,,,,,0,0,0,0,0,64,64,64,,,,,,,,,,,,,,,,,,,,,981.6144489321159,,,,,,,,,,,,,,AMP_prac,left,1.867394887492992,1,,,right,3.449965505860746,,,,,,,,,,,,,,,,,,,,,,,,,1022,2019_May_29_1700,mf_amp_cond1,3.0.7,59.984205165632716,
fraud,&&&&&,images/symbols/symbol_59.png,condition_files/AMP_rep1.csv,right,fairness.vice,,,,,,,,,,,,,,0,0,0,0,0,65,65,65,,,,,,,,,,,,,,,,,,,,,983.1315069441916,,,,,,,,,,,,,,AMP_prac,left,1.867394887492992,1,,,left,1.2838960859226063,,,,,,,,,,,,,,,,,,,,,,,,,1022,2019_May_29_1700,mf_amp_cond1,3.0.7,59.984205165632716,
officers,&&&&&&&&,images/symbols/symbol_10.png,condition_files/AMP_rep1.csv,right,authority.vice,,,,,,,,,,,,,,0,0,0,0,0,66,66,66,,,,,,,,,,,,,,,,,,,,,984.3652012768434,,,,,,,,,,,,,,AMP_prac,left,1.867394887492992,1,,,right,1.0157069506822154,,,,,,,,,,,,,,,,,,,,,,,,,1022,2019_May_29_1700,mf_amp_cond1,3.0.7,59.984205165632716,
death,&&&&&,images/symbols/symbol_40.png,condition_files/AMP_rep1.csv,right,care.vice,,,,,,,,,,,,,,0,0,0,0,0,67,67,67,,,,,,,,,,,,,,,,,,,,,987.2993031569058,,,,,,,,,,,,,,AMP_prac,left,1.867394887492992,1,,,right,2.716583400615491,,,,,,,,,,,,,,,,,,,,,,,,,1022,2019_May_29_1700,mf_amp_cond1,3.0.7,59.984205165632716,
encourage,&&&&&&&&&,images/symbols/symbol_14.png,condition_files/AMP_rep1.csv,left,authority.virtue,,,,,,,,,,,,,,0,0,0,0,0,68,68,68,,,,,,,,,,,,,,,,,,,,,988.5162943616742,,,,,,,,,,,,,,AMP_prac,left,1.867394887492992,1,,,right,0.9992713088868186,,,,,,,,,,,,,,,,,,,,,,,,,1022,2019_May_29_1700,mf_amp_cond1,3.0.7,59.984205165632716,
protesters,&&&&&&&&&&,images/symbols/symbol_29.png,condition_files/AMP_rep1.csv,right,authority.vice,,,,,,,,,,,,,,0,0,0,0,0,69,69,69,,,,,,,,,,,,,,,,,,,,,989.933346889331,,,,,,,,,,,,,,AMP_prac,left,1.867394887492992,1,,,right,1.199395173578523,,,,,,,,,,,,,,,,,,,,,,,,,1022,2019_May_29_1700,mf_amp_cond1,3.0.7,59.984205165632716,
improve,&&&&&&&,images/symbols/symbol_15.png,condition_files/AMP_rep1.csv,left,care.virtue,,,,,,,,,,,,,,0,0,0,0,0,70,70,70,,,,,,,,,,,,,,,,,,,,,991.0669818554306,,,,,,,,,,,,,,AMP_prac,left,1.867394887492992,1,,,right,0.9161017332226038,,,,,,,,,,,,,,,,,,,,,,,,,1022,2019_May_29_1700,mf_amp_cond1,3.0.7,59.984205165632716,
arrests,&&&&&&&,images/symbols/symbol_74.png,condition_files/AMP_rep1.csv,right,authority.vice,,,,,,,,,,,,,,0,0,0,0,0,71,71,71,,,,,,,,,,,,,,,,,,,,,992.233963743085,,,,,,,,,,,,,,AMP_prac,left,1.867394887492992,1,,,left,0.9338148296810687,,,,,,,,,,,,,,,,,,,,,,,,,1022,2019_May_29_1700,mf_amp_cond1,3.0.7,59.984205165632716,
knapps,&&&&&&,images/symbols/symbol_61.png,condition_files/AMP_rep1.csv,None,nonword,,,,,,,,,,,,,,0,0,0,0,0,72,72,72,,,,,,,,,,,,,,,,,,,,,993.2675688496092,,,,,,,,,,,,,,AMP_prac,left,1.867394887492992,1,,,left,0.8004293888807297,,,,,,,,,,,,,,,,,,,,,,,,,1022,2019_May_29_1700,mf_amp_cond1,3.0.7,59.984205165632716,
stintz,&&&&&&,images/symbols/symbol_65.png,condition_files/AMP_rep1.csv,None,nonword,,,,,,,,,,,,,,0,0,0,0,0,73,73,73,,,,,,,,,,,,,,,,,,,,,994.3345359516097,,,,,,,,,,,,,,AMP_prac,left,1.867394887492992,1,,,left,0.8488276955904439,,,,,,,,,,,,,,,,,,,,,,,,,1022,2019_May_29_1700,mf_amp_cond1,3.0.7,59.984205165632716,
unpleasant,&&&&&&&&&,images/symbols/symbol_77.png,condition_files/AMP_rep1.csv,left,control,,,,,,,,,,,,,,0,0,0,0,0,74,74,74,,,,,,,,,,,,,,,,,,,,,995.4515037112869,,,,,,,,,,,,,,AMP_prac,left,1.867394887492992,1,,,right,0.8995535162976012,,,,,,,,,,,,,,,,,,,,,,,,,1022,2019_May_29_1700,mf_amp_cond1,3.0.7,59.984205165632716,
army,&&&&,images/symbols/symbol_32.png,condition_files/AMP_rep1.csv,right,loyalty.vice,,,,,,,,,,,,,,0,0,0,0,0,75,75,75,,,,,,,,,,,,,,,,,,,,,997.5687293350929,,,,,,,,,,,,,,AMP_prac,left,1.867394887492992,1,,,right,1.8996879007900134,,,,,,,,,,,,,,,,,,,,,,,,,1022,2019_May_29_1700,mf_amp_cond1,3.0.7,59.984205165632716,
party,&&&&&,images/symbols/symbol_33.png,condition_files/AMP_rep1.csv,left,loyalty.virtue,,,,,,,,,,,,,,0,0,0,0,0,76,76,76,,,,,,,,,,,,,,,,,,,,,998.6190099871019,,,,,,,,,,,,,,AMP_prac,left,1.867394887492992,1,,,left,0.8326621056767181,,,,,,,,,,,,,,,,,,,,,,,,,1022,2019_May_29_1700,mf_amp_cond1,3.0.7,59.984205165632716,
clean,&&&&&,images/symbols/symbol_72.png,condition_files/AMP_rep1.csv,left,sanctity.virtue,,,,,,,,,,,,,,0,0,0,0,0,77,77,77,,,,,,,,,,,,,,,,,,,,,999.8359992674086,,,,,,,,,,,,,,AMP_prac,left,1.867394887492992,1,,,right,0.9838180530350655,,,,,,,,,,,,,,,,,,,,,,,,,1022,2019_May_29_1700,mf_amp_cond1,3.0.7,59.984205165632716,
wheighlde,&&&&&&&&&,images/symbols/symbol_73.png,condition_files/AMP_rep1.csv,None,nonword,,,,,,,,,,,,,,0,0,0,0,0,78,78,78,,,,,,,,,,,,,,,,,,,,,1001.4197921754094,,,,,,,,,,,,,,AMP_prac,left,1.867394887492992,1,,,right,1.3657089873449877,,,,,,,,,,,,,,,,,,,,,,,,,1022,2019_May_29_1700,mf_amp_cond1,3.0.7,59.984205165632716,
died,&&&&,images/symbols/symbol_38.png,condition_files/AMP_rep1.csv,right,care.vice,,,,,,,,,,,,,,0,0,0,0,0,79,79,79,,,,,,,,,,,,,,,,,,,,,1002.3700237241574,,,,,,,,,,,,,,AMP_prac,left,1.867394887492992,1,,,right,0.7327428967691958,,,,,,,,,,,,,,,,,,,,,,,,,1022,2019_May_29_1700,mf_amp_cond1,3.0.7,59.984205165632716,
promises,&&&&&&&&,images/symbols/symbol_82.png,condition_files/AMP_rep1.csv,left,fairness.virtue,,,,,,,,,,,,,,0,0,0,0,0,80,80,80,,,,,,,,,,,,,,,,,,,,,1004.0871562089305,,,,,,,,,,,,,,AMP_prac,left,1.867394887492992,1,,,right,1.4999985567992553,,,,,,,,,,,,,,,,,,,,,,,,,1022,2019_May_29_1700,mf_amp_cond1,3.0.7,59.984205165632716,
violations,&&&&&&&&&&,images/symbols/symbol_70.png,condition_files/AMP_rep1.csv,right,sanctity.vice,,,,,,,,,,,,,,0,0,0,0,0,81,81,81,,,,,,,,,,,,,,,,,,,,,1005.9043009134475,,,,,,,,,,,,,,AMP_prac,left,1.867394887492992,1,,,left,1.5996412992244586,,,,,,,,,,,,,,,,,,,,,,,,,1022,2019_May_29_1700,mf_amp_cond1,3.0.7,59.984205165632716,
,,,condition_files/AMP_rep1.csv,,,,,,,,,,,,,,,,0,0,0,0,,,,,,,,,,,,,,,,,,,,,,,,,,,,,,,,,,,,,,,,,,,,,,,right,14.77088211721275,,,,,,,,,,,,,,,,,,,,,,,1022,2019_May_29_1700,mf_amp_cond1,3.0.7,59.984205165632716,
mawlde,&&&&&&,images/symbols/symbol_7.png,condition_files/AMP_rep2.csv,None,nonword,,,,,,,,,,,,,,0,1,1,1,0,0,0,0,,,,,,,,,,,,,,,,,,,,,1025.6097599071218,,,,,,,,,,,,,,AMP_prac,left,1.867394887492992,1,,,right,4.668165850453079,,,,,,,,,,,,,,,,,,,,,,,,,1022,2019_May_29_1700,mf_amp_cond1,3.0.7,59.984205165632716,
ability,&&&&&&&,images/symbols/symbol_19.png,condition_files/AMP_rep2.csv,left,authority.virtue,,,,,,,,,,,,,,0,1,1,1,0,1,1,1,,,,,,,,,,,,,,,,,,,,,1030.4775919450913,,,,,,,,,,,,,,AMP_prac,left,1.867394887492992,1,,,left,4.649834713549353,,,,,,,,,,,,,,,,,,,,,,,,,1022,2019_May_29_1700,mf_amp_cond1,3.0.7,59.984205165632716,
rejected,&&&&&&&&,images/symbols/symbol_12.png,condition_files/AMP_rep2.csv,right,authority.vice,,,,,,,,,,,,,,0,1,1,1,0,2,2,2,,,,,,,,,,,,,,,,,,,,,1032.4781227478525,,,,,,,,,,,,,,AMP_prac,left,1.867394887492992,1,,,left,1.767381705576554,,,,,,,,,,,,,,,,,,,,,,,,,1022,2019_May_29_1700,mf_amp_cond1,3.0.7,59.984205165632716,
useful,&&&&&&,images/symbols/symbol_58.png,condition_files/AMP_rep2.csv,left,authority.virtue,,,,,,,,,,,,,,0,1,1,1,0,3,3,3,,,,,,,,,,,,,,,,,,,,,1035.3122229923028,,,,,,,,,,,,,,AMP_prac,left,1.867394887492992,1,,,right,2.6009219610132277,,,,,,,,,,,,,,,,,,,,,,,,,1022,2019_May_29_1700,mf_amp_cond1,3.0.7,59.984205165632716,
voter,&&&&&,images/symbols/symbol_62.png,condition_files/AMP_rep2.csv,right,fairness.vice,,,,,,,,,,,,,,0,1,1,1,0,4,4,4,,,,,,,,,,,,,,,,,,,,,1038.1963287050603,,,,,,,,,,,,,,AMP_prac,left,1.867394887492992,1,,,left,2.6509482766268775,,,,,,,,,,,,,,,,,,,,,,,,,1022,2019_May_29_1700,mf_amp_cond1,3.0.7,59.984205165632716,
racist,&&&&&&,images/symbols/symbol_26.png,condition_files/AMP_rep2.csv,right,sanctity.vice,,,,,,,,,,,,,,0,1,1,1,0,5,5,5,,,,,,,,,,,,,,,,,,,,,1039.930112680886,,,,,,,,,,,,,,AMP_prac,left,1.867394887492992,1,,,right,1.5006313506746665,,,,,,,,,,,,,,,,,,,,,,,,,1022,2019_May_29_1700,mf_amp_cond1,3.0.7,59.984205165632716,
free,&&&&,images/symbols/symbol_76.png,condition_files/AMP_rep2.csv,left,fairness.virtue,,,,,,,,,,,,,,0,1,1,1,0,6,6,6,,,,,,,,,,,,,,,,,,,,,1042.5475135819288,,,,,,,,,,,,,,AMP_prac,left,1.867394887492992,1,,,left,2.399724624119699,,,,,,,,,,,,,,,,,,,,,,,,,1022,2019_May_29_1700,mf_amp_cond1,3.0.7,59.984205165632716,
slavery,&&&&&&&,images/symbols/symbol_56.png,condition_files/AMP_rep2.csv,right,loyalty.vice,,,,,,,,,,,,,,0,1,1,1,0,7,7,7,,,,,,,,,,,,,,,,,,,,,1043.6978433370823,,,,,,,,,,,,,,AMP_prac,left,1.867394887492992,1,,,left,0.9171825824305415,,,,,,,,,,,,,,,,,,,,,,,,,1022,2019_May_29_1700,mf_amp_cond1,3.0.7,59.984205165632716,
penalty,&&&&&&&,images/symbols/symbol_80.png,condition_files/AMP_rep2.csv,right,authority.vice,,,,,,,,,,,,,,0,1,1,1,0,8,8,8,,,,,,,,,,,,,,,,,,,,,1045.1315322816372,,,,,,,,,,,,,,AMP_prac,left,1.867394887492992,1,,,right,1.2161739929579198,,,,,,,,,,,,,,,,,,,,,,,,,1022,2019_May_29_1700,mf_amp_cond1,3.0.7,59.984205165632716,
peaceful,&&&&&&&&,images/symbols/symbol_69.png,condition_files/AMP_rep2.csv,left,authority.virtue,,,,,,,,,,,,,,0,1,1,1,0,9,9,9,,,,,,,,,,,,,,,,,,,,,1048.9492090718122,,,,,,,,,,,,,,AMP_prac,left,1.867394887492992,1,,,right,3.5845241650240496,,,,,,,,,,,,,,,,,,,,,,,,,1022,2019_May_29_1700,mf_amp_cond1,3.0.7,59.984205165632716,
freazz,&&&&&&,images/symbols/symbol_41.png,condition_files/AMP_rep2.csv,None,nonword,,,,,,,,,,,,,,0,1,1,1,0,10,10,10,,,,,,,,,,,,,,,,,,,,,1051.8166536717908,,,,,,,,,,,,,,AMP_prac,left,1.867394887492992,1,,,left,2.6498674276517704,,,,,,,,,,,,,,,,,,,,,,,,,1022,2019_May_29_1700,mf_amp_cond1,3.0.7,59.984205165632716,
good,&&&&,images/symbols/symbol_53.png,condition_files/AMP_rep2.csv,left,care.virtue,,,,,,,,,,,,,,0,1,1,1,0,11,11,11,,,,,,,,,,,,,,,,,,,,,1054.2839765881654,,,,,,,,,,,,,,AMP_prac,left,1.867394887492992,1,,,left,2.249923105817288,,,,,,,,,,,,,,,,,,,,,,,,,1022,2019_May_29_1700,mf_amp_cond1,3.0.7,59.984205165632716,
embrace,&&&&&&&,images/symbols/symbol_18.png,condition_files/AMP_rep2.csv,left,authority.virtue,,,,,,,,,,,,,,0,1,1,1,0,12,12,12,,,,,,,,,,,,,,,,,,,,,1056.3512012338033,,,,,,,,,,,,,,AMP_prac,left,1.867394887492992,1,,,right,1.8340720204869285,,,,,,,,,,,,,,,,,,,,,,,,,1022,2019_May_29_1700,mf_amp_cond1,3.0.7,59.984205165632716,
energy,&&&&&&,images/symbols/symbol_63.png,condition_files/AMP_rep2.csv,left,sanctity.virtue,,,,,,,,,,,,,,0,1,1,1,0,13,13,13,,,,,,,,,,,,,,,,,,,,,1057.3681279083248,,,,,,,,,,,,,,AMP_prac,left,1.867394887492992,1,,,right,0.7989857979118824,,,,,,,,,,,,,,,,,,,,,,,,,1022,2019_May_29_1700,mf_amp_cond1,3.0.7,59.984205165632716,
rebels,&&&&&&,images/symbols/symbol_57.png,condition_files/AMP_rep2.csv,right,authority.vice,,,,,,,,,,,,,,0,1,1,1,0,14,14,14,,,,,,,,,,,,,,,,,,,,,1060.4856290364405,,,,,,,,,,,,,,AMP_prac,left,1.867394887492992,1,,,right,2.9001349938334897,,,,,,,,,,,,,,,,,,,,,,,,,1022,2019_May_29_1700,mf_amp_cond1,3.0.7,59.984205165632716,
fear,&&&&,images/symbols/symbol_25.png,condition_files/AMP_rep2.csv,right,sanctity.vice,,,,,,,,,,,,,,0,1,1,1,0,15,15,15,,,,,,,,,,,,,,,,,,,,,1063.9032152534928,,,,,,,,,,,,,,AMP_prac,left,1.867394887492992,1,,,right,3.184417876182124,,,,,,,,,,,,,,,,,,,,,,,,,1022,2019_May_29_1700,mf_amp_cond1,3.0.7,59.984205165632716,
attacks,&&&&&&&,images/symbols/symbol_5.png,condition_files/AMP_rep2.csv,right,care.vice,,,,,,,,,,,,,,0,1,1,1,0,16,16,16,,,,,,,,,,,,,,,,,,,,,1064.9868444304448,,,,,,,,,,,,,,AMP_prac,left,1.867394887492992,1,,,left,0.8657248632516712,,,,,,,,,,,,,,,,,,,,,,,,,1022,2019_May_29_1700,mf_amp_cond1,3.0.7,59.984205165632716,
promised,&&&&&&&&,images/symbols/symbol_34.png,condition_files/AMP_rep2.csv,left,loyalty.virtue,,,,,,,,,,,,,,0,1,1,1,0,17,17,17,,,,,,,,,,,,,,,,,,,,,1066.103809944936,,,,,,,,,,,,,,AMP_prac,left,1.867394887492992,1,,,right,0.8990474094171077,,,,,,,,,,,,,,,,,,,,,,,,,1022,2019_May_29_1700,mf_amp_cond1,3.0.7,59.984205165632716,
war,&&&,images/symbols/symbol_31.png,condition_files/AMP_rep2.csv,right,sanctity.vice,,,,,,,,,,,,,,0,1,1,1,0,18,18,18,,,,,,,,,,,,,,,,,,,,,1067.337477978086,,,,,,,,,,,,,,AMP_prac,left,1.867394887492992,1,,,right,1.0005032202461734,,,,,,,,,,,,,,,,,,,,,,,,,1022,2019_May_29_1700,mf_amp_cond1,3.0.7,59.984205165632716,
opportunity,&&&&&&&&&&&,images/symbols/symbol_21.png,condition_files/AMP_rep2.csv,left,fairness.virtue,,,,,,,,,,,,,,0,1,1,1,0,19,19,19,,,,,,,,,,,,,,,,,,,,,1068.4211081172107,,,,,,,,,,,,,,AMP_prac,left,1.867394887492992,1,,,left,0.865672584855929,,,,,,,,,,,,,,,,,,,,,,,,,1022,2019_May_29_1700,mf_amp_cond1,3.0.7,59.984205165632716,
promote,&&&&&&&,images/symbols/symbol_81.png,condition_files/AMP_rep2.csv,left,sanctity.virtue,,,,,,,,,,,,,,0,1,1,1,0,20,20,20,,,,,,,,,,,,,,,,,,,,,1069.621433398337,,,,,,,,,,,,,,AMP_prac,left,1.867394887492992,1,,,left,0.9828032735968009,,,,,,,,,,,,,,,,,,,,,,,,,1022,2019_May_29_1700,mf_amp_cond1,3.0.7,59.984205165632716,
values,&&&&&&,images/symbols/symbol_20.png,condition_files/AMP_rep2.csv,left,sanctity.virtue,,,,,,,,,,,,,,0,1,1,1,0,21,21,21,,,,,,,,,,,,,,,,,,,,,1072.255472640507,,,,,,,,,,,,,,AMP_prac,left,1.867394887492992,1,,,left,2.4170044186757877,,,,,,,,,,,,,,,,,,,,,,,,,1022,2019_May_29_1700,mf_amp_cond1,3.0.7,59.984205165632716,
sexual,&&&&&&,images/symbols/symbol_71.png,condition_files/AMP_rep2.csv,right,sanctity.vice,,,,,,,,,,,,,,0,1,1,1,0,22,22,22,,,,,,,,,,,,,,,,,,,,,1077.0400873145554,,,,,,,,,,,,,,AMP_prac,left,1.867394887492992,1,,,left,4.551449219812639,,,,,,,,,,,,,,,,,,,,,,,,,1022,2019_May_29_1700,mf_amp_cond1,3.0.7,59.984205165632716,
faith,&&&&&,images/symbols/symbol_27.png,condition_files/AMP_rep2.csv,left,sanctity.virtue,,,,,,,,,,,,,,0,1,1,1,0,23,23,23,,,,,,,,,,,,,,,,,,,,,1080.090901014395,,,,,,,,,,,,,,AMP_prac,left,1.867394887492992,1,,,left,2.8175930805737153,,,,,,,,,,,,,,,,,,,,,,,,,1022,2019_May_29_1700,mf_amp_cond1,3.0.7,59.984205165632716,
ensure,&&&&&&,images/symbols/symbol_28.png,condition_files/AMP_rep2.csv,left,fairness.virtue,,,,,,,,,,,,,,0,1,1,1,0,24,24,24,,,,,,,,,,,,,,,,,,,,,1083.308450283599,,,,,,,,,,,,,,AMP_prac,left,1.867394887492992,1,,,right,2.999511533183977,,,,,,,,,,,,,,,,,,,,,,,,,1022,2019_May_29_1700,mf_amp_cond1,3.0.7,59.984205165632716,
psured,&&&&&&,images/symbols/symbol_51.png,condition_files/AMP_rep2.csv,None,nonword,,,,,,,,,,,,,,0,1,1,1,0,25,25,25,,,,,,,,,,,,,,,,,,,,,1084.608786501456,,,,,,,,,,,,,,AMP_prac,left,1.867394887492992,1,,,right,1.0671925729839131,,,,,,,,,,,,,,,,,,,,,,,,,1022,2019_May_29_1700,mf_amp_cond1,3.0.7,59.984205165632716,
rhailled,&&&&&&&&,images/symbols/symbol_22.png,condition_files/AMP_rep2.csv,None,nonword,,,,,,,,,,,,,,0,1,1,1,0,26,26,26,,,,,,,,,,,,,,,,,,,,,1085.6924057359574,,,,,,,,,,,,,,AMP_prac,left,1.867394887492992,1,,,left,0.8656437194440514,,,,,,,,,,,,,,,,,,,,,,,,,1022,2019_May_29_1700,mf_amp_cond1,3.0.7,59.984205165632716,
gryssed,&&&&&&&,images/symbols/symbol_49.png,condition_files/AMP_rep2.csv,None,nonword,,,,,,,,,,,,,,0,1,1,1,0,27,27,27,,,,,,,,,,,,,,,,,,,,,1086.72601148393,,,,,,,,,,,,,,AMP_prac,left,1.867394887492992,1,,,right,0.8004370864946395,,,,,,,,,,,,,,,,,,,,,,,,,1022,2019_May_29_1700,mf_amp_cond1,3.0.7,59.984205165632716,
troops,&&&&&&,images/symbols/symbol_23.png,condition_files/AMP_rep2.csv,right,loyalty.vice,,,,,,,,,,,,,,0,1,1,1,0,28,28,28,,,,,,,,,,,,,,,,,,,,,1088.3098159381188,,,,,,,,,,,,,,AMP_prac,left,1.867394887492992,1,,,right,1.3656467662658542,,,,,,,,,,,,,,,,,,,,,,,,,1022,2019_May_29_1700,mf_amp_cond1,3.0.7,59.984205165632716,
spauned,&&&&&&&,images/symbols/symbol_8.png,condition_files/AMP_rep2.csv,None,nonword,,,,,,,,,,,,,,0,1,1,1,0,29,29,29,,,,,,,,,,,,,,,,,,,,,1089.626818400342,,,,,,,,,,,,,,AMP_prac,left,1.867394887492992,1,,,left,1.0995936712715775,,,,,,,,,,,,,,,,,,,,,,,,,1022,2019_May_29_1700,mf_amp_cond1,3.0.7,59.984205165632716,
love,&&&&,images/symbols/symbol_9.png,condition_files/AMP_rep2.csv,left,loyalty.virtue,,,,,,,,,,,,,,0,1,1,1,0,30,30,30,,,,,,,,,,,,,,,,,,,,,1091.1105294909794,,,,,,,,,,,,,,AMP_prac,left,1.867394887492992,1,,,left,1.2660383415641263,,,,,,,,,,,,,,,,,,,,,,,,,1022,2019_May_29_1700,mf_amp_cond1,3.0.7,59.984205165632716,
illegal,&&&&&&&,images/symbols/symbol_52.png,condition_files/AMP_rep2.csv,right,fairness.vice,,,,,,,,,,,,,,0,1,1,1,0,31,31,31,,,,,,,,,,,,,,,,,,,,,1095.9951762697892,,,,,,,,,,,,,,AMP_prac,left,1.867394887492992,1,,,left,4.651471061282791,,,,,,,,,,,,,,,,,,,,,,,,,1022,2019_May_29_1700,mf_amp_cond1,3.0.7,59.984205165632716,
interests,&&&&&&&&&,images/symbols/symbol_79.png,condition_files/AMP_rep2.csv,left,fairness.virtue,,,,,,,,,,,,,,0,1,1,1,0,32,32,32,,,,,,,,,,,,,,,,,,,,,1097.0288108830573,,,,,,,,,,,,,,AMP_prac,left,1.867394887492992,1,,,right,0.8004669139627367,,,,,,,,,,,,,,,,,,,,,,,,,1022,2019_May_29_1700,mf_amp_cond1,3.0.7,59.984205165632716,
critics,&&&&&&&,images/symbols/symbol_50.png,condition_files/AMP_rep2.csv,right,loyalty.vice,,,,,,,,,,,,,,0,1,1,1,0,33,33,33,,,,,,,,,,,,,,,,,,,,,1098.2291259008925,,,,,,,,,,,,,,AMP_prac,left,1.867394887492992,1,,,left,0.9823577841743827,,,,,,,,,,,,,,,,,,,,,,,,,1022,2019_May_29_1700,mf_amp_cond1,3.0.7,59.984205165632716,
powerful,&&&&&&&&,images/symbols/symbol_60.png,condition_files/AMP_rep2.csv,left,authority.virtue,,,,,,,,,,,,,,0,1,1,1,0,34,34,34,,,,,,,,,,,,,,,,,,,,,1099.3294171529124,,,,,,,,,,,,,,AMP_prac,left,1.867394887492992,1,,,left,0.8827746968017891,,,,,,,,,,,,,,,,,,,,,,,,,1022,2019_May_29_1700,mf_amp_cond1,3.0.7,59.984205165632716,
scandal,&&&&&&&,images/symbols/symbol_24.png,condition_files/AMP_rep2.csv,right,sanctity.vice,,,,,,,,,,,,,,0,1,1,1,0,35,35,35,,,,,,,,,,,,,,,,,,,,,1101.5466726364102,,,,,,,,,,,,,,AMP_prac,left,1.867394887492992,1,,,left,1.9840877841925249,,,,,,,,,,,,,,,,,,,,,,,,,1022,2019_May_29_1700,mf_amp_cond1,3.0.7,59.984205165632716,
strong,&&&&&&,images/symbols/symbol_13.png,condition_files/AMP_rep2.csv,left,loyalty.virtue,,,,,,,,,,,,,,0,1,1,1,0,36,36,36,,,,,,,,,,,,,,,,,,,,,1103.8139595672255,,,,,,,,,,,,,,AMP_prac,left,1.867394887492992,1,,,right,2.0490333455381915,,,,,,,,,,,,,,,,,,,,,,,,,1022,2019_May_29_1700,mf_amp_cond1,3.0.7,59.984205165632716,
support,&&&&&&&,images/symbols/symbol_68.png,condition_files/AMP_rep2.csv,left,loyalty.virtue,,,,,,,,,,,,,,0,1,1,1,0,37,37,37,,,,,,,,,,,,,,,,,,,,,1105.180979364668,,,,,,,,,,,,,,AMP_prac,left,1.867394887492992,1,,,left,1.133868455188349,,,,,,,,,,,,,,,,,,,,,,,,,1022,2019_May_29_1700,mf_amp_cond1,3.0.7,59.984205165632716,
men,&&&,images/symbols/symbol_36.png,condition_files/AMP_rep2.csv,right,loyalty.vice,,,,,,,,,,,,,,0,1,1,1,0,38,38,38,,,,,,,,,,,,,,,,,,,,,1108.0317727945512,,,,,,,,,,,,,,AMP_prac,left,1.867394887492992,1,,,left,2.6326235544402152,,,,,,,,,,,,,,,,,,,,,,,,,1022,2019_May_29_1700,mf_amp_cond1,3.0.7,59.984205165632716,
killed,&&&&&&,images/symbols/symbol_30.png,condition_files/AMP_rep2.csv,right,care.vice,,,,,,,,,,,,,,0,1,1,1,0,39,39,39,,,,,,,,,,,,,,,,,,,,,1110.4324118104996,,,,,,,,,,,,,,AMP_prac,left,1.867394887492992,1,,,left,2.1831837196368724,,,,,,,,,,,,,,,,,,,,,,,,,1022,2019_May_29_1700,mf_amp_cond1,3.0.7,59.984205165632716,
fighters,&&&&&&&&,images/symbols/symbol_4.png,condition_files/AMP_rep2.csv,right,authority.vice,,,,,,,,,,,,,,0,1,1,1,0,40,40,40,,,,,,,,,,,,,,,,,,,,,1112.749695229344,,,,,,,,,,,,,,AMP_prac,left,1.867394887492992,1,,,left,2.0994778888998553,,,,,,,,,,,,,,,,,,,,,,,,,1022,2019_May_29_1700,mf_amp_cond1,3.0.7,59.984205165632716,
failure,&&&&&&&,images/symbols/symbol_35.png,condition_files/AMP_rep2.csv,right,loyalty.vice,,,,,,,,,,,,,,0,1,1,1,0,41,41,41,,,,,,,,,,,,,,,,,,,,,1115.9171960528474,,,,,,,,,,,,,,AMP_prac,left,1.867394887492992,1,,,left,2.94983096094802,,,,,,,,,,,,,,,,,,,,,,,,,1022,2019_May_29_1700,mf_amp_cond1,3.0.7,59.984205165632716,
conspiracy,&&&&&&&&&&,images/symbols/symbol_43.png,condition_files/AMP_rep2.csv,right,sanctity.vice,,,,,,,,,,,,,,0,1,1,1,0,42,42,42,,,,,,,,,,,,,,,,,,,,,1117.1341988036875,,,,,,,,,,,,,,AMP_prac,left,1.867394887492992,1,,,right,0.9838334479136392,,,,,,,,,,,,,,,,,,,,,,,,,1022,2019_May_29_1700,mf_amp_cond1,3.0.7,59.984205165632716,
loyalty,&&&&&&&,images/symbols/symbol_66.png,condition_files/AMP_rep2.csv,left,loyalty.virtue,,,,,,,,,,,,,,0,1,1,1,0,43,43,43,,,,,,,,,,,,,,,,,,,,,1119.1514208675362,,,,,,,,,,,,,,AMP_prac,left,1.867394887492992,1,,,right,1.7840594961307943,,,,,,,,,,,,,,,,,,,,,,,,,1022,2019_May_29_1700,mf_amp_cond1,3.0.7,59.984205165632716,
safety,&&&&&&,images/symbols/symbol_64.png,condition_files/AMP_rep2.csv,left,care.virtue,,,,,,,,,,,,,,0,1,1,1,0,44,44,44,,,,,,,,,,,,,,,,,,,,,1120.451743935584,,,,,,,,,,,,,,AMP_prac,left,1.867394887492992,1,,,right,1.0820393345784396,,,,,,,,,,,,,,,,,,,,,,,,,1022,2019_May_29_1700,mf_amp_cond1,3.0.7,59.984205165632716,
hate,&&&&,images/symbols/symbol_44.png,condition_files/AMP_rep2.csv,right,fairness.vice,,,,,,,,,,,,,,0,1,1,1,0,45,45,45,,,,,,,,,,,,,,,,,,,,,1122.6690196249401,,,,,,,,,,,,,,AMP_prac,left,1.867394887492992,1,,,right,1.9840948401251808,,,,,,,,,,,,,,,,,,,,,,,,,1022,2019_May_29_1700,mf_amp_cond1,3.0.7,59.984205165632716,
shot,&&&&,images/symbols/symbol_3.png,condition_files/AMP_rep2.csv,right,care.vice,,,,,,,,,,,,,,0,1,1,1,0,46,46,46,,,,,,,,,,,,,,,,,,,,,1125.4197722903918,,,,,,,,,,,,,,AMP_prac,left,1.867394887492992,1,,,left,2.532586638815701,,,,,,,,,,,,,,,,,,,,,,,,,1022,2019_May_29_1700,mf_amp_cond1,3.0.7,59.984205165632716,
torture,&&&&&&&,images/symbols/symbol_48.png,condition_files/AMP_rep2.csv,right,care.vice,,,,,,,,,,,,,,0,1,1,1,0,47,47,47,,,,,,,,,,,,,,,,,,,,,1126.4366973612923,,,,,,,,,,,,,,AMP_prac,left,1.867394887492992,1,,,right,0.7993895928375423,,,,,,,,,,,,,,,,,,,,,,,,,1022,2019_May_29_1700,mf_amp_cond1,3.0.7,59.984205165632716,
protect,&&&&&&&,images/symbols/symbol_46.png,condition_files/AMP_rep2.csv,left,fairness.virtue,,,,,,,,,,,,,,0,1,1,1,0,48,48,48,,,,,,,,,,,,,,,,,,,,,1128.070338260848,,,,,,,,,,,,,,AMP_prac,left,1.867394887492992,1,,,left,1.416180471656844,,,,,,,,,,,,,,,,,,,,,,,,,1022,2019_May_29_1700,mf_amp_cond1,3.0.7,59.984205165632716,
pleasant,&&&&&&&,images/symbols/symbol_75.png,condition_files/AMP_rep2.csv,right,control,,,,,,,,,,,,,,0,1,1,1,0,49,49,49,,,,,,,,,,,,,,,,,,,,,1129.820939864032,,,,,,,,,,,,,,AMP_prac,left,1.867394887492992,1,,,right,1.5172966328682378,,,,,,,,,,,,,,,,,,,,,,,,,1022,2019_May_29_1700,mf_amp_cond1,3.0.7,59.984205165632716,
spreussed,&&&&&&&&&,images/symbols/symbol_67.png,condition_files/AMP_rep2.csv,None,nonword,,,,,,,,,,,,,,0,1,1,1,0,50,50,50,,,,,,,,,,,,,,,,,,,,,1130.9545668120263,,,,,,,,,,,,,,AMP_prac,left,1.867394887492992,1,,,left,0.9152325637405738,,,,,,,,,,,,,,,,,,,,,,,,,1022,2019_May_29_1700,mf_amp_cond1,3.0.7,59.984205165632716,
hand,&&&&,images/symbols/symbol_2.png,condition_files/AMP_rep2.csv,left,sanctity.virtue,,,,,,,,,,,,,,0,1,1,1,0,51,51,51,,,,,,,,,,,,,,,,,,,,,1133.4052298985189,,,,,,,,,,,,,,AMP_prac,left,1.867394887492992,1,,,right,2.2332793122623116,,,,,,,,,,,,,,,,,,,,,,,,,1022,2019_May_29_1700,mf_amp_cond1,3.0.7,59.984205165632716,
strength,&&&&&&&&,images/symbols/symbol_37.png,condition_files/AMP_rep2.csv,left,sanctity.virtue,,,,,,,,,,,,,,0,1,1,1,0,52,52,52,,,,,,,,,,,,,,,,,,,,,1135.5391387653071,,,,,,,,,,,,,,AMP_prac,left,1.867394887492992,1,,,left,1.9007376394001767,,,,,,,,,,,,,,,,,,,,,,,,,1022,2019_May_29_1700,mf_amp_cond1,3.0.7,59.984205165632716,
benefit,&&&&&&&,images/symbols/symbol_16.png,condition_files/AMP_rep2.csv,left,fairness.virtue,,,,,,,,,,,,,,0,1,1,1,0,53,53,53,,,,,,,,,,,,,,,,,,,,,1137.4396644043736,,,,,,,,,,,,,,AMP_prac,left,1.867394887492992,1,,,left,1.682621966698207,,,,,,,,,,,,,,,,,,,,,,,,,1022,2019_May_29_1700,mf_amp_cond1,3.0.7,59.984205165632716,
suicide,&&&&&&&,images/symbols/symbol_17.png,condition_files/AMP_rep2.csv,right,care.vice,,,,,,,,,,,,,,0,1,1,1,0,54,54,54,,,,,,,,,,,,,,,,,,,,,1138.7066540214,,,,,,,,,,,,,,AMP_prac,left,1.867394887492992,1,,,right,1.0495214917464182,,,,,,,,,,,,,,,,,,,,,,,,,1022,2019_May_29_1700,mf_amp_cond1,3.0.7,59.984205165632716,
restore,&&&&&&&,images/symbols/symbol_6.png,condition_files/AMP_rep2.csv,left,care.virtue,,,,,,,,,,,,,,0,1,1,1,0,55,55,55,,,,,,,,,,,,,,,,,,,,,1139.9569886196405,,,,,,,,,,,,,,AMP_prac,left,1.867394887492992,1,,,left,1.032725032302551,,,,,,,,,,,,,,,,,,,,,,,,,1022,2019_May_29_1700,mf_amp_cond1,3.0.7,59.984205165632716,
blamed,&&&&&&,images/symbols/symbol_11.png,condition_files/AMP_rep2.csv,right,loyalty.vice,,,,,,,,,,,,,,0,1,1,1,0,56,56,56,,,,,,,,,,,,,,,,,,,,,1141.7408110985998,,,,,,,,,,,,,,AMP_prac,left,1.867394887492992,1,,,left,1.5662623051321134,,,,,,,,,,,,,,,,,,,,,,,,,1022,2019_May_29_1700,mf_amp_cond1,3.0.7,59.984205165632716,
terrorists,&&&&&&&&&&,images/symbols/symbol_39.png,condition_files/AMP_rep2.csv,right,fairness.vice,,,,,,,,,,,,,,0,1,1,1,0,57,57,57,,,,,,,,,,,,,,,,,,,,,1143.1245282510063,,,,,,,,,,,,,,AMP_prac,left,1.867394887492992,1,,,left,1.1661890511168167,,,,,,,,,,,,,,,,,,,,,,,,,1022,2019_May_29_1700,mf_amp_cond1,3.0.7,59.984205165632716,
accused,&&&&&&&,images/symbols/symbol_1.png,condition_files/AMP_rep2.csv,right,fairness.vice,,,,,,,,,,,,,,0,1,1,1,0,58,58,58,,,,,,,,,,,,,,,,,,,,,1144.7249421809101,,,,,,,,,,,,,,AMP_prac,left,1.867394887492992,1,,,left,1.3827398979337886,,,,,,,,,,,,,,,,,,,,,,,,,1022,2019_May_29_1700,mf_amp_cond1,3.0.7,59.984205165632716,
lies,&&&&,images/symbols/symbol_54.png,condition_files/AMP_rep2.csv,right,fairness.vice,,,,,,,,,,,,,,0,1,1,1,0,59,59,59,,,,,,,,,,,,,,,,,,,,,1145.9252584816422,,,,,,,,,,,,,,AMP_prac,left,1.867394887492992,1,,,right,0.9671527708414942,,,,,,,,,,,,,,,,,,,,,,,,,1022,2019_May_29_1700,mf_amp_cond1,3.0.7,59.984205165632716,
care,&&&&,images/symbols/symbol_78.png,condition_files/AMP_rep2.csv,left,care.virtue,,,,,,,,,,,,,,0,1,1,1,0,60,60,60,,,,,,,,,,,,,,,,,,,,,1148.5759755143663,,,,,,,,,,,,,,AMP_prac,left,1.867394887492992,1,,,right,2.4324884642846882,,,,,,,,,,,,,,,,,,,,,,,,,1022,2019_May_29_1700,mf_amp_cond1,3.0.7,59.984205165632716,
help,&&&&,images/symbols/symbol_55.png,condition_files/AMP_rep2.csv,left,care.virtue,,,,,,,,,,,,,,0,1,1,1,0,61,61,61,,,,,,,,,,,,,,,,,,,,,1151.8768890403444,,,,,,,,,,,,,,AMP_prac,left,1.867394887492992,1,,,right,3.0832738117314875,,,,,,,,,,,,,,,,,,,,,,,,,1022,2019_May_29_1700,mf_amp_cond1,3.0.7,59.984205165632716,
compassion,&&&&&&&&&&,images/symbols/symbol_47.png,condition_files/AMP_rep2.csv,left,care.virtue,,,,,,,,,,,,,,0,1,1,1,0,62,62,62,,,,,,,,,,,,,,,,,,,,,1153.5273292859783,,,,,,,,,,,,,,AMP_prac,left,1.867394887492992,1,,,right,1.43272933003027,,,,,,,,,,,,,,,,,,,,,,,,,1022,2019_May_29_1700,mf_amp_cond1,3.0.7,59.984205165632716,
hope,&&&&,images/symbols/symbol_45.png,condition_files/AMP_rep2.csv,left,loyalty.virtue,,,,,,,,,,,,,,0,1,1,1,0,63,63,63,,,,,,,,,,,,,,,,,,,,,1154.7276388513856,,,,,,,,,,,,,,AMP_prac,left,1.867394887492992,1,,,left,0.982624628697522,,,,,,,,,,,,,,,,,,,,,,,,,1022,2019_May_29_1700,mf_amp_cond1,3.0.7,59.984205165632716,
honored,&&&&&&&,images/symbols/symbol_42.png,condition_files/AMP_rep2.csv,left,authority.virtue,,,,,,,,,,,,,,0,1,1,1,0,64,64,64,,,,,,,,,,,,,,,,,,,,,1156.744849048322,,,,,,,,,,,,,,AMP_prac,left,1.867394887492992,1,,,left,1.7996615691808984,,,,,,,,,,,,,,,,,,,,,,,,,1022,2019_May_29_1700,mf_amp_cond1,3.0.7,59.984205165632716,
fraud,&&&&&,images/symbols/symbol_59.png,condition_files/AMP_rep2.csv,right,fairness.vice,,,,,,,,,,,,,,0,1,1,1,0,65,65,65,,,,,,,,,,,,,,,,,,,,,1158.4619808916468,,,,,,,,,,,,,,AMP_prac,left,1.867394887492992,1,,,right,1.483967671985738,,,,,,,,,,,,,,,,,,,,,,,,,1022,2019_May_29_1700,mf_amp_cond1,3.0.7,59.984205165632716,
officers,&&&&&&&&,images/symbols/symbol_10.png,condition_files/AMP_rep2.csv,right,authority.vice,,,,,,,,,,,,,,0,1,1,1,0,66,66,66,,,,,,,,,,,,,,,,,,,,,1159.4955811873078,,,,,,,,,,,,,,AMP_prac,left,1.867394887492992,1,,,right,0.8156251013278961,,,,,,,,,,,,,,,,,,,,,,,,,1022,2019_May_29_1700,mf_amp_cond1,3.0.7,59.984205165632716,
death,&&&&&,images/symbols/symbol_40.png,condition_files/AMP_rep2.csv,right,care.vice,,,,,,,,,,,,,,0,1,1,1,0,67,67,67,,,,,,,,,,,,,,,,,,,,,1160.7959510814399,,,,,,,,,,,,,,AMP_prac,left,1.867394887492992,1,,,left,1.0827705916017294,,,,,,,,,,,,,,,,,,,,,,,,,1022,2019_May_29_1700,mf_amp_cond1,3.0.7,59.984205165632716,
encourage,&&&&&&&&&,images/symbols/symbol_14.png,condition_files/AMP_rep2.csv,left,authority.virtue,,,,,,,,,,,,,,0,1,1,1,0,68,68,68,,,,,,,,,,,,,,,,,,,,,1161.879552355269,,,,,,,,,,,,,,AMP_prac,left,1.867394887492992,1,,,right,0.8660414206096902,,,,,,,,,,,,,,,,,,,,,,,,,1022,2019_May_29_1700,mf_amp_cond1,3.0.7,59.984205165632716,
protesters,&&&&&&&&&&,images/symbols/symbol_29.png,condition_files/AMP_rep2.csv,right,authority.vice,,,,,,,,,,,,,,0,1,1,1,0,69,69,69,,,,,,,,,,,,,,,,,,,,,1164.4802603916032,,,,,,,,,,,,,,AMP_prac,left,1.867394887492992,1,,,right,2.3829461252316833,,,,,,,,,,,,,,,,,,,,,,,,,1022,2019_May_29_1700,mf_amp_cond1,3.0.7,59.984205165632716,
improve,&&&&&&&,images/symbols/symbol_15.png,condition_files/AMP_rep2.csv,left,care.virtue,,,,,,,,,,,,,,0,1,1,1,0,70,70,70,,,,,,,,,,,,,,,,,,,,,1166.2474108531605,,,,,,,,,,,,,,AMP_prac,left,1.867394887492992,1,,,right,1.5493154247524217,,,,,,,,,,,,,,,,,,,,,,,,,1022,2019_May_29_1700,mf_amp_cond1,3.0.7,59.984205165632716,
arrests,&&&&&&&,images/symbols/symbol_74.png,condition_files/AMP_rep2.csv,right,authority.vice,,,,,,,,,,,,,,0,1,1,1,0,71,71,71,,,,,,,,,,,,,,,,,,,,,1167.3810390840517,,,,,,,,,,,,,,AMP_prac,left,1.867394887492992,1,,,left,0.900471756933257,,,,,,,,,,,,,,,,,,,,,,,,,1022,2019_May_29_1700,mf_amp_cond1,3.0.7,59.984205165632716,
knapps,&&&&&&,images/symbols/symbol_61.png,condition_files/AMP_rep2.csv,None,nonword,,,,,,,,,,,,,,0,1,1,1,0,72,72,72,,,,,,,,,,,,,,,,,,,,,1168.598049211665,,,,,,,,,,,,,,AMP_prac,left,1.867394887492992,1,,,left,0.9838494842406362,,,,,,,,,,,,,,,,,,,,,,,,,1022,2019_May_29_1700,mf_amp_cond1,3.0.7,59.984205165632716,
stintz,&&&&&&,images/symbols/symbol_65.png,condition_files/AMP_rep2.csv,None,nonword,,,,,,,,,,,,,,0,1,1,1,0,73,73,73,,,,,,,,,,,,,,,,,,,,,1171.4654755302472,,,,,,,,,,,,,,AMP_prac,left,1.867394887492992,1,,,left,2.649463953333907,,,,,,,,,,,,,,,,,,,,,,,,,1022,2019_May_29_1700,mf_amp_cond1,3.0.7,59.984205165632716,
unpleasant,&&&&&&&&&,images/symbols/symbol_77.png,condition_files/AMP_rep2.csv,left,control,,,,,,,,,,,,,,0,1,1,1,0,74,74,74,,,,,,,,,,,,,,,,,,,,,1173.3659838500898,,,,,,,,,,,,,,AMP_prac,left,1.867394887492992,1,,,right,1.6673544116783887,,,,,,,,,,,,,,,,,,,,,,,,,1022,2019_May_29_1700,mf_amp_cond1,3.0.7,59.984205165632716,
army,&&&&,images/symbols/symbol_32.png,condition_files/AMP_rep2.csv,right,loyalty.vice,,,,,,,,,,,,,,0,1,1,1,0,75,75,75,,,,,,,,,,,,,,,,,,,,,1175.499892716878,,,,,,,,,,,,,,AMP_prac,left,1.867394887492992,1,,,right,1.9158432274125516,,,,,,,,,,,,,,,,,,,,,,,,,1022,2019_May_29_1700,mf_amp_cond1,3.0.7,59.984205165632716,
party,&&&&&,images/symbols/symbol_33.png,condition_files/AMP_rep2.csv,left,loyalty.virtue,,,,,,,,,,,,,,0,1,1,1,0,76,76,76,,,,,,,,,,,,,,,,,,,,,1178.9841548160184,,,,,,,,,,,,,,AMP_prac,left,1.867394887492992,1,,,right,3.2668943613534793,,,,,,,,,,,,,,,,,,,,,,,,,1022,2019_May_29_1700,mf_amp_cond1,3.0.7,59.984205165632716,
clean,&&&&&,images/symbols/symbol_72.png,condition_files/AMP_rep2.csv,left,sanctity.virtue,,,,,,,,,,,,,,0,1,1,1,0,77,77,77,,,,,,,,,,,,,,,,,,,,,1182.3850626009516,,,,,,,,,,,,,,AMP_prac,left,1.867394887492992,1,,,right,3.167734633316286,,,,,,,,,,,,,,,,,,,,,,,,,1022,2019_May_29_1700,mf_amp_cond1,3.0.7,59.984205165632716,
wheighlde,&&&&&&&&&,images/symbols/symbol_73.png,condition_files/AMP_rep2.csv,None,nonword,,,,,,,,,,,,,,0,1,1,1,0,78,78,78,,,,,,,,,,,,,,,,,,,,,1186.086054833373,,,,,,,,,,,,,,AMP_prac,left,1.867394887492992,1,,,right,3.4828897094121203,,,,,,,,,,,,,,,,,,,,,,,,,1022,2019_May_29_1700,mf_amp_cond1,3.0.7,59.984205165632716,
died,&&&&,images/symbols/symbol_38.png,condition_files/AMP_rep2.csv,right,care.vice,,,,,,,,,,,,,,0,1,1,1,0,79,79,79,,,,,,,,,,,,,,,,,,,,,1188.069939918234,,,,,,,,,,,,,,AMP_prac,left,1.867394887492992,1,,,right,1.7507000662153587,,,,,,,,,,,,,,,,,,,,,,,,,1022,2019_May_29_1700,mf_amp_cond1,3.0.7,59.984205165632716,
promises,&&&&&&&&,images/symbols/symbol_82.png,condition_files/AMP_rep2.csv,left,fairness.virtue,,,,,,,,,,,,,,0,1,1,1,0,80,80,80,,,,,,,,,,,,,,,,,,,,,1191.1207507314393,,,,,,,,,,,,,,AMP_prac,left,1.867394887492992,1,,,right,2.8330630142008886,,,,,,,,,,,,,,,,,,,,,,,,,1022,2019_May_29_1700,mf_amp_cond1,3.0.7,59.984205165632716,
violations,&&&&&&&&&&,images/symbols/symbol_70.png,condition_files/AMP_rep2.csv,right,sanctity.vice,,,,,,,,,,,,,,0,1,1,1,0,81,81,81,,,,,,,,,,,,,,,,,,,,,1192.1710352321388,,,,,,,,,,,,,,AMP_prac,left,1.867394887492992,1,,,left,0.8171168012777343,,,,,,,,,,,,,,,,,,,,,,,,,1022,2019_May_29_1700,mf_amp_cond1,3.0.7,59.984205165632716,
,,,condition_files/AMP_rep2.csv,,,,,,,,,,,,,,,,0,1,1,1,,,,,,,,,,,,,,,,,,,,,,,,,,,,,,,,,,,,,,,,,,,,,,,right,11.169913329998963,,,,,,,,,,,,,,,,,,,,,,,1022,2019_May_29_1700,mf_amp_cond1,3.0.7,59.984205165632716,
mawlde,&&&&&&,images/symbols/symbol_7.png,condition_files/AMP_rep4.csv,None,nonword,,,,,,,,,,,,,,0,2,2,3,0,0,0,0,,,,,,,,,,,,,,,,,,,,,1205.441397932358,,,,,,,,,,,,,,AMP_prac,left,1.867394887492992,1,,,left,1.8340466830413789,,,,,,,,,,,,,,,,,,,,,,,,,1022,2019_May_29_1700,mf_amp_cond1,3.0.7,59.984205165632716,
ability,&&&&&&&,images/symbols/symbol_19.png,condition_files/AMP_rep4.csv,left,authority.virtue,,,,,,,,,,,,,,0,2,2,3,0,1,1,1,,,,,,,,,,,,,,,,,,,,,1206.6082425488858,,,,,,,,,,,,,,AMP_prac,left,1.867394887492992,1,,,right,0.9487488289596513,,,,,,,,,,,,,,,,,,,,,,,,,1022,2019_May_29_1700,mf_amp_cond1,3.0.7,59.984205165632716,
rejected,&&&&&&&&,images/symbols/symbol_12.png,condition_files/AMP_rep4.csv,right,authority.vice,,,,,,,,,,,,,,0,2,2,3,0,2,2,2,,,,,,,,,,,,,,,,,,,,,1207.9586012336658,,,,,,,,,,,,,,AMP_prac,left,1.867394887492992,1,,,left,1.1171935512684286,,,,,,,,,,,,,,,,,,,,,,,,,1022,2019_May_29_1700,mf_amp_cond1,3.0.7,59.984205165632716,
useful,&&&&&&,images/symbols/symbol_58.png,condition_files/AMP_rep4.csv,left,authority.virtue,,,,,,,,,,,,,,0,2,2,3,0,3,3,3,,,,,,,,,,,,,,,,,,,,,1210.8429599999217,,,,,,,,,,,,,,AMP_prac,left,1.867394887492992,1,,,right,2.6511840109014884,,,,,,,,,,,,,,,,,,,,,,,,,1022,2019_May_29_1700,mf_amp_cond1,3.0.7,59.984205165632716,
voter,&&&&&,images/symbols/symbol_62.png,condition_files/AMP_rep4.csv,right,fairness.vice,,,,,,,,,,,,,,0,2,2,3,0,4,4,4,,,,,,,,,,,,,,,,,,,,,1214.2436621990055,,,,,,,,,,,,,,AMP_prac,left,1.867394887492992,1,,,left,3.1677760070888326,,,,,,,,,,,,,,,,,,,,,,,,,1022,2019_May_29_1700,mf_amp_cond1,3.0.7,59.984205165632716,
racist,&&&&&&,images/symbols/symbol_26.png,condition_files/AMP_rep4.csv,right,sanctity.vice,,,,,,,,,,,,,,0,2,2,3,0,5,5,5,,,,,,,,,,,,,,,,,,,,,1216.327513960423,,,,,,,,,,,,,,AMP_prac,left,1.867394887492992,1,,,right,1.8507222284097224,,,,,,,,,,,,,,,,,,,,,,,,,1022,2019_May_29_1700,mf_amp_cond1,3.0.7,59.984205165632716,
free,&&&&,images/symbols/symbol_76.png,condition_files/AMP_rep4.csv,left,fairness.virtue,,,,,,,,,,,,,,0,2,2,3,0,6,6,6,,,,,,,,,,,,,,,,,,,,,1218.5948361711344,,,,,,,,,,,,,,AMP_prac,left,1.867394887492992,1,,,left,2.0495237368158996,,,,,,,,,,,,,,,,,,,,,,,,,1022,2019_May_29_1700,mf_amp_cond1,3.0.7,59.984205165632716,
slavery,&&&&&&&,images/symbols/symbol_56.png,condition_files/AMP_rep4.csv,right,loyalty.vice,,,,,,,,,,,,,,0,2,2,3,0,7,7,7,,,,,,,,,,,,,,,,,,,,,1219.7451053089462,,,,,,,,,,,,,,AMP_prac,left,1.867394887492992,1,,,left,0.9171424915548414,,,,,,,,,,,,,,,,,,,,,,,,,1022,2019_May_29_1700,mf_amp_cond1,3.0.7,59.984205165632716,
penalty,&&&&&&&,images/symbols/symbol_80.png,condition_files/AMP_rep4.csv,right,authority.vice,,,,,,,,,,,,,,0,2,2,3,0,8,8,8,,,,,,,,,,,,,,,,,,,,,1220.7787184335757,,,,,,,,,,,,,,AMP_prac,left,1.867394887492992,1,,,right,0.8158274798188359,,,,,,,,,,,,,,,,,,,,,,,,,1022,2019_May_29_1700,mf_amp_cond1,3.0.7,59.984205165632716,
peaceful,&&&&&&&&,images/symbols/symbol_69.png,condition_files/AMP_rep4.csv,left,authority.virtue,,,,,,,,,,,,,,0,2,2,3,0,9,9,9,,,,,,,,,,,,,,,,,,,,,1223.6128183573019,,,,,,,,,,,,,,AMP_prac,left,1.867394887492992,1,,,right,2.6009072076994926,,,,,,,,,,,,,,,,,,,,,,,,,1022,2019_May_29_1700,mf_amp_cond1,3.0.7,59.984205165632716,
freazz,&&&&&&,images/symbols/symbol_41.png,condition_files/AMP_rep4.csv,None,nonword,,,,,,,,,,,,,,0,2,2,3,0,10,10,10,,,,,,,,,,,,,,,,,,,,,1225.9967837522272,,,,,,,,,,,,,,AMP_prac,left,1.867394887492992,1,,,left,2.166222406667657,,,,,,,,,,,,,,,,,,,,,,,,,1022,2019_May_29_1700,mf_amp_cond1,3.0.7,59.984205165632716,
good,&&&&,images/symbols/symbol_53.png,condition_files/AMP_rep4.csv,left,care.virtue,,,,,,,,,,,,,,0,2,2,3,0,11,11,11,,,,,,,,,,,,,,,,,,,,,1228.1306999956723,,,,,,,,,,,,,,AMP_prac,left,1.867394887492992,1,,,right,1.9162489467998967,,,,,,,,,,,,,,,,,,,,,,,,,1022,2019_May_29_1700,mf_amp_cond1,3.0.7,59.984205165632716,
embrace,&&&&&&&,images/symbols/symbol_18.png,condition_files/AMP_rep4.csv,left,authority.virtue,,,,,,,,,,,,,,0,2,2,3,0,12,12,12,,,,,,,,,,,,,,,,,,,,,1231.8483552651014,,,,,,,,,,,,,,AMP_prac,left,1.867394887492992,1,,,right,3.484488532296382,,,,,,,,,,,,,,,,,,,,,,,,,1022,2019_May_29_1700,mf_amp_cond1,3.0.7,59.984205165632716,
energy,&&&&&&,images/symbols/symbol_63.png,condition_files/AMP_rep4.csv,left,sanctity.virtue,,,,,,,,,,,,,,0,2,2,3,0,13,13,13,,,,,,,,,,,,,,,,,,,,,1233.3320949004265,,,,,,,,,,,,,,AMP_prac,left,1.867394887492992,1,,,right,1.2656800898257643,,,,,,,,,,,,,,,,,,,,,,,,,1022,2019_May_29_1700,mf_amp_cond1,3.0.7,59.984205165632716,
rebels,&&&&&&,images/symbols/symbol_57.png,condition_files/AMP_rep4.csv,right,authority.vice,,,,,,,,,,,,,,0,2,2,3,0,14,14,14,,,,,,,,,,,,,,,,,,,,,1236.5662937362213,,,,,,,,,,,,,,AMP_prac,left,1.867394887492992,1,,,right,3.0167595758102834,,,,,,,,,,,,,,,,,,,,,,,,,1022,2019_May_29_1700,mf_amp_cond1,3.0.7,59.984205165632716,
fear,&&&&,images/symbols/symbol_25.png,condition_files/AMP_rep4.csv,right,sanctity.vice,,,,,,,,,,,,,,0,2,2,3,0,15,15,15,,,,,,,,,,,,,,,,,,,,,1239.7338160483632,,,,,,,,,,,,,,AMP_prac,left,1.867394887492992,1,,,right,2.9343478775117546,,,,,,,,,,,,,,,,,,,,,,,,,1022,2019_May_29_1700,mf_amp_cond1,3.0.7,59.984205165632716,
attacks,&&&&&&&,images/symbols/symbol_5.png,condition_files/AMP_rep4.csv,right,care.vice,,,,,,,,,,,,,,0,2,2,3,0,16,16,16,,,,,,,,,,,,,,,,,,,,,1243.284762689378,,,,,,,,,,,,,,AMP_prac,left,1.867394887492992,1,,,left,3.3328437973978,,,,,,,,,,,,,,,,,,,,,,,,,1022,2019_May_29_1700,mf_amp_cond1,3.0.7,59.984205165632716,
promised,&&&&&&&&,images/symbols/symbol_34.png,condition_files/AMP_rep4.csv,left,loyalty.virtue,,,,,,,,,,,,,,0,2,2,3,0,17,17,17,,,,,,,,,,,,,,,,,,,,,1244.4017423158512,,,,,,,,,,,,,,AMP_prac,left,1.867394887492992,1,,,right,0.8992000754224136,,,,,,,,,,,,,,,,,,,,,,,,,1022,2019_May_29_1700,mf_amp_cond1,3.0.7,59.984205165632716,
war,&&&,images/symbols/symbol_31.png,condition_files/AMP_rep4.csv,right,sanctity.vice,,,,,,,,,,,,,,0,2,2,3,0,18,18,18,,,,,,,,,,,,,,,,,,,,,1247.2525081632193,,,,,,,,,,,,,,AMP_prac,left,1.867394887492992,1,,,right,2.617609694134444,,,,,,,,,,,,,,,,,,,,,,,,,1022,2019_May_29_1700,mf_amp_cond1,3.0.7,59.984205165632716,
opportunity,&&&&&&&&&&&,images/symbols/symbol_21.png,condition_files/AMP_rep4.csv,left,fairness.virtue,,,,,,,,,,,,,,0,2,2,3,0,19,19,19,,,,,,,,,,,,,,,,,,,,,1248.5695507163182,,,,,,,,,,,,,,AMP_prac,left,1.867394887492992,1,,,left,1.0991529928287491,,,,,,,,,,,,,,,,,,,,,,,,,1022,2019_May_29_1700,mf_amp_cond1,3.0.7,59.984205165632716,
promote,&&&&&&&,images/symbols/symbol_81.png,condition_files/AMP_rep4.csv,left,sanctity.virtue,,,,,,,,,,,,,,0,2,2,3,0,20,20,20,,,,,,,,,,,,,,,,,,,,,1249.7364966825116,,,,,,,,,,,,,,AMP_prac,left,1.867394887492992,1,,,right,0.949525629170239,,,,,,,,,,,,,,,,,,,,,,,,,1022,2019_May_29_1700,mf_amp_cond1,3.0.7,59.984205165632716,
values,&&&&&&,images/symbols/symbol_20.png,condition_files/AMP_rep4.csv,left,sanctity.virtue,,,,,,,,,,,,,,0,2,2,3,0,21,21,21,,,,,,,,,,,,,,,,,,,,,1252.3205615668558,,,,,,,,,,,,,,AMP_prac,left,1.867394887492992,1,,,left,2.3670191559940577,,,,,,,,,,,,,,,,,,,,,,,,,1022,2019_May_29_1700,mf_amp_cond1,3.0.7,59.984205165632716,
sexual,&&&&&&,images/symbols/symbol_71.png,condition_files/AMP_rep4.csv,right,sanctity.vice,,,,,,,,,,,,,,0,2,2,3,0,22,22,22,,,,,,,,,,,,,,,,,,,,,1254.4210907979868,,,,,,,,,,,,,,AMP_prac,left,1.867394887492992,1,,,left,1.867382379132323,,,,,,,,,,,,,,,,,,,,,,,,,1022,2019_May_29_1700,mf_amp_cond1,3.0.7,59.984205165632716,
faith,&&&&&,images/symbols/symbol_27.png,condition_files/AMP_rep4.csv,left,sanctity.virtue,,,,,,,,,,,,,,0,2,2,3,0,23,23,23,,,,,,,,,,,,,,,,,,,,,1256.0715307228966,,,,,,,,,,,,,,AMP_prac,left,1.867394887492992,1,,,left,1.43206350132823,,,,,,,,,,,,,,,,,,,,,,,,,1022,2019_May_29_1700,mf_amp_cond1,3.0.7,59.984205165632716,
ensure,&&&&&&,images/symbols/symbol_28.png,condition_files/AMP_rep4.csv,left,fairness.virtue,,,,,,,,,,,,,,0,2,2,3,0,24,24,24,,,,,,,,,,,,,,,,,,,,,1257.9553715153597,,,,,,,,,,,,,,AMP_prac,left,1.867394887492992,1,,,left,1.6664445099886507,,,,,,,,,,,,,,,,,,,,,,,,,1022,2019_May_29_1700,mf_amp_cond1,3.0.7,59.984205165632716,
psured,&&&&&&,images/symbols/symbol_51.png,condition_files/AMP_rep4.csv,None,nonword,,,,,,,,,,,,,,0,2,2,3,0,25,25,25,,,,,,,,,,,,,,,,,,,,,1259.289060107083,,,,,,,,,,,,,,AMP_prac,left,1.867394887492992,1,,,right,1.1166932174237445,,,,,,,,,,,,,,,,,,,,,,,,,1022,2019_May_29_1700,mf_amp_cond1,3.0.7,59.984205165632716,
rhailled,&&&&&&&&,images/symbols/symbol_22.png,condition_files/AMP_rep4.csv,None,nonword,,,,,,,,,,,,,,0,2,2,3,0,26,26,26,,,,,,,,,,,,,,,,,,,,,1260.5894251902355,,,,,,,,,,,,,,AMP_prac,left,1.867394887492992,1,,,left,1.082812606706284,,,,,,,,,,,,,,,,,,,,,,,,,1022,2019_May_29_1700,mf_amp_cond1,3.0.7,59.984205165632716,
gryssed,&&&&&&&,images/symbols/symbol_49.png,condition_files/AMP_rep4.csv,None,nonword,,,,,,,,,,,,,,0,2,2,3,0,27,27,27,,,,,,,,,,,,,,,,,,,,,1262.7233173792483,,,,,,,,,,,,,,AMP_prac,left,1.867394887492992,1,,,right,1.900731224915944,,,,,,,,,,,,,,,,,,,,,,,,,1022,2019_May_29_1700,mf_amp_cond1,3.0.7,59.984205165632716,
troops,&&&&&&,images/symbols/symbol_23.png,condition_files/AMP_rep4.csv,right,loyalty.vice,,,,,,,,,,,,,,0,2,2,3,0,28,28,28,,,,,,,,,,,,,,,,,,,,,1264.6403803305002,,,,,,,,,,,,,,AMP_prac,left,1.867394887492992,1,,,left,1.6987888396251947,,,,,,,,,,,,,,,,,,,,,,,,,1022,2019_May_29_1700,mf_amp_cond1,3.0.7,59.984205165632716,
spauned,&&&&&&&,images/symbols/symbol_8.png,condition_files/AMP_rep4.csv,None,nonword,,,,,,,,,,,,,,0,2,2,3,0,29,29,29,,,,,,,,,,,,,,,,,,,,,1266.5410076399567,,,,,,,,,,,,,,AMP_prac,left,1.867394887492992,1,,,right,1.683040194446221,,,,,,,,,,,,,,,,,,,,,,,,,1022,2019_May_29_1700,mf_amp_cond1,3.0.7,59.984205165632716,
love,&&&&,images/symbols/symbol_9.png,condition_files/AMP_rep4.csv,left,loyalty.virtue,,,,,,,,,,,,,,0,2,2,3,0,30,30,30,,,,,,,,,,,,,,,,,,,,,1267.5913104220526,,,,,,,,,,,,,,AMP_prac,left,1.867394887492992,1,,,left,0.8326932162744924,,,,,,,,,,,,,,,,,,,,,,,,,1022,2019_May_29_1700,mf_amp_cond1,3.0.7,59.984205165632716,
illegal,&&&&&&&,images/symbols/symbol_52.png,condition_files/AMP_rep4.csv,right,fairness.vice,,,,,,,,,,,,,,0,2,2,3,0,31,31,31,,,,,,,,,,,,,,,,,,,,,1269.2917699272512,,,,,,,,,,,,,,AMP_prac,left,1.867394887492992,1,,,left,1.467302389908582,,,,,,,,,,,,,,,,,,,,,,,,,1022,2019_May_29_1700,mf_amp_cond1,3.0.7,59.984205165632716,
interests,&&&&&&&&&,images/symbols/symbol_79.png,condition_files/AMP_rep4.csv,left,fairness.virtue,,,,,,,,,,,,,,0,2,2,3,0,32,32,32,,,,,,,,,,,,,,,,,,,,,1272.1591972081224,,,,,,,,,,,,,,AMP_prac,left,1.867394887492992,1,,,left,2.649212503572926,,,,,,,,,,,,,,,,,,,,,,,,,1022,2019_May_29_1700,mf_amp_cond1,3.0.7,59.984205165632716,
critics,&&&&&&&,images/symbols/symbol_50.png,condition_files/AMP_rep4.csv,right,loyalty.vice,,,,,,,,,,,,,,0,2,2,3,0,33,33,33,,,,,,,,,,,,,,,,,,,,,1274.2097450253787,,,,,,,,,,,,,,AMP_prac,left,1.867394887492992,1,,,left,1.8328349774237722,,,,,,,,,,,,,,,,,,,,,,,,,1022,2019_May_29_1700,mf_amp_cond1,3.0.7,59.984205165632716,
powerful,&&&&&&&&,images/symbols/symbol_60.png,condition_files/AMP_rep4.csv,left,authority.virtue,,,,,,,,,,,,,,0,2,2,3,0,34,34,34,,,,,,,,,,,,,,,,,,,,,1277.327242625528,,,,,,,,,,,,,,AMP_prac,left,1.867394887492992,1,,,left,2.8843385603977367,,,,,,,,,,,,,,,,,,,,,,,,,1022,2019_May_29_1700,mf_amp_cond1,3.0.7,59.984205165632716,
scandal,&&&&&&&,images/symbols/symbol_24.png,condition_files/AMP_rep4.csv,right,sanctity.vice,,,,,,,,,,,,,,0,2,2,3,0,35,35,35,,,,,,,,,,,,,,,,,,,,,1278.5276249960298,,,,,,,,,,,,,,AMP_prac,left,1.867394887492992,1,,,left,0.9672095394926146,,,,,,,,,,,,,,,,,,,,,,,,,1022,2019_May_29_1700,mf_amp_cond1,3.0.7,59.984205165632716,
strong,&&&&&&,images/symbols/symbol_13.png,condition_files/AMP_rep4.csv,left,loyalty.virtue,,,,,,,,,,,,,,0,2,2,3,0,36,36,36,,,,,,,,,,,,,,,,,,,,,1280.0946618561866,,,,,,,,,,,,,,AMP_prac,left,1.867394887492992,1,,,left,1.3338983468711376,,,,,,,,,,,,,,,,,,,,,,,,,1022,2019_May_29_1700,mf_amp_cond1,3.0.7,59.984205165632716,
support,&&&&&&&,images/symbols/symbol_68.png,condition_files/AMP_rep4.csv,left,loyalty.virtue,,,,,,,,,,,,,,0,2,2,3,0,37,37,37,,,,,,,,,,,,,,,,,,,,,1281.2116443691775,,,,,,,,,,,,,,AMP_prac,left,1.867394887492992,1,,,left,0.8838183416519314,,,,,,,,,,,,,,,,,,,,,,,,,1022,2019_May_29_1700,mf_amp_cond1,3.0.7,59.984205165632716,
men,&&&,images/symbols/symbol_36.png,condition_files/AMP_rep4.csv,right,loyalty.vice,,,,,,,,,,,,,,0,2,2,3,0,38,38,38,,,,,,,,,,,,,,,,,,,,,1284.7959530057851,,,,,,,,,,,,,,AMP_prac,left,1.867394887492992,1,,,left,3.36618462507613,,,,,,,,,,,,,,,,,,,,,,,,,1022,2019_May_29_1700,mf_amp_cond1,3.0.7,59.984205165632716,
killed,&&&&&&,images/symbols/symbol_30.png,condition_files/AMP_rep4.csv,right,care.vice,,,,,,,,,,,,,,0,2,2,3,0,39,39,39,,,,,,,,,,,,,,,,,,,,,1285.9962462141411,,,,,,,,,,,,,,AMP_prac,left,1.867394887492992,1,,,left,0.9828456095419824,,,,,,,,,,,,,,,,,,,,,,,,,1022,2019_May_29_1700,mf_amp_cond1,3.0.7,59.984205165632716,
fighters,&&&&&&&&,images/symbols/symbol_4.png,condition_files/AMP_rep4.csv,right,authority.vice,,,,,,,,,,,,,,0,2,2,3,0,40,40,40,,,,,,,,,,,,,,,,,,,,,1290.3640925245127,,,,,,,,,,,,,,AMP_prac,left,1.867394887492992,1,,,left,4.150111981667578,,,,,,,,,,,,,,,,,,,,,,,,,1022,2019_May_29_1700,mf_amp_cond1,3.0.7,59.984205165632716,
failure,&&&&&&&,images/symbols/symbol_35.png,condition_files/AMP_rep4.csv,right,loyalty.vice,,,,,,,,,,,,,,0,2,2,3,0,41,41,41,,,,,,,,,,,,,,,,,,,,,1291.4144475850044,,,,,,,,,,,,,,AMP_prac,left,1.867394887492992,1,,,left,0.8328317701816559,,,,,,,,,,,,,,,,,,,,,,,,,1022,2019_May_29_1700,mf_amp_cond1,3.0.7,59.984205165632716,
conspiracy,&&&&&&&&&&,images/symbols/symbol_43.png,condition_files/AMP_rep4.csv,right,sanctity.vice,,,,,,,,,,,,,,0,2,2,3,0,42,42,42,,,,,,,,,,,,,,,,,,,,,1292.498000108404,,,,,,,,,,,,,,AMP_prac,left,1.867394887492992,1,,,right,0.8504505729069933,,,,,,,,,,,,,,,,,,,,,,,,,1022,2019_May_29_1700,mf_amp_cond1,3.0.7,59.984205165632716,
loyalty,&&&&&&&,images/symbols/symbol_66.png,condition_files/AMP_rep4.csv,left,loyalty.virtue,,,,,,,,,,,,,,0,2,2,3,0,43,43,43,,,,,,,,,,,,,,,,,,,,,1294.0984262259444,,,,,,,,,,,,,,AMP_prac,left,1.867394887492992,1,,,right,1.3672529658069834,,,,,,,,,,,,,,,,,,,,,,,,,1022,2019_May_29_1700,mf_amp_cond1,3.0.7,59.984205165632716,
safety,&&&&&&,images/symbols/symbol_64.png,condition_files/AMP_rep4.csv,left,care.virtue,,,,,,,,,,,,,,0,2,2,3,0,44,44,44,,,,,,,,,,,,,,,,,,,,,1295.148711367976,,,,,,,,,,,,,,AMP_prac,left,1.867394887492992,1,,,right,0.8320485554868355,,,,,,,,,,,,,,,,,,,,,,,,,1022,2019_May_29_1700,mf_amp_cond1,3.0.7,59.984205165632716,
hate,&&&&,images/symbols/symbol_44.png,condition_files/AMP_rep4.csv,right,fairness.vice,,,,,,,,,,,,,,0,2,2,3,0,45,45,45,,,,,,,,,,,,,,,,,,,,,1296.2823431268334,,,,,,,,,,,,,,AMP_prac,left,1.867394887492992,1,,,right,0.9159968555904925,,,,,,,,,,,,,,,,,,,,,,,,,1022,2019_May_29_1700,mf_amp_cond1,3.0.7,59.984205165632716,
shot,&&&&,images/symbols/symbol_3.png,condition_files/AMP_rep4.csv,right,care.vice,,,,,,,,,,,,,,0,2,2,3,0,46,46,46,,,,,,,,,,,,,,,,,,,,,1297.6994065592298,,,,,,,,,,,,,,AMP_prac,left,1.867394887492992,1,,,left,1.1995882510673255,,,,,,,,,,,,,,,,,,,,,,,,,1022,2019_May_29_1700,mf_amp_cond1,3.0.7,59.984205165632716,
torture,&&&&&&&,images/symbols/symbol_48.png,condition_files/AMP_rep4.csv,right,care.vice,,,,,,,,,,,,,,0,2,2,3,0,47,47,47,,,,,,,,,,,,,,,,,,,,,1300.3334425941575,,,,,,,,,,,,,,AMP_prac,left,1.867394887492992,1,,,right,2.416445071226917,,,,,,,,,,,,,,,,,,,,,,,,,1022,2019_May_29_1700,mf_amp_cond1,3.0.7,59.984205165632716,
protect,&&&&&&&,images/symbols/symbol_46.png,condition_files/AMP_rep4.csv,left,fairness.virtue,,,,,,,,,,,,,,0,2,2,3,0,48,48,48,,,,,,,,,,,,,,,,,,,,,1301.3170528162736,,,,,,,,,,,,,,AMP_prac,left,1.867394887492992,1,,,left,0.7661148349288851,,,,,,,,,,,,,,,,,,,,,,,,,1022,2019_May_29_1700,mf_amp_cond1,3.0.7,59.984205165632716,
pleasant,&&&&&&&,images/symbols/symbol_75.png,condition_files/AMP_rep4.csv,right,control,,,,,,,,,,,,,,0,2,2,3,0,49,49,49,,,,,,,,,,,,,,,,,,,,,1303.7010134002194,,,,,,,,,,,,,,AMP_prac,left,1.867394887492992,1,,,right,2.1508162977406755,,,,,,,,,,,,,,,,,,,,,,,,,1022,2019_May_29_1700,mf_amp_cond1,3.0.7,59.984205165632716,
spreussed,&&&&&&&&&,images/symbols/symbol_67.png,condition_files/AMP_rep4.csv,None,nonword,,,,,,,,,,,,,,0,2,2,3,0,50,50,50,,,,,,,,,,,,,,,,,,,,,1305.084719327162,,,,,,,,,,,,,,AMP_prac,left,1.867394887492992,1,,,left,1.1654173824936152,,,,,,,,,,,,,,,,,,,,,,,,,1022,2019_May_29_1700,mf_amp_cond1,3.0.7,59.984205165632716,
hand,&&&&,images/symbols/symbol_2.png,condition_files/AMP_rep4.csv,left,sanctity.virtue,,,,,,,,,,,,,,0,2,2,3,0,51,51,51,,,,,,,,,,,,,,,,,,,,,1306.1183789571514,,,,,,,,,,,,,,AMP_prac,left,1.867394887492992,1,,,left,0.8162033716216683,,,,,,,,,,,,,,,,,,,,,,,,,1022,2019_May_29_1700,mf_amp_cond1,3.0.7,59.984205165632716,
strength,&&&&&&&&,images/symbols/symbol_37.png,condition_files/AMP_rep4.csv,left,sanctity.virtue,,,,,,,,,,,,,,0,2,2,3,0,52,52,52,,,,,,,,,,,,,,,,,,,,,1308.3022371651605,,,,,,,,,,,,,,AMP_prac,left,1.867394887492992,1,,,left,1.9507562576327473,,,,,,,,,,,,,,,,,,,,,,,,,1022,2019_May_29_1700,mf_amp_cond1,3.0.7,59.984205165632716,
benefit,&&&&&&&,images/symbols/symbol_16.png,condition_files/AMP_rep4.csv,left,fairness.virtue,,,,,,,,,,,,,,0,2,2,3,0,53,53,53,,,,,,,,,,,,,,,,,,,,,1310.769573231344,,,,,,,,,,,,,,AMP_prac,left,1.867394887492992,1,,,left,2.249209168134257,,,,,,,,,,,,,,,,,,,,,,,,,1022,2019_May_29_1700,mf_amp_cond1,3.0.7,59.984205165632716,
suicide,&&&&&&&,images/symbols/symbol_17.png,condition_files/AMP_rep4.csv,right,care.vice,,,,,,,,,,,,,,0,2,2,3,0,54,54,54,,,,,,,,,,,,,,,,,,,,,1312.00325922505,,,,,,,,,,,,,,AMP_prac,left,1.867394887492992,1,,,right,1.0160446759546176,,,,,,,,,,,,,,,,,,,,,,,,,1022,2019_May_29_1700,mf_amp_cond1,3.0.7,59.984205165632716,
restore,&&&&&&&,images/symbols/symbol_6.png,condition_files/AMP_rep4.csv,left,care.virtue,,,,,,,,,,,,,,0,2,2,3,0,55,55,55,,,,,,,,,,,,,,,,,,,,,1314.4539595159004,,,,,,,,,,,,,,AMP_prac,left,1.867394887492992,1,,,left,2.2332049035467207,,,,,,,,,,,,,,,,,,,,,,,,,1022,2019_May_29_1700,mf_amp_cond1,3.0.7,59.984205165632716,
blamed,&&&&&&,images/symbols/symbol_11.png,condition_files/AMP_rep4.csv,right,loyalty.vice,,,,,,,,,,,,,,0,2,2,3,0,56,56,56,,,,,,,,,,,,,,,,,,,,,1316.8045183341019,,,,,,,,,,,,,,AMP_prac,left,1.867394887492992,1,,,left,2.133180175558664,,,,,,,,,,,,,,,,,,,,,,,,,1022,2019_May_29_1700,mf_amp_cond1,3.0.7,59.984205165632716,
terrorists,&&&&&&&&&&,images/symbols/symbol_39.png,condition_files/AMP_rep4.csv,right,fairness.vice,,,,,,,,,,,,,,0,2,2,3,0,57,57,57,,,,,,,,,,,,,,,,,,,,,1317.804786140914,,,,,,,,,,,,,,AMP_prac,left,1.867394887492992,1,,,left,0.7827089157653973,,,,,,,,,,,,,,,,,,,,,,,,,1022,2019_May_29_1700,mf_amp_cond1,3.0.7,59.984205165632716,
accused,&&&&&&&,images/symbols/symbol_1.png,condition_files/AMP_rep4.csv,right,fairness.vice,,,,,,,,,,,,,,0,2,2,3,0,58,58,58,,,,,,,,,,,,,,,,,,,,,1320.0219505381538,,,,,,,,,,,,,,AMP_prac,left,1.867394887492992,1,,,left,1.9995474545285106,,,,,,,,,,,,,,,,,,,,,,,,,1022,2019_May_29_1700,mf_amp_cond1,3.0.7,59.984205165632716,
lies,&&&&,images/symbols/symbol_54.png,condition_files/AMP_rep4.csv,right,fairness.vice,,,,,,,,,,,,,,0,2,2,3,0,59,59,59,,,,,,,,,,,,,,,,,,,,,1321.8059070808813,,,,,,,,,,,,,,AMP_prac,left,1.867394887492992,1,,,right,1.5506624771514907,,,,,,,,,,,,,,,,,,,,,,,,,1022,2019_May_29_1700,mf_amp_cond1,3.0.7,59.984205165632716,
care,&&&&,images/symbols/symbol_78.png,condition_files/AMP_rep4.csv,left,care.virtue,,,,,,,,,,,,,,0,2,2,3,0,60,60,60,,,,,,,,,,,,,,,,,,,,,1324.1398240299895,,,,,,,,,,,,,,AMP_prac,left,1.867394887492992,1,,,right,2.1155084528727457,,,,,,,,,,,,,,,,,,,,,,,,,1022,2019_May_29_1700,mf_amp_cond1,3.0.7,59.984205165632716,
help,&&&&,images/symbols/symbol_55.png,condition_files/AMP_rep4.csv,left,care.virtue,,,,,,,,,,,,,,0,2,2,3,0,61,61,61,,,,,,,,,,,,,,,,,,,,,1328.157582348911,,,,,,,,,,,,,,AMP_prac,left,1.867394887492992,1,,,right,3.7997818416915834,,,,,,,,,,,,,,,,,,,,,,,,,1022,2019_May_29_1700,mf_amp_cond1,3.0.7,59.984205165632716,
compassion,&&&&&&&&&&,images/symbols/symbol_47.png,condition_files/AMP_rep4.csv,left,care.virtue,,,,,,,,,,,,,,0,2,2,3,0,62,62,62,,,,,,,,,,,,,,,,,,,,,1332.4754061923595,,,,,,,,,,,,,,AMP_prac,left,1.867394887492992,1,,,right,4.084658068488352,,,,,,,,,,,,,,,,,,,,,,,,,1022,2019_May_29_1700,mf_amp_cond1,3.0.7,59.984205165632716,
hope,&&&&,images/symbols/symbol_45.png,condition_files/AMP_rep4.csv,left,loyalty.virtue,,,,,,,,,,,,,,0,2,2,3,0,63,63,63,,,,,,,,,,,,,,,,,,,,,1335.6762568238191,,,,,,,,,,,,,,AMP_prac,left,1.867394887492992,1,,,right,2.9827513159252703,,,,,,,,,,,,,,,,,,,,,,,,,1022,2019_May_29_1700,mf_amp_cond1,3.0.7,59.984205165632716,
honored,&&&&&&&,images/symbols/symbol_42.png,condition_files/AMP_rep4.csv,left,authority.virtue,,,,,,,,,,,,,,0,2,2,3,0,64,64,64,,,,,,,,,,,,,,,,,,,,,1337.4934284694027,,,,,,,,,,,,,,AMP_prac,left,1.867394887492992,1,,,right,1.5995980011066422,,,,,,,,,,,,,,,,,,,,,,,,,1022,2019_May_29_1700,mf_amp_cond1,3.0.7,59.984205165632716,
fraud,&&&&&,images/symbols/symbol_59.png,condition_files/AMP_rep4.csv,right,fairness.vice,,,,,,,,,,,,,,0,2,2,3,0,65,65,65,,,,,,,,,,,,,,,,,,,,,1339.3605937164975,,,,,,,,,,,,,,AMP_prac,left,1.867394887492992,1,,,right,1.6340036414330825,,,,,,,,,,,,,,,,,,,,,,,,,1022,2019_May_29_1700,mf_amp_cond1,3.0.7,59.984205165632716,
officers,&&&&&&&&,images/symbols/symbol_10.png,condition_files/AMP_rep4.csv,right,authority.vice,,,,,,,,,,,,,,0,2,2,3,0,66,66,66,,,,,,,,,,,,,,,,,,,,,1340.6442810092121,,,,,,,,,,,,,,AMP_prac,left,1.867394887492992,1,,,right,1.0655437167733908,,,,,,,,,,,,,,,,,,,,,,,,,1022,2019_May_29_1700,mf_amp_cond1,3.0.7,59.984205165632716,
death,&&&&&,images/symbols/symbol_40.png,condition_files/AMP_rep4.csv,right,care.vice,,,,,,,,,,,,,,0,2,2,3,0,67,67,67,,,,,,,,,,,,,,,,,,,,,1341.761232732446,,,,,,,,,,,,,,AMP_prac,left,1.867394887492992,1,,,left,0.8992738425731659,,,,,,,,,,,,,,,,,,,,,,,,,1022,2019_May_29_1700,mf_amp_cond1,3.0.7,59.984205165632716,
encourage,&&&&&&&&&,images/symbols/symbol_14.png,condition_files/AMP_rep4.csv,left,authority.virtue,,,,,,,,,,,,,,0,2,2,3,0,68,68,68,,,,,,,,,,,,,,,,,,,,,1343.261651441222,,,,,,,,,,,,,,AMP_prac,left,1.867394887492992,1,,,right,1.2829213972436264,,,,,,,,,,,,,,,,,,,,,,,,,1022,2019_May_29_1700,mf_amp_cond1,3.0.7,59.984205165632716,
protesters,&&&&&&&&&&,images/symbols/symbol_29.png,condition_files/AMP_rep4.csv,right,authority.vice,,,,,,,,,,,,,,0,2,2,3,0,69,69,69,,,,,,,,,,,,,,,,,,,,,1345.195486797369,,,,,,,,,,,,,,AMP_prac,left,1.867394887492992,1,,,right,1.7161356661235914,,,,,,,,,,,,,,,,,,,,,,,,,1022,2019_May_29_1700,mf_amp_cond1,3.0.7,59.984205165632716,
improve,&&&&&&&,images/symbols/symbol_15.png,condition_files/AMP_rep4.csv,left,care.virtue,,,,,,,,,,,,,,0,2,2,3,0,70,70,70,,,,,,,,,,,,,,,,,,,,,1347.8462054337142,,,,,,,,,,,,,,AMP_prac,left,1.867394887492992,1,,,right,2.4330365862697363,,,,,,,,,,,,,,,,,,,,,,,,,1022,2019_May_29_1700,mf_amp_cond1,3.0.7,59.984205165632716,
arrests,&&&&&&&,images/symbols/symbol_74.png,condition_files/AMP_rep4.csv,right,authority.vice,,,,,,,,,,,,,,0,2,2,3,0,71,71,71,,,,,,,,,,,,,,,,,,,,,1348.9131609897595,,,,,,,,,,,,,,AMP_prac,left,1.867394887492992,1,,,left,0.8337926674867049,,,,,,,,,,,,,,,,,,,,,,,,,1022,2019_May_29_1700,mf_amp_cond1,3.0.7,59.984205165632716,
knapps,&&&&&&,images/symbols/symbol_61.png,condition_files/AMP_rep4.csv,None,nonword,,,,,,,,,,,,,,0,2,2,3,0,72,72,72,,,,,,,,,,,,,,,,,,,,,1349.9634387551341,,,,,,,,,,,,,,AMP_prac,left,1.867394887492992,1,,,left,0.8171020478475839,,,,,,,,,,,,,,,,,,,,,,,,,1022,2019_May_29_1700,mf_amp_cond1,3.0.7,59.984205165632716,
stintz,&&&&&&,images/symbols/symbol_65.png,condition_files/AMP_rep4.csv,None,nonword,,,,,,,,,,,,,,0,2,2,3,0,73,73,73,,,,,,,,,,,,,,,,,,,,,1350.980434706551,,,,,,,,,,,,,,AMP_prac,left,1.867394887492992,1,,,left,0.7988170955795795,,,,,,,,,,,,,,,,,,,,,,,,,1022,2019_May_29_1700,mf_amp_cond1,3.0.7,59.984205165632716,
unpleasant,&&&&&&&&&,images/symbols/symbol_77.png,condition_files/AMP_rep4.csv,left,control,,,,,,,,,,,,,,0,2,2,3,0,74,74,74,,,,,,,,,,,,,,,,,,,,,1352.0473601141712,,,,,,,,,,,,,,AMP_prac,left,1.867394887492992,1,,,right,0.849435793585144,,,,,,,,,,,,,,,,,,,,,,,,,1022,2019_May_29_1700,mf_amp_cond1,3.0.7,59.984205165632716,
army,&&&&,images/symbols/symbol_32.png,condition_files/AMP_rep4.csv,right,loyalty.vice,,,,,,,,,,,,,,0,2,2,3,0,75,75,75,,,,,,,,,,,,,,,,,,,,,1353.8978328172816,,,,,,,,,,,,,,AMP_prac,left,1.867394887492992,1,,,right,1.6329494128003716,,,,,,,,,,,,,,,,,,,,,,,,,1022,2019_May_29_1700,mf_amp_cond1,3.0.7,59.984205165632716,
party,&&&&&,images/symbols/symbol_33.png,condition_files/AMP_rep4.csv,left,loyalty.virtue,,,,,,,,,,,,,,0,2,2,3,0,76,76,76,,,,,,,,,,,,,,,,,,,,,1355.0148002561182,,,,,,,,,,,,,,AMP_prac,left,1.867394887492992,1,,,left,0.8993562693940476,,,,,,,,,,,,,,,,,,,,,,,,,1022,2019_May_29_1700,mf_amp_cond1,3.0.7,59.984205165632716,
clean,&&&&&,images/symbols/symbol_72.png,condition_files/AMP_rep4.csv,left,sanctity.virtue,,,,,,,,,,,,,,0,2,2,3,0,77,77,77,,,,,,,,,,,,,,,,,,,,,1356.3986174752936,,,,,,,,,,,,,,AMP_prac,left,1.867394887492992,1,,,right,1.1506475954083726,,,,,,,,,,,,,,,,,,,,,,,,,1022,2019_May_29_1700,mf_amp_cond1,3.0.7,59.984205165632716,
wheighlde,&&&&&&&&&,images/symbols/symbol_73.png,condition_files/AMP_rep4.csv,None,nonword,,,,,,,,,,,,,,0,2,2,3,0,78,78,78,,,,,,,,,,,,,,,,,,,,,1357.832222068566,,,,,,,,,,,,,,AMP_prac,left,1.867394887492992,1,,,right,1.215637417160906,,,,,,,,,,,,,,,,,,,,,,,,,1022,2019_May_29_1700,mf_amp_cond1,3.0.7,59.984205165632716,
died,&&&&,images/symbols/symbol_38.png,condition_files/AMP_rep4.csv,right,care.vice,,,,,,,,,,,,,,0,2,2,3,0,79,79,79,,,,,,,,,,,,,,,,,,,,,1359.6660436014645,,,,,,,,,,,,,,AMP_prac,left,1.867394887492992,1,,,right,1.616338654072024,,,,,,,,,,,,,,,,,,,,,,,,,1022,2019_May_29_1700,mf_amp_cond1,3.0.7,59.984205165632716,
promises,&&&&&&&&,images/symbols/symbol_82.png,condition_files/AMP_rep4.csv,left,fairness.virtue,,,,,,,,,,,,,,0,2,2,3,0,80,80,80,,,,,,,,,,,,,,,,,,,,,1360.816346736392,,,,,,,,,,,,,,AMP_prac,left,1.867394887492992,1,,,left,0.9330338600557297,,,,,,,,,,,,,,,,,,,,,,,,,1022,2019_May_29_1700,mf_amp_cond1,3.0.7,59.984205165632716,
violations,&&&&&&&&&&,images/symbols/symbol_70.png,condition_files/AMP_rep4.csv,right,sanctity.vice,,,,,,,,,,,,,,0,2,2,3,0,81,81,81,,,,,,,,,,,,,,,,,,,,,1361.8332920130342,,,,,,,,,,,,,,AMP_prac,left,1.867394887492992,1,,,left,0.7992013262119144,,,,,,,,,,,,,,,,,,,,,,,,,1022,2019_May_29_1700,mf_amp_cond1,3.0.7,59.984205165632716,
,,,condition_files/AMP_rep4.csv,,,,,,,,,,,,,,,,0,2,2,3,,,,,,,,,,,,,,,,,,,,,,,,,,,,,,,,,,,,,,,,,,,,,,,right,9.519469556515105,,,,,,,,,,,,,,,,,,,,,,,1022,2019_May_29_1700,mf_amp_cond1,3.0.7,59.984205165632716,
mawlde,&&&&&&,images/symbols/symbol_7.png,condition_files/AMP_rep3.csv,None,nonword,,,,,,,,,,,,,,0,3,3,2,0,0,0,0,,,,,,,,,,,,,,,,,,,,,1372.719696053653,,,,,,,,,,,,,,AMP_prac,left,1.867394887492992,1,,,left,1.1005183265078813,,,,,,,,,,,,,,,,,,,,,,,,,1022,2019_May_29_1700,mf_amp_cond1,3.0.7,59.984205165632716,
ability,&&&&&&&,images/symbols/symbol_19.png,condition_files/AMP_rep3.csv,left,authority.virtue,,,,,,,,,,,,,,0,3,3,2,0,1,1,1,,,,,,,,,,,,,,,,,,,,,1376.7373055553762,,,,,,,,,,,,,,AMP_prac,left,1.867394887492992,1,,,left,3.799545786692761,,,,,,,,,,,,,,,,,,,,,,,,,1022,2019_May_29_1700,mf_amp_cond1,3.0.7,59.984205165632716,
rejected,&&&&&&&&,images/symbols/symbol_12.png,condition_files/AMP_rep3.csv,right,authority.vice,,,,,,,,,,,,,,0,3,3,2,0,2,2,2,,,,,,,,,,,,,,,,,,,,,1377.6708881788654,,,,,,,,,,,,,,AMP_prac,left,1.867394887492992,1,,,left,0.7004210179438815,,,,,,,,,,,,,,,,,,,,,,,,,1022,2019_May_29_1700,mf_amp_cond1,3.0.7,59.984205165632716,
useful,&&&&&&,images/symbols/symbol_58.png,condition_files/AMP_rep3.csv,left,authority.virtue,,,,,,,,,,,,,,0,3,3,2,0,3,3,3,,,,,,,,,,,,,,,,,,,,,1378.6544884584146,,,,,,,,,,,,,,AMP_prac,left,1.867394887492992,1,,,right,0.7504402776248753,,,,,,,,,,,,,,,,,,,,,,,,,1022,2019_May_29_1700,mf_amp_cond1,3.0.7,59.984205165632716,
voter,&&&&&,images/symbols/symbol_62.png,condition_files/AMP_rep3.csv,right,fairness.vice,,,,,,,,,,,,,,0,3,3,2,0,4,4,4,,,,,,,,,,,,,,,,,,,,,1379.6881003001472,,,,,,,,,,,,,,AMP_prac,left,1.867394887492992,1,,,left,0.8004495947388932,,,,,,,,,,,,,,,,,,,,,,,,,1022,2019_May_29_1700,mf_amp_cond1,3.0.7,59.984205165632716,
racist,&&&&&&,images/symbols/symbol_26.png,condition_files/AMP_rep3.csv,right,sanctity.vice,,,,,,,,,,,,,,0,3,3,2,0,5,5,5,,,,,,,,,,,,,,,,,,,,,1380.771746154991,,,,,,,,,,,,,,AMP_prac,left,1.867394887492992,1,,,left,0.8652925236383453,,,,,,,,,,,,,,,,,,,,,,,,,1022,2019_May_29_1700,mf_amp_cond1,3.0.7,59.984205165632716,
free,&&&&,images/symbols/symbol_76.png,condition_files/AMP_rep3.csv,left,fairness.virtue,,,,,,,,,,,,,,0,3,3,2,0,6,6,6,,,,,,,,,,,,,,,,,,,,,1382.0053833982674,,,,,,,,,,,,,,AMP_prac,left,1.867394887492992,1,,,left,1.0165719507494941,,,,,,,,,,,,,,,,,,,,,,,,,1022,2019_May_29_1700,mf_amp_cond1,3.0.7,59.984205165632716,
slavery,&&&&&&&,images/symbols/symbol_56.png,condition_files/AMP_rep3.csv,right,loyalty.vice,,,,,,,,,,,,,,0,3,3,2,0,7,7,7,,,,,,,,,,,,,,,,,,,,,1382.8556341584772,,,,,,,,,,,,,,AMP_prac,left,1.867394887492992,1,,,left,0.6324137990595773,,,,,,,,,,,,,,,,,,,,,,,,,1022,2019_May_29_1700,mf_amp_cond1,3.0.7,59.984205165632716,
penalty,&&&&&&&,images/symbols/symbol_80.png,condition_files/AMP_rep3.csv,right,authority.vice,,,,,,,,,,,,,,0,3,3,2,0,8,8,8,,,,,,,,,,,,,,,,,,,,,1384.806153399055,,,,,,,,,,,,,,AMP_prac,left,1.867394887492992,1,,,right,1.7331049973145127,,,,,,,,,,,,,,,,,,,,,,,,,1022,2019_May_29_1700,mf_amp_cond1,3.0.7,59.984205165632716,
peaceful,&&&&&&&&,images/symbols/symbol_69.png,condition_files/AMP_rep3.csv,left,authority.virtue,,,,,,,,,,,,,,0,3,3,2,0,9,9,9,,,,,,,,,,,,,,,,,,,,,1386.406566046062,,,,,,,,,,,,,,AMP_prac,left,1.867394887492992,1,,,right,1.3672529658069834,,,,,,,,,,,,,,,,,,,,,,,,,1022,2019_May_29_1700,mf_amp_cond1,3.0.7,59.984205165632716,
freazz,&&&&&&,images/symbols/symbol_41.png,condition_files/AMP_rep3.csv,None,nonword,,,,,,,,,,,,,,0,3,3,2,0,10,10,10,,,,,,,,,,,,,,,,,,,,,1388.3069598664297,,,,,,,,,,,,,,AMP_prac,left,1.867394887492992,1,,,left,1.6826896402053535,,,,,,,,,,,,,,,,,,,,,,,,,1022,2019_May_29_1700,mf_amp_cond1,3.0.7,59.984205165632716,
good,&&&&,images/symbols/symbol_53.png,condition_files/AMP_rep3.csv,left,care.virtue,,,,,,,,,,,,,,0,3,3,2,0,11,11,11,,,,,,,,,,,,,,,,,,,,,1389.4740549705457,,,,,,,,,,,,,,AMP_prac,left,1.867394887492992,1,,,right,0.9494294110918418,,,,,,,,,,,,,,,,,,,,,,,,,1022,2019_May_29_1700,mf_amp_cond1,3.0.7,59.984205165632716,
embrace,&&&&&&&,images/symbols/symbol_18.png,condition_files/AMP_rep3.csv,left,authority.virtue,,,,,,,,,,,,,,0,3,3,2,0,12,12,12,,,,,,,,,,,,,,,,,,,,,1391.3412173311226,,,,,,,,,,,,,,AMP_prac,left,1.867394887492992,1,,,left,1.6339959440520033,,,,,,,,,,,,,,,,,,,,,,,,,1022,2019_May_29_1700,mf_amp_cond1,3.0.7,59.984205165632716,
energy,&&&&&&,images/symbols/symbol_63.png,condition_files/AMP_rep3.csv,left,sanctity.virtue,,,,,,,,,,,,,,0,3,3,2,0,13,13,13,,,,,,,,,,,,,,,,,,,,,1392.4581969575956,,,,,,,,,,,,,,AMP_prac,left,1.867394887492992,1,,,right,0.8989441355224699,,,,,,,,,,,,,,,,,,,,,,,,,1022,2019_May_29_1700,mf_amp_cond1,3.0.7,59.984205165632716,
rebels,&&&&&&,images/symbols/symbol_57.png,condition_files/AMP_rep3.csv,right,authority.vice,,,,,,,,,,,,,,0,3,3,2,0,14,14,14,,,,,,,,,,,,,,,,,,,,,1393.8252164344303,,,,,,,,,,,,,,AMP_prac,left,1.867394887492992,1,,,right,1.1493630846962333,,,,,,,,,,,,,,,,,,,,,,,,,1022,2019_May_29_1700,mf_amp_cond1,3.0.7,59.984205165632716,
fear,&&&&,images/symbols/symbol_25.png,condition_files/AMP_rep3.csv,right,sanctity.vice,,,,,,,,,,,,,,0,3,3,2,0,15,15,15,,,,,,,,,,,,,,,,,,,,,1395.625708364998,,,,,,,,,,,,,,AMP_prac,left,1.867394887492992,1,,,right,1.567312364350073,,,,,,,,,,,,,,,,,,,,,,,,,1022,2019_May_29_1700,mf_amp_cond1,3.0.7,59.984205165632716,
attacks,&&&&&&&,images/symbols/symbol_5.png,condition_files/AMP_rep3.csv,right,care.vice,,,,,,,,,,,,,,0,3,3,2,0,16,16,16,,,,,,,,,,,,,,,,,,,,,1396.8927092076046,,,,,,,,,,,,,,AMP_prac,left,1.867394887492992,1,,,left,1.0489586163312197,,,,,,,,,,,,,,,,,,,,,,,,,1022,2019_May_29_1700,mf_amp_cond1,3.0.7,59.984205165632716,
promised,&&&&&&&&,images/symbols/symbol_34.png,condition_files/AMP_rep3.csv,left,loyalty.virtue,,,,,,,,,,,,,,0,3,3,2,0,17,17,17,,,,,,,,,,,,,,,,,,,,,1398.6765393840615,,,,,,,,,,,,,,AMP_prac,left,1.867394887492992,1,,,left,1.5662042535841465,,,,,,,,,,,,,,,,,,,,,,,,,1022,2019_May_29_1700,mf_amp_cond1,3.0.7,59.984205165632716,
war,&&&,images/symbols/symbol_31.png,condition_files/AMP_rep3.csv,right,sanctity.vice,,,,,,,,,,,,,,0,3,3,2,0,18,18,18,,,,,,,,,,,,,,,,,,,,,1399.8101705014706,,,,,,,,,,,,,,AMP_prac,left,1.867394887492992,1,,,right,0.9004653424490243,,,,,,,,,,,,,,,,,,,,,,,,,1022,2019_May_29_1700,mf_amp_cond1,3.0.7,59.984205165632716,
opportunity,&&&&&&&&&&&,images/symbols/symbol_21.png,condition_files/AMP_rep3.csv,left,fairness.virtue,,,,,,,,,,,,,,0,3,3,2,0,19,19,19,,,,,,,,,,,,,,,,,,,,,1401.2438960088184,,,,,,,,,,,,,,AMP_prac,left,1.867394887492992,1,,,left,1.2158118925290182,,,,,,,,,,,,,,,,,,,,,,,,,1022,2019_May_29_1700,mf_amp_cond1,3.0.7,59.984205165632716,
promote,&&&&&&&,images/symbols/symbol_81.png,condition_files/AMP_rep3.csv,left,sanctity.virtue,,,,,,,,,,,,,,0,3,3,2,0,20,20,20,,,,,,,,,,,,,,,,,,,,,1405.0782531553414,,,,,,,,,,,,,,AMP_prac,left,1.867394887492992,1,,,left,3.616768428008072,,,,,,,,,,,,,,,,,,,,,,,,,1022,2019_May_29_1700,mf_amp_cond1,3.0.7,59.984205165632716,
values,&&&&&&,images/symbols/symbol_20.png,condition_files/AMP_rep3.csv,left,sanctity.virtue,,,,,,,,,,,,,,0,3,3,2,0,21,21,21,,,,,,,,,,,,,,,,,,,,,1406.2118874799926,,,,,,,,,,,,,,AMP_prac,left,1.867394887492992,1,,,left,0.916534714284353,,,,,,,,,,,,,,,,,,,,,,,,,1022,2019_May_29_1700,mf_amp_cond1,3.0.7,59.984205165632716,
sexual,&&&&&&,images/symbols/symbol_71.png,condition_files/AMP_rep3.csv,right,sanctity.vice,,,,,,,,,,,,,,0,3,3,2,0,22,22,22,,,,,,,,,,,,,,,,,,,,,1407.4789050003747,,,,,,,,,,,,,,AMP_prac,left,1.867394887492992,1,,,left,1.0338405198417604,,,,,,,,,,,,,,,,,,,,,,,,,1022,2019_May_29_1700,mf_amp_cond1,3.0.7,59.984205165632716,
faith,&&&&&,images/symbols/symbol_27.png,condition_files/AMP_rep3.csv,left,sanctity.virtue,,,,,,,,,,,,,,0,3,3,2,0,23,23,23,,,,,,,,,,,,,,,,,,,,,1409.91290633264,,,,,,,,,,,,,,AMP_prac,left,1.867394887492992,1,,,left,2.2156451146584004,,,,,,,,,,,,,,,,,,,,,,,,,1022,2019_May_29_1700,mf_amp_cond1,3.0.7,59.984205165632716,
ensure,&&&&&&,images/symbols/symbol_28.png,condition_files/AMP_rep3.csv,left,fairness.virtue,,,,,,,,,,,,,,0,3,3,2,0,24,24,24,,,,,,,,,,,,,,,,,,,,,1412.3635735886637,,,,,,,,,,,,,,AMP_prac,left,1.867394887492992,1,,,left,2.2331513423705474,,,,,,,,,,,,,,,,,,,,,,,,,1022,2019_May_29_1700,mf_amp_cond1,3.0.7,59.984205165632716,
psured,&&&&&&,images/symbols/symbol_51.png,condition_files/AMP_rep3.csv,None,nonword,,,,,,,,,,,,,,0,3,3,2,0,25,25,25,,,,,,,,,,,,,,,,,,,,,1415.1476693268633,,,,,,,,,,,,,,AMP_prac,left,1.867394887492992,1,,,left,2.5509482447523624,,,,,,,,,,,,,,,,,,,,,,,,,1022,2019_May_29_1700,mf_amp_cond1,3.0.7,59.984205165632716,
rhailled,&&&&&&&&,images/symbols/symbol_22.png,condition_files/AMP_rep3.csv,None,nonword,,,,,,,,,,,,,,0,3,3,2,0,26,26,26,,,,,,,,,,,,,,,,,,,,,1416.2479153563036,,,,,,,,,,,,,,AMP_prac,left,1.867394887492992,1,,,left,0.8820360632380471,,,,,,,,,,,,,,,,,,,,,,,,,1022,2019_May_29_1700,mf_amp_cond1,3.0.7,59.984205165632716,
gryssed,&&&&&&&,images/symbols/symbol_49.png,condition_files/AMP_rep3.csv,None,nonword,,,,,,,,,,,,,,0,3,3,2,0,27,27,27,,,,,,,,,,,,,,,,,,,,,1418.7819398130523,,,,,,,,,,,,,,AMP_prac,left,1.867394887492992,1,,,right,2.300853870809078,,,,,,,,,,,,,,,,,,,,,,,,,1022,2019_May_29_1700,mf_amp_cond1,3.0.7,59.984205165632716,
troops,&&&&&&,images/symbols/symbol_23.png,condition_files/AMP_rep3.csv,right,loyalty.vice,,,,,,,,,,,,,,0,3,3,2,0,28,28,28,,,,,,,,,,,,,,,,,,,,,1420.6491451509064,,,,,,,,,,,,,,AMP_prac,left,1.867394887492992,1,,,right,1.6488504031440243,,,,,,,,,,,,,,,,,,,,,,,,,1022,2019_May_29_1700,mf_amp_cond1,3.0.7,59.984205165632716,
spauned,&&&&&&&,images/symbols/symbol_8.png,condition_files/AMP_rep3.csv,None,nonword,,,,,,,,,,,,,,0,3,3,2,0,29,29,29,,,,,,,,,,,,,,,,,,,,,1422.4829352525994,,,,,,,,,,,,,,AMP_prac,left,1.867394887492992,1,,,left,1.6163543696748093,,,,,,,,,,,,,,,,,,,,,,,,,1022,2019_May_29_1700,mf_amp_cond1,3.0.7,59.984205165632716,
love,&&&&,images/symbols/symbol_9.png,condition_files/AMP_rep3.csv,left,loyalty.virtue,,,,,,,,,,,,,,0,3,3,2,0,30,30,30,,,,,,,,,,,,,,,,,,,,,1423.7332695299992,,,,,,,,,,,,,,AMP_prac,left,1.867394887492992,1,,,left,1.0327548598870635,,,,,,,,,,,,,,,,,,,,,,,,,1022,2019_May_29_1700,mf_amp_cond1,3.0.7,59.984205165632716,
illegal,&&&&&&&,images/symbols/symbol_52.png,condition_files/AMP_rep3.csv,right,fairness.vice,,,,,,,,,,,,,,0,3,3,2,0,31,31,31,,,,,,,,,,,,,,,,,,,,,1425.1003159479005,,,,,,,,,,,,,,AMP_prac,left,1.867394887492992,1,,,right,1.133888660930097,,,,,,,,,,,,,,,,,,,,,,,,,1022,2019_May_29_1700,mf_amp_cond1,3.0.7,59.984205165632716,
interests,&&&&&&&&&,images/symbols/symbol_79.png,condition_files/AMP_rep3.csv,left,fairness.virtue,,,,,,,,,,,,,,0,3,3,2,0,32,32,32,,,,,,,,,,,,,,,,,,,,,1428.2678312039934,,,,,,,,,,,,,,AMP_prac,left,1.867394887492992,1,,,left,2.9491596799343824,,,,,,,,,,,,,,,,,,,,,,,,,1022,2019_May_29_1700,mf_amp_cond1,3.0.7,59.984205165632716,
critics,&&&&&&&,images/symbols/symbol_50.png,condition_files/AMP_rep3.csv,right,loyalty.vice,,,,,,,,,,,,,,0,3,3,2,0,33,33,33,,,,,,,,,,,,,,,,,,,,,1430.3017025137087,,,,,,,,,,,,,,AMP_prac,left,1.867394887492992,1,,,left,1.8162848361534998,,,,,,,,,,,,,,,,,,,,,,,,,1022,2019_May_29_1700,mf_amp_cond1,3.0.7,59.984205165632716,
powerful,&&&&&&&&,images/symbols/symbol_60.png,condition_files/AMP_rep3.csv,left,authority.virtue,,,,,,,,,,,,,,0,3,3,2,0,34,34,34,,,,,,,,,,,,,,,,,,,,,1432.1855551730841,,,,,,,,,,,,,,AMP_prac,left,1.867394887492992,1,,,left,1.6506894503254443,,,,,,,,,,,,,,,,,,,,,,,,,1022,2019_May_29_1700,mf_amp_cond1,3.0.7,59.984205165632716,
scandal,&&&&&&&,images/symbols/symbol_24.png,condition_files/AMP_rep3.csv,right,sanctity.vice,,,,,,,,,,,,,,0,3,3,2,0,35,35,35,,,,,,,,,,,,,,,,,,,,,1433.7192845612299,,,,,,,,,,,,,,AMP_prac,left,1.867394887492992,1,,,left,1.3005767629947513,,,,,,,,,,,,,,,,,,,,,,,,,1022,2019_May_29_1700,mf_amp_cond1,3.0.7,59.984205165632716,
strong,&&&&&&,images/symbols/symbol_13.png,condition_files/AMP_rep3.csv,left,loyalty.virtue,,,,,,,,,,,,,,0,3,3,2,0,36,36,36,,,,,,,,,,,,,,,,,,,,,1435.653144613374,,,,,,,,,,,,,,AMP_prac,left,1.867394887492992,1,,,left,1.7157899227458984,,,,,,,,,,,,,,,,,,,,,,,,,1022,2019_May_29_1700,mf_amp_cond1,3.0.7,59.984205165632716,
support,&&&&&&&,images/symbols/symbol_68.png,condition_files/AMP_rep3.csv,left,loyalty.virtue,,,,,,,,,,,,,,0,3,3,2,0,37,37,37,,,,,,,,,,,,,,,,,,,,,1437.9871167275123,,,,,,,,,,,,,,AMP_prac,left,1.867394887492992,1,,,left,2.1008191681466997,,,,,,,,,,,,,,,,,,,,,,,,,1022,2019_May_29_1700,mf_amp_cond1,3.0.7,59.984205165632716,
men,&&&,images/symbols/symbol_36.png,condition_files/AMP_rep3.csv,right,loyalty.vice,,,,,,,,,,,,,,0,3,3,2,0,38,38,38,,,,,,,,,,,,,,,,,,,,,1439.5541875846684,,,,,,,,,,,,,,AMP_prac,left,1.867394887492992,1,,,left,1.3493435846175998,,,,,,,,,,,,,,,,,,,,,,,,,1022,2019_May_29_1700,mf_amp_cond1,3.0.7,59.984205165632716,
killed,&&&&&&,images/symbols/symbol_30.png,condition_files/AMP_rep3.csv,right,care.vice,,,,,,,,,,,,,,0,3,3,2,0,39,39,39,,,,,,,,,,,,,,,,,,,,,1442.2048982029082,,,,,,,,,,,,,,AMP_prac,left,1.867394887492992,1,,,left,2.4334134401287884,,,,,,,,,,,,,,,,,,,,,,,,,1022,2019_May_29_1700,mf_amp_cond1,3.0.7,59.984205165632716,
fighters,&&&&&&&&,images/symbols/symbol_4.png,condition_files/AMP_rep3.csv,right,authority.vice,,,,,,,,,,,,,,0,3,3,2,0,40,40,40,,,,,,,,,,,,,,,,,,,,,1445.122357893153,,,,,,,,,,,,,,AMP_prac,left,1.867394887492992,1,,,left,2.699868726544082,,,,,,,,,,,,,,,,,,,,,,,,,1022,2019_May_29_1700,mf_amp_cond1,3.0.7,59.984205165632716,
failure,&&&&&&&,images/symbols/symbol_35.png,condition_files/AMP_rep3.csv,right,loyalty.vice,,,,,,,,,,,,,,0,3,3,2,0,41,41,41,,,,,,,,,,,,,,,,,,,,,1447.256254893029,,,,,,,,,,,,,,AMP_prac,left,1.867394887492992,1,,,left,1.9164227807195857,,,,,,,,,,,,,,,,,,,,,,,,,1022,2019_May_29_1700,mf_amp_cond1,3.0.7,59.984205165632716,
conspiracy,&&&&&&&&&&,images/symbols/symbol_43.png,condition_files/AMP_rep3.csv,right,sanctity.vice,,,,,,,,,,,,,,0,3,3,2,0,42,42,42,,,,,,,,,,,,,,,,,,,,,1448.506609376287,,,,,,,,,,,,,,AMP_prac,left,1.867394887492992,1,,,right,1.017190632643178,,,,,,,,,,,,,,,,,,,,,,,,,1022,2019_May_29_1700,mf_amp_cond1,3.0.7,59.984205165632716,
loyalty,&&&&&&&,images/symbols/symbol_66.png,condition_files/AMP_rep3.csv,left,loyalty.virtue,,,,,,,,,,,,,,0,3,3,2,0,43,43,43,,,,,,,,,,,,,,,,,,,,,1449.7069218282122,,,,,,,,,,,,,,AMP_prac,left,1.867394887492992,1,,,right,0.9671710522379726,,,,,,,,,,,,,,,,,,,,,,,,,1022,2019_May_29_1700,mf_amp_cond1,3.0.7,59.984205165632716,
safety,&&&&&&,images/symbols/symbol_64.png,condition_files/AMP_rep3.csv,left,care.virtue,,,,,,,,,,,,,,0,3,3,2,0,44,44,44,,,,,,,,,,,,,,,,,,,,,1451.5907748084283,,,,,,,,,,,,,,AMP_prac,left,1.867394887492992,1,,,right,1.6657097248826176,,,,,,,,,,,,,,,,,,,,,,,,,1022,2019_May_29_1700,mf_amp_cond1,3.0.7,59.984205165632716,
hate,&&&&,images/symbols/symbol_44.png,condition_files/AMP_rep3.csv,right,fairness.vice,,,,,,,,,,,,,,0,3,3,2,0,45,45,45,,,,,,,,,,,,,,,,,,,,,1452.9244447979145,,,,,,,,,,,,,,AMP_prac,left,1.867394887492992,1,,,right,1.1005263447295874,,,,,,,,,,,,,,,,,,,,,,,,,1022,2019_May_29_1700,mf_amp_cond1,3.0.7,59.984205165632716,
shot,&&&&,images/symbols/symbol_3.png,condition_files/AMP_rep3.csv,right,care.vice,,,,,,,,,,,,,,0,3,3,2,0,46,46,46,,,,,,,,,,,,,,,,,,,,,1454.8749701322522,,,,,,,,,,,,,,AMP_prac,left,1.867394887492992,1,,,left,1.7325017102994025,,,,,,,,,,,,,,,,,,,,,,,,,1022,2019_May_29_1700,mf_amp_cond1,3.0.7,59.984205165632716,
torture,&&&&&&&,images/symbols/symbol_48.png,condition_files/AMP_rep3.csv,right,care.vice,,,,,,,,,,,,,,0,3,3,2,0,47,47,47,,,,,,,,,,,,,,,,,,,,,1456.6254421618069,,,,,,,,,,,,,,AMP_prac,left,1.867394887492992,1,,,right,1.5327826027059928,,,,,,,,,,,,,,,,,,,,,,,,,1022,2019_May_29_1700,mf_amp_cond1,3.0.7,59.984205165632716,
protect,&&&&&&&,images/symbols/symbol_46.png,condition_files/AMP_rep3.csv,left,fairness.virtue,,,,,,,,,,,,,,0,3,3,2,0,48,48,48,,,,,,,,,,,,,,,,,,,,,1458.6926706562517,,,,,,,,,,,,,,AMP_prac,left,1.867394887492992,1,,,left,1.8492892214562744,,,,,,,,,,,,,,,,,,,,,,,,,1022,2019_May_29_1700,mf_amp_cond1,3.0.7,59.984205165632716,
pleasant,&&&&&&&,images/symbols/symbol_75.png,condition_files/AMP_rep3.csv,right,control,,,,,,,,,,,,,,0,3,3,2,0,49,49,49,,,,,,,,,,,,,,,,,,,,,1460.0596965475706,,,,,,,,,,,,,,AMP_prac,left,1.867394887492992,1,,,right,1.133863965049386,,,,,,,,,,,,,,,,,,,,,,,,,1022,2019_May_29_1700,mf_amp_cond1,3.0.7,59.984205165632716,
spreussed,&&&&&&&&&,images/symbols/symbol_67.png,condition_files/AMP_rep3.csv,None,nonword,,,,,,,,,,,,,,0,3,3,2,0,50,50,50,,,,,,,,,,,,,,,,,,,,,1461.526763844653,,,,,,,,,,,,,,AMP_prac,left,1.867394887492992,1,,,right,1.248745717923157,,,,,,,,,,,,,,,,,,,,,,,,,1022,2019_May_29_1700,mf_amp_cond1,3.0.7,59.984205165632716,
