words,mask,masks,symbols,conditionfile,corr_ans,category,LDT_trials_cond2.thisRepN,LDT_trials_cond2.thisTrialN,LDT_trials_cond2.thisN,LDT_trials_cond2.thisIndex,LDT_pracs_1.thisRepN,LDT_pracs_1.thisTrialN,LDT_pracs_1.thisN,LDT_pracs_1.thisIndex,LDT_trials_1.thisRepN,LDT_trials_1.thisTrialN,LDT_trials_1.thisN,LDT_trials_1.thisIndex,logo_trials.thisRepN,logo_trials.thisTrialN,logo_trials.thisN,logo_trials.thisIndex,AMP_pracs.thisRepN,AMP_pracs.thisTrialN,AMP_pracs.thisN,AMP_pracs.thisIndex,trials_loop.thisRepN,trials_loop.thisTrialN,trials_loop.thisN,trials_loop.thisIndex,AMP_trials.thisRepN,AMP_trials.thisTrialN,AMP_trials.thisN,AMP_trials.thisIndex,memtask_trials.thisRepN,memtask_trials.thisTrialN,memtask_trials.thisN,memtask_trials.thisIndex,LDT_cond1.thisRepN,LDT_cond1.thisTrialN,LDT_cond1.thisN,LDT_cond1.thisIndex,begin_key.keys,begin_key.rt,key_resp_instr.keys,key_resp_instr.rt,exp_time,key_resp_LDT_instr.keys,key_resp_LDT_instr.rt,resp_LDT_prac.keys,resp_LDT_prac.rt,task,keypress,RT,corr,resp_LDT_ready.keys,resp_LDT_ready.rt,resp_LDT_trial.keys,resp_LDT_trial.rt,LDT_rating.response,LDT_rating.rt,resp_sym_rate.keys,resp_sym_rate.rt,sym_resp_1.keys,sym_resp_1.rt,sym_resp_2.keys,sym_resp_2.rt,sym_resp_trial.keys,sym_resp_trial.rt,symbol_index,resp_AMP_ready1.keys,resp_AMP_ready1.rt,resp_AMP.keys,resp_AMP.rt,prime_dur,resp_AMP_ready.keys,resp_AMP_ready.rt,resp_AMP_trials.keys,resp_AMP_trials.rt,rest_key_resp.keys,rest_key_resp.rt,AMP_nonword_rating.response,AMP_nonword_rating.rt,AMP_word_rating.response,AMP_word_rating.rt,AMP_random_rating.response,AMP_random_rating.rt,key_resp_instr_memtask.keys,key_resp_instr_memtask.rt,resp_memtask.keys,resp_memtask.corr,resp_memtask.rt,participant ID,date,expName,psychopyVersion,frameRate,
,,,,,,,,,,,,,,,,,,,,,,,,,,,,,,,,,,,,,,,,,,,right,514.9851745013148,,,,,,,,,,,,,,,,,,,,,,,,,,,,,,,,,,,,,,,,,,,,,,,,,1023,2019_May_29_1659,mf_amp_cond1,3.0.7,59.98228200674714,
,,,,,,,,,,,,,,,,,,,,,,,,,,,,,,,,,,,,,,,,,,,,,right,4.868134046206251,,,,,,,,,,,,,,,,,,,,,,,,,,,,,,,,,,,,,,,,,,,,,,,1023,2019_May_29_1659,mf_amp_cond1,3.0.7,59.98228200674714,
bisebell,&&&&&&&,,,,,,0,0,0,0,0,0,0,1,,,,,,,,,,,,,,,,,,,,,,,,,,,,,,,,,623.6806569981854,right,1.8674213958438486,left,6.168539217906073,LDT_prac,left,6.168539217906073,0,,,,,,,,,,,,,,,,,,,,,,,,,,,,,,,,,,,,,,1023,2019_May_29_1659,mf_amp_cond1,3.0.7,59.98228200674714,
keyboard,&&&&&&&,,,,,,0,0,0,0,0,1,1,0,,,,,,,,,,,,,,,,,,,,,,,,,,,,,,,,,630.2155888874549,,,right,4.71813399810344,LDT_prac,right,4.71813399810344,0,,,,,,,,,,,,,,,,,,,,,,,,,,,,,,,,,,,,,,1023,2019_May_29_1659,mf_amp_cond1,3.0.7,59.98228200674714,
,,,,,,,0,0,0,0,,,,,0,0,0,0,,,,,,,,,,,,,,,,,,,,,,,,,,,,,650.7210878725164,,,,,LDT_prac,right,4.71813399810344,0,right,1.483982207486406,right,1.2505764225497842,,,,,,,,,,,,,,,,,,,,,,,,,,,,,,,,,,1023,2019_May_29_1659,mf_amp_cond1,3.0.7,59.98228200674714,
,,,,,,,0,0,0,0,,,,,,,,,,,,,,,,,,,,,,,,,,,,,,,,,,,,,,,,,,,,,,,,,,3,30.476,,,,,,,,,,,,,,,,,,,,,,,,,,,,,,,,1023,2019_May_29_1659,mf_amp_cond1,3.0.7,59.98228200674714,
,,,,,,,,,,,,,,,,,,,,,,,,,,,,,,,,,,,,,,,,,,,,,,,,,,,,,,,,,,,,,,right,2.9343662592582405,,,,,,,,,,,,,,,,,,,,,,,,,,,,,,1023,2019_May_29_1659,mf_amp_cond1,3.0.7,59.98228200674714,
,,,,,,,,,,,,,,,,,,,,,,,,,,,,,,,,,,,,,,,,,,,,,,,756.1818207476754,,,,,,,,,,,,,,,,,right,7.052072218386456,,,,,,,,,,,,,,,,,,,,,,,,,,,,1023,2019_May_29_1659,mf_amp_cond1,3.0.7,59.98228200674714,
,,,,,,,,,,,,,,,,,,,,,,,,,,,,,,,,,,,,,,,,,,,,,,,,,,,,,,,,,,,,,,,,,,right,1.3672717777080834,,,,,,,,,,,,,,,,,,,,,,,,,,1023,2019_May_29_1659,mf_amp_cond1,3.0.7,59.98228200674714,
,,,,,,,,,,,,,,,,,,,,,,,,,,,,,,,,,,,,,,,,,,,,,,,780.6381943330634,,,,,,,,,,,,,,,,,,,,,left,0.7837783228605986,63,right,3.284481511451304,,,,,,,,,,,,,,,,,,,,,1023,2019_May_29_1659,mf_amp_cond1,3.0.7,59.98228200674714,
keyboard,,&&&&&&&&,images/symbols/symbol_40.png,,,,,,,,,,,,,,,,,,,,0,0,0,2,,,,,,,,,,,,,,,,,,,,,1003.6303192591295,,,,,AMP_prac,left,4.801481042522937,,,,,,,,,,,,,,,,,,,left,4.801481042522937,1,,,,,,,,,,,,,,,,,,1023,2019_May_29_1659,mf_amp_cond1,3.0.7,59.98228200674714,
scarf,,&&&&&,images/symbols/symbol_54.png,,,,,,,,,,,,,,,,,,,,0,1,1,3,,,,,,,,,,,,,,,,,,,,,1007.1311273248866,,,,,AMP_prac,left,3.2677557193674147,,,,,,,,,,,,,,,,,,,left,3.2677557193674147,1,,,,,,,,,,,,,,,,,,1023,2019_May_29_1659,mf_amp_cond1,3.0.7,59.98228200674714,
banana,,&&&&&&,images/symbols/symbol_68.png,,,,,,,,,,,,,,,,,,,,0,2,2,1,,,,,,,,,,,,,,,,,,,,,1008.9149460589979,,,,,AMP_prac,right,1.55066760443151,,,,,,,,,,,,,,,,,,,right,1.55066760443151,1,,,,,,,,,,,,,,,,,,1023,2019_May_29_1659,mf_amp_cond1,3.0.7,59.98228200674714,
car,,&&&,images/symbols/symbol_9.png,,,,,,,,,,,,,,,,,,,,0,3,3,0,,,,,,,,,,,,,,,,,,,,,1010.4153233915567,,,,,AMP_prac,left,1.2672355039976537,,,,,,,,,,,,,,,,,,,left,1.2672355039976537,1,,,,,,,,,,,,,,,,,,1023,2019_May_29_1659,mf_amp_cond1,3.0.7,59.98228200674714,
,,,,,,,,,,,,,,,,,,,,,,,,,,,,,,,,,,,,,,,,,,,,,,,,,,,,,,,,,,,,,,,,,,,,,,,,,,,,right,4.168020285200328,,,,,,,,,,,,,,,,1023,2019_May_29_1659,mf_amp_cond1,3.0.7,59.98228200674714,
victims,,&&&&&&&,images/symbols/symbol_59.png,condition_files/AMP_rep1.csv,right,care.vice,,,,,,,,,,,,,,,,,,,,,0,0,0,0,0,0,0,0,,,,,,,,,,,,,1036.8057197399903,,,,,AMP_prac,left,1.2672355039976537,,,,,,,,,,,,,,,,,,,,,1,,,right,1.9507283496204764,,,,,,,,,,,,,,1023,2019_May_29_1659,mf_amp_cond1,3.0.7,59.98228200674714,
illegal,,&&&&&&&,images/symbols/symbol_3.png,condition_files/AMP_rep1.csv,right,fairness.vice,,,,,,,,,,,,,,,,,,,,,0,0,0,0,0,1,1,1,,,,,,,,,,,,,1038.772748921765,,,,,AMP_prac,left,1.2672355039976537,,,,,,,,,,,,,,,,,,,,,1,,,right,1.7340159637387842,,,,,,,,,,,,,,1023,2019_May_29_1659,mf_amp_cond1,3.0.7,59.98228200674714,
sharing,,&&&&&&&,images/symbols/symbol_49.png,condition_files/AMP_rep1.csv,left,loyalty.virtue,,,,,,,,,,,,,,,,,,,,,0,0,0,0,0,2,2,2,,,,,,,,,,,,,1039.9230437157676,,,,,AMP_prac,left,1.2672355039976537,,,,,,,,,,,,,,,,,,,,,1,,,right,0.9171350048854947,,,,,,,,,,,,,,1023,2019_May_29_1659,mf_amp_cond1,3.0.7,59.98228200674714,
rejected,,&&&&&&&&,images/symbols/symbol_81.png,condition_files/AMP_rep1.csv,right,authority.vice,,,,,,,,,,,,,,,,,,,,,0,0,0,0,0,3,3,3,,,,,,,,,,,,,1040.973316347925,,,,,AMP_prac,left,1.2672355039976537,,,,,,,,,,,,,,,,,,,,,1,,,left,0.8322706122417003,,,,,,,,,,,,,,1023,2019_May_29_1659,mf_amp_cond1,3.0.7,59.98228200674714,
plonx,,&&&&&,images/symbols/symbol_65.png,condition_files/AMP_rep1.csv,None,nonword,,,,,,,,,,,,,,,,,,,,,0,0,0,0,0,4,4,4,,,,,,,,,,,,,1042.1736300806515,,,,,AMP_prac,left,1.2672355039976537,,,,,,,,,,,,,,,,,,,,,1,,,left,0.9671417560894042,,,,,,,,,,,,,,1023,2019_May_29_1659,mf_amp_cond1,3.0.7,59.98228200674714,
dignity,,&&&&&&&,images/symbols/symbol_82.png,condition_files/AMP_rep1.csv,left,sanctity.virtue,,,,,,,,,,,,,,,,,,,,,0,0,0,0,0,5,5,5,,,,,,,,,,,,,1043.2574043304194,,,,,AMP_prac,left,1.2672355039976537,,,,,,,,,,,,,,,,,,,,,1,,,left,0.866306877695024,,,,,,,,,,,,,,1023,2019_May_29_1659,mf_amp_cond1,3.0.7,59.98228200674714,
injured,,&&&&&&&,images/symbols/symbol_28.png,condition_files/AMP_rep1.csv,right,care.vice,,,,,,,,,,,,,,,,,,,,,0,0,0,0,0,6,6,6,,,,,,,,,,,,,1044.657620947808,,,,,AMP_prac,left,1.2672355039976537,,,,,,,,,,,,,,,,,,,,,1,,,right,1.1828977409750223,,,,,,,,,,,,,,1023,2019_May_29_1659,mf_amp_cond1,3.0.7,59.98228200674714,
treas,,&&&&&,images/symbols/symbol_15.png,condition_files/AMP_rep1.csv,None,nonword,,,,,,,,,,,,,,,,,,,,,0,0,0,0,0,7,7,7,,,,,,,,,,,,,1045.707896466367,,,,,AMP_prac,left,1.2672355039976537,,,,,,,,,,,,,,,,,,,,,1,,,left,0.8326933272182941,,,,,,,,,,,,,,1023,2019_May_29_1659,mf_amp_cond1,3.0.7,59.98228200674714,
men,,&&&,images/symbols/symbol_40.png,condition_files/AMP_rep1.csv,right,loyalty.vice,,,,,,,,,,,,,,,,,,,,,0,0,0,0,0,8,8,8,,,,,,,,,,,,,1046.7414968670346,,,,,AMP_prac,left,1.2672355039976537,,,,,,,,,,,,,,,,,,,,,1,,,left,0.8158036444801837,,,,,,,,,,,,,,1023,2019_May_29_1659,mf_amp_cond1,3.0.7,59.98228200674714,
troops,,&&&&&&,images/symbols/symbol_24.png,condition_files/AMP_rep1.csv,right,loyalty.vice,,,,,,,,,,,,,,,,,,,,,0,0,0,0,0,9,9,9,,,,,,,,,,,,,1047.9751617975999,,,,,AMP_prac,left,1.2672355039976537,,,,,,,,,,,,,,,,,,,,,1,,,left,1.0004993684124202,,,,,,,,,,,,,,1023,2019_May_29_1659,mf_amp_cond1,3.0.7,59.98228200674714,
praised,,&&&&&&&,images/symbols/symbol_21.png,condition_files/AMP_rep1.csv,left,loyalty.virtue,,,,,,,,,,,,,,,,,,,,,0,0,0,0,0,10,10,10,,,,,,,,,,,,,1049.0421076230705,,,,,AMP_prac,left,1.2672355039976537,,,,,,,,,,,,,,,,,,,,,1,,,right,0.849348880816251,,,,,,,,,,,,,,1023,2019_May_29_1659,mf_amp_cond1,3.0.7,59.98228200674714,
penalty,,&&&&&&&,images/symbols/symbol_22.png,condition_files/AMP_rep1.csv,right,authority.vice,,,,,,,,,,,,,,,,,,,,,0,0,0,0,0,11,11,11,,,,,,,,,,,,,1050.259090059204,,,,,AMP_prac,left,1.2672355039976537,,,,,,,,,,,,,,,,,,,,,1,,,right,0.9994255821220577,,,,,,,,,,,,,,1023,2019_May_29_1659,mf_amp_cond1,3.0.7,59.98228200674714,
war,,&&&,images/symbols/symbol_78.png,condition_files/AMP_rep1.csv,right,sanctity.vice,,,,,,,,,,,,,,,,,,,,,0,0,0,0,0,12,12,12,,,,,,,,,,,,,1051.4760744196828,,,,,AMP_prac,left,1.2672355039976537,,,,,,,,,,,,,,,,,,,,,1,,,left,0.9992697099223733,,,,,,,,,,,,,,1023,2019_May_29_1659,mf_amp_cond1,3.0.7,59.98228200674714,
ban,,&&&,images/symbols/symbol_34.png,condition_files/AMP_rep1.csv,right,loyalty.vice,,,,,,,,,,,,,,,,,,,,,0,0,0,0,0,13,13,13,,,,,,,,,,,,,1052.693059421843,,,,,AMP_prac,left,1.2672355039976537,,,,,,,,,,,,,,,,,,,,,1,,,left,0.9993579091969877,,,,,,,,,,,,,,1023,2019_May_29_1659,mf_amp_cond1,3.0.7,59.98228200674714,
promote,,&&&&&&&,images/symbols/symbol_71.png,condition_files/AMP_rep1.csv,left,sanctity.virtue,,,,,,,,,,,,,,,,,,,,,0,0,0,0,0,14,14,14,,,,,,,,,,,,,1054.07675679354,,,,,AMP_prac,left,1.2672355039976537,,,,,,,,,,,,,,,,,,,,,1,,,right,1.1505225086584687,,,,,,,,,,,,,,1023,2019_May_29_1659,mf_amp_cond1,3.0.7,59.98228200674714,
hate,,&&&&,images/symbols/symbol_47.png,condition_files/AMP_rep1.csv,right,fairness.vice,,,,,,,,,,,,,,,,,,,,,0,0,0,0,0,15,15,15,,,,,,,,,,,,,1055.8772285154555,,,,,AMP_prac,left,1.2672355039976537,,,,,,,,,,,,,,,,,,,,,1,,,right,1.5826072928030044,,,,,,,,,,,,,,1023,2019_May_29_1659,mf_amp_cond1,3.0.7,59.98228200674714,
phlux,,&&&&&,images/symbols/symbol_35.png,condition_files/AMP_rep1.csv,None,nonword,,,,,,,,,,,,,,,,,,,,,0,0,0,0,0,16,16,16,,,,,,,,,,,,,1056.9107083238196,,,,,AMP_prac,left,1.2672355039976537,,,,,,,,,,,,,,,,,,,,,1,,,left,0.815931293182075,,,,,,,,,,,,,,1023,2019_May_29_1659,mf_amp_cond1,3.0.7,59.98228200674714,
good,,&&&&,images/symbols/symbol_73.png,condition_files/AMP_rep1.csv,left,care.virtue,,,,,,,,,,,,,,,,,,,,,0,0,0,0,0,17,17,17,,,,,,,,,,,,,1057.9777747415937,,,,,AMP_prac,left,1.2672355039976537,,,,,,,,,,,,,,,,,,,,,1,,,left,0.8492889050394297,,,,,,,,,,,,,,1023,2019_May_29_1659,mf_amp_cond1,3.0.7,59.98228200674714,
actively,,&&&&&&&&,images/symbols/symbol_33.png,condition_files/AMP_rep1.csv,left,authority.virtue,,,,,,,,,,,,,,,,,,,,,0,0,0,0,0,18,18,18,,,,,,,,,,,,,1059.394831650192,,,,,AMP_prac,left,1.2672355039976537,,,,,,,,,,,,,,,,,,,,,1,,,left,1.1996020446531475,,,,,,,,,,,,,,1023,2019_May_29_1659,mf_amp_cond1,3.0.7,59.98228200674714,
strong,,&&&&&&,images/symbols/symbol_46.png,condition_files/AMP_rep1.csv,left,loyalty.virtue,,,,,,,,,,,,,,,,,,,,,0,0,0,0,0,19,19,19,,,,,,,,,,,,,1060.5117964143865,,,,,AMP_prac,left,1.2672355039976537,,,,,,,,,,,,,,,,,,,,,1,,,left,0.8993485760875046,,,,,,,,,,,,,,1023,2019_May_29_1659,mf_amp_cond1,3.0.7,59.98228200674714,
victim,,&&&&&&,images/symbols/symbol_38.png,condition_files/AMP_rep1.csv,right,care.vice,,,,,,,,,,,,,,,,,,,,,0,0,0,0,0,20,20,20,,,,,,,,,,,,,1061.8121239703614,,,,,AMP_prac,left,1.2672355039976537,,,,,,,,,,,,,,,,,,,,,1,,,right,1.082723555387929,,,,,,,,,,,,,,1023,2019_May_29_1659,mf_amp_cond1,3.0.7,59.98228200674714,
health,,&&&&&&,images/symbols/symbol_36.png,condition_files/AMP_rep1.csv,left,care.virtue,,,,,,,,,,,,,,,,,,,,,0,0,0,0,0,21,21,21,,,,,,,,,,,,,1063.0624608115759,,,,,AMP_prac,left,1.2672355039976537,,,,,,,,,,,,,,,,,,,,,1,,,left,1.0328652998432517,,,,,,,,,,,,,,1023,2019_May_29_1659,mf_amp_cond1,3.0.7,59.98228200674714,
progress,,&&&&&&&&,images/symbols/symbol_32.png,condition_files/AMP_rep1.csv,left,authority.virtue,,,,,,,,,,,,,,,,,,,,,0,0,0,0,0,22,22,22,,,,,,,,,,,,,1064.3461443602573,,,,,AMP_prac,left,1.2672355039976537,,,,,,,,,,,,,,,,,,,,,1,,,left,1.0659583141095936,,,,,,,,,,,,,,1023,2019_May_29_1659,mf_amp_cond1,3.0.7,59.98228200674714,
betrayal,,&&&&&&&&,images/symbols/symbol_5.png,condition_files/AMP_rep1.csv,right,loyalty.vice,,,,,,,,,,,,,,,,,,,,,0,0,0,0,0,23,23,23,,,,,,,,,,,,,1065.5130886142142,,,,,AMP_prac,left,1.2672355039976537,,,,,,,,,,,,,,,,,,,,,1,,,left,0.9494958049617708,,,,,,,,,,,,,,1023,2019_May_29_1659,mf_amp_cond1,3.0.7,59.98228200674714,
safe,,&&&&,images/symbols/symbol_10.png,condition_files/AMP_rep1.csv,left,care.virtue,,,,,,,,,,,,,,,,,,,,,0,0,0,0,0,24,24,24,,,,,,,,,,,,,1066.5633731128182,,,,,AMP_prac,left,1.2672355039976537,,,,,,,,,,,,,,,,,,,,,1,,,right,0.8329133444931358,,,,,,,,,,,,,,1023,2019_May_29_1659,mf_amp_cond1,3.0.7,59.98228200674714,
slavery,,&&&&&&&,images/symbols/symbol_7.png,condition_files/AMP_rep1.csv,right,loyalty.vice,,,,,,,,,,,,,,,,,,,,,0,0,0,0,0,25,25,25,,,,,,,,,,,,,1067.6970101085026,,,,,AMP_prac,left,1.2672355039976537,,,,,,,,,,,,,,,,,,,,,1,,,right,0.9162340892944485,,,,,,,,,,,,,,1023,2019_May_29_1659,mf_amp_cond1,3.0.7,59.98228200674714,
unpleasant,,&&&&&&&&&,images/symbols/symbol_64.png,condition_files/AMP_rep1.csv,left,control,,,,,,,,,,,,,,,,,,,,,0,0,0,0,0,26,26,26,,,,,,,,,,,,,1068.863971681334,,,,,AMP_prac,left,1.2672355039976537,,,,,,,,,,,,,,,,,,,,,1,,,right,0.9337992179207504,,,,,,,,,,,,,,1023,2019_May_29_1659,mf_amp_cond1,3.0.7,59.98228200674714,
praise,,&&&&&&,images/symbols/symbol_80.png,condition_files/AMP_rep1.csv,left,authority.virtue,,,,,,,,,,,,,,,,,,,,,0,0,0,0,0,27,27,27,,,,,,,,,,,,,1069.9809284275398,,,,,AMP_prac,left,1.2672355039976537,,,,,,,,,,,,,,,,,,,,,1,,,left,0.8992379261180758,,,,,,,,,,,,,,1023,2019_May_29_1659,mf_amp_cond1,3.0.7,59.98228200674714,
pleasant,,&&&&&&&,images/symbols/symbol_67.png,condition_files/AMP_rep1.csv,right,control,,,,,,,,,,,,,,,,,,,,,0,0,0,0,0,28,28,28,,,,,,,,,,,,,1072.1981825174298,,,,,AMP_prac,left,1.2672355039976537,,,,,,,,,,,,,,,,,,,,,1,,,right,1.999620262067765,,,,,,,,,,,,,,1023,2019_May_29_1659,mf_amp_cond1,3.0.7,59.98228200674714,
forced,,&&&&&&,images/symbols/symbol_37.png,condition_files/AMP_rep1.csv,right,fairness.vice,,,,,,,,,,,,,,,,,,,,,0,0,0,0,0,29,29,29,,,,,,,,,,,,,1073.2317806731444,,,,,AMP_prac,left,1.2672355039976537,,,,,,,,,,,,,,,,,,,,,1,,,left,0.8004268205258995,,,,,,,,,,,,,,1023,2019_May_29_1659,mf_amp_cond1,3.0.7,59.98228200674714,
loyalty,,&&&&&&&,images/symbols/symbol_58.png,condition_files/AMP_rep1.csv,left,loyalty.virtue,,,,,,,,,,,,,,,,,,,,,0,0,0,0,0,30,30,30,,,,,,,,,,,,,1074.648822828196,,,,,AMP_prac,left,1.2672355039976537,,,,,,,,,,,,,,,,,,,,,1,,,right,1.1989984409883618,,,,,,,,,,,,,,1023,2019_May_29_1659,mf_amp_cond1,3.0.7,59.98228200674714,
growth,,&&&&&&,images/symbols/symbol_13.png,condition_files/AMP_rep1.csv,left,care.virtue,,,,,,,,,,,,,,,,,,,,,0,0,0,0,0,31,31,31,,,,,,,,,,,,,1075.7324322254863,,,,,AMP_prac,left,1.2672355039976537,,,,,,,,,,,,,,,,,,,,,1,,,right,0.8504480044357479,,,,,,,,,,,,,,1023,2019_May_29_1659,mf_amp_cond1,3.0.7,59.98228200674714,
lighnde,,&&&&&&&,images/symbols/symbol_51.png,condition_files/AMP_rep1.csv,None,nonword,,,,,,,,,,,,,,,,,,,,,0,0,0,0,0,32,32,32,,,,,,,,,,,,,1078.0497203441337,,,,,AMP_prac,left,1.2672355039976537,,,,,,,,,,,,,,,,,,,,,1,,,right,2.099708814173937,,,,,,,,,,,,,,1023,2019_May_29_1659,mf_amp_cond1,3.0.7,59.98228200674714,
fear,,&&&&,images/symbols/symbol_18.png,condition_files/AMP_rep1.csv,right,sanctity.vice,,,,,,,,,,,,,,,,,,,,,0,0,0,0,0,33,33,33,,,,,,,,,,,,,1078.983279980952,,,,,AMP_prac,left,1.2672355039976537,,,,,,,,,,,,,,,,,,,,,1,,,right,0.7003866978920996,,,,,,,,,,,,,,1023,2019_May_29_1659,mf_amp_cond1,3.0.7,59.98228200674714,
clean,,&&&&&,images/symbols/symbol_74.png,condition_files/AMP_rep1.csv,left,sanctity.virtue,,,,,,,,,,,,,,,,,,,,,0,0,0,0,0,34,34,34,,,,,,,,,,,,,1080.2502871288452,,,,,AMP_prac,left,1.2672355039976537,,,,,,,,,,,,,,,,,,,,,1,,,left,1.0338204179424793,,,,,,,,,,,,,,1023,2019_May_29_1659,mf_amp_cond1,3.0.7,59.98228200674714,
free,,&&&&,images/symbols/symbol_63.png,condition_files/AMP_rep1.csv,left,fairness.virtue,,,,,,,,,,,,,,,,,,,,,0,0,0,0,0,35,35,35,,,,,,,,,,,,,1081.717344374163,,,,,AMP_prac,left,1.2672355039976537,,,,,,,,,,,,,,,,,,,,,1,,,left,1.2490568289067596,,,,,,,,,,,,,,1023,2019_May_29_1659,mf_amp_cond1,3.0.7,59.98228200674714,
spauned,,&&&&&&&,images/symbols/symbol_1.png,condition_files/AMP_rep1.csv,None,nonword,,,,,,,,,,,,,,,,,,,,,0,0,0,0,0,36,36,36,,,,,,,,,,,,,1083.201065190835,,,,,AMP_prac,left,1.2672355039976537,,,,,,,,,,,,,,,,,,,,,1,,,right,1.250563272740692,,,,,,,,,,,,,,1023,2019_May_29_1659,mf_amp_cond1,3.0.7,59.98228200674714,
black,,&&&&&,images/symbols/symbol_4.png,condition_files/AMP_rep1.csv,right,loyalty.vice,,,,,,,,,,,,,,,,,,,,,0,0,0,0,0,37,37,37,,,,,,,,,,,,,1084.518080052454,,,,,AMP_prac,left,1.2672355039976537,,,,,,,,,,,,,,,,,,,,,1,,,right,1.0987248306628317,,,,,,,,,,,,,,1023,2019_May_29_1659,mf_amp_cond1,3.0.7,59.98228200674714,
prosecution,,&&&&&&&&&&&,images/symbols/symbol_11.png,condition_files/AMP_rep1.csv,right,authority.vice,,,,,,,,,,,,,,,,,,,,,0,0,0,0,0,38,38,38,,,,,,,,,,,,,1085.6183626428246,,,,,AMP_prac,left,1.2672355039976537,,,,,,,,,,,,,,,,,,,,,1,,,right,0.8826006539165974,,,,,,,,,,,,,,1023,2019_May_29_1659,mf_amp_cond1,3.0.7,59.98228200674714,
embrace,,&&&&&&&,images/symbols/symbol_54.png,condition_files/AMP_rep1.csv,left,authority.virtue,,,,,,,,,,,,,,,,,,,,,0,0,0,0,0,39,39,39,,,,,,,,,,,,,1087.0354009491857,,,,,AMP_prac,left,1.2672355039976537,,,,,,,,,,,,,,,,,,,,,1,,,right,1.1993672742974013,,,,,,,,,,,,,,1023,2019_May_29_1659,mf_amp_cond1,3.0.7,59.98228200674714,
drug,,&&&&,images/symbols/symbol_62.png,condition_files/AMP_rep1.csv,right,sanctity.vice,,,,,,,,,,,,,,,,,,,,,0,0,0,0,0,40,40,40,,,,,,,,,,,,,1088.6691651120782,,,,,AMP_prac,left,1.2672355039976537,,,,,,,,,,,,,,,,,,,,,1,,,left,1.400578074157238,,,,,,,,,,,,,,1023,2019_May_29_1659,mf_amp_cond1,3.0.7,59.98228200674714,
voter,,&&&&&,images/symbols/symbol_61.png,condition_files/AMP_rep1.csv,right,fairness.vice,,,,,,,,,,,,,,,,,,,,,0,0,0,0,0,41,41,41,,,,,,,,,,,,,1089.8528281021863,,,,,AMP_prac,left,1.2672355039976537,,,,,,,,,,,,,,,,,,,,,1,,,left,0.9656369159929454,,,,,,,,,,,,,,1023,2019_May_29_1659,mf_amp_cond1,3.0.7,59.98228200674714,
safety,,&&&&&&,images/symbols/symbol_56.png,condition_files/AMP_rep1.csv,left,care.virtue,,,,,,,,,,,,,,,,,,,,,0,0,0,0,0,42,42,42,,,,,,,,,,,,,1091.1031482657418,,,,,AMP_prac,left,1.2672355039976537,,,,,,,,,,,,,,,,,,,,,1,,,right,1.0325910802930593,,,,,,,,,,,,,,1023,2019_May_29_1659,mf_amp_cond1,3.0.7,59.98228200674714,
values,,&&&&&&,images/symbols/symbol_44.png,condition_files/AMP_rep1.csv,left,sanctity.virtue,,,,,,,,,,,,,,,,,,,,,0,0,0,0,0,43,43,43,,,,,,,,,,,,,1092.6202093756292,,,,,AMP_prac,left,1.2672355039976537,,,,,,,,,,,,,,,,,,,,,1,,,right,1.2838990755844861,,,,,,,,,,,,,,1023,2019_May_29_1659,mf_amp_cond1,3.0.7,59.98228200674714,
energy,,&&&&&&,images/symbols/symbol_39.png,condition_files/AMP_rep1.csv,left,sanctity.virtue,,,,,,,,,,,,,,,,,,,,,0,0,0,0,0,44,44,44,,,,,,,,,,,,,1093.9539070522878,,,,,AMP_prac,left,1.2672355039976537,,,,,,,,,,,,,,,,,,,,,1,,,right,1.115609060972929,,,,,,,,,,,,,,1023,2019_May_29_1659,mf_amp_cond1,3.0.7,59.98228200674714,
freedom,,&&&&&&&,images/symbols/symbol_17.png,condition_files/AMP_rep1.csv,left,sanctity.virtue,,,,,,,,,,,,,,,,,,,,,0,0,0,0,0,45,45,45,,,,,,,,,,,,,1094.7874419610016,,,,,AMP_prac,left,1.2672355039976537,,,,,,,,,,,,,,,,,,,,,1,,,right,0.6158600279595703,,,,,,,,,,,,,,1023,2019_May_29_1659,mf_amp_cond1,3.0.7,59.98228200674714,
fighters,,&&&&&&&&,images/symbols/symbol_50.png,condition_files/AMP_rep1.csv,right,authority.vice,,,,,,,,,,,,,,,,,,,,,0,0,0,0,0,46,46,46,,,,,,,,,,,,,1097.0380206285045,,,,,AMP_prac,left,1.2672355039976537,,,,,,,,,,,,,,,,,,,,,1,,,left,2.0330917313694954,,,,,,,,,,,,,,1023,2019_May_29_1659,mf_amp_cond1,3.0.7,59.98228200674714,
prison,,&&&&&&,images/symbols/symbol_77.png,condition_files/AMP_rep1.csv,right,fairness.vice,,,,,,,,,,,,,,,,,,,,,0,0,0,0,0,47,47,47,,,,,,,,,,,,,1099.1885909251869,,,,,AMP_prac,left,1.2672355039976537,,,,,,,,,,,,,,,,,,,,,1,,,left,1.932919790968299,,,,,,,,,,,,,,1023,2019_May_29_1659,mf_amp_cond1,3.0.7,59.98228200674714,
thripht,,&&&&&&&,images/symbols/symbol_79.png,condition_files/AMP_rep1.csv,None,nonword,,,,,,,,,,,,,,,,,,,,,0,0,0,0,0,48,48,48,,,,,,,,,,,,,1100.3055646696594,,,,,AMP_prac,left,1.2672355039976537,,,,,,,,,,,,,,,,,,,,,1,,,left,0.899252358591184,,,,,,,,,,,,,,1023,2019_May_29_1659,mf_amp_cond1,3.0.7,59.98228200674714,
corruption,,&&&&&&&&&&,images/symbols/symbol_26.png,condition_files/AMP_rep1.csv,right,sanctity.vice,,,,,,,,,,,,,,,,,,,,,0,0,0,0,0,49,49,49,,,,,,,,,,,,,1101.5392167712562,,,,,AMP_prac,left,1.2672355039976537,,,,,,,,,,,,,,,,,,,,,1,,,left,1.01612539566122,,,,,,,,,,,,,,1023,2019_May_29_1659,mf_amp_cond1,3.0.7,59.98228200674714,
protect,,&&&&&&&,images/symbols/symbol_60.png,condition_files/AMP_rep1.csv,left,fairness.virtue,,,,,,,,,,,,,,,,,,,,,0,0,0,0,0,50,50,50,,,,,,,,,,,,,1103.6064316846896,,,,,AMP_prac,left,1.2672355039976537,,,,,,,,,,,,,,,,,,,,,1,,,left,1.8340474269352853,,,,,,,,,,,,,,1023,2019_May_29_1659,mf_amp_cond1,3.0.7,59.98228200674714,
died,,&&&&,images/symbols/symbol_8.png,condition_files/AMP_rep1.csv,right,care.vice,,,,,,,,,,,,,,,,,,,,,0,0,0,0,0,51,51,51,,,,,,,,,,,,,1104.7400539268274,,,,,AMP_prac,left,1.2672355039976537,,,,,,,,,,,,,,,,,,,,,1,,,left,0.9154778204392642,,,,,,,,,,,,,,1023,2019_May_29_1659,mf_amp_cond1,3.0.7,59.98228200674714,
phlaide,,&&&&&&&,images/symbols/symbol_68.png,condition_files/AMP_rep1.csv,None,nonword,,,,,,,,,,,,,,,,,,,,,0,0,0,0,0,52,52,52,,,,,,,,,,,,,1106.0570745612495,,,,,AMP_prac,left,1.2672355039976537,,,,,,,,,,,,,,,,,,,,,1,,,left,1.083851223345846,,,,,,,,,,,,,,1023,2019_May_29_1659,mf_amp_cond1,3.0.7,59.98228200674714,
racist,,&&&&&&,images/symbols/symbol_30.png,condition_files/AMP_rep1.csv,right,sanctity.vice,,,,,,,,,,,,,,,,,,,,,0,0,0,0,0,53,53,53,,,,,,,,,,,,,1107.3074078743812,,,,,AMP_prac,left,1.2672355039976537,,,,,,,,,,,,,,,,,,,,,1,,,right,1.032391268759966,,,,,,,,,,,,,,1023,2019_May_29_1659,mf_amp_cond1,3.0.7,59.98228200674714,
arrests,,&&&&&&&,images/symbols/symbol_66.png,condition_files/AMP_rep1.csv,right,authority.vice,,,,,,,,,,,,,,,,,,,,,0,0,0,0,0,54,54,54,,,,,,,,,,,,,1108.4410224191379,,,,,AMP_prac,left,1.2672355039976537,,,,,,,,,,,,,,,,,,,,,1,,,left,0.9162148456089199,,,,,,,,,,,,,,1023,2019_May_29_1659,mf_amp_cond1,3.0.7,59.98228200674714,
civilians,,&&&&&&&&&,images/symbols/symbol_2.png,condition_files/AMP_rep1.csv,right,care.vice,,,,,,,,,,,,,,,,,,,,,0,0,0,0,0,55,55,55,,,,,,,,,,,,,1109.60799650033,,,,,AMP_prac,left,1.2672355039976537,,,,,,,,,,,,,,,,,,,,,1,,,left,0.9495298014953732,,,,,,,,,,,,,,1023,2019_May_29_1659,mf_amp_cond1,3.0.7,59.98228200674714,
useful,,&&&&&&,images/symbols/symbol_12.png,condition_files/AMP_rep1.csv,left,authority.virtue,,,,,,,,,,,,,,,,,,,,,0,0,0,0,0,56,56,56,,,,,,,,,,,,,1110.7916415298823,,,,,AMP_prac,left,1.2672355039976537,,,,,,,,,,,,,,,,,,,,,1,,,right,0.9504890891257674,,,,,,,,,,,,,,1023,2019_May_29_1659,mf_amp_cond1,3.0.7,59.98228200674714,
great,,&&&&&,images/symbols/symbol_53.png,condition_files/AMP_rep1.csv,left,loyalty.virtue,,,,,,,,,,,,,,,,,,,,,0,0,0,0,0,57,57,57,,,,,,,,,,,,,1112.258692360716,,,,,AMP_prac,left,1.2672355039976537,,,,,,,,,,,,,,,,,,,,,1,,,right,1.249009361723438,,,,,,,,,,,,,,1023,2019_May_29_1659,mf_amp_cond1,3.0.7,59.98228200674714,
critics,,&&&&&&&,images/symbols/symbol_70.png,condition_files/AMP_rep1.csv,right,loyalty.vice,,,,,,,,,,,,,,,,,,,,,0,0,0,0,0,58,58,58,,,,,,,,,,,,,1113.759080597898,,,,,AMP_prac,left,1.2672355039976537,,,,,,,,,,,,,,,,,,,,,1,,,left,1.2829644840676337,,,,,,,,,,,,,,1023,2019_May_29_1659,mf_amp_cond1,3.0.7,59.98228200674714,
knapps,,&&&&&&,images/symbols/symbol_42.png,condition_files/AMP_rep1.csv,None,nonword,,,,,,,,,,,,,,,,,,,,,0,0,0,0,0,59,59,59,,,,,,,,,,,,,1114.9594010659494,,,,,AMP_prac,left,1.2672355039976537,,,,,,,,,,,,,,,,,,,,,1,,,left,0.9671257198788226,,,,,,,,,,,,,,1023,2019_May_29_1659,mf_amp_cond1,3.0.7,59.98228200674714,
police,,&&&&&&,images/symbols/symbol_55.png,condition_files/AMP_rep1.csv,right,authority.vice,,,,,,,,,,,,,,,,,,,,,0,0,0,0,0,60,60,60,,,,,,,,,,,,,1116.1097048404627,,,,,AMP_prac,left,1.2672355039976537,,,,,,,,,,,,,,,,,,,,,1,,,right,0.9320903967600316,,,,,,,,,,,,,,1023,2019_May_29_1659,mf_amp_cond1,3.0.7,59.98228200674714,
promises,,&&&&&&&&,images/symbols/symbol_23.png,condition_files/AMP_rep1.csv,left,fairness.virtue,,,,,,,,,,,,,,,,,,,,,0,0,0,0,0,61,61,61,,,,,,,,,,,,,1117.2434133575298,,,,,AMP_prac,left,1.2672355039976537,,,,,,,,,,,,,,,,,,,,,1,,,right,0.9158197131473571,,,,,,,,,,,,,,1023,2019_May_29_1659,mf_amp_cond1,3.0.7,59.98228200674714,
respect,,&&&&&&&,images/symbols/symbol_52.png,condition_files/AMP_rep1.csv,left,sanctity.virtue,,,,,,,,,,,,,,,,,,,,,0,0,0,0,0,62,62,62,,,,,,,,,,,,,1118.4269753193948,,,,,AMP_prac,left,1.2672355039976537,,,,,,,,,,,,,,,,,,,,,1,,,right,0.9665554715320468,,,,,,,,,,,,,,1023,2019_May_29_1659,mf_amp_cond1,3.0.7,59.98228200674714,
suicide,,&&&&&&&,images/symbols/symbol_19.png,condition_files/AMP_rep1.csv,right,care.vice,,,,,,,,,,,,,,,,,,,,,0,0,0,0,0,63,63,63,,,,,,,,,,,,,1119.8273763535544,,,,,AMP_prac,left,1.2672355039976537,,,,,,,,,,,,,,,,,,,,,1,,,right,1.1828069761395454,,,,,,,,,,,,,,1023,2019_May_29_1659,mf_amp_cond1,3.0.7,59.98228200674714,
stourz,,&&&&&&,images/symbols/symbol_76.png,condition_files/AMP_rep1.csv,None,nonword,,,,,,,,,,,,,,,,,,,,,0,0,0,0,0,64,64,64,,,,,,,,,,,,,1121.5444602989592,,,,,AMP_prac,left,1.2672355039976537,,,,,,,,,,,,,,,,,,,,,1,,,left,1.4998093291651458,,,,,,,,,,,,,,1023,2019_May_29_1659,mf_amp_cond1,3.0.7,59.98228200674714,
violence,,&&&&&&&&,images/symbols/symbol_14.png,condition_files/AMP_rep1.csv,right,care.vice,,,,,,,,,,,,,,,,,,,,,0,0,0,0,0,65,65,65,,,,,,,,,,,,,1122.878133279737,,,,,AMP_prac,left,1.2672355039976537,,,,,,,,,,,,,,,,,,,,,1,,,right,1.1156995054334402,,,,,,,,,,,,,,1023,2019_May_29_1659,mf_amp_cond1,3.0.7,59.98228200674714,
integrity,,&&&&&&&&&,images/symbols/symbol_16.png,condition_files/AMP_rep1.csv,left,fairness.virtue,,,,,,,,,,,,,,,,,,,,,0,0,0,0,0,66,66,66,,,,,,,,,,,,,1124.011770916637,,,,,AMP_prac,left,1.2672355039976537,,,,,,,,,,,,,,,,,,,,,1,,,right,0.9161574358586222,,,,,,,,,,,,,,1023,2019_May_29_1659,mf_amp_cond1,3.0.7,59.98228200674714,
fraud,,&&&&&,images/symbols/symbol_41.png,condition_files/AMP_rep1.csv,right,fairness.vice,,,,,,,,,,,,,,,,,,,,,0,0,0,0,0,67,67,67,,,,,,,,,,,,,1125.4788239924237,,,,,AMP_prac,left,1.2672355039976537,,,,,,,,,,,,,,,,,,,,,1,,,left,1.250020927283913,,,,,,,,,,,,,,1023,2019_May_29_1659,mf_amp_cond1,3.0.7,59.98228200674714,
agreement,,&&&&&&&&&,images/symbols/symbol_29.png,condition_files/AMP_rep1.csv,left,fairness.virtue,,,,,,,,,,,,,,,,,,,,,0,0,0,0,0,68,68,68,,,,,,,,,,,,,1127.1459245996084,,,,,AMP_prac,left,1.2672355039976537,,,,,,,,,,,,,,,,,,,,,1,,,left,1.4493651094380766,,,,,,,,,,,,,,1023,2019_May_29_1659,mf_amp_cond1,3.0.7,59.98228200674714,
officers,,&&&&&&&&,images/symbols/symbol_75.png,condition_files/AMP_rep1.csv,right,authority.vice,,,,,,,,,,,,,,,,,,,,,0,0,0,0,0,69,69,69,,,,,,,,,,,,,1128.379582474241,,,,,AMP_prac,left,1.2672355039976537,,,,,,,,,,,,,,,,,,,,,1,,,right,1.0004849357064813,,,,,,,,,,,,,,1023,2019_May_29_1659,mf_amp_cond1,3.0.7,59.98228200674714,
interests,,&&&&&&&&&,images/symbols/symbol_9.png,condition_files/AMP_rep1.csv,left,fairness.virtue,,,,,,,,,,,,,,,,,,,,,0,0,0,0,0,70,70,70,,,,,,,,,,,,,1129.6132525363937,,,,,AMP_prac,left,1.2672355039976537,,,,,,,,,,,,,,,,,,,,,1,,,right,1.0155458461958915,,,,,,,,,,,,,,1023,2019_May_29_1659,mf_amp_cond1,3.0.7,59.98228200674714,
violations,,&&&&&&&&&&,images/symbols/symbol_27.png,condition_files/AMP_rep1.csv,right,sanctity.vice,,,,,,,,,,,,,,,,,,,,,0,0,0,0,0,71,71,71,,,,,,,,,,,,,1131.0469544145744,,,,,AMP_prac,left,1.2672355039976537,,,,,,,,,,,,,,,,,,,,,1,,,right,1.2161110271699727,,,,,,,,,,,,,,1023,2019_May_29_1659,mf_amp_cond1,3.0.7,59.98228200674714,
increase,,&&&&&&&&,images/symbols/symbol_57.png,condition_files/AMP_rep1.csv,left,care.virtue,,,,,,,,,,,,,,,,,,,,,0,0,0,0,0,72,72,72,,,,,,,,,,,,,1132.1805939758196,,,,,AMP_prac,left,1.2672355039976537,,,,,,,,,,,,,,,,,,,,,1,,,right,0.9159749436657876,,,,,,,,,,,,,,1023,2019_May_29_1659,mf_amp_cond1,3.0.7,59.98228200674714,
care,,&&&&,images/symbols/symbol_45.png,condition_files/AMP_rep1.csv,left,care.virtue,,,,,,,,,,,,,,,,,,,,,0,0,0,0,0,73,73,73,,,,,,,,,,,,,1133.3142120484263,,,,,AMP_prac,left,1.2672355039976537,,,,,,,,,,,,,,,,,,,,,1,,,left,0.9160663501825184,,,,,,,,,,,,,,1023,2019_May_29_1659,mf_amp_cond1,3.0.7,59.98228200674714,
charges,,&&&&&&&,images/symbols/symbol_72.png,condition_files/AMP_rep1.csv,right,fairness.vice,,,,,,,,,,,,,,,,,,,,,0,0,0,0,0,74,74,74,,,,,,,,,,,,,1134.4978750387672,,,,,AMP_prac,left,1.2672355039976537,,,,,,,,,,,,,,,,,,,,,1,,,left,0.966139170806855,,,,,,,,,,,,,,1023,2019_May_29_1659,mf_amp_cond1,3.0.7,59.98228200674714,
encourage,,&&&&&&&&&,images/symbols/symbol_69.png,condition_files/AMP_rep1.csv,left,authority.virtue,,,,,,,,,,,,,,,,,,,,,0,0,0,0,0,75,75,75,,,,,,,,,,,,,1135.8482135154773,,,,,AMP_prac,left,1.2672355039976537,,,,,,,,,,,,,,,,,,,,,1,,,left,1.1327697560191154,,,,,,,,,,,,,,1023,2019_May_29_1659,mf_amp_cond1,3.0.7,59.98228200674714,
powerful,,&&&&&&&&,images/symbols/symbol_6.png,condition_files/AMP_rep1.csv,left,authority.virtue,,,,,,,,,,,,,,,,,,,,,0,0,0,0,0,76,76,76,,,,,,,,,,,,,1136.9818360784557,,,,,AMP_prac,left,1.2672355039976537,,,,,,,,,,,,,,,,,,,,,1,,,right,0.9004566799849272,,,,,,,,,,,,,,1023,2019_May_29_1659,mf_amp_cond1,3.0.7,59.98228200674714,
fair,,&&&&,images/symbols/symbol_20.png,condition_files/AMP_rep1.csv,left,fairness.virtue,,,,,,,,,,,,,,,,,,,,,0,0,0,0,0,77,77,77,,,,,,,,,,,,,1138.0986773634795,,,,,AMP_prac,left,1.2672355039976537,,,,,,,,,,,,,,,,,,,,,1,,,right,0.8990602446720004,,,,,,,,,,,,,,1023,2019_May_29_1659,mf_amp_cond1,3.0.7,59.98228200674714,
love,,&&&&,images/symbols/symbol_31.png,condition_files/AMP_rep1.csv,left,loyalty.virtue,,,,,,,,,,,,,,,,,,,,,0,0,0,0,0,78,78,78,,,,,,,,,,,,,1139.2824651156552,,,,,AMP_prac,left,1.2672355039976537,,,,,,,,,,,,,,,,,,,,,1,,,left,0.9670378414448351,,,,,,,,,,,,,,1023,2019_May_29_1659,mf_amp_cond1,3.0.7,59.98228200674714,
twild,,&&&&&,images/symbols/symbol_43.png,condition_files/AMP_rep1.csv,None,nonword,,,,,,,,,,,,,,,,,,,,,0,0,0,0,0,79,79,79,,,,,,,,,,,,,1140.4827580014244,,,,,AMP_prac,left,1.2672355039976537,,,,,,,,,,,,,,,,,,,,,1,,,right,0.9828399466350675,,,,,,,,,,,,,,1023,2019_May_29_1659,mf_amp_cond1,3.0.7,59.98228200674714,
party,,&&&&&,images/symbols/symbol_48.png,condition_files/AMP_rep1.csv,left,loyalty.virtue,,,,,,,,,,,,,,,,,,,,,0,0,0,0,0,80,80,80,,,,,,,,,,,,,1141.5997365568765,,,,,AMP_prac,left,1.2672355039976537,,,,,,,,,,,,,,,,,,,,,1,,,left,0.8992250971496105,,,,,,,,,,,,,,1023,2019_May_29_1659,mf_amp_cond1,3.0.7,59.98228200674714,
abuse,,&&&&&,images/symbols/symbol_25.png,condition_files/AMP_rep1.csv,right,sanctity.vice,,,,,,,,,,,,,,,,,,,,,0,0,0,0,0,81,81,81,,,,,,,,,,,,,1143.0167434322648,,,,,AMP_prac,left,1.2672355039976537,,,,,,,,,,,,,,,,,,,,,1,,,left,1.1994375130161643,,,,,,,,,,,,,,1023,2019_May_29_1659,mf_amp_cond1,3.0.7,59.98228200674714,
,,,,condition_files/AMP_rep1.csv,,,,,,,,,,,,,,,,,,,,,,,0,0,0,0,,,,,,,,,,,,,,,,,,,,,,,,,,,,,,,,,,,,,,,,,,,,,,,,,,right,10.286299699917436,,,,,,,,,,,,1023,2019_May_29_1659,mf_amp_cond1,3.0.7,59.98228200674714,
victims,,&&&&&&&,images/symbols/symbol_59.png,condition_files/AMP_rep3.csv,right,care.vice,,,,,,,,,,,,,,,,,,,,,0,1,1,2,0,0,0,0,,,,,,,,,,,,,1155.8702639790718,,,,,AMP_prac,left,1.2672355039976537,,,,,,,,,,,,,,,,,,,,,1,,,left,2.3008169820532203,,,,,,,,,,,,,,1023,2019_May_29_1659,mf_amp_cond1,3.0.7,59.98228200674714,
illegal,,&&&&&&&,images/symbols/symbol_3.png,condition_files/AMP_rep3.csv,right,fairness.vice,,,,,,,,,,,,,,,,,,,,,0,1,1,2,0,1,1,1,,,,,,,,,,,,,1157.6541754025966,,,,,AMP_prac,left,1.2672355039976537,,,,,,,,,,,,,,,,,,,,,1,,,left,1.5659196667838842,,,,,,,,,,,,,,1023,2019_May_29_1659,mf_amp_cond1,3.0.7,59.98228200674714,
sharing,,&&&&&&&,images/symbols/symbol_49.png,condition_files/AMP_rep3.csv,left,loyalty.virtue,,,,,,,,,,,,,,,,,,,,,0,1,1,2,0,2,2,2,,,,,,,,,,,,,1158.737576970132,,,,,AMP_prac,left,1.2672355039976537,,,,,,,,,,,,,,,,,,,,,1,,,right,0.8504592296667397,,,,,,,,,,,,,,1023,2019_May_29_1659,mf_amp_cond1,3.0.7,59.98228200674714,
rejected,,&&&&&&&&,images/symbols/symbol_81.png,condition_files/AMP_rep3.csv,right,authority.vice,,,,,,,,,,,,,,,,,,,,,0,1,1,2,0,3,3,3,,,,,,,,,,,,,1159.7711542786565,,,,,AMP_prac,left,1.2672355039976537,,,,,,,,,,,,,,,,,,,,,1,,,right,0.8155560451559722,,,,,,,,,,,,,,1023,2019_May_29_1659,mf_amp_cond1,3.0.7,59.98228200674714,
plonx,,&&&&&,images/symbols/symbol_65.png,condition_files/AMP_rep3.csv,None,nonword,,,,,,,,,,,,,,,,,,,,,0,1,1,2,0,4,4,4,,,,,,,,,,,,,1160.6213851522189,,,,,AMP_prac,left,1.2672355039976537,,,,,,,,,,,,,,,,,,,,,1,,,left,0.632539315149188,,,,,,,,,,,,,,1023,2019_May_29_1659,mf_amp_cond1,3.0.7,59.98228200674714,
dignity,,&&&&&&&,images/symbols/symbol_82.png,condition_files/AMP_rep3.csv,left,sanctity.virtue,,,,,,,,,,,,,,,,,,,,,0,1,1,2,0,5,5,5,,,,,,,,,,,,,1161.4882731831167,,,,,AMP_prac,left,1.2672355039976537,,,,,,,,,,,,,,,,,,,,,1,,,left,0.6495046890340745,,,,,,,,,,,,,,1023,2019_May_29_1659,mf_amp_cond1,3.0.7,59.98228200674714,
injured,,&&&&&&&,images/symbols/symbol_28.png,condition_files/AMP_rep3.csv,right,care.vice,,,,,,,,,,,,,,,,,,,,,0,1,1,2,0,6,6,6,,,,,,,,,,,,,1162.7219589608721,,,,,AMP_prac,left,1.2672355039976537,,,,,,,,,,,,,,,,,,,,,1,,,right,1.016135017387569,,,,,,,,,,,,,,1023,2019_May_29_1659,mf_amp_cond1,3.0.7,59.98228200674714,
treas,,&&&&&,images/symbols/symbol_15.png,condition_files/AMP_rep3.csv,None,nonword,,,,,,,,,,,,,,,,,,,,,0,1,1,2,0,7,7,7,,,,,,,,,,,,,1163.6721783205867,,,,,AMP_prac,left,1.2672355039976537,,,,,,,,,,,,,,,,,,,,,1,,,left,0.7326099069323391,,,,,,,,,,,,,,1023,2019_May_29_1659,mf_amp_cond1,3.0.7,59.98228200674714,
men,,&&&,images/symbols/symbol_40.png,condition_files/AMP_rep3.csv,right,loyalty.vice,,,,,,,,,,,,,,,,,,,,,0,1,1,2,0,8,8,8,,,,,,,,,,,,,1164.7724682877306,,,,,AMP_prac,left,1.2672355039976537,,,,,,,,,,,,,,,,,,,,,1,,,left,0.8825791652780026,,,,,,,,,,,,,,1023,2019_May_29_1659,mf_amp_cond1,3.0.7,59.98228200674714,
troops,,&&&&&&,images/symbols/symbol_24.png,condition_files/AMP_rep3.csv,right,loyalty.vice,,,,,,,,,,,,,,,,,,,,,0,1,1,2,0,9,9,9,,,,,,,,,,,,,1166.456243691966,,,,,AMP_prac,left,1.2672355039976537,,,,,,,,,,,,,,,,,,,,,1,,,left,1.4506181806791574,,,,,,,,,,,,,,1023,2019_May_29_1659,mf_amp_cond1,3.0.7,59.98228200674714,
praised,,&&&&&&&,images/symbols/symbol_21.png,condition_files/AMP_rep3.csv,left,loyalty.virtue,,,,,,,,,,,,,,,,,,,,,0,1,1,2,0,10,10,10,,,,,,,,,,,,,1167.2897978441324,,,,,AMP_prac,left,1.2672355039976537,,,,,,,,,,,,,,,,,,,,,1,,,right,0.6156842708587646,,,,,,,,,,,,,,1023,2019_May_29_1659,mf_amp_cond1,3.0.7,59.98228200674714,
penalty,,&&&&&&&,images/symbols/symbol_22.png,condition_files/AMP_rep3.csv,right,authority.vice,,,,,,,,,,,,,,,,,,,,,0,1,1,2,0,11,11,11,,,,,,,,,,,,,1168.3734088449273,,,,,AMP_prac,left,1.2672355039976537,,,,,,,,,,,,,,,,,,,,,1,,,right,0.8661311205942184,,,,,,,,,,,,,,1023,2019_May_29_1659,mf_amp_cond1,3.0.7,59.98228200674714,
war,,&&&,images/symbols/symbol_78.png,condition_files/AMP_rep3.csv,right,sanctity.vice,,,,,,,,,,,,,,,,,,,,,0,1,1,2,0,12,12,12,,,,,,,,,,,,,1169.2403042523656,,,,,AMP_prac,left,1.2672355039976537,,,,,,,,,,,,,,,,,,,,,1,,,left,0.6491753046866506,,,,,,,,,,,,,,1023,2019_May_29_1659,mf_amp_cond1,3.0.7,59.98228200674714,
ban,,&&&,images/symbols/symbol_34.png,condition_files/AMP_rep3.csv,right,loyalty.vice,,,,,,,,,,,,,,,,,,,,,0,1,1,2,0,13,13,13,,,,,,,,,,,,,1170.5406497691292,,,,,AMP_prac,left,1.2672355039976537,,,,,,,,,,,,,,,,,,,,,1,,,left,1.082498085917905,,,,,,,,,,,,,,1023,2019_May_29_1659,mf_amp_cond1,3.0.7,59.98228200674714,
promote,,&&&&&&&,images/symbols/symbol_71.png,condition_files/AMP_rep3.csv,left,sanctity.virtue,,,,,,,,,,,,,,,,,,,,,0,1,1,2,0,14,14,14,,,,,,,,,,,,,1171.8576867606025,,,,,AMP_prac,left,1.2672355039976537,,,,,,,,,,,,,,,,,,,,,1,,,left,1.0838589209597558,,,,,,,,,,,,,,1023,2019_May_29_1659,mf_amp_cond1,3.0.7,59.98228200674714,
hate,,&&&&,images/symbols/symbol_47.png,condition_files/AMP_rep3.csv,right,fairness.vice,,,,,,,,,,,,,,,,,,,,,0,1,1,2,0,15,15,15,,,,,,,,,,,,,1174.324983266415,,,,,AMP_prac,left,1.2672355039976537,,,,,,,,,,,,,,,,,,,,,1,,,right,2.249210135312751,,,,,,,,,,,,,,1023,2019_May_29_1659,mf_amp_cond1,3.0.7,59.98228200674714,
phlux,,&&&&&,images/symbols/symbol_35.png,condition_files/AMP_rep3.csv,None,nonword,,,,,,,,,,,,,,,,,,,,,0,1,1,2,0,16,16,16,,,,,,,,,,,,,1175.775360582862,,,,,AMP_prac,left,1.2672355039976537,,,,,,,,,,,,,,,,,,,,,1,,,right,1.2327547140885144,,,,,,,,,,,,,,1023,2019_May_29_1659,mf_amp_cond1,3.0.7,59.98228200674714,
good,,&&&&,images/symbols/symbol_73.png,condition_files/AMP_rep3.csv,left,care.virtue,,,,,,,,,,,,,,,,,,,,,0,1,1,2,0,17,17,17,,,,,,,,,,,,,1176.8256341770757,,,,,AMP_prac,left,1.2672355039976537,,,,,,,,,,,,,,,,,,,,,1,,,right,0.8325897331815213,,,,,,,,,,,,,,1023,2019_May_29_1659,mf_amp_cond1,3.0.7,59.98228200674714,
actively,,&&&&&&&&,images/symbols/symbol_33.png,condition_files/AMP_rep3.csv,left,authority.virtue,,,,,,,,,,,,,,,,,,,,,0,1,1,2,0,18,18,18,,,,,,,,,,,,,1178.1092981614638,,,,,AMP_prac,left,1.2672355039976537,,,,,,,,,,,,,,,,,,,,,1,,,right,1.066155559848994,,,,,,,,,,,,,,1023,2019_May_29_1659,mf_amp_cond1,3.0.7,59.98228200674714,
strong,,&&&&&&,images/symbols/symbol_46.png,condition_files/AMP_rep3.csv,left,loyalty.virtue,,,,,,,,,,,,,,,,,,,,,0,1,1,2,0,19,19,19,,,,,,,,,,,,,1180.0264761433937,,,,,AMP_prac,left,1.2672355039976537,,,,,,,,,,,,,,,,,,,,,1,,,left,1.6995836030691862,,,,,,,,,,,,,,1023,2019_May_29_1659,mf_amp_cond1,3.0.7,59.98228200674714,
victim,,&&&&&&,images/symbols/symbol_38.png,condition_files/AMP_rep3.csv,right,care.vice,,,,,,,,,,,,,,,,,,,,,0,1,1,2,0,20,20,20,,,,,,,,,,,,,1181.1100890685339,,,,,AMP_prac,left,1.2672355039976537,,,,,,,,,,,,,,,,,,,,,1,,,left,0.8661304791457951,,,,,,,,,,,,,,1023,2019_May_29_1659,mf_amp_cond1,3.0.7,59.98228200674714,
health,,&&&&&&,images/symbols/symbol_36.png,condition_files/AMP_rep3.csv,left,care.virtue,,,,,,,,,,,,,,,,,,,,,0,1,1,2,0,21,21,21,,,,,,,,,,,,,1182.3437559234444,,,,,AMP_prac,left,1.2672355039976537,,,,,,,,,,,,,,,,,,,,,1,,,right,1.0158781169448048,,,,,,,,,,,,,,1023,2019_May_29_1659,mf_amp_cond1,3.0.7,59.98228200674714,
progress,,&&&&&&&&,images/symbols/symbol_32.png,condition_files/AMP_rep3.csv,left,authority.virtue,,,,,,,,,,,,,,,,,,,,,0,1,1,2,0,22,22,22,,,,,,,,,,,,,1183.410698221065,,,,,AMP_prac,left,1.2672355039976537,,,,,,,,,,,,,,,,,,,,,1,,,left,0.8494319485034794,,,,,,,,,,,,,,1023,2019_May_29_1659,mf_amp_cond1,3.0.7,59.98228200674714,
betrayal,,&&&&&&&&,images/symbols/symbol_5.png,condition_files/AMP_rep3.csv,right,loyalty.vice,,,,,,,,,,,,,,,,,,,,,0,1,1,2,0,23,23,23,,,,,,,,,,,,,1184.4776334625203,,,,,AMP_prac,left,1.2672355039976537,,,,,,,,,,,,,,,,,,,,,1,,,left,0.8495448436588049,,,,,,,,,,,,,,1023,2019_May_29_1659,mf_amp_cond1,3.0.7,59.98228200674714,
safe,,&&&&,images/symbols/symbol_10.png,condition_files/AMP_rep3.csv,left,care.virtue,,,,,,,,,,,,,,,,,,,,,0,1,1,2,0,24,24,24,,,,,,,,,,,,,1185.6279356332961,,,,,AMP_prac,left,1.2672355039976537,,,,,,,,,,,,,,,,,,,,,1,,,left,0.9328498730901629,,,,,,,,,,,,,,1023,2019_May_29_1659,mf_amp_cond1,3.0.7,59.98228200674714,
slavery,,&&&&&&&,images/symbols/symbol_7.png,condition_files/AMP_rep3.csv,right,loyalty.vice,,,,,,,,,,,,,,,,,,,,,0,1,1,2,0,25,25,25,,,,,,,,,,,,,1186.7282307320274,,,,,AMP_prac,left,1.2672355039976537,,,,,,,,,,,,,,,,,,,,,1,,,right,0.8828556297812611,,,,,,,,,,,,,,1023,2019_May_29_1659,mf_amp_cond1,3.0.7,59.98228200674714,
unpleasant,,&&&&&&&&&,images/symbols/symbol_64.png,condition_files/AMP_rep3.csv,left,control,,,,,,,,,,,,,,,,,,,,,0,1,1,2,0,26,26,26,,,,,,,,,,,,,1187.8118346768897,,,,,AMP_prac,left,1.2672355039976537,,,,,,,,,,,,,,,,,,,,,1,,,right,0.8504374204203486,,,,,,,,,,,,,,1023,2019_May_29_1659,mf_amp_cond1,3.0.7,59.98228200674714,
praise,,&&&&&&,images/symbols/symbol_80.png,condition_files/AMP_rep3.csv,left,authority.virtue,,,,,,,,,,,,,,,,,,,,,0,1,1,2,0,27,27,27,,,,,,,,,,,,,1188.9288145150058,,,,,AMP_prac,left,1.2672355039976537,,,,,,,,,,,,,,,,,,,,,1,,,left,0.8990772429388016,,,,,,,,,,,,,,1023,2019_May_29_1659,mf_amp_cond1,3.0.7,59.98228200674714,
pleasant,,&&&&&&&,images/symbols/symbol_67.png,condition_files/AMP_rep3.csv,right,control,,,,,,,,,,,,,,,,,,,,,0,1,1,2,0,28,28,28,,,,,,,,,,,,,1190.0458703651093,,,,,AMP_prac,left,1.2672355039976537,,,,,,,,,,,,,,,,,,,,,1,,,left,0.899286997038871,,,,,,,,,,,,,,1023,2019_May_29_1659,mf_amp_cond1,3.0.7,59.98228200674714,
forced,,&&&&&&,images/symbols/symbol_37.png,condition_files/AMP_rep3.csv,right,fairness.vice,,,,,,,,,,,,,,,,,,,,,0,1,1,2,0,29,29,29,,,,,,,,,,,,,1191.712873151293,,,,,AMP_prac,left,1.2672355039976537,,,,,,,,,,,,,,,,,,,,,1,,,right,1.4339238195680082,,,,,,,,,,,,,,1023,2019_May_29_1659,mf_amp_cond1,3.0.7,59.98228200674714,
loyalty,,&&&&&&&,images/symbols/symbol_58.png,condition_files/AMP_rep3.csv,left,loyalty.virtue,,,,,,,,,,,,,,,,,,,,,0,1,1,2,0,30,30,30,,,,,,,,,,,,,1192.4797598670702,,,,,AMP_prac,left,1.2672355039976537,,,,,,,,,,,,,,,,,,,,,1,,,left,0.5487496708519757,,,,,,,,,,,,,,1023,2019_May_29_1659,mf_amp_cond1,3.0.7,59.98228200674714,
growth,,&&&&&&,images/symbols/symbol_13.png,condition_files/AMP_rep3.csv,left,care.virtue,,,,,,,,,,,,,,,,,,,,,0,1,1,2,0,31,31,31,,,,,,,,,,,,,1194.1468405893538,,,,,AMP_prac,left,1.2672355039976537,,,,,,,,,,,,,,,,,,,,,1,,,left,1.449518415844068,,,,,,,,,,,,,,1023,2019_May_29_1659,mf_amp_cond1,3.0.7,59.98228200674714,
lighnde,,&&&&&&&,images/symbols/symbol_51.png,condition_files/AMP_rep3.csv,None,nonword,,,,,,,,,,,,,,,,,,,,,0,1,1,2,0,32,32,32,,,,,,,,,,,,,1195.2637963732705,,,,,AMP_prac,left,1.2672355039976537,,,,,,,,,,,,,,,,,,,,,1,,,left,0.8998918838333338,,,,,,,,,,,,,,1023,2019_May_29_1659,mf_amp_cond1,3.0.7,59.98228200674714,
fear,,&&&&,images/symbols/symbol_18.png,condition_files/AMP_rep3.csv,right,sanctity.vice,,,,,,,,,,,,,,,,,,,,,0,1,1,2,0,33,33,33,,,,,,,,,,,,,1195.9806856389623,,,,,AMP_prac,left,1.2672355039976537,,,,,,,,,,,,,,,,,,,,,1,,,right,0.49951330036856234,,,,,,,,,,,,,,1023,2019_May_29_1659,mf_amp_cond1,3.0.7,59.98228200674714,
clean,,&&&&&,images/symbols/symbol_74.png,condition_files/AMP_rep3.csv,left,sanctity.virtue,,,,,,,,,,,,,,,,,,,,,0,1,1,2,0,34,34,34,,,,,,,,,,,,,1197.3810170758516,,,,,AMP_prac,left,1.2672355039976537,,,,,,,,,,,,,,,,,,,,,1,,,left,1.1671892874874175,,,,,,,,,,,,,,1023,2019_May_29_1659,mf_amp_cond1,3.0.7,59.98228200674714,
free,,&&&&,images/symbols/symbol_63.png,condition_files/AMP_rep3.csv,left,fairness.virtue,,,,,,,,,,,,,,,,,,,,,0,1,1,2,0,35,35,35,,,,,,,,,,,,,1198.4979943484068,,,,,AMP_prac,left,1.2672355039976537,,,,,,,,,,,,,,,,,,,,,1,,,right,0.8989486324135214,,,,,,,,,,,,,,1023,2019_May_29_1659,mf_amp_cond1,3.0.7,59.98228200674714,
spauned,,&&&&&&&,images/symbols/symbol_1.png,condition_files/AMP_rep3.csv,None,nonword,,,,,,,,,,,,,,,,,,,,,0,1,1,2,0,36,36,36,,,,,,,,,,,,,1199.2648695181124,,,,,AMP_prac,left,1.2672355039976537,,,,,,,,,,,,,,,,,,,,,1,,,left,0.5337166634853929,,,,,,,,,,,,,,1023,2019_May_29_1659,mf_amp_cond1,3.0.7,59.98228200674714,
black,,&&&&&,images/symbols/symbol_4.png,condition_files/AMP_rep3.csv,right,loyalty.vice,,,,,,,,,,,,,,,,,,,,,0,1,1,2,0,37,37,37,,,,,,,,,,,,,1200.3484590302687,,,,,AMP_prac,left,1.2672355039976537,,,,,,,,,,,,,,,,,,,,,1,,,left,0.8653524012770504,,,,,,,,,,,,,,1023,2019_May_29_1659,mf_amp_cond1,3.0.7,59.98228200674714,
prosecution,,&&&&&&&&&&&,images/symbols/symbol_11.png,condition_files/AMP_rep3.csv,right,authority.vice,,,,,,,,,,,,,,,,,,,,,0,1,1,2,0,38,38,38,,,,,,,,,,,,,1201.048662273446,,,,,AMP_prac,left,1.2672355039976537,,,,,,,,,,,,,,,,,,,,,1,,,left,0.48270444036461413,,,,,,,,,,,,,,1023,2019_May_29_1659,mf_amp_cond1,3.0.7,59.98228200674714,
embrace,,&&&&&&&,images/symbols/symbol_54.png,condition_files/AMP_rep3.csv,left,authority.virtue,,,,,,,,,,,,,,,,,,,,,0,1,1,2,0,39,39,39,,,,,,,,,,,,,1201.9155596054625,,,,,AMP_prac,left,1.2672355039976537,,,,,,,,,,,,,,,,,,,,,1,,,right,0.6491611928213388,,,,,,,,,,,,,,1023,2019_May_29_1659,mf_amp_cond1,3.0.7,59.98228200674714,
drug,,&&&&,images/symbols/symbol_62.png,condition_files/AMP_rep3.csv,right,sanctity.vice,,,,,,,,,,,,,,,,,,,,,0,1,1,2,0,40,40,40,,,,,,,,,,,,,1202.7490887411404,,,,,AMP_prac,left,1.2672355039976537,,,,,,,,,,,,,,,,,,,,,1,,,left,0.6003751195967197,,,,,,,,,,,,,,1023,2019_May_29_1659,mf_amp_cond1,3.0.7,59.98228200674714,
voter,,&&&&&,images/symbols/symbol_61.png,condition_files/AMP_rep3.csv,right,fairness.vice,,,,,,,,,,,,,,,,,,,,,0,1,1,2,0,41,41,41,,,,,,,,,,,,,1203.6660155956633,,,,,AMP_prac,left,1.2672355039976537,,,,,,,,,,,,,,,,,,,,,1,,,left,0.698765434557572,,,,,,,,,,,,,,1023,2019_May_29_1659,mf_amp_cond1,3.0.7,59.98228200674714,
safety,,&&&&&&,images/symbols/symbol_56.png,condition_files/AMP_rep3.csv,left,care.virtue,,,,,,,,,,,,,,,,,,,,,0,1,1,2,0,42,42,42,,,,,,,,,,,,,1204.4662163052708,,,,,AMP_prac,left,1.2672355039976537,,,,,,,,,,,,,,,,,,,,,1,,,right,0.5826223669573665,,,,,,,,,,,,,,1023,2019_May_29_1659,mf_amp_cond1,3.0.7,59.98228200674714,
values,,&&&&&&,images/symbols/symbol_44.png,condition_files/AMP_rep3.csv,left,sanctity.virtue,,,,,,,,,,,,,,,,,,,,,0,1,1,2,0,43,43,43,,,,,,,,,,,,,1205.683193609817,,,,,AMP_prac,left,1.2672355039976537,,,,,,,,,,,,,,,,,,,,,1,,,right,0.9991500794421881,,,,,,,,,,,,,,1023,2019_May_29_1659,mf_amp_cond1,3.0.7,59.98228200674714,
energy,,&&&&&&,images/symbols/symbol_39.png,condition_files/AMP_rep3.csv,left,sanctity.virtue,,,,,,,,,,,,,,,,,,,,,0,1,1,2,0,44,44,44,,,,,,,,,,,,,1206.7334861266427,,,,,AMP_prac,left,1.2672355039976537,,,,,,,,,,,,,,,,,,,,,1,,,left,0.8326801776420325,,,,,,,,,,,,,,1023,2019_May_29_1659,mf_amp_cond1,3.0.7,59.98228200674714,
freedom,,&&&&&&&,images/symbols/symbol_17.png,condition_files/AMP_rep3.csv,left,sanctity.virtue,,,,,,,,,,,,,,,,,,,,,0,1,1,2,0,45,45,45,,,,,,,,,,,,,1208.2338958524633,,,,,AMP_prac,left,1.2672355039976537,,,,,,,,,,,,,,,,,,,,,1,,,left,1.2828416463453323,,,,,,,,,,,,,,1023,2019_May_29_1659,mf_amp_cond1,3.0.7,59.98228200674714,
fighters,,&&&&&&&&,images/symbols/symbol_50.png,condition_files/AMP_rep3.csv,right,authority.vice,,,,,,,,,,,,,,,,,,,,,0,1,1,2,0,46,46,46,,,,,,,,,,,,,1209.784272238845,,,,,AMP_prac,left,1.2672355039976537,,,,,,,,,,,,,,,,,,,,,1,,,left,1.3326492274645716,,,,,,,,,,,,,,1023,2019_May_29_1659,mf_amp_cond1,3.0.7,59.98228200674714,
prison,,&&&&&&,images/symbols/symbol_77.png,condition_files/AMP_rep3.csv,right,fairness.vice,,,,,,,,,,,,,,,,,,,,,0,1,1,2,0,47,47,47,,,,,,,,,,,,,1210.901244059205,,,,,AMP_prac,left,1.2672355039976537,,,,,,,,,,,,,,,,,,,,,1,,,right,0.8994672442786396,,,,,,,,,,,,,,1023,2019_May_29_1659,mf_amp_cond1,3.0.7,59.98228200674714,
thripht,,&&&&&&&,images/symbols/symbol_79.png,condition_files/AMP_rep3.csv,None,nonword,,,,,,,,,,,,,,,,,,,,,0,1,1,2,0,48,48,48,,,,,,,,,,,,,1211.7181128303055,,,,,AMP_prac,left,1.2672355039976537,,,,,,,,,,,,,,,,,,,,,1,,,left,0.5992641292978078,,,,,,,,,,,,,,1023,2019_May_29_1659,mf_amp_cond1,3.0.7,59.98228200674714,
corruption,,&&&&&&&&&&,images/symbols/symbol_26.png,condition_files/AMP_rep3.csv,right,sanctity.vice,,,,,,,,,,,,,,,,,,,,,0,1,1,2,0,49,49,49,,,,,,,,,,,,,1212.668361055199,,,,,AMP_prac,left,1.2672355039976537,,,,,,,,,,,,,,,,,,,,,1,,,left,0.7327641751617193,,,,,,,,,,,,,,1023,2019_May_29_1659,mf_amp_cond1,3.0.7,59.98228200674714,
protect,,&&&&&&&,images/symbols/symbol_60.png,condition_files/AMP_rep3.csv,left,fairness.virtue,,,,,,,,,,,,,,,,,,,,,0,1,1,2,0,50,50,50,,,,,,,,,,,,,1213.4685742731672,,,,,AMP_prac,left,1.2672355039976537,,,,,,,,,,,,,,,,,,,,,1,,,left,0.5670389961451292,,,,,,,,,,,,,,1023,2019_May_29_1659,mf_amp_cond1,3.0.7,59.98228200674714,
died,,&&&&,images/symbols/symbol_8.png,condition_files/AMP_rep3.csv,right,care.vice,,,,,,,,,,,,,,,,,,,,,0,1,1,2,0,51,51,51,,,,,,,,,,,,,1214.102069347864,,,,,AMP_prac,left,1.2672355039976537,,,,,,,,,,,,,,,,,,,,,1,,,right,0.4153862535022199,,,,,,,,,,,,,,1023,2019_May_29_1659,mf_amp_cond1,3.0.7,59.98228200674714,
phlaide,,&&&&&&&,images/symbols/symbol_68.png,condition_files/AMP_rep3.csv,None,nonword,,,,,,,,,,,,,,,,,,,,,0,1,1,2,0,52,52,52,,,,,,,,,,,,,1216.0525953203905,,,,,AMP_prac,left,1.2672355039976537,,,,,,,,,,,,,,,,,,,,,1,,,right,1.7173366765491664,,,,,,,,,,,,,,1023,2019_May_29_1659,mf_amp_cond1,3.0.7,59.98228200674714,
racist,,&&&&&&,images/symbols/symbol_30.png,condition_files/AMP_rep3.csv,right,sanctity.vice,,,,,,,,,,,,,,,,,,,,,0,1,1,2,0,53,53,53,,,,,,,,,,,,,1216.8861353606917,,,,,AMP_prac,left,1.2672355039976537,,,,,,,,,,,,,,,,,,,,,1,,,right,0.6154652158729732,,,,,,,,,,,,,,1023,2019_May_29_1659,mf_amp_cond1,3.0.7,59.98228200674714,
arrests,,&&&&&&&,images/symbols/symbol_66.png,condition_files/AMP_rep3.csv,right,authority.vice,,,,,,,,,,,,,,,,,,,,,0,1,1,2,0,54,54,54,,,,,,,,,,,,,1217.836383906193,,,,,AMP_prac,left,1.2672355039976537,,,,,,,,,,,,,,,,,,,,,1,,,left,0.7327869466971606,,,,,,,,,,,,,,1023,2019_May_29_1659,mf_amp_cond1,3.0.7,59.98228200674714,
civilians,,&&&&&&&&&,images/symbols/symbol_2.png,condition_files/AMP_rep3.csv,right,care.vice,,,,,,,,,,,,,,,,,,,,,0,1,1,2,0,55,55,55,,,,,,,,,,,,,1218.8866844412405,,,,,AMP_prac,left,1.2672355039976537,,,,,,,,,,,,,,,,,,,,,1,,,right,0.8324248807039112,,,,,,,,,,,,,,1023,2019_May_29_1659,mf_amp_cond1,3.0.7,59.98228200674714,
useful,,&&&&&&,images/symbols/symbol_12.png,condition_files/AMP_rep3.csv,left,authority.virtue,,,,,,,,,,,,,,,,,,,,,0,1,1,2,0,56,56,56,,,,,,,,,,,,,1220.1036473133136,,,,,AMP_prac,left,1.2672355039976537,,,,,,,,,,,,,,,,,,,,,1,,,right,0.9838184774853289,,,,,,,,,,,,,,1023,2019_May_29_1659,mf_amp_cond1,3.0.7,59.98228200674714,
great,,&&&&&,images/symbols/symbol_53.png,condition_files/AMP_rep3.csv,left,loyalty.virtue,,,,,,,,,,,,,,,,,,,,,0,1,1,2,0,57,57,57,,,,,,,,,,,,,1221.7874156616163,,,,,AMP_prac,left,1.2672355039976537,,,,,,,,,,,,,,,,,,,,,1,,,right,1.4656139840371907,,,,,,,,,,,,,,1023,2019_May_29_1659,mf_amp_cond1,3.0.7,59.98228200674714,
critics,,&&&&&&&,images/symbols/symbol_70.png,condition_files/AMP_rep3.csv,right,loyalty.vice,,,,,,,,,,,,,,,,,,,,,0,1,1,2,0,58,58,58,,,,,,,,,,,,,1222.7043341773096,,,,,AMP_prac,left,1.2672355039976537,,,,,,,,,,,,,,,,,,,,,1,,,left,0.6992795562837273,,,,,,,,,,,,,,1023,2019_May_29_1659,mf_amp_cond1,3.0.7,59.98228200674714,
knapps,,&&&&&&,images/symbols/symbol_42.png,condition_files/AMP_rep3.csv,None,nonword,,,,,,,,,,,,,,,,,,,,,0,1,1,2,0,59,59,59,,,,,,,,,,,,,1223.8379609095864,,,,,AMP_prac,left,1.2672355039976537,,,,,,,,,,,,,,,,,,,,,1,,,left,0.9160942533053458,,,,,,,,,,,,,,1023,2019_May_29_1659,mf_amp_cond1,3.0.7,59.98228200674714,
police,,&&&&&&,images/symbols/symbol_55.png,condition_files/AMP_rep3.csv,right,authority.vice,,,,,,,,,,,,,,,,,,,,,0,1,1,2,0,60,60,60,,,,,,,,,,,,,1224.921574476175,,,,,AMP_prac,left,1.2672355039976537,,,,,,,,,,,,,,,,,,,,,1,,,right,0.8658864076714963,,,,,,,,,,,,,,1023,2019_May_29_1659,mf_amp_cond1,3.0.7,59.98228200674714,
promises,,&&&&&&&&,images/symbols/symbol_23.png,condition_files/AMP_rep3.csv,left,fairness.virtue,,,,,,,,,,,,,,,,,,,,,0,1,1,2,0,61,61,61,,,,,,,,,,,,,1225.821811459493,,,,,AMP_prac,left,1.2672355039976537,,,,,,,,,,,,,,,,,,,,,1,,,right,0.6824328505899757,,,,,,,,,,,,,,1023,2019_May_29_1659,mf_amp_cond1,3.0.7,59.98228200674714,
respect,,&&&&&&&,images/symbols/symbol_52.png,condition_files/AMP_rep3.csv,left,sanctity.virtue,,,,,,,,,,,,,,,,,,,,,0,1,1,2,0,62,62,62,,,,,,,,,,,,,1227.0888279085048,,,,,AMP_prac,left,1.2672355039976537,,,,,,,,,,,,,,,,,,,,,1,,,left,1.0499753202311695,,,,,,,,,,,,,,1023,2019_May_29_1659,mf_amp_cond1,3.0.7,59.98228200674714,
suicide,,&&&&&&&,images/symbols/symbol_19.png,condition_files/AMP_rep3.csv,right,care.vice,,,,,,,,,,,,,,,,,,,,,0,1,1,2,0,63,63,63,,,,,,,,,,,,,1228.5058508201037,,,,,AMP_prac,left,1.2672355039976537,,,,,,,,,,,,,,,,,,,,,1,,,left,1.19944649329409,,,,,,,,,,,,,,1023,2019_May_29_1659,mf_amp_cond1,3.0.7,59.98228200674714,
stourz,,&&&&&&,images/symbols/symbol_76.png,condition_files/AMP_rep3.csv,None,nonword,,,,,,,,,,,,,,,,,,,,,0,1,1,2,0,64,64,64,,,,,,,,,,,,,1229.8895501163788,,,,,AMP_prac,left,1.2672355039976537,,,,,,,,,,,,,,,,,,,,,1,,,left,1.1665606671012938,,,,,,,,,,,,,,1023,2019_May_29_1659,mf_amp_cond1,3.0.7,59.98228200674714,
violence,,&&&&&&&&,images/symbols/symbol_14.png,condition_files/AMP_rep3.csv,right,care.vice,,,,,,,,,,,,,,,,,,,,,0,1,1,2,0,65,65,65,,,,,,,,,,,,,1231.32325584325,,,,,AMP_prac,left,1.2672355039976537,,,,,,,,,,,,,,,,,,,,,1,,,left,1.2160744646098465,,,,,,,,,,,,,,1023,2019_May_29_1659,mf_amp_cond1,3.0.7,59.98228200674714,
integrity,,&&&&&&&&&,images/symbols/symbol_16.png,condition_files/AMP_rep3.csv,left,fairness.virtue,,,,,,,,,,,,,,,,,,,,,0,1,1,2,0,66,66,66,,,,,,,,,,,,,1232.456895725103,,,,,AMP_prac,left,1.2672355039976537,,,,,,,,,,,,,,,,,,,,,1,,,right,0.9159226657357067,,,,,,,,,,,,,,1023,2019_May_29_1659,mf_amp_cond1,3.0.7,59.98228200674714,
fraud,,&&&&&,images/symbols/symbol_41.png,condition_files/AMP_rep3.csv,right,fairness.vice,,,,,,,,,,,,,,,,,,,,,0,1,1,2,0,67,67,67,,,,,,,,,,,,,1233.490496767452,,,,,AMP_prac,left,1.2672355039976537,,,,,,,,,,,,,,,,,,,,,1,,,left,0.8165368211921304,,,,,,,,,,,,,,1023,2019_May_29_1659,mf_amp_cond1,3.0.7,59.98228200674714,
agreement,,&&&&&&&&&,images/symbols/symbol_29.png,condition_files/AMP_rep3.csv,left,fairness.virtue,,,,,,,,,,,,,,,,,,,,,0,1,1,2,0,68,68,68,,,,,,,,,,,,,1234.6241263861302,,,,,AMP_prac,left,1.2672355039976537,,,,,,,,,,,,,,,,,,,,,1,,,left,0.9159409468993545,,,,,,,,,,,,,,1023,2019_May_29_1659,mf_amp_cond1,3.0.7,59.98228200674714,
officers,,&&&&&&&&,images/symbols/symbol_75.png,condition_files/AMP_rep3.csv,right,authority.vice,,,,,,,,,,,,,,,,,,,,,0,1,1,2,0,69,69,69,,,,,,,,,,,,,1235.9411377196666,,,,,AMP_prac,left,1.2672355039976537,,,,,,,,,,,,,,,,,,,,,1,,,left,1.0838380737695843,,,,,,,,,,,,,,1023,2019_May_29_1659,mf_amp_cond1,3.0.7,59.98228200674714,
interests,,&&&&&&&&&,images/symbols/symbol_9.png,condition_files/AMP_rep3.csv,left,fairness.virtue,,,,,,,,,,,,,,,,,,,,,0,1,1,2,0,70,70,70,,,,,,,,,,,,,1236.9747499872465,,,,,AMP_prac,left,1.2672355039976537,,,,,,,,,,,,,,,,,,,,,1,,,left,0.8153844573535025,,,,,,,,,,,,,,1023,2019_May_29_1659,mf_amp_cond1,3.0.7,59.98228200674714,
violations,,&&&&&&&&&&,images/symbols/symbol_27.png,condition_files/AMP_rep3.csv,right,sanctity.vice,,,,,,,,,,,,,,,,,,,,,0,1,1,2,0,71,71,71,,,,,,,,,,,,,1237.8916454107966,,,,,AMP_prac,left,1.2672355039976537,,,,,,,,,,,,,,,,,,,,,1,,,left,0.6992311268113554,,,,,,,,,,,,,,1023,2019_May_29_1659,mf_amp_cond1,3.0.7,59.98228200674714,
increase,,&&&&&&&&,images/symbols/symbol_57.png,condition_files/AMP_rep3.csv,left,care.virtue,,,,,,,,,,,,,,,,,,,,,0,1,1,2,0,72,72,72,,,,,,,,,,,,,1238.7918865636457,,,,,AMP_prac,left,1.2672355039976537,,,,,,,,,,,,,,,,,,,,,1,,,right,0.6826586409006268,,,,,,,,,,,,,,1023,2019_May_29_1659,mf_amp_cond1,3.0.7,59.98228200674714,
care,,&&&&,images/symbols/symbol_45.png,condition_files/AMP_rep3.csv,left,care.virtue,,,,,,,,,,,,,,,,,,,,,0,1,1,2,0,73,73,73,,,,,,,,,,,,,1240.0088834324852,,,,,AMP_prac,left,1.2672355039976537,,,,,,,,,,,,,,,,,,,,,1,,,left,0.9992697099223733,,,,,,,,,,,,,,1023,2019_May_29_1659,mf_amp_cond1,3.0.7,59.98228200674714,
charges,,&&&&&&&,images/symbols/symbol_72.png,condition_files/AMP_rep3.csv,right,fairness.vice,,,,,,,,,,,,,,,,,,,,,0,1,1,2,0,74,74,74,,,,,,,,,,,,,1240.9091117563657,,,,,AMP_prac,left,1.2672355039976537,,,,,,,,,,,,,,,,,,,,,1,,,left,0.6825579332653433,,,,,,,,,,,,,,1023,2019_May_29_1659,mf_amp_cond1,3.0.7,59.98228200674714,
encourage,,&&&&&&&&&,images/symbols/symbol_69.png,condition_files/AMP_rep3.csv,left,authority.virtue,,,,,,,,,,,,,,,,,,,,,0,1,1,2,0,75,75,75,,,,,,,,,,,,,1242.0093940261286,,,,,AMP_prac,left,1.2672355039976537,,,,,,,,,,,,,,,,,,,,,1,,,left,0.8826779485680163,,,,,,,,,,,,,,1023,2019_May_29_1659,mf_amp_cond1,3.0.7,59.98228200674714,
powerful,,&&&&&&&&,images/symbols/symbol_6.png,condition_files/AMP_rep3.csv,left,authority.virtue,,,,,,,,,,,,,,,,,,,,,0,1,1,2,0,76,76,76,,,,,,,,,,,,,1243.2264046859927,,,,,AMP_prac,left,1.2672355039976537,,,,,,,,,,,,,,,,,,,,,1,,,right,0.9837908952031285,,,,,,,,,,,,,,1023,2019_May_29_1659,mf_amp_cond1,3.0.7,59.98228200674714,
fair,,&&&&,images/symbols/symbol_20.png,condition_files/AMP_rep3.csv,left,fairness.virtue,,,,,,,,,,,,,,,,,,,,,0,1,1,2,0,77,77,77,,,,,,,,,,,,,1245.643681611633,,,,,AMP_prac,left,1.2672355039976537,,,,,,,,,,,,,,,,,,,,,1,,,right,2.199537899810821,,,,,,,,,,,,,,1023,2019_May_29_1659,mf_amp_cond1,3.0.7,59.98228200674714,
love,,&&&&,images/symbols/symbol_31.png,condition_files/AMP_rep3.csv,left,loyalty.virtue,,,,,,,,,,,,,,,,,,,,,0,1,1,2,0,78,78,78,,,,,,,,,,,,,1246.4772505171131,,,,,AMP_prac,left,1.2672355039976537,,,,,,,,,,,,,,,,,,,,,1,,,left,0.616924833972007,,,,,,,,,,,,,,1023,2019_May_29_1659,mf_amp_cond1,3.0.7,59.98228200674714,
twild,,&&&&&,images/symbols/symbol_43.png,condition_files/AMP_rep3.csv,None,nonword,,,,,,,,,,,,,,,,,,,,,0,1,1,2,0,79,79,79,,,,,,,,,,,,,1247.3774644085206,,,,,AMP_prac,left,1.2672355039976537,,,,,,,,,,,,,,,,,,,,,1,,,left,0.6826172673609108,,,,,,,,,,,,,,1023,2019_May_29_1659,mf_amp_cond1,3.0.7,59.98228200674714,
party,,&&&&&,images/symbols/symbol_48.png,condition_files/AMP_rep3.csv,left,loyalty.virtue,,,,,,,,,,,,,,,,,,,,,0,1,1,2,0,80,80,80,,,,,,,,,,,,,1248.4110699407756,,,,,AMP_prac,left,1.2672355039976537,,,,,,,,,,,,,,,,,,,,,1,,,left,0.8159742702264339,,,,,,,,,,,,,,1023,2019_May_29_1659,mf_amp_cond1,3.0.7,59.98228200674714,
abuse,,&&&&&,images/symbols/symbol_25.png,condition_files/AMP_rep3.csv,right,sanctity.vice,,,,,,,,,,,,,,,,,,,,,0,1,1,2,0,81,81,81,,,,,,,,,,,,,1249.5113727371208,,,,,AMP_prac,left,1.2672355039976537,,,,,,,,,,,,,,,,,,,,,1,,,left,0.8827796182595193,,,,,,,,,,,,,,1023,2019_May_29_1659,mf_amp_cond1,3.0.7,59.98228200674714,
,,,,condition_files/AMP_rep3.csv,,,,,,,,,,,,,,,,,,,,,,,0,1,1,2,,,,,,,,,,,,,,,,,,,,,,,,,,,,,,,,,,,,,,,,,,,,,,,,,,right,32.09202489210293,,,,,,,,,,,,1023,2019_May_29_1659,mf_amp_cond1,3.0.7,59.98228200674714,
victims,,&&&&&&&,images/symbols/symbol_59.png,condition_files/AMP_rep2.csv,right,care.vice,,,,,,,,,,,,,,,,,,,,,0,2,2,1,0,0,0,0,,,,,,,,,,,,,1283.903863738291,,,,,AMP_prac,left,1.2672355039976537,,,,,,,,,,,,,,,,,,,,,1,,,left,2.034078922122717,,,,,,,,,,,,,,1023,2019_May_29_1659,mf_amp_cond1,3.0.7,59.98228200674714,
illegal,,&&&&&&&,images/symbols/symbol_3.png,condition_files/AMP_rep2.csv,right,fairness.vice,,,,,,,,,,,,,,,,,,,,,0,2,2,1,0,1,1,1,,,,,,,,,,,,,1284.9539949307218,,,,,AMP_prac,left,1.2672355039976537,,,,,,,,,,,,,,,,,,,,,1,,,left,0.8320352002047002,,,,,,,,,,,,,,1023,2019_May_29_1659,mf_amp_cond1,3.0.7,59.98228200674714,
sharing,,&&&&&&&,images/symbols/symbol_49.png,condition_files/AMP_rep2.csv,left,loyalty.virtue,,,,,,,,,,,,,,,,,,,,,0,2,2,1,0,2,2,2,,,,,,,,,,,,,1286.00427012844,,,,,AMP_prac,left,1.2672355039976537,,,,,,,,,,,,,,,,,,,,,1,,,left,0.8170865434221923,,,,,,,,,,,,,,1023,2019_May_29_1659,mf_amp_cond1,3.0.7,59.98228200674714,
rejected,,&&&&&&&&,images/symbols/symbol_81.png,condition_files/AMP_rep2.csv,right,authority.vice,,,,,,,,,,,,,,,,,,,,,0,2,2,1,0,3,3,3,,,,,,,,,,,,,1287.1712416440714,,,,,AMP_prac,left,1.2672355039976537,,,,,,,,,,,,,,,,,,,,,1,,,left,0.9490131142083555,,,,,,,,,,,,,,1023,2019_May_29_1659,mf_amp_cond1,3.0.7,59.98228200674714,
plonx,,&&&&&,images/symbols/symbol_65.png,condition_files/AMP_rep2.csv,None,nonword,,,,,,,,,,,,,,,,,,,,,0,2,2,1,0,4,4,4,,,,,,,,,,,,,1288.2715344978496,,,,,AMP_prac,left,1.2672355039976537,,,,,,,,,,,,,,,,,,,,,1,,,left,0.8826580634340644,,,,,,,,,,,,,,1023,2019_May_29_1659,mf_amp_cond1,3.0.7,59.98228200674714,
dignity,,&&&&&&&,images/symbols/symbol_82.png,condition_files/AMP_rep2.csv,left,sanctity.virtue,,,,,,,,,,,,,,,,,,,,,0,2,2,1,0,5,5,5,,,,,,,,,,,,,1289.2885101344436,,,,,AMP_prac,left,1.2672355039976537,,,,,,,,,,,,,,,,,,,,,1,,,left,0.7997420732863247,,,,,,,,,,,,,,1023,2019_May_29_1659,mf_amp_cond1,3.0.7,59.98228200674714,
injured,,&&&&&&&,images/symbols/symbol_28.png,condition_files/AMP_rep2.csv,right,care.vice,,,,,,,,,,,,,,,,,,,,,0,2,2,1,0,6,6,6,,,,,,,,,,,,,1290.638821349712,,,,,AMP_prac,left,1.2672355039976537,,,,,,,,,,,,,,,,,,,,,1,,,left,1.1326767457649112,,,,,,,,,,,,,,1023,2019_May_29_1659,mf_amp_cond1,3.0.7,59.98228200674714,
treas,,&&&&&,images/symbols/symbol_15.png,condition_files/AMP_rep2.csv,None,nonword,,,,,,,,,,,,,,,,,,,,,0,2,2,1,0,7,7,7,,,,,,,,,,,,,1292.055870881537,,,,,AMP_prac,left,1.2672355039976537,,,,,,,,,,,,,,,,,,,,,1,,,left,1.1994958850555122,,,,,,,,,,,,,,1023,2019_May_29_1659,mf_amp_cond1,3.0.7,59.98228200674714,
men,,&&&,images/symbols/symbol_40.png,condition_files/AMP_rep2.csv,right,loyalty.vice,,,,,,,,,,,,,,,,,,,,,0,2,2,1,0,8,8,8,,,,,,,,,,,,,1293.622943553608,,,,,AMP_prac,left,1.2672355039976537,,,,,,,,,,,,,,,,,,,,,1,,,left,1.3492640492040664,,,,,,,,,,,,,,1023,2019_May_29_1659,mf_amp_cond1,3.0.7,59.98228200674714,
troops,,&&&&&&,images/symbols/symbol_24.png,condition_files/AMP_rep2.csv,right,loyalty.vice,,,,,,,,,,,,,,,,,,,,,0,2,2,1,0,9,9,9,,,,,,,,,,,,,1294.6398864763323,,,,,AMP_prac,left,1.2672355039976537,,,,,,,,,,,,,,,,,,,,,1,,,right,0.7837712669279426,,,,,,,,,,,,,,1023,2019_May_29_1659,mf_amp_cond1,3.0.7,59.98228200674714,
praised,,&&&&&&&,images/symbols/symbol_21.png,condition_files/AMP_rep2.csv,left,loyalty.virtue,,,,,,,,,,,,,,,,,,,,,0,2,2,1,0,10,10,10,,,,,,,,,,,,,1295.7235003637616,,,,,AMP_prac,left,1.2672355039976537,,,,,,,,,,,,,,,,,,,,,1,,,right,0.8660076416563243,,,,,,,,,,,,,,1023,2019_May_29_1659,mf_amp_cond1,3.0.7,59.98228200674714,
penalty,,&&&&&&&,images/symbols/symbol_22.png,condition_files/AMP_rep2.csv,right,authority.vice,,,,,,,,,,,,,,,,,,,,,0,2,2,1,0,11,11,11,,,,,,,,,,,,,1296.6403970702086,,,,,AMP_prac,left,1.2672355039976537,,,,,,,,,,,,,,,,,,,,,1,,,right,0.6994280517101288,,,,,,,,,,,,,,1023,2019_May_29_1659,mf_amp_cond1,3.0.7,59.98228200674714,
war,,&&&,images/symbols/symbol_78.png,condition_files/AMP_rep2.csv,right,sanctity.vice,,,,,,,,,,,,,,,,,,,,,0,2,2,1,0,12,12,12,,,,,,,,,,,,,1298.3075021672994,,,,,AMP_prac,left,1.2672355039976537,,,,,,,,,,,,,,,,,,,,,1,,,right,1.4495152086019516,,,,,,,,,,,,,,1023,2019_May_29_1659,mf_amp_cond1,3.0.7,59.98228200674714,
ban,,&&&,images/symbols/symbol_34.png,condition_files/AMP_rep2.csv,right,loyalty.vice,,,,,,,,,,,,,,,,,,,,,0,2,2,1,0,13,13,13,,,,,,,,,,,,,1299.6745484757703,,,,,AMP_prac,left,1.2672355039976537,,,,,,,,,,,,,,,,,,,,,1,,,left,1.149358919588849,,,,,,,,,,,,,,1023,2019_May_29_1659,mf_amp_cond1,3.0.7,59.98228200674714,
promote,,&&&&&&&,images/symbols/symbol_71.png,condition_files/AMP_rep2.csv,left,sanctity.virtue,,,,,,,,,,,,,,,,,,,,,0,2,2,1,0,14,14,14,,,,,,,,,,,,,1300.79149078927,,,,,AMP_prac,left,1.2672355039976537,,,,,,,,,,,,,,,,,,,,,1,,,left,0.8837943910621107,,,,,,,,,,,,,,1023,2019_May_29_1659,mf_amp_cond1,3.0.7,59.98228200674714,
hate,,&&&&,images/symbols/symbol_47.png,condition_files/AMP_rep2.csv,right,fairness.vice,,,,,,,,,,,,,,,,,,,,,0,2,2,1,0,15,15,15,,,,,,,,,,,,,1302.1418821858242,,,,,AMP_prac,left,1.2672355039976537,,,,,,,,,,,,,,,,,,,,,1,,,right,1.1325455694459379,,,,,,,,,,,,,,1023,2019_May_29_1659,mf_amp_cond1,3.0.7,59.98228200674714,
phlux,,&&&&&,images/symbols/symbol_35.png,condition_files/AMP_rep2.csv,None,nonword,,,,,,,,,,,,,,,,,,,,,0,2,2,1,0,16,16,16,,,,,,,,,,,,,1303.042071381351,,,,,AMP_prac,left,1.2672355039976537,,,,,,,,,,,,,,,,,,,,,1,,,right,0.6827497268095613,,,,,,,,,,,,,,1023,2019_May_29_1659,mf_amp_cond1,3.0.7,59.98228200674714,
good,,&&&&,images/symbols/symbol_73.png,condition_files/AMP_rep2.csv,left,care.virtue,,,,,,,,,,,,,,,,,,,,,0,2,2,1,0,17,17,17,,,,,,,,,,,,,1304.6258294342551,,,,,AMP_prac,left,1.2672355039976537,,,,,,,,,,,,,,,,,,,,,1,,,left,1.3660831721499562,,,,,,,,,,,,,,1023,2019_May_29_1659,mf_amp_cond1,3.0.7,59.98228200674714,
actively,,&&&&&&&&,images/symbols/symbol_33.png,condition_files/AMP_rep2.csv,left,authority.virtue,,,,,,,,,,,,,,,,,,,,,0,2,2,1,0,18,18,18,,,,,,,,,,,,,1305.726104968926,,,,,AMP_prac,left,1.2672355039976537,,,,,,,,,,,,,,,,,,,,,1,,,right,0.882846649736166,,,,,,,,,,,,,,1023,2019_May_29_1659,mf_amp_cond1,3.0.7,59.98228200674714,
strong,,&&&&&&,images/symbols/symbol_46.png,condition_files/AMP_rep2.csv,left,loyalty.virtue,,,,,,,,,,,,,,,,,,,,,0,2,2,1,0,19,19,19,,,,,,,,,,,,,1306.6430520289578,,,,,AMP_prac,left,1.2672355039976537,,,,,,,,,,,,,,,,,,,,,1,,,right,0.6994129775557667,,,,,,,,,,,,,,1023,2019_May_29_1659,mf_amp_cond1,3.0.7,59.98228200674714,
victim,,&&&&&&,images/symbols/symbol_38.png,condition_files/AMP_rep2.csv,right,care.vice,,,,,,,,,,,,,,,,,,,,,0,2,2,1,0,20,20,20,,,,,,,,,,,,,1307.6766434495803,,,,,AMP_prac,left,1.2672355039976537,,,,,,,,,,,,,,,,,,,,,1,,,right,0.816141688497737,,,,,,,,,,,,,,1023,2019_May_29_1659,mf_amp_cond1,3.0.7,59.98228200674714,
health,,&&&&&&,images/symbols/symbol_36.png,condition_files/AMP_rep2.csv,left,care.virtue,,,,,,,,,,,,,,,,,,,,,0,2,2,1,0,21,21,21,,,,,,,,,,,,,1308.5601908825338,,,,,AMP_prac,left,1.2672355039976537,,,,,,,,,,,,,,,,,,,,,1,,,right,0.6660608176607639,,,,,,,,,,,,,,1023,2019_May_29_1659,mf_amp_cond1,3.0.7,59.98228200674714,
progress,,&&&&&&&&,images/symbols/symbol_32.png,condition_files/AMP_rep2.csv,left,authority.virtue,,,,,,,,,,,,,,,,,,,,,0,2,2,1,0,22,22,22,,,,,,,,,,,,,1309.3937421482988,,,,,AMP_prac,left,1.2672355039976537,,,,,,,,,,,,,,,,,,,,,1,,,left,0.6159434164874256,,,,,,,,,,,,,,1023,2019_May_29_1659,mf_amp_cond1,3.0.7,59.98228200674714,
betrayal,,&&&&&&&&,images/symbols/symbol_5.png,condition_files/AMP_rep2.csv,right,loyalty.vice,,,,,,,,,,,,,,,,,,,,,0,2,2,1,0,23,23,23,,,,,,,,,,,,,1310.4773618087638,,,,,AMP_prac,left,1.2672355039976537,,,,,,,,,,,,,,,,,,,,,1,,,left,0.8656253379303962,,,,,,,,,,,,,,1023,2019_May_29_1659,mf_amp_cond1,3.0.7,59.98228200674714,
safe,,&&&&,images/symbols/symbol_10.png,condition_files/AMP_rep2.csv,left,care.virtue,,,,,,,,,,,,,,,,,,,,,0,2,2,1,0,24,24,24,,,,,,,,,,,,,1311.5276299505495,,,,,AMP_prac,left,1.2672355039976537,,,,,,,,,,,,,,,,,,,,,1,,,left,0.8328562553506345,,,,,,,,,,,,,,1023,2019_May_29_1659,mf_amp_cond1,3.0.7,59.98228200674714,
slavery,,&&&&&&&,images/symbols/symbol_7.png,condition_files/AMP_rep2.csv,right,loyalty.vice,,,,,,,,,,,,,,,,,,,,,0,2,2,1,0,25,25,25,,,,,,,,,,,,,1312.661262455862,,,,,AMP_prac,left,1.2672355039976537,,,,,,,,,,,,,,,,,,,,,1,,,right,0.9162456353660673,,,,,,,,,,,,,,1023,2019_May_29_1659,mf_amp_cond1,3.0.7,59.98228200674714,
unpleasant,,&&&&&&&&&,images/symbols/symbol_64.png,condition_files/AMP_rep2.csv,left,control,,,,,,,,,,,,,,,,,,,,,0,2,2,1,0,26,26,26,,,,,,,,,,,,,1313.7282069984358,,,,,AMP_prac,left,1.2672355039976537,,,,,,,,,,,,,,,,,,,,,1,,,right,0.833769999910146,,,,,,,,,,,,,,1023,2019_May_29_1659,mf_amp_cond1,3.0.7,59.98228200674714,
praise,,&&&&&&,images/symbols/symbol_80.png,condition_files/AMP_rep2.csv,left,authority.virtue,,,,,,,,,,,,,,,,,,,,,0,2,2,1,0,27,27,27,,,,,,,,,,,,,1314.7951768781058,,,,,AMP_prac,left,1.2672355039976537,,,,,,,,,,,,,,,,,,,,,1,,,left,0.8495211098343134,,,,,,,,,,,,,,1023,2019_May_29_1659,mf_amp_cond1,3.0.7,59.98228200674714,
pleasant,,&&&&&&&,images/symbols/symbol_67.png,condition_files/AMP_rep2.csv,right,control,,,,,,,,,,,,,,,,,,,,,0,2,2,1,0,28,28,28,,,,,,,,,,,,,1315.8454337946605,,,,,AMP_prac,left,1.2672355039976537,,,,,,,,,,,,,,,,,,,,,1,,,left,0.8326185983605683,,,,,,,,,,,,,,1023,2019_May_29_1659,mf_amp_cond1,3.0.7,59.98228200674714,
forced,,&&&&&&,images/symbols/symbol_37.png,condition_files/AMP_rep2.csv,right,fairness.vice,,,,,,,,,,,,,,,,,,,,,0,2,2,1,0,29,29,29,,,,,,,,,,,,,1316.8456906951033,,,,,AMP_prac,left,1.2672355039976537,,,,,,,,,,,,,,,,,,,,,1,,,left,0.7670794713776559,,,,,,,,,,,,,,1023,2019_May_29_1659,mf_amp_cond1,3.0.7,59.98228200674714,
loyalty,,&&&&&&&,images/symbols/symbol_58.png,condition_files/AMP_rep2.csv,left,loyalty.virtue,,,,,,,,,,,,,,,,,,,,,0,2,2,1,0,30,30,30,,,,,,,,,,,,,1317.9627468658146,,,,,AMP_prac,left,1.2672355039976537,,,,,,,,,,,,,,,,,,,,,1,,,left,0.8992129096295685,,,,,,,,,,,,,,1023,2019_May_29_1659,mf_amp_cond1,3.0.7,59.98228200674714,
growth,,&&&&&&,images/symbols/symbol_13.png,condition_files/AMP_rep2.csv,left,care.virtue,,,,,,,,,,,,,,,,,,,,,0,2,2,1,0,31,31,31,,,,,,,,,,,,,1319.1463319200557,,,,,AMP_prac,left,1.2672355039976537,,,,,,,,,,,,,,,,,,,,,1,,,left,0.9661016459576786,,,,,,,,,,,,,,1023,2019_May_29_1659,mf_amp_cond1,3.0.7,59.98228200674714,
lighnde,,&&&&&&&,images/symbols/symbol_51.png,condition_files/AMP_rep2.csv,None,nonword,,,,,,,,,,,,,,,,,,,,,0,2,2,1,0,32,32,32,,,,,,,,,,,,,1320.413298977306,,,,,AMP_prac,left,1.2672355039976537,,,,,,,,,,,,,,,,,,,,,1,,,left,1.0499195142183453,,,,,,,,,,,,,,1023,2019_May_29_1659,mf_amp_cond1,3.0.7,59.98228200674714,
fear,,&&&&,images/symbols/symbol_18.png,condition_files/AMP_rep2.csv,right,sanctity.vice,,,,,,,,,,,,,,,,,,,,,0,2,2,1,0,33,33,33,,,,,,,,,,,,,1321.4469070755877,,,,,AMP_prac,left,1.2672355039976537,,,,,,,,,,,,,,,,,,,,,1,,,right,0.8162013434339315,,,,,,,,,,,,,,1023,2019_May_29_1659,mf_amp_cond1,3.0.7,59.98228200674714,
clean,,&&&&&,images/symbols/symbol_74.png,condition_files/AMP_rep2.csv,left,sanctity.virtue,,,,,,,,,,,,,,,,,,,,,0,2,2,1,0,34,34,34,,,,,,,,,,,,,1322.7805922438856,,,,,AMP_prac,left,1.2672355039976537,,,,,,,,,,,,,,,,,,,,,1,,,left,1.1005125502124429,,,,,,,,,,,,,,1023,2019_May_29_1659,mf_amp_cond1,3.0.7,59.98228200674714,
free,,&&&&,images/symbols/symbol_63.png,condition_files/AMP_rep2.csv,left,fairness.virtue,,,,,,,,,,,,,,,,,,,,,0,2,2,1,0,35,35,35,,,,,,,,,,,,,1323.5641204013955,,,,,AMP_prac,left,1.2672355039976537,,,,,,,,,,,,,,,,,,,,,1,,,right,0.5656573141459376,,,,,,,,,,,,,,1023,2019_May_29_1659,mf_amp_cond1,3.0.7,59.98228200674714,
spauned,,&&&&&&&,images/symbols/symbol_1.png,condition_files/AMP_rep2.csv,None,nonword,,,,,,,,,,,,,,,,,,,,,0,2,2,1,0,36,36,36,,,,,,,,,,,,,1325.4146145901177,,,,,AMP_prac,left,1.2672355039976537,,,,,,,,,,,,,,,,,,,,,1,,,right,1.6173106657806784,,,,,,,,,,,,,,1023,2019_May_29_1659,mf_amp_cond1,3.0.7,59.98228200674714,
black,,&&&&&,images/symbols/symbol_4.png,condition_files/AMP_rep2.csv,right,loyalty.vice,,,,,,,,,,,,,,,,,,,,,0,2,2,1,0,37,37,37,,,,,,,,,,,,,1326.44821306644,,,,,AMP_prac,left,1.2672355039976537,,,,,,,,,,,,,,,,,,,,,1,,,right,0.8155618181917816,,,,,,,,,,,,,,1023,2019_May_29_1659,mf_amp_cond1,3.0.7,59.98228200674714,
prosecution,,&&&&&&&&&&&,images/symbols/symbol_11.png,condition_files/AMP_rep2.csv,right,authority.vice,,,,,,,,,,,,,,,,,,,,,0,2,2,1,0,38,38,38,,,,,,,,,,,,,1327.8319085140247,,,,,AMP_prac,left,1.2672355039976537,,,,,,,,,,,,,,,,,,,,,1,,,left,1.1661199913360178,,,,,,,,,,,,,,1023,2019_May_29_1659,mf_amp_cond1,3.0.7,59.98228200674714,
embrace,,&&&&&&&,images/symbols/symbol_54.png,condition_files/AMP_rep2.csv,left,authority.virtue,,,,,,,,,,,,,,,,,,,,,0,2,2,1,0,39,39,39,,,,,,,,,,,,,1328.932203612756,,,,,AMP_prac,left,1.2672355039976537,,,,,,,,,,,,,,,,,,,,,1,,,right,0.8671183111146092,,,,,,,,,,,,,,1023,2019_May_29_1659,mf_amp_cond1,3.0.7,59.98228200674714,
drug,,&&&&,images/symbols/symbol_62.png,condition_files/AMP_rep2.csv,right,sanctity.vice,,,,,,,,,,,,,,,,,,,,,0,2,2,1,0,40,40,40,,,,,,,,,,,,,1330.0824945583008,,,,,AMP_prac,left,1.2672355039976537,,,,,,,,,,,,,,,,,,,,,1,,,left,0.917126024607569,,,,,,,,,,,,,,1023,2019_May_29_1659,mf_amp_cond1,3.0.7,59.98228200674714,
voter,,&&&&&,images/symbols/symbol_61.png,condition_files/AMP_rep2.csv,right,fairness.vice,,,,,,,,,,,,,,,,,,,,,0,2,2,1,0,41,41,41,,,,,,,,,,,,,1331.1661183878314,,,,,AMP_prac,left,1.2672355039976537,,,,,,,,,,,,,,,,,,,,,1,,,left,0.8655775496736169,,,,,,,,,,,,,,1023,2019_May_29_1659,mf_amp_cond1,3.0.7,59.98228200674714,
safety,,&&&&&&,images/symbols/symbol_56.png,condition_files/AMP_rep2.csv,left,care.virtue,,,,,,,,,,,,,,,,,,,,,0,2,2,1,0,42,42,42,,,,,,,,,,,,,1331.9329845774919,,,,,AMP_prac,left,1.2672355039976537,,,,,,,,,,,,,,,,,,,,,1,,,right,0.5492105523589998,,,,,,,,,,,,,,1023,2019_May_29_1659,mf_amp_cond1,3.0.7,59.98228200674714,
values,,&&&&&&,images/symbols/symbol_44.png,condition_files/AMP_rep2.csv,left,sanctity.virtue,,,,,,,,,,,,,,,,,,,,,0,2,2,1,0,43,43,43,,,,,,,,,,,,,1332.9332462886814,,,,,AMP_prac,left,1.2672355039976537,,,,,,,,,,,,,,,,,,,,,1,,,right,0.7670865273103118,,,,,,,,,,,,,,1023,2019_May_29_1659,mf_amp_cond1,3.0.7,59.98228200674714,
energy,,&&&&&&,images/symbols/symbol_39.png,condition_files/AMP_rep2.csv,left,sanctity.virtue,,,,,,,,,,,,,,,,,,,,,0,2,2,1,0,44,44,44,,,,,,,,,,,,,1334.083543007262,,,,,AMP_prac,left,1.2672355039976537,,,,,,,,,,,,,,,,,,,,,1,,,right,0.932249155594036,,,,,,,,,,,,,,1023,2019_May_29_1659,mf_amp_cond1,3.0.7,59.98228200674714,
freedom,,&&&&&&&,images/symbols/symbol_17.png,condition_files/AMP_rep2.csv,left,sanctity.virtue,,,,,,,,,,,,,,,,,,,,,0,2,2,1,0,45,45,45,,,,,,,,,,,,,1335.217199566774,,,,,AMP_prac,left,1.2672355039976537,,,,,,,,,,,,,,,,,,,,,1,,,right,0.9159467199351639,,,,,,,,,,,,,,1023,2019_May_29_1659,mf_amp_cond1,3.0.7,59.98228200674714,
fighters,,&&&&&&&&,images/symbols/symbol_50.png,condition_files/AMP_rep2.csv,right,authority.vice,,,,,,,,,,,,,,,,,,,,,0,2,2,1,0,46,46,46,,,,,,,,,,,,,1336.4841810569633,,,,,AMP_prac,left,1.2672355039976537,,,,,,,,,,,,,,,,,,,,,1,,,right,1.0490715182386339,,,,,,,,,,,,,,1023,2019_May_29_1659,mf_amp_cond1,3.0.7,59.98228200674714,
prison,,&&&&&&,images/symbols/symbol_77.png,condition_files/AMP_rep2.csv,right,fairness.vice,,,,,,,,,,,,,,,,,,,,,0,2,2,1,0,47,47,47,,,,,,,,,,,,,1337.6844909409992,,,,,AMP_prac,left,1.2672355039976537,,,,,,,,,,,,,,,,,,,,,1,,,right,0.9827552752103657,,,,,,,,,,,,,,1023,2019_May_29_1659,mf_amp_cond1,3.0.7,59.98228200674714,
thripht,,&&&&&&&,images/symbols/symbol_79.png,condition_files/AMP_rep2.csv,None,nonword,,,,,,,,,,,,,,,,,,,,,0,2,2,1,0,48,48,48,,,,,,,,,,,,,1338.5180483006407,,,,,AMP_prac,left,1.2672355039976537,,,,,,,,,,,,,,,,,,,,,1,,,left,0.6159376434516162,,,,,,,,,,,,,,1023,2019_May_29_1659,mf_amp_cond1,3.0.7,59.98228200674714,
corruption,,&&&&&&&&&&,images/symbols/symbol_26.png,condition_files/AMP_rep2.csv,right,sanctity.vice,,,,,,,,,,,,,,,,,,,,,0,2,2,1,0,49,49,49,,,,,,,,,,,,,1339.4016098456923,,,,,AMP_prac,left,1.2672355039976537,,,,,,,,,,,,,,,,,,,,,1,,,left,0.6659812780562788,,,,,,,,,,,,,,1023,2019_May_29_1659,mf_amp_cond1,3.0.7,59.98228200674714,
protect,,&&&&&&&,images/symbols/symbol_60.png,condition_files/AMP_rep2.csv,left,fairness.virtue,,,,,,,,,,,,,,,,,,,,,0,2,2,1,0,50,50,50,,,,,,,,,,,,,1340.4852352789603,,,,,AMP_prac,left,1.2672355039976537,,,,,,,,,,,,,,,,,,,,,1,,,left,0.8504505699966103,,,,,,,,,,,,,,1023,2019_May_29_1659,mf_amp_cond1,3.0.7,59.98228200674714,
died,,&&&&,images/symbols/symbol_8.png,condition_files/AMP_rep2.csv,right,care.vice,,,,,,,,,,,,,,,,,,,,,0,2,2,1,0,51,51,51,,,,,,,,,,,,,1341.5021560718305,,,,,AMP_prac,left,1.2672355039976537,,,,,,,,,,,,,,,,,,,,,1,,,left,0.7987260173540562,,,,,,,,,,,,,,1023,2019_May_29_1659,mf_amp_cond1,3.0.7,59.98228200674714,
phlaide,,&&&&&&&,images/symbols/symbol_68.png,condition_files/AMP_rep2.csv,None,nonword,,,,,,,,,,,,,,,,,,,,,0,2,2,1,0,52,52,52,,,,,,,,,,,,,1342.5857782978565,,,,,AMP_prac,left,1.2672355039976537,,,,,,,,,,,,,,,,,,,,,1,,,left,0.8504387033171952,,,,,,,,,,,,,,1023,2019_May_29_1659,mf_amp_cond1,3.0.7,59.98228200674714,
racist,,&&&&&&,images/symbols/symbol_30.png,condition_files/AMP_rep2.csv,right,sanctity.vice,,,,,,,,,,,,,,,,,,,,,0,2,2,1,0,53,53,53,,,,,,,,,,,,,1343.4026836317498,,,,,AMP_prac,left,1.2672355039976537,,,,,,,,,,,,,,,,,,,,,1,,,right,0.5988019648939371,,,,,,,,,,,,,,1023,2019_May_29_1659,mf_amp_cond1,3.0.7,59.98228200674714,
arrests,,&&&&&&&,images/symbols/symbol_66.png,condition_files/AMP_rep2.csv,right,authority.vice,,,,,,,,,,,,,,,,,,,,,0,2,2,1,0,54,54,54,,,,,,,,,,,,,1344.2862214432098,,,,,AMP_prac,left,1.2672355039976537,,,,,,,,,,,,,,,,,,,,,1,,,left,0.666018161457032,,,,,,,,,,,,,,1023,2019_May_29_1659,mf_amp_cond1,3.0.7,59.98228200674714,
civilians,,&&&&&&&&&,images/symbols/symbol_2.png,condition_files/AMP_rep2.csv,right,care.vice,,,,,,,,,,,,,,,,,,,,,0,2,2,1,0,55,55,55,,,,,,,,,,,,,1345.519883166533,,,,,AMP_prac,left,1.2672355039976537,,,,,,,,,,,,,,,,,,,,,1,,,left,1.0161844089161605,,,,,,,,,,,,,,1023,2019_May_29_1659,mf_amp_cond1,3.0.7,59.98228200674714,
useful,,&&&&&&,images/symbols/symbol_12.png,condition_files/AMP_rep2.csv,left,authority.virtue,,,,,,,,,,,,,,,,,,,,,0,2,2,1,0,56,56,56,,,,,,,,,,,,,1346.320085479645,,,,,AMP_prac,left,1.2672355039976537,,,,,,,,,,,,,,,,,,,,,1,,,right,0.5670431654434651,,,,,,,,,,,,,,1023,2019_May_29_1659,mf_amp_cond1,3.0.7,59.98228200674714,
great,,&&&&&,images/symbols/symbol_53.png,condition_files/AMP_rep2.csv,left,loyalty.virtue,,,,,,,,,,,,,,,,,,,,,0,2,2,1,0,57,57,57,,,,,,,,,,,,,1347.3036884302273,,,,,AMP_prac,left,1.2672355039976537,,,,,,,,,,,,,,,,,,,,,1,,,left,0.7654732821974903,,,,,,,,,,,,,,1023,2019_May_29_1659,mf_amp_cond1,3.0.7,59.98228200674714,
critics,,&&&&&&&,images/symbols/symbol_70.png,condition_files/AMP_rep2.csv,right,loyalty.vice,,,,,,,,,,,,,,,,,,,,,0,2,2,1,0,58,58,58,,,,,,,,,,,,,1348.1372380922548,,,,,AMP_prac,left,1.2672355039976537,,,,,,,,,,,,,,,,,,,,,1,,,right,0.6159495101310313,,,,,,,,,,,,,,1023,2019_May_29_1659,mf_amp_cond1,3.0.7,59.98228200674714,
knapps,,&&&&&&,images/symbols/symbol_42.png,condition_files/AMP_rep2.csv,None,nonword,,,,,,,,,,,,,,,,,,,,,0,2,2,1,0,59,59,59,,,,,,,,,,,,,1348.970788075123,,,,,AMP_prac,left,1.2672355039976537,,,,,,,,,,,,,,,,,,,,,1,,,left,0.6160024297423661,,,,,,,,,,,,,,1023,2019_May_29_1659,mf_amp_cond1,3.0.7,59.98228200674714,
police,,&&&&&&,images/symbols/symbol_55.png,condition_files/AMP_rep2.csv,right,authority.vice,,,,,,,,,,,,,,,,,,,,,0,2,2,1,0,60,60,60,,,,,,,,,,,,,1350.4045011785347,,,,,AMP_prac,left,1.2672355039976537,,,,,,,,,,,,,,,,,,,,,1,,,left,1.2160023015458137,,,,,,,,,,,,,,1023,2019_May_29_1659,mf_amp_cond1,3.0.7,59.98228200674714,
promises,,&&&&&&&&,images/symbols/symbol_23.png,condition_files/AMP_rep2.csv,left,fairness.virtue,,,,,,,,,,,,,,,,,,,,,0,2,2,1,0,61,61,61,,,,,,,,,,,,,1351.3047362377401,,,,,AMP_prac,left,1.2672355039976537,,,,,,,,,,,,,,,,,,,,,1,,,left,0.6825544054154307,,,,,,,,,,,,,,1023,2019_May_29_1659,mf_amp_cond1,3.0.7,59.98228200674714,
respect,,&&&&&&&,images/symbols/symbol_52.png,condition_files/AMP_rep2.csv,left,sanctity.virtue,,,,,,,,,,,,,,,,,,,,,0,2,2,1,0,62,62,62,,,,,,,,,,,,,1352.4383745160885,,,,,AMP_prac,left,1.2672355039976537,,,,,,,,,,,,,,,,,,,,,1,,,left,0.916516647906974,,,,,,,,,,,,,,1023,2019_May_29_1659,mf_amp_cond1,3.0.7,59.98228200674714,
suicide,,&&&&&&&,images/symbols/symbol_19.png,condition_files/AMP_rep2.csv,right,care.vice,,,,,,,,,,,,,,,,,,,,,0,2,2,1,0,63,63,63,,,,,,,,,,,,,1353.5386587101966,,,,,AMP_prac,left,1.2672355039976537,,,,,,,,,,,,,,,,,,,,,1,,,right,0.8827655061613768,,,,,,,,,,,,,,1023,2019_May_29_1659,mf_amp_cond1,3.0.7,59.98228200674714,
stourz,,&&&&&&,images/symbols/symbol_76.png,condition_files/AMP_rep2.csv,None,nonword,,,,,,,,,,,,,,,,,,,,,0,2,2,1,0,64,64,64,,,,,,,,,,,,,1354.5889438504819,,,,,AMP_prac,left,1.2672355039976537,,,,,,,,,,,,,,,,,,,,,1,,,left,0.83306825440377,,,,,,,,,,,,,,1023,2019_May_29_1659,mf_amp_cond1,3.0.7,59.98228200674714,
violence,,&&&&&&&&,images/symbols/symbol_14.png,condition_files/AMP_rep2.csv,right,care.vice,,,,,,,,,,,,,,,,,,,,,0,2,2,1,0,65,65,65,,,,,,,,,,,,,1355.6058604740538,,,,,AMP_prac,left,1.2672355039976537,,,,,,,,,,,,,,,,,,,,,1,,,left,0.7992587410844862,,,,,,,,,,,,,,1023,2019_May_29_1659,mf_amp_cond1,3.0.7,59.98228200674714,
integrity,,&&&&&&&&&,images/symbols/symbol_16.png,condition_files/AMP_rep2.csv,left,fairness.virtue,,,,,,,,,,,,,,,,,,,,,0,2,2,1,0,66,66,66,,,,,,,,,,,,,1356.439415909117,,,,,AMP_prac,left,1.2672355039976537,,,,,,,,,,,,,,,,,,,,,1,,,right,0.616270876256749,,,,,,,,,,,,,,1023,2019_May_29_1659,mf_amp_cond1,3.0.7,59.98228200674714,
fraud,,&&&&&,images/symbols/symbol_41.png,condition_files/AMP_rep2.csv,right,fairness.vice,,,,,,,,,,,,,,,,,,,,,0,2,2,1,0,67,67,67,,,,,,,,,,,,,1357.2729780795053,,,,,AMP_prac,left,1.2672355039976537,,,,,,,,,,,,,,,,,,,,,1,,,right,0.6164889691863209,,,,,,,,,,,,,,1023,2019_May_29_1659,mf_amp_cond1,3.0.7,59.98228200674714,
agreement,,&&&&&&&&&,images/symbols/symbol_29.png,condition_files/AMP_rep2.csv,left,fairness.virtue,,,,,,,,,,,,,,,,,,,,,0,2,2,1,0,68,68,68,,,,,,,,,,,,,1359.04011624353,,,,,AMP_prac,left,1.2672355039976537,,,,,,,,,,,,,,,,,,,,,1,,,left,1.5491066374816,,,,,,,,,,,,,,1023,2019_May_29_1659,mf_amp_cond1,3.0.7,59.98228200674714,
officers,,&&&&&&&&,images/symbols/symbol_75.png,condition_files/AMP_rep2.csv,right,authority.vice,,,,,,,,,,,,,,,,,,,,,0,2,2,1,0,69,69,69,,,,,,,,,,,,,1360.1903998123016,,,,,AMP_prac,left,1.2672355039976537,,,,,,,,,,,,,,,,,,,,,1,,,left,0.9171330805402249,,,,,,,,,,,,,,1023,2019_May_29_1659,mf_amp_cond1,3.0.7,59.98228200674714,
interests,,&&&&&&&&&,images/symbols/symbol_9.png,condition_files/AMP_rep2.csv,left,fairness.virtue,,,,,,,,,,,,,,,,,,,,,0,2,2,1,0,70,70,70,,,,,,,,,,,,,1361.5074117872864,,,,,AMP_prac,left,1.2672355039976537,,,,,,,,,,,,,,,,,,,,,1,,,left,1.0988736469298601,,,,,,,,,,,,,,1023,2019_May_29_1659,mf_amp_cond1,3.0.7,59.98228200674714,
violations,,&&&&&&&&&&,images/symbols/symbol_27.png,condition_files/AMP_rep2.csv,right,sanctity.vice,,,,,,,,,,,,,,,,,,,,,0,2,2,1,0,71,71,71,,,,,,,,,,,,,1362.591060954146,,,,,AMP_prac,left,1.2672355039976537,,,,,,,,,,,,,,,,,,,,,1,,,right,0.866025922819972,,,,,,,,,,,,,,1023,2019_May_29_1659,mf_amp_cond1,3.0.7,59.98228200674714,
increase,,&&&&&&&&,images/symbols/symbol_57.png,condition_files/AMP_rep2.csv,left,care.virtue,,,,,,,,,,,,,,,,,,,,,0,2,2,1,0,72,72,72,,,,,,,,,,,,,1363.774671986932,,,,,AMP_prac,left,1.2672355039976537,,,,,,,,,,,,,,,,,,,,,1,,,left,0.9661324354819953,,,,,,,,,,,,,,1023,2019_May_29_1659,mf_amp_cond1,3.0.7,59.98228200674714,
care,,&&&&,images/symbols/symbol_45.png,condition_files/AMP_rep2.csv,left,care.virtue,,,,,,,,,,,,,,,,,,,,,0,2,2,1,0,73,73,73,,,,,,,,,,,,,1366.442085300805,,,,,AMP_prac,left,1.2672355039976537,,,,,,,,,,,,,,,,,,,,,1,,,right,2.449774995679036,,,,,,,,,,,,,,1023,2019_May_29_1659,mf_amp_cond1,3.0.7,59.98228200674714,
charges,,&&&&&&&,images/symbols/symbol_72.png,condition_files/AMP_rep2.csv,right,fairness.vice,,,,,,,,,,,,,,,,,,,,,0,2,2,1,0,74,74,74,,,,,,,,,,,,,1370.709827228915,,,,,AMP_prac,left,1.2672355039976537,,,,,,,,,,,,,,,,,,,,,1,,,left,4.050113552715629,,,,,,,,,,,,,,1023,2019_May_29_1659,mf_amp_cond1,3.0.7,59.98228200674714,
encourage,,&&&&&&&&&,images/symbols/symbol_69.png,condition_files/AMP_rep2.csv,left,authority.virtue,,,,,,,,,,,,,,,,,,,,,0,2,2,1,0,75,75,75,,,,,,,,,,,,,1372.7770482362248,,,,,AMP_prac,left,1.2672355039976537,,,,,,,,,,,,,,,,,,,,,1,,,right,1.8491827454417944,,,,,,,,,,,,,,1023,2019_May_29_1659,mf_amp_cond1,3.0.7,59.98228200674714,
powerful,,&&&&&&&&,images/symbols/symbol_6.png,condition_files/AMP_rep2.csv,left,authority.virtue,,,,,,,,,,,,,,,,,,,,,0,2,2,1,0,76,76,76,,,,,,,,,,,,,1374.5108175626956,,,,,AMP_prac,left,1.2672355039976537,,,,,,,,,,,,,,,,,,,,,1,,,left,1.5005800307262689,,,,,,,,,,,,,,1023,2019_May_29_1659,mf_amp_cond1,3.0.7,59.98228200674714,
fair,,&&&&,images/symbols/symbol_20.png,condition_files/AMP_rep2.csv,left,fairness.virtue,,,,,,,,,,,,,,,,,,,,,0,2,2,1,0,77,77,77,,,,,,,,,,,,,1375.8611768865958,,,,,AMP_prac,left,1.2672355039976537,,,,,,,,,,,,,,,,,,,,,1,,,right,1.1171745180618018,,,,,,,,,,,,,,1023,2019_May_29_1659,mf_amp_cond1,3.0.7,59.98228200674714,
love,,&&&&,images/symbols/symbol_31.png,condition_files/AMP_rep2.csv,left,loyalty.virtue,,,,,,,,,,,,,,,,,,,,,0,2,2,1,0,78,78,78,,,,,,,,,,,,,1377.4615924174432,,,,,AMP_prac,left,1.2672355039976537,,,,,,,,,,,,,,,,,,,,,1,,,left,1.3831595163792372,,,,,,,,,,,,,,1023,2019_May_29_1659,mf_amp_cond1,3.0.7,59.98228200674714,
twild,,&&&&&,images/symbols/symbol_43.png,condition_files/AMP_rep2.csv,None,nonword,,,,,,,,,,,,,,,,,,,,,0,2,2,1,0,79,79,79,,,,,,,,,,,,,1380.5124083571136,,,,,AMP_prac,left,1.2672355039976537,,,,,,,,,,,,,,,,,,,,,1,,,right,2.8332250888925046,,,,,,,,,,,,,,1023,2019_May_29_1659,mf_amp_cond1,3.0.7,59.98228200674714,
party,,&&&&&,images/symbols/symbol_48.png,condition_files/AMP_rep2.csv,left,loyalty.virtue,,,,,,,,,,,,,,,,,,,,,0,2,2,1,0,80,80,80,,,,,,,,,,,,,1382.5462797700893,,,,,AMP_prac,left,1.2672355039976537,,,,,,,,,,,,,,,,,,,,,1,,,right,1.800657742191106,,,,,,,,,,,,,,1023,2019_May_29_1659,mf_amp_cond1,3.0.7,59.98228200674714,
abuse,,&&&&&,images/symbols/symbol_25.png,condition_files/AMP_rep2.csv,right,sanctity.vice,,,,,,,,,,,,,,,,,,,,,0,2,2,1,0,81,81,81,,,,,,,,,,,,,1385.1636106416117,,,,,AMP_prac,left,1.2672355039976537,,,,,,,,,,,,,,,,,,,,,1,,,right,2.3991896570660174,,,,,,,,,,,,,,1023,2019_May_29_1659,mf_amp_cond1,3.0.7,59.98228200674714,
,,,,condition_files/AMP_rep2.csv,,,,,,,,,,,,,,,,,,,,,,,0,2,2,1,,,,,,,,,,,,,,,,,,,,,,,,,,,,,,,,,,,,,,,,,,,,,,,,,,right,11.38659094995819,,,,,,,,,,,,1023,2019_May_29_1659,mf_amp_cond1,3.0.7,59.98228200674714,
victims,,&&&&&&&,images/symbols/symbol_59.png,condition_files/AMP_rep4.csv,right,care.vice,,,,,,,,,,,,,,,,,,,,,0,3,3,3,0,0,0,0,,,,,,,,,,,,,1400.4844305806328,,,,,AMP_prac,left,1.2672355039976537,,,,,,,,,,,,,,,,,,,,,1,,,left,3.667840518988669,,,,,,,,,,,,,,1023,2019_May_29_1659,mf_amp_cond1,3.0.7,59.98228200674714,
illegal,,&&&&&&&,images/symbols/symbol_3.png,condition_files/AMP_rep4.csv,right,fairness.vice,,,,,,,,,,,,,,,,,,,,,0,3,3,3,0,1,1,1,,,,,,,,,,,,,1401.5679376665503,,,,,AMP_prac,left,1.2672355039976537,,,,,,,,,,,,,,,,,,,,,1,,,left,0.8654335443861783,,,,,,,,,,,,,,1023,2019_May_29_1659,mf_amp_cond1,3.0.7,59.98228200674714,
sharing,,&&&&&&&,images/symbols/symbol_49.png,condition_files/AMP_rep4.csv,left,loyalty.virtue,,,,,,,,,,,,,,,,,,,,,0,3,3,3,0,2,2,2,,,,,,,,,,,,,1402.768237608252,,,,,AMP_prac,left,1.2672355039976537,,,,,,,,,,,,,,,,,,,,,1,,,left,0.9671379073988646,,,,,,,,,,,,,,1023,2019_May_29_1659,mf_amp_cond1,3.0.7,59.98228200674714,
rejected,,&&&&&&&&,images/symbols/symbol_81.png,condition_files/AMP_rep4.csv,right,authority.vice,,,,,,,,,,,,,,,,,,,,,0,3,3,3,0,3,3,3,,,,,,,,,,,,,1403.8851898643188,,,,,AMP_prac,left,1.2672355039976537,,,,,,,,,,,,,,,,,,,,,1,,,left,0.8988617160357535,,,,,,,,,,,,,,1023,2019_May_29_1659,mf_amp_cond1,3.0.7,59.98228200674714,
plonx,,&&&&&,images/symbols/symbol_65.png,condition_files/AMP_rep4.csv,None,nonword,,,,,,,,,,,,,,,,,,,,,0,3,3,3,0,4,4,4,,,,,,,,,,,,,1405.0521966596134,,,,,AMP_prac,left,1.2672355039976537,,,,,,,,,,,,,,,,,,,,,1,,,left,0.9492587891872972,,,,,,,,,,,,,,1023,2019_May_29_1659,mf_amp_cond1,3.0.7,59.98228200674714,
dignity,,&&&&&&&,images/symbols/symbol_82.png,condition_files/AMP_rep4.csv,left,sanctity.virtue,,,,,,,,,,,,,,,,,,,,,0,3,3,3,0,5,5,5,,,,,,,,,,,,,1408.8865619245917,,,,,AMP_prac,left,1.2672355039976537,,,,,,,,,,,,,,,,,,,,,1,,,left,3.617075253976509,,,,,,,,,,,,,,1023,2019_May_29_1659,mf_amp_cond1,3.0.7,59.98228200674714,
injured,,&&&&&&&,images/symbols/symbol_28.png,condition_files/AMP_rep4.csv,right,care.vice,,,,,,,,,,,,,,,,,,,,,0,3,3,3,0,6,6,6,,,,,,,,,,,,,1410.0201386236586,,,,,AMP_prac,left,1.2672355039976537,,,,,,,,,,,,,,,,,,,,,1,,,left,0.9156503702979535,,,,,,,,,,,,,,1023,2019_May_29_1659,mf_amp_cond1,3.0.7,59.98228200674714,
treas,,&&&&&,images/symbols/symbol_15.png,condition_files/AMP_rep4.csv,None,nonword,,,,,,,,,,,,,,,,,,,,,0,3,3,3,0,7,7,7,,,,,,,,,,,,,1411.1204375713132,,,,,AMP_prac,left,1.2672355039976537,,,,,,,,,,,,,,,,,,,,,1,,,left,0.8826218217145652,,,,,,,,,,,,,,1023,2019_May_29_1659,mf_amp_cond1,3.0.7,59.98228200674714,
men,,&&&,images/symbols/symbol_40.png,condition_files/AMP_rep4.csv,right,loyalty.vice,,,,,,,,,,,,,,,,,,,,,0,3,3,3,0,8,8,8,,,,,,,,,,,,,1412.8208823201712,,,,,AMP_prac,left,1.2672355039976537,,,,,,,,,,,,,,,,,,,,,1,,,left,1.4828670478891581,,,,,,,,,,,,,,1023,2019_May_29_1659,mf_amp_cond1,3.0.7,59.98228200674714,
troops,,&&&&&&,images/symbols/symbol_24.png,condition_files/AMP_rep4.csv,right,loyalty.vice,,,,,,,,,,,,,,,,,,,,,0,3,3,3,0,9,9,9,,,,,,,,,,,,,1414.1212259125896,,,,,AMP_prac,left,1.2672355039976537,,,,,,,,,,,,,,,,,,,,,1,,,right,1.0671786714810878,,,,,,,,,,,,,,1023,2019_May_29_1659,mf_amp_cond1,3.0.7,59.98228200674714,
praised,,&&&&&&&,images/symbols/symbol_21.png,condition_files/AMP_rep4.csv,left,loyalty.virtue,,,,,,,,,,,,,,,,,,,,,0,3,3,3,0,10,10,10,,,,,,,,,,,,,1415.4215666183736,,,,,AMP_prac,left,1.2672355039976537,,,,,,,,,,,,,,,,,,,,,1,,,right,1.0823656267020851,,,,,,,,,,,,,,1023,2019_May_29_1659,mf_amp_cond1,3.0.7,59.98228200674714,
penalty,,&&&&&&&,images/symbols/symbol_22.png,condition_files/AMP_rep4.csv,right,authority.vice,,,,,,,,,,,,,,,,,,,,,0,3,3,3,0,11,11,11,,,,,,,,,,,,,1416.7219050789718,,,,,AMP_prac,left,1.2672355039976537,,,,,,,,,,,,,,,,,,,,,1,,,right,1.0828281117137522,,,,,,,,,,,,,,1023,2019_May_29_1659,mf_amp_cond1,3.0.7,59.98228200674714,
war,,&&&,images/symbols/symbol_78.png,condition_files/AMP_rep4.csv,right,sanctity.vice,,,,,,,,,,,,,,,,,,,,,0,3,3,3,0,12,12,12,,,,,,,,,,,,,1417.9055459392257,,,,,AMP_prac,left,1.2672355039976537,,,,,,,,,,,,,,,,,,,,,1,,,left,0.9659220401663333,,,,,,,,,,,,,,1023,2019_May_29_1659,mf_amp_cond1,3.0.7,59.98228200674714,
ban,,&&&,images/symbols/symbol_34.png,condition_files/AMP_rep4.csv,right,loyalty.vice,,,,,,,,,,,,,,,,,,,,,0,3,3,3,0,13,13,13,,,,,,,,,,,,,1419.1725408998318,,,,,AMP_prac,left,1.2672355039976537,,,,,,,,,,,,,,,,,,,,,1,,,left,1.0492828758433461,,,,,,,,,,,,,,1023,2019_May_29_1659,mf_amp_cond1,3.0.7,59.98228200674714,
promote,,&&&&&&&,images/symbols/symbol_71.png,condition_files/AMP_rep4.csv,left,sanctity.virtue,,,,,,,,,,,,,,,,,,,,,0,3,3,3,0,14,14,14,,,,,,,,,,,,,1420.7563130646013,,,,,AMP_prac,left,1.2672355039976537,,,,,,,,,,,,,,,,,,,,,1,,,left,1.3505844725295901,,,,,,,,,,,,,,1023,2019_May_29_1659,mf_amp_cond1,3.0.7,59.98228200674714,
hate,,&&&&,images/symbols/symbol_47.png,condition_files/AMP_rep4.csv,right,fairness.vice,,,,,,,,,,,,,,,,,,,,,0,3,3,3,0,15,15,15,,,,,,,,,,,,,1422.0899931013118,,,,,AMP_prac,left,1.2672355039976537,,,,,,,,,,,,,,,,,,,,,1,,,left,1.1155240691732615,,,,,,,,,,,,,,1023,2019_May_29_1659,mf_amp_cond1,3.0.7,59.98228200674714,
phlux,,&&&&&,images/symbols/symbol_35.png,condition_files/AMP_rep4.csv,None,nonword,,,,,,,,,,,,,,,,,,,,,0,3,3,3,0,16,16,16,,,,,,,,,,,,,1423.223607325228,,,,,AMP_prac,left,1.2672355039976537,,,,,,,,,,,,,,,,,,,,,1,,,right,0.9160698782652617,,,,,,,,,,,,,,1023,2019_May_29_1659,mf_amp_cond1,3.0.7,59.98228200674714,
good,,&&&&,images/symbols/symbol_73.png,condition_files/AMP_rep4.csv,left,care.virtue,,,,,,,,,,,,,,,,,,,,,0,3,3,3,0,17,17,17,,,,,,,,,,,,,1424.3905871796887,,,,,AMP_prac,left,1.2672355039976537,,,,,,,,,,,,,,,,,,,,,1,,,right,0.9493101050611585,,,,,,,,,,,,,,1023,2019_May_29_1659,mf_amp_cond1,3.0.7,59.98228200674714,
actively,,&&&&&&&&,images/symbols/symbol_33.png,condition_files/AMP_rep4.csv,left,authority.virtue,,,,,,,,,,,,,,,,,,,,,0,3,3,3,0,18,18,18,,,,,,,,,,,,,1425.4741949732415,,,,,AMP_prac,left,1.2672355039976537,,,,,,,,,,,,,,,,,,,,,1,,,right,0.8662590896710753,,,,,,,,,,,,,,1023,2019_May_29_1659,mf_amp_cond1,3.0.7,59.98228200674714,
strong,,&&&&&&,images/symbols/symbol_46.png,condition_files/AMP_rep4.csv,left,loyalty.virtue,,,,,,,,,,,,,,,,,,,,,0,3,3,3,0,19,19,19,,,,,,,,,,,,,1426.1910884082317,,,,,AMP_prac,left,1.2672355039976537,,,,,,,,,,,,,,,,,,,,,1,,,right,0.4993529380299151,,,,,,,,,,,,,,1023,2019_May_29_1659,mf_amp_cond1,3.0.7,59.98228200674714,
victim,,&&&&&&,images/symbols/symbol_38.png,condition_files/AMP_rep4.csv,right,care.vice,,,,,,,,,,,,,,,,,,,,,0,3,3,3,0,20,20,20,,,,,,,,,,,,,1426.991259290371,,,,,AMP_prac,left,1.2672355039976537,,,,,,,,,,,,,,,,,,,,,1,,,right,0.5826820216607302,,,,,,,,,,,,,,1023,2019_May_29_1659,mf_amp_cond1,3.0.7,59.98228200674714,
health,,&&&&&&,images/symbols/symbol_36.png,condition_files/AMP_rep4.csv,left,care.virtue,,,,,,,,,,,,,,,,,,,,,0,3,3,3,0,21,21,21,,,,,,,,,,,,,1427.7414692847524,,,,,AMP_prac,left,1.2672355039976537,,,,,,,,,,,,,,,,,,,,,1,,,right,0.5327663563657552,,,,,,,,,,,,,,1023,2019_May_29_1659,mf_amp_cond1,3.0.7,59.98228200674714,
progress,,&&&&&&&&,images/symbols/symbol_32.png,condition_files/AMP_rep4.csv,left,authority.virtue,,,,,,,,,,,,,,,,,,,,,0,3,3,3,0,22,22,22,,,,,,,,,,,,,1428.8417521959636,,,,,AMP_prac,left,1.2672355039976537,,,,,,,,,,,,,,,,,,,,,1,,,left,0.8826946259941906,,,,,,,,,,,,,,1023,2019_May_29_1659,mf_amp_cond1,3.0.7,59.98228200674714,
betrayal,,&&&&&&&&,images/symbols/symbol_5.png,condition_files/AMP_rep4.csv,right,loyalty.vice,,,,,,,,,,,,,,,,,,,,,0,3,3,3,0,23,23,23,,,,,,,,,,,,,1429.8920280353632,,,,,AMP_prac,left,1.2672355039976537,,,,,,,,,,,,,,,,,,,,,1,,,left,0.8323764512315392,,,,,,,,,,,,,,1023,2019_May_29_1659,mf_amp_cond1,3.0.7,59.98228200674714,
safe,,&&&&,images/symbols/symbol_10.png,condition_files/AMP_rep4.csv,left,care.virtue,,,,,,,,,,,,,,,,,,,,,0,3,3,3,0,24,24,24,,,,,,,,,,,,,1430.608919866616,,,,,AMP_prac,left,1.2672355039976537,,,,,,,,,,,,,,,,,,,,,1,,,left,0.4995505043771118,,,,,,,,,,,,,,1023,2019_May_29_1659,mf_amp_cond1,3.0.7,59.98228200674714,
slavery,,&&&&&&&,images/symbols/symbol_7.png,condition_files/AMP_rep4.csv,right,loyalty.vice,,,,,,,,,,,,,,,,,,,,,0,3,3,3,0,25,25,25,,,,,,,,,,,,,1431.6925132276956,,,,,AMP_prac,left,1.2672355039976537,,,,,,,,,,,,,,,,,,,,,1,,,right,0.8661603066138923,,,,,,,,,,,,,,1023,2019_May_29_1659,mf_amp_cond1,3.0.7,59.98228200674714,
unpleasant,,&&&&&&&&&,images/symbols/symbol_64.png,condition_files/AMP_rep4.csv,left,control,,,,,,,,,,,,,,,,,,,,,0,3,3,3,0,26,26,26,,,,,,,,,,,,,1432.5593855429906,,,,,AMP_prac,left,1.2672355039976537,,,,,,,,,,,,,,,,,,,,,1,,,right,0.6337186200544238,,,,,,,,,,,,,,1023,2019_May_29_1659,mf_amp_cond1,3.0.7,59.98228200674714,
praise,,&&&&&&,images/symbols/symbol_80.png,condition_files/AMP_rep4.csv,left,authority.virtue,,,,,,,,,,,,,,,,,,,,,0,3,3,3,0,27,27,27,,,,,,,,,,,,,1433.3762674639001,,,,,AMP_prac,left,1.2672355039976537,,,,,,,,,,,,,,,,,,,,,1,,,left,0.5990017764270306,,,,,,,,,,,,,,1023,2019_May_29_1659,mf_amp_cond1,3.0.7,59.98228200674714,
pleasant,,&&&&&&&,images/symbols/symbol_67.png,condition_files/AMP_rep4.csv,right,control,,,,,,,,,,,,,,,,,,,,,0,3,3,3,0,28,28,28,,,,,,,,,,,,,1434.4598823133856,,,,,AMP_prac,left,1.2672355039976537,,,,,,,,,,,,,,,,,,,,,1,,,left,0.8659123864490539,,,,,,,,,,,,,,1023,2019_May_29_1659,mf_amp_cond1,3.0.7,59.98228200674714,
forced,,&&&&&&,images/symbols/symbol_37.png,condition_files/AMP_rep4.csv,right,fairness.vice,,,,,,,,,,,,,,,,,,,,,0,3,3,3,0,29,29,29,,,,,,,,,,,,,1435.5268271765672,,,,,AMP_prac,left,1.2672355039976537,,,,,,,,,,,,,,,,,,,,,1,,,left,0.8337677549570799,,,,,,,,,,,,,,1023,2019_May_29_1659,mf_amp_cond1,3.0.7,59.98228200674714,
loyalty,,&&&&&&&,images/symbols/symbol_58.png,condition_files/AMP_rep4.csv,left,loyalty.virtue,,,,,,,,,,,,,,,,,,,,,0,3,3,3,0,30,30,30,,,,,,,,,,,,,1436.4437408815138,,,,,AMP_prac,left,1.2672355039976537,,,,,,,,,,,,,,,,,,,,,1,,,left,0.6987189294304699,,,,,,,,,,,,,,1023,2019_May_29_1659,mf_amp_cond1,3.0.7,59.98228200674714,
growth,,&&&&&&,images/symbols/symbol_13.png,condition_files/AMP_rep4.csv,left,care.virtue,,,,,,,,,,,,,,,,,,,,,0,3,3,3,0,31,31,31,,,,,,,,,,,,,1437.8274642319884,,,,,AMP_prac,left,1.2672355039976537,,,,,,,,,,,,,,,,,,,,,1,,,left,1.1660237740725279,,,,,,,,,,,,,,1023,2019_May_29_1659,mf_amp_cond1,3.0.7,59.98228200674714,
lighnde,,&&&&&&&,images/symbols/symbol_51.png,condition_files/AMP_rep4.csv,None,nonword,,,,,,,,,,,,,,,,,,,,,0,3,3,3,0,32,32,32,,,,,,,,,,,,,1439.0610935622826,,,,,AMP_prac,left,1.2672355039976537,,,,,,,,,,,,,,,,,,,,,1,,,left,1.0164804377127439,,,,,,,,,,,,,,1023,2019_May_29_1659,mf_amp_cond1,3.0.7,59.98228200674714,
fear,,&&&&,images/symbols/symbol_18.png,condition_files/AMP_rep4.csv,right,sanctity.vice,,,,,,,,,,,,,,,,,,,,,0,3,3,3,0,33,33,33,,,,,,,,,,,,,1439.7612743547652,,,,,AMP_prac,left,1.2672355039976537,,,,,,,,,,,,,,,,,,,,,1,,,right,0.48275992553681135,,,,,,,,,,,,,,1023,2019_May_29_1659,mf_amp_cond1,3.0.7,59.98228200674714,
clean,,&&&&&,images/symbols/symbol_74.png,condition_files/AMP_rep4.csv,left,sanctity.virtue,,,,,,,,,,,,,,,,,,,,,0,3,3,3,0,34,34,34,,,,,,,,,,,,,1440.8449106926564,,,,,AMP_prac,left,1.2672355039976537,,,,,,,,,,,,,,,,,,,,,1,,,left,0.8504662855993956,,,,,,,,,,,,,,1023,2019_May_29_1659,mf_amp_cond1,3.0.7,59.98228200674714,
free,,&&&&,images/symbols/symbol_63.png,condition_files/AMP_rep4.csv,left,fairness.virtue,,,,,,,,,,,,,,,,,,,,,0,3,3,3,0,35,35,35,,,,,,,,,,,,,1441.6951313032769,,,,,AMP_prac,left,1.2672355039976537,,,,,,,,,,,,,,,,,,,,,1,,,right,0.632009478053078,,,,,,,,,,,,,,1023,2019_May_29_1659,mf_amp_cond1,3.0.7,59.98228200674714,
spauned,,&&&&&&&,images/symbols/symbol_1.png,condition_files/AMP_rep4.csv,None,nonword,,,,,,,,,,,,,,,,,,,,,0,3,3,3,0,36,36,36,,,,,,,,,,,,,1443.1121554977726,,,,,AMP_prac,left,1.2672355039976537,,,,,,,,,,,,,,,,,,,,,1,,,left,1.1993121097330004,,,,,,,,,,,,,,1023,2019_May_29_1659,mf_amp_cond1,3.0.7,59.98228200674714,
black,,&&&&&,images/symbols/symbol_4.png,condition_files/AMP_rep4.csv,right,loyalty.vice,,,,,,,,,,,,,,,,,,,,,0,3,3,3,0,37,37,37,,,,,,,,,,,,,1444.6625607493334,,,,,AMP_prac,left,1.2672355039976537,,,,,,,,,,,,,,,,,,,,,1,,,right,1.3327124102506787,,,,,,,,,,,,,,1023,2019_May_29_1659,mf_amp_cond1,3.0.7,59.98228200674714,
prosecution,,&&&&&&&&&&&,images/symbols/symbol_11.png,condition_files/AMP_rep4.csv,right,authority.vice,,,,,,,,,,,,,,,,,,,,,0,3,3,3,0,38,38,38,,,,,,,,,,,,,1445.879548637895,,,,,AMP_prac,left,1.2672355039976537,,,,,,,,,,,,,,,,,,,,,1,,,right,0.9993928680196404,,,,,,,,,,,,,,1023,2019_May_29_1659,mf_amp_cond1,3.0.7,59.98228200674714,
embrace,,&&&&&&&,images/symbols/symbol_54.png,condition_files/AMP_rep4.csv,left,authority.virtue,,,,,,,,,,,,,,,,,,,,,0,3,3,3,0,39,39,39,,,,,,,,,,,,,1446.6964273515623,,,,,AMP_prac,left,1.2672355039976537,,,,,,,,,,,,,,,,,,,,,1,,,left,0.5837057749740779,,,,,,,,,,,,,,1023,2019_May_29_1659,mf_amp_cond1,3.0.7,59.98228200674714,
drug,,&&&&,images/symbols/symbol_62.png,condition_files/AMP_rep4.csv,right,sanctity.vice,,,,,,,,,,,,,,,,,,,,,0,3,3,3,0,40,40,40,,,,,,,,,,,,,1451.6977525861003,,,,,AMP_prac,left,1.2672355039976537,,,,,,,,,,,,,,,,,,,,,1,,,right,4.768144918838516,,,,,,,,,,,,,,1023,2019_May_29_1659,mf_amp_cond1,3.0.7,59.98228200674714,
voter,,&&&&&,images/symbols/symbol_61.png,condition_files/AMP_rep4.csv,right,fairness.vice,,,,,,,,,,,,,,,,,,,,,0,3,3,3,0,41,41,41,,,,,,,,,,,,,1452.948081409093,,,,,AMP_prac,left,1.2672355039976537,,,,,,,,,,,,,,,,,,,,,1,,,left,1.017168713035062,,,,,,,,,,,,,,1023,2019_May_29_1659,mf_amp_cond1,3.0.7,59.98228200674714,
safety,,&&&&&&,images/symbols/symbol_56.png,condition_files/AMP_rep4.csv,left,care.virtue,,,,,,,,,,,,,,,,,,,,,0,3,3,3,0,42,42,42,,,,,,,,,,,,,1453.8149611009285,,,,,AMP_prac,left,1.2672355039976537,,,,,,,,,,,,,,,,,,,,,1,,,right,0.6487307799980044,,,,,,,,,,,,,,1023,2019_May_29_1659,mf_amp_cond1,3.0.7,59.98228200674714,
values,,&&&&&&,images/symbols/symbol_44.png,condition_files/AMP_rep4.csv,left,sanctity.virtue,,,,,,,,,,,,,,,,,,,,,0,3,3,3,0,43,43,43,,,,,,,,,,,,,1454.6651826736052,,,,,AMP_prac,left,1.2672355039976537,,,,,,,,,,,,,,,,,,,,,1,,,right,0.617030993802473,,,,,,,,,,,,,,1023,2019_May_29_1659,mf_amp_cond1,3.0.7,59.98228200674714,
energy,,&&&&&&,images/symbols/symbol_39.png,condition_files/AMP_rep4.csv,left,sanctity.virtue,,,,,,,,,,,,,,,,,,,,,0,3,3,3,0,44,44,44,,,,,,,,,,,,,1455.6821252757218,,,,,AMP_prac,left,1.2672355039976537,,,,,,,,,,,,,,,,,,,,,1,,,left,0.7986618725117296,,,,,,,,,,,,,,1023,2019_May_29_1659,mf_amp_cond1,3.0.7,59.98228200674714,
freedom,,&&&&&&&,images/symbols/symbol_17.png,condition_files/AMP_rep4.csv,left,sanctity.virtue,,,,,,,,,,,,,,,,,,,,,0,3,3,3,0,45,45,45,,,,,,,,,,,,,1456.7490816852078,,,,,AMP_prac,left,1.2672355039976537,,,,,,,,,,,,,,,,,,,,,1,,,left,0.8494319485034794,,,,,,,,,,,,,,1023,2019_May_29_1659,mf_amp_cond1,3.0.7,59.98228200674714,
fighters,,&&&&&&&&,images/symbols/symbol_50.png,condition_files/AMP_rep4.csv,right,authority.vice,,,,,,,,,,,,,,,,,,,,,0,3,3,3,0,46,46,46,,,,,,,,,,,,,1457.9660474436823,,,,,AMP_prac,left,1.2672355039976537,,,,,,,,,,,,,,,,,,,,,1,,,left,0.9994101871270686,,,,,,,,,,,,,,1023,2019_May_29_1659,mf_amp_cond1,3.0.7,59.98228200674714,
prison,,&&&&&&,images/symbols/symbol_77.png,condition_files/AMP_rep4.csv,right,fairness.vice,,,,,,,,,,,,,,,,,,,,,0,3,3,3,0,47,47,47,,,,,,,,,,,,,1459.09968540119,,,,,AMP_prac,left,1.2672355039976537,,,,,,,,,,,,,,,,,,,,,1,,,right,0.9157552472315729,,,,,,,,,,,,,,1023,2019_May_29_1659,mf_amp_cond1,3.0.7,59.98228200674714,
