words,masks,symbols,conditionfile,corr_ans,category,mask,LDT_trials_cond2.thisRepN,LDT_trials_cond2.thisTrialN,LDT_trials_cond2.thisN,LDT_trials_cond2.thisIndex,logo_trials.thisRepN,logo_trials.thisTrialN,logo_trials.thisN,logo_trials.thisIndex,AMP_pracs.thisRepN,AMP_pracs.thisTrialN,AMP_pracs.thisN,AMP_pracs.thisIndex,trials_loop.thisRepN,trials_loop.thisTrialN,trials_loop.thisN,trials_loop.thisIndex,AMP_trials.thisRepN,AMP_trials.thisTrialN,AMP_trials.thisN,AMP_trials.thisIndex,memtask_trials.thisRepN,memtask_trials.thisTrialN,memtask_trials.thisN,memtask_trials.thisIndex,LDT_cond1.thisRepN,LDT_cond1.thisTrialN,LDT_cond1.thisN,LDT_cond1.thisIndex,LDT_pracs.thisRepN,LDT_pracs.thisTrialN,LDT_pracs.thisN,LDT_pracs.thisIndex,LDT_trials.thisRepN,LDT_trials.thisTrialN,LDT_trials.thisN,LDT_trials.thisIndex,begin_key.keys,begin_key.rt,key_resp_instr.keys,key_resp_instr.rt,exp_time,resp_sym_rate.keys,resp_sym_rate.rt,sym_resp_1.keys,sym_resp_1.rt,sym_resp_2.keys,sym_resp_2.rt,sym_resp_trial.keys,sym_resp_trial.rt,symbol_index,resp_AMP_ready1.keys,resp_AMP_ready1.rt,resp_AMP.keys,resp_AMP.rt,task,keypress,RT,prime_dur,resp_AMP_ready.keys,resp_AMP_ready.rt,resp_AMP_trials.keys,resp_AMP_trials.rt,rest_key_resp.keys,rest_key_resp.rt,AMP_nonword_rating.response,AMP_nonword_rating.rt,AMP_word_rating.response,AMP_word_rating.rt,AMP_random_rating.response,AMP_random_rating.rt,key_resp_instr_memtask.keys,key_resp_instr_memtask.rt,resp_memtask.keys,resp_memtask.corr,resp_memtask.rt,corr,key_resp_LDT_instr.keys,key_resp_LDT_instr.rt,resp_LDT_prac.keys,resp_LDT_prac.rt,resp_LDT_ready.keys,resp_LDT_ready.rt,resp_LDT_trial.keys,resp_LDT_trial.rt,LDT_rating.response,LDT_rating.rt,participant ID,date,expName,psychopyVersion,frameRate,
,,,,,,,,,,,,,,,,,,,,,,,,,,,,,,,,,,,,,,,,,,,right,307.5662279872922,,,,,,,,,,,,,,,,,,,,,,,,,,,,,,,,,,,,,,,,,,,,,,,,,1024,2019_May_30_1656,mf_amp_cond1,3.0.7,59.98732116761736,
,,,,,,,,,,,,,,,,,,,,,,,,,,,,,,,,,,,,,,,,,,,,,right,2.417559596709907,,,,,,,,,,,,,,,,,,,,,,,,,,,,,,,,,,,,,,,,,,,,,,,1024,2019_May_30_1656,mf_amp_cond1,3.0.7,59.98732116761736,
,,,,,,,,,,,,,,,,,,,,,,,,,,,,,,,,,,,,,,,,,,,,,,,348.0224258552771,right,1.1338915475644171,,,,,,,,,,,,,,,,,,,,,,,,,,,,,,,,,,,,,,,,,,,,1024,2019_May_30_1656,mf_amp_cond1,3.0.7,59.98732116761736,
,,,,,,,,,,,,,,,,,,,,,,,,,,,,,,,,,,,,,,,,,,,,,,,411.1894430228276,,,left,2.0841028904542327,,,,,,,,,,,,,,,,,,,,,,,,,,,,,,,,,,,,,,,,,,1024,2019_May_30_1656,mf_amp_cond1,3.0.7,59.98732116761736,
,,,,,,,,,,,,,,,,,,,,,,,,,,,,,,,,,,,,,,,,,,,,,,,,,,,,right,1.2839028211310506,,,,,,,,,,,,,,,,,,,,,,,,,,,,,,,,,,,,,,,,1024,2019_May_30_1656,mf_amp_cond1,3.0.7,59.98732116761736,
,,,,,,,,,,,,,,,,,,,,,,,,,,,,,,,,,,,,,,,,,,,,,,,430.5945978712989,,,,,,,left,0.5650817099958658,16,right,0.7337438848335296,,,,,,,,,,,,,,,,,,,,,,,,,,,,,,,,,,,1024,2019_May_30_1656,mf_amp_cond1,3.0.7,59.98732116761736,
scarf,&&&&&,images/symbols/symbol_54.png,,,,,,,,,,,,,0,0,0,3,,,,,,,,,,,,,,,,,,,,,,,,,,,,,582.2690448340727,,,,,,,,,,,,left,2.8843433712609112,AMP_prac,left,2.8843433712609112,1,,,,,,,,,,,,,,,,,,,,,,,,,,,,,1024,2019_May_30_1656,mf_amp_cond1,3.0.7,59.98732116761736,
car,&&&,images/symbols/symbol_9.png,,,,,,,,,,,,,0,1,1,0,,,,,,,,,,,,,,,,,,,,,,,,,,,,,583.3858782091411,,,,,,,,,,,,left,0.8837987772421911,AMP_prac,left,0.8837987772421911,1,,,,,,,,,,,,,,,,,,,,,,,,,,,,,1024,2019_May_30_1656,mf_amp_cond1,3.0.7,59.98732116761736,
keyboard,&&&&&&&&,images/symbols/symbol_40.png,,,,,,,,,,,,,0,2,2,2,,,,,,,,,,,,,,,,,,,,,,,,,,,,,584.2694890405983,,,,,,,,,,,,left,0.6653447380522266,AMP_prac,left,0.6653447380522266,1,,,,,,,,,,,,,,,,,,,,,,,,,,,,,1024,2019_May_30_1656,mf_amp_cond1,3.0.7,59.98732116761736,
banana,&&&&&&,images/symbols/symbol_68.png,,,,,,,,,,,,,0,3,3,1,,,,,,,,,,,,,,,,,,,,,,,,,,,,,584.9196287652012,,,,,,,,,,,,left,0.41700826736632735,AMP_prac,left,0.41700826736632735,1,,,,,,,,,,,,,,,,,,,,,,,,,,,,,1024,2019_May_30_1656,mf_amp_cond1,3.0.7,59.98732116761736,
,,,,,,,,,,,,,,,,,,,,,,,,,,,,,,,,,,,,,,,,,,,,,,,,,,,,,,,,,,,,,,,,,right,2.0341083267703652,,,,,,,,,,,,,,,,,,,,,,,,,,,1024,2019_May_30_1656,mf_amp_cond1,3.0.7,59.98732116761736,
praised,&&&&&&&,images/symbols/symbol_73.png,condition_files/AMP_rep4.csv,left,loyalty.virtue,,,,,,,,,,,,,,0,0,0,3,0,0,0,0,,,,,,,,,,,,,,,,,,,,,608.5427956916392,,,,,,,,,,,,,,AMP_prac,left,0.41700826736632735,1,,,right,1.3172503840178251,,,,,,,,,,,,,,,,,,,,,,,,,1024,2019_May_30_1656,mf_amp_cond1,3.0.7,59.98732116761736,
embrace,&&&&&&&,images/symbols/symbol_51.png,condition_files/AMP_rep4.csv,left,authority.virtue,,,,,,,,,,,,,,0,0,0,3,0,1,1,1,,,,,,,,,,,,,,,,,,,,,610.4264911949867,,,,,,,,,,,,,,AMP_prac,left,0.41700826736632735,1,,,left,1.6655111951986328,,,,,,,,,,,,,,,,,,,,,,,,,1024,2019_May_30_1656,mf_amp_cond1,3.0.7,59.98732116761736,
died,&&&&,images/symbols/symbol_3.png,condition_files/AMP_rep4.csv,right,care.vice,,,,,,,,,,,,,,0,0,0,3,0,2,2,2,,,,,,,,,,,,,,,,,,,,,611.0766565777594,,,,,,,,,,,,,,AMP_prac,left,0.41700826736632735,1,,,left,0.417011474724859,,,,,,,,,,,,,,,,,,,,,,,,,1024,2019_May_30_1656,mf_amp_cond1,3.0.7,59.98732116761736,
betrayal,&&&&&&&&,images/symbols/symbol_18.png,condition_files/AMP_rep4.csv,right,loyalty.vice,,,,,,,,,,,,,,0,0,0,3,0,3,3,3,,,,,,,,,,,,,,,,,,,,,611.8601981000975,,,,,,,,,,,,,,AMP_prac,left,0.41700826736632735,1,,,left,0.5503757473779842,,,,,,,,,,,,,,,,,,,,,,,,,1024,2019_May_30_1656,mf_amp_cond1,3.0.7,59.98732116761736,
credit,&&&&&&,images/symbols/symbol_61.png,condition_files/AMP_rep4.csv,left,fairness.virtue,,,,,,,,,,,,,,0,0,0,3,0,4,4,4,,,,,,,,,,,,,,,,,,,,,613.360685444437,,,,,,,,,,,,,,AMP_prac,left,0.41700826736632735,1,,,left,1.2820419645868242,,,,,,,,,,,,,,,,,,,,,,,,,1024,2019_May_30_1656,mf_amp_cond1,3.0.7,59.98732116761736,
interests,&&&&&&&&&,images/symbols/symbol_48.png,condition_files/AMP_rep4.csv,left,fairness.virtue,,,,,,,,,,,,,,0,0,0,3,0,5,5,5,,,,,,,,,,,,,,,,,,,,,614.8610156326322,,,,,,,,,,,,,,AMP_prac,left,0.41700826736632735,1,,,left,1.2826808522222564,,,,,,,,,,,,,,,,,,,,,,,,,1024,2019_May_30_1656,mf_amp_cond1,3.0.7,59.98732116761736,
growth,&&&&&&,images/symbols/symbol_59.png,condition_files/AMP_rep4.csv,left,care.virtue,,,,,,,,,,,,,,0,0,0,3,0,6,6,6,,,,,,,,,,,,,,,,,,,,,615.7779249557061,,,,,,,,,,,,,,AMP_prac,left,0.41700826736632735,1,,,left,0.6993850705912337,,,,,,,,,,,,,,,,,,,,,,,,,1024,2019_May_30_1656,mf_amp_cond1,3.0.7,59.98732116761736,
fear,&&&&,images/symbols/symbol_60.png,condition_files/AMP_rep4.csv,right,sanctity.vice,,,,,,,,,,,,,,0,0,0,3,0,7,7,7,,,,,,,,,,,,,,,,,,,,,616.4614401465515,,,,,,,,,,,,,,AMP_prac,left,0.41700826736632735,1,,,right,0.46598067483864725,,,,,,,,,,,,,,,,,,,,,,,,,1024,2019_May_30_1656,mf_amp_cond1,3.0.7,59.98732116761736,
voter,&&&&&,images/symbols/symbol_57.png,condition_files/AMP_rep4.csv,right,fairness.vice,,,,,,,,,,,,,,0,0,0,3,0,8,8,8,,,,,,,,,,,,,,,,,,,,,617.3616857911693,,,,,,,,,,,,,,AMP_prac,left,0.41700826736632735,1,,,left,0.6825247865635902,,,,,,,,,,,,,,,,,,,,,,,,,1024,2019_May_30_1656,mf_amp_cond1,3.0.7,59.98732116761736,
clean,&&&&&,images/symbols/symbol_22.png,condition_files/AMP_rep4.csv,left,sanctity.virtue,,,,,,,,,,,,,,0,0,0,3,0,9,9,9,,,,,,,,,,,,,,,,,,,,,618.011857267702,,,,,,,,,,,,,,AMP_prac,left,0.41700826736632735,1,,,left,0.4327280471334234,,,,,,,,,,,,,,,,,,,,,,,,,1024,2019_May_30_1656,mf_amp_cond1,3.0.7,59.98732116761736,
spreussed,&&&&&&&&&,images/symbols/symbol_2.png,condition_files/AMP_rep4.csv,None,nonword,,,,,,,,,,,,,,0,0,0,3,0,10,10,10,,,,,,,,,,,,,,,,,,,,,618.7787315835012,,,,,,,,,,,,,,AMP_prac,left,0.41700826736632735,1,,,right,0.549512351048179,,,,,,,,,,,,,,,,,,,,,,,,,1024,2019_May_30_1656,mf_amp_cond1,3.0.7,59.98732116761736,
fighters,&&&&&&&&,images/symbols/symbol_28.png,condition_files/AMP_rep4.csv,right,authority.vice,,,,,,,,,,,,,,0,0,0,3,0,11,11,11,,,,,,,,,,,,,,,,,,,,,619.3455513116205,,,,,,,,,,,,,,AMP_prac,left,0.41700826736632735,1,,,left,0.3493949008407071,,,,,,,,,,,,,,,,,,,,,,,,,1024,2019_May_30_1656,mf_amp_cond1,3.0.7,59.98732116761736,
charges,&&&&&&&,images/symbols/symbol_33.png,condition_files/AMP_rep4.csv,right,fairness.vice,,,,,,,,,,,,,,0,0,0,3,0,12,12,12,,,,,,,,,,,,,,,,,,,,,620.89601590042,,,,,,,,,,,,,,AMP_prac,left,0.41700826736632735,1,,,left,1.3331061518983915,,,,,,,,,,,,,,,,,,,,,,,,,1024,2019_May_30_1656,mf_amp_cond1,3.0.7,59.98732116761736,
cifte,&&&&&,images/symbols/symbol_80.png,condition_files/AMP_rep4.csv,None,nonword,,,,,,,,,,,,,,0,0,0,3,0,13,13,13,,,,,,,,,,,,,,,,,,,,,621.9629207814578,,,,,,,,,,,,,,AMP_prac,left,0.41700826736632735,1,,,left,0.8498293252196163,,,,,,,,,,,,,,,,,,,,,,,,,1024,2019_May_30_1656,mf_amp_cond1,3.0.7,59.98732116761736,
blamed,&&&&&&,images/symbols/symbol_47.png,condition_files/AMP_rep4.csv,right,loyalty.vice,,,,,,,,,,,,,,0,0,0,3,0,14,14,14,,,,,,,,,,,,,,,,,,,,,623.613378987764,,,,,,,,,,,,,,AMP_prac,left,0.41700826736632735,1,,,left,1.4326414508977905,,,,,,,,,,,,,,,,,,,,,,,,,1024,2019_May_30_1656,mf_amp_cond1,3.0.7,59.98732116761736,
pleasant,&&&&&&&,images/symbols/symbol_75.png,condition_files/AMP_rep4.csv,right,control,,,,,,,,,,,,,,0,0,0,3,0,15,15,15,,,,,,,,,,,,,,,,,,,,,624.8803599452367,,,,,,,,,,,,,,AMP_prac,left,0.41700826736632735,1,,,left,1.0338411612901837,,,,,,,,,,,,,,,,,,,,,,,,,1024,2019_May_30_1656,mf_amp_cond1,3.0.7,59.98732116761736,
progress,&&&&&&&&,images/symbols/symbol_21.png,condition_files/AMP_rep4.csv,left,authority.virtue,,,,,,,,,,,,,,0,0,0,3,0,16,16,16,,,,,,,,,,,,,,,,,,,,,626.0140064575244,,,,,,,,,,,,,,AMP_prac,left,0.41700826736632735,1,,,left,0.9155266701709479,,,,,,,,,,,,,,,,,,,,,,,,,1024,2019_May_30_1656,mf_amp_cond1,3.0.7,59.98732116761736,
suicide,&&&&&&&,images/symbols/symbol_42.png,condition_files/AMP_rep4.csv,right,care.vice,,,,,,,,,,,,,,0,0,0,3,0,17,17,17,,,,,,,,,,,,,,,,,,,,,627.1309780658921,,,,,,,,,,,,,,AMP_prac,left,0.41700826736632735,1,,,left,0.8994945025769994,,,,,,,,,,,,,,,,,,,,,,,,,1024,2019_May_30_1656,mf_amp_cond1,3.0.7,59.98732116761736,
care,&&&&,images/symbols/symbol_71.png,condition_files/AMP_rep4.csv,left,care.virtue,,,,,,,,,,,,,,0,0,0,3,0,18,18,18,,,,,,,,,,,,,,,,,,,,,628.2812869738555,,,,,,,,,,,,,,AMP_prac,left,0.41700826736632735,1,,,left,0.9328006916912273,,,,,,,,,,,,,,,,,,,,,,,,,1024,2019_May_30_1656,mf_amp_cond1,3.0.7,59.98732116761736,
arrests,&&&&&&&,images/symbols/symbol_15.png,condition_files/AMP_rep4.csv,right,authority.vice,,,,,,,,,,,,,,0,0,0,3,0,19,19,19,,,,,,,,,,,,,,,,,,,,,629.8150346433977,,,,,,,,,,,,,,AMP_prac,left,0.41700826736632735,1,,,left,1.316252923803404,,,,,,,,,,,,,,,,,,,,,,,,,1024,2019_May_30_1656,mf_amp_cond1,3.0.7,59.98732116761736,
friends,&&&&&&&,images/symbols/symbol_58.png,condition_files/AMP_rep4.csv,left,loyalty.virtue,,,,,,,,,,,,,,0,0,0,3,0,20,20,20,,,,,,,,,,,,,,,,,,,,,630.8486413534265,,,,,,,,,,,,,,AMP_prac,left,0.41700826736632735,1,,,left,0.8161610355600715,,,,,,,,,,,,,,,,,,,,,,,,,1024,2019_May_30_1656,mf_amp_cond1,3.0.7,59.98732116761736,
phigns,&&&&&&,images/symbols/symbol_24.png,condition_files/AMP_rep4.csv,None,nonword,,,,,,,,,,,,,,0,0,0,3,0,21,21,21,,,,,,,,,,,,,,,,,,,,,632.1156688163755,,,,,,,,,,,,,,AMP_prac,left,0.41700826736632735,1,,,left,1.033849820960313,,,,,,,,,,,,,,,,,,,,,,,,,1024,2019_May_30_1656,mf_amp_cond1,3.0.7,59.98732116761736,
serial,&&&&&&,images/symbols/symbol_68.png,condition_files/AMP_rep4.csv,right,sanctity.vice,,,,,,,,,,,,,,0,0,0,3,0,22,22,22,,,,,,,,,,,,,,,,,,,,,633.0325617823983,,,,,,,,,,,,,,AMP_prac,left,0.41700826736632735,1,,,left,0.6837413030443713,,,,,,,,,,,,,,,,,,,,,,,,,1024,2019_May_30_1656,mf_amp_cond1,3.0.7,59.98732116761736,
crime,&&&&&,images/symbols/symbol_8.png,condition_files/AMP_rep4.csv,right,fairness.vice,,,,,,,,,,,,,,0,0,0,3,0,23,23,23,,,,,,,,,,,,,,,,,,,,,633.7827551005175,,,,,,,,,,,,,,AMP_prac,left,0.41700826736632735,1,,,left,0.5324650832917541,,,,,,,,,,,,,,,,,,,,,,,,,1024,2019_May_30_1656,mf_amp_cond1,3.0.7,59.98732116761736,
rebels,&&&&&&,images/symbols/symbol_63.png,condition_files/AMP_rep4.csv,right,authority.vice,,,,,,,,,,,,,,0,0,0,3,0,24,24,24,,,,,,,,,,,,,,,,,,,,,634.5162969275843,,,,,,,,,,,,,,AMP_prac,left,0.41700826736632735,1,,,left,0.5161942950217053,,,,,,,,,,,,,,,,,,,,,,,,,1024,2019_May_30_1656,mf_amp_cond1,3.0.7,59.98732116761736,
ban,&&&,images/symbols/symbol_50.png,condition_files/AMP_rep4.csv,right,loyalty.vice,,,,,,,,,,,,,,0,0,0,3,0,25,25,25,,,,,,,,,,,,,,,,,,,,,635.1831510055345,,,,,,,,,,,,,,AMP_prac,left,0.41700826736632735,1,,,left,0.44934425817336887,,,,,,,,,,,,,,,,,,,,,,,,,1024,2019_May_30_1656,mf_amp_cond1,3.0.7,59.98732116761736,
opportunity,&&&&&&&&&&&,images/symbols/symbol_23.png,condition_files/AMP_rep4.csv,left,fairness.virtue,,,,,,,,,,,,,,0,0,0,3,0,26,26,26,,,,,,,,,,,,,,,,,,,,,635.7666385817574,,,,,,,,,,,,,,AMP_prac,left,0.41700826736632735,1,,,left,0.36579622502904385,,,,,,,,,,,,,,,,,,,,,,,,,1024,2019_May_30_1656,mf_amp_cond1,3.0.7,59.98732116761736,
values,&&&&&&,images/symbols/symbol_78.png,condition_files/AMP_rep4.csv,left,sanctity.virtue,,,,,,,,,,,,,,0,0,0,3,0,27,27,27,,,,,,,,,,,,,,,,,,,,,636.6502102845116,,,,,,,,,,,,,,AMP_prac,left,0.41700826736632735,1,,,left,0.6658983123488724,,,,,,,,,,,,,,,,,,,,,,,,,1024,2019_May_30_1656,mf_amp_cond1,3.0.7,59.98732116761736,
celebrated,&&&&&&&&&&,images/symbols/symbol_77.png,condition_files/AMP_rep4.csv,left,authority.virtue,,,,,,,,,,,,,,0,0,0,3,0,28,28,28,,,,,,,,,,,,,,,,,,,,,637.700513708056,,,,,,,,,,,,,,AMP_prac,left,0.41700826736632735,1,,,left,0.8326268257806078,,,,,,,,,,,,,,,,,,,,,,,,,1024,2019_May_30_1656,mf_amp_cond1,3.0.7,59.98732116761736,
loyalty,&&&&&&&,images/symbols/symbol_65.png,condition_files/AMP_rep4.csv,left,loyalty.virtue,,,,,,,,,,,,,,0,0,0,3,0,29,29,29,,,,,,,,,,,,,,,,,,,,,638.5507105861325,,,,,,,,,,,,,,AMP_prac,left,0.41700826736632735,1,,,left,0.6326562684262171,,,,,,,,,,,,,,,,,,,,,,,,,1024,2019_May_30_1656,mf_amp_cond1,3.0.7,59.98732116761736,
unpleasant,&&&&&&&&&,images/symbols/symbol_56.png,condition_files/AMP_rep4.csv,left,control,,,,,,,,,,,,,,0,0,0,3,0,30,30,30,,,,,,,,,,,,,,,,,,,,,639.384272971889,,,,,,,,,,,,,,AMP_prac,left,0.41700826736632735,1,,,right,0.6003776877187192,,,,,,,,,,,,,,,,,,,,,,,,,1024,2019_May_30_1656,mf_amp_cond1,3.0.7,59.98732116761736,
love,&&&&,images/symbols/symbol_69.png,condition_files/AMP_rep4.csv,left,loyalty.virtue,,,,,,,,,,,,,,0,0,0,3,0,31,31,31,,,,,,,,,,,,,,,,,,,,,639.7677066017641,,,,,,,,,,,,,,AMP_prac,left,0.41700826736632735,1,,,left,0.16573522274848074,,,,,,,,,,,,,,,,,,,,,,,,,1024,2019_May_30_1656,mf_amp_cond1,3.0.7,59.98732116761736,
refused,&&&&&&&,images/symbols/symbol_6.png,condition_files/AMP_rep4.csv,right,authority.vice,,,,,,,,,,,,,,0,0,0,3,0,32,32,32,,,,,,,,,,,,,,,,,,,,,640.3511880841106,,,,,,,,,,,,,,AMP_prac,left,0.41700826736632735,1,,,left,0.35032148042228073,,,,,,,,,,,,,,,,,,,,,,,,,1024,2019_May_30_1656,mf_amp_cond1,3.0.7,59.98732116761736,
fraud,&&&&&,images/symbols/symbol_46.png,condition_files/AMP_rep4.csv,right,fairness.vice,,,,,,,,,,,,,,0,0,0,3,0,33,33,33,,,,,,,,,,,,,,,,,,,,,641.0347051993012,,,,,,,,,,,,,,AMP_prac,left,0.41700826736632735,1,,,right,0.4659130016807467,,,,,,,,,,,,,,,,,,,,,,,,,1024,2019_May_30_1656,mf_amp_cond1,3.0.7,59.98732116761736,
freedom,&&&&&&&,images/symbols/symbol_54.png,condition_files/AMP_rep4.csv,left,sanctity.virtue,,,,,,,,,,,,,,0,0,0,3,0,34,34,34,,,,,,,,,,,,,,,,,,,,,641.3681407375261,,,,,,,,,,,,,,AMP_prac,left,0.41700826736632735,1,,,left,0.11575765756424516,,,,,,,,,,,,,,,,,,,,,,,,,1024,2019_May_30_1656,mf_amp_cond1,3.0.7,59.98732116761736,
accused,&&&&&&&,images/symbols/symbol_13.png,condition_files/AMP_rep4.csv,right,fairness.vice,,,,,,,,,,,,,,0,0,0,3,0,35,35,35,,,,,,,,,,,,,,,,,,,,,641.9349495609058,,,,,,,,,,,,,,AMP_prac,left,0.41700826736632735,1,,,left,0.34934743330813944,,,,,,,,,,,,,,,,,,,,,,,,,1024,2019_May_30_1656,mf_amp_cond1,3.0.7,59.98732116761736,
strong,&&&&&&,images/symbols/symbol_30.png,condition_files/AMP_rep4.csv,left,loyalty.virtue,,,,,,,,,,,,,,0,0,0,3,0,36,36,36,,,,,,,,,,,,,,,,,,,,,642.5351139655104,,,,,,,,,,,,,,AMP_prac,left,0.41700826736632735,1,,,right,0.3828701130114496,,,,,,,,,,,,,,,,,,,,,,,,,1024,2019_May_30_1656,mf_amp_cond1,3.0.7,59.98732116761736,
support,&&&&&&&,images/symbols/symbol_66.png,condition_files/AMP_rep4.csv,left,loyalty.virtue,,,,,,,,,,,,,,0,0,0,3,0,37,37,37,,,,,,,,,,,,,,,,,,,,,643.0184565411182,,,,,,,,,,,,,,AMP_prac,left,0.41700826736632735,1,,,left,0.2659697061171755,,,,,,,,,,,,,,,,,,,,,,,,,1024,2019_May_30_1656,mf_amp_cond1,3.0.7,59.98732116761736,
prison,&&&&&&,images/symbols/symbol_32.png,condition_files/AMP_rep4.csv,right,fairness.vice,,,,,,,,,,,,,,0,0,0,3,0,38,38,38,,,,,,,,,,,,,,,,,,,,,643.8854758575326,,,,,,,,,,,,,,AMP_prac,left,0.41700826736632735,1,,,left,0.649421296780929,,,,,,,,,,,,,,,,,,,,,,,,,1024,2019_May_30_1656,mf_amp_cond1,3.0.7,59.98732116761736,
rheys,&&&&&,images/symbols/symbol_14.png,condition_files/AMP_rep4.csv,None,nonword,,,,,,,,,,,,,,0,0,0,3,0,39,39,39,,,,,,,,,,,,,,,,,,,,,644.6523565879324,,,,,,,,,,,,,,AMP_prac,left,0.41700826736632735,1,,,left,0.5488657659152523,,,,,,,,,,,,,,,,,,,,,,,,,1024,2019_May_30_1656,mf_amp_cond1,3.0.7,59.98732116761736,
integrity,&&&&&&&&&,images/symbols/symbol_82.png,condition_files/AMP_rep4.csv,left,fairness.virtue,,,,,,,,,,,,,,0,0,0,3,0,40,40,40,,,,,,,,,,,,,,,,,,,,,645.2358351837611,,,,,,,,,,,,,,AMP_prac,left,0.41700826736632735,1,,,right,0.3662109245778993,,,,,,,,,,,,,,,,,,,,,,,,,1024,2019_May_30_1656,mf_amp_cond1,3.0.7,59.98732116761736,
fair,&&&&,images/symbols/symbol_81.png,condition_files/AMP_rep4.csv,left,fairness.virtue,,,,,,,,,,,,,,0,0,0,3,0,41,41,41,,,,,,,,,,,,,,,,,,,,,646.4028167505749,,,,,,,,,,,,,,AMP_prac,left,0.41700826736632735,1,,,left,0.9337955861119553,,,,,,,,,,,,,,,,,,,,,,,,,1024,2019_May_30_1656,mf_amp_cond1,3.0.7,59.98732116761736,
compassion,&&&&&&&&&&,images/symbols/symbol_38.png,condition_files/AMP_rep4.csv,left,care.virtue,,,,,,,,,,,,,,0,0,0,3,0,42,42,42,,,,,,,,,,,,,,,,,,,,,647.4697825697949,,,,,,,,,,,,,,AMP_prac,left,0.41700826736632735,1,,,right,0.8493524045916274,,,,,,,,,,,,,,,,,,,,,,,,,1024,2019_May_30_1656,mf_amp_cond1,3.0.7,59.98732116761736,
killed,&&&&&&,images/symbols/symbol_19.png,condition_files/AMP_rep4.csv,right,care.vice,,,,,,,,,,,,,,0,0,0,3,0,43,43,43,,,,,,,,,,,,,,,,,,,,,648.7868058792083,,,,,,,,,,,,,,AMP_prac,left,0.41700826736632735,1,,,right,1.0995237528113648,,,,,,,,,,,,,,,,,,,,,,,,,1024,2019_May_30_1656,mf_amp_cond1,3.0.7,59.98732116761736,
conspiracy,&&&&&&&&&&,images/symbols/symbol_62.png,condition_files/AMP_rep4.csv,right,sanctity.vice,,,,,,,,,,,,,,0,0,0,3,0,44,44,44,,,,,,,,,,,,,,,,,,,,,649.2702684066026,,,,,,,,,,,,,,AMP_prac,left,0.41700826736632735,1,,,left,0.2503047705395147,,,,,,,,,,,,,,,,,,,,,,,,,1024,2019_May_30_1656,mf_amp_cond1,3.0.7,59.98732116761736,
peaceful,&&&&&&&&,images/symbols/symbol_41.png,condition_files/AMP_rep4.csv,left,authority.virtue,,,,,,,,,,,,,,0,0,0,3,0,45,45,45,,,,,,,,,,,,,,,,,,,,,649.9204296199605,,,,,,,,,,,,,,AMP_prac,left,0.41700826736632735,1,,,left,0.4329336329828948,,,,,,,,,,,,,,,,,,,,,,,,,1024,2019_May_30_1656,mf_amp_cond1,3.0.7,59.98732116761736,
good,&&&&,images/symbols/symbol_1.png,condition_files/AMP_rep4.csv,left,care.virtue,,,,,,,,,,,,,,0,0,0,3,0,46,46,46,,,,,,,,,,,,,,,,,,,,,650.4705930462806,,,,,,,,,,,,,,AMP_prac,left,0.41700826736632735,1,,,left,0.3325326924677938,,,,,,,,,,,,,,,,,,,,,,,,,1024,2019_May_30_1656,mf_amp_cond1,3.0.7,59.98732116761736,
ensure,&&&&&&,images/symbols/symbol_25.png,condition_files/AMP_rep4.csv,left,fairness.virtue,,,,,,,,,,,,,,0,0,0,3,0,47,47,47,,,,,,,,,,,,,,,,,,,,,651.6875646866392,,,,,,,,,,,,,,AMP_prac,left,0.41700826736632735,1,,,left,0.9991301890695468,,,,,,,,,,,,,,,,,,,,,,,,,1024,2019_May_30_1656,mf_amp_cond1,3.0.7,59.98732116761736,
gnoozz,&&&&&&,images/symbols/symbol_10.png,condition_files/AMP_rep4.csv,None,nonword,,,,,,,,,,,,,,0,0,0,3,0,48,48,48,,,,,,,,,,,,,,,,,,,,,652.3377868379466,,,,,,,,,,,,,,AMP_prac,left,0.41700826736632735,1,,,left,0.43286403524689376,,,,,,,,,,,,,,,,,,,,,,,,,1024,2019_May_30_1656,mf_amp_cond1,3.0.7,59.98732116761736,
critics,&&&&&&&,images/symbols/symbol_31.png,condition_files/AMP_rep4.csv,right,loyalty.vice,,,,,,,,,,,,,,0,0,0,3,0,49,49,49,,,,,,,,,,,,,,,,,,,,,652.937931036693,,,,,,,,,,,,,,AMP_prac,left,0.41700826736632735,1,,,left,0.3670207596151158,,,,,,,,,,,,,,,,,,,,,,,,,1024,2019_May_30_1656,mf_amp_cond1,3.0.7,59.98732116761736,
praise,&&&&&&,images/symbols/symbol_37.png,condition_files/AMP_rep4.csv,left,authority.virtue,,,,,,,,,,,,,,0,0,0,3,0,50,50,50,,,,,,,,,,,,,,,,,,,,,653.6548342019087,,,,,,,,,,,,,,AMP_prac,left,0.41700826736632735,1,,,left,0.4989873052109033,,,,,,,,,,,,,,,,,,,,,,,,,1024,2019_May_30_1656,mf_amp_cond1,3.0.7,59.98732116761736,
knapps,&&&&&&,images/symbols/symbol_27.png,condition_files/AMP_rep4.csv,None,nonword,,,,,,,,,,,,,,0,0,0,3,0,51,51,51,,,,,,,,,,,,,,,,,,,,,654.4049736378947,,,,,,,,,,,,,,AMP_prac,left,0.41700826736632735,1,,,left,0.5325417369604111,,,,,,,,,,,,,,,,,,,,,,,,,1024,2019_May_30_1656,mf_amp_cond1,3.0.7,59.98732116761736,
increase,&&&&&&&&,images/symbols/symbol_44.png,condition_files/AMP_rep4.csv,left,care.virtue,,,,,,,,,,,,,,0,0,0,3,0,52,52,52,,,,,,,,,,,,,,,,,,,,,655.1218591631623,,,,,,,,,,,,,,AMP_prac,left,0.41700826736632735,1,,,left,0.49936961161438376,,,,,,,,,,,,,,,,,,,,,,,,,1024,2019_May_30_1656,mf_amp_cond1,3.0.7,59.98732116761736,
treas,&&&&&,images/symbols/symbol_70.png,condition_files/AMP_rep4.csv,None,nonword,,,,,,,,,,,,,,0,0,0,3,0,53,53,53,,,,,,,,,,,,,,,,,,,,,655.7220226054778,,,,,,,,,,,,,,AMP_prac,left,0.41700826736632735,1,,,left,0.3670060063013807,,,,,,,,,,,,,,,,,,,,,,,,,1024,2019_May_30_1656,mf_amp_cond1,3.0.7,59.98732116761736,
prosecution,&&&&&&&&&&&,images/symbols/symbol_17.png,condition_files/AMP_rep4.csv,right,authority.vice,,,,,,,,,,,,,,0,0,0,3,0,54,54,54,,,,,,,,,,,,,,,,,,,,,656.4722018116154,,,,,,,,,,,,,,AMP_prac,left,0.41700826736632735,1,,,left,0.532132810447365,,,,,,,,,,,,,,,,,,,,,,,,,1024,2019_May_30_1656,mf_amp_cond1,3.0.7,59.98732116761736,
war,&&&,images/symbols/symbol_64.png,condition_files/AMP_rep4.csv,right,sanctity.vice,,,,,,,,,,,,,,0,0,0,3,0,55,55,55,,,,,,,,,,,,,,,,,,,,,657.1723800394684,,,,,,,,,,,,,,AMP_prac,left,0.41700826736632735,1,,,left,0.48257956677116454,,,,,,,,,,,,,,,,,,,,,,,,,1024,2019_May_30_1656,mf_amp_cond1,3.0.7,59.98732116761736,
perfect,&&&&&&&,images/symbols/symbol_43.png,condition_files/AMP_rep4.csv,left,sanctity.virtue,,,,,,,,,,,,,,0,0,0,3,0,56,56,56,,,,,,,,,,,,,,,,,,,,,657.9726086534793,,,,,,,,,,,,,,AMP_prac,left,0.41700826736632735,1,,,right,0.5826828727731481,,,,,,,,,,,,,,,,,,,,,,,,,1024,2019_May_30_1656,mf_amp_cond1,3.0.7,59.98732116761736,
army,&&&&,images/symbols/symbol_36.png,condition_files/AMP_rep4.csv,right,loyalty.vice,,,,,,,,,,,,,,0,0,0,3,0,57,57,57,,,,,,,,,,,,,,,,,,,,,658.2893522891682,,,,,,,,,,,,,,AMP_prac,left,0.41700826736632735,1,,,left,0.09933933499269187,,,,,,,,,,,,,,,,,,,,,,,,,1024,2019_May_30_1656,mf_amp_cond1,3.0.7,59.98732116761736,
illegal,&&&&&&&,images/symbols/symbol_52.png,condition_files/AMP_rep4.csv,right,fairness.vice,,,,,,,,,,,,,,0,0,0,3,0,58,58,58,,,,,,,,,,,,,,,,,,,,,659.1395706559997,,,,,,,,,,,,,,AMP_prac,left,0.41700826736632735,1,,,left,0.6331286990316585,,,,,,,,,,,,,,,,,,,,,,,,,1024,2019_May_30_1656,mf_amp_cond1,3.0.7,59.98732116761736,
powerful,&&&&&&&&,images/symbols/symbol_11.png,condition_files/AMP_rep4.csv,left,authority.virtue,,,,,,,,,,,,,,0,0,0,3,0,59,59,59,,,,,,,,,,,,,,,,,,,,,659.7397510968149,,,,,,,,,,,,,,AMP_prac,left,0.41700826736632735,1,,,left,0.38271456060465425,,,,,,,,,,,,,,,,,,,,,,,,,1024,2019_May_30_1656,mf_amp_cond1,3.0.7,59.98732116761736,
slavery,&&&&&&&,images/symbols/symbol_29.png,condition_files/AMP_rep4.csv,right,loyalty.vice,,,,,,,,,,,,,,0,0,0,3,0,60,60,60,,,,,,,,,,,,,,,,,,,,,660.3732428584481,,,,,,,,,,,,,,AMP_prac,left,0.41700826736632735,1,,,right,0.41579399595502764,,,,,,,,,,,,,,,,,,,,,,,,,1024,2019_May_30_1656,mf_amp_cond1,3.0.7,59.98732116761736,
snauz,&&&&&,images/symbols/symbol_16.png,condition_files/AMP_rep4.csv,None,nonword,,,,,,,,,,,,,,0,0,0,3,0,61,61,61,,,,,,,,,,,,,,,,,,,,,660.7900048077572,,,,,,,,,,,,,,AMP_prac,left,0.41700826736632735,1,,,left,0.1995731769129634,,,,,,,,,,,,,,,,,,,,,,,,,1024,2019_May_30_1656,mf_amp_cond1,3.0.7,59.98732116761736,
victims,&&&&&&&,images/symbols/symbol_9.png,condition_files/AMP_rep4.csv,right,care.vice,,,,,,,,,,,,,,0,0,0,3,0,62,62,62,,,,,,,,,,,,,,,,,,,,,661.7569519927492,,,,,,,,,,,,,,AMP_prac,left,0.41700826736632735,1,,,left,0.7493895768420771,,,,,,,,,,,,,,,,,,,,,,,,,1024,2019_May_30_1656,mf_amp_cond1,3.0.7,59.98732116761736,
racist,&&&&&&,images/symbols/symbol_4.png,condition_files/AMP_rep4.csv,right,sanctity.vice,,,,,,,,,,,,,,0,0,0,3,0,63,63,63,,,,,,,,,,,,,,,,,,,,,662.6571931471117,,,,,,,,,,,,,,AMP_prac,left,0.41700826736632735,1,,,left,0.6826174765592441,,,,,,,,,,,,,,,,,,,,,,,,,1024,2019_May_30_1656,mf_amp_cond1,3.0.7,59.98732116761736,
death,&&&&&,images/symbols/symbol_7.png,condition_files/AMP_rep4.csv,right,care.vice,,,,,,,,,,,,,,0,0,0,3,0,64,64,64,,,,,,,,,,,,,,,,,,,,,663.5574493757449,,,,,,,,,,,,,,AMP_prac,left,0.41700826736632735,1,,,right,0.6823531977133825,,,,,,,,,,,,,,,,,,,,,,,,,1024,2019_May_30_1656,mf_amp_cond1,3.0.7,59.98732116761736,
respect,&&&&&&&,images/symbols/symbol_67.png,condition_files/AMP_rep4.csv,left,sanctity.virtue,,,,,,,,,,,,,,0,0,0,3,0,65,65,65,,,,,,,,,,,,,,,,,,,,,664.0574877025792,,,,,,,,,,,,,,AMP_prac,left,0.41700826736632735,1,,,left,0.2668828151654452,,,,,,,,,,,,,,,,,,,,,,,,,1024,2019_May_30_1656,mf_amp_cond1,3.0.7,59.98732116761736,
peace,&&&&&,images/symbols/symbol_76.png,condition_files/AMP_rep4.csv,left,care.virtue,,,,,,,,,,,,,,0,0,0,3,0,66,66,66,,,,,,,,,,,,,,,,,,,,,664.6077062939294,,,,,,,,,,,,,,AMP_prac,left,0.41700826736632735,1,,,left,0.3324172309366986,,,,,,,,,,,,,,,,,,,,,,,,,1024,2019_May_30_1656,mf_amp_cond1,3.0.7,59.98732116761736,
energy,&&&&&&,images/symbols/symbol_34.png,condition_files/AMP_rep4.csv,left,sanctity.virtue,,,,,,,,,,,,,,0,0,0,3,0,67,67,67,,,,,,,,,,,,,,,,,,,,,665.1745343609946,,,,,,,,,,,,,,AMP_prac,left,0.41700826736632735,1,,,left,0.3490995115134865,,,,,,,,,,,,,,,,,,,,,,,,,1024,2019_May_30_1656,mf_amp_cond1,3.0.7,59.98732116761736,
promises,&&&&&&&&,images/symbols/symbol_39.png,condition_files/AMP_rep4.csv,left,fairness.virtue,,,,,,,,,,,,,,0,0,0,3,0,68,68,68,,,,,,,,,,,,,,,,,,,,,665.774694596068,,,,,,,,,,,,,,AMP_prac,left,0.41700826736632735,1,,,left,0.38254714116919786,,,,,,,,,,,,,,,,,,,,,,,,,1024,2019_May_30_1656,mf_amp_cond1,3.0.7,59.98732116761736,
improve,&&&&&&&,images/symbols/symbol_40.png,condition_files/AMP_rep4.csv,left,care.virtue,,,,,,,,,,,,,,0,0,0,3,0,69,69,69,,,,,,,,,,,,,,,,,,,,,666.4248715249123,,,,,,,,,,,,,,AMP_prac,left,0.41700826736632735,1,,,left,0.4326109818648547,,,,,,,,,,,,,,,,,,,,,,,,,1024,2019_May_30_1656,mf_amp_cond1,3.0.7,59.98732116761736,
injured,&&&&&&&,images/symbols/symbol_53.png,condition_files/AMP_rep4.csv,right,care.vice,,,,,,,,,,,,,,0,0,0,3,0,70,70,70,,,,,,,,,,,,,,,,,,,,,667.1084005068988,,,,,,,,,,,,,,AMP_prac,left,0.41700826736632735,1,,,left,0.4660922877956182,,,,,,,,,,,,,,,,,,,,,,,,,1024,2019_May_30_1656,mf_amp_cond1,3.0.7,59.98732116761736,
psured,&&&&&&,images/symbols/symbol_72.png,condition_files/AMP_rep4.csv,None,nonword,,,,,,,,,,,,,,0,0,0,3,0,71,71,71,,,,,,,,,,,,,,,,,,,,,667.7585662103957,,,,,,,,,,,,,,AMP_prac,left,0.41700826736632735,1,,,left,0.43263343279249966,,,,,,,,,,,,,,,,,,,,,,,,,1024,2019_May_30_1656,mf_amp_cond1,3.0.7,59.98732116761736,
strength,&&&&&&&&,images/symbols/symbol_35.png,condition_files/AMP_rep4.csv,left,sanctity.virtue,,,,,,,,,,,,,,0,0,0,3,0,72,72,72,,,,,,,,,,,,,,,,,,,,,668.6254633299541,,,,,,,,,,,,,,AMP_prac,left,0.41700826736632735,1,,,right,0.6493334175320342,,,,,,,,,,,,,,,,,,,,,,,,,1024,2019_May_30_1656,mf_amp_cond1,3.0.7,59.98732116761736,
riot,&&&&,images/symbols/symbol_26.png,condition_files/AMP_rep4.csv,right,authority.vice,,,,,,,,,,,,,,0,0,0,3,0,73,73,73,,,,,,,,,,,,,,,,,,,,,668.9755449068034,,,,,,,,,,,,,,AMP_prac,left,0.41700826736632735,1,,,left,0.13254032586701214,,,,,,,,,,,,,,,,,,,,,,,,,1024,2019_May_30_1656,mf_amp_cond1,3.0.7,59.98732116761736,
police,&&&&&&,images/symbols/symbol_20.png,condition_files/AMP_rep4.csv,right,authority.vice,,,,,,,,,,,,,,0,0,0,3,0,74,74,74,,,,,,,,,,,,,,,,,,,,,669.7924439345952,,,,,,,,,,,,,,AMP_prac,left,0.41700826736632735,1,,,right,0.5997618924593553,,,,,,,,,,,,,,,,,,,,,,,,,1024,2019_May_30_1656,mf_amp_cond1,3.0.7,59.98732116761736,
ability,&&&&&&&,images/symbols/symbol_55.png,condition_files/AMP_rep4.csv,left,authority.virtue,,,,,,,,,,,,,,0,0,0,3,0,75,75,75,,,,,,,,,,,,,,,,,,,,,670.1092077761423,,,,,,,,,,,,,,AMP_prac,left,0.41700826736632735,1,,,left,0.09894933132454753,,,,,,,,,,,,,,,,,,,,,,,,,1024,2019_May_30_1656,mf_amp_cond1,3.0.7,59.98732116761736,
failure,&&&&&&&,images/symbols/symbol_74.png,condition_files/AMP_rep4.csv,right,loyalty.vice,,,,,,,,,,,,,,0,0,0,3,0,76,76,76,,,,,,,,,,,,,,,,,,,,,670.909407204017,,,,,,,,,,,,,,AMP_prac,left,0.41700826736632735,1,,,left,0.5670487270690501,,,,,,,,,,,,,,,,,,,,,,,,,1024,2019_May_30_1656,mf_amp_cond1,3.0.7,59.98732116761736,
jipte,&&&&&,images/symbols/symbol_79.png,condition_files/AMP_rep4.csv,None,nonword,,,,,,,,,,,,,,0,0,0,3,0,77,77,77,,,,,,,,,,,,,,,,,,,,,671.7262911576545,,,,,,,,,,,,,,AMP_prac,left,0.41700826736632735,1,,,right,0.5985633365344256,,,,,,,,,,,,,,,,,,,,,,,,,1024,2019_May_30_1656,mf_amp_cond1,3.0.7,59.98732116761736,
scandal,&&&&&&&,images/symbols/symbol_45.png,condition_files/AMP_rep4.csv,right,sanctity.vice,,,,,,,,,,,,,,0,0,0,3,0,78,78,78,,,,,,,,,,,,,,,,,,,,,672.1097488421947,,,,,,,,,,,,,,AMP_prac,left,0.41700826736632735,1,,,left,0.1658939823973924,,,,,,,,,,,,,,,,,,,,,,,,,1024,2019_May_30_1656,mf_amp_cond1,3.0.7,59.98732116761736,
abuse,&&&&&,images/symbols/symbol_5.png,condition_files/AMP_rep4.csv,right,sanctity.vice,,,,,,,,,,,,,,0,0,0,3,0,79,79,79,,,,,,,,,,,,,,,,,,,,,672.6932155711111,,,,,,,,,,,,,,AMP_prac,left,0.41700826736632735,1,,,left,0.36593028879724443,,,,,,,,,,,,,,,,,,,,,,,,,1024,2019_May_30_1656,mf_amp_cond1,3.0.7,59.98732116761736,
attacks,&&&&&&&,images/symbols/symbol_12.png,condition_files/AMP_rep4.csv,right,care.vice,,,,,,,,,,,,,,0,0,0,3,0,80,80,80,,,,,,,,,,,,,,,,,,,,,673.193340494181,,,,,,,,,,,,,,AMP_prac,left,0.41700826736632735,1,,,left,0.2669588273856789,,,,,,,,,,,,,,,,,,,,,,,,,1024,2019_May_30_1656,mf_amp_cond1,3.0.7,59.98732116761736,
hope,&&&&,images/symbols/symbol_49.png,condition_files/AMP_rep4.csv,left,loyalty.virtue,,,,,,,,,,,,,,0,0,0,3,0,81,81,81,,,,,,,,,,,,,,,,,,,,,673.926887132111,,,,,,,,,,,,,,AMP_prac,left,0.41700826736632735,1,,,right,0.5158883216790855,,,,,,,,,,,,,,,,,,,,,,,,,1024,2019_May_30_1656,mf_amp_cond1,3.0.7,59.98732116761736,
,,,condition_files/AMP_rep4.csv,,,,,,,,,,,,,,,,0,0,0,3,,,,,,,,,,,,,,,,,,,,,,,,,,,,,,,,,,,,,,,,,,,,,,,right,3.9012700458988547,,,,,,,,,,,,,,,,,,,,,,,1024,2019_May_30_1656,mf_amp_cond1,3.0.7,59.98732116761736,
praised,&&&&&&&,images/symbols/symbol_73.png,condition_files/AMP_rep3.csv,left,loyalty.virtue,,,,,,,,,,,,,,0,1,1,2,0,0,0,0,,,,,,,,,,,,,,,,,,,,,678.6449494038243,,,,,,,,,,,,,,AMP_prac,left,0.41700826736632735,1,,,right,0.5503763888264075,,,,,,,,,,,,,,,,,,,,,,,,,1024,2019_May_30_1656,mf_amp_cond1,3.0.7,59.98732116761736,
embrace,&&&&&&&,images/symbols/symbol_51.png,condition_files/AMP_rep3.csv,left,authority.virtue,,,,,,,,,,,,,,0,1,1,2,0,1,1,1,,,,,,,,,,,,,,,,,,,,,679.3950150725432,,,,,,,,,,,,,,AMP_prac,left,0.41700826736632735,1,,,left,0.532482081791386,,,,,,,,,,,,,,,,,,,,,,,,,1024,2019_May_30_1656,mf_amp_cond1,3.0.7,59.98732116761736,
died,&&&&,images/symbols/symbol_3.png,condition_files/AMP_rep3.csv,right,care.vice,,,,,,,,,,,,,,0,1,1,2,0,2,2,2,,,,,,,,,,,,,,,,,,,,,680.1286200828617,,,,,,,,,,,,,,AMP_prac,left,0.41700826736632735,1,,,left,0.5004632897907868,,,,,,,,,,,,,,,,,,,,,,,,,1024,2019_May_30_1656,mf_amp_cond1,3.0.7,59.98732116761736,
betrayal,&&&&&&&&,images/symbols/symbol_18.png,condition_files/AMP_rep3.csv,right,loyalty.vice,,,,,,,,,,,,,,0,1,1,2,0,3,3,3,,,,,,,,,,,,,,,,,,,,,680.7287463209359,,,,,,,,,,,,,,AMP_prac,left,0.41700826736632735,1,,,right,0.38218792725820094,,,,,,,,,,,,,,,,,,,,,,,,,1024,2019_May_30_1656,mf_amp_cond1,3.0.7,59.98732116761736,
credit,&&&&&&,images/symbols/symbol_61.png,condition_files/AMP_rep3.csv,left,fairness.virtue,,,,,,,,,,,,,,0,1,1,2,0,4,4,4,,,,,,,,,,,,,,,,,,,,,681.3455371996388,,,,,,,,,,,,,,AMP_prac,left,0.41700826736632735,1,,,left,0.39932628138922155,,,,,,,,,,,,,,,,,,,,,,,,,1024,2019_May_30_1656,mf_amp_cond1,3.0.7,59.98732116761736,
interests,&&&&&&&&&,images/symbols/symbol_48.png,condition_files/AMP_rep3.csv,left,fairness.virtue,,,,,,,,,,,,,,0,1,1,2,0,5,5,5,,,,,,,,,,,,,,,,,,,,,682.2457995221484,,,,,,,,,,,,,,AMP_prac,left,0.41700826736632735,1,,,left,0.6826062510954216,,,,,,,,,,,,,,,,,,,,,,,,,1024,2019_May_30_1656,mf_amp_cond1,3.0.7,59.98732116761736,
growth,&&&&&&,images/symbols/symbol_59.png,condition_files/AMP_rep3.csv,left,care.virtue,,,,,,,,,,,,,,0,1,1,2,0,6,6,6,,,,,,,,,,,,,,,,,,,,,682.8626260015881,,,,,,,,,,,,,,AMP_prac,left,0.41700826736632735,1,,,left,0.39932147052604705,,,,,,,,,,,,,,,,,,,,,,,,,1024,2019_May_30_1656,mf_amp_cond1,3.0.7,59.98732116761736,
fear,&&&&,images/symbols/symbol_60.png,condition_files/AMP_rep3.csv,right,sanctity.vice,,,,,,,,,,,,,,0,1,1,2,0,7,7,7,,,,,,,,,,,,,,,,,,,,,683.579500622116,,,,,,,,,,,,,,AMP_prac,left,0.41700826736632735,1,,,left,0.4993917418178171,,,,,,,,,,,,,,,,,,,,,,,,,1024,2019_May_30_1656,mf_amp_cond1,3.0.7,59.98732116761736,
voter,&&&&&,images/symbols/symbol_57.png,condition_files/AMP_rep3.csv,right,fairness.vice,,,,,,,,,,,,,,0,1,1,2,0,8,8,8,,,,,,,,,,,,,,,,,,,,,684.3296743758256,,,,,,,,,,,,,,AMP_prac,left,0.41700826736632735,1,,,left,0.5327328901039436,,,,,,,,,,,,,,,,,,,,,,,,,1024,2019_May_30_1656,mf_amp_cond1,3.0.7,59.98732116761736,
clean,&&&&&,images/symbols/symbol_22.png,condition_files/AMP_rep3.csv,left,sanctity.virtue,,,,,,,,,,,,,,0,1,1,2,0,9,9,9,,,,,,,,,,,,,,,,,,,,,685.0131991883973,,,,,,,,,,,,,,AMP_prac,left,0.41700826736632735,1,,,right,0.46604065084829926,,,,,,,,,,,,,,,,,,,,,,,,,1024,2019_May_30_1656,mf_amp_cond1,3.0.7,59.98732116761736,
spreussed,&&&&&&&&&,images/symbols/symbol_2.png,condition_files/AMP_rep3.csv,None,nonword,,,,,,,,,,,,,,0,1,1,2,0,10,10,10,,,,,,,,,,,,,,,,,,,,,685.4966540182941,,,,,,,,,,,,,,AMP_prac,left,0.41700826736632735,1,,,left,0.26563582953531295,,,,,,,,,,,,,,,,,,,,,,,,,1024,2019_May_30_1656,mf_amp_cond1,3.0.7,59.98732116761736,
fighters,&&&&&&&&,images/symbols/symbol_28.png,condition_files/AMP_rep3.csv,right,authority.vice,,,,,,,,,,,,,,0,1,1,2,0,11,11,11,,,,,,,,,,,,,,,,,,,,,686.2802112563513,,,,,,,,,,,,,,AMP_prac,left,0.41700826736632735,1,,,left,0.5661615969147533,,,,,,,,,,,,,,,,,,,,,,,,,1024,2019_May_30_1656,mf_amp_cond1,3.0.7,59.98732116761736,
charges,&&&&&&&,images/symbols/symbol_33.png,condition_files/AMP_rep3.csv,right,fairness.vice,,,,,,,,,,,,,,0,1,1,2,0,12,12,12,,,,,,,,,,,,,,,,,,,,,686.9803936536191,,,,,,,,,,,,,,AMP_prac,left,0.41700826736632735,1,,,left,0.48286084400024265,,,,,,,,,,,,,,,,,,,,,,,,,1024,2019_May_30_1656,mf_amp_cond1,3.0.7,59.98732116761736,
cifte,&&&&&,images/symbols/symbol_80.png,condition_files/AMP_rep3.csv,None,nonword,,,,,,,,,,,,,,0,1,1,2,0,13,13,13,,,,,,,,,,,,,,,,,,,,,687.6139088283526,,,,,,,,,,,,,,AMP_prac,left,0.41700826736632735,1,,,left,0.41645597596652806,,,,,,,,,,,,,,,,,,,,,,,,,1024,2019_May_30_1656,mf_amp_cond1,3.0.7,59.98732116761736,
blamed,&&&&&&,images/symbols/symbol_47.png,condition_files/AMP_rep3.csv,right,loyalty.vice,,,,,,,,,,,,,,0,1,1,2,0,14,14,14,,,,,,,,,,,,,,,,,,,,,688.1973822924774,,,,,,,,,,,,,,AMP_prac,left,0.41700826736632735,1,,,left,0.3659511359874159,,,,,,,,,,,,,,,,,,,,,,,,,1024,2019_May_30_1656,mf_amp_cond1,3.0.7,59.98732116761736,
pleasant,&&&&&&&,images/symbols/symbol_75.png,condition_files/AMP_rep3.csv,right,control,,,,,,,,,,,,,,0,1,1,2,0,15,15,15,,,,,,,,,,,,,,,,,,,,,689.464429640444,,,,,,,,,,,,,,AMP_prac,left,0.41700826736632735,1,,,left,1.0495564509183168,,,,,,,,,,,,,,,,,,,,,,,,,1024,2019_May_30_1656,mf_amp_cond1,3.0.7,59.98732116761736,
progress,&&&&&&&&,images/symbols/symbol_21.png,condition_files/AMP_rep3.csv,left,authority.virtue,,,,,,,,,,,,,,0,1,1,2,0,16,16,16,,,,,,,,,,,,,,,,,,,,,689.9645443002228,,,,,,,,,,,,,,AMP_prac,left,0.41700826736632735,1,,,left,0.2828880416927859,,,,,,,,,,,,,,,,,,,,,,,,,1024,2019_May_30_1656,mf_amp_cond1,3.0.7,59.98732116761736,
suicide,&&&&&&&,images/symbols/symbol_42.png,condition_files/AMP_rep3.csv,right,care.vice,,,,,,,,,,,,,,0,1,1,2,0,17,17,17,,,,,,,,,,,,,,,,,,,,,690.6647148306947,,,,,,,,,,,,,,AMP_prac,left,0.41700826736632735,1,,,right,0.48271876212675124,,,,,,,,,,,,,,,,,,,,,,,,,1024,2019_May_30_1656,mf_amp_cond1,3.0.7,59.98732116761736,
care,&&&&,images/symbols/symbol_71.png,condition_files/AMP_rep3.csv,left,care.virtue,,,,,,,,,,,,,,0,1,1,2,0,18,18,18,,,,,,,,,,,,,,,,,,,,,691.1481779995374,,,,,,,,,,,,,,AMP_prac,left,0.41700826736632735,1,,,left,0.26590427779592574,,,,,,,,,,,,,,,,,,,,,,,,,1024,2019_May_30_1656,mf_amp_cond1,3.0.7,59.98732116761736,
arrests,&&&&&&&,images/symbols/symbol_15.png,condition_files/AMP_rep3.csv,right,authority.vice,,,,,,,,,,,,,,0,1,1,2,0,19,19,19,,,,,,,,,,,,,,,,,,,,,691.815023738658,,,,,,,,,,,,,,AMP_prac,left,0.41700826736632735,1,,,left,0.4493214866379276,,,,,,,,,,,,,,,,,,,,,,,,,1024,2019_May_30_1656,mf_amp_cond1,3.0.7,59.98732116761736,
friends,&&&&&&&,images/symbols/symbol_58.png,condition_files/AMP_rep3.csv,left,loyalty.virtue,,,,,,,,,,,,,,0,1,1,2,0,20,20,20,,,,,,,,,,,,,,,,,,,,,692.565228602849,,,,,,,,,,,,,,AMP_prac,left,0.41700826736632735,1,,,left,0.5327094771200791,,,,,,,,,,,,,,,,,,,,,,,,,1024,2019_May_30_1656,mf_amp_cond1,3.0.7,59.98732116761736,
phigns,&&&&&&,images/symbols/symbol_24.png,condition_files/AMP_rep3.csv,None,nonword,,,,,,,,,,,,,,0,1,1,2,0,21,21,21,,,,,,,,,,,,,,,,,,,,,693.3154309012461,,,,,,,,,,,,,,AMP_prac,left,0.41700826736632735,1,,,right,0.5170435793697834,,,,,,,,,,,,,,,,,,,,,,,,,1024,2019_May_30_1656,mf_amp_cond1,3.0.7,59.98732116761736,
serial,&&&&&&,images/symbols/symbol_68.png,condition_files/AMP_rep3.csv,right,sanctity.vice,,,,,,,,,,,,,,0,1,1,2,0,22,22,22,,,,,,,,,,,,,,,,,,,,,693.8155615973519,,,,,,,,,,,,,,AMP_prac,left,0.41700826736632735,1,,,left,0.2669665247667581,,,,,,,,,,,,,,,,,,,,,,,,,1024,2019_May_30_1656,mf_amp_cond1,3.0.7,59.98732116761736,
crime,&&&&&,images/symbols/symbol_8.png,condition_files/AMP_rep3.csv,right,fairness.vice,,,,,,,,,,,,,,0,1,1,2,0,23,23,23,,,,,,,,,,,,,,,,,,,,,694.2990298978984,,,,,,,,,,,,,,AMP_prac,left,0.41700826736632735,1,,,left,0.26556655252352357,,,,,,,,,,,,,,,,,,,,,,,,,1024,2019_May_30_1656,mf_amp_cond1,3.0.7,59.98732116761736,
rebels,&&&&&&,images/symbols/symbol_63.png,condition_files/AMP_rep3.csv,right,authority.vice,,,,,,,,,,,,,,0,1,1,2,0,24,24,24,,,,,,,,,,,,,,,,,,,,,695.5160178953083,,,,,,,,,,,,,,AMP_prac,left,0.41700826736632735,1,,,left,0.999606788973324,,,,,,,,,,,,,,,,,,,,,,,,,1024,2019_May_30_1656,mf_amp_cond1,3.0.7,59.98732116761736,
ban,&&&,images/symbols/symbol_50.png,condition_files/AMP_rep3.csv,right,loyalty.vice,,,,,,,,,,,,,,0,1,1,2,0,25,25,25,,,,,,,,,,,,,,,,,,,,,696.4495960286586,,,,,,,,,,,,,,AMP_prac,left,0.41700826736632735,1,,,left,0.716062861145474,,,,,,,,,,,,,,,,,,,,,,,,,1024,2019_May_30_1656,mf_amp_cond1,3.0.7,59.98732116761736,
opportunity,&&&&&&&&&&&,images/symbols/symbol_23.png,condition_files/AMP_rep3.csv,left,fairness.virtue,,,,,,,,,,,,,,0,1,1,2,0,26,26,26,,,,,,,,,,,,,,,,,,,,,697.0330916229868,,,,,,,,,,,,,,AMP_prac,left,0.41700826736632735,1,,,left,0.3659043099032715,,,,,,,,,,,,,,,,,,,,,,,,,1024,2019_May_30_1656,mf_amp_cond1,3.0.7,59.98732116761736,
values,&&&&&&,images/symbols/symbol_78.png,condition_files/AMP_rep3.csv,left,sanctity.virtue,,,,,,,,,,,,,,0,1,1,2,0,27,27,27,,,,,,,,,,,,,,,,,,,,,697.5666003511287,,,,,,,,,,,,,,AMP_prac,left,0.41700826736632735,1,,,left,0.3158504117745906,,,,,,,,,,,,,,,,,,,,,,,,,1024,2019_May_30_1656,mf_amp_cond1,3.0.7,59.98732116761736,
celebrated,&&&&&&&&&&,images/symbols/symbol_77.png,condition_files/AMP_rep3.csv,left,authority.virtue,,,,,,,,,,,,,,0,1,1,2,0,28,28,28,,,,,,,,,,,,,,,,,,,,,698.150062269182,,,,,,,,,,,,,,AMP_prac,left,0.41700826736632735,1,,,left,0.3657731326529756,,,,,,,,,,,,,,,,,,,,,,,,,1024,2019_May_30_1656,mf_amp_cond1,3.0.7,59.98732116761736,
loyalty,&&&&&&&,images/symbols/symbol_65.png,condition_files/AMP_rep3.csv,left,loyalty.virtue,,,,,,,,,,,,,,0,1,1,2,0,29,29,29,,,,,,,,,,,,,,,,,,,,,698.9002613602206,,,,,,,,,,,,,,AMP_prac,left,0.41700826736632735,1,,,left,0.5325321151176468,,,,,,,,,,,,,,,,,,,,,,,,,1024,2019_May_30_1656,mf_amp_cond1,3.0.7,59.98732116761736,
unpleasant,&&&&&&&&&,images/symbols/symbol_56.png,condition_files/AMP_rep3.csv,left,control,,,,,,,,,,,,,,0,1,1,2,0,30,30,30,,,,,,,,,,,,,,,,,,,,,699.6171302077128,,,,,,,,,,,,,,AMP_prac,left,0.41700826736632735,1,,,right,0.48369312996510416,,,,,,,,,,,,,,,,,,,,,,,,,1024,2019_May_30_1656,mf_amp_cond1,3.0.7,59.98732116761736,
love,&&&&,images/symbols/symbol_69.png,condition_files/AMP_rep3.csv,left,loyalty.virtue,,,,,,,,,,,,,,0,1,1,2,0,31,31,31,,,,,,,,,,,,,,,,,,,,,700.3340131671866,,,,,,,,,,,,,,AMP_prac,left,0.41700826736632735,1,,,left,0.49882181035354733,,,,,,,,,,,,,,,,,,,,,,,,,1024,2019_May_30_1656,mf_amp_cond1,3.0.7,59.98732116761736,
refused,&&&&&&&,images/symbols/symbol_6.png,condition_files/AMP_rep3.csv,right,authority.vice,,,,,,,,,,,,,,0,1,1,2,0,32,32,32,,,,,,,,,,,,,,,,,,,,,701.0841853172751,,,,,,,,,,,,,,AMP_prac,left,0.41700826736632735,1,,,right,0.5170400514034554,,,,,,,,,,,,,,,,,,,,,,,,,1024,2019_May_30_1656,mf_amp_cond1,3.0.7,59.98732116761736,
fraud,&&&&&,images/symbols/symbol_46.png,condition_files/AMP_rep3.csv,right,fairness.vice,,,,,,,,,,,,,,0,1,1,2,0,33,33,33,,,,,,,,,,,,,,,,,,,,,701.5843156926567,,,,,,,,,,,,,,AMP_prac,left,0.41700826736632735,1,,,left,0.2820743579650298,,,,,,,,,,,,,,,,,,,,,,,,,1024,2019_May_30_1656,mf_amp_cond1,3.0.7,59.98732116761736,
freedom,&&&&&&&,images/symbols/symbol_54.png,condition_files/AMP_rep3.csv,left,sanctity.virtue,,,,,,,,,,,,,,0,1,1,2,0,34,34,34,,,,,,,,,,,,,,,,,,,,,702.3678880048683,,,,,,,,,,,,,,AMP_prac,left,0.41700826736632735,1,,,left,0.5658302862429991,,,,,,,,,,,,,,,,,,,,,,,,,1024,2019_May_30_1656,mf_amp_cond1,3.0.7,59.98732116761736,
accused,&&&&&&&,images/symbols/symbol_13.png,condition_files/AMP_rep3.csv,right,fairness.vice,,,,,,,,,,,,,,0,1,1,2,0,35,35,35,,,,,,,,,,,,,,,,,,,,,703.0680614217417,,,,,,,,,,,,,,AMP_prac,left,0.41700826736632735,1,,,right,0.4826844442868605,,,,,,,,,,,,,,,,,,,,,,,,,1024,2019_May_30_1656,mf_amp_cond1,3.0.7,59.98732116761736,
strong,&&&&&&,images/symbols/symbol_30.png,condition_files/AMP_rep3.csv,left,loyalty.virtue,,,,,,,,,,,,,,0,1,1,2,0,36,36,36,,,,,,,,,,,,,,,,,,,,,703.6682078655576,,,,,,,,,,,,,,AMP_prac,left,0.41700826736632735,1,,,left,0.3828021188965067,,,,,,,,,,,,,,,,,,,,,,,,,1024,2019_May_30_1656,mf_amp_cond1,3.0.7,59.98732116761736,
support,&&&&&&&,images/symbols/symbol_66.png,condition_files/AMP_rep3.csv,left,loyalty.virtue,,,,,,,,,,,,,,0,1,1,2,0,37,37,37,,,,,,,,,,,,,,,,,,,,,704.4350796156796,,,,,,,,,,,,,,AMP_prac,left,0.41700826736632735,1,,,left,0.5488163740374148,,,,,,,,,,,,,,,,,,,,,,,,,1024,2019_May_30_1656,mf_amp_cond1,3.0.7,59.98732116761736,
prison,&&&&&&,images/symbols/symbol_32.png,condition_files/AMP_rep3.csv,right,fairness.vice,,,,,,,,,,,,,,0,1,1,2,0,38,38,38,,,,,,,,,,,,,,,,,,,,,705.1352623336716,,,,,,,,,,,,,,AMP_prac,left,0.41700826736632735,1,,,left,0.48267770907841623,,,,,,,,,,,,,,,,,,,,,,,,,1024,2019_May_30_1656,mf_amp_cond1,3.0.7,59.98732116761736,
rheys,&&&&&,images/symbols/symbol_14.png,condition_files/AMP_rep3.csv,None,nonword,,,,,,,,,,,,,,0,1,1,2,0,39,39,39,,,,,,,,,,,,,,,,,,,,,705.8521622916451,,,,,,,,,,,,,,AMP_prac,left,0.41700826736632735,1,,,right,0.4989901918452233,,,,,,,,,,,,,,,,,,,,,,,,,1024,2019_May_30_1656,mf_amp_cond1,3.0.7,59.98732116761736,
integrity,&&&&&&&&&,images/symbols/symbol_82.png,condition_files/AMP_rep3.csv,left,fairness.virtue,,,,,,,,,,,,,,0,1,1,2,0,40,40,40,,,,,,,,,,,,,,,,,,,,,706.3189316336066,,,,,,,,,,,,,,AMP_prac,left,0.41700826736632735,1,,,left,0.24967454257421196,,,,,,,,,,,,,,,,,,,,,,,,,1024,2019_May_30_1656,mf_amp_cond1,3.0.7,59.98732116761736,
fair,&&&&,images/symbols/symbol_81.png,condition_files/AMP_rep3.csv,left,fairness.virtue,,,,,,,,,,,,,,0,1,1,2,0,41,41,41,,,,,,,,,,,,,,,,,,,,,706.7524829863105,,,,,,,,,,,,,,AMP_prac,left,0.41700826736632735,1,,,left,0.2003724278183654,,,,,,,,,,,,,,,,,,,,,,,,,1024,2019_May_30_1656,mf_amp_cond1,3.0.7,59.98732116761736,
compassion,&&&&&&&&&&,images/symbols/symbol_38.png,condition_files/AMP_rep3.csv,left,care.virtue,,,,,,,,,,,,,,0,1,1,2,0,42,42,42,,,,,,,,,,,,,,,,,,,,,707.4192209611647,,,,,,,,,,,,,,AMP_prac,left,0.41700826736632735,1,,,right,0.4487704780185595,,,,,,,,,,,,,,,,,,,,,,,,,1024,2019_May_30_1656,mf_amp_cond1,3.0.7,59.98732116761736,
killed,&&&&&&,images/symbols/symbol_19.png,condition_files/AMP_rep3.csv,right,care.vice,,,,,,,,,,,,,,0,1,1,2,0,43,43,43,,,,,,,,,,,,,,,,,,,,,707.8526584558422,,,,,,,,,,,,,,AMP_prac,left,0.41700826736632735,1,,,left,0.2159488428151235,,,,,,,,,,,,,,,,,,,,,,,,,1024,2019_May_30_1656,mf_amp_cond1,3.0.7,59.98732116761736,
conspiracy,&&&&&&&&&&,images/symbols/symbol_62.png,condition_files/AMP_rep3.csv,right,sanctity.vice,,,,,,,,,,,,,,0,1,1,2,0,44,44,44,,,,,,,,,,,,,,,,,,,,,708.3861322248122,,,,,,,,,,,,,,AMP_prac,left,0.41700826736632735,1,,,left,0.3002993343397975,,,,,,,,,,,,,,,,,,,,,,,,,1024,2019_May_30_1656,mf_amp_cond1,3.0.7,59.98732116761736,
peaceful,&&&&&&&&,images/symbols/symbol_41.png,condition_files/AMP_rep3.csv,left,authority.virtue,,,,,,,,,,,,,,0,1,1,2,0,45,45,45,,,,,,,,,,,,,,,,,,,,,709.1363547289511,,,,,,,,,,,,,,AMP_prac,left,0.41700826736632735,1,,,left,0.532649821951054,,,,,,,,,,,,,,,,,,,,,,,,,1024,2019_May_30_1656,mf_amp_cond1,3.0.7,59.98732116761736,
good,&&&&,images/symbols/symbol_1.png,condition_files/AMP_rep3.csv,left,care.virtue,,,,,,,,,,,,,,0,1,1,2,0,46,46,46,,,,,,,,,,,,,,,,,,,,,709.8031911669532,,,,,,,,,,,,,,AMP_prac,left,0.41700826736632735,1,,,left,0.4491037130355835,,,,,,,,,,,,,,,,,,,,,,,,,1024,2019_May_30_1656,mf_amp_cond1,3.0.7,59.98732116761736,
ensure,&&&&&&,images/symbols/symbol_25.png,condition_files/AMP_rep3.csv,left,fairness.virtue,,,,,,,,,,,,,,0,1,1,2,0,47,47,47,,,,,,,,,,,,,,,,,,,,,710.470047169365,,,,,,,,,,,,,,AMP_prac,left,0.41700826736632735,1,,,left,0.4493141098646447,,,,,,,,,,,,,,,,,,,,,,,,,1024,2019_May_30_1656,mf_amp_cond1,3.0.7,59.98732116761736,
gnoozz,&&&&&&,images/symbols/symbol_10.png,condition_files/AMP_rep3.csv,None,nonword,,,,,,,,,,,,,,0,1,1,2,0,48,48,48,,,,,,,,,,,,,,,,,,,,,711.1368858524365,,,,,,,,,,,,,,AMP_prac,left,0.41700826736632735,1,,,left,0.4494520223233849,,,,,,,,,,,,,,,,,,,,,,,,,1024,2019_May_30_1656,mf_amp_cond1,3.0.7,59.98732116761736,
critics,&&&&&&&,images/symbols/symbol_31.png,condition_files/AMP_rep3.csv,right,loyalty.vice,,,,,,,,,,,,,,0,1,1,2,0,49,49,49,,,,,,,,,,,,,,,,,,,,,711.7537174634635,,,,,,,,,,,,,,AMP_prac,left,0.41700826736632735,1,,,left,0.38366711896378547,,,,,,,,,,,,,,,,,,,,,,,,,1024,2019_May_30_1656,mf_amp_cond1,3.0.7,59.98732116761736,
praise,&&&&&&,images/symbols/symbol_37.png,condition_files/AMP_rep3.csv,left,authority.virtue,,,,,,,,,,,,,,0,1,1,2,0,50,50,50,,,,,,,,,,,,,,,,,,,,,712.4205603160663,,,,,,,,,,,,,,AMP_prac,left,0.41700826736632735,1,,,left,0.4486287167528644,,,,,,,,,,,,,,,,,,,,,,,,,1024,2019_May_30_1656,mf_amp_cond1,3.0.7,59.98732116761736,
knapps,&&&&&&,images/symbols/symbol_27.png,condition_files/AMP_rep3.csv,None,nonword,,,,,,,,,,,,,,0,1,1,2,0,51,51,51,,,,,,,,,,,,,,,,,,,,,713.0540786980418,,,,,,,,,,,,,,AMP_prac,left,0.41700826736632735,1,,,right,0.41556243132799864,,,,,,,,,,,,,,,,,,,,,,,,,1024,2019_May_30_1656,mf_amp_cond1,3.0.7,59.98732116761736,
increase,&&&&&&&&,images/symbols/symbol_44.png,condition_files/AMP_rep3.csv,left,care.virtue,,,,,,,,,,,,,,0,1,1,2,0,52,52,52,,,,,,,,,,,,,,,,,,,,,713.4541670262115,,,,,,,,,,,,,,AMP_prac,left,0.41700826736632735,1,,,left,0.1825159665895626,,,,,,,,,,,,,,,,,,,,,,,,,1024,2019_May_30_1656,mf_amp_cond1,3.0.7,59.98732116761736,
treas,&&&&&,images/symbols/symbol_70.png,condition_files/AMP_rep3.csv,None,nonword,,,,,,,,,,,,,,0,1,1,2,0,53,53,53,,,,,,,,,,,,,,,,,,,,,714.6378238177858,,,,,,,,,,,,,,AMP_prac,left,0.41700826736632735,1,,,left,0.9504833192331716,,,,,,,,,,,,,,,,,,,,,,,,,1024,2019_May_30_1656,mf_amp_cond1,3.0.7,59.98732116761736,
prosecution,&&&&&&&&&&&,images/symbols/symbol_17.png,condition_files/AMP_rep3.csv,right,authority.vice,,,,,,,,,,,,,,0,1,1,2,0,54,54,54,,,,,,,,,,,,,,,,,,,,,715.4880598245654,,,,,,,,,,,,,,AMP_prac,left,0.41700826736632735,1,,,left,0.6321488787652925,,,,,,,,,,,,,,,,,,,,,,,,,1024,2019_May_30_1656,mf_amp_cond1,3.0.7,59.98732116761736,
war,&&&,images/symbols/symbol_64.png,condition_files/AMP_rep3.csv,right,sanctity.vice,,,,,,,,,,,,,,0,1,1,2,0,55,55,55,,,,,,,,,,,,,,,,,,,,,716.2882592524402,,,,,,,,,,,,,,AMP_prac,left,0.41700826736632735,1,,,left,0.5825654867803678,,,,,,,,,,,,,,,,,,,,,,,,,1024,2019_May_30_1656,mf_amp_cond1,3.0.7,59.98732116761736,
perfect,&&&&&&&,images/symbols/symbol_43.png,condition_files/AMP_rep3.csv,left,sanctity.virtue,,,,,,,,,,,,,,0,1,1,2,0,56,56,56,,,,,,,,,,,,,,,,,,,,,716.8884512394434,,,,,,,,,,,,,,AMP_prac,left,0.41700826736632735,1,,,left,0.38244867813773453,,,,,,,,,,,,,,,,,,,,,,,,,1024,2019_May_30_1656,mf_amp_cond1,3.0.7,59.98732116761736,
army,&&&&,images/symbols/symbol_36.png,condition_files/AMP_rep3.csv,right,loyalty.vice,,,,,,,,,,,,,,0,1,1,2,0,57,57,57,,,,,,,,,,,,,,,,,,,,,718.0387947859708,,,,,,,,,,,,,,AMP_prac,left,0.41700826736632735,1,,,left,0.9327378292800859,,,,,,,,,,,,,,,,,,,,,,,,,1024,2019_May_30_1656,mf_amp_cond1,3.0.7,59.98732116761736,
illegal,&&&&&&&,images/symbols/symbol_52.png,condition_files/AMP_rep3.csv,right,fairness.vice,,,,,,,,,,,,,,0,1,1,2,0,58,58,58,,,,,,,,,,,,,,,,,,,,,718.6889239265583,,,,,,,,,,,,,,AMP_prac,left,0.41700826736632735,1,,,left,0.43274953588843346,,,,,,,,,,,,,,,,,,,,,,,,,1024,2019_May_30_1656,mf_amp_cond1,3.0.7,59.98732116761736,
powerful,&&&&&&&&,images/symbols/symbol_11.png,condition_files/AMP_rep3.csv,left,authority.virtue,,,,,,,,,,,,,,0,1,1,2,0,59,59,59,,,,,,,,,,,,,,,,,,,,,719.2057199048577,,,,,,,,,,,,,,AMP_prac,left,0.41700826736632735,1,,,left,0.2990446512121707,,,,,,,,,,,,,,,,,,,,,,,,,1024,2019_May_30_1656,mf_amp_cond1,3.0.7,59.98732116761736,
slavery,&&&&&&&,images/symbols/symbol_29.png,condition_files/AMP_rep3.csv,right,loyalty.vice,,,,,,,,,,,,,,0,1,1,2,0,60,60,60,,,,,,,,,,,,,,,,,,,,,719.8225515160011,,,,,,,,,,,,,,AMP_prac,left,0.41700826736632735,1,,,left,0.39903602364938706,,,,,,,,,,,,,,,,,,,,,,,,,1024,2019_May_30_1656,mf_amp_cond1,3.0.7,59.98732116761736,
snauz,&&&&&,images/symbols/symbol_16.png,condition_files/AMP_rep3.csv,None,nonword,,,,,,,,,,,,,,0,1,1,2,0,61,61,61,,,,,,,,,,,,,,,,,,,,,720.4227104681777,,,,,,,,,,,,,,AMP_prac,left,0.41700826736632735,1,,,right,0.3828072506003082,,,,,,,,,,,,,,,,,,,,,,,,,1024,2019_May_30_1656,mf_amp_cond1,3.0.7,59.98732116761736,
victims,&&&&&&&,images/symbols/symbol_9.png,condition_files/AMP_rep3.csv,right,care.vice,,,,,,,,,,,,,,0,1,1,2,0,62,62,62,,,,,,,,,,,,,,,,,,,,,720.7728157787351,,,,,,,,,,,,,,AMP_prac,left,0.41700826736632735,1,,,left,0.13250697019975632,,,,,,,,,,,,,,,,,,,,,,,,,1024,2019_May_30_1656,mf_amp_cond1,3.0.7,59.98732116761736,
racist,&&&&&&,images/symbols/symbol_4.png,condition_files/AMP_rep3.csv,right,sanctity.vice,,,,,,,,,,,,,,0,1,1,2,0,63,63,63,,,,,,,,,,,,,,,,,,,,,721.4396477265982,,,,,,,,,,,,,,AMP_prac,left,0.41700826736632735,1,,,left,0.44919736532028764,,,,,,,,,,,,,,,,,,,,,,,,,1024,2019_May_30_1656,mf_amp_cond1,3.0.7,59.98732116761736,
death,&&&&&,images/symbols/symbol_7.png,condition_files/AMP_rep3.csv,right,care.vice,,,,,,,,,,,,,,0,1,1,2,0,64,64,64,,,,,,,,,,,,,,,,,,,,,722.106498276582,,,,,,,,,,,,,,AMP_prac,left,0.41700826736632735,1,,,right,0.44910980691201985,,,,,,,,,,,,,,,,,,,,,,,,,1024,2019_May_30_1656,mf_amp_cond1,3.0.7,59.98732116761736,
respect,&&&&&&&,images/symbols/symbol_67.png,condition_files/AMP_rep3.csv,left,sanctity.virtue,,,,,,,,,,,,,,0,1,1,2,0,65,65,65,,,,,,,,,,,,,,,,,,,,,722.6899836077355,,,,,,,,,,,,,,AMP_prac,left,0.41700826736632735,1,,,left,0.36581322352867573,,,,,,,,,,,,,,,,,,,,,,,,,1024,2019_May_30_1656,mf_amp_cond1,3.0.7,59.98732116761736,
peace,&&&&&,images/symbols/symbol_76.png,condition_files/AMP_rep3.csv,left,care.virtue,,,,,,,,,,,,,,0,1,1,2,0,66,66,66,,,,,,,,,,,,,,,,,,,,,723.5568961220561,,,,,,,,,,,,,,AMP_prac,left,0.41700826736632735,1,,,left,0.6498039236757904,,,,,,,,,,,,,,,,,,,,,,,,,1024,2019_May_30_1656,mf_amp_cond1,3.0.7,59.98732116761736,
energy,&&&&&&,images/symbols/symbol_34.png,condition_files/AMP_rep3.csv,left,sanctity.virtue,,,,,,,,,,,,,,0,1,1,2,0,67,67,67,,,,,,,,,,,,,,,,,,,,,724.1903952604625,,,,,,,,,,,,,,AMP_prac,left,0.41700826736632735,1,,,left,0.41585589619353414,,,,,,,,,,,,,,,,,,,,,,,,,1024,2019_May_30_1656,mf_amp_cond1,3.0.7,59.98732116761736,
promises,&&&&&&&&,images/symbols/symbol_39.png,condition_files/AMP_rep3.csv,left,fairness.virtue,,,,,,,,,,,,,,0,1,1,2,0,68,68,68,,,,,,,,,,,,,,,,,,,,,724.8405782831833,,,,,,,,,,,,,,AMP_prac,left,0.41700826736632735,1,,,right,0.43262092443183064,,,,,,,,,,,,,,,,,,,,,,,,,1024,2019_May_30_1656,mf_amp_cond1,3.0.7,59.98732116761736,
improve,&&&&&&&,images/symbols/symbol_40.png,condition_files/AMP_rep3.csv,left,care.virtue,,,,,,,,,,,,,,0,1,1,2,0,69,69,69,,,,,,,,,,,,,,,,,,,,,725.1739897669759,,,,,,,,,,,,,,AMP_prac,left,0.41700826736632735,1,,,left,0.11584746115840971,,,,,,,,,,,,,,,,,,,,,,,,,1024,2019_May_30_1656,mf_amp_cond1,3.0.7,59.98732116761736,
injured,&&&&&&&,images/symbols/symbol_53.png,condition_files/AMP_rep3.csv,right,care.vice,,,,,,,,,,,,,,0,1,1,2,0,70,70,70,,,,,,,,,,,,,,,,,,,,,725.7906975775259,,,,,,,,,,,,,,AMP_prac,left,0.41700826736632735,1,,,left,0.3992361571872607,,,,,,,,,,,,,,,,,,,,,,,,,1024,2019_May_30_1656,mf_amp_cond1,3.0.7,59.98732116761736,
psured,&&&&&&,images/symbols/symbol_72.png,condition_files/AMP_rep3.csv,None,nonword,,,,,,,,,,,,,,0,1,1,2,0,71,71,71,,,,,,,,,,,,,,,,,,,,,726.3909877069527,,,,,,,,,,,,,,AMP_prac,left,0.41700826736632735,1,,,left,0.3825019187061116,,,,,,,,,,,,,,,,,,,,,,,,,1024,2019_May_30_1656,mf_amp_cond1,3.0.7,59.98732116761736,
strength,&&&&&&&&,images/symbols/symbol_35.png,condition_files/AMP_rep3.csv,left,sanctity.virtue,,,,,,,,,,,,,,0,1,1,2,0,72,72,72,,,,,,,,,,,,,,,,,,,,,726.9744804147631,,,,,,,,,,,,,,AMP_prac,left,0.41700826736632735,1,,,right,0.3658699921797961,,,,,,,,,,,,,,,,,,,,,,,,,1024,2019_May_30_1656,mf_amp_cond1,3.0.7,59.98732116761736,
riot,&&&&,images/symbols/symbol_26.png,condition_files/AMP_rep3.csv,right,authority.vice,,,,,,,,,,,,,,0,1,1,2,0,73,73,73,,,,,,,,,,,,,,,,,,,,,727.3912507027853,,,,,,,,,,,,,,AMP_prac,left,0.41700826736632735,1,,,left,0.1992040203185752,,,,,,,,,,,,,,,,,,,,,,,,,1024,2019_May_30_1656,mf_amp_cond1,3.0.7,59.98732116761736,
police,&&&&&&,images/symbols/symbol_20.png,condition_files/AMP_rep3.csv,right,authority.vice,,,,,,,,,,,,,,0,1,1,2,0,74,74,74,,,,,,,,,,,,,,,,,,,,,727.9080550200306,,,,,,,,,,,,,,AMP_prac,left,0.41700826736632735,1,,,left,0.29970182036049664,,,,,,,,,,,,,,,,,,,,,,,,,1024,2019_May_30_1656,mf_amp_cond1,3.0.7,59.98732116761736,
ability,&&&&&&&,images/symbols/symbol_55.png,condition_files/AMP_rep3.csv,left,authority.virtue,,,,,,,,,,,,,,0,1,1,2,0,75,75,75,,,,,,,,,,,,,,,,,,,,,728.6749363918789,,,,,,,,,,,,,,AMP_prac,left,0.41700826736632735,1,,,left,0.5490206768736243,,,,,,,,,,,,,,,,,,,,,,,,,1024,2019_May_30_1656,mf_amp_cond1,3.0.7,59.98732116761736,
failure,&&&&&&&,images/symbols/symbol_74.png,condition_files/AMP_rep3.csv,right,loyalty.vice,,,,,,,,,,,,,,0,1,1,2,0,76,76,76,,,,,,,,,,,,,,,,,,,,,729.8419131478295,,,,,,,,,,,,,,AMP_prac,left,0.41700826736632735,1,,,left,0.9338087359210476,,,,,,,,,,,,,,,,,,,,,,,,,1024,2019_May_30_1656,mf_amp_cond1,3.0.7,59.98732116761736,
jipte,&&&&&,images/symbols/symbol_79.png,condition_files/AMP_rep3.csv,None,nonword,,,,,,,,,,,,,,0,1,1,2,0,77,77,77,,,,,,,,,,,,,,,,,,,,,730.4254020069493,,,,,,,,,,,,,,AMP_prac,left,0.41700826736632735,1,,,right,0.3651512435171753,,,,,,,,,,,,,,,,,,,,,,,,,1024,2019_May_30_1656,mf_amp_cond1,3.0.7,59.98732116761736,
scandal,&&&&&&&,images/symbols/symbol_45.png,condition_files/AMP_rep3.csv,right,sanctity.vice,,,,,,,,,,,,,,0,1,1,2,0,78,78,78,,,,,,,,,,,,,,,,,,,,,730.7588468462927,,,,,,,,,,,,,,AMP_prac,left,0.41700826736632735,1,,,left,0.11590711632743478,,,,,,,,,,,,,,,,,,,,,,,,,1024,2019_May_30_1656,mf_amp_cond1,3.0.7,59.98732116761736,
abuse,&&&&&,images/symbols/symbol_5.png,condition_files/AMP_rep3.csv,right,sanctity.vice,,,,,,,,,,,,,,0,1,1,2,0,79,79,79,,,,,,,,,,,,,,,,,,,,,731.2923020130256,,,,,,,,,,,,,,AMP_prac,left,0.41700826736632735,1,,,left,0.31594342249445617,,,,,,,,,,,,,,,,,,,,,,,,,1024,2019_May_30_1656,mf_amp_cond1,3.0.7,59.98732116761736,
attacks,&&&&&&&,images/symbols/symbol_12.png,condition_files/AMP_rep3.csv,right,care.vice,,,,,,,,,,,,,,0,1,1,2,0,80,80,80,,,,,,,,,,,,,,,,,,,,,731.7257542611333,,,,,,,,,,,,,,AMP_prac,left,0.41700826736632735,1,,,left,0.20028807676862925,,,,,,,,,,,,,,,,,,,,,,,,,1024,2019_May_30_1656,mf_amp_cond1,3.0.7,59.98732116761736,
hope,&&&&,images/symbols/symbol_49.png,condition_files/AMP_rep3.csv,left,loyalty.virtue,,,,,,,,,,,,,,0,1,1,2,0,81,81,81,,,,,,,,,,,,,,,,,,,,,732.2092799716629,,,,,,,,,,,,,,AMP_prac,left,0.41700826736632735,1,,,left,0.26581960590556264,,,,,,,,,,,,,,,,,,,,,,,,,1024,2019_May_30_1656,mf_amp_cond1,3.0.7,59.98732116761736,
,,,condition_files/AMP_rep3.csv,,,,,,,,,,,,,,,,0,1,1,2,,,,,,,,,,,,,,,,,,,,,,,,,,,,,,,,,,,,,,,,,,,,,,,right,3.901282233418897,,,,,,,,,,,,,,,,,,,,,,,1024,2019_May_30_1656,mf_amp_cond1,3.0.7,59.98732116761736,
praised,&&&&&&&,images/symbols/symbol_73.png,condition_files/AMP_rep2.csv,left,loyalty.virtue,,,,,,,,,,,,,,0,2,2,1,0,0,0,0,,,,,,,,,,,,,,,,,,,,,736.9439616616582,,,,,,,,,,,,,,AMP_prac,left,0.41700826736632735,1,,,right,0.5670573867391795,,,,,,,,,,,,,,,,,,,,,,,,,1024,2019_May_30_1656,mf_amp_cond1,3.0.7,59.98732116761736,
embrace,&&&&&&&,images/symbols/symbol_51.png,condition_files/AMP_rep2.csv,left,authority.virtue,,,,,,,,,,,,,,0,2,2,1,0,1,1,1,,,,,,,,,,,,,,,,,,,,,737.7773813239764,,,,,,,,,,,,,,AMP_prac,left,0.41700826736632735,1,,,left,0.6158861086005345,,,,,,,,,,,,,,,,,,,,,,,,,1024,2019_May_30_1656,mf_amp_cond1,3.0.7,59.98732116761736,
died,&&&&,images/symbols/symbol_3.png,condition_files/AMP_rep2.csv,right,care.vice,,,,,,,,,,,,,,0,2,2,1,0,2,2,2,,,,,,,,,,,,,,,,,,,,,738.077455508057,,,,,,,,,,,,,,AMP_prac,left,0.41700826736632735,1,,,left,0.06691161636263132,,,,,,,,,,,,,,,,,,,,,,,,,1024,2019_May_30_1656,mf_amp_cond1,3.0.7,59.98732116761736,
betrayal,&&&&&&&&,images/symbols/symbol_18.png,condition_files/AMP_rep2.csv,right,loyalty.vice,,,,,,,,,,,,,,0,2,2,1,0,3,3,3,,,,,,,,,,,,,,,,,,,,,739.7779073157581,,,,,,,,,,,,,,AMP_prac,left,0.41700826736632735,1,,,left,1.4825099689187482,,,,,,,,,,,,,,,,,,,,,,,,,1024,2019_May_30_1656,mf_amp_cond1,3.0.7,59.98732116761736,
credit,&&&&&&,images/symbols/symbol_61.png,condition_files/AMP_rep2.csv,left,fairness.virtue,,,,,,,,,,,,,,0,2,2,1,0,4,4,4,,,,,,,,,,,,,,,,,,,,,740.3614074003417,,,,,,,,,,,,,,AMP_prac,left,0.41700826736632735,1,,,left,0.36590078193694353,,,,,,,,,,,,,,,,,,,,,,,,,1024,2019_May_30_1656,mf_amp_cond1,3.0.7,59.98732116761736,
interests,&&&&&&&&&,images/symbols/symbol_48.png,condition_files/AMP_rep2.csv,left,fairness.virtue,,,,,,,,,,,,,,0,2,2,1,0,5,5,5,,,,,,,,,,,,,,,,,,,,,740.7281834455207,,,,,,,,,,,,,,AMP_prac,left,0.41700826736632735,1,,,left,0.1492097774753347,,,,,,,,,,,,,,,,,,,,,,,,,1024,2019_May_30_1656,mf_amp_cond1,3.0.7,59.98732116761736,
growth,&&&&&&,images/symbols/symbol_59.png,condition_files/AMP_rep2.csv,left,care.virtue,,,,,,,,,,,,,,0,2,2,1,0,6,6,6,,,,,,,,,,,,,,,,,,,,,741.4116851657163,,,,,,,,,,,,,,AMP_prac,left,0.41700826736632735,1,,,left,0.46601210616063327,,,,,,,,,,,,,,,,,,,,,,,,,1024,2019_May_30_1656,mf_amp_cond1,3.0.7,59.98732116761736,
fear,&&&&,images/symbols/symbol_60.png,condition_files/AMP_rep2.csv,right,sanctity.vice,,,,,,,,,,,,,,0,2,2,1,0,7,7,7,,,,,,,,,,,,,,,,,,,,,741.7784480610862,,,,,,,,,,,,,,AMP_prac,left,0.41700826736632735,1,,,right,0.14923864288721234,,,,,,,,,,,,,,,,,,,,,,,,,1024,2019_May_30_1656,mf_amp_cond1,3.0.7,59.98732116761736,
voter,&&&&&,images/symbols/symbol_57.png,condition_files/AMP_rep2.csv,right,fairness.vice,,,,,,,,,,,,,,0,2,2,1,0,8,8,8,,,,,,,,,,,,,,,,,,,,,742.27859030338,,,,,,,,,,,,,,AMP_prac,left,0.41700826736632735,1,,,left,0.2826763620832935,,,,,,,,,,,,,,,,,,,,,,,,,1024,2019_May_30_1656,mf_amp_cond1,3.0.7,59.98732116761736,
clean,&&&&&,images/symbols/symbol_22.png,condition_files/AMP_rep2.csv,left,sanctity.virtue,,,,,,,,,,,,,,0,2,2,1,0,9,9,9,,,,,,,,,,,,,,,,,,,,,742.5286461900687,,,,,,,,,,,,,,AMP_prac,left,0.41700826736632735,1,,,left,0.03255697141867131,,,,,,,,,,,,,,,,,,,,,,,,,1024,2019_May_30_1656,mf_amp_cond1,3.0.7,59.98732116761736,
spreussed,&&&&&&&&&,images/symbols/symbol_2.png,condition_files/AMP_rep2.csv,None,nonword,,,,,,,,,,,,,,0,2,2,1,0,10,10,10,,,,,,,,,,,,,,,,,,,,,743.1454906301806,,,,,,,,,,,,,,AMP_prac,left,0.41700826736632735,1,,,left,0.39932628138922155,,,,,,,,,,,,,,,,,,,,,,,,,1024,2019_May_30_1656,mf_amp_cond1,3.0.7,59.98732116761736,
fighters,&&&&&&&&,images/symbols/symbol_28.png,condition_files/AMP_rep2.csv,right,authority.vice,,,,,,,,,,,,,,0,2,2,1,0,11,11,11,,,,,,,,,,,,,,,,,,,,,743.9957134871511,,,,,,,,,,,,,,AMP_prac,left,0.41700826736632735,1,,,left,0.6326363834086806,,,,,,,,,,,,,,,,,,,,,,,,,1024,2019_May_30_1656,mf_amp_cond1,3.0.7,59.98732116761736,
charges,&&&&&&&,images/symbols/symbol_33.png,condition_files/AMP_rep2.csv,right,fairness.vice,,,,,,,,,,,,,,0,2,2,1,0,12,12,12,,,,,,,,,,,,,,,,,,,,,744.929298035102,,,,,,,,,,,,,,AMP_prac,left,0.41700826736632735,1,,,right,0.7156157679855824,,,,,,,,,,,,,,,,,,,,,,,,,1024,2019_May_30_1656,mf_amp_cond1,3.0.7,59.98732116761736,
cifte,&&&&&,images/symbols/symbol_80.png,condition_files/AMP_rep2.csv,None,nonword,,,,,,,,,,,,,,0,2,2,1,0,13,13,13,,,,,,,,,,,,,,,,,,,,,745.9962574397214,,,,,,,,,,,,,,AMP_prac,left,0.41700826736632735,1,,,left,0.8498537004925311,,,,,,,,,,,,,,,,,,,,,,,,,1024,2019_May_30_1656,mf_amp_cond1,3.0.7,59.98732116761736,
blamed,&&&&&&,images/symbols/symbol_47.png,condition_files/AMP_rep2.csv,right,loyalty.vice,,,,,,,,,,,,,,0,2,2,1,0,14,14,14,,,,,,,,,,,,,,,,,,,,,747.1132284065243,,,,,,,,,,,,,,AMP_prac,left,0.41700826736632735,1,,,left,0.8994409411679953,,,,,,,,,,,,,,,,,,,,,,,,,1024,2019_May_30_1656,mf_amp_cond1,3.0.7,59.98732116761736,
pleasant,&&&&&&&,images/symbols/symbol_75.png,condition_files/AMP_rep2.csv,right,control,,,,,,,,,,,,,,0,2,2,1,0,15,15,15,,,,,,,,,,,,,,,,,,,,,748.0634952351684,,,,,,,,,,,,,,AMP_prac,left,0.41700826736632735,1,,,right,0.7171077888924628,,,,,,,,,,,,,,,,,,,,,,,,,1024,2019_May_30_1656,mf_amp_cond1,3.0.7,59.98732116761736,
progress,&&&&&&&&,images/symbols/symbol_21.png,condition_files/AMP_rep2.csv,left,authority.virtue,,,,,,,,,,,,,,0,2,2,1,0,16,16,16,,,,,,,,,,,,,,,,,,,,,749.1470958675491,,,,,,,,,,,,,,AMP_prac,left,0.41700826736632735,1,,,left,0.8657245426438749,,,,,,,,,,,,,,,,,,,,,,,,,1024,2019_May_30_1656,mf_amp_cond1,3.0.7,59.98732116761736,
suicide,&&&&&&&,images/symbols/symbol_42.png,condition_files/AMP_rep2.csv,right,care.vice,,,,,,,,,,,,,,0,2,2,1,0,17,17,17,,,,,,,,,,,,,,,,,,,,,750.564151602448,,,,,,,,,,,,,,AMP_prac,left,0.41700826736632735,1,,,left,1.199461884680204,,,,,,,,,,,,,,,,,,,,,,,,,1024,2019_May_30_1656,mf_amp_cond1,3.0.7,59.98732116761736,
care,&&&&,images/symbols/symbol_71.png,condition_files/AMP_rep2.csv,left,care.virtue,,,,,,,,,,,,,,0,2,2,1,0,18,18,18,,,,,,,,,,,,,,,,,,,,,751.6977843234781,,,,,,,,,,,,,,AMP_prac,left,0.41700826736632735,1,,,left,0.9160395122598857,,,,,,,,,,,,,,,,,,,,,,,,,1024,2019_May_30_1656,mf_amp_cond1,3.0.7,59.98732116761736,
arrests,&&&&&&&,images/symbols/symbol_15.png,condition_files/AMP_rep2.csv,right,authority.vice,,,,,,,,,,,,,,0,2,2,1,0,19,19,19,,,,,,,,,,,,,,,,,,,,,752.214604035602,,,,,,,,,,,,,,AMP_prac,left,0.41700826736632735,1,,,left,0.29923131421674043,,,,,,,,,,,,,,,,,,,,,,,,,1024,2019_May_30_1656,mf_amp_cond1,3.0.7,59.98732116761736,
friends,&&&&&&&,images/symbols/symbol_58.png,condition_files/AMP_rep2.csv,left,loyalty.virtue,,,,,,,,,,,,,,0,2,2,1,0,20,20,20,,,,,,,,,,,,,,,,,,,,,752.7313948823139,,,,,,,,,,,,,,AMP_prac,left,0.41700826736632735,1,,,left,0.29928583779837936,,,,,,,,,,,,,,,,,,,,,,,,,1024,2019_May_30_1656,mf_amp_cond1,3.0.7,59.98732116761736,
phigns,&&&&&&,images/symbols/symbol_24.png,condition_files/AMP_rep2.csv,None,nonword,,,,,,,,,,,,,,0,2,2,1,0,21,21,21,,,,,,,,,,,,,,,,,,,,,753.2481991995592,,,,,,,,,,,,,,AMP_prac,left,0.41700826736632735,1,,,left,0.2836298826150596,,,,,,,,,,,,,,,,,,,,,,,,,1024,2019_May_30_1656,mf_amp_cond1,3.0.7,59.98732116761736,
serial,&&&&&&,images/symbols/symbol_68.png,condition_files/AMP_rep2.csv,right,sanctity.vice,,,,,,,,,,,,,,0,2,2,1,0,22,22,22,,,,,,,,,,,,,,,,,,,,,753.9150487873703,,,,,,,,,,,,,,AMP_prac,left,0.41700826736632735,1,,,left,0.4336777189746499,,,,,,,,,,,,,,,,,,,,,,,,,1024,2019_May_30_1656,mf_amp_cond1,3.0.7,59.98732116761736,
crime,&&&&&,images/symbols/symbol_8.png,condition_files/AMP_rep2.csv,right,fairness.vice,,,,,,,,,,,,,,0,2,2,1,0,23,23,23,,,,,,,,,,,,,,,,,,,,,754.5318781534443,,,,,,,,,,,,,,AMP_prac,left,0.41700826736632735,1,,,left,0.3989943291526288,,,,,,,,,,,,,,,,,,,,,,,,,1024,2019_May_30_1656,mf_amp_cond1,3.0.7,59.98732116761736,
rebels,&&&&&&,images/symbols/symbol_63.png,condition_files/AMP_rep2.csv,right,authority.vice,,,,,,,,,,,,,,0,2,2,1,0,24,24,24,,,,,,,,,,,,,,,,,,,,,755.4654793790542,,,,,,,,,,,,,,AMP_prac,left,0.41700826736632735,1,,,left,0.7162094332743436,,,,,,,,,,,,,,,,,,,,,,,,,1024,2019_May_30_1656,mf_amp_cond1,3.0.7,59.98732116761736,
ban,&&&,images/symbols/symbol_50.png,condition_files/AMP_rep2.csv,right,loyalty.vice,,,,,,,,,,,,,,0,2,2,1,0,25,25,25,,,,,,,,,,,,,,,,,,,,,756.2823553145863,,,,,,,,,,,,,,AMP_prac,left,0.41700826736632735,1,,,right,0.5993629083968699,,,,,,,,,,,,,,,,,,,,,,,,,1024,2019_May_30_1656,mf_amp_cond1,3.0.7,59.98732116761736,
opportunity,&&&&&&&&&&&,images/symbols/symbol_23.png,condition_files/AMP_rep2.csv,left,fairness.virtue,,,,,,,,,,,,,,0,2,2,1,0,26,26,26,,,,,,,,,,,,,,,,,,,,,756.6657850957708,,,,,,,,,,,,,,AMP_prac,left,0.41700826736632735,1,,,left,0.1658263091230765,,,,,,,,,,,,,,,,,,,,,,,,,1024,2019_May_30_1656,mf_amp_cond1,3.0.7,59.98732116761736,
values,&&&&&&,images/symbols/symbol_78.png,condition_files/AMP_rep2.csv,left,sanctity.virtue,,,,,,,,,,,,,,0,2,2,1,0,27,27,27,,,,,,,,,,,,,,,,,,,,,757.1992665621219,,,,,,,,,,,,,,AMP_prac,left,0.41700826736632735,1,,,left,0.3156515611335635,,,,,,,,,,,,,,,,,,,,,,,,,1024,2019_May_30_1656,mf_amp_cond1,3.0.7,59.98732116761736,
celebrated,&&&&&&&&&&,images/symbols/symbol_77.png,condition_files/AMP_rep2.csv,left,authority.virtue,,,,,,,,,,,,,,0,2,2,1,0,28,28,28,,,,,,,,,,,,,,,,,,,,,757.8994492801139,,,,,,,,,,,,,,AMP_prac,left,0.41700826736632735,1,,,left,0.4826719359261915,,,,,,,,,,,,,,,,,,,,,,,,,1024,2019_May_30_1656,mf_amp_cond1,3.0.7,59.98732116761736,
loyalty,&&&&&&&,images/symbols/symbol_65.png,condition_files/AMP_rep2.csv,left,loyalty.virtue,,,,,,,,,,,,,,0,2,2,1,0,29,29,29,,,,,,,,,,,,,,,,,,,,,758.5329965275014,,,,,,,,,,,,,,AMP_prac,left,0.41700826736632735,1,,,left,0.415749094216153,,,,,,,,,,,,,,,,,,,,,,,,,1024,2019_May_30_1656,mf_amp_cond1,3.0.7,59.98732116761736,
unpleasant,&&&&&&&&&,images/symbols/symbol_56.png,condition_files/AMP_rep2.csv,left,control,,,,,,,,,,,,,,0,2,2,1,0,30,30,30,,,,,,,,,,,,,,,,,,,,,759.03309034009,,,,,,,,,,,,,,AMP_prac,left,0.41700826736632735,1,,,left,0.2669572237646207,,,,,,,,,,,,,,,,,,,,,,,,,1024,2019_May_30_1656,mf_amp_cond1,3.0.7,59.98732116761736,
love,&&&&,images/symbols/symbol_69.png,condition_files/AMP_rep2.csv,left,loyalty.virtue,,,,,,,,,,,,,,0,2,2,1,0,31,31,31,,,,,,,,,,,,,,,,,,,,,759.9166780792875,,,,,,,,,,,,,,AMP_prac,left,0.41700826736632735,1,,,left,0.6654124112101272,,,,,,,,,,,,,,,,,,,,,,,,,1024,2019_May_30_1656,mf_amp_cond1,3.0.7,59.98732116761736,
refused,&&&&&&&,images/symbols/symbol_6.png,condition_files/AMP_rep2.csv,right,authority.vice,,,,,,,,,,,,,,0,2,2,1,0,32,32,32,,,,,,,,,,,,,,,,,,,,,760.4001207215479,,,,,,,,,,,,,,AMP_prac,left,0.41700826736632735,1,,,left,0.25028969638515264,,,,,,,,,,,,,,,,,,,,,,,,,1024,2019_May_30_1656,mf_amp_cond1,3.0.7,59.98732116761736,
fraud,&&&&&,images/symbols/symbol_46.png,condition_files/AMP_rep2.csv,right,fairness.vice,,,,,,,,,,,,,,0,2,2,1,0,33,33,33,,,,,,,,,,,,,,,,,,,,,760.9503396336222,,,,,,,,,,,,,,AMP_prac,left,0.41700826736632735,1,,,left,0.33213402912952006,,,,,,,,,,,,,,,,,,,,,,,,,1024,2019_May_30_1656,mf_amp_cond1,3.0.7,59.98732116761736,
freedom,&&&&&&&,images/symbols/symbol_54.png,condition_files/AMP_rep2.csv,left,sanctity.virtue,,,,,,,,,,,,,,0,2,2,1,0,34,34,34,,,,,,,,,,,,,,,,,,,,,761.467093596817,,,,,,,,,,,,,,AMP_prac,left,0.41700826736632735,1,,,right,0.2990225211251527,,,,,,,,,,,,,,,,,,,,,,,,,1024,2019_May_30_1656,mf_amp_cond1,3.0.7,59.98732116761736,
accused,&&&&&&&,images/symbols/symbol_13.png,condition_files/AMP_rep2.csv,right,fairness.vice,,,,,,,,,,,,,,0,2,2,1,0,35,35,35,,,,,,,,,,,,,,,,,,,,,761.9672252550954,,,,,,,,,,,,,,AMP_prac,left,0.41700826736632735,1,,,left,0.28264364786446095,,,,,,,,,,,,,,,,,,,,,,,,,1024,2019_May_30_1656,mf_amp_cond1,3.0.7,59.98732116761736,
strong,&&&&&&,images/symbols/symbol_30.png,condition_files/AMP_rep2.csv,left,loyalty.virtue,,,,,,,,,,,,,,0,2,2,1,0,36,36,36,,,,,,,,,,,,,,,,,,,,,762.5006916472921,,,,,,,,,,,,,,AMP_prac,left,0.41700826736632735,1,,,left,0.316119501600042,,,,,,,,,,,,,,,,,,,,,,,,,1024,2019_May_30_1656,mf_amp_cond1,3.0.7,59.98732116761736,
support,&&&&&&&,images/symbols/symbol_66.png,condition_files/AMP_rep2.csv,left,loyalty.virtue,,,,,,,,,,,,,,0,2,2,1,0,37,37,37,,,,,,,,,,,,,,,,,,,,,763.2175871150102,,,,,,,,,,,,,,AMP_prac,left,0.41700826736632735,1,,,left,0.4994930913671851,,,,,,,,,,,,,,,,,,,,,,,,,1024,2019_May_30_1656,mf_amp_cond1,3.0.7,59.98732116761736,
prison,&&&&&&,images/symbols/symbol_32.png,condition_files/AMP_rep2.csv,right,fairness.vice,,,,,,,,,,,,,,0,2,2,1,0,38,38,38,,,,,,,,,,,,,,,,,,,,,763.7510336221894,,,,,,,,,,,,,,AMP_prac,left,0.41700826736632735,1,,,left,0.315479010110721,,,,,,,,,,,,,,,,,,,,,,,,,1024,2019_May_30_1656,mf_amp_cond1,3.0.7,59.98732116761736,
rheys,&&&&&,images/symbols/symbol_14.png,condition_files/AMP_rep2.csv,None,nonword,,,,,,,,,,,,,,0,2,2,1,0,39,39,39,,,,,,,,,,,,,,,,,,,,,764.5512478034943,,,,,,,,,,,,,,AMP_prac,left,0.41700826736632735,1,,,left,0.5826838350621983,,,,,,,,,,,,,,,,,,,,,,,,,1024,2019_May_30_1656,mf_amp_cond1,3.0.7,59.98732116761736,
integrity,&&&&&&&&&,images/symbols/symbol_82.png,condition_files/AMP_rep2.csv,left,fairness.virtue,,,,,,,,,,,,,,0,2,2,1,0,40,40,40,,,,,,,,,,,,,,,,,,,,,765.1180691352347,,,,,,,,,,,,,,AMP_prac,left,0.41700826736632735,1,,,left,0.34932658611796796,,,,,,,,,,,,,,,,,,,,,,,,,1024,2019_May_30_1656,mf_amp_cond1,3.0.7,59.98732116761736,
fair,&&&&,images/symbols/symbol_81.png,condition_files/AMP_rep2.csv,left,fairness.virtue,,,,,,,,,,,,,,0,2,2,1,0,41,41,41,,,,,,,,,,,,,,,,,,,,,765.651534885983,,,,,,,,,,,,,,AMP_prac,left,0.41700826736632735,1,,,left,0.30031601211521775,,,,,,,,,,,,,,,,,,,,,,,,,1024,2019_May_30_1656,mf_amp_cond1,3.0.7,59.98732116761736,
compassion,&&&&&&&&&&,images/symbols/symbol_38.png,condition_files/AMP_rep2.csv,left,care.virtue,,,,,,,,,,,,,,0,2,2,1,0,42,42,42,,,,,,,,,,,,,,,,,,,,,766.2517162889708,,,,,,,,,,,,,,AMP_prac,left,0.41700826736632735,1,,,right,0.3820939543657005,,,,,,,,,,,,,,,,,,,,,,,,,1024,2019_May_30_1656,mf_amp_cond1,3.0.7,59.98732116761736,
killed,&&&&&&,images/symbols/symbol_19.png,condition_files/AMP_rep2.csv,right,care.vice,,,,,,,,,,,,,,0,2,2,1,0,43,43,43,,,,,,,,,,,,,,,,,,,,,766.7018123306334,,,,,,,,,,,,,,AMP_prac,left,0.41700826736632735,1,,,left,0.23253169830422848,,,,,,,,,,,,,,,,,,,,,,,,,1024,2019_May_30_1656,mf_amp_cond1,3.0.7,59.98732116761736,
conspiracy,&&&&&&&&&&,images/symbols/symbol_62.png,condition_files/AMP_rep2.csv,right,sanctity.vice,,,,,,,,,,,,,,0,2,2,1,0,44,44,44,,,,,,,,,,,,,,,,,,,,,767.4353836645605,,,,,,,,,,,,,,AMP_prac,left,0.41700826736632735,1,,,left,0.500429934123531,,,,,,,,,,,,,,,,,,,,,,,,,1024,2019_May_30_1656,mf_amp_cond1,3.0.7,59.98732116761736,
peaceful,&&&&&&&&,images/symbols/symbol_41.png,condition_files/AMP_rep2.csv,left,authority.virtue,,,,,,,,,,,,,,0,2,2,1,0,45,45,45,,,,,,,,,,,,,,,,,,,,,768.6023408562178,,,,,,,,,,,,,,AMP_prac,left,0.41700826736632735,1,,,left,0.9491737919161096,,,,,,,,,,,,,,,,,,,,,,,,,1024,2019_May_30_1656,mf_amp_cond1,3.0.7,59.98732116761736,
good,&&&&,images/symbols/symbol_1.png,condition_files/AMP_rep2.csv,left,care.virtue,,,,,,,,,,,,,,0,2,2,1,0,46,46,46,,,,,,,,,,,,,,,,,,,,,769.3192379276734,,,,,,,,,,,,,,AMP_prac,left,0.41700826736632735,1,,,left,0.49927692161872983,,,,,,,,,,,,,,,,,,,,,,,,,1024,2019_May_30_1656,mf_amp_cond1,3.0.7,59.98732116761736,
ensure,&&&&&&,images/symbols/symbol_25.png,condition_files/AMP_rep2.csv,left,fairness.virtue,,,,,,,,,,,,,,0,2,2,1,0,47,47,47,,,,,,,,,,,,,,,,,,,,,770.0694213031093,,,,,,,,,,,,,,AMP_prac,left,0.41700826736632735,1,,,left,0.5326597644016147,,,,,,,,,,,,,,,,,,,,,,,,,1024,2019_May_30_1656,mf_amp_cond1,3.0.7,59.98732116761736,
gnoozz,&&&&&&,images/symbols/symbol_10.png,condition_files/AMP_rep2.csv,None,nonword,,,,,,,,,,,,,,0,2,2,1,0,48,48,48,,,,,,,,,,,,,,,,,,,,,770.6862362364773,,,,,,,,,,,,,,AMP_prac,left,0.41700826736632735,1,,,left,0.3993612405611202,,,,,,,,,,,,,,,,,,,,,,,,,1024,2019_May_30_1656,mf_amp_cond1,3.0.7,59.98732116761736,
critics,&&&&&&&,images/symbols/symbol_31.png,condition_files/AMP_rep2.csv,right,loyalty.vice,,,,,,,,,,,,,,0,2,2,1,0,49,49,49,,,,,,,,,,,,,,,,,,,,,771.4697848148644,,,,,,,,,,,,,,AMP_prac,left,0.41700826736632735,1,,,left,0.5503940287744626,,,,,,,,,,,,,,,,,,,,,,,,,1024,2019_May_30_1656,mf_amp_cond1,3.0.7,59.98732116761736,
praise,&&&&&&,images/symbols/symbol_37.png,condition_files/AMP_rep2.csv,left,authority.virtue,,,,,,,,,,,,,,0,2,2,1,0,50,50,50,,,,,,,,,,,,,,,,,,,,,771.9699030026095,,,,,,,,,,,,,,AMP_prac,left,0.41700826736632735,1,,,left,0.2819377282867208,,,,,,,,,,,,,,,,,,,,,,,,,1024,2019_May_30_1656,mf_amp_cond1,3.0.7,59.98732116761736,
knapps,&&&&&&,images/symbols/symbol_27.png,condition_files/AMP_rep2.csv,None,nonword,,,,,,,,,,,,,,0,2,2,1,0,51,51,51,,,,,,,,,,,,,,,,,,,,,772.6366230169078,,,,,,,,,,,,,,AMP_prac,left,0.41700826736632735,1,,,left,0.44906426360830665,,,,,,,,,,,,,,,,,,,,,,,,,1024,2019_May_30_1656,mf_amp_cond1,3.0.7,59.98732116761736,
increase,&&&&&&&&,images/symbols/symbol_44.png,condition_files/AMP_rep2.csv,left,care.virtue,,,,,,,,,,,,,,0,2,2,1,0,52,52,52,,,,,,,,,,,,,,,,,,,,,773.3035880663665,,,,,,,,,,,,,,AMP_prac,left,0.41700826736632735,1,,,left,0.44928620650898665,,,,,,,,,,,,,,,,,,,,,,,,,1024,2019_May_30_1656,mf_amp_cond1,3.0.7,59.98732116761736,
treas,&&&&&,images/symbols/symbol_70.png,condition_files/AMP_rep2.csv,None,nonword,,,,,,,,,,,,,,0,2,2,1,0,53,53,53,,,,,,,,,,,,,,,,,,,,,773.9370945814298,,,,,,,,,,,,,,AMP_prac,left,0.41700826736632735,1,,,right,0.4003330427221954,,,,,,,,,,,,,,,,,,,,,,,,,1024,2019_May_30_1656,mf_amp_cond1,3.0.7,59.98732116761736,
prosecution,&&&&&&&&&&&,images/symbols/symbol_17.png,condition_files/AMP_rep2.csv,right,authority.vice,,,,,,,,,,,,,,0,2,2,1,0,54,54,54,,,,,,,,,,,,,,,,,,,,,774.2538738178555,,,,,,,,,,,,,,AMP_prac,left,0.41700826736632735,1,,,left,0.09870044735725969,,,,,,,,,,,,,,,,,,,,,,,,,1024,2019_May_30_1656,mf_amp_cond1,3.0.7,59.98732116761736,
war,&&&,images/symbols/symbol_64.png,condition_files/AMP_rep2.csv,right,sanctity.vice,,,,,,,,,,,,,,0,2,2,1,0,55,55,55,,,,,,,,,,,,,,,,,,,,,774.73730459332,,,,,,,,,,,,,,AMP_prac,left,0.41700826736632735,1,,,left,0.265790740493685,,,,,,,,,,,,,,,,,,,,,,,,,1024,2019_May_30_1656,mf_amp_cond1,3.0.7,59.98732116761736,
perfect,&&&&&&&,images/symbols/symbol_43.png,condition_files/AMP_rep2.csv,left,sanctity.virtue,,,,,,,,,,,,,,0,2,2,1,0,56,56,56,,,,,,,,,,,,,,,,,,,,,775.2041101773502,,,,,,,,,,,,,,AMP_prac,left,0.41700826736632735,1,,,left,0.24929351918399334,,,,,,,,,,,,,,,,,,,,,,,,,1024,2019_May_30_1656,mf_amp_cond1,3.0.7,59.98732116761736,
army,&&&&,images/symbols/symbol_36.png,condition_files/AMP_rep2.csv,right,loyalty.vice,,,,,,,,,,,,,,0,2,2,1,0,57,57,57,,,,,,,,,,,,,,,,,,,,,775.8709466153523,,,,,,,,,,,,,,AMP_prac,left,0.41700826736632735,1,,,right,0.44930801598820835,,,,,,,,,,,,,,,,,,,,,,,,,1024,2019_May_30_1656,mf_amp_cond1,3.0.7,59.98732116761736,
illegal,&&&&&&&,images/symbols/symbol_52.png,condition_files/AMP_rep2.csv,right,fairness.vice,,,,,,,,,,,,,,0,2,2,1,0,58,58,58,,,,,,,,,,,,,,,,,,,,,776.2710715064313,,,,,,,,,,,,,,AMP_prac,left,0.41700826736632735,1,,,left,0.18301469669677317,,,,,,,,,,,,,,,,,,,,,,,,,1024,2019_May_30_1656,mf_amp_cond1,3.0.7,59.98732116761736,
powerful,&&&&&&&&,images/symbols/symbol_11.png,condition_files/AMP_rep2.csv,left,authority.virtue,,,,,,,,,,,,,,0,2,2,1,0,59,59,59,,,,,,,,,,,,,,,,,,,,,776.8212195378728,,,,,,,,,,,,,,AMP_prac,left,0.41700826736632735,1,,,left,0.3326972252689302,,,,,,,,,,,,,,,,,,,,,,,,,1024,2019_May_30_1656,mf_amp_cond1,3.0.7,59.98732116761736,
slavery,&&&&&&&,images/symbols/symbol_29.png,condition_files/AMP_rep2.csv,right,loyalty.vice,,,,,,,,,,,,,,0,2,2,1,0,60,60,60,,,,,,,,,,,,,,,,,,,,,777.338005252881,,,,,,,,,,,,,,AMP_prac,left,0.41700826736632735,1,,,left,0.2990853835362941,,,,,,,,,,,,,,,,,,,,,,,,,1024,2019_May_30_1656,mf_amp_cond1,3.0.7,59.98732116761736,
snauz,&&&&&,images/symbols/symbol_16.png,condition_files/AMP_rep2.csv,None,nonword,,,,,,,,,,,,,,0,2,2,1,0,61,61,61,,,,,,,,,,,,,,,,,,,,,777.9381693367613,,,,,,,,,,,,,,AMP_prac,left,0.41700826736632735,1,,,right,0.3828941674437374,,,,,,,,,,,,,,,,,,,,,,,,,1024,2019_May_30_1656,mf_amp_cond1,3.0.7,59.98732116761736,
victims,&&&&&&&,images/symbols/symbol_9.png,condition_files/AMP_rep2.csv,right,care.vice,,,,,,,,,,,,,,0,2,2,1,0,62,62,62,,,,,,,,,,,,,,,,,,,,,778.3883173360955,,,,,,,,,,,,,,AMP_prac,left,0.41700826736632735,1,,,left,0.23250026698224247,,,,,,,,,,,,,,,,,,,,,,,,,1024,2019_May_30_1656,mf_amp_cond1,3.0.7,59.98732116761736,
racist,&&&&&&,images/symbols/symbol_4.png,condition_files/AMP_rep2.csv,right,sanctity.vice,,,,,,,,,,,,,,0,2,2,1,0,63,63,63,,,,,,,,,,,,,,,,,,,,,778.7050410867669,,,,,,,,,,,,,,AMP_prac,left,0.41700826736632735,1,,,left,0.09898685629013926,,,,,,,,,,,,,,,,,,,,,,,,,1024,2019_May_30_1656,mf_amp_cond1,3.0.7,59.98732116761736,
death,&&&&&,images/symbols/symbol_7.png,condition_files/AMP_rep2.csv,right,care.vice,,,,,,,,,,,,,,0,2,2,1,0,64,64,64,,,,,,,,,,,,,,,,,,,,,779.1885042556096,,,,,,,,,,,,,,AMP_prac,left,0.41700826736632735,1,,,left,0.26594340649899095,,,,,,,,,,,,,,,,,,,,,,,,,1024,2019_May_30_1656,mf_amp_cond1,3.0.7,59.98732116761736,
respect,&&&&&&&,images/symbols/symbol_67.png,condition_files/AMP_rep2.csv,left,sanctity.virtue,,,,,,,,,,,,,,0,2,2,1,0,65,65,65,,,,,,,,,,,,,,,,,,,,,779.7720178106101,,,,,,,,,,,,,,AMP_prac,left,0.41700826736632735,1,,,left,0.3656150143360719,,,,,,,,,,,,,,,,,,,,,,,,,1024,2019_May_30_1656,mf_amp_cond1,3.0.7,59.98732116761736,
peace,&&&&&,images/symbols/symbol_76.png,condition_files/AMP_rep2.csv,left,care.virtue,,,,,,,,,,,,,,0,2,2,1,0,66,66,66,,,,,,,,,,,,,,,,,,,,,780.2888115439564,,,,,,,,,,,,,,AMP_prac,left,0.41700826736632735,1,,,left,0.2994680105475709,,,,,,,,,,,,,,,,,,,,,,,,,1024,2019_May_30_1656,mf_amp_cond1,3.0.7,59.98732116761736,
energy,&&&&&&,images/symbols/symbol_34.png,condition_files/AMP_rep2.csv,left,sanctity.virtue,,,,,,,,,,,,,,0,2,2,1,0,67,67,67,,,,,,,,,,,,,,,,,,,,,780.9056332124164,,,,,,,,,,,,,,AMP_prac,left,0.41700826736632735,1,,,left,0.3991883689304814,,,,,,,,,,,,,,,,,,,,,,,,,1024,2019_May_30_1656,mf_amp_cond1,3.0.7,59.98732116761736,
promises,&&&&&&&&,images/symbols/symbol_39.png,condition_files/AMP_rep2.csv,left,fairness.virtue,,,,,,,,,,,,,,0,2,2,1,0,68,68,68,,,,,,,,,,,,,,,,,,,,,782.055947893532,,,,,,,,,,,,,,AMP_prac,left,0.41700826736632735,1,,,left,0.9326977384043857,,,,,,,,,,,,,,,,,,,,,,,,,1024,2019_May_30_1656,mf_amp_cond1,3.0.7,59.98732116761736,
improve,&&&&&&&,images/symbols/symbol_40.png,condition_files/AMP_rep2.csv,left,care.virtue,,,,,,,,,,,,,,0,2,2,1,0,69,69,69,,,,,,,,,,,,,,,,,,,,,783.0228764762869,,,,,,,,,,,,,,AMP_prac,left,0.41700826736632735,1,,,left,0.7492830955889076,,,,,,,,,,,,,,,,,,,,,,,,,1024,2019_May_30_1656,mf_amp_cond1,3.0.7,59.98732116761736,
injured,&&&&&&&,images/symbols/symbol_53.png,condition_files/AMP_rep2.csv,right,care.vice,,,,,,,,,,,,,,0,2,2,1,0,70,70,70,,,,,,,,,,,,,,,,,,,,,783.6897215739591,,,,,,,,,,,,,,AMP_prac,left,0.41700826736632735,1,,,left,0.4493978195823729,,,,,,,,,,,,,,,,,,,,,,,,,1024,2019_May_30_1656,mf_amp_cond1,3.0.7,59.98732116761736,
psured,&&&&&&,images/symbols/symbol_72.png,condition_files/AMP_rep2.csv,None,nonword,,,,,,,,,,,,,,0,2,2,1,0,71,71,71,,,,,,,,,,,,,,,,,,,,,784.2231959842611,,,,,,,,,,,,,,AMP_prac,left,0.41700826736632735,1,,,left,0.31583662051707506,,,,,,,,,,,,,,,,,,,,,,,,,1024,2019_May_30_1656,mf_amp_cond1,3.0.7,59.98732116761736,
strength,&&&&&&&&,images/symbols/symbol_35.png,condition_files/AMP_rep2.csv,left,sanctity.virtue,,,,,,,,,,,,,,0,2,2,1,0,72,72,72,,,,,,,,,,,,,,,,,,,,,785.1734490216477,,,,,,,,,,,,,,AMP_prac,left,0.41700826736632735,1,,,left,0.732665280927904,,,,,,,,,,,,,,,,,,,,,,,,,1024,2019_May_30_1656,mf_amp_cond1,3.0.7,59.98732116761736,
riot,&&&&,images/symbols/symbol_26.png,condition_files/AMP_rep2.csv,right,authority.vice,,,,,,,,,,,,,,0,2,2,1,0,73,73,73,,,,,,,,,,,,,,,,,,,,,785.7069234319497,,,,,,,,,,,,,,AMP_prac,left,0.41700826736632735,1,,,left,0.3158176976721734,,,,,,,,,,,,,,,,,,,,,,,,,1024,2019_May_30_1656,mf_amp_cond1,3.0.7,59.98732116761736,
police,&&&&&&,images/symbols/symbol_20.png,condition_files/AMP_rep2.csv,right,authority.vice,,,,,,,,,,,,,,0,2,2,1,0,74,74,74,,,,,,,,,,,,,,,,,,,,,786.1737277331995,,,,,,,,,,,,,,AMP_prac,left,0.41700826736632735,1,,,left,0.24966010986827314,,,,,,,,,,,,,,,,,,,,,,,,,1024,2019_May_30_1656,mf_amp_cond1,3.0.7,59.98732116761736,
ability,&&&&&&&,images/symbols/symbol_55.png,condition_files/AMP_rep2.csv,left,authority.virtue,,,,,,,,,,,,,,0,2,2,1,0,75,75,75,,,,,,,,,,,,,,,,,,,,,786.7572159507545,,,,,,,,,,,,,,AMP_prac,left,0.41700826736632735,1,,,left,0.36564195540267974,,,,,,,,,,,,,,,,,,,,,,,,,1024,2019_May_30_1656,mf_amp_cond1,3.0.7,59.98732116761736,
failure,&&&&&&&,images/symbols/symbol_74.png,condition_files/AMP_rep2.csv,right,loyalty.vice,,,,,,,,,,,,,,0,2,2,1,0,76,76,76,,,,,,,,,,,,,,,,,,,,,787.3074255618267,,,,,,,,,,,,,,AMP_prac,left,0.41700826736632735,1,,,left,0.3170540991704911,,,,,,,,,,,,,,,,,,,,,,,,,1024,2019_May_30_1656,mf_amp_cond1,3.0.7,59.98732116761736,
jipte,&&&&&,images/symbols/symbol_79.png,condition_files/AMP_rep2.csv,None,nonword,,,,,,,,,,,,,,0,2,2,1,0,77,77,77,,,,,,,,,,,,,,,,,,,,,787.8241747140419,,,,,,,,,,,,,,AMP_prac,left,0.41700826736632735,1,,,left,0.29857061721850187,,,,,,,,,,,,,,,,,,,,,,,,,1024,2019_May_30_1656,mf_amp_cond1,3.0.7,59.98732116761736,
scandal,&&&&&&&,images/symbols/symbol_45.png,condition_files/AMP_rep2.csv,right,sanctity.vice,,,,,,,,,,,,,,0,2,2,1,0,78,78,78,,,,,,,,,,,,,,,,,,,,,788.2242688152473,,,,,,,,,,,,,,AMP_prac,left,0.41700826736632735,1,,,left,0.18252077756915241,,,,,,,,,,,,,,,,,,,,,,,,,1024,2019_May_30_1656,mf_amp_cond1,3.0.7,59.98732116761736,
abuse,&&&&&,images/symbols/symbol_5.png,condition_files/AMP_rep2.csv,right,sanctity.vice,,,,,,,,,,,,,,0,2,2,1,0,79,79,79,,,,,,,,,,,,,,,,,,,,,788.6743972502882,,,,,,,,,,,,,,AMP_prac,left,0.41700826736632735,1,,,left,0.2326359343715012,,,,,,,,,,,,,,,,,,,,,,,,,1024,2019_May_30_1656,mf_amp_cond1,3.0.7,59.98732116761736,
attacks,&&&&&&&,images/symbols/symbol_12.png,condition_files/AMP_rep2.csv,right,care.vice,,,,,,,,,,,,,,0,2,2,1,0,80,80,80,,,,,,,,,,,,,,,,,,,,,789.2912352759158,,,,,,,,,,,,,,AMP_prac,left,0.41700826736632735,1,,,right,0.3836767408065498,,,,,,,,,,,,,,,,,,,,,,,,,1024,2019_May_30_1656,mf_amp_cond1,3.0.7,59.98732116761736,
hope,&&&&,images/symbols/symbol_49.png,condition_files/AMP_rep2.csv,left,loyalty.virtue,,,,,,,,,,,,,,0,2,2,1,0,81,81,81,,,,,,,,,,,,,,,,,,,,,789.6913332258118,,,,,,,,,,,,,,AMP_prac,left,0.41700826736632735,1,,,left,0.18245085899252445,,,,,,,,,,,,,,,,,,,,,,,,,1024,2019_May_30_1656,mf_amp_cond1,3.0.7,59.98732116761736,
,,,condition_files/AMP_rep2.csv,,,,,,,,,,,,,,,,0,2,2,1,,,,,,,,,,,,,,,,,,,,,,,,,,,,,,,,,,,,,,,,,,,,,,,right,7.185489103430882,,,,,,,,,,,,,,,,,,,,,,,1024,2019_May_30_1656,mf_amp_cond1,3.0.7,59.98732116761736,
praised,&&&&&&&,images/symbols/symbol_73.png,condition_files/AMP_rep1.csv,left,loyalty.virtue,,,,,,,,,,,,,,0,3,3,0,0,0,0,0,,,,,,,,,,,,,,,,,,,,,797.4102040495491,,,,,,,,,,,,,,AMP_prac,left,0.41700826736632735,1,,,right,0.26696620404254645,,,,,,,,,,,,,,,,,,,,,,,,,1024,2019_May_30_1656,mf_amp_cond1,3.0.7,59.98732116761736,
embrace,&&&&&&&,images/symbols/symbol_51.png,condition_files/AMP_rep1.csv,left,authority.virtue,,,,,,,,,,,,,,0,3,3,0,0,1,1,1,,,,,,,,,,,,,,,,,,,,,798.2936593285995,,,,,,,,,,,,,,AMP_prac,left,0.41700826736632735,1,,,left,0.6658874076092616,,,,,,,,,,,,,,,,,,,,,,,,,1024,2019_May_30_1656,mf_amp_cond1,3.0.7,59.98732116761736,
died,&&&&,images/symbols/symbol_3.png,condition_files/AMP_rep1.csv,right,care.vice,,,,,,,,,,,,,,0,3,3,0,0,2,2,2,,,,,,,,,,,,,,,,,,,,,798.57704994909,,,,,,,,,,,,,,AMP_prac,left,0.41700826736632735,1,,,left,0.05023895751219243,,,,,,,,,,,,,,,,,,,,,,,,,1024,2019_May_30_1656,mf_amp_cond1,3.0.7,59.98732116761736,
betrayal,&&&&&&&&,images/symbols/symbol_18.png,condition_files/AMP_rep1.csv,right,loyalty.vice,,,,,,,,,,,,,,0,3,3,0,0,3,3,3,,,,,,,,,,,,,,,,,,,,,799.3772638096707,,,,,,,,,,,,,,AMP_prac,left,0.41700826736632735,1,,,right,0.5823615045519546,,,,,,,,,,,,,,,,,,,,,,,,,1024,2019_May_30_1656,mf_amp_cond1,3.0.7,59.98732116761736,
credit,&&&&&&,images/symbols/symbol_61.png,condition_files/AMP_rep1.csv,left,fairness.virtue,,,,,,,,,,,,,,0,3,3,0,0,4,4,4,,,,,,,,,,,,,,,,,,,,,799.9107478418155,,,,,,,,,,,,,,AMP_prac,left,0.41700826736632735,1,,,left,0.31594695057719946,,,,,,,,,,,,,,,,,,,,,,,,,1024,2019_May_30_1656,mf_amp_cond1,3.0.7,59.98732116761736,
interests,&&&&&&&&&,images/symbols/symbol_48.png,condition_files/AMP_rep1.csv,left,fairness.virtue,,,,,,,,,,,,,,0,3,3,0,0,5,5,5,,,,,,,,,,,,,,,,,,,,,800.5275723969098,,,,,,,,,,,,,,AMP_prac,left,0.41700826736632735,1,,,left,0.3992361571872607,,,,,,,,,,,,,,,,,,,,,,,,,1024,2019_May_30_1656,mf_amp_cond1,3.0.7,59.98732116761736,
growth,&&&&&&,images/symbols/symbol_59.png,condition_files/AMP_rep1.csv,left,care.virtue,,,,,,,,,,,,,,0,3,3,0,0,6,6,6,,,,,,,,,,,,,,,,,,,,,800.9943622653373,,,,,,,,,,,,,,AMP_prac,left,0.41700826736632735,1,,,left,0.24927010608371347,,,,,,,,,,,,,,,,,,,,,,,,,1024,2019_May_30_1656,mf_amp_cond1,3.0.7,59.98732116761736,
fear,&&&&,images/symbols/symbol_60.png,condition_files/AMP_rep1.csv,right,sanctity.vice,,,,,,,,,,,,,,0,3,3,0,0,7,7,7,,,,,,,,,,,,,,,,,,,,,801.5111729971832,,,,,,,,,,,,,,AMP_prac,left,0.41700826736632735,1,,,left,0.2992691600229591,,,,,,,,,,,,,,,,,,,,,,,,,1024,2019_May_30_1656,mf_amp_cond1,3.0.7,59.98732116761736,
voter,&&&&&,images/symbols/symbol_57.png,condition_files/AMP_rep1.csv,right,fairness.vice,,,,,,,,,,,,,,0,3,3,0,0,8,8,8,,,,,,,,,,,,,,,,,,,,,802.128021927434,,,,,,,,,,,,,,AMP_prac,left,0.41700826736632735,1,,,left,0.39936733443755656,,,,,,,,,,,,,,,,,,,,,,,,,1024,2019_May_30_1656,mf_amp_cond1,3.0.7,59.98732116761736,
clean,&&&&&,images/symbols/symbol_22.png,condition_files/AMP_rep1.csv,left,sanctity.virtue,,,,,,,,,,,,,,0,3,3,0,0,9,9,9,,,,,,,,,,,,,,,,,,,,,802.7781885931036,,,,,,,,,,,,,,AMP_prac,left,0.41700826736632735,1,,,right,0.43266775051597506,,,,,,,,,,,,,,,,,,,,,,,,,1024,2019_May_30_1656,mf_amp_cond1,3.0.7,59.98732116761736,
spreussed,&&&&&&&&&,images/symbols/symbol_2.png,condition_files/AMP_rep1.csv,None,nonword,,,,,,,,,,,,,,0,3,3,0,0,10,10,10,,,,,,,,,,,,,,,,,,,,,803.1449364143191,,,,,,,,,,,,,,AMP_prac,left,0.41700826736632735,1,,,left,0.14933069131802768,,,,,,,,,,,,,,,,,,,,,,,,,1024,2019_May_30_1656,mf_amp_cond1,3.0.7,59.98732116761736,
fighters,&&&&&&&&,images/symbols/symbol_28.png,condition_files/AMP_rep1.csv,right,authority.vice,,,,,,,,,,,,,,0,3,3,0,0,11,11,11,,,,,,,,,,,,,,,,,,,,,803.5950715846848,,,,,,,,,,,,,,AMP_prac,left,0.41700826736632735,1,,,left,0.23256986471824348,,,,,,,,,,,,,,,,,,,,,,,,,1024,2019_May_30_1656,mf_amp_cond1,3.0.7,59.98732116761736,
charges,&&&&&&&,images/symbols/symbol_33.png,condition_files/AMP_rep1.csv,right,fairness.vice,,,,,,,,,,,,,,0,3,3,0,0,12,12,12,,,,,,,,,,,,,,,,,,,,,804.2952552648494,,,,,,,,,,,,,,AMP_prac,left,0.41700826736632735,1,,,left,0.48221137246582657,,,,,,,,,,,,,,,,,,,,,,,,,1024,2019_May_30_1656,mf_amp_cond1,3.0.7,59.98732116761736,
cifte,&&&&&,images/symbols/symbol_80.png,condition_files/AMP_rep1.csv,None,nonword,,,,,,,,,,,,,,0,3,3,0,0,13,13,13,,,,,,,,,,,,,,,,,,,,,804.8787450861419,,,,,,,,,,,,,,AMP_prac,left,0.41700826736632735,1,,,left,0.36637545737903565,,,,,,,,,,,,,,,,,,,,,,,,,1024,2019_May_30_1656,mf_amp_cond1,3.0.7,59.98732116761736,
blamed,&&&&&&,images/symbols/symbol_47.png,condition_files/AMP_rep1.csv,right,loyalty.vice,,,,,,,,,,,,,,0,3,3,0,0,14,14,14,,,,,,,,,,,,,,,,,,,,,805.5122653924627,,,,,,,,,,,,,,AMP_prac,left,0.41700826736632735,1,,,right,0.4159954123897478,,,,,,,,,,,,,,,,,,,,,,,,,1024,2019_May_30_1656,mf_amp_cond1,3.0.7,59.98732116761736,
pleasant,&&&&&&&,images/symbols/symbol_75.png,condition_files/AMP_rep1.csv,right,control,,,,,,,,,,,,,,0,3,3,0,0,15,15,15,,,,,,,,,,,,,,,,,,,,,805.778987202677,,,,,,,,,,,,,,AMP_prac,left,0.41700826736632735,1,,,left,0.04918761516455561,,,,,,,,,,,,,,,,,,,,,,,,,1024,2019_May_30_1656,mf_amp_cond1,3.0.7,59.98732116761736,
progress,&&&&&&&&,images/symbols/symbol_21.png,condition_files/AMP_rep1.csv,left,authority.virtue,,,,,,,,,,,,,,0,3,3,0,0,16,16,16,,,,,,,,,,,,,,,,,,,,,806.1791262057377,,,,,,,,,,,,,,AMP_prac,left,0.41700826736632735,1,,,left,0.18284791870974004,,,,,,,,,,,,,,,,,,,,,,,,,1024,2019_May_30_1656,mf_amp_cond1,3.0.7,59.98732116761736,
suicide,&&&&&&&,images/symbols/symbol_42.png,condition_files/AMP_rep1.csv,right,care.vice,,,,,,,,,,,,,,0,3,3,0,0,17,17,17,,,,,,,,,,,,,,,,,,,,,806.7292447303189,,,,,,,,,,,,,,AMP_prac,left,0.41700826736632735,1,,,left,0.33264430530834943,,,,,,,,,,,,,,,,,,,,,,,,,1024,2019_May_30_1656,mf_amp_cond1,3.0.7,59.98732116761736,
care,&&&&,images/symbols/symbol_71.png,condition_files/AMP_rep1.csv,left,care.virtue,,,,,,,,,,,,,,0,3,3,0,0,18,18,18,,,,,,,,,,,,,,,,,,,,,807.2627213856904,,,,,,,,,,,,,,AMP_prac,left,0.41700826736632735,1,,,left,0.31589082337450236,,,,,,,,,,,,,,,,,,,,,,,,,1024,2019_May_30_1656,mf_amp_cond1,3.0.7,59.98732116761736,
arrests,&&&&&&&,images/symbols/symbol_15.png,condition_files/AMP_rep1.csv,right,authority.vice,,,,,,,,,,,,,,0,3,3,0,0,19,19,19,,,,,,,,,,,,,,,,,,,,,807.8295334164286,,,,,,,,,,,,,,AMP_prac,left,0.41700826736632735,1,,,left,0.34925217751879245,,,,,,,,,,,,,,,,,,,,,,,,,1024,2019_May_30_1656,mf_amp_cond1,3.0.7,59.98732116761736,
friends,&&&&&&&,images/symbols/symbol_58.png,condition_files/AMP_rep1.csv,left,loyalty.virtue,,,,,,,,,,,,,,0,3,3,0,0,20,20,20,,,,,,,,,,,,,,,,,,,,,808.4630453838035,,,,,,,,,,,,,,AMP_prac,left,0.41700826736632735,1,,,left,0.41599028068594635,,,,,,,,,,,,,,,,,,,,,,,,,1024,2019_May_30_1656,mf_amp_cond1,3.0.7,59.98732116761736,
phigns,&&&&&&,images/symbols/symbol_24.png,condition_files/AMP_rep1.csv,None,nonword,,,,,,,,,,,,,,0,3,3,0,0,21,21,21,,,,,,,,,,,,,,,,,,,,,809.1632364407415,,,,,,,,,,,,,,AMP_prac,left,0.41700826736632735,1,,,right,0.46701950882561505,,,,,,,,,,,,,,,,,,,,,,,,,1024,2019_May_30_1656,mf_amp_cond1,3.0.7,59.98732116761736,
serial,&&&&&&,images/symbols/symbol_68.png,condition_files/AMP_rep1.csv,right,sanctity.vice,,,,,,,,,,,,,,0,3,3,0,0,22,22,22,,,,,,,,,,,,,,,,,,,,,809.5466710329056,,,,,,,,,,,,,,AMP_prac,left,0.41700826736632735,1,,,left,0.1502707414329052,,,,,,,,,,,,,,,,,,,,,,,,,1024,2019_May_30_1656,mf_amp_cond1,3.0.7,59.98732116761736,
crime,&&&&&,images/symbols/symbol_8.png,condition_files/AMP_rep1.csv,right,fairness.vice,,,,,,,,,,,,,,0,3,3,0,0,23,23,23,,,,,,,,,,,,,,,,,,,,,809.8300783311715,,,,,,,,,,,,,,AMP_prac,left,0.41700826736632735,1,,,left,0.06541895412374288,,,,,,,,,,,,,,,,,,,,,,,,,1024,2019_May_30_1656,mf_amp_cond1,3.0.7,59.98732116761736,
rebels,&&&&&&,images/symbols/symbol_63.png,condition_files/AMP_rep1.csv,right,authority.vice,,,,,,,,,,,,,,0,3,3,0,0,24,24,24,,,,,,,,,,,,,,,,,,,,,810.3635767960222,,,,,,,,,,,,,,AMP_prac,left,0.41700826736632735,1,,,left,0.3160874288296327,,,,,,,,,,,,,,,,,,,,,,,,,1024,2019_May_30_1656,mf_amp_cond1,3.0.7,59.98732116761736,
ban,&&&,images/symbols/symbol_50.png,condition_files/AMP_rep1.csv,right,loyalty.vice,,,,,,,,,,,,,,0,3,3,0,0,25,25,25,,,,,,,,,,,,,,,,,,,,,810.83034966595,,,,,,,,,,,,,,AMP_prac,left,0.41700826736632735,1,,,left,0.24916875653434545,,,,,,,,,,,,,,,,,,,,,,,,,1024,2019_May_30_1656,mf_amp_cond1,3.0.7,59.98732116761736,
opportunity,&&&&&&&&&&&,images/symbols/symbol_23.png,condition_files/AMP_rep1.csv,left,fairness.virtue,,,,,,,,,,,,,,0,3,3,0,0,26,26,26,,,,,,,,,,,,,,,,,,,,,811.3804960937705,,,,,,,,,,,,,,AMP_prac,left,0.41700826736632735,1,,,left,0.33252050494775176,,,,,,,,,,,,,,,,,,,,,,,,,1024,2019_May_30_1656,mf_amp_cond1,3.0.7,59.98732116761736,
values,&&&&&&,images/symbols/symbol_78.png,condition_files/AMP_rep1.csv,left,sanctity.virtue,,,,,,,,,,,,,,0,3,3,0,0,27,27,27,,,,,,,,,,,,,,,,,,,,,811.9473126146477,,,,,,,,,,,,,,AMP_prac,left,0.41700826736632735,1,,,left,0.3492239535553381,,,,,,,,,,,,,,,,,,,,,,,,,1024,2019_May_30_1656,mf_amp_cond1,3.0.7,59.98732116761736,
celebrated,&&&&&&&&&&,images/symbols/symbol_77.png,condition_files/AMP_rep1.csv,left,authority.virtue,,,,,,,,,,,,,,0,3,3,0,0,28,28,28,,,,,,,,,,,,,,,,,,,,,812.5141349085607,,,,,,,,,,,,,,AMP_prac,left,0.41700826736632735,1,,,left,0.3493448675144464,,,,,,,,,,,,,,,,,,,,,,,,,1024,2019_May_30_1656,mf_amp_cond1,3.0.7,59.98732116761736,
loyalty,&&&&&&&,images/symbols/symbol_65.png,condition_files/AMP_rep1.csv,left,loyalty.virtue,,,,,,,,,,,,,,0,3,3,0,0,29,29,29,,,,,,,,,,,,,,,,,,,,,813.2143189095659,,,,,,,,,,,,,,AMP_prac,left,0.41700826736632735,1,,,left,0.4825965652707964,,,,,,,,,,,,,,,,,,,,,,,,,1024,2019_May_30_1656,mf_amp_cond1,3.0.7,59.98732116761736,
unpleasant,&&&&&&&&&,images/symbols/symbol_56.png,condition_files/AMP_rep1.csv,left,control,,,,,,,,,,,,,,0,3,3,0,0,30,30,30,,,,,,,,,,,,,,,,,,,,,814.0145414298167,,,,,,,,,,,,,,AMP_prac,left,0.41700826736632735,1,,,right,0.5819349379744381,,,,,,,,,,,,,,,,,,,,,,,,,1024,2019_May_30_1656,mf_amp_cond1,3.0.7,59.98732116761736,
love,&&&&,images/symbols/symbol_69.png,condition_files/AMP_rep1.csv,left,loyalty.virtue,,,,,,,,,,,,,,0,3,3,0,0,31,31,31,,,,,,,,,,,,,,,,,,,,,814.4646612051874,,,,,,,,,,,,,,AMP_prac,left,0.41700826736632735,1,,,left,0.23250539868604392,,,,,,,,,,,,,,,,,,,,,,,,,1024,2019_May_30_1656,mf_amp_cond1,3.0.7,59.98732116761736,
refused,&&&&&&&,images/symbols/symbol_6.png,condition_files/AMP_rep1.csv,right,authority.vice,,,,,,,,,,,,,,0,3,3,0,0,32,32,32,,,,,,,,,,,,,,,,,,,,,815.348217513063,,,,,,,,,,,,,,AMP_prac,left,0.41700826736632735,1,,,right,0.6503940608818084,,,,,,,,,,,,,,,,,,,,,,,,,1024,2019_May_30_1656,mf_amp_cond1,3.0.7,59.98732116761736,
fraud,&&&&&,images/symbols/symbol_46.png,condition_files/AMP_rep1.csv,right,fairness.vice,,,,,,,,,,,,,,0,3,3,0,0,33,33,33,,,,,,,,,,,,,,,,,,,,,815.9317291437183,,,,,,,,,,,,,,AMP_prac,left,0.41700826736632735,1,,,left,0.36533534061163664,,,,,,,,,,,,,,,,,,,,,,,,,1024,2019_May_30_1656,mf_amp_cond1,3.0.7,59.98732116761736,
freedom,&&&&&&&,images/symbols/symbol_54.png,condition_files/AMP_rep1.csv,left,sanctity.virtue,,,,,,,,,,,,,,0,3,3,0,0,34,34,34,,,,,,,,,,,,,,,,,,,,,816.9153531570919,,,,,,,,,,,,,,AMP_prac,left,0.41700826736632735,1,,,right,0.7658364442177117,,,,,,,,,,,,,,,,,,,,,,,,,1024,2019_May_30_1656,mf_amp_cond1,3.0.7,59.98732116761736,
accused,&&&&&&&,images/symbols/symbol_13.png,condition_files/AMP_rep1.csv,right,fairness.vice,,,,,,,,,,,,,,0,3,3,0,0,35,35,35,,,,,,,,,,,,,,,,,,,,,817.5321494882228,,,,,,,,,,,,,,AMP_prac,left,0.41700826736632735,1,,,left,0.39928170037455857,,,,,,,,,,,,,,,,,,,,,,,,,1024,2019_May_30_1656,mf_amp_cond1,3.0.7,59.98732116761736,
strong,&&&&&&,images/symbols/symbol_30.png,condition_files/AMP_rep1.csv,left,loyalty.virtue,,,,,,,,,,,,,,0,3,3,0,0,36,36,36,,,,,,,,,,,,,,,,,,,,,818.0489557298133,,,,,,,,,,,,,,AMP_prac,left,0.41700826736632735,1,,,left,0.2993573598796502,,,,,,,,,,,,,,,,,,,,,,,,,1024,2019_May_30_1656,mf_amp_cond1,3.0.7,59.98732116761736,
support,&&&&&&&,images/symbols/symbol_66.png,condition_files/AMP_rep1.csv,left,loyalty.virtue,,,,,,,,,,,,,,0,3,3,0,0,37,37,37,,,,,,,,,,,,,,,,,,,,,818.8158229896799,,,,,,,,,,,,,,AMP_prac,left,0.41700826736632735,1,,,right,0.5486710848053917,,,,,,,,,,,,,,,,,,,,,,,,,1024,2019_May_30_1656,mf_amp_cond1,3.0.7,59.98732116761736,
prison,&&&&&&,images/symbols/symbol_32.png,condition_files/AMP_rep1.csv,right,fairness.vice,,,,,,,,,,,,,,0,3,3,0,0,38,38,38,,,,,,,,,,,,,,,,,,,,,819.232593919267,,,,,,,,,,,,,,AMP_prac,left,0.41700826736632735,1,,,left,0.19854139897506684,,,,,,,,,,,,,,,,,,,,,,,,,1024,2019_May_30_1656,mf_amp_cond1,3.0.7,59.98732116761736,
rheys,&&&&&,images/symbols/symbol_14.png,condition_files/AMP_rep1.csv,None,nonword,,,,,,,,,,,,,,0,3,3,0,0,39,39,39,,,,,,,,,,,,,,,,,,,,,819.6827217128593,,,,,,,,,,,,,,AMP_prac,left,0.41700826736632735,1,,,left,0.23250154999550432,,,,,,,,,,,,,,,,,,,,,,,,,1024,2019_May_30_1656,mf_amp_cond1,3.0.7,59.98732116761736,
integrity,&&&&&&&&&,images/symbols/symbol_82.png,condition_files/AMP_rep1.csv,left,fairness.virtue,,,,,,,,,,,,,,0,3,3,0,0,40,40,40,,,,,,,,,,,,,,,,,,,,,820.1828626722563,,,,,,,,,,,,,,AMP_prac,left,0.41700826736632735,1,,,left,0.2827251125127077,,,,,,,,,,,,,,,,,,,,,,,,,1024,2019_May_30_1656,mf_amp_cond1,3.0.7,59.98732116761736,
fair,&&&&,images/symbols/symbol_81.png,condition_files/AMP_rep1.csv,left,fairness.virtue,,,,,,,,,,,,,,0,3,3,0,0,41,41,41,,,,,,,,,,,,,,,,,,,,,820.5496483391616,,,,,,,,,,,,,,AMP_prac,left,0.41700826736632735,1,,,left,0.13361572253052145,,,,,,,,,,,,,,,,,,,,,,,,,1024,2019_May_30_1656,mf_amp_cond1,3.0.7,59.98732116761736,
compassion,&&&&&&&&&&,images/symbols/symbol_38.png,condition_files/AMP_rep1.csv,left,care.virtue,,,,,,,,,,,,,,0,3,3,0,0,42,42,42,,,,,,,,,,,,,,,,,,,,,821.0664430346806,,,,,,,,,,,,,,AMP_prac,left,0.41700826736632735,1,,,left,0.2985905021196231,,,,,,,,,,,,,,,,,,,,,,,,,1024,2019_May_30_1656,mf_amp_cond1,3.0.7,59.98732116761736,
killed,&&&&&&,images/symbols/symbol_19.png,condition_files/AMP_rep1.csv,right,care.vice,,,,,,,,,,,,,,0,3,3,0,0,43,43,43,,,,,,,,,,,,,,,,,,,,,821.5832268253434,,,,,,,,,,,,,,AMP_prac,left,0.41700826736632735,1,,,left,0.29925248213112354,,,,,,,,,,,,,,,,,,,,,,,,,1024,2019_May_30_1656,mf_amp_cond1,3.0.7,59.98732116761736,
conspiracy,&&&&&&&&&&,images/symbols/symbol_62.png,condition_files/AMP_rep1.csv,right,sanctity.vice,,,,,,,,,,,,,,0,3,3,0,0,44,44,44,,,,,,,,,,,,,,,,,,,,,822.050020863302,,,,,,,,,,,,,,AMP_prac,left,0.41700826736632735,1,,,left,0.23361447174102068,,,,,,,,,,,,,,,,,,,,,,,,,1024,2019_May_30_1656,mf_amp_cond1,3.0.7,59.98732116761736,
peaceful,&&&&&&&&,images/symbols/symbol_41.png,condition_files/AMP_rep1.csv,left,authority.virtue,,,,,,,,,,,,,,0,3,3,0,0,45,45,45,,,,,,,,,,,,,,,,,,,,,822.6835379623808,,,,,,,,,,,,,,AMP_prac,left,0.41700826736632735,1,,,right,0.41580457997042686,,,,,,,,,,,,,,,,,,,,,,,,,1024,2019_May_30_1656,mf_amp_cond1,3.0.7,59.98732116761736,
good,&&&&,images/symbols/symbol_1.png,condition_files/AMP_rep1.csv,left,care.virtue,,,,,,,,,,,,,,0,3,3,0,0,46,46,46,,,,,,,,,,,,,,,,,,,,,823.1003165894654,,,,,,,,,,,,,,AMP_prac,left,0.41700826736632735,1,,,left,0.19908920011948794,,,,,,,,,,,,,,,,,,,,,,,,,1024,2019_May_30_1656,mf_amp_cond1,3.0.7,59.98732116761736,
ensure,&&&&&&,images/symbols/symbol_25.png,condition_files/AMP_rep1.csv,left,fairness.virtue,,,,,,,,,,,,,,0,3,3,0,0,47,47,47,,,,,,,,,,,,,,,,,,,,,823.4837874236982,,,,,,,,,,,,,,AMP_prac,left,0.41700826736632735,1,,,left,0.1658291956409812,,,,,,,,,,,,,,,,,,,,,,,,,1024,2019_May_30_1656,mf_amp_cond1,3.0.7,59.98732116761736,
gnoozz,&&&&&&,images/symbols/symbol_10.png,condition_files/AMP_rep1.csv,None,nonword,,,,,,,,,,,,,,0,3,3,0,0,48,48,48,,,,,,,,,,,,,,,,,,,,,823.8004909685114,,,,,,,,,,,,,,AMP_prac,left,0.41700826736632735,1,,,left,0.09936723823193461,,,,,,,,,,,,,,,,,,,,,,,,,1024,2019_May_30_1656,mf_amp_cond1,3.0.7,59.98732116761736,
critics,&&&&&&&,images/symbols/symbol_31.png,condition_files/AMP_rep1.csv,right,loyalty.vice,,,,,,,,,,,,,,0,3,3,0,0,49,49,49,,,,,,,,,,,,,,,,,,,,,824.2672939868644,,,,,,,,,,,,,,AMP_prac,left,0.41700826736632735,1,,,left,0.25016878254245967,,,,,,,,,,,,,,,,,,,,,,,,,1024,2019_May_30_1656,mf_amp_cond1,3.0.7,59.98732116761736,
praise,&&&&&&,images/symbols/symbol_37.png,condition_files/AMP_rep1.csv,left,authority.virtue,,,,,,,,,,,,,,0,3,3,0,0,50,50,50,,,,,,,,,,,,,,,,,,,,,825.0675043194788,,,,,,,,,,,,,,AMP_prac,left,0.41700826736632735,1,,,left,0.5824631750583649,,,,,,,,,,,,,,,,,,,,,,,,,1024,2019_May_30_1656,mf_amp_cond1,3.0.7,59.98732116761736,
