words,mask,masks,symbols,conditionfile,corr_ans,category,LDT_trials_cond2.thisRepN,LDT_trials_cond2.thisTrialN,LDT_trials_cond2.thisN,LDT_trials_cond2.thisIndex,LDT_pracs_1.thisRepN,LDT_pracs_1.thisTrialN,LDT_pracs_1.thisN,LDT_pracs_1.thisIndex,LDT_trials_1.thisRepN,LDT_trials_1.thisTrialN,LDT_trials_1.thisN,LDT_trials_1.thisIndex,logo_trials.thisRepN,logo_trials.thisTrialN,logo_trials.thisN,logo_trials.thisIndex,AMP_pracs.thisRepN,AMP_pracs.thisTrialN,AMP_pracs.thisN,AMP_pracs.thisIndex,trials_loop.thisRepN,trials_loop.thisTrialN,trials_loop.thisN,trials_loop.thisIndex,AMP_trials.thisRepN,AMP_trials.thisTrialN,AMP_trials.thisN,AMP_trials.thisIndex,memtask_trials.thisRepN,memtask_trials.thisTrialN,memtask_trials.thisN,memtask_trials.thisIndex,LDT_cond1.thisRepN,LDT_cond1.thisTrialN,LDT_cond1.thisN,LDT_cond1.thisIndex,begin_key.keys,begin_key.rt,key_resp_instr.keys,key_resp_instr.rt,exp_time,key_resp_LDT_instr.keys,key_resp_LDT_instr.rt,resp_LDT_prac.keys,resp_LDT_prac.rt,task,keypress,RT,corr,resp_LDT_ready.keys,resp_LDT_ready.rt,resp_LDT_trial.keys,resp_LDT_trial.rt,LDT_rating.response,LDT_rating.rt,resp_sym_rate.keys,resp_sym_rate.rt,sym_resp_1.keys,sym_resp_1.rt,sym_resp_2.keys,sym_resp_2.rt,sym_resp_trial.keys,sym_resp_trial.rt,symbol_index,resp_AMP_ready1.keys,resp_AMP_ready1.rt,resp_AMP.keys,resp_AMP.rt,prime_dur,resp_AMP_ready.keys,resp_AMP_ready.rt,resp_AMP_trials.keys,resp_AMP_trials.rt,rest_key_resp.keys,rest_key_resp.rt,AMP_nonword_rating.response,AMP_nonword_rating.rt,AMP_word_rating.response,AMP_word_rating.rt,AMP_random_rating.response,AMP_random_rating.rt,key_resp_instr_memtask.keys,key_resp_instr_memtask.rt,resp_memtask.keys,resp_memtask.corr,resp_memtask.rt,participant ID,date,expName,psychopyVersion,frameRate,
,,,,,,,,,,,,,,,,,,,,,,,,,,,,,,,,,,,,,,,,,,,right,295.1961163841188,,,,,,,,,,,,,,,,,,,,,,,,,,,,,,,,,,,,,,,,,,,,,,,,,1025,2019_May_31_1249,mf_amp_cond1,3.0.7,59.9862824363924,
,,,,,,,,,,,,,,,,,,,,,,,,,,,,,,,,,,,,,,,,,,,,,right,1.200565505423583,,,,,,,,,,,,,,,,,,,,,,,,,,,,,,,,,,,,,,,,,,,,,,,1025,2019_May_31_1249,mf_amp_cond1,3.0.7,59.9862824363924,
bisebell,&&&&&&&,,,,,,0,0,0,0,0,0,0,1,,,,,,,,,,,,,,,,,,,,,,,,,,,,,,,,,398.5025730303023,right,4.118052136618644,left,1.9507626722333953,LDT_prac,left,1.9507626722333953,0,,,,,,,,,,,,,,,,,,,,,,,,,,,,,,,,,,,,,,1025,2019_May_31_1249,mf_amp_cond1,3.0.7,59.9862824363924,
keyboard,&&&&&&&,,,,,,0,0,0,0,0,1,1,0,,,,,,,,,,,,,,,,,,,,,,,,,,,,,,,,,401.1865321068326,,,left,1.2172288631554693,LDT_prac,left,1.2172288631554693,0,,,,,,,,,,,,,,,,,,,,,,,,,,,,,,,,,,,,,,1025,2019_May_31_1249,mf_amp_cond1,3.0.7,59.9862824363924,
,,,,,,,0,0,0,0,,,,,0,0,0,0,,,,,,,,,,,,,,,,,,,,,,,,,,,,,421.99222879100125,,,,,LDT_prac,left,1.2172288631554693,0,right,2.0341355885611847,right,1.1672330165747553,,,,,,,,,,,,,,,,,,,,,,,,,,,,,,,,,,1025,2019_May_31_1249,mf_amp_cond1,3.0.7,59.9862824363924,
,,,,,,,0,0,0,0,,,,,,,,,,,,,,,,,,,,,,,,,,,,,,,,,,,,,,,,,,,,,,,,,,1,8.254,,,,,,,,,,,,,,,,,,,,,,,,,,,,,,,,1025,2019_May_31_1249,mf_amp_cond1,3.0.7,59.9862824363924,
,,,,,,,,,,,,,,,,,,,,,,,,,,,,,,,,,,,,,,,,,,,,,,,,,,,,,,,,,,,,,,right,1.8007860371144488,,,,,,,,,,,,,,,,,,,,,,,,,,,,,,1025,2019_May_31_1249,mf_amp_cond1,3.0.7,59.9862824363924,
,,,,,,,,,,,,,,,,,,,,,,,,,,,,,,,,,,,,,,,,,,,,,,,504.0974047112977,,,,,,,,,,,,,,,,,left,2.117471941979602,,,,,,,,,,,,,,,,,,,,,,,,,,,,1025,2019_May_31_1249,mf_amp_cond1,3.0.7,59.9862824363924,
,,,,,,,,,,,,,,,,,,,,,,,,,,,,,,,,,,,,,,,,,,,,,,,,,,,,,,,,,,,,,,,,,,right,1.2504558328073472,,,,,,,,,,,,,,,,,,,,,,,,,,1025,2019_May_31_1249,mf_amp_cond1,3.0.7,59.9862824363924,
,,,,,,,,,,,,,,,,,,,,,,,,,,,,,,,,,,,,,,,,,,,,,,,523.5024094595574,,,,,,,,,,,,,,,,,,,,,left,0.9316794311162084,74,right,1.6674034828320146,,,,,,,,,,,,,,,,,,,,,1025,2019_May_31_1249,mf_amp_cond1,3.0.7,59.9862824363924,
keyboard,,&&&&&&&&,images/symbols/symbol_40.png,,,,,,,,,,,,,,,,,,,,0,0,0,2,,,,,,,,,,,,,,,,,,,,,685.0295995501801,,,,,AMP_prac,left,2.1174847710644826,,,,,,,,,,,,,,,,,,,left,2.1174847710644826,3,,,,,,,,,,,,,,,,,,1025,2019_May_31_1249,mf_amp_cond1,3.0.7,59.9862824363924,
car,,&&&,images/symbols/symbol_9.png,,,,,,,,,,,,,,,,,,,,0,1,1,0,,,,,,,,,,,,,,,,,,,,,686.6799817441497,,,,,AMP_prac,right,1.4319756221957505,,,,,,,,,,,,,,,,,,,right,1.4319756221957505,3,,,,,,,,,,,,,,,,,,1025,2019_May_31_1249,mf_amp_cond1,3.0.7,59.9862824363924,
banana,,&&&&&&,images/symbols/symbol_68.png,,,,,,,,,,,,,,,,,,,,0,2,2,1,,,,,,,,,,,,,,,,,,,,,687.6802254965296,,,,,AMP_prac,left,0.7671494993846864,,,,,,,,,,,,,,,,,,,left,0.7671494993846864,3,,,,,,,,,,,,,,,,,,1025,2019_May_31_1249,mf_amp_cond1,3.0.7,59.9862824363924,
scarf,,&&&&&,images/symbols/symbol_54.png,,,,,,,,,,,,,,,,,,,,0,3,3,3,,,,,,,,,,,,,,,,,,,,,688.5304207709851,,,,,AMP_prac,right,0.6170763255795464,,,,,,,,,,,,,,,,,,,right,0.6170763255795464,3,,,,,,,,,,,,,,,,,,1025,2019_May_31_1249,mf_amp_cond1,3.0.7,59.9862824363924,
,,,,,,,,,,,,,,,,,,,,,,,,,,,,,,,,,,,,,,,,,,,,,,,,,,,,,,,,,,,,,,,,,,,,,,,,,,,,right,1.0005478012608364,,,,,,,,,,,,,,,,1025,2019_May_31_1249,mf_amp_cond1,3.0.7,59.9862824363924,
daizz,,&&&&&,images/symbols/symbol_73.png,condition_files/AMP_rep2.csv,None,nonword,,,,,,,,,,,,,,,,,,,,,0,0,0,1,0,0,0,0,,,,,,,,,,,,,710.9699267363176,,,,,AMP_prac,right,0.6170763255795464,,,,,,,,,,,,,,,,,,,,,3,,,right,1.1672249984694645,,,,,,,,,,,,,,1025,2019_May_31_1249,mf_amp_cond1,3.0.7,59.9862824363924,
wreize,,&&&&&&,images/symbols/symbol_60.png,condition_files/AMP_rep2.csv,None,nonword,,,,,,,,,,,,,,,,,,,,,0,0,0,1,0,1,1,1,,,,,,,,,,,,,711.8200145673472,,,,,AMP_prac,right,0.6170763255795464,,,,,,,,,,,,,,,,,,,,,3,,,right,0.6311838120454922,,,,,,,,,,,,,,1025,2019_May_31_1249,mf_amp_cond1,3.0.7,59.9862824363924,
crarft,,&&&&&&,images/symbols/symbol_51.png,condition_files/AMP_rep2.csv,None,nonword,,,,,,,,,,,,,,,,,,,,,0,0,0,1,0,2,2,2,,,,,,,,,,,,,712.5369231849909,,,,,AMP_prac,right,0.6170763255795464,,,,,,,,,,,,,,,,,,,,,3,,,left,0.4996473608771339,,,,,,,,,,,,,,1025,2019_May_31_1249,mf_amp_cond1,3.0.7,59.9862824363924,
rebels,,&&&&&&,images/symbols/symbol_46.png,condition_files/AMP_rep2.csv,right,authority.vice,,,,,,,,,,,,,,,,,,,,,0,0,0,1,0,3,3,3,,,,,,,,,,,,,713.5204686202342,,,,,AMP_prac,right,0.6170763255795464,,,,,,,,,,,,,,,,,,,,,3,,,right,0.7504466922255233,,,,,,,,,,,,,,1025,2019_May_31_1249,mf_amp_cond1,3.0.7,59.9862824363924,
loyalty,,&&&&&&&,images/symbols/symbol_32.png,condition_files/AMP_rep2.csv,left,loyalty.virtue,,,,,,,,,,,,,,,,,,,,,0,0,0,1,0,4,4,4,,,,,,,,,,,,,714.22066865745,,,,,AMP_prac,right,0.6170763255795464,,,,,,,,,,,,,,,,,,,,,3,,,left,0.48131526191718876,,,,,,,,,,,,,,1025,2019_May_31_1249,mf_amp_cond1,3.0.7,59.9862824363924,
injured,,&&&&&&&,images/symbols/symbol_9.png,condition_files/AMP_rep2.csv,right,care.vice,,,,,,,,,,,,,,,,,,,,,0,0,0,1,0,5,5,5,,,,,,,,,,,,,715.1208940963261,,,,,AMP_prac,right,0.6170763255795464,,,,,,,,,,,,,,,,,,,,,3,,,right,0.6824548682197928,,,,,,,,,,,,,,1025,2019_May_31_1249,mf_amp_cond1,3.0.7,59.9862824363924,
attacks,,&&&&&&&,images/symbols/symbol_21.png,condition_files/AMP_rep2.csv,right,care.vice,,,,,,,,,,,,,,,,,,,,,0,0,0,1,0,6,6,6,,,,,,,,,,,,,715.8377979029901,,,,,AMP_prac,right,0.6170763255795464,,,,,,,,,,,,,,,,,,,,,3,,,left,0.49951425939798355,,,,,,,,,,,,,,1025,2019_May_31_1249,mf_amp_cond1,3.0.7,59.9862824363924,
safety,,&&&&&&,images/symbols/symbol_80.png,condition_files/AMP_rep2.csv,left,care.virtue,,,,,,,,,,,,,,,,,,,,,0,0,0,1,0,7,7,7,,,,,,,,,,,,,716.8213661098853,,,,,AMP_prac,right,0.6170763255795464,,,,,,,,,,,,,,,,,,,,,3,,,left,0.7663220243994147,,,,,,,,,,,,,,1025,2019_May_31_1249,mf_amp_cond1,3.0.7,59.9862824363924,
commitment,,&&&&&&&&&&,images/symbols/symbol_65.png,condition_files/AMP_rep2.csv,left,sanctity.virtue,,,,,,,,,,,,,,,,,,,,,0,0,0,1,0,8,8,8,,,,,,,,,,,,,717.5549252561759,,,,,AMP_prac,right,0.6170763255795464,,,,,,,,,,,,,,,,,,,,,3,,,right,0.5004507814301178,,,,,,,,,,,,,,1025,2019_May_31_1249,mf_amp_cond1,3.0.7,59.9862824363924,
strong,,&&&&&&,images/symbols/symbol_70.png,condition_files/AMP_rep2.csv,left,loyalty.virtue,,,,,,,,,,,,,,,,,,,,,0,0,0,1,0,9,9,9,,,,,,,,,,,,,718.4385104294633,,,,,AMP_prac,right,0.6170763255795464,,,,,,,,,,,,,,,,,,,,,3,,,right,0.6649906556122005,,,,,,,,,,,,,,1025,2019_May_31_1249,mf_amp_cond1,3.0.7,59.9862824363924,
bluphte,,&&&&&&&,images/symbols/symbol_64.png,condition_files/AMP_rep2.csv,None,nonword,,,,,,,,,,,,,,,,,,,,,0,0,0,1,0,10,10,10,,,,,,,,,,,,,719.4054072604049,,,,,AMP_prac,right,0.6170763255795464,,,,,,,,,,,,,,,,,,,,,3,,,left,0.7489203537115827,,,,,,,,,,,,,,1025,2019_May_31_1249,mf_amp_cond1,3.0.7,59.9862824363924,
increase,,&&&&&&&&,images/symbols/symbol_6.png,condition_files/AMP_rep2.csv,left,care.virtue,,,,,,,,,,,,,,,,,,,,,0,0,0,1,0,11,11,11,,,,,,,,,,,,,720.3223069617525,,,,,AMP_prac,right,0.6170763255795464,,,,,,,,,,,,,,,,,,,,,3,,,right,0.6837659990414977,,,,,,,,,,,,,,1025,2019_May_31_1249,mf_amp_cond1,3.0.7,59.9862824363924,
wrantse,,&&&&&&&,images/symbols/symbol_26.png,condition_files/AMP_rep2.csv,None,nonword,,,,,,,,,,,,,,,,,,,,,0,0,0,1,0,12,12,12,,,,,,,,,,,,,721.1725234042387,,,,,AMP_prac,right,0.6170763255795464,,,,,,,,,,,,,,,,,,,,,3,,,left,0.6312158846994862,,,,,,,,,,,,,,1025,2019_May_31_1249,mf_amp_cond1,3.0.7,59.9862824363924,
slypped,,&&&&&&&,images/symbols/symbol_79.png,condition_files/AMP_rep2.csv,None,nonword,,,,,,,,,,,,,,,,,,,,,0,0,0,1,0,13,13,13,,,,,,,,,,,,,722.3561734604882,,,,,AMP_prac,right,0.6170763255795464,,,,,,,,,,,,,,,,,,,,,3,,,left,0.965832659509033,,,,,,,,,,,,,,1025,2019_May_31_1249,mf_amp_cond1,3.0.7,59.9862824363924,
safe,,&&&&,images/symbols/symbol_74.png,condition_files/AMP_rep2.csv,left,care.virtue,,,,,,,,,,,,,,,,,,,,,0,0,0,1,0,14,14,14,,,,,,,,,,,,,723.439823805471,,,,,AMP_prac,right,0.6170763255795464,,,,,,,,,,,,,,,,,,,,,3,,,right,0.8504829664016142,,,,,,,,,,,,,,1025,2019_May_31_1249,mf_amp_cond1,3.0.7,59.9862824363924,
penalty,,&&&&&&&,images/symbols/symbol_18.png,condition_files/AMP_rep2.csv,right,authority.vice,,,,,,,,,,,,,,,,,,,,,0,0,0,1,0,15,15,15,,,,,,,,,,,,,724.3733891098527,,,,,AMP_prac,right,0.6170763255795464,,,,,,,,,,,,,,,,,,,,,3,,,right,0.7147202990017831,,,,,,,,,,,,,,1025,2019_May_31_1249,mf_amp_cond1,3.0.7,59.9862824363924,
suicide,,&&&&&&&,images/symbols/symbol_33.png,condition_files/AMP_rep2.csv,right,care.vice,,,,,,,,,,,,,,,,,,,,,0,0,0,1,0,16,16,16,,,,,,,,,,,,,725.4736842104467,,,,,AMP_prac,right,0.6170763255795464,,,,,,,,,,,,,,,,,,,,,3,,,right,0.8827560946810991,,,,,,,,,,,,,,1025,2019_May_31_1249,mf_amp_cond1,3.0.7,59.9862824363924,
terrorist,,&&&&&&&&&,images/symbols/symbol_3.png,condition_files/AMP_rep2.csv,right,loyalty.vice,,,,,,,,,,,,,,,,,,,,,0,0,0,1,0,17,17,17,,,,,,,,,,,,,726.3405867823167,,,,,AMP_prac,right,0.6170763255795464,,,,,,,,,,,,,,,,,,,,,3,,,left,0.6490739496657625,,,,,,,,,,,,,,1025,2019_May_31_1249,mf_amp_cond1,3.0.7,59.9862824363924,
love,,&&&&,images/symbols/symbol_25.png,condition_files/AMP_rep2.csv,left,loyalty.virtue,,,,,,,,,,,,,,,,,,,,,0,0,0,1,0,18,18,18,,,,,,,,,,,,,727.2741639534943,,,,,AMP_prac,right,0.6170763255795464,,,,,,,,,,,,,,,,,,,,,3,,,left,0.7158428425900638,,,,,,,,,,,,,,1025,2019_May_31_1249,mf_amp_cond1,3.0.7,59.9862824363924,
unpleasant,,&&&&&&&&&,images/symbols/symbol_78.png,condition_files/AMP_rep2.csv,left,control,,,,,,,,,,,,,,,,,,,,,0,0,0,1,0,19,19,19,,,,,,,,,,,,,728.6745476709912,,,,,AMP_prac,right,0.6170763255795464,,,,,,,,,,,,,,,,,,,,,3,,,right,1.1825926202582195,,,,,,,,,,,,,,1025,2019_May_31_1249,mf_amp_cond1,3.0.7,59.9862824363924,
ability,,&&&&&&&,images/symbols/symbol_5.png,condition_files/AMP_rep2.csv,left,authority.virtue,,,,,,,,,,,,,,,,,,,,,0,0,0,1,0,20,20,20,,,,,,,,,,,,,729.5748029374518,,,,,AMP_prac,right,0.6170763255795464,,,,,,,,,,,,,,,,,,,,,3,,,right,0.6824484536191449,,,,,,,,,,,,,,1025,2019_May_31_1249,mf_amp_cond1,3.0.7,59.9862824363924,
pleasant,,&&&&&&&,images/symbols/symbol_56.png,condition_files/AMP_rep2.csv,right,control,,,,,,,,,,,,,,,,,,,,,0,0,0,1,0,21,21,21,,,,,,,,,,,,,730.5750646505039,,,,,AMP_prac,right,0.6170763255795464,,,,,,,,,,,,,,,,,,,,,3,,,right,0.7671103706816211,,,,,,,,,,,,,,1025,2019_May_31_1249,mf_amp_cond1,3.0.7,59.9862824363924,
corruption,,&&&&&&&&&&,images/symbols/symbol_16.png,condition_files/AMP_rep2.csv,right,sanctity.vice,,,,,,,,,,,,,,,,,,,,,0,0,0,1,0,22,22,22,,,,,,,,,,,,,731.6253392086364,,,,,AMP_prac,right,0.6170763255795464,,,,,,,,,,,,,,,,,,,,,3,,,right,0.8318846640177071,,,,,,,,,,,,,,1025,2019_May_31_1249,mf_amp_cond1,3.0.7,59.9862824363924,
fraud,,&&&&&,images/symbols/symbol_19.png,condition_files/AMP_rep2.csv,right,fairness.vice,,,,,,,,,,,,,,,,,,,,,0,0,0,1,0,23,23,23,,,,,,,,,,,,,732.4588955005165,,,,,AMP_prac,right,0.6170763255795464,,,,,,,,,,,,,,,,,,,,,3,,,left,0.6156811641994864,,,,,,,,,,,,,,1025,2019_May_31_1249,mf_amp_cond1,3.0.7,59.9862824363924,
chawde,,&&&&&&,images/symbols/symbol_62.png,condition_files/AMP_rep2.csv,None,nonword,,,,,,,,,,,,,,,,,,,,,0,0,0,1,0,24,24,24,,,,,,,,,,,,,733.3591356927063,,,,,AMP_prac,right,0.6170763255795464,,,,,,,,,,,,,,,,,,,,,3,,,left,0.6822265107184649,,,,,,,,,,,,,,1025,2019_May_31_1249,mf_amp_cond1,3.0.7,59.9862824363924,
abuse,,&&&&&,images/symbols/symbol_2.png,condition_files/AMP_rep2.csv,right,sanctity.vice,,,,,,,,,,,,,,,,,,,,,0,0,0,1,0,25,25,25,,,,,,,,,,,,,734.3092674954096,,,,,AMP_prac,right,0.6170763255795464,,,,,,,,,,,,,,,,,,,,,3,,,left,0.7325036346446723,,,,,,,,,,,,,,1025,2019_May_31_1249,mf_amp_cond1,3.0.7,59.9862824363924,
victims,,&&&&&&&,images/symbols/symbol_53.png,condition_files/AMP_rep2.csv,right,care.vice,,,,,,,,,,,,,,,,,,,,,0,0,0,1,0,26,26,26,,,,,,,,,,,,,735.2596552380128,,,,,AMP_prac,right,0.6170763255795464,,,,,,,,,,,,,,,,,,,,,3,,,left,0.7171125997556373,,,,,,,,,,,,,,1025,2019_May_31_1249,mf_amp_cond1,3.0.7,59.9862824363924,
praised,,&&&&&&&,images/symbols/symbol_68.png,condition_files/AMP_rep2.csv,left,loyalty.virtue,,,,,,,,,,,,,,,,,,,,,0,0,0,1,0,27,27,27,,,,,,,,,,,,,736.1099271661369,,,,,AMP_prac,right,0.6170763255795464,,,,,,,,,,,,,,,,,,,,,3,,,left,0.6315119155915454,,,,,,,,,,,,,,1025,2019_May_31_1249,mf_amp_cond1,3.0.7,59.9862824363924,
scourld,,&&&&&&&,images/symbols/symbol_44.png,condition_files/AMP_rep2.csv,None,nonword,,,,,,,,,,,,,,,,,,,,,0,0,0,1,0,28,28,28,,,,,,,,,,,,,736.9434395184508,,,,,AMP_prac,right,0.6170763255795464,,,,,,,,,,,,,,,,,,,,,3,,,right,0.6157937394455075,,,,,,,,,,,,,,1025,2019_May_31_1249,mf_amp_cond1,3.0.7,59.9862824363924,
perfect,,&&&&&&&,images/symbols/symbol_12.png,condition_files/AMP_rep2.csv,left,sanctity.virtue,,,,,,,,,,,,,,,,,,,,,0,0,0,1,0,29,29,29,,,,,,,,,,,,,737.8937364954036,,,,,AMP_prac,right,0.6170763255795464,,,,,,,,,,,,,,,,,,,,,3,,,right,0.7171514077344909,,,,,,,,,,,,,,1025,2019_May_31_1249,mf_amp_cond1,3.0.7,59.9862824363924,
racist,,&&&&&&,images/symbols/symbol_77.png,condition_files/AMP_rep2.csv,right,sanctity.vice,,,,,,,,,,,,,,,,,,,,,0,0,0,1,0,30,30,30,,,,,,,,,,,,,738.9273005488794,,,,,AMP_prac,right,0.6170763255795464,,,,,,,,,,,,,,,,,,,,,3,,,right,0.8153367678169161,,,,,,,,,,,,,,1025,2019_May_31_1249,mf_amp_cond1,3.0.7,59.9862824363924,
promised,,&&&&&&&&,images/symbols/symbol_75.png,condition_files/AMP_rep2.csv,left,loyalty.virtue,,,,,,,,,,,,,,,,,,,,,0,0,0,1,0,31,31,31,,,,,,,,,,,,,739.6775028471602,,,,,AMP_prac,right,0.6170763255795464,,,,,,,,,,,,,,,,,,,,,3,,,left,0.532504211878404,,,,,,,,,,,,,,1025,2019_May_31_1249,mf_amp_cond1,3.0.7,59.9862824363924,
prinse,,&&&&&&,images/symbols/symbol_20.png,condition_files/AMP_rep2.csv,None,nonword,,,,,,,,,,,,,,,,,,,,,0,0,0,1,0,32,32,32,,,,,,,,,,,,,740.744476684602,,,,,AMP_prac,right,0.6170763255795464,,,,,,,,,,,,,,,,,,,,,3,,,right,0.8496769800549373,,,,,,,,,,,,,,1025,2019_May_31_1249,mf_amp_cond1,3.0.7,59.9862824363924,
army,,&&&&,images/symbols/symbol_40.png,condition_files/AMP_rep2.csv,right,loyalty.vice,,,,,,,,,,,,,,,,,,,,,0,0,0,1,0,33,33,33,,,,,,,,,,,,,741.8614175030962,,,,,AMP_prac,right,0.6170763255795464,,,,,,,,,,,,,,,,,,,,,3,,,left,0.8989139872137457,,,,,,,,,,,,,,1025,2019_May_31_1249,mf_amp_cond1,3.0.7,59.9862824363924,
gun,,&&&,images/symbols/symbol_35.png,condition_files/AMP_rep2.csv,right,authority.vice,,,,,,,,,,,,,,,,,,,,,0,0,0,1,0,34,34,34,,,,,,,,,,,,,742.8116820866708,,,,,AMP_prac,right,0.6170763255795464,,,,,,,,,,,,,,,,,,,,,3,,,right,0.7325713079189882,,,,,,,,,,,,,,1025,2019_May_31_1249,mf_amp_cond1,3.0.7,59.9862824363924,
serial,,&&&&&&,images/symbols/symbol_23.png,condition_files/AMP_rep2.csv,right,sanctity.vice,,,,,,,,,,,,,,,,,,,,,0,0,0,1,0,35,35,35,,,,,,,,,,,,,743.6952557137702,,,,,AMP_prac,right,0.6170763255795464,,,,,,,,,,,,,,,,,,,,,3,,,right,0.6657620035111904,,,,,,,,,,,,,,1025,2019_May_31_1249,mf_amp_cond1,3.0.7,59.9862824363924,
lies,,&&&&,images/symbols/symbol_67.png,condition_files/AMP_rep2.csv,right,fairness.vice,,,,,,,,,,,,,,,,,,,,,0,0,0,1,0,36,36,36,,,,,,,,,,,,,744.5955007169396,,,,,AMP_prac,right,0.6170763255795464,,,,,,,,,,,,,,,,,,,,,3,,,left,0.6824859787011519,,,,,,,,,,,,,,1025,2019_May_31_1249,mf_amp_cond1,3.0.7,59.9862824363924,
peace,,&&&&&,images/symbols/symbol_7.png,condition_files/AMP_rep2.csv,left,care.virtue,,,,,,,,,,,,,,,,,,,,,0,0,0,1,0,37,37,37,,,,,,,,,,,,,745.329048958607,,,,,AMP_prac,right,0.6170763255795464,,,,,,,,,,,,,,,,,,,,,3,,,right,0.5159492597449571,,,,,,,,,,,,,,1025,2019_May_31_1249,mf_amp_cond1,3.0.7,59.9862824363924,
ensure,,&&&&&&,images/symbols/symbol_50.png,condition_files/AMP_rep2.csv,left,fairness.virtue,,,,,,,,,,,,,,,,,,,,,0,0,0,1,0,38,38,38,,,,,,,,,,,,,746.2293042249512,,,,,AMP_prac,right,0.6170763255795464,,,,,,,,,,,,,,,,,,,,,3,,,right,0.6825809137662873,,,,,,,,,,,,,,1025,2019_May_31_1249,mf_amp_cond1,3.0.7,59.9862824363924,
illegal,,&&&&&&&,images/symbols/symbol_37.png,condition_files/AMP_rep2.csv,right,fairness.vice,,,,,,,,,,,,,,,,,,,,,0,0,0,1,0,39,39,39,,,,,,,,,,,,,747.0794895569561,,,,,AMP_prac,right,0.6170763255795464,,,,,,,,,,,,,,,,,,,,,3,,,right,0.617070552543737,,,,,,,,,,,,,,1025,2019_May_31_1249,mf_amp_cond1,3.0.7,59.9862824363924,
civilians,,&&&&&&&&&,images/symbols/symbol_43.png,condition_files/AMP_rep2.csv,right,care.vice,,,,,,,,,,,,,,,,,,,,,0,0,0,1,0,40,40,40,,,,,,,,,,,,,748.0464251957601,,,,,AMP_prac,right,0.6170763255795464,,,,,,,,,,,,,,,,,,,,,3,,,left,0.7487064289161935,,,,,,,,,,,,,,1025,2019_May_31_1249,mf_amp_cond1,3.0.7,59.9862824363924,
skypped,,&&&&&&&,images/symbols/symbol_31.png,condition_files/AMP_rep2.csv,None,nonword,,,,,,,,,,,,,,,,,,,,,0,0,0,1,0,41,41,41,,,,,,,,,,,,,749.3634340724675,,,,,AMP_prac,right,0.6170763255795464,,,,,,,,,,,,,,,,,,,,,3,,,left,1.100269763264805,,,,,,,,,,,,,,1025,2019_May_31_1249,mf_amp_cond1,3.0.7,59.9862824363924,
violations,,&&&&&&&&&&,images/symbols/symbol_27.png,condition_files/AMP_rep2.csv,right,sanctity.vice,,,,,,,,,,,,,,,,,,,,,0,0,0,1,0,42,42,42,,,,,,,,,,,,,750.2303424174897,,,,,AMP_prac,right,0.6170763255795464,,,,,,,,,,,,,,,,,,,,,3,,,right,0.649094796855934,,,,,,,,,,,,,,1025,2019_May_31_1249,mf_amp_cond1,3.0.7,59.9862824363924,
respect,,&&&&&&&,images/symbols/symbol_10.png,condition_files/AMP_rep2.csv,left,sanctity.virtue,,,,,,,,,,,,,,,,,,,,,0,0,0,1,0,43,43,43,,,,,,,,,,,,,751.2139510358684,,,,,AMP_prac,right,0.6170763255795464,,,,,,,,,,,,,,,,,,,,,3,,,left,0.7660708953626454,,,,,,,,,,,,,,1025,2019_May_31_1249,mf_amp_cond1,3.0.7,59.9862824363924,
freedom,,&&&&&&&,images/symbols/symbol_76.png,condition_files/AMP_rep2.csv,left,sanctity.virtue,,,,,,,,,,,,,,,,,,,,,0,0,0,1,0,44,44,44,,,,,,,,,,,,,751.9474700913997,,,,,AMP_prac,right,0.6170763255795464,,,,,,,,,,,,,,,,,,,,,3,,,left,0.5162411211058497,,,,,,,,,,,,,,1025,2019_May_31_1249,mf_amp_cond1,3.0.7,59.9862824363924,
terrorists,,&&&&&&&&&&,images/symbols/symbol_29.png,condition_files/AMP_rep2.csv,right,fairness.vice,,,,,,,,,,,,,,,,,,,,,0,0,0,1,0,45,45,45,,,,,,,,,,,,,752.8977705963189,,,,,AMP_prac,right,0.6170763255795464,,,,,,,,,,,,,,,,,,,,,3,,,left,0.7323795134434476,,,,,,,,,,,,,,1025,2019_May_31_1249,mf_amp_cond1,3.0.7,59.9862824363924,
progress,,&&&&&&&&,images/symbols/symbol_30.png,condition_files/AMP_rep2.csv,left,authority.virtue,,,,,,,,,,,,,,,,,,,,,0,0,0,1,0,46,46,46,,,,,,,,,,,,,753.5981358079007,,,,,AMP_prac,right,0.6170763255795464,,,,,,,,,,,,,,,,,,,,,3,,,right,0.48281786660663784,,,,,,,,,,,,,,1025,2019_May_31_1249,mf_amp_cond1,3.0.7,59.9862824363924,
powerful,,&&&&&&&&,images/symbols/symbol_48.png,condition_files/AMP_rep2.csv,left,authority.virtue,,,,,,,,,,,,,,,,,,,,,0,0,0,1,0,47,47,47,,,,,,,,,,,,,754.4314669495216,,,,,AMP_prac,right,0.6170763255795464,,,,,,,,,,,,,,,,,,,,,3,,,right,0.6153469670098275,,,,,,,,,,,,,,1025,2019_May_31_1249,mf_amp_cond1,3.0.7,59.9862824363924,
riot,,&&&&,images/symbols/symbol_49.png,condition_files/AMP_rep2.csv,right,authority.vice,,,,,,,,,,,,,,,,,,,,,0,0,0,1,0,48,48,48,,,,,,,,,,,,,755.3817357025109,,,,,AMP_prac,right,0.6170763255795464,,,,,,,,,,,,,,,,,,,,,3,,,right,0.7171170900110155,,,,,,,,,,,,,,1025,2019_May_31_1249,mf_amp_cond1,3.0.7,59.9862824363924,
integrity,,&&&&&&&&&,images/symbols/symbol_36.png,condition_files/AMP_rep2.csv,left,fairness.virtue,,,,,,,,,,,,,,,,,,,,,0,0,0,1,0,49,49,49,,,,,,,,,,,,,756.1486507506343,,,,,AMP_prac,right,0.6170763255795464,,,,,,,,,,,,,,,,,,,,,3,,,left,0.548671405413188,,,,,,,,,,,,,,1025,2019_May_31_1249,mf_amp_cond1,3.0.7,59.9862824363924,
faith,,&&&&&,images/symbols/symbol_58.png,condition_files/AMP_rep2.csv,left,sanctity.virtue,,,,,,,,,,,,,,,,,,,,,0,0,0,1,0,50,50,50,,,,,,,,,,,,,757.132202279754,,,,,AMP_prac,right,0.6170763255795464,,,,,,,,,,,,,,,,,,,,,3,,,left,0.7504473335575312,,,,,,,,,,,,,,1025,2019_May_31_1249,mf_amp_cond1,3.0.7,59.9862824363924,
fighters,,&&&&&&&&,images/symbols/symbol_59.png,condition_files/AMP_rep2.csv,right,authority.vice,,,,,,,,,,,,,,,,,,,,,0,0,0,1,0,51,51,51,,,,,,,,,,,,,757.932415178162,,,,,AMP_prac,right,0.6170763255795464,,,,,,,,,,,,,,,,,,,,,3,,,right,0.582164257648401,,,,,,,,,,,,,,1025,2019_May_31_1249,mf_amp_cond1,3.0.7,59.9862824363924,
forced,,&&&&&&,images/symbols/symbol_28.png,condition_files/AMP_rep2.csv,right,fairness.vice,,,,,,,,,,,,,,,,,,,,,0,0,0,1,0,52,52,52,,,,,,,,,,,,,758.7326591870515,,,,,AMP_prac,right,0.6170763255795464,,,,,,,,,,,,,,,,,,,,,3,,,left,0.5826196896377951,,,,,,,,,,,,,,1025,2019_May_31_1249,mf_amp_cond1,3.0.7,59.9862824363924,
men,,&&&,images/symbols/symbol_63.png,condition_files/AMP_rep2.csv,right,loyalty.vice,,,,,,,,,,,,,,,,,,,,,0,0,0,1,0,53,53,53,,,,,,,,,,,,,759.5661898207618,,,,,AMP_prac,right,0.6170763255795464,,,,,,,,,,,,,,,,,,,,,3,,,left,0.6160442269174382,,,,,,,,,,,,,,1025,2019_May_31_1249,mf_amp_cond1,3.0.7,59.9862824363924,
opportunity,,&&&&&&&&&&&,images/symbols/symbol_57.png,condition_files/AMP_rep2.csv,left,fairness.virtue,,,,,,,,,,,,,,,,,,,,,0,0,0,1,0,54,54,54,,,,,,,,,,,,,760.383087245049,,,,,AMP_prac,right,0.6170763255795464,,,,,,,,,,,,,,,,,,,,,3,,,left,0.5989822057308629,,,,,,,,,,,,,,1025,2019_May_31_1249,mf_amp_cond1,3.0.7,59.9862824363924,
rejected,,&&&&&&&&,images/symbols/symbol_72.png,condition_files/AMP_rep2.csv,right,authority.vice,,,,,,,,,,,,,,,,,,,,,0,0,0,1,0,55,55,55,,,,,,,,,,,,,761.183288597269,,,,,AMP_prac,right,0.6170763255795464,,,,,,,,,,,,,,,,,,,,,3,,,right,0.5825132083846256,,,,,,,,,,,,,,1025,2019_May_31_1249,mf_amp_cond1,3.0.7,59.9862824363924,
help,,&&&&,images/symbols/symbol_38.png,condition_files/AMP_rep2.csv,left,care.virtue,,,,,,,,,,,,,,,,,,,,,0,0,0,1,0,56,56,56,,,,,,,,,,,,,761.9002296082908,,,,,AMP_prac,right,0.6170763255795464,,,,,,,,,,,,,,,,,,,,,3,,,right,0.4993510093772784,,,,,,,,,,,,,,1025,2019_May_31_1249,mf_amp_cond1,3.0.7,59.9862824363924,
great,,&&&&&,images/symbols/symbol_55.png,condition_files/AMP_rep2.csv,left,loyalty.virtue,,,,,,,,,,,,,,,,,,,,,0,0,0,1,0,57,57,57,,,,,,,,,,,,,762.7003565519117,,,,,AMP_prac,right,0.6170763255795464,,,,,,,,,,,,,,,,,,,,,3,,,right,0.5823429024312645,,,,,,,,,,,,,,1025,2019_May_31_1249,mf_amp_cond1,3.0.7,59.9862824363924,
war,,&&&,images/symbols/symbol_8.png,condition_files/AMP_rep2.csv,right,sanctity.vice,,,,,,,,,,,,,,,,,,,,,0,0,0,1,0,58,58,58,,,,,,,,,,,,,763.500614993507,,,,,AMP_prac,right,0.6170763255795464,,,,,,,,,,,,,,,,,,,,,3,,,left,0.5826742131030187,,,,,,,,,,,,,,1025,2019_May_31_1249,mf_amp_cond1,3.0.7,59.9862824363924,
strength,,&&&&&&&&,images/symbols/symbol_4.png,condition_files/AMP_rep2.csv,left,sanctity.virtue,,,,,,,,,,,,,,,,,,,,,0,0,0,1,0,59,59,59,,,,,,,,,,,,,764.2507797668222,,,,,AMP_prac,right,0.6170763255795464,,,,,,,,,,,,,,,,,,,,,3,,,left,0.5323095308849588,,,,,,,,,,,,,,1025,2019_May_31_1249,mf_amp_cond1,3.0.7,59.9862824363924,
protect,,&&&&&&&,images/symbols/symbol_13.png,condition_files/AMP_rep2.csv,left,fairness.virtue,,,,,,,,,,,,,,,,,,,,,0,0,0,1,0,60,60,60,,,,,,,,,,,,,765.167691335082,,,,,AMP_prac,right,0.6170763255795464,,,,,,,,,,,,,,,,,,,,,3,,,right,0.6992445923388004,,,,,,,,,,,,,,1025,2019_May_31_1249,mf_amp_cond1,3.0.7,59.9862824363924,
refused,,&&&&&&&,images/symbols/symbol_66.png,condition_files/AMP_rep2.csv,right,authority.vice,,,,,,,,,,,,,,,,,,,,,0,0,0,1,0,61,61,61,,,,,,,,,,,,,765.9512444037246,,,,,AMP_prac,right,0.6170763255795464,,,,,,,,,,,,,,,,,,,,,3,,,left,0.5659572939621285,,,,,,,,,,,,,,1025,2019_May_31_1249,mf_amp_cond1,3.0.7,59.9862824363924,
slavery,,&&&&&&&,images/symbols/symbol_1.png,condition_files/AMP_rep2.csv,right,loyalty.vice,,,,,,,,,,,,,,,,,,,,,0,0,0,1,0,62,62,62,,,,,,,,,,,,,766.7347730969777,,,,,AMP_prac,right,0.6170763255795464,,,,,,,,,,,,,,,,,,,,,3,,,right,0.5656747337197885,,,,,,,,,,,,,,1025,2019_May_31_1249,mf_amp_cond1,3.0.7,59.9862824363924,
crime,,&&&&&,images/symbols/symbol_54.png,condition_files/AMP_rep2.csv,right,fairness.vice,,,,,,,,,,,,,,,,,,,,,0,0,0,1,0,63,63,63,,,,,,,,,,,,,768.1518496791832,,,,,AMP_prac,right,0.6170763255795464,,,,,,,,,,,,,,,,,,,,,3,,,left,1.1990818234626204,,,,,,,,,,,,,,1025,2019_May_31_1249,mf_amp_cond1,3.0.7,59.9862824363924,
care,,&&&&,images/symbols/symbol_22.png,condition_files/AMP_rep2.csv,left,care.virtue,,,,,,,,,,,,,,,,,,,,,0,0,0,1,0,64,64,64,,,,,,,,,,,,,769.0020526511362,,,,,AMP_prac,right,0.6170763255795464,,,,,,,,,,,,,,,,,,,,,3,,,left,0.6325250911759213,,,,,,,,,,,,,,1025,2019_May_31_1249,mf_amp_cond1,3.0.7,59.9862824363924,
benefit,,&&&&&&&,images/symbols/symbol_82.png,condition_files/AMP_rep2.csv,left,fairness.virtue,,,,,,,,,,,,,,,,,,,,,0,0,0,1,0,65,65,65,,,,,,,,,,,,,769.8189375669463,,,,,AMP_prac,right,0.6170763255795464,,,,,,,,,,,,,,,,,,,,,3,,,left,0.5994331475812942,,,,,,,,,,,,,,1025,2019_May_31_1249,mf_amp_cond1,3.0.7,59.9862824363924,
charges,,&&&&&&&,images/symbols/symbol_81.png,condition_files/AMP_rep2.csv,right,fairness.vice,,,,,,,,,,,,,,,,,,,,,0,0,0,1,0,66,66,66,,,,,,,,,,,,,770.5691613540985,,,,,AMP_prac,right,0.6170763255795464,,,,,,,,,,,,,,,,,,,,,3,,,left,0.5170730862300843,,,,,,,,,,,,,,1025,2019_May_31_1249,mf_amp_cond1,3.0.7,59.9862824363924,
improve,,&&&&&&&,images/symbols/symbol_47.png,condition_files/AMP_rep2.csv,left,care.virtue,,,,,,,,,,,,,,,,,,,,,0,0,0,1,0,67,67,67,,,,,,,,,,,,,771.4194194909651,,,,,AMP_prac,right,0.6170763255795464,,,,,,,,,,,,,,,,,,,,,3,,,right,0.631965743843466,,,,,,,,,,,,,,1025,2019_May_31_1249,mf_amp_cond1,3.0.7,59.9862824363924,
actively,,&&&&&&&&,images/symbols/symbol_24.png,condition_files/AMP_rep2.csv,left,authority.virtue,,,,,,,,,,,,,,,,,,,,,0,0,0,1,0,68,68,68,,,,,,,,,,,,,772.4198723571608,,,,,AMP_prac,right,0.6170763255795464,,,,,,,,,,,,,,,,,,,,,3,,,right,0.7827031426131725,,,,,,,,,,,,,,1025,2019_May_31_1249,mf_amp_cond1,3.0.7,59.9862824363924,
embrace,,&&&&&&&,images/symbols/symbol_39.png,condition_files/AMP_rep2.csv,left,authority.virtue,,,,,,,,,,,,,,,,,,,,,0,0,0,1,0,69,69,69,,,,,,,,,,,,,773.1198206238914,,,,,AMP_prac,right,0.6170763255795464,,,,,,,,,,,,,,,,,,,,,3,,,right,0.48217897897120565,,,,,,,,,,,,,,1025,2019_May_31_1249,mf_amp_cond1,3.0.7,59.9862824363924,
hand,,&&&&,images/symbols/symbol_11.png,condition_files/AMP_rep2.csv,left,sanctity.virtue,,,,,,,,,,,,,,,,,,,,,0,0,0,1,0,70,70,70,,,,,,,,,,,,,773.886693336186,,,,,AMP_prac,right,0.6170763255795464,,,,,,,,,,,,,,,,,,,,,3,,,right,0.5491447981912643,,,,,,,,,,,,,,1025,2019_May_31_1249,mf_amp_cond1,3.0.7,59.9862824363924,
celebrated,,&&&&&&&&&&,images/symbols/symbol_42.png,condition_files/AMP_rep2.csv,left,authority.virtue,,,,,,,,,,,,,,,,,,,,,0,0,0,1,0,71,71,71,,,,,,,,,,,,,774.7869364148937,,,,,AMP_prac,right,0.6170763255795464,,,,,,,,,,,,,,,,,,,,,3,,,left,0.682488544494845,,,,,,,,,,,,,,1025,2019_May_31_1249,mf_amp_cond1,3.0.7,59.9862824363924,
died,,&&&&,images/symbols/symbol_41.png,condition_files/AMP_rep2.csv,right,care.vice,,,,,,,,,,,,,,,,,,,,,0,0,0,1,0,72,72,72,,,,,,,,,,,,,775.6538521365728,,,,,AMP_prac,right,0.6170763255795464,,,,,,,,,,,,,,,,,,,,,3,,,right,0.6496012244606391,,,,,,,,,,,,,,1025,2019_May_31_1249,mf_amp_cond1,3.0.7,59.9862824363924,
critics,,&&&&&&&,images/symbols/symbol_15.png,condition_files/AMP_rep2.csv,right,loyalty.vice,,,,,,,,,,,,,,,,,,,,,0,0,0,1,0,73,73,73,,,,,,,,,,,,,776.4540563754272,,,,,AMP_prac,right,0.6170763255795464,,,,,,,,,,,,,,,,,,,,,3,,,left,0.5823695226572454,,,,,,,,,,,,,,1025,2019_May_31_1249,mf_amp_cond1,3.0.7,59.9862824363924,
black,,&&&&&,images/symbols/symbol_34.png,condition_files/AMP_rep2.csv,right,loyalty.vice,,,,,,,,,,,,,,,,,,,,,0,0,0,1,0,74,74,74,,,,,,,,,,,,,777.2876033661887,,,,,AMP_prac,right,0.6170763255795464,,,,,,,,,,,,,,,,,,,,,3,,,right,0.6149483036715537,,,,,,,,,,,,,,1025,2019_May_31_1249,mf_amp_cond1,3.0.7,59.9862824363924,
betrayal,,&&&&&&&&,images/symbols/symbol_45.png,condition_files/AMP_rep2.csv,right,loyalty.vice,,,,,,,,,,,,,,,,,,,,,0,0,0,1,0,75,75,75,,,,,,,,,,,,,778.2211904799333,,,,,AMP_prac,right,0.6170763255795464,,,,,,,,,,,,,,,,,,,,,3,,,left,0.7157373235095292,,,,,,,,,,,,,,1025,2019_May_31_1249,mf_amp_cond1,3.0.7,59.9862824363924,
scandal,,&&&&&&&,images/symbols/symbol_61.png,condition_files/AMP_rep2.csv,right,sanctity.vice,,,,,,,,,,,,,,,,,,,,,0,0,0,1,0,76,76,76,,,,,,,,,,,,,779.0047377754236,,,,,AMP_prac,right,0.6170763255795464,,,,,,,,,,,,,,,,,,,,,3,,,left,0.5503943494986743,,,,,,,,,,,,,,1025,2019_May_31_1249,mf_amp_cond1,3.0.7,59.9862824363924,
death,,&&&&&,images/symbols/symbol_17.png,condition_files/AMP_rep2.csv,right,care.vice,,,,,,,,,,,,,,,,,,,,,0,0,0,1,0,77,77,77,,,,,,,,,,,,,780.0550193894887,,,,,AMP_prac,right,0.6170763255795464,,,,,,,,,,,,,,,,,,,,,3,,,right,0.832037330023013,,,,,,,,,,,,,,1025,2019_May_31_1249,mf_amp_cond1,3.0.7,59.9862824363924,
trust,,&&&&&,images/symbols/symbol_71.png,condition_files/AMP_rep2.csv,left,authority.virtue,,,,,,,,,,,,,,,,,,,,,0,0,0,1,0,78,78,78,,,,,,,,,,,,,781.1219787941081,,,,,AMP_prac,right,0.6170763255795464,,,,,,,,,,,,,,,,,,,,,3,,,left,0.8491952484473586,,,,,,,,,,,,,,1025,2019_May_31_1249,mf_amp_cond1,3.0.7,59.9862824363924,
sharing,,&&&&&&&,images/symbols/symbol_14.png,condition_files/AMP_rep2.csv,left,loyalty.virtue,,,,,,,,,,,,,,,,,,,,,0,0,0,1,0,79,79,79,,,,,,,,,,,,,782.2222710083006,,,,,AMP_prac,right,0.6170763255795464,,,,,,,,,,,,,,,,,,,,,3,,,left,0.8823298488277942,,,,,,,,,,,,,,1025,2019_May_31_1249,mf_amp_cond1,3.0.7,59.9862824363924,
fair,,&&&&,images/symbols/symbol_52.png,condition_files/AMP_rep2.csv,left,fairness.virtue,,,,,,,,,,,,,,,,,,,,,0,0,0,1,0,80,80,80,,,,,,,,,,,,,783.3058889599051,,,,,AMP_prac,right,0.6170763255795464,,,,,,,,,,,,,,,,,,,,,3,,,left,0.8662229519104585,,,,,,,,,,,,,,1025,2019_May_31_1249,mf_amp_cond1,3.0.7,59.9862824363924,
agreement,,&&&&&&&&&,images/symbols/symbol_69.png,condition_files/AMP_rep2.csv,left,fairness.virtue,,,,,,,,,,,,,,,,,,,,,0,0,0,1,0,81,81,81,,,,,,,,,,,,,784.3728538168361,,,,,AMP_prac,right,0.6170763255795464,,,,,,,,,,,,,,,,,,,,,3,,,left,0.8490477141458541,,,,,,,,,,,,,,1025,2019_May_31_1249,mf_amp_cond1,3.0.7,59.9862824363924,
,,,,condition_files/AMP_rep2.csv,,,,,,,,,,,,,,,,,,,,,,,0,0,0,1,,,,,,,,,,,,,,,,,,,,,,,,,,,,,,,,,,,,,,,,,,,,,,,,,,right,11.286622263141908,,,,,,,,,,,,1025,2019_May_31_1249,mf_amp_cond1,3.0.7,59.9862824363924,
daizz,,&&&&&,images/symbols/symbol_73.png,condition_files/AMP_rep1.csv,None,nonword,,,,,,,,,,,,,,,,,,,,,0,1,1,0,0,0,0,0,,,,,,,,,,,,,796.7263039867394,,,,,AMP_prac,right,0.6170763255795464,,,,,,,,,,,,,,,,,,,,,3,,,right,0.8153447860386223,,,,,,,,,,,,,,1025,2019_May_31_1249,mf_amp_cond1,3.0.7,59.9862824363924,
wreize,,&&&&&&,images/symbols/symbol_60.png,condition_files/AMP_rep1.csv,None,nonword,,,,,,,,,,,,,,,,,,,,,0,1,1,0,0,1,1,1,,,,,,,,,,,,,797.4264052400831,,,,,AMP_prac,right,0.6170763255795464,,,,,,,,,,,,,,,,,,,,,3,,,right,0.4824660293525085,,,,,,,,,,,,,,1025,2019_May_31_1249,mf_amp_cond1,3.0.7,59.9862824363924,
crarft,,&&&&&&,images/symbols/symbol_51.png,condition_files/AMP_rep1.csv,None,nonword,,,,,,,,,,,,,,,,,,,,,0,1,1,0,0,2,2,2,,,,,,,,,,,,,798.1432586926967,,,,,AMP_prac,right,0.6170763255795464,,,,,,,,,,,,,,,,,,,,,3,,,right,0.4995463320519775,,,,,,,,,,,,,,1025,2019_May_31_1249,mf_amp_cond1,3.0.7,59.9862824363924,
rebels,,&&&&&&,images/symbols/symbol_46.png,condition_files/AMP_rep1.csv,right,authority.vice,,,,,,,,,,,,,,,,,,,,,0,1,1,0,0,3,3,3,,,,,,,,,,,,,798.893416089355,,,,,AMP_prac,right,0.6170763255795464,,,,,,,,,,,,,,,,,,,,,3,,,right,0.5170480696251616,,,,,,,,,,,,,,1025,2019_May_31_1249,mf_amp_cond1,3.0.7,59.9862824363924,
loyalty,,&&&&&&&,images/symbols/symbol_32.png,condition_files/AMP_rep1.csv,left,loyalty.virtue,,,,,,,,,,,,,,,,,,,,,0,1,1,0,0,4,4,4,,,,,,,,,,,,,799.6103522893973,,,,,AMP_prac,right,0.6170763255795464,,,,,,,,,,,,,,,,,,,,,3,,,left,0.4985681154066697,,,,,,,,,,,,,,1025,2019_May_31_1249,mf_amp_cond1,3.0.7,59.9862824363924,
injured,,&&&&&&&,images/symbols/symbol_9.png,condition_files/AMP_rep1.csv,right,care.vice,,,,,,,,,,,,,,,,,,,,,0,1,1,0,0,5,5,5,,,,,,,,,,,,,800.6104193213396,,,,,AMP_prac,right,0.6170763255795464,,,,,,,,,,,,,,,,,,,,,3,,,right,0.7823503433028236,,,,,,,,,,,,,,1025,2019_May_31_1249,mf_amp_cond1,3.0.7,59.9862824363924,
attacks,,&&&&&&&,images/symbols/symbol_21.png,condition_files/AMP_rep1.csv,right,care.vice,,,,,,,,,,,,,,,,,,,,,0,1,1,0,0,6,6,6,,,,,,,,,,,,,801.3774414921645,,,,,AMP_prac,right,0.6170763255795464,,,,,,,,,,,,,,,,,,,,,3,,,right,0.5494238304672763,,,,,,,,,,,,,,1025,2019_May_31_1249,mf_amp_cond1,3.0.7,59.9862824363924,
safety,,&&&&&&,images/symbols/symbol_80.png,condition_files/AMP_rep1.csv,left,care.virtue,,,,,,,,,,,,,,,,,,,,,0,1,1,0,0,7,7,7,,,,,,,,,,,,,802.0442744022002,,,,,AMP_prac,right,0.6170763255795464,,,,,,,,,,,,,,,,,,,,,3,,,left,0.44950205576606095,,,,,,,,,,,,,,1025,2019_May_31_1249,mf_amp_cond1,3.0.7,59.9862824363924,
commitment,,&&&&&&&&&&,images/symbols/symbol_65.png,condition_files/AMP_rep1.csv,left,sanctity.virtue,,,,,,,,,,,,,,,,,,,,,0,1,1,0,0,8,8,8,,,,,,,,,,,,,802.9611856497359,,,,,AMP_prac,right,0.6170763255795464,,,,,,,,,,,,,,,,,,,,,3,,,right,0.699162806966342,,,,,,,,,,,,,,1025,2019_May_31_1249,mf_amp_cond1,3.0.7,59.9862824363924,
strong,,&&&&&&,images/symbols/symbol_70.png,condition_files/AMP_rep1.csv,left,loyalty.virtue,,,,,,,,,,,,,,,,,,,,,0,1,1,0,0,9,9,9,,,,,,,,,,,,,803.7447165881749,,,,,AMP_prac,right,0.6170763255795464,,,,,,,,,,,,,,,,,,,,,3,,,left,0.5656333599472418,,,,,,,,,,,,,,1025,2019_May_31_1249,mf_amp_cond1,3.0.7,59.9862824363924,
bluphte,,&&&&&&&,images/symbols/symbol_64.png,condition_files/AMP_rep1.csv,None,nonword,,,,,,,,,,,,,,,,,,,,,0,1,1,0,0,10,10,10,,,,,,,,,,,,,804.5782776909182,,,,,AMP_prac,right,0.6170763255795464,,,,,,,,,,,,,,,,,,,,,3,,,left,0.6157494790386409,,,,,,,,,,,,,,1025,2019_May_31_1249,mf_amp_cond1,3.0.7,59.9862824363924,
increase,,&&&&&&&&,images/symbols/symbol_6.png,condition_files/AMP_rep1.csv,left,care.virtue,,,,,,,,,,,,,,,,,,,,,0,1,1,0,0,11,11,11,,,,,,,,,,,,,805.4118416802958,,,,,AMP_prac,right,0.6170763255795464,,,,,,,,,,,,,,,,,,,,,3,,,right,0.6004097604891285,,,,,,,,,,,,,,1025,2019_May_31_1249,mf_amp_cond1,3.0.7,59.9862824363924,
wrantse,,&&&&&&&,images/symbols/symbol_26.png,condition_files/AMP_rep1.csv,None,nonword,,,,,,,,,,,,,,,,,,,,,0,1,1,0,0,12,12,12,,,,,,,,,,,,,806.2620616507484,,,,,AMP_prac,right,0.6170763255795464,,,,,,,,,,,,,,,,,,,,,3,,,left,0.6315241029951721,,,,,,,,,,,,,,1025,2019_May_31_1249,mf_amp_cond1,3.0.7,59.9862824363924,
slypped,,&&&&&&&,images/symbols/symbol_79.png,condition_files/AMP_rep1.csv,None,nonword,,,,,,,,,,,,,,,,,,,,,0,1,1,0,0,13,13,13,,,,,,,,,,,,,807.0789462458342,,,,,AMP_prac,right,0.6170763255795464,,,,,,,,,,,,,,,,,,,,,3,,,right,0.5990158821223304,,,,,,,,,,,,,,1025,2019_May_31_1249,mf_amp_cond1,3.0.7,59.9862824363924,
safe,,&&&&,images/symbols/symbol_74.png,condition_files/AMP_rep1.csv,left,care.virtue,,,,,,,,,,,,,,,,,,,,,0,1,1,0,0,14,14,14,,,,,,,,,,,,,808.3292882207315,,,,,AMP_prac,right,0.6170763255795464,,,,,,,,,,,,,,,,,,,,,3,,,right,1.0171806900762022,,,,,,,,,,,,,,1025,2019_May_31_1249,mf_amp_cond1,3.0.7,59.9862824363924,
penalty,,&&&&&&&,images/symbols/symbol_18.png,condition_files/AMP_rep1.csv,right,authority.vice,,,,,,,,,,,,,,,,,,,,,0,1,1,0,0,15,15,15,,,,,,,,,,,,,809.6129678159487,,,,,AMP_prac,right,0.6170763255795464,,,,,,,,,,,,,,,,,,,,,3,,,right,1.0653326786123216,,,,,,,,,,,,,,1025,2019_May_31_1249,mf_amp_cond1,3.0.7,59.9862824363924,
suicide,,&&&&&&&,images/symbols/symbol_33.png,condition_files/AMP_rep1.csv,right,care.vice,,,,,,,,,,,,,,,,,,,,,0,1,1,0,0,16,16,16,,,,,,,,,,,,,810.3965250540059,,,,,AMP_prac,right,0.6170763255795464,,,,,,,,,,,,,,,,,,,,,3,,,left,0.5658370214514434,,,,,,,,,,,,,,1025,2019_May_31_1249,mf_amp_cond1,3.0.7,59.9862824363924,
terrorist,,&&&&&&&&&,images/symbols/symbol_3.png,condition_files/AMP_rep1.csv,right,loyalty.vice,,,,,,,,,,,,,,,,,,,,,0,1,1,0,0,17,17,17,,,,,,,,,,,,,811.3301214687526,,,,,AMP_prac,right,0.6170763255795464,,,,,,,,,,,,,,,,,,,,,3,,,left,0.7158482949016616,,,,,,,,,,,,,,1025,2019_May_31_1249,mf_amp_cond1,3.0.7,59.9862824363924,
love,,&&&&,images/symbols/symbol_25.png,condition_files/AMP_rep1.csv,left,loyalty.virtue,,,,,,,,,,,,,,,,,,,,,0,1,1,0,0,18,18,18,,,,,,,,,,,,,812.2470035301521,,,,,AMP_prac,right,0.6170763255795464,,,,,,,,,,,,,,,,,,,,,3,,,left,0.6990531184710562,,,,,,,,,,,,,,1025,2019_May_31_1249,mf_amp_cond1,3.0.7,59.9862824363924,
unpleasant,,&&&&&&&&&,images/symbols/symbol_78.png,condition_files/AMP_rep1.csv,left,control,,,,,,,,,,,,,,,,,,,,,0,1,1,0,0,19,19,19,,,,,,,,,,,,,812.9805886554532,,,,,AMP_prac,right,0.6170763255795464,,,,,,,,,,,,,,,,,,,,,3,,,right,0.5157744636526331,,,,,,,,,,,,,,1025,2019_May_31_1249,mf_amp_cond1,3.0.7,59.9862824363924,
ability,,&&&&&&&,images/symbols/symbol_5.png,condition_files/AMP_rep1.csv,left,authority.virtue,,,,,,,,,,,,,,,,,,,,,0,1,1,0,0,20,20,20,,,,,,,,,,,,,814.0141530296532,,,,,AMP_prac,right,0.6170763255795464,,,,,,,,,,,,,,,,,,,,,3,,,left,0.8157107352744788,,,,,,,,,,,,,,1025,2019_May_31_1249,mf_amp_cond1,3.0.7,59.9862824363924,
pleasant,,&&&&&&&,images/symbols/symbol_56.png,condition_files/AMP_rep1.csv,right,control,,,,,,,,,,,,,,,,,,,,,0,1,1,0,0,21,21,21,,,,,,,,,,,,,814.8977176763583,,,,,AMP_prac,right,0.6170763255795464,,,,,,,,,,,,,,,,,,,,,3,,,right,0.6503927779849619,,,,,,,,,,,,,,1025,2019_May_31_1249,mf_amp_cond1,3.0.7,59.9862824363924,
corruption,,&&&&&&&&&&,images/symbols/symbol_16.png,condition_files/AMP_rep1.csv,right,sanctity.vice,,,,,,,,,,,,,,,,,,,,,0,1,1,0,0,22,22,22,,,,,,,,,,,,,815.7812868134351,,,,,AMP_prac,right,0.6170763255795464,,,,,,,,,,,,,,,,,,,,,3,,,right,0.6653719997266307,,,,,,,,,,,,,,1025,2019_May_31_1249,mf_amp_cond1,3.0.7,59.9862824363924,
fraud,,&&&&&,images/symbols/symbol_19.png,condition_files/AMP_rep1.csv,right,fairness.vice,,,,,,,,,,,,,,,,,,,,,0,1,1,0,0,23,23,23,,,,,,,,,,,,,816.7148723234423,,,,,AMP_prac,right,0.6170763255795464,,,,,,,,,,,,,,,,,,,,,3,,,right,0.7157770936610177,,,,,,,,,,,,,,1025,2019_May_31_1249,mf_amp_cond1,3.0.7,59.9862824363924,
chawde,,&&&&&&,images/symbols/symbol_62.png,condition_files/AMP_rep1.csv,None,nonword,,,,,,,,,,,,,,,,,,,,,0,1,1,0,0,24,24,24,,,,,,,,,,,,,817.4317677912768,,,,,AMP_prac,right,0.6170763255795464,,,,,,,,,,,,,,,,,,,,,3,,,left,0.498840733198449,,,,,,,,,,,,,,1025,2019_May_31_1249,mf_amp_cond1,3.0.7,59.9862824363924,
abuse,,&&&&&,images/symbols/symbol_2.png,condition_files/AMP_rep1.csv,right,sanctity.vice,,,,,,,,,,,,,,,,,,,,,0,1,1,0,0,25,25,25,,,,,,,,,,,,,818.2319489377551,,,,,AMP_prac,right,0.6170763255795464,,,,,,,,,,,,,,,,,,,,,3,,,left,0.5825398286106065,,,,,,,,,,,,,,1025,2019_May_31_1249,mf_amp_cond1,3.0.7,59.9862824363924,
victims,,&&&&&&&,images/symbols/symbol_53.png,condition_files/AMP_rep1.csv,right,care.vice,,,,,,,,,,,,,,,,,,,,,0,1,1,0,0,26,26,26,,,,,,,,,,,,,819.115524809924,,,,,AMP_prac,right,0.6170763255795464,,,,,,,,,,,,,,,,,,,,,3,,,right,0.6504158703610301,,,,,,,,,,,,,,1025,2019_May_31_1249,mf_amp_cond1,3.0.7,59.9862824363924,
praised,,&&&&&&&,images/symbols/symbol_68.png,condition_files/AMP_rep1.csv,left,loyalty.virtue,,,,,,,,,,,,,,,,,,,,,0,1,1,0,0,27,27,27,,,,,,,,,,,,,819.932403631974,,,,,AMP_prac,right,0.6170763255795464,,,,,,,,,,,,,,,,,,,,,3,,,left,0.5983757114736363,,,,,,,,,,,,,,1025,2019_May_31_1249,mf_amp_cond1,3.0.7,59.9862824363924,
scourld,,&&&&&&&,images/symbols/symbol_44.png,condition_files/AMP_rep1.csv,None,nonword,,,,,,,,,,,,,,,,,,,,,0,1,1,0,0,28,28,28,,,,,,,,,,,,,820.6826052889228,,,,,AMP_prac,right,0.6170763255795464,,,,,,,,,,,,,,,,,,,,,3,,,left,0.5323194733355194,,,,,,,,,,,,,,1025,2019_May_31_1249,mf_amp_cond1,3.0.7,59.9862824363924,
perfect,,&&&&&&&,images/symbols/symbol_12.png,condition_files/AMP_rep1.csv,left,sanctity.virtue,,,,,,,,,,,,,,,,,,,,,0,1,1,0,0,29,29,29,,,,,,,,,,,,,821.3494551974582,,,,,AMP_prac,right,0.6170763255795464,,,,,,,,,,,,,,,,,,,,,3,,,right,0.43369600048754364,,,,,,,,,,,,,,1025,2019_May_31_1249,mf_amp_cond1,3.0.7,59.9862824363924,
racist,,&&&&&&,images/symbols/symbol_77.png,condition_files/AMP_rep1.csv,right,sanctity.vice,,,,,,,,,,,,,,,,,,,,,0,1,1,0,0,30,30,30,,,,,,,,,,,,,822.166337547591,,,,,AMP_prac,right,0.6170763255795464,,,,,,,,,,,,,,,,,,,,,3,,,right,0.5984796269331127,,,,,,,,,,,,,,1025,2019_May_31_1249,mf_amp_cond1,3.0.7,59.9862824363924,
promised,,&&&&&&&&,images/symbols/symbol_75.png,condition_files/AMP_rep1.csv,left,loyalty.virtue,,,,,,,,,,,,,,,,,,,,,0,1,1,0,0,31,31,31,,,,,,,,,,,,,823.0332372328267,,,,,AMP_prac,right,0.6170763255795464,,,,,,,,,,,,,,,,,,,,,3,,,left,0.6491002491675317,,,,,,,,,,,,,,1025,2019_May_31_1249,mf_amp_cond1,3.0.7,59.9862824363924,
prinse,,&&&&&&,images/symbols/symbol_20.png,condition_files/AMP_rep1.csv,None,nonword,,,,,,,,,,,,,,,,,,,,,0,1,1,0,0,32,32,32,,,,,,,,,,,,,823.9502020417713,,,,,AMP_prac,right,0.6170763255795464,,,,,,,,,,,,,,,,,,,,,3,,,right,0.6997138155857101,,,,,,,,,,,,,,1025,2019_May_31_1249,mf_amp_cond1,3.0.7,59.9862824363924,
army,,&&&&,images/symbols/symbol_40.png,condition_files/AMP_rep1.csv,right,loyalty.vice,,,,,,,,,,,,,,,,,,,,,0,1,1,0,0,33,33,33,,,,,,,,,,,,,824.6670689649181,,,,,AMP_prac,right,0.6170763255795464,,,,,,,,,,,,,,,,,,,,,3,,,left,0.4986864636885002,,,,,,,,,,,,,,1025,2019_May_31_1249,mf_amp_cond1,3.0.7,59.9862824363924,
gun,,&&&,images/symbols/symbol_35.png,condition_files/AMP_rep1.csv,right,authority.vice,,,,,,,,,,,,,,,,,,,,,0,1,1,0,0,34,34,34,,,,,,,,,,,,,825.5672568787122,,,,,AMP_prac,right,0.6170763255795464,,,,,,,,,,,,,,,,,,,,,3,,,right,0.6818871817085892,,,,,,,,,,,,,,1025,2019_May_31_1249,mf_amp_cond1,3.0.7,59.9862824363924,
serial,,&&&&&&,images/symbols/symbol_23.png,condition_files/AMP_rep1.csv,right,sanctity.vice,,,,,,,,,,,,,,,,,,,,,0,1,1,0,0,35,35,35,,,,,,,,,,,,,826.6842214310309,,,,,AMP_prac,right,0.6170763255795464,,,,,,,,,,,,,,,,,,,,,3,,,right,0.8991410617018119,,,,,,,,,,,,,,1025,2019_May_31_1249,mf_amp_cond1,3.0.7,59.9862824363924,
lies,,&&&&,images/symbols/symbol_67.png,condition_files/AMP_rep1.csv,right,fairness.vice,,,,,,,,,,,,,,,,,,,,,0,1,1,0,0,36,36,36,,,,,,,,,,,,,827.6345042958856,,,,,AMP_prac,right,0.6170763255795464,,,,,,,,,,,,,,,,,,,,,3,,,left,0.7325222367653623,,,,,,,,,,,,,,1025,2019_May_31_1249,mf_amp_cond1,3.0.7,59.9862824363924,
peace,,&&&&&,images/symbols/symbol_7.png,condition_files/AMP_rep1.csv,left,care.virtue,,,,,,,,,,,,,,,,,,,,,0,1,1,0,0,37,37,37,,,,,,,,,,,,,828.51804681262,,,,,AMP_prac,right,0.6170763255795464,,,,,,,,,,,,,,,,,,,,,3,,,left,0.6658880490576848,,,,,,,,,,,,,,1025,2019_May_31_1249,mf_amp_cond1,3.0.7,59.9862824363924,
ensure,,&&&&&&,images/symbols/symbol_50.png,condition_files/AMP_rep1.csv,left,fairness.virtue,,,,,,,,,,,,,,,,,,,,,0,1,1,0,0,38,38,38,,,,,,,,,,,,,829.3516040666727,,,,,AMP_prac,right,0.6170763255795464,,,,,,,,,,,,,,,,,,,,,3,,,right,0.6157982294680551,,,,,,,,,,,,,,1025,2019_May_31_1249,mf_amp_cond1,3.0.7,59.9862824363924,
illegal,,&&&&&&&,images/symbols/symbol_37.png,condition_files/AMP_rep1.csv,right,fairness.vice,,,,,,,,,,,,,,,,,,,,,0,1,1,0,0,39,39,39,,,,,,,,,,,,,830.1518188894261,,,,,AMP_prac,right,0.6170763255795464,,,,,,,,,,,,,,,,,,,,,3,,,right,0.567062197602354,,,,,,,,,,,,,,1025,2019_May_31_1249,mf_amp_cond1,3.0.7,59.9862824363924,
civilians,,&&&&&&&&&,images/symbols/symbol_43.png,condition_files/AMP_rep1.csv,right,care.vice,,,,,,,,,,,,,,,,,,,,,0,1,1,0,0,40,40,40,,,,,,,,,,,,,831.0187169711571,,,,,AMP_prac,right,0.6170763255795464,,,,,,,,,,,,,,,,,,,,,3,,,right,0.6484802843770012,,,,,,,,,,,,,,1025,2019_May_31_1249,mf_amp_cond1,3.0.7,59.9862824363924,
skypped,,&&&&&&&,images/symbols/symbol_31.png,condition_files/AMP_rep1.csv,None,nonword,,,,,,,,,,,,,,,,,,,,,0,1,1,0,0,41,41,41,,,,,,,,,,,,,831.7689247218659,,,,,AMP_prac,right,0.6170763255795464,,,,,,,,,,,,,,,,,,,,,3,,,right,0.5333307248074561,,,,,,,,,,,,,,1025,2019_May_31_1249,mf_amp_cond1,3.0.7,59.9862824363924,
violations,,&&&&&&&&&&,images/symbols/symbol_27.png,condition_files/AMP_rep1.csv,right,sanctity.vice,,,,,,,,,,,,,,,,,,,,,0,1,1,0,0,42,42,42,,,,,,,,,,,,,832.6024816551944,,,,,AMP_prac,right,0.6170763255795464,,,,,,,,,,,,,,,,,,,,,3,,,right,0.6152770485496148,,,,,,,,,,,,,,1025,2019_May_31_1249,mf_amp_cond1,3.0.7,59.9862824363924,
respect,,&&&&&&&,images/symbols/symbol_10.png,condition_files/AMP_rep1.csv,left,sanctity.virtue,,,,,,,,,,,,,,,,,,,,,0,1,1,0,0,43,43,43,,,,,,,,,,,,,833.4360276837833,,,,,AMP_prac,right,0.6170763255795464,,,,,,,,,,,,,,,,,,,,,3,,,left,0.6158992584096268,,,,,,,,,,,,,,1025,2019_May_31_1249,mf_amp_cond1,3.0.7,59.9862824363924,
freedom,,&&&&&&&,images/symbols/symbol_76.png,condition_files/AMP_rep1.csv,left,sanctity.virtue,,,,,,,,,,,,,,,,,,,,,0,1,1,0,0,44,44,44,,,,,,,,,,,,,834.2362518076552,,,,,AMP_prac,right,0.6170763255795464,,,,,,,,,,,,,,,,,,,,,3,,,left,0.5828544616233557,,,,,,,,,,,,,,1025,2019_May_31_1249,mf_amp_cond1,3.0.7,59.9862824363924,
terrorists,,&&&&&&&&&&,images/symbols/symbol_29.png,condition_files/AMP_rep1.csv,right,fairness.vice,,,,,,,,,,,,,,,,,,,,,0,1,1,0,0,45,45,45,,,,,,,,,,,,,834.9530183433089,,,,,AMP_prac,right,0.6170763255795464,,,,,,,,,,,,,,,,,,,,,3,,,right,0.4989728726213798,,,,,,,,,,,,,,1025,2019_May_31_1249,mf_amp_cond1,3.0.7,59.9862824363924,
progress,,&&&&&&&&,images/symbols/symbol_30.png,condition_files/AMP_rep1.csv,left,authority.virtue,,,,,,,,,,,,,,,,,,,,,0,1,1,0,0,46,46,46,,,,,,,,,,,,,835.8200068699662,,,,,AMP_prac,right,0.6170763255795464,,,,,,,,,,,,,,,,,,,,,3,,,right,0.64928466710262,,,,,,,,,,,,,,1025,2019_May_31_1249,mf_amp_cond1,3.0.7,59.9862824363924,
powerful,,&&&&&&&&,images/symbols/symbol_48.png,condition_files/AMP_rep1.csv,left,authority.virtue,,,,,,,,,,,,,,,,,,,,,0,1,1,0,0,47,47,47,,,,,,,,,,,,,836.5702242425177,,,,,AMP_prac,right,0.6170763255795464,,,,,,,,,,,,,,,,,,,,,3,,,right,0.532044610590674,,,,,,,,,,,,,,1025,2019_May_31_1249,mf_amp_cond1,3.0.7,59.9862824363924,
riot,,&&&&,images/symbols/symbol_49.png,condition_files/AMP_rep1.csv,right,authority.vice,,,,,,,,,,,,,,,,,,,,,0,1,1,0,0,48,48,48,,,,,,,,,,,,,837.5871624631109,,,,,AMP_prac,right,0.6170763255795464,,,,,,,,,,,,,,,,,,,,,3,,,left,0.7838058011839166,,,,,,,,,,,,,,1025,2019_May_31_1249,mf_amp_cond1,3.0.7,59.9862824363924,
integrity,,&&&&&&&&&,images/symbols/symbol_36.png,condition_files/AMP_rep1.csv,left,fairness.virtue,,,,,,,,,,,,,,,,,,,,,0,1,1,0,0,49,49,49,,,,,,,,,,,,,838.4040329463314,,,,,AMP_prac,right,0.6170763255795464,,,,,,,,,,,,,,,,,,,,,3,,,right,0.5985309432726353,,,,,,,,,,,,,,1025,2019_May_31_1249,mf_amp_cond1,3.0.7,59.9862824363924,
faith,,&&&&&,images/symbols/symbol_58.png,condition_files/AMP_rep1.csv,left,sanctity.virtue,,,,,,,,,,,,,,,,,,,,,0,1,1,0,0,50,50,50,,,,,,,,,,,,,839.1875808832701,,,,,AMP_prac,right,0.6170763255795464,,,,,,,,,,,,,,,,,,,,,3,,,left,0.5503908215323463,,,,,,,,,,,,,,1025,2019_May_31_1249,mf_amp_cond1,3.0.7,59.9862824363924,
fighters,,&&&&&&&&,images/symbols/symbol_59.png,condition_files/AMP_rep1.csv,right,authority.vice,,,,,,,,,,,,,,,,,,,,,0,1,1,0,0,51,51,51,,,,,,,,,,,,,840.1378675969318,,,,,AMP_prac,right,0.6170763255795464,,,,,,,,,,,,,,,,,,,,,3,,,right,0.7319458908168599,,,,,,,,,,,,,,1025,2019_May_31_1249,mf_amp_cond1,3.0.7,59.9862824363924,
forced,,&&&&&&,images/symbols/symbol_28.png,condition_files/AMP_rep1.csv,right,fairness.vice,,,,,,,,,,,,,,,,,,,,,0,1,1,0,0,52,52,52,,,,,,,,,,,,,840.9880615884904,,,,,AMP_prac,right,0.6170763255795464,,,,,,,,,,,,,,,,,,,,,3,,,left,0.6324933393625543,,,,,,,,,,,,,,1025,2019_May_31_1249,mf_amp_cond1,3.0.7,59.9862824363924,
men,,&&&,images/symbols/symbol_63.png,condition_files/AMP_rep1.csv,right,loyalty.vice,,,,,,,,,,,,,,,,,,,,,0,1,1,0,0,53,53,53,,,,,,,,,,,,,842.0383451269008,,,,,AMP_prac,right,0.6170763255795464,,,,,,,,,,,,,,,,,,,,,3,,,left,0.8324382384307683,,,,,,,,,,,,,,1025,2019_May_31_1249,mf_amp_cond1,3.0.7,59.9862824363924,
opportunity,,&&&&&&&&&&&,images/symbols/symbol_57.png,condition_files/AMP_rep1.csv,left,fairness.virtue,,,,,,,,,,,,,,,,,,,,,0,1,1,0,0,54,54,54,,,,,,,,,,,,,842.8052149526775,,,,,AMP_prac,right,0.6170763255795464,,,,,,,,,,,,,,,,,,,,,3,,,right,0.5489841140806675,,,,,,,,,,,,,,1025,2019_May_31_1249,mf_amp_cond1,3.0.7,59.9862824363924,
rejected,,&&&&&&&&,images/symbols/symbol_72.png,condition_files/AMP_rep1.csv,right,authority.vice,,,,,,,,,,,,,,,,,,,,,0,1,1,0,0,55,55,55,,,,,,,,,,,,,843.7721406489145,,,,,AMP_prac,right,0.6170763255795464,,,,,,,,,,,,,,,,,,,,,3,,,right,0.7490531344665214,,,,,,,,,,,,,,1025,2019_May_31_1249,mf_amp_cond1,3.0.7,59.9862824363924,
help,,&&&&,images/symbols/symbol_38.png,condition_files/AMP_rep1.csv,left,care.virtue,,,,,,,,,,,,,,,,,,,,,0,1,1,0,0,56,56,56,,,,,,,,,,,,,844.6057184294332,,,,,AMP_prac,right,0.6170763255795464,,,,,,,,,,,,,,,,,,,,,3,,,right,0.6157340841600671,,,,,,,,,,,,,,1025,2019_May_31_1249,mf_amp_cond1,3.0.7,59.9862824363924,
great,,&&&&&,images/symbols/symbol_55.png,condition_files/AMP_rep1.csv,left,loyalty.virtue,,,,,,,,,,,,,,,,,,,,,0,1,1,0,0,57,57,57,,,,,,,,,,,,,845.3226023510797,,,,,AMP_prac,right,0.6170763255795464,,,,,,,,,,,,,,,,,,,,,3,,,right,0.49900013441219926,,,,,,,,,,,,,,1025,2019_May_31_1249,mf_amp_cond1,3.0.7,59.9862824363924,
war,,&&&,images/symbols/symbol_8.png,condition_files/AMP_rep1.csv,right,sanctity.vice,,,,,,,,,,,,,,,,,,,,,0,1,1,0,0,58,58,58,,,,,,,,,,,,,846.0561557243345,,,,,AMP_prac,right,0.6170763255795464,,,,,,,,,,,,,,,,,,,,,3,,,right,0.5157959524076432,,,,,,,,,,,,,,1025,2019_May_31_1249,mf_amp_cond1,3.0.7,59.9862824363924,
strength,,&&&&&&&&,images/symbols/symbol_4.png,condition_files/AMP_rep1.csv,left,sanctity.virtue,,,,,,,,,,,,,,,,,,,,,0,1,1,0,0,59,59,59,,,,,,,,,,,,,846.8396350257099,,,,,AMP_prac,right,0.6170763255795464,,,,,,,,,,,,,,,,,,,,,3,,,right,0.5656878834124655,,,,,,,,,,,,,,1025,2019_May_31_1249,mf_amp_cond1,3.0.7,59.9862824363924,
protect,,&&&&&&&,images/symbols/symbol_13.png,condition_files/AMP_rep1.csv,left,fairness.virtue,,,,,,,,,,,,,,,,,,,,,0,1,1,0,0,60,60,60,,,,,,,,,,,,,847.8732808645582,,,,,AMP_prac,right,0.6170763255795464,,,,,,,,,,,,,,,,,,,,,3,,,right,0.8157373555004597,,,,,,,,,,,,,,1025,2019_May_31_1249,mf_amp_cond1,3.0.7,59.9862824363924,
refused,,&&&&&&&,images/symbols/symbol_66.png,condition_files/AMP_rep1.csv,right,authority.vice,,,,,,,,,,,,,,,,,,,,,0,1,1,0,0,61,61,61,,,,,,,,,,,,,848.8068326982902,,,,,AMP_prac,right,0.6170763255795464,,,,,,,,,,,,,,,,,,,,,3,,,right,0.7157876776764169,,,,,,,,,,,,,,1025,2019_May_31_1249,mf_amp_cond1,3.0.7,59.9862824363924,
slavery,,&&&&&&&,images/symbols/symbol_1.png,condition_files/AMP_rep1.csv,right,loyalty.vice,,,,,,,,,,,,,,,,,,,,,0,1,1,0,0,62,62,62,,,,,,,,,,,,,849.4403841150925,,,,,AMP_prac,right,0.6170763255795464,,,,,,,,,,,,,,,,,,,,,3,,,left,0.4154719862854108,,,,,,,,,,,,,,1025,2019_May_31_1249,mf_amp_cond1,3.0.7,59.9862824363924,
crime,,&&&&&,images/symbols/symbol_54.png,condition_files/AMP_rep1.csv,right,fairness.vice,,,,,,,,,,,,,,,,,,,,,0,1,1,0,0,63,63,63,,,,,,,,,,,,,850.373926006374,,,,,AMP_prac,right,0.6170763255795464,,,,,,,,,,,,,,,,,,,,,3,,,left,0.7154076164588332,,,,,,,,,,,,,,1025,2019_May_31_1249,mf_amp_cond1,3.0.7,59.9862824363924,
care,,&&&&,images/symbols/symbol_22.png,condition_files/AMP_rep1.csv,left,care.virtue,,,,,,,,,,,,,,,,,,,,,0,1,1,0,0,64,64,64,,,,,,,,,,,,,851.2241504669655,,,,,AMP_prac,right,0.6170763255795464,,,,,,,,,,,,,,,,,,,,,3,,,right,0.6323127701180056,,,,,,,,,,,,,,1025,2019_May_31_1249,mf_amp_cond1,3.0.7,59.9862824363924,
benefit,,&&&&&&&,images/symbols/symbol_82.png,condition_files/AMP_rep1.csv,left,fairness.virtue,,,,,,,,,,,,,,,,,,,,,0,1,1,0,0,65,65,65,,,,,,,,,,,,,851.9243351094192,,,,,AMP_prac,right,0.6170763255795464,,,,,,,,,,,,,,,,,,,,,3,,,left,0.4825205529341474,,,,,,,,,,,,,,1025,2019_May_31_1249,mf_amp_cond1,3.0.7,59.9862824363924,
charges,,&&&&&&&,images/symbols/symbol_81.png,condition_files/AMP_rep1.csv,right,fairness.vice,,,,,,,,,,,,,,,,,,,,,0,1,1,0,0,66,66,66,,,,,,,,,,,,,853.1746806122828,,,,,AMP_prac,right,0.6170763255795464,,,,,,,,,,,,,,,,,,,,,3,,,left,1.0171935190446675,,,,,,,,,,,,,,1025,2019_May_31_1249,mf_amp_cond1,3.0.7,59.9862824363924,
improve,,&&&&&&&,images/symbols/symbol_47.png,condition_files/AMP_rep1.csv,left,care.virtue,,,,,,,,,,,,,,,,,,,,,0,1,1,0,0,67,67,67,,,,,,,,,,,,,854.0249384284252,,,,,AMP_prac,right,0.6170763255795464,,,,,,,,,,,,,,,,,,,,,3,,,right,0.6318396981805563,,,,,,,,,,,,,,1025,2019_May_31_1249,mf_amp_cond1,3.0.7,59.9862824363924,
actively,,&&&&&&&&,images/symbols/symbol_24.png,condition_files/AMP_rep1.csv,left,authority.virtue,,,,,,,,,,,,,,,,,,,,,0,1,1,0,0,68,68,68,,,,,,,,,,,,,854.7918291013921,,,,,AMP_prac,right,0.6170763255795464,,,,,,,,,,,,,,,,,,,,,3,,,right,0.5491261959541589,,,,,,,,,,,,,,1025,2019_May_31_1249,mf_amp_cond1,3.0.7,59.9862824363924,
embrace,,&&&&&&&,images/symbols/symbol_39.png,condition_files/AMP_rep1.csv,left,authority.virtue,,,,,,,,,,,,,,,,,,,,,0,1,1,0,0,69,69,69,,,,,,,,,,,,,855.5419762347592,,,,,AMP_prac,right,0.6170763255795464,,,,,,,,,,,,,,,,,,,,,3,,,right,0.5322675156639889,,,,,,,,,,,,,,1025,2019_May_31_1249,mf_amp_cond1,3.0.7,59.9862824363924,
hand,,&&&&,images/symbols/symbol_11.png,condition_files/AMP_rep1.csv,left,sanctity.virtue,,,,,,,,,,,,,,,,,,,,,0,1,1,0,0,70,70,70,,,,,,,,,,,,,856.2255007266067,,,,,AMP_prac,right,0.6170763255795464,,,,,,,,,,,,,,,,,,,,,3,,,right,0.46590049320366234,,,,,,,,,,,,,,1025,2019_May_31_1249,mf_amp_cond1,3.0.7,59.9862824363924,
celebrated,,&&&&&&&&&&,images/symbols/symbol_42.png,condition_files/AMP_rep1.csv,left,authority.virtue,,,,,,,,,,,,,,,,,,,,,0,1,1,0,0,71,71,71,,,,,,,,,,,,,857.1090663356008,,,,,AMP_prac,right,0.6170763255795464,,,,,,,,,,,,,,,,,,,,,3,,,left,0.6656471831956878,,,,,,,,,,,,,,1025,2019_May_31_1249,mf_amp_cond1,3.0.7,59.9862824363924,
died,,&&&&,images/symbols/symbol_41.png,condition_files/AMP_rep1.csv,right,care.vice,,,,,,,,,,,,,,,,,,,,,0,1,1,0,0,72,72,72,,,,,,,,,,,,,858.259372677654,,,,,AMP_prac,right,0.6170763255795464,,,,,,,,,,,,,,,,,,,,,3,,,right,0.9331095515517518,,,,,,,,,,,,,,1025,2019_May_31_1249,mf_amp_cond1,3.0.7,59.9862824363924,
critics,,&&&&&&&,images/symbols/symbol_15.png,condition_files/AMP_rep1.csv,right,loyalty.vice,,,,,,,,,,,,,,,,,,,,,0,1,1,0,0,73,73,73,,,,,,,,,,,,,859.0429372924846,,,,,AMP_prac,right,0.6170763255795464,,,,,,,,,,,,,,,,,,,,,3,,,left,0.5658251545391977,,,,,,,,,,,,,,1025,2019_May_31_1249,mf_amp_cond1,3.0.7,59.9862824363924,
black,,&&&&&,images/symbols/symbol_34.png,condition_files/AMP_rep1.csv,right,loyalty.vice,,,,,,,,,,,,,,,,,,,,,0,1,1,0,0,74,74,74,,,,,,,,,,,,,859.8431380032562,,,,,AMP_prac,right,0.6170763255795464,,,,,,,,,,,,,,,,,,,,,3,,,right,0.581957388902083,,,,,,,,,,,,,,1025,2019_May_31_1249,mf_amp_cond1,3.0.7,59.9862824363924,
betrayal,,&&&&&&&&,images/symbols/symbol_45.png,condition_files/AMP_rep1.csv,right,loyalty.vice,,,,,,,,,,,,,,,,,,,,,0,1,1,0,0,75,75,75,,,,,,,,,,,,,860.5600774105405,,,,,AMP_prac,right,0.6170763255795464,,,,,,,,,,,,,,,,,,,,,3,,,left,0.49925607431214303,,,,,,,,,,,,,,1025,2019_May_31_1249,mf_amp_cond1,3.0.7,59.9862824363924,
scandal,,&&&&&&&,images/symbols/symbol_61.png,condition_files/AMP_rep1.csv,right,sanctity.vice,,,,,,,,,,,,,,,,,,,,,0,1,1,0,0,76,76,76,,,,,,,,,,,,,861.4435660451418,,,,,AMP_prac,right,0.6170763255795464,,,,,,,,,,,,,,,,,,,,,3,,,left,0.6504229264101014,,,,,,,,,,,,,,1025,2019_May_31_1249,mf_amp_cond1,3.0.7,59.9862824363924,
death,,&&&&&,images/symbols/symbol_17.png,condition_files/AMP_rep1.csv,right,care.vice,,,,,,,,,,,,,,,,,,,,,0,1,1,0,0,77,77,77,,,,,,,,,,,,,862.2604406977771,,,,,AMP_prac,right,0.6170763255795464,,,,,,,,,,,,,,,,,,,,,3,,,left,0.5984209340531379,,,,,,,,,,,,,,1025,2019_May_31_1249,mf_amp_cond1,3.0.7,59.9862824363924,
trust,,&&&&&,images/symbols/symbol_71.png,condition_files/AMP_rep1.csv,left,authority.virtue,,,,,,,,,,,,,,,,,,,,,0,1,1,0,0,78,78,78,,,,,,,,,,,,,863.1606873045675,,,,,AMP_prac,right,0.6170763255795464,,,,,,,,,,,,,,,,,,,,,3,,,left,0.682367309811525,,,,,,,,,,,,,,1025,2019_May_31_1249,mf_amp_cond1,3.0.7,59.9862824363924,
sharing,,&&&&&&&,images/symbols/symbol_14.png,condition_files/AMP_rep1.csv,left,loyalty.virtue,,,,,,,,,,,,,,,,,,,,,0,1,1,0,0,79,79,79,,,,,,,,,,,,,864.1276146044256,,,,,AMP_prac,right,0.6170763255795464,,,,,,,,,,,,,,,,,,,,,3,,,right,0.7491278637899086,,,,,,,,,,,,,,1025,2019_May_31_1249,mf_amp_cond1,3.0.7,59.9862824363924,
fair,,&&&&,images/symbols/symbol_52.png,condition_files/AMP_rep1.csv,left,fairness.virtue,,,,,,,,,,,,,,,,,,,,,0,1,1,0,0,80,80,80,,,,,,,,,,,,,865.0945409422275,,,,,AMP_prac,right,0.6170763255795464,,,,,,,,,,,,,,,,,,,,,3,,,left,0.7496237072627991,,,,,,,,,,,,,,1025,2019_May_31_1249,mf_amp_cond1,3.0.7,59.9862824363924,
agreement,,&&&&&&&&&,images/symbols/symbol_69.png,condition_files/AMP_rep1.csv,left,fairness.virtue,,,,,,,,,,,,,,,,,,,,,0,1,1,0,0,81,81,81,,,,,,,,,,,,,866.0948071454186,,,,,AMP_prac,right,0.6170763255795464,,,,,,,,,,,,,,,,,,,,,3,,,left,0.7824404675047845,,,,,,,,,,,,,,1025,2019_May_31_1249,mf_amp_cond1,3.0.7,59.9862824363924,
,,,,condition_files/AMP_rep1.csv,,,,,,,,,,,,,,,,,,,,,,,0,1,1,0,,,,,,,,,,,,,,,,,,,,,,,,,,,,,,,,,,,,,,,,,,,,,,,,,,right,1.7173682189313695,,,,,,,,,,,,1025,2019_May_31_1249,mf_amp_cond1,3.0.7,59.9862824363924,
daizz,,&&&&&,images/symbols/symbol_73.png,condition_files/AMP_rep4.csv,None,nonword,,,,,,,,,,,,,,,,,,,,,0,2,2,3,0,0,0,0,,,,,,,,,,,,,868.6623045691522,,,,,AMP_prac,right,0.6170763255795464,,,,,,,,,,,,,,,,,,,,,3,,,right,0.6157642324687913,,,,,,,,,,,,,,1025,2019_May_31_1249,mf_amp_cond1,3.0.7,59.9862824363924,
wreize,,&&&&&&,images/symbols/symbol_60.png,condition_files/AMP_rep4.csv,None,nonword,,,,,,,,,,,,,,,,,,,,,0,2,2,3,0,1,1,1,,,,,,,,,,,,,869.4790570248151,,,,,AMP_prac,right,0.6170763255795464,,,,,,,,,,,,,,,,,,,,,3,,,right,0.5987214549677446,,,,,,,,,,,,,,1025,2019_May_31_1249,mf_amp_cond1,3.0.7,59.9862824363924,
crarft,,&&&&&&,images/symbols/symbol_51.png,condition_files/AMP_rep4.csv,None,nonword,,,,,,,,,,,,,,,,,,,,,0,2,2,3,0,2,2,2,,,,,,,,,,,,,870.3959695552476,,,,,AMP_prac,right,0.6170763255795464,,,,,,,,,,,,,,,,,,,,,3,,,left,0.6996490287128836,,,,,,,,,,,,,,1025,2019_May_31_1249,mf_amp_cond1,3.0.7,59.9862824363924,
rebels,,&&&&&&,images/symbols/symbol_46.png,condition_files/AMP_rep4.csv,right,authority.vice,,,,,,,,,,,,,,,,,,,,,0,2,2,3,0,3,3,3,,,,,,,,,,,,,871.2794213063316,,,,,AMP_prac,right,0.6170763255795464,,,,,,,,,,,,,,,,,,,,,3,,,left,0.6502968807471916,,,,,,,,,,,,,,1025,2019_May_31_1249,mf_amp_cond1,3.0.7,59.9862824363924,
loyalty,,&&&&&&&,images/symbols/symbol_32.png,condition_files/AMP_rep4.csv,left,loyalty.virtue,,,,,,,,,,,,,,,,,,,,,0,2,2,3,0,4,4,4,,,,,,,,,,,,,872.2798481936334,,,,,AMP_prac,right,0.6170763255795464,,,,,,,,,,,,,,,,,,,,,3,,,left,0.7819462276529521,,,,,,,,,,,,,,1025,2019_May_31_1249,mf_amp_cond1,3.0.7,59.9862824363924,
injured,,&&&&&&&,images/symbols/symbol_9.png,condition_files/AMP_rep4.csv,right,care.vice,,,,,,,,,,,,,,,,,,,,,0,2,2,3,0,5,5,5,,,,,,,,,,,,,873.4801337044919,,,,,AMP_prac,right,0.6170763255795464,,,,,,,,,,,,,,,,,,,,,3,,,left,0.9824277026345953,,,,,,,,,,,,,,1025,2019_May_31_1249,mf_amp_cond1,3.0.7,59.9862824363924,
attacks,,&&&&&&&,images/symbols/symbol_21.png,condition_files/AMP_rep4.csv,right,care.vice,,,,,,,,,,,,,,,,,,,,,0,2,2,3,0,6,6,6,,,,,,,,,,,,,874.5970931252232,,,,,AMP_prac,right,0.6170763255795464,,,,,,,,,,,,,,,,,,,,,3,,,left,0.8994451106991619,,,,,,,,,,,,,,1025,2019_May_31_1249,mf_amp_cond1,3.0.7,59.9862824363924,
safety,,&&&&&&,images/symbols/symbol_80.png,condition_files/AMP_rep4.csv,left,care.virtue,,,,,,,,,,,,,,,,,,,,,0,2,2,3,0,7,7,7,,,,,,,,,,,,,875.5140072592767,,,,,AMP_prac,right,0.6170763255795464,,,,,,,,,,,,,,,,,,,,,3,,,left,0.6992943049408495,,,,,,,,,,,,,,1025,2019_May_31_1249,mf_amp_cond1,3.0.7,59.9862824363924,
commitment,,&&&&&&&&&&,images/symbols/symbol_65.png,condition_files/AMP_rep4.csv,left,sanctity.virtue,,,,,,,,,,,,,,,,,,,,,0,2,2,3,0,8,8,8,,,,,,,,,,,,,876.1808725626906,,,,,AMP_prac,right,0.6170763255795464,,,,,,,,,,,,,,,,,,,,,3,,,right,0.4337033771444112,,,,,,,,,,,,,,1025,2019_May_31_1249,mf_amp_cond1,3.0.7,59.9862824363924,
strong,,&&&&&&,images/symbols/symbol_70.png,condition_files/AMP_rep4.csv,left,loyalty.virtue,,,,,,,,,,,,,,,,,,,,,0,2,2,3,0,9,9,9,,,,,,,,,,,,,876.9644015767844,,,,,AMP_prac,right,0.6170763255795464,,,,,,,,,,,,,,,,,,,,,3,,,right,0.5653094259323552,,,,,,,,,,,,,,1025,2019_May_31_1249,mf_amp_cond1,3.0.7,59.9862824363924,
bluphte,,&&&&&&&,images/symbols/symbol_64.png,condition_files/AMP_rep4.csv,None,nonword,,,,,,,,,,,,,,,,,,,,,0,2,2,3,0,10,10,10,,,,,,,,,,,,,877.6979350650217,,,,,AMP_prac,right,0.6170763255795464,,,,,,,,,,,,,,,,,,,,,3,,,left,0.5154733011731878,,,,,,,,,,,,,,1025,2019_May_31_1249,mf_amp_cond1,3.0.7,59.9862824363924,
increase,,&&&&&&&&,images/symbols/symbol_6.png,condition_files/AMP_rep4.csv,left,care.virtue,,,,,,,,,,,,,,,,,,,,,0,2,2,3,0,11,11,11,,,,,,,,,,,,,878.6482208165107,,,,,AMP_prac,right,0.6170763255795464,,,,,,,,,,,,,,,,,,,,,3,,,right,0.7171469174791127,,,,,,,,,,,,,,1025,2019_May_31_1249,mf_amp_cond1,3.0.7,59.9862824363924,
wrantse,,&&&&&&&,images/symbols/symbol_26.png,condition_files/AMP_rep4.csv,None,nonword,,,,,,,,,,,,,,,,,,,,,0,2,2,3,0,12,12,12,,,,,,,,,,,,,879.5150942022447,,,,,AMP_prac,right,0.6170763255795464,,,,,,,,,,,,,,,,,,,,,3,,,left,0.6485431467881426,,,,,,,,,,,,,,1025,2019_May_31_1249,mf_amp_cond1,3.0.7,59.9862824363924,
slypped,,&&&&&&&,images/symbols/symbol_79.png,condition_files/AMP_rep4.csv,None,nonword,,,,,,,,,,,,,,,,,,,,,0,2,2,3,0,13,13,13,,,,,,,,,,,,,880.4653626345098,,,,,AMP_prac,right,0.6170763255795464,,,,,,,,,,,,,,,,,,,,,3,,,right,0.7324160762364045,,,,,,,,,,,,,,1025,2019_May_31_1249,mf_amp_cond1,3.0.7,59.9862824363924,
safe,,&&&&,images/symbols/symbol_74.png,condition_files/AMP_rep4.csv,left,care.virtue,,,,,,,,,,,,,,,,,,,,,0,2,2,3,0,14,14,14,,,,,,,,,,,,,881.2989025692223,,,,,AMP_prac,right,0.6170763255795464,,,,,,,,,,,,,,,,,,,,,3,,,left,0.6004062325228006,,,,,,,,,,,,,,1025,2019_May_31_1249,mf_amp_cond1,3.0.7,59.9862824363924,
penalty,,&&&&&&&,images/symbols/symbol_18.png,condition_files/AMP_rep4.csv,right,authority.vice,,,,,,,,,,,,,,,,,,,,,0,2,2,3,0,15,15,15,,,,,,,,,,,,,882.1157865229761,,,,,AMP_prac,right,0.6170763255795464,,,,,,,,,,,,,,,,,,,,,3,,,right,0.5988118998939171,,,,,,,,,,,,,,1025,2019_May_31_1249,mf_amp_cond1,3.0.7,59.9862824363924,
suicide,,&&&&&&&,images/symbols/symbol_33.png,condition_files/AMP_rep4.csv,right,care.vice,,,,,,,,,,,,,,,,,,,,,0,2,2,3,0,16,16,16,,,,,,,,,,,,,883.2827745043905,,,,,AMP_prac,right,0.6170763255795464,,,,,,,,,,,,,,,,,,,,,3,,,right,0.9491340217646211,,,,,,,,,,,,,,1025,2019_May_31_1249,mf_amp_cond1,3.0.7,59.9862824363924,
terrorist,,&&&&&&&&&,images/symbols/symbol_3.png,condition_files/AMP_rep4.csv,right,loyalty.vice,,,,,,,,,,,,,,,,,,,,,0,2,2,3,0,17,17,17,,,,,,,,,,,,,883.9829989168793,,,,,AMP_prac,right,0.6170763255795464,,,,,,,,,,,,,,,,,,,,,3,,,right,0.4824955363292247,,,,,,,,,,,,,,1025,2019_May_31_1249,mf_amp_cond1,3.0.7,59.9862824363924,
love,,&&&&,images/symbols/symbol_25.png,condition_files/AMP_rep4.csv,left,loyalty.virtue,,,,,,,,,,,,,,,,,,,,,0,2,2,3,0,18,18,18,,,,,,,,,,,,,885.2166188409319,,,,,AMP_prac,right,0.6170763255795464,,,,,,,,,,,,,,,,,,,,,3,,,left,1.0157627570442855,,,,,,,,,,,,,,1025,2019_May_31_1249,mf_amp_cond1,3.0.7,59.9862824363924,
unpleasant,,&&&&&&&&&,images/symbols/symbol_78.png,condition_files/AMP_rep4.csv,left,control,,,,,,,,,,,,,,,,,,,,,0,2,2,3,0,19,19,19,,,,,,,,,,,,,886.4336154980119,,,,,AMP_prac,right,0.6170763255795464,,,,,,,,,,,,,,,,,,,,,3,,,left,0.9991728457389399,,,,,,,,,,,,,,1025,2019_May_31_1249,mf_amp_cond1,3.0.7,59.9862824363924,
ability,,&&&&&&&,images/symbols/symbol_5.png,condition_files/AMP_rep4.csv,left,authority.virtue,,,,,,,,,,,,,,,,,,,,,0,2,2,3,0,20,20,20,,,,,,,,,,,,,887.1004663687199,,,,,AMP_prac,right,0.6170763255795464,,,,,,,,,,,,,,,,,,,,,3,,,right,0.4489799125585705,,,,,,,,,,,,,,1025,2019_May_31_1249,mf_amp_cond1,3.0.7,59.9862824363924,
pleasant,,&&&&&&&,images/symbols/symbol_56.png,condition_files/AMP_rep4.csv,right,control,,,,,,,,,,,,,,,,,,,,,0,2,2,3,0,21,21,21,,,,,,,,,,,,,887.8173307259567,,,,,AMP_prac,right,0.6170763255795464,,,,,,,,,,,,,,,,,,,,,3,,,right,0.4837194294668734,,,,,,,,,,,,,,1025,2019_May_31_1249,mf_amp_cond1,3.0.7,59.9862824363924,
corruption,,&&&&&&&&&&,images/symbols/symbol_16.png,condition_files/AMP_rep4.csv,right,sanctity.vice,,,,,,,,,,,,,,,,,,,,,0,2,2,3,0,22,22,22,,,,,,,,,,,,,888.6008738520322,,,,,AMP_prac,right,0.6170763255795464,,,,,,,,,,,,,,,,,,,,,3,,,left,0.5654611297650263,,,,,,,,,,,,,,1025,2019_May_31_1249,mf_amp_cond1,3.0.7,59.9862824363924,
fraud,,&&&&&,images/symbols/symbol_19.png,condition_files/AMP_rep4.csv,right,fairness.vice,,,,,,,,,,,,,,,,,,,,,0,2,2,3,0,23,23,23,,,,,,,,,,,,,889.5844702828908,,,,,AMP_prac,right,0.6170763255795464,,,,,,,,,,,,,,,,,,,,,3,,,left,0.7657514514867216,,,,,,,,,,,,,,1025,2019_May_31_1249,mf_amp_cond1,3.0.7,59.9862824363924,
chawde,,&&&&&&,images/symbols/symbol_62.png,condition_files/AMP_rep4.csv,None,nonword,,,,,,,,,,,,,,,,,,,,,0,2,2,3,0,24,24,24,,,,,,,,,,,,,890.3680069943657,,,,,AMP_prac,right,0.6170763255795464,,,,,,,,,,,,,,,,,,,,,3,,,right,0.5657725554192439,,,,,,,,,,,,,,1025,2019_May_31_1249,mf_amp_cond1,3.0.7,59.9862824363924,
abuse,,&&&&&,images/symbols/symbol_2.png,condition_files/AMP_rep4.csv,right,sanctity.vice,,,,,,,,,,,,,,,,,,,,,0,2,2,3,0,25,25,25,,,,,,,,,,,,,891.4849786027335,,,,,AMP_prac,right,0.6170763255795464,,,,,,,,,,,,,,,,,,,,,3,,,right,0.8991410617018119,,,,,,,,,,,,,,1025,2019_May_31_1249,mf_amp_cond1,3.0.7,59.9862824363924,
victims,,&&&&&&&,images/symbols/symbol_53.png,condition_files/AMP_rep4.csv,right,care.vice,,,,,,,,,,,,,,,,,,,,,0,2,2,3,0,26,26,26,,,,,,,,,,,,,892.3018538967008,,,,,AMP_prac,right,0.6170763255795464,,,,,,,,,,,,,,,,,,,,,3,,,left,0.58373036631383,,,,,,,,,,,,,,1025,2019_May_31_1249,mf_amp_cond1,3.0.7,59.9862824363924,
praised,,&&&&&&&,images/symbols/symbol_68.png,condition_files/AMP_rep4.csv,left,loyalty.virtue,,,,,,,,,,,,,,,,,,,,,0,2,2,3,0,27,27,27,,,,,,,,,,,,,893.5021839886904,,,,,AMP_prac,right,0.6170763255795464,,,,,,,,,,,,,,,,,,,,,3,,,right,0.9817442339845002,,,,,,,,,,,,,,1025,2019_May_31_1249,mf_amp_cond1,3.0.7,59.9862824363924,
scourld,,&&&&&&&,images/symbols/symbol_44.png,condition_files/AMP_rep4.csv,None,nonword,,,,,,,,,,,,,,,,,,,,,0,2,2,3,0,28,28,28,,,,,,,,,,,,,894.702375847497,,,,,AMP_prac,right,0.6170763255795464,,,,,,,,,,,,,,,,,,,,,3,,,right,0.9824142321012914,,,,,,,,,,,,,,1025,2019_May_31_1249,mf_amp_cond1,3.0.7,59.9862824363924,
perfect,,&&&&&&&,images/symbols/symbol_12.png,condition_files/AMP_rep4.csv,left,sanctity.virtue,,,,,,,,,,,,,,,,,,,,,0,2,2,3,0,29,29,29,,,,,,,,,,,,,895.9028316643089,,,,,AMP_prac,right,0.6170763255795464,,,,,,,,,,,,,,,,,,,,,3,,,right,0.9671790703432634,,,,,,,,,,,,,,1025,2019_May_31_1249,mf_amp_cond1,3.0.7,59.9862824363924,
racist,,&&&&&&,images/symbols/symbol_77.png,condition_files/AMP_rep4.csv,right,sanctity.vice,,,,,,,,,,,,,,,,,,,,,0,2,2,3,0,30,30,30,,,,,,,,,,,,,897.1531653002603,,,,,AMP_prac,right,0.6170763255795464,,,,,,,,,,,,,,,,,,,,,3,,,right,1.0320300174644217,,,,,,,,,,,,,,1025,2019_May_31_1249,mf_amp_cond1,3.0.7,59.9862824363924,
promised,,&&&&&&&&,images/symbols/symbol_75.png,condition_files/AMP_rep4.csv,left,loyalty.virtue,,,,,,,,,,,,,,,,,,,,,0,2,2,3,0,31,31,31,,,,,,,,,,,,,897.836680170265,,,,,AMP_prac,right,0.6170763255795464,,,,,,,,,,,,,,,,,,,,,3,,,left,0.45036320702638477,,,,,,,,,,,,,,1025,2019_May_31_1249,mf_amp_cond1,3.0.7,59.9862824363924,
prinse,,&&&&&&,images/symbols/symbol_20.png,condition_files/AMP_rep4.csv,None,nonword,,,,,,,,,,,,,,,,,,,,,0,2,2,3,0,32,32,32,,,,,,,,,,,,,898.7369219661923,,,,,AMP_prac,right,0.6170763255795464,,,,,,,,,,,,,,,,,,,,,3,,,right,0.6825664810603485,,,,,,,,,,,,,,1025,2019_May_31_1249,mf_amp_cond1,3.0.7,59.9862824363924,
army,,&&&&,images/symbols/symbol_40.png,condition_files/AMP_rep4.csv,right,loyalty.vice,,,,,,,,,,,,,,,,,,,,,0,2,2,3,0,33,33,33,,,,,,,,,,,,,899.7038611329626,,,,,AMP_prac,right,0.6170763255795464,,,,,,,,,,,,,,,,,,,,,3,,,left,0.7491108652902767,,,,,,,,,,,,,,1025,2019_May_31_1249,mf_amp_cond1,3.0.7,59.9862824363924,
gun,,&&&,images/symbols/symbol_35.png,condition_files/AMP_rep4.csv,right,authority.vice,,,,,,,,,,,,,,,,,,,,,0,2,2,3,0,34,34,34,,,,,,,,,,,,,900.4873933542985,,,,,AMP_prac,right,0.6170763255795464,,,,,,,,,,,,,,,,,,,,,3,,,right,0.5657212390797213,,,,,,,,,,,,,,1025,2019_May_31_1249,mf_amp_cond1,3.0.7,59.9862824363924,
serial,,&&&&&&,images/symbols/symbol_23.png,condition_files/AMP_rep4.csv,right,sanctity.vice,,,,,,,,,,,,,,,,,,,,,0,2,2,3,0,35,35,35,,,,,,,,,,,,,901.5043309335597,,,,,AMP_prac,right,0.6170763255795464,,,,,,,,,,,,,,,,,,,,,3,,,left,0.7990842609433457,,,,,,,,,,,,,,1025,2019_May_31_1249,mf_amp_cond1,3.0.7,59.9862824363924,
lies,,&&&&,images/symbols/symbol_67.png,condition_files/AMP_rep4.csv,right,fairness.vice,,,,,,,,,,,,,,,,,,,,,0,2,2,3,0,36,36,36,,,,,,,,,,,,,902.4546227788087,,,,,AMP_prac,right,0.6170763255795464,,,,,,,,,,,,,,,,,,,,,3,,,left,0.7325369901955128,,,,,,,,,,,,,,1025,2019_May_31_1249,mf_amp_cond1,3.0.7,59.9862824363924,
peace,,&&&&&,images/symbols/symbol_7.png,condition_files/AMP_rep4.csv,left,care.virtue,,,,,,,,,,,,,,,,,,,,,0,2,2,3,0,37,37,37,,,,,,,,,,,,,903.3214862219756,,,,,AMP_prac,right,0.6170763255795464,,,,,,,,,,,,,,,,,,,,,3,,,right,0.6493010241538286,,,,,,,,,,,,,,1025,2019_May_31_1249,mf_amp_cond1,3.0.7,59.9862824363924,
ensure,,&&&&&&,images/symbols/symbol_50.png,condition_files/AMP_rep4.csv,left,fairness.virtue,,,,,,,,,,,,,,,,,,,,,0,2,2,3,0,38,38,38,,,,,,,,,,,,,904.238439164008,,,,,AMP_prac,right,0.6170763255795464,,,,,,,,,,,,,,,,,,,,,3,,,right,0.6993225289043039,,,,,,,,,,,,,,1025,2019_May_31_1249,mf_amp_cond1,3.0.7,59.9862824363924,
illegal,,&&&&&&&,images/symbols/symbol_37.png,condition_files/AMP_rep4.csv,right,fairness.vice,,,,,,,,,,,,,,,,,,,,,0,2,2,3,0,39,39,39,,,,,,,,,,,,,905.1886505068978,,,,,AMP_prac,right,0.6170763255795464,,,,,,,,,,,,,,,,,,,,,3,,,left,0.7170885453233495,,,,,,,,,,,,,,1025,2019_May_31_1249,mf_amp_cond1,3.0.7,59.9862824363924,
civilians,,&&&&&&&&&,images/symbols/symbol_43.png,condition_files/AMP_rep4.csv,right,care.vice,,,,,,,,,,,,,,,,,,,,,0,2,2,3,0,40,40,40,,,,,,,,,,,,,905.8888425260084,,,,,AMP_prac,right,0.6170763255795464,,,,,,,,,,,,,,,,,,,,,3,,,right,0.48168249404989183,,,,,,,,,,,,,,1025,2019_May_31_1249,mf_amp_cond1,3.0.7,59.9862824363924,
skypped,,&&&&&&&,images/symbols/symbol_31.png,condition_files/AMP_rep4.csv,None,nonword,,,,,,,,,,,,,,,,,,,,,0,2,2,3,0,41,41,41,,,,,,,,,,,,,906.7890775866108,,,,,AMP_prac,right,0.6170763255795464,,,,,,,,,,,,,,,,,,,,,3,,,left,0.683426990872249,,,,,,,,,,,,,,1025,2019_May_31_1249,mf_amp_cond1,3.0.7,59.9862824363924,
violations,,&&&&&&&&&&,images/symbols/symbol_27.png,condition_files/AMP_rep4.csv,right,sanctity.vice,,,,,,,,,,,,,,,,,,,,,0,2,2,3,0,42,42,42,,,,,,,,,,,,,907.6560593780596,,,,,AMP_prac,right,0.6170763255795464,,,,,,,,,,,,,,,,,,,,,3,,,left,0.6489421309670433,,,,,,,,,,,,,,1025,2019_May_31_1249,mf_amp_cond1,3.0.7,59.9862824363924,
respect,,&&&&&&&,images/symbols/symbol_10.png,condition_files/AMP_rep4.csv,left,sanctity.virtue,,,,,,,,,,,,,,,,,,,,,0,2,2,3,0,43,43,43,,,,,,,,,,,,,908.6729494896717,,,,,AMP_prac,right,0.6170763255795464,,,,,,,,,,,,,,,,,,,,,3,,,left,0.7992914505302906,,,,,,,,,,,,,,1025,2019_May_31_1249,mf_amp_cond1,3.0.7,59.9862824363924,
freedom,,&&&&&&&,images/symbols/symbol_76.png,condition_files/AMP_rep4.csv,left,sanctity.virtue,,,,,,,,,,,,,,,,,,,,,0,2,2,3,0,44,44,44,,,,,,,,,,,,,909.4398045619018,,,,,AMP_prac,right,0.6170763255795464,,,,,,,,,,,,,,,,,,,,,3,,,right,0.5496367929736152,,,,,,,,,,,,,,1025,2019_May_31_1249,mf_amp_cond1,3.0.7,59.9862824363924,
terrorists,,&&&&&&&&&&,images/symbols/symbol_29.png,condition_files/AMP_rep4.csv,right,fairness.vice,,,,,,,,,,,,,,,,,,,,,0,2,2,3,0,45,45,45,,,,,,,,,,,,,910.2400229127379,,,,,AMP_prac,right,0.6170763255795464,,,,,,,,,,,,,,,,,,,,,3,,,left,0.5824060855666175,,,,,,,,,,,,,,1025,2019_May_31_1249,mf_amp_cond1,3.0.7,59.9862824363924,
progress,,&&&&&&&&,images/symbols/symbol_30.png,condition_files/AMP_rep4.csv,left,authority.virtue,,,,,,,,,,,,,,,,,,,,,0,2,2,3,0,46,46,46,,,,,,,,,,,,,911.1569194068434,,,,,AMP_prac,right,0.6170763255795464,,,,,,,,,,,,,,,,,,,,,3,,,right,0.6993799388874322,,,,,,,,,,,,,,1025,2019_May_31_1249,mf_amp_cond1,3.0.7,59.9862824363924,
powerful,,&&&&&&&&,images/symbols/symbol_48.png,condition_files/AMP_rep4.csv,left,authority.virtue,,,,,,,,,,,,,,,,,,,,,0,2,2,3,0,47,47,47,,,,,,,,,,,,,911.8904612339102,,,,,AMP_prac,right,0.6170763255795464,,,,,,,,,,,,,,,,,,,,,3,,,left,0.5156378340907395,,,,,,,,,,,,,,1025,2019_May_31_1249,mf_amp_cond1,3.0.7,59.9862824363924,
riot,,&&&&,images/symbols/symbol_49.png,condition_files/AMP_rep4.csv,right,authority.vice,,,,,,,,,,,,,,,,,,,,,0,2,2,3,0,48,48,48,,,,,,,,,,,,,913.1241122684442,,,,,AMP_prac,right,0.6170763255795464,,,,,,,,,,,,,,,,,,,,,3,,,left,1.0005105970194563,,,,,,,,,,,,,,1025,2019_May_31_1249,mf_amp_cond1,3.0.7,59.9862824363924,
integrity,,&&&&&&&&&,images/symbols/symbol_36.png,condition_files/AMP_rep4.csv,left,fairness.virtue,,,,,,,,,,,,,,,,,,,,,0,2,2,3,0,49,49,49,,,,,,,,,,,,,914.1243797545321,,,,,AMP_prac,right,0.6170763255795464,,,,,,,,,,,,,,,,,,,,,3,,,right,0.7820350688416511,,,,,,,,,,,,,,1025,2019_May_31_1249,mf_amp_cond1,3.0.7,59.9862824363924,
faith,,&&&&&,images/symbols/symbol_58.png,condition_files/AMP_rep4.csv,left,sanctity.virtue,,,,,,,,,,,,,,,,,,,,,0,2,2,3,0,50,50,50,,,,,,,,,,,,,914.9912874579895,,,,,AMP_prac,right,0.6170763255795464,,,,,,,,,,,,,,,,,,,,,3,,,left,0.6337460979120806,,,,,,,,,,,,,,1025,2019_May_31_1249,mf_amp_cond1,3.0.7,59.9862824363924,
fighters,,&&&&&&&&,images/symbols/symbol_59.png,condition_files/AMP_rep4.csv,right,authority.vice,,,,,,,,,,,,,,,,,,,,,0,2,2,3,0,51,51,51,,,,,,,,,,,,,915.9248742510099,,,,,AMP_prac,right,0.6170763255795464,,,,,,,,,,,,,,,,,,,,,3,,,right,0.7152636101236567,,,,,,,,,,,,,,1025,2019_May_31_1249,mf_amp_cond1,3.0.7,59.9862824363924,
forced,,&&&&&&,images/symbols/symbol_28.png,condition_files/AMP_rep4.csv,right,fairness.vice,,,,,,,,,,,,,,,,,,,,,0,2,2,3,0,52,52,52,,,,,,,,,,,,,916.8751327407081,,,,,AMP_prac,right,0.6170763255795464,,,,,,,,,,,,,,,,,,,,,3,,,left,0.7324532804777846,,,,,,,,,,,,,,1025,2019_May_31_1249,mf_amp_cond1,3.0.7,59.9862824363924,
men,,&&&,images/symbols/symbol_63.png,condition_files/AMP_rep4.csv,right,loyalty.vice,,,,,,,,,,,,,,,,,,,,,0,2,2,3,0,53,53,53,,,,,,,,,,,,,918.1088238661177,,,,,AMP_prac,right,0.6170763255795464,,,,,,,,,,,,,,,,,,,,,3,,,right,1.0161572510842234,,,,,,,,,,,,,,1025,2019_May_31_1249,mf_amp_cond1,3.0.7,59.9862824363924,
opportunity,,&&&&&&&&&&&,images/symbols/symbol_57.png,condition_files/AMP_rep4.csv,left,fairness.virtue,,,,,,,,,,,,,,,,,,,,,0,2,2,3,0,54,54,54,,,,,,,,,,,,,918.9757087980397,,,,,AMP_prac,right,0.6170763255795464,,,,,,,,,,,,,,,,,,,,,3,,,right,0.6488904940197244,,,,,,,,,,,,,,1025,2019_May_31_1249,mf_amp_cond1,3.0.7,59.9862824363924,
rejected,,&&&&&&&&,images/symbols/symbol_72.png,condition_files/AMP_rep4.csv,right,authority.vice,,,,,,,,,,,,,,,,,,,,,0,2,2,3,0,55,55,55,,,,,,,,,,,,,919.9259515721351,,,,,AMP_prac,right,0.6170763255795464,,,,,,,,,,,,,,,,,,,,,3,,,right,0.7325116528663784,,,,,,,,,,,,,,1025,2019_May_31_1249,mf_amp_cond1,3.0.7,59.9862824363924,
help,,&&&&,images/symbols/symbol_38.png,condition_files/AMP_rep4.csv,left,care.virtue,,,,,,,,,,,,,,,,,,,,,0,2,2,3,0,56,56,56,,,,,,,,,,,,,920.5761147098383,,,,,AMP_prac,right,0.6170763255795464,,,,,,,,,,,,,,,,,,,,,3,,,right,0.43235247605480254,,,,,,,,,,,,,,1025,2019_May_31_1249,mf_amp_cond1,3.0.7,59.9862824363924,
great,,&&&&&,images/symbols/symbol_55.png,condition_files/AMP_rep4.csv,left,loyalty.virtue,,,,,,,,,,,,,,,,,,,,,0,2,2,3,0,57,57,57,,,,,,,,,,,,,921.5431343789678,,,,,AMP_prac,right,0.6170763255795464,,,,,,,,,,,,,,,,,,,,,3,,,right,0.7491022056201473,,,,,,,,,,,,,,1025,2019_May_31_1249,mf_amp_cond1,3.0.7,59.9862824363924,
war,,&&&,images/symbols/symbol_8.png,condition_files/AMP_rep4.csv,right,sanctity.vice,,,,,,,,,,,,,,,,,,,,,0,2,2,3,0,58,58,58,,,,,,,,,,,,,922.409955486306,,,,,AMP_prac,right,0.6170763255795464,,,,,,,,,,,,,,,,,,,,,3,,,left,0.6492529151728377,,,,,,,,,,,,,,1025,2019_May_31_1249,mf_amp_cond1,3.0.7,59.9862824363924,
strength,,&&&&&&&&,images/symbols/symbol_4.png,condition_files/AMP_rep4.csv,left,sanctity.virtue,,,,,,,,,,,,,,,,,,,,,0,2,2,3,0,59,59,59,,,,,,,,,,,,,923.2435313424794,,,,,AMP_prac,right,0.6170763255795464,,,,,,,,,,,,,,,,,,,,,3,,,left,0.61559873749502,,,,,,,,,,,,,,1025,2019_May_31_1249,mf_amp_cond1,3.0.7,59.9862824363924,
protect,,&&&&&&&,images/symbols/symbol_13.png,condition_files/AMP_rep4.csv,left,fairness.virtue,,,,,,,,,,,,,,,,,,,,,0,2,2,3,0,60,60,60,,,,,,,,,,,,,923.8770468379371,,,,,AMP_prac,right,0.6170763255795464,,,,,,,,,,,,,,,,,,,,,3,,,right,0.4157356236828491,,,,,,,,,,,,,,1025,2019_May_31_1249,mf_amp_cond1,3.0.7,59.9862824363924,
refused,,&&&&&&&,images/symbols/symbol_66.png,condition_files/AMP_rep4.csv,right,authority.vice,,,,,,,,,,,,,,,,,,,,,0,2,2,3,0,61,61,61,,,,,,,,,,,,,924.827261388069,,,,,AMP_prac,right,0.6170763255795464,,,,,,,,,,,,,,,,,,,,,3,,,left,0.732522557489574,,,,,,,,,,,,,,1025,2019_May_31_1249,mf_amp_cond1,3.0.7,59.9862824363924,
slavery,,&&&&&&&,images/symbols/symbol_1.png,condition_files/AMP_rep4.csv,right,loyalty.vice,,,,,,,,,,,,,,,,,,,,,0,2,2,3,0,62,62,62,,,,,,,,,,,,,925.6608256981708,,,,,AMP_prac,right,0.6170763255795464,,,,,,,,,,,,,,,,,,,,,3,,,left,0.6154402984539047,,,,,,,,,,,,,,1025,2019_May_31_1249,mf_amp_cond1,3.0.7,59.9862824363924,
crime,,&&&&&,images/symbols/symbol_54.png,condition_files/AMP_rep4.csv,right,fairness.vice,,,,,,,,,,,,,,,,,,,,,0,2,2,3,0,63,63,63,,,,,,,,,,,,,926.6944336912129,,,,,AMP_prac,right,0.6170763255795464,,,,,,,,,,,,,,,,,,,,,3,,,left,0.8154336273437366,,,,,,,,,,,,,,1025,2019_May_31_1249,mf_amp_cond1,3.0.7,59.9862824363924,
care,,&&&&,images/symbols/symbol_22.png,condition_files/AMP_rep4.csv,left,care.virtue,,,,,,,,,,,,,,,,,,,,,0,2,2,3,0,64,64,64,,,,,,,,,,,,,927.6113500703359,,,,,AMP_prac,right,0.6170763255795464,,,,,,,,,,,,,,,,,,,,,3,,,right,0.699064664542675,,,,,,,,,,,,,,1025,2019_May_31_1249,mf_amp_cond1,3.0.7,59.9862824363924,
benefit,,&&&&&&&,images/symbols/symbol_82.png,condition_files/AMP_rep4.csv,left,fairness.virtue,,,,,,,,,,,,,,,,,,,,,0,2,2,3,0,65,65,65,,,,,,,,,,,,,928.5782722386066,,,,,AMP_prac,right,0.6170763255795464,,,,,,,,,,,,,,,,,,,,,3,,,right,0.7494883607141674,,,,,,,,,,,,,,1025,2019_May_31_1249,mf_amp_cond1,3.0.7,59.9862824363924,
charges,,&&&&&&&,images/symbols/symbol_81.png,condition_files/AMP_rep4.csv,right,fairness.vice,,,,,,,,,,,,,,,,,,,,,0,2,2,3,0,66,66,66,,,,,,,,,,,,,929.4118285304867,,,,,AMP_prac,right,0.6170763255795464,,,,,,,,,,,,,,,,,,,,,3,,,left,0.6004036667291075,,,,,,,,,,,,,,1025,2019_May_31_1249,mf_amp_cond1,3.0.7,59.9862824363924,
improve,,&&&&&&&,images/symbols/symbol_47.png,condition_files/AMP_rep4.csv,left,care.virtue,,,,,,,,,,,,,,,,,,,,,0,2,2,3,0,67,67,67,,,,,,,,,,,,,930.1620330739534,,,,,AMP_prac,right,0.6170763255795464,,,,,,,,,,,,,,,,,,,,,3,,,right,0.5318297236226499,,,,,,,,,,,,,,1025,2019_May_31_1249,mf_amp_cond1,3.0.7,59.9862824363924,
actively,,&&&&&&&&,images/symbols/symbol_24.png,condition_files/AMP_rep4.csv,left,authority.virtue,,,,,,,,,,,,,,,,,,,,,0,2,2,3,0,68,68,68,,,,,,,,,,,,,931.012254648027,,,,,AMP_prac,right,0.6170763255795464,,,,,,,,,,,,,,,,,,,,,3,,,right,0.6324163649696857,,,,,,,,,,,,,,1025,2019_May_31_1249,mf_amp_cond1,3.0.7,59.9862824363924,
embrace,,&&&&&&&,images/symbols/symbol_39.png,condition_files/AMP_rep4.csv,left,authority.virtue,,,,,,,,,,,,,,,,,,,,,0,2,2,3,0,69,69,69,,,,,,,,,,,,,931.929176479578,,,,,AMP_prac,right,0.6170763255795464,,,,,,,,,,,,,,,,,,,,,3,,,right,0.6988449667114764,,,,,,,,,,,,,,1025,2019_May_31_1249,mf_amp_cond1,3.0.7,59.9862824363924,
hand,,&&&&,images/symbols/symbol_11.png,condition_files/AMP_rep4.csv,left,sanctity.virtue,,,,,,,,,,,,,,,,,,,,,0,2,2,3,0,70,70,70,,,,,,,,,,,,,932.9127783627482,,,,,AMP_prac,right,0.6170763255795464,,,,,,,,,,,,,,,,,,,,,3,,,right,0.765874931239523,,,,,,,,,,,,,,1025,2019_May_31_1249,mf_amp_cond1,3.0.7,59.9862824363924,
celebrated,,&&&&&&&&&&,images/symbols/symbol_42.png,condition_files/AMP_rep4.csv,left,authority.virtue,,,,,,,,,,,,,,,,,,,,,0,2,2,3,0,71,71,71,,,,,,,,,,,,,933.696311866981,,,,,AMP_prac,right,0.6170763255795464,,,,,,,,,,,,,,,,,,,,,3,,,right,0.5656580558279529,,,,,,,,,,,,,,1025,2019_May_31_1249,mf_amp_cond1,3.0.7,59.9862824363924,
died,,&&&&,images/symbols/symbol_41.png,condition_files/AMP_rep4.csv,right,care.vice,,,,,,,,,,,,,,,,,,,,,0,2,2,3,0,72,72,72,,,,,,,,,,,,,934.4965302177006,,,,,AMP_prac,right,0.6170763255795464,,,,,,,,,,,,,,,,,,,,,3,,,left,0.5829170033102855,,,,,,,,,,,,,,1025,2019_May_31_1249,mf_amp_cond1,3.0.7,59.9862824363924,
critics,,&&&&&&&,images/symbols/symbol_15.png,condition_files/AMP_rep4.csv,right,loyalty.vice,,,,,,,,,,,,,,,,,,,,,0,2,2,3,0,73,73,73,,,,,,,,,,,,,935.4301147656515,,,,,AMP_prac,right,0.6170763255795464,,,,,,,,,,,,,,,,,,,,,3,,,left,0.7158582374686375,,,,,,,,,,,,,,1025,2019_May_31_1249,mf_amp_cond1,3.0.7,59.9862824363924,
black,,&&&&&,images/symbols/symbol_34.png,condition_files/AMP_rep4.csv,right,loyalty.vice,,,,,,,,,,,,,,,,,,,,,0,2,2,3,0,74,74,74,,,,,,,,,,,,,936.5637497317512,,,,,AMP_prac,right,0.6170763255795464,,,,,,,,,,,,,,,,,,,,,3,,,right,0.9155327640473843,,,,,,,,,,,,,,1025,2019_May_31_1249,mf_amp_cond1,3.0.7,59.9862824363924,
betrayal,,&&&&&&&&,images/symbols/symbol_45.png,condition_files/AMP_rep4.csv,right,loyalty.vice,,,,,,,,,,,,,,,,,,,,,0,2,2,3,0,75,75,75,,,,,,,,,,,,,937.430651982897,,,,,AMP_prac,right,0.6170763255795464,,,,,,,,,,,,,,,,,,,,,3,,,right,0.6491223793709651,,,,,,,,,,,,,,1025,2019_May_31_1249,mf_amp_cond1,3.0.7,59.9862824363924,
scandal,,&&&&&&&,images/symbols/symbol_61.png,condition_files/AMP_rep4.csv,right,sanctity.vice,,,,,,,,,,,,,,,,,,,,,0,2,2,3,0,76,76,76,,,,,,,,,,,,,938.3809075860772,,,,,AMP_prac,right,0.6170763255795464,,,,,,,,,,,,,,,,,,,,,3,,,right,0.7171055438229814,,,,,,,,,,,,,,1025,2019_May_31_1249,mf_amp_cond1,3.0.7,59.9862824363924,
death,,&&&&&,images/symbols/symbol_17.png,condition_files/AMP_rep4.csv,right,care.vice,,,,,,,,,,,,,,,,,,,,,0,2,2,3,0,77,77,77,,,,,,,,,,,,,939.4145383506548,,,,,AMP_prac,right,0.6170763255795464,,,,,,,,,,,,,,,,,,,,,3,,,right,0.8151969310129061,,,,,,,,,,,,,,1025,2019_May_31_1249,mf_amp_cond1,3.0.7,59.9862824363924,
trust,,&&&&&,images/symbols/symbol_71.png,condition_files/AMP_rep4.csv,left,authority.virtue,,,,,,,,,,,,,,,,,,,,,0,2,2,3,0,78,78,78,,,,,,,,,,,,,940.7316200324567,,,,,AMP_prac,right,0.6170763255795464,,,,,,,,,,,,,,,,,,,,,3,,,left,1.099324902286753,,,,,,,,,,,,,,1025,2019_May_31_1249,mf_amp_cond1,3.0.7,59.9862824363924,
sharing,,&&&&&&&,images/symbols/symbol_14.png,condition_files/AMP_rep4.csv,left,loyalty.virtue,,,,,,,,,,,,,,,,,,,,,0,2,2,3,0,79,79,79,,,,,,,,,,,,,941.6817951331614,,,,,AMP_prac,right,0.6170763255795464,,,,,,,,,,,,,,,,,,,,,3,,,right,0.7319115730933845,,,,,,,,,,,,,,1025,2019_May_31_1249,mf_amp_cond1,3.0.7,59.9862824363924,
fair,,&&&&,images/symbols/symbol_52.png,condition_files/AMP_rep4.csv,left,fairness.virtue,,,,,,,,,,,,,,,,,,,,,0,2,2,3,0,80,80,80,,,,,,,,,,,,,942.3819951704936,,,,,AMP_prac,right,0.6170763255795464,,,,,,,,,,,,,,,,,,,,,3,,,right,0.48291055660229176,,,,,,,,,,,,,,1025,2019_May_31_1249,mf_amp_cond1,3.0.7,59.9862824363924,
agreement,,&&&&&&&&&,images/symbols/symbol_69.png,condition_files/AMP_rep4.csv,left,fairness.virtue,,,,,,,,,,,,,,,,,,,,,0,2,2,3,0,81,81,81,,,,,,,,,,,,,943.5489655118436,,,,,AMP_prac,right,0.6170763255795464,,,,,,,,,,,,,,,,,,,,,3,,,left,0.9491160610923544,,,,,,,,,,,,,,1025,2019_May_31_1249,mf_amp_cond1,3.0.7,59.9862824363924,
,,,,condition_files/AMP_rep4.csv,,,,,,,,,,,,,,,,,,,,,,,0,2,2,3,,,,,,,,,,,,,,,,,,,,,,,,,,,,,,,,,,,,,,,,,,,,,,,,,,right,1.2172359192045406,,,,,,,,,,,,1025,2019_May_31_1249,mf_amp_cond1,3.0.7,59.9862824363924,
daizz,,&&&&&,images/symbols/symbol_73.png,condition_files/AMP_rep3.csv,None,nonword,,,,,,,,,,,,,,,,,,,,,0,3,3,2,0,0,0,0,,,,,,,,,,,,,945.7330572089413,,,,,AMP_prac,right,0.6170763255795464,,,,,,,,,,,,,,,,,,,,,3,,,right,0.715815260191448,,,,,,,,,,,,,,1025,2019_May_31_1249,mf_amp_cond1,3.0.7,59.9862824363924,
wreize,,&&&&&&,images/symbols/symbol_60.png,condition_files/AMP_rep3.csv,None,nonword,,,,,,,,,,,,,,,,,,,,,0,3,3,2,0,1,1,1,,,,,,,,,,,,,946.4330747526838,,,,,AMP_prac,right,0.6170763255795464,,,,,,,,,,,,,,,,,,,,,3,,,right,0.48213022854179144,,,,,,,,,,,,,,1025,2019_May_31_1249,mf_amp_cond1,3.0.7,59.9862824363924,
crarft,,&&&&&&,images/symbols/symbol_51.png,condition_files/AMP_rep3.csv,None,nonword,,,,,,,,,,,,,,,,,,,,,0,3,3,2,0,2,2,2,,,,,,,,,,,,,947.4333393522538,,,,,AMP_prac,right,0.6170763255795464,,,,,,,,,,,,,,,,,,,,,3,,,right,0.7823638138361275,,,,,,,,,,,,,,1025,2019_May_31_1249,mf_amp_cond1,3.0.7,59.9862824363924,
rebels,,&&&&&&,images/symbols/symbol_46.png,condition_files/AMP_rep3.csv,right,authority.vice,,,,,,,,,,,,,,,,,,,,,0,3,3,2,0,3,3,3,,,,,,,,,,,,,948.4002817263827,,,,,AMP_prac,right,0.6170763255795464,,,,,,,,,,,,,,,,,,,,,3,,,right,0.7337884659646079,,,,,,,,,,,,,,1025,2019_May_31_1249,mf_amp_cond1,3.0.7,59.9862824363924,
loyalty,,&&&&&&&,images/symbols/symbol_32.png,condition_files/AMP_rep3.csv,left,loyalty.virtue,,,,,,,,,,,,,,,,,,,,,0,3,3,2,0,4,4,4,,,,,,,,,,,,,949.1337978952797,,,,,AMP_prac,right,0.6170763255795464,,,,,,,,,,,,,,,,,,,,,3,,,left,0.5151589891174808,,,,,,,,,,,,,,1025,2019_May_31_1249,mf_amp_cond1,3.0.7,59.9862824363924,
injured,,&&&&&&&,images/symbols/symbol_9.png,condition_files/AMP_rep3.csv,right,care.vice,,,,,,,,,,,,,,,,,,,,,0,3,3,2,0,5,5,5,,,,,,,,,,,,,950.2174241858302,,,,,AMP_prac,right,0.6170763255795464,,,,,,,,,,,,,,,,,,,,,3,,,right,0.8657200523884967,,,,,,,,,,,,,,1025,2019_May_31_1249,mf_amp_cond1,3.0.7,59.9862824363924,
attacks,,&&&&&&&,images/symbols/symbol_21.png,condition_files/AMP_rep3.csv,right,care.vice,,,,,,,,,,,,,,,,,,,,,0,3,3,2,0,6,6,6,,,,,,,,,,,,,951.1343354333658,,,,,AMP_prac,right,0.6170763255795464,,,,,,,,,,,,,,,,,,,,,3,,,right,0.6993825047975406,,,,,,,,,,,,,,1025,2019_May_31_1249,mf_amp_cond1,3.0.7,59.9862824363924,
safety,,&&&&&&,images/symbols/symbol_80.png,condition_files/AMP_rep3.csv,left,care.virtue,,,,,,,,,,,,,,,,,,,,,0,3,3,2,0,7,7,7,,,,,,,,,,,,,952.0345743426587,,,,,AMP_prac,right,0.6170763255795464,,,,,,,,,,,,,,,,,,,,,3,,,left,0.6829394862288609,,,,,,,,,,,,,,1025,2019_May_31_1249,mf_amp_cond1,3.0.7,59.9862824363924,
commitment,,&&&&&&&&&&,images/symbols/symbol_65.png,condition_files/AMP_rep3.csv,left,sanctity.virtue,,,,,,,,,,,,,,,,,,,,,0,3,3,2,0,8,8,8,,,,,,,,,,,,,952.7514293988934,,,,,AMP_prac,right,0.6170763255795464,,,,,,,,,,,,,,,,,,,,,3,,,right,0.48369794082827866,,,,,,,,,,,,,,1025,2019_May_31_1249,mf_amp_cond1,3.0.7,59.9862824363924,
strong,,&&&&&&,images/symbols/symbol_70.png,condition_files/AMP_rep3.csv,left,loyalty.virtue,,,,,,,,,,,,,,,,,,,,,0,3,3,2,0,9,9,9,,,,,,,,,,,,,953.5516548056621,,,,,AMP_prac,right,0.6170763255795464,,,,,,,,,,,,,,,,,,,,,3,,,right,0.5820738126058131,,,,,,,,,,,,,,1025,2019_May_31_1249,mf_amp_cond1,3.0.7,59.9862824363924,
bluphte,,&&&&&&&,images/symbols/symbol_64.png,condition_files/AMP_rep3.csv,None,nonword,,,,,,,,,,,,,,,,,,,,,0,3,3,2,0,10,10,10,,,,,,,,,,,,,954.7353779876139,,,,,AMP_prac,right,0.6170763255795464,,,,,,,,,,,,,,,,,,,,,3,,,right,0.9657938515301794,,,,,,,,,,,,,,1025,2019_May_31_1249,mf_amp_cond1,3.0.7,59.9862824363924,
increase,,&&&&&&&&,images/symbols/symbol_6.png,condition_files/AMP_rep3.csv,left,care.virtue,,,,,,,,,,,,,,,,,,,,,0,3,3,2,0,11,11,11,,,,,,,,,,,,,955.5188441392966,,,,,AMP_prac,right,0.6170763255795464,,,,,,,,,,,,,,,,,,,,,3,,,right,0.5503892180277035,,,,,,,,,,,,,,1025,2019_May_31_1249,mf_amp_cond1,3.0.7,59.9862824363924,
wrantse,,&&&&&&&,images/symbols/symbol_26.png,condition_files/AMP_rep3.csv,None,nonword,,,,,,,,,,,,,,,,,,,,,0,3,3,2,0,12,12,12,,,,,,,,,,,,,956.3524004311766,,,,,AMP_prac,right,0.6170763255795464,,,,,,,,,,,,,,,,,,,,,3,,,right,0.6149152688449249,,,,,,,,,,,,,,1025,2019_May_31_1249,mf_amp_cond1,3.0.7,59.9862824363924,
slypped,,&&&&&&&,images/symbols/symbol_79.png,condition_files/AMP_rep3.csv,None,nonword,,,,,,,,,,,,,,,,,,,,,0,3,3,2,0,13,13,13,,,,,,,,,,,,,957.1859727593837,,,,,AMP_prac,right,0.6170763255795464,,,,,,,,,,,,,,,,,,,,,3,,,right,0.6156968798022717,,,,,,,,,,,,,,1025,2019_May_31_1249,mf_amp_cond1,3.0.7,59.9862824363924,
safe,,&&&&,images/symbols/symbol_74.png,condition_files/AMP_rep3.csv,left,care.virtue,,,,,,,,,,,,,,,,,,,,,0,3,3,2,0,14,14,14,,,,,,,,,,,,,957.986174432328,,,,,AMP_prac,right,0.6170763255795464,,,,,,,,,,,,,,,,,,,,,3,,,left,0.5670641219476238,,,,,,,,,,,,,,1025,2019_May_31_1249,mf_amp_cond1,3.0.7,59.9862824363924,
penalty,,&&&&&&&,images/symbols/symbol_18.png,condition_files/AMP_rep3.csv,right,authority.vice,,,,,,,,,,,,,,,,,,,,,0,3,3,2,0,15,15,15,,,,,,,,,,,,,958.9530972420471,,,,,AMP_prac,right,0.6170763255795464,,,,,,,,,,,,,,,,,,,,,3,,,right,0.7485877600265667,,,,,,,,,,,,,,1025,2019_May_31_1249,mf_amp_cond1,3.0.7,59.9862824363924,
suicide,,&&&&&&&,images/symbols/symbol_33.png,condition_files/AMP_rep3.csv,right,care.vice,,,,,,,,,,,,,,,,,,,,,0,3,3,2,0,16,16,16,,,,,,,,,,,,,959.8866866008611,,,,,AMP_prac,right,0.6170763255795464,,,,,,,,,,,,,,,,,,,,,3,,,right,0.7157164763193578,,,,,,,,,,,,,,1025,2019_May_31_1249,mf_amp_cond1,3.0.7,59.9862824363924,
terrorist,,&&&&&&&&&,images/symbols/symbol_3.png,condition_files/AMP_rep3.csv,right,loyalty.vice,,,,,,,,,,,,,,,,,,,,,0,3,3,2,0,17,17,17,,,,,,,,,,,,,961.0536806760356,,,,,AMP_prac,right,0.6170763255795464,,,,,,,,,,,,,,,,,,,,,3,,,right,0.9492164485855028,,,,,,,,,,,,,,1025,2019_May_31_1249,mf_amp_cond1,3.0.7,59.9862824363924,
love,,&&&&,images/symbols/symbol_25.png,condition_files/AMP_rep3.csv,left,loyalty.virtue,,,,,,,,,,,,,,,,,,,,,0,3,3,2,0,18,18,18,,,,,,,,,,,,,962.0872796887998,,,,,AMP_prac,right,0.6170763255795464,,,,,,,,,,,,,,,,,,,,,3,,,right,0.8156414582626894,,,,,,,,,,,,,,1025,2019_May_31_1249,mf_amp_cond1,3.0.7,59.9862824363924,
unpleasant,,&&&&&&&&&,images/symbols/symbol_78.png,condition_files/AMP_rep3.csv,left,control,,,,,,,,,,,,,,,,,,,,,0,3,3,2,0,19,19,19,,,,,,,,,,,,,963.1542333203834,,,,,AMP_prac,right,0.6170763255795464,,,,,,,,,,,,,,,,,,,,,3,,,left,0.8488498257938772,,,,,,,,,,,,,,1025,2019_May_31_1249,mf_amp_cond1,3.0.7,59.9862824363924,
ability,,&&&&&&&,images/symbols/symbol_5.png,condition_files/AMP_rep3.csv,left,authority.virtue,,,,,,,,,,,,,,,,,,,,,0,3,3,2,0,20,20,20,,,,,,,,,,,,,963.9545658498537,,,,,AMP_prac,right,0.6170763255795464,,,,,,,,,,,,,,,,,,,,,3,,,left,0.5827075687702745,,,,,,,,,,,,,,1025,2019_May_31_1249,mf_amp_cond1,3.0.7,59.9862824363924,
pleasant,,&&&&&&&,images/symbols/symbol_56.png,condition_files/AMP_rep3.csv,right,control,,,,,,,,,,,,,,,,,,,,,0,3,3,2,0,21,21,21,,,,,,,,,,,,,964.771452690009,,,,,AMP_prac,right,0.6170763255795464,,,,,,,,,,,,,,,,,,,,,3,,,right,0.5837778338463977,,,,,,,,,,,,,,1025,2019_May_31_1249,mf_amp_cond1,3.0.7,59.9862824363924,
corruption,,&&&&&&&&&&,images/symbols/symbol_16.png,condition_files/AMP_rep3.csv,right,sanctity.vice,,,,,,,,,,,,,,,,,,,,,0,3,3,2,0,22,22,22,,,,,,,,,,,,,965.6549262504559,,,,,AMP_prac,right,0.6170763255795464,,,,,,,,,,,,,,,,,,,,,3,,,right,0.6656375614693388,,,,,,,,,,,,,,1025,2019_May_31_1249,mf_amp_cond1,3.0.7,59.9862824363924,
fraud,,&&&&&,images/symbols/symbol_19.png,condition_files/AMP_rep3.csv,right,fairness.vice,,,,,,,,,,,,,,,,,,,,,0,3,3,2,0,23,23,23,,,,,,,,,,,,,966.6051558747422,,,,,AMP_prac,right,0.6170763255795464,,,,,,,,,,,,,,,,,,,,,3,,,right,0.732372778118588,,,,,,,,,,,,,,1025,2019_May_31_1249,mf_amp_cond1,3.0.7,59.9862824363924,
chawde,,&&&&&&,images/symbols/symbol_62.png,condition_files/AMP_rep3.csv,None,nonword,,,,,,,,,,,,,,,,,,,,,0,3,3,2,0,24,24,24,,,,,,,,,,,,,967.4720667855581,,,,,AMP_prac,right,0.6170763255795464,,,,,,,,,,,,,,,,,,,,,3,,,right,0.6490630449261516,,,,,,,,,,,,,,1025,2019_May_31_1249,mf_amp_cond1,3.0.7,59.9862824363924,
abuse,,&&&&&,images/symbols/symbol_2.png,condition_files/AMP_rep3.csv,right,sanctity.vice,,,,,,,,,,,,,,,,,,,,,0,3,3,2,0,25,25,25,,,,,,,,,,,,,968.4890005160123,,,,,AMP_prac,right,0.6170763255795464,,,,,,,,,,,,,,,,,,,,,3,,,right,0.7989370474824682,,,,,,,,,,,,,,1025,2019_May_31_1249,mf_amp_cond1,3.0.7,59.9862824363924,
victims,,&&&&&&&,images/symbols/symbol_53.png,condition_files/AMP_rep3.csv,right,care.vice,,,,,,,,,,,,,,,,,,,,,0,3,3,2,0,26,26,26,,,,,,,,,,,,,969.5391602539457,,,,,AMP_prac,right,0.6170763255795464,,,,,,,,,,,,,,,,,,,,,3,,,left,0.8170061506098136,,,,,,,,,,,,,,1025,2019_May_31_1249,mf_amp_cond1,3.0.7,59.9862824363924,
praised,,&&&&&&&,images/symbols/symbol_68.png,condition_files/AMP_rep3.csv,left,loyalty.virtue,,,,,,,,,,,,,,,,,,,,,0,3,3,2,0,27,27,27,,,,,,,,,,,,,970.4728663573042,,,,,AMP_prac,right,0.6170763255795464,,,,,,,,,,,,,,,,,,,,,3,,,left,0.7151038881856948,,,,,,,,,,,,,,1025,2019_May_31_1249,mf_amp_cond1,3.0.7,59.9862824363924,
scourld,,&&&&&&&,images/symbols/symbol_44.png,condition_files/AMP_rep3.csv,None,nonword,,,,,,,,,,,,,,,,,,,,,0,3,3,2,0,28,28,28,,,,,,,,,,,,,971.4898158033611,,,,,AMP_prac,right,0.6170763255795464,,,,,,,,,,,,,,,,,,,,,3,,,right,0.7990188327385113,,,,,,,,,,,,,,1025,2019_May_31_1249,mf_amp_cond1,3.0.7,59.9862824363924,
perfect,,&&&&&&&,images/symbols/symbol_12.png,condition_files/AMP_rep3.csv,left,sanctity.virtue,,,,,,,,,,,,,,,,,,,,,0,3,3,2,0,29,29,29,,,,,,,,,,,,,972.2566776109161,,,,,AMP_prac,right,0.6170763255795464,,,,,,,,,,,,,,,,,,,,,3,,,right,0.533693466684781,,,,,,,,,,,,,,1025,2019_May_31_1249,mf_amp_cond1,3.0.7,59.9862824363924,
racist,,&&&&&&,images/symbols/symbol_77.png,condition_files/AMP_rep3.csv,right,sanctity.vice,,,,,,,,,,,,,,,,,,,,,0,3,3,2,0,30,30,30,,,,,,,,,,,,,973.0735606023809,,,,,AMP_prac,right,0.6170763255795464,,,,,,,,,,,,,,,,,,,,,3,,,right,0.5984193303156644,,,,,,,,,,,,,,1025,2019_May_31_1249,mf_amp_cond1,3.0.7,59.9862824363924,
promised,,&&&&&&&&,images/symbols/symbol_75.png,condition_files/AMP_rep3.csv,left,loyalty.virtue,,,,,,,,,,,,,,,,,,,,,0,3,3,2,0,31,31,31,,,,,,,,,,,,,974.0738325787243,,,,,AMP_prac,right,0.6170763255795464,,,,,,,,,,,,,,,,,,,,,3,,,left,0.7825527217937633,,,,,,,,,,,,,,1025,2019_May_31_1249,mf_amp_cond1,3.0.7,59.9862824363924,
prinse,,&&&&&&,images/symbols/symbol_20.png,condition_files/AMP_rep3.csv,None,nonword,,,,,,,,,,,,,,,,,,,,,0,3,3,2,0,32,32,32,,,,,,,,,,,,,974.9407268116483,,,,,AMP_prac,right,0.6170763255795464,,,,,,,,,,,,,,,,,,,,,3,,,right,0.6495867917547002,,,,,,,,,,,,,,1025,2019_May_31_1249,mf_amp_cond1,3.0.7,59.9862824363924,
army,,&&&&,images/symbols/symbol_40.png,condition_files/AMP_rep3.csv,right,loyalty.vice,,,,,,,,,,,,,,,,,,,,,0,3,3,2,0,33,33,33,,,,,,,,,,,,,975.7242789180018,,,,,AMP_prac,right,0.6170763255795464,,,,,,,,,,,,,,,,,,,,,3,,,left,0.565441565355286,,,,,,,,,,,,,,1025,2019_May_31_1249,mf_amp_cond1,3.0.7,59.9862824363924,
gun,,&&&,images/symbols/symbol_35.png,condition_files/AMP_rep3.csv,right,authority.vice,,,,,,,,,,,,,,,,,,,,,0,3,3,2,0,34,34,34,,,,,,,,,,,,,976.5911782826297,,,,,AMP_prac,right,0.6170763255795464,,,,,,,,,,,,,,,,,,,,,3,,,right,0.6492070512613282,,,,,,,,,,,,,,1025,2019_May_31_1249,mf_amp_cond1,3.0.7,59.9862824363924,
serial,,&&&&&&,images/symbols/symbol_23.png,condition_files/AMP_rep3.csv,right,sanctity.vice,,,,,,,,,,,,,,,,,,,,,0,3,3,2,0,35,35,35,,,,,,,,,,,,,977.6748039317317,,,,,AMP_prac,right,0.6170763255795464,,,,,,,,,,,,,,,,,,,,,3,,,right,0.8656818858580664,,,,,,,,,,,,,,1025,2019_May_31_1249,mf_amp_cond1,3.0.7,59.9862824363924,
lies,,&&&&,images/symbols/symbol_67.png,condition_files/AMP_rep3.csv,right,fairness.vice,,,,,,,,,,,,,,,,,,,,,0,3,3,2,0,36,36,36,,,,,,,,,,,,,978.7750967872562,,,,,AMP_prac,right,0.6170763255795464,,,,,,,,,,,,,,,,,,,,,3,,,left,0.8825046449201182,,,,,,,,,,,,,,1025,2019_May_31_1249,mf_amp_cond1,3.0.7,59.9862824363924,
peace,,&&&&&,images/symbols/symbol_7.png,condition_files/AMP_rep3.csv,left,care.virtue,,,,,,,,,,,,,,,,,,,,,0,3,3,2,0,37,37,37,,,,,,,,,,,,,979.7920350079658,,,,,AMP_prac,right,0.6170763255795464,,,,,,,,,,,,,,,,,,,,,3,,,right,0.7993482190649956,,,,,,,,,,,,,,1025,2019_May_31_1249,mf_amp_cond1,3.0.7,59.9862824363924,
ensure,,&&&&&&,images/symbols/symbol_50.png,condition_files/AMP_rep3.csv,left,fairness.virtue,,,,,,,,,,,,,,,,,,,,,0,3,3,2,0,38,38,38,,,,,,,,,,,,,980.9090120686451,,,,,AMP_prac,right,0.6170763255795464,,,,,,,,,,,,,,,,,,,,,3,,,right,0.8992841058643535,,,,,,,,,,,,,,1025,2019_May_31_1249,mf_amp_cond1,3.0.7,59.9862824363924,
illegal,,&&&&&&&,images/symbols/symbol_37.png,condition_files/AMP_rep3.csv,right,fairness.vice,,,,,,,,,,,,,,,,,,,,,0,3,3,2,0,39,39,39,,,,,,,,,,,,,981.9592879096745,,,,,AMP_prac,right,0.6170763255795464,,,,,,,,,,,,,,,,,,,,,3,,,right,0.8171299510868266,,,,,,,,,,,,,,1025,2019_May_31_1249,mf_amp_cond1,3.0.7,59.9862824363924,
civilians,,&&&&&&&&&,images/symbols/symbol_43.png,condition_files/AMP_rep3.csv,right,care.vice,,,,,,,,,,,,,,,,,,,,,0,3,3,2,0,40,40,40,,,,,,,,,,,,,983.3263214983745,,,,,AMP_prac,right,0.6170763255795464,,,,,,,,,,,,,,,,,,,,,3,,,left,1.148311742581427,,,,,,,,,,,,,,1025,2019_May_31_1249,mf_amp_cond1,3.0.7,59.9862824363924,
skypped,,&&&&&&&,images/symbols/symbol_31.png,condition_files/AMP_rep3.csv,None,nonword,,,,,,,,,,,,,,,,,,,,,0,3,3,2,0,41,41,41,,,,,,,,,,,,,984.4432815605542,,,,,AMP_prac,right,0.6170763255795464,,,,,,,,,,,,,,,,,,,,,3,,,left,0.9001327487640083,,,,,,,,,,,,,,1025,2019_May_31_1249,mf_amp_cond1,3.0.7,59.9862824363924,
violations,,&&&&&&&&&&,images/symbols/symbol_27.png,condition_files/AMP_rep3.csv,right,sanctity.vice,,,,,,,,,,,,,,,,,,,,,0,3,3,2,0,42,42,42,,,,,,,,,,,,,985.2935364901787,,,,,AMP_prac,right,0.6170763255795464,,,,,,,,,,,,,,,,,,,,,3,,,right,0.632416044245474,,,,,,,,,,,,,,1025,2019_May_31_1249,mf_amp_cond1,3.0.7,59.9862824363924,
respect,,&&&&&&&,images/symbols/symbol_10.png,condition_files/AMP_rep3.csv,left,sanctity.virtue,,,,,,,,,,,,,,,,,,,,,0,3,3,2,0,43,43,43,,,,,,,,,,,,,986.210473395884,,,,,AMP_prac,right,0.6170763255795464,,,,,,,,,,,,,,,,,,,,,3,,,left,0.6994027105392888,,,,,,,,,,,,,,1025,2019_May_31_1249,mf_amp_cond1,3.0.7,59.9862824363924,
freedom,,&&&&&&&,images/symbols/symbol_76.png,condition_files/AMP_rep3.csv,left,sanctity.virtue,,,,,,,,,,,,,,,,,,,,,0,3,3,2,0,44,44,44,,,,,,,,,,,,,987.0606657838216,,,,,AMP_prac,right,0.6170763255795464,,,,,,,,,,,,,,,,,,,,,3,,,right,0.632952299201861,,,,,,,,,,,,,,1025,2019_May_31_1249,mf_amp_cond1,3.0.7,59.9862824363924,
terrorists,,&&&&&&&&&&,images/symbols/symbol_29.png,condition_files/AMP_rep3.csv,right,fairness.vice,,,,,,,,,,,,,,,,,,,,,0,3,3,2,0,45,45,45,,,,,,,,,,,,,988.2109865585808,,,,,AMP_prac,right,0.6170763255795464,,,,,,,,,,,,,,,,,,,,,3,,,left,0.9323891993844882,,,,,,,,,,,,,,1025,2019_May_31_1249,mf_amp_cond1,3.0.7,59.9862824363924,
progress,,&&&&&&&&,images/symbols/symbol_30.png,condition_files/AMP_rep3.csv,left,authority.virtue,,,,,,,,,,,,,,,,,,,,,0,3,3,2,0,46,46,46,,,,,,,,,,,,,988.9447006159462,,,,,AMP_prac,right,0.6170763255795464,,,,,,,,,,,,,,,,,,,,,3,,,right,0.5160913417348638,,,,,,,,,,,,,,1025,2019_May_31_1249,mf_amp_cond1,3.0.7,59.9862824363924,
powerful,,&&&&&&&&,images/symbols/symbol_48.png,condition_files/AMP_rep3.csv,left,authority.virtue,,,,,,,,,,,,,,,,,,,,,0,3,3,2,0,47,47,47,,,,,,,,,,,,,989.7613876434043,,,,,AMP_prac,right,0.6170763255795464,,,,,,,,,,,,,,,,,,,,,3,,,right,0.5983510155929253,,,,,,,,,,,,,,1025,2019_May_31_1249,mf_amp_cond1,3.0.7,59.9862824363924,
riot,,&&&&,images/symbols/symbol_49.png,condition_files/AMP_rep3.csv,right,authority.vice,,,,,,,,,,,,,,,,,,,,,0,3,3,2,0,48,48,48,,,,,,,,,,,,,990.5449272415135,,,,,AMP_prac,right,0.6170763255795464,,,,,,,,,,,,,,,,,,,,,3,,,right,0.5503956325119361,,,,,,,,,,,,,,1025,2019_May_31_1249,mf_amp_cond1,3.0.7,59.9862824363924,
