words,masks,symbols,conditionfile,corr_ans,category,mask,LDT_trials_cond2.thisRepN,LDT_trials_cond2.thisTrialN,LDT_trials_cond2.thisN,LDT_trials_cond2.thisIndex,logo_trials.thisRepN,logo_trials.thisTrialN,logo_trials.thisN,logo_trials.thisIndex,AMP_pracs.thisRepN,AMP_pracs.thisTrialN,AMP_pracs.thisN,AMP_pracs.thisIndex,trials_loop.thisRepN,trials_loop.thisTrialN,trials_loop.thisN,trials_loop.thisIndex,AMP_trials.thisRepN,AMP_trials.thisTrialN,AMP_trials.thisN,AMP_trials.thisIndex,memtask_trials.thisRepN,memtask_trials.thisTrialN,memtask_trials.thisN,memtask_trials.thisIndex,LDT_cond1.thisRepN,LDT_cond1.thisTrialN,LDT_cond1.thisN,LDT_cond1.thisIndex,LDT_pracs.thisRepN,LDT_pracs.thisTrialN,LDT_pracs.thisN,LDT_pracs.thisIndex,LDT_trials.thisRepN,LDT_trials.thisTrialN,LDT_trials.thisN,LDT_trials.thisIndex,begin_key.keys,begin_key.rt,key_resp_instr.keys,key_resp_instr.rt,exp_time,resp_sym_rate.keys,resp_sym_rate.rt,sym_resp_1.keys,sym_resp_1.rt,sym_resp_2.keys,sym_resp_2.rt,sym_resp_trial.keys,sym_resp_trial.rt,symbol_index,resp_AMP_ready1.keys,resp_AMP_ready1.rt,resp_AMP.keys,resp_AMP.rt,task,keypress,RT,prime_dur,resp_AMP_ready.keys,resp_AMP_ready.rt,resp_AMP_trials.keys,resp_AMP_trials.rt,rest_key_resp.keys,rest_key_resp.rt,AMP_nonword_rating.response,AMP_nonword_rating.rt,AMP_word_rating.response,AMP_word_rating.rt,AMP_random_rating.response,AMP_random_rating.rt,key_resp_instr_memtask.keys,key_resp_instr_memtask.rt,resp_memtask.keys,resp_memtask.corr,resp_memtask.rt,corr,key_resp_LDT_instr.keys,key_resp_LDT_instr.rt,resp_LDT_prac.keys,resp_LDT_prac.rt,resp_LDT_ready.keys,resp_LDT_ready.rt,resp_LDT_trial.keys,resp_LDT_trial.rt,LDT_rating.response,LDT_rating.rt,participant ID,date,expName,psychopyVersion,frameRate,
,,,,,,,,,,,,,,,,,,,,,,,,,,,,,,,,,,,,,,,,,,,right,720.1937885493971,,,,,,,,,,,,,,,,,,,,,,,,,,,,,,,,,,,,,,,,,,,,,,,,,1026,2019_Jun_03_1651,mf_amp_cond1,3.0.7,59.972436556022,
,,,,,,,,,,,,,,,,,,,,,,,,,,,,,,,,,,,,,,,,,,,,,right,9.236100103938952,,,,,,,,,,,,,,,,,,,,,,,,,,,,,,,,,,,,,,,,,,,,,,,1026,2019_Jun_03_1651,mf_amp_cond1,3.0.7,59.972436556022,
,,,,,,,,,,,,,,,,,,,,,,,,,,,,,,,,,,,,,,,,,,,,,,,767.4697864184855,right,2.867687710910104,,,,,,,,,,,,,,,,,,,,,,,,,,,,,,,,,,,,,,,,,,,,1026,2019_Jun_03_1651,mf_amp_cond1,3.0.7,59.972436556022,
,,,,,,,,,,,,,,,,,,,,,,,,,,,,,,,,,,,,,,,,,,,,,,,832.3705311138183,,,left,3.317785356193781,,,,,,,,,,,,,,,,,,,,,,,,,,,,,,,,,,,,,,,,,,1026,2019_Jun_03_1651,mf_amp_cond1,3.0.7,59.972436556022,
,,,,,,,,,,,,,,,,,,,,,,,,,,,,,,,,,,,,,,,,,,,,,,,,,,,,right,2.6509601435391232,,,,,,,,,,,,,,,,,,,,,,,,,,,,,,,,,,,,,,,,1026,2019_Jun_03_1651,mf_amp_cond1,3.0.7,59.972436556022,
,,,,,,,,,,,,,,,,,,,,,,,,,,,,,,,,,,,,,,,,,,,,,,,854.3764161288273,,,,,,,left,0.5983426766470075,47,right,2.584273356711492,,,,,,,,,,,,,,,,,,,,,,,,,,,,,,,,,,,1026,2019_Jun_03_1651,mf_amp_cond1,3.0.7,59.972436556022,
scarf,&&&&&,images/symbols/symbol_54.png,,,,,,,,,,,,,0,0,0,3,,,,,,,,,,,,,,,,,,,,,,,,,,,,,1010.5186901905108,,,,,,,,,,,,left,1.5339927047025412,AMP_prac,left,1.5339927047025412,3,,,,,,,,,,,,,,,,,,,,,,,,,,,,,1026,2019_Jun_03_1651,mf_amp_cond1,3.0.7,59.972436556022,
keyboard,&&&&&&&&,images/symbols/symbol_40.png,,,,,,,,,,,,,0,1,1,2,,,,,,,,,,,,,,,,,,,,,,,,,,,,,1013.3026618073927,,,,,,,,,,,,left,2.5509033428970724,AMP_prac,left,2.5509033428970724,3,,,,,,,,,,,,,,,,,,,,,,,,,,,,,1026,2019_Jun_03_1651,mf_amp_cond1,3.0.7,59.972436556022,
banana,&&&&&&,images/symbols/symbol_68.png,,,,,,,,,,,,,0,2,2,1,,,,,,,,,,,,,,,,,,,,,,,,,,,,,1015.2198475970654,,,,,,,,,,,,left,1.6840302778873593,AMP_prac,left,1.6840302778873593,3,,,,,,,,,,,,,,,,,,,,,,,,,,,,,1026,2019_Jun_03_1651,mf_amp_cond1,3.0.7,59.972436556022,
car,&&&,images/symbols/symbol_9.png,,,,,,,,,,,,,0,3,3,0,,,,,,,,,,,,,,,,,,,,,,,,,,,,,1016.4535066498211,,,,,,,,,,,,left,1.01506453496404,AMP_prac,left,1.01506453496404,3,,,,,,,,,,,,,,,,,,,,,,,,,,,,,1026,2019_Jun_03_1651,mf_amp_cond1,3.0.7,59.972436556022,
,,,,,,,,,,,,,,,,,,,,,,,,,,,,,,,,,,,,,,,,,,,,,,,,,,,,,,,,,,,,,,,,,right,2.0507995878579095,,,,,,,,,,,,,,,,,,,,,,,,,,,1026,2019_Jun_03_1651,mf_amp_cond1,3.0.7,59.972436556022,
arrests,&&&&&&&,images/symbols/symbol_47.png,condition_files/AMP_rep3.csv,right,authority.vice,,,,,,,,,,,,,,0,0,0,2,0,0,0,0,,,,,,,,,,,,,,,,,,,,,1040.7935433858074,,,,,,,,,,,,,,AMP_prac,left,1.01506453496404,3,,,left,2.0174638917669654,,,,,,,,,,,,,,,,,,,,,,,,,1026,2019_Jun_03_1651,mf_amp_cond1,3.0.7,59.972436556022,
fair,&&&&,images/symbols/symbol_52.png,condition_files/AMP_rep3.csv,left,fairness.virtue,,,,,,,,,,,,,,0,0,0,2,0,1,1,1,,,,,,,,,,,,,,,,,,,,,1041.893567472347,,,,,,,,,,,,,,AMP_prac,left,1.01506453496404,3,,,left,0.8670244480017573,,,,,,,,,,,,,,,,,,,,,,,,,1026,2019_Jun_03_1651,mf_amp_cond1,3.0.7,59.972436556022,
growth,&&&&&&,images/symbols/symbol_73.png,condition_files/AMP_rep3.csv,left,care.virtue,,,,,,,,,,,,,,0,0,0,2,0,2,2,2,,,,,,,,,,,,,,,,,,,,,1042.8606554564321,,,,,,,,,,,,,,AMP_prac,left,1.01506453496404,3,,,left,0.7485415752744302,,,,,,,,,,,,,,,,,,,,,,,,,1026,2019_Jun_03_1651,mf_amp_cond1,3.0.7,59.972436556022,
racist,&&&&&&,images/symbols/symbol_13.png,condition_files/AMP_rep3.csv,right,sanctity.vice,,,,,,,,,,,,,,0,0,0,2,0,3,3,3,,,,,,,,,,,,,,,,,,,,,1043.6941973156063,,,,,,,,,,,,,,AMP_prac,left,1.01506453496404,3,,,right,0.615909842425026,,,,,,,,,,,,,,,,,,,,,,,,,1026,2019_Jun_03_1651,mf_amp_cond1,3.0.7,59.972436556022,
accused,&&&&&&&,images/symbols/symbol_6.png,condition_files/AMP_rep3.csv,right,fairness.vice,,,,,,,,,,,,,,0,0,0,2,0,4,4,4,,,,,,,,,,,,,,,,,,,,,1044.5277366089867,,,,,,,,,,,,,,AMP_prac,left,1.01506453496404,3,,,right,0.6004068739712238,,,,,,,,,,,,,,,,,,,,,,,,,1026,2019_Jun_03_1651,mf_amp_cond1,3.0.7,59.972436556022,
praise,&&&&&&,images/symbols/symbol_20.png,condition_files/AMP_rep3.csv,left,authority.virtue,,,,,,,,,,,,,,0,0,0,2,0,5,5,5,,,,,,,,,,,,,,,,,,,,,1045.3112823007395,,,,,,,,,,,,,,AMP_prac,left,1.01506453496404,3,,,right,0.5654964096611366,,,,,,,,,,,,,,,,,,,,,,,,,1026,2019_Jun_03_1651,mf_amp_cond1,3.0.7,59.972436556022,
protesters,&&&&&&&&&&,images/symbols/symbol_25.png,condition_files/AMP_rep3.csv,right,authority.vice,,,,,,,,,,,,,,0,0,0,2,0,6,6,6,,,,,,,,,,,,,,,,,,,,,1046.278227240662,,,,,,,,,,,,,,AMP_prac,left,1.01506453496404,3,,,left,0.7491923298221081,,,,,,,,,,,,,,,,,,,,,,,,,1026,2019_Jun_03_1651,mf_amp_cond1,3.0.7,59.972436556022,
actively,&&&&&&&&,images/symbols/symbol_21.png,condition_files/AMP_rep3.csv,left,authority.virtue,,,,,,,,,,,,,,0,0,0,2,0,7,7,7,,,,,,,,,,,,,,,,,,,,,1047.628562512342,,,,,,,,,,,,,,AMP_prac,left,1.01506453496404,3,,,left,1.1328802962088957,,,,,,,,,,,,,,,,,,,,,,,,,1026,2019_Jun_03_1651,mf_amp_cond1,3.0.7,59.972436556022,
killed,&&&&&&,images/symbols/symbol_3.png,condition_files/AMP_rep3.csv,right,care.vice,,,,,,,,,,,,,,0,0,0,2,0,8,8,8,,,,,,,,,,,,,,,,,,,,,1048.6455331264297,,,,,,,,,,,,,,AMP_prac,left,1.01506453496404,3,,,left,0.799186572781764,,,,,,,,,,,,,,,,,,,,,,,,,1026,2019_Jun_03_1651,mf_amp_cond1,3.0.7,59.972436556022,
benefit,&&&&&&&,images/symbols/symbol_38.png,condition_files/AMP_rep3.csv,left,fairness.virtue,,,,,,,,,,,,,,0,0,0,2,0,9,9,9,,,,,,,,,,,,,,,,,,,,,1049.5457447740482,,,,,,,,,,,,,,AMP_prac,left,1.01506453496404,3,,,right,0.6825215793214738,,,,,,,,,,,,,,,,,,,,,,,,,1026,2019_Jun_03_1651,mf_amp_cond1,3.0.7,59.972436556022,
officers,&&&&&&&&,images/symbols/symbol_7.png,condition_files/AMP_rep3.csv,right,authority.vice,,,,,,,,,,,,,,0,0,0,2,0,10,10,10,,,,,,,,,,,,,,,,,,,,,1050.3626531029586,,,,,,,,,,,,,,AMP_prac,left,1.01506453496404,3,,,right,0.5993523243814707,,,,,,,,,,,,,,,,,,,,,,,,,1026,2019_Jun_03_1651,mf_amp_cond1,3.0.7,59.972436556022,
gun,&&&,images/symbols/symbol_74.png,condition_files/AMP_rep3.csv,right,authority.vice,,,,,,,,,,,,,,0,0,0,2,0,11,11,11,,,,,,,,,,,,,,,,,,,,,1051.2295226398855,,,,,,,,,,,,,,AMP_prac,left,1.01506453496404,3,,,left,0.6337307030335069,,,,,,,,,,,,,,,,,,,,,,,,,1026,2019_Jun_03_1651,mf_amp_cond1,3.0.7,59.972436556022,
lies,&&&&,images/symbols/symbol_36.png,condition_files/AMP_rep3.csv,right,fairness.vice,,,,,,,,,,,,,,0,0,0,2,0,12,12,12,,,,,,,,,,,,,,,,,,,,,1052.2798209318426,,,,,,,,,,,,,,AMP_prac,left,1.01506453496404,3,,,right,0.8319799199234694,,,,,,,,,,,,,,,,,,,,,,,,,1026,2019_Jun_03_1651,mf_amp_cond1,3.0.7,59.972436556022,
riot,&&&&,images/symbols/symbol_70.png,condition_files/AMP_rep3.csv,right,authority.vice,,,,,,,,,,,,,,0,0,0,2,0,13,13,13,,,,,,,,,,,,,,,,,,,,,1053.1800502194092,,,,,,,,,,,,,,AMP_prac,left,1.01506453496404,3,,,right,0.6670866048661992,,,,,,,,,,,,,,,,,,,,,,,,,1026,2019_Jun_03_1651,mf_amp_cond1,3.0.7,59.972436556022,
wheighlde,&&&&&&&&&,images/symbols/symbol_59.png,condition_files/AMP_rep3.csv,None,nonword,,,,,,,,,,,,,,0,0,0,2,0,14,14,14,,,,,,,,,,,,,,,,,,,,,1054.1303013324505,,,,,,,,,,,,,,AMP_prac,left,1.01506453496404,3,,,left,0.7319994522258639,,,,,,,,,,,,,,,,,,,,,,,,,1026,2019_Jun_03_1651,mf_amp_cond1,3.0.7,59.972436556022,
sharing,&&&&&&&,images/symbols/symbol_69.png,condition_files/AMP_rep3.csv,left,loyalty.virtue,,,,,,,,,,,,,,0,0,0,2,0,15,15,15,,,,,,,,,,,,,,,,,,,,,1055.0139047871344,,,,,,,,,,,,,,AMP_prac,left,1.01506453496404,3,,,left,0.6659326299559325,,,,,,,,,,,,,,,,,,,,,,,,,1026,2019_Jun_03_1651,mf_amp_cond1,3.0.7,59.972436556022,
perfect,&&&&&&&,images/symbols/symbol_18.png,condition_files/AMP_rep3.csv,left,sanctity.virtue,,,,,,,,,,,,,,0,0,0,2,0,16,16,16,,,,,,,,,,,,,,,,,,,,,1055.8974418514408,,,,,,,,,,,,,,AMP_prac,left,1.01506453496404,3,,,right,0.6504161910852417,,,,,,,,,,,,,,,,,,,,,,,,,1026,2019_Jun_03_1651,mf_amp_cond1,3.0.7,59.972436556022,
peaceful,&&&&&&&&,images/symbols/symbol_29.png,condition_files/AMP_rep3.csv,left,authority.virtue,,,,,,,,,,,,,,0,0,0,2,0,17,17,17,,,,,,,,,,,,,,,,,,,,,1056.8810411688173,,,,,,,,,,,,,,AMP_prac,left,1.01506453496404,3,,,left,0.765443874639459,,,,,,,,,,,,,,,,,,,,,,,,,1026,2019_Jun_03_1651,mf_amp_cond1,3.0.7,59.972436556022,
respect,&&&&&&&,images/symbols/symbol_34.png,condition_files/AMP_rep3.csv,left,sanctity.virtue,,,,,,,,,,,,,,0,0,0,2,0,18,18,18,,,,,,,,,,,,,,,,,,,,,1058.414787876187,,,,,,,,,,,,,,AMP_prac,left,1.01506453496404,3,,,left,1.3160011533182114,,,,,,,,,,,,,,,,,,,,,,,,,1026,2019_Jun_03_1651,mf_amp_cond1,3.0.7,59.972436556022,
harassment,&&&&&&&&&&,images/symbols/symbol_79.png,condition_files/AMP_rep3.csv,right,sanctity.vice,,,,,,,,,,,,,,0,0,0,2,0,19,19,19,,,,,,,,,,,,,,,,,,,,,1059.848498309264,,,,,,,,,,,,,,AMP_prac,left,1.01506453496404,3,,,right,1.2159507671603933,,,,,,,,,,,,,,,,,,,,,,,,,1026,2019_Jun_03_1651,mf_amp_cond1,3.0.7,59.972436556022,
ability,&&&&&&&,images/symbols/symbol_41.png,condition_files/AMP_rep3.csv,left,authority.virtue,,,,,,,,,,,,,,0,0,0,2,0,20,20,20,,,,,,,,,,,,,,,,,,,,,1060.8821184899425,,,,,,,,,,,,,,AMP_prac,left,1.01506453496404,3,,,left,0.8162979858461767,,,,,,,,,,,,,,,,,,,,,,,,,1026,2019_Jun_03_1651,mf_amp_cond1,3.0.7,59.972436556022,
safe,&&&&,images/symbols/symbol_81.png,condition_files/AMP_rep3.csv,left,care.virtue,,,,,,,,,,,,,,0,0,0,2,0,21,21,21,,,,,,,,,,,,,,,,,,,,,1061.782368303975,,,,,,,,,,,,,,AMP_prac,left,1.01506453496404,3,,,left,0.6670936609152704,,,,,,,,,,,,,,,,,,,,,,,,,1026,2019_Jun_03_1651,mf_amp_cond1,3.0.7,59.972436556022,
abuse,&&&&&,images/symbols/symbol_58.png,condition_files/AMP_rep3.csv,right,sanctity.vice,,,,,,,,,,,,,,0,0,0,2,0,22,22,22,,,,,,,,,,,,,,,,,,,,,1062.5659040532773,,,,,,,,,,,,,,AMP_prac,left,1.01506453496404,3,,,left,0.5503847277723253,,,,,,,,,,,,,,,,,,,,,,,,,1026,2019_Jun_03_1651,mf_amp_cond1,3.0.7,59.972436556022,
interests,&&&&&&&&&,images/symbols/symbol_54.png,condition_files/AMP_rep3.csv,left,fairness.virtue,,,,,,,,,,,,,,0,0,0,2,0,23,23,23,,,,,,,,,,,,,,,,,,,,,1063.4495043008355,,,,,,,,,,,,,,AMP_prac,left,1.01506453496404,3,,,left,0.6654274854809046,,,,,,,,,,,,,,,,,,,,,,,,,1026,2019_Jun_03_1651,mf_amp_cond1,3.0.7,59.972436556022,
fourz,&&&&&,images/symbols/symbol_77.png,condition_files/AMP_rep3.csv,None,nonword,,,,,,,,,,,,,,0,0,0,2,0,24,24,24,,,,,,,,,,,,,,,,,,,,,1064.6498129040701,,,,,,,,,,,,,,AMP_prac,left,1.01506453496404,3,,,left,0.9827028861036524,,,,,,,,,,,,,,,,,,,,,,,,,1026,2019_Jun_03_1651,mf_amp_cond1,3.0.7,59.972436556022,
police,&&&&&&,images/symbols/symbol_45.png,condition_files/AMP_rep3.csv,right,authority.vice,,,,,,,,,,,,,,0,0,0,2,0,25,25,25,,,,,,,,,,,,,,,,,,,,,1065.5667286417447,,,,,,,,,,,,,,AMP_prac,left,1.01506453496404,3,,,left,0.6992170098237693,,,,,,,,,,,,,,,,,,,,,,,,,1026,2019_Jun_03_1651,mf_amp_cond1,3.0.7,59.972436556022,
thinx,&&&&&,images/symbols/symbol_76.png,condition_files/AMP_rep3.csv,None,nonword,,,,,,,,,,,,,,0,0,0,2,0,26,26,26,,,,,,,,,,,,,,,,,,,,,1066.583645052975,,,,,,,,,,,,,,AMP_prac,left,1.01506453496404,3,,,left,0.799718979280442,,,,,,,,,,,,,,,,,,,,,,,,,1026,2019_Jun_03_1651,mf_amp_cond1,3.0.7,59.972436556022,
death,&&&&&,images/symbols/symbol_1.png,condition_files/AMP_rep3.csv,right,care.vice,,,,,,,,,,,,,,0,0,0,2,0,27,27,27,,,,,,,,,,,,,,,,,,,,,1067.4172077594558,,,,,,,,,,,,,,AMP_prac,left,1.01506453496404,3,,,left,0.6155454968102276,,,,,,,,,,,,,,,,,,,,,,,,,1026,2019_Jun_03_1651,mf_amp_cond1,3.0.7,59.972436556022,
commitment,&&&&&&&&&&,images/symbols/symbol_42.png,condition_files/AMP_rep3.csv,left,sanctity.virtue,,,,,,,,,,,,,,0,0,0,2,0,28,28,28,,,,,,,,,,,,,,,,,,,,,1068.4008009829558,,,,,,,,,,,,,,AMP_prac,left,1.01506453496404,3,,,left,0.765969866537489,,,,,,,,,,,,,,,,,,,,,,,,,1026,2019_Jun_03_1651,mf_amp_cond1,3.0.7,59.972436556022,
good,&&&&,images/symbols/symbol_65.png,condition_files/AMP_rep3.csv,left,care.virtue,,,,,,,,,,,,,,0,0,0,2,0,29,29,29,,,,,,,,,,,,,,,,,,,,,1069.1510138653684,,,,,,,,,,,,,,AMP_prac,left,1.01506453496404,3,,,left,0.5170560877304524,,,,,,,,,,,,,,,,,,,,,,,,,1026,2019_Jun_03_1651,mf_amp_cond1,3.0.7,59.972436556022,
credit,&&&&&&,images/symbols/symbol_11.png,condition_files/AMP_rep3.csv,left,fairness.virtue,,,,,,,,,,,,,,0,0,0,2,0,30,30,30,,,,,,,,,,,,,,,,,,,,,1069.9512148968643,,,,,,,,,,,,,,AMP_prac,left,1.01506453496404,3,,,left,0.5824185939272866,,,,,,,,,,,,,,,,,,,,,,,,,1026,2019_Jun_03_1651,mf_amp_cond1,3.0.7,59.972436556022,
values,&&&&&&,images/symbols/symbol_72.png,condition_files/AMP_rep3.csv,left,sanctity.virtue,,,,,,,,,,,,,,0,0,0,2,0,31,31,31,,,,,,,,,,,,,,,,,,,,,1070.734768927563,,,,,,,,,,,,,,AMP_prac,left,1.01506453496404,3,,,left,0.5658418323146179,,,,,,,,,,,,,,,,,,,,,,,,,1026,2019_Jun_03_1651,mf_amp_cond1,3.0.7,59.972436556022,
critics,&&&&&&&,images/symbols/symbol_60.png,condition_files/AMP_rep3.csv,right,loyalty.vice,,,,,,,,,,,,,,0,0,0,2,0,32,32,32,,,,,,,,,,,,,,,,,,,,,1071.551646145992,,,,,,,,,,,,,,AMP_prac,left,1.01506453496404,3,,,right,0.5991993377683684,,,,,,,,,,,,,,,,,,,,,,,,,1026,2019_Jun_03_1651,mf_amp_cond1,3.0.7,59.972436556022,
violations,&&&&&&&&&&,images/symbols/symbol_75.png,condition_files/AMP_rep3.csv,right,sanctity.vice,,,,,,,,,,,,,,0,0,0,2,0,33,33,33,,,,,,,,,,,,,,,,,,,,,1072.3518651382765,,,,,,,,,,,,,,AMP_prac,left,1.01506453496404,3,,,left,0.5826129543129355,,,,,,,,,,,,,,,,,,,,,,,,,1026,2019_Jun_03_1651,mf_amp_cond1,3.0.7,59.972436556022,
wraughsed,&&&&&&&&&,images/symbols/symbol_9.png,condition_files/AMP_rep3.csv,None,nonword,,,,,,,,,,,,,,0,0,0,2,0,34,34,34,,,,,,,,,,,,,,,,,,,,,1073.218760012649,,,,,,,,,,,,,,AMP_prac,left,1.01506453496404,3,,,right,0.6491836381610483,,,,,,,,,,,,,,,,,,,,,,,,,1026,2019_Jun_03_1651,mf_amp_cond1,3.0.7,59.972436556022,
scandal,&&&&&&&,images/symbols/symbol_63.png,condition_files/AMP_rep3.csv,right,sanctity.vice,,,,,,,,,,,,,,0,0,0,2,0,35,35,35,,,,,,,,,,,,,,,,,,,,,1074.0356539088534,,,,,,,,,,,,,,AMP_prac,left,1.01506453496404,3,,,left,0.599390490911901,,,,,,,,,,,,,,,,,,,,,,,,,1026,2019_Jun_03_1651,mf_amp_cond1,3.0.7,59.972436556022,
peizz,&&&&&,images/symbols/symbol_8.png,condition_files/AMP_rep3.csv,None,nonword,,,,,,,,,,,,,,0,0,0,2,0,36,36,36,,,,,,,,,,,,,,,,,,,,,1075.1692856678274,,,,,,,,,,,,,,AMP_prac,left,1.01506453496404,3,,,left,0.9161081477068365,,,,,,,,,,,,,,,,,,,,,,,,,1026,2019_Jun_03_1651,mf_amp_cond1,3.0.7,59.972436556022,
terrorist,&&&&&&&&&,images/symbols/symbol_37.png,condition_files/AMP_rep3.csv,right,loyalty.vice,,,,,,,,,,,,,,0,0,0,2,0,37,37,37,,,,,,,,,,,,,,,,,,,,,1076.0362219159724,,,,,,,,,,,,,,AMP_prac,left,1.01506453496404,3,,,left,0.6337720768060535,,,,,,,,,,,,,,,,,,,,,,,,,1026,2019_Jun_03_1651,mf_amp_cond1,3.0.7,59.972436556022,
pleasant,&&&&&&&,images/symbols/symbol_28.png,condition_files/AMP_rep3.csv,right,control,,,,,,,,,,,,,,0,0,0,2,0,38,38,38,,,,,,,,,,,,,,,,,,,,,1076.7363844282227,,,,,,,,,,,,,,AMP_prac,left,1.01506453496404,3,,,left,0.4821834691101685,,,,,,,,,,,,,,,,,,,,,,,,,1026,2019_Jun_03_1651,mf_amp_cond1,3.0.7,59.972436556022,
forced,&&&&&&,images/symbols/symbol_26.png,condition_files/AMP_rep3.csv,right,fairness.vice,,,,,,,,,,,,,,0,0,0,2,0,39,39,39,,,,,,,,,,,,,,,,,,,,,1077.4699121433077,,,,,,,,,,,,,,AMP_prac,left,1.01506453496404,3,,,left,0.5159110933309421,,,,,,,,,,,,,,,,,,,,,,,,,1026,2019_Jun_03_1651,mf_amp_cond1,3.0.7,59.972436556022,
crime,&&&&&,images/symbols/symbol_68.png,condition_files/AMP_rep3.csv,right,fairness.vice,,,,,,,,,,,,,,0,0,0,2,0,40,40,40,,,,,,,,,,,,,,,,,,,,,1078.2199912826763,,,,,,,,,,,,,,AMP_prac,left,1.01506453496404,3,,,left,0.5169063082430512,,,,,,,,,,,,,,,,,,,,,,,,,1026,2019_Jun_03_1651,mf_amp_cond1,3.0.7,59.972436556022,
snoze,&&&&&,images/symbols/symbol_46.png,condition_files/AMP_rep3.csv,None,nonword,,,,,,,,,,,,,,0,0,0,2,0,41,41,41,,,,,,,,,,,,,,,,,,,,,1079.1870375721483,,,,,,,,,,,,,,AMP_prac,left,1.01506453496404,3,,,right,0.7490961118601263,,,,,,,,,,,,,,,,,,,,,,,,,1026,2019_Jun_03_1651,mf_amp_cond1,3.0.7,59.972436556022,
strength,&&&&&&&&,images/symbols/symbol_16.png,condition_files/AMP_rep3.csv,left,sanctity.virtue,,,,,,,,,,,,,,0,0,0,2,0,42,42,42,,,,,,,,,,,,,,,,,,,,,1079.9705813396722,,,,,,,,,,,,,,AMP_prac,left,1.01506453496404,3,,,right,0.5661471642088145,,,,,,,,,,,,,,,,,,,,,,,,,1026,2019_Jun_03_1651,mf_amp_cond1,3.0.7,59.972436556022,
fraud,&&&&&,images/symbols/symbol_56.png,condition_files/AMP_rep3.csv,right,fairness.vice,,,,,,,,,,,,,,0,0,0,2,0,43,43,43,,,,,,,,,,,,,,,,,,,,,1080.654099416919,,,,,,,,,,,,,,AMP_prac,left,1.01506453496404,3,,,right,0.4658450075658038,,,,,,,,,,,,,,,,,,,,,,,,,1026,2019_Jun_03_1651,mf_amp_cond1,3.0.7,59.972436556022,
ban,&&&,images/symbols/symbol_78.png,condition_files/AMP_rep3.csv,right,loyalty.vice,,,,,,,,,,,,,,0,0,0,2,0,44,44,44,,,,,,,,,,,,,,,,,,,,,1081.4543139189482,,,,,,,,,,,,,,AMP_prac,left,1.01506453496404,3,,,left,0.5822585512651131,,,,,,,,,,,,,,,,,,,,,,,,,1026,2019_Jun_03_1651,mf_amp_cond1,3.0.7,59.972436556022,
energy,&&&&&&,images/symbols/symbol_23.png,condition_files/AMP_rep3.csv,left,sanctity.virtue,,,,,,,,,,,,,,0,0,0,2,0,45,45,45,,,,,,,,,,,,,,,,,,,,,1082.2378701948328,,,,,,,,,,,,,,AMP_prac,left,1.01506453496404,3,,,left,0.5658562650205567,,,,,,,,,,,,,,,,,,,,,,,,,1026,2019_Jun_03_1651,mf_amp_cond1,3.0.7,59.972436556022,
promote,&&&&&&&,images/symbols/symbol_40.png,condition_files/AMP_rep3.csv,left,sanctity.virtue,,,,,,,,,,,,,,0,0,0,2,0,46,46,46,,,,,,,,,,,,,,,,,,,,,1083.0380769994808,,,,,,,,,,,,,,AMP_prac,left,1.01506453496404,3,,,left,0.5825116046471521,,,,,,,,,,,,,,,,,,,,,,,,,1026,2019_Jun_03_1651,mf_amp_cond1,3.0.7,59.972436556022,
charges,&&&&&&&,images/symbols/symbol_32.png,condition_files/AMP_rep3.csv,right,fairness.vice,,,,,,,,,,,,,,0,0,0,2,0,47,47,47,,,,,,,,,,,,,,,,,,,,,1083.8049355996773,,,,,,,,,,,,,,AMP_prac,left,1.01506453496404,3,,,left,0.549233318772167,,,,,,,,,,,,,,,,,,,,,,,,,1026,2019_Jun_03_1651,mf_amp_cond1,3.0.7,59.972436556022,
promises,&&&&&&&&,images/symbols/symbol_67.png,condition_files/AMP_rep3.csv,left,fairness.virtue,,,,,,,,,,,,,,0,0,0,2,0,48,48,48,,,,,,,,,,,,,,,,,,,,,1084.7717490416253,,,,,,,,,,,,,,AMP_prac,left,1.01506453496404,3,,,left,0.7336457425262779,,,,,,,,,,,,,,,,,,,,,,,,,1026,2019_Jun_03_1651,mf_amp_cond1,3.0.7,59.972436556022,
victim,&&&&&&,images/symbols/symbol_33.png,condition_files/AMP_rep3.csv,right,care.vice,,,,,,,,,,,,,,0,0,0,2,0,49,49,49,,,,,,,,,,,,,,,,,,,,,1085.7054554655915,,,,,,,,,,,,,,AMP_prac,left,1.01506453496404,3,,,right,0.7155519434018061,,,,,,,,,,,,,,,,,,,,,,,,,1026,2019_Jun_03_1651,mf_amp_cond1,3.0.7,59.972436556022,
voter,&&&&&,images/symbols/symbol_27.png,condition_files/AMP_rep3.csv,right,fairness.vice,,,,,,,,,,,,,,0,0,0,2,0,50,50,50,,,,,,,,,,,,,,,,,,,,,1086.7724443771876,,,,,,,,,,,,,,AMP_prac,left,1.01506453496404,3,,,right,0.8492237931350246,,,,,,,,,,,,,,,,,,,,,,,,,1026,2019_Jun_03_1651,mf_amp_cond1,3.0.7,59.972436556022,
great,&&&&&,images/symbols/symbol_17.png,condition_files/AMP_rep3.csv,left,loyalty.virtue,,,,,,,,,,,,,,0,0,0,2,0,51,51,51,,,,,,,,,,,,,,,,,,,,,1087.6393065374577,,,,,,,,,,,,,,AMP_prac,left,1.01506453496404,3,,,left,0.6492202010704204,,,,,,,,,,,,,,,,,,,,,,,,,1026,2019_Jun_03_1651,mf_amp_cond1,3.0.7,59.972436556022,
serial,&&&&&&,images/symbols/symbol_5.png,condition_files/AMP_rep3.csv,right,sanctity.vice,,,,,,,,,,,,,,0,0,0,2,0,52,52,52,,,,,,,,,,,,,,,,,,,,,1088.8062832934083,,,,,,,,,,,,,,AMP_prac,left,1.01506453496404,3,,,left,0.9494108089711517,,,,,,,,,,,,,,,,,,,,,,,,,1026,2019_Jun_03_1651,mf_amp_cond1,3.0.7,59.972436556022,
care,&&&&,images/symbols/symbol_30.png,condition_files/AMP_rep3.csv,left,care.virtue,,,,,,,,,,,,,,0,0,0,2,0,53,53,53,,,,,,,,,,,,,,,,,,,,,1090.0399548545247,,,,,,,,,,,,,,AMP_prac,left,1.01506453496404,3,,,right,1.0162111331010237,,,,,,,,,,,,,,,,,,,,,,,,,1026,2019_Jun_03_1651,mf_amp_cond1,3.0.7,59.972436556022,
promised,&&&&&&&&,images/symbols/symbol_61.png,condition_files/AMP_rep3.csv,left,loyalty.virtue,,,,,,,,,,,,,,0,0,0,2,0,54,54,54,,,,,,,,,,,,,,,,,,,,,1090.8568580518477,,,,,,,,,,,,,,AMP_prac,left,1.01506453496404,3,,,left,0.5837508927797899,,,,,,,,,,,,,,,,,,,,,,,,,1026,2019_Jun_03_1651,mf_amp_cond1,3.0.7,59.972436556022,
plonx,&&&&&,images/symbols/symbol_49.png,condition_files/AMP_rep3.csv,None,nonword,,,,,,,,,,,,,,0,0,0,2,0,55,55,55,,,,,,,,,,,,,,,,,,,,,1091.7904214317678,,,,,,,,,,,,,,AMP_prac,left,1.01506453496404,3,,,left,0.7004242251859978,,,,,,,,,,,,,,,,,,,,,,,,,1026,2019_Jun_03_1651,mf_amp_cond1,3.0.7,59.972436556022,
loyalty,&&&&&&&,images/symbols/symbol_22.png,condition_files/AMP_rep3.csv,left,loyalty.virtue,,,,,,,,,,,,,,0,0,0,2,0,56,56,56,,,,,,,,,,,,,,,,,,,,,1092.7073333207518,,,,,,,,,,,,,,AMP_prac,left,1.01506453496404,3,,,left,0.6991333001060411,,,,,,,,,,,,,,,,,,,,,,,,,1026,2019_Jun_03_1651,mf_amp_cond1,3.0.7,59.972436556022,
unpleasant,&&&&&&&&&,images/symbols/symbol_71.png,condition_files/AMP_rep3.csv,left,control,,,,,,,,,,,,,,0,0,0,2,0,57,57,57,,,,,,,,,,,,,,,,,,,,,1093.4908774088835,,,,,,,,,,,,,,AMP_prac,left,1.01506453496404,3,,,left,0.565840870141983,,,,,,,,,,,,,,,,,,,,,,,,,1026,2019_Jun_03_1651,mf_amp_cond1,3.0.7,59.972436556022,
shot,&&&&,images/symbols/symbol_64.png,condition_files/AMP_rep3.csv,right,care.vice,,,,,,,,,,,,,,0,0,0,2,0,58,58,58,,,,,,,,,,,,,,,,,,,,,1094.2744247043738,,,,,,,,,,,,,,AMP_prac,left,1.01506453496404,3,,,left,0.5658520956058055,,,,,,,,,,,,,,,,,,,,,,,,,1026,2019_Jun_03_1651,mf_amp_cond1,3.0.7,59.972436556022,
celebrated,&&&&&&&&&&,images/symbols/symbol_48.png,condition_files/AMP_rep3.csv,left,authority.virtue,,,,,,,,,,,,,,0,0,0,2,0,59,59,59,,,,,,,,,,,,,,,,,,,,,1095.7915006772382,,,,,,,,,,,,,,AMP_prac,left,1.01506453496404,3,,,left,1.2993881495203823,,,,,,,,,,,,,,,,,,,,,,,,,1026,2019_Jun_03_1651,mf_amp_cond1,3.0.7,59.972436556022,
honored,&&&&&&&,images/symbols/symbol_57.png,condition_files/AMP_rep3.csv,left,authority.virtue,,,,,,,,,,,,,,0,0,0,2,0,60,60,60,,,,,,,,,,,,,,,,,,,,,1096.575040275231,,,,,,,,,,,,,,AMP_prac,left,1.01506453496404,3,,,left,0.5658312482992187,,,,,,,,,,,,,,,,,,,,,,,,,1026,2019_Jun_03_1651,mf_amp_cond1,3.0.7,59.972436556022,
army,&&&&,images/symbols/symbol_24.png,condition_files/AMP_rep3.csv,right,loyalty.vice,,,,,,,,,,,,,,0,0,0,2,0,61,61,61,,,,,,,,,,,,,,,,,,,,,1097.2752618012019,,,,,,,,,,,,,,AMP_prac,left,1.01506453496404,3,,,left,0.46706441056448966,,,,,,,,,,,,,,,,,,,,,,,,,1026,2019_Jun_03_1651,mf_amp_cond1,3.0.7,59.972436556022,
victims,&&&&&&&,images/symbols/symbol_4.png,condition_files/AMP_rep3.csv,right,care.vice,,,,,,,,,,,,,,0,0,0,2,0,62,62,62,,,,,,,,,,,,,,,,,,,,,1098.1754750524415,,,,,,,,,,,,,,AMP_prac,left,1.01506453496404,3,,,left,0.6822069463087246,,,,,,,,,,,,,,,,,,,,,,,,,1026,2019_Jun_03_1651,mf_amp_cond1,3.0.7,59.972436556022,
troops,&&&&&&,images/symbols/symbol_15.png,condition_files/AMP_rep3.csv,right,loyalty.vice,,,,,,,,,,,,,,0,0,0,2,0,63,63,63,,,,,,,,,,,,,,,,,,,,,1098.7923246242572,,,,,,,,,,,,,,AMP_prac,left,1.01506453496404,3,,,left,0.39920921612065285,,,,,,,,,,,,,,,,,,,,,,,,,1026,2019_Jun_03_1651,mf_amp_cond1,3.0.7,59.972436556022,
corruption,&&&&&&&&&&,images/symbols/symbol_50.png,condition_files/AMP_rep3.csv,right,sanctity.vice,,,,,,,,,,,,,,0,0,0,2,0,64,64,64,,,,,,,,,,,,,,,,,,,,,1099.4091357088182,,,,,,,,,,,,,,AMP_prac,left,1.01506453496404,3,,,left,0.39918259577825665,,,,,,,,,,,,,,,,,,,,,,,,,1026,2019_Jun_03_1651,mf_amp_cond1,3.0.7,59.972436556022,
peighld,&&&&&&&,images/symbols/symbol_53.png,condition_files/AMP_rep3.csv,None,nonword,,,,,,,,,,,,,,0,0,0,2,0,65,65,65,,,,,,,,,,,,,,,,,,,,,1100.0926634079078,,,,,,,,,,,,,,AMP_prac,left,1.01506453496404,3,,,left,0.4659431498730555,,,,,,,,,,,,,,,,,,,,,,,,,1026,2019_Jun_03_1651,mf_amp_cond1,3.0.7,59.972436556022,
prosecution,&&&&&&&&&&&,images/symbols/symbol_14.png,condition_files/AMP_rep3.csv,right,authority.vice,,,,,,,,,,,,,,0,0,0,2,0,66,66,66,,,,,,,,,,,,,,,,,,,,,1100.926217454602,,,,,,,,,,,,,,AMP_prac,left,1.01506453496404,3,,,right,0.615779627347365,,,,,,,,,,,,,,,,,,,,,,,,,1026,2019_Jun_03_1651,mf_amp_cond1,3.0.7,59.972436556022,
trust,&&&&&,images/symbols/symbol_51.png,condition_files/AMP_rep3.csv,left,authority.virtue,,,,,,,,,,,,,,0,0,0,2,0,67,67,67,,,,,,,,,,,,,,,,,,,,,1101.7931164985057,,,,,,,,,,,,,,AMP_prac,left,1.01506453496404,3,,,left,0.649725987110287,,,,,,,,,,,,,,,,,,,,,,,,,1026,2019_Jun_03_1651,mf_amp_cond1,3.0.7,59.972436556022,
support,&&&&&&&,images/symbols/symbol_19.png,condition_files/AMP_rep3.csv,left,loyalty.virtue,,,,,,,,,,,,,,0,0,0,2,0,68,68,68,,,,,,,,,,,,,,,,,,,,,1102.6600232399069,,,,,,,,,,,,,,AMP_prac,left,1.01506453496404,3,,,right,0.6488805513363332,,,,,,,,,,,,,,,,,,,,,,,,,1026,2019_Jun_03_1651,mf_amp_cond1,3.0.7,59.972436556022,
strong,&&&&&&,images/symbols/symbol_44.png,condition_files/AMP_rep3.csv,left,loyalty.virtue,,,,,,,,,,,,,,0,0,0,2,0,69,69,69,,,,,,,,,,,,,,,,,,,,,1103.7603244343773,,,,,,,,,,,,,,AMP_prac,left,1.01506453496404,3,,,left,0.8824963059742004,,,,,,,,,,,,,,,,,,,,,,,,,1026,2019_Jun_03_1651,mf_amp_cond1,3.0.7,59.972436556022,
clorze,&&&&&&,images/symbols/symbol_66.png,condition_files/AMP_rep3.csv,None,nonword,,,,,,,,,,,,,,0,0,0,2,0,70,70,70,,,,,,,,,,,,,,,,,,,,,1104.8105961058754,,,,,,,,,,,,,,AMP_prac,left,1.01506453496404,3,,,left,0.8327746808063239,,,,,,,,,,,,,,,,,,,,,,,,,1026,2019_Jun_03_1651,mf_amp_cond1,3.0.7,59.972436556022,
hope,&&&&,images/symbols/symbol_55.png,condition_files/AMP_rep3.csv,left,loyalty.virtue,,,,,,,,,,,,,,0,0,0,2,0,71,71,71,,,,,,,,,,,,,,,,,,,,,1105.9775763899088,,,,,,,,,,,,,,AMP_prac,left,1.01506453496404,3,,,right,0.9492482005152851,,,,,,,,,,,,,,,,,,,,,,,,,1026,2019_Jun_03_1651,mf_amp_cond1,3.0.7,59.972436556022,
prinse,&&&&&&,images/symbols/symbol_12.png,condition_files/AMP_rep3.csv,None,nonword,,,,,,,,,,,,,,0,0,0,2,0,72,72,72,,,,,,,,,,,,,,,,,,,,,1106.9278278236743,,,,,,,,,,,,,,AMP_prac,left,1.01506453496404,3,,,left,0.717093356186524,,,,,,,,,,,,,,,,,,,,,,,,,1026,2019_Jun_03_1651,mf_amp_cond1,3.0.7,59.972436556022,
torture,&&&&&&&,images/symbols/symbol_43.png,condition_files/AMP_rep3.csv,right,care.vice,,,,,,,,,,,,,,0,0,0,2,0,73,73,73,,,,,,,,,,,,,,,,,,,,,1107.928093385417,,,,,,,,,,,,,,AMP_prac,left,1.01506453496404,3,,,left,0.782194790779613,,,,,,,,,,,,,,,,,,,,,,,,,1026,2019_Jun_03_1651,mf_amp_cond1,3.0.7,59.972436556022,
health,&&&&&&,images/symbols/symbol_31.png,condition_files/AMP_rep3.csv,left,care.virtue,,,,,,,,,,,,,,0,0,0,2,0,74,74,74,,,,,,,,,,,,,,,,,,,,,1108.7449799048482,,,,,,,,,,,,,,AMP_prac,left,1.01506453496404,3,,,left,0.6000450941501185,,,,,,,,,,,,,,,,,,,,,,,,,1026,2019_Jun_03_1651,mf_amp_cond1,3.0.7,59.972436556022,
compassion,&&&&&&&&&&,images/symbols/symbol_62.png,condition_files/AMP_rep3.csv,left,care.virtue,,,,,,,,,,,,,,0,0,0,2,0,75,75,75,,,,,,,,,,,,,,,,,,,,,1109.778484303155,,,,,,,,,,,,,,AMP_prac,left,1.01506453496404,3,,,right,0.8003357368288562,,,,,,,,,,,,,,,,,,,,,,,,,1026,2019_Jun_03_1651,mf_amp_cond1,3.0.7,59.972436556022,
blamed,&&&&&&,images/symbols/symbol_82.png,condition_files/AMP_rep3.csv,right,loyalty.vice,,,,,,,,,,,,,,0,0,0,2,0,76,76,76,,,,,,,,,,,,,,,,,,,,,1110.7622722078813,,,,,,,,,,,,,,AMP_prac,left,1.01506453496404,3,,,left,0.7505233458941802,,,,,,,,,,,,,,,,,,,,,,,,,1026,2019_Jun_03_1651,mf_amp_cond1,3.0.7,59.972436556022,
protect,&&&&&&&,images/symbols/symbol_35.png,condition_files/AMP_rep3.csv,left,fairness.virtue,,,,,,,,,,,,,,0,0,0,2,0,77,77,77,,,,,,,,,,,,,,,,,,,,,1111.712447308586,,,,,,,,,,,,,,AMP_prac,left,1.01506453496404,3,,,right,0.7321569290943444,,,,,,,,,,,,,,,,,,,,,,,,,1026,2019_Jun_03_1651,mf_amp_cond1,3.0.7,59.972436556022,
betrayal,&&&&&&&&,images/symbols/symbol_39.png,condition_files/AMP_rep3.csv,right,loyalty.vice,,,,,,,,,,,,,,0,0,0,2,0,78,78,78,,,,,,,,,,,,,,,,,,,,,1112.5625511759426,,,,,,,,,,,,,,AMP_prac,left,1.01506453496404,3,,,right,0.6323939140420407,,,,,,,,,,,,,,,,,,,,,,,,,1026,2019_Jun_03_1651,mf_amp_cond1,3.0.7,59.972436556022,
increase,&&&&&&&&,images/symbols/symbol_2.png,condition_files/AMP_rep3.csv,left,care.virtue,,,,,,,,,,,,,,0,0,0,2,0,79,79,79,,,,,,,,,,,,,,,,,,,,,1113.5129251272883,,,,,,,,,,,,,,AMP_prac,left,1.01506453496404,3,,,right,0.7327477077487856,,,,,,,,,,,,,,,,,,,,,,,,,1026,2019_Jun_03_1651,mf_amp_cond1,3.0.7,59.972436556022,
violence,&&&&&&&&,images/symbols/symbol_10.png,condition_files/AMP_rep3.csv,right,care.vice,,,,,,,,,,,,,,0,0,0,2,0,80,80,80,,,,,,,,,,,,,,,,,,,,,1114.0630792524898,,,,,,,,,,,,,,AMP_prac,left,1.01506453496404,3,,,right,0.3324608496623114,,,,,,,,,,,,,,,,,,,,,,,,,1026,2019_Jun_03_1651,mf_amp_cond1,3.0.7,59.972436556022,
opportunity,&&&&&&&&&&&,images/symbols/symbol_80.png,condition_files/AMP_rep3.csv,left,fairness.virtue,,,,,,,,,,,,,,0,0,0,2,0,81,81,81,,,,,,,,,,,,,,,,,,,,,1114.9299911254784,,,,,,,,,,,,,,AMP_prac,left,1.01506453496404,3,,,left,0.6495280986418948,,,,,,,,,,,,,,,,,,,,,,,,,1026,2019_Jun_03_1651,mf_amp_cond1,3.0.7,59.972436556022,
,,,condition_files/AMP_rep3.csv,,,,,,,,,,,,,,,,0,0,0,2,,,,,,,,,,,,,,,,,,,,,,,,,,,,,,,,,,,,,,,,,,,,,,,right,19.722185855382122,,,,,,,,,,,,,,,,,,,,,,,1026,2019_Jun_03_1651,mf_amp_cond1,3.0.7,59.972436556022,
arrests,&&&&&&&,images/symbols/symbol_47.png,condition_files/AMP_rep4.csv,right,authority.vice,,,,,,,,,,,,,,0,1,1,3,0,0,0,0,,,,,,,,,,,,,,,,,,,,,1135.9690950919176,,,,,,,,,,,,,,AMP_prac,left,1.01506453496404,3,,,left,1.0655238317558542,,,,,,,,,,,,,,,,,,,,,,,,,1026,2019_Jun_03_1651,mf_amp_cond1,3.0.7,59.972436556022,
fair,&&&&,images/symbols/symbol_52.png,condition_files/AMP_rep4.csv,left,fairness.virtue,,,,,,,,,,,,,,0,1,1,3,0,1,1,1,,,,,,,,,,,,,,,,,,,,,1136.719181607943,,,,,,,,,,,,,,AMP_prac,left,1.01506453496404,3,,,left,0.5170548048336059,,,,,,,,,,,,,,,,,,,,,,,,,1026,2019_Jun_03_1651,mf_amp_cond1,3.0.7,59.972436556022,
growth,&&&&&&,images/symbols/symbol_73.png,condition_files/AMP_rep4.csv,left,care.virtue,,,,,,,,,,,,,,0,1,1,3,0,2,2,2,,,,,,,,,,,,,,,,,,,,,1137.3359920510557,,,,,,,,,,,,,,AMP_prac,left,1.01506453496404,3,,,left,0.3985372936585918,,,,,,,,,,,,,,,,,,,,,,,,,1026,2019_Jun_03_1651,mf_amp_cond1,3.0.7,59.972436556022,
racist,&&&&&&,images/symbols/symbol_13.png,condition_files/AMP_rep4.csv,right,sanctity.vice,,,,,,,,,,,,,,0,1,1,3,0,3,3,3,,,,,,,,,,,,,,,,,,,,,1138.1028891385067,,,,,,,,,,,,,,AMP_prac,left,1.01506453496404,3,,,right,0.5492195275146514,,,,,,,,,,,,,,,,,,,,,,,,,1026,2019_Jun_03_1651,mf_amp_cond1,3.0.7,59.972436556022,
accused,&&&&&&&,images/symbols/symbol_6.png,condition_files/AMP_rep4.csv,right,fairness.vice,,,,,,,,,,,,,,0,1,1,3,0,4,4,4,,,,,,,,,,,,,,,,,,,,,1138.903094660258,,,,,,,,,,,,,,AMP_prac,left,1.01506453496404,3,,,right,0.5670737437903881,,,,,,,,,,,,,,,,,,,,,,,,,1026,2019_Jun_03_1651,mf_amp_cond1,3.0.7,59.972436556022,
praise,&&&&&&,images/symbols/symbol_20.png,condition_files/AMP_rep4.csv,left,authority.virtue,,,,,,,,,,,,,,0,1,1,3,0,5,5,5,,,,,,,,,,,,,,,,,,,,,1139.5032378968317,,,,,,,,,,,,,,AMP_prac,left,1.01506453496404,3,,,right,0.38238228764384985,,,,,,,,,,,,,,,,,,,,,,,,,1026,2019_Jun_03_1651,mf_amp_cond1,3.0.7,59.972436556022,
protesters,&&&&&&&&&&,images/symbols/symbol_25.png,condition_files/AMP_rep4.csv,right,authority.vice,,,,,,,,,,,,,,0,1,1,3,0,6,6,6,,,,,,,,,,,,,,,,,,,,,1140.303491848288,,,,,,,,,,,,,,AMP_prac,left,1.01506453496404,3,,,left,0.5825112839229405,,,,,,,,,,,,,,,,,,,,,,,,,1026,2019_Jun_03_1651,mf_amp_cond1,3.0.7,59.972436556022,
actively,&&&&&&&&,images/symbols/symbol_21.png,condition_files/AMP_rep4.csv,left,authority.virtue,,,,,,,,,,,,,,0,1,1,3,0,7,7,7,,,,,,,,,,,,,,,,,,,,,1141.470446153311,,,,,,,,,,,,,,AMP_prac,left,1.01506453496404,3,,,left,0.9495756624964997,,,,,,,,,,,,,,,,,,,,,,,,,1026,2019_Jun_03_1651,mf_amp_cond1,3.0.7,59.972436556022,
killed,&&&&&&,images/symbols/symbol_3.png,condition_files/AMP_rep4.csv,right,care.vice,,,,,,,,,,,,,,0,1,1,3,0,8,8,8,,,,,,,,,,,,,,,,,,,,,1142.4540393769275,,,,,,,,,,,,,,AMP_prac,left,1.01506453496404,3,,,left,0.765598785597831,,,,,,,,,,,,,,,,,,,,,,,,,1026,2019_Jun_03_1651,mf_amp_cond1,3.0.7,59.972436556022,
benefit,&&&&&&&,images/symbols/symbol_38.png,condition_files/AMP_rep4.csv,left,fairness.virtue,,,,,,,,,,,,,,0,1,1,3,0,9,9,9,,,,,,,,,,,,,,,,,,,,,1143.354340186459,,,,,,,,,,,,,,AMP_prac,left,1.01506453496404,3,,,right,0.6827101666713133,,,,,,,,,,,,,,,,,,,,,,,,,1026,2019_Jun_03_1651,mf_amp_cond1,3.0.7,59.972436556022,
officers,&&&&&&&&,images/symbols/symbol_7.png,condition_files/AMP_rep4.csv,right,authority.vice,,,,,,,,,,,,,,0,1,1,3,0,10,10,10,,,,,,,,,,,,,,,,,,,,,1144.104482508963,,,,,,,,,,,,,,AMP_prac,left,1.01506453496404,3,,,right,0.532602354302071,,,,,,,,,,,,,,,,,,,,,,,,,1026,2019_Jun_03_1651,mf_amp_cond1,3.0.7,59.972436556022,
gun,&&&,images/symbols/symbol_74.png,condition_files/AMP_rep4.csv,right,authority.vice,,,,,,,,,,,,,,0,1,1,3,0,11,11,11,,,,,,,,,,,,,,,,,,,,,1144.904695407371,,,,,,,,,,,,,,AMP_prac,left,1.01506453496404,3,,,left,0.5670535379322246,,,,,,,,,,,,,,,,,,,,,,,,,1026,2019_Jun_03_1651,mf_amp_cond1,3.0.7,59.972436556022,
lies,&&&&,images/symbols/symbol_36.png,condition_files/AMP_rep4.csv,right,fairness.vice,,,,,,,,,,,,,,0,1,1,3,0,12,12,12,,,,,,,,,,,,,,,,,,,,,1145.9383159087738,,,,,,,,,,,,,,AMP_prac,left,1.01506453496404,3,,,right,0.8154185531893745,,,,,,,,,,,,,,,,,,,,,,,,,1026,2019_Jun_03_1651,mf_amp_cond1,3.0.7,59.972436556022,
riot,&&&&,images/symbols/symbol_70.png,condition_files/AMP_rep4.csv,right,authority.vice,,,,,,,,,,,,,,0,1,1,3,0,13,13,13,,,,,,,,,,,,,,,,,,,,,1146.688598388806,,,,,,,,,,,,,,AMP_prac,left,1.01506453496404,3,,,right,0.5171362693654373,,,,,,,,,,,,,,,,,,,,,,,,,1026,2019_Jun_03_1651,mf_amp_cond1,3.0.7,59.972436556022,
wheighlde,&&&&&&&&&,images/symbols/symbol_59.png,condition_files/AMP_rep4.csv,None,nonword,,,,,,,,,,,,,,0,1,1,3,0,14,14,14,,,,,,,,,,,,,,,,,,,,,1147.3386996262707,,,,,,,,,,,,,,AMP_prac,left,1.01506453496404,3,,,right,0.4319246265804395,,,,,,,,,,,,,,,,,,,,,,,,,1026,2019_Jun_03_1651,mf_amp_cond1,3.0.7,59.972436556022,
sharing,&&&&&&&,images/symbols/symbol_69.png,condition_files/AMP_rep4.csv,left,loyalty.virtue,,,,,,,,,,,,,,0,1,1,3,0,15,15,15,,,,,,,,,,,,,,,,,,,,,1148.105594147928,,,,,,,,,,,,,,AMP_prac,left,1.01506453496404,3,,,left,0.5490011125802994,,,,,,,,,,,,,,,,,,,,,,,,,1026,2019_Jun_03_1651,mf_amp_cond1,3.0.7,59.972436556022,
perfect,&&&&&&&,images/symbols/symbol_18.png,condition_files/AMP_rep4.csv,left,sanctity.virtue,,,,,,,,,,,,,,0,1,1,3,0,16,16,16,,,,,,,,,,,,,,,,,,,,,1148.9224521226715,,,,,,,,,,,,,,AMP_prac,left,1.01506453496404,3,,,right,0.5837300455896184,,,,,,,,,,,,,,,,,,,,,,,,,1026,2019_Jun_03_1651,mf_amp_cond1,3.0.7,59.972436556022,
peaceful,&&&&&&&&,images/symbols/symbol_29.png,condition_files/AMP_rep4.csv,left,authority.virtue,,,,,,,,,,,,,,0,1,1,3,0,17,17,17,,,,,,,,,,,,,,,,,,,,,1149.6726800792385,,,,,,,,,,,,,,AMP_prac,left,1.01506453496404,3,,,left,0.5315612753620371,,,,,,,,,,,,,,,,,,,,,,,,,1026,2019_Jun_03_1651,mf_amp_cond1,3.0.7,59.972436556022,
respect,&&&&&&&,images/symbols/symbol_34.png,condition_files/AMP_rep4.csv,left,sanctity.virtue,,,,,,,,,,,,,,0,1,1,3,0,18,18,18,,,,,,,,,,,,,,,,,,,,,1150.9230037727393,,,,,,,,,,,,,,AMP_prac,left,1.01506453496404,3,,,right,1.0325095038861036,,,,,,,,,,,,,,,,,,,,,,,,,1026,2019_Jun_03_1651,mf_amp_cond1,3.0.7,59.972436556022,
harassment,&&&&&&&&&&,images/symbols/symbol_79.png,condition_files/AMP_rep4.csv,right,sanctity.vice,,,,,,,,,,,,,,0,1,1,3,0,19,19,19,,,,,,,,,,,,,,,,,,,,,1151.7565632718615,,,,,,,,,,,,,,AMP_prac,left,1.01506453496404,3,,,left,0.6157411402091384,,,,,,,,,,,,,,,,,,,,,,,,,1026,2019_Jun_03_1651,mf_amp_cond1,3.0.7,59.972436556022,
ability,&&&&&&&,images/symbols/symbol_41.png,condition_files/AMP_rep4.csv,left,authority.virtue,,,,,,,,,,,,,,0,1,1,3,0,20,20,20,,,,,,,,,,,,,,,,,,,,,1152.7401375725167,,,,,,,,,,,,,,AMP_prac,left,1.01506453496404,3,,,left,0.7663909805705771,,,,,,,,,,,,,,,,,,,,,,,,,1026,2019_Jun_03_1651,mf_amp_cond1,3.0.7,59.972436556022,
safe,&&&&,images/symbols/symbol_81.png,condition_files/AMP_rep4.csv,left,care.virtue,,,,,,,,,,,,,,0,1,1,3,0,21,21,21,,,,,,,,,,,,,,,,,,,,,1153.4069810665678,,,,,,,,,,,,,,AMP_prac,left,1.01506453496404,3,,,left,0.4489754223031923,,,,,,,,,,,,,,,,,,,,,,,,,1026,2019_Jun_03_1651,mf_amp_cond1,3.0.7,59.972436556022,
abuse,&&&&&,images/symbols/symbol_58.png,condition_files/AMP_rep4.csv,right,sanctity.vice,,,,,,,,,,,,,,0,1,1,3,0,22,22,22,,,,,,,,,,,,,,,,,,,,,1154.057166334358,,,,,,,,,,,,,,AMP_prac,left,1.01506453496404,3,,,left,0.4170220586238429,,,,,,,,,,,,,,,,,,,,,,,,,1026,2019_Jun_03_1651,mf_amp_cond1,3.0.7,59.972436556022,
interests,&&&&&&&&&,images/symbols/symbol_54.png,condition_files/AMP_rep4.csv,left,fairness.virtue,,,,,,,,,,,,,,0,1,1,3,0,23,23,23,,,,,,,,,,,,,,,,,,,,,1154.6239876660984,,,,,,,,,,,,,,AMP_prac,left,1.01506453496404,3,,,left,0.34830539219547063,,,,,,,,,,,,,,,,,,,,,,,,,1026,2019_Jun_03_1651,mf_amp_cond1,3.0.7,59.972436556022,
fourz,&&&&&,images/symbols/symbol_77.png,condition_files/AMP_rep4.csv,None,nonword,,,,,,,,,,,,,,0,1,1,3,0,24,24,24,,,,,,,,,,,,,,,,,,,,,1155.5742429485545,,,,,,,,,,,,,,AMP_prac,left,1.01506453496404,3,,,right,0.7325677799526602,,,,,,,,,,,,,,,,,,,,,,,,,1026,2019_Jun_03_1651,mf_amp_cond1,3.0.7,59.972436556022,
police,&&&&&&,images/symbols/symbol_45.png,condition_files/AMP_rep4.csv,right,authority.vice,,,,,,,,,,,,,,0,1,1,3,0,25,25,25,,,,,,,,,,,,,,,,,,,,,1156.4078117487952,,,,,,,,,,,,,,AMP_prac,left,1.01506453496404,3,,,right,0.6158325473079458,,,,,,,,,,,,,,,,,,,,,,,,,1026,2019_Jun_03_1651,mf_amp_cond1,3.0.7,59.972436556022,
thinx,&&&&&,images/symbols/symbol_76.png,condition_files/AMP_rep4.csv,None,nonword,,,,,,,,,,,,,,0,1,1,3,0,26,26,26,,,,,,,,,,,,,,,,,,,,,1157.508077021921,,,,,,,,,,,,,,AMP_prac,left,1.01506453496404,3,,,right,0.8829299286007881,,,,,,,,,,,,,,,,,,,,,,,,,1026,2019_Jun_03_1651,mf_amp_cond1,3.0.7,59.972436556022,
death,&&&&&,images/symbols/symbol_1.png,condition_files/AMP_rep4.csv,right,care.vice,,,,,,,,,,,,,,0,1,1,3,0,27,27,27,,,,,,,,,,,,,,,,,,,,,1158.2582857348025,,,,,,,,,,,,,,AMP_prac,left,1.01506453496404,3,,,right,0.5320754003478214,,,,,,,,,,,,,,,,,,,,,,,,,1026,2019_Jun_03_1651,mf_amp_cond1,3.0.7,59.972436556022,
commitment,&&&&&&&&&&,images/symbols/symbol_42.png,condition_files/AMP_rep4.csv,left,sanctity.virtue,,,,,,,,,,,,,,0,1,1,3,0,28,28,28,,,,,,,,,,,,,,,,,,,,,1159.1085105161183,,,,,,,,,,,,,,AMP_prac,left,1.01506453496404,3,,,left,0.6324670397443697,,,,,,,,,,,,,,,,,,,,,,,,,1026,2019_Jun_03_1651,mf_amp_cond1,3.0.7,59.972436556022,
good,&&&&,images/symbols/symbol_65.png,condition_files/AMP_rep4.csv,left,care.virtue,,,,,,,,,,,,,,0,1,1,3,0,29,29,29,,,,,,,,,,,,,,,,,,,,,1159.9587747468613,,,,,,,,,,,,,,AMP_prac,left,1.01506453496404,3,,,left,0.6170997386798263,,,,,,,,,,,,,,,,,,,,,,,,,1026,2019_Jun_03_1651,mf_amp_cond1,3.0.7,59.972436556022,
credit,&&&&&&,images/symbols/symbol_11.png,condition_files/AMP_rep4.csv,left,fairness.virtue,,,,,,,,,,,,,,0,1,1,3,0,30,30,30,,,,,,,,,,,,,,,,,,,,,1160.7590081718517,,,,,,,,,,,,,,AMP_prac,left,1.01506453496404,3,,,left,0.5819224297301844,,,,,,,,,,,,,,,,,,,,,,,,,1026,2019_Jun_03_1651,mf_amp_cond1,3.0.7,59.972436556022,
values,&&&&&&,images/symbols/symbol_72.png,condition_files/AMP_rep4.csv,left,sanctity.virtue,,,,,,,,,,,,,,0,1,1,3,0,31,31,31,,,,,,,,,,,,,,,,,,,,,1161.3925024992786,,,,,,,,,,,,,,AMP_prac,left,1.01506453496404,3,,,left,0.4157231153221801,,,,,,,,,,,,,,,,,,,,,,,,,1026,2019_Jun_03_1651,mf_amp_cond1,3.0.7,59.972436556022,
critics,&&&&&&&,images/symbols/symbol_60.png,condition_files/AMP_rep4.csv,right,loyalty.vice,,,,,,,,,,,,,,0,1,1,3,0,32,32,32,,,,,,,,,,,,,,,,,,,,,1162.2093755482929,,,,,,,,,,,,,,AMP_prac,left,1.01506453496404,3,,,left,0.599238145747222,,,,,,,,,,,,,,,,,,,,,,,,,1026,2019_Jun_03_1651,mf_amp_cond1,3.0.7,59.972436556022,
violations,&&&&&&&&&&,images/symbols/symbol_75.png,condition_files/AMP_rep4.csv,right,sanctity.vice,,,,,,,,,,,,,,0,1,1,3,0,33,33,33,,,,,,,,,,,,,,,,,,,,,1162.8428564051865,,,,,,,,,,,,,,AMP_prac,left,1.01506453496404,3,,,left,0.4158251064363867,,,,,,,,,,,,,,,,,,,,,,,,,1026,2019_Jun_03_1651,mf_amp_cond1,3.0.7,59.972436556022,
wraughsed,&&&&&&&&&,images/symbols/symbol_9.png,condition_files/AMP_rep4.csv,None,nonword,,,,,,,,,,,,,,0,1,1,3,0,34,34,34,,,,,,,,,,,,,,,,,,,,,1163.6931623304263,,,,,,,,,,,,,,AMP_prac,left,1.01506453496404,3,,,left,0.6325116207590327,,,,,,,,,,,,,,,,,,,,,,,,,1026,2019_Jun_03_1651,mf_amp_cond1,3.0.7,59.972436556022,
scandal,&&&&&&&,images/symbols/symbol_63.png,condition_files/AMP_rep4.csv,right,sanctity.vice,,,,,,,,,,,,,,0,1,1,3,0,35,35,35,,,,,,,,,,,,,,,,,,,,,1164.3766476935707,,,,,,,,,,,,,,AMP_prac,left,1.01506453496404,3,,,left,0.4659790713340044,,,,,,,,,,,,,,,,,,,,,,,,,1026,2019_Jun_03_1651,mf_amp_cond1,3.0.7,59.972436556022,
peizz,&&&&&,images/symbols/symbol_8.png,condition_files/AMP_rep4.csv,None,nonword,,,,,,,,,,,,,,0,1,1,3,0,36,36,36,,,,,,,,,,,,,,,,,,,,,1165.210165177472,,,,,,,,,,,,,,AMP_prac,left,1.01506453496404,3,,,left,0.6159406321821734,,,,,,,,,,,,,,,,,,,,,,,,,1026,2019_Jun_03_1651,mf_amp_cond1,3.0.7,59.972436556022,
terrorist,&&&&&&&&&,images/symbols/symbol_37.png,condition_files/AMP_rep4.csv,right,loyalty.vice,,,,,,,,,,,,,,0,1,1,3,0,37,37,37,,,,,,,,,,,,,,,,,,,,,1166.2104291355936,,,,,,,,,,,,,,AMP_prac,left,1.01506453496404,3,,,left,0.767114219488576,,,,,,,,,,,,,,,,,,,,,,,,,1026,2019_Jun_03_1651,mf_amp_cond1,3.0.7,59.972436556022,
pleasant,&&&&&&&,images/symbols/symbol_28.png,condition_files/AMP_rep4.csv,right,control,,,,,,,,,,,,,,0,1,1,3,0,38,38,38,,,,,,,,,,,,,,,,,,,,,1166.9606285474729,,,,,,,,,,,,,,AMP_prac,left,1.01506453496404,3,,,left,0.53172709106002,,,,,,,,,,,,,,,,,,,,,,,,,1026,2019_Jun_03_1651,mf_amp_cond1,3.0.7,59.972436556022,
forced,&&&&&&,images/symbols/symbol_26.png,condition_files/AMP_rep4.csv,right,fairness.vice,,,,,,,,,,,,,,0,1,1,3,0,39,39,39,,,,,,,,,,,,,,,,,,,,,1168.260995555087,,,,,,,,,,,,,,AMP_prac,left,1.01506453496404,3,,,left,1.082628188887611,,,,,,,,,,,,,,,,,,,,,,,,,1026,2019_Jun_03_1651,mf_amp_cond1,3.0.7,59.972436556022,
crime,&&&&&,images/symbols/symbol_68.png,condition_files/AMP_rep4.csv,right,fairness.vice,,,,,,,,,,,,,,0,1,1,3,0,40,40,40,,,,,,,,,,,,,,,,,,,,,1168.9611631989246,,,,,,,,,,,,,,AMP_prac,left,1.01506453496404,3,,,left,0.467029451392591,,,,,,,,,,,,,,,,,,,,,,,,,1026,2019_Jun_03_1651,mf_amp_cond1,3.0.7,59.972436556022,
snoze,&&&&&,images/symbols/symbol_46.png,condition_files/AMP_rep4.csv,None,nonword,,,,,,,,,,,,,,0,1,1,3,0,41,41,41,,,,,,,,,,,,,,,,,,,,,1169.544686375768,,,,,,,,,,,,,,AMP_prac,left,1.01506453496404,3,,,left,0.3652169924462214,,,,,,,,,,,,,,,,,,,,,,,,,1026,2019_Jun_03_1651,mf_amp_cond1,3.0.7,59.972436556022,
strength,&&&&&&&&,images/symbols/symbol_16.png,condition_files/AMP_rep4.csv,left,sanctity.virtue,,,,,,,,,,,,,,0,1,1,3,0,42,42,42,,,,,,,,,,,,,,,,,,,,,1170.9450537362136,,,,,,,,,,,,,,AMP_prac,left,1.01506453496404,3,,,right,1.1828315616585314,,,,,,,,,,,,,,,,,,,,,,,,,1026,2019_Jun_03_1651,mf_amp_cond1,3.0.7,59.972436556022,
fraud,&&&&&,images/symbols/symbol_56.png,condition_files/AMP_rep4.csv,right,fairness.vice,,,,,,,,,,,,,,0,1,1,3,0,43,43,43,,,,,,,,,,,,,,,,,,,,,1171.828599780798,,,,,,,,,,,,,,AMP_prac,left,1.01506453496404,3,,,right,0.6657251198776066,,,,,,,,,,,,,,,,,,,,,,,,,1026,2019_Jun_03_1651,mf_amp_cond1,3.0.7,59.972436556022,
ban,&&&,images/symbols/symbol_78.png,condition_files/AMP_rep4.csv,right,loyalty.vice,,,,,,,,,,,,,,0,1,1,3,0,44,44,44,,,,,,,,,,,,,,,,,,,,,1172.828872719314,,,,,,,,,,,,,,AMP_prac,left,1.01506453496404,3,,,left,0.7824792753672227,,,,,,,,,,,,,,,,,,,,,,,,,1026,2019_Jun_03_1651,mf_amp_cond1,3.0.7,59.972436556022,
energy,&&&&&&,images/symbols/symbol_23.png,condition_files/AMP_rep4.csv,left,sanctity.virtue,,,,,,,,,,,,,,0,1,1,3,0,45,45,45,,,,,,,,,,,,,,,,,,,,,1173.8124749232084,,,,,,,,,,,,,,AMP_prac,left,1.01506453496404,3,,,left,0.7659044382162392,,,,,,,,,,,,,,,,,,,,,,,,,1026,2019_Jun_03_1651,mf_amp_cond1,3.0.7,59.972436556022,
promote,&&&&&&&,images/symbols/symbol_40.png,condition_files/AMP_rep4.csv,left,sanctity.virtue,,,,,,,,,,,,,,0,1,1,3,0,46,46,46,,,,,,,,,,,,,,,,,,,,,1174.6793762121815,,,,,,,,,,,,,,AMP_prac,left,1.01506453496404,3,,,left,0.6491935807280242,,,,,,,,,,,,,,,,,,,,,,,,,1026,2019_Jun_03_1651,mf_amp_cond1,3.0.7,59.972436556022,
charges,&&&&&&&,images/symbols/symbol_32.png,condition_files/AMP_rep4.csv,right,fairness.vice,,,,,,,,,,,,,,0,1,1,3,0,47,47,47,,,,,,,,,,,,,,,,,,,,,1175.49629608728,,,,,,,,,,,,,,AMP_prac,left,1.01506453496404,3,,,left,0.5992445602314547,,,,,,,,,,,,,,,,,,,,,,,,,1026,2019_Jun_03_1651,mf_amp_cond1,3.0.7,59.972436556022,
promises,&&&&&&&&,images/symbols/symbol_67.png,condition_files/AMP_rep4.csv,left,fairness.virtue,,,,,,,,,,,,,,0,1,1,3,0,48,48,48,,,,,,,,,,,,,,,,,,,,,1176.5132144228555,,,,,,,,,,,,,,AMP_prac,left,1.01506453496404,3,,,left,0.7838045182870701,,,,,,,,,,,,,,,,,,,,,,,,,1026,2019_Jun_03_1651,mf_amp_cond1,3.0.7,59.972436556022,
victim,&&&&&&,images/symbols/symbol_33.png,condition_files/AMP_rep4.csv,right,care.vice,,,,,,,,,,,,,,0,1,1,3,0,49,49,49,,,,,,,,,,,,,,,,,,,,,1179.7140573568176,,,,,,,,,,,,,,AMP_prac,left,1.01506453496404,3,,,left,2.9825409192126244,,,,,,,,,,,,,,,,,,,,,,,,,1026,2019_Jun_03_1651,mf_amp_cond1,3.0.7,59.972436556022,
voter,&&&&&,images/symbols/symbol_27.png,condition_files/AMP_rep4.csv,right,fairness.vice,,,,,,,,,,,,,,0,1,1,3,0,50,50,50,,,,,,,,,,,,,,,,,,,,,1180.7476717644604,,,,,,,,,,,,,,AMP_prac,left,1.01506453496404,3,,,left,0.815797972958535,,,,,,,,,,,,,,,,,,,,,,,,,1026,2019_Jun_03_1651,mf_amp_cond1,3.0.7,59.972436556022,
great,&&&&&,images/symbols/symbol_17.png,condition_files/AMP_rep4.csv,left,loyalty.virtue,,,,,,,,,,,,,,0,1,1,3,0,51,51,51,,,,,,,,,,,,,,,,,,,,,1181.714588480303,,,,,,,,,,,,,,AMP_prac,left,1.01506453496404,3,,,left,0.7491252979962155,,,,,,,,,,,,,,,,,,,,,,,,,1026,2019_Jun_03_1651,mf_amp_cond1,3.0.7,59.972436556022,
serial,&&&&&&,images/symbols/symbol_5.png,condition_files/AMP_rep4.csv,right,sanctity.vice,,,,,,,,,,,,,,0,1,1,3,0,52,52,52,,,,,,,,,,,,,,,,,,,,,1184.5320125378203,,,,,,,,,,,,,,AMP_prac,left,1.01506453496404,3,,,left,2.599835980334319,,,,,,,,,,,,,,,,,,,,,,,,,1026,2019_Jun_03_1651,mf_amp_cond1,3.0.7,59.972436556022,
care,&&&&,images/symbols/symbol_30.png,condition_files/AMP_rep4.csv,left,care.virtue,,,,,,,,,,,,,,0,1,1,3,0,53,53,53,,,,,,,,,,,,,,,,,,,,,1185.6323429184267,,,,,,,,,,,,,,AMP_prac,left,1.01506453496404,3,,,right,0.8828183156438172,,,,,,,,,,,,,,,,,,,,,,,,,1026,2019_Jun_03_1651,mf_amp_cond1,3.0.7,59.972436556022,
promised,&&&&&&&&,images/symbols/symbol_61.png,condition_files/AMP_rep4.csv,left,loyalty.virtue,,,,,,,,,,,,,,0,1,1,3,0,54,54,54,,,,,,,,,,,,,,,,,,,,,1186.3658735201461,,,,,,,,,,,,,,AMP_prac,left,1.01506453496404,3,,,left,0.500442763324827,,,,,,,,,,,,,,,,,,,,,,,,,1026,2019_Jun_03_1651,mf_amp_cond1,3.0.7,59.972436556022,
plonx,&&&&&,images/symbols/symbol_49.png,condition_files/AMP_rep4.csv,None,nonword,,,,,,,,,,,,,,0,1,1,3,0,55,55,55,,,,,,,,,,,,,,,,,,,,,1187.2827523743035,,,,,,,,,,,,,,AMP_prac,left,1.01506453496404,3,,,left,0.6837554150260985,,,,,,,,,,,,,,,,,,,,,,,,,1026,2019_Jun_03_1651,mf_amp_cond1,3.0.7,59.972436556022,
loyalty,&&&&&&&,images/symbols/symbol_22.png,condition_files/AMP_rep4.csv,left,loyalty.virtue,,,,,,,,,,,,,,0,1,1,3,0,56,56,56,,,,,,,,,,,,,,,,,,,,,1188.2663565025432,,,,,,,,,,,,,,AMP_prac,left,1.01506453496404,3,,,left,0.7654134054901078,,,,,,,,,,,,,,,,,,,,,,,,,1026,2019_Jun_03_1651,mf_amp_cond1,3.0.7,59.972436556022,
unpleasant,&&&&&&&&&,images/symbols/symbol_71.png,condition_files/AMP_rep4.csv,left,control,,,,,,,,,,,,,,0,1,1,3,0,57,57,57,,,,,,,,,,,,,,,,,,,,,1191.7172835471574,,,,,,,,,,,,,,AMP_prac,left,1.01506453496404,3,,,left,3.233114138012752,,,,,,,,,,,,,,,,,,,,,,,,,1026,2019_Jun_03_1651,mf_amp_cond1,3.0.7,59.972436556022,
shot,&&&&,images/symbols/symbol_64.png,condition_files/AMP_rep4.csv,right,care.vice,,,,,,,,,,,,,,0,1,1,3,0,58,58,58,,,,,,,,,,,,,,,,,,,,,1192.5841777800815,,,,,,,,,,,,,,AMP_prac,left,1.01506453496404,3,,,left,0.6490569511661306,,,,,,,,,,,,,,,,,,,,,,,,,1026,2019_Jun_03_1651,mf_amp_cond1,3.0.7,59.972436556022,
celebrated,&&&&&&&&&&,images/symbols/symbol_48.png,condition_files/AMP_rep4.csv,left,authority.virtue,,,,,,,,,,,,,,0,1,1,3,0,59,59,59,,,,,,,,,,,,,,,,,,,,,1193.4844179723877,,,,,,,,,,,,,,AMP_prac,left,1.01506453496404,3,,,right,0.6670866049826145,,,,,,,,,,,,,,,,,,,,,,,,,1026,2019_Jun_03_1651,mf_amp_cond1,3.0.7,59.972436556022,
honored,&&&&&&&,images/symbols/symbol_57.png,condition_files/AMP_rep4.csv,left,authority.virtue,,,,,,,,,,,,,,0,1,1,3,0,60,60,60,,,,,,,,,,,,,,,,,,,,,1194.2346366278362,,,,,,,,,,,,,,AMP_prac,left,1.01506453496404,3,,,left,0.5319496754091233,,,,,,,,,,,,,,,,,,,,,,,,,1026,2019_Jun_03_1651,mf_amp_cond1,3.0.7,59.972436556022,
army,&&&&,images/symbols/symbol_24.png,condition_files/AMP_rep4.csv,right,loyalty.vice,,,,,,,,,,,,,,0,1,1,3,0,61,61,61,,,,,,,,,,,,,,,,,,,,,1195.451630077674,,,,,,,,,,,,,,AMP_prac,left,1.01506453496404,3,,,right,0.983835372258909,,,,,,,,,,,,,,,,,,,,,,,,,1026,2019_Jun_03_1651,mf_amp_cond1,3.0.7,59.972436556022,
victims,&&&&&&&,images/symbols/symbol_4.png,condition_files/AMP_rep4.csv,right,care.vice,,,,,,,,,,,,,,0,1,1,3,0,62,62,62,,,,,,,,,,,,,,,,,,,,,1196.2351642233552,,,,,,,,,,,,,,AMP_prac,left,1.01506453496404,3,,,left,0.5650602212408558,,,,,,,,,,,,,,,,,,,,,,,,,1026,2019_Jun_03_1651,mf_amp_cond1,3.0.7,59.972436556022,
troops,&&&&&&,images/symbols/symbol_15.png,condition_files/AMP_rep4.csv,right,loyalty.vice,,,,,,,,,,,,,,0,1,1,3,0,63,63,63,,,,,,,,,,,,,,,,,,,,,1196.8854421811411,,,,,,,,,,,,,,AMP_prac,left,1.01506453496404,3,,,left,0.4324557500658557,,,,,,,,,,,,,,,,,,,,,,,,,1026,2019_Jun_03_1651,mf_amp_cond1,3.0.7,59.972436556022,
corruption,&&&&&&&&&&,images/symbols/symbol_50.png,condition_files/AMP_rep4.csv,right,sanctity.vice,,,,,,,,,,,,,,0,1,1,3,0,64,64,64,,,,,,,,,,,,,,,,,,,,,1197.75223281933,,,,,,,,,,,,,,AMP_prac,left,1.01506453496404,3,,,left,0.649288195068948,,,,,,,,,,,,,,,,,,,,,,,,,1026,2019_Jun_03_1651,mf_amp_cond1,3.0.7,59.972436556022,
peighld,&&&&&&&,images/symbols/symbol_53.png,condition_files/AMP_rep4.csv,None,nonword,,,,,,,,,,,,,,0,1,1,3,0,65,65,65,,,,,,,,,,,,,,,,,,,,,1198.3857540879399,,,,,,,,,,,,,,AMP_prac,left,1.01506453496404,3,,,left,0.41586648009251803,,,,,,,,,,,,,,,,,,,,,,,,,1026,2019_Jun_03_1651,mf_amp_cond1,3.0.7,59.972436556022,
prosecution,&&&&&&&&&&&,images/symbols/symbol_14.png,condition_files/AMP_rep4.csv,right,authority.vice,,,,,,,,,,,,,,0,1,1,3,0,66,66,66,,,,,,,,,,,,,,,,,,,,,1199.052590525942,,,,,,,,,,,,,,AMP_prac,left,1.01506453496404,3,,,left,0.44911461777519435,,,,,,,,,,,,,,,,,,,,,,,,,1026,2019_Jun_03_1651,mf_amp_cond1,3.0.7,59.972436556022,
trust,&&&&&,images/symbols/symbol_51.png,condition_files/AMP_rep4.csv,left,authority.virtue,,,,,,,,,,,,,,0,1,1,3,0,67,67,67,,,,,,,,,,,,,,,,,,,,,1204.9375060737366,,,,,,,,,,,,,,AMP_prac,left,1.01506453496404,3,,,left,5.667756282375194,,,,,,,,,,,,,,,,,,,,,,,,,1026,2019_Jun_03_1651,mf_amp_cond1,3.0.7,59.972436556022,
support,&&&&&&&,images/symbols/symbol_19.png,condition_files/AMP_rep4.csv,left,loyalty.virtue,,,,,,,,,,,,,,0,1,1,3,0,68,68,68,,,,,,,,,,,,,,,,,,,,,1206.3378785657696,,,,,,,,,,,,,,AMP_prac,left,1.01506453496404,3,,,right,1.1672189047094434,,,,,,,,,,,,,,,,,,,,,,,,,1026,2019_Jun_03_1651,mf_amp_cond1,3.0.7,59.972436556022,
strong,&&&&&&,images/symbols/symbol_44.png,condition_files/AMP_rep4.csv,left,loyalty.virtue,,,,,,,,,,,,,,0,1,1,3,0,69,69,69,,,,,,,,,,,,,,,,,,,,,1207.3548228802392,,,,,,,,,,,,,,AMP_prac,left,1.01506453496404,3,,,right,0.7986544872401282,,,,,,,,,,,,,,,,,,,,,,,,,1026,2019_Jun_03_1651,mf_amp_cond1,3.0.7,59.972436556022,
clorze,&&&&&&,images/symbols/symbol_66.png,condition_files/AMP_rep4.csv,None,nonword,,,,,,,,,,,,,,0,1,1,3,0,70,70,70,,,,,,,,,,,,,,,,,,,,,1208.1550341750262,,,,,,,,,,,,,,AMP_prac,left,1.01506453496404,3,,,left,0.5826168030034751,,,,,,,,,,,,,,,,,,,,,,,,,1026,2019_Jun_03_1651,mf_amp_cond1,3.0.7,59.972436556022,
hope,&&&&,images/symbols/symbol_55.png,condition_files/AMP_rep4.csv,left,loyalty.virtue,,,,,,,,,,,,,,0,1,1,3,0,71,71,71,,,,,,,,,,,,,,,,,,,,,1208.871924511157,,,,,,,,,,,,,,AMP_prac,left,1.01506453496404,3,,,left,0.49904792266897857,,,,,,,,,,,,,,,,,,,,,,,,,1026,2019_Jun_03_1651,mf_amp_cond1,3.0.7,59.972436556022,
prinse,&&&&&&,images/symbols/symbol_12.png,condition_files/AMP_rep4.csv,None,nonword,,,,,,,,,,,,,,0,1,1,3,0,72,72,72,,,,,,,,,,,,,,,,,,,,,1209.7387825020123,,,,,,,,,,,,,,AMP_prac,left,1.01506453496404,3,,,right,0.633738721255213,,,,,,,,,,,,,,,,,,,,,,,,,1026,2019_Jun_03_1651,mf_amp_cond1,3.0.7,59.972436556022,
torture,&&&&&&&,images/symbols/symbol_43.png,condition_files/AMP_rep4.csv,right,care.vice,,,,,,,,,,,,,,0,1,1,3,0,73,73,73,,,,,,,,,,,,,,,,,,,,,1210.5723487364594,,,,,,,,,,,,,,AMP_prac,left,1.01506453496404,3,,,left,0.615094875684008,,,,,,,,,,,,,,,,,,,,,,,,,1026,2019_Jun_03_1651,mf_amp_cond1,3.0.7,59.972436556022,
health,&&&&&&,images/symbols/symbol_31.png,condition_files/AMP_rep4.csv,left,care.virtue,,,,,,,,,,,,,,0,1,1,3,0,74,74,74,,,,,,,,,,,,,,,,,,,,,1211.355896673398,,,,,,,,,,,,,,AMP_prac,left,1.01506453496404,3,,,left,0.5667575071565807,,,,,,,,,,,,,,,,,,,,,,,,,1026,2019_Jun_03_1651,mf_amp_cond1,3.0.7,59.972436556022,
compassion,&&&&&&&&&&,images/symbols/symbol_62.png,condition_files/AMP_rep4.csv,left,care.virtue,,,,,,,,,,,,,,0,1,1,3,0,75,75,75,,,,,,,,,,,,,,,,,,,,,1212.10609704745,,,,,,,,,,,,,,AMP_prac,left,1.01506453496404,3,,,left,0.5170487109571695,,,,,,,,,,,,,,,,,,,,,,,,,1026,2019_Jun_03_1651,mf_amp_cond1,3.0.7,59.972436556022,
blamed,&&&&&&,images/symbols/symbol_82.png,condition_files/AMP_rep4.csv,right,loyalty.vice,,,,,,,,,,,,,,0,1,1,3,0,76,76,76,,,,,,,,,,,,,,,,,,,,,1212.7562662789132,,,,,,,,,,,,,,AMP_prac,left,1.01506453496404,3,,,left,0.4170166061958298,,,,,,,,,,,,,,,,,,,,,,,,,1026,2019_Jun_03_1651,mf_amp_cond1,3.0.7,59.972436556022,
protect,&&&&&&&,images/symbols/symbol_35.png,condition_files/AMP_rep4.csv,left,fairness.virtue,,,,,,,,,,,,,,0,1,1,3,0,77,77,77,,,,,,,,,,,,,,,,,,,,,1213.6398536972702,,,,,,,,,,,,,,AMP_prac,left,1.01506453496404,3,,,right,0.665328060160391,,,,,,,,,,,,,,,,,,,,,,,,,1026,2019_Jun_03_1651,mf_amp_cond1,3.0.7,59.972436556022,
betrayal,&&&&&&&&,images/symbols/symbol_39.png,condition_files/AMP_rep4.csv,right,loyalty.vice,,,,,,,,,,,,,,0,1,1,3,0,78,78,78,,,,,,,,,,,,,,,,,,,,,1214.2233258786146,,,,,,,,,,,,,,AMP_prac,left,1.01506453496404,3,,,left,0.3655752441845834,,,,,,,,,,,,,,,,,,,,,,,,,1026,2019_Jun_03_1651,mf_amp_cond1,3.0.7,59.972436556022,
increase,&&&&&&&&,images/symbols/symbol_2.png,condition_files/AMP_rep4.csv,left,care.virtue,,,,,,,,,,,,,,0,1,1,3,0,79,79,79,,,,,,,,,,,,,,,,,,,,,1214.990198911517,,,,,,,,,,,,,,AMP_prac,left,1.01506453496404,3,,,left,0.5492176031693816,,,,,,,,,,,,,,,,,,,,,,,,,1026,2019_Jun_03_1651,mf_amp_cond1,3.0.7,59.972436556022,
violence,&&&&&&&&,images/symbols/symbol_10.png,condition_files/AMP_rep4.csv,right,care.vice,,,,,,,,,,,,,,0,1,1,3,0,80,80,80,,,,,,,,,,,,,,,,,,,,,1215.7404031342594,,,,,,,,,,,,,,AMP_prac,left,1.01506453496404,3,,,left,0.532691516331397,,,,,,,,,,,,,,,,,,,,,,,,,1026,2019_Jun_03_1651,mf_amp_cond1,3.0.7,59.972436556022,
opportunity,&&&&&&&&&&&,images/symbols/symbol_80.png,condition_files/AMP_rep4.csv,left,fairness.virtue,,,,,,,,,,,,,,0,1,1,3,0,81,81,81,,,,,,,,,,,,,,,,,,,,,1216.4573021300603,,,,,,,,,,,,,,AMP_prac,left,1.01506453496404,3,,,left,0.4993987976340577,,,,,,,,,,,,,,,,,,,,,,,,,1026,2019_Jun_03_1651,mf_amp_cond1,3.0.7,59.972436556022,
,,,condition_files/AMP_rep4.csv,,,,,,,,,,,,,,,,0,1,1,3,,,,,,,,,,,,,,,,,,,,,,,,,,,,,,,,,,,,,,,,,,,,,,,right,2.5175747028551996,,,,,,,,,,,,,,,,,,,,,,,1026,2019_Jun_03_1651,mf_amp_cond1,3.0.7,59.972436556022,
arrests,&&&&&&&,images/symbols/symbol_47.png,condition_files/AMP_rep1.csv,right,authority.vice,,,,,,,,,,,,,,0,2,2,0,0,0,0,0,,,,,,,,,,,,,,,,,,,,,1220.4418164808303,,,,,,,,,,,,,,AMP_prac,left,1.01506453496404,3,,,left,1.216016836813651,,,,,,,,,,,,,,,,,,,,,,,,,1026,2019_Jun_03_1651,mf_amp_cond1,3.0.7,59.972436556022,
fair,&&&&,images/symbols/symbol_52.png,condition_files/AMP_rep1.csv,left,fairness.virtue,,,,,,,,,,,,,,0,2,2,0,0,1,1,1,,,,,,,,,,,,,,,,,,,,,1221.108511799015,,,,,,,,,,,,,,AMP_prac,left,1.01506453496404,3,,,left,0.4336299307178706,,,,,,,,,,,,,,,,,,,,,,,,,1026,2019_Jun_03_1651,mf_amp_cond1,3.0.7,59.972436556022,
growth,&&&&&&,images/symbols/symbol_73.png,condition_files/AMP_rep1.csv,left,care.virtue,,,,,,,,,,,,,,0,2,2,0,0,2,2,2,,,,,,,,,,,,,,,,,,,,,1222.6255864889827,,,,,,,,,,,,,,AMP_prac,left,1.01506453496404,3,,,left,1.2987149441614747,,,,,,,,,,,,,,,,,,,,,,,,,1026,2019_Jun_03_1651,mf_amp_cond1,3.0.7,59.972436556022,
racist,&&&&&&,images/symbols/symbol_13.png,condition_files/AMP_rep1.csv,right,sanctity.vice,,,,,,,,,,,,,,0,2,2,0,0,3,3,3,,,,,,,,,,,,,,,,,,,,,1223.4591382906074,,,,,,,,,,,,,,AMP_prac,left,1.01506453496404,3,,,left,0.6158549981191754,,,,,,,,,,,,,,,,,,,,,,,,,1026,2019_Jun_03_1651,mf_amp_cond1,3.0.7,59.972436556022,
accused,&&&&&&&,images/symbols/symbol_6.png,condition_files/AMP_rep1.csv,right,fairness.vice,,,,,,,,,,,,,,0,2,2,0,0,4,4,4,,,,,,,,,,,,,,,,,,,,,1224.6928143418627,,,,,,,,,,,,,,AMP_prac,left,1.01506453496404,3,,,right,1.000508351949975,,,,,,,,,,,,,,,,,,,,,,,,,1026,2019_Jun_03_1651,mf_amp_cond1,3.0.7,59.972436556022,
praise,&&&&&&,images/symbols/symbol_20.png,condition_files/AMP_rep1.csv,left,authority.virtue,,,,,,,,,,,,,,0,2,2,0,0,5,5,5,,,,,,,,,,,,,,,,,,,,,1225.3596690612612,,,,,,,,,,,,,,AMP_prac,left,1.01506453496404,3,,,right,0.44909858144819736,,,,,,,,,,,,,,,,,,,,,,,,,1026,2019_Jun_03_1651,mf_amp_cond1,3.0.7,59.972436556022,
protesters,&&&&&&&&&&,images/symbols/symbol_25.png,condition_files/AMP_rep1.csv,right,authority.vice,,,,,,,,,,,,,,0,2,2,0,0,6,6,6,,,,,,,,,,,,,,,,,,,,,1226.2432478200644,,,,,,,,,,,,,,AMP_prac,left,1.01506453496404,3,,,left,0.6657068383647129,,,,,,,,,,,,,,,,,,,,,,,,,1026,2019_Jun_03_1651,mf_amp_cond1,3.0.7,59.972436556022,
actively,&&&&&&&&,images/symbols/symbol_21.png,condition_files/AMP_rep1.csv,left,authority.virtue,,,,,,,,,,,,,,0,2,2,0,0,7,7,7,,,,,,,,,,,,,,,,,,,,,1227.476928682183,,,,,,,,,,,,,,AMP_prac,left,1.01506453496404,3,,,left,1.016269826097414,,,,,,,,,,,,,,,,,,,,,,,,,1026,2019_Jun_03_1651,mf_amp_cond1,3.0.7,59.972436556022,
killed,&&&&&&,images/symbols/symbol_3.png,condition_files/AMP_rep1.csv,right,care.vice,,,,,,,,,,,,,,0,2,2,0,0,8,8,8,,,,,,,,,,,,,,,,,,,,,1228.8605909902835,,,,,,,,,,,,,,AMP_prac,left,1.01506453496404,3,,,left,1.165571972844191,,,,,,,,,,,,,,,,,,,,,,,,,1026,2019_Jun_03_1651,mf_amp_cond1,3.0.7,59.972436556022,
benefit,&&&&&&&,images/symbols/symbol_38.png,condition_files/AMP_rep1.csv,left,fairness.virtue,,,,,,,,,,,,,,0,2,2,0,0,9,9,9,,,,,,,,,,,,,,,,,,,,,1229.6441533599282,,,,,,,,,,,,,,AMP_prac,left,1.01506453496404,3,,,right,0.5658104011090472,,,,,,,,,,,,,,,,,,,,,,,,,1026,2019_Jun_03_1651,mf_amp_cond1,3.0.7,59.972436556022,
officers,&&&&&&&&,images/symbols/symbol_7.png,condition_files/AMP_rep1.csv,right,authority.vice,,,,,,,,,,,,,,0,2,2,0,0,10,10,10,,,,,,,,,,,,,,,,,,,,,1230.3109930052888,,,,,,,,,,,,,,AMP_prac,left,1.01506453496404,3,,,right,0.44935163494665176,,,,,,,,,,,,,,,,,,,,,,,,,1026,2019_Jun_03_1651,mf_amp_cond1,3.0.7,59.972436556022,
gun,&&&,images/symbols/symbol_74.png,condition_files/AMP_rep1.csv,right,authority.vice,,,,,,,,,,,,,,0,2,2,0,0,11,11,11,,,,,,,,,,,,,,,,,,,,,1231.0945733356057,,,,,,,,,,,,,,AMP_prac,left,1.01506453496404,3,,,left,0.5503709365148097,,,,,,,,,,,,,,,,,,,,,,,,,1026,2019_Jun_03_1651,mf_amp_cond1,3.0.7,59.972436556022,
lies,&&&&,images/symbols/symbol_36.png,condition_files/AMP_rep1.csv,right,fairness.vice,,,,,,,,,,,,,,0,2,2,0,0,12,12,12,,,,,,,,,,,,,,,,,,,,,1232.6449952676194,,,,,,,,,,,,,,AMP_prac,left,1.01506453496404,3,,,right,1.3322004195069894,,,,,,,,,,,,,,,,,,,,,,,,,1026,2019_Jun_03_1651,mf_amp_cond1,3.0.7,59.972436556022,
riot,&&&&,images/symbols/symbol_70.png,condition_files/AMP_rep1.csv,right,authority.vice,,,,,,,,,,,,,,0,2,2,0,0,13,13,13,,,,,,,,,,,,,,,,,,,,,1233.8285920834169,,,,,,,,,,,,,,AMP_prac,left,1.01506453496404,3,,,right,0.9504829983925447,,,,,,,,,,,,,,,,,,,,,,,,,1026,2019_Jun_03_1651,mf_amp_cond1,3.0.7,59.972436556022,
wheighlde,&&&&&&&&&,images/symbols/symbol_59.png,condition_files/AMP_rep1.csv,None,nonword,,,,,,,,,,,,,,0,2,2,0,0,14,14,14,,,,,,,,,,,,,,,,,,,,,1234.7121689177584,,,,,,,,,,,,,,AMP_prac,left,1.01506453496404,3,,,left,0.6653097787639126,,,,,,,,,,,,,,,,,,,,,,,,,1026,2019_Jun_03_1651,mf_amp_cond1,3.0.7,59.972436556022,
sharing,&&&&&&&,images/symbols/symbol_69.png,condition_files/AMP_rep1.csv,left,loyalty.virtue,,,,,,,,,,,,,,0,2,2,0,0,15,15,15,,,,,,,,,,,,,,,,,,,,,1235.4623843659647,,,,,,,,,,,,,,AMP_prac,left,1.01506453496404,3,,,left,0.5324086353648454,,,,,,,,,,,,,,,,,,,,,,,,,1026,2019_Jun_03_1651,mf_amp_cond1,3.0.7,59.972436556022,
perfect,&&&&&&&,images/symbols/symbol_18.png,condition_files/AMP_rep1.csv,left,sanctity.virtue,,,,,,,,,,,,,,0,2,2,0,0,16,16,16,,,,,,,,,,,,,,,,,,,,,1236.229243607726,,,,,,,,,,,,,,AMP_prac,left,1.01506453496404,3,,,right,0.5337111066328362,,,,,,,,,,,,,,,,,,,,,,,,,1026,2019_Jun_03_1651,mf_amp_cond1,3.0.7,59.972436556022,
peaceful,&&&&&&&&,images/symbols/symbol_29.png,condition_files/AMP_rep1.csv,left,authority.virtue,,,,,,,,,,,,,,0,2,2,0,0,17,17,17,,,,,,,,,,,,,,,,,,,,,1236.8960957613308,,,,,,,,,,,,,,AMP_prac,left,1.01506453496404,3,,,left,0.44842537597287446,,,,,,,,,,,,,,,,,,,,,,,,,1026,2019_Jun_03_1651,mf_amp_cond1,3.0.7,59.972436556022,
respect,&&&&&&&,images/symbols/symbol_34.png,condition_files/AMP_rep1.csv,left,sanctity.virtue,,,,,,,,,,,,,,0,2,2,0,0,18,18,18,,,,,,,,,,,,,,,,,,,,,1237.9797143543838,,,,,,,,,,,,,,AMP_prac,left,1.01506453496404,3,,,left,0.8657383337849751,,,,,,,,,,,,,,,,,,,,,,,,,1026,2019_Jun_03_1651,mf_amp_cond1,3.0.7,59.972436556022,
harassment,&&&&&&&&&&,images/symbols/symbol_79.png,condition_files/AMP_rep1.csv,right,sanctity.vice,,,,,,,,,,,,,,0,2,2,0,0,19,19,19,,,,,,,,,,,,,,,,,,,,,1239.0133265168406,,,,,,,,,,,,,,AMP_prac,left,1.01506453496404,3,,,left,0.8157110559986904,,,,,,,,,,,,,,,,,,,,,,,,,1026,2019_Jun_03_1651,mf_amp_cond1,3.0.7,59.972436556022,
ability,&&&&&&&,images/symbols/symbol_41.png,condition_files/AMP_rep1.csv,left,authority.virtue,,,,,,,,,,,,,,0,2,2,0,0,20,20,20,,,,,,,,,,,,,,,,,,,,,1240.463932834682,,,,,,,,,,,,,,AMP_prac,left,1.01506453496404,3,,,left,1.233423318597488,,,,,,,,,,,,,,,,,,,,,,,,,1026,2019_Jun_03_1651,mf_amp_cond1,3.0.7,59.972436556022,
safe,&&&&,images/symbols/symbol_81.png,condition_files/AMP_rep1.csv,left,care.virtue,,,,,,,,,,,,,,0,2,2,0,0,21,21,21,,,,,,,,,,,,,,,,,,,,,1241.213922170573,,,,,,,,,,,,,,AMP_prac,left,1.01506453496404,3,,,left,0.5170525597641245,,,,,,,,,,,,,,,,,,,,,,,,,1026,2019_Jun_03_1651,mf_amp_cond1,3.0.7,59.972436556022,
abuse,&&&&&,images/symbols/symbol_58.png,condition_files/AMP_rep1.csv,right,sanctity.vice,,,,,,,,,,,,,,0,2,2,0,0,22,22,22,,,,,,,,,,,,,,,,,,,,,1241.9806688370882,,,,,,,,,,,,,,AMP_prac,left,1.01506453496404,3,,,left,0.5335943622048944,,,,,,,,,,,,,,,,,,,,,,,,,1026,2019_Jun_03_1651,mf_amp_cond1,3.0.7,59.972436556022,
interests,&&&&&&&&&,images/symbols/symbol_54.png,condition_files/AMP_rep1.csv,left,fairness.virtue,,,,,,,,,,,,,,0,2,2,0,0,23,23,23,,,,,,,,,,,,,,,,,,,,,1243.2811381565407,,,,,,,,,,,,,,AMP_prac,left,1.01506453496404,3,,,left,1.0819274010136724,,,,,,,,,,,,,,,,,,,,,,,,,1026,2019_Jun_03_1651,mf_amp_cond1,3.0.7,59.972436556022,
fourz,&&&&&,images/symbols/symbol_77.png,condition_files/AMP_rep1.csv,None,nonword,,,,,,,,,,,,,,0,2,2,0,0,24,24,24,,,,,,,,,,,,,,,,,,,,,1243.9813279305818,,,,,,,,,,,,,,AMP_prac,left,1.01506453496404,3,,,left,0.4825420416891575,,,,,,,,,,,,,,,,,,,,,,,,,1026,2019_Jun_03_1651,mf_amp_cond1,3.0.7,59.972436556022,
police,&&&&&&,images/symbols/symbol_45.png,condition_files/AMP_rep1.csv,right,authority.vice,,,,,,,,,,,,,,0,2,2,0,0,25,25,25,,,,,,,,,,,,,,,,,,,,,1244.5481569598196,,,,,,,,,,,,,,AMP_prac,left,1.01506453496404,3,,,left,0.34908090939279646,,,,,,,,,,,,,,,,,,,,,,,,,1026,2019_Jun_03_1651,mf_amp_cond1,3.0.7,59.972436556022,
thinx,&&&&&,images/symbols/symbol_76.png,condition_files/AMP_rep1.csv,None,nonword,,,,,,,,,,,,,,0,2,2,0,0,26,26,26,,,,,,,,,,,,,,,,,,,,,1245.148324250942,,,,,,,,,,,,,,AMP_prac,left,1.01506453496404,3,,,left,0.382827777066268,,,,,,,,,,,,,,,,,,,,,,,,,1026,2019_Jun_03_1651,mf_amp_cond1,3.0.7,59.972436556022,
death,&&&&&,images/symbols/symbol_1.png,condition_files/AMP_rep1.csv,right,care.vice,,,,,,,,,,,,,,0,2,2,0,0,27,27,27,,,,,,,,,,,,,,,,,,,,,1246.2319351464976,,,,,,,,,,,,,,AMP_prac,left,1.01506453496404,3,,,left,0.8657325607491657,,,,,,,,,,,,,,,,,,,,,,,,,1026,2019_Jun_03_1651,mf_amp_cond1,3.0.7,59.972436556022,
commitment,&&&&&&&&&&,images/symbols/symbol_42.png,condition_files/AMP_rep1.csv,left,sanctity.virtue,,,,,,,,,,,,,,0,2,2,0,0,28,28,28,,,,,,,,,,,,,,,,,,,,,1246.9486949468264,,,,,,,,,,,,,,AMP_prac,left,1.01506453496404,3,,,left,0.4988227724097669,,,,,,,,,,,,,,,,,,,,,,,,,1026,2019_Jun_03_1651,mf_amp_cond1,3.0.7,59.972436556022,
good,&&&&,images/symbols/symbol_65.png,condition_files/AMP_rep1.csv,left,care.virtue,,,,,,,,,,,,,,0,2,2,0,0,29,29,29,,,,,,,,,,,,,,,,,,,,,1247.7490528137423,,,,,,,,,,,,,,AMP_prac,left,1.01506453496404,3,,,left,0.582551054074429,,,,,,,,,,,,,,,,,,,,,,,,,1026,2019_Jun_03_1651,mf_amp_cond1,3.0.7,59.972436556022,
credit,&&&&&&,images/symbols/symbol_11.png,condition_files/AMP_rep1.csv,left,fairness.virtue,,,,,,,,,,,,,,0,2,2,0,0,30,30,30,,,,,,,,,,,,,,,,,,,,,1248.7326008147793,,,,,,,,,,,,,,AMP_prac,left,1.01506453496404,3,,,left,0.7659483777824789,,,,,,,,,,,,,,,,,,,,,,,,,1026,2019_Jun_03_1651,mf_amp_cond1,3.0.7,59.972436556022,
values,&&&&&&,images/symbols/symbol_72.png,condition_files/AMP_rep1.csv,left,sanctity.virtue,,,,,,,,,,,,,,0,2,2,0,0,31,31,31,,,,,,,,,,,,,,,,,,,,,1249.8162386515178,,,,,,,,,,,,,,AMP_prac,left,1.01506453496404,3,,,left,0.8659147334983572,,,,,,,,,,,,,,,,,,,,,,,,,1026,2019_Jun_03_1651,mf_amp_cond1,3.0.7,59.972436556022,
critics,&&&&&&&,images/symbols/symbol_60.png,condition_files/AMP_rep1.csv,right,loyalty.vice,,,,,,,,,,,,,,0,2,2,0,0,32,32,32,,,,,,,,,,,,,,,,,,,,,1250.566445440054,,,,,,,,,,,,,,AMP_prac,left,1.01506453496404,3,,,left,0.5324670077534392,,,,,,,,,,,,,,,,,,,,,,,,,1026,2019_Jun_03_1651,mf_amp_cond1,3.0.7,59.972436556022,
violations,&&&&&&&&&&,images/symbols/symbol_75.png,condition_files/AMP_rep1.csv,right,sanctity.vice,,,,,,,,,,,,,,0,2,2,0,0,33,33,33,,,,,,,,,,,,,,,,,,,,,1252.4169239162002,,,,,,,,,,,,,,AMP_prac,left,1.01506453496404,3,,,left,1.6328172733774409,,,,,,,,,,,,,,,,,,,,,,,,,1026,2019_Jun_03_1651,mf_amp_cond1,3.0.7,59.972436556022,
wraughsed,&&&&&&&&&,images/symbols/symbol_9.png,condition_files/AMP_rep1.csv,None,nonword,,,,,,,,,,,,,,0,2,2,0,0,34,34,34,,,,,,,,,,,,,,,,,,,,,1253.5172539760824,,,,,,,,,,,,,,AMP_prac,left,1.01506453496404,3,,,left,0.8825703938491642,,,,,,,,,,,,,,,,,,,,,,,,,1026,2019_Jun_03_1651,mf_amp_cond1,3.0.7,59.972436556022,
scandal,&&&&&&&,images/symbols/symbol_63.png,condition_files/AMP_rep1.csv,right,sanctity.vice,,,,,,,,,,,,,,0,2,2,0,0,35,35,35,,,,,,,,,,,,,,,,,,,,,1256.4180054068565,,,,,,,,,,,,,,AMP_prac,left,1.01506453496404,3,,,left,2.683270155452192,,,,,,,,,,,,,,,,,,,,,,,,,1026,2019_Jun_03_1651,mf_amp_cond1,3.0.7,59.972436556022,
peizz,&&&&&,images/symbols/symbol_8.png,condition_files/AMP_rep1.csv,None,nonword,,,,,,,,,,,,,,0,2,2,0,0,36,36,36,,,,,,,,,,,,,,,,,,,,,1257.1515401778743,,,,,,,,,,,,,,AMP_prac,left,1.01506453496404,3,,,left,0.5158504758728668,,,,,,,,,,,,,,,,,,,,,,,,,1026,2019_Jun_03_1651,mf_amp_cond1,3.0.7,59.972436556022,
terrorist,&&&&&&&&&,images/symbols/symbol_37.png,condition_files/AMP_rep1.csv,right,loyalty.vice,,,,,,,,,,,,,,0,2,2,0,0,37,37,37,,,,,,,,,,,,,,,,,,,,,1257.951751151937,,,,,,,,,,,,,,AMP_prac,left,1.01506453496404,3,,,left,0.5670554623939097,,,,,,,,,,,,,,,,,,,,,,,,,1026,2019_Jun_03_1651,mf_amp_cond1,3.0.7,59.972436556022,
pleasant,&&&&&&&,images/symbols/symbol_28.png,condition_files/AMP_rep1.csv,right,control,,,,,,,,,,,,,,0,2,2,0,0,38,38,38,,,,,,,,,,,,,,,,,,,,,1259.085386118153,,,,,,,,,,,,,,AMP_prac,left,1.01506453496404,3,,,left,0.9153252538526431,,,,,,,,,,,,,,,,,,,,,,,,,1026,2019_Jun_03_1651,mf_amp_cond1,3.0.7,59.972436556022,
forced,&&&&&&,images/symbols/symbol_26.png,condition_files/AMP_rep1.csv,right,fairness.vice,,,,,,,,,,,,,,0,2,2,0,0,39,39,39,,,,,,,,,,,,,,,,,,,,,1261.3026480161352,,,,,,,,,,,,,,AMP_prac,left,1.01506453496404,3,,,left,1.99953751207795,,,,,,,,,,,,,,,,,,,,,,,,,1026,2019_Jun_03_1651,mf_amp_cond1,3.0.7,59.972436556022,
crime,&&&&&,images/symbols/symbol_68.png,condition_files/AMP_rep1.csv,right,fairness.vice,,,,,,,,,,,,,,0,2,2,0,0,40,40,40,,,,,,,,,,,,,,,,,,,,,1262.436329166987,,,,,,,,,,,,,,AMP_prac,left,1.01506453496404,3,,,left,0.9005249976180494,,,,,,,,,,,,,,,,,,,,,,,,,1026,2019_Jun_03_1651,mf_amp_cond1,3.0.7,59.972436556022,
snoze,&&&&&,images/symbols/symbol_46.png,condition_files/AMP_rep1.csv,None,nonword,,,,,,,,,,,,,,0,2,2,0,0,41,41,41,,,,,,,,,,,,,,,,,,,,,1263.253172709141,,,,,,,,,,,,,,AMP_prac,left,1.01506453496404,3,,,right,0.5985306225484237,,,,,,,,,,,,,,,,,,,,,,,,,1026,2019_Jun_03_1651,mf_amp_cond1,3.0.7,59.972436556022,
strength,&&&&&&&&,images/symbols/symbol_16.png,condition_files/AMP_rep1.csv,left,sanctity.virtue,,,,,,,,,,,,,,0,2,2,0,0,42,42,42,,,,,,,,,,,,,,,,,,,,,1264.0700771893607,,,,,,,,,,,,,,AMP_prac,left,1.01506453496404,3,,,right,0.5994604093721136,,,,,,,,,,,,,,,,,,,,,,,,,1026,2019_Jun_03_1651,mf_amp_cond1,3.0.7,59.972436556022,
fraud,&&&&&,images/symbols/symbol_56.png,condition_files/AMP_rep1.csv,right,fairness.vice,,,,,,,,,,,,,,0,2,2,0,0,43,43,43,,,,,,,,,,,,,,,,,,,,,1264.7202358368086,,,,,,,,,,,,,,AMP_prac,left,1.01506453496404,3,,,right,0.43246857915073633,,,,,,,,,,,,,,,,,,,,,,,,,1026,2019_Jun_03_1651,mf_amp_cond1,3.0.7,59.972436556022,
ban,&&&,images/symbols/symbol_78.png,condition_files/AMP_rep1.csv,right,loyalty.vice,,,,,,,,,,,,,,0,2,2,0,0,44,44,44,,,,,,,,,,,,,,,,,,,,,1265.5704949358478,,,,,,,,,,,,,,AMP_prac,left,1.01506453496404,3,,,left,0.6324644739506766,,,,,,,,,,,,,,,,,,,,,,,,,1026,2019_Jun_03_1651,mf_amp_cond1,3.0.7,59.972436556022,
energy,&&&&&&,images/symbols/symbol_23.png,condition_files/AMP_rep1.csv,left,sanctity.virtue,,,,,,,,,,,,,,0,2,2,0,0,45,45,45,,,,,,,,,,,,,,,,,,,,,1266.4206972663524,,,,,,,,,,,,,,AMP_prac,left,1.01506453496404,3,,,left,0.6325302228797227,,,,,,,,,,,,,,,,,,,,,,,,,1026,2019_Jun_03_1651,mf_amp_cond1,3.0.7,59.972436556022,
promote,&&&&&&&,images/symbols/symbol_40.png,condition_files/AMP_rep1.csv,left,sanctity.virtue,,,,,,,,,,,,,,0,2,2,0,0,46,46,46,,,,,,,,,,,,,,,,,,,,,1268.5712900174549,,,,,,,,,,,,,,AMP_prac,left,1.01506453496404,3,,,left,1.9328770246356726,,,,,,,,,,,,,,,,,,,,,,,,,1026,2019_Jun_03_1651,mf_amp_cond1,3.0.7,59.972436556022,
charges,&&&&&&&,images/symbols/symbol_32.png,condition_files/AMP_rep1.csv,right,fairness.vice,,,,,,,,,,,,,,0,2,2,0,0,47,47,47,,,,,,,,,,,,,,,,,,,,,1269.3714926525718,,,,,,,,,,,,,,AMP_prac,left,1.01506453496404,3,,,left,0.5825616380898282,,,,,,,,,,,,,,,,,,,,,,,,,1026,2019_Jun_03_1651,mf_amp_cond1,3.0.7,59.972436556022,
promises,&&&&&&&&,images/symbols/symbol_67.png,condition_files/AMP_rep1.csv,left,fairness.virtue,,,,,,,,,,,,,,0,2,2,0,0,48,48,48,,,,,,,,,,,,,,,,,,,,,1270.1050492331851,,,,,,,,,,,,,,AMP_prac,left,1.01506453496404,3,,,left,0.500438914517872,,,,,,,,,,,,,,,,,,,,,,,,,1026,2019_Jun_03_1651,mf_amp_cond1,3.0.7,59.972436556022,
victim,&&&&&&,images/symbols/symbol_33.png,condition_files/AMP_rep1.csv,right,care.vice,,,,,,,,,,,,,,0,2,2,0,0,49,49,49,,,,,,,,,,,,,,,,,,,,,1271.272001934587,,,,,,,,,,,,,,AMP_prac,left,1.01506453496404,3,,,left,0.9487773736473173,,,,,,,,,,,,,,,,,,,,,,,,,1026,2019_Jun_03_1651,mf_amp_cond1,3.0.7,59.972436556022,
voter,&&&&&,images/symbols/symbol_27.png,condition_files/AMP_rep1.csv,right,fairness.vice,,,,,,,,,,,,,,0,2,2,0,0,50,50,50,,,,,,,,,,,,,,,,,,,,,1272.1889051640173,,,,,,,,,,,,,,AMP_prac,left,1.01506453496404,3,,,left,0.6991490157088265,,,,,,,,,,,,,,,,,,,,,,,,,1026,2019_Jun_03_1651,mf_amp_cond1,3.0.7,59.972436556022,
great,&&&&&,images/symbols/symbol_17.png,condition_files/AMP_rep1.csv,left,loyalty.virtue,,,,,,,,,,,,,,0,2,2,0,0,51,51,51,,,,,,,,,,,,,,,,,,,,,1273.072487771511,,,,,,,,,,,,,,AMP_prac,left,1.01506453496404,3,,,left,0.66590568900574,,,,,,,,,,,,,,,,,,,,,,,,,1026,2019_Jun_03_1651,mf_amp_cond1,3.0.7,59.972436556022,
serial,&&&&&&,images/symbols/symbol_5.png,condition_files/AMP_rep1.csv,right,sanctity.vice,,,,,,,,,,,,,,0,2,2,0,0,52,52,52,,,,,,,,,,,,,,,,,,,,,1273.8393553521018,,,,,,,,,,,,,,AMP_prac,left,1.01506453496404,3,,,right,0.5492637878051028,,,,,,,,,,,,,,,,,,,,,,,,,1026,2019_Jun_03_1651,mf_amp_cond1,3.0.7,59.972436556022,
care,&&&&,images/symbols/symbol_30.png,condition_files/AMP_rep1.csv,left,care.virtue,,,,,,,,,,,,,,0,2,2,0,0,53,53,53,,,,,,,,,,,,,,,,,,,,,1274.3896971024806,,,,,,,,,,,,,,AMP_prac,left,1.01506453496404,3,,,left,0.3328017821768299,,,,,,,,,,,,,,,,,,,,,,,,,1026,2019_Jun_03_1651,mf_amp_cond1,3.0.7,59.972436556022,
promised,&&&&&&&&,images/symbols/symbol_61.png,condition_files/AMP_rep1.csv,left,loyalty.virtue,,,,,,,,,,,,,,0,2,2,0,0,54,54,54,,,,,,,,,,,,,,,,,,,,,1275.4397779416759,,,,,,,,,,,,,,AMP_prac,left,1.01506453496404,3,,,left,0.8171254608314484,,,,,,,,,,,,,,,,,,,,,,,,,1026,2019_Jun_03_1651,mf_amp_cond1,3.0.7,59.972436556022,
plonx,&&&&&,images/symbols/symbol_49.png,condition_files/AMP_rep1.csv,None,nonword,,,,,,,,,,,,,,0,2,2,0,0,55,55,55,,,,,,,,,,,,,,,,,,,,,1276.1066284916596,,,,,,,,,,,,,,AMP_prac,left,1.01506453496404,3,,,left,0.4336860579205677,,,,,,,,,,,,,,,,,,,,,,,,,1026,2019_Jun_03_1651,mf_amp_cond1,3.0.7,59.972436556022,
loyalty,&&&&&&&,images/symbols/symbol_22.png,condition_files/AMP_rep1.csv,left,loyalty.virtue,,,,,,,,,,,,,,0,2,2,0,0,56,56,56,,,,,,,,,,,,,,,,,,,,,1277.2069707391784,,,,,,,,,,,,,,AMP_prac,left,1.01506453496404,3,,,left,0.8820033490192145,,,,,,,,,,,,,,,,,,,,,,,,,1026,2019_Jun_03_1651,mf_amp_cond1,3.0.7,59.972436556022,
unpleasant,&&&&&&&&&,images/symbols/symbol_71.png,condition_files/AMP_rep1.csv,left,control,,,,,,,,,,,,,,0,2,2,0,0,57,57,57,,,,,,,,,,,,,,,,,,,,,1279.3908741696505,,,,,,,,,,,,,,AMP_prac,left,1.01506453496404,3,,,left,1.9662739795167,,,,,,,,,,,,,,,,,,,,,,,,,1026,2019_Jun_03_1651,mf_amp_cond1,3.0.7,59.972436556022,
shot,&&&&,images/symbols/symbol_64.png,condition_files/AMP_rep1.csv,right,care.vice,,,,,,,,,,,,,,0,2,2,0,0,58,58,58,,,,,,,,,,,,,,,,,,,,,1280.4744824994123,,,,,,,,,,,,,,AMP_prac,left,1.01506453496404,3,,,left,0.8657954231603071,,,,,,,,,,,,,,,,,,,,,,,,,1026,2019_Jun_03_1651,mf_amp_cond1,3.0.7,59.972436556022,
celebrated,&&&&&&&&&&,images/symbols/symbol_48.png,condition_files/AMP_rep1.csv,left,authority.virtue,,,,,,,,,,,,,,0,2,2,0,0,59,59,59,,,,,,,,,,,,,,,,,,,,,1281.241352966521,,,,,,,,,,,,,,AMP_prac,left,1.01506453496404,3,,,left,0.5488041862845421,,,,,,,,,,,,,,,,,,,,,,,,,1026,2019_Jun_03_1651,mf_amp_cond1,3.0.7,59.972436556022,
honored,&&&&&&&,images/symbols/symbol_57.png,condition_files/AMP_rep1.csv,left,authority.virtue,,,,,,,,,,,,,,0,2,2,0,0,60,60,60,,,,,,,,,,,,,,,,,,,,,1282.02488999872,,,,,,,,,,,,,,AMP_prac,left,1.01506453496404,3,,,left,0.5658764708787203,,,,,,,,,,,,,,,,,,,,,,,,,1026,2019_Jun_03_1651,mf_amp_cond1,3.0.7,59.972436556022,
army,&&&&,images/symbols/symbol_24.png,condition_files/AMP_rep1.csv,right,loyalty.vice,,,,,,,,,,,,,,0,2,2,0,0,61,61,61,,,,,,,,,,,,,,,,,,,,,1282.8417794047855,,,,,,,,,,,,,,AMP_prac,left,1.01506453496404,3,,,left,0.5837258760584518,,,,,,,,,,,,,,,,,,,,,,,,,1026,2019_Jun_03_1651,mf_amp_cond1,3.0.7,59.972436556022,
victims,&&&&&&&,images/symbols/symbol_4.png,condition_files/AMP_rep1.csv,right,care.vice,,,,,,,,,,,,,,0,2,2,0,0,62,62,62,,,,,,,,,,,,,,,,,,,,,1283.6086476268247,,,,,,,,,,,,,,AMP_prac,left,1.01506453496404,3,,,left,0.548300645314157,,,,,,,,,,,,,,,,,,,,,,,,,1026,2019_Jun_03_1651,mf_amp_cond1,3.0.7,59.972436556022,
troops,&&&&&&,images/symbols/symbol_15.png,condition_files/AMP_rep1.csv,right,loyalty.vice,,,,,,,,,,,,,,0,2,2,0,0,63,63,63,,,,,,,,,,,,,,,,,,,,,1284.2588970399229,,,,,,,,,,,,,,AMP_prac,left,1.01506453496404,3,,,left,0.4325757019687444,,,,,,,,,,,,,,,,,,,,,,,,,1026,2019_Jun_03_1651,mf_amp_cond1,3.0.7,59.972436556022,
corruption,&&&&&&&&&&,images/symbols/symbol_50.png,condition_files/AMP_rep1.csv,right,sanctity.vice,,,,,,,,,,,,,,0,2,2,0,0,64,64,64,,,,,,,,,,,,,,,,,,,,,1285.1924129523104,,,,,,,,,,,,,,AMP_prac,left,1.01506453496404,3,,,left,0.7158851785352454,,,,,,,,,,,,,,,,,,,,,,,,,1026,2019_Jun_03_1651,mf_amp_cond1,3.0.7,59.972436556022,
peighld,&&&&&&&,images/symbols/symbol_53.png,condition_files/AMP_rep1.csv,None,nonword,,,,,,,,,,,,,,0,2,2,0,0,65,65,65,,,,,,,,,,,,,,,,,,,,,1286.259363376652,,,,,,,,,,,,,,AMP_prac,left,1.01506453496404,3,,,left,0.8492539414437488,,,,,,,,,,,,,,,,,,,,,,,,,1026,2019_Jun_03_1651,mf_amp_cond1,3.0.7,59.972436556022,
prosecution,&&&&&&&&&&&,images/symbols/symbol_14.png,condition_files/AMP_rep1.csv,right,authority.vice,,,,,,,,,,,,,,0,2,2,0,0,66,66,66,,,,,,,,,,,,,,,,,,,,,1287.009554128861,,,,,,,,,,,,,,AMP_prac,left,1.01506453496404,3,,,left,0.532447443343699,,,,,,,,,,,,,,,,,,,,,,,,,1026,2019_Jun_03_1651,mf_amp_cond1,3.0.7,59.972436556022,
trust,&&&&&,images/symbols/symbol_51.png,condition_files/AMP_rep1.csv,left,authority.virtue,,,,,,,,,,,,,,0,2,2,0,0,67,67,67,,,,,,,,,,,,,,,,,,,,,1287.643132807454,,,,,,,,,,,,,,AMP_prac,left,1.01506453496404,3,,,left,0.41593896446283907,,,,,,,,,,,,,,,,,,,,,,,,,1026,2019_Jun_03_1651,mf_amp_cond1,3.0.7,59.972436556022,
support,&&&&&&&,images/symbols/symbol_19.png,condition_files/AMP_rep1.csv,left,loyalty.virtue,,,,,,,,,,,,,,0,2,2,0,0,68,68,68,,,,,,,,,,,,,,,,,,,,,1288.3932623008732,,,,,,,,,,,,,,AMP_prac,left,1.01506453496404,3,,,right,0.532526662806049,,,,,,,,,,,,,,,,,,,,,,,,,1026,2019_Jun_03_1651,mf_amp_cond1,3.0.7,59.972436556022,
strong,&&&&&&,images/symbols/symbol_44.png,condition_files/AMP_rep1.csv,left,loyalty.virtue,,,,,,,,,,,,,,0,2,2,0,0,69,69,69,,,,,,,,,,,,,,,,,,,,,1289.0100923083955,,,,,,,,,,,,,,AMP_prac,left,1.01506453496404,3,,,left,0.3990979240043089,,,,,,,,,,,,,,,,,,,,,,,,,1026,2019_Jun_03_1651,mf_amp_cond1,3.0.7,59.972436556022,
clorze,&&&&&&,images/symbols/symbol_66.png,condition_files/AMP_rep1.csv,None,nonword,,,,,,,,,,,,,,0,2,2,0,0,70,70,70,,,,,,,,,,,,,,,,,,,,,1289.6936321950052,,,,,,,,,,,,,,AMP_prac,left,1.01506453496404,3,,,left,0.46585013915318996,,,,,,,,,,,,,,,,,,,,,,,,,1026,2019_Jun_03_1651,mf_amp_cond1,3.0.7,59.972436556022,
hope,&&&&,images/symbols/symbol_55.png,condition_files/AMP_rep1.csv,left,loyalty.virtue,,,,,,,,,,,,,,0,2,2,0,0,71,71,71,,,,,,,,,,,,,,,,,,,,,1290.2604333211202,,,,,,,,,,,,,,AMP_prac,left,1.01506453496404,3,,,left,0.34894748707301915,,,,,,,,,,,,,,,,,,,,,,,,,1026,2019_Jun_03_1651,mf_amp_cond1,3.0.7,59.972436556022,
prinse,&&&&&&,images/symbols/symbol_12.png,condition_files/AMP_rep1.csv,None,nonword,,,,,,,,,,,,,,0,2,2,0,0,72,72,72,,,,,,,,,,,,,,,,,,,,,1290.860594197642,,,,,,,,,,,,,,AMP_prac,left,1.01506453496404,3,,,left,0.3670011953217909,,,,,,,,,,,,,,,,,,,,,,,,,1026,2019_Jun_03_1651,mf_amp_cond1,3.0.7,59.972436556022,
torture,&&&&&&&,images/symbols/symbol_43.png,condition_files/AMP_rep1.csv,right,care.vice,,,,,,,,,,,,,,0,2,2,0,0,73,73,73,,,,,,,,,,,,,,,,,,,,,1291.560794555582,,,,,,,,,,,,,,AMP_prac,left,1.01506453496404,3,,,left,0.48186178028117865,,,,,,,,,,,,,,,,,,,,,,,,,1026,2019_Jun_03_1651,mf_amp_cond1,3.0.7,59.972436556022,
health,&&&&&&,images/symbols/symbol_31.png,condition_files/AMP_rep1.csv,left,care.virtue,,,,,,,,,,,,,,0,2,2,0,0,74,74,74,,,,,,,,,,,,,,,,,,,,,1292.3109914016677,,,,,,,,,,,,,,AMP_prac,left,1.01506453496404,3,,,left,0.5334602983202785,,,,,,,,,,,,,,,,,,,,,,,,,1026,2019_Jun_03_1651,mf_amp_cond1,3.0.7,59.972436556022,
compassion,&&&&&&&&&&,images/symbols/symbol_62.png,condition_files/AMP_rep1.csv,left,care.virtue,,,,,,,,,,,,,,0,2,2,0,0,75,75,75,,,,,,,,,,,,,,,,,,,,,1294.1448078028625,,,,,,,,,,,,,,AMP_prac,left,1.01506453496404,3,,,left,1.6006644174922258,,,,,,,,,,,,,,,,,,,,,,,,,1026,2019_Jun_03_1651,mf_amp_cond1,3.0.7,59.972436556022,
blamed,&&&&&&,images/symbols/symbol_82.png,condition_files/AMP_rep1.csv,right,loyalty.vice,,,,,,,,,,,,,,0,2,2,0,0,76,76,76,,,,,,,,,,,,,,,,,,,,,1295.345221925294,,,,,,,,,,,,,,AMP_prac,left,1.01506453496404,3,,,left,0.9672425742028281,,,,,,,,,,,,,,,,,,,,,,,,,1026,2019_Jun_03_1651,mf_amp_cond1,3.0.7,59.972436556022,
protect,&&&&&&&,images/symbols/symbol_35.png,condition_files/AMP_rep1.csv,left,fairness.virtue,,,,,,,,,,,,,,0,2,2,0,0,77,77,77,,,,,,,,,,,,,,,,,,,,,1296.6288203767035,,,,,,,,,,,,,,AMP_prac,left,1.01506453496404,3,,,right,1.0641950608696789,,,,,,,,,,,,,,,,,,,,,,,,,1026,2019_Jun_03_1651,mf_amp_cond1,3.0.7,59.972436556022,
betrayal,&&&&&&&&,images/symbols/symbol_39.png,condition_files/AMP_rep1.csv,right,loyalty.vice,,,,,,,,,,,,,,0,2,2,0,0,78,78,78,,,,,,,,,,,,,,,,,,,,,1298.3292741087498,,,,,,,,,,,,,,AMP_prac,left,1.01506453496404,3,,,left,1.4826523716328666,,,,,,,,,,,,,,,,,,,,,,,,,1026,2019_Jun_03_1651,mf_amp_cond1,3.0.7,59.972436556022,
increase,&&&&&&&&,images/symbols/symbol_2.png,condition_files/AMP_rep1.csv,left,care.virtue,,,,,,,,,,,,,,0,2,2,0,0,79,79,79,,,,,,,,,,,,,,,,,,,,,1299.0630760452477,,,,,,,,,,,,,,AMP_prac,left,1.01506453496404,3,,,left,0.5160983977839351,,,,,,,,,,,,,,,,,,,,,,,,,1026,2019_Jun_03_1651,mf_amp_cond1,3.0.7,59.972436556022,
violence,&&&&&&&&,images/symbols/symbol_10.png,condition_files/AMP_rep1.csv,right,care.vice,,,,,,,,,,,,,,0,2,2,0,0,80,80,80,,,,,,,,,,,,,,,,,,,,,1301.4968012318714,,,,,,,,,,,,,,AMP_prac,left,1.01506453496404,3,,,left,2.216395615134388,,,,,,,,,,,,,,,,,,,,,,,,,1026,2019_Jun_03_1651,mf_amp_cond1,3.0.7,59.972436556022,
opportunity,&&&&&&&&&&&,images/symbols/symbol_80.png,condition_files/AMP_rep1.csv,left,fairness.virtue,,,,,,,,,,,,,,0,2,2,0,0,81,81,81,,,,,,,,,,,,,,,,,,,,,1302.4970539645292,,,,,,,,,,,,,,AMP_prac,left,1.01506453496404,3,,,left,0.7829270099755377,,,,,,,,,,,,,,,,,,,,,,,,,1026,2019_Jun_03_1651,mf_amp_cond1,3.0.7,59.972436556022,
,,,condition_files/AMP_rep1.csv,,,,,,,,,,,,,,,,0,2,2,0,,,,,,,,,,,,,,,,,,,,,,,,,,,,,,,,,,,,,,,,,,,,,,,right,18.888667730032466,,,,,,,,,,,,,,,,,,,,,,,1026,2019_Jun_03_1651,mf_amp_cond1,3.0.7,59.972436556022,
arrests,&&&&&&&,images/symbols/symbol_47.png,condition_files/AMP_rep2.csv,right,authority.vice,,,,,,,,,,,,,,0,3,3,1,0,0,0,0,,,,,,,,,,,,,,,,,,,,,1322.185855373391,,,,,,,,,,,,,,AMP_prac,left,1.01506453496404,3,,,left,0.5490845014574006,,,,,,,,,,,,,,,,,,,,,,,,,1026,2019_Jun_03_1651,mf_amp_cond1,3.0.7,59.972436556022,
fair,&&&&,images/symbols/symbol_52.png,condition_files/AMP_rep2.csv,left,fairness.virtue,,,,,,,,,,,,,,0,3,3,1,0,1,1,1,,,,,,,,,,,,,,,,,,,,,1322.9192422894994,,,,,,,,,,,,,,AMP_prac,left,1.01506453496404,3,,,left,0.5004373110132292,,,,,,,,,,,,,,,,,,,,,,,,,1026,2019_Jun_03_1651,mf_amp_cond1,3.0.7,59.972436556022,
growth,&&&&&&,images/symbols/symbol_73.png,condition_files/AMP_rep2.csv,left,care.virtue,,,,,,,,,,,,,,0,3,3,1,0,2,2,2,,,,,,,,,,,,,,,,,,,,,1323.6694150810363,,,,,,,,,,,,,,AMP_prac,left,1.01506453496404,3,,,left,0.5317402408691123,,,,,,,,,,,,,,,,,,,,,,,,,1026,2019_Jun_03_1651,mf_amp_cond1,3.0.7,59.972436556022,
racist,&&&&&&,images/symbols/symbol_13.png,condition_files/AMP_rep2.csv,right,sanctity.vice,,,,,,,,,,,,,,0,3,3,1,0,3,3,3,,,,,,,,,,,,,,,,,,,,,1324.4196116062813,,,,,,,,,,,,,,AMP_prac,left,1.01506453496404,3,,,right,0.532510626479052,,,,,,,,,,,,,,,,,,,,,,,,,1026,2019_Jun_03_1651,mf_amp_cond1,3.0.7,59.972436556022,
accused,&&&&&&&,images/symbols/symbol_6.png,condition_files/AMP_rep2.csv,right,fairness.vice,,,,,,,,,,,,,,0,3,3,1,0,4,4,4,,,,,,,,,,,,,,,,,,,,,1325.1698174327612,,,,,,,,,,,,,,AMP_prac,left,1.01506453496404,3,,,right,0.5170548048336059,,,,,,,,,,,,,,,,,,,,,,,,,1026,2019_Jun_03_1651,mf_amp_cond1,3.0.7,59.972436556022,
praise,&&&&&&,images/symbols/symbol_20.png,condition_files/AMP_rep2.csv,left,authority.virtue,,,,,,,,,,,,,,0,3,3,1,0,5,5,5,,,,,,,,,,,,,,,,,,,,,1325.7866455158219,,,,,,,,,,,,,,AMP_prac,left,1.01506453496404,3,,,right,0.39907579380087554,,,,,,,,,,,,,,,,,,,,,,,,,1026,2019_Jun_03_1651,mf_amp_cond1,3.0.7,59.972436556022,
protesters,&&&&&&&&&&,images/symbols/symbol_25.png,condition_files/AMP_rep2.csv,right,authority.vice,,,,,,,,,,,,,,0,3,3,1,0,6,6,6,,,,,,,,,,,,,,,,,,,,,1326.5868709225906,,,,,,,,,,,,,,AMP_prac,left,1.01506453496404,3,,,left,0.5824240462388843,,,,,,,,,,,,,,,,,,,,,,,,,1026,2019_Jun_03_1651,mf_amp_cond1,3.0.7,59.972436556022,
actively,&&&&&&&&,images/symbols/symbol_21.png,condition_files/AMP_rep2.csv,left,authority.virtue,,,,,,,,,,,,,,0,3,3,1,0,7,7,7,,,,,,,,,,,,,,,,,,,,,1327.420429138816,,,,,,,,,,,,,,AMP_prac,left,1.01506453496404,3,,,left,0.6160067019518465,,,,,,,,,,,,,,,,,,,,,,,,,1026,2019_Jun_03_1651,mf_amp_cond1,3.0.7,59.972436556022,
killed,&&&&&&,images/symbols/symbol_3.png,condition_files/AMP_rep2.csv,right,care.vice,,,,,,,,,,,,,,0,3,3,1,0,8,8,8,,,,,,,,,,,,,,,,,,,,,1328.1706307957647,,,,,,,,,,,,,,AMP_prac,left,1.01506453496404,3,,,left,0.5325147958938032,,,,,,,,,,,,,,,,,,,,,,,,,1026,2019_Jun_03_1651,mf_amp_cond1,3.0.7,59.972436556022,
benefit,&&&&&&&,images/symbols/symbol_38.png,condition_files/AMP_rep2.csv,left,fairness.virtue,,,,,,,,,,,,,,0,3,3,1,0,9,9,9,,,,,,,,,,,,,,,,,,,,,1329.0541925559519,,,,,,,,,,,,,,AMP_prac,left,1.01506453496404,3,,,right,0.6656994617078453,,,,,,,,,,,,,,,,,,,,,,,,,1026,2019_Jun_03_1651,mf_amp_cond1,3.0.7,59.972436556022,
officers,&&&&&&&&,images/symbols/symbol_7.png,condition_files/AMP_rep2.csv,right,authority.vice,,,,,,,,,,,,,,0,3,3,1,0,10,10,10,,,,,,,,,,,,,,,,,,,,,1329.7877215540502,,,,,,,,,,,,,,AMP_prac,left,1.01506453496404,3,,,right,0.5160069905687124,,,,,,,,,,,,,,,,,,,,,,,,,1026,2019_Jun_03_1651,mf_amp_cond1,3.0.7,59.972436556022,
gun,&&&,images/symbols/symbol_74.png,condition_files/AMP_rep2.csv,right,authority.vice,,,,,,,,,,,,,,0,3,3,1,0,11,11,11,,,,,,,,,,,,,,,,,,,,,1330.5879344524583,,,,,,,,,,,,,,AMP_prac,left,1.01506453496404,3,,,left,0.5670612353133038,,,,,,,,,,,,,,,,,,,,,,,,,1026,2019_Jun_03_1651,mf_amp_cond1,3.0.7,59.972436556022,
lies,&&&&,images/symbols/symbol_36.png,condition_files/AMP_rep2.csv,right,fairness.vice,,,,,,,,,,,,,,0,3,3,1,0,12,12,12,,,,,,,,,,,,,,,,,,,,,1331.454829647555,,,,,,,,,,,,,,AMP_prac,left,1.01506453496404,3,,,right,0.6486053678672761,,,,,,,,,,,,,,,,,,,,,,,,,1026,2019_Jun_03_1651,mf_amp_cond1,3.0.7,59.972436556022,
riot,&&&&,images/symbols/symbol_70.png,condition_files/AMP_rep2.csv,right,authority.vice,,,,,,,,,,,,,,0,3,3,1,0,13,13,13,,,,,,,,,,,,,,,,,,,,,1332.2717193743447,,,,,,,,,,,,,,AMP_prac,left,1.01506453496404,3,,,right,0.5837245932780206,,,,,,,,,,,,,,,,,,,,,,,,,1026,2019_Jun_03_1651,mf_amp_cond1,3.0.7,59.972436556022,
wheighlde,&&&&&&&&&,images/symbols/symbol_59.png,condition_files/AMP_rep2.csv,None,nonword,,,,,,,,,,,,,,0,3,3,1,0,14,14,14,,,,,,,,,,,,,,,,,,,,,1332.9052290967666,,,,,,,,,,,,,,AMP_prac,left,1.01506453496404,3,,,right,0.4152452325215563,,,,,,,,,,,,,,,,,,,,,,,,,1026,2019_Jun_03_1651,mf_amp_cond1,3.0.7,59.972436556022,
sharing,&&&&&&&,images/symbols/symbol_69.png,condition_files/AMP_rep2.csv,left,loyalty.virtue,,,,,,,,,,,,,,0,3,3,1,0,15,15,15,,,,,,,,,,,,,,,,,,,,,1333.6886574025266,,,,,,,,,,,,,,AMP_prac,left,1.01506453496404,3,,,left,0.5656609424622729,,,,,,,,,,,,,,,,,,,,,,,,,1026,2019_Jun_03_1651,mf_amp_cond1,3.0.7,59.972436556022,
perfect,&&&&&&&,images/symbols/symbol_18.png,condition_files/AMP_rep2.csv,left,sanctity.virtue,,,,,,,,,,,,,,0,3,3,1,0,16,16,16,,,,,,,,,,,,,,,,,,,,,1334.405623750994,,,,,,,,,,,,,,AMP_prac,left,1.01506453496404,3,,,right,0.4836937712971121,,,,,,,,,,,,,,,,,,,,,,,,,1026,2019_Jun_03_1651,mf_amp_cond1,3.0.7,59.972436556022,
peaceful,&&&&&&&&,images/symbols/symbol_29.png,condition_files/AMP_rep2.csv,left,authority.virtue,,,,,,,,,,,,,,0,3,3,1,0,17,17,17,,,,,,,,,,,,,,,,,,,,,1335.122546480503,,,,,,,,,,,,,,AMP_prac,left,1.01506453496404,3,,,left,0.4984481637366116,,,,,,,,,,,,,,,,,,,,,,,,,1026,2019_Jun_03_1651,mf_amp_cond1,3.0.7,59.972436556022,
respect,&&&&&&&,images/symbols/symbol_34.png,condition_files/AMP_rep2.csv,left,sanctity.virtue,,,,,,,,,,,,,,0,3,3,1,0,18,18,18,,,,,,,,,,,,,,,,,,,,,1335.9060376487905,,,,,,,,,,,,,,AMP_prac,left,1.01506453496404,3,,,left,0.5656776202376932,,,,,,,,,,,,,,,,,,,,,,,,,1026,2019_Jun_03_1651,mf_amp_cond1,3.0.7,59.972436556022,
harassment,&&&&&&&&&&,images/symbols/symbol_79.png,condition_files/AMP_rep2.csv,right,sanctity.vice,,,,,,,,,,,,,,0,3,3,1,0,19,19,19,,,,,,,,,,,,,,,,,,,,,1336.5395387115423,,,,,,,,,,,,,,AMP_prac,left,1.01506453496404,3,,,left,0.4157410761108622,,,,,,,,,,,,,,,,,,,,,,,,,1026,2019_Jun_03_1651,mf_amp_cond1,3.0.7,59.972436556022,
ability,&&&&&&&,images/symbols/symbol_41.png,condition_files/AMP_rep2.csv,left,authority.virtue,,,,,,,,,,,,,,0,3,3,1,0,20,20,20,,,,,,,,,,,,,,,,,,,,,1337.2730670680758,,,,,,,,,,,,,,AMP_prac,left,1.01506453496404,3,,,left,0.5163447158411145,,,,,,,,,,,,,,,,,,,,,,,,,1026,2019_Jun_03_1651,mf_amp_cond1,3.0.7,59.972436556022,
safe,&&&&,images/symbols/symbol_81.png,condition_files/AMP_rep2.csv,left,care.virtue,,,,,,,,,,,,,,0,3,3,1,0,21,21,21,,,,,,,,,,,,,,,,,,,,,1337.8398835890694,,,,,,,,,,,,,,AMP_prac,left,1.01506453496404,3,,,left,0.34916269476525486,,,,,,,,,,,,,,,,,,,,,,,,,1026,2019_Jun_03_1651,mf_amp_cond1,3.0.7,59.972436556022,
abuse,&&&&&,images/symbols/symbol_58.png,condition_files/AMP_rep2.csv,right,sanctity.vice,,,,,,,,,,,,,,0,3,3,1,0,22,22,22,,,,,,,,,,,,,,,,,,,,,1338.423381428467,,,,,,,,,,,,,,AMP_prac,left,1.01506453496404,3,,,left,0.35034361050929874,,,,,,,,,,,,,,,,,,,,,,,,,1026,2019_Jun_03_1651,mf_amp_cond1,3.0.7,59.972436556022,
interests,&&&&&&&&&,images/symbols/symbol_54.png,condition_files/AMP_rep2.csv,left,fairness.virtue,,,,,,,,,,,,,,0,3,3,1,0,23,23,23,,,,,,,,,,,,,,,,,,,,,1338.9735323464265,,,,,,,,,,,,,,AMP_prac,left,1.01506453496404,3,,,left,0.33176647627260536,,,,,,,,,,,,,,,,,,,,,,,,,1026,2019_Jun_03_1651,mf_amp_cond1,3.0.7,59.972436556022,
fourz,&&&&&,images/symbols/symbol_77.png,condition_files/AMP_rep2.csv,None,nonword,,,,,,,,,,,,,,0,3,3,1,0,24,24,24,,,,,,,,,,,,,,,,,,,,,1340.0238062631106,,,,,,,,,,,,,,AMP_prac,left,1.01506453496404,3,,,left,0.8325225895969197,,,,,,,,,,,,,,,,,,,,,,,,,1026,2019_Jun_03_1651,mf_amp_cond1,3.0.7,59.972436556022,
police,&&&&&&,images/symbols/symbol_45.png,condition_files/AMP_rep2.csv,right,authority.vice,,,,,,,,,,,,,,0,3,3,1,0,25,25,25,,,,,,,,,,,,,,,,,,,,,1340.64052241249,,,,,,,,,,,,,,AMP_prac,left,1.01506453496404,3,,,left,0.3987592365592718,,,,,,,,,,,,,,,,,,,,,,,,,1026,2019_Jun_03_1651,mf_amp_cond1,3.0.7,59.972436556022,
thinx,&&&&&,images/symbols/symbol_76.png,condition_files/AMP_rep2.csv,None,nonword,,,,,,,,,,,,,,0,3,3,1,0,26,26,26,,,,,,,,,,,,,,,,,,,,,1341.6909387318883,,,,,,,,,,,,,,AMP_prac,left,1.01506453496404,3,,,left,0.8328535796608776,,,,,,,,,,,,,,,,,,,,,,,,,1026,2019_Jun_03_1651,mf_amp_cond1,3.0.7,59.972436556022,
death,&&&&&,images/symbols/symbol_1.png,condition_files/AMP_rep2.csv,right,care.vice,,,,,,,,,,,,,,0,3,3,1,0,27,27,27,,,,,,,,,,,,,,,,,,,,,1342.3244263241068,,,,,,,,,,,,,,AMP_prac,left,1.01506453496404,3,,,left,0.41559514531400055,,,,,,,,,,,,,,,,,,,,,,,,,1026,2019_Jun_03_1651,mf_amp_cond1,3.0.7,59.972436556022,
commitment,&&&&&&&&&&,images/symbols/symbol_42.png,condition_files/AMP_rep2.csv,left,sanctity.virtue,,,,,,,,,,,,,,0,3,3,1,0,28,28,28,,,,,,,,,,,,,,,,,,,,,1342.8912710689474,,,,,,,,,,,,,,AMP_prac,left,1.01506453496404,3,,,left,0.34897250367794186,,,,,,,,,,,,,,,,,,,,,,,,,1026,2019_Jun_03_1651,mf_amp_cond1,3.0.7,59.972436556022,
good,&&&&,images/symbols/symbol_65.png,condition_files/AMP_rep2.csv,left,care.virtue,,,,,,,,,,,,,,0,3,3,1,0,29,29,29,,,,,,,,,,,,,,,,,,,,,1343.4414085163735,,,,,,,,,,,,,,AMP_prac,left,1.01506453496404,3,,,left,0.3323954213410616,,,,,,,,,,,,,,,,,,,,,,,,,1026,2019_Jun_03_1651,mf_amp_cond1,3.0.7,59.972436556022,
credit,&&&&&&,images/symbols/symbol_11.png,condition_files/AMP_rep2.csv,left,fairness.virtue,,,,,,,,,,,,,,0,3,3,1,0,30,30,30,,,,,,,,,,,,,,,,,,,,,1344.158287947881,,,,,,,,,,,,,,AMP_prac,left,1.01506453496404,3,,,left,0.4992766007781029,,,,,,,,,,,,,,,,,,,,,,,,,1026,2019_Jun_03_1651,mf_amp_cond1,3.0.7,59.972436556022,
values,&&&&&&,images/symbols/symbol_72.png,condition_files/AMP_rep2.csv,left,sanctity.virtue,,,,,,,,,,,,,,0,3,3,1,0,31,31,31,,,,,,,,,,,,,,,,,,,,,1344.741756921867,,,,,,,,,,,,,,AMP_prac,left,1.01506453496404,3,,,left,0.36573464539833367,,,,,,,,,,,,,,,,,,,,,,,,,1026,2019_Jun_03_1651,mf_amp_cond1,3.0.7,59.972436556022,
critics,&&&&&&&,images/symbols/symbol_60.png,condition_files/AMP_rep2.csv,right,loyalty.vice,,,,,,,,,,,,,,0,3,3,1,0,32,32,32,,,,,,,,,,,,,,,,,,,,,1345.7253369955579,,,,,,,,,,,,,,AMP_prac,left,1.01506453496404,3,,,left,0.7658406135160476,,,,,,,,,,,,,,,,,,,,,,,,,1026,2019_Jun_03_1651,mf_amp_cond1,3.0.7,59.972436556022,
violations,&&&&&&&&&&,images/symbols/symbol_75.png,condition_files/AMP_rep2.csv,right,sanctity.vice,,,,,,,,,,,,,,0,3,3,1,0,33,33,33,,,,,,,,,,,,,,,,,,,,,1346.7089375958312,,,,,,,,,,,,,,AMP_prac,left,1.01506453496404,3,,,left,0.7659467741614208,,,,,,,,,,,,,,,,,,,,,,,,,1026,2019_Jun_03_1651,mf_amp_cond1,3.0.7,59.972436556022,
wraughsed,&&&&&&&&&,images/symbols/symbol_9.png,condition_files/AMP_rep2.csv,None,nonword,,,,,,,,,,,,,,0,3,3,1,0,34,34,34,,,,,,,,,,,,,,,,,,,,,1347.3591193356551,,,,,,,,,,,,,,AMP_prac,left,1.01506453496404,3,,,left,0.4324660134734586,,,,,,,,,,,,,,,,,,,,,,,,,1026,2019_Jun_03_1651,mf_amp_cond1,3.0.7,59.972436556022,
scandal,&&&&&&&,images/symbols/symbol_63.png,condition_files/AMP_rep2.csv,right,sanctity.vice,,,,,,,,,,,,,,0,3,3,1,0,35,35,35,,,,,,,,,,,,,,,,,,,,,1348.1760392107535,,,,,,,,,,,,,,AMP_prac,left,1.01506453496404,3,,,left,0.5994267330970615,,,,,,,,,,,,,,,,,,,,,,,,,1026,2019_Jun_03_1651,mf_amp_cond1,3.0.7,59.972436556022,
peizz,&&&&&,images/symbols/symbol_8.png,condition_files/AMP_rep2.csv,None,nonword,,,,,,,,,,,,,,0,3,3,1,0,36,36,36,,,,,,,,,,,,,,,,,,,,,1348.9595457739197,,,,,,,,,,,,,,AMP_prac,left,1.01506453496404,3,,,left,0.5659342017024755,,,,,,,,,,,,,,,,,,,,,,,,,1026,2019_Jun_03_1651,mf_amp_cond1,3.0.7,59.972436556022,
terrorist,&&&&&&&&&,images/symbols/symbol_37.png,condition_files/AMP_rep2.csv,right,loyalty.vice,,,,,,,,,,,,,,0,3,3,1,0,37,37,37,,,,,,,,,,,,,,,,,,,,,1349.626395682455,,,,,,,,,,,,,,AMP_prac,left,1.01506453496404,3,,,left,0.43369407614227384,,,,,,,,,,,,,,,,,,,,,,,,,1026,2019_Jun_03_1651,mf_amp_cond1,3.0.7,59.972436556022,
pleasant,&&&&&&&,images/symbols/symbol_28.png,condition_files/AMP_rep2.csv,right,control,,,,,,,,,,,,,,0,3,3,1,0,38,38,38,,,,,,,,,,,,,,,,,,,,,1350.359927246347,,,,,,,,,,,,,,AMP_prac,left,1.01506453496404,3,,,left,0.5151650827610865,,,,,,,,,,,,,,,,,,,,,,,,,1026,2019_Jun_03_1651,mf_amp_cond1,3.0.7,59.972436556022,
forced,&&&&&&,images/symbols/symbol_26.png,condition_files/AMP_rep2.csv,right,fairness.vice,,,,,,,,,,,,,,0,3,3,1,0,39,39,39,,,,,,,,,,,,,,,,,,,,,1351.1267871294403,,,,,,,,,,,,,,AMP_prac,left,1.01506453496404,3,,,left,0.5491643624845892,,,,,,,,,,,,,,,,,,,,,,,,,1026,2019_Jun_03_1651,mf_amp_cond1,3.0.7,59.972436556022,
crime,&&&&&,images/symbols/symbol_68.png,condition_files/AMP_rep2.csv,right,fairness.vice,,,,,,,,,,,,,,0,3,3,1,0,40,40,40,,,,,,,,,,,,,,,,,,,,,1351.9103385944618,,,,,,,,,,,,,,AMP_prac,left,1.01506453496404,3,,,left,0.5503911422565579,,,,,,,,,,,,,,,,,,,,,,,,,1026,2019_Jun_03_1651,mf_amp_cond1,3.0.7,59.972436556022,
snoze,&&&&&,images/symbols/symbol_46.png,condition_files/AMP_rep2.csv,None,nonword,,,,,,,,,,,,,,0,3,3,1,0,41,41,41,,,,,,,,,,,,,,,,,,,,,1352.7605749219656,,,,,,,,,,,,,,AMP_prac,left,1.01506453496404,3,,,right,0.6318955046590418,,,,,,,,,,,,,,,,,,,,,,,,,1026,2019_Jun_03_1651,mf_amp_cond1,3.0.7,59.972436556022,
strength,&&&&&&&&,images/symbols/symbol_16.png,condition_files/AMP_rep2.csv,left,sanctity.virtue,,,,,,,,,,,,,,0,3,3,1,0,42,42,42,,,,,,,,,,,,,,,,,,,,,1353.4940975054633,,,,,,,,,,,,,,AMP_prac,left,1.01506453496404,3,,,right,0.5160753052914515,,,,,,,,,,,,,,,,,,,,,,,,,1026,2019_Jun_03_1651,mf_amp_cond1,3.0.7,59.972436556022,
fraud,&&&&&,images/symbols/symbol_56.png,condition_files/AMP_rep2.csv,right,fairness.vice,,,,,,,,,,,,,,0,3,3,1,0,43,43,43,,,,,,,,,,,,,,,,,,,,,1354.3778035927098,,,,,,,,,,,,,,AMP_prac,left,1.01506453496404,3,,,right,0.6659704758785665,,,,,,,,,,,,,,,,,,,,,,,,,1026,2019_Jun_03_1651,mf_amp_cond1,3.0.7,59.972436556022,
ban,&&&,images/symbols/symbol_78.png,condition_files/AMP_rep2.csv,right,loyalty.vice,,,,,,,,,,,,,,0,3,3,1,0,44,44,44,,,,,,,,,,,,,,,,,,,,,1356.461557853152,,,,,,,,,,,,,,AMP_prac,left,1.01506453496404,3,,,left,1.865929487044923,,,,,,,,,,,,,,,,,,,,,,,,,1026,2019_Jun_03_1651,mf_amp_cond1,3.0.7,59.972436556022,
energy,&&&&&&,images/symbols/symbol_23.png,condition_files/AMP_rep2.csv,left,sanctity.virtue,,,,,,,,,,,,,,0,3,3,1,0,45,45,45,,,,,,,,,,,,,,,,,,,,,1357.145081703551,,,,,,,,,,,,,,AMP_prac,left,1.01506453496404,3,,,left,0.4658132555196062,,,,,,,,,,,,,,,,,,,,,,,,,1026,2019_Jun_03_1651,mf_amp_cond1,3.0.7,59.972436556022,
promote,&&&&&&&,images/symbols/symbol_40.png,condition_files/AMP_rep2.csv,left,sanctity.virtue,,,,,,,,,,,,,,0,3,3,1,0,46,46,46,,,,,,,,,,,,,,,,,,,,,1357.8786244927905,,,,,,,,,,,,,,AMP_prac,left,1.01506453496404,3,,,left,0.5158155167009681,,,,,,,,,,,,,,,,,,,,,,,,,1026,2019_Jun_03_1651,mf_amp_cond1,3.0.7,59.972436556022,
charges,&&&&&&&,images/symbols/symbol_32.png,condition_files/AMP_rep2.csv,right,fairness.vice,,,,,,,,,,,,,,0,3,3,1,0,47,47,47,,,,,,,,,,,,,,,,,,,,,1358.7788486487698,,,,,,,,,,,,,,AMP_prac,left,1.01506453496404,3,,,left,0.6824705837061629,,,,,,,,,,,,,,,,,,,,,,,,,1026,2019_Jun_03_1651,mf_amp_cond1,3.0.7,59.972436556022,
promises,&&&&&&&&,images/symbols/symbol_67.png,condition_files/AMP_rep2.csv,left,fairness.virtue,,,,,,,,,,,,,,0,3,3,1,0,48,48,48,,,,,,,,,,,,,,,,,,,,,1361.1128130654106,,,,,,,,,,,,,,AMP_prac,left,1.01506453496404,3,,,left,2.100792868528515,,,,,,,,,,,,,,,,,,,,,,,,,1026,2019_Jun_03_1651,mf_amp_cond1,3.0.7,59.972436556022,
victim,&&&&&&,images/symbols/symbol_33.png,condition_files/AMP_rep2.csv,right,care.vice,,,,,,,,,,,,,,0,3,3,1,0,49,49,49,,,,,,,,,,,,,,,,,,,,,1363.2634266637033,,,,,,,,,,,,,,AMP_prac,left,1.01506453496404,3,,,left,1.9324841344496235,,,,,,,,,,,,,,,,,,,,,,,,,1026,2019_Jun_03_1651,mf_amp_cond1,3.0.7,59.972436556022,
voter,&&&&&,images/symbols/symbol_27.png,condition_files/AMP_rep2.csv,right,fairness.vice,,,,,,,,,,,,,,0,3,3,1,0,50,50,50,,,,,,,,,,,,,,,,,,,,,1364.0636257708538,,,,,,,,,,,,,,AMP_prac,left,1.01506453496404,3,,,left,0.5823675984283909,,,,,,,,,,,,,,,,,,,,,,,,,1026,2019_Jun_03_1651,mf_amp_cond1,3.0.7,59.972436556022,
great,&&&&&,images/symbols/symbol_17.png,condition_files/AMP_rep2.csv,left,loyalty.virtue,,,,,,,,,,,,,,0,3,3,1,0,51,51,51,,,,,,,,,,,,,,,,,,,,,1365.1972466250882,,,,,,,,,,,,,,AMP_prac,left,1.01506453496404,3,,,left,0.9159689523512498,,,,,,,,,,,,,,,,,,,,,,,,,1026,2019_Jun_03_1651,mf_amp_cond1,3.0.7,59.972436556022,
serial,&&&&&&,images/symbols/symbol_5.png,condition_files/AMP_rep2.csv,right,sanctity.vice,,,,,,,,,,,,,,0,3,3,1,0,52,52,52,,,,,,,,,,,,,,,,,,,,,1365.9641488441266,,,,,,,,,,,,,,AMP_prac,left,1.01506453496404,3,,,left,0.548890782520175,,,,,,,,,,,,,,,,,,,,,,,,,1026,2019_Jun_03_1651,mf_amp_cond1,3.0.7,59.972436556022,
care,&&&&,images/symbols/symbol_30.png,condition_files/AMP_rep2.csv,left,care.virtue,,,,,,,,,,,,,,0,3,3,1,0,53,53,53,,,,,,,,,,,,,,,,,,,,,1366.7643232553964,,,,,,,,,,,,,,AMP_prac,left,1.01506453496404,3,,,right,0.5809903977205977,,,,,,,,,,,,,,,,,,,,,,,,,1026,2019_Jun_03_1651,mf_amp_cond1,3.0.7,59.972436556022,
promised,&&&&&&&&,images/symbols/symbol_61.png,condition_files/AMP_rep2.csv,left,loyalty.virtue,,,,,,,,,,,,,,0,3,3,1,0,54,54,54,,,,,,,,,,,,,,,,,,,,,1367.5478699094383,,,,,,,,,,,,,,AMP_prac,left,1.01506453496404,3,,,left,0.550384086323902,,,,,,,,,,,,,,,,,,,,,,,,,1026,2019_Jun_03_1651,mf_amp_cond1,3.0.7,59.972436556022,
