words,mask,masks,symbols,conditionfile,corr_ans,category,LDT_trials_cond2.thisRepN,LDT_trials_cond2.thisTrialN,LDT_trials_cond2.thisN,LDT_trials_cond2.thisIndex,LDT_pracs_1.thisRepN,LDT_pracs_1.thisTrialN,LDT_pracs_1.thisN,LDT_pracs_1.thisIndex,LDT_trials_1.thisRepN,LDT_trials_1.thisTrialN,LDT_trials_1.thisN,LDT_trials_1.thisIndex,logo_trials.thisRepN,logo_trials.thisTrialN,logo_trials.thisN,logo_trials.thisIndex,AMP_pracs.thisRepN,AMP_pracs.thisTrialN,AMP_pracs.thisN,AMP_pracs.thisIndex,trials_loop.thisRepN,trials_loop.thisTrialN,trials_loop.thisN,trials_loop.thisIndex,AMP_trials.thisRepN,AMP_trials.thisTrialN,AMP_trials.thisN,AMP_trials.thisIndex,memtask_trials.thisRepN,memtask_trials.thisTrialN,memtask_trials.thisN,memtask_trials.thisIndex,LDT_cond1.thisRepN,LDT_cond1.thisTrialN,LDT_cond1.thisN,LDT_cond1.thisIndex,begin_key.keys,begin_key.rt,key_resp_instr.keys,key_resp_instr.rt,exp_time,key_resp_LDT_instr.keys,key_resp_LDT_instr.rt,resp_LDT_prac.keys,resp_LDT_prac.rt,task,keypress,RT,corr,resp_LDT_ready.keys,resp_LDT_ready.rt,resp_LDT_trial.keys,resp_LDT_trial.rt,LDT_rating.response,LDT_rating.rt,resp_sym_rate.keys,resp_sym_rate.rt,sym_resp_1.keys,sym_resp_1.rt,sym_resp_2.keys,sym_resp_2.rt,sym_resp_trial.keys,sym_resp_trial.rt,symbol_index,resp_AMP_ready1.keys,resp_AMP_ready1.rt,resp_AMP.keys,resp_AMP.rt,prime_dur,resp_AMP_ready.keys,resp_AMP_ready.rt,resp_AMP_trials.keys,resp_AMP_trials.rt,rest_key_resp.keys,rest_key_resp.rt,AMP_nonword_rating.response,AMP_nonword_rating.rt,AMP_word_rating.response,AMP_word_rating.rt,AMP_random_rating.response,AMP_random_rating.rt,key_resp_instr_memtask.keys,key_resp_instr_memtask.rt,resp_memtask.keys,resp_memtask.corr,resp_memtask.rt,participant ID,date,expName,psychopyVersion,frameRate,
,,,,,,,,,,,,,,,,,,,,,,,,,,,,,,,,,,,,,,,,,,,right,547.7641195938922,,,,,,,,,,,,,,,,,,,,,,,,,,,,,,,,,,,,,,,,,,,,,,,,,1027,2019_Jun_05_1249,mf_amp_cond1,3.0.7,59.98189725573845,
,,,,,,,,,,,,,,,,,,,,,,,,,,,,,,,,,,,,,,,,,,,,,right,7.302184565924108,,,,,,,,,,,,,,,,,,,,,,,,,,,,,,,,,,,,,,,,,,,,,,,1027,2019_Jun_05_1249,mf_amp_cond1,3.0.7,59.98189725573845,
keyboard,&&&&&&&,,,,,,0,0,0,0,0,0,0,0,,,,,,,,,,,,,,,,,,,,,,,,,,,,,,,,,653.1740173494909,right,1.1338841710239649,right,1.6840280327014625,LDT_prac,right,1.6840280327014625,0,,,,,,,,,,,,,,,,,,,,,,,,,,,,,,,,,,,,,,1027,2019_Jun_05_1249,mf_amp_cond1,3.0.7,59.98189725573845,
bisebell,&&&&&&&,,,,,,0,0,0,0,0,1,1,1,,,,,,,,,,,,,,,,,,,,,,,,,,,,,,,,,656.2747512042988,,,right,1.2504914335440844,LDT_prac,right,1.2504914335440844,0,,,,,,,,,,,,,,,,,,,,,,,,,,,,,,,,,,,,,,1027,2019_Jun_05_1249,mf_amp_cond1,3.0.7,59.98189725573845,
,,,,,,,0,0,0,0,,,,,0,0,0,0,,,,,,,,,,,,,,,,,,,,,,,,,,,,,676.1301900402177,,,,,LDT_prac,right,1.2504914335440844,0,right,1.567318458110094,right,1.1172208129428327,,,,,,,,,,,,,,,,,,,,,,,,,,,,,,,,,,1027,2019_Jun_05_1249,mf_amp_cond1,3.0.7,59.98189725573845,
,,,,,,,0,0,0,0,,,,,,,,,,,,,,,,,,,,,,,,,,,,,,,,,,,,,,,,,,,,,,,,,,7,10.438,,,,,,,,,,,,,,,,,,,,,,,,,,,,,,,,1027,2019_Jun_05_1249,mf_amp_cond1,3.0.7,59.98189725573845,
,,,,,,,,,,,,,,,,,,,,,,,,,,,,,,,,,,,,,,,,,,,,,,,,,,,,,,,,,,,,,,right,2.100750853540376,,,,,,,,,,,,,,,,,,,,,,,,,,,,,,1027,2019_Jun_05_1249,mf_amp_cond1,3.0.7,59.98189725573845,
,,,,,,,,,,,,,,,,,,,,,,,,,,,,,,,,,,,,,,,,,,,,,,,760.7192589030601,,,,,,,,,,,,,,,,,right,1.9174526343122125,,,,,,,,,,,,,,,,,,,,,,,,,,,,1027,2019_Jun_05_1249,mf_amp_cond1,3.0.7,59.98189725573845,
,,,,,,,,,,,,,,,,,,,,,,,,,,,,,,,,,,,,,,,,,,,,,,,,,,,,,,,,,,,,,,,,,,right,2.434236104367301,,,,,,,,,,,,,,,,,,,,,,,,,,1027,2019_Jun_05_1249,mf_amp_cond1,3.0.7,59.98189725573845,
,,,,,,,,,,,,,,,,,,,,,,,,,,,,,,,,,,,,,,,,,,,,,,,781.1080611778889,,,,,,,,,,,,,,,,,,,,,left,0.44823101558722556,12,right,0.9672554032877088,,,,,,,,,,,,,,,,,,,,,1027,2019_Jun_05_1249,mf_amp_cond1,3.0.7,59.98189725573845,
car,,&&&,images/symbols/symbol_9.png,,,,,,,,,,,,,,,,,,,,0,0,0,0,,,,,,,,,,,,,,,,,,,,,905.058403698029,,,,,AMP_prac,right,0.8004457461647689,,,,,,,,,,,,,,,,,,,right,0.8004457461647689,1,,,,,,,,,,,,,,,,,,1027,2019_Jun_05_1249,mf_amp_cond1,3.0.7,59.98189725573845,
banana,,&&&&&&,images/symbols/symbol_68.png,,,,,,,,,,,,,,,,,,,,0,1,1,1,,,,,,,,,,,,,,,,,,,,,905.8751532672904,,,,,AMP_prac,right,0.5837348564527929,,,,,,,,,,,,,,,,,,,right,0.5837348564527929,1,,,,,,,,,,,,,,,,,,1027,2019_Jun_05_1249,mf_amp_cond1,3.0.7,59.98189725573845,
scarf,,&&&&&,images/symbols/symbol_54.png,,,,,,,,,,,,,,,,,,,,0,2,2,3,,,,,,,,,,,,,,,,,,,,,906.8754265264142,,,,,AMP_prac,right,0.7671036354731768,,,,,,,,,,,,,,,,,,,right,0.7671036354731768,1,,,,,,,,,,,,,,,,,,1027,2019_Jun_05_1249,mf_amp_cond1,3.0.7,59.98189725573845,
keyboard,,&&&&&&&&,images/symbols/symbol_40.png,,,,,,,,,,,,,,,,,,,,0,3,3,2,,,,,,,,,,,,,,,,,,,,,907.6923082349822,,,,,AMP_prac,right,0.5979748030658811,,,,,,,,,,,,,,,,,,,right,0.5979748030658811,1,,,,,,,,,,,,,,,,,,1027,2019_Jun_05_1249,mf_amp_cond1,3.0.7,59.98189725573845,
,,,,,,,,,,,,,,,,,,,,,,,,,,,,,,,,,,,,,,,,,,,,,,,,,,,,,,,,,,,,,,,,,,,,,,,,,,,,right,1.2172163547948003,,,,,,,,,,,,,,,,1027,2019_Jun_05_1249,mf_amp_cond1,3.0.7,59.98189725573845,
police,,&&&&&&,images/symbols/symbol_29.png,condition_files/AMP_rep3.csv,right,authority.vice,,,,,,,,,,,,,,,,,,,,,0,0,0,2,0,0,0,0,,,,,,,,,,,,,929.5149986257311,,,,,AMP_prac,right,0.5979748030658811,,,,,,,,,,,,,,,,,,,,,1,,,right,0.33366100932471454,,,,,,,,,,,,,,1027,2019_Jun_05_1249,mf_amp_cond1,3.0.7,59.98189725573845,
values,,&&&&&&,images/symbols/symbol_40.png,condition_files/AMP_rep3.csv,left,sanctity.virtue,,,,,,,,,,,,,,,,,,,,,0,0,0,2,0,1,1,1,,,,,,,,,,,,,930.398285523057,,,,,AMP_prac,right,0.5979748030658811,,,,,,,,,,,,,,,,,,,,,1,,,right,0.6644579283893108,,,,,,,,,,,,,,1027,2019_Jun_05_1249,mf_amp_cond1,3.0.7,59.98189725573845,
progress,,&&&&&&&&,images/symbols/symbol_44.png,condition_files/AMP_rep3.csv,left,authority.virtue,,,,,,,,,,,,,,,,,,,,,0,0,0,2,0,2,2,2,,,,,,,,,,,,,931.2820711506065,,,,,AMP_prac,right,0.5979748030658811,,,,,,,,,,,,,,,,,,,,,1,,,right,0.6657180637121201,,,,,,,,,,,,,,1027,2019_Jun_05_1249,mf_amp_cond1,3.0.7,59.98189725573845,
good,,&&&&,images/symbols/symbol_38.png,condition_files/AMP_rep3.csv,left,care.virtue,,,,,,,,,,,,,,,,,,,,,0,0,0,2,0,3,3,3,,,,,,,,,,,,,932.2322577976156,,,,,AMP_prac,right,0.5979748030658811,,,,,,,,,,,,,,,,,,,,,1,,,left,0.7326255107764155,,,,,,,,,,,,,,1027,2019_Jun_05_1249,mf_amp_cond1,3.0.7,59.98189725573845,
feuld,,&&&&&,images/symbols/symbol_31.png,condition_files/AMP_rep3.csv,None,nonword,,,,,,,,,,,,,,,,,,,,,0,0,0,2,0,4,4,4,,,,,,,,,,,,,933.1157971068751,,,,,AMP_prac,right,0.5979748030658811,,,,,,,,,,,,,,,,,,,,,1,,,right,0.6645086032804102,,,,,,,,,,,,,,1027,2019_Jun_05_1249,mf_amp_cond1,3.0.7,59.98189725573845,
freedom,,&&&&&&&,images/symbols/symbol_15.png,condition_files/AMP_rep3.csv,left,sanctity.virtue,,,,,,,,,,,,,,,,,,,,,0,0,0,2,0,5,5,5,,,,,,,,,,,,,933.8660202526953,,,,,AMP_prac,right,0.5979748030658811,,,,,,,,,,,,,,,,,,,,,1,,,left,0.5313467090018094,,,,,,,,,,,,,,1027,2019_Jun_05_1249,mf_amp_cond1,3.0.7,59.98189725573845,
protect,,&&&&&&&,images/symbols/symbol_81.png,condition_files/AMP_rep3.csv,left,fairness.virtue,,,,,,,,,,,,,,,,,,,,,0,0,0,2,0,6,6,6,,,,,,,,,,,,,934.58293656772,,,,,AMP_prac,right,0.5979748030658811,,,,,,,,,,,,,,,,,,,,,1,,,left,0.4991694779600948,,,,,,,,,,,,,,1027,2019_Jun_05_1249,mf_amp_cond1,3.0.7,59.98189725573845,
rebels,,&&&&&&,images/symbols/symbol_26.png,condition_files/AMP_rep3.csv,right,authority.vice,,,,,,,,,,,,,,,,,,,,,0,0,0,2,0,7,7,7,,,,,,,,,,,,,935.3664254909381,,,,,AMP_prac,right,0.5979748030658811,,,,,,,,,,,,,,,,,,,,,1,,,left,0.5656705643050373,,,,,,,,,,,,,,1027,2019_Jun_05_1249,mf_amp_cond1,3.0.7,59.98189725573845,
men,,&&&,images/symbols/symbol_6.png,condition_files/AMP_rep3.csv,right,loyalty.vice,,,,,,,,,,,,,,,,,,,,,0,0,0,2,0,8,8,8,,,,,,,,,,,,,936.4500533849932,,,,,AMP_prac,right,0.5979748030658811,,,,,,,,,,,,,,,,,,,,,1,,,left,0.8659051118884236,,,,,,,,,,,,,,1027,2019_Jun_05_1249,mf_amp_cond1,3.0.7,59.98189725573845,
peaceful,,&&&&&&&&,images/symbols/symbol_54.png,condition_files/AMP_rep3.csv,left,authority.virtue,,,,,,,,,,,,,,,,,,,,,0,0,0,2,0,9,9,9,,,,,,,,,,,,,937.3336087306961,,,,,AMP_prac,right,0.5979748030658811,,,,,,,,,,,,,,,,,,,,,1,,,right,0.6504168324172497,,,,,,,,,,,,,,1027,2019_Jun_05_1249,mf_amp_cond1,3.0.7,59.98189725573845,
gun,,&&&,images/symbols/symbol_12.png,condition_files/AMP_rep3.csv,right,authority.vice,,,,,,,,,,,,,,,,,,,,,0,0,0,2,0,10,10,10,,,,,,,,,,,,,938.0171495794784,,,,,AMP_prac,right,0.5979748030658811,,,,,,,,,,,,,,,,,,,,,1,,,right,0.46466665738262236,,,,,,,,,,,,,,1027,2019_Jun_05_1249,mf_amp_cond1,3.0.7,59.98189725573845,
growth,,&&&&&&,images/symbols/symbol_74.png,condition_files/AMP_rep3.csv,left,care.virtue,,,,,,,,,,,,,,,,,,,,,0,0,0,2,0,11,11,11,,,,,,,,,,,,,938.8006696132943,,,,,AMP_prac,right,0.5979748030658811,,,,,,,,,,,,,,,,,,,,,1,,,right,0.5503760681021959,,,,,,,,,,,,,,1027,2019_Jun_05_1249,mf_amp_cond1,3.0.7,59.98189725573845,
corruption,,&&&&&&&&&&,images/symbols/symbol_37.png,condition_files/AMP_rep3.csv,right,sanctity.vice,,,,,,,,,,,,,,,,,,,,,0,0,0,2,0,12,12,12,,,,,,,,,,,,,939.4175121290609,,,,,AMP_prac,right,0.5979748030658811,,,,,,,,,,,,,,,,,,,,,1,,,left,0.39797987043857574,,,,,,,,,,,,,,1027,2019_Jun_05_1249,mf_amp_cond1,3.0.7,59.98189725573845,
help,,&&&&,images/symbols/symbol_53.png,condition_files/AMP_rep3.csv,left,care.virtue,,,,,,,,,,,,,,,,,,,,,0,0,0,2,0,13,13,13,,,,,,,,,,,,,939.9676707445178,,,,,AMP_prac,right,0.5979748030658811,,,,,,,,,,,,,,,,,,,,,1,,,right,0.33216096996329725,,,,,,,,,,,,,,1027,2019_Jun_05_1249,mf_amp_cond1,3.0.7,59.98189725573845,
charges,,&&&&&&&,images/symbols/symbol_1.png,condition_files/AMP_rep3.csv,right,fairness.vice,,,,,,,,,,,,,,,,,,,,,0,0,0,2,0,14,14,14,,,,,,,,,,,,,940.5844981861301,,,,,AMP_prac,right,0.5979748030658811,,,,,,,,,,,,,,,,,,,,,1,,,right,0.383687324821949,,,,,,,,,,,,,,1027,2019_Jun_05_1249,mf_amp_cond1,3.0.7,59.98189725573845,
faith,,&&&&&,images/symbols/symbol_42.png,condition_files/AMP_rep3.csv,left,sanctity.virtue,,,,,,,,,,,,,,,,,,,,,0,0,0,2,0,15,15,15,,,,,,,,,,,,,941.1846433470491,,,,,AMP_prac,right,0.5979748030658811,,,,,,,,,,,,,,,,,,,,,1,,,left,0.381663859821856,,,,,,,,,,,,,,1027,2019_Jun_05_1249,mf_amp_cond1,3.0.7,59.98189725573845,
promote,,&&&&&&&,images/symbols/symbol_79.png,condition_files/AMP_rep3.csv,left,sanctity.virtue,,,,,,,,,,,,,,,,,,,,,0,0,0,2,0,16,16,16,,,,,,,,,,,,,941.8681915726047,,,,,AMP_prac,right,0.5979748030658811,,,,,,,,,,,,,,,,,,,,,1,,,left,0.4657375640235841,,,,,,,,,,,,,,1027,2019_Jun_05_1249,mf_amp_cond1,3.0.7,59.98189725573845,
officers,,&&&&&&&&,images/symbols/symbol_63.png,condition_files/AMP_rep3.csv,right,authority.vice,,,,,,,,,,,,,,,,,,,,,0,0,0,2,0,17,17,17,,,,,,,,,,,,,942.4850036194548,,,,,AMP_prac,right,0.5979748030658811,,,,,,,,,,,,,,,,,,,,,1,,,left,0.3991242235060781,,,,,,,,,,,,,,1027,2019_Jun_05_1249,mf_amp_cond1,3.0.7,59.98189725573845,
love,,&&&&,images/symbols/symbol_8.png,condition_files/AMP_rep3.csv,left,loyalty.virtue,,,,,,,,,,,,,,,,,,,,,0,0,0,2,0,18,18,18,,,,,,,,,,,,,943.0354085529689,,,,,AMP_prac,right,0.5979748030658811,,,,,,,,,,,,,,,,,,,,,1,,,left,0.3325285231694579,,,,,,,,,,,,,,1027,2019_Jun_05_1249,mf_amp_cond1,3.0.7,59.98189725573845,
civilians,,&&&&&&&&&,images/symbols/symbol_66.png,condition_files/AMP_rep3.csv,right,care.vice,,,,,,,,,,,,,,,,,,,,,0,0,0,2,0,19,19,19,,,,,,,,,,,,,943.5519617411774,,,,,AMP_prac,right,0.5979748030658811,,,,,,,,,,,,,,,,,,,,,1,,,right,0.2989211715757847,,,,,,,,,,,,,,1027,2019_Jun_05_1249,mf_amp_cond1,3.0.7,59.98189725573845,
gnoozz,,&&&&&&,images/symbols/symbol_20.png,condition_files/AMP_rep3.csv,None,nonword,,,,,,,,,,,,,,,,,,,,,0,0,0,2,0,20,20,20,,,,,,,,,,,,,944.3188411886804,,,,,AMP_prac,right,0.5979748030658811,,,,,,,,,,,,,,,,,,,,,1,,,right,0.5495145961176604,,,,,,,,,,,,,,1027,2019_Jun_05_1249,mf_amp_cond1,3.0.7,59.98189725573845,
racist,,&&&&&&,images/symbols/symbol_75.png,condition_files/AMP_rep3.csv,right,sanctity.vice,,,,,,,,,,,,,,,,,,,,,0,0,0,2,0,21,21,21,,,,,,,,,,,,,945.2857559802942,,,,,AMP_prac,right,0.5979748030658811,,,,,,,,,,,,,,,,,,,,,1,,,left,0.7492526264395565,,,,,,,,,,,,,,1027,2019_Jun_05_1249,mf_amp_cond1,3.0.7,59.98189725573845,
commitment,,&&&&&&&&&&,images/symbols/symbol_65.png,condition_files/AMP_rep3.csv,left,sanctity.virtue,,,,,,,,,,,,,,,,,,,,,0,0,0,2,0,22,22,22,,,,,,,,,,,,,945.9859374153893,,,,,AMP_prac,right,0.5979748030658811,,,,,,,,,,,,,,,,,,,,,1,,,right,0.48243876779451966,,,,,,,,,,,,,,1027,2019_Jun_05_1249,mf_amp_cond1,3.0.7,59.98189725573845,
failure,,&&&&&&&,images/symbols/symbol_3.png,condition_files/AMP_rep3.csv,right,loyalty.vice,,,,,,,,,,,,,,,,,,,,,0,0,0,2,0,23,23,23,,,,,,,,,,,,,946.702848277986,,,,,AMP_prac,right,0.5979748030658811,,,,,,,,,,,,,,,,,,,,,1,,,right,0.4992098896764219,,,,,,,,,,,,,,1027,2019_Jun_05_1249,mf_amp_cond1,3.0.7,59.98189725573845,
crime,,&&&&&,images/symbols/symbol_14.png,condition_files/AMP_rep3.csv,right,fairness.vice,,,,,,,,,,,,,,,,,,,,,0,0,0,2,0,24,24,24,,,,,,,,,,,,,947.4530130513012,,,,,AMP_prac,right,0.5979748030658811,,,,,,,,,,,,,,,,,,,,,1,,,right,0.5324689319822937,,,,,,,,,,,,,,1027,2019_Jun_05_1249,mf_amp_cond1,3.0.7,59.98189725573845,
cande,,&&&&&,images/symbols/symbol_10.png,condition_files/AMP_rep3.csv,None,nonword,,,,,,,,,,,,,,,,,,,,,0,0,0,2,0,25,25,25,,,,,,,,,,,,,947.9864746325184,,,,,AMP_prac,right,0.5979748030658811,,,,,,,,,,,,,,,,,,,,,1,,,left,0.31582058407366276,,,,,,,,,,,,,,1027,2019_Jun_05_1249,mf_amp_cond1,3.0.7,59.98189725573845,
abuse,,&&&&&,images/symbols/symbol_48.png,condition_files/AMP_rep3.csv,right,sanctity.vice,,,,,,,,,,,,,,,,,,,,,0,0,0,2,0,26,26,26,,,,,,,,,,,,,948.4699823823757,,,,,AMP_prac,right,0.5979748030658811,,,,,,,,,,,,,,,,,,,,,1,,,left,0.26572916097939014,,,,,,,,,,,,,,1027,2019_Jun_05_1249,mf_amp_cond1,3.0.7,59.98189725573845,
victims,,&&&&&&&,images/symbols/symbol_27.png,condition_files/AMP_rep3.csv,right,care.vice,,,,,,,,,,,,,,,,,,,,,0,0,0,2,0,27,27,27,,,,,,,,,,,,,948.7866836823523,,,,,AMP_prac,right,0.5979748030658811,,,,,,,,,,,,,,,,,,,,,1,,,left,0.09895863221026957,,,,,,,,,,,,,,1027,2019_Jun_05_1249,mf_amp_cond1,3.0.7,59.98189725573845,
plonx,,&&&&&,images/symbols/symbol_55.png,condition_files/AMP_rep3.csv,None,nonword,,,,,,,,,,,,,,,,,,,,,0,0,0,2,0,28,28,28,,,,,,,,,,,,,949.1867861223873,,,,,AMP_prac,right,0.5979748030658811,,,,,,,,,,,,,,,,,,,,,1,,,left,0.18218978750519454,,,,,,,,,,,,,,1027,2019_Jun_05_1249,mf_amp_cond1,3.0.7,59.98189725573845,
ban,,&&&,images/symbols/symbol_57.png,condition_files/AMP_rep3.csv,right,loyalty.vice,,,,,,,,,,,,,,,,,,,,,0,0,0,2,0,29,29,29,,,,,,,,,,,,,949.620241577737,,,,,AMP_prac,right,0.5979748030658811,,,,,,,,,,,,,,,,,,,,,1,,,right,0.2157137501053512,,,,,,,,,,,,,,1027,2019_Jun_05_1249,mf_amp_cond1,3.0.7,59.98189725573845,
celebrated,,&&&&&&&&&&,images/symbols/symbol_78.png,condition_files/AMP_rep3.csv,left,authority.virtue,,,,,,,,,,,,,,,,,,,,,0,0,0,2,0,30,30,30,,,,,,,,,,,,,950.2370914702769,,,,,AMP_prac,right,0.5979748030658811,,,,,,,,,,,,,,,,,,,,,1,,,right,0.39900812041014433,,,,,,,,,,,,,,1027,2019_Jun_05_1249,mf_amp_cond1,3.0.7,59.98189725573845,
interests,,&&&&&&&&&,images/symbols/symbol_33.png,condition_files/AMP_rep3.csv,left,fairness.virtue,,,,,,,,,,,,,,,,,,,,,0,0,0,2,0,31,31,31,,,,,,,,,,,,,950.4704907343257,,,,,AMP_prac,right,0.5979748030658811,,,,,,,,,,,,,,,,,,,,,1,,,left,0.015657879412174225,,,,,,,,,,,,,,1027,2019_Jun_05_1249,mf_amp_cond1,3.0.7,59.98189725573845,
rhoalled,,&&&&&&&&,images/symbols/symbol_4.png,condition_files/AMP_rep3.csv,None,nonword,,,,,,,,,,,,,,,,,,,,,0,0,0,2,0,32,32,32,,,,,,,,,,,,,950.753879430471,,,,,AMP_prac,right,0.5979748030658811,,,,,,,,,,,,,,,,,,,,,1,,,left,0.06537244864739478,,,,,,,,,,,,,,1027,2019_Jun_05_1249,mf_amp_cond1,3.0.7,59.98189725573845,
pleasant,,&&&&&&&,images/symbols/symbol_67.png,condition_files/AMP_rep3.csv,right,control,,,,,,,,,,,,,,,,,,,,,0,0,0,2,0,33,33,33,,,,,,,,,,,,,951.4540663179941,,,,,AMP_prac,right,0.5979748030658811,,,,,,,,,,,,,,,,,,,,,1,,,left,0.482051971135661,,,,,,,,,,,,,,1027,2019_Jun_05_1249,mf_amp_cond1,3.0.7,59.98189725573845,
credit,,&&&&&&,images/symbols/symbol_58.png,condition_files/AMP_rep3.csv,left,fairness.virtue,,,,,,,,,,,,,,,,,,,,,0,0,0,2,0,34,34,34,,,,,,,,,,,,,951.8374011639971,,,,,AMP_prac,right,0.5979748030658811,,,,,,,,,,,,,,,,,,,,,1,,,right,0.16530448687262833,,,,,,,,,,,,,,1027,2019_Jun_05_1249,mf_amp_cond1,3.0.7,59.98189725573845,
fourz,,&&&&&,images/symbols/symbol_7.png,condition_files/AMP_rep3.csv,None,nonword,,,,,,,,,,,,,,,,,,,,,0,0,0,2,0,35,35,35,,,,,,,,,,,,,952.1375853572972,,,,,AMP_prac,right,0.5979748030658811,,,,,,,,,,,,,,,,,,,,,1,,,left,0.08229527436196804,,,,,,,,,,,,,,1027,2019_Jun_05_1249,mf_amp_cond1,3.0.7,59.98189725573845,
promised,,&&&&&&&&,images/symbols/symbol_16.png,condition_files/AMP_rep3.csv,left,loyalty.virtue,,,,,,,,,,,,,,,,,,,,,0,0,0,2,0,36,36,36,,,,,,,,,,,,,952.5043524221983,,,,,AMP_prac,right,0.5979748030658811,,,,,,,,,,,,,,,,,,,,,1,,,left,0.14927616785280406,,,,,,,,,,,,,,1027,2019_Jun_05_1249,mf_amp_cond1,3.0.7,59.98189725573845,
sharing,,&&&&&&&,images/symbols/symbol_45.png,condition_files/AMP_rep3.csv,left,loyalty.virtue,,,,,,,,,,,,,,,,,,,,,0,0,0,2,0,37,37,37,,,,,,,,,,,,,952.8878264636733,,,,,AMP_prac,right,0.5979748030658811,,,,,,,,,,,,,,,,,,,,,1,,,right,0.1656479851808399,,,,,,,,,,,,,,1027,2019_Jun_05_1249,mf_amp_cond1,3.0.7,59.98189725573845,
blamed,,&&&&&&,images/symbols/symbol_51.png,condition_files/AMP_rep3.csv,right,loyalty.vice,,,,,,,,,,,,,,,,,,,,,0,0,0,2,0,38,38,38,,,,,,,,,,,,,953.1878663301468,,,,,AMP_prac,right,0.5979748030658811,,,,,,,,,,,,,,,,,,,,,1,,,left,0.08253132947720587,,,,,,,,,,,,,,1027,2019_Jun_05_1249,mf_amp_cond1,3.0.7,59.98189725573845,
fair,,&&&&,images/symbols/symbol_17.png,condition_files/AMP_rep3.csv,left,fairness.virtue,,,,,,,,,,,,,,,,,,,,,0,0,0,2,0,39,39,39,,,,,,,,,,,,,953.4213092129212,,,,,AMP_prac,right,0.5979748030658811,,,,,,,,,,,,,,,,,,,,,1,,,right,0.01562869339250028,,,,,,,,,,,,,,1027,2019_Jun_05_1249,mf_amp_cond1,3.0.7,59.98189725573845,
increase,,&&&&&&&&,images/symbols/symbol_28.png,condition_files/AMP_rep3.csv,left,care.virtue,,,,,,,,,,,,,,,,,,,,,0,0,0,2,0,40,40,40,,,,,,,,,,,,,953.8380589745939,,,,,AMP_prac,right,0.5979748030658811,,,,,,,,,,,,,,,,,,,,,1,,,left,0.1991219143383205,,,,,,,,,,,,,,1027,2019_Jun_05_1249,mf_amp_cond1,3.0.7,59.98189725573845,
refused,,&&&&&&&,images/symbols/symbol_61.png,condition_files/AMP_rep3.csv,right,authority.vice,,,,,,,,,,,,,,,,,,,,,0,0,0,2,0,41,41,41,,,,,,,,,,,,,954.2714932619128,,,,,AMP_prac,right,0.5979748030658811,,,,,,,,,,,,,,,,,,,,,1,,,left,0.21562779531814158,,,,,,,,,,,,,,1027,2019_Jun_05_1249,mf_amp_cond1,3.0.7,59.98189725573845,
rejected,,&&&&&&&&,images/symbols/symbol_76.png,condition_files/AMP_rep3.csv,right,authority.vice,,,,,,,,,,,,,,,,,,,,,0,0,0,2,0,42,42,42,,,,,,,,,,,,,954.5382381645031,,,,,AMP_prac,right,0.5979748030658811,,,,,,,,,,,,,,,,,,,,,1,,,left,0.049368184292688966,,,,,,,,,,,,,,1027,2019_Jun_05_1249,mf_amp_cond1,3.0.7,59.98189725573845,
intelligence,,&&&&&&&&&&&&,images/symbols/symbol_35.png,condition_files/AMP_rep3.csv,left,loyalty.virtue,,,,,,,,,,,,,,,,,,,,,0,0,0,2,0,43,43,43,,,,,,,,,,,,,954.7716377493925,,,,,AMP_prac,right,0.5979748030658811,,,,,,,,,,,,,,,,,,,,,1,,,right,0.01562356180511415,,,,,,,,,,,,,,1027,2019_Jun_05_1249,mf_amp_cond1,3.0.7,59.98189725573845,
trust,,&&&&&,images/symbols/symbol_30.png,condition_files/AMP_rep3.csv,left,authority.virtue,,,,,,,,,,,,,,,,,,,,,0,0,0,2,0,44,44,44,,,,,,,,,,,,,955.2717601065524,,,,,AMP_prac,right,0.5979748030658811,,,,,,,,,,,,,,,,,,,,,1,,,right,0.2823258077260107,,,,,,,,,,,,,,1027,2019_Jun_05_1249,mf_amp_cond1,3.0.7,59.98189725573845,
improve,,&&&&&&&,images/symbols/symbol_21.png,condition_files/AMP_rep3.csv,left,care.virtue,,,,,,,,,,,,,,,,,,,,,0,0,0,2,0,45,45,45,,,,,,,,,,,,,955.5551654805895,,,,,AMP_prac,right,0.5979748030658811,,,,,,,,,,,,,,,,,,,,,1,,,left,0.06576309399679303,,,,,,,,,,,,,,1027,2019_Jun_05_1249,mf_amp_cond1,3.0.7,59.98189725573845,
support,,&&&&&&&,images/symbols/symbol_13.png,condition_files/AMP_rep3.csv,left,loyalty.virtue,,,,,,,,,,,,,,,,,,,,,0,0,0,2,0,46,46,46,,,,,,,,,,,,,955.9052736777812,,,,,AMP_prac,right,0.5979748030658811,,,,,,,,,,,,,,,,,,,,,1,,,right,0.13227251917123795,,,,,,,,,,,,,,1027,2019_Jun_05_1249,mf_amp_cond1,3.0.7,59.98189725573845,
illegal,,&&&&&&&,images/symbols/symbol_46.png,condition_files/AMP_rep3.csv,right,fairness.vice,,,,,,,,,,,,,,,,,,,,,0,0,0,2,0,47,47,47,,,,,,,,,,,,,956.572118134005,,,,,AMP_prac,right,0.5979748030658811,,,,,,,,,,,,,,,,,,,,,1,,,right,0.4489712528884411,,,,,,,,,,,,,,1027,2019_Jun_05_1249,mf_amp_cond1,3.0.7,59.98189725573845,
promises,,&&&&&&&&,images/symbols/symbol_72.png,condition_files/AMP_rep3.csv,left,fairness.virtue,,,,,,,,,,,,,,,,,,,,,0,0,0,2,0,48,48,48,,,,,,,,,,,,,957.2389718911145,,,,,AMP_prac,right,0.5979748030658811,,,,,,,,,,,,,,,,,,,,,1,,,right,0.44890999398194253,,,,,,,,,,,,,,1027,2019_Jun_05_1249,mf_amp_cond1,3.0.7,59.98189725573845,
groups,,&&&&&&,images/symbols/symbol_68.png,condition_files/AMP_rep3.csv,right,loyalty.vice,,,,,,,,,,,,,,,,,,,,,0,0,0,2,0,49,49,49,,,,,,,,,,,,,957.7724408491049,,,,,AMP_prac,right,0.5979748030658811,,,,,,,,,,,,,,,,,,,,,1,,,right,0.3003099183551967,,,,,,,,,,,,,,1027,2019_Jun_05_1249,mf_amp_cond1,3.0.7,59.98189725573845,
attacks,,&&&&&&&,images/symbols/symbol_39.png,condition_files/AMP_rep3.csv,right,care.vice,,,,,,,,,,,,,,,,,,,,,0,0,0,2,0,50,50,50,,,,,,,,,,,,,958.2225468333345,,,,,AMP_prac,right,0.5979748030658811,,,,,,,,,,,,,,,,,,,,,1,,,right,0.23152589914388955,,,,,,,,,,,,,,1027,2019_Jun_05_1249,mf_amp_cond1,3.0.7,59.98189725573845,
accused,,&&&&&&&,images/symbols/symbol_80.png,condition_files/AMP_rep3.csv,right,fairness.vice,,,,,,,,,,,,,,,,,,,,,0,0,0,2,0,51,51,51,,,,,,,,,,,,,958.7560353556182,,,,,AMP_prac,right,0.5979748030658811,,,,,,,,,,,,,,,,,,,,,1,,,left,0.3160316222347319,,,,,,,,,,,,,,1027,2019_Jun_05_1249,mf_amp_cond1,3.0.7,59.98189725573845,
powerful,,&&&&&&&&,images/symbols/symbol_23.png,condition_files/AMP_rep3.csv,left,authority.virtue,,,,,,,,,,,,,,,,,,,,,0,0,0,2,0,52,52,52,,,,,,,,,,,,,959.4895608257502,,,,,AMP_prac,right,0.5979748030658811,,,,,,,,,,,,,,,,,,,,,1,,,left,0.5157747843768448,,,,,,,,,,,,,,1027,2019_Jun_05_1249,mf_amp_cond1,3.0.7,59.98189725573845,
black,,&&&&&,images/symbols/symbol_73.png,condition_files/AMP_rep3.csv,right,loyalty.vice,,,,,,,,,,,,,,,,,,,,,0,0,0,2,0,53,53,53,,,,,,,,,,,,,959.9396780352108,,,,,AMP_prac,right,0.5979748030658811,,,,,,,,,,,,,,,,,,,,,1,,,right,0.23227030597627163,,,,,,,,,,,,,,1027,2019_Jun_05_1249,mf_amp_cond1,3.0.7,59.98189725573845,
honored,,&&&&&&&,images/symbols/symbol_32.png,condition_files/AMP_rep3.csv,left,authority.virtue,,,,,,,,,,,,,,,,,,,,,0,0,0,2,0,54,54,54,,,,,,,,,,,,,960.3564694912639,,,,,AMP_prac,right,0.5979748030658811,,,,,,,,,,,,,,,,,,,,,1,,,right,0.19902056478895247,,,,,,,,,,,,,,1027,2019_Jun_05_1249,mf_amp_cond1,3.0.7,59.98189725573845,
torture,,&&&&&&&,images/symbols/symbol_52.png,condition_files/AMP_rep3.csv,right,care.vice,,,,,,,,,,,,,,,,,,,,,0,0,0,2,0,55,55,55,,,,,,,,,,,,,960.856600187486,,,,,AMP_prac,right,0.5979748030658811,,,,,,,,,,,,,,,,,,,,,1,,,right,0.28287008102051914,,,,,,,,,,,,,,1027,2019_Jun_05_1249,mf_amp_cond1,3.0.7,59.98189725573845,
strength,,&&&&&&&&,images/symbols/symbol_34.png,condition_files/AMP_rep3.csv,left,sanctity.virtue,,,,,,,,,,,,,,,,,,,,,0,0,0,2,0,56,56,56,,,,,,,,,,,,,961.3400771475863,,,,,AMP_prac,right,0.5979748030658811,,,,,,,,,,,,,,,,,,,,,1,,,right,0.26562332129105926,,,,,,,,,,,,,,1027,2019_Jun_05_1249,mf_amp_cond1,3.0.7,59.98189725573845,
strong,,&&&&&&,images/symbols/symbol_59.png,condition_files/AMP_rep3.csv,left,loyalty.virtue,,,,,,,,,,,,,,,,,,,,,0,0,0,2,0,57,57,57,,,,,,,,,,,,,961.7901966022328,,,,,AMP_prac,right,0.5979748030658811,,,,,,,,,,,,,,,,,,,,,1,,,right,0.23239218187518418,,,,,,,,,,,,,,1027,2019_Jun_05_1249,mf_amp_cond1,3.0.7,59.98189725573845,
victim,,&&&&&&,images/symbols/symbol_22.png,condition_files/AMP_rep3.csv,right,care.vice,,,,,,,,,,,,,,,,,,,,,0,0,0,2,0,58,58,58,,,,,,,,,,,,,962.5569314020686,,,,,AMP_prac,right,0.5979748030658811,,,,,,,,,,,,,,,,,,,,,1,,,right,0.5488506918773055,,,,,,,,,,,,,,1027,2019_Jun_05_1249,mf_amp_cond1,3.0.7,59.98189725573845,
daizz,,&&&&&,images/symbols/symbol_9.png,condition_files/AMP_rep3.csv,None,nonword,,,,,,,,,,,,,,,,,,,,,0,0,0,2,0,59,59,59,,,,,,,,,,,,,963.4072956994642,,,,,AMP_prac,right,0.5979748030658811,,,,,,,,,,,,,,,,,,,,,1,,,right,0.6319641401059926,,,,,,,,,,,,,,1027,2019_Jun_05_1249,mf_amp_cond1,3.0.7,59.98189725573845,
suicide,,&&&&&&&,images/symbols/symbol_5.png,condition_files/AMP_rep3.csv,right,care.vice,,,,,,,,,,,,,,,,,,,,,0,0,0,2,0,60,60,60,,,,,,,,,,,,,964.0074979497585,,,,,AMP_prac,right,0.5979748030658811,,,,,,,,,,,,,,,,,,,,,1,,,right,0.38257087487727404,,,,,,,,,,,,,,1027,2019_Jun_05_1249,mf_amp_cond1,3.0.7,59.98189725573845,
care,,&&&&,images/symbols/symbol_70.png,condition_files/AMP_rep3.csv,left,care.virtue,,,,,,,,,,,,,,,,,,,,,0,0,0,2,0,61,61,61,,,,,,,,,,,,,964.6576206758618,,,,,AMP_prac,right,0.5979748030658811,,,,,,,,,,,,,,,,,,,,,1,,,left,0.43254747800529003,,,,,,,,,,,,,,1027,2019_Jun_05_1249,mf_amp_cond1,3.0.7,59.98189725573845,
died,,&&&&,images/symbols/symbol_47.png,condition_files/AMP_rep3.csv,right,care.vice,,,,,,,,,,,,,,,,,,,,,0,0,0,2,0,62,62,62,,,,,,,,,,,,,965.1244147138204,,,,,AMP_prac,right,0.5979748030658811,,,,,,,,,,,,,,,,,,,,,1,,,left,0.24906035093590617,,,,,,,,,,,,,,1027,2019_Jun_05_1249,mf_amp_cond1,3.0.7,59.98189725573845,
voter,,&&&&&,images/symbols/symbol_77.png,condition_files/AMP_rep3.csv,right,fairness.vice,,,,,,,,,,,,,,,,,,,,,0,0,0,2,0,63,63,63,,,,,,,,,,,,,965.4411750272848,,,,,AMP_prac,right,0.5979748030658811,,,,,,,,,,,,,,,,,,,,,1,,,left,0.09915427560918033,,,,,,,,,,,,,,1027,2019_Jun_05_1249,mf_amp_cond1,3.0.7,59.98189725573845,
restore,,&&&&&&&,images/symbols/symbol_19.png,condition_files/AMP_rep3.csv,left,care.virtue,,,,,,,,,,,,,,,,,,,,,0,0,0,2,0,64,64,64,,,,,,,,,,,,,965.9079555948265,,,,,AMP_prac,right,0.5979748030658811,,,,,,,,,,,,,,,,,,,,,1,,,right,0.24912545830011368,,,,,,,,,,,,,,1027,2019_Jun_05_1249,mf_amp_cond1,3.0.7,59.98189725573845,
scandal,,&&&&&&&,images/symbols/symbol_43.png,condition_files/AMP_rep3.csv,right,sanctity.vice,,,,,,,,,,,,,,,,,,,,,0,0,0,2,0,65,65,65,,,,,,,,,,,,,966.4081029687077,,,,,AMP_prac,right,0.5979748030658811,,,,,,,,,,,,,,,,,,,,,1,,,right,0.26697775023058057,,,,,,,,,,,,,,1027,2019_Jun_05_1249,mf_amp_cond1,3.0.7,59.98189725573845,
arrests,,&&&&&&&,images/symbols/symbol_25.png,condition_files/AMP_rep3.csv,right,authority.vice,,,,,,,,,,,,,,,,,,,,,0,0,0,2,0,66,66,66,,,,,,,,,,,,,966.6748250997625,,,,,AMP_prac,right,0.5979748030658811,,,,,,,,,,,,,,,,,,,,,1,,,right,0.04820009763352573,,,,,,,,,,,,,,1027,2019_Jun_05_1249,mf_amp_cond1,3.0.7,59.98189725573845,
party,,&&&&&,images/symbols/symbol_49.png,condition_files/AMP_rep3.csv,left,loyalty.virtue,,,,,,,,,,,,,,,,,,,,,0,0,0,2,0,67,67,67,,,,,,,,,,,,,967.2249811491929,,,,,AMP_prac,right,0.5979748030658811,,,,,,,,,,,,,,,,,,,,,1,,,left,0.3329159610439092,,,,,,,,,,,,,,1027,2019_Jun_05_1249,mf_amp_cond1,3.0.7,59.98189725573845,
fear,,&&&&,images/symbols/symbol_24.png,condition_files/AMP_rep3.csv,right,sanctity.vice,,,,,,,,,,,,,,,,,,,,,0,0,0,2,0,68,68,68,,,,,,,,,,,,,967.7084417522419,,,,,AMP_prac,right,0.5979748030658811,,,,,,,,,,,,,,,,,,,,,1,,,left,0.2656743167899549,,,,,,,,,,,,,,1027,2019_Jun_05_1249,mf_amp_cond1,3.0.7,59.98189725573845,
clean,,&&&&&,images/symbols/symbol_62.png,condition_files/AMP_rep3.csv,left,sanctity.virtue,,,,,,,,,,,,,,,,,,,,,0,0,0,2,0,69,69,69,,,,,,,,,,,,,967.958529711701,,,,,AMP_prac,right,0.5979748030658811,,,,,,,,,,,,,,,,,,,,,1,,,left,0.0169183355756104,,,,,,,,,,,,,,1027,2019_Jun_05_1249,mf_amp_cond1,3.0.7,59.98189725573845,
integrity,,&&&&&&&&&,images/symbols/symbol_41.png,condition_files/AMP_rep3.csv,left,fairness.virtue,,,,,,,,,,,,,,,,,,,,,0,0,0,2,0,70,70,70,,,,,,,,,,,,,968.442012444837,,,,,AMP_prac,right,0.5979748030658811,,,,,,,,,,,,,,,,,,,,,1,,,right,0.2658314728178084,,,,,,,,,,,,,,1027,2019_Jun_05_1249,mf_amp_cond1,3.0.7,59.98189725573845,
treas,,&&&&&,images/symbols/symbol_71.png,condition_files/AMP_rep3.csv,None,nonword,,,,,,,,,,,,,,,,,,,,,0,0,0,2,0,71,71,71,,,,,,,,,,,,,968.9421453860123,,,,,AMP_prac,right,0.5979748030658811,,,,,,,,,,,,,,,,,,,,,1,,,right,0.2824630788527429,,,,,,,,,,,,,,1027,2019_Jun_05_1249,mf_amp_cond1,3.0.7,59.98189725573845,
rhailled,,&&&&&&&&,images/symbols/symbol_82.png,condition_files/AMP_rep3.csv,None,nonword,,,,,,,,,,,,,,,,,,,,,0,0,0,2,0,72,72,72,,,,,,,,,,,,,969.5089333623182,,,,,AMP_prac,right,0.5979748030658811,,,,,,,,,,,,,,,,,,,,,1,,,right,0.34944846224971116,,,,,,,,,,,,,,1027,2019_Jun_05_1249,mf_amp_cond1,3.0.7,59.98189725573845,
roossed,,&&&&&&&,images/symbols/symbol_69.png,condition_files/AMP_rep3.csv,None,nonword,,,,,,,,,,,,,,,,,,,,,0,0,0,2,0,73,73,73,,,,,,,,,,,,,969.9757267588284,,,,,AMP_prac,right,0.5979748030658811,,,,,,,,,,,,,,,,,,,,,1,,,right,0.24891987233422697,,,,,,,,,,,,,,1027,2019_Jun_05_1249,mf_amp_cond1,3.0.7,59.98189725573845,
unpleasant,,&&&&&&&&&,images/symbols/symbol_64.png,condition_files/AMP_rep3.csv,left,control,,,,,,,,,,,,,,,,,,,,,0,0,0,2,0,74,74,74,,,,,,,,,,,,,970.542533978587,,,,,AMP_prac,right,0.5979748030658811,,,,,,,,,,,,,,,,,,,,,1,,,right,0.34895871253684163,,,,,,,,,,,,,,1027,2019_Jun_05_1249,mf_amp_cond1,3.0.7,59.98189725573845,
terrorists,,&&&&&&&&&&,images/symbols/symbol_60.png,condition_files/AMP_rep3.csv,right,fairness.vice,,,,,,,,,,,,,,,,,,,,,0,0,0,2,0,75,75,75,,,,,,,,,,,,,971.009328657994,,,,,AMP_prac,right,0.5979748030658811,,,,,,,,,,,,,,,,,,,,,1,,,right,0.24905137065798044,,,,,,,,,,,,,,1027,2019_Jun_05_1249,mf_amp_cond1,3.0.7,59.98189725573845,
praise,,&&&&&&,images/symbols/symbol_18.png,condition_files/AMP_rep3.csv,left,authority.virtue,,,,,,,,,,,,,,,,,,,,,0,0,0,2,0,76,76,76,,,,,,,,,,,,,971.3761027788278,,,,,AMP_prac,right,0.5979748030658811,,,,,,,,,,,,,,,,,,,,,1,,,right,0.149197269231081,,,,,,,,,,,,,,1027,2019_Jun_05_1249,mf_amp_cond1,3.0.7,59.98189725573845,
forced,,&&&&&&,images/symbols/symbol_11.png,condition_files/AMP_rep3.csv,right,fairness.vice,,,,,,,,,,,,,,,,,,,,,0,0,0,2,0,77,77,77,,,,,,,,,,,,,971.7595325601287,,,,,AMP_prac,right,0.5979748030658811,,,,,,,,,,,,,,,,,,,,,1,,,right,0.16568230302073061,,,,,,,,,,,,,,1027,2019_Jun_05_1249,mf_amp_cond1,3.0.7,59.98189725573845,
sexual,,&&&&&&,images/symbols/symbol_56.png,condition_files/AMP_rep3.csv,right,sanctity.vice,,,,,,,,,,,,,,,,,,,,,0,0,0,2,0,78,78,78,,,,,,,,,,,,,972.2763355942443,,,,,AMP_prac,right,0.5979748030658811,,,,,,,,,,,,,,,,,,,,,1,,,right,0.299026049207896,,,,,,,,,,,,,,1027,2019_Jun_05_1249,mf_amp_cond1,3.0.7,59.98189725573845,
agreement,,&&&&&&&&&,images/symbols/symbol_50.png,condition_files/AMP_rep3.csv,left,fairness.virtue,,,,,,,,,,,,,,,,,,,,,0,0,0,2,0,79,79,79,,,,,,,,,,,,,972.693110693479,,,,,AMP_prac,right,0.5979748030658811,,,,,,,,,,,,,,,,,,,,,1,,,right,0.19907701248303056,,,,,,,,,,,,,,1027,2019_Jun_05_1249,mf_amp_cond1,3.0.7,59.98189725573845,
violations,,&&&&&&&&&&,images/symbols/symbol_2.png,condition_files/AMP_rep3.csv,right,sanctity.vice,,,,,,,,,,,,,,,,,,,,,0,0,0,2,0,80,80,80,,,,,,,,,,,,,973.0098668374121,,,,,AMP_prac,right,0.5979748030658811,,,,,,,,,,,,,,,,,,,,,1,,,right,0.09895157627761364,,,,,,,,,,,,,,1027,2019_Jun_05_1249,mf_amp_cond1,3.0.7,59.98189725573845,
critics,,&&&&&&&,images/symbols/symbol_36.png,condition_files/AMP_rep3.csv,right,loyalty.vice,,,,,,,,,,,,,,,,,,,,,0,0,0,2,0,81,81,81,,,,,,,,,,,,,973.3432889052201,,,,,AMP_prac,right,0.5979748030658811,,,,,,,,,,,,,,,,,,,,,1,,,right,0.11548247397877276,,,,,,,,,,,,,,1027,2019_Jun_05_1249,mf_amp_cond1,3.0.7,59.98189725573845,
,,,,condition_files/AMP_rep3.csv,,,,,,,,,,,,,,,,,,,,,,,0,0,0,2,,,,,,,,,,,,,,,,,,,,,,,,,,,,,,,,,,,,,,,,,,,,,,,,,,right,0.16692191152833402,,,,,,,,,,,,1027,2019_Jun_05_1249,mf_amp_cond1,3.0.7,59.98189725573845,
police,,&&&&&&,images/symbols/symbol_29.png,condition_files/AMP_rep2.csv,right,authority.vice,,,,,,,,,,,,,,,,,,,,,0,1,1,1,0,0,0,0,,,,,,,,,,,,,974.493750799913,,,,,AMP_prac,right,0.5979748030658811,,,,,,,,,,,,,,,,,,,,,1,,,right,0.7324196042027324,,,,,,,,,,,,,,1027,2019_Jun_05_1249,mf_amp_cond1,3.0.7,59.98189725573845,
values,,&&&&&&,images/symbols/symbol_40.png,condition_files/AMP_rep2.csv,left,sanctity.virtue,,,,,,,,,,,,,,,,,,,,,0,1,1,1,0,1,1,1,,,,,,,,,,,,,974.8103449768387,,,,,AMP_prac,right,0.5979748030658811,,,,,,,,,,,,,,,,,,,,,1,,,right,0.0989326536655426,,,,,,,,,,,,,,1027,2019_Jun_05_1249,mf_amp_cond1,3.0.7,59.98189725573845,
progress,,&&&&&&&&,images/symbols/symbol_44.png,condition_files/AMP_rep2.csv,left,authority.virtue,,,,,,,,,,,,,,,,,,,,,0,1,1,1,0,2,2,2,,,,,,,,,,,,,975.2271572803147,,,,,AMP_prac,right,0.5979748030658811,,,,,,,,,,,,,,,,,,,,,1,,,right,0.19902248913422227,,,,,,,,,,,,,,1027,2019_Jun_05_1249,mf_amp_cond1,3.0.7,59.98189725573845,
good,,&&&&,images/symbols/symbol_38.png,condition_files/AMP_rep2.csv,left,care.virtue,,,,,,,,,,,,,,,,,,,,,0,1,1,1,0,3,3,3,,,,,,,,,,,,,975.4938915988896,,,,,AMP_prac,right,0.5979748030658811,,,,,,,,,,,,,,,,,,,,,1,,,right,0.04867252823896706,,,,,,,,,,,,,,1027,2019_Jun_05_1249,mf_amp_cond1,3.0.7,59.98189725573845,
feuld,,&&&&&,images/symbols/symbol_31.png,condition_files/AMP_rep2.csv,None,nonword,,,,,,,,,,,,,,,,,,,,,0,1,1,1,0,4,4,4,,,,,,,,,,,,,975.9273149815854,,,,,AMP_prac,right,0.5979748030658811,,,,,,,,,,,,,,,,,,,,,1,,,right,0.20027139876037836,,,,,,,,,,,,,,1027,2019_Jun_05_1249,mf_amp_cond1,3.0.7,59.98189725573845,
freedom,,&&&&&&&,images/symbols/symbol_15.png,condition_files/AMP_rep2.csv,left,sanctity.virtue,,,,,,,,,,,,,,,,,,,,,0,1,1,1,0,5,5,5,,,,,,,,,,,,,976.494176404085,,,,,AMP_prac,right,0.5979748030658811,,,,,,,,,,,,,,,,,,,,,1,,,right,0.34874158073216677,,,,,,,,,,,,,,1027,2019_Jun_05_1249,mf_amp_cond1,3.0.7,59.98189725573845,
protect,,&&&&&&&,images/symbols/symbol_81.png,condition_files/AMP_rep2.csv,left,fairness.virtue,,,,,,,,,,,,,,,,,,,,,0,1,1,1,0,6,6,6,,,,,,,,,,,,,976.9942779142875,,,,,AMP_prac,right,0.5979748030658811,,,,,,,,,,,,,,,,,,,,,1,,,right,0.2821263156365603,,,,,,,,,,,,,,1027,2019_Jun_05_1249,mf_amp_cond1,3.0.7,59.98189725573845,
rebels,,&&&&&&,images/symbols/symbol_26.png,condition_files/AMP_rep2.csv,right,authority.vice,,,,,,,,,,,,,,,,,,,,,0,1,1,1,0,7,7,7,,,,,,,,,,,,,977.427721502725,,,,,AMP_prac,right,0.5979748030658811,,,,,,,,,,,,,,,,,,,,,1,,,right,0.21569482726044953,,,,,,,,,,,,,,1027,2019_Jun_05_1249,mf_amp_cond1,3.0.7,59.98189725573845,
men,,&&&,images/symbols/symbol_6.png,condition_files/AMP_rep2.csv,right,loyalty.vice,,,,,,,,,,,,,,,,,,,,,0,1,1,1,0,8,8,8,,,,,,,,,,,,,978.1279269922525,,,,,AMP_prac,right,0.5979748030658811,,,,,,,,,,,,,,,,,,,,,1,,,right,0.4824538417160511,,,,,,,,,,,,,,1027,2019_Jun_05_1249,mf_amp_cond1,3.0.7,59.98189725573845,
peaceful,,&&&&&&&&,images/symbols/symbol_54.png,condition_files/AMP_rep2.csv,left,authority.virtue,,,,,,,,,,,,,,,,,,,,,0,1,1,1,0,9,9,9,,,,,,,,,,,,,978.6113709176425,,,,,AMP_prac,right,0.5979748030658811,,,,,,,,,,,,,,,,,,,,,1,,,right,0.25029771449044347,,,,,,,,,,,,,,1027,2019_Jun_05_1249,mf_amp_cond1,3.0.7,59.98189725573845,
gun,,&&&,images/symbols/symbol_12.png,condition_files/AMP_rep2.csv,right,authority.vice,,,,,,,,,,,,,,,,,,,,,0,1,1,1,0,10,10,10,,,,,,,,,,,,,979.1115189329721,,,,,AMP_prac,right,0.5979748030658811,,,,,,,,,,,,,,,,,,,,,1,,,right,0.2818553016986698,,,,,,,,,,,,,,1027,2019_Jun_05_1249,mf_amp_cond1,3.0.7,59.98189725573845,
growth,,&&&&&&,images/symbols/symbol_74.png,condition_files/AMP_rep2.csv,left,care.virtue,,,,,,,,,,,,,,,,,,,,,0,1,1,1,0,11,11,11,,,,,,,,,,,,,979.5616274829954,,,,,AMP_prac,right,0.5979748030658811,,,,,,,,,,,,,,,,,,,,,1,,,left,0.21697196108289063,,,,,,,,,,,,,,1027,2019_Jun_05_1249,mf_amp_cond1,3.0.7,59.98189725573845,
corruption,,&&&&&&&&&&,images/symbols/symbol_37.png,condition_files/AMP_rep2.csv,right,sanctity.vice,,,,,,,,,,,,,,,,,,,,,0,1,1,1,0,12,12,12,,,,,,,,,,,,,980.0117597666103,,,,,AMP_prac,right,0.5979748030658811,,,,,,,,,,,,,,,,,,,,,1,,,left,0.2319575974252075,,,,,,,,,,,,,,1027,2019_Jun_05_1249,mf_amp_cond1,3.0.7,59.98189725573845,
help,,&&&&,images/symbols/symbol_53.png,condition_files/AMP_rep2.csv,left,care.virtue,,,,,,,,,,,,,,,,,,,,,0,1,1,1,0,13,13,13,,,,,,,,,,,,,980.4452495398,,,,,AMP_prac,right,0.5979748030658811,,,,,,,,,,,,,,,,,,,,,1,,,left,0.21577949915081263,,,,,,,,,,,,,,1027,2019_Jun_05_1249,mf_amp_cond1,3.0.7,59.98189725573845,
charges,,&&&&&&&,images/symbols/symbol_1.png,condition_files/AMP_rep2.csv,right,fairness.vice,,,,,,,,,,,,,,,,,,,,,0,1,1,1,0,14,14,14,,,,,,,,,,,,,980.9453622752335,,,,,AMP_prac,right,0.5979748030658811,,,,,,,,,,,,,,,,,,,,,1,,,left,0.2823270906228572,,,,,,,,,,,,,,1027,2019_Jun_05_1249,mf_amp_cond1,3.0.7,59.98189725573845,
faith,,&&&&&,images/symbols/symbol_42.png,condition_files/AMP_rep2.csv,left,sanctity.virtue,,,,,,,,,,,,,,,,,,,,,0,1,1,1,0,15,15,15,,,,,,,,,,,,,981.3120886078104,,,,,AMP_prac,right,0.5979748030658811,,,,,,,,,,,,,,,,,,,,,1,,,right,0.1490583943668753,,,,,,,,,,,,,,1027,2019_Jun_05_1249,mf_amp_cond1,3.0.7,59.98189725573845,
promote,,&&&&&&&,images/symbols/symbol_79.png,condition_files/AMP_rep2.csv,left,sanctity.virtue,,,,,,,,,,,,,,,,,,,,,0,1,1,1,0,16,16,16,,,,,,,,,,,,,981.6621862209868,,,,,AMP_prac,right,0.5979748030658811,,,,,,,,,,,,,,,,,,,,,1,,,right,0.13223114516586065,,,,,,,,,,,,,,1027,2019_Jun_05_1249,mf_amp_cond1,3.0.7,59.98189725573845,
officers,,&&&&&&&&,images/symbols/symbol_63.png,condition_files/AMP_rep2.csv,right,authority.vice,,,,,,,,,,,,,,,,,,,,,0,1,1,1,0,17,17,17,,,,,,,,,,,,,982.012394484831,,,,,AMP_prac,right,0.5979748030658811,,,,,,,,,,,,,,,,,,,,,1,,,right,0.13234372017905116,,,,,,,,,,,,,,1027,2019_Jun_05_1249,mf_amp_cond1,3.0.7,59.98189725573845,
love,,&&&&,images/symbols/symbol_8.png,condition_files/AMP_rep2.csv,left,loyalty.virtue,,,,,,,,,,,,,,,,,,,,,0,1,1,1,0,18,18,18,,,,,,,,,,,,,982.3123788654339,,,,,AMP_prac,right,0.5979748030658811,,,,,,,,,,,,,,,,,,,,,1,,,left,0.08204222097992897,,,,,,,,,,,,,,1027,2019_Jun_05_1249,mf_amp_cond1,3.0.7,59.98189725573845,
civilians,,&&&&&&&&&,images/symbols/symbol_66.png,condition_files/AMP_rep2.csv,right,care.vice,,,,,,,,,,,,,,,,,,,,,0,1,1,1,0,19,19,19,,,,,,,,,,,,,982.6291212183423,,,,,AMP_prac,right,0.5979748030658811,,,,,,,,,,,,,,,,,,,,,1,,,left,0.09907120745629072,,,,,,,,,,,,,,1027,2019_Jun_05_1249,mf_amp_cond1,3.0.7,59.98189725573845,
gnoozz,,&&&&&&,images/symbols/symbol_20.png,condition_files/AMP_rep2.csv,None,nonword,,,,,,,,,,,,,,,,,,,,,0,1,1,1,0,20,20,20,,,,,,,,,,,,,983.1792654010933,,,,,AMP_prac,right,0.5979748030658811,,,,,,,,,,,,,,,,,,,,,1,,,right,0.3329358461778611,,,,,,,,,,,,,,1027,2019_Jun_05_1249,mf_amp_cond1,3.0.7,59.98189725573845,
racist,,&&&&&&,images/symbols/symbol_75.png,condition_files/AMP_rep2.csv,right,sanctity.vice,,,,,,,,,,,,,,,,,,,,,0,1,1,1,0,21,21,21,,,,,,,,,,,,,983.7627581087872,,,,,AMP_prac,right,0.5979748030658811,,,,,,,,,,,,,,,,,,,,,1,,,right,0.3657987907063216,,,,,,,,,,,,,,1027,2019_Jun_05_1249,mf_amp_cond1,3.0.7,59.98189725573845,
commitment,,&&&&&&&&&&,images/symbols/symbol_65.png,condition_files/AMP_rep2.csv,left,sanctity.virtue,,,,,,,,,,,,,,,,,,,,,0,1,1,1,0,22,22,22,,,,,,,,,,,,,984.4296343170572,,,,,AMP_prac,right,0.5979748030658811,,,,,,,,,,,,,,,,,,,,,1,,,right,0.448740650434047,,,,,,,,,,,,,,1027,2019_Jun_05_1249,mf_amp_cond1,3.0.7,59.98189725573845,
failure,,&&&&&&&,images/symbols/symbol_3.png,condition_files/AMP_rep2.csv,right,loyalty.vice,,,,,,,,,,,,,,,,,,,,,0,1,1,1,0,23,23,23,,,,,,,,,,,,,985.1465028438251,,,,,AMP_prac,right,0.5979748030658811,,,,,,,,,,,,,,,,,,,,,1,,,right,0.49913516035303473,,,,,,,,,,,,,,1027,2019_Jun_05_1249,mf_amp_cond1,3.0.7,59.98189725573845,
crime,,&&&&&,images/symbols/symbol_14.png,condition_files/AMP_rep2.csv,right,fairness.vice,,,,,,,,,,,,,,,,,,,,,0,1,1,1,0,24,24,24,,,,,,,,,,,,,985.62992271455,,,,,AMP_prac,right,0.5979748030658811,,,,,,,,,,,,,,,,,,,,,1,,,right,0.2656586009543389,,,,,,,,,,,,,,1027,2019_Jun_05_1249,mf_amp_cond1,3.0.7,59.98189725573845,
cande,,&&&&&,images/symbols/symbol_10.png,condition_files/AMP_rep2.csv,None,nonword,,,,,,,,,,,,,,,,,,,,,0,1,1,1,0,25,25,25,,,,,,,,,,,,,985.9800642672926,,,,,AMP_prac,right,0.5979748030658811,,,,,,,,,,,,,,,,,,,,,1,,,right,0.13250921526923776,,,,,,,,,,,,,,1027,2019_Jun_05_1249,mf_amp_cond1,3.0.7,59.98189725573845,
abuse,,&&&&&,images/symbols/symbol_48.png,condition_files/AMP_rep2.csv,right,sanctity.vice,,,,,,,,,,,,,,,,,,,,,0,1,1,1,0,26,26,26,,,,,,,,,,,,,986.7302806775551,,,,,AMP_prac,right,0.5979748030658811,,,,,,,,,,,,,,,,,,,,,1,,,left,0.5325247384607792,,,,,,,,,,,,,,1027,2019_Jun_05_1249,mf_amp_cond1,3.0.7,59.98189725573845,
victims,,&&&&&&&,images/symbols/symbol_27.png,condition_files/AMP_rep2.csv,right,care.vice,,,,,,,,,,,,,,,,,,,,,0,1,1,1,0,27,27,27,,,,,,,,,,,,,987.4137525702827,,,,,AMP_prac,right,0.5979748030658811,,,,,,,,,,,,,,,,,,,,,1,,,right,0.4657802206929773,,,,,,,,,,,,,,1027,2019_Jun_05_1249,mf_amp_cond1,3.0.7,59.98189725573845,
plonx,,&&&&&,images/symbols/symbol_55.png,condition_files/AMP_rep2.csv,None,nonword,,,,,,,,,,,,,,,,,,,,,0,1,1,1,0,28,28,28,,,,,,,,,,,,,987.8638588751201,,,,,AMP_prac,right,0.5979748030658811,,,,,,,,,,,,,,,,,,,,,1,,,right,0.23224561009556055,,,,,,,,,,,,,,1027,2019_Jun_05_1249,mf_amp_cond1,3.0.7,59.98189725573845,
ban,,&&&,images/symbols/symbol_57.png,condition_files/AMP_rep2.csv,right,loyalty.vice,,,,,,,,,,,,,,,,,,,,,0,1,1,1,0,29,29,29,,,,,,,,,,,,,988.3639886090532,,,,,AMP_prac,right,0.5979748030658811,,,,,,,,,,,,,,,,,,,,,1,,,right,0.2824621165636927,,,,,,,,,,,,,,1027,2019_Jun_05_1249,mf_amp_cond1,3.0.7,59.98189725573845,
celebrated,,&&&&&&&&&&,images/symbols/symbol_78.png,condition_files/AMP_rep2.csv,left,authority.virtue,,,,,,,,,,,,,,,,,,,,,0,1,1,1,0,30,30,30,,,,,,,,,,,,,988.864125398919,,,,,AMP_prac,right,0.5979748030658811,,,,,,,,,,,,,,,,,,,,,1,,,right,0.2822956594172865,,,,,,,,,,,,,,1027,2019_Jun_05_1249,mf_amp_cond1,3.0.7,59.98189725573845,
interests,,&&&&&&&&&,images/symbols/symbol_33.png,condition_files/AMP_rep2.csv,left,fairness.virtue,,,,,,,,,,,,,,,,,,,,,0,1,1,1,0,31,31,31,,,,,,,,,,,,,989.2975808545016,,,,,AMP_prac,right,0.5979748030658811,,,,,,,,,,,,,,,,,,,,,1,,,right,0.21589239477179945,,,,,,,,,,,,,,1027,2019_Jun_05_1249,mf_amp_cond1,3.0.7,59.98189725573845,
rhoalled,,&&&&&&&&,images/symbols/symbol_4.png,condition_files/AMP_rep2.csv,None,nonword,,,,,,,,,,,,,,,,,,,,,0,1,1,1,0,32,32,32,,,,,,,,,,,,,989.7310805700254,,,,,AMP_prac,right,0.5979748030658811,,,,,,,,,,,,,,,,,,,,,1,,,right,0.21566083026118577,,,,,,,,,,,,,,1027,2019_Jun_05_1249,mf_amp_cond1,3.0.7,59.98189725573845,
pleasant,,&&&&&&&,images/symbols/symbol_67.png,condition_files/AMP_rep2.csv,right,control,,,,,,,,,,,,,,,,,,,,,0,1,1,1,0,33,33,33,,,,,,,,,,,,,990.0644551701844,,,,,AMP_prac,right,0.5979748030658811,,,,,,,,,,,,,,,,,,,,,1,,,right,0.11554373288527131,,,,,,,,,,,,,,1027,2019_Jun_05_1249,mf_amp_cond1,3.0.7,59.98189725573845,
credit,,&&&&&&,images/symbols/symbol_58.png,condition_files/AMP_rep2.csv,left,fairness.virtue,,,,,,,,,,,,,,,,,,,,,0,1,1,1,0,34,34,34,,,,,,,,,,,,,990.4812357216142,,,,,AMP_prac,right,0.5979748030658811,,,,,,,,,,,,,,,,,,,,,1,,,right,0.19898592634126544,,,,,,,,,,,,,,1027,2019_Jun_05_1249,mf_amp_cond1,3.0.7,59.98189725573845,
fourz,,&&&&&,images/symbols/symbol_7.png,condition_files/AMP_rep2.csv,None,nonword,,,,,,,,,,,,,,,,,,,,,0,1,1,1,0,35,35,35,,,,,,,,,,,,,990.8813381616492,,,,,AMP_prac,right,0.5979748030658811,,,,,,,,,,,,,,,,,,,,,1,,,left,0.18224719748832285,,,,,,,,,,,,,,1027,2019_Jun_05_1249,mf_amp_cond1,3.0.7,59.98189725573845,
promised,,&&&&&&&&,images/symbols/symbol_16.png,condition_files/AMP_rep2.csv,left,loyalty.virtue,,,,,,,,,,,,,,,,,,,,,0,1,1,1,0,36,36,36,,,,,,,,,,,,,991.2314421895426,,,,,AMP_prac,right,0.5979748030658811,,,,,,,,,,,,,,,,,,,,,1,,,left,0.13238252815790474,,,,,,,,,,,,,,1027,2019_Jun_05_1249,mf_amp_cond1,3.0.7,59.98189725573845,
sharing,,&&&&&&&,images/symbols/symbol_45.png,condition_files/AMP_rep2.csv,left,loyalty.virtue,,,,,,,,,,,,,,,,,,,,,0,1,1,1,0,37,37,37,,,,,,,,,,,,,991.5315599923488,,,,,AMP_prac,right,0.5979748030658811,,,,,,,,,,,,,,,,,,,,,1,,,left,0.08232093253172934,,,,,,,,,,,,,,1027,2019_Jun_05_1249,mf_amp_cond1,3.0.7,59.98189725573845,
blamed,,&&&&&&,images/symbols/symbol_51.png,condition_files/AMP_rep2.csv,right,loyalty.vice,,,,,,,,,,,,,,,,,,,,,0,1,1,1,0,38,38,38,,,,,,,,,,,,,991.814935538685,,,,,AMP_prac,right,0.5979748030658811,,,,,,,,,,,,,,,,,,,,,1,,,left,0.06610883749090135,,,,,,,,,,,,,,1027,2019_Jun_05_1249,mf_amp_cond1,3.0.7,59.98189725573845,
fair,,&&&&,images/symbols/symbol_17.png,condition_files/AMP_rep2.csv,left,fairness.virtue,,,,,,,,,,,,,,,,,,,,,0,1,1,1,0,39,39,39,,,,,,,,,,,,,992.0816560660023,,,,,AMP_prac,right,0.5979748030658811,,,,,,,,,,,,,,,,,,,,,1,,,left,0.04886239836923778,,,,,,,,,,,,,,1027,2019_Jun_05_1249,mf_amp_cond1,3.0.7,59.98189725573845,
increase,,&&&&&&&&,images/symbols/symbol_28.png,condition_files/AMP_rep2.csv,left,care.virtue,,,,,,,,,,,,,,,,,,,,,0,1,1,1,0,40,40,40,,,,,,,,,,,,,992.6484815673903,,,,,AMP_prac,right,0.5979748030658811,,,,,,,,,,,,,,,,,,,,,1,,,right,0.34907930600456893,,,,,,,,,,,,,,1027,2019_Jun_05_1249,mf_amp_cond1,3.0.7,59.98189725573845,
refused,,&&&&&&&,images/symbols/symbol_61.png,condition_files/AMP_rep2.csv,right,authority.vice,,,,,,,,,,,,,,,,,,,,,0,1,1,1,0,41,41,41,,,,,,,,,,,,,992.9152210175525,,,,,AMP_prac,right,0.5979748030658811,,,,,,,,,,,,,,,,,,,,,1,,,right,0.048998386366292834,,,,,,,,,,,,,,1027,2019_Jun_05_1249,mf_amp_cond1,3.0.7,59.98189725573845,
rejected,,&&&&&&&&,images/symbols/symbol_76.png,condition_files/AMP_rep2.csv,right,authority.vice,,,,,,,,,,,,,,,,,,,,,0,1,1,1,0,42,42,42,,,,,,,,,,,,,993.1328456576448,,,,,AMP_prac,right,0.5979748030658811,,,,,,,,,,,,,,,,,,,,,1,,,right,0.0003002001903951168,,,,,,,,,,,,,,1027,2019_Jun_05_1249,mf_amp_cond1,3.0.7,59.98189725573845,
intelligence,,&&&&&&&&&&&&,images/symbols/symbol_35.png,condition_files/AMP_rep2.csv,left,loyalty.virtue,,,,,,,,,,,,,,,,,,,,,0,1,1,1,0,43,43,43,,,,,,,,,,,,,993.5654053231701,,,,,AMP_prac,right,0.5979748030658811,,,,,,,,,,,,,,,,,,,,,1,,,right,0.2003124519251287,,,,,,,,,,,,,,1027,2019_Jun_05_1249,mf_amp_cond1,3.0.7,59.98189725573845,
trust,,&&&&&,images/symbols/symbol_30.png,condition_files/AMP_rep2.csv,left,authority.virtue,,,,,,,,,,,,,,,,,,,,,0,1,1,1,0,44,44,44,,,,,,,,,,,,,995.2491751709022,,,,,AMP_prac,right,0.5979748030658811,,,,,,,,,,,,,,,,,,,,,1,,,right,1.4654335151426494,,,,,,,,,,,,,,1027,2019_Jun_05_1249,mf_amp_cond1,3.0.7,59.98189725573845,
improve,,&&&&&&&,images/symbols/symbol_21.png,condition_files/AMP_rep2.csv,left,care.virtue,,,,,,,,,,,,,,,,,,,,,0,1,1,1,0,45,45,45,,,,,,,,,,,,,996.0493938424625,,,,,AMP_prac,right,0.5979748030658811,,,,,,,,,,,,,,,,,,,,,1,,,right,0.5826097470708191,,,,,,,,,,,,,,1027,2019_Jun_05_1249,mf_amp_cond1,3.0.7,59.98189725573845,
support,,&&&&&&&,images/symbols/symbol_13.png,condition_files/AMP_rep2.csv,left,loyalty.virtue,,,,,,,,,,,,,,,,,,,,,0,1,1,1,0,46,46,46,,,,,,,,,,,,,996.53286374663,,,,,AMP_prac,right,0.5979748030658811,,,,,,,,,,,,,,,,,,,,,1,,,right,0.2657554605975747,,,,,,,,,,,,,,1027,2019_Jun_05_1249,mf_amp_cond1,3.0.7,59.98189725573845,
illegal,,&&&&&&&,images/symbols/symbol_46.png,condition_files/AMP_rep2.csv,right,fairness.vice,,,,,,,,,,,,,,,,,,,,,0,1,1,1,0,47,47,47,,,,,,,,,,,,,997.1330355277751,,,,,AMP_prac,right,0.5979748030658811,,,,,,,,,,,,,,,,,,,,,1,,,left,0.38249390036799014,,,,,,,,,,,,,,1027,2019_Jun_05_1249,mf_amp_cond1,3.0.7,59.98189725573845,
promises,,&&&&&&&&,images/symbols/symbol_72.png,condition_files/AMP_rep2.csv,left,fairness.virtue,,,,,,,,,,,,,,,,,,,,,0,1,1,1,0,48,48,48,,,,,,,,,,,,,997.6498215636238,,,,,AMP_prac,right,0.5979748030658811,,,,,,,,,,,,,,,,,,,,,1,,,right,0.2834538035094738,,,,,,,,,,,,,,1027,2019_Jun_05_1249,mf_amp_cond1,3.0.7,59.98189725573845,
groups,,&&&&&&,images/symbols/symbol_68.png,condition_files/AMP_rep2.csv,right,loyalty.vice,,,,,,,,,,,,,,,,,,,,,0,1,1,1,0,49,49,49,,,,,,,,,,,,,997.9832487630192,,,,,AMP_prac,right,0.5979748030658811,,,,,,,,,,,,,,,,,,,,,1,,,right,0.10027489485219121,,,,,,,,,,,,,,1027,2019_Jun_05_1249,mf_amp_cond1,3.0.7,59.98189725573845,
attacks,,&&&&&&&,images/symbols/symbol_39.png,condition_files/AMP_rep2.csv,right,care.vice,,,,,,,,,,,,,,,,,,,,,0,1,1,1,0,50,50,50,,,,,,,,,,,,,998.2833521333523,,,,,AMP_prac,right,0.5979748030658811,,,,,,,,,,,,,,,,,,,,,1,,,right,0.0816711401566863,,,,,,,,,,,,,,1027,2019_Jun_05_1249,mf_amp_cond1,3.0.7,59.98189725573845,
accused,,&&&&&&&,images/symbols/symbol_80.png,condition_files/AMP_rep2.csv,right,fairness.vice,,,,,,,,,,,,,,,,,,,,,0,1,1,1,0,51,51,51,,,,,,,,,,,,,998.5167392096482,,,,,AMP_prac,right,0.5979748030658811,,,,,,,,,,,,,,,,,,,,,1,,,right,0.01606937195174396,,,,,,,,,,,,,,1027,2019_Jun_05_1249,mf_amp_cond1,3.0.7,59.98189725573845,
powerful,,&&&&&&&&,images/symbols/symbol_23.png,condition_files/AMP_rep2.csv,left,authority.virtue,,,,,,,,,,,,,,,,,,,,,0,1,1,1,0,52,52,52,,,,,,,,,,,,,998.9001686701085,,,,,AMP_prac,right,0.5979748030658811,,,,,,,,,,,,,,,,,,,,,1,,,right,0.1656207232736051,,,,,,,,,,,,,,1027,2019_Jun_05_1249,mf_amp_cond1,3.0.7,59.98189725573845,
black,,&&&&&,images/symbols/symbol_73.png,condition_files/AMP_rep2.csv,right,loyalty.vice,,,,,,,,,,,,,,,,,,,,,0,1,1,1,0,53,53,53,,,,,,,,,,,,,999.2169081363827,,,,,AMP_prac,right,0.5979748030658811,,,,,,,,,,,,,,,,,,,,,1,,,right,0.0988749226089567,,,,,,,,,,,,,,1027,2019_Jun_05_1249,mf_amp_cond1,3.0.7,59.98189725573845,
honored,,&&&&&&&,images/symbols/symbol_32.png,condition_files/AMP_rep2.csv,left,authority.virtue,,,,,,,,,,,,,,,,,,,,,0,1,1,1,0,54,54,54,,,,,,,,,,,,,999.4836578499526,,,,,AMP_prac,right,0.5979748030658811,,,,,,,,,,,,,,,,,,,,,1,,,right,0.048905375646427274,,,,,,,,,,,,,,1027,2019_Jun_05_1249,mf_amp_cond1,3.0.7,59.98189725573845,
torture,,&&&&&&&,images/symbols/symbol_52.png,condition_files/AMP_rep2.csv,right,care.vice,,,,,,,,,,,,,,,,,,,,,0,1,1,1,0,55,55,55,,,,,,,,,,,,,999.7337156608701,,,,,AMP_prac,right,0.5979748030658811,,,,,,,,,,,,,,,,,,,,,1,,,right,0.03272182517684996,,,,,,,,,,,,,,1027,2019_Jun_05_1249,mf_amp_cond1,3.0.7,59.98189725573845,
strength,,&&&&&&&&,images/symbols/symbol_34.png,condition_files/AMP_rep2.csv,left,sanctity.virtue,,,,,,,,,,,,,,,,,,,,,0,1,1,1,0,56,56,56,,,,,,,,,,,,,999.9519172883593,,,,,AMP_prac,right,0.5979748030658811,,,,,,,,,,,,,,,,,,,,,1,,,right,0.00030308659188449383,,,,,,,,,,,,,,1027,2019_Jun_05_1249,mf_amp_cond1,3.0.7,59.98189725573845,
strong,,&&&&&&,images/symbols/symbol_59.png,condition_files/AMP_rep2.csv,left,loyalty.virtue,,,,,,,,,,,,,,,,,,,,,0,1,1,1,0,57,57,57,,,,,,,,,,,,,1000.2338492437266,,,,,AMP_prac,right,0.5979748030658811,,,,,,,,,,,,,,,,,,,,,1,,,right,0.06568900612182915,,,,,,,,,,,,,,1027,2019_Jun_05_1249,mf_amp_cond1,3.0.7,59.98189725573845,
victim,,&&&&&&,images/symbols/symbol_22.png,condition_files/AMP_rep2.csv,right,care.vice,,,,,,,,,,,,,,,,,,,,,0,1,1,1,0,58,58,58,,,,,,,,,,,,,1000.5839356314391,,,,,AMP_prac,right,0.5979748030658811,,,,,,,,,,,,,,,,,,,,,1,,,left,0.1322285793721676,,,,,,,,,,,,,,1027,2019_Jun_05_1249,mf_amp_cond1,3.0.7,59.98189725573845,
daizz,,&&&&&,images/symbols/symbol_9.png,condition_files/AMP_rep2.csv,None,nonword,,,,,,,,,,,,,,,,,,,,,0,1,1,1,0,59,59,59,,,,,,,,,,,,,1000.8173493281938,,,,,AMP_prac,right,0.5979748030658811,,,,,,,,,,,,,,,,,,,,,1,,,left,0.01562644843943417,,,,,,,,,,,,,,1027,2019_Jun_05_1249,mf_amp_cond1,3.0.7,59.98189725573845,
suicide,,&&&&&&&,images/symbols/symbol_5.png,condition_files/AMP_rep2.csv,right,care.vice,,,,,,,,,,,,,,,,,,,,,0,1,1,1,0,60,60,60,,,,,,,,,,,,,1001.0672746789642,,,,,AMP_prac,right,0.5979748030658811,,,,,,,,,,,,,,,,,,,,,1,,,left,0.03212014166638255,,,,,,,,,,,,,,1027,2019_Jun_05_1249,mf_amp_cond1,3.0.7,59.98189725573845,
care,,&&&&,images/symbols/symbol_70.png,condition_files/AMP_rep2.csv,left,care.virtue,,,,,,,,,,,,,,,,,,,,,0,1,1,1,0,61,61,61,,,,,,,,,,,,,1001.3008182700723,,,,,AMP_prac,right,0.5979748030658811,,,,,,,,,,,,,,,,,,,,,1,,,left,0.01537275337614119,,,,,,,,,,,,,,1027,2019_Jun_05_1249,mf_amp_cond1,3.0.7,59.98189725573845,
died,,&&&&,images/symbols/symbol_47.png,condition_files/AMP_rep2.csv,right,care.vice,,,,,,,,,,,,,,,,,,,,,0,1,1,1,0,62,62,62,,,,,,,,,,,,,1001.7175972179975,,,,,AMP_prac,right,0.5979748030658811,,,,,,,,,,,,,,,,,,,,,1,,,left,0.1987954145297408,,,,,,,,,,,,,,1027,2019_Jun_05_1249,mf_amp_cond1,3.0.7,59.98189725573845,
voter,,&&&&&,images/symbols/symbol_77.png,condition_files/AMP_rep2.csv,right,fairness.vice,,,,,,,,,,,,,,,,,,,,,0,1,1,1,0,63,63,63,,,,,,,,,,,,,1002.3344176034443,,,,,AMP_prac,right,0.5979748030658811,,,,,,,,,,,,,,,,,,,,,1,,,right,0.39902030816301703,,,,,,,,,,,,,,1027,2019_Jun_05_1249,mf_amp_cond1,3.0.7,59.98189725573845,
restore,,&&&&&&&,images/symbols/symbol_19.png,condition_files/AMP_rep2.csv,left,care.virtue,,,,,,,,,,,,,,,,,,,,,0,1,1,1,0,64,64,64,,,,,,,,,,,,,1002.784535775194,,,,,AMP_prac,right,0.5979748030658811,,,,,,,,,,,,,,,,,,,,,1,,,right,0.23213592148385942,,,,,,,,,,,,,,1027,2019_Jun_05_1249,mf_amp_cond1,3.0.7,59.98189725573845,
scandal,,&&&&&&&,images/symbols/symbol_43.png,condition_files/AMP_rep2.csv,right,sanctity.vice,,,,,,,,,,,,,,,,,,,,,0,1,1,1,0,65,65,65,,,,,,,,,,,,,1003.1513044438325,,,,,AMP_prac,right,0.5979748030658811,,,,,,,,,,,,,,,,,,,,,1,,,right,0.1336141189094633,,,,,,,,,,,,,,1027,2019_Jun_05_1249,mf_amp_cond1,3.0.7,59.98189725573845,
arrests,,&&&&&&&,images/symbols/symbol_25.png,condition_files/AMP_rep2.csv,right,authority.vice,,,,,,,,,,,,,,,,,,,,,0,1,1,1,0,66,66,66,,,,,,,,,,,,,1003.5514302968513,,,,,AMP_prac,right,0.5979748030658811,,,,,,,,,,,,,,,,,,,,,1,,,right,0.1816246670205146,,,,,,,,,,,,,,1027,2019_Jun_05_1249,mf_amp_cond1,3.0.7,59.98189725573845,
party,,&&&&&,images/symbols/symbol_49.png,condition_files/AMP_rep2.csv,left,loyalty.virtue,,,,,,,,,,,,,,,,,,,,,0,1,1,1,0,67,67,67,,,,,,,,,,,,,1003.9015083457343,,,,,AMP_prac,right,0.5979748030658811,,,,,,,,,,,,,,,,,,,,,1,,,left,0.13280139747075737,,,,,,,,,,,,,,1027,2019_Jun_05_1249,mf_amp_cond1,3.0.7,59.98189725573845,
fear,,&&&&,images/symbols/symbol_24.png,condition_files/AMP_rep2.csv,right,sanctity.vice,,,,,,,,,,,,,,,,,,,,,0,1,1,1,0,68,68,68,,,,,,,,,,,,,1004.2349198295269,,,,,AMP_prac,right,0.5979748030658811,,,,,,,,,,,,,,,,,,,,,1,,,right,0.11559601128101349,,,,,,,,,,,,,,1027,2019_Jun_05_1249,mf_amp_cond1,3.0.7,59.98189725573845,
clean,,&&&&&,images/symbols/symbol_62.png,condition_files/AMP_rep2.csv,left,sanctity.virtue,,,,,,,,,,,,,,,,,,,,,0,1,1,1,0,69,69,69,,,,,,,,,,,,,1004.5850334791467,,,,,AMP_prac,right,0.5979748030658811,,,,,,,,,,,,,,,,,,,,,1,,,left,0.11695300624705851,,,,,,,,,,,,,,1027,2019_Jun_05_1249,mf_amp_cond1,3.0.7,59.98189725573845,
integrity,,&&&&&&&&&,images/symbols/symbol_41.png,condition_files/AMP_rep2.csv,left,fairness.virtue,,,,,,,,,,,,,,,,,,,,,0,1,1,1,0,70,70,70,,,,,,,,,,,,,1004.9017889816314,,,,,AMP_prac,right,0.5979748030658811,,,,,,,,,,,,,,,,,,,,,1,,,right,0.09883900126442313,,,,,,,,,,,,,,1027,2019_Jun_05_1249,mf_amp_cond1,3.0.7,59.98189725573845,
treas,,&&&&&,images/symbols/symbol_71.png,condition_files/AMP_rep2.csv,None,nonword,,,,,,,,,,,,,,,,,,,,,0,1,1,1,0,71,71,71,,,,,,,,,,,,,1005.2351998239756,,,,,AMP_prac,right,0.5979748030658811,,,,,,,,,,,,,,,,,,,,,1,,,left,0.11563738528639078,,,,,,,,,,,,,,1027,2019_Jun_05_1249,mf_amp_cond1,3.0.7,59.98189725573845,
rhailled,,&&&&&&&&,images/symbols/symbol_82.png,condition_files/AMP_rep2.csv,None,nonword,,,,,,,,,,,,,,,,,,,,,0,1,1,1,0,72,72,72,,,,,,,,,,,,,1005.5185984626878,,,,,AMP_prac,right,0.5979748030658811,,,,,,,,,,,,,,,,,,,,,1,,,right,0.0659571336582303,,,,,,,,,,,,,,1027,2019_Jun_05_1249,mf_amp_cond1,3.0.7,59.98189725573845,
roossed,,&&&&&&&,images/symbols/symbol_69.png,condition_files/AMP_rep2.csv,None,nonword,,,,,,,,,,,,,,,,,,,,,0,1,1,1,0,73,73,73,,,,,,,,,,,,,1005.8186973426491,,,,,AMP_prac,right,0.5979748030658811,,,,,,,,,,,,,,,,,,,,,1,,,left,0.0821519095916301,,,,,,,,,,,,,,1027,2019_Jun_05_1249,mf_amp_cond1,3.0.7,59.98189725573845,
unpleasant,,&&&&&&&&&,images/symbols/symbol_64.png,condition_files/AMP_rep2.csv,left,control,,,,,,,,,,,,,,,,,,,,,0,1,1,1,0,74,74,74,,,,,,,,,,,,,1006.068749059923,,,,,AMP_prac,right,0.5979748030658811,,,,,,,,,,,,,,,,,,,,,1,,,right,0.03221315238624811,,,,,,,,,,,,,,1027,2019_Jun_05_1249,mf_amp_cond1,3.0.7,59.98189725573845,
terrorists,,&&&&&&&&&&,images/symbols/symbol_60.png,condition_files/AMP_rep2.csv,right,fairness.vice,,,,,,,,,,,,,,,,,,,,,0,1,1,1,0,75,75,75,,,,,,,,,,,,,1006.4688630462624,,,,,AMP_prac,right,0.5979748030658811,,,,,,,,,,,,,,,,,,,,,1,,,right,0.18236875301226974,,,,,,,,,,,,,,1027,2019_Jun_05_1249,mf_amp_cond1,3.0.7,59.98189725573845,
praise,,&&&&&&,images/symbols/symbol_18.png,condition_files/AMP_rep2.csv,left,authority.virtue,,,,,,,,,,,,,,,,,,,,,0,1,1,1,0,76,76,76,,,,,,,,,,,,,1006.6867263067979,,,,,AMP_prac,right,0.5979748030658811,,,,,,,,,,,,,,,,,,,,,1,,,left,0.0003002001903951168,,,,,,,,,,,,,,1027,2019_Jun_05_1249,mf_amp_cond1,3.0.7,59.98189725573845,
forced,,&&&&&&,images/symbols/symbol_11.png,condition_files/AMP_rep2.csv,right,fairness.vice,,,,,,,,,,,,,,,,,,,,,0,1,1,1,0,77,77,77,,,,,,,,,,,,,1007.0690159045625,,,,,AMP_prac,right,0.5979748030658811,,,,,,,,,,,,,,,,,,,,,1,,,left,0.16576088103465736,,,,,,,,,,,,,,1027,2019_Jun_05_1249,mf_amp_cond1,3.0.7,59.98189725573845,
sexual,,&&&&&&,images/symbols/symbol_56.png,condition_files/AMP_rep2.csv,right,sanctity.vice,,,,,,,,,,,,,,,,,,,,,0,1,1,1,0,78,78,78,,,,,,,,,,,,,1007.3524318623822,,,,,AMP_prac,right,0.5979748030658811,,,,,,,,,,,,,,,,,,,,,1,,,left,0.0656277472153306,,,,,,,,,,,,,,1027,2019_Jun_05_1249,mf_amp_cond1,3.0.7,59.98189725573845,
agreement,,&&&&&&&&&,images/symbols/symbol_50.png,condition_files/AMP_rep2.csv,left,fairness.virtue,,,,,,,,,,,,,,,,,,,,,0,1,1,1,0,79,79,79,,,,,,,,,,,,,1007.6358391607646,,,,,AMP_prac,right,0.5979748030658811,,,,,,,,,,,,,,,,,,,,,1,,,left,0.0656572540756315,,,,,,,,,,,,,,1027,2019_Jun_05_1249,mf_amp_cond1,3.0.7,59.98189725573845,
violations,,&&&&&&&&&&,images/symbols/symbol_2.png,condition_files/AMP_rep2.csv,right,sanctity.vice,,,,,,,,,,,,,,,,,,,,,0,1,1,1,0,80,80,80,,,,,,,,,,,,,1007.9525978704914,,,,,AMP_prac,right,0.5979748030658811,,,,,,,,,,,,,,,,,,,,,1,,,right,0.0989560664165765,,,,,,,,,,,,,,1027,2019_Jun_05_1249,mf_amp_cond1,3.0.7,59.98189725573845,
critics,,&&&&&&&,images/symbols/symbol_36.png,condition_files/AMP_rep2.csv,right,loyalty.vice,,,,,,,,,,,,,,,,,,,,,0,1,1,1,0,81,81,81,,,,,,,,,,,,,1008.2193273783196,,,,,AMP_prac,right,0.5979748030658811,,,,,,,,,,,,,,,,,,,,,1,,,left,0.04876104858703911,,,,,,,,,,,,,,1027,2019_Jun_05_1249,mf_amp_cond1,3.0.7,59.98189725573845,
,,,,condition_files/AMP_rep2.csv,,,,,,,,,,,,,,,,,,,,,,,0,1,1,1,,,,,,,,,,,,,,,,,,,,,,,,,,,,,,,,,,,,,,,,,,,,,,,,,,right,0.1669690585695207,,,,,,,,,,,,1027,2019_Jun_05_1249,mf_amp_cond1,3.0.7,59.98189725573845,
police,,&&&&&&,images/symbols/symbol_29.png,condition_files/AMP_rep1.csv,right,authority.vice,,,,,,,,,,,,,,,,,,,,,0,2,2,0,0,0,0,0,,,,,,,,,,,,,1009.1197616101708,,,,,AMP_prac,right,0.5979748030658811,,,,,,,,,,,,,,,,,,,,,1,,,right,0.4987547784112394,,,,,,,,,,,,,,1027,2019_Jun_05_1249,mf_amp_cond1,3.0.7,59.98189725573845,
values,,&&&&&&,images/symbols/symbol_40.png,condition_files/AMP_rep1.csv,left,sanctity.virtue,,,,,,,,,,,,,,,,,,,,,0,2,2,0,0,1,1,1,,,,,,,,,,,,,1009.3696311546955,,,,,AMP_prac,right,0.5979748030658811,,,,,,,,,,,,,,,,,,,,,1,,,right,0.032161836279556155,,,,,,,,,,,,,,1027,2019_Jun_05_1249,mf_amp_cond1,3.0.7,59.98189725573845,
progress,,&&&&&&&&,images/symbols/symbol_44.png,condition_files/AMP_rep1.csv,left,authority.virtue,,,,,,,,,,,,,,,,,,,,,0,2,2,0,0,2,2,2,,,,,,,,,,,,,1009.619715585839,,,,,AMP_prac,right,0.5979748030658811,,,,,,,,,,,,,,,,,,,,,1,,,right,0.03223047172650695,,,,,,,,,,,,,,1027,2019_Jun_05_1249,mf_amp_cond1,3.0.7,59.98189725573845,
good,,&&&&,images/symbols/symbol_38.png,condition_files/AMP_rep1.csv,left,care.virtue,,,,,,,,,,,,,,,,,,,,,0,2,2,0,0,3,3,3,,,,,,,,,,,,,1010.0698305503465,,,,,AMP_prac,right,0.5979748030658811,,,,,,,,,,,,,,,,,,,,,1,,,right,0.2324643456377089,,,,,,,,,,,,,,1027,2019_Jun_05_1249,mf_amp_cond1,3.0.7,59.98189725573845,
feuld,,&&&&&,images/symbols/symbol_31.png,condition_files/AMP_rep1.csv,None,nonword,,,,,,,,,,,,,,,,,,,,,0,2,2,0,0,4,4,4,,,,,,,,,,,,,1010.3198835505173,,,,,AMP_prac,right,0.5979748030658811,,,,,,,,,,,,,,,,,,,,,1,,,right,0.03312786505557597,,,,,,,,,,,,,,1027,2019_Jun_05_1249,mf_amp_cond1,3.0.7,59.98189725573845,
freedom,,&&&&&&&,images/symbols/symbol_15.png,condition_files/AMP_rep1.csv,left,sanctity.virtue,,,,,,,,,,,,,,,,,,,,,0,2,2,0,0,5,5,5,,,,,,,,,,,,,1010.7533319499344,,,,,AMP_prac,right,0.5979748030658811,,,,,,,,,,,,,,,,,,,,,1,,,right,0.21550688124261796,,,,,,,,,,,,,,1027,2019_Jun_05_1249,mf_amp_cond1,3.0.7,59.98189725573845,
protect,,&&&&&&&,images/symbols/symbol_81.png,condition_files/AMP_rep1.csv,left,fairness.virtue,,,,,,,,,,,,,,,,,,,,,0,2,2,0,0,6,6,6,,,,,,,,,,,,,1011.2534802861046,,,,,AMP_prac,right,0.5979748030658811,,,,,,,,,,,,,,,,,,,,,1,,,right,0.28196370718069375,,,,,,,,,,,,,,1027,2019_Jun_05_1249,mf_amp_cond1,3.0.7,59.98189725573845,
rebels,,&&&&&&,images/symbols/symbol_26.png,condition_files/AMP_rep1.csv,right,authority.vice,,,,,,,,,,,,,,,,,,,,,0,2,2,0,0,7,7,7,,,,,,,,,,,,,1011.7035881944466,,,,,AMP_prac,right,0.5979748030658811,,,,,,,,,,,,,,,,,,,,,1,,,right,0.23233284754678607,,,,,,,,,,,,,,1027,2019_Jun_05_1249,mf_amp_cond1,3.0.7,59.98189725573845,
men,,&&&,images/symbols/symbol_6.png,condition_files/AMP_rep1.csv,right,loyalty.vice,,,,,,,,,,,,,,,,,,,,,0,2,2,0,0,8,8,8,,,,,,,,,,,,,1012.020434462931,,,,,AMP_prac,right,0.5979748030658811,,,,,,,,,,,,,,,,,,,,,1,,,right,0.09893778502009809,,,,,,,,,,,,,,1027,2019_Jun_05_1249,mf_amp_cond1,3.0.7,59.98189725573845,
peaceful,,&&&&&&&&,images/symbols/symbol_54.png,condition_files/AMP_rep1.csv,left,authority.virtue,,,,,,,,,,,,,,,,,,,,,0,2,2,0,0,9,9,9,,,,,,,,,,,,,1012.3871239118744,,,,,AMP_prac,right,0.5979748030658811,,,,,,,,,,,,,,,,,,,,,1,,,right,0.13361957110464573,,,,,,,,,,,,,,1027,2019_Jun_05_1249,mf_amp_cond1,3.0.7,59.98189725573845,
gun,,&&&,images/symbols/symbol_12.png,condition_files/AMP_rep1.csv,right,authority.vice,,,,,,,,,,,,,,,,,,,,,0,2,2,0,0,10,10,10,,,,,,,,,,,,,1012.6538579096086,,,,,AMP_prac,right,0.5979748030658811,,,,,,,,,,,,,,,,,,,,,1,,,right,0.04840824939310551,,,,,,,,,,,,,,1027,2019_Jun_05_1249,mf_amp_cond1,3.0.7,59.98189725573845,
growth,,&&&&&&,images/symbols/symbol_74.png,condition_files/AMP_rep1.csv,left,care.virtue,,,,,,,,,,,,,,,,,,,,,0,2,2,0,0,11,11,11,,,,,,,,,,,,,1012.9372546239756,,,,,AMP_prac,right,0.5979748030658811,,,,,,,,,,,,,,,,,,,,,1,,,left,0.05024601356126368,,,,,,,,,,,,,,1027,2019_Jun_05_1249,mf_amp_cond1,3.0.7,59.98189725573845,
corruption,,&&&&&&&&&&,images/symbols/symbol_37.png,condition_files/AMP_rep1.csv,right,sanctity.vice,,,,,,,,,,,,,,,,,,,,,0,2,2,0,0,12,12,12,,,,,,,,,,,,,1013.2039963193238,,,,,AMP_prac,right,0.5979748030658811,,,,,,,,,,,,,,,,,,,,,1,,,left,0.04832870909012854,,,,,,,,,,,,,,1027,2019_Jun_05_1249,mf_amp_cond1,3.0.7,59.98189725573845,
help,,&&&&,images/symbols/symbol_53.png,condition_files/AMP_rep1.csv,left,care.virtue,,,,,,,,,,,,,,,,,,,,,0,2,2,0,0,13,13,13,,,,,,,,,,,,,1013.5874687572941,,,,,AMP_prac,right,0.5979748030658811,,,,,,,,,,,,,,,,,,,,,1,,,left,0.16569256596267223,,,,,,,,,,,,,,1027,2019_Jun_05_1249,mf_amp_cond1,3.0.7,59.98189725573845,
charges,,&&&&&&&,images/symbols/symbol_1.png,condition_files/AMP_rep1.csv,right,fairness.vice,,,,,,,,,,,,,,,,,,,,,0,2,2,0,0,14,14,14,,,,,,,,,,,,,1013.8541806249414,,,,,AMP_prac,right,0.5979748030658811,,,,,,,,,,,,,,,,,,,,,1,,,right,0.04889126378111541,,,,,,,,,,,,,,1027,2019_Jun_05_1249,mf_amp_cond1,3.0.7,59.98189725573845,
faith,,&&&&&,images/symbols/symbol_42.png,condition_files/AMP_rep1.csv,left,sanctity.virtue,,,,,,,,,,,,,,,,,,,,,0,2,2,0,0,15,15,15,,,,,,,,,,,,,1014.1209309799597,,,,,AMP_prac,right,0.5979748030658811,,,,,,,,,,,,,,,,,,,,,1,,,left,0.048978501465171576,,,,,,,,,,,,,,1027,2019_Jun_05_1249,mf_amp_cond1,3.0.7,59.98189725573845,
promote,,&&&&&&&,images/symbols/symbol_79.png,condition_files/AMP_rep1.csv,left,sanctity.virtue,,,,,,,,,,,,,,,,,,,,,0,2,2,0,0,16,16,16,,,,,,,,,,,,,1014.3710166942328,,,,,AMP_prac,right,0.5979748030658811,,,,,,,,,,,,,,,,,,,,,1,,,right,0.03230872913263738,,,,,,,,,,,,,,1027,2019_Jun_05_1249,mf_amp_cond1,3.0.7,59.98189725573845,
officers,,&&&&&&&&,images/symbols/symbol_63.png,condition_files/AMP_rep1.csv,right,authority.vice,,,,,,,,,,,,,,,,,,,,,0,2,2,0,0,17,17,17,,,,,,,,,,,,,1014.6377237509005,,,,,AMP_prac,right,0.5979748030658811,,,,,,,,,,,,,,,,,,,,,1,,,left,0.049158429028466344,,,,,,,,,,,,,,1027,2019_Jun_05_1249,mf_amp_cond1,3.0.7,59.98189725573845,
love,,&&&&,images/symbols/symbol_8.png,condition_files/AMP_rep1.csv,left,loyalty.virtue,,,,,,,,,,,,,,,,,,,,,0,2,2,0,0,18,18,18,,,,,,,,,,,,,1015.0711631700397,,,,,AMP_prac,right,0.5979748030658811,,,,,,,,,,,,,,,,,,,,,1,,,left,0.21583626768551767,,,,,,,,,,,,,,1027,2019_Jun_05_1249,mf_amp_cond1,3.0.7,59.98189725573845,
civilians,,&&&&&&&&&,images/symbols/symbol_66.png,condition_files/AMP_rep1.csv,right,care.vice,,,,,,,,,,,,,,,,,,,,,0,2,2,0,0,19,19,19,,,,,,,,,,,,,1015.3379132042173,,,,,AMP_prac,right,0.5979748030658811,,,,,,,,,,,,,,,,,,,,,1,,,left,0.04910647124052048,,,,,,,,,,,,,,1027,2019_Jun_05_1249,mf_amp_cond1,3.0.7,59.98189725573845,
gnoozz,,&&&&&&,images/symbols/symbol_20.png,condition_files/AMP_rep1.csv,None,nonword,,,,,,,,,,,,,,,,,,,,,0,2,2,0,0,20,20,20,,,,,,,,,,,,,1015.5713185621426,,,,,AMP_prac,right,0.5979748030658811,,,,,,,,,,,,,,,,,,,,,1,,,left,0.016151157207787037,,,,,,,,,,,,,,1027,2019_Jun_05_1249,mf_amp_cond1,3.0.7,59.98189725573845,
racist,,&&&&&&,images/symbols/symbol_75.png,condition_files/AMP_rep1.csv,right,sanctity.vice,,,,,,,,,,,,,,,,,,,,,0,2,2,0,0,21,21,21,,,,,,,,,,,,,1015.8380339578725,,,,,AMP_prac,right,0.5979748030658811,,,,,,,,,,,,,,,,,,,,,1,,,left,0.04897946352139115,,,,,,,,,,,,,,1027,2019_Jun_05_1249,mf_amp_cond1,3.0.7,59.98189725573845,
commitment,,&&&&&&&&&&,images/symbols/symbol_65.png,condition_files/AMP_rep1.csv,left,sanctity.virtue,,,,,,,,,,,,,,,,,,,,,0,2,2,0,0,22,22,22,,,,,,,,,,,,,1016.071446692571,,,,,AMP_prac,right,0.5979748030658811,,,,,,,,,,,,,,,,,,,,,1,,,left,0.015529588796198368,,,,,,,,,,,,,,1027,2019_Jun_05_1249,mf_amp_cond1,3.0.7,59.98189725573845,
failure,,&&&&&&&,images/symbols/symbol_3.png,condition_files/AMP_rep1.csv,right,loyalty.vice,,,,,,,,,,,,,,,,,,,,,0,2,2,0,0,23,23,23,,,,,,,,,,,,,1016.3381771624554,,,,,AMP_prac,right,0.5979748030658811,,,,,,,,,,,,,,,,,,,,,1,,,left,0.0488139686640352,,,,,,,,,,,,,,1027,2019_Jun_05_1249,mf_amp_cond1,3.0.7,59.98189725573845,
crime,,&&&&&,images/symbols/symbol_14.png,condition_files/AMP_rep1.csv,right,fairness.vice,,,,,,,,,,,,,,,,,,,,,0,2,2,0,0,24,24,24,,,,,,,,,,,,,1016.5716081783175,,,,,AMP_prac,right,0.5979748030658811,,,,,,,,,,,,,,,,,,,,,1,,,left,0.015540814260020852,,,,,,,,,,,,,,1027,2019_Jun_05_1249,mf_amp_cond1,3.0.7,59.98189725573845,
cande,,&&&&&,images/symbols/symbol_10.png,condition_files/AMP_rep1.csv,None,nonword,,,,,,,,,,,,,,,,,,,,,0,2,2,0,0,25,25,25,,,,,,,,,,,,,1016.8050183472224,,,,,AMP_prac,right,0.5979748030658811,,,,,,,,,,,,,,,,,,,,,1,,,left,0.01567936805076897,,,,,,,,,,,,,,1027,2019_Jun_05_1249,mf_amp_cond1,3.0.7,59.98189725573845,
abuse,,&&&&&,images/symbols/symbol_48.png,condition_files/AMP_rep1.csv,right,sanctity.vice,,,,,,,,,,,,,,,,,,,,,0,2,2,0,0,26,26,26,,,,,,,,,,,,,1017.0550302942283,,,,,AMP_prac,right,0.5979748030658811,,,,,,,,,,,,,,,,,,,,,1,,,left,0.03224554588086903,,,,,,,,,,,,,,1027,2019_Jun_05_1249,mf_amp_cond1,3.0.7,59.98189725573845,
victims,,&&&&&&&,images/symbols/symbol_27.png,condition_files/AMP_rep1.csv,right,care.vice,,,,,,,,,,,,,,,,,,,,,0,2,2,0,0,27,27,27,,,,,,,,,,,,,1017.2884436703753,,,,,AMP_prac,right,0.5979748030658811,,,,,,,,,,,,,,,,,,,,,1,,,right,0.015285194851458073,,,,,,,,,,,,,,1027,2019_Jun_05_1249,mf_amp_cond1,3.0.7,59.98189725573845,
plonx,,&&&&&,images/symbols/symbol_55.png,condition_files/AMP_rep1.csv,None,nonword,,,,,,,,,,,,,,,,,,,,,0,2,2,0,0,28,28,28,,,,,,,,,,,,,1017.6552011133172,,,,,AMP_prac,right,0.5979748030658811,,,,,,,,,,,,,,,,,,,,,1,,,right,0.14871457521803677,,,,,,,,,,,,,,1027,2019_Jun_05_1249,mf_amp_cond1,3.0.7,59.98189725573845,
ban,,&&&,images/symbols/symbol_57.png,condition_files/AMP_rep1.csv,right,loyalty.vice,,,,,,,,,,,,,,,,,,,,,0,2,2,0,0,29,29,29,,,,,,,,,,,,,1018.2886980066542,,,,,AMP_prac,right,0.5979748030658811,,,,,,,,,,,,,,,,,,,,,1,,,right,0.415701947407797,,,,,,,,,,,,,,1027,2019_Jun_05_1249,mf_amp_cond1,3.0.7,59.98189725573845,
celebrated,,&&&&&&&&&&,images/symbols/symbol_78.png,condition_files/AMP_rep1.csv,left,authority.virtue,,,,,,,,,,,,,,,,,,,,,0,2,2,0,0,30,30,30,,,,,,,,,,,,,1018.7221476889681,,,,,AMP_prac,right,0.5979748030658811,,,,,,,,,,,,,,,,,,,,,1,,,right,0.21548539260402322,,,,,,,,,,,,,,1027,2019_Jun_05_1249,mf_amp_cond1,3.0.7,59.98189725573845,
interests,,&&&&&&&&&,images/symbols/symbol_33.png,condition_files/AMP_rep1.csv,left,fairness.virtue,,,,,,,,,,,,,,,,,,,,,0,2,2,0,0,31,31,31,,,,,,,,,,,,,1019.1389410693664,,,,,AMP_prac,right,0.5979748030658811,,,,,,,,,,,,,,,,,,,,,1,,,right,0.19917290983721614,,,,,,,,,,,,,,1027,2019_Jun_05_1249,mf_amp_cond1,3.0.7,59.98189725573845,
rhoalled,,&&&&&&&&,images/symbols/symbol_4.png,condition_files/AMP_rep1.csv,None,nonword,,,,,,,,,,,,,,,,,,,,,0,2,2,0,0,32,32,32,,,,,,,,,,,,,1019.522373416461,,,,,AMP_prac,right,0.5979748030658811,,,,,,,,,,,,,,,,,,,,,1,,,right,0.16552835400216281,,,,,,,,,,,,,,1027,2019_Jun_05_1249,mf_amp_cond1,3.0.7,59.98189725573845,
pleasant,,&&&&&&&,images/symbols/symbol_67.png,condition_files/AMP_rep1.csv,right,control,,,,,,,,,,,,,,,,,,,,,0,2,2,0,0,33,33,33,,,,,,,,,,,,,1019.8557948425878,,,,,AMP_prac,right,0.5979748030658811,,,,,,,,,,,,,,,,,,,,,1,,,right,0.11556008970364928,,,,,,,,,,,,,,1027,2019_Jun_05_1249,mf_amp_cond1,3.0.7,59.98189725573845,
credit,,&&&&&&,images/symbols/symbol_58.png,condition_files/AMP_rep1.csv,left,fairness.virtue,,,,,,,,,,,,,,,,,,,,,0,2,2,0,0,34,34,34,,,,,,,,,,,,,1020.1892480207607,,,,,AMP_prac,right,0.5979748030658811,,,,,,,,,,,,,,,,,,,,,1,,,right,0.11575894057750702,,,,,,,,,,,,,,1027,2019_Jun_05_1249,mf_amp_cond1,3.0.7,59.98189725573845,
fourz,,&&&&&,images/symbols/symbol_7.png,condition_files/AMP_rep1.csv,None,nonword,,,,,,,,,,,,,,,,,,,,,0,2,2,0,0,35,35,35,,,,,,,,,,,,,1020.722728204215,,,,,AMP_prac,right,0.5979748030658811,,,,,,,,,,,,,,,,,,,,,1,,,right,0.3158837673254311,,,,,,,,,,,,,,1027,2019_Jun_05_1249,mf_amp_cond1,3.0.7,59.98189725573845,
promised,,&&&&&&&&,images/symbols/symbol_16.png,condition_files/AMP_rep1.csv,left,loyalty.virtue,,,,,,,,,,,,,,,,,,,,,0,2,2,0,0,36,36,36,,,,,,,,,,,,,1021.6062768148258,,,,,AMP_prac,right,0.5979748030658811,,,,,,,,,,,,,,,,,,,,,1,,,left,0.6660747120622545,,,,,,,,,,,,,,1027,2019_Jun_05_1249,mf_amp_cond1,3.0.7,59.98189725573845,
sharing,,&&&&&&&,images/symbols/symbol_45.png,condition_files/AMP_rep1.csv,left,loyalty.virtue,,,,,,,,,,,,,,,,,,,,,0,2,2,0,0,37,37,37,,,,,,,,,,,,,1022.5231871001888,,,,,AMP_prac,right,0.5979748030658811,,,,,,,,,,,,,,,,,,,,,1,,,right,0.6989520895294845,,,,,,,,,,,,,,1027,2019_Jun_05_1249,mf_amp_cond1,3.0.7,59.98189725573845,
blamed,,&&&&&&,images/symbols/symbol_51.png,condition_files/AMP_rep1.csv,right,loyalty.vice,,,,,,,,,,,,,,,,,,,,,0,2,2,0,0,38,38,38,,,,,,,,,,,,,1023.306765506044,,,,,AMP_prac,right,0.5979748030658811,,,,,,,,,,,,,,,,,,,,,1,,,right,0.5660195150412619,,,,,,,,,,,,,,1027,2019_Jun_05_1249,mf_amp_cond1,3.0.7,59.98189725573845,
fair,,&&&&,images/symbols/symbol_17.png,condition_files/AMP_rep1.csv,left,fairness.virtue,,,,,,,,,,,,,,,,,,,,,0,2,2,0,0,39,39,39,,,,,,,,,,,,,1024.073602938326,,,,,AMP_prac,right,0.5979748030658811,,,,,,,,,,,,,,,,,,,,,1,,,right,0.5488593513146043,,,,,,,,,,,,,,1027,2019_Jun_05_1249,mf_amp_cond1,3.0.7,59.98189725573845,
increase,,&&&&&&&&,images/symbols/symbol_28.png,condition_files/AMP_rep1.csv,left,care.virtue,,,,,,,,,,,,,,,,,,,,,0,2,2,0,0,40,40,40,,,,,,,,,,,,,1024.8738071771804,,,,,AMP_prac,right,0.5979748030658811,,,,,,,,,,,,,,,,,,,,,1,,,left,0.5822986420243979,,,,,,,,,,,,,,1027,2019_Jun_05_1249,mf_amp_cond1,3.0.7,59.98189725573845,
refused,,&&&&&&&,images/symbols/symbol_61.png,condition_files/AMP_rep1.csv,right,authority.vice,,,,,,,,,,,,,,,,,,,,,0,2,2,0,0,41,41,41,,,,,,,,,,,,,1025.507372064516,,,,,AMP_prac,right,0.5979748030658811,,,,,,,,,,,,,,,,,,,,,1,,,left,0.4158177296631038,,,,,,,,,,,,,,1027,2019_Jun_05_1249,mf_amp_cond1,3.0.7,59.98189725573845,
rejected,,&&&&&&&&,images/symbols/symbol_76.png,condition_files/AMP_rep1.csv,right,authority.vice,,,,,,,,,,,,,,,,,,,,,0,2,2,0,0,42,42,42,,,,,,,,,,,,,1026.0407897061668,,,,,AMP_prac,right,0.5979748030658811,,,,,,,,,,,,,,,,,,,,,1,,,left,0.3160608084872365,,,,,,,,,,,,,,1027,2019_Jun_05_1249,mf_amp_cond1,3.0.7,59.98189725573845,
intelligence,,&&&&&&&&&&&&,images/symbols/symbol_35.png,condition_files/AMP_rep1.csv,left,loyalty.virtue,,,,,,,,,,,,,,,,,,,,,0,2,2,0,0,43,43,43,,,,,,,,,,,,,1026.5409271377139,,,,,AMP_prac,right,0.5979748030658811,,,,,,,,,,,,,,,,,,,,,1,,,right,0.2823601255659014,,,,,,,,,,,,,,1027,2019_Jun_05_1249,mf_amp_cond1,3.0.7,59.98189725573845,
trust,,&&&&&,images/symbols/symbol_30.png,condition_files/AMP_rep1.csv,left,authority.virtue,,,,,,,,,,,,,,,,,,,,,0,2,2,0,0,44,44,44,,,,,,,,,,,,,1027.0410716249608,,,,,AMP_prac,right,0.5979748030658811,,,,,,,,,,,,,,,,,,,,,1,,,right,0.2825378079432994,,,,,,,,,,,,,,1027,2019_Jun_05_1249,mf_amp_cond1,3.0.7,59.98189725573845,
improve,,&&&&&&&,images/symbols/symbol_21.png,condition_files/AMP_rep1.csv,left,care.virtue,,,,,,,,,,,,,,,,,,,,,0,2,2,0,0,45,45,45,,,,,,,,,,,,,1027.4078117487952,,,,,AMP_prac,right,0.5979748030658811,,,,,,,,,,,,,,,,,,,,,1,,,right,0.1492219651117921,,,,,,,,,,,,,,1027,2019_Jun_05_1249,mf_amp_cond1,3.0.7,59.98189725573845,
support,,&&&&&&&,images/symbols/symbol_13.png,condition_files/AMP_rep1.csv,left,loyalty.virtue,,,,,,,,,,,,,,,,,,,,,0,2,2,0,0,46,46,46,,,,,,,,,,,,,1027.8079318287782,,,,,AMP_prac,right,0.5979748030658811,,,,,,,,,,,,,,,,,,,,,1,,,right,0.1823539996985346,,,,,,,,,,,,,,1027,2019_Jun_05_1249,mf_amp_cond1,3.0.7,59.98189725573845,
illegal,,&&&&&&&,images/symbols/symbol_46.png,condition_files/AMP_rep1.csv,right,fairness.vice,,,,,,,,,,,,,,,,,,,,,0,2,2,0,0,47,47,47,,,,,,,,,,,,,1028.2413776624016,,,,,AMP_prac,right,0.5979748030658811,,,,,,,,,,,,,,,,,,,,,1,,,right,0.21558994962833822,,,,,,,,,,,,,,1027,2019_Jun_05_1249,mf_amp_cond1,3.0.7,59.98189725573845,
promises,,&&&&&&&&,images/symbols/symbol_72.png,condition_files/AMP_rep1.csv,left,fairness.virtue,,,,,,,,,,,,,,,,,,,,,0,2,2,0,0,48,48,48,,,,,,,,,,,,,1028.6581097841263,,,,,AMP_prac,right,0.5979748030658811,,,,,,,,,,,,,,,,,,,,,1,,,right,0.1987870754674077,,,,,,,,,,,,,,1027,2019_Jun_05_1249,mf_amp_cond1,3.0.7,59.98189725573845,
groups,,&&&&&&,images/symbols/symbol_68.png,condition_files/AMP_rep1.csv,right,loyalty.vice,,,,,,,,,,,,,,,,,,,,,0,2,2,0,0,49,49,49,,,,,,,,,,,,,1028.991565528093,,,,,AMP_prac,right,0.5979748030658811,,,,,,,,,,,,,,,,,,,,,1,,,right,0.10024089785292745,,,,,,,,,,,,,,1027,2019_Jun_05_1249,mf_amp_cond1,3.0.7,59.98189725573845,
attacks,,&&&&&&&,images/symbols/symbol_39.png,condition_files/AMP_rep1.csv,right,care.vice,,,,,,,,,,,,,,,,,,,,,0,2,2,0,0,50,50,50,,,,,,,,,,,,,1029.5417347275652,,,,,AMP_prac,right,0.5979748030658811,,,,,,,,,,,,,,,,,,,,,1,,,left,0.3316227907780558,,,,,,,,,,,,,,1027,2019_Jun_05_1249,mf_amp_cond1,3.0.7,59.98189725573845,
accused,,&&&&&&&,images/symbols/symbol_80.png,condition_files/AMP_rep1.csv,right,fairness.vice,,,,,,,,,,,,,,,,,,,,,0,2,2,0,0,51,51,51,,,,,,,,,,,,,1030.175227451371,,,,,AMP_prac,right,0.5979748030658811,,,,,,,,,,,,,,,,,,,,,1,,,left,0.41615577577613294,,,,,,,,,,,,,,1027,2019_Jun_05_1249,mf_amp_cond1,3.0.7,59.98189725573845,
powerful,,&&&&&&&&,images/symbols/symbol_23.png,condition_files/AMP_rep1.csv,left,authority.virtue,,,,,,,,,,,,,,,,,,,,,0,2,2,0,0,52,52,52,,,,,,,,,,,,,1031.6756528953556,,,,,AMP_prac,right,0.5979748030658811,,,,,,,,,,,,,,,,,,,,,1,,,right,1.2826417235191911,,,,,,,,,,,,,,1027,2019_Jun_05_1249,mf_amp_cond1,3.0.7,59.98189725573845,
black,,&&&&&,images/symbols/symbol_73.png,condition_files/AMP_rep1.csv,right,loyalty.vice,,,,,,,,,,,,,,,,,,,,,0,2,2,0,0,53,53,53,,,,,,,,,,,,,1032.025728378445,,,,,AMP_prac,right,0.5979748030658811,,,,,,,,,,,,,,,,,,,,,1,,,right,0.13225808623246849,,,,,,,,,,,,,,1027,2019_Jun_05_1249,mf_amp_cond1,3.0.7,59.98189725573845,
honored,,&&&&&&&,images/symbols/symbol_32.png,condition_files/AMP_rep1.csv,left,authority.virtue,,,,,,,,,,,,,,,,,,,,,0,2,2,0,0,54,54,54,,,,,,,,,,,,,1032.7926081465557,,,,,AMP_prac,right,0.5979748030658811,,,,,,,,,,,,,,,,,,,,,1,,,right,0.5491277996916324,,,,,,,,,,,,,,1027,2019_Jun_05_1249,mf_amp_cond1,3.0.7,59.98189725573845,
torture,,&&&&&&&,images/symbols/symbol_52.png,condition_files/AMP_rep1.csv,right,care.vice,,,,,,,,,,,,,,,,,,,,,0,2,2,0,0,55,55,55,,,,,,,,,,,,,1033.526135541033,,,,,AMP_prac,right,0.5979748030658811,,,,,,,,,,,,,,,,,,,,,1,,,right,0.5161259800661355,,,,,,,,,,,,,,1027,2019_Jun_05_1249,mf_amp_cond1,3.0.7,59.98189725573845,
strength,,&&&&&&&&,images/symbols/symbol_34.png,condition_files/AMP_rep1.csv,left,sanctity.virtue,,,,,,,,,,,,,,,,,,,,,0,2,2,0,0,56,56,56,,,,,,,,,,,,,1033.9929186743684,,,,,AMP_prac,right,0.5979748030658811,,,,,,,,,,,,,,,,,,,,,1,,,right,0.24855809286236763,,,,,,,,,,,,,,1027,2019_Jun_05_1249,mf_amp_cond1,3.0.7,59.98189725573845,
strong,,&&&&&&,images/symbols/symbol_59.png,condition_files/AMP_rep1.csv,left,loyalty.virtue,,,,,,,,,,,,,,,,,,,,,0,2,2,0,0,57,57,57,,,,,,,,,,,,,1034.3430175704416,,,,,AMP_prac,right,0.5979748030658811,,,,,,,,,,,,,,,,,,,,,1,,,right,0.13238188670948148,,,,,,,,,,,,,,1027,2019_Jun_05_1249,mf_amp_cond1,3.0.7,59.98189725573845,
victim,,&&&&&&,images/symbols/symbol_22.png,condition_files/AMP_rep1.csv,right,care.vice,,,,,,,,,,,,,,,,,,,,,0,2,2,0,0,58,58,58,,,,,,,,,,,,,1034.7764582722448,,,,,AMP_prac,right,0.5979748030658811,,,,,,,,,,,,,,,,,,,,,1,,,right,0.2157272205222398,,,,,,,,,,,,,,1027,2019_Jun_05_1249,mf_amp_cond1,3.0.7,59.98189725573845,
daizz,,&&&&&,images/symbols/symbol_9.png,condition_files/AMP_rep1.csv,None,nonword,,,,,,,,,,,,,,,,,,,,,0,2,2,0,0,59,59,59,,,,,,,,,,,,,1035.1265834679361,,,,,AMP_prac,right,0.5979748030658811,,,,,,,,,,,,,,,,,,,,,1,,,right,0.1323533421382308,,,,,,,,,,,,,,1027,2019_Jun_05_1249,mf_amp_cond1,3.0.7,59.98189725573845,
suicide,,&&&&&&&,images/symbols/symbol_5.png,condition_files/AMP_rep1.csv,right,care.vice,,,,,,,,,,,,,,,,,,,,,0,2,2,0,0,60,60,60,,,,,,,,,,,,,1035.593359545339,,,,,AMP_prac,right,0.5979748030658811,,,,,,,,,,,,,,,,,,,,,1,,,right,0.24904431449249387,,,,,,,,,,,,,,1027,2019_Jun_05_1249,mf_amp_cond1,3.0.7,59.98189725573845,
care,,&&&&,images/symbols/symbol_70.png,condition_files/AMP_rep1.csv,left,care.virtue,,,,,,,,,,,,,,,,,,,,,0,2,2,0,0,61,61,61,,,,,,,,,,,,,1036.2768731324468,,,,,AMP_prac,right,0.5979748030658811,,,,,,,,,,,,,,,,,,,,,1,,,left,0.46560831111855805,,,,,,,,,,,,,,1027,2019_Jun_05_1249,mf_amp_cond1,3.0.7,59.98189725573845,
died,,&&&&,images/symbols/symbol_47.png,condition_files/AMP_rep1.csv,right,care.vice,,,,,,,,,,,,,,,,,,,,,0,2,2,0,0,62,62,62,,,,,,,,,,,,,1036.5936321630143,,,,,AMP_prac,right,0.5979748030658811,,,,,,,,,,,,,,,,,,,,,1,,,left,0.0989166172221303,,,,,,,,,,,,,,1027,2019_Jun_05_1249,mf_amp_cond1,3.0.7,59.98189725573845,
voter,,&&&&&,images/symbols/symbol_77.png,condition_files/AMP_rep1.csv,right,fairness.vice,,,,,,,,,,,,,,,,,,,,,0,2,2,0,0,63,63,63,,,,,,,,,,,,,1036.8937047433574,,,,,AMP_prac,right,0.5979748030658811,,,,,,,,,,,,,,,,,,,,,1,,,left,0.08231131080538034,,,,,,,,,,,,,,1027,2019_Jun_05_1249,mf_amp_cond1,3.0.7,59.98189725573845,
restore,,&&&&&&&,images/symbols/symbol_19.png,condition_files/AMP_rep1.csv,left,care.virtue,,,,,,,,,,,,,,,,,,,,,0,2,2,0,0,64,64,64,,,,,,,,,,,,,1037.1437654409092,,,,,AMP_prac,right,0.5979748030658811,,,,,,,,,,,,,,,,,,,,,1,,,right,0.03226831741631031,,,,,,,,,,,,,,1027,2019_Jun_05_1249,mf_amp_cond1,3.0.7,59.98189725573845,
scandal,,&&&&&&&,images/symbols/symbol_43.png,condition_files/AMP_rep1.csv,right,sanctity.vice,,,,,,,,,,,,,,,,,,,,,0,2,2,0,0,65,65,65,,,,,,,,,,,,,1037.4938729966525,,,,,AMP_prac,right,0.5979748030658811,,,,,,,,,,,,,,,,,,,,,1,,,right,0.11694530886597931,,,,,,,,,,,,,,1027,2019_Jun_05_1249,mf_amp_cond1,3.0.7,59.98189725573845,
arrests,,&&&&&&&,images/symbols/symbol_25.png,condition_files/AMP_rep1.csv,right,authority.vice,,,,,,,,,,,,,,,,,,,,,0,2,2,0,0,66,66,66,,,,,,,,,,,,,1037.8439699683804,,,,,AMP_prac,right,0.5979748030658811,,,,,,,,,,,,,,,,,,,,,1,,,right,0.13154799723997712,,,,,,,,,,,,,,1027,2019_Jun_05_1249,mf_amp_cond1,3.0.7,59.98189725573845,
party,,&&&&&,images/symbols/symbol_49.png,condition_files/AMP_rep1.csv,left,loyalty.virtue,,,,,,,,,,,,,,,,,,,,,0,2,2,0,0,67,67,67,,,,,,,,,,,,,1038.1607241882011,,,,,AMP_prac,right,0.5979748030658811,,,,,,,,,,,,,,,,,,,,,1,,,right,0.09945126855745912,,,,,,,,,,,,,,1027,2019_Jun_05_1249,mf_amp_cond1,3.0.7,59.98189725573845,
fear,,&&&&,images/symbols/symbol_24.png,condition_files/AMP_rep1.csv,right,sanctity.vice,,,,,,,,,,,,,,,,,,,,,0,2,2,0,0,68,68,68,,,,,,,,,,,,,1038.3941895219032,,,,,AMP_prac,right,0.5979748030658811,,,,,,,,,,,,,,,,,,,,,1,,,right,0.015627731336280704,,,,,,,,,,,,,,1027,2019_Jun_05_1249,mf_amp_cond1,3.0.7,59.98189725573845,
clean,,&&&&&,images/symbols/symbol_62.png,condition_files/AMP_rep1.csv,left,sanctity.virtue,,,,,,,,,,,,,,,,,,,,,0,2,2,0,0,69,69,69,,,,,,,,,,,,,1038.6608481490985,,,,,AMP_prac,right,0.5979748030658811,,,,,,,,,,,,,,,,,,,,,1,,,right,0.033575599547475576,,,,,,,,,,,,,,1027,2019_Jun_05_1249,mf_amp_cond1,3.0.7,59.98189725573845,
integrity,,&&&&&&&&&,images/symbols/symbol_41.png,condition_files/AMP_rep1.csv,left,fairness.virtue,,,,,,,,,,,,,,,,,,,,,0,2,2,0,0,70,70,70,,,,,,,,,,,,,1038.9774602868129,,,,,AMP_prac,right,0.5979748030658811,,,,,,,,,,,,,,,,,,,,,1,,,right,0.09885279252193868,,,,,,,,,,,,,,1027,2019_Jun_05_1249,mf_amp_cond1,3.0.7,59.98189725573845,
treas,,&&&&&,images/symbols/symbol_71.png,condition_files/AMP_rep1.csv,None,nonword,,,,,,,,,,,,,,,,,,,,,0,2,2,0,0,71,71,71,,,,,,,,,,,,,1039.227656651754,,,,,AMP_prac,right,0.5979748030658811,,,,,,,,,,,,,,,,,,,,,1,,,right,0.03228050493635237,,,,,,,,,,,,,,1027,2019_Jun_05_1249,mf_amp_cond1,3.0.7,59.98189725573845,
rhailled,,&&&&&&&&,images/symbols/symbol_82.png,condition_files/AMP_rep1.csv,None,nonword,,,,,,,,,,,,,,,,,,,,,0,2,2,0,0,72,72,72,,,,,,,,,,,,,1039.511068760883,,,,,AMP_prac,right,0.5979748030658811,,,,,,,,,,,,,,,,,,,,,1,,,right,0.06591126951389015,,,,,,,,,,,,,,1027,2019_Jun_05_1249,mf_amp_cond1,3.0.7,59.98189725573845,
roossed,,&&&&&&&,images/symbols/symbol_69.png,condition_files/AMP_rep1.csv,None,nonword,,,,,,,,,,,,,,,,,,,,,0,2,2,0,0,73,73,73,,,,,,,,,,,,,1039.794483115198,,,,,AMP_prac,right,0.5979748030658811,,,,,,,,,,,,,,,,,,,,,1,,,right,0.0655488483607769,,,,,,,,,,,,,,1027,2019_Jun_05_1249,mf_amp_cond1,3.0.7,59.98189725573845,
unpleasant,,&&&&&&&&&,images/symbols/symbol_64.png,condition_files/AMP_rep1.csv,left,control,,,,,,,,,,,,,,,,,,,,,0,2,2,0,0,74,74,74,,,,,,,,,,,,,1040.127913200995,,,,,AMP_prac,right,0.5979748030658811,,,,,,,,,,,,,,,,,,,,,1,,,right,0.11549530294723809,,,,,,,,,,,,,,1027,2019_Jun_05_1249,mf_amp_cond1,3.0.7,59.98189725573845,
terrorists,,&&&&&&&&&&,images/symbols/symbol_60.png,condition_files/AMP_rep1.csv,right,fairness.vice,,,,,,,,,,,,,,,,,,,,,0,2,2,0,0,75,75,75,,,,,,,,,,,,,1040.4613493806683,,,,,AMP_prac,right,0.5979748030658811,,,,,,,,,,,,,,,,,,,,,1,,,right,0.11570569989271462,,,,,,,,,,,,,,1027,2019_Jun_05_1249,mf_amp_cond1,3.0.7,59.98189725573845,
praise,,&&&&&&,images/symbols/symbol_18.png,condition_files/AMP_rep1.csv,left,authority.virtue,,,,,,,,,,,,,,,,,,,,,0,2,2,0,0,76,76,76,,,,,,,,,,,,,1040.9448064558674,,,,,AMP_prac,right,0.5979748030658811,,,,,,,,,,,,,,,,,,,,,1,,,right,0.2658715636935085,,,,,,,,,,,,,,1027,2019_Jun_05_1249,mf_amp_cond1,3.0.7,59.98189725573845,
forced,,&&&&&&,images/symbols/symbol_11.png,condition_files/AMP_rep1.csv,right,fairness.vice,,,,,,,,,,,,,,,,,,,,,0,2,2,0,0,77,77,77,,,,,,,,,,,,,1041.46160371718,,,,,AMP_prac,right,0.5979748030658811,,,,,,,,,,,,,,,,,,,,,1,,,right,0.29900103248655796,,,,,,,,,,,,,,1027,2019_Jun_05_1249,mf_amp_cond1,3.0.7,59.98189725573845,
sexual,,&&&&&&,images/symbols/symbol_56.png,condition_files/AMP_rep1.csv,right,sanctity.vice,,,,,,,,,,,,,,,,,,,,,0,2,2,0,0,78,78,78,,,,,,,,,,,,,1041.8950485885143,,,,,AMP_prac,right,0.5979748030658811,,,,,,,,,,,,,,,,,,,,,1,,,right,0.2156027788296342,,,,,,,,,,,,,,1027,2019_Jun_05_1249,mf_amp_cond1,3.0.7,59.98189725573845,
agreement,,&&&&&&&&&,images/symbols/symbol_50.png,condition_files/AMP_rep1.csv,left,fairness.virtue,,,,,,,,,,,,,,,,,,,,,0,2,2,0,0,79,79,79,,,,,,,,,,,,,1042.2451410701033,,,,,AMP_prac,right,0.5979748030658811,,,,,,,,,,,,,,,,,,,,,1,,,right,0.13227540533989668,,,,,,,,,,,,,,1027,2019_Jun_05_1249,mf_amp_cond1,3.0.7,59.98189725573845,
violations,,&&&&&&&&&&,images/symbols/symbol_2.png,condition_files/AMP_rep1.csv,right,sanctity.vice,,,,,,,,,,,,,,,,,,,,,0,2,2,0,0,80,80,80,,,,,,,,,,,,,1042.6619132824708,,,,,AMP_prac,right,0.5979748030658811,,,,,,,,,,,,,,,,,,,,,1,,,right,0.19891472486779094,,,,,,,,,,,,,,1027,2019_Jun_05_1249,mf_amp_cond1,3.0.7,59.98189725573845,
critics,,&&&&&&&,images/symbols/symbol_36.png,condition_files/AMP_rep1.csv,right,loyalty.vice,,,,,,,,,,,,,,,,,,,,,0,2,2,0,0,81,81,81,,,,,,,,,,,,,1042.9620233881287,,,,,AMP_prac,right,0.5979748030658811,,,,,,,,,,,,,,,,,,,,,1,,,right,0.08213940146379173,,,,,,,,,,,,,,1027,2019_Jun_05_1249,mf_amp_cond1,3.0.7,59.98189725573845,
,,,,condition_files/AMP_rep1.csv,,,,,,,,,,,,,,,,,,,,,,,0,2,2,0,,,,,,,,,,,,,,,,,,,,,,,,,,,,,,,,,,,,,,,,,,,,,,,,,,right,2.817742859944701,,,,,,,,,,,,1027,2019_Jun_05_1249,mf_amp_cond1,3.0.7,59.98189725573845,
police,,&&&&&&,images/symbols/symbol_29.png,condition_files/AMP_rep4.csv,right,authority.vice,,,,,,,,,,,,,,,,,,,,,0,3,3,3,0,0,0,0,,,,,,,,,,,,,1046.2630276796408,,,,,AMP_prac,right,0.5979748030658811,,,,,,,,,,,,,,,,,,,,,1,,,right,0.23192776995711029,,,,,,,,,,,,,,1027,2019_Jun_05_1249,mf_amp_cond1,3.0.7,59.98189725573845,
values,,&&&&&&,images/symbols/symbol_40.png,condition_files/AMP_rep4.csv,left,sanctity.virtue,,,,,,,,,,,,,,,,,,,,,0,3,3,3,0,1,1,1,,,,,,,,,,,,,1046.7130377665162,,,,,AMP_prac,right,0.5979748030658811,,,,,,,,,,,,,,,,,,,,,1,,,right,0.23202591203153133,,,,,,,,,,,,,,1027,2019_Jun_05_1249,mf_amp_cond1,3.0.7,59.98189725573845,
progress,,&&&&&&&&,images/symbols/symbol_44.png,condition_files/AMP_rep4.csv,left,authority.virtue,,,,,,,,,,,,,,,,,,,,,0,3,3,3,0,2,2,2,,,,,,,,,,,,,1047.0298060982022,,,,,AMP_prac,right,0.5979748030658811,,,,,,,,,,,,,,,,,,,,,1,,,right,0.0989756309427321,,,,,,,,,,,,,,1027,2019_Jun_05_1249,mf_amp_cond1,3.0.7,59.98189725573845,
good,,&&&&,images/symbols/symbol_38.png,condition_files/AMP_rep4.csv,left,care.virtue,,,,,,,,,,,,,,,,,,,,,0,3,3,3,0,3,3,3,,,,,,,,,,,,,1048.1133990332019,,,,,AMP_prac,right,0.5979748030658811,,,,,,,,,,,,,,,,,,,,,1,,,right,0.8659622010309249,,,,,,,,,,,,,,1027,2019_Jun_05_1249,mf_amp_cond1,3.0.7,59.98189725573845,
feuld,,&&&&&,images/symbols/symbol_31.png,condition_files/AMP_rep4.csv,None,nonword,,,,,,,,,,,,,,,,,,,,,0,3,3,3,0,4,4,4,,,,,,,,,,,,,1048.4968756404705,,,,,AMP_prac,right,0.5979748030658811,,,,,,,,,,,,,,,,,,,,,1,,,right,0.15032847225666046,,,,,,,,,,,,,,1027,2019_Jun_05_1249,mf_amp_cond1,3.0.7,59.98189725573845,
freedom,,&&&&&&&,images/symbols/symbol_15.png,condition_files/AMP_rep4.csv,left,sanctity.virtue,,,,,,,,,,,,,,,,,,,,,0,3,3,3,0,5,5,5,,,,,,,,,,,,,1048.8469206544105,,,,,AMP_prac,right,0.5979748030658811,,,,,,,,,,,,,,,,,,,,,1,,,right,0.1318174076732248,,,,,,,,,,,,,,1027,2019_Jun_05_1249,mf_amp_cond1,3.0.7,59.98189725573845,
protect,,&&&&&&&,images/symbols/symbol_81.png,condition_files/AMP_rep4.csv,left,fairness.virtue,,,,,,,,,,,,,,,,,,,,,0,3,3,3,0,6,6,6,,,,,,,,,,,,,1049.3637275374494,,,,,AMP_prac,right,0.5979748030658811,,,,,,,,,,,,,,,,,,,,,1,,,right,0.29910687217488885,,,,,,,,,,,,,,1027,2019_Jun_05_1249,mf_amp_cond1,3.0.7,59.98189725573845,
rebels,,&&&&&&,images/symbols/symbol_26.png,condition_files/AMP_rep4.csv,right,authority.vice,,,,,,,,,,,,,,,,,,,,,0,3,3,3,0,7,7,7,,,,,,,,,,,,,1049.697176546324,,,,,AMP_prac,right,0.5979748030658811,,,,,,,,,,,,,,,,,,,,,1,,,right,0.11561910365708172,,,,,,,,,,,,,,1027,2019_Jun_05_1249,mf_amp_cond1,3.0.7,59.98189725573845,
men,,&&&,images/symbols/symbol_6.png,condition_files/AMP_rep4.csv,right,loyalty.vice,,,,,,,,,,,,,,,,,,,,,0,3,3,3,0,8,8,8,,,,,,,,,,,,,1050.1139275908936,,,,,AMP_prac,right,0.5979748030658811,,,,,,,,,,,,,,,,,,,,,1,,,right,0.19899811362847686,,,,,,,,,,,,,,1027,2019_Jun_05_1249,mf_amp_cond1,3.0.7,59.98189725573845,
peaceful,,&&&&&&&&,images/symbols/symbol_54.png,condition_files/AMP_rep4.csv,left,authority.virtue,,,,,,,,,,,,,,,,,,,,,0,3,3,3,0,9,9,9,,,,,,,,,,,,,1050.7140907123685,,,,,AMP_prac,right,0.5979748030658811,,,,,,,,,,,,,,,,,,,,,1,,,left,0.36701113800518215,,,,,,,,,,,,,,1027,2019_Jun_05_1249,mf_amp_cond1,3.0.7,59.98189725573845,
gun,,&&&,images/symbols/symbol_12.png,condition_files/AMP_rep4.csv,right,authority.vice,,,,,,,,,,,,,,,,,,,,,0,3,3,3,0,10,10,10,,,,,,,,,,,,,1051.0808369300794,,,,,AMP_prac,right,0.5979748030658811,,,,,,,,,,,,,,,,,,,,,1,,,right,0.14839577302336693,,,,,,,,,,,,,,1027,2019_Jun_05_1249,mf_amp_cond1,3.0.7,59.98189725573845,
growth,,&&&&&&,images/symbols/symbol_74.png,condition_files/AMP_rep4.csv,left,care.virtue,,,,,,,,,,,,,,,,,,,,,0,3,3,3,0,11,11,11,,,,,,,,,,,,,1051.5476466836408,,,,,AMP_prac,right,0.5979748030658811,,,,,,,,,,,,,,,,,,,,,1,,,left,0.23363692266866565,,,,,,,,,,,,,,1027,2019_Jun_05_1249,mf_amp_cond1,3.0.7,59.98189725573845,
corruption,,&&&&&&&&&&,images/symbols/symbol_37.png,condition_files/AMP_rep4.csv,right,sanctity.vice,,,,,,,,,,,,,,,,,,,,,0,3,3,3,0,12,12,12,,,,,,,,,,,,,1054.0483206908684,,,,,AMP_prac,right,0.5979748030658811,,,,,,,,,,,,,,,,,,,,,1,,,right,2.2822533233556896,,,,,,,,,,,,,,1027,2019_Jun_05_1249,mf_amp_cond1,3.0.7,59.98189725573845,
help,,&&&&,images/symbols/symbol_53.png,condition_files/AMP_rep4.csv,left,care.virtue,,,,,,,,,,,,,,,,,,,,,0,3,3,3,0,13,13,13,,,,,,,,,,,,,1054.41509160446,,,,,AMP_prac,right,0.5979748030658811,,,,,,,,,,,,,,,,,,,,,1,,,right,0.14897115668281913,,,,,,,,,,,,,,1027,2019_Jun_05_1249,mf_amp_cond1,3.0.7,59.98189725573845,
charges,,&&&&&&&,images/symbols/symbol_1.png,condition_files/AMP_rep4.csv,right,fairness.vice,,,,,,,,,,,,,,,,,,,,,0,3,3,3,0,14,14,14,,,,,,,,,,,,,1054.8485188358463,,,,,AMP_prac,right,0.5979748030658811,,,,,,,,,,,,,,,,,,,,,1,,,right,0.20028519025072455,,,,,,,,,,,,,,1027,2019_Jun_05_1249,mf_amp_cond1,3.0.7,59.98189725573845,
faith,,&&&&&,images/symbols/symbol_42.png,condition_files/AMP_rep4.csv,left,sanctity.virtue,,,,,,,,,,,,,,,,,,,,,0,3,3,3,0,15,15,15,,,,,,,,,,,,,1055.2319842176512,,,,,AMP_prac,right,0.5979748030658811,,,,,,,,,,,,,,,,,,,,,1,,,right,0.16526952758431435,,,,,,,,,,,,,,1027,2019_Jun_05_1249,mf_amp_cond1,3.0.7,59.98189725573845,
promote,,&&&&&&&,images/symbols/symbol_79.png,condition_files/AMP_rep4.csv,left,sanctity.virtue,,,,,,,,,,,,,,,,,,,,,0,3,3,3,0,16,16,16,,,,,,,,,,,,,1055.6153889822308,,,,,AMP_prac,right,0.5979748030658811,,,,,,,,,,,,,,,,,,,,,1,,,right,0.16545715276151896,,,,,,,,,,,,,,1027,2019_Jun_05_1249,mf_amp_cond1,3.0.7,59.98189725573845,
officers,,&&&&&&&&,images/symbols/symbol_63.png,condition_files/AMP_rep4.csv,right,authority.vice,,,,,,,,,,,,,,,,,,,,,0,3,3,3,0,17,17,17,,,,,,,,,,,,,1056.0488691334613,,,,,AMP_prac,right,0.5979748030658811,,,,,,,,,,,,,,,,,,,,,1,,,right,0.21553959557786584,,,,,,,,,,,,,,1027,2019_Jun_05_1249,mf_amp_cond1,3.0.7,59.98189725573845,
love,,&&&&,images/symbols/symbol_8.png,condition_files/AMP_rep4.csv,left,loyalty.virtue,,,,,,,,,,,,,,,,,,,,,0,3,3,3,0,18,18,18,,,,,,,,,,,,,1056.3822706746869,,,,,AMP_prac,right,0.5979748030658811,,,,,,,,,,,,,,,,,,,,,1,,,right,0.1157541295979172,,,,,,,,,,,,,,1027,2019_Jun_05_1249,mf_amp_cond1,3.0.7,59.98189725573845,
civilians,,&&&&&&&&&,images/symbols/symbol_66.png,condition_files/AMP_rep4.csv,right,care.vice,,,,,,,,,,,,,,,,,,,,,0,3,3,3,0,19,19,19,,,,,,,,,,,,,1056.6823599329218,,,,,AMP_prac,right,0.5979748030658811,,,,,,,,,,,,,,,,,,,,,1,,,right,0.08244569529779255,,,,,,,,,,,,,,1027,2019_Jun_05_1249,mf_amp_cond1,3.0.7,59.98189725573845,
gnoozz,,&&&&&&,images/symbols/symbol_20.png,condition_files/AMP_rep4.csv,None,nonword,,,,,,,,,,,,,,,,,,,,,0,3,3,3,0,20,20,20,,,,,,,,,,,,,1056.915760800708,,,,,AMP_prac,right,0.5979748030658811,,,,,,,,,,,,,,,,,,,,,1,,,right,0.016201190650463104,,,,,,,,,,,,,,1027,2019_Jun_05_1249,mf_amp_cond1,3.0.7,59.98189725573845,
racist,,&&&&&&,images/symbols/symbol_75.png,condition_files/AMP_rep4.csv,right,sanctity.vice,,,,,,,,,,,,,,,,,,,,,0,3,3,3,0,21,21,21,,,,,,,,,,,,,1057.249169718707,,,,,AMP_prac,right,0.5979748030658811,,,,,,,,,,,,,,,,,,,,,1,,,left,0.11563032912090421,,,,,,,,,,,,,,1027,2019_Jun_05_1249,mf_amp_cond1,3.0.7,59.98189725573845,
commitment,,&&&&&&&&&&,images/symbols/symbol_65.png,condition_files/AMP_rep4.csv,left,sanctity.virtue,,,,,,,,,,,,,,,,,,,,,0,3,3,3,0,22,22,22,,,,,,,,,,,,,1057.5659293907229,,,,,AMP_prac,right,0.5979748030658811,,,,,,,,,,,,,,,,,,,,,1,,,right,0.09897466865368187,,,,,,,,,,,,,,1027,2019_Jun_05_1249,mf_amp_cond1,3.0.7,59.98189725573845,
failure,,&&&&&&&,images/symbols/symbol_3.png,condition_files/AMP_rep4.csv,right,loyalty.vice,,,,,,,,,,,,,,,,,,,,,0,3,3,3,0,23,23,23,,,,,,,,,,,,,1057.8325543415267,,,,,AMP_prac,right,0.5979748030658811,,,,,,,,,,,,,,,,,,,,,1,,,left,0.048835457069799304,,,,,,,,,,,,,,1027,2019_Jun_05_1249,mf_amp_cond1,3.0.7,59.98189725573845,
crime,,&&&&&,images/symbols/symbol_14.png,condition_files/AMP_rep4.csv,right,fairness.vice,,,,,,,,,,,,,,,,,,,,,0,3,3,3,0,24,24,24,,,,,,,,,,,,,1058.14941728767,,,,,AMP_prac,right,0.5979748030658811,,,,,,,,,,,,,,,,,,,,,1,,,left,0.09897659299895167,,,,,,,,,,,,,,1027,2019_Jun_05_1249,mf_amp_cond1,3.0.7,59.98189725573845,
cande,,&&&&&,images/symbols/symbol_10.png,condition_files/AMP_rep4.csv,None,nonword,,,,,,,,,,,,,,,,,,,,,0,3,3,3,0,25,25,25,,,,,,,,,,,,,1058.416151606245,,,,,AMP_prac,right,0.5979748030658811,,,,,,,,,,,,,,,,,,,,,1,,,left,0.04868022562004626,,,,,,,,,,,,,,1027,2019_Jun_05_1249,mf_amp_cond1,3.0.7,59.98189725573845,
abuse,,&&&&&,images/symbols/symbol_48.png,condition_files/AMP_rep4.csv,right,sanctity.vice,,,,,,,,,,,,,,,,,,,,,0,3,3,3,0,26,26,26,,,,,,,,,,,,,1058.7162280355114,,,,,AMP_prac,right,0.5979748030658811,,,,,,,,,,,,,,,,,,,,,1,,,right,0.08229495375417173,,,,,,,,,,,,,,1027,2019_Jun_05_1249,mf_amp_cond1,3.0.7,59.98189725573845,
victims,,&&&&&&&,images/symbols/symbol_27.png,condition_files/AMP_rep4.csv,right,care.vice,,,,,,,,,,,,,,,,,,,,,0,3,3,3,0,27,27,27,,,,,,,,,,,,,1059.0830072879326,,,,,AMP_prac,right,0.5979748030658811,,,,,,,,,,,,,,,,,,,,,1,,,left,0.1489422912709415,,,,,,,,,,,,,,1027,2019_Jun_05_1249,mf_amp_cond1,3.0.7,59.98189725573845,
plonx,,&&&&&,images/symbols/symbol_55.png,condition_files/AMP_rep4.csv,None,nonword,,,,,,,,,,,,,,,,,,,,,0,3,3,3,0,28,28,28,,,,,,,,,,,,,1059.4331145228352,,,,,AMP_prac,right,0.5979748030658811,,,,,,,,,,,,,,,,,,,,,1,,,right,0.13226546300575137,,,,,,,,,,,,,,1027,2019_Jun_05_1249,mf_amp_cond1,3.0.7,59.98189725573845,
ban,,&&&,images/symbols/symbol_57.png,condition_files/AMP_rep4.csv,right,loyalty.vice,,,,,,,,,,,,,,,,,,,,,0,3,3,3,0,29,29,29,,,,,,,,,,,,,1059.7665234408341,,,,,AMP_prac,right,0.5979748030658811,,,,,,,,,,,,,,,,,,,,,1,,,left,0.1157342444639653,,,,,,,,,,,,,,1027,2019_Jun_05_1249,mf_amp_cond1,3.0.7,59.98189725573845,
celebrated,,&&&&&&&&&&,images/symbols/symbol_78.png,condition_files/AMP_rep4.csv,left,authority.virtue,,,,,,,,,,,,,,,,,,,,,0,3,3,3,0,30,30,30,,,,,,,,,,,,,1060.0832667557988,,,,,AMP_prac,right,0.5979748030658811,,,,,,,,,,,,,,,,,,,,,1,,,right,0.0988261722959578,,,,,,,,,,,,,,1027,2019_Jun_05_1249,mf_amp_cond1,3.0.7,59.98189725573845,
interests,,&&&&&&&&&,images/symbols/symbol_33.png,condition_files/AMP_rep4.csv,left,fairness.virtue,,,,,,,,,,,,,,,,,,,,,0,3,3,3,0,31,31,31,,,,,,,,,,,,,1060.4166974830441,,,,,AMP_prac,right,0.5979748030658811,,,,,,,,,,,,,,,,,,,,,1,,,left,0.11581442621536553,,,,,,,,,,,,,,1027,2019_Jun_05_1249,mf_amp_cond1,3.0.7,59.98189725573845,
rhoalled,,&&&&&&&&,images/symbols/symbol_4.png,condition_files/AMP_rep4.csv,None,nonword,,,,,,,,,,,,,,,,,,,,,0,3,3,3,0,32,32,32,,,,,,,,,,,,,1060.800128547242,,,,,AMP_prac,right,0.5979748030658811,,,,,,,,,,,,,,,,,,,,,1,,,left,0.16557229356840253,,,,,,,,,,,,,,1027,2019_Jun_05_1249,mf_amp_cond1,3.0.7,59.98189725573845,
pleasant,,&&&&&&&,images/symbols/symbol_67.png,condition_files/AMP_rep4.csv,right,control,,,,,,,,,,,,,,,,,,,,,0,3,3,3,0,33,33,33,,,,,,,,,,,,,1061.2836160913575,,,,,AMP_prac,right,0.5979748030658811,,,,,,,,,,,,,,,,,,,,,1,,,left,0.2654603919945657,,,,,,,,,,,,,,1027,2019_Jun_05_1249,mf_amp_cond1,3.0.7,59.98189725573845,
credit,,&&&&&&,images/symbols/symbol_58.png,condition_files/AMP_rep4.csv,left,fairness.virtue,,,,,,,,,,,,,,,,,,,,,0,3,3,3,0,34,34,34,,,,,,,,,,,,,1061.6337015170138,,,,,AMP_prac,right,0.5979748030658811,,,,,,,,,,,,,,,,,,,,,1,,,left,0.13227925403043628,,,,,,,,,,,,,,1027,2019_Jun_05_1249,mf_amp_cond1,3.0.7,59.98189725573845,
fourz,,&&&&&,images/symbols/symbol_7.png,condition_files/AMP_rep4.csv,None,nonword,,,,,,,,,,,,,,,,,,,,,0,3,3,3,0,35,35,35,,,,,,,,,,,,,1062.017142202938,,,,,AMP_prac,right,0.5979748030658811,,,,,,,,,,,,,,,,,,,,,1,,,left,0.16560115898028016,,,,,,,,,,,,,,1027,2019_Jun_05_1249,mf_amp_cond1,3.0.7,59.98189725573845,
promised,,&&&&&&&&,images/symbols/symbol_16.png,condition_files/AMP_rep4.csv,left,loyalty.virtue,,,,,,,,,,,,,,,,,,,,,0,3,3,3,0,36,36,36,,,,,,,,,,,,,1062.3838848925661,,,,,AMP_prac,right,0.5979748030658811,,,,,,,,,,,,,,,,,,,,,1,,,left,0.14901156816631556,,,,,,,,,,,,,,1027,2019_Jun_05_1249,mf_amp_cond1,3.0.7,59.98189725573845,
sharing,,&&&&&&&,images/symbols/symbol_45.png,condition_files/AMP_rep4.csv,left,loyalty.virtue,,,,,,,,,,,,,,,,,,,,,0,3,3,3,0,37,37,37,,,,,,,,,,,,,1062.7506509951781,,,,,AMP_prac,right,0.5979748030658811,,,,,,,,,,,,,,,,,,,,,1,,,right,0.1488204151391983,,,,,,,,,,,,,,1027,2019_Jun_05_1249,mf_amp_cond1,3.0.7,59.98189725573845,
blamed,,&&&&&&,images/symbols/symbol_51.png,condition_files/AMP_rep4.csv,right,loyalty.vice,,,,,,,,,,,,,,,,,,,,,0,3,3,3,0,38,38,38,,,,,,,,,,,,,1063.1340945675038,,,,,AMP_prac,right,0.5979748030658811,,,,,,,,,,,,,,,,,,,,,1,,,left,0.16604536562226713,,,,,,,,,,,,,,1027,2019_Jun_05_1249,mf_amp_cond1,3.0.7,59.98189725573845,
fair,,&&&&,images/symbols/symbol_17.png,condition_files/AMP_rep4.csv,left,fairness.virtue,,,,,,,,,,,,,,,,,,,,,0,3,3,3,0,39,39,39,,,,,,,,,,,,,1063.6008873225655,,,,,AMP_prac,right,0.5979748030658811,,,,,,,,,,,,,,,,,,,,,1,,,left,0.24894905858673155,,,,,,,,,,,,,,1027,2019_Jun_05_1249,mf_amp_cond1,3.0.7,59.98189725573845,
increase,,&&&&&&&&,images/symbols/symbol_28.png,condition_files/AMP_rep4.csv,left,care.virtue,,,,,,,,,,,,,,,,,,,,,0,3,3,3,0,40,40,40,,,,,,,,,,,,,1063.9676527837291,,,,,AMP_prac,right,0.5979748030658811,,,,,,,,,,,,,,,,,,,,,1,,,left,0.1490099646616727,,,,,,,,,,,,,,1027,2019_Jun_05_1249,mf_amp_cond1,3.0.7,59.98189725573845,
refused,,&&&&&&&,images/symbols/symbol_61.png,condition_files/AMP_rep4.csv,right,authority.vice,,,,,,,,,,,,,,,,,,,,,0,3,3,3,0,41,41,41,,,,,,,,,,,,,1064.484448762145,,,,,AMP_prac,right,0.5979748030658811,,,,,,,,,,,,,,,,,,,,,1,,,right,0.2990388781763613,,,,,,,,,,,,,,1027,2019_Jun_05_1249,mf_amp_cond1,3.0.7,59.98189725573845,
rejected,,&&&&&&&&,images/symbols/symbol_76.png,condition_files/AMP_rep4.csv,right,authority.vice,,,,,,,,,,,,,,,,,,,,,0,3,3,3,0,42,42,42,,,,,,,,,,,,,1064.967917062575,,,,,AMP_prac,right,0.5979748030658811,,,,,,,,,,,,,,,,,,,,,1,,,right,0.2659899117425084,,,,,,,,,,,,,,1027,2019_Jun_05_1249,mf_amp_cond1,3.0.7,59.98189725573845,
intelligence,,&&&&&&&&&&&&,images/symbols/symbol_35.png,condition_files/AMP_rep4.csv,left,loyalty.virtue,,,,,,,,,,,,,,,,,,,,,0,3,3,3,0,43,43,43,,,,,,,,,,,,,1065.2846712823957,,,,,AMP_prac,right,0.5979748030658811,,,,,,,,,,,,,,,,,,,,,1,,,right,0.0989518971182406,,,,,,,,,,,,,,1027,2019_Jun_05_1249,mf_amp_cond1,3.0.7,59.98189725573845,
trust,,&&&&&,images/symbols/symbol_30.png,condition_files/AMP_rep4.csv,left,authority.virtue,,,,,,,,,,,,,,,,,,,,,0,3,3,3,0,44,44,44,,,,,,,,,,,,,1065.8014816932846,,,,,AMP_prac,right,0.5979748030658811,,,,,,,,,,,,,,,,,,,,,1,,,right,0.29918769537471235,,,,,,,,,,,,,,1027,2019_Jun_05_1249,mf_amp_cond1,3.0.7,59.98189725573845,
improve,,&&&&&&&,images/symbols/symbol_21.png,condition_files/AMP_rep4.csv,left,care.virtue,,,,,,,,,,,,,,,,,,,,,0,3,3,3,0,45,45,45,,,,,,,,,,,,,1066.3016232943628,,,,,AMP_prac,right,0.5979748030658811,,,,,,,,,,,,,,,,,,,,,1,,,right,0.2825147158000618,,,,,,,,,,,,,,1027,2019_Jun_05_1249,mf_amp_cond1,3.0.7,59.98189725573845,
