words,masks,symbols,conditionfile,corr_ans,category,mask,LDT_trials_cond2.thisRepN,LDT_trials_cond2.thisTrialN,LDT_trials_cond2.thisN,LDT_trials_cond2.thisIndex,logo_trials.thisRepN,logo_trials.thisTrialN,logo_trials.thisN,logo_trials.thisIndex,AMP_pracs.thisRepN,AMP_pracs.thisTrialN,AMP_pracs.thisN,AMP_pracs.thisIndex,trials_loop.thisRepN,trials_loop.thisTrialN,trials_loop.thisN,trials_loop.thisIndex,AMP_trials.thisRepN,AMP_trials.thisTrialN,AMP_trials.thisN,AMP_trials.thisIndex,memtask_trials.thisRepN,memtask_trials.thisTrialN,memtask_trials.thisN,memtask_trials.thisIndex,LDT_cond1.thisRepN,LDT_cond1.thisTrialN,LDT_cond1.thisN,LDT_cond1.thisIndex,LDT_pracs.thisRepN,LDT_pracs.thisTrialN,LDT_pracs.thisN,LDT_pracs.thisIndex,LDT_trials.thisRepN,LDT_trials.thisTrialN,LDT_trials.thisN,LDT_trials.thisIndex,begin_key.keys,begin_key.rt,key_resp_instr.keys,key_resp_instr.rt,exp_time,resp_sym_rate.keys,resp_sym_rate.rt,sym_resp_1.keys,sym_resp_1.rt,sym_resp_2.keys,sym_resp_2.rt,sym_resp_trial.keys,sym_resp_trial.rt,symbol_index,resp_AMP_ready1.keys,resp_AMP_ready1.rt,resp_AMP.keys,resp_AMP.rt,task,keypress,RT,prime_dur,resp_AMP_ready.keys,resp_AMP_ready.rt,resp_AMP_trials.keys,resp_AMP_trials.rt,rest_key_resp.keys,rest_key_resp.rt,AMP_nonword_rating.response,AMP_nonword_rating.rt,AMP_word_rating.response,AMP_word_rating.rt,AMP_random_rating.response,AMP_random_rating.rt,key_resp_instr_memtask.keys,key_resp_instr_memtask.rt,resp_memtask.keys,resp_memtask.corr,resp_memtask.rt,corr,key_resp_LDT_instr.keys,key_resp_LDT_instr.rt,resp_LDT_prac.keys,resp_LDT_prac.rt,resp_LDT_ready.keys,resp_LDT_ready.rt,resp_LDT_trial.keys,resp_LDT_trial.rt,LDT_rating.response,LDT_rating.rt,participant ID,date,expName,psychopyVersion,frameRate,
,,,,,,,,,,,,,,,,,,,,,,,,,,,,,,,,,,,,,,,,,,,right,600.8245138856582,,,,,,,,,,,,,,,,,,,,,,,,,,,,,,,,,,,,,,,,,,,,,,,,,1028,2019_Jun_06_1656,mf_amp_cond1,3.0.7,59.98020501303595,
,,,,,,,,,,,,,,,,,,,,,,,,,,,,,,,,,,,,,,,,,,,,,right,9.419374785851687,,,,,,,,,,,,,,,,,,,,,,,,,,,,,,,,,,,,,,,,,,,,,,,1028,2019_Jun_06_1656,mf_amp_cond1,3.0.7,59.98020501303595,
,,,,,,,,,,,,,,,,,,,,,,,,,,,,,,,,,,,,,,,,,,,,,,,648.2912908175495,right,2.1674538855440915,,,,,,,,,,,,,,,,,,,,,,,,,,,,,,,,,,,,,,,,,,,,1028,2019_Jun_06_1656,mf_amp_cond1,3.0.7,59.98020501303595,
,,,,,,,,,,,,,,,,,,,,,,,,,,,,,,,,,,,,,,,,,,,,,,,712.4914676009212,,,left,3.5511798018123955,,,,,,,,,,,,,,,,,,,,,,,,,,,,,,,,,,,,,,,,,,1028,2019_Jun_06_1656,mf_amp_cond1,3.0.7,59.98020501303595,
,,,,,,,,,,,,,,,,,,,,,,,,,,,,,,,,,,,,,,,,,,,,,,,,,,,,right,3.551120467716828,,,,,,,,,,,,,,,,,,,,,,,,,,,,,,,,,,,,,,,,1028,2019_Jun_06_1656,mf_amp_cond1,3.0.7,59.98020501303595,
,,,,,,,,,,,,,,,,,,,,,,,,,,,,,,,,,,,,,,,,,,,,,,,735.6308423609007,,,,,,,left,1.0155573922675103,60,right,1.4339744942262769,,,,,,,,,,,,,,,,,,,,,,,,,,,,,,,,,,,1028,2019_Jun_06_1656,mf_amp_cond1,3.0.7,59.98020501303595,
banana,&&&&&&,images/symbols/symbol_68.png,,,,,,,,,,,,,0,0,0,1,,,,,,,,,,,,,,,,,,,,,,,,,,,,,919.0126112152357,,,,,,,,,,,,left,1.9840692842844874,AMP_prac,left,1.9840692842844874,6,,,,,,,,,,,,,,,,,,,,,,,,,,,,,1028,2019_Jun_06_1656,mf_amp_cond1,3.0.7,59.98020501303595,
car,&&&,images/symbols/symbol_9.png,,,,,,,,,,,,,0,1,1,0,,,,,,,,,,,,,,,,,,,,,,,,,,,,,921.6965752055403,,,,,,,,,,,,right,2.4508933625184,AMP_prac,right,2.4508933625184,6,,,,,,,,,,,,,,,,,,,,,,,,,,,,,1028,2019_Jun_06_1656,mf_amp_cond1,3.0.7,59.98020501303595,
keyboard,&&&&&&&&,images/symbols/symbol_40.png,,,,,,,,,,,,,0,2,2,2,,,,,,,,,,,,,,,,,,,,,,,,,,,,,923.5637060250156,,,,,,,,,,,,left,1.6492740877438337,AMP_prac,left,1.6492740877438337,6,,,,,,,,,,,,,,,,,,,,,,,,,,,,,1028,2019_Jun_06_1656,mf_amp_cond1,3.0.7,59.98020501303595,
scarf,&&&&&,images/symbols/symbol_54.png,,,,,,,,,,,,,0,3,3,3,,,,,,,,,,,,,,,,,,,,,,,,,,,,,925.0474383879919,,,,,,,,,,,,right,1.2505703286733478,AMP_prac,right,1.2505703286733478,6,,,,,,,,,,,,,,,,,,,,,,,,,,,,,1028,2019_Jun_06_1656,mf_amp_cond1,3.0.7,59.98020501303595,
,,,,,,,,,,,,,,,,,,,,,,,,,,,,,,,,,,,,,,,,,,,,,,,,,,,,,,,,,,,,,,,,,right,2.9676661409903318,,,,,,,,,,,,,,,,,,,,,,,,,,,1028,2019_Jun_06_1656,mf_amp_cond1,3.0.7,59.98020501303595,
ailled,&&&&&&,images/symbols/symbol_73.png,condition_files/AMP_rep2.csv,None,nonword,,,,,,,,,,,,,,0,0,0,1,0,0,0,0,,,,,,,,,,,,,,,,,,,,,950.9543608773965,,,,,,,,,,,,,,AMP_prac,right,1.2505703286733478,6,,,left,2.6675925988238305,,,,,,,,,,,,,,,,,,,,,,,,,1028,2019_Jun_06_1656,mf_amp_cond1,3.0.7,59.98020501303595,
torture,&&&&&&&,images/symbols/symbol_9.png,condition_files/AMP_rep2.csv,right,care.vice,,,,,,,,,,,,,,0,0,0,1,0,1,1,1,,,,,,,,,,,,,,,,,,,,,952.1545520934742,,,,,,,,,,,,,,AMP_prac,right,1.2505703286733478,6,,,left,0.9671581131406128,,,,,,,,,,,,,,,,,,,,,,,,,1028,2019_Jun_06_1656,mf_amp_cond1,3.0.7,59.98020501303595,
trust,&&&&&,images/symbols/symbol_42.png,condition_files/AMP_rep2.csv,left,authority.virtue,,,,,,,,,,,,,,0,0,0,1,0,2,2,2,,,,,,,,,,,,,,,,,,,,,952.8880734997801,,,,,,,,,,,,,,AMP_prac,right,1.2505703286733478,6,,,right,0.5156951434910297,,,,,,,,,,,,,,,,,,,,,,,,,1028,2019_Jun_06_1656,mf_amp_cond1,3.0.7,59.98020501303595,
killed,&&&&&&,images/symbols/symbol_50.png,condition_files/AMP_rep2.csv,right,care.vice,,,,,,,,,,,,,,0,0,0,1,0,3,3,3,,,,,,,,,,,,,,,,,,,,,954.4551436060574,,,,,,,,,,,,,,AMP_prac,right,1.2505703286733478,6,,,left,1.3496428248472512,,,,,,,,,,,,,,,,,,,,,,,,,1028,2019_Jun_06_1656,mf_amp_cond1,3.0.7,59.98020501303595,
civilians,&&&&&&&&&,images/symbols/symbol_34.png,condition_files/AMP_rep2.csv,right,care.vice,,,,,,,,,,,,,,0,0,0,1,0,4,4,4,,,,,,,,,,,,,,,,,,,,,957.6726504270919,,,,,,,,,,,,,,AMP_prac,right,1.2505703286733478,6,,,left,2.9998688236810267,,,,,,,,,,,,,,,,,,,,,,,,,1028,2019_Jun_06_1656,mf_amp_cond1,3.0.7,59.98020501303595,
promises,&&&&&&&&,images/symbols/symbol_14.png,condition_files/AMP_rep2.csv,left,fairness.virtue,,,,,,,,,,,,,,0,0,0,1,0,5,5,5,,,,,,,,,,,,,,,,,,,,,958.439557028003,,,,,,,,,,,,,,AMP_prac,right,1.2505703286733478,6,,,right,0.5491185043938458,,,,,,,,,,,,,,,,,,,,,,,,,1028,2019_Jun_06_1656,mf_amp_cond1,3.0.7,59.98020501303595,
fighters,&&&&&&&&,images/symbols/symbol_68.png,condition_files/AMP_rep2.csv,right,authority.vice,,,,,,,,,,,,,,0,0,0,1,0,6,6,6,,,,,,,,,,,,,,,,,,,,,962.4739136975259,,,,,,,,,,,,,,AMP_prac,right,1.2505703286733478,6,,,left,3.801231518620625,,,,,,,,,,,,,,,,,,,,,,,,,1028,2019_Jun_06_1656,mf_amp_cond1,3.0.7,59.98020501303595,
rebels,&&&&&&,images/symbols/symbol_33.png,condition_files/AMP_rep2.csv,right,authority.vice,,,,,,,,,,,,,,0,0,0,1,0,7,7,7,,,,,,,,,,,,,,,,,,,,,963.5575570913497,,,,,,,,,,,,,,AMP_prac,right,1.2505703286733478,6,,,right,0.8504768696147949,,,,,,,,,,,,,,,,,,,,,,,,,1028,2019_Jun_06_1656,mf_amp_cond1,3.0.7,59.98020501303595,
praise,&&&&&&,images/symbols/symbol_54.png,condition_files/AMP_rep2.csv,left,authority.virtue,,,,,,,,,,,,,,0,0,0,1,0,8,8,8,,,,,,,,,,,,,,,,,,,,,964.6744888210669,,,,,,,,,,,,,,AMP_prac,right,1.2505703286733478,6,,,right,0.8837818829342723,,,,,,,,,,,,,,,,,,,,,,,,,1028,2019_Jun_06_1656,mf_amp_cond1,3.0.7,59.98020501303595,
credit,&&&&&&,images/symbols/symbol_17.png,condition_files/AMP_rep2.csv,left,fairness.virtue,,,,,,,,,,,,,,0,0,0,1,0,9,9,9,,,,,,,,,,,,,,,,,,,,,965.4413639907725,,,,,,,,,,,,,,AMP_prac,right,1.2505703286733478,6,,,right,0.5490598117467016,,,,,,,,,,,,,,,,,,,,,,,,,1028,2019_Jun_06_1656,mf_amp_cond1,3.0.7,59.98020501303595,
increase,&&&&&&&&,images/symbols/symbol_15.png,condition_files/AMP_rep2.csv,left,care.virtue,,,,,,,,,,,,,,0,0,0,1,0,10,10,10,,,,,,,,,,,,,,,,,,,,,966.3249274601694,,,,,,,,,,,,,,AMP_prac,right,1.2505703286733478,6,,,right,0.6660563277546316,,,,,,,,,,,,,,,,,,,,,,,,,1028,2019_Jun_06_1656,mf_amp_cond1,3.0.7,59.98020501303595,
support,&&&&&&&,images/symbols/symbol_56.png,condition_files/AMP_rep2.csv,left,loyalty.virtue,,,,,,,,,,,,,,0,0,0,1,0,11,11,11,,,,,,,,,,,,,,,,,,,,,966.8917307234369,,,,,,,,,,,,,,AMP_prac,right,1.2505703286733478,6,,,right,0.3492807268630713,,,,,,,,,,,,,,,,,,,,,,,,,1028,2019_Jun_06_1656,mf_amp_cond1,3.0.7,59.98020501303595,
integrity,&&&&&&&&&,images/symbols/symbol_38.png,condition_files/AMP_rep2.csv,left,fairness.virtue,,,,,,,,,,,,,,0,0,0,1,0,12,12,12,,,,,,,,,,,,,,,,,,,,,967.908690644661,,,,,,,,,,,,,,AMP_prac,right,1.2505703286733478,6,,,right,0.7994662499986589,,,,,,,,,,,,,,,,,,,,,,,,,1028,2019_Jun_06_1656,mf_amp_cond1,3.0.7,59.98020501303595,
riot,&&&&,images/symbols/symbol_13.png,condition_files/AMP_rep2.csv,right,authority.vice,,,,,,,,,,,,,,0,0,0,1,0,13,13,13,,,,,,,,,,,,,,,,,,,,,968.7088878261857,,,,,,,,,,,,,,AMP_prac,right,1.2505703286733478,6,,,left,0.5826788144186139,,,,,,,,,,,,,,,,,,,,,,,,,1028,2019_Jun_06_1656,mf_amp_cond1,3.0.7,59.98020501303595,
freedom,&&&&&&&,images/symbols/symbol_22.png,condition_files/AMP_rep2.csv,left,sanctity.virtue,,,,,,,,,,,,,,0,0,0,1,0,14,14,14,,,,,,,,,,,,,,,,,,,,,969.32571002841,,,,,,,,,,,,,,AMP_prac,right,1.2505703286733478,6,,,right,0.39870568341575563,,,,,,,,,,,,,,,,,,,,,,,,,1028,2019_Jun_06_1656,mf_amp_cond1,3.0.7,59.98020501303595,
clean,&&&&&,images/symbols/symbol_27.png,condition_files/AMP_rep2.csv,left,sanctity.virtue,,,,,,,,,,,,,,0,0,0,1,0,15,15,15,,,,,,,,,,,,,,,,,,,,,970.3093094509095,,,,,,,,,,,,,,AMP_prac,right,1.2505703286733478,6,,,right,0.7661089582834393,,,,,,,,,,,,,,,,,,,,,,,,,1028,2019_Jun_06_1656,mf_amp_cond1,3.0.7,59.98020501303595,
serial,&&&&&&,images/symbols/symbol_52.png,condition_files/AMP_rep2.csv,right,sanctity.vice,,,,,,,,,,,,,,0,0,0,1,0,16,16,16,,,,,,,,,,,,,,,,,,,,,971.0094767729752,,,,,,,,,,,,,,AMP_prac,right,1.2505703286733478,6,,,left,0.4670072121080011,,,,,,,,,,,,,,,,,,,,,,,,,1028,2019_Jun_06_1656,mf_amp_cond1,3.0.7,59.98020501303595,
accused,&&&&&&&,images/symbols/symbol_60.png,condition_files/AMP_rep2.csv,right,fairness.vice,,,,,,,,,,,,,,0,0,0,1,0,17,17,17,,,,,,,,,,,,,,,,,,,,,972.043126886012,,,,,,,,,,,,,,AMP_prac,right,1.2505703286733478,6,,,right,0.8157532908953726,,,,,,,,,,,,,,,,,,,,,,,,,1028,2019_Jun_06_1656,mf_amp_cond1,3.0.7,59.98020501303595,
ability,&&&&&&&,images/symbols/symbol_67.png,condition_files/AMP_rep2.csv,left,authority.virtue,,,,,,,,,,,,,,0,0,0,1,0,18,18,18,,,,,,,,,,,,,,,,,,,,,975.3939634482376,,,,,,,,,,,,,,AMP_prac,right,1.2505703286733478,6,,,right,3.1332489184569567,,,,,,,,,,,,,,,,,,,,,,,,,1028,2019_Jun_06_1656,mf_amp_cond1,3.0.7,59.98020501303595,
prison,&&&&&&,images/symbols/symbol_59.png,condition_files/AMP_rep2.csv,right,fairness.vice,,,,,,,,,,,,,,0,0,0,1,0,19,19,19,,,,,,,,,,,,,,,,,,,,,975.9941326626576,,,,,,,,,,,,,,AMP_prac,right,1.2505703286733478,6,,,left,0.38261364307254553,,,,,,,,,,,,,,,,,,,,,,,,,1028,2019_Jun_06_1656,mf_amp_cond1,3.0.7,59.98020501303595,
penalty,&&&&&&&,images/symbols/symbol_23.png,condition_files/AMP_rep2.csv,right,authority.vice,,,,,,,,,,,,,,0,0,0,1,0,20,20,20,,,,,,,,,,,,,,,,,,,,,976.6443041381426,,,,,,,,,,,,,,AMP_prac,right,1.2505703286733478,6,,,right,0.417006233939901,,,,,,,,,,,,,,,,,,,,,,,,,1028,2019_Jun_06_1656,mf_amp_cond1,3.0.7,59.98020501303595,
encourage,&&&&&&&&&,images/symbols/symbol_47.png,condition_files/AMP_rep2.csv,left,authority.virtue,,,,,,,,,,,,,,0,0,0,1,0,21,21,21,,,,,,,,,,,,,,,,,,,,,979.6117409609724,,,,,,,,,,,,,,AMP_prac,right,1.2505703286733478,6,,,left,2.749757772544399,,,,,,,,,,,,,,,,,,,,,,,,,1028,2019_Jun_06_1656,mf_amp_cond1,3.0.7,59.98020501303595,
hate,&&&&,images/symbols/symbol_24.png,condition_files/AMP_rep2.csv,right,fairness.vice,,,,,,,,,,,,,,0,0,0,1,0,22,22,22,,,,,,,,,,,,,,,,,,,,,982.1624124140944,,,,,,,,,,,,,,AMP_prac,right,1.2505703286733478,6,,,right,2.3174972315318882,,,,,,,,,,,,,,,,,,,,,,,,,1028,2019_Jun_06_1656,mf_amp_cond1,3.0.7,59.98020501303595,
preighs,&&&&&&&,images/symbols/symbol_5.png,condition_files/AMP_rep2.csv,None,nonword,,,,,,,,,,,,,,0,0,0,1,0,23,23,23,,,,,,,,,,,,,,,,,,,,,984.9298010640778,,,,,,,,,,,,,,AMP_prac,right,1.2505703286733478,6,,,right,2.549588365945965,,,,,,,,,,,,,,,,,,,,,,,,,1028,2019_Jun_06_1656,mf_amp_cond1,3.0.7,59.98020501303595,
help,&&&&,images/symbols/symbol_30.png,condition_files/AMP_rep2.csv,left,care.virtue,,,,,,,,,,,,,,0,0,0,1,0,24,24,24,,,,,,,,,,,,,,,,,,,,,986.1968261727598,,,,,,,,,,,,,,AMP_prac,right,1.2505703286733478,6,,,right,1.0496895546093583,,,,,,,,,,,,,,,,,,,,,,,,,1028,2019_Jun_06_1656,mf_amp_cond1,3.0.7,59.98020501303595,
peace,&&&&&,images/symbols/symbol_28.png,condition_files/AMP_rep2.csv,left,care.virtue,,,,,,,,,,,,,,0,0,0,1,0,25,25,25,,,,,,,,,,,,,,,,,,,,,987.9972802547272,,,,,,,,,,,,,,AMP_prac,right,1.2505703286733478,6,,,right,1.5827705417759717,,,,,,,,,,,,,,,,,,,,,,,,,1028,2019_Jun_06_1656,mf_amp_cond1,3.0.7,59.98020501303595,
terrorists,&&&&&&&&&&,images/symbols/symbol_10.png,condition_files/AMP_rep2.csv,right,fairness.vice,,,,,,,,,,,,,,0,0,0,1,0,26,26,26,,,,,,,,,,,,,,,,,,,,,989.6310405686963,,,,,,,,,,,,,,AMP_prac,right,1.2505703286733478,6,,,left,1.416042135329917,,,,,,,,,,,,,,,,,,,,,,,,,1028,2019_Jun_06_1656,mf_amp_cond1,3.0.7,59.98020501303595,
health,&&&&&&,images/symbols/symbol_16.png,condition_files/AMP_rep2.csv,left,care.virtue,,,,,,,,,,,,,,0,0,0,1,0,27,27,27,,,,,,,,,,,,,,,,,,,,,990.7646689047106,,,,,,,,,,,,,,AMP_prac,right,1.2505703286733478,6,,,right,0.9164351834915578,,,,,,,,,,,,,,,,,,,,,,,,,1028,2019_Jun_06_1656,mf_amp_cond1,3.0.7,59.98020501303595,
jogns,&&&&&,images/symbols/symbol_43.png,condition_files/AMP_rep2.csv,None,nonword,,,,,,,,,,,,,,0,0,0,1,0,28,28,28,,,,,,,,,,,,,,,,,,,,,995.732640375616,,,,,,,,,,,,,,AMP_prac,right,1.2505703286733478,6,,,left,4.734804946463555,,,,,,,,,,,,,,,,,,,,,,,,,1028,2019_Jun_06_1656,mf_amp_cond1,3.0.7,59.98020501303595,
crime,&&&&&,images/symbols/symbol_20.png,condition_files/AMP_rep2.csv,right,fairness.vice,,,,,,,,,,,,,,0,0,0,1,0,29,29,29,,,,,,,,,,,,,,,,,,,,,996.4161508611869,,,,,,,,,,,,,,AMP_prac,right,1.2505703286733478,6,,,left,0.4503497341647744,,,,,,,,,,,,,,,,,,,,,,,,,1028,2019_Jun_06_1656,mf_amp_cond1,3.0.7,59.98020501303595,
attacks,&&&&&&&,images/symbols/symbol_2.png,condition_files/AMP_rep2.csv,right,care.vice,,,,,,,,,,,,,,0,0,0,1,0,30,30,30,,,,,,,,,,,,,,,,,,,,,997.0996597432531,,,,,,,,,,,,,,AMP_prac,right,1.2505703286733478,6,,,left,0.46592380409128964,,,,,,,,,,,,,,,,,,,,,,,,,1028,2019_Jun_06_1656,mf_amp_cond1,3.0.7,59.98020501303595,
conspiracy,&&&&&&&&&&,images/symbols/symbol_53.png,condition_files/AMP_rep2.csv,right,sanctity.vice,,,,,,,,,,,,,,0,0,0,1,0,31,31,31,,,,,,,,,,,,,,,,,,,,,997.8832010503393,,,,,,,,,,,,,,AMP_prac,right,1.2505703286733478,6,,,left,0.5503744620364159,,,,,,,,,,,,,,,,,,,,,,,,,1028,2019_Jun_06_1656,mf_amp_cond1,3.0.7,59.98020501303595,
embrace,&&&&&&&,images/symbols/symbol_65.png,condition_files/AMP_rep2.csv,left,authority.virtue,,,,,,,,,,,,,,0,0,0,1,0,32,32,32,,,,,,,,,,,,,,,,,,,,,998.5833888989873,,,,,,,,,,,,,,AMP_prac,right,1.2505703286733478,6,,,right,0.4823599820956588,,,,,,,,,,,,,,,,,,,,,,,,,1028,2019_Jun_06_1656,mf_amp_cond1,3.0.7,59.98020501303595,
illegal,&&&&&&&,images/symbols/symbol_12.png,condition_files/AMP_rep2.csv,right,fairness.vice,,,,,,,,,,,,,,0,0,0,1,0,33,33,33,,,,,,,,,,,,,,,,,,,,,999.4336255455855,,,,,,,,,,,,,,AMP_prac,right,1.2505703286733478,6,,,left,0.6327320707496256,,,,,,,,,,,,,,,,,,,,,,,,,1028,2019_Jun_06_1656,mf_amp_cond1,3.0.7,59.98020501303595,
ensure,&&&&&&,images/symbols/symbol_76.png,condition_files/AMP_rep2.csv,left,fairness.virtue,,,,,,,,,,,,,,0,0,0,1,0,34,34,34,,,,,,,,,,,,,,,,,,,,,1000.25051067397,,,,,,,,,,,,,,AMP_prac,right,1.2505703286733478,6,,,right,0.599840150680393,,,,,,,,,,,,,,,,,,,,,,,,,1028,2019_Jun_06_1656,mf_amp_cond1,3.0.7,59.98020501303595,
strong,&&&&&&,images/symbols/symbol_46.png,condition_files/AMP_rep2.csv,left,loyalty.virtue,,,,,,,,,,,,,,0,0,0,1,0,35,35,35,,,,,,,,,,,,,,,,,,,,,1002.0176161238924,,,,,,,,,,,,,,AMP_prac,right,1.2505703286733478,6,,,left,1.549701581709087,,,,,,,,,,,,,,,,,,,,,,,,,1028,2019_Jun_06_1656,mf_amp_cond1,3.0.7,59.98020501303595,
free,&&&&,images/symbols/symbol_82.png,condition_files/AMP_rep2.csv,left,fairness.virtue,,,,,,,,,,,,,,0,0,0,1,0,36,36,36,,,,,,,,,,,,,,,,,,,,,1002.6177975258324,,,,,,,,,,,,,,AMP_prac,right,1.2505703286733478,6,,,right,0.3830254536587745,,,,,,,,,,,,,,,,,,,,,,,,,1028,2019_Jun_06_1656,mf_amp_cond1,3.0.7,59.98020501303595,
betrayal,&&&&&&&&,images/symbols/symbol_61.png,condition_files/AMP_rep2.csv,right,loyalty.vice,,,,,,,,,,,,,,0,0,0,1,0,37,37,37,,,,,,,,,,,,,,,,,,,,,1003.4013250418939,,,,,,,,,,,,,,AMP_prac,right,1.2505703286733478,6,,,left,0.566074256086722,,,,,,,,,,,,,,,,,,,,,,,,,1028,2019_Jun_06_1656,mf_amp_cond1,3.0.7,59.98020501303595,
refused,&&&&&&&,images/symbols/symbol_70.png,condition_files/AMP_rep2.csv,right,authority.vice,,,,,,,,,,,,,,0,0,0,1,0,38,38,38,,,,,,,,,,,,,,,,,,,,,1004.351565890247,,,,,,,,,,,,,,AMP_prac,right,1.2505703286733478,6,,,left,0.7328546196222305,,,,,,,,,,,,,,,,,,,,,,,,,1028,2019_Jun_06_1656,mf_amp_cond1,3.0.7,59.98020501303595,
army,&&&&,images/symbols/symbol_58.png,condition_files/AMP_rep2.csv,right,loyalty.vice,,,,,,,,,,,,,,0,0,0,1,0,39,39,39,,,,,,,,,,,,,,,,,,,,,1005.8686340560671,,,,,,,,,,,,,,AMP_prac,right,1.2505703286733478,6,,,right,1.2990642215590924,,,,,,,,,,,,,,,,,,,,,,,,,1028,2019_Jun_06_1656,mf_amp_cond1,3.0.7,59.98020501303595,
sharing,&&&&&&&,images/symbols/symbol_78.png,condition_files/AMP_rep2.csv,left,loyalty.virtue,,,,,,,,,,,,,,0,0,0,1,0,40,40,40,,,,,,,,,,,,,,,,,,,,,1010.1530902304221,,,,,,,,,,,,,,AMP_prac,right,1.2505703286733478,6,,,left,4.066847042413428,,,,,,,,,,,,,,,,,,,,,,,,,1028,2019_Jun_06_1656,mf_amp_cond1,3.0.7,59.98020501303595,
slavery,&&&&&&&,images/symbols/symbol_45.png,condition_files/AMP_rep2.csv,right,loyalty.vice,,,,,,,,,,,,,,0,0,0,1,0,41,41,41,,,,,,,,,,,,,,,,,,,,,1012.4870454489719,,,,,,,,,,,,,,AMP_prac,right,1.2505703286733478,6,,,left,2.1161597452592105,,,,,,,,,,,,,,,,,,,,,,,,,1028,2019_Jun_06_1656,mf_amp_cond1,3.0.7,59.98020501303595,
arrests,&&&&&&&,images/symbols/symbol_31.png,condition_files/AMP_rep2.csv,right,authority.vice,,,,,,,,,,,,,,0,0,0,1,0,42,42,42,,,,,,,,,,,,,,,,,,,,,1014.4208860404324,,,,,,,,,,,,,,AMP_prac,right,1.2505703286733478,6,,,left,1.7006907446775585,,,,,,,,,,,,,,,,,,,,,,,,,1028,2019_Jun_06_1656,mf_amp_cond1,3.0.7,59.98020501303595,
harassment,&&&&&&&&&&,images/symbols/symbol_3.png,condition_files/AMP_rep2.csv,right,sanctity.vice,,,,,,,,,,,,,,0,0,0,1,0,43,43,43,,,,,,,,,,,,,,,,,,,,,1015.237772130873,,,,,,,,,,,,,,AMP_prac,right,1.2505703286733478,6,,,left,0.5992743924725801,,,,,,,,,,,,,,,,,,,,,,,,,1028,2019_Jun_06_1656,mf_amp_cond1,3.0.7,59.98020501303595,
growth,&&&&&&,images/symbols/symbol_21.png,condition_files/AMP_rep2.csv,left,care.virtue,,,,,,,,,,,,,,0,0,0,1,0,44,44,44,,,,,,,,,,,,,,,,,,,,,1016.6047818767838,,,,,,,,,,,,,,AMP_prac,right,1.2505703286733478,6,,,right,1.1497906148433685,,,,,,,,,,,,,,,,,,,,,,,,,1028,2019_Jun_06_1656,mf_amp_cond1,3.0.7,59.98020501303595,
victims,&&&&&&&,images/symbols/symbol_4.png,condition_files/AMP_rep2.csv,right,care.vice,,,,,,,,,,,,,,0,0,0,1,0,45,45,45,,,,,,,,,,,,,,,,,,,,,1017.2549488621298,,,,,,,,,,,,,,AMP_prac,right,1.2505703286733478,6,,,left,0.4326107727829367,,,,,,,,,,,,,,,,,,,,,,,,,1028,2019_Jun_06_1656,mf_amp_cond1,3.0.7,59.98020501303595,
death,&&&&&,images/symbols/symbol_8.png,condition_files/AMP_rep2.csv,right,care.vice,,,,,,,,,,,,,,0,0,0,1,0,46,46,46,,,,,,,,,,,,,,,,,,,,,1018.0218147309497,,,,,,,,,,,,,,AMP_prac,right,1.2505703286733478,6,,,left,0.5495328805409372,,,,,,,,,,,,,,,,,,,,,,,,,1028,2019_Jun_06_1656,mf_amp_cond1,3.0.7,59.98020501303595,
naidd,&&&&&,images/symbols/symbol_55.png,condition_files/AMP_rep2.csv,None,nonword,,,,,,,,,,,,,,0,0,0,1,0,47,47,47,,,,,,,,,,,,,,,,,,,,,1019.7389528788626,,,,,,,,,,,,,,AMP_prac,right,1.2505703286733478,6,,,left,1.4839642466977239,,,,,,,,,,,,,,,,,,,,,,,,,1028,2019_Jun_06_1656,mf_amp_cond1,3.0.7,59.98020501303595,
respect,&&&&&&&,images/symbols/symbol_29.png,condition_files/AMP_rep2.csv,left,sanctity.virtue,,,,,,,,,,,,,,0,0,0,1,0,48,48,48,,,,,,,,,,,,,,,,,,,,,1020.3724469915032,,,,,,,,,,,,,,AMP_prac,right,1.2505703286733478,6,,,right,0.4155591242015362,,,,,,,,,,,,,,,,,,,,,,,,,1028,2019_Jun_06_1656,mf_amp_cond1,3.0.7,59.98020501303595,
safety,&&&&&&,images/symbols/symbol_64.png,condition_files/AMP_rep2.csv,left,care.virtue,,,,,,,,,,,,,,0,0,0,1,0,49,49,49,,,,,,,,,,,,,,,,,,,,,1021.1393135017715,,,,,,,,,,,,,,AMP_prac,right,1.2505703286733478,6,,,right,0.5492782250512391,,,,,,,,,,,,,,,,,,,,,,,,,1028,2019_Jun_06_1656,mf_amp_cond1,3.0.7,59.98020501303595,
thinx,&&&&&,images/symbols/symbol_63.png,condition_files/AMP_rep2.csv,None,nonword,,,,,,,,,,,,,,0,0,0,1,0,50,50,50,,,,,,,,,,,,,,,,,,,,,1021.8061463036574,,,,,,,,,,,,,,AMP_prac,right,1.2505703286733478,6,,,right,0.44955016765743494,,,,,,,,,,,,,,,,,,,,,,,,,1028,2019_Jun_06_1656,mf_amp_cond1,3.0.7,59.98020501303595,
useful,&&&&&&,images/symbols/symbol_57.png,condition_files/AMP_rep2.csv,left,authority.virtue,,,,,,,,,,,,,,0,0,0,1,0,51,51,51,,,,,,,,,,,,,,,,,,,,,1022.9898028795142,,,,,,,,,,,,,,AMP_prac,right,1.2505703286733478,6,,,right,0.9662106924224645,,,,,,,,,,,,,,,,,,,,,,,,,1028,2019_Jun_06_1656,mf_amp_cond1,3.0.7,59.98020501303595,
friends,&&&&&&&,images/symbols/symbol_66.png,condition_files/AMP_rep2.csv,left,loyalty.virtue,,,,,,,,,,,,,,0,0,0,1,0,52,52,52,,,,,,,,,,,,,,,,,,,,,1023.7400160811376,,,,,,,,,,,,,,AMP_prac,right,1.2505703286733478,6,,,right,0.5328305012080818,,,,,,,,,,,,,,,,,,,,,,,,,1028,2019_Jun_06_1656,mf_amp_cond1,3.0.7,59.98020501303595,
splysed,&&&&&&&,images/symbols/symbol_32.png,condition_files/AMP_rep2.csv,None,nonword,,,,,,,,,,,,,,0,0,0,1,0,53,53,53,,,,,,,,,,,,,,,,,,,,,1024.856951980153,,,,,,,,,,,,,,AMP_prac,right,1.2505703286733478,6,,,left,0.8994717341847718,,,,,,,,,,,,,,,,,,,,,,,,,1028,2019_Jun_06_1656,mf_amp_cond1,3.0.7,59.98020501303595,
strength,&&&&&&&&,images/symbols/symbol_69.png,condition_files/AMP_rep2.csv,left,sanctity.virtue,,,,,,,,,,,,,,0,0,0,1,0,54,54,54,,,,,,,,,,,,,,,,,,,,,1026.1906390727963,,,,,,,,,,,,,,AMP_prac,right,1.2505703286733478,6,,,right,1.1160920723341405,,,,,,,,,,,,,,,,,,,,,,,,,1028,2019_Jun_06_1656,mf_amp_cond1,3.0.7,59.98020501303595,
soughste,&&&&&&&&,images/symbols/symbol_75.png,condition_files/AMP_rep2.csv,None,nonword,,,,,,,,,,,,,,0,0,0,1,0,55,55,55,,,,,,,,,,,,,,,,,,,,,1027.4576337125618,,,,,,,,,,,,,,AMP_prac,right,1.2505703286733478,6,,,right,1.049543304136023,,,,,,,,,,,,,,,,,,,,,,,,,1028,2019_Jun_06_1656,mf_amp_cond1,3.0.7,59.98020501303595,
ban,&&&,images/symbols/symbol_72.png,condition_files/AMP_rep2.csv,right,loyalty.vice,,,,,,,,,,,,,,0,0,0,1,0,56,56,56,,,,,,,,,,,,,,,,,,,,,1028.5245837073307,,,,,,,,,,,,,,AMP_prac,right,1.2505703286733478,6,,,left,0.8494088561274111,,,,,,,,,,,,,,,,,,,,,,,,,1028,2019_Jun_06_1656,mf_amp_cond1,3.0.7,59.98020501303595,
great,&&&&&,images/symbols/symbol_44.png,condition_files/AMP_rep2.csv,left,loyalty.virtue,,,,,,,,,,,,,,0,0,0,1,0,57,57,57,,,,,,,,,,,,,,,,,,,,,1029.2247590476181,,,,,,,,,,,,,,AMP_prac,right,1.2505703286733478,6,,,right,0.4825546620413661,,,,,,,,,,,,,,,,,,,,,,,,,1028,2019_Jun_06_1656,mf_amp_cond1,3.0.7,59.98020501303595,
fear,&&&&,images/symbols/symbol_49.png,condition_files/AMP_rep2.csv,right,sanctity.vice,,,,,,,,,,,,,,0,0,0,1,0,58,58,58,,,,,,,,,,,,,,,,,,,,,1030.0749854310416,,,,,,,,,,,,,,AMP_prac,right,1.2505703286733478,6,,,left,0.6170633870642632,,,,,,,,,,,,,,,,,,,,,,,,,1028,2019_Jun_06_1656,mf_amp_cond1,3.0.7,59.98020501303595,
voter,&&&&&,images/symbols/symbol_26.png,condition_files/AMP_rep2.csv,right,fairness.vice,,,,,,,,,,,,,,0,0,0,1,0,59,59,59,,,,,,,,,,,,,,,,,,,,,1031.0419347523712,,,,,,,,,,,,,,AMP_prac,right,1.2505703286733478,6,,,right,0.7488815528340638,,,,,,,,,,,,,,,,,,,,,,,,,1028,2019_Jun_06_1656,mf_amp_cond1,3.0.7,59.98020501303595,
opportunity,&&&&&&&&&&&,images/symbols/symbol_7.png,condition_files/AMP_rep2.csv,left,fairness.virtue,,,,,,,,,,,,,,0,0,0,1,0,60,60,60,,,,,,,,,,,,,,,,,,,,,1031.692083135713,,,,,,,,,,,,,,AMP_prac,right,1.2505703286733478,6,,,left,0.43280032090842724,,,,,,,,,,,,,,,,,,,,,,,,,1028,2019_Jun_06_1656,mf_amp_cond1,3.0.7,59.98020501303595,
promote,&&&&&&&,images/symbols/symbol_18.png,condition_files/AMP_rep2.csv,left,sanctity.virtue,,,,,,,,,,,,,,0,0,0,1,0,61,61,61,,,,,,,,,,,,,,,,,,,,,1033.675938496599,,,,,,,,,,,,,,AMP_prac,right,1.2505703286733478,6,,,right,1.7665377673693001,,,,,,,,,,,,,,,,,,,,,,,,,1028,2019_Jun_06_1656,mf_amp_cond1,3.0.7,59.98020501303595,
wrantse,&&&&&&&,images/symbols/symbol_80.png,condition_files/AMP_rep2.csv,None,nonword,,,,,,,,,,,,,,0,0,0,1,0,62,62,62,,,,,,,,,,,,,,,,,,,,,1035.2763524239417,,,,,,,,,,,,,,AMP_prac,right,1.2505703286733478,6,,,right,1.3831678554415703,,,,,,,,,,,,,,,,,,,,,,,,,1028,2019_Jun_06_1656,mf_amp_cond1,3.0.7,59.98020501303595,
war,&&&,images/symbols/symbol_35.png,condition_files/AMP_rep2.csv,right,sanctity.vice,,,,,,,,,,,,,,0,0,0,1,0,63,63,63,,,,,,,,,,,,,,,,,,,,,1037.343558677705,,,,,,,,,,,,,,AMP_prac,right,1.2505703286733478,6,,,left,1.8496445890050381,,,,,,,,,,,,,,,,,,,,,,,,,1028,2019_Jun_06_1656,mf_amp_cond1,3.0.7,59.98020501303595,
bipht,&&&&&,images/symbols/symbol_74.png,condition_files/AMP_rep2.csv,None,nonword,,,,,,,,,,,,,,0,0,0,1,0,64,64,64,,,,,,,,,,,,,,,,,,,,,1038.5772245705593,,,,,,,,,,,,,,AMP_prac,right,1.2505703286733478,6,,,right,1.0005022550467402,,,,,,,,,,,,,,,,,,,,,,,,,1028,2019_Jun_06_1656,mf_amp_cond1,3.0.7,59.98020501303595,
loyalty,&&&&&&&,images/symbols/symbol_79.png,condition_files/AMP_rep2.csv,left,loyalty.virtue,,,,,,,,,,,,,,0,0,0,1,0,65,65,65,,,,,,,,,,,,,,,,,,,,,1039.427461858606,,,,,,,,,,,,,,AMP_prac,right,1.2505703286733478,6,,,right,0.6324719630647451,,,,,,,,,,,,,,,,,,,,,,,,,1028,2019_Jun_06_1656,mf_amp_cond1,3.0.7,59.98020501303595,
fair,&&&&,images/symbols/symbol_19.png,condition_files/AMP_rep2.csv,left,fairness.virtue,,,,,,,,,,,,,,0,0,0,1,0,66,66,66,,,,,,,,,,,,,,,,,,,,,1040.1943139361683,,,,,,,,,,,,,,AMP_prac,right,1.2505703286733478,6,,,right,0.5494090807624161,,,,,,,,,,,,,,,,,,,,,,,,,1028,2019_Jun_06_1656,mf_amp_cond1,3.0.7,59.98020501303595,
unpleasant,&&&&&&&&&,images/symbols/symbol_81.png,condition_files/AMP_rep2.csv,left,control,,,,,,,,,,,,,,0,0,0,1,0,67,67,67,,,,,,,,,,,,,,,,,,,,,1040.9111541309394,,,,,,,,,,,,,,AMP_prac,right,1.2505703286733478,6,,,left,0.48368649929761887,,,,,,,,,,,,,,,,,,,,,,,,,1028,2019_Jun_06_1656,mf_amp_cond1,3.0.7,59.98020501303595,
critics,&&&&&&&,images/symbols/symbol_41.png,condition_files/AMP_rep2.csv,right,loyalty.vice,,,,,,,,,,,,,,0,0,0,1,0,68,68,68,,,,,,,,,,,,,,,,,,,,,1042.0448193501215,,,,,,,,,,,,,,AMP_prac,right,1.2505703286733478,6,,,right,0.9165589832700789,,,,,,,,,,,,,,,,,,,,,,,,,1028,2019_Jun_06_1656,mf_amp_cond1,3.0.7,59.98020501303595,
abuse,&&&&&,images/symbols/symbol_71.png,condition_files/AMP_rep2.csv,right,sanctity.vice,,,,,,,,,,,,,,0,0,0,1,0,69,69,69,,,,,,,,,,,,,,,,,,,,,1042.9950351819862,,,,,,,,,,,,,,AMP_prac,right,1.2505703286733478,6,,,left,0.7170756068080664,,,,,,,,,,,,,,,,,,,,,,,,,1028,2019_Jun_06_1656,mf_amp_cond1,3.0.7,59.98020501303595,
hand,&&&&,images/symbols/symbol_25.png,condition_files/AMP_rep2.csv,left,sanctity.virtue,,,,,,,,,,,,,,0,0,0,1,0,70,70,70,,,,,,,,,,,,,,,,,,,,,1043.545193475671,,,,,,,,,,,,,,AMP_prac,right,1.2505703286733478,6,,,left,0.33204754814505577,,,,,,,,,,,,,,,,,,,,,,,,,1028,2019_Jun_06_1656,mf_amp_cond1,3.0.7,59.98020501303595,
officers,&&&&&&&&,images/symbols/symbol_48.png,condition_files/AMP_rep2.csv,right,authority.vice,,,,,,,,,,,,,,0,0,0,1,0,71,71,71,,,,,,,,,,,,,,,,,,,,,1044.6621405999176,,,,,,,,,,,,,,AMP_prac,right,1.2505703286733478,6,,,left,0.8994653199333698,,,,,,,,,,,,,,,,,,,,,,,,,1028,2019_Jun_06_1656,mf_amp_cond1,3.0.7,59.98020501303595,
commitment,&&&&&&&&&&,images/symbols/symbol_62.png,condition_files/AMP_rep2.csv,left,sanctity.virtue,,,,,,,,,,,,,,0,0,0,1,0,72,72,72,,,,,,,,,,,,,,,,,,,,,1046.1792212740984,,,,,,,,,,,,,,AMP_prac,right,1.2505703286733478,6,,,right,1.283910621656105,,,,,,,,,,,,,,,,,,,,,,,,,1028,2019_Jun_06_1656,mf_amp_cond1,3.0.7,59.98020501303595,
groups,&&&&&&,images/symbols/symbol_39.png,condition_files/AMP_rep2.csv,right,loyalty.vice,,,,,,,,,,,,,,0,0,0,1,0,73,73,73,,,,,,,,,,,,,,,,,,,,,1047.3462001662701,,,,,,,,,,,,,,AMP_prac,right,1.2505703286733478,6,,,left,0.9493261412717402,,,,,,,,,,,,,,,,,,,,,,,,,1028,2019_Jun_06_1656,mf_amp_cond1,3.0.7,59.98020501303595,
terrorist,&&&&&&&&&,images/symbols/symbol_77.png,condition_files/AMP_rep2.csv,right,loyalty.vice,,,,,,,,,,,,,,0,0,0,1,0,74,74,74,,,,,,,,,,,,,,,,,,,,,1048.7132057426497,,,,,,,,,,,,,,AMP_prac,right,1.2505703286733478,6,,,left,1.1495638624764979,,,,,,,,,,,,,,,,,,,,,,,,,1028,2019_Jun_06_1656,mf_amp_cond1,3.0.7,59.98020501303595,
scandal,&&&&&&&,images/symbols/symbol_37.png,condition_files/AMP_rep2.csv,right,sanctity.vice,,,,,,,,,,,,,,0,0,0,1,0,75,75,75,,,,,,,,,,,,,,,,,,,,,1049.5967794752214,,,,,,,,,,,,,,AMP_prac,right,1.2505703286733478,6,,,left,0.6503972655627877,,,,,,,,,,,,,,,,,,,,,,,,,1028,2019_Jun_06_1656,mf_amp_cond1,3.0.7,59.98020501303595,
coacs,&&&&&,images/symbols/symbol_1.png,condition_files/AMP_rep2.csv,None,nonword,,,,,,,,,,,,,,0,0,0,1,0,76,76,76,,,,,,,,,,,,,,,,,,,,,1050.4803326812107,,,,,,,,,,,,,,AMP_prac,right,1.2505703286733478,6,,,left,0.665756129194051,,,,,,,,,,,,,,,,,,,,,,,,,1028,2019_Jun_06_1656,mf_amp_cond1,3.0.7,59.98020501303595,
improve,&&&&&&&,images/symbols/symbol_51.png,condition_files/AMP_rep2.csv,left,care.virtue,,,,,,,,,,,,,,0,0,0,1,0,77,77,77,,,,,,,,,,,,,,,,,,,,,1051.1805182846729,,,,,,,,,,,,,,AMP_prac,right,1.2505703286733478,6,,,left,0.4670200413092971,,,,,,,,,,,,,,,,,,,,,,,,,1028,2019_Jun_06_1656,mf_amp_cond1,3.0.7,59.98020501303595,
pleasant,&&&&&&&,images/symbols/symbol_11.png,condition_files/AMP_rep2.csv,right,control,,,,,,,,,,,,,,0,0,0,1,0,78,78,78,,,,,,,,,,,,,,,,,,,,,1052.480874385219,,,,,,,,,,,,,,AMP_prac,right,1.2505703286733478,6,,,left,1.0827681361697614,,,,,,,,,,,,,,,,,,,,,,,,,1028,2019_Jun_06_1656,mf_amp_cond1,3.0.7,59.98020501303595,
celebrated,&&&&&&&&&&,images/symbols/symbol_36.png,condition_files/AMP_rep2.csv,left,authority.virtue,,,,,,,,,,,,,,0,0,0,1,0,79,79,79,,,,,,,,,,,,,,,,,,,,,1053.5644857068546,,,,,,,,,,,,,,AMP_prac,right,1.2505703286733478,6,,,right,0.866188530344516,,,,,,,,,,,,,,,,,,,,,,,,,1028,2019_Jun_06_1656,mf_amp_cond1,3.0.7,59.98020501303595,
died,&&&&,images/symbols/symbol_6.png,condition_files/AMP_rep2.csv,right,care.vice,,,,,,,,,,,,,,0,0,0,1,0,80,80,80,,,,,,,,,,,,,,,,,,,,,1054.4647335947957,,,,,,,,,,,,,,AMP_prac,right,1.2505703286733478,6,,,left,0.6827785919886082,,,,,,,,,,,,,,,,,,,,,,,,,1028,2019_Jun_06_1656,mf_amp_cond1,3.0.7,59.98020501303595,
love,&&&&,images/symbols/symbol_40.png,condition_files/AMP_rep2.csv,left,loyalty.virtue,,,,,,,,,,,,,,0,0,0,1,0,81,81,81,,,,,,,,,,,,,,,,,,,,,1055.2816007626243,,,,,,,,,,,,,,AMP_prac,right,1.2505703286733478,6,,,right,0.5993045405484736,,,,,,,,,,,,,,,,,,,,,,,,,1028,2019_Jun_06_1656,mf_amp_cond1,3.0.7,59.98020501303595,
,,,condition_files/AMP_rep2.csv,,,,,,,,,,,,,,,,0,0,0,1,,,,,,,,,,,,,,,,,,,,,,,,,,,,,,,,,,,,,,,,,,,,,,,right,3.5344838369637728,,,,,,,,,,,,,,,,,,,,,,,1028,2019_Jun_06_1656,mf_amp_cond1,3.0.7,59.98020501303595,
ailled,&&&&&&,images/symbols/symbol_73.png,condition_files/AMP_rep3.csv,None,nonword,,,,,,,,,,,,,,0,1,1,2,0,0,0,0,,,,,,,,,,,,,,,,,,,,,1062.3502380899154,,,,,,,,,,,,,,AMP_prac,right,1.2505703286733478,6,,,right,3.2844228190369904,,,,,,,,,,,,,,,,,,,,,,,,,1028,2019_Jun_06_1656,mf_amp_cond1,3.0.7,59.98020501303595,
torture,&&&&&&&,images/symbols/symbol_9.png,condition_files/AMP_rep3.csv,right,care.vice,,,,,,,,,,,,,,0,1,1,2,0,1,1,1,,,,,,,,,,,,,,,,,,,,,1062.9336016515736,,,,,,,,,,,,,,AMP_prac,right,1.2505703286733478,6,,,left,0.3657743143849075,,,,,,,,,,,,,,,,,,,,,,,,,1028,2019_Jun_06_1656,mf_amp_cond1,3.0.7,59.98020501303595,
trust,&&&&&,images/symbols/symbol_42.png,condition_files/AMP_rep3.csv,left,authority.virtue,,,,,,,,,,,,,,0,1,1,2,0,2,2,2,,,,,,,,,,,,,,,,,,,,,1064.6340454383753,,,,,,,,,,,,,,AMP_prac,right,1.2505703286733478,6,,,right,1.4829610199667513,,,,,,,,,,,,,,,,,,,,,,,,,1028,2019_Jun_06_1656,mf_amp_cond1,3.0.7,59.98020501303595,
killed,&&&&&&,images/symbols/symbol_50.png,condition_files/AMP_rep3.csv,right,care.vice,,,,,,,,,,,,,,0,1,1,2,0,3,3,3,,,,,,,,,,,,,,,,,,,,,1065.2508814316243,,,,,,,,,,,,,,AMP_prac,right,1.2505703286733478,6,,,left,0.3993201919365674,,,,,,,,,,,,,,,,,,,,,,,,,1028,2019_Jun_06_1656,mf_amp_cond1,3.0.7,59.98020501303595,
civilians,&&&&&&&&&,images/symbols/symbol_34.png,condition_files/AMP_rep3.csv,right,care.vice,,,,,,,,,,,,,,0,1,1,2,0,4,4,4,,,,,,,,,,,,,,,,,,,,,1066.1011078150477,,,,,,,,,,,,,,AMP_prac,right,1.2505703286733478,6,,,right,0.63258774462156,,,,,,,,,,,,,,,,,,,,,,,,,1028,2019_Jun_06_1656,mf_amp_cond1,3.0.7,59.98020501303595,
promises,&&&&&&&&,images/symbols/symbol_14.png,condition_files/AMP_rep3.csv,left,fairness.virtue,,,,,,,,,,,,,,0,1,1,2,0,5,5,5,,,,,,,,,,,,,,,,,,,,,1067.2013913679402,,,,,,,,,,,,,,AMP_prac,right,1.2505703286733478,6,,,right,0.8828084834385663,,,,,,,,,,,,,,,,,,,,,,,,,1028,2019_Jun_06_1656,mf_amp_cond1,3.0.7,59.98020501303595,
fighters,&&&&&&&&,images/symbols/symbol_68.png,condition_files/AMP_rep3.csv,right,authority.vice,,,,,,,,,,,,,,0,1,1,2,0,6,6,6,,,,,,,,,,,,,,,,,,,,,1067.7681984798983,,,,,,,,,,,,,,AMP_prac,right,1.2505703286733478,6,,,left,0.3336482848972082,,,,,,,,,,,,,,,,,,,,,,,,,1028,2019_Jun_06_1656,mf_amp_cond1,3.0.7,59.98020501303595,
rebels,&&&&&&,images/symbols/symbol_33.png,condition_files/AMP_rep3.csv,right,authority.vice,,,,,,,,,,,,,,0,1,1,2,0,7,7,7,,,,,,,,,,,,,,,,,,,,,1068.5017343186773,,,,,,,,,,,,,,AMP_prac,right,1.2505703286733478,6,,,right,0.5160514684394002,,,,,,,,,,,,,,,,,,,,,,,,,1028,2019_Jun_06_1656,mf_amp_cond1,3.0.7,59.98020501303595,
praise,&&&&&&,images/symbols/symbol_54.png,condition_files/AMP_rep3.csv,left,authority.virtue,,,,,,,,,,,,,,0,1,1,2,0,8,8,8,,,,,,,,,,,,,,,,,,,,,1070.6689608104061,,,,,,,,,,,,,,AMP_prac,right,1.2505703286733478,6,,,right,1.9340644574258476,,,,,,,,,,,,,,,,,,,,,,,,,1028,2019_Jun_06_1656,mf_amp_cond1,3.0.7,59.98020501303595,
credit,&&&&&&,images/symbols/symbol_17.png,condition_files/AMP_rep3.csv,left,fairness.virtue,,,,,,,,,,,,,,0,1,1,2,0,9,9,9,,,,,,,,,,,,,,,,,,,,,1072.4861185546033,,,,,,,,,,,,,,AMP_prac,right,1.2505703286733478,6,,,right,1.5994382828939706,,,,,,,,,,,,,,,,,,,,,,,,,1028,2019_Jun_06_1656,mf_amp_cond1,3.0.7,59.98020501303595,
increase,&&&&&&&&,images/symbols/symbol_15.png,condition_files/AMP_rep3.csv,left,care.virtue,,,,,,,,,,,,,,0,1,1,2,0,10,10,10,,,,,,,,,,,,,,,,,,,,,1074.1869818491396,,,,,,,,,,,,,,AMP_prac,right,1.2505703286733478,6,,,right,1.4829930923879147,,,,,,,,,,,,,,,,,,,,,,,,,1028,2019_Jun_06_1656,mf_amp_cond1,3.0.7,59.98020501303595,
support,&&&&&&&,images/symbols/symbol_56.png,condition_files/AMP_rep3.csv,left,loyalty.virtue,,,,,,,,,,,,,,0,1,1,2,0,11,11,11,,,,,,,,,,,,,,,,,,,,,1074.7367013916373,,,,,,,,,,,,,,AMP_prac,right,1.2505703286733478,6,,,right,0.31696867709979415,,,,,,,,,,,,,,,,,,,,,,,,,1028,2019_Jun_06_1656,mf_amp_cond1,3.0.7,59.98020501303595,
integrity,&&&&&&&&&,images/symbols/symbol_38.png,condition_files/AMP_rep3.csv,left,fairness.virtue,,,,,,,,,,,,,,0,1,1,2,0,12,12,12,,,,,,,,,,,,,,,,,,,,,1075.28685134626,,,,,,,,,,,,,,AMP_prac,right,1.2505703286733478,6,,,right,0.3323156738188118,,,,,,,,,,,,,,,,,,,,,,,,,1028,2019_Jun_06_1656,mf_amp_cond1,3.0.7,59.98020501303595,
riot,&&&&,images/symbols/symbol_13.png,condition_files/AMP_rep3.csv,right,authority.vice,,,,,,,,,,,,,,0,1,1,2,0,13,13,13,,,,,,,,,,,,,,,,,,,,,1075.8870019586757,,,,,,,,,,,,,,AMP_prac,right,1.2505703286733478,6,,,left,0.3826768258586526,,,,,,,,,,,,,,,,,,,,,,,,,1028,2019_Jun_06_1656,mf_amp_cond1,3.0.7,59.98020501303595,
freedom,&&&&&&&,images/symbols/symbol_22.png,condition_files/AMP_rep3.csv,left,sanctity.virtue,,,,,,,,,,,,,,0,1,1,2,0,14,14,14,,,,,,,,,,,,,,,,,,,,,1076.7705593341962,,,,,,,,,,,,,,AMP_prac,right,1.2505703286733478,6,,,right,0.6661259250249714,,,,,,,,,,,,,,,,,,,,,,,,,1028,2019_Jun_06_1656,mf_amp_cond1,3.0.7,59.98020501303595,
clean,&&&&&,images/symbols/symbol_27.png,condition_files/AMP_rep3.csv,left,sanctity.virtue,,,,,,,,,,,,,,0,1,1,2,0,15,15,15,,,,,,,,,,,,,,,,,,,,,1077.370717643993,,,,,,,,,,,,,,AMP_prac,right,1.2505703286733478,6,,,right,0.38264635717496276,,,,,,,,,,,,,,,,,,,,,,,,,1028,2019_Jun_06_1656,mf_amp_cond1,3.0.7,59.98020501303595,
serial,&&&&&&,images/symbols/symbol_52.png,condition_files/AMP_rep3.csv,right,sanctity.vice,,,,,,,,,,,,,,0,1,1,2,0,16,16,16,,,,,,,,,,,,,,,,,,,,,1077.9042107623536,,,,,,,,,,,,,,AMP_prac,right,1.2505703286733478,6,,,left,0.30032082088291645,,,,,,,,,,,,,,,,,,,,,,,,,1028,2019_Jun_06_1656,mf_amp_cond1,3.0.7,59.98020501303595,
accused,&&&&&&&,images/symbols/symbol_60.png,condition_files/AMP_rep3.csv,right,fairness.vice,,,,,,,,,,,,,,0,1,1,2,0,17,17,17,,,,,,,,,,,,,,,,,,,,,1079.7880276041105,,,,,,,,,,,,,,AMP_prac,right,1.2505703286733478,6,,,left,1.665782749420032,,,,,,,,,,,,,,,,,,,,,,,,,1028,2019_Jun_06_1656,mf_amp_cond1,3.0.7,59.98020501303595,
ability,&&&&&&&,images/symbols/symbol_67.png,condition_files/AMP_rep3.csv,left,authority.virtue,,,,,,,,,,,,,,0,1,1,2,0,18,18,18,,,,,,,,,,,,,,,,,,,,,1080.5715509508736,,,,,,,,,,,,,,AMP_prac,right,1.2505703286733478,6,,,right,0.5659389102365822,,,,,,,,,,,,,,,,,,,,,,,,,1028,2019_Jun_06_1656,mf_amp_cond1,3.0.7,59.98020501303595,
prison,&&&&&&,images/symbols/symbol_59.png,condition_files/AMP_rep3.csv,right,fairness.vice,,,,,,,,,,,,,,0,1,1,2,0,19,19,19,,,,,,,,,,,,,,,,,,,,,1081.1883859818336,,,,,,,,,,,,,,AMP_prac,right,1.2505703286733478,6,,,left,0.39939171355217695,,,,,,,,,,,,,,,,,,,,,,,,,1028,2019_Jun_06_1656,mf_amp_cond1,3.0.7,59.98020501303595,
penalty,&&&&&&&,images/symbols/symbol_23.png,condition_files/AMP_rep3.csv,right,authority.vice,,,,,,,,,,,,,,0,1,1,2,0,20,20,20,,,,,,,,,,,,,,,,,,,,,1082.3720313322265,,,,,,,,,,,,,,AMP_prac,right,1.2505703286733478,6,,,right,0.9660913827829063,,,,,,,,,,,,,,,,,,,,,,,,,1028,2019_Jun_06_1656,mf_amp_cond1,3.0.7,59.98020501303595,
encourage,&&&&&&&&&,images/symbols/symbol_47.png,condition_files/AMP_rep3.csv,left,authority.virtue,,,,,,,,,,,,,,0,1,1,2,0,21,21,21,,,,,,,,,,,,,,,,,,,,,1085.2061146802735,,,,,,,,,,,,,,AMP_prac,right,1.2505703286733478,6,,,right,2.6165970533620566,,,,,,,,,,,,,,,,,,,,,,,,,1028,2019_Jun_06_1656,mf_amp_cond1,3.0.7,59.98020501303595,
hate,&&&&,images/symbols/symbol_24.png,condition_files/AMP_rep3.csv,right,fairness.vice,,,,,,,,,,,,,,0,1,1,2,0,22,22,22,,,,,,,,,,,,,,,,,,,,,1085.8062720277812,,,,,,,,,,,,,,AMP_prac,right,1.2505703286733478,6,,,left,0.36699916212819517,,,,,,,,,,,,,,,,,,,,,,,,,1028,2019_Jun_06_1656,mf_amp_cond1,3.0.7,59.98020501303595,
preighs,&&&&&&&,images/symbols/symbol_5.png,condition_files/AMP_rep3.csv,None,nonword,,,,,,,,,,,,,,0,1,1,2,0,23,23,23,,,,,,,,,,,,,,,,,,,,,1087.806785508059,,,,,,,,,,,,,,AMP_prac,right,1.2505703286733478,6,,,left,1.7826275627594441,,,,,,,,,,,,,,,,,,,,,,,,,1028,2019_Jun_06_1656,mf_amp_cond1,3.0.7,59.98020501303595,
help,&&&&,images/symbols/symbol_30.png,condition_files/AMP_rep3.csv,left,care.virtue,,,,,,,,,,,,,,0,1,1,2,0,24,24,24,,,,,,,,,,,,,,,,,,,,,1090.2907779787201,,,,,,,,,,,,,,AMP_prac,right,1.2505703286733478,6,,,left,2.266612336039543,,,,,,,,,,,,,,,,,,,,,,,,,1028,2019_Jun_06_1656,mf_amp_cond1,3.0.7,59.98020501303595,
peace,&&&&&,images/symbols/symbol_28.png,condition_files/AMP_rep3.csv,left,care.virtue,,,,,,,,,,,,,,0,1,1,2,0,25,25,25,,,,,,,,,,,,,,,,,,,,,1090.9076117267832,,,,,,,,,,,,,,AMP_prac,right,1.2505703286733478,6,,,right,0.39900556090287864,,,,,,,,,,,,,,,,,,,,,,,,,1028,2019_Jun_06_1656,mf_amp_cond1,3.0.7,59.98020501303595,
terrorists,&&&&&&&&&&,images/symbols/symbol_10.png,condition_files/AMP_rep3.csv,right,fairness.vice,,,,,,,,,,,,,,0,1,1,2,0,26,26,26,,,,,,,,,,,,,,,,,,,,,1091.5577787121292,,,,,,,,,,,,,,AMP_prac,right,1.2505703286733478,6,,,left,0.43283495935611427,,,,,,,,,,,,,,,,,,,,,,,,,1028,2019_Jun_06_1656,mf_amp_cond1,3.0.7,59.98020501303595,
health,&&&&&&,images/symbols/symbol_16.png,condition_files/AMP_rep3.csv,left,care.virtue,,,,,,,,,,,,,,0,1,1,2,0,27,27,27,,,,,,,,,,,,,,,,,,,,,1092.6580657928716,,,,,,,,,,,,,,AMP_prac,right,1.2505703286733478,6,,,right,0.8830977771431208,,,,,,,,,,,,,,,,,,,,,,,,,1028,2019_Jun_06_1656,mf_amp_cond1,3.0.7,59.98020501303595,
jogns,&&&&&,images/symbols/symbol_43.png,condition_files/AMP_rep3.csv,None,nonword,,,,,,,,,,,,,,0,1,1,2,0,28,28,28,,,,,,,,,,,,,,,,,,,,,1095.0086833001114,,,,,,,,,,,,,,AMP_prac,right,1.2505703286733478,6,,,right,2.1174375123810023,,,,,,,,,,,,,,,,,,,,,,,,,1028,2019_Jun_06_1656,mf_amp_cond1,3.0.7,59.98020501303595,
crime,&&&&&,images/symbols/symbol_20.png,condition_files/AMP_rep3.csv,right,fairness.vice,,,,,,,,,,,,,,0,1,1,2,0,29,29,29,,,,,,,,,,,,,,,,,,,,,1095.7922214001883,,,,,,,,,,,,,,AMP_prac,right,1.2505703286733478,6,,,left,0.5660883679520339,,,,,,,,,,,,,,,,,,,,,,,,,1028,2019_Jun_06_1656,mf_amp_cond1,3.0.7,59.98020501303595,
attacks,&&&&&&&,images/symbols/symbol_2.png,condition_files/AMP_rep3.csv,right,care.vice,,,,,,,,,,,,,,0,1,1,2,0,30,30,30,,,,,,,,,,,,,,,,,,,,,1098.6262989749666,,,,,,,,,,,,,,AMP_prac,right,1.2505703286733478,6,,,left,2.616588073084131,,,,,,,,,,,,,,,,,,,,,,,,,1028,2019_Jun_06_1656,mf_amp_cond1,3.0.7,59.98020501303595,
conspiracy,&&&&&&&&&&,images/symbols/symbol_53.png,condition_files/AMP_rep3.csv,right,sanctity.vice,,,,,,,,,,,,,,0,1,1,2,0,31,31,31,,,,,,,,,,,,,,,,,,,,,1099.8432852600235,,,,,,,,,,,,,,AMP_prac,right,1.2505703286733478,6,,,left,0.9838226470164955,,,,,,,,,,,,,,,,,,,,,,,,,1028,2019_Jun_06_1656,mf_amp_cond1,3.0.7,59.98020501303595,
embrace,&&&&&&&,images/symbols/symbol_65.png,condition_files/AMP_rep3.csv,left,authority.virtue,,,,,,,,,,,,,,0,1,1,2,0,32,32,32,,,,,,,,,,,,,,,,,,,,,1100.3934413085226,,,,,,,,,,,,,,AMP_prac,right,1.2505703286733478,6,,,right,0.33208314841613173,,,,,,,,,,,,,,,,,,,,,,,,,1028,2019_Jun_06_1656,mf_amp_cond1,3.0.7,59.98020501303595,
illegal,&&&&&&&,images/symbols/symbol_12.png,condition_files/AMP_rep3.csv,right,fairness.vice,,,,,,,,,,,,,,0,1,1,2,0,33,33,33,,,,,,,,,,,,,,,,,,,,,1102.410617398331,,,,,,,,,,,,,,AMP_prac,right,1.2505703286733478,6,,,left,1.784009886207059,,,,,,,,,,,,,,,,,,,,,,,,,1028,2019_Jun_06_1656,mf_amp_cond1,3.0.7,59.98020501303595,
ensure,&&&&&&,images/symbols/symbol_76.png,condition_files/AMP_rep3.csv,left,fairness.virtue,,,,,,,,,,,,,,0,1,1,2,0,34,34,34,,,,,,,,,,,,,,,,,,,,,1105.461437186459,,,,,,,,,,,,,,AMP_prac,right,1.2505703286733478,6,,,right,2.833057349547744,,,,,,,,,,,,,,,,,,,,,,,,,1028,2019_Jun_06_1656,mf_amp_cond1,3.0.7,59.98020501303595,
strong,&&&&&&,images/symbols/symbol_46.png,condition_files/AMP_rep3.csv,left,loyalty.virtue,,,,,,,,,,,,,,0,1,1,2,0,35,35,35,,,,,,,,,,,,,,,,,,,,,1106.3449968071654,,,,,,,,,,,,,,AMP_prac,right,1.2505703286733478,6,,,right,0.6659726183861494,,,,,,,,,,,,,,,,,,,,,,,,,1028,2019_Jun_06_1656,mf_amp_cond1,3.0.7,59.98020501303595,
free,&&&&,images/symbols/symbol_82.png,condition_files/AMP_rep3.csv,left,fairness.virtue,,,,,,,,,,,,,,0,1,1,2,0,36,36,36,,,,,,,,,,,,,,,,,,,,,1106.8784639469814,,,,,,,,,,,,,,AMP_prac,right,1.2505703286733478,6,,,right,0.3163852789439261,,,,,,,,,,,,,,,,,,,,,,,,,1028,2019_Jun_06_1656,mf_amp_cond1,3.0.7,59.98020501303595,
betrayal,&&&&&&&&,images/symbols/symbol_61.png,condition_files/AMP_rep3.csv,right,loyalty.vice,,,,,,,,,,,,,,0,1,1,2,0,37,37,37,,,,,,,,,,,,,,,,,,,,,1107.4953098825645,,,,,,,,,,,,,,AMP_prac,right,1.2505703286733478,6,,,left,0.38367716618813574,,,,,,,,,,,,,,,,,,,,,,,,,1028,2019_Jun_06_1656,mf_amp_cond1,3.0.7,59.98020501303595,
refused,&&&&&&&,images/symbols/symbol_70.png,condition_files/AMP_rep3.csv,right,authority.vice,,,,,,,,,,,,,,0,1,1,2,0,38,38,38,,,,,,,,,,,,,,,,,,,,,1108.362183801597,,,,,,,,,,,,,,AMP_prac,right,1.2505703286733478,6,,,left,0.6488167343195528,,,,,,,,,,,,,,,,,,,,,,,,,1028,2019_Jun_06_1656,mf_amp_cond1,3.0.7,59.98020501303595,
army,&&&&,images/symbols/symbol_58.png,condition_files/AMP_rep3.csv,right,loyalty.vice,,,,,,,,,,,,,,0,1,1,2,0,39,39,39,,,,,,,,,,,,,,,,,,,,,1109.7125370316207,,,,,,,,,,,,,,AMP_prac,right,1.2505703286733478,6,,,right,1.1328986873850226,,,,,,,,,,,,,,,,,,,,,,,,,1028,2019_Jun_06_1656,mf_amp_cond1,3.0.7,59.98020501303595,
sharing,&&&&&&&,images/symbols/symbol_78.png,condition_files/AMP_rep3.csv,left,loyalty.virtue,,,,,,,,,,,,,,0,1,1,2,0,40,40,40,,,,,,,,,,,,,,,,,,,,,1110.579444626812,,,,,,,,,,,,,,AMP_prac,right,1.2505703286733478,6,,,right,0.649309046799317,,,,,,,,,,,,,,,,,,,,,,,,,1028,2019_Jun_06_1656,mf_amp_cond1,3.0.7,59.98020501303595,
slavery,&&&&&&&,images/symbols/symbol_45.png,condition_files/AMP_rep3.csv,right,loyalty.vice,,,,,,,,,,,,,,0,1,1,2,0,41,41,41,,,,,,,,,,,,,,,,,,,,,1111.196269394597,,,,,,,,,,,,,,AMP_prac,right,1.2505703286733478,6,,,left,0.39925380190834403,,,,,,,,,,,,,,,,,,,,,,,,,1028,2019_Jun_06_1656,mf_amp_cond1,3.0.7,59.98020501303595,
arrests,&&&&&&&,images/symbols/symbol_31.png,condition_files/AMP_rep3.csv,right,authority.vice,,,,,,,,,,,,,,0,1,1,2,0,42,42,42,,,,,,,,,,,,,,,,,,,,,1114.063694959972,,,,,,,,,,,,,,AMP_prac,right,1.2505703286733478,6,,,right,2.634270266396925,,,,,,,,,,,,,,,,,,,,,,,,,1028,2019_Jun_06_1656,mf_amp_cond1,3.0.7,59.98020501303595,
harassment,&&&&&&&&&&,images/symbols/symbol_3.png,condition_files/AMP_rep3.csv,right,sanctity.vice,,,,,,,,,,,,,,0,1,1,2,0,43,43,43,,,,,,,,,,,,,,,,,,,,,1115.9475185370538,,,,,,,,,,,,,,AMP_prac,right,1.2505703286733478,6,,,left,1.6655444509815425,,,,,,,,,,,,,,,,,,,,,,,,,1028,2019_Jun_06_1656,mf_amp_cond1,3.0.7,59.98020501303595,
growth,&&&&&&,images/symbols/symbol_21.png,condition_files/AMP_rep3.csv,left,care.virtue,,,,,,,,,,,,,,0,1,1,2,0,44,44,44,,,,,,,,,,,,,,,,,,,,,1119.4817720938008,,,,,,,,,,,,,,AMP_prac,right,1.2505703286733478,6,,,right,3.316907739499584,,,,,,,,,,,,,,,,,,,,,,,,,1028,2019_Jun_06_1656,mf_amp_cond1,3.0.7,59.98020501303595,
victims,&&&&&&&,images/symbols/symbol_4.png,condition_files/AMP_rep3.csv,right,care.vice,,,,,,,,,,,,,,0,1,1,2,0,45,45,45,,,,,,,,,,,,,,,,,,,,,1123.232766580768,,,,,,,,,,,,,,AMP_prac,right,1.2505703286733478,6,,,left,3.5332333312835544,,,,,,,,,,,,,,,,,,,,,,,,,1028,2019_Jun_06_1656,mf_amp_cond1,3.0.7,59.98020501303595,
death,&&&&&,images/symbols/symbol_8.png,condition_files/AMP_rep3.csv,right,care.vice,,,,,,,,,,,,,,0,1,1,2,0,46,46,46,,,,,,,,,,,,,,,,,,,,,1123.949516972527,,,,,,,,,,,,,,AMP_prac,right,1.2505703286733478,6,,,left,0.49934107111766934,,,,,,,,,,,,,,,,,,,,,,,,,1028,2019_Jun_06_1656,mf_amp_cond1,3.0.7,59.98020501303595,
naidd,&&&&&,images/symbols/symbol_55.png,condition_files/AMP_rep3.csv,None,nonword,,,,,,,,,,,,,,0,1,1,2,0,47,47,47,,,,,,,,,,,,,,,,,,,,,1125.1832758756354,,,,,,,,,,,,,,AMP_prac,right,1.2505703286733478,6,,,left,1.000500971917063,,,,,,,,,,,,,,,,,,,,,,,,,1028,2019_Jun_06_1656,mf_amp_cond1,3.0.7,59.98020501303595,
respect,&&&&&&&,images/symbols/symbol_29.png,condition_files/AMP_rep3.csv,left,sanctity.virtue,,,,,,,,,,,,,,0,1,1,2,0,48,48,48,,,,,,,,,,,,,,,,,,,,,1126.2002021207009,,,,,,,,,,,,,,AMP_prac,right,1.2505703286733478,6,,,right,0.798520433017984,,,,,,,,,,,,,,,,,,,,,,,,,1028,2019_Jun_06_1656,mf_amp_cond1,3.0.7,59.98020501303595,
safety,&&&&&&,images/symbols/symbol_64.png,condition_files/AMP_rep3.csv,left,care.virtue,,,,,,,,,,,,,,0,1,1,2,0,49,49,49,,,,,,,,,,,,,,,,,,,,,1126.9170868962537,,,,,,,,,,,,,,AMP_prac,right,1.2505703286733478,6,,,right,0.4992753225378692,,,,,,,,,,,,,,,,,,,,,,,,,1028,2019_Jun_06_1656,mf_amp_cond1,3.0.7,59.98020501303595,
thinx,&&&&&,images/symbols/symbol_63.png,condition_files/AMP_rep3.csv,None,nonword,,,,,,,,,,,,,,0,1,1,2,0,50,50,50,,,,,,,,,,,,,,,,,,,,,1128.2340664779767,,,,,,,,,,,,,,AMP_prac,right,1.2505703286733478,6,,,right,1.0996716099325567,,,,,,,,,,,,,,,,,,,,,,,,,1028,2019_Jun_06_1656,mf_amp_cond1,3.0.7,59.98020501303595,
useful,&&&&&&,images/symbols/symbol_57.png,condition_files/AMP_rep3.csv,left,authority.virtue,,,,,,,,,,,,,,0,1,1,2,0,51,51,51,,,,,,,,,,,,,,,,,,,,,1128.8509005468804,,,,,,,,,,,,,,AMP_prac,right,1.2505703286733478,6,,,right,0.3993285307660699,,,,,,,,,,,,,,,,,,,,,,,,,1028,2019_Jun_06_1656,mf_amp_cond1,3.0.7,59.98020501303595,
friends,&&&&&&&,images/symbols/symbol_66.png,condition_files/AMP_rep3.csv,left,loyalty.virtue,,,,,,,,,,,,,,0,1,1,2,0,52,52,52,,,,,,,,,,,,,,,,,,,,,1129.4343834179454,,,,,,,,,,,,,,AMP_prac,right,1.2505703286733478,6,,,right,0.3660982463043183,,,,,,,,,,,,,,,,,,,,,,,,,1028,2019_Jun_06_1656,mf_amp_cond1,3.0.7,59.98020501303595,
splysed,&&&&&&&,images/symbols/symbol_32.png,condition_files/AMP_rep3.csv,None,nonword,,,,,,,,,,,,,,0,1,1,2,0,53,53,53,,,,,,,,,,,,,,,,,,,,,1130.1345635689795,,,,,,,,,,,,,,AMP_prac,right,1.2505703286733478,6,,,left,0.4826377294957638,,,,,,,,,,,,,,,,,,,,,,,,,1028,2019_Jun_06_1656,mf_amp_cond1,3.0.7,59.98020501303595,
strength,&&&&&&&&,images/symbols/symbol_69.png,condition_files/AMP_rep3.csv,left,sanctity.virtue,,,,,,,,,,,,,,0,1,1,2,0,54,54,54,,,,,,,,,,,,,,,,,,,,,1131.3015341223218,,,,,,,,,,,,,,AMP_prac,right,1.2505703286733478,6,,,right,0.9493938144296408,,,,,,,,,,,,,,,,,,,,,,,,,1028,2019_Jun_06_1656,mf_amp_cond1,3.0.7,59.98020501303595,
soughste,&&&&&&&&,images/symbols/symbol_75.png,condition_files/AMP_rep3.csv,None,nonword,,,,,,,,,,,,,,0,1,1,2,0,55,55,55,,,,,,,,,,,,,,,,,,,,,1135.4692949412856,,,,,,,,,,,,,,AMP_prac,right,1.2505703286733478,6,,,right,3.9502960129175335,,,,,,,,,,,,,,,,,,,,,,,,,1028,2019_Jun_06_1656,mf_amp_cond1,3.0.7,59.98020501303595,
ban,&&&,images/symbols/symbol_72.png,condition_files/AMP_rep3.csv,right,loyalty.vice,,,,,,,,,,,,,,0,1,1,2,0,56,56,56,,,,,,,,,,,,,,,,,,,,,1138.7534868386574,,,,,,,,,,,,,,AMP_prac,right,1.2505703286733478,6,,,right,3.066099753603339,,,,,,,,,,,,,,,,,,,,,,,,,1028,2019_Jun_06_1656,mf_amp_cond1,3.0.7,59.98020501303595,
great,&&&&&,images/symbols/symbol_44.png,condition_files/AMP_rep3.csv,left,loyalty.virtue,,,,,,,,,,,,,,0,1,1,2,0,57,57,57,,,,,,,,,,,,,,,,,,,,,1141.8709753463045,,,,,,,,,,,,,,AMP_prac,right,1.2505703286733478,6,,,left,2.8843072298914194,,,,,,,,,,,,,,,,,,,,,,,,,1028,2019_Jun_06_1656,mf_amp_cond1,3.0.7,59.98020501303595,
fear,&&&&,images/symbols/symbol_49.png,condition_files/AMP_rep3.csv,right,sanctity.vice,,,,,,,,,,,,,,0,1,1,2,0,58,58,58,,,,,,,,,,,,,,,,,,,,,1142.9712739728857,,,,,,,,,,,,,,AMP_prac,right,1.2505703286733478,6,,,left,0.8671192731708288,,,,,,,,,,,,,,,,,,,,,,,,,1028,2019_Jun_06_1656,mf_amp_cond1,3.0.7,59.98020501303595,
voter,&&&&&,images/symbols/symbol_26.png,condition_files/AMP_rep3.csv,right,fairness.vice,,,,,,,,,,,,,,0,1,1,2,0,59,59,59,,,,,,,,,,,,,,,,,,,,,1143.8215058087371,,,,,,,,,,,,,,AMP_prac,right,1.2505703286733478,6,,,right,0.6320530965458602,,,,,,,,,,,,,,,,,,,,,,,,,1028,2019_Jun_06_1656,mf_amp_cond1,3.0.7,59.98020501303595,
opportunity,&&&&&&&&&&&,images/symbols/symbol_7.png,condition_files/AMP_rep3.csv,left,fairness.virtue,,,,,,,,,,,,,,0,1,1,2,0,60,60,60,,,,,,,,,,,,,,,,,,,,,1144.9551177877001,,,,,,,,,,,,,,AMP_prac,right,1.2505703286733478,6,,,right,0.9162103557027876,,,,,,,,,,,,,,,,,,,,,,,,,1028,2019_Jun_06_1656,mf_amp_cond1,3.0.7,59.98020501303595,
promote,&&&&&&&,images/symbols/symbol_18.png,condition_files/AMP_rep3.csv,left,sanctity.virtue,,,,,,,,,,,,,,0,1,1,2,0,61,61,61,,,,,,,,,,,,,,,,,,,,,1145.8053448128048,,,,,,,,,,,,,,AMP_prac,right,1.2505703286733478,6,,,right,0.6328536255750805,,,,,,,,,,,,,,,,,,,,,,,,,1028,2019_Jun_06_1656,mf_amp_cond1,3.0.7,59.98020501303595,
wrantse,&&&&&&&,images/symbols/symbol_80.png,condition_files/AMP_rep3.csv,None,nonword,,,,,,,,,,,,,,0,1,1,2,0,62,62,62,,,,,,,,,,,,,,,,,,,,,1147.0056729782373,,,,,,,,,,,,,,AMP_prac,right,1.2505703286733478,6,,,right,0.9832135906908661,,,,,,,,,,,,,,,,,,,,,,,,,1028,2019_Jun_06_1656,mf_amp_cond1,3.0.7,59.98020501303595,
war,&&&,images/symbols/symbol_35.png,condition_files/AMP_rep3.csv,right,sanctity.vice,,,,,,,,,,,,,,0,1,1,2,0,63,63,63,,,,,,,,,,,,,,,,,,,,,1147.5224585856777,,,,,,,,,,,,,,AMP_prac,right,1.2505703286733478,6,,,left,0.29919539811089635,,,,,,,,,,,,,,,,,,,,,,,,,1028,2019_Jun_06_1656,mf_amp_cond1,3.0.7,59.98020501303595,
bipht,&&&&&,images/symbols/symbol_74.png,condition_files/AMP_rep3.csv,None,nonword,,,,,,,,,,,,,,0,1,1,2,0,64,64,64,,,,,,,,,,,,,,,,,,,,,1148.7728005582467,,,,,,,,,,,,,,AMP_prac,right,1.2505703286733478,6,,,right,1.017178655602038,,,,,,,,,,,,,,,,,,,,,,,,,1028,2019_Jun_06_1656,mf_amp_cond1,3.0.7,59.98020501303595,
loyalty,&&&&&&&,images/symbols/symbol_79.png,condition_files/AMP_rep3.csv,left,loyalty.virtue,,,,,,,,,,,,,,0,1,1,2,0,65,65,65,,,,,,,,,,,,,,,,,,,,,1150.2065027570352,,,,,,,,,,,,,,AMP_prac,right,1.2505703286733478,6,,,right,1.2153643800411373,,,,,,,,,,,,,,,,,,,,,,,,,1028,2019_Jun_06_1656,mf_amp_cond1,3.0.7,59.98020501303595,
fair,&&&&,images/symbols/symbol_19.png,condition_files/AMP_rep3.csv,left,fairness.virtue,,,,,,,,,,,,,,0,1,1,2,0,66,66,66,,,,,,,,,,,,,,,,,,,,,1151.6068800576031,,,,,,,,,,,,,,AMP_prac,right,1.2505703286733478,6,,,right,1.182836482534185,,,,,,,,,,,,,,,,,,,,,,,,,1028,2019_Jun_06_1656,mf_amp_cond1,3.0.7,59.98020501303595,
unpleasant,&&&&&&&&&,images/symbols/symbol_81.png,condition_files/AMP_rep3.csv,left,control,,,,,,,,,,,,,,0,1,1,2,0,67,67,67,,,,,,,,,,,,,,,,,,,,,1152.3904111017473,,,,,,,,,,,,,,AMP_prac,right,1.2505703286733478,6,,,left,0.5503754243254662,,,,,,,,,,,,,,,,,,,,,,,,,1028,2019_Jun_06_1656,mf_amp_cond1,3.0.7,59.98020501303595,
critics,&&&&&&&,images/symbols/symbol_41.png,condition_files/AMP_rep3.csv,right,loyalty.vice,,,,,,,,,,,,,,0,1,1,2,0,68,68,68,,,,,,,,,,,,,,,,,,,,,1153.35732257762,,,,,,,,,,,,,,AMP_prac,right,1.2505703286733478,6,,,right,0.7494418588466942,,,,,,,,,,,,,,,,,,,,,,,,,1028,2019_Jun_06_1656,mf_amp_cond1,3.0.7,59.98020501303595,
abuse,&&&&&,images/symbols/symbol_71.png,condition_files/AMP_rep3.csv,right,sanctity.vice,,,,,,,,,,,,,,0,1,1,2,0,69,69,69,,,,,,,,,,,,,,,,,,,,,1154.274279259378,,,,,,,,,,,,,,AMP_prac,right,1.2505703286733478,6,,,left,0.6837786112446338,,,,,,,,,,,,,,,,,,,,,,,,,1028,2019_Jun_06_1656,mf_amp_cond1,3.0.7,59.98020501303595,
hand,&&&&,images/symbols/symbol_25.png,condition_files/AMP_rep3.csv,left,sanctity.virtue,,,,,,,,,,,,,,0,1,1,2,0,70,70,70,,,,,,,,,,,,,,,,,,,,,1155.357866847422,,,,,,,,,,,,,,AMP_prac,right,1.2505703286733478,6,,,right,0.8657058398239315,,,,,,,,,,,,,,,,,,,,,,,,,1028,2019_Jun_06_1656,mf_amp_cond1,3.0.7,59.98020501303595,
officers,&&&&&&&&,images/symbols/symbol_48.png,condition_files/AMP_rep3.csv,right,authority.vice,,,,,,,,,,,,,,0,1,1,2,0,71,71,71,,,,,,,,,,,,,,,,,,,,,1156.0080155513715,,,,,,,,,,,,,,AMP_prac,right,1.2505703286733478,6,,,left,0.4326348272152245,,,,,,,,,,,,,,,,,,,,,,,,,1028,2019_Jun_06_1656,mf_amp_cond1,3.0.7,59.98020501303595,
commitment,&&&&&&&&&&,images/symbols/symbol_62.png,condition_files/AMP_rep3.csv,left,sanctity.virtue,,,,,,,,,,,,,,0,1,1,2,0,72,72,72,,,,,,,,,,,,,,,,,,,,,1158.8921412511263,,,,,,,,,,,,,,AMP_prac,right,1.2505703286733478,6,,,right,2.6509415353648365,,,,,,,,,,,,,,,,,,,,,,,,,1028,2019_Jun_06_1656,mf_amp_cond1,3.0.7,59.98020501303595,
groups,&&&&&&,images/symbols/symbol_39.png,condition_files/AMP_rep3.csv,right,loyalty.vice,,,,,,,,,,,,,,0,1,1,2,0,73,73,73,,,,,,,,,,,,,,,,,,,,,1162.0596410001162,,,,,,,,,,,,,,AMP_prac,right,1.2505703286733478,6,,,right,2.9495281979907304,,,,,,,,,,,,,,,,,,,,,,,,,1028,2019_Jun_06_1656,mf_amp_cond1,3.0.7,59.98020501303595,
terrorist,&&&&&&&&&,images/symbols/symbol_77.png,condition_files/AMP_rep3.csv,right,loyalty.vice,,,,,,,,,,,,,,0,1,1,2,0,74,74,74,,,,,,,,,,,,,,,,,,,,,1162.5764105711132,,,,,,,,,,,,,,AMP_prac,right,1.2505703286733478,6,,,left,0.29939296445809305,,,,,,,,,,,,,,,,,,,,,,,,,1028,2019_Jun_06_1656,mf_amp_cond1,3.0.7,59.98020501303595,
scandal,&&&&&&&,images/symbols/symbol_37.png,condition_files/AMP_rep3.csv,right,sanctity.vice,,,,,,,,,,,,,,0,1,1,2,0,75,75,75,,,,,,,,,,,,,,,,,,,,,1163.4099711379968,,,,,,,,,,,,,,AMP_prac,right,1.2505703286733478,6,,,left,0.6003975705243647,,,,,,,,,,,,,,,,,,,,,,,,,1028,2019_Jun_06_1656,mf_amp_cond1,3.0.7,59.98020501303595,
coacs,&&&&&,images/symbols/symbol_1.png,condition_files/AMP_rep3.csv,None,nonword,,,,,,,,,,,,,,0,1,1,2,0,76,76,76,,,,,,,,,,,,,,,,,,,,,1164.4435734630097,,,,,,,,,,,,,,AMP_prac,right,1.2505703286733478,6,,,left,0.8156496968585998,,,,,,,,,,,,,,,,,,,,,,,,,1028,2019_Jun_06_1656,mf_amp_cond1,3.0.7,59.98020501303595,
improve,&&&&&&&,images/symbols/symbol_51.png,condition_files/AMP_rep3.csv,left,care.virtue,,,,,,,,,,,,,,0,1,1,2,0,77,77,77,,,,,,,,,,,,,,,,,,,,,1166.2607379425317,,,,,,,,,,,,,,AMP_prac,right,1.2505703286733478,6,,,right,1.5839937857817858,,,,,,,,,,,,,,,,,,,,,,,,,1028,2019_Jun_06_1656,mf_amp_cond1,3.0.7,59.98020501303595,
pleasant,&&&&&&&,images/symbols/symbol_11.png,condition_files/AMP_rep3.csv,right,control,,,,,,,,,,,,,,0,1,1,2,0,78,78,78,,,,,,,,,,,,,,,,,,,,,1168.2945875464939,,,,,,,,,,,,,,AMP_prac,right,1.2505703286733478,6,,,right,1.8161628562957048,,,,,,,,,,,,,,,,,,,,,,,,,1028,2019_Jun_06_1656,mf_amp_cond1,3.0.7,59.98020501303595,
celebrated,&&&&&&&&&&,images/symbols/symbol_36.png,condition_files/AMP_rep3.csv,left,authority.virtue,,,,,,,,,,,,,,0,1,1,2,0,79,79,79,,,,,,,,,,,,,,,,,,,,,1169.144807515433,,,,,,,,,,,,,,AMP_prac,right,1.2505703286733478,6,,,right,0.6326137233991176,,,,,,,,,,,,,,,,,,,,,,,,,1028,2019_Jun_06_1656,mf_amp_cond1,3.0.7,59.98020501303595,
died,&&&&,images/symbols/symbol_6.png,condition_files/AMP_rep3.csv,right,care.vice,,,,,,,,,,,,,,0,1,1,2,0,80,80,80,,,,,,,,,,,,,,,,,,,,,1169.744955882663,,,,,,,,,,,,,,AMP_prac,right,1.2505703286733478,6,,,left,0.3669933888595551,,,,,,,,,,,,,,,,,,,,,,,,,1028,2019_Jun_06_1656,mf_amp_cond1,3.0.7,59.98020501303595,
love,&&&&,images/symbols/symbol_40.png,condition_files/AMP_rep3.csv,left,loyalty.virtue,,,,,,,,,,,,,,0,1,1,2,0,81,81,81,,,,,,,,,,,,,,,,,,,,,1170.595197019633,,,,,,,,,,,,,,AMP_prac,right,1.2505703286733478,6,,,right,0.6323908197227865,,,,,,,,,,,,,,,,,,,,,,,,,1028,2019_Jun_06_1656,mf_amp_cond1,3.0.7,59.98020501303595,
,,,condition_files/AMP_rep3.csv,,,,,,,,,,,,,,,,0,1,1,2,,,,,,,,,,,,,,,,,,,,,,,,,,,,,,,,,,,,,,,,,,,,,,,right,3.067694717552513,,,,,,,,,,,,,,,,,,,,,,,1028,2019_Jun_06_1656,mf_amp_cond1,3.0.7,59.98020501303595,
ailled,&&&&&&,images/symbols/symbol_73.png,condition_files/AMP_rep4.csv,None,nonword,,,,,,,,,,,,,,0,2,2,3,0,0,0,0,,,,,,,,,,,,,,,,,,,,,1177.730541873956,,,,,,,,,,,,,,AMP_prac,right,1.2505703286733478,6,,,right,3.817904070718214,,,,,,,,,,,,,,,,,,,,,,,,,1028,2019_Jun_06_1656,mf_amp_cond1,3.0.7,59.98020501303595,
torture,&&&&&&&,images/symbols/symbol_9.png,condition_files/AMP_rep4.csv,right,care.vice,,,,,,,,,,,,,,0,2,2,3,0,1,1,1,,,,,,,,,,,,,,,,,,,,,1178.5472656777129,,,,,,,,,,,,,,AMP_prac,right,1.2505703286733478,6,,,left,0.5837141135707498,,,,,,,,,,,,,,,,,,,,,,,,,1028,2019_Jun_06_1656,mf_amp_cond1,3.0.7,59.98020501303595,
trust,&&&&&,images/symbols/symbol_42.png,condition_files/AMP_rep4.csv,left,authority.virtue,,,,,,,,,,,,,,0,2,2,3,0,2,2,2,,,,,,,,,,,,,,,,,,,,,1179.4641857971437,,,,,,,,,,,,,,AMP_prac,right,1.2505703286733478,6,,,right,0.6989976391196251,,,,,,,,,,,,,,,,,,,,,,,,,1028,2019_Jun_06_1656,mf_amp_cond1,3.0.7,59.98020501303595,
killed,&&&&&&,images/symbols/symbol_50.png,condition_files/AMP_rep4.csv,right,care.vice,,,,,,,,,,,,,,0,2,2,3,0,3,3,3,,,,,,,,,,,,,,,,,,,,,1180.0476600087713,,,,,,,,,,,,,,AMP_prac,right,1.2505703286733478,6,,,left,0.3659298657439649,,,,,,,,,,,,,,,,,,,,,,,,,1028,2019_Jun_06_1656,mf_amp_cond1,3.0.7,59.98020501303595,
civilians,&&&&&&&&&,images/symbols/symbol_34.png,condition_files/AMP_rep4.csv,right,care.vice,,,,,,,,,,,,,,0,2,2,3,0,4,4,4,,,,,,,,,,,,,,,,,,,,,1181.1146096829325,,,,,,,,,,,,,,AMP_prac,right,1.2505703286733478,6,,,right,0.8492241187486798,,,,,,,,,,,,,,,,,,,,,,,,,1028,2019_Jun_06_1656,mf_amp_cond1,3.0.7,59.98020501303595,
promises,&&&&&&&&,images/symbols/symbol_14.png,condition_files/AMP_rep4.csv,left,fairness.virtue,,,,,,,,,,,,,,0,2,2,3,0,5,5,5,,,,,,,,,,,,,,,,,,,,,1182.9818216457497,,,,,,,,,,,,,,AMP_prac,right,1.2505703286733478,6,,,right,1.6495778139214963,,,,,,,,,,,,,,,,,,,,,,,,,1028,2019_Jun_06_1656,mf_amp_cond1,3.0.7,59.98020501303595,
fighters,&&&&&&&&,images/symbols/symbol_68.png,condition_files/AMP_rep4.csv,right,authority.vice,,,,,,,,,,,,,,0,2,2,3,0,6,6,6,,,,,,,,,,,,,,,,,,,,,1183.915353700053,,,,,,,,,,,,,,AMP_prac,right,1.2505703286733478,6,,,right,0.7004200529772788,,,,,,,,,,,,,,,,,,,,,,,,,1028,2019_Jun_06_1656,mf_amp_cond1,3.0.7,59.98020501303595,
rebels,&&&&&&,images/symbols/symbol_33.png,condition_files/AMP_rep4.csv,right,authority.vice,,,,,,,,,,,,,,0,2,2,3,0,7,7,7,,,,,,,,,,,,,,,,,,,,,1185.0323033900931,,,,,,,,,,,,,,AMP_prac,right,1.2505703286733478,6,,,right,0.8990284928586334,,,,,,,,,,,,,,,,,,,,,,,,,1028,2019_Jun_06_1656,mf_amp_cond1,3.0.7,59.98020501303595,
praise,&&&&&&,images/symbols/symbol_54.png,condition_files/AMP_rep4.csv,left,authority.virtue,,,,,,,,,,,,,,0,2,2,3,0,8,8,8,,,,,,,,,,,,,,,,,,,,,1186.2326171230525,,,,,,,,,,,,,,AMP_prac,right,1.2505703286733478,6,,,right,0.9671411148738116,,,,,,,,,,,,,,,,,,,,,,,,,1028,2019_Jun_06_1656,mf_amp_cond1,3.0.7,59.98020501303595,
credit,&&&&&&,images/symbols/symbol_17.png,condition_files/AMP_rep4.csv,left,fairness.virtue,,,,,,,,,,,,,,0,2,2,3,0,9,9,9,,,,,,,,,,,,,,,,,,,,,1189.500155070331,,,,,,,,,,,,,,AMP_prac,right,1.2505703286733478,6,,,right,3.0494137313216925,,,,,,,,,,,,,,,,,,,,,,,,,1028,2019_Jun_06_1656,mf_amp_cond1,3.0.7,59.98020501303595,
increase,&&&&&&&&,images/symbols/symbol_15.png,condition_files/AMP_rep4.csv,left,care.virtue,,,,,,,,,,,,,,0,2,2,3,0,10,10,10,,,,,,,,,,,,,,,,,,,,,1191.1505712587386,,,,,,,,,,,,,,AMP_prac,right,1.2505703286733478,6,,,right,1.4327910200227052,,,,,,,,,,,,,,,,,,,,,,,,,1028,2019_Jun_06_1656,mf_amp_cond1,3.0.7,59.98020501303595,
support,&&&&&&&,images/symbols/symbol_56.png,condition_files/AMP_rep4.csv,left,loyalty.virtue,,,,,,,,,,,,,,0,2,2,3,0,11,11,11,,,,,,,,,,,,,,,,,,,,,1191.784080124693,,,,,,,,,,,,,,AMP_prac,right,1.2505703286733478,6,,,right,0.40033304039388895,,,,,,,,,,,,,,,,,,,,,,,,,1028,2019_Jun_06_1656,mf_amp_cond1,3.0.7,59.98020501303595,
integrity,&&&&&&&&&,images/symbols/symbol_38.png,condition_files/AMP_rep4.csv,left,fairness.virtue,,,,,,,,,,,,,,0,2,2,3,0,12,12,12,,,,,,,,,,,,,,,,,,,,,1192.3675597887486,,,,,,,,,,,,,,AMP_prac,right,1.2505703286733478,6,,,right,0.3654208758380264,,,,,,,,,,,,,,,,,,,,,,,,,1028,2019_Jun_06_1656,mf_amp_cond1,3.0.7,59.98020501303595,
riot,&&&&,images/symbols/symbol_13.png,condition_files/AMP_rep4.csv,right,authority.vice,,,,,,,,,,,,,,0,2,2,3,0,13,13,13,,,,,,,,,,,,,,,,,,,,,1194.101342906244,,,,,,,,,,,,,,AMP_prac,right,1.2505703286733478,6,,,left,1.5162429413758218,,,,,,,,,,,,,,,,,,,,,,,,,1028,2019_Jun_06_1656,mf_amp_cond1,3.0.7,59.98020501303595,
freedom,&&&&&&&,images/symbols/symbol_22.png,condition_files/AMP_rep4.csv,left,sanctity.virtue,,,,,,,,,,,,,,0,2,2,3,0,14,14,14,,,,,,,,,,,,,,,,,,,,,1195.0182591769844,,,,,,,,,,,,,,AMP_prac,right,1.2505703286733478,6,,,right,0.6993821880314499,,,,,,,,,,,,,,,,,,,,,,,,,1028,2019_Jun_06_1656,mf_amp_cond1,3.0.7,59.98020501303595,
clean,&&&&&,images/symbols/symbol_27.png,condition_files/AMP_rep4.csv,left,sanctity.virtue,,,,,,,,,,,,,,0,2,2,3,0,15,15,15,,,,,,,,,,,,,,,,,,,,,1195.9018216840923,,,,,,,,,,,,,,AMP_prac,right,1.2505703286733478,6,,,right,0.6657910882495344,,,,,,,,,,,,,,,,,,,,,,,,,1028,2019_Jun_06_1656,mf_amp_cond1,3.0.7,59.98020501303595,
serial,&&&&&&,images/symbols/symbol_52.png,condition_files/AMP_rep4.csv,right,sanctity.vice,,,,,,,,,,,,,,0,2,2,3,0,16,16,16,,,,,,,,,,,,,,,,,,,,,1196.551991235232,,,,,,,,,,,,,,AMP_prac,right,1.2505703286733478,6,,,left,0.41700687538832426,,,,,,,,,,,,,,,,,,,,,,,,,1028,2019_Jun_06_1656,mf_amp_cond1,3.0.7,59.98020501303595,
accused,&&&&&&&,images/symbols/symbol_60.png,condition_files/AMP_rep4.csv,right,fairness.vice,,,,,,,,,,,,,,0,2,2,3,0,17,17,17,,,,,,,,,,,,,,,,,,,,,1198.7192311973777,,,,,,,,,,,,,,AMP_prac,right,1.2505703286733478,6,,,right,1.9492417906876653,,,,,,,,,,,,,,,,,,,,,,,,,1028,2019_Jun_06_1656,mf_amp_cond1,3.0.7,59.98020501303595,
ability,&&&&&&&,images/symbols/symbol_67.png,condition_files/AMP_rep4.csv,left,authority.virtue,,,,,,,,,,,,,,0,2,2,3,0,18,18,18,,,,,,,,,,,,,,,,,,,,,1200.0362444550265,,,,,,,,,,,,,,AMP_prac,right,1.2505703286733478,6,,,right,1.0992556300479919,,,,,,,,,,,,,,,,,,,,,,,,,1028,2019_Jun_06_1656,mf_amp_cond1,3.0.7,59.98020501303595,
prison,&&&&&&,images/symbols/symbol_59.png,condition_files/AMP_rep4.csv,right,fairness.vice,,,,,,,,,,,,,,0,2,2,3,0,19,19,19,,,,,,,,,,,,,,,,,,,,,1200.6030669619795,,,,,,,,,,,,,,AMP_prac,right,1.2505703286733478,6,,,left,0.34886410529725254,,,,,,,,,,,,,,,,,,,,,,,,,1028,2019_Jun_06_1656,mf_amp_cond1,3.0.7,59.98020501303595,
penalty,&&&&&&&,images/symbols/symbol_23.png,condition_files/AMP_rep4.csv,right,authority.vice,,,,,,,,,,,,,,0,2,2,3,0,20,20,20,,,,,,,,,,,,,,,,,,,,,1203.2537615392357,,,,,,,,,,,,,,AMP_prac,right,1.2505703286733478,6,,,right,2.4175354295875877,,,,,,,,,,,,,,,,,,,,,,,,,1028,2019_Jun_06_1656,mf_amp_cond1,3.0.7,59.98020501303595,
encourage,&&&&&&&&&,images/symbols/symbol_47.png,condition_files/AMP_rep4.csv,left,authority.virtue,,,,,,,,,,,,,,0,2,2,3,0,21,21,21,,,,,,,,,,,,,,,,,,,,,1204.1373208391014,,,,,,,,,,,,,,AMP_prac,right,1.2505703286733478,6,,,right,0.6652397625148296,,,,,,,,,,,,,,,,,,,,,,,,,1028,2019_Jun_06_1656,mf_amp_cond1,3.0.7,59.98020501303595,
hate,&&&&,images/symbols/symbol_24.png,condition_files/AMP_rep4.csv,right,fairness.vice,,,,,,,,,,,,,,0,2,2,3,0,22,22,22,,,,,,,,,,,,,,,,,,,,,1204.8543813717552,,,,,,,,,,,,,,AMP_prac,right,1.2505703286733478,6,,,left,0.4839036299381405,,,,,,,,,,,,,,,,,,,,,,,,,1028,2019_Jun_06_1656,mf_amp_cond1,3.0.7,59.98020501303595,
preighs,&&&&&&&,images/symbols/symbol_5.png,condition_files/AMP_rep4.csv,None,nonword,,,,,,,,,,,,,,0,2,2,3,0,23,23,23,,,,,,,,,,,,,,,,,,,,,1206.8380167155992,,,,,,,,,,,,,,AMP_prac,right,1.2505703286733478,6,,,right,1.7655178629793227,,,,,,,,,,,,,,,,,,,,,,,,,1028,2019_Jun_06_1656,mf_amp_cond1,3.0.7,59.98020501303595,
help,&&&&,images/symbols/symbol_30.png,condition_files/AMP_rep4.csv,left,care.virtue,,,,,,,,,,,,,,0,2,2,3,0,24,24,24,,,,,,,,,,,,,,,,,,,,,1208.5884868176654,,,,,,,,,,,,,,AMP_prac,right,1.2505703286733478,6,,,right,1.5331335859373212,,,,,,,,,,,,,,,,,,,,,,,,,1028,2019_Jun_06_1656,mf_amp_cond1,3.0.7,59.98020501303595,
peace,&&&&&,images/symbols/symbol_28.png,condition_files/AMP_rep4.csv,left,care.virtue,,,,,,,,,,,,,,0,2,2,3,0,25,25,25,,,,,,,,,,,,,,,,,,,,,1209.6054201188963,,,,,,,,,,,,,,AMP_prac,right,1.2505703286733478,6,,,right,0.7993818991817534,,,,,,,,,,,,,,,,,,,,,,,,,1028,2019_Jun_06_1656,mf_amp_cond1,3.0.7,59.98020501303595,
terrorists,&&&&&&&&&&,images/symbols/symbol_10.png,condition_files/AMP_rep4.csv,right,fairness.vice,,,,,,,,,,,,,,0,2,2,3,0,26,26,26,,,,,,,,,,,,,,,,,,,,,1210.272256448865,,,,,,,,,,,,,,AMP_prac,right,1.2505703286733478,6,,,left,0.44926536409184337,,,,,,,,,,,,,,,,,,,,,,,,,1028,2019_Jun_06_1656,mf_amp_cond1,3.0.7,59.98020501303595,
health,&&&&&&,images/symbols/symbol_16.png,condition_files/AMP_rep4.csv,left,care.virtue,,,,,,,,,,,,,,0,2,2,3,0,27,27,27,,,,,,,,,,,,,,,,,,,,,1211.8226742087863,,,,,,,,,,,,,,AMP_prac,right,1.2505703286733478,6,,,right,1.3332579631824046,,,,,,,,,,,,,,,,,,,,,,,,,1028,2019_Jun_06_1656,mf_amp_cond1,3.0.7,59.98020501303595,
jogns,&&&&&,images/symbols/symbol_43.png,condition_files/AMP_rep4.csv,None,nonword,,,,,,,,,,,,,,0,2,2,3,0,28,28,28,,,,,,,,,,,,,,,,,,,,,1213.2897138141561,,,,,,,,,,,,,,AMP_prac,right,1.2505703286733478,6,,,left,1.2338827026542276,,,,,,,,,,,,,,,,,,,,,,,,,1028,2019_Jun_06_1656,mf_amp_cond1,3.0.7,59.98020501303595,
crime,&&&&&,images/symbols/symbol_20.png,condition_files/AMP_rep4.csv,right,fairness.vice,,,,,,,,,,,,,,0,2,2,3,0,29,29,29,,,,,,,,,,,,,,,,,,,,,1214.0399234879296,,,,,,,,,,,,,,AMP_prac,right,1.2505703286733478,6,,,left,0.5323478104546666,,,,,,,,,,,,,,,,,,,,,,,,,1028,2019_Jun_06_1656,mf_amp_cond1,3.0.7,59.98020501303595,
attacks,&&&&&&&,images/symbols/symbol_2.png,condition_files/AMP_rep4.csv,right,care.vice,,,,,,,,,,,,,,0,2,2,3,0,30,30,30,,,,,,,,,,,,,,,,,,,,,1214.8067829422653,,,,,,,,,,,,,,AMP_prac,right,1.2505703286733478,6,,,left,0.5494312108494341,,,,,,,,,,,,,,,,,,,,,,,,,1028,2019_Jun_06_1656,mf_amp_cond1,3.0.7,59.98020501303595,
conspiracy,&&&&&&&&&&,images/symbols/symbol_53.png,condition_files/AMP_rep4.csv,right,sanctity.vice,,,,,,,,,,,,,,0,2,2,3,0,31,31,31,,,,,,,,,,,,,,,,,,,,,1215.4902950313408,,,,,,,,,,,,,,AMP_prac,right,1.2505703286733478,6,,,left,0.4503446025773883,,,,,,,,,,,,,,,,,,,,,,,,,1028,2019_Jun_06_1656,mf_amp_cond1,3.0.7,59.98020501303595,
embrace,&&&&&&&,images/symbols/symbol_65.png,condition_files/AMP_rep4.csv,left,authority.virtue,,,,,,,,,,,,,,0,2,2,3,0,32,32,32,,,,,,,,,,,,,,,,,,,,,1216.0904626422562,,,,,,,,,,,,,,AMP_prac,right,1.2505703286733478,6,,,right,0.38169989874586463,,,,,,,,,,,,,,,,,,,,,,,,,1028,2019_Jun_06_1656,mf_amp_cond1,3.0.7,59.98020501303595,
illegal,&&&&&&&,images/symbols/symbol_12.png,condition_files/AMP_rep4.csv,right,fairness.vice,,,,,,,,,,,,,,0,2,2,3,0,33,33,33,,,,,,,,,,,,,,,,,,,,,1219.4746805501636,,,,,,,,,,,,,,AMP_prac,right,1.2505703286733478,6,,,left,3.1667421974707395,,,,,,,,,,,,,,,,,,,,,,,,,1028,2019_Jun_06_1656,mf_amp_cond1,3.0.7,59.98020501303595,
ensure,&&&&&&,images/symbols/symbol_76.png,condition_files/AMP_rep4.csv,left,fairness.virtue,,,,,,,,,,,,,,0,2,2,3,0,34,34,34,,,,,,,,,,,,,,,,,,,,,1221.0084090805613,,,,,,,,,,,,,,AMP_prac,right,1.2505703286733478,6,,,left,1.3005790042225271,,,,,,,,,,,,,,,,,,,,,,,,,1028,2019_Jun_06_1656,mf_amp_cond1,3.0.7,59.98020501303595,
strong,&&&&&&,images/symbols/symbol_46.png,condition_files/AMP_rep4.csv,left,loyalty.virtue,,,,,,,,,,,,,,0,2,2,3,0,35,35,35,,,,,,,,,,,,,,,,,,,,,1224.7260421067476,,,,,,,,,,,,,,AMP_prac,right,1.2505703286733478,6,,,right,3.49923619418405,,,,,,,,,,,,,,,,,,,,,,,,,1028,2019_Jun_06_1656,mf_amp_cond1,3.0.7,59.98020501303595,
free,&&&&,images/symbols/symbol_82.png,condition_files/AMP_rep4.csv,left,fairness.virtue,,,,,,,,,,,,,,0,2,2,3,0,36,36,36,,,,,,,,,,,,,,,,,,,,,1225.3095673136413,,,,,,,,,,,,,,AMP_prac,right,1.2505703286733478,6,,,right,0.3662028026301414,,,,,,,,,,,,,,,,,,,,,,,,,1028,2019_Jun_06_1656,mf_amp_cond1,3.0.7,59.98020501303595,
betrayal,&&&&&&&&,images/symbols/symbol_61.png,condition_files/AMP_rep4.csv,right,loyalty.vice,,,,,,,,,,,,,,0,2,2,3,0,37,37,37,,,,,,,,,,,,,,,,,,,,,1225.9430344852153,,,,,,,,,,,,,,AMP_prac,right,1.2505703286733478,6,,,left,0.4003420206718147,,,,,,,,,,,,,,,,,,,,,,,,,1028,2019_Jun_06_1656,mf_amp_cond1,3.0.7,59.98020501303595,
refused,&&&&&&&,images/symbols/symbol_70.png,condition_files/AMP_rep4.csv,right,authority.vice,,,,,,,,,,,,,,0,2,2,3,0,38,38,38,,,,,,,,,,,,,,,,,,,,,1227.16002109088,,,,,,,,,,,,,,AMP_prac,right,1.2505703286733478,6,,,left,0.9986093377228826,,,,,,,,,,,,,,,,,,,,,,,,,1028,2019_Jun_06_1656,mf_amp_cond1,3.0.7,59.98020501303595,
army,&&&&,images/symbols/symbol_58.png,condition_files/AMP_rep4.csv,right,loyalty.vice,,,,,,,,,,,,,,0,2,2,3,0,39,39,39,,,,,,,,,,,,,,,,,,,,,1227.9768982010428,,,,,,,,,,,,,,AMP_prac,right,1.2505703286733478,6,,,right,0.5994241707958281,,,,,,,,,,,,,,,,,,,,,,,,,1028,2019_Jun_06_1656,mf_amp_cond1,3.0.7,59.98020501303595,
sharing,&&&&&&&,images/symbols/symbol_78.png,condition_files/AMP_rep4.csv,left,loyalty.virtue,,,,,,,,,,,,,,0,2,2,3,0,40,40,40,,,,,,,,,,,,,,,,,,,,,1228.7437717672437,,,,,,,,,,,,,,AMP_prac,right,1.2505703286733478,6,,,right,0.5492490390315652,,,,,,,,,,,,,,,,,,,,,,,,,1028,2019_Jun_06_1656,mf_amp_cond1,3.0.7,59.98020501303595,
slavery,&&&&&&&,images/symbols/symbol_45.png,condition_files/AMP_rep4.csv,right,loyalty.vice,,,,,,,,,,,,,,0,2,2,3,0,41,41,41,,,,,,,,,,,,,,,,,,,,,1229.3439573384821,,,,,,,,,,,,,,AMP_prac,right,1.2505703286733478,6,,,left,0.3825119736138731,,,,,,,,,,,,,,,,,,,,,,,,,1028,2019_Jun_06_1656,mf_amp_cond1,3.0.7,59.98020501303595,
arrests,&&&&&&&,images/symbols/symbol_31.png,condition_files/AMP_rep4.csv,right,authority.vice,,,,,,,,,,,,,,0,2,2,3,0,42,42,42,,,,,,,,,,,,,,,,,,,,,1230.4442296659108,,,,,,,,,,,,,,AMP_prac,right,1.2505703286733478,6,,,left,0.8810390452854335,,,,,,,,,,,,,,,,,,,,,,,,,1028,2019_Jun_06_1656,mf_amp_cond1,3.0.7,59.98020501303595,
harassment,&&&&&&&&&&,images/symbols/symbol_3.png,condition_files/AMP_rep4.csv,right,sanctity.vice,,,,,,,,,,,,,,0,2,2,3,0,43,43,43,,,,,,,,,,,,,,,,,,,,,1232.4947540666908,,,,,,,,,,,,,,AMP_prac,right,1.2505703286733478,6,,,left,1.8321666973643005,,,,,,,,,,,,,,,,,,,,,,,,,1028,2019_Jun_06_1656,mf_amp_cond1,3.0.7,59.98020501303595,
growth,&&&&&&,images/symbols/symbol_21.png,condition_files/AMP_rep4.csv,left,care.virtue,,,,,,,,,,,,,,0,2,2,3,0,44,44,44,,,,,,,,,,,,,,,,,,,,,1233.2616257085465,,,,,,,,,,,,,,AMP_prac,right,1.2505703286733478,6,,,right,0.549442115239799,,,,,,,,,,,,,,,,,,,,,,,,,1028,2019_Jun_06_1656,mf_amp_cond1,3.0.7,59.98020501303595,
victims,&&&&&&&,images/symbols/symbol_4.png,condition_files/AMP_rep4.csv,right,care.vice,,,,,,,,,,,,,,0,2,2,3,0,45,45,45,,,,,,,,,,,,,,,,,,,,,1234.0451705437154,,,,,,,,,,,,,,AMP_prac,right,1.2505703286733478,6,,,left,0.5659491734113544,,,,,,,,,,,,,,,,,,,,,,,,,1028,2019_Jun_06_1656,mf_amp_cond1,3.0.7,59.98020501303595,
death,&&&&&,images/symbols/symbol_8.png,condition_files/AMP_rep4.csv,right,care.vice,,,,,,,,,,,,,,0,2,2,3,0,46,46,46,,,,,,,,,,,,,,,,,,,,,1234.945404320024,,,,,,,,,,,,,,AMP_prac,right,1.2505703286733478,6,,,left,0.682845302624628,,,,,,,,,,,,,,,,,,,,,,,,,1028,2019_Jun_06_1656,mf_amp_cond1,3.0.7,59.98020501303595,
naidd,&&&&&,images/symbols/symbol_55.png,condition_files/AMP_rep4.csv,None,nonword,,,,,,,,,,,,,,0,2,2,3,0,47,47,47,,,,,,,,,,,,,,,,,,,,,1236.979273167206,,,,,,,,,,,,,,AMP_prac,right,1.2505703286733478,6,,,left,1.8007129069883376,,,,,,,,,,,,,,,,,,,,,,,,,1028,2019_Jun_06_1656,mf_amp_cond1,3.0.7,59.98020501303595,
respect,&&&&&&&,images/symbols/symbol_29.png,condition_files/AMP_rep4.csv,left,sanctity.virtue,,,,,,,,,,,,,,0,2,2,3,0,48,48,48,,,,,,,,,,,,,,,,,,,,,1237.9795368029736,,,,,,,,,,,,,,AMP_prac,right,1.2505703286733478,6,,,right,0.7817337031010538,,,,,,,,,,,,,,,,,,,,,,,,,1028,2019_Jun_06_1656,mf_amp_cond1,3.0.7,59.98020501303595,
safety,&&&&&&,images/symbols/symbol_64.png,condition_files/AMP_rep4.csv,left,care.virtue,,,,,,,,,,,,,,0,2,2,3,0,49,49,49,,,,,,,,,,,,,,,,,,,,,1238.729728836799,,,,,,,,,,,,,,AMP_prac,right,1.2505703286733478,6,,,right,0.5325553196016699,,,,,,,,,,,,,,,,,,,,,,,,,1028,2019_Jun_06_1656,mf_amp_cond1,3.0.7,59.98020501303595,
thinx,&&&&&,images/symbols/symbol_63.png,condition_files/AMP_rep4.csv,None,nonword,,,,,,,,,,,,,,0,2,2,3,0,50,50,50,,,,,,,,,,,,,,,,,,,,,1239.7966724173166,,,,,,,,,,,,,,AMP_prac,right,1.2505703286733478,6,,,right,0.849576274631545,,,,,,,,,,,,,,,,,,,,,,,,,1028,2019_Jun_06_1656,mf_amp_cond1,3.0.7,59.98020501303595,
useful,&&&&&&,images/symbols/symbol_57.png,condition_files/AMP_rep4.csv,left,authority.virtue,,,,,,,,,,,,,,0,2,2,3,0,51,51,51,,,,,,,,,,,,,,,,,,,,,1240.5468660548795,,,,,,,,,,,,,,AMP_prac,right,1.2505703286733478,6,,,right,0.5326954761985689,,,,,,,,,,,,,,,,,,,,,,,,,1028,2019_Jun_06_1656,mf_amp_cond1,3.0.7,59.98020501303595,
friends,&&&&&&&,images/symbols/symbol_66.png,condition_files/AMP_rep4.csv,left,loyalty.virtue,,,,,,,,,,,,,,0,2,2,3,0,52,52,52,,,,,,,,,,,,,,,,,,,,,1241.1137106916867,,,,,,,,,,,,,,AMP_prac,right,1.2505703286733478,6,,,right,0.34944846597500145,,,,,,,,,,,,,,,,,,,,,,,,,1028,2019_Jun_06_1656,mf_amp_cond1,3.0.7,59.98020501303595,
splysed,&&&&&&&,images/symbols/symbol_32.png,condition_files/AMP_rep4.csv,None,nonword,,,,,,,,,,,,,,0,2,2,3,0,53,53,53,,,,,,,,,,,,,,,,,,,,,1241.6804982393514,,,,,,,,,,,,,,AMP_prac,right,1.2505703286733478,6,,,left,0.3492768781725317,,,,,,,,,,,,,,,,,,,,,,,,,1028,2019_Jun_06_1656,mf_amp_cond1,3.0.7,59.98020501303595,
strength,&&&&&&&&,images/symbols/symbol_69.png,condition_files/AMP_rep4.csv,left,sanctity.virtue,,,,,,,,,,,,,,0,2,2,3,0,54,54,54,,,,,,,,,,,,,,,,,,,,,1243.3142659300938,,,,,,,,,,,,,,AMP_prac,right,1.2505703286733478,6,,,left,1.4161765191238374,,,,,,,,,,,,,,,,,,,,,,,,,1028,2019_Jun_06_1656,mf_amp_cond1,3.0.7,59.98020501303595,
soughste,&&&&&&&&,images/symbols/symbol_75.png,condition_files/AMP_rep4.csv,None,nonword,,,,,,,,,,,,,,0,2,2,3,0,55,55,55,,,,,,,,,,,,,,,,,,,,,1244.681280807592,,,,,,,,,,,,,,AMP_prac,right,1.2505703286733478,6,,,left,1.1495404494926333,,,,,,,,,,,,,,,,,,,,,,,,,1028,2019_Jun_06_1656,mf_amp_cond1,3.0.7,59.98020501303595,
ban,&&&,images/symbols/symbol_72.png,condition_files/AMP_rep4.csv,right,loyalty.vice,,,,,,,,,,,,,,0,2,2,3,0,56,56,56,,,,,,,,,,,,,,,,,,,,,1245.481538606109,,,,,,,,,,,,,,AMP_prac,right,1.2505703286733478,6,,,right,0.5826643819455057,,,,,,,,,,,,,,,,,,,,,,,,,1028,2019_Jun_06_1656,mf_amp_cond1,3.0.7,59.98020501303595,
great,&&&&&,images/symbols/symbol_44.png,condition_files/AMP_rep4.csv,left,loyalty.virtue,,,,,,,,,,,,,,0,2,2,3,0,57,57,57,,,,,,,,,,,,,,,,,,,,,1246.3317107872572,,,,,,,,,,,,,,AMP_prac,right,1.2505703286733478,6,,,right,0.6324992245063186,,,,,,,,,,,,,,,,,,,,,,,,,1028,2019_Jun_06_1656,mf_amp_cond1,3.0.7,59.98020501303595,
fear,&&&&,images/symbols/symbol_49.png,condition_files/AMP_rep4.csv,right,sanctity.vice,,,,,,,,,,,,,,0,2,2,3,0,58,58,58,,,,,,,,,,,,,,,,,,,,,1248.032181194052,,,,,,,,,,,,,,AMP_prac,right,1.2505703286733478,6,,,left,1.467297788709402,,,,,,,,,,,,,,,,,,,,,,,,,1028,2019_Jun_06_1656,mf_amp_cond1,3.0.7,59.98020501303595,
voter,&&&&&,images/symbols/symbol_26.png,condition_files/AMP_rep4.csv,right,fairness.vice,,,,,,,,,,,,,,0,2,2,3,0,59,59,59,,,,,,,,,,,,,,,,,,,,,1248.7823575125076,,,,,,,,,,,,,,AMP_prac,right,1.2505703286733478,6,,,right,0.5318805146962404,,,,,,,,,,,,,,,,,,,,,,,,,1028,2019_Jun_06_1656,mf_amp_cond1,3.0.7,59.98020501303595,
opportunity,&&&&&&&&&&&,images/symbols/symbol_7.png,condition_files/AMP_rep4.csv,left,fairness.virtue,,,,,,,,,,,,,,0,2,2,3,0,60,60,60,,,,,,,,,,,,,,,,,,,,,1250.4494780045934,,,,,,,,,,,,,,AMP_prac,right,1.2505703286733478,6,,,right,1.4494270093273371,,,,,,,,,,,,,,,,,,,,,,,,,1028,2019_Jun_06_1656,mf_amp_cond1,3.0.7,59.98020501303595,
promote,&&&&&&&,images/symbols/symbol_18.png,condition_files/AMP_rep4.csv,left,sanctity.virtue,,,,,,,,,,,,,,0,2,2,3,0,61,61,61,,,,,,,,,,,,,,,,,,,,,1252.1165728387423,,,,,,,,,,,,,,AMP_prac,right,1.2505703286733478,6,,,right,1.4492830038070679,,,,,,,,,,,,,,,,,,,,,,,,,1028,2019_Jun_06_1656,mf_amp_cond1,3.0.7,59.98020501303595,
wrantse,&&&&&&&,images/symbols/symbol_80.png,condition_files/AMP_rep4.csv,None,nonword,,,,,,,,,,,,,,0,2,2,3,0,62,62,62,,,,,,,,,,,,,,,,,,,,,1253.0835061238613,,,,,,,,,,,,,,AMP_prac,right,1.2505703286733478,6,,,right,0.7498485378455371,,,,,,,,,,,,,,,,,,,,,,,,,1028,2019_Jun_06_1656,mf_amp_cond1,3.0.7,59.98020501303595,
war,&&&,images/symbols/symbol_35.png,condition_files/AMP_rep4.csv,right,sanctity.vice,,,,,,,,,,,,,,0,2,2,3,0,63,63,63,,,,,,,,,,,,,,,,,,,,,1253.8503585220315,,,,,,,,,,,,,,AMP_prac,right,1.2505703286733478,6,,,left,0.5492791873402894,,,,,,,,,,,,,,,,,,,,,,,,,1028,2019_Jun_06_1656,mf_amp_cond1,3.0.7,59.98020501303595,
bipht,&&&&&,images/symbols/symbol_74.png,condition_files/AMP_rep4.csv,None,nonword,,,,,,,,,,,,,,0,2,2,3,0,64,64,64,,,,,,,,,,,,,,,,,,,,,1255.300732952077,,,,,,,,,,,,,,AMP_prac,right,1.2505703286733478,6,,,right,1.217208226211369,,,,,,,,,,,,,,,,,,,,,,,,,1028,2019_Jun_06_1656,mf_amp_cond1,3.0.7,59.98020501303595,
loyalty,&&&&&&&,images/symbols/symbol_79.png,condition_files/AMP_rep4.csv,left,loyalty.virtue,,,,,,,,,,,,,,0,2,2,3,0,65,65,65,,,,,,,,,,,,,,,,,,,,,1256.8678242261522,,,,,,,,,,,,,,AMP_prac,right,1.2505703286733478,6,,,right,1.3488740478642285,,,,,,,,,,,,,,,,,,,,,,,,,1028,2019_Jun_06_1656,mf_amp_cond1,3.0.7,59.98020501303595,
fair,&&&&,images/symbols/symbol_19.png,condition_files/AMP_rep4.csv,left,fairness.virtue,,,,,,,,,,,,,,0,2,2,3,0,66,66,66,,,,,,,,,,,,,,,,,,,,,1260.0186469331384,,,,,,,,,,,,,,AMP_prac,right,1.2505703286733478,6,,,right,2.933297604555264,,,,,,,,,,,,,,,,,,,,,,,,,1028,2019_Jun_06_1656,mf_amp_cond1,3.0.7,59.98020501303595,
unpleasant,&&&&&&&&&,images/symbols/symbol_81.png,condition_files/AMP_rep4.csv,left,control,,,,,,,,,,,,,,0,2,2,3,0,67,67,67,,,,,,,,,,,,,,,,,,,,,1261.402329230914,,,,,,,,,,,,,,AMP_prac,right,1.2505703286733478,6,,,left,1.1505237915553153,,,,,,,,,,,,,,,,,,,,,,,,,1028,2019_Jun_06_1656,mf_amp_cond1,3.0.7,59.98020501303595,
critics,&&&&&&&,images/symbols/symbol_41.png,condition_files/AMP_rep4.csv,right,loyalty.vice,,,,,,,,,,,,,,0,2,2,3,0,68,68,68,,,,,,,,,,,,,,,,,,,,,1262.886053896509,,,,,,,,,,,,,,AMP_prac,right,1.2505703286733478,6,,,left,1.2663249666802585,,,,,,,,,,,,,,,,,,,,,,,,,1028,2019_Jun_06_1656,mf_amp_cond1,3.0.7,59.98020501303595,
abuse,&&&&&,images/symbols/symbol_71.png,condition_files/AMP_rep4.csv,right,sanctity.vice,,,,,,,,,,,,,,0,2,2,3,0,69,69,69,,,,,,,,,,,,,,,,,,,,,1264.036366009852,,,,,,,,,,,,,,AMP_prac,right,1.2505703286733478,6,,,left,0.9171449474524707,,,,,,,,,,,,,,,,,,,,,,,,,1028,2019_Jun_06_1656,mf_amp_cond1,3.0.7,59.98020501303595,
hand,&&&&,images/symbols/symbol_25.png,condition_files/AMP_rep4.csv,left,sanctity.virtue,,,,,,,,,,,,,,0,2,2,3,0,70,70,70,,,,,,,,,,,,,,,,,,,,,1265.5701038411353,,,,,,,,,,,,,,AMP_prac,right,1.2505703286733478,6,,,right,1.3158050877973437,,,,,,,,,,,,,,,,,,,,,,,,,1028,2019_Jun_06_1656,mf_amp_cond1,3.0.7,59.98020501303595,
officers,&&&&&&&&,images/symbols/symbol_48.png,condition_files/AMP_rep4.csv,right,authority.vice,,,,,,,,,,,,,,0,2,2,3,0,71,71,71,,,,,,,,,,,,,,,,,,,,,1268.487528780941,,,,,,,,,,,,,,AMP_prac,right,1.2505703286733478,6,,,right,2.699876104015857,,,,,,,,,,,,,,,,,,,,,,,,,1028,2019_Jun_06_1656,mf_amp_cond1,3.0.7,59.98020501303595,
commitment,&&&&&&&&&&,images/symbols/symbol_62.png,condition_files/AMP_rep4.csv,left,sanctity.virtue,,,,,,,,,,,,,,0,2,2,3,0,72,72,72,,,,,,,,,,,,,,,,,,,,,1270.3546791647095,,,,,,,,,,,,,,AMP_prac,right,1.2505703286733478,6,,,right,1.633987387176603,,,,,,,,,,,,,,,,,,,,,,,,,1028,2019_Jun_06_1656,mf_amp_cond1,3.0.7,59.98020501303595,
groups,&&&&&&,images/symbols/symbol_39.png,condition_files/AMP_rep4.csv,right,loyalty.vice,,,,,,,,,,,,,,0,2,2,3,0,73,73,73,,,,,,,,,,,,,,,,,,,,,1272.021790035069,,,,,,,,,,,,,,AMP_prac,right,1.2505703286733478,6,,,right,1.4491710709407926,,,,,,,,,,,,,,,,,,,,,,,,,1028,2019_Jun_06_1656,mf_amp_cond1,3.0.7,59.98020501303595,
terrorist,&&&&&&&&&,images/symbols/symbol_77.png,condition_files/AMP_rep4.csv,right,loyalty.vice,,,,,,,,,,,,,,0,2,2,3,0,74,74,74,,,,,,,,,,,,,,,,,,,,,1272.6886311760172,,,,,,,,,,,,,,AMP_prac,right,1.2505703286733478,6,,,left,0.4493291883263737,,,,,,,,,,,,,,,,,,,,,,,,,1028,2019_Jun_06_1656,mf_amp_cond1,3.0.7,59.98020501303595,
scandal,&&&&&&&,images/symbols/symbol_37.png,condition_files/AMP_rep4.csv,right,sanctity.vice,,,,,,,,,,,,,,0,2,2,3,0,75,75,75,,,,,,,,,,,,,,,,,,,,,1273.8389294981025,,,,,,,,,,,,,,AMP_prac,right,1.2505703286733478,6,,,left,0.9171042153611779,,,,,,,,,,,,,,,,,,,,,,,,,1028,2019_Jun_06_1656,mf_amp_cond1,3.0.7,59.98020501303595,
coacs,&&&&&,images/symbols/symbol_1.png,condition_files/AMP_rep4.csv,None,nonword,,,,,,,,,,,,,,0,2,2,3,0,76,76,76,,,,,,,,,,,,,,,,,,,,,1274.605831288034,,,,,,,,,,,,,,AMP_prac,right,1.2505703286733478,6,,,left,0.5488600002136081,,,,,,,,,,,,,,,,,,,,,,,,,1028,2019_Jun_06_1656,mf_amp_cond1,3.0.7,59.98020501303595,
improve,&&&&&&&,images/symbols/symbol_51.png,condition_files/AMP_rep4.csv,left,care.virtue,,,,,,,,,,,,,,0,2,2,3,0,77,77,77,,,,,,,,,,,,,,,,,,,,,1277.3065233156085,,,,,,,,,,,,,,AMP_prac,right,1.2505703286733478,6,,,right,2.4675380114931613,,,,,,,,,,,,,,,,,,,,,,,,,1028,2019_Jun_06_1656,mf_amp_cond1,3.0.7,59.98020501303595,
pleasant,&&&&&&&,images/symbols/symbol_11.png,condition_files/AMP_rep4.csv,right,control,,,,,,,,,,,,,,0,2,2,3,0,78,78,78,,,,,,,,,,,,,,,,,,,,,1278.740234494675,,,,,,,,,,,,,,AMP_prac,right,1.2505703286733478,6,,,right,1.2159099327400327,,,,,,,,,,,,,,,,,,,,,,,,,1028,2019_Jun_06_1656,mf_amp_cond1,3.0.7,59.98020501303595,
celebrated,&&&&&&&&&&,images/symbols/symbol_36.png,condition_files/AMP_rep4.csv,left,authority.virtue,,,,,,,,,,,,,,0,2,2,3,0,79,79,79,,,,,,,,,,,,,,,,,,,,,1279.8071668497287,,,,,,,,,,,,,,AMP_prac,right,1.2505703286733478,6,,,right,0.8493771045468748,,,,,,,,,,,,,,,,,,,,,,,,,1028,2019_Jun_06_1656,mf_amp_cond1,3.0.7,59.98020501303595,
died,&&&&,images/symbols/symbol_6.png,condition_files/AMP_rep4.csv,right,care.vice,,,,,,,,,,,,,,0,2,2,3,0,80,80,80,,,,,,,,,,,,,,,,,,,,,1281.6910795881413,,,,,,,,,,,,,,AMP_prac,right,1.2505703286733478,6,,,left,1.6507311400491744,,,,,,,,,,,,,,,,,,,,,,,,,1028,2019_Jun_06_1656,mf_amp_cond1,3.0.7,59.98020501303595,
love,&&&&,images/symbols/symbol_40.png,condition_files/AMP_rep4.csv,left,loyalty.virtue,,,,,,,,,,,,,,0,2,2,3,0,81,81,81,,,,,,,,,,,,,,,,,,,,,1282.407902463805,,,,,,,,,,,,,,AMP_prac,right,1.2505703286733478,6,,,right,0.4984186668880284,,,,,,,,,,,,,,,,,,,,,,,,,1028,2019_Jun_06_1656,mf_amp_cond1,3.0.7,59.98020501303595,
,,,condition_files/AMP_rep4.csv,,,,,,,,,,,,,,,,0,2,2,3,,,,,,,,,,,,,,,,,,,,,,,,,,,,,,,,,,,,,,,,,,,,,,,right,1.4339286303147674,,,,,,,,,,,,,,,,,,,,,,,1028,2019_Jun_06_1656,mf_amp_cond1,3.0.7,59.98020501303595,
ailled,&&&&&&,images/symbols/symbol_73.png,condition_files/AMP_rep1.csv,None,nonword,,,,,,,,,,,,,,0,3,3,0,0,0,0,0,,,,,,,,,,,,,,,,,,,,,1292.1605749824084,,,,,,,,,,,,,,AMP_prac,right,1.2505703286733478,6,,,right,8.068998784059659,,,,,,,,,,,,,,,,,,,,,,,,,1028,2019_Jun_06_1656,mf_amp_cond1,3.0.7,59.98020501303595,
torture,&&&&&&&,images/symbols/symbol_9.png,condition_files/AMP_rep1.csv,right,care.vice,,,,,,,,,,,,,,0,3,3,0,0,1,1,1,,,,,,,,,,,,,,,,,,,,,1300.295933948597,,,,,,,,,,,,,,AMP_prac,right,1.2505703286733478,6,,,right,7.90232714638114,,,,,,,,,,,,,,,,,,,,,,,,,1028,2019_Jun_06_1656,mf_amp_cond1,3.0.7,59.98020501303595,
trust,&&&&&,images/symbols/symbol_42.png,condition_files/AMP_rep1.csv,left,authority.virtue,,,,,,,,,,,,,,0,3,3,0,0,2,2,2,,,,,,,,,,,,,,,,,,,,,1302.1297023450024,,,,,,,,,,,,,,AMP_prac,right,1.2505703286733478,6,,,right,1.6157949208281934,,,,,,,,,,,,,,,,,,,,,,,,,1028,2019_Jun_06_1656,mf_amp_cond1,3.0.7,59.98020501303595,
killed,&&&&&&,images/symbols/symbol_50.png,condition_files/AMP_rep1.csv,right,care.vice,,,,,,,,,,,,,,0,3,3,0,0,3,3,3,,,,,,,,,,,,,,,,,,,,,1302.813210906228,,,,,,,,,,,,,,AMP_prac,right,1.2505703286733478,6,,,left,0.4660562633071095,,,,,,,,,,,,,,,,,,,,,,,,,1028,2019_Jun_06_1656,mf_amp_cond1,3.0.7,59.98020501303595,
civilians,&&&&&&&&&,images/symbols/symbol_34.png,condition_files/AMP_rep1.csv,right,care.vice,,,,,,,,,,,,,,0,3,3,0,0,4,4,4,,,,,,,,,,,,,,,,,,,,,1303.6967849596404,,,,,,,,,,,,,,AMP_prac,right,1.2505703286733478,6,,,right,0.6658218777738512,,,,,,,,,,,,,,,,,,,,,,,,,1028,2019_Jun_06_1656,mf_amp_cond1,3.0.7,59.98020501303595,
promises,&&&&&&&&,images/symbols/symbol_14.png,condition_files/AMP_rep1.csv,left,fairness.virtue,,,,,,,,,,,,,,0,3,3,0,0,5,5,5,,,,,,,,,,,,,,,,,,,,,1304.4636671852786,,,,,,,,,,,,,,AMP_prac,right,1.2505703286733478,6,,,right,0.5493773289490491,,,,,,,,,,,,,,,,,,,,,,,,,1028,2019_Jun_06_1656,mf_amp_cond1,3.0.7,59.98020501303595,
fighters,&&&&&&&&,images/symbols/symbol_68.png,condition_files/AMP_rep1.csv,right,authority.vice,,,,,,,,,,,,,,0,3,3,0,0,6,6,6,,,,,,,,,,,,,,,,,,,,,1305.5972814091947,,,,,,,,,,,,,,AMP_prac,right,1.2505703286733478,6,,,right,0.9004714330658317,,,,,,,,,,,,,,,,,,,,,,,,,1028,2019_Jun_06_1656,mf_amp_cond1,3.0.7,59.98020501303595,
rebels,&&&&&&,images/symbols/symbol_33.png,condition_files/AMP_rep1.csv,right,authority.vice,,,,,,,,,,,,,,0,3,3,0,0,7,7,7,,,,,,,,,,,,,,,,,,,,,1312.4657547823153,,,,,,,,,,,,,,AMP_prac,right,1.2505703286733478,6,,,right,6.650323819601908,,,,,,,,,,,,,,,,,,,,,,,,,1028,2019_Jun_06_1656,mf_amp_cond1,3.0.7,59.98020501303595,
praise,&&&&&&,images/symbols/symbol_54.png,condition_files/AMP_rep1.csv,left,authority.virtue,,,,,,,,,,,,,,0,3,3,0,0,8,8,8,,,,,,,,,,,,,,,,,,,,,1312.9825339752715,,,,,,,,,,,,,,AMP_prac,right,1.2505703286733478,6,,,right,0.283635440049693,,,,,,,,,,,,,,,,,,,,,,,,,1028,2019_Jun_06_1656,mf_amp_cond1,3.0.7,59.98020501303595,
credit,&&&&&&,images/symbols/symbol_17.png,condition_files/AMP_rep1.csv,left,fairness.virtue,,,,,,,,,,,,,,0,3,3,0,0,9,9,9,,,,,,,,,,,,,,,,,,,,,1313.5493555197027,,,,,,,,,,,,,,AMP_prac,right,1.2505703286733478,6,,,right,0.34871368552558124,,,,,,,,,,,,,,,,,,,,,,,,,1028,2019_Jun_06_1656,mf_amp_cond1,3.0.7,59.98020501303595,
increase,&&&&&&&&,images/symbols/symbol_15.png,condition_files/AMP_rep1.csv,left,care.virtue,,,,,,,,,,,,,,0,3,3,0,0,10,10,10,,,,,,,,,,,,,,,,,,,,,1318.7840692200698,,,,,,,,,,,,,,AMP_prac,right,1.2505703286733478,6,,,right,5.017153959721327,,,,,,,,,,,,,,,,,,,,,,,,,1028,2019_Jun_06_1656,mf_amp_cond1,3.0.7,59.98020501303595,
support,&&&&&&&,images/symbols/symbol_56.png,condition_files/AMP_rep1.csv,left,loyalty.virtue,,,,,,,,,,,,,,0,3,3,0,0,11,11,11,,,,,,,,,,,,,,,,,,,,,1320.6512119062245,,,,,,,,,,,,,,AMP_prac,right,1.2505703286733478,6,,,right,1.6339915567077696,,,,,,,,,,,,,,,,,,,,,,,,,1028,2019_Jun_06_1656,mf_amp_cond1,3.0.7,59.98020501303595,
integrity,&&&&&&&&&,images/symbols/symbol_38.png,condition_files/AMP_rep1.csv,left,fairness.virtue,,,,,,,,,,,,,,0,3,3,0,0,12,12,12,,,,,,,,,,,,,,,,,,,,,1321.1846957236994,,,,,,,,,,,,,,AMP_prac,right,1.2505703286733478,6,,,right,0.3153403578326106,,,,,,,,,,,,,,,,,,,,,,,,,1028,2019_Jun_06_1656,mf_amp_cond1,3.0.7,59.98020501303595,
riot,&&&&,images/symbols/symbol_13.png,condition_files/AMP_rep1.csv,right,authority.vice,,,,,,,,,,,,,,0,3,3,0,0,13,13,13,,,,,,,,,,,,,,,,,,,,,1322.2349834297784,,,,,,,,,,,,,,AMP_prac,right,1.2505703286733478,6,,,left,0.8327177022583783,,,,,,,,,,,,,,,,,,,,,,,,,1028,2019_Jun_06_1656,mf_amp_cond1,3.0.7,59.98020501303595,
freedom,&&&&&&&,images/symbols/symbol_22.png,condition_files/AMP_rep1.csv,left,sanctity.virtue,,,,,,,,,,,,,,0,3,3,0,0,14,14,14,,,,,,,,,,,,,,,,,,,,,1322.8351218544412,,,,,,,,,,,,,,AMP_prac,right,1.2505703286733478,6,,,right,0.3826287172269076,,,,,,,,,,,,,,,,,,,,,,,,,1028,2019_Jun_06_1656,mf_amp_cond1,3.0.7,59.98020501303595,
clean,&&&&&,images/symbols/symbol_27.png,condition_files/AMP_rep1.csv,left,sanctity.virtue,,,,,,,,,,,,,,0,3,3,0,0,15,15,15,,,,,,,,,,,,,,,,,,,,,1323.702012130525,,,,,,,,,,,,,,AMP_prac,right,1.2505703286733478,6,,,right,0.6493151406757534,,,,,,,,,,,,,,,,,,,,,,,,,1028,2019_Jun_06_1656,mf_amp_cond1,3.0.7,59.98020501303595,
serial,&&&&&&,images/symbols/symbol_52.png,condition_files/AMP_rep1.csv,right,sanctity.vice,,,,,,,,,,,,,,0,3,3,0,0,16,16,16,,,,,,,,,,,,,,,,,,,,,1324.2521511807572,,,,,,,,,,,,,,AMP_prac,right,1.2505703286733478,6,,,left,0.31697733676992357,,,,,,,,,,,,,,,,,,,,,,,,,1028,2019_Jun_06_1656,mf_amp_cond1,3.0.7,59.98020501303595,
accused,&&&&&&&,images/symbols/symbol_60.png,condition_files/AMP_rep1.csv,right,fairness.vice,,,,,,,,,,,,,,0,3,3,0,0,17,17,17,,,,,,,,,,,,,,,,,,,,,1324.7856314699166,,,,,,,,,,,,,,AMP_prac,right,1.2505703286733478,6,,,right,0.31526049762032926,,,,,,,,,,,,,,,,,,,,,,,,,1028,2019_Jun_06_1656,mf_amp_cond1,3.0.7,59.98020501303595,
ability,&&&&&&&,images/symbols/symbol_67.png,condition_files/AMP_rep1.csv,left,authority.virtue,,,,,,,,,,,,,,0,3,3,0,0,18,18,18,,,,,,,,,,,,,,,,,,,,,1325.6525316883344,,,,,,,,,,,,,,AMP_prac,right,1.2505703286733478,6,,,left,0.6492234133183956,,,,,,,,,,,,,,,,,,,,,,,,,1028,2019_Jun_06_1656,mf_amp_cond1,3.0.7,59.98020501303595,
prison,&&&&&&,images/symbols/symbol_59.png,condition_files/AMP_rep1.csv,right,fairness.vice,,,,,,,,,,,,,,0,3,3,0,0,19,19,19,,,,,,,,,,,,,,,,,,,,,1326.7528271079063,,,,,,,,,,,,,,AMP_prac,right,1.2505703286733478,6,,,left,0.8827946921810508,,,,,,,,,,,,,,,,,,,,,,,,,1028,2019_Jun_06_1656,mf_amp_cond1,3.0.7,59.98020501303595,
penalty,&&&&&&&,images/symbols/symbol_23.png,condition_files/AMP_rep1.csv,right,authority.vice,,,,,,,,,,,,,,0,3,3,0,0,20,20,20,,,,,,,,,,,,,,,,,,,,,1328.186528023798,,,,,,,,,,,,,,AMP_prac,right,1.2505703286733478,6,,,left,1.2161251390352845,,,,,,,,,,,,,,,,,,,,,,,,,1028,2019_Jun_06_1656,mf_amp_cond1,3.0.7,59.98020501303595,
encourage,&&&&&&&&&,images/symbols/symbol_47.png,condition_files/AMP_rep1.csv,left,authority.virtue,,,,,,,,,,,,,,0,3,3,0,0,21,21,21,,,,,,,,,,,,,,,,,,,,,1329.1034333899152,,,,,,,,,,,,,,AMP_prac,right,1.2505703286733478,6,,,right,0.6992481253109872,,,,,,,,,,,,,,,,,,,,,,,,,1028,2019_Jun_06_1656,mf_amp_cond1,3.0.7,59.98020501303595,
hate,&&&&,images/symbols/symbol_24.png,condition_files/AMP_rep1.csv,right,fairness.vice,,,,,,,,,,,,,,0,3,3,0,0,22,22,22,,,,,,,,,,,,,,,,,,,,,1330.6204999519978,,,,,,,,,,,,,,AMP_prac,right,1.2505703286733478,6,,,left,1.283905810676515,,,,,,,,,,,,,,,,,,,,,,,,,1028,2019_Jun_06_1656,mf_amp_cond1,3.0.7,59.98020501303595,
preighs,&&&&&&&,images/symbols/symbol_5.png,condition_files/AMP_rep1.csv,None,nonword,,,,,,,,,,,,,,0,3,3,0,0,23,23,23,,,,,,,,,,,,,,,,,,,,,1333.2211816844065,,,,,,,,,,,,,,AMP_prac,right,1.2505703286733478,6,,,right,2.3825648929923773,,,,,,,,,,,,,,,,,,,,,,,,,1028,2019_Jun_06_1656,mf_amp_cond1,3.0.7,59.98020501303595,
help,&&&&,images/symbols/symbol_30.png,condition_files/AMP_rep1.csv,left,care.virtue,,,,,,,,,,,,,,0,3,3,0,0,24,24,24,,,,,,,,,,,,,,,,,,,,,1334.0714074266143,,,,,,,,,,,,,,AMP_prac,right,1.2505703286733478,6,,,right,0.6321259010583162,,,,,,,,,,,,,,,,,,,,,,,,,1028,2019_Jun_06_1656,mf_amp_cond1,3.0.7,59.98020501303595,
peace,&&&&&,images/symbols/symbol_28.png,condition_files/AMP_rep1.csv,left,care.virtue,,,,,,,,,,,,,,0,3,3,0,0,25,25,25,,,,,,,,,,,,,,,,,,,,,1335.3717465286609,,,,,,,,,,,,,,AMP_prac,right,1.2505703286733478,6,,,right,1.0827973221894354,,,,,,,,,,,,,,,,,,,,,,,,,1028,2019_Jun_06_1656,mf_amp_cond1,3.0.7,59.98020501303595,
terrorists,&&&&&&&&&&,images/symbols/symbol_10.png,condition_files/AMP_rep1.csv,right,fairness.vice,,,,,,,,,,,,,,0,3,3,0,0,26,26,26,,,,,,,,,,,,,,,,,,,,,1335.9885748245288,,,,,,,,,,,,,,AMP_prac,right,1.2505703286733478,6,,,left,0.3989218520000577,,,,,,,,,,,,,,,,,,,,,,,,,1028,2019_Jun_06_1656,mf_amp_cond1,3.0.7,59.98020501303595,
health,&&&&&&,images/symbols/symbol_16.png,condition_files/AMP_rep1.csv,left,care.virtue,,,,,,,,,,,,,,0,3,3,0,0,27,27,27,,,,,,,,,,,,,,,,,,,,,1337.4222901731264,,,,,,,,,,,,,,AMP_prac,right,1.2505703286733478,6,,,right,1.2164788984227926,,,,,,,,,,,,,,,,,,,,,,,,,1028,2019_Jun_06_1656,mf_amp_cond1,3.0.7,59.98020501303595,
jogns,&&&&&,images/symbols/symbol_43.png,condition_files/AMP_rep1.csv,None,nonword,,,,,,,,,,,,,,0,3,3,0,0,28,28,28,,,,,,,,,,,,,,,,,,,,,1338.805976640433,,,,,,,,,,,,,,AMP_prac,right,1.2505703286733478,6,,,left,1.1505359790753573,,,,,,,,,,,,,,,,,,,,,,,,,1028,2019_Jun_06_1656,mf_amp_cond1,3.0.7,59.98020501303595,
crime,&&&&&,images/symbols/symbol_20.png,condition_files/AMP_rep1.csv,right,fairness.vice,,,,,,,,,,,,,,0,3,3,0,0,29,29,29,,,,,,,,,,,,,,,,,,,,,1339.6062010833994,,,,,,,,,,,,,,AMP_prac,right,1.2505703286733478,6,,,left,0.5825829177629203,,,,,,,,,,,,,,,,,,,,,,,,,1028,2019_Jun_06_1656,mf_amp_cond1,3.0.7,59.98020501303595,
attacks,&&&&&&&,images/symbols/symbol_2.png,condition_files/AMP_rep1.csv,right,care.vice,,,,,,,,,,,,,,0,3,3,0,0,30,30,30,,,,,,,,,,,,,,,,,,,,,1340.3897302031983,,,,,,,,,,,,,,AMP_prac,right,1.2505703286733478,6,,,left,0.566131986444816,,,,,,,,,,,,,,,,,,,,,,,,,1028,2019_Jun_06_1656,mf_amp_cond1,3.0.7,59.98020501303595,
conspiracy,&&&&&&&&&&,images/symbols/symbol_53.png,condition_files/AMP_rep1.csv,right,sanctity.vice,,,,,,,,,,,,,,0,3,3,0,0,31,31,31,,,,,,,,,,,,,,,,,,,,,1341.8901242134161,,,,,,,,,,,,,,AMP_prac,right,1.2505703286733478,6,,,right,1.2672310138586909,,,,,,,,,,,,,,,,,,,,,,,,,1028,2019_Jun_06_1656,mf_amp_cond1,3.0.7,59.98020501303595,
embrace,&&&&&&&,images/symbols/symbol_65.png,condition_files/AMP_rep1.csv,left,authority.virtue,,,,,,,,,,,,,,0,3,3,0,0,32,32,32,,,,,,,,,,,,,,,,,,,,,1342.9070478929207,,,,,,,,,,,,,,AMP_prac,right,1.2505703286733478,6,,,left,0.7987398086115718,,,,,,,,,,,,,,,,,,,,,,,,,1028,2019_Jun_06_1656,mf_amp_cond1,3.0.7,59.98020501303595,
illegal,&&&&&&&,images/symbols/symbol_12.png,condition_files/AMP_rep1.csv,right,fairness.vice,,,,,,,,,,,,,,0,3,3,0,0,33,33,33,,,,,,,,,,,,,,,,,,,,,1344.1907218198758,,,,,,,,,,,,,,AMP_prac,right,1.2505703286733478,6,,,right,1.0504990636836737,,,,,,,,,,,,,,,,,,,,,,,,,1028,2019_Jun_06_1656,mf_amp_cond1,3.0.7,59.98020501303595,
ensure,&&&&&&,images/symbols/symbol_76.png,condition_files/AMP_rep1.csv,left,fairness.virtue,,,,,,,,,,,,,,0,3,3,0,0,34,34,34,,,,,,,,,,,,,,,,,,,,,1345.9245184077881,,,,,,,,,,,,,,AMP_prac,right,1.2505703286733478,6,,,right,1.516058845212683,,,,,,,,,,,,,,,,,,,,,,,,,1028,2019_Jun_06_1656,mf_amp_cond1,3.0.7,59.98020501303595,
strong,&&&&&&,images/symbols/symbol_46.png,condition_files/AMP_rep1.csv,left,loyalty.virtue,,,,,,,,,,,,,,0,3,3,0,0,35,35,35,,,,,,,,,,,,,,,,,,,,,1346.9414491432253,,,,,,,,,,,,,,AMP_prac,right,1.2505703286733478,6,,,right,0.7992260272148997,,,,,,,,,,,,,,,,,,,,,,,,,1028,2019_Jun_06_1656,mf_amp_cond1,3.0.7,59.98020501303595,
free,&&&&,images/symbols/symbol_82.png,condition_files/AMP_rep1.csv,left,fairness.virtue,,,,,,,,,,,,,,0,3,3,0,0,36,36,36,,,,,,,,,,,,,,,,,,,,,1348.491855357075,,,,,,,,,,,,,,AMP_prac,right,1.2505703286733478,6,,,right,1.333158859051764,,,,,,,,,,,,,,,,,,,,,,,,,1028,2019_Jun_06_1656,mf_amp_cond1,3.0.7,59.98020501303595,
betrayal,&&&&&&&&,images/symbols/symbol_61.png,condition_files/AMP_rep1.csv,right,loyalty.vice,,,,,,,,,,,,,,0,3,3,0,0,37,37,37,,,,,,,,,,,,,,,,,,,,,1349.9255575558636,,,,,,,,,,,,,,AMP_prac,right,1.2505703286733478,6,,,left,1.2005414473824203,,,,,,,,,,,,,,,,,,,,,,,,,1028,2019_Jun_06_1656,mf_amp_cond1,3.0.7,59.98020501303595,
refused,&&&&&&&,images/symbols/symbol_70.png,condition_files/AMP_rep1.csv,right,authority.vice,,,,,,,,,,,,,,0,3,3,0,0,38,38,38,,,,,,,,,,,,,,,,,,,,,1350.8424872970209,,,,,,,,,,,,,,AMP_prac,right,1.2505703286733478,6,,,left,0.6989864136558026,,,,,,,,,,,,,,,,,,,,,,,,,1028,2019_Jun_06_1656,mf_amp_cond1,3.0.7,59.98020501303595,
army,&&&&,images/symbols/symbol_58.png,condition_files/AMP_rep1.csv,right,loyalty.vice,,,,,,,,,,,,,,0,3,3,0,0,39,39,39,,,,,,,,,,,,,,,,,,,,,1351.7260366543196,,,,,,,,,,,,,,AMP_prac,right,1.2505703286733478,6,,,right,0.66609738022089,,,,,,,,,,,,,,,,,,,,,,,,,1028,2019_Jun_06_1656,mf_amp_cond1,3.0.7,59.98020501303595,
sharing,&&&&&&&,images/symbols/symbol_78.png,condition_files/AMP_rep1.csv,left,loyalty.virtue,,,,,,,,,,,,,,0,3,3,0,0,40,40,40,,,,,,,,,,,,,,,,,,,,,1352.8596588964574,,,,,,,,,,,,,,AMP_prac,right,1.2505703286733478,6,,,right,0.9159178547561169,,,,,,,,,,,,,,,,,,,,,,,,,1028,2019_Jun_06_1656,mf_amp_cond1,3.0.7,59.98020501303595,
slavery,&&&&&&&,images/symbols/symbol_45.png,condition_files/AMP_rep1.csv,right,loyalty.vice,,,,,,,,,,,,,,0,3,3,0,0,41,41,41,,,,,,,,,,,,,,,,,,,,,1353.8099350244738,,,,,,,,,,,,,,AMP_prac,right,1.2505703286733478,6,,,left,0.7327372343279421,,,,,,,,,,,,,,,,,,,,,,,,,1028,2019_Jun_06_1656,mf_amp_cond1,3.0.7,59.98020501303595,
arrests,&&&&&&&,images/symbols/symbol_31.png,condition_files/AMP_rep1.csv,right,authority.vice,,,,,,,,,,,,,,0,3,3,0,0,42,42,42,,,,,,,,,,,,,,,,,,,,,1355.8771377503872,,,,,,,,,,,,,,AMP_prac,right,1.2505703286733478,6,,,left,1.834048388991505,,,,,,,,,,,,,,,,,,,,,,,,,1028,2019_Jun_06_1656,mf_amp_cond1,3.0.7,59.98020501303595,
harassment,&&&&&&&&&&,images/symbols/symbol_3.png,condition_files/AMP_rep1.csv,right,sanctity.vice,,,,,,,,,,,,,,0,3,3,0,0,43,43,43,,,,,,,,,,,,,,,,,,,,,1359.261361752171,,,,,,,,,,,,,,AMP_prac,right,1.2505703286733478,6,,,left,3.1661267266608775,,,,,,,,,,,,,,,,,,,,,,,,,1028,2019_Jun_06_1656,mf_amp_cond1,3.0.7,59.98020501303595,
growth,&&&&&&,images/symbols/symbol_21.png,condition_files/AMP_rep1.csv,left,care.virtue,,,,,,,,,,,,,,0,3,3,0,0,44,44,44,,,,,,,,,,,,,,,,,,,,,1359.8615024220198,,,,,,,,,,,,,,AMP_prac,right,1.2505703286733478,6,,,right,0.382784589426592,,,,,,,,,,,,,,,,,,,,,,,,,1028,2019_Jun_06_1656,mf_amp_cond1,3.0.7,59.98020501303595,
victims,&&&&&&&,images/symbols/symbol_4.png,condition_files/AMP_rep1.csv,right,care.vice,,,,,,,,,,,,,,0,3,3,0,0,45,45,45,,,,,,,,,,,,,,,,,,,,,1361.1285047591664,,,,,,,,,,,,,,AMP_prac,right,1.2505703286733478,6,,,left,1.0493313050828874,,,,,,,,,,,,,,,,,,,,,,,,,1028,2019_Jun_06_1656,mf_amp_cond1,3.0.7,59.98020501303595,
death,&&&&&,images/symbols/symbol_8.png,condition_files/AMP_rep1.csv,right,care.vice,,,,,,,,,,,,,,0,3,3,0,0,46,46,46,,,,,,,,,,,,,,,,,,,,,1361.8953680619597,,,,,,,,,,,,,,AMP_prac,right,1.2505703286733478,6,,,left,0.5491954782046378,,,,,,,,,,,,,,,,,,,,,,,,,1028,2019_Jun_06_1656,mf_amp_cond1,3.0.7,59.98020501303595,
naidd,&&&&&,images/symbols/symbol_55.png,condition_files/AMP_rep1.csv,None,nonword,,,,,,,,,,,,,,0,3,3,0,0,47,47,47,,,,,,,,,,,,,,,,,,,,,1362.578885924304,,,,,,,,,,,,,,AMP_prac,right,1.2505703286733478,6,,,left,0.4503481306601316,,,,,,,,,,,,,,,,,,,,,,,,,1028,2019_Jun_06_1656,mf_amp_cond1,3.0.7,59.98020501303595,
respect,&&&&&&&,images/symbols/symbol_29.png,condition_files/AMP_rep1.csv,left,sanctity.virtue,,,,,,,,,,,,,,0,3,3,0,0,48,48,48,,,,,,,,,,,,,,,,,,,,,1363.2123870928772,,,,,,,,,,,,,,AMP_prac,right,1.2505703286733478,6,,,right,0.4153160147834569,,,,,,,,,,,,,,,,,,,,,,,,,1028,2019_Jun_06_1656,mf_amp_cond1,3.0.7,59.98020501303595,
safety,&&&&&&,images/symbols/symbol_64.png,condition_files/AMP_rep1.csv,left,care.virtue,,,,,,,,,,,,,,0,3,3,0,0,49,49,49,,,,,,,,,,,,,,,,,,,,,1364.2293271292,,,,,,,,,,,,,,AMP_prac,right,1.2505703286733478,6,,,right,0.7993145470973104,,,,,,,,,,,,,,,,,,,,,,,,,1028,2019_Jun_06_1656,mf_amp_cond1,3.0.7,59.98020501303595,
