words,masks,symbols,conditionfile,corr_ans,category,mask,LDT_trials_cond2.thisRepN,LDT_trials_cond2.thisTrialN,LDT_trials_cond2.thisN,LDT_trials_cond2.thisIndex,logo_trials.thisRepN,logo_trials.thisTrialN,logo_trials.thisN,logo_trials.thisIndex,AMP_pracs.thisRepN,AMP_pracs.thisTrialN,AMP_pracs.thisN,AMP_pracs.thisIndex,trials_loop.thisRepN,trials_loop.thisTrialN,trials_loop.thisN,trials_loop.thisIndex,AMP_trials.thisRepN,AMP_trials.thisTrialN,AMP_trials.thisN,AMP_trials.thisIndex,memtask_trials.thisRepN,memtask_trials.thisTrialN,memtask_trials.thisN,memtask_trials.thisIndex,LDT_cond1.thisRepN,LDT_cond1.thisTrialN,LDT_cond1.thisN,LDT_cond1.thisIndex,LDT_pracs.thisRepN,LDT_pracs.thisTrialN,LDT_pracs.thisN,LDT_pracs.thisIndex,LDT_trials.thisRepN,LDT_trials.thisTrialN,LDT_trials.thisN,LDT_trials.thisIndex,begin_key.keys,begin_key.rt,key_resp_instr.keys,key_resp_instr.rt,exp_time,resp_sym_rate.keys,resp_sym_rate.rt,sym_resp_1.keys,sym_resp_1.rt,sym_resp_2.keys,sym_resp_2.rt,sym_resp_trial.keys,sym_resp_trial.rt,symbol_index,resp_AMP_ready1.keys,resp_AMP_ready1.rt,resp_AMP.keys,resp_AMP.rt,task,keypress,RT,prime_dur,resp_AMP_ready.keys,resp_AMP_ready.rt,resp_AMP_trials.keys,resp_AMP_trials.rt,rest_key_resp.keys,rest_key_resp.rt,AMP_nonword_rating.response,AMP_nonword_rating.rt,AMP_word_rating.response,AMP_word_rating.rt,AMP_random_rating.response,AMP_random_rating.rt,key_resp_instr_memtask.keys,key_resp_instr_memtask.rt,resp_memtask.keys,resp_memtask.corr,resp_memtask.rt,corr,key_resp_LDT_instr.keys,key_resp_LDT_instr.rt,resp_LDT_prac.keys,resp_LDT_prac.rt,resp_LDT_ready.keys,resp_LDT_ready.rt,resp_LDT_trial.keys,resp_LDT_trial.rt,LDT_rating.response,LDT_rating.rt,participant ID,date,expName,psychopyVersion,frameRate,
,,,,,,,,,,,,,,,,,,,,,,,,,,,,,,,,,,,,,,,,,,,right,553.156887434423,,,,,,,,,,,,,,,,,,,,,,,,,,,,,,,,,,,,,,,,,,,,,,,,,1030,2019_Jun_06_1657,mf_amp_cond1,3.0.7,59.99622860416223,
,,,,,,,,,,,,,,,,,,,,,,,,,,,,,,,,,,,,,,,,,,,,,right,0.8671266031451523,,,,,,,,,,,,,,,,,,,,,,,,,,,,,,,,,,,,,,,,,,,,,,,1030,2019_Jun_06_1657,mf_amp_cond1,3.0.7,59.99622860416223,
,,,,,,,,,,,,,,,,,,,,,,,,,,,,,,,,,,,,,,,,,,,,,,,592.0585862328298,right,1.984138066880405,,,,,,,,,,,,,,,,,,,,,,,,,,,,,,,,,,,,,,,,,,,,1030,2019_Jun_06_1657,mf_amp_cond1,3.0.7,59.99622860416223,
,,,,,,,,,,,,,,,,,,,,,,,,,,,,,,,,,,,,,,,,,,,,,,,656.1248832573183,,,left,1.9506983393803239,,,,,,,,,,,,,,,,,,,,,,,,,,,,,,,,,,,,,,,,,,1030,2019_Jun_06_1657,mf_amp_cond1,3.0.7,59.99622860416223,
,,,,,,,,,,,,,,,,,,,,,,,,,,,,,,,,,,,,,,,,,,,,,,,,,,,,right,1.183865902479738,,,,,,,,,,,,,,,,,,,,,,,,,,,,,,,,,,,,,,,,1030,2019_Jun_06_1657,mf_amp_cond1,3.0.7,59.99622860416223,
,,,,,,,,,,,,,,,,,,,,,,,,,,,,,,,,,,,,,,,,,,,,,,,675.2963125342503,,,,,,,left,1.1643810966052115,19,right,5.401474293321371,,,,,,,,,,,,,,,,,,,,,,,,,,,,,,,,,,,1030,2019_Jun_06_1657,mf_amp_cond1,3.0.7,59.99622860416223,
car,&&&,images/symbols/symbol_9.png,,,,,,,,,,,,,0,0,0,0,,,,,,,,,,,,,,,,,,,,,,,,,,,,,835.8872448336333,,,,,,,,,,,,right,1.4672738783992827,AMP_prac,right,1.4672738783992827,3,,,,,,,,,,,,,,,,,,,,,,,,,,,,,1030,2019_Jun_06_1657,mf_amp_cond1,3.0.7,59.99622860416223,
banana,&&&&&&,images/symbols/symbol_68.png,,,,,,,,,,,,,0,1,1,1,,,,,,,,,,,,,,,,,,,,,,,,,,,,,837.954323135782,,,,,,,,,,,,right,1.833944414742291,AMP_prac,right,1.833944414742291,3,,,,,,,,,,,,,,,,,,,,,,,,,,,,,1030,2019_Jun_06_1657,mf_amp_cond1,3.0.7,59.99622860416223,
scarf,&&&&&,images/symbols/symbol_54.png,,,,,,,,,,,,,0,2,2,3,,,,,,,,,,,,,,,,,,,,,,,,,,,,,839.4880383634008,,,,,,,,,,,,right,1.3005637004971504,AMP_prac,right,1.3005637004971504,3,,,,,,,,,,,,,,,,,,,,,,,,,,,,,1030,2019_Jun_06_1657,mf_amp_cond1,3.0.7,59.99622860416223,
keyboard,&&&&&&&&,images/symbols/symbol_40.png,,,,,,,,,,,,,0,3,3,2,,,,,,,,,,,,,,,,,,,,,,,,,,,,,840.5883363778703,,,,,,,,,,,,left,0.8821415100246668,AMP_prac,left,0.8821415100246668,3,,,,,,,,,,,,,,,,,,,,,,,,,,,,,1030,2019_Jun_06_1657,mf_amp_cond1,3.0.7,59.99622860416223,
,,,,,,,,,,,,,,,,,,,,,,,,,,,,,,,,,,,,,,,,,,,,,,,,,,,,,,,,,,,,,,,,,right,5.8683998682536185,,,,,,,,,,,,,,,,,,,,,,,,,,,1030,2019_Jun_06_1657,mf_amp_cond1,3.0.7,59.99622860416223,
troops,&&&&&&,images/symbols/symbol_74.png,condition_files/AMP_rep2.csv,right,loyalty.vice,,,,,,,,,,,,,,0,0,0,1,0,0,0,0,,,,,,,,,,,,,,,,,,,,,867.7453241981566,,,,,,,,,,,,,,AMP_prac,left,0.8821415100246668,3,,,left,1.0171480271965265,,,,,,,,,,,,,,,,,,,,,,,,,1030,2019_Jun_06_1657,mf_amp_cond1,3.0.7,59.99622860416223,
feulde,&&&&&&,images/symbols/symbol_30.png,condition_files/AMP_rep2.csv,None,nonword,,,,,,,,,,,,,,0,0,0,1,0,1,1,1,,,,,,,,,,,,,,,,,,,,,868.7954767332412,,,,,,,,,,,,,,AMP_prac,left,0.8821415100246668,3,,,right,0.8171222410164773,,,,,,,,,,,,,,,,,,,,,,,,,1030,2019_Jun_06_1657,mf_amp_cond1,3.0.7,59.99622860416223,
charges,&&&&&&&,images/symbols/symbol_7.png,condition_files/AMP_rep2.csv,right,fairness.vice,,,,,,,,,,,,,,0,0,0,1,0,2,2,2,,,,,,,,,,,,,,,,,,,,,869.7457212517038,,,,,,,,,,,,,,AMP_prac,left,0.8821415100246668,3,,,right,0.7322320179082453,,,,,,,,,,,,,,,,,,,,,,,,,1030,2019_Jun_06_1657,mf_amp_cond1,3.0.7,59.99622860416223,
honored,&&&&&&&,images/symbols/symbol_42.png,condition_files/AMP_rep2.csv,left,authority.virtue,,,,,,,,,,,,,,0,0,0,1,0,3,3,3,,,,,,,,,,,,,,,,,,,,,870.6125813350081,,,,,,,,,,,,,,AMP_prac,left,0.8821415100246668,3,,,left,0.6493251374922693,,,,,,,,,,,,,,,,,,,,,,,,,1030,2019_Jun_06_1657,mf_amp_cond1,3.0.7,59.99622860416223,
conspiracy,&&&&&&&&&&,images/symbols/symbol_60.png,condition_files/AMP_rep2.csv,right,sanctity.vice,,,,,,,,,,,,,,0,0,0,1,0,4,4,4,,,,,,,,,,,,,,,,,,,,,871.8962378702126,,,,,,,,,,,,,,AMP_prac,left,0.8821415100246668,3,,,right,1.0504918587394059,,,,,,,,,,,,,,,,,,,,,,,,,1030,2019_Jun_06_1657,mf_amp_cond1,3.0.7,59.99622860416223,
fear,&&&&,images/symbols/symbol_31.png,condition_files/AMP_rep2.csv,right,sanctity.vice,,,,,,,,,,,,,,0,0,0,1,0,5,5,5,,,,,,,,,,,,,,,,,,,,,873.1465771938674,,,,,,,,,,,,,,AMP_prac,left,0.8821415100246668,3,,,left,1.0171746471896768,,,,,,,,,,,,,,,,,,,,,,,,,1030,2019_Jun_06_1657,mf_amp_cond1,3.0.7,59.99622860416223,
freedom,&&&&&&&,images/symbols/symbol_10.png,condition_files/AMP_rep2.csv,left,sanctity.virtue,,,,,,,,,,,,,,0,0,0,1,0,6,6,6,,,,,,,,,,,,,,,,,,,,,874.246834797319,,,,,,,,,,,,,,AMP_prac,left,0.8821415100246668,3,,,left,0.8822043715044856,,,,,,,,,,,,,,,,,,,,,,,,,1030,2019_Jun_06_1657,mf_amp_cond1,3.0.7,59.99622860416223,
increase,&&&&&&&&,images/symbols/symbol_3.png,condition_files/AMP_rep2.csv,left,care.virtue,,,,,,,,,,,,,,0,0,0,1,0,7,7,7,,,,,,,,,,,,,,,,,,,,,875.1470666150562,,,,,,,,,,,,,,AMP_prac,left,0.8821415100246668,3,,,right,0.682549019344151,,,,,,,,,,,,,,,,,,,,,,,,,1030,2019_Jun_06_1657,mf_amp_cond1,3.0.7,59.99622860416223,
peaceful,&&&&&&&&,images/symbols/symbol_64.png,condition_files/AMP_rep2.csv,left,authority.virtue,,,,,,,,,,,,,,0,0,0,1,0,8,8,8,,,,,,,,,,,,,,,,,,,,,876.2139989887364,,,,,,,,,,,,,,AMP_prac,left,0.8821415100246668,3,,,left,0.8489397577941418,,,,,,,,,,,,,,,,,,,,,,,,,1030,2019_Jun_06_1657,mf_amp_cond1,3.0.7,59.99622860416223,
terrorists,&&&&&&&&&&,images/symbols/symbol_29.png,condition_files/AMP_rep2.csv,right,fairness.vice,,,,,,,,,,,,,,0,0,0,1,0,9,9,9,,,,,,,,,,,,,,,,,,,,,877.2976294173859,,,,,,,,,,,,,,AMP_prac,left,0.8821415100246668,3,,,left,0.8656249842606485,,,,,,,,,,,,,,,,,,,,,,,,,1030,2019_Jun_06_1657,mf_amp_cond1,3.0.7,59.99622860416223,
embrace,&&&&&&&,images/symbols/symbol_77.png,condition_files/AMP_rep2.csv,left,authority.virtue,,,,,,,,,,,,,,0,0,0,1,0,10,10,10,,,,,,,,,,,,,,,,,,,,,878.1144800074399,,,,,,,,,,,,,,AMP_prac,left,0.8821415100246668,3,,,right,0.5990606704726815,,,,,,,,,,,,,,,,,,,,,,,,,1030,2019_Jun_06_1657,mf_amp_cond1,3.0.7,59.99622860416223,
sneaze,&&&&&&,images/symbols/symbol_47.png,condition_files/AMP_rep2.csv,None,nonword,,,,,,,,,,,,,,0,0,0,1,0,11,11,11,,,,,,,,,,,,,,,,,,,,,879.0980770164169,,,,,,,,,,,,,,AMP_prac,left,0.8821415100246668,3,,,right,0.7659693751484156,,,,,,,,,,,,,,,,,,,,,,,,,1030,2019_Jun_06_1657,mf_amp_cond1,3.0.7,59.99622860416223,
coacs,&&&&&,images/symbols/symbol_39.png,condition_files/AMP_rep2.csv,None,nonword,,,,,,,,,,,,,,0,0,0,1,0,12,12,12,,,,,,,,,,,,,,,,,,,,,879.9316246989183,,,,,,,,,,,,,,AMP_prac,left,0.8821415100246668,3,,,right,0.6158510930836201,,,,,,,,,,,,,,,,,,,,,,,,,1030,2019_Jun_06_1657,mf_amp_cond1,3.0.7,59.99622860416223,
actively,&&&&&&&&,images/symbols/symbol_73.png,condition_files/AMP_rep2.csv,left,authority.virtue,,,,,,,,,,,,,,0,0,0,1,0,13,13,13,,,,,,,,,,,,,,,,,,,,,880.7651528171264,,,,,,,,,,,,,,AMP_prac,left,0.8821415100246668,3,,,right,0.6157763642258942,,,,,,,,,,,,,,,,,,,,,,,,,1030,2019_Jun_06_1657,mf_amp_cond1,3.0.7,59.99622860416223,
safety,&&&&&&,images/symbols/symbol_69.png,condition_files/AMP_rep2.csv,left,care.virtue,,,,,,,,,,,,,,0,0,0,1,0,14,14,14,,,,,,,,,,,,,,,,,,,,,882.348882669583,,,,,,,,,,,,,,AMP_prac,left,0.8821415100246668,3,,,left,1.365980985108763,,,,,,,,,,,,,,,,,,,,,,,,,1030,2019_Jun_06_1657,mf_amp_cond1,3.0.7,59.99622860416223,
men,&&&,images/symbols/symbol_36.png,condition_files/AMP_rep2.csv,right,loyalty.vice,,,,,,,,,,,,,,0,0,0,1,0,15,15,15,,,,,,,,,,,,,,,,,,,,,883.4158455119468,,,,,,,,,,,,,,AMP_prac,left,0.8821415100246668,3,,,right,0.8493063431233168,,,,,,,,,,,,,,,,,,,,,,,,,1030,2019_Jun_06_1657,mf_amp_cond1,3.0.7,59.99622860416223,
friends,&&&&&&&,images/symbols/symbol_5.png,condition_files/AMP_rep2.csv,left,loyalty.virtue,,,,,,,,,,,,,,0,0,0,1,0,16,16,16,,,,,,,,,,,,,,,,,,,,,884.7328218249604,,,,,,,,,,,,,,AMP_prac,left,0.8821415100246668,3,,,right,1.0993990316055715,,,,,,,,,,,,,,,,,,,,,,,,,1030,2019_Jun_06_1657,mf_amp_cond1,3.0.7,59.99622860416223,
protect,&&&&&&&,images/symbols/symbol_37.png,condition_files/AMP_rep2.csv,left,fairness.virtue,,,,,,,,,,,,,,0,0,0,1,0,17,17,17,,,,,,,,,,,,,,,,,,,,,885.8831242010929,,,,,,,,,,,,,,AMP_prac,left,0.8821415100246668,3,,,left,0.9171351343393326,,,,,,,,,,,,,,,,,,,,,,,,,1030,2019_Jun_06_1657,mf_amp_cond1,3.0.7,59.99622860416223,
killed,&&&&&&,images/symbols/symbol_33.png,condition_files/AMP_rep2.csv,right,care.vice,,,,,,,,,,,,,,0,0,0,1,0,18,18,18,,,,,,,,,,,,,,,,,,,,,886.816677399911,,,,,,,,,,,,,,AMP_prac,left,0.8821415100246668,3,,,right,0.7152068270370364,,,,,,,,,,,,,,,,,,,,,,,,,1030,2019_Jun_06_1657,mf_amp_cond1,3.0.7,59.99622860416223,
corruption,&&&&&&&&&&,images/symbols/symbol_54.png,condition_files/AMP_rep2.csv,right,sanctity.vice,,,,,,,,,,,,,,0,0,0,1,0,19,19,19,,,,,,,,,,,,,,,,,,,,,888.0169879868627,,,,,,,,,,,,,,AMP_prac,left,0.8821415100246668,3,,,right,0.9671401376836002,,,,,,,,,,,,,,,,,,,,,,,,,1030,2019_Jun_06_1657,mf_amp_cond1,3.0.7,59.99622860416223,
sharing,&&&&&&&,images/symbols/symbol_8.png,condition_files/AMP_rep2.csv,left,loyalty.virtue,,,,,,,,,,,,,,0,0,0,1,0,20,20,20,,,,,,,,,,,,,,,,,,,,,889.0005994285457,,,,,,,,,,,,,,AMP_prac,left,0.8821415100246668,3,,,left,0.7652150373905897,,,,,,,,,,,,,,,,,,,,,,,,,1030,2019_Jun_06_1657,mf_amp_cond1,3.0.7,59.99622860416223,
encourage,&&&&&&&&&,images/symbols/symbol_35.png,condition_files/AMP_rep2.csv,left,authority.virtue,,,,,,,,,,,,,,0,0,0,1,0,21,21,21,,,,,,,,,,,,,,,,,,,,,890.8510359949432,,,,,,,,,,,,,,AMP_prac,left,0.8821415100246668,3,,,right,1.6327627478167415,,,,,,,,,,,,,,,,,,,,,,,,,1030,2019_Jun_06_1657,mf_amp_cond1,3.0.7,59.99622860416223,
thinx,&&&&&,images/symbols/symbol_78.png,condition_files/AMP_rep2.csv,None,nonword,,,,,,,,,,,,,,0,0,0,1,0,22,22,22,,,,,,,,,,,,,,,,,,,,,891.8012789096683,,,,,,,,,,,,,,AMP_prac,left,0.8821415100246668,3,,,left,0.7323429873213172,,,,,,,,,,,,,,,,,,,,,,,,,1030,2019_Jun_06_1657,mf_amp_cond1,3.0.7,59.99622860416223,
commitment,&&&&&&&&&&,images/symbols/symbol_40.png,condition_files/AMP_rep2.csv,left,sanctity.virtue,,,,,,,,,,,,,,0,0,0,1,0,23,23,23,,,,,,,,,,,,,,,,,,,,,892.90156088816,,,,,,,,,,,,,,AMP_prac,left,0.8821415100246668,3,,,left,0.8825995004735887,,,,,,,,,,,,,,,,,,,,,,,,,1030,2019_Jun_06_1657,mf_amp_cond1,3.0.7,59.99622860416223,
failure,&&&&&&&,images/symbols/symbol_76.png,condition_files/AMP_rep2.csv,right,loyalty.vice,,,,,,,,,,,,,,0,0,0,1,0,24,24,24,,,,,,,,,,,,,,,,,,,,,893.9351507131942,,,,,,,,,,,,,,AMP_prac,left,0.8821415100246668,3,,,right,0.8163932408206165,,,,,,,,,,,,,,,,,,,,,,,,,1030,2019_Jun_06_1657,mf_amp_cond1,3.0.7,59.99622860416223,
pleasant,&&&&&&&,images/symbols/symbol_43.png,condition_files/AMP_rep2.csv,right,control,,,,,,,,,,,,,,0,0,0,1,0,25,25,25,,,,,,,,,,,,,,,,,,,,,895.018780500628,,,,,,,,,,,,,,AMP_prac,left,0.8821415100246668,3,,,right,0.8504423392005265,,,,,,,,,,,,,,,,,,,,,,,,,1030,2019_Jun_06_1657,mf_amp_cond1,3.0.7,59.99622860416223,
hope,&&&&,images/symbols/symbol_80.png,condition_files/AMP_rep2.csv,left,loyalty.virtue,,,,,,,,,,,,,,0,0,0,1,0,26,26,26,,,,,,,,,,,,,,,,,,,,,896.119069213979,,,,,,,,,,,,,,AMP_prac,left,0.8821415100246668,3,,,left,0.8821947500109673,,,,,,,,,,,,,,,,,,,,,,,,,1030,2019_Jun_06_1657,mf_amp_cond1,3.0.7,59.99622860416223,
promises,&&&&&&&&,images/symbols/symbol_81.png,condition_files/AMP_rep2.csv,left,fairness.virtue,,,,,,,,,,,,,,0,0,0,1,0,27,27,27,,,,,,,,,,,,,,,,,,,,,897.1026280573569,,,,,,,,,,,,,,AMP_prac,left,0.8821415100246668,3,,,left,0.7661223588511348,,,,,,,,,,,,,,,,,,,,,,,,,1030,2019_Jun_06_1657,mf_amp_cond1,3.0.7,59.99622860416223,
faith,&&&&&,images/symbols/symbol_51.png,condition_files/AMP_rep2.csv,left,sanctity.virtue,,,,,,,,,,,,,,0,0,0,1,0,28,28,28,,,,,,,,,,,,,,,,,,,,,898.1862504682504,,,,,,,,,,,,,,AMP_prac,left,0.8821415100246668,3,,,left,0.8504554890096188,,,,,,,,,,,,,,,,,,,,,,,,,1030,2019_Jun_06_1657,mf_amp_cond1,3.0.7,59.99622860416223,
harassment,&&&&&&&&&&,images/symbols/symbol_17.png,condition_files/AMP_rep2.csv,right,sanctity.vice,,,,,,,,,,,,,,0,0,0,1,0,29,29,29,,,,,,,,,,,,,,,,,,,,,900.2867729878053,,,,,,,,,,,,,,AMP_prac,left,0.8821415100246668,3,,,left,1.8821123242378235,,,,,,,,,,,,,,,,,,,,,,,,,1030,2019_Jun_06_1657,mf_amp_cond1,3.0.7,59.99622860416223,
fair,&&&&,images/symbols/symbol_16.png,condition_files/AMP_rep2.csv,left,fairness.virtue,,,,,,,,,,,,,,0,0,0,1,0,30,30,30,,,,,,,,,,,,,,,,,,,,,901.1536487862468,,,,,,,,,,,,,,AMP_prac,left,0.8821415100246668,3,,,right,0.6497680540196598,,,,,,,,,,,,,,,,,,,,,,,,,1030,2019_Jun_06_1657,mf_amp_cond1,3.0.7,59.99622860416223,
benefit,&&&&&&&,images/symbols/symbol_62.png,condition_files/AMP_rep2.csv,left,fairness.virtue,,,,,,,,,,,,,,0,0,0,1,0,31,31,31,,,,,,,,,,,,,,,,,,,,,902.2205866128206,,,,,,,,,,,,,,AMP_prac,left,0.8821415100246668,3,,,right,0.8337760362774134,,,,,,,,,,,,,,,,,,,,,,,,,1030,2019_Jun_06_1657,mf_amp_cond1,3.0.7,59.99622860416223,
violence,&&&&&&&&,images/symbols/symbol_57.png,condition_files/AMP_rep2.csv,right,care.vice,,,,,,,,,,,,,,0,0,0,1,0,32,32,32,,,,,,,,,,,,,,,,,,,,,903.5875987177715,,,,,,,,,,,,,,AMP_prac,left,0.8821415100246668,3,,,left,1.148984530940652,,,,,,,,,,,,,,,,,,,,,,,,,1030,2019_Jun_06_1657,mf_amp_cond1,3.0.7,59.99622860416223,
care,&&&&,images/symbols/symbol_27.png,condition_files/AMP_rep2.csv,left,care.virtue,,,,,,,,,,,,,,0,0,0,1,0,33,33,33,,,,,,,,,,,,,,,,,,,,,905.1213200390339,,,,,,,,,,,,,,AMP_prac,left,0.8821415100246668,3,,,right,1.316152699291706,,,,,,,,,,,,,,,,,,,,,,,,,1030,2019_Jun_06_1657,mf_amp_cond1,3.0.7,59.99622860416223,
respect,&&&&&&&,images/symbols/symbol_48.png,condition_files/AMP_rep2.csv,left,sanctity.virtue,,,,,,,,,,,,,,0,0,0,1,0,34,34,34,,,,,,,,,,,,,,,,,,,,,906.0548940845765,,,,,,,,,,,,,,AMP_prac,left,0.8821415100246668,3,,,right,0.7160009341314435,,,,,,,,,,,,,,,,,,,,,,,,,1030,2019_Jun_06_1657,mf_amp_cond1,3.0.7,59.99622860416223,
yeussed,&&&&&&&,images/symbols/symbol_50.png,condition_files/AMP_rep2.csv,None,nonword,,,,,,,,,,,,,,0,0,0,1,0,35,35,35,,,,,,,,,,,,,,,,,,,,,907.0383496559225,,,,,,,,,,,,,,AMP_prac,left,0.8821415100246668,3,,,right,0.765849425457418,,,,,,,,,,,,,,,,,,,,,,,,,1030,2019_Jun_06_1657,mf_amp_cond1,3.0.7,59.99622860416223,
illegal,&&&&&&&,images/symbols/symbol_65.png,condition_files/AMP_rep2.csv,right,fairness.vice,,,,,,,,,,,,,,0,0,0,1,0,36,36,36,,,,,,,,,,,,,,,,,,,,,908.1720890011638,,,,,,,,,,,,,,AMP_prac,left,0.8821415100246668,3,,,left,0.915691886562854,,,,,,,,,,,,,,,,,,,,,,,,,1030,2019_Jun_06_1657,mf_amp_cond1,3.0.7,59.99622860416223,
health,&&&&&&,images/symbols/symbol_66.png,condition_files/AMP_rep2.csv,left,care.virtue,,,,,,,,,,,,,,0,0,0,1,0,37,37,37,,,,,,,,,,,,,,,,,,,,,909.6224621287547,,,,,,,,,,,,,,AMP_prac,left,0.8821415100246668,3,,,left,1.2330299732275307,,,,,,,,,,,,,,,,,,,,,,,,,1030,2019_Jun_06_1657,mf_amp_cond1,3.0.7,59.99622860416223,
ban,&&&,images/symbols/symbol_79.png,condition_files/AMP_rep2.csv,right,loyalty.vice,,,,,,,,,,,,,,0,0,0,1,0,38,38,38,,,,,,,,,,,,,,,,,,,,,910.9394650617614,,,,,,,,,,,,,,AMP_prac,left,0.8821415100246668,3,,,right,1.099454516544938,,,,,,,,,,,,,,,,,,,,,,,,,1030,2019_Jun_06_1657,mf_amp_cond1,3.0.7,59.99622860416223,
free,&&&&,images/symbols/symbol_71.png,condition_files/AMP_rep2.csv,left,fairness.virtue,,,,,,,,,,,,,,0,0,0,1,0,39,39,39,,,,,,,,,,,,,,,,,,,,,911.9730638670735,,,,,,,,,,,,,,AMP_prac,left,0.8821415100246668,3,,,left,0.8161273626610637,,,,,,,,,,,,,,,,,,,,,,,,,1030,2019_Jun_06_1657,mf_amp_cond1,3.0.7,59.99622860416223,
lies,&&&&,images/symbols/symbol_38.png,condition_files/AMP_rep2.csv,right,fairness.vice,,,,,,,,,,,,,,0,0,0,1,0,40,40,40,,,,,,,,,,,,,,,,,,,,,912.9066186691634,,,,,,,,,,,,,,AMP_prac,left,0.8821415100246668,3,,,right,0.7161689922213554,,,,,,,,,,,,,,,,,,,,,,,,,1030,2019_Jun_06_1657,mf_amp_cond1,3.0.7,59.99622860416223,
support,&&&&&&&,images/symbols/symbol_14.png,condition_files/AMP_rep2.csv,left,loyalty.virtue,,,,,,,,,,,,,,0,0,0,1,0,41,41,41,,,,,,,,,,,,,,,,,,,,,913.7401583339088,,,,,,,,,,,,,,AMP_prac,left,0.8821415100246668,3,,,right,0.616080408450216,,,,,,,,,,,,,,,,,,,,,,,,,1030,2019_Jun_06_1657,mf_amp_cond1,3.0.7,59.99622860416223,
prison,&&&&&&,images/symbols/symbol_19.png,condition_files/AMP_rep2.csv,right,fairness.vice,,,,,,,,,,,,,,0,0,0,1,0,42,42,42,,,,,,,,,,,,,,,,,,,,,914.7404187596403,,,,,,,,,,,,,,AMP_prac,left,0.8821415100246668,3,,,left,0.7828438263386488,,,,,,,,,,,,,,,,,,,,,,,,,1030,2019_Jun_06_1657,mf_amp_cond1,3.0.7,59.99622860416223,
integrity,&&&&&&&&&,images/symbols/symbol_52.png,condition_files/AMP_rep2.csv,left,fairness.virtue,,,,,,,,,,,,,,0,0,0,1,0,43,43,43,,,,,,,,,,,,,,,,,,,,,915.8073501712643,,,,,,,,,,,,,,AMP_prac,left,0.8821415100246668,3,,,left,0.8497008308768272,,,,,,,,,,,,,,,,,,,,,,,,,1030,2019_Jun_06_1657,mf_amp_cond1,3.0.7,59.99622860416223,
progress,&&&&&&&&,images/symbols/symbol_22.png,condition_files/AMP_rep2.csv,left,authority.virtue,,,,,,,,,,,,,,0,0,0,1,0,44,44,44,,,,,,,,,,,,,,,,,,,,,916.9409772646613,,,,,,,,,,,,,,AMP_prac,left,0.8821415100246668,3,,,right,0.9160100426524878,,,,,,,,,,,,,,,,,,,,,,,,,1030,2019_Jun_06_1657,mf_amp_cond1,3.0.7,59.99622860416223,
unpleasant,&&&&&&&&&,images/symbols/symbol_9.png,condition_files/AMP_rep2.csv,left,control,,,,,,,,,,,,,,0,0,0,1,0,45,45,45,,,,,,,,,,,,,,,,,,,,,917.9245486161672,,,,,,,,,,,,,,AMP_prac,left,0.8821415100246668,3,,,right,0.765984449069947,,,,,,,,,,,,,,,,,,,,,,,,,1030,2019_Jun_06_1657,mf_amp_cond1,3.0.7,59.99622860416223,
scandal,&&&&&&&,images/symbols/symbol_4.png,condition_files/AMP_rep2.csv,right,sanctity.vice,,,,,,,,,,,,,,0,0,0,1,0,46,46,46,,,,,,,,,,,,,,,,,,,,,919.0081973257475,,,,,,,,,,,,,,AMP_prac,left,0.8821415100246668,3,,,left,0.8658170960843563,,,,,,,,,,,,,,,,,,,,,,,,,1030,2019_Jun_06_1657,mf_amp_cond1,3.0.7,59.99622860416223,
great,&&&&&,images/symbols/symbol_34.png,condition_files/AMP_rep2.csv,left,loyalty.virtue,,,,,,,,,,,,,,0,0,0,1,0,47,47,47,,,,,,,,,,,,,,,,,,,,,920.5752352168784,,,,,,,,,,,,,,AMP_prac,left,0.8821415100246668,3,,,right,1.3492765161208808,,,,,,,,,,,,,,,,,,,,,,,,,1030,2019_Jun_06_1657,mf_amp_cond1,3.0.7,59.99622860416223,
suicide,&&&&&&&,images/symbols/symbol_75.png,condition_files/AMP_rep2.csv,right,care.vice,,,,,,,,,,,,,,0,0,0,1,0,48,48,48,,,,,,,,,,,,,,,,,,,,,921.575489549432,,,,,,,,,,,,,,AMP_prac,left,0.8821415100246668,3,,,left,0.7671088990755379,,,,,,,,,,,,,,,,,,,,,,,,,1030,2019_Jun_06_1657,mf_amp_cond1,3.0.7,59.99622860416223,
hand,&&&&,images/symbols/symbol_59.png,condition_files/AMP_rep2.csv,left,sanctity.virtue,,,,,,,,,,,,,,0,0,0,1,0,49,49,49,,,,,,,,,,,,,,,,,,,,,922.5757560692728,,,,,,,,,,,,,,AMP_prac,left,0.8821415100246668,3,,,right,0.7820420218631625,,,,,,,,,,,,,,,,,,,,,,,,,1030,2019_Jun_06_1657,mf_amp_cond1,3.0.7,59.99622860416223,
forced,&&&&&&,images/symbols/symbol_11.png,condition_files/AMP_rep2.csv,right,fairness.vice,,,,,,,,,,,,,,0,0,0,1,0,50,50,50,,,,,,,,,,,,,,,,,,,,,923.5426575895399,,,,,,,,,,,,,,AMP_prac,left,0.8821415100246668,3,,,right,0.7494461135938764,,,,,,,,,,,,,,,,,,,,,,,,,1030,2019_Jun_06_1657,mf_amp_cond1,3.0.7,59.99622860416223,
rebels,&&&&&&,images/symbols/symbol_20.png,condition_files/AMP_rep2.csv,right,authority.vice,,,,,,,,,,,,,,0,0,0,1,0,51,51,51,,,,,,,,,,,,,,,,,,,,,924.4262048229575,,,,,,,,,,,,,,AMP_prac,left,0.8821415100246668,3,,,right,0.6665825308300555,,,,,,,,,,,,,,,,,,,,,,,,,1030,2019_Jun_06_1657,mf_amp_cond1,3.0.7,59.99622860416223,
rejected,&&&&&&&&,images/symbols/symbol_41.png,condition_files/AMP_rep2.csv,right,authority.vice,,,,,,,,,,,,,,0,0,0,1,0,52,52,52,,,,,,,,,,,,,,,,,,,,,925.3931188513525,,,,,,,,,,,,,,AMP_prac,left,0.8821415100246668,3,,,right,0.7498017936013639,,,,,,,,,,,,,,,,,,,,,,,,,1030,2019_Jun_06_1657,mf_amp_cond1,3.0.7,59.99622860416223,
dignity,&&&&&&&,images/symbols/symbol_70.png,condition_files/AMP_rep2.csv,left,sanctity.virtue,,,,,,,,,,,,,,0,0,0,1,0,53,53,53,,,,,,,,,,,,,,,,,,,,,926.3100686087273,,,,,,,,,,,,,,AMP_prac,left,0.8821415100246668,3,,,right,0.6995305917225778,,,,,,,,,,,,,,,,,,,,,,,,,1030,2019_Jun_06_1657,mf_amp_cond1,3.0.7,59.99622860416223,
racist,&&&&&&,images/symbols/symbol_82.png,condition_files/AMP_rep2.csv,right,sanctity.vice,,,,,,,,,,,,,,0,0,0,1,0,54,54,54,,,,,,,,,,,,,,,,,,,,,927.2602499444038,,,,,,,,,,,,,,AMP_prac,left,0.8821415100246668,3,,,left,0.7330713463015854,,,,,,,,,,,,,,,,,,,,,,,,,1030,2019_Jun_06_1657,mf_amp_cond1,3.0.7,59.99622860416223,
shot,&&&&,images/symbols/symbol_55.png,condition_files/AMP_rep2.csv,right,care.vice,,,,,,,,,,,,,,0,0,0,1,0,55,55,55,,,,,,,,,,,,,,,,,,,,,928.3938699816354,,,,,,,,,,,,,,AMP_prac,left,0.8821415100246668,3,,,right,0.9159721974283457,,,,,,,,,,,,,,,,,,,,,,,,,1030,2019_Jun_06_1657,mf_amp_cond1,3.0.7,59.99622860416223,
strength,&&&&&&&&,images/symbols/symbol_56.png,condition_files/AMP_rep2.csv,left,sanctity.virtue,,,,,,,,,,,,,,0,0,0,1,0,56,56,56,,,,,,,,,,,,,,,,,,,,,929.1774036805145,,,,,,,,,,,,,,AMP_prac,left,0.8821415100246668,3,,,right,0.5503555522300303,,,,,,,,,,,,,,,,,,,,,,,,,1030,2019_Jun_06_1657,mf_amp_cond1,3.0.7,59.99622860416223,
refused,&&&&&&&,images/symbols/symbol_28.png,condition_files/AMP_rep2.csv,right,authority.vice,,,,,,,,,,,,,,0,0,0,1,0,57,57,57,,,,,,,,,,,,,,,,,,,,,930.0609743264504,,,,,,,,,,,,,,AMP_prac,left,0.8821415100246668,3,,,left,0.6652983608655632,,,,,,,,,,,,,,,,,,,,,,,,,1030,2019_Jun_06_1657,mf_amp_cond1,3.0.7,59.99622860416223,
groups,&&&&&&,images/symbols/symbol_23.png,condition_files/AMP_rep2.csv,right,loyalty.vice,,,,,,,,,,,,,,0,0,0,1,0,58,58,58,,,,,,,,,,,,,,,,,,,,,930.9278488424607,,,,,,,,,,,,,,AMP_prac,left,0.8821415100246668,3,,,left,0.6493402114138007,,,,,,,,,,,,,,,,,,,,,,,,,1030,2019_Jun_06_1657,mf_amp_cond1,3.0.7,59.99622860416223,
riot,&&&&,images/symbols/symbol_46.png,condition_files/AMP_rep2.csv,right,authority.vice,,,,,,,,,,,,,,0,0,0,1,0,59,59,59,,,,,,,,,,,,,,,,,,,,,931.7780570550822,,,,,,,,,,,,,,AMP_prac,left,0.8821415100246668,3,,,right,0.6327755772508681,,,,,,,,,,,,,,,,,,,,,,,,,1030,2019_Jun_06_1657,mf_amp_cond1,3.0.7,59.99622860416223,
arrests,&&&&&&&,images/symbols/symbol_49.png,condition_files/AMP_rep2.csv,right,authority.vice,,,,,,,,,,,,,,0,0,0,1,0,60,60,60,,,,,,,,,,,,,,,,,,,,,933.0951013606973,,,,,,,,,,,,,,AMP_prac,left,0.8821415100246668,3,,,right,1.0838748184032738,,,,,,,,,,,,,,,,,,,,,,,,,1030,2019_Jun_06_1657,mf_amp_cond1,3.0.7,59.99622860416223,
injured,&&&&&&&,images/symbols/symbol_26.png,condition_files/AMP_rep2.csv,right,care.vice,,,,,,,,,,,,,,0,0,0,1,0,61,61,61,,,,,,,,,,,,,,,,,,,,,934.0619756197557,,,,,,,,,,,,,,AMP_prac,left,0.8821415100246668,3,,,left,0.7488492508418858,,,,,,,,,,,,,,,,,,,,,,,,,1030,2019_Jun_06_1657,mf_amp_cond1,3.0.7,59.99622860416223,
peace,&&&&&,images/symbols/symbol_24.png,condition_files/AMP_rep2.csv,left,care.virtue,,,,,,,,,,,,,,0,0,0,1,0,62,62,62,,,,,,,,,,,,,,,,,,,,,934.9288571914658,,,,,,,,,,,,,,AMP_prac,left,0.8821415100246668,3,,,right,0.6492969137616456,,,,,,,,,,,,,,,,,,,,,,,,,1030,2019_Jun_06_1657,mf_amp_cond1,3.0.7,59.99622860416223,
intelligence,&&&&&&&&&&&&,images/symbols/symbol_1.png,condition_files/AMP_rep2.csv,left,loyalty.virtue,,,,,,,,,,,,,,0,0,0,1,0,63,63,63,,,,,,,,,,,,,,,,,,,,,935.9291035057977,,,,,,,,,,,,,,AMP_prac,left,0.8821415100246668,3,,,right,0.7826616568490863,,,,,,,,,,,,,,,,,,,,,,,,,1030,2019_Jun_06_1657,mf_amp_cond1,3.0.7,59.99622860416223,
critics,&&&&&&&,images/symbols/symbol_61.png,condition_files/AMP_rep2.csv,right,loyalty.vice,,,,,,,,,,,,,,0,0,0,1,0,64,64,64,,,,,,,,,,,,,,,,,,,,,937.0794215975329,,,,,,,,,,,,,,AMP_prac,left,0.8821415100246668,3,,,right,0.9171402654610574,,,,,,,,,,,,,,,,,,,,,,,,,1030,2019_Jun_06_1657,mf_amp_cond1,3.0.7,59.99622860416223,
phegned,&&&&&&&,images/symbols/symbol_6.png,condition_files/AMP_rep2.csv,None,nonword,,,,,,,,,,,,,,0,0,0,1,0,65,65,65,,,,,,,,,,,,,,,,,,,,,937.9629598506726,,,,,,,,,,,,,,AMP_prac,left,0.8821415100246668,3,,,right,0.6655674465000629,,,,,,,,,,,,,,,,,,,,,,,,,1030,2019_Jun_06_1657,mf_amp_cond1,3.0.7,59.99622860416223,
naidd,&&&&&,images/symbols/symbol_18.png,condition_files/AMP_rep2.csv,None,nonword,,,,,,,,,,,,,,0,0,0,1,0,66,66,66,,,,,,,,,,,,,,,,,,,,,938.9465376166627,,,,,,,,,,,,,,AMP_prac,left,0.8821415100246668,3,,,right,0.7662208206020296,,,,,,,,,,,,,,,,,,,,,,,,,1030,2019_Jun_06_1657,mf_amp_cond1,3.0.7,59.99622860416223,
victims,&&&&&&&,images/symbols/symbol_15.png,condition_files/AMP_rep2.csv,right,care.vice,,,,,,,,,,,,,,0,0,0,1,0,67,67,67,,,,,,,,,,,,,,,,,,,,,939.8801860697567,,,,,,,,,,,,,,AMP_prac,left,0.8821415100246668,3,,,left,0.716169954277575,,,,,,,,,,,,,,,,,,,,,,,,,1030,2019_Jun_06_1657,mf_amp_cond1,3.0.7,59.99622860416223,
ensure,&&&&&&,images/symbols/symbol_53.png,condition_files/AMP_rep2.csv,left,fairness.virtue,,,,,,,,,,,,,,0,0,0,1,0,68,68,68,,,,,,,,,,,,,,,,,,,,,940.9803901128471,,,,,,,,,,,,,,AMP_prac,left,0.8821415100246668,3,,,left,0.882805404253304,,,,,,,,,,,,,,,,,,,,,,,,,1030,2019_Jun_06_1657,mf_amp_cond1,3.0.7,59.99622860416223,
love,&&&&,images/symbols/symbol_58.png,condition_files/AMP_rep2.csv,left,loyalty.virtue,,,,,,,,,,,,,,0,0,0,1,0,69,69,69,,,,,,,,,,,,,,,,,,,,,941.947307348717,,,,,,,,,,,,,,AMP_prac,left,0.8821415100246668,3,,,left,0.7493710648268461,,,,,,,,,,,,,,,,,,,,,,,,,1030,2019_Jun_06_1657,mf_amp_cond1,3.0.7,59.99622860416223,
accused,&&&&&&&,images/symbols/symbol_13.png,condition_files/AMP_rep2.csv,right,fairness.vice,,,,,,,,,,,,,,0,0,0,1,0,70,70,70,,,,,,,,,,,,,,,,,,,,,942.714163839817,,,,,,,,,,,,,,AMP_prac,left,0.8821415100246668,3,,,right,0.5494074984453619,,,,,,,,,,,,,,,,,,,,,,,,,1030,2019_Jun_06_1657,mf_amp_cond1,3.0.7,59.99622860416223,
victim,&&&&&&,images/symbols/symbol_67.png,condition_files/AMP_rep2.csv,right,care.vice,,,,,,,,,,,,,,0,0,0,1,0,71,71,71,,,,,,,,,,,,,,,,,,,,,943.8477803491987,,,,,,,,,,,,,,AMP_prac,left,0.8821415100246668,3,,,left,0.9160029864870012,,,,,,,,,,,,,,,,,,,,,,,,,1030,2019_Jun_06_1657,mf_amp_cond1,3.0.7,59.99622860416223,
useful,&&&&&&,images/symbols/symbol_63.png,condition_files/AMP_rep2.csv,left,authority.virtue,,,,,,,,,,,,,,0,0,0,1,0,72,72,72,,,,,,,,,,,,,,,,,,,,,944.6979949758388,,,,,,,,,,,,,,AMP_prac,left,0.8821415100246668,3,,,left,0.6324413847178221,,,,,,,,,,,,,,,,,,,,,,,,,1030,2019_Jun_06_1657,mf_amp_cond1,3.0.7,59.99622860416223,
safe,&&&&,images/symbols/symbol_25.png,condition_files/AMP_rep2.csv,left,care.virtue,,,,,,,,,,,,,,0,0,0,1,0,73,73,73,,,,,,,,,,,,,,,,,,,,,945.5815717158839,,,,,,,,,,,,,,AMP_prac,left,0.8821415100246668,3,,,right,0.6660491707734764,,,,,,,,,,,,,,,,,,,,,,,,,1030,2019_Jun_06_1657,mf_amp_cond1,3.0.7,59.99622860416223,
dighnd,&&&&&&,images/symbols/symbol_12.png,condition_files/AMP_rep2.csv,None,nonword,,,,,,,,,,,,,,0,0,0,1,0,74,74,74,,,,,,,,,,,,,,,,,,,,,946.4817842901684,,,,,,,,,,,,,,AMP_prac,left,0.8821415100246668,3,,,right,0.6670748381875455,,,,,,,,,,,,,,,,,,,,,,,,,1030,2019_Jun_06_1657,mf_amp_cond1,3.0.7,59.99622860416223,
army,&&&&,images/symbols/symbol_45.png,condition_files/AMP_rep2.csv,right,loyalty.vice,,,,,,,,,,,,,,0,0,0,1,0,75,75,75,,,,,,,,,,,,,,,,,,,,,947.6654211971909,,,,,,,,,,,,,,AMP_prac,left,0.8821415100246668,3,,,right,0.9656430082395673,,,,,,,,,,,,,,,,,,,,,,,,,1030,2019_Jun_06_1657,mf_amp_cond1,3.0.7,59.99622860416223,
improve,&&&&&&&,images/symbols/symbol_44.png,condition_files/AMP_rep2.csv,left,care.virtue,,,,,,,,,,,,,,0,0,0,1,0,76,76,76,,,,,,,,,,,,,,,,,,,,,948.7156901545823,,,,,,,,,,,,,,AMP_prac,left,0.8821415100246668,3,,,right,0.8325521624647081,,,,,,,,,,,,,,,,,,,,,,,,,1030,2019_Jun_06_1657,mf_amp_cond1,3.0.7,59.99622860416223,
wheighlde,&&&&&&&&&,images/symbols/symbol_32.png,condition_files/AMP_rep2.csv,None,nonword,,,,,,,,,,,,,,0,0,0,1,0,77,77,77,,,,,,,,,,,,,,,,,,,,,949.5992421987467,,,,,,,,,,,,,,AMP_prac,left,0.8821415100246668,3,,,left,0.6659086947329342,,,,,,,,,,,,,,,,,,,,,,,,,1030,2019_Jun_06_1657,mf_amp_cond1,3.0.7,59.99622860416223,
protesters,&&&&&&&&&&,images/symbols/symbol_21.png,condition_files/AMP_rep2.csv,right,authority.vice,,,,,,,,,,,,,,0,0,0,1,0,78,78,78,,,,,,,,,,,,,,,,,,,,,950.4994871658273,,,,,,,,,,,,,,AMP_prac,left,0.8821415100246668,3,,,right,0.6827639024704695,,,,,,,,,,,,,,,,,,,,,,,,,1030,2019_Jun_06_1657,mf_amp_cond1,3.0.7,59.99622860416223,
gnoozz,&&&&&&,images/symbols/symbol_2.png,condition_files/AMP_rep2.csv,None,nonword,,,,,,,,,,,,,,0,0,0,1,0,79,79,79,,,,,,,,,,,,,,,,,,,,,951.3330079074949,,,,,,,,,,,,,,AMP_prac,left,0.8821415100246668,3,,,right,0.6162289027124643,,,,,,,,,,,,,,,,,,,,,,,,,1030,2019_Jun_06_1657,mf_amp_cond1,3.0.7,59.99622860416223,
gun,&&&,images/symbols/symbol_72.png,condition_files/AMP_rep2.csv,right,authority.vice,,,,,,,,,,,,,,0,0,0,1,0,80,80,80,,,,,,,,,,,,,,,,,,,,,952.1498950598761,,,,,,,,,,,,,,AMP_prac,left,0.8821415100246668,3,,,right,0.5837109298445284,,,,,,,,,,,,,,,,,,,,,,,,,1030,2019_Jun_06_1657,mf_amp_cond1,3.0.7,59.99622860416223,
abuse,&&&&&,images/symbols/symbol_68.png,condition_files/AMP_rep2.csv,right,sanctity.vice,,,,,,,,,,,,,,0,0,0,1,0,81,81,81,,,,,,,,,,,,,,,,,,,,,953.2501606815495,,,,,,,,,,,,,,AMP_prac,left,0.8821415100246668,3,,,left,0.8671179432421923,,,,,,,,,,,,,,,,,,,,,,,,,1030,2019_Jun_06_1657,mf_amp_cond1,3.0.7,59.99622860416223,
,,,condition_files/AMP_rep2.csv,,,,,,,,,,,,,,,,0,0,0,1,,,,,,,,,,,,,,,,,,,,,,,,,,,,,,,,,,,,,,,,,,,,,,,right,5.968418854754418,,,,,,,,,,,,,,,,,,,,,,,1030,2019_Jun_06_1657,mf_amp_cond1,3.0.7,59.99622860416223,
troops,&&&&&&,images/symbols/symbol_74.png,condition_files/AMP_rep1.csv,right,loyalty.vice,,,,,,,,,,,,,,0,1,1,0,0,0,0,0,,,,,,,,,,,,,,,,,,,,,960.3854853543453,,,,,,,,,,,,,,AMP_prac,left,0.8821415100246668,3,,,left,0.9154596840962768,,,,,,,,,,,,,,,,,,,,,,,,,1030,2019_Jun_06_1657,mf_amp_cond1,3.0.7,59.99622860416223,
feulde,&&&&&&,images/symbols/symbol_30.png,condition_files/AMP_rep1.csv,None,nonword,,,,,,,,,,,,,,0,1,1,0,0,1,1,1,,,,,,,,,,,,,,,,,,,,,961.2521902080625,,,,,,,,,,,,,,AMP_prac,left,0.8821415100246668,3,,,right,0.6337217059917748,,,,,,,,,,,,,,,,,,,,,,,,,1030,2019_Jun_06_1657,mf_amp_cond1,3.0.7,59.99622860416223,
charges,&&&&&&&,images/symbols/symbol_7.png,condition_files/AMP_rep1.csv,right,fairness.vice,,,,,,,,,,,,,,0,1,1,0,0,2,2,2,,,,,,,,,,,,,,,,,,,,,962.1690815938637,,,,,,,,,,,,,,AMP_prac,left,0.8821415100246668,3,,,right,0.6992865223437548,,,,,,,,,,,,,,,,,,,,,,,,,1030,2019_Jun_06_1657,mf_amp_cond1,3.0.7,59.99622860416223,
honored,&&&&&&&,images/symbols/symbol_42.png,condition_files/AMP_rep1.csv,left,authority.virtue,,,,,,,,,,,,,,0,1,1,0,0,3,3,3,,,,,,,,,,,,,,,,,,,,,963.5694378516637,,,,,,,,,,,,,,AMP_prac,left,0.8821415100246668,3,,,left,1.1828989265486598,,,,,,,,,,,,,,,,,,,,,,,,,1030,2019_Jun_06_1657,mf_amp_cond1,3.0.7,59.99622860416223,
conspiracy,&&&&&&&&&&,images/symbols/symbol_60.png,condition_files/AMP_rep1.csv,right,sanctity.vice,,,,,,,,,,,,,,0,1,1,0,0,4,4,4,,,,,,,,,,,,,,,,,,,,,964.519676276017,,,,,,,,,,,,,,AMP_prac,left,0.8821415100246668,3,,,left,0.7170740687288344,,,,,,,,,,,,,,,,,,,,,,,,,1030,2019_Jun_06_1657,mf_amp_cond1,3.0.7,59.99622860416223,
fear,&&&&,images/symbols/symbol_31.png,condition_files/AMP_rep1.csv,right,sanctity.vice,,,,,,,,,,,,,,0,1,1,0,0,5,5,5,,,,,,,,,,,,,,,,,,,,,965.6199823087081,,,,,,,,,,,,,,AMP_prac,left,0.8821415100246668,3,,,right,0.8671413562260568,,,,,,,,,,,,,,,,,,,,,,,,,1030,2019_Jun_06_1657,mf_amp_cond1,3.0.7,59.99622860416223,
freedom,&&&&&&&,images/symbols/symbol_10.png,condition_files/AMP_rep1.csv,left,sanctity.virtue,,,,,,,,,,,,,,0,1,1,0,0,6,6,6,,,,,,,,,,,,,,,,,,,,,966.5702095078304,,,,,,,,,,,,,,AMP_prac,left,0.8821415100246668,3,,,left,0.7325011030770838,,,,,,,,,,,,,,,,,,,,,,,,,1030,2019_Jun_06_1657,mf_amp_cond1,3.0.7,59.99622860416223,
increase,&&&&&&&&,images/symbols/symbol_3.png,condition_files/AMP_rep1.csv,left,care.virtue,,,,,,,,,,,,,,0,1,1,0,0,7,7,7,,,,,,,,,,,,,,,,,,,,,967.4537634765729,,,,,,,,,,,,,,AMP_prac,left,0.8821415100246668,3,,,right,0.6658929791301489,,,,,,,,,,,,,,,,,,,,,,,,,1030,2019_Jun_06_1657,mf_amp_cond1,3.0.7,59.99622860416223,
peaceful,&&&&&&&&,images/symbols/symbol_64.png,condition_files/AMP_rep1.csv,left,authority.virtue,,,,,,,,,,,,,,0,1,1,0,0,8,8,8,,,,,,,,,,,,,,,,,,,,,968.3873397670686,,,,,,,,,,,,,,AMP_prac,left,0.8821415100246668,3,,,left,0.7159399967640638,,,,,,,,,,,,,,,,,,,,,,,,,1030,2019_Jun_06_1657,mf_amp_cond1,3.0.7,59.99622860416223,
terrorists,&&&&&&&&&&,images/symbols/symbol_29.png,condition_files/AMP_rep1.csv,right,fairness.vice,,,,,,,,,,,,,,0,1,1,0,0,9,9,9,,,,,,,,,,,,,,,,,,,,,969.4042677790858,,,,,,,,,,,,,,AMP_prac,left,0.8821415100246668,3,,,right,0.7991563738323748,,,,,,,,,,,,,,,,,,,,,,,,,1030,2019_Jun_06_1657,mf_amp_cond1,3.0.7,59.99622860416223,
embrace,&&&&&&&,images/symbols/symbol_77.png,condition_files/AMP_rep1.csv,left,authority.virtue,,,,,,,,,,,,,,0,1,1,0,0,10,10,10,,,,,,,,,,,,,,,,,,,,,970.3544962615706,,,,,,,,,,,,,,AMP_prac,left,0.8821415100246668,3,,,right,0.7328526144847274,,,,,,,,,,,,,,,,,,,,,,,,,1030,2019_Jun_06_1657,mf_amp_cond1,3.0.7,59.99622860416223,
sneaze,&&&&&&,images/symbols/symbol_47.png,condition_files/AMP_rep1.csv,None,nonword,,,,,,,,,,,,,,0,1,1,0,0,11,11,11,,,,,,,,,,,,,,,,,,,,,971.2047121711075,,,,,,,,,,,,,,AMP_prac,left,0.8821415100246668,3,,,right,0.6324375360272825,,,,,,,,,,,,,,,,,,,,,,,,,1030,2019_Jun_06_1657,mf_amp_cond1,3.0.7,59.99622860416223,
coacs,&&&&&,images/symbols/symbol_39.png,condition_files/AMP_rep1.csv,None,nonword,,,,,,,,,,,,,,0,1,1,0,0,12,12,12,,,,,,,,,,,,,,,,,,,,,972.0049006273039,,,,,,,,,,,,,,AMP_prac,left,0.8821415100246668,3,,,right,0.5826968075707555,,,,,,,,,,,,,,,,,,,,,,,,,1030,2019_Jun_06_1657,mf_amp_cond1,3.0.7,59.99622860416223,
actively,&&&&&&&&,images/symbols/symbol_73.png,condition_files/AMP_rep1.csv,left,authority.virtue,,,,,,,,,,,,,,0,1,1,0,0,13,13,13,,,,,,,,,,,,,,,,,,,,,972.788437854033,,,,,,,,,,,,,,AMP_prac,left,0.8821415100246668,3,,,right,0.5660070916637778,,,,,,,,,,,,,,,,,,,,,,,,,1030,2019_Jun_06_1657,mf_amp_cond1,3.0.7,59.99622860416223,
safety,&&&&&&,images/symbols/symbol_69.png,condition_files/AMP_rep1.csv,left,care.virtue,,,,,,,,,,,,,,0,1,1,0,0,14,14,14,,,,,,,,,,,,,,,,,,,,,973.6553271231242,,,,,,,,,,,,,,AMP_prac,left,0.8821415100246668,3,,,left,0.6493244958110154,,,,,,,,,,,,,,,,,,,,,,,,,1030,2019_Jun_06_1657,mf_amp_cond1,3.0.7,59.99622860416223,
men,&&&,images/symbols/symbol_36.png,condition_files/AMP_rep1.csv,right,loyalty.vice,,,,,,,,,,,,,,0,1,1,0,0,15,15,15,,,,,,,,,,,,,,,,,,,,,974.4055179525167,,,,,,,,,,,,,,AMP_prac,left,0.8821415100246668,3,,,right,0.5327379880473018,,,,,,,,,,,,,,,,,,,,,,,,,1030,2019_Jun_06_1657,mf_amp_cond1,3.0.7,59.99622860416223,
friends,&&&&&&&,images/symbols/symbol_5.png,condition_files/AMP_rep1.csv,left,loyalty.virtue,,,,,,,,,,,,,,0,1,1,0,0,16,16,16,,,,,,,,,,,,,,,,,,,,,975.2057166718878,,,,,,,,,,,,,,AMP_prac,left,0.8821415100246668,3,,,left,0.582714126445353,,,,,,,,,,,,,,,,,,,,,,,,,1030,2019_Jun_06_1657,mf_amp_cond1,3.0.7,59.99622860416223,
protect,&&&&&&&,images/symbols/symbol_37.png,condition_files/AMP_rep1.csv,left,fairness.virtue,,,,,,,,,,,,,,0,1,1,0,0,17,17,17,,,,,,,,,,,,,,,,,,,,,976.2059770976193,,,,,,,,,,,,,,AMP_prac,left,0.8821415100246668,3,,,left,0.7670979942195117,,,,,,,,,,,,,,,,,,,,,,,,,1030,2019_Jun_06_1657,mf_amp_cond1,3.0.7,59.99622860416223,
killed,&&&&&&,images/symbols/symbol_33.png,condition_files/AMP_rep1.csv,right,care.vice,,,,,,,,,,,,,,0,1,1,0,0,18,18,18,,,,,,,,,,,,,,,,,,,,,977.1061935205944,,,,,,,,,,,,,,AMP_prac,left,0.8821415100246668,3,,,right,0.6823488888330758,,,,,,,,,,,,,,,,,,,,,,,,,1030,2019_Jun_06_1657,mf_amp_cond1,3.0.7,59.99622860416223,
corruption,&&&&&&&&&&,images/symbols/symbol_54.png,condition_files/AMP_rep1.csv,right,sanctity.vice,,,,,,,,,,,,,,0,1,1,0,0,19,19,19,,,,,,,,,,,,,,,,,,,,,978.039765000809,,,,,,,,,,,,,,AMP_prac,left,0.8821415100246668,3,,,right,0.7158848326653242,,,,,,,,,,,,,,,,,,,,,,,,,1030,2019_Jun_06_1657,mf_amp_cond1,3.0.7,59.99622860416223,
sharing,&&&&&&&,images/symbols/symbol_8.png,condition_files/AMP_rep1.csv,left,loyalty.virtue,,,,,,,,,,,,,,0,1,1,0,0,20,20,20,,,,,,,,,,,,,,,,,,,,,979.0899335718714,,,,,,,,,,,,,,AMP_prac,left,0.8821415100246668,3,,,left,0.8327442742884159,,,,,,,,,,,,,,,,,,,,,,,,,1030,2019_Jun_06_1657,mf_amp_cond1,3.0.7,59.99622860416223,
encourage,&&&&&&&&&,images/symbols/symbol_35.png,condition_files/AMP_rep1.csv,left,authority.virtue,,,,,,,,,,,,,,0,1,1,0,0,21,21,21,,,,,,,,,,,,,,,,,,,,,980.0903107407503,,,,,,,,,,,,,,AMP_prac,left,0.8821415100246668,3,,,left,0.7828120747581124,,,,,,,,,,,,,,,,,,,,,,,,,1030,2019_Jun_06_1657,mf_amp_cond1,3.0.7,59.99622860416223,
thinx,&&&&&,images/symbols/symbol_78.png,condition_files/AMP_rep1.csv,None,nonword,,,,,,,,,,,,,,0,1,1,0,0,22,22,22,,,,,,,,,,,,,,,,,,,,,981.0905426223762,,,,,,,,,,,,,,AMP_prac,left,0.8821415100246668,3,,,left,0.7827248387038708,,,,,,,,,,,,,,,,,,,,,,,,,1030,2019_Jun_06_1657,mf_amp_cond1,3.0.7,59.99622860416223,
commitment,&&&&&&&&&&,images/symbols/symbol_40.png,condition_files/AMP_rep1.csv,left,sanctity.virtue,,,,,,,,,,,,,,0,1,1,0,0,23,23,23,,,,,,,,,,,,,,,,,,,,,981.9574235524051,,,,,,,,,,,,,,AMP_prac,left,0.8821415100246668,3,,,left,0.6490185274742544,,,,,,,,,,,,,,,,,,,,,,,,,1030,2019_Jun_06_1657,mf_amp_cond1,3.0.7,59.99622860416223,
failure,&&&&&&&,images/symbols/symbol_76.png,condition_files/AMP_rep1.csv,right,loyalty.vice,,,,,,,,,,,,,,0,1,1,0,0,24,24,24,,,,,,,,,,,,,,,,,,,,,982.9576794886962,,,,,,,,,,,,,,AMP_prac,left,0.8821415100246668,3,,,right,0.7832081662490964,,,,,,,,,,,,,,,,,,,,,,,,,1030,2019_Jun_06_1657,mf_amp_cond1,3.0.7,59.99622860416223,
pleasant,&&&&&&&,images/symbols/symbol_43.png,condition_files/AMP_rep1.csv,right,control,,,,,,,,,,,,,,0,1,1,0,0,25,25,25,,,,,,,,,,,,,,,,,,,,,983.7912730341777,,,,,,,,,,,,,,AMP_prac,left,0.8821415100246668,3,,,right,0.6004298315383494,,,,,,,,,,,,,,,,,,,,,,,,,1030,2019_Jun_06_1657,mf_amp_cond1,3.0.7,59.99622860416223,
hope,&&&&,images/symbols/symbol_80.png,condition_files/AMP_rep1.csv,left,loyalty.virtue,,,,,,,,,,,,,,0,1,1,0,0,26,26,26,,,,,,,,,,,,,,,,,,,,,984.7414710475132,,,,,,,,,,,,,,AMP_prac,left,0.8821415100246668,3,,,left,0.7329039294272661,,,,,,,,,,,,,,,,,,,,,,,,,1030,2019_Jun_06_1657,mf_amp_cond1,3.0.7,59.99622860416223,
promises,&&&&&&&&,images/symbols/symbol_81.png,condition_files/AMP_rep1.csv,left,fairness.virtue,,,,,,,,,,,,,,0,1,1,0,0,27,27,27,,,,,,,,,,,,,,,,,,,,,985.6083529400639,,,,,,,,,,,,,,AMP_prac,left,0.8821415100246668,3,,,left,0.6494550299830735,,,,,,,,,,,,,,,,,,,,,,,,,1030,2019_Jun_06_1657,mf_amp_cond1,3.0.7,59.99622860416223,
faith,&&&&&,images/symbols/symbol_51.png,condition_files/AMP_rep1.csv,left,sanctity.virtue,,,,,,,,,,,,,,0,1,1,0,0,28,28,28,,,,,,,,,,,,,,,,,,,,,986.6919753504917,,,,,,,,,,,,,,AMP_prac,left,0.8821415100246668,3,,,left,0.8504487536847591,,,,,,,,,,,,,,,,,,,,,,,,,1030,2019_Jun_06_1657,mf_amp_cond1,3.0.7,59.99622860416223,
harassment,&&&&&&&&&&,images/symbols/symbol_17.png,condition_files/AMP_rep1.csv,right,sanctity.vice,,,,,,,,,,,,,,0,1,1,0,0,29,29,29,,,,,,,,,,,,,,,,,,,,,987.5755116790533,,,,,,,,,,,,,,AMP_prac,left,0.8821415100246668,3,,,right,0.6656386465765536,,,,,,,,,,,,,,,,,,,,,,,,,1030,2019_Jun_06_1657,mf_amp_cond1,3.0.7,59.99622860416223,
fair,&&&&,images/symbols/symbol_16.png,condition_files/AMP_rep1.csv,left,fairness.virtue,,,,,,,,,,,,,,0,1,1,0,0,30,30,30,,,,,,,,,,,,,,,,,,,,,988.4924168558791,,,,,,,,,,,,,,AMP_prac,left,0.8821415100246668,3,,,right,0.699687103740871,,,,,,,,,,,,,,,,,,,,,,,,,1030,2019_Jun_06_1657,mf_amp_cond1,3.0.7,59.99622860416223,
benefit,&&&&&&&,images/symbols/symbol_62.png,condition_files/AMP_rep1.csv,left,fairness.virtue,,,,,,,,,,,,,,0,1,1,0,0,31,31,31,,,,,,,,,,,,,,,,,,,,,989.6427086484618,,,,,,,,,,,,,,AMP_prac,left,0.8821415100246668,3,,,right,0.9171319268643856,,,,,,,,,,,,,,,,,,,,,,,,,1030,2019_Jun_06_1657,mf_amp_cond1,3.0.7,59.99622860416223,
violence,&&&&&&&&,images/symbols/symbol_57.png,condition_files/AMP_rep1.csv,right,care.vice,,,,,,,,,,,,,,0,1,1,0,0,32,32,32,,,,,,,,,,,,,,,,,,,,,990.6262937909923,,,,,,,,,,,,,,AMP_prac,left,0.8821415100246668,3,,,right,0.7652916898950934,,,,,,,,,,,,,,,,,,,,,,,,,1030,2019_Jun_06_1657,mf_amp_cond1,3.0.7,59.99622860416223,
care,&&&&,images/symbols/symbol_27.png,condition_files/AMP_rep1.csv,left,care.virtue,,,,,,,,,,,,,,0,1,1,0,0,33,33,33,,,,,,,,,,,,,,,,,,,,,991.3764801304787,,,,,,,,,,,,,,AMP_prac,left,0.8821415100246668,3,,,right,0.5326424133963883,,,,,,,,,,,,,,,,,,,,,,,,,1030,2019_Jun_06_1657,mf_amp_cond1,3.0.7,59.99622860416223,
respect,&&&&&&&,images/symbols/symbol_48.png,condition_files/AMP_rep1.csv,left,sanctity.virtue,,,,,,,,,,,,,,0,1,1,0,0,34,34,34,,,,,,,,,,,,,,,,,,,,,992.3600655938499,,,,,,,,,,,,,,AMP_prac,left,0.8821415100246668,3,,,right,0.7659696959890425,,,,,,,,,,,,,,,,,,,,,,,,,1030,2019_Jun_06_1657,mf_amp_cond1,3.0.7,59.99622860416223,
yeussed,&&&&&&&,images/symbols/symbol_50.png,condition_files/AMP_rep1.csv,None,nonword,,,,,,,,,,,,,,0,1,1,0,0,35,35,35,,,,,,,,,,,,,,,,,,,,,993.0935788946226,,,,,,,,,,,,,,AMP_prac,left,0.8821415100246668,3,,,right,0.5161076057702303,,,,,,,,,,,,,,,,,,,,,,,,,1030,2019_Jun_06_1657,mf_amp_cond1,3.0.7,59.99622860416223,
illegal,&&&&&&&,images/symbols/symbol_65.png,condition_files/AMP_rep1.csv,right,fairness.vice,,,,,,,,,,,,,,0,1,1,0,0,36,36,36,,,,,,,,,,,,,,,,,,,,,993.9106709882617,,,,,,,,,,,,,,AMP_prac,left,0.8821415100246668,3,,,right,0.5995831256732345,,,,,,,,,,,,,,,,,,,,,,,,,1030,2019_Jun_06_1657,mf_amp_cond1,3.0.7,59.99622860416223,
health,&&&&&&,images/symbols/symbol_66.png,condition_files/AMP_rep1.csv,left,care.virtue,,,,,,,,,,,,,,0,1,1,0,0,37,37,37,,,,,,,,,,,,,,,,,,,,,994.8606916423887,,,,,,,,,,,,,,AMP_prac,left,0.8821415100246668,3,,,right,0.7326938570477068,,,,,,,,,,,,,,,,,,,,,,,,,1030,2019_Jun_06_1657,mf_amp_cond1,3.0.7,59.99622860416223,
ban,&&&,images/symbols/symbol_79.png,condition_files/AMP_rep1.csv,right,loyalty.vice,,,,,,,,,,,,,,0,1,1,0,0,38,38,38,,,,,,,,,,,,,,,,,,,,,995.6775887371041,,,,,,,,,,,,,,AMP_prac,left,0.8821415100246668,3,,,right,0.5993012115359306,,,,,,,,,,,,,,,,,,,,,,,,,1030,2019_Jun_06_1657,mf_amp_cond1,3.0.7,59.99622860416223,
free,&&&&,images/symbols/symbol_71.png,condition_files/AMP_rep1.csv,left,fairness.virtue,,,,,,,,,,,,,,0,1,1,0,0,39,39,39,,,,,,,,,,,,,,,,,,,,,996.5778032359667,,,,,,,,,,,,,,AMP_prac,left,0.8821415100246668,3,,,left,0.6827408103272319,,,,,,,,,,,,,,,,,,,,,,,,,1030,2019_Jun_06_1657,mf_amp_cond1,3.0.7,59.99622860416223,
lies,&&&&,images/symbols/symbol_38.png,condition_files/AMP_rep1.csv,right,fairness.vice,,,,,,,,,,,,,,0,1,1,0,0,40,40,40,,,,,,,,,,,,,,,,,,,,,997.5280355666764,,,,,,,,,,,,,,AMP_prac,left,0.8821415100246668,3,,,right,0.7327984124422073,,,,,,,,,,,,,,,,,,,,,,,,,1030,2019_Jun_06_1657,mf_amp_cond1,3.0.7,59.99622860416223,
support,&&&&&&&,images/symbols/symbol_14.png,condition_files/AMP_rep1.csv,left,loyalty.virtue,,,,,,,,,,,,,,0,1,1,0,0,41,41,41,,,,,,,,,,,,,,,,,,,,,998.6116435443982,,,,,,,,,,,,,,AMP_prac,left,0.8821415100246668,3,,,right,0.8660948411561549,,,,,,,,,,,,,,,,,,,,,,,,,1030,2019_Jun_06_1657,mf_amp_cond1,3.0.7,59.99622860416223,
prison,&&&&&&,images/symbols/symbol_19.png,condition_files/AMP_rep1.csv,right,fairness.vice,,,,,,,,,,,,,,0,1,1,0,0,42,42,42,,,,,,,,,,,,,,,,,,,,,999.7619398273528,,,,,,,,,,,,,,AMP_prac,left,0.8821415100246668,3,,,right,0.9328431212343276,,,,,,,,,,,,,,,,,,,,,,,,,1030,2019_Jun_06_1657,mf_amp_cond1,3.0.7,59.99622860416223,
integrity,&&&&&&&&&,images/symbols/symbol_52.png,condition_files/AMP_rep1.csv,left,fairness.virtue,,,,,,,,,,,,,,0,1,1,0,0,43,43,43,,,,,,,,,,,,,,,,,,,,,1001.412347400561,,,,,,,,,,,,,,AMP_prac,left,0.8821415100246668,3,,,left,1.4333668597973883,,,,,,,,,,,,,,,,,,,,,,,,,1030,2019_Jun_06_1657,mf_amp_cond1,3.0.7,59.99622860416223,
progress,&&&&&&&&,images/symbols/symbol_22.png,condition_files/AMP_rep1.csv,left,authority.virtue,,,,,,,,,,,,,,0,1,1,0,0,44,44,44,,,,,,,,,,,,,,,,,,,,,1002.6293204417452,,,,,,,,,,,,,,AMP_prac,left,0.8821415100246668,3,,,left,0.9994618287310004,,,,,,,,,,,,,,,,,,,,,,,,,1030,2019_Jun_06_1657,mf_amp_cond1,3.0.7,59.99622860416223,
unpleasant,&&&&&&&&&,images/symbols/symbol_9.png,condition_files/AMP_rep1.csv,left,control,,,,,,,,,,,,,,0,1,1,0,0,45,45,45,,,,,,,,,,,,,,,,,,,,,1003.4962167665362,,,,,,,,,,,,,,AMP_prac,left,0.8821415100246668,3,,,right,0.6493482296355069,,,,,,,,,,,,,,,,,,,,,,,,,1030,2019_Jun_06_1657,mf_amp_cond1,3.0.7,59.99622860416223,
scandal,&&&&&&&,images/symbols/symbol_4.png,condition_files/AMP_rep1.csv,right,sanctity.vice,,,,,,,,,,,,,,0,1,1,0,0,46,46,46,,,,,,,,,,,,,,,,,,,,,1004.4963434515521,,,,,,,,,,,,,,AMP_prac,left,0.8821415100246668,3,,,left,0.7824817318469286,,,,,,,,,,,,,,,,,,,,,,,,,1030,2019_Jun_06_1657,mf_amp_cond1,3.0.7,59.99622860416223,
great,&&&&&,images/symbols/symbol_34.png,condition_files/AMP_rep1.csv,left,loyalty.virtue,,,,,,,,,,,,,,0,1,1,0,0,47,47,47,,,,,,,,,,,,,,,,,,,,,1005.546747112181,,,,,,,,,,,,,,AMP_prac,left,0.8821415100246668,3,,,right,0.8325457475148141,,,,,,,,,,,,,,,,,,,,,,,,,1030,2019_Jun_06_1657,mf_amp_cond1,3.0.7,59.99622860416223,
suicide,&&&&&&&,images/symbols/symbol_75.png,condition_files/AMP_rep1.csv,right,care.vice,,,,,,,,,,,,,,0,1,1,0,0,48,48,48,,,,,,,,,,,,,,,,,,,,,1006.4636330455542,,,,,,,,,,,,,,AMP_prac,left,0.8821415100246668,3,,,left,0.6837401795201004,,,,,,,,,,,,,,,,,,,,,,,,,1030,2019_Jun_06_1657,mf_amp_cond1,3.0.7,59.99622860416223,
hand,&&&&,images/symbols/symbol_59.png,condition_files/AMP_rep1.csv,left,sanctity.virtue,,,,,,,,,,,,,,0,1,1,0,0,49,49,49,,,,,,,,,,,,,,,,,,,,,1007.29717367189,,,,,,,,,,,,,,AMP_prac,left,0.8821415100246668,3,,,right,0.6156461513601243,,,,,,,,,,,,,,,,,,,,,,,,,1030,2019_Jun_06_1657,mf_amp_cond1,3.0.7,59.99622860416223,
forced,&&&&&&,images/symbols/symbol_11.png,condition_files/AMP_rep1.csv,right,fairness.vice,,,,,,,,,,,,,,0,1,1,0,0,50,50,50,,,,,,,,,,,,,,,,,,,,,1008.4641375406645,,,,,,,,,,,,,,AMP_prac,left,0.8821415100246668,3,,,right,0.9495135936886072,,,,,,,,,,,,,,,,,,,,,,,,,1030,2019_Jun_06_1657,mf_amp_cond1,3.0.7,59.99622860416223,
rebels,&&&&&&,images/symbols/symbol_20.png,condition_files/AMP_rep1.csv,right,authority.vice,,,,,,,,,,,,,,0,1,1,0,0,51,51,51,,,,,,,,,,,,,,,,,,,,,1009.3976981160231,,,,,,,,,,,,,,AMP_prac,left,0.8821415100246668,3,,,right,0.7165358974598348,,,,,,,,,,,,,,,,,,,,,,,,,1030,2019_Jun_06_1657,mf_amp_cond1,3.0.7,59.99622860416223,
rejected,&&&&&&&&,images/symbols/symbol_41.png,condition_files/AMP_rep1.csv,right,authority.vice,,,,,,,,,,,,,,0,1,1,0,0,52,52,52,,,,,,,,,,,,,,,,,,,,,1010.264620098751,,,,,,,,,,,,,,AMP_prac,left,0.8821415100246668,3,,,right,0.6498168036341667,,,,,,,,,,,,,,,,,,,,,,,,,1030,2019_Jun_06_1657,mf_amp_cond1,3.0.7,59.99622860416223,
dignity,&&&&&&&,images/symbols/symbol_70.png,condition_files/AMP_rep1.csv,left,sanctity.virtue,,,,,,,,,,,,,,0,1,1,0,0,53,53,53,,,,,,,,,,,,,,,,,,,,,1011.0981488581747,,,,,,,,,,,,,,AMP_prac,left,0.8821415100246668,3,,,right,0.6160621279850602,,,,,,,,,,,,,,,,,,,,,,,,,1030,2019_Jun_06_1657,mf_amp_cond1,3.0.7,59.99622860416223,
racist,&&&&&&,images/symbols/symbol_82.png,condition_files/AMP_rep1.csv,right,sanctity.vice,,,,,,,,,,,,,,0,1,1,0,0,54,54,54,,,,,,,,,,,,,,,,,,,,,1012.2817899347283,,,,,,,,,,,,,,AMP_prac,left,0.8821415100246668,3,,,left,0.9665243518538773,,,,,,,,,,,,,,,,,,,,,,,,,1030,2019_Jun_06_1657,mf_amp_cond1,3.0.7,59.99622860416223,
shot,&&&&,images/symbols/symbol_55.png,condition_files/AMP_rep1.csv,right,care.vice,,,,,,,,,,,,,,0,1,1,0,0,55,55,55,,,,,,,,,,,,,,,,,,,,,1013.0653130500577,,,,,,,,,,,,,,AMP_prac,left,0.8821415100246668,3,,,right,0.5659083095379174,,,,,,,,,,,,,,,,,,,,,,,,,1030,2019_Jun_06_1657,mf_amp_cond1,3.0.7,59.99622860416223,
strength,&&&&&&&&,images/symbols/symbol_56.png,condition_files/AMP_rep1.csv,left,sanctity.virtue,,,,,,,,,,,,,,0,1,1,0,0,56,56,56,,,,,,,,,,,,,,,,,,,,,1013.8822595356032,,,,,,,,,,,,,,AMP_prac,left,0.8821415100246668,3,,,right,0.5837943172082305,,,,,,,,,,,,,,,,,,,,,,,,,1030,2019_Jun_06_1657,mf_amp_cond1,3.0.7,59.99622860416223,
refused,&&&&&&&,images/symbols/symbol_28.png,condition_files/AMP_rep1.csv,right,authority.vice,,,,,,,,,,,,,,0,1,1,0,0,57,57,57,,,,,,,,,,,,,,,,,,,,,1014.7824031547643,,,,,,,,,,,,,,AMP_prac,left,0.8821415100246668,3,,,left,0.6822404847480357,,,,,,,,,,,,,,,,,,,,,,,,,1030,2019_Jun_06_1657,mf_amp_cond1,3.0.7,59.99622860416223,
groups,&&&&&&,images/symbols/symbol_23.png,condition_files/AMP_rep1.csv,right,loyalty.vice,,,,,,,,,,,,,,0,1,1,0,0,58,58,58,,,,,,,,,,,,,,,,,,,,,1015.5992832509801,,,,,,,,,,,,,,AMP_prac,left,0.8821415100246668,3,,,left,0.5993566960096359,,,,,,,,,,,,,,,,,,,,,,,,,1030,2019_Jun_06_1657,mf_amp_cond1,3.0.7,59.99622860416223,
riot,&&&&,images/symbols/symbol_46.png,condition_files/AMP_rep1.csv,right,authority.vice,,,,,,,,,,,,,,0,1,1,0,0,59,59,59,,,,,,,,,,,,,,,,,,,,,1016.3994800457731,,,,,,,,,,,,,,AMP_prac,left,0.8821415100246668,3,,,right,0.5827542166225612,,,,,,,,,,,,,,,,,,,,,,,,,1030,2019_Jun_06_1657,mf_amp_cond1,3.0.7,59.99622860416223,
arrests,&&&&&&&,images/symbols/symbol_49.png,condition_files/AMP_rep1.csv,right,authority.vice,,,,,,,,,,,,,,0,1,1,0,0,60,60,60,,,,,,,,,,,,,,,,,,,,,1017.2997272582725,,,,,,,,,,,,,,AMP_prac,left,0.8821415100246668,3,,,right,0.6670867050997913,,,,,,,,,,,,,,,,,,,,,,,,,1030,2019_Jun_06_1657,mf_amp_cond1,3.0.7,59.99622860416223,
injured,&&&&&&&,images/symbols/symbol_26.png,condition_files/AMP_rep1.csv,right,care.vice,,,,,,,,,,,,,,0,1,1,0,0,61,61,61,,,,,,,,,,,,,,,,,,,,,1018.4833462047391,,,,,,,,,,,,,,AMP_prac,left,0.8821415100246668,3,,,left,0.9652315224520862,,,,,,,,,,,,,,,,,,,,,,,,,1030,2019_Jun_06_1657,mf_amp_cond1,3.0.7,59.99622860416223,
peace,&&&&&,images/symbols/symbol_24.png,condition_files/AMP_rep1.csv,left,care.virtue,,,,,,,,,,,,,,0,1,1,0,0,62,62,62,,,,,,,,,,,,,,,,,,,,,1019.450254460331,,,,,,,,,,,,,,AMP_prac,left,0.8821415100246668,3,,,right,0.7493175039999187,,,,,,,,,,,,,,,,,,,,,,,,,1030,2019_Jun_06_1657,mf_amp_cond1,3.0.7,59.99622860416223,
intelligence,&&&&&&&&&&&&,images/symbols/symbol_1.png,condition_files/AMP_rep1.csv,left,loyalty.virtue,,,,,,,,,,,,,,0,1,1,0,0,63,63,63,,,,,,,,,,,,,,,,,,,,,1022.1676197443157,,,,,,,,,,,,,,AMP_prac,left,0.8821415100246668,3,,,left,2.4996010223403573,,,,,,,,,,,,,,,,,,,,,,,,,1030,2019_Jun_06_1657,mf_amp_cond1,3.0.7,59.99622860416223,
critics,&&&&&&&,images/symbols/symbol_61.png,condition_files/AMP_rep1.csv,right,loyalty.vice,,,,,,,,,,,,,,0,1,1,0,0,64,64,64,,,,,,,,,,,,,,,,,,,,,1022.9177938965149,,,,,,,,,,,,,,AMP_prac,left,0.8821415100246668,3,,,right,0.5170261529274285,,,,,,,,,,,,,,,,,,,,,,,,,1030,2019_Jun_06_1657,mf_amp_cond1,3.0.7,59.99622860416223,
phegned,&&&&&&&,images/symbols/symbol_6.png,condition_files/AMP_rep1.csv,None,nonword,,,,,,,,,,,,,,0,1,1,0,0,65,65,65,,,,,,,,,,,,,,,,,,,,,1023.7013317644596,,,,,,,,,,,,,,AMP_prac,left,0.8821415100246668,3,,,right,0.5653579509817064,,,,,,,,,,,,,,,,,,,,,,,,,1030,2019_Jun_06_1657,mf_amp_cond1,3.0.7,59.99622860416223,
naidd,&&&&&,images/symbols/symbol_18.png,condition_files/AMP_rep1.csv,None,nonword,,,,,,,,,,,,,,0,1,1,0,0,66,66,66,,,,,,,,,,,,,,,,,,,,,1024.4681882555597,,,,,,,,,,,,,,AMP_prac,left,0.8821415100246668,3,,,right,0.5495547102764249,,,,,,,,,,,,,,,,,,,,,,,,,1030,2019_Jun_06_1657,mf_amp_cond1,3.0.7,59.99622860416223,
victims,&&&&&&&,images/symbols/symbol_15.png,condition_files/AMP_rep1.csv,right,care.vice,,,,,,,,,,,,,,0,1,1,0,0,67,67,67,,,,,,,,,,,,,,,,,,,,,1025.3684178283438,,,,,,,,,,,,,,AMP_prac,left,0.8821415100246668,3,,,left,0.6827113041654229,,,,,,,,,,,,,,,,,,,,,,,,,1030,2019_Jun_06_1657,mf_amp_cond1,3.0.7,59.99622860416223,
ensure,&&&&&&,images/symbols/symbol_53.png,condition_files/AMP_rep1.csv,left,fairness.virtue,,,,,,,,,,,,,,0,1,1,0,0,68,68,68,,,,,,,,,,,,,,,,,,,,,1026.4353537303396,,,,,,,,,,,,,,AMP_prac,left,0.8821415100246668,3,,,left,0.8495042286813259,,,,,,,,,,,,,,,,,,,,,,,,,1030,2019_Jun_06_1657,mf_amp_cond1,3.0.7,59.99622860416223,
love,&&&&,images/symbols/symbol_58.png,condition_files/AMP_rep1.csv,left,loyalty.virtue,,,,,,,,,,,,,,0,1,1,0,0,69,69,69,,,,,,,,,,,,,,,,,,,,,1027.2022236916237,,,,,,,,,,,,,,AMP_prac,left,0.8821415100246668,3,,,left,0.5494754915125668,,,,,,,,,,,,,,,,,,,,,,,,,1030,2019_Jun_06_1657,mf_amp_cond1,3.0.7,59.99622860416223,
accused,&&&&&&&,images/symbols/symbol_13.png,condition_files/AMP_rep1.csv,right,fairness.vice,,,,,,,,,,,,,,0,1,1,0,0,70,70,70,,,,,,,,,,,,,,,,,,,,,1027.9858051780611,,,,,,,,,,,,,,AMP_prac,left,0.8821415100246668,3,,,right,0.5661097229458392,,,,,,,,,,,,,,,,,,,,,,,,,1030,2019_Jun_06_1657,mf_amp_cond1,3.0.7,59.99622860416223,
victim,&&&&&&,images/symbols/symbol_67.png,condition_files/AMP_rep1.csv,right,care.vice,,,,,,,,,,,,,,0,1,1,0,0,71,71,71,,,,,,,,,,,,,,,,,,,,,1028.752618051134,,,,,,,,,,,,,,AMP_prac,left,0.8821415100246668,3,,,left,0.5490181422792375,,,,,,,,,,,,,,,,,,,,,,,,,1030,2019_Jun_06_1657,mf_amp_cond1,3.0.7,59.99622860416223,
useful,&&&&&&,images/symbols/symbol_63.png,condition_files/AMP_rep1.csv,left,authority.virtue,,,,,,,,,,,,,,0,1,1,0,0,72,72,72,,,,,,,,,,,,,,,,,,,,,1029.5861442452297,,,,,,,,,,,,,,AMP_prac,left,0.8821415100246668,3,,,left,0.6157981739379466,,,,,,,,,,,,,,,,,,,,,,,,,1030,2019_Jun_06_1657,mf_amp_cond1,3.0.7,59.99622860416223,
safe,&&&&,images/symbols/symbol_25.png,condition_files/AMP_rep1.csv,left,care.virtue,,,,,,,,,,,,,,0,1,1,0,0,73,73,73,,,,,,,,,,,,,,,,,,,,,1030.4197002663277,,,,,,,,,,,,,,AMP_prac,left,0.8821415100246668,3,,,right,0.6160396770574152,,,,,,,,,,,,,,,,,,,,,,,,,1030,2019_Jun_06_1657,mf_amp_cond1,3.0.7,59.99622860416223,
dighnd,&&&&&&,images/symbols/symbol_12.png,condition_files/AMP_rep1.csv,None,nonword,,,,,,,,,,,,,,0,1,1,0,0,74,74,74,,,,,,,,,,,,,,,,,,,,,1031.3199317632243,,,,,,,,,,,,,,AMP_prac,left,0.8821415100246668,3,,,right,0.6670780456624925,,,,,,,,,,,,,,,,,,,,,,,,,1030,2019_Jun_06_1657,mf_amp_cond1,3.0.7,59.99622860416223,
army,&&&&,images/symbols/symbol_45.png,condition_files/AMP_rep1.csv,right,loyalty.vice,,,,,,,,,,,,,,0,1,1,0,0,75,75,75,,,,,,,,,,,,,,,,,,,,,1032.1367890881374,,,,,,,,,,,,,,AMP_prac,left,0.8821415100246668,3,,,right,0.5986979342997074,,,,,,,,,,,,,,,,,,,,,,,,,1030,2019_Jun_06_1657,mf_amp_cond1,3.0.7,59.99622860416223,
improve,&&&&&&&,images/symbols/symbol_44.png,condition_files/AMP_rep1.csv,left,care.virtue,,,,,,,,,,,,,,0,1,1,0,0,76,76,76,,,,,,,,,,,,,,,,,,,,,1032.8703168216161,,,,,,,,,,,,,,AMP_prac,left,0.8821415100246668,3,,,right,0.5159796378575265,,,,,,,,,,,,,,,,,,,,,,,,,1030,2019_Jun_06_1657,mf_amp_cond1,3.0.7,59.99622860416223,
wheighlde,&&&&&&&&&,images/symbols/symbol_32.png,condition_files/AMP_rep1.csv,None,nonword,,,,,,,,,,,,,,0,1,1,0,0,77,77,77,,,,,,,,,,,,,,,,,,,,,1033.7371935821138,,,,,,,,,,,,,,AMP_prac,left,0.8821415100246668,3,,,left,0.6493212888017297,,,,,,,,,,,,,,,,,,,,,,,,,1030,2019_Jun_06_1657,mf_amp_cond1,3.0.7,59.99622860416223,
protesters,&&&&&&&&&&,images/symbols/symbol_21.png,condition_files/AMP_rep1.csv,right,authority.vice,,,,,,,,,,,,,,0,1,1,0,0,78,78,78,,,,,,,,,,,,,,,,,,,,,1034.5207311296836,,,,,,,,,,,,,,AMP_prac,left,0.8821415100246668,3,,,right,0.5659342878498137,,,,,,,,,,,,,,,,,,,,,,,,,1030,2019_Jun_06_1657,mf_amp_cond1,3.0.7,59.99622860416223,
gnoozz,&&&&&&,images/symbols/symbol_2.png,condition_files/AMP_rep1.csv,None,nonword,,,,,,,,,,,,,,0,1,1,0,0,79,79,79,,,,,,,,,,,,,,,,,,,,,1035.2875956390053,,,,,,,,,,,,,,AMP_prac,left,0.8821415100246668,3,,,right,0.5495396358892322,,,,,,,,,,,,,,,,,,,,,,,,,1030,2019_Jun_06_1657,mf_amp_cond1,3.0.7,59.99622860416223,
gun,&&&,images/symbols/symbol_72.png,condition_files/AMP_rep1.csv,right,authority.vice,,,,,,,,,,,,,,0,1,1,0,0,80,80,80,,,,,,,,,,,,,,,,,,,,,1036.0878017349169,,,,,,,,,,,,,,AMP_prac,left,0.8821415100246668,3,,,right,0.5670555308461189,,,,,,,,,,,,,,,,,,,,,,,,,1030,2019_Jun_06_1657,mf_amp_cond1,3.0.7,59.99622860416223,
abuse,&&&&&,images/symbols/symbol_68.png,condition_files/AMP_rep1.csv,right,sanctity.vice,,,,,,,,,,,,,,0,1,1,0,0,81,81,81,,,,,,,,,,,,,,,,,,,,,1037.121395087801,,,,,,,,,,,,,,AMP_prac,left,0.8821415100246668,3,,,left,0.8004318834282458,,,,,,,,,,,,,,,,,,,,,,,,,1030,2019_Jun_06_1657,mf_amp_cond1,3.0.7,59.99622860416223,
,,,condition_files/AMP_rep1.csv,,,,,,,,,,,,,,,,0,1,1,0,,,,,,,,,,,,,,,,,,,,,,,,,,,,,,,,,,,,,,,,,,,,,,,right,2.450869284104556,,,,,,,,,,,,,,,,,,,,,,,1030,2019_Jun_06_1657,mf_amp_cond1,3.0.7,59.99622860416223,
troops,&&&&&&,images/symbols/symbol_74.png,condition_files/AMP_rep3.csv,right,loyalty.vice,,,,,,,,,,,,,,0,2,2,2,0,0,0,0,,,,,,,,,,,,,,,,,,,,,1040.5557321305387,,,,,,,,,,,,,,AMP_prac,left,0.8821415100246668,3,,,left,0.7318060994148254,,,,,,,,,,,,,,,,,,,,,,,,,1030,2019_Jun_06_1657,mf_amp_cond1,3.0.7,59.99622860416223,
feulde,&&&&&&,images/symbols/symbol_30.png,condition_files/AMP_rep3.csv,None,nonword,,,,,,,,,,,,,,0,2,2,2,0,1,1,1,,,,,,,,,,,,,,,,,,,,,1041.4891647379845,,,,,,,,,,,,,,AMP_prac,left,0.8821415100246668,3,,,left,0.7004183493554592,,,,,,,,,,,,,,,,,,,,,,,,,1030,2019_Jun_06_1657,mf_amp_cond1,3.0.7,59.99622860416223,
charges,&&&&&&&,images/symbols/symbol_7.png,condition_files/AMP_rep3.csv,right,fairness.vice,,,,,,,,,,,,,,0,2,2,2,0,2,2,2,,,,,,,,,,,,,,,,,,,,,1042.4060679902323,,,,,,,,,,,,,,AMP_prac,left,0.8821415100246668,3,,,left,0.6990665071643889,,,,,,,,,,,,,,,,,,,,,,,,,1030,2019_Jun_06_1657,mf_amp_cond1,3.0.7,59.99622860416223,
honored,&&&&&&&,images/symbols/symbol_42.png,condition_files/AMP_rep3.csv,left,authority.virtue,,,,,,,,,,,,,,0,2,2,2,0,3,3,3,,,,,,,,,,,,,,,,,,,,,1043.2396092582494,,,,,,,,,,,,,,AMP_prac,left,0.8821415100246668,3,,,left,0.6160114533267915,,,,,,,,,,,,,,,,,,,,,,,,,1030,2019_Jun_06_1657,mf_amp_cond1,3.0.7,59.99622860416223,
conspiracy,&&&&&&&&&&,images/symbols/symbol_60.png,condition_files/AMP_rep3.csv,right,sanctity.vice,,,,,,,,,,,,,,0,2,2,2,0,4,4,4,,,,,,,,,,,,,,,,,,,,,1044.0231384667568,,,,,,,,,,,,,,AMP_prac,left,0.8821415100246668,3,,,left,0.550375116057694,,,,,,,,,,,,,,,,,,,,,,,,,1030,2019_Jun_06_1657,mf_amp_cond1,3.0.7,59.99622860416223,
fear,&&&&,images/symbols/symbol_31.png,condition_files/AMP_rep3.csv,right,sanctity.vice,,,,,,,,,,,,,,0,2,2,2,0,5,5,5,,,,,,,,,,,,,,,,,,,,,1044.8400163180195,,,,,,,,,,,,,,AMP_prac,left,0.8821415100246668,3,,,right,0.583725362084806,,,,,,,,,,,,,,,,,,,,,,,,,1030,2019_Jun_06_1657,mf_amp_cond1,3.0.7,59.99622860416223,
freedom,&&&&&&&,images/symbols/symbol_10.png,condition_files/AMP_rep3.csv,left,sanctity.virtue,,,,,,,,,,,,,,0,2,2,2,0,6,6,6,,,,,,,,,,,,,,,,,,,,,1045.706889551133,,,,,,,,,,,,,,AMP_prac,left,0.8821415100246668,3,,,left,0.649006340187043,,,,,,,,,,,,,,,,,,,,,,,,,1030,2019_Jun_06_1657,mf_amp_cond1,3.0.7,59.99622860416223,
increase,&&&&&&&&,images/symbols/symbol_3.png,condition_files/AMP_rep3.csv,left,care.virtue,,,,,,,,,,,,,,0,2,2,2,0,7,7,7,,,,,,,,,,,,,,,,,,,,,1046.623805952724,,,,,,,,,,,,,,AMP_prac,left,0.8821415100246668,3,,,left,0.6994183394126594,,,,,,,,,,,,,,,,,,,,,,,,,1030,2019_Jun_06_1657,mf_amp_cond1,3.0.7,59.99622860416223,
peaceful,&&&&&&&&,images/symbols/symbol_64.png,condition_files/AMP_rep3.csv,left,authority.virtue,,,,,,,,,,,,,,0,2,2,2,0,8,8,8,,,,,,,,,,,,,,,,,,,,,1047.474000374321,,,,,,,,,,,,,,AMP_prac,left,0.8821415100246668,3,,,left,0.6326222722418606,,,,,,,,,,,,,,,,,,,,,,,,,1030,2019_Jun_06_1657,mf_amp_cond1,3.0.7,59.99622860416223,
terrorists,&&&&&&&&&&,images/symbols/symbol_29.png,condition_files/AMP_rep3.csv,right,fairness.vice,,,,,,,,,,,,,,0,2,2,2,0,9,9,9,,,,,,,,,,,,,,,,,,,,,1048.8410179321654,,,,,,,,,,,,,,AMP_prac,left,0.8821415100246668,3,,,right,1.149333796929568,,,,,,,,,,,,,,,,,,,,,,,,,1030,2019_Jun_06_1657,mf_amp_cond1,3.0.7,59.99622860416223,
embrace,&&&&&&&,images/symbols/symbol_77.png,condition_files/AMP_rep3.csv,left,authority.virtue,,,,,,,,,,,,,,0,2,2,2,0,10,10,10,,,,,,,,,,,,,,,,,,,,,1049.8246155828238,,,,,,,,,,,,,,AMP_prac,left,0.8821415100246668,3,,,right,0.765891760122031,,,,,,,,,,,,,,,,,,,,,,,,,1030,2019_Jun_06_1657,mf_amp_cond1,3.0.7,59.99622860416223,
sneaze,&&&&&&,images/symbols/symbol_47.png,condition_files/AMP_rep3.csv,None,nonword,,,,,,,,,,,,,,0,2,2,2,0,11,11,11,,,,,,,,,,,,,,,,,,,,,1050.6414652103558,,,,,,,,,,,,,,AMP_prac,left,0.8821415100246668,3,,,right,0.5991030051372945,,,,,,,,,,,,,,,,,,,,,,,,,1030,2019_Jun_06_1657,mf_amp_cond1,3.0.7,59.99622860416223,
coacs,&&&&&,images/symbols/symbol_39.png,condition_files/AMP_rep3.csv,None,nonword,,,,,,,,,,,,,,0,2,2,2,0,12,12,12,,,,,,,,,,,,,,,,,,,,,1051.4917058157735,,,,,,,,,,,,,,AMP_prac,left,0.8821415100246668,3,,,right,0.632715922780335,,,,,,,,,,,,,,,,,,,,,,,,,1030,2019_Jun_06_1657,mf_amp_cond1,3.0.7,59.99622860416223,
actively,&&&&&&&&,images/symbols/symbol_73.png,condition_files/AMP_rep3.csv,left,authority.virtue,,,,,,,,,,,,,,0,2,2,2,0,13,13,13,,,,,,,,,,,,,,,,,,,,,1052.275228931103,,,,,,,,,,,,,,AMP_prac,left,0.8821415100246668,3,,,right,0.5660160719417036,,,,,,,,,,,,,,,,,,,,,,,,,1030,2019_Jun_06_1657,mf_amp_cond1,3.0.7,59.99622860416223,
safety,&&&&&&,images/symbols/symbol_69.png,condition_files/AMP_rep3.csv,left,care.virtue,,,,,,,,,,,,,,0,2,2,2,0,14,14,14,,,,,,,,,,,,,,,,,,,,,1053.1921555958688,,,,,,,,,,,,,,AMP_prac,left,0.8821415100246668,3,,,left,0.6993121802806854,,,,,,,,,,,,,,,,,,,,,,,,,1030,2019_Jun_06_1657,mf_amp_cond1,3.0.7,59.99622860416223,
men,&&&,images/symbols/symbol_36.png,condition_files/AMP_rep3.csv,right,loyalty.vice,,,,,,,,,,,,,,0,2,2,2,0,15,15,15,,,,,,,,,,,,,,,,,,,,,1054.0256728096865,,,,,,,,,,,,,,AMP_prac,left,0.8821415100246668,3,,,right,0.6161047834903002,,,,,,,,,,,,,,,,,,,,,,,,,1030,2019_Jun_06_1657,mf_amp_cond1,3.0.7,59.99622860416223,
friends,&&&&&&&,images/symbols/symbol_5.png,condition_files/AMP_rep3.csv,left,loyalty.virtue,,,,,,,,,,,,,,0,2,2,2,0,16,16,16,,,,,,,,,,,,,,,,,,,,,1055.2259654360823,,,,,,,,,,,,,,AMP_prac,left,0.8821415100246668,3,,,right,0.9826791039668024,,,,,,,,,,,,,,,,,,,,,,,,,1030,2019_Jun_06_1657,mf_amp_cond1,3.0.7,59.99622860416223,
protect,&&&&&&&,images/symbols/symbol_37.png,condition_files/AMP_rep3.csv,left,fairness.virtue,,,,,,,,,,,,,,0,2,2,2,0,17,17,17,,,,,,,,,,,,,,,,,,,,,1056.1262193839066,,,,,,,,,,,,,,AMP_prac,left,0.8821415100246668,3,,,left,0.6670905537903309,,,,,,,,,,,,,,,,,,,,,,,,,1030,2019_Jun_06_1657,mf_amp_cond1,3.0.7,59.99622860416223,
killed,&&&&&&,images/symbols/symbol_33.png,condition_files/AMP_rep3.csv,right,care.vice,,,,,,,,,,,,,,0,2,2,2,0,18,18,18,,,,,,,,,,,,,,,,,,,,,1057.6099065160379,,,,,,,,,,,,,,AMP_prac,left,0.8821415100246668,3,,,left,1.2656868193298578,,,,,,,,,,,,,,,,,,,,,,,,,1030,2019_Jun_06_1657,mf_amp_cond1,3.0.7,59.99622860416223,
corruption,&&&&&&&&&&,images/symbols/symbol_54.png,condition_files/AMP_rep3.csv,right,sanctity.vice,,,,,,,,,,,,,,0,2,2,2,0,19,19,19,,,,,,,,,,,,,,,,,,,,,1058.476787125226,,,,,,,,,,,,,,AMP_prac,left,0.8821415100246668,3,,,right,0.6337220268324018,,,,,,,,,,,,,,,,,,,,,,,,,1030,2019_Jun_06_1657,mf_amp_cond1,3.0.7,59.99622860416223,
sharing,&&&&&&&,images/symbols/symbol_8.png,condition_files/AMP_rep3.csv,left,loyalty.virtue,,,,,,,,,,,,,,0,2,2,2,0,20,20,20,,,,,,,,,,,,,,,,,,,,,1059.5770604442805,,,,,,,,,,,,,,AMP_prac,left,0.8821415100246668,3,,,left,0.8824372151866555,,,,,,,,,,,,,,,,,,,,,,,,,1030,2019_Jun_06_1657,mf_amp_cond1,3.0.7,59.99622860416223,
encourage,&&&&&&&&&,images/symbols/symbol_35.png,condition_files/AMP_rep3.csv,left,authority.virtue,,,,,,,,,,,,,,0,2,2,2,0,21,21,21,,,,,,,,,,,,,,,,,,,,,1060.3439310472459,,,,,,,,,,,,,,AMP_prac,left,0.8821415100246668,3,,,right,0.5493459198623896,,,,,,,,,,,,,,,,,,,,,,,,,1030,2019_Jun_06_1657,mf_amp_cond1,3.0.7,59.99622860416223,
thinx,&&&&&,images/symbols/symbol_78.png,condition_files/AMP_rep3.csv,None,nonword,,,,,,,,,,,,,,0,2,2,2,0,22,22,22,,,,,,,,,,,,,,,,,,,,,1061.4942276505753,,,,,,,,,,,,,,AMP_prac,left,0.8821415100246668,3,,,left,0.9325682623311877,,,,,,,,,,,,,,,,,,,,,,,,,1030,2019_Jun_06_1657,mf_amp_cond1,3.0.7,59.99622860416223,
commitment,&&&&&&&&&&,images/symbols/symbol_40.png,condition_files/AMP_rep3.csv,left,sanctity.virtue,,,,,,,,,,,,,,0,2,2,2,0,23,23,23,,,,,,,,,,,,,,,,,,,,,1062.3777745631523,,,,,,,,,,,,,,AMP_prac,left,0.8821415100246668,3,,,left,0.6660443595610559,,,,,,,,,,,,,,,,,,,,,,,,,1030,2019_Jun_06_1657,mf_amp_cond1,3.0.7,59.99622860416223,
failure,&&&&&&&,images/symbols/symbol_76.png,condition_files/AMP_rep3.csv,right,loyalty.vice,,,,,,,,,,,,,,0,2,2,2,0,24,24,24,,,,,,,,,,,,,,,,,,,,,1064.5449889157899,,,,,,,,,,,,,,AMP_prac,left,0.8821415100246668,3,,,right,1.9501579236239195,,,,,,,,,,,,,,,,,,,,,,,,,1030,2019_Jun_06_1657,mf_amp_cond1,3.0.7,59.99622860416223,
pleasant,&&&&&&&,images/symbols/symbol_43.png,condition_files/AMP_rep3.csv,right,control,,,,,,,,,,,,,,0,2,2,2,0,25,25,25,,,,,,,,,,,,,,,,,,,,,1065.4785674512386,,,,,,,,,,,,,,AMP_prac,left,0.8821415100246668,3,,,right,0.7004148215055466,,,,,,,,,,,,,,,,,,,,,,,,,1030,2019_Jun_06_1657,mf_amp_cond1,3.0.7,59.99622860416223,
hope,&&&&,images/symbols/symbol_80.png,condition_files/AMP_rep3.csv,left,loyalty.virtue,,,,,,,,,,,,,,0,2,2,2,0,26,26,26,,,,,,,,,,,,,,,,,,,,,1066.328773418907,,,,,,,,,,,,,,AMP_prac,left,0.8821415100246668,3,,,left,0.6325748055242002,,,,,,,,,,,,,,,,,,,,,,,,,1030,2019_Jun_06_1657,mf_amp_cond1,3.0.7,59.99622860416223,
promises,&&&&&&&&,images/symbols/symbol_81.png,condition_files/AMP_rep3.csv,left,fairness.virtue,,,,,,,,,,,,,,0,2,2,2,0,27,27,27,,,,,,,,,,,,,,,,,,,,,1067.3957150937058,,,,,,,,,,,,,,AMP_prac,left,0.8821415100246668,3,,,left,0.8494311035610735,,,,,,,,,,,,,,,,,,,,,,,,,1030,2019_Jun_06_1657,mf_amp_cond1,3.0.7,59.99622860416223,
faith,&&&&&,images/symbols/symbol_51.png,condition_files/AMP_rep3.csv,left,sanctity.virtue,,,,,,,,,,,,,,0,2,2,2,0,28,28,28,,,,,,,,,,,,,,,,,,,,,1068.4626487502828,,,,,,,,,,,,,,AMP_prac,left,0.8821415100246668,3,,,left,0.8337725084275007,,,,,,,,,,,,,,,,,,,,,,,,,1030,2019_Jun_06_1657,mf_amp_cond1,3.0.7,59.99622860416223,
harassment,&&&&&&&&&&,images/symbols/symbol_17.png,condition_files/AMP_rep3.csv,right,sanctity.vice,,,,,,,,,,,,,,0,2,2,2,0,29,29,29,,,,,,,,,,,,,,,,,,,,,1069.5462541626766,,,,,,,,,,,,,,AMP_prac,left,0.8821415100246668,3,,,left,0.865661546587944,,,,,,,,,,,,,,,,,,,,,,,,,1030,2019_Jun_06_1657,mf_amp_cond1,3.0.7,59.99622860416223,
fair,&&&&,images/symbols/symbol_16.png,condition_files/AMP_rep3.csv,left,fairness.virtue,,,,,,,,,,,,,,0,2,2,2,0,30,30,30,,,,,,,,,,,,,,,,,,,,,1070.4798291707411,,,,,,,,,,,,,,AMP_prac,left,0.8821415100246668,3,,,right,0.7163309566676617,,,,,,,,,,,,,,,,,,,,,,,,,1030,2019_Jun_06_1657,mf_amp_cond1,3.0.7,59.99622860416223,
benefit,&&&&&&&,images/symbols/symbol_62.png,condition_files/AMP_rep3.csv,left,fairness.virtue,,,,,,,,,,,,,,0,2,2,2,0,31,31,31,,,,,,,,,,,,,,,,,,,,,1071.3801033236086,,,,,,,,,,,,,,AMP_prac,left,0.8821415100246668,3,,,left,0.6671104384586215,,,,,,,,,,,,,,,,,,,,,,,,,1030,2019_Jun_06_1657,mf_amp_cond1,3.0.7,59.99622860416223,
violence,&&&&&&&&,images/symbols/symbol_57.png,condition_files/AMP_rep3.csv,right,care.vice,,,,,,,,,,,,,,0,2,2,2,0,32,32,32,,,,,,,,,,,,,,,,,,,,,1072.5970353125595,,,,,,,,,,,,,,AMP_prac,left,0.8821415100246668,3,,,right,0.9989999895915389,,,,,,,,,,,,,,,,,,,,,,,,,1030,2019_Jun_06_1657,mf_amp_cond1,3.0.7,59.99622860416223,
care,&&&&,images/symbols/symbol_27.png,condition_files/AMP_rep3.csv,left,care.virtue,,,,,,,,,,,,,,0,2,2,2,0,33,33,33,,,,,,,,,,,,,,,,,,,,,1073.680642328225,,,,,,,,,,,,,,AMP_prac,left,0.8821415100246668,3,,,right,0.8659713636152446,,,,,,,,,,,,,,,,,,,,,,,,,1030,2019_Jun_06_1657,mf_amp_cond1,3.0.7,59.99622860416223,
respect,&&&&&&&,images/symbols/symbol_48.png,condition_files/AMP_rep3.csv,left,sanctity.virtue,,,,,,,,,,,,,,0,2,2,2,0,34,34,34,,,,,,,,,,,,,,,,,,,,,1075.0643470361829,,,,,,,,,,,,,,AMP_prac,left,0.8821415100246668,3,,,left,1.1661967025138438,,,,,,,,,,,,,,,,,,,,,,,,,1030,2019_Jun_06_1657,mf_amp_cond1,3.0.7,59.99622860416223,
yeussed,&&&&&&&,images/symbols/symbol_50.png,condition_files/AMP_rep3.csv,None,nonword,,,,,,,,,,,,,,0,2,2,2,0,35,35,35,,,,,,,,,,,,,,,,,,,,,1075.964541008696,,,,,,,,,,,,,,AMP_prac,left,0.8821415100246668,3,,,right,0.6827866737730801,,,,,,,,,,,,,,,,,,,,,,,,,1030,2019_Jun_06_1657,mf_amp_cond1,3.0.7,59.99622860416223,
illegal,&&&&&&&,images/symbols/symbol_65.png,condition_files/AMP_rep3.csv,right,fairness.vice,,,,,,,,,,,,,,0,2,2,2,0,36,36,36,,,,,,,,,,,,,,,,,,,,,1076.9481364144012,,,,,,,,,,,,,,AMP_prac,left,0.8821415100246668,3,,,left,0.7659100415185094,,,,,,,,,,,,,,,,,,,,,,,,,1030,2019_Jun_06_1657,mf_amp_cond1,3.0.7,59.99622860416223,
health,&&&&&&,images/symbols/symbol_66.png,condition_files/AMP_rep3.csv,left,care.virtue,,,,,,,,,,,,,,0,2,2,2,0,37,37,37,,,,,,,,,,,,,,,,,,,,,1077.9150376138277,,,,,,,,,,,,,,AMP_prac,left,0.8821415100246668,3,,,left,0.7495894762687385,,,,,,,,,,,,,,,,,,,,,,,,,1030,2019_Jun_06_1657,mf_amp_cond1,3.0.7,59.99622860416223,
ban,&&&,images/symbols/symbol_79.png,condition_files/AMP_rep3.csv,right,loyalty.vice,,,,,,,,,,,,,,0,2,2,2,0,38,38,38,,,,,,,,,,,,,,,,,,,,,1078.8986432827078,,,,,,,,,,,,,,AMP_prac,left,0.8821415100246668,3,,,right,0.7660255013033748,,,,,,,,,,,,,,,,,,,,,,,,,1030,2019_Jun_06_1657,mf_amp_cond1,3.0.7,59.99622860416223,
free,&&&&,images/symbols/symbol_71.png,condition_files/AMP_rep3.csv,left,fairness.virtue,,,,,,,,,,,,,,0,2,2,2,0,39,39,39,,,,,,,,,,,,,,,,,,,,,1079.782181856688,,,,,,,,,,,,,,AMP_prac,left,0.8821415100246668,3,,,left,0.6660860534757376,,,,,,,,,,,,,,,,,,,,,,,,,1030,2019_Jun_06_1657,mf_amp_cond1,3.0.7,59.99622860416223,
lies,&&&&,images/symbols/symbol_38.png,condition_files/AMP_rep3.csv,right,fairness.vice,,,,,,,,,,,,,,0,2,2,2,0,40,40,40,,,,,,,,,,,,,,,,,,,,,1080.6490643904544,,,,,,,,,,,,,,AMP_prac,left,0.8821415100246668,3,,,right,0.6494633685797453,,,,,,,,,,,,,,,,,,,,,,,,,1030,2019_Jun_06_1657,mf_amp_cond1,3.0.7,59.99622860416223,
support,&&&&&&&,images/symbols/symbol_14.png,condition_files/AMP_rep3.csv,left,loyalty.virtue,,,,,,,,,,,,,,0,2,2,2,0,41,41,41,,,,,,,,,,,,,,,,,,,,,1081.4659428829327,,,,,,,,,,,,,,AMP_prac,left,0.8821415100246668,3,,,right,0.5993512440472841,,,,,,,,,,,,,,,,,,,,,,,,,1030,2019_Jun_06_1657,mf_amp_cond1,3.0.7,59.99622860416223,
prison,&&&&&&,images/symbols/symbol_19.png,condition_files/AMP_rep3.csv,right,fairness.vice,,,,,,,,,,,,,,0,2,2,2,0,42,42,42,,,,,,,,,,,,,,,,,,,,,1082.6995953773148,,,,,,,,,,,,,,AMP_prac,left,0.8821415100246668,3,,,left,1.016095097642392,,,,,,,,,,,,,,,,,,,,,,,,,1030,2019_Jun_06_1657,mf_amp_cond1,3.0.7,59.99622860416223,
integrity,&&&&&&&&&,images/symbols/symbol_52.png,condition_files/AMP_rep3.csv,left,fairness.virtue,,,,,,,,,,,,,,0,2,2,2,0,43,43,43,,,,,,,,,,,,,,,,,,,,,1084.0165867637843,,,,,,,,,,,,,,AMP_prac,left,0.8821415100246668,3,,,left,1.0999532383866608,,,,,,,,,,,,,,,,,,,,,,,,,1030,2019_Jun_06_1657,mf_amp_cond1,3.0.7,59.99622860416223,
progress,&&&&&&&&,images/symbols/symbol_22.png,condition_files/AMP_rep3.csv,left,authority.virtue,,,,,,,,,,,,,,0,2,2,2,0,44,44,44,,,,,,,,,,,,,,,,,,,,,1085.9504161039367,,,,,,,,,,,,,,AMP_prac,left,0.8821415100246668,3,,,left,1.7163283904083073,,,,,,,,,,,,,,,,,,,,,,,,,1030,2019_Jun_06_1657,mf_amp_cond1,3.0.7,59.99622860416223,
unpleasant,&&&&&&&&&,images/symbols/symbol_9.png,condition_files/AMP_rep3.csv,left,control,,,,,,,,,,,,,,0,2,2,2,0,45,45,45,,,,,,,,,,,,,,,,,,,,,1086.9339993223548,,,,,,,,,,,,,,AMP_prac,left,0.8821415100246668,3,,,right,0.7658205600455403,,,,,,,,,,,,,,,,,,,,,,,,,1030,2019_Jun_06_1657,mf_amp_cond1,3.0.7,59.99622860416223,
scandal,&&&&&&&,images/symbols/symbol_4.png,condition_files/AMP_rep3.csv,right,sanctity.vice,,,,,,,,,,,,,,0,2,2,2,0,46,46,46,,,,,,,,,,,,,,,,,,,,,1087.9342472404242,,,,,,,,,,,,,,AMP_prac,left,0.8821415100246668,3,,,left,0.7824316988699138,,,,,,,,,,,,,,,,,,,,,,,,,1030,2019_Jun_06_1657,mf_amp_cond1,3.0.7,59.99622860416223,
great,&&&&&,images/symbols/symbol_34.png,condition_files/AMP_rep3.csv,left,loyalty.virtue,,,,,,,,,,,,,,0,2,2,2,0,47,47,47,,,,,,,,,,,,,,,,,,,,,1088.8845411497168,,,,,,,,,,,,,,AMP_prac,left,0.8821415100246668,3,,,right,0.7326569738797843,,,,,,,,,,,,,,,,,,,,,,,,,1030,2019_Jun_06_1657,mf_amp_cond1,3.0.7,59.99622860416223,
suicide,&&&&&&&,images/symbols/symbol_75.png,condition_files/AMP_rep3.csv,right,care.vice,,,,,,,,,,,,,,0,2,2,2,0,48,48,48,,,,,,,,,,,,,,,,,,,,,1089.9680897942744,,,,,,,,,,,,,,AMP_prac,left,0.8821415100246668,3,,,left,0.8504307931289077,,,,,,,,,,,,,,,,,,,,,,,,,1030,2019_Jun_06_1657,mf_amp_cond1,3.0.7,59.99622860416223,
hand,&&&&,images/symbols/symbol_59.png,condition_files/AMP_rep3.csv,left,sanctity.virtue,,,,,,,,,,,,,,0,2,2,2,0,49,49,49,,,,,,,,,,,,,,,,,,,,,1090.8016397217289,,,,,,,,,,,,,,AMP_prac,left,0.8821415100246668,3,,,right,0.6155791208148003,,,,,,,,,,,,,,,,,,,,,,,,,1030,2019_Jun_06_1657,mf_amp_cond1,3.0.7,59.99622860416223,
forced,&&&&&&,images/symbols/symbol_11.png,condition_files/AMP_rep3.csv,right,fairness.vice,,,,,,,,,,,,,,0,2,2,2,0,50,50,50,,,,,,,,,,,,,,,,,,,,,1092.035285801161,,,,,,,,,,,,,,AMP_prac,left,0.8821415100246668,3,,,right,1.01611434109509,,,,,,,,,,,,,,,,,,,,,,,,,1030,2019_Jun_06_1657,mf_amp_cond1,3.0.7,59.99622860416223,
rebels,&&&&&&,images/symbols/symbol_20.png,condition_files/AMP_rep3.csv,right,authority.vice,,,,,,,,,,,,,,0,2,2,2,0,51,51,51,,,,,,,,,,,,,,,,,,,,,1092.9021689766087,,,,,,,,,,,,,,AMP_prac,left,0.8821415100246668,3,,,right,0.6499377158470452,,,,,,,,,,,,,,,,,,,,,,,,,1030,2019_Jun_06_1657,mf_amp_cond1,3.0.7,59.99622860416223,
rejected,&&&&&&&&,images/symbols/symbol_41.png,condition_files/AMP_rep3.csv,right,authority.vice,,,,,,,,,,,,,,0,2,2,2,0,52,52,52,,,,,,,,,,,,,,,,,,,,,1094.0857991483063,,,,,,,,,,,,,,AMP_prac,left,0.8821415100246668,3,,,left,0.9666423774324358,,,,,,,,,,,,,,,,,,,,,,,,,1030,2019_Jun_06_1657,mf_amp_cond1,3.0.7,59.99622860416223,
dignity,&&&&&&&,images/symbols/symbol_70.png,condition_files/AMP_rep3.csv,left,sanctity.virtue,,,,,,,,,,,,,,0,2,2,2,0,53,53,53,,,,,,,,,,,,,,,,,,,,,1094.969354079105,,,,,,,,,,,,,,AMP_prac,left,0.8821415100246668,3,,,right,0.666117484215647,,,,,,,,,,,,,,,,,,,,,,,,,1030,2019_Jun_06_1657,mf_amp_cond1,3.0.7,59.99622860416223,
racist,&&&&&&,images/symbols/symbol_82.png,condition_files/AMP_rep3.csv,right,sanctity.vice,,,,,,,,,,,,,,0,2,2,2,0,54,54,54,,,,,,,,,,,,,,,,,,,,,1096.0529748857953,,,,,,,,,,,,,,AMP_prac,left,0.8821415100246668,3,,,left,0.8663876601494849,,,,,,,,,,,,,,,,,,,,,,,,,1030,2019_Jun_06_1657,mf_amp_cond1,3.0.7,59.99622860416223,
shot,&&&&,images/symbols/symbol_55.png,condition_files/AMP_rep3.csv,right,care.vice,,,,,,,,,,,,,,0,2,2,2,0,55,55,55,,,,,,,,,,,,,,,,,,,,,1096.9198439493775,,,,,,,,,,,,,,AMP_prac,left,0.8821415100246668,3,,,right,0.6492779916152358,,,,,,,,,,,,,,,,,,,,,,,,,1030,2019_Jun_06_1657,mf_amp_cond1,3.0.7,59.99622860416223,
strength,&&&&&&&&,images/symbols/symbol_56.png,condition_files/AMP_rep3.csv,left,sanctity.virtue,,,,,,,,,,,,,,0,2,2,2,0,56,56,56,,,,,,,,,,,,,,,,,,,,,1098.0034560966305,,,,,,,,,,,,,,AMP_prac,left,0.8821415100246668,3,,,right,0.8504410563036799,,,,,,,,,,,,,,,,,,,,,,,,,1030,2019_Jun_06_1657,mf_amp_cond1,3.0.7,59.99622860416223,
refused,&&&&&&&,images/symbols/symbol_28.png,condition_files/AMP_rep3.csv,right,authority.vice,,,,,,,,,,,,,,0,2,2,2,0,57,57,57,,,,,,,,,,,,,,,,,,,,,1098.9036904801615,,,,,,,,,,,,,,AMP_prac,left,0.8821415100246668,3,,,left,0.6821516449563205,,,,,,,,,,,,,,,,,,,,,,,,,1030,2019_Jun_06_1657,mf_amp_cond1,3.0.7,59.99622860416223,
groups,&&&&&&,images/symbols/symbol_23.png,condition_files/AMP_rep3.csv,right,loyalty.vice,,,,,,,,,,,,,,0,2,2,2,0,58,58,58,,,,,,,,,,,,,,,,,,,,,1100.0039772694,,,,,,,,,,,,,,AMP_prac,left,0.8821415100246668,3,,,left,0.8826989242807031,,,,,,,,,,,,,,,,,,,,,,,,,1030,2019_Jun_06_1657,mf_amp_cond1,3.0.7,59.99622860416223,
riot,&&&&,images/symbols/symbol_46.png,condition_files/AMP_rep3.csv,right,authority.vice,,,,,,,,,,,,,,0,2,2,2,0,59,59,59,,,,,,,,,,,,,,,,,,,,,1100.970756595023,,,,,,,,,,,,,,AMP_prac,left,0.8821415100246668,3,,,right,0.7491904986090958,,,,,,,,,,,,,,,,,,,,,,,,,1030,2019_Jun_06_1657,mf_amp_cond1,3.0.7,59.99622860416223,
arrests,&&&&&&&,images/symbols/symbol_49.png,condition_files/AMP_rep3.csv,right,authority.vice,,,,,,,,,,,,,,0,2,2,2,0,60,60,60,,,,,,,,,,,,,,,,,,,,,1101.9377889698371,,,,,,,,,,,,,,AMP_prac,left,0.8821415100246668,3,,,right,0.7337403716519475,,,,,,,,,,,,,,,,,,,,,,,,,1030,2019_Jun_06_1657,mf_amp_cond1,3.0.7,59.99622860416223,
injured,&&&&&&&,images/symbols/symbol_26.png,condition_files/AMP_rep3.csv,right,care.vice,,,,,,,,,,,,,,0,2,2,2,0,61,61,61,,,,,,,,,,,,,,,,,,,,,1103.0714134974405,,,,,,,,,,,,,,AMP_prac,left,0.8821415100246668,3,,,left,0.9156091404147446,,,,,,,,,,,,,,,,,,,,,,,,,1030,2019_Jun_06_1657,mf_amp_cond1,3.0.7,59.99622860416223,
peace,&&&&&,images/symbols/symbol_24.png,condition_files/AMP_rep3.csv,left,care.virtue,,,,,,,,,,,,,,0,2,2,2,0,62,62,62,,,,,,,,,,,,,,,,,,,,,1104.0549893388525,,,,,,,,,,,,,,AMP_prac,left,0.8821415100246668,3,,,right,0.7656396729871631,,,,,,,,,,,,,,,,,,,,,,,,,1030,2019_Jun_06_1657,mf_amp_cond1,3.0.7,59.99622860416223,
intelligence,&&&&&&&&&&&&,images/symbols/symbol_1.png,condition_files/AMP_rep3.csv,left,loyalty.virtue,,,,,,,,,,,,,,0,2,2,2,0,63,63,63,,,,,,,,,,,,,,,,,,,,,1105.4053312926553,,,,,,,,,,,,,,AMP_prac,left,0.8821415100246668,3,,,left,1.132751202210784,,,,,,,,,,,,,,,,,,,,,,,,,1030,2019_Jun_06_1657,mf_amp_cond1,3.0.7,59.99622860416223,
critics,&&&&&&&,images/symbols/symbol_61.png,condition_files/AMP_rep3.csv,right,loyalty.vice,,,,,,,,,,,,,,0,2,2,2,0,64,64,64,,,,,,,,,,,,,,,,,,,,,1106.4055843418464,,,,,,,,,,,,,,AMP_prac,left,0.8821415100246668,3,,,right,0.7670822790823877,,,,,,,,,,,,,,,,,,,,,,,,,1030,2019_Jun_06_1657,mf_amp_cond1,3.0.7,59.99622860416223,
phegned,&&&&&&&,images/symbols/symbol_6.png,condition_files/AMP_rep3.csv,None,nonword,,,,,,,,,,,,,,0,2,2,2,0,65,65,65,,,,,,,,,,,,,,,,,,,,,1107.355817635078,,,,,,,,,,,,,,AMP_prac,left,0.8821415100246668,3,,,right,0.73211655812338,,,,,,,,,,,,,,,,,,,,,,,,,1030,2019_Jun_06_1657,mf_amp_cond1,3.0.7,59.99622860416223,
naidd,&&&&&,images/symbols/symbol_18.png,condition_files/AMP_rep3.csv,None,nonword,,,,,,,,,,,,,,0,2,2,2,0,66,66,66,,,,,,,,,,,,,,,,,,,,,1108.172700938303,,,,,,,,,,,,,,AMP_prac,left,0.8821415100246668,3,,,right,0.5995122464373708,,,,,,,,,,,,,,,,,,,,,,,,,1030,2019_Jun_06_1657,mf_amp_cond1,3.0.7,59.99622860416223,
victims,&&&&&&&,images/symbols/symbol_15.png,condition_files/AMP_rep3.csv,right,care.vice,,,,,,,,,,,,,,0,2,2,2,0,67,67,67,,,,,,,,,,,,,,,,,,,,,1109.106145733036,,,,,,,,,,,,,,AMP_prac,left,0.8821415100246668,3,,,left,0.7159646926447749,,,,,,,,,,,,,,,,,,,,,,,,,1030,2019_Jun_06_1657,mf_amp_cond1,3.0.7,59.99622860416223,
ensure,&&&&&&,images/symbols/symbol_53.png,condition_files/AMP_rep3.csv,left,fairness.virtue,,,,,,,,,,,,,,0,2,2,2,0,68,68,68,,,,,,,,,,,,,,,,,,,,,1110.123199468013,,,,,,,,,,,,,,AMP_prac,left,0.8821415100246668,3,,,left,0.7994876792654395,,,,,,,,,,,,,,,,,,,,,,,,,1030,2019_Jun_06_1657,mf_amp_cond1,3.0.7,59.99622860416223,
love,&&&&,images/symbols/symbol_58.png,condition_files/AMP_rep3.csv,left,loyalty.virtue,,,,,,,,,,,,,,0,2,2,2,0,69,69,69,,,,,,,,,,,,,,,,,,,,,1110.9567356044427,,,,,,,,,,,,,,AMP_prac,left,0.8821415100246668,3,,,left,0.6161297997459769,,,,,,,,,,,,,,,,,,,,,,,,,1030,2019_Jun_06_1657,mf_amp_cond1,3.0.7,59.99622860416223,
accused,&&&&&&&,images/symbols/symbol_13.png,condition_files/AMP_rep3.csv,right,fairness.vice,,,,,,,,,,,,,,0,2,2,2,0,70,70,70,,,,,,,,,,,,,,,,,,,,,1111.7402856601402,,,,,,,,,,,,,,AMP_prac,left,0.8821415100246668,3,,,right,0.5660170339979231,,,,,,,,,,,,,,,,,,,,,,,,,1030,2019_Jun_06_1657,mf_amp_cond1,3.0.7,59.99622860416223,
victim,&&&&&&,images/symbols/symbol_67.png,condition_files/AMP_rep3.csv,right,care.vice,,,,,,,,,,,,,,0,2,2,2,0,71,71,71,,,,,,,,,,,,,,,,,,,,,1112.7238688785583,,,,,,,,,,,,,,AMP_prac,left,0.8821415100246668,3,,,left,0.7659074757248163,,,,,,,,,,,,,,,,,,,,,,,,,1030,2019_Jun_06_1657,mf_amp_cond1,3.0.7,59.99622860416223,
useful,&&&&&&,images/symbols/symbol_63.png,condition_files/AMP_rep3.csv,left,authority.virtue,,,,,,,,,,,,,,0,2,2,2,0,72,72,72,,,,,,,,,,,,,,,,,,,,,1113.6407464733347,,,,,,,,,,,,,,AMP_prac,left,0.8821415100246668,3,,,left,0.6991624031215906,,,,,,,,,,,,,,,,,,,,,,,,,1030,2019_Jun_06_1657,mf_amp_cond1,3.0.7,59.99622860416223,
safe,&&&&,images/symbols/symbol_25.png,condition_files/AMP_rep3.csv,left,care.virtue,,,,,,,,,,,,,,0,2,2,2,0,73,73,73,,,,,,,,,,,,,,,,,,,,,1114.5243062144145,,,,,,,,,,,,,,AMP_prac,left,0.8821415100246668,3,,,right,0.6660299273207784,,,,,,,,,,,,,,,,,,,,,,,,,1030,2019_Jun_06_1657,mf_amp_cond1,3.0.7,59.99622860416223,
dighnd,&&&&&&,images/symbols/symbol_12.png,condition_files/AMP_rep3.csv,None,nonword,,,,,,,,,,,,,,0,2,2,2,0,74,74,74,,,,,,,,,,,,,,,,,,,,,1115.5245589432307,,,,,,,,,,,,,,AMP_prac,left,0.8821415100246668,3,,,right,0.7670970321632922,,,,,,,,,,,,,,,,,,,,,,,,,1030,2019_Jun_06_1657,mf_amp_cond1,3.0.7,59.99622860416223,
army,&&&&,images/symbols/symbol_45.png,condition_files/AMP_rep3.csv,right,loyalty.vice,,,,,,,,,,,,,,0,2,2,2,0,75,75,75,,,,,,,,,,,,,,,,,,,,,1116.5914961281233,,,,,,,,,,,,,,AMP_prac,left,0.8821415100246668,3,,,left,0.8488271846435964,,,,,,,,,,,,,,,,,,,,,,,,,1030,2019_Jun_06_1657,mf_amp_cond1,3.0.7,59.99622860416223,
improve,&&&&&&&,images/symbols/symbol_44.png,condition_files/AMP_rep3.csv,left,care.virtue,,,,,,,,,,,,,,0,2,2,2,0,76,76,76,,,,,,,,,,,,,,,,,,,,,1117.4417402613908,,,,,,,,,,,,,,AMP_prac,left,0.8821415100246668,3,,,right,0.6326405531726778,,,,,,,,,,,,,,,,,,,,,,,,,1030,2019_Jun_06_1657,mf_amp_cond1,3.0.7,59.99622860416223,
wheighlde,&&&&&&&&&,images/symbols/symbol_32.png,condition_files/AMP_rep3.csv,None,nonword,,,,,,,,,,,,,,0,2,2,2,0,77,77,77,,,,,,,,,,,,,,,,,,,,,1118.3419736828655,,,,,,,,,,,,,,AMP_prac,left,0.8821415100246668,3,,,left,0.6827513948082924,,,,,,,,,,,,,,,,,,,,,,,,,1030,2019_Jun_06_1657,mf_amp_cond1,3.0.7,59.99622860416223,
protesters,&&&&&&&&&&,images/symbols/symbol_21.png,condition_files/AMP_rep3.csv,right,authority.vice,,,,,,,,,,,,,,0,2,2,2,0,78,78,78,,,,,,,,,,,,,,,,,,,,,1119.2255035969429,,,,,,,,,,,,,,AMP_prac,left,0.8821415100246668,3,,,right,0.6659426912665367,,,,,,,,,,,,,,,,,,,,,,,,,1030,2019_Jun_06_1657,mf_amp_cond1,3.0.7,59.99622860416223,
gnoozz,&&&&&&,images/symbols/symbol_2.png,condition_files/AMP_rep3.csv,None,nonword,,,,,,,,,,,,,,0,2,2,2,0,79,79,79,,,,,,,,,,,,,,,,,,,,,1120.159174180124,,,,,,,,,,,,,,AMP_prac,left,0.8821415100246668,3,,,right,0.716337370686233,,,,,,,,,,,,,,,,,,,,,,,,,1030,2019_Jun_06_1657,mf_amp_cond1,3.0.7,59.99622860416223,
gun,&&&,images/symbols/symbol_72.png,condition_files/AMP_rep3.csv,right,authority.vice,,,,,,,,,,,,,,0,2,2,2,0,80,80,80,,,,,,,,,,,,,,,,,,,,,1120.959261287935,,,,,,,,,,,,,,AMP_prac,left,0.8821415100246668,3,,,right,0.5670282701030374,,,,,,,,,,,,,,,,,,,,,,,,,1030,2019_Jun_06_1657,mf_amp_cond1,3.0.7,59.99622860416223,
abuse,&&&&&,images/symbols/symbol_68.png,condition_files/AMP_rep3.csv,right,sanctity.vice,,,,,,,,,,,,,,0,2,2,2,0,81,81,81,,,,,,,,,,,,,,,,,,,,,1121.8762017441913,,,,,,,,,,,,,,AMP_prac,left,0.8821415100246668,3,,,left,0.6837562159635127,,,,,,,,,,,,,,,,,,,,,,,,,1030,2019_Jun_06_1657,mf_amp_cond1,3.0.7,59.99622860416223,
,,,condition_files/AMP_rep3.csv,,,,,,,,,,,,,,,,0,2,2,2,,,,,,,,,,,,,,,,,,,,,,,,,,,,,,,,,,,,,,,,,,,,,,,right,1.567299600224942,,,,,,,,,,,,,,,,,,,,,,,1030,2019_Jun_06_1657,mf_amp_cond1,3.0.7,59.99622860416223,
troops,&&&&&&,images/symbols/symbol_74.png,condition_files/AMP_rep4.csv,right,loyalty.vice,,,,,,,,,,,,,,0,3,3,3,0,0,0,0,,,,,,,,,,,,,,,,,,,,,1124.4769689743407,,,,,,,,,,,,,,AMP_prac,left,0.8821415100246668,3,,,left,0.7818078957498074,,,,,,,,,,,,,,,,,,,,,,,,,1030,2019_Jun_06_1657,mf_amp_cond1,3.0.7,59.99622860416223,
feulde,&&&&&&,images/symbols/symbol_30.png,condition_files/AMP_rep4.csv,None,nonword,,,,,,,,,,,,,,0,3,3,3,0,1,1,1,,,,,,,,,,,,,,,,,,,,,1125.8105099215172,,,,,,,,,,,,,,AMP_prac,left,0.8821415100246668,3,,,left,1.1005221991799772,,,,,,,,,,,,,,,,,,,,,,,,,1030,2019_Jun_06_1657,mf_amp_cond1,3.0.7,59.99622860416223,
charges,&&&&&&&,images/symbols/symbol_7.png,condition_files/AMP_rep4.csv,right,fairness.vice,,,,,,,,,,,,,,0,3,3,3,0,2,2,2,,,,,,,,,,,,,,,,,,,,,1126.8607666916214,,,,,,,,,,,,,,AMP_prac,left,0.8821415100246668,3,,,left,0.832353956066072,,,,,,,,,,,,,,,,,,,,,,,,,1030,2019_Jun_06_1657,mf_amp_cond1,3.0.7,59.99622860416223,
honored,&&&&&&&,images/symbols/symbol_42.png,condition_files/AMP_rep4.csv,left,authority.virtue,,,,,,,,,,,,,,0,3,3,3,0,3,3,3,,,,,,,,,,,,,,,,,,,,,1127.7109842048958,,,,,,,,,,,,,,AMP_prac,left,0.8821415100246668,3,,,left,0.6327547300606966,,,,,,,,,,,,,,,,,,,,,,,,,1030,2019_Jun_06_1657,mf_amp_cond1,3.0.7,59.99622860416223,
conspiracy,&&&&&&&&&&,images/symbols/symbol_60.png,condition_files/AMP_rep4.csv,right,sanctity.vice,,,,,,,,,,,,,,0,3,3,3,0,4,4,4,,,,,,,,,,,,,,,,,,,,,1128.5945612653159,,,,,,,,,,,,,,AMP_prac,left,0.8821415100246668,3,,,left,0.650415270589292,,,,,,,,,,,,,,,,,,,,,,,,,1030,2019_Jun_06_1657,mf_amp_cond1,3.0.7,59.99622860416223,
fear,&&&&,images/symbols/symbol_31.png,condition_files/AMP_rep4.csv,right,sanctity.vice,,,,,,,,,,,,,,0,3,3,3,0,5,5,5,,,,,,,,,,,,,,,,,,,,,1130.5116835706867,,,,,,,,,,,,,,AMP_prac,left,0.8821415100246668,3,,,right,1.6839871355332434,,,,,,,,,,,,,,,,,,,,,,,,,1030,2019_Jun_06_1657,mf_amp_cond1,3.0.7,59.99622860416223,
freedom,&&&&&&&,images/symbols/symbol_10.png,condition_files/AMP_rep4.csv,left,sanctity.virtue,,,,,,,,,,,,,,0,3,3,3,0,6,6,6,,,,,,,,,,,,,,,,,,,,,1131.3952596690506,,,,,,,,,,,,,,AMP_prac,left,0.8821415100246668,3,,,left,0.6657011872157454,,,,,,,,,,,,,,,,,,,,,,,,,1030,2019_Jun_06_1657,mf_amp_cond1,3.0.7,59.99622860416223,
increase,&&&&&&&&,images/symbols/symbol_3.png,condition_files/AMP_rep4.csv,left,care.virtue,,,,,,,,,,,,,,0,3,3,3,0,7,7,7,,,,,,,,,,,,,,,,,,,,,1132.3621592652053,,,,,,,,,,,,,,AMP_prac,left,0.8821415100246668,3,,,right,0.7494358504191041,,,,,,,,,,,,,,,,,,,,,,,,,1030,2019_Jun_06_1657,mf_amp_cond1,3.0.7,59.99622860416223,
peaceful,&&&&&&&&,images/symbols/symbol_64.png,condition_files/AMP_rep4.csv,left,authority.virtue,,,,,,,,,,,,,,0,3,3,3,0,8,8,8,,,,,,,,,,,,,,,,,,,,,1133.3290851605125,,,,,,,,,,,,,,AMP_prac,left,0.8821415100246668,3,,,left,0.7492071758024395,,,,,,,,,,,,,,,,,,,,,,,,,1030,2019_Jun_06_1657,mf_amp_cond1,3.0.7,59.99622860416223,
terrorists,&&&&&&&&&&,images/symbols/symbol_29.png,condition_files/AMP_rep4.csv,right,fairness.vice,,,,,,,,,,,,,,0,3,3,3,0,9,9,9,,,,,,,,,,,,,,,,,,,,,1134.4293395569548,,,,,,,,,,,,,,AMP_prac,left,0.8821415100246668,3,,,left,0.8824413847178221,,,,,,,,,,,,,,,,,,,,,,,,,1030,2019_Jun_06_1657,mf_amp_cond1,3.0.7,59.99622860416223,
embrace,&&&&&&&,images/symbols/symbol_77.png,condition_files/AMP_rep4.csv,left,authority.virtue,,,,,,,,,,,,,,0,3,3,3,0,10,10,10,,,,,,,,,,,,,,,,,,,,,1136.596560323611,,,,,,,,,,,,,,AMP_prac,left,0.8821415100246668,3,,,right,1.9497480411082506,,,,,,,,,,,,,,,,,,,,,,,,,1030,2019_Jun_06_1657,mf_amp_cond1,3.0.7,59.99622860416223,
sneaze,&&&&&&,images/symbols/symbol_47.png,condition_files/AMP_rep4.csv,None,nonword,,,,,,,,,,,,,,0,3,3,3,0,11,11,11,,,,,,,,,,,,,,,,,,,,,1137.613511748612,,,,,,,,,,,,,,AMP_prac,left,0.8821415100246668,3,,,right,0.7991021717898548,,,,,,,,,,,,,,,,,,,,,,,,,1030,2019_Jun_06_1657,mf_amp_cond1,3.0.7,59.99622860416223,
coacs,&&&&&,images/symbols/symbol_39.png,condition_files/AMP_rep4.csv,None,nonword,,,,,,,,,,,,,,0,3,3,3,0,12,12,12,,,,,,,,,,,,,,,,,,,,,1138.49704198353,,,,,,,,,,,,,,AMP_prac,left,0.8821415100246668,3,,,right,0.6659417287446558,,,,,,,,,,,,,,,,,,,,,,,,,1030,2019_Jun_06_1657,mf_amp_cond1,3.0.7,59.99622860416223,
actively,&&&&&&&&,images/symbols/symbol_73.png,condition_files/AMP_rep4.csv,left,authority.virtue,,,,,,,,,,,,,,0,3,3,3,0,13,13,13,,,,,,,,,,,,,,,,,,,,,1139.5973274898715,,,,,,,,,,,,,,AMP_prac,left,0.8821415100246668,3,,,left,0.867113774176687,,,,,,,,,,,,,,,,,,,,,,,,,1030,2019_Jun_06_1657,mf_amp_cond1,3.0.7,59.99622860416223,
safety,&&&&&&,images/symbols/symbol_69.png,condition_files/AMP_rep4.csv,left,care.virtue,,,,,,,,,,,,,,0,3,3,3,0,14,14,14,,,,,,,,,,,,,,,,,,,,,1140.6976075442508,,,,,,,,,,,,,,AMP_prac,left,0.8821415100246668,3,,,left,0.8821027032099664,,,,,,,,,,,,,,,,,,,,,,,,,1030,2019_Jun_06_1657,mf_amp_cond1,3.0.7,59.99622860416223,
men,&&&,images/symbols/symbol_36.png,condition_files/AMP_rep4.csv,right,loyalty.vice,,,,,,,,,,,,,,0,3,3,3,0,15,15,15,,,,,,,,,,,,,,,,,,,,,1141.5811599092558,,,,,,,,,,,,,,AMP_prac,left,0.8821415100246668,3,,,right,0.6661242190748453,,,,,,,,,,,,,,,,,,,,,,,,,1030,2019_Jun_06_1657,mf_amp_cond1,3.0.7,59.99622860416223,
friends,&&&&&&&,images/symbols/symbol_5.png,condition_files/AMP_rep4.csv,left,loyalty.virtue,,,,,,,,,,,,,,0,3,3,3,0,16,16,16,,,,,,,,,,,,,,,,,,,,,1142.898167011328,,,,,,,,,,,,,,AMP_prac,left,0.8821415100246668,3,,,left,1.0995565061457455,,,,,,,,,,,,,,,,,,,,,,,,,1030,2019_Jun_06_1657,mf_amp_cond1,3.0.7,59.99622860416223,
protect,&&&&&&&,images/symbols/symbol_37.png,condition_files/AMP_rep4.csv,left,fairness.virtue,,,,,,,,,,,,,,0,3,3,3,0,17,17,17,,,,,,,,,,,,,,,,,,,,,1143.8650717386045,,,,,,,,,,,,,,AMP_prac,left,0.8821415100246668,3,,,left,0.7337541626766324,,,,,,,,,,,,,,,,,,,,,,,,,1030,2019_Jun_06_1657,mf_amp_cond1,3.0.7,59.99622860416223,
killed,&&&&&&,images/symbols/symbol_33.png,condition_files/AMP_rep4.csv,right,care.vice,,,,,,,,,,,,,,0,3,3,3,0,18,18,18,,,,,,,,,,,,,,,,,,,,,1144.7986393701285,,,,,,,,,,,,,,AMP_prac,left,0.8821415100246668,3,,,right,0.7154954764991999,,,,,,,,,,,,,,,,,,,,,,,,,1030,2019_Jun_06_1657,mf_amp_cond1,3.0.7,59.99622860416223,
corruption,&&&&&&&&&&,images/symbols/symbol_54.png,condition_files/AMP_rep4.csv,right,sanctity.vice,,,,,,,,,,,,,,0,3,3,3,0,19,19,19,,,,,,,,,,,,,,,,,,,,,1145.6822151476517,,,,,,,,,,,,,,AMP_prac,left,0.8821415100246668,3,,,right,0.6504091769456863,,,,,,,,,,,,,,,,,,,,,,,,,1030,2019_Jun_06_1657,mf_amp_cond1,3.0.7,59.99622860416223,
sharing,&&&&&&&,images/symbols/symbol_8.png,condition_files/AMP_rep4.csv,left,loyalty.virtue,,,,,,,,,,,,,,0,3,3,3,0,20,20,20,,,,,,,,,,,,,,,,,,,,,1146.5324656954035,,,,,,,,,,,,,,AMP_prac,left,0.8821415100246668,3,,,left,0.6323592802509665,,,,,,,,,,,,,,,,,,,,,,,,,1030,2019_Jun_06_1657,mf_amp_cond1,3.0.7,59.99622860416223,
encourage,&&&&&&&&&,images/symbols/symbol_35.png,condition_files/AMP_rep4.csv,left,authority.virtue,,,,,,,,,,,,,,0,3,3,3,0,21,21,21,,,,,,,,,,,,,,,,,,,,,1147.4494593911804,,,,,,,,,,,,,,AMP_prac,left,0.8821415100246668,3,,,left,0.699123275000602,,,,,,,,,,,,,,,,,,,,,,,,,1030,2019_Jun_06_1657,mf_amp_cond1,3.0.7,59.99622860416223,
thinx,&&&&&,images/symbols/symbol_78.png,condition_files/AMP_rep4.csv,None,nonword,,,,,,,,,,,,,,0,3,3,3,0,22,22,22,,,,,,,,,,,,,,,,,,,,,1148.316187337041,,,,,,,,,,,,,,AMP_prac,left,0.8821415100246668,3,,,left,0.6492981966584921,,,,,,,,,,,,,,,,,,,,,,,,,1030,2019_Jun_06_1657,mf_amp_cond1,3.0.7,59.99622860416223,
commitment,&&&&&&&&&&,images/symbols/symbol_40.png,condition_files/AMP_rep4.csv,left,sanctity.virtue,,,,,,,,,,,,,,0,3,3,3,0,23,23,23,,,,,,,,,,,,,,,,,,,,,1149.3497842182405,,,,,,,,,,,,,,AMP_prac,left,0.8821415100246668,3,,,left,0.8156629572622478,,,,,,,,,,,,,,,,,,,,,,,,,1030,2019_Jun_06_1657,mf_amp_cond1,3.0.7,59.99622860416223,
failure,&&&&&&&,images/symbols/symbol_76.png,condition_files/AMP_rep4.csv,right,loyalty.vice,,,,,,,,,,,,,,0,3,3,3,0,24,24,24,,,,,,,,,,,,,,,,,,,,,1150.5167583501898,,,,,,,,,,,,,,AMP_prac,left,0.8821415100246668,3,,,left,0.949915137141943,,,,,,,,,,,,,,,,,,,,,,,,,1030,2019_Jun_06_1657,mf_amp_cond1,3.0.7,59.99622860416223,
pleasant,&&&&&&&,images/symbols/symbol_43.png,condition_files/AMP_rep4.csv,right,control,,,,,,,,,,,,,,0,3,3,3,0,25,25,25,,,,,,,,,,,,,,,,,,,,,1151.417000430636,,,,,,,,,,,,,,AMP_prac,left,0.8821415100246668,3,,,right,0.6670863847248256,,,,,,,,,,,,,,,,,,,,,,,,,1030,2019_Jun_06_1657,mf_amp_cond1,3.0.7,59.99622860416223,
hope,&&&&,images/symbols/symbol_80.png,condition_files/AMP_rep4.csv,left,loyalty.virtue,,,,,,,,,,,,,,0,3,3,3,0,26,26,26,,,,,,,,,,,,,,,,,,,,,1152.3505539502949,,,,,,,,,,,,,,AMP_prac,left,0.8821415100246668,3,,,left,0.7158816256560385,,,,,,,,,,,,,,,,,,,,,,,,,1030,2019_Jun_06_1657,mf_amp_cond1,3.0.7,59.99622860416223,
promises,&&&&&&&&,images/symbols/symbol_81.png,condition_files/AMP_rep4.csv,left,fairness.virtue,,,,,,,,,,,,,,0,3,3,3,0,27,27,27,,,,,,,,,,,,,,,,,,,,,1153.1507590836845,,,,,,,,,,,,,,AMP_prac,left,0.8821415100246668,3,,,left,0.5825874414294958,,,,,,,,,,,,,,,,,,,,,,,,,1030,2019_Jun_06_1657,mf_amp_cond1,3.0.7,59.99622860416223,
faith,&&&&&,images/symbols/symbol_51.png,condition_files/AMP_rep4.csv,left,sanctity.virtue,,,,,,,,,,,,,,0,3,3,3,0,28,28,28,,,,,,,,,,,,,,,,,,,,,1153.984323443845,,,,,,,,,,,,,,AMP_prac,left,0.8821415100246668,3,,,left,0.6004073806107044,,,,,,,,,,,,,,,,,,,,,,,,,1030,2019_Jun_06_1657,mf_amp_cond1,3.0.7,59.99622860416223,
harassment,&&&&&&&&&&,images/symbols/symbol_17.png,condition_files/AMP_rep4.csv,right,sanctity.vice,,,,,,,,,,,,,,0,3,3,3,0,29,29,29,,,,,,,,,,,,,,,,,,,,,1155.2679623393342,,,,,,,,,,,,,,AMP_prac,left,0.8821415100246668,3,,,right,1.0655061244033277,,,,,,,,,,,,,,,,,,,,,,,,,1030,2019_Jun_06_1657,mf_amp_cond1,3.0.7,59.99622860416223,
fair,&&&&,images/symbols/symbol_16.png,condition_files/AMP_rep4.csv,left,fairness.virtue,,,,,,,,,,,,,,0,3,3,3,0,30,30,30,,,,,,,,,,,,,,,,,,,,,1156.2348677082919,,,,,,,,,,,,,,AMP_prac,left,0.8821415100246668,3,,,right,0.7497370080091059,,,,,,,,,,,,,,,,,,,,,,,,,1030,2019_Jun_06_1657,mf_amp_cond1,3.0.7,59.99622860416223,
benefit,&&&&&&&,images/symbols/symbol_62.png,condition_files/AMP_rep4.csv,left,fairness.virtue,,,,,,,,,,,,,,0,3,3,3,0,31,31,31,,,,,,,,,,,,,,,,,,,,,1157.551872565411,,,,,,,,,,,,,,AMP_prac,left,0.8821415100246668,3,,,right,1.0838408218696713,,,,,,,,,,,,,,,,,,,,,,,,,1030,2019_Jun_06_1657,mf_amp_cond1,3.0.7,59.99622860416223,
violence,&&&&&&&&,images/symbols/symbol_57.png,condition_files/AMP_rep4.csv,right,care.vice,,,,,,,,,,,,,,0,3,3,3,0,32,32,32,,,,,,,,,,,,,,,,,,,,,1158.8521941211075,,,,,,,,,,,,,,AMP_prac,left,0.8821415100246668,3,,,right,1.0822609472088516,,,,,,,,,,,,,,,,,,,,,,,,,1030,2019_Jun_06_1657,mf_amp_cond1,3.0.7,59.99622860416223,
care,&&&&,images/symbols/symbol_27.png,condition_files/AMP_rep4.csv,left,care.virtue,,,,,,,,,,,,,,0,3,3,3,0,33,33,33,,,,,,,,,,,,,,,,,,,,,1159.7857665629126,,,,,,,,,,,,,,AMP_prac,left,0.8821415100246668,3,,,left,0.7159900292754173,,,,,,,,,,,,,,,,,,,,,,,,,1030,2019_Jun_06_1657,mf_amp_cond1,3.0.7,59.99622860416223,
respect,&&&&&&&,images/symbols/symbol_48.png,condition_files/AMP_rep4.csv,left,sanctity.virtue,,,,,,,,,,,,,,0,3,3,3,0,34,34,34,,,,,,,,,,,,,,,,,,,,,1160.6693439441733,,,,,,,,,,,,,,AMP_prac,left,0.8821415100246668,3,,,left,0.6659725178033113,,,,,,,,,,,,,,,,,,,,,,,,,1030,2019_Jun_06_1657,mf_amp_cond1,3.0.7,59.99622860416223,
yeussed,&&&&&&&,images/symbols/symbol_50.png,condition_files/AMP_rep4.csv,None,nonword,,,,,,,,,,,,,,0,3,3,3,0,35,35,35,,,,,,,,,,,,,,,,,,,,,1161.386207619682,,,,,,,,,,,,,,AMP_prac,left,0.8821415100246668,3,,,right,0.49942013528198004,,,,,,,,,,,,,,,,,,,,,,,,,1030,2019_Jun_06_1657,mf_amp_cond1,3.0.7,59.99622860416223,
illegal,&&&&&&&,images/symbols/symbol_65.png,condition_files/AMP_rep4.csv,right,fairness.vice,,,,,,,,,,,,,,0,3,3,3,0,36,36,36,,,,,,,,,,,,,,,,,,,,,1162.2864025542513,,,,,,,,,,,,,,AMP_prac,left,0.8821415100246668,3,,,left,0.6826253510080278,,,,,,,,,,,,,,,,,,,,,,,,,1030,2019_Jun_06_1657,mf_amp_cond1,3.0.7,59.99622860416223,
health,&&&&&&,images/symbols/symbol_66.png,condition_files/AMP_rep4.csv,left,care.virtue,,,,,,,,,,,,,,0,3,3,3,0,37,37,37,,,,,,,,,,,,,,,,,,,,,1163.1866302024573,,,,,,,,,,,,,,AMP_prac,left,0.8821415100246668,3,,,left,0.6826750626787543,,,,,,,,,,,,,,,,,,,,,,,,,1030,2019_Jun_06_1657,mf_amp_cond1,3.0.7,59.99622860416223,
ban,&&&,images/symbols/symbol_79.png,condition_files/AMP_rep4.csv,right,loyalty.vice,,,,,,,,,,,,,,0,3,3,3,0,38,38,38,,,,,,,,,,,,,,,,,,,,,1164.1702108550817,,,,,,,,,,,,,,AMP_prac,left,0.8821415100246668,3,,,right,0.7660364056937397,,,,,,,,,,,,,,,,,,,,,,,,,1030,2019_Jun_06_1657,mf_amp_cond1,3.0.7,59.99622860416223,
free,&&&&,images/symbols/symbol_71.png,condition_files/AMP_rep4.csv,left,fairness.virtue,,,,,,,,,,,,,,0,3,3,3,0,39,39,39,,,,,,,,,,,,,,,,,,,,,1165.0370930680074,,,,,,,,,,,,,,AMP_prac,left,0.8821415100246668,3,,,left,0.6493738871067762,,,,,,,,,,,,,,,,,,,,,,,,,1030,2019_Jun_06_1657,mf_amp_cond1,3.0.7,59.99622860416223,
lies,&&&&,images/symbols/symbol_38.png,condition_files/AMP_rep4.csv,right,fairness.vice,,,,,,,,,,,,,,0,3,3,3,0,40,40,40,,,,,,,,,,,,,,,,,,,,,1166.07069572201,,,,,,,,,,,,,,AMP_prac,left,0.8821415100246668,3,,,right,0.8161623212508857,,,,,,,,,,,,,,,,,,,,,,,,,1030,2019_Jun_06_1657,mf_amp_cond1,3.0.7,59.99622860416223,
support,&&&&&&&,images/symbols/symbol_14.png,condition_files/AMP_rep4.csv,left,loyalty.virtue,,,,,,,,,,,,,,0,3,3,3,0,41,41,41,,,,,,,,,,,,,,,,,,,,,1167.054263545666,,,,,,,,,,,,,,AMP_prac,left,0.8821415100246668,3,,,right,0.766049234662205,,,,,,,,,,,,,,,,,,,,,,,,,1030,2019_Jun_06_1657,mf_amp_cond1,3.0.7,59.99622860416223,
prison,&&&&&&,images/symbols/symbol_19.png,condition_files/AMP_rep4.csv,right,fairness.vice,,,,,,,,,,,,,,0,3,3,3,0,42,42,42,,,,,,,,,,,,,,,,,,,,,1167.8378055836074,,,,,,,,,,,,,,AMP_prac,left,0.8821415100246668,3,,,left,0.5660154307261109,,,,,,,,,,,,,,,,,,,,,,,,,1030,2019_Jun_06_1657,mf_amp_cond1,3.0.7,59.99622860416223,
integrity,&&&&&&&&&,images/symbols/symbol_52.png,condition_files/AMP_rep4.csv,left,fairness.virtue,,,,,,,,,,,,,,0,3,3,3,0,43,43,43,,,,,,,,,,,,,,,,,,,,,1168.6546776616015,,,,,,,,,,,,,,AMP_prac,left,0.8821415100246668,3,,,left,0.5998069900088012,,,,,,,,,,,,,,,,,,,,,,,,,1030,2019_Jun_06_1657,mf_amp_cond1,3.0.7,59.99622860416223,
progress,&&&&&&&&,images/symbols/symbol_22.png,condition_files/AMP_rep4.csv,left,authority.virtue,,,,,,,,,,,,,,0,3,3,3,0,44,44,44,,,,,,,,,,,,,,,,,,,,,1169.5882485001348,,,,,,,,,,,,,,AMP_prac,left,0.8821415100246668,3,,,right,0.7161173559725285,,,,,,,,,,,,,,,,,,,,,,,,,1030,2019_Jun_06_1657,mf_amp_cond1,3.0.7,59.99622860416223,
unpleasant,&&&&&&&&&,images/symbols/symbol_9.png,condition_files/AMP_rep4.csv,left,control,,,,,,,,,,,,,,0,3,3,3,0,45,45,45,,,,,,,,,,,,,,,,,,,,,1170.5718240211718,,,,,,,,,,,,,,AMP_prac,left,0.8821415100246668,3,,,right,0.7659456417895854,,,,,,,,,,,,,,,,,,,,,,,,,1030,2019_Jun_06_1657,mf_amp_cond1,3.0.7,59.99622860416223,
scandal,&&&&&&&,images/symbols/symbol_4.png,condition_files/AMP_rep4.csv,right,sanctity.vice,,,,,,,,,,,,,,0,3,3,3,0,46,46,46,,,,,,,,,,,,,,,,,,,,,1171.4385859635659,,,,,,,,,,,,,,AMP_prac,left,0.8821415100246668,3,,,left,0.649076899047941,,,,,,,,,,,,,,,,,,,,,,,,,1030,2019_Jun_06_1657,mf_amp_cond1,3.0.7,59.99622860416223,
great,&&&&&,images/symbols/symbol_34.png,condition_files/AMP_rep4.csv,left,loyalty.virtue,,,,,,,,,,,,,,0,3,3,3,0,47,47,47,,,,,,,,,,,,,,,,,,,,,1172.2889324072748,,,,,,,,,,,,,,AMP_prac,left,0.8821415100246668,3,,,right,0.6324606281705201,,,,,,,,,,,,,,,,,,,,,,,,,1030,2019_Jun_06_1657,mf_amp_cond1,3.0.7,59.99622860416223,
suicide,&&&&&&&,images/symbols/symbol_75.png,condition_files/AMP_rep4.csv,right,care.vice,,,,,,,,,,,,,,0,3,3,3,0,48,48,48,,,,,,,,,,,,,,,,,,,,,1173.1224749577232,,,,,,,,,,,,,,AMP_prac,left,0.8821415100246668,3,,,left,0.6159665524028242,,,,,,,,,,,,,,,,,,,,,,,,,1030,2019_Jun_06_1657,mf_amp_cond1,3.0.7,59.99622860416223,
hand,&&&&,images/symbols/symbol_59.png,condition_files/AMP_rep4.csv,left,sanctity.virtue,,,,,,,,,,,,,,0,3,3,3,0,49,49,49,,,,,,,,,,,,,,,,,,,,,1173.9893825077452,,,,,,,,,,,,,,AMP_prac,left,0.8821415100246668,3,,,right,0.6493716421537101,,,,,,,,,,,,,,,,,,,,,,,,,1030,2019_Jun_06_1657,mf_amp_cond1,3.0.7,59.99622860416223,
forced,&&&&&&,images/symbols/symbol_11.png,condition_files/AMP_rep4.csv,right,fairness.vice,,,,,,,,,,,,,,0,3,3,3,0,50,50,50,,,,,,,,,,,,,,,,,,,,,1174.822926341556,,,,,,,,,,,,,,AMP_prac,left,0.8821415100246668,3,,,right,0.6159671936184168,,,,,,,,,,,,,,,,,,,,,,,,,1030,2019_Jun_06_1657,mf_amp_cond1,3.0.7,59.99622860416223,
