words,mask,masks,symbols,conditionfile,corr_ans,category,LDT_trials_cond2.thisRepN,LDT_trials_cond2.thisTrialN,LDT_trials_cond2.thisN,LDT_trials_cond2.thisIndex,LDT_pracs_1.thisRepN,LDT_pracs_1.thisTrialN,LDT_pracs_1.thisN,LDT_pracs_1.thisIndex,LDT_trials_1.thisRepN,LDT_trials_1.thisTrialN,LDT_trials_1.thisN,LDT_trials_1.thisIndex,logo_trials.thisRepN,logo_trials.thisTrialN,logo_trials.thisN,logo_trials.thisIndex,AMP_pracs.thisRepN,AMP_pracs.thisTrialN,AMP_pracs.thisN,AMP_pracs.thisIndex,trials_loop.thisRepN,trials_loop.thisTrialN,trials_loop.thisN,trials_loop.thisIndex,AMP_trials.thisRepN,AMP_trials.thisTrialN,AMP_trials.thisN,AMP_trials.thisIndex,memtask_trials.thisRepN,memtask_trials.thisTrialN,memtask_trials.thisN,memtask_trials.thisIndex,LDT_cond1.thisRepN,LDT_cond1.thisTrialN,LDT_cond1.thisN,LDT_cond1.thisIndex,begin_key.keys,begin_key.rt,key_resp_instr.keys,key_resp_instr.rt,exp_time,key_resp_LDT_instr.keys,key_resp_LDT_instr.rt,resp_LDT_prac.keys,resp_LDT_prac.rt,task,keypress,RT,corr,resp_LDT_ready.keys,resp_LDT_ready.rt,resp_LDT_trial.keys,resp_LDT_trial.rt,LDT_rating.response,LDT_rating.rt,resp_sym_rate.keys,resp_sym_rate.rt,sym_resp_1.keys,sym_resp_1.rt,sym_resp_2.keys,sym_resp_2.rt,sym_resp_trial.keys,sym_resp_trial.rt,symbol_index,resp_AMP_ready1.keys,resp_AMP_ready1.rt,resp_AMP.keys,resp_AMP.rt,prime_dur,resp_AMP_ready.keys,resp_AMP_ready.rt,resp_AMP_trials.keys,resp_AMP_trials.rt,rest_key_resp.keys,rest_key_resp.rt,AMP_nonword_rating.response,AMP_nonword_rating.rt,AMP_word_rating.response,AMP_word_rating.rt,AMP_random_rating.response,AMP_random_rating.rt,key_resp_instr_memtask.keys,key_resp_instr_memtask.rt,resp_memtask.keys,resp_memtask.corr,resp_memtask.rt,participant ID,date,expName,psychopyVersion,frameRate,
,,,,,,,,,,,,,,,,,,,,,,,,,,,,,,,,,,,,,,,,,,,right,257.069339197129,,,,,,,,,,,,,,,,,,,,,,,,,,,,,,,,,,,,,,,,,,,,,,,,,1031,2019_Jun_07_1256,mf_amp_cond1,3.0.7,59.98212803873607,
,,,,,,,,,,,,,,,,,,,,,,,,,,,,,,,,,,,,,,,,,,,,,right,5.9685225947760046,,,,,,,,,,,,,,,,,,,,,,,,,,,,,,,,,,,,,,,,,,,,,,,1031,2019_Jun_07_1256,mf_amp_cond1,3.0.7,59.98212803873607,
bisebell,&&&&&&&,,,,,,0,0,0,0,0,0,0,1,,,,,,,,,,,,,,,,,,,,,,,,,,,,,,,,,363.8787309739273,right,3.517861111788079,left,1.400619130814448,LDT_prac,left,1.400619130814448,0,,,,,,,,,,,,,,,,,,,,,,,,,,,,,,,,,,,,,,1031,2019_Jun_07_1256,mf_amp_cond1,3.0.7,59.98212803873607,
keyboard,&&&&&&&,,,,,,0,0,0,0,0,1,1,0,,,,,,,,,,,,,,,,,,,,,,,,,,,,,,,,,365.74579807859845,,,left,0.6504210019484162,LDT_prac,left,0.6504210019484162,0,,,,,,,,,,,,,,,,,,,,,,,,,,,,,,,,,,,,,,1031,2019_Jun_07_1256,mf_amp_cond1,3.0.7,59.98212803873607,
,,,,,,,0,0,0,0,,,,,0,0,0,0,,,,,,,,,,,,,,,,,,,,,,,,,,,,,385.5512105990201,,,,,LDT_prac,left,0.6504210019484162,0,right,1.667367561487481,left,0.7004213386680931,,,,,,,,,,,,,,,,,,,,,,,,,,,,,,,,,,1031,2019_Jun_07_1256,mf_amp_cond1,3.0.7,59.98212803873607,
,,,,,,,0,0,0,0,,,,,,,,,,,,,,,,,,,,,,,,,,,,,,,,,,,,,,,,,,,,,,,,,,1,19.907,,,,,,,,,,,,,,,,,,,,,,,,,,,,,,,,1031,2019_Jun_07_1256,mf_amp_cond1,3.0.7,59.98212803873607,
,,,,,,,,,,,,,,,,,,,,,,,,,,,,,,,,,,,,,,,,,,,,,,,,,,,,,,,,,,,,,,right,1.7341040610335767,,,,,,,,,,,,,,,,,,,,,,,,,,,,,,1031,2019_Jun_07_1256,mf_amp_cond1,3.0.7,59.98212803873607,
,,,,,,,,,,,,,,,,,,,,,,,,,,,,,,,,,,,,,,,,,,,,,,,479.24281259370036,,,,,,,,,,,,,,,,,left,1.4339731084182858,,,,,,,,,,,,,,,,,,,,,,,,,,,,1031,2019_Jun_07_1256,mf_amp_cond1,3.0.7,59.98212803873607,
,,,,,,,,,,,,,,,,,,,,,,,,,,,,,,,,,,,,,,,,,,,,,,,,,,,,,,,,,,,,,,,,,,right,1.5172947084065527,,,,,,,,,,,,,,,,,,,,,,,,,,1031,2019_Jun_07_1256,mf_amp_cond1,3.0.7,59.98212803873607,
,,,,,,,,,,,,,,,,,,,,,,,,,,,,,,,,,,,,,,,,,,,,,,,498.2311464792583,,,,,,,,,,,,,,,,,,,,,left,0.9317981000058353,35,right,1.3006377008277923,,,,,,,,,,,,,,,,,,,,,1031,2019_Jun_07_1256,mf_amp_cond1,3.0.7,59.98212803873607,
keyboard,,&&&&&&&&,images/symbols/symbol_40.png,,,,,,,,,,,,,,,,,,,,0,0,0,2,,,,,,,,,,,,,,,,,,,,,669.2274866665248,,,,,AMP_prac,left,2.0507941355463117,,,,,,,,,,,,,,,,,,,left,2.0507941355463117,3,,,,,,,,,,,,,,,,,,1031,2019_Jun_07_1256,mf_amp_cond1,3.0.7,59.98212803873607,
car,,&&&,images/symbols/symbol_9.png,,,,,,,,,,,,,,,,,,,,0,1,1,0,,,,,,,,,,,,,,,,,,,,,670.3943357733078,,,,,AMP_prac,left,0.9486282356083393,,,,,,,,,,,,,,,,,,,left,0.9486282356083393,3,,,,,,,,,,,,,,,,,,1031,2019_Jun_07_1256,mf_amp_cond1,3.0.7,59.98212803873607,
scarf,,&&&&&,images/symbols/symbol_54.png,,,,,,,,,,,,,,,,,,,,0,2,2,3,,,,,,,,,,,,,,,,,,,,,671.1445393546019,,,,,AMP_prac,right,0.517057370627299,,,,,,,,,,,,,,,,,,,right,0.517057370627299,3,,,,,,,,,,,,,,,,,,1031,2019_Jun_07_1256,mf_amp_cond1,3.0.7,59.98212803873607,
banana,,&&&&&&,images/symbols/symbol_68.png,,,,,,,,,,,,,,,,,,,,0,3,3,1,,,,,,,,,,,,,,,,,,,,,672.378225669032,,,,,AMP_prac,left,1.0005349721759558,,,,,,,,,,,,,,,,,,,left,1.0005349721759558,3,,,,,,,,,,,,,,,,,,1031,2019_Jun_07_1256,mf_amp_cond1,3.0.7,59.98212803873607,
,,,,,,,,,,,,,,,,,,,,,,,,,,,,,,,,,,,,,,,,,,,,,,,,,,,,,,,,,,,,,,,,,,,,,,,,,,,,right,1.033838916104287,,,,,,,,,,,,,,,,1031,2019_Jun_07_1256,mf_amp_cond1,3.0.7,59.98212803873607,
wraughsed,,&&&&&&&&&,images/symbols/symbol_46.png,condition_files/AMP_rep3.csv,None,nonword,,,,,,,,,,,,,,,,,,,,,0,0,0,2,0,0,0,0,,,,,,,,,,,,,695.1678100039717,,,,,AMP_prac,left,1.0005349721759558,,,,,,,,,,,,,,,,,,,,,3,,,left,1.4839785767253488,,,,,,,,,,,,,,1031,2019_Jun_07_1256,mf_amp_cond1,3.0.7,59.98212803873607,
strength,,&&&&&&&&,images/symbols/symbol_67.png,condition_files/AMP_rep3.csv,left,sanctity.virtue,,,,,,,,,,,,,,,,,,,,,0,0,0,2,0,1,1,1,,,,,,,,,,,,,696.0679074728396,,,,,AMP_prac,left,1.0005349721759558,,,,,,,,,,,,,,,,,,,,,3,,,right,0.6670994339510798,,,,,,,,,,,,,,1031,2019_Jun_07_1256,mf_amp_cond1,3.0.7,59.98212803873607,
increase,,&&&&&&&&,images/symbols/symbol_6.png,condition_files/AMP_rep3.csv,left,care.virtue,,,,,,,,,,,,,,,,,,,,,0,0,0,2,0,2,2,2,,,,,,,,,,,,,696.9681742852554,,,,,AMP_prac,left,1.0005349721759558,,,,,,,,,,,,,,,,,,,,,3,,,right,0.6671177153475583,,,,,,,,,,,,,,1031,2019_Jun_07_1256,mf_amp_cond1,3.0.7,59.98212803873607,
interests,,&&&&&&&&&,images/symbols/symbol_35.png,condition_files/AMP_rep3.csv,left,fairness.virtue,,,,,,,,,,,,,,,,,,,,,0,0,0,2,0,3,3,3,,,,,,,,,,,,,697.7850335431285,,,,,AMP_prac,left,1.0005349721759558,,,,,,,,,,,,,,,,,,,,,3,,,right,0.5988702720496804,,,,,,,,,,,,,,1031,2019_Jun_07_1256,mf_amp_cond1,3.0.7,59.98212803873607,
prosecution,,&&&&&&&&&&&,images/symbols/symbol_50.png,condition_files/AMP_rep3.csv,right,authority.vice,,,,,,,,,,,,,,,,,,,,,0,0,0,2,0,4,4,4,,,,,,,,,,,,,698.5352316719946,,,,,AMP_prac,left,1.0005349721759558,,,,,,,,,,,,,,,,,,,,,3,,,right,0.5324987594503909,,,,,,,,,,,,,,1031,2019_Jun_07_1256,mf_amp_cond1,3.0.7,59.98212803873607,
ban,,&&&,images/symbols/symbol_20.png,condition_files/AMP_rep3.csv,right,loyalty.vice,,,,,,,,,,,,,,,,,,,,,0,0,0,2,0,5,5,5,,,,,,,,,,,,,699.3854619057383,,,,,AMP_prac,left,1.0005349721759558,,,,,,,,,,,,,,,,,,,,,3,,,right,0.632984371855855,,,,,,,,,,,,,,1031,2019_Jun_07_1256,mf_amp_cond1,3.0.7,59.98212803873607,
charges,,&&&&&&&,images/symbols/symbol_19.png,condition_files/AMP_rep3.csv,right,fairness.vice,,,,,,,,,,,,,,,,,,,,,0,0,0,2,0,6,6,6,,,,,,,,,,,,,700.535872163251,,,,,AMP_prac,left,1.0005349721759558,,,,,,,,,,,,,,,,,,,,,3,,,left,0.9327092848252505,,,,,,,,,,,,,,1031,2019_Jun_07_1256,mf_amp_cond1,3.0.7,59.98212803873607,
death,,&&&&&,images/symbols/symbol_70.png,condition_files/AMP_rep3.csv,right,care.vice,,,,,,,,,,,,,,,,,,,,,0,0,0,2,0,7,7,7,,,,,,,,,,,,,701.3693485942204,,,,,AMP_prac,left,1.0005349721759558,,,,,,,,,,,,,,,,,,,,,3,,,right,0.6003289371728897,,,,,,,,,,,,,,1031,2019_Jun_07_1256,mf_amp_cond1,3.0.7,59.98212803873607,
dignity,,&&&&&&&,images/symbols/symbol_31.png,condition_files/AMP_rep3.csv,left,sanctity.virtue,,,,,,,,,,,,,,,,,,,,,0,0,0,2,0,8,8,8,,,,,,,,,,,,,702.4196786382236,,,,,AMP_prac,left,1.0005349721759558,,,,,,,,,,,,,,,,,,,,,3,,,left,0.8171979452017695,,,,,,,,,,,,,,1031,2019_Jun_07_1256,mf_amp_cond1,3.0.7,59.98212803873607,
support,,&&&&&&&,images/symbols/symbol_22.png,condition_files/AMP_rep3.csv,left,loyalty.virtue,,,,,,,,,,,,,,,,,,,,,0,0,0,2,0,9,9,9,,,,,,,,,,,,,703.4365905590821,,,,,AMP_prac,left,1.0005349721759558,,,,,,,,,,,,,,,,,,,,,3,,,right,0.799069186905399,,,,,,,,,,,,,,1031,2019_Jun_07_1256,mf_amp_cond1,3.0.7,59.98212803873607,
sexual,,&&&&&&,images/symbols/symbol_66.png,condition_files/AMP_rep3.csv,right,sanctity.vice,,,,,,,,,,,,,,,,,,,,,0,0,0,2,0,10,10,10,,,,,,,,,,,,,704.2534498169553,,,,,AMP_prac,left,1.0005349721759558,,,,,,,,,,,,,,,,,,,,,3,,,left,0.5992865755688399,,,,,,,,,,,,,,1031,2019_Jun_07_1256,mf_amp_cond1,3.0.7,59.98212803873607,
army,,&&&&,images/symbols/symbol_21.png,condition_files/AMP_rep3.csv,right,loyalty.vice,,,,,,,,,,,,,,,,,,,,,0,0,0,2,0,11,11,11,,,,,,,,,,,,,704.9703359836712,,,,,AMP_prac,left,1.0005349721759558,,,,,,,,,,,,,,,,,,,,,3,,,left,0.49942702148109674,,,,,,,,,,,,,,1031,2019_Jun_07_1256,mf_amp_cond1,3.0.7,59.98212803873607,
thinx,,&&&&&,images/symbols/symbol_16.png,condition_files/AMP_rep3.csv,None,nonword,,,,,,,,,,,,,,,,,,,,,0,0,0,2,0,12,12,12,,,,,,,,,,,,,705.7871782428119,,,,,AMP_prac,left,1.0005349721759558,,,,,,,,,,,,,,,,,,,,,3,,,left,0.5994437313638628,,,,,,,,,,,,,,1031,2019_Jun_07_1256,mf_amp_cond1,3.0.7,59.98212803873607,
abuse,,&&&&&,images/symbols/symbol_44.png,condition_files/AMP_rep3.csv,right,sanctity.vice,,,,,,,,,,,,,,,,,,,,,0,0,0,2,0,13,13,13,,,,,,,,,,,,,706.6540776074398,,,,,AMP_prac,left,1.0005349721759558,,,,,,,,,,,,,,,,,,,,,3,,,right,0.6491002491675317,,,,,,,,,,,,,,1031,2019_Jun_07_1256,mf_amp_cond1,3.0.7,59.98212803873607,
promised,,&&&&&&&&,images/symbols/symbol_65.png,condition_files/AMP_rep3.csv,left,loyalty.virtue,,,,,,,,,,,,,,,,,,,,,0,0,0,2,0,14,14,14,,,,,,,,,,,,,707.5209695952944,,,,,AMP_prac,left,1.0005349721759558,,,,,,,,,,,,,,,,,,,,,3,,,left,0.6489539979957044,,,,,,,,,,,,,,1031,2019_Jun_07_1256,mf_amp_cond1,3.0.7,59.98212803873607,
promote,,&&&&&&&,images/symbols/symbol_14.png,condition_files/AMP_rep3.csv,left,sanctity.virtue,,,,,,,,,,,,,,,,,,,,,0,0,0,2,0,15,15,15,,,,,,,,,,,,,708.237887193216,,,,,AMP_prac,left,1.0005349721759558,,,,,,,,,,,,,,,,,,,,,3,,,right,0.4991637049242854,,,,,,,,,,,,,,1031,2019_Jun_07_1256,mf_amp_cond1,3.0.7,59.98212803873607,
winze,,&&&&&,images/symbols/symbol_32.png,condition_files/AMP_rep3.csv,None,nonword,,,,,,,,,,,,,,,,,,,,,0,0,0,2,0,16,16,16,,,,,,,,,,,,,708.9213610102888,,,,,AMP_prac,left,1.0005349721759558,,,,,,,,,,,,,,,,,,,,,3,,,left,0.46580363367684186,,,,,,,,,,,,,,1031,2019_Jun_07_1256,mf_amp_cond1,3.0.7,59.98212803873607,
peaceful,,&&&&&&&&,images/symbols/symbol_80.png,condition_files/AMP_rep3.csv,left,authority.virtue,,,,,,,,,,,,,,,,,,,,,0,0,0,2,0,17,17,17,,,,,,,,,,,,,709.6882234592922,,,,,AMP_prac,left,1.0005349721759558,,,,,,,,,,,,,,,,,,,,,3,,,left,0.5495665539056063,,,,,,,,,,,,,,1031,2019_Jun_07_1256,mf_amp_cond1,3.0.7,59.98212803873607,
good,,&&&&,images/symbols/symbol_17.png,condition_files/AMP_rep3.csv,left,care.virtue,,,,,,,,,,,,,,,,,,,,,0,0,0,2,0,18,18,18,,,,,,,,,,,,,710.4551029065624,,,,,AMP_prac,left,1.0005349721759558,,,,,,,,,,,,,,,,,,,,,3,,,right,0.5491505712270737,,,,,,,,,,,,,,1031,2019_Jun_07_1256,mf_amp_cond1,3.0.7,59.98212803873607,
forced,,&&&&&&,images/symbols/symbol_40.png,condition_files/AMP_rep3.csv,right,fairness.vice,,,,,,,,,,,,,,,,,,,,,0,0,0,2,0,19,19,19,,,,,,,,,,,,,711.1386197011452,,,,,AMP_prac,left,1.0005349721759558,,,,,,,,,,,,,,,,,,,,,3,,,left,0.4657507138326764,,,,,,,,,,,,,,1031,2019_Jun_07_1256,mf_amp_cond1,3.0.7,59.98212803873607,
perfect,,&&&&&&&,images/symbols/symbol_71.png,condition_files/AMP_rep3.csv,left,sanctity.virtue,,,,,,,,,,,,,,,,,,,,,0,0,0,2,0,20,20,20,,,,,,,,,,,,,712.0221933282446,,,,,AMP_prac,left,1.0005349721759558,,,,,,,,,,,,,,,,,,,,,3,,,right,0.6658165270928293,,,,,,,,,,,,,,1031,2019_Jun_07_1256,mf_amp_cond1,3.0.7,59.98212803873607,
lies,,&&&&,images/symbols/symbol_26.png,condition_files/AMP_rep3.csv,right,fairness.vice,,,,,,,,,,,,,,,,,,,,,0,0,0,2,0,21,21,21,,,,,,,,,,,,,712.7057174993679,,,,,AMP_prac,left,1.0005349721759558,,,,,,,,,,,,,,,,,,,,,3,,,left,0.46573916752822697,,,,,,,,,,,,,,1031,2019_Jun_07_1256,mf_amp_cond1,3.0.7,59.98212803873607,
blamed,,&&&&&&,images/symbols/symbol_4.png,condition_files/AMP_rep3.csv,right,loyalty.vice,,,,,,,,,,,,,,,,,,,,,0,0,0,2,0,22,22,22,,,,,,,,,,,,,713.3225375642069,,,,,AMP_prac,left,1.0005349721759558,,,,,,,,,,,,,,,,,,,,,3,,,left,0.39903570292517543,,,,,,,,,,,,,,1031,2019_Jun_07_1256,mf_amp_cond1,3.0.7,59.98212803873607,
men,,&&&,images/symbols/symbol_24.png,condition_files/AMP_rep3.csv,right,loyalty.vice,,,,,,,,,,,,,,,,,,,,,0,0,0,2,0,23,23,23,,,,,,,,,,,,,714.1560999499634,,,,,AMP_prac,left,1.0005349721759558,,,,,,,,,,,,,,,,,,,,,3,,,right,0.6004113641101867,,,,,,,,,,,,,,1031,2019_Jun_07_1256,mf_amp_cond1,3.0.7,59.98212803873607,
drug,,&&&&,images/symbols/symbol_7.png,condition_files/AMP_rep3.csv,right,sanctity.vice,,,,,,,,,,,,,,,,,,,,,0,0,0,2,0,24,24,24,,,,,,,,,,,,,714.9396818839014,,,,,AMP_prac,left,1.0005349721759558,,,,,,,,,,,,,,,,,,,,,3,,,right,0.5655326517298818,,,,,,,,,,,,,,1031,2019_Jun_07_1256,mf_amp_cond1,3.0.7,59.98212803873607,
safe,,&&&&,images/symbols/symbol_9.png,condition_files/AMP_rep3.csv,left,care.virtue,,,,,,,,,,,,,,,,,,,,,0,0,0,2,0,25,25,25,,,,,,,,,,,,,715.8065527037252,,,,,AMP_prac,left,1.0005349721759558,,,,,,,,,,,,,,,,,,,,,3,,,right,0.649160866625607,,,,,,,,,,,,,,1031,2019_Jun_07_1256,mf_amp_cond1,3.0.7,59.98212803873607,
terrorists,,&&&&&&&&&&,images/symbols/symbol_82.png,condition_files/AMP_rep3.csv,right,fairness.vice,,,,,,,,,,,,,,,,,,,,,0,0,0,2,0,26,26,26,,,,,,,,,,,,,716.723454329418,,,,,AMP_prac,left,1.0005349721759558,,,,,,,,,,,,,,,,,,,,,3,,,left,0.6995508864056319,,,,,,,,,,,,,,1031,2019_Jun_07_1256,mf_amp_cond1,3.0.7,59.98212803873607,
peace,,&&&&&,images/symbols/symbol_11.png,condition_files/AMP_rep3.csv,left,care.virtue,,,,,,,,,,,,,,,,,,,,,0,0,0,2,0,27,27,27,,,,,,,,,,,,,717.7403947953135,,,,,AMP_prac,left,1.0005349721759558,,,,,,,,,,,,,,,,,,,,,3,,,right,0.7990970900282264,,,,,,,,,,,,,,1031,2019_Jun_07_1256,mf_amp_cond1,3.0.7,59.98212803873607,
black,,&&&&&,images/symbols/symbol_37.png,condition_files/AMP_rep3.csv,right,loyalty.vice,,,,,,,,,,,,,,,,,,,,,0,0,0,2,0,28,28,28,,,,,,,,,,,,,718.523938562721,,,,,AMP_prac,left,1.0005349721759558,,,,,,,,,,,,,,,,,,,,,3,,,left,0.565692373784259,,,,,,,,,,,,,,1031,2019_Jun_07_1256,mf_amp_cond1,3.0.7,59.98212803873607,
roossed,,&&&&&&&,images/symbols/symbol_47.png,condition_files/AMP_rep3.csv,None,nonword,,,,,,,,,,,,,,,,,,,,,0,0,0,2,0,29,29,29,,,,,,,,,,,,,719.4075051338878,,,,,AMP_prac,left,1.0005349721759558,,,,,,,,,,,,,,,,,,,,,3,,,right,0.6657302514649928,,,,,,,,,,,,,,1031,2019_Jun_07_1256,mf_amp_cond1,3.0.7,59.98212803873607,
freedom,,&&&&&&&,images/symbols/symbol_55.png,condition_files/AMP_rep3.csv,left,sanctity.virtue,,,,,,,,,,,,,,,,,,,,,0,0,0,2,0,30,30,30,,,,,,,,,,,,,720.3077809268143,,,,,AMP_prac,left,1.0005349721759558,,,,,,,,,,,,,,,,,,,,,3,,,left,0.6671228469349444,,,,,,,,,,,,,,1031,2019_Jun_07_1256,mf_amp_cond1,3.0.7,59.98212803873607,
shypse,,&&&&&&,images/symbols/symbol_39.png,condition_files/AMP_rep3.csv,None,nonword,,,,,,,,,,,,,,,,,,,,,0,0,0,2,0,31,31,31,,,,,,,,,,,,,721.074625415029,,,,,AMP_prac,left,1.0005349721759558,,,,,,,,,,,,,,,,,,,,,3,,,right,0.5489238174632192,,,,,,,,,,,,,,1031,2019_Jun_07_1256,mf_amp_cond1,3.0.7,59.98212803873607,
credit,,&&&&&&,images/symbols/symbol_8.png,condition_files/AMP_rep3.csv,left,fairness.virtue,,,,,,,,,,,,,,,,,,,,,0,0,0,2,0,32,32,32,,,,,,,,,,,,,721.8581714276224,,,,,AMP_prac,left,1.0005349721759558,,,,,,,,,,,,,,,,,,,,,3,,,left,0.5659467100631446,,,,,,,,,,,,,,1031,2019_Jun_07_1256,mf_amp_cond1,3.0.7,59.98212803873607,
hope,,&&&&,images/symbols/symbol_3.png,condition_files/AMP_rep3.csv,left,loyalty.virtue,,,,,,,,,,,,,,,,,,,,,0,0,0,2,0,33,33,33,,,,,,,,,,,,,722.7417428097688,,,,,AMP_prac,left,1.0005349721759558,,,,,,,,,,,,,,,,,,,,,3,,,right,0.6658886903896928,,,,,,,,,,,,,,1031,2019_Jun_07_1256,mf_amp_cond1,3.0.7,59.98212803873607,
suicide,,&&&&&&&,images/symbols/symbol_56.png,condition_files/AMP_rep3.csv,right,care.vice,,,,,,,,,,,,,,,,,,,,,0,0,0,2,0,34,34,34,,,,,,,,,,,,,723.6419967932161,,,,,AMP_prac,left,1.0005349721759558,,,,,,,,,,,,,,,,,,,,,3,,,right,0.6671106594149023,,,,,,,,,,,,,,1031,2019_Jun_07_1256,mf_amp_cond1,3.0.7,59.98212803873607,
gun,,&&&,images/symbols/symbol_68.png,condition_files/AMP_rep3.csv,right,authority.vice,,,,,,,,,,,,,,,,,,,,,0,0,0,2,0,35,35,35,,,,,,,,,,,,,724.5088701790664,,,,,AMP_prac,left,1.0005349721759558,,,,,,,,,,,,,,,,,,,,,3,,,left,0.6488734954036772,,,,,,,,,,,,,,1031,2019_Jun_07_1256,mf_amp_cond1,3.0.7,59.98212803873607,
betrayal,,&&&&&&&&,images/symbols/symbol_61.png,condition_files/AMP_rep3.csv,right,loyalty.vice,,,,,,,,,,,,,,,,,,,,,0,0,0,2,0,36,36,36,,,,,,,,,,,,,725.6758527080528,,,,,AMP_prac,left,1.0005349721759558,,,,,,,,,,,,,,,,,,,,,3,,,left,0.9338206027168781,,,,,,,,,,,,,,1031,2019_Jun_07_1256,mf_amp_cond1,3.0.7,59.98212803873607,
violence,,&&&&&&&&,images/symbols/symbol_74.png,condition_files/AMP_rep3.csv,right,care.vice,,,,,,,,,,,,,,,,,,,,,0,0,0,2,0,37,37,37,,,,,,,,,,,,,726.6094417460263,,,,,AMP_prac,left,1.0005349721759558,,,,,,,,,,,,,,,,,,,,,3,,,left,0.715593317290768,,,,,,,,,,,,,,1031,2019_Jun_07_1256,mf_amp_cond1,3.0.7,59.98212803873607,
terrorist,,&&&&&&&&&,images/symbols/symbol_64.png,condition_files/AMP_rep3.csv,right,loyalty.vice,,,,,,,,,,,,,,,,,,,,,0,0,0,2,0,38,38,38,,,,,,,,,,,,,727.3096340859775,,,,,AMP_prac,left,1.0005349721759558,,,,,,,,,,,,,,,,,,,,,3,,,left,0.4822806492447853,,,,,,,,,,,,,,1031,2019_Jun_07_1256,mf_amp_cond1,3.0.7,59.98212803873607,
unpleasant,,&&&&&&&&&,images/symbols/symbol_34.png,condition_files/AMP_rep3.csv,left,control,,,,,,,,,,,,,,,,,,,,,0,0,0,2,0,39,39,39,,,,,,,,,,,,,728.1598556600511,,,,,AMP_prac,left,1.0005349721759558,,,,,,,,,,,,,,,,,,,,,3,,,right,0.6170644585508853,,,,,,,,,,,,,,1031,2019_Jun_07_1256,mf_amp_cond1,3.0.7,59.98212803873607,
threatened,,&&&&&&&&&&,images/symbols/symbol_60.png,condition_files/AMP_rep3.csv,right,fairness.vice,,,,,,,,,,,,,,,,,,,,,0,0,0,2,0,40,40,40,,,,,,,,,,,,,728.8767892941833,,,,,AMP_prac,left,1.0005349721759558,,,,,,,,,,,,,,,,,,,,,3,,,left,0.49900975613854825,,,,,,,,,,,,,,1031,2019_Jun_07_1256,mf_amp_cond1,3.0.7,59.98212803873607,
integrity,,&&&&&&&&&,images/symbols/symbol_28.png,condition_files/AMP_rep3.csv,left,fairness.virtue,,,,,,,,,,,,,,,,,,,,,0,0,0,2,0,41,41,41,,,,,,,,,,,,,730.110401841579,,,,,AMP_prac,left,1.0005349721759558,,,,,,,,,,,,,,,,,,,,,3,,,left,1.0159834171645343,,,,,,,,,,,,,,1031,2019_Jun_07_1256,mf_amp_cond1,3.0.7,59.98212803873607,
knapps,,&&&&&&,images/symbols/symbol_72.png,condition_files/AMP_rep3.csv,None,nonword,,,,,,,,,,,,,,,,,,,,,0,0,0,2,0,42,42,42,,,,,,,,,,,,,730.9272665516473,,,,,AMP_prac,left,1.0005349721759558,,,,,,,,,,,,,,,,,,,,,3,,,right,0.5990716884844005,,,,,,,,,,,,,,1031,2019_Jun_07_1256,mf_amp_cond1,3.0.7,59.98212803873607,
pleasant,,&&&&&&&,images/symbols/symbol_25.png,condition_files/AMP_rep3.csv,right,control,,,,,,,,,,,,,,,,,,,,,0,0,0,2,0,43,43,43,,,,,,,,,,,,,731.6607993985526,,,,,AMP_prac,left,1.0005349721759558,,,,,,,,,,,,,,,,,,,,,3,,,right,0.5154803574550897,,,,,,,,,,,,,,1031,2019_Jun_07_1256,mf_amp_cond1,3.0.7,59.98212803873607,
strong,,&&&&&&,images/symbols/symbol_38.png,condition_files/AMP_rep3.csv,left,loyalty.virtue,,,,,,,,,,,,,,,,,,,,,0,0,0,2,0,44,44,44,,,,,,,,,,,,,732.4943681985606,,,,,AMP_prac,left,1.0005349721759558,,,,,,,,,,,,,,,,,,,,,3,,,right,0.6158238877542317,,,,,,,,,,,,,,1031,2019_Jun_07_1256,mf_amp_cond1,3.0.7,59.98212803873607,
corruption,,&&&&&&&&&&,images/symbols/symbol_58.png,condition_files/AMP_rep3.csv,right,sanctity.vice,,,,,,,,,,,,,,,,,,,,,0,0,0,2,0,45,45,45,,,,,,,,,,,,,733.2779340962879,,,,,AMP_prac,left,1.0005349721759558,,,,,,,,,,,,,,,,,,,,,3,,,left,0.5658514541573822,,,,,,,,,,,,,,1031,2019_Jun_07_1256,mf_amp_cond1,3.0.7,59.98212803873607,
care,,&&&&,images/symbols/symbol_12.png,condition_files/AMP_rep3.csv,left,care.virtue,,,,,,,,,,,,,,,,,,,,,0,0,0,2,0,46,46,46,,,,,,,,,,,,,734.461556249531,,,,,AMP_prac,left,1.0005349721759558,,,,,,,,,,,,,,,,,,,,,3,,,left,0.9505003178492188,,,,,,,,,,,,,,1031,2019_Jun_07_1256,mf_amp_cond1,3.0.7,59.98212803873607,
promises,,&&&&&&&&,images/symbols/symbol_36.png,condition_files/AMP_rep3.csv,left,fairness.virtue,,,,,,,,,,,,,,,,,,,,,0,0,0,2,0,47,47,47,,,,,,,,,,,,,735.5952005167492,,,,,AMP_prac,left,1.0005349721759558,,,,,,,,,,,,,,,,,,,,,3,,,right,0.9155885705258697,,,,,,,,,,,,,,1031,2019_Jun_07_1256,mf_amp_cond1,3.0.7,59.98212803873607,
gryssed,,&&&&&&&,images/symbols/symbol_10.png,condition_files/AMP_rep3.csv,None,nonword,,,,,,,,,,,,,,,,,,,,,0,0,0,2,0,48,48,48,,,,,,,,,,,,,736.3120995124336,,,,,AMP_prac,left,1.0005349721759558,,,,,,,,,,,,,,,,,,,,,3,,,left,0.4993359353393316,,,,,,,,,,,,,,1031,2019_Jun_07_1256,mf_amp_cond1,3.0.7,59.98212803873607,
rejected,,&&&&&&&&,images/symbols/symbol_43.png,condition_files/AMP_rep3.csv,right,authority.vice,,,,,,,,,,,,,,,,,,,,,0,0,0,2,0,49,49,49,,,,,,,,,,,,,737.1122630189639,,,,,AMP_prac,left,1.0005349721759558,,,,,,,,,,,,,,,,,,,,,3,,,left,0.5824641371145844,,,,,,,,,,,,,,1031,2019_Jun_07_1256,mf_amp_cond1,3.0.7,59.98212803873607,
rebels,,&&&&&&,images/symbols/symbol_53.png,condition_files/AMP_rep3.csv,right,authority.vice,,,,,,,,,,,,,,,,,,,,,0,0,0,2,0,50,50,50,,,,,,,,,,,,,737.9124890670646,,,,,AMP_prac,left,1.0005349721759558,,,,,,,,,,,,,,,,,,,,,3,,,left,0.5825626002624631,,,,,,,,,,,,,,1031,2019_Jun_07_1256,mf_amp_cond1,3.0.7,59.98212803873607,
powerful,,&&&&&&&&,images/symbols/symbol_54.png,condition_files/AMP_rep3.csv,left,authority.virtue,,,,,,,,,,,,,,,,,,,,,0,0,0,2,0,51,51,51,,,,,,,,,,,,,738.5960061822552,,,,,AMP_prac,left,1.0005349721759558,,,,,,,,,,,,,,,,,,,,,3,,,left,0.4655964442063123,,,,,,,,,,,,,,1031,2019_Jun_07_1256,mf_amp_cond1,3.0.7,59.98212803873607,
restore,,&&&&&&&,images/symbols/symbol_75.png,condition_files/AMP_rep3.csv,left,care.virtue,,,,,,,,,,,,,,,,,,,,,0,0,0,2,0,52,52,52,,,,,,,,,,,,,739.9797130713705,,,,,AMP_prac,left,1.0005349721759558,,,,,,,,,,,,,,,,,,,,,3,,,right,1.1660097648855299,,,,,,,,,,,,,,1031,2019_Jun_07_1256,mf_amp_cond1,3.0.7,59.98212803873607,
improve,,&&&&&&&,images/symbols/symbol_42.png,condition_files/AMP_rep3.csv,left,care.virtue,,,,,,,,,,,,,,,,,,,,,0,0,0,2,0,53,53,53,,,,,,,,,,,,,740.7632581216749,,,,,AMP_prac,left,1.0005349721759558,,,,,,,,,,,,,,,,,,,,,3,,,left,0.5656683193519711,,,,,,,,,,,,,,1031,2019_Jun_07_1256,mf_amp_cond1,3.0.7,59.98212803873607,
wraize,,&&&&&&,images/symbols/symbol_29.png,condition_files/AMP_rep3.csv,None,nonword,,,,,,,,,,,,,,,,,,,,,0,0,0,2,0,54,54,54,,,,,,,,,,,,,741.4300993706565,,,,,AMP_prac,left,1.0005349721759558,,,,,,,,,,,,,,,,,,,,,3,,,left,0.4489151258021593,,,,,,,,,,,,,,1031,2019_Jun_07_1256,mf_amp_cond1,3.0.7,59.98212803873607,
died,,&&&&,images/symbols/symbol_62.png,condition_files/AMP_rep3.csv,right,care.vice,,,,,,,,,,,,,,,,,,,,,0,0,0,2,0,55,55,55,,,,,,,,,,,,,742.347028899705,,,,,AMP_prac,left,1.0005349721759558,,,,,,,,,,,,,,,,,,,,,3,,,left,0.6837839595973492,,,,,,,,,,,,,,1031,2019_Jun_07_1256,mf_amp_cond1,3.0.7,59.98212803873607,
fear,,&&&&,images/symbols/symbol_13.png,condition_files/AMP_rep3.csv,right,sanctity.vice,,,,,,,,,,,,,,,,,,,,,0,0,0,2,0,56,56,56,,,,,,,,,,,,,743.1305486126803,,,,,AMP_prac,left,1.0005349721759558,,,,,,,,,,,,,,,,,,,,,3,,,right,0.56542873615399,,,,,,,,,,,,,,1031,2019_Jun_07_1256,mf_amp_cond1,3.0.7,59.98212803873607,
protect,,&&&&&&&,images/symbols/symbol_45.png,condition_files/AMP_rep3.csv,left,fairness.virtue,,,,,,,,,,,,,,,,,,,,,0,0,0,2,0,57,57,57,,,,,,,,,,,,,744.0474707649555,,,,,AMP_prac,left,1.0005349721759558,,,,,,,,,,,,,,,,,,,,,3,,,right,0.6991307344287634,,,,,,,,,,,,,,1031,2019_Jun_07_1256,mf_amp_cond1,3.0.7,59.98212803873607,
bluphte,,&&&&&&&,images/symbols/symbol_49.png,condition_files/AMP_rep3.csv,None,nonword,,,,,,,,,,,,,,,,,,,,,0,0,0,2,0,58,58,58,,,,,,,,,,,,,745.0143935745582,,,,,AMP_prac,left,1.0005349721759558,,,,,,,,,,,,,,,,,,,,,3,,,left,0.7337807684671134,,,,,,,,,,,,,,1031,2019_Jun_07_1256,mf_amp_cond1,3.0.7,59.98212803873607,
useful,,&&&&&&,images/symbols/symbol_41.png,condition_files/AMP_rep3.csv,left,authority.virtue,,,,,,,,,,,,,,,,,,,,,0,0,0,2,0,59,59,59,,,,,,,,,,,,,745.8646273361519,,,,,AMP_prac,left,1.0005349721759558,,,,,,,,,,,,,,,,,,,,,3,,,right,0.6325132243800908,,,,,,,,,,,,,,1031,2019_Jun_07_1256,mf_amp_cond1,3.0.7,59.98212803873607,
friends,,&&&&&&&,images/symbols/symbol_5.png,condition_files/AMP_rep3.csv,left,loyalty.virtue,,,,,,,,,,,,,,,,,,,,,0,0,0,2,0,60,60,60,,,,,,,,,,,,,746.6315164056141,,,,,AMP_prac,left,1.0005349721759558,,,,,,,,,,,,,,,,,,,,,3,,,left,0.5491290825884789,,,,,,,,,,,,,,1031,2019_Jun_07_1256,mf_amp_cond1,3.0.7,59.98212803873607,
celebrated,,&&&&&&&&&&,images/symbols/symbol_52.png,condition_files/AMP_rep3.csv,left,authority.virtue,,,,,,,,,,,,,,,,,,,,,0,0,0,2,0,61,61,61,,,,,,,,,,,,,747.4817302820738,,,,,AMP_prac,left,1.0005349721759558,,,,,,,,,,,,,,,,,,,,,3,,,left,0.6170878717675805,,,,,,,,,,,,,,1031,2019_Jun_07_1256,mf_amp_cond1,3.0.7,59.98212803873607,
honored,,&&&&&&&,images/symbols/symbol_69.png,condition_files/AMP_rep3.csv,left,authority.virtue,,,,,,,,,,,,,,,,,,,,,0,0,0,2,0,62,62,62,,,,,,,,,,,,,748.148568644654,,,,,AMP_prac,left,1.0005349721759558,,,,,,,,,,,,,,,,,,,,,3,,,left,0.4487448197323829,,,,,,,,,,,,,,1031,2019_Jun_07_1256,mf_amp_cond1,3.0.7,59.98212803873607,
respect,,&&&&&&&,images/symbols/symbol_73.png,condition_files/AMP_rep3.csv,left,sanctity.virtue,,,,,,,,,,,,,,,,,,,,,0,0,0,2,0,63,63,63,,,,,,,,,,,,,748.898772225948,,,,,AMP_prac,left,1.0005349721759558,,,,,,,,,,,,,,,,,,,,,3,,,left,0.5324192193802446,,,,,,,,,,,,,,1031,2019_Jun_07_1256,mf_amp_cond1,3.0.7,59.98212803873607,
scandal,,&&&&&&&,images/symbols/symbol_63.png,condition_files/AMP_rep3.csv,right,sanctity.vice,,,,,,,,,,,,,,,,,,,,,0,0,0,2,0,64,64,64,,,,,,,,,,,,,749.6823413306847,,,,,AMP_prac,left,1.0005349721759558,,,,,,,,,,,,,,,,,,,,,3,,,left,0.5659986678510904,,,,,,,,,,,,,,1031,2019_Jun_07_1256,mf_amp_cond1,3.0.7,59.98212803873607,
civilians,,&&&&&&&&&,images/symbols/symbol_76.png,condition_files/AMP_rep3.csv,right,care.vice,,,,,,,,,,,,,,,,,,,,,0,0,0,2,0,65,65,65,,,,,,,,,,,,,750.5992413528729,,,,,AMP_prac,left,1.0005349721759558,,,,,,,,,,,,,,,,,,,,,3,,,left,0.6994081628508866,,,,,,,,,,,,,,1031,2019_Jun_07_1256,mf_amp_cond1,3.0.7,59.98212803873607,
intelligence,,&&&&&&&&&&&&,images/symbols/symbol_2.png,condition_files/AMP_rep3.csv,left,loyalty.virtue,,,,,,,,,,,,,,,,,,,,,0,0,0,2,0,66,66,66,,,,,,,,,,,,,751.5328233349137,,,,,AMP_prac,left,1.0005349721759558,,,,,,,,,,,,,,,,,,,,,3,,,right,0.7159570213407278,,,,,,,,,,,,,,1031,2019_Jun_07_1256,mf_amp_cond1,3.0.7,59.98212803873607,
ensure,,&&&&&&,images/symbols/symbol_59.png,condition_files/AMP_rep3.csv,left,fairness.virtue,,,,,,,,,,,,,,,,,,,,,0,0,0,2,0,67,67,67,,,,,,,,,,,,,752.2497104639187,,,,,AMP_prac,left,1.0005349721759558,,,,,,,,,,,,,,,,,,,,,3,,,right,0.49911078508011997,,,,,,,,,,,,,,1031,2019_Jun_07_1256,mf_amp_cond1,3.0.7,59.98212803873607,
trust,,&&&&&,images/symbols/symbol_1.png,condition_files/AMP_rep3.csv,left,authority.virtue,,,,,,,,,,,,,,,,,,,,,0,0,0,2,0,68,68,68,,,,,,,,,,,,,753.1665899595246,,,,,AMP_prac,left,1.0005349721759558,,,,,,,,,,,,,,,,,,,,,3,,,left,0.6990149519406259,,,,,,,,,,,,,,1031,2019_Jun_07_1256,mf_amp_cond1,3.0.7,59.98212803873607,
win,,&&&,images/symbols/symbol_27.png,condition_files/AMP_rep3.csv,left,fairness.virtue,,,,,,,,,,,,,,,,,,,,,0,0,0,2,0,69,69,69,,,,,,,,,,,,,754.4502605742309,,,,,AMP_prac,left,1.0005349721759558,,,,,,,,,,,,,,,,,,,,,3,,,right,1.0659010063391179,,,,,,,,,,,,,,1031,2019_Jun_07_1256,mf_amp_cond1,3.0.7,59.98212803873607,
faith,,&&&&&,images/symbols/symbol_15.png,condition_files/AMP_rep3.csv,left,sanctity.virtue,,,,,,,,,,,,,,,,,,,,,0,0,0,2,0,70,70,70,,,,,,,,,,,,,755.2171342486981,,,,,AMP_prac,left,1.0005349721759558,,,,,,,,,,,,,,,,,,,,,3,,,left,0.5491047075483948,,,,,,,,,,,,,,1031,2019_Jun_07_1256,mf_amp_cond1,3.0.7,59.98212803873607,
conspiracy,,&&&&&&&&&&,images/symbols/symbol_57.png,condition_files/AMP_rep3.csv,right,sanctity.vice,,,,,,,,,,,,,,,,,,,,,0,0,0,2,0,71,71,71,,,,,,,,,,,,,756.3341334394645,,,,,AMP_prac,left,1.0005349721759558,,,,,,,,,,,,,,,,,,,,,3,,,left,0.8992282992694527,,,,,,,,,,,,,,1031,2019_Jun_07_1256,mf_amp_cond1,3.0.7,59.98212803873607,
clorze,,&&&&&&,images/symbols/symbol_30.png,condition_files/AMP_rep3.csv,None,nonword,,,,,,,,,,,,,,,,,,,,,0,0,0,2,0,72,72,72,,,,,,,,,,,,,757.0676467218436,,,,,AMP_prac,left,1.0005349721759558,,,,,,,,,,,,,,,,,,,,,3,,,right,0.5158392505254596,,,,,,,,,,,,,,1031,2019_Jun_07_1256,mf_amp_cond1,3.0.7,59.98212803873607,
loyalty,,&&&&&&&,images/symbols/symbol_18.png,condition_files/AMP_rep3.csv,left,loyalty.virtue,,,,,,,,,,,,,,,,,,,,,0,0,0,2,0,73,73,73,,,,,,,,,,,,,757.7845255120192,,,,,AMP_prac,left,1.0005349721759558,,,,,,,,,,,,,,,,,,,,,3,,,right,0.4837319378275424,,,,,,,,,,,,,,1031,2019_Jun_07_1256,mf_amp_cond1,3.0.7,59.98212803873607,
torture,,&&&&&&&,images/symbols/symbol_77.png,condition_files/AMP_rep3.csv,right,care.vice,,,,,,,,,,,,,,,,,,,,,0,0,0,2,0,74,74,74,,,,,,,,,,,,,758.6013828453142,,,,,AMP_prac,left,1.0005349721759558,,,,,,,,,,,,,,,,,,,,,3,,,left,0.5984953425358981,,,,,,,,,,,,,,1031,2019_Jun_07_1256,mf_amp_cond1,3.0.7,59.98212803873607,
police,,&&&&&&,images/symbols/symbol_51.png,condition_files/AMP_rep3.csv,right,authority.vice,,,,,,,,,,,,,,,,,,,,,0,0,0,2,0,75,75,75,,,,,,,,,,,,,759.4349327227101,,,,,AMP_prac,left,1.0005349721759558,,,,,,,,,,,,,,,,,,,,,3,,,left,0.6163020911626518,,,,,,,,,,,,,,1031,2019_Jun_07_1256,mf_amp_cond1,3.0.7,59.98212803873607,
injured,,&&&&&&&,images/symbols/symbol_48.png,condition_files/AMP_rep3.csv,right,care.vice,,,,,,,,,,,,,,,,,,,,,0,0,0,2,0,76,76,76,,,,,,,,,,,,,760.6519787716679,,,,,AMP_prac,left,1.0005349721759558,,,,,,,,,,,,,,,,,,,,,3,,,left,0.9992276900447905,,,,,,,,,,,,,,1031,2019_Jun_07_1256,mf_amp_cond1,3.0.7,59.98212803873607,
refused,,&&&&&&&,images/symbols/symbol_78.png,condition_files/AMP_rep3.csv,right,authority.vice,,,,,,,,,,,,,,,,,,,,,0,0,0,2,0,77,77,77,,,,,,,,,,,,,761.4521493341308,,,,,AMP_prac,left,1.0005349721759558,,,,,,,,,,,,,,,,,,,,,3,,,left,0.5823890869505703,,,,,,,,,,,,,,1031,2019_Jun_07_1256,mf_amp_cond1,3.0.7,59.98212803873607,
arrests,,&&&&&&&,images/symbols/symbol_79.png,condition_files/AMP_rep3.csv,right,authority.vice,,,,,,,,,,,,,,,,,,,,,0,0,0,2,0,78,78,78,,,,,,,,,,,,,762.0689931327943,,,,,AMP_prac,left,1.0005349721759558,,,,,,,,,,,,,,,,,,,,,3,,,left,0.39901293138973415,,,,,,,,,,,,,,1031,2019_Jun_07_1256,mf_amp_cond1,3.0.7,59.98212803873607,
actively,,&&&&&&&&,images/symbols/symbol_23.png,condition_files/AMP_rep3.csv,left,authority.virtue,,,,,,,,,,,,,,,,,,,,,0,0,0,2,0,79,79,79,,,,,,,,,,,,,762.8191967140883,,,,,AMP_prac,left,1.0005349721759558,,,,,,,,,,,,,,,,,,,,,3,,,left,0.5322129921987653,,,,,,,,,,,,,,1031,2019_Jun_07_1256,mf_amp_cond1,3.0.7,59.98212803873607,
voter,,&&&&&,images/symbols/symbol_81.png,condition_files/AMP_rep3.csv,right,fairness.vice,,,,,,,,,,,,,,,,,,,,,0,0,0,2,0,80,80,80,,,,,,,,,,,,,763.586061087437,,,,,AMP_prac,left,1.0005349721759558,,,,,,,,,,,,,,,,,,,,,3,,,left,0.5337332368362695,,,,,,,,,,,,,,1031,2019_Jun_07_1256,mf_amp_cond1,3.0.7,59.98212803873607,
hate,,&&&&,images/symbols/symbol_33.png,condition_files/AMP_rep3.csv,right,fairness.vice,,,,,,,,,,,,,,,,,,,,,0,0,0,2,0,81,81,81,,,,,,,,,,,,,764.5363032200839,,,,,AMP_prac,left,1.0005349721759558,,,,,,,,,,,,,,,,,,,,,3,,,right,0.7321896431967616,,,,,,,,,,,,,,1031,2019_Jun_07_1256,mf_amp_cond1,3.0.7,59.98212803873607,
,,,,condition_files/AMP_rep3.csv,,,,,,,,,,,,,,,,,,,,,,,0,0,0,2,,,,,,,,,,,,,,,,,,,,,,,,,,,,,,,,,,,,,,,,,,,,,,,,,,right,4.184806917794049,,,,,,,,,,,,1031,2019_Jun_07_1256,mf_amp_cond1,3.0.7,59.98212803873607,
wraughsed,,&&&&&&&&&,images/symbols/symbol_46.png,condition_files/AMP_rep2.csv,None,nonword,,,,,,,,,,,,,,,,,,,,,0,1,1,1,0,0,0,0,,,,,,,,,,,,,769.937933923211,,,,,AMP_prac,left,1.0005349721759558,,,,,,,,,,,,,,,,,,,,,3,,,right,0.9658445264212787,,,,,,,,,,,,,,1031,2019_Jun_07_1256,mf_amp_cond1,3.0.7,59.98212803873607,
strength,,&&&&&&&&,images/symbols/symbol_67.png,condition_files/AMP_rep2.csv,left,sanctity.virtue,,,,,,,,,,,,,,,,,,,,,0,1,1,1,0,1,1,1,,,,,,,,,,,,,770.6046132049523,,,,,AMP_prac,left,1.0005349721759558,,,,,,,,,,,,,,,,,,,,,3,,,left,0.4336982455570251,,,,,,,,,,,,,,1031,2019_Jun_07_1256,mf_amp_cond1,3.0.7,59.98212803873607,
increase,,&&&&&&&&,images/symbols/symbol_6.png,condition_files/AMP_rep2.csv,left,care.virtue,,,,,,,,,,,,,,,,,,,,,0,1,1,1,0,2,2,2,,,,,,,,,,,,,771.2881194155198,,,,,AMP_prac,left,1.0005349721759558,,,,,,,,,,,,,,,,,,,,,3,,,right,0.450364489806816,,,,,,,,,,,,,,1031,2019_Jun_07_1256,mf_amp_cond1,3.0.7,59.98212803873607,
interests,,&&&&&&&&&,images/symbols/symbol_35.png,condition_files/AMP_rep2.csv,left,fairness.virtue,,,,,,,,,,,,,,,,,,,,,0,1,1,1,0,3,3,3,,,,,,,,,,,,,772.271735089831,,,,,AMP_prac,left,1.0005349721759558,,,,,,,,,,,,,,,,,,,,,3,,,right,0.7653236021287739,,,,,,,,,,,,,,1031,2019_Jun_07_1256,mf_amp_cond1,3.0.7,59.98212803873607,
prosecution,,&&&&&&&&&&&,images/symbols/symbol_50.png,condition_files/AMP_rep2.csv,right,authority.vice,,,,,,,,,,,,,,,,,,,,,0,1,1,1,0,4,4,4,,,,,,,,,,,,,773.0552705184091,,,,,AMP_prac,left,1.0005349721759558,,,,,,,,,,,,,,,,,,,,,3,,,left,0.5658030244521797,,,,,,,,,,,,,,1031,2019_Jun_07_1256,mf_amp_cond1,3.0.7,59.98212803873607,
ban,,&&&,images/symbols/symbol_20.png,condition_files/AMP_rep2.csv,right,loyalty.vice,,,,,,,,,,,,,,,,,,,,,0,1,1,1,0,5,5,5,,,,,,,,,,,,,773.9888464068063,,,,,AMP_prac,left,1.0005349721759558,,,,,,,,,,,,,,,,,,,,,3,,,right,0.7162245074287057,,,,,,,,,,,,,,1031,2019_Jun_07_1256,mf_amp_cond1,3.0.7,59.98212803873607,
charges,,&&&&&&&,images/symbols/symbol_19.png,condition_files/AMP_rep2.csv,right,fairness.vice,,,,,,,,,,,,,,,,,,,,,0,1,1,1,0,6,6,6,,,,,,,,,,,,,774.8390929976013,,,,,AMP_prac,left,1.0005349721759558,,,,,,,,,,,,,,,,,,,,,3,,,left,0.6324548521079123,,,,,,,,,,,,,,1031,2019_Jun_07_1256,mf_amp_cond1,3.0.7,59.98212803873607,
death,,&&&&&,images/symbols/symbol_70.png,condition_files/AMP_rep2.csv,right,care.vice,,,,,,,,,,,,,,,,,,,,,0,1,1,1,0,7,7,7,,,,,,,,,,,,,775.6226287467871,,,,,AMP_prac,left,1.0005349721759558,,,,,,,,,,,,,,,,,,,,,3,,,right,0.5504007642157376,,,,,,,,,,,,,,1031,2019_Jun_07_1256,mf_amp_cond1,3.0.7,59.98212803873607,
dignity,,&&&&&&&,images/symbols/symbol_31.png,condition_files/AMP_rep2.csv,left,sanctity.virtue,,,,,,,,,,,,,,,,,,,,,0,1,1,1,0,8,8,8,,,,,,,,,,,,,776.3061481069308,,,,,AMP_prac,left,1.0005349721759558,,,,,,,,,,,,,,,,,,,,,3,,,left,0.4503689801786095,,,,,,,,,,,,,,1031,2019_Jun_07_1256,mf_amp_cond1,3.0.7,59.98212803873607,
support,,&&&&&&&,images/symbols/symbol_22.png,condition_files/AMP_rep2.csv,left,loyalty.virtue,,,,,,,,,,,,,,,,,,,,,0,1,1,1,0,9,9,9,,,,,,,,,,,,,777.0730442323256,,,,,AMP_prac,left,1.0005349721759558,,,,,,,,,,,,,,,,,,,,,3,,,right,0.5487297778017819,,,,,,,,,,,,,,1031,2019_Jun_07_1256,mf_amp_cond1,3.0.7,59.98212803873607,
sexual,,&&&&&&,images/symbols/symbol_66.png,condition_files/AMP_rep2.csv,right,sanctity.vice,,,,,,,,,,,,,,,,,,,,,0,1,1,1,0,10,10,10,,,,,,,,,,,,,777.8232195896562,,,,,AMP_prac,left,1.0005349721759558,,,,,,,,,,,,,,,,,,,,,3,,,left,0.5324894585646689,,,,,,,,,,,,,,1031,2019_Jun_07_1256,mf_amp_cond1,3.0.7,59.98212803873607,
army,,&&&&,images/symbols/symbol_21.png,condition_files/AMP_rep2.csv,right,loyalty.vice,,,,,,,,,,,,,,,,,,,,,0,1,1,1,0,11,11,11,,,,,,,,,,,,,778.9068574262783,,,,,AMP_prac,left,1.0005349721759558,,,,,,,,,,,,,,,,,,,,,3,,,left,0.8661026793997735,,,,,,,,,,,,,,1031,2019_Jun_07_1256,mf_amp_cond1,3.0.7,59.98212803873607,
thinx,,&&&&&,images/symbols/symbol_16.png,condition_files/AMP_rep2.csv,None,nonword,,,,,,,,,,,,,,,,,,,,,0,1,1,1,0,12,12,12,,,,,,,,,,,,,779.7403935124166,,,,,AMP_prac,left,1.0005349721759558,,,,,,,,,,,,,,,,,,,,,3,,,right,0.6160936190281063,,,,,,,,,,,,,,1031,2019_Jun_07_1256,mf_amp_cond1,3.0.7,59.98212803873607,
abuse,,&&&&&,images/symbols/symbol_44.png,condition_files/AMP_rep2.csv,right,sanctity.vice,,,,,,,,,,,,,,,,,,,,,0,1,1,1,0,13,13,13,,,,,,,,,,,,,780.573956218781,,,,,AMP_prac,left,1.0005349721759558,,,,,,,,,,,,,,,,,,,,,3,,,left,0.6157154820393771,,,,,,,,,,,,,,1031,2019_Jun_07_1256,mf_amp_cond1,3.0.7,59.98212803873607,
promised,,&&&&&&&&,images/symbols/symbol_65.png,condition_files/AMP_rep2.csv,left,loyalty.virtue,,,,,,,,,,,,,,,,,,,,,0,1,1,1,0,14,14,14,,,,,,,,,,,,,781.4575410713442,,,,,AMP_prac,left,1.0005349721759558,,,,,,,,,,,,,,,,,,,,,3,,,left,0.6657424389850348,,,,,,,,,,,,,,1031,2019_Jun_07_1256,mf_amp_cond1,3.0.7,59.98212803873607,
promote,,&&&&&&&,images/symbols/symbol_14.png,condition_files/AMP_rep2.csv,left,sanctity.virtue,,,,,,,,,,,,,,,,,,,,,0,1,1,1,0,15,15,15,,,,,,,,,,,,,782.2911012119148,,,,,AMP_prac,left,1.0005349721759558,,,,,,,,,,,,,,,,,,,,,3,,,right,0.6157607045024633,,,,,,,,,,,,,,1031,2019_Jun_07_1256,mf_amp_cond1,3.0.7,59.98212803873607,
winze,,&&&&&,images/symbols/symbol_32.png,condition_files/AMP_rep2.csv,None,nonword,,,,,,,,,,,,,,,,,,,,,0,1,1,1,0,16,16,16,,,,,,,,,,,,,783.057969433954,,,,,AMP_prac,left,1.0005349721759558,,,,,,,,,,,,,,,,,,,,,3,,,left,0.5491666074376553,,,,,,,,,,,,,,1031,2019_Jun_07_1256,mf_amp_cond1,3.0.7,59.98212803873607,
peaceful,,&&&&&&&&,images/symbols/symbol_80.png,condition_files/AMP_rep2.csv,left,authority.virtue,,,,,,,,,,,,,,,,,,,,,0,1,1,1,0,17,17,17,,,,,,,,,,,,,783.8081544132438,,,,,AMP_prac,left,1.0005349721759558,,,,,,,,,,,,,,,,,,,,,3,,,left,0.5328839523717761,,,,,,,,,,,,,,1031,2019_Jun_07_1256,mf_amp_cond1,3.0.7,59.98212803873607,
good,,&&&&,images/symbols/symbol_17.png,condition_files/AMP_rep2.csv,left,care.virtue,,,,,,,,,,,,,,,,,,,,,0,1,1,1,0,18,18,18,,,,,,,,,,,,,784.5250556538813,,,,,AMP_prac,left,1.0005349721759558,,,,,,,,,,,,,,,,,,,,,3,,,left,0.49916274286806583,,,,,,,,,,,,,,1031,2019_Jun_07_1256,mf_amp_cond1,3.0.7,59.98212803873607,
forced,,&&&&&&,images/symbols/symbol_40.png,condition_files/AMP_rep2.csv,right,fairness.vice,,,,,,,,,,,,,,,,,,,,,0,1,1,1,0,19,19,19,,,,,,,,,,,,,785.2252072615083,,,,,AMP_prac,left,1.0005349721759558,,,,,,,,,,,,,,,,,,,,,3,,,left,0.4822309366427362,,,,,,,,,,,,,,1031,2019_Jun_07_1256,mf_amp_cond1,3.0.7,59.98212803873607,
perfect,,&&&&&&&,images/symbols/symbol_71.png,condition_files/AMP_rep2.csv,left,sanctity.virtue,,,,,,,,,,,,,,,,,,,,,0,1,1,1,0,20,20,20,,,,,,,,,,,,,786.0420941016637,,,,,AMP_prac,left,1.0005349721759558,,,,,,,,,,,,,,,,,,,,,3,,,left,0.5990495583973825,,,,,,,,,,,,,,1031,2019_Jun_07_1256,mf_amp_cond1,3.0.7,59.98212803873607,
lies,,&&&&,images/symbols/symbol_26.png,condition_files/AMP_rep2.csv,right,fairness.vice,,,,,,,,,,,,,,,,,,,,,0,1,1,1,0,21,21,21,,,,,,,,,,,,,786.7923162851948,,,,,AMP_prac,left,1.0005349721759558,,,,,,,,,,,,,,,,,,,,,3,,,left,0.5323980515822768,,,,,,,,,,,,,,1031,2019_Jun_07_1256,mf_amp_cond1,3.0.7,59.98212803873607,
blamed,,&&&&&&,images/symbols/symbol_4.png,condition_files/AMP_rep2.csv,right,loyalty.vice,,,,,,,,,,,,,,,,,,,,,0,1,1,1,0,22,22,22,,,,,,,,,,,,,787.5758343946654,,,,,AMP_prac,left,1.0005349721759558,,,,,,,,,,,,,,,,,,,,,3,,,left,0.5657035990152508,,,,,,,,,,,,,,1031,2019_Jun_07_1256,mf_amp_cond1,3.0.7,59.98212803873607,
men,,&&&,images/symbols/symbol_24.png,condition_files/AMP_rep2.csv,right,loyalty.vice,,,,,,,,,,,,,,,,,,,,,0,1,1,1,0,23,23,23,,,,,,,,,,,,,788.4427687183488,,,,,AMP_prac,left,1.0005349721759558,,,,,,,,,,,,,,,,,,,,,3,,,right,0.6337903582025319,,,,,,,,,,,,,,1031,2019_Jun_07_1256,mf_amp_cond1,3.0.7,59.98212803873607,
drug,,&&&&,images/symbols/symbol_7.png,condition_files/AMP_rep2.csv,right,sanctity.vice,,,,,,,,,,,,,,,,,,,,,0,1,1,1,0,24,24,24,,,,,,,,,,,,,789.3596549492795,,,,,AMP_prac,left,1.0005349721759558,,,,,,,,,,,,,,,,,,,,,3,,,right,0.6985184669028968,,,,,,,,,,,,,,1031,2019_Jun_07_1256,mf_amp_cond1,3.0.7,59.98212803873607,
safe,,&&&&,images/symbols/symbol_9.png,condition_files/AMP_rep2.csv,left,care.virtue,,,,,,,,,,,,,,,,,,,,,0,1,1,1,0,25,25,25,,,,,,,,,,,,,790.2265507858247,,,,,AMP_prac,left,1.0005349721759558,,,,,,,,,,,,,,,,,,,,,3,,,right,0.6490941552910954,,,,,,,,,,,,,,1031,2019_Jun_07_1256,mf_amp_cond1,3.0.7,59.98212803873607,
terrorists,,&&&&&&&&&&,images/symbols/symbol_82.png,condition_files/AMP_rep2.csv,right,fairness.vice,,,,,,,,,,,,,,,,,,,,,0,1,1,1,0,26,26,26,,,,,,,,,,,,,790.9599514931906,,,,,AMP_prac,left,1.0005349721759558,,,,,,,,,,,,,,,,,,,,,3,,,left,0.515839250292629,,,,,,,,,,,,,,1031,2019_Jun_07_1256,mf_amp_cond1,3.0.7,59.98212803873607,
peace,,&&&&&,images/symbols/symbol_11.png,condition_files/AMP_rep2.csv,left,care.virtue,,,,,,,,,,,,,,,,,,,,,0,1,1,1,0,27,27,27,,,,,,,,,,,,,791.7436270792969,,,,,AMP_prac,left,1.0005349721759558,,,,,,,,,,,,,,,,,,,,,3,,,right,0.5659091849811375,,,,,,,,,,,,,,1031,2019_Jun_07_1256,mf_amp_cond1,3.0.7,59.98212803873607,
black,,&&&&&,images/symbols/symbol_37.png,condition_files/AMP_rep2.csv,right,loyalty.vice,,,,,,,,,,,,,,,,,,,,,0,1,1,1,0,28,28,28,,,,,,,,,,,,,792.4605135668535,,,,,AMP_prac,left,1.0005349721759558,,,,,,,,,,,,,,,,,,,,,3,,,left,0.49902899959124625,,,,,,,,,,,,,,1031,2019_Jun_07_1256,mf_amp_cond1,3.0.7,59.98212803873607,
roossed,,&&&&&&&,images/symbols/symbol_47.png,condition_files/AMP_rep2.csv,None,nonword,,,,,,,,,,,,,,,,,,,,,0,1,1,1,0,29,29,29,,,,,,,,,,,,,793.2773577503394,,,,,AMP_prac,left,1.0005349721759558,,,,,,,,,,,,,,,,,,,,,3,,,right,0.5990569349378347,,,,,,,,,,,,,,1031,2019_Jun_07_1256,mf_amp_cond1,3.0.7,59.98212803873607,
freedom,,&&&&&&&,images/symbols/symbol_55.png,condition_files/AMP_rep2.csv,left,sanctity.virtue,,,,,,,,,,,,,,,,,,,,,0,1,1,1,0,30,30,30,,,,,,,,,,,,,794.0609018385876,,,,,AMP_prac,left,1.0005349721759558,,,,,,,,,,,,,,,,,,,,,3,,,left,0.5503930666018277,,,,,,,,,,,,,,1031,2019_Jun_07_1256,mf_amp_cond1,3.0.7,59.98212803873607,
shypse,,&&&&&&,images/symbols/symbol_39.png,condition_files/AMP_rep2.csv,None,nonword,,,,,,,,,,,,,,,,,,,,,0,1,1,1,0,31,31,31,,,,,,,,,,,,,794.9945030643139,,,,,AMP_prac,left,1.0005349721759558,,,,,,,,,,,,,,,,,,,,,3,,,right,0.715171561576426,,,,,,,,,,,,,,1031,2019_Jun_07_1256,mf_amp_cond1,3.0.7,59.98212803873607,
credit,,&&&&&&,images/symbols/symbol_8.png,condition_files/AMP_rep2.csv,left,fairness.virtue,,,,,,,,,,,,,,,,,,,,,0,1,1,1,0,32,32,32,,,,,,,,,,,,,795.9781062302645,,,,,AMP_prac,left,1.0005349721759558,,,,,,,,,,,,,,,,,,,,,3,,,left,0.7658476696815342,,,,,,,,,,,,,,1031,2019_Jun_07_1256,mf_amp_cond1,3.0.7,59.98212803873607,
hope,,&&&&,images/symbols/symbol_3.png,condition_files/AMP_rep2.csv,left,loyalty.virtue,,,,,,,,,,,,,,,,,,,,,0,1,1,1,0,33,33,33,,,,,,,,,,,,,796.9116692894604,,,,,AMP_prac,left,1.0005349721759558,,,,,,,,,,,,,,,,,,,,,3,,,right,0.7158976870123297,,,,,,,,,,,,,,1031,2019_Jun_07_1256,mf_amp_cond1,3.0.7,59.98212803873607,
suicide,,&&&&&&&,images/symbols/symbol_56.png,condition_files/AMP_rep2.csv,right,care.vice,,,,,,,,,,,,,,,,,,,,,0,1,1,1,0,34,34,34,,,,,,,,,,,,,797.711746199755,,,,,AMP_prac,left,1.0005349721759558,,,,,,,,,,,,,,,,,,,,,3,,,right,0.5669323031324893,,,,,,,,,,,,,,1031,2019_Jun_07_1256,mf_amp_cond1,3.0.7,59.98212803873607,
gun,,&&&,images/symbols/symbol_68.png,condition_files/AMP_rep2.csv,right,authority.vice,,,,,,,,,,,,,,,,,,,,,0,1,1,1,0,35,35,35,,,,,,,,,,,,,798.545476004947,,,,,AMP_prac,left,1.0005349721759558,,,,,,,,,,,,,,,,,,,,,3,,,left,0.6153017445467412,,,,,,,,,,,,,,1031,2019_Jun_07_1256,mf_amp_cond1,3.0.7,59.98212803873607,
betrayal,,&&&&&&&&,images/symbols/symbol_61.png,condition_files/AMP_rep2.csv,right,loyalty.vice,,,,,,,,,,,,,,,,,,,,,0,1,1,1,0,36,36,36,,,,,,,,,,,,,799.4956976110116,,,,,AMP_prac,left,1.0005349721759558,,,,,,,,,,,,,,,,,,,,,3,,,left,0.7171081095002592,,,,,,,,,,,,,,1031,2019_Jun_07_1256,mf_amp_cond1,3.0.7,59.98212803873607,
violence,,&&&&&&&&,images/symbols/symbol_74.png,condition_files/AMP_rep2.csv,right,care.vice,,,,,,,,,,,,,,,,,,,,,0,1,1,1,0,37,37,37,,,,,,,,,,,,,800.1792285174597,,,,,AMP_prac,left,1.0005349721759558,,,,,,,,,,,,,,,,,,,,,3,,,left,0.465199384605512,,,,,,,,,,,,,,1031,2019_Jun_07_1256,mf_amp_cond1,3.0.7,59.98212803873607,
terrorist,,&&&&&&&&&,images/symbols/symbol_64.png,condition_files/AMP_rep2.csv,right,loyalty.vice,,,,,,,,,,,,,,,,,,,,,0,1,1,1,0,38,38,38,,,,,,,,,,,,,800.8794593443163,,,,,AMP_prac,left,1.0005349721759558,,,,,,,,,,,,,,,,,,,,,3,,,left,0.4823605101555586,,,,,,,,,,,,,,1031,2019_Jun_07_1256,mf_amp_cond1,3.0.7,59.98212803873607,
unpleasant,,&&&&&&&&&,images/symbols/symbol_34.png,condition_files/AMP_rep2.csv,left,control,,,,,,,,,,,,,,,,,,,,,0,1,1,1,0,39,39,39,,,,,,,,,,,,,801.7131962054409,,,,,AMP_prac,left,1.0005349721759558,,,,,,,,,,,,,,,,,,,,,3,,,right,0.6158222840167582,,,,,,,,,,,,,,1031,2019_Jun_07_1256,mf_amp_cond1,3.0.7,59.98212803873607,
threatened,,&&&&&&&&&&,images/symbols/symbol_60.png,condition_files/AMP_rep2.csv,right,fairness.vice,,,,,,,,,,,,,,,,,,,,,0,1,1,1,0,40,40,40,,,,,,,,,,,,,802.5298415385187,,,,,AMP_prac,left,1.0005349721759558,,,,,,,,,,,,,,,,,,,,,3,,,left,0.5990328805055469,,,,,,,,,,,,,,1031,2019_Jun_07_1256,mf_amp_cond1,3.0.7,59.98212803873607,
integrity,,&&&&&&&&&,images/symbols/symbol_28.png,condition_files/AMP_rep2.csv,left,fairness.virtue,,,,,,,,,,,,,,,,,,,,,0,1,1,1,0,41,41,41,,,,,,,,,,,,,803.3301679741126,,,,,AMP_prac,left,1.0005349721759558,,,,,,,,,,,,,,,,,,,,,3,,,right,0.5826001253444701,,,,,,,,,,,,,,1031,2019_Jun_07_1256,mf_amp_cond1,3.0.7,59.98212803873607,
knapps,,&&&&&&,images/symbols/symbol_72.png,condition_files/AMP_rep2.csv,None,nonword,,,,,,,,,,,,,,,,,,,,,0,1,1,1,0,42,42,42,,,,,,,,,,,,,804.8137963172048,,,,,AMP_prac,left,1.0005349721759558,,,,,,,,,,,,,,,,,,,,,3,,,left,1.2658770161215216,,,,,,,,,,,,,,1031,2019_Jun_07_1256,mf_amp_cond1,3.0.7,59.98212803873607,
pleasant,,&&&&&&&,images/symbols/symbol_25.png,condition_files/AMP_rep2.csv,right,control,,,,,,,,,,,,,,,,,,,,,0,1,1,1,0,43,43,43,,,,,,,,,,,,,805.5806786513422,,,,,AMP_prac,left,1.0005349721759558,,,,,,,,,,,,,,,,,,,,,3,,,left,0.5487846222240478,,,,,,,,,,,,,,1031,2019_Jun_07_1256,mf_amp_cond1,3.0.7,59.98212803873607,
strong,,&&&&&&,images/symbols/symbol_38.png,condition_files/AMP_rep2.csv,left,loyalty.virtue,,,,,,,,,,,,,,,,,,,,,0,1,1,1,0,44,44,44,,,,,,,,,,,,,806.7312008424196,,,,,AMP_prac,left,1.0005349721759558,,,,,,,,,,,,,,,,,,,,,3,,,right,0.9327990880701691,,,,,,,,,,,,,,1031,2019_Jun_07_1256,mf_amp_cond1,3.0.7,59.98212803873607,
corruption,,&&&&&&&&&&,images/symbols/symbol_58.png,condition_files/AMP_rep2.csv,right,sanctity.vice,,,,,,,,,,,,,,,,,,,,,0,1,1,1,0,45,45,45,,,,,,,,,,,,,807.5478644568939,,,,,AMP_prac,left,1.0005349721759558,,,,,,,,,,,,,,,,,,,,,3,,,left,0.5991579641122371,,,,,,,,,,,,,,1031,2019_Jun_07_1256,mf_amp_cond1,3.0.7,59.98212803873607,
care,,&&&&,images/symbols/symbol_12.png,condition_files/AMP_rep2.csv,left,care.virtue,,,,,,,,,,,,,,,,,,,,,0,1,1,1,0,46,46,46,,,,,,,,,,,,,809.2650216377806,,,,,AMP_prac,left,1.0005349721759558,,,,,,,,,,,,,,,,,,,,,3,,,left,1.4839946131687611,,,,,,,,,,,,,,1031,2019_Jun_07_1256,mf_amp_cond1,3.0.7,59.98212803873607,
promises,,&&&&&&&&,images/symbols/symbol_36.png,condition_files/AMP_rep2.csv,left,fairness.virtue,,,,,,,,,,,,,,,,,,,,,0,1,1,1,0,47,47,47,,,,,,,,,,,,,810.2986075005028,,,,,AMP_prac,left,1.0005349721759558,,,,,,,,,,,,,,,,,,,,,3,,,right,0.8151962896808982,,,,,,,,,,,,,,1031,2019_Jun_07_1256,mf_amp_cond1,3.0.7,59.98212803873607,
gryssed,,&&&&&&&,images/symbols/symbol_10.png,condition_files/AMP_rep2.csv,None,nonword,,,,,,,,,,,,,,,,,,,,,0,1,1,1,0,48,48,48,,,,,,,,,,,,,810.998809783021,,,,,AMP_prac,left,1.0005349721759558,,,,,,,,,,,,,,,,,,,,,3,,,left,0.48257764242589474,,,,,,,,,,,,,,1031,2019_Jun_07_1256,mf_amp_cond1,3.0.7,59.98212803873607,
rejected,,&&&&&&&&,images/symbols/symbol_43.png,condition_files/AMP_rep2.csv,right,authority.vice,,,,,,,,,,,,,,,,,,,,,0,1,1,1,0,49,49,49,,,,,,,,,,,,,811.7990525090136,,,,,AMP_prac,left,1.0005349721759558,,,,,,,,,,,,,,,,,,,,,3,,,left,0.5826055775396526,,,,,,,,,,,,,,1031,2019_Jun_07_1256,mf_amp_cond1,3.0.7,59.98212803873607,
rebels,,&&&&&&,images/symbols/symbol_53.png,condition_files/AMP_rep2.csv,right,authority.vice,,,,,,,,,,,,,,,,,,,,,0,1,1,1,0,50,50,50,,,,,,,,,,,,,812.515865229303,,,,,AMP_prac,left,1.0005349721759558,,,,,,,,,,,,,,,,,,,,,3,,,left,0.48369665793143213,,,,,,,,,,,,,,1031,2019_Jun_07_1256,mf_amp_cond1,3.0.7,59.98212803873607,
powerful,,&&&&&&&&,images/symbols/symbol_54.png,condition_files/AMP_rep2.csv,left,authority.virtue,,,,,,,,,,,,,,,,,,,,,0,1,1,1,0,51,51,51,,,,,,,,,,,,,813.4661314163823,,,,,AMP_prac,left,1.0005349721759558,,,,,,,,,,,,,,,,,,,,,3,,,left,0.7317941871006042,,,,,,,,,,,,,,1031,2019_Jun_07_1256,mf_amp_cond1,3.0.7,59.98212803873607,
restore,,&&&&&&&,images/symbols/symbol_75.png,condition_files/AMP_rep2.csv,left,care.virtue,,,,,,,,,,,,,,,,,,,,,0,1,1,1,0,52,52,52,,,,,,,,,,,,,814.2663423903286,,,,,AMP_prac,left,1.0005349721759558,,,,,,,,,,,,,,,,,,,,,3,,,left,0.5824031990487128,,,,,,,,,,,,,,1031,2019_Jun_07_1256,mf_amp_cond1,3.0.7,59.98212803873607,
improve,,&&&&&&&,images/symbols/symbol_42.png,condition_files/AMP_rep2.csv,left,care.virtue,,,,,,,,,,,,,,,,,,,,,0,1,1,1,0,53,53,53,,,,,,,,,,,,,815.0998951543588,,,,,AMP_prac,left,1.0005349721759558,,,,,,,,,,,,,,,,,,,,,3,,,left,0.6157020116224885,,,,,,,,,,,,,,1031,2019_Jun_07_1256,mf_amp_cond1,3.0.7,59.98212803873607,
wraize,,&&&&&&,images/symbols/symbol_29.png,condition_files/AMP_rep2.csv,None,nonword,,,,,,,,,,,,,,,,,,,,,0,1,1,1,0,54,54,54,,,,,,,,,,,,,816.1501716368366,,,,,AMP_prac,left,1.0005349721759558,,,,,,,,,,,,,,,,,,,,,3,,,left,0.8322445193771273,,,,,,,,,,,,,,1031,2019_Jun_07_1256,mf_amp_cond1,3.0.7,59.98212803873607,
died,,&&&&,images/symbols/symbol_62.png,condition_files/AMP_rep2.csv,right,care.vice,,,,,,,,,,,,,,,,,,,,,0,1,1,1,0,55,55,55,,,,,,,,,,,,,817.3505209723953,,,,,AMP_prac,left,1.0005349721759558,,,,,,,,,,,,,,,,,,,,,3,,,right,0.9671957481186837,,,,,,,,,,,,,,1031,2019_Jun_07_1256,mf_amp_cond1,3.0.7,59.98212803873607,
fear,,&&&&,images/symbols/symbol_13.png,condition_files/AMP_rep2.csv,right,sanctity.vice,,,,,,,,,,,,,,,,,,,,,0,1,1,1,0,56,56,56,,,,,,,,,,,,,818.2507547501009,,,,,AMP_prac,left,1.0005349721759558,,,,,,,,,,,,,,,,,,,,,3,,,right,0.6820436962880194,,,,,,,,,,,,,,1031,2019_Jun_07_1256,mf_amp_cond1,3.0.7,59.98212803873607,
protect,,&&&&&&&,images/symbols/symbol_45.png,condition_files/AMP_rep2.csv,left,fairness.virtue,,,,,,,,,,,,,,,,,,,,,0,1,1,1,0,57,57,57,,,,,,,,,,,,,819.1176444930024,,,,,AMP_prac,left,1.0005349721759558,,,,,,,,,,,,,,,,,,,,,3,,,right,0.6490870993584394,,,,,,,,,,,,,,1031,2019_Jun_07_1256,mf_amp_cond1,3.0.7,59.98212803873607,
bluphte,,&&&&&&&,images/symbols/symbol_49.png,condition_files/AMP_rep2.csv,None,nonword,,,,,,,,,,,,,,,,,,,,,0,1,1,1,0,58,58,58,,,,,,,,,,,,,820.1345971461851,,,,,AMP_prac,left,1.0005349721759558,,,,,,,,,,,,,,,,,,,,,3,,,right,0.783798745367676,,,,,,,,,,,,,,1031,2019_Jun_07_1256,mf_amp_cond1,3.0.7,59.98212803873607,
useful,,&&&&&&,images/symbols/symbol_41.png,condition_files/AMP_rep2.csv,left,authority.virtue,,,,,,,,,,,,,,,,,,,,,0,1,1,1,0,59,59,59,,,,,,,,,,,,,820.8181027153041,,,,,AMP_prac,left,1.0005349721759558,,,,,,,,,,,,,,,,,,,,,3,,,right,0.46586425113491714,,,,,,,,,,,,,,1031,2019_Jun_07_1256,mf_amp_cond1,3.0.7,59.98212803873607,
friends,,&&&&&&&,images/symbols/symbol_5.png,condition_files/AMP_rep2.csv,left,loyalty.virtue,,,,,,,,,,,,,,,,,,,,,0,1,1,1,0,60,60,60,,,,,,,,,,,,,821.6516618935857,,,,,AMP_prac,left,1.0005349721759558,,,,,,,,,,,,,,,,,,,,,3,,,left,0.6156696181278676,,,,,,,,,,,,,,1031,2019_Jun_07_1256,mf_amp_cond1,3.0.7,59.98212803873607,
celebrated,,&&&&&&&&&&,images/symbols/symbol_52.png,condition_files/AMP_rep2.csv,left,authority.virtue,,,,,,,,,,,,,,,,,,,,,0,1,1,1,0,61,61,61,,,,,,,,,,,,,822.3852348311339,,,,,AMP_prac,left,1.0005349721759558,,,,,,,,,,,,,,,,,,,,,3,,,left,0.5004437256138772,,,,,,,,,,,,,,1031,2019_Jun_07_1256,mf_amp_cond1,3.0.7,59.98212803873607,
honored,,&&&&&&&,images/symbols/symbol_69.png,condition_files/AMP_rep2.csv,left,authority.virtue,,,,,,,,,,,,,,,,,,,,,0,1,1,1,0,62,62,62,,,,,,,,,,,,,823.0853877216578,,,,,AMP_prac,left,1.0005349721759558,,,,,,,,,,,,,,,,,,,,,3,,,left,0.4820943071972579,,,,,,,,,,,,,,1031,2019_Jun_07_1256,mf_amp_cond1,3.0.7,59.98212803873607,
respect,,&&&&&&&,images/symbols/symbol_73.png,condition_files/AMP_rep2.csv,left,sanctity.virtue,,,,,,,,,,,,,,,,,,,,,0,1,1,1,0,63,63,63,,,,,,,,,,,,,824.2190095379483,,,,,AMP_prac,left,1.0005349721759558,,,,,,,,,,,,,,,,,,,,,3,,,right,0.915829756995663,,,,,,,,,,,,,,1031,2019_Jun_07_1256,mf_amp_cond1,3.0.7,59.98212803873607,
scandal,,&&&&&&&,images/symbols/symbol_63.png,condition_files/AMP_rep2.csv,right,sanctity.vice,,,,,,,,,,,,,,,,,,,,,0,1,1,1,0,64,64,64,,,,,,,,,,,,,824.9858764770906,,,,,AMP_prac,left,1.0005349721759558,,,,,,,,,,,,,,,,,,,,,3,,,left,0.5490444106981158,,,,,,,,,,,,,,1031,2019_Jun_07_1256,mf_amp_cond1,3.0.7,59.98212803873607,
civilians,,&&&&&&&&&,images/symbols/symbol_76.png,condition_files/AMP_rep2.csv,right,care.vice,,,,,,,,,,,,,,,,,,,,,0,1,1,1,0,65,65,65,,,,,,,,,,,,,825.9361356082372,,,,,AMP_prac,left,1.0005349721759558,,,,,,,,,,,,,,,,,,,,,3,,,left,0.7328471329528838,,,,,,,,,,,,,,1031,2019_Jun_07_1256,mf_amp_cond1,3.0.7,59.98212803873607,
intelligence,,&&&&&&&&&&&&,images/symbols/symbol_2.png,condition_files/AMP_rep2.csv,left,loyalty.virtue,,,,,,,,,,,,,,,,,,,,,0,1,1,1,0,66,66,66,,,,,,,,,,,,,826.6696828878485,,,,,AMP_prac,left,1.0005349721759558,,,,,,,,,,,,,,,,,,,,,3,,,right,0.5159296952188015,,,,,,,,,,,,,,1031,2019_Jun_07_1256,mf_amp_cond1,3.0.7,59.98212803873607,
ensure,,&&&&&&,images/symbols/symbol_59.png,condition_files/AMP_rep2.csv,left,fairness.virtue,,,,,,,,,,,,,,,,,,,,,0,1,1,1,0,67,67,67,,,,,,,,,,,,,827.4865626720712,,,,,AMP_prac,left,1.0005349721759558,,,,,,,,,,,,,,,,,,,,,3,,,right,0.5991377581376582,,,,,,,,,,,,,,1031,2019_Jun_07_1256,mf_amp_cond1,3.0.7,59.98212803873607,
trust,,&&&&&,images/symbols/symbol_1.png,condition_files/AMP_rep2.csv,left,authority.virtue,,,,,,,,,,,,,,,,,,,,,0,1,1,1,0,68,68,68,,,,,,,,,,,,,828.3367909812368,,,,,AMP_prac,left,1.0005349721759558,,,,,,,,,,,,,,,,,,,,,3,,,left,0.6322797352913767,,,,,,,,,,,,,,1031,2019_Jun_07_1256,mf_amp_cond1,3.0.7,59.98212803873607,
win,,&&&,images/symbols/symbol_27.png,condition_files/AMP_rep2.csv,left,fairness.virtue,,,,,,,,,,,,,,,,,,,,,0,1,1,1,0,69,69,69,,,,,,,,,,,,,829.0036290229764,,,,,AMP_prac,left,1.0005349721759558,,,,,,,,,,,,,,,,,,,,,3,,,left,0.4490264179185033,,,,,,,,,,,,,,1031,2019_Jun_07_1256,mf_amp_cond1,3.0.7,59.98212803873607,
faith,,&&&&&,images/symbols/symbol_15.png,condition_files/AMP_rep2.csv,left,sanctity.virtue,,,,,,,,,,,,,,,,,,,,,0,1,1,1,0,70,70,70,,,,,,,,,,,,,829.6538104419596,,,,,AMP_prac,left,1.0005349721759558,,,,,,,,,,,,,,,,,,,,,3,,,left,0.4323835866525769,,,,,,,,,,,,,,1031,2019_Jun_07_1256,mf_amp_cond1,3.0.7,59.98212803873607,
conspiracy,,&&&&&&&&&&,images/symbols/symbol_57.png,condition_files/AMP_rep2.csv,right,sanctity.vice,,,,,,,,,,,,,,,,,,,,,0,1,1,1,0,71,71,71,,,,,,,,,,,,,830.4540210952982,,,,,AMP_prac,left,1.0005349721759558,,,,,,,,,,,,,,,,,,,,,3,,,left,0.5824330265168101,,,,,,,,,,,,,,1031,2019_Jun_07_1256,mf_amp_cond1,3.0.7,59.98212803873607,
clorze,,&&&&&&,images/symbols/symbol_30.png,condition_files/AMP_rep2.csv,None,nonword,,,,,,,,,,,,,,,,,,,,,0,1,1,1,0,72,72,72,,,,,,,,,,,,,831.1208915305324,,,,,AMP_prac,left,1.0005349721759558,,,,,,,,,,,,,,,,,,,,,3,,,right,0.4492207784205675,,,,,,,,,,,,,,1031,2019_Jun_07_1256,mf_amp_cond1,3.0.7,59.98212803873607,
loyalty,,&&&&&&&,images/symbols/symbol_18.png,condition_files/AMP_rep2.csv,left,loyalty.virtue,,,,,,,,,,,,,,,,,,,,,0,1,1,1,0,73,73,73,,,,,,,,,,,,,831.8877472442109,,,,,AMP_prac,left,1.0005349721759558,,,,,,,,,,,,,,,,,,,,,3,,,right,0.5337200870271772,,,,,,,,,,,,,,1031,2019_Jun_07_1256,mf_amp_cond1,3.0.7,59.98212803873607,
torture,,&&&&&&&,images/symbols/symbol_77.png,condition_files/AMP_rep2.csv,right,care.vice,,,,,,,,,,,,,,,,,,,,,0,1,1,1,0,74,74,74,,,,,,,,,,,,,832.954693819629,,,,,AMP_prac,left,1.0005349721759558,,,,,,,,,,,,,,,,,,,,,3,,,right,0.8485733594279736,,,,,,,,,,,,,,1031,2019_Jun_07_1256,mf_amp_cond1,3.0.7,59.98212803873607,
police,,&&&&&&,images/symbols/symbol_51.png,condition_files/AMP_rep2.csv,right,authority.vice,,,,,,,,,,,,,,,,,,,,,0,1,1,1,0,75,75,75,,,,,,,,,,,,,834.0549873167183,,,,,AMP_prac,left,1.0005349721759558,,,,,,,,,,,,,,,,,,,,,3,,,left,0.8830059408210218,,,,,,,,,,,,,,1031,2019_Jun_07_1256,mf_amp_cond1,3.0.7,59.98212803873607,
injured,,&&&&&&&,images/symbols/symbol_48.png,condition_files/AMP_rep2.csv,right,care.vice,,,,,,,,,,,,,,,,,,,,,0,1,1,1,0,76,76,76,,,,,,,,,,,,,834.9552483563311,,,,,AMP_prac,left,1.0005349721759558,,,,,,,,,,,,,,,,,,,,,3,,,right,0.6824096457567066,,,,,,,,,,,,,,1031,2019_Jun_07_1256,mf_amp_cond1,3.0.7,59.98212803873607,
refused,,&&&&&&&,images/symbols/symbol_78.png,condition_files/AMP_rep2.csv,right,authority.vice,,,,,,,,,,,,,,,,,,,,,0,1,1,1,0,77,77,77,,,,,,,,,,,,,835.705442315666,,,,,AMP_prac,left,1.0005349721759558,,,,,,,,,,,,,,,,,,,,,3,,,left,0.532304078573361,,,,,,,,,,,,,,1031,2019_Jun_07_1256,mf_amp_cond1,3.0.7,59.98212803873607,
arrests,,&&&&&&&,images/symbols/symbol_79.png,condition_files/AMP_rep2.csv,right,authority.vice,,,,,,,,,,,,,,,,,,,,,0,1,1,1,0,78,78,78,,,,,,,,,,,,,836.355609622784,,,,,AMP_prac,left,1.0005349721759558,,,,,,,,,,,,,,,,,,,,,3,,,left,0.43236947478726506,,,,,,,,,,,,,,1031,2019_Jun_07_1256,mf_amp_cond1,3.0.7,59.98212803873607,
actively,,&&&&&&&&,images/symbols/symbol_23.png,condition_files/AMP_rep2.csv,left,authority.virtue,,,,,,,,,,,,,,,,,,,,,0,1,1,1,0,79,79,79,,,,,,,,,,,,,837.13916269131,,,,,AMP_prac,left,1.0005349721759558,,,,,,,,,,,,,,,,,,,,,3,,,left,0.5654479798395187,,,,,,,,,,,,,,1031,2019_Jun_07_1256,mf_amp_cond1,3.0.7,59.98212803873607,
voter,,&&&&&,images/symbols/symbol_81.png,condition_files/AMP_rep2.csv,right,fairness.vice,,,,,,,,,,,,,,,,,,,,,0,1,1,1,0,80,80,80,,,,,,,,,,,,,837.8226602422073,,,,,AMP_prac,left,1.0005349721759558,,,,,,,,,,,,,,,,,,,,,3,,,left,0.4503596790600568,,,,,,,,,,,,,,1031,2019_Jun_07_1256,mf_amp_cond1,3.0.7,59.98212803873607,
hate,,&&&&,images/symbols/symbol_33.png,condition_files/AMP_rep2.csv,right,fairness.vice,,,,,,,,,,,,,,,,,,,,,0,1,1,1,0,81,81,81,,,,,,,,,,,,,838.7729235428851,,,,,AMP_prac,left,1.0005349721759558,,,,,,,,,,,,,,,,,,,,,3,,,left,0.7323814376723021,,,,,,,,,,,,,,1031,2019_Jun_07_1256,mf_amp_cond1,3.0.7,59.98212803873607,
,,,,condition_files/AMP_rep2.csv,,,,,,,,,,,,,,,,,,,,,,,0,1,1,1,,,,,,,,,,,,,,,,,,,,,,,,,,,,,,,,,,,,,,,,,,,,,,,,,,right,4.768165882444009,,,,,,,,,,,,1031,2019_Jun_07_1256,mf_amp_cond1,3.0.7,59.98212803873607,
wraughsed,,&&&&&&&&&,images/symbols/symbol_46.png,condition_files/AMP_rep1.csv,None,nonword,,,,,,,,,,,,,,,,,,,,,0,2,2,0,0,0,0,0,,,,,,,,,,,,,844.9747430896387,,,,,AMP_prac,left,1.0005349721759558,,,,,,,,,,,,,,,,,,,,,3,,,right,1.1824463687371463,,,,,,,,,,,,,,1031,2019_Jun_07_1256,mf_amp_cond1,3.0.7,59.98212803873607,
strength,,&&&&&&&&,images/symbols/symbol_67.png,condition_files/AMP_rep1.csv,left,sanctity.virtue,,,,,,,,,,,,,,,,,,,,,0,2,2,0,0,1,1,1,,,,,,,,,,,,,845.641431993572,,,,,AMP_prac,left,1.0005349721759558,,,,,,,,,,,,,,,,,,,,,3,,,left,0.43370177363976836,,,,,,,,,,,,,,1031,2019_Jun_07_1256,mf_amp_cond1,3.0.7,59.98212803873607,
increase,,&&&&&&&&,images/symbols/symbol_6.png,condition_files/AMP_rep1.csv,left,care.virtue,,,,,,,,,,,,,,,,,,,,,0,2,2,0,0,2,2,2,,,,,,,,,,,,,846.7416283104103,,,,,AMP_prac,left,1.0005349721759558,,,,,,,,,,,,,,,,,,,,,3,,,right,0.8670347111765295,,,,,,,,,,,,,,1031,2019_Jun_07_1256,mf_amp_cond1,3.0.7,59.98212803873607,
interests,,&&&&&&&&&,images/symbols/symbol_35.png,condition_files/AMP_rep1.csv,left,fairness.virtue,,,,,,,,,,,,,,,,,,,,,0,2,2,0,0,3,3,3,,,,,,,,,,,,,847.7920279519167,,,,,AMP_prac,left,1.0005349721759558,,,,,,,,,,,,,,,,,,,,,3,,,right,0.8322579900268465,,,,,,,,,,,,,,1031,2019_Jun_07_1256,mf_amp_cond1,3.0.7,59.98212803873607,
prosecution,,&&&&&&&&&&&,images/symbols/symbol_50.png,condition_files/AMP_rep1.csv,right,authority.vice,,,,,,,,,,,,,,,,,,,,,0,2,2,0,0,4,4,4,,,,,,,,,,,,,848.542255587643,,,,,AMP_prac,left,1.0005349721759558,,,,,,,,,,,,,,,,,,,,,3,,,left,0.5325247384607792,,,,,,,,,,,,,,1031,2019_Jun_07_1256,mf_amp_cond1,3.0.7,59.98212803873607,
ban,,&&&,images/symbols/symbol_20.png,condition_files/AMP_rep1.csv,right,loyalty.vice,,,,,,,,,,,,,,,,,,,,,0,2,2,0,0,5,5,5,,,,,,,,,,,,,849.342427112395,,,,,AMP_prac,left,1.0005349721759558,,,,,,,,,,,,,,,,,,,,,3,,,right,0.582972168456763,,,,,,,,,,,,,,1031,2019_Jun_07_1256,mf_amp_cond1,3.0.7,59.98212803873607,
charges,,&&&&&&&,images/symbols/symbol_19.png,condition_files/AMP_rep1.csv,right,fairness.vice,,,,,,,,,,,,,,,,,,,,,0,2,2,0,0,6,6,6,,,,,,,,,,,,,850.0926371081732,,,,,AMP_prac,left,1.0005349721759558,,,,,,,,,,,,,,,,,,,,,3,,,left,0.5324884962756187,,,,,,,,,,,,,,1031,2019_Jun_07_1256,mf_amp_cond1,3.0.7,59.98212803873607,
death,,&&&&&,images/symbols/symbol_70.png,condition_files/AMP_rep1.csv,right,care.vice,,,,,,,,,,,,,,,,,,,,,0,2,2,0,0,7,7,7,,,,,,,,,,,,,850.9095518516842,,,,,AMP_prac,left,1.0005349721759558,,,,,,,,,,,,,,,,,,,,,3,,,right,0.5837707780301571,,,,,,,,,,,,,,1031,2019_Jun_07_1256,mf_amp_cond1,3.0.7,59.98212803873607,
dignity,,&&&&&&&,images/symbols/symbol_31.png,condition_files/AMP_rep1.csv,left,sanctity.virtue,,,,,,,,,,,,,,,,,,,,,0,2,2,0,0,8,8,8,,,,,,,,,,,,,851.6597227188759,,,,,AMP_prac,left,1.0005349721759558,,,,,,,,,,,,,,,,,,,,,3,,,left,0.5170580123085529,,,,,,,,,,,,,,1031,2019_Jun_07_1256,mf_amp_cond1,3.0.7,59.98212803873607,
support,,&&&&&&&,images/symbols/symbol_22.png,condition_files/AMP_rep1.csv,left,loyalty.virtue,,,,,,,,,,,,,,,,,,,,,0,2,2,0,0,9,9,9,,,,,,,,,,,,,852.4099259793293,,,,,AMP_prac,left,1.0005349721759558,,,,,,,,,,,,,,,,,,,,,3,,,right,0.5322171614971012,,,,,,,,,,,,,,1031,2019_Jun_07_1256,mf_amp_cond1,3.0.7,59.98212803873607,
sexual,,&&&&&&,images/symbols/symbol_66.png,condition_files/AMP_rep1.csv,right,sanctity.vice,,,,,,,,,,,,,,,,,,,,,0,2,2,0,0,10,10,10,,,,,,,,,,,,,853.2101369535085,,,,,AMP_prac,left,1.0005349721759558,,,,,,,,,,,,,,,,,,,,,3,,,left,0.5825106424745172,,,,,,,,,,,,,,1031,2019_Jun_07_1256,mf_amp_cond1,3.0.7,59.98212803873607,
army,,&&&&,images/symbols/symbol_21.png,condition_files/AMP_rep1.csv,right,loyalty.vice,,,,,,,,,,,,,,,,,,,,,0,2,2,0,0,11,11,11,,,,,,,,,,,,,854.3437703158706,,,,,AMP_prac,left,1.0005349721759558,,,,,,,,,,,,,,,,,,,,,3,,,left,0.9160090431105345,,,,,,,,,,,,,,1031,2019_Jun_07_1256,mf_amp_cond1,3.0.7,59.98212803873607,
thinx,,&&&&&,images/symbols/symbol_16.png,condition_files/AMP_rep1.csv,None,nonword,,,,,,,,,,,,,,,,,,,,,0,2,2,0,0,12,12,12,,,,,,,,,,,,,855.194004398305,,,,,AMP_prac,left,1.0005349721759558,,,,,,,,,,,,,,,,,,,,,3,,,right,0.6324827554635704,,,,,,,,,,,,,,1031,2019_Jun_07_1256,mf_amp_cond1,3.0.7,59.98212803873607,
abuse,,&&&&&,images/symbols/symbol_44.png,condition_files/AMP_rep1.csv,right,sanctity.vice,,,,,,,,,,,,,,,,,,,,,0,2,2,0,0,13,13,13,,,,,,,,,,,,,856.2943161767907,,,,,AMP_prac,left,1.0005349721759558,,,,,,,,,,,,,,,,,,,,,3,,,right,0.882478024577722,,,,,,,,,,,,,,1031,2019_Jun_07_1256,mf_amp_cond1,3.0.7,59.98212803873607,
promised,,&&&&&&&&,images/symbols/symbol_65.png,condition_files/AMP_rep1.csv,left,loyalty.virtue,,,,,,,,,,,,,,,,,,,,,0,2,2,0,0,14,14,14,,,,,,,,,,,,,857.0778471152298,,,,,AMP_prac,left,1.0005349721759558,,,,,,,,,,,,,,,,,,,,,3,,,left,0.5654277740977705,,,,,,,,,,,,,,1031,2019_Jun_07_1256,mf_amp_cond1,3.0.7,59.98212803873607,
promote,,&&&&&&&,images/symbols/symbol_14.png,condition_files/AMP_rep1.csv,left,sanctity.virtue,,,,,,,,,,,,,,,,,,,,,0,2,2,0,0,15,15,15,,,,,,,,,,,,,857.8447204688564,,,,,AMP_prac,left,1.0005349721759558,,,,,,,,,,,,,,,,,,,,,3,,,right,0.5490302985999733,,,,,,,,,,,,,,1031,2019_Jun_07_1256,mf_amp_cond1,3.0.7,59.98212803873607,
winze,,&&&&&,images/symbols/symbol_32.png,condition_files/AMP_rep1.csv,None,nonword,,,,,,,,,,,,,,,,,,,,,0,2,2,0,0,16,16,16,,,,,,,,,,,,,858.6449545351788,,,,,AMP_prac,left,1.0005349721759558,,,,,,,,,,,,,,,,,,,,,3,,,left,0.5824198767077178,,,,,,,,,,,,,,1031,2019_Jun_07_1256,mf_amp_cond1,3.0.7,59.98212803873607,
peaceful,,&&&&&&&&,images/symbols/symbol_80.png,condition_files/AMP_rep1.csv,left,authority.virtue,,,,,,,,,,,,,,,,,,,,,0,2,2,0,0,17,17,17,,,,,,,,,,,,,859.4450304834172,,,,,AMP_prac,left,1.0005349721759558,,,,,,,,,,,,,,,,,,,,,3,,,right,0.5827547155786306,,,,,,,,,,,,,,1031,2019_Jun_07_1256,mf_amp_cond1,3.0.7,59.98212803873607,
good,,&&&&,images/symbols/symbol_17.png,condition_files/AMP_rep1.csv,left,care.virtue,,,,,,,,,,,,,,,,,,,,,0,2,2,0,0,18,18,18,,,,,,,,,,,,,860.9788939352147,,,,,AMP_prac,left,1.0005349721759558,,,,,,,,,,,,,,,,,,,,,3,,,right,1.3159706841688603,,,,,,,,,,,,,,1031,2019_Jun_07_1256,mf_amp_cond1,3.0.7,59.98212803873607,
forced,,&&&&&&,images/symbols/symbol_40.png,condition_files/AMP_rep1.csv,right,fairness.vice,,,,,,,,,,,,,,,,,,,,,0,2,2,0,0,19,19,19,,,,,,,,,,,,,861.7457971165422,,,,,AMP_prac,left,1.0005349721759558,,,,,,,,,,,,,,,,,,,,,3,,,left,0.5489331183489412,,,,,,,,,,,,,,1031,2019_Jun_07_1256,mf_amp_cond1,3.0.7,59.98212803873607,
perfect,,&&&&&&&,images/symbols/symbol_71.png,condition_files/AMP_rep1.csv,left,sanctity.virtue,,,,,,,,,,,,,,,,,,,,,0,2,2,0,0,20,20,20,,,,,,,,,,,,,863.029471580172,,,,,AMP_prac,left,1.0005349721759558,,,,,,,,,,,,,,,,,,,,,3,,,right,1.0505397990345955,,,,,,,,,,,,,,1031,2019_Jun_07_1256,mf_amp_cond1,3.0.7,59.98212803873607,
lies,,&&&&,images/symbols/symbol_26.png,condition_files/AMP_rep1.csv,right,fairness.vice,,,,,,,,,,,,,,,,,,,,,0,2,2,0,0,21,21,21,,,,,,,,,,,,,864.3964769449085,,,,,AMP_prac,left,1.0005349721759558,,,,,,,,,,,,,,,,,,,,,3,,,left,1.1489195197355002,,,,,,,,,,,,,,1031,2019_Jun_07_1256,mf_amp_cond1,3.0.7,59.98212803873607,
blamed,,&&&&&&,images/symbols/symbol_4.png,condition_files/AMP_rep1.csv,right,loyalty.vice,,,,,,,,,,,,,,,,,,,,,0,2,2,0,0,22,22,22,,,,,,,,,,,,,865.4134225423913,,,,,AMP_prac,left,1.0005349721759558,,,,,,,,,,,,,,,,,,,,,3,,,left,0.7987426868639886,,,,,,,,,,,,,,1031,2019_Jun_07_1256,mf_amp_cond1,3.0.7,59.98212803873607,
men,,&&&,images/symbols/symbol_24.png,condition_files/AMP_rep1.csv,right,loyalty.vice,,,,,,,,,,,,,,,,,,,,,0,2,2,0,0,23,23,23,,,,,,,,,,,,,866.1802891606931,,,,,AMP_prac,left,1.0005349721759558,,,,,,,,,,,,,,,,,,,,,3,,,right,0.5337236151099205,,,,,,,,,,,,,,1031,2019_Jun_07_1256,mf_amp_cond1,3.0.7,59.98212803873607,
drug,,&&&&,images/symbols/symbol_7.png,condition_files/AMP_rep1.csv,right,sanctity.vice,,,,,,,,,,,,,,,,,,,,,0,2,2,0,0,24,24,24,,,,,,,,,,,,,867.0472048823722,,,,,AMP_prac,left,1.0005349721759558,,,,,,,,,,,,,,,,,,,,,3,,,right,0.6489498284645379,,,,,,,,,,,,,,1031,2019_Jun_07_1256,mf_amp_cond1,3.0.7,59.98212803873607,
safe,,&&&&,images/symbols/symbol_9.png,condition_files/AMP_rep1.csv,left,care.virtue,,,,,,,,,,,,,,,,,,,,,0,2,2,0,0,25,25,25,,,,,,,,,,,,,867.8807441757526,,,,,AMP_prac,left,1.0005349721759558,,,,,,,,,,,,,,,,,,,,,3,,,right,0.6156923896633089,,,,,,,,,,,,,,1031,2019_Jun_07_1256,mf_amp_cond1,3.0.7,59.98212803873607,
terrorists,,&&&&&&&&&&,images/symbols/symbol_82.png,condition_files/AMP_rep1.csv,right,fairness.vice,,,,,,,,,,,,,,,,,,,,,0,2,2,0,0,26,26,26,,,,,,,,,,,,,868.5976527933963,,,,,AMP_prac,left,1.0005349721759558,,,,,,,,,,,,,,,,,,,,,3,,,left,0.499475130578503,,,,,,,,,,,,,,1031,2019_Jun_07_1256,mf_amp_cond1,3.0.7,59.98212803873607,
peace,,&&&&&,images/symbols/symbol_11.png,condition_files/AMP_rep1.csv,left,care.virtue,,,,,,,,,,,,,,,,,,,,,0,2,2,0,0,27,27,27,,,,,,,,,,,,,869.5812145855743,,,,,AMP_prac,left,1.0005349721759558,,,,,,,,,,,,,,,,,,,,,3,,,right,0.7659223987720907,,,,,,,,,,,,,,1031,2019_Jun_07_1256,mf_amp_cond1,3.0.7,59.98212803873607,
black,,&&&&&,images/symbols/symbol_37.png,condition_files/AMP_rep1.csv,right,loyalty.vice,,,,,,,,,,,,,,,,,,,,,0,2,2,0,0,28,28,28,,,,,,,,,,,,,871.0816102020908,,,,,AMP_prac,left,1.0005349721759558,,,,,,,,,,,,,,,,,,,,,3,,,left,1.2824970758520067,,,,,,,,,,,,,,1031,2019_Jun_07_1256,mf_amp_cond1,3.0.7,59.98212803873607,
roossed,,&&&&&&&,images/symbols/symbol_47.png,condition_files/AMP_rep1.csv,None,nonword,,,,,,,,,,,,,,,,,,,,,0,2,2,0,0,29,29,29,,,,,,,,,,,,,871.8151446525007,,,,,AMP_prac,left,1.0005349721759558,,,,,,,,,,,,,,,,,,,,,3,,,left,0.5157231471966952,,,,,,,,,,,,,,1031,2019_Jun_07_1256,mf_amp_cond1,3.0.7,59.98212803873607,
freedom,,&&&&&&&,images/symbols/symbol_55.png,condition_files/AMP_rep1.csv,left,sanctity.virtue,,,,,,,,,,,,,,,,,,,,,0,2,2,0,0,30,30,30,,,,,,,,,,,,,872.9987876527011,,,,,AMP_prac,left,1.0005349721759558,,,,,,,,,,,,,,,,,,,,,3,,,right,0.9504974309820682,,,,,,,,,,,,,,1031,2019_Jun_07_1256,mf_amp_cond1,3.0.7,59.98212803873607,
shypse,,&&&&&&,images/symbols/symbol_39.png,condition_files/AMP_rep1.csv,None,nonword,,,,,,,,,,,,,,,,,,,,,0,2,2,0,0,31,31,31,,,,,,,,,,,,,873.9157126916107,,,,,AMP_prac,left,1.0005349721759558,,,,,,,,,,,,,,,,,,,,,3,,,right,0.6986108364071697,,,,,,,,,,,,,,1031,2019_Jun_07_1256,mf_amp_cond1,3.0.7,59.98212803873607,
credit,,&&&&&&,images/symbols/symbol_8.png,condition_files/AMP_rep1.csv,left,fairness.virtue,,,,,,,,,,,,,,,,,,,,,0,2,2,0,0,32,32,32,,,,,,,,,,,,,874.7992709239479,,,,,AMP_prac,left,1.0005349721759558,,,,,,,,,,,,,,,,,,,,,3,,,left,0.6657927930355072,,,,,,,,,,,,,,1031,2019_Jun_07_1256,mf_amp_cond1,3.0.7,59.98212803873607,
hope,,&&&&,images/symbols/symbol_3.png,condition_files/AMP_rep1.csv,left,loyalty.virtue,,,,,,,,,,,,,,,,,,,,,0,2,2,0,0,33,33,33,,,,,,,,,,,,,875.766208807705,,,,,AMP_prac,left,1.0005349721759558,,,,,,,,,,,,,,,,,,,,,3,,,right,0.7492426841054112,,,,,,,,,,,,,,1031,2019_Jun_07_1256,mf_amp_cond1,3.0.7,59.98212803873607,
suicide,,&&&&&&&,images/symbols/symbol_56.png,condition_files/AMP_rep1.csv,right,care.vice,,,,,,,,,,,,,,,,,,,,,0,2,2,0,0,34,34,34,,,,,,,,,,,,,876.4997730858158,,,,,AMP_prac,left,1.0005349721759558,,,,,,,,,,,,,,,,,,,,,3,,,right,0.5004527058918029,,,,,,,,,,,,,,1031,2019_Jun_07_1256,mf_amp_cond1,3.0.7,59.98212803873607,
gun,,&&&,images/symbols/symbol_68.png,condition_files/AMP_rep1.csv,right,authority.vice,,,,,,,,,,,,,,,,,,,,,0,2,2,0,0,35,35,35,,,,,,,,,,,,,877.3833002075553,,,,,AMP_prac,left,1.0005349721759558,,,,,,,,,,,,,,,,,,,,,3,,,left,0.6655086292885244,,,,,,,,,,,,,,1031,2019_Jun_07_1256,mf_amp_cond1,3.0.7,59.98212803873607,
betrayal,,&&&&&&&&,images/symbols/symbol_61.png,condition_files/AMP_rep1.csv,right,loyalty.vice,,,,,,,,,,,,,,,,,,,,,0,2,2,0,0,36,36,36,,,,,,,,,,,,,878.6836595176719,,,,,AMP_prac,left,1.0005349721759558,,,,,,,,,,,,,,,,,,,,,3,,,left,1.0672147031873465,,,,,,,,,,,,,,1031,2019_Jun_07_1256,mf_amp_cond1,3.0.7,59.98212803873607,
violence,,&&&&&&&&,images/symbols/symbol_74.png,condition_files/AMP_rep1.csv,right,care.vice,,,,,,,,,,,,,,,,,,,,,0,2,2,0,0,37,37,37,,,,,,,,,,,,,879.4671898146626,,,,,AMP_prac,left,1.0005349721759558,,,,,,,,,,,,,,,,,,,,,3,,,left,0.5654329059179872,,,,,,,,,,,,,,1031,2019_Jun_07_1256,mf_amp_cond1,3.0.7,59.98212803873607,
terrorist,,&&&&&&&&&,images/symbols/symbol_64.png,condition_files/AMP_rep1.csv,right,loyalty.vice,,,,,,,,,,,,,,,,,,,,,0,2,2,0,0,38,38,38,,,,,,,,,,,,,880.3007428993005,,,,,AMP_prac,left,1.0005349721759558,,,,,,,,,,,,,,,,,,,,,3,,,left,0.6156737874262035,,,,,,,,,,,,,,1031,2019_Jun_07_1256,mf_amp_cond1,3.0.7,59.98212803873607,
unpleasant,,&&&&&&&&&,images/symbols/symbol_34.png,condition_files/AMP_rep1.csv,left,control,,,,,,,,,,,,,,,,,,,,,0,2,2,0,0,39,39,39,,,,,,,,,,,,,881.3510344559327,,,,,AMP_prac,left,1.0005349721759558,,,,,,,,,,,,,,,,,,,,,3,,,right,0.8171309132594615,,,,,,,,,,,,,,1031,2019_Jun_07_1256,mf_amp_cond1,3.0.7,59.98212803873607,
threatened,,&&&&&&&&&&,images/symbols/symbol_60.png,condition_files/AMP_rep1.csv,right,fairness.vice,,,,,,,,,,,,,,,,,,,,,0,2,2,0,0,40,40,40,,,,,,,,,,,,,882.468001574045,,,,,AMP_prac,left,1.0005349721759558,,,,,,,,,,,,,,,,,,,,,3,,,right,0.8987767163198441,,,,,,,,,,,,,,1031,2019_Jun_07_1256,mf_amp_cond1,3.0.7,59.98212803873607,
integrity,,&&&&&&&&&,images/symbols/symbol_28.png,condition_files/AMP_rep1.csv,left,fairness.virtue,,,,,,,,,,,,,,,,,,,,,0,2,2,0,0,41,41,41,,,,,,,,,,,,,883.2848845655099,,,,,AMP_prac,left,1.0005349721759558,,,,,,,,,,,,,,,,,,,,,3,,,left,0.5989247956313193,,,,,,,,,,,,,,1031,2019_Jun_07_1256,mf_amp_cond1,3.0.7,59.98212803873607,
knapps,,&&&&&&,images/symbols/symbol_72.png,condition_files/AMP_rep1.csv,None,nonword,,,,,,,,,,,,,,,,,,,,,0,2,2,0,0,42,42,42,,,,,,,,,,,,,884.1517880996689,,,,,AMP_prac,left,1.0005349721759558,,,,,,,,,,,,,,,,,,,,,3,,,right,0.6489565635565668,,,,,,,,,,,,,,1031,2019_Jun_07_1256,mf_amp_cond1,3.0.7,59.98212803873607,
pleasant,,&&&&&&&,images/symbols/symbol_25.png,condition_files/AMP_rep1.csv,right,control,,,,,,,,,,,,,,,,,,,,,0,2,2,0,0,43,43,43,,,,,,,,,,,,,885.652216430055,,,,,AMP_prac,left,1.0005349721759558,,,,,,,,,,,,,,,,,,,,,3,,,right,1.282303677406162,,,,,,,,,,,,,,1031,2019_Jun_07_1256,mf_amp_cond1,3.0.7,59.98212803873607,
strong,,&&&&&&,images/symbols/symbol_38.png,condition_files/AMP_rep1.csv,left,loyalty.virtue,,,,,,,,,,,,,,,,,,,,,0,2,2,0,0,44,44,44,,,,,,,,,,,,,886.3857508804649,,,,,AMP_prac,left,1.0005349721759558,,,,,,,,,,,,,,,,,,,,,3,,,right,0.5158155167009681,,,,,,,,,,,,,,1031,2019_Jun_07_1256,mf_amp_cond1,3.0.7,59.98212803873607,
corruption,,&&&&&&&&&&,images/symbols/symbol_58.png,condition_files/AMP_rep1.csv,right,sanctity.vice,,,,,,,,,,,,,,,,,,,,,0,2,2,0,0,45,45,45,,,,,,,,,,,,,887.3193537099287,,,,,AMP_prac,left,1.0005349721759558,,,,,,,,,,,,,,,,,,,,,3,,,left,0.7158043552190065,,,,,,,,,,,,,,1031,2019_Jun_07_1256,mf_amp_cond1,3.0.7,59.98212803873607,
care,,&&&&,images/symbols/symbol_12.png,condition_files/AMP_rep1.csv,left,care.virtue,,,,,,,,,,,,,,,,,,,,,0,2,2,0,0,46,46,46,,,,,,,,,,,,,888.4529620555695,,,,,AMP_prac,left,1.0005349721759558,,,,,,,,,,,,,,,,,,,,,3,,,right,0.9005057541653514,,,,,,,,,,,,,,1031,2019_Jun_07_1256,mf_amp_cond1,3.0.7,59.98212803873607,
promises,,&&&&&&&&,images/symbols/symbol_36.png,condition_files/AMP_rep1.csv,left,fairness.virtue,,,,,,,,,,,,,,,,,,,,,0,2,2,0,0,47,47,47,,,,,,,,,,,,,889.2031463934109,,,,,AMP_prac,left,1.0005349721759558,,,,,,,,,,,,,,,,,,,,,3,,,right,0.5320872673764825,,,,,,,,,,,,,,1031,2019_Jun_07_1256,mf_amp_cond1,3.0.7,59.98212803873607,
gryssed,,&&&&&&&,images/symbols/symbol_10.png,condition_files/AMP_rep1.csv,None,nonword,,,,,,,,,,,,,,,,,,,,,0,2,2,0,0,48,48,48,,,,,,,,,,,,,890.0533910598606,,,,,AMP_prac,left,1.0005349721759558,,,,,,,,,,,,,,,,,,,,,3,,,left,0.6326537027489394,,,,,,,,,,,,,,1031,2019_Jun_07_1256,mf_amp_cond1,3.0.7,59.98212803873607,
rejected,,&&&&&&&&,images/symbols/symbol_43.png,condition_files/AMP_rep1.csv,right,authority.vice,,,,,,,,,,,,,,,,,,,,,0,2,2,0,0,49,49,49,,,,,,,,,,,,,891.4037337081973,,,,,AMP_prac,left,1.0005349721759558,,,,,,,,,,,,,,,,,,,,,3,,,right,1.1326397510711104,,,,,,,,,,,,,,1031,2019_Jun_07_1256,mf_amp_cond1,3.0.7,59.98212803873607,
rebels,,&&&&&&,images/symbols/symbol_53.png,condition_files/AMP_rep1.csv,right,authority.vice,,,,,,,,,,,,,,,,,,,,,0,2,2,0,0,50,50,50,,,,,,,,,,,,,892.9041508133523,,,,,AMP_prac,left,1.0005349721759558,,,,,,,,,,,,,,,,,,,,,3,,,left,1.2672471606638283,,,,,,,,,,,,,,1031,2019_Jun_07_1256,mf_amp_cond1,3.0.7,59.98212803873607,
powerful,,&&&&&&&&,images/symbols/symbol_54.png,condition_files/AMP_rep1.csv,left,authority.virtue,,,,,,,,,,,,,,,,,,,,,0,2,2,0,0,51,51,51,,,,,,,,,,,,,893.7377119159792,,,,,AMP_prac,left,1.0005349721759558,,,,,,,,,,,,,,,,,,,,,3,,,left,0.615179868414998,,,,,,,,,,,,,,1031,2019_Jun_07_1256,mf_amp_cond1,3.0.7,59.98212803873607,
restore,,&&&&&&&,images/symbols/symbol_75.png,condition_files/AMP_rep1.csv,left,care.virtue,,,,,,,,,,,,,,,,,,,,,0,2,2,0,0,52,52,52,,,,,,,,,,,,,894.6212813737802,,,,,AMP_prac,left,1.0005349721759558,,,,,,,,,,,,,,,,,,,,,3,,,left,0.6657985663041472,,,,,,,,,,,,,,1031,2019_Jun_07_1256,mf_amp_cond1,3.0.7,59.98212803873607,
improve,,&&&&&&&,images/symbols/symbol_42.png,condition_files/AMP_rep1.csv,left,care.virtue,,,,,,,,,,,,,,,,,,,,,0,2,2,0,0,53,53,53,,,,,,,,,,,,,895.5048360780347,,,,,AMP_prac,left,1.0005349721759558,,,,,,,,,,,,,,,,,,,,,3,,,left,0.6504193984437734,,,,,,,,,,,,,,1031,2019_Jun_07_1256,mf_amp_cond1,3.0.7,59.98212803873607,
wraize,,&&&&&&,images/symbols/symbol_29.png,condition_files/AMP_rep1.csv,None,nonword,,,,,,,,,,,,,,,,,,,,,0,2,2,0,0,54,54,54,,,,,,,,,,,,,896.2383785466664,,,,,AMP_prac,left,1.0005349721759558,,,,,,,,,,,,,,,,,,,,,3,,,left,0.5151965140830725,,,,,,,,,,,,,,1031,2019_Jun_07_1256,mf_amp_cond1,3.0.7,59.98212803873607,
died,,&&&&,images/symbols/symbol_62.png,condition_files/AMP_rep1.csv,right,care.vice,,,,,,,,,,,,,,,,,,,,,0,2,2,0,0,55,55,55,,,,,,,,,,,,,897.3386749301571,,,,,AMP_prac,left,1.0005349721759558,,,,,,,,,,,,,,,,,,,,,3,,,left,0.8671607568394393,,,,,,,,,,,,,,1031,2019_Jun_07_1256,mf_amp_cond1,3.0.7,59.98212803873607,
fear,,&&&&,images/symbols/symbol_13.png,condition_files/AMP_rep1.csv,right,sanctity.vice,,,,,,,,,,,,,,,,,,,,,0,2,2,0,0,56,56,56,,,,,,,,,,,,,898.072206173325,,,,,AMP_prac,left,1.0005349721759558,,,,,,,,,,,,,,,,,,,,,3,,,right,0.5153578396420926,,,,,,,,,,,,,,1031,2019_Jun_07_1256,mf_amp_cond1,3.0.7,59.98212803873607,
protect,,&&&&&&&,images/symbols/symbol_45.png,condition_files/AMP_rep1.csv,left,fairness.virtue,,,,,,,,,,,,,,,,,,,,,0,2,2,0,0,57,57,57,,,,,,,,,,,,,899.2058356869966,,,,,AMP_prac,left,1.0005349721759558,,,,,,,,,,,,,,,,,,,,,3,,,right,0.9158602259121835,,,,,,,,,,,,,,1031,2019_Jun_07_1256,mf_amp_cond1,3.0.7,59.98212803873607,
bluphte,,&&&&&&&,images/symbols/symbol_49.png,condition_files/AMP_rep1.csv,None,nonword,,,,,,,,,,,,,,,,,,,,,0,2,2,0,0,58,58,58,,,,,,,,,,,,,900.0560611099936,,,,,AMP_prac,left,1.0005349721759558,,,,,,,,,,,,,,,,,,,,,3,,,left,0.6170756840147078,,,,,,,,,,,,,,1031,2019_Jun_07_1256,mf_amp_cond1,3.0.7,59.98212803873607,
useful,,&&&&&&,images/symbols/symbol_41.png,condition_files/AMP_rep1.csv,left,authority.virtue,,,,,,,,,,,,,,,,,,,,,0,2,2,0,0,59,59,59,,,,,,,,,,,,,900.9063012860715,,,,,AMP_prac,left,1.0005349721759558,,,,,,,,,,,,,,,,,,,,,3,,,right,0.6325501080136746,,,,,,,,,,,,,,1031,2019_Jun_07_1256,mf_amp_cond1,3.0.7,59.98212803873607,
friends,,&&&&&&&,images/symbols/symbol_5.png,condition_files/AMP_rep1.csv,left,loyalty.virtue,,,,,,,,,,,,,,,,,,,,,0,2,2,0,0,60,60,60,,,,,,,,,,,,,901.8398855132982,,,,,AMP_prac,left,1.0005349721759558,,,,,,,,,,,,,,,,,,,,,3,,,right,0.7158502193633467,,,,,,,,,,,,,,1031,2019_Jun_07_1256,mf_amp_cond1,3.0.7,59.98212803873607,
celebrated,,&&&&&&&&&&,images/symbols/symbol_52.png,condition_files/AMP_rep1.csv,left,authority.virtue,,,,,,,,,,,,,,,,,,,,,0,2,2,0,0,61,61,61,,,,,,,,,,,,,902.606753093889,,,,,AMP_prac,left,1.0005349721759558,,,,,,,,,,,,,,,,,,,,,3,,,left,0.5337358026299626,,,,,,,,,,,,,,1031,2019_Jun_07_1256,mf_amp_cond1,3.0.7,59.98212803873607,
honored,,&&&&&&&,images/symbols/symbol_69.png,condition_files/AMP_rep1.csv,left,authority.virtue,,,,,,,,,,,,,,,,,,,,,0,2,2,0,0,62,62,62,,,,,,,,,,,,,903.2402461383026,,,,,AMP_prac,left,1.0005349721759558,,,,,,,,,,,,,,,,,,,,,3,,,left,0.4153776925522834,,,,,,,,,,,,,,1031,2019_Jun_07_1256,mf_amp_cond1,3.0.7,59.98212803873607,
respect,,&&&&&&&,images/symbols/symbol_73.png,condition_files/AMP_rep1.csv,left,sanctity.virtue,,,,,,,,,,,,,,,,,,,,,0,2,2,0,0,63,63,63,,,,,,,,,,,,,903.8571104635485,,,,,AMP_prac,left,1.0005349721759558,,,,,,,,,,,,,,,,,,,,,3,,,left,0.39903409918770194,,,,,,,,,,,,,,1031,2019_Jun_07_1256,mf_amp_cond1,3.0.7,59.98212803873607,
scandal,,&&&&&&&,images/symbols/symbol_63.png,condition_files/AMP_rep1.csv,right,sanctity.vice,,,,,,,,,,,,,,,,,,,,,0,2,2,0,0,64,64,64,,,,,,,,,,,,,904.7073474326171,,,,,AMP_prac,left,1.0005349721759558,,,,,,,,,,,,,,,,,,,,,3,,,left,0.6326267616823316,,,,,,,,,,,,,,1031,2019_Jun_07_1256,mf_amp_cond1,3.0.7,59.98212803873607,
civilians,,&&&&&&&&&,images/symbols/symbol_76.png,condition_files/AMP_rep1.csv,right,care.vice,,,,,,,,,,,,,,,,,,,,,0,2,2,0,0,65,65,65,,,,,,,,,,,,,905.3075243453495,,,,,AMP_prac,left,1.0005349721759558,,,,,,,,,,,,,,,,,,,,,3,,,left,0.3827379734721035,,,,,,,,,,,,,,1031,2019_Jun_07_1256,mf_amp_cond1,3.0.7,59.98212803873607,
intelligence,,&&&&&&&&&&&&,images/symbols/symbol_2.png,condition_files/AMP_rep1.csv,left,loyalty.virtue,,,,,,,,,,,,,,,,,,,,,0,2,2,0,0,66,66,66,,,,,,,,,,,,,906.3411086048,,,,,AMP_prac,left,1.0005349721759558,,,,,,,,,,,,,,,,,,,,,3,,,right,0.8159711654298007,,,,,,,,,,,,,,1031,2019_Jun_07_1256,mf_amp_cond1,3.0.7,59.98212803873607,
ensure,,&&&&&&,images/symbols/symbol_59.png,condition_files/AMP_rep1.csv,left,fairness.virtue,,,,,,,,,,,,,,,,,,,,,0,2,2,0,0,67,67,67,,,,,,,,,,,,,907.1913276128471,,,,,AMP_prac,left,1.0005349721759558,,,,,,,,,,,,,,,,,,,,,3,,,right,0.6324003285262734,,,,,,,,,,,,,,1031,2019_Jun_07_1256,mf_amp_cond1,3.0.7,59.98212803873607,
trust,,&&&&&,images/symbols/symbol_1.png,condition_files/AMP_rep1.csv,left,authority.virtue,,,,,,,,,,,,,,,,,,,,,0,2,2,0,0,68,68,68,,,,,,,,,,,,,908.1082382190507,,,,,AMP_prac,left,1.0005349721759558,,,,,,,,,,,,,,,,,,,,,3,,,left,0.6989511274732649,,,,,,,,,,,,,,1031,2019_Jun_07_1256,mf_amp_cond1,3.0.7,59.98212803873607,
win,,&&&,images/symbols/symbol_27.png,condition_files/AMP_rep1.csv,left,fairness.virtue,,,,,,,,,,,,,,,,,,,,,0,2,2,0,0,69,69,69,,,,,,,,,,,,,908.7584032809827,,,,,AMP_prac,left,1.0005349721759558,,,,,,,,,,,,,,,,,,,,,3,,,left,0.43233643961139023,,,,,,,,,,,,,,1031,2019_Jun_07_1256,mf_amp_cond1,3.0.7,59.98212803873607,
faith,,&&&&&,images/symbols/symbol_15.png,condition_files/AMP_rep1.csv,left,sanctity.virtue,,,,,,,,,,,,,,,,,,,,,0,2,2,0,0,70,70,70,,,,,,,,,,,,,909.5752856309991,,,,,AMP_prac,left,1.0005349721759558,,,,,,,,,,,,,,,,,,,,,3,,,left,0.5990790652576834,,,,,,,,,,,,,,1031,2019_Jun_07_1256,mf_amp_cond1,3.0.7,59.98212803873607,
conspiracy,,&&&&&&&&&&,images/symbols/symbol_57.png,condition_files/AMP_rep1.csv,right,sanctity.vice,,,,,,,,,,,,,,,,,,,,,0,2,2,0,0,71,71,71,,,,,,,,,,,,,910.942335897591,,,,,AMP_prac,left,1.0005349721759558,,,,,,,,,,,,,,,,,,,,,3,,,left,1.1491825154516846,,,,,,,,,,,,,,1031,2019_Jun_07_1256,mf_amp_cond1,3.0.7,59.98212803873607,
clorze,,&&&&&&,images/symbols/symbol_30.png,condition_files/AMP_rep1.csv,None,nonword,,,,,,,,,,,,,,,,,,,,,0,2,2,0,0,72,72,72,,,,,,,,,,,,,911.842555884039,,,,,AMP_prac,left,1.0005349721759558,,,,,,,,,,,,,,,,,,,,,3,,,right,0.6823894397821277,,,,,,,,,,,,,,1031,2019_Jun_07_1256,mf_amp_cond1,3.0.7,59.98212803873607,
loyalty,,&&&&&&&,images/symbols/symbol_18.png,condition_files/AMP_rep1.csv,left,loyalty.virtue,,,,,,,,,,,,,,,,,,,,,0,2,2,0,0,73,73,73,,,,,,,,,,,,,912.6261458361987,,,,,AMP_prac,left,1.0005349721759558,,,,,,,,,,,,,,,,,,,,,3,,,right,0.5504219320137054,,,,,,,,,,,,,,1031,2019_Jun_07_1256,mf_amp_cond1,3.0.7,59.98212803873607,
torture,,&&&&&&&,images/symbols/symbol_77.png,condition_files/AMP_rep1.csv,right,care.vice,,,,,,,,,,,,,,,,,,,,,0,2,2,0,0,74,74,74,,,,,,,,,,,,,913.6930645087268,,,,,AMP_prac,left,1.0005349721759558,,,,,,,,,,,,,,,,,,,,,3,,,right,0.848722176393494,,,,,,,,,,,,,,1031,2019_Jun_07_1256,mf_amp_cond1,3.0.7,59.98212803873607,
police,,&&&&&&,images/symbols/symbol_51.png,condition_files/AMP_rep1.csv,right,authority.vice,,,,,,,,,,,,,,,,,,,,,0,2,2,0,0,75,75,75,,,,,,,,,,,,,914.593304380076,,,,,AMP_prac,left,1.0005349721759558,,,,,,,,,,,,,,,,,,,,,3,,,left,0.6829410898499191,,,,,,,,,,,,,,1031,2019_Jun_07_1256,mf_amp_cond1,3.0.7,59.98212803873607,
injured,,&&&&&&&,images/symbols/symbol_48.png,condition_files/AMP_rep1.csv,right,care.vice,,,,,,,,,,,,,,,,,,,,,0,2,2,0,0,76,76,76,,,,,,,,,,,,,915.343501226278,,,,,AMP_prac,left,1.0005349721759558,,,,,,,,,,,,,,,,,,,,,3,,,right,0.5323053614702076,,,,,,,,,,,,,,1031,2019_Jun_07_1256,mf_amp_cond1,3.0.7,59.98212803873607,
refused,,&&&&&&&,images/symbols/symbol_78.png,condition_files/AMP_rep1.csv,right,authority.vice,,,,,,,,,,,,,,,,,,,,,0,2,2,0,0,77,77,77,,,,,,,,,,,,,916.1937356293201,,,,,AMP_prac,left,1.0005349721759558,,,,,,,,,,,,,,,,,,,,,3,,,left,0.632337466115132,,,,,,,,,,,,,,1031,2019_Jun_07_1256,mf_amp_cond1,3.0.7,59.98212803873607,
arrests,,&&&&&&&,images/symbols/symbol_79.png,condition_files/AMP_rep1.csv,right,authority.vice,,,,,,,,,,,,,,,,,,,,,0,2,2,0,0,78,78,78,,,,,,,,,,,,,917.3273872733116,,,,,AMP_prac,left,1.0005349721759558,,,,,,,,,,,,,,,,,,,,,3,,,right,0.915807626908645,,,,,,,,,,,,,,1031,2019_Jun_07_1256,mf_amp_cond1,3.0.7,59.98212803873607,
actively,,&&&&&&&&,images/symbols/symbol_23.png,condition_files/AMP_rep1.csv,left,authority.virtue,,,,,,,,,,,,,,,,,,,,,0,2,2,0,0,79,79,79,,,,,,,,,,,,,918.6777340911794,,,,,AMP_prac,left,1.0005349721759558,,,,,,,,,,,,,,,,,,,,,3,,,left,1.1322128637693822,,,,,,,,,,,,,,1031,2019_Jun_07_1256,mf_amp_cond1,3.0.7,59.98212803873607,
voter,,&&&&&,images/symbols/symbol_81.png,condition_files/AMP_rep1.csv,right,fairness.vice,,,,,,,,,,,,,,,,,,,,,0,2,2,0,0,80,80,80,,,,,,,,,,,,,919.3946032593958,,,,,AMP_prac,left,1.0005349721759558,,,,,,,,,,,,,,,,,,,,,3,,,left,0.483688639709726,,,,,,,,,,,,,,1031,2019_Jun_07_1256,mf_amp_cond1,3.0.7,59.98212803873607,
hate,,&&&&,images/symbols/symbol_33.png,condition_files/AMP_rep1.csv,right,fairness.vice,,,,,,,,,,,,,,,,,,,,,0,2,2,0,0,81,81,81,,,,,,,,,,,,,920.3615684050601,,,,,AMP_prac,left,1.0005349721759558,,,,,,,,,,,,,,,,,,,,,3,,,right,0.7490249103866518,,,,,,,,,,,,,,1031,2019_Jun_07_1256,mf_amp_cond1,3.0.7,59.98212803873607,
,,,,condition_files/AMP_rep1.csv,,,,,,,,,,,,,,,,,,,,,,,0,2,2,0,,,,,,,,,,,,,,,,,,,,,,,,,,,,,,,,,,,,,,,,,,,,,,,,,,right,5.435018356889486,,,,,,,,,,,,1031,2019_Jun_07_1256,mf_amp_cond1,3.0.7,59.98212803873607,
wraughsed,,&&&&&&&&&,images/symbols/symbol_46.png,condition_files/AMP_rep4.csv,None,nonword,,,,,,,,,,,,,,,,,,,,,0,3,3,3,0,0,0,0,,,,,,,,,,,,,926.6800314567517,,,,,AMP_prac,left,1.0005349721759558,,,,,,,,,,,,,,,,,,,,,3,,,right,0.6322450968436897,,,,,,,,,,,,,,1031,2019_Jun_07_1256,mf_amp_cond1,3.0.7,59.98212803873607,
strength,,&&&&&&&&,images/symbols/symbol_67.png,condition_files/AMP_rep4.csv,left,sanctity.virtue,,,,,,,,,,,,,,,,,,,,,0,3,3,3,0,1,1,1,,,,,,,,,,,,,927.4967736492399,,,,,AMP_prac,left,1.0005349721759558,,,,,,,,,,,,,,,,,,,,,3,,,left,0.5837191408500075,,,,,,,,,,,,,,1031,2019_Jun_07_1256,mf_amp_cond1,3.0.7,59.98212803873607,
increase,,&&&&&&&&,images/symbols/symbol_6.png,condition_files/AMP_rep4.csv,left,care.virtue,,,,,,,,,,,,,,,,,,,,,0,3,3,3,0,2,2,2,,,,,,,,,,,,,928.4636916480958,,,,,AMP_prac,left,1.0005349721759558,,,,,,,,,,,,,,,,,,,,,3,,,right,0.7337685809470713,,,,,,,,,,,,,,1031,2019_Jun_07_1256,mf_amp_cond1,3.0.7,59.98212803873607,
interests,,&&&&&&&&&,images/symbols/symbol_35.png,condition_files/AMP_rep4.csv,left,fairness.virtue,,,,,,,,,,,,,,,,,,,,,0,3,3,3,0,3,3,3,,,,,,,,,,,,,929.6640230228659,,,,,AMP_prac,left,1.0005349721759558,,,,,,,,,,,,,,,,,,,,,3,,,right,0.9821743285283446,,,,,,,,,,,,,,1031,2019_Jun_07_1256,mf_amp_cond1,3.0.7,59.98212803873607,
prosecution,,&&&&&&&&&&&,images/symbols/symbol_50.png,condition_files/AMP_rep4.csv,right,authority.vice,,,,,,,,,,,,,,,,,,,,,0,3,3,3,0,4,4,4,,,,,,,,,,,,,930.7143280501477,,,,,AMP_prac,left,1.0005349721759558,,,,,,,,,,,,,,,,,,,,,3,,,left,0.8325697362888604,,,,,,,,,,,,,,1031,2019_Jun_07_1256,mf_amp_cond1,3.0.7,59.98212803873607,
ban,,&&&,images/symbols/symbol_20.png,condition_files/AMP_rep4.csv,right,loyalty.vice,,,,,,,,,,,,,,,,,,,,,0,3,3,3,0,5,5,5,,,,,,,,,,,,,931.5978769813664,,,,,AMP_prac,left,1.0005349721759558,,,,,,,,,,,,,,,,,,,,,3,,,right,0.6663325761910528,,,,,,,,,,,,,,1031,2019_Jun_07_1256,mf_amp_cond1,3.0.7,59.98212803873607,
charges,,&&&&&&&,images/symbols/symbol_19.png,condition_files/AMP_rep4.csv,right,fairness.vice,,,,,,,,,,,,,,,,,,,,,0,3,3,3,0,6,6,6,,,,,,,,,,,,,932.7481916623656,,,,,AMP_prac,left,1.0005349721759558,,,,,,,,,,,,,,,,,,,,,3,,,right,0.932292660465464,,,,,,,,,,,,,,1031,2019_Jun_07_1256,mf_amp_cond1,3.0.7,59.98212803873607,
death,,&&&&&,images/symbols/symbol_70.png,condition_files/AMP_rep4.csv,right,care.vice,,,,,,,,,,,,,,,,,,,,,0,3,3,3,0,7,7,7,,,,,,,,,,,,,933.5150666197296,,,,,AMP_prac,left,1.0005349721759558,,,,,,,,,,,,,,,,,,,,,3,,,right,0.5337290673051029,,,,,,,,,,,,,,1031,2019_Jun_07_1256,mf_amp_cond1,3.0.7,59.98212803873607,
dignity,,&&&&&&&,images/symbols/symbol_31.png,condition_files/AMP_rep4.csv,left,sanctity.virtue,,,,,,,,,,,,,,,,,,,,,0,3,3,3,0,8,8,8,,,,,,,,,,,,,934.6486932469998,,,,,AMP_prac,left,1.0005349721759558,,,,,,,,,,,,,,,,,,,,,3,,,right,0.9004669461864978,,,,,,,,,,,,,,1031,2019_Jun_07_1256,mf_amp_cond1,3.0.7,59.98212803873607,
support,,&&&&&&&,images/symbols/symbol_22.png,condition_files/AMP_rep4.csv,left,loyalty.virtue,,,,,,,,,,,,,,,,,,,,,0,3,3,3,0,9,9,9,,,,,,,,,,,,,935.3822244899347,,,,,AMP_prac,left,1.0005349721759558,,,,,,,,,,,,,,,,,,,,,3,,,right,0.5153405205346644,,,,,,,,,,,,,,1031,2019_Jun_07_1256,mf_amp_cond1,3.0.7,59.98212803873607,
sexual,,&&&&&&,images/symbols/symbol_66.png,condition_files/AMP_rep4.csv,right,sanctity.vice,,,,,,,,,,,,,,,,,,,,,0,3,3,3,0,10,10,10,,,,,,,,,,,,,936.2658189644571,,,,,AMP_prac,left,1.0005349721759558,,,,,,,,,,,,,,,,,,,,,3,,,left,0.6658809932414442,,,,,,,,,,,,,,1031,2019_Jun_07_1256,mf_amp_cond1,3.0.7,59.98212803873607,
army,,&&&&,images/symbols/symbol_21.png,condition_files/AMP_rep4.csv,right,loyalty.vice,,,,,,,,,,,,,,,,,,,,,0,3,3,3,0,11,11,11,,,,,,,,,,,,,937.1327080656774,,,,,AMP_prac,left,1.0005349721759558,,,,,,,,,,,,,,,,,,,,,3,,,left,0.6492519530002028,,,,,,,,,,,,,,1031,2019_Jun_07_1256,mf_amp_cond1,3.0.7,59.98212803873607,
thinx,,&&&&&,images/symbols/symbol_16.png,condition_files/AMP_rep4.csv,None,nonword,,,,,,,,,,,,,,,,,,,,,0,3,3,3,0,12,12,12,,,,,,,,,,,,,938.0162640528288,,,,,AMP_prac,left,1.0005349721759558,,,,,,,,,,,,,,,,,,,,,3,,,right,0.666004152270034,,,,,,,,,,,,,,1031,2019_Jun_07_1256,mf_amp_cond1,3.0.7,59.98212803873607,
abuse,,&&&&&,images/symbols/symbol_44.png,condition_files/AMP_rep4.csv,right,sanctity.vice,,,,,,,,,,,,,,,,,,,,,0,3,3,3,0,13,13,13,,,,,,,,,,,,,938.9331679237075,,,,,AMP_prac,left,1.0005349721759558,,,,,,,,,,,,,,,,,,,,,3,,,right,0.6989969913847744,,,,,,,,,,,,,,1031,2019_Jun_07_1256,mf_amp_cond1,3.0.7,59.98212803873607,
promised,,&&&&&&&&,images/symbols/symbol_65.png,condition_files/AMP_rep4.csv,left,loyalty.virtue,,,,,,,,,,,,,,,,,,,,,0,3,3,3,0,14,14,14,,,,,,,,,,,,,940.0501789813861,,,,,AMP_prac,left,1.0005349721759558,,,,,,,,,,,,,,,,,,,,,3,,,left,0.8988084681332111,,,,,,,,,,,,,,1031,2019_Jun_07_1256,mf_amp_cond1,3.0.7,59.98212803873607,
promote,,&&&&&&&,images/symbols/symbol_14.png,condition_files/AMP_rep4.csv,left,sanctity.virtue,,,,,,,,,,,,,,,,,,,,,0,3,3,3,0,15,15,15,,,,,,,,,,,,,940.9837500588037,,,,,AMP_prac,left,1.0005349721759558,,,,,,,,,,,,,,,,,,,,,3,,,right,0.715758812148124,,,,,,,,,,,,,,1031,2019_Jun_07_1256,mf_amp_cond1,3.0.7,59.98212803873607,
winze,,&&&&&,images/symbols/symbol_32.png,condition_files/AMP_rep4.csv,None,nonword,,,,,,,,,,,,,,,,,,,,,0,3,3,3,0,16,16,16,,,,,,,,,,,,,941.8506359530147,,,,,AMP_prac,left,1.0005349721759558,,,,,,,,,,,,,,,,,,,,,3,,,left,0.6490903068333864,,,,,,,,,,,,,,1031,2019_Jun_07_1256,mf_amp_cond1,3.0.7,59.98212803873607,
peaceful,,&&&&&&&&,images/symbols/symbol_80.png,condition_files/AMP_rep4.csv,left,authority.virtue,,,,,,,,,,,,,,,,,,,,,0,3,3,3,0,17,17,17,,,,,,,,,,,,,942.6008263844997,,,,,AMP_prac,left,1.0005349721759558,,,,,,,,,,,,,,,,,,,,,3,,,left,0.5328207691200078,,,,,,,,,,,,,,1031,2019_Jun_07_1256,mf_amp_cond1,3.0.7,59.98212803873607,
good,,&&&&,images/symbols/symbol_17.png,condition_files/AMP_rep4.csv,left,care.virtue,,,,,,,,,,,,,,,,,,,,,0,3,3,3,0,18,18,18,,,,,,,,,,,,,943.8678439047653,,,,,AMP_prac,left,1.0005349721759558,,,,,,,,,,,,,,,,,,,,,3,,,left,1.0492309133987874,,,,,,,,,,,,,,1031,2019_Jun_07_1256,mf_amp_cond1,3.0.7,59.98212803873607,
forced,,&&&&&&,images/symbols/symbol_40.png,condition_files/AMP_rep4.csv,right,fairness.vice,,,,,,,,,,,,,,,,,,,,,0,3,3,3,0,19,19,19,,,,,,,,,,,,,944.568029188551,,,,,AMP_prac,left,1.0005349721759558,,,,,,,,,,,,,,,,,,,,,3,,,left,0.4823319655843079,,,,,,,,,,,,,,1031,2019_Jun_07_1256,mf_amp_cond1,3.0.7,59.98212803873607,
perfect,,&&&&&&&,images/symbols/symbol_71.png,condition_files/AMP_rep4.csv,left,sanctity.virtue,,,,,,,,,,,,,,,,,,,,,0,3,3,3,0,20,20,20,,,,,,,,,,,,,945.6349831409752,,,,,AMP_prac,left,1.0005349721759558,,,,,,,,,,,,,,,,,,,,,3,,,right,0.8338109489995986,,,,,,,,,,,,,,1031,2019_Jun_07_1256,mf_amp_cond1,3.0.7,59.98212803873607,
lies,,&&&&,images/symbols/symbol_26.png,condition_files/AMP_rep4.csv,right,fairness.vice,,,,,,,,,,,,,,,,,,,,,0,3,3,3,0,21,21,21,,,,,,,,,,,,,947.2020770905074,,,,,AMP_prac,left,1.0005349721759558,,,,,,,,,,,,,,,,,,,,,3,,,left,1.3488987365271896,,,,,,,,,,,,,,1031,2019_Jun_07_1256,mf_amp_cond1,3.0.7,59.98212803873607,
blamed,,&&&&&&,images/symbols/symbol_4.png,condition_files/AMP_rep4.csv,right,loyalty.vice,,,,,,,,,,,,,,,,,,,,,0,3,3,3,0,22,22,22,,,,,,,,,,,,,947.9689437088091,,,,,AMP_prac,left,1.0005349721759558,,,,,,,,,,,,,,,,,,,,,3,,,left,0.5490306194406003,,,,,,,,,,,,,,1031,2019_Jun_07_1256,mf_amp_cond1,3.0.7,59.98212803873607,
men,,&&&,images/symbols/symbol_24.png,condition_files/AMP_rep4.csv,right,loyalty.vice,,,,,,,,,,,,,,,,,,,,,0,3,3,3,0,23,23,23,,,,,,,,,,,,,949.1692638583481,,,,,AMP_prac,left,1.0005349721759558,,,,,,,,,,,,,,,,,,,,,3,,,left,0.9671713730785996,,,,,,,,,,,,,,1031,2019_Jun_07_1256,mf_amp_cond1,3.0.7,59.98212803873607,
drug,,&&&&,images/symbols/symbol_7.png,condition_files/AMP_rep4.csv,right,sanctity.vice,,,,,,,,,,,,,,,,,,,,,0,3,3,3,0,24,24,24,,,,,,,,,,,,,949.8527787283529,,,,,AMP_prac,left,1.0005349721759558,,,,,,,,,,,,,,,,,,,,,3,,,left,0.4655153003986925,,,,,,,,,,,,,,1031,2019_Jun_07_1256,mf_amp_cond1,3.0.7,59.98212803873607,
safe,,&&&&,images/symbols/symbol_9.png,condition_files/AMP_rep4.csv,left,care.virtue,,,,,,,,,,,,,,,,,,,,,0,3,3,3,0,25,25,25,,,,,,,,,,,,,951.1698158290237,,,,,AMP_prac,left,1.0005349721759558,,,,,,,,,,,,,,,,,,,,,3,,,right,1.0990776219405234,,,,,,,,,,,,,,1031,2019_Jun_07_1256,mf_amp_cond1,3.0.7,59.98212803873607,
terrorists,,&&&&&&&&&&,images/symbols/symbol_82.png,condition_files/AMP_rep4.csv,right,fairness.vice,,,,,,,,,,,,,,,,,,,,,0,3,3,3,0,26,26,26,,,,,,,,,,,,,951.9700248786248,,,,,AMP_prac,left,1.0005349721759558,,,,,,,,,,,,,,,,,,,,,3,,,left,0.582877233158797,,,,,,,,,,,,,,1031,2019_Jun_07_1256,mf_amp_cond1,3.0.7,59.98212803873607,
peace,,&&&&&,images/symbols/symbol_11.png,condition_files/AMP_rep4.csv,left,care.virtue,,,,,,,,,,,,,,,,,,,,,0,3,3,3,0,27,27,27,,,,,,,,,,,,,952.7035493864678,,,,,AMP_prac,left,1.0005349721759558,,,,,,,,,,,,,,,,,,,,,3,,,right,0.5158167995978147,,,,,,,,,,,,,,1031,2019_Jun_07_1256,mf_amp_cond1,3.0.7,59.98212803873607,
black,,&&&&&,images/symbols/symbol_37.png,condition_files/AMP_rep4.csv,right,loyalty.vice,,,,,,,,,,,,,,,,,,,,,0,3,3,3,0,28,28,28,,,,,,,,,,,,,953.737026843708,,,,,AMP_prac,left,1.0005349721759558,,,,,,,,,,,,,,,,,,,,,3,,,left,0.8155442781280726,,,,,,,,,,,,,,1031,2019_Jun_07_1256,mf_amp_cond1,3.0.7,59.98212803873607,
roossed,,&&&&&&&,images/symbols/symbol_47.png,condition_files/AMP_rep4.csv,None,nonword,,,,,,,,,,,,,,,,,,,,,0,3,3,3,0,29,29,29,,,,,,,,,,,,,954.770792955067,,,,,AMP_prac,left,1.0005349721759558,,,,,,,,,,,,,,,,,,,,,3,,,left,0.8156677577644587,,,,,,,,,,,,,,1031,2019_Jun_07_1256,mf_amp_cond1,3.0.7,59.98212803873607,
freedom,,&&&&&&&,images/symbols/symbol_55.png,condition_files/AMP_rep4.csv,left,sanctity.virtue,,,,,,,,,,,,,,,,,,,,,0,3,3,3,0,30,30,30,,,,,,,,,,,,,956.1878111648839,,,,,AMP_prac,left,1.0005349721759558,,,,,,,,,,,,,,,,,,,,,3,,,right,1.1838909222278744,,,,,,,,,,,,,,1031,2019_Jun_07_1256,mf_amp_cond1,3.0.7,59.98212803873607,
shypse,,&&&&&&,images/symbols/symbol_39.png,condition_files/AMP_rep4.csv,None,nonword,,,,,,,,,,,,,,,,,,,,,0,3,3,3,0,31,31,31,,,,,,,,,,,,,956.9546954233665,,,,,AMP_prac,left,1.0005349721759558,,,,,,,,,,,,,,,,,,,,,3,,,right,0.5486842347308993,,,,,,,,,,,,,,1031,2019_Jun_07_1256,mf_amp_cond1,3.0.7,59.98212803873607,
credit,,&&&&&&,images/symbols/symbol_8.png,condition_files/AMP_rep4.csv,left,fairness.virtue,,,,,,,,,,,,,,,,,,,,,0,3,3,3,0,32,32,32,,,,,,,,,,,,,958.0883448221721,,,,,AMP_prac,left,1.0005349721759558,,,,,,,,,,,,,,,,,,,,,3,,,left,0.9159987799357623,,,,,,,,,,,,,,1031,2019_Jun_07_1256,mf_amp_cond1,3.0.7,59.98212803873607,
hope,,&&&&,images/symbols/symbol_3.png,condition_files/AMP_rep4.csv,left,loyalty.virtue,,,,,,,,,,,,,,,,,,,,,0,3,3,3,0,33,33,33,,,,,,,,,,,,,958.8218600288965,,,,,AMP_prac,left,1.0005349721759558,,,,,,,,,,,,,,,,,,,,,3,,,right,0.5157795953564346,,,,,,,,,,,,,,1031,2019_Jun_07_1256,mf_amp_cond1,3.0.7,59.98212803873607,
suicide,,&&&&&&&,images/symbols/symbol_56.png,condition_files/AMP_rep4.csv,right,care.vice,,,,,,,,,,,,,,,,,,,,,0,3,3,3,0,34,34,34,,,,,,,,,,,,,959.6554381302558,,,,,AMP_prac,left,1.0005349721759558,,,,,,,,,,,,,,,,,,,,,3,,,right,0.600421627284959,,,,,,,,,,,,,,1031,2019_Jun_07_1256,mf_amp_cond1,3.0.7,59.98212803873607,
gun,,&&&,images/symbols/symbol_68.png,condition_files/AMP_rep4.csv,right,authority.vice,,,,,,,,,,,,,,,,,,,,,0,3,3,3,0,35,35,35,,,,,,,,,,,,,960.9057627858128,,,,,AMP_prac,left,1.0005349721759558,,,,,,,,,,,,,,,,,,,,,3,,,left,1.032208020798862,,,,,,,,,,,,,,1031,2019_Jun_07_1256,mf_amp_cond1,3.0.7,59.98212803873607,
betrayal,,&&&&&&&&,images/symbols/symbol_61.png,condition_files/AMP_rep4.csv,right,loyalty.vice,,,,,,,,,,,,,,,,,,,,,0,3,3,3,0,36,36,36,,,,,,,,,,,,,962.1227671403904,,,,,AMP_prac,left,1.0005349721759558,,,,,,,,,,,,,,,,,,,,,3,,,left,0.9838353721424937,,,,,,,,,,,,,,1031,2019_Jun_07_1256,mf_amp_cond1,3.0.7,59.98212803873607,
violence,,&&&&&&&&,images/symbols/symbol_74.png,condition_files/AMP_rep4.csv,right,care.vice,,,,,,,,,,,,,,,,,,,,,0,3,3,3,0,37,37,37,,,,,,,,,,,,,962.85633077682,,,,,AMP_prac,left,1.0005349721759558,,,,,,,,,,,,,,,,,,,,,3,,,left,0.5155631047673523,,,,,,,,,,,,,,1031,2019_Jun_07_1256,mf_amp_cond1,3.0.7,59.98212803873607,
terrorist,,&&&&&&&&&,images/symbols/symbol_64.png,condition_files/AMP_rep4.csv,right,loyalty.vice,,,,,,,,,,,,,,,,,,,,,0,3,3,3,0,38,38,38,,,,,,,,,,,,,963.5898081378546,,,,,AMP_prac,left,1.0005349721759558,,,,,,,,,,,,,,,,,,,,,3,,,left,0.5156442485749722,,,,,,,,,,,,,,1031,2019_Jun_07_1256,mf_amp_cond1,3.0.7,59.98212803873607,
unpleasant,,&&&&&&&&&,images/symbols/symbol_34.png,condition_files/AMP_rep4.csv,left,control,,,,,,,,,,,,,,,,,,,,,0,3,3,3,0,39,39,39,,,,,,,,,,,,,964.4565606096294,,,,,AMP_prac,left,1.0005349721759558,,,,,,,,,,,,,,,,,,,,,3,,,right,0.6336117135360837,,,,,,,,,,,,,,1031,2019_Jun_07_1256,mf_amp_cond1,3.0.7,59.98212803873607,
threatened,,&&&&&&&&&&,images/symbols/symbol_60.png,condition_files/AMP_rep4.csv,right,fairness.vice,,,,,,,,,,,,,,,,,,,,,0,3,3,3,0,40,40,40,,,,,,,,,,,,,965.2069114046171,,,,,AMP_prac,left,1.0005349721759558,,,,,,,,,,,,,,,,,,,,,3,,,right,0.5320808526594192,,,,,,,,,,,,,,1031,2019_Jun_07_1256,mf_amp_cond1,3.0.7,59.98212803873607,
integrity,,&&&&&&&&&,images/symbols/symbol_28.png,condition_files/AMP_rep4.csv,left,fairness.virtue,,,,,,,,,,,,,,,,,,,,,0,3,3,3,0,41,41,41,,,,,,,,,,,,,966.1404908208642,,,,,AMP_prac,left,1.0005349721759558,,,,,,,,,,,,,,,,,,,,,3,,,left,0.7158235989045352,,,,,,,,,,,,,,1031,2019_Jun_07_1256,mf_amp_cond1,3.0.7,59.98212803873607,
knapps,,&&&&&&,images/symbols/symbol_72.png,condition_files/AMP_rep4.csv,None,nonword,,,,,,,,,,,,,,,,,,,,,0,3,3,3,0,42,42,42,,,,,,,,,,,,,967.107623385964,,,,,AMP_prac,left,1.0005349721759558,,,,,,,,,,,,,,,,,,,,,3,,,right,0.7491929712705314,,,,,,,,,,,,,,1031,2019_Jun_07_1256,mf_amp_cond1,3.0.7,59.98212803873607,
pleasant,,&&&&&&&,images/symbols/symbol_25.png,condition_files/AMP_rep4.csv,right,control,,,,,,,,,,,,,,,,,,,,,0,3,3,3,0,43,43,43,,,,,,,,,,,,,967.9409782614093,,,,,AMP_prac,left,1.0005349721759558,,,,,,,,,,,,,,,,,,,,,3,,,right,0.6153652484063059,,,,,,,,,,,,,,1031,2019_Jun_07_1256,mf_amp_cond1,3.0.7,59.98212803873607,
strong,,&&&&&&,images/symbols/symbol_38.png,condition_files/AMP_rep4.csv,left,loyalty.virtue,,,,,,,,,,,,,,,,,,,,,0,3,3,3,0,44,44,44,,,,,,,,,,,,,968.5744684194215,,,,,AMP_prac,left,1.0005349721759558,,,,,,,,,,,,,,,,,,,,,3,,,right,0.4157391516491771,,,,,,,,,,,,,,1031,2019_Jun_07_1256,mf_amp_cond1,3.0.7,59.98212803873607,
corruption,,&&&&&&&&&&,images/symbols/symbol_58.png,condition_files/AMP_rep4.csv,right,sanctity.vice,,,,,,,,,,,,,,,,,,,,,0,3,3,3,0,45,45,45,,,,,,,,,,,,,969.5080616269261,,,,,AMP_prac,left,1.0005349721759558,,,,,,,,,,,,,,,,,,,,,3,,,left,0.715818467317149,,,,,,,,,,,,,,1031,2019_Jun_07_1256,mf_amp_cond1,3.0.7,59.98212803873607,
care,,&&&&,images/symbols/symbol_12.png,condition_files/AMP_rep4.csv,left,care.virtue,,,,,,,,,,,,,,,,,,,,,0,3,3,3,0,46,46,46,,,,,,,,,,,,,970.4916583783925,,,,,AMP_prac,left,1.0005349721759558,,,,,,,,,,,,,,,,,,,,,3,,,right,0.7504508616402745,,,,,,,,,,,,,,1031,2019_Jun_07_1256,mf_amp_cond1,3.0.7,59.98212803873607,
promises,,&&&&&&&&,images/symbols/symbol_36.png,condition_files/AMP_rep4.csv,left,fairness.virtue,,,,,,,,,,,,,,,,,,,,,0,3,3,3,0,47,47,47,,,,,,,,,,,,,971.3252146702725,,,,,AMP_prac,left,1.0005349721759558,,,,,,,,,,,,,,,,,,,,,3,,,right,0.6152950092218816,,,,,,,,,,,,,,1031,2019_Jun_07_1256,mf_amp_cond1,3.0.7,59.98212803873607,
gryssed,,&&&&&&&,images/symbols/symbol_10.png,condition_files/AMP_rep4.csv,None,nonword,,,,,,,,,,,,,,,,,,,,,0,3,3,3,0,48,48,48,,,,,,,,,,,,,972.5755595318042,,,,,AMP_prac,left,1.0005349721759558,,,,,,,,,,,,,,,,,,,,,3,,,left,1.0325588956475258,,,,,,,,,,,,,,1031,2019_Jun_07_1256,mf_amp_cond1,3.0.7,59.98212803873607,
