words,masks,symbols,conditionfile,corr_ans,category,mask,LDT_trials_cond2.thisRepN,LDT_trials_cond2.thisTrialN,LDT_trials_cond2.thisN,LDT_trials_cond2.thisIndex,logo_trials.thisRepN,logo_trials.thisTrialN,logo_trials.thisN,logo_trials.thisIndex,AMP_pracs.thisRepN,AMP_pracs.thisTrialN,AMP_pracs.thisN,AMP_pracs.thisIndex,trials_loop.thisRepN,trials_loop.thisTrialN,trials_loop.thisN,trials_loop.thisIndex,AMP_trials.thisRepN,AMP_trials.thisTrialN,AMP_trials.thisN,AMP_trials.thisIndex,memtask_trials.thisRepN,memtask_trials.thisTrialN,memtask_trials.thisN,memtask_trials.thisIndex,LDT_cond1.thisRepN,LDT_cond1.thisTrialN,LDT_cond1.thisN,LDT_cond1.thisIndex,LDT_pracs.thisRepN,LDT_pracs.thisTrialN,LDT_pracs.thisN,LDT_pracs.thisIndex,LDT_trials.thisRepN,LDT_trials.thisTrialN,LDT_trials.thisN,LDT_trials.thisIndex,begin_key.keys,begin_key.rt,key_resp_instr.keys,key_resp_instr.rt,exp_time,resp_sym_rate.keys,resp_sym_rate.rt,sym_resp_1.keys,sym_resp_1.rt,sym_resp_2.keys,sym_resp_2.rt,sym_resp_trial.keys,sym_resp_trial.rt,symbol_index,resp_AMP_ready1.keys,resp_AMP_ready1.rt,resp_AMP.keys,resp_AMP.rt,task,keypress,RT,prime_dur,resp_AMP_ready.keys,resp_AMP_ready.rt,resp_AMP_trials.keys,resp_AMP_trials.rt,rest_key_resp.keys,rest_key_resp.rt,AMP_nonword_rating.response,AMP_nonword_rating.rt,AMP_word_rating.response,AMP_word_rating.rt,AMP_random_rating.response,AMP_random_rating.rt,key_resp_instr_memtask.keys,key_resp_instr_memtask.rt,resp_memtask.keys,resp_memtask.corr,resp_memtask.rt,corr,key_resp_LDT_instr.keys,key_resp_LDT_instr.rt,resp_LDT_prac.keys,resp_LDT_prac.rt,resp_LDT_ready.keys,resp_LDT_ready.rt,resp_LDT_trial.keys,resp_LDT_trial.rt,LDT_rating.response,LDT_rating.rt,participant ID,date,expName,psychopyVersion,frameRate,
,,,,,,,,,,,,,,,,,,,,,,,,,,,,,,,,,,,,,,,,,,,right,315.7163998396136,,,,,,,,,,,,,,,,,,,,,,,,,,,,,,,,,,,,,,,,,,,,,,,,,1032,2019_Jun_07_1255,mf_amp_cond1,3.0.7,59.979858819520324,
,,,,,,,,,,,,,,,,,,,,,,,,,,,,,,,,,,,,,,,,,,,,,right,4.384844604181126,,,,,,,,,,,,,,,,,,,,,,,,,,,,,,,,,,,,,,,,,,,,,,,1032,2019_Jun_07_1255,mf_amp_cond1,3.0.7,59.979858819520324,
,,,,,,,,,,,,,,,,,,,,,,,,,,,,,,,,,,,,,,,,,,,,,,,358.14355925493874,right,2.667592278216034,,,,,,,,,,,,,,,,,,,,,,,,,,,,,,,,,,,,,,,,,,,,1032,2019_Jun_07_1255,mf_amp_cond1,3.0.7,59.979858819520324,
,,,,,,,,,,,,,,,,,,,,,,,,,,,,,,,,,,,,,,,,,,,,,,,422.84374357550405,,,left,2.1841257959604263,,,,,,,,,,,,,,,,,,,,,,,,,,,,,,,,,,,,,,,,,,1032,2019_Jun_07_1255,mf_amp_cond1,3.0.7,59.979858819520324,
,,,,,,,,,,,,,,,,,,,,,,,,,,,,,,,,,,,,,,,,,,,,,,,,,,,,right,3.651182078756392,,,,,,,,,,,,,,,,,,,,,,,,,,,,,,,,,,,,,,,,1032,2019_Jun_07_1255,mf_amp_cond1,3.0.7,59.979858819520324,
,,,,,,,,,,,,,,,,,,,,,,,,,,,,,,,,,,,,,,,,,,,,,,,444.71611343254335,,,,,,,left,0.9148463136516511,37,right,2.3341736318543553,,,,,,,,,,,,,,,,,,,,,,,,,,,,,,,,,,,1032,2019_Jun_07_1255,mf_amp_cond1,3.0.7,59.979858819520324,
car,&&&,images/symbols/symbol_9.png,,,,,,,,,,,,,0,0,0,0,,,,,,,,,,,,,,,,,,,,,,,,,,,,,620.4459211677313,,,,,,,,,,,,right,1.650681427679956,AMP_prac,right,1.650681427679956,3,,,,,,,,,,,,,,,,,,,,,,,,,,,,,1032,2019_Jun_07_1255,mf_amp_cond1,3.0.7,59.979858819520324,
keyboard,&&&&&&&&,images/symbols/symbol_40.png,,,,,,,,,,,,,0,1,1,2,,,,,,,,,,,,,,,,,,,,,,,,,,,,,622.5630199948791,,,,,,,,,,,,right,1.8993068819399923,AMP_prac,right,1.8993068819399923,3,,,,,,,,,,,,,,,,,,,,,,,,,,,,,1032,2019_Jun_07_1255,mf_amp_cond1,3.0.7,59.979858819520324,
scarf,&&&&&,images/symbols/symbol_54.png,,,,,,,,,,,,,0,2,2,3,,,,,,,,,,,,,,,,,,,,,,,,,,,,,624.6302185512614,,,,,,,,,,,,left,1.8340397293213755,AMP_prac,left,1.8340397293213755,3,,,,,,,,,,,,,,,,,,,,,,,,,,,,,1032,2019_Jun_07_1255,mf_amp_cond1,3.0.7,59.979858819520324,
banana,&&&&&&,images/symbols/symbol_68.png,,,,,,,,,,,,,0,3,3,1,,,,,,,,,,,,,,,,,,,,,,,,,,,,,628.9980185627937,,,,,,,,,,,,left,4.134646636899561,AMP_prac,left,4.134646636899561,3,,,,,,,,,,,,,,,,,,,,,,,,,,,,,1032,2019_Jun_07_1255,mf_amp_cond1,3.0.7,59.979858819520324,
,,,,,,,,,,,,,,,,,,,,,,,,,,,,,,,,,,,,,,,,,,,,,,,,,,,,,,,,,,,,,,,,,right,2.0507861122023314,,,,,,,,,,,,,,,,,,,,,,,,,,,1032,2019_Jun_07_1255,mf_amp_cond1,3.0.7,59.979858819520324,
hand,&&&&,images/symbols/symbol_26.png,condition_files/AMP_rep3.csv,left,sanctity.virtue,,,,,,,,,,,,,,0,0,0,2,0,0,0,0,,,,,,,,,,,,,,,,,,,,,653.704661637079,,,,,,,,,,,,,,AMP_prac,left,4.134646636899561,3,,,left,2.3841954574454576,,,,,,,,,,,,,,,,,,,,,,,,,1032,2019_Jun_07_1255,mf_amp_cond1,3.0.7,59.979858819520324,
promised,&&&&&&&&,images/symbols/symbol_33.png,condition_files/AMP_rep3.csv,left,loyalty.virtue,,,,,,,,,,,,,,0,0,0,2,0,1,1,1,,,,,,,,,,,,,,,,,,,,,654.9881758431438,,,,,,,,,,,,,,AMP_prac,left,4.134646636899561,3,,,right,1.0660160444676876,,,,,,,,,,,,,,,,,,,,,,,,,1032,2019_Jun_07_1255,mf_amp_cond1,3.0.7,59.979858819520324,
friends,&&&&&&&,images/symbols/symbol_11.png,condition_files/AMP_rep3.csv,left,loyalty.virtue,,,,,,,,,,,,,,0,0,0,2,0,2,2,2,,,,,,,,,,,,,,,,,,,,,656.9553782162257,,,,,,,,,,,,,,AMP_prac,left,4.134646636899561,3,,,right,1.7497699602972716,,,,,,,,,,,,,,,,,,,,,,,,,1032,2019_Jun_07_1255,mf_amp_cond1,3.0.7,59.979858819520324,
commitment,&&&&&&&&&&,images/symbols/symbol_15.png,condition_files/AMP_rep3.csv,left,sanctity.virtue,,,,,,,,,,,,,,0,0,0,2,0,3,3,3,,,,,,,,,,,,,,,,,,,,,658.1556743092369,,,,,,,,,,,,,,AMP_prac,left,4.134646636899561,3,,,right,0.9827552752103657,,,,,,,,,,,,,,,,,,,,,,,,,1032,2019_Jun_07_1255,mf_amp_cond1,3.0.7,59.979858819520324,
fighters,&&&&&&&&,images/symbols/symbol_73.png,condition_files/AMP_rep3.csv,right,authority.vice,,,,,,,,,,,,,,0,0,0,2,0,4,4,4,,,,,,,,,,,,,,,,,,,,,659.4726846804842,,,,,,,,,,,,,,AMP_prac,left,4.134646636899561,3,,,left,1.0838236412964761,,,,,,,,,,,,,,,,,,,,,,,,,1032,2019_Jun_07_1255,mf_amp_cond1,3.0.7,59.979858819520324,
credit,&&&&&&,images/symbols/symbol_58.png,condition_files/AMP_rep3.csv,left,fairness.virtue,,,,,,,,,,,,,,0,0,0,2,0,5,5,5,,,,,,,,,,,,,,,,,,,,,661.5065637910739,,,,,,,,,,,,,,AMP_prac,left,4.134646636899561,3,,,right,1.8162199452053756,,,,,,,,,,,,,,,,,,,,,,,,,1032,2019_Jun_07_1255,mf_amp_cond1,3.0.7,59.979858819520324,
stryct,&&&&&&,images/symbols/symbol_65.png,condition_files/AMP_rep3.csv,None,nonword,,,,,,,,,,,,,,0,0,0,2,0,6,6,6,,,,,,,,,,,,,,,,,,,,,662.8402454312891,,,,,,,,,,,,,,AMP_prac,left,4.134646636899561,3,,,right,1.1161241449881345,,,,,,,,,,,,,,,,,,,,,,,,,1032,2019_Jun_07_1255,mf_amp_cond1,3.0.7,59.979858819520324,
suicide,&&&&&&&,images/symbols/symbol_38.png,condition_files/AMP_rep3.csv,right,care.vice,,,,,,,,,,,,,,0,0,0,2,0,7,7,7,,,,,,,,,,,,,,,,,,,,,664.6074038010556,,,,,,,,,,,,,,AMP_prac,left,4.134646636899561,3,,,right,1.533997618360445,,,,,,,,,,,,,,,,,,,,,,,,,1032,2019_Jun_07_1255,mf_amp_cond1,3.0.7,59.979858819520324,
war,&&&,images/symbols/symbol_57.png,condition_files/AMP_rep3.csv,right,sanctity.vice,,,,,,,,,,,,,,0,0,0,2,0,8,8,8,,,,,,,,,,,,,,,,,,,,,665.7076584885363,,,,,,,,,,,,,,AMP_prac,left,4.134646636899561,3,,,left,0.8826955885160714,,,,,,,,,,,,,,,,,,,,,,,,,1032,2019_Jun_07_1255,mf_amp_cond1,3.0.7,59.979858819520324,
soughste,&&&&&&&&,images/symbols/symbol_50.png,condition_files/AMP_rep3.csv,None,nonword,,,,,,,,,,,,,,0,0,0,2,0,9,9,9,,,,,,,,,,,,,,,,,,,,,667.1747032254934,,,,,,,,,,,,,,AMP_prac,left,4.134646636899561,3,,,right,1.2495084090624005,,,,,,,,,,,,,,,,,,,,,,,,,1032,2019_Jun_07_1255,mf_amp_cond1,3.0.7,59.979858819520324,
freedom,&&&&&&&,images/symbols/symbol_82.png,condition_files/AMP_rep3.csv,left,sanctity.virtue,,,,,,,,,,,,,,0,0,0,2,0,10,10,10,,,,,,,,,,,,,,,,,,,,,668.2916660653427,,,,,,,,,,,,,,AMP_prac,left,4.134646636899561,3,,,left,0.8997090707998723,,,,,,,,,,,,,,,,,,,,,,,,,1032,2019_Jun_07_1255,mf_amp_cond1,3.0.7,59.979858819520324,
growth,&&&&&&,images/symbols/symbol_17.png,condition_files/AMP_rep3.csv,left,care.virtue,,,,,,,,,,,,,,0,0,0,2,0,11,11,11,,,,,,,,,,,,,,,,,,,,,669.925429586554,,,,,,,,,,,,,,AMP_prac,left,4.134646636899561,3,,,left,1.4162188549526036,,,,,,,,,,,,,,,,,,,,,,,,,1032,2019_Jun_07_1255,mf_amp_cond1,3.0.7,59.979858819520324,
energy,&&&&&&,images/symbols/symbol_75.png,condition_files/AMP_rep3.csv,left,sanctity.virtue,,,,,,,,,,,,,,0,0,0,2,0,12,12,12,,,,,,,,,,,,,,,,,,,,,671.125736905029,,,,,,,,,,,,,,AMP_prac,left,4.134646636899561,3,,,right,0.9671468876767904,,,,,,,,,,,,,,,,,,,,,,,,,1032,2019_Jun_07_1255,mf_amp_cond1,3.0.7,59.979858819520324,
lies,&&&&,images/symbols/symbol_21.png,condition_files/AMP_rep3.csv,right,fairness.vice,,,,,,,,,,,,,,0,0,0,2,0,13,13,13,,,,,,,,,,,,,,,,,,,,,672.1926836925559,,,,,,,,,,,,,,AMP_prac,left,4.134646636899561,3,,,right,0.8492834530770779,,,,,,,,,,,,,,,,,,,,,,,,,1032,2019_Jun_07_1255,mf_amp_cond1,3.0.7,59.979858819520324,
benefit,&&&&&&&,images/symbols/symbol_44.png,condition_files/AMP_rep3.csv,left,fairness.virtue,,,,,,,,,,,,,,0,0,0,2,0,14,14,14,,,,,,,,,,,,,,,,,,,,,673.9264806013089,,,,,,,,,,,,,,AMP_prac,left,4.134646636899561,3,,,right,1.516066221985966,,,,,,,,,,,,,,,,,,,,,,,,,1032,2019_Jun_07_1255,mf_amp_cond1,3.0.7,59.979858819520324,
honored,&&&&&&&,images/symbols/symbol_52.png,condition_files/AMP_rep3.csv,left,authority.virtue,,,,,,,,,,,,,,0,0,0,2,0,15,15,15,,,,,,,,,,,,,,,,,,,,,675.5102338434663,,,,,,,,,,,,,,AMP_prac,left,4.134646636899561,3,,,right,1.3665677872486413,,,,,,,,,,,,,,,,,,,,,,,,,1032,2019_Jun_07_1255,mf_amp_cond1,3.0.7,59.979858819520324,
betrayal,&&&&&&&&,images/symbols/symbol_36.png,condition_files/AMP_rep3.csv,right,loyalty.vice,,,,,,,,,,,,,,0,0,0,2,0,16,16,16,,,,,,,,,,,,,,,,,,,,,676.6105308665428,,,,,,,,,,,,,,AMP_prac,left,4.134646636899561,3,,,right,0.8827020027674735,,,,,,,,,,,,,,,,,,,,,,,,,1032,2019_Jun_07_1255,mf_amp_cond1,3.0.7,59.979858819520324,
violence,&&&&&&&&,images/symbols/symbol_22.png,condition_files/AMP_rep3.csv,right,care.vice,,,,,,,,,,,,,,0,0,0,2,0,17,17,17,,,,,,,,,,,,,,,,,,,,,677.7608189254533,,,,,,,,,,,,,,AMP_prac,left,4.134646636899561,3,,,right,0.932704905513674,,,,,,,,,,,,,,,,,,,,,,,,,1032,2019_Jun_07_1255,mf_amp_cond1,3.0.7,59.979858819520324,
shot,&&&&,images/symbols/symbol_31.png,condition_files/AMP_rep3.csv,right,care.vice,,,,,,,,,,,,,,0,0,0,2,0,18,18,18,,,,,,,,,,,,,,,,,,,,,678.8611104963347,,,,,,,,,,,,,,AMP_prac,left,4.134646636899561,3,,,left,0.8671231218613684,,,,,,,,,,,,,,,,,,,,,,,,,1032,2019_Jun_07_1255,mf_amp_cond1,3.0.7,59.979858819520324,
refused,&&&&&&&,images/symbols/symbol_1.png,condition_files/AMP_rep3.csv,right,authority.vice,,,,,,,,,,,,,,0,0,0,2,0,19,19,19,,,,,,,,,,,,,,,,,,,,,680.1781189432368,,,,,,,,,,,,,,AMP_prac,left,4.134646636899561,3,,,left,1.0991376035381109,,,,,,,,,,,,,,,,,,,,,,,,,1032,2019_Jun_07_1255,mf_amp_cond1,3.0.7,59.979858819520324,
terrorists,&&&&&&&&&&,images/symbols/symbol_6.png,condition_files/AMP_rep3.csv,right,fairness.vice,,,,,,,,,,,,,,0,0,0,2,0,20,20,20,,,,,,,,,,,,,,,,,,,,,681.3784714839421,,,,,,,,,,,,,,AMP_prac,left,4.134646636899561,3,,,right,0.9826382107567042,,,,,,,,,,,,,,,,,,,,,,,,,1032,2019_Jun_07_1255,mf_amp_cond1,3.0.7,59.979858819520324,
progress,&&&&&&&&,images/symbols/symbol_24.png,condition_files/AMP_rep3.csv,left,authority.virtue,,,,,,,,,,,,,,0,0,0,2,0,21,21,21,,,,,,,,,,,,,,,,,,,,,682.4954205325339,,,,,,,,,,,,,,AMP_prac,left,4.134646636899561,3,,,right,0.8993020709604025,,,,,,,,,,,,,,,,,,,,,,,,,1032,2019_Jun_07_1255,mf_amp_cond1,3.0.7,59.979858819520324,
embrace,&&&&&&&,images/symbols/symbol_64.png,condition_files/AMP_rep3.csv,left,authority.virtue,,,,,,,,,,,,,,0,0,0,2,0,22,22,22,,,,,,,,,,,,,,,,,,,,,683.8457362379413,,,,,,,,,,,,,,AMP_prac,left,4.134646636899561,3,,,left,1.117178046144545,,,,,,,,,,,,,,,,,,,,,,,,,1032,2019_Jun_07_1255,mf_amp_cond1,3.0.7,59.979858819520324,
powerful,&&&&&&&&,images/symbols/symbol_16.png,condition_files/AMP_rep3.csv,left,authority.virtue,,,,,,,,,,,,,,0,0,0,2,0,23,23,23,,,,,,,,,,,,,,,,,,,,,684.8793693524785,,,,,,,,,,,,,,AMP_prac,left,4.134646636899561,3,,,right,0.8162443202454597,,,,,,,,,,,,,,,,,,,,,,,,,1032,2019_Jun_07_1255,mf_amp_cond1,3.0.7,59.979858819520324,
agreement,&&&&&&&&&,images/symbols/symbol_45.png,condition_files/AMP_rep3.csv,left,fairness.virtue,,,,,,,,,,,,,,0,0,0,2,0,24,24,24,,,,,,,,,,,,,,,,,,,,,685.7962551543023,,,,,,,,,,,,,,AMP_prac,left,4.134646636899561,3,,,right,0.6993456254713237,,,,,,,,,,,,,,,,,,,,,,,,,1032,2019_Jun_07_1255,mf_amp_cond1,3.0.7,59.979858819520324,
respect,&&&&&&&,images/symbols/symbol_41.png,condition_files/AMP_rep3.csv,left,sanctity.virtue,,,,,,,,,,,,,,0,0,0,2,0,25,25,25,,,,,,,,,,,,,,,,,,,,,686.8298667804338,,,,,,,,,,,,,,AMP_prac,left,4.134646636899561,3,,,right,0.816610908601433,,,,,,,,,,,,,,,,,,,,,,,,,1032,2019_Jun_07_1255,mf_amp_cond1,3.0.7,59.979858819520324,
slavery,&&&&&&&,images/symbols/symbol_77.png,condition_files/AMP_rep3.csv,right,loyalty.vice,,,,,,,,,,,,,,0,0,0,2,0,26,26,26,,,,,,,,,,,,,,,,,,,,,688.0135053957347,,,,,,,,,,,,,,AMP_prac,left,4.134646636899561,3,,,left,0.9657286431174725,,,,,,,,,,,,,,,,,,,,,,,,,1032,2019_Jun_07_1255,mf_amp_cond1,3.0.7,59.979858819520324,
safety,&&&&&&,images/symbols/symbol_4.png,condition_files/AMP_rep3.csv,left,care.virtue,,,,,,,,,,,,,,0,0,0,2,0,27,27,27,,,,,,,,,,,,,,,,,,,,,689.1471484848298,,,,,,,,,,,,,,AMP_prac,left,4.134646636899561,3,,,left,0.9158620487432927,,,,,,,,,,,,,,,,,,,,,,,,,1032,2019_Jun_07_1255,mf_amp_cond1,3.0.7,59.979858819520324,
perfect,&&&&&&&,images/symbols/symbol_18.png,condition_files/AMP_rep3.csv,left,sanctity.virtue,,,,,,,,,,,,,,0,0,0,2,0,28,28,28,,,,,,,,,,,,,,,,,,,,,690.0306943142787,,,,,,,,,,,,,,AMP_prac,left,4.134646636899561,3,,,right,0.6503767392132431,,,,,,,,,,,,,,,,,,,,,,,,,1032,2019_Jun_07_1255,mf_amp_cond1,3.0.7,59.979858819520324,
blamed,&&&&&&,images/symbols/symbol_69.png,condition_files/AMP_rep3.csv,right,loyalty.vice,,,,,,,,,,,,,,0,0,0,2,0,29,29,29,,,,,,,,,,,,,,,,,,,,,691.0809887556825,,,,,,,,,,,,,,AMP_prac,left,4.134646636899561,3,,,left,0.8171237474307418,,,,,,,,,,,,,,,,,,,,,,,,,1032,2019_Jun_07_1255,mf_amp_cond1,3.0.7,59.979858819520324,
fair,&&&&,images/symbols/symbol_13.png,condition_files/AMP_rep3.csv,left,fairness.virtue,,,,,,,,,,,,,,0,0,0,2,0,30,30,30,,,,,,,,,,,,,,,,,,,,,692.1979342764243,,,,,,,,,,,,,,AMP_prac,left,4.134646636899561,3,,,left,0.8993088060524315,,,,,,,,,,,,,,,,,,,,,,,,,1032,2019_Jun_07_1255,mf_amp_cond1,3.0.7,59.979858819520324,
spynze,&&&&&&,images/symbols/symbol_79.png,condition_files/AMP_rep3.csv,None,nonword,,,,,,,,,,,,,,0,0,0,2,0,31,31,31,,,,,,,,,,,,,,,,,,,,,693.2315648254007,,,,,,,,,,,,,,AMP_prac,left,4.134646636899561,3,,,left,0.8160239825956523,,,,,,,,,,,,,,,,,,,,,,,,,1032,2019_Jun_07_1255,mf_amp_cond1,3.0.7,59.979858819520324,
scandal,&&&&&&&,images/symbols/symbol_39.png,condition_files/AMP_rep3.csv,right,sanctity.vice,,,,,,,,,,,,,,0,0,0,2,0,32,32,32,,,,,,,,,,,,,,,,,,,,,695.4488115385175,,,,,,,,,,,,,,AMP_prac,left,4.134646636899561,3,,,left,1.9996953115332872,,,,,,,,,,,,,,,,,,,,,,,,,1032,2019_Jun_07_1255,mf_amp_cond1,3.0.7,59.979858819520324,
prosecution,&&&&&&&&&&&,images/symbols/symbol_40.png,condition_files/AMP_rep3.csv,right,authority.vice,,,,,,,,,,,,,,0,0,0,2,0,33,33,33,,,,,,,,,,,,,,,,,,,,,696.7157878971193,,,,,,,,,,,,,,AMP_prac,left,4.134646636899561,3,,,left,1.0492568968329579,,,,,,,,,,,,,,,,,,,,,,,,,1032,2019_Jun_07_1255,mf_amp_cond1,3.0.7,59.979858819520324,
conspiracy,&&&&&&&&&&,images/symbols/symbol_29.png,condition_files/AMP_rep3.csv,right,sanctity.vice,,,,,,,,,,,,,,0,0,0,2,0,34,34,34,,,,,,,,,,,,,,,,,,,,,698.1828396897763,,,,,,,,,,,,,,AMP_prac,left,4.134646636899561,3,,,left,1.2493903825525194,,,,,,,,,,,,,,,,,,,,,,,,,1032,2019_Jun_07_1255,mf_amp_cond1,3.0.7,59.979858819520324,
useful,&&&&&&,images/symbols/symbol_76.png,condition_files/AMP_rep3.csv,left,authority.virtue,,,,,,,,,,,,,,0,0,0,2,0,35,35,35,,,,,,,,,,,,,,,,,,,,,699.3331595005002,,,,,,,,,,,,,,AMP_prac,left,4.134646636899561,3,,,left,0.9331629001535475,,,,,,,,,,,,,,,,,,,,,,,,,1032,2019_Jun_07_1255,mf_amp_cond1,3.0.7,59.979858819520324,
ban,&&&,images/symbols/symbol_70.png,condition_files/AMP_rep3.csv,right,loyalty.vice,,,,,,,,,,,,,,0,0,0,2,0,36,36,36,,,,,,,,,,,,,,,,,,,,,700.150027630385,,,,,,,,,,,,,,AMP_prac,left,4.134646636899561,3,,,right,0.5837160381488502,,,,,,,,,,,,,,,,,,,,,,,,,1032,2019_Jun_07_1255,mf_amp_cond1,3.0.7,59.979858819520324,
terrorist,&&&&&&&&&,images/symbols/symbol_66.png,condition_files/AMP_rep3.csv,right,loyalty.vice,,,,,,,,,,,,,,0,0,0,2,0,37,37,37,,,,,,,,,,,,,,,,,,,,,701.0502604444046,,,,,,,,,,,,,,AMP_prac,left,4.134646636899561,3,,,right,0.6824947504792362,,,,,,,,,,,,,,,,,,,,,,,,,1032,2019_Jun_07_1255,mf_amp_cond1,3.0.7,59.979858819520324,
rejected,&&&&&&&&,images/symbols/symbol_49.png,condition_files/AMP_rep3.csv,right,authority.vice,,,,,,,,,,,,,,0,0,0,2,0,38,38,38,,,,,,,,,,,,,,,,,,,,,702.1838990435936,,,,,,,,,,,,,,AMP_prac,left,4.134646636899561,3,,,left,0.9004720747470856,,,,,,,,,,,,,,,,,,,,,,,,,1032,2019_Jun_07_1255,mf_amp_cond1,3.0.7,59.979858819520324,
serial,&&&&&&,images/symbols/symbol_71.png,condition_files/AMP_rep3.csv,right,sanctity.vice,,,,,,,,,,,,,,0,0,0,2,0,39,39,39,,,,,,,,,,,,,,,,,,,,,703.2675042711198,,,,,,,,,,,,,,AMP_prac,left,4.134646636899561,3,,,left,0.8658459964208305,,,,,,,,,,,,,,,,,,,,,,,,,1032,2019_Jun_07_1255,mf_amp_cond1,3.0.7,59.979858819520324,
illegal,&&&&&&&,images/symbols/symbol_19.png,condition_files/AMP_rep3.csv,right,fairness.vice,,,,,,,,,,,,,,0,0,0,2,0,40,40,40,,,,,,,,,,,,,,,,,,,,,704.0677187719848,,,,,,,,,,,,,,AMP_prac,left,4.134646636899561,3,,,right,0.5827105662319809,,,,,,,,,,,,,,,,,,,,,,,,,1032,2019_Jun_07_1255,mf_amp_cond1,3.0.7,59.979858819520324,
peaceful,&&&&&&&&,images/symbols/symbol_60.png,condition_files/AMP_rep3.csv,left,authority.virtue,,,,,,,,,,,,,,0,0,0,2,0,41,41,41,,,,,,,,,,,,,,,,,,,,,705.6681352648884,,,,,,,,,,,,,,AMP_prac,left,4.134646636899561,3,,,right,1.3828086436260492,,,,,,,,,,,,,,,,,,,,,,,,,1032,2019_Jun_07_1255,mf_amp_cond1,3.0.7,59.979858819520324,
crict,&&&&&,images/symbols/symbol_74.png,condition_files/AMP_rep3.csv,None,nonword,,,,,,,,,,,,,,0,0,0,2,0,42,42,42,,,,,,,,,,,,,,,,,,,,,706.9684990630485,,,,,,,,,,,,,,AMP_prac,left,4.134646636899561,3,,,left,1.0671931041870266,,,,,,,,,,,,,,,,,,,,,,,,,1032,2019_Jun_07_1255,mf_amp_cond1,3.0.7,59.979858819520324,
died,&&&&,images/symbols/symbol_43.png,condition_files/AMP_rep3.csv,right,care.vice,,,,,,,,,,,,,,0,0,0,2,0,43,43,43,,,,,,,,,,,,,,,,,,,,,707.6686602912378,,,,,,,,,,,,,,AMP_prac,left,4.134646636899561,3,,,right,0.46701490972191095,,,,,,,,,,,,,,,,,,,,,,,,,1032,2019_Jun_07_1255,mf_amp_cond1,3.0.7,59.979858819520324,
ensure,&&&&&&,images/symbols/symbol_3.png,condition_files/AMP_rep3.csv,left,fairness.virtue,,,,,,,,,,,,,,0,0,0,2,0,44,44,44,,,,,,,,,,,,,,,,,,,,,708.8356443149969,,,,,,,,,,,,,,AMP_prac,left,4.134646636899561,3,,,right,0.9490477521903813,,,,,,,,,,,,,,,,,,,,,,,,,1032,2019_Jun_07_1255,mf_amp_cond1,3.0.7,59.979858819520324,
support,&&&&&&&,images/symbols/symbol_37.png,condition_files/AMP_rep3.csv,left,loyalty.virtue,,,,,,,,,,,,,,0,0,0,2,0,45,45,45,,,,,,,,,,,,,,,,,,,,,709.70254998561,,,,,,,,,,,,,,AMP_prac,left,4.134646636899561,3,,,right,0.6491384212858975,,,,,,,,,,,,,,,,,,,,,,,,,1032,2019_Jun_07_1255,mf_amp_cond1,3.0.7,59.979858819520324,
sexual,&&&&&&,images/symbols/symbol_81.png,condition_files/AMP_rep3.csv,right,sanctity.vice,,,,,,,,,,,,,,0,0,0,2,0,46,46,46,,,,,,,,,,,,,,,,,,,,,710.7528011291288,,,,,,,,,,,,,,AMP_prac,left,4.134646636899561,3,,,left,0.8326423319522291,,,,,,,,,,,,,,,,,,,,,,,,,1032,2019_Jun_07_1255,mf_amp_cond1,3.0.7,59.979858819520324,
increase,&&&&&&&&,images/symbols/symbol_55.png,condition_files/AMP_rep3.csv,left,care.virtue,,,,,,,,,,,,,,0,0,0,2,0,47,47,47,,,,,,,,,,,,,,,,,,,,,712.003126103431,,,,,,,,,,,,,,AMP_prac,left,4.134646636899561,3,,,right,1.017135357717052,,,,,,,,,,,,,,,,,,,,,,,,,1032,2019_Jun_07_1255,mf_amp_cond1,3.0.7,59.979858819520324,
voter,&&&&&,images/symbols/symbol_72.png,condition_files/AMP_rep3.csv,right,fairness.vice,,,,,,,,,,,,,,0,0,0,2,0,48,48,48,,,,,,,,,,,,,,,,,,,,,714.2203904564958,,,,,,,,,,,,,,AMP_prac,left,4.134646636899561,3,,,left,1.999046485638246,,,,,,,,,,,,,,,,,,,,,,,,,1032,2019_Jun_07_1255,mf_amp_cond1,3.0.7,59.979858819520324,
restore,&&&&&&&,images/symbols/symbol_27.png,condition_files/AMP_rep3.csv,left,care.virtue,,,,,,,,,,,,,,0,0,0,2,0,49,49,49,,,,,,,,,,,,,,,,,,,,,714.9705799247604,,,,,,,,,,,,,,AMP_prac,left,4.134646636899561,3,,,right,0.5170348105020821,,,,,,,,,,,,,,,,,,,,,,,,,1032,2019_Jun_07_1255,mf_amp_cond1,3.0.7,59.979858819520324,
praised,&&&&&&&,images/symbols/symbol_56.png,condition_files/AMP_rep3.csv,left,loyalty.virtue,,,,,,,,,,,,,,0,0,0,2,0,50,50,50,,,,,,,,,,,,,,,,,,,,,715.7708005190361,,,,,,,,,,,,,,AMP_prac,left,4.134646636899561,3,,,right,0.5670505419839174,,,,,,,,,,,,,,,,,,,,,,,,,1032,2019_Jun_07_1255,mf_amp_cond1,3.0.7,59.979858819520324,
health,&&&&&&,images/symbols/symbol_28.png,condition_files/AMP_rep3.csv,left,care.virtue,,,,,,,,,,,,,,0,0,0,2,0,51,51,51,,,,,,,,,,,,,,,,,,,,,716.7210400844924,,,,,,,,,,,,,,AMP_prac,left,4.134646636899561,3,,,left,0.7322468464262784,,,,,,,,,,,,,,,,,,,,,,,,,1032,2019_Jun_07_1255,mf_amp_cond1,3.0.7,59.979858819520324,
civilians,&&&&&&&&&,images/symbols/symbol_12.png,condition_files/AMP_rep3.csv,right,care.vice,,,,,,,,,,,,,,0,0,0,2,0,52,52,52,,,,,,,,,,,,,,,,,,,,,718.4214989452157,,,,,,,,,,,,,,AMP_prac,left,4.134646636899561,3,,,left,1.4672910533845425,,,,,,,,,,,,,,,,,,,,,,,,,1032,2019_Jun_07_1255,mf_amp_cond1,3.0.7,59.979858819520324,
gun,&&&,images/symbols/symbol_20.png,condition_files/AMP_rep3.csv,right,authority.vice,,,,,,,,,,,,,,0,0,0,2,0,53,53,53,,,,,,,,,,,,,,,,,,,,,719.138367684558,,,,,,,,,,,,,,AMP_prac,left,4.134646636899561,3,,,right,0.4990479287225753,,,,,,,,,,,,,,,,,,,,,,,,,1032,2019_Jun_07_1255,mf_amp_cond1,3.0.7,59.979858819520324,
protect,&&&&&&&,images/symbols/symbol_62.png,condition_files/AMP_rep3.csv,left,fairness.virtue,,,,,,,,,,,,,,0,0,0,2,0,54,54,54,,,,,,,,,,,,,,,,,,,,,720.2886397070251,,,,,,,,,,,,,,AMP_prac,left,4.134646636899561,3,,,left,0.9326850203797221,,,,,,,,,,,,,,,,,,,,,,,,,1032,2019_Jun_07_1255,mf_amp_cond1,3.0.7,59.979858819520324,
loyalty,&&&&&&&,images/symbols/symbol_32.png,condition_files/AMP_rep3.csv,left,loyalty.virtue,,,,,,,,,,,,,,0,0,0,2,0,55,55,55,,,,,,,,,,,,,,,,,,,,,721.27223752602,,,,,,,,,,,,,,AMP_prac,left,4.134646636899561,3,,,left,0.7660608498845249,,,,,,,,,,,,,,,,,,,,,,,,,1032,2019_Jun_07_1255,mf_amp_cond1,3.0.7,59.979858819520324,
protesters,&&&&&&&&&&,images/symbols/symbol_46.png,condition_files/AMP_rep3.csv,right,authority.vice,,,,,,,,,,,,,,0,0,0,2,0,56,56,56,,,,,,,,,,,,,,,,,,,,,721.9724186393432,,,,,,,,,,,,,,AMP_prac,left,4.134646636899561,3,,,right,0.4825953938998282,,,,,,,,,,,,,,,,,,,,,,,,,1032,2019_Jun_07_1255,mf_amp_cond1,3.0.7,59.979858819520324,
interests,&&&&&&&&&,images/symbols/symbol_51.png,condition_files/AMP_rep3.csv,left,fairness.virtue,,,,,,,,,,,,,,0,0,0,2,0,57,57,57,,,,,,,,,,,,,,,,,,,,,723.5561705986038,,,,,,,,,,,,,,AMP_prac,left,4.134646636899561,3,,,right,1.3505783788859844,,,,,,,,,,,,,,,,,,,,,,,,,1032,2019_Jun_07_1255,mf_amp_cond1,3.0.7,59.979858819520324,
frord,&&&&&,images/symbols/symbol_67.png,condition_files/AMP_rep3.csv,None,nonword,,,,,,,,,,,,,,0,0,0,2,0,58,58,58,,,,,,,,,,,,,,,,,,,,,724.5564316683449,,,,,,,,,,,,,,AMP_prac,left,4.134646636899561,3,,,right,0.7818517296109349,,,,,,,,,,,,,,,,,,,,,,,,,1032,2019_Jun_07_1255,mf_amp_cond1,3.0.7,59.979858819520324,
improve,&&&&&&&,images/symbols/symbol_53.png,condition_files/AMP_rep3.csv,left,care.virtue,,,,,,,,,,,,,,0,0,0,2,0,59,59,59,,,,,,,,,,,,,,,,,,,,,725.8901097807102,,,,,,,,,,,,,,AMP_prac,left,4.134646636899561,3,,,right,1.1160458878148347,,,,,,,,,,,,,,,,,,,,,,,,,1032,2019_Jun_07_1255,mf_amp_cond1,3.0.7,59.979858819520324,
forced,&&&&&&,images/symbols/symbol_7.png,condition_files/AMP_rep3.csv,right,fairness.vice,,,,,,,,,,,,,,0,0,0,2,0,60,60,60,,,,,,,,,,,,,,,,,,,,,726.873700864613,,,,,,,,,,,,,,AMP_prac,left,4.134646636899561,3,,,right,0.766070150770247,,,,,,,,,,,,,,,,,,,,,,,,,1032,2019_Jun_07_1255,mf_amp_cond1,3.0.7,59.979858819520324,
hope,&&&&,images/symbols/symbol_25.png,condition_files/AMP_rep3.csv,left,loyalty.virtue,,,,,,,,,,,,,,0,0,0,2,0,61,61,61,,,,,,,,,,,,,,,,,,,,,727.9239933814388,,,,,,,,,,,,,,AMP_prac,left,4.134646636899561,3,,,left,0.8326455394271761,,,,,,,,,,,,,,,,,,,,,,,,,1032,2019_Jun_07_1255,mf_amp_cond1,3.0.7,59.979858819520324,
sharing,&&&&&&&,images/symbols/symbol_68.png,condition_files/AMP_rep3.csv,left,loyalty.virtue,,,,,,,,,,,,,,0,0,0,2,0,62,62,62,,,,,,,,,,,,,,,,,,,,,728.9409295690712,,,,,,,,,,,,,,AMP_prac,left,4.134646636899561,3,,,right,0.7837873031385243,,,,,,,,,,,,,,,,,,,,,,,,,1032,2019_Jun_07_1255,mf_amp_cond1,3.0.7,59.979858819520324,
accused,&&&&&&&,images/symbols/symbol_42.png,condition_files/AMP_rep3.csv,right,fairness.vice,,,,,,,,,,,,,,0,0,0,2,0,63,63,63,,,,,,,,,,,,,,,,,,,,,729.9911797505338,,,,,,,,,,,,,,AMP_prac,left,4.134646636899561,3,,,right,0.8320547644980252,,,,,,,,,,,,,,,,,,,,,,,,,1032,2019_Jun_07_1255,mf_amp_cond1,3.0.7,59.979858819520324,
hate,&&&&,images/symbols/symbol_80.png,condition_files/AMP_rep3.csv,right,fairness.vice,,,,,,,,,,,,,,0,0,0,2,0,64,64,64,,,,,,,,,,,,,,,,,,,,,730.9413109107409,,,,,,,,,,,,,,AMP_prac,left,4.134646636899561,3,,,right,0.7329655904322863,,,,,,,,,,,,,,,,,,,,,,,,,1032,2019_Jun_07_1255,mf_amp_cond1,3.0.7,59.979858819520324,
coacs,&&&&&,images/symbols/symbol_5.png,condition_files/AMP_rep3.csv,None,nonword,,,,,,,,,,,,,,0,0,0,2,0,65,65,65,,,,,,,,,,,,,,,,,,,,,731.908358373912,,,,,,,,,,,,,,AMP_prac,left,4.134646636899561,3,,,left,0.7494704034179449,,,,,,,,,,,,,,,,,,,,,,,,,1032,2019_Jun_07_1255,mf_amp_cond1,3.0.7,59.979858819520324,
corruption,&&&&&&&&&&,images/symbols/symbol_78.png,condition_files/AMP_rep3.csv,right,sanctity.vice,,,,,,,,,,,,,,0,0,0,2,0,66,66,66,,,,,,,,,,,,,,,,,,,,,732.7085651771631,,,,,,,,,,,,,,AMP_prac,left,4.134646636899561,3,,,right,0.5826316678430885,,,,,,,,,,,,,,,,,,,,,,,,,1032,2019_Jun_07_1255,mf_amp_cond1,3.0.7,59.979858819520324,
peace,&&&&&,images/symbols/symbol_2.png,condition_files/AMP_rep3.csv,left,care.virtue,,,,,,,,,,,,,,0,0,0,2,0,67,67,67,,,,,,,,,,,,,,,,,,,,,733.625480806455,,,,,,,,,,,,,,AMP_prac,left,4.134646636899561,3,,,right,0.699452105909586,,,,,,,,,,,,,,,,,,,,,,,,,1032,2019_Jun_07_1255,mf_amp_cond1,3.0.7,59.979858819520324,
penalty,&&&&&&&,images/symbols/symbol_48.png,condition_files/AMP_rep3.csv,right,authority.vice,,,,,,,,,,,,,,0,0,0,2,0,68,68,68,,,,,,,,,,,,,,,,,,,,,734.5090439550113,,,,,,,,,,,,,,AMP_prac,left,4.134646636899561,3,,,right,0.665874476544559,,,,,,,,,,,,,,,,,,,,,,,,,1032,2019_Jun_07_1255,mf_amp_cond1,3.0.7,59.979858819520324,
unpleasant,&&&&&&&&&,images/symbols/symbol_34.png,condition_files/AMP_rep3.csv,left,control,,,,,,,,,,,,,,0,0,0,2,0,69,69,69,,,,,,,,,,,,,,,,,,,,,735.7760555930436,,,,,,,,,,,,,,AMP_prac,left,4.134646636899561,3,,,left,1.0492828758433461,,,,,,,,,,,,,,,,,,,,,,,,,1032,2019_Jun_07_1255,mf_amp_cond1,3.0.7,59.979858819520324,
snauz,&&&&&,images/symbols/symbol_23.png,condition_files/AMP_rep3.csv,None,nonword,,,,,,,,,,,,,,0,0,0,2,0,70,70,70,,,,,,,,,,,,,,,,,,,,,737.0597067484632,,,,,,,,,,,,,,AMP_prac,left,4.134646636899561,3,,,right,1.0660981500986964,,,,,,,,,,,,,,,,,,,,,,,,,1032,2019_Jun_07_1255,mf_amp_cond1,3.0.7,59.979858819520324,
celebrated,&&&&&&&&&&,images/symbols/symbol_8.png,condition_files/AMP_rep3.csv,left,authority.virtue,,,,,,,,,,,,,,0,0,0,2,0,71,71,71,,,,,,,,,,,,,,,,,,,,,737.9932779313531,,,,,,,,,,,,,,AMP_prac,left,4.134646636899561,3,,,right,0.7161487124394625,,,,,,,,,,,,,,,,,,,,,,,,,1032,2019_Jun_07_1255,mf_amp_cond1,3.0.7,59.979858819520324,
victim,&&&&&&,images/symbols/symbol_61.png,condition_files/AMP_rep3.csv,right,care.vice,,,,,,,,,,,,,,0,0,0,2,0,72,72,72,,,,,,,,,,,,,,,,,,,,,738.9768744674511,,,,,,,,,,,,,,AMP_prac,left,4.134646636899561,3,,,left,0.7504229557234794,,,,,,,,,,,,,,,,,,,,,,,,,1032,2019_Jun_07_1255,mf_amp_cond1,3.0.7,59.979858819520324,
abuse,&&&&&,images/symbols/symbol_35.png,condition_files/AMP_rep3.csv,right,sanctity.vice,,,,,,,,,,,,,,0,0,0,2,0,73,73,73,,,,,,,,,,,,,,,,,,,,,739.8771342223044,,,,,,,,,,,,,,AMP_prac,left,4.134646636899561,3,,,right,0.6820704317651689,,,,,,,,,,,,,,,,,,,,,,,,,1032,2019_Jun_07_1255,mf_amp_cond1,3.0.7,59.979858819520324,
failure,&&&&&&&,images/symbols/symbol_59.png,condition_files/AMP_rep3.csv,right,loyalty.vice,,,,,,,,,,,,,,0,0,0,2,0,74,74,74,,,,,,,,,,,,,,,,,,,,,741.1941224634647,,,,,,,,,,,,,,AMP_prac,left,4.134646636899561,3,,,right,1.0994076535571367,,,,,,,,,,,,,,,,,,,,,,,,,1032,2019_Jun_07_1255,mf_amp_cond1,3.0.7,59.979858819520324,
troops,&&&&&&,images/symbols/symbol_9.png,condition_files/AMP_rep3.csv,right,loyalty.vice,,,,,,,,,,,,,,0,0,0,2,0,75,75,75,,,,,,,,,,,,,,,,,,,,,742.4611299321987,,,,,,,,,,,,,,AMP_prac,left,4.134646636899561,3,,,left,1.0492982703726739,,,,,,,,,,,,,,,,,,,,,,,,,1032,2019_Jun_07_1255,mf_amp_cond1,3.0.7,59.979858819520324,
wayed,&&&&&,images/symbols/symbol_10.png,condition_files/AMP_rep3.csv,None,nonword,,,,,,,,,,,,,,0,0,0,2,0,76,76,76,,,,,,,,,,,,,,,,,,,,,743.3613611427136,,,,,,,,,,,,,,AMP_prac,left,4.134646636899561,3,,,right,0.6828369637951255,,,,,,,,,,,,,,,,,,,,,,,,,1032,2019_Jun_07_1255,mf_amp_cond1,3.0.7,59.979858819520324,
wence,&&&&&,images/symbols/symbol_14.png,condition_files/AMP_rep3.csv,None,nonword,,,,,,,,,,,,,,0,0,0,2,0,77,77,77,,,,,,,,,,,,,,,,,,,,,744.5783422959503,,,,,,,,,,,,,,AMP_prac,left,4.134646636899561,3,,,left,0.9993495703674853,,,,,,,,,,,,,,,,,,,,,,,,,1032,2019_Jun_07_1255,mf_amp_cond1,3.0.7,59.979858819520324,
faith,&&&&&,images/symbols/symbol_30.png,condition_files/AMP_rep3.csv,left,sanctity.virtue,,,,,,,,,,,,,,0,0,0,2,0,78,78,78,,,,,,,,,,,,,,,,,,,,,745.7786634054501,,,,,,,,,,,,,,AMP_prac,left,4.134646636899561,3,,,left,0.9829727264586836,,,,,,,,,,,,,,,,,,,,,,,,,1032,2019_Jun_07_1255,mf_amp_cond1,3.0.7,59.979858819520324,
roossed,&&&&&&&,images/symbols/symbol_54.png,condition_files/AMP_rep3.csv,None,nonword,,,,,,,,,,,,,,0,0,0,2,0,79,79,79,,,,,,,,,,,,,,,,,,,,,746.8956256038509,,,,,,,,,,,,,,AMP_prac,left,4.134646636899561,3,,,left,0.8837959947995842,,,,,,,,,,,,,,,,,,,,,,,,,1032,2019_Jun_07_1255,mf_amp_cond1,3.0.7,59.979858819520324,
attacks,&&&&&&&,images/symbols/symbol_47.png,condition_files/AMP_rep3.csv,right,care.vice,,,,,,,,,,,,,,0,0,0,2,0,80,80,80,,,,,,,,,,,,,,,,,,,,,747.945905291941,,,,,,,,,,,,,,AMP_prac,left,4.134646636899561,3,,,left,0.8322680462151766,,,,,,,,,,,,,,,,,,,,,,,,,1032,2019_Jun_07_1255,mf_amp_cond1,3.0.7,59.979858819520324,
pleasant,&&&&&&&,images/symbols/symbol_63.png,condition_files/AMP_rep3.csv,right,control,,,,,,,,,,,,,,0,0,0,2,0,81,81,81,,,,,,,,,,,,,,,,,,,,,749.1128838632721,,,,,,,,,,,,,,AMP_prac,left,4.134646636899561,3,,,right,0.9495961915235966,,,,,,,,,,,,,,,,,,,,,,,,,1032,2019_Jun_07_1255,mf_amp_cond1,3.0.7,59.979858819520324,
,,,condition_files/AMP_rep3.csv,,,,,,,,,,,,,,,,0,0,0,2,,,,,,,,,,,,,,,,,,,,,,,,,,,,,,,,,,,,,,,,,,,,,,,right,5.301602116087452,,,,,,,,,,,,,,,,,,,,,,,1032,2019_Jun_07_1255,mf_amp_cond1,3.0.7,59.979858819520324,
hand,&&&&,images/symbols/symbol_26.png,condition_files/AMP_rep1.csv,left,sanctity.virtue,,,,,,,,,,,,,,0,1,1,0,0,0,0,0,,,,,,,,,,,,,,,,,,,,,756.9984027910978,,,,,,,,,,,,,,AMP_prac,left,4.134646636899561,3,,,left,2.3341745941434056,,,,,,,,,,,,,,,,,,,,,,,,,1032,2019_Jun_07_1255,mf_amp_cond1,3.0.7,59.979858819520324,
promised,&&&&&&&&,images/symbols/symbol_33.png,condition_files/AMP_rep1.csv,left,loyalty.virtue,,,,,,,,,,,,,,0,1,1,0,0,1,1,1,,,,,,,,,,,,,,,,,,,,,759.4822964784689,,,,,,,,,,,,,,AMP_prac,left,4.134646636899561,3,,,left,2.2661713394336402,,,,,,,,,,,,,,,,,,,,,,,,,1032,2019_Jun_07_1255,mf_amp_cond1,3.0.7,59.979858819520324,
friends,&&&&&&&,images/symbols/symbol_11.png,condition_files/AMP_rep1.csv,left,loyalty.virtue,,,,,,,,,,,,,,0,1,1,0,0,2,2,2,,,,,,,,,,,,,,,,,,,,,761.9829165996052,,,,,,,,,,,,,,AMP_prac,left,4.134646636899561,3,,,left,2.2829907834529877,,,,,,,,,,,,,,,,,,,,,,,,,1032,2019_Jun_07_1255,mf_amp_cond1,3.0.7,59.979858819520324,
commitment,&&&&&&&&&&,images/symbols/symbol_15.png,condition_files/AMP_rep1.csv,left,sanctity.virtue,,,,,,,,,,,,,,0,1,1,0,0,3,3,3,,,,,,,,,,,,,,,,,,,,,762.9998505422845,,,,,,,,,,,,,,AMP_prac,left,4.134646636899561,3,,,right,0.7994473271537572,,,,,,,,,,,,,,,,,,,,,,,,,1032,2019_Jun_07_1255,mf_amp_cond1,3.0.7,59.979858819520324,
fighters,&&&&&&&&,images/symbols/symbol_73.png,condition_files/AMP_rep1.csv,right,authority.vice,,,,,,,,,,,,,,0,1,1,0,0,4,4,4,,,,,,,,,,,,,,,,,,,,,764.1668297550641,,,,,,,,,,,,,,AMP_prac,left,4.134646636899561,3,,,right,0.9338081984315068,,,,,,,,,,,,,,,,,,,,,,,,,1032,2019_Jun_07_1255,mf_amp_cond1,3.0.7,59.979858819520324,
credit,&&&&&&,images/symbols/symbol_58.png,condition_files/AMP_rep1.csv,left,fairness.virtue,,,,,,,,,,,,,,0,1,1,0,0,5,5,5,,,,,,,,,,,,,,,,,,,,,766.0506594260223,,,,,,,,,,,,,,AMP_prac,left,4.134646636899561,3,,,left,1.6656560632400215,,,,,,,,,,,,,,,,,,,,,,,,,1032,2019_Jun_07_1255,mf_amp_cond1,3.0.7,59.979858819520324,
stryct,&&&&&&,images/symbols/symbol_65.png,condition_files/AMP_rep1.csv,None,nonword,,,,,,,,,,,,,,0,1,1,0,0,6,6,6,,,,,,,,,,,,,,,,,,,,,766.8674050390255,,,,,,,,,,,,,,AMP_prac,left,4.134646636899561,3,,,right,0.599189400440082,,,,,,,,,,,,,,,,,,,,,,,,,1032,2019_Jun_07_1255,mf_amp_cond1,3.0.7,59.979858819520324,
suicide,&&&&&&&,images/symbols/symbol_38.png,condition_files/AMP_rep1.csv,right,care.vice,,,,,,,,,,,,,,0,1,1,0,0,7,7,7,,,,,,,,,,,,,,,,,,,,,767.8344515399076,,,,,,,,,,,,,,AMP_prac,left,4.134646636899561,3,,,left,0.749319983413443,,,,,,,,,,,,,,,,,,,,,,,,,1032,2019_Jun_07_1255,mf_amp_cond1,3.0.7,59.979858819520324,
war,&&&,images/symbols/symbol_57.png,condition_files/AMP_rep1.csv,right,sanctity.vice,,,,,,,,,,,,,,0,1,1,0,0,8,8,8,,,,,,,,,,,,,,,,,,,,,768.9013964030892,,,,,,,,,,,,,,AMP_prac,left,4.134646636899561,3,,,left,0.8494252134114504,,,,,,,,,,,,,,,,,,,,,,,,,1032,2019_Jun_07_1255,mf_amp_cond1,3.0.7,59.979858819520324,
soughste,&&&&&&&&,images/symbols/symbol_50.png,condition_files/AMP_rep1.csv,None,nonword,,,,,,,,,,,,,,0,1,1,0,0,9,9,9,,,,,,,,,,,,,,,,,,,,,769.7349601772148,,,,,,,,,,,,,,AMP_prac,left,4.134646636899561,3,,,right,0.6160704232752323,,,,,,,,,,,,,,,,,,,,,,,,,1032,2019_Jun_07_1255,mf_amp_cond1,3.0.7,59.979858819520324,
freedom,&&&&&&&,images/symbols/symbol_82.png,condition_files/AMP_rep1.csv,left,sanctity.virtue,,,,,,,,,,,,,,0,1,1,0,0,10,10,10,,,,,,,,,,,,,,,,,,,,,772.5523594270926,,,,,,,,,,,,,,AMP_prac,left,4.134646636899561,3,,,left,2.6002391325309873,,,,,,,,,,,,,,,,,,,,,,,,,1032,2019_Jun_07_1255,mf_amp_cond1,3.0.7,59.979858819520324,
growth,&&&&&&,images/symbols/symbol_17.png,condition_files/AMP_rep1.csv,left,care.virtue,,,,,,,,,,,,,,0,1,1,0,0,11,11,11,,,,,,,,,,,,,,,,,,,,,773.5692847101018,,,,,,,,,,,,,,AMP_prac,left,4.134646636899561,3,,,left,0.799277343088761,,,,,,,,,,,,,,,,,,,,,,,,,1032,2019_Jun_07_1255,mf_amp_cond1,3.0.7,59.979858819520324,
energy,&&&&&&,images/symbols/symbol_75.png,condition_files/AMP_rep1.csv,left,sanctity.virtue,,,,,,,,,,,,,,0,1,1,0,0,12,12,12,,,,,,,,,,,,,,,,,,,,,774.6028934498318,,,,,,,,,,,,,,AMP_prac,left,4.134646636899561,3,,,right,0.8004341970663518,,,,,,,,,,,,,,,,,,,,,,,,,1032,2019_Jun_07_1255,mf_amp_cond1,3.0.7,59.979858819520324,
lies,&&&&,images/symbols/symbol_21.png,condition_files/AMP_rep1.csv,right,fairness.vice,,,,,,,,,,,,,,0,1,1,0,0,13,13,13,,,,,,,,,,,,,,,,,,,,,775.4197769744787,,,,,,,,,,,,,,AMP_prac,left,4.134646636899561,3,,,right,0.5989196710288525,,,,,,,,,,,,,,,,,,,,,,,,,1032,2019_Jun_07_1255,mf_amp_cond1,3.0.7,59.979858819520324,
benefit,&&&&&&&,images/symbols/symbol_44.png,condition_files/AMP_rep1.csv,left,fairness.virtue,,,,,,,,,,,,,,0,1,1,0,0,14,14,14,,,,,,,,,,,,,,,,,,,,,777.7703986510169,,,,,,,,,,,,,,AMP_prac,left,4.134646636899561,3,,,right,2.1330353158991784,,,,,,,,,,,,,,,,,,,,,,,,,1032,2019_Jun_07_1255,mf_amp_cond1,3.0.7,59.979858819520324,
honored,&&&&&&&,images/symbols/symbol_52.png,condition_files/AMP_rep1.csv,left,authority.virtue,,,,,,,,,,,,,,0,1,1,0,0,15,15,15,,,,,,,,,,,,,,,,,,,,,779.0540632770862,,,,,,,,,,,,,,AMP_prac,left,4.134646636899561,3,,,right,1.0666023292578757,,,,,,,,,,,,,,,,,,,,,,,,,1032,2019_Jun_07_1255,mf_amp_cond1,3.0.7,59.979858819520324,
betrayal,&&&&&&&&,images/symbols/symbol_36.png,condition_files/AMP_rep1.csv,right,loyalty.vice,,,,,,,,,,,,,,0,1,1,0,0,16,16,16,,,,,,,,,,,,,,,,,,,,,779.8709439150989,,,,,,,,,,,,,,AMP_prac,left,4.134646636899561,3,,,left,0.5992503382731229,,,,,,,,,,,,,,,,,,,,,,,,,1032,2019_Jun_07_1255,mf_amp_cond1,3.0.7,59.979858819520324,
violence,&&&&&&&&,images/symbols/symbol_22.png,condition_files/AMP_rep1.csv,right,care.vice,,,,,,,,,,,,,,0,1,1,0,0,17,17,17,,,,,,,,,,,,,,,,,,,,,780.7545051393099,,,,,,,,,,,,,,AMP_prac,left,4.134646636899561,3,,,right,0.6659758256282657,,,,,,,,,,,,,,,,,,,,,,,,,1032,2019_Jun_07_1255,mf_amp_cond1,3.0.7,59.979858819520324,
shot,&&&&,images/symbols/symbol_31.png,condition_files/AMP_rep1.csv,right,care.vice,,,,,,,,,,,,,,0,1,1,0,0,18,18,18,,,,,,,,,,,,,,,,,,,,,782.0048387732822,,,,,,,,,,,,,,AMP_prac,left,4.134646636899561,3,,,left,1.0171667886897922,,,,,,,,,,,,,,,,,,,,,,,,,1032,2019_Jun_07_1255,mf_amp_cond1,3.0.7,59.979858819520324,
refused,&&&&&&&,images/symbols/symbol_1.png,condition_files/AMP_rep1.csv,right,authority.vice,,,,,,,,,,,,,,0,1,1,0,0,19,19,19,,,,,,,,,,,,,,,,,,,,,782.7550538992509,,,,,,,,,,,,,,AMP_prac,left,4.134646636899561,3,,,right,0.5317935983184725,,,,,,,,,,,,,,,,,,,,,,,,,1032,2019_Jun_07_1255,mf_amp_cond1,3.0.7,59.979858819520324,
terrorists,&&&&&&&&&&,images/symbols/symbol_6.png,condition_files/AMP_rep1.csv,right,fairness.vice,,,,,,,,,,,,,,0,1,1,0,0,20,20,20,,,,,,,,,,,,,,,,,,,,,783.6386019738857,,,,,,,,,,,,,,AMP_prac,left,4.134646636899561,3,,,right,0.6658760802820325,,,,,,,,,,,,,,,,,,,,,,,,,1032,2019_Jun_07_1255,mf_amp_cond1,3.0.7,59.979858819520324,
progress,&&&&&&&&,images/symbols/symbol_24.png,condition_files/AMP_rep1.csv,left,authority.virtue,,,,,,,,,,,,,,0,1,1,0,0,21,21,21,,,,,,,,,,,,,,,,,,,,,784.4221413568594,,,,,,,,,,,,,,AMP_prac,left,4.134646636899561,3,,,right,0.5657807930838317,,,,,,,,,,,,,,,,,,,,,,,,,1032,2019_Jun_07_1255,mf_amp_cond1,3.0.7,59.979858819520324,
embrace,&&&&&&&,images/symbols/symbol_64.png,condition_files/AMP_rep1.csv,left,authority.virtue,,,,,,,,,,,,,,0,1,1,0,0,22,22,22,,,,,,,,,,,,,,,,,,,,,785.4057212150656,,,,,,,,,,,,,,AMP_prac,left,4.134646636899561,3,,,right,0.7504309739451855,,,,,,,,,,,,,,,,,,,,,,,,,1032,2019_Jun_07_1255,mf_amp_cond1,3.0.7,59.979858819520324,
powerful,&&&&&&&&,images/symbols/symbol_16.png,condition_files/AMP_rep1.csv,left,authority.virtue,,,,,,,,,,,,,,0,1,1,0,0,23,23,23,,,,,,,,,,,,,,,,,,,,,786.1892612394877,,,,,,,,,,,,,,AMP_prac,left,4.134646636899561,3,,,right,0.5656297318637371,,,,,,,,,,,,,,,,,,,,,,,,,1032,2019_Jun_07_1255,mf_amp_cond1,3.0.7,59.979858819520324,
agreement,&&&&&&&&&,images/symbols/symbol_45.png,condition_files/AMP_rep1.csv,left,fairness.virtue,,,,,,,,,,,,,,0,1,1,0,0,24,24,24,,,,,,,,,,,,,,,,,,,,,787.2228872983251,,,,,,,,,,,,,,AMP_prac,left,4.134646636899561,3,,,left,0.816030397079885,,,,,,,,,,,,,,,,,,,,,,,,,1032,2019_Jun_07_1255,mf_amp_cond1,3.0.7,59.979858819520324,
respect,&&&&&&&,images/symbols/symbol_41.png,condition_files/AMP_rep1.csv,left,sanctity.virtue,,,,,,,,,,,,,,0,1,1,0,0,25,25,25,,,,,,,,,,,,,,,,,,,,,788.8900164498482,,,,,,,,,,,,,,AMP_prac,left,4.134646636899561,3,,,left,1.4500787218566984,,,,,,,,,,,,,,,,,,,,,,,,,1032,2019_Jun_07_1255,mf_amp_cond1,3.0.7,59.979858819520324,
slavery,&&&&&&&,images/symbols/symbol_77.png,condition_files/AMP_rep1.csv,right,loyalty.vice,,,,,,,,,,,,,,0,1,1,0,0,26,26,26,,,,,,,,,,,,,,,,,,,,,790.0069308604579,,,,,,,,,,,,,,AMP_prac,left,4.134646636899561,3,,,left,0.8990823747590184,,,,,,,,,,,,,,,,,,,,,,,,,1032,2019_Jun_07_1255,mf_amp_cond1,3.0.7,59.979858819520324,
safety,&&&&&&,images/symbols/symbol_4.png,condition_files/AMP_rep1.csv,left,care.virtue,,,,,,,,,,,,,,0,1,1,0,0,27,27,27,,,,,,,,,,,,,,,,,,,,,791.2072433102876,,,,,,,,,,,,,,AMP_prac,left,4.134646636899561,3,,,left,0.982640135101974,,,,,,,,,,,,,,,,,,,,,,,,,1032,2019_Jun_07_1255,mf_amp_cond1,3.0.7,59.979858819520324,
perfect,&&&&&&&,images/symbols/symbol_18.png,condition_files/AMP_rep1.csv,left,sanctity.virtue,,,,,,,,,,,,,,0,1,1,0,0,28,28,28,,,,,,,,,,,,,,,,,,,,,794.2747228215449,,,,,,,,,,,,,,AMP_prac,left,4.134646636899561,3,,,right,2.8343059308826923,,,,,,,,,,,,,,,,,,,,,,,,,1032,2019_Jun_07_1255,mf_amp_cond1,3.0.7,59.979858819520324,
blamed,&&&&&&,images/symbols/symbol_69.png,condition_files/AMP_rep1.csv,right,loyalty.vice,,,,,,,,,,,,,,0,1,1,0,0,29,29,29,,,,,,,,,,,,,,,,,,,,,796.4919663276523,,,,,,,,,,,,,,AMP_prac,left,4.134646636899561,3,,,right,1.9840805097483099,,,,,,,,,,,,,,,,,,,,,,,,,1032,2019_Jun_07_1255,mf_amp_cond1,3.0.7,59.979858819520324,
fair,&&&&,images/symbols/symbol_13.png,condition_files/AMP_rep1.csv,left,fairness.virtue,,,,,,,,,,,,,,0,1,1,0,0,30,30,30,,,,,,,,,,,,,,,,,,,,,797.5589124739636,,,,,,,,,,,,,,AMP_prac,left,4.134646636899561,3,,,right,0.8337889227550477,,,,,,,,,,,,,,,,,,,,,,,,,1032,2019_Jun_07_1255,mf_amp_cond1,3.0.7,59.979858819520324,
spynze,&&&&&&,images/symbols/symbol_79.png,condition_files/AMP_rep1.csv,None,nonword,,,,,,,,,,,,,,0,1,1,0,0,31,31,31,,,,,,,,,,,,,,,,,,,,,799.0426390636712,,,,,,,,,,,,,,AMP_prac,left,4.134646636899561,3,,,left,1.2654930066782981,,,,,,,,,,,,,,,,,,,,,,,,,1032,2019_Jun_07_1255,mf_amp_cond1,3.0.7,59.979858819520324,
scandal,&&&&&&&,images/symbols/symbol_39.png,condition_files/AMP_rep1.csv,right,sanctity.vice,,,,,,,,,,,,,,0,1,1,0,0,32,32,32,,,,,,,,,,,,,,,,,,,,,799.7928368707653,,,,,,,,,,,,,,AMP_prac,left,4.134646636899561,3,,,right,0.5324982304591686,,,,,,,,,,,,,,,,,,,,,,,,,1032,2019_Jun_07_1255,mf_amp_cond1,3.0.7,59.979858819520324,
prosecution,&&&&&&&&&&&,images/symbols/symbol_40.png,condition_files/AMP_rep1.csv,right,authority.vice,,,,,,,,,,,,,,0,1,1,0,0,33,33,33,,,,,,,,,,,,,,,,,,,,,800.9264616786968,,,,,,,,,,,,,,AMP_prac,left,4.134646636899561,3,,,left,0.9159650010988116,,,,,,,,,,,,,,,,,,,,,,,,,1032,2019_Jun_07_1255,mf_amp_cond1,3.0.7,59.979858819520324,
conspiracy,&&&&&&&&&&,images/symbols/symbol_29.png,condition_files/AMP_rep1.csv,right,sanctity.vice,,,,,,,,,,,,,,0,1,1,0,0,34,34,34,,,,,,,,,,,,,,,,,,,,,802.1934893529397,,,,,,,,,,,,,,AMP_prac,left,4.134646636899561,3,,,right,1.0492382950615138,,,,,,,,,,,,,,,,,,,,,,,,,1032,2019_Jun_07_1255,mf_amp_cond1,3.0.7,59.979858819520324,
useful,&&&&&&,images/symbols/symbol_76.png,condition_files/AMP_rep1.csv,left,authority.virtue,,,,,,,,,,,,,,0,1,1,0,0,35,35,35,,,,,,,,,,,,,,,,,,,,,803.3270888237748,,,,,,,,,,,,,,AMP_prac,left,4.134646636899561,3,,,left,0.9165439093485475,,,,,,,,,,,,,,,,,,,,,,,,,1032,2019_Jun_07_1255,mf_amp_cond1,3.0.7,59.979858819520324,
ban,&&&,images/symbols/symbol_70.png,condition_files/AMP_rep1.csv,right,loyalty.vice,,,,,,,,,,,,,,0,1,1,0,0,36,36,36,,,,,,,,,,,,,,,,,,,,,804.2773392936215,,,,,,,,,,,,,,AMP_prac,left,4.134646636899561,3,,,right,0.7170826625078917,,,,,,,,,,,,,,,,,,,,,,,,,1032,2019_Jun_07_1255,mf_amp_cond1,3.0.7,59.979858819520324,
terrorist,&&&&&&&&&,images/symbols/symbol_66.png,condition_files/AMP_rep1.csv,right,loyalty.vice,,,,,,,,,,,,,,0,1,1,0,0,37,37,37,,,,,,,,,,,,,,,,,,,,,805.8444276812952,,,,,,,,,,,,,,AMP_prac,left,4.134646636899561,3,,,right,1.3490809150971472,,,,,,,,,,,,,,,,,,,,,,,,,1032,2019_Jun_07_1255,mf_amp_cond1,3.0.7,59.979858819520324,
rejected,&&&&&&&&,images/symbols/symbol_49.png,condition_files/AMP_rep1.csv,right,authority.vice,,,,,,,,,,,,,,0,1,1,0,0,38,38,38,,,,,,,,,,,,,,,,,,,,,806.9113670920487,,,,,,,,,,,,,,AMP_prac,left,4.134646636899561,3,,,left,0.8337866775691509,,,,,,,,,,,,,,,,,,,,,,,,,1032,2019_Jun_07_1255,mf_amp_cond1,3.0.7,59.979858819520324,
serial,&&&&&&,images/symbols/symbol_71.png,condition_files/AMP_rep1.csv,right,sanctity.vice,,,,,,,,,,,,,,0,1,1,0,0,39,39,39,,,,,,,,,,,,,,,,,,,,,808.6618282140698,,,,,,,,,,,,,,AMP_prac,left,4.134646636899561,3,,,left,1.5322778925765306,,,,,,,,,,,,,,,,,,,,,,,,,1032,2019_Jun_07_1255,mf_amp_cond1,3.0.7,59.979858819520324,
illegal,&&&&&&&,images/symbols/symbol_19.png,condition_files/AMP_rep1.csv,right,fairness.vice,,,,,,,,,,,,,,0,1,1,0,0,40,40,40,,,,,,,,,,,,,,,,,,,,,810.2122286548838,,,,,,,,,,,,,,AMP_prac,left,4.134646636899561,3,,,left,1.3172464247327298,,,,,,,,,,,,,,,,,,,,,,,,,1032,2019_Jun_07_1255,mf_amp_cond1,3.0.7,59.979858819520324,
peaceful,&&&&&&&&,images/symbols/symbol_60.png,condition_files/AMP_rep1.csv,left,authority.virtue,,,,,,,,,,,,,,0,1,1,0,0,41,41,41,,,,,,,,,,,,,,,,,,,,,811.1624845771585,,,,,,,,,,,,,,AMP_prac,left,4.134646636899561,3,,,left,0.7320640331599861,,,,,,,,,,,,,,,,,,,,,,,,,1032,2019_Jun_07_1255,mf_amp_cond1,3.0.7,59.979858819520324,
crict,&&&&&,images/symbols/symbol_74.png,condition_files/AMP_rep1.csv,None,nonword,,,,,,,,,,,,,,0,1,1,0,0,42,42,42,,,,,,,,,,,,,,,,,,,,,812.2127597748768,,,,,,,,,,,,,,AMP_prac,left,4.134646636899561,3,,,left,0.8170968065969646,,,,,,,,,,,,,,,,,,,,,,,,,1032,2019_Jun_07_1255,mf_amp_cond1,3.0.7,59.979858819520324,
died,&&&&,images/symbols/symbol_43.png,condition_files/AMP_rep1.csv,right,care.vice,,,,,,,,,,,,,,0,1,1,0,0,43,43,43,,,,,,,,,,,,,,,,,,,,,813.4297476634383,,,,,,,,,,,,,,AMP_prac,left,4.134646636899561,3,,,left,0.9838220055680722,,,,,,,,,,,,,,,,,,,,,,,,,1032,2019_Jun_07_1255,mf_amp_cond1,3.0.7,59.979858819520324,
ensure,&&&&&&,images/symbols/symbol_3.png,condition_files/AMP_rep1.csv,left,fairness.virtue,,,,,,,,,,,,,,0,1,1,0,0,44,44,44,,,,,,,,,,,,,,,,,,,,,815.5969731928781,,,,,,,,,,,,,,AMP_prac,left,4.134646636899561,3,,,right,1.9490769382100552,,,,,,,,,,,,,,,,,,,,,,,,,1032,2019_Jun_07_1255,mf_amp_cond1,3.0.7,59.979858819520324,
support,&&&&&&&,images/symbols/symbol_37.png,condition_files/AMP_rep1.csv,left,loyalty.virtue,,,,,,,,,,,,,,0,1,1,0,0,45,45,45,,,,,,,,,,,,,,,,,,,,,816.4138605662156,,,,,,,,,,,,,,AMP_prac,left,4.134646636899561,3,,,right,0.5990409047808498,,,,,,,,,,,,,,,,,,,,,,,,,1032,2019_Jun_07_1255,mf_amp_cond1,3.0.7,59.979858819520324,
sexual,&&&&&&,images/symbols/symbol_81.png,condition_files/AMP_rep1.csv,right,sanctity.vice,,,,,,,,,,,,,,0,1,1,0,0,46,46,46,,,,,,,,,,,,,,,,,,,,,817.6475290246308,,,,,,,,,,,,,,AMP_prac,left,4.134646636899561,3,,,right,1.015905057778582,,,,,,,,,,,,,,,,,,,,,,,,,1032,2019_Jun_07_1255,mf_amp_cond1,3.0.7,59.979858819520324,
increase,&&&&&&&&,images/symbols/symbol_55.png,condition_files/AMP_rep1.csv,left,care.virtue,,,,,,,,,,,,,,0,1,1,0,0,47,47,47,,,,,,,,,,,,,,,,,,,,,819.1812562721316,,,,,,,,,,,,,,AMP_prac,left,4.134646636899561,3,,,left,1.3005745140835643,,,,,,,,,,,,,,,,,,,,,,,,,1032,2019_Jun_07_1255,mf_amp_cond1,3.0.7,59.979858819520324,
voter,&&&&&,images/symbols/symbol_72.png,condition_files/AMP_rep1.csv,right,fairness.vice,,,,,,,,,,,,,,0,1,1,0,0,48,48,48,,,,,,,,,,,,,,,,,,,,,820.1314987239894,,,,,,,,,,,,,,AMP_prac,left,4.134646636899561,3,,,right,0.731981927761808,,,,,,,,,,,,,,,,,,,,,,,,,1032,2019_Jun_07_1255,mf_amp_cond1,3.0.7,59.979858819520324,
restore,&&&&&&&,images/symbols/symbol_27.png,condition_files/AMP_rep1.csv,left,care.virtue,,,,,,,,,,,,,,0,1,1,0,0,49,49,49,,,,,,,,,,,,,,,,,,,,,821.265155604342,,,,,,,,,,,,,,AMP_prac,left,4.134646636899561,3,,,right,0.9004884315654635,,,,,,,,,,,,,,,,,,,,,,,,,1032,2019_Jun_07_1255,mf_amp_cond1,3.0.7,59.979858819520324,
praised,&&&&&&&,images/symbols/symbol_56.png,condition_files/AMP_rep1.csv,left,loyalty.virtue,,,,,,,,,,,,,,0,1,1,0,0,50,50,50,,,,,,,,,,,,,,,,,,,,,822.0653492580168,,,,,,,,,,,,,,AMP_prac,left,4.134646636899561,3,,,right,0.5670579187572002,,,,,,,,,,,,,,,,,,,,,,,,,1032,2019_Jun_07_1255,mf_amp_cond1,3.0.7,59.979858819520324,
health,&&&&&&,images/symbols/symbol_28.png,condition_files/AMP_rep1.csv,left,care.virtue,,,,,,,,,,,,,,0,1,1,0,0,51,51,51,,,,,,,,,,,,,,,,,,,,,823.0322604130488,,,,,,,,,,,,,,AMP_prac,left,4.134646636899561,3,,,left,0.7487118896096945,,,,,,,,,,,,,,,,,,,,,,,,,1032,2019_Jun_07_1255,mf_amp_cond1,3.0.7,59.979858819520324,
civilians,&&&&&&&&&,images/symbols/symbol_12.png,condition_files/AMP_rep1.csv,right,care.vice,,,,,,,,,,,,,,0,1,1,0,0,52,52,52,,,,,,,,,,,,,,,,,,,,,824.0491946763359,,,,,,,,,,,,,,AMP_prac,left,4.134646636899561,3,,,right,0.7837728704325855,,,,,,,,,,,,,,,,,,,,,,,,,1032,2019_Jun_07_1255,mf_amp_cond1,3.0.7,59.979858819520324,
gun,&&&,images/symbols/symbol_20.png,condition_files/AMP_rep1.csv,right,authority.vice,,,,,,,,,,,,,,0,1,1,0,0,53,53,53,,,,,,,,,,,,,,,,,,,,,827.1666783730034,,,,,,,,,,,,,,AMP_prac,left,4.134646636899561,3,,,left,2.899976555025205,,,,,,,,,,,,,,,,,,,,,,,,,1032,2019_Jun_07_1255,mf_amp_cond1,3.0.7,59.979858819520324,
protect,&&&&&&&,images/symbols/symbol_62.png,condition_files/AMP_rep1.csv,left,fairness.virtue,,,,,,,,,,,,,,0,1,1,0,0,54,54,54,,,,,,,,,,,,,,,,,,,,,828.0169217549264,,,,,,,,,,,,,,AMP_prac,left,4.134646636899561,3,,,left,0.6170736502390355,,,,,,,,,,,,,,,,,,,,,,,,,1032,2019_Jun_07_1255,mf_amp_cond1,3.0.7,59.979858819520324,
loyalty,&&&&&&&,images/symbols/symbol_32.png,condition_files/AMP_rep1.csv,left,loyalty.virtue,,,,,,,,,,,,,,0,1,1,0,0,55,55,55,,,,,,,,,,,,,,,,,,,,,828.9171552103944,,,,,,,,,,,,,,AMP_prac,left,4.134646636899561,3,,,left,0.6819610646925867,,,,,,,,,,,,,,,,,,,,,,,,,1032,2019_Jun_07_1255,mf_amp_cond1,3.0.7,59.979858819520324,
protesters,&&&&&&&&&&,images/symbols/symbol_46.png,condition_files/AMP_rep1.csv,right,authority.vice,,,,,,,,,,,,,,0,1,1,0,0,56,56,56,,,,,,,,,,,,,,,,,,,,,831.117713014828,,,,,,,,,,,,,,AMP_prac,left,4.134646636899561,3,,,left,1.9829794617835432,,,,,,,,,,,,,,,,,,,,,,,,,1032,2019_Jun_07_1255,mf_amp_cond1,3.0.7,59.979858819520324,
interests,&&&&&&&&&,images/symbols/symbol_51.png,condition_files/AMP_rep1.csv,left,fairness.virtue,,,,,,,,,,,,,,0,1,1,0,0,57,57,57,,,,,,,,,,,,,,,,,,,,,833.4016483323649,,,,,,,,,,,,,,AMP_prac,left,4.134646636899561,3,,,left,2.050756605574861,,,,,,,,,,,,,,,,,,,,,,,,,1032,2019_Jun_07_1255,mf_amp_cond1,3.0.7,59.979858819520324,
frord,&&&&&,images/symbols/symbol_67.png,condition_files/AMP_rep1.csv,None,nonword,,,,,,,,,,,,,,0,1,1,0,0,58,58,58,,,,,,,,,,,,,,,,,,,,,835.0354070428293,,,,,,,,,,,,,,AMP_prac,left,4.134646636899561,3,,,left,1.4152974127791822,,,,,,,,,,,,,,,,,,,,,,,,,1032,2019_Jun_07_1255,mf_amp_cond1,3.0.7,59.979858819520324,
improve,&&&&&&&,images/symbols/symbol_53.png,condition_files/AMP_rep1.csv,left,care.virtue,,,,,,,,,,,,,,0,1,1,0,0,59,59,59,,,,,,,,,,,,,,,,,,,,,836.0523380988743,,,,,,,,,,,,,,AMP_prac,left,4.134646636899561,3,,,right,0.7993681083898991,,,,,,,,,,,,,,,,,,,,,,,,,1032,2019_Jun_07_1255,mf_amp_cond1,3.0.7,59.979858819520324,
forced,&&&&&&,images/symbols/symbol_7.png,condition_files/AMP_rep1.csv,right,fairness.vice,,,,,,,,,,,,,,0,1,1,0,0,60,60,60,,,,,,,,,,,,,,,,,,,,,836.9359374893829,,,,,,,,,,,,,,AMP_prac,left,4.134646636899561,3,,,right,0.6504277344793081,,,,,,,,,,,,,,,,,,,,,,,,,1032,2019_Jun_07_1255,mf_amp_cond1,3.0.7,59.979858819520324,
hope,&&&&,images/symbols/symbol_25.png,condition_files/AMP_rep1.csv,left,loyalty.virtue,,,,,,,,,,,,,,0,1,1,0,0,61,61,61,,,,,,,,,,,,,,,,,,,,,837.9028480029665,,,,,,,,,,,,,,AMP_prac,left,4.134646636899561,3,,,left,0.7486201622523367,,,,,,,,,,,,,,,,,,,,,,,,,1032,2019_Jun_07_1255,mf_amp_cond1,3.0.7,59.979858819520324,
sharing,&&&&&&&,images/symbols/symbol_68.png,condition_files/AMP_rep1.csv,left,loyalty.virtue,,,,,,,,,,,,,,0,1,1,0,0,62,62,62,,,,,,,,,,,,,,,,,,,,,838.9030927158892,,,,,,,,,,,,,,AMP_prac,left,4.134646636899561,3,,,right,0.7670676044654101,,,,,,,,,,,,,,,,,,,,,,,,,1032,2019_Jun_07_1255,mf_amp_cond1,3.0.7,59.979858819520324,
accused,&&&&&&&,images/symbols/symbol_42.png,condition_files/AMP_rep1.csv,right,fairness.vice,,,,,,,,,,,,,,0,1,1,0,0,63,63,63,,,,,,,,,,,,,,,,,,,,,840.070083795581,,,,,,,,,,,,,,AMP_prac,left,4.134646636899561,3,,,left,0.9487395358737558,,,,,,,,,,,,,,,,,,,,,,,,,1032,2019_Jun_07_1255,mf_amp_cond1,3.0.7,59.979858819520324,
hate,&&&&,images/symbols/symbol_80.png,condition_files/AMP_rep1.csv,right,fairness.vice,,,,,,,,,,,,,,0,1,1,0,0,64,64,64,,,,,,,,,,,,,,,,,,,,,841.7205121715087,,,,,,,,,,,,,,AMP_prac,left,4.134646636899561,3,,,left,1.4332515806891024,,,,,,,,,,,,,,,,,,,,,,,,,1032,2019_Jun_07_1255,mf_amp_cond1,3.0.7,59.979858819520324,
coacs,&&&&&,images/symbols/symbol_5.png,condition_files/AMP_rep1.csv,None,nonword,,,,,,,,,,,,,,0,1,1,0,0,65,65,65,,,,,,,,,,,,,,,,,,,,,843.2875800328329,,,,,,,,,,,,,,AMP_prac,left,4.134646636899561,3,,,right,1.3494843870867044,,,,,,,,,,,,,,,,,,,,,,,,,1032,2019_Jun_07_1255,mf_amp_cond1,3.0.7,59.979858819520324,
corruption,&&&&&&&&&&,images/symbols/symbol_78.png,condition_files/AMP_rep1.csv,right,sanctity.vice,,,,,,,,,,,,,,0,1,1,0,0,66,66,66,,,,,,,,,,,,,,,,,,,,,844.3378696632572,,,,,,,,,,,,,,AMP_prac,left,4.134646636899561,3,,,left,0.8323831865563989,,,,,,,,,,,,,,,,,,,,,,,,,1032,2019_Jun_07_1255,mf_amp_cond1,3.0.7,59.979858819520324,
peace,&&&&&,images/symbols/symbol_2.png,condition_files/AMP_rep1.csv,left,care.virtue,,,,,,,,,,,,,,0,1,1,0,0,67,67,67,,,,,,,,,,,,,,,,,,,,,845.3214690857567,,,,,,,,,,,,,,AMP_prac,left,4.134646636899561,3,,,right,0.766155784483999,,,,,,,,,,,,,,,,,,,,,,,,,1032,2019_Jun_07_1255,mf_amp_cond1,3.0.7,59.979858819520324,
penalty,&&&&&&&,images/symbols/symbol_48.png,condition_files/AMP_rep1.csv,right,authority.vice,,,,,,,,,,,,,,0,1,1,0,0,68,68,68,,,,,,,,,,,,,,,,,,,,,846.2717638157774,,,,,,,,,,,,,,AMP_prac,left,4.134646636899561,3,,,left,0.7326804662588984,,,,,,,,,,,,,,,,,,,,,,,,,1032,2019_Jun_07_1255,mf_amp_cond1,3.0.7,59.979858819520324,
unpleasant,&&&&&&&&&,images/symbols/symbol_34.png,condition_files/AMP_rep1.csv,left,control,,,,,,,,,,,,,,0,1,1,0,0,69,69,69,,,,,,,,,,,,,,,,,,,,,847.2886275195051,,,,,,,,,,,,,,AMP_prac,left,4.134646636899561,3,,,left,0.7992494399659336,,,,,,,,,,,,,,,,,,,,,,,,,1032,2019_Jun_07_1255,mf_amp_cond1,3.0.7,59.979858819520324,
snauz,&&&&&,images/symbols/symbol_23.png,condition_files/AMP_rep1.csv,None,nonword,,,,,,,,,,,,,,0,1,1,0,0,70,70,70,,,,,,,,,,,,,,,,,,,,,848.3555823252536,,,,,,,,,,,,,,AMP_prac,left,4.134646636899561,3,,,left,0.8493825569748878,,,,,,,,,,,,,,,,,,,,,,,,,1032,2019_Jun_07_1255,mf_amp_cond1,3.0.7,59.979858819520324,
celebrated,&&&&&&&&&&,images/symbols/symbol_8.png,condition_files/AMP_rep1.csv,left,authority.virtue,,,,,,,,,,,,,,0,1,1,0,0,71,71,71,,,,,,,,,,,,,,,,,,,,,849.9559908001684,,,,,,,,,,,,,,AMP_prac,left,4.134646636899561,3,,,right,1.3830068514216691,,,,,,,,,,,,,,,,,,,,,,,,,1032,2019_Jun_07_1255,mf_amp_cond1,3.0.7,59.979858819520324,
victim,&&&&&&,images/symbols/symbol_61.png,condition_files/AMP_rep1.csv,right,care.vice,,,,,,,,,,,,,,0,1,1,0,0,72,72,72,,,,,,,,,,,,,,,,,,,,,851.039625534555,,,,,,,,,,,,,,AMP_prac,left,4.134646636899561,3,,,right,0.8504739829804748,,,,,,,,,,,,,,,,,,,,,,,,,1032,2019_Jun_07_1255,mf_amp_cond1,3.0.7,59.979858819520324,
abuse,&&&&&,images/symbols/symbol_35.png,condition_files/AMP_rep1.csv,right,sanctity.vice,,,,,,,,,,,,,,0,1,1,0,0,73,73,73,,,,,,,,,,,,,,,,,,,,,851.9731996038463,,,,,,,,,,,,,,AMP_prac,left,4.134646636899561,3,,,right,0.7152949431911111,,,,,,,,,,,,,,,,,,,,,,,,,1032,2019_Jun_07_1255,mf_amp_cond1,3.0.7,59.979858819520324,
failure,&&&&&&&,images/symbols/symbol_59.png,condition_files/AMP_rep1.csv,right,loyalty.vice,,,,,,,,,,,,,,0,1,1,0,0,74,74,74,,,,,,,,,,,,,,,,,,,,,852.9734674091451,,,,,,,,,,,,,,AMP_prac,left,4.134646636899561,3,,,right,0.7827128753997386,,,,,,,,,,,,,,,,,,,,,,,,,1032,2019_Jun_07_1255,mf_amp_cond1,3.0.7,59.979858819520324,
troops,&&&&&&,images/symbols/symbol_9.png,condition_files/AMP_rep1.csv,right,loyalty.vice,,,,,,,,,,,,,,0,1,1,0,0,75,75,75,,,,,,,,,,,,,,,,,,,,,854.0069359920453,,,,,,,,,,,,,,AMP_prac,left,4.134646636899561,3,,,right,0.8157712514512241,,,,,,,,,,,,,,,,,,,,,,,,,1032,2019_Jun_07_1255,mf_amp_cond1,3.0.7,59.979858819520324,
wayed,&&&&&,images/symbols/symbol_10.png,condition_files/AMP_rep1.csv,None,nonword,,,,,,,,,,,,,,0,1,1,0,0,76,76,76,,,,,,,,,,,,,,,,,,,,,854.9739757576026,,,,,,,,,,,,,,AMP_prac,left,4.134646636899561,3,,,left,0.7494546878151596,,,,,,,,,,,,,,,,,,,,,,,,,1032,2019_Jun_07_1255,mf_amp_cond1,3.0.7,59.979858819520324,
wence,&&&&&,images/symbols/symbol_14.png,condition_files/AMP_rep1.csv,None,nonword,,,,,,,,,,,,,,0,1,1,0,0,77,77,77,,,,,,,,,,,,,,,,,,,,,855.9909321509767,,,,,,,,,,,,,,AMP_prac,left,4.134646636899561,3,,,left,0.7992741358466446,,,,,,,,,,,,,,,,,,,,,,,,,1032,2019_Jun_07_1255,mf_amp_cond1,3.0.7,59.979858819520324,
faith,&&&&&,images/symbols/symbol_30.png,condition_files/AMP_rep1.csv,left,sanctity.virtue,,,,,,,,,,,,,,0,1,1,0,0,78,78,78,,,,,,,,,,,,,,,,,,,,,857.208097079536,,,,,,,,,,,,,,AMP_prac,left,4.134646636899561,3,,,right,0.9997835108079016,,,,,,,,,,,,,,,,,,,,,,,,,1032,2019_Jun_07_1255,mf_amp_cond1,3.0.7,59.979858819520324,
roossed,&&&&&&&,images/symbols/symbol_54.png,condition_files/AMP_rep1.csv,None,nonword,,,,,,,,,,,,,,0,1,1,0,0,79,79,79,,,,,,,,,,,,,,,,,,,,,858.1915079159662,,,,,,,,,,,,,,AMP_prac,left,4.134646636899561,3,,,left,0.7504441235214472,,,,,,,,,,,,,,,,,,,,,,,,,1032,2019_Jun_07_1255,mf_amp_cond1,3.0.7,59.979858819520324,
attacks,&&&&&&&,images/symbols/symbol_47.png,condition_files/AMP_rep1.csv,right,care.vice,,,,,,,,,,,,,,0,1,1,0,0,80,80,80,,,,,,,,,,,,,,,,,,,,,859.258475871291,,,,,,,,,,,,,,AMP_prac,left,4.134646636899561,3,,,left,0.848845022264868,,,,,,,,,,,,,,,,,,,,,,,,,1032,2019_Jun_07_1255,mf_amp_cond1,3.0.7,59.979858819520324,
pleasant,&&&&&&&,images/symbols/symbol_63.png,condition_files/AMP_rep1.csv,right,control,,,,,,,,,,,,,,0,1,1,0,0,81,81,81,,,,,,,,,,,,,,,,,,,,,860.6087883694563,,,,,,,,,,,,,,AMP_prac,left,4.134646636899561,3,,,right,1.1329718122724444,,,,,,,,,,,,,,,,,,,,,,,,,1032,2019_Jun_07_1255,mf_amp_cond1,3.0.7,59.979858819520324,
,,,condition_files/AMP_rep1.csv,,,,,,,,,,,,,,,,0,1,1,0,,,,,,,,,,,,,,,,,,,,,,,,,,,,,,,,,,,,,,,,,,,,,,,right,5.018195994431153,,,,,,,,,,,,,,,,,,,,,,,1032,2019_Jun_07_1255,mf_amp_cond1,3.0.7,59.979858819520324,
hand,&&&&,images/symbols/symbol_26.png,condition_files/AMP_rep2.csv,left,sanctity.virtue,,,,,,,,,,,,,,0,2,2,1,0,0,0,0,,,,,,,,,,,,,,,,,,,,,866.8939045951702,,,,,,,,,,,,,,AMP_prac,left,4.134646636899561,3,,,left,1.0171632608398795,,,,,,,,,,,,,,,,,,,,,,,,,1032,2019_Jun_07_1255,mf_amp_cond1,3.0.7,59.979858819520324,
promised,&&&&&&&&,images/symbols/symbol_33.png,condition_files/AMP_rep2.csv,left,loyalty.virtue,,,,,,,,,,,,,,0,2,2,1,0,1,1,1,,,,,,,,,,,,,,,,,,,,,868.3941712777596,,,,,,,,,,,,,,AMP_prac,left,4.134646636899561,3,,,left,1.2820892261806875,,,,,,,,,,,,,,,,,,,,,,,,,1032,2019_Jun_07_1255,mf_amp_cond1,3.0.7,59.979858819520324,
friends,&&&&&&&,images/symbols/symbol_11.png,condition_files/AMP_rep2.csv,left,loyalty.virtue,,,,,,,,,,,,,,0,2,2,1,0,2,2,2,,,,,,,,,,,,,,,,,,,,,869.1610416367184,,,,,,,,,,,,,,AMP_prac,left,4.134646636899561,3,,,left,0.5494138917420059,,,,,,,,,,,,,,,,,,,,,,,,,1032,2019_Jun_07_1255,mf_amp_cond1,3.0.7,59.979858819520324,
commitment,&&&&&&&&&&,images/symbols/symbol_15.png,condition_files/AMP_rep2.csv,left,sanctity.virtue,,,,,,,,,,,,,,0,2,2,1,0,3,3,3,,,,,,,,,,,,,,,,,,,,,870.3446821761318,,,,,,,,,,,,,,AMP_prac,left,4.134646636899561,3,,,left,0.9660872132517397,,,,,,,,,,,,,,,,,,,,,,,,,1032,2019_Jun_07_1255,mf_amp_cond1,3.0.7,59.979858819520324,
fighters,&&&&&&&&,images/symbols/symbol_73.png,condition_files/AMP_rep2.csv,right,authority.vice,,,,,,,,,,,,,,0,2,2,1,0,4,4,4,,,,,,,,,,,,,,,,,,,,,871.4449599557556,,,,,,,,,,,,,,AMP_prac,left,4.134646636899561,3,,,right,0.8671128589194268,,,,,,,,,,,,,,,,,,,,,,,,,1032,2019_Jun_07_1255,mf_amp_cond1,3.0.7,59.979858819520324,
credit,&&&&&&,images/symbols/symbol_58.png,condition_files/AMP_rep2.csv,left,fairness.virtue,,,,,,,,,,,,,,0,2,2,1,0,5,5,5,,,,,,,,,,,,,,,,,,,,,872.2118264660239,,,,,,,,,,,,,,AMP_prac,left,4.134646636899561,3,,,left,0.5488090049475431,,,,,,,,,,,,,,,,,,,,,,,,,1032,2019_Jun_07_1255,mf_amp_cond1,3.0.7,59.979858819520324,
stryct,&&&&&&,images/symbols/symbol_65.png,condition_files/AMP_rep2.csv,None,nonword,,,,,,,,,,,,,,0,2,2,1,0,6,6,6,,,,,,,,,,,,,,,,,,,,,873.945626582019,,,,,,,,,,,,,,AMP_prac,left,4.134646636899561,3,,,right,1.516187135130167,,,,,,,,,,,,,,,,,,,,,,,,,1032,2019_Jun_07_1255,mf_amp_cond1,3.0.7,59.979858819520324,
suicide,&&&&&&&,images/symbols/symbol_38.png,condition_files/AMP_rep2.csv,right,care.vice,,,,,,,,,,,,,,0,2,2,1,0,7,7,7,,,,,,,,,,,,,,,,,,,,,874.7458304988686,,,,,,,,,,,,,,AMP_prac,left,4.134646636899561,3,,,left,0.582674324279651,,,,,,,,,,,,,,,,,,,,,,,,,1032,2019_Jun_07_1255,mf_amp_cond1,3.0.7,59.979858819520324,
war,&&&,images/symbols/symbol_57.png,condition_files/AMP_rep2.csv,right,sanctity.vice,,,,,,,,,,,,,,0,2,2,1,0,8,8,8,,,,,,,,,,,,,,,,,,,,,875.6627458073199,,,,,,,,,,,,,,AMP_prac,left,4.134646636899561,3,,,left,0.6993600579444319,,,,,,,,,,,,,,,,,,,,,,,,,1032,2019_Jun_07_1255,mf_amp_cond1,3.0.7,59.979858819520324,
soughste,&&&&&&&&,images/symbols/symbol_50.png,condition_files/AMP_rep2.csv,None,nonword,,,,,,,,,,,,,,0,2,2,1,0,9,9,9,,,,,,,,,,,,,,,,,,,,,876.7463596945163,,,,,,,,,,,,,,AMP_prac,left,4.134646636899561,3,,,left,0.8661256681662053,,,,,,,,,,,,,,,,,,,,,,,,,1032,2019_Jun_07_1255,mf_amp_cond1,3.0.7,59.979858819520324,
freedom,&&&&&&&,images/symbols/symbol_82.png,condition_files/AMP_rep2.csv,left,sanctity.virtue,,,,,,,,,,,,,,0,2,2,1,0,10,10,10,,,,,,,,,,,,,,,,,,,,,877.6466127142776,,,,,,,,,,,,,,AMP_prac,left,4.134646636899561,3,,,left,0.6830377376172692,,,,,,,,,,,,,,,,,,,,,,,,,1032,2019_Jun_07_1255,mf_amp_cond1,3.0.7,59.979858819520324,
growth,&&&&&&,images/symbols/symbol_17.png,condition_files/AMP_rep2.csv,left,care.virtue,,,,,,,,,,,,,,0,2,2,1,0,11,11,11,,,,,,,,,,,,,,,,,,,,,878.6802044555079,,,,,,,,,,,,,,AMP_prac,left,4.134646636899561,3,,,left,0.8159803641028702,,,,,,,,,,,,,,,,,,,,,,,,,1032,2019_Jun_07_1255,mf_amp_cond1,3.0.7,59.979858819520324,
energy,&&&&&&,images/symbols/symbol_75.png,condition_files/AMP_rep2.csv,left,sanctity.virtue,,,,,,,,,,,,,,0,2,2,1,0,12,12,12,,,,,,,,,,,,,,,,,,,,,879.7804835180286,,,,,,,,,,,,,,AMP_prac,left,4.134646636899561,3,,,right,0.8826494039967656,,,,,,,,,,,,,,,,,,,,,,,,,1032,2019_Jun_07_1255,mf_amp_cond1,3.0.7,59.979858819520324,
lies,&&&&,images/symbols/symbol_21.png,condition_files/AMP_rep2.csv,right,fairness.vice,,,,,,,,,,,,,,0,2,2,1,0,13,13,13,,,,,,,,,,,,,,,,,,,,,880.8141153499018,,,,,,,,,,,,,,AMP_prac,left,4.134646636899561,3,,,right,0.8162231526803225,,,,,,,,,,,,,,,,,,,,,,,,,1032,2019_Jun_07_1255,mf_amp_cond1,3.0.7,59.979858819520324,
benefit,&&&&&&&,images/symbols/symbol_44.png,condition_files/AMP_rep2.csv,left,fairness.virtue,,,,,,,,,,,,,,0,2,2,1,0,14,14,14,,,,,,,,,,,,,,,,,,,,,882.5145956992637,,,,,,,,,,,,,,AMP_prac,left,4.134646636899561,3,,,right,1.4826912905555218,,,,,,,,,,,,,,,,,,,,,,,,,1032,2019_Jun_07_1255,mf_amp_cond1,3.0.7,59.979858819520324,
honored,&&&&&&&,images/symbols/symbol_52.png,condition_files/AMP_rep2.csv,left,authority.virtue,,,,,,,,,,,,,,0,2,2,1,0,15,15,15,,,,,,,,,,,,,,,,,,,,,883.5814805869013,,,,,,,,,,,,,,AMP_prac,left,4.134646636899561,3,,,left,0.8497209213674068,,,,,,,,,,,,,,,,,,,,,,,,,1032,2019_Jun_07_1255,mf_amp_cond1,3.0.7,59.979858819520324,
betrayal,&&&&&&&&,images/symbols/symbol_36.png,condition_files/AMP_rep2.csv,right,loyalty.vice,,,,,,,,,,,,,,0,2,2,1,0,16,16,16,,,,,,,,,,,,,,,,,,,,,884.5483991187066,,,,,,,,,,,,,,AMP_prac,left,4.134646636899561,3,,,right,0.7492612907662988,,,,,,,,,,,,,,,,,,,,,,,,,1032,2019_Jun_07_1255,mf_amp_cond1,3.0.7,59.979858819520324,
violence,&&&&&&&&,images/symbols/symbol_22.png,condition_files/AMP_rep2.csv,right,care.vice,,,,,,,,,,,,,,0,2,2,1,0,17,17,17,,,,,,,,,,,,,,,,,,,,,885.5153192540165,,,,,,,,,,,,,,AMP_prac,left,4.134646636899561,3,,,right,0.7493270395789295,,,,,,,,,,,,,,,,,,,,,,,,,1032,2019_Jun_07_1255,mf_amp_cond1,3.0.7,59.979858819520324,
shot,&&&&,images/symbols/symbol_31.png,condition_files/AMP_rep2.csv,right,care.vice,,,,,,,,,,,,,,0,2,2,1,0,18,18,18,,,,,,,,,,,,,,,,,,,,,886.5822759841103,,,,,,,,,,,,,,AMP_prac,left,4.134646636899561,3,,,left,0.833779942477122,,,,,,,,,,,,,,,,,,,,,,,,,1032,2019_Jun_07_1255,mf_amp_cond1,3.0.7,59.979858819520324,
refused,&&&&&&&,images/symbols/symbol_1.png,condition_files/AMP_rep2.csv,right,authority.vice,,,,,,,,,,,,,,0,2,2,1,0,19,19,19,,,,,,,,,,,,,,,,,,,,,888.3994282761123,,,,,,,,,,,,,,AMP_prac,left,4.134646636899561,3,,,left,1.5987993993330747,,,,,,,,,,,,,,,,,,,,,,,,,1032,2019_Jun_07_1255,mf_amp_cond1,3.0.7,59.979858819520324,
terrorists,&&&&&&&&&&,images/symbols/symbol_6.png,condition_files/AMP_rep2.csv,right,fairness.vice,,,,,,,,,,,,,,0,2,2,1,0,20,20,20,,,,,,,,,,,,,,,,,,,,,889.2663073267322,,,,,,,,,,,,,,AMP_prac,left,4.134646636899561,3,,,right,0.6492035281844437,,,,,,,,,,,,,,,,,,,,,,,,,1032,2019_Jun_07_1255,mf_amp_cond1,3.0.7,59.979858819520324,
progress,&&&&&&&&,images/symbols/symbol_24.png,condition_files/AMP_rep2.csv,left,authority.virtue,,,,,,,,,,,,,,0,2,2,1,0,21,21,21,,,,,,,,,,,,,,,,,,,,,890.4832964979578,,,,,,,,,,,,,,AMP_prac,left,4.134646636899561,3,,,right,0.9994012068491429,,,,,,,,,,,,,,,,,,,,,,,,,1032,2019_Jun_07_1255,mf_amp_cond1,3.0.7,59.979858819520324,
embrace,&&&&&&&,images/symbols/symbol_64.png,condition_files/AMP_rep2.csv,left,authority.virtue,,,,,,,,,,,,,,0,2,2,1,0,22,22,22,,,,,,,,,,,,,,,,,,,,,891.666943772696,,,,,,,,,,,,,,AMP_prac,left,4.134646636899561,3,,,right,0.9504884476773441,,,,,,,,,,,,,,,,,,,,,,,,,1032,2019_Jun_07_1255,mf_amp_cond1,3.0.7,59.979858819520324,
powerful,&&&&&&&&,images/symbols/symbol_16.png,condition_files/AMP_rep2.csv,left,authority.virtue,,,,,,,,,,,,,,0,2,2,1,0,23,23,23,,,,,,,,,,,,,,,,,,,,,892.6672115777619,,,,,,,,,,,,,,AMP_prac,left,4.134646636899561,3,,,right,0.7822731616906822,,,,,,,,,,,,,,,,,,,,,,,,,1032,2019_Jun_07_1255,mf_amp_cond1,3.0.7,59.979858819520324,
agreement,&&&&&&&&&,images/symbols/symbol_45.png,condition_files/AMP_rep2.csv,left,fairness.virtue,,,,,,,,,,,,,,0,2,2,1,0,24,24,24,,,,,,,,,,,,,,,,,,,,,893.8841991457157,,,,,,,,,,,,,,AMP_prac,left,4.134646636899561,3,,,right,0.9993684929795563,,,,,,,,,,,,,,,,,,,,,,,,,1032,2019_Jun_07_1255,mf_amp_cond1,3.0.7,59.979858819520324,
respect,&&&&&&&,images/symbols/symbol_41.png,condition_files/AMP_rep2.csv,left,sanctity.virtue,,,,,,,,,,,,,,0,2,2,1,0,25,25,25,,,,,,,,,,,,,,,,,,,,,894.7344261705875,,,,,,,,,,,,,,AMP_prac,left,4.134646636899561,3,,,right,0.633200007956475,,,,,,,,,,,,,,,,,,,,,,,,,1032,2019_Jun_07_1255,mf_amp_cond1,3.0.7,59.979858819520324,
slavery,&&&&&&&,images/symbols/symbol_77.png,condition_files/AMP_rep2.csv,right,loyalty.vice,,,,,,,,,,,,,,0,2,2,1,0,26,26,26,,,,,,,,,,,,,,,,,,,,,895.7013572105207,,,,,,,,,,,,,,AMP_prac,left,4.134646636899561,3,,,left,0.7492372365668416,,,,,,,,,,,,,,,,,,,,,,,,,1032,2019_Jun_07_1255,mf_amp_cond1,3.0.7,59.979858819520324,
safety,&&&&&&,images/symbols/symbol_4.png,condition_files/AMP_rep2.csv,left,care.virtue,,,,,,,,,,,,,,0,2,2,1,0,27,27,27,,,,,,,,,,,,,,,,,,,,,896.7516118821222,,,,,,,,,,,,,,AMP_prac,left,4.134646636899561,3,,,right,0.832666386384517,,,,,,,,,,,,,,,,,,,,,,,,,1032,2019_Jun_07_1255,mf_amp_cond1,3.0.7,59.979858819520324,
perfect,&&&&&&&,images/symbols/symbol_18.png,condition_files/AMP_rep2.csv,left,sanctity.virtue,,,,,,,,,,,,,,0,2,2,1,0,28,28,28,,,,,,,,,,,,,,,,,,,,,897.5518145158421,,,,,,,,,,,,,,AMP_prac,left,4.134646636899561,3,,,right,0.5670399582013488,,,,,,,,,,,,,,,,,,,,,,,,,1032,2019_Jun_07_1255,mf_amp_cond1,3.0.7,59.979858819520324,
blamed,&&&&&&,images/symbols/symbol_69.png,condition_files/AMP_rep2.csv,right,loyalty.vice,,,,,,,,,,,,,,0,2,2,1,0,29,29,29,,,,,,,,,,,,,,,,,,,,,898.6687741484493,,,,,,,,,,,,,,AMP_prac,left,4.134646636899561,3,,,left,0.8837892594747245,,,,,,,,,,,,,,,,,,,,,,,,,1032,2019_Jun_07_1255,mf_amp_cond1,3.0.7,59.979858819520324,
fair,&&&&,images/symbols/symbol_13.png,condition_files/AMP_rep2.csv,left,fairness.virtue,,,,,,,,,,,,,,0,2,2,1,0,30,30,30,,,,,,,,,,,,,,,,,,,,,899.4688581142109,,,,,,,,,,,,,,AMP_prac,left,4.134646636899561,3,,,right,0.5817679562605917,,,,,,,,,,,,,,,,,,,,,,,,,1032,2019_Jun_07_1255,mf_amp_cond1,3.0.7,59.979858819520324,
spynze,&&&&&&,images/symbols/symbol_79.png,condition_files/AMP_rep2.csv,None,nonword,,,,,,,,,,,,,,0,2,2,1,0,31,31,31,,,,,,,,,,,,,,,,,,,,,900.6859829521272,,,,,,,,,,,,,,AMP_prac,left,4.134646636899561,3,,,left,0.9993184600025415,,,,,,,,,,,,,,,,,,,,,,,,,1032,2019_Jun_07_1255,mf_amp_cond1,3.0.7,59.979858819520324,
scandal,&&&&&&&,images/symbols/symbol_39.png,condition_files/AMP_rep2.csv,right,sanctity.vice,,,,,,,,,,,,,,0,2,2,1,0,32,32,32,,,,,,,,,,,,,,,,,,,,,901.6527661380824,,,,,,,,,,,,,,AMP_prac,left,4.134646636899561,3,,,left,0.748847876675427,,,,,,,,,,,,,,,,,,,,,,,,,1032,2019_Jun_07_1255,mf_amp_cond1,3.0.7,59.979858819520324,
prosecution,&&&&&&&&&&&,images/symbols/symbol_40.png,condition_files/AMP_rep2.csv,right,authority.vice,,,,,,,,,,,,,,0,2,2,1,0,33,33,33,,,,,,,,,,,,,,,,,,,,,902.6198123183567,,,,,,,,,,,,,,AMP_prac,left,4.134646636899561,3,,,left,0.7490483296569437,,,,,,,,,,,,,,,,,,,,,,,,,1032,2019_Jun_07_1255,mf_amp_cond1,3.0.7,59.979858819520324,
conspiracy,&&&&&&&&&&,images/symbols/symbol_29.png,condition_files/AMP_rep2.csv,right,sanctity.vice,,,,,,,,,,,,,,0,2,2,1,0,34,34,34,,,,,,,,,,,,,,,,,,,,,903.6034133443609,,,,,,,,,,,,,,AMP_prac,left,4.134646636899561,3,,,left,0.765871942974627,,,,,,,,,,,,,,,,,,,,,,,,,1032,2019_Jun_07_1255,mf_amp_cond1,3.0.7,59.979858819520324,
useful,&&&&&&,images/symbols/symbol_76.png,condition_files/AMP_rep2.csv,left,authority.virtue,,,,,,,,,,,,,,0,2,2,1,0,35,35,35,,,,,,,,,,,,,,,,,,,,,904.7870503559243,,,,,,,,,,,,,,AMP_prac,left,4.134646636899561,3,,,left,0.966480100993067,,,,,,,,,,,,,,,,,,,,,,,,,1032,2019_Jun_07_1255,mf_amp_cond1,3.0.7,59.979858819520324,
ban,&&&,images/symbols/symbol_70.png,condition_files/AMP_rep2.csv,right,loyalty.vice,,,,,,,,,,,,,,0,2,2,1,0,36,36,36,,,,,,,,,,,,,,,,,,,,,906.1874141860753,,,,,,,,,,,,,,AMP_prac,left,4.134646636899561,3,,,left,1.1672059651464224,,,,,,,,,,,,,,,,,,,,,,,,,1032,2019_Jun_07_1255,mf_amp_cond1,3.0.7,59.979858819520324,
terrorist,&&&&&&&&&,images/symbols/symbol_66.png,condition_files/AMP_rep2.csv,right,loyalty.vice,,,,,,,,,,,,,,0,2,2,1,0,37,37,37,,,,,,,,,,,,,,,,,,,,,907.1376620901283,,,,,,,,,,,,,,AMP_prac,left,4.134646636899561,3,,,right,0.7321009165607393,,,,,,,,,,,,,,,,,,,,,,,,,1032,2019_Jun_07_1255,mf_amp_cond1,3.0.7,59.979858819520324,
rejected,&&&&&&&&,images/symbols/symbol_49.png,condition_files/AMP_rep2.csv,right,authority.vice,,,,,,,,,,,,,,0,2,2,1,0,38,38,38,,,,,,,,,,,,,,,,,,,,,908.2379668108188,,,,,,,,,,,,,,AMP_prac,left,4.134646636899561,3,,,right,0.8671340267173946,,,,,,,,,,,,,,,,,,,,,,,,,1032,2019_Jun_07_1255,mf_amp_cond1,3.0.7,59.979858819520324,
serial,&&&&&&,images/symbols/symbol_71.png,condition_files/AMP_rep2.csv,right,sanctity.vice,,,,,,,,,,,,,,0,2,2,1,0,39,39,39,,,,,,,,,,,,,,,,,,,,,909.2048885496333,,,,,,,,,,,,,,AMP_prac,left,4.134646636899561,3,,,left,0.7487433205824345,,,,,,,,,,,,,,,,,,,,,,,,,1032,2019_Jun_07_1255,mf_amp_cond1,3.0.7,59.979858819520324,
illegal,&&&&&&&,images/symbols/symbol_19.png,condition_files/AMP_rep2.csv,right,fairness.vice,,,,,,,,,,,,,,0,2,2,1,0,40,40,40,,,,,,,,,,,,,,,,,,,,,910.188492141664,,,,,,,,,,,,,,AMP_prac,left,4.134646636899561,3,,,right,0.75044861366041,,,,,,,,,,,,,,,,,,,,,,,,,1032,2019_Jun_07_1255,mf_amp_cond1,3.0.7,59.979858819520324,
peaceful,&&&&&&&&,images/symbols/symbol_60.png,condition_files/AMP_rep2.csv,left,authority.virtue,,,,,,,,,,,,,,0,2,2,1,0,41,41,41,,,,,,,,,,,,,,,,,,,,,910.9553336354438,,,,,,,,,,,,,,AMP_prac,left,4.134646636899561,3,,,left,0.548673338489607,,,,,,,,,,,,,,,,,,,,,,,,,1032,2019_Jun_07_1255,mf_amp_cond1,3.0.7,59.979858819520324,
crict,&&&&&,images/symbols/symbol_74.png,condition_files/AMP_rep2.csv,None,nonword,,,,,,,,,,,,,,0,2,2,1,0,42,42,42,,,,,,,,,,,,,,,,,,,,,911.9389285678044,,,,,,,,,,,,,,AMP_prac,left,4.134646636899561,3,,,left,0.7504300116561353,,,,,,,,,,,,,,,,,,,,,,,,,1032,2019_Jun_07_1255,mf_amp_cond1,3.0.7,59.979858819520324,
died,&&&&,images/symbols/symbol_43.png,condition_files/AMP_rep2.csv,right,care.vice,,,,,,,,,,,,,,0,2,2,1,0,43,43,43,,,,,,,,,,,,,,,,,,,,,913.7394067042042,,,,,,,,,,,,,,AMP_prac,left,4.134646636899561,3,,,left,1.582394972909242,,,,,,,,,,,,,,,,,,,,,,,,,1032,2019_Jun_07_1255,mf_amp_cond1,3.0.7,59.979858819520324,
ensure,&&&&&&,images/symbols/symbol_3.png,condition_files/AMP_rep2.csv,left,fairness.virtue,,,,,,,,,,,,,,0,2,2,1,0,44,44,44,,,,,,,,,,,,,,,,,,,,,915.2564578715246,,,,,,,,,,,,,,AMP_prac,left,4.134646636899561,3,,,left,1.2994583921972662,,,,,,,,,,,,,,,,,,,,,,,,,1032,2019_Jun_07_1255,mf_amp_cond1,3.0.7,59.979858819520324,
support,&&&&&&&,images/symbols/symbol_37.png,condition_files/AMP_rep2.csv,left,loyalty.virtue,,,,,,,,,,,,,,0,2,2,1,0,45,45,45,,,,,,,,,,,,,,,,,,,,,916.1399122946896,,,,,,,,,,,,,,AMP_prac,left,4.134646636899561,3,,,left,0.6655729953199625,,,,,,,,,,,,,,,,,,,,,,,,,1032,2019_Jun_07_1255,mf_amp_cond1,3.0.7,59.979858819520324,
sexual,&&&&&&,images/symbols/symbol_81.png,condition_files/AMP_rep2.csv,right,sanctity.vice,,,,,,,,,,,,,,0,2,2,1,0,46,46,46,,,,,,,,,,,,,,,,,,,,,917.1569597737398,,,,,,,,,,,,,,AMP_prac,left,4.134646636899561,3,,,left,0.7994444407522678,,,,,,,,,,,,,,,,,,,,,,,,,1032,2019_Jun_07_1255,mf_amp_cond1,3.0.7,59.979858819520324,
increase,&&&&&&&&,images/symbols/symbol_55.png,condition_files/AMP_rep2.csv,left,care.virtue,,,,,,,,,,,,,,0,2,2,1,0,47,47,47,,,,,,,,,,,,,,,,,,,,,918.0738792514894,,,,,,,,,,,,,,AMP_prac,left,4.134646636899561,3,,,left,0.6837487840093672,,,,,,,,,,,,,,,,,,,,,,,,,1032,2019_Jun_07_1255,mf_amp_cond1,3.0.7,59.979858819520324,
voter,&&&&&,images/symbols/symbol_72.png,condition_files/AMP_rep2.csv,right,fairness.vice,,,,,,,,,,,,,,0,2,2,1,0,48,48,48,,,,,,,,,,,,,,,,,,,,,919.9244369436055,,,,,,,,,,,,,,AMP_prac,left,4.134646636899561,3,,,right,1.6325848582200706,,,,,,,,,,,,,,,,,,,,,,,,,1032,2019_Jun_07_1255,mf_amp_cond1,3.0.7,59.979858819520324,
restore,&&&&&&&,images/symbols/symbol_27.png,condition_files/AMP_rep2.csv,left,care.virtue,,,,,,,,,,,,,,0,2,2,1,0,49,49,49,,,,,,,,,,,,,,,,,,,,,920.7245651695412,,,,,,,,,,,,,,AMP_prac,left,4.134646636899561,3,,,right,0.5670418825466186,,,,,,,,,,,,,,,,,,,,,,,,,1032,2019_Jun_07_1255,mf_amp_cond1,3.0.7,59.979858819520324,
praised,&&&&&&&,images/symbols/symbol_56.png,condition_files/AMP_rep2.csv,left,loyalty.virtue,,,,,,,,,,,,,,0,2,2,1,0,50,50,50,,,,,,,,,,,,,,,,,,,,,921.6748146770988,,,,,,,,,,,,,,AMP_prac,left,4.134646636899561,3,,,right,0.7170874734874815,,,,,,,,,,,,,,,,,,,,,,,,,1032,2019_Jun_07_1255,mf_amp_cond1,3.0.7,59.979858819520324,
health,&&&&&&,images/symbols/symbol_28.png,condition_files/AMP_rep2.csv,left,care.virtue,,,,,,,,,,,,,,0,2,2,1,0,51,51,51,,,,,,,,,,,,,,,,,,,,,922.5250477958471,,,,,,,,,,,,,,AMP_prac,left,4.134646636899561,3,,,left,0.6321461065672338,,,,,,,,,,,,,,,,,,,,,,,,,1032,2019_Jun_07_1255,mf_amp_cond1,3.0.7,59.979858819520324,
civilians,&&&&&&&&&,images/symbols/symbol_12.png,condition_files/AMP_rep2.csv,right,care.vice,,,,,,,,,,,,,,0,2,2,1,0,52,52,52,,,,,,,,,,,,,,,,,,,,,924.1588372960687,,,,,,,,,,,,,,AMP_prac,left,4.134646636899561,3,,,left,1.4006313143763691,,,,,,,,,,,,,,,,,,,,,,,,,1032,2019_Jun_07_1255,mf_amp_cond1,3.0.7,59.979858819520324,
gun,&&&,images/symbols/symbol_20.png,condition_files/AMP_rep2.csv,right,authority.vice,,,,,,,,,,,,,,0,2,2,1,0,53,53,53,,,,,,,,,,,,,,,,,,,,,925.225737899309,,,,,,,,,,,,,,AMP_prac,left,4.134646636899561,3,,,right,0.8488912067841738,,,,,,,,,,,,,,,,,,,,,,,,,1032,2019_Jun_07_1255,mf_amp_cond1,3.0.7,59.979858819520324,
protect,&&&&&&&,images/symbols/symbol_62.png,condition_files/AMP_rep2.csv,left,fairness.virtue,,,,,,,,,,,,,,0,2,2,1,0,54,54,54,,,,,,,,,,,,,,,,,,,,,926.2760355477221,,,,,,,,,,,,,,AMP_prac,left,4.134646636899561,3,,,left,0.8327003831509501,,,,,,,,,,,,,,,,,,,,,,,,,1032,2019_Jun_07_1255,mf_amp_cond1,3.0.7,59.979858819520324,
loyalty,&&&&&&&,images/symbols/symbol_32.png,condition_files/AMP_rep2.csv,left,loyalty.virtue,,,,,,,,,,,,,,0,2,2,1,0,55,55,55,,,,,,,,,,,,,,,,,,,,,927.2095916564576,,,,,,,,,,,,,,AMP_prac,left,4.134646636899561,3,,,left,0.71600983873941,,,,,,,,,,,,,,,,,,,,,,,,,1032,2019_Jun_07_1255,mf_amp_cond1,3.0.7,59.979858819520324,
protesters,&&&&&&&&&&,images/symbols/symbol_46.png,condition_files/AMP_rep2.csv,right,authority.vice,,,,,,,,,,,,,,0,2,2,1,0,56,56,56,,,,,,,,,,,,,,,,,,,,,928.1765156404581,,,,,,,,,,,,,,AMP_prac,left,4.134646636899561,3,,,right,0.7493786760605872,,,,,,,,,,,,,,,,,,,,,,,,,1032,2019_Jun_07_1255,mf_amp_cond1,3.0.7,59.979858819520324,
interests,&&&&&&&&&,images/symbols/symbol_51.png,condition_files/AMP_rep2.csv,left,fairness.virtue,,,,,,,,,,,,,,0,2,2,1,0,57,57,57,,,,,,,,,,,,,,,,,,,,,929.1934515074827,,,,,,,,,,,,,,AMP_prac,left,4.134646636899561,3,,,right,0.7837706254795194,,,,,,,,,,,,,,,,,,,,,,,,,1032,2019_Jun_07_1255,mf_amp_cond1,3.0.7,59.979858819520324,
frord,&&&&&,images/symbols/symbol_67.png,condition_files/AMP_rep2.csv,None,nonword,,,,,,,,,,,,,,0,2,2,1,0,58,58,58,,,,,,,,,,,,,,,,,,,,,930.3771164219361,,,,,,,,,,,,,,AMP_prac,left,4.134646636899561,3,,,left,0.965560904238373,,,,,,,,,,,,,,,,,,,,,,,,,1032,2019_Jun_07_1255,mf_amp_cond1,3.0.7,59.979858819520324,
improve,&&&&&&&,images/symbols/symbol_53.png,condition_files/AMP_rep2.csv,left,care.virtue,,,,,,,,,,,,,,0,2,2,1,0,59,59,59,,,,,,,,,,,,,,,,,,,,,931.6274429999758,,,,,,,,,,,,,,AMP_prac,left,4.134646636899561,3,,,left,1.0323582340497524,,,,,,,,,,,,,,,,,,,,,,,,,1032,2019_Jun_07_1255,mf_amp_cond1,3.0.7,59.979858819520324,
forced,&&&&&&,images/symbols/symbol_7.png,condition_files/AMP_rep2.csv,right,fairness.vice,,,,,,,,,,,,,,0,2,2,1,0,60,60,60,,,,,,,,,,,,,,,,,,,,,932.4109775719699,,,,,,,,,,,,,,AMP_prac,left,4.134646636899561,3,,,right,0.5660091491881758,,,,,,,,,,,,,,,,,,,,,,,,,1032,2019_Jun_07_1255,mf_amp_cond1,3.0.7,59.979858819520324,
hope,&&&&,images/symbols/symbol_25.png,condition_files/AMP_rep2.csv,left,loyalty.virtue,,,,,,,,,,,,,,0,2,2,1,0,61,61,61,,,,,,,,,,,,,,,,,,,,,933.4946591320913,,,,,,,,,,,,,,AMP_prac,left,4.134646636899561,3,,,left,0.8660595989786088,,,,,,,,,,,,,,,,,,,,,,,,,1032,2019_Jun_07_1255,mf_amp_cond1,3.0.7,59.979858819520324,
sharing,&&&&&&&,images/symbols/symbol_68.png,condition_files/AMP_rep2.csv,left,loyalty.virtue,,,,,,,,,,,,,,0,2,2,1,0,62,62,62,,,,,,,,,,,,,,,,,,,,,934.4114823925775,,,,,,,,,,,,,,AMP_prac,left,4.134646636899561,3,,,right,0.6837420489173383,,,,,,,,,,,,,,,,,,,,,,,,,1032,2019_Jun_07_1255,mf_amp_cond1,3.0.7,59.979858819520324,
accused,&&&&&&&,images/symbols/symbol_42.png,condition_files/AMP_rep2.csv,right,fairness.vice,,,,,,,,,,,,,,0,2,2,1,0,63,63,63,,,,,,,,,,,,,,,,,,,,,935.7118875640444,,,,,,,,,,,,,,AMP_prac,left,4.134646636899561,3,,,right,1.0819640792906284,,,,,,,,,,,,,,,,,,,,,,,,,1032,2019_Jun_07_1255,mf_amp_cond1,3.0.7,59.979858819520324,
hate,&&&&,images/symbols/symbol_80.png,condition_files/AMP_rep2.csv,right,fairness.vice,,,,,,,,,,,,,,0,2,2,1,0,64,64,64,,,,,,,,,,,,,,,,,,,,,936.7454324795399,,,,,,,,,,,,,,AMP_prac,left,4.134646636899561,3,,,left,0.8154935038182884,,,,,,,,,,,,,,,,,,,,,,,,,1032,2019_Jun_07_1255,mf_amp_cond1,3.0.7,59.979858819520324,
coacs,&&&&&,images/symbols/symbol_5.png,condition_files/AMP_rep2.csv,None,nonword,,,,,,,,,,,,,,0,2,2,1,0,65,65,65,,,,,,,,,,,,,,,,,,,,,937.5956623910461,,,,,,,,,,,,,,AMP_prac,left,4.134646636899561,3,,,right,0.6325264861807227,,,,,,,,,,,,,,,,,,,,,,,,,1032,2019_Jun_07_1255,mf_amp_cond1,3.0.7,59.979858819520324,
corruption,&&&&&&&&&&,images/symbols/symbol_78.png,condition_files/AMP_rep2.csv,right,sanctity.vice,,,,,,,,,,,,,,0,2,2,1,0,66,66,66,,,,,,,,,,,,,,,,,,,,,938.6292826768477,,,,,,,,,,,,,,AMP_prac,left,4.134646636899561,3,,,left,0.8159675349015743,,,,,,,,,,,,,,,,,,,,,,,,,1032,2019_Jun_07_1255,mf_amp_cond1,3.0.7,59.979858819520324,
peace,&&&&&,images/symbols/symbol_2.png,condition_files/AMP_rep2.csv,left,care.virtue,,,,,,,,,,,,,,0,2,2,1,0,67,67,67,,,,,,,,,,,,,,,,,,,,,939.6962009198032,,,,,,,,,,,,,,AMP_prac,left,4.134646636899561,3,,,right,0.8492452867794782,,,,,,,,,,,,,,,,,,,,,,,,,1032,2019_Jun_07_1255,mf_amp_cond1,3.0.7,59.979858819520324,
penalty,&&&&&&&,images/symbols/symbol_48.png,condition_files/AMP_rep2.csv,right,authority.vice,,,,,,,,,,,,,,0,2,2,1,0,68,68,68,,,,,,,,,,,,,,,,,,,,,940.4464567778632,,,,,,,,,,,,,,AMP_prac,left,4.134646636899561,3,,,right,0.5326124085113406,,,,,,,,,,,,,,,,,,,,,,,,,1032,2019_Jun_07_1255,mf_amp_cond1,3.0.7,59.979858819520324,
unpleasant,&&&&&&&&&,images/symbols/symbol_34.png,condition_files/AMP_rep2.csv,left,control,,,,,,,,,,,,,,0,2,2,1,0,69,69,69,,,,,,,,,,,,,,,,,,,,,941.3633056965191,,,,,,,,,,,,,,AMP_prac,left,4.134646636899561,3,,,left,0.6990890458691865,,,,,,,,,,,,,,,,,,,,,,,,,1032,2019_Jun_07_1255,mf_amp_cond1,3.0.7,59.979858819520324,
snauz,&&&&&,images/symbols/symbol_23.png,condition_files/AMP_rep2.csv,None,nonword,,,,,,,,,,,,,,0,2,2,1,0,70,70,70,,,,,,,,,,,,,,,,,,,,,942.2969297987875,,,,,,,,,,,,,,AMP_prac,left,4.134646636899561,3,,,left,0.71590496157296,,,,,,,,,,,,,,,,,,,,,,,,,1032,2019_Jun_07_1255,mf_amp_cond1,3.0.7,59.979858819520324,
celebrated,&&&&&&&&&&,images/symbols/symbol_8.png,condition_files/AMP_rep2.csv,left,authority.virtue,,,,,,,,,,,,,,0,2,2,1,0,71,71,71,,,,,,,,,,,,,,,,,,,,,943.6305723106489,,,,,,,,,,,,,,AMP_prac,left,4.134646636899561,3,,,right,1.1162033637519926,,,,,,,,,,,,,,,,,,,,,,,,,1032,2019_Jun_07_1255,mf_amp_cond1,3.0.7,59.979858819520324,
victim,&&&&&&,images/symbols/symbol_61.png,condition_files/AMP_rep2.csv,right,care.vice,,,,,,,,,,,,,,0,2,2,1,0,72,72,72,,,,,,,,,,,,,,,,,,,,,945.7311265550088,,,,,,,,,,,,,,AMP_prac,left,4.134646636899561,3,,,left,1.8673922100570053,,,,,,,,,,,,,,,,,,,,,,,,,1032,2019_Jun_07_1255,mf_amp_cond1,3.0.7,59.979858819520324,
abuse,&&&&&,images/symbols/symbol_35.png,condition_files/AMP_rep2.csv,right,sanctity.vice,,,,,,,,,,,,,,0,2,2,1,0,73,73,73,,,,,,,,,,,,,,,,,,,,,946.7647179753985,,,,,,,,,,,,,,AMP_prac,left,4.134646636899561,3,,,right,0.8151208218187094,,,,,,,,,,,,,,,,,,,,,,,,,1032,2019_Jun_07_1255,mf_amp_cond1,3.0.7,59.979858819520324,
failure,&&&&&&&,images/symbols/symbol_59.png,condition_files/AMP_rep2.csv,right,loyalty.vice,,,,,,,,,,,,,,0,2,2,1,0,74,74,74,,,,,,,,,,,,,,,,,,,,,947.9983845097013,,,,,,,,,,,,,,AMP_prac,left,4.134646636899561,3,,,right,1.0160009544342756,,,,,,,,,,,,,,,,,,,,,,,,,1032,2019_Jun_07_1255,mf_amp_cond1,3.0.7,59.979858819520324,
troops,&&&&&&,images/symbols/symbol_9.png,condition_files/AMP_rep2.csv,right,loyalty.vice,,,,,,,,,,,,,,0,2,2,1,0,75,75,75,,,,,,,,,,,,,,,,,,,,,948.6985576048028,,,,,,,,,,,,,,AMP_prac,left,4.134646636899561,3,,,right,0.4824382390361279,,,,,,,,,,,,,,,,,,,,,,,,,1032,2019_Jun_07_1255,mf_amp_cond1,3.0.7,59.979858819520324,
wayed,&&&&&,images/symbols/symbol_10.png,condition_files/AMP_rep2.csv,None,nonword,,,,,,,,,,,,,,0,2,2,1,0,76,76,76,,,,,,,,,,,,,,,,,,,,,949.532131962711,,,,,,,,,,,,,,AMP_prac,left,4.134646636899561,3,,,left,0.6161515668500215,,,,,,,,,,,,,,,,,,,,,,,,,1032,2019_Jun_07_1255,mf_amp_cond1,3.0.7,59.979858819520324,
wence,&&&&&,images/symbols/symbol_14.png,condition_files/AMP_rep2.csv,None,nonword,,,,,,,,,,,,,,0,2,2,1,0,77,77,77,,,,,,,,,,,,,,,,,,,,,950.5324020129628,,,,,,,,,,,,,,AMP_prac,left,4.134646636899561,3,,,left,0.7825990179553628,,,,,,,,,,,,,,,,,,,,,,,,,1032,2019_Jun_07_1255,mf_amp_cond1,3.0.7,59.979858819520324,
faith,&&&&&,images/symbols/symbol_30.png,condition_files/AMP_rep2.csv,left,sanctity.virtue,,,,,,,,,,,,,,0,2,2,1,0,78,78,78,,,,,,,,,,,,,,,,,,,,,951.6660335559864,,,,,,,,,,,,,,AMP_prac,left,4.134646636899561,3,,,right,0.9162138835527003,,,,,,,,,,,,,,,,,,,,,,,,,1032,2019_Jun_07_1255,mf_amp_cond1,3.0.7,59.979858819520324,
roossed,&&&&&&&,images/symbols/symbol_54.png,condition_files/AMP_rep2.csv,None,nonword,,,,,,,,,,,,,,0,2,2,1,0,79,79,79,,,,,,,,,,,,,,,,,,,,,952.7162975284737,,,,,,,,,,,,,,AMP_prac,left,4.134646636899561,3,,,right,0.83243642677553,,,,,,,,,,,,,,,,,,,,,,,,,1032,2019_Jun_07_1255,mf_amp_cond1,3.0.7,59.979858819520324,
attacks,&&&&&&&,images/symbols/symbol_47.png,condition_files/AMP_rep2.csv,right,care.vice,,,,,,,,,,,,,,0,2,2,1,0,80,80,80,,,,,,,,,,,,,,,,,,,,,953.7665640667547,,,,,,,,,,,,,,AMP_prac,left,4.134646636899561,3,,,right,0.8325499633792788,,,,,,,,,,,,,,,,,,,,,,,,,1032,2019_Jun_07_1255,mf_amp_cond1,3.0.7,59.979858819520324,
pleasant,&&&&&&&,images/symbols/symbol_63.png,condition_files/AMP_rep2.csv,right,control,,,,,,,,,,,,,,0,2,2,1,0,81,81,81,,,,,,,,,,,,,,,,,,,,,954.8001712027472,,,,,,,,,,,,,,AMP_prac,left,4.134646636899561,3,,,right,0.8160582999698818,,,,,,,,,,,,,,,,,,,,,,,,,1032,2019_Jun_07_1255,mf_amp_cond1,3.0.7,59.979858819520324,
,,,condition_files/AMP_rep2.csv,,,,,,,,,,,,,,,,0,2,2,1,,,,,,,,,,,,,,,,,,,,,,,,,,,,,,,,,,,,,,,,,,,,,,,right,6.518588721519336,,,,,,,,,,,,,,,,,,,,,,,1032,2019_Jun_07_1255,mf_amp_cond1,3.0.7,59.979858819520324,
hand,&&&&,images/symbols/symbol_26.png,condition_files/AMP_rep4.csv,left,sanctity.virtue,,,,,,,,,,,,,,0,3,3,3,0,0,0,0,,,,,,,,,,,,,,,,,,,,,962.56899894448,,,,,,,,,,,,,,AMP_prac,left,4.134646636899561,3,,,left,1.0004907087422907,,,,,,,,,,,,,,,,,,,,,,,,,1032,2019_Jun_07_1255,mf_amp_cond1,3.0.7,59.979858819520324,
promised,&&&&&&&&,images/symbols/symbol_33.png,condition_files/AMP_rep4.csv,left,loyalty.virtue,,,,,,,,,,,,,,0,3,3,3,0,1,1,1,,,,,,,,,,,,,,,,,,,,,964.1026094481349,,,,,,,,,,,,,,AMP_prac,left,4.134646636899561,3,,,right,1.3156450462993234,,,,,,,,,,,,,,,,,,,,,,,,,1032,2019_Jun_07_1255,mf_amp_cond1,3.0.7,59.979858819520324,
friends,&&&&&&&,images/symbols/symbol_11.png,condition_files/AMP_rep4.csv,left,loyalty.virtue,,,,,,,,,,,,,,0,3,3,3,0,2,2,2,,,,,,,,,,,,,,,,,,,,,964.9194881618023,,,,,,,,,,,,,,AMP_prac,left,4.134646636899561,3,,,right,0.5993135208263993,,,,,,,,,,,,,,,,,,,,,,,,,1032,2019_Jun_07_1255,mf_amp_cond1,3.0.7,59.979858819520324,
commitment,&&&&&&&&&&,images/symbols/symbol_15.png,condition_files/AMP_rep4.csv,left,sanctity.virtue,,,,,,,,,,,,,,0,3,3,3,0,3,3,3,,,,,,,,,,,,,,,,,,,,,965.9364298018627,,,,,,,,,,,,,,AMP_prac,left,4.134646636899561,3,,,right,0.7993280177470297,,,,,,,,,,,,,,,,,,,,,,,,,1032,2019_Jun_07_1255,mf_amp_cond1,3.0.7,59.979858819520324,
fighters,&&&&&&&&,images/symbols/symbol_73.png,condition_files/AMP_rep4.csv,right,authority.vice,,,,,,,,,,,,,,0,3,3,3,0,4,4,4,,,,,,,,,,,,,,,,,,,,,966.8199955162127,,,,,,,,,,,,,,AMP_prac,left,4.134646636899561,3,,,right,0.6504107359796762,,,,,,,,,,,,,,,,,,,,,,,,,1032,2019_Jun_07_1255,mf_amp_cond1,3.0.7,59.979858819520324,
credit,&&&&&&,images/symbols/symbol_58.png,condition_files/AMP_rep4.csv,left,fairness.virtue,,,,,,,,,,,,,,0,3,3,3,0,5,5,5,,,,,,,,,,,,,,,,,,,,,967.9536411713343,,,,,,,,,,,,,,AMP_prac,left,4.134646636899561,3,,,right,0.9154810276813805,,,,,,,,,,,,,,,,,,,,,,,,,1032,2019_Jun_07_1255,mf_amp_cond1,3.0.7,59.979858819520324,
stryct,&&&&&&,images/symbols/symbol_65.png,condition_files/AMP_rep4.csv,None,nonword,,,,,,,,,,,,,,0,3,3,3,0,6,6,6,,,,,,,,,,,,,,,,,,,,,968.9872210456524,,,,,,,,,,,,,,AMP_prac,left,4.134646636899561,3,,,right,0.8159078799653798,,,,,,,,,,,,,,,,,,,,,,,,,1032,2019_Jun_07_1255,mf_amp_cond1,3.0.7,59.979858819520324,
suicide,&&&&&&&,images/symbols/symbol_38.png,condition_files/AMP_rep4.csv,right,care.vice,,,,,,,,,,,,,,0,3,3,3,0,7,7,7,,,,,,,,,,,,,,,,,,,,,969.9541379737202,,,,,,,,,,,,,,AMP_prac,left,4.134646636899561,3,,,left,0.7493087581824511,,,,,,,,,,,,,,,,,,,,,,,,,1032,2019_Jun_07_1255,mf_amp_cond1,3.0.7,59.979858819520324,
war,&&&,images/symbols/symbol_57.png,condition_files/AMP_rep4.csv,right,sanctity.vice,,,,,,,,,,,,,,0,3,3,3,0,8,8,8,,,,,,,,,,,,,,,,,,,,,970.6876786234789,,,,,,,,,,,,,,AMP_prac,left,4.134646636899561,3,,,left,0.5159478744026273,,,,,,,,,,,,,,,,,,,,,,,,,1032,2019_Jun_07_1255,mf_amp_cond1,3.0.7,59.979858819520324,
soughste,&&&&&&&&,images/symbols/symbol_50.png,condition_files/AMP_rep4.csv,None,nonword,,,,,,,,,,,,,,0,3,3,3,0,9,9,9,,,,,,,,,,,,,,,,,,,,,971.9046482306439,,,,,,,,,,,,,,AMP_prac,left,4.134646636899561,3,,,right,0.9994637484196573,,,,,,,,,,,,,,,,,,,,,,,,,1032,2019_Jun_07_1255,mf_amp_cond1,3.0.7,59.979858819520324,
freedom,&&&&&&&,images/symbols/symbol_82.png,condition_files/AMP_rep4.csv,left,sanctity.virtue,,,,,,,,,,,,,,0,3,3,3,0,10,10,10,,,,,,,,,,,,,,,,,,,,,973.0216110704932,,,,,,,,,,,,,,AMP_prac,left,4.134646636899561,3,,,left,0.8996862990316004,,,,,,,,,,,,,,,,,,,,,,,,,1032,2019_Jun_07_1255,mf_amp_cond1,3.0.7,59.979858819520324,
growth,&&&&&&,images/symbols/symbol_17.png,condition_files/AMP_rep4.csv,left,care.virtue,,,,,,,,,,,,,,0,3,3,3,0,11,11,11,,,,,,,,,,,,,,,,,,,,,973.9051989149302,,,,,,,,,,,,,,AMP_prac,left,4.134646636899561,3,,,left,0.6659386216197163,,,,,,,,,,,,,,,,,,,,,,,,,1032,2019_Jun_07_1255,mf_amp_cond1,3.0.7,59.979858819520324,
energy,&&&&&&,images/symbols/symbol_75.png,condition_files/AMP_rep4.csv,left,sanctity.virtue,,,,,,,,,,,,,,0,3,3,3,0,12,12,12,,,,,,,,,,,,,,,,,,,,,974.6720442574006,,,,,,,,,,,,,,AMP_prac,left,4.134646636899561,3,,,left,0.5492179288994521,,,,,,,,,,,,,,,,,,,,,,,,,1032,2019_Jun_07_1255,mf_amp_cond1,3.0.7,59.979858819520324,
lies,&&&&,images/symbols/symbol_21.png,condition_files/AMP_rep4.csv,right,fairness.vice,,,,,,,,,,,,,,0,3,3,3,0,13,13,13,,,,,,,,,,,,,,,,,,,,,975.5556083682459,,,,,,,,,,,,,,AMP_prac,left,4.134646636899561,3,,,right,0.6662298396695405,,,,,,,,,,,,,,,,,,,,,,,,,1032,2019_Jun_07_1255,mf_amp_cond1,3.0.7,59.979858819520324,
benefit,&&&&&&&,images/symbols/symbol_44.png,condition_files/AMP_rep4.csv,left,fairness.virtue,,,,,,,,,,,,,,0,3,3,3,0,14,14,14,,,,,,,,,,,,,,,,,,,,,976.8059343046043,,,,,,,,,,,,,,AMP_prac,left,4.134646636899561,3,,,left,1.032638226635754,,,,,,,,,,,,,,,,,,,,,,,,,1032,2019_Jun_07_1255,mf_amp_cond1,3.0.7,59.979858819520324,
honored,&&&&&&&,images/symbols/symbol_52.png,condition_files/AMP_rep4.csv,left,authority.virtue,,,,,,,,,,,,,,0,3,3,3,0,15,15,15,,,,,,,,,,,,,,,,,,,,,978.0229215517174,,,,,,,,,,,,,,AMP_prac,left,4.134646636899561,3,,,left,0.9990808030124754,,,,,,,,,,,,,,,,,,,,,,,,,1032,2019_Jun_07_1255,mf_amp_cond1,3.0.7,59.979858819520324,
betrayal,&&&&&&&&,images/symbols/symbol_36.png,condition_files/AMP_rep4.csv,right,loyalty.vice,,,,,,,,,,,,,,0,3,3,3,0,16,16,16,,,,,,,,,,,,,,,,,,,,,978.7231103621889,,,,,,,,,,,,,,AMP_prac,left,4.134646636899561,3,,,right,0.48228172515518963,,,,,,,,,,,,,,,,,,,,,,,,,1032,2019_Jun_07_1255,mf_amp_cond1,3.0.7,59.979858819520324,
violence,&&&&&&&&,images/symbols/symbol_22.png,condition_files/AMP_rep4.csv,right,care.vice,,,,,,,,,,,,,,0,3,3,3,0,17,17,17,,,,,,,,,,,,,,,,,,,,,979.6567020714283,,,,,,,,,,,,,,AMP_prac,left,4.134646636899561,3,,,right,0.7157750681508332,,,,,,,,,,,,,,,,,,,,,,,,,1032,2019_Jun_07_1255,mf_amp_cond1,3.0.7,59.979858819520324,
shot,&&&&,images/symbols/symbol_31.png,condition_files/AMP_rep4.csv,right,care.vice,,,,,,,,,,,,,,0,3,3,3,0,18,18,18,,,,,,,,,,,,,,,,,,,,,980.6236125850119,,,,,,,,,,,,,,AMP_prac,left,4.134646636899561,3,,,left,0.7337632325943559,,,,,,,,,,,,,,,,,,,,,,,,,1032,2019_Jun_07_1255,mf_amp_cond1,3.0.7,59.979858819520324,
refused,&&&&&&&,images/symbols/symbol_1.png,condition_files/AMP_rep4.csv,right,authority.vice,,,,,,,,,,,,,,0,3,3,3,0,19,19,19,,,,,,,,,,,,,,,,,,,,,981.5571879372001,,,,,,,,,,,,,,AMP_prac,left,4.134646636899561,3,,,right,0.7153937264811248,,,,,,,,,,,,,,,,,,,,,,,,,1032,2019_Jun_07_1255,mf_amp_cond1,3.0.7,59.979858819520324,
terrorists,&&&&&&&&&&,images/symbols/symbol_6.png,condition_files/AMP_rep4.csv,right,fairness.vice,,,,,,,,,,,,,,0,3,3,3,0,20,20,20,,,,,,,,,,,,,,,,,,,,,982.6074599279091,,,,,,,,,,,,,,AMP_prac,left,4.134646636899561,3,,,right,0.8326246922370046,,,,,,,,,,,,,,,,,,,,,,,,,1032,2019_Jun_07_1255,mf_amp_cond1,3.0.7,59.979858819520324,
progress,&&&&&&&&,images/symbols/symbol_24.png,condition_files/AMP_rep4.csv,left,authority.virtue,,,,,,,,,,,,,,0,3,3,3,0,21,21,21,,,,,,,,,,,,,,,,,,,,,983.441036851611,,,,,,,,,,,,,,AMP_prac,left,4.134646636899561,3,,,right,0.6157766396645457,,,,,,,,,,,,,,,,,,,,,,,,,1032,2019_Jun_07_1255,mf_amp_cond1,3.0.7,59.979858819520324,
embrace,&&&&&&&,images/symbols/symbol_64.png,condition_files/AMP_rep4.csv,left,authority.virtue,,,,,,,,,,,,,,0,3,3,3,0,22,22,22,,,,,,,,,,,,,,,,,,,,,984.3912610220723,,,,,,,,,,,,,,AMP_prac,left,4.134646636899561,3,,,right,0.717089077224955,,,,,,,,,,,,,,,,,,,,,,,,,1032,2019_Jun_07_1255,mf_amp_cond1,3.0.7,59.979858819520324,
powerful,&&&&&&&&,images/symbols/symbol_16.png,condition_files/AMP_rep4.csv,left,authority.virtue,,,,,,,,,,,,,,0,3,3,3,0,23,23,23,,,,,,,,,,,,,,,,,,,,,985.2081833544653,,,,,,,,,,,,,,AMP_prac,left,4.134646636899561,3,,,right,0.5991098608355969,,,,,,,,,,,,,,,,,,,,,,,,,1032,2019_Jun_07_1255,mf_amp_cond1,3.0.7,59.979858819520324,
agreement,&&&&&&&&&,images/symbols/symbol_45.png,condition_files/AMP_rep4.csv,left,fairness.virtue,,,,,,,,,,,,,,0,3,3,3,0,24,24,24,,,,,,,,,,,,,,,,,,,,,985.9250533764716,,,,,,,,,,,,,,AMP_prac,left,4.134646636899561,3,,,right,0.49932760070078075,,,,,,,,,,,,,,,,,,,,,,,,,1032,2019_Jun_07_1255,mf_amp_cond1,3.0.7,59.979858819520324,
respect,&&&&&&&,images/symbols/symbol_41.png,condition_files/AMP_rep4.csv,left,sanctity.virtue,,,,,,,,,,,,,,0,3,3,3,0,25,25,25,,,,,,,,,,,,,,,,,,,,,986.7752252367791,,,,,,,,,,,,,,AMP_prac,left,4.134646636899561,3,,,right,0.6330925652291626,,,,,,,,,,,,,,,,,,,,,,,,,1032,2019_Jun_07_1255,mf_amp_cond1,3.0.7,59.979858819520324,
slavery,&&&&&&&,images/symbols/symbol_77.png,condition_files/AMP_rep4.csv,right,loyalty.vice,,,,,,,,,,,,,,0,3,3,3,0,26,26,26,,,,,,,,,,,,,,,,,,,,,987.6087976705749,,,,,,,,,,,,,,AMP_prac,left,4.134646636899561,3,,,right,0.615920324344188,,,,,,,,,,,,,,,,,,,,,,,,,1032,2019_Jun_07_1255,mf_amp_cond1,3.0.7,59.979858819520324,
safety,&&&&&&,images/symbols/symbol_4.png,condition_files/AMP_rep4.csv,left,care.virtue,,,,,,,,,,,,,,0,3,3,3,0,27,27,27,,,,,,,,,,,,,,,,,,,,,988.6923913520295,,,,,,,,,,,,,,AMP_prac,left,4.134646636899561,3,,,right,0.8656320730224252,,,,,,,,,,,,,,,,,,,,,,,,,1032,2019_Jun_07_1255,mf_amp_cond1,3.0.7,59.979858819520324,
perfect,&&&&&&&,images/symbols/symbol_18.png,condition_files/AMP_rep4.csv,left,sanctity.virtue,,,,,,,,,,,,,,0,3,3,3,0,28,28,28,,,,,,,,,,,,,,,,,,,,,989.8593647917733,,,,,,,,,,,,,,AMP_prac,left,4.134646636899561,3,,,left,0.9338062738534063,,,,,,,,,,,,,,,,,,,,,,,,,1032,2019_Jun_07_1255,mf_amp_cond1,3.0.7,59.979858819520324,
blamed,&&&&&&,images/symbols/symbol_69.png,condition_files/AMP_rep4.csv,right,loyalty.vice,,,,,,,,,,,,,,0,3,3,3,0,29,29,29,,,,,,,,,,,,,,,,,,,,,991.0430117459036,,,,,,,,,,,,,,AMP_prac,left,4.134646636899561,3,,,left,0.9504807502962649,,,,,,,,,,,,,,,,,,,,,,,,,1032,2019_Jun_07_1255,mf_amp_cond1,3.0.7,59.979858819520324,
fair,&&&&,images/symbols/symbol_13.png,condition_files/AMP_rep4.csv,left,fairness.virtue,,,,,,,,,,,,,,0,3,3,3,0,30,30,30,,,,,,,,,,,,,,,,,,,,,991.9599222433753,,,,,,,,,,,,,,AMP_prac,left,4.134646636899561,3,,,right,0.6987769806291908,,,,,,,,,,,,,,,,,,,,,,,,,1032,2019_Jun_07_1255,mf_amp_cond1,3.0.7,59.979858819520324,
spynze,&&&&&&,images/symbols/symbol_79.png,condition_files/AMP_rep4.csv,None,nonword,,,,,,,,,,,,,,0,3,3,3,0,31,31,31,,,,,,,,,,,,,,,,,,,,,992.8768250436988,,,,,,,,,,,,,,AMP_prac,left,4.134646636899561,3,,,left,0.6990980259142816,,,,,,,,,,,,,,,,,,,,,,,,,1032,2019_Jun_07_1255,mf_amp_cond1,3.0.7,59.979858819520324,
scandal,&&&&&&&,images/symbols/symbol_39.png,condition_files/AMP_rep4.csv,right,sanctity.vice,,,,,,,,,,,,,,0,3,3,3,0,32,32,32,,,,,,,,,,,,,,,,,,,,,993.7937368240673,,,,,,,,,,,,,,AMP_prac,left,4.134646636899561,3,,,left,0.6991063647437841,,,,,,,,,,,,,,,,,,,,,,,,,1032,2019_Jun_07_1255,mf_amp_cond1,3.0.7,59.979858819520324,
prosecution,&&&&&&&&&&&,images/symbols/symbol_40.png,condition_files/AMP_rep4.csv,right,authority.vice,,,,,,,,,,,,,,0,3,3,3,0,33,33,33,,,,,,,,,,,,,,,,,,,,,995.0940794544294,,,,,,,,,,,,,,AMP_prac,left,4.134646636899561,3,,,right,1.082597510656342,,,,,,,,,,,,,,,,,,,,,,,,,1032,2019_Jun_07_1255,mf_amp_cond1,3.0.7,59.979858819520324,
conspiracy,&&&&&&&&&&,images/symbols/symbol_29.png,condition_files/AMP_rep4.csv,right,sanctity.vice,,,,,,,,,,,,,,0,3,3,3,0,34,34,34,,,,,,,,,,,,,,,,,,,,,996.0943363548722,,,,,,,,,,,,,,AMP_prac,left,4.134646636899561,3,,,left,0.7820371084380895,,,,,,,,,,,,,,,,,,,,,,,,,1032,2019_Jun_07_1255,mf_amp_cond1,3.0.7,59.979858819520324,
useful,&&&&&&,images/symbols/symbol_76.png,condition_files/AMP_rep4.csv,left,authority.virtue,,,,,,,,,,,,,,0,3,3,3,0,35,35,35,,,,,,,,,,,,,,,,,,,,,996.8778712477069,,,,,,,,,,,,,,AMP_prac,left,4.134646636899561,3,,,left,0.5662609178107232,,,,,,,,,,,,,,,,,,,,,,,,,1032,2019_Jun_07_1255,mf_amp_cond1,3.0.7,59.979858819520324,
ban,&&&,images/symbols/symbol_70.png,condition_files/AMP_rep4.csv,right,loyalty.vice,,,,,,,,,,,,,,0,3,3,3,0,36,36,36,,,,,,,,,,,,,,,,,,,,,997.8615037049167,,,,,,,,,,,,,,AMP_prac,left,4.134646636899561,3,,,right,0.750467857113108,,,,,,,,,,,,,,,,,,,,,,,,,1032,2019_Jun_07_1255,mf_amp_cond1,3.0.7,59.979858819520324,
terrorist,&&&&&&&&&,images/symbols/symbol_66.png,condition_files/AMP_rep4.csv,right,loyalty.vice,,,,,,,,,,,,,,0,3,3,3,0,37,37,37,,,,,,,,,,,,,,,,,,,,,999.2785230884328,,,,,,,,,,,,,,AMP_prac,left,4.134646636899561,3,,,left,1.1989172974135727,,,,,,,,,,,,,,,,,,,,,,,,,1032,2019_Jun_07_1255,mf_amp_cond1,3.0.7,59.979858819520324,
rejected,&&&&&&&&,images/symbols/symbol_49.png,condition_files/AMP_rep4.csv,right,authority.vice,,,,,,,,,,,,,,0,3,3,3,0,38,38,38,,,,,,,,,,,,,,,,,,,,,1001.4123993446119,,,,,,,,,,,,,,AMP_prac,left,4.134646636899561,3,,,left,1.900729295797646,,,,,,,,,,,,,,,,,,,,,,,,,1032,2019_Jun_07_1255,mf_amp_cond1,3.0.7,59.979858819520324,
serial,&&&&&&,images/symbols/symbol_71.png,condition_files/AMP_rep4.csv,right,sanctity.vice,,,,,,,,,,,,,,0,3,3,3,0,39,39,39,,,,,,,,,,,,,,,,,,,,,1002.6127101909369,,,,,,,,,,,,,,AMP_prac,left,4.134646636899561,3,,,right,0.9821189574431628,,,,,,,,,,,,,,,,,,,,,,,,,1032,2019_Jun_07_1255,mf_amp_cond1,3.0.7,59.979858819520324,
illegal,&&&&&&&,images/symbols/symbol_19.png,condition_files/AMP_rep4.csv,right,fairness.vice,,,,,,,,,,,,,,0,3,3,3,0,40,40,40,,,,,,,,,,,,,,,,,,,,,1003.6129763922654,,,,,,,,,,,,,,AMP_prac,left,4.134646636899561,3,,,right,0.76710095978342,,,,,,,,,,,,,,,,,,,,,,,,,1032,2019_Jun_07_1255,mf_amp_cond1,3.0.7,59.979858819520324,
peaceful,&&&&&&&&,images/symbols/symbol_60.png,condition_files/AMP_rep4.csv,left,authority.virtue,,,,,,,,,,,,,,0,3,3,3,0,41,41,41,,,,,,,,,,,,,,,,,,,,,1004.929994140286,,,,,,,,,,,,,,AMP_prac,left,4.134646636899561,3,,,right,1.098723868606612,,,,,,,,,,,,,,,,,,,,,,,,,1032,2019_Jun_07_1255,mf_amp_cond1,3.0.7,59.979858819520324,
crict,&&&&&,images/symbols/symbol_74.png,condition_files/AMP_rep4.csv,None,nonword,,,,,,,,,,,,,,0,3,3,3,0,42,42,42,,,,,,,,,,,,,,,,,,,,,1006.2970680310391,,,,,,,,,,,,,,AMP_prac,left,4.134646636899561,3,,,left,1.1339227613061666,,,,,,,,,,,,,,,,,,,,,,,,,1032,2019_Jun_07_1255,mf_amp_cond1,3.0.7,59.979858819520324,
died,&&&&,images/symbols/symbol_43.png,condition_files/AMP_rep4.csv,right,care.vice,,,,,,,,,,,,,,0,3,3,3,0,43,43,43,,,,,,,,,,,,,,,,,,,,,1007.9974556909874,,,,,,,,,,,,,,AMP_prac,left,4.134646636899561,3,,,left,1.4672493592370301,,,,,,,,,,,,,,,,,,,,,,,,,1032,2019_Jun_07_1255,mf_amp_cond1,3.0.7,59.979858819520324,
ensure,&&&&&&,images/symbols/symbol_3.png,condition_files/AMP_rep4.csv,left,fairness.virtue,,,,,,,,,,,,,,0,3,3,3,0,44,44,44,,,,,,,,,,,,,,,,,,,,,1009.7812538987491,,,,,,,,,,,,,,AMP_prac,left,4.134646636899561,3,,,left,1.5506037804298103,,,,,,,,,,,,,,,,,,,,,,,,,1032,2019_Jun_07_1255,mf_amp_cond1,3.0.7,59.979858819520324,
support,&&&&&&&,images/symbols/symbol_37.png,condition_files/AMP_rep4.csv,left,loyalty.virtue,,,,,,,,,,,,,,0,3,3,3,0,45,45,45,,,,,,,,,,,,,,,,,,,,,1011.498392046662,,,,,,,,,,,,,,AMP_prac,left,4.134646636899561,3,,,left,1.498565558809787,,,,,,,,,,,,,,,,,,,,,,,,,1032,2019_Jun_07_1255,mf_amp_cond1,3.0.7,59.979858819520324,
sexual,&&&&&&,images/symbols/symbol_81.png,condition_files/AMP_rep4.csv,right,sanctity.vice,,,,,,,,,,,,,,0,3,3,3,0,46,46,46,,,,,,,,,,,,,,,,,,,,,1012.2985873038415,,,,,,,,,,,,,,AMP_prac,left,4.134646636899561,3,,,left,0.5825720131397247,,,,,,,,,,,,,,,,,,,,,,,,,1032,2019_Jun_07_1255,mf_amp_cond1,3.0.7,59.979858819520324,
increase,&&&&&&&&,images/symbols/symbol_55.png,condition_files/AMP_rep4.csv,left,care.virtue,,,,,,,,,,,,,,0,3,3,3,0,47,47,47,,,,,,,,,,,,,,,,,,,,,1013.7990098586306,,,,,,,,,,,,,,AMP_prac,left,4.134646636899561,3,,,left,1.2672630862798542,,,,,,,,,,,,,,,,,,,,,,,,,1032,2019_Jun_07_1255,mf_amp_cond1,3.0.7,59.979858819520324,
voter,&&&&&,images/symbols/symbol_72.png,condition_files/AMP_rep4.csv,right,fairness.vice,,,,,,,,,,,,,,0,3,3,3,0,48,48,48,,,,,,,,,,,,,,,,,,,,,1014.8159069179092,,,,,,,,,,,,,,AMP_prac,left,4.134646636899561,3,,,left,0.7984877191483974,,,,,,,,,,,,,,,,,,,,,,,,,1032,2019_Jun_07_1255,mf_amp_cond1,3.0.7,59.979858819520324,
restore,&&&&&&&,images/symbols/symbol_27.png,condition_files/AMP_rep4.csv,left,care.virtue,,,,,,,,,,,,,,0,3,3,3,0,49,49,49,,,,,,,,,,,,,,,,,,,,,1016.282968653366,,,,,,,,,,,,,,AMP_prac,left,4.134646636899561,3,,,right,1.2338920037727803,,,,,,,,,,,,,,,,,,,,,,,,,1032,2019_Jun_07_1255,mf_amp_cond1,3.0.7,59.979858819520324,
praised,&&&&&&&,images/symbols/symbol_56.png,condition_files/AMP_rep4.csv,left,loyalty.virtue,,,,,,,,,,,,,,0,3,3,3,0,50,50,50,,,,,,,,,,,,,,,,,,,,,1017.0998508951161,,,,,,,,,,,,,,AMP_prac,left,4.134646636899561,3,,,right,0.5837073784787208,,,,,,,,,,,,,,,,,,,,,,,,,1032,2019_Jun_07_1255,mf_amp_cond1,3.0.7,59.979858819520324,
