words,mask,masks,symbols,conditionfile,corr_ans,category,LDT_trials_cond2.thisRepN,LDT_trials_cond2.thisTrialN,LDT_trials_cond2.thisN,LDT_trials_cond2.thisIndex,LDT_pracs_1.thisRepN,LDT_pracs_1.thisTrialN,LDT_pracs_1.thisN,LDT_pracs_1.thisIndex,LDT_trials_1.thisRepN,LDT_trials_1.thisTrialN,LDT_trials_1.thisN,LDT_trials_1.thisIndex,logo_trials.thisRepN,logo_trials.thisTrialN,logo_trials.thisN,logo_trials.thisIndex,AMP_pracs.thisRepN,AMP_pracs.thisTrialN,AMP_pracs.thisN,AMP_pracs.thisIndex,trials_loop.thisRepN,trials_loop.thisTrialN,trials_loop.thisN,trials_loop.thisIndex,AMP_trials.thisRepN,AMP_trials.thisTrialN,AMP_trials.thisN,AMP_trials.thisIndex,memtask_trials.thisRepN,memtask_trials.thisTrialN,memtask_trials.thisN,memtask_trials.thisIndex,LDT_cond1.thisRepN,LDT_cond1.thisTrialN,LDT_cond1.thisN,LDT_cond1.thisIndex,begin_key.keys,begin_key.rt,key_resp_instr.keys,key_resp_instr.rt,exp_time,key_resp_LDT_instr.keys,key_resp_LDT_instr.rt,resp_LDT_prac.keys,resp_LDT_prac.rt,task,keypress,RT,corr,resp_LDT_ready.keys,resp_LDT_ready.rt,resp_LDT_trial.keys,resp_LDT_trial.rt,LDT_rating.response,LDT_rating.rt,resp_sym_rate.keys,resp_sym_rate.rt,sym_resp_1.keys,sym_resp_1.rt,sym_resp_2.keys,sym_resp_2.rt,sym_resp_trial.keys,sym_resp_trial.rt,symbol_index,resp_AMP_ready1.keys,resp_AMP_ready1.rt,resp_AMP.keys,resp_AMP.rt,prime_dur,resp_AMP_ready.keys,resp_AMP_ready.rt,resp_AMP_trials.keys,resp_AMP_trials.rt,rest_key_resp.keys,rest_key_resp.rt,AMP_nonword_rating.response,AMP_nonword_rating.rt,AMP_word_rating.response,AMP_word_rating.rt,AMP_random_rating.response,AMP_random_rating.rt,key_resp_instr_memtask.keys,key_resp_instr_memtask.rt,resp_memtask.keys,resp_memtask.corr,resp_memtask.rt,participant ID,date,expName,psychopyVersion,frameRate,
,,,,,,,,,,,,,,,,,,,,,,,,,,,,,,,,,,,,,,,,,,,right,511.05091857141815,,,,,,,,,,,,,,,,,,,,,,,,,,,,,,,,,,,,,,,,,,,,,,,,,1033,2019_Jun_07_1346,mf_amp_cond1,3.0.7,59.9819357892552,
,,,,,,,,,,,,,,,,,,,,,,,,,,,,,,,,,,,,,,,,,,,,,right,4.8515269223134965,,,,,,,,,,,,,,,,,,,,,,,,,,,,,,,,,,,,,,,,,,,,,,,1033,2019_Jun_07_1346,mf_amp_cond1,3.0.7,59.9819357892552,
keyboard,&&&&&&&,,,,,,0,0,0,0,0,0,0,0,,,,,,,,,,,,,,,,,,,,,,,,,,,,,,,,,616.7103099194355,right,3.3844472263008356,left,2.234022218035534,LDT_prac,left,2.234022218035534,0,,,,,,,,,,,,,,,,,,,,,,,,,,,,,,,,,,,,,,1033,2019_Jun_07_1346,mf_amp_cond1,3.0.7,59.9819357892552,
bisebell,&&&&&&&,,,,,,0,0,0,0,0,1,1,1,,,,,,,,,,,,,,,,,,,,,,,,,,,,,,,,,620.0778924794868,,,right,1.3005831737536937,LDT_prac,right,1.3005831737536937,0,,,,,,,,,,,,,,,,,,,,,,,,,,,,,,,,,,,,,,1033,2019_Jun_07_1346,mf_amp_cond1,3.0.7,59.9819357892552,
,,,,,,,0,0,0,0,,,,,0,0,0,0,,,,,,,,,,,,,,,,,,,,,,,,,,,,,641.3836072480772,,,,,LDT_prac,right,1.3005831737536937,0,right,2.634256154531613,left,1.0838772023562342,,,,,,,,,,,,,,,,,,,,,,,,,,,,,,,,,,1033,2019_Jun_07_1346,mf_amp_cond1,3.0.7,59.9819357892552,
,,,,,,,0,0,0,0,,,,,,,,,,,,,,,,,,,,,,,,,,,,,,,,,,,,,,,,,,,,,,,,,,5,14.472,,,,,,,,,,,,,,,,,,,,,,,,,,,,,,,,1033,2019_Jun_07_1346,mf_amp_cond1,3.0.7,59.9819357892552,
,,,,,,,,,,,,,,,,,,,,,,,,,,,,,,,,,,,,,,,,,,,,,,,,,,,,,,,,,,,,,,right,9.019273308338597,,,,,,,,,,,,,,,,,,,,,,,,,,,,,,1033,2019_Jun_07_1346,mf_amp_cond1,3.0.7,59.9819357892552,
,,,,,,,,,,,,,,,,,,,,,,,,,,,,,,,,,,,,,,,,,,,,,,,736.9249619699549,,,,,,,,,,,,,,,,,right,1.9840570965316147,,,,,,,,,,,,,,,,,,,,,,,,,,,,1033,2019_Jun_07_1346,mf_amp_cond1,3.0.7,59.9819357892552,
,,,,,,,,,,,,,,,,,,,,,,,,,,,,,,,,,,,,,,,,,,,,,,,,,,,,,,,,,,,,,,,,,,right,1.4172435700893402,,,,,,,,,,,,,,,,,,,,,,,,,,1033,2019_Jun_07_1346,mf_amp_cond1,3.0.7,59.9819357892552,
,,,,,,,,,,,,,,,,,,,,,,,,,,,,,,,,,,,,,,,,,,,,,,,756.3633483527228,,,,,,,,,,,,,,,,,,,,,left,0.8152616198640317,28,right,3.784581096842885,,,,,,,,,,,,,,,,,,,,,1033,2019_Jun_07_1346,mf_amp_cond1,3.0.7,59.9819357892552,
scarf,,&&&&&,images/symbols/symbol_54.png,,,,,,,,,,,,,,,,,,,,0,0,0,3,,,,,,,,,,,,,,,,,,,,,923.6576116466895,,,,,AMP_prac,left,3.117722636787221,,,,,,,,,,,,,,,,,,,left,3.117722636787221,6,,,,,,,,,,,,,,,,,,1033,2019_Jun_07_1346,mf_amp_cond1,3.0.7,59.9819357892552,
banana,,&&&&&&,images/symbols/symbol_68.png,,,,,,,,,,,,,,,,,,,,0,1,1,1,,,,,,,,,,,,,,,,,,,,,925.3746741036884,,,,,AMP_prac,right,1.4840271088760346,,,,,,,,,,,,,,,,,,,right,1.4840271088760346,6,,,,,,,,,,,,,,,,,,1033,2019_Jun_07_1346,mf_amp_cond1,3.0.7,59.9819357892552,
car,,&&&,images/symbols/symbol_9.png,,,,,,,,,,,,,,,,,,,,0,2,2,0,,,,,,,,,,,,,,,,,,,,,927.2584146128502,,,,,AMP_prac,right,1.650657694088295,,,,,,,,,,,,,,,,,,,right,1.650657694088295,6,,,,,,,,,,,,,,,,,,1033,2019_Jun_07_1346,mf_amp_cond1,3.0.7,59.9819357892552,
keyboard,,&&&&&&&&,images/symbols/symbol_40.png,,,,,,,,,,,,,,,,,,,,0,3,3,2,,,,,,,,,,,,,,,,,,,,,928.9755495537538,,,,,AMP_prac,right,1.4989177144598216,,,,,,,,,,,,,,,,,,,right,1.4989177144598216,6,,,,,,,,,,,,,,,,,,1033,2019_Jun_07_1346,mf_amp_cond1,3.0.7,59.9819357892552,
,,,,,,,,,,,,,,,,,,,,,,,,,,,,,,,,,,,,,,,,,,,,,,,,,,,,,,,,,,,,,,,,,,,,,,,,,,,,right,4.201348069822416,,,,,,,,,,,,,,,,1033,2019_Jun_07_1346,mf_amp_cond1,3.0.7,59.9819357892552,
freedom,,&&&&&&&,images/symbols/symbol_81.png,condition_files/AMP_rep1.csv,left,sanctity.virtue,,,,,,,,,,,,,,,,,,,,,0,0,0,0,0,0,0,0,,,,,,,,,,,,,955.5159748154692,,,,,AMP_prac,right,1.4989177144598216,,,,,,,,,,,,,,,,,,,,,6,,,left,2.067438458558172,,,,,,,,,,,,,,1033,2019_Jun_07_1346,mf_amp_cond1,3.0.7,59.9819357892552,
fighters,,&&&&&&&&,images/symbols/symbol_61.png,condition_files/AMP_rep1.csv,right,authority.vice,,,,,,,,,,,,,,,,,,,,,0,0,0,0,0,1,1,1,,,,,,,,,,,,,956.632791725453,,,,,AMP_prac,right,1.4989177144598216,,,,,,,,,,,,,,,,,,,,,6,,,right,0.8837963154073805,,,,,,,,,,,,,,1033,2019_Jun_07_1346,mf_amp_cond1,3.0.7,59.9819357892552,
police,,&&&&&&,images/symbols/symbol_67.png,condition_files/AMP_rep1.csv,right,authority.vice,,,,,,,,,,,,,,,,,,,,,0,0,0,0,0,2,2,2,,,,,,,,,,,,,957.4331585704349,,,,,AMP_prac,right,1.4989177144598216,,,,,,,,,,,,,,,,,,,,,6,,,right,0.5820046511944383,,,,,,,,,,,,,,1033,2019_Jun_07_1346,mf_amp_cond1,3.0.7,59.9819357892552,
good,,&&&&,images/symbols/symbol_32.png,condition_files/AMP_rep1.csv,left,care.virtue,,,,,,,,,,,,,,,,,,,,,0,0,0,0,0,3,3,3,,,,,,,,,,,,,959.1834792147856,,,,,AMP_prac,right,1.4989177144598216,,,,,,,,,,,,,,,,,,,,,6,,,right,1.5173087094444782,,,,,,,,,,,,,,1033,2019_Jun_07_1346,mf_amp_cond1,3.0.7,59.9819357892552,
promote,,&&&&&&&,images/symbols/symbol_68.png,condition_files/AMP_rep1.csv,left,sanctity.virtue,,,,,,,,,,,,,,,,,,,,,0,0,0,0,0,4,4,4,,,,,,,,,,,,,962.0008723710198,,,,,AMP_prac,right,1.4989177144598216,,,,,,,,,,,,,,,,,,,,,6,,,left,2.584252931177616,,,,,,,,,,,,,,1033,2019_Jun_07_1346,mf_amp_cond1,3.0.7,59.9819357892552,
credit,,&&&&&&,images/symbols/symbol_11.png,condition_files/AMP_rep1.csv,left,fairness.virtue,,,,,,,,,,,,,,,,,,,,,0,0,0,0,0,5,5,5,,,,,,,,,,,,,963.1011591309216,,,,,AMP_prac,right,1.4989177144598216,,,,,,,,,,,,,,,,,,,,,6,,,right,0.8819120577536523,,,,,,,,,,,,,,1033,2019_Jun_07_1346,mf_amp_cond1,3.0.7,59.9819357892552,
dignity,,&&&&&&&,images/symbols/symbol_14.png,condition_files/AMP_rep1.csv,left,sanctity.virtue,,,,,,,,,,,,,,,,,,,,,0,0,0,0,0,6,6,6,,,,,,,,,,,,,964.4848625967279,,,,,AMP_prac,right,1.4989177144598216,,,,,,,,,,,,,,,,,,,,,6,,,right,1.1661741940770298,,,,,,,,,,,,,,1033,2019_Jun_07_1346,mf_amp_cond1,3.0.7,59.9819357892552,
perfect,,&&&&&&&,images/symbols/symbol_58.png,condition_files/AMP_rep1.csv,left,sanctity.virtue,,,,,,,,,,,,,,,,,,,,,0,0,0,0,0,7,7,7,,,,,,,,,,,,,965.6184951020405,,,,,AMP_prac,right,1.4989177144598216,,,,,,,,,,,,,,,,,,,,,6,,,right,0.9004788098391145,,,,,,,,,,,,,,1033,2019_Jun_07_1346,mf_amp_cond1,3.0.7,59.9819357892552,
great,,&&&&&,images/symbols/symbol_34.png,condition_files/AMP_rep1.csv,left,loyalty.virtue,,,,,,,,,,,,,,,,,,,,,0,0,0,0,0,8,8,8,,,,,,,,,,,,,966.5187308024615,,,,,AMP_prac,right,1.4989177144598216,,,,,,,,,,,,,,,,,,,,,6,,,right,0.6817080129403621,,,,,,,,,,,,,,1033,2019_Jun_07_1346,mf_amp_cond1,3.0.7,59.9819357892552,
health,,&&&&&&,images/symbols/symbol_8.png,condition_files/AMP_rep1.csv,left,care.virtue,,,,,,,,,,,,,,,,,,,,,0,0,0,0,0,9,9,9,,,,,,,,,,,,,968.0858025124762,,,,,AMP_prac,right,1.4989177144598216,,,,,,,,,,,,,,,,,,,,,6,,,right,1.349570341175422,,,,,,,,,,,,,,1033,2019_Jun_07_1346,mf_amp_cond1,3.0.7,59.9819357892552,
terrorists,,&&&&&&&&&&,images/symbols/symbol_21.png,condition_files/AMP_rep1.csv,right,fairness.vice,,,,,,,,,,,,,,,,,,,,,0,0,0,0,0,10,10,10,,,,,,,,,,,,,969.2526502280962,,,,,AMP_prac,right,1.4989177144598216,,,,,,,,,,,,,,,,,,,,,6,,,left,0.9496080584358424,,,,,,,,,,,,,,1033,2019_Jun_07_1346,mf_amp_cond1,3.0.7,59.9819357892552,
rhuissed,,&&&&&&&&,images/symbols/symbol_64.png,condition_files/AMP_rep1.csv,None,nonword,,,,,,,,,,,,,,,,,,,,,0,0,0,0,0,11,11,11,,,,,,,,,,,,,970.4864498630632,,,,,AMP_prac,right,1.4989177144598216,,,,,,,,,,,,,,,,,,,,,6,,,left,1.0161269991658628,,,,,,,,,,,,,,1033,2019_Jun_07_1346,mf_amp_cond1,3.0.7,59.9819357892552,
illegal,,&&&&&&&,images/symbols/symbol_57.png,condition_files/AMP_rep1.csv,right,fairness.vice,,,,,,,,,,,,,,,,,,,,,0,0,0,0,0,12,12,12,,,,,,,,,,,,,971.9368149922229,,,,,AMP_prac,right,1.4989177144598216,,,,,,,,,,,,,,,,,,,,,6,,,left,1.2329612607136369,,,,,,,,,,,,,,1033,2019_Jun_07_1346,mf_amp_cond1,3.0.7,59.9819357892552,
charges,,&&&&&&&,images/symbols/symbol_75.png,condition_files/AMP_rep1.csv,right,fairness.vice,,,,,,,,,,,,,,,,,,,,,0,0,0,0,0,13,13,13,,,,,,,,,,,,,972.7537334756926,,,,,AMP_prac,right,1.4989177144598216,,,,,,,,,,,,,,,,,,,,,6,,,right,0.5994729208759964,,,,,,,,,,,,,,1033,2019_Jun_07_1346,mf_amp_cond1,3.0.7,59.9819357892552,
slavery,,&&&&&&&,images/symbols/symbol_49.png,condition_files/AMP_rep1.csv,right,loyalty.vice,,,,,,,,,,,,,,,,,,,,,0,0,0,0,0,14,14,14,,,,,,,,,,,,,973.8539811072405,,,,,AMP_prac,right,1.4989177144598216,,,,,,,,,,,,,,,,,,,,,6,,,right,0.8671195940114558,,,,,,,,,,,,,,1033,2019_Jun_07_1346,mf_amp_cond1,3.0.7,59.9819357892552,
agreement,,&&&&&&&&&,images/symbols/symbol_18.png,condition_files/AMP_rep1.csv,left,fairness.virtue,,,,,,,,,,,,,,,,,,,,,0,0,0,0,0,15,15,15,,,,,,,,,,,,,974.7542097519618,,,,,AMP_prac,right,1.4989177144598216,,,,,,,,,,,,,,,,,,,,,6,,,right,0.6819780629593879,,,,,,,,,,,,,,1033,2019_Jun_07_1346,mf_amp_cond1,3.0.7,59.9819357892552,
conspiracy,,&&&&&&&&&&,images/symbols/symbol_23.png,condition_files/AMP_rep1.csv,right,sanctity.vice,,,,,,,,,,,,,,,,,,,,,0,0,0,0,0,16,16,16,,,,,,,,,,,,,975.5377520213369,,,,,AMP_prac,right,1.4989177144598216,,,,,,,,,,,,,,,,,,,,,6,,,left,0.5503783109597862,,,,,,,,,,,,,,1033,2019_Jun_07_1346,mf_amp_cond1,3.0.7,59.9819357892552,
benefit,,&&&&&&&,images/symbols/symbol_37.png,condition_files/AMP_rep1.csv,left,fairness.virtue,,,,,,,,,,,,,,,,,,,,,0,0,0,0,0,17,17,17,,,,,,,,,,,,,976.9714705771767,,,,,AMP_prac,right,1.4989177144598216,,,,,,,,,,,,,,,,,,,,,6,,,right,1.215479840990156,,,,,,,,,,,,,,1033,2019_Jun_07_1346,mf_amp_cond1,3.0.7,59.9819357892552,
died,,&&&&,images/symbols/symbol_74.png,condition_files/AMP_rep1.csv,right,care.vice,,,,,,,,,,,,,,,,,,,,,0,0,0,0,0,18,18,18,,,,,,,,,,,,,978.07174450811,,,,,AMP_prac,right,1.4989177144598216,,,,,,,,,,,,,,,,,,,,,6,,,left,0.8671118966303766,,,,,,,,,,,,,,1033,2019_Jun_07_1346,mf_amp_cond1,3.0.7,59.9819357892552,
threatened,,&&&&&&&&&&,images/symbols/symbol_5.png,condition_files/AMP_rep1.csv,right,fairness.vice,,,,,,,,,,,,,,,,,,,,,0,0,0,0,0,19,19,19,,,,,,,,,,,,,979.2554074982181,,,,,AMP_prac,right,1.4989177144598216,,,,,,,,,,,,,,,,,,,,,6,,,right,0.9656038812827319,,,,,,,,,,,,,,1033,2019_Jun_07_1346,mf_amp_cond1,3.0.7,59.9819357892552,
corruption,,&&&&&&&&&&,images/symbols/symbol_17.png,condition_files/AMP_rep1.csv,right,sanctity.vice,,,,,,,,,,,,,,,,,,,,,0,0,0,0,0,20,20,20,,,,,,,,,,,,,980.1890014524106,,,,,AMP_prac,right,1.4989177144598216,,,,,,,,,,,,,,,,,,,,,6,,,left,0.7161233751103282,,,,,,,,,,,,,,1033,2019_Jun_07_1346,mf_amp_cond1,3.0.7,59.9819357892552,
pleasant,,&&&&&&&,images/symbols/symbol_38.png,condition_files/AMP_rep1.csv,right,control,,,,,,,,,,,,,,,,,,,,,0,0,0,0,0,21,21,21,,,,,,,,,,,,,981.5893357759342,,,,,AMP_prac,right,1.4989177144598216,,,,,,,,,,,,,,,,,,,,,6,,,right,1.182846425101161,,,,,,,,,,,,,,1033,2019_Jun_07_1346,mf_amp_cond1,3.0.7,59.9819357892552,
clean,,&&&&&,images/symbols/symbol_78.png,condition_files/AMP_rep1.csv,left,sanctity.virtue,,,,,,,,,,,,,,,,,,,,,0,0,0,0,0,22,22,22,,,,,,,,,,,,,983.4064906337298,,,,,AMP_prac,right,1.4989177144598216,,,,,,,,,,,,,,,,,,,,,6,,,right,1.5991294248960912,,,,,,,,,,,,,,1033,2019_Jun_07_1346,mf_amp_cond1,3.0.7,59.9819357892552,
celebrated,,&&&&&&&&&&,images/symbols/symbol_45.png,condition_files/AMP_rep1.csv,left,authority.virtue,,,,,,,,,,,,,,,,,,,,,0,0,0,0,0,23,23,23,,,,,,,,,,,,,983.9399792619515,,,,,AMP_prac,right,1.4989177144598216,,,,,,,,,,,,,,,,,,,,,6,,,left,0.3158730815630406,,,,,,,,,,,,,,1033,2019_Jun_07_1346,mf_amp_cond1,3.0.7,59.9819357892552,
chawde,,&&&&&&,images/symbols/symbol_31.png,condition_files/AMP_rep1.csv,None,nonword,,,,,,,,,,,,,,,,,,,,,0,0,0,0,0,24,24,24,,,,,,,,,,,,,984.7234990806319,,,,,AMP_prac,right,1.4989177144598216,,,,,,,,,,,,,,,,,,,,,6,,,left,0.5503751037176698,,,,,,,,,,,,,,1033,2019_Jun_07_1346,mf_amp_cond1,3.0.7,59.9819357892552,
unpleasant,,&&&&&&&&&,images/symbols/symbol_43.png,condition_files/AMP_rep1.csv,left,control,,,,,,,,,,,,,,,,,,,,,0,0,0,0,0,25,25,25,,,,,,,,,,,,,985.1235979921184,,,,,AMP_prac,right,1.4989177144598216,,,,,,,,,,,,,,,,,,,,,6,,,right,0.18188360962085426,,,,,,,,,,,,,,1033,2019_Jun_07_1346,mf_amp_cond1,3.0.7,59.9819357892552,
strength,,&&&&&&&&,images/symbols/symbol_1.png,condition_files/AMP_rep1.csv,left,sanctity.virtue,,,,,,,,,,,,,,,,,,,,,0,0,0,0,0,26,26,26,,,,,,,,,,,,,985.7737829380203,,,,,AMP_prac,right,1.4989177144598216,,,,,,,,,,,,,,,,,,,,,6,,,right,0.4325370059814304,,,,,,,,,,,,,,1033,2019_Jun_07_1346,mf_amp_cond1,3.0.7,59.9819357892552,
values,,&&&&&&,images/symbols/symbol_52.png,condition_files/AMP_rep1.csv,left,sanctity.virtue,,,,,,,,,,,,,,,,,,,,,0,0,0,0,0,27,27,27,,,,,,,,,,,,,986.573996797204,,,,,AMP_prac,right,1.4989177144598216,,,,,,,,,,,,,,,,,,,,,6,,,right,0.5670537492260337,,,,,,,,,,,,,,1033,2019_Jun_07_1346,mf_amp_cond1,3.0.7,59.9819357892552,
promised,,&&&&&&&&,images/symbols/symbol_71.png,condition_files/AMP_rep1.csv,left,loyalty.virtue,,,,,,,,,,,,,,,,,,,,,0,0,0,0,0,28,28,28,,,,,,,,,,,,,987.9410203341395,,,,,AMP_prac,right,1.4989177144598216,,,,,,,,,,,,,,,,,,,,,6,,,right,1.1488152912352234,,,,,,,,,,,,,,1033,2019_Jun_07_1346,mf_amp_cond1,3.0.7,59.9819357892552,
noost,,&&&&&,images/symbols/symbol_9.png,condition_files/AMP_rep1.csv,None,nonword,,,,,,,,,,,,,,,,,,,,,0,0,0,0,0,29,29,29,,,,,,,,,,,,,988.3577796102036,,,,,AMP_prac,right,1.4989177144598216,,,,,,,,,,,,,,,,,,,,,6,,,left,0.19913282454945147,,,,,,,,,,,,,,1033,2019_Jun_07_1346,mf_amp_cond1,3.0.7,59.9819357892552,
victim,,&&&&&&,images/symbols/symbol_65.png,condition_files/AMP_rep1.csv,right,care.vice,,,,,,,,,,,,,,,,,,,,,0,0,0,0,0,30,30,30,,,,,,,,,,,,,990.0915787639096,,,,,AMP_prac,right,1.4989177144598216,,,,,,,,,,,,,,,,,,,,,6,,,left,1.516162439249456,,,,,,,,,,,,,,1033,2019_Jun_07_1346,mf_amp_cond1,3.0.7,59.9819357892552,
shot,,&&&&,images/symbols/symbol_77.png,condition_files/AMP_rep1.csv,right,care.vice,,,,,,,,,,,,,,,,,,,,,0,0,0,0,0,31,31,31,,,,,,,,,,,,,990.8751415598672,,,,,AMP_prac,right,1.4989177144598216,,,,,,,,,,,,,,,,,,,,,6,,,left,0.5657548143062741,,,,,,,,,,,,,,1033,2019_Jun_07_1346,mf_amp_cond1,3.0.7,59.9819357892552,
black,,&&&&&,images/symbols/symbol_47.png,condition_files/AMP_rep1.csv,right,loyalty.vice,,,,,,,,,,,,,,,,,,,,,0,0,0,0,0,32,32,32,,,,,,,,,,,,,991.7086687711999,,,,,AMP_prac,right,1.4989177144598216,,,,,,,,,,,,,,,,,,,,,6,,,left,0.6160652916878462,,,,,,,,,,,,,,1033,2019_Jun_07_1346,mf_amp_cond1,3.0.7,59.9819357892552,
safety,,&&&&&&,images/symbols/symbol_36.png,condition_files/AMP_rep1.csv,left,care.virtue,,,,,,,,,,,,,,,,,,,,,0,0,0,0,0,33,33,33,,,,,,,,,,,,,992.6755921137519,,,,,AMP_prac,right,1.4989177144598216,,,,,,,,,,,,,,,,,,,,,6,,,right,0.7495326239150017,,,,,,,,,,,,,,1033,2019_Jun_07_1346,mf_amp_cond1,3.0.7,59.9819357892552,
increase,,&&&&&&&&,images/symbols/symbol_76.png,condition_files/AMP_rep1.csv,left,care.virtue,,,,,,,,,,,,,,,,,,,,,0,0,0,0,0,34,34,34,,,,,,,,,,,,,993.7758791944943,,,,,AMP_prac,right,1.4989177144598216,,,,,,,,,,,,,,,,,,,,,6,,,left,0.8832491589710116,,,,,,,,,,,,,,1033,2019_Jun_07_1346,mf_amp_cond1,3.0.7,59.9819357892552,
friends,,&&&&&&&,images/symbols/symbol_13.png,condition_files/AMP_rep1.csv,left,loyalty.virtue,,,,,,,,,,,,,,,,,,,,,0,0,0,0,0,35,35,35,,,,,,,,,,,,,994.942844936857,,,,,AMP_prac,right,1.4989177144598216,,,,,,,,,,,,,,,,,,,,,6,,,right,0.9495150481816381,,,,,,,,,,,,,,1033,2019_Jun_07_1346,mf_amp_cond1,3.0.7,59.9819357892552,
rejected,,&&&&&&&&,images/symbols/symbol_69.png,condition_files/AMP_rep1.csv,right,authority.vice,,,,,,,,,,,,,,,,,,,,,0,0,0,0,0,36,36,36,,,,,,,,,,,,,996.4098928810563,,,,,AMP_prac,right,1.4989177144598216,,,,,,,,,,,,,,,,,,,,,6,,,left,1.2338833441026509,,,,,,,,,,,,,,1033,2019_Jun_07_1346,mf_amp_cond1,3.0.7,59.9819357892552,
gun,,&&&,images/symbols/symbol_50.png,condition_files/AMP_rep1.csv,right,authority.vice,,,,,,,,,,,,,,,,,,,,,0,0,0,0,0,37,37,37,,,,,,,,,,,,,997.3434724027757,,,,,AMP_prac,right,1.4989177144598216,,,,,,,,,,,,,,,,,,,,,6,,,right,0.7156762848608196,,,,,,,,,,,,,,1033,2019_Jun_07_1346,mf_amp_cond1,3.0.7,59.9819357892552,
sharing,,&&&&&&&,images/symbols/symbol_62.png,condition_files/AMP_rep1.csv,left,loyalty.virtue,,,,,,,,,,,,,,,,,,,,,0,0,0,0,0,38,38,38,,,,,,,,,,,,,998.4437816133723,,,,,AMP_prac,right,1.4989177144598216,,,,,,,,,,,,,,,,,,,,,6,,,right,0.8671381960157305,,,,,,,,,,,,,,1033,2019_Jun_07_1346,mf_amp_cond1,3.0.7,59.9819357892552,
death,,&&&&&,images/symbols/symbol_35.png,condition_files/AMP_rep1.csv,right,care.vice,,,,,,,,,,,,,,,,,,,,,0,0,0,0,0,39,39,39,,,,,,,,,,,,,999.3106475141831,,,,,AMP_prac,right,1.4989177144598216,,,,,,,,,,,,,,,,,,,,,6,,,right,0.6487314216792583,,,,,,,,,,,,,,1033,2019_Jun_07_1346,mf_amp_cond1,3.0.7,59.9819357892552,
scourld,,&&&&&&&,images/symbols/symbol_4.png,condition_files/AMP_rep1.csv,None,nonword,,,,,,,,,,,,,,,,,,,,,0,0,0,0,0,40,40,40,,,,,,,,,,,,,1000.0275707766414,,,,,AMP_prac,right,1.4989177144598216,,,,,,,,,,,,,,,,,,,,,6,,,right,0.4993930284399539,,,,,,,,,,,,,,1033,2019_Jun_07_1346,mf_amp_cond1,3.0.7,59.9819357892552,
protesters,,&&&&&&&&&&,images/symbols/symbol_19.png,condition_files/AMP_rep1.csv,right,authority.vice,,,,,,,,,,,,,,,,,,,,,0,0,0,0,0,41,41,41,,,,,,,,,,,,,1000.8444081170019,,,,,AMP_prac,right,1.4989177144598216,,,,,,,,,,,,,,,,,,,,,6,,,right,0.5994013994932175,,,,,,,,,,,,,,1033,2019_Jun_07_1346,mf_amp_cond1,3.0.7,59.9819357892552,
harassment,,&&&&&&&&&&,images/symbols/symbol_54.png,condition_files/AMP_rep1.csv,right,sanctity.vice,,,,,,,,,,,,,,,,,,,,,0,0,0,0,0,42,42,42,,,,,,,,,,,,,1002.0613870250527,,,,,AMP_prac,right,1.4989177144598216,,,,,,,,,,,,,,,,,,,,,6,,,left,0.9838290615007281,,,,,,,,,,,,,,1033,2019_Jun_07_1346,mf_amp_cond1,3.0.7,59.9819357892552,
victims,,&&&&&&&,images/symbols/symbol_56.png,condition_files/AMP_rep1.csv,right,care.vice,,,,,,,,,,,,,,,,,,,,,0,0,0,0,0,43,43,43,,,,,,,,,,,,,1002.8949273861945,,,,,AMP_prac,right,1.4989177144598216,,,,,,,,,,,,,,,,,,,,,6,,,right,0.6155534153804183,,,,,,,,,,,,,,1033,2019_Jun_07_1346,mf_amp_cond1,3.0.7,59.9819357892552,
useful,,&&&&&&,images/symbols/symbol_82.png,condition_files/AMP_rep1.csv,left,authority.virtue,,,,,,,,,,,,,,,,,,,,,0,0,0,0,0,44,44,44,,,,,,,,,,,,,1003.7618253596593,,,,,AMP_prac,right,1.4989177144598216,,,,,,,,,,,,,,,,,,,,,6,,,left,0.6497112354263663,,,,,,,,,,,,,,1033,2019_Jun_07_1346,mf_amp_cond1,3.0.7,59.9819357892552,
compassion,,&&&&&&&&&&,images/symbols/symbol_15.png,condition_files/AMP_rep1.csv,left,care.virtue,,,,,,,,,,,,,,,,,,,,,0,0,0,0,0,45,45,45,,,,,,,,,,,,,1004.6287191633601,,,,,AMP_prac,right,1.4989177144598216,,,,,,,,,,,,,,,,,,,,,6,,,left,0.6492978213354945,,,,,,,,,,,,,,1033,2019_Jun_07_1346,mf_amp_cond1,3.0.7,59.9819357892552,
hate,,&&&&,images/symbols/symbol_46.png,condition_files/AMP_rep1.csv,right,fairness.vice,,,,,,,,,,,,,,,,,,,,,0,0,0,0,0,46,46,46,,,,,,,,,,,,,1005.5788467959501,,,,,AMP_prac,right,1.4989177144598216,,,,,,,,,,,,,,,,,,,,,6,,,right,0.732611189596355,,,,,,,,,,,,,,1033,2019_Jun_07_1346,mf_amp_cond1,3.0.7,59.9819357892552,
progress,,&&&&&&&&,images/symbols/symbol_10.png,condition_files/AMP_rep1.csv,left,authority.virtue,,,,,,,,,,,,,,,,,,,,,0,0,0,0,0,47,47,47,,,,,,,,,,,,,1006.44586824812,,,,,AMP_prac,right,1.4989177144598216,,,,,,,,,,,,,,,,,,,,,6,,,left,0.6495303467381746,,,,,,,,,,,,,,1033,2019_Jun_07_1346,mf_amp_cond1,3.0.7,59.9819357892552,
ability,,&&&&&&&,images/symbols/symbol_41.png,condition_files/AMP_rep1.csv,left,authority.virtue,,,,,,,,,,,,,,,,,,,,,0,0,0,0,0,48,48,48,,,,,,,,,,,,,1007.4127947981469,,,,,AMP_prac,right,1.4989177144598216,,,,,,,,,,,,,,,,,,,,,6,,,left,0.7495887507684529,,,,,,,,,,,,,,1033,2019_Jun_07_1346,mf_amp_cond1,3.0.7,59.9819357892552,
improve,,&&&&&&&,images/symbols/symbol_66.png,condition_files/AMP_rep1.csv,left,care.virtue,,,,,,,,,,,,,,,,,,,,,0,0,0,0,0,49,49,49,,,,,,,,,,,,,1008.3463672637008,,,,,AMP_prac,right,1.4989177144598216,,,,,,,,,,,,,,,,,,,,,6,,,left,0.70040850690566,,,,,,,,,,,,,,1033,2019_Jun_07_1346,mf_amp_cond1,3.0.7,59.9819357892552,
voter,,&&&&&,images/symbols/symbol_12.png,condition_files/AMP_rep1.csv,right,fairness.vice,,,,,,,,,,,,,,,,,,,,,0,0,0,0,0,50,50,50,,,,,,,,,,,,,1009.2966087532695,,,,,AMP_prac,right,1.4989177144598216,,,,,,,,,,,,,,,,,,,,,6,,,right,0.7170871528796852,,,,,,,,,,,,,,1033,2019_Jun_07_1346,mf_amp_cond1,3.0.7,59.9819357892552,
rhaps,,&&&&&,images/symbols/symbol_70.png,condition_files/AMP_rep1.csv,None,nonword,,,,,,,,,,,,,,,,,,,,,0,0,0,0,0,51,51,51,,,,,,,,,,,,,1010.6302923180629,,,,,AMP_prac,right,1.4989177144598216,,,,,,,,,,,,,,,,,,,,,6,,,right,1.1157476140651852,,,,,,,,,,,,,,1033,2019_Jun_07_1346,mf_amp_cond1,3.0.7,59.9819357892552,
peighld,,&&&&&&&,images/symbols/symbol_79.png,condition_files/AMP_rep1.csv,None,nonword,,,,,,,,,,,,,,,,,,,,,0,0,0,0,0,52,52,52,,,,,,,,,,,,,1011.7306005666032,,,,,AMP_prac,right,1.4989177144598216,,,,,,,,,,,,,,,,,,,,,6,,,left,0.8827244534622878,,,,,,,,,,,,,,1033,2019_Jun_07_1346,mf_amp_cond1,3.0.7,59.9819357892552,
racist,,&&&&&&,images/symbols/symbol_48.png,condition_files/AMP_rep1.csv,right,sanctity.vice,,,,,,,,,,,,,,,,,,,,,0,0,0,0,0,53,53,53,,,,,,,,,,,,,1012.9309239210561,,,,,AMP_prac,right,1.4989177144598216,,,,,,,,,,,,,,,,,,,,,6,,,right,0.9828421915881336,,,,,,,,,,,,,,1033,2019_Jun_07_1346,mf_amp_cond1,3.0.7,59.9819357892552,
suicide,,&&&&&&&,images/symbols/symbol_16.png,condition_files/AMP_rep1.csv,right,care.vice,,,,,,,,,,,,,,,,,,,,,0,0,0,0,0,54,54,54,,,,,,,,,,,,,1013.8644726532511,,,,,AMP_prac,right,1.4989177144598216,,,,,,,,,,,,,,,,,,,,,6,,,right,0.7163129232358187,,,,,,,,,,,,,,1033,2019_Jun_07_1346,mf_amp_cond1,3.0.7,59.9819357892552,
rebels,,&&&&&&,images/symbols/symbol_25.png,condition_files/AMP_rep1.csv,right,authority.vice,,,,,,,,,,,,,,,,,,,,,0,0,0,0,0,55,55,55,,,,,,,,,,,,,1015.6982939690351,,,,,AMP_prac,right,1.4989177144598216,,,,,,,,,,,,,,,,,,,,,6,,,right,1.6160377094056457,,,,,,,,,,,,,,1033,2019_Jun_07_1346,mf_amp_cond1,3.0.7,59.9819357892552,
interests,,&&&&&&&&&,images/symbols/symbol_3.png,condition_files/AMP_rep1.csv,left,fairness.virtue,,,,,,,,,,,,,,,,,,,,,0,0,0,0,0,56,56,56,,,,,,,,,,,,,1016.8986307941377,,,,,AMP_prac,right,1.4989177144598216,,,,,,,,,,,,,,,,,,,,,6,,,left,0.982831286964938,,,,,,,,,,,,,,1033,2019_Jun_07_1346,mf_amp_cond1,3.0.7,59.9819357892552,
psypped,,&&&&&&&,images/symbols/symbol_72.png,condition_files/AMP_rep1.csv,None,nonword,,,,,,,,,,,,,,,,,,,,,0,0,0,0,0,57,57,57,,,,,,,,,,,,,1017.915552549297,,,,,AMP_prac,right,1.4989177144598216,,,,,,,,,,,,,,,,,,,,,6,,,right,0.783789548324421,,,,,,,,,,,,,,1033,2019_Jun_07_1346,mf_amp_cond1,3.0.7,59.9819357892552,
honored,,&&&&&&&,images/symbols/symbol_22.png,condition_files/AMP_rep1.csv,left,authority.virtue,,,,,,,,,,,,,,,,,,,,,0,0,0,0,0,58,58,58,,,,,,,,,,,,,1019.5493061281741,,,,,AMP_prac,right,1.4989177144598216,,,,,,,,,,,,,,,,,,,,,6,,,left,1.4157894044183195,,,,,,,,,,,,,,1033,2019_Jun_07_1346,mf_amp_cond1,3.0.7,59.9819357892552,
sexual,,&&&&&&,images/symbols/symbol_39.png,condition_files/AMP_rep1.csv,right,sanctity.vice,,,,,,,,,,,,,,,,,,,,,0,0,0,0,0,59,59,59,,,,,,,,,,,,,1020.8496439473238,,,,,AMP_prac,right,1.4989177144598216,,,,,,,,,,,,,,,,,,,,,6,,,left,1.0825308000203222,,,,,,,,,,,,,,1033,2019_Jun_07_1346,mf_amp_cond1,3.0.7,59.9819357892552,
violations,,&&&&&&&&&&,images/symbols/symbol_20.png,condition_files/AMP_rep1.csv,right,sanctity.vice,,,,,,,,,,,,,,,,,,,,,0,0,0,0,0,60,60,60,,,,,,,,,,,,,1021.7332077375613,,,,,AMP_prac,right,1.4989177144598216,,,,,,,,,,,,,,,,,,,,,6,,,left,0.6665130394976586,,,,,,,,,,,,,,1033,2019_Jun_07_1346,mf_amp_cond1,3.0.7,59.9819357892552,
ban,,&&&,images/symbols/symbol_60.png,condition_files/AMP_rep1.csv,right,loyalty.vice,,,,,,,,,,,,,,,,,,,,,0,0,0,0,0,61,61,61,,,,,,,,,,,,,1023.0002190549858,,,,,AMP_prac,right,1.4989177144598216,,,,,,,,,,,,,,,,,,,,,6,,,right,1.0494464454241097,,,,,,,,,,,,,,1033,2019_Jun_07_1346,mf_amp_cond1,3.0.7,59.9819357892552,
men,,&&&,images/symbols/symbol_7.png,condition_files/AMP_rep1.csv,right,loyalty.vice,,,,,,,,,,,,,,,,,,,,,0,0,0,0,0,62,62,62,,,,,,,,,,,,,1025.0174115016125,,,,,AMP_prac,right,1.4989177144598216,,,,,,,,,,,,,,,,,,,,,6,,,right,1.7998533647041768,,,,,,,,,,,,,,1033,2019_Jun_07_1346,mf_amp_cond1,3.0.7,59.9819357892552,
ensure,,&&&&&&,images/symbols/symbol_33.png,condition_files/AMP_rep1.csv,left,fairness.virtue,,,,,,,,,,,,,,,,,,,,,0,0,0,0,0,63,63,63,,,,,,,,,,,,,1026.1843987326138,,,,,AMP_prac,right,1.4989177144598216,,,,,,,,,,,,,,,,,,,,,6,,,left,0.9494444888550788,,,,,,,,,,,,,,1033,2019_Jun_07_1346,mf_amp_cond1,3.0.7,59.9819357892552,
army,,&&&&,images/symbols/symbol_26.png,condition_files/AMP_rep1.csv,right,loyalty.vice,,,,,,,,,,,,,,,,,,,,,0,0,0,0,0,64,64,64,,,,,,,,,,,,,1027.1179548413493,,,,,AMP_prac,right,1.4989177144598216,,,,,,,,,,,,,,,,,,,,,6,,,left,0.7158324779011309,,,,,,,,,,,,,,1033,2019_Jun_07_1346,mf_amp_cond1,3.0.7,59.9819357892552,
crime,,&&&&&,images/symbols/symbol_24.png,condition_files/AMP_rep1.csv,right,fairness.vice,,,,,,,,,,,,,,,,,,,,,0,0,0,0,0,65,65,65,,,,,,,,,,,,,1028.3182785166427,,,,,AMP_prac,right,1.4989177144598216,,,,,,,,,,,,,,,,,,,,,6,,,left,0.967156188795343,,,,,,,,,,,,,,1033,2019_Jun_07_1346,mf_amp_cond1,3.0.7,59.9819357892552,
free,,&&&&,images/symbols/symbol_51.png,condition_files/AMP_rep1.csv,left,fairness.virtue,,,,,,,,,,,,,,,,,,,,,0,0,0,0,0,66,66,66,,,,,,,,,,,,,1029.2685123088304,,,,,AMP_prac,right,1.4989177144598216,,,,,,,,,,,,,,,,,,,,,6,,,left,0.7170775311533362,,,,,,,,,,,,,,1033,2019_Jun_07_1346,mf_amp_cond1,3.0.7,59.9819357892552,
fear,,&&&&,images/symbols/symbol_40.png,condition_files/AMP_rep1.csv,right,sanctity.vice,,,,,,,,,,,,,,,,,,,,,0,0,0,0,0,67,67,67,,,,,,,,,,,,,1030.1854885551147,,,,,AMP_prac,right,1.4989177144598216,,,,,,,,,,,,,,,,,,,,,6,,,left,0.6988282965030521,,,,,,,,,,,,,,1033,2019_Jun_07_1346,mf_amp_cond1,3.0.7,59.9819357892552,
intelligence,,&&&&&&&&&&&&,images/symbols/symbol_44.png,condition_files/AMP_rep1.csv,left,loyalty.virtue,,,,,,,,,,,,,,,,,,,,,0,0,0,0,0,68,68,68,,,,,,,,,,,,,1031.2857217539568,,,,,AMP_prac,right,1.4989177144598216,,,,,,,,,,,,,,,,,,,,,6,,,right,0.8826834007631987,,,,,,,,,,,,,,1033,2019_Jun_07_1346,mf_amp_cond1,3.0.7,59.9819357892552,
wheighlde,,&&&&&&&&&,images/symbols/symbol_73.png,condition_files/AMP_rep1.csv,None,nonword,,,,,,,,,,,,,,,,,,,,,0,0,0,0,0,69,69,69,,,,,,,,,,,,,1032.4360255282372,,,,,AMP_prac,right,1.4989177144598216,,,,,,,,,,,,,,,,,,,,,6,,,left,0.9326365911401808,,,,,,,,,,,,,,1033,2019_Jun_07_1346,mf_amp_cond1,3.0.7,59.9819357892552,
care,,&&&&,images/symbols/symbol_53.png,condition_files/AMP_rep1.csv,left,care.virtue,,,,,,,,,,,,,,,,,,,,,0,0,0,0,0,70,70,70,,,,,,,,,,,,,1033.3862727910746,,,,,AMP_prac,right,1.4989177144598216,,,,,,,,,,,,,,,,,,,,,6,,,left,0.7324748814571649,,,,,,,,,,,,,,1033,2019_Jun_07_1346,mf_amp_cond1,3.0.7,59.9819357892552,
loyalty,,&&&&&&&,images/symbols/symbol_59.png,condition_files/AMP_rep1.csv,left,loyalty.virtue,,,,,,,,,,,,,,,,,,,,,0,0,0,0,0,71,71,71,,,,,,,,,,,,,1034.8699955323245,,,,,AMP_prac,right,1.4989177144598216,,,,,,,,,,,,,,,,,,,,,6,,,right,1.2663057229947299,,,,,,,,,,,,,,1033,2019_Jun_07_1346,mf_amp_cond1,3.0.7,59.9819357892552,
actively,,&&&&&&&&,images/symbols/symbol_27.png,condition_files/AMP_rep1.csv,left,authority.virtue,,,,,,,,,,,,,,,,,,,,,0,0,0,0,0,72,72,72,,,,,,,,,,,,,1035.8369156676345,,,,,AMP_prac,right,1.4989177144598216,,,,,,,,,,,,,,,,,,,,,6,,,right,0.7493135689292103,,,,,,,,,,,,,,1033,2019_Jun_07_1346,mf_amp_cond1,3.0.7,59.9819357892552,
stintz,,&&&&&&,images/symbols/symbol_2.png,condition_files/AMP_rep1.csv,None,nonword,,,,,,,,,,,,,,,,,,,,,0,0,0,0,0,73,73,73,,,,,,,,,,,,,1036.9205943413544,,,,,AMP_prac,right,1.4989177144598216,,,,,,,,,,,,,,,,,,,,,6,,,right,0.8662212442141026,,,,,,,,,,,,,,1033,2019_Jun_07_1346,mf_amp_cond1,3.0.7,59.9819357892552,
powerful,,&&&&&&&&,images/symbols/symbol_63.png,condition_files/AMP_rep1.csv,left,authority.virtue,,,,,,,,,,,,,,,,,,,,,0,0,0,0,0,74,74,74,,,,,,,,,,,,,1037.8374952170998,,,,,AMP_prac,right,1.4989177144598216,,,,,,,,,,,,,,,,,,,,,6,,,left,0.6992936681490391,,,,,,,,,,,,,,1033,2019_Jun_07_1346,mf_amp_cond1,3.0.7,59.9819357892552,
terrorist,,&&&&&&&&&,images/symbols/symbol_42.png,condition_files/AMP_rep1.csv,right,loyalty.vice,,,,,,,,,,,,,,,,,,,,,0,0,0,0,0,75,75,75,,,,,,,,,,,,,1038.987807971891,,,,,AMP_prac,right,1.4989177144598216,,,,,,,,,,,,,,,,,,,,,6,,,left,0.9325297898612916,,,,,,,,,,,,,,1033,2019_Jun_07_1346,mf_amp_cond1,3.0.7,59.9819357892552,
love,,&&&&,images/symbols/symbol_6.png,condition_files/AMP_rep1.csv,left,loyalty.virtue,,,,,,,,,,,,,,,,,,,,,0,0,0,0,0,76,76,76,,,,,,,,,,,,,1039.9047255252954,,,,,AMP_prac,right,1.4989177144598216,,,,,,,,,,,,,,,,,,,,,6,,,right,0.6837847051210701,,,,,,,,,,,,,,1033,2019_Jun_07_1346,mf_amp_cond1,3.0.7,59.9819357892552,
stailde,,&&&&&&&,images/symbols/symbol_55.png,condition_files/AMP_rep1.csv,None,nonword,,,,,,,,,,,,,,,,,,,,,0,0,0,0,0,77,77,77,,,,,,,,,,,,,1041.205048911972,,,,,AMP_prac,right,1.4989177144598216,,,,,,,,,,,,,,,,,,,,,6,,,left,1.081782870227471,,,,,,,,,,,,,,1033,2019_Jun_07_1346,mf_amp_cond1,3.0.7,59.9819357892552,
opportunity,,&&&&&&&&&&&,images/symbols/symbol_30.png,condition_files/AMP_rep1.csv,left,fairness.virtue,,,,,,,,,,,,,,,,,,,,,0,0,0,0,0,78,78,78,,,,,,,,,,,,,1042.3386817381252,,,,,AMP_prac,right,1.4989177144598216,,,,,,,,,,,,,,,,,,,,,6,,,right,0.9159945079591125,,,,,,,,,,,,,,1033,2019_Jun_07_1346,mf_amp_cond1,3.0.7,59.9819357892552,
injured,,&&&&&&&,images/symbols/symbol_29.png,condition_files/AMP_rep1.csv,right,care.vice,,,,,,,,,,,,,,,,,,,,,0,0,0,0,0,79,79,79,,,,,,,,,,,,,1043.2389527184423,,,,,AMP_prac,right,1.4989177144598216,,,,,,,,,,,,,,,,,,,,,6,,,left,0.6824017404578626,,,,,,,,,,,,,,1033,2019_Jun_07_1346,mf_amp_cond1,3.0.7,59.9819357892552,
prosecution,,&&&&&&&&&&&,images/symbols/symbol_28.png,condition_files/AMP_rep1.csv,right,authority.vice,,,,,,,,,,,,,,,,,,,,,0,0,0,0,0,80,80,80,,,,,,,,,,,,,1044.2558523435146,,,,,AMP_prac,right,1.4989177144598216,,,,,,,,,,,,,,,,,,,,,6,,,left,0.7992548923939466,,,,,,,,,,,,,,1033,2019_Jun_07_1346,mf_amp_cond1,3.0.7,59.9819357892552,
blamed,,&&&&&&,images/symbols/symbol_80.png,condition_files/AMP_rep1.csv,right,loyalty.vice,,,,,,,,,,,,,,,,,,,,,0,0,0,0,0,81,81,81,,,,,,,,,,,,,1045.1060578797478,,,,,AMP_prac,right,1.4989177144598216,,,,,,,,,,,,,,,,,,,,,6,,,left,0.632549257716164,,,,,,,,,,,,,,1033,2019_Jun_07_1346,mf_amp_cond1,3.0.7,59.9819357892552,
,,,,condition_files/AMP_rep1.csv,,,,,,,,,,,,,,,,,,,,,,,0,0,0,0,,,,,,,,,,,,,,,,,,,,,,,,,,,,,,,,,,,,,,,,,,,,,,,,,,right,6.835330966860056,,,,,,,,,,,,1033,2019_Jun_07_1346,mf_amp_cond1,3.0.7,59.9819357892552,
freedom,,&&&&&&&,images/symbols/symbol_81.png,condition_files/AMP_rep4.csv,left,sanctity.virtue,,,,,,,,,,,,,,,,,,,,,0,1,1,3,0,0,0,0,,,,,,,,,,,,,1053.2250278147403,,,,,AMP_prac,right,1.4989177144598216,,,,,,,,,,,,,,,,,,,,,6,,,right,1.017244083341211,,,,,,,,,,,,,,1033,2019_Jun_07_1346,mf_amp_cond1,3.0.7,59.9819357892552,
fighters,,&&&&&&&&,images/symbols/symbol_61.png,condition_files/AMP_rep4.csv,right,authority.vice,,,,,,,,,,,,,,,,,,,,,0,1,1,3,0,1,1,1,,,,,,,,,,,,,1053.9416614628863,,,,,AMP_prac,right,1.4989177144598216,,,,,,,,,,,,,,,,,,,,,6,,,right,0.48369195172563195,,,,,,,,,,,,,,1033,2019_Jun_07_1346,mf_amp_cond1,3.0.7,59.9819357892552,
police,,&&&&&&,images/symbols/symbol_67.png,condition_files/AMP_rep4.csv,right,authority.vice,,,,,,,,,,,,,,,,,,,,,0,1,1,3,0,2,2,2,,,,,,,,,,,,,1054.8919687010348,,,,,AMP_prac,right,1.4989177144598216,,,,,,,,,,,,,,,,,,,,,6,,,left,0.7318725606892258,,,,,,,,,,,,,,1033,2019_Jun_07_1346,mf_amp_cond1,3.0.7,59.9819357892552,
good,,&&&&,images/symbols/symbol_32.png,condition_files/AMP_rep4.csv,left,care.virtue,,,,,,,,,,,,,,,,,,,,,0,1,1,3,0,3,3,3,,,,,,,,,,,,,1055.8421713830903,,,,,AMP_prac,right,1.4989177144598216,,,,,,,,,,,,,,,,,,,,,6,,,left,0.7323914933949709,,,,,,,,,,,,,,1033,2019_Jun_07_1346,mf_amp_cond1,3.0.7,59.9819357892552,
promote,,&&&&&&&,images/symbols/symbol_68.png,condition_files/AMP_rep4.csv,left,sanctity.virtue,,,,,,,,,,,,,,,,,,,,,0,1,1,3,0,4,4,4,,,,,,,,,,,,,1056.9425024029333,,,,,AMP_prac,right,1.4989177144598216,,,,,,,,,,,,,,,,,,,,,6,,,right,0.8671474971342832,,,,,,,,,,,,,,1033,2019_Jun_07_1346,mf_amp_cond1,3.0.7,59.9819357892552,
credit,,&&&&&&,images/symbols/symbol_11.png,condition_files/AMP_rep4.csv,left,fairness.virtue,,,,,,,,,,,,,,,,,,,,,0,1,1,3,0,5,5,5,,,,,,,,,,,,,1057.9427785468288,,,,,AMP_prac,right,1.4989177144598216,,,,,,,,,,,,,,,,,,,,,6,,,right,0.7818235058803111,,,,,,,,,,,,,,1033,2019_Jun_07_1346,mf_amp_cond1,3.0.7,59.9819357892552,
dignity,,&&&&&&&,images/symbols/symbol_14.png,condition_files/AMP_rep4.csv,left,sanctity.virtue,,,,,,,,,,,,,,,,,,,,,0,1,1,3,0,6,6,6,,,,,,,,,,,,,1059.0097144299652,,,,,AMP_prac,right,1.4989177144598216,,,,,,,,,,,,,,,,,,,,,6,,,left,0.8490506068337709,,,,,,,,,,,,,,1033,2019_Jun_07_1346,mf_amp_cond1,3.0.7,59.9819357892552,
perfect,,&&&&&&&,images/symbols/symbol_58.png,condition_files/AMP_rep4.csv,left,sanctity.virtue,,,,,,,,,,,,,,,,,,,,,0,1,1,3,0,7,7,7,,,,,,,,,,,,,1059.943300365936,,,,,AMP_prac,right,1.4989177144598216,,,,,,,,,,,,,,,,,,,,,6,,,left,0.7004325613379478,,,,,,,,,,,,,,1033,2019_Jun_07_1346,mf_amp_cond1,3.0.7,59.9819357892552,
great,,&&&&&,images/symbols/symbol_34.png,condition_files/AMP_rep4.csv,left,loyalty.virtue,,,,,,,,,,,,,,,,,,,,,0,1,1,3,0,8,8,8,,,,,,,,,,,,,1060.9102208220866,,,,,AMP_prac,right,1.4989177144598216,,,,,,,,,,,,,,,,,,,,,6,,,left,0.7484844957944006,,,,,,,,,,,,,,1033,2019_Jun_07_1346,mf_amp_cond1,3.0.7,59.9819357892552,
health,,&&&&&&,images/symbols/symbol_8.png,condition_files/AMP_rep4.csv,left,care.virtue,,,,,,,,,,,,,,,,,,,,,0,1,1,3,0,9,9,9,,,,,,,,,,,,,1061.793783650035,,,,,AMP_prac,right,1.4989177144598216,,,,,,,,,,,,,,,,,,,,,6,,,left,0.6659251512028277,,,,,,,,,,,,,,1033,2019_Jun_07_1346,mf_amp_cond1,3.0.7,59.9819357892552,
terrorists,,&&&&&&&&&&,images/symbols/symbol_21.png,condition_files/AMP_rep4.csv,right,fairness.vice,,,,,,,,,,,,,,,,,,,,,0,1,1,3,0,10,10,10,,,,,,,,,,,,,1062.8107111779973,,,,,AMP_prac,right,1.4989177144598216,,,,,,,,,,,,,,,,,,,,,6,,,right,0.7990207634866238,,,,,,,,,,,,,,1033,2019_Jun_07_1346,mf_amp_cond1,3.0.7,59.9819357892552,
rhuissed,,&&&&&&&&,images/symbols/symbol_64.png,condition_files/AMP_rep4.csv,None,nonword,,,,,,,,,,,,,,,,,,,,,0,1,1,3,0,11,11,11,,,,,,,,,,,,,1063.744311546674,,,,,AMP_prac,right,1.4989177144598216,,,,,,,,,,,,,,,,,,,,,6,,,left,0.7157471650280058,,,,,,,,,,,,,,1033,2019_Jun_07_1346,mf_amp_cond1,3.0.7,59.9819357892552,
illegal,,&&&&&&&,images/symbols/symbol_57.png,condition_files/AMP_rep4.csv,right,fairness.vice,,,,,,,,,,,,,,,,,,,,,0,1,1,3,0,12,12,12,,,,,,,,,,,,,1064.9279552935623,,,,,AMP_prac,right,1.4989177144598216,,,,,,,,,,,,,,,,,,,,,6,,,right,0.9659717525355518,,,,,,,,,,,,,,1033,2019_Jun_07_1346,mf_amp_cond1,3.0.7,59.9819357892552,
charges,,&&&&&&&,images/symbols/symbol_75.png,condition_files/AMP_rep4.csv,right,fairness.vice,,,,,,,,,,,,,,,,,,,,,0,1,1,3,0,13,13,13,,,,,,,,,,,,,1065.8948603547178,,,,,AMP_prac,right,1.4989177144598216,,,,,,,,,,,,,,,,,,,,,6,,,left,0.7491872035898268,,,,,,,,,,,,,,1033,2019_Jun_07_1346,mf_amp_cond1,3.0.7,59.9819357892552,
slavery,,&&&&&&&,images/symbols/symbol_49.png,condition_files/AMP_rep4.csv,right,loyalty.vice,,,,,,,,,,,,,,,,,,,,,0,1,1,3,0,14,14,14,,,,,,,,,,,,,1066.978465582477,,,,,AMP_prac,right,1.4989177144598216,,,,,,,,,,,,,,,,,,,,,6,,,left,0.8504678893368691,,,,,,,,,,,,,,1033,2019_Jun_07_1346,mf_amp_cond1,3.0.7,59.9819357892552,
agreement,,&&&&&&&&&,images/symbols/symbol_18.png,condition_files/AMP_rep4.csv,left,fairness.virtue,,,,,,,,,,,,,,,,,,,,,0,1,1,3,0,15,15,15,,,,,,,,,,,,,1068.045414294349,,,,,AMP_prac,right,1.4989177144598216,,,,,,,,,,,,,,,,,,,,,6,,,right,0.8485307120718062,,,,,,,,,,,,,,1033,2019_Jun_07_1346,mf_amp_cond1,3.0.7,59.9819357892552,
conspiracy,,&&&&&&&&&&,images/symbols/symbol_23.png,condition_files/AMP_rep4.csv,right,sanctity.vice,,,,,,,,,,,,,,,,,,,,,0,1,1,3,0,16,16,16,,,,,,,,,,,,,1069.029049958801,,,,,AMP_prac,right,1.4989177144598216,,,,,,,,,,,,,,,,,,,,,6,,,left,0.7504803654737771,,,,,,,,,,,,,,1033,2019_Jun_07_1346,mf_amp_cond1,3.0.7,59.9819357892552,
benefit,,&&&&&&&,images/symbols/symbol_37.png,condition_files/AMP_rep4.csv,left,fairness.virtue,,,,,,,,,,,,,,,,,,,,,0,1,1,3,0,17,17,17,,,,,,,,,,,,,1070.1126106057782,,,,,AMP_prac,right,1.4989177144598216,,,,,,,,,,,,,,,,,,,,,6,,,left,0.8649617582559586,,,,,,,,,,,,,,1033,2019_Jun_07_1346,mf_amp_cond1,3.0.7,59.9819357892552,
died,,&&&&,images/symbols/symbol_74.png,condition_files/AMP_rep4.csv,right,care.vice,,,,,,,,,,,,,,,,,,,,,0,1,1,3,0,18,18,18,,,,,,,,,,,,,1070.8795181687456,,,,,AMP_prac,right,1.4989177144598216,,,,,,,,,,,,,,,,,,,,,6,,,left,0.5337474532425404,,,,,,,,,,,,,,1033,2019_Jun_07_1346,mf_amp_cond1,3.0.7,59.9819357892552,
threatened,,&&&&&&&&&&,images/symbols/symbol_5.png,condition_files/AMP_rep4.csv,right,fairness.vice,,,,,,,,,,,,,,,,,,,,,0,1,1,3,0,19,19,19,,,,,,,,,,,,,1071.896442168858,,,,,AMP_prac,right,1.4989177144598216,,,,,,,,,,,,,,,,,,,,,6,,,right,0.7986419876106083,,,,,,,,,,,,,,1033,2019_Jun_07_1346,mf_amp_cond1,3.0.7,59.9819357892552,
corruption,,&&&&&&&&&&,images/symbols/symbol_17.png,condition_files/AMP_rep4.csv,right,sanctity.vice,,,,,,,,,,,,,,,,,,,,,0,1,1,3,0,20,20,20,,,,,,,,,,,,,1072.7966105174273,,,,,AMP_prac,right,1.4989177144598216,,,,,,,,,,,,,,,,,,,,,6,,,left,0.6824315676931292,,,,,,,,,,,,,,1033,2019_Jun_07_1346,mf_amp_cond1,3.0.7,59.9819357892552,
pleasant,,&&&&&&&,images/symbols/symbol_38.png,condition_files/AMP_rep4.csv,right,control,,,,,,,,,,,,,,,,,,,,,0,1,1,3,0,21,21,21,,,,,,,,,,,,,1073.8136037939694,,,,,AMP_prac,right,1.4989177144598216,,,,,,,,,,,,,,,,,,,,,6,,,right,0.7991605992428958,,,,,,,,,,,,,,1033,2019_Jun_07_1346,mf_amp_cond1,3.0.7,59.9819357892552,
clean,,&&&&&,images/symbols/symbol_78.png,condition_files/AMP_rep4.csv,left,sanctity.virtue,,,,,,,,,,,,,,,,,,,,,0,1,1,3,0,22,22,22,,,,,,,,,,,,,1075.280652700225,,,,,AMP_prac,right,1.4989177144598216,,,,,,,,,,,,,,,,,,,,,6,,,right,1.2488534895237535,,,,,,,,,,,,,,1033,2019_Jun_07_1346,mf_amp_cond1,3.0.7,59.9819357892552,
celebrated,,&&&&&&&&&&,images/symbols/symbol_45.png,condition_files/AMP_rep4.csv,left,authority.virtue,,,,,,,,,,,,,,,,,,,,,0,1,1,3,0,23,23,23,,,,,,,,,,,,,1076.7310248853173,,,,,AMP_prac,right,1.4989177144598216,,,,,,,,,,,,,,,,,,,,,6,,,right,1.2323390548117459,,,,,,,,,,,,,,1033,2019_Jun_07_1346,mf_amp_cond1,3.0.7,59.9819357892552,
chawde,,&&&&&&,images/symbols/symbol_31.png,condition_files/AMP_rep4.csv,None,nonword,,,,,,,,,,,,,,,,,,,,,0,1,1,3,0,24,24,24,,,,,,,,,,,,,1078.014705868205,,,,,AMP_prac,right,1.4989177144598216,,,,,,,,,,,,,,,,,,,,,6,,,right,1.050531136104837,,,,,,,,,,,,,,1033,2019_Jun_07_1346,mf_amp_cond1,3.0.7,59.9819357892552,
unpleasant,,&&&&&&&&&,images/symbols/symbol_43.png,condition_files/AMP_rep4.csv,left,control,,,,,,,,,,,,,,,,,,,,,0,1,1,3,0,25,25,25,,,,,,,,,,,,,1079.1149833269883,,,,,AMP_prac,right,1.4989177144598216,,,,,,,,,,,,,,,,,,,,,6,,,right,0.8818623456172645,,,,,,,,,,,,,,1033,2019_Jun_07_1346,mf_amp_cond1,3.0.7,59.9819357892552,
strength,,&&&&&&&&,images/symbols/symbol_1.png,condition_files/AMP_rep4.csv,left,sanctity.virtue,,,,,,,,,,,,,,,,,,,,,0,1,1,3,0,26,26,26,,,,,,,,,,,,,1079.781817091396,,,,,AMP_prac,right,1.4989177144598216,,,,,,,,,,,,,,,,,,,,,6,,,left,0.44887311779893935,,,,,,,,,,,,,,1033,2019_Jun_07_1346,mf_amp_cond1,3.0.7,59.9819357892552,
values,,&&&&&&,images/symbols/symbol_52.png,condition_files/AMP_rep4.csv,left,sanctity.virtue,,,,,,,,,,,,,,,,,,,,,0,1,1,3,0,27,27,27,,,,,,,,,,,,,1080.865446052514,,,,,AMP_prac,right,1.4989177144598216,,,,,,,,,,,,,,,,,,,,,6,,,left,0.8504675684962422,,,,,,,,,,,,,,1033,2019_Jun_07_1346,mf_amp_cond1,3.0.7,59.9819357892552,
promised,,&&&&&&&&,images/symbols/symbol_71.png,condition_files/AMP_rep4.csv,left,loyalty.virtue,,,,,,,,,,,,,,,,,,,,,0,1,1,3,0,28,28,28,,,,,,,,,,,,,1082.3325116366614,,,,,AMP_prac,right,1.4989177144598216,,,,,,,,,,,,,,,,,,,,,6,,,left,1.2486010792199522,,,,,,,,,,,,,,1033,2019_Jun_07_1346,mf_amp_cond1,3.0.7,59.9819357892552,
noost,,&&&&&,images/symbols/symbol_9.png,condition_files/AMP_rep4.csv,None,nonword,,,,,,,,,,,,,,,,,,,,,0,1,1,3,0,29,29,29,,,,,,,,,,,,,1084.4163936497644,,,,,AMP_prac,right,1.4989177144598216,,,,,,,,,,,,,,,,,,,,,6,,,right,1.8660474114585668,,,,,,,,,,,,,,1033,2019_Jun_07_1346,mf_amp_cond1,3.0.7,59.9819357892552,
victim,,&&&&&&,images/symbols/symbol_65.png,condition_files/AMP_rep4.csv,right,care.vice,,,,,,,,,,,,,,,,,,,,,0,1,1,3,0,30,30,30,,,,,,,,,,,,,1087.7672760756686,,,,,AMP_prac,right,1.4989177144598216,,,,,,,,,,,,,,,,,,,,,6,,,right,3.132893876405433,,,,,,,,,,,,,,1033,2019_Jun_07_1346,mf_amp_cond1,3.0.7,59.9819357892552,
shot,,&&&&,images/symbols/symbol_77.png,condition_files/AMP_rep4.csv,right,care.vice,,,,,,,,,,,,,,,,,,,,,0,1,1,3,0,31,31,31,,,,,,,,,,,,,1088.8842257657088,,,,,AMP_prac,right,1.4989177144598216,,,,,,,,,,,,,,,,,,,,,6,,,left,0.8991160506848246,,,,,,,,,,,,,,1033,2019_Jun_07_1346,mf_amp_cond1,3.0.7,59.9819357892552,
black,,&&&&&,images/symbols/symbol_47.png,condition_files/AMP_rep4.csv,right,loyalty.vice,,,,,,,,,,,,,,,,,,,,,0,1,1,3,0,32,32,32,,,,,,,,,,,,,1091.7015477209352,,,,,AMP_prac,right,1.4989177144598216,,,,,,,,,,,,,,,,,,,,,6,,,right,2.5995345001574606,,,,,,,,,,,,,,1033,2019_Jun_07_1346,mf_amp_cond1,3.0.7,59.9819357892552,
safety,,&&&&&&,images/symbols/symbol_36.png,condition_files/AMP_rep4.csv,left,care.virtue,,,,,,,,,,,,,,,,,,,,,0,1,1,3,0,33,33,33,,,,,,,,,,,,,1092.751863330137,,,,,AMP_prac,right,1.4989177144598216,,,,,,,,,,,,,,,,,,,,,6,,,right,0.8326323896180838,,,,,,,,,,,,,,1033,2019_Jun_07_1346,mf_amp_cond1,3.0.7,59.9819357892552,
increase,,&&&&&&&&,images/symbols/symbol_76.png,condition_files/AMP_rep4.csv,left,care.virtue,,,,,,,,,,,,,,,,,,,,,0,1,1,3,0,34,34,34,,,,,,,,,,,,,1094.8523877470288,,,,,AMP_prac,right,1.4989177144598216,,,,,,,,,,,,,,,,,,,,,6,,,left,1.882841197308153,,,,,,,,,,,,,,1033,2019_Jun_07_1346,mf_amp_cond1,3.0.7,59.9819357892552,
friends,,&&&&&&&,images/symbols/symbol_13.png,condition_files/AMP_rep4.csv,left,loyalty.virtue,,,,,,,,,,,,,,,,,,,,,0,1,1,3,0,35,35,35,,,,,,,,,,,,,1095.7526365974918,,,,,AMP_prac,right,1.4989177144598216,,,,,,,,,,,,,,,,,,,,,6,,,right,0.6825617821887136,,,,,,,,,,,,,,1033,2019_Jun_07_1346,mf_amp_cond1,3.0.7,59.9819357892552,
rejected,,&&&&&&&&,images/symbols/symbol_69.png,condition_files/AMP_rep4.csv,right,authority.vice,,,,,,,,,,,,,,,,,,,,,0,1,1,3,0,36,36,36,,,,,,,,,,,,,1098.6033738953993,,,,,AMP_prac,right,1.4989177144598216,,,,,,,,,,,,,,,,,,,,,6,,,left,2.6175861682277173,,,,,,,,,,,,,,1033,2019_Jun_07_1346,mf_amp_cond1,3.0.7,59.9819357892552,
gun,,&&&,images/symbols/symbol_50.png,condition_files/AMP_rep4.csv,right,authority.vice,,,,,,,,,,,,,,,,,,,,,0,1,1,3,0,37,37,37,,,,,,,,,,,,,1100.1871287410613,,,,,AMP_prac,right,1.4989177144598216,,,,,,,,,,,,,,,,,,,,,6,,,left,1.3655725785065442,,,,,,,,,,,,,,1033,2019_Jun_07_1346,mf_amp_cond1,3.0.7,59.9819357892552,
sharing,,&&&&&&&,images/symbols/symbol_62.png,condition_files/AMP_rep4.csv,left,loyalty.virtue,,,,,,,,,,,,,,,,,,,,,0,1,1,3,0,38,38,38,,,,,,,,,,,,,1101.1873959046789,,,,,AMP_prac,right,1.4989177144598216,,,,,,,,,,,,,,,,,,,,,6,,,right,0.7671086573973298,,,,,,,,,,,,,,1033,2019_Jun_07_1346,mf_amp_cond1,3.0.7,59.9819357892552,
death,,&&&&&,images/symbols/symbol_35.png,condition_files/AMP_rep4.csv,right,care.vice,,,,,,,,,,,,,,,,,,,,,0,1,1,3,0,39,39,39,,,,,,,,,,,,,1103.2713237814605,,,,,AMP_prac,right,1.4989177144598216,,,,,,,,,,,,,,,,,,,,,6,,,right,1.8653658714611083,,,,,,,,,,,,,,1033,2019_Jun_07_1346,mf_amp_cond1,3.0.7,59.9819357892552,
scourld,,&&&&&&&,images/symbols/symbol_4.png,condition_files/AMP_rep4.csv,None,nonword,,,,,,,,,,,,,,,,,,,,,0,1,1,3,0,40,40,40,,,,,,,,,,,,,1104.2215158795007,,,,,AMP_prac,right,1.4989177144598216,,,,,,,,,,,,,,,,,,,,,6,,,right,0.7322673727758229,,,,,,,,,,,,,,1033,2019_Jun_07_1346,mf_amp_cond1,3.0.7,59.9819357892552,
protesters,,&&&&&&&&&&,images/symbols/symbol_19.png,condition_files/AMP_rep4.csv,right,authority.vice,,,,,,,,,,,,,,,,,,,,,0,1,1,3,0,41,41,41,,,,,,,,,,,,,1105.6218078671955,,,,,AMP_prac,right,1.4989177144598216,,,,,,,,,,,,,,,,,,,,,6,,,right,1.1823547543026507,,,,,,,,,,,,,,1033,2019_Jun_07_1346,mf_amp_cond1,3.0.7,59.9819357892552,
harassment,,&&&&&&&&&&,images/symbols/symbol_54.png,condition_files/AMP_rep4.csv,right,sanctity.vice,,,,,,,,,,,,,,,,,,,,,0,1,1,3,0,42,42,42,,,,,,,,,,,,,1106.9222922576591,,,,,AMP_prac,right,1.4989177144598216,,,,,,,,,,,,,,,,,,,,,6,,,left,1.0671857276465744,,,,,,,,,,,,,,1033,2019_Jun_07_1346,mf_amp_cond1,3.0.7,59.9819357892552,
victims,,&&&&&&&,images/symbols/symbol_56.png,condition_files/AMP_rep4.csv,right,care.vice,,,,,,,,,,,,,,,,,,,,,0,1,1,3,0,43,43,43,,,,,,,,,,,,,1107.9058698711451,,,,,AMP_prac,right,1.4989177144598216,,,,,,,,,,,,,,,,,,,,,6,,,right,0.7504434820730239,,,,,,,,,,,,,,1033,2019_Jun_07_1346,mf_amp_cond1,3.0.7,59.9819357892552,
useful,,&&&&&&,images/symbols/symbol_82.png,condition_files/AMP_rep4.csv,left,authority.virtue,,,,,,,,,,,,,,,,,,,,,0,1,1,3,0,44,44,44,,,,,,,,,,,,,1109.156204146333,,,,,AMP_prac,right,1.4989177144598216,,,,,,,,,,,,,,,,,,,,,6,,,right,1.0322742043063045,,,,,,,,,,,,,,1033,2019_Jun_07_1346,mf_amp_cond1,3.0.7,59.9819357892552,
compassion,,&&&&&&&&&&,images/symbols/symbol_15.png,condition_files/AMP_rep4.csv,left,care.virtue,,,,,,,,,,,,,,,,,,,,,0,1,1,3,0,45,45,45,,,,,,,,,,,,,1110.4065287997946,,,,,AMP_prac,right,1.4989177144598216,,,,,,,,,,,,,,,,,,,,,6,,,left,1.0325952495913953,,,,,,,,,,,,,,1033,2019_Jun_07_1346,mf_amp_cond1,3.0.7,59.9819357892552,
hate,,&&&&,images/symbols/symbol_46.png,condition_files/AMP_rep4.csv,right,fairness.vice,,,,,,,,,,,,,,,,,,,,,0,1,1,3,0,46,46,46,,,,,,,,,,,,,1111.5901648493018,,,,,AMP_prac,right,1.4989177144598216,,,,,,,,,,,,,,,,,,,,,6,,,right,0.9659374351613224,,,,,,,,,,,,,,1033,2019_Jun_07_1346,mf_amp_cond1,3.0.7,59.9819357892552,
progress,,&&&&&&&&,images/symbols/symbol_10.png,condition_files/AMP_rep4.csv,left,authority.virtue,,,,,,,,,,,,,,,,,,,,,0,1,1,3,0,47,47,47,,,,,,,,,,,,,1112.9405321911909,,,,,AMP_prac,right,1.4989177144598216,,,,,,,,,,,,,,,,,,,,,6,,,left,1.1325622468721122,,,,,,,,,,,,,,1033,2019_Jun_07_1346,mf_amp_cond1,3.0.7,59.9819357892552,
ability,,&&&&&&&,images/symbols/symbol_41.png,condition_files/AMP_rep4.csv,left,authority.virtue,,,,,,,,,,,,,,,,,,,,,0,1,1,3,0,48,48,48,,,,,,,,,,,,,1114.157387299696,,,,,AMP_prac,right,1.4989177144598216,,,,,,,,,,,,,,,,,,,,,6,,,left,0.999530779896304,,,,,,,,,,,,,,1033,2019_Jun_07_1346,mf_amp_cond1,3.0.7,59.9819357892552,
improve,,&&&&&&&,images/symbols/symbol_66.png,condition_files/AMP_rep4.csv,left,care.virtue,,,,,,,,,,,,,,,,,,,,,0,1,1,3,0,49,49,49,,,,,,,,,,,,,1115.2910858741961,,,,,AMP_prac,right,1.4989177144598216,,,,,,,,,,,,,,,,,,,,,6,,,left,0.9004537933506072,,,,,,,,,,,,,,1033,2019_Jun_07_1346,mf_amp_cond1,3.0.7,59.9819357892552,
voter,,&&&&&,images/symbols/symbol_12.png,condition_files/AMP_rep4.csv,right,fairness.vice,,,,,,,,,,,,,,,,,,,,,0,1,1,3,0,50,50,50,,,,,,,,,,,,,1117.4083594963886,,,,,AMP_prac,right,1.4989177144598216,,,,,,,,,,,,,,,,,,,,,6,,,right,1.8840766288340092,,,,,,,,,,,,,,1033,2019_Jun_07_1346,mf_amp_cond1,3.0.7,59.9819357892552,
rhaps,,&&&&&,images/symbols/symbol_70.png,condition_files/AMP_rep4.csv,None,nonword,,,,,,,,,,,,,,,,,,,,,0,1,1,3,0,51,51,51,,,,,,,,,,,,,1118.5086526707746,,,,,AMP_prac,right,1.4989177144598216,,,,,,,,,,,,,,,,,,,,,6,,,right,0.8818661940749735,,,,,,,,,,,,,,1033,2019_Jun_07_1346,mf_amp_cond1,3.0.7,59.9819357892552,
peighld,,&&&&&&&,images/symbols/symbol_79.png,condition_files/AMP_rep4.csv,None,nonword,,,,,,,,,,,,,,,,,,,,,0,1,1,3,0,52,52,52,,,,,,,,,,,,,1119.4756151419133,,,,,AMP_prac,right,1.4989177144598216,,,,,,,,,,,,,,,,,,,,,6,,,left,0.7338094171136618,,,,,,,,,,,,,,1033,2019_Jun_07_1346,mf_amp_cond1,3.0.7,59.9819357892552,
racist,,&&&&&&,images/symbols/symbol_48.png,condition_files/AMP_rep4.csv,right,sanctity.vice,,,,,,,,,,,,,,,,,,,,,0,1,1,3,0,53,53,53,,,,,,,,,,,,,1120.7092354916967,,,,,AMP_prac,right,1.4989177144598216,,,,,,,,,,,,,,,,,,,,,6,,,right,1.0152491759508848,,,,,,,,,,,,,,1033,2019_Jun_07_1346,mf_amp_cond1,3.0.7,59.9819357892552,
suicide,,&&&&&&&,images/symbols/symbol_16.png,condition_files/AMP_rep4.csv,right,care.vice,,,,,,,,,,,,,,,,,,,,,0,1,1,3,0,54,54,54,,,,,,,,,,,,,1122.0095697829966,,,,,AMP_prac,right,1.4989177144598216,,,,,,,,,,,,,,,,,,,,,6,,,left,1.0828079062048346,,,,,,,,,,,,,,1033,2019_Jun_07_1346,mf_amp_cond1,3.0.7,59.9819357892552,
rebels,,&&&&&&,images/symbols/symbol_25.png,condition_files/AMP_rep4.csv,right,authority.vice,,,,,,,,,,,,,,,,,,,,,0,1,1,3,0,55,55,55,,,,,,,,,,,,,1123.9766990309581,,,,,AMP_prac,right,1.4989177144598216,,,,,,,,,,,,,,,,,,,,,6,,,left,1.7490781571250409,,,,,,,,,,,,,,1033,2019_Jun_07_1346,mf_amp_cond1,3.0.7,59.9819357892552,
interests,,&&&&&&&&&,images/symbols/symbol_3.png,condition_files/AMP_rep4.csv,left,fairness.virtue,,,,,,,,,,,,,,,,,,,,,0,1,1,3,0,56,56,56,,,,,,,,,,,,,1125.0770021479111,,,,,AMP_prac,right,1.4989177144598216,,,,,,,,,,,,,,,,,,,,,6,,,left,0.8825406783726066,,,,,,,,,,,,,,1033,2019_Jun_07_1346,mf_amp_cond1,3.0.7,59.9819357892552,
psypped,,&&&&&&&,images/symbols/symbol_72.png,condition_files/AMP_rep4.csv,None,nonword,,,,,,,,,,,,,,,,,,,,,0,1,1,3,0,57,57,57,,,,,,,,,,,,,1125.9939020616002,,,,,AMP_prac,right,1.4989177144598216,,,,,,,,,,,,,,,,,,,,,6,,,left,0.683750708354637,,,,,,,,,,,,,,1033,2019_Jun_07_1346,mf_amp_cond1,3.0.7,59.9819357892552,
honored,,&&&&&&&,images/symbols/symbol_22.png,condition_files/AMP_rep4.csv,left,authority.virtue,,,,,,,,,,,,,,,,,,,,,0,1,1,3,0,58,58,58,,,,,,,,,,,,,1126.9441506071016,,,,,AMP_prac,right,1.4989177144598216,,,,,,,,,,,,,,,,,,,,,6,,,left,0.7318555624224246,,,,,,,,,,,,,,1033,2019_Jun_07_1346,mf_amp_cond1,3.0.7,59.9819357892552,
sexual,,&&&&&&,images/symbols/symbol_39.png,condition_files/AMP_rep4.csv,right,sanctity.vice,,,,,,,,,,,,,,,,,,,,,0,1,1,3,0,59,59,59,,,,,,,,,,,,,1127.8610530865844,,,,,AMP_prac,right,1.4989177144598216,,,,,,,,,,,,,,,,,,,,,6,,,left,0.6991541527677327,,,,,,,,,,,,,,1033,2019_Jun_07_1346,mf_amp_cond1,3.0.7,59.9819357892552,
violations,,&&&&&&&&&&,images/symbols/symbol_20.png,condition_files/AMP_rep4.csv,right,sanctity.vice,,,,,,,,,,,,,,,,,,,,,0,1,1,3,0,60,60,60,,,,,,,,,,,,,1128.7946893763728,,,,,AMP_prac,right,1.4989177144598216,,,,,,,,,,,,,,,,,,,,,6,,,left,0.7162343456875533,,,,,,,,,,,,,,1033,2019_Jun_07_1346,mf_amp_cond1,3.0.7,59.9819357892552,
ban,,&&&,images/symbols/symbol_60.png,condition_files/AMP_rep4.csv,right,loyalty.vice,,,,,,,,,,,,,,,,,,,,,0,1,1,3,0,61,61,61,,,,,,,,,,,,,1130.0616881856695,,,,,AMP_prac,right,1.4989177144598216,,,,,,,,,,,,,,,,,,,,,6,,,left,1.0491966009140015,,,,,,,,,,,,,,1033,2019_Jun_07_1346,mf_amp_cond1,3.0.7,59.9819357892552,
men,,&&&,images/symbols/symbol_7.png,condition_files/AMP_rep4.csv,right,loyalty.vice,,,,,,,,,,,,,,,,,,,,,0,1,1,3,0,62,62,62,,,,,,,,,,,,,1130.8285864475183,,,,,AMP_prac,right,1.4989177144598216,,,,,,,,,,,,,,,,,,,,,6,,,right,0.5492086277808994,,,,,,,,,,,,,,1033,2019_Jun_07_1346,mf_amp_cond1,3.0.7,59.9819357892552,
ensure,,&&&&&&,images/symbols/symbol_33.png,condition_files/AMP_rep4.csv,left,fairness.virtue,,,,,,,,,,,,,,,,,,,,,0,1,1,3,0,63,63,63,,,,,,,,,,,,,1132.4623172550928,,,,,AMP_prac,right,1.4989177144598216,,,,,,,,,,,,,,,,,,,,,6,,,right,1.4160309100989252,,,,,,,,,,,,,,1033,2019_Jun_07_1346,mf_amp_cond1,3.0.7,59.9819357892552,
army,,&&&&,images/symbols/symbol_26.png,condition_files/AMP_rep4.csv,right,loyalty.vice,,,,,,,,,,,,,,,,,,,,,0,1,1,3,0,64,64,64,,,,,,,,,,,,,1133.67930578487,,,,,AMP_prac,right,1.4989177144598216,,,,,,,,,,,,,,,,,,,,,6,,,right,0.9991712474729866,,,,,,,,,,,,,,1033,2019_Jun_07_1346,mf_amp_cond1,3.0.7,59.9819357892552,
crime,,&&&&&,images/symbols/symbol_24.png,condition_files/AMP_rep4.csv,right,fairness.vice,,,,,,,,,,,,,,,,,,,,,0,1,1,3,0,65,65,65,,,,,,,,,,,,,1135.0796689735726,,,,,AMP_prac,right,1.4989177144598216,,,,,,,,,,,,,,,,,,,,,6,,,left,1.167222001357004,,,,,,,,,,,,,,1033,2019_Jun_07_1346,mf_amp_cond1,3.0.7,59.9819357892552,
free,,&&&&,images/symbols/symbol_51.png,condition_files/AMP_rep4.csv,left,fairness.virtue,,,,,,,,,,,,,,,,,,,,,0,1,1,3,0,66,66,66,,,,,,,,,,,,,1136.0299223300535,,,,,AMP_prac,right,1.4989177144598216,,,,,,,,,,,,,,,,,,,,,6,,,left,0.7171099241822958,,,,,,,,,,,,,,1033,2019_Jun_07_1346,mf_amp_cond1,3.0.7,59.9819357892552,
fear,,&&&&,images/symbols/symbol_40.png,condition_files/AMP_rep4.csv,right,sanctity.vice,,,,,,,,,,,,,,,,,,,,,0,1,1,3,0,67,67,67,,,,,,,,,,,,,1137.1969041086268,,,,,AMP_prac,right,1.4989177144598216,,,,,,,,,,,,,,,,,,,,,6,,,left,0.9484957852400839,,,,,,,,,,,,,,1033,2019_Jun_07_1346,mf_amp_cond1,3.0.7,59.9819357892552,
intelligence,,&&&&&&&&&&&&,images/symbols/symbol_44.png,condition_files/AMP_rep4.csv,left,loyalty.virtue,,,,,,,,,,,,,,,,,,,,,0,1,1,3,0,68,68,68,,,,,,,,,,,,,1138.8139171421062,,,,,AMP_prac,right,1.4989177144598216,,,,,,,,,,,,,,,,,,,,,6,,,right,1.3990280118305236,,,,,,,,,,,,,,1033,2019_Jun_07_1346,mf_amp_cond1,3.0.7,59.9819357892552,
wheighlde,,&&&&&&&&&,images/symbols/symbol_73.png,condition_files/AMP_rep4.csv,None,nonword,,,,,,,,,,,,,,,,,,,,,0,1,1,3,0,69,69,69,,,,,,,,,,,,,1140.1143178234342,,,,,AMP_prac,right,1.4989177144598216,,,,,,,,,,,,,,,,,,,,,6,,,left,1.0822508072014898,,,,,,,,,,,,,,1033,2019_Jun_07_1346,mf_amp_cond1,3.0.7,59.9819357892552,
care,,&&&&,images/symbols/symbol_53.png,condition_files/AMP_rep4.csv,left,care.virtue,,,,,,,,,,,,,,,,,,,,,0,1,1,3,0,70,70,70,,,,,,,,,,,,,1141.3646540229674,,,,,AMP_prac,right,1.4989177144598216,,,,,,,,,,,,,,,,,,,,,6,,,left,1.0324525269679725,,,,,,,,,,,,,,1033,2019_Jun_07_1346,mf_amp_cond1,3.0.7,59.9819357892552,
loyalty,,&&&&&&&,images/symbols/symbol_59.png,condition_files/AMP_rep4.csv,left,loyalty.virtue,,,,,,,,,,,,,,,,,,,,,0,1,1,3,0,71,71,71,,,,,,,,,,,,,1142.531624255469,,,,,AMP_prac,right,1.4989177144598216,,,,,,,,,,,,,,,,,,,,,6,,,left,0.9492680900730193,,,,,,,,,,,,,,1033,2019_Jun_07_1346,mf_amp_cond1,3.0.7,59.9819357892552,
actively,,&&&&&&&&,images/symbols/symbol_27.png,condition_files/AMP_rep4.csv,left,authority.virtue,,,,,,,,,,,,,,,,,,,,,0,1,1,3,0,72,72,72,,,,,,,,,,,,,1143.7152699267026,,,,,AMP_prac,right,1.4989177144598216,,,,,,,,,,,,,,,,,,,,,6,,,left,0.9658024099189788,,,,,,,,,,,,,,1033,2019_Jun_07_1346,mf_amp_cond1,3.0.7,59.9819357892552,
stintz,,&&&&&&,images/symbols/symbol_2.png,condition_files/AMP_rep4.csv,None,nonword,,,,,,,,,,,,,,,,,,,,,0,1,1,3,0,73,73,73,,,,,,,,,,,,,1144.5488179852255,,,,,AMP_prac,right,1.4989177144598216,,,,,,,,,,,,,,,,,,,,,6,,,right,0.6158423882443458,,,,,,,,,,,,,,1033,2019_Jun_07_1346,mf_amp_cond1,3.0.7,59.9819357892552,
powerful,,&&&&&&&&,images/symbols/symbol_63.png,condition_files/AMP_rep4.csv,left,authority.virtue,,,,,,,,,,,,,,,,,,,,,0,1,1,3,0,74,74,74,,,,,,,,,,,,,1145.4657291241456,,,,,AMP_prac,right,1.4989177144598216,,,,,,,,,,,,,,,,,,,,,6,,,left,0.699208676116541,,,,,,,,,,,,,,1033,2019_Jun_07_1346,mf_amp_cond1,3.0.7,59.9819357892552,
terrorist,,&&&&&&&&&,images/symbols/symbol_42.png,condition_files/AMP_rep4.csv,right,loyalty.vice,,,,,,,,,,,,,,,,,,,,,0,1,1,3,0,75,75,75,,,,,,,,,,,,,1146.5326136911754,,,,,AMP_prac,right,1.4989177144598216,,,,,,,,,,,,,,,,,,,,,6,,,left,0.8490951876156032,,,,,,,,,,,,,,1033,2019_Jun_07_1346,mf_amp_cond1,3.0.7,59.9819357892552,
love,,&&&&,images/symbols/symbol_6.png,condition_files/AMP_rep4.csv,left,loyalty.virtue,,,,,,,,,,,,,,,,,,,,,0,1,1,3,0,76,76,76,,,,,,,,,,,,,1147.43292636564,,,,,AMP_prac,right,1.4989177144598216,,,,,,,,,,,,,,,,,,,,,6,,,right,0.667109587462619,,,,,,,,,,,,,,1033,2019_Jun_07_1346,mf_amp_cond1,3.0.7,59.9819357892552,
stailde,,&&&&&&&,images/symbols/symbol_55.png,condition_files/AMP_rep4.csv,None,nonword,,,,,,,,,,,,,,,,,,,,,0,1,1,3,0,77,77,77,,,,,,,,,,,,,1148.766594856279,,,,,AMP_prac,right,1.4989177144598216,,,,,,,,,,,,,,,,,,,,,6,,,left,1.1149137299507856,,,,,,,,,,,,,,1033,2019_Jun_07_1346,mf_amp_cond1,3.0.7,59.9819357892552,
opportunity,,&&&&&&&&&&&,images/symbols/symbol_30.png,condition_files/AMP_rep4.csv,left,fairness.virtue,,,,,,,,,,,,,,,,,,,,,0,1,1,3,0,78,78,78,,,,,,,,,,,,,1149.6168161083478,,,,,AMP_prac,right,1.4989177144598216,,,,,,,,,,,,,,,,,,,,,6,,,right,0.6325633695814759,,,,,,,,,,,,,,1033,2019_Jun_07_1346,mf_amp_cond1,3.0.7,59.9819357892552,
injured,,&&&&&&&,images/symbols/symbol_29.png,condition_files/AMP_rep4.csv,right,care.vice,,,,,,,,,,,,,,,,,,,,,0,1,1,3,0,79,79,79,,,,,,,,,,,,,1150.7504498965573,,,,,AMP_prac,right,1.4989177144598216,,,,,,,,,,,,,,,,,,,,,6,,,left,0.9156192599330097,,,,,,,,,,,,,,1033,2019_Jun_07_1346,mf_amp_cond1,3.0.7,59.9819357892552,
prosecution,,&&&&&&&&&&&,images/symbols/symbol_28.png,condition_files/AMP_rep4.csv,right,authority.vice,,,,,,,,,,,,,,,,,,,,,0,1,1,3,0,80,80,80,,,,,,,,,,,,,1151.8674262068234,,,,,AMP_prac,right,1.4989177144598216,,,,,,,,,,,,,,,,,,,,,6,,,left,0.8991673667915165,,,,,,,,,,,,,,1033,2019_Jun_07_1346,mf_amp_cond1,3.0.7,59.9819357892552,
blamed,,&&&&&&,images/symbols/symbol_80.png,condition_files/AMP_rep4.csv,right,loyalty.vice,,,,,,,,,,,,,,,,,,,,,0,1,1,3,0,81,81,81,,,,,,,,,,,,,1152.817653263919,,,,,AMP_prac,right,1.4989177144598216,,,,,,,,,,,,,,,,,,,,,6,,,left,0.7323481952771544,,,,,,,,,,,,,,1033,2019_Jun_07_1346,mf_amp_cond1,3.0.7,59.9819357892552,
,,,,condition_files/AMP_rep4.csv,,,,,,,,,,,,,,,,,,,,,,,0,1,1,3,,,,,,,,,,,,,,,,,,,,,,,,,,,,,,,,,,,,,,,,,,,,,,,,,,right,7.5855351886712015,,,,,,,,,,,,1033,2019_Jun_07_1346,mf_amp_cond1,3.0.7,59.9819357892552,
freedom,,&&&&&&&,images/symbols/symbol_81.png,condition_files/AMP_rep2.csv,left,sanctity.virtue,,,,,,,,,,,,,,,,,,,,,0,2,2,1,0,0,0,0,,,,,,,,,,,,,1161.9201363464817,,,,,AMP_prac,right,1.4989177144598216,,,,,,,,,,,,,,,,,,,,,6,,,left,1.2505623104516417,,,,,,,,,,,,,,1033,2019_Jun_07_1346,mf_amp_cond1,3.0.7,59.9819357892552,
fighters,,&&&&&&&&,images/symbols/symbol_61.png,condition_files/AMP_rep2.csv,right,authority.vice,,,,,,,,,,,,,,,,,,,,,0,2,2,1,0,1,1,1,,,,,,,,,,,,,1162.6536269630305,,,,,AMP_prac,right,1.4989177144598216,,,,,,,,,,,,,,,,,,,,,6,,,left,0.5004648903850466,,,,,,,,,,,,,,1033,2019_Jun_07_1346,mf_amp_cond1,3.0.7,59.9819357892552,
police,,&&&&&&,images/symbols/symbol_67.png,condition_files/AMP_rep2.csv,right,authority.vice,,,,,,,,,,,,,,,,,,,,,0,2,2,1,0,2,2,2,,,,,,,,,,,,,1163.8705702708103,,,,,AMP_prac,right,1.4989177144598216,,,,,,,,,,,,,,,,,,,,,6,,,left,0.9986122243572026,,,,,,,,,,,,,,1033,2019_Jun_07_1346,mf_amp_cond1,3.0.7,59.9819357892552,
good,,&&&&,images/symbols/symbol_32.png,condition_files/AMP_rep2.csv,left,care.virtue,,,,,,,,,,,,,,,,,,,,,0,2,2,1,0,3,3,3,,,,,,,,,,,,,1164.8541735422332,,,,,AMP_prac,right,1.4989177144598216,,,,,,,,,,,,,,,,,,,,,6,,,left,0.7658475679345429,,,,,,,,,,,,,,1033,2019_Jun_07_1346,mf_amp_cond1,3.0.7,59.9819357892552,
promote,,&&&&&&&,images/symbols/symbol_68.png,condition_files/AMP_rep2.csv,left,sanctity.virtue,,,,,,,,,,,,,,,,,,,,,0,2,2,1,0,4,4,4,,,,,,,,,,,,,1165.9543833280914,,,,,AMP_prac,right,1.4989177144598216,,,,,,,,,,,,,,,,,,,,,6,,,left,0.8670945775229484,,,,,,,,,,,,,,1033,2019_Jun_07_1346,mf_amp_cond1,3.0.7,59.9819357892552,
credit,,&&&&&&,images/symbols/symbol_11.png,condition_files/AMP_rep2.csv,left,fairness.virtue,,,,,,,,,,,,,,,,,,,,,0,2,2,1,0,5,5,5,,,,,,,,,,,,,1166.9547043736093,,,,,AMP_prac,right,1.4989177144598216,,,,,,,,,,,,,,,,,,,,,6,,,left,0.78173594805412,,,,,,,,,,,,,,1033,2019_Jun_07_1346,mf_amp_cond1,3.0.7,59.9819357892552,
dignity,,&&&&&&&,images/symbols/symbol_14.png,condition_files/AMP_rep2.csv,left,sanctity.virtue,,,,,,,,,,,,,,,,,,,,,0,2,2,1,0,6,6,6,,,,,,,,,,,,,1167.8882787635084,,,,,AMP_prac,right,1.4989177144598216,,,,,,,,,,,,,,,,,,,,,6,,,left,0.7156021976843476,,,,,,,,,,,,,,1033,2019_Jun_07_1346,mf_amp_cond1,3.0.7,59.9819357892552,
perfect,,&&&&&&&,images/symbols/symbol_58.png,condition_files/AMP_rep2.csv,left,sanctity.virtue,,,,,,,,,,,,,,,,,,,,,0,2,2,1,0,7,7,7,,,,,,,,,,,,,1168.921884616604,,,,,AMP_prac,right,1.4989177144598216,,,,,,,,,,,,,,,,,,,,,6,,,left,0.8004601758439094,,,,,,,,,,,,,,1033,2019_Jun_07_1346,mf_amp_cond1,3.0.7,59.9819357892552,
great,,&&&&&,images/symbols/symbol_34.png,condition_files/AMP_rep2.csv,left,loyalty.virtue,,,,,,,,,,,,,,,,,,,,,0,2,2,1,0,8,8,8,,,,,,,,,,,,,1169.9888397431932,,,,,AMP_prac,right,1.4989177144598216,,,,,,,,,,,,,,,,,,,,,6,,,right,0.8486076861154288,,,,,,,,,,,,,,1033,2019_Jun_07_1346,mf_amp_cond1,3.0.7,59.9819357892552,
health,,&&&&&&,images/symbols/symbol_8.png,condition_files/AMP_rep2.csv,left,care.virtue,,,,,,,,,,,,,,,,,,,,,0,2,2,1,0,9,9,9,,,,,,,,,,,,,1170.8890661427286,,,,,AMP_prac,right,1.4989177144598216,,,,,,,,,,,,,,,,,,,,,6,,,right,0.6821544617414474,,,,,,,,,,,,,,1033,2019_Jun_07_1346,mf_amp_cond1,3.0.7,59.9819357892552,
terrorists,,&&&&&&&&&&,images/symbols/symbol_21.png,condition_files/AMP_rep2.csv,right,fairness.vice,,,,,,,,,,,,,,,,,,,,,0,2,2,1,0,10,10,10,,,,,,,,,,,,,1172.4728421561886,,,,,AMP_prac,right,1.4989177144598216,,,,,,,,,,,,,,,,,,,,,6,,,left,1.3662082548253238,,,,,,,,,,,,,,1033,2019_Jun_07_1346,mf_amp_cond1,3.0.7,59.9819357892552,
rhuissed,,&&&&&&&&,images/symbols/symbol_64.png,condition_files/AMP_rep2.csv,None,nonword,,,,,,,,,,,,,,,,,,,,,0,2,2,1,0,11,11,11,,,,,,,,,,,,,1173.539767134469,,,,,AMP_prac,right,1.4989177144598216,,,,,,,,,,,,,,,,,,,,,6,,,right,0.8490807549096644,,,,,,,,,,,,,,1033,2019_Jun_07_1346,mf_amp_cond1,3.0.7,59.9819357892552,
illegal,,&&&&&&&,images/symbols/symbol_57.png,condition_files/AMP_rep2.csv,right,fairness.vice,,,,,,,,,,,,,,,,,,,,,0,2,2,1,0,12,12,12,,,,,,,,,,,,,1174.9067900301889,,,,,AMP_prac,right,1.4989177144598216,,,,,,,,,,,,,,,,,,,,,6,,,left,1.1493136973585933,,,,,,,,,,,,,,1033,2019_Jun_07_1346,mf_amp_cond1,3.0.7,59.9819357892552,
charges,,&&&&&&&,images/symbols/symbol_75.png,condition_files/AMP_rep2.csv,right,fairness.vice,,,,,,,,,,,,,,,,,,,,,0,2,2,1,0,13,13,13,,,,,,,,,,,,,1175.8403711554129,,,,,AMP_prac,right,1.4989177144598216,,,,,,,,,,,,,,,,,,,,,6,,,left,0.7158363265916705,,,,,,,,,,,,,,1033,2019_Jun_07_1346,mf_amp_cond1,3.0.7,59.9819357892552,
slavery,,&&&&&&&,images/symbols/symbol_49.png,condition_files/AMP_rep2.csv,right,loyalty.vice,,,,,,,,,,,,,,,,,,,,,0,2,2,1,0,14,14,14,,,,,,,,,,,,,1176.8406373569742,,,,,AMP_prac,right,1.4989177144598216,,,,,,,,,,,,,,,,,,,,,6,,,left,0.7671295045875013,,,,,,,,,,,,,,1033,2019_Jun_07_1346,mf_amp_cond1,3.0.7,59.9819357892552,
agreement,,&&&&&&&&&,images/symbols/symbol_18.png,condition_files/AMP_rep2.csv,left,fairness.virtue,,,,,,,,,,,,,,,,,,,,,0,2,2,1,0,15,15,15,,,,,,,,,,,,,1177.9409350214992,,,,,AMP_prac,right,1.4989177144598216,,,,,,,,,,,,,,,,,,,,,6,,,right,0.8820923052262515,,,,,,,,,,,,,,1033,2019_Jun_07_1346,mf_amp_cond1,3.0.7,59.9819357892552,
conspiracy,,&&&&&&&&&&,images/symbols/symbol_23.png,condition_files/AMP_rep2.csv,right,sanctity.vice,,,,,,,,,,,,,,,,,,,,,0,2,2,1,0,16,16,16,,,,,,,,,,,,,1179.0245331930928,,,,,AMP_prac,right,1.4989177144598216,,,,,,,,,,,,,,,,,,,,,6,,,left,0.850469492841512,,,,,,,,,,,,,,1033,2019_Jun_07_1346,mf_amp_cond1,3.0.7,59.9819357892552,
benefit,,&&&&&&&,images/symbols/symbol_37.png,condition_files/AMP_rep2.csv,left,fairness.virtue,,,,,,,,,,,,,,,,,,,,,0,2,2,1,0,17,17,17,,,,,,,,,,,,,1180.2415345520712,,,,,AMP_prac,right,1.4989177144598216,,,,,,,,,,,,,,,,,,,,,6,,,right,0.99843614641577,,,,,,,,,,,,,,1033,2019_Jun_07_1346,mf_amp_cond1,3.0.7,59.9819357892552,
died,,&&&&,images/symbols/symbol_74.png,condition_files/AMP_rep2.csv,right,care.vice,,,,,,,,,,,,,,,,,,,,,0,2,2,1,0,18,18,18,,,,,,,,,,,,,1181.2418116582558,,,,,AMP_prac,right,1.4989177144598216,,,,,,,,,,,,,,,,,,,,,6,,,right,0.767148106591776,,,,,,,,,,,,,,1033,2019_Jun_07_1346,mf_amp_cond1,3.0.7,59.9819357892552,
threatened,,&&&&&&&&&&,images/symbols/symbol_5.png,condition_files/AMP_rep2.csv,right,fairness.vice,,,,,,,,,,,,,,,,,,,,,0,2,2,1,0,19,19,19,,,,,,,,,,,,,1182.2920740270056,,,,,AMP_prac,right,1.4989177144598216,,,,,,,,,,,,,,,,,,,,,6,,,right,0.8319181355182081,,,,,,,,,,,,,,1033,2019_Jun_07_1346,mf_amp_cond1,3.0.7,59.9819357892552,
corruption,,&&&&&&&&&&,images/symbols/symbol_17.png,condition_files/AMP_rep2.csv,right,sanctity.vice,,,,,,,,,,,,,,,,,,,,,0,2,2,1,0,20,20,20,,,,,,,,,,,,,1183.3422831555363,,,,,AMP_prac,right,1.4989177144598216,,,,,,,,,,,,,,,,,,,,,6,,,right,0.8324296914506704,,,,,,,,,,,,,,1033,2019_Jun_07_1346,mf_amp_cond1,3.0.7,59.9819357892552,
pleasant,,&&&&&&&,images/symbols/symbol_38.png,condition_files/AMP_rep2.csv,right,control,,,,,,,,,,,,,,,,,,,,,0,2,2,1,0,21,21,21,,,,,,,,,,,,,1184.9260254930705,,,,,AMP_prac,right,1.4989177144598216,,,,,,,,,,,,,,,,,,,,,6,,,left,1.3658381383866072,,,,,,,,,,,,,,1033,2019_Jun_07_1346,mf_amp_cond1,3.0.7,59.9819357892552,
clean,,&&&&&,images/symbols/symbol_78.png,condition_files/AMP_rep2.csv,left,sanctity.virtue,,,,,,,,,,,,,,,,,,,,,0,2,2,1,0,22,22,22,,,,,,,,,,,,,1186.1763485430274,,,,,AMP_prac,right,1.4989177144598216,,,,,,,,,,,,,,,,,,,,,6,,,right,1.0322132664732635,,,,,,,,,,,,,,1033,2019_Jun_07_1346,mf_amp_cond1,3.0.7,59.9819357892552,
celebrated,,&&&&&&&&&&,images/symbols/symbol_45.png,condition_files/AMP_rep2.csv,left,authority.virtue,,,,,,,,,,,,,,,,,,,,,0,2,2,1,0,23,23,23,,,,,,,,,,,,,1187.8767929712776,,,,,AMP_prac,right,1.4989177144598216,,,,,,,,,,,,,,,,,,,,,6,,,right,1.4827919981908053,,,,,,,,,,,,,,1033,2019_Jun_07_1346,mf_amp_cond1,3.0.7,59.9819357892552,
chawde,,&&&&&&,images/symbols/symbol_31.png,condition_files/AMP_rep2.csv,None,nonword,,,,,,,,,,,,,,,,,,,,,0,2,2,1,0,24,24,24,,,,,,,,,,,,,1189.0604960520286,,,,,AMP_prac,right,1.4989177144598216,,,,,,,,,,,,,,,,,,,,,6,,,left,0.9505041632801294,,,,,,,,,,,,,,1033,2019_Jun_07_1346,mf_amp_cond1,3.0.7,59.9819357892552,
unpleasant,,&&&&&&&&&,images/symbols/symbol_43.png,condition_files/AMP_rep2.csv,left,control,,,,,,,,,,,,,,,,,,,,,0,2,2,1,0,25,25,25,,,,,,,,,,,,,1190.2441651360132,,,,,AMP_prac,right,1.4989177144598216,,,,,,,,,,,,,,,,,,,,,6,,,left,0.9653081730939448,,,,,,,,,,,,,,1033,2019_Jun_07_1346,mf_amp_cond1,3.0.7,59.9819357892552,
strength,,&&&&&&&&,images/symbols/symbol_1.png,condition_files/AMP_rep2.csv,left,sanctity.virtue,,,,,,,,,,,,,,,,,,,,,0,2,2,1,0,26,26,26,,,,,,,,,,,,,1192.328021811787,,,,,AMP_prac,right,1.4989177144598216,,,,,,,,,,,,,,,,,,,,,6,,,right,1.865955684101209,,,,,,,,,,,,,,1033,2019_Jun_07_1346,mf_amp_cond1,3.0.7,59.9819357892552,
values,,&&&&&&,images/symbols/symbol_52.png,condition_files/AMP_rep2.csv,left,sanctity.virtue,,,,,,,,,,,,,,,,,,,,,0,2,2,1,0,27,27,27,,,,,,,,,,,,,1193.3449458118994,,,,,AMP_prac,right,1.4989177144598216,,,,,,,,,,,,,,,,,,,,,6,,,left,0.7837805678136647,,,,,,,,,,,,,,1033,2019_Jun_07_1346,mf_amp_cond1,3.0.7,59.9819357892552,
promised,,&&&&&&&&,images/symbols/symbol_71.png,condition_files/AMP_rep2.csv,left,loyalty.virtue,,,,,,,,,,,,,,,,,,,,,0,2,2,1,0,28,28,28,,,,,,,,,,,,,1194.511925024679,,,,,AMP_prac,right,1.4989177144598216,,,,,,,,,,,,,,,,,,,,,6,,,left,0.948546459665522,,,,,,,,,,,,,,1033,2019_Jun_07_1346,mf_amp_cond1,3.0.7,59.9819357892552,
noost,,&&&&&,images/symbols/symbol_9.png,condition_files/AMP_rep2.csv,None,nonword,,,,,,,,,,,,,,,,,,,,,0,2,2,1,0,29,29,29,,,,,,,,,,,,,1195.5288618539926,,,,,AMP_prac,right,1.4989177144598216,,,,,,,,,,,,,,,,,,,,,6,,,right,0.7990117829758674,,,,,,,,,,,,,,1033,2019_Jun_07_1346,mf_amp_cond1,3.0.7,59.9819357892552,
victim,,&&&&&&,images/symbols/symbol_65.png,condition_files/AMP_rep2.csv,right,care.vice,,,,,,,,,,,,,,,,,,,,,0,2,2,1,0,30,30,30,,,,,,,,,,,,,1196.7292050933465,,,,,AMP_prac,right,1.4989177144598216,,,,,,,,,,,,,,,,,,,,,6,,,left,0.982519221957773,,,,,,,,,,,,,,1033,2019_Jun_07_1346,mf_amp_cond1,3.0.7,59.9819357892552,
shot,,&&&&,images/symbols/symbol_77.png,condition_files/AMP_rep2.csv,right,care.vice,,,,,,,,,,,,,,,,,,,,,0,2,2,1,0,31,31,31,,,,,,,,,,,,,1198.92970196018,,,,,AMP_prac,right,1.4989177144598216,,,,,,,,,,,,,,,,,,,,,6,,,right,1.9828181373886764,,,,,,,,,,,,,,1033,2019_Jun_07_1346,mf_amp_cond1,3.0.7,59.9819357892552,
black,,&&&&&,images/symbols/symbol_47.png,condition_files/AMP_rep2.csv,right,loyalty.vice,,,,,,,,,,,,,,,,,,,,,0,2,2,1,0,32,32,32,,,,,,,,,,,,,1200.2800705849659,,,,,AMP_prac,right,1.4989177144598216,,,,,,,,,,,,,,,,,,,,,6,,,right,1.1327877163421363,,,,,,,,,,,,,,1033,2019_Jun_07_1346,mf_amp_cond1,3.0.7,59.9819357892552,
safety,,&&&&&&,images/symbols/symbol_36.png,condition_files/AMP_rep2.csv,left,care.virtue,,,,,,,,,,,,,,,,,,,,,0,2,2,1,0,33,33,33,,,,,,,,,,,,,1203.5309173783753,,,,,AMP_prac,right,1.4989177144598216,,,,,,,,,,,,,,,,,,,,,6,,,right,3.0331427266355604,,,,,,,,,,,,,,1033,2019_Jun_07_1346,mf_amp_cond1,3.0.7,59.9819357892552,
increase,,&&&&&&&&,images/symbols/symbol_76.png,condition_files/AMP_rep2.csv,left,care.virtue,,,,,,,,,,,,,,,,,,,,,0,2,2,1,0,34,34,34,,,,,,,,,,,,,1204.6645514874253,,,,,AMP_prac,right,1.4989177144598216,,,,,,,,,,,,,,,,,,,,,6,,,left,0.9158540305215865,,,,,,,,,,,,,,1033,2019_Jun_07_1346,mf_amp_cond1,3.0.7,59.9819357892552,
friends,,&&&&&&&,images/symbols/symbol_13.png,condition_files/AMP_rep2.csv,left,loyalty.virtue,,,,,,,,,,,,,,,,,,,,,0,2,2,1,0,35,35,35,,,,,,,,,,,,,1205.6815447639674,,,,,AMP_prac,right,1.4989177144598216,,,,,,,,,,,,,,,,,,,,,6,,,left,0.7991939547937363,,,,,,,,,,,,,,1033,2019_Jun_07_1346,mf_amp_cond1,3.0.7,59.9819357892552,
rejected,,&&&&&&&&,images/symbols/symbol_69.png,condition_files/AMP_rep2.csv,right,authority.vice,,,,,,,,,,,,,,,,,,,,,0,2,2,1,0,36,36,36,,,,,,,,,,,,,1206.6651457902044,,,,,AMP_prac,right,1.4989177144598216,,,,,,,,,,,,,,,,,,,,,6,,,left,0.7504761959426105,,,,,,,,,,,,,,1033,2019_Jun_07_1346,mf_amp_cond1,3.0.7,59.9819357892552,
gun,,&&&,images/symbols/symbol_50.png,condition_files/AMP_rep2.csv,right,authority.vice,,,,,,,,,,,,,,,,,,,,,0,2,2,1,0,37,37,37,,,,,,,,,,,,,1207.89874497219,,,,,AMP_prac,right,1.4989177144598216,,,,,,,,,,,,,,,,,,,,,6,,,right,1.0152793240267783,,,,,,,,,,,,,,1033,2019_Jun_07_1346,mf_amp_cond1,3.0.7,59.9819357892552,
sharing,,&&&&&&&,images/symbols/symbol_62.png,condition_files/AMP_rep2.csv,left,loyalty.virtue,,,,,,,,,,,,,,,,,,,,,0,2,2,1,0,38,38,38,,,,,,,,,,,,,1209.265751190018,,,,,AMP_prac,right,1.4989177144598216,,,,,,,,,,,,,,,,,,,,,6,,,left,1.1338595785200596,,,,,,,,,,,,,,1033,2019_Jun_07_1346,mf_amp_cond1,3.0.7,59.9819357892552,
death,,&&&&&,images/symbols/symbol_35.png,condition_files/AMP_rep2.csv,right,care.vice,,,,,,,,,,,,,,,,,,,,,0,2,2,1,0,39,39,39,,,,,,,,,,,,,1210.266074159881,,,,,AMP_prac,right,1.4989177144598216,,,,,,,,,,,,,,,,,,,,,6,,,right,0.7817927163559943,,,,,,,,,,,,,,1033,2019_Jun_07_1346,mf_amp_cond1,3.0.7,59.9819357892552,
scourld,,&&&&&&&,images/symbols/symbol_4.png,condition_files/AMP_rep2.csv,None,nonword,,,,,,,,,,,,,,,,,,,,,0,2,2,1,0,40,40,40,,,,,,,,,,,,,1211.416430533165,,,,,AMP_prac,right,1.4989177144598216,,,,,,,,,,,,,,,,,,,,,6,,,left,0.9324611546471715,,,,,,,,,,,,,,1033,2019_Jun_07_1346,mf_amp_cond1,3.0.7,59.9819357892552,
protesters,,&&&&&&&&&&,images/symbols/symbol_19.png,condition_files/AMP_rep2.csv,right,authority.vice,,,,,,,,,,,,,,,,,,,,,0,2,2,1,0,41,41,41,,,,,,,,,,,,,1212.7167077353224,,,,,AMP_prac,right,1.4989177144598216,,,,,,,,,,,,,,,,,,,,,6,,,right,1.082472428213805,,,,,,,,,,,,,,1033,2019_Jun_07_1346,mf_amp_cond1,3.0.7,59.9819357892552,
harassment,,&&&&&&&&&&,images/symbols/symbol_54.png,condition_files/AMP_rep2.csv,right,sanctity.vice,,,,,,,,,,,,,,,,,,,,,0,2,2,1,0,42,42,42,,,,,,,,,,,,,1213.7169697675854,,,,,AMP_prac,right,1.4989177144598216,,,,,,,,,,,,,,,,,,,,,6,,,left,0.7671137889847159,,,,,,,,,,,,,,1033,2019_Jun_07_1346,mf_amp_cond1,3.0.7,59.9819357892552,
victims,,&&&&&&&,images/symbols/symbol_56.png,condition_files/AMP_rep2.csv,right,care.vice,,,,,,,,,,,,,,,,,,,,,0,2,2,1,0,43,43,43,,,,,,,,,,,,,1214.7172298752703,,,,,AMP_prac,right,1.4989177144598216,,,,,,,,,,,,,,,,,,,,,6,,,right,0.7671157133299857,,,,,,,,,,,,,,1033,2019_Jun_07_1346,mf_amp_cond1,3.0.7,59.9819357892552,
useful,,&&&&&&,images/symbols/symbol_82.png,condition_files/AMP_rep2.csv,left,authority.virtue,,,,,,,,,,,,,,,,,,,,,0,2,2,1,0,44,44,44,,,,,,,,,,,,,1215.9842296466231,,,,,AMP_prac,right,1.4989177144598216,,,,,,,,,,,,,,,,,,,,,6,,,left,1.0489659996237606,,,,,,,,,,,,,,1033,2019_Jun_07_1346,mf_amp_cond1,3.0.7,59.9819357892552,
compassion,,&&&&&&&&&&,images/symbols/symbol_15.png,condition_files/AMP_rep2.csv,left,care.virtue,,,,,,,,,,,,,,,,,,,,,0,2,2,1,0,45,45,45,,,,,,,,,,,,,1218.2847720882855,,,,,AMP_prac,right,1.4989177144598216,,,,,,,,,,,,,,,,,,,,,6,,,right,2.0827710228040814,,,,,,,,,,,,,,1033,2019_Jun_07_1346,mf_amp_cond1,3.0.7,59.9819357892552,
hate,,&&&&,images/symbols/symbol_46.png,condition_files/AMP_rep2.csv,right,fairness.vice,,,,,,,,,,,,,,,,,,,,,0,2,2,1,0,46,46,46,,,,,,,,,,,,,1219.0683105089702,,,,,AMP_prac,right,1.4989177144598216,,,,,,,,,,,,,,,,,,,,,6,,,right,0.5659389104694128,,,,,,,,,,,,,,1033,2019_Jun_07_1346,mf_amp_cond1,3.0.7,59.9819357892552,
progress,,&&&&&&&&,images/symbols/symbol_10.png,condition_files/AMP_rep2.csv,left,authority.virtue,,,,,,,,,,,,,,,,,,,,,0,2,2,1,0,47,47,47,,,,,,,,,,,,,1219.9518938632682,,,,,AMP_prac,right,1.4989177144598216,,,,,,,,,,,,,,,,,,,,,6,,,left,0.6658606855198741,,,,,,,,,,,,,,1033,2019_Jun_07_1346,mf_amp_cond1,3.0.7,59.9819357892552,
ability,,&&&&&&&,images/symbols/symbol_41.png,condition_files/AMP_rep2.csv,left,authority.virtue,,,,,,,,,,,,,,,,,,,,,0,2,2,1,0,48,48,48,,,,,,,,,,,,,1221.0521677942015,,,,,AMP_prac,right,1.4989177144598216,,,,,,,,,,,,,,,,,,,,,6,,,left,0.8830730812624097,,,,,,,,,,,,,,1033,2019_Jun_07_1346,mf_amp_cond1,3.0.7,59.9819357892552,
improve,,&&&&&&&,images/symbols/symbol_66.png,condition_files/AMP_rep2.csv,left,care.virtue,,,,,,,,,,,,,,,,,,,,,0,2,2,1,0,49,49,49,,,,,,,,,,,,,1222.1191700671334,,,,,AMP_prac,right,1.4989177144598216,,,,,,,,,,,,,,,,,,,,,6,,,left,0.8337995067704469,,,,,,,,,,,,,,1033,2019_Jun_07_1346,mf_amp_cond1,3.0.7,59.9819357892552,
voter,,&&&&&,images/symbols/symbol_12.png,condition_files/AMP_rep2.csv,right,fairness.vice,,,,,,,,,,,,,,,,,,,,,0,2,2,1,0,50,50,50,,,,,,,,,,,,,1223.5362314656377,,,,,AMP_prac,right,1.4989177144598216,,,,,,,,,,,,,,,,,,,,,6,,,left,1.1839105896651745,,,,,,,,,,,,,,1033,2019_Jun_07_1346,mf_amp_cond1,3.0.7,59.9819357892552,
rhaps,,&&&&&,images/symbols/symbol_70.png,condition_files/AMP_rep2.csv,None,nonword,,,,,,,,,,,,,,,,,,,,,0,2,2,1,0,51,51,51,,,,,,,,,,,,,1224.4364565822762,,,,,AMP_prac,right,1.4989177144598216,,,,,,,,,,,,,,,,,,,,,6,,,right,0.6819450282491744,,,,,,,,,,,,,,1033,2019_Jun_07_1346,mf_amp_cond1,3.0.7,59.9819357892552,
peighld,,&&&&&&&,images/symbols/symbol_79.png,condition_files/AMP_rep2.csv,None,nonword,,,,,,,,,,,,,,,,,,,,,0,2,2,1,0,52,52,52,,,,,,,,,,,,,1225.5367619441822,,,,,AMP_prac,right,1.4989177144598216,,,,,,,,,,,,,,,,,,,,,6,,,right,0.8823511300142854,,,,,,,,,,,,,,1033,2019_Jun_07_1346,mf_amp_cond1,3.0.7,59.9819357892552,
racist,,&&&&&&,images/symbols/symbol_48.png,condition_files/AMP_rep2.csv,right,sanctity.vice,,,,,,,,,,,,,,,,,,,,,0,2,2,1,0,53,53,53,,,,,,,,,,,,,1227.7539778680075,,,,,AMP_prac,right,1.4989177144598216,,,,,,,,,,,,,,,,,,,,,6,,,right,1.9993810013402253,,,,,,,,,,,,,,1033,2019_Jun_07_1346,mf_amp_cond1,3.0.7,59.9819357892552,
suicide,,&&&&&&&,images/symbols/symbol_16.png,condition_files/AMP_rep2.csv,right,care.vice,,,,,,,,,,,,,,,,,,,,,0,2,2,1,0,54,54,54,,,,,,,,,,,,,1228.4708145346958,,,,,AMP_prac,right,1.4989177144598216,,,,,,,,,,,,,,,,,,,,,6,,,left,0.4991101494524628,,,,,,,,,,,,,,1033,2019_Jun_07_1346,mf_amp_cond1,3.0.7,59.9819357892552,
rebels,,&&&&&&,images/symbols/symbol_25.png,condition_files/AMP_rep2.csv,right,authority.vice,,,,,,,,,,,,,,,,,,,,,0,2,2,1,0,55,55,55,,,,,,,,,,,,,1229.921162665356,,,,,AMP_prac,right,1.4989177144598216,,,,,,,,,,,,,,,,,,,,,6,,,right,1.2325144910719246,,,,,,,,,,,,,,1033,2019_Jun_07_1346,mf_amp_cond1,3.0.7,59.9819357892552,
interests,,&&&&&&&&&,images/symbols/symbol_3.png,condition_files/AMP_rep2.csv,left,fairness.virtue,,,,,,,,,,,,,,,,,,,,,0,2,2,1,0,56,56,56,,,,,,,,,,,,,1231.7383720462676,,,,,AMP_prac,right,1.4989177144598216,,,,,,,,,,,,,,,,,,,,,6,,,right,1.599281127564609,,,,,,,,,,,,,,1033,2019_Jun_07_1346,mf_amp_cond1,3.0.7,59.9819357892552,
psypped,,&&&&&&&,images/symbols/symbol_72.png,condition_files/AMP_rep2.csv,None,nonword,,,,,,,,,,,,,,,,,,,,,0,2,2,1,0,57,57,57,,,,,,,,,,,,,1232.9220032847952,,,,,AMP_prac,right,1.4989177144598216,,,,,,,,,,,,,,,,,,,,,6,,,right,0.95049261697568,,,,,,,,,,,,,,1033,2019_Jun_07_1346,mf_amp_cond1,3.0.7,59.9819357892552,
honored,,&&&&&&&,images/symbols/symbol_22.png,condition_files/AMP_rep2.csv,left,authority.virtue,,,,,,,,,,,,,,,,,,,,,0,2,2,1,0,58,58,58,,,,,,,,,,,,,1235.1225283753593,,,,,AMP_prac,right,1.4989177144598216,,,,,,,,,,,,,,,,,,,,,6,,,right,1.98201825004071,,,,,,,,,,,,,,1033,2019_Jun_07_1346,mf_amp_cond1,3.0.7,59.9819357892552,
sexual,,&&&&&&,images/symbols/symbol_39.png,condition_files/AMP_rep2.csv,right,sanctity.vice,,,,,,,,,,,,,,,,,,,,,0,2,2,1,0,59,59,59,,,,,,,,,,,,,1236.156189713627,,,,,AMP_prac,right,1.4989177144598216,,,,,,,,,,,,,,,,,,,,,6,,,left,0.8157754209823906,,,,,,,,,,,,,,1033,2019_Jun_07_1346,mf_amp_cond1,3.0.7,59.9819357892552,
violations,,&&&&&&&&&&,images/symbols/symbol_20.png,condition_files/AMP_rep2.csv,right,sanctity.vice,,,,,,,,,,,,,,,,,,,,,0,2,2,1,0,60,60,60,,,,,,,,,,,,,1237.5732260958757,,,,,AMP_prac,right,1.4989177144598216,,,,,,,,,,,,,,,,,,,,,6,,,left,1.1997524646576494,,,,,,,,,,,,,,1033,2019_Jun_07_1346,mf_amp_cond1,3.0.7,59.9819357892552,
ban,,&&&,images/symbols/symbol_60.png,condition_files/AMP_rep2.csv,right,loyalty.vice,,,,,,,,,,,,,,,,,,,,,0,2,2,1,0,61,61,61,,,,,,,,,,,,,1240.2072231047787,,,,,AMP_prac,right,1.4989177144598216,,,,,,,,,,,,,,,,,,,,,6,,,left,2.4008891771081835,,,,,,,,,,,,,,1033,2019_Jun_07_1346,mf_amp_cond1,3.0.7,59.9819357892552,
men,,&&&,images/symbols/symbol_7.png,condition_files/AMP_rep2.csv,right,loyalty.vice,,,,,,,,,,,,,,,,,,,,,0,2,2,1,0,62,62,62,,,,,,,,,,,,,1241.4241978435311,,,,,AMP_prac,right,1.4989177144598216,,,,,,,,,,,,,,,,,,,,,6,,,right,0.9987818878144026,,,,,,,,,,,,,,1033,2019_Jun_07_1346,mf_amp_cond1,3.0.7,59.9819357892552,
ensure,,&&&&&&,images/symbols/symbol_33.png,condition_files/AMP_rep2.csv,left,fairness.virtue,,,,,,,,,,,,,,,,,,,,,0,2,2,1,0,63,63,63,,,,,,,,,,,,,1243.007925106911,,,,,AMP_prac,right,1.4989177144598216,,,,,,,,,,,,,,,,,,,,,6,,,right,1.3660998498089612,,,,,,,,,,,,,,1033,2019_Jun_07_1346,mf_amp_cond1,3.0.7,59.9819357892552,
army,,&&&&,images/symbols/symbol_26.png,condition_files/AMP_rep2.csv,right,loyalty.vice,,,,,,,,,,,,,,,,,,,,,0,2,2,1,0,64,64,64,,,,,,,,,,,,,1244.9749870025553,,,,,AMP_prac,right,1.4989177144598216,,,,,,,,,,,,,,,,,,,,,6,,,left,1.7493648850359023,,,,,,,,,,,,,,1033,2019_Jun_07_1346,mf_amp_cond1,3.0.7,59.9819357892552,
crime,,&&&&&,images/symbols/symbol_24.png,condition_files/AMP_rep2.csv,right,fairness.vice,,,,,,,,,,,,,,,,,,,,,0,2,2,1,0,65,65,65,,,,,,,,,,,,,1246.3088620398194,,,,,AMP_prac,right,1.4989177144598216,,,,,,,,,,,,,,,,,,,,,6,,,left,1.1005500750616193,,,,,,,,,,,,,,1033,2019_Jun_07_1346,mf_amp_cond1,3.0.7,59.9819357892552,
free,,&&&&,images/symbols/symbol_51.png,condition_files/AMP_rep2.csv,left,fairness.virtue,,,,,,,,,,,,,,,,,,,,,0,2,2,1,0,66,66,66,,,,,,,,,,,,,1247.3924829831813,,,,,AMP_prac,right,1.4989177144598216,,,,,,,,,,,,,,,,,,,,,6,,,left,0.8504874533973634,,,,,,,,,,,,,,1033,2019_Jun_07_1346,mf_amp_cond1,3.0.7,59.9819357892552,
fear,,&&&&,images/symbols/symbol_40.png,condition_files/AMP_rep2.csv,right,sanctity.vice,,,,,,,,,,,,,,,,,,,,,0,2,2,1,0,67,67,67,,,,,,,,,,,,,1248.6261245007627,,,,,AMP_prac,right,1.4989177144598216,,,,,,,,,,,,,,,,,,,,,6,,,left,1.0152020293753594,,,,,,,,,,,,,,1033,2019_Jun_07_1346,mf_amp_cond1,3.0.7,59.9819357892552,
intelligence,,&&&&&&&&&&&&,images/symbols/symbol_44.png,condition_files/AMP_rep2.csv,left,loyalty.virtue,,,,,,,,,,,,,,,,,,,,,0,2,2,1,0,68,68,68,,,,,,,,,,,,,1249.6596735855564,,,,,AMP_prac,right,1.4989177144598216,,,,,,,,,,,,,,,,,,,,,6,,,right,0.8156869008671492,,,,,,,,,,,,,,1033,2019_Jun_07_1346,mf_amp_cond1,3.0.7,59.9819357892552,
wheighlde,,&&&&&&&&&,images/symbols/symbol_73.png,condition_files/AMP_rep2.csv,None,nonword,,,,,,,,,,,,,,,,,,,,,0,2,2,1,0,69,69,69,,,,,,,,,,,,,1250.7600334708113,,,,,AMP_prac,right,1.4989177144598216,,,,,,,,,,,,,,,,,,,,,6,,,left,0.8823703734669834,,,,,,,,,,,,,,1033,2019_Jun_07_1346,mf_amp_cond1,3.0.7,59.9819357892552,
care,,&&&&,images/symbols/symbol_53.png,condition_files/AMP_rep2.csv,left,care.virtue,,,,,,,,,,,,,,,,,,,,,0,2,2,1,0,70,70,70,,,,,,,,,,,,,1251.710265018046,,,,,AMP_prac,right,1.4989177144598216,,,,,,,,,,,,,,,,,,,,,6,,,left,0.7322013035882264,,,,,,,,,,,,,,1033,2019_Jun_07_1346,mf_amp_cond1,3.0.7,59.9819357892552,
loyalty,,&&&&&&&,images/symbols/symbol_59.png,condition_files/AMP_rep2.csv,left,loyalty.virtue,,,,,,,,,,,,,,,,,,,,,0,2,2,1,0,71,71,71,,,,,,,,,,,,,1253.077232428128,,,,,AMP_prac,right,1.4989177144598216,,,,,,,,,,,,,,,,,,,,,6,,,left,1.1492145934607834,,,,,,,,,,,,,,1033,2019_Jun_07_1346,mf_amp_cond1,3.0.7,59.9819357892552,
actively,,&&&&&&&&,images/symbols/symbol_27.png,condition_files/AMP_rep2.csv,left,authority.virtue,,,,,,,,,,,,,,,,,,,,,0,2,2,1,0,72,72,72,,,,,,,,,,,,,1254.394309510244,,,,,AMP_prac,right,1.4989177144598216,,,,,,,,,,,,,,,,,,,,,6,,,left,1.0991622991859913,,,,,,,,,,,,,,1033,2019_Jun_07_1346,mf_amp_cond1,3.0.7,59.9819357892552,
stintz,,&&&&&&,images/symbols/symbol_2.png,condition_files/AMP_rep2.csv,None,nonword,,,,,,,,,,,,,,,,,,,,,0,2,2,1,0,73,73,73,,,,,,,,,,,,,1255.4945946664084,,,,,AMP_prac,right,1.4989177144598216,,,,,,,,,,,,,,,,,,,,,6,,,right,0.8826394614297897,,,,,,,,,,,,,,1033,2019_Jun_07_1346,mf_amp_cond1,3.0.7,59.9819357892552,
powerful,,&&&&&&&&,images/symbols/symbol_63.png,condition_files/AMP_rep2.csv,left,authority.virtue,,,,,,,,,,,,,,,,,,,,,0,2,2,1,0,74,74,74,,,,,,,,,,,,,1256.3948335743044,,,,,AMP_prac,right,1.4989177144598216,,,,,,,,,,,,,,,,,,,,,6,,,left,0.682576856110245,,,,,,,,,,,,,,1033,2019_Jun_07_1346,mf_amp_cond1,3.0.7,59.9819357892552,
terrorist,,&&&&&&&&&,images/symbols/symbol_42.png,condition_files/AMP_rep2.csv,right,loyalty.vice,,,,,,,,,,,,,,,,,,,,,0,2,2,1,0,75,75,75,,,,,,,,,,,,,1257.4783124364913,,,,,AMP_prac,right,1.4989177144598216,,,,,,,,,,,,,,,,,,,,,6,,,left,0.865640732459724,,,,,,,,,,,,,,1033,2019_Jun_07_1346,mf_amp_cond1,3.0.7,59.9819357892552,
love,,&&&&,images/symbols/symbol_6.png,condition_files/AMP_rep2.csv,left,loyalty.virtue,,,,,,,,,,,,,,,,,,,,,0,2,2,1,0,76,76,76,,,,,,,,,,,,,1258.9954543691128,,,,,AMP_prac,right,1.4989177144598216,,,,,,,,,,,,,,,,,,,,,6,,,left,1.2838904161471874,,,,,,,,,,,,,,1033,2019_Jun_07_1346,mf_amp_cond1,3.0.7,59.9819357892552,
stailde,,&&&&&&&,images/symbols/symbol_55.png,condition_files/AMP_rep2.csv,None,nonword,,,,,,,,,,,,,,,,,,,,,0,2,2,1,0,77,77,77,,,,,,,,,,,,,1260.5125754545443,,,,,AMP_prac,right,1.4989177144598216,,,,,,,,,,,,,,,,,,,,,6,,,left,1.2983368181157857,,,,,,,,,,,,,,1033,2019_Jun_07_1346,mf_amp_cond1,3.0.7,59.9819357892552,
opportunity,,&&&&&&&&&&&,images/symbols/symbol_30.png,condition_files/AMP_rep2.csv,left,fairness.virtue,,,,,,,,,,,,,,,,,,,,,0,2,2,1,0,78,78,78,,,,,,,,,,,,,1261.2627232284285,,,,,AMP_prac,right,1.4989177144598216,,,,,,,,,,,,,,,,,,,,,6,,,right,0.5325270956382155,,,,,,,,,,,,,,1033,2019_Jun_07_1346,mf_amp_cond1,3.0.7,59.9819357892552,
injured,,&&&&&&&,images/symbols/symbol_29.png,condition_files/AMP_rep2.csv,right,care.vice,,,,,,,,,,,,,,,,,,,,,0,2,2,1,0,79,79,79,,,,,,,,,,,,,1262.7965056402609,,,,,AMP_prac,right,1.4989177144598216,,,,,,,,,,,,,,,,,,,,,6,,,right,1.3157425466924906,,,,,,,,,,,,,,1033,2019_Jun_07_1346,mf_amp_cond1,3.0.7,59.9819357892552,
prosecution,,&&&&&&&&&&&,images/symbols/symbol_28.png,condition_files/AMP_rep2.csv,right,authority.vice,,,,,,,,,,,,,,,,,,,,,0,2,2,1,0,80,80,80,,,,,,,,,,,,,1263.9301410322078,,,,,AMP_prac,right,1.4989177144598216,,,,,,,,,,,,,,,,,,,,,6,,,left,0.9159040634986013,,,,,,,,,,,,,,1033,2019_Jun_07_1346,mf_amp_cond1,3.0.7,59.9819357892552,
blamed,,&&&&&&,images/symbols/symbol_80.png,condition_files/AMP_rep2.csv,right,loyalty.vice,,,,,,,,,,,,,,,,,,,,,0,2,2,1,0,81,81,81,,,,,,,,,,,,,1265.2638262005057,,,,,AMP_prac,right,1.4989177144598216,,,,,,,,,,,,,,,,,,,,,6,,,left,1.1161186925601214,,,,,,,,,,,,,,1033,2019_Jun_07_1346,mf_amp_cond1,3.0.7,59.9819357892552,
,,,,condition_files/AMP_rep2.csv,,,,,,,,,,,,,,,,,,,,,,,0,2,2,1,,,,,,,,,,,,,,,,,,,,,,,,,,,,,,,,,,,,,,,,,,,,,,,,,,right,1.9007071659434587,,,,,,,,,,,,1033,2019_Jun_07_1346,mf_amp_cond1,3.0.7,59.9819357892552,
freedom,,&&&&&&&,images/symbols/symbol_81.png,condition_files/AMP_rep3.csv,left,sanctity.virtue,,,,,,,,,,,,,,,,,,,,,0,3,3,2,0,0,0,0,,,,,,,,,,,,,1268.281370161334,,,,,AMP_prac,right,1.4989177144598216,,,,,,,,,,,,,,,,,,,,,6,,,left,0.8504531357903033,,,,,,,,,,,,,,1033,2019_Jun_07_1346,mf_amp_cond1,3.0.7,59.9819357892552,
fighters,,&&&&&&&&,images/symbols/symbol_61.png,condition_files/AMP_rep3.csv,right,authority.vice,,,,,,,,,,,,,,,,,,,,,0,3,3,2,0,1,1,1,,,,,,,,,,,,,1269.9317164318636,,,,,AMP_prac,right,1.4989177144598216,,,,,,,,,,,,,,,,,,,,,6,,,left,1.41728462302126,,,,,,,,,,,,,,1033,2019_Jun_07_1346,mf_amp_cond1,3.0.7,59.9819357892552,
police,,&&&&&&,images/symbols/symbol_67.png,condition_files/AMP_rep3.csv,right,authority.vice,,,,,,,,,,,,,,,,,,,,,0,3,3,2,0,2,2,2,,,,,,,,,,,,,1271.9656106163748,,,,,AMP_prac,right,1.4989177144598216,,,,,,,,,,,,,,,,,,,,,6,,,left,1.8154104363638908,,,,,,,,,,,,,,1033,2019_Jun_07_1346,mf_amp_cond1,3.0.7,59.9819357892552,
good,,&&&&,images/symbols/symbol_32.png,condition_files/AMP_rep3.csv,left,care.virtue,,,,,,,,,,,,,,,,,,,,,0,3,3,2,0,3,3,3,,,,,,,,,,,,,1273.2992781449575,,,,,AMP_prac,right,1.4989177144598216,,,,,,,,,,,,,,,,,,,,,6,,,left,1.1005500748287886,,,,,,,,,,,,,,1033,2019_Jun_07_1346,mf_amp_cond1,3.0.7,59.9819357892552,
promote,,&&&&&&&,images/symbols/symbol_68.png,condition_files/AMP_rep3.csv,left,sanctity.virtue,,,,,,,,,,,,,,,,,,,,,0,3,3,2,0,4,4,4,,,,,,,,,,,,,1274.7496577065904,,,,,AMP_prac,right,1.4989177144598216,,,,,,,,,,,,,,,,,,,,,6,,,left,1.2172524861525744,,,,,,,,,,,,,,1033,2019_Jun_07_1346,mf_amp_cond1,3.0.7,59.9819357892552,
credit,,&&&&&&,images/symbols/symbol_11.png,condition_files/AMP_rep3.csv,left,fairness.virtue,,,,,,,,,,,,,,,,,,,,,0,3,3,2,0,5,5,5,,,,,,,,,,,,,1275.9332841341384,,,,,AMP_prac,right,1.4989177144598216,,,,,,,,,,,,,,,,,,,,,6,,,right,0.9653104180470109,,,,,,,,,,,,,,1033,2019_Jun_07_1346,mf_amp_cond1,3.0.7,59.9819357892552,
dignity,,&&&&&&&,images/symbols/symbol_14.png,condition_files/AMP_rep3.csv,left,sanctity.virtue,,,,,,,,,,,,,,,,,,,,,0,3,3,2,0,6,6,6,,,,,,,,,,,,,1277.000176719157,,,,,AMP_prac,right,1.4989177144598216,,,,,,,,,,,,,,,,,,,,,6,,,left,0.8488434185273945,,,,,,,,,,,,,,1033,2019_Jun_07_1346,mf_amp_cond1,3.0.7,59.9819357892552,
perfect,,&&&&&&&,images/symbols/symbol_58.png,condition_files/AMP_rep3.csv,left,sanctity.virtue,,,,,,,,,,,,,,,,,,,,,0,3,3,2,0,7,7,7,,,,,,,,,,,,,1277.9504348866176,,,,,AMP_prac,right,1.4989177144598216,,,,,,,,,,,,,,,,,,,,,6,,,left,0.7170784932095557,,,,,,,,,,,,,,1033,2019_Jun_07_1346,mf_amp_cond1,3.0.7,59.9819357892552,
great,,&&&&&,images/symbols/symbol_34.png,condition_files/AMP_rep3.csv,left,loyalty.virtue,,,,,,,,,,,,,,,,,,,,,0,3,3,2,0,8,8,8,,,,,,,,,,,,,1278.9174063378014,,,,,AMP_prac,right,1.4989177144598216,,,,,,,,,,,,,,,,,,,,,6,,,left,0.7483222091104835,,,,,,,,,,,,,,1033,2019_Jun_07_1346,mf_amp_cond1,3.0.7,59.9819357892552,
health,,&&&&&&,images/symbols/symbol_8.png,condition_files/AMP_rep3.csv,left,care.virtue,,,,,,,,,,,,,,,,,,,,,0,3,3,2,0,9,9,9,,,,,,,,,,,,,1280.1343871704303,,,,,AMP_prac,right,1.4989177144598216,,,,,,,,,,,,,,,,,,,,,6,,,left,0.9990618804004043,,,,,,,,,,,,,,1033,2019_Jun_07_1346,mf_amp_cond1,3.0.7,59.9819357892552,
terrorists,,&&&&&&&&&&,images/symbols/symbol_21.png,condition_files/AMP_rep3.csv,right,fairness.vice,,,,,,,,,,,,,,,,,,,,,0,3,3,2,0,10,10,10,,,,,,,,,,,,,1281.7015098754782,,,,,AMP_prac,right,1.4989177144598216,,,,,,,,,,,,,,,,,,,,,6,,,right,1.3495616815052927,,,,,,,,,,,,,,1033,2019_Jun_07_1346,mf_amp_cond1,3.0.7,59.9819357892552,
rhuissed,,&&&&&&&&,images/symbols/symbol_64.png,condition_files/AMP_rep3.csv,None,nonword,,,,,,,,,,,,,,,,,,,,,0,3,3,2,0,11,11,11,,,,,,,,,,,,,1283.1685395385139,,,,,AMP_prac,right,1.4989177144598216,,,,,,,,,,,,,,,,,,,,,6,,,right,1.2491700446698815,,,,,,,,,,,,,,1033,2019_Jun_07_1346,mf_amp_cond1,3.0.7,59.9819357892552,
illegal,,&&&&&&&,images/symbols/symbol_57.png,condition_files/AMP_rep3.csv,right,fairness.vice,,,,,,,,,,,,,,,,,,,,,0,3,3,2,0,12,12,12,,,,,,,,,,,,,1284.4522038435098,,,,,AMP_prac,right,1.4989177144598216,,,,,,,,,,,,,,,,,,,,,6,,,left,1.0658367592841387,,,,,,,,,,,,,,1033,2019_Jun_07_1346,mf_amp_cond1,3.0.7,59.9819357892552,
charges,,&&&&&&&,images/symbols/symbol_75.png,condition_files/AMP_rep3.csv,right,fairness.vice,,,,,,,,,,,,,,,,,,,,,0,3,3,2,0,13,13,13,,,,,,,,,,,,,1285.6191657374147,,,,,AMP_prac,right,1.4989177144598216,,,,,,,,,,,,,,,,,,,,,6,,,left,0.9491798907984048,,,,,,,,,,,,,,1033,2019_Jun_07_1346,mf_amp_cond1,3.0.7,59.9819357892552,
slavery,,&&&&&&&,images/symbols/symbol_49.png,condition_files/AMP_rep3.csv,right,loyalty.vice,,,,,,,,,,,,,,,,,,,,,0,3,3,2,0,14,14,14,,,,,,,,,,,,,1287.7863668915816,,,,,AMP_prac,right,1.4989177144598216,,,,,,,,,,,,,,,,,,,,,6,,,left,1.9340782484505326,,,,,,,,,,,,,,1033,2019_Jun_07_1346,mf_amp_cond1,3.0.7,59.9819357892552,
agreement,,&&&&&&&&&,images/symbols/symbol_18.png,condition_files/AMP_rep3.csv,left,fairness.virtue,,,,,,,,,,,,,,,,,,,,,0,3,3,2,0,15,15,15,,,,,,,,,,,,,1288.6199492677115,,,,,AMP_prac,right,1.4989177144598216,,,,,,,,,,,,,,,,,,,,,6,,,right,0.6151736772153527,,,,,,,,,,,,,,1033,2019_Jun_07_1346,mf_amp_cond1,3.0.7,59.9819357892552,
conspiracy,,&&&&&&&&&&,images/symbols/symbol_23.png,condition_files/AMP_rep3.csv,right,sanctity.vice,,,,,,,,,,,,,,,,,,,,,0,3,3,2,0,16,16,16,,,,,,,,,,,,,1290.0370190050453,,,,,AMP_prac,right,1.4989177144598216,,,,,,,,,,,,,,,,,,,,,6,,,left,1.1839221357367933,,,,,,,,,,,,,,1033,2019_Jun_07_1346,mf_amp_cond1,3.0.7,59.9819357892552,
benefit,,&&&&&&&,images/symbols/symbol_37.png,condition_files/AMP_rep3.csv,left,fairness.virtue,,,,,,,,,,,,,,,,,,,,,0,3,3,2,0,17,17,17,,,,,,,,,,,,,1291.5874059754424,,,,,AMP_prac,right,1.4989177144598216,,,,,,,,,,,,,,,,,,,,,6,,,right,1.331860886188224,,,,,,,,,,,,,,1033,2019_Jun_07_1346,mf_amp_cond1,3.0.7,59.9819357892552,
died,,&&&&,images/symbols/symbol_74.png,condition_files/AMP_rep3.csv,right,care.vice,,,,,,,,,,,,,,,,,,,,,0,3,3,2,0,18,18,18,,,,,,,,,,,,,1294.42148964433,,,,,AMP_prac,right,1.4989177144598216,,,,,,,,,,,,,,,,,,,,,6,,,left,2.6009219551924616,,,,,,,,,,,,,,1033,2019_Jun_07_1346,mf_amp_cond1,3.0.7,59.9819357892552,
threatened,,&&&&&&&&&&,images/symbols/symbol_5.png,condition_files/AMP_rep3.csv,right,fairness.vice,,,,,,,,,,,,,,,,,,,,,0,3,3,2,0,19,19,19,,,,,,,,,,,,,1297.5222635848913,,,,,AMP_prac,right,1.4989177144598216,,,,,,,,,,,,,,,,,,,,,6,,,right,2.8676513554528356,,,,,,,,,,,,,,1033,2019_Jun_07_1346,mf_amp_cond1,3.0.7,59.9819357892552,
corruption,,&&&&&&&&&&,images/symbols/symbol_17.png,condition_files/AMP_rep3.csv,right,sanctity.vice,,,,,,,,,,,,,,,,,,,,,0,3,3,2,0,20,20,20,,,,,,,,,,,,,1299.2727391393855,,,,,AMP_prac,right,1.4989177144598216,,,,,,,,,,,,,,,,,,,,,6,,,right,1.532152809901163,,,,,,,,,,,,,,1033,2019_Jun_07_1346,mf_amp_cond1,3.0.7,59.9819357892552,
pleasant,,&&&&&&&,images/symbols/symbol_38.png,condition_files/AMP_rep3.csv,right,control,,,,,,,,,,,,,,,,,,,,,0,3,3,2,0,21,21,21,,,,,,,,,,,,,1302.2568719272967,,,,,AMP_prac,right,1.4989177144598216,,,,,,,,,,,,,,,,,,,,,6,,,right,2.7662382104899734,,,,,,,,,,,,,,1033,2019_Jun_07_1346,mf_amp_cond1,3.0.7,59.9819357892552,
clean,,&&&&&,images/symbols/symbol_78.png,condition_files/AMP_rep3.csv,left,sanctity.virtue,,,,,,,,,,,,,,,,,,,,,0,3,3,2,0,22,22,22,,,,,,,,,,,,,1303.5738826191518,,,,,AMP_prac,right,1.4989177144598216,,,,,,,,,,,,,,,,,,,,,6,,,right,1.0991382447537035,,,,,,,,,,,,,,1033,2019_Jun_07_1346,mf_amp_cond1,3.0.7,59.9819357892552,
celebrated,,&&&&&&&&&&,images/symbols/symbol_45.png,condition_files/AMP_rep3.csv,left,authority.virtue,,,,,,,,,,,,,,,,,,,,,0,3,3,2,0,23,23,23,,,,,,,,,,,,,1304.8574959291145,,,,,AMP_prac,right,1.4989177144598216,,,,,,,,,,,,,,,,,,,,,6,,,left,1.0657010928262025,,,,,,,,,,,,,,1033,2019_Jun_07_1346,mf_amp_cond1,3.0.7,59.9819357892552,
chawde,,&&&&&&,images/symbols/symbol_31.png,condition_files/AMP_rep3.csv,None,nonword,,,,,,,,,,,,,,,,,,,,,0,3,3,2,0,24,24,24,,,,,,,,,,,,,1306.0744757994544,,,,,AMP_prac,right,1.4989177144598216,,,,,,,,,,,,,,,,,,,,,6,,,left,0.9838136665057391,,,,,,,,,,,,,,1033,2019_Jun_07_1346,mf_amp_cond1,3.0.7,59.9819357892552,
unpleasant,,&&&&&&&&&,images/symbols/symbol_43.png,condition_files/AMP_rep3.csv,left,control,,,,,,,,,,,,,,,,,,,,,0,3,3,2,0,25,25,25,,,,,,,,,,,,,1307.7082601678558,,,,,AMP_prac,right,1.4989177144598216,,,,,,,,,,,,,,,,,,,,,6,,,left,1.415585744427517,,,,,,,,,,,,,,1033,2019_Jun_07_1346,mf_amp_cond1,3.0.7,59.9819357892552,
strength,,&&&&&&&&,images/symbols/symbol_1.png,condition_files/AMP_rep3.csv,left,sanctity.virtue,,,,,,,,,,,,,,,,,,,,,0,3,3,2,0,26,26,26,,,,,,,,,,,,,1309.1586198445875,,,,,AMP_prac,right,1.4989177144598216,,,,,,,,,,,,,,,,,,,,,6,,,left,1.2324590056668967,,,,,,,,,,,,,,1033,2019_Jun_07_1346,mf_amp_cond1,3.0.7,59.9819357892552,
values,,&&&&&&,images/symbols/symbol_52.png,condition_files/AMP_rep3.csv,left,sanctity.virtue,,,,,,,,,,,,,,,,,,,,,0,3,3,2,0,27,27,27,,,,,,,,,,,,,1310.9924341046717,,,,,AMP_prac,right,1.4989177144598216,,,,,,,,,,,,,,,,,,,,,6,,,left,1.6006579985842109,,,,,,,,,,,,,,1033,2019_Jun_07_1346,mf_amp_cond1,3.0.7,59.9819357892552,
promised,,&&&&&&&&,images/symbols/symbol_71.png,condition_files/AMP_rep3.csv,left,loyalty.virtue,,,,,,,,,,,,,,,,,,,,,0,3,3,2,0,28,28,28,,,,,,,,,,,,,1312.2428495232016,,,,,AMP_prac,right,1.4989177144598216,,,,,,,,,,,,,,,,,,,,,6,,,left,1.0320105685386807,,,,,,,,,,,,,,1033,2019_Jun_07_1346,mf_amp_cond1,3.0.7,59.9819357892552,
noost,,&&&&&,images/symbols/symbol_9.png,condition_files/AMP_rep3.csv,None,nonword,,,,,,,,,,,,,,,,,,,,,0,3,3,2,0,29,29,29,,,,,,,,,,,,,1313.4931004100945,,,,,AMP_prac,right,1.4989177144598216,,,,,,,,,,,,,,,,,,,,,6,,,left,1.0323059558868408,,,,,,,,,,,,,,1033,2019_Jun_07_1346,mf_amp_cond1,3.0.7,59.9819357892552,
victim,,&&&&&&,images/symbols/symbol_65.png,condition_files/AMP_rep3.csv,right,care.vice,,,,,,,,,,,,,,,,,,,,,0,3,3,2,0,30,30,30,,,,,,,,,,,,,1314.8601791118272,,,,,AMP_prac,right,1.4989177144598216,,,,,,,,,,,,,,,,,,,,,6,,,left,1.1491619944572449,,,,,,,,,,,,,,1033,2019_Jun_07_1346,mf_amp_cond1,3.0.7,59.9819357892552,
shot,,&&&&,images/symbols/symbol_77.png,condition_files/AMP_rep3.csv,right,care.vice,,,,,,,,,,,,,,,,,,,,,0,3,3,2,0,31,31,31,,,,,,,,,,,,,1316.4439410136547,,,,,AMP_prac,right,1.4989177144598216,,,,,,,,,,,,,,,,,,,,,6,,,left,1.3659407703671604,,,,,,,,,,,,,,1033,2019_Jun_07_1346,mf_amp_cond1,3.0.7,59.9819357892552,
black,,&&&&&,images/symbols/symbol_47.png,condition_files/AMP_rep3.csv,right,loyalty.vice,,,,,,,,,,,,,,,,,,,,,0,3,3,2,0,32,32,32,,,,,,,,,,,,,1317.5608858929481,,,,,AMP_prac,right,1.4989177144598216,,,,,,,,,,,,,,,,,,,,,6,,,right,0.8991795543115586,,,,,,,,,,,,,,1033,2019_Jun_07_1346,mf_amp_cond1,3.0.7,59.9819357892552,
safety,,&&&&&&,images/symbols/symbol_36.png,condition_files/AMP_rep3.csv,left,care.virtue,,,,,,,,,,,,,,,,,,,,,0,3,3,2,0,33,33,33,,,,,,,,,,,,,1319.3280067376327,,,,,AMP_prac,right,1.4989177144598216,,,,,,,,,,,,,,,,,,,,,6,,,right,1.5493250510189682,,,,,,,,,,,,,,1033,2019_Jun_07_1346,mf_amp_cond1,3.0.7,59.9819357892552,
increase,,&&&&&&&&,images/symbols/symbol_76.png,condition_files/AMP_rep3.csv,left,care.virtue,,,,,,,,,,,,,,,,,,,,,0,3,3,2,0,34,34,34,,,,,,,,,,,,,1323.2290464951657,,,,,AMP_prac,right,1.4989177144598216,,,,,,,,,,,,,,,,,,,,,6,,,left,3.6832561509218067,,,,,,,,,,,,,,1033,2019_Jun_07_1346,mf_amp_cond1,3.0.7,59.9819357892552,
friends,,&&&&&&&,images/symbols/symbol_13.png,condition_files/AMP_rep3.csv,left,loyalty.virtue,,,,,,,,,,,,,,,,,,,,,0,3,3,2,0,35,35,35,,,,,,,,,,,,,1324.2126298814546,,,,,AMP_prac,right,1.4989177144598216,,,,,,,,,,,,,,,,,,,,,6,,,right,0.7658151749055833,,,,,,,,,,,,,,1033,2019_Jun_07_1346,mf_amp_cond1,3.0.7,59.9819357892552,
rejected,,&&&&&&&&,images/symbols/symbol_69.png,condition_files/AMP_rep3.csv,right,authority.vice,,,,,,,,,,,,,,,,,,,,,0,3,3,2,0,36,36,36,,,,,,,,,,,,,1325.4129506703466,,,,,AMP_prac,right,1.4989177144598216,,,,,,,,,,,,,,,,,,,,,6,,,left,0.9671808846760541,,,,,,,,,,,,,,1033,2019_Jun_07_1346,mf_amp_cond1,3.0.7,59.9819357892552,
gun,,&&&,images/symbols/symbol_50.png,condition_files/AMP_rep3.csv,right,authority.vice,,,,,,,,,,,,,,,,,,,,,0,3,3,2,0,37,37,37,,,,,,,,,,,,,1326.8466467752587,,,,,AMP_prac,right,1.4989177144598216,,,,,,,,,,,,,,,,,,,,,6,,,right,1.2151555884629488,,,,,,,,,,,,,,1033,2019_Jun_07_1346,mf_amp_cond1,3.0.7,59.9819357892552,
sharing,,&&&&&&&,images/symbols/symbol_62.png,condition_files/AMP_rep3.csv,left,loyalty.virtue,,,,,,,,,,,,,,,,,,,,,0,3,3,2,0,38,38,38,,,,,,,,,,,,,1328.5637724150438,,,,,AMP_prac,right,1.4989177144598216,,,,,,,,,,,,,,,,,,,,,6,,,left,1.4839687370695174,,,,,,,,,,,,,,1033,2019_Jun_07_1346,mf_amp_cond1,3.0.7,59.9819357892552,
death,,&&&&&,images/symbols/symbol_35.png,condition_files/AMP_rep3.csv,right,care.vice,,,,,,,,,,,,,,,,,,,,,0,3,3,2,0,39,39,39,,,,,,,,,,,,,1329.3306337937247,,,,,AMP_prac,right,1.4989177144598216,,,,,,,,,,,,,,,,,,,,,6,,,left,0.5483757059555501,,,,,,,,,,,,,,1033,2019_Jun_07_1346,mf_amp_cond1,3.0.7,59.9819357892552,
scourld,,&&&&&&&,images/symbols/symbol_4.png,condition_files/AMP_rep3.csv,None,nonword,,,,,,,,,,,,,,,,,,,,,0,3,3,2,0,40,40,40,,,,,,,,,,,,,1329.9974765381776,,,,,AMP_prac,right,1.4989177144598216,,,,,,,,,,,,,,,,,,,,,6,,,left,0.4489481672644615,,,,,,,,,,,,,,1033,2019_Jun_07_1346,mf_amp_cond1,3.0.7,59.9819357892552,
protesters,,&&&&&&&&&&,images/symbols/symbol_19.png,condition_files/AMP_rep3.csv,right,authority.vice,,,,,,,,,,,,,,,,,,,,,0,3,3,2,0,41,41,41,,,,,,,,,,,,,1330.580977690639,,,,,AMP_prac,right,1.4989177144598216,,,,,,,,,,,,,,,,,,,,,6,,,left,0.36563255405053496,,,,,,,,,,,,,,1033,2019_Jun_07_1346,mf_amp_cond1,3.0.7,59.9819357892552,
harassment,,&&&&&&&&&&,images/symbols/symbol_54.png,condition_files/AMP_rep3.csv,right,sanctity.vice,,,,,,,,,,,,,,,,,,,,,0,3,3,2,0,42,42,42,,,,,,,,,,,,,1331.481198637979,,,,,AMP_prac,right,1.4989177144598216,,,,,,,,,,,,,,,,,,,,,6,,,left,0.667096758261323,,,,,,,,,,,,,,1033,2019_Jun_07_1346,mf_amp_cond1,3.0.7,59.9819357892552,
victims,,&&&&&&&,images/symbols/symbol_56.png,condition_files/AMP_rep3.csv,right,care.vice,,,,,,,,,,,,,,,,,,,,,0,3,3,2,0,43,43,43,,,,,,,,,,,,,1332.2480776563752,,,,,AMP_prac,right,1.4989177144598216,,,,,,,,,,,,,,,,,,,,,6,,,right,0.548399118706584,,,,,,,,,,,,,,1033,2019_Jun_07_1346,mf_amp_cond1,3.0.7,59.9819357892552,
useful,,&&&&&&,images/symbols/symbol_82.png,condition_files/AMP_rep3.csv,left,authority.virtue,,,,,,,,,,,,,,,,,,,,,0,3,3,2,0,44,44,44,,,,,,,,,,,,,1333.1816443488933,,,,,AMP_prac,right,1.4989177144598216,,,,,,,,,,,,,,,,,,,,,6,,,left,0.7161240165587515,,,,,,,,,,,,,,1033,2019_Jun_07_1346,mf_amp_cond1,3.0.7,59.9819357892552,
compassion,,&&&&&&&&&&,images/symbols/symbol_15.png,condition_files/AMP_rep3.csv,left,care.virtue,,,,,,,,,,,,,,,,,,,,,0,3,3,2,0,45,45,45,,,,,,,,,,,,,1334.231953223003,,,,,AMP_prac,right,1.4989177144598216,,,,,,,,,,,,,,,,,,,,,6,,,left,0.8323764512315392,,,,,,,,,,,,,,1033,2019_Jun_07_1346,mf_amp_cond1,3.0.7,59.9819357892552,
hate,,&&&&,images/symbols/symbol_46.png,condition_files/AMP_rep3.csv,right,fairness.vice,,,,,,,,,,,,,,,,,,,,,0,3,3,2,0,46,46,46,,,,,,,,,,,,,1335.782365851337,,,,,AMP_prac,right,1.4989177144598216,,,,,,,,,,,,,,,,,,,,,6,,,right,1.3326517934910953,,,,,,,,,,,,,,1033,2019_Jun_07_1346,mf_amp_cond1,3.0.7,59.9819357892552,
