words,masks,symbols,conditionfile,corr_ans,category,mask,LDT_trials_cond2.thisRepN,LDT_trials_cond2.thisTrialN,LDT_trials_cond2.thisN,LDT_trials_cond2.thisIndex,logo_trials.thisRepN,logo_trials.thisTrialN,logo_trials.thisN,logo_trials.thisIndex,AMP_pracs.thisRepN,AMP_pracs.thisTrialN,AMP_pracs.thisN,AMP_pracs.thisIndex,trials_loop.thisRepN,trials_loop.thisTrialN,trials_loop.thisN,trials_loop.thisIndex,AMP_trials.thisRepN,AMP_trials.thisTrialN,AMP_trials.thisN,AMP_trials.thisIndex,memtask_trials.thisRepN,memtask_trials.thisTrialN,memtask_trials.thisN,memtask_trials.thisIndex,LDT_cond1.thisRepN,LDT_cond1.thisTrialN,LDT_cond1.thisN,LDT_cond1.thisIndex,LDT_pracs.thisRepN,LDT_pracs.thisTrialN,LDT_pracs.thisN,LDT_pracs.thisIndex,LDT_trials.thisRepN,LDT_trials.thisTrialN,LDT_trials.thisN,LDT_trials.thisIndex,begin_key.keys,begin_key.rt,key_resp_instr.keys,key_resp_instr.rt,exp_time,resp_sym_rate.keys,resp_sym_rate.rt,sym_resp_1.keys,sym_resp_1.rt,sym_resp_2.keys,sym_resp_2.rt,sym_resp_trial.keys,sym_resp_trial.rt,symbol_index,resp_AMP_ready1.keys,resp_AMP_ready1.rt,resp_AMP.keys,resp_AMP.rt,task,keypress,RT,prime_dur,resp_AMP_ready.keys,resp_AMP_ready.rt,resp_AMP_trials.keys,resp_AMP_trials.rt,rest_key_resp.keys,rest_key_resp.rt,AMP_nonword_rating.response,AMP_nonword_rating.rt,AMP_word_rating.response,AMP_word_rating.rt,AMP_random_rating.response,AMP_random_rating.rt,key_resp_instr_memtask.keys,key_resp_instr_memtask.rt,resp_memtask.keys,resp_memtask.corr,resp_memtask.rt,corr,key_resp_LDT_instr.keys,key_resp_LDT_instr.rt,resp_LDT_prac.keys,resp_LDT_prac.rt,resp_LDT_ready.keys,resp_LDT_ready.rt,resp_LDT_trial.keys,resp_LDT_trial.rt,LDT_rating.response,LDT_rating.rt,participant ID,date,expName,psychopyVersion,frameRate,
,,,,,,,,,,,,,,,,,,,,,,,,,,,,,,,,,,,,,,,,,,,right,133.03883059229702,,,,,,,,,,,,,,,,,,,,,,,,,,,,,,,,,,,,,,,,,,,,,,,,,1034,2019_Jun_07_1352,mf_amp_cond1,3.0.7,59.98578201838819,
,,,,,,,,,,,,,,,,,,,,,,,,,,,,,,,,,,,,,,,,,,,,,right,0.40035043377429247,,,,,,,,,,,,,,,,,,,,,,,,,,,,,,,,,,,,,,,,,,,,,,,1034,2019_Jun_07_1352,mf_amp_cond1,3.0.7,59.98578201838819,
,,,,,,,,,,,,,,,,,,,,,,,,,,,,,,,,,,,,,,,,,,,,,,,171.47628542827442,right,1.8841073545627296,,,,,,,,,,,,,,,,,,,,,,,,,,,,,,,,,,,,,,,,,,,,1034,2019_Jun_07_1352,mf_amp_cond1,3.0.7,59.98578201838819,
,,,,,,,,,,,,,,,,,,,,,,,,,,,,,,,,,,,,,,,,,,,,,,,235.3781986371614,,,left,2.767718534450978,,,,,,,,,,,,,,,,,,,,,,,,,,,,,,,,,,,,,,,,,,1034,2019_Jun_07_1352,mf_amp_cond1,3.0.7,59.98578201838819,
,,,,,,,,,,,,,,,,,,,,,,,,,,,,,,,,,,,,,,,,,,,,,,,,,,,,right,1.5507004666142166,,,,,,,,,,,,,,,,,,,,,,,,,,,,,,,,,,,,,,,,1034,2019_Jun_07_1352,mf_amp_cond1,3.0.7,59.98578201838819,
,,,,,,,,,,,,,,,,,,,,,,,,,,,,,,,,,,,,,,,,,,,,,,,255.734125203453,,,,,,,left,0.7482406948693097,66,right,1.5673398119397461,,,,,,,,,,,,,,,,,,,,,,,,,,,,,,,,,,,1034,2019_Jun_07_1352,mf_amp_cond1,3.0.7,59.98578201838819,
keyboard,&&&&&&&&,images/symbols/symbol_40.png,,,,,,,,,,,,,0,0,0,2,,,,,,,,,,,,,,,,,,,,,,,,,,,,,403.97759738983586,,,,,,,,,,,,left,2.400962393730879,AMP_prac,left,2.400962393730879,3,,,,,,,,,,,,,,,,,,,,,,,,,,,,,1034,2019_Jun_07_1352,mf_amp_cond1,3.0.7,59.98578201838819,
car,&&&,images/symbols/symbol_9.png,,,,,,,,,,,,,0,1,1,0,,,,,,,,,,,,,,,,,,,,,,,,,,,,,405.5445936960168,,,,,,,,,,,,right,1.3489377782680094,AMP_prac,right,1.3489377782680094,3,,,,,,,,,,,,,,,,,,,,,,,,,,,,,1034,2019_Jun_07_1352,mf_amp_cond1,3.0.7,59.98578201838819,
scarf,&&&&&,images/symbols/symbol_54.png,,,,,,,,,,,,,0,2,2,3,,,,,,,,,,,,,,,,,,,,,,,,,,,,,406.6782530657947,,,,,,,,,,,,left,0.9005231489427388,AMP_prac,left,0.9005231489427388,3,,,,,,,,,,,,,,,,,,,,,,,,,,,,,1034,2019_Jun_07_1352,mf_amp_cond1,3.0.7,59.98578201838819,
banana,&&&&&&,images/symbols/symbol_68.png,,,,,,,,,,,,,0,3,3,1,,,,,,,,,,,,,,,,,,,,,,,,,,,,,408.16199138434604,,,,,,,,,,,,right,1.2506101159378886,AMP_prac,right,1.2506101159378886,3,,,,,,,,,,,,,,,,,,,,,,,,,,,,,1034,2019_Jun_07_1352,mf_amp_cond1,3.0.7,59.98578201838819,
,,,,,,,,,,,,,,,,,,,,,,,,,,,,,,,,,,,,,,,,,,,,,,,,,,,,,,,,,,,,,,,,,right,1.4339751964434981,,,,,,,,,,,,,,,,,,,,,,,,,,,1034,2019_Jun_07_1352,mf_amp_cond1,3.0.7,59.98578201838819,
fear,&&&&,images/symbols/symbol_31.png,condition_files/AMP_rep1.csv,right,sanctity.vice,,,,,,,,,,,,,,0,0,0,0,0,0,0,0,,,,,,,,,,,,,,,,,,,,,431.6523037822917,,,,,,,,,,,,,,AMP_prac,right,1.2506101159378886,3,,,left,1.7841045004315674,,,,,,,,,,,,,,,,,,,,,,,,,1034,2019_Jun_07_1352,mf_amp_cond1,3.0.7,59.98578201838819,
stroad,&&&&&&,images/symbols/symbol_63.png,condition_files/AMP_rep1.csv,None,nonword,,,,,,,,,,,,,,0,0,0,0,0,1,1,1,,,,,,,,,,,,,,,,,,,,,432.7191469380632,,,,,,,,,,,,,,AMP_prac,right,1.2506101159378886,3,,,left,0.8338236818090081,,,,,,,,,,,,,,,,,,,,,,,,,1034,2019_Jun_07_1352,mf_amp_cond1,3.0.7,59.98578201838819,
lies,&&&&,images/symbols/symbol_17.png,condition_files/AMP_rep1.csv,right,fairness.vice,,,,,,,,,,,,,,0,0,0,0,0,2,2,2,,,,,,,,,,,,,,,,,,,,,433.50270041730255,,,,,,,,,,,,,,AMP_prac,right,1.2506101159378886,3,,,left,0.550420786254108,,,,,,,,,,,,,,,,,,,,,,,,,1034,2019_Jun_07_1352,mf_amp_cond1,3.0.7,59.98578201838819,
drug,&&&&,images/symbols/symbol_48.png,condition_files/AMP_rep1.csv,right,sanctity.vice,,,,,,,,,,,,,,0,0,0,0,0,3,3,3,,,,,,,,,,,,,,,,,,,,,434.7530581159517,,,,,,,,,,,,,,AMP_prac,right,1.2506101159378886,3,,,left,1.0320913344621658,,,,,,,,,,,,,,,,,,,,,,,,,1034,2019_Jun_07_1352,mf_amp_cond1,3.0.7,59.98578201838819,
civilians,&&&&&&&&&,images/symbols/symbol_80.png,condition_files/AMP_rep1.csv,right,care.vice,,,,,,,,,,,,,,0,0,0,0,0,4,4,4,,,,,,,,,,,,,,,,,,,,,435.8367019458674,,,,,,,,,,,,,,AMP_prac,right,1.2506101159378886,3,,,left,0.8663666094653308,,,,,,,,,,,,,,,,,,,,,,,,,1034,2019_Jun_07_1352,mf_amp_cond1,3.0.7,59.98578201838819,
strength,&&&&&&&&,images/symbols/symbol_67.png,condition_files/AMP_rep1.csv,left,sanctity.virtue,,,,,,,,,,,,,,0,0,0,0,0,5,5,5,,,,,,,,,,,,,,,,,,,,,436.95369342528284,,,,,,,,,,,,,,AMP_prac,right,1.2506101159378886,3,,,left,0.899079526308924,,,,,,,,,,,,,,,,,,,,,,,,,1034,2019_Jun_07_1352,mf_amp_cond1,3.0.7,59.98578201838819,
failure,&&&&&&&,images/symbols/symbol_19.png,condition_files/AMP_rep1.csv,right,loyalty.vice,,,,,,,,,,,,,,0,0,0,0,0,6,6,6,,,,,,,,,,,,,,,,,,,,,437.78721401374787,,,,,,,,,,,,,,AMP_prac,right,1.2506101159378886,3,,,left,0.6161093008704484,,,,,,,,,,,,,,,,,,,,,,,,,1034,2019_Jun_07_1352,mf_amp_cond1,3.0.7,59.98578201838819,
interests,&&&&&&&&&,images/symbols/symbol_68.png,condition_files/AMP_rep1.csv,left,fairness.virtue,,,,,,,,,,,,,,0,0,0,0,0,7,7,7,,,,,,,,,,,,,,,,,,,,,438.704238913022,,,,,,,,,,,,,,AMP_prac,right,1.2506101159378886,3,,,right,0.6838203622028232,,,,,,,,,,,,,,,,,,,,,,,,,1034,2019_Jun_07_1352,mf_amp_cond1,3.0.7,59.98578201838819,
party,&&&&&,images/symbols/symbol_7.png,condition_files/AMP_rep1.csv,left,loyalty.virtue,,,,,,,,,,,,,,0,0,0,0,0,8,8,8,,,,,,,,,,,,,,,,,,,,,439.5877997376956,,,,,,,,,,,,,,AMP_prac,right,1.2506101159378886,3,,,right,0.6656071762554348,,,,,,,,,,,,,,,,,,,,,,,,,1034,2019_Jun_07_1352,mf_amp_cond1,3.0.7,59.98578201838819,
protesters,&&&&&&&&&&,images/symbols/symbol_51.png,condition_files/AMP_rep1.csv,right,authority.vice,,,,,,,,,,,,,,0,0,0,0,0,9,9,9,,,,,,,,,,,,,,,,,,,,,441.2049286509864,,,,,,,,,,,,,,AMP_prac,right,1.2506101159378886,3,,,right,1.3998183365911245,,,,,,,,,,,,,,,,,,,,,,,,,1034,2019_Jun_07_1352,mf_amp_cond1,3.0.7,59.98578201838819,
powerful,&&&&&&&&,images/symbols/symbol_41.png,condition_files/AMP_rep1.csv,left,authority.virtue,,,,,,,,,,,,,,0,0,0,0,0,10,10,10,,,,,,,,,,,,,,,,,,,,,442.4219704531133,,,,,,,,,,,,,,AMP_prac,right,1.2506101159378886,3,,,left,0.9998537451028824,,,,,,,,,,,,,,,,,,,,,,,,,1034,2019_Jun_07_1352,mf_amp_cond1,3.0.7,59.98578201838819,
progress,&&&&&&&&,images/symbols/symbol_15.png,condition_files/AMP_rep1.csv,left,authority.virtue,,,,,,,,,,,,,,0,0,0,0,0,11,11,11,,,,,,,,,,,,,,,,,,,,,443.82238920312375,,,,,,,,,,,,,,AMP_prac,right,1.2506101159378886,3,,,left,1.1826934642158449,,,,,,,,,,,,,,,,,,,,,,,,,1034,2019_Jun_07_1352,mf_amp_cond1,3.0.7,59.98578201838819,
died,&&&&,images/symbols/symbol_37.png,condition_files/AMP_rep1.csv,right,care.vice,,,,,,,,,,,,,,0,0,0,0,0,12,12,12,,,,,,,,,,,,,,,,,,,,,444.68928983435035,,,,,,,,,,,,,,AMP_prac,right,1.2506101159378886,3,,,left,0.6337817297317088,,,,,,,,,,,,,,,,,,,,,,,,,1034,2019_Jun_07_1352,mf_amp_cond1,3.0.7,59.98578201838819,
benefit,&&&&&&&,images/symbols/symbol_36.png,condition_files/AMP_rep1.csv,left,fairness.virtue,,,,,,,,,,,,,,0,0,0,0,0,13,13,13,,,,,,,,,,,,,,,,,,,,,445.47286127507687,,,,,,,,,,,,,,AMP_prac,right,1.2506101159378886,3,,,right,0.5657056733034551,,,,,,,,,,,,,,,,,,,,,,,,,1034,2019_Jun_07_1352,mf_amp_cond1,3.0.7,59.98578201838819,
values,&&&&&&,images/symbols/symbol_23.png,condition_files/AMP_rep1.csv,left,sanctity.virtue,,,,,,,,,,,,,,0,0,0,0,0,14,14,14,,,,,,,,,,,,,,,,,,,,,446.43980100378394,,,,,,,,,,,,,,AMP_prac,right,1.2506101159378886,3,,,left,0.7490425296127796,,,,,,,,,,,,,,,,,,,,,,,,,1034,2019_Jun_07_1352,mf_amp_cond1,3.0.7,59.98578201838819,
win,&&&,images/symbols/symbol_60.png,condition_files/AMP_rep1.csv,left,fairness.virtue,,,,,,,,,,,,,,0,0,0,0,0,15,15,15,,,,,,,,,,,,,,,,,,,,,447.9735673703253,,,,,,,,,,,,,,AMP_prac,right,1.2506101159378886,3,,,right,1.300593581981957,,,,,,,,,,,,,,,,,,,,,,,,,1034,2019_Jun_07_1352,mf_amp_cond1,3.0.7,59.98578201838819,
peace,&&&&&,images/symbols/symbol_12.png,condition_files/AMP_rep1.csv,left,care.virtue,,,,,,,,,,,,,,0,0,0,0,0,16,16,16,,,,,,,,,,,,,,,,,,,,,448.8404817930423,,,,,,,,,,,,,,AMP_prac,right,1.2506101159378886,3,,,right,0.6489771320484579,,,,,,,,,,,,,,,,,,,,,,,,,1034,2019_Jun_07_1352,mf_amp_cond1,3.0.7,59.98578201838819,
spreussed,&&&&&&&&&,images/symbols/symbol_28.png,condition_files/AMP_rep1.csv,None,nonword,,,,,,,,,,,,,,0,0,0,0,0,17,17,17,,,,,,,,,,,,,,,,,,,,,449.72407180443406,,,,,,,,,,,,,,AMP_prac,right,1.2506101159378886,3,,,left,0.6658570277504623,,,,,,,,,,,,,,,,,,,,,,,,,1034,2019_Jun_07_1352,mf_amp_cond1,3.0.7,59.98578201838819,
wraize,&&&&&&,images/symbols/symbol_66.png,condition_files/AMP_rep1.csv,None,nonword,,,,,,,,,,,,,,0,0,0,0,0,18,18,18,,,,,,,,,,,,,,,,,,,,,450.69102500379086,,,,,,,,,,,,,,AMP_prac,right,1.2506101159378886,3,,,left,0.749334076885134,,,,,,,,,,,,,,,,,,,,,,,,,1034,2019_Jun_07_1352,mf_amp_cond1,3.0.7,59.98578201838819,
arrests,&&&&&&&,images/symbols/symbol_18.png,condition_files/AMP_rep1.csv,right,authority.vice,,,,,,,,,,,,,,0,0,0,0,0,19,19,19,,,,,,,,,,,,,,,,,,,,,451.62463183747604,,,,,,,,,,,,,,AMP_prac,right,1.2506101159378886,3,,,left,0.7160563478246331,,,,,,,,,,,,,,,,,,,,,,,,,1034,2019_Jun_07_1352,mf_amp_cond1,3.0.7,59.98578201838819,
torture,&&&&&&&,images/symbols/symbol_21.png,condition_files/AMP_rep1.csv,right,care.vice,,,,,,,,,,,,,,0,0,0,0,0,20,20,20,,,,,,,,,,,,,,,,,,,,,453.10839581489563,,,,,,,,,,,,,,AMP_prac,right,1.2506101159378886,3,,,left,1.2662548660300672,,,,,,,,,,,,,,,,,,,,,,,,,1034,2019_Jun_07_1352,mf_amp_cond1,3.0.7,59.98578201838819,
energy,&&&&&&,images/symbols/symbol_35.png,condition_files/AMP_rep1.csv,left,sanctity.virtue,,,,,,,,,,,,,,0,0,0,0,0,21,21,21,,,,,,,,,,,,,,,,,,,,,454.0586631624028,,,,,,,,,,,,,,AMP_prac,right,1.2506101159378886,3,,,right,0.732596586458385,,,,,,,,,,,,,,,,,,,,,,,,,1034,2019_Jun_07_1352,mf_amp_cond1,3.0.7,59.98578201838819,
growth,&&&&&&,images/symbols/symbol_54.png,condition_files/AMP_rep1.csv,left,care.virtue,,,,,,,,,,,,,,0,0,0,0,0,22,22,22,,,,,,,,,,,,,,,,,,,,,455.02561507886276,,,,,,,,,,,,,,AMP_prac,right,1.2506101159378886,3,,,right,0.7490543969906867,,,,,,,,,,,,,,,,,,,,,,,,,1034,2019_Jun_07_1352,mf_amp_cond1,3.0.7,59.98578201838819,
conspiracy,&&&&&&&&&&,images/symbols/symbol_79.png,condition_files/AMP_rep1.csv,right,sanctity.vice,,,,,,,,,,,,,,0,0,0,0,0,23,23,23,,,,,,,,,,,,,,,,,,,,,456.0258674961515,,,,,,,,,,,,,,AMP_prac,right,1.2506101159378886,3,,,left,0.7825534315779805,,,,,,,,,,,,,,,,,,,,,,,,,1034,2019_Jun_07_1352,mf_amp_cond1,3.0.7,59.98578201838819,
accused,&&&&&&&,images/symbols/symbol_69.png,condition_files/AMP_rep1.csv,right,fairness.vice,,,,,,,,,,,,,,0,0,0,0,0,24,24,24,,,,,,,,,,,,,,,,,,,,,456.82614146731794,,,,,,,,,,,,,,AMP_prac,right,1.2506101159378886,3,,,left,0.5823373217135668,,,,,,,,,,,,,,,,,,,,,,,,,1034,2019_Jun_07_1352,mf_amp_cond1,3.0.7,59.98578201838819,
embrace,&&&&&&&,images/symbols/symbol_39.png,condition_files/AMP_rep1.csv,left,authority.virtue,,,,,,,,,,,,,,0,0,0,0,0,25,25,25,,,,,,,,,,,,,,,,,,,,,457.54299740400165,,,,,,,,,,,,,,AMP_prac,right,1.2506101159378886,3,,,right,0.4994125757366419,,,,,,,,,,,,,,,,,,,,,,,,,1034,2019_Jun_07_1352,mf_amp_cond1,3.0.7,59.98578201838819,
prison,&&&&&&,images/symbols/symbol_22.png,condition_files/AMP_rep1.csv,right,fairness.vice,,,,,,,,,,,,,,0,0,0,0,0,26,26,26,,,,,,,,,,,,,,,,,,,,,458.47661899169907,,,,,,,,,,,,,,AMP_prac,right,1.2506101159378886,3,,,left,0.7162542403675616,,,,,,,,,,,,,,,,,,,,,,,,,1034,2019_Jun_07_1352,mf_amp_cond1,3.0.7,59.98578201838819,
terrorists,&&&&&&&&&&,images/symbols/symbol_46.png,condition_files/AMP_rep1.csv,right,fairness.vice,,,,,,,,,,,,,,0,0,0,0,0,27,27,27,,,,,,,,,,,,,,,,,,,,,459.5102476030588,,,,,,,,,,,,,,AMP_prac,right,1.2506101159378886,3,,,left,0.8160685035400093,,,,,,,,,,,,,,,,,,,,,,,,,1034,2019_Jun_07_1352,mf_amp_cond1,3.0.7,59.98578201838819,
protect,&&&&&&&,images/symbols/symbol_6.png,condition_files/AMP_rep1.csv,left,fairness.virtue,,,,,,,,,,,,,,0,0,0,0,0,28,28,28,,,,,,,,,,,,,,,,,,,,,461.3941368586384,,,,,,,,,,,,,,AMP_prac,right,1.2506101159378886,3,,,right,1.6507389224134386,,,,,,,,,,,,,,,,,,,,,,,,,1034,2019_Jun_07_1352,mf_amp_cond1,3.0.7,59.98578201838819,
promote,&&&&&&&,images/symbols/symbol_24.png,condition_files/AMP_rep1.csv,left,sanctity.virtue,,,,,,,,,,,,,,0,0,0,0,0,29,29,29,,,,,,,,,,,,,,,,,,,,,462.2943915533833,,,,,,,,,,,,,,AMP_prac,right,1.2506101159378886,3,,,right,0.6821150206960738,,,,,,,,,,,,,,,,,,,,,,,,,1034,2019_Jun_07_1352,mf_amp_cond1,3.0.7,59.98578201838819,
suicide,&&&&&&&,images/symbols/symbol_75.png,condition_files/AMP_rep1.csv,right,care.vice,,,,,,,,,,,,,,0,0,0,0,0,30,30,30,,,,,,,,,,,,,,,,,,,,,463.22799357632175,,,,,,,,,,,,,,AMP_prac,right,1.2506101159378886,3,,,left,0.7004459160380065,,,,,,,,,,,,,,,,,,,,,,,,,1034,2019_Jun_07_1352,mf_amp_cond1,3.0.7,59.98578201838819,
officers,&&&&&&&&,images/symbols/symbol_45.png,condition_files/AMP_rep1.csv,right,authority.vice,,,,,,,,,,,,,,0,0,0,0,0,31,31,31,,,,,,,,,,,,,,,,,,,,,464.17827728111297,,,,,,,,,,,,,,AMP_prac,right,1.2506101159378886,3,,,left,0.7322922102175653,,,,,,,,,,,,,,,,,,,,,,,,,1034,2019_Jun_07_1352,mf_amp_cond1,3.0.7,59.98578201838819,
jipte,&&&&&,images/symbols/symbol_58.png,condition_files/AMP_rep1.csv,None,nonword,,,,,,,,,,,,,,0,0,0,0,0,32,32,32,,,,,,,,,,,,,,,,,,,,,465.92879005428404,,,,,,,,,,,,,,AMP_prac,right,1.2506101159378886,3,,,left,1.5327977510169148,,,,,,,,,,,,,,,,,,,,,,,,,1034,2019_Jun_07_1352,mf_amp_cond1,3.0.7,59.98578201838819,
peaceful,&&&&&&&&,images/symbols/symbol_40.png,condition_files/AMP_rep1.csv,left,authority.virtue,,,,,,,,,,,,,,0,0,0,0,0,33,33,33,,,,,,,,,,,,,,,,,,,,,466.67904174979776,,,,,,,,,,,,,,AMP_prac,right,1.2506101159378886,3,,,right,0.5324170398525894,,,,,,,,,,,,,,,,,,,,,,,,,1034,2019_Jun_07_1352,mf_amp_cond1,3.0.7,59.98578201838819,
gryssed,&&&&&&&,images/symbols/symbol_10.png,condition_files/AMP_rep1.csv,None,nonword,,,,,,,,,,,,,,0,0,0,0,0,34,34,34,,,,,,,,,,,,,,,,,,,,,468.14609389565885,,,,,,,,,,,,,,AMP_prac,right,1.2506101159378886,3,,,right,1.2493489906191826,,,,,,,,,,,,,,,,,,,,,,,,,1034,2019_Jun_07_1352,mf_amp_cond1,3.0.7,59.98578201838819,
riot,&&&&,images/symbols/symbol_16.png,condition_files/AMP_rep1.csv,right,authority.vice,,,,,,,,,,,,,,0,0,0,0,0,35,35,35,,,,,,,,,,,,,,,,,,,,,468.9296666192822,,,,,,,,,,,,,,AMP_prac,right,1.2506101159378886,3,,,left,0.5661822836846113,,,,,,,,,,,,,,,,,,,,,,,,,1034,2019_Jun_07_1352,mf_amp_cond1,3.0.7,59.98578201838819,
violations,&&&&&&&&&&,images/symbols/symbol_64.png,condition_files/AMP_rep1.csv,right,sanctity.vice,,,,,,,,,,,,,,0,0,0,0,0,36,36,36,,,,,,,,,,,,,,,,,,,,,469.82996236812323,,,,,,,,,,,,,,AMP_prac,right,1.2506101159378886,3,,,left,0.6823616651818156,,,,,,,,,,,,,,,,,,,,,,,,,1034,2019_Jun_07_1352,mf_amp_cond1,3.0.7,59.98578201838819,
agreement,&&&&&&&&&,images/symbols/symbol_47.png,condition_files/AMP_rep1.csv,left,fairness.virtue,,,,,,,,,,,,,,0,0,0,0,0,37,37,37,,,,,,,,,,,,,,,,,,,,,470.9469012469053,,,,,,,,,,,,,,AMP_prac,right,1.2506101159378886,3,,,right,0.8992212903685868,,,,,,,,,,,,,,,,,,,,,,,,,1034,2019_Jun_07_1352,mf_amp_cond1,3.0.7,59.98578201838819,
troops,&&&&&&,images/symbols/symbol_29.png,condition_files/AMP_rep1.csv,right,loyalty.vice,,,,,,,,,,,,,,0,0,0,0,0,38,38,38,,,,,,,,,,,,,,,,,,,,,471.8971891212277,,,,,,,,,,,,,,AMP_prac,right,1.2506101159378886,3,,,left,0.7324163345620036,,,,,,,,,,,,,,,,,,,,,,,,,1034,2019_Jun_07_1352,mf_amp_cond1,3.0.7,59.98578201838819,
prosecution,&&&&&&&&&&&,images/symbols/symbol_82.png,condition_files/AMP_rep1.csv,right,authority.vice,,,,,,,,,,,,,,0,0,0,0,0,39,39,39,,,,,,,,,,,,,,,,,,,,,475.3315177662298,,,,,,,,,,,,,,AMP_prac,right,1.2506101159378886,3,,,right,3.2169968993403018,,,,,,,,,,,,,,,,,,,,,,,,,1034,2019_Jun_07_1352,mf_amp_cond1,3.0.7,59.98578201838819,
increase,&&&&&&&&,images/symbols/symbol_8.png,condition_files/AMP_rep1.csv,left,care.virtue,,,,,,,,,,,,,,0,0,0,0,0,40,40,40,,,,,,,,,,,,,,,,,,,,,477.0654428321868,,,,,,,,,,,,,,AMP_prac,right,1.2506101159378886,3,,,right,1.5161224831826985,,,,,,,,,,,,,,,,,,,,,,,,,1034,2019_Jun_07_1352,mf_amp_cond1,3.0.7,59.98578201838819,
ensure,&&&&&&,images/symbols/symbol_59.png,condition_files/AMP_rep1.csv,left,fairness.virtue,,,,,,,,,,,,,,0,0,0,0,0,41,41,41,,,,,,,,,,,,,,,,,,,,,477.9322732225992,,,,,,,,,,,,,,AMP_prac,right,1.2506101159378886,3,,,right,0.6337454868480563,,,,,,,,,,,,,,,,,,,,,,,,,1034,2019_Jun_07_1352,mf_amp_cond1,3.0.7,59.98578201838819,
groups,&&&&&&,images/symbols/symbol_25.png,condition_files/AMP_rep1.csv,right,loyalty.vice,,,,,,,,,,,,,,0,0,0,0,0,42,42,42,,,,,,,,,,,,,,,,,,,,,478.8158869682811,,,,,,,,,,,,,,AMP_prac,right,1.2506101159378886,3,,,right,0.6654301313683391,,,,,,,,,,,,,,,,,,,,,,,,,1034,2019_Jun_07_1352,mf_amp_cond1,3.0.7,59.98578201838819,
forced,&&&&&&,images/symbols/symbol_32.png,condition_files/AMP_rep1.csv,right,fairness.vice,,,,,,,,,,,,,,0,0,0,0,0,43,43,43,,,,,,,,,,,,,,,,,,,,,479.48272159229964,,,,,,,,,,,,,,AMP_prac,right,1.2506101159378886,3,,,left,0.44907117122784257,,,,,,,,,,,,,,,,,,,,,,,,,1034,2019_Jun_07_1352,mf_amp_cond1,3.0.7,59.98578201838819,
dighnd,&&&&&&,images/symbols/symbol_2.png,condition_files/AMP_rep1.csv,None,nonword,,,,,,,,,,,,,,0,0,0,0,0,44,44,44,,,,,,,,,,,,,,,,,,,,,480.4496638868004,,,,,,,,,,,,,,AMP_prac,right,1.2506101159378886,3,,,left,0.7493353593163192,,,,,,,,,,,,,,,,,,,,,,,,,1034,2019_Jun_07_1352,mf_amp_cond1,3.0.7,59.98578201838819,
violence,&&&&&&&&,images/symbols/symbol_70.png,condition_files/AMP_rep1.csv,right,care.vice,,,,,,,,,,,,,,0,0,0,0,0,45,45,45,,,,,,,,,,,,,,,,,,,,,481.86679350584745,,,,,,,,,,,,,,AMP_prac,right,1.2506101159378886,3,,,left,1.199429992120713,,,,,,,,,,,,,,,,,,,,,,,,,1034,2019_Jun_07_1352,mf_amp_cond1,3.0.7,59.98578201838819,
love,&&&&,images/symbols/symbol_4.png,condition_files/AMP_rep1.csv,left,loyalty.virtue,,,,,,,,,,,,,,0,0,0,0,0,46,46,46,,,,,,,,,,,,,,,,,,,,,483.56725545879453,,,,,,,,,,,,,,AMP_prac,right,1.2506101159378886,3,,,left,1.4826657846570015,,,,,,,,,,,,,,,,,,,,,,,,,1034,2019_Jun_07_1352,mf_amp_cond1,3.0.7,59.98578201838819,
safety,&&&&&&,images/symbols/symbol_33.png,condition_files/AMP_rep1.csv,left,care.virtue,,,,,,,,,,,,,,0,0,0,0,0,47,47,47,,,,,,,,,,,,,,,,,,,,,484.93430699501187,,,,,,,,,,,,,,AMP_prac,right,1.2506101159378886,3,,,right,1.1495036166161299,,,,,,,,,,,,,,,,,,,,,,,,,1034,2019_Jun_07_1352,mf_amp_cond1,3.0.7,59.98578201838819,
crime,&&&&&,images/symbols/symbol_61.png,condition_files/AMP_rep1.csv,right,fairness.vice,,,,,,,,,,,,,,0,0,0,0,0,48,48,48,,,,,,,,,,,,,,,,,,,,,486.3847335870378,,,,,,,,,,,,,,AMP_prac,right,1.2506101159378886,3,,,right,1.2326342724263668,,,,,,,,,,,,,,,,,,,,,,,,,1034,2019_Jun_07_1352,mf_amp_cond1,3.0.7,59.98578201838819,
pheassed,&&&&&&&&,images/symbols/symbol_77.png,condition_files/AMP_rep1.csv,None,nonword,,,,,,,,,,,,,,0,0,0,0,0,49,49,49,,,,,,,,,,,,,,,,,,,,,489.0688519109972,,,,,,,,,,,,,,AMP_prac,right,1.2506101159378886,3,,,right,2.466410357505083,,,,,,,,,,,,,,,,,,,,,,,,,1034,2019_Jun_07_1352,mf_amp_cond1,3.0.7,59.98578201838819,
pleasant,&&&&&&&,images/symbols/symbol_44.png,condition_files/AMP_rep1.csv,right,control,,,,,,,,,,,,,,0,0,0,0,0,50,50,50,,,,,,,,,,,,,,,,,,,,,489.95242973417044,,,,,,,,,,,,,,AMP_prac,right,1.2506101159378886,3,,,right,0.6656440608203411,,,,,,,,,,,,,,,,,,,,,,,,,1034,2019_Jun_07_1352,mf_amp_cond1,3.0.7,59.98578201838819,
serial,&&&&&&,images/symbols/symbol_43.png,condition_files/AMP_rep1.csv,right,sanctity.vice,,,,,,,,,,,,,,0,0,0,0,0,51,51,51,,,,,,,,,,,,,,,,,,,,,490.68601931259036,,,,,,,,,,,,,,AMP_prac,right,1.2506101159378886,3,,,left,0.5004549608565867,,,,,,,,,,,,,,,,,,,,,,,,,1034,2019_Jun_07_1352,mf_amp_cond1,3.0.7,59.98578201838819,
yakks,&&&&&,images/symbols/symbol_72.png,condition_files/AMP_rep1.csv,None,nonword,,,,,,,,,,,,,,0,0,0,0,0,52,52,52,,,,,,,,,,,,,,,,,,,,,491.33616776391864,,,,,,,,,,,,,,AMP_prac,right,1.2506101159378886,3,,,left,0.4170410968363285,,,,,,,,,,,,,,,,,,,,,,,,,1034,2019_Jun_07_1352,mf_amp_cond1,3.0.7,59.98578201838819,
trust,&&&&&,images/symbols/symbol_26.png,condition_files/AMP_rep1.csv,left,authority.virtue,,,,,,,,,,,,,,0,0,0,0,0,53,53,53,,,,,,,,,,,,,,,,,,,,,492.08639348018914,,,,,,,,,,,,,,AMP_prac,right,1.2506101159378886,3,,,right,0.5321543589234352,,,,,,,,,,,,,,,,,,,,,,,,,1034,2019_Jun_07_1352,mf_amp_cond1,3.0.7,59.98578201838819,
victims,&&&&&&&,images/symbols/symbol_71.png,condition_files/AMP_rep1.csv,right,care.vice,,,,,,,,,,,,,,0,0,0,0,0,54,54,54,,,,,,,,,,,,,,,,,,,,,493.0033256877214,,,,,,,,,,,,,,AMP_prac,right,1.2506101159378886,3,,,left,0.6992428442463279,,,,,,,,,,,,,,,,,,,,,,,,,1034,2019_Jun_07_1352,mf_amp_cond1,3.0.7,59.98578201838819,
restore,&&&&&&&,images/symbols/symbol_78.png,condition_files/AMP_rep1.csv,left,care.virtue,,,,,,,,,,,,,,0,0,0,0,0,55,55,55,,,,,,,,,,,,,,,,,,,,,493.7202569972724,,,,,,,,,,,,,,AMP_prac,right,1.2506101159378886,3,,,right,0.4992422666400671,,,,,,,,,,,,,,,,,,,,,,,,,1034,2019_Jun_07_1352,mf_amp_cond1,3.0.7,59.98578201838819,
abuse,&&&&&,images/symbols/symbol_30.png,condition_files/AMP_rep1.csv,right,sanctity.vice,,,,,,,,,,,,,,0,0,0,0,0,56,56,56,,,,,,,,,,,,,,,,,,,,,494.3537106164731,,,,,,,,,,,,,,AMP_prac,right,1.2506101159378886,3,,,left,0.4159499602392316,,,,,,,,,,,,,,,,,,,,,,,,,1034,2019_Jun_07_1352,mf_amp_cond1,3.0.7,59.98578201838819,
slavery,&&&&&&&,images/symbols/symbol_27.png,condition_files/AMP_rep1.csv,right,loyalty.vice,,,,,,,,,,,,,,0,0,0,0,0,57,57,57,,,,,,,,,,,,,,,,,,,,,495.3206727965735,,,,,,,,,,,,,,AMP_prac,right,1.2506101159378886,3,,,right,0.7491836524568498,,,,,,,,,,,,,,,,,,,,,,,,,1034,2019_Jun_07_1352,mf_amp_cond1,3.0.7,59.98578201838819,
dignity,&&&&&&&,images/symbols/symbol_73.png,condition_files/AMP_rep1.csv,left,sanctity.virtue,,,,,,,,,,,,,,0,0,0,0,0,58,58,58,,,,,,,,,,,,,,,,,,,,,496.5376761108637,,,,,,,,,,,,,,AMP_prac,right,1.2506101159378886,3,,,right,0.9990426101721823,,,,,,,,,,,,,,,,,,,,,,,,,1034,2019_Jun_07_1352,mf_amp_cond1,3.0.7,59.98578201838819,
rebels,&&&&&&,images/symbols/symbol_53.png,condition_files/AMP_rep1.csv,right,authority.vice,,,,,,,,,,,,,,0,0,0,0,0,59,59,59,,,,,,,,,,,,,,,,,,,,,497.60466103069484,,,,,,,,,,,,,,AMP_prac,right,1.2506101159378886,3,,,right,0.8492859345860779,,,,,,,,,,,,,,,,,,,,,,,,,1034,2019_Jun_07_1352,mf_amp_cond1,3.0.7,59.98578201838819,
great,&&&&&,images/symbols/symbol_9.png,condition_files/AMP_rep1.csv,left,loyalty.virtue,,,,,,,,,,,,,,0,0,0,0,0,60,60,60,,,,,,,,,,,,,,,,,,,,,499.3718391289003,,,,,,,,,,,,,,AMP_prac,right,1.2506101159378886,3,,,left,1.549351460300386,,,,,,,,,,,,,,,,,,,,,,,,,1034,2019_Jun_07_1352,mf_amp_cond1,3.0.7,59.98578201838819,
unpleasant,&&&&&&&&&,images/symbols/symbol_1.png,condition_files/AMP_rep1.csv,left,control,,,,,,,,,,,,,,0,0,0,0,0,61,61,61,,,,,,,,,,,,,,,,,,,,,500.0386939593591,,,,,,,,,,,,,,AMP_prac,right,1.2506101159378886,3,,,left,0.44899291219189763,,,,,,,,,,,,,,,,,,,,,,,,,1034,2019_Jun_07_1352,mf_amp_cond1,3.0.7,59.98578201838819,
gun,&&&,images/symbols/symbol_65.png,condition_files/AMP_rep1.csv,right,authority.vice,,,,,,,,,,,,,,0,0,0,0,0,62,62,62,,,,,,,,,,,,,,,,,,,,,500.77225499227643,,,,,,,,,,,,,,AMP_prac,right,1.2506101159378886,3,,,left,0.5157433757558465,,,,,,,,,,,,,,,,,,,,,,,,,1034,2019_Jun_07_1352,mf_amp_cond1,3.0.7,59.98578201838819,
injured,&&&&&&&,images/symbols/symbol_20.png,condition_files/AMP_rep1.csv,right,care.vice,,,,,,,,,,,,,,0,0,0,0,0,63,63,63,,,,,,,,,,,,,,,,,,,,,501.405765381176,,,,,,,,,,,,,,AMP_prac,right,1.2506101159378886,3,,,left,0.4162909002043307,,,,,,,,,,,,,,,,,,,,,,,,,1034,2019_Jun_07_1352,mf_amp_cond1,3.0.7,59.98578201838819,
hope,&&&&,images/symbols/symbol_52.png,condition_files/AMP_rep1.csv,left,loyalty.virtue,,,,,,,,,,,,,,0,0,0,0,0,64,64,64,,,,,,,,,,,,,,,,,,,,,502.10595759702846,,,,,,,,,,,,,,AMP_prac,right,1.2506101159378886,3,,,right,0.4828954301774502,,,,,,,,,,,,,,,,,,,,,,,,,1034,2019_Jun_07_1352,mf_amp_cond1,3.0.7,59.98578201838819,
strong,&&&&&&,images/symbols/symbol_76.png,condition_files/AMP_rep1.csv,left,loyalty.virtue,,,,,,,,,,,,,,0,0,0,0,0,65,65,65,,,,,,,,,,,,,,,,,,,,,502.8728871261701,,,,,,,,,,,,,,AMP_prac,right,1.2506101159378886,3,,,right,0.5495336372405291,,,,,,,,,,,,,,,,,,,,,,,,,1034,2019_Jun_07_1352,mf_amp_cond1,3.0.7,59.98578201838819,
opportunity,&&&&&&&&&&&,images/symbols/symbol_5.png,condition_files/AMP_rep1.csv,left,fairness.virtue,,,,,,,,,,,,,,0,0,0,0,0,66,66,66,,,,,,,,,,,,,,,,,,,,,503.6230794861913,,,,,,,,,,,,,,AMP_prac,right,1.2506101159378886,3,,,right,0.5324635463766754,,,,,,,,,,,,,,,,,,,,,,,,,1034,2019_Jun_07_1352,mf_amp_cond1,3.0.7,59.98578201838819,
loyalty,&&&&&&&,images/symbols/symbol_38.png,condition_files/AMP_rep1.csv,left,loyalty.virtue,,,,,,,,,,,,,,0,0,0,0,0,67,67,67,,,,,,,,,,,,,,,,,,,,,504.2566011007875,,,,,,,,,,,,,,AMP_prac,right,1.2506101159378886,3,,,right,0.4158903039060533,,,,,,,,,,,,,,,,,,,,,,,,,1034,2019_Jun_07_1352,mf_amp_cond1,3.0.7,59.98578201838819,
men,&&&,images/symbols/symbol_13.png,condition_files/AMP_rep1.csv,right,loyalty.vice,,,,,,,,,,,,,,0,0,0,0,0,68,68,68,,,,,,,,,,,,,,,,,,,,,504.9901483422145,,,,,,,,,,,,,,AMP_prac,right,1.2506101159378886,3,,,right,0.5157023221254349,,,,,,,,,,,,,,,,,,,,,,,,,1034,2019_Jun_07_1352,mf_amp_cond1,3.0.7,59.98578201838819,
threatened,&&&&&&&&&&,images/symbols/symbol_11.png,condition_files/AMP_rep1.csv,right,fairness.vice,,,,,,,,,,,,,,0,0,0,0,0,69,69,69,,,,,,,,,,,,,,,,,,,,,505.92375549674034,,,,,,,,,,,,,,AMP_prac,right,1.2506101159378886,3,,,right,0.7158212498761714,,,,,,,,,,,,,,,,,,,,,,,,,1034,2019_Jun_07_1352,mf_amp_cond1,3.0.7,59.98578201838819,
stealde,&&&&&&&,images/symbols/symbol_14.png,condition_files/AMP_rep1.csv,None,nonword,,,,,,,,,,,,,,0,0,0,0,0,70,70,70,,,,,,,,,,,,,,,,,,,,,506.8740228442475,,,,,,,,,,,,,,AMP_prac,right,1.2506101159378886,3,,,right,0.7324512940831482,,,,,,,,,,,,,,,,,,,,,,,,,1034,2019_Jun_07_1352,mf_amp_cond1,3.0.7,59.98578201838819,
praise,&&&&&&,images/symbols/symbol_50.png,condition_files/AMP_rep1.csv,left,authority.virtue,,,,,,,,,,,,,,0,0,0,0,0,71,71,71,,,,,,,,,,,,,,,,,,,,,507.62423284491524,,,,,,,,,,,,,,AMP_prac,right,1.2506101159378886,3,,,right,0.5321941301226616,,,,,,,,,,,,,,,,,,,,,,,,,1034,2019_Jun_07_1352,mf_amp_cond1,3.0.7,59.98578201838819,
care,&&&&,images/symbols/symbol_34.png,condition_files/AMP_rep1.csv,left,care.virtue,,,,,,,,,,,,,,0,0,0,0,0,72,72,72,,,,,,,,,,,,,,,,,,,,,508.2410830408335,,,,,,,,,,,,,,AMP_prac,right,1.2506101159378886,3,,,right,0.39899918250739574,,,,,,,,,,,,,,,,,,,,,,,,,1034,2019_Jun_07_1352,mf_amp_cond1,3.0.7,59.98578201838819,
critics,&&&&&&&,images/symbols/symbol_81.png,condition_files/AMP_rep1.csv,right,loyalty.vice,,,,,,,,,,,,,,0,0,0,0,0,73,73,73,,,,,,,,,,,,,,,,,,,,,508.8912837719545,,,,,,,,,,,,,,AMP_prac,right,1.2506101159378886,3,,,right,0.4170481530018151,,,,,,,,,,,,,,,,,,,,,,,,,1034,2019_Jun_07_1352,mf_amp_cond1,3.0.7,59.98578201838819,
freedom,&&&&&&&,images/symbols/symbol_57.png,condition_files/AMP_rep1.csv,left,sanctity.virtue,,,,,,,,,,,,,,0,0,0,0,0,74,74,74,,,,,,,,,,,,,,,,,,,,,509.74151875730604,,,,,,,,,,,,,,AMP_prac,right,1.2506101159378886,3,,,right,0.6170945949852467,,,,,,,,,,,,,,,,,,,,,,,,,1034,2019_Jun_07_1352,mf_amp_cond1,3.0.7,59.98578201838819,
sexual,&&&&&&,images/symbols/symbol_49.png,condition_files/AMP_rep1.csv,right,sanctity.vice,,,,,,,,,,,,,,0,0,0,0,0,75,75,75,,,,,,,,,,,,,,,,,,,,,510.54174814606085,,,,,,,,,,,,,,AMP_prac,right,1.2506101159378886,3,,,right,0.5827661426737905,,,,,,,,,,,,,,,,,,,,,,,,,1034,2019_Jun_07_1352,mf_amp_cond1,3.0.7,59.98578201838819,
promised,&&&&&&&&,images/symbols/symbol_56.png,condition_files/AMP_rep1.csv,left,loyalty.virtue,,,,,,,,,,,,,,0,0,0,0,0,76,76,76,,,,,,,,,,,,,,,,,,,,,511.45869959751144,,,,,,,,,,,,,,AMP_prac,right,1.2506101159378886,3,,,right,0.6837963070720434,,,,,,,,,,,,,,,,,,,,,,,,,1034,2019_Jun_07_1352,mf_amp_cond1,3.0.7,59.98578201838819,
blamed,&&&&&&,images/symbols/symbol_62.png,condition_files/AMP_rep1.csv,right,loyalty.vice,,,,,,,,,,,,,,0,0,0,0,0,77,77,77,,,,,,,,,,,,,,,,,,,,,512.3089223955758,,,,,,,,,,,,,,AMP_prac,right,1.2506101159378886,3,,,right,0.632178702391684,,,,,,,,,,,,,,,,,,,,,,,,,1034,2019_Jun_07_1352,mf_amp_cond1,3.0.7,59.98578201838819,
wayed,&&&&&,images/symbols/symbol_74.png,condition_files/AMP_rep1.csv,None,nonword,,,,,,,,,,,,,,0,0,0,0,0,78,78,78,,,,,,,,,,,,,,,,,,,,,513.3425609497353,,,,,,,,,,,,,,AMP_prac,right,1.2506101159378886,3,,,left,0.8157314122654498,,,,,,,,,,,,,,,,,,,,,,,,,1034,2019_Jun_07_1352,mf_amp_cond1,3.0.7,59.98578201838819,
help,&&&&,images/symbols/symbol_42.png,condition_files/AMP_rep1.csv,left,care.virtue,,,,,,,,,,,,,,0,0,0,0,0,79,79,79,,,,,,,,,,,,,,,,,,,,,514.2428172477521,,,,,,,,,,,,,,AMP_prac,right,1.2506101159378886,3,,,left,0.6671062856912613,,,,,,,,,,,,,,,,,,,,,,,,,1034,2019_Jun_07_1352,mf_amp_cond1,3.0.7,59.98578201838819,
clean,&&&&&,images/symbols/symbol_55.png,condition_files/AMP_rep1.csv,left,sanctity.virtue,,,,,,,,,,,,,,0,0,0,0,0,80,80,80,,,,,,,,,,,,,,,,,,,,,515.1597760762088,,,,,,,,,,,,,,AMP_prac,right,1.2506101159378886,3,,,left,0.6838049669750035,,,,,,,,,,,,,,,,,,,,,,,,,1034,2019_Jun_07_1352,mf_amp_cond1,3.0.7,59.98578201838819,
honored,&&&&&&&,images/symbols/symbol_3.png,condition_files/AMP_rep1.csv,left,authority.virtue,,,,,,,,,,,,,,0,0,0,0,0,81,81,81,,,,,,,,,,,,,,,,,,,,,515.9099745303392,,,,,,,,,,,,,,AMP_prac,right,1.2506101159378886,3,,,left,0.532330762129277,,,,,,,,,,,,,,,,,,,,,,,,,1034,2019_Jun_07_1352,mf_amp_cond1,3.0.7,59.98578201838819,
,,,condition_files/AMP_rep1.csv,,,,,,,,,,,,,,,,0,0,0,0,,,,,,,,,,,,,,,,,,,,,,,,,,,,,,,,,,,,,,,,,,,,,,,right,12.720602748449892,,,,,,,,,,,,,,,,,,,,,,,1034,2019_Jun_07_1352,mf_amp_cond1,3.0.7,59.98578201838819,
fear,&&&&,images/symbols/symbol_31.png,condition_files/AMP_rep4.csv,right,sanctity.vice,,,,,,,,,,,,,,0,1,1,3,0,0,0,0,,,,,,,,,,,,,,,,,,,,,530.3977047009394,,,,,,,,,,,,,,AMP_prac,right,1.2506101159378886,3,,,left,1.5007356028072536,,,,,,,,,,,,,,,,,,,,,,,,,1034,2019_Jun_07_1352,mf_amp_cond1,3.0.7,59.98578201838819,
stroad,&&&&&&,images/symbols/symbol_63.png,condition_files/AMP_rep4.csv,None,nonword,,,,,,,,,,,,,,0,1,1,3,0,1,1,1,,,,,,,,,,,,,,,,,,,,,531.0643901838921,,,,,,,,,,,,,,AMP_prac,right,1.2506101159378886,3,,,left,0.4337163642048836,,,,,,,,,,,,,,,,,,,,,,,,,1034,2019_Jun_07_1352,mf_amp_cond1,3.0.7,59.98578201838819,
lies,&&&&,images/symbols/symbol_17.png,condition_files/AMP_rep4.csv,right,fairness.vice,,,,,,,,,,,,,,0,1,1,3,0,2,2,2,,,,,,,,,,,,,,,,,,,,,531.7645856067538,,,,,,,,,,,,,,AMP_prac,right,1.2506101159378886,3,,,left,0.48229790292680264,,,,,,,,,,,,,,,,,,,,,,,,,1034,2019_Jun_07_1352,mf_amp_cond1,3.0.7,59.98578201838819,
drug,&&&&,images/symbols/symbol_48.png,condition_files/AMP_rep4.csv,right,sanctity.vice,,,,,,,,,,,,,,0,1,1,3,0,3,3,3,,,,,,,,,,,,,,,,,,,,,532.4814995969646,,,,,,,,,,,,,,AMP_prac,right,1.2506101159378886,3,,,left,0.4993076962418854,,,,,,,,,,,,,,,,,,,,,,,,,1034,2019_Jun_07_1352,mf_amp_cond1,3.0.7,59.98578201838819,
civilians,&&&&&&&&&,images/symbols/symbol_80.png,condition_files/AMP_rep4.csv,right,care.vice,,,,,,,,,,,,,,0,1,1,3,0,4,4,4,,,,,,,,,,,,,,,,,,,,,533.2150121987797,,,,,,,,,,,,,,AMP_prac,right,1.2506101159378886,3,,,left,0.5162315326742828,,,,,,,,,,,,,,,,,,,,,,,,,1034,2019_Jun_07_1352,mf_amp_cond1,3.0.7,59.98578201838819,
strength,&&&&&&&&,images/symbols/symbol_67.png,condition_files/AMP_rep4.csv,left,sanctity.virtue,,,,,,,,,,,,,,0,1,1,3,0,5,5,5,,,,,,,,,,,,,,,,,,,,,534.2653077389114,,,,,,,,,,,,,,AMP_prac,right,1.2506101159378886,3,,,left,0.832485259976238,,,,,,,,,,,,,,,,,,,,,,,,,1034,2019_Jun_07_1352,mf_amp_cond1,3.0.7,59.98578201838819,
failure,&&&&&&&,images/symbols/symbol_19.png,condition_files/AMP_rep4.csv,right,loyalty.vice,,,,,,,,,,,,,,0,1,1,3,0,6,6,6,,,,,,,,,,,,,,,,,,,,,535.3322997153737,,,,,,,,,,,,,,AMP_prac,right,1.2506101159378886,3,,,left,0.8493500808253884,,,,,,,,,,,,,,,,,,,,,,,,,1034,2019_Jun_07_1352,mf_amp_cond1,3.0.7,59.98578201838819,
interests,&&&&&&&&&,images/symbols/symbol_68.png,condition_files/AMP_rep4.csv,left,fairness.virtue,,,,,,,,,,,,,,0,1,1,3,0,7,7,7,,,,,,,,,,,,,,,,,,,,,536.4826173540205,,,,,,,,,,,,,,AMP_prac,right,1.2506101159378886,3,,,left,0.9171650600619614,,,,,,,,,,,,,,,,,,,,,,,,,1034,2019_Jun_07_1352,mf_amp_cond1,3.0.7,59.98578201838819,
party,&&&&&,images/symbols/symbol_7.png,condition_files/AMP_rep4.csv,left,loyalty.virtue,,,,,,,,,,,,,,0,1,1,3,0,8,8,8,,,,,,,,,,,,,,,,,,,,,537.5496035567485,,,,,,,,,,,,,,AMP_prac,right,1.2506101159378886,3,,,left,0.8491541128605604,,,,,,,,,,,,,,,,,,,,,,,,,1034,2019_Jun_07_1352,mf_amp_cond1,3.0.7,59.98578201838819,
protesters,&&&&&&&&&&,images/symbols/symbol_51.png,condition_files/AMP_rep4.csv,right,authority.vice,,,,,,,,,,,,,,0,1,1,3,0,9,9,9,,,,,,,,,,,,,,,,,,,,,540.183714359533,,,,,,,,,,,,,,AMP_prac,right,1.2506101159378886,3,,,left,2.416753398720175,,,,,,,,,,,,,,,,,,,,,,,,,1034,2019_Jun_07_1352,mf_amp_cond1,3.0.7,59.98578201838819,
powerful,&&&&&&&&,images/symbols/symbol_41.png,condition_files/AMP_rep4.csv,left,authority.virtue,,,,,,,,,,,,,,0,1,1,3,0,10,10,10,,,,,,,,,,,,,,,,,,,,,540.9672800269909,,,,,,,,,,,,,,AMP_prac,right,1.2506101159378886,3,,,right,0.5663044834509492,,,,,,,,,,,,,,,,,,,,,,,,,1034,2019_Jun_07_1352,mf_amp_cond1,3.0.7,59.98578201838819,
progress,&&&&&&&&,images/symbols/symbol_15.png,condition_files/AMP_rep4.csv,left,authority.virtue,,,,,,,,,,,,,,0,1,1,3,0,11,11,11,,,,,,,,,,,,,,,,,,,,,541.7174800843932,,,,,,,,,,,,,,AMP_prac,right,1.2506101159378886,3,,,right,0.5322948400862515,,,,,,,,,,,,,,,,,,,,,,,,,1034,2019_Jun_07_1352,mf_amp_cond1,3.0.7,59.98578201838819,
died,&&&&,images/symbols/symbol_37.png,condition_files/AMP_rep4.csv,right,care.vice,,,,,,,,,,,,,,0,1,1,3,0,12,12,12,,,,,,,,,,,,,,,,,,,,,542.6177399111912,,,,,,,,,,,,,,AMP_prac,right,1.2506101159378886,3,,,left,0.6671229638159275,,,,,,,,,,,,,,,,,,,,,,,,,1034,2019_Jun_07_1352,mf_amp_cond1,3.0.7,59.98578201838819,
benefit,&&&&&&&,images/symbols/symbol_36.png,condition_files/AMP_rep4.csv,left,fairness.virtue,,,,,,,,,,,,,,0,1,1,3,0,13,13,13,,,,,,,,,,,,,,,,,,,,,543.4012975599617,,,,,,,,,,,,,,AMP_prac,right,1.2506101159378886,3,,,right,0.5657390300184488,,,,,,,,,,,,,,,,,,,,,,,,,1034,2019_Jun_07_1352,mf_amp_cond1,3.0.7,59.98578201838819,
values,&&&&&&,images/symbols/symbol_23.png,condition_files/AMP_rep4.csv,left,sanctity.virtue,,,,,,,,,,,,,,0,1,1,3,0,14,14,14,,,,,,,,,,,,,,,,,,,,,544.251545375213,,,,,,,,,,,,,,AMP_prac,right,1.2506101159378886,3,,,right,0.6324513265863061,,,,,,,,,,,,,,,,,,,,,,,,,1034,2019_Jun_07_1352,mf_amp_cond1,3.0.7,59.98578201838819,
win,&&&,images/symbols/symbol_60.png,condition_files/AMP_rep4.csv,left,fairness.virtue,,,,,,,,,,,,,,0,1,1,3,0,15,15,15,,,,,,,,,,,,,,,,,,,,,545.1018121130764,,,,,,,,,,,,,,AMP_prac,right,1.2506101159378886,3,,,right,0.6171122356317937,,,,,,,,,,,,,,,,,,,,,,,,,1034,2019_Jun_07_1352,mf_amp_cond1,3.0.7,59.98578201838819,
peace,&&&&&,images/symbols/symbol_12.png,condition_files/AMP_rep4.csv,left,care.virtue,,,,,,,,,,,,,,0,1,1,3,0,16,16,16,,,,,,,,,,,,,,,,,,,,,545.8853521221317,,,,,,,,,,,,,,AMP_prac,right,1.2506101159378886,3,,,right,0.5655837948434055,,,,,,,,,,,,,,,,,,,,,,,,,1034,2019_Jun_07_1352,mf_amp_cond1,3.0.7,59.98578201838819,
spreussed,&&&&&&&&&,images/symbols/symbol_28.png,condition_files/AMP_rep4.csv,None,nonword,,,,,,,,,,,,,,0,1,1,3,0,17,17,17,,,,,,,,,,,,,,,,,,,,,546.7356021823362,,,,,,,,,,,,,,AMP_prac,right,1.2506101159378886,3,,,right,0.6326104099862278,,,,,,,,,,,,,,,,,,,,,,,,,1034,2019_Jun_07_1352,mf_amp_cond1,3.0.7,59.98578201838819,
wraize,&&&&&&,images/symbols/symbol_66.png,condition_files/AMP_rep4.csv,None,nonword,,,,,,,,,,,,,,0,1,1,3,0,18,18,18,,,,,,,,,,,,,,,,,,,,,548.1360093858093,,,,,,,,,,,,,,AMP_prac,right,1.2506101159378886,3,,,right,1.1825359840877354,,,,,,,,,,,,,,,,,,,,,,,,,1034,2019_Jun_07_1352,mf_amp_cond1,3.0.7,59.98578201838819,
arrests,&&&&&&&,images/symbols/symbol_18.png,condition_files/AMP_rep4.csv,right,authority.vice,,,,,,,,,,,,,,0,1,1,3,0,19,19,19,,,,,,,,,,,,,,,,,,,,,548.6693697036244,,,,,,,,,,,,,,AMP_prac,right,1.2506101159378886,3,,,left,0.31573125207796693,,,,,,,,,,,,,,,,,,,,,,,,,1034,2019_Jun_07_1352,mf_amp_cond1,3.0.7,59.98578201838819,
torture,&&&&&&&,images/symbols/symbol_21.png,condition_files/AMP_rep4.csv,right,care.vice,,,,,,,,,,,,,,0,1,1,3,0,20,20,20,,,,,,,,,,,,,,,,,,,,,549.2196544990875,,,,,,,,,,,,,,AMP_prac,right,1.2506101159378886,3,,,left,0.3326538051478565,,,,,,,,,,,,,,,,,,,,,,,,,1034,2019_Jun_07_1352,mf_amp_cond1,3.0.7,59.98578201838819,
energy,&&&&&&,images/symbols/symbol_35.png,condition_files/AMP_rep4.csv,left,sanctity.virtue,,,,,,,,,,,,,,0,1,1,3,0,21,21,21,,,,,,,,,,,,,,,,,,,,,549.9032064070925,,,,,,,,,,,,,,AMP_prac,right,1.2506101159378886,3,,,right,0.46580192539840937,,,,,,,,,,,,,,,,,,,,,,,,,1034,2019_Jun_07_1352,mf_amp_cond1,3.0.7,59.98578201838819,
growth,&&&&&&,images/symbols/symbol_54.png,condition_files/AMP_rep4.csv,left,care.virtue,,,,,,,,,,,,,,0,1,1,3,0,22,22,22,,,,,,,,,,,,,,,,,,,,,550.5201884242706,,,,,,,,,,,,,,AMP_prac,right,1.2506101159378886,3,,,left,0.3990626875311136,,,,,,,,,,,,,,,,,,,,,,,,,1034,2019_Jun_07_1352,mf_amp_cond1,3.0.7,59.98578201838819,
conspiracy,&&&&&&&&&&,images/symbols/symbol_79.png,condition_files/AMP_rep4.csv,right,sanctity.vice,,,,,,,,,,,,,,0,1,1,3,0,23,23,23,,,,,,,,,,,,,,,,,,,,,551.370297361631,,,,,,,,,,,,,,AMP_prac,right,1.2506101159378886,3,,,right,0.6324564581736922,,,,,,,,,,,,,,,,,,,,,,,,,1034,2019_Jun_07_1352,mf_amp_cond1,3.0.7,59.98578201838819,
accused,&&&&&&&,images/symbols/symbol_69.png,condition_files/AMP_rep4.csv,right,fairness.vice,,,,,,,,,,,,,,0,1,1,3,0,24,24,24,,,,,,,,,,,,,,,,,,,,,552.287225399632,,,,,,,,,,,,,,AMP_prac,right,1.2506101159378886,3,,,left,0.6990282731130719,,,,,,,,,,,,,,,,,,,,,,,,,1034,2019_Jun_07_1352,mf_amp_cond1,3.0.7,59.98578201838819,
embrace,&&&&&&&,images/symbols/symbol_39.png,condition_files/AMP_rep4.csv,left,authority.virtue,,,,,,,,,,,,,,0,1,1,3,0,25,25,25,,,,,,,,,,,,,,,,,,,,,553.3375219018199,,,,,,,,,,,,,,AMP_prac,right,1.2506101159378886,3,,,left,0.8325016172602773,,,,,,,,,,,,,,,,,,,,,,,,,1034,2019_Jun_07_1352,mf_amp_cond1,3.0.7,59.98578201838819,
prison,&&&&&&,images/symbols/symbol_22.png,condition_files/AMP_rep4.csv,right,fairness.vice,,,,,,,,,,,,,,0,1,1,3,0,26,26,26,,,,,,,,,,,,,,,,,,,,,554.1877780556679,,,,,,,,,,,,,,AMP_prac,right,1.2506101159378886,3,,,left,0.6322476603090763,,,,,,,,,,,,,,,,,,,,,,,,,1034,2019_Jun_07_1352,mf_amp_cond1,3.0.7,59.98578201838819,
terrorists,&&&&&&&&&&,images/symbols/symbol_46.png,condition_files/AMP_rep4.csv,right,fairness.vice,,,,,,,,,,,,,,0,1,1,3,0,27,27,27,,,,,,,,,,,,,,,,,,,,,555.1046894155443,,,,,,,,,,,,,,AMP_prac,right,1.2506101159378886,3,,,left,0.6992197511717677,,,,,,,,,,,,,,,,,,,,,,,,,1034,2019_Jun_07_1352,mf_amp_cond1,3.0.7,59.98578201838819,
protect,&&&&&&&,images/symbols/symbol_6.png,condition_files/AMP_rep4.csv,left,fairness.virtue,,,,,,,,,,,,,,0,1,1,3,0,28,28,28,,,,,,,,,,,,,,,,,,,,,556.1049844906665,,,,,,,,,,,,,,AMP_prac,right,1.2506101159378886,3,,,left,0.7671360820531845,,,,,,,,,,,,,,,,,,,,,,,,,1034,2019_Jun_07_1352,mf_amp_cond1,3.0.7,59.98578201838819,
promote,&&&&&&&,images/symbols/symbol_24.png,condition_files/AMP_rep4.csv,left,sanctity.virtue,,,,,,,,,,,,,,0,1,1,3,0,29,29,29,,,,,,,,,,,,,,,,,,,,,557.2219849503599,,,,,,,,,,,,,,AMP_prac,right,1.2506101159378886,3,,,left,0.8990006255917251,,,,,,,,,,,,,,,,,,,,,,,,,1034,2019_Jun_07_1352,mf_amp_cond1,3.0.7,59.98578201838819,
suicide,&&&&&&&,images/symbols/symbol_75.png,condition_files/AMP_rep4.csv,right,care.vice,,,,,,,,,,,,,,0,1,1,3,0,30,30,30,,,,,,,,,,,,,,,,,,,,,558.2056034747511,,,,,,,,,,,,,,AMP_prac,right,1.2506101159378886,3,,,left,0.7504537580534816,,,,,,,,,,,,,,,,,,,,,,,,,1034,2019_Jun_07_1352,mf_amp_cond1,3.0.7,59.98578201838819,
officers,&&&&&&&&,images/symbols/symbol_45.png,condition_files/AMP_rep4.csv,right,authority.vice,,,,,,,,,,,,,,0,1,1,3,0,31,31,31,,,,,,,,,,,,,,,,,,,,,559.2559015806764,,,,,,,,,,,,,,AMP_prac,right,1.2506101159378886,3,,,left,0.8324163020588458,,,,,,,,,,,,,,,,,,,,,,,,,1034,2019_Jun_07_1352,mf_amp_cond1,3.0.7,59.98578201838819,
jipte,&&&&&,images/symbols/symbol_58.png,condition_files/AMP_rep4.csv,None,nonword,,,,,,,,,,,,,,0,1,1,3,0,32,32,32,,,,,,,,,,,,,,,,,,,,,560.2061807955615,,,,,,,,,,,,,,AMP_prac,right,1.2506101159378886,3,,,left,0.7325856816023588,,,,,,,,,,,,,,,,,,,,,,,,,1034,2019_Jun_07_1352,mf_amp_cond1,3.0.7,59.98578201838819,
peaceful,&&&&&&&&,images/symbols/symbol_40.png,condition_files/AMP_rep4.csv,left,authority.virtue,,,,,,,,,,,,,,0,1,1,3,0,33,33,33,,,,,,,,,,,,,,,,,,,,,561.2231357428245,,,,,,,,,,,,,,AMP_prac,right,1.2506101159378886,3,,,left,0.7991206124424934,,,,,,,,,,,,,,,,,,,,,,,,,1034,2019_Jun_07_1352,mf_amp_cond1,3.0.7,59.98578201838819,
gryssed,&&&&&&&,images/symbols/symbol_10.png,condition_files/AMP_rep4.csv,None,nonword,,,,,,,,,,,,,,0,1,1,3,0,34,34,34,,,,,,,,,,,,,,,,,,,,,562.1734717274085,,,,,,,,,,,,,,AMP_prac,right,1.2506101159378886,3,,,right,0.7327107675373554,,,,,,,,,,,,,,,,,,,,,,,,,1034,2019_Jun_07_1352,mf_amp_cond1,3.0.7,59.98578201838819,
riot,&&&&,images/symbols/symbol_16.png,condition_files/AMP_rep4.csv,right,authority.vice,,,,,,,,,,,,,,0,1,1,3,0,35,35,35,,,,,,,,,,,,,,,,,,,,,562.8069295161404,,,,,,,,,,,,,,AMP_prac,right,1.2506101159378886,3,,,right,0.4159339237958193,,,,,,,,,,,,,,,,,,,,,,,,,1034,2019_Jun_07_1352,mf_amp_cond1,3.0.7,59.98578201838819,
violations,&&&&&&&&&&,images/symbols/symbol_64.png,condition_files/AMP_rep4.csv,right,sanctity.vice,,,,,,,,,,,,,,0,1,1,3,0,36,36,36,,,,,,,,,,,,,,,,,,,,,563.3904493828304,,,,,,,,,,,,,,AMP_prac,right,1.2506101159378886,3,,,left,0.3656666078604758,,,,,,,,,,,,,,,,,,,,,,,,,1034,2019_Jun_07_1352,mf_amp_cond1,3.0.7,59.98578201838819,
agreement,&&&&&&&&&,images/symbols/symbol_47.png,condition_files/AMP_rep4.csv,left,fairness.virtue,,,,,,,,,,,,,,0,1,1,3,0,37,37,37,,,,,,,,,,,,,,,,,,,,,564.8742040591314,,,,,,,,,,,,,,AMP_prac,right,1.2506101159378886,3,,,left,1.2659841664135456,,,,,,,,,,,,,,,,,,,,,,,,,1034,2019_Jun_07_1352,mf_amp_cond1,3.0.7,59.98578201838819,
troops,&&&&&&,images/symbols/symbol_29.png,condition_files/AMP_rep4.csv,right,loyalty.vice,,,,,,,,,,,,,,0,1,1,3,0,38,38,38,,,,,,,,,,,,,,,,,,,,,566.2912765871733,,,,,,,,,,,,,,AMP_prac,right,1.2506101159378886,3,,,left,1.1991997049190104,,,,,,,,,,,,,,,,,,,,,,,,,1034,2019_Jun_07_1352,mf_amp_cond1,3.0.7,59.98578201838819,
prosecution,&&&&&&&&&&&,images/symbols/symbol_82.png,condition_files/AMP_rep4.csv,right,authority.vice,,,,,,,,,,,,,,0,1,1,3,0,39,39,39,,,,,,,,,,,,,,,,,,,,,567.2915690965019,,,,,,,,,,,,,,AMP_prac,right,1.2506101159378886,3,,,left,0.7830165713094175,,,,,,,,,,,,,,,,,,,,,,,,,1034,2019_Jun_07_1352,mf_amp_cond1,3.0.7,59.98578201838819,
increase,&&&&&&&&,images/symbols/symbol_8.png,condition_files/AMP_rep4.csv,left,care.virtue,,,,,,,,,,,,,,0,1,1,3,0,40,40,40,,,,,,,,,,,,,,,,,,,,,568.3585395836271,,,,,,,,,,,,,,AMP_prac,right,1.2506101159378886,3,,,left,0.8495723498053849,,,,,,,,,,,,,,,,,,,,,,,,,1034,2019_Jun_07_1352,mf_amp_cond1,3.0.7,59.98578201838819,
ensure,&&&&&&,images/symbols/symbol_59.png,condition_files/AMP_rep4.csv,left,fairness.virtue,,,,,,,,,,,,,,0,1,1,3,0,41,41,41,,,,,,,,,,,,,,,,,,,,,569.1921262429096,,,,,,,,,,,,,,AMP_prac,right,1.2506101159378886,3,,,left,0.60043472237885,,,,,,,,,,,,,,,,,,,,,,,,,1034,2019_Jun_07_1352,mf_amp_cond1,3.0.7,59.98578201838819,
groups,&&&&&&,images/symbols/symbol_25.png,condition_files/AMP_rep4.csv,right,loyalty.vice,,,,,,,,,,,,,,0,1,1,3,0,42,42,42,,,,,,,,,,,,,,,,,,,,,570.1090962970629,,,,,,,,,,,,,,AMP_prac,right,1.2506101159378886,3,,,left,0.6990372538566589,,,,,,,,,,,,,,,,,,,,,,,,,1034,2019_Jun_07_1352,mf_amp_cond1,3.0.7,59.98578201838819,
forced,&&&&&&,images/symbols/symbol_32.png,condition_files/AMP_rep4.csv,right,fairness.vice,,,,,,,,,,,,,,0,1,1,3,0,43,43,43,,,,,,,,,,,,,,,,,,,,,571.1760501060635,,,,,,,,,,,,,,AMP_prac,right,1.2506101159378886,3,,,left,0.8492641244083643,,,,,,,,,,,,,,,,,,,,,,,,,1034,2019_Jun_07_1352,mf_amp_cond1,3.0.7,59.98578201838819,
dighnd,&&&&&&,images/symbols/symbol_2.png,condition_files/AMP_rep4.csv,None,nonword,,,,,,,,,,,,,,0,1,1,3,0,44,44,44,,,,,,,,,,,,,,,,,,,,,572.126311680302,,,,,,,,,,,,,,AMP_prac,right,1.2506101159378886,3,,,left,0.7329737697727978,,,,,,,,,,,,,,,,,,,,,,,,,1034,2019_Jun_07_1352,mf_amp_cond1,3.0.7,59.98578201838819,
violence,&&&&&&&&,images/symbols/symbol_70.png,condition_files/AMP_rep4.csv,right,care.vice,,,,,,,,,,,,,,0,1,1,3,0,45,45,45,,,,,,,,,,,,,,,,,,,,,573.0766248931177,,,,,,,,,,,,,,AMP_prac,right,1.2506101159378886,3,,,left,0.7326597711071372,,,,,,,,,,,,,,,,,,,,,,,,,1034,2019_Jun_07_1352,mf_amp_cond1,3.0.7,59.98578201838819,
love,&&&&,images/symbols/symbol_4.png,condition_files/AMP_rep4.csv,left,loyalty.virtue,,,,,,,,,,,,,,0,1,1,3,0,46,46,46,,,,,,,,,,,,,,,,,,,,,574.1269169049338,,,,,,,,,,,,,,AMP_prac,right,1.2506101159378886,3,,,left,0.8325093146413565,,,,,,,,,,,,,,,,,,,,,,,,,1034,2019_Jun_07_1352,mf_amp_cond1,3.0.7,59.98578201838819,
safety,&&&&&&,images/symbols/symbol_33.png,condition_files/AMP_rep4.csv,left,care.virtue,,,,,,,,,,,,,,0,1,1,3,0,47,47,47,,,,,,,,,,,,,,,,,,,,,575.0771836112253,,,,,,,,,,,,,,AMP_prac,right,1.2506101159378886,3,,,right,0.7327447654679418,,,,,,,,,,,,,,,,,,,,,,,,,1034,2019_Jun_07_1352,mf_amp_cond1,3.0.7,59.98578201838819,
crime,&&&&&,images/symbols/symbol_61.png,condition_files/AMP_rep4.csv,right,fairness.vice,,,,,,,,,,,,,,0,1,1,3,0,48,48,48,,,,,,,,,,,,,,,,,,,,,575.8774072267115,,,,,,,,,,,,,,AMP_prac,right,1.2506101159378886,3,,,right,0.582550288643688,,,,,,,,,,,,,,,,,,,,,,,,,1034,2019_Jun_07_1352,mf_amp_cond1,3.0.7,59.98578201838819,
pheassed,&&&&&&&&,images/symbols/symbol_77.png,condition_files/AMP_rep4.csv,None,nonword,,,,,,,,,,,,,,0,1,1,3,0,49,49,49,,,,,,,,,,,,,,,,,,,,,576.8277037609369,,,,,,,,,,,,,,AMP_prac,right,1.2506101159378886,3,,,left,0.7326254528015852,,,,,,,,,,,,,,,,,,,,,,,,,1034,2019_Jun_07_1352,mf_amp_cond1,3.0.7,59.98578201838819,
pleasant,&&&&&&&,images/symbols/symbol_44.png,condition_files/AMP_rep4.csv,right,control,,,,,,,,,,,,,,0,1,1,3,0,50,50,50,,,,,,,,,,,,,,,,,,,,,577.5612208535895,,,,,,,,,,,,,,AMP_prac,right,1.2506101159378886,3,,,left,0.5157520356588066,,,,,,,,,,,,,,,,,,,,,,,,,1034,2019_Jun_07_1352,mf_amp_cond1,3.0.7,59.98578201838819,
serial,&&&&&&,images/symbols/symbol_43.png,condition_files/AMP_rep4.csv,right,sanctity.vice,,,,,,,,,,,,,,0,1,1,3,0,51,51,51,,,,,,,,,,,,,,,,,,,,,578.4448365233839,,,,,,,,,,,,,,AMP_prac,right,1.2506101159378886,3,,,left,0.6504595633596182,,,,,,,,,,,,,,,,,,,,,,,,,1034,2019_Jun_07_1352,mf_amp_cond1,3.0.7,59.98578201838819,
yakks,&&&&&,images/symbols/symbol_72.png,condition_files/AMP_rep4.csv,None,nonword,,,,,,,,,,,,,,0,1,1,3,0,52,52,52,,,,,,,,,,,,,,,,,,,,,579.295083696954,,,,,,,,,,,,,,AMP_prac,right,1.2506101159378886,3,,,left,0.6322050024755299,,,,,,,,,,,,,,,,,,,,,,,,,1034,2019_Jun_07_1352,mf_amp_cond1,3.0.7,59.98578201838819,
trust,&&&&&,images/symbols/symbol_26.png,condition_files/AMP_rep4.csv,left,authority.virtue,,,,,,,,,,,,,,0,1,1,3,0,53,53,53,,,,,,,,,,,,,,,,,,,,,580.0786237055436,,,,,,,,,,,,,,AMP_prac,right,1.2506101159378886,3,,,right,0.5657140128314495,,,,,,,,,,,,,,,,,,,,,,,,,1034,2019_Jun_07_1352,mf_amp_cond1,3.0.7,59.98578201838819,
victims,&&&&&&&,images/symbols/symbol_71.png,condition_files/AMP_rep4.csv,right,care.vice,,,,,,,,,,,,,,0,1,1,3,0,54,54,54,,,,,,,,,,,,,,,,,,,,,580.8788537359796,,,,,,,,,,,,,,AMP_prac,right,1.2506101159378886,3,,,left,0.5824142973870039,,,,,,,,,,,,,,,,,,,,,,,,,1034,2019_Jun_07_1352,mf_amp_cond1,3.0.7,59.98578201838819,
restore,&&&&&&&,images/symbols/symbol_78.png,condition_files/AMP_rep4.csv,left,care.virtue,,,,,,,,,,,,,,0,1,1,3,0,55,55,55,,,,,,,,,,,,,,,,,,,,,581.7124208305031,,,,,,,,,,,,,,AMP_prac,right,1.2506101159378886,3,,,left,0.6157359667122364,,,,,,,,,,,,,,,,,,,,,,,,,1034,2019_Jun_07_1352,mf_amp_cond1,3.0.7,59.98578201838819,
abuse,&&&&&,images/symbols/symbol_30.png,condition_files/AMP_rep4.csv,right,sanctity.vice,,,,,,,,,,,,,,0,1,1,3,0,56,56,56,,,,,,,,,,,,,,,,,,,,,582.2625924069434,,,,,,,,,,,,,,AMP_prac,right,1.2506101159378886,3,,,right,0.3326384099200368,,,,,,,,,,,,,,,,,,,,,,,,,1034,2019_Jun_07_1352,mf_amp_cond1,3.0.7,59.98578201838819,
slavery,&&&&&&&,images/symbols/symbol_27.png,condition_files/AMP_rep4.csv,right,loyalty.vice,,,,,,,,,,,,,,0,1,1,3,0,57,57,57,,,,,,,,,,,,,,,,,,,,,582.8794320188463,,,,,,,,,,,,,,AMP_prac,right,1.2506101159378886,3,,,left,0.39902644511312246,,,,,,,,,,,,,,,,,,,,,,,,,1034,2019_Jun_07_1352,mf_amp_cond1,3.0.7,59.98578201838819,
dignity,&&&&&&&,images/symbols/symbol_73.png,condition_files/AMP_rep4.csv,left,sanctity.virtue,,,,,,,,,,,,,,0,1,1,3,0,58,58,58,,,,,,,,,,,,,,,,,,,,,583.4129260824993,,,,,,,,,,,,,,AMP_prac,right,1.2506101159378886,3,,,left,0.3154990407638252,,,,,,,,,,,,,,,,,,,,,,,,,1034,2019_Jun_07_1352,mf_amp_cond1,3.0.7,59.98578201838819,
rebels,&&&&&&,images/symbols/symbol_53.png,condition_files/AMP_rep4.csv,right,authority.vice,,,,,,,,,,,,,,0,1,1,3,0,59,59,59,,,,,,,,,,,,,,,,,,,,,584.1631463463418,,,,,,,,,,,,,,AMP_prac,right,1.2506101159378886,3,,,left,0.5326088382862508,,,,,,,,,,,,,,,,,,,,,,,,,1034,2019_Jun_07_1352,mf_amp_cond1,3.0.7,59.98578201838819,
great,&&&&&,images/symbols/symbol_9.png,condition_files/AMP_rep4.csv,left,loyalty.virtue,,,,,,,,,,,,,,0,1,1,3,0,60,60,60,,,,,,,,,,,,,,,,,,,,,584.9466995052062,,,,,,,,,,,,,,AMP_prac,right,1.2506101159378886,3,,,right,0.5657727071084082,,,,,,,,,,,,,,,,,,,,,,,,,1034,2019_Jun_07_1352,mf_amp_cond1,3.0.7,59.98578201838819,
unpleasant,&&&&&&&&&,images/symbols/symbol_1.png,condition_files/AMP_rep4.csv,left,control,,,,,,,,,,,,,,0,1,1,3,0,61,61,61,,,,,,,,,,,,,,,,,,,,,585.6469112858176,,,,,,,,,,,,,,AMP_prac,right,1.2506101159378886,3,,,right,0.4823896330781281,,,,,,,,,,,,,,,,,,,,,,,,,1034,2019_Jun_07_1352,mf_amp_cond1,3.0.7,59.98578201838819,
gun,&&&,images/symbols/symbol_65.png,condition_files/AMP_rep4.csv,right,authority.vice,,,,,,,,,,,,,,0,1,1,3,0,62,62,62,,,,,,,,,,,,,,,,,,,,,586.2470942321233,,,,,,,,,,,,,,AMP_prac,right,1.2506101159378886,3,,,left,0.3823992870748043,,,,,,,,,,,,,,,,,,,,,,,,,1034,2019_Jun_07_1352,mf_amp_cond1,3.0.7,59.98578201838819,
injured,&&&&&&&,images/symbols/symbol_20.png,condition_files/AMP_rep4.csv,right,care.vice,,,,,,,,,,,,,,0,1,1,3,0,63,63,63,,,,,,,,,,,,,,,,,,,,,587.297380791977,,,,,,,,,,,,,,AMP_prac,right,1.2506101159378886,3,,,left,0.8330394877120852,,,,,,,,,,,,,,,,,,,,,,,,,1034,2019_Jun_07_1352,mf_amp_cond1,3.0.7,59.98578201838819,
hope,&&&&,images/symbols/symbol_52.png,condition_files/AMP_rep4.csv,left,loyalty.virtue,,,,,,,,,,,,,,0,1,1,3,0,64,64,64,,,,,,,,,,,,,,,,,,,,,588.381041620858,,,,,,,,,,,,,,AMP_prac,right,1.2506101159378886,3,,,left,0.8663486484438181,,,,,,,,,,,,,,,,,,,,,,,,,1034,2019_Jun_07_1352,mf_amp_cond1,3.0.7,59.98578201838819,
strong,&&&&&&,images/symbols/symbol_76.png,condition_files/AMP_rep4.csv,left,loyalty.virtue,,,,,,,,,,,,,,0,1,1,3,0,65,65,65,,,,,,,,,,,,,,,,,,,,,589.0145587455481,,,,,,,,,,,,,,AMP_prac,right,1.2506101159378886,3,,,left,0.4162158486433327,,,,,,,,,,,,,,,,,,,,,,,,,1034,2019_Jun_07_1352,mf_amp_cond1,3.0.7,59.98578201838819,
opportunity,&&&&&&&&&&&,images/symbols/symbol_5.png,condition_files/AMP_rep4.csv,left,fairness.virtue,,,,,,,,,,,,,,0,1,1,3,0,66,66,66,,,,,,,,,,,,,,,,,,,,,589.464677112177,,,,,,,,,,,,,,AMP_prac,right,1.2506101159378886,3,,,right,0.23250950733199716,,,,,,,,,,,,,,,,,,,,,,,,,1034,2019_Jun_07_1352,mf_amp_cond1,3.0.7,59.98578201838819,
loyalty,&&&&&&&,images/symbols/symbol_38.png,condition_files/AMP_rep4.csv,left,loyalty.virtue,,,,,,,,,,,,,,0,1,1,3,0,67,67,67,,,,,,,,,,,,,,,,,,,,,590.2315668705851,,,,,,,,,,,,,,AMP_prac,right,1.2506101159378886,3,,,right,0.5491872448474169,,,,,,,,,,,,,,,,,,,,,,,,,1034,2019_Jun_07_1352,mf_amp_cond1,3.0.7,59.98578201838819,
men,&&&,images/symbols/symbol_13.png,condition_files/AMP_rep4.csv,right,loyalty.vice,,,,,,,,,,,,,,0,1,1,3,0,68,68,68,,,,,,,,,,,,,,,,,,,,,590.8150860960595,,,,,,,,,,,,,,AMP_prac,right,1.2506101159378886,3,,,right,0.3657968263141811,,,,,,,,,,,,,,,,,,,,,,,,,1034,2019_Jun_07_1352,mf_amp_cond1,3.0.7,59.98578201838819,
threatened,&&&&&&&&&&,images/symbols/symbol_11.png,condition_files/AMP_rep4.csv,right,fairness.vice,,,,,,,,,,,,,,0,1,1,3,0,69,69,69,,,,,,,,,,,,,,,,,,,,,591.4652643757872,,,,,,,,,,,,,,AMP_prac,right,1.2506101159378886,3,,,right,0.4324937276542187,,,,,,,,,,,,,,,,,,,,,,,,,1034,2019_Jun_07_1352,mf_amp_cond1,3.0.7,59.98578201838819,
stealde,&&&&&&&,images/symbols/symbol_14.png,condition_files/AMP_rep4.csv,None,nonword,,,,,,,,,,,,,,0,1,1,3,0,70,70,70,,,,,,,,,,,,,,,,,,,,,592.0821200241335,,,,,,,,,,,,,,AMP_prac,right,1.2506101159378886,3,,,left,0.39901521895080805,,,,,,,,,,,,,,,,,,,,,,,,,1034,2019_Jun_07_1352,mf_amp_cond1,3.0.7,59.98578201838819,
praise,&&&&&&,images/symbols/symbol_50.png,condition_files/AMP_rep4.csv,left,authority.virtue,,,,,,,,,,,,,,0,1,1,3,0,71,71,71,,,,,,,,,,,,,,,,,,,,,592.7323031150736,,,,,,,,,,,,,,AMP_prac,right,1.2506101159378886,3,,,left,0.43243888206779957,,,,,,,,,,,,,,,,,,,,,,,,,1034,2019_Jun_07_1352,mf_amp_cond1,3.0.7,59.98578201838819,
care,&&&&,images/symbols/symbol_34.png,condition_files/AMP_rep4.csv,left,care.virtue,,,,,,,,,,,,,,0,1,1,3,0,72,72,72,,,,,,,,,,,,,,,,,,,,,593.4825156810693,,,,,,,,,,,,,,AMP_prac,right,1.2506101159378886,3,,,left,0.5320283104665577,,,,,,,,,,,,,,,,,,,,,,,,,1034,2019_Jun_07_1352,mf_amp_cond1,3.0.7,59.98578201838819,
critics,&&&&&&&,images/symbols/symbol_81.png,condition_files/AMP_rep4.csv,right,loyalty.vice,,,,,,,,,,,,,,0,1,1,3,0,73,73,73,,,,,,,,,,,,,,,,,,,,,594.9829513980076,,,,,,,,,,,,,,AMP_prac,right,1.2506101159378886,3,,,left,1.2672863453626633,,,,,,,,,,,,,,,,,,,,,,,,,1034,2019_Jun_07_1352,mf_amp_cond1,3.0.7,59.98578201838819,
freedom,&&&&&&&,images/symbols/symbol_57.png,condition_files/AMP_rep4.csv,left,sanctity.virtue,,,,,,,,,,,,,,0,1,1,3,0,74,74,74,,,,,,,,,,,,,,,,,,,,,595.9499222380109,,,,,,,,,,,,,,AMP_prac,right,1.2506101159378886,3,,,right,0.7338397507555783,,,,,,,,,,,,,,,,,,,,,,,,,1034,2019_Jun_07_1352,mf_amp_cond1,3.0.7,59.98578201838819,
sexual,&&&&&&,images/symbols/symbol_49.png,condition_files/AMP_rep4.csv,right,sanctity.vice,,,,,,,,,,,,,,0,1,1,3,0,75,75,75,,,,,,,,,,,,,,,,,,,,,597.000199817121,,,,,,,,,,,,,,AMP_prac,right,1.2506101159378886,3,,,left,0.8319352017715573,,,,,,,,,,,,,,,,,,,,,,,,,1034,2019_Jun_07_1352,mf_amp_cond1,3.0.7,59.98578201838819,
promised,&&&&&&&&,images/symbols/symbol_56.png,condition_files/AMP_rep4.csv,left,loyalty.virtue,,,,,,,,,,,,,,0,1,1,3,0,76,76,76,,,,,,,,,,,,,,,,,,,,,597.717281229794,,,,,,,,,,,,,,AMP_prac,right,1.2506101159378886,3,,,left,0.4839233816601336,,,,,,,,,,,,,,,,,,,,,,,,,1034,2019_Jun_07_1352,mf_amp_cond1,3.0.7,59.98578201838819,
blamed,&&&&&&,images/symbols/symbol_62.png,condition_files/AMP_rep4.csv,right,loyalty.vice,,,,,,,,,,,,,,0,1,1,3,0,77,77,77,,,,,,,,,,,,,,,,,,,,,598.3672709180973,,,,,,,,,,,,,,AMP_prac,right,1.2506101159378886,3,,,left,0.4320100611075759,,,,,,,,,,,,,,,,,,,,,,,,,1034,2019_Jun_07_1352,mf_amp_cond1,3.0.7,59.98578201838819,
wayed,&&&&&,images/symbols/symbol_74.png,condition_files/AMP_rep4.csv,None,nonword,,,,,,,,,,,,,,0,1,1,3,0,78,78,78,,,,,,,,,,,,,,,,,,,,,599.1008422146551,,,,,,,,,,,,,,AMP_prac,right,1.2506101159378886,3,,,left,0.5158957242965698,,,,,,,,,,,,,,,,,,,,,,,,,1034,2019_Jun_07_1352,mf_amp_cond1,3.0.7,59.98578201838819,
help,&&&&,images/symbols/symbol_42.png,condition_files/AMP_rep4.csv,left,care.virtue,,,,,,,,,,,,,,0,1,1,3,0,79,79,79,,,,,,,,,,,,,,,,,,,,,600.2344736806117,,,,,,,,,,,,,,AMP_prac,right,1.2506101159378886,3,,,left,0.9005087157711387,,,,,,,,,,,,,,,,,,,,,,,,,1034,2019_Jun_07_1352,mf_amp_cond1,3.0.7,59.98578201838819,
clean,&&&&&,images/symbols/symbol_55.png,condition_files/AMP_rep4.csv,left,sanctity.virtue,,,,,,,,,,,,,,0,1,1,3,0,80,80,80,,,,,,,,,,,,,,,,,,,,,600.9180207774043,,,,,,,,,,,,,,AMP_prac,right,1.2506101159378886,3,,,right,0.45039772614836693,,,,,,,,,,,,,,,,,,,,,,,,,1034,2019_Jun_07_1352,mf_amp_cond1,3.0.7,59.98578201838819,
honored,&&&&&&&,images/symbols/symbol_3.png,condition_files/AMP_rep4.csv,left,authority.virtue,,,,,,,,,,,,,,0,1,1,3,0,81,81,81,,,,,,,,,,,,,,,,,,,,,601.551524430979,,,,,,,,,,,,,,AMP_prac,right,1.2506101159378886,3,,,right,0.4153136247768998,,,,,,,,,,,,,,,,,,,,,,,,,1034,2019_Jun_07_1352,mf_amp_cond1,3.0.7,59.98578201838819,
,,,condition_files/AMP_rep4.csv,,,,,,,,,,,,,,,,0,1,1,3,,,,,,,,,,,,,,,,,,,,,,,,,,,,,,,,,,,,,,,,,,,,,,,right,17.18856545770541,,,,,,,,,,,,,,,,,,,,,,,1034,2019_Jun_07_1352,mf_amp_cond1,3.0.7,59.98578201838819,
fear,&&&&,images/symbols/symbol_31.png,condition_files/AMP_rep2.csv,right,sanctity.vice,,,,,,,,,,,,,,0,2,2,1,0,0,0,0,,,,,,,,,,,,,,,,,,,,,620.107061882969,,,,,,,,,,,,,,AMP_prac,right,1.2506101159378886,3,,,left,1.1005647801794112,,,,,,,,,,,,,,,,,,,,,,,,,1034,2019_Jun_07_1352,mf_amp_cond1,3.0.7,59.98578201838819,
stroad,&&&&&&,images/symbols/symbol_63.png,condition_files/AMP_rep2.csv,None,nonword,,,,,,,,,,,,,,0,2,2,1,0,1,1,1,,,,,,,,,,,,,,,,,,,,,620.840500395745,,,,,,,,,,,,,,AMP_prac,right,1.2506101159378886,3,,,left,0.5004408485256135,,,,,,,,,,,,,,,,,,,,,,,,,1034,2019_Jun_07_1352,mf_amp_cond1,3.0.7,59.98578201838819,
lies,&&&&,images/symbols/symbol_17.png,condition_files/AMP_rep2.csv,right,fairness.vice,,,,,,,,,,,,,,0,2,2,1,0,2,2,2,,,,,,,,,,,,,,,,,,,,,621.4906722609885,,,,,,,,,,,,,,AMP_prac,right,1.2506101159378886,3,,,left,0.43182820454239845,,,,,,,,,,,,,,,,,,,,,,,,,1034,2019_Jun_07_1352,mf_amp_cond1,3.0.7,59.98578201838819,
drug,&&&&,images/symbols/symbol_48.png,condition_files/AMP_rep2.csv,right,sanctity.vice,,,,,,,,,,,,,,0,2,2,1,0,3,3,3,,,,,,,,,,,,,,,,,,,,,622.407585865818,,,,,,,,,,,,,,AMP_prac,right,1.2506101159378886,3,,,left,0.6991030038334429,,,,,,,,,,,,,,,,,,,,,,,,,1034,2019_Jun_07_1352,mf_amp_cond1,3.0.7,59.98578201838819,
civilians,&&&&&&&&&,images/symbols/symbol_80.png,condition_files/AMP_rep2.csv,right,care.vice,,,,,,,,,,,,,,0,2,2,1,0,4,4,4,,,,,,,,,,,,,,,,,,,,,623.8413371900097,,,,,,,,,,,,,,AMP_prac,right,1.2506101159378886,3,,,left,1.216354469768703,,,,,,,,,,,,,,,,,,,,,,,,,1034,2019_Jun_07_1352,mf_amp_cond1,3.0.7,59.98578201838819,
strength,&&&&&&&&,images/symbols/symbol_67.png,condition_files/AMP_rep2.csv,left,sanctity.virtue,,,,,,,,,,,,,,0,2,2,1,0,5,5,5,,,,,,,,,,,,,,,,,,,,,625.4916880247183,,,,,,,,,,,,,,AMP_prac,right,1.2506101159378886,3,,,right,1.4324732003733516,,,,,,,,,,,,,,,,,,,,,,,,,1034,2019_Jun_07_1352,mf_amp_cond1,3.0.7,59.98578201838819,
failure,&&&&&&&,images/symbols/symbol_19.png,condition_files/AMP_rep2.csv,right,loyalty.vice,,,,,,,,,,,,,,0,2,2,1,0,6,6,6,,,,,,,,,,,,,,,,,,,,,627.2089865743183,,,,,,,,,,,,,,AMP_prac,right,1.2506101159378886,3,,,left,1.499062655493617,,,,,,,,,,,,,,,,,,,,,,,,,1034,2019_Jun_07_1352,mf_amp_cond1,3.0.7,59.98578201838819,
interests,&&&&&&&&&,images/symbols/symbol_68.png,condition_files/AMP_rep2.csv,left,fairness.virtue,,,,,,,,,,,,,,0,2,2,1,0,7,7,7,,,,,,,,,,,,,,,,,,,,,628.1759246992879,,,,,,,,,,,,,,AMP_prac,right,1.2506101159378886,3,,,right,0.7337942062877119,,,,,,,,,,,,,,,,,,,,,,,,,1034,2019_Jun_07_1352,mf_amp_cond1,3.0.7,59.98578201838819,
party,&&&&&,images/symbols/symbol_7.png,condition_files/AMP_rep2.csv,left,loyalty.virtue,,,,,,,,,,,,,,0,2,2,1,0,8,8,8,,,,,,,,,,,,,,,,,,,,,629.0595278604887,,,,,,,,,,,,,,AMP_prac,right,1.2506101159378886,3,,,right,0.6655221814289689,,,,,,,,,,,,,,,,,,,,,,,,,1034,2019_Jun_07_1352,mf_amp_cond1,3.0.7,59.98578201838819,
protesters,&&&&&&&&&&,images/symbols/symbol_51.png,condition_files/AMP_rep2.csv,right,authority.vice,,,,,,,,,,,,,,0,2,2,1,0,9,9,9,,,,,,,,,,,,,,,,,,,,,629.8931007282808,,,,,,,,,,,,,,AMP_prac,right,1.2506101159378886,3,,,left,0.6162715922109783,,,,,,,,,,,,,,,,,,,,,,,,,1034,2019_Jun_07_1352,mf_amp_cond1,3.0.7,59.98578201838819,
powerful,&&&&&&&&,images/symbols/symbol_41.png,condition_files/AMP_rep2.csv,left,authority.virtue,,,,,,,,,,,,,,0,2,2,1,0,10,10,10,,,,,,,,,,,,,,,,,,,,,630.7266723136418,,,,,,,,,,,,,,AMP_prac,right,1.2506101159378886,3,,,right,0.6161651089787483,,,,,,,,,,,,,,,,,,,,,,,,,1034,2019_Jun_07_1352,mf_amp_cond1,3.0.7,59.98578201838819,
progress,&&&&&&&&,images/symbols/symbol_15.png,condition_files/AMP_rep2.csv,left,authority.virtue,,,,,,,,,,,,,,0,2,2,1,0,11,11,11,,,,,,,,,,,,,,,,,,,,,631.8435396687128,,,,,,,,,,,,,,AMP_prac,right,1.2506101159378886,3,,,right,0.8990224357694387,,,,,,,,,,,,,,,,,,,,,,,,,1034,2019_Jun_07_1352,mf_amp_cond1,3.0.7,59.98578201838819,
died,&&&&,images/symbols/symbol_37.png,condition_files/AMP_rep2.csv,right,care.vice,,,,,,,,,,,,,,0,2,2,1,0,12,12,12,,,,,,,,,,,,,,,,,,,,,632.4771761060692,,,,,,,,,,,,,,AMP_prac,right,1.2506101159378886,3,,,left,0.4003584519959986,,,,,,,,,,,,,,,,,,,,,,,,,1034,2019_Jun_07_1352,mf_amp_cond1,3.0.7,59.98578201838819,
benefit,&&&&&&&,images/symbols/symbol_36.png,condition_files/AMP_rep2.csv,left,fairness.virtue,,,,,,,,,,,,,,0,2,2,1,0,13,13,13,,,,,,,,,,,,,,,,,,,,,633.4274655841291,,,,,,,,,,,,,,AMP_prac,right,1.2506101159378886,3,,,right,0.7318775015883148,,,,,,,,,,,,,,,,,,,,,,,,,1034,2019_Jun_07_1352,mf_amp_cond1,3.0.7,59.98578201838819,
values,&&&&&&,images/symbols/symbol_23.png,condition_files/AMP_rep2.csv,left,sanctity.virtue,,,,,,,,,,,,,,0,2,2,1,0,14,14,14,,,,,,,,,,,,,,,,,,,,,634.1943447585218,,,,,,,,,,,,,,AMP_prac,right,1.2506101159378886,3,,,right,0.5491250222548842,,,,,,,,,,,,,,,,,,,,,,,,,1034,2019_Jun_07_1352,mf_amp_cond1,3.0.7,59.98578201838819,
win,&&&,images/symbols/symbol_60.png,condition_files/AMP_rep2.csv,left,fairness.virtue,,,,,,,,,,,,,,0,2,2,1,0,15,15,15,,,,,,,,,,,,,,,,,,,,,634.9612428559922,,,,,,,,,,,,,,AMP_prac,right,1.2506101159378886,3,,,right,0.5337487263604999,,,,,,,,,,,,,,,,,,,,,,,,,1034,2019_Jun_07_1352,mf_amp_cond1,3.0.7,59.98578201838819,
peace,&&&&&,images/symbols/symbol_12.png,condition_files/AMP_rep2.csv,left,care.virtue,,,,,,,,,,,,,,0,2,2,1,0,16,16,16,,,,,,,,,,,,,,,,,,,,,635.9781929925084,,,,,,,,,,,,,,AMP_prac,right,1.2506101159378886,3,,,right,0.7987068658694625,,,,,,,,,,,,,,,,,,,,,,,,,1034,2019_Jun_07_1352,mf_amp_cond1,3.0.7,59.98578201838819,
spreussed,&&&&&&&&&,images/symbols/symbol_28.png,condition_files/AMP_rep2.csv,None,nonword,,,,,,,,,,,,,,0,2,2,1,0,17,17,17,,,,,,,,,,,,,,,,,,,,,637.2619252810255,,,,,,,,,,,,,,AMP_prac,right,1.2506101159378886,3,,,left,1.0659460634924471,,,,,,,,,,,,,,,,,,,,,,,,,1034,2019_Jun_07_1352,mf_amp_cond1,3.0.7,59.98578201838819,
wraize,&&&&&&,images/symbols/symbol_66.png,condition_files/AMP_rep2.csv,None,nonword,,,,,,,,,,,,,,0,2,2,1,0,18,18,18,,,,,,,,,,,,,,,,,,,,,638.3954544328153,,,,,,,,,,,,,,AMP_prac,right,1.2506101159378886,3,,,left,0.9159090667963028,,,,,,,,,,,,,,,,,,,,,,,,,1034,2019_Jun_07_1352,mf_amp_cond1,3.0.7,59.98578201838819,
arrests,&&&&&&&,images/symbols/symbol_18.png,condition_files/AMP_rep2.csv,right,authority.vice,,,,,,,,,,,,,,0,2,2,1,0,19,19,19,,,,,,,,,,,,,,,,,,,,,639.3792313998565,,,,,,,,,,,,,,AMP_prac,right,1.2506101159378886,3,,,left,0.7659381413832307,,,,,,,,,,,,,,,,,,,,,,,,,1034,2019_Jun_07_1352,mf_amp_cond1,3.0.7,59.98578201838819,
torture,&&&&&&&,images/symbols/symbol_21.png,condition_files/AMP_rep2.csv,right,care.vice,,,,,,,,,,,,,,0,2,2,1,0,20,20,20,,,,,,,,,,,,,,,,,,,,,641.3297729748301,,,,,,,,,,,,,,AMP_prac,right,1.2506101159378886,3,,,right,1.7330209175124764,,,,,,,,,,,,,,,,,,,,,,,,,1034,2019_Jun_07_1352,mf_amp_cond1,3.0.7,59.98578201838819,
energy,&&&&&&,images/symbols/symbol_35.png,condition_files/AMP_rep2.csv,left,sanctity.virtue,,,,,,,,,,,,,,0,2,2,1,0,21,21,21,,,,,,,,,,,,,,,,,,,,,642.3133892542683,,,,,,,,,,,,,,AMP_prac,right,1.2506101159378886,3,,,right,0.7657880377955735,,,,,,,,,,,,,,,,,,,,,,,,,1034,2019_Jun_07_1352,mf_amp_cond1,3.0.7,59.98578201838819,
growth,&&&&&&,images/symbols/symbol_54.png,condition_files/AMP_rep2.csv,left,care.virtue,,,,,,,,,,,,,,0,2,2,1,0,22,22,22,,,,,,,,,,,,,,,,,,,,,643.5470758541487,,,,,,,,,,,,,,AMP_prac,right,1.2506101159378886,3,,,left,1.0152521720156074,,,,,,,,,,,,,,,,,,,,,,,,,1034,2019_Jun_07_1352,mf_amp_cond1,3.0.7,59.98578201838819,
conspiracy,&&&&&&&&&&,images/symbols/symbol_79.png,condition_files/AMP_rep2.csv,right,sanctity.vice,,,,,,,,,,,,,,0,2,2,1,0,23,23,23,,,,,,,,,,,,,,,,,,,,,644.6807313752361,,,,,,,,,,,,,,AMP_prac,right,1.2506101159378886,3,,,left,0.915338802151382,,,,,,,,,,,,,,,,,,,,,,,,,1034,2019_Jun_07_1352,mf_amp_cond1,3.0.7,59.98578201838819,
accused,&&&&&&&,images/symbols/symbol_69.png,condition_files/AMP_rep2.csv,right,fairness.vice,,,,,,,,,,,,,,0,2,2,1,0,24,24,24,,,,,,,,,,,,,,,,,,,,,645.597660696134,,,,,,,,,,,,,,AMP_prac,right,1.2506101159378886,3,,,left,0.6991334739141166,,,,,,,,,,,,,,,,,,,,,,,,,1034,2019_Jun_07_1352,mf_amp_cond1,3.0.7,59.98578201838819,
embrace,&&&&&&&,images/symbols/symbol_39.png,condition_files/AMP_rep2.csv,left,authority.virtue,,,,,,,,,,,,,,0,2,2,1,0,25,25,25,,,,,,,,,,,,,,,,,,,,,646.5479565891437,,,,,,,,,,,,,,AMP_prac,right,1.2506101159378886,3,,,right,0.7324862540699542,,,,,,,,,,,,,,,,,,,,,,,,,1034,2019_Jun_07_1352,mf_amp_cond1,3.0.7,59.98578201838819,
prison,&&&&&&,images/symbols/symbol_22.png,condition_files/AMP_rep2.csv,right,fairness.vice,,,,,,,,,,,,,,0,2,2,1,0,26,26,26,,,,,,,,,,,,,,,,,,,,,647.4648657036014,,,,,,,,,,,,,,AMP_prac,right,1.2506101159378886,3,,,left,0.699261446017772,,,,,,,,,,,,,,,,,,,,,,,,,1034,2019_Jun_07_1352,mf_amp_cond1,3.0.7,59.98578201838819,
terrorists,&&&&&&&&&&,images/symbols/symbol_46.png,condition_files/AMP_rep2.csv,right,fairness.vice,,,,,,,,,,,,,,0,2,2,1,0,27,27,27,,,,,,,,,,,,,,,,,,,,,648.5151705453172,,,,,,,,,,,,,,AMP_prac,right,1.2506101159378886,3,,,left,0.8325699334964156,,,,,,,,,,,,,,,,,,,,,,,,,1034,2019_Jun_07_1352,mf_amp_cond1,3.0.7,59.98578201838819,
protect,&&&&&&&,images/symbols/symbol_6.png,condition_files/AMP_rep2.csv,left,fairness.virtue,,,,,,,,,,,,,,0,2,2,1,0,28,28,28,,,,,,,,,,,,,,,,,,,,,649.5488110235892,,,,,,,,,,,,,,AMP_prac,right,1.2506101159378886,3,,,left,0.8004866172559559,,,,,,,,,,,,,,,,,,,,,,,,,1034,2019_Jun_07_1352,mf_amp_cond1,3.0.7,59.98578201838819,
promote,&&&&&&&,images/symbols/symbol_24.png,condition_files/AMP_rep2.csv,left,sanctity.virtue,,,,,,,,,,,,,,0,2,2,1,0,29,29,29,,,,,,,,,,,,,,,,,,,,,650.6658092383295,,,,,,,,,,,,,,AMP_prac,right,1.2506101159378886,3,,,left,0.8987652072682977,,,,,,,,,,,,,,,,,,,,,,,,,1034,2019_Jun_07_1352,mf_amp_cond1,3.0.7,59.98578201838819,
suicide,&&&&&&&,images/symbols/symbol_75.png,condition_files/AMP_rep2.csv,right,care.vice,,,,,,,,,,,,,,0,2,2,1,0,30,30,30,,,,,,,,,,,,,,,,,,,,,651.9828577437438,,,,,,,,,,,,,,AMP_prac,right,1.2506101159378886,3,,,left,1.083906511310488,,,,,,,,,,,,,,,,,,,,,,,,,1034,2019_Jun_07_1352,mf_amp_cond1,3.0.7,59.98578201838819,
officers,&&&&&&&&,images/symbols/symbol_45.png,condition_files/AMP_rep2.csv,right,authority.vice,,,,,,,,,,,,,,0,2,2,1,0,31,31,31,,,,,,,,,,,,,,,,,,,,,653.2332273093052,,,,,,,,,,,,,,AMP_prac,right,1.2506101159378886,3,,,left,1.032267096452415,,,,,,,,,,,,,,,,,,,,,,,,,1034,2019_Jun_07_1352,mf_amp_cond1,3.0.7,59.98578201838819,
jipte,&&&&&,images/symbols/symbol_58.png,condition_files/AMP_rep2.csv,None,nonword,,,,,,,,,,,,,,0,2,2,1,0,32,32,32,,,,,,,,,,,,,,,,,,,,,654.2501787287183,,,,,,,,,,,,,,AMP_prac,right,1.2506101159378886,3,,,right,0.7991536478511989,,,,,,,,,,,,,,,,,,,,,,,,,1034,2019_Jun_07_1352,mf_amp_cond1,3.0.7,59.98578201838819,
peaceful,&&&&&&&&,images/symbols/symbol_40.png,condition_files/AMP_rep2.csv,left,authority.virtue,,,,,,,,,,,,,,0,2,2,1,0,33,33,33,,,,,,,,,,,,,,,,,,,,,655.1837878073566,,,,,,,,,,,,,,AMP_prac,right,1.2506101159378886,3,,,right,0.7156621660105884,,,,,,,,,,,,,,,,,,,,,,,,,1034,2019_Jun_07_1352,mf_amp_cond1,3.0.7,59.98578201838819,
gryssed,&&&&&&&,images/symbols/symbol_10.png,condition_files/AMP_rep2.csv,None,nonword,,,,,,,,,,,,,,0,2,2,1,0,34,34,34,,,,,,,,,,,,,,,,,,,,,656.634198683314,,,,,,,,,,,,,,AMP_prac,right,1.2506101159378886,3,,,right,1.2325521651655436,,,,,,,,,,,,,,,,,,,,,,,,,1034,2019_Jun_07_1352,mf_amp_cond1,3.0.7,59.98578201838819,
riot,&&&&,images/symbols/symbol_16.png,condition_files/AMP_rep2.csv,right,authority.vice,,,,,,,,,,,,,,0,2,2,1,0,35,35,35,,,,,,,,,,,,,,,,,,,,,657.4344316003844,,,,,,,,,,,,,,AMP_prac,right,1.2506101159378886,3,,,left,0.5827594068832695,,,,,,,,,,,,,,,,,,,,,,,,,1034,2019_Jun_07_1352,mf_amp_cond1,3.0.7,59.98578201838819,
violations,&&&&&&&&&&,images/symbols/symbol_64.png,condition_files/AMP_rep2.csv,right,sanctity.vice,,,,,,,,,,,,,,0,2,2,1,0,36,36,36,,,,,,,,,,,,,,,,,,,,,658.401372932829,,,,,,,,,,,,,,AMP_prac,right,1.2506101159378886,3,,,left,0.7491114875301719,,,,,,,,,,,,,,,,,,,,,,,,,1034,2019_Jun_07_1352,mf_amp_cond1,3.0.7,59.98578201838819,
agreement,&&&&&&&&&,images/symbols/symbol_47.png,condition_files/AMP_rep2.csv,left,fairness.virtue,,,,,,,,,,,,,,0,2,2,1,0,37,37,37,,,,,,,,,,,,,,,,,,,,,659.3850017203949,,,,,,,,,,,,,,AMP_prac,right,1.2506101159378886,3,,,left,0.7658679010346532,,,,,,,,,,,,,,,,,,,,,,,,,1034,2019_Jun_07_1352,mf_amp_cond1,3.0.7,59.98578201838819,
troops,&&&&&&,images/symbols/symbol_29.png,condition_files/AMP_rep2.csv,right,loyalty.vice,,,,,,,,,,,,,,0,2,2,1,0,38,38,38,,,,,,,,,,,,,,,,,,,,,660.3686234522611,,,,,,,,,,,,,,AMP_prac,right,1.2506101159378886,3,,,left,0.7657675109803677,,,,,,,,,,,,,,,,,,,,,,,,,1034,2019_Jun_07_1352,mf_amp_cond1,3.0.7,59.98578201838819,
prosecution,&&&&&&&&&&&,images/symbols/symbol_82.png,condition_files/AMP_rep2.csv,right,authority.vice,,,,,,,,,,,,,,0,2,2,1,0,39,39,39,,,,,,,,,,,,,,,,,,,,,661.2855482827872,,,,,,,,,,,,,,AMP_prac,right,1.2506101159378886,3,,,left,0.6996658914722502,,,,,,,,,,,,,,,,,,,,,,,,,1034,2019_Jun_07_1352,mf_amp_cond1,3.0.7,59.98578201838819,
increase,&&&&&&&&,images/symbols/symbol_8.png,condition_files/AMP_rep2.csv,left,care.virtue,,,,,,,,,,,,,,0,2,2,1,0,40,40,40,,,,,,,,,,,,,,,,,,,,,662.0191147681326,,,,,,,,,,,,,,AMP_prac,right,1.2506101159378886,3,,,right,0.5160503177903593,,,,,,,,,,,,,,,,,,,,,,,,,1034,2019_Jun_07_1352,mf_amp_cond1,3.0.7,59.98578201838819,
ensure,&&&&&&,images/symbols/symbol_59.png,condition_files/AMP_rep2.csv,left,fairness.virtue,,,,,,,,,,,,,,0,2,2,1,0,41,41,41,,,,,,,,,,,,,,,,,,,,,663.0360504719429,,,,,,,,,,,,,,AMP_prac,right,1.2506101159378886,3,,,right,0.7992232469841838,,,,,,,,,,,,,,,,,,,,,,,,,1034,2019_Jun_07_1352,mf_amp_cond1,3.0.7,59.98578201838819,
groups,&&&&&&,images/symbols/symbol_25.png,condition_files/AMP_rep2.csv,right,loyalty.vice,,,,,,,,,,,,,,0,2,2,1,0,42,42,42,,,,,,,,,,,,,,,,,,,,,664.35311116511,,,,,,,,,,,,,,AMP_prac,right,1.2506101159378886,3,,,left,1.0992148113436997,,,,,,,,,,,,,,,,,,,,,,,,,1034,2019_Jun_07_1352,mf_amp_cond1,3.0.7,59.98578201838819,
forced,&&&&&&,images/symbols/symbol_32.png,condition_files/AMP_rep2.csv,right,fairness.vice,,,,,,,,,,,,,,0,2,2,1,0,43,43,43,,,,,,,,,,,,,,,,,,,,,665.4367610896006,,,,,,,,,,,,,,AMP_prac,right,1.2506101159378886,3,,,left,0.8657745351083577,,,,,,,,,,,,,,,,,,,,,,,,,1034,2019_Jun_07_1352,mf_amp_cond1,3.0.7,59.98578201838819,
dighnd,&&&&&&,images/symbols/symbol_2.png,condition_files/AMP_rep2.csv,None,nonword,,,,,,,,,,,,,,0,2,2,1,0,44,44,44,,,,,,,,,,,,,,,,,,,,,666.4870540634729,,,,,,,,,,,,,,AMP_prac,right,1.2506101159378886,3,,,left,0.8323710788972676,,,,,,,,,,,,,,,,,,,,,,,,,1034,2019_Jun_07_1352,mf_amp_cond1,3.0.7,59.98578201838819,
violence,&&&&&&&&,images/symbols/symbol_70.png,condition_files/AMP_rep2.csv,right,care.vice,,,,,,,,,,,,,,0,2,2,1,0,45,45,45,,,,,,,,,,,,,,,,,,,,,667.5207006363198,,,,,,,,,,,,,,AMP_prac,right,1.2506101159378886,3,,,left,0.8159158346243203,,,,,,,,,,,,,,,,,,,,,,,,,1034,2019_Jun_07_1352,mf_amp_cond1,3.0.7,59.98578201838819,
love,&&&&,images/symbols/symbol_4.png,condition_files/AMP_rep2.csv,left,loyalty.virtue,,,,,,,,,,,,,,0,2,2,1,0,46,46,46,,,,,,,,,,,,,,,,,,,,,668.4376225802116,,,,,,,,,,,,,,AMP_prac,right,1.2506101159378886,3,,,right,0.6990253864787519,,,,,,,,,,,,,,,,,,,,,,,,,1034,2019_Jun_07_1352,mf_amp_cond1,3.0.7,59.98578201838819,
safety,&&&&&&,images/symbols/symbol_33.png,condition_files/AMP_rep2.csv,left,care.virtue,,,,,,,,,,,,,,0,2,2,1,0,47,47,47,,,,,,,,,,,,,,,,,,,,,669.6379769267514,,,,,,,,,,,,,,AMP_prac,right,1.2506101159378886,3,,,left,0.9826896796002984,,,,,,,,,,,,,,,,,,,,,,,,,1034,2019_Jun_07_1352,mf_amp_cond1,3.0.7,59.98578201838819,
crime,&&&&&,images/symbols/symbol_61.png,condition_files/AMP_rep2.csv,right,fairness.vice,,,,,,,,,,,,,,0,2,2,1,0,48,48,48,,,,,,,,,,,,,,,,,,,,,670.7883170167916,,,,,,,,,,,,,,AMP_prac,right,1.2506101159378886,3,,,left,0.9325500158593059,,,,,,,,,,,,,,,,,,,,,,,,,1034,2019_Jun_07_1352,mf_amp_cond1,3.0.7,59.98578201838819,
pheassed,&&&&&&&&,images/symbols/symbol_77.png,condition_files/AMP_rep2.csv,None,nonword,,,,,,,,,,,,,,0,2,2,1,0,49,49,49,,,,,,,,,,,,,,,,,,,,,671.7386157964356,,,,,,,,,,,,,,AMP_prac,right,1.2506101159378886,3,,,right,0.732562268152833,,,,,,,,,,,,,,,,,,,,,,,,,1034,2019_Jun_07_1352,mf_amp_cond1,3.0.7,59.98578201838819,
pleasant,&&&&&&&,images/symbols/symbol_44.png,condition_files/AMP_rep2.csv,right,control,,,,,,,,,,,,,,0,2,2,1,0,50,50,50,,,,,,,,,,,,,,,,,,,,,672.7722152210772,,,,,,,,,,,,,,AMP_prac,right,1.2506101159378886,3,,,left,0.8157785604707897,,,,,,,,,,,,,,,,,,,,,,,,,1034,2019_Jun_07_1352,mf_amp_cond1,3.0.7,59.98578201838819,
serial,&&&&&&,images/symbols/symbol_43.png,condition_files/AMP_rep2.csv,right,sanctity.vice,,,,,,,,,,,,,,0,2,2,1,0,51,51,51,,,,,,,,,,,,,,,,,,,,,673.872546186205,,,,,,,,,,,,,,AMP_prac,right,1.2506101159378886,3,,,left,0.8671777453273535,,,,,,,,,,,,,,,,,,,,,,,,,1034,2019_Jun_07_1352,mf_amp_cond1,3.0.7,59.98578201838819,
yakks,&&&&&,images/symbols/symbol_72.png,condition_files/AMP_rep2.csv,None,nonword,,,,,,,,,,,,,,0,2,2,1,0,52,52,52,,,,,,,,,,,,,,,,,,,,,674.9395112209022,,,,,,,,,,,,,,AMP_prac,right,1.2506101159378886,3,,,left,0.8486313167959452,,,,,,,,,,,,,,,,,,,,,,,,,1034,2019_Jun_07_1352,mf_amp_cond1,3.0.7,59.98578201838819,
trust,&&&&&,images/symbols/symbol_26.png,condition_files/AMP_rep2.csv,left,authority.virtue,,,,,,,,,,,,,,0,2,2,1,0,53,53,53,,,,,,,,,,,,,,,,,,,,,676.1731994245201,,,,,,,,,,,,,,AMP_prac,right,1.2506101159378886,3,,,left,1.0157874771393836,,,,,,,,,,,,,,,,,,,,,,,,,1034,2019_Jun_07_1352,mf_amp_cond1,3.0.7,59.98578201838819,
victims,&&&&&&&,images/symbols/symbol_71.png,condition_files/AMP_rep2.csv,right,care.vice,,,,,,,,,,,,,,0,2,2,1,0,54,54,54,,,,,,,,,,,,,,,,,,,,,677.340213178657,,,,,,,,,,,,,,AMP_prac,right,1.2506101159378886,3,,,left,0.9492698656395078,,,,,,,,,,,,,,,,,,,,,,,,,1034,2019_Jun_07_1352,mf_amp_cond1,3.0.7,59.98578201838819,
restore,&&&&&&&,images/symbols/symbol_78.png,condition_files/AMP_rep2.csv,left,care.virtue,,,,,,,,,,,,,,0,2,2,1,0,55,55,55,,,,,,,,,,,,,,,,,,,,,678.1406597043388,,,,,,,,,,,,,,AMP_prac,right,1.2506101159378886,3,,,right,0.5825737020932138,,,,,,,,,,,,,,,,,,,,,,,,,1034,2019_Jun_07_1352,mf_amp_cond1,3.0.7,59.98578201838819,
abuse,&&&&&,images/symbols/symbol_30.png,condition_files/AMP_rep2.csv,right,sanctity.vice,,,,,,,,,,,,,,0,2,2,1,0,56,56,56,,,,,,,,,,,,,,,,,,,,,678.8905271608382,,,,,,,,,,,,,,AMP_prac,right,1.2506101159378886,3,,,left,0.5323128015734255,,,,,,,,,,,,,,,,,,,,,,,,,1034,2019_Jun_07_1352,mf_amp_cond1,3.0.7,59.98578201838819,
slavery,&&&&&&&,images/symbols/symbol_27.png,condition_files/AMP_rep2.csv,right,loyalty.vice,,,,,,,,,,,,,,0,2,2,1,0,57,57,57,,,,,,,,,,,,,,,,,,,,,679.6242222604342,,,,,,,,,,,,,,AMP_prac,right,1.2506101159378886,3,,,left,0.515791165176779,,,,,,,,,,,,,,,,,,,,,,,,,1034,2019_Jun_07_1352,mf_amp_cond1,3.0.7,59.98578201838819,
dignity,&&&&&&&,images/symbols/symbol_73.png,condition_files/AMP_rep2.csv,left,sanctity.virtue,,,,,,,,,,,,,,0,2,2,1,0,58,58,58,,,,,,,,,,,,,,,,,,,,,680.6245590308681,,,,,,,,,,,,,,AMP_prac,right,1.2506101159378886,3,,,left,0.7825409229844809,,,,,,,,,,,,,,,,,,,,,,,,,1034,2019_Jun_07_1352,mf_amp_cond1,3.0.7,59.98578201838819,
rebels,&&&&&&,images/symbols/symbol_53.png,condition_files/AMP_rep2.csv,right,authority.vice,,,,,,,,,,,,,,0,2,2,1,0,59,59,59,,,,,,,,,,,,,,,,,,,,,681.8081730008125,,,,,,,,,,,,,,AMP_prac,right,1.2506101159378886,3,,,right,0.96597143355757,,,,,,,,,,,,,,,,,,,,,,,,,1034,2019_Jun_07_1352,mf_amp_cond1,3.0.7,59.98578201838819,
great,&&&&&,images/symbols/symbol_9.png,condition_files/AMP_rep2.csv,left,loyalty.virtue,,,,,,,,,,,,,,0,2,2,1,0,60,60,60,,,,,,,,,,,,,,,,,,,,,683.0918863662519,,,,,,,,,,,,,,AMP_prac,right,1.2506101159378886,3,,,left,1.0658809542655945,,,,,,,,,,,,,,,,,,,,,,,,,1034,2019_Jun_07_1352,mf_amp_cond1,3.0.7,59.98578201838819,
unpleasant,&&&&&&&&&,images/symbols/symbol_1.png,condition_files/AMP_rep2.csv,left,control,,,,,,,,,,,,,,0,2,2,1,0,61,61,61,,,,,,,,,,,,,,,,,,,,,684.0421636565588,,,,,,,,,,,,,,AMP_prac,right,1.2506101159378886,3,,,left,0.7324137683026493,,,,,,,,,,,,,,,,,,,,,,,,,1034,2019_Jun_07_1352,mf_amp_cond1,3.0.7,59.98578201838819,
gun,&&&,images/symbols/symbol_65.png,condition_files/AMP_rep2.csv,right,authority.vice,,,,,,,,,,,,,,0,2,2,1,0,62,62,62,,,,,,,,,,,,,,,,,,,,,684.9757653586566,,,,,,,,,,,,,,AMP_prac,right,1.2506101159378886,3,,,left,0.7157724983990192,,,,,,,,,,,,,,,,,,,,,,,,,1034,2019_Jun_07_1352,mf_amp_cond1,3.0.7,59.98578201838819,
injured,&&&&&&&,images/symbols/symbol_20.png,condition_files/AMP_rep2.csv,right,care.vice,,,,,,,,,,,,,,0,2,2,1,0,63,63,63,,,,,,,,,,,,,,,,,,,,,685.9593886942603,,,,,,,,,,,,,,AMP_prac,right,1.2506101159378886,3,,,left,0.7662745909765363,,,,,,,,,,,,,,,,,,,,,,,,,1034,2019_Jun_07_1352,mf_amp_cond1,3.0.7,59.98578201838819,
hope,&&&&,images/symbols/symbol_52.png,condition_files/AMP_rep2.csv,left,loyalty.virtue,,,,,,,,,,,,,,0,2,2,1,0,64,64,64,,,,,,,,,,,,,,,,,,,,,686.9596805619076,,,,,,,,,,,,,,AMP_prac,right,1.2506101159378886,3,,,right,0.7827548524364829,,,,,,,,,,,,,,,,,,,,,,,,,1034,2019_Jun_07_1352,mf_amp_cond1,3.0.7,59.98578201838819,
strong,&&&&&&,images/symbols/symbol_76.png,condition_files/AMP_rep2.csv,left,loyalty.virtue,,,,,,,,,,,,,,0,2,2,1,0,65,65,65,,,,,,,,,,,,,,,,,,,,,688.1934030842967,,,,,,,,,,,,,,AMP_prac,right,1.2506101159378886,3,,,left,1.0161367557011545,,,,,,,,,,,,,,,,,,,,,,,,,1034,2019_Jun_07_1352,mf_amp_cond1,3.0.7,59.98578201838819,
opportunity,&&&&&&&&&&&,images/symbols/symbol_5.png,condition_files/AMP_rep2.csv,left,fairness.virtue,,,,,,,,,,,,,,0,2,2,1,0,66,66,66,,,,,,,,,,,,,,,,,,,,,689.6437940746546,,,,,,,,,,,,,,AMP_prac,right,1.2506101159378886,3,,,left,1.2326442152261734,,,,,,,,,,,,,,,,,,,,,,,,,1034,2019_Jun_07_1352,mf_amp_cond1,3.0.7,59.98578201838819,
loyalty,&&&&&&&,images/symbols/symbol_38.png,condition_files/AMP_rep2.csv,left,loyalty.virtue,,,,,,,,,,,,,,0,2,2,1,0,67,67,67,,,,,,,,,,,,,,,,,,,,,690.7607801011764,,,,,,,,,,,,,,AMP_prac,right,1.2506101159378886,3,,,left,0.8991937073878944,,,,,,,,,,,,,,,,,,,,,,,,,1034,2019_Jun_07_1352,mf_amp_cond1,3.0.7,59.98578201838819,
men,&&&,images/symbols/symbol_13.png,condition_files/AMP_rep2.csv,right,loyalty.vice,,,,,,,,,,,,,,0,2,2,1,0,68,68,68,,,,,,,,,,,,,,,,,,,,,691.7277294518426,,,,,,,,,,,,,,AMP_prac,right,1.2506101159378886,3,,,left,0.749194236472249,,,,,,,,,,,,,,,,,,,,,,,,,1034,2019_Jun_07_1352,mf_amp_cond1,3.0.7,59.98578201838819,
threatened,&&&&&&&&&&,images/symbols/symbol_11.png,condition_files/AMP_rep2.csv,right,fairness.vice,,,,,,,,,,,,,,0,2,2,1,0,69,69,69,,,,,,,,,,,,,,,,,,,,,692.8113886774518,,,,,,,,,,,,,,AMP_prac,right,1.2506101159378886,3,,,left,0.8657524040900171,,,,,,,,,,,,,,,,,,,,,,,,,1034,2019_Jun_07_1352,mf_amp_cond1,3.0.7,59.98578201838819,
stealde,&&&&&&&,images/symbols/symbol_14.png,condition_files/AMP_rep2.csv,None,nonword,,,,,,,,,,,,,,0,2,2,1,0,70,70,70,,,,,,,,,,,,,,,,,,,,,693.7616480067372,,,,,,,,,,,,,,AMP_prac,right,1.2506101159378886,3,,,left,0.7324833674356341,,,,,,,,,,,,,,,,,,,,,,,,,1034,2019_Jun_07_1352,mf_amp_cond1,3.0.7,59.98578201838819,
praise,&&&&&&,images/symbols/symbol_50.png,condition_files/AMP_rep2.csv,left,authority.virtue,,,,,,,,,,,,,,0,2,2,1,0,71,71,71,,,,,,,,,,,,,,,,,,,,,694.4285252885893,,,,,,,,,,,,,,AMP_prac,right,1.2506101159378886,3,,,right,0.44916193885728717,,,,,,,,,,,,,,,,,,,,,,,,,1034,2019_Jun_07_1352,mf_amp_cond1,3.0.7,59.98578201838819,
care,&&&&,images/symbols/symbol_34.png,condition_files/AMP_rep2.csv,left,care.virtue,,,,,,,,,,,,,,0,2,2,1,0,72,72,72,,,,,,,,,,,,,,,,,,,,,695.4954932094552,,,,,,,,,,,,,,AMP_prac,right,1.2506101159378886,3,,,right,0.8490963806398213,,,,,,,,,,,,,,,,,,,,,,,,,1034,2019_Jun_07_1352,mf_amp_cond1,3.0.7,59.98578201838819,
critics,&&&&&&&,images/symbols/symbol_81.png,condition_files/AMP_rep2.csv,right,loyalty.vice,,,,,,,,,,,,,,0,2,2,1,0,73,73,73,,,,,,,,,,,,,,,,,,,,,696.5124510438181,,,,,,,,,,,,,,AMP_prac,right,1.2506101159378886,3,,,right,0.7838078215718269,,,,,,,,,,,,,,,,,,,,,,,,,1034,2019_Jun_07_1352,mf_amp_cond1,3.0.7,59.98578201838819,
freedom,&&&&&&&,images/symbols/symbol_57.png,condition_files/AMP_rep2.csv,left,sanctity.virtue,,,,,,,,,,,,,,0,2,2,1,0,74,74,74,,,,,,,,,,,,,,,,,,,,,697.4793984699063,,,,,,,,,,,,,,AMP_prac,right,1.2506101159378886,3,,,right,0.7337881126441061,,,,,,,,,,,,,,,,,,,,,,,,,1034,2019_Jun_07_1352,mf_amp_cond1,3.0.7,59.98578201838819,
sexual,&&&&&&,images/symbols/symbol_49.png,condition_files/AMP_rep2.csv,right,sanctity.vice,,,,,,,,,,,,,,0,2,2,1,0,75,75,75,,,,,,,,,,,,,,,,,,,,,698.5463724853471,,,,,,,,,,,,,,AMP_prac,right,1.2506101159378886,3,,,right,0.8491717530414462,,,,,,,,,,,,,,,,,,,,,,,,,1034,2019_Jun_07_1352,mf_amp_cond1,3.0.7,59.98578201838819,
promised,&&&&&&&&,images/symbols/symbol_56.png,condition_files/AMP_rep2.csv,left,loyalty.virtue,,,,,,,,,,,,,,0,2,2,1,0,76,76,76,,,,,,,,,,,,,,,,,,,,,699.5466633904725,,,,,,,,,,,,,,AMP_prac,right,1.2506101159378886,3,,,right,0.7671412136405706,,,,,,,,,,,,,,,,,,,,,,,,,1034,2019_Jun_07_1352,mf_amp_cond1,3.0.7,59.98578201838819,
blamed,&&&&&&,images/symbols/symbol_62.png,condition_files/AMP_rep2.csv,right,loyalty.vice,,,,,,,,,,,,,,0,2,2,1,0,77,77,77,,,,,,,,,,,,,,,,,,,,,700.2135348995216,,,,,,,,,,,,,,AMP_prac,right,1.2506101159378886,3,,,left,0.4482959574088454,,,,,,,,,,,,,,,,,,,,,,,,,1034,2019_Jun_07_1352,mf_amp_cond1,3.0.7,59.98578201838819,
wayed,&&&&&,images/symbols/symbol_74.png,condition_files/AMP_rep2.csv,None,nonword,,,,,,,,,,,,,,0,2,2,1,0,78,78,78,,,,,,,,,,,,,,,,,,,,,701.6306016547605,,,,,,,,,,,,,,AMP_prac,right,1.2506101159378886,3,,,left,1.1992786056362092,,,,,,,,,,,,,,,,,,,,,,,,,1034,2019_Jun_07_1352,mf_amp_cond1,3.0.7,59.98578201838819,
help,&&&&,images/symbols/symbol_42.png,condition_files/AMP_rep2.csv,left,care.virtue,,,,,,,,,,,,,,0,2,2,1,0,79,79,79,,,,,,,,,,,,,,,,,,,,,702.6975939515978,,,,,,,,,,,,,,AMP_prac,right,1.2506101159378886,3,,,left,0.8338191914372146,,,,,,,,,,,,,,,,,,,,,,,,,1034,2019_Jun_07_1352,mf_amp_cond1,3.0.7,59.98578201838819,
clean,&&&&&,images/symbols/symbol_55.png,condition_files/AMP_rep2.csv,left,sanctity.virtue,,,,,,,,,,,,,,0,2,2,1,0,80,80,80,,,,,,,,,,,,,,,,,,,,,703.664546509739,,,,,,,,,,,,,,AMP_prac,right,1.2506101159378886,3,,,left,0.733805431984365,,,,,,,,,,,,,,,,,,,,,,,,,1034,2019_Jun_07_1352,mf_amp_cond1,3.0.7,59.98578201838819,
honored,&&&&&&&,images/symbols/symbol_3.png,condition_files/AMP_rep2.csv,left,authority.virtue,,,,,,,,,,,,,,0,2,2,1,0,81,81,81,,,,,,,,,,,,,,,,,,,,,704.6648233025335,,,,,,,,,,,,,,AMP_prac,right,1.2506101159378886,3,,,right,0.7819068329408765,,,,,,,,,,,,,,,,,,,,,,,,,1034,2019_Jun_07_1352,mf_amp_cond1,3.0.7,59.98578201838819,
,,,condition_files/AMP_rep2.csv,,,,,,,,,,,,,,,,0,2,2,1,,,,,,,,,,,,,,,,,,,,,,,,,,,,,,,,,,,,,,,,,,,,,,,right,21.42313311295584,,,,,,,,,,,,,,,,,,,,,,,1034,2019_Jun_07_1352,mf_amp_cond1,3.0.7,59.98578201838819,
fear,&&&&,images/symbols/symbol_31.png,condition_files/AMP_rep3.csv,right,sanctity.vice,,,,,,,,,,,,,,0,3,3,2,0,0,0,0,,,,,,,,,,,,,,,,,,,,,727.0047952900641,,,,,,,,,,,,,,AMP_prac,right,1.2506101159378886,3,,,left,0.6504377531819046,,,,,,,,,,,,,,,,,,,,,,,,,1034,2019_Jun_07_1352,mf_amp_cond1,3.0.7,59.98578201838819,
stroad,&&&&&&,images/symbols/symbol_63.png,condition_files/AMP_rep3.csv,None,nonword,,,,,,,,,,,,,,0,3,3,2,0,1,1,1,,,,,,,,,,,,,,,,,,,,,728.0549516314641,,,,,,,,,,,,,,AMP_prac,right,1.2506101159378886,3,,,left,0.8171227555721998,,,,,,,,,,,,,,,,,,,,,,,,,1034,2019_Jun_07_1352,mf_amp_cond1,3.0.7,59.98578201838819,
lies,&&&&,images/symbols/symbol_17.png,condition_files/AMP_rep3.csv,right,fairness.vice,,,,,,,,,,,,,,0,3,3,2,0,2,2,2,,,,,,,,,,,,,,,,,,,,,728.9385493402369,,,,,,,,,,,,,,AMP_prac,right,1.2506101159378886,3,,,left,0.6650151014328003,,,,,,,,,,,,,,,,,,,,,,,,,1034,2019_Jun_07_1352,mf_amp_cond1,3.0.7,59.98578201838819,
drug,&&&&,images/symbols/symbol_48.png,condition_files/AMP_rep3.csv,right,sanctity.vice,,,,,,,,,,,,,,0,3,3,2,0,3,3,3,,,,,,,,,,,,,,,,,,,,,729.7221214226447,,,,,,,,,,,,,,AMP_prac,right,1.2506101159378886,3,,,left,0.5657377471216023,,,,,,,,,,,,,,,,,,,,,,,,,1034,2019_Jun_07_1352,mf_amp_cond1,3.0.7,59.98578201838819,
civilians,&&&&&&&&&,images/symbols/symbol_80.png,condition_files/AMP_rep3.csv,right,care.vice,,,,,,,,,,,,,,0,3,3,2,0,4,4,4,,,,,,,,,,,,,,,,,,,,,731.1558708222583,,,,,,,,,,,,,,AMP_prac,right,1.2506101159378886,3,,,left,1.2163785248994827,,,,,,,,,,,,,,,,,,,,,,,,,1034,2019_Jun_07_1352,mf_amp_cond1,3.0.7,59.98578201838819,
strength,&&&&&&&&,images/symbols/symbol_67.png,condition_files/AMP_rep3.csv,left,sanctity.virtue,,,,,,,,,,,,,,0,3,3,2,0,5,5,5,,,,,,,,,,,,,,,,,,,,,732.1061407360248,,,,,,,,,,,,,,AMP_prac,right,1.2506101159378886,3,,,right,0.7319256118498743,,,,,,,,,,,,,,,,,,,,,,,,,1034,2019_Jun_07_1352,mf_amp_cond1,3.0.7,59.98578201838819,
failure,&&&&&&&,images/symbols/symbol_19.png,condition_files/AMP_rep3.csv,right,loyalty.vice,,,,,,,,,,,,,,0,3,3,2,0,6,6,6,,,,,,,,,,,,,,,,,,,,,732.9230409017764,,,,,,,,,,,,,,AMP_prac,right,1.2506101159378886,3,,,left,0.5990946968086064,,,,,,,,,,,,,,,,,,,,,,,,,1034,2019_Jun_07_1352,mf_amp_cond1,3.0.7,59.98578201838819,
interests,&&&&&&&&&,images/symbols/symbol_68.png,condition_files/AMP_rep3.csv,left,fairness.virtue,,,,,,,,,,,,,,0,3,3,2,0,7,7,7,,,,,,,,,,,,,,,,,,,,,734.0233580754139,,,,,,,,,,,,,,AMP_prac,right,1.2506101159378886,3,,,left,0.8671694057993591,,,,,,,,,,,,,,,,,,,,,,,,,1034,2019_Jun_07_1352,mf_amp_cond1,3.0.7,59.98578201838819,
party,&&&&&,images/symbols/symbol_7.png,condition_files/AMP_rep3.csv,left,loyalty.virtue,,,,,,,,,,,,,,0,3,3,2,0,8,8,8,,,,,,,,,,,,,,,,,,,,,735.0403223242611,,,,,,,,,,,,,,AMP_prac,right,1.2506101159378886,3,,,right,0.7984432228840888,,,,,,,,,,,,,,,,,,,,,,,,,1034,2019_Jun_07_1352,mf_amp_cond1,3.0.7,59.98578201838819,
protesters,&&&&&&&&&&,images/symbols/symbol_51.png,condition_files/AMP_rep3.csv,right,authority.vice,,,,,,,,,,,,,,0,3,3,2,0,9,9,9,,,,,,,,,,,,,,,,,,,,,736.0239482256584,,,,,,,,,,,,,,AMP_prac,right,1.2506101159378886,3,,,left,0.7662951182574034,,,,,,,,,,,,,,,,,,,,,,,,,1034,2019_Jun_07_1352,mf_amp_cond1,3.0.7,59.98578201838819,
powerful,&&&&&&&&,images/symbols/symbol_41.png,condition_files/AMP_rep3.csv,left,authority.virtue,,,,,,,,,,,,,,0,3,3,2,0,10,10,10,,,,,,,,,,,,,,,,,,,,,737.0408932305872,,,,,,,,,,,,,,AMP_prac,right,1.2506101159378886,3,,,left,0.7995949774049222,,,,,,,,,,,,,,,,,,,,,,,,,1034,2019_Jun_07_1352,mf_amp_cond1,3.0.7,59.98578201838819,
progress,&&&&&&&&,images/symbols/symbol_15.png,condition_files/AMP_rep3.csv,left,authority.virtue,,,,,,,,,,,,,,0,3,3,2,0,11,11,11,,,,,,,,,,,,,,,,,,,,,738.0912009584717,,,,,,,,,,,,,,AMP_prac,right,1.2506101159378886,3,,,left,0.8325317660346627,,,,,,,,,,,,,,,,,,,,,,,,,1034,2019_Jun_07_1352,mf_amp_cond1,3.0.7,59.98578201838819,
died,&&&&,images/symbols/symbol_37.png,condition_files/AMP_rep3.csv,right,care.vice,,,,,,,,,,,,,,0,3,3,2,0,12,12,12,,,,,,,,,,,,,,,,,,,,,739.3915802901611,,,,,,,,,,,,,,AMP_prac,right,1.2506101159378886,3,,,left,1.067223866470158,,,,,,,,,,,,,,,,,,,,,,,,,1034,2019_Jun_07_1352,mf_amp_cond1,3.0.7,59.98578201838819,
benefit,&&&&&&&,images/symbols/symbol_36.png,condition_files/AMP_rep3.csv,left,fairness.virtue,,,,,,,,,,,,,,0,3,3,2,0,13,13,13,,,,,,,,,,,,,,,,,,,,,740.575256803073,,,,,,,,,,,,,,AMP_prac,right,1.2506101159378886,3,,,right,0.9653986026532948,,,,,,,,,,,,,,,,,,,,,,,,,1034,2019_Jun_07_1352,mf_amp_cond1,3.0.7,59.98578201838819,
values,&&&&&&,images/symbols/symbol_23.png,condition_files/AMP_rep3.csv,left,sanctity.virtue,,,,,,,,,,,,,,0,3,3,2,0,14,14,14,,,,,,,,,,,,,,,,,,,,,741.5588811007328,,,,,,,,,,,,,,AMP_prac,right,1.2506101159378886,3,,,right,0.7654525502584875,,,,,,,,,,,,,,,,,,,,,,,,,1034,2019_Jun_07_1352,mf_amp_cond1,3.0.7,59.98578201838819,
win,&&&,images/symbols/symbol_60.png,condition_files/AMP_rep3.csv,left,fairness.virtue,,,,,,,,,,,,,,0,3,3,2,0,15,15,15,,,,,,,,,,,,,,,,,,,,,742.5758334826678,,,,,,,,,,,,,,AMP_prac,right,1.2506101159378886,3,,,right,0.78380461409688,,,,,,,,,,,,,,,,,,,,,,,,,1034,2019_Jun_07_1352,mf_amp_cond1,3.0.7,59.98578201838819,
peace,&&&&&,images/symbols/symbol_12.png,condition_files/AMP_rep3.csv,left,care.virtue,,,,,,,,,,,,,,0,3,3,2,0,16,16,16,,,,,,,,,,,,,,,,,,,,,743.676164126955,,,,,,,,,,,,,,AMP_prac,right,1.2506101159378886,3,,,right,0.8817150015383959,,,,,,,,,,,,,,,,,,,,,,,,,1034,2019_Jun_07_1352,mf_amp_cond1,3.0.7,59.98578201838819,
spreussed,&&&&&&&&&,images/symbols/symbol_28.png,condition_files/AMP_rep3.csv,None,nonword,,,,,,,,,,,,,,0,3,3,2,0,17,17,17,,,,,,,,,,,,,,,,,,,,,744.7097959457897,,,,,,,,,,,,,,AMP_prac,right,1.2506101159378886,3,,,right,0.8158937036059797,,,,,,,,,,,,,,,,,,,,,,,,,1034,2019_Jun_07_1352,mf_amp_cond1,3.0.7,59.98578201838819,
wraize,&&&&&&,images/symbols/symbol_66.png,condition_files/AMP_rep3.csv,None,nonword,,,,,,,,,,,,,,0,3,3,2,0,18,18,18,,,,,,,,,,,,,,,,,,,,,745.6767459381372,,,,,,,,,,,,,,AMP_prac,right,1.2506101159378886,3,,,right,0.7492728163488209,,,,,,,,,,,,,,,,,,,,,,,,,1034,2019_Jun_07_1352,mf_amp_cond1,3.0.7,59.98578201838819,
arrests,&&&&&&&,images/symbols/symbol_18.png,condition_files/AMP_rep3.csv,right,authority.vice,,,,,,,,,,,,,,0,3,3,2,0,19,19,19,,,,,,,,,,,,,,,,,,,,,746.4269597870298,,,,,,,,,,,,,,AMP_prac,right,1.2506101159378886,3,,,left,0.5326598356477916,,,,,,,,,,,,,,,,,,,,,,,,,1034,2019_Jun_07_1352,mf_amp_cond1,3.0.7,59.98578201838819,
torture,&&&&&&&,images/symbols/symbol_21.png,condition_files/AMP_rep3.csv,right,care.vice,,,,,,,,,,,,,,0,3,3,2,0,20,20,20,,,,,,,,,,,,,,,,,,,,,747.4272590316832,,,,,,,,,,,,,,AMP_prac,right,1.2506101159378886,3,,,left,0.7827564561739564,,,,,,,,,,,,,,,,,,,,,,,,,1034,2019_Jun_07_1352,mf_amp_cond1,3.0.7,59.98578201838819,
energy,&&&&&&,images/symbols/symbol_35.png,condition_files/AMP_rep3.csv,left,sanctity.virtue,,,,,,,,,,,,,,0,3,3,2,0,21,21,21,,,,,,,,,,,,,,,,,,,,,748.4942256701179,,,,,,,,,,,,,,AMP_prac,right,1.2506101159378886,3,,,right,0.8491339068859816,,,,,,,,,,,,,,,,,,,,,,,,,1034,2019_Jun_07_1352,mf_amp_cond1,3.0.7,59.98578201838819,
growth,&&&&&&,images/symbols/symbol_54.png,condition_files/AMP_rep3.csv,left,care.virtue,,,,,,,,,,,,,,0,3,3,2,0,22,22,22,,,,,,,,,,,,,,,,,,,,,749.5945434849709,,,,,,,,,,,,,,AMP_prac,right,1.2506101159378886,3,,,left,0.8822679463773966,,,,,,,,,,,,,,,,,,,,,,,,,1034,2019_Jun_07_1352,mf_amp_cond1,3.0.7,59.98578201838819,
conspiracy,&&&&&&&&&&,images/symbols/symbol_79.png,condition_files/AMP_rep3.csv,right,sanctity.vice,,,,,,,,,,,,,,0,3,3,2,0,23,23,23,,,,,,,,,,,,,,,,,,,,,750.6617384855635,,,,,,,,,,,,,,AMP_prac,right,1.2506101159378886,3,,,left,0.8492689356207848,,,,,,,,,,,,,,,,,,,,,,,,,1034,2019_Jun_07_1352,mf_amp_cond1,3.0.7,59.98578201838819,
accused,&&&&&&&,images/symbols/symbol_69.png,condition_files/AMP_rep3.csv,right,fairness.vice,,,,,,,,,,,,,,0,3,3,2,0,24,24,24,,,,,,,,,,,,,,,,,,,,,751.5449744067155,,,,,,,,,,,,,,AMP_prac,right,1.2506101159378886,3,,,left,0.6651110011152923,,,,,,,,,,,,,,,,,,,,,,,,,1034,2019_Jun_07_1352,mf_amp_cond1,3.0.7,59.98578201838819,
embrace,&&&&&&&,images/symbols/symbol_39.png,condition_files/AMP_rep3.csv,left,authority.virtue,,,,,,,,,,,,,,0,3,3,2,0,25,25,25,,,,,,,,,,,,,,,,,,,,,752.3453779541887,,,,,,,,,,,,,,AMP_prac,right,1.2506101159378886,3,,,right,0.582440597936511,,,,,,,,,,,,,,,,,,,,,,,,,1034,2019_Jun_07_1352,mf_amp_cond1,3.0.7,59.98578201838819,
prison,&&&&&&,images/symbols/symbol_22.png,condition_files/AMP_rep3.csv,right,fairness.vice,,,,,,,,,,,,,,0,3,3,2,0,26,26,26,,,,,,,,,,,,,,,,,,,,,753.0455409828573,,,,,,,,,,,,,,AMP_prac,right,1.2506101159378886,3,,,left,0.48250285256654024,,,,,,,,,,,,,,,,,,,,,,,,,1034,2019_Jun_07_1352,mf_amp_cond1,3.0.7,59.98578201838819,
terrorists,&&&&&&&&&&,images/symbols/symbol_46.png,condition_files/AMP_rep3.csv,right,fairness.vice,,,,,,,,,,,,,,0,3,3,2,0,27,27,27,,,,,,,,,,,,,,,,,,,,,753.8457838427275,,,,,,,,,,,,,,AMP_prac,right,1.2506101159378886,3,,,left,0.5824778024107218,,,,,,,,,,,,,,,,,,,,,,,,,1034,2019_Jun_07_1352,mf_amp_cond1,3.0.7,59.98578201838819,
protect,&&&&&&&,images/symbols/symbol_6.png,condition_files/AMP_rep3.csv,left,fairness.virtue,,,,,,,,,,,,,,0,3,3,2,0,28,28,28,,,,,,,,,,,,,,,,,,,,,754.912757536862,,,,,,,,,,,,,,AMP_prac,right,1.2506101159378886,3,,,left,0.8338118148967624,,,,,,,,,,,,,,,,,,,,,,,,,1034,2019_Jun_07_1352,mf_amp_cond1,3.0.7,59.98578201838819,
promote,&&&&&&&,images/symbols/symbol_24.png,condition_files/AMP_rep3.csv,left,sanctity.virtue,,,,,,,,,,,,,,0,3,3,2,0,29,29,29,,,,,,,,,,,,,,,,,,,,,755.7796870344318,,,,,,,,,,,,,,AMP_prac,right,1.2506101159378886,3,,,right,0.6482872338965535,,,,,,,,,,,,,,,,,,,,,,,,,1034,2019_Jun_07_1352,mf_amp_cond1,3.0.7,59.98578201838819,
suicide,&&&&&&&,images/symbols/symbol_75.png,condition_files/AMP_rep3.csv,right,care.vice,,,,,,,,,,,,,,0,3,3,2,0,30,30,30,,,,,,,,,,,,,,,,,,,,,756.7466841740534,,,,,,,,,,,,,,AMP_prac,right,1.2506101159378886,3,,,left,0.733851938508451,,,,,,,,,,,,,,,,,,,,,,,,,1034,2019_Jun_07_1352,mf_amp_cond1,3.0.7,59.98578201838819,
officers,&&&&&&&&,images/symbols/symbol_45.png,condition_files/AMP_rep3.csv,right,authority.vice,,,,,,,,,,,,,,0,3,3,2,0,31,31,31,,,,,,,,,,,,,,,,,,,,,757.7135783587582,,,,,,,,,,,,,,AMP_prac,right,1.2506101159378886,3,,,left,0.7487147399224341,,,,,,,,,,,,,,,,,,,,,,,,,1034,2019_Jun_07_1352,mf_amp_cond1,3.0.7,59.98578201838819,
jipte,&&&&&,images/symbols/symbol_58.png,condition_files/AMP_rep3.csv,None,nonword,,,,,,,,,,,,,,0,3,3,2,0,32,32,32,,,,,,,,,,,,,,,,,,,,,758.6805161628872,,,,,,,,,,,,,,AMP_prac,right,1.2506101159378886,3,,,left,0.7490563211031258,,,,,,,,,,,,,,,,,,,,,,,,,1034,2019_Jun_07_1352,mf_amp_cond1,3.0.7,59.98578201838819,
peaceful,&&&&&&&&,images/symbols/symbol_40.png,condition_files/AMP_rep3.csv,left,authority.virtue,,,,,,,,,,,,,,0,3,3,2,0,33,33,33,,,,,,,,,,,,,,,,,,,,,759.580783045385,,,,,,,,,,,,,,AMP_prac,right,1.2506101159378886,3,,,left,0.6822789157740772,,,,,,,,,,,,,,,,,,,,,,,,,1034,2019_Jun_07_1352,mf_amp_cond1,3.0.7,59.98578201838819,
gryssed,&&&&&&&,images/symbols/symbol_10.png,condition_files/AMP_rep3.csv,None,nonword,,,,,,,,,,,,,,0,3,3,2,0,34,34,34,,,,,,,,,,,,,,,,,,,,,760.714438887313,,,,,,,,,,,,,,AMP_prac,right,1.2506101159378886,3,,,left,0.915966157335788,,,,,,,,,,,,,,,,,,,,,,,,,1034,2019_Jun_07_1352,mf_amp_cond1,3.0.7,59.98578201838819,
riot,&&&&,images/symbols/symbol_16.png,condition_files/AMP_rep3.csv,right,authority.vice,,,,,,,,,,,,,,0,3,3,2,0,35,35,35,,,,,,,,,,,,,,,,,,,,,761.4813498142175,,,,,,,,,,,,,,AMP_prac,right,1.2506101159378886,3,,,left,0.5491885272786021,,,,,,,,,,,,,,,,,,,,,,,,,1034,2019_Jun_07_1352,mf_amp_cond1,3.0.7,59.98578201838819,
violations,&&&&&&&&&&,images/symbols/symbol_64.png,condition_files/AMP_rep3.csv,right,sanctity.vice,,,,,,,,,,,,,,0,3,3,2,0,36,36,36,,,,,,,,,,,,,,,,,,,,,762.1982461637817,,,,,,,,,,,,,,AMP_prac,right,1.2506101159378886,3,,,left,0.4990677870810032,,,,,,,,,,,,,,,,,,,,,,,,,1034,2019_Jun_07_1352,mf_amp_cond1,3.0.7,59.98578201838819,
agreement,&&&&&&&&&,images/symbols/symbol_47.png,condition_files/AMP_rep3.csv,left,fairness.virtue,,,,,,,,,,,,,,0,3,3,2,0,37,37,37,,,,,,,,,,,,,,,,,,,,,762.9484269772656,,,,,,,,,,,,,,AMP_prac,right,1.2506101159378886,3,,,left,0.532339742872864,,,,,,,,,,,,,,,,,,,,,,,,,1034,2019_Jun_07_1352,mf_amp_cond1,3.0.7,59.98578201838819,
troops,&&&&&&,images/symbols/symbol_29.png,condition_files/AMP_rep3.csv,right,loyalty.vice,,,,,,,,,,,,,,0,3,3,2,0,38,38,38,,,,,,,,,,,,,,,,,,,,,763.8820440745912,,,,,,,,,,,,,,AMP_prac,right,1.2506101159378886,3,,,left,0.7156900698319077,,,,,,,,,,,,,,,,,,,,,,,,,1034,2019_Jun_07_1352,mf_amp_cond1,3.0.7,59.98578201838819,
prosecution,&&&&&&&&&&&,images/symbols/symbol_82.png,condition_files/AMP_rep3.csv,right,authority.vice,,,,,,,,,,,,,,0,3,3,2,0,39,39,39,,,,,,,,,,,,,,,,,,,,,764.8990022293292,,,,,,,,,,,,,,AMP_prac,right,1.2506101159378886,3,,,left,0.7995388489216566,,,,,,,,,,,,,,,,,,,,,,,,,1034,2019_Jun_07_1352,mf_amp_cond1,3.0.7,59.98578201838819,
increase,&&&&&&&&,images/symbols/symbol_8.png,condition_files/AMP_rep3.csv,left,care.virtue,,,,,,,,,,,,,,0,3,3,2,0,40,40,40,,,,,,,,,,,,,,,,,,,,,765.7158959805965,,,,,,,,,,,,,,AMP_prac,right,1.2506101159378886,3,,,right,0.5991726354695857,,,,,,,,,,,,,,,,,,,,,,,,,1034,2019_Jun_07_1352,mf_amp_cond1,3.0.7,59.98578201838819,
ensure,&&&&&&,images/symbols/symbol_59.png,condition_files/AMP_rep3.csv,left,fairness.virtue,,,,,,,,,,,,,,0,3,3,2,0,41,41,41,,,,,,,,,,,,,,,,,,,,,766.4827892673202,,,,,,,,,,,,,,AMP_prac,right,1.2506101159378886,3,,,right,0.5491157211363316,,,,,,,,,,,,,,,,,,,,,,,,,1034,2019_Jun_07_1352,mf_amp_cond1,3.0.7,59.98578201838819,
groups,&&&&&&,images/symbols/symbol_25.png,condition_files/AMP_rep3.csv,right,loyalty.vice,,,,,,,,,,,,,,0,3,3,2,0,42,42,42,,,,,,,,,,,,,,,,,,,,,767.2830205801874,,,,,,,,,,,,,,AMP_prac,right,1.2506101159378886,3,,,right,0.5822920980863273,,,,,,,,,,,,,,,,,,,,,,,,,1034,2019_Jun_07_1352,mf_amp_cond1,3.0.7,59.98578201838819,
forced,&&&&&&,images/symbols/symbol_32.png,condition_files/AMP_rep3.csv,right,fairness.vice,,,,,,,,,,,,,,0,3,3,2,0,43,43,43,,,,,,,,,,,,,,,,,,,,,768.2333084549755,,,,,,,,,,,,,,AMP_prac,right,1.2506101159378886,3,,,right,0.7323999768123031,,,,,,,,,,,,,,,,,,,,,,,,,1034,2019_Jun_07_1352,mf_amp_cond1,3.0.7,59.98578201838819,
dighnd,&&&&&&,images/symbols/symbol_2.png,condition_files/AMP_rep3.csv,None,nonword,,,,,,,,,,,,,,0,3,3,2,0,44,44,44,,,,,,,,,,,,,,,,,,,,,769.1335564139299,,,,,,,,,,,,,,AMP_prac,right,1.2506101159378886,3,,,right,0.6823821919970214,,,,,,,,,,,,,,,,,,,,,,,,,1034,2019_Jun_07_1352,mf_amp_cond1,3.0.7,59.98578201838819,
violence,&&&&&&&&,images/symbols/symbol_70.png,condition_files/AMP_rep3.csv,right,care.vice,,,,,,,,,,,,,,0,3,3,2,0,45,45,45,,,,,,,,,,,,,,,,,,,,,770.0671741529368,,,,,,,,,,,,,,AMP_prac,right,1.2506101159378886,3,,,right,0.7156733917072415,,,,,,,,,,,,,,,,,,,,,,,,,1034,2019_Jun_07_1352,mf_amp_cond1,3.0.7,59.98578201838819,
love,&&&&,images/symbols/symbol_4.png,condition_files/AMP_rep3.csv,left,loyalty.virtue,,,,,,,,,,,,,,0,3,3,2,0,46,46,46,,,,,,,,,,,,,,,,,,,,,771.0006276755594,,,,,,,,,,,,,,AMP_prac,right,1.2506101159378886,3,,,right,0.7153212260454893,,,,,,,,,,,,,,,,,,,,,,,,,1034,2019_Jun_07_1352,mf_amp_cond1,3.0.7,59.98578201838819,
safety,&&&&&&,images/symbols/symbol_33.png,condition_files/AMP_rep3.csv,left,care.virtue,,,,,,,,,,,,,,0,3,3,2,0,47,47,47,,,,,,,,,,,,,,,,,,,,,771.8176635121927,,,,,,,,,,,,,,AMP_prac,right,1.2506101159378886,3,,,right,0.5991501840762794,,,,,,,,,,,,,,,,,,,,,,,,,1034,2019_Jun_07_1352,mf_amp_cond1,3.0.7,59.98578201838819,
crime,&&&&&,images/symbols/symbol_61.png,condition_files/AMP_rep3.csv,right,fairness.vice,,,,,,,,,,,,,,0,3,3,2,0,48,48,48,,,,,,,,,,,,,,,,,,,,,772.60122533096,,,,,,,,,,,,,,AMP_prac,right,1.2506101159378886,3,,,right,0.5657069562003016,,,,,,,,,,,,,,,,,,,,,,,,,1034,2019_Jun_07_1352,mf_amp_cond1,3.0.7,59.98578201838819,
pheassed,&&&&&&&&,images/symbols/symbol_77.png,condition_files/AMP_rep3.csv,None,nonword,,,,,,,,,,,,,,0,3,3,2,0,49,49,49,,,,,,,,,,,,,,,,,,,,,773.8015761496499,,,,,,,,,,,,,,AMP_prac,right,1.2506101159378886,3,,,left,0.9824237911961973,,,,,,,,,,,,,,,,,,,,,,,,,1034,2019_Jun_07_1352,mf_amp_cond1,3.0.7,59.98578201838819,
