words,mask,corr_ans,category,nonwords,LDT_prac_loop.thisRepN,LDT_prac_loop.thisTrialN,LDT_prac_loop.thisN,LDT_prac_loop.thisIndex,LDT_loop.thisRepN,LDT_loop.thisTrialN,LDT_loop.thisN,LDT_loop.thisIndex,AMP_pracloop.thisRepN,AMP_pracloop.thisTrialN,AMP_pracloop.thisN,AMP_pracloop.thisIndex,AMP_loop.thisRepN,AMP_loop.thisTrialN,AMP_loop.thisN,AMP_loop.thisIndex,tweet_loop.thisRepN,tweet_loop.thisTrialN,tweet_loop.thisN,tweet_loop.thisIndex,tweets,topic,begin_key.keys,begin_key.rt,key_resp_AMP_instr1.keys,key_resp_AMP_instr1.rt,key_resp_LDT_instr.keys,key_resp_LDT_instr.rt,resp_LDT_prac.keys,resp_LDT_prac.rt,task,keypress,RT,corr,resp_LDT_ready.keys,resp_LDT_ready.rt,resp_LDT.keys,resp_LDT.corr,resp_LDT.rt,LDT_rating.response,LDT_rating.rt,resp_AMP_ready1.keys,resp_AMP_ready1.rt,resp_AMP_prac.keys,resp_AMP_prac.rt,resp_AMP_ready.keys,resp_AMP_ready.rt,resp_AMP.keys,resp_AMP.corr,resp_AMP.rt,AMP_nonword_rating.response,AMP_nonword_rating.rt,AMP_word_rating.response,AMP_word_rating.rt,AMP_random_rating.response,AMP_random_rating.rt,key_resp_LDT_instr_2.keys,key_resp_LDT_instr_2.rt,participant,date,expName,psychopyVersion,frameRate,
,,,,,,,,,,,,,,,,,,,,,,,,,,,right,961.3382254695753,,,,,,,,,,,,,,,,,,,,,,,,,,,,,,,,,,,1002,2019_Mar_01_1450,mf_amp_cond2,3.0.4,59.98335892534566,
,,,,,,,,,,,,,,,,,,,,,,,,,,,,,right,5.585086767561734,,,,,,,,,,,,,,,,,,,,,,,,,,,,,,,,,1002,2019_Mar_01_1450,mf_amp_cond2,3.0.4,59.98335892534566,
,,,,,,,,,,,,,,,,,,,,,,,,,,,,,,,right,1.6340336807770655,,,,,,,,,,,,,,,,,,,,,,,,,,,,,,,1002,2019_Mar_01_1450,mf_amp_cond2,3.0.4,59.98335892534566,
bisebell,&&&&&&&,,,,0,0,0,1,,,,,,,,,,,,,,,,,,,,,,,,,left,2.1341345489490777,LDT_prac,left,2.1341345489490777,0,,,,,,,,,,,,,,,,,,,,,,,,,1002,2019_Mar_01_1450,mf_amp_cond2,3.0.4,59.98335892534566,
keyboard,&&&&&&&,,,,0,1,1,0,,,,,,,,,,,,,,,,,,,,,,,,,left,2.5342664954951033,LDT_prac,left,2.5342664954951033,0,,,,,,,,,,,,,,,,,,,,,,,,,1002,2019_Mar_01_1450,mf_amp_cond2,3.0.4,59.98335892534566,
,,,,,,,,,,,,,,,,,,,,,,,,,,,,,,,,,,,,,,,right,1.417127522872761,,,,,,,,,,,,,,,,,,,,,,,1002,2019_Mar_01_1450,mf_amp_cond2,3.0.4,59.98335892534566,
perified,&&&&&&&&,right,nonword,,,,,,0,0,0,3,,,,,,,,,,,,,,,,,,,,,,,LDT,left,1.8507332912413403,0,,,left,0,1.8507332912413403,,,,,,,,,,,,,,,,,,,,1002,2019_Mar_01_1450,mf_amp_cond2,3.0.4,59.98335892534566,
saned,&&&&&,None,nonword,,,,,,0,1,1,70,,,,,,,,,,,,,,,,,,,,,,,LDT,left,2.2008252914529294,0,,,left,0,2.2008252914529294,,,,,,,,,,,,,,,,,,,,1002,2019_Mar_01_1450,mf_amp_cond2,3.0.4,59.98335892534566,
somehow,&&&&&&&,left,neutral,,,,,,0,2,2,171,,,,,,,,,,,,,,,,,,,,,,,LDT,left,0.9004781699040905,1,,,left,1,0.9004781699040905,,,,,,,,,,,,,,,,,,,,1002,2019_Mar_01_1450,mf_amp_cond2,3.0.4,59.98335892534566,
gedious,&&&&&&&,right,nonword,,,,,,0,3,3,131,,,,,,,,,,,,,,,,,,,,,,,LDT,left,1.1838887287303805,0,,,left,0,1.1838887287303805,,,,,,,,,,,,,,,,,,,,1002,2019_Mar_01_1450,mf_amp_cond2,3.0.4,59.98335892534566,
sharing,&&&&&&&,left,loyalty.virtue,,,,,,0,4,4,16,,,,,,,,,,,,,,,,,,,,,,,LDT,left,1.3339184439973906,1,,,left,1,1.3339184439973906,,,,,,,,,,,,,,,,,,,,1002,2019_Mar_01_1450,mf_amp_cond2,3.0.4,59.98335892534566,
become,&&&&&&,left,neutral,,,,,,0,5,5,94,,,,,,,,,,,,,,,,,,,,,,,LDT,right,3.0176982862176374,0,,,right,0,3.0176982862176374,,,,,,,,,,,,,,,,,,,,1002,2019_Mar_01_1450,mf_amp_cond2,3.0.4,59.98335892534566,
noone,&&&&&,left,neutral,,,,,,0,6,6,39,,,,,,,,,,,,,,,,,,,,,,,LDT,right,2.550922743976116,0,,,right,0,2.550922743976116,,,,,,,,,,,,,,,,,,,,1002,2019_Mar_01_1450,mf_amp_cond2,3.0.4,59.98335892534566,
ning,&&&&,right,nonword,,,,,,0,7,7,142,,,,,,,,,,,,,,,,,,,,,,,LDT,left,3.3011149388039485,0,,,left,0,3.3011149388039485,,,,,,,,,,,,,,,,,,,,1002,2019_Mar_01_1450,mf_amp_cond2,3.0.4,59.98335892534566,
allears,&&&&&&&,right,nonword,,,,,,0,8,8,188,,,,,,,,,,,,,,,,,,,,,,,LDT,left,1.2672074957517907,0,,,left,0,1.2672074957517907,,,,,,,,,,,,,,,,,,,,1002,2019_Mar_01_1450,mf_amp_cond2,3.0.4,59.98335892534566,
glacenta,&&&&&&&&,right,nonword,,,,,,0,9,9,195,,,,,,,,,,,,,,,,,,,,,,,LDT,left,1.06725265388377,0,,,left,0,1.06725265388377,,,,,,,,,,,,,,,,,,,,1002,2019_Mar_01_1450,mf_amp_cond2,3.0.4,59.98335892534566,
also,&&&&,left,neutral,,,,,,0,10,10,43,,,,,,,,,,,,,,,,,,,,,,,LDT,right,0.9004865088500082,0,,,right,0,0.9004865088500082,,,,,,,,,,,,,,,,,,,,1002,2019_Mar_01_1450,mf_amp_cond2,3.0.4,59.98335892534566,
there,&&&&&,left,neutral,,,,,,0,11,11,102,,,,,,,,,,,,,,,,,,,,,,,LDT,right,0.7170740577857941,0,,,right,0,0.7170740577857941,,,,,,,,,,,,,,,,,,,,1002,2019_Mar_01_1450,mf_amp_cond2,3.0.4,59.98335892534566,
blunderints,&&&&&&&&&&&,right,nonword,,,,,,0,12,12,41,,,,,,,,,,,,,,,,,,,,,,,LDT,left,1.0838296831352636,0,,,left,0,1.0838296831352636,,,,,,,,,,,,,,,,,,,,1002,2019_Mar_01_1450,mf_amp_cond2,3.0.4,59.98335892534566,
strofe,&&&&&&,right,nonword,,,,,,0,13,13,35,,,,,,,,,,,,,,,,,,,,,,,LDT,left,2.3508691185852513,0,,,left,0,2.3508691185852513,,,,,,,,,,,,,,,,,,,,1002,2019_Mar_01_1450,mf_amp_cond2,3.0.4,59.98335892534566,
simplustic,&&&&&&&&&&,right,nonword,,,,,,0,14,14,10,,,,,,,,,,,,,,,,,,,,,,,LDT,right,0.8004508762387559,1,,,right,1,0.8004508762387559,,,,,,,,,,,,,,,,,,,,1002,2019_Mar_01_1450,mf_amp_cond2,3.0.4,59.98335892534566,
loyalty,&&&&&&&,left,loyalty.virtue,,,,,,0,15,15,126,,,,,,,,,,,,,,,,,,,,,,,LDT,right,0.8504404686391354,0,,,right,0,0.8504404686391354,,,,,,,,,,,,,,,,,,,,1002,2019_Mar_01_1450,mf_amp_cond2,3.0.4,59.98335892534566,
chonograph,&&&&&&&&&&,right,nonword,,,,,,0,16,16,63,,,,,,,,,,,,,,,,,,,,,,,LDT,right,1.9007485418114811,1,,,right,1,1.9007485418114811,,,,,,,,,,,,,,,,,,,,1002,2019_Mar_01_1450,mf_amp_cond2,3.0.4,59.98335892534566,
both,&&&&,left,neutral,,,,,,0,17,17,12,,,,,,,,,,,,,,,,,,,,,,,LDT,right,0.6337180866394192,0,,,right,0,0.6337180866394192,,,,,,,,,,,,,,,,,,,,1002,2019_Mar_01_1450,mf_amp_cond2,3.0.4,59.98335892534566,
actively,&&&&&&&&,left,authority.virtue,,,,,,0,18,18,134,,,,,,,,,,,,,,,,,,,,,,,LDT,right,0.5503768686903641,0,,,right,0,0.5503768686903641,,,,,,,,,,,,,,,,,,,,1002,2019_Mar_01_1450,mf_amp_cond2,3.0.4,59.98335892534566,
refused,&&&&&&&,left,authority.vice,,,,,,0,19,19,140,,,,,,,,,,,,,,,,,,,,,,,LDT,right,0.5003949736710638,0,,,right,0,0.5003949736710638,,,,,,,,,,,,,,,,,,,,1002,2019_Mar_01_1450,mf_amp_cond2,3.0.4,59.98335892534566,
shoirmaster,&&&&&&&&&&&,None,nonword,,,,,,0,20,20,194,,,,,,,,,,,,,,,,,,,,,,,LDT,left,0.7337748871650547,0,,,left,0,0.7337748871650547,,,,,,,,,,,,,,,,,,,,1002,2019_Mar_01_1450,mf_amp_cond2,3.0.4,59.98335892534566,
eight,&&&&&,left,neutral,,,,,,0,21,21,198,,,,,,,,,,,,,,,,,,,,,,,LDT,right,0.5670491534983739,0,,,right,0,0.5670491534983739,,,,,,,,,,,,,,,,,,,,1002,2019_Mar_01_1450,mf_amp_cond2,3.0.4,59.98335892534566,
abuse,&&&&&,left,sanctity.vice,,,,,,0,22,22,190,,,,,,,,,,,,,,,,,,,,,,,LDT,right,0.6504108977969736,0,,,right,0,0.6504108977969736,,,,,,,,,,,,,,,,,,,,1002,2019_Mar_01_1450,mf_amp_cond2,3.0.4,59.98335892534566,
freedom,&&&&&&&,left,sanctity.virtue,,,,,,0,23,23,45,,,,,,,,,,,,,,,,,,,,,,,LDT,right,0.5504012438468635,0,,,right,0,0.5504012438468635,,,,,,,,,,,,,,,,,,,,1002,2019_Mar_01_1450,mf_amp_cond2,3.0.4,59.98335892534566,
refuejing,&&&&&&&&&,right,nonword,,,,,,0,24,24,196,,,,,,,,,,,,,,,,,,,,,,,LDT,left,0.9338285124395043,0,,,left,0,0.9338285124395043,,,,,,,,,,,,,,,,,,,,1002,2019_Mar_01_1450,mf_amp_cond2,3.0.4,59.98335892534566,
torture,&&&&&&&,left,care.vice,,,,,,0,25,25,127,,,,,,,,,,,,,,,,,,,,,,,LDT,right,0.6170756292995065,0,,,right,0,0.6170756292995065,,,,,,,,,,,,,,,,,,,,1002,2019_Mar_01_1450,mf_amp_cond2,3.0.4,59.98335892534566,
forty,&&&&&,left,neutral,,,,,,0,26,26,32,,,,,,,,,,,,,,,,,,,,,,,LDT,right,1.133864497882314,0,,,right,0,1.133864497882314,,,,,,,,,,,,,,,,,,,,1002,2019_Mar_01_1450,mf_amp_cond2,3.0.4,59.98335892534566,
each,&&&&,left,neutral,,,,,,0,27,27,160,,,,,,,,,,,,,,,,,,,,,,,LDT,right,0.5503945086384192,0,,,right,0,0.5503945086384192,,,,,,,,,,,,,,,,,,,,1002,2019_Mar_01_1450,mf_amp_cond2,3.0.4,59.98335892534566,
pescinded,&&&&&&&&&,right,nonword,,,,,,0,28,28,157,,,,,,,,,,,,,,,,,,,,,,,LDT,left,1.1838823141297325,0,,,left,0,1.1838823141297325,,,,,,,,,,,,,,,,,,,,1002,2019_Mar_01_1450,mf_amp_cond2,3.0.4,59.98335892534566,
mostly,&&&&&&,left,neutral,,,,,,0,29,29,135,,,,,,,,,,,,,,,,,,,,,,,LDT,right,0.5335653889924288,0,,,right,0,0.5335653889924288,,,,,,,,,,,,,,,,,,,,1002,2019_Mar_01_1450,mf_amp_cond2,3.0.4,59.98335892534566,
least,&&&&&,left,neutral,,,,,,0,30,30,57,,,,,,,,,,,,,,,,,,,,,,,LDT,right,0.6170599138131365,0,,,right,0,0.6170599138131365,,,,,,,,,,,,,,,,,,,,1002,2019_Mar_01_1450,mf_amp_cond2,3.0.4,59.98335892534566,
lursuer,&&&&&&&,right,nonword,,,,,,0,31,31,138,,,,,,,,,,,,,,,,,,,,,,,LDT,right,1.3339396117953584,1,,,right,1,1.3339396117953584,,,,,,,,,,,,,,,,,,,,1002,2019_Mar_01_1450,mf_amp_cond2,3.0.4,59.98335892534566,
fear,&&&&,left,sanctity.vice,,,,,,0,32,32,93,,,,,,,,,,,,,,,,,,,,,,,LDT,right,0.5170512221520767,0,,,right,0,0.5170512221520767,,,,,,,,,,,,,,,,,,,,1002,2019_Mar_01_1450,mf_amp_cond2,3.0.4,59.98335892534566,
Lacedonia,&&&&&&&&&,right,nonword,,,,,,0,33,33,104,,,,,,,,,,,,,,,,,,,,,,,LDT,left,0.6837541842833161,0,,,left,0,0.6837541842833161,,,,,,,,,,,,,,,,,,,,1002,2019_Mar_01_1450,mf_amp_cond2,3.0.4,59.98335892534566,
therefore,&&&&&&&&&,left,neutral,,,,,,0,34,34,115,,,,,,,,,,,,,,,,,,,,,,,LDT,right,1.033841694239527,0,,,right,0,1.033841694239527,,,,,,,,,,,,,,,,,,,,1002,2019_Mar_01_1450,mf_amp_cond2,3.0.4,59.98335892534566,
charges,&&&&&&&,left,fairness.vice,,,,,,0,35,35,83,,,,,,,,,,,,,,,,,,,,,,,LDT,right,0.5670581337762997,0,,,right,0,0.5670581337762997,,,,,,,,,,,,,,,,,,,,1002,2019_Mar_01_1450,mf_amp_cond2,3.0.4,59.98335892534566,
done,&&&&,left,neutral,,,,,,0,36,36,167,,,,,,,,,,,,,,,,,,,,,,,LDT,right,0.6004020617110655,0,,,right,0,0.6004020617110655,,,,,,,,,,,,,,,,,,,,1002,2019_Mar_01_1450,mf_amp_cond2,3.0.4,59.98335892534566,
pafer,&&&&&,right,nonword,,,,,,0,37,37,133,,,,,,,,,,,,,,,,,,,,,,,LDT,left,0.6837519390974194,0,,,left,0,0.6837519390974194,,,,,,,,,,,,,,,,,,,,1002,2019_Mar_01_1450,mf_amp_cond2,3.0.4,59.98335892534566,
either,&&&&&&,left,neutral,,,,,,0,38,38,21,,,,,,,,,,,,,,,,,,,,,,,LDT,right,0.8337887104135007,0,,,right,0,0.8337887104135007,,,,,,,,,,,,,,,,,,,,1002,2019_Mar_01_1450,mf_amp_cond2,3.0.4,59.98335892534566,
hescribe,&&&&&&&&,right,nonword,,,,,,0,39,39,153,,,,,,,,,,,,,,,,,,,,,,,LDT,right,1.0005038600647822,1,,,right,1,1.0005038600647822,,,,,,,,,,,,,,,,,,,,1002,2019_Mar_01_1450,mf_amp_cond2,3.0.4,59.98335892534566,
nonobservalt,&&&&&&&&&&&&,right,nonword,,,,,,0,40,40,132,,,,,,,,,,,,,,,,,,,,,,,LDT,left,0.6170669697457924,0,,,left,0,0.6170669697457924,,,,,,,,,,,,,,,,,,,,1002,2019_Mar_01_1450,mf_amp_cond2,3.0.4,59.98335892534566,
gillipede,&&&&&&&&&,None,nonword,,,,,,0,41,41,74,,,,,,,,,,,,,,,,,,,,,,,LDT,left,0.6337527249706909,0,,,left,0,0.6337527249706909,,,,,,,,,,,,,,,,,,,,1002,2019_Mar_01_1450,mf_amp_cond2,3.0.4,59.98335892534566,
dramens,&&&&&&&,right,nonword,,,,,,0,42,42,163,,,,,,,,,,,,,,,,,,,,,,,LDT,left,0.8171238023787737,0,,,left,0,0.8171238023787737,,,,,,,,,,,,,,,,,,,,1002,2019_Mar_01_1450,mf_amp_cond2,3.0.4,59.98335892534566,
hence,&&&&&,left,neutral,,,,,,0,43,43,148,,,,,,,,,,,,,,,,,,,,,,,LDT,right,0.6503890883177519,0,,,right,0,0.6503890883177519,,,,,,,,,,,,,,,,,,,,1002,2019_Mar_01_1450,mf_amp_cond2,3.0.4,59.98335892534566,
scock,&&&&&,right,nonword,,,,,,0,44,44,118,,,,,,,,,,,,,,,,,,,,,,,LDT,right,0.6837583536980674,1,,,right,1,0.6837583536980674,,,,,,,,,,,,,,,,,,,,1002,2019_Mar_01_1450,mf_amp_cond2,3.0.4,59.98335892534566,
elsewhere,&&&&&&&&&,left,neutral,,,,,,0,45,45,145,,,,,,,,,,,,,,,,,,,,,,,LDT,right,1.7673693018732592,0,,,right,0,1.7673693018732592,,,,,,,,,,,,,,,,,,,,1002,2019_Mar_01_1450,mf_amp_cond2,3.0.4,59.98335892534566,
lenon,&&&&&,right,nonword,,,,,,0,46,46,89,,,,,,,,,,,,,,,,,,,,,,,LDT,left,0.6504817780805752,0,,,left,0,0.6504817780805752,,,,,,,,,,,,,,,,,,,,1002,2019_Mar_01_1450,mf_amp_cond2,3.0.4,59.98335892534566,
injured,&&&&&&&,left,care.vice,,,,,,0,47,47,36,,,,,,,,,,,,,,,,,,,,,,,LDT,right,0.5670805845875293,0,,,right,0,0.5670805845875293,,,,,,,,,,,,,,,,,,,,1002,2019_Mar_01_1450,mf_amp_cond2,3.0.4,59.98335892534566,
feleological,&&&&&&&&&&&&,right,nonword,,,,,,0,48,48,149,,,,,,,,,,,,,,,,,,,,,,,LDT,left,0.7337764906696975,0,,,left,0,0.7337764906696975,,,,,,,,,,,,,,,,,,,,1002,2019_Mar_01_1450,mf_amp_cond2,3.0.4,59.98335892534566,
front,&&&&&,left,neutral,,,,,,0,49,49,18,,,,,,,,,,,,,,,,,,,,,,,LDT,right,0.5670863576233387,0,,,right,0,0.5670863576233387,,,,,,,,,,,,,,,,,,,,1002,2019_Mar_01_1450,mf_amp_cond2,3.0.4,59.98335892534566,
with,&&&&,left,neutral,,,,,,0,50,50,174,,,,,,,,,,,,,,,,,,,,,,,LDT,right,0.6670985772507265,0,,,right,0,0.6670985772507265,,,,,,,,,,,,,,,,,,,,1002,2019_Mar_01_1450,mf_amp_cond2,3.0.4,59.98335892534566,
respect,&&&&&&&,left,sanctity.virtue,,,,,,0,51,51,28,,,,,,,,,,,,,,,,,,,,,,,LDT,right,0.7004194130422547,0,,,right,0,0.7004194130422547,,,,,,,,,,,,,,,,,,,,1002,2019_Mar_01_1450,mf_amp_cond2,3.0.4,59.98335892534566,
strong,&&&&&&,left,loyalty.virtue,,,,,,0,52,52,155,,,,,,,,,,,,,,,,,,,,,,,LDT,right,0.6670956908492371,0,,,right,0,0.6670956908492371,,,,,,,,,,,,,,,,,,,,1002,2019_Mar_01_1450,mf_amp_cond2,3.0.4,59.98335892534566,
suggists,&&&&&&&&,right,nonword,,,,,,0,53,53,172,,,,,,,,,,,,,,,,,,,,,,,LDT,right,1.1672158024739474,1,,,right,1,1.1672158024739474,,,,,,,,,,,,,,,,,,,,1002,2019_Mar_01_1450,mf_amp_cond2,3.0.4,59.98335892534566,
corruption,&&&&&&&&&&,left,sanctity.vice,,,,,,0,54,54,76,,,,,,,,,,,,,,,,,,,,,,,LDT,right,0.7504353049444035,0,,,right,0,0.7504353049444035,,,,,,,,,,,,,,,,,,,,1002,2019_Mar_01_1450,mf_amp_cond2,3.0.4,59.98335892534566,
pharing,&&&&&&&,right,nonword,,,,,,0,55,55,113,,,,,,,,,,,,,,,,,,,,,,,LDT,left,2.700955987093039,0,,,left,0,2.700955987093039,,,,,,,,,,,,,,,,,,,,1002,2019_Mar_01_1450,mf_amp_cond2,3.0.4,59.98335892534566,
anyhow,&&&&&&,left,neutral,,,,,,0,56,56,77,,,,,,,,,,,,,,,,,,,,,,,LDT,right,0.5170457698404789,0,,,right,0,0.5170457698404789,,,,,,,,,,,,,,,,,,,,1002,2019_Mar_01_1450,mf_amp_cond2,3.0.4,59.98335892534566,
hereby,&&&&&&,left,neutral,,,,,,0,57,57,19,,,,,,,,,,,,,,,,,,,,,,,LDT,right,0.6837593158707023,0,,,right,0,0.6837593158707023,,,,,,,,,,,,,,,,,,,,1002,2019_Mar_01_1450,mf_amp_cond2,3.0.4,59.98335892534566,
laming,&&&&&&,right,nonword,,,,,,0,58,58,50,,,,,,,,,,,,,,,,,,,,,,,LDT,left,0.7504285697359592,0,,,left,0,0.7504285697359592,,,,,,,,,,,,,,,,,,,,1002,2019_Mar_01_1450,mf_amp_cond2,3.0.4,59.98335892534566,
Boeinf,&&&&&&,right,nonword,,,,,,0,59,59,91,,,,,,,,,,,,,,,,,,,,,,,LDT,left,0.750442681601271,0,,,left,0,0.750442681601271,,,,,,,,,,,,,,,,,,,,1002,2019_Mar_01_1450,mf_amp_cond2,3.0.4,59.98335892534566,
myself,&&&&&&,left,neutral,,,,,,0,60,60,37,,,,,,,,,,,,,,,,,,,,,,,LDT,right,0.5170460905646905,0,,,right,0,0.5170460905646905,,,,,,,,,,,,,,,,,,,,1002,2019_Mar_01_1450,mf_amp_cond2,3.0.4,59.98335892534566,
ronviolence,&&&&&&&&&&&,right,nonword,,,,,,0,61,61,44,,,,,,,,,,,,,,,,,,,,,,,LDT,left,0.8337861446198076,0,,,left,0,0.8337861446198076,,,,,,,,,,,,,,,,,,,,1002,2019_Mar_01_1450,mf_amp_cond2,3.0.4,59.98335892534566,
agreement,&&&&&&&&&,left,fairness.virtue,,,,,,0,62,62,197,,,,,,,,,,,,,,,,,,,,,,,LDT,right,0.6837519392138347,0,,,right,0,0.6837519392138347,,,,,,,,,,,,,,,,,,,,1002,2019_Mar_01_1450,mf_amp_cond2,3.0.4,59.98335892534566,
ilportation,&&&&&&&&&&&,right,nonword,,,,,,0,63,63,42,,,,,,,,,,,,,,,,,,,,,,,LDT,left,0.7004216581117362,0,,,left,0,0.7004216581117362,,,,,,,,,,,,,,,,,,,,1002,2019_Mar_01_1450,mf_amp_cond2,3.0.4,59.98335892534566,
prison,&&&&&&,left,fairness.vice,,,,,,0,64,64,123,,,,,,,,,,,,,,,,,,,,,,,LDT,right,1.350604840554297,0,,,right,0,1.350604840554297,,,,,,,,,,,,,,,,,,,,1002,2019_Mar_01_1450,mf_amp_cond2,3.0.4,59.98335892534566,
ban,&&&,left,loyalty.vice,,,,,,0,65,65,6,,,,,,,,,,,,,,,,,,,,,,,LDT,right,0.500233969418332,0,,,right,0,0.500233969418332,,,,,,,,,,,,,,,,,,,,1002,2019_Mar_01_1450,mf_amp_cond2,3.0.4,59.98335892534566,
fangsters,&&&&&&&&&,right,nonword,,,,,,0,66,66,159,,,,,,,,,,,,,,,,,,,,,,,LDT,left,2.1174584155669436,0,,,left,0,2.1174584155669436,,,,,,,,,,,,,,,,,,,,1002,2019_Mar_01_1450,mf_amp_cond2,3.0.4,59.98335892534566,
toward,&&&&&&,left,neutral,,,,,,0,67,67,117,,,,,,,,,,,,,,,,,,,,,,,LDT,right,0.5337199788773432,0,,,right,0,0.5337199788773432,,,,,,,,,,,,,,,,,,,,1002,2019_Mar_01_1450,mf_amp_cond2,3.0.4,59.98335892534566,
ensure,&&&&&&,left,fairness.virtue,,,,,,0,68,68,86,,,,,,,,,,,,,,,,,,,,,,,LDT,right,0.5670404938282445,0,,,right,0,0.5670404938282445,,,,,,,,,,,,,,,,,,,,1002,2019_Mar_01_1450,mf_amp_cond2,3.0.4,59.98335892534566,
latter,&&&&&&,left,neutral,,,,,,0,69,69,87,,,,,,,,,,,,,,,,,,,,,,,LDT,right,0.7504340220475569,0,,,right,0,0.7504340220475569,,,,,,,,,,,,,,,,,,,,1002,2019_Mar_01_1450,mf_amp_cond2,3.0.4,59.98335892534566,
iptervention,&&&&&&&&&&&&,right,nonword,,,,,,0,70,70,64,,,,,,,,,,,,,,,,,,,,,,,LDT,right,1.2338898672023788,1,,,right,1,1.2338898672023788,,,,,,,,,,,,,,,,,,,,1002,2019_Mar_01_1450,mf_amp_cond2,3.0.4,59.98335892534566,
seem,&&&&,left,neutral,,,,,,0,71,71,170,,,,,,,,,,,,,,,,,,,,,,,LDT,right,0.5837304184678942,0,,,right,0,0.5837304184678942,,,,,,,,,,,,,,,,,,,,1002,2019_Mar_01_1450,mf_amp_cond2,3.0.4,59.98335892534566,
whither,&&&&&&&,left,neutral,,,,,,0,72,72,106,,,,,,,,,,,,,,,,,,,,,,,LDT,right,1.0005077088717371,0,,,right,0,1.0005077088717371,,,,,,,,,,,,,,,,,,,,1002,2019_Mar_01_1450,mf_amp_cond2,3.0.4,59.98335892534566,
celebrated,&&&&&&&&&&,left,authority.virtue,,,,,,0,73,73,67,,,,,,,,,,,,,,,,,,,,,,,LDT,right,0.5337680877419189,0,,,right,0,0.5337680877419189,,,,,,,,,,,,,,,,,,,,1002,2019_Mar_01_1450,mf_amp_cond2,3.0.4,59.98335892534566,
suicide,&&&&&&&,left,care.vice,,,,,,0,74,74,68,,,,,,,,,,,,,,,,,,,,,,,LDT,right,0.46702699130401015,0,,,right,0,0.46702699130401015,,,,,,,,,,,,,,,,,,,,1002,2019_Mar_01_1450,mf_amp_cond2,3.0.4,59.98335892534566,
slavery,&&&&&&&,left,loyalty.vice,,,,,,0,75,75,129,,,,,,,,,,,,,,,,,,,,,,,LDT,right,0.6003940436057746,0,,,right,0,0.6003940436057746,,,,,,,,,,,,,,,,,,,,1002,2019_Mar_01_1450,mf_amp_cond2,3.0.4,59.98335892534566,
sfumatoy,&&&&&&&&,None,nonword,,,,,,0,76,76,14,,,,,,,,,,,,,,,,,,,,,,,LDT,left,0.8671502782963216,0,,,left,0,0.8671502782963216,,,,,,,,,,,,,,,,,,,,1002,2019_Mar_01_1450,mf_amp_cond2,3.0.4,59.98335892534566,
spag,&&&&,None,nonword,,,,,,0,77,77,30,,,,,,,,,,,,,,,,,,,,,,,LDT,left,0.7671281161019579,0,,,left,0,0.7671281161019579,,,,,,,,,,,,,,,,,,,,1002,2019_Mar_01_1450,mf_amp_cond2,3.0.4,59.98335892534566,
been,&&&&,left,neutral,,,,,,0,78,78,40,,,,,,,,,,,,,,,,,,,,,,,LDT,right,0.5170480149099603,0,,,right,0,0.5170480149099603,,,,,,,,,,,,,,,,,,,,1002,2019_Mar_01_1450,mf_amp_cond2,3.0.4,59.98335892534566,
Phintoism,&&&&&&&&&,right,nonword,,,,,,0,79,79,116,,,,,,,,,,,,,,,,,,,,,,,LDT,left,0.8671454673167318,0,,,left,0,0.8671454673167318,,,,,,,,,,,,,,,,,,,,1002,2019_Mar_01_1450,mf_amp_cond2,3.0.4,59.98335892534566,
values,&&&&&&,left,sanctity.virtue,,,,,,0,80,80,8,,,,,,,,,,,,,,,,,,,,,,,LDT,right,0.5335746901109815,0,,,right,0,0.5335746901109815,,,,,,,,,,,,,,,,,,,,1002,2019_Mar_01_1450,mf_amp_cond2,3.0.4,59.98335892534566,
safe,&&&&,left,care.virtue,,,,,,0,81,81,1,,,,,,,,,,,,,,,,,,,,,,,LDT,right,0.683736544335261,0,,,right,0,0.683736544335261,,,,,,,,,,,,,,,,,,,,1002,2019_Mar_01_1450,mf_amp_cond2,3.0.4,59.98335892534566,
even,&&&&,left,neutral,,,,,,0,82,82,165,,,,,,,,,,,,,,,,,,,,,,,LDT,right,0.4503662526840344,0,,,right,0,0.4503662526840344,,,,,,,,,,,,,,,,,,,,1002,2019_Mar_01_1450,mf_amp_cond2,3.0.4,59.98335892534566,
clamorek,&&&&&&&&,right,nonword,,,,,,0,83,83,122,,,,,,,,,,,,,,,,,,,,,,,LDT,left,0.6003943643299863,0,,,left,0,0.6003943643299863,,,,,,,,,,,,,,,,,,,,1002,2019_Mar_01_1450,mf_amp_cond2,3.0.4,59.98335892534566,
rejected,&&&&&&&&,left,authority.vice,,,,,,0,84,84,105,,,,,,,,,,,,,,,,,,,,,,,LDT,right,0.6670966529054567,0,,,right,0,0.6670966529054567,,,,,,,,,,,,,,,,,,,,1002,2019_Mar_01_1450,mf_amp_cond2,3.0.4,59.98335892534566,
besides,&&&&&&&,left,neutral,,,,,,0,85,85,193,,,,,,,,,,,,,,,,,,,,,,,LDT,right,0.5837284941226244,0,,,right,0,0.5837284941226244,,,,,,,,,,,,,,,,,,,,1002,2019_Mar_01_1450,mf_amp_cond2,3.0.4,59.98335892534566,
gowlands,&&&&&&&&,right,nonword,,,,,,0,86,86,180,,,,,,,,,,,,,,,,,,,,,,,LDT,left,0.5837211174657568,0,,,left,0,0.5837211174657568,,,,,,,,,,,,,,,,,,,,1002,2019_Mar_01_1450,mf_amp_cond2,3.0.4,59.98335892534566,
tracious,&&&&&&&&,right,nonword,,,,,,0,87,87,56,,,,,,,,,,,,,,,,,,,,,,,LDT,right,0.6837602780433372,1,,,right,1,0.6837602780433372,,,,,,,,,,,,,,,,,,,,1002,2019_Mar_01_1450,mf_amp_cond2,3.0.4,59.98335892534566,
failure,&&&&&&&,left,loyalty.vice,,,,,,0,88,88,60,,,,,,,,,,,,,,,,,,,,,,,LDT,right,0.5837323429295793,0,,,right,0,0.5837323429295793,,,,,,,,,,,,,,,,,,,,1002,2019_Mar_01_1450,mf_amp_cond2,3.0.4,59.98335892534566,
lachelor,&&&&&&&&,right,nonword,,,,,,0,89,89,137,,,,,,,,,,,,,,,,,,,,,,,LDT,left,0.5670420974493027,0,,,left,0,0.5670420974493027,,,,,,,,,,,,,,,,,,,,1002,2019_Mar_01_1450,mf_amp_cond2,3.0.4,59.98335892534566,
smapper,&&&&&&&,right,nonword,,,,,,0,90,90,33,,,,,,,,,,,,,,,,,,,,,,,LDT,right,0.8671377700520679,1,,,right,1,0.8671377700520679,,,,,,,,,,,,,,,,,,,,1002,2019_Mar_01_1450,mf_amp_cond2,3.0.4,59.98335892534566,
promised,&&&&&&&&,left,loyalty.virtue,,,,,,0,91,91,17,,,,,,,,,,,,,,,,,,,,,,,LDT,right,0.483706011204049,0,,,right,0,0.483706011204049,,,,,,,,,,,,,,,,,,,,1002,2019_Mar_01_1450,mf_amp_cond2,3.0.4,59.98335892534566,
asn,&&&,right,nonword,,,,,,0,92,92,29,,,,,,,,,,,,,,,,,,,,,,,LDT,left,1.2338962818030268,0,,,left,0,1.2338962818030268,,,,,,,,,,,,,,,,,,,,1002,2019_Mar_01_1450,mf_amp_cond2,3.0.4,59.98335892534566,
yane,&&&&,right,nonword,,,,,,0,93,93,52,,,,,,,,,,,,,,,,,,,,,,,LDT,left,0.9004881124710664,0,,,left,0,0.9004881124710664,,,,,,,,,,,,,,,,,,,,1002,2019_Mar_01_1450,mf_amp_cond2,3.0.4,59.98335892534566,
coom,&&&&,right,nonword,,,,,,0,94,94,38,,,,,,,,,,,,,,,,,,,,,,,LDT,left,1.4172875649528578,0,,,left,0,1.4172875649528578,,,,,,,,,,,,,,,,,,,,1002,2019_Mar_01_1450,mf_amp_cond2,3.0.4,59.98335892534566,
tislay,&&&&&&,right,nonword,,,,,,0,95,95,175,,,,,,,,,,,,,,,,,,,,,,,LDT,left,0.6670960114570335,0,,,left,0,0.6670960114570335,,,,,,,,,,,,,,,,,,,,1002,2019_Mar_01_1450,mf_amp_cond2,3.0.4,59.98335892534566,
focomotive,&&&&&&&&&&,right,nonword,,,,,,0,96,96,183,,,,,,,,,,,,,,,,,,,,,,,LDT,left,0.9505001556826755,0,,,left,0,0.9505001556826755,,,,,,,,,,,,,,,,,,,,1002,2019_Mar_01_1450,mf_amp_cond2,3.0.4,59.98335892534566,
good,&&&&,left,care.virtue,,,,,,0,97,97,166,,,,,,,,,,,,,,,,,,,,,,,LDT,right,0.4670311607187614,0,,,right,0,0.4670311607187614,,,,,,,,,,,,,,,,,,,,1002,2019_Mar_01_1450,mf_amp_cond2,3.0.4,59.98335892534566,
juck,&&&&,right,nonword,,,,,,0,98,98,178,,,,,,,,,,,,,,,,,,,,,,,LDT,left,1.7340436553349718,0,,,left,0,1.7340436553349718,,,,,,,,,,,,,,,,,,,,1002,2019_Mar_01_1450,mf_amp_cond2,3.0.4,59.98335892534566,
seachwear,&&&&&&&&&,right,nonword,,,,,,0,99,99,59,,,,,,,,,,,,,,,,,,,,,,,LDT,left,0.8004489517770708,0,,,left,0,0.8004489517770708,,,,,,,,,,,,,,,,,,,,1002,2019_Mar_01_1450,mf_amp_cond2,3.0.4,59.98335892534566,
honstables,&&&&&&&&&&,right,nonword,,,,,,0,100,100,114,,,,,,,,,,,,,,,,,,,,,,,LDT,left,0.8004550456535071,0,,,left,0,0.8004550456535071,,,,,,,,,,,,,,,,,,,,1002,2019_Mar_01_1450,mf_amp_cond2,3.0.4,59.98335892534566,
hefurbished,&&&&&&&&&&&,right,nonword,,,,,,0,101,101,147,,,,,,,,,,,,,,,,,,,,,,,LDT,left,0.7504311355296522,0,,,left,0,0.7504311355296522,,,,,,,,,,,,,,,,,,,,1002,2019_Mar_01_1450,mf_amp_cond2,3.0.4,59.98335892534566,
gondensed,&&&&&&&&&,right,nonword,,,,,,0,102,102,107,,,,,,,,,,,,,,,,,,,,,,,LDT,left,0.8171138599282131,0,,,left,0,0.8171138599282131,,,,,,,,,,,,,,,,,,,,1002,2019_Mar_01_1450,mf_amp_cond2,3.0.4,59.98335892534566,
hate,&&&&,left,fairness.vice,,,,,,0,103,103,69,,,,,,,,,,,,,,,,,,,,,,,LDT,right,0.40026312333066016,0,,,right,0,0.40026312333066016,,,,,,,,,,,,,,,,,,,,1002,2019_Mar_01_1450,mf_amp_cond2,3.0.4,59.98335892534566,
openet,&&&&&&,None,nonword,,,,,,0,104,104,99,,,,,,,,,,,,,,,,,,,,,,,LDT,left,1.417301356093958,0,,,left,0,1.417301356093958,,,,,,,,,,,,,,,,,,,,1002,2019_Mar_01_1450,mf_amp_cond2,3.0.4,59.98335892534566,
could,&&&&&,left,neutral,,,,,,0,105,105,61,,,,,,,,,,,,,,,,,,,,,,,LDT,right,0.5003808616893366,0,,,right,0,0.5003808616893366,,,,,,,,,,,,,,,,,,,,1002,2019_Mar_01_1450,mf_amp_cond2,3.0.4,59.98335892534566,
illegal,&&&&&&&,left,fairness.vice,,,,,,0,106,106,161,,,,,,,,,,,,,,,,,,,,,,,LDT,right,2.2508261093171313,0,,,right,0,2.2508261093171313,,,,,,,,,,,,,,,,,,,,1002,2019_Mar_01_1450,mf_amp_cond2,3.0.4,59.98335892534566,
idexpressible,&&&&&&&&&&&&&,right,nonword,,,,,,0,107,107,136,,,,,,,,,,,,,,,,,,,,,,,LDT,left,0.8837991500040516,0,,,left,0,0.8837991500040516,,,,,,,,,,,,,,,,,,,,1002,2019_Mar_01_1450,mf_amp_cond2,3.0.4,59.98335892534566,
support,&&&&&&&,left,loyalty.virtue,,,,,,0,108,108,27,,,,,,,,,,,,,,,,,,,,,,,LDT,right,0.45040473982226104,0,,,right,0,0.45040473982226104,,,,,,,,,,,,,,,,,,,,1002,2019_Mar_01_1450,mf_amp_cond2,3.0.4,59.98335892534566,
ittutable,&&&&&&&&&,right,nonword,,,,,,0,109,109,156,,,,,,,,,,,,,,,,,,,,,,,LDT,left,1.0838688117219135,0,,,left,0,1.0838688117219135,,,,,,,,,,,,,,,,,,,,1002,2019_Mar_01_1450,mf_amp_cond2,3.0.4,59.98335892534566,
pistraught,&&&&&&&&&&,right,nonword,,,,,,0,110,110,186,,,,,,,,,,,,,,,,,,,,,,,LDT,left,0.6837605988839641,0,,,left,0,0.6837605988839641,,,,,,,,,,,,,,,,,,,,1002,2019_Mar_01_1450,mf_amp_cond2,3.0.4,59.98335892534566,
menizen,&&&&&&&,None,nonword,,,,,,0,111,111,47,,,,,,,,,,,,,,,,,,,,,,,LDT,left,0.5503890563268214,0,,,left,0,0.5503890563268214,,,,,,,,,,,,,,,,,,,,1002,2019_Mar_01_1450,mf_amp_cond2,3.0.4,59.98335892534566,
bycled,&&&&&&,None,nonword,,,,,,0,112,112,143,,,,,,,,,,,,,,,,,,,,,,,LDT,left,0.8171093697892502,0,,,left,0,0.8171093697892502,,,,,,,,,,,,,,,,,,,,1002,2019_Mar_01_1450,mf_amp_cond2,3.0.4,59.98335892534566,
crinking,&&&&&&&&,right,nonword,,,,,,0,113,113,111,,,,,,,,,,,,,,,,,,,,,,,LDT,left,0.6003889120183885,0,,,left,0,0.6003889120183885,,,,,,,,,,,,,,,,,,,,1002,2019_Mar_01_1450,mf_amp_cond2,3.0.4,59.98335892534566,
restore,&&&&&&&,left,care.virtue,,,,,,0,114,114,164,,,,,,,,,,,,,,,,,,,,,,,LDT,right,0.6504169914405793,0,,,right,0,0.6504169914405793,,,,,,,,,,,,,,,,,,,,1002,2019_Mar_01_1450,mf_amp_cond2,3.0.4,59.98335892534566,
ability,&&&&&&&,left,authority.virtue,,,,,,0,115,115,88,,,,,,,,,,,,,,,,,,,,,,,LDT,right,0.5503800759324804,0,,,right,0,0.5503800759324804,,,,,,,,,,,,,,,,,,,,1002,2019_Mar_01_1450,mf_amp_cond2,3.0.4,59.98335892534566,
framatic,&&&&&&&&,right,nonword,,,,,,0,116,116,97,,,,,,,,,,,,,,,,,,,,,,,LDT,left,0.7838129091542214,0,,,left,0,0.7838129091542214,,,,,,,,,,,,,,,,,,,,1002,2019_Mar_01_1450,mf_amp_cond2,3.0.4,59.98335892534566,
halaise,&&&&&&&,None,nonword,,,,,,0,117,117,96,,,,,,,,,,,,,,,,,,,,,,,LDT,left,0.7504965636180714,0,,,left,0,0.7504965636180714,,,,,,,,,,,,,,,,,,,,1002,2019_Mar_01_1450,mf_amp_cond2,3.0.4,59.98335892534566,
fighters,&&&&&&&&,left,authority.vice,,,,,,0,118,118,125,,,,,,,,,,,,,,,,,,,,,,,LDT,left,1.4172731323633343,1,,,left,1,1.4172731323633343,,,,,,,,,,,,,,,,,,,,1002,2019_Mar_01_1450,mf_amp_cond2,3.0.4,59.98335892534566,
killed,&&&&&&,left,care.vice,,,,,,0,119,119,103,,,,,,,,,,,,,,,,,,,,,,,LDT,right,0.43365259433630854,0,,,right,0,0.43365259433630854,,,,,,,,,,,,,,,,,,,,1002,2019_Mar_01_1450,mf_amp_cond2,3.0.4,59.98335892534566,
taxpayung,&&&&&&&&&,right,nonword,,,,,,0,120,120,98,,,,,,,,,,,,,,,,,,,,,,,LDT,left,1.1172060043318197,0,,,left,0,1.1172060043318197,,,,,,,,,,,,,,,,,,,,1002,2019_Mar_01_1450,mf_amp_cond2,3.0.4,59.98335892534566,
further,&&&&&&&,left,neutral,,,,,,0,121,121,5,,,,,,,,,,,,,,,,,,,,,,,LDT,right,1.8507397058419883,0,,,right,0,1.8507397058419883,,,,,,,,,,,,,,,,,,,,1002,2019_Mar_01_1450,mf_amp_cond2,3.0.4,59.98335892534566,
shoirmaster,&&&&&&&&&&&,right,nonword,,,,,,0,122,122,189,,,,,,,,,,,,,,,,,,,,,,,LDT,left,0.6837436002679169,0,,,left,0,0.6837436002679169,,,,,,,,,,,,,,,,,,,,1002,2019_Mar_01_1450,mf_amp_cond2,3.0.4,59.98335892534566,
thadowed,&&&&&&&&,right,nonword,,,,,,0,123,123,55,,,,,,,,,,,,,,,,,,,,,,,LDT,left,0.6170644040685147,0,,,left,0,0.6170644040685147,,,,,,,,,,,,,,,,,,,,1002,2019_Mar_01_1450,mf_amp_cond2,3.0.4,59.98335892534566,
Daptist,&&&&&&&,right,nonword,,,,,,0,124,124,54,,,,,,,,,,,,,,,,,,,,,,,LDT,left,0.7837834022939205,0,,,left,0,0.7837834022939205,,,,,,,,,,,,,,,,,,,,1002,2019_Mar_01_1450,mf_amp_cond2,3.0.4,59.98335892534566,
unreflectuve,&&&&&&&&&&&&,right,nonword,,,,,,0,125,125,66,,,,,,,,,,,,,,,,,,,,,,,LDT,left,0.6504349521128461,0,,,left,0,0.6504349521128461,,,,,,,,,,,,,,,,,,,,1002,2019_Mar_01_1450,mf_amp_cond2,3.0.4,59.98335892534566,
faith,&&&&&,left,sanctity.virtue,,,,,,0,126,126,119,,,,,,,,,,,,,,,,,,,,,,,LDT,right,0.6004030240001157,0,,,right,0,0.6004030240001157,,,,,,,,,,,,,,,,,,,,1002,2019_Mar_01_1450,mf_amp_cond2,3.0.4,59.98335892534566,
sgrawl,&&&&&&,right,nonword,,,,,,0,127,127,101,,,,,,,,,,,,,,,,,,,,,,,LDT,left,0.5670600581215695,0,,,left,0,0.5670600581215695,,,,,,,,,,,,,,,,,,,,1002,2019_Mar_01_1450,mf_amp_cond2,3.0.4,59.98335892534566,
unscothed,&&&&&&&&&,right,nonword,,,,,,0,128,128,65,,,,,,,,,,,,,,,,,,,,,,,LDT,left,0.7170955464243889,0,,,left,0,0.7170955464243889,,,,,,,,,,,,,,,,,,,,1002,2019_Mar_01_1450,mf_amp_cond2,3.0.4,59.98335892534566,
amoungst,&&&&&&&&,left,neutral,,,,,,0,129,129,184,,,,,,,,,,,,,,,,,,,,,,,LDT,left,2.5509188951691613,1,,,left,1,2.5509188951691613,,,,,,,,,,,,,,,,,,,,1002,2019_Mar_01_1450,mf_amp_cond2,3.0.4,59.98335892534566,
give,&&&&,left,neutral,,,,,,0,130,130,4,,,,,,,,,,,,,,,,,,,,,,,LDT,right,0.38371175224892795,0,,,right,0,0.38371175224892795,,,,,,,,,,,,,,,,,,,,1002,2019_Mar_01_1450,mf_amp_cond2,3.0.4,59.98335892534566,
else,&&&&,left,neutral,,,,,,0,131,131,109,,,,,,,,,,,,,,,,,,,,,,,LDT,right,0.55036820913665,0,,,right,0,0.55036820913665,,,,,,,,,,,,,,,,,,,,1002,2019_Mar_01_1450,mf_amp_cond2,3.0.4,59.98335892534566,
elduringly,&&&&&&&&&&,right,nonword,,,,,,0,132,132,80,,,,,,,,,,,,,,,,,,,,,,,LDT,right,4.6014607773395255,1,,,right,1,4.6014607773395255,,,,,,,,,,,,,,,,,,,,1002,2019_Mar_01_1450,mf_amp_cond2,3.0.4,59.98335892534566,
health,&&&&&&,left,care.virtue,,,,,,0,133,133,72,,,,,,,,,,,,,,,,,,,,,,,LDT,right,0.467028274317272,0,,,right,0,0.467028274317272,,,,,,,,,,,,,,,,,,,,1002,2019_Mar_01_1450,mf_amp_cond2,3.0.4,59.98335892534566,
latterly,&&&&&&&&,left,neutral,,,,,,0,134,134,169,,,,,,,,,,,,,,,,,,,,,,,LDT,left,0.667065542540513,1,,,left,1,0.667065542540513,,,,,,,,,,,,,,,,,,,,1002,2019_Mar_01_1450,mf_amp_cond2,3.0.4,59.98335892534566,
trust,&&&&&,left,authority.virtue,,,,,,0,135,135,25,,,,,,,,,,,,,,,,,,,,,,,LDT,right,0.3836787175387144,0,,,right,0,0.3836787175387144,,,,,,,,,,,,,,,,,,,,1002,2019_Mar_01_1450,mf_amp_cond2,3.0.4,59.98335892534566,
three,&&&&&,left,neutral,,,,,,0,136,136,151,,,,,,,,,,,,,,,,,,,,,,,LDT,right,0.5337186959804967,0,,,right,0,0.5337186959804967,,,,,,,,,,,,,,,,,,,,1002,2019_Mar_01_1450,mf_amp_cond2,3.0.4,59.98335892534566,
were,&&&&,left,neutral,,,,,,0,137,137,92,,,,,,,,,,,,,,,,,,,,,,,LDT,right,0.45034829212818295,0,,,right,0,0.45034829212818295,,,,,,,,,,,,,,,,,,,,1002,2019_Mar_01_1450,mf_amp_cond2,3.0.4,59.98335892534566,
mih,&&&,right,nonword,,,,,,0,138,138,191,,,,,,,,,,,,,,,,,,,,,,,LDT,left,3.401159230968915,0,,,left,0,3.401159230968915,,,,,,,,,,,,,,,,,,,,1002,2019_Mar_01_1450,mf_amp_cond2,3.0.4,59.98335892534566,
papert,&&&&&&,right,nonword,,,,,,0,139,139,49,,,,,,,,,,,,,,,,,,,,,,,LDT,right,0.5503714163787663,1,,,right,1,0.5503714163787663,,,,,,,,,,,,,,,,,,,,1002,2019_Mar_01_1450,mf_amp_cond2,3.0.4,59.98335892534566,
wonderfujnoss,&&&&&&&&&&&&&,right,nonword,,,,,,0,140,140,11,,,,,,,,,,,,,,,,,,,,,,,LDT,left,0.8004454238107428,0,,,left,0,0.8004454238107428,,,,,,,,,,,,,,,,,,,,1002,2019_Mar_01_1450,mf_amp_cond2,3.0.4,59.98335892534566,
promote,&&&&&&&,left,sanctity.virtue,,,,,,0,141,141,173,,,,,,,,,,,,,,,,,,,,,,,LDT,right,0.7671066275797784,0,,,right,0,0.7671066275797784,,,,,,,,,,,,,,,,,,,,1002,2019_Mar_01_1450,mf_amp_cond2,3.0.4,59.98335892534566,
drug,&&&&,left,sanctity.vice,,,,,,0,142,142,75,,,,,,,,,,,,,,,,,,,,,,,LDT,right,0.4336711964569986,0,,,right,0,0.4336711964569986,,,,,,,,,,,,,,,,,,,,1002,2019_Mar_01_1450,mf_amp_cond2,3.0.4,59.98335892534566,
supervuned,&&&&&&&&&&,right,nonword,,,,,,0,143,143,22,,,,,,,,,,,,,,,,,,,,,,,LDT,left,0.7337883575819433,0,,,left,0,0.7337883575819433,,,,,,,,,,,,,,,,,,,,1002,2019_Mar_01_1450,mf_amp_cond2,3.0.4,59.98335892534566,
credit,&&&&&&,left,fairness.virtue,,,,,,0,144,144,168,,,,,,,,,,,,,,,,,,,,,,,LDT,right,0.5503749444615096,0,,,right,0,0.5503749444615096,,,,,,,,,,,,,,,,,,,,1002,2019_Mar_01_1450,mf_amp_cond2,3.0.4,59.98335892534566,
whereafter,&&&&&&&&&&,left,neutral,,,,,,0,145,145,139,,,,,,,,,,,,,,,,,,,,,,,LDT,right,1.2672472656704485,0,,,right,0,1.2672472656704485,,,,,,,,,,,,,,,,,,,,1002,2019_Mar_01_1450,mf_amp_cond2,3.0.4,59.98335892534566,
everything,&&&&&&&&&&,left,neutral,,,,,,0,146,146,176,,,,,,,,,,,,,,,,,,,,,,,LDT,left,0.8837965842103586,1,,,left,1,0.8837965842103586,,,,,,,,,,,,,,,,,,,,1002,2019_Mar_01_1450,mf_amp_cond2,3.0.4,59.98335892534566,
pumber,&&&&&&,None,nonword,,,,,,0,147,147,144,,,,,,,,,,,,,,,,,,,,,,,LDT,right,0.6670709948521107,0,,,right,0,0.6670709948521107,,,,,,,,,,,,,,,,,,,,1002,2019_Mar_01_1450,mf_amp_cond2,3.0.4,59.98335892534566,
terrorist,&&&&&&&&&,left,loyalty.vice,,,,,,0,148,148,81,,,,,,,,,,,,,,,,,,,,,,,LDT,right,0.7004434674745426,0,,,right,0,0.7004434674745426,,,,,,,,,,,,,,,,,,,,1002,2019_Mar_01_1450,mf_amp_cond2,3.0.4,59.98335892534566,
wherever,&&&&&&&&,left,neutral,,,,,,0,149,149,158,,,,,,,,,,,,,,,,,,,,,,,LDT,right,0.6337453483138233,0,,,right,0,0.6337453483138233,,,,,,,,,,,,,,,,,,,,1002,2019_Mar_01_1450,mf_amp_cond2,3.0.4,59.98335892534566,
fifty,&&&&&,left,neutral,,,,,,0,150,150,73,,,,,,,,,,,,,,,,,,,,,,,LDT,right,0.5670283061917871,0,,,right,0,0.5670283061917871,,,,,,,,,,,,,,,,,,,,1002,2019_Mar_01_1450,mf_amp_cond2,3.0.4,59.98335892534566,
gournful,&&&&&&&&,right,nonword,,,,,,0,151,151,9,,,,,,,,,,,,,,,,,,,,,,,LDT,left,0.9004849052289501,0,,,left,0,0.9004849052289501,,,,,,,,,,,,,,,,,,,,1002,2019_Mar_01_1450,mf_amp_cond2,3.0.4,59.98335892534566,
antral,&&&&&&,right,nonword,,,,,,0,152,152,24,,,,,,,,,,,,,,,,,,,,,,,LDT,left,0.650400634505786,0,,,left,0,0.650400634505786,,,,,,,,,,,,,,,,,,,,1002,2019_Mar_01_1450,mf_amp_cond2,3.0.4,59.98335892534566,
vicissifude,&&&&&&&&&&&,right,nonword,,,,,,0,153,153,154,,,,,,,,,,,,,,,,,,,,,,,LDT,left,0.7837853266391903,0,,,left,0,0.7837853266391903,,,,,,,,,,,,,,,,,,,,1002,2019_Mar_01_1450,mf_amp_cond2,3.0.4,59.98335892534566,
about,&&&&&,left,neutral,,,,,,0,154,154,48,,,,,,,,,,,,,,,,,,,,,,,LDT,right,0.9505024008685723,0,,,right,0,0.9505024008685723,,,,,,,,,,,,,,,,,,,,1002,2019_Mar_01_1450,mf_amp_cond2,3.0.4,59.98335892534566,
towards,&&&&&&&,left,neutral,,,,,,0,155,155,150,,,,,,,,,,,,,,,,,,,,,,,LDT,right,0.533725752029568,0,,,right,0,0.533725752029568,,,,,,,,,,,,,,,,,,,,1002,2019_Mar_01_1450,mf_amp_cond2,3.0.4,59.98335892534566,
greaks,&&&&&&,right,nonword,,,,,,0,156,156,108,,,,,,,,,,,,,,,,,,,,,,,LDT,right,1.3505932944826782,1,,,right,1,1.3505932944826782,,,,,,,,,,,,,,,,,,,,1002,2019_Mar_01_1450,mf_amp_cond2,3.0.4,59.98335892534566,
grovelire,&&&&&&&&&,right,nonword,,,,,,0,157,157,71,,,,,,,,,,,,,,,,,,,,,,,LDT,left,0.5670581337762997,0,,,left,0,0.5670581337762997,,,,,,,,,,,,,,,,,,,,1002,2019_Mar_01_1450,mf_amp_cond2,3.0.4,59.98335892534566,
although,&&&&&&&&,left,neutral,,,,,,0,158,158,62,,,,,,,,,,,,,,,,,,,,,,,LDT,right,0.6337270669173449,0,,,right,0,0.6337270669173449,,,,,,,,,,,,,,,,,,,,1002,2019_Mar_01_1450,mf_amp_cond2,3.0.4,59.98335892534566,
photocalkodes,&&&&&&&&&&&&&,right,nonword,,,,,,0,159,159,46,,,,,,,,,,,,,,,,,,,,,,,LDT,left,0.7337639825418591,0,,,left,0,0.7337639825418591,,,,,,,,,,,,,,,,,,,,1002,2019_Mar_01_1450,mf_amp_cond2,3.0.4,59.98335892534566,
ebbitter,&&&&&&&&,right,nonword,,,,,,0,160,160,121,,,,,,,,,,,,,,,,,,,,,,,LDT,left,0.8337774849496782,0,,,left,0,0.8337774849496782,,,,,,,,,,,,,,,,,,,,1002,2019_Mar_01_1450,mf_amp_cond2,3.0.4,59.98335892534566,
touls,&&&&&,right,nonword,,,,,,0,161,161,100,,,,,,,,,,,,,,,,,,,,,,,LDT,left,2.3175091543234885,0,,,left,0,2.3175091543234885,,,,,,,,,,,,,,,,,,,,1002,2019_Mar_01_1450,mf_amp_cond2,3.0.4,59.98335892534566,
slending,&&&&&&&&,right,nonword,,,,,,0,162,162,23,,,,,,,,,,,,,,,,,,,,,,,LDT,left,0.750420551514253,0,,,left,0,0.750420551514253,,,,,,,,,,,,,,,,,,,,1002,2019_Mar_01_1450,mf_amp_cond2,3.0.4,59.98335892534566,
less,&&&&,left,neutral,,,,,,0,163,163,185,,,,,,,,,,,,,,,,,,,,,,,LDT,right,0.38367518957238644,0,,,right,0,0.38367518957238644,,,,,,,,,,,,,,,,,,,,1002,2019_Mar_01_1450,mf_amp_cond2,3.0.4,59.98335892534566,
opportunity,&&&&&&&&&&&,left,fairness.virtue,,,,,,0,164,164,182,,,,,,,,,,,,,,,,,,,,,,,LDT,right,0.7004370529903099,0,,,right,0,0.7004370529903099,,,,,,,,,,,,,,,,,,,,1002,2019_Mar_01_1450,mf_amp_cond2,3.0.4,59.98335892534566,
presentkess,&&&&&&&&&&&,right,nonword,,,,,,0,165,165,199,,,,,,,,,,,,,,,,,,,,,,,LDT,left,0.7170990745071322,0,,,left,0,0.7170990745071322,,,,,,,,,,,,,,,,,,,,1002,2019_Mar_01_1450,mf_amp_cond2,3.0.4,59.98335892534566,
nomparisons,&&&&&&&&&&&,right,nonword,,,,,,0,166,166,110,,,,,,,,,,,,,,,,,,,,,,,LDT,left,0.5837349086068571,0,,,left,0,0.5837349086068571,,,,,,,,,,,,,,,,,,,,1002,2019_Mar_01_1450,mf_amp_cond2,3.0.4,59.98335892534566,
help,&&&&,left,care.virtue,,,,,,0,167,167,26,,,,,,,,,,,,,,,,,,,,,,,LDT,right,0.48371884028892964,0,,,right,0,0.48371884028892964,,,,,,,,,,,,,,,,,,,,1002,2019_Mar_01_1450,mf_amp_cond2,3.0.4,59.98335892534566,
protesters,&&&&&&&&&&,left,authority.vice,,,,,,0,168,168,130,,,,,,,,,,,,,,,,,,,,,,,LDT,left,1.1172079286770895,1,,,left,1,1.1172079286770895,,,,,,,,,,,,,,,,,,,,1002,2019_Mar_01_1450,mf_amp_cond2,3.0.4,59.98335892534566,
threatened,&&&&&&&&&&,left,fairness.vice,,,,,,0,169,169,90,,,,,,,,,,,,,,,,,,,,,,,LDT,right,0.7504391536349431,0,,,right,0,0.7504391536349431,,,,,,,,,,,,,,,,,,,,1002,2019_Mar_01_1450,mf_amp_cond2,3.0.4,59.98335892534566,
vurtain,&&&&&&&,right,nonword,,,,,,0,170,170,20,,,,,,,,,,,,,,,,,,,,,,,LDT,left,0.8004483104450628,0,,,left,0,0.8004483104450628,,,,,,,,,,,,,,,,,,,,1002,2019_Mar_01_1450,mf_amp_cond2,3.0.4,59.98335892534566,
edancipation,&&&&&&&&&&&&,None,nonword,,,,,,0,171,171,53,,,,,,,,,,,,,,,,,,,,,,,LDT,right,1.0838595106033608,0,,,right,0,1.0838595106033608,,,,,,,,,,,,,,,,,,,,1002,2019_Mar_01_1450,mf_amp_cond2,3.0.4,59.98335892534566,
encourage,&&&&&&&&&,left,authority.virtue,,,,,,0,172,172,15,,,,,,,,,,,,,,,,,,,,,,,LDT,right,0.6337309156078845,0,,,right,0,0.6337309156078845,,,,,,,,,,,,,,,,,,,,1002,2019_Mar_01_1450,mf_amp_cond2,3.0.4,59.98335892534566,
integrity,&&&&&&&&&,left,fairness.virtue,,,,,,0,173,173,82,,,,,,,,,,,,,,,,,,,,,,,LDT,right,0.5670655104331672,0,,,right,0,0.5670655104331672,,,,,,,,,,,,,,,,,,,,1002,2019_Mar_01_1450,mf_amp_cond2,3.0.4,59.98335892534566,
couldnt,&&&&&&&,left,neutral,,,,,,0,174,174,58,,,,,,,,,,,,,,,,,,,,,,,LDT,right,0.8838353919563815,0,,,right,0,0.8838353919563815,,,,,,,,,,,,,,,,,,,,1002,2019_Mar_01_1450,mf_amp_cond2,3.0.4,59.98335892534566,
thabbily,&&&&&&&&,right,nonword,,,,,,0,175,175,187,,,,,,,,,,,,,,,,,,,,,,,LDT,left,0.5670837918296456,0,,,left,0,0.5670837918296456,,,,,,,,,,,,,,,,,,,,1002,2019_Mar_01_1450,mf_amp_cond2,3.0.4,59.98335892534566,
tove,&&&&,right,nonword,,,,,,0,176,176,85,,,,,,,,,,,,,,,,,,,,,,,LDT,right,0.4503511785296723,1,,,right,1,0.4503511785296723,,,,,,,,,,,,,,,,,,,,1002,2019_Mar_01_1450,mf_amp_cond2,3.0.4,59.98335892534566,
quarterbocks,&&&&&&&&&&&&,right,nonword,,,,,,0,177,177,79,,,,,,,,,,,,,,,,,,,,,,,LDT,left,0.5671331835910678,0,,,left,0,0.5671331835910678,,,,,,,,,,,,,,,,,,,,1002,2019_Mar_01_1450,mf_amp_cond2,3.0.4,59.98335892534566,
lorthwhile,&&&&&&&&&&,right,nonword,,,,,,0,178,178,51,,,,,,,,,,,,,,,,,,,,,,,LDT,left,1.4839904949767515,0,,,left,0,1.4839904949767515,,,,,,,,,,,,,,,,,,,,1002,2019_Mar_01_1450,mf_amp_cond2,3.0.4,59.98335892534566,
amount,&&&&&&,left,neutral,,,,,,0,179,179,141,,,,,,,,,,,,,,,,,,,,,,,LDT,right,0.43367568659596145,0,,,right,0,0.43367568659596145,,,,,,,,,,,,,,,,,,,,1002,2019_Mar_01_1450,mf_amp_cond2,3.0.4,59.98335892534566,
officers,&&&&&&&&,left,authority.vice,,,,,,0,180,180,128,,,,,,,,,,,,,,,,,,,,,,,LDT,right,0.633739254437387,0,,,right,0,0.633739254437387,,,,,,,,,,,,,,,,,,,,1002,2019_Mar_01_1450,mf_amp_cond2,3.0.4,59.98335892534566,
neputized,&&&&&&&&&,right,nonword,,,,,,0,181,181,95,,,,,,,,,,,,,,,,,,,,,,,LDT,left,1.550648523378186,0,,,left,0,1.550648523378186,,,,,,,,,,,,,,,,,,,,1002,2019_Mar_01_1450,mf_amp_cond2,3.0.4,59.98335892534566,
wump,&&&&,right,nonword,,,,,,0,182,182,84,,,,,,,,,,,,,,,,,,,,,,,LDT,right,0.5003789373440668,1,,,right,1,0.5003789373440668,,,,,,,,,,,,,,,,,,,,1002,2019_Mar_01_1450,mf_amp_cond2,3.0.4,59.98335892534566,
itself,&&&&&&,left,neutral,,,,,,0,183,183,162,,,,,,,,,,,,,,,,,,,,,,,LDT,right,0.6837596367113292,0,,,right,0,0.6837596367113292,,,,,,,,,,,,,,,,,,,,1002,2019_Mar_01_1450,mf_amp_cond2,3.0.4,59.98335892534566,
baladroit,&&&&&&&&&,right,nonword,,,,,,0,184,184,124,,,,,,,,,,,,,,,,,,,,,,,LDT,left,0.6171179652446881,0,,,left,0,0.6171179652446881,,,,,,,,,,,,,,,,,,,,1002,2019_Mar_01_1450,mf_amp_cond2,3.0.4,59.98335892534566,
crilfully,&&&&&&&&&,right,nonword,,,,,,0,185,185,120,,,,,,,,,,,,,,,,,,,,,,,LDT,left,0.7671059860149398,0,,,left,0,0.7671059860149398,,,,,,,,,,,,,,,,,,,,1002,2019_Mar_01_1450,mf_amp_cond2,3.0.4,59.98335892534566,
thru,&&&&,left,neutral,,,,,,0,186,186,181,,,,,,,,,,,,,,,,,,,,,,,LDT,right,2.517553157871589,0,,,right,0,2.517553157871589,,,,,,,,,,,,,,,,,,,,1002,2019_Mar_01_1450,mf_amp_cond2,3.0.4,59.98335892534566,
proached,&&&&&&&&,right,nonword,,,,,,0,187,187,34,,,,,,,,,,,,,,,,,,,,,,,LDT,right,0.7337623788043857,1,,,right,1,0.7337623788043857,,,,,,,,,,,,,,,,,,,,1002,2019_Mar_01_1450,mf_amp_cond2,3.0.4,59.98335892534566,
baklara,&&&&&&&,right,nonword,,,,,,0,188,188,112,,,,,,,,,,,,,,,,,,,,,,,LDT,left,0.6337360471952707,0,,,left,0,0.6337360471952707,,,,,,,,,,,,,,,,,,,,1002,2019_Mar_01_1450,mf_amp_cond2,3.0.4,59.98335892534566,
gazily,&&&&&&,right,nonword,,,,,,0,189,189,179,,,,,,,,,,,,,,,,,,,,,,,LDT,left,0.9171536619542167,0,,,left,0,0.9171536619542167,,,,,,,,,,,,,,,,,,,,1002,2019_Mar_01_1450,mf_amp_cond2,3.0.4,59.98335892534566,
sexual,&&&&&&,left,sanctity.vice,,,,,,0,190,190,192,,,,,,,,,,,,,,,,,,,,,,,LDT,right,0.6003924399847165,0,,,right,0,0.6003924399847165,,,,,,,,,,,,,,,,,,,,1002,2019_Mar_01_1450,mf_amp_cond2,3.0.4,59.98335892534566,
fifteen,&&&&&&&,left,neutral,,,,,,0,191,191,146,,,,,,,,,,,,,,,,,,,,,,,LDT,right,0.7504439646145329,0,,,right,0,0.7504439646145329,,,,,,,,,,,,,,,,,,,,1002,2019_Mar_01_1450,mf_amp_cond2,3.0.4,59.98335892534566,
tabin,&&&&&,right,nonword,,,,,,0,192,192,7,,,,,,,,,,,,,,,,,,,,,,,LDT,left,0.6670841445447877,0,,,left,0,0.6670841445447877,,,,,,,,,,,,,,,,,,,,1002,2019_Mar_01_1450,mf_amp_cond2,3.0.4,59.98335892534566,
precificity,&&&&&&&&&&&,right,nonword,,,,,,0,193,193,78,,,,,,,,,,,,,,,,,,,,,,,LDT,left,1.0005067466991022,0,,,left,0,1.0005067466991022,,,,,,,,,,,,,,,,,,,,1002,2019_Mar_01_1450,mf_amp_cond2,3.0.4,59.98335892534566,
troops,&&&&&&,left,loyalty.vice,,,,,,0,194,194,177,,,,,,,,,,,,,,,,,,,,,,,LDT,right,0.6003956472268328,0,,,right,0,0.6003956472268328,,,,,,,,,,,,,,,,,,,,1002,2019_Mar_01_1450,mf_amp_cond2,3.0.4,59.98335892534566,
chreams,&&&&&&&,right,nonword,,,,,,0,195,195,13,,,,,,,,,,,,,,,,,,,,,,,LDT,left,2.2341746718157083,0,,,left,0,2.2341746718157083,,,,,,,,,,,,,,,,,,,,1002,2019_Mar_01_1450,mf_amp_cond2,3.0.4,59.98335892534566,
pullness,&&&&&&&&,right,nonword,,,,,,0,196,196,31,,,,,,,,,,,,,,,,,,,,,,,LDT,left,0.7837712148902938,0,,,left,0,0.7837712148902938,,,,,,,,,,,,,,,,,,,,1002,2019_Mar_01_1450,mf_amp_cond2,3.0.4,59.98335892534566,
ejanulated,&&&&&&&&&&,right,nonword,,,,,,0,197,197,2,,,,,,,,,,,,,,,,,,,,,,,LDT,right,1.1505608370061964,1,,,right,1,1.1505608370061964,,,,,,,,,,,,,,,,,,,,1002,2019_Mar_01_1450,mf_amp_cond2,3.0.4,59.98335892534566,
died,&&&&,left,care.vice,,,,,,0,198,198,0,,,,,,,,,,,,,,,,,,,,,,,LDT,right,0.6003863462246954,0,,,right,0,0.6003863462246954,,,,,,,,,,,,,,,,,,,,1002,2019_Mar_01_1450,mf_amp_cond2,3.0.4,59.98335892534566,
anything,&&&&&&&&,left,neutral,,,,,,0,199,199,152,,,,,,,,,,,,,,,,,,,,,,,LDT,right,0.41701719316188246,0,,,right,0,0.41701719316188246,,,,,,,,,,,,,,,,,,,,1002,2019_Mar_01_1450,mf_amp_cond2,3.0.4,59.98335892534566,
,,,,,,,,,,,,,,,,,,,,,,,,,,,,,,,,,,,,,,,,,,,,2,11.421,,,,,,,,,,,,,,,,,,1002,2019_Mar_01_1450,mf_amp_cond2,3.0.4,59.98335892534566,
,,,,,,,,,,,,,,,,,,,,,,,,,,,,,,,,,,,,,,,,,,,,,,right,2.51758266473189,,,,,,,,,,,,,,,,1002,2019_Mar_01_1450,mf_amp_cond2,3.0.4,59.98335892534566,
keyboard,&&&&,,,senk,,,,,,,,,0,0,0,2,,,,,,,,,,,,,,,,,,,AMP_prac,left,1.400599564658478,,,,,,,,,,,left,1.400599564658478,,,,,,,,,,,,,,1002,2019_Mar_01_1450,mf_amp_cond2,3.0.4,59.98335892534566,
banana,&&&&&&,,,kacket,,,,,,,,,0,1,1,1,,,,,,,,,,,,,,,,,,,AMP_prac,left,0.6003561979159713,,,,,,,,,,,left,0.6003561979159713,,,,,,,,,,,,,,1002,2019_Mar_01_1450,mf_amp_cond2,3.0.4,59.98335892534566,
scarf,&&&&&&&&,,,bisebell,,,,,,,,,0,2,2,3,,,,,,,,,,,,,,,,,,,AMP_prac,left,1.0338404113426805,,,,,,,,,,,left,1.0338404113426805,,,,,,,,,,,,,,1002,2019_Mar_01_1450,mf_amp_cond2,3.0.4,59.98335892534566,
car,&&&&&&&&,,,cemtuper,,,,,,,,,0,3,3,0,,,,,,,,,,,,,,,,,,,AMP_prac,left,2.30084200121928,,,,,,,,,,,left,2.30084200121928,,,,,,,,,,,,,,1002,2019_Mar_01_1450,mf_amp_cond2,3.0.4,59.98335892534566,
,,,,,,,,,,,,,,,,,,,,,,,,,,,,,,,,,,,,,,,,,,,,,,,,,,right,3.0510544017888606,,,,,,,,,,,,1002,2019_Mar_01_1450,mf_amp_cond2,3.0.4,59.98335892534566,
improve,&&&&&&&&&,left,care.virtue,reprisols,,,,,,,,,,,,,0,0,0,279,,,,,,,,,,,,,,,AMP,left,1.8507271974813193,1,,,,,,,,,,,,,,left,1,1.8507271974813193,,,,,,,,,1002,2019_Mar_01_1450,mf_amp_cond2,3.0.4,59.98335892534566,
compassion,&&&&&&&&&&&,left,care.virtue,egpeditious,,,,,,,,,,,,,0,1,1,260,,,,,,,,,,,,,,,AMP,right,2.4175319579662755,0,,,,,,,,,,,,,,right,0,2.4175319579662755,,,,,,,,,1002,2019_Mar_01_1450,mf_amp_cond2,3.0.4,59.98335892534566,
commitment,&&&&&&&&,left,sanctity.virtue,epigrach,,,,,,,,,,,,,0,2,2,142,,,,,,,,,,,,,,,AMP,left,3.05106017482467,1,,,,,,,,,,,,,,left,1,3.05106017482467,,,,,,,,,1002,2019_Mar_01_1450,mf_amp_cond2,3.0.4,59.98335892534566,
party,&&&&&&&,left,loyalty.virtue,brudent,,,,,,,,,,,,,0,3,3,221,,,,,,,,,,,,,,,AMP,left,1.0671904331538826,1,,,,,,,,,,,,,,left,1,1.0671904331538826,,,,,,,,,1002,2019_Mar_01_1450,mf_amp_cond2,3.0.4,59.98335892534566,
serial,&&&&&,right,sanctity.vice,hasks,,,,,,,,,,,,,0,4,4,184,,,,,,,,,,,,,,,AMP,left,0.9838229158194736,0,,,,,,,,,,,,,,left,0,0.9838229158194736,,,,,,,,,1002,2019_Mar_01_1450,mf_amp_cond2,3.0.4,59.98335892534566,
serial,&&&&&&&&&&,right,sanctity.vice,clattening,,,,,,,,,,,,,0,5,5,89,,,,,,,,,,,,,,,AMP,right,1.0005109159974381,1,,,,,,,,,,,,,,right,1,1.0005109159974381,,,,,,,,,1002,2019_Mar_01_1450,mf_amp_cond2,3.0.4,59.98335892534566,
forced,&&&&&&,right,fairness.vice,chared,,,,,,,,,,,,,0,6,6,240,,,,,,,,,,,,,,,AMP,left,1.600658321636729,0,,,,,,,,,,,,,,left,0,1.600658321636729,,,,,,,,,1002,2019_Mar_01_1450,mf_amp_cond2,3.0.4,59.98335892534566,
party,&&&&&&&&,left,loyalty.virtue,fontacts,,,,,,,,,,,,,0,7,7,321,,,,,,,,,,,,,,,AMP,left,2.9176895945565775,1,,,,,,,,,,,,,,left,1,2.9176895945565775,,,,,,,,,1002,2019_Mar_01_1450,mf_amp_cond2,3.0.4,59.98335892534566,
men,&&&&&&&&&&&&,right,loyalty.vice,gusinesslike,,,,,,,,,,,,,0,8,8,230,,,,,,,,,,,,,,,AMP,left,0.7337604544591159,0,,,,,,,,,,,,,,left,0,0.7337604544591159,,,,,,,,,1002,2019_Mar_01_1450,mf_amp_cond2,3.0.4,59.98335892534566,
penalty,&&&&&&,right,authority.vice,letish,,,,,,,,,,,,,0,9,9,57,,,,,,,,,,,,,,,AMP,left,0.8336482325103134,0,,,,,,,,,,,,,,left,0,0.8336482325103134,,,,,,,,,1002,2019_Mar_01_1450,mf_amp_cond2,3.0.4,59.98335892534566,
progress,&&&&&&&&&&,left,authority.virtue,clattening,,,,,,,,,,,,,0,10,10,55,,,,,,,,,,,,,,,AMP,left,1.0838546997401863,1,,,,,,,,,,,,,,left,1,1.0838546997401863,,,,,,,,,1002,2019_Mar_01_1450,mf_amp_cond2,3.0.4,59.98335892534566,
love,&&&&&&&&&&,left,loyalty.virtue,imebreaker,,,,,,,,,,,,,0,11,11,8,,,,,,,,,,,,,,,AMP,right,1.0671958854654804,0,,,,,,,,,,,,,,right,0,1.0671958854654804,,,,,,,,,1002,2019_Mar_01_1450,mf_amp_cond2,3.0.4,59.98335892534566,
accused,&&&&&&&,right,fairness.vice,emports,,,,,,,,,,,,,0,12,12,32,,,,,,,,,,,,,,,AMP,right,3.0843768410850316,1,,,,,,,,,,,,,,right,1,3.0843768410850316,,,,,,,,,1002,2019_Mar_01_1450,mf_amp_cond2,3.0.4,59.98335892534566,
increase,&&&&&&&,left,care.virtue,chadows,,,,,,,,,,,,,0,13,13,196,,,,,,,,,,,,,,,AMP,left,0.7837747427402064,1,,,,,,,,,,,,,,left,1,0.7837747427402064,,,,,,,,,1002,2019_Mar_01_1450,mf_amp_cond2,3.0.4,59.98335892534566,
faspberry,&&&&&&&&&&,None,nonword,galamitous,,,,,,,,,,,,,0,14,14,289,,,,,,,,,,,,,,,AMP,right,0.7170926599064842,0,,,,,,,,,,,,,,right,0,0.7170926599064842,,,,,,,,,1002,2019_Mar_01_1450,mf_amp_cond2,3.0.4,59.98335892534566,
strength,&&&&&&&&&&&,left,sanctity.virtue,cromiscuity,,,,,,,,,,,,,0,15,15,43,,,,,,,,,,,,,,,AMP,left,1.517302029649727,1,,,,,,,,,,,,,,left,1,1.517302029649727,,,,,,,,,1002,2019_Mar_01_1450,mf_amp_cond2,3.0.4,59.98335892534566,
interests,&&&&&&&&,left,fairness.virtue,dormandi,,,,,,,,,,,,,0,16,16,283,,,,,,,,,,,,,,,AMP,left,1.8340462531195953,1,,,,,,,,,,,,,,left,1,1.8340462531195953,,,,,,,,,1002,2019_Mar_01_1450,mf_amp_cond2,3.0.4,59.98335892534566,
black,&&&&&,right,loyalty.vice,ablow,,,,,,,,,,,,,0,17,17,170,,,,,,,,,,,,,,,AMP,left,2.6509439438814297,0,,,,,,,,,,,,,,left,0,2.6509439438814297,,,,,,,,,1002,2019_Mar_01_1450,mf_amp_cond2,3.0.4,59.98335892534566,
attacks,&&&&&&,right,care.vice,prones,,,,,,,,,,,,,0,18,18,100,,,,,,,,,,,,,,,AMP,left,0.7004293556092307,0,,,,,,,,,,,,,,left,0,0.7004293556092307,,,,,,,,,1002,2019_Mar_01_1450,mf_amp_cond2,3.0.4,59.98335892534566,
death,&&&&&&&&&&&,right,care.vice,egpeditious,,,,,,,,,,,,,0,19,19,167,,,,,,,,,,,,,,,AMP,left,0.5170505807036534,0,,,,,,,,,,,,,,left,0,0.5170505807036534,,,,,,,,,1002,2019_Mar_01_1450,mf_amp_cond2,3.0.4,59.98335892534566,
prosecution,&&&&&&&,right,authority.vice,hatigue,,,,,,,,,,,,,0,20,20,223,,,,,,,,,,,,,,,AMP,left,0.5839106662897393,0,,,,,,,,,,,,,,left,0,0.5839106662897393,,,,,,,,,1002,2019_Mar_01_1450,mf_amp_cond2,3.0.4,59.98335892534566,
great,&&&&&&&&&&,left,loyalty.virtue,ecgagement,,,,,,,,,,,,,0,21,21,261,,,,,,,,,,,,,,,AMP,right,0.6170477262930945,0,,,,,,,,,,,,,,right,0,0.6170477262930945,,,,,,,,,1002,2019_Mar_01_1450,mf_amp_cond2,3.0.4,59.98335892534566,
harassment,&&&&&&&&&,right,sanctity.vice,tomedians,,,,,,,,,,,,,0,22,22,317,,,,,,,,,,,,,,,AMP,right,4.201351602328941,1,,,,,,,,,,,,,,right,1,4.201351602328941,,,,,,,,,1002,2019_Mar_01_1450,mf_amp_cond2,3.0.4,59.98335892534566,
crime,&&&&&&,right,fairness.vice,fegard,,,,,,,,,,,,,0,23,23,199,,,,,,,,,,,,,,,AMP,left,0.6003959680674598,0,,,,,,,,,,,,,,left,0,0.6003959680674598,,,,,,,,,1002,2019_Mar_01_1450,mf_amp_cond2,3.0.4,59.98335892534566,
peaceful,&&&&&&&,left,authority.virtue,reviked,,,,,,,,,,,,,0,24,24,274,,,,,,,,,,,,,,,AMP,left,0.6670812581432983,1,,,,,,,,,,,,,,left,1,0.6670812581432983,,,,,,,,,1002,2019_Mar_01_1450,mf_amp_cond2,3.0.4,59.98335892534566,
accused,&&&&&,right,fairness.vice,mecan,,,,,,,,,,,,,0,25,25,203,,,,,,,,,,,,,,,AMP,left,3.3177201917860657,0,,,,,,,,,,,,,,left,0,3.3177201917860657,,,,,,,,,1002,2019_Mar_01_1450,mf_amp_cond2,3.0.4,59.98335892534566,
arrests,&&&&&&,right,authority.vice,Cunday,,,,,,,,,,,,,0,26,26,195,,,,,,,,,,,,,,,AMP,right,0.9004653409356251,1,,,,,,,,,,,,,,right,1,0.9004653409356251,,,,,,,,,1002,2019_Mar_01_1450,mf_amp_cond2,3.0.4,59.98335892534566,
riot,&&&&&&&,right,authority.vice,troubla,,,,,,,,,,,,,0,27,27,282,,,,,,,,,,,,,,,AMP,left,1.2005616548703983,0,,,,,,,,,,,,,,left,0,1.2005616548703983,,,,,,,,,1002,2019_Mar_01_1450,mf_amp_cond2,3.0.4,59.98335892534566,
uller,&&&&&&&&&&&&,None,nonword,rorroborated,,,,,,,,,,,,,0,28,28,74,,,,,,,,,,,,,,,AMP,left,2.217501745559275,0,,,,,,,,,,,,,,left,0,2.217501745559275,,,,,,,,,1002,2019_Mar_01_1450,mf_amp_cond2,3.0.4,59.98335892534566,
betrayal,&&&&&&&&&&&,right,loyalty.vice,cromiscuity,,,,,,,,,,,,,0,29,29,176,,,,,,,,,,,,,,,AMP,left,0.767107910476625,0,,,,,,,,,,,,,,left,0,0.767107910476625,,,,,,,,,1002,2019_Mar_01_1450,mf_amp_cond2,3.0.4,59.98335892534566,
critics,&&&&&&&&,right,loyalty.vice,sliptery,,,,,,,,,,,,,0,30,30,277,,,,,,,,,,,,,,,AMP,right,2.217488595750183,1,,,,,,,,,,,,,,right,1,2.217488595750183,,,,,,,,,1002,2019_Mar_01_1450,mf_amp_cond2,3.0.4,59.98335892534566,
lies,&&&&&&&,right,fairness.vice,chadows,,,,,,,,,,,,,0,31,31,267,,,,,,,,,,,,,,,AMP,left,0.4503553480608389,0,,,,,,,,,,,,,,left,0,0.4503553480608389,,,,,,,,,1002,2019_Mar_01_1450,mf_amp_cond2,3.0.4,59.98335892534566,
critics,&&&&&&&&&&,right,loyalty.vice,gationwide,,,,,,,,,,,,,0,32,32,95,,,,,,,,,,,,,,,AMP,left,0.8671496368478984,0,,,,,,,,,,,,,,left,0,0.8671496368478984,,,,,,,,,1002,2019_Mar_01_1450,mf_amp_cond2,3.0.4,59.98335892534566,
groups,&&&&&&&&&&,right,loyalty.vice,fonderland,,,,,,,,,,,,,0,33,33,187,,,,,,,,,,,,,,,AMP,left,1.834078646497801,0,,,,,,,,,,,,,,left,0,1.834078646497801,,,,,,,,,1002,2019_Mar_01_1450,mf_amp_cond2,3.0.4,59.98335892534566,
interests,&&&&&,left,fairness.virtue,infet,,,,,,,,,,,,,0,34,34,66,,,,,,,,,,,,,,,AMP,left,0.7002933678450063,1,,,,,,,,,,,,,,left,1,0.7002933678450063,,,,,,,,,1002,2019_Mar_01_1450,mf_amp_cond2,3.0.4,59.98335892534566,
metibolic,&&&&&&&&&&,None,nonword,ammessment,,,,,,,,,,,,,0,35,35,250,,,,,,,,,,,,,,,AMP,left,2.400876350933686,0,,,,,,,,,,,,,,left,0,2.400876350933686,,,,,,,,,1002,2019_Mar_01_1450,mf_amp_cond2,3.0.4,59.98335892534566,
betrayal,&&&&&&&&&&,right,loyalty.vice,imebreaker,,,,,,,,,,,,,0,36,36,133,,,,,,,,,,,,,,,AMP,left,1.4506100042490289,0,,,,,,,,,,,,,,left,0,1.4506100042490289,,,,,,,,,1002,2019_Mar_01_1450,mf_amp_cond2,3.0.4,59.98335892534566,
festate,&&&&&&&,None,nonword,stindig,,,,,,,,,,,,,0,37,37,262,,,,,,,,,,,,,,,AMP,left,2.9176944055361673,0,,,,,,,,,,,,,,left,0,2.9176944055361673,,,,,,,,,1002,2019_Mar_01_1450,mf_amp_cond2,3.0.4,59.98335892534566,
clean,&&&&&&&&&&&&,left,sanctity.virtue,gusinesslike,,,,,,,,,,,,,0,38,38,298,,,,,,,,,,,,,,,AMP,left,0.517048335634172,1,,,,,,,,,,,,,,left,1,0.517048335634172,,,,,,,,,1002,2019_Mar_01_1450,mf_amp_cond2,3.0.4,59.98335892534566,
friends,&&&&&&&&&&&,left,loyalty.virtue,sowntrodden,,,,,,,,,,,,,0,39,39,80,,,,,,,,,,,,,,,AMP,left,0.6837535428348929,1,,,,,,,,,,,,,,left,1,0.6837535428348929,,,,,,,,,1002,2019_Mar_01_1450,mf_amp_cond2,3.0.4,59.98335892534566,
compassion,&&&&&,left,care.virtue,ablow,,,,,,,,,,,,,0,40,40,22,,,,,,,,,,,,,,,AMP,left,0.9338131175609306,1,,,,,,,,,,,,,,left,1,0.9338131175609306,,,,,,,,,1002,2019_Mar_01_1450,mf_amp_cond2,3.0.4,59.98335892534566,
growth,&&&&&,left,care.virtue,noped,,,,,,,,,,,,,0,41,41,209,,,,,,,,,,,,,,,AMP,left,0.5170425624819472,1,,,,,,,,,,,,,,left,1,0.5170425624819472,,,,,,,,,1002,2019_Mar_01_1450,mf_amp_cond2,3.0.4,59.98335892534566,
sonvoy,&&&&&&&&,None,nonword,nuckheap,,,,,,,,,,,,,0,42,42,163,,,,,,,,,,,,,,,AMP,left,0.7504404366482049,0,,,,,,,,,,,,,,left,0,0.7504404366482049,,,,,,,,,1002,2019_Mar_01_1450,mf_amp_cond2,3.0.4,59.98335892534566,
uller,&&&&&,None,nonword,noped,,,,,,,,,,,,,0,43,43,114,,,,,,,,,,,,,,,AMP,left,0.3169905408285558,0,,,,,,,,,,,,,,left,0,0.3169905408285558,,,,,,,,,1002,2019_Mar_01_1450,mf_amp_cond2,3.0.4,59.98335892534566,
win,&&&&&&&&,left,fairness.virtue,divility,,,,,,,,,,,,,0,44,44,108,,,,,,,,,,,,,,,AMP,right,0.70041652652435,0,,,,,,,,,,,,,,right,0,0.70041652652435,,,,,,,,,1002,2019_Mar_01_1450,mf_amp_cond2,3.0.4,59.98335892534566,
fostet,&&&&&&&,None,nonword,sickyay,,,,,,,,,,,,,0,45,45,292,,,,,,,,,,,,,,,AMP,left,2.1341727152466774,0,,,,,,,,,,,,,,left,0,2.1341727152466774,,,,,,,,,1002,2019_Mar_01_1450,mf_amp_cond2,3.0.4,59.98335892534566,
fair,&&&&&&&&&&,left,fairness.virtue,imebreaker,,,,,,,,,,,,,0,46,46,188,,,,,,,,,,,,,,,AMP,right,0.5670530021889135,0,,,,,,,,,,,,,,right,0,0.5670530021889135,,,,,,,,,1002,2019_Mar_01_1450,mf_amp_cond2,3.0.4,59.98335892534566,
hand,&&&&&&&&&&,left,sanctity.virtue,frocessing,,,,,,,,,,,,,0,47,47,224,,,,,,,,,,,,,,,AMP,left,0.6170858925906941,1,,,,,,,,,,,,,,left,1,0.6170858925906941,,,,,,,,,1002,2019_Mar_01_1450,mf_amp_cond2,3.0.4,59.98335892534566,
victims,&&&&&,right,care.vice,mecan,,,,,,,,,,,,,0,48,48,316,,,,,,,,,,,,,,,AMP,left,0.6003934021573514,0,,,,,,,,,,,,,,left,0,0.6003934021573514,,,,,,,,,1002,2019_Mar_01_1450,mf_amp_cond2,3.0.4,59.98335892534566,
festate,&&&&,None,nonword,alar,,,,,,,,,,,,,0,49,49,94,,,,,,,,,,,,,,,AMP,left,0.5671001488808542,0,,,,,,,,,,,,,,left,0,0.5671001488808542,,,,,,,,,1002,2019_Mar_01_1450,mf_amp_cond2,3.0.4,59.98335892534566,
gandbrake,&&&&&&,None,nonword,squets,,,,,,,,,,,,,0,50,50,301,,,,,,,,,,,,,,,AMP,left,0.700426148250699,0,,,,,,,,,,,,,,left,0,0.700426148250699,,,,,,,,,1002,2019_Mar_01_1450,mf_amp_cond2,3.0.4,59.98335892534566,
party,&&&&&&&&&&&&,left,loyalty.virtue,gusinesslike,,,,,,,,,,,,,0,51,51,51,,,,,,,,,,,,,,,AMP,left,0.4003324001096189,1,,,,,,,,,,,,,,left,1,0.4003324001096189,,,,,,,,,1002,2019_Mar_01_1450,mf_amp_cond2,3.0.4,59.98335892534566,
harassment,&&&&&&&,right,sanctity.vice,troubla,,,,,,,,,,,,,0,52,52,226,,,,,,,,,,,,,,,AMP,left,0.6170679319184273,0,,,,,,,,,,,,,,left,0,0.6170679319184273,,,,,,,,,1002,2019_Mar_01_1450,mf_amp_cond2,3.0.4,59.98335892534566,
erdest,&&&&&&&,None,nonword,chadows,,,,,,,,,,,,,0,53,53,45,,,,,,,,,,,,,,,AMP,left,2.6009469747077674,0,,,,,,,,,,,,,,left,0,2.6009469747077674,,,,,,,,,1002,2019_Mar_01_1450,mf_amp_cond2,3.0.4,59.98335892534566,
love,&&&&&&&&&,left,loyalty.virtue,reprisols,,,,,,,,,,,,,0,54,54,92,,,,,,,,,,,,,,,AMP,right,1.5173078026855364,0,,,,,,,,,,,,,,right,0,1.5173078026855364,,,,,,,,,1002,2019_Mar_01_1450,mf_amp_cond2,3.0.4,59.98335892534566,
prosecution,&&&&&&,right,authority.vice,prones,,,,,,,,,,,,,0,55,55,278,,,,,,,,,,,,,,,AMP,left,0.9171469267457724,0,,,,,,,,,,,,,,left,0,0.9171469267457724,,,,,,,,,1002,2019_Mar_01_1450,mf_amp_cond2,3.0.4,59.98335892534566,
terrorists,&&&&&,right,fairness.vice,atson,,,,,,,,,,,,,0,56,56,193,,,,,,,,,,,,,,,AMP,left,0.3837014890741557,0,,,,,,,,,,,,,,left,0,0.3837014890741557,,,,,,,,,1002,2019_Mar_01_1450,mf_amp_cond2,3.0.4,59.98335892534566,
clean,&&&&&&&&,left,sanctity.virtue,emassion,,,,,,,,,,,,,0,57,57,15,,,,,,,,,,,,,,,AMP,right,4.818194384803064,0,,,,,,,,,,,,,,right,0,4.818194384803064,,,,,,,,,1002,2019_Mar_01_1450,mf_amp_cond2,3.0.4,59.98335892534566,
care,&&&&&,left,care.virtue,hasks,,,,,,,,,,,,,0,58,58,136,,,,,,,,,,,,,,,AMP,left,0.5170313371345401,1,,,,,,,,,,,,,,left,1,0.5170313371345401,,,,,,,,,1002,2019_Mar_01_1450,mf_amp_cond2,3.0.4,59.98335892534566,
growth,&&&&&&,left,care.virtue,forepo,,,,,,,,,,,,,0,59,59,160,,,,,,,,,,,,,,,AMP,left,0.6670918420422822,1,,,,,,,,,,,,,,left,1,0.6670918420422822,,,,,,,,,1002,2019_Mar_01_1450,mf_amp_cond2,3.0.4,59.98335892534566,
praised,&&&&&&&&&&&,left,loyalty.virtue,mightingale,,,,,,,,,,,,,0,60,60,124,,,,,,,,,,,,,,,AMP,right,2.300840397598222,0,,,,,,,,,,,,,,right,0,2.300840397598222,,,,,,,,,1002,2019_Mar_01_1450,mf_amp_cond2,3.0.4,59.98335892534566,
benefit,&&&&&&&&,left,fairness.virtue,divility,,,,,,,,,,,,,0,61,61,246,,,,,,,,,,,,,,,AMP,right,0.583726249053143,0,,,,,,,,,,,,,,right,0,0.583726249053143,,,,,,,,,1002,2019_Mar_01_1450,mf_amp_cond2,3.0.4,59.98335892534566,
black,&&&&&&&&&&,right,loyalty.vice,Oregoniuns,,,,,,,,,,,,,0,62,62,84,,,,,,,,,,,,,,,AMP,left,0.5503672469640151,0,,,,,,,,,,,,,,left,0,0.5503672469640151,,,,,,,,,1002,2019_Mar_01_1450,mf_amp_cond2,3.0.4,59.98335892534566,
victim,&&&&&&&&,right,care.vice,nuckheap,,,,,,,,,,,,,0,63,63,264,,,,,,,,,,,,,,,AMP,left,2.3341759867034853,0,,,,,,,,,,,,,,left,0,2.3341759867034853,,,,,,,,,1002,2019_Mar_01_1450,mf_amp_cond2,3.0.4,59.98335892534566,
fraud,&&&&&&,right,fairness.vice,Cunday,,,,,,,,,,,,,0,64,64,109,,,,,,,,,,,,,,,AMP,right,2.534249817719683,1,,,,,,,,,,,,,,right,1,2.534249817719683,,,,,,,,,1002,2019_Mar_01_1450,mf_amp_cond2,3.0.4,59.98335892534566,
great,&&&&&&&&&&&&&,left,loyalty.virtue,synchronazers,,,,,,,,,,,,,0,65,65,183,,,,,,,,,,,,,,,AMP,right,1.6838750978931785,0,,,,,,,,,,,,,,right,0,1.6838750978931785,,,,,,,,,1002,2019_Mar_01_1450,mf_amp_cond2,3.0.4,59.98335892534566,
army,&&&&&&&&,right,loyalty.vice,fontacts,,,,,,,,,,,,,0,66,66,63,,,,,,,,,,,,,,,AMP,left,1.1505406312644482,0,,,,,,,,,,,,,,left,0,1.1505406312644482,,,,,,,,,1002,2019_Mar_01_1450,mf_amp_cond2,3.0.4,59.98335892534566,
useful,&&&&&&&&,left,authority.virtue,bluently,,,,,,,,,,,,,0,67,67,208,,,,,,,,,,,,,,,AMP,left,1.567312469240278,1,,,,,,,,,,,,,,left,1,1.567312469240278,,,,,,,,,1002,2019_Mar_01_1450,mf_amp_cond2,3.0.4,59.98335892534566,
promises,&&&&&&&&&,left,fairness.virtue,brotesque,,,,,,,,,,,,,0,68,68,7,,,,,,,,,,,,,,,AMP,left,0.7004210166633129,1,,,,,,,,,,,,,,left,1,0.7004210166633129,,,,,,,,,1002,2019_Mar_01_1450,mf_amp_cond2,3.0.4,59.98335892534566,
fostet,&&&&&,None,nonword,leact,,,,,,,,,,,,,0,69,69,220,,,,,,,,,,,,,,,AMP,left,0.717084962525405,0,,,,,,,,,,,,,,left,0,0.717084962525405,,,,,,,,,1002,2019_Mar_01_1450,mf_amp_cond2,3.0.4,59.98335892534566,
safety,&&&&&&&&,left,care.virtue,emassion,,,,,,,,,,,,,0,70,70,141,,,,,,,,,,,,,,,AMP,right,1.5840007902588695,0,,,,,,,,,,,,,,right,0,1.5840007902588695,,,,,,,,,1002,2019_Mar_01_1450,mf_amp_cond2,3.0.4,59.98335892534566,
death,&&&&&&&,right,care.vice,reviked,,,,,,,,,,,,,0,71,71,130,,,,,,,,,,,,,,,AMP,left,0.8337842201581225,0,,,,,,,,,,,,,,left,0,0.8337842201581225,,,,,,,,,1002,2019_Mar_01_1450,mf_amp_cond2,3.0.4,59.98335892534566,
unpleasant,&&&&&,None,control,aubos,,,,,,,,,,,,,0,72,72,194,,,,,,,,,,,,,,,AMP,left,0.8171154635492712,0,,,,,,,,,,,,,,left,0,0.8171154635492712,,,,,,,,,1002,2019_Mar_01_1450,mf_amp_cond2,3.0.4,59.98335892534566,
conspiracy,&&&&&&&&&,right,sanctity.vice,godlaness,,,,,,,,,,,,,0,73,73,241,,,,,,,,,,,,,,,AMP,left,0.5170419211499393,0,,,,,,,,,,,,,,left,0,0.5170419211499393,,,,,,,,,1002,2019_Mar_01_1450,mf_amp_cond2,3.0.4,59.98335892534566,
civilians,&&&&&&&&&,right,care.vice,discovars,,,,,,,,,,,,,0,74,74,293,,,,,,,,,,,,,,,AMP,left,1.0505107718054205,0,,,,,,,,,,,,,,left,0,1.0505107718054205,,,,,,,,,1002,2019_Mar_01_1450,mf_amp_cond2,3.0.4,59.98335892534566,
erdest,&&&&&&&&,None,nonword,bluently,,,,,,,,,,,,,0,75,75,156,,,,,,,,,,,,,,,AMP,left,0.48369927611202,0,,,,,,,,,,,,,,left,0,0.48369927611202,,,,,,,,,1002,2019_Mar_01_1450,mf_amp_cond2,3.0.4,59.98335892534566,
blamed,&&&&&&&&&,right,loyalty.vice,rivernoat,,,,,,,,,,,,,0,76,76,88,,,,,,,,,,,,,,,AMP,right,1.333931272965856,1,,,,,,,,,,,,,,right,1,1.333931272965856,,,,,,,,,1002,2019_Mar_01_1450,mf_amp_cond2,3.0.4,59.98335892534566,
faspberry,&&&&&&&&&&&,None,nonword,neneficence,,,,,,,,,,,,,0,77,77,46,,,,,,,,,,,,,,,AMP,right,1.1338721952633932,0,,,,,,,,,,,,,,right,0,1.1338721952633932,,,,,,,,,1002,2019_Mar_01_1450,mf_amp_cond2,3.0.4,59.98335892534566,
peace,&&&&&&&,left,care.virtue,emports,,,,,,,,,,,,,0,78,78,197,,,,,,,,,,,,,,,AMP,left,2.3675356302410364,1,,,,,,,,,,,,,,left,1,2.3675356302410364,,,,,,,,,1002,2019_Mar_01_1450,mf_amp_cond2,3.0.4,59.98335892534566,
harassment,&&&&&&&&&&,right,sanctity.vice,reelectiob,,,,,,,,,,,,,0,79,79,83,,,,,,,,,,,,,,,AMP,left,0.5837185515556484,0,,,,,,,,,,,,,,left,0,0.5837185515556484,,,,,,,,,1002,2019_Mar_01_1450,mf_amp_cond2,3.0.4,59.98335892534566,
safety,&&&&&&&&&,left,care.virtue,rivernoat,,,,,,,,,,,,,0,80,80,213,,,,,,,,,,,,,,,AMP,left,1.4506141737801954,1,,,,,,,,,,,,,,left,1,1.4506141737801954,,,,,,,,,1002,2019_Mar_01_1450,mf_amp_cond2,3.0.4,59.98335892534566,
violations,&&&&&,right,sanctity.vice,dumid,,,,,,,,,,,,,0,81,81,268,,,,,,,,,,,,,,,AMP,left,0.467018973082304,0,,,,,,,,,,,,,,left,0,0.467018973082304,,,,,,,,,1002,2019_Mar_01_1450,mf_amp_cond2,3.0.4,59.98335892534566,
critics,&&&&&&&&&&&,right,loyalty.vice,sowntrodden,,,,,,,,,,,,,0,82,82,166,,,,,,,,,,,,,,,AMP,left,1.3506035576574504,0,,,,,,,,,,,,,,left,0,1.3506035576574504,,,,,,,,,1002,2019_Mar_01_1450,mf_amp_cond2,3.0.4,59.98335892534566,
energy,&&&&&&&&&&&,left,sanctity.virtue,fornicalion,,,,,,,,,,,,,0,83,83,303,,,,,,,,,,,,,,,AMP,left,0.5170476941857487,1,,,,,,,,,,,,,,left,1,0.5170476941857487,,,,,,,,,1002,2019_Mar_01_1450,mf_amp_cond2,3.0.4,59.98335892534566,
perfect,&&&&&&&&&&&&&,left,sanctity.virtue,esquisiteness,,,,,,,,,,,,,0,84,84,320,,,,,,,,,,,,,,,AMP,right,0.5837281733984128,0,,,,,,,,,,,,,,right,0,0.5837281733984128,,,,,,,,,1002,2019_Mar_01_1450,mf_amp_cond2,3.0.4,59.98335892534566,
friends,&&&&&&,left,loyalty.virtue,chared,,,,,,,,,,,,,0,85,85,106,,,,,,,,,,,,,,,AMP,left,0.5337356943637133,1,,,,,,,,,,,,,,left,1,0.5337356943637133,,,,,,,,,1002,2019_Mar_01_1450,mf_amp_cond2,3.0.4,59.98335892534566,
gun,&&&&&&&,right,authority.vice,stindig,,,,,,,,,,,,,0,86,86,107,,,,,,,,,,,,,,,AMP,left,0.5170069619780406,0,,,,,,,,,,,,,,left,0,0.5170069619780406,,,,,,,,,1002,2019_Mar_01_1450,mf_amp_cond2,3.0.4,59.98335892534566,
pleasant,&&&&&&&&&,None,control,chressing,,,,,,,,,,,,,0,87,87,269,,,,,,,,,,,,,,,AMP,left,3.201079947524704,0,,,,,,,,,,,,,,left,0,3.201079947524704,,,,,,,,,1002,2019_Mar_01_1450,mf_amp_cond2,3.0.4,59.98335892534566,
perfect,&&&&&,left,sanctity.virtue,leact,,,,,,,,,,,,,0,88,88,113,,,,,,,,,,,,,,,AMP,left,0.30029772967100143,1,,,,,,,,,,,,,,left,1,0.30029772967100143,,,,,,,,,1002,2019_Mar_01_1450,mf_amp_cond2,3.0.4,59.98335892534566,
progress,&&&&&&&&&,left,authority.virtue,reprisols,,,,,,,,,,,,,0,89,89,242,,,,,,,,,,,,,,,AMP,left,0.3003195390338078,1,,,,,,,,,,,,,,left,1,0.3003195390338078,,,,,,,,,1002,2019_Mar_01_1450,mf_amp_cond2,3.0.4,59.98335892534566,
violence,&&&&&&,right,care.vice,gikely,,,,,,,,,,,,,0,90,90,161,,,,,,,,,,,,,,,AMP,left,0.3336583353811875,0,,,,,,,,,,,,,,left,0,0.3336583353811875,,,,,,,,,1002,2019_Mar_01_1450,mf_amp_cond2,3.0.4,59.98335892534566,
embrace,&&&&&&&&&&&,left,authority.virtue,fornicalion,,,,,,,,,,,,,0,91,91,40,,,,,,,,,,,,,,,AMP,left,0.3836812833324075,1,,,,,,,,,,,,,,left,1,0.3836812833324075,,,,,,,,,1002,2019_Mar_01_1450,mf_amp_cond2,3.0.4,59.98335892534566,
hope,&&&&&&&,left,loyalty.virtue,brudent,,,,,,,,,,,,,0,92,92,126,,,,,,,,,,,,,,,AMP,left,0.3503177911043167,1,,,,,,,,,,,,,,left,1,0.3503177911043167,,,,,,,,,1002,2019_Mar_01_1450,mf_amp_cond2,3.0.4,59.98335892534566,
perfect,&&&&&,left,sanctity.virtue,pulge,,,,,,,,,,,,,0,93,93,47,,,,,,,,,,,,,,,AMP,left,0.6837593158707023,1,,,,,,,,,,,,,,left,1,0.6837593158707023,,,,,,,,,1002,2019_Mar_01_1450,mf_amp_cond2,3.0.4,59.98335892534566,
improve,&&&&&&&,left,care.virtue,sickyay,,,,,,,,,,,,,0,94,94,140,,,,,,,,,,,,,,,AMP,left,0.3836469656089321,1,,,,,,,,,,,,,,left,1,0.3836469656089321,,,,,,,,,1002,2019_Mar_01_1450,mf_amp_cond2,3.0.4,59.98335892534566,
praise,&&&&&&&&&,left,authority.virtue,disregord,,,,,,,,,,,,,0,95,95,58,,,,,,,,,,,,,,,AMP,left,0.46704527270048857,1,,,,,,,,,,,,,,left,1,0.46704527270048857,,,,,,,,,1002,2019_Mar_01_1450,mf_amp_cond2,3.0.4,59.98335892534566,
scandal,&&&&&&&&&&,right,sanctity.vice,abointment,,,,,,,,,,,,,0,96,96,112,,,,,,,,,,,,,,,AMP,left,0.5337417882401496,0,,,,,,,,,,,,,,left,0,0.5337417882401496,,,,,,,,,1002,2019_Mar_01_1450,mf_amp_cond2,3.0.4,59.98335892534566,
protect,&&&&&&&&,left,fairness.virtue,nuckheap,,,,,,,,,,,,,0,97,97,18,,,,,,,,,,,,,,,AMP,left,0.5003600146155804,1,,,,,,,,,,,,,,left,1,0.5003600146155804,,,,,,,,,1002,2019_Mar_01_1450,mf_amp_cond2,3.0.4,59.98335892534566,
lempestuous,&&&&&&&&&&,None,nonword,clattening,,,,,,,,,,,,,0,98,98,257,,,,,,,,,,,,,,,AMP,left,0.43368049745913595,0,,,,,,,,,,,,,,left,0,0.43368049745913595,,,,,,,,,1002,2019_Mar_01_1450,mf_amp_cond2,3.0.4,59.98335892534566,
victims,&&&&&&&&&&,right,care.vice,frocessing,,,,,,,,,,,,,0,99,99,1,,,,,,,,,,,,,,,AMP,left,0.4169992324896157,0,,,,,,,,,,,,,,left,0,0.4169992324896157,,,,,,,,,1002,2019_Mar_01_1450,mf_amp_cond2,3.0.4,59.98335892534566,
hope,&&&&&&&,left,loyalty.virtue,carvels,,,,,,,,,,,,,0,100,100,272,,,,,,,,,,,,,,,AMP,right,0.900453794747591,0,,,,,,,,,,,,,,right,0,0.900453794747591,,,,,,,,,1002,2019_Mar_01_1450,mf_amp_cond2,3.0.4,59.98335892534566,
black,&&&&&&&&&&,right,loyalty.vice,frojecting,,,,,,,,,,,,,0,101,101,305,,,,,,,,,,,,,,,AMP,left,1.6006426060339436,0,,,,,,,,,,,,,,left,0,1.6006426060339436,,,,,,,,,1002,2019_Mar_01_1450,mf_amp_cond2,3.0.4,59.98335892534566,
war,&&&&&,right,sanctity.vice,ablow,,,,,,,,,,,,,0,102,102,154,,,,,,,,,,,,,,,AMP,left,0.4003343244548887,0,,,,,,,,,,,,,,left,0,0.4003343244548887,,,,,,,,,1002,2019_Mar_01_1450,mf_amp_cond2,3.0.4,59.98335892534566,
peaceful,&&&&&&&&&,left,authority.virtue,reprisols,,,,,,,,,,,,,0,103,103,37,,,,,,,,,,,,,,,AMP,left,0.5337190167047083,1,,,,,,,,,,,,,,left,1,0.5337190167047083,,,,,,,,,1002,2019_Mar_01_1450,mf_amp_cond2,3.0.4,59.98335892534566,
love,&&&&&&&,left,loyalty.virtue,emports,,,,,,,,,,,,,0,104,104,300,,,,,,,,,,,,,,,AMP,left,0.5170342237688601,1,,,,,,,,,,,,,,left,1,0.5170342237688601,,,,,,,,,1002,2019_Mar_01_1450,mf_amp_cond2,3.0.4,59.98335892534566,
embrace,&&&&&&&,left,authority.virtue,troubla,,,,,,,,,,,,,0,105,105,125,,,,,,,,,,,,,,,AMP,left,0.40034041821490973,1,,,,,,,,,,,,,,left,1,0.40034041821490973,,,,,,,,,1002,2019_Mar_01_1450,mf_amp_cond2,3.0.4,59.98335892534566,
hope,&&&&&&&&,left,loyalty.virtue,nuckheap,,,,,,,,,,,,,0,106,106,245,,,,,,,,,,,,,,,AMP,left,0.7837898168945685,1,,,,,,,,,,,,,,left,1,0.7837898168945685,,,,,,,,,1002,2019_Mar_01_1450,mf_amp_cond2,3.0.4,59.98335892534566,
protect,&&&&&&&&,left,fairness.virtue,bluently,,,,,,,,,,,,,0,107,107,254,,,,,,,,,,,,,,,AMP,left,1.5839841125998646,1,,,,,,,,,,,,,,left,1,1.5839841125998646,,,,,,,,,1002,2019_Mar_01_1450,mf_amp_cond2,3.0.4,59.98335892534566,
death,&&&,right,care.vice,oam,,,,,,,,,,,,,0,108,108,296,,,,,,,,,,,,,,,AMP,left,1.117194458260201,0,,,,,,,,,,,,,,left,0,1.117194458260201,,,,,,,,,1002,2019_Mar_01_1450,mf_amp_cond2,3.0.4,59.98335892534566,
friends,&&&&&,left,loyalty.virtue,noped,,,,,,,,,,,,,0,109,109,287,,,,,,,,,,,,,,,AMP,left,0.33365801465697587,1,,,,,,,,,,,,,,left,1,0.33365801465697587,,,,,,,,,1002,2019_Mar_01_1450,mf_amp_cond2,3.0.4,59.98335892534566,
sonvoy,&&&&&&&,None,nonword,reviked,,,,,,,,,,,,,0,110,110,216,,,,,,,,,,,,,,,AMP,left,0.46702602913137525,0,,,,,,,,,,,,,,left,0,0.46702602913137525,,,,,,,,,1002,2019_Mar_01_1450,mf_amp_cond2,3.0.4,59.98335892534566,
police,&&&&&&&,right,authority.vice,Loorish,,,,,,,,,,,,,0,111,111,192,,,,,,,,,,,,,,,AMP,left,0.33365416596643627,0,,,,,,,,,,,,,,left,0,0.33365416596643627,,,,,,,,,1002,2019_Mar_01_1450,mf_amp_cond2,3.0.4,59.98335892534566,
powerful,&&&&&&&&&&,left,authority.virtue,totalestic,,,,,,,,,,,,,0,112,112,73,,,,,,,,,,,,,,,AMP,right,1.0338509953580797,0,,,,,,,,,,,,,,right,0,1.0338509953580797,,,,,,,,,1002,2019_Mar_01_1450,mf_amp_cond2,3.0.4,59.98335892534566,
black,&&&&&&&&,right,loyalty.vice,counpy's,,,,,,,,,,,,,0,113,113,19,,,,,,,,,,,,,,,AMP,left,0.6337331607937813,0,,,,,,,,,,,,,,left,0,0.6337331607937813,,,,,,,,,1002,2019_Mar_01_1450,mf_amp_cond2,3.0.4,59.98335892534566,
powerful,&&&&&&&&&&,left,authority.virtue,totalestic,,,,,,,,,,,,,0,114,114,118,,,,,,,,,,,,,,,AMP,right,0.5337058670120314,0,,,,,,,,,,,,,,right,0,0.5337058670120314,,,,,,,,,1002,2019_Mar_01_1450,mf_amp_cond2,3.0.4,59.98335892534566,
racist,&&&&&,right,sanctity.vice,dumid,,,,,,,,,,,,,0,115,115,239,,,,,,,,,,,,,,,AMP,left,2.2508091108174995,0,,,,,,,,,,,,,,left,0,2.2508091108174995,,,,,,,,,1002,2019_Mar_01_1450,mf_amp_cond2,3.0.4,59.98335892534566,
party,&&&&&&&&&,left,loyalty.virtue,brotesque,,,,,,,,,,,,,0,116,116,138,,,,,,,,,,,,,,,AMP,left,0.3836969989351928,1,,,,,,,,,,,,,,left,1,0.3836969989351928,,,,,,,,,1002,2019_Mar_01_1450,mf_amp_cond2,3.0.4,59.98335892534566,
victim,&&&&&&&&&,right,care.vice,chressing,,,,,,,,,,,,,0,117,117,132,,,,,,,,,,,,,,,AMP,left,0.36701669602189213,0,,,,,,,,,,,,,,left,0,0.36701669602189213,,,,,,,,,1002,2019_Mar_01_1450,mf_amp_cond2,3.0.4,59.98335892534566,
voter,&&&&&&&&&,right,fairness.vice,discovars,,,,,,,,,,,,,0,118,118,34,,,,,,,,,,,,,,,AMP,left,1.3339238963089883,0,,,,,,,,,,,,,,left,0,1.3339238963089883,,,,,,,,,1002,2019_Mar_01_1450,mf_amp_cond2,3.0.4,59.98335892534566,
forced,&&&&&&&,right,fairness.vice,brudent,,,,,,,,,,,,,0,119,119,263,,,,,,,,,,,,,,,AMP,left,0.33365127944853157,0,,,,,,,,,,,,,,left,0,0.33365127944853157,,,,,,,,,1002,2019_Mar_01_1450,mf_amp_cond2,3.0.4,59.98335892534566,
pleasant,&&&&&,None,control,hasks,,,,,,,,,,,,,0,120,120,61,,,,,,,,,,,,,,,AMP,left,0.36698943423107266,0,,,,,,,,,,,,,,left,0,0.36698943423107266,,,,,,,,,1002,2019_Mar_01_1450,mf_amp_cond2,3.0.4,59.98335892534566,
intelligence,&&&&&&&&&&,left,loyalty.virtue,galamitous,,,,,,,,,,,,,0,121,121,139,,,,,,,,,,,,,,,AMP,left,2.3675221597077325,1,,,,,,,,,,,,,,left,1,2.3675221597077325,,,,,,,,,1002,2019_Mar_01_1450,mf_amp_cond2,3.0.4,59.98335892534566,
compassion,&&&&&&&&&&,left,care.virtue,abointment,,,,,,,,,,,,,0,122,122,235,,,,,,,,,,,,,,,AMP,left,0.6169207189232111,1,,,,,,,,,,,,,,left,1,0.6169207189232111,,,,,,,,,1002,2019_Mar_01_1450,mf_amp_cond2,3.0.4,59.98335892534566,
hand,&&&&,left,sanctity.virtue,erks,,,,,,,,,,,,,0,123,123,76,,,,,,,,,,,,,,,AMP,left,0.43369011930190027,1,,,,,,,,,,,,,,left,1,0.43369011930190027,,,,,,,,,1002,2019_Mar_01_1450,mf_amp_cond2,3.0.4,59.98335892534566,
army,&&&&&&&&,right,loyalty.vice,drumbled,,,,,,,,,,,,,0,124,124,159,,,,,,,,,,,,,,,AMP,left,0.4503345008706674,0,,,,,,,,,,,,,,left,0,0.4503345008706674,,,,,,,,,1002,2019_Mar_01_1450,mf_amp_cond2,3.0.4,59.98335892534566,
free,&&&&,left,fairness.virtue,erks,,,,,,,,,,,,,0,125,125,280,,,,,,,,,,,,,,,AMP,left,0.38366749219130725,1,,,,,,,,,,,,,,left,1,0.38366749219130725,,,,,,,,,1002,2019_Mar_01_1450,mf_amp_cond2,3.0.4,59.98335892534566,
powerful,&&&&&&&,left,authority.virtue,nomaric,,,,,,,,,,,,,0,126,126,273,,,,,,,,,,,,,,,AMP,left,0.4836861261865124,1,,,,,,,,,,,,,,left,1,0.4836861261865124,,,,,,,,,1002,2019_Mar_01_1450,mf_amp_cond2,3.0.4,59.98335892534566,
interests,&&&&&&&&&&&,left,fairness.virtue,fornicalion,,,,,,,,,,,,,0,127,127,155,,,,,,,,,,,,,,,AMP,left,1.6840194244869053,1,,,,,,,,,,,,,,left,1,1.6840194244869053,,,,,,,,,1002,2019_Mar_01_1450,mf_amp_cond2,3.0.4,59.98335892534566,
improve,&&&&&&&&&,left,care.virtue,discovars,,,,,,,,,,,,,0,128,128,233,,,,,,,,,,,,,,,AMP,left,0.43367536598816514,1,,,,,,,,,,,,,,left,1,0.43367536598816514,,,,,,,,,1002,2019_Mar_01_1450,mf_amp_cond2,3.0.4,59.98335892534566,
benefit,&&&,left,fairness.virtue,oam,,,,,,,,,,,,,0,129,129,212,,,,,,,,,,,,,,,AMP,left,0.35032196051906794,1,,,,,,,,,,,,,,left,1,0.35032196051906794,,,,,,,,,1002,2019_Mar_01_1450,mf_amp_cond2,3.0.4,59.98335892534566,
clean,&&&&&&&,left,sanctity.virtue,sickyay,,,,,,,,,,,,,0,130,130,202,,,,,,,,,,,,,,,AMP,left,0.4170261734398082,1,,,,,,,,,,,,,,left,1,0.4170261734398082,,,,,,,,,1002,2019_Mar_01_1450,mf_amp_cond2,3.0.4,59.98335892534566,
praised,&&&&&&&&,left,loyalty.virtue,drumbled,,,,,,,,,,,,,0,131,131,201,,,,,,,,,,,,,,,AMP,left,0.4503492541844025,1,,,,,,,,,,,,,,left,1,0.4503492541844025,,,,,,,,,1002,2019_Mar_01_1450,mf_amp_cond2,3.0.4,59.98335892534566,
tenuflect,&&&&&&&&&&,None,nonword,fonderland,,,,,,,,,,,,,0,132,132,17,,,,,,,,,,,,,,,AMP,right,1.0838502096012235,0,,,,,,,,,,,,,,right,0,1.0838502096012235,,,,,,,,,1002,2019_Mar_01_1450,mf_amp_cond2,3.0.4,59.98335892534566,
police,&&&&&&,right,authority.vice,gikely,,,,,,,,,,,,,0,133,133,266,,,,,,,,,,,,,,,AMP,left,0.3503187531605363,0,,,,,,,,,,,,,,left,0,0.3503187531605363,,,,,,,,,1002,2019_Mar_01_1450,mf_amp_cond2,3.0.4,59.98335892534566,
conspiracy,&&&&&&&&&,right,sanctity.vice,disregord,,,,,,,,,,,,,0,134,134,324,,,,,,,,,,,,,,,AMP,left,0.5336888685123995,0,,,,,,,,,,,,,,left,0,0.5336888685123995,,,,,,,,,1002,2019_Mar_01_1450,mf_amp_cond2,3.0.4,59.98335892534566,
attacks,&&&&&&&&,right,care.vice,drumbled,,,,,,,,,,,,,0,135,135,286,,,,,,,,,,,,,,,AMP,left,0.150293993181549,0,,,,,,,,,,,,,,left,0,0.150293993181549,,,,,,,,,1002,2019_Mar_01_1450,mf_amp_cond2,3.0.4,59.98335892534566,
violence,&&&&&&&&&,right,care.vice,tomedians,,,,,,,,,,,,,0,136,136,52,,,,,,,,,,,,,,,AMP,left,2.217494048178196,0,,,,,,,,,,,,,,left,0,2.217494048178196,,,,,,,,,1002,2019_Mar_01_1450,mf_amp_cond2,3.0.4,59.98335892534566,
victim,&&&&&&&&,right,care.vice,emassion,,,,,,,,,,,,,0,137,137,227,,,,,,,,,,,,,,,AMP,left,0.6170534993289039,0,,,,,,,,,,,,,,left,0,0.6170534993289039,,,,,,,,,1002,2019_Mar_01_1450,mf_amp_cond2,3.0.4,59.98335892534566,
free,&&&&&&&&&&,left,fairness.virtue,ammessment,,,,,,,,,,,,,0,138,138,168,,,,,,,,,,,,,,,AMP,left,1.667358365142718,1,,,,,,,,,,,,,,left,1,1.667358365142718,,,,,,,,,1002,2019_Mar_01_1450,mf_amp_cond2,3.0.4,59.98335892534566,
fostet,&&&&&,None,nonword,atson,,,,,,,,,,,,,0,139,139,3,,,,,,,,,,,,,,,AMP,left,0.31683081947267056,0,,,,,,,,,,,,,,left,0,0.31683081947267056,,,,,,,,,1002,2019_Mar_01_1450,mf_amp_cond2,3.0.4,59.98335892534566,
blamed,&&&&&&&&,right,loyalty.vice,sliptery,,,,,,,,,,,,,0,140,140,72,,,,,,,,,,,,,,,AMP,left,0.9171482095262036,0,,,,,,,,,,,,,,left,0,0.9171482095262036,,,,,,,,,1002,2019_Mar_01_1450,mf_amp_cond2,3.0.4,59.98335892534566,
increase,&&&&&,left,care.virtue,framo,,,,,,,,,,,,,0,141,141,30,,,,,,,,,,,,,,,AMP,left,0.4837040869751945,1,,,,,,,,,,,,,,left,1,0.4837040869751945,,,,,,,,,1002,2019_Mar_01_1450,mf_amp_cond2,3.0.4,59.98335892534566,
scandal,&&&&&,right,sanctity.vice,aubos,,,,,,,,,,,,,0,142,142,75,,,,,,,,,,,,,,,AMP,left,2.6509449060540646,0,,,,,,,,,,,,,,left,0,2.6509449060540646,,,,,,,,,1002,2019_Mar_01_1450,mf_amp_cond2,3.0.4,59.98335892534566,
voter,&&&&&&&&&,right,fairness.vice,godlaness,,,,,,,,,,,,,0,143,143,121,,,,,,,,,,,,,,,AMP,left,0.5337267142022029,0,,,,,,,,,,,,,,left,0,0.5337267142022029,,,,,,,,,1002,2019_Mar_01_1450,mf_amp_cond2,3.0.4,59.98335892534566,
blamed,&&&&,right,loyalty.vice,erks,,,,,,,,,,,,,0,144,144,204,,,,,,,,,,,,,,,AMP,left,0.21695490821730345,0,,,,,,,,,,,,,,left,0,0.21695490821730345,,,,,,,,,1002,2019_Mar_01_1450,mf_amp_cond2,3.0.4,59.98335892534566,
rebels,&&&&&&&&&,right,authority.vice,chressing,,,,,,,,,,,,,0,145,145,28,,,,,,,,,,,,,,,AMP,left,0.46702699130401015,0,,,,,,,,,,,,,,left,0,0.46702699130401015,,,,,,,,,1002,2019_Mar_01_1450,mf_amp_cond2,3.0.4,59.98335892534566,
hope,&&&&&&&,left,loyalty.virtue,nackers,,,,,,,,,,,,,0,146,146,64,,,,,,,,,,,,,,,AMP,left,0.31700016267132014,1,,,,,,,,,,,,,,left,1,0.31700016267132014,,,,,,,,,1002,2019_Mar_01_1450,mf_amp_cond2,3.0.4,59.98335892534566,
protect,&&&&&&&&,left,fairness.virtue,ugeasily,,,,,,,,,,,,,0,147,147,211,,,,,,,,,,,,,,,AMP,left,0.45035598950926214,1,,,,,,,,,,,,,,left,1,0.45035598950926214,,,,,,,,,1002,2019_Mar_01_1450,mf_amp_cond2,3.0.4,59.98335892534566,
crime,&&&&&&&&&&,right,fairness.vice,ammessment,,,,,,,,,,,,,0,148,148,21,,,,,,,,,,,,,,,AMP,left,1.2338985268725082,0,,,,,,,,,,,,,,left,0,1.2338985268725082,,,,,,,,,1002,2019_Mar_01_1450,mf_amp_cond2,3.0.4,59.98335892534566,
voter,&&&&&&&,right,fairness.vice,nackers,,,,,,,,,,,,,0,149,149,299,,,,,,,,,,,,,,,AMP,left,0.36699649039655924,0,,,,,,,,,,,,,,left,0,0.36699649039655924,,,,,,,,,1002,2019_Mar_01_1450,mf_amp_cond2,3.0.4,59.98335892534566,
penalty,&&&&&&&&&&&,right,authority.vice,mightingale,,,,,,,,,,,,,0,150,150,258,,,,,,,,,,,,,,,AMP,left,0.9338137591257691,0,,,,,,,,,,,,,,left,0,0.9338137591257691,,,,,,,,,1002,2019_Mar_01_1450,mf_amp_cond2,3.0.4,59.98335892534566,
pleasant,&&&&&&&&&&&&,None,control,bruthfulness,,,,,,,,,,,,,0,151,151,179,,,,,,,,,,,,,,,AMP,left,1.6340051362058148,0,,,,,,,,,,,,,,left,0,1.6340051362058148,,,,,,,,,1002,2019_Mar_01_1450,mf_amp_cond2,3.0.4,59.98335892534566,
serial,&&&&&&&&&&&&,right,sanctity.vice,bruthfulness,,,,,,,,,,,,,0,152,152,249,,,,,,,,,,,,,,,AMP,left,1.3005963253090158,0,,,,,,,,,,,,,,left,0,1.3005963253090158,,,,,,,,,1002,2019_Mar_01_1450,mf_amp_cond2,3.0.4,59.98335892534566,
lempestuous,&&&&&&&&,None,nonword,sidearbs,,,,,,,,,,,,,0,153,153,123,,,,,,,,,,,,,,,AMP,left,0.4670318022836,0,,,,,,,,,,,,,,left,0,0.4670318022836,,,,,,,,,1002,2019_Mar_01_1450,mf_amp_cond2,3.0.4,59.98335892534566,
dignity,&&&&&&&&&&,left,sanctity.virtue,imebreaker,,,,,,,,,,,,,0,154,154,323,,,,,,,,,,,,,,,AMP,right,0.5003776544472203,0,,,,,,,,,,,,,,right,0,0.5003776544472203,,,,,,,,,1002,2019_Mar_01_1450,mf_amp_cond2,3.0.4,59.98335892534566,
betrayal,&&&&&,right,loyalty.vice,pulge,,,,,,,,,,,,,0,155,155,270,,,,,,,,,,,,,,,AMP,left,1.2005696729756892,0,,,,,,,,,,,,,,left,0,1.2005696729756892,,,,,,,,,1002,2019_Mar_01_1450,mf_amp_cond2,3.0.4,59.98335892534566,
care,&&&&&&&&&&,left,care.virtue,Oregoniuns,,,,,,,,,,,,,0,156,156,44,,,,,,,,,,,,,,,AMP,left,0.5837220796383917,1,,,,,,,,,,,,,,left,1,0.5837220796383917,,,,,,,,,1002,2019_Mar_01_1450,mf_amp_cond2,3.0.4,59.98335892534566,
lempestuous,&&&&&,None,nonword,dumid,,,,,,,,,,,,,0,157,157,62,,,,,,,,,,,,,,,AMP,left,0.4170043640770018,0,,,,,,,,,,,,,,left,0,0.4170043640770018,,,,,,,,,1002,2019_Mar_01_1450,mf_amp_cond2,3.0.4,59.98335892534566,
great,&&&&&,left,loyalty.virtue,leact,,,,,,,,,,,,,0,158,158,65,,,,,,,,,,,,,,,AMP,left,0.3336698815692216,1,,,,,,,,,,,,,,left,1,0.3336698815692216,,,,,,,,,1002,2019_Mar_01_1450,mf_amp_cond2,3.0.4,59.98335892534566,
riot,&&&&&&&&&,right,authority.vice,gaultless,,,,,,,,,,,,,0,159,159,175,,,,,,,,,,,,,,,AMP,left,0.3836652470054105,0,,,,,,,,,,,,,,left,0,0.3836652470054105,,,,,,,,,1002,2019_Mar_01_1450,mf_amp_cond2,3.0.4,59.98335892534566,
promises,&&&&&&&&&&,left,fairness.virtue,gationwide,,,,,,,,,,,,,0,160,160,308,,,,,,,,,,,,,,,AMP,left,0.7004171679727733,1,,,,,,,,,,,,,,left,1,0.7004171679727733,,,,,,,,,1002,2019_Mar_01_1450,mf_amp_cond2,3.0.4,59.98335892534566,
scandal,&&&&&,right,sanctity.vice,framo,,,,,,,,,,,,,0,161,161,256,,,,,,,,,,,,,,,AMP,left,1.834053629776463,0,,,,,,,,,,,,,,left,0,1.834053629776463,,,,,,,,,1002,2019_Mar_01_1450,mf_amp_cond2,3.0.4,59.98335892534566,
serial,&&&&&&&&&&,right,sanctity.vice,gationwide,,,,,,,,,,,,,0,162,162,48,,,,,,,,,,,,,,,AMP,left,0.400347474263981,0,,,,,,,,,,,,,,left,0,0.400347474263981,,,,,,,,,1002,2019_Mar_01_1450,mf_amp_cond2,3.0.4,59.98335892534566,
victim,&&&&&&&&,right,care.vice,epigrach,,,,,,,,,,,,,0,163,163,56,,,,,,,,,,,,,,,AMP,left,0.600399816641584,0,,,,,,,,,,,,,,left,0,0.600399816641584,,,,,,,,,1002,2019_Mar_01_1450,mf_amp_cond2,3.0.4,59.98335892534566,
terrorists,&&&&&,right,fairness.vice,viscs,,,,,,,,,,,,,0,164,164,248,,,,,,,,,,,,,,,AMP,left,0.3836729443864897,0,,,,,,,,,,,,,,left,0,0.3836729443864897,,,,,,,,,1002,2019_Mar_01_1450,mf_amp_cond2,3.0.4,59.98335892534566,
metibolic,&&&&&&&&,None,nonword,fontacts,,,,,,,,,,,,,0,165,165,144,,,,,,,,,,,,,,,AMP,left,0.40033496590331197,0,,,,,,,,,,,,,,left,0,0.40033496590331197,,,,,,,,,1002,2019_Mar_01_1450,mf_amp_cond2,3.0.4,59.98335892534566,
win,&&&&&&&&&&,left,fairness.virtue,galamitous,,,,,,,,,,,,,0,166,166,42,,,,,,,,,,,,,,,AMP,right,0.45035342359915376,0,,,,,,,,,,,,,,right,0,0.45035342359915376,,,,,,,,,1002,2019_Mar_01_1450,mf_amp_cond2,3.0.4,59.98335892534566,
gandbrake,&&&&&&&&&&&,None,nonword,neneficence,,,,,,,,,,,,,0,167,167,177,,,,,,,,,,,,,,,AMP,right,1.4839443104574457,0,,,,,,,,,,,,,,right,0,1.4839443104574457,,,,,,,,,1002,2019_Mar_01_1450,mf_amp_cond2,3.0.4,59.98335892534566,
friends,&&&&&&&&&&,left,loyalty.virtue,frojecting,,,,,,,,,,,,,0,168,168,244,,,,,,,,,,,,,,,AMP,left,0.4836732973344624,1,,,,,,,,,,,,,,left,1,0.4836732973344624,,,,,,,,,1002,2019_Mar_01_1450,mf_amp_cond2,3.0.4,59.98335892534566,
blamed,&&&&&&&&,right,loyalty.vice,sidearbs,,,,,,,,,,,,,0,169,169,315,,,,,,,,,,,,,,,AMP,left,0.383686094195582,0,,,,,,,,,,,,,,left,0,0.383686094195582,,,,,,,,,1002,2019_Mar_01_1450,mf_amp_cond2,3.0.4,59.98335892534566,
rebels,&&&&&&&&&&,right,authority.vice,galamitous,,,,,,,,,,,,,0,170,170,207,,,,,,,,,,,,,,,AMP,right,0.40033945615869015,1,,,,,,,,,,,,,,right,1,0.40033945615869015,,,,,,,,,1002,2019_Mar_01_1450,mf_amp_cond2,3.0.4,59.98335892534566,
death,&&&&&&&,right,care.vice,nomaric,,,,,,,,,,,,,0,171,171,12,,,,,,,,,,,,,,,AMP,left,3.117700884118676,0,,,,,,,,,,,,,,left,0,3.117700884118676,,,,,,,,,1002,2019_Mar_01_1450,mf_amp_cond2,3.0.4,59.98335892534566,
fair,&&&&&&&&&,left,fairness.virtue,godlaness,,,,,,,,,,,,,0,172,172,252,,,,,,,,,,,,,,,AMP,right,0.36702663847245276,0,,,,,,,,,,,,,,right,0,0.36702663847245276,,,,,,,,,1002,2019_Mar_01_1450,mf_amp_cond2,3.0.4,59.98335892534566,
benefit,&&&&&&&&&&&&,left,fairness.virtue,bruthfulness,,,,,,,,,,,,,0,173,173,110,,,,,,,,,,,,,,,AMP,left,0.43368979857768863,1,,,,,,,,,,,,,,left,1,0.43368979857768863,,,,,,,,,1002,2019_Mar_01_1450,mf_amp_cond2,3.0.4,59.98335892534566,
honored,&&&&&&,left,authority.virtue,squets,,,,,,,,,,,,,0,174,174,173,,,,,,,,,,,,,,,AMP,left,0.3336666743271053,1,,,,,,,,,,,,,,left,1,0.3336666743271053,,,,,,,,,1002,2019_Mar_01_1450,mf_amp_cond2,3.0.4,59.98335892534566,
erdest,&&&&&&&&&&,None,nonword,reelectiob,,,,,,,,,,,,,0,175,175,318,,,,,,,,,,,,,,,AMP,left,0.3836706994334236,0,,,,,,,,,,,,,,left,0,0.3836706994334236,,,,,,,,,1002,2019_Mar_01_1450,mf_amp_cond2,3.0.4,59.98335892534566,
commitment,&&&&&&&,left,sanctity.virtue,nackers,,,,,,,,,,,,,0,176,176,225,,,,,,,,,,,,,,,AMP,left,0.4003458705265075,1,,,,,,,,,,,,,,left,1,0.4003458705265075,,,,,,,,,1002,2019_Mar_01_1450,mf_amp_cond2,3.0.4,59.98335892534566,
peaceful,&&&&&&&&&&&&&,left,authority.virtue,esquisiteness,,,,,,,,,,,,,0,177,177,158,,,,,,,,,,,,,,,AMP,right,0.6004399074008688,0,,,,,,,,,,,,,,right,0,0.6004399074008688,,,,,,,,,1002,2019_Mar_01_1450,mf_amp_cond2,3.0.4,59.98335892534566,
terrorists,&&&&&&,right,fairness.vice,squets,,,,,,,,,,,,,0,178,178,85,,,,,,,,,,,,,,,AMP,left,1.417276660213247,0,,,,,,,,,,,,,,left,0,1.417276660213247,,,,,,,,,1002,2019_Mar_01_1450,mf_amp_cond2,3.0.4,59.98335892534566,
war,&&&&&&,right,sanctity.vice,letish,,,,,,,,,,,,,0,179,179,326,,,,,,,,,,,,,,,AMP,left,0.517025243374519,0,,,,,,,,,,,,,,left,0,0.517025243374519,,,,,,,,,1002,2019_Mar_01_1450,mf_amp_cond2,3.0.4,59.98335892534566,
fair,&&&&&&&&&&,left,fairness.virtue,ecgagement,,,,,,,,,,,,,0,180,180,38,,,,,,,,,,,,,,,AMP,left,2.2508328445255756,1,,,,,,,,,,,,,,left,1,2.2508328445255756,,,,,,,,,1002,2019_Mar_01_1450,mf_amp_cond2,3.0.4,59.98335892534566,
civilians,&&&&&&&&,right,care.vice,sliptery,,,,,,,,,,,,,0,181,181,171,,,,,,,,,,,,,,,AMP,left,0.48369318223558366,0,,,,,,,,,,,,,,left,0,0.48369318223558366,,,,,,,,,1002,2019_Mar_01_1450,mf_amp_cond2,3.0.4,59.98335892534566,
gandbrake,&&&&&&&,None,nonword,stindig,,,,,,,,,,,,,0,182,182,41,,,,,,,,,,,,,,,AMP,left,0.3836777552496642,0,,,,,,,,,,,,,,left,0,0.3836777552496642,,,,,,,,,1002,2019_Mar_01_1450,mf_amp_cond2,3.0.4,59.98335892534566,
racist,&&&&&&,right,sanctity.vice,fegard,,,,,,,,,,,,,0,183,183,59,,,,,,,,,,,,,,,AMP,left,0.26696951733902097,0,,,,,,,,,,,,,,left,0,0.26696951733902097,,,,,,,,,1002,2019_Mar_01_1450,mf_amp_cond2,3.0.4,59.98335892534566,
growth,&&&&&&&&&,left,care.virtue,rivernoat,,,,,,,,,,,,,0,184,184,71,,,,,,,,,,,,,,,AMP,right,1.3339476299006492,0,,,,,,,,,,,,,,right,0,1.3339476299006492,,,,,,,,,1002,2019_Mar_01_1450,mf_amp_cond2,3.0.4,59.98335892534566,
safety,&&&&&&&&&,left,care.virtue,rivernoat,,,,,,,,,,,,,0,185,185,297,,,,,,,,,,,,,,,AMP,right,0.6004184187622741,0,,,,,,,,,,,,,,right,0,0.6004184187622741,,,,,,,,,1002,2019_Mar_01_1450,mf_amp_cond2,3.0.4,59.98335892534566,
care,&&&&&&,left,care.virtue,forepo,,,,,,,,,,,,,0,186,186,306,,,,,,,,,,,,,,,AMP,left,0.3503168288152665,1,,,,,,,,,,,,,,left,1,0.3503168288152665,,,,,,,,,1002,2019_Mar_01_1450,mf_amp_cond2,3.0.4,59.98335892534566,
energy,&&&&,left,sanctity.virtue,alar,,,,,,,,,,,,,0,187,187,231,,,,,,,,,,,,,,,AMP,left,1.0505104509647936,1,,,,,,,,,,,,,,left,1,1.0505104509647936,,,,,,,,,1002,2019_Mar_01_1450,mf_amp_cond2,3.0.4,59.98335892534566,
progress,&&&&&,left,authority.virtue,hasks,,,,,,,,,,,,,0,188,188,322,,,,,,,,,,,,,,,AMP,left,4.084646250819787,1,,,,,,,,,,,,,,left,1,4.084646250819787,,,,,,,,,1002,2019_Mar_01_1450,mf_amp_cond2,3.0.4,59.98335892534566,
prosecution,&&&&&&&&,right,authority.vice,bluently,,,,,,,,,,,,,0,189,189,6,,,,,,,,,,,,,,,AMP,left,0.5670475498773158,0,,,,,,,,,,,,,,left,0,0.5670475498773158,,,,,,,,,1002,2019_Mar_01_1450,mf_amp_cond2,3.0.4,59.98335892534566,
shot,&&&&&&&&&,right,care.vice,gaultless,,,,,,,,,,,,,0,190,190,128,,,,,,,,,,,,,,,AMP,left,0.4169966666959226,0,,,,,,,,,,,,,,left,0,0.4169966666959226,,,,,,,,,1002,2019_Mar_01_1450,mf_amp_cond2,3.0.4,59.98335892534566,
riot,&&&&&&&,right,authority.vice,carvels,,,,,,,,,,,,,0,191,191,67,,,,,,,,,,,,,,,AMP,left,1.05051654484123,0,,,,,,,,,,,,,,left,0,1.05051654484123,,,,,,,,,1002,2019_Mar_01_1450,mf_amp_cond2,3.0.4,59.98335892534566,
honored,&&&&&&&&&&,left,authority.virtue,frocessing,,,,,,,,,,,,,0,192,192,294,,,,,,,,,,,,,,,AMP,left,0.4003333623986691,1,,,,,,,,,,,,,,left,1,0.4003333623986691,,,,,,,,,1002,2019_Mar_01_1450,mf_amp_cond2,3.0.4,59.98335892534566,
unpleasant,&&&&&&,None,control,gikely,,,,,,,,,,,,,0,193,193,11,,,,,,,,,,,,,,,AMP,left,0.36699969752226025,0,,,,,,,,,,,,,,left,0,0.36699969752226025,,,,,,,,,1002,2019_Mar_01_1450,mf_amp_cond2,3.0.4,59.98335892534566,
increase,&&&&&&&&&&,left,care.virtue,neutralust,,,,,,,,,,,,,0,194,194,129,,,,,,,,,,,,,,,AMP,right,0.8838010744657367,0,,,,,,,,,,,,,,right,0,0.8838010744657367,,,,,,,,,1002,2019_Mar_01_1450,mf_amp_cond2,3.0.4,59.98335892534566,
voter,&&&&&&&&,right,fairness.vice,fontacts,,,,,,,,,,,,,0,195,195,200,,,,,,,,,,,,,,,AMP,left,0.35033543093595654,0,,,,,,,,,,,,,,left,0,0.35033543093595654,,,,,,,,,1002,2019_Mar_01_1450,mf_amp_cond2,3.0.4,59.98335892534566,
interests,&&&&&&&&&,left,fairness.virtue,brotesque,,,,,,,,,,,,,0,196,196,222,,,,,,,,,,,,,,,AMP,left,0.35035178798716515,1,,,,,,,,,,,,,,left,1,0.35035178798716515,,,,,,,,,1002,2019_Mar_01_1450,mf_amp_cond2,3.0.4,59.98335892534566,
violence,&&&&&&&,right,care.vice,hatigue,,,,,,,,,,,,,0,197,197,310,,,,,,,,,,,,,,,AMP,left,0.6337437446927652,0,,,,,,,,,,,,,,left,0,0.6337437446927652,,,,,,,,,1002,2019_Mar_01_1450,mf_amp_cond2,3.0.4,59.98335892534566,
groups,&&&&&&&,right,loyalty.vice,Loorish,,,,,,,,,,,,,0,198,198,14,,,,,,,,,,,,,,,AMP,left,0.36700033908709884,0,,,,,,,,,,,,,,left,0,0.36700033908709884,,,,,,,,,1002,2019_Mar_01_1450,mf_amp_cond2,3.0.4,59.98335892534566,
gun,&&&&&&,right,authority.vice,prones,,,,,,,,,,,,,0,199,199,50,,,,,,,,,,,,,,,AMP,left,0.8671275067608804,0,,,,,,,,,,,,,,left,0,0.8671275067608804,,,,,,,,,1002,2019_Mar_01_1450,mf_amp_cond2,3.0.4,59.98335892534566,
dignity,&&&&&&&&&&,left,sanctity.virtue,neutralust,,,,,,,,,,,,,0,200,200,181,,,,,,,,,,,,,,,AMP,right,1.4173674256308004,0,,,,,,,,,,,,,,right,0,1.4173674256308004,,,,,,,,,1002,2019_Mar_01_1450,mf_amp_cond2,3.0.4,59.98335892534566,
lies,&&&&&&&&&&&&&,right,fairness.vice,synchronazers,,,,,,,,,,,,,0,201,201,143,,,,,,,,,,,,,,,AMP,right,0.6837288469541818,1,,,,,,,,,,,,,,right,1,0.6837288469541818,,,,,,,,,1002,2019_Mar_01_1450,mf_amp_cond2,3.0.4,59.98335892534566,
unpleasant,&&&&&&,None,control,chared,,,,,,,,,,,,,0,202,202,284,,,,,,,,,,,,,,,AMP,left,0.6337360471952707,0,,,,,,,,,,,,,,left,0,0.6337360471952707,,,,,,,,,1002,2019_Mar_01_1450,mf_amp_cond2,3.0.4,59.98335892534566,
terrorists,&&&&&&&,right,fairness.vice,hatigue,,,,,,,,,,,,,0,203,203,24,,,,,,,,,,,,,,,AMP,left,0.3336477513657883,0,,,,,,,,,,,,,,left,0,0.3336477513657883,,,,,,,,,1002,2019_Mar_01_1450,mf_amp_cond2,3.0.4,59.98335892534566,
dignity,&&&,left,sanctity.virtue,oam,,,,,,,,,,,,,0,204,204,96,,,,,,,,,,,,,,,AMP,left,1.1505794391268864,1,,,,,,,,,,,,,,left,1,1.1505794391268864,,,,,,,,,1002,2019_Mar_01_1450,mf_amp_cond2,3.0.4,59.98335892534566,
men,&&&&&&,right,loyalty.vice,fegard,,,,,,,,,,,,,0,205,205,150,,,,,,,,,,,,,,,AMP,left,0.4503518200945109,0,,,,,,,,,,,,,,left,0,0.4503518200945109,,,,,,,,,1002,2019_Mar_01_1450,mf_amp_cond2,3.0.4,59.98335892534566,
intelligence,&&&&&&&&&&,left,loyalty.virtue,fonderland,,,,,,,,,,,,,0,206,206,265,,,,,,,,,,,,,,,AMP,right,0.7170862454222515,0,,,,,,,,,,,,,,right,0,0.7170862454222515,,,,,,,,,1002,2019_Mar_01_1450,mf_amp_cond2,3.0.4,59.98335892534566,
men,&&&&&&&&&&,right,loyalty.vice,abointment,,,,,,,,,,,,,0,207,207,78,,,,,,,,,,,,,,,AMP,left,3.217771796626039,0,,,,,,,,,,,,,,left,0,3.217771796626039,,,,,,,,,1002,2019_Mar_01_1450,mf_amp_cond2,3.0.4,59.98335892534566,
shot,&&&&&&&&&&,right,care.vice,neutralust,,,,,,,,,,,,,0,208,208,288,,,,,,,,,,,,,,,AMP,left,0.783743311651051,0,,,,,,,,,,,,,,left,0,0.783743311651051,,,,,,,,,1002,2019_Mar_01_1450,mf_amp_cond2,3.0.4,59.98335892534566,
growth,&&&&&&&&,left,care.virtue,epigrach,,,,,,,,,,,,,0,209,209,327,,,,,,,,,,,,,,,AMP,left,0.6504304619738832,1,,,,,,,,,,,,,,left,1,0.6504304619738832,,,,,,,,,1002,2019_Mar_01_1450,mf_amp_cond2,3.0.4,59.98335892534566,
praise,&&&&&,left,authority.virtue,viscs,,,,,,,,,,,,,0,210,210,165,,,,,,,,,,,,,,,AMP,left,0.28365687606856227,1,,,,,,,,,,,,,,left,1,0.28365687606856227,,,,,,,,,1002,2019_Mar_01_1450,mf_amp_cond2,3.0.4,59.98335892534566,
rebels,&&&&&&&&&,right,authority.vice,brotesque,,,,,,,,,,,,,0,211,211,291,,,,,,,,,,,,,,,AMP,left,0.40033464529551566,0,,,,,,,,,,,,,,left,0,0.40033464529551566,,,,,,,,,1002,2019_Mar_01_1450,mf_amp_cond2,3.0.4,59.98335892534566,
sonvoy,&&&&&,None,nonword,ablow,,,,,,,,,,,,,0,212,212,319,,,,,,,,,,,,,,,AMP,left,1.117238718434237,0,,,,,,,,,,,,,,left,0,1.117238718434237,,,,,,,,,1002,2019_Mar_01_1450,mf_amp_cond2,3.0.4,59.98335892534566,
gun,&&&&&&,right,authority.vice,prones,,,,,,,,,,,,,0,213,213,205,,,,,,,,,,,,,,,AMP,left,0.40025895391590893,0,,,,,,,,,,,,,,left,0,0.40025895391590893,,,,,,,,,1002,2019_Mar_01_1450,mf_amp_cond2,3.0.4,59.98335892534566,
strength,&&&&&&&,left,sanctity.virtue,carvels,,,,,,,,,,,,,0,214,214,162,,,,,,,,,,,,,,,AMP,left,1.0005006528226659,1,,,,,,,,,,,,,,left,1,1.0005006528226659,,,,,,,,,1002,2019_Mar_01_1450,mf_amp_cond2,3.0.4,59.98335892534566,
free,&&&&&&&&&&,left,fairness.virtue,fonderland,,,,,,,,,,,,,0,215,215,91,,,,,,,,,,,,,,,AMP,right,0.45033514231909066,0,,,,,,,,,,,,,,right,0,0.45033514231909066,,,,,,,,,1002,2019_Mar_01_1450,mf_amp_cond2,3.0.4,59.98335892534566,
festate,&&&&&&&,None,nonword,scalbel,,,,,,,,,,,,,0,216,216,35,,,,,,,,,,,,,,,AMP,left,0.43366221606265754,0,,,,,,,,,,,,,,left,0,0.43366221606265754,,,,,,,,,1002,2019_Mar_01_1450,mf_amp_cond2,3.0.4,59.98335892534566,
racist,&&&&&&,right,sanctity.vice,letish,,,,,,,,,,,,,0,217,217,105,,,,,,,,,,,,,,,AMP,left,0.9338583400240168,0,,,,,,,,,,,,,,left,0,0.9338583400240168,,,,,,,,,1002,2019_Mar_01_1450,mf_amp_cond2,3.0.4,59.98335892534566,
protect,&&&&&&&,left,fairness.virtue,emports,,,,,,,,,,,,,0,218,218,90,,,,,,,,,,,,,,,AMP,left,1.9507374927634373,1,,,,,,,,,,,,,,left,1,1.9507374927634373,,,,,,,,,1002,2019_Mar_01_1450,mf_amp_cond2,3.0.4,59.98335892534566,
accused,&&&&&&&,right,fairness.vice,scalbel,,,,,,,,,,,,,0,219,219,148,,,,,,,,,,,,,,,AMP,left,2.5009081348543987,0,,,,,,,,,,,,,,left,0,2.5009081348543987,,,,,,,,,1002,2019_Mar_01_1450,mf_amp_cond2,3.0.4,59.98335892534566,
crime,&&&&&&&&&&&,right,fairness.vice,cromiscuity,,,,,,,,,,,,,0,220,220,285,,,,,,,,,,,,,,,AMP,left,0.4170178346103057,0,,,,,,,,,,,,,,left,0,0.4170178346103057,,,,,,,,,1002,2019_Mar_01_1450,mf_amp_cond2,3.0.4,59.98335892534566,
groups,&&&&&,right,loyalty.vice,infet,,,,,,,,,,,,,0,221,221,247,,,,,,,,,,,,,,,AMP,left,0.3169940687948838,0,,,,,,,,,,,,,,left,0,0.3169940687948838,,,,,,,,,1002,2019_Mar_01_1450,mf_amp_cond2,3.0.4,59.98335892534566,
unpleasant,&&&&&&&&,None,control,sliptery,,,,,,,,,,,,,0,222,222,119,,,,,,,,,,,,,,,AMP,left,0.33366539131384343,0,,,,,,,,,,,,,,left,0,0.33366539131384343,,,,,,,,,1002,2019_Mar_01_1450,mf_amp_cond2,3.0.4,59.98335892534566,
conspiracy,&&&&&,right,sanctity.vice,aubos,,,,,,,,,,,,,0,223,223,103,,,,,,,,,,,,,,,AMP,left,0.3503319029696286,0,,,,,,,,,,,,,,left,0,0.3503319029696286,,,,,,,,,1002,2019_Mar_01_1450,mf_amp_cond2,3.0.4,59.98335892534566,
care,&&&&&&,left,care.virtue,letish,,,,,,,,,,,,,0,224,224,190,,,,,,,,,,,,,,,AMP,left,0.7337646238738671,1,,,,,,,,,,,,,,left,1,0.7337646238738671,,,,,,,,,1002,2019_Mar_01_1450,mf_amp_cond2,3.0.4,59.98335892534566,
fraud,&&&&&&&&&&&,right,fairness.vice,egpeditious,,,,,,,,,,,,,0,225,225,33,,,,,,,,,,,,,,,AMP,left,0.3503242055885494,0,,,,,,,,,,,,,,left,0,0.3503242055885494,,,,,,,,,1002,2019_Mar_01_1450,mf_amp_cond2,3.0.4,59.98335892534566,
attacks,&&&&&&&,right,care.vice,carvels,,,,,,,,,,,,,0,226,226,182,,,,,,,,,,,,,,,AMP,left,0.3503293371759355,0,,,,,,,,,,,,,,left,0,0.3503293371759355,,,,,,,,,1002,2019_Mar_01_1450,mf_amp_cond2,3.0.4,59.98335892534566,
police,&&&&&&&&&&,right,authority.vice,ammessment,,,,,,,,,,,,,0,227,227,134,,,,,,,,,,,,,,,AMP,right,1.317262836964801,1,,,,,,,,,,,,,,right,1,1.317262836964801,,,,,,,,,1002,2019_Mar_01_1450,mf_amp_cond2,3.0.4,59.98335892534566,
groups,&&&&&,right,loyalty.vice,viscs,,,,,,,,,,,,,0,228,228,117,,,,,,,,,,,,,,,AMP,left,1.1005276258802041,0,,,,,,,,,,,,,,left,0,1.1005276258802041,,,,,,,,,1002,2019_Mar_01_1450,mf_amp_cond2,3.0.4,59.98335892534566,
strength,&&&&&&&,left,sanctity.virtue,scalbel,,,,,,,,,,,,,0,229,229,255,,,,,,,,,,,,,,,AMP,left,0.7671011751517653,1,,,,,,,,,,,,,,left,1,0.7671011751517653,,,,,,,,,1002,2019_Mar_01_1450,mf_amp_cond2,3.0.4,59.98335892534566,
great,&&&&&&&&&&&,left,loyalty.virtue,neneficence,,,,,,,,,,,,,0,230,230,146,,,,,,,,,,,,,,,AMP,right,0.8171228402061388,0,,,,,,,,,,,,,,right,0,0.8171228402061388,,,,,,,,,1002,2019_Mar_01_1450,mf_amp_cond2,3.0.4,59.98335892534566,
useful,&&&&&,left,authority.virtue,infet,,,,,,,,,,,,,0,231,231,104,,,,,,,,,,,,,,,AMP,left,0.9171639252454042,1,,,,,,,,,,,,,,left,1,0.9171639252454042,,,,,,,,,1002,2019_Mar_01_1450,mf_amp_cond2,3.0.4,59.98335892534566,
energy,&&&&&&&,left,sanctity.virtue,nomaric,,,,,,,,,,,,,0,232,232,127,,,,,,,,,,,,,,,AMP,left,0.7337790565798059,1,,,,,,,,,,,,,,left,1,0.7337790565798059,,,,,,,,,1002,2019_Mar_01_1450,mf_amp_cond2,3.0.4,59.98335892534566,
intelligence,&&&&&&&&&&&&,left,loyalty.virtue,rorroborated,,,,,,,,,,,,,0,233,233,186,,,,,,,,,,,,,,,AMP,left,0.48370087961666286,1,,,,,,,,,,,,,,left,1,0.48370087961666286,,,,,,,,,1002,2019_Mar_01_1450,mf_amp_cond2,3.0.4,59.98335892534566,
festate,&&&&&&&&&&,None,nonword,gationwide,,,,,,,,,,,,,0,234,234,206,,,,,,,,,,,,,,,AMP,left,0.31698605068959296,0,,,,,,,,,,,,,,left,0,0.31698605068959296,,,,,,,,,1002,2019_Mar_01_1450,mf_amp_cond2,3.0.4,59.98335892534566,
shot,&&&&&&&&&&,right,care.vice,clattening,,,,,,,,,,,,,0,235,235,191,,,,,,,,,,,,,,,AMP,left,0.40039013081695884,0,,,,,,,,,,,,,,left,0,0.40039013081695884,,,,,,,,,1002,2019_Mar_01_1450,mf_amp_cond2,3.0.4,59.98335892534566,
forced,&&&&&&&,right,fairness.vice,nackers,,,,,,,,,,,,,0,236,236,147,,,,,,,,,,,,,,,AMP,left,0.3503322238102555,0,,,,,,,,,,,,,,left,0,0.3503322238102555,,,,,,,,,1002,2019_Mar_01_1450,mf_amp_cond2,3.0.4,59.98335892534566,
energy,&&&&&&&&&&&&&,left,sanctity.virtue,esquisiteness,,,,,,,,,,,,,0,237,237,31,,,,,,,,,,,,,,,AMP,right,0.950489892391488,0,,,,,,,,,,,,,,right,0,0.950489892391488,,,,,,,,,1002,2019_Mar_01_1450,mf_amp_cond2,3.0.4,59.98335892534566,
conspiracy,&&&&&&&&,right,sanctity.vice,ugeasily,,,,,,,,,,,,,0,238,238,69,,,,,,,,,,,,,,,AMP,left,0.3669875100022182,0,,,,,,,,,,,,,,left,0,0.3669875100022182,,,,,,,,,1002,2019_Mar_01_1450,mf_amp_cond2,3.0.4,59.98335892534566,
lies,&&&&&,right,fairness.vice,pulge,,,,,,,,,,,,,0,239,239,198,,,,,,,,,,,,,,,AMP,left,0.5337049047229812,0,,,,,,,,,,,,,,left,0,0.5337049047229812,,,,,,,,,1002,2019_Mar_01_1450,mf_amp_cond2,3.0.4,59.98335892534566,
intelligence,&&&&&&&&&&,left,loyalty.virtue,frojecting,,,,,,,,,,,,,0,240,240,26,,,,,,,,,,,,,,,AMP,left,0.533703301101923,1,,,,,,,,,,,,,,left,1,0.533703301101923,,,,,,,,,1002,2019_Mar_01_1450,mf_amp_cond2,3.0.4,59.98335892534566,
benefit,&&&&&&&&&&,left,fairness.virtue,reelectiob,,,,,,,,,,,,,0,241,241,77,,,,,,,,,,,,,,,AMP,left,0.6003953266190365,1,,,,,,,,,,,,,,left,1,0.6003953266190365,,,,,,,,,1002,2019_Mar_01_1450,mf_amp_cond2,3.0.4,59.98335892534566,
safety,&&&&&&&,left,care.virtue,reviked,,,,,,,,,,,,,0,242,242,5,,,,,,,,,,,,,,,AMP,left,4.067990964511409,1,,,,,,,,,,,,,,left,1,4.067990964511409,,,,,,,,,1002,2019_Mar_01_1450,mf_amp_cond2,3.0.4,59.98335892534566,
civilians,&&&&&,right,care.vice,framo,,,,,,,,,,,,,0,243,243,82,,,,,,,,,,,,,,,AMP,left,0.517034865100868,0,,,,,,,,,,,,,,left,0,0.517034865100868,,,,,,,,,1002,2019_Mar_01_1450,mf_amp_cond2,3.0.4,59.98335892534566,
harassment,&&&&,right,sanctity.vice,alar,,,,,,,,,,,,,0,244,244,49,,,,,,,,,,,,,,,AMP,left,0.9338310782331973,0,,,,,,,,,,,,,,left,0,0.9338310782331973,,,,,,,,,1002,2019_Mar_01_1450,mf_amp_cond2,3.0.4,59.98335892534566,
attacks,&&&&&&,right,care.vice,forepo,,,,,,,,,,,,,0,245,245,25,,,,,,,,,,,,,,,AMP,left,0.2836735538439825,0,,,,,,,,,,,,,,left,0,0.2836735538439825,,,,,,,,,1002,2019_Mar_01_1450,mf_amp_cond2,3.0.4,59.98335892534566,
win,&&&&&&,left,fairness.virtue,gikely,,,,,,,,,,,,,0,246,246,232,,,,,,,,,,,,,,,AMP,left,0.266988119459711,1,,,,,,,,,,,,,,left,1,0.266988119459711,,,,,,,,,1002,2019_Mar_01_1450,mf_amp_cond2,3.0.4,59.98335892534566,
promises,&&&&&&&&,left,fairness.virtue,divility,,,,,,,,,,,,,0,247,247,229,,,,,,,,,,,,,,,AMP,right,0.550374302896671,0,,,,,,,,,,,,,,right,0,0.550374302896671,,,,,,,,,1002,2019_Mar_01_1450,mf_amp_cond2,3.0.4,59.98335892534566,
peace,&&&,left,care.virtue,oam,,,,,,,,,,,,,0,248,248,39,,,,,,,,,,,,,,,AMP,left,0.31701202946715057,1,,,,,,,,,,,,,,left,1,0.31701202946715057,,,,,,,,,1002,2019_Mar_01_1450,mf_amp_cond2,3.0.4,59.98335892534566,
