words,nonwords,mask,corr_ans,category,tweets,topic,AMP_prac_loop.thisRepN,AMP_prac_loop.thisTrialN,AMP_prac_loop.thisN,AMP_prac_loop.thisIndex,AMP_trials.thisRepN,AMP_trials.thisTrialN,AMP_trials.thisN,AMP_trials.thisIndex,LDT_prac_loop.thisRepN,LDT_prac_loop.thisTrialN,LDT_prac_loop.thisN,LDT_prac_loop.thisIndex,LDT_loop.thisRepN,LDT_loop.thisTrialN,LDT_loop.thisN,LDT_loop.thisIndex,tweet_loop.thisRepN,tweet_loop.thisTrialN,tweet_loop.thisN,tweet_loop.thisIndex,begin_key.keys,begin_key.rt,key_resp_AMP_instr1.keys,key_resp_AMP_instr1.rt,resp_AMP_ready1.keys,resp_AMP_ready1.rt,resp_AMP_prac.keys,resp_AMP_prac.rt,task,keypress,RT,resp_AMP_ready.keys,resp_AMP_ready.rt,resp_AMP.keys,resp_AMP.corr,resp_AMP.rt,corr,AMP_nonword_rating.response,AMP_nonword_rating.rt,AMP_word_rating.response,AMP_word_rating.rt,AMP_random_rating.response,AMP_random_rating.rt,key_resp_LDT_instr.keys,key_resp_LDT_instr.rt,resp_LDT_prac.keys,resp_LDT_prac.rt,resp_LDT_ready.keys,resp_LDT_ready.rt,resp_LDT.keys,resp_LDT.corr,resp_LDT.rt,LDT_rating.response,LDT_rating.rt,key_resp_LDT_instr_2.keys,key_resp_LDT_instr_2.rt,resp_tweets.keys,resp_tweets.rt,participant,date,expName,psychopyVersion,frameRate,
,,,,,,,,,,,,,,,,,,,,,,,,,,,right,468.6592775831232,,,,,,,,,,,,,,,,,,,,,,,,,,,,,,,,,,,,,1003,2019_Mar_01_1458,mf_amp_cond1,3.0.4,60.038935105552675,
,,,,,,,,,,,,,,,,,,,,,,,,,,,,,right,1.7840369624318555,,,,,,,,,,,,,,,,,,,,,,,,,,,,,,,,,,,1003,2019_Mar_01_1458,mf_amp_cond1,3.0.4,60.038935105552675,
,,,,,,,,,,,,,,,,,,,,,,,,,,,,,,,right,1.8007378499023616,,,,,,,,,,,,,,,,,,,,,,,,,,,,,,,,,1003,2019_Mar_01_1458,mf_amp_cond1,3.0.4,60.038935105552675,
keyboard,senk,&&&&,,,,,0,0,0,2,,,,,,,,,,,,,,,,,,,,,,,left,2.3841855202335864,AMP_prac,left,2.3841855202335864,,,,,,,,,,,,,,,,,,,,,,,,,,,,1003,2019_Mar_01_1458,mf_amp_cond1,3.0.4,60.038935105552675,
banana,kacket,&&&&&&,,,,,0,1,1,1,,,,,,,,,,,,,,,,,,,,,,,left,1.6339964553480968,AMP_prac,left,1.6339964553480968,,,,,,,,,,,,,,,,,,,,,,,,,,,,1003,2019_Mar_01_1458,mf_amp_cond1,3.0.4,60.038935105552675,
car,cemtuper,&&&&&&&&,,,,,0,2,2,0,,,,,,,,,,,,,,,,,,,,,,,right,0.7171035202918574,AMP_prac,right,0.7171035202918574,,,,,,,,,,,,,,,,,,,,,,,,,,,,1003,2019_Mar_01_1458,mf_amp_cond1,3.0.4,60.038935105552675,
scarf,bisebell,&&&&&&&&,,,,,0,3,3,3,,,,,,,,,,,,,,,,,,,,,,,right,0.4170202612876892,AMP_prac,right,0.4170202612876892,,,,,,,,,,,,,,,,,,,,,,,,,,,,1003,2019_Mar_01_1458,mf_amp_cond1,3.0.4,60.038935105552675,
,,,,,,,,,,,,,,,,,,,,,,,,,,,,,,,,,,,,,,right,2.467535370728001,,,,,,,,,,,,,,,,,,,,,,,,,,1003,2019_Mar_01_1458,mf_amp_cond1,3.0.4,60.038935105552675,
strength,godlaness,&&&&&&&&&,left,sanctity.virtue,,,,,,,0,0,0,0,,,,,,,,,,,,,,,,,,,,,AMP,right,0.7337755430489779,,,right,0,0.7337755430489779,0,,,,,,,,,,,,,,,,,,,,,,1003,2019_Mar_01_1458,mf_amp_cond1,3.0.4,60.038935105552675,
restore,nomaric,&&&&&&&,left,care.virtue,,,,,,,0,1,1,1,,,,,,,,,,,,,,,,,,,,,AMP,right,0.48370322049595416,,,right,0,0.48370322049595416,0,,,,,,,,,,,,,,,,,,,,,,1003,2019_Mar_01_1458,mf_amp_cond1,3.0.4,60.038935105552675,
betrayal,baklara,&&&&&&&,right,loyalty.vice,,,,,,,0,2,2,2,,,,,,,,,,,,,,,,,,,,,AMP,left,0.5170498316874728,,,left,0,0.5170498316874728,0,,,,,,,,,,,,,,,,,,,,,,1003,2019_Mar_01_1458,mf_amp_cond1,3.0.4,60.038935105552675,
values,sidearbs,&&&&&&&&,left,sanctity.virtue,,,,,,,0,3,3,3,,,,,,,,,,,,,,,,,,,,,AMP,right,0.5504102339036763,,,right,0,0.5504102339036763,0,,,,,,,,,,,,,,,,,,,,,,1003,2019_Mar_01_1458,mf_amp_cond1,3.0.4,60.038935105552675,
sonvoy,faspberry,&&&&&&&&&,None,nonword,,,,,,,0,4,4,4,,,,,,,,,,,,,,,,,,,,,AMP,right,0.6504090150119737,,,right,0,0.6504090150119737,0,,,,,,,,,,,,,,,,,,,,,,1003,2019_Mar_01_1458,mf_amp_cond1,3.0.4,60.038935105552675,
love,divility,&&&&&&&&,left,loyalty.virtue,,,,,,,0,5,5,5,,,,,,,,,,,,,,,,,,,,,AMP,right,0.3170012745540589,,,right,0,0.3170012745540589,0,,,,,,,,,,,,,,,,,,,,,,1003,2019_Mar_01_1458,mf_amp_cond1,3.0.4,60.038935105552675,
army,ittutable,&&&&&&&&&,right,loyalty.vice,,,,,,,0,6,6,6,,,,,,,,,,,,,,,,,,,,,AMP,right,0.6337443689117208,,,right,1,0.6337443689117208,1,,,,,,,,,,,,,,,,,,,,,,1003,2019_Mar_01_1458,mf_amp_cond1,3.0.4,60.038935105552675,
hope,taxpayung,&&&&&&&&&,left,loyalty.virtue,,,,,,,0,7,7,7,,,,,,,,,,,,,,,,,,,,,AMP,right,0.33351389912422746,,,right,0,0.33351389912422746,0,,,,,,,,,,,,,,,,,,,,,,1003,2019_Mar_01_1458,mf_amp_cond1,3.0.4,60.038935105552675,
celebrated,fegard,&&&&&&,left,authority.virtue,,,,,,,0,8,8,8,,,,,,,,,,,,,,,,,,,,,AMP,left,0.567034789826721,,,left,1,0.567034789826721,1,,,,,,,,,,,,,,,,,,,,,,1003,2019_Mar_01_1458,mf_amp_cond1,3.0.4,60.038935105552675,
rejected,imebreaker,&&&&&&&&&&,right,authority.vice,,,,,,,0,9,9,9,,,,,,,,,,,,,,,,,,,,,AMP,right,0.45037232455797493,,,right,1,0.45037232455797493,1,,,,,,,,,,,,,,,,,,,,,,1003,2019_Mar_01_1458,mf_amp_cond1,3.0.4,60.038935105552675,
safety,shoirmaster,&&&&&&&&&&&,left,care.virtue,,,,,,,0,10,10,10,,,,,,,,,,,,,,,,,,,,,AMP,left,0.4837045033928007,,,left,1,0.4837045033928007,1,,,,,,,,,,,,,,,,,,,,,,1003,2019_Mar_01_1458,mf_amp_cond1,3.0.4,60.038935105552675,
protesters,gazily,&&&&&&,right,authority.vice,,,,,,,0,11,11,11,,,,,,,,,,,,,,,,,,,,,AMP,right,0.5670588439097628,,,right,1,0.5670588439097628,1,,,,,,,,,,,,,,,,,,,,,,1003,2019_Mar_01_1458,mf_amp_cond1,3.0.4,60.038935105552675,
riot,sgrawl,&&&&&&,right,authority.vice,,,,,,,0,12,12,12,,,,,,,,,,,,,,,,,,,,,AMP,right,0.6170707426499575,,,right,1,0.6170707426499575,1,,,,,,,,,,,,,,,,,,,,,,1003,2019_Mar_01_1458,mf_amp_cond1,3.0.4,60.038935105552675,
terrorists,scock,&&&&&,right,fairness.vice,,,,,,,0,13,13,13,,,,,,,,,,,,,,,,,,,,,AMP,left,0.3003558716736734,,,left,0,0.3003558716736734,0,,,,,,,,,,,,,,,,,,,,,,1003,2019_Mar_01_1458,mf_amp_cond1,3.0.4,60.038935105552675,
slavery,scalbel,&&&&&&&,right,loyalty.vice,,,,,,,0,14,14,14,,,,,,,,,,,,,,,,,,,,,AMP,right,0.3836845544865355,,,right,1,0.3836845544865355,1,,,,,,,,,,,,,,,,,,,,,,1003,2019_Mar_01_1458,mf_amp_cond1,3.0.4,60.038935105552675,
ability,lorthwhile,&&&&&&&&&&,left,authority.virtue,,,,,,,0,15,15,15,,,,,,,,,,,,,,,,,,,,,AMP,right,0.6504240889335051,,,right,0,0.6504240889335051,0,,,,,,,,,,,,,,,,,,,,,,1003,2019_Mar_01_1458,mf_amp_cond1,3.0.4,60.038935105552675,
perfect,pumber,&&&&&&,left,sanctity.virtue,,,,,,,0,16,16,16,,,,,,,,,,,,,,,,,,,,,AMP,right,0.5670601268066093,,,right,0,0.5670601268066093,0,,,,,,,,,,,,,,,,,,,,,,1003,2019_Mar_01_1458,mf_amp_cond1,3.0.4,60.038935105552675,
increase,dormandi,&&&&&&&&,left,care.virtue,,,,,,,0,17,17,17,,,,,,,,,,,,,,,,,,,,,AMP,right,0.5003758845850825,,,right,0,0.5003758845850825,0,,,,,,,,,,,,,,,,,,,,,,1003,2019_Mar_01_1458,mf_amp_cond1,3.0.4,60.038935105552675,
suicide,letish,&&&&&&,right,care.vice,,,,,,,0,18,18,18,,,,,,,,,,,,,,,,,,,,,AMP,left,0.5002177692949772,,,left,0,0.5002177692949772,0,,,,,,,,,,,,,,,,,,,,,,1003,2019_Mar_01_1458,mf_amp_cond1,3.0.4,60.038935105552675,
threatened,synchronazers,&&&&&&&&&&&&&,right,fairness.vice,,,,,,,0,19,19,19,,,,,,,,,,,,,,,,,,,,,AMP,left,0.3670109282247722,,,left,0,0.3670109282247722,0,,,,,,,,,,,,,,,,,,,,,,1003,2019_Mar_01_1458,mf_amp_cond1,3.0.4,60.038935105552675,
freedom,ning,&&&&,left,sanctity.virtue,,,,,,,0,20,20,20,,,,,,,,,,,,,,,,,,,,,AMP,right,0.36700323096010834,,,right,0,0.36700323096010834,0,,,,,,,,,,,,,,,,,,,,,,1003,2019_Mar_01_1458,mf_amp_cond1,3.0.4,60.038935105552675,
benefit,chreams,&&&&&&&,left,fairness.virtue,,,,,,,0,21,21,21,,,,,,,,,,,,,,,,,,,,,AMP,left,0.6170668940758333,,,left,1,0.6170668940758333,1,,,,,,,,,,,,,,,,,,,,,,1003,2019_Mar_01_1458,mf_amp_cond1,3.0.4,60.038935105552675,
pafer,mih,&&&,None,nonword,,,,,,,0,22,22,22,,,,,,,,,,,,,,,,,,,,,AMP,right,0.35032351093832403,,,right,0,0.35032351093832403,0,,,,,,,,,,,,,,,,,,,,,,1003,2019_Mar_01_1458,mf_amp_cond1,3.0.4,60.038935105552675,
killed,uller,&&&&&,right,care.vice,,,,,,,0,23,23,23,,,,,,,,,,,,,,,,,,,,,AMP,right,0.20027658948674798,,,right,1,0.20027658948674798,1,,,,,,,,,,,,,,,,,,,,,,1003,2019_Mar_01_1458,mf_amp_cond1,3.0.4,60.038935105552675,
accused,totalestic,&&&&&&&&&&,right,fairness.vice,,,,,,,0,24,24,24,,,,,,,,,,,,,,,,,,,,,AMP,left,0.6337469347054139,,,left,0,0.6337469347054139,0,,,,,,,,,,,,,,,,,,,,,,1003,2019_Mar_01_1458,mf_amp_cond1,3.0.4,60.038935105552675,
men,tracious,&&&&&&&&,right,loyalty.vice,,,,,,,0,25,25,25,,,,,,,,,,,,,,,,,,,,,AMP,left,0.3170240457402542,,,left,0,0.3170240457402542,0,,,,,,,,,,,,,,,,,,,,,,1003,2019_Mar_01_1458,mf_amp_cond1,3.0.4,60.038935105552675,
faith,emports,&&&&&&&,left,sanctity.virtue,,,,,,,0,26,26,26,,,,,,,,,,,,,,,,,,,,,AMP,left,0.6170739498920739,,,left,1,0.6170739498920739,1,,,,,,,,,,,,,,,,,,,,,,1003,2019_Mar_01_1458,mf_amp_cond1,3.0.4,60.038935105552675,
death,tomedians,&&&&&&&&&,right,care.vice,,,,,,,0,27,27,27,,,,,,,,,,,,,,,,,,,,,AMP,left,0.7504459620686248,,,left,0,0.7504459620686248,0,,,,,,,,,,,,,,,,,,,,,,1003,2019_Mar_01_1458,mf_amp_cond1,3.0.4,60.038935105552675,
party,reviked,&&&&&&&,left,loyalty.virtue,,,,,,,0,28,28,28,,,,,,,,,,,,,,,,,,,,,AMP,right,0.4503562885802239,,,right,0,0.4503562885802239,0,,,,,,,,,,,,,,,,,,,,,,1003,2019_Mar_01_1458,mf_amp_cond1,3.0.4,60.038935105552675,
terrorist,tislay,&&&&&&,right,loyalty.vice,,,,,,,0,29,29,29,,,,,,,,,,,,,,,,,,,,,AMP,left,0.5837289423216134,,,left,0,0.5837289423216134,0,,,,,,,,,,,,,,,,,,,,,,1003,2019_Mar_01_1458,mf_amp_cond1,3.0.4,60.038935105552675,
strong,neneficence,&&&&&&&&&&&,left,loyalty.virtue,,,,,,,0,30,30,30,,,,,,,,,,,,,,,,,,,,,AMP,right,0.716930331196636,,,right,0,0.716930331196636,0,,,,,,,,,,,,,,,,,,,,,,1003,2019_Mar_01_1458,mf_amp_cond1,3.0.4,60.038935105552675,
integrity,vurtain,&&&&&&&,left,fairness.virtue,,,,,,,0,31,31,31,,,,,,,,,,,,,,,,,,,,,AMP,left,0.40040628891438246,,,left,1,0.40040628891438246,1,,,,,,,,,,,,,,,,,,,,,,1003,2019_Mar_01_1458,mf_amp_cond1,3.0.4,60.038935105552675,
drug,Phintoism,&&&&&&&&&,right,sanctity.vice,,,,,,,0,32,32,32,,,,,,,,,,,,,,,,,,,,,AMP,left,0.3169990294845775,,,left,0,0.3169990294845775,0,,,,,,,,,,,,,,,,,,,,,,1003,2019_Mar_01_1458,mf_amp_cond1,3.0.4,60.038935105552675,
actively,tenuflect,&&&&&&&&&,left,authority.virtue,,,,,,,0,33,33,33,,,,,,,,,,,,,,,,,,,,,AMP,left,0.5170434172032401,,,left,1,0.5170434172032401,1,,,,,,,,,,,,,,,,,,,,,,1003,2019_Mar_01_1458,mf_amp_cond1,3.0.4,60.038935105552675,
violence,touls,&&&&&,right,care.vice,,,,,,,0,34,34,34,,,,,,,,,,,,,,,,,,,,,AMP,left,0.2669746227329597,,,left,0,0.2669746227329597,0,,,,,,,,,,,,,,,,,,,,,,1003,2019_Mar_01_1458,mf_amp_cond1,3.0.4,60.038935105552675,
tove,hefurbished,&&&&&&&&&&&,None,nonword,,,,,,,0,35,35,35,,,,,,,,,,,,,,,,,,,,,AMP,right,0.5170616983668879,,,right,0,0.5170616983668879,0,,,,,,,,,,,,,,,,,,,,,,1003,2019_Mar_01_1458,mf_amp_cond1,3.0.4,60.038935105552675,
conspiracy,prones,&&&&&&,right,sanctity.vice,,,,,,,0,36,36,36,,,,,,,,,,,,,,,,,,,,,AMP,left,0.3003401563037187,,,left,0,0.3003401563037187,0,,,,,,,,,,,,,,,,,,,,,,1003,2019_Mar_01_1458,mf_amp_cond1,3.0.4,60.038935105552675,
pleasant,gondensed,&&&&&&&&&,None,control,,,,,,,0,37,37,37,,,,,,,,,,,,,,,,,,,,,AMP,right,0.2336802890058607,,,right,0,0.2336802890058607,0,,,,,,,,,,,,,,,,,,,,,,1003,2019_Mar_01_1458,mf_amp_cond1,3.0.4,60.038935105552675,
gun,elduringly,&&&&&&&&&&,right,authority.vice,,,,,,,0,38,38,38,,,,,,,,,,,,,,,,,,,,,AMP,left,0.06693151779472828,,,left,0,0.06693151779472828,0,,,,,,,,,,,,,,,,,,,,,,1003,2019_Mar_01_1458,mf_amp_cond1,3.0.4,60.038935105552675,
war,abointment,&&&&&&&&&&,right,sanctity.vice,,,,,,,0,39,39,39,,,,,,,,,,,,,,,,,,,,,AMP,left,0.36701702198479325,,,left,0,0.36701702198479325,0,,,,,,,,,,,,,,,,,,,,,,1003,2019_Mar_01_1458,mf_amp_cond1,3.0.4,60.038935105552675,
attacks,framatic,&&&&&&&&,right,care.vice,,,,,,,0,40,40,40,,,,,,,,,,,,,,,,,,,,,AMP,left,1.0005131530342624,,,left,0,1.0005131530342624,0,,,,,,,,,,,,,,,,,,,,,,1003,2019_Mar_01_1458,mf_amp_cond1,3.0.4,60.038935105552675,
rebels,slending,&&&&&&&&,right,authority.vice,,,,,,,0,41,41,41,,,,,,,,,,,,,,,,,,,,,AMP,right,0.13358400855213404,,,right,1,0.13358400855213404,1,,,,,,,,,,,,,,,,,,,,,,1003,2019_Mar_01_1458,mf_amp_cond1,3.0.4,60.038935105552675,
improve,menizen,&&&&&&&,left,care.virtue,,,,,,,0,42,42,42,,,,,,,,,,,,,,,,,,,,,AMP,right,0.3670343408593908,,,right,0,0.3670343408593908,0,,,,,,,,,,,,,,,,,,,,,,1003,2019_Mar_01_1458,mf_amp_cond1,3.0.4,60.038935105552675,
free,openet,&&&&&&,left,fairness.virtue,,,,,,,0,43,43,43,,,,,,,,,,,,,,,,,,,,,AMP,left,0.08364074409473687,,,left,1,0.08364074409473687,1,,,,,,,,,,,,,,,,,,,,,,1003,2019_Mar_01_1458,mf_amp_cond1,3.0.4,60.038935105552675,
growth,asn,&&&,left,care.virtue,,,,,,,0,44,44,44,,,,,,,,,,,,,,,,,,,,,AMP,left,0.4503508363850415,,,left,1,0.4503508363850415,1,,,,,,,,,,,,,,,,,,,,,,1003,2019_Mar_01_1458,mf_amp_cond1,3.0.4,60.038935105552675,
abuse,drumbled,&&&&&&&&,right,sanctity.vice,,,,,,,0,45,45,45,,,,,,,,,,,,,,,,,,,,,AMP,left,0.7671061181463301,,,left,0,0.7671061181463301,0,,,,,,,,,,,,,,,,,,,,,,1003,2019_Mar_01_1458,mf_amp_cond1,3.0.4,60.038935105552675,
great,crilfully,&&&&&&&&&,left,loyalty.virtue,,,,,,,0,46,46,46,,,,,,,,,,,,,,,,,,,,,AMP,right,0.31699550163466483,,,right,0,0.31699550163466483,0,,,,,,,,,,,,,,,,,,,,,,1003,2019_Mar_01_1458,mf_amp_cond1,3.0.4,60.038935105552675,
illegal,quarterbocks,&&&&&&&&&&&&,right,fairness.vice,,,,,,,0,47,47,47,,,,,,,,,,,,,,,,,,,,,AMP,right,0.46703216002788395,,,right,1,0.46703216002788395,1,,,,,,,,,,,,,,,,,,,,,,1003,2019_Mar_01_1458,mf_amp_cond1,3.0.4,60.038935105552675,
unpleasant,neputized,&&&&&&&&&,None,control,,,,,,,0,48,48,48,,,,,,,,,,,,,,,,,,,,,AMP,left,0.5003736395156011,,,left,0,0.5003736395156011,0,,,,,,,,,,,,,,,,,,,,,,1003,2019_Mar_01_1458,mf_amp_cond1,3.0.4,60.038935105552675,
fear,atson,&&&&&,right,sanctity.vice,,,,,,,0,49,49,49,,,,,,,,,,,,,,,,,,,,,AMP,left,0.5170584911247715,,,left,0,0.5170584911247715,0,,,,,,,,,,,,,,,,,,,,,,1003,2019_Mar_01_1458,mf_amp_cond1,3.0.4,60.038935105552675,
intelligence,dramens,&&&&&&&,left,loyalty.virtue,,,,,,,0,50,50,50,,,,,,,,,,,,,,,,,,,,,AMP,right,0.45034762914292514,,,right,0,0.45034762914292514,0,,,,,,,,,,,,,,,,,,,,,,1003,2019_Mar_01_1458,mf_amp_cond1,3.0.4,60.038935105552675,
shot,noped,&&&&&,right,care.vice,,,,,,,0,51,51,51,,,,,,,,,,,,,,,,,,,,,AMP,right,0.30031289509497583,,,right,1,0.30031289509497583,1,,,,,,,,,,,,,,,,,,,,,,1003,2019_Mar_01_1458,mf_amp_cond1,3.0.4,60.038935105552675,
police,suggists,&&&&&&&&,right,authority.vice,,,,,,,0,52,52,52,,,,,,,,,,,,,,,,,,,,,AMP,left,0.150282971910201,,,left,0,0.150282971910201,0,,,,,,,,,,,,,,,,,,,,,,1003,2019_Mar_01_1458,mf_amp_cond1,3.0.4,60.038935105552675,
prosecution,perified,&&&&&&&&,right,authority.vice,,,,,,,0,53,53,53,,,,,,,,,,,,,,,,,,,,,AMP,right,0.5336872164625674,,,right,1,0.5336872164625674,1,,,,,,,,,,,,,,,,,,,,,,1003,2019_Mar_01_1458,mf_amp_cond1,3.0.4,60.038935105552675,
ensure,gedious,&&&&&&&,left,fairness.virtue,,,,,,,0,54,54,54,,,,,,,,,,,,,,,,,,,,,AMP,right,0.5170584911247715,,,right,0,0.5170584911247715,0,,,,,,,,,,,,,,,,,,,,,,1003,2019_Mar_01_1458,mf_amp_cond1,3.0.4,60.038935105552675,
respect,sickyay,&&&&&&&,left,sanctity.virtue,,,,,,,0,55,55,55,,,,,,,,,,,,,,,,,,,,,AMP,right,0.5003803746076301,,,right,0,0.5003803746076301,0,,,,,,,,,,,,,,,,,,,,,,1003,2019_Mar_01_1458,mf_amp_cond1,3.0.4,60.038935105552675,
juck,laming,&&&&&&,None,nonword,,,,,,,0,56,56,56,,,,,,,,,,,,,,,,,,,,,AMP,left,0.5003778089303523,,,left,0,0.5003778089303523,0,,,,,,,,,,,,,,,,,,,,,,1003,2019_Mar_01_1458,mf_amp_cond1,3.0.4,60.038935105552675,
corruption,frojecting,&&&&&&&&&&,right,sanctity.vice,,,,,,,0,57,57,57,,,,,,,,,,,,,,,,,,,,,AMP,left,0.8671324813039973,,,left,0,0.8671324813039973,0,,,,,,,,,,,,,,,,,,,,,,1003,2019_Mar_01_1458,mf_amp_cond1,3.0.4,60.038935105552675,
sexual,sowntrodden,&&&&&&&&&&&,right,sanctity.vice,,,,,,,0,58,58,58,,,,,,,,,,,,,,,,,,,,,AMP,right,0.7504430755507201,,,right,1,0.7504430755507201,1,,,,,,,,,,,,,,,,,,,,,,1003,2019_Mar_01_1458,mf_amp_cond1,3.0.4,60.038935105552675,
embrace,blunderints,&&&&&&&&&&&,left,authority.virtue,,,,,,,0,59,59,59,,,,,,,,,,,,,,,,,,,,,AMP,right,0.3170031988993287,,,right,0,0.3170031988993287,0,,,,,,,,,,,,,,,,,,,,,,1003,2019_Mar_01_1458,mf_amp_cond1,3.0.4,60.038935105552675,
agreement,Daptist,&&&&&&&,left,fairness.virtue,,,,,,,0,60,60,60,,,,,,,,,,,,,,,,,,,,,AMP,left,0.4003305989317596,,,left,1,0.4003305989317596,1,,,,,,,,,,,,,,,,,,,,,,1003,2019_Mar_01_1458,mf_amp_cond1,3.0.4,60.038935105552675,
health,fornicalion,&&&&&&&&&&&,left,care.virtue,,,,,,,0,61,61,61,,,,,,,,,,,,,,,,,,,,,AMP,right,0.6337334644049406,,,right,0,0.6337334644049406,0,,,,,,,,,,,,,,,,,,,,,,1003,2019_Mar_01_1458,mf_amp_cond1,3.0.4,60.038935105552675,
powerful,precificity,&&&&&&&&&&&,left,authority.virtue,,,,,,,0,62,62,62,,,,,,,,,,,,,,,,,,,,,AMP,right,0.5502344788983464,,,right,0,0.5502344788983464,0,,,,,,,,,,,,,,,,,,,,,,1003,2019_Mar_01_1458,mf_amp_cond1,3.0.4,60.038935105552675,
sharing,neutralust,&&&&&&&&&&,left,loyalty.virtue,,,,,,,0,63,63,63,,,,,,,,,,,,,,,,,,,,,AMP,right,0.40042296645697206,,,right,0,0.40042296645697206,0,,,,,,,,,,,,,,,,,,,,,,1003,2019_Mar_01_1458,mf_amp_cond1,3.0.4,60.038935105552675,
promote,disregord,&&&&&&&&&,left,sanctity.virtue,,,,,,,0,64,64,64,,,,,,,,,,,,,,,,,,,,,AMP,right,0.33366752427536994,,,right,0,0.33366752427536994,0,,,,,,,,,,,,,,,,,,,,,,1003,2019_Mar_01_1458,mf_amp_cond1,3.0.4,60.038935105552675,
charges,cromiscuity,&&&&&&&&&&&,right,fairness.vice,,,,,,,0,65,65,65,,,,,,,,,,,,,,,,,,,,,AMP,left,0.7504597530933097,,,left,0,0.7504597530933097,0,,,,,,,,,,,,,,,,,,,,,,1003,2019_Mar_01_1458,mf_amp_cond1,3.0.4,60.038935105552675,
pharing,papert,&&&&&&,None,nonword,,,,,,,0,66,66,66,,,,,,,,,,,,,,,,,,,,,AMP,left,0.41700711171142757,,,left,0,0.41700711171142757,0,,,,,,,,,,,,,,,,,,,,,,1003,2019_Mar_01_1458,mf_amp_cond1,3.0.4,60.038935105552675,
prison,bluently,&&&&&&&&,right,fairness.vice,,,,,,,0,67,67,67,,,,,,,,,,,,,,,,,,,,,AMP,left,0.38368006446398795,,,left,0,0.38368006446398795,0,,,,,,,,,,,,,,,,,,,,,,1003,2019_Mar_01_1458,mf_amp_cond1,3.0.4,60.038935105552675,
critics,gikely,&&&&&&,right,loyalty.vice,,,,,,,0,68,68,68,,,,,,,,,,,,,,,,,,,,,AMP,left,0.4170350143685937,,,left,0,0.4170350143685937,0,,,,,,,,,,,,,,,,,,,,,,1003,2019_Mar_01_1458,mf_amp_cond1,3.0.4,60.038935105552675,
baladroit,framo,&&&&&,None,nonword,,,,,,,0,69,69,69,,,,,,,,,,,,,,,,,,,,,AMP,left,0.3170009538298473,,,left,0,0.3170009538298473,0,,,,,,,,,,,,,,,,,,,,,,1003,2019_Mar_01_1458,mf_amp_cond1,3.0.4,60.038935105552675,
help,fangsters,&&&&&&&&&,left,care.virtue,,,,,,,0,70,70,70,,,,,,,,,,,,,,,,,,,,,AMP,right,0.7671349829761311,,,right,0,0.7671349829761311,0,,,,,,,,,,,,,,,,,,,,,,1003,2019_Mar_01_1458,mf_amp_cond1,3.0.4,60.038935105552675,
progress,iptervention,&&&&&&&&&&&&,left,authority.virtue,,,,,,,0,71,71,71,,,,,,,,,,,,,,,,,,,,,AMP,left,0.5670505051966757,,,left,1,0.5670505051966757,1,,,,,,,,,,,,,,,,,,,,,,1003,2019_Mar_01_1458,mf_amp_cond1,3.0.4,60.038935105552675,
trust,halaise,&&&&&&&,left,authority.virtue,,,,,,,0,72,72,72,,,,,,,,,,,,,,,,,,,,,AMP,right,0.333682918921113,,,right,0,0.333682918921113,0,,,,,,,,,,,,,,,,,,,,,,1003,2019_Mar_01_1458,mf_amp_cond1,3.0.4,60.038935105552675,
promises,unscothed,&&&&&&&&&,left,fairness.virtue,,,,,,,0,73,73,73,,,,,,,,,,,,,,,,,,,,,AMP,left,0.9338173649739474,,,left,1,0.9338173649739474,1,,,,,,,,,,,,,,,,,,,,,,1003,2019_Mar_01_1458,mf_amp_cond1,3.0.4,60.038935105552675,
victim,tabin,&&&&&,right,care.vice,,,,,,,0,74,74,74,,,,,,,,,,,,,,,,,,,,,AMP,left,0.7337858061073348,,,left,0,0.7337858061073348,0,,,,,,,,,,,,,,,,,,,,,,1003,2019_Mar_01_1458,mf_amp_cond1,3.0.4,60.038935105552675,
troops,allears,&&&&&&&,right,loyalty.vice,,,,,,,0,75,75,75,,,,,,,,,,,,,,,,,,,,,AMP,right,0.4003552943468094,,,right,1,0.4003552943468094,1,,,,,,,,,,,,,,,,,,,,,,1003,2019_Mar_01_1458,mf_amp_cond1,3.0.4,60.038935105552675,
metibolic,strofe,&&&&&&,None,nonword,,,,,,,0,76,76,76,,,,,,,,,,,,,,,,,,,,,AMP,right,0.5337366075254977,,,right,0,0.5337366075254977,0,,,,,,,,,,,,,,,,,,,,,,1003,2019_Mar_01_1458,mf_amp_cond1,3.0.4,60.038935105552675,
win,ugeasily,&&&&&&&&,left,fairness.virtue,,,,,,,0,77,77,77,,,,,,,,,,,,,,,,,,,,,AMP,left,0.4670340842567384,,,left,1,0.4670340842567384,1,,,,,,,,,,,,,,,,,,,,,,1003,2019_Mar_01_1458,mf_amp_cond1,3.0.4,60.038935105552675,
seachwear,ebbitter,&&&&&&&&,None,nonword,,,,,,,0,78,78,78,,,,,,,,,,,,,,,,,,,,,AMP,right,0.5171040334971622,,,right,0,0.5171040334971622,0,,,,,,,,,,,,,,,,,,,,,,1003,2019_Mar_01_1458,mf_amp_cond1,3.0.4,60.038935105552675,
ronviolence,stindig,&&&&&&&,None,nonword,,,,,,,0,79,79,79,,,,,,,,,,,,,,,,,,,,,AMP,right,0.683790905517526,,,right,0,0.683790905517526,0,,,,,,,,,,,,,,,,,,,,,,1003,2019_Mar_01_1458,mf_amp_cond1,3.0.4,60.038935105552675,
crime,fontacts,&&&&&&&&,right,fairness.vice,,,,,,,0,80,80,80,,,,,,,,,,,,,,,,,,,,,AMP,left,0.3336716936901212,,,left,0,0.3336716936901212,0,,,,,,,,,,,,,,,,,,,,,,1003,2019_Mar_01_1458,mf_amp_cond1,3.0.4,60.038935105552675,
emassion,sliptery,&&&&&&&&,None,nonword,,,,,,,0,81,81,81,,,,,,,,,,,,,,,,,,,,,AMP,right,0.6337594428332523,,,right,0,0.6337594428332523,0,,,,,,,,,,,,,,,,,,,,,,1003,2019_Mar_01_1458,mf_amp_cond1,3.0.4,60.038935105552675,
prison,frojecting,&&&&&&&&&&,right,fairness.vice,,,,,,,0,82,82,82,,,,,,,,,,,,,,,,,,,,,AMP,right,0.31699550163466483,,,right,1,0.31699550163466483,1,,,,,,,,,,,,,,,,,,,,,,1003,2019_Mar_01_1458,mf_amp_cond1,3.0.4,60.038935105552675,
men,crilfully,&&&&&&&&&,right,loyalty.vice,,,,,,,0,83,83,83,,,,,,,,,,,,,,,,,,,,,AMP,left,0.26698937581386417,,,left,0,0.26698937581386417,0,,,,,,,,,,,,,,,,,,,,,,1003,2019_Mar_01_1458,mf_amp_cond1,3.0.4,60.038935105552675,
attacks,faspberry,&&&&&&&&&,right,care.vice,,,,,,,0,84,84,84,,,,,,,,,,,,,,,,,,,,,AMP,right,0.63373923744075,,,right,1,0.63373923744075,1,,,,,,,,,,,,,,,,,,,,,,1003,2019_Mar_01_1458,mf_amp_cond1,3.0.4,60.038935105552675,
violence,cromiscuity,&&&&&&&&&&&,right,care.vice,,,,,,,0,85,85,85,,,,,,,,,,,,,,,,,,,,,AMP,left,0.7170727311167866,,,left,0,0.7170727311167866,0,,,,,,,,,,,,,,,,,,,,,,1003,2019_Mar_01_1458,mf_amp_cond1,3.0.4,60.038935105552675,
integrity,atson,&&&&&,left,fairness.virtue,,,,,,,0,86,86,86,,,,,,,,,,,,,,,,,,,,,AMP,right,0.433707999298349,,,right,0,0.433707999298349,0,,,,,,,,,,,,,,,,,,,,,,1003,2019_Mar_01_1458,mf_amp_cond1,3.0.4,60.038935105552675,
values,asn,&&&,left,sanctity.virtue,,,,,,,0,87,87,87,,,,,,,,,,,,,,,,,,,,,AMP,right,0.4835290692280978,,,right,0,0.4835290692280978,0,,,,,,,,,,,,,,,,,,,,,,1003,2019_Mar_01_1458,mf_amp_cond1,3.0.4,60.038935105552675,
benefit,synchronazers,&&&&&&&&&&&&&,left,fairness.virtue,,,,,,,0,88,88,88,,,,,,,,,,,,,,,,,,,,,AMP,right,0.533784715575166,,,right,0,0.533784715575166,0,,,,,,,,,,,,,,,,,,,,,,1003,2019_Mar_01_1458,mf_amp_cond1,3.0.4,60.038935105552675,
embrace,taxpayung,&&&&&&&&&,left,authority.virtue,,,,,,,0,89,89,89,,,,,,,,,,,,,,,,,,,,,AMP,right,0.5670594852417707,,,right,0,0.5670594852417707,0,,,,,,,,,,,,,,,,,,,,,,1003,2019_Mar_01_1458,mf_amp_cond1,3.0.4,60.038935105552675,
pafer,dormandi,&&&&&&&&,None,nonword,,,,,,,0,90,90,90,,,,,,,,,,,,,,,,,,,,,AMP,right,0.4836971267359331,,,right,0,0.4836971267359331,0,,,,,,,,,,,,,,,,,,,,,,1003,2019_Mar_01_1458,mf_amp_cond1,3.0.4,60.038935105552675,
death,divility,&&&&&&&&,right,care.vice,,,,,,,0,91,91,91,,,,,,,,,,,,,,,,,,,,,AMP,right,0.4670267077162862,,,right,1,0.4670267077162862,1,,,,,,,,,,,,,,,,,,,,,,1003,2019_Mar_01_1458,mf_amp_cond1,3.0.4,60.038935105552675,
charges,halaise,&&&&&&&,right,fairness.vice,,,,,,,0,92,92,92,,,,,,,,,,,,,,,,,,,,,AMP,left,0.40036202943883836,,,left,0,0.40036202943883836,0,,,,,,,,,,,,,,,,,,,,,,1003,2019_Mar_01_1458,mf_amp_cond1,3.0.4,60.038935105552675,
emassion,sowntrodden,&&&&&&&&&&&,None,nonword,,,,,,,0,93,93,93,,,,,,,,,,,,,,,,,,,,,AMP,right,0.38360822293907404,,,right,0,0.38360822293907404,0,,,,,,,,,,,,,,,,,,,,,,1003,2019_Mar_01_1458,mf_amp_cond1,3.0.4,60.038935105552675,
celebrated,dramens,&&&&&&&,left,authority.virtue,,,,,,,0,94,94,94,,,,,,,,,,,,,,,,,,,,,AMP,right,0.7004828128265217,,,right,0,0.7004828128265217,0,,,,,,,,,,,,,,,,,,,,,,1003,2019_Mar_01_1458,mf_amp_cond1,3.0.4,60.038935105552675,
great,neneficence,&&&&&&&&&&&,left,loyalty.virtue,,,,,,,0,95,95,95,,,,,,,,,,,,,,,,,,,,,AMP,right,0.3170044816797599,,,right,0,0.3170044816797599,0,,,,,,,,,,,,,,,,,,,,,,1003,2019_Mar_01_1458,mf_amp_cond1,3.0.4,60.038935105552675,
love,nomaric,&&&&&&&,left,loyalty.virtue,,,,,,,0,96,96,96,,,,,,,,,,,,,,,,,,,,,AMP,right,0.3336825981969014,,,right,0,0.3336825981969014,0,,,,,,,,,,,,,,,,,,,,,,1003,2019_Mar_01_1458,mf_amp_cond1,3.0.4,60.038935105552675,
ability,sliptery,&&&&&&&&,left,authority.virtue,,,,,,,0,97,97,97,,,,,,,,,,,,,,,,,,,,,AMP,right,0.5837308666668832,,,right,0,0.5837308666668832,0,,,,,,,,,,,,,,,,,,,,,,1003,2019_Mar_01_1458,mf_amp_cond1,3.0.4,60.038935105552675,
respect,mih,&&&,left,sanctity.virtue,,,,,,,0,98,98,98,,,,,,,,,,,,,,,,,,,,,AMP,right,0.33370408648625016,,,right,0,0.33370408648625016,0,,,,,,,,,,,,,,,,,,,,,,1003,2019_Mar_01_1458,mf_amp_cond1,3.0.4,60.038935105552675,
strength,perified,&&&&&&&&,left,sanctity.virtue,,,,,,,0,99,99,99,,,,,,,,,,,,,,,,,,,,,AMP,left,0.30032379960175604,,,left,1,0.30032379960175604,1,,,,,,,,,,,,,,,,,,,,,,1003,2019_Mar_01_1458,mf_amp_cond1,3.0.4,60.038935105552675,
metibolic,gedious,&&&&&&&,None,nonword,,,,,,,0,100,100,100,,,,,,,,,,,,,,,,,,,,,AMP,right,0.33366078918334097,,,right,0,0.33366078918334097,0,,,,,,,,,,,,,,,,,,,,,,1003,2019_Mar_01_1458,mf_amp_cond1,3.0.4,60.038935105552675,
protesters,Phintoism,&&&&&&&&&,right,authority.vice,,,,,,,0,101,101,101,,,,,,,,,,,,,,,,,,,,,AMP,right,0.46703151846304536,,,right,1,0.46703151846304536,1,,,,,,,,,,,,,,,,,,,,,,1003,2019_Mar_01_1458,mf_amp_cond1,3.0.4,60.038935105552675,
abuse,ning,&&&&,right,sanctity.vice,,,,,,,0,102,102,102,,,,,,,,,,,,,,,,,,,,,AMP,left,0.23363570880610496,,,left,0,0.23363570880610496,0,,,,,,,,,,,,,,,,,,,,,,1003,2019_Mar_01_1458,mf_amp_cond1,3.0.4,60.038935105552675,
restore,slending,&&&&&&&&,left,care.virtue,,,,,,,0,103,103,103,,,,,,,,,,,,,,,,,,,,,AMP,left,0.983814189909026,,,left,1,0.983814189909026,1,,,,,,,,,,,,,,,,,,,,,,1003,2019_Mar_01_1458,mf_amp_cond1,3.0.4,60.038935105552675,
terrorists,drumbled,&&&&&&&&,right,fairness.vice,,,,,,,0,104,104,104,,,,,,,,,,,,,,,,,,,,,AMP,right,0.18362894153688103,,,right,1,0.18362894153688103,1,,,,,,,,,,,,,,,,,,,,,,1003,2019_Mar_01_1458,mf_amp_cond1,3.0.4,60.038935105552675,
ensure,emports,&&&&&&&,left,fairness.virtue,,,,,,,0,105,105,105,,,,,,,,,,,,,,,,,,,,,AMP,left,1.4672906608320773,,,left,1,1.4672906608320773,1,,,,,,,,,,,,,,,,,,,,,,1003,2019_Mar_01_1458,mf_amp_cond1,3.0.4,60.038935105552675,
promises,sickyay,&&&&&&&,left,fairness.virtue,,,,,,,0,106,106,106,,,,,,,,,,,,,,,,,,,,,AMP,right,0.35038669290952384,,,right,0,0.35038669290952384,0,,,,,,,,,,,,,,,,,,,,,,1003,2019_Mar_01_1458,mf_amp_cond1,3.0.4,60.038935105552675,
trust,neputized,&&&&&&&&&,left,authority.virtue,,,,,,,0,107,107,107,,,,,,,,,,,,,,,,,,,,,AMP,left,0.8171247519785538,,,left,1,0.8171247519785538,1,,,,,,,,,,,,,,,,,,,,,,1003,2019_Mar_01_1458,mf_amp_cond1,3.0.4,60.038935105552675,
rebels,menizen,&&&&&&&,right,authority.vice,,,,,,,0,108,108,108,,,,,,,,,,,,,,,,,,,,,AMP,right,0.4837025790475309,,,right,1,0.4837025790475309,1,,,,,,,,,,,,,,,,,,,,,,1003,2019_Mar_01_1458,mf_amp_cond1,3.0.4,60.038935105552675,
accused,fornicalion,&&&&&&&&&&&,right,fairness.vice,,,,,,,0,109,109,109,,,,,,,,,,,,,,,,,,,,,AMP,left,0.7004106508102268,,,left,0,0.7004106508102268,0,,,,,,,,,,,,,,,,,,,,,,1003,2019_Mar_01_1458,mf_amp_cond1,3.0.4,60.038935105552675,
betrayal,abointment,&&&&&&&&&&,right,loyalty.vice,,,,,,,0,110,110,110,,,,,,,,,,,,,,,,,,,,,AMP,right,0.3003266860032454,,,right,1,0.3003266860032454,1,,,,,,,,,,,,,,,,,,,,,,1003,2019_Mar_01_1458,mf_amp_cond1,3.0.4,60.038935105552675,
sexual,quarterbocks,&&&&&&&&&&&&,right,sanctity.vice,,,,,,,0,111,111,111,,,,,,,,,,,,,,,,,,,,,AMP,left,0.30030134913977236,,,left,0,0.30030134913977236,0,,,,,,,,,,,,,,,,,,,,,,1003,2019_Mar_01_1458,mf_amp_cond1,3.0.4,60.038935105552675,
powerful,vurtain,&&&&&&&,left,authority.virtue,,,,,,,0,112,112,112,,,,,,,,,,,,,,,,,,,,,AMP,right,0.25031446653883904,,,right,0,0.25031446653883904,0,,,,,,,,,,,,,,,,,,,,,,1003,2019_Mar_01_1458,mf_amp_cond1,3.0.4,60.038935105552675,
pharing,scalbel,&&&&&&&,None,nonword,,,,,,,0,113,113,113,,,,,,,,,,,,,,,,,,,,,AMP,left,0.33356296934653074,,,left,0,0.33356296934653074,0,,,,,,,,,,,,,,,,,,,,,,1003,2019_Mar_01_1458,mf_amp_cond1,3.0.4,60.038935105552675,
sharing,ebbitter,&&&&&&&&,left,loyalty.virtue,,,,,,,0,114,114,114,,,,,,,,,,,,,,,,,,,,,AMP,right,0.5337606614921242,,,right,0,0.5337606614921242,0,,,,,,,,,,,,,,,,,,,,,,1003,2019_Mar_01_1458,mf_amp_cond1,3.0.4,60.038935105552675,
growth,ittutable,&&&&&&&&&,left,care.virtue,,,,,,,0,115,115,115,,,,,,,,,,,,,,,,,,,,,AMP,left,0.3836925725918263,,,left,1,0.3836925725918263,1,,,,,,,,,,,,,,,,,,,,,,1003,2019_Mar_01_1458,mf_amp_cond1,3.0.4,60.038935105552675,
army,fegard,&&&&&&,right,loyalty.vice,,,,,,,0,116,116,116,,,,,,,,,,,,,,,,,,,,,AMP,right,0.750430567539297,,,right,1,0.750430567539297,1,,,,,,,,,,,,,,,,,,,,,,1003,2019_Mar_01_1458,mf_amp_cond1,3.0.4,60.038935105552675,
faith,sidearbs,&&&&&&&&,left,sanctity.virtue,,,,,,,0,117,117,117,,,,,,,,,,,,,,,,,,,,,AMP,left,0.4337128100451082,,,left,1,0.4337128100451082,1,,,,,,,,,,,,,,,,,,,,,,1003,2019_Mar_01_1458,mf_amp_cond1,3.0.4,60.038935105552675,
freedom,laming,&&&&&&,left,sanctity.virtue,,,,,,,0,118,118,118,,,,,,,,,,,,,,,,,,,,,AMP,right,1.3505820118589327,,,right,0,1.3505820118589327,0,,,,,,,,,,,,,,,,,,,,,,1003,2019_Mar_01_1458,mf_amp_cond1,3.0.4,60.038935105552675,
perfect,tracious,&&&&&&&&,left,sanctity.virtue,,,,,,,0,119,119,119,,,,,,,,,,,,,,,,,,,,,AMP,right,0.4003376546315849,,,right,0,0.4003376546315849,0,,,,,,,,,,,,,,,,,,,,,,1003,2019_Mar_01_1458,mf_amp_cond1,3.0.4,60.038935105552675,
suicide,totalestic,&&&&&&&&&&,right,care.vice,,,,,,,0,120,120,120,,,,,,,,,,,,,,,,,,,,,AMP,left,0.33375925046857446,,,left,0,0.33375925046857446,0,,,,,,,,,,,,,,,,,,,,,,1003,2019_Mar_01_1458,mf_amp_cond1,3.0.4,60.038935105552675,
prosecution,precificity,&&&&&&&&&&&,right,authority.vice,,,,,,,0,121,121,121,,,,,,,,,,,,,,,,,,,,,AMP,left,0.4670344050973654,,,left,0,0.4670344050973654,0,,,,,,,,,,,,,,,,,,,,,,1003,2019_Mar_01_1458,mf_amp_cond1,3.0.4,60.038935105552675,
agreement,tomedians,&&&&&&&&&,left,fairness.virtue,,,,,,,0,122,122,122,,,,,,,,,,,,,,,,,,,,,AMP,right,0.35035718663129956,,,right,0,0.35035718663129956,0,,,,,,,,,,,,,,,,,,,,,,1003,2019_Mar_01_1458,mf_amp_cond1,3.0.4,60.038935105552675,
unpleasant,uller,&&&&&,None,control,,,,,,,0,123,123,123,,,,,,,,,,,,,,,,,,,,,AMP,right,0.7504466035170481,,,right,0,0.7504466035170481,0,,,,,,,,,,,,,,,,,,,,,,1003,2019_Mar_01_1458,mf_amp_cond1,3.0.4,60.038935105552675,
critics,tabin,&&&&&,right,loyalty.vice,,,,,,,0,124,124,124,,,,,,,,,,,,,,,,,,,,,AMP,right,0.6170745912240818,,,right,1,0.6170745912240818,1,,,,,,,,,,,,,,,,,,,,,,1003,2019_Mar_01_1458,mf_amp_cond1,3.0.4,60.038935105552675,
hope,unscothed,&&&&&&&&&,left,loyalty.virtue,,,,,,,0,125,125,125,,,,,,,,,,,,,,,,,,,,,AMP,left,0.5169844045303762,,,left,1,0.5169844045303762,1,,,,,,,,,,,,,,,,,,,,,,1003,2019_Mar_01_1458,mf_amp_cond1,3.0.4,60.038935105552675,
free,fontacts,&&&&&&&&,left,fairness.virtue,,,,,,,0,126,126,126,,,,,,,,,,,,,,,,,,,,,AMP,right,0.5837411296088248,,,right,0,0.5837411296088248,0,,,,,,,,,,,,,,,,,,,,,,1003,2019_Mar_01_1458,mf_amp_cond1,3.0.4,60.038935105552675,
riot,godlaness,&&&&&&&&&,right,authority.vice,,,,,,,0,127,127,127,,,,,,,,,,,,,,,,,,,,,AMP,right,0.4170055080903694,,,right,1,0.4170055080903694,1,,,,,,,,,,,,,,,,,,,,,,1003,2019_Mar_01_1458,mf_amp_cond1,3.0.4,60.038935105552675,
juck,gondensed,&&&&&&&&&,None,nonword,,,,,,,0,128,128,128,,,,,,,,,,,,,,,,,,,,,AMP,left,0.5837286215974018,,,left,0,0.5837286215974018,0,,,,,,,,,,,,,,,,,,,,,,1003,2019_Mar_01_1458,mf_amp_cond1,3.0.4,60.038935105552675,
baladroit,bluently,&&&&&&&&,None,nonword,,,,,,,0,129,129,129,,,,,,,,,,,,,,,,,,,,,AMP,right,0.5337058183504269,,,right,0,0.5337058183504269,0,,,,,,,,,,,,,,,,,,,,,,1003,2019_Mar_01_1458,mf_amp_cond1,3.0.4,60.038935105552675,
pleasant,imebreaker,&&&&&&&&&&,None,control,,,,,,,0,130,130,130,,,,,,,,,,,,,,,,,,,,,AMP,right,0.41701160185039043,,,right,0,0.41701160185039043,0,,,,,,,,,,,,,,,,,,,,,,1003,2019_Mar_01_1458,mf_amp_cond1,3.0.4,60.038935105552675,
troops,shoirmaster,&&&&&&&&&&&,right,loyalty.vice,,,,,,,0,131,131,131,,,,,,,,,,,,,,,,,,,,,AMP,right,0.5336849715095013,,,right,1,0.5336849715095013,1,,,,,,,,,,,,,,,,,,,,,,1003,2019_Mar_01_1458,mf_amp_cond1,3.0.4,60.038935105552675,
slavery,stindig,&&&&&&&,right,loyalty.vice,,,,,,,0,132,132,132,,,,,,,,,,,,,,,,,,,,,AMP,left,0.400342786218971,,,left,0,0.400342786218971,0,,,,,,,,,,,,,,,,,,,,,,1003,2019_Mar_01_1458,mf_amp_cond1,3.0.4,60.038935105552675,
threatened,openet,&&&&&&,right,fairness.vice,,,,,,,0,133,133,133,,,,,,,,,,,,,,,,,,,,,AMP,right,0.250250001787208,,,right,1,0.250250001787208,1,,,,,,,,,,,,,,,,,,,,,,1003,2019_Mar_01_1458,mf_amp_cond1,3.0.4,60.038935105552675,
police,baklara,&&&&&&&,right,authority.vice,,,,,,,0,134,134,134,,,,,,,,,,,,,,,,,,,,,AMP,left,0.3670109282247722,,,left,0,0.3670109282247722,0,,,,,,,,,,,,,,,,,,,,,,1003,2019_Mar_01_1458,mf_amp_cond1,3.0.4,60.038935105552675,
improve,iptervention,&&&&&&&&&&&&,left,care.virtue,,,,,,,0,135,135,135,,,,,,,,,,,,,,,,,,,,,AMP,right,0.7837681984528899,,,right,0,0.7837681984528899,0,,,,,,,,,,,,,,,,,,,,,,1003,2019_Mar_01_1458,mf_amp_cond1,3.0.4,60.038935105552675,
rejected,neutralust,&&&&&&&&&&,right,authority.vice,,,,,,,0,136,136,136,,,,,,,,,,,,,,,,,,,,,AMP,right,0.4003415033221245,,,right,1,0.4003415033221245,1,,,,,,,,,,,,,,,,,,,,,,1003,2019_Mar_01_1458,mf_amp_cond1,3.0.4,60.038935105552675,
victim,papert,&&&&&&,right,care.vice,,,,,,,0,137,137,137,,,,,,,,,,,,,,,,,,,,,AMP,left,0.8838054662337527,,,left,0,0.8838054662337527,0,,,,,,,,,,,,,,,,,,,,,,1003,2019_Mar_01_1458,mf_amp_cond1,3.0.4,60.038935105552675,
fear,sgrawl,&&&&&&,right,sanctity.vice,,,,,,,0,138,138,138,,,,,,,,,,,,,,,,,,,,,AMP,right,0.43370350915938616,,,right,1,0.43370350915938616,1,,,,,,,,,,,,,,,,,,,,,,1003,2019_Mar_01_1458,mf_amp_cond1,3.0.4,60.038935105552675,
tove,letish,&&&&&&,None,nonword,,,,,,,0,139,139,139,,,,,,,,,,,,,,,,,,,,,AMP,right,1.1838746136054397,,,right,0,1.1838746136054397,0,,,,,,,,,,,,,,,,,,,,,,1003,2019_Mar_01_1458,mf_amp_cond1,3.0.4,60.038935105552675,
strong,tislay,&&&&&&,left,loyalty.virtue,,,,,,,0,140,140,140,,,,,,,,,,,,,,,,,,,,,AMP,right,0.5003742809640244,,,right,0,0.5003742809640244,0,,,,,,,,,,,,,,,,,,,,,,1003,2019_Mar_01_1458,mf_amp_cond1,3.0.4,60.038935105552675,
conspiracy,pumber,&&&&&&,right,sanctity.vice,,,,,,,0,141,141,141,,,,,,,,,,,,,,,,,,,,,AMP,right,1.217243675258942,,,right,1,1.217243675258942,1,,,,,,,,,,,,,,,,,,,,,,1003,2019_Mar_01_1458,mf_amp_cond1,3.0.4,60.038935105552675,
drug,fangsters,&&&&&&&&&,right,sanctity.vice,,,,,,,0,142,142,142,,,,,,,,,,,,,,,,,,,,,AMP,left,0.4668762896908447,,,left,0,0.4668762896908447,0,,,,,,,,,,,,,,,,,,,,,,1003,2019_Mar_01_1458,mf_amp_cond1,3.0.4,60.038935105552675,
progress,lorthwhile,&&&&&&&&&&,left,authority.virtue,,,,,,,0,143,143,143,,,,,,,,,,,,,,,,,,,,,AMP,left,0.6337482176022604,,,left,1,0.6337482176022604,1,,,,,,,,,,,,,,,,,,,,,,1003,2019_Mar_01_1458,mf_amp_cond1,3.0.4,60.038935105552675,
promote,gazily,&&&&&&,left,sanctity.virtue,,,,,,,0,144,144,144,,,,,,,,,,,,,,,,,,,,,AMP,left,1.1172038416843861,,,left,1,1.1172038416843861,1,,,,,,,,,,,,,,,,,,,,,,1003,2019_Mar_01_1458,mf_amp_cond1,3.0.4,60.038935105552675,
increase,Daptist,&&&&&&&,left,care.virtue,,,,,,,0,145,145,145,,,,,,,,,,,,,,,,,,,,,AMP,right,0.550367577932775,,,right,0,0.550367577932775,0,,,,,,,,,,,,,,,,,,,,,,1003,2019_Mar_01_1458,mf_amp_cond1,3.0.4,60.038935105552675,
gun,framatic,&&&&&&&&,right,authority.vice,,,,,,,0,146,146,146,,,,,,,,,,,,,,,,,,,,,AMP,left,0.6337498212233186,,,left,0,0.6337498212233186,0,,,,,,,,,,,,,,,,,,,,,,1003,2019_Mar_01_1458,mf_amp_cond1,3.0.4,60.038935105552675,
health,prones,&&&&&&,left,care.virtue,,,,,,,0,147,147,147,,,,,,,,,,,,,,,,,,,,,AMP,left,0.7837855174439028,,,left,1,0.7837855174439028,1,,,,,,,,,,,,,,,,,,,,,,1003,2019_Mar_01_1458,mf_amp_cond1,3.0.4,60.038935105552675,
terrorist,chreams,&&&&&&&,right,loyalty.vice,,,,,,,0,148,148,148,,,,,,,,,,,,,,,,,,,,,AMP,right,1.1671939314110205,,,right,1,1.1671939314110205,1,,,,,,,,,,,,,,,,,,,,,,1003,2019_Mar_01_1458,mf_amp_cond1,3.0.4,60.038935105552675,
actively,reviked,&&&&&&&,left,authority.virtue,,,,,,,0,149,149,149,,,,,,,,,,,,,,,,,,,,,AMP,right,1.6339586103567854,,,right,0,1.6339586103567854,0,,,,,,,,,,,,,,,,,,,,,,1003,2019_Mar_01_1458,mf_amp_cond1,3.0.4,60.038935105552675,
killed,scock,&&&&&,right,care.vice,,,,,,,0,150,150,150,,,,,,,,,,,,,,,,,,,,,AMP,left,0.4337166586192325,,,left,0,0.4337166586192325,0,,,,,,,,,,,,,,,,,,,,,,1003,2019_Mar_01_1458,mf_amp_cond1,3.0.4,60.038935105552675,
safety,touls,&&&&&,left,care.virtue,,,,,,,0,151,151,151,,,,,,,,,,,,,,,,,,,,,AMP,right,0.4336884352378547,,,right,0,0.4336884352378547,0,,,,,,,,,,,,,,,,,,,,,,1003,2019_Mar_01_1458,mf_amp_cond1,3.0.4,60.038935105552675,
seachwear,strofe,&&&&&&,None,nonword,,,,,,,0,152,152,152,,,,,,,,,,,,,,,,,,,,,AMP,left,0.36698366701602936,,,left,0,0.36698366701602936,0,,,,,,,,,,,,,,,,,,,,,,1003,2019_Mar_01_1458,mf_amp_cond1,3.0.4,60.038935105552675,
win,disregord,&&&&&&&&&,left,fairness.virtue,,,,,,,0,153,153,153,,,,,,,,,,,,,,,,,,,,,AMP,left,0.2503119008615613,,,left,1,0.2503119008615613,1,,,,,,,,,,,,,,,,,,,,,,1003,2019_Mar_01_1458,mf_amp_cond1,3.0.4,60.038935105552675,
intelligence,ugeasily,&&&&&&&&,left,loyalty.virtue,,,,,,,0,154,154,154,,,,,,,,,,,,,,,,,,,,,AMP,right,0.4004486241610721,,,right,0,0.4004486241610721,0,,,,,,,,,,,,,,,,,,,,,,1003,2019_Mar_01_1458,mf_amp_cond1,3.0.4,60.038935105552675,
crime,elduringly,&&&&&&&&&&,right,fairness.vice,,,,,,,0,155,155,155,,,,,,,,,,,,,,,,,,,,,AMP,right,0.3668531336588785,,,right,1,0.3668531336588785,1,,,,,,,,,,,,,,,,,,,,,,1003,2019_Mar_01_1458,mf_amp_cond1,3.0.4,60.038935105552675,
shot,allears,&&&&&&&,right,care.vice,,,,,,,0,156,156,156,,,,,,,,,,,,,,,,,,,,,AMP,right,0.30032508249860257,,,right,1,0.30032508249860257,1,,,,,,,,,,,,,,,,,,,,,,1003,2019_Mar_01_1458,mf_amp_cond1,3.0.4,60.038935105552675,
help,blunderints,&&&&&&&&&&&,left,care.virtue,,,,,,,0,157,157,157,,,,,,,,,,,,,,,,,,,,,AMP,left,0.3003173852339387,,,left,1,0.3003173852339387,1,,,,,,,,,,,,,,,,,,,,,,1003,2019_Mar_01_1458,mf_amp_cond1,3.0.4,60.038935105552675,
ronviolence,framo,&&&&&,None,nonword,,,,,,,0,158,158,158,,,,,,,,,,,,,,,,,,,,,AMP,right,0.41702475131023675,,,right,0,0.41702475131023675,0,,,,,,,,,,,,,,,,,,,,,,1003,2019_Mar_01_1458,mf_amp_cond1,3.0.4,60.038935105552675,
corruption,tenuflect,&&&&&&&&&,right,sanctity.vice,,,,,,,0,159,159,159,,,,,,,,,,,,,,,,,,,,,AMP,left,0.3336543746991083,,,left,0,0.3336543746991083,0,,,,,,,,,,,,,,,,,,,,,,1003,2019_Mar_01_1458,mf_amp_cond1,3.0.4,60.038935105552675,
illegal,suggists,&&&&&&&&,right,fairness.vice,,,,,,,0,160,160,160,,,,,,,,,,,,,,,,,,,,,AMP,left,0.4837038619443774,,,left,0,0.4837038619443774,0,,,,,,,,,,,,,,,,,,,,,,1003,2019_Mar_01_1458,mf_amp_cond1,3.0.4,60.038935105552675,
war,hefurbished,&&&&&&&&&&&,right,sanctity.vice,,,,,,,0,161,161,161,,,,,,,,,,,,,,,,,,,,,AMP,right,0.2836597948335111,,,right,1,0.2836597948335111,1,,,,,,,,,,,,,,,,,,,,,,1003,2019_Mar_01_1458,mf_amp_cond1,3.0.4,60.038935105552675,
party,gikely,&&&&&&,left,loyalty.virtue,,,,,,,0,162,162,162,,,,,,,,,,,,,,,,,,,,,AMP,right,0.46687276184093207,,,right,0,0.46687276184093207,0,,,,,,,,,,,,,,,,,,,,,,1003,2019_Mar_01_1458,mf_amp_cond1,3.0.4,60.038935105552675,
sonvoy,noped,&&&&&,None,nonword,,,,,,,0,163,163,163,,,,,,,,,,,,,,,,,,,,,AMP,left,0.1836295829853043,,,left,0,0.1836295829853043,0,,,,,,,,,,,,,,,,,,,,,,1003,2019_Mar_01_1458,mf_amp_cond1,3.0.4,60.038935105552675,
prosecution,reviked,&&&&&&&,right,authority.vice,,,,,,,0,164,164,164,,,,,,,,,,,,,,,,,,,,,AMP,left,0.3336915783584118,,,left,0,0.3336915783584118,0,,,,,,,,,,,,,,,,,,,,,,1003,2019_Mar_01_1458,mf_amp_cond1,3.0.4,60.038935105552675,
great,laming,&&&&&&,left,loyalty.virtue,,,,,,,0,165,165,165,,,,,,,,,,,,,,,,,,,,,AMP,right,0.1336180050857365,,,right,0,0.1336180050857365,0,,,,,,,,,,,,,,,,,,,,,,1003,2019_Mar_01_1458,mf_amp_cond1,3.0.4,60.038935105552675,
values,totalestic,&&&&&&&&&&,left,sanctity.virtue,,,,,,,0,166,166,166,,,,,,,,,,,,,,,,,,,,,AMP,left,0.4170811981894076,,,left,1,0.4170811981894076,1,,,,,,,,,,,,,,,,,,,,,,1003,2019_Mar_01_1458,mf_amp_cond1,3.0.4,60.038935105552675,
victim,blunderints,&&&&&&&&&&&,right,care.vice,,,,,,,0,167,167,167,,,,,,,,,,,,,,,,,,,,,AMP,right,0.4003581808647141,,,right,1,0.4003581808647141,1,,,,,,,,,,,,,,,,,,,,,,1003,2019_Mar_01_1458,mf_amp_cond1,3.0.4,60.038935105552675,
riot,iptervention,&&&&&&&&&&&&,right,authority.vice,,,,,,,0,168,168,168,,,,,,,,,,,,,,,,,,,,,AMP,left,0.41701705392915756,,,left,0,0.41701705392915756,0,,,,,,,,,,,,,,,,,,,,,,1003,2019_Mar_01_1458,mf_amp_cond1,3.0.4,60.038935105552675,
pharing,hefurbished,&&&&&&&&&&&,None,nonword,,,,,,,0,169,169,169,,,,,,,,,,,,,,,,,,,,,AMP,left,0.6837604369502515,,,left,0,0.6837604369502515,0,,,,,,,,,,,,,,,,,,,,,,1003,2019_Mar_01_1458,mf_amp_cond1,3.0.4,60.038935105552675,
faith,dramens,&&&&&&&,left,sanctity.virtue,,,,,,,0,170,170,170,,,,,,,,,,,,,,,,,,,,,AMP,right,0.4503537229029462,,,right,0,0.4503537229029462,0,,,,,,,,,,,,,,,,,,,,,,1003,2019_Mar_01_1458,mf_amp_cond1,3.0.4,60.038935105552675,
illegal,sickyay,&&&&&&&,right,fairness.vice,,,,,,,0,171,171,171,,,,,,,,,,,,,,,,,,,,,AMP,right,0.33373744133859873,,,right,1,0.33373744133859873,1,,,,,,,,,,,,,,,,,,,,,,1003,2019_Mar_01_1458,mf_amp_cond1,3.0.4,60.038935105552675,
violence,mih,&&&,right,care.vice,,,,,,,0,172,172,172,,,,,,,,,,,,,,,,,,,,,AMP,right,0.5337224958930165,,,right,1,0.5337224958930165,1,,,,,,,,,,,,,,,,,,,,,,1003,2019_Mar_01_1458,mf_amp_cond1,3.0.4,60.038935105552675,
terrorists,fegard,&&&&&&,right,fairness.vice,,,,,,,0,173,173,173,,,,,,,,,,,,,,,,,,,,,AMP,left,0.15029227279592305,,,left,0,0.15029227279592305,0,,,,,,,,,,,,,,,,,,,,,,1003,2019_Mar_01_1458,mf_amp_cond1,3.0.4,60.038935105552675,
health,vurtain,&&&&&&&,left,care.virtue,,,,,,,0,174,174,174,,,,,,,,,,,,,,,,,,,,,AMP,right,0.4503986237104982,,,right,0,0.4503986237104982,0,,,,,,,,,,,,,,,,,,,,,,1003,2019_Mar_01_1458,mf_amp_cond1,3.0.4,60.038935105552675,
critics,crilfully,&&&&&&&&&,right,loyalty.vice,,,,,,,0,175,175,175,,,,,,,,,,,,,,,,,,,,,AMP,left,0.3836794230155647,,,left,0,0.3836794230155647,0,,,,,,,,,,,,,,,,,,,,,,1003,2019_Mar_01_1458,mf_amp_cond1,3.0.4,60.038935105552675,
conspiracy,ittutable,&&&&&&&&&,right,sanctity.vice,,,,,,,0,176,176,176,,,,,,,,,,,,,,,,,,,,,AMP,right,0.8004732554545626,,,right,1,0.8004732554545626,1,,,,,,,,,,,,,,,,,,,,,,1003,2019_Mar_01_1458,mf_amp_cond1,3.0.4,60.038935105552675,
juck,taxpayung,&&&&&&&&&,None,nonword,,,,,,,0,177,177,177,,,,,,,,,,,,,,,,,,,,,AMP,right,0.5503999708453193,,,right,0,0.5503999708453193,0,,,,,,,,,,,,,,,,,,,,,,1003,2019_Mar_01_1458,mf_amp_cond1,3.0.4,60.038935105552675,
unpleasant,tomedians,&&&&&&&&&,None,control,,,,,,,0,178,178,178,,,,,,,,,,,,,,,,,,,,,AMP,right,1.8006935905432329,,,right,0,1.8006935905432329,0,,,,,,,,,,,,,,,,,,,,,,1003,2019_Mar_01_1458,mf_amp_cond1,3.0.4,60.038935105552675,
slavery,gondensed,&&&&&&&&&,right,loyalty.vice,,,,,,,0,179,179,179,,,,,,,,,,,,,,,,,,,,,AMP,right,0.40035721857566386,,,right,1,0.40035721857566386,1,,,,,,,,,,,,,,,,,,,,,,1003,2019_Mar_01_1458,mf_amp_cond1,3.0.4,60.038935105552675,
pafer,cromiscuity,&&&&&&&&&&&,None,nonword,,,,,,,0,180,180,180,,,,,,,,,,,,,,,,,,,,,AMP,right,0.4170016593998298,,,right,0,0.4170016593998298,0,,,,,,,,,,,,,,,,,,,,,,1003,2019_Mar_01_1458,mf_amp_cond1,3.0.4,60.038935105552675,
corruption,emports,&&&&&&&,right,sanctity.vice,,,,,,,0,181,181,181,,,,,,,,,,,,,,,,,,,,,AMP,right,0.9004643394146115,,,right,1,0.9004643394146115,1,,,,,,,,,,,,,,,,,,,,,,1003,2019_Mar_01_1458,mf_amp_cond1,3.0.4,60.038935105552675,
freedom,divility,&&&&&&&&,left,sanctity.virtue,,,,,,,0,182,182,182,,,,,,,,,,,,,,,,,,,,,AMP,right,0.6504167123930529,,,right,0,0.6504167123930529,0,,,,,,,,,,,,,,,,,,,,,,1003,2019_Mar_01_1458,mf_amp_cond1,3.0.4,60.038935105552675,
powerful,allears,&&&&&&&,left,authority.virtue,,,,,,,0,183,183,183,,,,,,,,,,,,,,,,,,,,,AMP,right,0.4835576133336872,,,right,0,0.4835576133336872,0,,,,,,,,,,,,,,,,,,,,,,1003,2019_Mar_01_1458,mf_amp_cond1,3.0.4,60.038935105552675,
killed,ning,&&&&,right,care.vice,,,,,,,0,184,184,184,,,,,,,,,,,,,,,,,,,,,AMP,right,0.7837710849707946,,,right,1,0.7837710849707946,1,,,,,,,,,,,,,,,,,,,,,,1003,2019_Mar_01_1458,mf_amp_cond1,3.0.4,60.038935105552675,
threatened,tenuflect,&&&&&&&&&,right,fairness.vice,,,,,,,0,185,185,185,,,,,,,,,,,,,,,,,,,,,AMP,left,0.7004565137904137,,,left,0,0.7004565137904137,0,,,,,,,,,,,,,,,,,,,,,,1003,2019_Mar_01_1458,mf_amp_cond1,3.0.4,60.038935105552675,
perfect,unscothed,&&&&&&&&&,left,sanctity.virtue,,,,,,,0,186,186,186,,,,,,,,,,,,,,,,,,,,,AMP,right,0.13346021040342748,,,right,0,0.13346021040342748,0,,,,,,,,,,,,,,,,,,,,,,1003,2019_Mar_01_1458,mf_amp_cond1,3.0.4,60.038935105552675,
integrity,drumbled,&&&&&&&&,left,fairness.virtue,,,,,,,0,187,187,187,,,,,,,,,,,,,,,,,,,,,AMP,right,0.7837204111274332,,,right,0,0.7837204111274332,0,,,,,,,,,,,,,,,,,,,,,,1003,2019_Mar_01_1458,mf_amp_cond1,3.0.4,60.038935105552675,
prison,gikely,&&&&&&,right,fairness.vice,,,,,,,0,188,188,188,,,,,,,,,,,,,,,,,,,,,AMP,left,0.7004247625591233,,,left,0,0.7004247625591233,0,,,,,,,,,,,,,,,,,,,,,,1003,2019_Mar_01_1458,mf_amp_cond1,3.0.4,60.038935105552675,
ronviolence,imebreaker,&&&&&&&&&&,None,nonword,,,,,,,0,189,189,189,,,,,,,,,,,,,,,,,,,,,AMP,right,0.31701346195768565,,,right,0,0.31701346195768565,0,,,,,,,,,,,,,,,,,,,,,,1003,2019_Mar_01_1458,mf_amp_cond1,3.0.4,60.038935105552675,
celebrated,Phintoism,&&&&&&&&&,left,authority.virtue,,,,,,,0,190,190,190,,,,,,,,,,,,,,,,,,,,,AMP,right,0.5003720360109583,,,right,0,0.5003720360109583,0,,,,,,,,,,,,,,,,,,,,,,1003,2019_Mar_01_1458,mf_amp_cond1,3.0.4,60.038935105552675,
abuse,tabin,&&&&&,right,sanctity.vice,,,,,,,0,191,191,191,,,,,,,,,,,,,,,,,,,,,AMP,left,0.4670238211983815,,,left,0,0.4670238211983815,0,,,,,,,,,,,,,,,,,,,,,,1003,2019_Mar_01_1458,mf_amp_cond1,3.0.4,60.038935105552675,
increase,faspberry,&&&&&&&&&,left,care.virtue,,,,,,,0,192,192,192,,,,,,,,,,,,,,,,,,,,,AMP,right,0.5837254143552855,,,right,0,0.5837254143552855,0,,,,,,,,,,,,,,,,,,,,,,1003,2019_Mar_01_1458,mf_amp_cond1,3.0.4,60.038935105552675,
protesters,nomaric,&&&&&&&,right,authority.vice,,,,,,,0,193,193,193,,,,,,,,,,,,,,,,,,,,,AMP,left,1.250554044963792,,,left,0,1.250554044963792,0,,,,,,,,,,,,,,,,,,,,,,1003,2019_Mar_01_1458,mf_amp_cond1,3.0.4,60.038935105552675,
seachwear,quarterbocks,&&&&&&&&&&&&,None,nonword,,,,,,,0,194,194,194,,,,,,,,,,,,,,,,,,,,,AMP,right,0.4003928187303245,,,right,0,0.4003928187303245,0,,,,,,,,,,,,,,,,,,,,,,1003,2019_Mar_01_1458,mf_amp_cond1,3.0.4,60.038935105552675,
strong,baklara,&&&&&&&,left,loyalty.virtue,,,,,,,0,195,195,195,,,,,,,,,,,,,,,,,,,,,AMP,right,0.7170807491056621,,,right,0,0.7170807491056621,0,,,,,,,,,,,,,,,,,,,,,,1003,2019_Mar_01_1458,mf_amp_cond1,3.0.4,60.038935105552675,
promote,scalbel,&&&&&&&,left,sanctity.virtue,,,,,,,0,196,196,196,,,,,,,,,,,,,,,,,,,,,AMP,right,0.8671311984071508,,,right,0,0.8671311984071508,0,,,,,,,,,,,,,,,,,,,,,,1003,2019_Mar_01_1458,mf_amp_cond1,3.0.4,60.038935105552675,
metibolic,frojecting,&&&&&&&&&&,None,nonword,,,,,,,0,197,197,197,,,,,,,,,,,,,,,,,,,,,AMP,right,0.48375261144246906,,,right,0,0.48375261144246906,0,,,,,,,,,,,,,,,,,,,,,,1003,2019_Mar_01_1458,mf_amp_cond1,3.0.4,60.038935105552675,
promises,synchronazers,&&&&&&&&&&&&&,left,fairness.virtue,,,,,,,0,198,198,198,,,,,,,,,,,,,,,,,,,,,AMP,right,0.3836768572218716,,,right,0,0.3836768572218716,0,,,,,,,,,,,,,,,,,,,,,,1003,2019_Mar_01_1458,mf_amp_cond1,3.0.4,60.038935105552675,
emassion,tislay,&&&&&&,None,nonword,,,,,,,0,199,199,199,,,,,,,,,,,,,,,,,,,,,AMP,right,0.5503925941884518,,,right,0,0.5503925941884518,0,,,,,,,,,,,,,,,,,,,,,,1003,2019_Mar_01_1458,mf_amp_cond1,3.0.4,60.038935105552675,
troops,gedious,&&&&&&&,right,loyalty.vice,,,,,,,0,200,200,200,,,,,,,,,,,,,,,,,,,,,AMP,right,0.783851585816592,,,right,1,0.783851585816592,1,,,,,,,,,,,,,,,,,,,,,,1003,2019_Mar_01_1458,mf_amp_cond1,3.0.4,60.038935105552675,
attacks,elduringly,&&&&&&&&&&,right,care.vice,,,,,,,0,201,201,201,,,,,,,,,,,,,,,,,,,,,AMP,right,0.6170688183046877,,,right,1,0.6170688183046877,1,,,,,,,,,,,,,,,,,,,,,,1003,2019_Mar_01_1458,mf_amp_cond1,3.0.4,60.038935105552675,
sharing,chreams,&&&&&&&,left,loyalty.virtue,,,,,,,0,202,202,202,,,,,,,,,,,,,,,,,,,,,AMP,right,0.3170137826818973,,,right,0,0.3170137826818973,0,,,,,,,,,,,,,,,,,,,,,,1003,2019_Mar_01_1458,mf_amp_cond1,3.0.4,60.038935105552675,
charges,abointment,&&&&&&&&&&,right,fairness.vice,,,,,,,0,203,203,203,,,,,,,,,,,,,,,,,,,,,AMP,right,0.5670626926003024,,,right,1,0.5670626926003024,1,,,,,,,,,,,,,,,,,,,,,,1003,2019_Mar_01_1458,mf_amp_cond1,3.0.4,60.038935105552675,
safety,neutralust,&&&&&&&&&&,left,care.virtue,,,,,,,0,204,204,204,,,,,,,,,,,,,,,,,,,,,AMP,right,0.43368490727152675,,,right,0,0.43368490727152675,0,,,,,,,,,,,,,,,,,,,,,,1003,2019_Mar_01_1458,mf_amp_cond1,3.0.4,60.038935105552675,
growth,touls,&&&&&,left,care.virtue,,,,,,,0,205,205,205,,,,,,,,,,,,,,,,,,,,,AMP,right,0.5670556366676465,,,right,0,0.5670556366676465,0,,,,,,,,,,,,,,,,,,,,,,1003,2019_Mar_01_1458,mf_amp_cond1,3.0.4,60.038935105552675,
betrayal,suggists,&&&&&&&&,right,loyalty.vice,,,,,,,0,206,206,206,,,,,,,,,,,,,,,,,,,,,AMP,left,0.38367621588986367,,,left,0,0.38367621588986367,0,,,,,,,,,,,,,,,,,,,,,,1003,2019_Mar_01_1458,mf_amp_cond1,3.0.4,60.038935105552675,
restore,strofe,&&&&&&,left,care.virtue,,,,,,,0,207,207,207,,,,,,,,,,,,,,,,,,,,,AMP,left,0.7004225174896419,,,left,1,0.7004225174896419,1,,,,,,,,,,,,,,,,,,,,,,1003,2019_Mar_01_1458,mf_amp_cond1,3.0.4,60.038935105552675,
intelligence,papert,&&&&&&,left,loyalty.virtue,,,,,,,0,208,208,208,,,,,,,,,,,,,,,,,,,,,AMP,right,0.28364792827051133,,,right,0,0.28364792827051133,0,,,,,,,,,,,,,,,,,,,,,,1003,2019_Mar_01_1458,mf_amp_cond1,3.0.4,60.038935105552675,
accused,ebbitter,&&&&&&&&,right,fairness.vice,,,,,,,0,209,209,209,,,,,,,,,,,,,,,,,,,,,AMP,left,0.5503858590964228,,,left,0,0.5503858590964228,0,,,,,,,,,,,,,,,,,,,,,,1003,2019_Mar_01_1458,mf_amp_cond1,3.0.4,60.038935105552675,
death,letish,&&&&&&,right,care.vice,,,,,,,0,210,210,210,,,,,,,,,,,,,,,,,,,,,AMP,right,0.5836138034937903,,,right,1,0.5836138034937903,1,,,,,,,,,,,,,,,,,,,,,,1003,2019_Mar_01_1458,mf_amp_cond1,3.0.4,60.038935105552675,
terrorist,fornicalion,&&&&&&&&&&&,right,loyalty.vice,,,,,,,0,211,211,211,,,,,,,,,,,,,,,,,,,,,AMP,left,0.7004266867879778,,,left,0,0.7004266867879778,0,,,,,,,,,,,,,,,,,,,,,,1003,2019_Mar_01_1458,mf_amp_cond1,3.0.4,60.038935105552675,
strength,menizen,&&&&&&&,left,sanctity.virtue,,,,,,,0,212,212,212,,,,,,,,,,,,,,,,,,,,,AMP,right,0.5503858589800075,,,right,0,0.5503858589800075,0,,,,,,,,,,,,,,,,,,,,,,1003,2019_Mar_01_1458,mf_amp_cond1,3.0.4,60.038935105552675,
ability,framo,&&&&&,left,authority.virtue,,,,,,,0,213,213,213,,,,,,,,,,,,,,,,,,,,,AMP,right,0.7170563742984086,,,right,0,0.7170563742984086,0,,,,,,,,,,,,,,,,,,,,,,1003,2019_Mar_01_1458,mf_amp_cond1,3.0.4,60.038935105552675,
baladroit,shoirmaster,&&&&&&&&&&&,None,nonword,,,,,,,0,214,214,214,,,,,,,,,,,,,,,,,,,,,AMP,left,0.43368971813470125,,,left,0,0.43368971813470125,0,,,,,,,,,,,,,,,,,,,,,,1003,2019_Mar_01_1458,mf_amp_cond1,3.0.4,60.038935105552675,
actively,neneficence,&&&&&&&&&&&,left,authority.virtue,,,,,,,0,215,215,215,,,,,,,,,,,,,,,,,,,,,AMP,left,0.30032700672745705,,,left,1,0.30032700672745705,1,,,,,,,,,,,,,,,,,,,,,,1003,2019_Mar_01_1458,mf_amp_cond1,3.0.4,60.038935105552675,
police,noped,&&&&&,right,authority.vice,,,,,,,0,216,216,216,,,,,,,,,,,,,,,,,,,,,AMP,left,0.48372021864634007,,,left,0,0.48372021864634007,0,,,,,,,,,,,,,,,,,,,,,,1003,2019_Mar_01_1458,mf_amp_cond1,3.0.4,60.038935105552675,
drug,precificity,&&&&&&&&&&&,right,sanctity.vice,,,,,,,0,217,217,217,,,,,,,,,,,,,,,,,,,,,AMP,left,0.3003568338463083,,,left,0,0.3003568338463083,0,,,,,,,,,,,,,,,,,,,,,,1003,2019_Mar_01_1458,mf_amp_cond1,3.0.4,60.038935105552675,
army,scock,&&&&&,right,loyalty.vice,,,,,,,0,218,218,218,,,,,,,,,,,,,,,,,,,,,AMP,left,0.4170815189136192,,,left,0,0.4170815189136192,0,,,,,,,,,,,,,,,,,,,,,,1003,2019_Mar_01_1458,mf_amp_cond1,3.0.4,60.038935105552675,
pleasant,halaise,&&&&&&&,None,control,,,,,,,0,219,219,219,,,,,,,,,,,,,,,,,,,,,AMP,right,0.43368266231846064,,,right,0,0.43368266231846064,0,,,,,,,,,,,,,,,,,,,,,,1003,2019_Mar_01_1458,mf_amp_cond1,3.0.4,60.038935105552675,
suicide,lorthwhile,&&&&&&&&&&,right,care.vice,,,,,,,0,220,220,220,,,,,,,,,,,,,,,,,,,,,AMP,left,0.6504048457136378,,,left,0,0.6504048457136378,0,,,,,,,,,,,,,,,,,,,,,,1003,2019_Mar_01_1458,mf_amp_cond1,3.0.4,60.038935105552675,
sonvoy,sliptery,&&&&&&&&,None,nonword,,,,,,,0,221,221,221,,,,,,,,,,,,,,,,,,,,,AMP,right,0.6670903386548162,,,right,0,0.6670903386548162,0,,,,,,,,,,,,,,,,,,,,,,1003,2019_Mar_01_1458,mf_amp_cond1,3.0.4,60.038935105552675,
benefit,neputized,&&&&&&&&&,left,fairness.virtue,,,,,,,0,222,222,222,,,,,,,,,,,,,,,,,,,,,AMP,left,0.8004886499838904,,,left,1,0.8004886499838904,1,,,,,,,,,,,,,,,,,,,,,,1003,2019_Mar_01_1458,mf_amp_cond1,3.0.4,60.038935105552675,
tove,openet,&&&&&&,None,nonword,,,,,,,0,223,223,223,,,,,,,,,,,,,,,,,,,,,AMP,right,0.7838076471816748,,,right,0,0.7838076471816748,0,,,,,,,,,,,,,,,,,,,,,,1003,2019_Mar_01_1458,mf_amp_cond1,3.0.4,60.038935105552675,
trust,stindig,&&&&&&&,left,authority.virtue,,,,,,,0,224,224,224,,,,,,,,,,,,,,,,,,,,,AMP,left,0.6504234474850819,,,left,1,0.6504234474850819,1,,,,,,,,,,,,,,,,,,,,,,1003,2019_Mar_01_1458,mf_amp_cond1,3.0.4,60.038935105552675,
hope,pumber,&&&&&&,left,loyalty.virtue,,,,,,,0,225,225,225,,,,,,,,,,,,,,,,,,,,,AMP,left,0.9838635808555409,,,left,1,0.9838635808555409,1,,,,,,,,,,,,,,,,,,,,,,1003,2019_Mar_01_1458,mf_amp_cond1,3.0.4,60.038935105552675,
love,Daptist,&&&&&&&,left,loyalty.virtue,,,,,,,0,226,226,226,,,,,,,,,,,,,,,,,,,,,AMP,right,0.5837478648172691,,,right,0,0.5837478648172691,0,,,,,,,,,,,,,,,,,,,,,,1003,2019_Mar_01_1458,mf_amp_cond1,3.0.4,60.038935105552675,
gun,perified,&&&&&&&&,right,authority.vice,,,,,,,0,227,227,227,,,,,,,,,,,,,,,,,,,,,AMP,left,1.5339566218899563,,,left,0,1.5339566218899563,0,,,,,,,,,,,,,,,,,,,,,,1003,2019_Mar_01_1458,mf_amp_cond1,3.0.4,60.038935105552675,
fear,asn,&&&,right,sanctity.vice,,,,,,,0,228,228,228,,,,,,,,,,,,,,,,,,,,,AMP,left,0.31699389801360667,,,left,0,0.31699389801360667,0,,,,,,,,,,,,,,,,,,,,,,1003,2019_Mar_01_1458,mf_amp_cond1,3.0.4,60.038935105552675,
ensure,dormandi,&&&&&&&&,left,fairness.virtue,,,,,,,0,229,229,229,,,,,,,,,,,,,,,,,,,,,AMP,right,0.6170845336746424,,,right,0,0.6170845336746424,0,,,,,,,,,,,,,,,,,,,,,,1003,2019_Mar_01_1458,mf_amp_cond1,3.0.4,60.038935105552675,
agreement,slending,&&&&&&&&,left,fairness.virtue,,,,,,,0,230,230,230,,,,,,,,,,,,,,,,,,,,,AMP,right,0.6504167123930529,,,right,0,0.6504167123930529,0,,,,,,,,,,,,,,,,,,,,,,1003,2019_Mar_01_1458,mf_amp_cond1,3.0.4,60.038935105552675,
party,sgrawl,&&&&&&,left,loyalty.virtue,,,,,,,0,231,231,231,,,,,,,,,,,,,,,,,,,,,AMP,right,0.10027877043467015,,,right,0,0.10027877043467015,0,,,,,,,,,,,,,,,,,,,,,,1003,2019_Mar_01_1458,mf_amp_cond1,3.0.4,60.038935105552675,
win,sowntrodden,&&&&&&&&&&&,left,fairness.virtue,,,,,,,0,232,232,232,,,,,,,,,,,,,,,,,,,,,AMP,right,0.8337916431482881,,,right,0,0.8337916431482881,0,,,,,,,,,,,,,,,,,,,,,,1003,2019_Mar_01_1458,mf_amp_cond1,3.0.4,60.038935105552675,
shot,framatic,&&&&&&&&,right,care.vice,,,,,,,0,233,233,233,,,,,,,,,,,,,,,,,,,,,AMP,right,0.6837838497012854,,,right,1,0.6837838497012854,1,,,,,,,,,,,,,,,,,,,,,,1003,2019_Mar_01_1458,mf_amp_cond1,3.0.4,60.038935105552675,
embrace,prones,&&&&&&,left,authority.virtue,,,,,,,0,234,234,234,,,,,,,,,,,,,,,,,,,,,AMP,right,0.4003514456562698,,,right,0,0.4003514456562698,0,,,,,,,,,,,,,,,,,,,,,,1003,2019_Mar_01_1458,mf_amp_cond1,3.0.4,60.038935105552675,
crime,sidearbs,&&&&&&&&,right,fairness.vice,,,,,,,0,235,235,235,,,,,,,,,,,,,,,,,,,,,AMP,right,0.2670012424932793,,,right,1,0.2670012424932793,1,,,,,,,,,,,,,,,,,,,,,,1003,2019_Mar_01_1458,mf_amp_cond1,3.0.4,60.038935105552675,
help,fangsters,&&&&&&&&&,left,care.virtue,,,,,,,0,236,236,236,,,,,,,,,,,,,,,,,,,,,AMP,right,0.3336495638359338,,,right,0,0.3336495638359338,0,,,,,,,,,,,,,,,,,,,,,,1003,2019_Mar_01_1458,mf_amp_cond1,3.0.4,60.038935105552675,
free,uller,&&&&&,left,fairness.virtue,,,,,,,0,237,237,237,,,,,,,,,,,,,,,,,,,,,AMP,left,0.36700323096010834,,,left,1,0.36700323096010834,1,,,,,,,,,,,,,,,,,,,,,,1003,2019_Mar_01_1458,mf_amp_cond1,3.0.4,60.038935105552675,
rejected,ugeasily,&&&&&&&&,right,authority.vice,,,,,,,0,238,238,238,,,,,,,,,,,,,,,,,,,,,AMP,right,0.2836623606272042,,,right,1,0.2836623606272042,1,,,,,,,,,,,,,,,,,,,,,,1003,2019_Mar_01_1458,mf_amp_cond1,3.0.4,60.038935105552675,
sexual,atson,&&&&&,right,sanctity.vice,,,,,,,0,239,239,239,,,,,,,,,,,,,,,,,,,,,AMP,right,0.15034679521340877,,,right,1,0.15034679521340877,1,,,,,,,,,,,,,,,,,,,,,,1003,2019_Mar_01_1458,mf_amp_cond1,3.0.4,60.038935105552675,
war,tracious,&&&&&&&&,right,sanctity.vice,,,,,,,0,240,240,240,,,,,,,,,,,,,,,,,,,,,AMP,left,0.4336913217557594,,,left,0,0.4336913217557594,0,,,,,,,,,,,,,,,,,,,,,,1003,2019_Mar_01_1458,mf_amp_cond1,3.0.4,60.038935105552675,
rebels,disregord,&&&&&&&&&,right,authority.vice,,,,,,,0,241,241,241,,,,,,,,,,,,,,,,,,,,,AMP,right,0.10021141904871911,,,right,1,0.10021141904871911,1,,,,,,,,,,,,,,,,,,,,,,1003,2019_Mar_01_1458,mf_amp_cond1,3.0.4,60.038935105552675,
men,godlaness,&&&&&&&&&,right,loyalty.vice,,,,,,,0,242,242,242,,,,,,,,,,,,,,,,,,,,,AMP,right,0.20030802011024207,,,right,1,0.20030802011024207,1,,,,,,,,,,,,,,,,,,,,,,1003,2019_Mar_01_1458,mf_amp_cond1,3.0.4,60.038935105552675,
improve,gazily,&&&&&&,left,care.virtue,,,,,,,0,243,243,243,,,,,,,,,,,,,,,,,,,,,AMP,right,0.4836544708814472,,,right,0,0.4836544708814472,0,,,,,,,,,,,,,,,,,,,,,,1003,2019_Mar_01_1458,mf_amp_cond1,3.0.4,60.038935105552675,
progress,fontacts,&&&&&&&&,left,authority.virtue,,,,,,,0,244,244,244,,,,,,,,,,,,,,,,,,,,,AMP,left,0.41701705392915756,,,left,1,0.41701705392915756,1,,,,,,,,,,,,,,,,,,,,,,1003,2019_Mar_01_1458,mf_amp_cond1,3.0.4,60.038935105552675,
respect,bluently,&&&&&&&&,left,sanctity.virtue,,,,,,,0,245,245,245,,,,,,,,,,,,,,,,,,,,,AMP,right,0.10027267667464912,,,right,0,0.10027267667464912,0,,,,,,,,,,,,,,,,,,,,,,1003,2019_Mar_01_1458,mf_amp_cond1,3.0.4,60.038935105552675,
accused,emports,&&&&&&&,right,fairness.vice,,,,,,,0,246,246,246,,,,,,,,,,,,,,,,,,,,,AMP,right,0.33365694049280137,,,right,1,0.33365694049280137,1,,,,,,,,,,,,,,,,,,,,,,1003,2019_Mar_01_1458,mf_amp_cond1,3.0.4,60.038935105552675,
violence,framatic,&&&&&&&&,right,care.vice,,,,,,,0,247,247,247,,,,,,,,,,,,,,,,,,,,,AMP,left,0.9004999394528568,,,left,0,0.9004999394528568,0,,,,,,,,,,,,,,,,,,,,,,1003,2019_Mar_01_1458,mf_amp_cond1,3.0.4,60.038935105552675,
gun,menizen,&&&&&&&,right,authority.vice,,,,,,,0,248,248,248,,,,,,,,,,,,,,,,,,,,,AMP,left,0.4170439945301041,,,left,0,0.4170439945301041,0,,,,,,,,,,,,,,,,,,,,,,1003,2019_Mar_01_1458,mf_amp_cond1,3.0.4,60.038935105552675,
fear,noped,&&&&&,right,sanctity.vice,,,,,,,0,249,249,249,,,,,,,,,,,,,,,,,,,,,AMP,left,0.08362118003424257,,,left,0,0.08362118003424257,0,,,,,,,,,,,,,,,,,,,,,,1003,2019_Mar_01_1458,mf_amp_cond1,3.0.4,60.038935105552675,
corruption,Phintoism,&&&&&&&&&,right,sanctity.vice,,,,,,,0,250,250,250,,,,,,,,,,,,,,,,,,,,,AMP,left,0.4170016593998298,,,left,0,0.4170016593998298,0,,,,,,,,,,,,,,,,,,,,,,1003,2019_Mar_01_1458,mf_amp_cond1,3.0.4,60.038935105552675,
integrity,lorthwhile,&&&&&&&&&&,left,fairness.virtue,,,,,,,0,251,251,251,,,,,,,,,,,,,,,,,,,,,AMP,left,0.6670896972063929,,,left,1,0.6670896972063929,1,,,,,,,,,,,,,,,,,,,,,,1003,2019_Mar_01_1458,mf_amp_cond1,3.0.4,60.038935105552675,
prosecution,letish,&&&&&&,right,authority.vice,,,,,,,0,252,252,252,,,,,,,,,,,,,,,,,,,,,AMP,left,0.5837459404719993,,,left,0,0.5837459404719993,0,,,,,,,,,,,,,,,,,,,,,,1003,2019_Mar_01_1458,mf_amp_cond1,3.0.4,60.038935105552675,
rejected,scock,&&&&&,right,authority.vice,,,,,,,0,253,253,253,,,,,,,,,,,,,,,,,,,,,AMP,left,0.6337446896359324,,,left,0,0.6337446896359324,0,,,,,,,,,,,,,,,,,,,,,,1003,2019_Mar_01_1458,mf_amp_cond1,3.0.4,60.038935105552675,
rebels,dormandi,&&&&&&&&,right,authority.vice,,,,,,,0,254,254,254,,,,,,,,,,,,,,,,,,,,,AMP,right,0.4170241098618135,,,right,1,0.4170241098618135,1,,,,,,,,,,,,,,,,,,,,,,1003,2019_Mar_01_1458,mf_amp_cond1,3.0.4,60.038935105552675,
actively,frojecting,&&&&&&&&&&,left,authority.virtue,,,,,,,0,255,255,255,,,,,,,,,,,,,,,,,,,,,AMP,right,0.8171305250143632,,,right,0,0.8171305250143632,0,,,,,,,,,,,,,,,,,,,,,,1003,2019_Mar_01_1458,mf_amp_cond1,3.0.4,60.038935105552675,
benefit,sickyay,&&&&&&&,left,fairness.virtue,,,,,,,0,256,256,256,,,,,,,,,,,,,,,,,,,,,AMP,right,0.23365655564703047,,,right,0,0.23365655564703047,0,,,,,,,,,,,,,,,,,,,,,,1003,2019_Mar_01_1458,mf_amp_cond1,3.0.4,60.038935105552675,
celebrated,neneficence,&&&&&&&&&&&,left,authority.virtue,,,,,,,0,257,257,257,,,,,,,,,,,,,,,,,,,,,AMP,right,0.10026946954894811,,,right,0,0.10026946954894811,0,,,,,,,,,,,,,,,,,,,,,,1003,2019_Mar_01_1458,mf_amp_cond1,3.0.4,60.038935105552675,
health,chreams,&&&&&&&,left,care.virtue,,,,,,,0,258,258,258,,,,,,,,,,,,,,,,,,,,,AMP,right,0.4003524078289047,,,right,0,0.4003524078289047,0,,,,,,,,,,,,,,,,,,,,,,1003,2019_Mar_01_1458,mf_amp_cond1,3.0.4,60.038935105552675,
shot,gedious,&&&&&&&,right,care.vice,,,,,,,0,259,259,259,,,,,,,,,,,,,,,,,,,,,AMP,right,0.4003642745083198,,,right,1,0.4003642745083198,1,,,,,,,,,,,,,,,,,,,,,,1003,2019_Mar_01_1458,mf_amp_cond1,3.0.4,60.038935105552675,
restore,stindig,&&&&&&&,left,care.virtue,,,,,,,0,260,260,260,,,,,,,,,,,,,,,,,,,,,AMP,right,0.5336836886126548,,,right,0,0.5336836886126548,0,,,,,,,,,,,,,,,,,,,,,,1003,2019_Mar_01_1458,mf_amp_cond1,3.0.4,60.038935105552675,
powerful,tabin,&&&&&,left,authority.virtue,,,,,,,0,261,261,261,,,,,,,,,,,,,,,,,,,,,AMP,right,0.21698549517896026,,,right,0,0.21698549517896026,0,,,,,,,,,,,,,,,,,,,,,,1003,2019_Mar_01_1458,mf_amp_cond1,3.0.4,60.038935105552675,
sharing,pumber,&&&&&&,left,loyalty.virtue,,,,,,,0,262,262,262,,,,,,,,,,,,,,,,,,,,,AMP,right,0.15029002772644162,,,right,0,0.15029002772644162,0,,,,,,,,,,,,,,,,,,,,,,1003,2019_Mar_01_1458,mf_amp_cond1,3.0.4,60.038935105552675,
improve,tenuflect,&&&&&&&&&,left,care.virtue,,,,,,,0,263,263,263,,,,,,,,,,,,,,,,,,,,,AMP,left,0.38367236719932407,,,left,1,0.38367236719932407,1,,,,,,,,,,,,,,,,,,,,,,1003,2019_Mar_01_1458,mf_amp_cond1,3.0.4,60.038935105552675,
slavery,hefurbished,&&&&&&&&&&&,right,loyalty.vice,,,,,,,0,264,264,264,,,,,,,,,,,,,,,,,,,,,AMP,left,0.3670157390879467,,,left,0,0.3670157390879467,0,,,,,,,,,,,,,,,,,,,,,,1003,2019_Mar_01_1458,mf_amp_cond1,3.0.4,60.038935105552675,
emassion,gikely,&&&&&&,None,nonword,,,,,,,0,265,265,265,,,,,,,,,,,,,,,,,,,,,AMP,left,0.2836014237254858,,,left,0,0.2836014237254858,0,,,,,,,,,,,,,,,,,,,,,,1003,2019_Mar_01_1458,mf_amp_cond1,3.0.4,60.038935105552675,
riot,drumbled,&&&&&&&&,right,authority.vice,,,,,,,0,266,266,266,,,,,,,,,,,,,,,,,,,,,AMP,left,0.300317705841735,,,left,0,0.300317705841735,0,,,,,,,,,,,,,,,,,,,,,,1003,2019_Mar_01_1458,mf_amp_cond1,3.0.4,60.038935105552675,
illegal,ugeasily,&&&&&&&&,right,fairness.vice,,,,,,,0,267,267,267,,,,,,,,,,,,,,,,,,,,,AMP,right,0.43397932895459235,,,right,1,0.43397932895459235,1,,,,,,,,,,,,,,,,,,,,,,1003,2019_Mar_01_1458,mf_amp_cond1,3.0.4,60.038935105552675,
promises,baklara,&&&&&&&,left,fairness.virtue,,,,,,,0,268,268,268,,,,,,,,,,,,,,,,,,,,,AMP,right,0.450368155259639,,,right,0,0.450368155259639,0,,,,,,,,,,,,,,,,,,,,,,1003,2019_Mar_01_1458,mf_amp_cond1,3.0.4,60.038935105552675,
army,fornicalion,&&&&&&&&&&&,right,loyalty.vice,,,,,,,0,269,269,269,,,,,,,,,,,,,,,,,,,,,AMP,right,0.4002744727768004,,,right,1,0.4002744727768004,1,,,,,,,,,,,,,,,,,,,,,,1003,2019_Mar_01_1458,mf_amp_cond1,3.0.4,60.038935105552675,
victim,halaise,&&&&&&&,right,care.vice,,,,,,,0,270,270,270,,,,,,,,,,,,,,,,,,,,,AMP,left,0.5170447001000866,,,left,0,0.5170447001000866,0,,,,,,,,,,,,,,,,,,,,,,1003,2019_Mar_01_1458,mf_amp_cond1,3.0.4,60.038935105552675,
trust,prones,&&&&&&,left,authority.virtue,,,,,,,0,271,271,271,,,,,,,,,,,,,,,,,,,,,AMP,left,0.36700130661483854,,,left,1,0.36700130661483854,1,,,,,,,,,,,,,,,,,,,,,,1003,2019_Mar_01_1458,mf_amp_cond1,3.0.4,60.038935105552675,
increase,iptervention,&&&&&&&&&&&&,left,care.virtue,,,,,,,0,272,272,272,,,,,,,,,,,,,,,,,,,,,AMP,right,0.5670886709121987,,,right,0,0.5670886709121987,0,,,,,,,,,,,,,,,,,,,,,,1003,2019_Mar_01_1458,mf_amp_cond1,3.0.4,60.038935105552675,
agreement,godlaness,&&&&&&&&&,left,fairness.virtue,,,,,,,0,273,273,273,,,,,,,,,,,,,,,,,,,,,AMP,right,0.2836565877078101,,,right,0,0.2836565877078101,0,,,,,,,,,,,,,,,,,,,,,,1003,2019_Mar_01_1458,mf_amp_cond1,3.0.4,60.038935105552675,
betrayal,mih,&&&,right,loyalty.vice,,,,,,,0,274,274,274,,,,,,,,,,,,,,,,,,,,,AMP,left,0.6170726669952273,,,left,0,0.6170726669952273,0,,,,,,,,,,,,,,,,,,,,,,1003,2019_Mar_01_1458,mf_amp_cond1,3.0.4,60.038935105552675,
seachwear,sgrawl,&&&&&&,None,nonword,,,,,,,0,275,275,275,,,,,,,,,,,,,,,,,,,,,AMP,left,0.4501994561869651,,,left,0,0.4501994561869651,0,,,,,,,,,,,,,,,,,,,,,,1003,2019_Mar_01_1458,mf_amp_cond1,3.0.4,60.038935105552675,
intelligence,perified,&&&&&&&&,left,loyalty.virtue,,,,,,,0,276,276,276,,,,,,,,,,,,,,,,,,,,,AMP,right,0.3836851960513741,,,right,0,0.3836851960513741,0,,,,,,,,,,,,,,,,,,,,,,1003,2019_Mar_01_1458,mf_amp_cond1,3.0.4,60.038935105552675,
pafer,quarterbocks,&&&&&&&&&&&&,None,nonword,,,,,,,0,277,277,277,,,,,,,,,,,,,,,,,,,,,AMP,right,0.4835470294347033,,,right,0,0.4835470294347033,0,,,,,,,,,,,,,,,,,,,,,,1003,2019_Mar_01_1458,mf_amp_cond1,3.0.4,60.038935105552675,
police,abointment,&&&&&&&&&&,right,authority.vice,,,,,,,0,278,278,278,,,,,,,,,,,,,,,,,,,,,AMP,right,0.1836295829853043,,,right,1,0.1836295829853043,1,,,,,,,,,,,,,,,,,,,,,,1003,2019_Mar_01_1458,mf_amp_cond1,3.0.4,60.038935105552675,
embrace,gazily,&&&&&&,left,authority.virtue,,,,,,,0,279,279,279,,,,,,,,,,,,,,,,,,,,,AMP,left,0.23364340607076883,,,left,1,0.23364340607076883,1,,,,,,,,,,,,,,,,,,,,,,1003,2019_Mar_01_1458,mf_amp_cond1,3.0.4,60.038935105552675,
prison,tislay,&&&&&&,right,fairness.vice,,,,,,,0,280,280,280,,,,,,,,,,,,,,,,,,,,,AMP,left,0.08360995491966605,,,left,0,0.08360995491966605,0,,,,,,,,,,,,,,,,,,,,,,1003,2019_Mar_01_1458,mf_amp_cond1,3.0.4,60.038935105552675,
win,vurtain,&&&&&&&,left,fairness.virtue,,,,,,,0,281,281,281,,,,,,,,,,,,,,,,,,,,,AMP,right,0.06692927272524685,,,right,0,0.06692927272524685,0,,,,,,,,,,,,,,,,,,,,,,1003,2019_Mar_01_1458,mf_amp_cond1,3.0.4,60.038935105552675,
attacks,strofe,&&&&&&,right,care.vice,,,,,,,0,282,282,282,,,,,,,,,,,,,,,,,,,,,AMP,left,0.15028746193274856,,,left,0,0.15028746193274856,0,,,,,,,,,,,,,,,,,,,,,,1003,2019_Mar_01_1458,mf_amp_cond1,3.0.4,60.038935105552675,
metibolic,dramens,&&&&&&&,None,nonword,,,,,,,0,283,283,283,,,,,,,,,,,,,,,,,,,,,AMP,right,0.5669068223796785,,,right,0,0.5669068223796785,0,,,,,,,,,,,,,,,,,,,,,,1003,2019_Mar_01_1458,mf_amp_cond1,3.0.4,60.038935105552675,
baladroit,neutralust,&&&&&&&&&&,None,nonword,,,,,,,0,284,284,284,,,,,,,,,,,,,,,,,,,,,AMP,right,0.08361155854072422,,,right,0,0.08361155854072422,0,,,,,,,,,,,,,,,,,,,,,,1003,2019_Mar_01_1458,mf_amp_cond1,3.0.4,60.038935105552675,
sexual,fegard,&&&&&&,right,sanctity.vice,,,,,,,0,285,285,285,,,,,,,,,,,,,,,,,,,,,AMP,right,0.4836406799731776,,,right,1,0.4836406799731776,1,,,,,,,,,,,,,,,,,,,,,,1003,2019_Mar_01_1458,mf_amp_cond1,3.0.4,60.038935105552675,
juck,allears,&&&&&&&,None,nonword,,,,,,,0,286,286,286,,,,,,,,,,,,,,,,,,,,,AMP,left,0.2336401988286525,,,left,0,0.2336401988286525,0,,,,,,,,,,,,,,,,,,,,,,1003,2019_Mar_01_1458,mf_amp_cond1,3.0.4,60.038935105552675,
suicide,neputized,&&&&&&&&&,right,care.vice,,,,,,,0,287,287,287,,,,,,,,,,,,,,,,,,,,,AMP,left,0.533717685029842,,,left,0,0.533717685029842,0,,,,,,,,,,,,,,,,,,,,,,1003,2019_Mar_01_1458,mf_amp_cond1,3.0.4,60.038935105552675,
free,shoirmaster,&&&&&&&&&&&,left,fairness.virtue,,,,,,,0,288,288,288,,,,,,,,,,,,,,,,,,,,,AMP,right,0.6504212025320157,,,right,0,0.6504212025320157,0,,,,,,,,,,,,,,,,,,,,,,1003,2019_Mar_01_1458,mf_amp_cond1,3.0.4,60.038935105552675,
progress,tracious,&&&&&&&&,left,authority.virtue,,,,,,,0,289,289,289,,,,,,,,,,,,,,,,,,,,,AMP,left,0.36703305796254426,,,left,1,0.36703305796254426,1,,,,,,,,,,,,,,,,,,,,,,1003,2019_Mar_01_1458,mf_amp_cond1,3.0.4,60.038935105552675,
pleasant,framo,&&&&&,None,control,,,,,,,0,290,290,290,,,,,,,,,,,,,,,,,,,,,AMP,left,0.7838114957557991,,,left,0,0.7838114957557991,0,,,,,,,,,,,,,,,,,,,,,,1003,2019_Mar_01_1458,mf_amp_cond1,3.0.4,60.038935105552675,
war,papert,&&&&&&,right,sanctity.vice,,,,,,,0,291,291,291,,,,,,,,,,,,,,,,,,,,,AMP,left,0.8337916431482881,,,left,0,0.8337916431482881,0,,,,,,,,,,,,,,,,,,,,,,1003,2019_Mar_01_1458,mf_amp_cond1,3.0.4,60.038935105552675,
perfect,slending,&&&&&&&&,left,sanctity.virtue,,,,,,,0,292,292,292,,,,,,,,,,,,,,,,,,,,,AMP,right,0.3836864788318053,,,right,0,0.3836864788318053,0,,,,,,,,,,,,,,,,,,,,,,1003,2019_Mar_01_1458,mf_amp_cond1,3.0.4,60.038935105552675,
ronviolence,sliptery,&&&&&&&&,None,nonword,,,,,,,0,293,293,293,,,,,,,,,,,,,,,,,,,,,AMP,left,0.5003672252641991,,,left,0,0.5003672252641991,0,,,,,,,,,,,,,,,,,,,,,,1003,2019_Mar_01_1458,mf_amp_cond1,3.0.4,60.038935105552675,
drug,openet,&&&&&&,right,sanctity.vice,,,,,,,0,294,294,294,,,,,,,,,,,,,,,,,,,,,AMP,left,0.8671305570751429,,,left,0,0.8671305570751429,0,,,,,,,,,,,,,,,,,,,,,,1003,2019_Mar_01_1458,mf_amp_cond1,3.0.4,60.038935105552675,
critics,cromiscuity,&&&&&&&&&&&,right,loyalty.vice,,,,,,,0,295,295,295,,,,,,,,,,,,,,,,,,,,,AMP,right,0.8337913224240765,,,right,1,0.8337913224240765,1,,,,,,,,,,,,,,,,,,,,,,1003,2019_Mar_01_1458,mf_amp_cond1,3.0.4,60.038935105552675,
hope,atson,&&&&&,left,loyalty.virtue,,,,,,,0,296,296,296,,,,,,,,,,,,,,,,,,,,,AMP,right,0.467028632061556,,,right,0,0.467028632061556,0,,,,,,,,,,,,,,,,,,,,,,1003,2019_Mar_01_1458,mf_amp_cond1,3.0.4,60.038935105552675,
respect,fontacts,&&&&&&&&,left,sanctity.virtue,,,,,,,0,297,297,297,,,,,,,,,,,,,,,,,,,,,AMP,right,0.3167107015615329,,,right,0,0.3167107015615329,0,,,,,,,,,,,,,,,,,,,,,,1003,2019_Mar_01_1458,mf_amp_cond1,3.0.4,60.038935105552675,
growth,laming,&&&&&&,left,care.virtue,,,,,,,0,298,298,298,,,,,,,,,,,,,,,,,,,,,AMP,right,0.18362669658381492,,,right,0,0.18362669658381492,0,,,,,,,,,,,,,,,,,,,,,,1003,2019_Mar_01_1458,mf_amp_cond1,3.0.4,60.038935105552675,
terrorist,crilfully,&&&&&&&&&,right,loyalty.vice,,,,,,,0,299,299,299,,,,,,,,,,,,,,,,,,,,,AMP,left,0.20030353008769453,,,left,0,0.20030353008769453,0,,,,,,,,,,,,,,,,,,,,,,1003,2019_Mar_01_1458,mf_amp_cond1,3.0.4,60.038935105552675,
great,Daptist,&&&&&&&,left,loyalty.virtue,,,,,,,0,300,300,300,,,,,,,,,,,,,,,,,,,,,AMP,right,0.5837619765661657,,,right,0,0.5837619765661657,0,,,,,,,,,,,,,,,,,,,,,,1003,2019_Mar_01_1458,mf_amp_cond1,3.0.4,60.038935105552675,
men,divility,&&&&&&&&,right,loyalty.vice,,,,,,,0,301,301,301,,,,,,,,,,,,,,,,,,,,,AMP,right,0.3169608637690544,,,right,1,0.3169608637690544,1,,,,,,,,,,,,,,,,,,,,,,1003,2019_Mar_01_1458,mf_amp_cond1,3.0.4,60.038935105552675,
help,blunderints,&&&&&&&&&&&,left,care.virtue,,,,,,,0,302,302,302,,,,,,,,,,,,,,,,,,,,,AMP,left,0.30032091308385134,,,left,1,0.30032091308385134,1,,,,,,,,,,,,,,,,,,,,,,1003,2019_Mar_01_1458,mf_amp_cond1,3.0.4,60.038935105552675,
strong,bluently,&&&&&&&&,left,loyalty.virtue,,,,,,,0,303,303,303,,,,,,,,,,,,,,,,,,,,,AMP,right,0.5837254143552855,,,right,0,0.5837254143552855,0,,,,,,,,,,,,,,,,,,,,,,1003,2019_Mar_01_1458,mf_amp_cond1,3.0.4,60.038935105552675,
safety,ning,&&&&,left,care.virtue,,,,,,,0,304,304,304,,,,,,,,,,,,,,,,,,,,,AMP,right,0.33369927562307566,,,right,0,0.33369927562307566,0,,,,,,,,,,,,,,,,,,,,,,1003,2019_Mar_01_1458,mf_amp_cond1,3.0.4,60.038935105552675,
conspiracy,disregord,&&&&&&&&&,right,sanctity.vice,,,,,,,0,305,305,305,,,,,,,,,,,,,,,,,,,,,AMP,left,0.5337093462003395,,,left,0,0.5337093462003395,0,,,,,,,,,,,,,,,,,,,,,,1003,2019_Mar_01_1458,mf_amp_cond1,3.0.4,60.038935105552675,
freedom,precificity,&&&&&&&&&&&,left,sanctity.virtue,,,,,,,0,306,306,306,,,,,,,,,,,,,,,,,,,,,AMP,right,0.3336659207707271,,,right,0,0.3336659207707271,0,,,,,,,,,,,,,,,,,,,,,,1003,2019_Mar_01_1458,mf_amp_cond1,3.0.4,60.038935105552675,
party,gondensed,&&&&&&&&&,left,loyalty.virtue,,,,,,,0,307,307,307,,,,,,,,,,,,,,,,,,,,,AMP,right,0.3503449992276728,,,right,0,0.3503449992276728,0,,,,,,,,,,,,,,,,,,,,,,1003,2019_Mar_01_1458,mf_amp_cond1,3.0.4,60.038935105552675,
unpleasant,sowntrodden,&&&&&&&&&&&,None,control,,,,,,,0,308,308,308,,,,,,,,,,,,,,,,,,,,,AMP,right,0.6504218438640237,,,right,0,0.6504218438640237,0,,,,,,,,,,,,,,,,,,,,,,1003,2019_Mar_01_1458,mf_amp_cond1,3.0.4,60.038935105552675,
abuse,reviked,&&&&&&&,right,sanctity.vice,,,,,,,0,309,309,309,,,,,,,,,,,,,,,,,,,,,AMP,right,0.7671256820904091,,,right,1,0.7671256820904091,1,,,,,,,,,,,,,,,,,,,,,,1003,2019_Mar_01_1458,mf_amp_cond1,3.0.4,60.038935105552675,
protesters,nomaric,&&&&&&&,right,authority.vice,,,,,,,0,310,310,310,,,,,,,,,,,,,,,,,,,,,AMP,left,0.36700836243107915,,,left,0,0.36700836243107915,0,,,,,,,,,,,,,,,,,,,,,,1003,2019_Mar_01_1458,mf_amp_cond1,3.0.4,60.038935105552675,
sonvoy,elduringly,&&&&&&&&&&,None,nonword,,,,,,,0,311,311,311,,,,,,,,,,,,,,,,,,,,,AMP,right,0.0834467081585899,,,right,0,0.0834467081585899,0,,,,,,,,,,,,,,,,,,,,,,1003,2019_Mar_01_1458,mf_amp_cond1,3.0.4,60.038935105552675,
death,touls,&&&&&,right,care.vice,,,,,,,0,312,312,312,,,,,,,,,,,,,,,,,,,,,AMP,left,1.0505244103260338,,,left,0,1.0505244103260338,0,,,,,,,,,,,,,,,,,,,,,,1003,2019_Mar_01_1458,mf_amp_cond1,3.0.4,60.038935105552675,
values,tomedians,&&&&&&&&&,left,sanctity.virtue,,,,,,,0,313,313,313,,,,,,,,,,,,,,,,,,,,,AMP,right,0.3503161343978718,,,right,0,0.3503161343978718,0,,,,,,,,,,,,,,,,,,,,,,1003,2019_Mar_01_1458,mf_amp_cond1,3.0.4,60.038935105552675,
terrorists,fangsters,&&&&&&&&&,right,fairness.vice,,,,,,,0,314,314,314,,,,,,,,,,,,,,,,,,,,,AMP,left,0.4170112810097635,,,left,0,0.4170112810097635,0,,,,,,,,,,,,,,,,,,,,,,1003,2019_Mar_01_1458,mf_amp_cond1,3.0.4,60.038935105552675,
killed,imebreaker,&&&&&&&&&&,right,care.vice,,,,,,,0,315,315,315,,,,,,,,,,,,,,,,,,,,,AMP,left,0.4837096348637715,,,left,0,0.4837096348637715,0,,,,,,,,,,,,,,,,,,,,,,1003,2019_Mar_01_1458,mf_amp_cond1,3.0.4,60.038935105552675,
love,totalestic,&&&&&&&&&&,left,loyalty.virtue,,,,,,,0,316,316,316,,,,,,,,,,,,,,,,,,,,,AMP,right,0.16694248642306775,,,right,0,0.16694248642306775,0,,,,,,,,,,,,,,,,,,,,,,1003,2019_Mar_01_1458,mf_amp_cond1,3.0.4,60.038935105552675,
faith,synchronazers,&&&&&&&&&&&&&,left,sanctity.virtue,,,,,,,0,317,317,317,,,,,,,,,,,,,,,,,,,,,AMP,left,0.3504187649814412,,,left,1,0.3504187649814412,1,,,,,,,,,,,,,,,,,,,,,,1003,2019_Mar_01_1458,mf_amp_cond1,3.0.4,60.038935105552675,
crime,ebbitter,&&&&&&&&,right,fairness.vice,,,,,,,0,318,318,318,,,,,,,,,,,,,,,,,,,,,AMP,right,0.533701328211464,,,right,1,0.533701328211464,1,,,,,,,,,,,,,,,,,,,,,,1003,2019_Mar_01_1458,mf_amp_cond1,3.0.4,60.038935105552675,
tove,ittutable,&&&&&&&&&,None,nonword,,,,,,,0,319,319,319,,,,,,,,,,,,,,,,,,,,,AMP,right,0.48375966725870967,,,right,0,0.48375966725870967,0,,,,,,,,,,,,,,,,,,,,,,1003,2019_Mar_01_1458,mf_amp_cond1,3.0.4,60.038935105552675,
ensure,sidearbs,&&&&&&&&,left,fairness.virtue,,,,,,,0,320,320,320,,,,,,,,,,,,,,,,,,,,,AMP,right,0.23364084027707577,,,right,0,0.23364084027707577,0,,,,,,,,,,,,,,,,,,,,,,1003,2019_Mar_01_1458,mf_amp_cond1,3.0.4,60.038935105552675,
threatened,uller,&&&&&,right,fairness.vice,,,,,,,0,321,321,321,,,,,,,,,,,,,,,,,,,,,AMP,right,0.43356335419230163,,,right,1,0.43356335419230163,1,,,,,,,,,,,,,,,,,,,,,,1003,2019_Mar_01_1458,mf_amp_cond1,3.0.4,60.038935105552675,
pharing,asn,&&&,None,nonword,,,,,,,0,322,322,322,,,,,,,,,,,,,,,,,,,,,AMP,right,0.46702734916470945,,,right,0,0.46702734916470945,0,,,,,,,,,,,,,,,,,,,,,,1003,2019_Mar_01_1458,mf_amp_cond1,3.0.4,60.038935105552675,
troops,scalbel,&&&&&&&,right,loyalty.vice,,,,,,,0,323,323,323,,,,,,,,,,,,,,,,,,,,,AMP,right,0.48371284210588783,,,right,1,0.48371284210588783,1,,,,,,,,,,,,,,,,,,,,,,1003,2019_Mar_01_1458,mf_amp_cond1,3.0.4,60.038935105552675,
ability,faspberry,&&&&&&&&&,left,authority.virtue,,,,,,,0,324,324,324,,,,,,,,,,,,,,,,,,,,,AMP,right,0.33366752427536994,,,right,0,0.33366752427536994,0,,,,,,,,,,,,,,,,,,,,,,1003,2019_Mar_01_1458,mf_amp_cond1,3.0.4,60.038935105552675,
strength,taxpayung,&&&&&&&&&,left,sanctity.virtue,,,,,,,0,325,325,325,,,,,,,,,,,,,,,,,,,,,AMP,right,0.10029544786084443,,,right,0,0.10029544786084443,0,,,,,,,,,,,,,,,,,,,,,,1003,2019_Mar_01_1458,mf_amp_cond1,3.0.4,60.038935105552675,
charges,unscothed,&&&&&&&&&,right,fairness.vice,,,,,,,0,326,326,326,,,,,,,,,,,,,,,,,,,,,AMP,right,0.11694630305282772,,,right,1,0.11694630305282772,1,,,,,,,,,,,,,,,,,,,,,,1003,2019_Mar_01_1458,mf_amp_cond1,3.0.4,60.038935105552675,
promote,suggists,&&&&&&&&,left,sanctity.virtue,,,,,,,0,327,327,327,,,,,,,,,,,,,,,,,,,,,AMP,right,0.1002774874214083,,,right,0,0.1002774874214083,0,,,,,,,,,,,,,,,,,,,,,,1003,2019_Mar_01_1458,mf_amp_cond1,3.0.4,60.038935105552675,
,,,,,,,,,,,,,,,,,,,,,,,,,,,,,,,,,,,,,,,,,,,,3,9.538,,,,,,,,,,,,,,,,,,,,1003,2019_Mar_01_1458,mf_amp_cond1,3.0.4,60.038935105552675,
,,,,,,,,,,,,,,,,,,,,,,,,,,,,,,,,,,,,,,,,,,,,,,5,3.503,,,,,,,,,,,,,,,,,,1003,2019_Mar_01_1458,mf_amp_cond1,3.0.4,60.038935105552675,
,,,,,,,,,,,,,,,,,,,,,,,,,,,,,,,,,,,,,,,,,,,,,,,,6,5.537,,,,,,,,,,,,,,,,1003,2019_Mar_01_1458,mf_amp_cond1,3.0.4,60.038935105552675,
,,,,,,,,,,,,,,,,,,,,,,,,,,,,,,,,,,,,,,,,,,,,,,,,,,right,1.3339526449562982,,,,,,,,,,,,,,1003,2019_Mar_01_1458,mf_amp_cond1,3.0.4,60.038935105552675,
keyboard,,&&&&&&&,,,,,,,,,,,,,0,0,0,0,,,,,,,,,,,,,,,,,LDT_prac,right,1.050554237444885,,,,,,0,,,,,,,,,right,1.050554237444885,,,,,,,,,,,,1003,2019_Mar_01_1458,mf_amp_cond1,3.0.4,60.038935105552675,
bisebell,,&&&&&&&,,,,,,,,,,,,,0,1,1,1,,,,,,,,,,,,,,,,,LDT_prac,left,0.8171443159226328,,,,,,0,,,,,,,,,left,0.8171443159226328,,,,,,,,,,,,1003,2019_Mar_01_1458,mf_amp_cond1,3.0.4,60.038935105552675,
,,,,,,,,,,,,,,,,,,,,,,,,,,,,,,,,,,,,,,,,,,,,,,,,,,,,,,right,2.134057071642019,,,,,,,,,,1003,2019_Mar_01_1458,mf_amp_cond1,3.0.4,60.038935105552675,
ilportation,,&&&&&&&&&&&,right,nonword,,,,,,,,,,,,,,,0,0,0,67,,,,,,,,,,,,,LDT,right,0.86706480931025,,,,,,1,,,,,,,,,,,,,right,1,0.86706480931025,,,,,,,1003,2019_Mar_01_1458,mf_amp_cond1,3.0.4,60.038935105552675,
loyalty,,&&&&&&&,left,loyalty.virtue,,,,,,,,,,,,,,,0,1,1,58,,,,,,,,,,,,,LDT,right,0.583081086515449,,,,,,0,,,,,,,,,,,,,right,0,0.583081086515449,,,,,,,1003,2019_Mar_01_1458,mf_amp_cond1,3.0.4,60.038935105552675,
clattening,,&&&&&&&&&&,right,nonword,,,,,,,,,,,,,,,0,2,2,29,,,,,,,,,,,,,LDT,right,0.7004584381356835,,,,,,1,,,,,,,,,,,,,right,1,0.7004584381356835,,,,,,,1003,2019_Mar_01_1458,mf_amp_cond1,3.0.4,60.038935105552675,
Boeinf,,&&&&&&,right,nonword,,,,,,,,,,,,,,,0,3,3,199,,,,,,,,,,,,,LDT,left,0.46704402670729905,,,,,,0,,,,,,,,,,,,,left,0,0.46704402670729905,,,,,,,1003,2019_Mar_01_1458,mf_amp_cond1,3.0.4,60.038935105552675,
ecgagement,,&&&&&&&&&&,None,nonword,,,,,,,,,,,,,,,0,4,4,80,,,,,,,,,,,,,LDT,right,0.583736639469862,,,,,,0,,,,,,,,,,,,,right,0,0.583736639469862,,,,,,,1003,2019_Mar_01_1458,mf_amp_cond1,3.0.4,60.038935105552675,
encourage,,&&&&&&&&&,left,authority.virtue,,,,,,,,,,,,,,,0,5,5,10,,,,,,,,,,,,,LDT,right,0.500362093676813,,,,,,0,,,,,,,,,,,,,right,0,0.500362093676813,,,,,,,1003,2019_Mar_01_1458,mf_amp_cond1,3.0.4,60.038935105552675,
gowlands,,&&&&&&&&,right,nonword,,,,,,,,,,,,,,,0,6,6,143,,,,,,,,,,,,,LDT,left,0.5837222071131691,,,,,,0,,,,,,,,,,,,,left,0,0.5837222071131691,,,,,,,1003,2019_Mar_01_1458,mf_amp_cond1,3.0.4,60.038935105552675,
amount,,&&&&&&,left,neutral,,,,,,,,,,,,,,,0,7,7,132,,,,,,,,,,,,,LDT,right,0.5336987624177709,,,,,,0,,,,,,,,,,,,,right,0,0.5336987624177709,,,,,,,1003,2019_Mar_01_1458,mf_amp_cond1,3.0.4,60.038935105552675,
erks,,&&&&,right,nonword,,,,,,,,,,,,,,,0,8,8,111,,,,,,,,,,,,,LDT,left,0.5837533170124516,,,,,,0,,,,,,,,,,,,,left,0,0.5837533170124516,,,,,,,1003,2019_Mar_01_1458,mf_amp_cond1,3.0.4,60.038935105552675,
credit,,&&&&&&,left,fairness.virtue,,,,,,,,,,,,,,,0,9,9,179,,,,,,,,,,,,,LDT,right,0.6337636121315882,,,,,,0,,,,,,,,,,,,,right,0,0.6337636121315882,,,,,,,1003,2019_Mar_01_1458,mf_amp_cond1,3.0.4,60.038935105552675,
thru,,&&&&,left,neutral,,,,,,,,,,,,,,,0,10,10,33,,,,,,,,,,,,,LDT,left,0.48370418266858906,,,,,,1,,,,,,,,,,,,,left,1,0.48370418266858906,,,,,,,1003,2019_Mar_01_1458,mf_amp_cond1,3.0.4,60.038935105552675,
nonobservalt,,&&&&&&&&&&&&,right,nonword,,,,,,,,,,,,,,,0,11,11,54,,,,,,,,,,,,,LDT,right,0.6504131844267249,,,,,,1,,,,,,,,,,,,,right,1,0.6504131844267249,,,,,,,1003,2019_Mar_01_1458,mf_amp_cond1,3.0.4,60.038935105552675,
bruthfulness,,&&&&&&&&&&&&,right,nonword,,,,,,,,,,,,,,,0,12,12,171,,,,,,,,,,,,,LDT,left,0.7337688078405336,,,,,,0,,,,,,,,,,,,,left,0,0.7337688078405336,,,,,,,1003,2019_Mar_01_1458,mf_amp_cond1,3.0.4,60.038935105552675,
shoirmaster,,&&&&&&&&&&&,right,nonword,,,,,,,,,,,,,,,0,13,13,100,,,,,,,,,,,,,LDT,left,0.700466456124559,,,,,,0,,,,,,,,,,,,,left,0,0.700466456124559,,,,,,,1003,2019_Mar_01_1458,mf_amp_cond1,3.0.4,60.038935105552675,
voter,,&&&&&,left,fairness.vice,,,,,,,,,,,,,,,0,14,14,180,,,,,,,,,,,,,LDT,right,0.700435025501065,,,,,,0,,,,,,,,,,,,,right,0,0.700435025501065,,,,,,,1003,2019_Mar_01_1458,mf_amp_cond1,3.0.4,60.038935105552675,
pulge,,&&&&&,right,nonword,,,,,,,,,,,,,,,0,15,15,2,,,,,,,,,,,,,LDT,right,0.6003817217424512,,,,,,1,,,,,,,,,,,,,right,1,0.6003817217424512,,,,,,,1003,2019_Mar_01_1458,mf_amp_cond1,3.0.4,60.038935105552675,
forepo,,&&&&&&,right,nonword,,,,,,,,,,,,,,,0,16,16,187,,,,,,,,,,,,,LDT,left,0.5670543537707999,,,,,,0,,,,,,,,,,,,,left,0,0.5670543537707999,,,,,,,1003,2019_Mar_01_1458,mf_amp_cond1,3.0.4,60.038935105552675,
mecan,,&&&&&,right,nonword,,,,,,,,,,,,,,,0,17,17,8,,,,,,,,,,,,,LDT,left,0.5003826197935268,,,,,,0,,,,,,,,,,,,,left,0,0.5003826197935268,,,,,,,1003,2019_Mar_01_1458,mf_amp_cond1,3.0.4,60.038935105552675,
reprisols,,&&&&&&&&&,right,nonword,,,,,,,,,,,,,,,0,18,18,148,,,,,,,,,,,,,LDT,left,0.4836926367133856,,,,,,0,,,,,,,,,,,,,left,0,0.4836926367133856,,,,,,,1003,2019_Mar_01_1458,mf_amp_cond1,3.0.4,60.038935105552675,
three,,&&&&&,left,neutral,,,,,,,,,,,,,,,0,19,19,60,,,,,,,,,,,,,LDT,left,0.7338313483633101,,,,,,1,,,,,,,,,,,,,left,1,0.7338313483633101,,,,,,,1003,2019_Mar_01_1458,mf_amp_cond1,3.0.4,60.038935105552675,
lursuer,,&&&&&&&,right,nonword,,,,,,,,,,,,,,,0,20,20,146,,,,,,,,,,,,,LDT,right,0.950510555296205,,,,,,1,,,,,,,,,,,,,right,1,0.950510555296205,,,,,,,1003,2019_Mar_01_1458,mf_amp_cond1,3.0.4,60.038935105552675,
photocalkodes,,&&&&&&&&&&&&&,right,nonword,,,,,,,,,,,,,,,0,21,21,166,,,,,,,,,,,,,LDT,right,0.5670742385555059,,,,,,1,,,,,,,,,,,,,right,1,0.5670742385555059,,,,,,,1003,2019_Mar_01_1458,mf_amp_cond1,3.0.4,60.038935105552675,
ban,,&&&,left,loyalty.vice,,,,,,,,,,,,,,,0,22,22,116,,,,,,,,,,,,,LDT,left,0.917154643102549,,,,,,1,,,,,,,,,,,,,left,1,0.917154643102549,,,,,,,1003,2019_Mar_01_1458,mf_amp_cond1,3.0.4,60.038935105552675,
hate,,&&&&,left,fairness.vice,,,,,,,,,,,,,,,0,23,23,145,,,,,,,,,,,,,LDT,right,0.5670617303112522,,,,,,0,,,,,,,,,,,,,right,0,0.5670617303112522,,,,,,,1003,2019_Mar_01_1458,mf_amp_cond1,3.0.4,60.038935105552675,
there,,&&&&&,left,neutral,,,,,,,,,,,,,,,0,24,24,150,,,,,,,,,,,,,LDT,right,1.1505466041853651,,,,,,0,,,,,,,,,,,,,right,0,1.1505466041853651,,,,,,,1003,2019_Mar_01_1458,mf_amp_cond1,3.0.4,60.038935105552675,
eight,,&&&&&,left,neutral,,,,,,,,,,,,,,,0,25,25,94,,,,,,,,,,,,,LDT,right,0.5670591646339744,,,,,,0,,,,,,,,,,,,,right,0,0.5670591646339744,,,,,,,1003,2019_Mar_01_1458,mf_amp_cond1,3.0.4,60.038935105552675,
yane,,&&&&,right,nonword,,,,,,,,,,,,,,,0,26,26,176,,,,,,,,,,,,,LDT,left,0.6168164111441001,,,,,,0,,,,,,,,,,,,,left,0,0.6168164111441001,,,,,,,1003,2019_Mar_01_1458,mf_amp_cond1,3.0.4,60.038935105552675,
epigrach,,&&&&&&&&,right,nonword,,,,,,,,,,,,,,,0,27,27,3,,,,,,,,,,,,,LDT,right,0.5670880294637755,,,,,,1,,,,,,,,,,,,,right,1,0.5670880294637755,,,,,,,1003,2019_Mar_01_1458,mf_amp_cond1,3.0.4,60.038935105552675,
thabbily,,&&&&&&&&,right,nonword,,,,,,,,,,,,,,,0,28,28,49,,,,,,,,,,,,,LDT,left,0.8336393007775769,,,,,,0,,,,,,,,,,,,,left,0,0.8336393007775769,,,,,,,1003,2019_Mar_01_1458,mf_amp_cond1,3.0.4,60.038935105552675,
whereafter,,&&&&&&&&&&,left,neutral,,,,,,,,,,,,,,,0,29,29,61,,,,,,,,,,,,,LDT,right,0.6004240568727255,,,,,,0,,,,,,,,,,,,,right,0,0.6004240568727255,,,,,,,1003,2019_Mar_01_1458,mf_amp_cond1,3.0.4,60.038935105552675,
mostly,,&&&&&&,left,neutral,,,,,,,,,,,,,,,0,30,30,12,,,,,,,,,,,,,LDT,right,0.6004263018257916,,,,,,0,,,,,,,,,,,,,right,0,0.6004263018257916,,,,,,,1003,2019_Mar_01_1458,mf_amp_cond1,3.0.4,60.038935105552675,
mightingale,,&&&&&&&&&&&,right,nonword,,,,,,,,,,,,,,,0,31,31,177,,,,,,,,,,,,,LDT,right,0.8171215448528528,,,,,,1,,,,,,,,,,,,,right,1,0.8171215448528528,,,,,,,1003,2019_Mar_01_1458,mf_amp_cond1,3.0.4,60.038935105552675,
fair,,&&&&,left,fairness.virtue,,,,,,,,,,,,,,,0,32,32,56,,,,,,,,,,,,,LDT,left,0.43370062264148146,,,,,,1,,,,,,,,,,,,,left,1,0.43370062264148146,,,,,,,1003,2019_Mar_01_1458,mf_amp_cond1,3.0.4,60.038935105552675,
nomparisons,,&&&&&&&&&&&,right,nonword,,,,,,,,,,,,,,,0,33,33,98,,,,,,,,,,,,,LDT,right,1.200549843488261,,,,,,1,,,,,,,,,,,,,right,1,1.200549843488261,,,,,,,1003,2019_Mar_01_1458,mf_amp_cond1,3.0.4,60.038935105552675,
least,,&&&&&,left,neutral,,,,,,,,,,,,,,,0,34,34,118,,,,,,,,,,,,,LDT,right,1.0006026341579854,,,,,,0,,,,,,,,,,,,,right,0,1.0006026341579854,,,,,,,1003,2019_Mar_01_1458,mf_amp_cond1,3.0.4,60.038935105552675,
also,,&&&&,left,neutral,,,,,,,,,,,,,,,0,35,35,154,,,,,,,,,,,,,LDT,left,0.9004797340603545,,,,,,1,,,,,,,,,,,,,left,1,0.9004797340603545,,,,,,,1003,2019_Mar_01_1458,mf_amp_cond1,3.0.4,60.038935105552675,
bycled,,&&&&&&,None,nonword,,,,,,,,,,,,,,,0,36,36,35,,,,,,,,,,,,,LDT,right,0.6337610464543104,,,,,,0,,,,,,,,,,,,,right,0,0.6337610464543104,,,,,,,1003,2019_Mar_01_1458,mf_amp_cond1,3.0.4,60.038935105552675,
were,,&&&&,left,neutral,,,,,,,,,,,,,,,0,37,37,37,,,,,,,,,,,,,LDT,right,0.6171576579799876,,,,,,0,,,,,,,,,,,,,right,0,0.6171576579799876,,,,,,,1003,2019_Mar_01_1458,mf_amp_cond1,3.0.4,60.038935105552675,
honored,,&&&&&&&,left,authority.virtue,,,,,,,,,,,,,,,0,38,38,32,,,,,,,,,,,,,LDT,right,0.6005026334896684,,,,,,0,,,,,,,,,,,,,right,0,0.6005026334896684,,,,,,,1003,2019_Mar_01_1458,mf_amp_cond1,3.0.4,60.038935105552675,
leact,,&&&&&,right,nonword,,,,,,,,,,,,,,,0,39,39,112,,,,,,,,,,,,,LDT,left,1.4172976845875382,,,,,,0,,,,,,,,,,,,,left,0,1.4172976845875382,,,,,,,1003,2019_Mar_01_1458,mf_amp_cond1,3.0.4,60.038935105552675,
brotesque,,&&&&&&&&&,right,nonword,,,,,,,,,,,,,,,0,40,40,161,,,,,,,,,,,,,LDT,left,0.7838166272267699,,,,,,0,,,,,,,,,,,,,left,0,0.7838166272267699,,,,,,,1003,2019_Mar_01_1458,mf_amp_cond1,3.0.4,60.038935105552675,
squets,,&&&&&&,right,nonword,,,,,,,,,,,,,,,0,41,41,16,,,,,,,,,,,,,LDT,left,0.6837774352170527,,,,,,0,,,,,,,,,,,,,left,0,0.6837774352170527,,,,,,,1003,2019_Mar_01_1458,mf_amp_cond1,3.0.4,60.038935105552675,
care,,&&&&,left,care.virtue,,,,,,,,,,,,,,,0,42,42,169,,,,,,,,,,,,,LDT,right,0.5503865004284307,,,,,,0,,,,,,,,,,,,,right,0,0.5503865004284307,,,,,,,1003,2019_Mar_01_1458,mf_amp_cond1,3.0.4,60.038935105552675,
dumid,,&&&&&,right,nonword,,,,,,,,,,,,,,,0,43,43,81,,,,,,,,,,,,,LDT,right,1.2839041840052232,,,,,,1,,,,,,,,,,,,,right,1,1.2839041840052232,,,,,,,1003,2019_Mar_01_1458,mf_amp_cond1,3.0.4,60.038935105552675,
noone,,&&&&&,left,neutral,,,,,,,,,,,,,,,0,44,44,84,,,,,,,,,,,,,LDT,right,0.6504067700589076,,,,,,0,,,,,,,,,,,,,right,0,0.6504067700589076,,,,,,,1003,2019_Mar_01_1458,mf_amp_cond1,3.0.4,60.038935105552675,
lenon,,&&&&&,right,nonword,,,,,,,,,,,,,,,0,45,45,158,,,,,,,,,,,,,LDT,left,0.6337571977637708,,,,,,0,,,,,,,,,,,,,left,0,0.6337571977637708,,,,,,,1003,2019_Mar_01_1458,mf_amp_cond1,3.0.4,60.038935105552675,
been,,&&&&,left,neutral,,,,,,,,,,,,,,,0,46,46,126,,,,,,,,,,,,,LDT,right,0.7837868003407493,,,,,,0,,,,,,,,,,,,,right,0,0.7837868003407493,,,,,,,1003,2019_Mar_01_1458,mf_amp_cond1,3.0.4,60.038935105552675,
ejanulated,,&&&&&&&&&&,right,nonword,,,,,,,,,,,,,,,0,47,47,131,,,,,,,,,,,,,LDT,right,1.000506738666445,,,,,,1,,,,,,,,,,,,,right,1,1.000506738666445,,,,,,,1003,2019_Mar_01_1458,mf_amp_cond1,3.0.4,60.038935105552675,
focomotive,,&&&&&&&&&&,right,nonword,,,,,,,,,,,,,,,0,48,48,86,,,,,,,,,,,,,LDT,left,1.5173327072989196,,,,,,0,,,,,,,,,,,,,left,0,1.5173327072989196,,,,,,,1003,2019_Mar_01_1458,mf_amp_cond1,3.0.4,60.038935105552675,
whither,,&&&&&&&,left,neutral,,,,,,,,,,,,,,,0,49,49,53,,,,,,,,,,,,,LDT,left,0.9338183271465823,,,,,,1,,,,,,,,,,,,,left,1,0.9338183271465823,,,,,,,1003,2019_Mar_01_1458,mf_amp_cond1,3.0.4,60.038935105552675,
protect,,&&&&&&&,left,fairness.virtue,,,,,,,,,,,,,,,0,50,50,74,,,,,,,,,,,,,LDT,right,0.6671018846100196,,,,,,0,,,,,,,,,,,,,right,0,0.6671018846100196,,,,,,,1003,2019_Mar_01_1458,mf_amp_cond1,3.0.4,60.038935105552675,
chared,,&&&&&&,right,nonword,,,,,,,,,,,,,,,0,51,51,139,,,,,,,,,,,,,LDT,right,0.5004365008790046,,,,,,1,,,,,,,,,,,,,right,1,0.5004365008790046,,,,,,,1003,2019_Mar_01_1458,mf_amp_cond1,3.0.4,60.038935105552675,
rivernoat,,&&&&&&&&&,right,nonword,,,,,,,,,,,,,,,0,52,52,65,,,,,,,,,,,,,LDT,left,0.917151435976848,,,,,,0,,,,,,,,,,,,,left,0,0.917151435976848,,,,,,,1003,2019_Mar_01_1458,mf_amp_cond1,3.0.4,60.038935105552675,
towards,,&&&&&&&,left,neutral,,,,,,,,,,,,,,,0,53,53,24,,,,,,,,,,,,,LDT,right,0.5171261632349342,,,,,,0,,,,,,,,,,,,,right,0,0.5171261632349342,,,,,,,1003,2019_Mar_01_1458,mf_amp_cond1,3.0.4,60.038935105552675,
pescinded,,&&&&&&&&&,right,nonword,,,,,,,,,,,,,,,0,54,54,79,,,,,,,,,,,,,LDT,right,0.9004803753923625,,,,,,1,,,,,,,,,,,,,right,1,0.9004803753923625,,,,,,,1003,2019_Mar_01_1458,mf_amp_cond1,3.0.4,60.038935105552675,
less,,&&&&,left,neutral,,,,,,,,,,,,,,,0,55,55,21,,,,,,,,,,,,,LDT,right,0.7004449678352103,,,,,,0,,,,,,,,,,,,,right,0,0.7004449678352103,,,,,,,1003,2019_Mar_01_1458,mf_amp_cond1,3.0.4,60.038935105552675,
blamed,,&&&&&&,left,loyalty.vice,,,,,,,,,,,,,,,0,56,56,13,,,,,,,,,,,,,LDT,right,1.0671714168274775,,,,,,0,,,,,,,,,,,,,right,0,1.0671714168274775,,,,,,,1003,2019_Mar_01_1458,mf_amp_cond1,3.0.4,60.038935105552675,
hatigue,,&&&&&&&,right,nonword,,,,,,,,,,,,,,,0,57,57,1,,,,,,,,,,,,,LDT,right,0.9338619450572878,,,,,,1,,,,,,,,,,,,,right,1,0.9338619450572878,,,,,,,1003,2019_Mar_01_1458,mf_amp_cond1,3.0.4,60.038935105552675,
chressing,,&&&&&&&&&,None,nonword,,,,,,,,,,,,,,,0,58,58,120,,,,,,,,,,,,,LDT,left,0.9004726781276986,,,,,,0,,,,,,,,,,,,,left,0,0.9004726781276986,,,,,,,1003,2019_Mar_01_1458,mf_amp_cond1,3.0.4,60.038935105552675,
give,,&&&&,left,neutral,,,,,,,,,,,,,,,0,59,59,129,,,,,,,,,,,,,LDT,right,0.7171051239129156,,,,,,0,,,,,,,,,,,,,right,0,0.7171051239129156,,,,,,,1003,2019_Mar_01_1458,mf_amp_cond1,3.0.4,60.038935105552675,
friends,,&&&&&&&,left,loyalty.virtue,,,,,,,,,,,,,,,0,60,60,185,,,,,,,,,,,,,LDT,right,0.6670871315291151,,,,,,0,,,,,,,,,,,,,right,0,0.6670871315291151,,,,,,,1003,2019_Mar_01_1458,mf_amp_cond1,3.0.4,60.038935105552675,
interests,,&&&&&&&&&,left,fairness.virtue,,,,,,,,,,,,,,,0,61,61,68,,,,,,,,,,,,,LDT,right,0.6004285470116884,,,,,,0,,,,,,,,,,,,,right,0,0.6004285470116884,,,,,,,1003,2019_Mar_01_1458,mf_amp_cond1,3.0.4,60.038935105552675,
penalty,,&&&&&&&,left,authority.vice,,,,,,,,,,,,,,,0,62,62,136,,,,,,,,,,,,,LDT,right,0.9838401682209224,,,,,,0,,,,,,,,,,,,,right,0,0.9838401682209224,,,,,,,1003,2019_Mar_01_1458,mf_amp_cond1,3.0.4,60.038935105552675,
edancipation,,&&&&&&&&&&&&,None,nonword,,,,,,,,,,,,,,,0,63,63,189,,,,,,,,,,,,,LDT,right,0.9004832619102672,,,,,,0,,,,,,,,,,,,,right,0,0.9004832619102672,,,,,,,1003,2019_Mar_01_1458,mf_amp_cond1,3.0.4,60.038935105552675,
hence,,&&&&&,left,neutral,,,,,,,,,,,,,,,0,64,64,69,,,,,,,,,,,,,LDT,right,0.7504385855281726,,,,,,0,,,,,,,,,,,,,right,0,0.7504385855281726,,,,,,,1003,2019_Mar_01_1458,mf_amp_cond1,3.0.4,60.038935105552675,
scandal,,&&&&&&&,left,sanctity.vice,,,,,,,,,,,,,,,0,65,65,77,,,,,,,,,,,,,LDT,right,0.6004025685833767,,,,,,0,,,,,,,,,,,,,right,0,0.6004025685833767,,,,,,,1003,2019_Mar_01_1458,mf_amp_cond1,3.0.4,60.038935105552675,
with,,&&&&,left,neutral,,,,,,,,,,,,,,,0,66,66,46,,,,,,,,,,,,,LDT,right,0.7171423274558038,,,,,,0,,,,,,,,,,,,,right,0,0.7171423274558038,,,,,,,1003,2019_Mar_01_1458,mf_amp_cond1,3.0.4,60.038935105552675,
reelectiob,,&&&&&&&&&&,right,nonword,,,,,,,,,,,,,,,0,67,67,191,,,,,,,,,,,,,LDT,right,1.3339305152185261,,,,,,1,,,,,,,,,,,,,right,1,1.3339305152185261,,,,,,,1003,2019_Mar_01_1458,mf_amp_cond1,3.0.4,60.038935105552675,
alar,,&&&&,right,nonword,,,,,,,,,,,,,,,0,68,68,52,,,,,,,,,,,,,LDT,left,0.5170562460552901,,,,,,0,,,,,,,,,,,,,left,0,0.5170562460552901,,,,,,,1003,2019_Mar_01_1458,mf_amp_cond1,3.0.4,60.038935105552675,
else,,&&&&,left,neutral,,,,,,,,,,,,,,,0,69,69,106,,,,,,,,,,,,,LDT,right,1.283909636316821,,,,,,0,,,,,,,,,,,,,right,0,1.283909636316821,,,,,,,1003,2019_Mar_01_1458,mf_amp_cond1,3.0.4,60.038935105552675,
fraud,,&&&&&,left,fairness.vice,,,,,,,,,,,,,,,0,70,70,0,,,,,,,,,,,,,LDT,right,0.717091974336654,,,,,,0,,,,,,,,,,,,,right,0,0.717091974336654,,,,,,,1003,2019_Mar_01_1458,mf_amp_cond1,3.0.4,60.038935105552675,
promised,,&&&&&&&&,left,loyalty.virtue,,,,,,,,,,,,,,,0,71,71,30,,,,,,,,,,,,,LDT,right,0.5671213844325393,,,,,,0,,,,,,,,,,,,,right,0,0.5671213844325393,,,,,,,1003,2019_Mar_01_1458,mf_amp_cond1,3.0.4,60.038935105552675,
coom,,&&&&,right,nonword,,,,,,,,,,,,,,,0,72,72,78,,,,,,,,,,,,,LDT,left,1.450617996742949,,,,,,0,,,,,,,,,,,,,left,0,1.450617996742949,,,,,,,1003,2019_Mar_01_1458,mf_amp_cond1,3.0.4,60.038935105552675,
itself,,&&&&&&,left,neutral,,,,,,,,,,,,,,,0,73,73,66,,,,,,,,,,,,,LDT,right,1.5506440391764045,,,,,,0,,,,,,,,,,,,,right,0,1.5506440391764045,,,,,,,1003,2019_Mar_01_1458,mf_amp_cond1,3.0.4,60.038935105552675,
about,,&&&&&,left,neutral,,,,,,,,,,,,,,,0,74,74,19,,,,,,,,,,,,,LDT,right,0.6337405202211812,,,,,,0,,,,,,,,,,,,,right,0,0.6337405202211812,,,,,,,1003,2019_Mar_01_1458,mf_amp_cond1,3.0.4,60.038935105552675,
could,,&&&&&,left,neutral,,,,,,,,,,,,,,,0,75,75,102,,,,,,,,,,,,,LDT,right,0.70035003463272,,,,,,0,,,,,,,,,,,,,right,0,0.70035003463272,,,,,,,1003,2019_Mar_01_1458,mf_amp_cond1,3.0.4,60.038935105552675,
clean,,&&&&&,left,sanctity.virtue,,,,,,,,,,,,,,,0,76,76,41,,,,,,,,,,,,,LDT,right,0.5504432680318132,,,,,,0,,,,,,,,,,,,,right,0,0.5504432680318132,,,,,,,1003,2019_Mar_01_1458,mf_amp_cond1,3.0.4,60.038935105552675,
fifty,,&&&&&,left,neutral,,,,,,,,,,,,,,,0,77,77,159,,,,,,,,,,,,,LDT,right,1.0505138265434653,,,,,,0,,,,,,,,,,,,,right,0,1.0505138265434653,,,,,,,1003,2019_Mar_01_1458,mf_amp_cond1,3.0.4,60.038935105552675,
gandbrake,,&&&&&&&&&,right,nonword,,,,,,,,,,,,,,,0,78,78,153,,,,,,,,,,,,,LDT,left,1.4506228073732927,,,,,,0,,,,,,,,,,,,,left,0,1.4506228073732927,,,,,,,1003,2019_Mar_01_1458,mf_amp_cond1,3.0.4,60.038935105552675,
Cunday,,&&&&&&,None,nonword,,,,,,,,,,,,,,,0,79,79,178,,,,,,,,,,,,,LDT,left,0.7004279696848243,,,,,,0,,,,,,,,,,,,,left,0,0.7004279696848243,,,,,,,1003,2019_Mar_01_1458,mf_amp_cond1,3.0.4,60.038935105552675,
serial,,&&&&&&,left,sanctity.vice,,,,,,,,,,,,,,,0,80,80,45,,,,,,,,,,,,,LDT,right,0.667156086419709,,,,,,0,,,,,,,,,,,,,right,0,0.667156086419709,,,,,,,1003,2019_Mar_01_1458,mf_amp_cond1,3.0.4,60.038935105552675,
viscs,,&&&&&,None,nonword,,,,,,,,,,,,,,,0,81,81,92,,,,,,,,,,,,,LDT,right,0.850388296530582,,,,,,0,,,,,,,,,,,,,right,0,0.850388296530582,,,,,,,1003,2019_Mar_01_1458,mf_amp_cond1,3.0.4,60.038935105552675,
gusinesslike,,&&&&&&&&&&&&,right,nonword,,,,,,,,,,,,,,,0,82,82,195,,,,,,,,,,,,,LDT,right,1.0338514255126938,,,,,,1,,,,,,,,,,,,,right,1,1.0338514255126938,,,,,,,1003,2019_Mar_01_1458,mf_amp_cond1,3.0.4,60.038935105552675,
wherever,,&&&&&&&&,left,neutral,,,,,,,,,,,,,,,0,83,83,119,,,,,,,,,,,,,LDT,left,1.0838828883133829,,,,,,1,,,,,,,,,,,,,left,1,1.0838828883133829,,,,,,,1003,2019_Mar_01_1458,mf_amp_cond1,3.0.4,60.038935105552675,
hereby,,&&&&&&,left,neutral,,,,,,,,,,,,,,,0,84,84,40,,,,,,,,,,,,,LDT,right,0.6004529217025265,,,,,,0,,,,,,,,,,,,,right,0,0.6004529217025265,,,,,,,1003,2019_Mar_01_1458,mf_amp_cond1,3.0.4,60.038935105552675,
Oregoniuns,,&&&&&&&&&&,right,nonword,,,,,,,,,,,,,,,0,85,85,71,,,,,,,,,,,,,LDT,right,0.7337832403136417,,,,,,1,,,,,,,,,,,,,right,1,0.7337832403136417,,,,,,,1003,2019_Mar_01_1458,mf_amp_cond1,3.0.4,60.038935105552675,
infet,,&&&&&,right,nonword,,,,,,,,,,,,,,,0,86,86,87,,,,,,,,,,,,,LDT,right,1.0005538845434785,,,,,,1,,,,,,,,,,,,,right,1,1.0005538845434785,,,,,,,1003,2019_Mar_01_1458,mf_amp_cond1,3.0.4,60.038935105552675,
pistraught,,&&&&&&&&&&,right,nonword,,,,,,,,,,,,,,,0,87,87,197,,,,,,,,,,,,,LDT,right,1.033839238109067,,,,,,1,,,,,,,,,,,,,right,1,1.033839238109067,,,,,,,1003,2019_Mar_01_1458,mf_amp_cond1,3.0.4,60.038935105552675,
saned,,&&&&&,None,nonword,,,,,,,,,,,,,,,0,88,88,14,,,,,,,,,,,,,LDT,right,1.1838887253543362,,,,,,0,,,,,,,,,,,,,right,0,1.1838887253543362,,,,,,,1003,2019_Mar_01_1458,mf_amp_cond1,3.0.4,60.038935105552675,
refused,,&&&&&&&,left,authority.vice,,,,,,,,,,,,,,,0,89,89,107,,,,,,,,,,,,,LDT,right,0.6837800010107458,,,,,,0,,,,,,,,,,,,,right,0,0.6837800010107458,,,,,,,1003,2019_Mar_01_1458,mf_amp_cond1,3.0.4,60.038935105552675,
lachelor,,&&&&&&&&,right,nonword,,,,,,,,,,,,,,,0,90,90,194,,,,,,,,,,,,,LDT,left,0.6837793595623225,,,,,,0,,,,,,,,,,,,,left,0,0.6837793595623225,,,,,,,1003,2019_Mar_01_1458,mf_amp_cond1,3.0.4,60.038935105552675,
done,,&&&&,left,neutral,,,,,,,,,,,,,,,0,91,91,190,,,,,,,,,,,,,LDT,right,0.5670533917145804,,,,,,0,,,,,,,,,,,,,right,0,0.5670533917145804,,,,,,,1003,2019_Mar_01_1458,mf_amp_cond1,3.0.4,60.038935105552675,
lempestuous,,&&&&&&&&&&&,right,nonword,,,,,,,,,,,,,,,0,92,92,181,,,,,,,,,,,,,LDT,left,0.7838041192153469,,,,,,0,,,,,,,,,,,,,left,0,0.7838041192153469,,,,,,,1003,2019_Mar_01_1458,mf_amp_cond1,3.0.4,60.038935105552675,
toward,,&&&&&&,left,neutral,,,,,,,,,,,,,,,0,93,93,64,,,,,,,,,,,,,LDT,right,0.7837932147085667,,,,,,0,,,,,,,,,,,,,right,0,0.7837932147085667,,,,,,,1003,2019_Mar_01_1458,mf_amp_cond1,3.0.4,60.038935105552675,
smapper,,&&&&&&&,right,nonword,,,,,,,,,,,,,,,0,94,94,6,,,,,,,,,,,,,LDT,left,0.6504173538414761,,,,,,0,,,,,,,,,,,,,left,0,0.6504173538414761,,,,,,,1003,2019_Mar_01_1458,mf_amp_cond1,3.0.4,60.038935105552675,
amoungst,,&&&&&&&&,left,neutral,,,,,,,,,,,,,,,0,95,95,198,,,,,,,,,,,,,LDT,left,0.8004594644298777,,,,,,1,,,,,,,,,,,,,left,1,0.8004594644298777,,,,,,,1003,2019_Mar_01_1458,mf_amp_cond1,3.0.4,60.038935105552675,
lies,,&&&&,left,fairness.vice,,,,,,,,,,,,,,,0,96,96,144,,,,,,,,,,,,,LDT,right,1.033852066961117,,,,,,0,,,,,,,,,,,,,right,0,1.033852066961117,,,,,,,1003,2019_Mar_01_1458,mf_amp_cond1,3.0.4,60.038935105552675,
ablow,,&&&&&,right,nonword,,,,,,,,,,,,,,,0,97,97,182,,,,,,,,,,,,,LDT,left,1.6673706484725699,,,,,,0,,,,,,,,,,,,,left,0,1.6673706484725699,,,,,,,1003,2019_Mar_01_1458,mf_amp_cond1,3.0.4,60.038935105552675,
front,,&&&&&,left,neutral,,,,,,,,,,,,,,,0,98,98,62,,,,,,,,,,,,,LDT,right,0.5836651189019904,,,,,,0,,,,,,,,,,,,,right,0,0.5836651189019904,,,,,,,1003,2019_Mar_01_1458,mf_amp_cond1,3.0.4,60.038935105552675,
counpy's,,&&&&&&&&,right,nonword,,,,,,,,,,,,,,,0,99,99,75,,,,,,,,,,,,,LDT,right,0.5337818291736767,,,,,,1,,,,,,,,,,,,,right,1,0.5337818291736767,,,,,,,1003,2019_Mar_01_1458,mf_amp_cond1,3.0.4,60.038935105552675,
refuejing,,&&&&&&&&&,right,nonword,,,,,,,,,,,,,,,0,100,100,55,,,,,,,,,,,,,LDT,right,0.667095470125787,,,,,,1,,,,,,,,,,,,,right,1,0.667095470125787,,,,,,,1003,2019_Mar_01_1458,mf_amp_cond1,3.0.4,60.038935105552675,
spag,,&&&&,None,nonword,,,,,,,,,,,,,,,0,101,101,96,,,,,,,,,,,,,LDT,right,0.567066220450215,,,,,,0,,,,,,,,,,,,,right,0,0.567066220450215,,,,,,,1003,2019_Mar_01_1458,mf_amp_cond1,3.0.4,60.038935105552675,
esquisiteness,,&&&&&&&&&&&&&,right,nonword,,,,,,,,,,,,,,,0,102,102,172,,,,,,,,,,,,,LDT,left,0.7337960690492764,,,,,,0,,,,,,,,,,,,,left,0,0.7337960690492764,,,,,,,1003,2019_Mar_01_1458,mf_amp_cond1,3.0.4,60.038935105552675,
compassion,,&&&&&&&&&&,left,care.virtue,,,,,,,,,,,,,,,0,103,103,117,,,,,,,,,,,,,LDT,right,0.6504170331172645,,,,,,0,,,,,,,,,,,,,right,0,0.6504170331172645,,,,,,,1003,2019_Mar_01_1458,mf_amp_cond1,3.0.4,60.038935105552675,
gillipede,,&&&&&&&&&,None,nonword,,,,,,,,,,,,,,,0,104,104,127,,,,,,,,,,,,,LDT,right,0.683813676587306,,,,,,0,,,,,,,,,,,,,right,0,0.683813676587306,,,,,,,1003,2019_Mar_01_1458,mf_amp_cond1,3.0.4,60.038935105552675,
forced,,&&&&&&,left,fairness.vice,,,,,,,,,,,,,,,0,105,105,91,,,,,,,,,,,,,LDT,right,0.7004234795458615,,,,,,0,,,,,,,,,,,,,right,0,0.7004234795458615,,,,,,,1003,2019_Mar_01_1458,mf_amp_cond1,3.0.4,60.038935105552675,
besides,,&&&&&&&,left,neutral,,,,,,,,,,,,,,,0,106,106,17,,,,,,,,,,,,,LDT,left,0.7337579034501687,,,,,,1,,,,,,,,,,,,,left,1,0.7337579034501687,,,,,,,1003,2019_Mar_01_1458,mf_amp_cond1,3.0.4,60.038935105552675,
