words,mask,corr_ans,category,nonwords,LDT_prac_loop.thisRepN,LDT_prac_loop.thisTrialN,LDT_prac_loop.thisN,LDT_prac_loop.thisIndex,LDT_loop.thisRepN,LDT_loop.thisTrialN,LDT_loop.thisN,LDT_loop.thisIndex,AMP_pracloop.thisRepN,AMP_pracloop.thisTrialN,AMP_pracloop.thisN,AMP_pracloop.thisIndex,AMP_loop.thisRepN,AMP_loop.thisTrialN,AMP_loop.thisN,AMP_loop.thisIndex,tweet_loop.thisRepN,tweet_loop.thisTrialN,tweet_loop.thisN,tweet_loop.thisIndex,tweets,topic,begin_key.keys,begin_key.rt,key_resp_AMP_instr1.keys,key_resp_AMP_instr1.rt,key_resp_LDT_instr.keys,key_resp_LDT_instr.rt,resp_LDT_prac.keys,resp_LDT_prac.rt,task,keypress,RT,corr,resp_LDT_ready.keys,resp_LDT_ready.rt,resp_LDT.keys,resp_LDT.corr,resp_LDT.rt,LDT_rating.response,LDT_rating.rt,resp_AMP_ready1.keys,resp_AMP_ready1.rt,resp_AMP_prac.keys,resp_AMP_prac.rt,resp_AMP_ready.keys,resp_AMP_ready.rt,resp_AMP.keys,resp_AMP.corr,resp_AMP.rt,AMP_nonword_rating.response,AMP_nonword_rating.rt,AMP_word_rating.response,AMP_word_rating.rt,AMP_random_rating.response,AMP_random_rating.rt,key_resp_LDT_instr_2.keys,key_resp_LDT_instr_2.rt,participant,date,expName,psychopyVersion,frameRate,
,,,,,,,,,,,,,,,,,,,,,,,,,,,right,1052.2359251031885,,,,,,,,,,,,,,,,,,,,,,,,,,,,,,,,,,,1004,2019_Mar_06_0949,mf_amp_cond2,3.0.4,59.97753244077292,
,,,,,,,,,,,,,,,,,,,,,,,,,,,,,right,3.8345900158165023,,,,,,,,,,,,,,,,,,,,,,,,,,,,,,,,,1004,2019_Mar_06_0949,mf_amp_cond2,3.0.4,59.97753244077292,
,,,,,,,,,,,,,,,,,,,,,,,,,,,,,,,right,3.284435717971064,,,,,,,,,,,,,,,,,,,,,,,,,,,,,,,1004,2019_Mar_06_0949,mf_amp_cond2,3.0.4,59.97753244077292,
bisebell,&&&&&&&,,,,0,0,0,1,,,,,,,,,,,,,,,,,,,,,,,,,left,2.18415213865228,LDT_prac,left,2.18415213865228,0,,,,,,,,,,,,,,,,,,,,,,,,,1004,2019_Mar_06_0949,mf_amp_cond2,3.0.4,59.97753244077292,
keyboard,&&&&&&&,,,,0,1,1,0,,,,,,,,,,,,,,,,,,,,,,,,,left,1.5506494872970507,LDT_prac,left,1.5506494872970507,0,,,,,,,,,,,,,,,,,,,,,,,,,1004,2019_Mar_06_0949,mf_amp_cond2,3.0.4,59.97753244077292,
,,,,,,,,,,,,,,,,,,,,,,,,,,,,,,,,,,,,,,,right,3.267742634867318,,,,,,,,,,,,,,,,,,,,,,,1004,2019_Mar_06_0949,mf_amp_cond2,3.0.4,59.97753244077292,
noone,&&&&&,left,neutral,,,,,,0,0,0,194,,,,,,,,,,,,,,,,,,,,,,,LDT,left,1.13387051562313,1,,,left,1,1.13387051562313,,,,,,,,,,,,,,,,,,,,1004,2019_Mar_06_0949,mf_amp_cond2,3.0.4,59.97753244077292,
powerful,&&&&&&&&,left,authority.virtue,,,,,,0,1,1,7,,,,,,,,,,,,,,,,,,,,,,,LDT,right,1.5673258930910379,0,,,right,0,1.5673258930910379,,,,,,,,,,,,,,,,,,,,1004,2019_Mar_06_0949,mf_amp_cond2,3.0.4,59.97753244077292,
egpeditious,&&&&&&&&&&&,right,nonword,,,,,,0,2,2,20,,,,,,,,,,,,,,,,,,,,,,,LDT,left,1.1172018070938066,0,,,left,0,1.1172018070938066,,,,,,,,,,,,,,,,,,,,1004,2019_Mar_06_0949,mf_amp_cond2,3.0.4,59.97753244077292,
abuse,&&&&&,left,sanctity.vice,,,,,,0,3,3,25,,,,,,,,,,,,,,,,,,,,,,,LDT,right,0.6004500323906541,0,,,right,0,0.6004500323906541,,,,,,,,,,,,,,,,,,,,1004,2019_Mar_06_0949,mf_amp_cond2,3.0.4,59.97753244077292,
ebbitter,&&&&&&&&,right,nonword,,,,,,0,4,4,48,,,,,,,,,,,,,,,,,,,,,,,LDT,left,0.8171368294861168,0,,,left,0,0.8171368294861168,,,,,,,,,,,,,,,,,,,,1004,2019_Mar_06_0949,mf_amp_cond2,3.0.4,59.97753244077292,
compassion,&&&&&&&&&&,left,care.virtue,,,,,,0,5,5,105,,,,,,,,,,,,,,,,,,,,,,,LDT,right,0.46704712440259755,0,,,right,0,0.46704712440259755,,,,,,,,,,,,,,,,,,,,1004,2019_Mar_06_0949,mf_amp_cond2,3.0.4,59.97753244077292,
honstables,&&&&&&&&&&,right,nonword,,,,,,0,6,6,184,,,,,,,,,,,,,,,,,,,,,,,LDT,right,1.0505263312952593,1,,,right,1,1.0505263312952593,,,,,,,,,,,,,,,,,,,,1004,2019_Mar_06_0949,mf_amp_cond2,3.0.4,59.97753244077292,
amount,&&&&&&,left,neutral,,,,,,0,7,7,145,,,,,,,,,,,,,,,,,,,,,,,LDT,right,0.4837337932549417,0,,,right,0,0.4837337932549417,,,,,,,,,,,,,,,,,,,,1004,2019_Mar_06_0949,mf_amp_cond2,3.0.4,59.97753244077292,
frocessing,&&&&&&&&&&,right,nonword,,,,,,0,8,8,108,,,,,,,,,,,,,,,,,,,,,,,LDT,left,1.5173281060997397,0,,,left,0,1.5173281060997397,,,,,,,,,,,,,,,,,,,,1004,2019_Mar_06_0949,mf_amp_cond2,3.0.4,59.97753244077292,
epigrach,&&&&&&&&,right,nonword,,,,,,0,9,9,101,,,,,,,,,,,,,,,,,,,,,,,LDT,right,1.2339032930321991,1,,,right,1,1.2339032930321991,,,,,,,,,,,,,,,,,,,,1004,2019_Mar_06_0949,mf_amp_cond2,3.0.4,59.97753244077292,
idexpressible,&&&&&&&&&&&&&,right,nonword,,,,,,0,10,10,11,,,,,,,,,,,,,,,,,,,,,,,LDT,left,1.2004148175474256,0,,,left,0,1.2004148175474256,,,,,,,,,,,,,,,,,,,,1004,2019_Mar_06_0949,mf_amp_cond2,3.0.4,59.97753244077292,
whereafter,&&&&&&&&&&,left,neutral,,,,,,0,11,11,55,,,,,,,,,,,,,,,,,,,,,,,LDT,right,0.6337630749912933,0,,,right,0,0.6337630749912933,,,,,,,,,,,,,,,,,,,,1004,2019_Mar_06_0949,mf_amp_cond2,3.0.4,59.97753244077292,
strength,&&&&&&&&,left,sanctity.virtue,,,,,,0,12,12,102,,,,,,,,,,,,,,,,,,,,,,,LDT,right,0.5003543940838426,0,,,right,0,0.5003543940838426,,,,,,,,,,,,,,,,,,,,1004,2019_Mar_06_0949,mf_amp_cond2,3.0.4,59.97753244077292,
peace,&&&&&,left,care.virtue,,,,,,0,13,13,77,,,,,,,,,,,,,,,,,,,,,,,LDT,right,0.6504292177269235,0,,,right,0,0.6504292177269235,,,,,,,,,,,,,,,,,,,,1004,2019_Mar_06_0949,mf_amp_cond2,3.0.4,59.97753244077292,
drumbled,&&&&&&&&,right,nonword,,,,,,0,14,14,19,,,,,,,,,,,,,,,,,,,,,,,LDT,left,2.06746412278153,0,,,left,0,2.06746412278153,,,,,,,,,,,,,,,,,,,,1004,2019_Mar_06_0949,mf_amp_cond2,3.0.4,59.97753244077292,
harassment,&&&&&&&&&&,left,sanctity.vice,,,,,,0,15,15,141,,,,,,,,,,,,,,,,,,,,,,,LDT,right,0.5837508555268869,0,,,right,0,0.5837508555268869,,,,,,,,,,,,,,,,,,,,1004,2019_Mar_06_0949,mf_amp_cond2,3.0.4,59.97753244077292,
ning,&&&&,right,nonword,,,,,,0,16,16,118,,,,,,,,,,,,,,,,,,,,,,,LDT,left,1.4339861668413505,0,,,left,0,1.4339861668413505,,,,,,,,,,,,,,,,,,,,1004,2019_Mar_06_0949,mf_amp_cond2,3.0.4,59.97753244077292,
ecgagement,&&&&&&&&&&,None,nonword,,,,,,0,17,17,17,,,,,,,,,,,,,,,,,,,,,,,LDT,right,0.7004324570298195,0,,,right,0,0.7004324570298195,,,,,,,,,,,,,,,,,,,,1004,2019_Mar_06_0949,mf_amp_cond2,3.0.4,59.97753244077292,
mightingale,&&&&&&&&&&&,right,nonword,,,,,,0,18,18,179,,,,,,,,,,,,,,,,,,,,,,,LDT,left,0.7671271758154035,0,,,left,0,0.7671271758154035,,,,,,,,,,,,,,,,,,,,1004,2019_Mar_06_0949,mf_amp_cond2,3.0.4,59.97753244077292,
vurtain,&&&&&&&,right,nonword,,,,,,0,19,19,1,,,,,,,,,,,,,,,,,,,,,,,LDT,right,0.6671008127741516,1,,,right,1,0.6671008127741516,,,,,,,,,,,,,,,,,,,,1004,2019_Mar_06_0949,mf_amp_cond2,3.0.4,59.97753244077292,
iptervention,&&&&&&&&&&&&,right,nonword,,,,,,0,20,20,66,,,,,,,,,,,,,,,,,,,,,,,LDT,right,1.400620526401326,1,,,right,1,1.400620526401326,,,,,,,,,,,,,,,,,,,,1004,2019_Mar_06_0949,mf_amp_cond2,3.0.4,59.97753244077292,
refuejing,&&&&&&&&&,right,nonword,,,,,,0,21,21,129,,,,,,,,,,,,,,,,,,,,,,,LDT,right,1.4506189548410475,1,,,right,1,1.4506189548410475,,,,,,,,,,,,,,,,,,,,1004,2019_Mar_06_0949,mf_amp_cond2,3.0.4,59.97753244077292,
done,&&&&,left,neutral,,,,,,0,22,22,54,,,,,,,,,,,,,,,,,,,,,,,LDT,right,0.5504002888919786,0,,,right,0,0.5504002888919786,,,,,,,,,,,,,,,,,,,,1004,2019_Mar_06_0949,mf_amp_cond2,3.0.4,59.97753244077292,
praise,&&&&&&,left,authority.virtue,,,,,,0,23,23,186,,,,,,,,,,,,,,,,,,,,,,,LDT,right,0.6335453069768846,0,,,right,0,0.6335453069768846,,,,,,,,,,,,,,,,,,,,1004,2019_Mar_06_0949,mf_amp_cond2,3.0.4,59.97753244077292,
become,&&&&&&,left,neutral,,,,,,0,24,24,63,,,,,,,,,,,,,,,,,,,,,,,LDT,right,0.4837260959902778,0,,,right,0,0.4837260959902778,,,,,,,,,,,,,,,,,,,,1004,2019_Mar_06_0949,mf_amp_cond2,3.0.4,59.97753244077292,
gikely,&&&&&&,right,nonword,,,,,,0,25,25,147,,,,,,,,,,,,,,,,,,,,,,,LDT,left,0.600408980390057,0,,,left,0,0.600408980390057,,,,,,,,,,,,,,,,,,,,1004,2019_Mar_06_0949,mf_amp_cond2,3.0.4,59.97753244077292,
wherever,&&&&&&&&,left,neutral,,,,,,0,26,26,87,,,,,,,,,,,,,,,,,,,,,,,LDT,right,1.0838615034008399,0,,,right,0,1.0838615034008399,,,,,,,,,,,,,,,,,,,,1004,2019_Mar_06_0949,mf_amp_cond2,3.0.4,59.97753244077292,
gazily,&&&&&&,right,nonword,,,,,,0,27,27,199,,,,,,,,,,,,,,,,,,,,,,,LDT,right,1.41726357745938,1,,,right,1,1.41726357745938,,,,,,,,,,,,,,,,,,,,1004,2019_Mar_06_0949,mf_amp_cond2,3.0.4,59.97753244077292,
army,&&&&,left,loyalty.vice,,,,,,0,28,28,111,,,,,,,,,,,,,,,,,,,,,,,LDT,right,0.48374918778426945,0,,,right,0,0.48374918778426945,,,,,,,,,,,,,,,,,,,,1004,2019_Mar_06_0949,mf_amp_cond2,3.0.4,59.97753244077292,
anyhow,&&&&&&,left,neutral,,,,,,0,29,29,42,,,,,,,,,,,,,,,,,,,,,,,LDT,right,0.7504517321940511,0,,,right,0,0.7504517321940511,,,,,,,,,,,,,,,,,,,,1004,2019_Mar_06_0949,mf_amp_cond2,3.0.4,59.97753244077292,
arrests,&&&&&&&,left,authority.vice,,,,,,0,30,30,121,,,,,,,,,,,,,,,,,,,,,,,LDT,right,0.6170889141503721,0,,,right,0,0.6170889141503721,,,,,,,,,,,,,,,,,,,,1004,2019_Mar_06_0949,mf_amp_cond2,3.0.4,59.97753244077292,
party,&&&&&,left,loyalty.virtue,,,,,,0,31,31,100,,,,,,,,,,,,,,,,,,,,,,,LDT,right,0.8171634490136057,0,,,right,0,0.8171634490136057,,,,,,,,,,,,,,,,,,,,1004,2019_Mar_06_0949,mf_amp_cond2,3.0.4,59.97753244077292,
victims,&&&&&&&,left,care.vice,,,,,,0,32,32,167,,,,,,,,,,,,,,,,,,,,,,,LDT,right,0.5670789397554472,0,,,right,0,0.5670789397554472,,,,,,,,,,,,,,,,,,,,1004,2019_Mar_06_0949,mf_amp_cond2,3.0.4,59.97753244077292,
neneficence,&&&&&&&&&&&,right,nonword,,,,,,0,33,33,130,,,,,,,,,,,,,,,,,,,,,,,LDT,left,0.7171162392478436,0,,,left,0,0.7171162392478436,,,,,,,,,,,,,,,,,,,,1004,2019_Mar_06_0949,mf_amp_cond2,3.0.4,59.97753244077292,
opportunity,&&&&&&&&&&&,left,fairness.virtue,,,,,,0,34,34,10,,,,,,,,,,,,,,,,,,,,,,,LDT,right,0.5003822966245934,0,,,right,0,0.5003822966245934,,,,,,,,,,,,,,,,,,,,1004,2019_Mar_06_0949,mf_amp_cond2,3.0.4,59.97753244077292,
oam,&&&,right,nonword,,,,,,0,35,35,164,,,,,,,,,,,,,,,,,,,,,,,LDT,right,1.3172622304409742,1,,,right,1,1.3172622304409742,,,,,,,,,,,,,,,,,,,,1004,2019_Mar_06_0949,mf_amp_cond2,3.0.4,59.97753244077292,
nonobservalt,&&&&&&&&&&&&,right,nonword,,,,,,0,36,36,103,,,,,,,,,,,,,,,,,,,,,,,LDT,right,1.1505459593608975,1,,,right,1,1.1505459593608975,,,,,,,,,,,,,,,,,,,,1004,2019_Mar_06_0949,mf_amp_cond2,3.0.4,59.97753244077292,
drug,&&&&,left,sanctity.vice,,,,,,0,37,37,143,,,,,,,,,,,,,,,,,,,,,,,LDT,right,0.9504954782314599,0,,,right,0,0.9504954782314599,,,,,,,,,,,,,,,,,,,,1004,2019_Mar_06_0949,mf_amp_cond2,3.0.4,59.97753244077292,
violence,&&&&&&&&,left,care.vice,,,,,,0,38,38,34,,,,,,,,,,,,,,,,,,,,,,,LDT,right,0.717131954501383,0,,,right,0,0.717131954501383,,,,,,,,,,,,,,,,,,,,1004,2019_Mar_06_0949,mf_amp_cond2,3.0.4,59.97753244077292,
Phintoism,&&&&&&&&&,right,nonword,,,,,,0,39,39,180,,,,,,,,,,,,,,,,,,,,,,,LDT,left,0.7504485249519348,0,,,left,0,0.7504485249519348,,,,,,,,,,,,,,,,,,,,1004,2019_Mar_06_0949,mf_amp_cond2,3.0.4,59.97753244077292,
toward,&&&&&&,left,neutral,,,,,,0,40,40,3,,,,,,,,,,,,,,,,,,,,,,,LDT,right,0.4336923884693533,0,,,right,0,0.4336923884693533,,,,,,,,,,,,,,,,,,,,1004,2019_Mar_06_0949,mf_amp_cond2,3.0.4,59.97753244077292,
wonderfujnoss,&&&&&&&&&&&&&,right,nonword,,,,,,0,41,41,67,,,,,,,,,,,,,,,,,,,,,,,LDT,right,0.8171650527510792,1,,,right,1,0.8171650527510792,,,,,,,,,,,,,,,,,,,,1004,2019_Mar_06_0949,mf_amp_cond2,3.0.4,59.97753244077292,
suggists,&&&&&&&&,right,nonword,,,,,,0,42,42,97,,,,,,,,,,,,,,,,,,,,,,,LDT,left,1.2839206439675763,0,,,left,0,1.2839206439675763,,,,,,,,,,,,,,,,,,,,1004,2019_Mar_06_0949,mf_amp_cond2,3.0.4,59.97753244077292,
pescinded,&&&&&&&&&,right,nonword,,,,,,0,43,43,165,,,,,,,,,,,,,,,,,,,,,,,LDT,right,1.017201101523824,1,,,right,1,1.017201101523824,,,,,,,,,,,,,,,,,,,,1004,2019_Mar_06_0949,mf_amp_cond2,3.0.4,59.97753244077292,
couldnt,&&&&&&&,left,neutral,,,,,,0,44,44,149,,,,,,,,,,,,,,,,,,,,,,,LDT,right,0.7171374066965654,0,,,right,0,0.7171374066965654,,,,,,,,,,,,,,,,,,,,1004,2019_Mar_06_0949,mf_amp_cond2,3.0.4,59.97753244077292,
hefurbished,&&&&&&&&&&&,right,nonword,,,,,,0,45,45,41,,,,,,,,,,,,,,,,,,,,,,,LDT,left,0.6837615034310147,0,,,left,0,0.6837615034310147,,,,,,,,,,,,,,,,,,,,1004,2019_Mar_06_0949,mf_amp_cond2,3.0.4,59.97753244077292,
thabbily,&&&&&&&&,right,nonword,,,,,,0,46,46,95,,,,,,,,,,,,,,,,,,,,,,,LDT,left,0.6837823501555249,0,,,left,0,0.6837823501555249,,,,,,,,,,,,,,,,,,,,1004,2019_Mar_06_0949,mf_amp_cond2,3.0.4,59.97753244077292,
myself,&&&&&&,left,neutral,,,,,,0,47,47,49,,,,,,,,,,,,,,,,,,,,,,,LDT,right,0.5003880695439875,0,,,right,0,0.5003880695439875,,,,,,,,,,,,,,,,,,,,1004,2019_Mar_06_0949,mf_amp_cond2,3.0.4,59.97753244077292,
spag,&&&&,None,nonword,,,,,,0,48,48,146,,,,,,,,,,,,,,,,,,,,,,,LDT,left,1.300592238898389,0,,,left,0,1.300592238898389,,,,,,,,,,,,,,,,,,,,1004,2019_Mar_06_0949,mf_amp_cond2,3.0.4,59.97753244077292,
chressing,&&&&&&&&&,None,nonword,,,,,,0,49,49,125,,,,,,,,,,,,,,,,,,,,,,,LDT,left,2.167480543605052,0,,,left,0,2.167480543605052,,,,,,,,,,,,,,,,,,,,1004,2019_Mar_06_0949,mf_amp_cond2,3.0.4,59.97753244077292,
were,&&&&,left,neutral,,,,,,0,50,50,176,,,,,,,,,,,,,,,,,,,,,,,LDT,right,0.4670824036002159,0,,,right,0,0.4670824036002159,,,,,,,,,,,,,,,,,,,,1004,2019_Mar_06_0949,mf_amp_cond2,3.0.4,59.97753244077292,
win,&&&,left,fairness.virtue,,,,,,0,51,51,32,,,,,,,,,,,,,,,,,,,,,,,LDT,right,0.5170442700618878,0,,,right,0,0.5170442700618878,,,,,,,,,,,,,,,,,,,,1004,2019_Mar_06_0949,mf_amp_cond2,3.0.4,59.97753244077292,
scalbel,&&&&&&&,right,nonword,,,,,,0,52,52,138,,,,,,,,,,,,,,,,,,,,,,,LDT,left,1.550660070963204,0,,,left,0,1.550660070963204,,,,,,,,,,,,,,,,,,,,1004,2019_Mar_06_0949,mf_amp_cond2,3.0.4,59.97753244077292,
love,&&&&,left,loyalty.virtue,,,,,,0,53,53,198,,,,,,,,,,,,,,,,,,,,,,,LDT,right,0.6003781914478168,0,,,right,0,0.6003781914478168,,,,,,,,,,,,,,,,,,,,1004,2019_Mar_06_0949,mf_amp_cond2,3.0.4,59.97753244077292,
shoirmaster,&&&&&&&&&&&,right,nonword,,,,,,0,54,54,157,,,,,,,,,,,,,,,,,,,,,,,LDT,left,1.8007083390839398,0,,,left,0,1.8007083390839398,,,,,,,,,,,,,,,,,,,,1004,2019_Mar_06_0949,mf_amp_cond2,3.0.4,59.97753244077292,
smapper,&&&&&&&,right,nonword,,,,,,0,55,55,171,,,,,,,,,,,,,,,,,,,,,,,LDT,left,0.9171481188386679,0,,,left,0,0.9171481188386679,,,,,,,,,,,,,,,,,,,,1004,2019_Mar_06_0949,mf_amp_cond2,3.0.4,59.97753244077292,
clean,&&&&&,left,sanctity.virtue,,,,,,0,56,56,73,,,,,,,,,,,,,,,,,,,,,,,LDT,right,0.40036106505431235,0,,,right,0,0.40036106505431235,,,,,,,,,,,,,,,,,,,,1004,2019_Mar_06_0949,mf_amp_cond2,3.0.4,59.97753244077292,
besides,&&&&&&&,left,neutral,,,,,,0,57,57,79,,,,,,,,,,,,,,,,,,,,,,,LDT,right,0.717112711397931,0,,,right,0,0.717112711397931,,,,,,,,,,,,,,,,,,,,1004,2019_Mar_06_0949,mf_amp_cond2,3.0.4,59.97753244077292,
death,&&&&&,left,care.vice,,,,,,0,58,58,131,,,,,,,,,,,,,,,,,,,,,,,LDT,right,0.5003871073713526,0,,,right,0,0.5003871073713526,,,,,,,,,,,,,,,,,,,,1004,2019_Mar_06_0949,mf_amp_cond2,3.0.4,59.97753244077292,
gedious,&&&&&&&,right,nonword,,,,,,0,59,59,26,,,,,,,,,,,,,,,,,,,,,,,LDT,left,0.8002984607592225,0,,,left,0,0.8002984607592225,,,,,,,,,,,,,,,,,,,,1004,2019_Mar_06_0949,mf_amp_cond2,3.0.4,59.97753244077292,
give,&&&&,left,neutral,,,,,,0,60,60,155,,,,,,,,,,,,,,,,,,,,,,,LDT,right,0.5003851830260828,0,,,right,0,0.5003851830260828,,,,,,,,,,,,,,,,,,,,1004,2019_Mar_06_0949,mf_amp_cond2,3.0.4,59.97753244077292,
ugeasily,&&&&&&&&,right,nonword,,,,,,0,61,61,89,,,,,,,,,,,,,,,,,,,,,,,LDT,right,0.9004758823430166,1,,,right,1,0.9004758823430166,,,,,,,,,,,,,,,,,,,,1004,2019_Mar_06_0949,mf_amp_cond2,3.0.4,59.97753244077292,
focomotive,&&&&&&&&&&,right,nonword,,,,,,0,62,62,99,,,,,,,,,,,,,,,,,,,,,,,LDT,left,1.283920002519153,0,,,left,0,1.283920002519153,,,,,,,,,,,,,,,,,,,,1004,2019_Mar_06_0949,mf_amp_cond2,3.0.4,59.97753244077292,
anything,&&&&&&&&,left,neutral,,,,,,0,63,63,22,,,,,,,,,,,,,,,,,,,,,,,LDT,right,0.45037392585072666,0,,,right,0,0.45037392585072666,,,,,,,,,,,,,,,,,,,,1004,2019_Mar_06_0949,mf_amp_cond2,3.0.4,59.97753244077292,
bruthfulness,&&&&&&&&&&&&,right,nonword,,,,,,0,64,64,120,,,,,,,,,,,,,,,,,,,,,,,LDT,left,1.6338910416234285,0,,,left,0,1.6338910416234285,,,,,,,,,,,,,,,,,,,,1004,2019_Mar_06_0949,mf_amp_cond2,3.0.4,59.97753244077292,
pharing,&&&&&&&,right,nonword,,,,,,0,65,65,189,,,,,,,,,,,,,,,,,,,,,,,LDT,left,0.8504893203498796,0,,,left,0,0.8504893203498796,,,,,,,,,,,,,,,,,,,,1004,2019_Mar_06_0949,mf_amp_cond2,3.0.4,59.97753244077292,
safety,&&&&&&,left,care.virtue,,,,,,0,66,66,9,,,,,,,,,,,,,,,,,,,,,,,LDT,right,0.41703458433039486,0,,,right,0,0.41703458433039486,,,,,,,,,,,,,,,,,,,,1004,2019_Mar_06_0949,mf_amp_cond2,3.0.4,59.97753244077292,
gaultless,&&&&&&&&&,right,nonword,,,,,,0,67,67,124,,,,,,,,,,,,,,,,,,,,,,,LDT,left,0.8504697566386312,0,,,left,0,0.8504697566386312,,,,,,,,,,,,,,,,,,,,1004,2019_Mar_06_0949,mf_amp_cond2,3.0.4,59.97753244077292,
viscs,&&&&&,None,nonword,,,,,,0,68,68,8,,,,,,,,,,,,,,,,,,,,,,,LDT,right,0.9504970817361027,0,,,right,0,0.9504970817361027,,,,,,,,,,,,,,,,,,,,1004,2019_Mar_06_0949,mf_amp_cond2,3.0.4,59.97753244077292,
crime,&&&&&,left,fairness.vice,,,,,,0,69,69,94,,,,,,,,,,,,,,,,,,,,,,,LDT,right,2.183980874950066,0,,,right,0,2.183980874950066,,,,,,,,,,,,,,,,,,,,1004,2019_Mar_06_0949,mf_amp_cond2,3.0.4,59.97753244077292,
pullness,&&&&&&&&,right,nonword,,,,,,0,70,70,96,,,,,,,,,,,,,,,,,,,,,,,LDT,right,2.050764945917763,1,,,right,1,2.050764945917763,,,,,,,,,,,,,,,,,,,,1004,2019_Mar_06_0949,mf_amp_cond2,3.0.4,59.97753244077292,
although,&&&&&&&&,left,neutral,,,,,,0,71,71,57,,,,,,,,,,,,,,,,,,,,,,,LDT,right,0.583759835571982,0,,,right,0,0.583759835571982,,,,,,,,,,,,,,,,,,,,1004,2019_Mar_06_0949,mf_amp_cond2,3.0.4,59.97753244077292,
hate,&&&&,left,fairness.vice,,,,,,0,72,72,168,,,,,,,,,,,,,,,,,,,,,,,LDT,right,0.8838251340202987,0,,,right,0,0.8838251340202987,,,,,,,,,,,,,,,,,,,,1004,2019_Mar_06_0949,mf_amp_cond2,3.0.4,59.97753244077292,
seem,&&&&,left,neutral,,,,,,0,73,73,2,,,,,,,,,,,,,,,,,,,,,,,LDT,right,1.0838813880691305,0,,,right,0,1.0838813880691305,,,,,,,,,,,,,,,,,,,,1004,2019_Mar_06_0949,mf_amp_cond2,3.0.4,59.97753244077292,
perified,&&&&&&&&,right,nonword,,,,,,0,74,74,137,,,,,,,,,,,,,,,,,,,,,,,LDT,right,2.7176216918742284,1,,,right,1,2.7176216918742284,,,,,,,,,,,,,,,,,,,,1004,2019_Mar_06_0949,mf_amp_cond2,3.0.4,59.97753244077292,
less,&&&&,left,neutral,,,,,,0,75,75,173,,,,,,,,,,,,,,,,,,,,,,,LDT,right,0.5837627220898867,0,,,right,0,0.5837627220898867,,,,,,,,,,,,,,,,,,,,1004,2019_Mar_06_0949,mf_amp_cond2,3.0.4,59.97753244077292,
juck,&&&&,right,nonword,,,,,,0,76,76,92,,,,,,,,,,,,,,,,,,,,,,,LDT,left,0.5504063826519996,0,,,left,0,0.5504063826519996,,,,,,,,,,,,,,,,,,,,1004,2019_Mar_06_0949,mf_amp_cond2,3.0.4,59.97753244077292,
tomedians,&&&&&&&&&,right,nonword,,,,,,0,77,77,175,,,,,,,,,,,,,,,,,,,,,,,LDT,left,0.8171682598767802,0,,,left,0,0.8171682598767802,,,,,,,,,,,,,,,,,,,,1004,2019_Mar_06_0949,mf_amp_cond2,3.0.4,59.97753244077292,
asn,&&&,right,nonword,,,,,,0,78,78,21,,,,,,,,,,,,,,,,,,,,,,,LDT,left,0.6671001713257283,0,,,left,0,0.6671001713257283,,,,,,,,,,,,,,,,,,,,1004,2019_Mar_06_0949,mf_amp_cond2,3.0.4,59.97753244077292,
accused,&&&&&&&,left,fairness.vice,,,,,,0,79,79,88,,,,,,,,,,,,,,,,,,,,,,,LDT,right,0.5170577402459458,0,,,right,0,0.5170577402459458,,,,,,,,,,,,,,,,,,,,1004,2019_Mar_06_0949,mf_amp_cond2,3.0.4,59.97753244077292,
therefore,&&&&&&&&&,left,neutral,,,,,,0,80,80,170,,,,,,,,,,,,,,,,,,,,,,,LDT,right,0.4337202910101041,0,,,right,0,0.4337202910101041,,,,,,,,,,,,,,,,,,,,1004,2019_Mar_06_0949,mf_amp_cond2,3.0.4,59.97753244077292,
towards,&&&&&&&,left,neutral,,,,,,0,81,81,110,,,,,,,,,,,,,,,,,,,,,,,LDT,right,0.45037649164441973,0,,,right,0,0.45037649164441973,,,,,,,,,,,,,,,,,,,,1004,2019_Mar_06_0949,mf_amp_cond2,3.0.4,59.97753244077292,
brudent,&&&&&&&,right,nonword,,,,,,0,82,82,39,,,,,,,,,,,,,,,,,,,,,,,LDT,left,0.7004468893865123,0,,,left,0,0.7004468893865123,,,,,,,,,,,,,,,,,,,,1004,2019_Mar_06_0949,mf_amp_cond2,3.0.4,59.97753244077292,
fear,&&&&,left,sanctity.vice,,,,,,0,83,83,128,,,,,,,,,,,,,,,,,,,,,,,LDT,right,0.4337417791830376,0,,,right,0,0.4337417791830376,,,,,,,,,,,,,,,,,,,,1004,2019_Mar_06_0949,mf_amp_cond2,3.0.4,59.97753244077292,
riot,&&&&,left,authority.vice,,,,,,0,84,84,82,,,,,,,,,,,,,,,,,,,,,,,LDT,right,0.6004093009978533,0,,,right,0,0.6004093009978533,,,,,,,,,,,,,,,,,,,,1004,2019_Mar_06_0949,mf_amp_cond2,3.0.4,59.97753244077292,
galamitous,&&&&&&&&&&,right,nonword,,,,,,0,85,85,53,,,,,,,,,,,,,,,,,,,,,,,LDT,left,0.817140678060241,0,,,left,0,0.817140678060241,,,,,,,,,,,,,,,,,,,,1004,2019_Mar_06_0949,mf_amp_cond2,3.0.4,59.97753244077292,
killed,&&&&&&,left,care.vice,,,,,,0,86,86,93,,,,,,,,,,,,,,,,,,,,,,,LDT,right,0.40037421451415867,0,,,right,0,0.40037421451415867,,,,,,,,,,,,,,,,,,,,1004,2019_Mar_06_0949,mf_amp_cond2,3.0.4,59.97753244077292,
there,&&&&&,left,neutral,,,,,,0,87,87,4,,,,,,,,,,,,,,,,,,,,,,,LDT,right,0.7337301049847156,0,,,right,0,0.7337301049847156,,,,,,,,,,,,,,,,,,,,1004,2019_Mar_06_0949,mf_amp_cond2,3.0.4,59.97753244077292,
with,&&&&,left,neutral,,,,,,0,88,88,68,,,,,,,,,,,,,,,,,,,,,,,LDT,right,0.8504421748220921,0,,,right,0,0.8504421748220921,,,,,,,,,,,,,,,,,,,,1004,2019_Mar_06_0949,mf_amp_cond2,3.0.4,59.97753244077292,
rivernoat,&&&&&&&&&,right,nonword,,,,,,0,89,89,40,,,,,,,,,,,,,,,,,,,,,,,LDT,left,2.2674831735203043,0,,,left,0,2.2674831735203043,,,,,,,,,,,,,,,,,,,,1004,2019_Mar_06_0949,mf_amp_cond2,3.0.4,59.97753244077292,
gowlands,&&&&&&&&,right,nonword,,,,,,0,90,90,91,,,,,,,,,,,,,,,,,,,,,,,LDT,left,0.6837874815100804,0,,,left,0,0.6837874815100804,,,,,,,,,,,,,,,,,,,,1004,2019_Mar_06_0949,mf_amp_cond2,3.0.4,59.97753244077292,
yane,&&&&,right,nonword,,,,,,0,91,91,30,,,,,,,,,,,,,,,,,,,,,,,LDT,left,0.6337582641281188,0,,,left,0,0.6337582641281188,,,,,,,,,,,,,,,,,,,,1004,2019_Mar_06_0949,mf_amp_cond2,3.0.4,59.97753244077292,
dramens,&&&&&&&,right,nonword,,,,,,0,92,92,52,,,,,,,,,,,,,,,,,,,,,,,LDT,right,0.4837408490711823,1,,,right,1,0.4837408490711823,,,,,,,,,,,,,,,,,,,,1004,2019_Mar_06_0949,mf_amp_cond2,3.0.4,59.97753244077292,
thadowed,&&&&&&&&,right,nonword,,,,,,0,93,93,18,,,,,,,,,,,,,,,,,,,,,,,LDT,left,1.1339083603816107,0,,,left,0,1.1339083603816107,,,,,,,,,,,,,,,,,,,,1004,2019_Mar_06_0949,mf_amp_cond2,3.0.4,59.97753244077292,
ittutable,&&&&&&&&&,right,nonword,,,,,,0,94,94,127,,,,,,,,,,,,,,,,,,,,,,,LDT,left,0.8838209646055475,0,,,left,0,0.8838209646055475,,,,,,,,,,,,,,,,,,,,1004,2019_Mar_06_0949,mf_amp_cond2,3.0.4,59.97753244077292,
peaceful,&&&&&&&&,left,authority.virtue,,,,,,0,95,95,153,,,,,,,,,,,,,,,,,,,,,,,LDT,right,0.4503813023911789,0,,,right,0,0.4503813023911789,,,,,,,,,,,,,,,,,,,,1004,2019_Mar_06_0949,mf_amp_cond2,3.0.4,59.97753244077292,
clattening,&&&&&&&&&&,right,nonword,,,,,,0,96,96,51,,,,,,,,,,,,,,,,,,,,,,,LDT,right,0.6670860596932471,1,,,right,1,0.6670860596932471,,,,,,,,,,,,,,,,,,,,1004,2019_Mar_06_0949,mf_amp_cond2,3.0.4,59.97753244077292,
Daptist,&&&&&&&,right,nonword,,,,,,0,97,97,185,,,,,,,,,,,,,,,,,,,,,,,LDT,left,0.6337819972541183,0,,,left,0,0.6337819972541183,,,,,,,,,,,,,,,,,,,,1004,2019_Mar_06_0949,mf_amp_cond2,3.0.4,59.97753244077292,
least,&&&&&,left,neutral,,,,,,0,98,98,47,,,,,,,,,,,,,,,,,,,,,,,LDT,right,0.8504800195805728,0,,,right,0,0.8504800195805728,,,,,,,,,,,,,,,,,,,,1004,2019_Mar_06_0949,mf_amp_cond2,3.0.4,59.97753244077292,
amoungst,&&&&&&&&,left,neutral,,,,,,0,99,99,80,,,,,,,,,,,,,,,,,,,,,,,LDT,right,0.5670693182619289,0,,,right,0,0.5670693182619289,,,,,,,,,,,,,,,,,,,,1004,2019_Mar_06_0949,mf_amp_cond2,3.0.4,59.97753244077292,
useful,&&&&&&,left,authority.virtue,,,,,,0,100,100,65,,,,,,,,,,,,,,,,,,,,,,,LDT,right,0.5170696068089455,0,,,right,0,0.5170696068089455,,,,,,,,,,,,,,,,,,,,1004,2019_Mar_06_0949,mf_amp_cond2,3.0.4,59.97753244077292,
gondensed,&&&&&&&&&,right,nonword,,,,,,0,101,101,115,,,,,,,,,,,,,,,,,,,,,,,LDT,left,0.9505012511508539,0,,,left,0,0.9505012511508539,,,,,,,,,,,,,,,,,,,,1004,2019_Mar_06_0949,mf_amp_cond2,3.0.4,59.97753244077292,
safe,&&&&,left,care.virtue,,,,,,0,102,102,126,,,,,,,,,,,,,,,,,,,,,,,LDT,right,1.9005695320665836,0,,,right,0,1.9005695320665836,,,,,,,,,,,,,,,,,,,,1004,2019_Mar_06_0949,mf_amp_cond2,3.0.4,59.97753244077292,
fegard,&&&&&&,right,nonword,,,,,,0,103,103,151,,,,,,,,,,,,,,,,,,,,,,,LDT,left,0.7337884758599102,0,,,left,0,0.7337884758599102,,,,,,,,,,,,,,,,,,,,1004,2019_Mar_06_0949,mf_amp_cond2,3.0.4,59.97753244077292,
forty,&&&&&,left,neutral,,,,,,0,104,104,83,,,,,,,,,,,,,,,,,,,,,,,LDT,right,0.6170863483566791,0,,,right,0,0.6170863483566791,,,,,,,,,,,,,,,,,,,,1004,2019_Mar_06_0949,mf_amp_cond2,3.0.4,59.97753244077292,
mostly,&&&&&&,left,neutral,,,,,,0,105,105,23,,,,,,,,,,,,,,,,,,,,,,,LDT,right,0.5504083068808541,0,,,right,0,0.5504083068808541,,,,,,,,,,,,,,,,,,,,1004,2019_Mar_06_0949,mf_amp_cond2,3.0.4,59.97753244077292,
dormandi,&&&&&&&&,None,nonword,,,,,,0,106,106,177,,,,,,,,,,,,,,,,,,,,,,,LDT,left,0.7669741931604221,0,,,left,0,0.7669741931604221,,,,,,,,,,,,,,,,,,,,1004,2019_Mar_06_0949,mf_amp_cond2,3.0.4,59.97753244077292,
uller,&&&&&,right,nonword,,,,,,0,107,107,107,,,,,,,,,,,,,,,,,,,,,,,LDT,left,1.9173921856563538,0,,,left,0,1.9173921856563538,,,,,,,,,,,,,,,,,,,,1004,2019_Mar_06_0949,mf_amp_cond2,3.0.4,59.97753244077292,
hope,&&&&,left,loyalty.virtue,,,,,,0,108,108,134,,,,,,,,,,,,,,,,,,,,,,,LDT,right,0.36701851640827954,0,,,right,0,0.36701851640827954,,,,,,,,,,,,,,,,,,,,1004,2019_Mar_06_0949,mf_amp_cond2,3.0.4,59.97753244077292,
terrorist,&&&&&&&&&,left,loyalty.vice,,,,,,0,109,109,58,,,,,,,,,,,,,,,,,,,,,,,LDT,right,0.6004259784240276,0,,,right,0,0.6004259784240276,,,,,,,,,,,,,,,,,,,,1004,2019_Mar_06_0949,mf_amp_cond2,3.0.4,59.97753244077292,
could,&&&&&,left,neutral,,,,,,0,110,110,31,,,,,,,,,,,,,,,,,,,,,,,LDT,right,0.4503720016218722,0,,,right,0,0.4503720016218722,,,,,,,,,,,,,,,,,,,,1004,2019_Mar_06_0949,mf_amp_cond2,3.0.4,59.97753244077292,
erks,&&&&,right,nonword,,,,,,0,111,111,106,,,,,,,,,,,,,,,,,,,,,,,LDT,right,1.3339319012593478,1,,,right,1,1.3339319012593478,,,,,,,,,,,,,,,,,,,,1004,2019_Mar_06_0949,mf_amp_cond2,3.0.4,59.97753244077292,
whither,&&&&&&&,left,neutral,,,,,,0,112,112,46,,,,,,,,,,,,,,,,,,,,,,,LDT,right,0.6504321042448282,0,,,right,0,0.6504321042448282,,,,,,,,,,,,,,,,,,,,1004,2019_Mar_06_0949,mf_amp_cond2,3.0.4,59.97753244077292,
promote,&&&&&&&,left,sanctity.virtue,,,,,,0,113,113,169,,,,,,,,,,,,,,,,,,,,,,,LDT,right,0.5837553455494344,0,,,right,0,0.5837553455494344,,,,,,,,,,,,,,,,,,,,1004,2019_Mar_06_0949,mf_amp_cond2,3.0.4,59.97753244077292,
good,&&&&,left,care.virtue,,,,,,0,114,114,43,,,,,,,,,,,,,,,,,,,,,,,LDT,right,0.4503780952654779,0,,,right,0,0.4503780952654779,,,,,,,,,,,,,,,,,,,,1004,2019_Mar_06_0949,mf_amp_cond2,3.0.4,59.97753244077292,
presentkess,&&&&&&&&&&&,right,nonword,,,,,,0,115,115,36,,,,,,,,,,,,,,,,,,,,,,,LDT,left,0.5837454032152891,0,,,left,0,0.5837454032152891,,,,,,,,,,,,,,,,,,,,1004,2019_Mar_06_0949,mf_amp_cond2,3.0.4,59.97753244077292,
hereby,&&&&&&,left,neutral,,,,,,0,116,116,123,,,,,,,,,,,,,,,,,,,,,,,LDT,right,1.2005652345251292,0,,,right,0,1.2005652345251292,,,,,,,,,,,,,,,,,,,,1004,2019_Mar_06_0949,mf_amp_cond2,3.0.4,59.97753244077292,
values,&&&&&&,left,sanctity.virtue,,,,,,0,117,117,119,,,,,,,,,,,,,,,,,,,,,,,LDT,right,0.5670869576279074,0,,,right,0,0.5670869576279074,,,,,,,,,,,,,,,,,,,,1004,2019_Mar_06_0949,mf_amp_cond2,3.0.4,59.97753244077292,
rejected,&&&&&&&&,left,authority.vice,,,,,,0,118,118,56,,,,,,,,,,,,,,,,,,,,,,,LDT,left,4.234639342292212,1,,,left,1,4.234639342292212,,,,,,,,,,,,,,,,,,,,1004,2019_Mar_06_0949,mf_amp_cond2,3.0.4,59.97753244077292,
coom,&&&&,right,nonword,,,,,,0,119,119,71,,,,,,,,,,,,,,,,,,,,,,,LDT,left,1.9840801694663242,0,,,left,0,1.9840801694663242,,,,,,,,,,,,,,,,,,,,1004,2019_Mar_06_0949,mf_amp_cond2,3.0.4,59.97753244077292,
great,&&&&&,left,loyalty.virtue,,,,,,0,120,120,192,,,,,,,,,,,,,,,,,,,,,,,LDT,right,0.533727410947904,0,,,right,0,0.533727410947904,,,,,,,,,,,,,,,,,,,,1004,2019_Mar_06_0949,mf_amp_cond2,3.0.4,59.97753244077292,
sickyay,&&&&&&&,right,nonword,,,,,,0,121,121,178,,,,,,,,,,,,,,,,,,,,,,,LDT,left,0.7671220443444327,0,,,left,0,0.7671220443444327,,,,,,,,,,,,,,,,,,,,1004,2019_Mar_06_0949,mf_amp_cond2,3.0.4,59.97753244077292,
mecan,&&&&&,right,nonword,,,,,,0,122,122,166,,,,,,,,,,,,,,,,,,,,,,,LDT,left,0.8838302654912695,0,,,left,0,0.8838302654912695,,,,,,,,,,,,,,,,,,,,1004,2019_Mar_06_0949,mf_amp_cond2,3.0.4,59.97753244077292,
aubos,&&&&&,right,nonword,,,,,,0,123,123,78,,,,,,,,,,,,,,,,,,,,,,,LDT,left,1.4839615034870803,0,,,left,0,1.4839615034870803,,,,,,,,,,,,,,,,,,,,1004,2019_Mar_06_0949,mf_amp_cond2,3.0.4,59.97753244077292,
lachelor,&&&&&&&&,right,nonword,,,,,,0,124,124,59,,,,,,,,,,,,,,,,,,,,,,,LDT,left,2.117450684774667,0,,,left,0,2.117450684774667,,,,,,,,,,,,,,,,,,,,1004,2019_Mar_06_0949,mf_amp_cond2,3.0.4,59.97753244077292,
infet,&&&&&,right,nonword,,,,,,0,125,125,61,,,,,,,,,,,,,,,,,,,,,,,LDT,right,0.7504555807681754,1,,,right,1,0.7504555807681754,,,,,,,,,,,,,,,,,,,,1004,2019_Mar_06_0949,mf_amp_cond2,3.0.4,59.97753244077292,
fifteen,&&&&&&&,left,neutral,,,,,,0,126,126,148,,,,,,,,,,,,,,,,,,,,,,,LDT,right,0.45038386806845665,0,,,right,0,0.45038386806845665,,,,,,,,,,,,,,,,,,,,1004,2019_Mar_06_0949,mf_amp_cond2,3.0.4,59.97753244077292,
fontacts,&&&&&&&&,right,nonword,,,,,,0,127,127,197,,,,,,,,,,,,,,,,,,,,,,,LDT,left,0.6837833122117445,0,,,left,0,0.6837833122117445,,,,,,,,,,,,,,,,,,,,1004,2019_Mar_06_0949,mf_amp_cond2,3.0.4,59.97753244077292,
elsewhere,&&&&&&&&&,left,neutral,,,,,,0,128,128,133,,,,,,,,,,,,,,,,,,,,,,,LDT,right,0.7671169128734618,0,,,right,0,0.7671169128734618,,,,,,,,,,,,,,,,,,,,1004,2019_Mar_06_0949,mf_amp_cond2,3.0.4,59.97753244077292,
everything,&&&&&&&&&&,left,neutral,,,,,,0,129,129,136,,,,,,,,,,,,,,,,,,,,,,,LDT,right,0.5837251979392022,0,,,right,0,0.5837251979392022,,,,,,,,,,,,,,,,,,,,1004,2019_Mar_06_0949,mf_amp_cond2,3.0.4,59.97753244077292,
even,&&&&,left,neutral,,,,,,0,130,130,85,,,,,,,,,,,,,,,,,,,,,,,LDT,right,0.5504099105019122,0,,,right,0,0.5504099105019122,,,,,,,,,,,,,,,,,,,,1004,2019_Mar_06_0949,mf_amp_cond2,3.0.4,59.97753244077292,
tislay,&&&&&&,right,nonword,,,,,,0,131,131,38,,,,,,,,,,,,,,,,,,,,,,,LDT,left,0.6004150740336627,0,,,left,0,0.6004150740336627,,,,,,,,,,,,,,,,,,,,1004,2019_Mar_06_0949,mf_amp_cond2,3.0.4,59.97753244077292,
latterly,&&&&&&&&,left,neutral,,,,,,0,132,132,139,,,,,,,,,,,,,,,,,,,,,,,LDT,right,0.5837450826074928,0,,,right,0,0.5837450826074928,,,,,,,,,,,,,,,,,,,,1004,2019_Mar_06_0949,mf_amp_cond2,3.0.4,59.97753244077292,
blamed,&&&&&&,left,loyalty.vice,,,,,,0,133,133,35,,,,,,,,,,,,,,,,,,,,,,,LDT,right,0.683772087097168,0,,,right,0,0.683772087097168,,,,,,,,,,,,,,,,,,,,1004,2019_Mar_06_0949,mf_amp_cond2,3.0.4,59.97753244077292,
fifty,&&&&&,left,neutral,,,,,,0,134,134,193,,,,,,,,,,,,,,,,,,,,,,,LDT,right,0.5170654375106096,0,,,right,0,0.5170654375106096,,,,,,,,,,,,,,,,,,,,1004,2019_Mar_06_0949,mf_amp_cond2,3.0.4,59.97753244077292,
either,&&&&&&,left,neutral,,,,,,0,135,135,161,,,,,,,,,,,,,,,,,,,,,,,LDT,right,0.7671249308623374,0,,,right,0,0.7671249308623374,,,,,,,,,,,,,,,,,,,,1004,2019_Mar_06_0949,mf_amp_cond2,3.0.4,59.97753244077292,
three,&&&&&,left,neutral,,,,,,0,136,136,81,,,,,,,,,,,,,,,,,,,,,,,LDT,right,0.6504349906463176,0,,,right,0,0.6504349906463176,,,,,,,,,,,,,,,,,,,,1004,2019_Mar_06_0949,mf_amp_cond2,3.0.4,59.97753244077292,
eight,&&&&&,left,neutral,,,,,,0,137,137,132,,,,,,,,,,,,,,,,,,,,,,,LDT,right,0.4670577081851661,0,,,right,0,0.4670577081851661,,,,,,,,,,,,,,,,,,,,1004,2019_Mar_06_0949,mf_amp_cond2,3.0.4,59.97753244077292,
mih,&&&,right,nonword,,,,,,0,138,138,113,,,,,,,,,,,,,,,,,,,,,,,LDT,left,0.8171288114972413,0,,,left,0,0.8171288114972413,,,,,,,,,,,,,,,,,,,,1004,2019_Mar_06_0949,mf_amp_cond2,3.0.4,59.97753244077292,
framatic,&&&&&&&&,right,nonword,,,,,,0,139,139,116,,,,,,,,,,,,,,,,,,,,,,,LDT,right,0.6170918005518615,1,,,right,1,0.6170918005518615,,,,,,,,,,,,,,,,,,,,1004,2019_Mar_06_0949,mf_amp_cond2,3.0.4,59.97753244077292,
blunderints,&&&&&&&&&&&,right,nonword,,,,,,0,140,140,181,,,,,,,,,,,,,,,,,,,,,,,LDT,left,0.6838115354767069,0,,,left,0,0.6838115354767069,,,,,,,,,,,,,,,,,,,,1004,2019_Mar_06_0949,mf_amp_cond2,3.0.4,59.97753244077292,
divility,&&&&&&&&,right,nonword,,,,,,0,141,141,0,,,,,,,,,,,,,,,,,,,,,,,LDT,left,1.6173743536928669,0,,,left,0,1.6173743536928669,,,,,,,,,,,,,,,,,,,,1004,2019_Mar_06_0949,mf_amp_cond2,3.0.4,59.97753244077292,
credit,&&&&&&,left,fairness.virtue,,,,,,0,142,142,196,,,,,,,,,,,,,,,,,,,,,,,LDT,right,0.3671416724100709,0,,,right,0,0.3671416724100709,,,,,,,,,,,,,,,,,,,,1004,2019_Mar_06_0949,mf_amp_cond2,3.0.4,59.97753244077292,
ammessment,&&&&&&&&&&,right,nonword,,,,,,0,143,143,6,,,,,,,,,,,,,,,,,,,,,,,LDT,right,0.5837656086077914,1,,,right,1,0.5837656086077914,,,,,,,,,,,,,,,,,,,,1004,2019_Mar_06_0949,mf_amp_cond2,3.0.4,59.97753244077292,
fighters,&&&&&&&&,left,authority.vice,,,,,,0,144,144,114,,,,,,,,,,,,,,,,,,,,,,,LDT,right,0.6004192433319986,0,,,right,0,0.6004192433319986,,,,,,,,,,,,,,,,,,,,1004,2019_Mar_06_0949,mf_amp_cond2,3.0.4,59.97753244077292,
dignity,&&&&&&&,left,sanctity.virtue,,,,,,0,145,145,98,,,,,,,,,,,,,,,,,,,,,,,LDT,left,1.800721809384413,1,,,left,1,1.800721809384413,,,,,,,,,,,,,,,,,,,,1004,2019_Mar_06_0949,mf_amp_cond2,3.0.4,59.97753244077292,
atson,&&&&&,right,nonword,,,,,,0,146,146,174,,,,,,,,,,,,,,,,,,,,,,,LDT,right,1.8340601886156946,1,,,right,1,1.8340601886156946,,,,,,,,,,,,,,,,,,,,1004,2019_Mar_06_0949,mf_amp_cond2,3.0.4,59.97753244077292,
tracious,&&&&&&&&,right,nonword,,,,,,0,147,147,70,,,,,,,,,,,,,,,,,,,,,,,LDT,right,0.9338232416193932,1,,,right,1,0.9338232416193932,,,,,,,,,,,,,,,,,,,,1004,2019_Mar_06_0949,mf_amp_cond2,3.0.4,59.97753244077292,
reviked,&&&&&&&,right,nonword,,,,,,0,148,148,62,,,,,,,,,,,,,,,,,,,,,,,LDT,left,0.7004440028686076,0,,,left,0,0.7004440028686076,,,,,,,,,,,,,,,,,,,,1004,2019_Mar_06_0949,mf_amp_cond2,3.0.4,59.97753244077292,
latter,&&&&&&,left,neutral,,,,,,0,149,149,109,,,,,,,,,,,,,,,,,,,,,,,LDT,right,0.5337325425352901,0,,,right,0,0.5337325425352901,,,,,,,,,,,,,,,,,,,,1004,2019_Mar_06_0949,mf_amp_cond2,3.0.4,59.97753244077292,
abointment,&&&&&&&&&&,right,nonword,,,,,,0,150,150,187,,,,,,,,,,,,,,,,,,,,,,,LDT,right,1.0838618241250515,1,,,right,1,1.0838618241250515,,,,,,,,,,,,,,,,,,,,1004,2019_Mar_06_0949,mf_amp_cond2,3.0.4,59.97753244077292,
about,&&&&&,left,neutral,,,,,,0,151,151,28,,,,,,,,,,,,,,,,,,,,,,,LDT,right,0.46704584162216634,0,,,right,0,0.46704584162216634,,,,,,,,,,,,,,,,,,,,1004,2019_Mar_06_0949,mf_amp_cond2,3.0.4,59.97753244077292,
thru,&&&&,left,neutral,,,,,,0,152,152,13,,,,,,,,,,,,,,,,,,,,,,,LDT,right,0.5670766948023811,0,,,right,0,0.5670766948023811,,,,,,,,,,,,,,,,,,,,1004,2019_Mar_06_0949,mf_amp_cond2,3.0.4,59.97753244077292,
honored,&&&&&&&,left,authority.virtue,,,,,,0,153,153,183,,,,,,,,,,,,,,,,,,,,,,,LDT,right,0.967176053323783,0,,,right,0,0.967176053323783,,,,,,,,,,,,,,,,,,,,1004,2019_Mar_06_0949,mf_amp_cond2,3.0.4,59.97753244077292,
ban,&&&,left,loyalty.vice,,,,,,0,154,154,64,,,,,,,,,,,,,,,,,,,,,,,LDT,right,1.3839518178720027,0,,,right,0,1.3839518178720027,,,,,,,,,,,,,,,,,,,,1004,2019_Mar_06_0949,mf_amp_cond2,3.0.4,59.97753244077292,
greaks,&&&&&&,right,nonword,,,,,,0,155,155,117,,,,,,,,,,,,,,,,,,,,,,,LDT,left,1.0672004921361804,0,,,left,0,1.0672004921361804,,,,,,,,,,,,,,,,,,,,1004,2019_Mar_06_0949,mf_amp_cond2,3.0.4,59.97753244077292,
feleological,&&&&&&&&&&&&,right,nonword,,,,,,0,156,156,190,,,,,,,,,,,,,,,,,,,,,,,LDT,left,0.7671746421838179,0,,,left,0,0.7671746421838179,,,,,,,,,,,,,,,,,,,,1004,2019_Mar_06_0949,mf_amp_cond2,3.0.4,59.97753244077292,
brotesque,&&&&&&&&&,right,nonword,,,,,,0,157,157,104,,,,,,,,,,,,,,,,,,,,,,,LDT,right,2.9009726754156873,1,,,right,1,2.9009726754156873,,,,,,,,,,,,,,,,,,,,1004,2019_Mar_06_0949,mf_amp_cond2,3.0.4,59.97753244077292,
discovars,&&&&&&&&&,right,nonword,,,,,,0,158,158,156,,,,,,,,,,,,,,,,,,,,,,,LDT,right,1.567317233653739,1,,,right,1,1.567317233653739,,,,,,,,,,,,,,,,,,,,1004,2019_Mar_06_0949,mf_amp_cond2,3.0.4,59.97753244077292,
elduringly,&&&&&&&&&&,right,nonword,,,,,,0,159,159,140,,,,,,,,,,,,,,,,,,,,,,,LDT,left,1.6173275287728757,0,,,left,0,1.6173275287728757,,,,,,,,,,,,,,,,,,,,1004,2019_Mar_06_0949,mf_amp_cond2,3.0.4,59.97753244077292,
taxpayung,&&&&&&&&&,right,nonword,,,,,,0,160,160,172,,,,,,,,,,,,,,,,,,,,,,,LDT,left,0.9004832587670535,0,,,left,0,0.9004832587670535,,,,,,,,,,,,,,,,,,,,1004,2019_Mar_06_0949,mf_amp_cond2,3.0.4,59.97753244077292,
strong,&&&&&&,left,loyalty.virtue,,,,,,0,161,161,44,,,,,,,,,,,,,,,,,,,,,,,LDT,left,1.617328170221299,1,,,left,1,1.617328170221299,,,,,,,,,,,,,,,,,,,,1004,2019_Mar_06_0949,mf_amp_cond2,3.0.4,59.97753244077292,
gusinesslike,&&&&&&&&&&&&,right,nonword,,,,,,0,162,162,29,,,,,,,,,,,,,,,,,,,,,,,LDT,right,0.5837017856538296,1,,,right,1,0.5837017856538296,,,,,,,,,,,,,,,,,,,,1004,2019_Mar_06_0949,mf_amp_cond2,3.0.4,59.97753244077292,
fraud,&&&&&,left,fairness.vice,,,,,,0,163,163,24,,,,,,,,,,,,,,,,,,,,,,,LDT,right,3.8178677471587434,0,,,right,0,3.8178677471587434,,,,,,,,,,,,,,,,,,,,1004,2019_Mar_06_0949,mf_amp_cond2,3.0.4,59.97753244077292,
charges,&&&&&&&,left,fairness.vice,,,,,,0,164,164,112,,,,,,,,,,,,,,,,,,,,,,,LDT,right,0.466902801184915,0,,,right,0,0.466902801184915,,,,,,,,,,,,,,,,,,,,1004,2019_Mar_06_0949,mf_amp_cond2,3.0.4,59.97753244077292,
further,&&&&&&&,left,neutral,,,,,,0,165,165,16,,,,,,,,,,,,,,,,,,,,,,,LDT,right,0.45038803736679256,0,,,right,0,0.45038803736679256,,,,,,,,,,,,,,,,,,,,1004,2019_Mar_06_0949,mf_amp_cond2,3.0.4,59.97753244077292,
tenuflect,&&&&&&&&&,right,nonword,,,,,,0,166,166,191,,,,,,,,,,,,,,,,,,,,,,,LDT,left,0.6837672763504088,0,,,left,0,0.6837672763504088,,,,,,,,,,,,,,,,,,,,1004,2019_Mar_06_0949,mf_amp_cond2,3.0.4,59.97753244077292,
reprisols,&&&&&&&&&,right,nonword,,,,,,0,167,167,160,,,,,,,,,,,,,,,,,,,,,,,LDT,left,1.7840444413013756,0,,,left,0,1.7840444413013756,,,,,,,,,,,,,,,,,,,,1004,2019_Mar_06_0949,mf_amp_cond2,3.0.4,59.97753244077292,
wump,&&&&,right,nonword,,,,,,0,168,168,37,,,,,,,,,,,,,,,,,,,,,,,LDT,left,0.9004851832287386,0,,,left,0,0.9004851832287386,,,,,,,,,,,,,,,,,,,,1004,2019_Mar_06_0949,mf_amp_cond2,3.0.4,59.97753244077292,
troops,&&&&&&,left,loyalty.vice,,,,,,0,169,169,12,,,,,,,,,,,,,,,,,,,,,,,LDT,right,0.617077047470957,0,,,right,0,0.617077047470957,,,,,,,,,,,,,,,,,,,,1004,2019_Mar_06_0949,mf_amp_cond2,3.0.4,59.97753244077292,
vicissifude,&&&&&&&&&&&,right,nonword,,,,,,0,170,170,14,,,,,,,,,,,,,,,,,,,,,,,LDT,left,1.334040624788031,0,,,left,0,1.334040624788031,,,,,,,,,,,,,,,,,,,,1004,2019_Mar_06_0949,mf_amp_cond2,3.0.4,59.97753244077292,
integrity,&&&&&&&&&,left,fairness.virtue,,,,,,0,171,171,152,,,,,,,,,,,,,,,,,,,,,,,LDT,right,0.5003932011313736,0,,,right,0,0.5003932011313736,,,,,,,,,,,,,,,,,,,,1004,2019_Mar_06_0949,mf_amp_cond2,3.0.4,59.97753244077292,
baklara,&&&&&&&,right,nonword,,,,,,0,172,172,150,,,,,,,,,,,,,,,,,,,,,,,LDT,right,1.9507504494395107,1,,,right,1,1.9507504494395107,,,,,,,,,,,,,,,,,,,,1004,2019_Mar_06_0949,mf_amp_cond2,3.0.4,59.97753244077292,
suicide,&&&&&&&,left,care.vice,,,,,,0,173,173,84,,,,,,,,,,,,,,,,,,,,,,,LDT,right,0.5170747383963317,0,,,right,0,0.5170747383963317,,,,,,,,,,,,,,,,,,,,1004,2019_Mar_06_0949,mf_amp_cond2,3.0.4,59.97753244077292,
metibolic,&&&&&&&&&,right,nonword,,,,,,0,174,174,5,,,,,,,,,,,,,,,,,,,,,,,LDT,right,0.9671815056353807,1,,,right,1,0.9671815056353807,,,,,,,,,,,,,,,,,,,,1004,2019_Mar_06_0949,mf_amp_cond2,3.0.4,59.97753244077292,
chadows,&&&&&&&,right,nonword,,,,,,0,175,175,60,,,,,,,,,,,,,,,,,,,,,,,LDT,left,0.7837981294142082,0,,,left,0,0.7837981294142082,,,,,,,,,,,,,,,,,,,,1004,2019_Mar_06_0949,mf_amp_cond2,3.0.4,59.97753244077292,
bycled,&&&&&&,None,nonword,,,,,,0,176,176,15,,,,,,,,,,,,,,,,,,,,,,,LDT,left,1.2838391814148054,0,,,left,0,1.2838391814148054,,,,,,,,,,,,,,,,,,,,1004,2019_Mar_06_0949,mf_amp_cond2,3.0.4,59.97753244077292,
both,&&&&,left,neutral,,,,,,0,177,177,75,,,,,,,,,,,,,,,,,,,,,,,LDT,right,0.5004002568311989,0,,,right,0,0.5004002568311989,,,,,,,,,,,,,,,,,,,,1004,2019_Mar_06_0949,mf_amp_cond2,3.0.4,59.97753244077292,
fonderland,&&&&&&&&&&,right,nonword,,,,,,0,178,178,162,,,,,,,,,,,,,,,,,,,,,,,LDT,right,1.2839235303690657,1,,,right,1,1.2839235303690657,,,,,,,,,,,,,,,,,,,,1004,2019_Mar_06_0949,mf_amp_cond2,3.0.4,59.97753244077292,
photocalkodes,&&&&&&&&&&&&&,right,nonword,,,,,,0,179,179,86,,,,,,,,,,,,,,,,,,,,,,,LDT,left,1.2339228568598628,0,,,left,0,1.2339228568598628,,,,,,,,,,,,,,,,,,,,1004,2019_Mar_06_0949,mf_amp_cond2,3.0.4,59.97753244077292,
itself,&&&&&&,left,neutral,,,,,,0,180,180,74,,,,,,,,,,,,,,,,,,,,,,,LDT,right,0.6004538809647784,0,,,right,0,0.6004538809647784,,,,,,,,,,,,,,,,,,,,1004,2019_Mar_06_0949,mf_amp_cond2,3.0.4,59.97753244077292,
free,&&&&,left,fairness.virtue,,,,,,0,181,181,159,,,,,,,,,,,,,,,,,,,,,,,LDT,right,0.5170519673265517,0,,,right,0,0.5170519673265517,,,,,,,,,,,,,,,,,,,,1004,2019_Mar_06_0949,mf_amp_cond2,3.0.4,59.97753244077292,
front,&&&&&,left,neutral,,,,,,0,182,182,122,,,,,,,,,,,,,,,,,,,,,,,LDT,right,0.4670545009430498,0,,,right,0,0.4670545009430498,,,,,,,,,,,,,,,,,,,,1004,2019_Mar_06_0949,mf_amp_cond2,3.0.4,59.97753244077292,
also,&&&&,left,neutral,,,,,,0,183,183,144,,,,,,,,,,,,,,,,,,,,,,,LDT,right,0.7171159186400473,0,,,right,0,0.7171159186400473,,,,,,,,,,,,,,,,,,,,1004,2019_Mar_06_0949,mf_amp_cond2,3.0.4,59.97753244077292,
else,&&&&,left,neutral,,,,,,0,184,184,195,,,,,,,,,,,,,,,,,,,,,,,LDT,right,0.4503813022747636,0,,,right,0,0.4503813022747636,,,,,,,,,,,,,,,,,,,,1004,2019_Mar_06_0949,mf_amp_cond2,3.0.4,59.97753244077292,
gationwide,&&&&&&&&&&,right,nonword,,,,,,0,185,185,135,,,,,,,,,,,,,,,,,,,,,,,LDT,left,0.5837720229756087,0,,,left,0,0.5837720229756087,,,,,,,,,,,,,,,,,,,,1004,2019_Mar_06_0949,mf_amp_cond2,3.0.4,59.97753244077292,
nuckheap,&&&&&&&&,right,nonword,,,,,,0,186,186,158,,,,,,,,,,,,,,,,,,,,,,,LDT,left,1.1673025448108092,0,,,left,0,1.1673025448108092,,,,,,,,,,,,,,,,,,,,1004,2019_Mar_06_0949,mf_amp_cond2,3.0.4,59.97753244077292,
somehow,&&&&&&&,left,neutral,,,,,,0,187,187,50,,,,,,,,,,,,,,,,,,,,,,,LDT,right,0.5170619095442817,0,,,right,0,0.5170619095442817,,,,,,,,,,,,,,,,,,,,1004,2019_Mar_06_0949,mf_amp_cond2,3.0.4,59.97753244077292,
tabin,&&&&&,right,nonword,,,,,,0,188,188,33,,,,,,,,,,,,,,,,,,,,,,,LDT,left,2.250814144150354,0,,,left,0,2.250814144150354,,,,,,,,,,,,,,,,,,,,1004,2019_Mar_06_0949,mf_amp_cond2,3.0.4,59.97753244077292,
nomparisons,&&&&&&&&&&&,right,nonword,,,,,,0,189,189,45,,,,,,,,,,,,,,,,,,,,,,,LDT,right,3.684550471138209,1,,,right,1,3.684550471138209,,,,,,,,,,,,,,,,,,,,1004,2019_Mar_06_0949,mf_amp_cond2,3.0.4,59.97753244077292,
chared,&&&&&&,right,nonword,,,,,,0,190,190,163,,,,,,,,,,,,,,,,,,,,,,,LDT,left,0.733777892193757,0,,,left,0,0.733777892193757,,,,,,,,,,,,,,,,,,,,1004,2019_Mar_06_0949,mf_amp_cond2,3.0.4,59.97753244077292,
clamorek,&&&&&&&&,right,nonword,,,,,,0,191,191,90,,,,,,,,,,,,,,,,,,,,,,,LDT,left,0.7338147747796029,0,,,left,0,0.7338147747796029,,,,,,,,,,,,,,,,,,,,1004,2019_Mar_06_0949,mf_amp_cond2,3.0.4,59.97753244077292,
racist,&&&&&&,left,sanctity.vice,,,,,,0,192,192,182,,,,,,,,,,,,,,,,,,,,,,,LDT,right,0.600414753309451,0,,,right,0,0.600414753309451,,,,,,,,,,,,,,,,,,,,1004,2019_Mar_06_0949,mf_amp_cond2,3.0.4,59.97753244077292,
tove,&&&&,right,nonword,,,,,,0,193,193,27,,,,,,,,,,,,,,,,,,,,,,,LDT,left,1.0838701628381386,0,,,left,0,1.0838701628381386,,,,,,,,,,,,,,,,,,,,1004,2019_Mar_06_0949,mf_amp_cond2,3.0.4,59.97753244077292,
hence,&&&&&,left,neutral,,,,,,0,194,194,72,,,,,,,,,,,,,,,,,,,,,,,LDT,right,0.5170542123960331,0,,,right,0,0.5170542123960331,,,,,,,,,,,,,,,,,,,,1004,2019_Mar_06_0949,mf_amp_cond2,3.0.4,59.97753244077292,
been,&&&&,left,neutral,,,,,,0,195,195,142,,,,,,,,,,,,,,,,,,,,,,,LDT,right,1.0338656407548115,0,,,right,0,1.0338656407548115,,,,,,,,,,,,,,,,,,,,1004,2019_Mar_06_0949,mf_amp_cond2,3.0.4,59.97753244077292,
touls,&&&&&,right,nonword,,,,,,0,196,196,76,,,,,,,,,,,,,,,,,,,,,,,LDT,left,0.6837682385230437,0,,,left,0,0.6837682385230437,,,,,,,,,,,,,,,,,,,,1004,2019_Mar_06_0949,mf_amp_cond2,3.0.4,59.97753244077292,
each,&&&&,left,neutral,,,,,,0,197,197,69,,,,,,,,,,,,,,,,,,,,,,,LDT,right,0.4837408490711823,0,,,right,0,0.4837408490711823,,,,,,,,,,,,,,,,,,,,1004,2019_Mar_06_0949,mf_amp_cond2,3.0.4,59.97753244077292,
counpy's,&&&&&&&&,right,nonword,,,,,,0,198,198,154,,,,,,,,,,,,,,,,,,,,,,,LDT,left,0.8671650848118588,0,,,left,0,0.8671650848118588,,,,,,,,,,,,,,,,,,,,1004,2019_Mar_06_0949,mf_amp_cond2,3.0.4,59.97753244077292,
prosecution,&&&&&&&&&&&,left,authority.vice,,,,,,0,199,199,188,,,,,,,,,,,,,,,,,,,,,,,LDT,right,0.7337817407678813,0,,,right,0,0.7337817407678813,,,,,,,,,,,,,,,,,,,,1004,2019_Mar_06_0949,mf_amp_cond2,3.0.4,59.97753244077292,
,,,,,,,,,,,,,,,,,,,,,,,,,,,,,,,,,,,,,,,,,,,,3,21.191,,,,,,,,,,,,,,,,,,1004,2019_Mar_06_0949,mf_amp_cond2,3.0.4,59.97753244077292,
,,,,,,,,,,,,,,,,,,,,,,,,,,,,,,,,,,,,,,,,,,,,,,right,1.6840726004447788,,,,,,,,,,,,,,,,1004,2019_Mar_06_0949,mf_amp_cond2,3.0.4,59.97753244077292,
scarf,&&&&&&&&,,,bisebell,,,,,,,,,0,0,0,3,,,,,,,,,,,,,,,,,,,AMP_prac,right,2.250806767726317,,,,,,,,,,,right,2.250806767726317,,,,,,,,,,,,,,1004,2019_Mar_06_0949,mf_amp_cond2,3.0.4,59.97753244077292,
car,&&&&&&&&,,,cemtuper,,,,,,,,,0,1,1,0,,,,,,,,,,,,,,,,,,,AMP_prac,left,1.0171837827656418,,,,,,,,,,,left,1.0171837827656418,,,,,,,,,,,,,,1004,2019_Mar_06_0949,mf_amp_cond2,3.0.4,59.97753244077292,
banana,&&&&&&,,,kacket,,,,,,,,,0,2,2,1,,,,,,,,,,,,,,,,,,,AMP_prac,left,0.6504183133365586,,,,,,,,,,,left,0.6504183133365586,,,,,,,,,,,,,,1004,2019_Mar_06_0949,mf_amp_cond2,3.0.4,59.97753244077292,
keyboard,&&&&,,,senk,,,,,,,,,0,3,3,2,,,,,,,,,,,,,,,,,,,AMP_prac,right,0.9671632245881483,,,,,,,,,,,right,0.9671632245881483,,,,,,,,,,,,,,1004,2019_Mar_06_0949,mf_amp_cond2,3.0.4,59.97753244077292,
,,,,,,,,,,,,,,,,,,,,,,,,,,,,,,,,,,,,,,,,,,,,,,,,,,right,7.985585301765241,,,,,,,,,,,,1004,2019_Mar_06_0949,mf_amp_cond2,3.0.4,59.97753244077292,
embrace,&&&&&&&&&,left,authority.virtue,unscothed,,,,,,,,,,,,,0,0,0,186,,,,,,,,,,,,,,,AMP,left,1.1672220444306731,1,,,,,,,,,,,,,,left,1,1.1672220444306731,,,,,,,,,1004,2019_Mar_06_0949,mf_amp_cond2,3.0.4,59.97753244077292,
conspiracy,&&&&&&&&&&,right,sanctity.vice,reelectiob,,,,,,,,,,,,,0,1,1,110,,,,,,,,,,,,,,,AMP,left,1.8340486427769065,0,,,,,,,,,,,,,,left,0,1.8340486427769065,,,,,,,,,1004,2019_Mar_06_0949,mf_amp_cond2,3.0.4,59.97753244077292,
protect,&&&&&,left,fairness.virtue,noped,,,,,,,,,,,,,0,2,2,11,,,,,,,,,,,,,,,AMP,left,0.5170423458330333,1,,,,,,,,,,,,,,left,1,0.5170423458330333,,,,,,,,,1004,2019_Mar_06_0949,mf_amp_cond2,3.0.4,59.97753244077292,
voter,&&&&&&&&&&&&,right,fairness.vice,quarterbocks,,,,,,,,,,,,,0,3,3,144,,,,,,,,,,,,,,,AMP,right,0.8337968786945567,1,,,,,,,,,,,,,,right,1,0.8337968786945567,,,,,,,,,1004,2019_Mar_06_0949,mf_amp_cond2,3.0.4,59.97753244077292,
forced,&&&&&&&&&&&,right,fairness.vice,ronviolence,,,,,,,,,,,,,0,4,4,312,,,,,,,,,,,,,,,AMP,left,0.6337435110472143,0,,,,,,,,,,,,,,left,0,0.6337435110472143,,,,,,,,,1004,2019_Mar_06_0949,mf_amp_cond2,3.0.4,59.97753244077292,
rebels,&&&&,right,authority.vice,alar,,,,,,,,,,,,,0,5,5,261,,,,,,,,,,,,,,,AMP,left,1.4006093011703342,0,,,,,,,,,,,,,,left,0,1.4006093011703342,,,,,,,,,1004,2019_Mar_06_0949,mf_amp_cond2,3.0.4,59.97753244077292,
promised,&&&&&&&,left,loyalty.virtue,stindig,,,,,,,,,,,,,0,6,6,273,,,,,,,,,,,,,,,AMP,left,0.6170844240114093,1,,,,,,,,,,,,,,left,1,0.6170844240114093,,,,,,,,,1004,2019_Mar_06_0949,mf_amp_cond2,3.0.4,59.97753244077292,
help,&&&&&&&&&&&&&,left,care.virtue,synchronazers,,,,,,,,,,,,,0,7,7,264,,,,,,,,,,,,,,,AMP,right,0.9838309710612521,0,,,,,,,,,,,,,,right,0,0.9838309710612521,,,,,,,,,1004,2019_Mar_06_0949,mf_amp_cond2,3.0.4,59.97753244077292,
forced,&&&&&&&&&&,right,fairness.vice,totalestic,,,,,,,,,,,,,0,8,8,118,,,,,,,,,,,,,,,AMP,left,0.9837992198299617,0,,,,,,,,,,,,,,left,0,0.9837992198299617,,,,,,,,,1004,2019_Mar_06_0949,mf_amp_cond2,3.0.4,59.97753244077292,
actively,&&&&&&&&&&&,left,authority.virtue,fornicalion,,,,,,,,,,,,,0,9,9,150,,,,,,,,,,,,,,,AMP,left,0.5337193930754438,1,,,,,,,,,,,,,,left,1,0.5337193930754438,,,,,,,,,1004,2019_Mar_06_0949,mf_amp_cond2,3.0.4,59.97753244077292,
refused,&&&&&&&&,right,authority.vice,emassion,,,,,,,,,,,,,0,10,10,215,,,,,,,,,,,,,,,AMP,left,4.718079998739995,0,,,,,,,,,,,,,,left,0,4.718079998739995,,,,,,,,,1004,2019_Mar_06_0949,mf_amp_cond2,3.0.4,59.97753244077292,
torture,&&&&&&&&&,right,care.vice,godlaness,,,,,,,,,,,,,0,11,11,208,,,,,,,,,,,,,,,AMP,right,1.350578800891526,1,,,,,,,,,,,,,,right,1,1.350578800891526,,,,,,,,,1004,2019_Mar_06_0949,mf_amp_cond2,3.0.4,59.97753244077292,
conspiracy,&&&&&&,right,sanctity.vice,openet,,,,,,,,,,,,,0,12,12,323,,,,,,,,,,,,,,,AMP,right,1.4173091194825247,1,,,,,,,,,,,,,,right,1,1.4173091194825247,,,,,,,,,1004,2019_Mar_06_0949,mf_amp_cond2,3.0.4,59.97753244077292,
sharing,&&&&&&&&&&,left,loyalty.virtue,imebreaker,,,,,,,,,,,,,0,13,13,87,,,,,,,,,,,,,,,AMP,left,0.4170230384916067,1,,,,,,,,,,,,,,left,1,0.4170230384916067,,,,,,,,,1004,2019_Mar_06_0949,mf_amp_cond2,3.0.4,59.97753244077292,
attacks,&&&&&&&,right,care.vice,stindig,,,,,,,,,,,,,0,14,14,227,,,,,,,,,,,,,,,AMP,left,2.5342171483207494,0,,,,,,,,,,,,,,left,0,2.5342171483207494,,,,,,,,,1004,2019_Mar_06_0949,mf_amp_cond2,3.0.4,59.97753244077292,
support,&&&&&&&&&&&,left,loyalty.virtue,sowntrodden,,,,,,,,,,,,,0,15,15,212,,,,,,,,,,,,,,,AMP,left,1.3006098784971982,1,,,,,,,,,,,,,,left,1,1.3006098784971982,,,,,,,,,1004,2019_Mar_06_0949,mf_amp_cond2,3.0.4,59.97753244077292,
civilians,&&&&&&&&&,right,care.vice,seachwear,,,,,,,,,,,,,0,16,16,17,,,,,,,,,,,,,,,AMP,right,1.8340553778689355,1,,,,,,,,,,,,,,right,1,1.8340553778689355,,,,,,,,,1004,2019_Mar_06_0949,mf_amp_cond2,3.0.4,59.97753244077292,
officers,&&&&&&,right,authority.vice,erdest,,,,,,,,,,,,,0,17,17,319,,,,,,,,,,,,,,,AMP,right,1.0171687089605257,1,,,,,,,,,,,,,,right,1,1.0171687089605257,,,,,,,,,1004,2019_Mar_06_0949,mf_amp_cond2,3.0.4,59.97753244077292,
conspiracy,&&&&&&&&&&,right,sanctity.vice,frojecting,,,,,,,,,,,,,0,18,18,29,,,,,,,,,,,,,,,AMP,left,1.3172596647636965,0,,,,,,,,,,,,,,left,0,1.3172596647636965,,,,,,,,,1004,2019_Mar_06_0949,mf_amp_cond2,3.0.4,59.97753244077292,
praised,&&&&&&&&,left,loyalty.virtue,hescribe,,,,,,,,,,,,,0,19,19,142,,,,,,,,,,,,,,,AMP,left,4.60138492716942,1,,,,,,,,,,,,,,left,1,4.60138492716942,,,,,,,,,1004,2019_Mar_06_0949,mf_amp_cond2,3.0.4,59.97753244077292,
fair,&&&&&&&,left,fairness.virtue,allears,,,,,,,,,,,,,0,20,20,3,,,,,,,,,,,,,,,AMP,left,0.41703747084829956,1,,,,,,,,,,,,,,left,1,0.41703747084829956,,,,,,,,,1004,2019_Mar_06_0949,mf_amp_cond2,3.0.4,59.97753244077292,
police,&&&&&&&&&,right,authority.vice,gillipede,,,,,,,,,,,,,0,21,21,256,,,,,,,,,,,,,,,AMP,left,0.5003890317166224,0,,,,,,,,,,,,,,left,0,0.5003890317166224,,,,,,,,,1004,2019_Mar_06_0949,mf_amp_cond2,3.0.4,59.97753244077292,
died,&&&&&&&&&&&,right,care.vice,lempestuous,,,,,,,,,,,,,0,22,22,105,,,,,,,,,,,,,,,AMP,left,0.6671178108081222,0,,,,,,,,,,,,,,left,0,0.6671178108081222,,,,,,,,,1004,2019_Mar_06_0949,mf_amp_cond2,3.0.4,59.97753244077292,
rebels,&&&&&&&&,right,authority.vice,gournful,,,,,,,,,,,,,0,23,23,50,,,,,,,,,,,,,,,AMP,left,2.3508318478707224,0,,,,,,,,,,,,,,left,0,2.3508318478707224,,,,,,,,,1004,2019_Mar_06_0949,mf_amp_cond2,3.0.4,59.97753244077292,
refused,&&&&&&&&,right,authority.vice,sfumatoy,,,,,,,,,,,,,0,24,24,0,,,,,,,,,,,,,,,AMP,left,1.100538230035454,0,,,,,,,,,,,,,,left,0,1.100538230035454,,,,,,,,,1004,2019_Mar_06_0949,mf_amp_cond2,3.0.4,59.97753244077292,
betrayal,&&&&&,right,loyalty.vice,leact,,,,,,,,,,,,,0,25,25,59,,,,,,,,,,,,,,,AMP,left,1.784062722348608,0,,,,,,,,,,,,,,left,0,1.784062722348608,,,,,,,,,1004,2019_Mar_06_0949,mf_amp_cond2,3.0.4,59.97753244077292,
respect,&&&&&&&&&&&,left,sanctity.virtue,shoirmaster,,,,,,,,,,,,,0,26,26,178,,,,,,,,,,,,,,,AMP,left,1.283911022474058,1,,,,,,,,,,,,,,left,1,1.283911022474058,,,,,,,,,1004,2019_Mar_06_0949,mf_amp_cond2,3.0.4,59.97753244077292,
benefit,&&&&&&,left,fairness.virtue,laming,,,,,,,,,,,,,0,27,27,315,,,,,,,,,,,,,,,AMP,left,0.6671011334983632,1,,,,,,,,,,,,,,left,1,0.6671011334983632,,,,,,,,,1004,2019_Mar_06_0949,mf_amp_cond2,3.0.4,59.97753244077292,
sexual,&&&&&,right,sanctity.vice,lenon,,,,,,,,,,,,,0,28,28,141,,,,,,,,,,,,,,,AMP,left,2.1007633744738996,0,,,,,,,,,,,,,,left,0,2.1007633744738996,,,,,,,,,1004,2019_Mar_06_0949,mf_amp_cond2,3.0.4,59.97753244077292,
shot,&&&&&&&&&&&,right,care.vice,ronviolence,,,,,,,,,,,,,0,29,29,240,,,,,,,,,,,,,,,AMP,left,0.48374309414066374,0,,,,,,,,,,,,,,left,0,0.48374309414066374,,,,,,,,,1004,2019_Mar_06_0949,mf_amp_cond2,3.0.4,59.97753244077292,
critics,&&&&&&&&&&&,right,loyalty.vice,shoirmaster,,,,,,,,,,,,,0,30,30,97,,,,,,,,,,,,,,,AMP,left,1.0004983966937289,0,,,,,,,,,,,,,,left,0,1.0004983966937289,,,,,,,,,1004,2019_Mar_06_0949,mf_amp_cond2,3.0.4,59.97753244077292,
pafer,&&&&&,None,nonword,framo,,,,,,,,,,,,,0,31,31,133,,,,,,,,,,,,,,,AMP,right,0.650261802598834,0,,,,,,,,,,,,,,right,0,0.650261802598834,,,,,,,,,1004,2019_Mar_06_0949,mf_amp_cond2,3.0.4,59.97753244077292,
victim,&&&&&&&&,right,care.vice,crinking,,,,,,,,,,,,,0,32,32,292,,,,,,,,,,,,,,,AMP,left,0.9671625832561404,0,,,,,,,,,,,,,,left,0,0.9671625832561404,,,,,,,,,1004,2019_Mar_06_0949,mf_amp_cond2,3.0.4,59.97753244077292,
trust,&&&&&&&&&&,left,authority.virtue,ejanulated,,,,,,,,,,,,,0,33,33,99,,,,,,,,,,,,,,,AMP,right,0.4338200344936922,0,,,,,,,,,,,,,,right,0,0.4338200344936922,,,,,,,,,1004,2019_Mar_06_0949,mf_amp_cond2,3.0.4,59.97753244077292,
critics,&&&&&&,right,loyalty.vice,papert,,,,,,,,,,,,,0,34,34,210,,,,,,,,,,,,,,,AMP,left,0.55037976289168,0,,,,,,,,,,,,,,left,0,0.55037976289168,,,,,,,,,1004,2019_Mar_06_0949,mf_amp_cond2,3.0.4,59.97753244077292,
friends,&&&&&&,left,loyalty.virtue,prones,,,,,,,,,,,,,0,35,35,174,,,,,,,,,,,,,,,AMP,right,0.6837595789693296,0,,,,,,,,,,,,,,right,0,0.6837595789693296,,,,,,,,,1004,2019_Mar_06_0949,mf_amp_cond2,3.0.4,59.97753244077292,
threatened,&&&&&&&&,right,fairness.vice,sfumatoy,,,,,,,,,,,,,0,36,36,324,,,,,,,,,,,,,,,AMP,left,1.5673005563439801,0,,,,,,,,,,,,,,left,0,1.5673005563439801,,,,,,,,,1004,2019_Mar_06_0949,mf_amp_cond2,3.0.4,59.97753244077292,
gandbrake,&&&&&&,None,nonword,erdest,,,,,,,,,,,,,0,37,37,222,,,,,,,,,,,,,,,AMP,right,0.8171368294861168,0,,,,,,,,,,,,,,right,0,0.8171368294861168,,,,,,,,,1004,2019_Mar_06_0949,mf_amp_cond2,3.0.4,59.97753244077292,
black,&&&&&&&&&&,right,loyalty.vice,frojecting,,,,,,,,,,,,,0,38,38,304,,,,,,,,,,,,,,,AMP,left,1.0338518497301266,0,,,,,,,,,,,,,,left,0,1.0338518497301266,,,,,,,,,1004,2019_Mar_06_0949,mf_amp_cond2,3.0.4,59.97753244077292,
squets,&&&&&&&&&&,None,nonword,imebreaker,,,,,,,,,,,,,0,39,39,179,,,,,,,,,,,,,,,AMP,left,0.5670754119055346,0,,,,,,,,,,,,,,left,0,0.5670754119055346,,,,,,,,,1004,2019_Mar_06_0949,mf_amp_cond2,3.0.4,59.97753244077292,
intelligence,&&&&&&&&&,left,loyalty.virtue,disregord,,,,,,,,,,,,,0,40,40,159,,,,,,,,,,,,,,,AMP,left,1.6339840500149876,1,,,,,,,,,,,,,,left,1,1.6339840500149876,,,,,,,,,1004,2019_Mar_06_0949,mf_amp_cond2,3.0.4,59.97753244077292,
voter,&&&&&&,right,fairness.vice,Boeinf,,,,,,,,,,,,,0,41,41,78,,,,,,,,,,,,,,,AMP,left,4.9014515082817525,0,,,,,,,,,,,,,,left,0,4.9014515082817525,,,,,,,,,1004,2019_Mar_06_0949,mf_amp_cond2,3.0.4,59.97753244077292,
prison,&&&&&&&,right,fairness.vice,emports,,,,,,,,,,,,,0,42,42,152,,,,,,,,,,,,,,,AMP,left,0.750291372765787,0,,,,,,,,,,,,,,left,0,0.750291372765787,,,,,,,,,1004,2019_Mar_06_0949,mf_amp_cond2,3.0.4,59.97753244077292,
critics,&&&&&&,right,loyalty.vice,laming,,,,,,,,,,,,,0,43,43,51,,,,,,,,,,,,,,,AMP,left,0.43350733385886997,0,,,,,,,,,,,,,,left,0,0.43350733385886997,,,,,,,,,1004,2019_Mar_06_0949,mf_amp_cond2,3.0.4,59.97753244077292,
lies,&&&&&&&,right,fairness.vice,carvels,,,,,,,,,,,,,0,44,44,190,,,,,,,,,,,,,,,AMP,left,2.1507823289139196,0,,,,,,,,,,,,,,left,0,2.1507823289139196,,,,,,,,,1004,2019_Mar_06_0949,mf_amp_cond2,3.0.4,59.97753244077292,
black,&&&&&&&&&,right,loyalty.vice,fangsters,,,,,,,,,,,,,0,45,45,19,,,,,,,,,,,,,,,AMP,left,0.7337525553302839,0,,,,,,,,,,,,,,left,0,0.7337525553302839,,,,,,,,,1004,2019_Mar_06_0949,mf_amp_cond2,3.0.4,59.97753244077292,
intelligence,&&&&&&,left,loyalty.virtue,forepo,,,,,,,,,,,,,0,46,46,200,,,,,,,,,,,,,,,AMP,left,0.36701338493730873,1,,,,,,,,,,,,,,left,1,0.36701338493730873,,,,,,,,,1004,2019_Mar_06_0949,mf_amp_cond2,3.0.4,59.97753244077292,
refused,&&&&&,right,authority.vice,pulge,,,,,,,,,,,,,0,47,47,285,,,,,,,,,,,,,,,AMP,left,1.2338994444580749,0,,,,,,,,,,,,,,left,0,1.2338994444580749,,,,,,,,,1004,2019_Mar_06_0949,mf_amp_cond2,3.0.4,59.97753244077292,
rebels,&&&&&&&&&,right,authority.vice,baladroit,,,,,,,,,,,,,0,48,48,121,,,,,,,,,,,,,,,AMP,left,1.083854768308811,0,,,,,,,,,,,,,,left,0,1.083854768308811,,,,,,,,,1004,2019_Mar_06_0949,mf_amp_cond2,3.0.4,59.97753244077292,
energy,&&&&&&&&&,left,sanctity.virtue,gillipede,,,,,,,,,,,,,0,49,49,180,,,,,,,,,,,,,,,AMP,left,0.8671580289956182,1,,,,,,,,,,,,,,left,1,0.8671580289956182,,,,,,,,,1004,2019_Mar_06_0949,mf_amp_cond2,3.0.4,59.97753244077292,
officers,&&&&&&&&&,right,authority.vice,Lacedonia,,,,,,,,,,,,,0,50,50,36,,,,,,,,,,,,,,,AMP,left,0.3336839856347069,0,,,,,,,,,,,,,,left,0,0.3336839856347069,,,,,,,,,1004,2019_Mar_06_0949,mf_amp_cond2,3.0.4,59.97753244077292,
praised,&&&&&&&,left,loyalty.virtue,chreams,,,,,,,,,,,,,0,51,51,172,,,,,,,,,,,,,,,AMP,right,0.4503780951490626,0,,,,,,,,,,,,,,right,0,0.4503780951490626,,,,,,,,,1004,2019_Mar_06_0949,mf_amp_cond2,3.0.4,59.97753244077292,
police,&&&&&&&&&&,right,authority.vice,totalestic,,,,,,,,,,,,,0,52,52,41,,,,,,,,,,,,,,,AMP,left,0.4503873960347846,0,,,,,,,,,,,,,,left,0,0.4503873960347846,,,,,,,,,1004,2019_Mar_06_0949,mf_amp_cond2,3.0.4,59.97753244077292,
victim,&&&&&&,right,care.vice,pumber,,,,,,,,,,,,,0,53,53,198,,,,,,,,,,,,,,,AMP,left,0.467039427254349,0,,,,,,,,,,,,,,left,0,0.467039427254349,,,,,,,,,1004,2019_Mar_06_0949,mf_amp_cond2,3.0.4,59.97753244077292,
ability,&&&&&&,left,authority.virtue,pumber,,,,,,,,,,,,,0,54,54,263,,,,,,,,,,,,,,,AMP,left,4.034578918828629,1,,,,,,,,,,,,,,left,1,4.034578918828629,,,,,,,,,1004,2019_Mar_06_0949,mf_amp_cond2,3.0.4,59.97753244077292,
perfect,&&&&&&,left,sanctity.virtue,forepo,,,,,,,,,,,,,0,55,55,307,,,,,,,,,,,,,,,AMP,left,0.3503568636951968,1,,,,,,,,,,,,,,left,1,0.3503568636951968,,,,,,,,,1004,2019_Mar_06_0949,mf_amp_cond2,3.0.4,59.97753244077292,
protesters,&&&&&&&&&&,right,authority.vice,frojecting,,,,,,,,,,,,,0,56,56,218,,,,,,,,,,,,,,,AMP,left,0.6004481080453843,0,,,,,,,,,,,,,,left,0,0.6004481080453843,,,,,,,,,1004,2019_Mar_06_0949,mf_amp_cond2,3.0.4,59.97753244077292,
growth,&&&&&&&&,left,care.virtue,sfumatoy,,,,,,,,,,,,,0,57,57,232,,,,,,,,,,,,,,,AMP,left,0.5170997544191778,1,,,,,,,,,,,,,,left,1,0.5170997544191778,,,,,,,,,1004,2019_Mar_06_0949,mf_amp_cond2,3.0.4,59.97753244077292,
agreement,&&&&&&,left,fairness.virtue,sonvoy,,,,,,,,,,,,,0,58,58,42,,,,,,,,,,,,,,,AMP,right,1.5673028012970462,0,,,,,,,,,,,,,,right,0,1.5673028012970462,,,,,,,,,1004,2019_Mar_06_0949,mf_amp_cond2,3.0.4,59.97753244077292,
slavery,&&&&&&&&&,right,loyalty.vice,fangsters,,,,,,,,,,,,,0,59,59,296,,,,,,,,,,,,,,,AMP,left,0.43369367136619985,0,,,,,,,,,,,,,,left,0,0.43369367136619985,,,,,,,,,1004,2019_Mar_06_0949,mf_amp_cond2,3.0.4,59.97753244077292,
lursuer,&&&&&&&&,None,nonword,proached,,,,,,,,,,,,,0,60,60,279,,,,,,,,,,,,,,,AMP,right,1.500627325498499,0,,,,,,,,,,,,,,right,0,1.500627325498499,,,,,,,,,1004,2019_Mar_06_0949,mf_amp_cond2,3.0.4,59.97753244077292,
gun,&&&&&&&&&&,right,authority.vice,pistraught,,,,,,,,,,,,,0,61,61,1,,,,,,,,,,,,,,,AMP,left,0.6837502782000229,0,,,,,,,,,,,,,,left,0,0.6837502782000229,,,,,,,,,1004,2019_Mar_06_0949,mf_amp_cond2,3.0.4,59.97753244077292,
trust,&&&&&&&&,left,authority.virtue,emassion,,,,,,,,,,,,,0,62,62,4,,,,,,,,,,,,,,,AMP,left,1.3172587025910616,1,,,,,,,,,,,,,,left,1,1.3172587025910616,,,,,,,,,1004,2019_Mar_06_0949,mf_amp_cond2,3.0.4,59.97753244077292,
scock,&&&&&&&&&,None,nonword,seachwear,,,,,,,,,,,,,0,63,63,298,,,,,,,,,,,,,,,AMP,left,0.7504177360096946,0,,,,,,,,,,,,,,left,0,0.7504177360096946,,,,,,,,,1004,2019_Mar_06_0949,mf_amp_cond2,3.0.4,59.97753244077292,
gun,&&&&&&&&&,right,authority.vice,crilfully,,,,,,,,,,,,,0,64,64,310,,,,,,,,,,,,,,,AMP,right,1.0171603702474385,1,,,,,,,,,,,,,,right,1,1.0171603702474385,,,,,,,,,1004,2019_Mar_06_0949,mf_amp_cond2,3.0.4,59.97753244077292,
hand,&&&&&&&&&&,left,sanctity.virtue,Oregoniuns,,,,,,,,,,,,,0,65,65,283,,,,,,,,,,,,,,,AMP,left,1.617332980968058,1,,,,,,,,,,,,,,left,1,1.617332980968058,,,,,,,,,1004,2019_Mar_06_0949,mf_amp_cond2,3.0.4,59.97753244077292,
betrayal,&&&&&&&&&&,right,loyalty.vice,ejanulated,,,,,,,,,,,,,0,66,66,196,,,,,,,,,,,,,,,AMP,left,0.6337380588520318,0,,,,,,,,,,,,,,left,0,0.6337380588520318,,,,,,,,,1004,2019_Mar_06_0949,mf_amp_cond2,3.0.4,59.97753244077292,
scock,&&&&&&&&&&&,None,nonword,ronviolence,,,,,,,,,,,,,0,67,67,126,,,,,,,,,,,,,,,AMP,left,0.4837020421400666,0,,,,,,,,,,,,,,left,0,0.4837020421400666,,,,,,,,,1004,2019_Mar_06_0949,mf_amp_cond2,3.0.4,59.97753244077292,
threatened,&&&&&&&&&&,right,fairness.vice,Oregoniuns,,,,,,,,,,,,,0,68,68,14,,,,,,,,,,,,,,,AMP,left,3.3344100926769897,0,,,,,,,,,,,,,,left,0,3.3344100926769897,,,,,,,,,1004,2019_Mar_06_0949,mf_amp_cond2,3.0.4,59.97753244077292,
squets,&&&&&&,None,nonword,fostet,,,,,,,,,,,,,0,69,69,289,,,,,,,,,,,,,,,AMP,left,1.1505459593608975,0,,,,,,,,,,,,,,left,0,1.1505459593608975,,,,,,,,,1004,2019_Mar_06_0949,mf_amp_cond2,3.0.4,59.97753244077292,
civilians,&&&&&&&&,right,care.vice,slending,,,,,,,,,,,,,0,70,70,122,,,,,,,,,,,,,,,AMP,left,0.48371615377254784,0,,,,,,,,,,,,,,left,0,0.48371615377254784,,,,,,,,,1004,2019_Mar_06_0949,mf_amp_cond2,3.0.4,59.97753244077292,
corruption,&&&&&&&&&&&,right,sanctity.vice,lempestuous,,,,,,,,,,,,,0,71,71,53,,,,,,,,,,,,,,,AMP,left,0.6337569812312722,0,,,,,,,,,,,,,,left,0,0.6337569812312722,,,,,,,,,1004,2019_Mar_06_0949,mf_amp_cond2,3.0.4,59.97753244077292,
bluently,&&&&&&&,None,nonword,nackers,,,,,,,,,,,,,0,72,72,111,,,,,,,,,,,,,,,AMP,left,3.2676913199247792,0,,,,,,,,,,,,,,left,0,3.2676913199247792,,,,,,,,,1004,2019_Mar_06_0949,mf_amp_cond2,3.0.4,59.97753244077292,
interests,&&&&&&&&&&&,left,fairness.virtue,fornicalion,,,,,,,,,,,,,0,73,73,282,,,,,,,,,,,,,,,AMP,left,0.5170888499123976,1,,,,,,,,,,,,,,left,1,0.5170888499123976,,,,,,,,,1004,2019_Mar_06_0949,mf_amp_cond2,3.0.4,59.97753244077292,
lies,&&&&&&&&&&&,right,fairness.vice,ronviolence,,,,,,,,,,,,,0,74,74,33,,,,,,,,,,,,,,,AMP,left,0.6337550568860024,0,,,,,,,,,,,,,,left,0,0.6337550568860024,,,,,,,,,1004,2019_Mar_06_0949,mf_amp_cond2,3.0.4,59.97753244077292,
dumid,&&&&&&&,None,nonword,menizen,,,,,,,,,,,,,0,75,75,73,,,,,,,,,,,,,,,AMP,left,1.9507222261745483,0,,,,,,,,,,,,,,left,0,1.9507222261745483,,,,,,,,,1004,2019_Mar_06_0949,mf_amp_cond2,3.0.4,59.97753244077292,
perfect,&&&&&&,left,sanctity.virtue,strofe,,,,,,,,,,,,,0,76,76,204,,,,,,,,,,,,,,,AMP,right,0.4003565749153495,0,,,,,,,,,,,,,,right,0,0.4003565749153495,,,,,,,,,1004,2019_Mar_06_0949,mf_amp_cond2,3.0.4,59.97753244077292,
growth,&&&&&&&&&&,left,care.virtue,imebreaker,,,,,,,,,,,,,0,77,77,24,,,,,,,,,,,,,,,AMP,left,0.7504799553425983,1,,,,,,,,,,,,,,left,1,0.7504799553425983,,,,,,,,,1004,2019_Mar_06_0949,mf_amp_cond2,3.0.4,59.97753244077292,
gun,&&&&&&&&&,right,authority.vice,godlaness,,,,,,,,,,,,,0,78,78,155,,,,,,,,,,,,,,,AMP,right,0.6504455743124709,1,,,,,,,,,,,,,,right,1,0.6504455743124709,,,,,,,,,1004,2019_Mar_06_0949,mf_amp_cond2,3.0.4,59.97753244077292,
voter,&&&&&&&,right,fairness.vice,emports,,,,,,,,,,,,,0,79,79,321,,,,,,,,,,,,,,,AMP,left,0.8838469429174438,0,,,,,,,,,,,,,,left,0,0.8838469429174438,,,,,,,,,1004,2019_Mar_06_0949,mf_amp_cond2,3.0.4,59.97753244077292,
failure,&&&&&&&&&,right,loyalty.vice,fangsters,,,,,,,,,,,,,0,80,80,226,,,,,,,,,,,,,,,AMP,left,6.601925979484804,0,,,,,,,,,,,,,,left,0,6.601925979484804,,,,,,,,,1004,2019_Mar_06_0949,mf_amp_cond2,3.0.4,59.97753244077292,
protect,&&&&&&&&,left,fairness.virtue,hescribe,,,,,,,,,,,,,0,81,81,267,,,,,,,,,,,,,,,AMP,right,1.6173195107840002,0,,,,,,,,,,,,,,right,0,1.6173195107840002,,,,,,,,,1004,2019_Mar_06_0949,mf_amp_cond2,3.0.4,59.97753244077292,
help,&&&&&&&,left,care.virtue,emports,,,,,,,,,,,,,0,82,82,64,,,,,,,,,,,,,,,AMP,left,0.35032350884284824,1,,,,,,,,,,,,,,left,1,0.35032350884284824,,,,,,,,,1004,2019_Mar_06_0949,mf_amp_cond2,3.0.4,59.97753244077292,
betrayal,&&&&&&&,right,loyalty.vice,hatigue,,,,,,,,,,,,,0,83,83,291,,,,,,,,,,,,,,,AMP,left,0.8838132674572989,0,,,,,,,,,,,,,,left,0,0.8838132674572989,,,,,,,,,1004,2019_Mar_06_0949,mf_amp_cond2,3.0.4,59.97753244077292,
improve,&&&&&&&&&&,left,care.virtue,pistraught,,,,,,,,,,,,,0,84,84,183,,,,,,,,,,,,,,,AMP,left,1.1838801692938432,1,,,,,,,,,,,,,,left,1,1.1838801692938432,,,,,,,,,1004,2019_Mar_06_0949,mf_amp_cond2,3.0.4,59.97753244077292,
groups,&&&&&&&&&,right,loyalty.vice,disregord,,,,,,,,,,,,,0,85,85,35,,,,,,,,,,,,,,,AMP,left,1.1005221939412877,0,,,,,,,,,,,,,,left,0,1.1005221939412877,,,,,,,,,1004,2019_Mar_06_0949,mf_amp_cond2,3.0.4,59.97753244077292,
prison,&&&&&&&&&&&&,right,fairness.vice,quarterbocks,,,,,,,,,,,,,0,86,86,184,,,,,,,,,,,,,,,AMP,left,0.5837437997106463,0,,,,,,,,,,,,,,left,0,0.5837437997106463,,,,,,,,,1004,2019_Mar_06_0949,mf_amp_cond2,3.0.4,59.97753244077292,
loyalty,&&&&,left,loyalty.virtue,alar,,,,,,,,,,,,,0,87,87,43,,,,,,,,,,,,,,,AMP,right,0.7836419394006953,0,,,,,,,,,,,,,,right,0,0.7836419394006953,,,,,,,,,1004,2019_Mar_06_0949,mf_amp_cond2,3.0.4,59.97753244077292,
energy,&&&&&&&&&&&&&,left,sanctity.virtue,synchronazers,,,,,,,,,,,,,0,88,88,48,,,,,,,,,,,,,,,AMP,left,0.6004346378613263,1,,,,,,,,,,,,,,left,1,0.6004346378613263,,,,,,,,,1004,2019_Mar_06_0949,mf_amp_cond2,3.0.4,59.97753244077292,
sharing,&&&&&&,left,loyalty.virtue,Cunday,,,,,,,,,,,,,0,89,89,67,,,,,,,,,,,,,,,AMP,left,0.5837508555268869,1,,,,,,,,,,,,,,left,1,0.5837508555268869,,,,,,,,,1004,2019_Mar_06_0949,mf_amp_cond2,3.0.4,59.97753244077292,
protesters,&&&&&&&&&&&,right,authority.vice,sowntrodden,,,,,,,,,,,,,0,90,90,52,,,,,,,,,,,,,,,AMP,left,1.0004983966937289,0,,,,,,,,,,,,,,left,0,1.0004983966937289,,,,,,,,,1004,2019_Mar_06_0949,mf_amp_cond2,3.0.4,59.97753244077292,
sexual,&&&&&&&&,right,sanctity.vice,sidearbs,,,,,,,,,,,,,0,91,91,201,,,,,,,,,,,,,,,AMP,left,1.0671841354342178,0,,,,,,,,,,,,,,left,0,1.0671841354342178,,,,,,,,,1004,2019_Mar_06_0949,mf_amp_cond2,3.0.4,59.97753244077292,
rebels,&&&&&&&&&,right,authority.vice,disregord,,,,,,,,,,,,,0,92,92,189,,,,,,,,,,,,,,,AMP,left,0.6671181315323338,0,,,,,,,,,,,,,,left,0,0.6671181315323338,,,,,,,,,1004,2019_Mar_06_0949,mf_amp_cond2,3.0.4,59.97753244077292,
encourage,&&&&&&&&&,left,authority.virtue,seachwear,,,,,,,,,,,,,0,93,93,92,,,,,,,,,,,,,,,AMP,left,0.4170563933439553,1,,,,,,,,,,,,,,left,1,0.4170563933439553,,,,,,,,,1004,2019_Mar_06_0949,mf_amp_cond2,3.0.4,59.97753244077292,
encourage,&&&&&&&&,left,authority.virtue,sliptery,,,,,,,,,,,,,0,94,94,234,,,,,,,,,,,,,,,AMP,left,0.9838293674401939,1,,,,,,,,,,,,,,left,1,0.9838293674401939,,,,,,,,,1004,2019_Mar_06_0949,mf_amp_cond2,3.0.4,59.97753244077292,
progress,&&&&&&&,left,authority.virtue,stindig,,,,,,,,,,,,,0,95,95,89,,,,,,,,,,,,,,,AMP,left,0.7337599318707362,1,,,,,,,,,,,,,,left,1,0.7337599318707362,,,,,,,,,1004,2019_Mar_06_0949,mf_amp_cond2,3.0.4,59.97753244077292,
hand,&&&&&&,left,sanctity.virtue,strofe,,,,,,,,,,,,,0,96,96,57,,,,,,,,,,,,,,,AMP,left,1.0671921534230933,1,,,,,,,,,,,,,,left,1,1.0671921534230933,,,,,,,,,1004,2019_Mar_06_0949,mf_amp_cond2,3.0.4,59.97753244077292,
pleasant,&&&&&&&&&,None,control,disregord,,,,,,,,,,,,,0,97,97,255,,,,,,,,,,,,,,,AMP,left,0.3836702269036323,0,,,,,,,,,,,,,,left,0,0.3836702269036323,,,,,,,,,1004,2019_Mar_06_0949,mf_amp_cond2,3.0.4,59.97753244077292,
faith,&&&&&,left,sanctity.virtue,ablow,,,,,,,,,,,,,0,98,98,153,,,,,,,,,,,,,,,AMP,right,0.8338154803495854,0,,,,,,,,,,,,,,right,0,0.8338154803495854,,,,,,,,,1004,2019_Mar_06_0949,mf_amp_cond2,3.0.4,59.97753244077292,
civilians,&&&&&&&,right,care.vice,halaise,,,,,,,,,,,,,0,99,99,260,,,,,,,,,,,,,,,AMP,left,1.1505507701076567,0,,,,,,,,,,,,,,left,0,1.1505507701076567,,,,,,,,,1004,2019_Mar_06_0949,mf_amp_cond2,3.0.4,59.97753244077292,
support,&&&&&&&,left,loyalty.virtue,nomaric,,,,,,,,,,,,,0,100,100,49,,,,,,,,,,,,,,,AMP,left,1.3506333230761811,1,,,,,,,,,,,,,,left,1,1.3506333230761811,,,,,,,,,1004,2019_Mar_06_0949,mf_amp_cond2,3.0.4,59.97753244077292,
prison,&&&&&,right,fairness.vice,ablow,,,,,,,,,,,,,0,101,101,250,,,,,,,,,,,,,,,AMP,left,1.0338653200305998,0,,,,,,,,,,,,,,left,0,1.0338653200305998,,,,,,,,,1004,2019_Mar_06_0949,mf_amp_cond2,3.0.4,59.97753244077292,
improve,&&&&&&&&&&&&,left,care.virtue,unreflectuve,,,,,,,,,,,,,0,102,102,80,,,,,,,,,,,,,,,AMP,right,0.583733857376501,0,,,,,,,,,,,,,,right,0,0.583733857376501,,,,,,,,,1004,2019_Mar_06_0949,mf_amp_cond2,3.0.4,59.97753244077292,
scock,&&&&&&&&&,None,nonword,baladroit,,,,,,,,,,,,,0,103,103,13,,,,,,,,,,,,,,,AMP,left,1.000478191417642,0,,,,,,,,,,,,,,left,0,1.000478191417642,,,,,,,,,1004,2019_Mar_06_0949,mf_amp_cond2,3.0.4,59.97753244077292,
trust,&&&&&&&&,left,authority.virtue,sliptery,,,,,,,,,,,,,0,104,104,303,,,,,,,,,,,,,,,AMP,left,1.3339209967525676,1,,,,,,,,,,,,,,left,1,1.3339209967525676,,,,,,,,,1004,2019_Mar_06_0949,mf_amp_cond2,3.0.4,59.97753244077292,
grovelire,&&&&&&&&&,None,nonword,fangsters,,,,,,,,,,,,,0,105,105,104,,,,,,,,,,,,,,,AMP,left,0.6670915118884295,0,,,,,,,,,,,,,,left,0,0.6670915118884295,,,,,,,,,1004,2019_Mar_06_0949,mf_amp_cond2,3.0.4,59.97753244077292,
freedom,&&&&&,left,sanctity.virtue,ablow,,,,,,,,,,,,,0,106,106,69,,,,,,,,,,,,,,,AMP,right,1.5839801693800837,0,,,,,,,,,,,,,,right,0,1.5839801693800837,,,,,,,,,1004,2019_Mar_06_0949,mf_amp_cond2,3.0.4,59.97753244077292,
trust,&&&&&&&&&,left,authority.virtue,seachwear,,,,,,,,,,,,,0,107,107,238,,,,,,,,,,,,,,,AMP,left,1.0838669557124376,1,,,,,,,,,,,,,,left,1,1.0838669557124376,,,,,,,,,1004,2019_Mar_06_0949,mf_amp_cond2,3.0.4,59.97753244077292,
support,&&&&&&&&,left,loyalty.virtue,gournful,,,,,,,,,,,,,0,108,108,100,,,,,,,,,,,,,,,AMP,left,0.4670766305644065,1,,,,,,,,,,,,,,left,1,0.4670766305644065,,,,,,,,,1004,2019_Mar_06_0949,mf_amp_cond2,3.0.4,59.97753244077292,
sexual,&&&&&&&&,right,sanctity.vice,emassion,,,,,,,,,,,,,0,109,109,327,,,,,,,,,,,,,,,AMP,left,0.3670143469935283,0,,,,,,,,,,,,,,left,0,0.3670143469935283,,,,,,,,,1004,2019_Mar_06_0949,mf_amp_cond2,3.0.4,59.97753244077292,
injured,&&&&&&&&&&,right,care.vice,Oregoniuns,,,,,,,,,,,,,0,110,110,192,,,,,,,,,,,,,,,AMP,left,0.43375460791867226,0,,,,,,,,,,,,,,left,0,0.43375460791867226,,,,,,,,,1004,2019_Mar_06_0949,mf_amp_cond2,3.0.4,59.97753244077292,
care,&&&&&&&&&&&&,left,care.virtue,rorroborated,,,,,,,,,,,,,0,111,111,293,,,,,,,,,,,,,,,AMP,left,1.700581270386465,1,,,,,,,,,,,,,,left,1,1.700581270386465,,,,,,,,,1004,2019_Mar_06_0949,mf_amp_cond2,3.0.4,59.97753244077292,
protesters,&&&&&&,right,authority.vice,pumber,,,,,,,,,,,,,0,112,112,151,,,,,,,,,,,,,,,AMP,left,0.6170135452412069,0,,,,,,,,,,,,,,left,0,0.6170135452412069,,,,,,,,,1004,2019_Mar_06_0949,mf_amp_cond2,3.0.4,59.97753244077292,
respect,&&&&&&&&&,left,sanctity.virtue,unscothed,,,,,,,,,,,,,0,113,113,16,,,,,,,,,,,,,,,AMP,left,1.4337914905045182,1,,,,,,,,,,,,,,left,1,1.4337914905045182,,,,,,,,,1004,2019_Mar_06_0949,mf_amp_cond2,3.0.4,59.97753244077292,
men,&&&&&&&&&&,right,loyalty.vice,reelectiob,,,,,,,,,,,,,0,114,114,65,,,,,,,,,,,,,,,AMP,left,1.5006337399827316,0,,,,,,,,,,,,,,left,0,1.5006337399827316,,,,,,,,,1004,2019_Mar_06_0949,mf_amp_cond2,3.0.4,59.97753244077292,
pafer,&&&&&&&&&&,None,nonword,simplustic,,,,,,,,,,,,,0,115,115,206,,,,,,,,,,,,,,,AMP,left,0.3836872249376029,0,,,,,,,,,,,,,,left,0,0.3836872249376029,,,,,,,,,1004,2019_Mar_06_0949,mf_amp_cond2,3.0.4,59.97753244077292,
benefit,&&&&&&&&&,left,fairness.virtue,faspberry,,,,,,,,,,,,,0,116,116,220,,,,,,,,,,,,,,,AMP,right,1.1838881871663034,0,,,,,,,,,,,,,,right,0,1.1838881871663034,,,,,,,,,1004,2019_Mar_06_0949,mf_amp_cond2,3.0.4,59.97753244077292,
gandbrake,&&&&&&&&,None,nonword,sidearbs,,,,,,,,,,,,,0,117,117,115,,,,,,,,,,,,,,,AMP,left,0.833793030004017,0,,,,,,,,,,,,,,left,0,0.833793030004017,,,,,,,,,1004,2019_Mar_06_0949,mf_amp_cond2,3.0.4,59.97753244077292,
freedom,&&&&&&&,left,sanctity.virtue,nomaric,,,,,,,,,,,,,0,118,118,277,,,,,,,,,,,,,,,AMP,right,3.3010736376745626,0,,,,,,,,,,,,,,right,0,3.3010736376745626,,,,,,,,,1004,2019_Mar_06_0949,mf_amp_cond2,3.0.4,59.97753244077292,
scandal,&&&&&&&&,right,sanctity.vice,gournful,,,,,,,,,,,,,0,119,119,197,,,,,,,,,,,,,,,AMP,left,0.5670718839392066,0,,,,,,,,,,,,,,left,0,0.5670718839392066,,,,,,,,,1004,2019_Mar_06_0949,mf_amp_cond2,3.0.4,59.97753244077292,
restore,&&&&&&&&&&,left,care.virtue,neutralust,,,,,,,,,,,,,0,120,120,161,,,,,,,,,,,,,,,AMP,right,0.7171111078932881,0,,,,,,,,,,,,,,right,0,0.7171111078932881,,,,,,,,,1004,2019_Mar_06_0949,mf_amp_cond2,3.0.4,59.97753244077292,
respect,&&&&&,left,sanctity.virtue,noped,,,,,,,,,,,,,0,121,121,299,,,,,,,,,,,,,,,AMP,left,1.133882061461918,1,,,,,,,,,,,,,,left,1,1.133882061461918,,,,,,,,,1004,2019_Mar_06_0949,mf_amp_cond2,3.0.4,59.97753244077292,
threatened,&&&&&,right,fairness.vice,framo,,,,,,,,,,,,,0,122,122,231,,,,,,,,,,,,,,,AMP,left,0.46707983780652285,0,,,,,,,,,,,,,,left,0,0.46707983780652285,,,,,,,,,1004,2019_Mar_06_0949,mf_amp_cond2,3.0.4,59.97753244077292,
encourage,&&&&&&&&&&,left,authority.virtue,chonograph,,,,,,,,,,,,,0,123,123,288,,,,,,,,,,,,,,,AMP,left,0.7170909025007859,1,,,,,,,,,,,,,,left,1,0.7170909025007859,,,,,,,,,1004,2019_Mar_06_0949,mf_amp_cond2,3.0.4,59.97753244077292,
corruption,&&&&&&&&&&,right,sanctity.vice,pistraught,,,,,,,,,,,,,0,124,124,90,,,,,,,,,,,,,,,AMP,left,0.9003235409036279,0,,,,,,,,,,,,,,left,0,0.9003235409036279,,,,,,,,,1004,2019_Mar_06_0949,mf_amp_cond2,3.0.4,59.97753244077292,
serial,&&&&&&,right,sanctity.vice,Cunday,,,,,,,,,,,,,0,125,125,254,,,,,,,,,,,,,,,AMP,left,0.6837547683389857,0,,,,,,,,,,,,,,left,0,0.6837547683389857,,,,,,,,,1004,2019_Mar_06_0949,mf_amp_cond2,3.0.4,59.97753244077292,
help,&&&&&&&&&&&&,left,care.virtue,unreflectuve,,,,,,,,,,,,,0,126,126,169,,,,,,,,,,,,,,,AMP,left,2.800941822351888,1,,,,,,,,,,,,,,left,1,2.800941822351888,,,,,,,,,1004,2019_Mar_06_0949,mf_amp_cond2,3.0.4,59.97753244077292,
health,&&&&&&&,left,care.virtue,nomaric,,,,,,,,,,,,,0,127,127,114,,,,,,,,,,,,,,,AMP,left,2.400863310438581,1,,,,,,,,,,,,,,left,1,2.400863310438581,,,,,,,,,1004,2019_Mar_06_0949,mf_amp_cond2,3.0.4,59.97753244077292,
unpleasant,&&&&&&&&&&&,None,control,ilportation,,,,,,,,,,,,,0,128,128,107,,,,,,,,,,,,,,,AMP,left,0.7004263632697985,0,,,,,,,,,,,,,,left,0,0.7004263632697985,,,,,,,,,1004,2019_Mar_06_0949,mf_amp_cond2,3.0.4,59.97753244077292,
attacks,&&&&&&&&&&&&,right,care.vice,edancipation,,,,,,,,,,,,,0,129,129,22,,,,,,,,,,,,,,,AMP,left,0.31700341042596847,0,,,,,,,,,,,,,,left,0,0.31700341042596847,,,,,,,,,1004,2019_Mar_06_0949,mf_amp_cond2,3.0.4,59.97753244077292,
corruption,&&&&&&&&&&,right,sanctity.vice,ejanulated,,,,,,,,,,,,,0,130,130,287,,,,,,,,,,,,,,,AMP,left,1.2672336543910205,0,,,,,,,,,,,,,,left,0,1.2672336543910205,,,,,,,,,1004,2019_Mar_06_0949,mf_amp_cond2,3.0.4,59.97753244077292,
died,&&&&&&&&&&,right,care.vice,neutralust,,,,,,,,,,,,,0,131,131,181,,,,,,,,,,,,,,,AMP,left,0.6670616851188242,0,,,,,,,,,,,,,,left,0,0.6670616851188242,,,,,,,,,1004,2019_Mar_06_0949,mf_amp_cond2,3.0.4,59.97753244077292,
failure,&&&&&&&&&,right,loyalty.vice,gillipede,,,,,,,,,,,,,0,132,132,31,,,,,,,,,,,,,,,AMP,left,0.8004546507727355,0,,,,,,,,,,,,,,left,0,0.8004546507727355,,,,,,,,,1004,2019_Mar_06_0949,mf_amp_cond2,3.0.4,59.97753244077292,
died,&&&&&&&,right,care.vice,halaise,,,,,,,,,,,,,0,133,133,60,,,,,,,,,,,,,,,AMP,left,0.250323444721289,0,,,,,,,,,,,,,,left,0,0.250323444721289,,,,,,,,,1004,2019_Mar_06_0949,mf_amp_cond2,3.0.4,59.97753244077292,
commitment,&&&&&&,left,sanctity.virtue,Boeinf,,,,,,,,,,,,,0,134,134,166,,,,,,,,,,,,,,,AMP,left,0.3836962050991133,1,,,,,,,,,,,,,,left,1,0.3836962050991133,,,,,,,,,1004,2019_Mar_06_0949,mf_amp_cond2,3.0.4,59.97753244077292,
violations,&&&&&&&&,right,sanctity.vice,crinking,,,,,,,,,,,,,0,135,135,20,,,,,,,,,,,,,,,AMP,left,0.8171047575306147,0,,,,,,,,,,,,,,left,0,0.8171047575306147,,,,,,,,,1004,2019_Mar_06_0949,mf_amp_cond2,3.0.4,59.97753244077292,
shot,&&&&&&&&&,right,care.vice,godlaness,,,,,,,,,,,,,0,136,136,275,,,,,,,,,,,,,,,AMP,right,0.6004070560447872,1,,,,,,,,,,,,,,right,1,0.6004070560447872,,,,,,,,,1004,2019_Mar_06_0949,mf_amp_cond2,3.0.4,59.97753244077292,
interests,&&&&&&&&&,left,fairness.virtue,godlaness,,,,,,,,,,,,,0,137,137,45,,,,,,,,,,,,,,,AMP,right,0.8671256363159046,0,,,,,,,,,,,,,,right,0,0.8671256363159046,,,,,,,,,1004,2019_Mar_06_0949,mf_amp_cond2,3.0.4,59.97753244077292,
actively,&&&&&&&&&,left,authority.virtue,Lacedonia,,,,,,,,,,,,,0,138,138,290,,,,,,,,,,,,,,,AMP,left,0.4837026835884899,1,,,,,,,,,,,,,,left,1,0.4837026835884899,,,,,,,,,1004,2019_Mar_06_0949,mf_amp_cond2,3.0.4,59.97753244077292,
growth,&&&&&&&&&&&,left,care.virtue,sowntrodden,,,,,,,,,,,,,0,139,139,281,,,,,,,,,,,,,,,AMP,left,0.6004019245738164,1,,,,,,,,,,,,,,left,1,0.6004019245738164,,,,,,,,,1004,2019_Mar_06_0949,mf_amp_cond2,3.0.4,59.97753244077292,
pafer,&&&&&&&,None,nonword,chreams,,,,,,,,,,,,,0,140,140,44,,,,,,,,,,,,,,,AMP,left,1.233902010251768,0,,,,,,,,,,,,,,left,0,1.233902010251768,,,,,,,,,1004,2019_Mar_06_0949,mf_amp_cond2,3.0.4,59.97753244077292,
attacks,&&&&&&&&&&&,right,care.vice,cromiscuity,,,,,,,,,,,,,0,141,141,96,,,,,,,,,,,,,,,AMP,left,0.45037969877012074,0,,,,,,,,,,,,,,left,0,0.45037969877012074,,,,,,,,,1004,2019_Mar_06_0949,mf_amp_cond2,3.0.4,59.97753244077292,
promises,&&&&&&,left,fairness.virtue,sonvoy,,,,,,,,,,,,,0,142,142,131,,,,,,,,,,,,,,,AMP,left,0.8004459913354367,1,,,,,,,,,,,,,,left,1,0.8004459913354367,,,,,,,,,1004,2019_Mar_06_0949,mf_amp_cond2,3.0.4,59.97753244077292,
civilians,&&&&&,right,care.vice,leact,,,,,,,,,,,,,0,143,143,213,,,,,,,,,,,,,,,AMP,left,0.517049080808647,0,,,,,,,,,,,,,,left,0,0.517049080808647,,,,,,,,,1004,2019_Mar_06_0949,mf_amp_cond2,3.0.4,59.97753244077292,
increase,&&&&&&,left,care.virtue,laming,,,,,,,,,,,,,0,144,144,84,,,,,,,,,,,,,,,AMP,left,1.1838907530764118,1,,,,,,,,,,,,,,left,1,1.1838907530764118,,,,,,,,,1004,2019_Mar_06_0949,mf_amp_cond2,3.0.4,59.97753244077292,
sgrawl,&&&&&&&,None,nonword,halaise,,,,,,,,,,,,,0,145,145,112,,,,,,,,,,,,,,,AMP,right,0.6504596860613674,0,,,,,,,,,,,,,,right,0,0.6504596860613674,,,,,,,,,1004,2019_Mar_06_0949,mf_amp_cond2,3.0.4,59.97753244077292,
penalty,&&&&&&&&&&&,right,authority.vice,fornicalion,,,,,,,,,,,,,0,146,146,171,,,,,,,,,,,,,,,AMP,left,0.6670931155094877,0,,,,,,,,,,,,,,left,0,0.6670931155094877,,,,,,,,,1004,2019_Mar_06_0949,mf_amp_cond2,3.0.4,59.97753244077292,
lursuer,&&&&&&,None,nonword,erdest,,,,,,,,,,,,,0,147,147,32,,,,,,,,,,,,,,,AMP,left,0.600428223493509,0,,,,,,,,,,,,,,left,0,0.600428223493509,,,,,,,,,1004,2019_Mar_06_0949,mf_amp_cond2,3.0.4,59.97753244077292,
penalty,&&&&&&&,right,authority.vice,allears,,,,,,,,,,,,,0,148,148,320,,,,,,,,,,,,,,,AMP,right,0.4337023308034986,1,,,,,,,,,,,,,,right,1,0.4337023308034986,,,,,,,,,1004,2019_Mar_06_0949,mf_amp_cond2,3.0.4,59.97753244077292,
scandal,&&&&&&&&&&&,right,sanctity.vice,sowntrodden,,,,,,,,,,,,,0,149,149,127,,,,,,,,,,,,,,,AMP,left,0.46705321804620326,0,,,,,,,,,,,,,,left,0,0.46705321804620326,,,,,,,,,1004,2019_Mar_06_0949,mf_amp_cond2,3.0.4,59.97753244077292,
loyalty,&&&&&,left,loyalty.virtue,hasks,,,,,,,,,,,,,0,150,150,137,,,,,,,,,,,,,,,AMP,left,0.433698482112959,1,,,,,,,,,,,,,,left,1,0.433698482112959,,,,,,,,,1004,2019_Mar_06_0949,mf_amp_cond2,3.0.4,59.97753244077292,
bluently,&&&&&&&&,None,nonword,proached,,,,,,,,,,,,,0,151,151,6,,,,,,,,,,,,,,,AMP,left,2.167447830317542,0,,,,,,,,,,,,,,left,0,2.167447830317542,,,,,,,,,1004,2019_Mar_06_0949,mf_amp_cond2,3.0.4,59.97753244077292,
embrace,&&&&&&&&&&,left,authority.virtue,neutralust,,,,,,,,,,,,,0,152,152,46,,,,,,,,,,,,,,,AMP,left,0.43369848222937435,1,,,,,,,,,,,,,,left,1,0.43369848222937435,,,,,,,,,1004,2019_Mar_06_0949,mf_amp_cond2,3.0.4,59.97753244077292,
terrorists,&&&&&&&&,right,fairness.vice,glacenta,,,,,,,,,,,,,0,153,153,136,,,,,,,,,,,,,,,AMP,left,1.0671892669051886,0,,,,,,,,,,,,,,left,0,1.0671892669051886,,,,,,,,,1004,2019_Mar_06_0949,mf_amp_cond2,3.0.4,59.97753244077292,
loyalty,&&&&&&&&&&&&&,left,loyalty.virtue,esquisiteness,,,,,,,,,,,,,0,154,154,311,,,,,,,,,,,,,,,AMP,right,0.7171104663284495,0,,,,,,,,,,,,,,right,0,0.7171104663284495,,,,,,,,,1004,2019_Mar_06_0949,mf_amp_cond2,3.0.4,59.97753244077292,
shot,&&&&&,right,care.vice,saned,,,,,,,,,,,,,0,155,155,156,,,,,,,,,,,,,,,AMP,left,2.267481569899246,0,,,,,,,,,,,,,,left,0,2.267481569899246,,,,,,,,,1004,2019_Mar_06_0949,mf_amp_cond2,3.0.4,59.97753244077292,
promised,&&&&&&,left,loyalty.virtue,papert,,,,,,,,,,,,,0,156,156,75,,,,,,,,,,,,,,,AMP,left,1.133875326369889,1,,,,,,,,,,,,,,left,1,1.133875326369889,,,,,,,,,1004,2019_Mar_06_0949,mf_amp_cond2,3.0.4,59.97753244077292,
gandbrake,&&&&&&&&,None,nonword,glacenta,,,,,,,,,,,,,0,157,157,294,,,,,,,,,,,,,,,AMP,left,0.4837216059677303,0,,,,,,,,,,,,,,left,0,0.4837216059677303,,,,,,,,,1004,2019_Mar_06_0949,mf_amp_cond2,3.0.4,59.97753244077292,
increase,&&&&&&,left,care.virtue,prones,,,,,,,,,,,,,0,158,158,322,,,,,,,,,,,,,,,AMP,left,0.7671133849071339,1,,,,,,,,,,,,,,left,1,0.7671133849071339,,,,,,,,,1004,2019_Mar_06_0949,mf_amp_cond2,3.0.4,59.97753244077292,
encourage,&&&&&&,left,authority.virtue,antral,,,,,,,,,,,,,0,159,159,15,,,,,,,,,,,,,,,AMP,left,0.7171473490307108,1,,,,,,,,,,,,,,left,1,0.7171473490307108,,,,,,,,,1004,2019_Mar_06_0949,mf_amp_cond2,3.0.4,59.97753244077292,
squets,&&&&&&,None,nonword,pumber,,,,,,,,,,,,,0,160,160,76,,,,,,,,,,,,,,,AMP,left,0.6837611825903878,0,,,,,,,,,,,,,,left,0,0.6837611825903878,,,,,,,,,1004,2019_Mar_06_0949,mf_amp_cond2,3.0.4,59.97753244077292,
war,&&&&&&&&&&,right,sanctity.vice,chonograph,,,,,,,,,,,,,0,161,161,207,,,,,,,,,,,,,,,AMP,left,1.2839081359561533,0,,,,,,,,,,,,,,left,0,1.2839081359561533,,,,,,,,,1004,2019_Mar_06_0949,mf_amp_cond2,3.0.4,59.97753244077292,
terrorists,&&&&&&,right,fairness.vice,forepo,,,,,,,,,,,,,0,162,162,66,,,,,,,,,,,,,,,AMP,left,0.7004321363056079,0,,,,,,,,,,,,,,left,0,0.7004321363056079,,,,,,,,,1004,2019_Mar_06_0949,mf_amp_cond2,3.0.4,59.97753244077292,
victim,&&&&&&&&&&,right,care.vice,Oregoniuns,,,,,,,,,,,,,0,163,163,134,,,,,,,,,,,,,,,AMP,left,0.30038056476041675,0,,,,,,,,,,,,,,left,0,0.30038056476041675,,,,,,,,,1004,2019_Mar_06_0949,mf_amp_cond2,3.0.4,59.97753244077292,
progress,&&&&&,left,authority.virtue,hasks,,,,,,,,,,,,,0,164,164,276,,,,,,,,,,,,,,,AMP,left,1.2338901435723528,1,,,,,,,,,,,,,,left,1,1.2338901435723528,,,,,,,,,1004,2019_Mar_06_0949,mf_amp_cond2,3.0.4,59.97753244077292,
praised,&&&&&&&&&&&&,left,loyalty.virtue,edancipation,,,,,,,,,,,,,0,165,165,246,,,,,,,,,,,,,,,AMP,left,1.4339175329077989,1,,,,,,,,,,,,,,left,1,1.4339175329077989,,,,,,,,,1004,2019_Mar_06_0949,mf_amp_cond2,3.0.4,59.97753244077292,
celebrated,&&&&&&&&&&&&&,left,authority.virtue,synchronazers,,,,,,,,,,,,,0,166,166,188,,,,,,,,,,,,,,,AMP,left,0.6503830342553556,1,,,,,,,,,,,,,,left,1,0.6503830342553556,,,,,,,,,1004,2019_Mar_06_0949,mf_amp_cond2,3.0.4,59.97753244077292,
illegal,&&&&&&&&,right,fairness.vice,sidearbs,,,,,,,,,,,,,0,167,167,7,,,,,,,,,,,,,,,AMP,left,0.8171307358425111,0,,,,,,,,,,,,,,left,0,0.8171307358425111,,,,,,,,,1004,2019_Mar_06_0949,mf_amp_cond2,3.0.4,59.97753244077292,
black,&&&&&&&&&,right,loyalty.vice,crilfully,,,,,,,,,,,,,0,168,168,129,,,,,,,,,,,,,,,AMP,right,2.4674810566939414,1,,,,,,,,,,,,,,right,1,2.4674810566939414,,,,,,,,,1004,2019_Mar_06_0949,mf_amp_cond2,3.0.4,59.97753244077292,
faith,&&&&&,left,sanctity.virtue,pulge,,,,,,,,,,,,,0,169,169,245,,,,,,,,,,,,,,,AMP,left,0.7337929658824578,1,,,,,,,,,,,,,,left,1,0.7337929658824578,,,,,,,,,1004,2019_Mar_06_0949,mf_amp_cond2,3.0.4,59.97753244077292,
progress,&&&&&&&&&&&&&,left,authority.virtue,esquisiteness,,,,,,,,,,,,,0,170,170,8,,,,,,,,,,,,,,,AMP,left,1.9340669878292829,1,,,,,,,,,,,,,,left,1,1.9340669878292829,,,,,,,,,1004,2019_Mar_06_0949,mf_amp_cond2,3.0.4,59.97753244077292,
serial,&&&&&&&,right,sanctity.vice,allears,,,,,,,,,,,,,0,171,171,165,,,,,,,,,,,,,,,AMP,left,1.1672172335674986,0,,,,,,,,,,,,,,left,0,1.1672172335674986,,,,,,,,,1004,2019_Mar_06_0949,mf_amp_cond2,3.0.4,59.97753244077292,
men,&&&&&,right,loyalty.vice,lenon,,,,,,,,,,,,,0,172,172,239,,,,,,,,,,,,,,,AMP,left,0.3169883367372677,0,,,,,,,,,,,,,,left,0,0.3169883367372677,,,,,,,,,1004,2019_Mar_06_0949,mf_amp_cond2,3.0.4,59.97753244077292,
illegal,&&&&&&&,right,fairness.vice,chreams,,,,,,,,,,,,,0,173,173,138,,,,,,,,,,,,,,,AMP,right,3.451092656236142,1,,,,,,,,,,,,,,right,1,3.451092656236142,,,,,,,,,1004,2019_Mar_06_0949,mf_amp_cond2,3.0.4,59.97753244077292,
intelligence,&&&&&&,left,loyalty.virtue,fostet,,,,,,,,,,,,,0,174,174,23,,,,,,,,,,,,,,,AMP,left,0.400361385778524,1,,,,,,,,,,,,,,left,1,0.400361385778524,,,,,,,,,1004,2019_Mar_06_0949,mf_amp_cond2,3.0.4,59.97753244077292,
injured,&&&&&&&&&&&&&,right,care.vice,synchronazers,,,,,,,,,,,,,0,175,175,147,,,,,,,,,,,,,,,AMP,left,0.9338290146552026,0,,,,,,,,,,,,,,left,0,0.9338290146552026,,,,,,,,,1004,2019_Mar_06_0949,mf_amp_cond2,3.0.4,59.97753244077292,
lies,&&&&&&&&&,right,fairness.vice,unscothed,,,,,,,,,,,,,0,176,176,265,,,,,,,,,,,,,,,AMP,left,0.6171909025870264,0,,,,,,,,,,,,,,left,0,0.6171909025870264,,,,,,,,,1004,2019_Mar_06_0949,mf_amp_cond2,3.0.4,59.97753244077292,
violations,&&&&&&&,right,sanctity.vice,hatigue,,,,,,,,,,,,,0,177,177,130,,,,,,,,,,,,,,,AMP,left,2.717582564218901,0,,,,,,,,,,,,,,left,0,2.717582564218901,,,,,,,,,1004,2019_Mar_06_0949,mf_amp_cond2,3.0.4,59.97753244077292,
injured,&&&&&&&,right,care.vice,troubla,,,,,,,,,,,,,0,178,178,34,,,,,,,,,,,,,,,AMP,left,0.2503244068939239,0,,,,,,,,,,,,,,left,0,0.2503244068939239,,,,,,,,,1004,2019_Mar_06_0949,mf_amp_cond2,3.0.4,59.97753244077292,
scock,&&&&&&&&&,None,nonword,crilfully,,,,,,,,,,,,,0,179,179,175,,,,,,,,,,,,,,,AMP,left,0.36706373770721257,0,,,,,,,,,,,,,,left,0,0.36706373770721257,,,,,,,,,1004,2019_Mar_06_0949,mf_amp_cond2,3.0.4,59.97753244077292,
terrorists,&&&&&,right,fairness.vice,framo,,,,,,,,,,,,,0,180,180,297,,,,,,,,,,,,,,,AMP,left,0.20029775518923998,0,,,,,,,,,,,,,,left,0,0.20029775518923998,,,,,,,,,1004,2019_Mar_06_0949,mf_amp_cond2,3.0.4,59.97753244077292,
gun,&&&&&&&&&&&&,right,authority.vice,edancipation,,,,,,,,,,,,,0,181,181,244,,,,,,,,,,,,,,,AMP,left,0.5837389889638871,0,,,,,,,,,,,,,,left,0,0.5837389889638871,,,,,,,,,1004,2019_Mar_06_0949,mf_amp_cond2,3.0.4,59.97753244077292,
forced,&&&&&&&,right,fairness.vice,Loorish,,,,,,,,,,,,,0,182,182,77,,,,,,,,,,,,,,,AMP,left,0.6337470388971269,0,,,,,,,,,,,,,,left,0,0.6337470388971269,,,,,,,,,1004,2019_Mar_06_0949,mf_amp_cond2,3.0.4,59.97753244077292,
voter,&&&&&&&,right,fairness.vice,nackers,,,,,,,,,,,,,0,183,183,235,,,,,,,,,,,,,,,AMP,left,0.45039284822996706,0,,,,,,,,,,,,,,left,0,0.45039284822996706,,,,,,,,,1004,2019_Mar_06_0949,mf_amp_cond2,3.0.4,59.97753244077292,
penalty,&&&&&&,right,authority.vice,Boeinf,,,,,,,,,,,,,0,184,184,93,,,,,,,,,,,,,,,AMP,left,0.3003385505871847,0,,,,,,,,,,,,,,left,0,0.3003385505871847,,,,,,,,,1004,2019_Mar_06_0949,mf_amp_cond2,3.0.4,59.97753244077292,
dumid,&&&&&&&,None,nonword,troubla,,,,,,,,,,,,,0,185,185,86,,,,,,,,,,,,,,,AMP,left,0.48370524926576763,0,,,,,,,,,,,,,,left,0,0.48370524926576763,,,,,,,,,1004,2019_Mar_06_0949,mf_amp_cond2,3.0.4,59.97753244077292,
promises,&&&&&&,left,fairness.virtue,strofe,,,,,,,,,,,,,0,186,186,270,,,,,,,,,,,,,,,AMP,left,0.8004912126343697,1,,,,,,,,,,,,,,left,1,0.8004912126343697,,,,,,,,,1004,2019_Mar_06_0949,mf_amp_cond2,3.0.4,59.97753244077292,
scandal,&&&&&,right,sanctity.vice,lenon,,,,,,,,,,,,,0,187,187,302,,,,,,,,,,,,,,,AMP,left,0.35037738957908005,0,,,,,,,,,,,,,,left,0,0.35037738957908005,,,,,,,,,1004,2019_Mar_06_0949,mf_amp_cond2,3.0.4,59.97753244077292,
intelligence,&&&&&&&&&&&,left,loyalty.virtue,cromiscuity,,,,,,,,,,,,,0,188,188,252,,,,,,,,,,,,,,,AMP,left,1.2005754974670708,1,,,,,,,,,,,,,,left,1,1.2005754974670708,,,,,,,,,1004,2019_Mar_06_0949,mf_amp_cond2,3.0.4,59.97753244077292,
respect,&&&&&&&&&&,left,sanctity.virtue,chonograph,,,,,,,,,,,,,0,189,189,140,,,,,,,,,,,,,,,AMP,right,0.5837393096880987,0,,,,,,,,,,,,,,right,0,0.5837393096880987,,,,,,,,,1004,2019_Mar_06_0949,mf_amp_cond2,3.0.4,59.97753244077292,
hand,&&&&&&&&&,left,sanctity.virtue,baladroit,,,,,,,,,,,,,0,190,190,242,,,,,,,,,,,,,,,AMP,left,0.3337144539691508,1,,,,,,,,,,,,,,left,1,0.3337144539691508,,,,,,,,,1004,2019_Mar_06_0949,mf_amp_cond2,3.0.4,59.97753244077292,
celebrated,&&&&&&,left,authority.virtue,letish,,,,,,,,,,,,,0,191,191,325,,,,,,,,,,,,,,,AMP,right,1.4006048111477867,0,,,,,,,,,,,,,,right,0,1.4006048111477867,,,,,,,,,1004,2019_Mar_06_0949,mf_amp_cond2,3.0.4,59.97753244077292,
bluently,&&&&&&&,None,nonword,troubla,,,,,,,,,,,,,0,192,192,271,,,,,,,,,,,,,,,AMP,left,1.2839421321405098,0,,,,,,,,,,,,,,left,0,1.2839421321405098,,,,,,,,,1004,2019_Mar_06_0949,mf_amp_cond2,3.0.4,59.97753244077292,
actively,&&&&&&&&&&&&&,left,authority.virtue,esquisiteness,,,,,,,,,,,,,0,193,193,224,,,,,,,,,,,,,,,AMP,left,1.5006722261896357,1,,,,,,,,,,,,,,left,1,1.5006722261896357,,,,,,,,,1004,2019_Mar_06_0949,mf_amp_cond2,3.0.4,59.97753244077292,
pleasant,&&&&&,None,control,noped,,,,,,,,,,,,,0,194,194,237,,,,,,,,,,,,,,,AMP,left,0.4837046079337597,0,,,,,,,,,,,,,,left,0,0.4837046079337597,,,,,,,,,1004,2019_Mar_06_0949,mf_amp_cond2,3.0.4,59.97753244077292,
restore,&&&&&&&,left,care.virtue,Loorish,,,,,,,,,,,,,0,195,195,229,,,,,,,,,,,,,,,AMP,right,0.9004864660091698,0,,,,,,,,,,,,,,right,0,0.9004864660091698,,,,,,,,,1004,2019_Mar_06_0949,mf_amp_cond2,3.0.4,59.97753244077292,
friends,&&&&&&&&&&,left,loyalty.virtue,totalestic,,,,,,,,,,,,,0,196,196,309,,,,,,,,,,,,,,,AMP,left,0.5837367438944057,1,,,,,,,,,,,,,,left,1,0.5837367438944057,,,,,,,,,1004,2019_Mar_06_0949,mf_amp_cond2,3.0.4,59.97753244077292,
officers,&&&&&&&&,right,authority.vice,emassion,,,,,,,,,,,,,0,197,197,149,,,,,,,,,,,,,,,AMP,left,0.6169221404707059,0,,,,,,,,,,,,,,left,0,0.6169221404707059,,,,,,,,,1004,2019_Mar_06_0949,mf_amp_cond2,3.0.4,59.97753244077292,
grovelire,&&&&&&&&&,None,nonword,neputized,,,,,,,,,,,,,0,198,198,9,,,,,,,,,,,,,,,AMP,left,1.61732143512927,0,,,,,,,,,,,,,,left,0,1.61732143512927,,,,,,,,,1004,2019_Mar_06_0949,mf_amp_cond2,3.0.4,59.97753244077292,
improve,&&&&&&&&,left,care.virtue,proached,,,,,,,,,,,,,0,199,199,101,,,,,,,,,,,,,,,AMP,left,1.8173860277747735,1,,,,,,,,,,,,,,left,1,1.8173860277747735,,,,,,,,,1004,2019_Mar_06_0949,mf_amp_cond2,3.0.4,59.97753244077292,
slavery,&&&&&&,right,loyalty.vice,letish,,,,,,,,,,,,,0,200,200,214,,,,,,,,,,,,,,,AMP,left,1.250590282608755,0,,,,,,,,,,,,,,left,0,1.250590282608755,,,,,,,,,1004,2019_Mar_06_0949,mf_amp_cond2,3.0.4,59.97753244077292,
faith,&&&&&&,left,sanctity.virtue,openet,,,,,,,,,,,,,0,201,201,38,,,,,,,,,,,,,,,AMP,right,0.6837675970746204,0,,,,,,,,,,,,,,right,0,0.6837675970746204,,,,,,,,,1004,2019_Mar_06_0949,mf_amp_cond2,3.0.4,59.97753244077292,
scandal,&&&&&&&,right,sanctity.vice,nackers,,,,,,,,,,,,,0,202,202,18,,,,,,,,,,,,,,,AMP,left,0.3670772078912705,0,,,,,,,,,,,,,,left,0,0.3670772078912705,,,,,,,,,1004,2019_Mar_06_0949,mf_amp_cond2,3.0.4,59.97753244077292,
embrace,&&&&&&,left,authority.virtue,sonvoy,,,,,,,,,,,,,0,203,203,268,,,,,,,,,,,,,,,AMP,left,2.3675024807453156,1,,,,,,,,,,,,,,left,1,2.3675024807453156,,,,,,,,,1004,2019_Mar_06_0949,mf_amp_cond2,3.0.4,59.97753244077292,
threatened,&&&&&&&&&,right,fairness.vice,neputized,,,,,,,,,,,,,0,204,204,108,,,,,,,,,,,,,,,AMP,left,0.2669992090668529,0,,,,,,,,,,,,,,left,0,0.2669992090668529,,,,,,,,,1004,2019_Mar_06_0949,mf_amp_cond2,3.0.4,59.97753244077292,
men,&&&&&&&&&&&,right,loyalty.vice,shoirmaster,,,,,,,,,,,,,0,205,205,258,,,,,,,,,,,,,,,AMP,left,0.31704285892192274,0,,,,,,,,,,,,,,left,0,0.31704285892192274,,,,,,,,,1004,2019_Mar_06_0949,mf_amp_cond2,3.0.4,59.97753244077292,
sharing,&&&&&,left,loyalty.virtue,saned,,,,,,,,,,,,,0,206,206,317,,,,,,,,,,,,,,,AMP,right,0.48370140069164336,0,,,,,,,,,,,,,,right,0,0.48370140069164336,,,,,,,,,1004,2019_Mar_06_0949,mf_amp_cond2,3.0.4,59.97753244077292,
agreement,&&&&&&&&,left,fairness.virtue,slending,,,,,,,,,,,,,0,207,207,280,,,,,,,,,,,,,,,AMP,left,1.8340425490168855,1,,,,,,,,,,,,,,left,1,1.8340425490168855,,,,,,,,,1004,2019_Mar_06_0949,mf_amp_cond2,3.0.4,59.97753244077292,
festate,&&&&&&&&&&,None,nonword,ejanulated,,,,,,,,,,,,,0,208,208,12,,,,,,,,,,,,,,,AMP,left,1.1505372999235988,0,,,,,,,,,,,,,,left,0,1.1505372999235988,,,,,,,,,1004,2019_Mar_06_0949,mf_amp_cond2,3.0.4,59.97753244077292,
protect,&&&&&&&,left,fairness.virtue,Loorish,,,,,,,,,,,,,0,209,209,83,,,,,,,,,,,,,,,AMP,left,0.483704928541556,1,,,,,,,,,,,,,,left,1,0.483704928541556,,,,,,,,,1004,2019_Mar_06_0949,mf_amp_cond2,3.0.4,59.97753244077292,
serial,&&&&&&,right,sanctity.vice,prones,,,,,,,,,,,,,0,210,210,162,,,,,,,,,,,,,,,AMP,right,1.850713182007894,1,,,,,,,,,,,,,,right,1,1.850713182007894,,,,,,,,,1004,2019_Mar_06_0949,mf_amp_cond2,3.0.4,59.97753244077292,
festate,&&&&&&,None,nonword,letish,,,,,,,,,,,,,0,211,211,139,,,,,,,,,,,,,,,AMP,left,0.6170828203903511,0,,,,,,,,,,,,,,left,0,0.6170828203903511,,,,,,,,,1004,2019_Mar_06_0949,mf_amp_cond2,3.0.4,59.97753244077292,
shot,&&&&&,right,care.vice,pulge,,,,,,,,,,,,,0,212,212,72,,,,,,,,,,,,,,,AMP,left,0.26699952979106456,0,,,,,,,,,,,,,,left,0,0.26699952979106456,,,,,,,,,1004,2019_Mar_06_0949,mf_amp_cond2,3.0.4,59.97753244077292,
increase,&&&&&&&&&&,left,care.virtue,supervuned,,,,,,,,,,,,,0,213,213,221,,,,,,,,,,,,,,,AMP,left,1.2339058588258922,1,,,,,,,,,,,,,,left,1,1.2339058588258922,,,,,,,,,1004,2019_Mar_06_0949,mf_amp_cond2,3.0.4,59.97753244077292,
grovelire,&&&&&&&&&&&&,None,nonword,rorroborated,,,,,,,,,,,,,0,214,214,209,,,,,,,,,,,,,,,AMP,left,0.21697993390262127,0,,,,,,,,,,,,,,left,0,0.21697993390262127,,,,,,,,,1004,2019_Mar_06_0949,mf_amp_cond2,3.0.4,59.97753244077292,
failure,&&&&&&&&&,right,loyalty.vice,neputized,,,,,,,,,,,,,0,215,215,259,,,,,,,,,,,,,,,AMP,left,0.7337711569853127,0,,,,,,,,,,,,,,left,0,0.7337711569853127,,,,,,,,,1004,2019_Mar_06_0949,mf_amp_cond2,3.0.4,59.97753244077292,
ensure,&&&&&&&&&&&,left,fairness.virtue,cromiscuity,,,,,,,,,,,,,0,216,216,177,,,,,,,,,,,,,,,AMP,left,0.5337238830979913,1,,,,,,,,,,,,,,left,1,0.5337238830979913,,,,,,,,,1004,2019_Mar_06_0949,mf_amp_cond2,3.0.4,59.97753244077292,
freedom,&&&&&&&&,left,sanctity.virtue,crinking,,,,,,,,,,,,,0,217,217,103,,,,,,,,,,,,,,,AMP,left,2.6175866693956777,1,,,,,,,,,,,,,,left,1,2.6175866693956777,,,,,,,,,1004,2019_Mar_06_0949,mf_amp_cond2,3.0.4,59.97753244077292,
celebrated,&&&&&,left,authority.virtue,pulge,,,,,,,,,,,,,0,218,218,143,,,,,,,,,,,,,,,AMP,left,0.6170751232421026,1,,,,,,,,,,,,,,left,1,0.6170751232421026,,,,,,,,,1004,2019_Mar_06_0949,mf_amp_cond2,3.0.4,59.97753244077292,
lies,&&&&&&&&&&&&,right,fairness.vice,unreflectuve,,,,,,,,,,,,,0,219,219,135,,,,,,,,,,,,,,,AMP,left,1.1338676291052252,0,,,,,,,,,,,,,,left,0,1.1338676291052252,,,,,,,,,1004,2019_Mar_06_0949,mf_amp_cond2,3.0.4,59.97753244077292,
support,&&&&&&&&,left,loyalty.virtue,gournful,,,,,,,,,,,,,0,220,220,269,,,,,,,,,,,,,,,AMP,right,0.55040253396146,0,,,,,,,,,,,,,,right,0,0.55040253396146,,,,,,,,,1004,2019_Mar_06_0949,mf_amp_cond2,3.0.4,59.97753244077292,
energy,&&&&&&&&&&&&,left,sanctity.virtue,rorroborated,,,,,,,,,,,,,0,221,221,123,,,,,,,,,,,,,,,AMP,left,1.934065063484013,1,,,,,,,,,,,,,,left,1,1.934065063484013,,,,,,,,,1004,2019_Mar_06_0949,mf_amp_cond2,3.0.4,59.97753244077292,
pleasant,&&&&&&&,None,control,stindig,,,,,,,,,,,,,0,222,222,79,,,,,,,,,,,,,,,AMP,left,0.6504093331750482,0,,,,,,,,,,,,,,left,0,0.6504093331750482,,,,,,,,,1004,2019_Mar_06_0949,mf_amp_cond2,3.0.4,59.97753244077292,
promised,&&&&&&&&,left,loyalty.virtue,proached,,,,,,,,,,,,,0,223,223,233,,,,,,,,,,,,,,,AMP,right,1.3005505456821993,0,,,,,,,,,,,,,,right,0,1.3005505456821993,,,,,,,,,1004,2019_Mar_06_0949,mf_amp_cond2,3.0.4,59.97753244077292,
pleasant,&&&&&,None,control,leact,,,,,,,,,,,,,0,224,224,124,,,,,,,,,,,,,,,AMP,right,0.6670972848078236,0,,,,,,,,,,,,,,right,0,0.6670972848078236,,,,,,,,,1004,2019_Mar_06_0949,mf_amp_cond2,3.0.4,59.97753244077292,
praised,&&&&&&&&&&,left,loyalty.virtue,chonograph,,,,,,,,,,,,,0,225,225,21,,,,,,,,,,,,,,,AMP,left,0.5170612682122737,1,,,,,,,,,,,,,,left,1,0.5170612682122737,,,,,,,,,1004,2019_Mar_06_0949,mf_amp_cond2,3.0.4,59.97753244077292,
help,&&&&&&,left,care.virtue,erdest,,,,,,,,,,,,,0,226,226,117,,,,,,,,,,,,,,,AMP,left,0.35030169994570315,1,,,,,,,,,,,,,,left,1,0.35030169994570315,,,,,,,,,1004,2019_Mar_06_0949,mf_amp_cond2,3.0.4,59.97753244077292,
ensure,&&&&&&&&&&,left,fairness.virtue,supervuned,,,,,,,,,,,,,0,227,227,158,,,,,,,,,,,,,,,AMP,right,1.3172625511651859,0,,,,,,,,,,,,,,right,0,1.3172625511651859,,,,,,,,,1004,2019_Mar_06_0949,mf_amp_cond2,3.0.4,59.97753244077292,
war,&&&&&&&&&&&&&,right,sanctity.vice,esquisiteness,,,,,,,,,,,,,0,228,228,154,,,,,,,,,,,,,,,AMP,left,0.5336780202342197,0,,,,,,,,,,,,,,left,0,0.5336780202342197,,,,,,,,,1004,2019_Mar_06_0949,mf_amp_cond2,3.0.4,59.97753244077292,
victim,&&&&&&,right,care.vice,letish,,,,,,,,,,,,,0,229,229,2,,,,,,,,,,,,,,,AMP,left,1.5004676077514887,0,,,,,,,,,,,,,,left,0,1.5004676077514887,,,,,,,,,1004,2019_Mar_06_0949,mf_amp_cond2,3.0.4,59.97753244077292,
illegal,&&&&&&&&&,right,fairness.vice,faspberry,,,,,,,,,,,,,0,230,230,251,,,,,,,,,,,,,,,AMP,right,1.9674050464527681,1,,,,,,,,,,,,,,right,1,1.9674050464527681,,,,,,,,,1004,2019_Mar_06_0949,mf_amp_cond2,3.0.4,59.97753244077292,
refused,&&&&&&&&&&,right,authority.vice,frojecting,,,,,,,,,,,,,0,231,231,88,,,,,,,,,,,,,,,AMP,left,0.5670689974213019,0,,,,,,,,,,,,,,left,0,0.5670689974213019,,,,,,,,,1004,2019_Mar_06_0949,mf_amp_cond2,3.0.4,59.97753244077292,
care,&&&&&&&&,left,care.virtue,sliptery,,,,,,,,,,,,,0,232,232,47,,,,,,,,,,,,,,,AMP,left,0.6837579754646868,1,,,,,,,,,,,,,,left,1,0.6837579754646868,,,,,,,,,1004,2019_Mar_06_0949,mf_amp_cond2,3.0.4,59.97753244077292,
torture,&&&&&&,right,care.vice,fostet,,,,,,,,,,,,,0,233,233,132,,,,,,,,,,,,,,,AMP,left,0.6004538809647784,0,,,,,,,,,,,,,,left,0,0.6004538809647784,,,,,,,,,1004,2019_Mar_06_0949,mf_amp_cond2,3.0.4,59.97753244077292,
ability,&&&&&&&&&,left,authority.virtue,gillipede,,,,,,,,,,,,,0,234,234,148,,,,,,,,,,,,,,,AMP,right,0.5170218197163194,0,,,,,,,,,,,,,,right,0,0.5170218197163194,,,,,,,,,1004,2019_Mar_06_0949,mf_amp_cond2,3.0.4,59.97753244077292,
health,&&&&&&&&&&&&,left,care.virtue,unreflectuve,,,,,,,,,,,,,0,235,235,272,,,,,,,,,,,,,,,AMP,left,0.783813523943536,1,,,,,,,,,,,,,,left,1,0.783813523943536,,,,,,,,,1004,2019_Mar_06_0949,mf_amp_cond2,3.0.4,59.97753244077292,
sgrawl,&&&&&&&,None,nonword,troubla,,,,,,,,,,,,,0,236,236,167,,,,,,,,,,,,,,,AMP,left,0.7837788863107562,0,,,,,,,,,,,,,,left,0,0.7837788863107562,,,,,,,,,1004,2019_Mar_06_0949,mf_amp_cond2,3.0.4,59.97753244077292,
commitment,&&&&&&&,left,sanctity.virtue,carvels,,,,,,,,,,,,,0,237,237,145,,,,,,,,,,,,,,,AMP,left,0.8838113429956138,1,,,,,,,,,,,,,,left,1,0.8838113429956138,,,,,,,,,1004,2019_Mar_06_0949,mf_amp_cond2,3.0.4,59.97753244077292,
torture,&&&&&&&&&&,right,care.vice,imebreaker,,,,,,,,,,,,,0,238,238,266,,,,,,,,,,,,,,,AMP,left,0.6337768657831475,0,,,,,,,,,,,,,,left,0,0.6337768657831475,,,,,,,,,1004,2019_Mar_06_0949,mf_amp_cond2,3.0.4,59.97753244077292,
benefit,&&&&&&&,left,fairness.virtue,allears,,,,,,,,,,,,,0,239,239,163,,,,,,,,,,,,,,,AMP,left,0.817166656255722,1,,,,,,,,,,,,,,left,1,0.817166656255722,,,,,,,,,1004,2019_Mar_06_0949,mf_amp_cond2,3.0.4,59.97753244077292,
terrorists,&&&&&&&,right,fairness.vice,nomaric,,,,,,,,,,,,,0,240,240,191,,,,,,,,,,,,,,,AMP,left,0.3503469212446362,0,,,,,,,,,,,,,,left,0,0.3503469212446362,,,,,,,,,1004,2019_Mar_06_0949,mf_amp_cond2,3.0.4,59.97753244077292,
faith,&&&&&&,left,sanctity.virtue,Boeinf,,,,,,,,,,,,,0,241,241,314,,,,,,,,,,,,,,,AMP,left,1.333912978763692,1,,,,,,,,,,,,,,left,1,1.333912978763692,,,,,,,,,1004,2019_Mar_06_0949,mf_amp_cond2,3.0.4,59.97753244077292,
promised,&&&&&&&&&&&&,left,loyalty.virtue,edancipation,,,,,,,,,,,,,0,242,242,95,,,,,,,,,,,,,,,AMP,left,0.6670988884288818,1,,,,,,,,,,,,,,left,1,0.6670988884288818,,,,,,,,,1004,2019_Mar_06_0949,mf_amp_cond2,3.0.4,59.97753244077292,
commitment,&&&&&&,left,sanctity.virtue,prones,,,,,,,,,,,,,0,243,243,70,,,,,,,,,,,,,,,AMP,left,0.9336805219063535,1,,,,,,,,,,,,,,left,1,0.9336805219063535,,,,,,,,,1004,2019_Mar_06_0949,mf_amp_cond2,3.0.4,59.97753244077292,
unpleasant,&&&&&&&&&&,None,control,totalestic,,,,,,,,,,,,,0,244,244,228,,,,,,,,,,,,,,,AMP,left,0.983838347485289,0,,,,,,,,,,,,,,left,0,0.983838347485289,,,,,,,,,1004,2019_Mar_06_0949,mf_amp_cond2,3.0.4,59.97753244077292,
sharing,&&&&&&&&&&&,left,loyalty.virtue,precificity,,,,,,,,,,,,,0,245,245,168,,,,,,,,,,,,,,,AMP,left,0.583743158262223,1,,,,,,,,,,,,,,left,1,0.583743158262223,,,,,,,,,1004,2019_Mar_06_0949,mf_amp_cond2,3.0.4,59.97753244077292,
restore,&&&&&&&&&&,left,care.virtue,neutralust,,,,,,,,,,,,,0,246,246,300,,,,,,,,,,,,,,,AMP,right,0.4337103486759588,0,,,,,,,,,,,,,,right,0,0.4337103486759588,,,,,,,,,1004,2019_Mar_06_0949,mf_amp_cond2,3.0.4,59.97753244077292,
energy,&&&&&&,left,sanctity.virtue,papert,,,,,,,,,,,,,0,247,247,305,,,,,,,,,,,,,,,AMP,left,0.7504408276872709,1,,,,,,,,,,,,,,left,1,0.7504408276872709,,,,,,,,,1004,2019_Mar_06_0949,mf_amp_cond2,3.0.4,59.97753244077292,
