words,mask,corr_ans,category,nonwords,tweets,topic,LDT_prac_loop.thisRepN,LDT_prac_loop.thisTrialN,LDT_prac_loop.thisN,LDT_prac_loop.thisIndex,LDT_loop.thisRepN,LDT_loop.thisTrialN,LDT_loop.thisN,LDT_loop.thisIndex,AMP_pracloop.thisRepN,AMP_pracloop.thisTrialN,AMP_pracloop.thisN,AMP_pracloop.thisIndex,AMP_loop.thisRepN,AMP_loop.thisTrialN,AMP_loop.thisN,AMP_loop.thisIndex,tweet_loop.thisRepN,tweet_loop.thisTrialN,tweet_loop.thisN,tweet_loop.thisIndex,begin_key.keys,begin_key.rt,key_resp_AMP_instr1.keys,key_resp_AMP_instr1.rt,key_resp_LDT_instr.keys,key_resp_LDT_instr.rt,resp_LDT_prac.keys,resp_LDT_prac.rt,task,keypress,RT,corr,resp_LDT_ready.keys,resp_LDT_ready.rt,resp_LDT.keys,resp_LDT.corr,resp_LDT.rt,LDT_rating.response,LDT_rating.rt,resp_AMP_ready1.keys,resp_AMP_ready1.rt,resp_AMP_prac.keys,resp_AMP_prac.rt,resp_AMP_ready.keys,resp_AMP_ready.rt,resp_AMP.keys,resp_AMP.corr,resp_AMP.rt,AMP_nonword_rating.response,AMP_nonword_rating.rt,AMP_word_rating.response,AMP_word_rating.rt,AMP_random_rating.response,AMP_random_rating.rt,key_resp_LDT_instr_2.keys,key_resp_LDT_instr_2.rt,resp_tweets.keys,resp_tweets.rt,participant,date,expName,psychopyVersion,frameRate,
,,,,,,,,,,,,,,,,,,,,,,,,,,,right,998.0422916463576,,,,,,,,,,,,,,,,,,,,,,,,,,,,,,,,,,,,,1008,2019_Mar_06_0950,mf_amp_cond2,3.0.4,59.98353225123907,
,,,,,,,,,,,,,,,,,,,,,,,,,,,,,right,4.36809550318867,,,,,,,,,,,,,,,,,,,,,,,,,,,,,,,,,,,1008,2019_Mar_06_0950,mf_amp_cond2,3.0.4,59.98353225123907,
,,,,,,,,,,,,,,,,,,,,,,,,,,,,,,,right,1.5006879480788484,,,,,,,,,,,,,,,,,,,,,,,,,,,,,,,,,1008,2019_Mar_06_0950,mf_amp_cond2,3.0.4,59.98353225123907,
bisebell,&&&&&&&,,,,,,0,0,0,1,,,,,,,,,,,,,,,,,,,,,,,left,1.533964748843573,LDT_prac,left,1.533964748843573,0,,,,,,,,,,,,,,,,,,,,,,,,,,,1008,2019_Mar_06_0950,mf_amp_cond2,3.0.4,59.98353225123907,
keyboard,&&&&&&&,,,,,,0,1,1,0,,,,,,,,,,,,,,,,,,,,,,,left,3.3177733062766492,LDT_prac,left,3.3177733062766492,0,,,,,,,,,,,,,,,,,,,,,,,,,,,1008,2019_Mar_06_0950,mf_amp_cond2,3.0.4,59.98353225123907,
,,,,,,,,,,,,,,,,,,,,,,,,,,,,,,,,,,,,,,,right,1.0838854021858424,,,,,,,,,,,,,,,,,,,,,,,,,1008,2019_Mar_06_0950,mf_amp_cond2,3.0.4,59.98353225123907,
suicide,&&&&&&&,left,care.vice,,,,,,,,0,0,0,102,,,,,,,,,,,,,,,,,,,,,LDT,right,1.300674028811045,0,,,right,0,1.300674028811045,,,,,,,,,,,,,,,,,,,,,,1008,2019_Mar_06_0950,mf_amp_cond2,3.0.4,59.98353225123907,
else,&&&&,left,neutral,,,,,,,,0,1,1,149,,,,,,,,,,,,,,,,,,,,,LDT,right,1.9007520282175392,0,,,right,0,1.9007520282175392,,,,,,,,,,,,,,,,,,,,,,1008,2019_Mar_06_0950,mf_amp_cond2,3.0.4,59.98353225123907,
with,&&&&,left,neutral,,,,,,,,0,2,2,25,,,,,,,,,,,,,,,,,,,,,LDT,right,0.7504660086706281,0,,,right,0,0.7504660086706281,,,,,,,,,,,,,,,,,,,,,,1008,2019_Mar_06_0950,mf_amp_cond2,3.0.4,59.98353225123907,
thru,&&&&,left,neutral,,,,,,,,0,3,3,2,,,,,,,,,,,,,,,,,,,,,LDT,right,1.2005655606044456,0,,,right,0,1.2005655606044456,,,,,,,,,,,,,,,,,,,,,,1008,2019_Mar_06_0950,mf_amp_cond2,3.0.4,59.98353225123907,
slending,&&&&&&&&,right,nonword,,,,,,,,0,4,4,103,,,,,,,,,,,,,,,,,,,,,LDT,right,2.76763488270808,1,,,right,1,2.76763488270808,,,,,,,,,,,,,,,,,,,,,,1008,2019_Mar_06_0950,mf_amp_cond2,3.0.4,59.98353225123907,
Lacedonia,&&&&&&&&&,right,nonword,,,,,,,,0,5,5,27,,,,,,,,,,,,,,,,,,,,,LDT,left,0.6504390038317069,0,,,left,0,0.6504390038317069,,,,,,,,,,,,,,,,,,,,,,1008,2019_Mar_06_0950,mf_amp_cond2,3.0.4,59.98353225123907,
prosecution,&&&&&&&&&&&,left,authority.vice,,,,,,,,0,6,6,181,,,,,,,,,,,,,,,,,,,,,LDT,left,1.484001439413987,1,,,left,1,1.484001439413987,,,,,,,,,,,,,,,,,,,,,,1008,2019_Mar_06_0950,mf_amp_cond2,3.0.4,59.98353225123907,
edancipation,&&&&&&&&&&&&,None,nonword,,,,,,,,0,7,7,76,,,,,,,,,,,,,,,,,,,,,LDT,right,0.7004465729696676,0,,,right,0,0.7004465729696676,,,,,,,,,,,,,,,,,,,,,,1008,2019_Mar_06_0950,mf_amp_cond2,3.0.4,59.98353225123907,
somehow,&&&&&&&,left,neutral,,,,,,,,0,8,8,169,,,,,,,,,,,,,,,,,,,,,LDT,right,0.7504608770832419,0,,,right,0,0.7504608770832419,,,,,,,,,,,,,,,,,,,,,,1008,2019_Mar_06_0950,mf_amp_cond2,3.0.4,59.98353225123907,
love,&&&&,left,loyalty.virtue,,,,,,,,0,9,9,110,,,,,,,,,,,,,,,,,,,,,LDT,right,0.5337293391348794,0,,,right,0,0.5337293391348794,,,,,,,,,,,,,,,,,,,,,,1008,2019_Mar_06_0950,mf_amp_cond2,3.0.4,59.98353225123907,
fair,&&&&,left,fairness.virtue,,,,,,,,0,10,10,186,,,,,,,,,,,,,,,,,,,,,LDT,right,0.5337405643658713,0,,,right,0,0.5337405643658713,,,,,,,,,,,,,,,,,,,,,,1008,2019_Mar_06_0950,mf_amp_cond2,3.0.4,59.98353225123907,
focomotive,&&&&&&&&&&,right,nonword,,,,,,,,0,11,11,134,,,,,,,,,,,,,,,,,,,,,LDT,right,3.317786776460707,1,,,right,1,3.317786776460707,,,,,,,,,,,,,,,,,,,,,,1008,2019_Mar_06_0950,mf_amp_cond2,3.0.4,59.98353225123907,
amount,&&&&&&,left,neutral,,,,,,,,0,12,12,0,,,,,,,,,,,,,,,,,,,,,LDT,right,0.6335879650432616,0,,,right,0,0.6335879650432616,,,,,,,,,,,,,,,,,,,,,,1008,2019_Mar_06_0950,mf_amp_cond2,3.0.4,59.98353225123907,
unscothed,&&&&&&&&&,right,nonword,,,,,,,,0,13,13,192,,,,,,,,,,,,,,,,,,,,,LDT,left,1.167246745317243,0,,,left,0,1.167246745317243,,,,,,,,,,,,,,,,,,,,,,1008,2019_Mar_06_0950,mf_amp_cond2,3.0.4,59.98353225123907,
sidearbs,&&&&&&&&,right,nonword,,,,,,,,0,14,14,157,,,,,,,,,,,,,,,,,,,,,LDT,right,1.067213005386293,1,,,right,1,1.067213005386293,,,,,,,,,,,,,,,,,,,,,,1008,2019_Mar_06_0950,mf_amp_cond2,3.0.4,59.98353225123907,
war,&&&,left,sanctity.vice,,,,,,,,0,15,15,30,,,,,,,,,,,,,,,,,,,,,LDT,right,3.067707878886722,0,,,right,0,3.067707878886722,,,,,,,,,,,,,,,,,,,,,,1008,2019_Mar_06_0950,mf_amp_cond2,3.0.4,59.98353225123907,
dignity,&&&&&&&,left,sanctity.virtue,,,,,,,,0,16,16,153,,,,,,,,,,,,,,,,,,,,,LDT,right,0.6837786660762504,0,,,right,0,0.6837786660762504,,,,,,,,,,,,,,,,,,,,,,1008,2019_Mar_06_0950,mf_amp_cond2,3.0.4,59.98353225123907,
men,&&&,left,loyalty.vice,,,,,,,,0,17,17,136,,,,,,,,,,,,,,,,,,,,,LDT,right,0.46704809030052274,0,,,right,0,0.46704809030052274,,,,,,,,,,,,,,,,,,,,,,1008,2019_Mar_06_0950,mf_amp_cond2,3.0.4,59.98353225123907,
chressing,&&&&&&&&&,None,nonword,,,,,,,,0,18,18,49,,,,,,,,,,,,,,,,,,,,,LDT,right,1.4839802717324346,0,,,right,0,1.4839802717324346,,,,,,,,,,,,,,,,,,,,,,1008,2019_Mar_06_0950,mf_amp_cond2,3.0.4,59.98353225123907,
framo,&&&&&,right,nonword,,,,,,,,0,19,19,188,,,,,,,,,,,,,,,,,,,,,LDT,right,0.8338100326946005,1,,,right,1,0.8338100326946005,,,,,,,,,,,,,,,,,,,,,,1008,2019_Mar_06_0950,mf_amp_cond2,3.0.4,59.98353225123907,
gikely,&&&&&&,right,nonword,,,,,,,,0,20,20,182,,,,,,,,,,,,,,,,,,,,,LDT,left,0.800461069564335,0,,,left,0,0.800461069564335,,,,,,,,,,,,,,,,,,,,,,1008,2019_Mar_06_0950,mf_amp_cond2,3.0.4,59.98353225123907,
there,&&&&&,left,neutral,,,,,,,,0,21,21,11,,,,,,,,,,,,,,,,,,,,,LDT,right,0.6170910028740764,0,,,right,0,0.6170910028740764,,,,,,,,,,,,,,,,,,,,,,1008,2019_Mar_06_0950,mf_amp_cond2,3.0.4,59.98353225123907,
chared,&&&&&&,right,nonword,,,,,,,,0,22,22,158,,,,,,,,,,,,,,,,,,,,,LDT,left,2.2008240623399615,0,,,left,0,2.2008240623399615,,,,,,,,,,,,,,,,,,,,,,1008,2019_Mar_06_0950,mf_amp_cond2,3.0.4,59.98353225123907,
festate,&&&&&&&,right,nonword,,,,,,,,0,23,23,145,,,,,,,,,,,,,,,,,,,,,LDT,left,0.6837870047893375,0,,,left,0,0.6837870047893375,,,,,,,,,,,,,,,,,,,,,,1008,2019_Mar_06_0950,mf_amp_cond2,3.0.4,59.98353225123907,
fostet,&&&&&&,right,nonword,,,,,,,,0,24,24,150,,,,,,,,,,,,,,,,,,,,,LDT,left,1.1672358408104628,0,,,left,0,1.1672358408104628,,,,,,,,,,,,,,,,,,,,,,1008,2019_Mar_06_0950,mf_amp_cond2,3.0.4,59.98353225123907,
protesters,&&&&&&&&&&,left,authority.vice,,,,,,,,0,25,25,133,,,,,,,,,,,,,,,,,,,,,LDT,left,2.334196823067032,1,,,left,1,2.334196823067032,,,,,,,,,,,,,,,,,,,,,,1008,2019_Mar_06_0950,mf_amp_cond2,3.0.4,59.98353225123907,
eight,&&&&&,left,neutral,,,,,,,,0,26,26,33,,,,,,,,,,,,,,,,,,,,,LDT,right,0.5337322256527841,0,,,right,0,0.5337322256527841,,,,,,,,,,,,,,,,,,,,,,1008,2019_Mar_06_0950,mf_amp_cond2,3.0.4,59.98353225123907,
were,&&&&,left,neutral,,,,,,,,0,27,27,100,,,,,,,,,,,,,,,,,,,,,LDT,right,0.6337621168931946,0,,,right,0,0.6337621168931946,,,,,,,,,,,,,,,,,,,,,,1008,2019_Mar_06_0950,mf_amp_cond2,3.0.4,59.98353225123907,
increase,&&&&&&&&,left,care.virtue,,,,,,,,0,28,28,68,,,,,,,,,,,,,,,,,,,,,LDT,right,0.6837757795583457,0,,,right,0,0.6837757795583457,,,,,,,,,,,,,,,,,,,,,,1008,2019_Mar_06_0950,mf_amp_cond2,3.0.4,59.98353225123907,
corruption,&&&&&&&&&&,left,sanctity.vice,,,,,,,,0,29,29,97,,,,,,,,,,,,,,,,,,,,,LDT,right,0.9338312644977123,0,,,right,0,0.9338312644977123,,,,,,,,,,,,,,,,,,,,,,1008,2019_Mar_06_0950,mf_amp_cond2,3.0.4,59.98353225123907,
presentkess,&&&&&&&&&&&,right,nonword,,,,,,,,0,30,30,118,,,,,,,,,,,,,,,,,,,,,LDT,right,1.8007596613606438,1,,,right,1,1.8007596613606438,,,,,,,,,,,,,,,,,,,,,,1008,2019_Mar_06_0950,mf_amp_cond2,3.0.4,59.98353225123907,
also,&&&&,left,neutral,,,,,,,,0,31,31,63,,,,,,,,,,,,,,,,,,,,,LDT,right,0.600247340509668,0,,,right,0,0.600247340509668,,,,,,,,,,,,,,,,,,,,,,1008,2019_Mar_06_0950,mf_amp_cond2,3.0.4,59.98353225123907,
fighters,&&&&&&&&,left,authority.vice,,,,,,,,0,32,32,51,,,,,,,,,,,,,,,,,,,,,LDT,left,0.9171614333754405,1,,,left,1,0.9171614333754405,,,,,,,,,,,,,,,,,,,,,,1008,2019_Mar_06_0950,mf_amp_cond2,3.0.4,59.98353225123907,
latter,&&&&&&,left,neutral,,,,,,,,0,33,33,71,,,,,,,,,,,,,,,,,,,,,LDT,right,0.5170704125193879,0,,,right,0,0.5170704125193879,,,,,,,,,,,,,,,,,,,,,,1008,2019_Mar_06_0950,mf_amp_cond2,3.0.4,59.98353225123907,
wherever,&&&&&&&&,left,neutral,,,,,,,,0,34,34,143,,,,,,,,,,,,,,,,,,,,,LDT,right,0.6670921575278044,0,,,right,0,0.6670921575278044,,,,,,,,,,,,,,,,,,,,,,1008,2019_Mar_06_0950,mf_amp_cond2,3.0.4,59.98353225123907,
free,&&&&,left,fairness.virtue,,,,,,,,0,35,35,56,,,,,,,,,,,,,,,,,,,,,LDT,right,0.6004234168212861,0,,,right,0,0.6004234168212861,,,,,,,,,,,,,,,,,,,,,,1008,2019_Mar_06_0950,mf_amp_cond2,3.0.4,59.98353225123907,
carvels,&&&&&&&,None,nonword,,,,,,,,0,36,36,106,,,,,,,,,,,,,,,,,,,,,LDT,left,1.1172648339997977,0,,,left,0,1.1172648339997977,,,,,,,,,,,,,,,,,,,,,,1008,2019_Mar_06_0950,mf_amp_cond2,3.0.4,59.98353225123907,
less,&&&&,left,neutral,,,,,,,,0,37,37,50,,,,,,,,,,,,,,,,,,,,,LDT,right,0.43370586226228625,0,,,right,0,0.43370586226228625,,,,,,,,,,,,,,,,,,,,,,1008,2019_Mar_06_0950,mf_amp_cond2,3.0.4,59.98353225123907,
lies,&&&&,left,fairness.vice,,,,,,,,0,38,38,24,,,,,,,,,,,,,,,,,,,,,LDT,right,0.5837850163225085,0,,,right,0,0.5837850163225085,,,,,,,,,,,,,,,,,,,,,,1008,2019_Mar_06_0950,mf_amp_cond2,3.0.4,59.98353225123907,
clattening,&&&&&&&&&&,right,nonword,,,,,,,,0,39,39,123,,,,,,,,,,,,,,,,,,,,,LDT,left,1.7507126436103135,0,,,left,0,1.7507126436103135,,,,,,,,,,,,,,,,,,,,,,1008,2019_Mar_06_0950,mf_amp_cond2,3.0.4,59.98353225123907,
support,&&&&&&&,left,loyalty.virtue,,,,,,,,0,40,40,44,,,,,,,,,,,,,,,,,,,,,LDT,right,0.4337379344506189,0,,,right,0,0.4337379344506189,,,,,,,,,,,,,,,,,,,,,,1008,2019_Mar_06_0950,mf_amp_cond2,3.0.4,59.98353225123907,
critics,&&&&&&&,left,loyalty.vice,,,,,,,,0,41,41,10,,,,,,,,,,,,,,,,,,,,,LDT,left,1.1839130484731868,1,,,left,1,1.1839130484731868,,,,,,,,,,,,,,,,,,,,,,1008,2019_Mar_06_0950,mf_amp_cond2,3.0.4,59.98353225123907,
fifteen,&&&&&&&,left,neutral,,,,,,,,0,42,42,101,,,,,,,,,,,,,,,,,,,,,LDT,right,0.6835127878002822,0,,,right,0,0.6835127878002822,,,,,,,,,,,,,,,,,,,,,,1008,2019_Mar_06_0950,mf_amp_cond2,3.0.4,59.98353225123907,
myself,&&&&&&,left,neutral,,,,,,,,0,43,43,42,,,,,,,,,,,,,,,,,,,,,LDT,right,0.5003967328229919,0,,,right,0,0.5003967328229919,,,,,,,,,,,,,,,,,,,,,,1008,2019_Mar_06_0950,mf_amp_cond2,3.0.4,59.98353225123907,
egpeditious,&&&&&&&&&&&,right,nonword,,,,,,,,0,44,44,62,,,,,,,,,,,,,,,,,,,,,LDT,left,2.617438665125519,0,,,left,0,2.617438665125519,,,,,,,,,,,,,,,,,,,,,,1008,2019_Mar_06_0950,mf_amp_cond2,3.0.4,59.98353225123907,
pulge,&&&&&,right,nonword,,,,,,,,0,45,45,109,,,,,,,,,,,,,,,,,,,,,LDT,right,1.7507177751976997,1,,,right,1,1.7507177751976997,,,,,,,,,,,,,,,,,,,,,,1008,2019_Mar_06_0950,mf_amp_cond2,3.0.4,59.98353225123907,
besides,&&&&&&&,left,neutral,,,,,,,,0,46,46,189,,,,,,,,,,,,,,,,,,,,,LDT,right,0.48372080794069916,0,,,right,0,0.48372080794069916,,,,,,,,,,,,,,,,,,,,,,1008,2019_Mar_06_0950,mf_amp_cond2,3.0.4,59.98353225123907,
viscs,&&&&&,None,nonword,,,,,,,,0,47,47,89,,,,,,,,,,,,,,,,,,,,,LDT,left,0.8171488610096276,0,,,left,0,0.8171488610096276,,,,,,,,,,,,,,,,,,,,,,1008,2019_Mar_06_0950,mf_amp_cond2,3.0.4,59.98353225123907,
riot,&&&&,left,authority.vice,,,,,,,,0,48,48,66,,,,,,,,,,,,,,,,,,,,,LDT,right,0.900489677907899,0,,,right,0,0.900489677907899,,,,,,,,,,,,,,,,,,,,,,1008,2019_Mar_06_0950,mf_amp_cond2,3.0.4,59.98353225123907,
noone,&&&&&,left,neutral,,,,,,,,0,49,49,98,,,,,,,,,,,,,,,,,,,,,LDT,right,0.7504522175295278,0,,,right,0,0.7504522175295278,,,,,,,,,,,,,,,,,,,,,,1008,2019_Mar_06_0950,mf_amp_cond2,3.0.4,59.98353225123907,
restore,&&&&&&&,left,care.virtue,,,,,,,,0,50,50,108,,,,,,,,,,,,,,,,,,,,,LDT,right,0.9338992574485019,0,,,right,0,0.9338992574485019,,,,,,,,,,,,,,,,,,,,,,1008,2019_Mar_06_0950,mf_amp_cond2,3.0.4,59.98353225123907,
died,&&&&,left,care.vice,,,,,,,,0,51,51,131,,,,,,,,,,,,,,,,,,,,,LDT,right,0.7170833697309718,0,,,right,0,0.7170833697309718,,,,,,,,,,,,,,,,,,,,,,1008,2019_Mar_06_0950,mf_amp_cond2,3.0.4,59.98353225123907,
precificity,&&&&&&&&&&&,right,nonword,,,,,,,,0,52,52,8,,,,,,,,,,,,,,,,,,,,,LDT,left,2.35102476994507,0,,,left,0,2.35102476994507,,,,,,,,,,,,,,,,,,,,,,1008,2019_Mar_06_0950,mf_amp_cond2,3.0.4,59.98353225123907,
latterly,&&&&&&&&,left,neutral,,,,,,,,0,53,53,183,,,,,,,,,,,,,,,,,,,,,LDT,left,0.7837976528098807,1,,,left,1,0.7837976528098807,,,,,,,,,,,,,,,,,,,,,,1008,2019_Mar_06_0950,mf_amp_cond2,3.0.4,59.98353225123907,
greaks,&&&&&&,right,nonword,,,,,,,,0,54,54,52,,,,,,,,,,,,,,,,,,,,,LDT,right,1.6673689403105527,1,,,right,1,1.6673689403105527,,,,,,,,,,,,,,,,,,,,,,1008,2019_Mar_06_0950,mf_amp_cond2,3.0.4,59.98353225123907,
supervuned,&&&&&&&&&&,right,nonword,,,,,,,,0,55,55,67,,,,,,,,,,,,,,,,,,,,,LDT,left,1.6840660327579826,0,,,left,0,1.6840660327579826,,,,,,,,,,,,,,,,,,,,,,1008,2019_Mar_06_0950,mf_amp_cond2,3.0.4,59.98353225123907,
even,&&&&,left,neutral,,,,,,,,0,56,56,139,,,,,,,,,,,,,,,,,,,,,LDT,right,0.4337090695044026,0,,,right,0,0.4337090695044026,,,,,,,,,,,,,,,,,,,,,,1008,2019_Mar_06_0950,mf_amp_cond2,3.0.4,59.98353225123907,
baklara,&&&&&&&,right,nonword,,,,,,,,0,57,57,28,,,,,,,,,,,,,,,,,,,,,LDT,left,1.8174041555030271,0,,,left,0,1.8174041555030271,,,,,,,,,,,,,,,,,,,,,,1008,2019_Mar_06_0950,mf_amp_cond2,3.0.4,59.98353225123907,
tracious,&&&&&&&&,right,nonword,,,,,,,,0,58,58,112,,,,,,,,,,,,,,,,,,,,,LDT,left,1.017195493914187,0,,,left,0,1.017195493914187,,,,,,,,,,,,,,,,,,,,,,1008,2019_Mar_06_0950,mf_amp_cond2,3.0.4,59.98353225123907,
friends,&&&&&&&,left,loyalty.virtue,,,,,,,,0,59,59,81,,,,,,,,,,,,,,,,,,,,,LDT,right,0.5503994909813628,0,,,right,0,0.5503994909813628,,,,,,,,,,,,,,,,,,,,,,1008,2019_Mar_06_0950,mf_amp_cond2,3.0.4,59.98353225123907,
fangsters,&&&&&&&&&,right,nonword,,,,,,,,0,60,60,6,,,,,,,,,,,,,,,,,,,,,LDT,left,0.900544521282427,0,,,left,0,0.900544521282427,,,,,,,,,,,,,,,,,,,,,,1008,2019_Mar_06_0950,mf_amp_cond2,3.0.4,59.98353225123907,
help,&&&&,left,care.virtue,,,,,,,,0,61,61,96,,,,,,,,,,,,,,,,,,,,,LDT,right,0.933833188842982,0,,,right,0,0.933833188842982,,,,,,,,,,,,,,,,,,,,,,1008,2019_Mar_06_0950,mf_amp_cond2,3.0.4,59.98353225123907,
vurtain,&&&&&&&,right,nonword,,,,,,,,0,62,62,165,,,,,,,,,,,,,,,,,,,,,LDT,left,2.300841124728322,0,,,left,0,2.300841124728322,,,,,,,,,,,,,,,,,,,,,,1008,2019_Mar_06_0950,mf_amp_cond2,3.0.4,59.98353225123907,
mightingale,&&&&&&&&&&&,right,nonword,,,,,,,,0,63,63,59,,,,,,,,,,,,,,,,,,,,,LDT,left,1.0505290625151247,0,,,left,0,1.0505290625151247,,,,,,,,,,,,,,,,,,,,,,1008,2019_Mar_06_0950,mf_amp_cond2,3.0.4,59.98353225123907,
protect,&&&&&&&,left,fairness.virtue,,,,,,,,0,64,64,22,,,,,,,,,,,,,,,,,,,,,LDT,right,0.5003922425676137,0,,,right,0,0.5003922425676137,,,,,,,,,,,,,,,,,,,,,,1008,2019_Mar_06_0950,mf_amp_cond2,3.0.4,59.98353225123907,
mih,&&&,right,nonword,,,,,,,,0,65,65,75,,,,,,,,,,,,,,,,,,,,,LDT,right,0.8338138813851401,1,,,right,1,0.8338138813851401,,,,,,,,,,,,,,,,,,,,,,1008,2019_Mar_06_0950,mf_amp_cond2,3.0.4,59.98353225123907,
synchronazers,&&&&&&&&&&&&&,right,nonword,,,,,,,,0,66,66,184,,,,,,,,,,,,,,,,,,,,,LDT,left,2.0674628475680947,0,,,left,0,2.0674628475680947,,,,,,,,,,,,,,,,,,,,,,1008,2019_Mar_06_0950,mf_amp_cond2,3.0.4,59.98353225123907,
hence,&&&&&,left,neutral,,,,,,,,0,67,67,142,,,,,,,,,,,,,,,,,,,,,LDT,right,1.0838623102754354,0,,,right,0,1.0838623102754354,,,,,,,,,,,,,,,,,,,,,,1008,2019_Mar_06_0950,mf_amp_cond2,3.0.4,59.98353225123907,
win,&&&,left,fairness.virtue,,,,,,,,0,68,68,32,,,,,,,,,,,,,,,,,,,,,LDT,left,1.017200625501573,1,,,left,1,1.017200625501573,,,,,,,,,,,,,,,,,,,,,,1008,2019_Mar_06_0950,mf_amp_cond2,3.0.4,59.98353225123907,
arrests,&&&&&&&,left,authority.vice,,,,,,,,0,69,69,107,,,,,,,,,,,,,,,,,,,,,LDT,right,0.7504974392941222,0,,,right,0,0.7504974392941222,,,,,,,,,,,,,,,,,,,,,,1008,2019_Mar_06_0950,mf_amp_cond2,3.0.4,59.98353225123907,
could,&&&&&,left,neutral,,,,,,,,0,70,70,127,,,,,,,,,,,,,,,,,,,,,LDT,right,0.6336149055277929,0,,,right,0,0.6336149055277929,,,,,,,,,,,,,,,,,,,,,,1008,2019_Mar_06_0950,mf_amp_cond2,3.0.4,59.98353225123907,
mecan,&&&&&,right,nonword,,,,,,,,0,71,71,43,,,,,,,,,,,,,,,,,,,,,LDT,right,1.0171977389836684,1,,,right,1,1.0171977389836684,,,,,,,,,,,,,,,,,,,,,,1008,2019_Mar_06_0950,mf_amp_cond2,3.0.4,59.98353225123907,
hasks,&&&&&,right,nonword,,,,,,,,0,72,72,179,,,,,,,,,,,,,,,,,,,,,LDT,left,0.81714437098708,0,,,left,0,0.81714437098708,,,,,,,,,,,,,,,,,,,,,,1008,2019_Mar_06_0950,mf_amp_cond2,3.0.4,59.98353225123907,
sgrawl,&&&&&&,right,nonword,,,,,,,,0,73,73,168,,,,,,,,,,,,,,,,,,,,,LDT,right,1.3839683409314603,1,,,right,1,1.3839683409314603,,,,,,,,,,,,,,,,,,,,,,1008,2019_Mar_06_0950,mf_amp_cond2,3.0.4,59.98353225123907,
whereafter,&&&&&&&&&&,left,neutral,,,,,,,,0,74,74,77,,,,,,,,,,,,,,,,,,,,,LDT,right,0.867194275255315,0,,,right,0,0.867194275255315,,,,,,,,,,,,,,,,,,,,,,1008,2019_Mar_06_0950,mf_amp_cond2,3.0.4,59.98353225123907,
troops,&&&&&&,left,loyalty.vice,,,,,,,,0,75,75,55,,,,,,,,,,,,,,,,,,,,,LDT,left,0.7171205733902752,1,,,left,1,0.7171205733902752,,,,,,,,,,,,,,,,,,,,,,1008,2019_Mar_06_0950,mf_amp_cond2,3.0.4,59.98353225123907,
Loorish,&&&&&&&,right,nonword,,,,,,,,0,76,76,190,,,,,,,,,,,,,,,,,,,,,LDT,left,0.6004304726375267,0,,,left,0,0.6004304726375267,,,,,,,,,,,,,,,,,,,,,,1008,2019_Mar_06_0950,mf_amp_cond2,3.0.4,59.98353225123907,
nuckheap,&&&&&&&&,right,nonword,,,,,,,,0,77,77,154,,,,,,,,,,,,,,,,,,,,,LDT,left,1.1673080031760037,0,,,left,0,1.1673080031760037,,,,,,,,,,,,,,,,,,,,,,1008,2019_Mar_06_0950,mf_amp_cond2,3.0.4,59.98353225123907,
godlaness,&&&&&&&&&,right,nonword,,,,,,,,0,78,78,121,,,,,,,,,,,,,,,,,,,,,LDT,left,0.9672187143005431,0,,,left,0,0.9672187143005431,,,,,,,,,,,,,,,,,,,,,,1008,2019_Mar_06_0950,mf_amp_cond2,3.0.4,59.98353225123907,
itself,&&&&&&,left,neutral,,,,,,,,0,79,79,26,,,,,,,,,,,,,,,,,,,,,LDT,right,0.5335766755742952,0,,,right,0,0.5335766755742952,,,,,,,,,,,,,,,,,,,,,,1008,2019_Mar_06_0950,mf_amp_cond2,3.0.4,59.98353225123907,
hefurbished,&&&&&&&&&&&,right,nonword,,,,,,,,0,80,80,167,,,,,,,,,,,,,,,,,,,,,LDT,left,1.3339540367014706,0,,,left,0,1.3339540367014706,,,,,,,,,,,,,,,,,,,,,,1008,2019_Mar_06_0950,mf_amp_cond2,3.0.4,59.98353225123907,
further,&&&&&&&,left,neutral,,,,,,,,0,81,81,40,,,,,,,,,,,,,,,,,,,,,LDT,right,1.817401589709334,0,,,right,0,1.817401589709334,,,,,,,,,,,,,,,,,,,,,,1008,2019_Mar_06_0950,mf_amp_cond2,3.0.4,59.98353225123907,
fontacts,&&&&&&&&,right,nonword,,,,,,,,0,82,82,160,,,,,,,,,,,,,,,,,,,,,LDT,left,0.8504776188638061,0,,,left,0,0.8504776188638061,,,,,,,,,,,,,,,,,,,,,,1008,2019_Mar_06_0950,mf_amp_cond2,3.0.4,59.98353225123907,
elsewhere,&&&&&&&&&,left,neutral,,,,,,,,0,83,83,162,,,,,,,,,,,,,,,,,,,,,LDT,right,0.6004198888549581,0,,,right,0,0.6004198888549581,,,,,,,,,,,,,,,,,,,,,,1008,2019_Mar_06_0950,mf_amp_cond2,3.0.4,59.98353225123907,
proached,&&&&&&&&,right,nonword,,,,,,,,0,84,84,128,,,,,,,,,,,,,,,,,,,,,LDT,left,1.7173665669979528,0,,,left,0,1.7173665669979528,,,,,,,,,,,,,,,,,,,,,,1008,2019_Mar_06_0950,mf_amp_cond2,3.0.4,59.98353225123907,
amoungst,&&&&&&&&,left,neutral,,,,,,,,0,85,85,41,,,,,,,,,,,,,,,,,,,,,LDT,right,0.783814009744674,0,,,right,0,0.783814009744674,,,,,,,,,,,,,,,,,,,,,,1008,2019_Mar_06_0950,mf_amp_cond2,3.0.4,59.98353225123907,
anyhow,&&&&&&,left,neutral,,,,,,,,0,86,86,3,,,,,,,,,,,,,,,,,,,,,LDT,right,1.300606997916475,0,,,right,0,1.300606997916475,,,,,,,,,,,,,,,,,,,,,,1008,2019_Mar_06_0950,mf_amp_cond2,3.0.4,59.98353225123907,
voter,&&&&&,left,fairness.vice,,,,,,,,0,87,87,87,,,,,,,,,,,,,,,,,,,,,LDT,right,1.0005410575540736,0,,,right,0,1.0005410575540736,,,,,,,,,,,,,,,,,,,,,,1008,2019_Mar_06_0950,mf_amp_cond2,3.0.4,59.98353225123907,
perfect,&&&&&&&,left,sanctity.virtue,,,,,,,,0,88,88,57,,,,,,,,,,,,,,,,,,,,,LDT,right,0.5170723368646577,0,,,right,0,0.5170723368646577,,,,,,,,,,,,,,,,,,,,,,1008,2019_Mar_06_0950,mf_amp_cond2,3.0.4,59.98353225123907,
noped,&&&&&,right,nonword,,,,,,,,0,89,89,138,,,,,,,,,,,,,,,,,,,,,LDT,right,0.9171726586064324,1,,,right,1,0.9171726586064324,,,,,,,,,,,,,,,,,,,,,,1008,2019_Mar_06_0950,mf_amp_cond2,3.0.4,59.98353225123907,
neutralust,&&&&&&&&&&,right,nonword,,,,,,,,0,90,90,114,,,,,,,,,,,,,,,,,,,,,LDT,left,0.983870905591175,0,,,left,0,0.983870905591175,,,,,,,,,,,,,,,,,,,,,,1008,2019_Mar_06_0950,mf_amp_cond2,3.0.4,59.98353225123907,
safety,&&&&&&,left,care.virtue,,,,,,,,0,91,91,46,,,,,,,,,,,,,,,,,,,,,LDT,right,1.0005314358277246,0,,,right,0,1.0005314358277246,,,,,,,,,,,,,,,,,,,,,,1008,2019_Mar_06_0950,mf_amp_cond2,3.0.4,59.98353225123907,
oam,&&&,right,nonword,,,,,,,,0,92,92,94,,,,,,,,,,,,,,,,,,,,,LDT,left,0.967180869076401,0,,,left,0,0.967180869076401,,,,,,,,,,,,,,,,,,,,,,1008,2019_Mar_06_0950,mf_amp_cond2,3.0.4,59.98353225123907,
glacenta,&&&&&&&&,right,nonword,,,,,,,,0,93,93,93,,,,,,,,,,,,,,,,,,,,,LDT,right,1.5173221790464595,1,,,right,1,1.5173221790464595,,,,,,,,,,,,,,,,,,,,,,1008,2019_Mar_06_0950,mf_amp_cond2,3.0.4,59.98353225123907,
praise,&&&&&&,left,authority.virtue,,,,,,,,0,94,94,187,,,,,,,,,,,,,,,,,,,,,LDT,right,0.6504550399258733,0,,,right,0,0.6504550399258733,,,,,,,,,,,,,,,,,,,,,,1008,2019_Mar_06_0950,mf_amp_cond2,3.0.4,59.98353225123907,
trust,&&&&&,left,authority.virtue,,,,,,,,0,95,95,122,,,,,,,,,,,,,,,,,,,,,LDT,right,0.5837612829636782,0,,,right,0,0.5837612829636782,,,,,,,,,,,,,,,,,,,,,,1008,2019_Mar_06_0950,mf_amp_cond2,3.0.4,59.98353225123907,
neneficence,&&&&&&&&&&&,right,nonword,,,,,,,,0,96,96,161,,,,,,,,,,,,,,,,,,,,,LDT,left,0.9838709057075903,0,,,left,0,0.9838709057075903,,,,,,,,,,,,,,,,,,,,,,1008,2019_Mar_06_0950,mf_amp_cond2,3.0.4,59.98353225123907,
embrace,&&&&&&&,left,authority.virtue,,,,,,,,0,97,97,199,,,,,,,,,,,,,,,,,,,,,LDT,right,1.467313006403856,0,,,right,0,1.467313006403856,,,,,,,,,,,,,,,,,,,,,,1008,2019_Mar_06_0950,mf_amp_cond2,3.0.4,59.98353225123907,
give,&&&&,left,neutral,,,,,,,,0,98,98,185,,,,,,,,,,,,,,,,,,,,,LDT,right,0.8171706701396033,0,,,right,0,0.8171706701396033,,,,,,,,,,,,,,,,,,,,,,1008,2019_Mar_06_0950,mf_amp_cond2,3.0.4,59.98353225123907,
alar,&&&&,right,nonword,,,,,,,,0,99,99,171,,,,,,,,,,,,,,,,,,,,,LDT,left,0.7504589527379721,0,,,left,0,0.7504589527379721,,,,,,,,,,,,,,,,,,,,,,1008,2019_Mar_06_0950,mf_amp_cond2,3.0.4,59.98353225123907,
touls,&&&&&,right,nonword,,,,,,,,0,100,100,176,,,,,,,,,,,,,,,,,,,,,LDT,right,1.350618094787933,1,,,right,1,1.350618094787933,,,,,,,,,,,,,,,,,,,,,,1008,2019_Mar_06_0950,mf_amp_cond2,3.0.4,59.98353225123907,
clean,&&&&&,left,sanctity.virtue,,,,,,,,0,101,101,95,,,,,,,,,,,,,,,,,,,,,LDT,right,1.1505672924686223,0,,,right,0,1.1505672924686223,,,,,,,,,,,,,,,,,,,,,,1008,2019_Mar_06_0950,mf_amp_cond2,3.0.4,59.98353225123907,
death,&&&&&,left,care.vice,,,,,,,,0,102,102,155,,,,,,,,,,,,,,,,,,,,,LDT,right,0.600427586119622,0,,,right,0,0.600427586119622,,,,,,,,,,,,,,,,,,,,,,1008,2019_Mar_06_0950,mf_amp_cond2,3.0.4,59.98353225123907,
hereby,&&&&&&,left,neutral,,,,,,,,0,103,103,69,,,,,,,,,,,,,,,,,,,,,LDT,right,1.1672393686603755,0,,,right,0,1.1672393686603755,,,,,,,,,,,,,,,,,,,,,,1008,2019_Mar_06_0950,mf_amp_cond2,3.0.4,59.98353225123907,
fear,&&&&,left,sanctity.vice,,,,,,,,0,104,104,119,,,,,,,,,,,,,,,,,,,,,LDT,right,1.2339196553220972,0,,,right,0,1.2339196553220972,,,,,,,,,,,,,,,,,,,,,,1008,2019_Mar_06_0950,mf_amp_cond2,3.0.4,59.98353225123907,
values,&&&&&&,left,sanctity.virtue,,,,,,,,0,105,105,132,,,,,,,,,,,,,,,,,,,,,LDT,right,0.7504688950721174,0,,,right,0,0.7504688950721174,,,,,,,,,,,,,,,,,,,,,,1008,2019_Mar_06_0950,mf_amp_cond2,3.0.4,59.98353225123907,
ability,&&&&&&&,left,authority.virtue,,,,,,,,0,106,106,88,,,,,,,,,,,,,,,,,,,,,LDT,right,0.7671313496539369,0,,,right,0,0.7671313496539369,,,,,,,,,,,,,,,,,,,,,,1008,2019_Mar_06_0950,mf_amp_cond2,3.0.4,59.98353225123907,
framatic,&&&&&&&&,right,nonword,,,,,,,,0,107,107,177,,,,,,,,,,,,,,,,,,,,,LDT,left,1.267242960864678,0,,,left,0,1.267242960864678,,,,,,,,,,,,,,,,,,,,,,1008,2019_Mar_06_0950,mf_amp_cond2,3.0.4,59.98353225123907,
fifty,&&&&&,left,neutral,,,,,,,,0,108,108,196,,,,,,,,,,,,,,,,,,,,,LDT,right,1.750712322886102,0,,,right,0,1.750712322886102,,,,,,,,,,,,,,,,,,,,,,1008,2019_Mar_06_0950,mf_amp_cond2,3.0.4,59.98353225123907,
done,&&&&,left,neutral,,,,,,,,0,109,109,126,,,,,,,,,,,,,,,,,,,,,LDT,right,1.1505570294102654,0,,,right,0,1.1505570294102654,,,,,,,,,,,,,,,,,,,,,,1008,2019_Mar_06_0950,mf_amp_cond2,3.0.4,59.98353225123907,
laming,&&&&&&,right,nonword,,,,,,,,0,110,110,164,,,,,,,,,,,,,,,,,,,,,LDT,left,0.8504853160120547,0,,,left,0,0.8504853160120547,,,,,,,,,,,,,,,,,,,,,,1008,2019_Mar_06_0950,mf_amp_cond2,3.0.4,59.98353225123907,
ablow,&&&&&,right,nonword,,,,,,,,0,111,111,137,,,,,,,,,,,,,,,,,,,,,LDT,left,1.200571333640255,0,,,left,0,1.200571333640255,,,,,,,,,,,,,,,,,,,,,,1008,2019_Mar_06_0950,mf_amp_cond2,3.0.4,59.98353225123907,
either,&&&&&&,left,neutral,,,,,,,,0,112,112,124,,,,,,,,,,,,,,,,,,,,,LDT,right,0.6170993415871635,0,,,right,0,0.6170993415871635,,,,,,,,,,,,,,,,,,,,,,1008,2019_Mar_06_0950,mf_amp_cond2,3.0.4,59.98353225123907,
chadows,&&&&&&&,right,nonword,,,,,,,,0,113,113,148,,,,,,,,,,,,,,,,,,,,,LDT,left,0.8171440502628684,0,,,left,0,0.8171440502628684,,,,,,,,,,,,,,,,,,,,,,1008,2019_Mar_06_0950,mf_amp_cond2,3.0.4,59.98353225123907,
nonobservalt,&&&&&&&&&&&&,right,nonword,,,,,,,,0,114,114,64,,,,,,,,,,,,,,,,,,,,,LDT,left,0.8838435801444575,0,,,left,0,0.8838435801444575,,,,,,,,,,,,,,,,,,,,,,1008,2019_Mar_06_0950,mf_amp_cond2,3.0.4,59.98353225123907,
ronviolence,&&&&&&&&&&&,right,nonword,,,,,,,,0,115,115,116,,,,,,,,,,,,,,,,,,,,,LDT,right,1.0171897209947929,1,,,right,1,1.0171897209947929,,,,,,,,,,,,,,,,,,,,,,1008,2019_Mar_06_0950,mf_amp_cond2,3.0.4,59.98353225123907,
photocalkodes,&&&&&&&&&&&&&,right,nonword,,,,,,,,0,116,116,120,,,,,,,,,,,,,,,,,,,,,LDT,left,0.9838551903376356,0,,,left,0,0.9838551903376356,,,,,,,,,,,,,,,,,,,,,,1008,2019_Mar_06_0950,mf_amp_cond2,3.0.4,59.98353225123907,
gazily,&&&&&&,right,nonword,,,,,,,,0,117,117,140,,,,,,,,,,,,,,,,,,,,,LDT,left,1.2172530314419419,0,,,left,0,1.2172530314419419,,,,,,,,,,,,,,,,,,,,,,1008,2019_Mar_06_0950,mf_amp_cond2,3.0.4,59.98353225123907,
tabin,&&&&&,right,nonword,,,,,,,,0,118,118,91,,,,,,,,,,,,,,,,,,,,,LDT,right,1.3005890374770388,1,,,right,1,1.3005890374770388,,,,,,,,,,,,,,,,,,,,,,1008,2019_Mar_06_0950,mf_amp_cond2,3.0.4,59.98353225123907,
vicissifude,&&&&&&&&&&&,right,nonword,,,,,,,,0,119,119,54,,,,,,,,,,,,,,,,,,,,,LDT,left,1.133891367702745,0,,,left,0,1.133891367702745,,,,,,,,,,,,,,,,,,,,,,1008,2019_Mar_06_0950,mf_amp_cond2,3.0.4,59.98353225123907,
accused,&&&&&&&,left,fairness.vice,,,,,,,,0,120,120,4,,,,,,,,,,,,,,,,,,,,,LDT,right,1.3339517916319892,0,,,right,0,1.3339517916319892,,,,,,,,,,,,,,,,,,,,,,1008,2019_Mar_06_0950,mf_amp_cond2,3.0.4,59.98353225123907,
epigrach,&&&&&&&&,right,nonword,,,,,,,,0,121,121,130,,,,,,,,,,,,,,,,,,,,,LDT,left,0.61708779563196,0,,,left,0,0.61708779563196,,,,,,,,,,,,,,,,,,,,,,1008,2019_Mar_06_0950,mf_amp_cond2,3.0.4,59.98353225123907,
erdest,&&&&&&,right,nonword,,,,,,,,0,122,122,194,,,,,,,,,,,,,,,,,,,,,LDT,right,1.1338923298753798,1,,,right,1,1.1338923298753798,,,,,,,,,,,,,,,,,,,,,,1008,2019_Mar_06_0950,mf_amp_cond2,3.0.4,59.98353225123907,
perified,&&&&&&&&,right,nonword,,,,,,,,0,123,123,53,,,,,,,,,,,,,,,,,,,,,LDT,right,1.5173186510801315,1,,,right,1,1.5173186510801315,,,,,,,,,,,,,,,,,,,,,,1008,2019_Mar_06_0950,mf_amp_cond2,3.0.4,59.98353225123907,
nackers,&&&&&&&,right,nonword,,,,,,,,0,124,124,39,,,,,,,,,,,,,,,,,,,,,LDT,left,1.0005580557044595,0,,,left,0,1.0005580557044595,,,,,,,,,,,,,,,,,,,,,,1008,2019_Mar_06_0950,mf_amp_cond2,3.0.4,59.98353225123907,
metibolic,&&&&&&&&&,right,nonword,,,,,,,,0,125,125,113,,,,,,,,,,,,,,,,,,,,,LDT,left,0.9338322265539318,0,,,left,0,0.9338322265539318,,,,,,,,,,,,,,,,,,,,,,1008,2019_Mar_06_0950,mf_amp_cond2,3.0.4,59.98353225123907,
victims,&&&&&&&,left,care.vice,,,,,,,,0,126,126,170,,,,,,,,,,,,,,,,,,,,,LDT,right,0.6505528599955142,0,,,right,0,0.6505528599955142,,,,,,,,,,,,,,,,,,,,,,1008,2019_Mar_06_0950,mf_amp_cond2,3.0.4,59.98353225123907,
great,&&&&&,left,loyalty.virtue,,,,,,,,0,127,127,180,,,,,,,,,,,,,,,,,,,,,LDT,right,0.8671599579975009,0,,,right,0,0.8671599579975009,,,,,,,,,,,,,,,,,,,,,,1008,2019_Mar_06_0950,mf_amp_cond2,3.0.4,59.98353225123907,
seem,&&&&,left,neutral,,,,,,,,0,128,128,104,,,,,,,,,,,,,,,,,,,,,LDT,right,0.6004375284537673,0,,,right,0,0.6004375284537673,,,,,,,,,,,,,,,,,,,,,,1008,2019_Mar_06_0950,mf_amp_cond2,3.0.4,59.98353225123907,
progress,&&&&&&&&,left,authority.virtue,,,,,,,,0,129,129,78,,,,,,,,,,,,,,,,,,,,,LDT,right,0.61710062448401,0,,,right,0,0.61710062448401,,,,,,,,,,,,,,,,,,,,,,1008,2019_Mar_06_0950,mf_amp_cond2,3.0.4,59.98353225123907,
strong,&&&&&&,left,loyalty.virtue,,,,,,,,0,130,130,14,,,,,,,,,,,,,,,,,,,,,LDT,right,1.167226860532537,0,,,right,0,1.167226860532537,,,,,,,,,,,,,,,,,,,,,,1008,2019_Mar_06_0950,mf_amp_cond2,3.0.4,59.98353225123907,
brotesque,&&&&&&&&&,right,nonword,,,,,,,,0,131,131,152,,,,,,,,,,,,,,,,,,,,,LDT,right,1.4339611567556858,1,,,right,1,1.4339611567556858,,,,,,,,,,,,,,,,,,,,,,1008,2019_Mar_06_0950,mf_amp_cond2,3.0.4,59.98353225123907,
anything,&&&&&&&&,left,neutral,,,,,,,,0,132,132,35,,,,,,,,,,,,,,,,,,,,,LDT,right,0.8504904475994408,0,,,right,0,0.8504904475994408,,,,,,,,,,,,,,,,,,,,,,1008,2019_Mar_06_0950,mf_amp_cond2,3.0.4,59.98353225123907,
rivernoat,&&&&&&&&&,right,nonword,,,,,,,,0,133,133,82,,,,,,,,,,,,,,,,,,,,,LDT,left,0.6171070388518274,0,,,left,0,0.6171070388518274,,,,,,,,,,,,,,,,,,,,,,1008,2019_Mar_06_0950,mf_amp_cond2,3.0.4,59.98353225123907,
saned,&&&&&,None,nonword,,,,,,,,0,134,134,99,,,,,,,,,,,,,,,,,,,,,LDT,left,1.6673654123442248,0,,,left,0,1.6673654123442248,,,,,,,,,,,,,,,,,,,,,,1008,2019_Mar_06_0950,mf_amp_cond2,3.0.4,59.98353225123907,
each,&&&&,left,neutral,,,,,,,,0,135,135,29,,,,,,,,,,,,,,,,,,,,,LDT,right,0.5337415265385062,0,,,right,0,0.5337415265385062,,,,,,,,,,,,,,,,,,,,,,1008,2019_Mar_06_0950,mf_amp_cond2,3.0.4,59.98353225123907,
honstables,&&&&&&&&&&,right,nonword,,,,,,,,0,136,136,17,,,,,,,,,,,,,,,,,,,,,LDT,left,0.8004655595868826,0,,,left,0,0.8004655595868826,,,,,,,,,,,,,,,,,,,,,,1008,2019_Mar_06_0950,mf_amp_cond2,3.0.4,59.98353225123907,
forty,&&&&&,left,neutral,,,,,,,,0,137,137,163,,,,,,,,,,,,,,,,,,,,,LDT,right,0.8504837123909965,0,,,right,0,0.8504837123909965,,,,,,,,,,,,,,,,,,,,,,1008,2019_Mar_06_0950,mf_amp_cond2,3.0.4,59.98353225123907,
seachwear,&&&&&&&&&,right,nonword,,,,,,,,0,138,138,16,,,,,,,,,,,,,,,,,,,,,LDT,left,1.1839024646906182,0,,,left,0,1.1839024646906182,,,,,,,,,,,,,,,,,,,,,,1008,2019_Mar_06_0950,mf_amp_cond2,3.0.4,59.98353225123907,
front,&&&&&,left,neutral,,,,,,,,0,139,139,86,,,,,,,,,,,,,,,,,,,,,LDT,right,1.183901823242195,0,,,right,0,1.183901823242195,,,,,,,,,,,,,,,,,,,,,,1008,2019_Mar_06_0950,mf_amp_cond2,3.0.4,59.98353225123907,
fegard,&&&&&&,right,nonword,,,,,,,,0,140,140,23,,,,,,,,,,,,,,,,,,,,,LDT,left,1.2505849964218214,0,,,left,0,1.2505849964218214,,,,,,,,,,,,,,,,,,,,,,1008,2019_Mar_06_0950,mf_amp_cond2,3.0.4,59.98353225123907,
gusinesslike,&&&&&&&&&&&&,right,nonword,,,,,,,,0,141,141,195,,,,,,,,,,,,,,,,,,,,,LDT,right,1.9174282738240436,1,,,right,1,1.9174282738240436,,,,,,,,,,,,,,,,,,,,,,1008,2019_Mar_06_0950,mf_amp_cond2,3.0.4,59.98353225123907,
rorroborated,&&&&&&&&&&&&,right,nonword,,,,,,,,0,142,142,151,,,,,,,,,,,,,,,,,,,,,LDT,left,0.817148540285416,0,,,left,0,0.817148540285416,,,,,,,,,,,,,,,,,,,,,,1008,2019_Mar_06_0950,mf_amp_cond2,3.0.4,59.98353225123907,
ecgagement,&&&&&&&&&&,None,nonword,,,,,,,,0,143,143,159,,,,,,,,,,,,,,,,,,,,,LDT,right,0.7337855937657878,0,,,right,0,0.7337855937657878,,,,,,,,,,,,,,,,,,,,,,1008,2019_Mar_06_0950,mf_amp_cond2,3.0.4,59.98353225123907,
bycled,&&&&&&,None,nonword,,,,,,,,0,144,144,178,,,,,,,,,,,,,,,,,,,,,LDT,left,1.367285360232927,0,,,left,0,1.367285360232927,,,,,,,,,,,,,,,,,,,,,,1008,2019_Mar_06_0950,mf_amp_cond2,3.0.4,59.98353225123907,
baladroit,&&&&&&&&&,right,nonword,,,,,,,,0,145,145,141,,,,,,,,,,,,,,,,,,,,,LDT,left,1.5840120874345303,0,,,left,0,1.5840120874345303,,,,,,,,,,,,,,,,,,,,,,1008,2019_Mar_06_0950,mf_amp_cond2,3.0.4,59.98353225123907,
strofe,&&&&&&,right,nonword,,,,,,,,0,146,146,135,,,,,,,,,,,,,,,,,,,,,LDT,left,1.217255597235635,0,,,left,0,1.217255597235635,,,,,,,,,,,,,,,,,,,,,,1008,2019_Mar_06_0950,mf_amp_cond2,3.0.4,59.98353225123907,
lempestuous,&&&&&&&&&&&,right,nonword,,,,,,,,0,147,147,166,,,,,,,,,,,,,,,,,,,,,LDT,left,0.7671287838602439,0,,,left,0,0.7671287838602439,,,,,,,,,,,,,,,,,,,,,,1008,2019_Mar_06_0950,mf_amp_cond2,3.0.4,59.98353225123907,
emassion,&&&&&&&&,right,nonword,,,,,,,,0,148,148,19,,,,,,,,,,,,,,,,,,,,,LDT,right,0.483722411445342,1,,,right,1,0.483722411445342,,,,,,,,,,,,,,,,,,,,,,1008,2019_Mar_06_0950,mf_amp_cond2,3.0.4,59.98353225123907,
pumber,&&&&&&,None,nonword,,,,,,,,0,149,149,125,,,,,,,,,,,,,,,,,,,,,LDT,left,0.9338392826030031,0,,,left,0,0.9338392826030031,,,,,,,,,,,,,,,,,,,,,,1008,2019_Mar_06_0950,mf_amp_cond2,3.0.4,59.98353225123907,
tomedians,&&&&&&&&&,right,nonword,,,,,,,,0,150,150,173,,,,,,,,,,,,,,,,,,,,,LDT,left,0.8504962206352502,0,,,left,0,0.8504962206352502,,,,,,,,,,,,,,,,,,,,,,1008,2019_Mar_06_0950,mf_amp_cond2,3.0.4,59.98353225123907,
ban,&&&,left,loyalty.vice,,,,,,,,0,151,151,79,,,,,,,,,,,,,,,,,,,,,LDT,left,1.7340428124880418,1,,,left,1,1.7340428124880418,,,,,,,,,,,,,,,,,,,,,,1008,2019_Mar_06_0950,mf_amp_cond2,3.0.4,59.98353225123907,
betrayal,&&&&&&&&,left,loyalty.vice,,,,,,,,0,152,152,12,,,,,,,,,,,,,,,,,,,,,LDT,left,1.1005276512587443,1,,,left,1,1.1005276512587443,,,,,,,,,,,,,,,,,,,,,,1008,2019_Mar_06_0950,mf_amp_cond2,3.0.4,59.98353225123907,
least,&&&&&,left,neutral,,,,,,,,0,153,153,146,,,,,,,,,,,,,,,,,,,,,LDT,right,1.150599685497582,0,,,right,0,1.150599685497582,,,,,,,,,,,,,,,,,,,,,,1008,2019_Mar_06_0950,mf_amp_cond2,3.0.4,59.98353225123907,
reprisols,&&&&&&&&&,right,nonword,,,,,,,,0,154,154,61,,,,,,,,,,,,,,,,,,,,,LDT,left,0.7169711170718074,0,,,left,0,0.7169711170718074,,,,,,,,,,,,,,,,,,,,,,1008,2019_Mar_06_0950,mf_amp_cond2,3.0.4,59.98353225123907,
frocessing,&&&&&&&&&&,right,nonword,,,,,,,,0,155,155,65,,,,,,,,,,,,,,,,,,,,,LDT,right,1.0837176649365574,1,,,right,1,1.0837176649365574,,,,,,,,,,,,,,,,,,,,,,1008,2019_Mar_06_0950,mf_amp_cond2,3.0.4,59.98353225123907,
forced,&&&&&&,left,fairness.vice,,,,,,,,0,156,156,37,,,,,,,,,,,,,,,,,,,,,LDT,right,0.6337682105368003,0,,,right,0,0.6337682105368003,,,,,,,,,,,,,,,,,,,,,,1008,2019_Mar_06_0950,mf_amp_cond2,3.0.4,59.98353225123907,
been,&&&&,left,neutral,,,,,,,,0,157,157,47,,,,,,,,,,,,,,,,,,,,,LDT,right,0.5337456959532574,0,,,right,0,0.5337456959532574,,,,,,,,,,,,,,,,,,,,,,1008,2019_Mar_06_0950,mf_amp_cond2,3.0.4,59.98353225123907,
peace,&&&&&,left,care.virtue,,,,,,,,0,158,158,198,,,,,,,,,,,,,,,,,,,,,LDT,right,0.5836772539187223,0,,,right,0,0.5836772539187223,,,,,,,,,,,,,,,,,,,,,,1008,2019_Mar_06_0950,mf_amp_cond2,3.0.4,59.98353225123907,
sickyay,&&&&&&&,right,nonword,,,,,,,,0,159,159,34,,,,,,,,,,,,,,,,,,,,,LDT,left,0.5670362877426669,0,,,left,0,0.5670362877426669,,,,,,,,,,,,,,,,,,,,,,1008,2019_Mar_06_0950,mf_amp_cond2,3.0.4,59.98353225123907,
leact,&&&&&,right,nonword,,,,,,,,0,160,160,147,,,,,,,,,,,,,,,,,,,,,LDT,right,0.6504297029459849,1,,,right,1,0.6504297029459849,,,,,,,,,,,,,,,,,,,,,,1008,2019_Mar_06_0950,mf_amp_cond2,3.0.4,59.98353225123907,
sliptery,&&&&&&&&,right,nonword,,,,,,,,0,161,161,156,,,,,,,,,,,,,,,,,,,,,LDT,left,0.7671380848623812,0,,,left,0,0.7671380848623812,,,,,,,,,,,,,,,,,,,,,,1008,2019_Mar_06_0950,mf_amp_cond2,3.0.4,59.98353225123907,
three,&&&&&,left,neutral,,,,,,,,0,162,162,85,,,,,,,,,,,,,,,,,,,,,LDT,right,0.667105948436074,0,,,right,0,0.667105948436074,,,,,,,,,,,,,,,,,,,,,,1008,2019_Mar_06_0950,mf_amp_cond2,3.0.4,59.98353225123907,
toward,&&&&&&,left,neutral,,,,,,,,0,163,163,21,,,,,,,,,,,,,,,,,,,,,LDT,right,1.1172269887756556,0,,,right,0,1.1172269887756556,,,,,,,,,,,,,,,,,,,,,,1008,2019_Mar_06_0950,mf_amp_cond2,3.0.4,59.98353225123907,
halaise,&&&&&&&,None,nonword,,,,,,,,0,164,164,74,,,,,,,,,,,,,,,,,,,,,LDT,left,0.5337463374016806,0,,,left,0,0.5337463374016806,,,,,,,,,,,,,,,,,,,,,,1008,2019_Mar_06_0950,mf_amp_cond2,3.0.4,59.98353225123907,
fonderland,&&&&&&&&&&,right,nonword,,,,,,,,0,165,165,7,,,,,,,,,,,,,,,,,,,,,LDT,right,0.7337945739272982,1,,,right,1,0.7337945739272982,,,,,,,,,,,,,,,,,,,,,,1008,2019_Mar_06_0950,mf_amp_cond2,3.0.4,59.98353225123907,
couldnt,&&&&&&&,left,neutral,,,,,,,,0,166,166,80,,,,,,,,,,,,,,,,,,,,,LDT,left,0.5836044501047581,1,,,left,1,0.5836044501047581,,,,,,,,,,,,,,,,,,,,,,1008,2019_Mar_06_0950,mf_amp_cond2,3.0.4,59.98353225123907,
ilportation,&&&&&&&&&&&,right,nonword,,,,,,,,0,167,167,31,,,,,,,,,,,,,,,,,,,,,LDT,right,0.7337968189967796,1,,,right,1,0.7337968189967796,,,,,,,,,,,,,,,,,,,,,,1008,2019_Mar_06_0950,mf_amp_cond2,3.0.4,59.98353225123907,
interests,&&&&&&&&&,left,fairness.virtue,,,,,,,,0,168,168,13,,,,,,,,,,,,,,,,,,,,,LDT,right,0.8838573711691424,0,,,right,0,0.8838573711691424,,,,,,,,,,,,,,,,,,,,,,1008,2019_Mar_06_0950,mf_amp_cond2,3.0.4,59.98353225123907,
become,&&&&&&,left,neutral,,,,,,,,0,169,169,175,,,,,,,,,,,,,,,,,,,,,LDT,right,0.8838541639270261,0,,,right,0,0.8838541639270261,,,,,,,,,,,,,,,,,,,,,,1008,2019_Mar_06_0950,mf_amp_cond2,3.0.4,59.98353225123907,
imebreaker,&&&&&&&&&&,right,nonword,,,,,,,,0,170,170,129,,,,,,,,,,,,,,,,,,,,,LDT,right,1.0005115510430187,1,,,right,1,1.0005115510430187,,,,,,,,,,,,,,,,,,,,,,1008,2019_Mar_06_0950,mf_amp_cond2,3.0.4,59.98353225123907,
racist,&&&&&&,left,sanctity.vice,,,,,,,,0,171,171,90,,,,,,,,,,,,,,,,,,,,,LDT,right,1.1838960503228009,0,,,right,0,1.1838960503228009,,,,,,,,,,,,,,,,,,,,,,1008,2019_Mar_06_0950,mf_amp_cond2,3.0.4,59.98353225123907,
therefore,&&&&&&&&&,left,neutral,,,,,,,,0,172,172,92,,,,,,,,,,,,,,,,,,,,,LDT,right,1.1172170465579256,0,,,right,0,1.1172170465579256,,,,,,,,,,,,,,,,,,,,,,1008,2019_Mar_06_0950,mf_amp_cond2,3.0.4,59.98353225123907,
letish,&&&&&&,right,nonword,,,,,,,,0,173,173,191,,,,,,,,,,,,,,,,,,,,,LDT,left,1.1505586330313236,0,,,left,0,1.1505586330313236,,,,,,,,,,,,,,,,,,,,,,1008,2019_Mar_06_0950,mf_amp_cond2,3.0.4,59.98353225123907,
ejanulated,&&&&&&&&&&,right,nonword,,,,,,,,0,174,174,73,,,,,,,,,,,,,,,,,,,,,LDT,left,1.3006624827394262,0,,,left,0,1.3006624827394262,,,,,,,,,,,,,,,,,,,,,,1008,2019_Mar_06_0950,mf_amp_cond2,3.0.4,59.98353225123907,
iptervention,&&&&&&&&&&&&,right,nonword,,,,,,,,0,175,175,38,,,,,,,,,,,,,,,,,,,,,LDT,left,1.7340424917638302,0,,,left,0,1.7340424917638302,,,,,,,,,,,,,,,,,,,,,,1008,2019_Mar_06_0950,mf_amp_cond2,3.0.4,59.98353225123907,
ammessment,&&&&&&&&&&,right,nonword,,,,,,,,0,176,176,58,,,,,,,,,,,,,,,,,,,,,LDT,right,0.5504059053491801,1,,,right,1,0.5504059053491801,,,,,,,,,,,,,,,,,,,,,,1008,2019_Mar_06_0950,mf_amp_cond2,3.0.4,59.98353225123907,
lorthwhile,&&&&&&&&&&,right,nonword,,,,,,,,0,177,177,111,,,,,,,,,,,,,,,,,,,,,LDT,left,0.8338267102371901,0,,,left,0,0.8338267102371901,,,,,,,,,,,,,,,,,,,,,,1008,2019_Mar_06_0950,mf_amp_cond2,3.0.4,59.98353225123907,
smapper,&&&&&&&,right,nonword,,,,,,,,0,178,178,45,,,,,,,,,,,,,,,,,,,,,LDT,left,1.1672518767882138,0,,,left,0,1.1672518767882138,,,,,,,,,,,,,,,,,,,,,,1008,2019_Mar_06_0950,mf_amp_cond2,3.0.4,59.98353225123907,
about,&&&&&,left,neutral,,,,,,,,0,179,179,172,,,,,,,,,,,,,,,,,,,,,LDT,right,0.5170630358625203,0,,,right,0,0.5170630358625203,,,,,,,,,,,,,,,,,,,,,,1008,2019_Mar_06_0950,mf_amp_cond2,3.0.4,59.98353225123907,
yane,&&&&,right,nonword,,,,,,,,0,180,180,70,,,,,,,,,,,,,,,,,,,,,LDT,right,1.5506486917147413,1,,,right,1,1.5506486917147413,,,,,,,,,,,,,,,,,,,,,,1008,2019_Mar_06_0950,mf_amp_cond2,3.0.4,59.98353225123907,
ittutable,&&&&&&&&&,right,nonword,,,,,,,,0,181,181,197,,,,,,,,,,,,,,,,,,,,,LDT,left,0.8504846746800467,0,,,left,0,0.8504846746800467,,,,,,,,,,,,,,,,,,,,,,1008,2019_Mar_06_0950,mf_amp_cond2,3.0.4,59.98353225123907,
both,&&&&,left,neutral,,,,,,,,0,182,182,36,,,,,,,,,,,,,,,,,,,,,LDT,right,0.6504239299101755,0,,,right,0,0.6504239299101755,,,,,,,,,,,,,,,,,,,,,,1008,2019_Mar_06_0950,mf_amp_cond2,3.0.4,59.98353225123907,
crime,&&&&&,left,fairness.vice,,,,,,,,0,183,183,84,,,,,,,,,,,,,,,,,,,,,LDT,right,0.6171189056476578,0,,,right,0,0.6171189056476578,,,,,,,,,,,,,,,,,,,,,,1008,2019_Mar_06_0950,mf_amp_cond2,3.0.4,59.98353225123907,
promote,&&&&&&&,left,sanctity.virtue,,,,,,,,0,184,184,48,,,,,,,,,,,,,,,,,,,,,LDT,right,0.5670754157472402,0,,,right,0,0.5670754157472402,,,,,,,,,,,,,,,,,,,,,,1008,2019_Mar_06_0950,mf_amp_cond2,3.0.4,59.98353225123907,
erks,&&&&,right,nonword,,,,,,,,0,185,185,105,,,,,,,,,,,,,,,,,,,,,LDT,left,1.0838725734502077,0,,,left,0,1.0838725734502077,,,,,,,,,,,,,,,,,,,,,,1008,2019_Mar_06_0950,mf_amp_cond2,3.0.4,59.98353225123907,
although,&&&&&&&&,left,neutral,,,,,,,,0,186,186,117,,,,,,,,,,,,,,,,,,,,,LDT,right,0.5170643187593669,0,,,right,0,0.5170643187593669,,,,,,,,,,,,,,,,,,,,,,1008,2019_Mar_06_0950,mf_amp_cond2,3.0.4,59.98353225123907,
Oregoniuns,&&&&&&&&&&,right,nonword,,,,,,,,0,187,187,60,,,,,,,,,,,,,,,,,,,,,LDT,left,0.917191901942715,0,,,left,0,0.917191901942715,,,,,,,,,,,,,,,,,,,,,,1008,2019_Mar_06_0950,mf_amp_cond2,3.0.4,59.98353225123907,
towards,&&&&&&&,left,neutral,,,,,,,,0,188,188,1,,,,,,,,,,,,,,,,,,,,,LDT,right,0.500392242684029,0,,,right,0,0.500392242684029,,,,,,,,,,,,,,,,,,,,,,1008,2019_Mar_06_0950,mf_amp_cond2,3.0.4,59.98353225123907,
reviked,&&&&&&&,right,nonword,,,,,,,,0,189,189,72,,,,,,,,,,,,,,,,,,,,,LDT,right,0.6671040242072195,1,,,right,1,0.6671040242072195,,,,,,,,,,,,,,,,,,,,,,1008,2019_Mar_06_0950,mf_amp_cond2,3.0.4,59.98353225123907,
harassment,&&&&&&&&&&,left,sanctity.vice,,,,,,,,0,190,190,5,,,,,,,,,,,,,,,,,,,,,LDT,right,2.100820790976286,0,,,right,0,2.100820790976286,,,,,,,,,,,,,,,,,,,,,,1008,2019_Mar_06_0950,mf_amp_cond2,3.0.4,59.98353225123907,
discovars,&&&&&&&&&,right,nonword,,,,,,,,0,191,191,174,,,,,,,,,,,,,,,,,,,,,LDT,left,1.9674368050182238,0,,,left,0,1.9674368050182238,,,,,,,,,,,,,,,,,,,,,,1008,2019_Mar_06_0950,mf_amp_cond2,3.0.4,59.98353225123907,
shot,&&&&,left,care.vice,,,,,,,,0,192,192,83,,,,,,,,,,,,,,,,,,,,,LDT,right,2.100780059234239,0,,,right,0,2.100780059234239,,,,,,,,,,,,,,,,,,,,,,1008,2019_Mar_06_0950,mf_amp_cond2,3.0.4,59.98353225123907,
abointment,&&&&&&&&&&,right,nonword,,,,,,,,0,193,193,115,,,,,,,,,,,,,,,,,,,,,LDT,right,0.7337878387188539,1,,,right,1,0.7337878387188539,,,,,,,,,,,,,,,,,,,,,,1008,2019_Mar_06_0950,mf_amp_cond2,3.0.4,59.98353225123907,
reelectiob,&&&&&&&&&&,right,nonword,,,,,,,,0,194,194,20,,,,,,,,,,,,,,,,,,,,,LDT,left,0.8838269026018679,0,,,left,0,0.8838269026018679,,,,,,,,,,,,,,,,,,,,,,1008,2019_Mar_06_0950,mf_amp_cond2,3.0.4,59.98353225123907,
whither,&&&&&&&,left,neutral,,,,,,,,0,195,195,15,,,,,,,,,,,,,,,,,,,,,LDT,left,1.0338637215318158,1,,,left,1,1.0338637215318158,,,,,,,,,,,,,,,,,,,,,,1008,2019_Mar_06_0950,mf_amp_cond2,3.0.4,59.98353225123907,
neputized,&&&&&&&&&,right,nonword,,,,,,,,0,196,196,9,,,,,,,,,,,,,,,,,,,,,LDT,left,0.8004719740711153,0,,,left,0,0.8004719740711153,,,,,,,,,,,,,,,,,,,,,,1008,2019_Mar_06_0950,mf_amp_cond2,3.0.4,59.98353225123907,
hescribe,&&&&&&&&,right,nonword,,,,,,,,0,197,197,144,,,,,,,,,,,,,,,,,,,,,LDT,left,0.8504638277227059,0,,,left,0,0.8504638277227059,,,,,,,,,,,,,,,,,,,,,,1008,2019_Mar_06_0950,mf_amp_cond2,3.0.4,59.98353225123907,
mostly,&&&&&&,left,neutral,,,,,,,,0,198,198,193,,,,,,,,,,,,,,,,,,,,,LDT,right,0.5837670559994876,0,,,right,0,0.5837670559994876,,,,,,,,,,,,,,,,,,,,,,1008,2019_Mar_06_0950,mf_amp_cond2,3.0.4,59.98353225123907,
everything,&&&&&&&&&&,left,neutral,,,,,,,,0,199,199,18,,,,,,,,,,,,,,,,,,,,,LDT,left,1.0005609423387796,1,,,left,1,1.0005609423387796,,,,,,,,,,,,,,,,,,,,,,1008,2019_Mar_06_0950,mf_amp_cond2,3.0.4,59.98353225123907,
,,,,,,,,,,,,,,,,,,,,,,,,,,,,,,,,,,,,,,,,,,,,1,9.421,,,,,,,,,,,,,,,,,,,,1008,2019_Mar_06_0950,mf_amp_cond2,3.0.4,59.98353225123907,
,,,,,,,,,,,,,,,,,,,,,,,,,,,,,,,,,,,,,,,,,,,,,,right,1.3506402246421203,,,,,,,,,,,,,,,,,,1008,2019_Mar_06_0950,mf_amp_cond2,3.0.4,59.98353225123907,
scarf,&&&&&&&&,,,bisebell,,,,,,,,,,,0,0,0,3,,,,,,,,,,,,,,,,,AMP_prac,left,1.3339428114704788,,,,,,,,,,,left,1.3339428114704788,,,,,,,,,,,,,,,,1008,2019_Mar_06_0950,mf_amp_cond2,3.0.4,59.98353225123907,
car,&&&&&&&&,,,cemtuper,,,,,,,,,,,0,1,1,0,,,,,,,,,,,,,,,,,AMP_prac,left,1.8507338754134253,,,,,,,,,,,left,1.8507338754134253,,,,,,,,,,,,,,,,1008,2019_Mar_06_0950,mf_amp_cond2,3.0.4,59.98353225123907,
banana,&&&&&&,,,kacket,,,,,,,,,,,0,2,2,1,,,,,,,,,,,,,,,,,AMP_prac,right,1.8840831593843177,,,,,,,,,,,right,1.8840831593843177,,,,,,,,,,,,,,,,1008,2019_Mar_06_0950,mf_amp_cond2,3.0.4,59.98353225123907,
keyboard,&&&&,,,senk,,,,,,,,,,,0,3,3,2,,,,,,,,,,,,,,,,,AMP_prac,left,1.667363487998955,,,,,,,,,,,left,1.667363487998955,,,,,,,,,,,,,,,,1008,2019_Mar_06_0950,mf_amp_cond2,3.0.4,59.98353225123907,
,,,,,,,,,,,,,,,,,,,,,,,,,,,,,,,,,,,,,,,,,,,,,,,,,,right,1.300451447837986,,,,,,,,,,,,,,1008,2019_Mar_06_0950,mf_amp_cond2,3.0.4,59.98353225123907,
actively,&&&&&&&&&&,left,authority.virtue,chonograph,,,,,,,,,,,,,,,0,0,0,176,,,,,,,,,,,,,AMP,right,0.9338357546366751,0,,,,,,,,,,,,,,right,0,0.9338357546366751,,,,,,,,,,,1008,2019_Mar_06_0950,mf_amp_cond2,3.0.4,59.98353225123907,
fraud,&&&&&&,right,fairness.vice,squets,,,,,,,,,,,,,,,0,1,1,188,,,,,,,,,,,,,AMP,left,0.4003668415825814,0,,,,,,,,,,,,,,left,0,0.4003668415825814,,,,,,,,,,,1008,2019_Mar_06_0950,mf_amp_cond2,3.0.4,59.98353225123907,
opportunity,&&&&&&&&&,left,fairness.virtue,grovelire,,,,,,,,,,,,,,,0,2,2,42,,,,,,,,,,,,,AMP,left,0.8504516403190792,1,,,,,,,,,,,,,,left,1,0.8504516403190792,,,,,,,,,,,1008,2019_Mar_06_0950,mf_amp_cond2,3.0.4,59.98353225123907,
commitment,&&&&&&&&,left,sanctity.virtue,divility,,,,,,,,,,,,,,,0,3,3,94,,,,,,,,,,,,,AMP,right,0.36702910356689245,0,,,,,,,,,,,,,,right,0,0.36702910356689245,,,,,,,,,,,1008,2019_Mar_06_0950,mf_amp_cond2,3.0.4,59.98353225123907,
celebrated,&&&&&,left,authority.virtue,dumid,,,,,,,,,,,,,,,0,4,4,271,,,,,,,,,,,,,AMP,right,0.5837766776094213,0,,,,,,,,,,,,,,right,0,0.5837766776094213,,,,,,,,,,,1008,2019_Mar_06_0950,mf_amp_cond2,3.0.4,59.98353225123907,
good,&&&&,left,care.virtue,coom,,,,,,,,,,,,,,,0,5,5,248,,,,,,,,,,,,,AMP,right,0.2837056057760492,0,,,,,,,,,,,,,,right,0,0.2837056057760492,,,,,,,,,,,1008,2019_Mar_06_0950,mf_amp_cond2,3.0.4,59.98353225123907,
good,&&&&&&&&,left,care.virtue,pullness,,,,,,,,,,,,,,,0,6,6,213,,,,,,,,,,,,,AMP,right,2.8509737752610818,0,,,,,,,,,,,,,,right,0,2.8509737752610818,,,,,,,,,,,1008,2019_Mar_06_0950,mf_amp_cond2,3.0.4,59.98353225123907,
respect,&&&&&&&&,left,sanctity.virtue,dormandi,,,,,,,,,,,,,,,0,7,7,174,,,,,,,,,,,,,AMP,left,0.9838452480034903,1,,,,,,,,,,,,,,left,1,0.9838452480034903,,,,,,,,,,,1008,2019_Mar_06_0950,mf_amp_cond2,3.0.4,59.98353225123907,
compassion,&&&&&&&,left,care.virtue,pharing,,,,,,,,,,,,,,,0,8,8,214,,,,,,,,,,,,,AMP,left,1.4672976118745282,1,,,,,,,,,,,,,,left,1,1.4672976118745282,,,,,,,,,,,1008,2019_Mar_06_0950,mf_amp_cond2,3.0.4,59.98353225123907,
conspiracy,&&&&&&&&&&&&&,right,sanctity.vice,esquisiteness,,,,,,,,,,,,,,,0,9,9,244,,,,,,,,,,,,,AMP,right,0.8171325043076649,1,,,,,,,,,,,,,,right,1,0.8171325043076649,,,,,,,,,,,1008,2019_Mar_06_0950,mf_amp_cond2,3.0.4,59.98353225123907,
charges,&&&&&&&&&,right,fairness.vice,gillipede,,,,,,,,,,,,,,,0,10,10,126,,,,,,,,,,,,,AMP,left,1.3839638507924974,0,,,,,,,,,,,,,,left,0,1.3839638507924974,,,,,,,,,,,1008,2019_Mar_06_0950,mf_amp_cond2,3.0.4,59.98353225123907,
safe,&&&&&&&&,left,care.virtue,pullness,,,,,,,,,,,,,,,0,11,11,88,,,,,,,,,,,,,AMP,left,1.0004839689936489,1,,,,,,,,,,,,,,left,1,1.0004839689936489,,,,,,,,,,,1008,2019_Mar_06_0950,mf_amp_cond2,3.0.4,59.98353225123907,
killed,&&&&&&&,right,care.vice,lursuer,,,,,,,,,,,,,,,0,12,12,122,,,,,,,,,,,,,AMP,left,1.133900668588467,0,,,,,,,,,,,,,,left,0,1.133900668588467,,,,,,,,,,,1008,2019_Mar_06_0950,mf_amp_cond2,3.0.4,59.98353225123907,
refused,&&&&&&&&&,right,authority.vice,gillipede,,,,,,,,,,,,,,,0,13,13,191,,,,,,,,,,,,,AMP,left,0.7171032543992624,0,,,,,,,,,,,,,,left,0,0.7171032543992624,,,,,,,,,,,1008,2019_Mar_06_0950,mf_amp_cond2,3.0.4,59.98353225123907,
rejected,&&&&&&&&,right,authority.vice,counpy's,,,,,,,,,,,,,,,0,14,14,148,,,,,,,,,,,,,AMP,left,0.6170820225961506,0,,,,,,,,,,,,,,left,0,0.6170820225961506,,,,,,,,,,,1008,2019_Mar_06_0950,mf_amp_cond2,3.0.4,59.98353225123907,
scandal,&&&&&&&&,right,sanctity.vice,divility,,,,,,,,,,,,,,,0,15,15,12,,,,,,,,,,,,,AMP,left,1.4839911762392148,0,,,,,,,,,,,,,,left,0,1.4839911762392148,,,,,,,,,,,1008,2019_Mar_06_0950,mf_amp_cond2,3.0.4,59.98353225123907,
terrorists,&&&&&&&&&&&&&,right,fairness.vice,idexpressible,,,,,,,,,,,,,,,0,16,16,317,,,,,,,,,,,,,AMP,left,1.1005459325388074,0,,,,,,,,,,,,,,left,0,1.1005459325388074,,,,,,,,,,,1008,2019_Mar_06_0950,mf_amp_cond2,3.0.4,59.98353225123907,
care,&&&&,left,care.virtue,ning,,,,,,,,,,,,,,,0,17,17,277,,,,,,,,,,,,,AMP,left,1.8340640442911536,1,,,,,,,,,,,,,,left,1,1.8340640442911536,,,,,,,,,,,1008,2019_Mar_06_0950,mf_amp_cond2,3.0.4,59.98353225123907,
threatened,&&&&&&&&,right,fairness.vice,ebbitter,,,,,,,,,,,,,,,0,18,18,276,,,,,,,,,,,,,AMP,right,2.2008128371089697,1,,,,,,,,,,,,,,right,1,2.2008128371089697,,,,,,,,,,,1008,2019_Mar_06_0950,mf_amp_cond2,3.0.4,59.98353225123907,
scandal,&&&&&&&&&&,right,sanctity.vice,pistraught,,,,,,,,,,,,,,,0,19,19,250,,,,,,,,,,,,,AMP,left,0.7004449692321941,0,,,,,,,,,,,,,,left,0,0.7004449692321941,,,,,,,,,,,1008,2019_Mar_06_0950,mf_amp_cond2,3.0.4,59.98353225123907,
black,&&&&&&&&&&&&,right,loyalty.vice,feleological,,,,,,,,,,,,,,,0,20,20,84,,,,,,,,,,,,,AMP,right,1.783994896686636,1,,,,,,,,,,,,,,right,1,1.783994896686636,,,,,,,,,,,1008,2019_Mar_06_0950,mf_amp_cond2,3.0.4,59.98353225123907,
party,&&&&&&&&&,left,loyalty.virtue,Phintoism,,,,,,,,,,,,,,,0,21,21,89,,,,,,,,,,,,,AMP,right,2.2341547444229946,0,,,,,,,,,,,,,,right,0,2.2341547444229946,,,,,,,,,,,1008,2019_Mar_06_0950,mf_amp_cond2,3.0.4,59.98353225123907,
police,&&&&&&&&,right,authority.vice,ebbitter,,,,,,,,,,,,,,,0,22,22,153,,,,,,,,,,,,,AMP,left,0.7171141590224579,0,,,,,,,,,,,,,,left,0,0.7171141590224579,,,,,,,,,,,1008,2019_Mar_06_0950,mf_amp_cond2,3.0.4,59.98353225123907,
party,&&&&&&,left,loyalty.virtue,antral,,,,,,,,,,,,,,,0,23,23,256,,,,,,,,,,,,,AMP,right,2.134171678451821,0,,,,,,,,,,,,,,right,0,2.134171678451821,,,,,,,,,,,1008,2019_Mar_06_0950,mf_amp_cond2,3.0.4,59.98353225123907,
slavery,&&&&&&&&&&,right,loyalty.vice,totalestic,,,,,,,,,,,,,,,0,24,24,92,,,,,,,,,,,,,AMP,left,2.0674554710276425,0,,,,,,,,,,,,,,left,0,2.0674554710276425,,,,,,,,,,,1008,2019_Mar_06_0950,mf_amp_cond2,3.0.4,59.98353225123907,
violations,&&&&&&&&&,right,sanctity.vice,taxpayung,,,,,,,,,,,,,,,0,25,25,155,,,,,,,,,,,,,AMP,left,1.233908750815317,0,,,,,,,,,,,,,,left,0,1.233908750815317,,,,,,,,,,,1008,2019_Mar_06_0950,mf_amp_cond2,3.0.4,59.98353225123907,
civilians,&&&&&&&&,right,care.vice,lachelor,,,,,,,,,,,,,,,0,26,26,184,,,,,,,,,,,,,AMP,left,1.0505037255352363,0,,,,,,,,,,,,,,left,0,1.0505037255352363,,,,,,,,,,,1008,2019_Mar_06_0950,mf_amp_cond2,3.0.4,59.98353225123907,
Cunday,&&&&&&&&&&,None,nonword,galamitous,,,,,,,,,,,,,,,0,27,27,17,,,,,,,,,,,,,AMP,left,0.4503769762814045,0,,,,,,,,,,,,,,left,0,0.4503769762814045,,,,,,,,,,,1008,2019_Mar_06_0950,mf_amp_cond2,3.0.4,59.98353225123907,
penalty,&&&&&&&&&&&,right,authority.vice,nomparisons,,,,,,,,,,,,,,,0,28,28,110,,,,,,,,,,,,,AMP,left,0.4503975023981184,0,,,,,,,,,,,,,,left,0,0.4503975023981184,,,,,,,,,,,1008,2019_Mar_06_0950,mf_amp_cond2,3.0.4,59.98353225123907,
ensure,&&&&&&&&,left,fairness.virtue,counpy's,,,,,,,,,,,,,,,0,29,29,56,,,,,,,,,,,,,AMP,right,0.283649800112471,0,,,,,,,,,,,,,,right,0,0.283649800112471,,,,,,,,,,,1008,2019_Mar_06_0950,mf_amp_cond2,3.0.4,59.98353225123907,
rejected,&&&&,right,authority.vice,wump,,,,,,,,,,,,,,,0,30,30,28,,,,,,,,,,,,,AMP,left,0.31699876324273646,0,,,,,,,,,,,,,,left,0,0.31699876324273646,,,,,,,,,,,1008,2019_Mar_06_0950,mf_amp_cond2,3.0.4,59.98353225123907,
stindig,&&&&&&&,None,nonword,dramens,,,,,,,,,,,,,,,0,31,31,86,,,,,,,,,,,,,AMP,right,0.4003658794099465,0,,,,,,,,,,,,,,right,0,0.4003658794099465,,,,,,,,,,,1008,2019_Mar_06_0950,mf_amp_cond2,3.0.4,59.98353225123907,
growth,&&&&&&&&&&&&&,left,care.virtue,wonderfujnoss,,,,,,,,,,,,,,,0,32,32,286,,,,,,,,,,,,,AMP,right,0.45037825917825103,0,,,,,,,,,,,,,,right,0,0.45037825917825103,,,,,,,,,,,1008,2019_Mar_06_0950,mf_amp_cond2,3.0.4,59.98353225123907,
victim,&&&&&&&&&,right,care.vice,grovelire,,,,,,,,,,,,,,,0,33,33,175,,,,,,,,,,,,,AMP,left,0.800467804656364,0,,,,,,,,,,,,,,left,0,0.800467804656364,,,,,,,,,,,1008,2019_Mar_06_0950,mf_amp_cond2,3.0.4,59.98353225123907,
commitment,&&&&,left,sanctity.virtue,spag,,,,,,,,,,,,,,,0,34,34,80,,,,,,,,,,,,,AMP,right,0.5170572629431263,0,,,,,,,,,,,,,,right,0,0.5170572629431263,,,,,,,,,,,1008,2019_Mar_06_0950,mf_amp_cond2,3.0.4,59.98353225123907,
terrorist,&&&&&&,right,loyalty.vice,antral,,,,,,,,,,,,,,,0,35,35,212,,,,,,,,,,,,,AMP,left,0.2670142862480134,0,,,,,,,,,,,,,,left,0,0.2670142862480134,,,,,,,,,,,1008,2019_Mar_06_0950,mf_amp_cond2,3.0.4,59.98353225123907,
threatened,&&&&&&&&,right,fairness.vice,thadowed,,,,,,,,,,,,,,,0,36,36,123,,,,,,,,,,,,,AMP,left,0.5004650464979932,0,,,,,,,,,,,,,,left,0,0.5004650464979932,,,,,,,,,,,1008,2019_Mar_06_0950,mf_amp_cond2,3.0.4,59.98353225123907,
party,&&&&&&&&&,left,loyalty.virtue,crilfully,,,,,,,,,,,,,,,0,37,37,205,,,,,,,,,,,,,AMP,right,0.3003257248783484,0,,,,,,,,,,,,,,right,0,0.3003257248783484,,,,,,,,,,,1008,2019_Mar_06_0950,mf_amp_cond2,3.0.4,59.98353225123907,
unpleasant,&&&&,None,control,tove,,,,,,,,,,,,,,,0,38,38,101,,,,,,,,,,,,,AMP,left,0.4503888429608196,0,,,,,,,,,,,,,,left,0,0.4503888429608196,,,,,,,,,,,1008,2019_Mar_06_0950,mf_amp_cond2,3.0.4,59.98353225123907,
simplustic,&&&&&&&,None,nonword,troubla,,,,,,,,,,,,,,,0,39,39,316,,,,,,,,,,,,,AMP,left,0.9505479210056365,0,,,,,,,,,,,,,,left,0,0.9505479210056365,,,,,,,,,,,1008,2019_Mar_06_0950,mf_amp_cond2,3.0.4,59.98353225123907,
integrity,&&&&&&&&&&&&,left,fairness.virtue,feleological,,,,,,,,,,,,,,,0,40,40,284,,,,,,,,,,,,,AMP,left,0.4503856358351186,1,,,,,,,,,,,,,,left,1,0.4503856358351186,,,,,,,,,,,1008,2019_Mar_06_0950,mf_amp_cond2,3.0.4,59.98353225123907,
loyalty,&&&&&&&&&&,left,loyalty.virtue,chonograph,,,,,,,,,,,,,,,0,41,41,260,,,,,,,,,,,,,AMP,right,0.35039583465550095,0,,,,,,,,,,,,,,right,0,0.35039583465550095,,,,,,,,,,,1008,2019_Mar_06_0950,mf_amp_cond2,3.0.4,59.98353225123907,
stindig,&&&&&&&,None,nonword,dramens,,,,,,,,,,,,,,,0,42,42,327,,,,,,,,,,,,,AMP,left,0.35034676431678236,0,,,,,,,,,,,,,,left,0,0.35034676431678236,,,,,,,,,,,1008,2019_Mar_06_0950,mf_amp_cond2,3.0.4,59.98353225123907,
simplustic,&&&&&&&&,None,nonword,suggists,,,,,,,,,,,,,,,0,43,43,115,,,,,,,,,,,,,AMP,left,0.5504338081227615,0,,,,,,,,,,,,,,left,0,0.5504338081227615,,,,,,,,,,,1008,2019_Mar_06_0950,mf_amp_cond2,3.0.4,59.98353225123907,
terrorists,&&&&&&&&,right,fairness.vice,thabbily,,,,,,,,,,,,,,,0,44,44,39,,,,,,,,,,,,,AMP,left,0.3170186480274424,0,,,,,,,,,,,,,,left,0,0.3170186480274424,,,,,,,,,,,1008,2019_Mar_06_0950,mf_amp_cond2,3.0.4,59.98353225123907,
shoirmaster,&&&&&,None,nonword,atson,,,,,,,,,,,,,,,0,45,45,247,,,,,,,,,,,,,AMP,left,0.6504332307958975,0,,,,,,,,,,,,,,left,0,0.6504332307958975,,,,,,,,,,,1008,2019_Mar_06_0950,mf_amp_cond2,3.0.4,59.98353225123907,
illegal,&&&&&&&&&&&,right,fairness.vice,sowntrodden,,,,,,,,,,,,,,,0,46,46,254,,,,,,,,,,,,,AMP,left,0.700436630519107,0,,,,,,,,,,,,,,left,0,0.700436630519107,,,,,,,,,,,1008,2019_Mar_06_0950,mf_amp_cond2,3.0.4,59.98353225123907,
strength,&&&&&&,left,sanctity.virtue,forepo,,,,,,,,,,,,,,,0,47,47,285,,,,,,,,,,,,,AMP,right,0.45040680340025574,0,,,,,,,,,,,,,,right,0,0.45040680340025574,,,,,,,,,,,1008,2019_Mar_06_0950,mf_amp_cond2,3.0.4,59.98353225123907,
encourage,&&&&&&&,left,authority.virtue,dramens,,,,,,,,,,,,,,,0,48,48,166,,,,,,,,,,,,,AMP,right,0.30034272326156497,0,,,,,,,,,,,,,,right,0,0.30034272326156497,,,,,,,,,,,1008,2019_Mar_06_0950,mf_amp_cond2,3.0.4,59.98353225123907,
officers,&&&&&&&,right,authority.vice,pharing,,,,,,,,,,,,,,,0,49,49,68,,,,,,,,,,,,,AMP,left,1.4006314368452877,0,,,,,,,,,,,,,,left,0,1.4006314368452877,,,,,,,,,,,1008,2019_Mar_06_0950,mf_amp_cond2,3.0.4,59.98353225123907,
failure,&&&&&&&&,right,loyalty.vice,gowlands,,,,,,,,,,,,,,,0,50,50,134,,,,,,,,,,,,,AMP,left,0.5337319049285725,0,,,,,,,,,,,,,,left,0,0.5337319049285725,,,,,,,,,,,1008,2019_Mar_06_0950,mf_amp_cond2,3.0.4,59.98353225123907,
health,&&&&&&&&&,left,care.virtue,gillipede,,,,,,,,,,,,,,,0,51,51,301,,,,,,,,,,,,,AMP,right,0.3170273075811565,0,,,,,,,,,,,,,,right,0,0.3170273075811565,,,,,,,,,,,1008,2019_Mar_06_0950,mf_amp_cond2,3.0.4,59.98353225123907,
Cunday,&&&&&&&,None,nonword,menizen,,,,,,,,,,,,,,,0,52,52,170,,,,,,,,,,,,,AMP,left,1.0505178372841328,0,,,,,,,,,,,,,,left,0,1.0505178372841328,,,,,,,,,,,1008,2019_Mar_06_0950,mf_amp_cond2,3.0.4,59.98353225123907,
drug,&&&&&,right,sanctity.vice,uller,,,,,,,,,,,,,,,0,53,53,18,,,,,,,,,,,,,AMP,left,3.484487332752906,0,,,,,,,,,,,,,,left,0,3.484487332752906,,,,,,,,,,,1008,2019_Mar_06_0950,mf_amp_cond2,3.0.4,59.98353225123907,
sexual,&&&&&&&,right,sanctity.vice,gedious,,,,,,,,,,,,,,,0,54,54,144,,,,,,,,,,,,,AMP,left,0.6504393245559186,0,,,,,,,,,,,,,,left,0,0.6504393245559186,,,,,,,,,,,1008,2019_Mar_06_0950,mf_amp_cond2,3.0.4,59.98353225123907,
stindig,&&&&&&&,None,nonword,hatigue,,,,,,,,,,,,,,,0,55,55,171,,,,,,,,,,,,,AMP,left,1.7173771507805213,0,,,,,,,,,,,,,,left,0,1.7173771507805213,,,,,,,,,,,1008,2019_Mar_06_0950,mf_amp_cond2,3.0.4,59.98353225123907,
hope,&&&,left,loyalty.virtue,asn,,,,,,,,,,,,,,,0,56,56,163,,,,,,,,,,,,,AMP,right,0.300333101535216,0,,,,,,,,,,,,,,right,0,0.300333101535216,,,,,,,,,,,1008,2019_Mar_06_0950,mf_amp_cond2,3.0.4,59.98353225123907,
police,&&&&&&&,right,authority.vice,scalbel,,,,,,,,,,,,,,,0,57,57,310,,,,,,,,,,,,,AMP,left,1.7007108475081623,0,,,,,,,,,,,,,,left,0,1.7007108475081623,,,,,,,,,,,1008,2019_Mar_06_0950,mf_amp_cond2,3.0.4,59.98353225123907,
peaceful,&&&&&&&&&&&&,left,authority.virtue,quarterbocks,,,,,,,,,,,,,,,0,58,58,19,,,,,,,,,,,,,AMP,left,1.6173353927442804,1,,,,,,,,,,,,,,left,1,1.6173353927442804,,,,,,,,,,,1008,2019_Mar_06_0950,mf_amp_cond2,3.0.4,59.98353225123907,
intelligence,&&&&&&&&&,left,loyalty.virtue,gandbrake,,,,,,,,,,,,,,,0,59,59,224,,,,,,,,,,,,,AMP,right,2.0508003931026906,0,,,,,,,,,,,,,,right,0,2.0508003931026906,,,,,,,,,,,1008,2019_Mar_06_0950,mf_amp_cond2,3.0.4,59.98353225123907,
ensure,&&&&&&,left,fairness.virtue,tislay,,,,,,,,,,,,,,,0,60,60,246,,,,,,,,,,,,,AMP,right,2.9176973592257127,0,,,,,,,,,,,,,,right,0,2.9176973592257127,,,,,,,,,,,1008,2019_Mar_06_0950,mf_amp_cond2,3.0.4,59.98353225123907,
charges,&&&&&&,right,fairness.vice,sonvoy,,,,,,,,,,,,,,,0,61,61,199,,,,,,,,,,,,,AMP,right,0.7338866209611297,1,,,,,,,,,,,,,,right,1,0.7338866209611297,,,,,,,,,,,1008,2019_Mar_06_0950,mf_amp_cond2,3.0.4,59.98353225123907,
threatened,&&&&&&&&&&&,right,fairness.vice,shoirmaster,,,,,,,,,,,,,,,0,62,62,225,,,,,,,,,,,,,AMP,left,1.1338910469785333,0,,,,,,,,,,,,,,left,0,1.1338910469785333,,,,,,,,,,,1008,2019_Mar_06_0950,mf_amp_cond2,3.0.4,59.98353225123907,
respect,&&&&&&&&&,left,sanctity.virtue,gandbrake,,,,,,,,,,,,,,,0,63,63,29,,,,,,,,,,,,,AMP,right,1.2339167689206079,0,,,,,,,,,,,,,,right,0,1.2339167689206079,,,,,,,,,,,1008,2019_Mar_06_0950,mf_amp_cond2,3.0.4,59.98353225123907,
commitment,&&&&&&&&,left,sanctity.virtue,crinking,,,,,,,,,,,,,,,0,64,64,291,,,,,,,,,,,,,AMP,left,1.117213197867386,1,,,,,,,,,,,,,,left,1,1.117213197867386,,,,,,,,,,,1008,2019_Mar_06_0950,mf_amp_cond2,3.0.4,59.98353225123907,
attacks,&&&&&&&&&&&,right,care.vice,blunderints,,,,,,,,,,,,,,,0,65,65,235,,,,,,,,,,,,,AMP,left,0.8004748604726046,0,,,,,,,,,,,,,,left,0,0.8004748604726046,,,,,,,,,,,1008,2019_Mar_06_0950,mf_amp_cond2,3.0.4,59.98353225123907,
praised,&&&&&&&&&&&,left,loyalty.virtue,cromiscuity,,,,,,,,,,,,,,,0,66,66,217,,,,,,,,,,,,,AMP,right,0.3170090264175087,0,,,,,,,,,,,,,,right,0,0.3170090264175087,,,,,,,,,,,1008,2019_Mar_06_0950,mf_amp_cond2,3.0.4,59.98353225123907,
conspiracy,&&&&&,right,sanctity.vice,infet,,,,,,,,,,,,,,,0,67,67,59,,,,,,,,,,,,,AMP,left,1.4339576289057732,0,,,,,,,,,,,,,,left,0,1.4339576289057732,,,,,,,,,,,1008,2019_Mar_06_0950,mf_amp_cond2,3.0.4,59.98353225123907,
hand,&&&&&&&&&&&&&,left,sanctity.virtue,idexpressible,,,,,,,,,,,,,,,0,68,68,160,,,,,,,,,,,,,AMP,left,0.5671405222965404,1,,,,,,,,,,,,,,left,1,0.5671405222965404,,,,,,,,,,,1008,2019_Mar_06_0950,mf_amp_cond2,3.0.4,59.98353225123907,
growth,&&&&&&&,left,care.virtue,chreams,,,,,,,,,,,,,,,0,69,69,60,,,,,,,,,,,,,AMP,right,0.9338517907308415,0,,,,,,,,,,,,,,right,0,0.9338517907308415,,,,,,,,,,,1008,2019_Mar_06_0950,mf_amp_cond2,3.0.4,59.98353225123907,
benefit,&&&&&&&&&,left,fairness.virtue,taxpayung,,,,,,,,,,,,,,,0,70,70,16,,,,,,,,,,,,,AMP,left,0.9338392824865878,1,,,,,,,,,,,,,,left,1,0.9338392824865878,,,,,,,,,,,1008,2019_Mar_06_0950,mf_amp_cond2,3.0.4,59.98353225123907,
police,&&&&&&&&&&&&,right,authority.vice,feleological,,,,,,,,,,,,,,,0,71,71,220,,,,,,,,,,,,,AMP,left,0.6171439219033346,0,,,,,,,,,,,,,,left,0,0.6171439219033346,,,,,,,,,,,1008,2019_Mar_06_0950,mf_amp_cond2,3.0.4,59.98353225123907,
charges,&&&&&&&&,right,fairness.vice,suggists,,,,,,,,,,,,,,,0,72,72,281,,,,,,,,,,,,,AMP,left,0.6004080220591277,0,,,,,,,,,,,,,,left,0,0.6004080220591277,,,,,,,,,,,1008,2019_Mar_06_0950,mf_amp_cond2,3.0.4,59.98353225123907,
terrorist,&&&&&&&&&,right,loyalty.vice,grovelire,,,,,,,,,,,,,,,0,73,73,266,,,,,,,,,,,,,AMP,left,0.5337312634801492,0,,,,,,,,,,,,,,left,0,0.5337312634801492,,,,,,,,,,,1008,2019_Mar_06_0950,mf_amp_cond2,3.0.4,59.98353225123907,
penalty,&&&&&&&&&,right,authority.vice,taxpayung,,,,,,,,,,,,,,,0,74,74,194,,,,,,,,,,,,,AMP,left,1.6507064858451486,0,,,,,,,,,,,,,,left,0,1.6507064858451486,,,,,,,,,,,1008,2019_Mar_06_0950,mf_amp_cond2,3.0.4,59.98353225123907,
bruthfulness,&&&&&&,None,nonword,sonvoy,,,,,,,,,,,,,,,0,75,75,25,,,,,,,,,,,,,AMP,right,1.1005372729850933,0,,,,,,,,,,,,,,right,0,1.1005372729850933,,,,,,,,,,,1008,2019_Mar_06_0950,mf_amp_cond2,3.0.4,59.98353225123907,
freedom,&&&&&&&&&&,left,sanctity.virtue,galamitous,,,,,,,,,,,,,,,0,76,76,99,,,,,,,,,,,,,AMP,right,0.4670727859484032,0,,,,,,,,,,,,,,right,0,0.4670727859484032,,,,,,,,,,,1008,2019_Mar_06_0950,mf_amp_cond2,3.0.4,59.98353225123907,
opportunity,&&&&&&&&,left,fairness.virtue,divility,,,,,,,,,,,,,,,0,77,77,198,,,,,,,,,,,,,AMP,right,0.41703603114001453,0,,,,,,,,,,,,,,right,0,0.41703603114001453,,,,,,,,,,,1008,2019_Mar_06_0950,mf_amp_cond2,3.0.4,59.98353225123907,
honored,&&&&&,left,authority.virtue,infet,,,,,,,,,,,,,,,0,78,78,95,,,,,,,,,,,,,AMP,left,0.6504290614975616,1,,,,,,,,,,,,,,left,1,0.6504290614975616,,,,,,,,,,,1008,2019_Mar_06_0950,mf_amp_cond2,3.0.4,59.98353225123907,
killed,&&&&&&&&,right,care.vice,clamorek,,,,,,,,,,,,,,,0,79,79,20,,,,,,,,,,,,,AMP,left,0.6671049863798544,0,,,,,,,,,,,,,,left,0,0.6671049863798544,,,,,,,,,,,1008,2019_Mar_06_0950,mf_amp_cond2,3.0.4,59.98353225123907,
terrorists,&&&&&&&&&&&&&,right,fairness.vice,esquisiteness,,,,,,,,,,,,,,,0,80,80,104,,,,,,,,,,,,,AMP,right,0.6170881163561717,1,,,,,,,,,,,,,,right,1,0.6170881163561717,,,,,,,,,,,1008,2019_Mar_06_0950,mf_amp_cond2,3.0.4,59.98353225123907,
peaceful,&&&&&&&&,left,authority.virtue,bluently,,,,,,,,,,,,,,,0,81,81,270,,,,,,,,,,,,,AMP,right,1.1672294263262302,0,,,,,,,,,,,,,,right,0,1.1672294263262302,,,,,,,,,,,1008,2019_Mar_06_0950,mf_amp_cond2,3.0.4,59.98353225123907,
faspberry,&&&&&&&,None,nonword,hatigue,,,,,,,,,,,,,,,0,82,82,105,,,,,,,,,,,,,AMP,right,0.7004388755885884,0,,,,,,,,,,,,,,right,0,0.7004388755885884,,,,,,,,,,,1008,2019_Mar_06_0950,mf_amp_cond2,3.0.4,59.98353225123907,
abuse,&&&&&&&,right,sanctity.vice,troubla,,,,,,,,,,,,,,,0,83,83,51,,,,,,,,,,,,,AMP,left,0.7004533080616966,0,,,,,,,,,,,,,,left,0,0.7004533080616966,,,,,,,,,,,1008,2019_Mar_06_0950,mf_amp_cond2,3.0.4,59.98353225123907,
illegal,&&&&&,right,fairness.vice,aubos,,,,,,,,,,,,,,,0,84,84,70,,,,,,,,,,,,,AMP,left,0.3337090053828433,0,,,,,,,,,,,,,,left,0,0.3337090053828433,,,,,,,,,,,1008,2019_Mar_06_0950,mf_amp_cond2,3.0.4,59.98353225123907,
sharing,&&&&&&&&&&&&&,left,loyalty.virtue,idexpressible,,,,,,,,,,,,,,,0,85,85,243,,,,,,,,,,,,,AMP,right,0.2336595500819385,0,,,,,,,,,,,,,,right,0,0.2336595500819385,,,,,,,,,,,1008,2019_Mar_06_0950,mf_amp_cond2,3.0.4,59.98353225123907,
victim,&&&&&&&&&,right,care.vice,pescinded,,,,,,,,,,,,,,,0,86,86,257,,,,,,,,,,,,,AMP,left,1.1171981238294393,0,,,,,,,,,,,,,,left,0,1.1171981238294393,,,,,,,,,,,1008,2019_Mar_06_0950,mf_amp_cond2,3.0.4,59.98353225123907,
intelligence,&&&&&&&,left,loyalty.virtue,lursuer,,,,,,,,,,,,,,,0,87,87,11,,,,,,,,,,,,,AMP,right,0.8838304305681959,0,,,,,,,,,,,,,,right,0,0.8838304305681959,,,,,,,,,,,1008,2019_Mar_06_0950,mf_amp_cond2,3.0.4,59.98353225123907,
groups,&&&&&&&&,right,loyalty.vice,thadowed,,,,,,,,,,,,,,,0,88,88,197,,,,,,,,,,,,,AMP,right,0.8504824296105653,1,,,,,,,,,,,,,,right,1,0.8504824296105653,,,,,,,,,,,1008,2019_Mar_06_0950,mf_amp_cond2,3.0.4,59.98353225123907,
hand,&&&&&,left,sanctity.virtue,aubos,,,,,,,,,,,,,,,0,89,89,187,,,,,,,,,,,,,AMP,right,0.6170826640445739,0,,,,,,,,,,,,,,right,0,0.6170826640445739,,,,,,,,,,,1008,2019_Mar_06_0950,mf_amp_cond2,3.0.4,59.98353225123907,
faith,&&&&&&&&,left,sanctity.virtue,ugeasily,,,,,,,,,,,,,,,0,90,90,76,,,,,,,,,,,,,AMP,left,0.9338136247824878,1,,,,,,,,,,,,,,left,1,0.9338136247824878,,,,,,,,,,,1008,2019_Mar_06_0950,mf_amp_cond2,3.0.4,59.98353225123907,
praised,&&&&&&&,left,loyalty.virtue,allears,,,,,,,,,,,,,,,0,91,91,157,,,,,,,,,,,,,AMP,right,0.483725298079662,0,,,,,,,,,,,,,,right,0,0.483725298079662,,,,,,,,,,,1008,2019_Mar_06_0950,mf_amp_cond2,3.0.4,59.98353225123907,
honored,&&&&&&&&,left,authority.virtue,thadowed,,,,,,,,,,,,,,,0,92,92,3,,,,,,,,,,,,,AMP,left,1.1838963709305972,1,,,,,,,,,,,,,,left,1,1.1838963709305972,,,,,,,,,,,1008,2019_Mar_06_0950,mf_amp_cond2,3.0.4,59.98353225123907,
faspberry,&&&&&&&,None,nonword,Daptist,,,,,,,,,,,,,,,0,93,93,309,,,,,,,,,,,,,AMP,right,0.4337023344123736,0,,,,,,,,,,,,,,right,0,0.4337023344123736,,,,,,,,,,,1008,2019_Mar_06_0950,mf_amp_cond2,3.0.4,59.98353225123907,
actively,&&&&&&&,left,authority.virtue,pharing,,,,,,,,,,,,,,,0,94,94,326,,,,,,,,,,,,,AMP,left,0.40038127393927425,1,,,,,,,,,,,,,,left,1,0.40038127393927425,,,,,,,,,,,1008,2019_Mar_06_0950,mf_amp_cond2,3.0.4,59.98353225123907,
loyalty,&&&&&&&&&&&&,left,loyalty.virtue,quarterbocks,,,,,,,,,,,,,,,0,95,95,208,,,,,,,,,,,,,AMP,right,1.23391131660901,0,,,,,,,,,,,,,,right,0,1.23391131660901,,,,,,,,,,,1008,2019_Mar_06_0950,mf_amp_cond2,3.0.4,59.98353225123907,
gun,&&&&&&&&&,right,authority.vice,refuejing,,,,,,,,,,,,,,,0,96,96,185,,,,,,,,,,,,,AMP,left,0.9171813181601465,0,,,,,,,,,,,,,,left,0,0.9171813181601465,,,,,,,,,,,1008,2019_Mar_06_0950,mf_amp_cond2,3.0.4,59.98353225123907,
blamed,&&&&&&&&,right,loyalty.vice,gournful,,,,,,,,,,,,,,,0,97,97,315,,,,,,,,,,,,,AMP,left,0.4670477695763111,0,,,,,,,,,,,,,,left,0,0.4670477695763111,,,,,,,,,,,1008,2019_Mar_06_0950,mf_amp_cond2,3.0.4,59.98353225123907,
intelligence,&&&&&&,left,loyalty.virtue,sonvoy,,,,,,,,,,,,,,,0,98,98,129,,,,,,,,,,,,,AMP,right,0.46704295882955194,0,,,,,,,,,,,,,,right,0,0.46704295882955194,,,,,,,,,,,1008,2019_Mar_06_0950,mf_amp_cond2,3.0.4,59.98353225123907,
intelligence,&&&&&,left,loyalty.virtue,pafer,,,,,,,,,,,,,,,0,99,99,261,,,,,,,,,,,,,AMP,right,1.250615464989096,0,,,,,,,,,,,,,,right,0,1.250615464989096,,,,,,,,,,,1008,2019_Mar_06_0950,mf_amp_cond2,3.0.4,59.98353225123907,
agreement,&&&&,left,fairness.virtue,juck,,,,,,,,,,,,,,,0,100,100,107,,,,,,,,,,,,,AMP,right,0.41707547998521477,0,,,,,,,,,,,,,,right,0,0.41707547998521477,,,,,,,,,,,1008,2019_Mar_06_0950,mf_amp_cond2,3.0.4,59.98353225123907,
improve,&&&&&&,left,care.virtue,openet,,,,,,,,,,,,,,,0,101,101,178,,,,,,,,,,,,,AMP,right,0.3003440060419962,0,,,,,,,,,,,,,,right,0,0.3003440060419962,,,,,,,,,,,1008,2019_Mar_06_0950,mf_amp_cond2,3.0.4,59.98353225123907,
shoirmaster,&&&&&&&,None,nonword,Daptist,,,,,,,,,,,,,,,0,102,102,233,,,,,,,,,,,,,AMP,right,0.9671821519732475,0,,,,,,,,,,,,,,right,0,0.9671821519732475,,,,,,,,,,,1008,2019_Mar_06_0950,mf_amp_cond2,3.0.4,59.98353225123907,
terrorists,&&&&&&&,right,fairness.vice,lursuer,,,,,,,,,,,,,,,0,103,103,242,,,,,,,,,,,,,AMP,left,1.2172523899935186,0,,,,,,,,,,,,,,left,0,1.2172523899935186,,,,,,,,,,,1008,2019_Mar_06_0950,mf_amp_cond2,3.0.4,59.98353225123907,
useful,&&&&,left,authority.virtue,coom,,,,,,,,,,,,,,,0,104,104,218,,,,,,,,,,,,,AMP,right,0.9338325472781435,0,,,,,,,,,,,,,,right,0,0.9338325472781435,,,,,,,,,,,1008,2019_Mar_06_0950,mf_amp_cond2,3.0.4,59.98353225123907,
frojecting,&&&&&&,None,nonword,prones,,,,,,,,,,,,,,,0,105,105,186,,,,,,,,,,,,,AMP,left,0.5671029979130253,0,,,,,,,,,,,,,,left,0,0.5671029979130253,,,,,,,,,,,1008,2019_Mar_06_0950,mf_amp_cond2,3.0.4,59.98353225123907,
torture,&&&&&&&&&&,right,care.vice,totalestic,,,,,,,,,,,,,,,0,106,106,1,,,,,,,,,,,,,AMP,left,0.683778986800462,0,,,,,,,,,,,,,,left,0,0.683778986800462,,,,,,,,,,,1008,2019_Mar_06_0950,mf_amp_cond2,3.0.4,59.98353225123907,
rejected,&&&&&&&&&&&&,right,authority.vice,unreflectuve,,,,,,,,,,,,,,,0,107,107,203,,,,,,,,,,,,,AMP,left,0.5835945077706128,0,,,,,,,,,,,,,,left,0,0.5835945077706128,,,,,,,,,,,1008,2019_Mar_06_0950,mf_amp_cond2,3.0.4,59.98353225123907,
encourage,&&&&&&,left,authority.virtue,tislay,,,,,,,,,,,,,,,0,108,108,15,,,,,,,,,,,,,AMP,right,0.35034900926984847,0,,,,,,,,,,,,,,right,0,0.35034900926984847,,,,,,,,,,,1008,2019_Mar_06_0950,mf_amp_cond2,3.0.4,59.98353225123907,
faith,&&&&,left,sanctity.virtue,wump,,,,,,,,,,,,,,,0,109,109,190,,,,,,,,,,,,,AMP,right,0.31700646062381566,0,,,,,,,,,,,,,,right,0,0.31700646062381566,,,,,,,,,,,1008,2019_Mar_06_0950,mf_amp_cond2,3.0.4,59.98353225123907,
black,&&&&&&&&&,right,loyalty.vice,tenuflect,,,,,,,,,,,,,,,0,110,110,71,,,,,,,,,,,,,AMP,right,0.61708779563196,1,,,,,,,,,,,,,,right,1,0.61708779563196,,,,,,,,,,,1008,2019_Mar_06_0950,mf_amp_cond2,3.0.4,59.98353225123907,
growth,&&&&&&&&&,left,care.virtue,gaultless,,,,,,,,,,,,,,,0,111,111,159,,,,,,,,,,,,,AMP,left,0.5670696428278461,1,,,,,,,,,,,,,,left,1,0.5670696428278461,,,,,,,,,,,1008,2019_Mar_06_0950,mf_amp_cond2,3.0.4,59.98353225123907,
hope,&&&&&&&&,left,loyalty.virtue,divility,,,,,,,,,,,,,,,0,112,112,253,,,,,,,,,,,,,AMP,right,0.7169528359081596,0,,,,,,,,,,,,,,right,0,0.7169528359081596,,,,,,,,,,,1008,2019_Mar_06_0950,mf_amp_cond2,3.0.4,59.98353225123907,
improve,&&&&&&&&,left,care.virtue,counpy's,,,,,,,,,,,,,,,0,113,113,307,,,,,,,,,,,,,AMP,right,0.4003437494393438,0,,,,,,,,,,,,,,right,0,0.4003437494393438,,,,,,,,,,,1008,2019_Mar_06_0950,mf_amp_cond2,3.0.4,59.98353225123907,
failure,&&&&&,right,loyalty.vice,uller,,,,,,,,,,,,,,,0,114,114,320,,,,,,,,,,,,,AMP,right,0.5003941670292988,1,,,,,,,,,,,,,,right,1,0.5003941670292988,,,,,,,,,,,1008,2019_Mar_06_0950,mf_amp_cond2,3.0.4,59.98353225123907,
credit,&&&&&&,left,fairness.virtue,prones,,,,,,,,,,,,,,,0,115,115,161,,,,,,,,,,,,,AMP,right,0.4670997265493497,0,,,,,,,,,,,,,,right,0,0.4670997265493497,,,,,,,,,,,1008,2019_Mar_06_0950,mf_amp_cond2,3.0.4,59.98353225123907,
killed,&&&&&&,right,care.vice,papert,,,,,,,,,,,,,,,0,116,116,298,,,,,,,,,,,,,AMP,right,1.3840103554539382,1,,,,,,,,,,,,,,right,1,1.3840103554539382,,,,,,,,,,,1008,2019_Mar_06_0950,mf_amp_cond2,3.0.4,59.98353225123907,
torture,&&&&&,right,care.vice,dumid,,,,,,,,,,,,,,,0,117,117,98,,,,,,,,,,,,,AMP,left,0.40037036943249404,0,,,,,,,,,,,,,,left,0,0.40037036943249404,,,,,,,,,,,1008,2019_Mar_06_0950,mf_amp_cond2,3.0.4,59.98353225123907,
violence,&&&&&&&&&&&,right,care.vice,sowntrodden,,,,,,,,,,,,,,,0,118,118,30,,,,,,,,,,,,,AMP,right,0.5337614113232121,1,,,,,,,,,,,,,,right,1,0.5337614113232121,,,,,,,,,,,1008,2019_Mar_06_0950,mf_amp_cond2,3.0.4,59.98353225123907,
slavery,&&&&&&&&&,right,loyalty.vice,gondensed,,,,,,,,,,,,,,,0,119,119,36,,,,,,,,,,,,,AMP,left,0.45037344831507653,0,,,,,,,,,,,,,,left,0,0.45037344831507653,,,,,,,,,,,1008,2019_Mar_06_0950,mf_amp_cond2,3.0.4,59.98353225123907,
care,&&&&&&&,left,care.virtue,Daptist,,,,,,,,,,,,,,,0,120,120,77,,,,,,,,,,,,,AMP,left,1.4172871562186629,1,,,,,,,,,,,,,,left,1,1.4172871562186629,,,,,,,,,,,1008,2019_Mar_06_0950,mf_amp_cond2,3.0.4,59.98353225123907,
loyalty,&&&&&&&&&&&&,left,loyalty.virtue,unreflectuve,,,,,,,,,,,,,,,0,121,121,87,,,,,,,,,,,,,AMP,right,0.41703731403686106,0,,,,,,,,,,,,,,right,0,0.41703731403686106,,,,,,,,,,,1008,2019_Mar_06_0950,mf_amp_cond2,3.0.4,59.98353225123907,
rebels,&&&&,right,authority.vice,wump,,,,,,,,,,,,,,,0,122,122,252,,,,,,,,,,,,,AMP,left,0.6004112294176593,0,,,,,,,,,,,,,,left,0,0.6004112294176593,,,,,,,,,,,1008,2019_Mar_06_0950,mf_amp_cond2,3.0.4,59.98353225123907,
drug,&&&&&,right,sanctity.vice,dumid,,,,,,,,,,,,,,,0,123,123,223,,,,,,,,,,,,,AMP,right,1.4839969492750242,1,,,,,,,,,,,,,,right,1,1.4839969492750242,,,,,,,,,,,1008,2019_Mar_06_0950,mf_amp_cond2,3.0.4,59.98353225123907,
gun,&&&&&&&,right,authority.vice,scalbel,,,,,,,,,,,,,,,0,124,124,21,,,,,,,,,,,,,AMP,left,0.6837642337195575,0,,,,,,,,,,,,,,left,0,0.6837642337195575,,,,,,,,,,,1008,2019_Mar_06_0950,mf_amp_cond2,3.0.4,59.98353225123907,
prison,&&&&&&&,right,fairness.vice,brudent,,,,,,,,,,,,,,,0,125,125,312,,,,,,,,,,,,,AMP,right,0.5003883939934894,1,,,,,,,,,,,,,,right,1,0.5003883939934894,,,,,,,,,,,1008,2019_Mar_06_0950,mf_amp_cond2,3.0.4,59.98353225123907,
growth,&&&&&&&,left,care.virtue,scalbel,,,,,,,,,,,,,,,0,126,126,232,,,,,,,,,,,,,AMP,left,0.4003819153876975,1,,,,,,,,,,,,,,left,1,0.4003819153876975,,,,,,,,,,,1008,2019_Mar_06_0950,mf_amp_cond2,3.0.4,59.98353225123907,
respect,&&&&&&&&&,left,sanctity.virtue,gondensed,,,,,,,,,,,,,,,0,127,127,131,,,,,,,,,,,,,AMP,right,0.6004429808817804,0,,,,,,,,,,,,,,right,0,0.6004429808817804,,,,,,,,,,,1008,2019_Mar_06_0950,mf_amp_cond2,3.0.4,59.98353225123907,
penalty,&&&&&&&&,right,authority.vice,gowlands,,,,,,,,,,,,,,,0,128,128,43,,,,,,,,,,,,,AMP,left,0.3836854643886909,0,,,,,,,,,,,,,,left,0,0.3836854643886909,,,,,,,,,,,1008,2019_Mar_06_0950,mf_amp_cond2,3.0.4,59.98353225123907,
emports,&&&&&&&&&,None,nonword,Phintoism,,,,,,,,,,,,,,,0,129,129,227,,,,,,,,,,,,,AMP,right,0.7004314990481362,0,,,,,,,,,,,,,,right,0,0.7004314990481362,,,,,,,,,,,1008,2019_Mar_06_0950,mf_amp_cond2,3.0.4,59.98353225123907,
violations,&&&&,right,sanctity.vice,tove,,,,,,,,,,,,,,,0,130,130,54,,,,,,,,,,,,,AMP,left,0.5170614323578775,0,,,,,,,,,,,,,,left,0,0.5170614323578775,,,,,,,,,,,1008,2019_Mar_06_0950,mf_amp_cond2,3.0.4,59.98353225123907,
torture,&&&&&&&&,right,care.vice,ugeasily,,,,,,,,,,,,,,,0,131,131,265,,,,,,,,,,,,,AMP,left,0.48372273216955364,0,,,,,,,,,,,,,,left,0,0.48372273216955364,,,,,,,,,,,1008,2019_Mar_06_0950,mf_amp_cond2,3.0.4,59.98353225123907,
abuse,&&&&&&&&&&&,right,sanctity.vice,sowntrodden,,,,,,,,,,,,,,,0,132,132,195,,,,,,,,,,,,,AMP,left,0.33368398901075125,0,,,,,,,,,,,,,,left,0,0.33368398901075125,,,,,,,,,,,1008,2019_Mar_06_0950,mf_amp_cond2,3.0.4,59.98353225123907,
strength,&&&&&&&&&&&&&,left,sanctity.virtue,wonderfujnoss,,,,,,,,,,,,,,,0,133,133,154,,,,,,,,,,,,,AMP,right,0.6504229677375406,0,,,,,,,,,,,,,,right,0,0.6504229677375406,,,,,,,,,,,1008,2019_Mar_06_0950,mf_amp_cond2,3.0.4,59.98353225123907,
strength,&&&&&&&,left,sanctity.virtue,nomaric,,,,,,,,,,,,,,,0,134,134,67,,,,,,,,,,,,,AMP,right,1.0171813821652904,0,,,,,,,,,,,,,,right,0,1.0171813821652904,,,,,,,,,,,1008,2019_Mar_06_0950,mf_amp_cond2,3.0.4,59.98353225123907,
simplustic,&&&&&&&&&&,None,nonword,gationwide,,,,,,,,,,,,,,,0,135,135,22,,,,,,,,,,,,,AMP,left,1.183740500244312,0,,,,,,,,,,,,,,left,0,1.183740500244312,,,,,,,,,,,1008,2019_Mar_06_0950,mf_amp_cond2,3.0.4,59.98353225123907,
promises,&&&&&&&&&,left,fairness.virtue,tenuflect,,,,,,,,,,,,,,,0,136,136,324,,,,,,,,,,,,,AMP,right,0.3836915581487119,0,,,,,,,,,,,,,,right,0,0.3836915581487119,,,,,,,,,,,1008,2019_Mar_06_0950,mf_amp_cond2,3.0.4,59.98353225123907,
safe,&&&&&&&,left,care.virtue,gedious,,,,,,,,,,,,,,,0,137,137,207,,,,,,,,,,,,,AMP,left,1.3004334875149652,1,,,,,,,,,,,,,,left,1,1.3004334875149652,,,,,,,,,,,1008,2019_Mar_06_0950,mf_amp_cond2,3.0.4,59.98353225123907,
Cunday,&&&&&&&&&,None,nonword,taxpayung,,,,,,,,,,,,,,,0,138,138,264,,,,,,,,,,,,,AMP,left,1.1672746480908245,0,,,,,,,,,,,,,,left,0,1.1672746480908245,,,,,,,,,,,1008,2019_Mar_06_0950,mf_amp_cond2,3.0.4,59.98353225123907,
promised,&&&&&&&&&&&,left,loyalty.virtue,shoirmaster,,,,,,,,,,,,,,,0,139,139,319,,,,,,,,,,,,,AMP,right,0.5670815093908459,0,,,,,,,,,,,,,,right,0,0.5670815093908459,,,,,,,,,,,1008,2019_Mar_06_0950,mf_amp_cond2,3.0.4,59.98353225123907,
agreement,&&&&&&&&&&,left,fairness.virtue,gationwide,,,,,,,,,,,,,,,0,140,140,314,,,,,,,,,,,,,AMP,right,1.0338682116707787,0,,,,,,,,,,,,,,right,0,1.0338682116707787,,,,,,,,,,,1008,2019_Mar_06_0950,mf_amp_cond2,3.0.4,59.98353225123907,
energy,&&&&,left,sanctity.virtue,spag,,,,,,,,,,,,,,,0,141,141,182,,,,,,,,,,,,,AMP,right,0.7671214073197916,0,,,,,,,,,,,,,,right,0,0.7671214073197916,,,,,,,,,,,1008,2019_Mar_06_0950,mf_amp_cond2,3.0.4,59.98353225123907,
refused,&&&&&&&,right,authority.vice,troubla,,,,,,,,,,,,,,,0,142,142,138,,,,,,,,,,,,,AMP,left,2.2008198929252103,0,,,,,,,,,,,,,,left,0,2.2008198929252103,,,,,,,,,,,1008,2019_Mar_06_0950,mf_amp_cond2,3.0.4,59.98353225123907,
compassion,&&&&&&&&,left,care.virtue,bluently,,,,,,,,,,,,,,,0,143,143,46,,,,,,,,,,,,,AMP,right,0.73379297030624,0,,,,,,,,,,,,,,right,0,0.73379297030624,,,,,,,,,,,1008,2019_Mar_06_0950,mf_amp_cond2,3.0.4,59.98353225123907,
elduringly,&&&&&&,None,nonword,antral,,,,,,,,,,,,,,,0,144,144,145,,,,,,,,,,,,,AMP,left,0.4837143934564665,0,,,,,,,,,,,,,,left,0,0.4837143934564665,,,,,,,,,,,1008,2019_Mar_06_0950,mf_amp_cond2,3.0.4,59.98353225123907,
drug,&&&&,right,sanctity.vice,juck,,,,,,,,,,,,,,,0,145,145,287,,,,,,,,,,,,,AMP,left,0.716939686331898,0,,,,,,,,,,,,,,left,0,0.716939686331898,,,,,,,,,,,1008,2019_Mar_06_0950,mf_amp_cond2,3.0.4,59.98353225123907,
powerful,&&&&&&&&&,left,authority.virtue,gaultless,,,,,,,,,,,,,,,0,146,146,288,,,,,,,,,,,,,AMP,right,1.0505329112056643,0,,,,,,,,,,,,,,right,0,1.0505329112056643,,,,,,,,,,,1008,2019_Mar_06_0950,mf_amp_cond2,3.0.4,59.98353225123907,
attacks,&&&&&&&,right,care.vice,allears,,,,,,,,,,,,,,,0,147,147,50,,,,,,,,,,,,,AMP,left,0.30034849618095905,0,,,,,,,,,,,,,,left,0,0.30034849618095905,,,,,,,,,,,1008,2019_Mar_06_0950,mf_amp_cond2,3.0.4,59.98353225123907,
prison,&&&&&&&&,right,fairness.vice,clamorek,,,,,,,,,,,,,,,0,148,148,202,,,,,,,,,,,,,AMP,right,0.6170861920109019,1,,,,,,,,,,,,,,right,1,0.6170861920109019,,,,,,,,,,,1008,2019_Mar_06_0950,mf_amp_cond2,3.0.4,59.98353225123907,
benefit,&&&&,left,fairness.virtue,coom,,,,,,,,,,,,,,,0,149,149,135,,,,,,,,,,,,,AMP,right,1.0671867062337697,0,,,,,,,,,,,,,,right,0,1.0671867062337697,,,,,,,,,,,1008,2019_Mar_06_0950,mf_amp_cond2,3.0.4,59.98353225123907,
victim,&&&&&,right,care.vice,pafer,,,,,,,,,,,,,,,0,150,150,38,,,,,,,,,,,,,AMP,left,0.31701704440638423,0,,,,,,,,,,,,,,left,0,0.31701704440638423,,,,,,,,,,,1008,2019_Mar_06_0950,mf_amp_cond2,3.0.4,59.98353225123907,
hope,&&&&&&&&&&,left,loyalty.virtue,galamitous,,,,,,,,,,,,,,,0,151,151,236,,,,,,,,,,,,,AMP,right,0.30035234487149864,0,,,,,,,,,,,,,,right,0,0.30035234487149864,,,,,,,,,,,1008,2019_Mar_06_0950,mf_amp_cond2,3.0.4,59.98353225123907,
emports,&&&&&&&&,None,nonword,thabbily,,,,,,,,,,,,,,,0,152,152,321,,,,,,,,,,,,,AMP,left,0.6504553606500849,0,,,,,,,,,,,,,,left,0,0.6504553606500849,,,,,,,,,,,1008,2019_Mar_06_0950,mf_amp_cond2,3.0.4,59.98353225123907,
charges,&&&&&&&&,right,fairness.vice,crinking,,,,,,,,,,,,,,,0,153,153,47,,,,,,,,,,,,,AMP,right,0.4671022923430428,1,,,,,,,,,,,,,,right,1,0.4671022923430428,,,,,,,,,,,1008,2019_Mar_06_0950,mf_amp_cond2,3.0.4,59.98353225123907,
serial,&&&&&&&&&&,right,sanctity.vice,pistraught,,,,,,,,,,,,,,,0,154,154,102,,,,,,,,,,,,,AMP,left,0.5003832624061033,0,,,,,,,,,,,,,,left,0,0.5003832624061033,,,,,,,,,,,1008,2019_Mar_06_0950,mf_amp_cond2,3.0.4,59.98353225123907,
conspiracy,&&&&&&,right,sanctity.vice,sonvoy,,,,,,,,,,,,,,,0,155,155,282,,,,,,,,,,,,,AMP,right,0.9338219634955749,1,,,,,,,,,,,,,,right,1,0.9338219634955749,,,,,,,,,,,1008,2019_Mar_06_0950,mf_amp_cond2,3.0.4,59.98353225123907,
violence,&&&&&&,right,care.vice,papert,,,,,,,,,,,,,,,0,156,156,142,,,,,,,,,,,,,AMP,left,0.30033566732890904,0,,,,,,,,,,,,,,left,0,0.30033566732890904,,,,,,,,,,,1008,2019_Mar_06_0950,mf_amp_cond2,3.0.4,59.98353225123907,
shoirmaster,&&&&&&&&,None,nonword,crinking,,,,,,,,,,,,,,,0,157,157,117,,,,,,,,,,,,,AMP,left,0.35035959316883236,0,,,,,,,,,,,,,,left,0,0.35035959316883236,,,,,,,,,,,1008,2019_Mar_06_0950,mf_amp_cond2,3.0.4,59.98353225123907,
honored,&&&&&&&&&&,left,authority.virtue,galamitous,,,,,,,,,,,,,,,0,158,158,275,,,,,,,,,,,,,AMP,right,0.5837462090421468,0,,,,,,,,,,,,,,right,0,0.5837462090421468,,,,,,,,,,,1008,2019_Mar_06_0950,mf_amp_cond2,3.0.4,59.98353225123907,
slavery,&&&&&&&&&,right,loyalty.vice,crilfully,,,,,,,,,,,,,,,0,159,159,273,,,,,,,,,,,,,AMP,left,0.3503560652025044,0,,,,,,,,,,,,,,left,0,0.3503560652025044,,,,,,,,,,,1008,2019_Mar_06_0950,mf_amp_cond2,3.0.4,59.98353225123907,
blamed,&&&&&&&&,right,loyalty.vice,ebbitter,,,,,,,,,,,,,,,0,160,160,234,,,,,,,,,,,,,AMP,left,0.25026876479387283,0,,,,,,,,,,,,,,left,0,0.25026876479387283,,,,,,,,,,,1008,2019_Mar_06_0950,mf_amp_cond2,3.0.4,59.98353225123907,
violations,&&&&&&&&&,right,sanctity.vice,Phintoism,,,,,,,,,,,,,,,0,161,161,308,,,,,,,,,,,,,AMP,left,0.36698420252650976,0,,,,,,,,,,,,,,left,0,0.36698420252650976,,,,,,,,,,,1008,2019_Mar_06_0950,mf_amp_cond2,3.0.4,59.98353225123907,
simplustic,&&&&&&&&&,None,nonword,pescinded,,,,,,,,,,,,,,,0,162,162,206,,,,,,,,,,,,,AMP,right,0.4003796704346314,0,,,,,,,,,,,,,,right,0,0.4003796704346314,,,,,,,,,,,1008,2019_Mar_06_0950,mf_amp_cond2,3.0.4,59.98353225123907,
attacks,&&&&&&&,right,care.vice,nomaric,,,,,,,,,,,,,,,0,163,163,289,,,,,,,,,,,,,AMP,left,0.217000623466447,0,,,,,,,,,,,,,,left,0,0.217000623466447,,,,,,,,,,,1008,2019_Mar_06_0950,mf_amp_cond2,3.0.4,59.98353225123907,
illegal,&&&&&,right,fairness.vice,scock,,,,,,,,,,,,,,,0,164,164,221,,,,,,,,,,,,,AMP,left,0.9505004540551454,0,,,,,,,,,,,,,,left,0,0.9505004540551454,,,,,,,,,,,1008,2019_Mar_06_0950,mf_amp_cond2,3.0.4,59.98353225123907,
safe,&&&&&&&,left,care.virtue,lursuer,,,,,,,,,,,,,,,0,165,165,299,,,,,,,,,,,,,AMP,right,1.5006369532784447,0,,,,,,,,,,,,,,right,0,1.5006369532784447,,,,,,,,,,,1008,2019_Mar_06_0950,mf_amp_cond2,3.0.4,59.98353225123907,
freedom,&&&&&&&&&&,left,sanctity.virtue,totalestic,,,,,,,,,,,,,,,0,166,166,313,,,,,,,,,,,,,AMP,right,0.383697331068106,0,,,,,,,,,,,,,,right,0,0.383697331068106,,,,,,,,,,,1008,2019_Mar_06_0950,mf_amp_cond2,3.0.4,59.98353225123907,
Cunday,&&&&&&&&,None,nonword,thabbily,,,,,,,,,,,,,,,0,167,167,93,,,,,,,,,,,,,AMP,left,0.31701319583225995,0,,,,,,,,,,,,,,left,0,0.31701319583225995,,,,,,,,,,,1008,2019_Mar_06_0950,mf_amp_cond2,3.0.4,59.98353225123907,
faith,&&&&&&&,left,sanctity.virtue,menizen,,,,,,,,,,,,,,,0,168,168,278,,,,,,,,,,,,,AMP,right,0.43375910201575607,0,,,,,,,,,,,,,,right,0,0.43375910201575607,,,,,,,,,,,1008,2019_Mar_06_0950,mf_amp_cond2,3.0.4,59.98353225123907,
drug,&&&&&&&&,right,sanctity.vice,ugeasily,,,,,,,,,,,,,,,0,169,169,113,,,,,,,,,,,,,AMP,left,0.3336807817686349,0,,,,,,,,,,,,,,left,0,0.3336807817686349,,,,,,,,,,,1008,2019_Mar_06_0950,mf_amp_cond2,3.0.4,59.98353225123907,
pleasant,&&&&&&&&&&&,None,control,fornicalion,,,,,,,,,,,,,,,0,170,170,141,,,,,,,,,,,,,AMP,right,0.40037036943249404,0,,,,,,,,,,,,,,right,0,0.40037036943249404,,,,,,,,,,,1008,2019_Mar_06_0950,mf_amp_cond2,3.0.4,59.98353225123907,
hate,&&&&&&&&&,right,fairness.vice,gaultless,,,,,,,,,,,,,,,0,171,171,222,,,,,,,,,,,,,AMP,left,0.833847236353904,0,,,,,,,,,,,,,,left,0,0.833847236353904,,,,,,,,,,,1008,2019_Mar_06_0950,mf_amp_cond2,3.0.4,59.98353225123907,
celebrated,&&&&&&&&,left,authority.virtue,counpy's,,,,,,,,,,,,,,,0,172,172,169,,,,,,,,,,,,,AMP,right,0.26699247711803764,0,,,,,,,,,,,,,,right,0,0.26699247711803764,,,,,,,,,,,1008,2019_Mar_06_0950,mf_amp_cond2,3.0.4,59.98353225123907,
serial,&&&&&&,right,sanctity.vice,tislay,,,,,,,,,,,,,,,0,173,173,241,,,,,,,,,,,,,AMP,left,0.5837227964075282,0,,,,,,,,,,,,,,left,0,0.5837227964075282,,,,,,,,,,,1008,2019_Mar_06_0950,mf_amp_cond2,3.0.4,59.98353225123907,
sharing,&&&&&&&&,left,loyalty.virtue,drumbled,,,,,,,,,,,,,,,0,174,174,311,,,,,,,,,,,,,AMP,left,0.41701582563109696,1,,,,,,,,,,,,,,left,1,0.41701582563109696,,,,,,,,,,,1008,2019_Mar_06_0950,mf_amp_cond2,3.0.4,59.98353225123907,
groups,&&&&&&&&,right,loyalty.vice,gournful,,,,,,,,,,,,,,,0,175,175,48,,,,,,,,,,,,,AMP,right,0.3836934824939817,1,,,,,,,,,,,,,,right,1,0.3836934824939817,,,,,,,,,,,1008,2019_Mar_06_0950,mf_amp_cond2,3.0.4,59.98353225123907,
promised,&&&&&&&,left,loyalty.virtue,brudent,,,,,,,,,,,,,,,0,176,176,181,,,,,,,,,,,,,AMP,left,0.48371086549013853,1,,,,,,,,,,,,,,left,1,0.48371086549013853,,,,,,,,,,,1008,2019_Mar_06_0950,mf_amp_cond2,3.0.4,59.98353225123907,
army,&&&&&&,right,loyalty.vice,prones,,,,,,,,,,,,,,,0,177,177,296,,,,,,,,,,,,,AMP,right,0.4337125973543152,1,,,,,,,,,,,,,,right,1,0.4337125973543152,,,,,,,,,,,1008,2019_Mar_06_0950,mf_amp_cond2,3.0.4,59.98353225123907,
sexual,&&&&&&&&,right,sanctity.vice,drumbled,,,,,,,,,,,,,,,0,178,178,177,,,,,,,,,,,,,AMP,right,2.3008501048898324,1,,,,,,,,,,,,,,right,1,2.3008501048898324,,,,,,,,,,,1008,2019_Mar_06_0950,mf_amp_cond2,3.0.4,59.98353225123907,
failure,&&&&&&&&&,right,loyalty.vice,crilfully,,,,,,,,,,,,,,,0,179,179,69,,,,,,,,,,,,,AMP,left,0.2669976087054238,0,,,,,,,,,,,,,,left,0,0.2669976087054238,,,,,,,,,,,1008,2019_Mar_06_0950,mf_amp_cond2,3.0.4,59.98353225123907,
frojecting,&&&&&&&&&&,None,nonword,pistraught,,,,,,,,,,,,,,,0,180,180,23,,,,,,,,,,,,,AMP,left,0.3670297450153157,0,,,,,,,,,,,,,,left,0,0.3670297450153157,,,,,,,,,,,1008,2019_Mar_06_0950,mf_amp_cond2,3.0.4,59.98353225123907,
fraud,&&&&&&&&&&&,right,fairness.vice,sowntrodden,,,,,,,,,,,,,,,0,181,181,114,,,,,,,,,,,,,AMP,left,0.41703442751895636,0,,,,,,,,,,,,,,left,0,0.41703442751895636,,,,,,,,,,,1008,2019_Mar_06_0950,mf_amp_cond2,3.0.4,59.98353225123907,
health,&&&&,left,care.virtue,ning,,,,,,,,,,,,,,,0,182,182,158,,,,,,,,,,,,,AMP,right,0.3170051777269691,0,,,,,,,,,,,,,,right,0,0.3170051777269691,,,,,,,,,,,1008,2019_Mar_06_0950,mf_amp_cond2,3.0.4,59.98353225123907,
ensure,&&&&&&&&&&&,left,fairness.virtue,nomparisons,,,,,,,,,,,,,,,0,183,183,231,,,,,,,,,,,,,AMP,left,0.4670689372578636,1,,,,,,,,,,,,,,left,1,0.4670689372578636,,,,,,,,,,,1008,2019_Mar_06_0950,mf_amp_cond2,3.0.4,59.98353225123907,
pleasant,&&&&&&&,None,control,hatigue,,,,,,,,,,,,,,,0,184,184,304,,,,,,,,,,,,,AMP,left,0.36702140630222857,0,,,,,,,,,,,,,,left,0,0.36702140630222857,,,,,,,,,,,1008,2019_Mar_06_0950,mf_amp_cond2,3.0.4,59.98353225123907,
improve,&&&&&,left,care.virtue,lenon,,,,,,,,,,,,,,,0,185,185,162,,,,,,,,,,,,,AMP,right,0.33367308450397104,0,,,,,,,,,,,,,,right,0,0.33367308450397104,,,,,,,,,,,1008,2019_Mar_06_0950,mf_amp_cond2,3.0.4,59.98353225123907,
safe,&&&&&,left,care.virtue,atson,,,,,,,,,,,,,,,0,186,186,27,,,,,,,,,,,,,AMP,right,0.4003735766746104,0,,,,,,,,,,,,,,right,0,0.4003735766746104,,,,,,,,,,,1008,2019_Mar_06_0950,mf_amp_cond2,3.0.4,59.98353225123907,
violence,&&&&&&&&,right,care.vice,lachelor,,,,,,,,,,,,,,,0,187,187,259,,,,,,,,,,,,,AMP,right,0.6504271371522918,1,,,,,,,,,,,,,,right,1,0.6504271371522918,,,,,,,,,,,1008,2019_Mar_06_0950,mf_amp_cond2,3.0.4,59.98353225123907,
scandal,&&&&&&,right,sanctity.vice,squets,,,,,,,,,,,,,,,0,188,188,97,,,,,,,,,,,,,AMP,left,0.41702544735744596,0,,,,,,,,,,,,,,left,0,0.41702544735744596,,,,,,,,,,,1008,2019_Mar_06_0950,mf_amp_cond2,3.0.4,59.98353225123907,
faith,&&&&&&&&&&,left,sanctity.virtue,chonograph,,,,,,,,,,,,,,,0,189,189,137,,,,,,,,,,,,,AMP,right,0.38369572744704783,0,,,,,,,,,,,,,,right,0,0.38369572744704783,,,,,,,,,,,1008,2019_Mar_06_0950,mf_amp_cond2,3.0.4,59.98353225123907,
serial,&&&,right,sanctity.vice,asn,,,,,,,,,,,,,,,0,190,190,305,,,,,,,,,,,,,AMP,left,0.517024870030582,0,,,,,,,,,,,,,,left,0,0.517024870030582,,,,,,,,,,,1008,2019_Mar_06_0950,mf_amp_cond2,3.0.4,59.98353225123907,
black,&&&&&&&,right,loyalty.vice,allears,,,,,,,,,,,,,,,0,191,191,216,,,,,,,,,,,,,AMP,right,0.9338338302914053,1,,,,,,,,,,,,,,right,1,0.9338338302914053,,,,,,,,,,,1008,2019_Mar_06_0950,mf_amp_cond2,3.0.4,59.98353225123907,
care,&&&&,left,care.virtue,tove,,,,,,,,,,,,,,,0,192,192,211,,,,,,,,,,,,,AMP,right,0.9838430029340088,0,,,,,,,,,,,,,,right,0,0.9838430029340088,,,,,,,,,,,1008,2019_Mar_06_0950,mf_amp_cond2,3.0.4,59.98353225123907,
compassion,&&&&&&&&,left,care.virtue,thadowed,,,,,,,,,,,,,,,0,193,193,251,,,,,,,,,,,,,AMP,right,0.5838042597752064,0,,,,,,,,,,,,,,right,0,0.5838042597752064,,,,,,,,,,,1008,2019_Mar_06_0950,mf_amp_cond2,3.0.4,59.98353225123907,
injured,&&&&&&&&,right,care.vice,drumbled,,,,,,,,,,,,,,,0,194,194,127,,,,,,,,,,,,,AMP,left,0.5003906390629709,0,,,,,,,,,,,,,,left,0,0.5003906390629709,,,,,,,,,,,1008,2019_Mar_06_0950,mf_amp_cond2,3.0.4,59.98353225123907,
shoirmaster,&&&&&&&&,None,nonword,suggists,,,,,,,,,,,,,,,0,195,195,64,,,,,,,,,,,,,AMP,left,0.3169852929422632,0,,,,,,,,,,,,,,left,0,0.3169852929422632,,,,,,,,,,,1008,2019_Mar_06_0950,mf_amp_cond2,3.0.4,59.98353225123907,
violations,&&&&&&,right,sanctity.vice,papert,,,,,,,,,,,,,,,0,196,196,238,,,,,,,,,,,,,AMP,right,0.45037729700561613,1,,,,,,,,,,,,,,right,1,0.45037729700561613,,,,,,,,,,,1008,2019_Mar_06_0950,mf_amp_cond2,3.0.4,59.98353225123907,
benefit,&&&&&&&,left,fairness.virtue,chreams,,,,,,,,,,,,,,,0,197,197,295,,,,,,,,,,,,,AMP,left,0.4170385969337076,1,,,,,,,,,,,,,,left,1,0.4170385969337076,,,,,,,,,,,1008,2019_Mar_06_0950,mf_amp_cond2,3.0.4,59.98353225123907,
credit,&&&&&,left,fairness.virtue,lenon,,,,,,,,,,,,,,,0,198,198,323,,,,,,,,,,,,,AMP,right,0.3837043870007619,0,,,,,,,,,,,,,,right,0,0.3837043870007619,,,,,,,,,,,1008,2019_Mar_06_0950,mf_amp_cond2,3.0.4,59.98353225123907,
bruthfulness,&&&&&&&&&,None,nonword,disregord,,,,,,,,,,,,,,,0,199,199,189,,,,,,,,,,,,,AMP,left,0.7671258974587545,0,,,,,,,,,,,,,,left,0,0.7671258974587545,,,,,,,,,,,1008,2019_Mar_06_0950,mf_amp_cond2,3.0.4,59.98353225123907,
loyalty,&&&&&&&&&&,left,loyalty.virtue,chonograph,,,,,,,,,,,,,,,0,200,200,40,,,,,,,,,,,,,AMP,right,1.6173572018742561,0,,,,,,,,,,,,,,right,0,1.6173572018742561,,,,,,,,,,,1008,2019_Mar_06_0950,mf_amp_cond2,3.0.4,59.98353225123907,
good,&&&&&&&&&,left,care.virtue,tenuflect,,,,,,,,,,,,,,,0,201,201,91,,,,,,,,,,,,,AMP,left,0.40038993349298835,1,,,,,,,,,,,,,,left,1,0.40038993349298835,,,,,,,,,,,1008,2019_Mar_06_0950,mf_amp_cond2,3.0.4,59.98353225123907,
care,&&&&&&&,left,care.virtue,menizen,,,,,,,,,,,,,,,0,202,202,85,,,,,,,,,,,,,AMP,right,0.5170604701852426,0,,,,,,,,,,,,,,right,0,0.5170604701852426,,,,,,,,,,,1008,2019_Mar_06_0950,mf_amp_cond2,3.0.4,59.98353225123907,
unpleasant,&&&&&,None,control,atson,,,,,,,,,,,,,,,0,203,203,193,,,,,,,,,,,,,AMP,left,0.38369701034389436,0,,,,,,,,,,,,,,left,0,0.38369701034389436,,,,,,,,,,,1008,2019_Mar_06_0950,mf_amp_cond2,3.0.4,59.98353225123907,
freedom,&&&,left,sanctity.virtue,asn,,,,,,,,,,,,,,,0,204,204,49,,,,,,,,,,,,,AMP,right,0.38369284104555845,0,,,,,,,,,,,,,,right,0,0.38369284104555845,,,,,,,,,,,1008,2019_Mar_06_0950,mf_amp_cond2,3.0.4,59.98353225123907,
celebrated,&&&&&&&&,left,authority.virtue,gournful,,,,,,,,,,,,,,,0,205,205,133,,,,,,,,,,,,,AMP,right,0.4003671621903777,0,,,,,,,,,,,,,,right,0,0.4003671621903777,,,,,,,,,,,1008,2019_Mar_06_0950,mf_amp_cond2,3.0.4,59.98353225123907,
hate,&&&&&&,right,fairness.vice,antral,,,,,,,,,,,,,,,0,206,206,26,,,,,,,,,,,,,AMP,left,0.6336806535255164,0,,,,,,,,,,,,,,left,0,0.6336806535255164,,,,,,,,,,,1008,2019_Mar_06_0950,mf_amp_cond2,3.0.4,59.98353225123907,
army,&&&&&&&&&&&&&,right,loyalty.vice,idexpressible,,,,,,,,,,,,,,,0,207,207,32,,,,,,,,,,,,,AMP,left,0.48372882592957467,0,,,,,,,,,,,,,,left,0,0.48372882592957467,,,,,,,,,,,1008,2019_Mar_06_0950,mf_amp_cond2,3.0.4,59.98353225123907,
rebels,&&&&&&&&&,right,authority.vice,crilfully,,,,,,,,,,,,,,,0,208,208,143,,,,,,,,,,,,,AMP,left,0.3836954068392515,0,,,,,,,,,,,,,,left,0,0.3836954068392515,,,,,,,,,,,1008,2019_Mar_06_0950,mf_amp_cond2,3.0.4,59.98353225123907,
frojecting,&&&&&&&&&&&,None,nonword,blunderints,,,,,,,,,,,,,,,0,209,209,300,,,,,,,,,,,,,AMP,left,0.3836925202049315,0,,,,,,,,,,,,,,left,0,0.3836925202049315,,,,,,,,,,,1008,2019_Mar_06_0950,mf_amp_cond2,3.0.4,59.98353225123907,
agreement,&&&&&&&&&&&&,left,fairness.virtue,unreflectuve,,,,,,,,,,,,,,,0,210,210,81,,,,,,,,,,,,,AMP,left,0.46704712812788785,1,,,,,,,,,,,,,,left,1,0.46704712812788785,,,,,,,,,,,1008,2019_Mar_06_0950,mf_amp_cond2,3.0.4,59.98353225123907,
freedom,&&&&&&&,left,sanctity.virtue,chreams,,,,,,,,,,,,,,,0,211,211,228,,,,,,,,,,,,,AMP,right,0.3670117845758796,0,,,,,,,,,,,,,,right,0,0.3670117845758796,,,,,,,,,,,1008,2019_Mar_06_0950,mf_amp_cond2,3.0.4,59.98353225123907,
rebels,&&&&&&&&&&&,right,authority.vice,fornicalion,,,,,,,,,,,,,,,0,212,212,215,,,,,,,,,,,,,AMP,left,0.40037453873082995,0,,,,,,,,,,,,,,left,0,0.40037453873082995,,,,,,,,,,,1008,2019_Mar_06_0950,mf_amp_cond2,3.0.4,59.98353225123907,
hate,&&&&&&&&&&&,right,fairness.vice,shoirmaster,,,,,,,,,,,,,,,0,213,213,118,,,,,,,,,,,,,AMP,left,0.48375127650797367,0,,,,,,,,,,,,,,left,0,0.48375127650797367,,,,,,,,,,,1008,2019_Mar_06_0950,mf_amp_cond2,3.0.4,59.98353225123907,
benefit,&&&&&&&&&,left,fairness.virtue,gondensed,,,,,,,,,,,,,,,0,214,214,183,,,,,,,,,,,,,AMP,right,0.41704501130152494,0,,,,,,,,,,,,,,right,0,0.41704501130152494,,,,,,,,,,,1008,2019_Mar_06_0950,mf_amp_cond2,3.0.4,59.98353225123907,
improve,&&&&&&&&&,left,care.virtue,gaultless,,,,,,,,,,,,,,,0,215,215,41,,,,,,,,,,,,,AMP,right,0.2836677605519071,0,,,,,,,,,,,,,,right,0,0.2836677605519071,,,,,,,,,,,1008,2019_Mar_06_0950,mf_amp_cond2,3.0.4,59.98353225123907,
Boeinf,&&&&&&&&&,None,nonword,tenuflect,,,,,,,,,,,,,,,0,216,216,229,,,,,,,,,,,,,AMP,left,0.7004417619900778,0,,,,,,,,,,,,,,left,0,0.7004417619900778,,,,,,,,,,,1008,2019_Mar_06_0950,mf_amp_cond2,3.0.4,59.98353225123907,
terrorist,&&&&&&&&&&&&&,right,loyalty.vice,esquisiteness,,,,,,,,,,,,,,,0,217,217,45,,,,,,,,,,,,,AMP,left,0.2669969672570005,0,,,,,,,,,,,,,,left,0,0.2669969672570005,,,,,,,,,,,1008,2019_Mar_06_0950,mf_amp_cond2,3.0.4,59.98353225123907,
failure,&&&&&&&&,right,loyalty.vice,suggists,,,,,,,,,,,,,,,0,218,218,179,,,,,,,,,,,,,AMP,right,0.21698073879815638,1,,,,,,,,,,,,,,right,1,0.21698073879815638,,,,,,,,,,,1008,2019_Mar_06_0950,mf_amp_cond2,3.0.4,59.98353225123907,
sexual,&&&&&&&,right,sanctity.vice,gedious,,,,,,,,,,,,,,,0,219,219,272,,,,,,,,,,,,,AMP,left,0.30032187630422413,0,,,,,,,,,,,,,,left,0,0.30032187630422413,,,,,,,,,,,1008,2019_Mar_06_0950,mf_amp_cond2,3.0.4,59.98353225123907,
party,&&&&&&&&&&&&,left,loyalty.virtue,feleological,,,,,,,,,,,,,,,0,220,220,35,,,,,,,,,,,,,AMP,right,0.5504081504186615,0,,,,,,,,,,,,,,right,0,0.5504081504186615,,,,,,,,,,,1008,2019_Mar_06_0950,mf_amp_cond2,3.0.4,59.98353225123907,
praised,&&&&&&&&,left,loyalty.virtue,gowlands,,,,,,,,,,,,,,,0,221,221,249,,,,,,,,,,,,,AMP,left,0.8171453331597149,1,,,,,,,,,,,,,,left,1,0.8171453331597149,,,,,,,,,,,1008,2019_Mar_06_0950,mf_amp_cond2,3.0.4,59.98353225123907,
conspiracy,&&&&&,right,sanctity.vice,atson,,,,,,,,,,,,,,,0,222,222,106,,,,,,,,,,,,,AMP,left,0.5504286766517907,0,,,,,,,,,,,,,,left,0,0.5504286766517907,,,,,,,,,,,1008,2019_Mar_06_0950,mf_amp_cond2,3.0.4,59.98353225123907,
fraud,&&&&&&,right,fairness.vice,squets,,,,,,,,,,,,,,,0,223,223,9,,,,,,,,,,,,,AMP,left,0.26710601267404854,0,,,,,,,,,,,,,,left,0,0.26710601267404854,,,,,,,,,,,1008,2019_Mar_06_0950,mf_amp_cond2,3.0.4,59.98353225123907,
powerful,&&&&&&&&&&&,left,authority.virtue,shoirmaster,,,,,,,,,,,,,,,0,224,224,13,,,,,,,,,,,,,AMP,right,1.3506084732944146,0,,,,,,,,,,,,,,right,0,1.3506084732944146,,,,,,,,,,,1008,2019_Mar_06_0950,mf_amp_cond2,3.0.4,59.98353225123907,
promises,&&&&&&&,left,fairness.virtue,nomaric,,,,,,,,,,,,,,,0,225,225,136,,,,,,,,,,,,,AMP,right,0.9338402446592227,0,,,,,,,,,,,,,,right,0,0.9338402446592227,,,,,,,,,,,1008,2019_Mar_06_0950,mf_amp_cond2,3.0.4,59.98353225123907,
stindig,&&&&&&,None,nonword,forepo,,,,,,,,,,,,,,,0,226,226,72,,,,,,,,,,,,,AMP,left,1.4172823454719037,0,,,,,,,,,,,,,,left,0,1.4172823454719037,,,,,,,,,,,1008,2019_Mar_06_0950,mf_amp_cond2,3.0.4,59.98353225123907,
rebels,&&&&,right,authority.vice,coom,,,,,,,,,,,,,,,0,227,227,24,,,,,,,,,,,,,AMP,right,1.050575246452354,1,,,,,,,,,,,,,,right,1,1.050575246452354,,,,,,,,,,,1008,2019_Mar_06_0950,mf_amp_cond2,3.0.4,59.98353225123907,
illegal,&&&&&&&&&&,right,fairness.vice,gationwide,,,,,,,,,,,,,,,0,228,228,82,,,,,,,,,,,,,AMP,left,0.3836902752518654,0,,,,,,,,,,,,,,left,0,0.3836902752518654,,,,,,,,,,,1008,2019_Mar_06_0950,mf_amp_cond2,3.0.4,59.98353225123907,
actively,&&&&,left,authority.virtue,juck,,,,,,,,,,,,,,,0,229,229,78,,,,,,,,,,,,,AMP,right,0.23365987080615014,0,,,,,,,,,,,,,,right,0,0.23365987080615014,,,,,,,,,,,1008,2019_Mar_06_0950,mf_amp_cond2,3.0.4,59.98353225123907,
powerful,&&&&&&&&,left,authority.virtue,gowlands,,,,,,,,,,,,,,,0,230,230,200,,,,,,,,,,,,,AMP,left,0.48374229623004794,1,,,,,,,,,,,,,,left,1,0.48374229623004794,,,,,,,,,,,1008,2019_Mar_06_0950,mf_amp_cond2,3.0.4,59.98353225123907,
opportunity,&&&&&&&,left,fairness.virtue,chreams,,,,,,,,,,,,,,,0,231,231,139,,,,,,,,,,,,,AMP,left,0.4003944236319512,1,,,,,,,,,,,,,,left,1,0.4003944236319512,,,,,,,,,,,1008,2019_Mar_06_0950,mf_amp_cond2,3.0.4,59.98353225123907,
ensure,&&&&&&&&&&&,left,fairness.virtue,blunderints,,,,,,,,,,,,,,,0,232,232,156,,,,,,,,,,,,,AMP,left,0.5337293390184641,1,,,,,,,,,,,,,,left,1,0.5337293390184641,,,,,,,,,,,1008,2019_Mar_06_0950,mf_amp_cond2,3.0.4,59.98353225123907,
gun,&&&&&&,right,authority.vice,squets,,,,,,,,,,,,,,,0,233,233,262,,,,,,,,,,,,,AMP,left,1.4673014604486525,0,,,,,,,,,,,,,,left,0,1.4673014604486525,,,,,,,,,,,1008,2019_Mar_06_0950,mf_amp_cond2,3.0.4,59.98353225123907,
hand,&&&&&&&&&&&,left,sanctity.virtue,cromiscuity,,,,,,,,,,,,,,,0,234,234,65,,,,,,,,,,,,,AMP,left,0.40050282748416066,1,,,,,,,,,,,,,,left,1,0.40050282748416066,,,,,,,,,,,1008,2019_Mar_06_0950,mf_amp_cond2,3.0.4,59.98353225123907,
torture,&&&&&&&&&&,right,care.vice,gationwide,,,,,,,,,,,,,,,0,235,235,180,,,,,,,,,,,,,AMP,left,0.33368591335602105,0,,,,,,,,,,,,,,left,0,0.33368591335602105,,,,,,,,,,,1008,2019_Mar_06_0950,mf_amp_cond2,3.0.4,59.98353225123907,
victim,&&&&&&&&&,right,care.vice,gandbrake,,,,,,,,,,,,,,,0,236,236,124,,,,,,,,,,,,,AMP,right,1.1672297471668571,1,,,,,,,,,,,,,,right,1,1.1672297471668571,,,,,,,,,,,1008,2019_Mar_06_0950,mf_amp_cond2,3.0.4,59.98353225123907,
hand,&&&&&&&&&,left,sanctity.virtue,gondensed,,,,,,,,,,,,,,,0,237,237,294,,,,,,,,,,,,,AMP,right,0.4670567497378215,0,,,,,,,,,,,,,,right,0,0.4670567497378215,,,,,,,,,,,1008,2019_Mar_06_0950,mf_amp_cond2,3.0.4,59.98353225123907,
groups,&&&&&&,right,loyalty.vice,tislay,,,,,,,,,,,,,,,0,238,238,103,,,,,,,,,,,,,AMP,left,0.4670455245068297,0,,,,,,,,,,,,,,left,0,0.4670455245068297,,,,,,,,,,,1008,2019_Mar_06_0950,mf_amp_cond2,3.0.4,59.98353225123907,
commitment,&&&&,left,sanctity.virtue,ning,,,,,,,,,,,,,,,0,239,239,239,,,,,,,,,,,,,AMP,right,0.9338675059843808,0,,,,,,,,,,,,,,right,0,0.9338675059843808,,,,,,,,,,,1008,2019_Mar_06_0950,mf_amp_cond2,3.0.4,59.98353225123907,
refused,&&&&&,right,authority.vice,aubos,,,,,,,,,,,,,,,0,240,240,302,,,,,,,,,,,,,AMP,left,0.48373331606853753,0,,,,,,,,,,,,,,left,0,0.48373331606853753,,,,,,,,,,,1008,2019_Mar_06_0950,mf_amp_cond2,3.0.4,59.98353225123907,
army,&&&&&,right,loyalty.vice,infet,,,,,,,,,,,,,,,0,241,241,196,,,,,,,,,,,,,AMP,left,0.3837451186263934,0,,,,,,,,,,,,,,left,0,0.3837451186263934,,,,,,,,,,,1008,2019_Mar_06_0950,mf_amp_cond2,3.0.4,59.98353225123907,
health,&&&&&&&&,left,care.virtue,pullness,,,,,,,,,,,,,,,0,242,242,14,,,,,,,,,,,,,AMP,left,0.7338006675709039,1,,,,,,,,,,,,,,left,1,0.7338006675709039,,,,,,,,,,,1008,2019_Mar_06_0950,mf_amp_cond2,3.0.4,59.98353225123907,
energy,&&&&&&&,left,sanctity.virtue,brudent,,,,,,,,,,,,,,,0,243,243,121,,,,,,,,,,,,,AMP,left,0.4170373141532764,1,,,,,,,,,,,,,,left,1,0.4170373141532764,,,,,,,,,,,1008,2019_Mar_06_0950,mf_amp_cond2,3.0.4,59.98353225123907,
