words,mask,corr_ans,category,nonwords,LDT_prac_loop.thisRepN,LDT_prac_loop.thisTrialN,LDT_prac_loop.thisN,LDT_prac_loop.thisIndex,LDT_loop.thisRepN,LDT_loop.thisTrialN,LDT_loop.thisN,LDT_loop.thisIndex,AMP_pracloop.thisRepN,AMP_pracloop.thisTrialN,AMP_pracloop.thisN,AMP_pracloop.thisIndex,AMP_loop.thisRepN,AMP_loop.thisTrialN,AMP_loop.thisN,AMP_loop.thisIndex,tweet_loop.thisRepN,tweet_loop.thisTrialN,tweet_loop.thisN,tweet_loop.thisIndex,tweets,topic,begin_key.keys,begin_key.rt,key_resp_AMP_instr1.keys,key_resp_AMP_instr1.rt,key_resp_LDT_instr.keys,key_resp_LDT_instr.rt,resp_LDT_prac.keys,resp_LDT_prac.rt,task,keypress,RT,corr,resp_LDT_ready.keys,resp_LDT_ready.rt,resp_LDT.keys,resp_LDT.corr,resp_LDT.rt,LDT_rating.response,LDT_rating.rt,resp_AMP_ready1.keys,resp_AMP_ready1.rt,resp_AMP_prac.keys,resp_AMP_prac.rt,resp_AMP_ready.keys,resp_AMP_ready.rt,resp_AMP.keys,resp_AMP.corr,resp_AMP.rt,AMP_nonword_rating.response,AMP_nonword_rating.rt,AMP_word_rating.response,AMP_word_rating.rt,AMP_random_rating.response,AMP_random_rating.rt,key_resp_LDT_instr_2.keys,key_resp_LDT_instr_2.rt,participant,date,expName,psychopyVersion,frameRate,
,,,,,,,,,,,,,,,,,,,,,,,,,,,right,1013.3188315064181,,,,,,,,,,,,,,,,,,,,,,,,,,,,,,,,,,,1010,2019_Mar_06_1149,mf_amp_cond2,3.0.4,60.02781982890186,
,,,,,,,,,,,,,,,,,,,,,,,,,,,,,right,9.219403969822451,,,,,,,,,,,,,,,,,,,,,,,,,,,,,,,,,1010,2019_Mar_06_1149,mf_amp_cond2,3.0.4,60.02781982890186,
,,,,,,,,,,,,,,,,,,,,,,,,,,,,,,,right,3.2009372246684507,,,,,,,,,,,,,,,,,,,,,,,,,,,,,,,1010,2019_Mar_06_1149,mf_amp_cond2,3.0.4,60.02781982890186,
bisebell,&&&&&&&,,,,0,0,0,1,,,,,,,,,,,,,,,,,,,,,,,,,left,1.667363496730104,LDT_prac,left,1.667363496730104,0,,,,,,,,,,,,,,,,,,,,,,,,,1010,2019_Mar_06_1149,mf_amp_cond2,3.0.4,60.02781982890186,
keyboard,&&&&&&&,,,,0,1,1,0,,,,,,,,,,,,,,,,,,,,,,,,,left,1.1505608370061964,LDT_prac,left,1.1505608370061964,0,,,,,,,,,,,,,,,,,,,,,,,,,1010,2019_Mar_06_1149,mf_amp_cond2,3.0.4,60.02781982890186,
,,,,,,,,,,,,,,,,,,,,,,,,,,,,,,,,,,,,,,,right,2.4009103478165343,,,,,,,,,,,,,,,,,,,,,,,1010,2019_Mar_06_1149,mf_amp_cond2,3.0.4,60.02781982890186,
wonderfujnoss,&&&&&&&&&&&&&,right,nonword,,,,,,0,0,0,171,,,,,,,,,,,,,,,,,,,,,,,LDT,left,0.883811016799882,0,,,left,0,0.883811016799882,,,,,,,,,,,,,,,,,,,,1010,2019_Mar_06_1149,mf_amp_cond2,3.0.4,60.02781982890186,
wherever,&&&&&&&&,left,neutral,,,,,,0,1,1,94,,,,,,,,,,,,,,,,,,,,,,,LDT,left,0.8173556870315224,1,,,left,1,0.8173556870315224,,,,,,,,,,,,,,,,,,,,1010,2019_Mar_06_1149,mf_amp_cond2,3.0.4,60.02781982890186,
dignity,&&&&&&&,left,sanctity.virtue,,,,,,0,2,2,117,,,,,,,,,,,,,,,,,,,,,,,LDT,left,1.217246447922662,1,,,left,1,1.217246447922662,,,,,,,,,,,,,,,,,,,,1010,2019_Mar_06_1149,mf_amp_cond2,3.0.4,60.02781982890186,
with,&&&&,left,neutral,,,,,,0,3,3,31,,,,,,,,,,,,,,,,,,,,,,,LDT,left,2.0007601199904457,1,,,left,1,2.0007601199904457,,,,,,,,,,,,,,,,,,,,1010,2019_Mar_06_1149,mf_amp_cond2,3.0.4,60.02781982890186,
whither,&&&&&&&,left,neutral,,,,,,0,4,4,141,,,,,,,,,,,,,,,,,,,,,,,LDT,left,1.9007671438157558,1,,,left,1,1.9007671438157558,,,,,,,,,,,,,,,,,,,,1010,2019_Mar_06_1149,mf_amp_cond2,3.0.4,60.02781982890186,
baladroit,&&&&&&&&&,right,nonword,,,,,,0,5,5,32,,,,,,,,,,,,,,,,,,,,,,,LDT,left,0.8505145562812686,0,,,left,0,0.8505145562812686,,,,,,,,,,,,,,,,,,,,1010,2019_Mar_06_1149,mf_amp_cond2,3.0.4,60.02781982890186,
ammessment,&&&&&&&&&&,right,nonword,,,,,,0,6,6,30,,,,,,,,,,,,,,,,,,,,,,,LDT,left,1.0171934640966356,0,,,left,0,1.0171934640966356,,,,,,,,,,,,,,,,,,,,1010,2019_Mar_06_1149,mf_amp_cond2,3.0.4,60.02781982890186,
win,&&&,left,fairness.virtue,,,,,,0,7,7,145,,,,,,,,,,,,,,,,,,,,,,,LDT,left,1.8507441958645359,1,,,left,1,1.8507441958645359,,,,,,,,,,,,,,,,,,,,1010,2019_Mar_06_1149,mf_amp_cond2,3.0.4,60.02781982890186,
fangsters,&&&&&&&&&,right,nonword,,,,,,0,8,8,129,,,,,,,,,,,,,,,,,,,,,,,LDT,left,6.668674302636646,0,,,left,0,6.668674302636646,,,,,,,,,,,,,,,,,,,,1010,2019_Mar_06_1149,mf_amp_cond2,3.0.4,60.02781982890186,
friends,&&&&&&&,left,loyalty.virtue,,,,,,0,9,9,154,,,,,,,,,,,,,,,,,,,,,,,LDT,right,1.2005873129237443,0,,,right,0,1.2005873129237443,,,,,,,,,,,,,,,,,,,,1010,2019_Mar_06_1149,mf_amp_cond2,3.0.4,60.02781982890186,
greaks,&&&&&&,right,nonword,,,,,,0,10,10,55,,,,,,,,,,,,,,,,,,,,,,,LDT,right,1.4506423976272345,1,,,right,1,1.4506423976272345,,,,,,,,,,,,,,,,,,,,1010,2019_Mar_06_1149,mf_amp_cond2,3.0.4,60.02781982890186,
gaultless,&&&&&&&&&,right,nonword,,,,,,0,11,11,26,,,,,,,,,,,,,,,,,,,,,,,LDT,right,1.1839294609380886,1,,,right,1,1.1839294609380886,,,,,,,,,,,,,,,,,,,,1010,2019_Mar_06_1149,mf_amp_cond2,3.0.4,60.02781982890186,
photocalkodes,&&&&&&&&&&&&&,right,nonword,,,,,,0,12,12,124,,,,,,,,,,,,,,,,,,,,,,,LDT,right,1.9507833565585315,1,,,right,1,1.9507833565585315,,,,,,,,,,,,,,,,,,,,1010,2019_Mar_06_1149,mf_amp_cond2,3.0.4,60.02781982890186,
health,&&&&&&,left,care.virtue,,,,,,0,13,13,35,,,,,,,,,,,,,,,,,,,,,,,LDT,right,0.8004861560184509,0,,,right,0,0.8004861560184509,,,,,,,,,,,,,,,,,,,,1010,2019_Mar_06_1149,mf_amp_cond2,3.0.4,60.02781982890186,
perfect,&&&&&&&,left,sanctity.virtue,,,,,,0,14,14,184,,,,,,,,,,,,,,,,,,,,,,,LDT,left,0.66709729435388,1,,,left,1,0.66709729435388,,,,,,,,,,,,,,,,,,,,1010,2019_Mar_06_1149,mf_amp_cond2,3.0.4,60.02781982890186,
saned,&&&&&,None,nonword,,,,,,0,15,15,34,,,,,,,,,,,,,,,,,,,,,,,LDT,right,0.8671515611931682,0,,,right,0,0.8671515611931682,,,,,,,,,,,,,,,,,,,,1010,2019_Mar_06_1149,mf_amp_cond2,3.0.4,60.02781982890186,
epigrach,&&&&&&&&,right,nonword,,,,,,0,16,16,186,,,,,,,,,,,,,,,,,,,,,,,LDT,right,1.5840011109830812,1,,,right,1,1.5840011109830812,,,,,,,,,,,,,,,,,,,,1010,2019_Mar_06_1149,mf_amp_cond2,3.0.4,60.02781982890186,
racist,&&&&&&,left,sanctity.vice,,,,,,0,17,17,144,,,,,,,,,,,,,,,,,,,,,,,LDT,right,1.1672360082156956,0,,,right,0,1.1672360082156956,,,,,,,,,,,,,,,,,,,,1010,2019_Mar_06_1149,mf_amp_cond2,3.0.4,60.02781982890186,
also,&&&&,left,neutral,,,,,,0,18,18,84,,,,,,,,,,,,,,,,,,,,,,,LDT,right,0.833817575708963,0,,,right,0,0.833817575708963,,,,,,,,,,,,,,,,,,,,1010,2019_Mar_06_1149,mf_amp_cond2,3.0.4,60.02781982890186,
bycled,&&&&&&,None,nonword,,,,,,0,19,19,191,,,,,,,,,,,,,,,,,,,,,,,LDT,left,1.2006225928198546,0,,,left,0,1.2006225928198546,,,,,,,,,,,,,,,,,,,,1010,2019_Mar_06_1149,mf_amp_cond2,3.0.4,60.02781982890186,
godlaness,&&&&&&&&&,right,nonword,,,,,,0,20,20,82,,,,,,,,,,,,,,,,,,,,,,,LDT,right,0.8836791985668242,1,,,right,1,0.8836791985668242,,,,,,,,,,,,,,,,,,,,1010,2019_Mar_06_1149,mf_amp_cond2,3.0.4,60.02781982890186,
ugeasily,&&&&&&&&,right,nonword,,,,,,0,21,21,28,,,,,,,,,,,,,,,,,,,,,,,LDT,right,0.8504818422952667,1,,,right,1,0.8504818422952667,,,,,,,,,,,,,,,,,,,,1010,2019_Mar_06_1149,mf_amp_cond2,3.0.4,60.02781982890186,
threatened,&&&&&&&&&&,left,fairness.vice,,,,,,0,22,22,109,,,,,,,,,,,,,,,,,,,,,,,LDT,right,0.9338336441433057,0,,,right,0,0.9338336441433057,,,,,,,,,,,,,,,,,,,,1010,2019_Mar_06_1149,mf_amp_cond2,3.0.4,60.02781982890186,
latterly,&&&&&&&&,left,neutral,,,,,,0,23,23,155,,,,,,,,,,,,,,,,,,,,,,,LDT,right,0.7504484547534958,0,,,right,0,0.7504484547534958,,,,,,,,,,,,,,,,,,,,1010,2019_Mar_06_1149,mf_amp_cond2,3.0.4,60.02781982890186,
everything,&&&&&&&&&&,left,neutral,,,,,,0,24,24,99,,,,,,,,,,,,,,,,,,,,,,,LDT,right,0.6837981237331405,0,,,right,0,0.6837981237331405,,,,,,,,,,,,,,,,,,,,1010,2019_Mar_06_1149,mf_amp_cond2,3.0.4,60.02781982890186,
strofe,&&&&&&,right,nonword,,,,,,0,25,25,152,,,,,,,,,,,,,,,,,,,,,,,LDT,right,2.350888682762161,1,,,right,1,2.350888682762161,,,,,,,,,,,,,,,,,,,,1010,2019_Mar_06_1149,mf_amp_cond2,3.0.4,60.02781982890186,
bruthfulness,&&&&&&&&&&&&,right,nonword,,,,,,0,26,26,111,,,,,,,,,,,,,,,,,,,,,,,LDT,right,0.8504985200706869,1,,,right,1,0.8504985200706869,,,,,,,,,,,,,,,,,,,,1010,2019_Mar_06_1149,mf_amp_cond2,3.0.4,60.02781982890186,
mostly,&&&&&&,left,neutral,,,,,,0,27,27,15,,,,,,,,,,,,,,,,,,,,,,,LDT,right,0.9672365855658427,0,,,right,0,0.9672365855658427,,,,,,,,,,,,,,,,,,,,1010,2019_Mar_06_1149,mf_amp_cond2,3.0.4,60.02781982890186,
mecan,&&&&&,right,nonword,,,,,,0,28,28,159,,,,,,,,,,,,,,,,,,,,,,,LDT,right,0.8671191679313779,1,,,right,1,0.8671191679313779,,,,,,,,,,,,,,,,,,,,1010,2019_Mar_06_1149,mf_amp_cond2,3.0.4,60.02781982890186,
integrity,&&&&&&&&&,left,fairness.virtue,,,,,,0,29,29,85,,,,,,,,,,,,,,,,,,,,,,,LDT,right,1.0170744747156277,0,,,right,0,1.0170744747156277,,,,,,,,,,,,,,,,,,,,1010,2019_Mar_06_1149,mf_amp_cond2,3.0.4,60.02781982890186,
about,&&&&&,left,neutral,,,,,,0,30,30,182,,,,,,,,,,,,,,,,,,,,,,,LDT,left,0.6004216260043904,1,,,left,1,0.6004216260043904,,,,,,,,,,,,,,,,,,,,1010,2019_Mar_06_1149,mf_amp_cond2,3.0.4,60.02781982890186,
clean,&&&&&,left,sanctity.virtue,,,,,,0,31,31,137,,,,,,,,,,,,,,,,,,,,,,,LDT,right,0.783788533997722,0,,,right,0,0.783788533997722,,,,,,,,,,,,,,,,,,,,1010,2019_Mar_06_1149,mf_amp_cond2,3.0.4,60.02781982890186,
reprisols,&&&&&&&&&,right,nonword,,,,,,0,32,32,196,,,,,,,,,,,,,,,,,,,,,,,LDT,right,0.8671448259847239,1,,,right,1,0.8671448259847239,,,,,,,,,,,,,,,,,,,,1010,2019_Mar_06_1149,mf_amp_cond2,3.0.4,60.02781982890186,
become,&&&&&&,left,neutral,,,,,,0,33,33,62,,,,,,,,,,,,,,,,,,,,,,,LDT,right,1.2005776911973953,0,,,right,0,1.2005776911973953,,,,,,,,,,,,,,,,,,,,1010,2019_Mar_06_1149,mf_amp_cond2,3.0.4,60.02781982890186,
illegal,&&&&&&&,left,fairness.vice,,,,,,0,34,34,188,,,,,,,,,,,,,,,,,,,,,,,LDT,right,0.6837759935297072,0,,,right,0,0.6837759935297072,,,,,,,,,,,,,,,,,,,,1010,2019_Mar_06_1149,mf_amp_cond2,3.0.4,60.02781982890186,
there,&&&&&,left,neutral,,,,,,0,35,35,22,,,,,,,,,,,,,,,,,,,,,,,LDT,right,0.7671255503082648,0,,,right,0,0.7671255503082648,,,,,,,,,,,,,,,,,,,,1010,2019_Mar_06_1149,mf_amp_cond2,3.0.4,60.02781982890186,
give,&&&&,left,neutral,,,,,,0,36,36,158,,,,,,,,,,,,,,,,,,,,,,,LDT,right,0.7838055323809385,0,,,right,0,0.7838055323809385,,,,,,,,,,,,,,,,,,,,1010,2019_Mar_06_1149,mf_amp_cond2,3.0.4,60.02781982890186,
celebrated,&&&&&&&&&&,left,authority.virtue,,,,,,0,37,37,71,,,,,,,,,,,,,,,,,,,,,,,LDT,right,0.9838482530321926,0,,,right,0,0.9838482530321926,,,,,,,,,,,,,,,,,,,,1010,2019_Mar_06_1149,mf_amp_cond2,3.0.4,60.02781982890186,
scalbel,&&&&&&&,right,nonword,,,,,,0,38,38,46,,,,,,,,,,,,,,,,,,,,,,,LDT,right,1.634016040712595,1,,,right,1,1.634016040712595,,,,,,,,,,,,,,,,,,,,1010,2019_Mar_06_1149,mf_amp_cond2,3.0.4,60.02781982890186,
seem,&&&&,left,neutral,,,,,,0,39,39,93,,,,,,,,,,,,,,,,,,,,,,,LDT,right,0.6337511213496327,0,,,right,0,0.6337511213496327,,,,,,,,,,,,,,,,,,,,1010,2019_Mar_06_1149,mf_amp_cond2,3.0.4,60.02781982890186,
hence,&&&&&,left,neutral,,,,,,0,40,40,114,,,,,,,,,,,,,,,,,,,,,,,LDT,right,0.6671011430444196,0,,,right,0,0.6671011430444196,,,,,,,,,,,,,,,,,,,,1010,2019_Mar_06_1149,mf_amp_cond2,3.0.4,60.02781982890186,
totalestic,&&&&&&&&&&,None,nonword,,,,,,0,41,41,29,,,,,,,,,,,,,,,,,,,,,,,LDT,right,0.6837679755408317,0,,,right,0,0.6837679755408317,,,,,,,,,,,,,,,,,,,,1010,2019_Mar_06_1149,mf_amp_cond2,3.0.4,60.02781982890186,
neutralust,&&&&&&&&&&,right,nonword,,,,,,0,42,42,38,,,,,,,,,,,,,,,,,,,,,,,LDT,right,0.6004835261264816,1,,,right,1,0.6004835261264816,,,,,,,,,,,,,,,,,,,,1010,2019_Mar_06_1149,mf_amp_cond2,3.0.4,60.02781982890186,
sfumatoy,&&&&&&&&,None,nonword,,,,,,0,43,43,169,,,,,,,,,,,,,,,,,,,,,,,LDT,right,1.3339450641069561,0,,,right,0,1.3339450641069561,,,,,,,,,,,,,,,,,,,,1010,2019_Mar_06_1149,mf_amp_cond2,3.0.4,60.02781982890186,
gowlands,&&&&&&&&,right,nonword,,,,,,0,44,44,157,,,,,,,,,,,,,,,,,,,,,,,LDT,right,0.6337623468134552,1,,,right,1,0.6337623468134552,,,,,,,,,,,,,,,,,,,,1010,2019_Mar_06_1149,mf_amp_cond2,3.0.4,60.02781982890186,
embrace,&&&&&&&,left,authority.virtue,,,,,,0,45,45,194,,,,,,,,,,,,,,,,,,,,,,,LDT,right,1.0838768298272043,0,,,right,0,1.0838768298272043,,,,,,,,,,,,,,,,,,,,1010,2019_Mar_06_1149,mf_amp_cond2,3.0.4,60.02781982890186,
prison,&&&&&&,left,fairness.vice,,,,,,0,46,46,83,,,,,,,,,,,,,,,,,,,,,,,LDT,right,0.7504487754777074,0,,,right,0,0.7504487754777074,,,,,,,,,,,,,,,,,,,,1010,2019_Mar_06_1149,mf_amp_cond2,3.0.4,60.02781982890186,
betrayal,&&&&&&&&,left,loyalty.vice,,,,,,0,47,47,149,,,,,,,,,,,,,,,,,,,,,,,LDT,right,0.7671063067391515,0,,,right,0,0.7671063067391515,,,,,,,,,,,,,,,,,,,,1010,2019_Mar_06_1149,mf_amp_cond2,3.0.4,60.02781982890186,
amount,&&&&&&,left,neutral,,,,,,0,48,48,153,,,,,,,,,,,,,,,,,,,,,,,LDT,right,1.3005963253090158,0,,,right,0,1.3005963253090158,,,,,,,,,,,,,,,,,,,,1010,2019_Mar_06_1149,mf_amp_cond2,3.0.4,60.02781982890186,
thru,&&&&,left,neutral,,,,,,0,49,49,64,,,,,,,,,,,,,,,,,,,,,,,LDT,right,0.6837718242313713,0,,,right,0,0.6837718242313713,,,,,,,,,,,,,,,,,,,,1010,2019_Mar_06_1149,mf_amp_cond2,3.0.4,60.02781982890186,
somehow,&&&&&&&,left,neutral,,,,,,0,50,50,90,,,,,,,,,,,,,,,,,,,,,,,LDT,right,0.6670953701250255,0,,,right,0,0.6670953701250255,,,,,,,,,,,,,,,,,,,,1010,2019_Mar_06_1149,mf_amp_cond2,3.0.4,60.02781982890186,
fifty,&&&&&,left,neutral,,,,,,0,51,51,97,,,,,,,,,,,,,,,,,,,,,,,LDT,right,0.7004466747166589,0,,,right,0,0.7004466747166589,,,,,,,,,,,,,,,,,,,,1010,2019_Mar_06_1149,mf_amp_cond2,3.0.4,60.02781982890186,
forty,&&&&&,left,neutral,,,,,,0,52,52,2,,,,,,,,,,,,,,,,,,,,,,,LDT,right,0.5503932257415727,0,,,right,0,0.5503932257415727,,,,,,,,,,,,,,,,,,,,1010,2019_Mar_06_1149,mf_amp_cond2,3.0.4,60.02781982890186,
frocessing,&&&&&&&&&&,right,nonword,,,,,,0,53,53,185,,,,,,,,,,,,,,,,,,,,,,,LDT,right,1.0505303359823301,1,,,right,1,1.0505303359823301,,,,,,,,,,,,,,,,,,,,1010,2019_Mar_06_1149,mf_amp_cond2,3.0.4,60.02781982890186,
intelligence,&&&&&&&&&&&&,left,loyalty.virtue,,,,,,0,54,54,19,,,,,,,,,,,,,,,,,,,,,,,LDT,right,6.401955913635902,0,,,right,0,6.401955913635902,,,,,,,,,,,,,,,,,,,,1010,2019_Mar_06_1149,mf_amp_cond2,3.0.4,60.02781982890186,
refused,&&&&&&&,left,authority.vice,,,,,,0,55,55,176,,,,,,,,,,,,,,,,,,,,,,,LDT,right,0.8338108405005187,0,,,right,0,0.8338108405005187,,,,,,,,,,,,,,,,,,,,1010,2019_Mar_06_1149,mf_amp_cond2,3.0.4,60.02781982890186,
benefit,&&&&&&&,left,fairness.virtue,,,,,,0,56,56,78,,,,,,,,,,,,,,,,,,,,,,,LDT,left,0.7004441089229658,1,,,left,1,0.7004441089229658,,,,,,,,,,,,,,,,,,,,1010,2019_Mar_06_1149,mf_amp_cond2,3.0.4,60.02781982890186,
stindig,&&&&&&&,right,nonword,,,,,,0,57,57,112,,,,,,,,,,,,,,,,,,,,,,,LDT,right,1.2673745938809589,1,,,right,1,1.2673745938809589,,,,,,,,,,,,,,,,,,,,1010,2019_Mar_06_1149,mf_amp_cond2,3.0.4,60.02781982890186,
festate,&&&&&&&,right,nonword,,,,,,0,58,58,66,,,,,,,,,,,,,,,,,,,,,,,LDT,right,1.1005398135166615,1,,,right,1,1.1005398135166615,,,,,,,,,,,,,,,,,,,,1010,2019_Mar_06_1149,mf_amp_cond2,3.0.4,60.02781982890186,
useful,&&&&&&,left,authority.virtue,,,,,,0,59,59,86,,,,,,,,,,,,,,,,,,,,,,,LDT,right,0.9005038280738518,0,,,right,0,0.9005038280738518,,,,,,,,,,,,,,,,,,,,1010,2019_Mar_06_1149,mf_amp_cond2,3.0.4,60.02781982890186,
nonobservalt,&&&&&&&&&&&&,right,nonword,,,,,,0,60,60,187,,,,,,,,,,,,,,,,,,,,,,,LDT,right,0.6671319326851517,1,,,right,1,0.6671319326851517,,,,,,,,,,,,,,,,,,,,1010,2019_Mar_06_1149,mf_amp_cond2,3.0.4,60.02781982890186,
anything,&&&&&&&&,left,neutral,,,,,,0,61,61,91,,,,,,,,,,,,,,,,,,,,,,,LDT,right,0.8838520697318017,0,,,right,0,0.8838520697318017,,,,,,,,,,,,,,,,,,,,1010,2019_Mar_06_1149,mf_amp_cond2,3.0.4,60.02781982890186,
violence,&&&&&&&&,left,care.vice,,,,,,0,62,62,6,,,,,,,,,,,,,,,,,,,,,,,LDT,right,0.85048248374369,0,,,right,0,0.85048248374369,,,,,,,,,,,,,,,,,,,,1010,2019_Mar_06_1149,mf_amp_cond2,3.0.4,60.02781982890186,
been,&&&&,left,neutral,,,,,,0,63,63,167,,,,,,,,,,,,,,,,,,,,,,,LDT,right,0.7504503789823502,0,,,right,0,0.7504503789823502,,,,,,,,,,,,,,,,,,,,1010,2019_Mar_06_1149,mf_amp_cond2,3.0.4,60.02781982890186,
fraud,&&&&&,left,fairness.vice,,,,,,0,64,64,108,,,,,,,,,,,,,,,,,,,,,,,LDT,left,0.600384742487222,1,,,left,1,0.600384742487222,,,,,,,,,,,,,,,,,,,,1010,2019_Mar_06_1149,mf_amp_cond2,3.0.4,60.02781982890186,
synchronazers,&&&&&&&&&&&&&,right,nonword,,,,,,0,65,65,45,,,,,,,,,,,,,,,,,,,,,,,LDT,right,1.1505820049205795,1,,,right,1,1.1505820049205795,,,,,,,,,,,,,,,,,,,,1010,2019_Mar_06_1149,mf_amp_cond2,3.0.4,60.02781982890186,
abointment,&&&&&&&&&&,right,nonword,,,,,,0,66,66,10,,,,,,,,,,,,,,,,,,,,,,,LDT,right,0.7837888547219336,1,,,right,1,0.7837888547219336,,,,,,,,,,,,,,,,,,,,1010,2019_Mar_06_1149,mf_amp_cond2,3.0.4,60.02781982890186,
gazily,&&&&&&,right,nonword,,,,,,0,67,67,52,,,,,,,,,,,,,,,,,,,,,,,LDT,right,0.9338381342822686,1,,,right,1,0.9338381342822686,,,,,,,,,,,,,,,,,,,,1010,2019_Mar_06_1149,mf_amp_cond2,3.0.4,60.02781982890186,
papert,&&&&&&,right,nonword,,,,,,0,68,68,126,,,,,,,,,,,,,,,,,,,,,,,LDT,right,1.4006255434360355,1,,,right,1,1.4006255434360355,,,,,,,,,,,,,,,,,,,,1010,2019_Mar_06_1149,mf_amp_cond2,3.0.4,60.02781982890186,
victim,&&&&&&,left,care.vice,,,,,,0,69,69,79,,,,,,,,,,,,,,,,,,,,,,,LDT,right,0.6337937779026106,0,,,right,0,0.6337937779026106,,,,,,,,,,,,,,,,,,,,1010,2019_Mar_06_1149,mf_amp_cond2,3.0.4,60.02781982890186,
fonderland,&&&&&&&&&&,right,nonword,,,,,,0,70,70,125,,,,,,,,,,,,,,,,,,,,,,,LDT,right,0.5504131107591093,1,,,right,1,0.5504131107591093,,,,,,,,,,,,,,,,,,,,1010,2019_Mar_06_1149,mf_amp_cond2,3.0.4,60.02781982890186,
Oregoniuns,&&&&&&&&&&,right,nonword,,,,,,0,71,71,88,,,,,,,,,,,,,,,,,,,,,,,LDT,right,0.5336907928576693,1,,,right,1,0.5336907928576693,,,,,,,,,,,,,,,,,,,,1010,2019_Mar_06_1149,mf_amp_cond2,3.0.4,60.02781982890186,
men,&&&,left,loyalty.vice,,,,,,0,72,72,68,,,,,,,,,,,,,,,,,,,,,,,LDT,right,0.5336721907369792,0,,,right,0,0.5336721907369792,,,,,,,,,,,,,,,,,,,,1010,2019_Mar_06_1149,mf_amp_cond2,3.0.4,60.02781982890186,
ilportation,&&&&&&&&&&&,right,nonword,,,,,,0,73,73,33,,,,,,,,,,,,,,,,,,,,,,,LDT,left,0.9005038280738518,0,,,left,0,0.9005038280738518,,,,,,,,,,,,,,,,,,,,1010,2019_Mar_06_1149,mf_amp_cond2,3.0.4,60.02781982890186,
each,&&&&,left,neutral,,,,,,0,74,74,156,,,,,,,,,,,,,,,,,,,,,,,LDT,left,1.4006236190907657,1,,,left,1,1.4006236190907657,,,,,,,,,,,,,,,,,,,,1010,2019_Mar_06_1149,mf_amp_cond2,3.0.4,60.02781982890186,
esquisiteness,&&&&&&&&&&&&&,right,nonword,,,,,,0,75,75,39,,,,,,,,,,,,,,,,,,,,,,,LDT,left,0.8671432223636657,0,,,left,0,0.8671432223636657,,,,,,,,,,,,,,,,,,,,1010,2019_Mar_06_1149,mf_amp_cond2,3.0.4,60.02781982890186,
least,&&&&&,left,neutral,,,,,,0,76,76,177,,,,,,,,,,,,,,,,,,,,,,,LDT,right,0.5503948293626308,0,,,right,0,0.5503948293626308,,,,,,,,,,,,,,,,,,,,1010,2019_Mar_06_1149,mf_amp_cond2,3.0.4,60.02781982890186,
neputized,&&&&&&&&&,right,nonword,,,,,,0,77,77,74,,,,,,,,,,,,,,,,,,,,,,,LDT,right,0.583732342813164,1,,,right,1,0.583732342813164,,,,,,,,,,,,,,,,,,,,1010,2019_Mar_06_1149,mf_amp_cond2,3.0.4,60.02781982890186,
chreams,&&&&&&&,right,nonword,,,,,,0,78,78,80,,,,,,,,,,,,,,,,,,,,,,,LDT,right,0.650428858352825,1,,,right,1,0.650428858352825,,,,,,,,,,,,,,,,,,,,1010,2019_Mar_06_1149,mf_amp_cond2,3.0.4,60.02781982890186,
peaceful,&&&&&&&&,left,authority.virtue,,,,,,0,79,79,127,,,,,,,,,,,,,,,,,,,,,,,LDT,right,0.5837563972454518,0,,,right,0,0.5837563972454518,,,,,,,,,,,,,,,,,,,,1010,2019_Mar_06_1149,mf_amp_cond2,3.0.4,60.02781982890186,
reelectiob,&&&&&&&&&&,right,nonword,,,,,,0,80,80,16,,,,,,,,,,,,,,,,,,,,,,,LDT,right,0.566908354870975,1,,,right,1,0.566908354870975,,,,,,,,,,,,,,,,,,,,1010,2019_Mar_06_1149,mf_amp_cond2,3.0.4,60.02781982890186,
war,&&&,left,sanctity.vice,,,,,,0,81,81,115,,,,,,,,,,,,,,,,,,,,,,,LDT,left,0.7337925269966945,1,,,left,1,0.7337925269966945,,,,,,,,,,,,,,,,,,,,1010,2019_Mar_06_1149,mf_amp_cond2,3.0.4,60.02781982890186,
quarterbocks,&&&&&&&&&&&&,right,nonword,,,,,,0,82,82,107,,,,,,,,,,,,,,,,,,,,,,,LDT,right,0.6170791572658345,1,,,right,1,0.6170791572658345,,,,,,,,,,,,,,,,,,,,1010,2019_Mar_06_1149,mf_amp_cond2,3.0.4,60.02781982890186,
counpy's,&&&&&&&&,right,nonword,,,,,,0,83,83,148,,,,,,,,,,,,,,,,,,,,,,,LDT,left,1.0838704153429717,0,,,left,0,1.0838704153429717,,,,,,,,,,,,,,,,,,,,1010,2019_Mar_06_1149,mf_amp_cond2,3.0.4,60.02781982890186,
leact,&&&&&,right,nonword,,,,,,0,84,84,119,,,,,,,,,,,,,,,,,,,,,,,LDT,right,0.7337800187524408,1,,,right,1,0.7337800187524408,,,,,,,,,,,,,,,,,,,,1010,2019_Mar_06_1149,mf_amp_cond2,3.0.4,60.02781982890186,
harassment,&&&&&&&&&&,left,sanctity.vice,,,,,,0,85,85,105,,,,,,,,,,,,,,,,,,,,,,,LDT,right,1.6840332156280056,0,,,right,0,1.6840332156280056,,,,,,,,,,,,,,,,,,,,1010,2019_Mar_06_1149,mf_amp_cond2,3.0.4,60.02781982890186,
peace,&&&&&,left,care.virtue,,,,,,0,86,86,51,,,,,,,,,,,,,,,,,,,,,,,LDT,right,0.6004424731945619,0,,,right,0,0.6004424731945619,,,,,,,,,,,,,,,,,,,,1010,2019_Mar_06_1149,mf_amp_cond2,3.0.4,60.02781982890186,
toward,&&&&&&,left,neutral,,,,,,0,87,87,44,,,,,,,,,,,,,,,,,,,,,,,LDT,right,0.6171105884714052,0,,,right,0,0.6171105884714052,,,,,,,,,,,,,,,,,,,,1010,2019_Mar_06_1149,mf_amp_cond2,3.0.4,60.02781982890186,
penalty,&&&&&&&,left,authority.vice,,,,,,0,88,88,37,,,,,,,,,,,,,,,,,,,,,,,LDT,right,1.7007292340276763,0,,,right,0,1.7007292340276763,,,,,,,,,,,,,,,,,,,,1010,2019_Mar_06_1149,mf_amp_cond2,3.0.4,60.02781982890186,
three,&&&&&,left,neutral,,,,,,0,89,89,18,,,,,,,,,,,,,,,,,,,,,,,LDT,right,1.4006101486738771,0,,,right,0,1.4006101486738771,,,,,,,,,,,,,,,,,,,,1010,2019_Mar_06_1149,mf_amp_cond2,3.0.4,60.02781982890186,
erdest,&&&&&&,right,nonword,,,,,,0,90,90,23,,,,,,,,,,,,,,,,,,,,,,,LDT,right,0.7171192801324651,1,,,right,1,0.7171192801324651,,,,,,,,,,,,,,,,,,,,1010,2019_Mar_06_1149,mf_amp_cond2,3.0.4,60.02781982890186,
tenuflect,&&&&&&&&&,right,nonword,,,,,,0,91,91,106,,,,,,,,,,,,,,,,,,,,,,,LDT,left,1.1338907973840833,0,,,left,0,1.1338907973840833,,,,,,,,,,,,,,,,,,,,1010,2019_Mar_06_1149,mf_amp_cond2,3.0.4,60.02781982890186,
ban,&&&,left,loyalty.vice,,,,,,0,92,92,98,,,,,,,,,,,,,,,,,,,,,,,LDT,left,0.9338147211819887,1,,,left,1,0.9338147211819887,,,,,,,,,,,,,,,,,,,,1010,2019_Mar_06_1149,mf_amp_cond2,3.0.4,60.02781982890186,
shoirmaster,&&&&&&&&&&&,right,nonword,,,,,,0,93,93,76,,,,,,,,,,,,,,,,,,,,,,,LDT,right,0.783794627757743,1,,,right,1,0.783794627757743,,,,,,,,,,,,,,,,,,,,1010,2019_Mar_06_1149,mf_amp_cond2,3.0.4,60.02781982890186,
corruption,&&&&&&&&&&,left,sanctity.vice,,,,,,0,94,94,123,,,,,,,,,,,,,,,,,,,,,,,LDT,right,0.6837702206103131,0,,,right,0,0.6837702206103131,,,,,,,,,,,,,,,,,,,,1010,2019_Mar_06_1149,mf_amp_cond2,3.0.4,60.02781982890186,
therefore,&&&&&&&&&,left,neutral,,,,,,0,95,95,17,,,,,,,,,,,,,,,,,,,,,,,LDT,right,1.2672312294598669,0,,,right,0,1.2672312294598669,,,,,,,,,,,,,,,,,,,,1010,2019_Mar_06_1149,mf_amp_cond2,3.0.4,60.02781982890186,
ning,&&&&,right,nonword,,,,,,0,96,96,121,,,,,,,,,,,,,,,,,,,,,,,LDT,right,1.050532581168227,1,,,right,1,1.050532581168227,,,,,,,,,,,,,,,,,,,,1010,2019_Mar_06_1149,mf_amp_cond2,3.0.4,60.02781982890186,
done,&&&&,left,neutral,,,,,,0,97,97,116,,,,,,,,,,,,,,,,,,,,,,,LDT,right,4.218064619228244,0,,,right,0,4.218064619228244,,,,,,,,,,,,,,,,,,,,1010,2019_Mar_06_1149,mf_amp_cond2,3.0.4,60.02781982890186,
metibolic,&&&&&&&&&,right,nonword,,,,,,0,98,98,134,,,,,,,,,,,,,,,,,,,,,,,LDT,right,1.167251723818481,1,,,right,1,1.167251723818481,,,,,,,,,,,,,,,,,,,,1010,2019_Mar_06_1149,mf_amp_cond2,3.0.4,60.02781982890186,
less,&&&&,left,neutral,,,,,,0,99,99,199,,,,,,,,,,,,,,,,,,,,,,,LDT,right,0.7671265124808997,0,,,right,0,0.7671265124808997,,,,,,,,,,,,,,,,,,,,1010,2019_Mar_06_1149,mf_amp_cond2,3.0.4,60.02781982890186,
faspberry,&&&&&&&&&,None,nonword,,,,,,0,100,100,192,,,,,,,,,,,,,,,,,,,,,,,LDT,left,0.6171189273009077,0,,,left,0,0.6171189273009077,,,,,,,,,,,,,,,,,,,,1010,2019_Mar_06_1149,mf_amp_cond2,3.0.4,60.02781982890186,
fair,&&&&,left,fairness.virtue,,,,,,0,101,101,56,,,,,,,,,,,,,,,,,,,,,,,LDT,right,0.7504609629977494,0,,,right,0,0.7504609629977494,,,,,,,,,,,,,,,,,,,,1010,2019_Mar_06_1149,mf_amp_cond2,3.0.4,60.02781982890186,
safe,&&&&,left,care.virtue,,,,,,0,102,102,172,,,,,,,,,,,,,,,,,,,,,,,LDT,right,0.4837133879773319,0,,,right,0,0.4837133879773319,,,,,,,,,,,,,,,,,,,,1010,2019_Mar_06_1149,mf_amp_cond2,3.0.4,60.02781982890186,
rejected,&&&&&&&&,left,authority.vice,,,,,,0,103,103,140,,,,,,,,,,,,,,,,,,,,,,,LDT,right,1.1003993356134742,0,,,right,0,1.1003993356134742,,,,,,,,,,,,,,,,,,,,1010,2019_Mar_06_1149,mf_amp_cond2,3.0.4,60.02781982890186,
couldnt,&&&&&&&,left,neutral,,,,,,0,104,104,132,,,,,,,,,,,,,,,,,,,,,,,LDT,right,1.7007164049427956,0,,,right,0,1.7007164049427956,,,,,,,,,,,,,,,,,,,,1010,2019_Mar_06_1149,mf_amp_cond2,3.0.4,60.02781982890186,
elduringly,&&&&&&&&&&,right,nonword,,,,,,0,105,105,73,,,,,,,,,,,,,,,,,,,,,,,LDT,right,1.4673037776956335,1,,,right,1,1.4673037776956335,,,,,,,,,,,,,,,,,,,,1010,2019_Mar_06_1149,mf_amp_cond2,3.0.4,60.02781982890186,
were,&&&&,left,neutral,,,,,,0,106,106,136,,,,,,,,,,,,,,,,,,,,,,,LDT,right,0.5837426061043516,0,,,right,0,0.5837426061043516,,,,,,,,,,,,,,,,,,,,1010,2019_Mar_06_1149,mf_amp_cond2,3.0.4,60.02781982890186,
bluently,&&&&&&&&,None,nonword,,,,,,0,107,107,101,,,,,,,,,,,,,,,,,,,,,,,LDT,left,0.7004505234071985,0,,,left,0,0.7004505234071985,,,,,,,,,,,,,,,,,,,,1010,2019_Mar_06_1149,mf_amp_cond2,3.0.4,60.02781982890186,
asn,&&&,right,nonword,,,,,,0,108,108,49,,,,,,,,,,,,,,,,,,,,,,,LDT,right,0.6170897412812337,1,,,right,1,0.6170897412812337,,,,,,,,,,,,,,,,,,,,1010,2019_Mar_06_1149,mf_amp_cond2,3.0.4,60.02781982890186,
rebels,&&&&&&,left,authority.vice,,,,,,0,109,109,104,,,,,,,,,,,,,,,,,,,,,,,LDT,right,0.7171183179598302,0,,,right,0,0.7171183179598302,,,,,,,,,,,,,,,,,,,,1010,2019_Mar_06_1149,mf_amp_cond2,3.0.4,60.02781982890186,
spag,&&&&,None,nonword,,,,,,0,110,110,120,,,,,,,,,,,,,,,,,,,,,,,LDT,right,1.1172614899696782,0,,,right,0,1.1172614899696782,,,,,,,,,,,,,,,,,,,,1010,2019_Mar_06_1149,mf_amp_cond2,3.0.4,60.02781982890186,
tomedians,&&&&&&&&&,right,nonword,,,,,,0,111,111,181,,,,,,,,,,,,,,,,,,,,,,,LDT,right,1.7340776522178203,1,,,right,1,1.7340776522178203,,,,,,,,,,,,,,,,,,,,1010,2019_Mar_06_1149,mf_amp_cond2,3.0.4,60.02781982890186,
gikely,&&&&&&,right,nonword,,,,,,0,112,112,87,,,,,,,,,,,,,,,,,,,,,,,LDT,right,4.684836633503437,1,,,right,1,4.684836633503437,,,,,,,,,,,,,,,,,,,,1010,2019_Mar_06_1149,mf_amp_cond2,3.0.4,60.02781982890186,
both,&&&&,left,neutral,,,,,,0,113,113,165,,,,,,,,,,,,,,,,,,,,,,,LDT,right,0.7004303177818656,0,,,right,0,0.7004303177818656,,,,,,,,,,,,,,,,,,,,1010,2019_Mar_06_1149,mf_amp_cond2,3.0.4,60.02781982890186,
refuejing,&&&&&&&&&,right,nonword,,,,,,0,114,114,179,,,,,,,,,,,,,,,,,,,,,,,LDT,left,2.650962225161493,0,,,left,0,2.650962225161493,,,,,,,,,,,,,,,,,,,,1010,2019_Mar_06_1149,mf_amp_cond2,3.0.4,60.02781982890186,
pullness,&&&&&&&&,right,nonword,,,,,,0,115,115,95,,,,,,,,,,,,,,,,,,,,,,,LDT,right,0.8505296303192154,1,,,right,1,0.8505296303192154,,,,,,,,,,,,,,,,,,,,1010,2019_Mar_06_1149,mf_amp_cond2,3.0.4,60.02781982890186,
elsewhere,&&&&&&&&&,left,neutral,,,,,,0,116,116,59,,,,,,,,,,,,,,,,,,,,,,,LDT,right,1.4839898535283282,0,,,right,0,1.4839898535283282,,,,,,,,,,,,,,,,,,,,1010,2019_Mar_06_1149,mf_amp_cond2,3.0.4,60.02781982890186,
amoungst,&&&&&&&&,left,neutral,,,,,,0,117,117,67,,,,,,,,,,,,,,,,,,,,,,,LDT,right,0.8505033309338614,0,,,right,0,0.8505033309338614,,,,,,,,,,,,,,,,,,,,1010,2019_Mar_06_1149,mf_amp_cond2,3.0.4,60.02781982890186,
myself,&&&&&&,left,neutral,,,,,,0,118,118,50,,,,,,,,,,,,,,,,,,,,,,,LDT,right,1.06718113203533,0,,,right,0,1.06718113203533,,,,,,,,,,,,,,,,,,,,1010,2019_Mar_06_1149,mf_amp_cond2,3.0.4,60.02781982890186,
further,&&&&&&&,left,neutral,,,,,,0,119,119,43,,,,,,,,,,,,,,,,,,,,,,,LDT,right,0.6837676547002047,0,,,right,0,0.6837676547002047,,,,,,,,,,,,,,,,,,,,1010,2019_Mar_06_1149,mf_amp_cond2,3.0.4,60.02781982890186,
proached,&&&&&&&&,right,nonword,,,,,,0,120,120,36,,,,,,,,,,,,,,,,,,,,,,,LDT,right,1.0172034065471962,1,,,right,1,1.0172034065471962,,,,,,,,,,,,,,,,,,,,1010,2019_Mar_06_1149,mf_amp_cond2,3.0.4,60.02781982890186,
itself,&&&&&&,left,neutral,,,,,,0,121,121,21,,,,,,,,,,,,,,,,,,,,,,,LDT,right,1.4339168723672628,0,,,right,0,1.4339168723672628,,,,,,,,,,,,,,,,,,,,1010,2019_Mar_06_1149,mf_amp_cond2,3.0.4,60.02781982890186,
although,&&&&&&&&,left,neutral,,,,,,0,122,122,151,,,,,,,,,,,,,,,,,,,,,,,LDT,left,1.0005189342191443,1,,,left,1,1.0005189342191443,,,,,,,,,,,,,,,,,,,,1010,2019_Mar_06_1149,mf_amp_cond2,3.0.4,60.02781982890186,
drumbled,&&&&&&&&,right,nonword,,,,,,0,123,123,53,,,,,,,,,,,,,,,,,,,,,,,LDT,right,0.567067434778437,1,,,right,1,0.567067434778437,,,,,,,,,,,,,,,,,,,,1010,2019_Mar_06_1149,mf_amp_cond2,3.0.4,60.02781982890186,
alar,&&&&,right,nonword,,,,,,0,124,124,65,,,,,,,,,,,,,,,,,,,,,,,LDT,right,0.6838205745443702,1,,,right,1,0.6838205745443702,,,,,,,,,,,,,,,,,,,,1010,2019_Mar_06_1149,mf_amp_cond2,3.0.4,60.02781982890186,
protesters,&&&&&&&&&&,left,authority.vice,,,,,,0,125,125,8,,,,,,,,,,,,,,,,,,,,,,,LDT,right,0.5670770566212013,0,,,right,0,0.5670770566212013,,,,,,,,,,,,,,,,,,,,1010,2019_Mar_06_1149,mf_amp_cond2,3.0.4,60.02781982890186,
nuckheap,&&&&&&&&,right,nonword,,,,,,0,126,126,122,,,,,,,,,,,,,,,,,,,,,,,LDT,left,0.6170846095774323,0,,,left,0,0.6170846095774323,,,,,,,,,,,,,,,,,,,,1010,2019_Mar_06_1149,mf_amp_cond2,3.0.4,60.02781982890186,
infet,&&&&&,right,nonword,,,,,,0,127,127,164,,,,,,,,,,,,,,,,,,,,,,,LDT,right,1.1172076080692932,1,,,right,1,1.1172076080692932,,,,,,,,,,,,,,,,,,,,1010,2019_Mar_06_1149,mf_amp_cond2,3.0.4,60.02781982890186,
sonvoy,&&&&&&,None,nonword,,,,,,0,128,128,25,,,,,,,,,,,,,,,,,,,,,,,LDT,right,1.3173224919009954,0,,,right,0,1.3173224919009954,,,,,,,,,,,,,,,,,,,,1010,2019_Mar_06_1149,mf_amp_cond2,3.0.4,60.02781982890186,
good,&&&&,left,care.virtue,,,,,,0,129,129,58,,,,,,,,,,,,,,,,,,,,,,,LDT,right,0.9671689124079421,0,,,right,0,0.9671689124079421,,,,,,,,,,,,,,,,,,,,1010,2019_Mar_06_1149,mf_amp_cond2,3.0.4,60.02781982890186,
fifteen,&&&&&&&,left,neutral,,,,,,0,130,130,48,,,,,,,,,,,,,,,,,,,,,,,LDT,right,0.9838562712538987,0,,,right,0,0.9838562712538987,,,,,,,,,,,,,,,,,,,,1010,2019_Mar_06_1149,mf_amp_cond2,3.0.4,60.02781982890186,
forced,&&&&&&,left,fairness.vice,,,,,,0,131,131,69,,,,,,,,,,,,,,,,,,,,,,,LDT,right,1.1339042678009719,0,,,right,0,1.1339042678009719,,,,,,,,,,,,,,,,,,,,1010,2019_Mar_06_1149,mf_amp_cond2,3.0.4,60.02781982890186,
eight,&&&&&,left,neutral,,,,,,0,132,132,96,,,,,,,,,,,,,,,,,,,,,,,LDT,right,0.8672352705616504,0,,,right,0,0.8672352705616504,,,,,,,,,,,,,,,,,,,,1010,2019_Mar_06_1149,mf_amp_cond2,3.0.4,60.02781982890186,
mightingale,&&&&&&&&&&&,right,nonword,,,,,,0,133,133,190,,,,,,,,,,,,,,,,,,,,,,,LDT,right,0.7836705069057643,1,,,right,1,0.7836705069057643,,,,,,,,,,,,,,,,,,,,1010,2019_Mar_06_1149,mf_amp_cond2,3.0.4,60.02781982890186,
scock,&&&&&,right,nonword,,,,,,0,134,134,47,,,,,,,,,,,,,,,,,,,,,,,LDT,right,0.8671570135047659,1,,,right,1,0.8671570135047659,,,,,,,,,,,,,,,,,,,,1010,2019_Mar_06_1149,mf_amp_cond2,3.0.4,60.02781982890186,
divility,&&&&&&&&,right,nonword,,,,,,0,135,135,20,,,,,,,,,,,,,,,,,,,,,,,LDT,right,0.8838164691114798,1,,,right,1,0.8838164691114798,,,,,,,,,,,,,,,,,,,,1010,2019_Mar_06_1149,mf_amp_cond2,3.0.4,60.02781982890186,
idexpressible,&&&&&&&&&&&&&,right,nonword,,,,,,0,136,136,163,,,,,,,,,,,,,,,,,,,,,,,LDT,right,1.3172852876596153,1,,,right,1,1.3172852876596153,,,,,,,,,,,,,,,,,,,,1010,2019_Mar_06_1149,mf_amp_cond2,3.0.4,60.02781982890186,
strong,&&&&&&,left,loyalty.virtue,,,,,,0,137,137,77,,,,,,,,,,,,,,,,,,,,,,,LDT,right,0.9505084946285933,0,,,right,0,0.9505084946285933,,,,,,,,,,,,,,,,,,,,1010,2019_Mar_06_1149,mf_amp_cond2,3.0.4,60.02781982890186,
fear,&&&&,left,sanctity.vice,,,,,,0,138,138,162,,,,,,,,,,,,,,,,,,,,,,,LDT,right,0.8337887104135007,0,,,right,0,0.8337887104135007,,,,,,,,,,,,,,,,,,,,1010,2019_Mar_06_1149,mf_amp_cond2,3.0.4,60.02781982890186,
shot,&&&&,left,care.vice,,,,,,0,139,139,75,,,,,,,,,,,,,,,,,,,,,,,LDT,right,0.8671550891594961,0,,,right,0,0.8671550891594961,,,,,,,,,,,,,,,,,,,,1010,2019_Mar_06_1149,mf_amp_cond2,3.0.4,60.02781982890186,
attacks,&&&&&&&,left,care.vice,,,,,,0,140,140,61,,,,,,,,,,,,,,,,,,,,,,,LDT,right,0.7504519827198237,0,,,right,0,0.7504519827198237,,,,,,,,,,,,,,,,,,,,1010,2019_Mar_06_1149,mf_amp_cond2,3.0.4,60.02781982890186,
sickyay,&&&&&&&,right,nonword,,,,,,0,141,141,147,,,,,,,,,,,,,,,,,,,,,,,LDT,right,0.7837680075317621,1,,,right,1,0.7837680075317621,,,,,,,,,,,,,,,,,,,,1010,2019_Mar_06_1149,mf_amp_cond2,3.0.4,60.02781982890186,
Boeinf,&&&&&&,right,nonword,,,,,,0,142,142,197,,,,,,,,,,,,,,,,,,,,,,,LDT,right,0.6670825410401449,1,,,right,1,0.6670825410401449,,,,,,,,,,,,,,,,,,,,1010,2019_Mar_06_1149,mf_amp_cond2,3.0.4,60.02781982890186,
whereafter,&&&&&&&&&&,left,neutral,,,,,,0,143,143,89,,,,,,,,,,,,,,,,,,,,,,,LDT,right,1.183909255079925,0,,,right,0,1.183909255079925,,,,,,,,,,,,,,,,,,,,1010,2019_Mar_06_1149,mf_amp_cond2,3.0.4,60.02781982890186,
allears,&&&&&&&,right,nonword,,,,,,0,144,144,189,,,,,,,,,,,,,,,,,,,,,,,LDT,right,0.9672070788219571,1,,,right,1,0.9672070788219571,,,,,,,,,,,,,,,,,,,,1010,2019_Mar_06_1149,mf_amp_cond2,3.0.4,60.02781982890186,
anyhow,&&&&&&,left,neutral,,,,,,0,145,145,168,,,,,,,,,,,,,,,,,,,,,,,LDT,right,0.8838241666089743,0,,,right,0,0.8838241666089743,,,,,,,,,,,,,,,,,,,,1010,2019_Mar_06_1149,mf_amp_cond2,3.0.4,60.02781982890186,
dumid,&&&&&,right,nonword,,,,,,0,146,146,11,,,,,,,,,,,,,,,,,,,,,,,LDT,right,1.5673477491363883,1,,,right,1,1.5673477491363883,,,,,,,,,,,,,,,,,,,,1010,2019_Mar_06_1149,mf_amp_cond2,3.0.4,60.02781982890186,
towards,&&&&&&&,left,neutral,,,,,,0,147,147,143,,,,,,,,,,,,,,,,,,,,,,,LDT,right,0.9838399142026901,0,,,right,0,0.9838399142026901,,,,,,,,,,,,,,,,,,,,1010,2019_Mar_06_1149,mf_amp_cond2,3.0.4,60.02781982890186,
letish,&&&&&&,right,nonword,,,,,,0,148,148,139,,,,,,,,,,,,,,,,,,,,,,,LDT,left,0.6336225103586912,0,,,left,0,0.6336225103586912,,,,,,,,,,,,,,,,,,,,1010,2019_Mar_06_1149,mf_amp_cond2,3.0.4,60.02781982890186,
Daptist,&&&&&&&,right,nonword,,,,,,0,149,149,40,,,,,,,,,,,,,,,,,,,,,,,LDT,right,0.9505011178553104,1,,,right,1,0.9505011178553104,,,,,,,,,,,,,,,,,,,,1010,2019_Mar_06_1149,mf_amp_cond2,3.0.4,60.02781982890186,
gondensed,&&&&&&&&&,right,nonword,,,,,,0,150,150,133,,,,,,,,,,,,,,,,,,,,,,,LDT,left,1.7673869418213144,0,,,left,0,1.7673869418213144,,,,,,,,,,,,,,,,,,,,1010,2019_Mar_06_1149,mf_amp_cond2,3.0.4,60.02781982890186,
hasks,&&&&&,right,nonword,,,,,,0,151,151,63,,,,,,,,,,,,,,,,,,,,,,,LDT,right,0.6170887791085988,1,,,right,1,0.6170887791085988,,,,,,,,,,,,,,,,,,,,1010,2019_Mar_06_1149,mf_amp_cond2,3.0.4,60.02781982890186,
increase,&&&&&&&&,left,care.virtue,,,,,,0,152,152,131,,,,,,,,,,,,,,,,,,,,,,,LDT,left,0.8504763899836689,1,,,left,1,0.8504763899836689,,,,,,,,,,,,,,,,,,,,1010,2019_Mar_06_1149,mf_amp_cond2,3.0.4,60.02781982890186,
injured,&&&&&&&,left,care.vice,,,,,,0,153,153,175,,,,,,,,,,,,,,,,,,,,,,,LDT,right,0.867156051332131,0,,,right,0,0.867156051332131,,,,,,,,,,,,,,,,,,,,1010,2019_Mar_06_1149,mf_amp_cond2,3.0.4,60.02781982890186,
gournful,&&&&&&&&,right,nonword,,,,,,0,154,154,70,,,,,,,,,,,,,,,,,,,,,,,LDT,right,0.733753077685833,1,,,right,1,0.733753077685833,,,,,,,,,,,,,,,,,,,,1010,2019_Mar_06_1149,mf_amp_cond2,3.0.4,60.02781982890186,
seachwear,&&&&&&&&&,right,nonword,,,,,,0,155,155,92,,,,,,,,,,,,,,,,,,,,,,,LDT,right,0.7171199215808883,1,,,right,1,0.7171199215808883,,,,,,,,,,,,,,,,,,,,1010,2019_Mar_06_1149,mf_amp_cond2,3.0.4,60.02781982890186,
chadows,&&&&&&&,right,nonword,,,,,,0,156,156,54,,,,,,,,,,,,,,,,,,,,,,,LDT,right,1.0004948797868565,1,,,right,1,1.0004948797868565,,,,,,,,,,,,,,,,,,,,1010,2019_Mar_06_1149,mf_amp_cond2,3.0.4,60.02781982890186,
gillipede,&&&&&&&&&,None,nonword,,,,,,0,157,157,41,,,,,,,,,,,,,,,,,,,,,,,LDT,right,1.0671894709812477,0,,,right,0,1.0671894709812477,,,,,,,,,,,,,,,,,,,,1010,2019_Mar_06_1149,mf_amp_cond2,3.0.4,60.02781982890186,
could,&&&&&,left,neutral,,,,,,0,158,158,160,,,,,,,,,,,,,,,,,,,,,,,LDT,right,0.9505004764068872,0,,,right,0,0.9505004764068872,,,,,,,,,,,,,,,,,,,,1010,2019_Mar_06_1149,mf_amp_cond2,3.0.4,60.02781982890186,
lorthwhile,&&&&&&&&&&,right,nonword,,,,,,0,159,159,7,,,,,,,,,,,,,,,,,,,,,,,LDT,right,1.3506093306932598,1,,,right,1,1.3506093306932598,,,,,,,,,,,,,,,,,,,,1010,2019_Mar_06_1149,mf_amp_cond2,3.0.4,60.02781982890186,
rivernoat,&&&&&&&&&,right,nonword,,,,,,0,160,160,174,,,,,,,,,,,,,,,,,,,,,,,LDT,right,1.133930888143368,1,,,right,1,1.133930888143368,,,,,,,,,,,,,,,,,,,,1010,2019_Mar_06_1149,mf_amp_cond2,3.0.4,60.02781982890186,
sliptery,&&&&&&&&,right,nonword,,,,,,0,161,161,72,,,,,,,,,,,,,,,,,,,,,,,LDT,right,1.1504938054131344,1,,,right,1,1.1504938054131344,,,,,,,,,,,,,,,,,,,,1010,2019_Mar_06_1149,mf_amp_cond2,3.0.4,60.02781982890186,
pistraught,&&&&&&&&&&,right,nonword,,,,,,0,162,162,12,,,,,,,,,,,,,,,,,,,,,,,LDT,right,0.8671477125026286,1,,,right,1,0.8671477125026286,,,,,,,,,,,,,,,,,,,,1010,2019_Mar_06_1149,mf_amp_cond2,3.0.4,60.02781982890186,
noone,&&&&&,left,neutral,,,,,,0,163,163,5,,,,,,,,,,,,,,,,,,,,,,,LDT,right,1.9342047236859798,0,,,right,0,1.9342047236859798,,,,,,,,,,,,,,,,,,,,1010,2019_Mar_06_1149,mf_amp_cond2,3.0.4,60.02781982890186,
glacenta,&&&&&&&&,right,nonword,,,,,,0,164,164,193,,,,,,,,,,,,,,,,,,,,,,,LDT,right,0.867146429605782,1,,,right,1,0.867146429605782,,,,,,,,,,,,,,,,,,,,1010,2019_Mar_06_1149,mf_amp_cond2,3.0.4,60.02781982890186,
even,&&&&,left,neutral,,,,,,0,165,165,102,,,,,,,,,,,,,,,,,,,,,,,LDT,left,0.8671496368478984,1,,,left,1,0.8671496368478984,,,,,,,,,,,,,,,,,,,,1010,2019_Mar_06_1149,mf_amp_cond2,3.0.4,60.02781982890186,
ronviolence,&&&&&&&&&&&,right,nonword,,,,,,0,166,166,195,,,,,,,,,,,,,,,,,,,,,,,LDT,right,0.5504121485864744,1,,,right,1,0.5504121485864744,,,,,,,,,,,,,,,,,,,,1010,2019_Mar_06_1149,mf_amp_cond2,3.0.4,60.02781982890186,
love,&&&&,left,loyalty.virtue,,,,,,0,167,167,9,,,,,,,,,,,,,,,,,,,,,,,LDT,right,0.7504452475113794,0,,,right,0,0.7504452475113794,,,,,,,,,,,,,,,,,,,,1010,2019_Mar_06_1149,mf_amp_cond2,3.0.4,60.02781982890186,
troops,&&&&&&,left,loyalty.vice,,,,,,0,168,168,198,,,,,,,,,,,,,,,,,,,,,,,LDT,right,0.8504933883668855,0,,,right,0,0.8504933883668855,,,,,,,,,,,,,,,,,,,,1010,2019_Mar_06_1149,mf_amp_cond2,3.0.4,60.02781982890186,
uller,&&&&&,right,nonword,,,,,,0,169,169,138,,,,,,,,,,,,,,,,,,,,,,,LDT,right,0.8838321847142652,1,,,right,1,0.8838321847142652,,,,,,,,,,,,,,,,,,,,1010,2019_Mar_06_1149,mf_amp_cond2,3.0.4,60.02781982890186,
agreement,&&&&&&&&&,left,fairness.virtue,,,,,,0,170,170,150,,,,,,,,,,,,,,,,,,,,,,,LDT,right,0.9671724404906854,0,,,right,0,0.9671724404906854,,,,,,,,,,,,,,,,,,,,1010,2019_Mar_06_1149,mf_amp_cond2,3.0.4,60.02781982890186,
Lacedonia,&&&&&&&&&,right,nonword,,,,,,0,171,171,60,,,,,,,,,,,,,,,,,,,,,,,LDT,right,0.9005288446787745,1,,,right,1,0.9005288446787745,,,,,,,,,,,,,,,,,,,,1010,2019_Mar_06_1149,mf_amp_cond2,3.0.4,60.02781982890186,
hand,&&&&,left,sanctity.virtue,,,,,,0,172,172,42,,,,,,,,,,,,,,,,,,,,,,,LDT,right,0.717144938185811,0,,,right,0,0.717144938185811,,,,,,,,,,,,,,,,,,,,1010,2019_Mar_06_1149,mf_amp_cond2,3.0.4,60.02781982890186,
coom,&&&&,right,nonword,,,,,,0,173,173,113,,,,,,,,,,,,,,,,,,,,,,,LDT,right,0.6337610639166087,1,,,right,1,0.6337610639166087,,,,,,,,,,,,,,,,,,,,1010,2019_Mar_06_1149,mf_amp_cond2,3.0.4,60.02781982890186,
hescribe,&&&&&&&&,right,nonword,,,,,,0,174,174,142,,,,,,,,,,,,,,,,,,,,,,,LDT,right,0.6837795216124505,1,,,right,1,0.6837795216124505,,,,,,,,,,,,,,,,,,,,1010,2019_Mar_06_1149,mf_amp_cond2,3.0.4,60.02781982890186,
menizen,&&&&&&&,None,nonword,,,,,,0,175,175,178,,,,,,,,,,,,,,,,,,,,,,,LDT,right,0.8171353484503925,0,,,right,0,0.8171353484503925,,,,,,,,,,,,,,,,,,,,1010,2019_Mar_06_1149,mf_amp_cond2,3.0.4,60.02781982890186,
mih,&&&,right,nonword,,,,,,0,176,176,57,,,,,,,,,,,,,,,,,,,,,,,LDT,right,0.8671448259847239,1,,,right,1,0.8671448259847239,,,,,,,,,,,,,,,,,,,,1010,2019_Mar_06_1149,mf_amp_cond2,3.0.4,60.02781982890186,
tove,&&&&,right,nonword,,,,,,0,177,177,27,,,,,,,,,,,,,,,,,,,,,,,LDT,right,0.900495489127934,1,,,right,1,0.900495489127934,,,,,,,,,,,,,,,,,,,,1010,2019_Mar_06_1149,mf_amp_cond2,3.0.4,60.02781982890186,
encourage,&&&&&&&&&,left,authority.virtue,,,,,,0,178,178,100,,,,,,,,,,,,,,,,,,,,,,,LDT,right,0.9671628186479211,0,,,right,0,0.9671628186479211,,,,,,,,,,,,,,,,,,,,1010,2019_Mar_06_1149,mf_amp_cond2,3.0.4,60.02781982890186,
gusinesslike,&&&&&&&&&&&&,right,nonword,,,,,,0,179,179,0,,,,,,,,,,,,,,,,,,,,,,,LDT,right,1.2005783325294033,1,,,right,1,1.2005783325294033,,,,,,,,,,,,,,,,,,,,1010,2019_Mar_06_1149,mf_amp_cond2,3.0.4,60.02781982890186,
front,&&&&&,left,neutral,,,,,,0,180,180,135,,,,,,,,,,,,,,,,,,,,,,,LDT,right,0.7004453918198124,0,,,right,0,0.7004453918198124,,,,,,,,,,,,,,,,,,,,1010,2019_Mar_06_1149,mf_amp_cond2,3.0.4,60.02781982890186,
promote,&&&&&&&,left,sanctity.virtue,,,,,,0,181,181,166,,,,,,,,,,,,,,,,,,,,,,,LDT,right,1.4006165630416945,0,,,right,0,1.4006165630416945,,,,,,,,,,,,,,,,,,,,1010,2019_Mar_06_1149,mf_amp_cond2,3.0.4,60.02781982890186,
unscothed,&&&&&&&&&,right,nonword,,,,,,0,182,182,24,,,,,,,,,,,,,,,,,,,,,,,LDT,right,0.8337832581019029,1,,,right,1,0.8337832581019029,,,,,,,,,,,,,,,,,,,,1010,2019_Mar_06_1149,mf_amp_cond2,3.0.4,60.02781982890186,
besides,&&&&&&&,left,neutral,,,,,,0,183,183,81,,,,,,,,,,,,,,,,,,,,,,,LDT,right,0.6170435567619279,0,,,right,0,0.6170435567619279,,,,,,,,,,,,,,,,,,,,1010,2019_Mar_06_1149,mf_amp_cond2,3.0.4,60.02781982890186,
neneficence,&&&&&&&&&&&,right,nonword,,,,,,0,184,184,110,,,,,,,,,,,,,,,,,,,,,,,LDT,right,1.0005234243581071,1,,,right,1,1.0005234243581071,,,,,,,,,,,,,,,,,,,,1010,2019_Mar_06_1149,mf_amp_cond2,3.0.4,60.02781982890186,
honstables,&&&&&&&&&&,right,nonword,,,,,,0,185,185,170,,,,,,,,,,,,,,,,,,,,,,,LDT,right,1.6840470067691058,1,,,right,1,1.6840470067691058,,,,,,,,,,,,,,,,,,,,1010,2019_Mar_06_1149,mf_amp_cond2,3.0.4,60.02781982890186,
either,&&&&&&,left,neutral,,,,,,0,186,186,118,,,,,,,,,,,,,,,,,,,,,,,LDT,right,1.6173758286749944,0,,,right,0,1.6173758286749944,,,,,,,,,,,,,,,,,,,,1010,2019_Mar_06_1149,mf_amp_cond2,3.0.4,60.02781982890186,
nomaric,&&&&&&&,None,nonword,,,,,,0,187,187,183,,,,,,,,,,,,,,,,,,,,,,,LDT,right,1.6840277631999925,0,,,right,0,1.6840277631999925,,,,,,,,,,,,,,,,,,,,1010,2019_Mar_06_1149,mf_amp_cond2,3.0.4,60.02781982890186,
support,&&&&&&&,left,loyalty.virtue,,,,,,0,188,188,14,,,,,,,,,,,,,,,,,,,,,,,LDT,right,0.8504728619009256,0,,,right,0,0.8504728619009256,,,,,,,,,,,,,,,,,,,,1010,2019_Mar_06_1149,mf_amp_cond2,3.0.4,60.02781982890186,
lenon,&&&&&,right,nonword,,,,,,0,189,189,1,,,,,,,,,,,,,,,,,,,,,,,LDT,right,1.450646246317774,1,,,right,1,1.450646246317774,,,,,,,,,,,,,,,,,,,,1010,2019_Mar_06_1149,mf_amp_cond2,3.0.4,60.02781982890186,
army,&&&&,left,loyalty.vice,,,,,,0,190,190,13,,,,,,,,,,,,,,,,,,,,,,,LDT,right,0.7837429910432547,0,,,right,0,0.7837429910432547,,,,,,,,,,,,,,,,,,,,1010,2019_Mar_06_1149,mf_amp_cond2,3.0.4,60.02781982890186,
hereby,&&&&&&,left,neutral,,,,,,0,191,191,146,,,,,,,,,,,,,,,,,,,,,,,LDT,right,0.7004376943223178,0,,,right,0,0.7004376943223178,,,,,,,,,,,,,,,,,,,,1010,2019_Mar_06_1149,mf_amp_cond2,3.0.4,60.02781982890186,
imebreaker,&&&&&&&&&&,right,nonword,,,,,,0,192,192,3,,,,,,,,,,,,,,,,,,,,,,,LDT,right,0.7337796980282292,1,,,right,1,0.7337796980282292,,,,,,,,,,,,,,,,,,,,1010,2019_Mar_06_1149,mf_amp_cond2,3.0.4,60.02781982890186,
carvels,&&&&&&&,None,nonword,,,,,,0,193,193,128,,,,,,,,,,,,,,,,,,,,,,,LDT,right,0.7171102998545393,0,,,right,0,0.7171102998545393,,,,,,,,,,,,,,,,,,,,1010,2019_Mar_06_1149,mf_amp_cond2,3.0.4,60.02781982890186,
viscs,&&&&&,None,nonword,,,,,,0,194,194,103,,,,,,,,,,,,,,,,,,,,,,,LDT,right,0.7671245881356299,0,,,right,0,0.7671245881356299,,,,,,,,,,,,,,,,,,,,1010,2019_Mar_06_1149,mf_amp_cond2,3.0.4,60.02781982890186,
framatic,&&&&&&&&,right,nonword,,,,,,0,195,195,173,,,,,,,,,,,,,,,,,,,,,,,LDT,right,0.6504327070433646,1,,,right,1,0.6504327070433646,,,,,,,,,,,,,,,,,,,,1010,2019_Mar_06_1149,mf_amp_cond2,3.0.4,60.02781982890186,
lempestuous,&&&&&&&&&&&,right,nonword,,,,,,0,196,196,4,,,,,,,,,,,,,,,,,,,,,,,LDT,left,1.5673307506367564,0,,,left,0,1.5673307506367564,,,,,,,,,,,,,,,,,,,,1010,2019_Mar_06_1149,mf_amp_cond2,3.0.4,60.02781982890186,
thadowed,&&&&&&&&,right,nonword,,,,,,0,197,197,161,,,,,,,,,,,,,,,,,,,,,,,LDT,left,2.7009476482635364,0,,,left,0,2.7009476482635364,,,,,,,,,,,,,,,,,,,,1010,2019_Mar_06_1149,mf_amp_cond2,3.0.4,60.02781982890186,
latter,&&&&&&,left,neutral,,,,,,0,198,198,180,,,,,,,,,,,,,,,,,,,,,,,LDT,right,0.800433877739124,0,,,right,0,0.800433877739124,,,,,,,,,,,,,,,,,,,,1010,2019_Mar_06_1149,mf_amp_cond2,3.0.4,60.02781982890186,
else,&&&&,left,neutral,,,,,,0,199,199,130,,,,,,,,,,,,,,,,,,,,,,,LDT,right,0.7504474924644455,0,,,right,0,0.7504474924644455,,,,,,,,,,,,,,,,,,,,1010,2019_Mar_06_1149,mf_amp_cond2,3.0.4,60.02781982890186,
,,,,,,,,,,,,,,,,,,,,,,,,,,,,,,,,,,,,,,,,,,,,4,13.156,,,,,,,,,,,,,,,,,,1010,2019_Mar_06_1149,mf_amp_cond2,3.0.4,60.02781982890186,
,,,,,,,,,,,,,,,,,,,,,,,,,,,,,,,,,,,,,,,,,,,,,,right,1.901024365797639,,,,,,,,,,,,,,,,1010,2019_Mar_06_1149,mf_amp_cond2,3.0.4,60.02781982890186,
scarf,&&&&&&&&,,,bisebell,,,,,,,,,0,0,0,3,,,,,,,,,,,,,,,,,,,AMP_prac,left,2.9677035622298717,,,,,,,,,,,left,2.9677035622298717,,,,,,,,,,,,,,1010,2019_Mar_06_1149,mf_amp_cond2,3.0.4,60.02781982890186,
keyboard,&&&&,,,senk,,,,,,,,,0,1,1,2,,,,,,,,,,,,,,,,,,,AMP_prac,right,1.0171527317725122,,,,,,,,,,,right,1.0171527317725122,,,,,,,,,,,,,,1010,2019_Mar_06_1149,mf_amp_cond2,3.0.4,60.02781982890186,
car,&&&&&&&&,,,cemtuper,,,,,,,,,0,2,2,0,,,,,,,,,,,,,,,,,,,AMP_prac,right,1.0338779363082722,,,,,,,,,,,right,1.0338779363082722,,,,,,,,,,,,,,1010,2019_Mar_06_1149,mf_amp_cond2,3.0.4,60.02781982890186,
banana,&&&&&&,,,kacket,,,,,,,,,0,3,3,1,,,,,,,,,,,,,,,,,,,AMP_prac,right,0.9171716225100681,,,,,,,,,,,right,0.9171716225100681,,,,,,,,,,,,,,1010,2019_Mar_06_1149,mf_amp_cond2,3.0.4,60.02781982890186,
,,,,,,,,,,,,,,,,,,,,,,,,,,,,,,,,,,,,,,,,,,,,,,,,,,right,2.1175132596399635,,,,,,,,,,,,1010,2019_Mar_06_1149,mf_amp_cond2,3.0.4,60.02781982890186,
groups,&&&&&&&&&&,right,loyalty.vice,galamitous,,,,,,,,,,,,,0,0,0,49,,,,,,,,,,,,,,,AMP,right,1.3672998968977481,1,,,,,,,,,,,,,,right,1,1.3672998968977481,,,,,,,,,1010,2019_Mar_06_1149,mf_amp_cond2,3.0.4,60.02781982890186,
serial,&&&&&&&&&&,right,sanctity.vice,frojecting,,,,,,,,,,,,,0,1,1,93,,,,,,,,,,,,,,,AMP,left,0.9338532083202153,0,,,,,,,,,,,,,,left,0,0.9338532083202153,,,,,,,,,1010,2019_Mar_06_1149,mf_amp_cond2,3.0.4,60.02781982890186,
promised,&&&&&&&&&,left,loyalty.virtue,disregord,,,,,,,,,,,,,0,2,2,228,,,,,,,,,,,,,,,AMP,left,1.0672180155524984,1,,,,,,,,,,,,,,left,1,1.0672180155524984,,,,,,,,,1010,2019_Mar_06_1149,mf_amp_cond2,3.0.4,60.02781982890186,
drug,&&&&&&&&,right,sanctity.vice,slending,,,,,,,,,,,,,0,3,3,226,,,,,,,,,,,,,,,AMP,left,0.9505219650454819,0,,,,,,,,,,,,,,left,0,0.9505219650454819,,,,,,,,,1010,2019_Mar_06_1149,mf_amp_cond2,3.0.4,60.02781982890186,
torture,&&&&&&&&,right,care.vice,perified,,,,,,,,,,,,,0,4,4,202,,,,,,,,,,,,,,,AMP,left,0.43372251268010587,0,,,,,,,,,,,,,,left,0,0.43372251268010587,,,,,,,,,1010,2019_Mar_06_1149,mf_amp_cond2,3.0.4,60.02781982890186,
promised,&&&&&&&,left,loyalty.virtue,smapper,,,,,,,,,,,,,0,5,5,79,,,,,,,,,,,,,,,AMP,left,0.5837910356931388,1,,,,,,,,,,,,,,left,1,0.5837910356931388,,,,,,,,,1010,2019_Mar_06_1149,mf_amp_cond2,3.0.4,60.02781982890186,
hate,&&&&&&&&,right,fairness.vice,ebbitter,,,,,,,,,,,,,0,6,6,1,,,,,,,,,,,,,,,AMP,left,0.35036140982992947,0,,,,,,,,,,,,,,left,0,0.35036140982992947,,,,,,,,,1010,2019_Mar_06_1149,mf_amp_cond2,3.0.4,60.02781982890186,
suicide,&&&,right,care.vice,oam,,,,,,,,,,,,,0,7,7,240,,,,,,,,,,,,,,,AMP,left,0.4670186524745077,0,,,,,,,,,,,,,,left,0,0.4670186524745077,,,,,,,,,1010,2019_Mar_06_1149,mf_amp_cond2,3.0.4,60.02781982890186,
violations,&&&&&&&,right,sanctity.vice,Loorish,,,,,,,,,,,,,0,8,8,161,,,,,,,,,,,,,,,AMP,left,0.48373327287845314,0,,,,,,,,,,,,,,left,0,0.48373327287845314,,,,,,,,,1010,2019_Mar_06_1149,mf_amp_cond2,3.0.4,60.02781982890186,
yane,&&&&&&&,None,nonword,baklara,,,,,,,,,,,,,0,9,9,244,,,,,,,,,,,,,,,AMP,left,1.0672266752226278,0,,,,,,,,,,,,,,left,0,1.0672266752226278,,,,,,,,,1010,2019_Mar_06_1149,mf_amp_cond2,3.0.4,60.02781982890186,
credit,&&&&&,left,fairness.virtue,ablow,,,,,,,,,,,,,0,10,10,86,,,,,,,,,,,,,,,AMP,left,0.7171208837535232,1,,,,,,,,,,,,,,left,1,0.7171208837535232,,,,,,,,,1010,2019_Mar_06_1149,mf_amp_cond2,3.0.4,60.02781982890186,
promises,&&&&&&,left,fairness.virtue,openet,,,,,,,,,,,,,0,11,11,100,,,,,,,,,,,,,,,AMP,right,0.45036464906297624,0,,,,,,,,,,,,,,right,0,0.45036464906297624,,,,,,,,,1010,2019_Mar_06_1149,mf_amp_cond2,3.0.4,60.02781982890186,
arrests,&&&&&&&&&&&&,right,authority.vice,unreflectuve,,,,,,,,,,,,,0,12,12,106,,,,,,,,,,,,,,,AMP,left,0.7503929691156372,0,,,,,,,,,,,,,,left,0,0.7503929691156372,,,,,,,,,1010,2019_Mar_06_1149,mf_amp_cond2,3.0.4,60.02781982890186,
suicide,&&&&&,right,care.vice,aubos,,,,,,,,,,,,,0,13,13,308,,,,,,,,,,,,,,,AMP,left,0.35041400871705264,0,,,,,,,,,,,,,,left,0,0.35041400871705264,,,,,,,,,1010,2019_Mar_06_1149,mf_amp_cond2,3.0.4,60.02781982890186,
lies,&&&&&&&&&&&,right,fairness.vice,egpeditious,,,,,,,,,,,,,0,14,14,291,,,,,,,,,,,,,,,AMP,left,0.48374738497659564,0,,,,,,,,,,,,,,left,0,0.48374738497659564,,,,,,,,,1010,2019_Mar_06_1149,mf_amp_cond2,3.0.4,60.02781982890186,
fighters,&&&&&,right,authority.vice,tabin,,,,,,,,,,,,,0,15,15,232,,,,,,,,,,,,,,,AMP,right,0.8671576549531892,1,,,,,,,,,,,,,,right,1,0.8671576549531892,,,,,,,,,1010,2019_Mar_06_1149,mf_amp_cond2,3.0.4,60.02781982890186,
vicissifude,&&&&&&&&,None,nonword,thabbily,,,,,,,,,,,,,0,16,16,90,,,,,,,,,,,,,,,AMP,left,0.4670247462345287,0,,,,,,,,,,,,,,left,0,0.4670247462345287,,,,,,,,,1010,2019_Mar_06_1149,mf_amp_cond2,3.0.4,60.02781982890186,
critics,&&&&&&&,right,loyalty.vice,dramens,,,,,,,,,,,,,0,17,17,323,,,,,,,,,,,,,,,AMP,left,0.8671653523342684,0,,,,,,,,,,,,,,left,0,0.8671653523342684,,,,,,,,,1010,2019_Mar_06_1149,mf_amp_cond2,3.0.4,60.02781982890186,
police,&&&&&&,right,authority.vice,sgrawl,,,,,,,,,,,,,0,18,18,324,,,,,,,,,,,,,,,AMP,right,0.6170711391605437,1,,,,,,,,,,,,,,right,1,0.6170711391605437,,,,,,,,,1010,2019_Mar_06_1149,mf_amp_cond2,3.0.4,60.02781982890186,
lachelor,&&&&&&&,None,nonword,nackers,,,,,,,,,,,,,0,19,19,73,,,,,,,,,,,,,,,AMP,left,0.6504057660931721,0,,,,,,,,,,,,,,left,0,0.6504057660931721,,,,,,,,,1010,2019_Mar_06_1149,mf_amp_cond2,3.0.4,60.02781982890186,
compassion,&&&&&&&&&&,left,care.virtue,chonograph,,,,,,,,,,,,,0,20,20,170,,,,,,,,,,,,,,,AMP,left,0.5670725664822385,1,,,,,,,,,,,,,,left,1,0.5670725664822385,,,,,,,,,1010,2019_Mar_06_1149,mf_amp_cond2,3.0.4,60.02781982890186,
scandal,&&&&&&,right,sanctity.vice,pumber,,,,,,,,,,,,,0,21,21,129,,,,,,,,,,,,,,,AMP,left,0.933859622804448,0,,,,,,,,,,,,,,left,0,0.933859622804448,,,,,,,,,1010,2019_Mar_06_1149,mf_amp_cond2,3.0.4,60.02781982890186,
compassion,&&&&&,left,care.virtue,pafer,,,,,,,,,,,,,0,22,22,38,,,,,,,,,,,,,,,AMP,right,0.6504262926755473,0,,,,,,,,,,,,,,right,0,0.6504262926755473,,,,,,,,,1010,2019_Mar_06_1149,mf_amp_cond2,3.0.4,60.02781982890186,
emassion,&&&&&,None,nonword,framo,,,,,,,,,,,,,0,23,23,101,,,,,,,,,,,,,,,AMP,left,0.6504846645984799,0,,,,,,,,,,,,,,left,0,0.6504846645984799,,,,,,,,,1010,2019_Mar_06_1149,mf_amp_cond2,3.0.4,60.02781982890186,
strength,&&&&&&&&&&&&,left,sanctity.virtue,iptervention,,,,,,,,,,,,,0,24,24,149,,,,,,,,,,,,,,,AMP,right,0.45040955068543553,0,,,,,,,,,,,,,,right,0,0.45040955068543553,,,,,,,,,1010,2019_Mar_06_1149,mf_amp_cond2,3.0.4,60.02781982890186,
great,&&&&&&&&&&,left,loyalty.virtue,ejanulated,,,,,,,,,,,,,0,25,25,58,,,,,,,,,,,,,,,AMP,right,0.35038225702010095,0,,,,,,,,,,,,,,right,0,0.35038225702010095,,,,,,,,,1010,2019_Mar_06_1149,mf_amp_cond2,3.0.4,60.02781982890186,
care,&&&&&&&&&&&&,left,care.virtue,feleological,,,,,,,,,,,,,0,26,26,123,,,,,,,,,,,,,,,AMP,right,0.3003641199320555,0,,,,,,,,,,,,,,right,0,0.3003641199320555,,,,,,,,,1010,2019_Mar_06_1149,mf_amp_cond2,3.0.4,60.02781982890186,
fontacts,&&&&&&,None,nonword,Cunday,,,,,,,,,,,,,0,27,27,179,,,,,,,,,,,,,,,AMP,right,0.7504420402692631,0,,,,,,,,,,,,,,right,0,0.7504420402692631,,,,,,,,,1010,2019_Mar_06_1149,mf_amp_cond2,3.0.4,60.02781982890186,
pleasant,&&&&&&&&&&,None,control,clattening,,,,,,,,,,,,,0,28,28,209,,,,,,,,,,,,,,,AMP,right,0.31701299163978547,0,,,,,,,,,,,,,,right,0,0.31701299163978547,,,,,,,,,1010,2019_Mar_06_1149,mf_amp_cond2,3.0.4,60.02781982890186,
police,&&&&&&&&&&&,right,authority.vice,presentkess,,,,,,,,,,,,,0,29,29,241,,,,,,,,,,,,,,,AMP,right,0.48375604453030974,1,,,,,,,,,,,,,,right,1,0.48375604453030974,,,,,,,,,1010,2019_Mar_06_1149,mf_amp_cond2,3.0.4,60.02781982890186,
trust,&&&&&&,left,authority.virtue,prones,,,,,,,,,,,,,0,30,30,110,,,,,,,,,,,,,,,AMP,right,0.3337548738345504,0,,,,,,,,,,,,,,right,0,0.3337548738345504,,,,,,,,,1010,2019_Mar_06_1149,mf_amp_cond2,3.0.4,60.02781982890186,
free,&&&&&&,left,fairness.virtue,openet,,,,,,,,,,,,,0,31,31,32,,,,,,,,,,,,,,,AMP,right,0.4170078920433298,0,,,,,,,,,,,,,,right,0,0.4170078920433298,,,,,,,,,1010,2019_Mar_06_1149,mf_amp_cond2,3.0.4,60.02781982890186,
energy,&&&&&&&,left,sanctity.virtue,hatigue,,,,,,,,,,,,,0,32,32,37,,,,,,,,,,,,,,,AMP,right,0.6504750428721309,0,,,,,,,,,,,,,,right,0,0.6504750428721309,,,,,,,,,1010,2019_Mar_06_1149,mf_amp_cond2,3.0.4,60.02781982890186,
gun,&&&&&&&&&&&,right,authority.vice,nomparisons,,,,,,,,,,,,,0,33,33,26,,,,,,,,,,,,,,,AMP,left,0.45031782321166247,0,,,,,,,,,,,,,,left,0,0.45031782321166247,,,,,,,,,1010,2019_Mar_06_1149,mf_amp_cond2,3.0.4,60.02781982890186,
hope,&&&&&&&&&,left,loyalty.virtue,brotesque,,,,,,,,,,,,,0,34,34,59,,,,,,,,,,,,,,,AMP,right,0.46704591414891183,0,,,,,,,,,,,,,,right,0,0.46704591414891183,,,,,,,,,1010,2019_Mar_06_1149,mf_amp_cond2,3.0.4,60.02781982890186,
promises,&&&&&&&&&,left,fairness.virtue,discovars,,,,,,,,,,,,,0,35,35,239,,,,,,,,,,,,,,,AMP,right,0.4837165952194482,0,,,,,,,,,,,,,,right,0,0.4837165952194482,,,,,,,,,1010,2019_Mar_06_1149,mf_amp_cond2,3.0.4,60.02781982890186,
protect,&&&&&&&&&&&&,left,fairness.virtue,feleological,,,,,,,,,,,,,0,36,36,217,,,,,,,,,,,,,,,AMP,right,0.35035948548465967,0,,,,,,,,,,,,,,right,0,0.35035948548465967,,,,,,,,,1010,2019_Mar_06_1149,mf_amp_cond2,3.0.4,60.02781982890186,
energy,&&&&,left,sanctity.virtue,erks,,,,,,,,,,,,,0,37,37,199,,,,,,,,,,,,,,,AMP,right,0.500396577292122,0,,,,,,,,,,,,,,right,0,0.500396577292122,,,,,,,,,1010,2019_Mar_06_1149,mf_amp_cond2,3.0.4,60.02781982890186,
conspiracy,&&&&&&&&,right,sanctity.vice,tracious,,,,,,,,,,,,,0,38,38,172,,,,,,,,,,,,,,,AMP,left,0.6671114063356072,0,,,,,,,,,,,,,,left,0,0.6671114063356072,,,,,,,,,1010,2019_Mar_06_1149,mf_amp_cond2,3.0.4,60.02781982890186,
lachelor,&&&&&&&,None,nonword,smapper,,,,,,,,,,,,,0,39,39,85,,,,,,,,,,,,,,,AMP,right,0.5170913129113615,0,,,,,,,,,,,,,,right,0,0.5170913129113615,,,,,,,,,1010,2019_Mar_06_1149,mf_amp_cond2,3.0.4,60.02781982890186,
blamed,&&&&&&&&&&&,right,loyalty.vice,sowntrodden,,,,,,,,,,,,,0,40,40,156,,,,,,,,,,,,,,,AMP,right,0.4170396439731121,1,,,,,,,,,,,,,,right,1,0.4170396439731121,,,,,,,,,1010,2019_Mar_06_1149,mf_amp_cond2,3.0.4,60.02781982890186,
honored,&&&&&&&&&,left,authority.virtue,gandbrake,,,,,,,,,,,,,0,41,41,13,,,,,,,,,,,,,,,AMP,right,0.4670372544787824,0,,,,,,,,,,,,,,right,0,0.4670372544787824,,,,,,,,,1010,2019_Mar_06_1149,mf_amp_cond2,3.0.4,60.02781982890186,
laming,&&&&&&&,None,nonword,emports,,,,,,,,,,,,,0,42,42,320,,,,,,,,,,,,,,,AMP,left,1.1339106824016199,0,,,,,,,,,,,,,,left,0,1.1339106824016199,,,,,,,,,1010,2019_Mar_06_1149,mf_amp_cond2,3.0.4,60.02781982890186,
troubla,&&&&&&&&&&,None,nonword,gationwide,,,,,,,,,,,,,0,43,43,203,,,,,,,,,,,,,,,AMP,left,0.3336945773335174,0,,,,,,,,,,,,,,left,0,0.3336945773335174,,,,,,,,,1010,2019_Mar_06_1149,mf_amp_cond2,3.0.4,60.02781982890186,
scandal,&&&&&&&&,right,sanctity.vice,sidearbs,,,,,,,,,,,,,0,44,44,165,,,,,,,,,,,,,,,AMP,left,0.9671849486185238,0,,,,,,,,,,,,,,left,0,0.9671849486185238,,,,,,,,,1010,2019_Mar_06_1149,mf_amp_cond2,3.0.4,60.02781982890186,
terrorist,&&&&&&&&&&,right,loyalty.vice,galamitous,,,,,,,,,,,,,0,45,45,285,,,,,,,,,,,,,,,AMP,left,0.4337170603685081,0,,,,,,,,,,,,,,left,0,0.4337170603685081,,,,,,,,,1010,2019_Mar_06_1149,mf_amp_cond2,3.0.4,60.02781982890186,
abuse,&&&&&&&&&&,right,sanctity.vice,ecgagement,,,,,,,,,,,,,0,46,46,127,,,,,,,,,,,,,,,AMP,left,0.5003985017538071,0,,,,,,,,,,,,,,left,0,0.5003985017538071,,,,,,,,,1010,2019_Mar_06_1149,mf_amp_cond2,3.0.4,60.02781982890186,
abuse,&&&&&&&&&,right,sanctity.vice,chressing,,,,,,,,,,,,,0,47,47,182,,,,,,,,,,,,,,,AMP,left,0.7671342098619789,0,,,,,,,,,,,,,,left,0,0.7671342098619789,,,,,,,,,1010,2019_Mar_06_1149,mf_amp_cond2,3.0.4,60.02781982890186,
party,&&&&&&&,left,loyalty.virtue,halaise,,,,,,,,,,,,,0,48,48,295,,,,,,,,,,,,,,,AMP,right,0.41704477556049824,0,,,,,,,,,,,,,,right,0,0.41704477556049824,,,,,,,,,1010,2019_Mar_06_1149,mf_amp_cond2,3.0.4,60.02781982890186,
sharing,&&&&&&&&&&&,left,loyalty.virtue,nomparisons,,,,,,,,,,,,,0,49,49,219,,,,,,,,,,,,,,,AMP,left,0.43367761094123125,1,,,,,,,,,,,,,,left,1,0.43367761094123125,,,,,,,,,1010,2019_Mar_06_1149,mf_amp_cond2,3.0.4,60.02781982890186,
sexual,&&&&&&,right,sanctity.vice,chared,,,,,,,,,,,,,0,50,50,259,,,,,,,,,,,,,,,AMP,left,0.05025996430777013,0,,,,,,,,,,,,,,left,0,0.05025996430777013,,,,,,,,,1010,2019_Mar_06_1149,mf_amp_cond2,3.0.4,60.02781982890186,
promised,&&&&&&&&,left,loyalty.virtue,tracious,,,,,,,,,,,,,0,51,51,280,,,,,,,,,,,,,,,AMP,left,0.5336795673938468,1,,,,,,,,,,,,,,left,1,0.5336795673938468,,,,,,,,,1010,2019_Mar_06_1149,mf_amp_cond2,3.0.4,60.02781982890186,
ability,&&&&&&&,left,authority.virtue,vurtain,,,,,,,,,,,,,0,52,52,117,,,,,,,,,,,,,,,AMP,right,0.43371000431943685,0,,,,,,,,,,,,,,right,0,0.43371000431943685,,,,,,,,,1010,2019_Mar_06_1149,mf_amp_cond2,3.0.4,60.02781982890186,
values,&&&&&&&,left,sanctity.virtue,vurtain,,,,,,,,,,,,,0,53,53,19,,,,,,,,,,,,,,,AMP,right,0.4003564545419067,0,,,,,,,,,,,,,,right,0,0.4003564545419067,,,,,,,,,1010,2019_Mar_06_1149,mf_amp_cond2,3.0.4,60.02781982890186,
suicide,&&&&&&&,right,care.vice,baklara,,,,,,,,,,,,,0,54,54,48,,,,,,,,,,,,,,,AMP,left,0.33369618107099086,0,,,,,,,,,,,,,,left,0,0.33369618107099086,,,,,,,,,1010,2019_Mar_06_1149,mf_amp_cond2,3.0.4,60.02781982890186,
charges,&&&&&&,right,fairness.vice,prones,,,,,,,,,,,,,0,55,55,166,,,,,,,,,,,,,,,AMP,right,0.500409085652791,1,,,,,,,,,,,,,,right,1,0.500409085652791,,,,,,,,,1010,2019_Mar_06_1149,mf_amp_cond2,3.0.4,60.02781982890186,
lies,&&&,right,fairness.vice,oam,,,,,,,,,,,,,0,56,56,28,,,,,,,,,,,,,,,AMP,left,0.3670327322324738,0,,,,,,,,,,,,,,left,0,0.3670327322324738,,,,,,,,,1010,2019_Mar_06_1149,mf_amp_cond2,3.0.4,60.02781982890186,
killed,&&&&&&&&&&,right,care.vice,gationwide,,,,,,,,,,,,,0,57,57,118,,,,,,,,,,,,,,,AMP,left,0.7838273418601602,0,,,,,,,,,,,,,,left,0,0.7838273418601602,,,,,,,,,1010,2019_Mar_06_1149,mf_amp_cond2,3.0.4,60.02781982890186,
groups,&&&&&&&,right,loyalty.vice,reviked,,,,,,,,,,,,,0,58,58,142,,,,,,,,,,,,,,,AMP,left,0.8838347505079582,0,,,,,,,,,,,,,,left,0,0.8838347505079582,,,,,,,,,1010,2019_Mar_06_1149,mf_amp_cond2,3.0.4,60.02781982890186,
actively,&&&&&&&&&&,left,authority.virtue,supervuned,,,,,,,,,,,,,0,59,59,78,,,,,,,,,,,,,,,AMP,right,0.450408267788589,0,,,,,,,,,,,,,,right,0,0.450408267788589,,,,,,,,,1010,2019_Mar_06_1149,mf_amp_cond2,3.0.4,60.02781982890186,
laming,&&&&&,None,nonword,pafer,,,,,,,,,,,,,0,60,60,136,,,,,,,,,,,,,,,AMP,right,0.5004183866549283,0,,,,,,,,,,,,,,right,0,0.5004183866549283,,,,,,,,,1010,2019_Mar_06_1149,mf_amp_cond2,3.0.4,60.02781982890186,
fontacts,&&&&&&&&&,None,nonword,ittutable,,,,,,,,,,,,,0,61,61,147,,,,,,,,,,,,,,,AMP,right,0.5003885591868311,0,,,,,,,,,,,,,,right,0,0.5003885591868311,,,,,,,,,1010,2019_Mar_06_1149,mf_amp_cond2,3.0.4,60.02781982890186,
vicissifude,&&&&&&&&&&,None,nonword,supervuned,,,,,,,,,,,,,0,62,62,261,,,,,,,,,,,,,,,AMP,right,0.4337478498928249,0,,,,,,,,,,,,,,right,0,0.4337478498928249,,,,,,,,,1010,2019_Mar_06_1149,mf_amp_cond2,3.0.4,60.02781982890186,
progress,&&&&&&&,left,authority.virtue,Loorish,,,,,,,,,,,,,0,63,63,30,,,,,,,,,,,,,,,AMP,right,0.36701701674610376,0,,,,,,,,,,,,,,right,0,0.36701701674610376,,,,,,,,,1010,2019_Mar_06_1149,mf_amp_cond2,3.0.4,60.02781982890186,
ensure,&&&&&&&&&&&,left,fairness.virtue,hefurbished,,,,,,,,,,,,,0,64,64,273,,,,,,,,,,,,,,,AMP,right,0.3170392911415547,0,,,,,,,,,,,,,,right,0,0.3170392911415547,,,,,,,,,1010,2019_Mar_06_1149,mf_amp_cond2,3.0.4,60.02781982890186,
died,&&&&&,right,care.vice,atson,,,,,,,,,,,,,0,65,65,131,,,,,,,,,,,,,,,AMP,left,0.3670295251067728,0,,,,,,,,,,,,,,left,0,0.3670295251067728,,,,,,,,,1010,2019_Mar_06_1149,mf_amp_cond2,3.0.4,60.02781982890186,
accused,&&&&&&&,right,fairness.vice,reviked,,,,,,,,,,,,,0,66,66,260,,,,,,,,,,,,,,,AMP,left,0.383692187955603,0,,,,,,,,,,,,,,left,0,0.383692187955603,,,,,,,,,1010,2019_Mar_06_1149,mf_amp_cond2,3.0.4,60.02781982890186,
riot,&&&&&&,right,authority.vice,fegard,,,,,,,,,,,,,0,67,67,319,,,,,,,,,,,,,,,AMP,left,0.5170711071696132,0,,,,,,,,,,,,,,left,0,0.5170711071696132,,,,,,,,,1010,2019_Mar_06_1149,mf_amp_cond2,3.0.4,60.02781982890186,
arrests,&&&&&&&&&&,right,authority.vice,simplustic,,,,,,,,,,,,,0,68,68,252,,,,,,,,,,,,,,,AMP,left,0.6837602780433372,0,,,,,,,,,,,,,,left,0,0.6837602780433372,,,,,,,,,1010,2019_Mar_06_1149,mf_amp_cond2,3.0.4,60.02781982890186,
blamed,&&&&&,right,loyalty.vice,pulge,,,,,,,,,,,,,0,69,69,296,,,,,,,,,,,,,,,AMP,left,0.5837477376917377,0,,,,,,,,,,,,,,left,0,0.5837477376917377,,,,,,,,,1010,2019_Mar_06_1149,mf_amp_cond2,3.0.4,60.02781982890186,
sharing,&&&&&&,left,loyalty.virtue,sgrawl,,,,,,,,,,,,,0,70,70,115,,,,,,,,,,,,,,,AMP,left,0.41707748966291547,1,,,,,,,,,,,,,,left,1,0.41707748966291547,,,,,,,,,1010,2019_Mar_06_1149,mf_amp_cond2,3.0.4,60.02781982890186,
voter,&&&&&&&,right,fairness.vice,halaise,,,,,,,,,,,,,0,71,71,14,,,,,,,,,,,,,,,AMP,left,0.3836735859513283,0,,,,,,,,,,,,,,left,0,0.3836735859513283,,,,,,,,,1010,2019_Mar_06_1149,mf_amp_cond2,3.0.4,60.02781982890186,
crime,&&&&&&&&&,right,fairness.vice,Phintoism,,,,,,,,,,,,,0,72,72,145,,,,,,,,,,,,,,,AMP,left,0.6337690819054842,0,,,,,,,,,,,,,,left,0,0.6337690819054842,,,,,,,,,1010,2019_Mar_06_1149,mf_amp_cond2,3.0.4,60.02781982890186,
ensure,&&&&&&&,left,fairness.virtue,nackers,,,,,,,,,,,,,0,73,73,200,,,,,,,,,,,,,,,AMP,right,0.7671095139812678,0,,,,,,,,,,,,,,right,0,0.7671095139812678,,,,,,,,,1010,2019_Mar_06_1149,mf_amp_cond2,3.0.4,60.02781982890186,
serial,&&&&&&&&&&&,right,sanctity.vice,shoirmaster,,,,,,,,,,,,,0,74,74,189,,,,,,,,,,,,,,,AMP,left,0.40042765566613525,0,,,,,,,,,,,,,,left,0,0.40042765566613525,,,,,,,,,1010,2019_Mar_06_1149,mf_amp_cond2,3.0.4,60.02781982890186,
drug,&&&&,right,sanctity.vice,erks,,,,,,,,,,,,,0,75,75,292,,,,,,,,,,,,,,,AMP,left,0.3171120958868414,0,,,,,,,,,,,,,,left,0,0.3171120958868414,,,,,,,,,1010,2019_Mar_06_1149,mf_amp_cond2,3.0.4,60.02781982890186,
hope,&&&&&&,left,loyalty.virtue,sgrawl,,,,,,,,,,,,,0,76,76,212,,,,,,,,,,,,,,,AMP,right,0.28363089729100466,0,,,,,,,,,,,,,,right,0,0.28363089729100466,,,,,,,,,1010,2019_Mar_06_1149,mf_amp_cond2,3.0.4,60.02781982890186,
care,&&&&&&&&&,left,care.virtue,taxpayung,,,,,,,,,,,,,0,77,77,191,,,,,,,,,,,,,,,AMP,right,0.2169828114565462,0,,,,,,,,,,,,,,right,0,0.2169828114565462,,,,,,,,,1010,2019_Mar_06_1149,mf_amp_cond2,3.0.4,60.02781982890186,
commitment,&&&&&&&&&,left,sanctity.virtue,crilfully,,,,,,,,,,,,,0,78,78,72,,,,,,,,,,,,,,,AMP,right,0.45025560236535966,0,,,,,,,,,,,,,,right,0,0.45025560236535966,,,,,,,,,1010,2019_Mar_06_1149,mf_amp_cond2,3.0.4,60.02781982890186,
black,&&&&&&&&&&&,right,loyalty.vice,nomparisons,,,,,,,,,,,,,0,79,79,301,,,,,,,,,,,,,,,AMP,right,0.6504371971823275,1,,,,,,,,,,,,,,right,1,0.6504371971823275,,,,,,,,,1010,2019_Mar_06_1149,mf_amp_cond2,3.0.4,60.02781982890186,
lies,&&&&&,right,fairness.vice,tabin,,,,,,,,,,,,,0,80,80,128,,,,,,,,,,,,,,,AMP,left,0.367021186160855,0,,,,,,,,,,,,,,left,0,0.367021186160855,,,,,,,,,1010,2019_Mar_06_1149,mf_amp_cond2,3.0.4,60.02781982890186,
tislay,&&&&&&&&,None,nonword,suggists,,,,,,,,,,,,,0,81,81,36,,,,,,,,,,,,,,,AMP,left,0.7838074567262083,0,,,,,,,,,,,,,,left,0,0.7838074567262083,,,,,,,,,1010,2019_Mar_06_1149,mf_amp_cond2,3.0.4,60.02781982890186,
compassion,&&&&&&&&&&,left,care.virtue,frojecting,,,,,,,,,,,,,0,82,82,325,,,,,,,,,,,,,,,AMP,right,0.983853384735994,0,,,,,,,,,,,,,,right,0,0.983853384735994,,,,,,,,,1010,2019_Mar_06_1149,mf_amp_cond2,3.0.4,60.02781982890186,
black,&&&&&&&&&&&,right,loyalty.vice,shoirmaster,,,,,,,,,,,,,0,83,83,113,,,,,,,,,,,,,,,AMP,left,0.3837111108005047,0,,,,,,,,,,,,,,left,0,0.3837111108005047,,,,,,,,,1010,2019_Mar_06_1149,mf_amp_cond2,3.0.4,60.02781982890186,
terrorists,&&&&&&&&,right,fairness.vice,clamorek,,,,,,,,,,,,,0,84,84,306,,,,,,,,,,,,,,,AMP,left,0.40037088724784553,0,,,,,,,,,,,,,,left,0,0.40037088724784553,,,,,,,,,1010,2019_Mar_06_1149,mf_amp_cond2,3.0.4,60.02781982890186,
freedom,&&&&&&&&,left,sanctity.virtue,thabbily,,,,,,,,,,,,,0,85,85,41,,,,,,,,,,,,,,,AMP,right,0.33369040791876614,0,,,,,,,,,,,,,,right,0,0.33369040791876614,,,,,,,,,1010,2019_Mar_06_1149,mf_amp_cond2,3.0.4,60.02781982890186,
accused,&&&&&&&&&&&,right,fairness.vice,presentkess,,,,,,,,,,,,,0,86,86,102,,,,,,,,,,,,,,,AMP,left,0.6004267575917765,0,,,,,,,,,,,,,,left,0,0.6004267575917765,,,,,,,,,1010,2019_Mar_06_1149,mf_amp_cond2,3.0.4,60.02781982890186,
sexual,&&&&&&,right,sanctity.vice,sgrawl,,,,,,,,,,,,,0,87,87,24,,,,,,,,,,,,,,,AMP,left,0.8671605414710939,0,,,,,,,,,,,,,,left,0,0.8671605414710939,,,,,,,,,1010,2019_Mar_06_1149,mf_amp_cond2,3.0.4,60.02781982890186,
riot,&&&&&&&&,right,authority.vice,thabbily,,,,,,,,,,,,,0,88,88,205,,,,,,,,,,,,,,,AMP,left,0.6670966529054567,0,,,,,,,,,,,,,,left,0,0.6670966529054567,,,,,,,,,1010,2019_Mar_06_1149,mf_amp_cond2,3.0.4,60.02781982890186,
died,&&&&&&&&&&&,right,care.vice,precificity,,,,,,,,,,,,,0,89,89,11,,,,,,,,,,,,,,,AMP,left,0.36702246905770153,0,,,,,,,,,,,,,,left,0,0.36702246905770153,,,,,,,,,1010,2019_Mar_06_1149,mf_amp_cond2,3.0.4,60.02781982890186,
improve,&&&&&&&,left,care.virtue,reviked,,,,,,,,,,,,,0,90,90,68,,,,,,,,,,,,,,,AMP,right,0.3003490457776934,0,,,,,,,,,,,,,,right,0,0.3003490457776934,,,,,,,,,1010,2019_Mar_06_1149,mf_amp_cond2,3.0.4,60.02781982890186,
troubla,&&&&&&&,None,nonword,halaise,,,,,,,,,,,,,0,91,91,111,,,,,,,,,,,,,,,AMP,right,0.6171173237962648,0,,,,,,,,,,,,,,right,0,0.6171173237962648,,,,,,,,,1010,2019_Mar_06_1149,mf_amp_cond2,3.0.4,60.02781982890186,
slavery,&&&&&,right,loyalty.vice,pafer,,,,,,,,,,,,,0,92,92,185,,,,,,,,,,,,,,,AMP,right,0.6504150672117248,1,,,,,,,,,,,,,,right,1,0.6504150672117248,,,,,,,,,1010,2019_Mar_06_1149,mf_amp_cond2,3.0.4,60.02781982890186,
interests,&&&&&&&&&,left,fairness.virtue,gandbrake,,,,,,,,,,,,,0,93,93,107,,,,,,,,,,,,,,,AMP,right,0.2169966024812311,0,,,,,,,,,,,,,,right,0,0.2169966024812311,,,,,,,,,1010,2019_Mar_06_1149,mf_amp_cond2,3.0.4,60.02781982890186,
death,&&&&&&&&&&&,right,care.vice,egpeditious,,,,,,,,,,,,,0,94,94,105,,,,,,,,,,,,,,,AMP,left,0.40035581320989877,0,,,,,,,,,,,,,,left,0,0.40035581320989877,,,,,,,,,1010,2019_Mar_06_1149,mf_amp_cond2,3.0.4,60.02781982890186,
party,&&&&&&,left,loyalty.virtue,antral,,,,,,,,,,,,,0,95,95,54,,,,,,,,,,,,,,,AMP,right,0.3335768710821867,0,,,,,,,,,,,,,,right,0,0.3335768710821867,,,,,,,,,1010,2019_Mar_06_1149,mf_amp_cond2,3.0.4,60.02781982890186,
improve,&&&&&&&&,left,care.virtue,slending,,,,,,,,,,,,,0,96,96,302,,,,,,,,,,,,,,,AMP,right,0.40036639710888267,0,,,,,,,,,,,,,,right,0,0.40036639710888267,,,,,,,,,1010,2019_Mar_06_1149,mf_amp_cond2,3.0.4,60.02781982890186,
pleasant,&&&&&&&&,None,control,dormandi,,,,,,,,,,,,,0,97,97,310,,,,,,,,,,,,,,,AMP,right,0.4337010240415111,0,,,,,,,,,,,,,,right,0,0.4337010240415111,,,,,,,,,1010,2019_Mar_06_1149,mf_amp_cond2,3.0.4,60.02781982890186,
respect,&&&&&&&&&&,left,sanctity.virtue,galamitous,,,,,,,,,,,,,0,98,98,181,,,,,,,,,,,,,,,AMP,right,0.11695904552470893,0,,,,,,,,,,,,,,right,0,0.11695904552470893,,,,,,,,,1010,2019_Mar_06_1149,mf_amp_cond2,3.0.4,60.02781982890186,
accused,&&&&&&&&&,right,fairness.vice,pescinded,,,,,,,,,,,,,0,99,99,74,,,,,,,,,,,,,,,AMP,left,0.5170794459991157,0,,,,,,,,,,,,,,left,0,0.5170794459991157,,,,,,,,,1010,2019_Mar_06_1149,mf_amp_cond2,3.0.4,60.02781982890186,
help,&&&&&&&,left,care.virtue,lursuer,,,,,,,,,,,,,0,100,100,215,,,,,,,,,,,,,,,AMP,right,0.16697525815106928,0,,,,,,,,,,,,,,right,0,0.16697525815106928,,,,,,,,,1010,2019_Mar_06_1149,mf_amp_cond2,3.0.4,60.02781982890186,
tislay,&&&&&&&&&&&,None,nonword,blunderints,,,,,,,,,,,,,0,101,101,231,,,,,,,,,,,,,,,AMP,right,0.6171971843577921,0,,,,,,,,,,,,,,right,0,0.6171971843577921,,,,,,,,,1010,2019_Mar_06_1149,mf_amp_cond2,3.0.4,60.02781982890186,
sharing,&&&&&&&&&&&,left,loyalty.virtue,shoirmaster,,,,,,,,,,,,,0,102,102,21,,,,,,,,,,,,,,,AMP,left,0.4004215619061142,1,,,,,,,,,,,,,,left,1,0.4004215619061142,,,,,,,,,1010,2019_Mar_06_1149,mf_amp_cond2,3.0.4,60.02781982890186,
restore,&&&,left,care.virtue,oam,,,,,,,,,,,,,0,103,103,272,,,,,,,,,,,,,,,AMP,left,0.48373231082223356,1,,,,,,,,,,,,,,left,1,0.48373231082223356,,,,,,,,,1010,2019_Mar_06_1149,mf_amp_cond2,3.0.4,60.02781982890186,
powerful,&&&&&,left,authority.virtue,aubos,,,,,,,,,,,,,0,104,104,22,,,,,,,,,,,,,,,AMP,right,0.5170598817057908,0,,,,,,,,,,,,,,right,0,0.5170598817057908,,,,,,,,,1010,2019_Mar_06_1149,mf_amp_cond2,3.0.4,60.02781982890186,
honored,&&&&&&,left,authority.virtue,Cunday,,,,,,,,,,,,,0,105,105,271,,,,,,,,,,,,,,,AMP,right,0.46705072512850165,0,,,,,,,,,,,,,,right,0,0.46705072512850165,,,,,,,,,1010,2019_Mar_06_1149,mf_amp_cond2,3.0.4,60.02781982890186,
laming,&&&&&&,None,nonword,fegard,,,,,,,,,,,,,0,106,106,168,,,,,,,,,,,,,,,AMP,left,0.3670757095096633,0,,,,,,,,,,,,,,left,0,0.3670757095096633,,,,,,,,,1010,2019_Mar_06_1149,mf_amp_cond2,3.0.4,60.02781982890186,
voter,&&&&&,right,fairness.vice,pafer,,,,,,,,,,,,,0,107,107,251,,,,,,,,,,,,,,,AMP,left,0.5003959358436987,0,,,,,,,,,,,,,,left,0,0.5003959358436987,,,,,,,,,1010,2019_Mar_06_1149,mf_amp_cond2,3.0.4,60.02781982890186,
loyalty,&&&&&&&,left,loyalty.virtue,Loorish,,,,,,,,,,,,,0,108,108,284,,,,,,,,,,,,,,,AMP,right,0.4837223682552576,0,,,,,,,,,,,,,,right,0,0.4837223682552576,,,,,,,,,1010,2019_Mar_06_1149,mf_amp_cond2,3.0.4,60.02781982890186,
voter,&&&&&&,right,fairness.vice,fostet,,,,,,,,,,,,,0,109,109,120,,,,,,,,,,,,,,,AMP,right,0.40037024579942226,1,,,,,,,,,,,,,,right,1,0.40037024579942226,,,,,,,,,1010,2019_Mar_06_1149,mf_amp_cond2,3.0.4,60.02781982890186,
growth,&&&&&&&,left,care.virtue,gedious,,,,,,,,,,,,,0,110,110,143,,,,,,,,,,,,,,,AMP,right,0.45038485480472445,0,,,,,,,,,,,,,,right,0,0.45038485480472445,,,,,,,,,1010,2019_Mar_06_1149,mf_amp_cond2,3.0.4,60.02781982890186,
praised,&&&&&&&&&,left,loyalty.virtue,chressing,,,,,,,,,,,,,0,111,111,155,,,,,,,,,,,,,,,AMP,right,0.5003523172345012,0,,,,,,,,,,,,,,right,0,0.5003523172345012,,,,,,,,,1010,2019_Mar_06_1149,mf_amp_cond2,3.0.4,60.02781982890186,
suicide,&&&&&&,right,care.vice,fegard,,,,,,,,,,,,,0,112,112,87,,,,,,,,,,,,,,,AMP,left,0.3836941123008728,0,,,,,,,,,,,,,,left,0,0.3836941123008728,,,,,,,,,1010,2019_Mar_06_1149,mf_amp_cond2,3.0.4,60.02781982890186,
faith,&&&&&&&,left,sanctity.virtue,baklara,,,,,,,,,,,,,0,113,113,305,,,,,,,,,,,,,,,AMP,right,0.4670908157713711,0,,,,,,,,,,,,,,right,0,0.4670908157713711,,,,,,,,,1010,2019_Mar_06_1149,mf_amp_cond2,3.0.4,60.02781982890186,
strength,&&&&&&&,left,sanctity.virtue,emports,,,,,,,,,,,,,0,114,114,67,,,,,,,,,,,,,,,AMP,left,0.30035995051730424,1,,,,,,,,,,,,,,left,1,0.30035995051730424,,,,,,,,,1010,2019_Mar_06_1149,mf_amp_cond2,3.0.4,60.02781982890186,
pleasant,&&&&&&&&,None,control,slending,,,,,,,,,,,,,0,115,115,152,,,,,,,,,,,,,,,AMP,right,0.9505187578033656,0,,,,,,,,,,,,,,right,0,0.9505187578033656,,,,,,,,,1010,2019_Mar_06_1149,mf_amp_cond2,3.0.4,60.02781982890186,
interests,&&&&&&&&&&,left,fairness.virtue,ecgagement,,,,,,,,,,,,,0,116,116,197,,,,,,,,,,,,,,,AMP,right,1.1505669308826327,0,,,,,,,,,,,,,,right,0,1.1505669308826327,,,,,,,,,1010,2019_Mar_06_1149,mf_amp_cond2,3.0.4,60.02781982890186,
failure,&&&&&&,right,loyalty.vice,pumber,,,,,,,,,,,,,0,117,117,262,,,,,,,,,,,,,,,AMP,left,0.35036718286573887,0,,,,,,,,,,,,,,left,0,0.35036718286573887,,,,,,,,,1010,2019_Mar_06_1149,mf_amp_cond2,3.0.4,60.02781982890186,
safety,&&&&&&&&&&&,left,care.virtue,shoirmaster,,,,,,,,,,,,,0,118,118,265,,,,,,,,,,,,,,,AMP,right,0.3836893014376983,0,,,,,,,,,,,,,,right,0,0.3836893014376983,,,,,,,,,1010,2019_Mar_06_1149,mf_amp_cond2,3.0.4,60.02781982890186,
killed,&&&&&&&&&,right,care.vice,Phintoism,,,,,,,,,,,,,0,119,119,3,,,,,,,,,,,,,,,AMP,left,0.450386137701571,0,,,,,,,,,,,,,,left,0,0.450386137701571,,,,,,,,,1010,2019_Mar_06_1149,mf_amp_cond2,3.0.4,60.02781982890186,
voter,&&&&&&&,right,fairness.vice,Loorish,,,,,,,,,,,,,0,120,120,216,,,,,,,,,,,,,,,AMP,right,0.5504015645710751,1,,,,,,,,,,,,,,right,1,0.5504015645710751,,,,,,,,,1010,2019_Mar_06_1149,mf_amp_cond2,3.0.4,60.02781982890186,
party,&&&&&&&&&&&,left,loyalty.virtue,egpeditious,,,,,,,,,,,,,0,121,121,194,,,,,,,,,,,,,,,AMP,right,0.3670539002632722,0,,,,,,,,,,,,,,right,0,0.3670539002632722,,,,,,,,,1010,2019_Mar_06_1149,mf_amp_cond2,3.0.4,60.02781982890186,
ability,&&&&&&,left,authority.virtue,fostet,,,,,,,,,,,,,0,122,122,164,,,,,,,,,,,,,,,AMP,right,0.5005322443321347,0,,,,,,,,,,,,,,right,0,0.5005322443321347,,,,,,,,,1010,2019_Mar_06_1149,mf_amp_cond2,3.0.4,60.02781982890186,
credit,&&&&&&&&&,left,fairness.virtue,discovars,,,,,,,,,,,,,0,123,123,289,,,,,,,,,,,,,,,AMP,right,0.5503589081345126,0,,,,,,,,,,,,,,right,0,0.5503589081345126,,,,,,,,,1010,2019_Mar_06_1149,mf_amp_cond2,3.0.4,60.02781982890186,
hate,&&&&&&&&&,right,fairness.vice,ittutable,,,,,,,,,,,,,0,124,124,183,,,,,,,,,,,,,,,AMP,left,0.3836902637267485,0,,,,,,,,,,,,,,left,0,0.3836902637267485,,,,,,,,,1010,2019_Mar_06_1149,mf_amp_cond2,3.0.4,60.02781982890186,
terrorist,&&&&&&&&&,right,loyalty.vice,gandbrake,,,,,,,,,,,,,0,125,125,176,,,,,,,,,,,,,,,AMP,left,0.33370387845207006,0,,,,,,,,,,,,,,left,0,0.33370387845207006,,,,,,,,,1010,2019_Mar_06_1149,mf_amp_cond2,3.0.4,60.02781982890186,
slavery,&&&&&&&,right,loyalty.vice,lursuer,,,,,,,,,,,,,0,126,126,317,,,,,,,,,,,,,,,AMP,left,0.41704092686995864,0,,,,,,,,,,,,,,left,0,0.41704092686995864,,,,,,,,,1010,2019_Mar_06_1149,mf_amp_cond2,3.0.4,60.02781982890186,
great,&&&&&&&&&,left,loyalty.virtue,grovelire,,,,,,,,,,,,,0,127,127,294,,,,,,,,,,,,,,,AMP,right,0.3670182996429503,0,,,,,,,,,,,,,,right,0,0.3670182996429503,,,,,,,,,1010,2019_Mar_06_1149,mf_amp_cond2,3.0.4,60.02781982890186,
freedom,&&&&&&&&&&&&,left,sanctity.virtue,iptervention,,,,,,,,,,,,,0,128,128,229,,,,,,,,,,,,,,,AMP,right,0.20015625760424882,0,,,,,,,,,,,,,,right,0,0.20015625760424882,,,,,,,,,1010,2019_Mar_06_1149,mf_amp_cond2,3.0.4,60.02781982890186,
crime,&&&&&&,right,fairness.vice,prones,,,,,,,,,,,,,0,129,129,16,,,,,,,,,,,,,,,AMP,left,0.3503617304377258,0,,,,,,,,,,,,,,left,0,0.3503617304377258,,,,,,,,,1010,2019_Mar_06_1149,mf_amp_cond2,3.0.4,60.02781982890186,
improve,&&&&&&,left,care.virtue,antral,,,,,,,,,,,,,0,130,130,235,,,,,,,,,,,,,,,AMP,right,0.1836642207344994,0,,,,,,,,,,,,,,right,0,0.1836642207344994,,,,,,,,,1010,2019_Mar_06_1149,mf_amp_cond2,3.0.4,60.02781982890186,
gun,&&&&&&&&,right,authority.vice,clamorek,,,,,,,,,,,,,0,131,131,150,,,,,,,,,,,,,,,AMP,left,0.9171857344917953,0,,,,,,,,,,,,,,left,0,0.9171857344917953,,,,,,,,,1010,2019_Mar_06_1149,mf_amp_cond2,3.0.4,60.02781982890186,
care,&&&&&&&&&,left,care.virtue,Phintoism,,,,,,,,,,,,,0,132,132,327,,,,,,,,,,,,,,,AMP,right,0.3170594968833029,0,,,,,,,,,,,,,,right,0,0.3170594968833029,,,,,,,,,1010,2019_Mar_06_1149,mf_amp_cond2,3.0.4,60.02781982890186,
faith,&&&&&&&&&&&&,left,sanctity.virtue,rorroborated,,,,,,,,,,,,,0,133,133,221,,,,,,,,,,,,,,,AMP,right,0.3503472978482023,0,,,,,,,,,,,,,,right,0,0.3503472978482023,,,,,,,,,1010,2019_Mar_06_1149,mf_amp_cond2,3.0.4,60.02781982890186,
unpleasant,&&&&&&&&&&,None,control,ejanulated,,,,,,,,,,,,,0,134,134,242,,,,,,,,,,,,,,,AMP,left,0.41703066357877105,0,,,,,,,,,,,,,,left,0,0.41703066357877105,,,,,,,,,1010,2019_Mar_06_1149,mf_amp_cond2,3.0.4,60.02781982890186,
credit,&&&&,left,fairness.virtue,wump,,,,,,,,,,,,,0,135,135,188,,,,,,,,,,,,,,,AMP,right,0.5837442097254097,0,,,,,,,,,,,,,,right,0,0.5837442097254097,,,,,,,,,1010,2019_Mar_06_1149,mf_amp_cond2,3.0.4,60.02781982890186,
growth,&&&&&&&&&,left,care.virtue,disregord,,,,,,,,,,,,,0,136,136,20,,,,,,,,,,,,,,,AMP,right,0.43370230682194233,0,,,,,,,,,,,,,,right,0,0.43370230682194233,,,,,,,,,1010,2019_Mar_06_1149,mf_amp_cond2,3.0.4,60.02781982890186,
fighters,&&&&&&&&&&&,right,authority.vice,cromiscuity,,,,,,,,,,,,,0,137,137,5,,,,,,,,,,,,,,,AMP,left,0.950528058805503,0,,,,,,,,,,,,,,left,0,0.950528058805503,,,,,,,,,1010,2019_Mar_06_1149,mf_amp_cond2,3.0.4,60.02781982890186,
tislay,&&&&&&,None,nonword,squets,,,,,,,,,,,,,0,138,138,279,,,,,,,,,,,,,,,AMP,left,0.3837133558699861,0,,,,,,,,,,,,,,left,0,0.3837133558699861,,,,,,,,,1010,2019_Mar_06_1149,mf_amp_cond2,3.0.4,60.02781982890186,
police,&&&&&&,right,authority.vice,chared,,,,,,,,,,,,,0,139,139,98,,,,,,,,,,,,,,,AMP,right,0.41704605845734477,1,,,,,,,,,,,,,,right,1,0.41704605845734477,,,,,,,,,1010,2019_Mar_06_1149,mf_amp_cond2,3.0.4,60.02781982890186,
faith,&&&&&&,left,sanctity.virtue,Cunday,,,,,,,,,,,,,0,140,140,109,,,,,,,,,,,,,,,AMP,right,0.3003621955867857,0,,,,,,,,,,,,,,right,0,0.3003621955867857,,,,,,,,,1010,2019_Mar_06_1149,mf_amp_cond2,3.0.4,60.02781982890186,
failure,&&&&&&&&,right,loyalty.vice,crinking,,,,,,,,,,,,,0,141,141,91,,,,,,,,,,,,,,,AMP,left,0.5503970744321123,0,,,,,,,,,,,,,,left,0,0.5503970744321123,,,,,,,,,1010,2019_Mar_06_1149,mf_amp_cond2,3.0.4,60.02781982890186,
police,&&&&&&&&,right,authority.vice,crinking,,,,,,,,,,,,,0,142,142,33,,,,,,,,,,,,,,,AMP,right,0.21699211234226823,1,,,,,,,,,,,,,,right,1,0.21699211234226823,,,,,,,,,1010,2019_Mar_06_1149,mf_amp_cond2,3.0.4,60.02781982890186,
unpleasant,&&&&&&&&&,None,control,disregord,,,,,,,,,,,,,0,143,143,277,,,,,,,,,,,,,,,AMP,left,0.7504519827198237,0,,,,,,,,,,,,,,left,0,0.7504519827198237,,,,,,,,,1010,2019_Mar_06_1149,mf_amp_cond2,3.0.4,60.02781982890186,
growth,&&&&&&&&&&&&,left,care.virtue,unreflectuve,,,,,,,,,,,,,0,144,144,248,,,,,,,,,,,,,,,AMP,right,0.31700882222503424,0,,,,,,,,,,,,,,right,0,0.31700882222503424,,,,,,,,,1010,2019_Mar_06_1149,mf_amp_cond2,3.0.4,60.02781982890186,
pharing,&&&&&&&,None,nonword,vurtain,,,,,,,,,,,,,0,145,145,234,,,,,,,,,,,,,,,AMP,right,0.5671017525019124,0,,,,,,,,,,,,,,right,0,0.5671017525019124,,,,,,,,,1010,2019_Mar_06_1149,mf_amp_cond2,3.0.4,60.02781982890186,
commitment,&&&&&&&&&&&&,left,sanctity.virtue,edancipation,,,,,,,,,,,,,0,146,146,132,,,,,,,,,,,,,,,AMP,right,0.3337138209026307,0,,,,,,,,,,,,,,right,0,0.3337138209026307,,,,,,,,,1010,2019_Mar_06_1149,mf_amp_cond2,3.0.4,60.02781982890186,
victims,&&&&&&,right,care.vice,chared,,,,,,,,,,,,,0,147,147,77,,,,,,,,,,,,,,,AMP,left,0.3336820690892637,0,,,,,,,,,,,,,,left,0,0.3336820690892637,,,,,,,,,1010,2019_Mar_06_1149,mf_amp_cond2,3.0.4,60.02781982890186,
promises,&&&&&,left,fairness.virtue,tabin,,,,,,,,,,,,,0,148,148,246,,,,,,,,,,,,,,,AMP,right,0.20015369169414043,0,,,,,,,,,,,,,,right,0,0.20015369169414043,,,,,,,,,1010,2019_Mar_06_1149,mf_amp_cond2,3.0.4,60.02781982890186,
civilians,&&&&&&,right,care.vice,forepo,,,,,,,,,,,,,0,149,149,31,,,,,,,,,,,,,,,AMP,left,0.8171520262258127,0,,,,,,,,,,,,,,left,0,0.8171520262258127,,,,,,,,,1010,2019_Mar_06_1149,mf_amp_cond2,3.0.4,60.02781982890186,
officers,&&&&&&&&,right,authority.vice,clamorek,,,,,,,,,,,,,0,150,150,190,,,,,,,,,,,,,,,AMP,right,0.5170229983050376,1,,,,,,,,,,,,,,right,1,0.5170229983050376,,,,,,,,,1010,2019_Mar_06_1149,mf_amp_cond2,3.0.4,60.02781982890186,
progress,&&&&&&&&&&,left,authority.virtue,clattening,,,,,,,,,,,,,0,151,151,160,,,,,,,,,,,,,,,AMP,right,0.5172786166658625,0,,,,,,,,,,,,,,right,0,0.5172786166658625,,,,,,,,,1010,2019_Mar_06_1149,mf_amp_cond2,3.0.4,60.02781982890186,
powerful,&&&&&&&&&,left,authority.virtue,brotesque,,,,,,,,,,,,,0,152,152,171,,,,,,,,,,,,,,,AMP,right,0.3669169503264129,0,,,,,,,,,,,,,,right,0,0.3669169503264129,,,,,,,,,1010,2019_Mar_06_1149,mf_amp_cond2,3.0.4,60.02781982890186,
slavery,&&&&&,right,loyalty.vice,touls,,,,,,,,,,,,,0,153,153,89,,,,,,,,,,,,,,,AMP,left,0.35038129473105073,0,,,,,,,,,,,,,,left,0,0.35038129473105073,,,,,,,,,1010,2019_Mar_06_1149,mf_amp_cond2,3.0.4,60.02781982890186,
opportunity,&&&&&&&&&&,left,fairness.virtue,chonograph,,,,,,,,,,,,,0,154,154,304,,,,,,,,,,,,,,,AMP,right,0.4337247577495873,0,,,,,,,,,,,,,,right,0,0.4337247577495873,,,,,,,,,1010,2019_Mar_06_1149,mf_amp_cond2,3.0.4,60.02781982890186,
energy,&&&&&&&&&&&&,left,sanctity.virtue,rorroborated,,,,,,,,,,,,,0,155,155,125,,,,,,,,,,,,,,,AMP,left,0.46693398081697524,1,,,,,,,,,,,,,,left,1,0.46693398081697524,,,,,,,,,1010,2019_Mar_06_1149,mf_amp_cond2,3.0.4,60.02781982890186,
loyalty,&&&&&&&&,left,loyalty.virtue,suggists,,,,,,,,,,,,,0,156,156,220,,,,,,,,,,,,,,,AMP,right,0.750471226288937,0,,,,,,,,,,,,,,right,0,0.750471226288937,,,,,,,,,1010,2019_Mar_06_1149,mf_amp_cond2,3.0.4,60.02781982890186,
opportunity,&&&&&&,left,fairness.virtue,Cunday,,,,,,,,,,,,,0,157,157,81,,,,,,,,,,,,,,,AMP,right,0.41704509628470987,0,,,,,,,,,,,,,,right,0,0.41704509628470987,,,,,,,,,1010,2019_Mar_06_1149,mf_amp_cond2,3.0.4,60.02781982890186,
praise,&&&&&&&&&,left,authority.virtue,crilfully,,,,,,,,,,,,,0,158,158,243,,,,,,,,,,,,,,,AMP,right,0.5003927287179977,0,,,,,,,,,,,,,,right,0,0.5003927287179977,,,,,,,,,1010,2019_Mar_06_1149,mf_amp_cond2,3.0.4,60.02781982890186,
torture,&&&&&&&&&&,right,care.vice,clattening,,,,,,,,,,,,,0,159,159,60,,,,,,,,,,,,,,,AMP,left,0.500399143085815,0,,,,,,,,,,,,,,left,0,0.500399143085815,,,,,,,,,1010,2019_Mar_06_1149,mf_amp_cond2,3.0.4,60.02781982890186,
actively,&&&&&&&,left,authority.virtue,smapper,,,,,,,,,,,,,0,160,160,186,,,,,,,,,,,,,,,AMP,right,0.4837287828559056,0,,,,,,,,,,,,,,right,0,0.4837287828559056,,,,,,,,,1010,2019_Mar_06_1149,mf_amp_cond2,3.0.4,60.02781982890186,
death,&&&&&&&&&,right,care.vice,taxpayung,,,,,,,,,,,,,0,161,161,75,,,,,,,,,,,,,,,AMP,left,0.567102073226124,0,,,,,,,,,,,,,,left,0,0.567102073226124,,,,,,,,,1010,2019_Mar_06_1149,mf_amp_cond2,3.0.4,60.02781982890186,
lies,&&&&&&&,right,fairness.vice,hatigue,,,,,,,,,,,,,0,162,162,224,,,,,,,,,,,,,,,AMP,left,0.5337555793812498,0,,,,,,,,,,,,,,left,0,0.5337555793812498,,,,,,,,,1010,2019_Mar_06_1149,mf_amp_cond2,3.0.4,60.02781982890186,
great,&&&&&&&&&&&&,left,loyalty.virtue,unreflectuve,,,,,,,,,,,,,0,163,163,233,,,,,,,,,,,,,,,AMP,right,0.31701459526084363,0,,,,,,,,,,,,,,right,0,0.31701459526084363,,,,,,,,,1010,2019_Mar_06_1149,mf_amp_cond2,3.0.4,60.02781982890186,
gun,&&&&&&&&&,right,authority.vice,brotesque,,,,,,,,,,,,,0,164,164,326,,,,,,,,,,,,,,,AMP,right,0.6337783830240369,1,,,,,,,,,,,,,,right,1,0.6337783830240369,,,,,,,,,1010,2019_Mar_06_1149,mf_amp_cond2,3.0.4,60.02781982890186,
hate,&&&&&&&&&&&,right,fairness.vice,blunderints,,,,,,,,,,,,,0,165,165,288,,,,,,,,,,,,,,,AMP,left,1.000530480290763,0,,,,,,,,,,,,,,left,0,1.000530480290763,,,,,,,,,1010,2019_Mar_06_1149,mf_amp_cond2,3.0.4,60.02781982890186,
emassion,&&&&&,None,nonword,touls,,,,,,,,,,,,,0,166,166,249,,,,,,,,,,,,,,,AMP,left,0.7171574464300647,0,,,,,,,,,,,,,,left,0,0.7171574464300647,,,,,,,,,1010,2019_Mar_06_1149,mf_amp_cond2,3.0.4,60.02781982890186,
scandal,&&&&,right,sanctity.vice,erks,,,,,,,,,,,,,0,167,167,2,,,,,,,,,,,,,,,AMP,left,0.4170595289906487,0,,,,,,,,,,,,,,left,0,0.4170595289906487,,,,,,,,,1010,2019_Mar_06_1149,mf_amp_cond2,3.0.4,60.02781982890186,
failure,&&&&&&&&&,right,loyalty.vice,pescinded,,,,,,,,,,,,,0,168,168,207,,,,,,,,,,,,,,,AMP,left,0.40036351059097797,0,,,,,,,,,,,,,,left,0,0.40036351059097797,,,,,,,,,1010,2019_Mar_06_1149,mf_amp_cond2,3.0.4,60.02781982890186,
conspiracy,&&&&&&&&&,right,sanctity.vice,discovars,,,,,,,,,,,,,0,169,169,53,,,,,,,,,,,,,,,AMP,left,0.30038496700581163,0,,,,,,,,,,,,,,left,0,0.30038496700581163,,,,,,,,,1010,2019_Mar_06_1149,mf_amp_cond2,3.0.4,60.02781982890186,
death,&&&&&&&&,right,care.vice,perified,,,,,,,,,,,,,0,170,170,315,,,,,,,,,,,,,,,AMP,left,0.583744851173833,0,,,,,,,,,,,,,,left,0,0.583744851173833,,,,,,,,,1010,2019_Mar_06_1149,mf_amp_cond2,3.0.4,60.02781982890186,
values,&&&&&,left,sanctity.virtue,aubos,,,,,,,,,,,,,0,171,171,139,,,,,,,,,,,,,,,AMP,right,0.41704605845734477,0,,,,,,,,,,,,,,right,0,0.41704605845734477,,,,,,,,,1010,2019_Mar_06_1149,mf_amp_cond2,3.0.4,60.02781982890186,
protect,&&&&&,left,fairness.virtue,ablow,,,,,,,,,,,,,0,172,172,44,,,,,,,,,,,,,,,AMP,left,0.4670494421152398,1,,,,,,,,,,,,,,left,1,0.4670494421152398,,,,,,,,,1010,2019_Mar_06_1149,mf_amp_cond2,3.0.4,60.02781982890186,
violations,&&&&&&&&,right,sanctity.vice,suggists,,,,,,,,,,,,,0,173,173,256,,,,,,,,,,,,,,,AMP,left,0.6004203431075439,0,,,,,,,,,,,,,,left,0,0.6004203431075439,,,,,,,,,1010,2019_Mar_06_1149,mf_amp_cond2,3.0.4,60.02781982890186,
improve,&&&&&&&&&&,left,care.virtue,supervuned,,,,,,,,,,,,,0,174,174,108,,,,,,,,,,,,,,,AMP,right,0.10033743549138308,0,,,,,,,,,,,,,,right,0,0.10033743549138308,,,,,,,,,1010,2019_Mar_06_1149,mf_amp_cond2,3.0.4,60.02781982890186,
trust,&&&&&&&&&,left,authority.virtue,Phintoism,,,,,,,,,,,,,0,175,175,245,,,,,,,,,,,,,,,AMP,right,0.400401356164366,0,,,,,,,,,,,,,,right,0,0.400401356164366,,,,,,,,,1010,2019_Mar_06_1149,mf_amp_cond2,3.0.4,60.02781982890186,
drug,&&&&&&&&&&&,right,sanctity.vice,fornicalion,,,,,,,,,,,,,0,176,176,70,,,,,,,,,,,,,,,AMP,right,0.5670908477623016,1,,,,,,,,,,,,,,right,1,0.5670908477623016,,,,,,,,,1010,2019_Mar_06_1149,mf_amp_cond2,3.0.4,60.02781982890186,
care,&&&&&&&&,left,care.virtue,dormandi,,,,,,,,,,,,,0,177,177,57,,,,,,,,,,,,,,,AMP,right,0.4837316693738103,0,,,,,,,,,,,,,,right,0,0.4837316693738103,,,,,,,,,1010,2019_Mar_06_1149,mf_amp_cond2,3.0.4,60.02781982890186,
praised,&&&&&&&,left,loyalty.virtue,lursuer,,,,,,,,,,,,,0,178,178,27,,,,,,,,,,,,,,,AMP,right,1.6840322534553707,0,,,,,,,,,,,,,,right,0,1.6840322534553707,,,,,,,,,1010,2019_Mar_06_1149,mf_amp_cond2,3.0.4,60.02781982890186,
respect,&&&&&&,left,sanctity.virtue,fostet,,,,,,,,,,,,,0,179,179,0,,,,,,,,,,,,,,,AMP,right,0.1669637120794505,0,,,,,,,,,,,,,,right,0,0.1669637120794505,,,,,,,,,1010,2019_Mar_06_1149,mf_amp_cond2,3.0.4,60.02781982890186,
values,&&&&&,left,sanctity.virtue,noped,,,,,,,,,,,,,0,180,180,208,,,,,,,,,,,,,,,AMP,right,0.267001269152388,0,,,,,,,,,,,,,,right,0,0.267001269152388,,,,,,,,,1010,2019_Mar_06_1149,mf_amp_cond2,3.0.4,60.02781982890186,
black,&&&&&&,right,loyalty.vice,squets,,,,,,,,,,,,,0,181,181,9,,,,,,,,,,,,,,,AMP,left,0.5337501270696521,0,,,,,,,,,,,,,,left,0,0.5337501270696521,,,,,,,,,1010,2019_Mar_06_1149,mf_amp_cond2,3.0.4,60.02781982890186,
terrorist,&&&&&&&,right,loyalty.vice,emports,,,,,,,,,,,,,0,182,182,121,,,,,,,,,,,,,,,AMP,left,0.3170152367092669,0,,,,,,,,,,,,,,left,0,0.3170152367092669,,,,,,,,,1010,2019_Mar_06_1149,mf_amp_cond2,3.0.4,60.02781982890186,
praise,&&&&&&&&&&&&,left,authority.virtue,feleological,,,,,,,,,,,,,0,183,183,65,,,,,,,,,,,,,,,AMP,right,0.43373085150960833,0,,,,,,,,,,,,,,right,0,0.43373085150960833,,,,,,,,,1010,2019_Mar_06_1149,mf_amp_cond2,3.0.4,60.02781982890186,
praised,&&&&&,left,loyalty.virtue,ablow,,,,,,,,,,,,,0,184,184,192,,,,,,,,,,,,,,,AMP,left,0.733797658700496,1,,,,,,,,,,,,,,left,1,0.733797658700496,,,,,,,,,1010,2019_Mar_06_1149,mf_amp_cond2,3.0.4,60.02781982890186,
commitment,&&&&&&&&&&,left,sanctity.virtue,simplustic,,,,,,,,,,,,,0,185,185,198,,,,,,,,,,,,,,,AMP,right,0.30033236811868846,0,,,,,,,,,,,,,,right,0,0.30033236811868846,,,,,,,,,1010,2019_Mar_06_1149,mf_amp_cond2,3.0.4,60.02781982890186,
restore,&&&&&&&&&&&,left,care.virtue,hefurbished,,,,,,,,,,,,,0,186,186,196,,,,,,,,,,,,,,,AMP,left,0.38370116823352873,1,,,,,,,,,,,,,,left,1,0.38370116823352873,,,,,,,,,1010,2019_Mar_06_1149,mf_amp_cond2,3.0.4,60.02781982890186,
civilians,&&&&&&,right,care.vice,prones,,,,,,,,,,,,,0,187,187,293,,,,,,,,,,,,,,,AMP,right,0.5670841125538573,1,,,,,,,,,,,,,,right,1,0.5670841125538573,,,,,,,,,1010,2019_Mar_06_1149,mf_amp_cond2,3.0.4,60.02781982890186,
blamed,&&&&&&&&&&&,right,loyalty.vice,fornicalion,,,,,,,,,,,,,0,188,188,169,,,,,,,,,,,,,,,AMP,left,0.31700529425870627,0,,,,,,,,,,,,,,left,0,0.31700529425870627,,,,,,,,,1010,2019_Mar_06_1149,mf_amp_cond2,3.0.4,60.02781982890186,
hate,&&&&&&&&&,right,fairness.vice,crilfully,,,,,,,,,,,,,0,189,189,82,,,,,,,,,,,,,,,AMP,left,0.3336843141587451,0,,,,,,,,,,,,,,left,0,0.3336843141587451,,,,,,,,,1010,2019_Mar_06_1149,mf_amp_cond2,3.0.4,60.02781982890186,
crime,&&&&&&&,right,fairness.vice,reviked,,,,,,,,,,,,,0,190,190,177,,,,,,,,,,,,,,,AMP,left,0.3670375432120636,0,,,,,,,,,,,,,,left,0,0.3670375432120636,,,,,,,,,1010,2019_Mar_06_1149,mf_amp_cond2,3.0.4,60.02781982890186,
arrests,&&&&&&&&&&,right,authority.vice,gationwide,,,,,,,,,,,,,0,191,191,29,,,,,,,,,,,,,,,AMP,left,0.25044893578160554,0,,,,,,,,,,,,,,left,0,0.25044893578160554,,,,,,,,,1010,2019_Mar_06_1149,mf_amp_cond2,3.0.4,60.02781982890186,
drug,&&&&&&&&&&,right,sanctity.vice,ejanulated,,,,,,,,,,,,,0,192,192,116,,,,,,,,,,,,,,,AMP,left,0.2503318708622828,0,,,,,,,,,,,,,,left,0,0.2503318708622828,,,,,,,,,1010,2019_Mar_06_1149,mf_amp_cond2,3.0.4,60.02781982890186,
respect,&&&&&&&&&&,left,sanctity.virtue,ejanulated,,,,,,,,,,,,,0,193,193,247,,,,,,,,,,,,,,,AMP,right,0.18363214808050543,0,,,,,,,,,,,,,,right,0,0.18363214808050543,,,,,,,,,1010,2019_Mar_06_1149,mf_amp_cond2,3.0.4,60.02781982890186,
free,&&&&&&&&,left,fairness.virtue,thabbily,,,,,,,,,,,,,0,194,194,318,,,,,,,,,,,,,,,AMP,right,0.2336643971502781,0,,,,,,,,,,,,,,right,0,0.2336643971502781,,,,,,,,,1010,2019_Mar_06_1149,mf_amp_cond2,3.0.4,60.02781982890186,
riot,&&&&&&&&,right,authority.vice,tracious,,,,,,,,,,,,,0,195,195,10,,,,,,,,,,,,,,,AMP,left,0.6171214930946007,0,,,,,,,,,,,,,,left,0,0.6171214930946007,,,,,,,,,1010,2019_Mar_06_1149,mf_amp_cond2,3.0.4,60.02781982890186,
sexual,&&&&&&&,right,sanctity.vice,nackers,,,,,,,,,,,,,0,196,196,133,,,,,,,,,,,,,,,AMP,left,0.3170527615584433,0,,,,,,,,,,,,,,left,0,0.3170527615584433,,,,,,,,,1010,2019_Mar_06_1149,mf_amp_cond2,3.0.4,60.02781982890186,
troubla,&&&&,None,nonword,wump,,,,,,,,,,,,,0,197,197,64,,,,,,,,,,,,,,,AMP,left,0.26700672146398574,0,,,,,,,,,,,,,,left,0,0.26700672146398574,,,,,,,,,1010,2019_Mar_06_1149,mf_amp_cond2,3.0.4,60.02781982890186,
critics,&&&&&&&&&&&&,right,loyalty.vice,iptervention,,,,,,,,,,,,,0,198,198,15,,,,,,,,,,,,,,,AMP,left,0.5004049161216244,0,,,,,,,,,,,,,,left,0,0.5004049161216244,,,,,,,,,1010,2019_Mar_06_1149,mf_amp_cond2,3.0.4,60.02781982890186,
violations,&&&&&&,right,sanctity.vice,squets,,,,,,,,,,,,,0,199,199,180,,,,,,,,,,,,,,,AMP,left,0.4337074385257438,0,,,,,,,,,,,,,,left,0,0.4337074385257438,,,,,,,,,1010,2019_Mar_06_1149,mf_amp_cond2,3.0.4,60.02781982890186,
blamed,&&&&&&&,right,loyalty.vice,gedious,,,,,,,,,,,,,0,200,200,23,,,,,,,,,,,,,,,AMP,left,0.28365495172329247,0,,,,,,,,,,,,,,left,0,0.28365495172329247,,,,,,,,,1010,2019_Mar_06_1149,mf_amp_cond2,3.0.4,60.02781982890186,
values,&&&&&&&,left,sanctity.virtue,gedious,,,,,,,,,,,,,0,201,201,299,,,,,,,,,,,,,,,AMP,right,0.30033204739447683,0,,,,,,,,,,,,,,right,0,0.30033204739447683,,,,,,,,,1010,2019_Mar_06_1149,mf_amp_cond2,3.0.4,60.02781982890186,
safety,&&&&&&,left,care.virtue,pumber,,,,,,,,,,,,,0,202,202,195,,,,,,,,,,,,,,,AMP,right,0.20031950692646205,0,,,,,,,,,,,,,,right,0,0.20031950692646205,,,,,,,,,1010,2019_Mar_06_1149,mf_amp_cond2,3.0.4,60.02781982890186,
emassion,&&&&&&&&&,None,nonword,grovelire,,,,,,,,,,,,,0,203,203,237,,,,,,,,,,,,,,,AMP,right,0.4837477057008073,0,,,,,,,,,,,,,,right,0,0.4837477057008073,,,,,,,,,1010,2019_Mar_06_1149,mf_amp_cond2,3.0.4,60.02781982890186,
failure,&&&&&&&&&&&&,right,loyalty.vice,edancipation,,,,,,,,,,,,,0,204,204,43,,,,,,,,,,,,,,,AMP,left,0.41704990714788437,0,,,,,,,,,,,,,,left,0,0.41704990714788437,,,,,,,,,1010,2019_Mar_06_1149,mf_amp_cond2,3.0.4,60.02781982890186,
party,&&&&&&&&,left,loyalty.virtue,ebbitter,,,,,,,,,,,,,0,205,205,154,,,,,,,,,,,,,,,AMP,right,0.1503007283899933,0,,,,,,,,,,,,,,right,0,0.1503007283899933,,,,,,,,,1010,2019_Mar_06_1149,mf_amp_cond2,3.0.4,60.02781982890186,
hope,&&&&&&,left,loyalty.virtue,antral,,,,,,,,,,,,,0,206,206,140,,,,,,,,,,,,,,,AMP,right,0.15030553936958313,0,,,,,,,,,,,,,,right,0,0.15030553936958313,,,,,,,,,1010,2019_Mar_06_1149,mf_amp_cond2,3.0.4,60.02781982890186,
safety,&&&&&&&&,left,care.virtue,dormandi,,,,,,,,,,,,,0,207,207,99,,,,,,,,,,,,,,,AMP,right,0.3168600054923445,0,,,,,,,,,,,,,,right,0,0.3168600054923445,,,,,,,,,1010,2019_Mar_06_1149,mf_amp_cond2,3.0.4,60.02781982890186,
officers,&&&&&&&&&,right,authority.vice,ittutable,,,,,,,,,,,,,0,208,208,276,,,,,,,,,,,,,,,AMP,right,0.3003647612640634,1,,,,,,,,,,,,,,right,1,0.3003647612640634,,,,,,,,,1010,2019_Mar_06_1149,mf_amp_cond2,3.0.4,60.02781982890186,
died,&&&&&&&&&&,right,care.vice,supervuned,,,,,,,,,,,,,0,209,209,214,,,,,,,,,,,,,,,AMP,left,0.10028611938469112,0,,,,,,,,,,,,,,left,0,0.10028611938469112,,,,,,,,,1010,2019_Mar_06_1149,mf_amp_cond2,3.0.4,60.02781982890186,
prosecution,&&&&,right,authority.vice,juck,,,,,,,,,,,,,0,210,210,312,,,,,,,,,,,,,,,AMP,right,0.7671435109805316,1,,,,,,,,,,,,,,right,1,0.7671435109805316,,,,,,,,,1010,2019_Mar_06_1149,mf_amp_cond2,3.0.4,60.02781982890186,
arrests,&&&&&,right,authority.vice,framo,,,,,,,,,,,,,0,211,211,223,,,,,,,,,,,,,,,AMP,left,0.3837114315247163,0,,,,,,,,,,,,,,left,0,0.3837114315247163,,,,,,,,,1010,2019_Mar_06_1149,mf_amp_cond2,3.0.4,60.02781982890186,
slavery,&&&&,right,loyalty.vice,juck,,,,,,,,,,,,,0,212,212,56,,,,,,,,,,,,,,,AMP,left,0.43370904214680195,0,,,,,,,,,,,,,,left,0,0.43370904214680195,,,,,,,,,1010,2019_Mar_06_1149,mf_amp_cond2,3.0.4,60.02781982890186,
crime,&&&&&&,right,fairness.vice,antral,,,,,,,,,,,,,0,213,213,307,,,,,,,,,,,,,,,AMP,left,0.4670654784422368,0,,,,,,,,,,,,,,left,0,0.4670654784422368,,,,,,,,,1010,2019_Mar_06_1149,mf_amp_cond2,3.0.4,60.02781982890186,
prosecution,&&&&&&&,right,authority.vice,brudent,,,,,,,,,,,,,0,214,214,167,,,,,,,,,,,,,,,AMP,left,0.3003455178113654,0,,,,,,,,,,,,,,left,0,0.3003455178113654,,,,,,,,,1010,2019_Mar_06_1149,mf_amp_cond2,3.0.4,60.02781982890186,
unpleasant,&&&&&&&&&&&,None,control,sowntrodden,,,,,,,,,,,,,0,215,215,25,,,,,,,,,,,,,,,AMP,left,0.8004614601377398,0,,,,,,,,,,,,,,left,0,0.8004614601377398,,,,,,,,,1010,2019_Mar_06_1149,mf_amp_cond2,3.0.4,60.02781982890186,
tislay,&&&&&&&&&&,None,nonword,simplustic,,,,,,,,,,,,,0,216,216,148,,,,,,,,,,,,,,,AMP,left,0.30037245876155794,0,,,,,,,,,,,,,,left,0,0.30037245876155794,,,,,,,,,1010,2019_Mar_06_1149,mf_amp_cond2,3.0.4,60.02781982890186,
interests,&&&&&&&&,left,fairness.virtue,slending,,,,,,,,,,,,,0,217,217,63,,,,,,,,,,,,,,,AMP,right,0.4170329087646678,0,,,,,,,,,,,,,,right,0,0.4170329087646678,,,,,,,,,1010,2019_Mar_06_1149,mf_amp_cond2,3.0.4,60.02781982890186,
torture,&&&&&&&&&,right,care.vice,grovelire,,,,,,,,,,,,,0,218,218,135,,,,,,,,,,,,,,,AMP,left,0.08358849736396223,0,,,,,,,,,,,,,,left,0,0.08358849736396223,,,,,,,,,1010,2019_Mar_06_1149,mf_amp_cond2,3.0.4,60.02781982890186,
ensure,&&&&&&&&&,left,fairness.virtue,brotesque,,,,,,,,,,,,,0,219,219,137,,,,,,,,,,,,,,,AMP,left,0.366979812621139,1,,,,,,,,,,,,,,left,1,0.366979812621139,,,,,,,,,1010,2019_Mar_06_1149,mf_amp_cond2,3.0.4,60.02781982890186,
freedom,&&&&&&&&&&&,left,sanctity.virtue,presentkess,,,,,,,,,,,,,0,220,220,275,,,,,,,,,,,,,,,AMP,right,0.20031437533907592,0,,,,,,,,,,,,,,right,0,0.20031437533907592,,,,,,,,,1010,2019_Mar_06_1149,mf_amp_cond2,3.0.4,60.02781982890186,
serial,&&&&&&&&&&&&,right,sanctity.vice,rorroborated,,,,,,,,,,,,,0,221,221,316,,,,,,,,,,,,,,,AMP,left,0.3836902636103332,0,,,,,,,,,,,,,,left,0,0.3836902636103332,,,,,,,,,1010,2019_Mar_06_1149,mf_amp_cond2,3.0.4,60.02781982890186,
pharing,&&&&&&&&&&,None,nonword,clattening,,,,,,,,,,,,,0,222,222,321,,,,,,,,,,,,,,,AMP,left,0.6337597810197622,0,,,,,,,,,,,,,,left,0,0.6337597810197622,,,,,,,,,1010,2019_Mar_06_1149,mf_amp_cond2,3.0.4,60.02781982890186,
fontacts,&&&&&&&&,None,nonword,perified,,,,,,,,,,,,,0,223,223,50,,,,,,,,,,,,,,,AMP,left,0.36702278978191316,0,,,,,,,,,,,,,,left,0,0.36702278978191316,,,,,,,,,1010,2019_Mar_06_1149,mf_amp_cond2,3.0.4,60.02781982890186,
powerful,&&&&&&&&&&&,left,authority.virtue,precificity,,,,,,,,,,,,,0,224,224,290,,,,,,,,,,,,,,,AMP,right,0.4335448306519538,0,,,,,,,,,,,,,,right,0,0.4335448306519538,,,,,,,,,1010,2019_Mar_06_1149,mf_amp_cond2,3.0.4,60.02781982890186,
terrorists,&&&&&,right,fairness.vice,pulge,,,,,,,,,,,,,0,225,225,187,,,,,,,,,,,,,,,AMP,left,0.36701380950398743,0,,,,,,,,,,,,,,left,0,0.36701380950398743,,,,,,,,,1010,2019_Mar_06_1149,mf_amp_cond2,3.0.4,60.02781982890186,
compassion,&&&&&&&&&&&,left,care.virtue,fornicalion,,,,,,,,,,,,,0,226,226,95,,,,,,,,,,,,,,,AMP,left,0.25032930518500507,1,,,,,,,,,,,,,,left,1,0.25032930518500507,,,,,,,,,1010,2019_Mar_06_1149,mf_amp_cond2,3.0.4,60.02781982890186,
fighters,&&&&&&&,right,authority.vice,dramens,,,,,,,,,,,,,0,227,227,163,,,,,,,,,,,,,,,AMP,right,0.3837168838363141,1,,,,,,,,,,,,,,right,1,0.3837168838363141,,,,,,,,,1010,2019_Mar_06_1149,mf_amp_cond2,3.0.4,60.02781982890186,
pharing,&&&&&,None,nonword,atson,,,,,,,,,,,,,0,228,228,40,,,,,,,,,,,,,,,AMP,left,0.31700818077661097,0,,,,,,,,,,,,,,left,0,0.31700818077661097,,,,,,,,,1010,2019_Mar_06_1149,mf_amp_cond2,3.0.4,60.02781982890186,
praised,&&&&&&&&&&&&,left,loyalty.virtue,iptervention,,,,,,,,,,,,,0,229,229,257,,,,,,,,,,,,,,,AMP,left,0.28366329066921026,1,,,,,,,,,,,,,,left,1,0.28366329066921026,,,,,,,,,1010,2019_Mar_06_1149,mf_amp_cond2,3.0.4,60.02781982890186,
great,&&&&&&&&&,left,loyalty.virtue,discovars,,,,,,,,,,,,,0,230,230,130,,,,,,,,,,,,,,,AMP,right,0.5672463997034356,0,,,,,,,,,,,,,,right,0,0.5672463997034356,,,,,,,,,1010,2019_Mar_06_1149,mf_amp_cond2,3.0.4,60.02781982890186,
actively,&&&&&&,left,authority.virtue,openet,,,,,,,,,,,,,0,231,231,311,,,,,,,,,,,,,,,AMP,right,0.45041660661809146,0,,,,,,,,,,,,,,right,0,0.45041660661809146,,,,,,,,,1010,2019_Mar_06_1149,mf_amp_cond2,3.0.4,60.02781982890186,
respect,&&&&&&&&&,left,sanctity.virtue,taxpayung,,,,,,,,,,,,,0,232,232,126,,,,,,,,,,,,,,,AMP,right,0.10028323298320174,0,,,,,,,,,,,,,,right,0,0.10028323298320174,,,,,,,,,1010,2019_Mar_06_1149,mf_amp_cond2,3.0.4,60.02781982890186,
promised,&&&&&&&,left,loyalty.virtue,lursuer,,,,,,,,,,,,,0,233,233,157,,,,,,,,,,,,,,,AMP,right,0.4337125701131299,0,,,,,,,,,,,,,,right,0,0.4337125701131299,,,,,,,,,1010,2019_Mar_06_1149,mf_amp_cond2,3.0.4,60.02781982890186,
freedom,&&&&&&&&&,left,sanctity.virtue,pescinded,,,,,,,,,,,,,0,234,234,124,,,,,,,,,,,,,,,AMP,right,0.3837111108005047,0,,,,,,,,,,,,,,right,0,0.3837111108005047,,,,,,,,,1010,2019_Mar_06_1149,mf_amp_cond2,3.0.4,60.02781982890186,
torture,&&&&&&&&&&&,right,care.vice,sowntrodden,,,,,,,,,,,,,0,235,235,263,,,,,,,,,,,,,,,AMP,right,0.45036464906297624,1,,,,,,,,,,,,,,right,1,0.45036464906297624,,,,,,,,,1010,2019_Mar_06_1149,mf_amp_cond2,3.0.4,60.02781982890186,
help,&&&&&&,left,care.virtue,forepo,,,,,,,,,,,,,0,236,236,141,,,,,,,,,,,,,,,AMP,right,0.4837137087015435,0,,,,,,,,,,,,,,right,0,0.4837137087015435,,,,,,,,,1010,2019_Mar_06_1149,mf_amp_cond2,3.0.4,60.02781982890186,
strength,&&&&&&,left,sanctity.virtue,chared,,,,,,,,,,,,,0,237,237,227,,,,,,,,,,,,,,,AMP,right,0.38369379157666117,0,,,,,,,,,,,,,,right,0,0.38369379157666117,,,,,,,,,1010,2019_Mar_06_1149,mf_amp_cond2,3.0.4,60.02781982890186,
victims,&&&&&&&&&,right,care.vice,pescinded,,,,,,,,,,,,,0,238,238,298,,,,,,,,,,,,,,,AMP,left,0.3003615541383624,0,,,,,,,,,,,,,,left,0,0.3003615541383624,,,,,,,,,1010,2019_Mar_06_1149,mf_amp_cond2,3.0.4,60.02781982890186,
trust,&&&&&&&&&&,left,authority.virtue,simplustic,,,,,,,,,,,,,0,239,239,51,,,,,,,,,,,,,,,AMP,right,0.1835991133702919,0,,,,,,,,,,,,,,right,0,0.1835991133702919,,,,,,,,,1010,2019_Mar_06_1149,mf_amp_cond2,3.0.4,60.02781982890186,
laming,&&&&&,None,nonword,touls,,,,,,,,,,,,,0,240,240,39,,,,,,,,,,,,,,,AMP,left,0.33368816296570003,0,,,,,,,,,,,,,,left,0,0.33368816296570003,,,,,,,,,1010,2019_Mar_06_1149,mf_amp_cond2,3.0.4,60.02781982890186,
praise,&&&&&&&&&,left,authority.virtue,gandbrake,,,,,,,,,,,,,0,241,241,322,,,,,,,,,,,,,,,AMP,right,0.7838061739457771,0,,,,,,,,,,,,,,right,0,0.7838061739457771,,,,,,,,,1010,2019_Mar_06_1149,mf_amp_cond2,3.0.4,60.02781982890186,
yane,&&&&&&&&&&,None,nonword,chonograph,,,,,,,,,,,,,0,242,242,17,,,,,,,,,,,,,,,AMP,left,0.850558495731093,0,,,,,,,,,,,,,,left,0,0.850558495731093,,,,,,,,,1010,2019_Mar_06_1149,mf_amp_cond2,3.0.4,60.02781982890186,
death,&&&&&&,right,care.vice,openet,,,,,,,,,,,,,0,243,243,173,,,,,,,,,,,,,,,AMP,left,0.6003834597067907,0,,,,,,,,,,,,,,left,0,0.6003834597067907,,,,,,,,,1010,2019_Mar_06_1149,mf_amp_cond2,3.0.4,60.02781982890186,
powerful,&&&,left,authority.virtue,oam,,,,,,,,,,,,,0,244,244,84,,,,,,,,,,,,,,,AMP,right,0.31718425906728953,0,,,,,,,,,,,,,,right,0,0.31718425906728953,,,,,,,,,1010,2019_Mar_06_1149,mf_amp_cond2,3.0.4,60.02781982890186,
charges,&&&&&&&&,right,fairness.vice,sidearbs,,,,,,,,,,,,,0,245,245,61,,,,,,,,,,,,,,,AMP,left,0.40036254830192775,0,,,,,,,,,,,,,,left,0,0.40036254830192775,,,,,,,,,1010,2019_Mar_06_1149,mf_amp_cond2,3.0.4,60.02781982890186,
protect,&&&&&&&&&,left,fairness.virtue,taxpayung,,,,,,,,,,,,,0,246,246,274,,,,,,,,,,,,,,,AMP,left,0.4337555472739041,1,,,,,,,,,,,,,,left,1,0.4337555472739041,,,,,,,,,1010,2019_Mar_06_1149,mf_amp_cond2,3.0.4,60.02781982890186,
