words,nonwords,mask,corr_ans,category,tweets,topic,AMP_prac_loop.thisRepN,AMP_prac_loop.thisTrialN,AMP_prac_loop.thisN,AMP_prac_loop.thisIndex,AMP_trials.thisRepN,AMP_trials.thisTrialN,AMP_trials.thisN,AMP_trials.thisIndex,LDT_prac_loop.thisRepN,LDT_prac_loop.thisTrialN,LDT_prac_loop.thisN,LDT_prac_loop.thisIndex,LDT_loop.thisRepN,LDT_loop.thisTrialN,LDT_loop.thisN,LDT_loop.thisIndex,tweet_loop.thisRepN,tweet_loop.thisTrialN,tweet_loop.thisN,tweet_loop.thisIndex,begin_key.keys,begin_key.rt,key_resp_AMP_instr1.keys,key_resp_AMP_instr1.rt,resp_AMP_ready1.keys,resp_AMP_ready1.rt,resp_AMP_prac.keys,resp_AMP_prac.rt,task,keypress,RT,resp_AMP_ready.keys,resp_AMP_ready.rt,resp_AMP.keys,resp_AMP.corr,resp_AMP.rt,corr,AMP_nonword_rating.response,AMP_nonword_rating.rt,AMP_word_rating.response,AMP_word_rating.rt,AMP_random_rating.response,AMP_random_rating.rt,key_resp_LDT_instr.keys,key_resp_LDT_instr.rt,resp_LDT_prac.keys,resp_LDT_prac.rt,resp_LDT_ready.keys,resp_LDT_ready.rt,resp_LDT.keys,resp_LDT.corr,resp_LDT.rt,LDT_rating.response,LDT_rating.rt,key_resp_LDT_instr_2.keys,key_resp_LDT_instr_2.rt,resp_tweets.keys,resp_tweets.rt,participant,date,expName,psychopyVersion,frameRate,
,,,,,,,,,,,,,,,,,,,,,,,,,,,right,901.377804390504,,,,,,,,,,,,,,,,,,,,,,,,,,,,,,,,,,,,,1013,2019_Mar_06_1151,mf_amp_cond1,3.0.4,59.98549407027563,
,,,,,,,,,,,,,,,,,,,,,,,,,,,,,right,3.05104189645499,,,,,,,,,,,,,,,,,,,,,,,,,,,,,,,,,,,1013,2019_Mar_06_1151,mf_amp_cond1,3.0.4,59.98549407027563,
,,,,,,,,,,,,,,,,,,,,,,,,,,,,,,,right,2.734258337528445,,,,,,,,,,,,,,,,,,,,,,,,,,,,,,,,,1013,2019_Mar_06_1151,mf_amp_cond1,3.0.4,59.98549407027563,
scarf,bisebell,&&&&&&&&,,,,,0,0,0,3,,,,,,,,,,,,,,,,,,,,,,,left,1.9173862593015656,AMP_prac,left,1.9173862593015656,,,,,,,,,,,,,,,,,,,,,,,,,,,,1013,2019_Mar_06_1151,mf_amp_cond1,3.0.4,59.98549407027563,
car,cemtuper,&&&&&&&&,,,,,0,1,1,0,,,,,,,,,,,,,,,,,,,,,,,right,1.083843067055568,AMP_prac,right,1.083843067055568,,,,,,,,,,,,,,,,,,,,,,,,,,,,1013,2019_Mar_06_1151,mf_amp_cond1,3.0.4,59.98549407027563,
keyboard,senk,&&&&,,,,,0,2,2,2,,,,,,,,,,,,,,,,,,,,,,,left,0.41703506896737963,AMP_prac,left,0.41703506896737963,,,,,,,,,,,,,,,,,,,,,,,,,,,,1013,2019_Mar_06_1151,mf_amp_cond1,3.0.4,59.98549407027563,
banana,kacket,&&&&&&,,,,,0,3,3,1,,,,,,,,,,,,,,,,,,,,,,,right,0.41704629419837147,AMP_prac,right,0.41704629419837147,,,,,,,,,,,,,,,,,,,,,,,,,,,,1013,2019_Mar_06_1151,mf_amp_cond1,3.0.4,59.98549407027563,
,,,,,,,,,,,,,,,,,,,,,,,,,,,,,,,,,,,,,,right,1.5005808270070702,,,,,,,,,,,,,,,,,,,,,,,,,,1013,2019_Mar_06_1151,mf_amp_cond1,3.0.4,59.98549407027563,
protect,esquisiteness,&&&&&&&&&&&&&,left,fairness.virtue,,,,,,,0,0,0,0,,,,,,,,,,,,,,,,,,,,,AMP,left,0.7337653881404549,,,left,1,0.7337653881404549,1,,,,,,,,,,,,,,,,,,,,,,1013,2019_Mar_06_1151,mf_amp_cond1,3.0.4,59.98549407027563,
hate,scock,&&&&&,right,fairness.vice,,,,,,,0,1,1,1,,,,,,,,,,,,,,,,,,,,,AMP,right,0.18362953048199415,,,right,1,0.18362953048199415,1,,,,,,,,,,,,,,,,,,,,,,1013,2019_Mar_06_1151,mf_amp_cond1,3.0.4,59.98549407027563,
viscs,fornicalion,&&&&&&&&&&&,None,nonword,,,,,,,0,2,2,2,,,,,,,,,,,,,,,,,,,,,AMP,left,0.15028024662751704,,,left,0,0.15028024662751704,0,,,,,,,,,,,,,,,,,,,,,,1013,2019_Mar_06_1151,mf_amp_cond1,3.0.4,59.98549407027563,
baklara,reprisols,&&&&&&&&&,None,nonword,,,,,,,0,3,3,3,,,,,,,,,,,,,,,,,,,,,AMP,right,0.3336977801518515,,,right,0,0.3336977801518515,0,,,,,,,,,,,,,,,,,,,,,,1013,2019_Mar_06_1151,mf_amp_cond1,3.0.4,59.98549407027563,
lachelor,suggists,&&&&&&&&,None,nonword,,,,,,,0,4,4,4,,,,,,,,,,,,,,,,,,,,,AMP,left,0.3669774674344808,,,left,0,0.3669774674344808,0,,,,,,,,,,,,,,,,,,,,,,1013,2019_Mar_06_1151,mf_amp_cond1,3.0.4,59.98549407027563,
embrace,gillipede,&&&&&&&&&,left,authority.virtue,,,,,,,0,5,5,5,,,,,,,,,,,,,,,,,,,,,AMP,right,0.05028884194325656,,,right,0,0.05028884194325656,0,,,,,,,,,,,,,,,,,,,,,,1013,2019_Mar_06_1151,mf_amp_cond1,3.0.4,59.98549407027563,
gun,lursuer,&&&&&&&,right,authority.vice,,,,,,,0,6,6,6,,,,,,,,,,,,,,,,,,,,,AMP,left,0.033582769334316254,,,left,0,0.033582769334316254,0,,,,,,,,,,,,,,,,,,,,,,1013,2019_Mar_06_1151,mf_amp_cond1,3.0.4,59.98549407027563,
voter,neneficence,&&&&&&&&&&&,right,fairness.vice,,,,,,,0,7,7,7,,,,,,,,,,,,,,,,,,,,,AMP,left,0.11697971250396222,,,left,0,0.11697971250396222,0,,,,,,,,,,,,,,,,,,,,,,1013,2019_Mar_06_1151,mf_amp_cond1,3.0.4,59.98549407027563,
friends,perified,&&&&&&&&,left,loyalty.virtue,,,,,,,0,8,8,8,,,,,,,,,,,,,,,,,,,,,AMP,left,0.36700088006909937,,,left,1,0.36700088006909937,1,,,,,,,,,,,,,,,,,,,,,,1013,2019_Mar_06_1151,mf_amp_cond1,3.0.4,59.98549407027563,
clean,neutralust,&&&&&&&&&&,left,sanctity.virtue,,,,,,,0,9,9,9,,,,,,,,,,,,,,,,,,,,,AMP,left,0.8337866200599819,,,left,1,0.8337866200599819,1,,,,,,,,,,,,,,,,,,,,,,1013,2019_Mar_06_1151,mf_amp_cond1,3.0.4,59.98549407027563,
torture,hatigue,&&&&&&&,right,care.vice,,,,,,,0,10,10,10,,,,,,,,,,,,,,,,,,,,,AMP,left,0.2169595711166039,,,left,0,0.2169595711166039,0,,,,,,,,,,,,,,,,,,,,,,1013,2019_Mar_06_1151,mf_amp_cond1,3.0.4,59.98549407027563,
riot,hescribe,&&&&&&&&,right,authority.vice,,,,,,,0,11,11,11,,,,,,,,,,,,,,,,,,,,,AMP,left,0.23364704195410013,,,left,0,0.23364704195410013,0,,,,,,,,,,,,,,,,,,,,,,1013,2019_Mar_06_1151,mf_amp_cond1,3.0.4,59.98549407027563,
charges,saned,&&&&&,right,fairness.vice,,,,,,,0,12,12,12,,,,,,,,,,,,,,,,,,,,,AMP,right,0.15029243403114378,,,right,1,0.15029243403114378,1,,,,,,,,,,,,,,,,,,,,,,1013,2019_Mar_06_1151,mf_amp_cond1,3.0.4,59.98549407027563,
violations,pafer,&&&&&,right,sanctity.vice,,,,,,,0,13,13,13,,,,,,,,,,,,,,,,,,,,,AMP,left,0.06691152695566416,,,left,0,0.06691152695566416,0,,,,,,,,,,,,,,,,,,,,,,1013,2019_Mar_06_1151,mf_amp_cond1,3.0.4,59.98549407027563,
interests,menizen,&&&&&&&,left,fairness.virtue,,,,,,,0,14,14,14,,,,,,,,,,,,,,,,,,,,,AMP,right,0.06692628015298396,,,right,0,0.06692628015298396,0,,,,,,,,,,,,,,,,,,,,,,1013,2019_Mar_06_1151,mf_amp_cond1,3.0.4,59.98549407027563,
restore,festate,&&&&&&&,left,care.virtue,,,,,,,0,15,15,15,,,,,,,,,,,,,,,,,,,,,AMP,left,0.03358790080528706,,,left,1,0.03358790080528706,1,,,,,,,,,,,,,,,,,,,,,,1013,2019_Mar_06_1151,mf_amp_cond1,3.0.4,59.98549407027563,
harassment,juck,&&&&,right,sanctity.vice,,,,,,,0,16,16,16,,,,,,,,,,,,,,,,,,,,,AMP,right,0.4502611957723275,,,right,1,0.4502611957723275,1,,,,,,,,,,,,,,,,,,,,,,1013,2019_Mar_06_1151,mf_amp_cond1,3.0.4,59.98549407027563,
loyalty,iptervention,&&&&&&&&&&&&,left,loyalty.virtue,,,,,,,0,17,17,17,,,,,,,,,,,,,,,,,,,,,AMP,left,0.3670274999458343,,,left,1,0.3670274999458343,1,,,,,,,,,,,,,,,,,,,,,,1013,2019_Mar_06_1151,mf_amp_cond1,3.0.4,59.98549407027563,
groups,tenuflect,&&&&&&&&&,right,loyalty.vice,,,,,,,0,18,18,18,,,,,,,,,,,,,,,,,,,,,AMP,right,0.31696829467546195,,,right,1,0.31696829467546195,1,,,,,,,,,,,,,,,,,,,,,,1013,2019_Mar_06_1151,mf_amp_cond1,3.0.4,59.98549407027563,
sharing,shoirmaster,&&&&&&&&&&&,left,loyalty.virtue,,,,,,,0,19,19,19,,,,,,,,,,,,,,,,,,,,,AMP,left,0.33366250072140247,,,left,1,0.33366250072140247,1,,,,,,,,,,,,,,,,,,,,,,1013,2019_Mar_06_1151,mf_amp_cond1,3.0.4,59.98549407027563,
thadowed,wonderfujnoss,&&&&&&&&&&&&&,None,nonword,,,,,,,0,20,20,20,,,,,,,,,,,,,,,,,,,,,AMP,right,0.2503143072826788,,,right,0,0.2503143072826788,0,,,,,,,,,,,,,,,,,,,,,,1013,2019_Mar_06_1151,mf_amp_cond1,3.0.4,59.98549407027563,
faith,wump,&&&&,left,sanctity.virtue,,,,,,,0,21,21,21,,,,,,,,,,,,,,,,,,,,,AMP,right,0.16694590833503753,,,right,0,0.16694590833503753,0,,,,,,,,,,,,,,,,,,,,,,1013,2019_Mar_06_1151,mf_amp_cond1,3.0.4,59.98549407027563,
safety,troubla,&&&&&&&,left,care.virtue,,,,,,,0,22,22,22,,,,,,,,,,,,,,,,,,,,,AMP,right,0.016909730969928205,,,right,0,0.016909730969928205,0,,,,,,,,,,,,,,,,,,,,,,1013,2019_Mar_06_1151,mf_amp_cond1,3.0.4,59.98549407027563,
intelligence,laming,&&&&&&,left,loyalty.virtue,,,,,,,0,23,23,23,,,,,,,,,,,,,,,,,,,,,AMP,right,0.11693320784252137,,,right,0,0.11693320784252137,0,,,,,,,,,,,,,,,,,,,,,,1013,2019_Mar_06_1151,mf_amp_cond1,3.0.4,59.98549407027563,
growth,godlaness,&&&&&&&&&,left,care.virtue,,,,,,,0,24,24,24,,,,,,,,,,,,,,,,,,,,,AMP,right,0.1669536055997014,,,right,0,0.1669536055997014,0,,,,,,,,,,,,,,,,,,,,,,1013,2019_Mar_06_1151,mf_amp_cond1,3.0.4,59.98549407027563,
police,carvels,&&&&&&&,right,authority.vice,,,,,,,0,25,25,25,,,,,,,,,,,,,,,,,,,,,AMP,right,0.050249393098056316,,,right,1,0.050249393098056316,1,,,,,,,,,,,,,,,,,,,,,,1013,2019_Mar_06_1151,mf_amp_cond1,3.0.4,59.98549407027563,
promised,aubos,&&&&&,left,loyalty.virtue,,,,,,,0,26,26,26,,,,,,,,,,,,,,,,,,,,,AMP,left,0.2836526866303757,,,left,1,0.2836526866303757,1,,,,,,,,,,,,,,,,,,,,,,1013,2019_Mar_06_1151,mf_amp_cond1,3.0.4,59.98549407027563,
shot,gandbrake,&&&&&&&&&,right,care.vice,,,,,,,0,27,27,27,,,,,,,,,,,,,,,,,,,,,AMP,left,0.11694186727982014,,,left,0,0.11694186727982014,0,,,,,,,,,,,,,,,,,,,,,,1013,2019_Mar_06_1151,mf_amp_cond1,3.0.4,59.98549407027563,
pleasant,gazily,&&&&&&,None,control,,,,,,,0,28,28,28,,,,,,,,,,,,,,,,,,,,,AMP,right,0.2503027613274753,,,right,0,0.2503027613274753,0,,,,,,,,,,,,,,,,,,,,,,1013,2019_Mar_06_1151,mf_amp_cond1,3.0.4,59.98549407027563,
progress,quarterbocks,&&&&&&&&&&&&,left,authority.virtue,,,,,,,0,29,29,29,,,,,,,,,,,,,,,,,,,,,AMP,right,0.767102163983509,,,right,0,0.767102163983509,0,,,,,,,,,,,,,,,,,,,,,,1013,2019_Mar_06_1151,mf_amp_cond1,3.0.4,59.98549407027563,
respect,framatic,&&&&&&&&,left,sanctity.virtue,,,,,,,0,30,30,30,,,,,,,,,,,,,,,,,,,,,AMP,right,0.350385571597144,,,right,0,0.350385571597144,0,,,,,,,,,,,,,,,,,,,,,,1013,2019_Mar_06_1151,mf_amp_cond1,3.0.4,59.98549407027563,
crime,pullness,&&&&&&&&,right,fairness.vice,,,,,,,0,31,31,31,,,,,,,,,,,,,,,,,,,,,AMP,left,0.11694122583139688,,,left,0,0.11694122583139688,0,,,,,,,,,,,,,,,,,,,,,,1013,2019_Mar_06_1151,mf_amp_cond1,3.0.4,59.98549407027563,
commitment,ugeasily,&&&&&&&&,left,sanctity.virtue,,,,,,,0,32,32,32,,,,,,,,,,,,,,,,,,,,,AMP,left,0.2836568560451269,,,left,1,0.2836568560451269,1,,,,,,,,,,,,,,,,,,,,,,1013,2019_Mar_06_1151,mf_amp_cond1,3.0.4,59.98549407027563,
promises,disregord,&&&&&&&&&,left,fairness.virtue,,,,,,,0,33,33,33,,,,,,,,,,,,,,,,,,,,,AMP,left,0.38369284092914313,,,left,1,0.38369284092914313,1,,,,,,,,,,,,,,,,,,,,,,1013,2019_Mar_06_1151,mf_amp_cond1,3.0.4,59.98549407027563,
powerful,imebreaker,&&&&&&&&&&,left,authority.virtue,,,,,,,0,34,34,34,,,,,,,,,,,,,,,,,,,,,AMP,right,0.43369784427341074,,,right,0,0.43369784427341074,0,,,,,,,,,,,,,,,,,,,,,,1013,2019_Mar_06_1151,mf_amp_cond1,3.0.4,59.98549407027563,
fear,uller,&&&&&,right,sanctity.vice,,,,,,,0,35,35,35,,,,,,,,,,,,,,,,,,,,,AMP,right,0.4336895054439083,,,right,1,0.4336895054439083,1,,,,,,,,,,,,,,,,,,,,,,1013,2019_Mar_06_1151,mf_amp_cond1,3.0.4,59.98549407027563,
strong,vurtain,&&&&&&&,left,loyalty.virtue,,,,,,,0,36,36,36,,,,,,,,,,,,,,,,,,,,,AMP,left,0.33369072421919554,,,left,1,0.33369072421919554,1,,,,,,,,,,,,,,,,,,,,,,1013,2019_Mar_06_1151,mf_amp_cond1,3.0.4,59.98549407027563,
prones,Lacedonia,&&&&&&&&&,None,nonword,,,,,,,0,37,37,37,,,,,,,,,,,,,,,,,,,,,AMP,right,0.11694058438297361,,,right,0,0.11694058438297361,0,,,,,,,,,,,,,,,,,,,,,,1013,2019_Mar_06_1151,mf_amp_cond1,3.0.4,59.98549407027563,
help,smapper,&&&&&&&,left,care.virtue,,,,,,,0,38,38,38,,,,,,,,,,,,,,,,,,,,,AMP,left,0.01691357954405248,,,left,1,0.01691357954405248,1,,,,,,,,,,,,,,,,,,,,,,1013,2019_Mar_06_1151,mf_amp_cond1,3.0.4,59.98549407027563,
injured,strofe,&&&&&&,right,care.vice,,,,,,,0,39,39,39,,,,,,,,,,,,,,,,,,,,,AMP,left,0.28363953705411404,,,left,0,0.28363953705411404,0,,,,,,,,,,,,,,,,,,,,,,1013,2019_Mar_06_1151,mf_amp_cond1,3.0.4,59.98549407027563,
gournful,hasks,&&&&&,None,nonword,,,,,,,0,40,40,40,,,,,,,,,,,,,,,,,,,,,AMP,left,0.0669256387045607,,,left,0,0.0669256387045607,0,,,,,,,,,,,,,,,,,,,,,,1013,2019_Mar_06_1151,mf_amp_cond1,3.0.4,59.98549407027563,
peace,brotesque,&&&&&&&&&,left,care.virtue,,,,,,,0,41,41,41,,,,,,,,,,,,,,,,,,,,,AMP,right,0.1336129812989384,,,right,0,0.1336129812989384,0,,,,,,,,,,,,,,,,,,,,,,1013,2019_Mar_06_1151,mf_amp_cond1,3.0.4,59.98549407027563,
support,crinking,&&&&&&&&,left,loyalty.virtue,,,,,,,0,42,42,42,,,,,,,,,,,,,,,,,,,,,AMP,right,0.050260297721251845,,,right,0,0.050260297721251845,0,,,,,,,,,,,,,,,,,,,,,,1013,2019_Mar_06_1151,mf_amp_cond1,3.0.4,59.98549407027563,
credit,tove,&&&&,left,fairness.virtue,,,,,,,0,43,43,43,,,,,,,,,,,,,,,,,,,,,AMP,right,0.6837667993968353,,,right,0,0.6837667993968353,0,,,,,,,,,,,,,,,,,,,,,,1013,2019_Mar_06_1151,mf_amp_cond1,3.0.4,59.98549407027563,
improve,yane,&&&&,left,care.virtue,,,,,,,0,44,44,44,,,,,,,,,,,,,,,,,,,,,AMP,right,0.500376848038286,,,right,0,0.500376848038286,0,,,,,,,,,,,,,,,,,,,,,,1013,2019_Mar_06_1151,mf_amp_cond1,3.0.4,59.98549407027563,
ability,chadows,&&&&&&&,left,authority.virtue,,,,,,,0,45,45,45,,,,,,,,,,,,,,,,,,,,,AMP,right,0.40034888102672994,,,right,0,0.40034888102672994,0,,,,,,,,,,,,,,,,,,,,,,1013,2019_Mar_06_1151,mf_amp_cond1,3.0.4,59.98549407027563,
arrests,glacenta,&&&&&&&&,right,authority.vice,,,,,,,0,46,46,46,,,,,,,,,,,,,,,,,,,,,AMP,right,0.40037838742136955,,,right,1,0.40037838742136955,1,,,,,,,,,,,,,,,,,,,,,,1013,2019_Mar_06_1151,mf_amp_cond1,3.0.4,59.98549407027563,
killed,forepo,&&&&&&,right,care.vice,,,,,,,0,47,47,47,,,,,,,,,,,,,,,,,,,,,AMP,left,0.050250034662894905,,,left,0,0.050250034662894905,0,,,,,,,,,,,,,,,,,,,,,,1013,2019_Mar_06_1151,mf_amp_cond1,3.0.4,59.98549407027563,
drug,unreflectuve,&&&&&&&&&&&&,right,sanctity.vice,,,,,,,0,48,48,48,,,,,,,,,,,,,,,,,,,,,AMP,right,0.33367116015870124,,,right,1,0.33367116015870124,1,,,,,,,,,,,,,,,,,,,,,,1013,2019_Mar_06_1151,mf_amp_cond1,3.0.4,59.98549407027563,
celebrated,photocalkodes,&&&&&&&&&&&&&,left,authority.virtue,,,,,,,0,49,49,49,,,,,,,,,,,,,,,,,,,,,AMP,left,0.05027569236699492,,,left,1,0.05027569236699492,1,,,,,,,,,,,,,,,,,,,,,,1013,2019_Mar_06_1151,mf_amp_cond1,3.0.4,59.98549407027563,
seachwear,crilfully,&&&&&&&&&,None,nonword,,,,,,,0,50,50,50,,,,,,,,,,,,,,,,,,,,,AMP,left,0.4837034889496863,,,left,0,0.4837034889496863,0,,,,,,,,,,,,,,,,,,,,,,1013,2019_Mar_06_1151,mf_amp_cond1,3.0.4,59.98549407027563,
slavery,gusinesslike,&&&&&&&&&&&&,right,loyalty.vice,,,,,,,0,51,51,51,,,,,,,,,,,,,,,,,,,,,AMP,right,0.6170900407014415,,,right,1,0.6170900407014415,1,,,,,,,,,,,,,,,,,,,,,,1013,2019_Mar_06_1151,mf_amp_cond1,3.0.4,59.98549407027563,
men,sidearbs,&&&&&&&&,right,loyalty.vice,,,,,,,0,52,52,52,,,,,,,,,,,,,,,,,,,,,AMP,left,0.5170511692995206,,,left,0,0.5170511692995206,0,,,,,,,,,,,,,,,,,,,,,,1013,2019_Mar_06_1151,mf_amp_cond1,3.0.4,59.98549407027563,
betrayal,sgrawl,&&&&&&,right,loyalty.vice,,,,,,,0,53,53,53,,,,,,,,,,,,,,,,,,,,,AMP,right,0.15030782867688686,,,right,1,0.15030782867688686,1,,,,,,,,,,,,,,,,,,,,,,1013,2019_Mar_06_1151,mf_amp_cond1,3.0.4,59.98549407027563,
threatened,sickyay,&&&&&&&,right,fairness.vice,,,,,,,0,54,54,54,,,,,,,,,,,,,,,,,,,,,AMP,left,0.1002758847316727,,,left,0,0.1002758847316727,0,,,,,,,,,,,,,,,,,,,,,,1013,2019_Mar_06_1151,mf_amp_cond1,3.0.4,59.98549407027563,
forced,slending,&&&&&&&&,right,fairness.vice,,,,,,,0,55,55,55,,,,,,,,,,,,,,,,,,,,,AMP,right,0.41705174650996923,,,right,1,0.41705174650996923,1,,,,,,,,,,,,,,,,,,,,,,1013,2019_Mar_06_1151,mf_amp_cond1,3.0.4,59.98549407027563,
rejected,epigrach,&&&&&&&&,right,authority.vice,,,,,,,0,56,56,56,,,,,,,,,,,,,,,,,,,,,AMP,left,0.38365756161510944,,,left,0,0.38365756161510944,0,,,,,,,,,,,,,,,,,,,,,,1013,2019_Mar_06_1151,mf_amp_cond1,3.0.4,59.98549407027563,
army,tabin,&&&&&,right,loyalty.vice,,,,,,,0,57,57,57,,,,,,,,,,,,,,,,,,,,,AMP,left,0.05031417892314494,,,left,0,0.05031417892314494,0,,,,,,,,,,,,,,,,,,,,,,1013,2019_Mar_06_1151,mf_amp_cond1,3.0.4,59.98549407027563,
corruption,abointment,&&&&&&&&&&,right,sanctity.vice,,,,,,,0,58,58,58,,,,,,,,,,,,,,,,,,,,,AMP,right,0.30033566732890904,,,right,1,0.30033566732890904,1,,,,,,,,,,,,,,,,,,,,,,1013,2019_Mar_06_1151,mf_amp_cond1,3.0.4,59.98549407027563,
unpleasant,ecgagement,&&&&&&&&&&,None,control,,,,,,,0,59,59,59,,,,,,,,,,,,,,,,,,,,,AMP,left,0.35032912460155785,,,left,0,0.35032912460155785,0,,,,,,,,,,,,,,,,,,,,,,1013,2019_Mar_06_1151,mf_amp_cond1,3.0.4,59.98549407027563,
violence,infet,&&&&&,right,care.vice,,,,,,,0,60,60,60,,,,,,,,,,,,,,,,,,,,,AMP,left,0.016912617371417582,,,left,0,0.016912617371417582,0,,,,,,,,,,,,,,,,,,,,,,1013,2019_Mar_06_1151,mf_amp_cond1,3.0.4,59.98549407027563,
bluently,brudent,&&&&&&&,None,nonword,,,,,,,0,61,61,61,,,,,,,,,,,,,,,,,,,,,AMP,right,0.18367250717710704,,,right,0,0.18367250717710704,0,,,,,,,,,,,,,,,,,,,,,,1013,2019_Mar_06_1151,mf_amp_cond1,3.0.4,59.98549407027563,
synchronazers,mecan,&&&&&,None,nonword,,,,,,,0,62,62,62,,,,,,,,,,,,,,,,,,,,,AMP,left,0.11694924382027239,,,left,0,0.11694924382027239,0,,,,,,,,,,,,,,,,,,,,,,1013,2019_Mar_06_1151,mf_amp_cond1,3.0.4,59.98549407027563,
peaceful,proached,&&&&&&&&,left,authority.virtue,,,,,,,0,63,63,63,,,,,,,,,,,,,,,,,,,,,AMP,right,0.1002717154333368,,,right,0,0.1002717154333368,0,,,,,,,,,,,,,,,,,,,,,,1013,2019_Mar_06_1151,mf_amp_cond1,3.0.4,59.98549407027563,
prosecution,Boeinf,&&&&&&,right,authority.vice,,,,,,,0,64,64,64,,,,,,,,,,,,,,,,,,,,,AMP,left,0.00028864946216344833,,,left,0,0.00028864946216344833,0,,,,,,,,,,,,,,,,,,,,,,1013,2019_Mar_06_1151,mf_amp_cond1,3.0.4,59.98549407027563,
protesters,fontacts,&&&&&&&&,right,authority.vice,,,,,,,0,65,65,65,,,,,,,,,,,,,,,,,,,,,AMP,left,0.11692935915198177,,,left,0,0.11692935915198177,0,,,,,,,,,,,,,,,,,,,,,,1013,2019_Mar_06_1151,mf_amp_cond1,3.0.4,59.98549407027563,
critics,pistraught,&&&&&&&&&&,right,loyalty.vice,,,,,,,0,66,66,66,,,,,,,,,,,,,,,,,,,,,AMP,right,0.7670999189140275,,,right,1,0.7670999189140275,1,,,,,,,,,,,,,,,,,,,,,,1013,2019_Mar_06_1151,mf_amp_cond1,3.0.4,59.98549407027563,
benefit,refuejing,&&&&&&&&&,left,fairness.virtue,,,,,,,0,67,67,67,,,,,,,,,,,,,,,,,,,,,AMP,right,0.18367122439667583,,,right,0,0.18367122439667583,0,,,,,,,,,,,,,,,,,,,,,,1013,2019_Mar_06_1151,mf_amp_cond1,3.0.4,59.98549407027563,
attacks,idexpressible,&&&&&&&&&&&&&,right,care.vice,,,,,,,0,68,68,68,,,,,,,,,,,,,,,,,,,,,AMP,right,0.01692352199461311,,,right,1,0.01692352199461311,1,,,,,,,,,,,,,,,,,,,,,,1013,2019_Mar_06_1151,mf_amp_cond1,3.0.4,59.98549407027563,
death,dramens,&&&&&&&,right,care.vice,,,,,,,0,69,69,69,,,,,,,,,,,,,,,,,,,,,AMP,right,0.18361766380257905,,,right,1,0.18361766380257905,1,,,,,,,,,,,,,,,,,,,,,,1013,2019_Mar_06_1151,mf_amp_cond1,3.0.4,59.98549407027563,
openet,dormandi,&&&&&&&&,None,nonword,,,,,,,0,70,70,70,,,,,,,,,,,,,,,,,,,,,AMP,left,0.38368129497393966,,,left,0,0.38368129497393966,0,,,,,,,,,,,,,,,,,,,,,,1013,2019_Mar_06_1151,mf_amp_cond1,3.0.4,59.98549407027563,
terrorist,fonderland,&&&&&&&&&&,right,loyalty.vice,,,,,,,0,71,71,71,,,,,,,,,,,,,,,,,,,,,AMP,left,0.15031712967902422,,,left,0,0.15031712967902422,0,,,,,,,,,,,,,,,,,,,,,,1013,2019_Mar_06_1151,mf_amp_cond1,3.0.4,59.98549407027563,
perfect,gowlands,&&&&&&&&,left,sanctity.virtue,,,,,,,0,72,72,72,,,,,,,,,,,,,,,,,,,,,AMP,left,0.1669503984740004,,,left,1,0.1669503984740004,1,,,,,,,,,,,,,,,,,,,,,,1013,2019_Mar_06_1151,mf_amp_cond1,3.0.4,59.98549407027563,
racist,discovars,&&&&&&&&&,right,sanctity.vice,,,,,,,0,73,73,73,,,,,,,,,,,,,,,,,,,,,AMP,left,0.033594315173104405,,,left,0,0.033594315173104405,0,,,,,,,,,,,,,,,,,,,,,,1013,2019_Mar_06_1151,mf_amp_cond1,3.0.4,59.98549407027563,
win,nackers,&&&&&&&,left,fairness.virtue,,,,,,,0,74,74,74,,,,,,,,,,,,,,,,,,,,,AMP,left,0.016909730969928205,,,left,1,0.016909730969928205,1,,,,,,,,,,,,,,,,,,,,,,1013,2019_Mar_06_1151,mf_amp_cond1,3.0.4,59.98549407027563,
values,Daptist,&&&&&&&,left,sanctity.virtue,,,,,,,0,75,75,75,,,,,,,,,,,,,,,,,,,,,AMP,left,0.016881507472135127,,,left,1,0.016881507472135127,1,,,,,,,,,,,,,,,,,,,,,,1013,2019_Mar_06_1151,mf_amp_cond1,3.0.4,59.98549407027563,
useful,thabbily,&&&&&&&&,left,authority.virtue,,,,,,,0,76,76,76,,,,,,,,,,,,,,,,,,,,,AMP,right,0.033591108047403395,,,right,0,0.033591108047403395,0,,,,,,,,,,,,,,,,,,,,,,1013,2019_Mar_06_1151,mf_amp_cond1,3.0.4,59.98549407027563,
freedom,greaks,&&&&&&,left,sanctity.virtue,,,,,,,0,77,77,77,,,,,,,,,,,,,,,,,,,,,AMP,right,0.5670587382046506,,,right,0,0.5670587382046506,0,,,,,,,,,,,,,,,,,,,,,,1013,2019_Mar_06_1151,mf_amp_cond1,3.0.4,59.98549407027563,
free,tracious,&&&&&&&&,left,fairness.virtue,,,,,,,0,78,78,78,,,,,,,,,,,,,,,,,,,,,AMP,right,0.15029083041008562,,,right,0,0.15029083041008562,0,,,,,,,,,,,,,,,,,,,,,,1013,2019_Mar_06_1151,mf_amp_cond1,3.0.4,59.98549407027563,
good,lorthwhile,&&&&&&&&&&,left,care.virtue,,,,,,,0,79,79,79,,,,,,,,,,,,,,,,,,,,,AMP,right,0.11695020599290729,,,right,0,0.11695020599290729,0,,,,,,,,,,,,,,,,,,,,,,1013,2019_Mar_06_1151,mf_amp_cond1,3.0.4,59.98549407027563,
terrorists,grovelire,&&&&&&&&&,right,fairness.vice,,,,,,,0,80,80,80,,,,,,,,,,,,,,,,,,,,,AMP,right,0.10029288311488926,,,right,1,0.10029288311488926,1,,,,,,,,,,,,,,,,,,,,,,1013,2019_Mar_06_1151,mf_amp_cond1,3.0.4,59.98549407027563,
abuse,simplustic,&&&&&&&&&&,right,sanctity.vice,,,,,,,0,81,81,81,,,,,,,,,,,,,,,,,,,,,AMP,right,0.08360445010475814,,,right,1,0.08360445010475814,1,,,,,,,,,,,,,,,,,,,,,,1013,2019_Mar_06_1151,mf_amp_cond1,3.0.4,59.98549407027563,
injured,chadows,&&&&&&&,right,care.vice,,,,,,,0,82,82,82,,,,,,,,,,,,,,,,,,,,,AMP,left,1.5340016317786649,,,left,0,1.5340016317786649,0,,,,,,,,,,,,,,,,,,,,,,1013,2019_Mar_06_1151,mf_amp_cond1,3.0.4,59.98549407027563,
forced,disregord,&&&&&&&&&,right,fairness.vice,,,,,,,0,83,83,83,,,,,,,,,,,,,,,,,,,,,AMP,right,0.0669413540745154,,,right,1,0.0669413540745154,1,,,,,,,,,,,,,,,,,,,,,,1013,2019_Mar_06_1151,mf_amp_cond1,3.0.4,59.98549407027563,
prones,yane,&&&&,None,nonword,,,,,,,0,84,84,84,,,,,,,,,,,,,,,,,,,,,AMP,left,0.10028005414642394,,,left,0,0.10028005414642394,0,,,,,,,,,,,,,,,,,,,,,,1013,2019_Mar_06_1151,mf_amp_cond1,3.0.4,59.98549407027563,
violence,imebreaker,&&&&&&&&&&,right,care.vice,,,,,,,0,85,85,85,,,,,,,,,,,,,,,,,,,,,AMP,left,0.5671257690992206,,,left,0,0.5671257690992206,0,,,,,,,,,,,,,,,,,,,,,,1013,2019_Mar_06_1151,mf_amp_cond1,3.0.4,59.98549407027563,
protect,infet,&&&&&,left,fairness.virtue,,,,,,,0,86,86,86,,,,,,,,,,,,,,,,,,,,,AMP,right,0.2836507622851059,,,right,0,0.2836507622851059,0,,,,,,,,,,,,,,,,,,,,,,1013,2019_Mar_06_1151,mf_amp_cond1,3.0.4,59.98549407027563,
drug,perified,&&&&&&&&,right,sanctity.vice,,,,,,,0,87,87,87,,,,,,,,,,,,,,,,,,,,,AMP,right,0.36700761527754366,,,right,1,0.36700761527754366,1,,,,,,,,,,,,,,,,,,,,,,1013,2019_Mar_06_1151,mf_amp_cond1,3.0.4,59.98549407027563,
corruption,tenuflect,&&&&&&&&&,right,sanctity.vice,,,,,,,0,88,88,88,,,,,,,,,,,,,,,,,,,,,AMP,right,0.33366250072140247,,,right,1,0.33366250072140247,1,,,,,,,,,,,,,,,,,,,,,,1013,2019_Mar_06_1151,mf_amp_cond1,3.0.4,59.98549407027563,
promises,wonderfujnoss,&&&&&&&&&&&&&,left,fairness.virtue,,,,,,,0,89,89,89,,,,,,,,,,,,,,,,,,,,,AMP,right,0.15030654578004032,,,right,0,0.15030654578004032,0,,,,,,,,,,,,,,,,,,,,,,1013,2019_Mar_06_1151,mf_amp_cond1,3.0.4,59.98549407027563,
threatened,aubos,&&&&&,right,fairness.vice,,,,,,,0,90,90,90,,,,,,,,,,,,,,,,,,,,,AMP,right,0.2503046855563298,,,right,1,0.2503046855563298,1,,,,,,,,,,,,,,,,,,,,,,1013,2019_Mar_06_1151,mf_amp_cond1,3.0.4,59.98549407027563,
credit,carvels,&&&&&&&,left,fairness.virtue,,,,,,,0,91,91,91,,,,,,,,,,,,,,,,,,,,,AMP,left,0.11695533758029342,,,left,1,0.11695533758029342,1,,,,,,,,,,,,,,,,,,,,,,1013,2019_Mar_06_1151,mf_amp_cond1,3.0.4,59.98549407027563,
critics,brudent,&&&&&&&,right,loyalty.vice,,,,,,,0,92,92,92,,,,,,,,,,,,,,,,,,,,,AMP,left,0.05025356262922287,,,left,0,0.05025356262922287,0,,,,,,,,,,,,,,,,,,,,,,1013,2019_Mar_06_1151,mf_amp_cond1,3.0.4,59.98549407027563,
interests,crinking,&&&&&&&&,left,fairness.virtue,,,,,,,0,93,93,93,,,,,,,,,,,,,,,,,,,,,AMP,right,0.06690190534573048,,,right,0,0.06690190534573048,0,,,,,,,,,,,,,,,,,,,,,,1013,2019_Mar_06_1151,mf_amp_cond1,3.0.4,59.98549407027563,
embrace,troubla,&&&&&&&,left,authority.virtue,,,,,,,0,94,94,94,,,,,,,,,,,,,,,,,,,,,AMP,left,0.05024265812244266,,,left,1,0.05024265812244266,1,,,,,,,,,,,,,,,,,,,,,,1013,2019_Mar_06_1151,mf_amp_cond1,3.0.4,59.98549407027563,
harassment,ugeasily,&&&&&&&&,right,sanctity.vice,,,,,,,0,95,95,95,,,,,,,,,,,,,,,,,,,,,AMP,right,0.06693878828082234,,,right,1,0.06693878828082234,1,,,,,,,,,,,,,,,,,,,,,,1013,2019_Mar_06_1151,mf_amp_cond1,3.0.4,59.98549407027563,
peaceful,fornicalion,&&&&&&&&&&&,left,authority.virtue,,,,,,,0,96,96,96,,,,,,,,,,,,,,,,,,,,,AMP,left,0.3003286113962531,,,left,1,0.3003286113962531,1,,,,,,,,,,,,,,,,,,,,,,1013,2019_Mar_06_1151,mf_amp_cond1,3.0.4,59.98549407027563,
terrorists,shoirmaster,&&&&&&&&&&&,right,fairness.vice,,,,,,,0,97,97,97,,,,,,,,,,,,,,,,,,,,,AMP,left,0.08360765734687448,,,left,0,0.08360765734687448,0,,,,,,,,,,,,,,,,,,,,,,1013,2019_Mar_06_1151,mf_amp_cond1,3.0.4,59.98549407027563,
thadowed,Daptist,&&&&&&&,None,nonword,,,,,,,0,98,98,98,,,,,,,,,,,,,,,,,,,,,AMP,right,0.21695443952921778,,,right,0,0.21695443952921778,0,,,,,,,,,,,,,,,,,,,,,,1013,2019_Mar_06_1151,mf_amp_cond1,3.0.4,59.98549407027563,
shot,fontacts,&&&&&&&&,right,care.vice,,,,,,,0,99,99,99,,,,,,,,,,,,,,,,,,,,,AMP,right,0.11693545279558748,,,right,1,0.11693545279558748,1,,,,,,,,,,,,,,,,,,,,,,1013,2019_Mar_06_1151,mf_amp_cond1,3.0.4,59.98549407027563,
terrorist,hatigue,&&&&&&&,right,loyalty.vice,,,,,,,0,100,100,100,,,,,,,,,,,,,,,,,,,,,AMP,right,0.5503921143244952,,,right,1,0.5503921143244952,1,,,,,,,,,,,,,,,,,,,,,,1013,2019_Mar_06_1151,mf_amp_cond1,3.0.4,59.98549407027563,
baklara,lursuer,&&&&&&&,None,nonword,,,,,,,0,101,101,101,,,,,,,,,,,,,,,,,,,,,AMP,right,0.2334860396804288,,,right,0,0.2334860396804288,0,,,,,,,,,,,,,,,,,,,,,,1013,2019_Mar_06_1151,mf_amp_cond1,3.0.4,59.98549407027563,
viscs,Lacedonia,&&&&&&&&&,None,nonword,,,,,,,0,102,102,102,,,,,,,,,,,,,,,,,,,,,AMP,right,0.2169868324417621,,,right,0,0.2169868324417621,0,,,,,,,,,,,,,,,,,,,,,,1013,2019_Mar_06_1151,mf_amp_cond1,3.0.4,59.98549407027563,
openet,menizen,&&&&&&&,None,nonword,,,,,,,0,103,103,103,,,,,,,,,,,,,,,,,,,,,AMP,right,0.2336441553197801,,,right,0,0.2336441553197801,0,,,,,,,,,,,,,,,,,,,,,,1013,2019_Mar_06_1151,mf_amp_cond1,3.0.4,59.98549407027563,
abuse,esquisiteness,&&&&&&&&&&&&&,right,sanctity.vice,,,,,,,0,104,104,104,,,,,,,,,,,,,,,,,,,,,AMP,right,0.0003075720742344856,,,right,1,0.0003075720742344856,1,,,,,,,,,,,,,,,,,,,,,,1013,2019_Mar_06_1151,mf_amp_cond1,3.0.4,59.98549407027563,
restore,idexpressible,&&&&&&&&&&&&&,left,care.virtue,,,,,,,0,105,105,105,,,,,,,,,,,,,,,,,,,,,AMP,right,0.05020769941620529,,,right,0,0.05020769941620529,0,,,,,,,,,,,,,,,,,,,,,,1013,2019_Mar_06_1151,mf_amp_cond1,3.0.4,59.98549407027563,
gournful,smapper,&&&&&&&,None,nonword,,,,,,,0,106,106,106,,,,,,,,,,,,,,,,,,,,,AMP,left,0.13361330202315003,,,left,0,0.13361330202315003,0,,,,,,,,,,,,,,,,,,,,,,1013,2019_Mar_06_1151,mf_amp_cond1,3.0.4,59.98549407027563,
hate,hasks,&&&&&,right,fairness.vice,,,,,,,0,107,107,107,,,,,,,,,,,,,,,,,,,,,AMP,left,0.01690908952150494,,,left,0,0.01690908952150494,0,,,,,,,,,,,,,,,,,,,,,,1013,2019_Mar_06_1151,mf_amp_cond1,3.0.4,59.98549407027563,
violations,glacenta,&&&&&&&&,right,sanctity.vice,,,,,,,0,108,108,108,,,,,,,,,,,,,,,,,,,,,AMP,left,0.00028800813015550375,,,left,0,0.00028800813015550375,0,,,,,,,,,,,,,,,,,,,,,,1013,2019_Mar_06_1151,mf_amp_cond1,3.0.4,59.98549407027563,
lachelor,strofe,&&&&&&,None,nonword,,,,,,,0,109,109,109,,,,,,,,,,,,,,,,,,,,,AMP,left,0.10027524339966476,,,left,0,0.10027524339966476,0,,,,,,,,,,,,,,,,,,,,,,1013,2019_Mar_06_1151,mf_amp_cond1,3.0.4,59.98549407027563,
freedom,neutralust,&&&&&&&&&&,left,sanctity.virtue,,,,,,,0,110,110,110,,,,,,,,,,,,,,,,,,,,,AMP,left,0.06693205318879336,,,left,1,0.06693205318879336,1,,,,,,,,,,,,,,,,,,,,,,1013,2019_Mar_06_1151,mf_amp_cond1,3.0.4,59.98549407027563,
slavery,pistraught,&&&&&&&&&&,right,loyalty.vice,,,,,,,0,111,111,111,,,,,,,,,,,,,,,,,,,,,AMP,right,0.06696316320449114,,,right,1,0.06696316320449114,1,,,,,,,,,,,,,,,,,,,,,,1013,2019_Mar_06_1151,mf_amp_cond1,3.0.4,59.98549407027563,
friends,thabbily,&&&&&&&&,left,loyalty.virtue,,,,,,,0,112,112,112,,,,,,,,,,,,,,,,,,,,,AMP,left,0.85048242949415,,,left,1,0.85048242949415,1,,,,,,,,,,,,,,,,,,,,,,1013,2019_Mar_06_1151,mf_amp_cond1,3.0.4,59.98549407027563,
fear,tove,&&&&,right,sanctity.vice,,,,,,,0,113,113,113,,,,,,,,,,,,,,,,,,,,,AMP,left,0.20029006071854383,,,left,0,0.20029006071854383,0,,,,,,,,,,,,,,,,,,,,,,1013,2019_Mar_06_1151,mf_amp_cond1,3.0.4,59.98549407027563,
powerful,Boeinf,&&&&&&,left,authority.virtue,,,,,,,0,114,114,114,,,,,,,,,,,,,,,,,,,,,AMP,right,0.30033085646573454,,,right,0,0.30033085646573454,0,,,,,,,,,,,,,,,,,,,,,,1013,2019_Mar_06_1151,mf_amp_cond1,3.0.4,59.98549407027563,
seachwear,gusinesslike,&&&&&&&&&&&&,None,nonword,,,,,,,0,115,115,115,,,,,,,,,,,,,,,,,,,,,AMP,right,0.016762840328738093,,,right,0,0.016762840328738093,0,,,,,,,,,,,,,,,,,,,,,,1013,2019_Mar_06_1151,mf_amp_cond1,3.0.4,59.98549407027563,
strong,framatic,&&&&&&&&,left,loyalty.virtue,,,,,,,0,116,116,116,,,,,,,,,,,,,,,,,,,,,AMP,right,0.2669559149071574,,,right,0,0.2669559149071574,0,,,,,,,,,,,,,,,,,,,,,,1013,2019_Mar_06_1151,mf_amp_cond1,3.0.4,59.98549407027563,
promised,dormandi,&&&&&&&&,left,loyalty.virtue,,,,,,,0,117,117,117,,,,,,,,,,,,,,,,,,,,,AMP,left,0.11695116828195751,,,left,1,0.11695116828195751,1,,,,,,,,,,,,,,,,,,,,,,1013,2019_Mar_06_1151,mf_amp_cond1,3.0.4,59.98549407027563,
riot,tabin,&&&&&,right,authority.vice,,,,,,,0,118,118,118,,,,,,,,,,,,,,,,,,,,,AMP,right,0.2836674398276955,,,right,1,0.2836674398276955,1,,,,,,,,,,,,,,,,,,,,,,1013,2019_Mar_06_1151,mf_amp_cond1,3.0.4,59.98549407027563,
perfect,saned,&&&&&,left,sanctity.virtue,,,,,,,0,119,119,119,,,,,,,,,,,,,,,,,,,,,AMP,left,0.00028800813015550375,,,left,1,0.00028800813015550375,1,,,,,,,,,,,,,,,,,,,,,,1013,2019_Mar_06_1151,mf_amp_cond1,3.0.4,59.98549407027563,
loyalty,proached,&&&&&&&&,left,loyalty.virtue,,,,,,,0,120,120,120,,,,,,,,,,,,,,,,,,,,,AMP,right,0.23349309561308473,,,right,0,0.23349309561308473,0,,,,,,,,,,,,,,,,,,,,,,1013,2019_Mar_06_1151,mf_amp_cond1,3.0.4,59.98549407027563,
charges,scock,&&&&&,right,fairness.vice,,,,,,,0,121,121,121,,,,,,,,,,,,,,,,,,,,,AMP,right,0.1669561715098098,,,right,1,0.1669561715098098,1,,,,,,,,,,,,,,,,,,,,,,1013,2019_Mar_06_1151,mf_amp_cond1,3.0.4,59.98549407027563,
intelligence,dramens,&&&&&&&,left,loyalty.virtue,,,,,,,0,122,122,122,,,,,,,,,,,,,,,,,,,,,AMP,right,0.18375076341908425,,,right,0,0.18375076341908425,0,,,,,,,,,,,,,,,,,,,,,,1013,2019_Mar_06_1151,mf_amp_cond1,3.0.4,59.98549407027563,
prosecution,unreflectuve,&&&&&&&&&&&&,right,authority.vice,,,,,,,0,123,123,123,,,,,,,,,,,,,,,,,,,,,AMP,right,0.11695629975292832,,,right,1,0.11695629975292832,1,,,,,,,,,,,,,,,,,,,,,,1013,2019_Mar_06_1151,mf_amp_cond1,3.0.4,59.98549407027563,
celebrated,gazily,&&&&&&,left,authority.virtue,,,,,,,0,124,124,124,,,,,,,,,,,,,,,,,,,,,AMP,left,0.31700036698020995,,,left,1,0.31700036698020995,1,,,,,,,,,,,,,,,,,,,,,,1013,2019_Mar_06_1151,mf_amp_cond1,3.0.4,59.98549407027563,
free,quarterbocks,&&&&&&&&&&&&,left,fairness.virtue,,,,,,,0,125,125,125,,,,,,,,,,,,,,,,,,,,,AMP,left,0.6170528369257227,,,left,1,0.6170528369257227,1,,,,,,,,,,,,,,,,,,,,,,1013,2019_Mar_06_1151,mf_amp_cond1,3.0.4,59.98549407027563,
pleasant,brotesque,&&&&&&&&&,None,control,,,,,,,0,126,126,126,,,,,,,,,,,,,,,,,,,,,AMP,right,0.3170051777269691,,,right,0,0.3170051777269691,0,,,,,,,,,,,,,,,,,,,,,,1013,2019_Mar_06_1151,mf_amp_cond1,3.0.4,59.98549407027563,
betrayal,suggists,&&&&&&&&,right,loyalty.vice,,,,,,,0,127,127,127,,,,,,,,,,,,,,,,,,,,,AMP,left,0.26700049522332847,,,left,0,0.26700049522332847,0,,,,,,,,,,,,,,,,,,,,,,1013,2019_Mar_06_1151,mf_amp_cond1,3.0.4,59.98549407027563,
safety,iptervention,&&&&&&&&&&&&,left,care.virtue,,,,,,,0,128,128,128,,,,,,,,,,,,,,,,,,,,,AMP,right,0.2503117414889857,,,right,0,0.2503117414889857,0,,,,,,,,,,,,,,,,,,,,,,1013,2019_Mar_06_1151,mf_amp_cond1,3.0.4,59.98549407027563,
benefit,neneficence,&&&&&&&&&&&,left,fairness.virtue,,,,,,,0,129,129,129,,,,,,,,,,,,,,,,,,,,,AMP,left,0.3336461439030245,,,left,1,0.3336461439030245,1,,,,,,,,,,,,,,,,,,,,,,1013,2019_Mar_06_1151,mf_amp_cond1,3.0.4,59.98549407027563,
peace,reprisols,&&&&&&&&&,left,care.virtue,,,,,,,0,130,130,130,,,,,,,,,,,,,,,,,,,,,AMP,left,0.23364736256189644,,,left,1,0.23364736256189644,1,,,,,,,,,,,,,,,,,,,,,,1013,2019_Mar_06_1151,mf_amp_cond1,3.0.4,59.98549407027563,
support,simplustic,&&&&&&&&&&,left,loyalty.virtue,,,,,,,0,131,131,131,,,,,,,,,,,,,,,,,,,,,AMP,right,0.3336762917460874,,,right,0,0.3336762917460874,0,,,,,,,,,,,,,,,,,,,,,,1013,2019_Mar_06_1151,mf_amp_cond1,3.0.4,59.98549407027563,
values,tracious,&&&&&&&&,left,sanctity.virtue,,,,,,,0,132,132,132,,,,,,,,,,,,,,,,,,,,,AMP,right,0.20031668059527874,,,right,0,0.20031668059527874,0,,,,,,,,,,,,,,,,,,,,,,1013,2019_Mar_06_1151,mf_amp_cond1,3.0.4,59.98549407027563,
army,gandbrake,&&&&&&&&&,right,loyalty.vice,,,,,,,0,133,133,133,,,,,,,,,,,,,,,,,,,,,AMP,left,0.016930257086642087,,,left,0,0.016930257086642087,0,,,,,,,,,,,,,,,,,,,,,,1013,2019_Mar_06_1151,mf_amp_cond1,3.0.4,59.98549407027563,
help,epigrach,&&&&&&&&,left,care.virtue,,,,,,,0,134,134,134,,,,,,,,,,,,,,,,,,,,,AMP,right,0.18363915220834315,,,right,0,0.18363915220834315,0,,,,,,,,,,,,,,,,,,,,,,1013,2019_Mar_06_1151,mf_amp_cond1,3.0.4,59.98549407027563,
killed,abointment,&&&&&&&&&&,right,care.vice,,,,,,,0,135,135,135,,,,,,,,,,,,,,,,,,,,,AMP,left,0.3003382331226021,,,left,0,0.3003382331226021,0,,,,,,,,,,,,,,,,,,,,,,1013,2019_Mar_06_1151,mf_amp_cond1,3.0.4,59.98549407027563,
arrests,grovelire,&&&&&&&&&,right,authority.vice,,,,,,,0,136,136,136,,,,,,,,,,,,,,,,,,,,,AMP,left,0.633739345590584,,,left,0,0.633739345590584,0,,,,,,,,,,,,,,,,,,,,,,1013,2019_Mar_06_1151,mf_amp_cond1,3.0.4,59.98549407027563,
commitment,pullness,&&&&&&&&,left,sanctity.virtue,,,,,,,0,137,137,137,,,,,,,,,,,,,,,,,,,,,AMP,right,0.183617984643206,,,right,0,0.183617984643206,0,,,,,,,,,,,,,,,,,,,,,,1013,2019_Mar_06_1151,mf_amp_cond1,3.0.4,59.98549407027563,
groups,discovars,&&&&&&&&&,right,loyalty.vice,,,,,,,0,138,138,138,,,,,,,,,,,,,,,,,,,,,AMP,right,0.38368321931920946,,,right,1,0.38368321931920946,1,,,,,,,,,,,,,,,,,,,,,,1013,2019_Mar_06_1151,mf_amp_cond1,3.0.4,59.98549407027563,
clean,sickyay,&&&&&&&,left,sanctity.virtue,,,,,,,0,139,139,139,,,,,,,,,,,,,,,,,,,,,AMP,right,0.2669802897144109,,,right,0,0.2669802897144109,0,,,,,,,,,,,,,,,,,,,,,,1013,2019_Mar_06_1151,mf_amp_cond1,3.0.4,59.98549407027563,
good,forepo,&&&&&&,left,care.virtue,,,,,,,0,140,140,140,,,,,,,,,,,,,,,,,,,,,AMP,right,0.0835913005284965,,,right,0,0.0835913005284965,0,,,,,,,,,,,,,,,,,,,,,,1013,2019_Mar_06_1151,mf_amp_cond1,3.0.4,59.98549407027563,
ability,gowlands,&&&&&&&&,left,authority.virtue,,,,,,,0,141,141,141,,,,,,,,,,,,,,,,,,,,,AMP,right,0.5337158688344061,,,right,0,0.5337158688344061,0,,,,,,,,,,,,,,,,,,,,,,1013,2019_Mar_06_1151,mf_amp_cond1,3.0.4,59.98549407027563,
gun,slending,&&&&&&&&,right,authority.vice,,,,,,,0,142,142,142,,,,,,,,,,,,,,,,,,,,,AMP,right,0.2503078927984461,,,right,1,0.2503078927984461,1,,,,,,,,,,,,,,,,,,,,,,1013,2019_Mar_06_1151,mf_amp_cond1,3.0.4,59.98549407027563,
crime,uller,&&&&&,right,fairness.vice,,,,,,,0,143,143,143,,,,,,,,,,,,,,,,,,,,,AMP,left,0.3003372709499672,,,left,0,0.3003372709499672,0,,,,,,,,,,,,,,,,,,,,,,1013,2019_Mar_06_1151,mf_amp_cond1,3.0.4,59.98549407027563,
death,nackers,&&&&&&&,right,care.vice,,,,,,,0,144,144,144,,,,,,,,,,,,,,,,,,,,,AMP,left,0.23364447616040707,,,left,0,0.23364447616040707,0,,,,,,,,,,,,,,,,,,,,,,1013,2019_Mar_06_1151,mf_amp_cond1,3.0.4,59.98549407027563,
rejected,greaks,&&&&&&,right,authority.vice,,,,,,,0,145,145,145,,,,,,,,,,,,,,,,,,,,,AMP,right,0.06692179013043642,,,right,1,0.06692179013043642,1,,,,,,,,,,,,,,,,,,,,,,1013,2019_Mar_06_1151,mf_amp_cond1,3.0.4,59.98549407027563,
respect,juck,&&&&,left,sanctity.virtue,,,,,,,0,146,146,146,,,,,,,,,,,,,,,,,,,,,AMP,left,0.7169470629887655,,,left,1,0.7169470629887655,1,,,,,,,,,,,,,,,,,,,,,,1013,2019_Mar_06_1151,mf_amp_cond1,3.0.4,59.98549407027563,
progress,vurtain,&&&&&&&,left,authority.virtue,,,,,,,0,147,147,147,,,,,,,,,,,,,,,,,,,,,AMP,left,0.21696213691029698,,,left,1,0.21696213691029698,1,,,,,,,,,,,,,,,,,,,,,,1013,2019_Mar_06_1151,mf_amp_cond1,3.0.4,59.98549407027563,
useful,wump,&&&&,left,authority.virtue,,,,,,,0,148,148,148,,,,,,,,,,,,,,,,,,,,,AMP,left,0.6670979304471985,,,left,1,0.6670979304471985,1,,,,,,,,,,,,,,,,,,,,,,1013,2019_Mar_06_1151,mf_amp_cond1,3.0.4,59.98549407027563,
synchronazers,lorthwhile,&&&&&&&&&&,None,nonword,,,,,,,0,149,149,149,,,,,,,,,,,,,,,,,,,,,AMP,left,2.150790194165893,,,left,0,2.150790194165893,0,,,,,,,,,,,,,,,,,,,,,,1013,2019_Mar_06_1151,mf_amp_cond1,3.0.4,59.98549407027563,
sharing,pafer,&&&&&,left,loyalty.virtue,,,,,,,0,150,150,150,,,,,,,,,,,,,,,,,,,,,AMP,left,0.31700164976064116,,,left,1,0.31700164976064116,1,,,,,,,,,,,,,,,,,,,,,,1013,2019_Mar_06_1151,mf_amp_cond1,3.0.4,59.98549407027563,
protesters,sidearbs,&&&&&&&&,right,authority.vice,,,,,,,0,151,151,151,,,,,,,,,,,,,,,,,,,,,AMP,left,0.4670349406078458,,,left,0,0.4670349406078458,0,,,,,,,,,,,,,,,,,,,,,,1013,2019_Mar_06_1151,mf_amp_cond1,3.0.4,59.98549407027563,
win,gillipede,&&&&&&&&&,left,fairness.virtue,,,,,,,0,152,152,152,,,,,,,,,,,,,,,,,,,,,AMP,left,0.1336139434715733,,,left,1,0.1336139434715733,1,,,,,,,,,,,,,,,,,,,,,,1013,2019_Mar_06_1151,mf_amp_cond1,3.0.4,59.98549407027563,
faith,fonderland,&&&&&&&&&&,left,sanctity.virtue,,,,,,,0,153,153,153,,,,,,,,,,,,,,,,,,,,,AMP,left,0.4670272433431819,,,left,1,0.4670272433431819,1,,,,,,,,,,,,,,,,,,,,,,1013,2019_Mar_06_1151,mf_amp_cond1,3.0.4,59.98549407027563,
torture,crilfully,&&&&&&&&&,right,care.vice,,,,,,,0,154,154,154,,,,,,,,,,,,,,,,,,,,,AMP,left,0.03358982515055686,,,left,0,0.03358982515055686,0,,,,,,,,,,,,,,,,,,,,,,1013,2019_Mar_06_1151,mf_amp_cond1,3.0.4,59.98549407027563,
police,godlaness,&&&&&&&&&,right,authority.vice,,,,,,,0,155,155,155,,,,,,,,,,,,,,,,,,,,,AMP,left,0.13363735610619187,,,left,0,0.13363735610619187,0,,,,,,,,,,,,,,,,,,,,,,1013,2019_Mar_06_1151,mf_amp_cond1,3.0.4,59.98549407027563,
men,refuejing,&&&&&&&&&,right,loyalty.vice,,,,,,,0,156,156,156,,,,,,,,,,,,,,,,,,,,,AMP,left,0.00028897018637508154,,,left,0,0.00028897018637508154,0,,,,,,,,,,,,,,,,,,,,,,1013,2019_Mar_06_1151,mf_amp_cond1,3.0.4,59.98549407027563,
improve,photocalkodes,&&&&&&&&&&&&&,left,care.virtue,,,,,,,0,157,157,157,,,,,,,,,,,,,,,,,,,,,AMP,left,0.11694443295709789,,,left,1,0.11694443295709789,1,,,,,,,,,,,,,,,,,,,,,,1013,2019_Mar_06_1151,mf_amp_cond1,3.0.4,59.98549407027563,
bluently,ecgagement,&&&&&&&&&&,None,nonword,,,,,,,0,158,158,158,,,,,,,,,,,,,,,,,,,,,AMP,left,0.08360060141421854,,,left,0,0.08360060141421854,0,,,,,,,,,,,,,,,,,,,,,,1013,2019_Mar_06_1151,mf_amp_cond1,3.0.4,59.98549407027563,
growth,sgrawl,&&&&&&,left,care.virtue,,,,,,,0,159,159,159,,,,,,,,,,,,,,,,,,,,,AMP,left,0.0002857629442587495,,,left,1,0.0002857629442587495,1,,,,,,,,,,,,,,,,,,,,,,1013,2019_Mar_06_1151,mf_amp_cond1,3.0.4,59.98549407027563,
racist,hescribe,&&&&&&&&,right,sanctity.vice,,,,,,,0,160,160,160,,,,,,,,,,,,,,,,,,,,,AMP,left,0.08362080692313612,,,left,0,0.08362080692313612,0,,,,,,,,,,,,,,,,,,,,,,1013,2019_Mar_06_1151,mf_amp_cond1,3.0.4,59.98549407027563,
unpleasant,laming,&&&&&&,None,control,,,,,,,0,161,161,161,,,,,,,,,,,,,,,,,,,,,AMP,left,0.1669584164628759,,,left,0,0.1669584164628759,0,,,,,,,,,,,,,,,,,,,,,,1013,2019_Mar_06_1151,mf_amp_cond1,3.0.4,59.98549407027563,
voter,mecan,&&&&&,right,fairness.vice,,,,,,,0,162,162,162,,,,,,,,,,,,,,,,,,,,,AMP,left,0.03360425774008036,,,left,0,0.03360425774008036,0,,,,,,,,,,,,,,,,,,,,,,1013,2019_Mar_06_1151,mf_amp_cond1,3.0.4,59.98549407027563,
attacks,festate,&&&&&&&,right,care.vice,,,,,,,0,163,163,163,,,,,,,,,,,,,,,,,,,,,AMP,left,0.41703218244947493,,,left,0,0.41703218244947493,0,,,,,,,,,,,,,,,,,,,,,,1013,2019_Mar_06_1151,mf_amp_cond1,3.0.4,59.98549407027563,
support,fonderland,&&&&&&&&&&,left,loyalty.virtue,,,,,,,0,164,164,164,,,,,,,,,,,,,,,,,,,,,AMP,left,0.40034888102672994,,,left,1,0.40034888102672994,1,,,,,,,,,,,,,,,,,,,,,,1013,2019_Mar_06_1151,mf_amp_cond1,3.0.4,59.98549407027563,
hate,gusinesslike,&&&&&&&&&&&&,right,fairness.vice,,,,,,,0,165,165,165,,,,,,,,,,,,,,,,,,,,,AMP,left,0.11693224566988647,,,left,0,0.11693224566988647,0,,,,,,,,,,,,,,,,,,,,,,1013,2019_Mar_06_1151,mf_amp_cond1,3.0.4,59.98549407027563,
police,festate,&&&&&&&,right,authority.vice,,,,,,,0,166,166,166,,,,,,,,,,,,,,,,,,,,,AMP,left,0.18362920987419784,,,left,0,0.18362920987419784,0,,,,,,,,,,,,,,,,,,,,,,1013,2019_Mar_06_1151,mf_amp_cond1,3.0.4,59.98549407027563,
betrayal,saned,&&&&&,right,loyalty.vice,,,,,,,0,167,167,167,,,,,,,,,,,,,,,,,,,,,AMP,left,0.01686579210218042,,,left,0,0.01686579210218042,0,,,,,,,,,,,,,,,,,,,,,,1013,2019_Mar_06_1151,mf_amp_cond1,3.0.4,59.98549407027563,
gournful,infet,&&&&&,None,nonword,,,,,,,0,168,168,168,,,,,,,,,,,,,,,,,,,,,AMP,left,0.21696470270399004,,,left,0,0.21696470270399004,0,,,,,,,,,,,,,,,,,,,,,,1013,2019_Mar_06_1151,mf_amp_cond1,3.0.4,59.98549407027563,
fear,pafer,&&&&&,right,sanctity.vice,,,,,,,0,169,169,169,,,,,,,,,,,,,,,,,,,,,AMP,left,0.10025728296022862,,,left,0,0.10025728296022862,0,,,,,,,,,,,,,,,,,,,,,,1013,2019_Mar_06_1151,mf_amp_cond1,3.0.4,59.98549407027563,
good,tabin,&&&&&,left,care.virtue,,,,,,,0,170,170,170,,,,,,,,,,,,,,,,,,,,,AMP,left,0.5003495867131278,,,left,1,0.5003495867131278,1,,,,,,,,,,,,,,,,,,,,,,1013,2019_Mar_06_1151,mf_amp_cond1,3.0.4,59.98549407027563,
peace,smapper,&&&&&&&,left,care.virtue,,,,,,,0,171,171,171,,,,,,,,,,,,,,,,,,,,,AMP,left,0.15028024662751704,,,left,1,0.15028024662751704,1,,,,,,,,,,,,,,,,,,,,,,1013,2019_Mar_06_1151,mf_amp_cond1,3.0.4,59.98549407027563,
celebrated,crinking,&&&&&&&&,left,authority.virtue,,,,,,,0,172,172,172,,,,,,,,,,,,,,,,,,,,,AMP,left,0.3170228174421936,,,left,1,0.3170228174421936,1,,,,,,,,,,,,,,,,,,,,,,1013,2019_Mar_06_1151,mf_amp_cond1,3.0.4,59.98549407027563,
sharing,nackers,&&&&&&&,left,loyalty.virtue,,,,,,,0,173,173,173,,,,,,,,,,,,,,,,,,,,,AMP,left,0.050302953692153096,,,left,1,0.050302953692153096,1,,,,,,,,,,,,,,,,,,,,,,1013,2019_Mar_06_1151,mf_amp_cond1,3.0.4,59.98549407027563,
voter,refuejing,&&&&&&&&&,right,fairness.vice,,,,,,,0,174,174,174,,,,,,,,,,,,,,,,,,,,,AMP,left,0.016906844452023506,,,left,0,0.016906844452023506,0,,,,,,,,,,,,,,,,,,,,,,1013,2019_Mar_06_1151,mf_amp_cond1,3.0.4,59.98549407027563,
men,dormandi,&&&&&&&&,right,loyalty.vice,,,,,,,0,175,175,175,,,,,,,,,,,,,,,,,,,,,AMP,left,0.150316167389974,,,left,0,0.150316167389974,0,,,,,,,,,,,,,,,,,,,,,,1013,2019_Mar_06_1151,mf_amp_cond1,3.0.4,59.98549407027563,
friends,mecan,&&&&&,left,loyalty.virtue,,,,,,,0,176,176,176,,,,,,,,,,,,,,,,,,,,,AMP,left,0.36698612687177956,,,left,1,0.36698612687177956,1,,,,,,,,,,,,,,,,,,,,,,1013,2019_Mar_06_1151,mf_amp_cond1,3.0.4,59.98549407027563,
freedom,perified,&&&&&&&&,left,sanctity.virtue,,,,,,,0,177,177,177,,,,,,,,,,,,,,,,,,,,,AMP,right,0.0002854423364624381,,,right,0,0.0002854423364624381,0,,,,,,,,,,,,,,,,,,,,,,1013,2019_Mar_06_1151,mf_amp_cond1,3.0.4,59.98549407027563,
prosecution,laming,&&&&&&,right,authority.vice,,,,,,,0,178,178,178,,,,,,,,,,,,,,,,,,,,,AMP,right,0.0002835179911926389,,,right,1,0.0002835179911926389,1,,,,,,,,,,,,,,,,,,,,,,1013,2019_Mar_06_1151,mf_amp_cond1,3.0.4,59.98549407027563,
commitment,hescribe,&&&&&&&&,left,sanctity.virtue,,,,,,,0,179,179,179,,,,,,,,,,,,,,,,,,,,,AMP,right,0.05026575003284961,,,right,0,0.05026575003284961,0,,,,,,,,,,,,,,,,,,,,,,1013,2019_Mar_06_1151,mf_amp_cond1,3.0.4,59.98549407027563,
attacks,Daptist,&&&&&&&,right,care.vice,,,,,,,0,180,180,180,,,,,,,,,,,,,,,,,,,,,AMP,right,0.23364319326356053,,,right,1,0.23364319326356053,1,,,,,,,,,,,,,,,,,,,,,,1013,2019_Mar_06_1151,mf_amp_cond1,3.0.4,59.98549407027563,
embrace,scock,&&&&&,left,authority.virtue,,,,,,,0,181,181,181,,,,,,,,,,,,,,,,,,,,,AMP,right,0.1669404561398551,,,right,0,0.1669404561398551,0,,,,,,,,,,,,,,,,,,,,,,1013,2019_Mar_06_1151,mf_amp_cond1,3.0.4,59.98549407027563,
restore,framatic,&&&&&&&&,left,care.virtue,,,,,,,0,182,182,182,,,,,,,,,,,,,,,,,,,,,AMP,right,0.18362183321733028,,,right,0,0.18362183321733028,0,,,,,,,,,,,,,,,,,,,,,,1013,2019_Mar_06_1151,mf_amp_cond1,3.0.4,59.98549407027563,
peaceful,gandbrake,&&&&&&&&&,left,authority.virtue,,,,,,,0,183,183,183,,,,,,,,,,,,,,,,,,,,,AMP,right,0.11695213033817708,,,right,0,0.11695213033817708,0,,,,,,,,,,,,,,,,,,,,,,1013,2019_Mar_06_1151,mf_amp_cond1,3.0.4,59.98549407027563,
baklara,abointment,&&&&&&&&&&,None,nonword,,,,,,,0,184,184,184,,,,,,,,,,,,,,,,,,,,,AMP,right,0.250312382937409,,,right,0,0.250312382937409,0,,,,,,,,,,,,,,,,,,,,,,1013,2019_Mar_06_1151,mf_amp_cond1,3.0.4,59.98549407027563,
credit,reprisols,&&&&&&&&&,left,fairness.virtue,,,,,,,0,185,185,185,,,,,,,,,,,,,,,,,,,,,AMP,right,0.43370490008965135,,,right,0,0.43370490008965135,0,,,,,,,,,,,,,,,,,,,,,,1013,2019_Mar_06_1151,mf_amp_cond1,3.0.4,59.98549407027563,
protesters,sickyay,&&&&&&&,right,authority.vice,,,,,,,0,186,186,186,,,,,,,,,,,,,,,,,,,,,AMP,right,0.8671102460939437,,,right,1,0.8671102460939437,1,,,,,,,,,,,,,,,,,,,,,,1013,2019_Mar_06_1151,mf_amp_cond1,3.0.4,59.98549407027563,
clean,slending,&&&&&&&&,left,sanctity.virtue,,,,,,,0,187,187,187,,,,,,,,,,,,,,,,,,,,,AMP,right,1.5173083880217746,,,right,0,1.5173083880217746,0,,,,,,,,,,,,,,,,,,,,,,1013,2019_Mar_06_1151,mf_amp_cond1,3.0.4,59.98549407027563,
slavery,hasks,&&&&&,right,loyalty.vice,,,,,,,0,188,188,188,,,,,,,,,,,,,,,,,,,,,AMP,right,1.6839996434282511,,,right,1,1.6839996434282511,1,,,,,,,,,,,,,,,,,,,,,,1013,2019_Mar_06_1151,mf_amp_cond1,3.0.4,59.98549407027563,
drug,tove,&&&&,right,sanctity.vice,,,,,,,0,189,189,189,,,,,,,,,,,,,,,,,,,,,AMP,right,0.1001767817651853,,,right,1,0.1001767817651853,1,,,,,,,,,,,,,,,,,,,,,,1013,2019_Mar_06_1151,mf_amp_cond1,3.0.4,59.98549407027563,
torture,strofe,&&&&&&,right,care.vice,,,,,,,0,190,190,190,,,,,,,,,,,,,,,,,,,,,AMP,right,0.0002873665653169155,,,right,1,0.0002873665653169155,1,,,,,,,,,,,,,,,,,,,,,,1013,2019_Mar_06_1151,mf_amp_cond1,3.0.4,59.98549407027563,
protect,pullness,&&&&&&&&,left,fairness.virtue,,,,,,,0,191,191,191,,,,,,,,,,,,,,,,,,,,,AMP,right,0.1836221539415419,,,right,0,0.1836221539415419,0,,,,,,,,,,,,,,,,,,,,,,1013,2019_Mar_06_1151,mf_amp_cond1,3.0.4,59.98549407027563,
threatened,dramens,&&&&&&&,right,fairness.vice,,,,,,,0,192,192,192,,,,,,,,,,,,,,,,,,,,,AMP,right,0.05027184379287064,,,right,1,0.05027184379287064,1,,,,,,,,,,,,,,,,,,,,,,1013,2019_Mar_06_1151,mf_amp_cond1,3.0.4,59.98549407027563,
killed,ugeasily,&&&&&&&&,right,care.vice,,,,,,,0,193,193,193,,,,,,,,,,,,,,,,,,,,,AMP,right,0.15029083041008562,,,right,1,0.15029083041008562,1,,,,,,,,,,,,,,,,,,,,,,1013,2019_Mar_06_1151,mf_amp_cond1,3.0.4,59.98549407027563,
violations,sgrawl,&&&&&&,right,sanctity.vice,,,,,,,0,194,194,194,,,,,,,,,,,,,,,,,,,,,AMP,right,0.0669256387045607,,,right,1,0.0669256387045607,1,,,,,,,,,,,,,,,,,,,,,,1013,2019_Mar_06_1151,mf_amp_cond1,3.0.4,59.98549407027563,
free,esquisiteness,&&&&&&&&&&&&&,left,fairness.virtue,,,,,,,0,195,195,195,,,,,,,,,,,,,,,,,,,,,AMP,right,0.4503458662657067,,,right,0,0.4503458662657067,0,,,,,,,,,,,,,,,,,,,,,,1013,2019_Mar_06_1151,mf_amp_cond1,3.0.4,59.98549407027563,
arrests,shoirmaster,&&&&&&&&&&&,right,authority.vice,,,,,,,0,196,196,196,,,,,,,,,,,,,,,,,,,,,AMP,right,0.20029615447856486,,,right,1,0.20029615447856486,1,,,,,,,,,,,,,,,,,,,,,,1013,2019_Mar_06_1151,mf_amp_cond1,3.0.4,59.98549407027563,
strong,wump,&&&&,left,loyalty.virtue,,,,,,,0,197,197,197,,,,,,,,,,,,,,,,,,,,,AMP,left,0.6170454603852704,,,left,1,0.6170454603852704,1,,,,,,,,,,,,,,,,,,,,,,1013,2019_Mar_06_1151,mf_amp_cond1,3.0.4,59.98549407027563,
shot,gillipede,&&&&&&&&&,right,care.vice,,,,,,,0,198,198,198,,,,,,,,,,,,,,,,,,,,,AMP,left,0.2836446686415002,,,left,0,0.2836446686415002,0,,,,,,,,,,,,,,,,,,,,,,1013,2019_Mar_06_1151,mf_amp_cond1,3.0.4,59.98549407027563,
forced,Boeinf,&&&&&&,right,fairness.vice,,,,,,,0,199,199,199,,,,,,,,,,,,,,,,,,,,,AMP,left,0.3336580105824396,,,left,0,0.3336580105824396,0,,,,,,,,,,,,,,,,,,,,,,1013,2019_Mar_06_1151,mf_amp_cond1,3.0.4,59.98549407027563,
abuse,greaks,&&&&&&,right,sanctity.vice,,,,,,,0,200,200,200,,,,,,,,,,,,,,,,,,,,,AMP,left,0.15020615991670638,,,left,0,0.15020615991670638,0,,,,,,,,,,,,,,,,,,,,,,1013,2019_Mar_06_1151,mf_amp_cond1,3.0.4,59.98549407027563,
thadowed,crilfully,&&&&&&&&&,None,nonword,,,,,,,0,201,201,201,,,,,,,,,,,,,,,,,,,,,AMP,left,0.26704828266520053,,,left,0,0.26704828266520053,0,,,,,,,,,,,,,,,,,,,,,,1013,2019_Mar_06_1151,mf_amp_cond1,3.0.4,59.98549407027563,
loyalty,brotesque,&&&&&&&&&,left,loyalty.virtue,,,,,,,0,202,202,202,,,,,,,,,,,,,,,,,,,,,AMP,left,0.20030737959314138,,,left,1,0.20030737959314138,1,,,,,,,,,,,,,,,,,,,,,,1013,2019_Mar_06_1151,mf_amp_cond1,3.0.4,59.98549407027563,
unpleasant,troubla,&&&&&&&,None,control,,,,,,,0,203,203,203,,,,,,,,,,,,,,,,,,,,,AMP,left,0.2503066100180149,,,left,0,0.2503066100180149,0,,,,,,,,,,,,,,,,,,,,,,1013,2019_Mar_06_1151,mf_amp_cond1,3.0.4,59.98549407027563,
useful,chadows,&&&&&&&,left,authority.virtue,,,,,,,0,204,204,204,,,,,,,,,,,,,,,,,,,,,AMP,left,0.10037883650511503,,,left,1,0.10037883650511503,1,,,,,,,,,,,,,,,,,,,,,,1013,2019_Mar_06_1151,mf_amp_cond1,3.0.4,59.98549407027563,
viscs,yane,&&&&,None,nonword,,,,,,,0,205,205,205,,,,,,,,,,,,,,,,,,,,,AMP,right,0.13362548942677677,,,right,0,0.13362548942677677,0,,,,,,,,,,,,,,,,,,,,,,1013,2019_Mar_06_1151,mf_amp_cond1,3.0.4,59.98549407027563,
seachwear,carvels,&&&&&&&,None,nonword,,,,,,,0,206,206,206,,,,,,,,,,,,,,,,,,,,,AMP,left,0.18362985120620579,,,left,0,0.18362985120620579,0,,,,,,,,,,,,,,,,,,,,,,1013,2019_Mar_06_1151,mf_amp_cond1,3.0.4,59.98549407027563,
benefit,forepo,&&&&&&,left,fairness.virtue,,,,,,,0,207,207,207,,,,,,,,,,,,,,,,,,,,,AMP,right,0.18363947281613946,,,right,0,0.18363947281613946,0,,,,,,,,,,,,,,,,,,,,,,1013,2019_Mar_06_1151,mf_amp_cond1,3.0.4,59.98549407027563,
charges,pistraught,&&&&&&&&&&,right,fairness.vice,,,,,,,0,208,208,208,,,,,,,,,,,,,,,,,,,,,AMP,left,0.1836221539415419,,,left,0,0.1836221539415419,0,,,,,,,,,,,,,,,,,,,,,,1013,2019_Mar_06_1151,mf_amp_cond1,3.0.4,59.98549407027563,
improve,juck,&&&&,left,care.virtue,,,,,,,0,209,209,209,,,,,,,,,,,,,,,,,,,,,AMP,right,0.5003739615203813,,,right,0,0.5003739615203813,0,,,,,,,,,,,,,,,,,,,,,,1013,2019_Mar_06_1151,mf_amp_cond1,3.0.4,59.98549407027563,
death,vurtain,&&&&&&&,right,care.vice,,,,,,,0,210,210,210,,,,,,,,,,,,,,,,,,,,,AMP,left,0.00028993235900998116,,,left,0,0.00028993235900998116,0,,,,,,,,,,,,,,,,,,,,,,1013,2019_Mar_06_1151,mf_amp_cond1,3.0.4,59.98549407027563,
ability,godlaness,&&&&&&&&&,left,authority.virtue,,,,,,,0,211,211,211,,,,,,,,,,,,,,,,,,,,,AMP,left,0.00028736668173223734,,,left,1,0.00028736668173223734,1,,,,,,,,,,,,,,,,,,,,,,1013,2019_Mar_06_1151,mf_amp_cond1,3.0.4,59.98549407027563,
terrorist,sidearbs,&&&&&&&&,right,loyalty.vice,,,,,,,0,212,212,212,,,,,,,,,,,,,,,,,,,,,AMP,left,0.43369110906496644,,,left,0,0.43369110906496644,0,,,,,,,,,,,,,,,,,,,,,,1013,2019_Mar_06_1151,mf_amp_cond1,3.0.4,59.98549407027563,
groups,glacenta,&&&&&&&&,right,loyalty.vice,,,,,,,0,213,213,213,,,,,,,,,,,,,,,,,,,,,AMP,right,0.08358873461838812,,,right,1,0.08358873461838812,1,,,,,,,,,,,,,,,,,,,,,,1013,2019_Mar_06_1151,mf_amp_cond1,3.0.4,59.98549407027563,
powerful,tenuflect,&&&&&&&&&,left,authority.virtue,,,,,,,0,214,214,214,,,,,,,,,,,,,,,,,,,,,AMP,left,0.08360861940309405,,,left,1,0.08360861940309405,1,,,,,,,,,,,,,,,,,,,,,,1013,2019_Mar_06_1151,mf_amp_cond1,3.0.4,59.98549407027563,
progress,proached,&&&&&&&&,left,authority.virtue,,,,,,,0,215,215,215,,,,,,,,,,,,,,,,,,,,,AMP,right,0.13362645159941167,,,right,0,0.13362645159941167,0,,,,,,,,,,,,,,,,,,,,,,1013,2019_Mar_06_1151,mf_amp_cond1,3.0.4,59.98549407027563,
harassment,lorthwhile,&&&&&&&&&&,right,sanctity.vice,,,,,,,0,216,216,216,,,,,,,,,,,,,,,,,,,,,AMP,left,0.4670249983901158,,,left,0,0.4670249983901158,0,,,,,,,,,,,,,,,,,,,,,,1013,2019_Mar_06_1151,mf_amp_cond1,3.0.4,59.98549407027563,
violence,lursuer,&&&&&&&,right,care.vice,,,,,,,0,217,217,217,,,,,,,,,,,,,,,,,,,,,AMP,right,0.21695796749554574,,,right,1,0.21695796749554574,1,,,,,,,,,,,,,,,,,,,,,,1013,2019_Mar_06_1151,mf_amp_cond1,3.0.4,59.98549407027563,
win,idexpressible,&&&&&&&&&&&&&,left,fairness.virtue,,,,,,,0,218,218,218,,,,,,,,,,,,,,,,,,,,,AMP,left,0.08359579055104405,,,left,1,0.08359579055104405,1,,,,,,,,,,,,,,,,,,,,,,1013,2019_Mar_06_1151,mf_amp_cond1,3.0.4,59.98549407027563,
promised,photocalkodes,&&&&&&&&&&&&&,left,loyalty.virtue,,,,,,,0,219,219,219,,,,,,,,,,,,,,,,,,,,,AMP,left,0.33366634941194206,,,left,1,0.33366634941194206,1,,,,,,,,,,,,,,,,,,,,,,1013,2019_Mar_06_1151,mf_amp_cond1,3.0.4,59.98549407027563,
respect,hatigue,&&&&&&&,left,sanctity.virtue,,,,,,,0,220,220,220,,,,,,,,,,,,,,,,,,,,,AMP,left,0.26682794699445367,,,left,1,0.26682794699445367,1,,,,,,,,,,,,,,,,,,,,,,1013,2019_Mar_06_1151,mf_amp_cond1,3.0.4,59.98549407027563,
synchronazers,suggists,&&&&&&&&,None,nonword,,,,,,,0,221,221,221,,,,,,,,,,,,,,,,,,,,,AMP,left,0.3169901038054377,,,left,0,0.3169901038054377,0,,,,,,,,,,,,,,,,,,,,,,1013,2019_Mar_06_1151,mf_amp_cond1,3.0.4,59.98549407027563,
pleasant,epigrach,&&&&&&&&,None,control,,,,,,,0,222,222,222,,,,,,,,,,,,,,,,,,,,,AMP,left,0.33366506651509553,,,left,0,0.33366506651509553,0,,,,,,,,,,,,,,,,,,,,,,1013,2019_Mar_06_1151,mf_amp_cond1,3.0.4,59.98549407027563,
crime,brudent,&&&&&&&,right,fairness.vice,,,,,,,0,223,223,223,,,,,,,,,,,,,,,,,,,,,AMP,left,0.01693250215612352,,,left,0,0.01693250215612352,0,,,,,,,,,,,,,,,,,,,,,,1013,2019_Mar_06_1151,mf_amp_cond1,3.0.4,59.98549407027563,
safety,menizen,&&&&&&&,left,care.virtue,,,,,,,0,224,224,224,,,,,,,,,,,,,,,,,,,,,AMP,left,0.15029756561852992,,,left,1,0.15029756561852992,1,,,,,,,,,,,,,,,,,,,,,,1013,2019_Mar_06_1151,mf_amp_cond1,3.0.4,59.98549407027563,
rejected,tracious,&&&&&&&&,right,authority.vice,,,,,,,0,225,225,225,,,,,,,,,,,,,,,,,,,,,AMP,left,0.016886318218894303,,,left,0,0.016886318218894303,0,,,,,,,,,,,,,,,,,,,,,,1013,2019_Mar_06_1151,mf_amp_cond1,3.0.4,59.98549407027563,
army,fornicalion,&&&&&&&&&&&,right,loyalty.vice,,,,,,,0,226,226,226,,,,,,,,,,,,,,,,,,,,,AMP,left,0.30031033023260534,,,left,0,0.30031033023260534,0,,,,,,,,,,,,,,,,,,,,,,1013,2019_Mar_06_1151,mf_amp_cond1,3.0.4,59.98549407027563,
lachelor,ecgagement,&&&&&&&&&&,None,nonword,,,,,,,0,227,227,227,,,,,,,,,,,,,,,,,,,,,AMP,left,0.2669960050843656,,,left,0,0.2669960050843656,0,,,,,,,,,,,,,,,,,,,,,,1013,2019_Mar_06_1151,mf_amp_cond1,3.0.4,59.98549407027563,
interests,simplustic,&&&&&&&&&&,left,fairness.virtue,,,,,,,0,228,228,228,,,,,,,,,,,,,,,,,,,,,AMP,left,0.25030532700475305,,,left,1,0.25030532700475305,1,,,,,,,,,,,,,,,,,,,,,,1013,2019_Mar_06_1151,mf_amp_cond1,3.0.4,59.98549407027563,
growth,unreflectuve,&&&&&&&&&&&&,left,care.virtue,,,,,,,0,229,229,229,,,,,,,,,,,,,,,,,,,,,AMP,left,0.18366897921077907,,,left,1,0.18366897921077907,1,,,,,,,,,,,,,,,,,,,,,,1013,2019_Mar_06_1151,mf_amp_cond1,3.0.4,59.98549407027563,
riot,iptervention,&&&&&&&&&&&&,right,authority.vice,,,,,,,0,230,230,230,,,,,,,,,,,,,,,,,,,,,AMP,left,0.11694796103984118,,,left,0,0.11694796103984118,0,,,,,,,,,,,,,,,,,,,,,,1013,2019_Mar_06_1151,mf_amp_cond1,3.0.4,59.98549407027563,
injured,neutralust,&&&&&&&&&&,right,care.vice,,,,,,,0,231,231,231,,,,,,,,,,,,,,,,,,,,,AMP,left,0.3169961975654587,,,left,0,0.3169961975654587,0,,,,,,,,,,,,,,,,,,,,,,1013,2019_Mar_06_1151,mf_amp_cond1,3.0.4,59.98549407027563,
critics,Lacedonia,&&&&&&&&&,right,loyalty.vice,,,,,,,0,232,232,232,,,,,,,,,,,,,,,,,,,,,AMP,left,0.20031154912430793,,,left,0,0.20031154912430793,0,,,,,,,,,,,,,,,,,,,,,,1013,2019_Mar_06_1151,mf_amp_cond1,3.0.4,59.98549407027563,
bluently,fontacts,&&&&&&&&,None,nonword,,,,,,,0,233,233,233,,,,,,,,,,,,,,,,,,,,,AMP,left,0.28372773551382124,,,left,0,0.28372773551382124,0,,,,,,,,,,,,,,,,,,,,,,1013,2019_Mar_06_1151,mf_amp_cond1,3.0.4,59.98549407027563,
terrorists,neneficence,&&&&&&&&&&&,right,fairness.vice,,,,,,,0,234,234,234,,,,,,,,,,,,,,,,,,,,,AMP,left,0.10028839285951108,,,left,0,0.10028839285951108,0,,,,,,,,,,,,,,,,,,,,,,1013,2019_Mar_06_1151,mf_amp_cond1,3.0.4,59.98549407027563,
racist,grovelire,&&&&&&&&&,right,sanctity.vice,,,,,,,0,235,235,235,,,,,,,,,,,,,,,,,,,,,AMP,left,0.3836768049513921,,,left,0,0.3836768049513921,0,,,,,,,,,,,,,,,,,,,,,,1013,2019_Mar_06_1151,mf_amp_cond1,3.0.4,59.98549407027563,
help,disregord,&&&&&&&&&,left,care.virtue,,,,,,,0,236,236,236,,,,,,,,,,,,,,,,,,,,,AMP,right,0.7004209151491523,,,right,0,0.7004209151491523,0,,,,,,,,,,,,,,,,,,,,,,1013,2019_Mar_06_1151,mf_amp_cond1,3.0.4,59.98549407027563,
gun,imebreaker,&&&&&&&&&&,right,authority.vice,,,,,,,0,237,237,237,,,,,,,,,,,,,,,,,,,,,AMP,left,0.5003784515429288,,,left,0,0.5003784515429288,0,,,,,,,,,,,,,,,,,,,,,,1013,2019_Mar_06_1151,mf_amp_cond1,3.0.4,59.98549407027563,
promises,wonderfujnoss,&&&&&&&&&&&&&,left,fairness.virtue,,,,,,,0,238,238,238,,,,,,,,,,,,,,,,,,,,,AMP,right,0.6004073807271197,,,right,0,0.6004073807271197,0,,,,,,,,,,,,,,,,,,,,,,1013,2019_Mar_06_1151,mf_amp_cond1,3.0.4,59.98549407027563,
intelligence,gowlands,&&&&&&&&,left,loyalty.virtue,,,,,,,0,239,239,239,,,,,,,,,,,,,,,,,,,,,AMP,left,0.1002941660117358,,,left,1,0.1002941660117358,1,,,,,,,,,,,,,,,,,,,,,,1013,2019_Mar_06_1151,mf_amp_cond1,3.0.4,59.98549407027563,
openet,quarterbocks,&&&&&&&&&&&&,None,nonword,,,,,,,0,240,240,240,,,,,,,,,,,,,,,,,,,,,AMP,right,0.05025965627282858,,,right,0,0.05025965627282858,0,,,,,,,,,,,,,,,,,,,,,,1013,2019_Mar_06_1151,mf_amp_cond1,3.0.4,59.98549407027563,
perfect,uller,&&&&&,left,sanctity.virtue,,,,,,,0,241,241,241,,,,,,,,,,,,,,,,,,,,,AMP,left,0.6003990420140326,,,left,1,0.6003990420140326,1,,,,,,,,,,,,,,,,,,,,,,1013,2019_Mar_06_1151,mf_amp_cond1,3.0.4,59.98549407027563,
corruption,aubos,&&&&&,right,sanctity.vice,,,,,,,0,242,242,242,,,,,,,,,,,,,,,,,,,,,AMP,left,0.4503631852567196,,,left,0,0.4503631852567196,0,,,,,,,,,,,,,,,,,,,,,,1013,2019_Mar_06_1151,mf_amp_cond1,3.0.4,59.98549407027563,
prones,gazily,&&&&&&,None,nonword,,,,,,,0,243,243,243,,,,,,,,,,,,,,,,,,,,,AMP,right,0.2835609602043405,,,right,0,0.2835609602043405,0,,,,,,,,,,,,,,,,,,,,,,1013,2019_Mar_06_1151,mf_amp_cond1,3.0.4,59.98549407027563,
values,thabbily,&&&&&&&&,left,sanctity.virtue,,,,,,,0,244,244,244,,,,,,,,,,,,,,,,,,,,,AMP,left,0.31698176509235054,,,left,1,0.31698176509235054,1,,,,,,,,,,,,,,,,,,,,,,1013,2019_Mar_06_1151,mf_amp_cond1,3.0.4,59.98549407027563,
faith,discovars,&&&&&&&&&,left,sanctity.virtue,,,,,,,0,245,245,245,,,,,,,,,,,,,,,,,,,,,AMP,right,0.4670211496995762,,,right,0,0.4670211496995762,0,,,,,,,,,,,,,,,,,,,,,,1013,2019_Mar_06_1151,mf_amp_cond1,3.0.4,59.98549407027563,
strong,gazily,&&&&&&,left,loyalty.virtue,,,,,,,0,246,246,246,,,,,,,,,,,,,,,,,,,,,AMP,left,0.23364896629936993,,,left,1,0.23364896629936993,1,,,,,,,,,,,,,,,,,,,,,,1013,2019_Mar_06_1151,mf_amp_cond1,3.0.4,59.98549407027563,
death,simplustic,&&&&&&&&&&,right,care.vice,,,,,,,0,247,247,247,,,,,,,,,,,,,,,,,,,,,AMP,right,0.2502985919127241,,,right,1,0.2502985919127241,1,,,,,,,,,,,,,,,,,,,,,,1013,2019_Mar_06_1151,mf_amp_cond1,3.0.4,59.98549407027563,
thadowed,discovars,&&&&&&&&&,None,nonword,,,,,,,0,248,248,248,,,,,,,,,,,,,,,,,,,,,AMP,left,0.1669503984740004,,,left,0,0.1669503984740004,0,,,,,,,,,,,,,,,,,,,,,,1013,2019_Mar_06_1151,mf_amp_cond1,3.0.4,59.98549407027563,
harassment,refuejing,&&&&&&&&&,right,sanctity.vice,,,,,,,0,249,249,249,,,,,,,,,,,,,,,,,,,,,AMP,right,0.40035240910947323,,,right,1,0.40035240910947323,1,,,,,,,,,,,,,,,,,,,,,,1013,2019_Mar_06_1151,mf_amp_cond1,3.0.4,59.98549407027563,
riot,dormandi,&&&&&&&&,right,authority.vice,,,,,,,0,250,250,250,,,,,,,,,,,,,,,,,,,,,AMP,left,0.26698477973695844,,,left,0,0.26698477973695844,0,,,,,,,,,,,,,,,,,,,,,,1013,2019_Mar_06_1151,mf_amp_cond1,3.0.4,59.98549407027563,
unpleasant,shoirmaster,&&&&&&&&&&&,None,control,,,,,,,0,251,251,251,,,,,,,,,,,,,,,,,,,,,AMP,right,0.18357885640580207,,,right,0,0.18357885640580207,0,,,,,,,,,,,,,,,,,,,,,,1013,2019_Mar_06_1151,mf_amp_cond1,3.0.4,59.98549407027563,
faith,unreflectuve,&&&&&&&&&&&&,left,sanctity.virtue,,,,,,,0,252,252,252,,,,,,,,,,,,,,,,,,,,,AMP,left,0.36699606920592487,,,left,1,0.36699606920592487,1,,,,,,,,,,,,,,,,,,,,,,1013,2019_Mar_06_1151,mf_amp_cond1,3.0.4,59.98549407027563,
peace,troubla,&&&&&&&,left,care.virtue,,,,,,,0,253,253,253,,,,,,,,,,,,,,,,,,,,,AMP,right,0.21697785216383636,,,right,0,0.21697785216383636,0,,,,,,,,,,,,,,,,,,,,,,1013,2019_Mar_06_1151,mf_amp_cond1,3.0.4,59.98549407027563,
army,tove,&&&&,right,loyalty.vice,,,,,,,0,254,254,254,,,,,,,,,,,,,,,,,,,,,AMP,left,0.2669321814319119,,,left,0,0.2669321814319119,0,,,,,,,,,,,,,,,,,,,,,,1013,2019_Mar_06_1151,mf_amp_cond1,3.0.4,59.98549407027563,
embrace,gillipede,&&&&&&&&&,left,authority.virtue,,,,,,,0,255,255,255,,,,,,,,,,,,,,,,,,,,,AMP,right,0.23368456633761525,,,right,0,0.23368456633761525,0,,,,,,,,,,,,,,,,,,,,,,1013,2019_Mar_06_1151,mf_amp_cond1,3.0.4,59.98549407027563,
friends,fontacts,&&&&&&&&,left,loyalty.virtue,,,,,,,0,256,256,256,,,,,,,,,,,,,,,,,,,,,AMP,left,0.21697656938340515,,,left,1,0.21697656938340515,1,,,,,,,,,,,,,,,,,,,,,,1013,2019_Mar_06_1151,mf_amp_cond1,3.0.4,59.98549407027563,
fear,neutralust,&&&&&&&&&&,right,sanctity.vice,,,,,,,0,257,257,257,,,,,,,,,,,,,,,,,,,,,AMP,right,0.1336052839178592,,,right,1,0.1336052839178592,1,,,,,,,,,,,,,,,,,,,,,,1013,2019_Mar_06_1151,mf_amp_cond1,3.0.4,59.98549407027563,
hate,sidearbs,&&&&&&&&,right,fairness.vice,,,,,,,0,258,258,258,,,,,,,,,,,,,,,,,,,,,AMP,left,0.3670316693605855,,,left,0,0.3670316693605855,0,,,,,,,,,,,,,,,,,,,,,,1013,2019_Mar_06_1151,mf_amp_cond1,3.0.4,59.98549407027563,
seachwear,sickyay,&&&&&&&,None,nonword,,,,,,,0,259,259,259,,,,,,,,,,,,,,,,,,,,,AMP,right,0.2669770825887099,,,right,0,0.2669770825887099,0,,,,,,,,,,,,,,,,,,,,,,1013,2019_Mar_06_1151,mf_amp_cond1,3.0.4,59.98549407027563,
support,quarterbocks,&&&&&&&&&&&&,left,loyalty.virtue,,,,,,,0,260,260,260,,,,,,,,,,,,,,,,,,,,,AMP,left,0.33372985234018415,,,left,1,0.33372985234018415,1,,,,,,,,,,,,,,,,,,,,,,1013,2019_Mar_06_1151,mf_amp_cond1,3.0.4,59.98549407027563,
betrayal,infet,&&&&&,right,loyalty.vice,,,,,,,0,261,261,261,,,,,,,,,,,,,,,,,,,,,AMP,right,0.33366634929552674,,,right,1,0.33366634929552674,1,,,,,,,,,,,,,,,,,,,,,,1013,2019_Mar_06_1151,mf_amp_cond1,3.0.4,59.98549407027563,
peaceful,hasks,&&&&&,left,authority.virtue,,,,,,,0,262,262,262,,,,,,,,,,,,,,,,,,,,,AMP,left,0.31698401004541665,,,left,1,0.31698401004541665,1,,,,,,,,,,,,,,,,,,,,,,1013,2019_Mar_06_1151,mf_amp_cond1,3.0.4,59.98549407027563,
forced,aubos,&&&&&,right,fairness.vice,,,,,,,0,263,263,263,,,,,,,,,,,,,,,,,,,,,AMP,right,0.33365865203086287,,,right,1,0.33365865203086287,1,,,,,,,,,,,,,,,,,,,,,,1013,2019_Mar_06_1151,mf_amp_cond1,3.0.4,59.98549407027563,
police,laming,&&&&&&,right,authority.vice,,,,,,,0,264,264,264,,,,,,,,,,,,,,,,,,,,,AMP,left,0.20030096522532403,,,left,0,0.20030096522532403,0,,,,,,,,,,,,,,,,,,,,,,1013,2019_Mar_06_1151,mf_amp_cond1,3.0.4,59.98549407027563,
ability,iptervention,&&&&&&&&&&&&,left,authority.virtue,,,,,,,0,265,265,265,,,,,,,,,,,,,,,,,,,,,AMP,right,0.016923842718824744,,,right,0,0.016923842718824744,0,,,,,,,,,,,,,,,,,,,,,,1013,2019_Mar_06_1151,mf_amp_cond1,3.0.4,59.98549407027563,
voter,proached,&&&&&&&&,right,fairness.vice,,,,,,,0,266,266,266,,,,,,,,,,,,,,,,,,,,,AMP,left,0.3503355390857905,,,left,0,0.3503355390857905,0,,,,,,,,,,,,,,,,,,,,,,1013,2019_Mar_06_1151,mf_amp_cond1,3.0.4,59.98549407027563,
growth,nackers,&&&&&&&,left,care.virtue,,,,,,,0,267,267,267,,,,,,,,,,,,,,,,,,,,,AMP,right,0.15029467910062522,,,right,0,0.15029467910062522,0,,,,,,,,,,,,,,,,,,,,,,1013,2019_Mar_06_1151,mf_amp_cond1,3.0.4,59.98549407027563,
clean,strofe,&&&&&&,left,sanctity.virtue,,,,,,,0,268,268,268,,,,,,,,,,,,,,,,,,,,,AMP,left,0.6170772117329761,,,left,1,0.6170772117329761,1,,,,,,,,,,,,,,,,,,,,,,1013,2019_Mar_06_1151,mf_amp_cond1,3.0.4,59.98549407027563,
openet,mecan,&&&&&,None,nonword,,,,,,,0,269,269,269,,,,,,,,,,,,,,,,,,,,,AMP,right,0.517047320608981,,,right,0,0.517047320608981,0,,,,,,,,,,,,,,,,,,,,,,1013,2019_Mar_06_1151,mf_amp_cond1,3.0.4,59.98549407027563,
intelligence,uller,&&&&&,left,loyalty.virtue,,,,,,,0,270,270,270,,,,,,,,,,,,,,,,,,,,,AMP,left,0.2336409481940791,,,left,1,0.2336409481940791,1,,,,,,,,,,,,,,,,,,,,,,1013,2019_Mar_06_1151,mf_amp_cond1,3.0.4,59.98549407027563,
benefit,tabin,&&&&&,left,fairness.virtue,,,,,,,0,271,271,271,,,,,,,,,,,,,,,,,,,,,AMP,left,0.18362856830935925,,,left,1,0.18362856830935925,1,,,,,,,,,,,,,,,,,,,,,,1013,2019_Mar_06_1151,mf_amp_cond1,3.0.4,59.98549407027563,
win,hescribe,&&&&&&&&,left,fairness.virtue,,,,,,,0,272,272,272,,,,,,,,,,,,,,,,,,,,,AMP,right,0.5337319049285725,,,right,0,0.5337319049285725,0,,,,,,,,,,,,,,,,,,,,,,1013,2019_Mar_06_1151,mf_amp_cond1,3.0.4,59.98549407027563,
injured,pafer,&&&&&,right,care.vice,,,,,,,0,273,273,273,,,,,,,,,,,,,,,,,,,,,AMP,left,0.16695071919821203,,,left,0,0.16695071919821203,0,,,,,,,,,,,,,,,,,,,,,,1013,2019_Mar_06_1151,mf_amp_cond1,3.0.4,59.98549407027563,
charges,brotesque,&&&&&&&&&,right,fairness.vice,,,,,,,0,274,274,274,,,,,,,,,,,,,,,,,,,,,AMP,right,0.200307700317353,,,right,1,0.200307700317353,1,,,,,,,,,,,,,,,,,,,,,,1013,2019_Mar_06_1151,mf_amp_cond1,3.0.4,59.98549407027563,
perfect,chadows,&&&&&&&,left,sanctity.virtue,,,,,,,0,275,275,275,,,,,,,,,,,,,,,,,,,,,AMP,left,0.20032983017154038,,,left,1,0.20032983017154038,1,,,,,,,,,,,,,,,,,,,,,,1013,2019_Mar_06_1151,mf_amp_cond1,3.0.4,59.98549407027563,
celebrated,ugeasily,&&&&&&&&,left,authority.virtue,,,,,,,0,276,276,276,,,,,,,,,,,,,,,,,,,,,AMP,right,0.26697804464492947,,,right,0,0.26697804464492947,0,,,,,,,,,,,,,,,,,,,,,,1013,2019_Mar_06_1151,mf_amp_cond1,3.0.4,59.98549407027563,
men,wump,&&&&,right,loyalty.vice,,,,,,,0,277,277,277,,,,,,,,,,,,,,,,,,,,,AMP,left,0.21697304141707718,,,left,0,0.21697304141707718,0,,,,,,,,,,,,,,,,,,,,,,1013,2019_Mar_06_1151,mf_amp_cond1,3.0.4,59.98549407027563,
torture,slending,&&&&&&&&,right,care.vice,,,,,,,0,278,278,278,,,,,,,,,,,,,,,,,,,,,AMP,right,0.3169073575409129,,,right,1,0.3169073575409129,1,,,,,,,,,,,,,,,,,,,,,,1013,2019_Mar_06_1151,mf_amp_cond1,3.0.4,59.98549407027563,
groups,vurtain,&&&&&&&,right,loyalty.vice,,,,,,,0,279,279,279,,,,,,,,,,,,,,,,,,,,,AMP,right,0.0669480892829597,,,right,1,0.0669480892829597,1,,,,,,,,,,,,,,,,,,,,,,1013,2019_Mar_06_1151,mf_amp_cond1,3.0.4,59.98549407027563,
protect,glacenta,&&&&&&&&,left,fairness.virtue,,,,,,,0,280,280,280,,,,,,,,,,,,,,,,,,,,,AMP,right,0.15012597956229,,,right,0,0.15012597956229,0,,,,,,,,,,,,,,,,,,,,,,1013,2019_Mar_06_1151,mf_amp_cond1,3.0.4,59.98549407027563,
free,pullness,&&&&&&&&,left,fairness.virtue,,,,,,,0,281,281,281,,,,,,,,,,,,,,,,,,,,,AMP,right,0.33365672768559307,,,right,0,0.33365672768559307,0,,,,,,,,,,,,,,,,,,,,,,1013,2019_Mar_06_1151,mf_amp_cond1,3.0.4,59.98549407027563,
help,Daptist,&&&&&&&,left,care.virtue,,,,,,,0,282,282,282,,,,,,,,,,,,,,,,,,,,,AMP,right,0.3002901248401031,,,right,0,0.3002901248401031,0,,,,,,,,,,,,,,,,,,,,,,1013,2019_Mar_06_1151,mf_amp_cond1,3.0.4,59.98549407027563,
abuse,juck,&&&&,right,sanctity.vice,,,,,,,0,283,283,283,,,,,,,,,,,,,,,,,,,,,AMP,right,0.13360945333261043,,,right,1,0.13360945333261043,1,,,,,,,,,,,,,,,,,,,,,,1013,2019_Mar_06_1151,mf_amp_cond1,3.0.4,59.98549407027563,
racist,carvels,&&&&&&&,right,sanctity.vice,,,,,,,0,284,284,284,,,,,,,,,,,,,,,,,,,,,AMP,right,0.33366634929552674,,,right,1,0.33366634929552674,1,,,,,,,,,,,,,,,,,,,,,,1013,2019_Mar_06_1151,mf_amp_cond1,3.0.4,59.98549407027563,
drug,dramens,&&&&&&&,right,sanctity.vice,,,,,,,0,285,285,285,,,,,,,,,,,,,,,,,,,,,AMP,right,1.000509626697749,,,right,1,1.000509626697749,1,,,,,,,,,,,,,,,,,,,,,,1013,2019_Mar_06_1151,mf_amp_cond1,3.0.4,59.98549407027563,
corruption,greaks,&&&&&&,right,sanctity.vice,,,,,,,0,286,286,286,,,,,,,,,,,,,,,,,,,,,AMP,right,0.6170691937441006,,,right,1,0.6170691937441006,1,,,,,,,,,,,,,,,,,,,,,,1013,2019_Mar_06_1151,mf_amp_cond1,3.0.4,59.98549407027563,
gournful,pistraught,&&&&&&&&&&,None,nonword,,,,,,,0,287,287,287,,,,,,,,,,,,,,,,,,,,,AMP,right,0.4503339995862916,,,right,0,0.4503339995862916,0,,,,,,,,,,,,,,,,,,,,,,1013,2019_Mar_06_1151,mf_amp_cond1,3.0.4,59.98549407027563,
improve,reprisols,&&&&&&&&&,left,care.virtue,,,,,,,0,288,288,288,,,,,,,,,,,,,,,,,,,,,AMP,right,0.3670130674727261,,,right,0,0.3670130674727261,0,,,,,,,,,,,,,,,,,,,,,,1013,2019_Mar_06_1151,mf_amp_cond1,3.0.4,59.98549407027563,
gun,smapper,&&&&&&&,right,authority.vice,,,,,,,0,289,289,289,,,,,,,,,,,,,,,,,,,,,AMP,right,0.45037473121192306,,,right,1,0.45037473121192306,1,,,,,,,,,,,,,,,,,,,,,,1013,2019_Mar_06_1151,mf_amp_cond1,3.0.4,59.98549407027563,
interests,yane,&&&&,left,fairness.virtue,,,,,,,0,290,290,290,,,,,,,,,,,,,,,,,,,,,AMP,right,0.2670174934901297,,,right,0,0.2670174934901297,0,,,,,,,,,,,,,,,,,,,,,,1013,2019_Mar_06_1151,mf_amp_cond1,3.0.4,59.98549407027563,
attacks,menizen,&&&&&&&,right,care.vice,,,,,,,0,291,291,291,,,,,,,,,,,,,,,,,,,,,AMP,right,0.5670616247225553,,,right,1,0.5670616247225553,1,,,,,,,,,,,,,,,,,,,,,,1013,2019_Mar_06_1151,mf_amp_cond1,3.0.4,59.98549407027563,
terrorists,abointment,&&&&&&&&&&,right,fairness.vice,,,,,,,0,292,292,292,,,,,,,,,,,,,,,,,,,,,AMP,right,0.20032534003257751,,,right,1,0.20032534003257751,1,,,,,,,,,,,,,,,,,,,,,,1013,2019_Mar_06_1151,mf_amp_cond1,3.0.4,59.98549407027563,
prones,tracious,&&&&&&&&,None,nonword,,,,,,,0,293,293,293,,,,,,,,,,,,,,,,,,,,,AMP,right,0.300175306503661,,,right,0,0.300175306503661,0,,,,,,,,,,,,,,,,,,,,,,1013,2019_Mar_06_1151,mf_amp_cond1,3.0.4,59.98549407027563,
values,suggists,&&&&&&&&,left,sanctity.virtue,,,,,,,0,294,294,294,,,,,,,,,,,,,,,,,,,,,AMP,right,0.7671040882123634,,,right,0,0.7671040882123634,0,,,,,,,,,,,,,,,,,,,,,,1013,2019_Mar_06_1151,mf_amp_cond1,3.0.4,59.98549407027563,
threatened,godlaness,&&&&&&&&&,right,fairness.vice,,,,,,,0,295,295,295,,,,,,,,,,,,,,,,,,,,,AMP,right,0.21697817300446332,,,right,1,0.21697817300446332,1,,,,,,,,,,,,,,,,,,,,,,1013,2019_Mar_06_1151,mf_amp_cond1,3.0.4,59.98549407027563,
respect,scock,&&&&&,left,sanctity.virtue,,,,,,,0,296,296,296,,,,,,,,,,,,,,,,,,,,,AMP,right,0.16694911557715386,,,right,0,0.16694911557715386,0,,,,,,,,,,,,,,,,,,,,,,1013,2019_Mar_06_1151,mf_amp_cond1,3.0.4,59.98549407027563,
credit,Boeinf,&&&&&&,left,fairness.virtue,,,,,,,0,297,297,297,,,,,,,,,,,,,,,,,,,,,AMP,right,0.26699536363594234,,,right,0,0.26699536363594234,0,,,,,,,,,,,,,,,,,,,,,,1013,2019_Mar_06_1151,mf_amp_cond1,3.0.4,59.98549407027563,
powerful,fornicalion,&&&&&&&&&&&,left,authority.virtue,,,,,,,0,298,298,298,,,,,,,,,,,,,,,,,,,,,AMP,right,0.5670510409399867,,,right,0,0.5670510409399867,0,,,,,,,,,,,,,,,,,,,,,,1013,2019_Mar_06_1151,mf_amp_cond1,3.0.4,59.98549407027563,
good,neneficence,&&&&&&&&&&&,left,care.virtue,,,,,,,0,299,299,299,,,,,,,,,,,,,,,,,,,,,AMP,right,0.13363030017353594,,,right,0,0.13363030017353594,0,,,,,,,,,,,,,,,,,,,,,,1013,2019_Mar_06_1151,mf_amp_cond1,3.0.4,59.98549407027563,
prosecution,festate,&&&&&&&,right,authority.vice,,,,,,,0,300,300,300,,,,,,,,,,,,,,,,,,,,,AMP,right,0.8671307723270729,,,right,1,0.8671307723270729,1,,,,,,,,,,,,,,,,,,,,,,1013,2019_Mar_06_1151,mf_amp_cond1,3.0.4,59.98549407027563,
slavery,lorthwhile,&&&&&&&&&&,right,loyalty.vice,,,,,,,0,301,301,301,,,,,,,,,,,,,,,,,,,,,AMP,right,0.1836250403430313,,,right,1,0.1836250403430313,1,,,,,,,,,,,,,,,,,,,,,,1013,2019_Mar_06_1151,mf_amp_cond1,3.0.4,59.98549407027563,
useful,saned,&&&&&,left,authority.virtue,,,,,,,0,302,302,302,,,,,,,,,,,,,,,,,,,,,AMP,right,0.31699555611703545,,,right,0,0.31699555611703545,0,,,,,,,,,,,,,,,,,,,,,,1013,2019_Mar_06_1151,mf_amp_cond1,3.0.4,59.98549407027563,
baklara,disregord,&&&&&&&&&,None,nonword,,,,,,,0,303,303,303,,,,,,,,,,,,,,,,,,,,,AMP,right,0.350337463314645,,,right,0,0.350337463314645,0,,,,,,,,,,,,,,,,,,,,,,1013,2019_Mar_06_1151,mf_amp_cond1,3.0.4,59.98549407027563,
crime,ecgagement,&&&&&&&&&&,right,fairness.vice,,,,,,,0,304,304,304,,,,,,,,,,,,,,,,,,,,,AMP,right,0.23364736267831177,,,right,1,0.23364736267831177,1,,,,,,,,,,,,,,,,,,,,,,1013,2019_Mar_06_1151,mf_amp_cond1,3.0.4,59.98549407027563,
protesters,photocalkodes,&&&&&&&&&&&&&,right,authority.vice,,,,,,,0,305,305,305,,,,,,,,,,,,,,,,,,,,,AMP,right,0.26698477973695844,,,right,1,0.26698477973695844,1,,,,,,,,,,,,,,,,,,,,,,1013,2019_Mar_06_1151,mf_amp_cond1,3.0.4,59.98549407027563,
violations,grovelire,&&&&&&&&&,right,sanctity.vice,,,,,,,0,306,306,306,,,,,,,,,,,,,,,,,,,,,AMP,right,0.3170003668637946,,,right,1,0.3170003668637946,1,,,,,,,,,,,,,,,,,,,,,,1013,2019_Mar_06_1151,mf_amp_cond1,3.0.4,59.98549407027563,
restore,idexpressible,&&&&&&&&&&&&&,left,care.virtue,,,,,,,0,307,307,307,,,,,,,,,,,,,,,,,,,,,AMP,right,0.25031623151153326,,,right,0,0.25031623151153326,0,,,,,,,,,,,,,,,,,,,,,,1013,2019_Mar_06_1151,mf_amp_cond1,3.0.4,59.98549407027563,
killed,forepo,&&&&&&,right,care.vice,,,,,,,0,308,308,308,,,,,,,,,,,,,,,,,,,,,AMP,right,1.834076552418992,,,right,1,1.834076552418992,1,,,,,,,,,,,,,,,,,,,,,,1013,2019_Mar_06_1151,mf_amp_cond1,3.0.4,59.98549407027563,
progress,thabbily,&&&&&&&&,left,authority.virtue,,,,,,,0,309,309,309,,,,,,,,,,,,,,,,,,,,,AMP,right,2.084048008196987,,,right,0,2.084048008196987,0,,,,,,,,,,,,,,,,,,,,,,1013,2019_Mar_06_1151,mf_amp_cond1,3.0.4,59.98549407027563,
sharing,gowlands,&&&&&&&&,left,loyalty.virtue,,,,,,,0,310,310,310,,,,,,,,,,,,,,,,,,,,,AMP,right,4.434735378948972,,,right,0,4.434735378948972,0,,,,,,,,,,,,,,,,,,,,,,1013,2019_Mar_06_1151,mf_amp_cond1,3.0.4,59.98549407027563,
promises,sgrawl,&&&&&&,left,fairness.virtue,,,,,,,0,311,311,311,,,,,,,,,,,,,,,,,,,,,AMP,right,2.8843208141624928,,,right,0,2.8843208141624928,0,,,,,,,,,,,,,,,,,,,,,,1013,2019_Mar_06_1151,mf_amp_cond1,3.0.4,59.98549407027563,
lachelor,hatigue,&&&&&&&,None,nonword,,,,,,,0,312,312,312,,,,,,,,,,,,,,,,,,,,,AMP,right,3.0176226953044534,,,right,0,3.0176226953044534,0,,,,,,,,,,,,,,,,,,,,,,1013,2019_Mar_06_1151,mf_amp_cond1,3.0.4,59.98549407027563,
terrorist,imebreaker,&&&&&&&&&&,right,loyalty.vice,,,,,,,0,313,313,313,,,,,,,,,,,,,,,,,,,,,AMP,right,2.2507694113301113,,,right,1,2.2507694113301113,1,,,,,,,,,,,,,,,,,,,,,,1013,2019_Mar_06_1151,mf_amp_cond1,3.0.4,59.98549407027563,
commitment,tenuflect,&&&&&&&&&,left,sanctity.virtue,,,,,,,0,314,314,314,,,,,,,,,,,,,,,,,,,,,AMP,right,0.8838333170861006,,,right,0,0.8838333170861006,0,,,,,,,,,,,,,,,,,,,,,,1013,2019_Mar_06_1151,mf_amp_cond1,3.0.4,59.98549407027563,
shot,gusinesslike,&&&&&&&&&&&&,right,care.vice,,,,,,,0,315,315,315,,,,,,,,,,,,,,,,,,,,,AMP,right,3.1677166025619954,,,right,1,3.1677166025619954,1,,,,,,,,,,,,,,,,,,,,,,1013,2019_Mar_06_1151,mf_amp_cond1,3.0.4,59.98549407027563,
safety,perified,&&&&&&&&,left,care.virtue,,,,,,,0,316,316,316,,,,,,,,,,,,,,,,,,,,,AMP,right,0.4503654302097857,,,right,0,0.4503654302097857,0,,,,,,,,,,,,,,,,,,,,,,1013,2019_Mar_06_1151,mf_amp_cond1,3.0.4,59.98549407027563,
bluently,crilfully,&&&&&&&&&,None,nonword,,,,,,,0,317,317,317,,,,,,,,,,,,,,,,,,,,,AMP,right,0.2669979294296354,,,right,0,0.2669979294296354,0,,,,,,,,,,,,,,,,,,,,,,1013,2019_Mar_06_1151,mf_amp_cond1,3.0.4,59.98549407027563,
pleasant,crinking,&&&&&&&&,None,control,,,,,,,0,318,318,318,,,,,,,,,,,,,,,,,,,,,AMP,right,1.3005701148649678,,,right,0,1.3005701148649678,0,,,,,,,,,,,,,,,,,,,,,,1013,2019_Mar_06_1151,mf_amp_cond1,3.0.4,59.98549407027563,
violence,esquisiteness,&&&&&&&&&&&&&,right,care.vice,,,,,,,0,319,319,319,,,,,,,,,,,,,,,,,,,,,AMP,right,0.8337798848515376,,,right,1,0.8337798848515376,1,,,,,,,,,,,,,,,,,,,,,,1013,2019_Mar_06_1151,mf_amp_cond1,3.0.4,59.98549407027563,
arrests,gandbrake,&&&&&&&&&,right,authority.vice,,,,,,,0,320,320,320,,,,,,,,,,,,,,,,,,,,,AMP,right,1.3006294483784586,,,right,1,1.3006294483784586,1,,,,,,,,,,,,,,,,,,,,,,1013,2019_Mar_06_1151,mf_amp_cond1,3.0.4,59.98549407027563,
rejected,lursuer,&&&&&&&,right,authority.vice,,,,,,,0,321,321,321,,,,,,,,,,,,,,,,,,,,,AMP,right,4.034628642722964,,,right,1,4.034628642722964,1,,,,,,,,,,,,,,,,,,,,,,1013,2019_Mar_06_1151,mf_amp_cond1,3.0.4,59.98549407027563,
synchronazers,epigrach,&&&&&&&&,None,nonword,,,,,,,0,322,322,322,,,,,,,,,,,,,,,,,,,,,AMP,right,0.5670632283436134,,,right,0,0.5670632283436134,0,,,,,,,,,,,,,,,,,,,,,,1013,2019_Mar_06_1151,mf_amp_cond1,3.0.4,59.98549407027563,
promised,wonderfujnoss,&&&&&&&&&&&&&,left,loyalty.virtue,,,,,,,0,323,323,323,,,,,,,,,,,,,,,,,,,,,AMP,right,2.400860432186164,,,right,0,2.400860432186164,0,,,,,,,,,,,,,,,,,,,,,,1013,2019_Mar_06_1151,mf_amp_cond1,3.0.4,59.98549407027563,
critics,Lacedonia,&&&&&&&&&,right,loyalty.vice,,,,,,,0,324,324,324,,,,,,,,,,,,,,,,,,,,,AMP,right,0.3836793707450852,,,right,1,0.3836793707450852,1,,,,,,,,,,,,,,,,,,,,,,1013,2019_Mar_06_1151,mf_amp_cond1,3.0.4,59.98549407027563,
freedom,brudent,&&&&&&&,left,sanctity.virtue,,,,,,,0,325,325,325,,,,,,,,,,,,,,,,,,,,,AMP,right,1.8339155501453206,,,right,0,1.8339155501453206,0,,,,,,,,,,,,,,,,,,,,,,1013,2019_Mar_06_1151,mf_amp_cond1,3.0.4,59.98549407027563,
viscs,framatic,&&&&&&&&,None,nonword,,,,,,,0,326,326,326,,,,,,,,,,,,,,,,,,,,,AMP,right,1.5338213862851262,,,right,0,1.5338213862851262,0,,,,,,,,,,,,,,,,,,,,,,1013,2019_Mar_06_1151,mf_amp_cond1,3.0.4,59.98549407027563,
loyalty,fonderland,&&&&&&&&&&,left,loyalty.virtue,,,,,,,0,327,327,327,,,,,,,,,,,,,,,,,,,,,AMP,right,0.2336409481940791,,,right,0,0.2336409481940791,0,,,,,,,,,,,,,,,,,,,,,,1013,2019_Mar_06_1151,mf_amp_cond1,3.0.4,59.98549407027563,
,,,,,,,,,,,,,,,,,,,,,,,,,,,,,,,,,,,,,,,,,,,,3,10.255,,,,,,,,,,,,,,,,,,,,1013,2019_Mar_06_1151,mf_amp_cond1,3.0.4,59.98549407027563,
,,,,,,,,,,,,,,,,,,,,,,,,,,,,,,,,,,,,,,,,,,,,,,4,1.969,,,,,,,,,,,,,,,,,,1013,2019_Mar_06_1151,mf_amp_cond1,3.0.4,59.98549407027563,
,,,,,,,,,,,,,,,,,,,,,,,,,,,,,,,,,,,,,,,,,,,,,,,,6,5.553,,,,,,,,,,,,,,,,1013,2019_Mar_06_1151,mf_amp_cond1,3.0.4,59.98549407027563,
,,,,,,,,,,,,,,,,,,,,,,,,,,,,,,,,,,,,,,,,,,,,,,,,,,right,3.4511518399231136,,,,,,,,,,,,,,1013,2019_Mar_06_1151,mf_amp_cond1,3.0.4,59.98549407027563,
bisebell,,&&&&&&&,,,,,,,,,,,,,0,0,0,1,,,,,,,,,,,,,,,,,LDT_prac,left,2.134138323366642,,,,,,0,,,,,,,,,left,2.134138323366642,,,,,,,,,,,,1013,2019_Mar_06_1151,mf_amp_cond1,3.0.4,59.98549407027563,
keyboard,,&&&&&&&,,,,,,,,,,,,,0,1,1,0,,,,,,,,,,,,,,,,,LDT_prac,right,0.9504773622611538,,,,,,0,,,,,,,,,right,0.9504773622611538,,,,,,,,,,,,1013,2019_Mar_06_1151,mf_amp_cond1,3.0.4,59.98549407027563,
,,,,,,,,,,,,,,,,,,,,,,,,,,,,,,,,,,,,,,,,,,,,,,,,,,,,,,right,2.4175267353421077,,,,,,,,,,1013,2019_Mar_06_1151,mf_amp_cond1,3.0.4,59.98549407027563,
with,,&&&&,left,neutral,,,,,,,,,,,,,,,0,0,0,133,,,,,,,,,,,,,LDT,left,1.0005096268141642,,,,,,1,,,,,,,,,,,,,left,1,1.0005096268141642,,,,,,,1013,2019_Mar_06_1151,mf_amp_cond1,3.0.4,59.98549407027563,
clamorek,,&&&&&&&&,right,nonword,,,,,,,,,,,,,,,0,1,1,22,,,,,,,,,,,,,LDT,right,0.333670518710278,,,,,,1,,,,,,,,,,,,,right,1,0.333670518710278,,,,,,,1013,2019_Mar_06_1151,mf_amp_cond1,3.0.4,59.98549407027563,
hefurbished,,&&&&&&&&&&&,right,nonword,,,,,,,,,,,,,,,0,2,2,56,,,,,,,,,,,,,LDT,left,0.28367962723132223,,,,,,0,,,,,,,,,,,,,left,0,0.28367962723132223,,,,,,,1013,2019_Mar_06_1151,mf_amp_cond1,3.0.4,59.98549407027563,
scandal,,&&&&&&&,left,sanctity.vice,,,,,,,,,,,,,,,0,3,3,48,,,,,,,,,,,,,LDT,left,0.20029839943163097,,,,,,1,,,,,,,,,,,,,left,1,0.20029839943163097,,,,,,,1013,2019_Mar_06_1151,mf_amp_cond1,3.0.4,59.98549407027563,
victims,,&&&&&&&,left,care.vice,,,,,,,,,,,,,,,0,4,4,31,,,,,,,,,,,,,LDT,right,0.25017126533202827,,,,,,0,,,,,,,,,,,,,right,0,0.25017126533202827,,,,,,,1013,2019_Mar_06_1151,mf_amp_cond1,3.0.4,59.98549407027563,
nomparisons,,&&&&&&&&&&&,right,nonword,,,,,,,,,,,,,,,0,5,5,122,,,,,,,,,,,,,LDT,left,0.28364947938825935,,,,,,0,,,,,,,,,,,,,left,0,0.28364947938825935,,,,,,,1013,2019_Mar_06_1151,mf_amp_cond1,3.0.4,59.98549407027563,
gationwide,,&&&&&&&&&&,right,nonword,,,,,,,,,,,,,,,0,6,6,109,,,,,,,,,,,,,LDT,right,0.20030866260640323,,,,,,1,,,,,,,,,,,,,right,1,0.20030866260640323,,,,,,,1013,2019_Mar_06_1151,mf_amp_cond1,3.0.4,59.98549407027563,
wherever,,&&&&&&&&,left,neutral,,,,,,,,,,,,,,,0,7,7,166,,,,,,,,,,,,,LDT,left,0.13357064593583345,,,,,,1,,,,,,,,,,,,,left,1,0.13357064593583345,,,,,,,1013,2019_Mar_06_1151,mf_amp_cond1,3.0.4,59.98549407027563,
forty,,&&&&&,left,neutral,,,,,,,,,,,,,,,0,8,8,130,,,,,,,,,,,,,LDT,right,0.050157987512648106,,,,,,0,,,,,,,,,,,,,right,0,0.050157987512648106,,,,,,,1013,2019_Mar_06_1151,mf_amp_cond1,3.0.4,59.98549407027563,
love,,&&&&,left,loyalty.virtue,,,,,,,,,,,,,,,0,9,9,9,,,,,,,,,,,,,LDT,right,0.26699921232648194,,,,,,0,,,,,,,,,,,,,right,0,0.26699921232648194,,,,,,,1013,2019_Mar_06_1151,mf_amp_cond1,3.0.4,59.98549407027563,
shoirmaster,,&&&&&&&&&&&,None,nonword,,,,,,,,,,,,,,,0,10,10,192,,,,,,,,,,,,,LDT,left,0.3003225177526474,,,,,,0,,,,,,,,,,,,,left,0,0.3003225177526474,,,,,,,1013,2019_Mar_06_1151,mf_amp_cond1,3.0.4,59.98549407027563,
sexual,,&&&&&&,left,sanctity.vice,,,,,,,,,,,,,,,0,11,11,128,,,,,,,,,,,,,LDT,right,0.23366211587563157,,,,,,0,,,,,,,,,,,,,right,0,0.23366211587563157,,,,,,,1013,2019_Mar_06_1151,mf_amp_cond1,3.0.4,59.98549407027563,
mostly,,&&&&&&,left,neutral,,,,,,,,,,,,,,,0,12,12,168,,,,,,,,,,,,,LDT,left,0.2836453099735081,,,,,,1,,,,,,,,,,,,,left,1,0.2836453099735081,,,,,,,1013,2019_Mar_06_1151,mf_amp_cond1,3.0.4,59.98549407027563,
presentkess,,&&&&&&&&&&&,right,nonword,,,,,,,,,,,,,,,0,13,13,63,,,,,,,,,,,,,LDT,right,0.15028986823745072,,,,,,1,,,,,,,,,,,,,right,1,0.15028986823745072,,,,,,,1013,2019_Mar_06_1151,mf_amp_cond1,3.0.4,59.98549407027563,
drumbled,,&&&&&&&&,right,nonword,,,,,,,,,,,,,,,0,14,14,94,,,,,,,,,,,,,LDT,left,0.16680286650080234,,,,,,0,,,,,,,,,,,,,left,0,0.16680286650080234,,,,,,,1013,2019_Mar_06_1151,mf_amp_cond1,3.0.4,59.98549407027563,
faspberry,,&&&&&&&&&,None,nonword,,,,,,,,,,,,,,,0,15,15,194,,,,,,,,,,,,,LDT,left,0.38367520133033395,,,,,,0,,,,,,,,,,,,,left,0,0.38367520133033395,,,,,,,1013,2019_Mar_06_1151,mf_amp_cond1,3.0.4,59.98549407027563,
erks,,&&&&,right,nonword,,,,,,,,,,,,,,,0,16,16,159,,,,,,,,,,,,,LDT,left,0.733776613487862,,,,,,0,,,,,,,,,,,,,left,0,0.733776613487862,,,,,,,1013,2019_Mar_06_1151,mf_amp_cond1,3.0.4,59.98549407027563,
both,,&&&&,left,neutral,,,,,,,,,,,,,,,0,17,17,117,,,,,,,,,,,,,LDT,right,0.5337386401370168,,,,,,0,,,,,,,,,,,,,right,0,0.5337386401370168,,,,,,,1013,2019_Mar_06_1151,mf_amp_cond1,3.0.4,59.98549407027563,
cromiscuity,,&&&&&&&&&&&,right,nonword,,,,,,,,,,,,,,,0,18,18,190,,,,,,,,,,,,,LDT,right,0.36701402976177633,,,,,,1,,,,,,,,,,,,,right,1,0.36701402976177633,,,,,,,1013,2019_Mar_06_1151,mf_amp_cond1,3.0.4,59.98549407027563,
feleological,,&&&&&&&&&&&&,right,nonword,,,,,,,,,,,,,,,0,19,19,58,,,,,,,,,,,,,LDT,left,0.3170423813862726,,,,,,0,,,,,,,,,,,,,left,0,0.3170423813862726,,,,,,,1013,2019_Mar_06_1151,mf_amp_cond1,3.0.4,59.98549407027563,
atson,,&&&&&,right,nonword,,,,,,,,,,,,,,,0,20,20,21,,,,,,,,,,,,,LDT,right,0.35035446169786155,,,,,,1,,,,,,,,,,,,,right,1,0.35035446169786155,,,,,,,1013,2019_Mar_06_1151,mf_amp_cond1,3.0.4,59.98549407027563,
blunderints,,&&&&&&&&&&&,right,nonword,,,,,,,,,,,,,,,0,21,21,114,,,,,,,,,,,,,LDT,left,0.3169923488749191,,,,,,0,,,,,,,,,,,,,left,0,0.3169923488749191,,,,,,,1013,2019_Mar_06_1151,mf_amp_cond1,3.0.4,59.98549407027563,
egpeditious,,&&&&&&&&&&&,right,nonword,,,,,,,,,,,,,,,0,22,22,154,,,,,,,,,,,,,LDT,right,0.20034522493369877,,,,,,1,,,,,,,,,,,,,right,1,0.20034522493369877,,,,,,,1013,2019_Mar_06_1151,mf_amp_cond1,3.0.4,59.98549407027563,
accused,,&&&&&&&,left,fairness.vice,,,,,,,,,,,,,,,0,23,23,87,,,,,,,,,,,,,LDT,left,0.30032989440951496,,,,,,1,,,,,,,,,,,,,left,1,0.30032989440951496,,,,,,,1013,2019_Mar_06_1151,mf_amp_cond1,3.0.4,59.98549407027563,
sfumatoy,,&&&&&&&&,None,nonword,,,,,,,,,,,,,,,0,24,24,64,,,,,,,,,,,,,LDT,left,0.633742873556912,,,,,,0,,,,,,,,,,,,,left,0,0.633742873556912,,,,,,,1013,2019_Mar_06_1151,mf_amp_cond1,3.0.4,59.98549407027563,
could,,&&&&&,left,neutral,,,,,,,,,,,,,,,0,25,25,5,,,,,,,,,,,,,LDT,right,0.5837420397438109,,,,,,0,,,,,,,,,,,,,right,0,0.5837420397438109,,,,,,,1013,2019_Mar_06_1151,mf_amp_cond1,3.0.4,59.98549407027563,
gondensed,,&&&&&&&&&,right,nonword,,,,,,,,,,,,,,,0,26,26,37,,,,,,,,,,,,,LDT,left,0.46705290116369724,,,,,,0,,,,,,,,,,,,,left,0,0.46705290116369724,,,,,,,1013,2019_Mar_06_1151,mf_amp_cond1,3.0.4,59.98549407027563,
emports,,&&&&&&&,right,nonword,,,,,,,,,,,,,,,0,27,27,44,,,,,,,,,,,,,LDT,right,0.23363934457302094,,,,,,1,,,,,,,,,,,,,right,1,0.23363934457302094,,,,,,,1013,2019_Mar_06_1151,mf_amp_cond1,3.0.4,59.98549407027563,
hope,,&&&&,left,loyalty.virtue,,,,,,,,,,,,,,,0,28,28,89,,,,,,,,,,,,,LDT,left,0.21697945590130985,,,,,,1,,,,,,,,,,,,,left,1,0.21697945590130985,,,,,,,1013,2019_Mar_06_1151,mf_amp_cond1,3.0.4,59.98549407027563,
black,,&&&&&,left,loyalty.vice,,,,,,,,,,,,,,,0,29,29,112,,,,,,,,,,,,,LDT,right,0.2669812518870458,,,,,,0,,,,,,,,,,,,,right,0,0.2669812518870458,,,,,,,1013,2019_Mar_06_1151,mf_amp_cond1,3.0.4,59.98549407027563,
fair,,&&&&,left,fairness.virtue,,,,,,,,,,,,,,,0,30,30,161,,,,,,,,,,,,,LDT,left,0.3003372709499672,,,,,,1,,,,,,,,,,,,,left,1,0.3003372709499672,,,,,,,1013,2019_Mar_06_1151,mf_amp_cond1,3.0.4,59.98549407027563,
penalty,,&&&&&&&,left,authority.vice,,,,,,,,,,,,,,,0,31,31,165,,,,,,,,,,,,,LDT,right,0.2503149486146867,,,,,,0,,,,,,,,,,,,,right,0,0.2503149486146867,,,,,,,1013,2019_Mar_06_1151,mf_amp_cond1,3.0.4,59.98549407027563,
itself,,&&&&&&,left,neutral,,,,,,,,,,,,,,,0,32,32,152,,,,,,,,,,,,,LDT,left,0.35035157506354153,,,,,,1,,,,,,,,,,,,,left,1,0.35035157506354153,,,,,,,1013,2019_Mar_06_1151,mf_amp_cond1,3.0.4,59.98549407027563,
toward,,&&&&&&,left,neutral,,,,,,,,,,,,,,,0,33,33,61,,,,,,,,,,,,,LDT,right,0.16695488849654794,,,,,,0,,,,,,,,,,,,,right,0,0.16695488849654794,,,,,,,1013,2019_Mar_06_1151,mf_amp_cond1,3.0.4,59.98549407027563,
Oregoniuns,,&&&&&&&&&&,right,nonword,,,,,,,,,,,,,,,0,34,34,43,,,,,,,,,,,,,LDT,left,0.8171244862023741,,,,,,0,,,,,,,,,,,,,left,0,0.8171244862023741,,,,,,,1013,2019_Mar_06_1151,mf_amp_cond1,3.0.4,59.98549407027563,
tomedians,,&&&&&&&&&,right,nonword,,,,,,,,,,,,,,,0,35,35,34,,,,,,,,,,,,,LDT,right,0.26691037241835147,,,,,,1,,,,,,,,,,,,,right,1,0.26691037241835147,,,,,,,1013,2019_Mar_06_1151,mf_amp_cond1,3.0.4,59.98549407027563,
blamed,,&&&&&&,left,loyalty.vice,,,,,,,,,,,,,,,0,36,36,186,,,,,,,,,,,,,LDT,left,0.2503143072826788,,,,,,1,,,,,,,,,,,,,left,1,0.2503143072826788,,,,,,,1013,2019_Mar_06_1151,mf_amp_cond1,3.0.4,59.98549407027563,
bruthfulness,,&&&&&&&&&&&&,right,nonword,,,,,,,,,,,,,,,0,37,37,104,,,,,,,,,,,,,LDT,right,0.3503432363504544,,,,,,1,,,,,,,,,,,,,right,1,0.3503432363504544,,,,,,,1013,2019_Mar_06_1151,mf_amp_cond1,3.0.4,59.98549407027563,
rorroborated,,&&&&&&&&&&&&,right,nonword,,,,,,,,,,,,,,,0,38,38,93,,,,,,,,,,,,,LDT,left,0.25031975959427655,,,,,,0,,,,,,,,,,,,,left,0,0.25031975959427655,,,,,,,1013,2019_Mar_06_1151,mf_amp_cond1,3.0.4,59.98549407027563,
ablow,,&&&&&,right,nonword,,,,,,,,,,,,,,,0,39,39,103,,,,,,,,,,,,,LDT,right,0.25030693074222654,,,,,,1,,,,,,,,,,,,,right,1,0.25030693074222654,,,,,,,1013,2019_Mar_06_1151,mf_amp_cond1,3.0.4,59.98549407027563,
whereafter,,&&&&&&&&&&,left,neutral,,,,,,,,,,,,,,,0,40,40,82,,,,,,,,,,,,,LDT,left,0.166957454290241,,,,,,1,,,,,,,,,,,,,left,1,0.166957454290241,,,,,,,1013,2019_Mar_06_1151,mf_amp_cond1,3.0.4,59.98549407027563,
lempestuous,,&&&&&&&&&&&,right,nonword,,,,,,,,,,,,,,,0,41,41,11,,,,,,,,,,,,,LDT,left,0.40035850275307894,,,,,,0,,,,,,,,,,,,,left,0,0.40035850275307894,,,,,,,1013,2019_Mar_06_1151,mf_amp_cond1,3.0.4,59.98549407027563,
done,,&&&&,left,neutral,,,,,,,,,,,,,,,0,42,42,96,,,,,,,,,,,,,LDT,right,0.23364768328610808,,,,,,0,,,,,,,,,,,,,right,0,0.23364768328610808,,,,,,,1013,2019_Mar_06_1151,mf_amp_cond1,3.0.4,59.98549407027563,
everything,,&&&&&&&&&&,left,neutral,,,,,,,,,,,,,,,0,43,43,119,,,,,,,,,,,,,LDT,left,0.18364203860983253,,,,,,1,,,,,,,,,,,,,left,1,0.18364203860983253,,,,,,,1013,2019_Mar_06_1151,mf_amp_cond1,3.0.4,59.98549407027563,
strength,,&&&&&&&&,left,sanctity.virtue,,,,,,,,,,,,,,,0,44,44,29,,,,,,,,,,,,,LDT,right,0.26698477985337377,,,,,,0,,,,,,,,,,,,,right,0,0.26698477985337377,,,,,,,1013,2019_Mar_06_1151,mf_amp_cond1,3.0.4,59.98549407027563,
vicissifude,,&&&&&&&&&&&,right,nonword,,,,,,,,,,,,,,,0,45,45,50,,,,,,,,,,,,,LDT,left,0.31699972541537136,,,,,,0,,,,,,,,,,,,,left,0,0.31699972541537136,,,,,,,1013,2019_Mar_06_1151,mf_amp_cond1,3.0.4,59.98549407027563,
galamitous,,&&&&&&&&&&,right,nonword,,,,,,,,,,,,,,,0,46,46,167,,,,,,,,,,,,,LDT,right,0.23350015142932534,,,,,,1,,,,,,,,,,,,,right,1,0.23350015142932534,,,,,,,1013,2019_Mar_06_1151,mf_amp_cond1,3.0.4,59.98549407027563,
praised,,&&&&&&&,left,loyalty.virtue,,,,,,,,,,,,,,,0,47,47,15,,,,,,,,,,,,,LDT,left,0.3336718016071245,,,,,,1,,,,,,,,,,,,,left,1,0.3336718016071245,,,,,,,1013,2019_Mar_06_1151,mf_amp_cond1,3.0.4,59.98549407027563,
divility,,&&&&&&&&,right,nonword,,,,,,,,,,,,,,,0,48,48,75,,,,,,,,,,,,,LDT,right,0.21700511360540986,,,,,,1,,,,,,,,,,,,,right,1,0.21700511360540986,,,,,,,1013,2019_Mar_06_1151,mf_amp_cond1,3.0.4,59.98549407027563,
gaultless,,&&&&&&&&&,right,nonword,,,,,,,,,,,,,,,0,49,49,28,,,,,,,,,,,,,LDT,left,0.40034984331578016,,,,,,0,,,,,,,,,,,,,left,0,0.40034984331578016,,,,,,,1013,2019_Mar_06_1151,mf_amp_cond1,3.0.4,59.98549407027563,
become,,&&&&&&,left,neutral,,,,,,,,,,,,,,,0,50,50,73,,,,,,,,,,,,,LDT,right,0.13364569481927902,,,,,,0,,,,,,,,,,,,,right,0,0.13364569481927902,,,,,,,1013,2019_Mar_06_1151,mf_amp_cond1,3.0.4,59.98549407027563,
elduringly,,&&&&&&&&&&,right,nonword,,,,,,,,,,,,,,,0,51,51,181,,,,,,,,,,,,,LDT,left,0.18366641353350133,,,,,,0,,,,,,,,,,,,,left,0,0.18366641353350133,,,,,,,1013,2019_Mar_06_1151,mf_amp_cond1,3.0.4,59.98549407027563,
latter,,&&&&&&,left,neutral,,,,,,,,,,,,,,,0,52,52,146,,,,,,,,,,,,,LDT,right,0.11698676832020283,,,,,,0,,,,,,,,,,,,,right,0,0.11698676832020283,,,,,,,1013,2019_Mar_06_1151,mf_amp_cond1,3.0.4,59.98549407027563,
couldnt,,&&&&&&&,left,neutral,,,,,,,,,,,,,,,0,53,53,86,,,,,,,,,,,,,LDT,left,0.3170257039600983,,,,,,1,,,,,,,,,,,,,left,1,0.3170257039600983,,,,,,,1013,2019_Mar_06_1151,mf_amp_cond1,3.0.4,59.98549407027563,
emassion,,&&&&&&&&,right,nonword,,,,,,,,,,,,,,,0,54,54,155,,,,,,,,,,,,,LDT,right,0.1836202295962721,,,,,,1,,,,,,,,,,,,,right,1,0.1836202295962721,,,,,,,1013,2019_Mar_06_1151,mf_amp_cond1,3.0.4,59.98549407027563,
dumid,,&&&&&,right,nonword,,,,,,,,,,,,,,,0,55,55,65,,,,,,,,,,,,,LDT,left,0.3670130674727261,,,,,,0,,,,,,,,,,,,,left,0,0.3670130674727261,,,,,,,1013,2019_Mar_06_1151,mf_amp_cond1,3.0.4,59.98549407027563,
encourage,,&&&&&&&&&,left,authority.virtue,,,,,,,,,,,,,,,0,56,56,88,,,,,,,,,,,,,LDT,right,0.2503059684531763,,,,,,0,,,,,,,,,,,,,right,0,0.2503059684531763,,,,,,,1013,2019_Mar_06_1151,mf_amp_cond1,3.0.4,59.98549407027563,
refused,,&&&&&&&,left,authority.vice,,,,,,,,,,,,,,,0,57,57,110,,,,,,,,,,,,,LDT,left,0.3169978011865169,,,,,,1,,,,,,,,,,,,,left,1,0.3169978011865169,,,,,,,1013,2019_Mar_06_1151,mf_amp_cond1,3.0.4,59.98549407027563,
safe,,&&&&,left,care.virtue,,,,,,,,,,,,,,,0,58,58,139,,,,,,,,,,,,,LDT,right,0.3003080852795392,,,,,,0,,,,,,,,,,,,,right,0,0.3003080852795392,,,,,,,1013,2019_Mar_06_1151,mf_amp_cond1,3.0.4,59.98549407027563,
nomaric,,&&&&&&&,None,nonword,,,,,,,,,,,,,,,0,59,59,176,,,,,,,,,,,,,LDT,right,0.4837095827097073,,,,,,0,,,,,,,,,,,,,right,0,0.4837095827097073,,,,,,,1013,2019_Mar_06_1151,mf_amp_cond1,3.0.4,59.98549407027563,
scalbel,,&&&&&&&,right,nonword,,,,,,,,,,,,,,,0,60,60,162,,,,,,,,,,,,,LDT,right,0.2503037235001102,,,,,,1,,,,,,,,,,,,,right,1,0.2503037235001102,,,,,,,1013,2019_Mar_06_1151,mf_amp_cond1,3.0.4,59.98549407027563,
whither,,&&&&&&&,left,neutral,,,,,,,,,,,,,,,0,61,61,39,,,,,,,,,,,,,LDT,right,0.20032501930836588,,,,,,0,,,,,,,,,,,,,right,0,0.20032501930836588,,,,,,,1013,2019_Mar_06_1151,mf_amp_cond1,3.0.4,59.98549407027563,
honored,,&&&&&&&,left,authority.virtue,,,,,,,,,,,,,,,0,62,62,173,,,,,,,,,,,,,LDT,left,0.28365621459670365,,,,,,1,,,,,,,,,,,,,left,1,0.28365621459670365,,,,,,,1013,2019_Mar_06_1151,mf_amp_cond1,3.0.4,59.98549407027563,
fangsters,,&&&&&&&&&,right,nonword,,,,,,,,,,,,,,,0,63,63,77,,,,,,,,,,,,,LDT,left,0.20030288957059383,,,,,,0,,,,,,,,,,,,,left,0,0.20030288957059383,,,,,,,1013,2019_Mar_06_1151,mf_amp_cond1,3.0.4,59.98549407027563,
fighters,,&&&&&&&&,left,authority.vice,,,,,,,,,,,,,,,0,64,64,137,,,,,,,,,,,,,LDT,right,0.15030173503328115,,,,,,0,,,,,,,,,,,,,right,0,0.15030173503328115,,,,,,,1013,2019_Mar_06_1151,mf_amp_cond1,3.0.4,59.98549407027563,
frojecting,,&&&&&&&&&&,right,nonword,,,,,,,,,,,,,,,0,65,65,191,,,,,,,,,,,,,LDT,left,0.20030609681271017,,,,,,0,,,,,,,,,,,,,left,0,0.20030609681271017,,,,,,,1013,2019_Mar_06_1151,mf_amp_cond1,3.0.4,59.98549407027563,
compassion,,&&&&&&&&&&,left,care.virtue,,,,,,,,,,,,,,,0,66,66,157,,,,,,,,,,,,,LDT,right,0.20032534014899284,,,,,,0,,,,,,,,,,,,,right,0,0.20032534014899284,,,,,,,1013,2019_Mar_06_1151,mf_amp_cond1,3.0.4,59.98549407027563,
halaise,,&&&&&&&,None,nonword,,,,,,,,,,,,,,,0,67,67,54,,,,,,,,,,,,,LDT,right,0.21698811533860862,,,,,,0,,,,,,,,,,,,,right,0,0.21698811533860862,,,,,,,1013,2019_Mar_06_1151,mf_amp_cond1,3.0.4,59.98549407027563,
either,,&&&&&&,left,neutral,,,,,,,,,,,,,,,0,68,68,118,,,,,,,,,,,,,LDT,right,0.1336043217452243,,,,,,0,,,,,,,,,,,,,right,0,0.1336043217452243,,,,,,,1013,2019_Mar_06_1151,mf_amp_cond1,3.0.4,59.98549407027563,
pumber,,&&&&&&,None,nonword,,,,,,,,,,,,,,,0,69,69,41,,,,,,,,,,,,,LDT,right,0.2669940807390958,,,,,,0,,,,,,,,,,,,,right,0,0.2669940807390958,,,,,,,1013,2019_Mar_06_1151,mf_amp_cond1,3.0.4,59.98549407027563,
eight,,&&&&&,left,neutral,,,,,,,,,,,,,,,0,70,70,105,,,,,,,,,,,,,LDT,right,0.45037954207509756,,,,,,0,,,,,,,,,,,,,right,0,0.45037954207509756,,,,,,,1013,2019_Mar_06_1151,mf_amp_cond1,3.0.4,59.98549407027563,
sonvoy,,&&&&&&,None,nonword,,,,,,,,,,,,,,,0,71,71,177,,,,,,,,,,,,,LDT,right,0.2669754788512364,,,,,,0,,,,,,,,,,,,,right,0,0.2669754788512364,,,,,,,1013,2019_Mar_06_1151,mf_amp_cond1,3.0.4,59.98549407027563,
fifteen,,&&&&&&&,left,neutral,,,,,,,,,,,,,,,0,72,72,7,,,,,,,,,,,,,LDT,left,0.35030956054106355,,,,,,1,,,,,,,,,,,,,left,1,0.35030956054106355,,,,,,,1013,2019_Mar_06_1151,mf_amp_cond1,3.0.4,59.98549407027563,
letish,,&&&&&&,right,nonword,,,,,,,,,,,,,,,0,73,73,99,,,,,,,,,,,,,LDT,left,0.06691120623145252,,,,,,0,,,,,,,,,,,,,left,0,0.06691120623145252,,,,,,,1013,2019_Mar_06_1151,mf_amp_cond1,3.0.4,59.98549407027563,
leact,,&&&&&,right,nonword,,,,,,,,,,,,,,,0,74,74,184,,,,,,,,,,,,,LDT,left,0.11694924393668771,,,,,,0,,,,,,,,,,,,,left,0,0.11694924393668771,,,,,,,1013,2019_Mar_06_1151,mf_amp_cond1,3.0.4,59.98549407027563,
edancipation,,&&&&&&&&&&&&,None,nonword,,,,,,,,,,,,,,,0,75,75,108,,,,,,,,,,,,,LDT,left,0.18364620802458376,,,,,,0,,,,,,,,,,,,,left,0,0.18364620802458376,,,,,,,1013,2019_Mar_06_1151,mf_amp_cond1,3.0.4,59.98549407027563,
focomotive,,&&&&&&&&&&,right,nonword,,,,,,,,,,,,,,,0,76,76,6,,,,,,,,,,,,,LDT,left,0.23365987080615014,,,,,,0,,,,,,,,,,,,,left,0,0.23365987080615014,,,,,,,1013,2019_Mar_06_1151,mf_amp_cond1,3.0.4,59.98549407027563,
anything,,&&&&&&&&,left,neutral,,,,,,,,,,,,,,,0,77,77,121,,,,,,,,,,,,,LDT,left,0.15028345386963338,,,,,,1,,,,,,,,,,,,,left,1,0.15028345386963338,,,,,,,1013,2019_Mar_06_1151,mf_amp_cond1,3.0.4,59.98549407027563,
care,,&&&&,left,care.virtue,,,,,,,,,,,,,,,0,78,78,26,,,,,,,,,,,,,LDT,right,0.18364781164564192,,,,,,0,,,,,,,,,,,,,right,0,0.18364781164564192,,,,,,,1013,2019_Mar_06_1151,mf_amp_cond1,3.0.4,59.98549407027563,
further,,&&&&&&&,left,neutral,,,,,,,,,,,,,,,0,79,79,79,,,,,,,,,,,,,LDT,right,0.1336238858057186,,,,,,0,,,,,,,,,,,,,right,0,0.1336238858057186,,,,,,,1013,2019_Mar_06_1151,mf_amp_cond1,3.0.4,59.98549407027563,
elsewhere,,&&&&&&&&&,left,neutral,,,,,,,,,,,,,,,0,80,80,16,,,,,,,,,,,,,LDT,right,0.06694103346671909,,,,,,0,,,,,,,,,,,,,right,0,0.06694103346671909,,,,,,,1013,2019_Mar_06_1151,mf_amp_cond1,3.0.4,59.98549407027563,
ban,,&&&,left,loyalty.vice,,,,,,,,,,,,,,,0,81,81,153,,,,,,,,,,,,,LDT,right,0.11693609424401075,,,,,,0,,,,,,,,,,,,,right,0,0.11693609424401075,,,,,,,1013,2019_Mar_06_1151,mf_amp_cond1,3.0.4,59.98549407027563,
ejanulated,,&&&&&&&&&&,right,nonword,,,,,,,,,,,,,,,0,82,82,120,,,,,,,,,,,,,LDT,right,0.05032283836044371,,,,,,1,,,,,,,,,,,,,right,1,0.05032283836044371,,,,,,,1013,2019_Mar_06_1151,mf_amp_cond1,3.0.4,59.98549407027563,
stindig,,&&&&&&&,right,nonword,,,,,,,,,,,,,,,0,83,83,199,,,,,,,,,,,,,LDT,left,0.2169557224260643,,,,,,0,,,,,,,,,,,,,left,0,0.2169557224260643,,,,,,,1013,2019_Mar_06_1151,mf_amp_cond1,3.0.4,59.98549407027563,
tislay,,&&&&&&,right,nonword,,,,,,,,,,,,,,,0,84,84,85,,,,,,,,,,,,,LDT,left,0.21698458737228066,,,,,,0,,,,,,,,,,,,,left,0,0.21698458737228066,,,,,,,1013,2019_Mar_06_1151,mf_amp_cond1,3.0.4,59.98549407027563,
supervuned,,&&&&&&&&&&,right,nonword,,,,,,,,,,,,,,,0,85,85,171,,,,,,,,,,,,,LDT,left,0.08361022314056754,,,,,,0,,,,,,,,,,,,,left,0,0.08361022314056754,,,,,,,1013,2019_Mar_06_1151,mf_amp_cond1,3.0.4,59.98549407027563,
energy,,&&&&&&,left,sanctity.virtue,,,,,,,,,,,,,,,0,86,86,92,,,,,,,,,,,,,LDT,left,0.18362343683838844,,,,,,1,,,,,,,,,,,,,left,1,0.18362343683838844,,,,,,,1013,2019_Mar_06_1151,mf_amp_cond1,3.0.4,59.98549407027563,
alar,,&&&&,right,nonword,,,,,,,,,,,,,,,0,87,87,2,,,,,,,,,,,,,LDT,left,0.13367520133033395,,,,,,0,,,,,,,,,,,,,left,0,0.13367520133033395,,,,,,,1013,2019_Mar_06_1151,mf_amp_cond1,3.0.4,59.98549407027563,
neputized,,&&&&&&&&&,right,nonword,,,,,,,,,,,,,,,0,88,88,84,,,,,,,,,,,,,LDT,left,0.11695309251081198,,,,,,0,,,,,,,,,,,,,left,0,0.11695309251081198,,,,,,,1013,2019_Mar_06_1151,mf_amp_cond1,3.0.4,59.98549407027563,
taxpayung,,&&&&&&&&&,right,nonword,,,,,,,,,,,,,,,0,89,89,131,,,,,,,,,,,,,LDT,right,0.083586489665322,,,,,,1,,,,,,,,,,,,,right,1,0.083586489665322,,,,,,,1013,2019_Mar_06_1151,mf_amp_cond1,3.0.4,59.98549407027563,
framo,,&&&&&,right,nonword,,,,,,,,,,,,,,,0,90,90,3,,,,,,,,,,,,,LDT,right,0.18366160267032683,,,,,,1,,,,,,,,,,,,,right,1,0.18366160267032683,,,,,,,1013,2019_Mar_06_1151,mf_amp_cond1,3.0.4,59.98549407027563,
officers,,&&&&&&&&,left,authority.vice,,,,,,,,,,,,,,,0,91,91,189,,,,,,,,,,,,,LDT,right,0.10030731558799744,,,,,,0,,,,,,,,,,,,,right,0,0.10030731558799744,,,,,,,1013,2019_Mar_06_1151,mf_amp_cond1,3.0.4,59.98549407027563,
antral,,&&&&&&,right,nonword,,,,,,,,,,,,,,,0,92,92,102,,,,,,,,,,,,,LDT,right,0.25033836136572063,,,,,,1,,,,,,,,,,,,,right,1,0.25033836136572063,,,,,,,1013,2019_Mar_06_1151,mf_amp_cond1,3.0.4,59.98549407027563,
papert,,&&&&&&,right,nonword,,,,,,,,,,,,,,,0,93,93,35,,,,,,,,,,,,,LDT,right,0.00027582061011344194,,,,,,1,,,,,,,,,,,,,right,1,0.00027582061011344194,,,,,,,1013,2019_Mar_06_1151,mf_amp_cond1,3.0.4,59.98549407027563,
ronviolence,,&&&&&&&&&&&,right,nonword,,,,,,,,,,,,,,,0,94,94,8,,,,,,,,,,,,,LDT,right,0.200304493191652,,,,,,1,,,,,,,,,,,,,right,1,0.200304493191652,,,,,,,1013,2019_Mar_06_1151,mf_amp_cond1,3.0.4,59.98549407027563,
ammessment,,&&&&&&&&&&,right,nonword,,,,,,,,,,,,,,,0,95,95,23,,,,,,,,,,,,,LDT,right,0.01696104637812823,,,,,,1,,,,,,,,,,,,,right,1,0.01696104637812823,,,,,,,1013,2019_Mar_06_1151,mf_amp_cond1,3.0.4,59.98549407027563,
failure,,&&&&&&&,left,loyalty.vice,,,,,,,,,,,,,,,0,96,96,143,,,,,,,,,,,,,LDT,right,0.15028954751323909,,,,,,0,,,,,,,,,,,,,right,0,0.15028954751323909,,,,,,,1013,2019_Mar_06_1151,mf_amp_cond1,3.0.4,59.98549407027563,
lenon,,&&&&&,right,nonword,,,,,,,,,,,,,,,0,97,97,135,,,,,,,,,,,,,LDT,left,0.15029884851537645,,,,,,0,,,,,,,,,,,,,left,0,0.15029884851537645,,,,,,,1013,2019_Mar_06_1151,mf_amp_cond1,3.0.4,59.98549407027563,
promote,,&&&&&&&,left,sanctity.virtue,,,,,,,,,,,,,,,0,98,98,132,,,,,,,,,,,,,LDT,left,0.1669779805233702,,,,,,1,,,,,,,,,,,,,left,1,0.1669779805233702,,,,,,,1013,2019_Mar_06_1151,mf_amp_cond1,3.0.4,59.98549407027563,
erdest,,&&&&&&,right,nonword,,,,,,,,,,,,,,,0,99,99,183,,,,,,,,,,,,,LDT,right,0.11696014844346792,,,,,,1,,,,,,,,,,,,,right,1,0.11696014844346792,,,,,,,1013,2019_Mar_06_1151,mf_amp_cond1,3.0.4,59.98549407027563,
illegal,,&&&&&&&,left,fairness.vice,,,,,,,,,,,,,,,0,100,100,66,,,,,,,,,,,,,LDT,left,0.25031911802943796,,,,,,1,,,,,,,,,,,,,left,1,0.25031911802943796,,,,,,,1013,2019_Mar_06_1151,mf_amp_cond1,3.0.4,59.98549407027563,
hand,,&&&&,left,sanctity.virtue,,,,,,,,,,,,,,,0,101,101,19,,,,,,,,,,,,,LDT,right,0.2003102662274614,,,,,,0,,,,,,,,,,,,,right,0,0.2003102662274614,,,,,,,1013,2019_Mar_06_1151,mf_amp_cond1,3.0.4,59.98549407027563,
about,,&&&&&,left,neutral,,,,,,,,,,,,,,,0,102,102,188,,,,,,,,,,,,,LDT,left,0.26699151494540274,,,,,,1,,,,,,,,,,,,,left,1,0.26699151494540274,,,,,,,1013,2019_Mar_06_1151,mf_amp_cond1,3.0.4,59.98549407027563,
three,,&&&&&,left,neutral,,,,,,,,,,,,,,,0,103,103,45,,,,,,,,,,,,,LDT,right,0.06693942984566092,,,,,,0,,,,,,,,,,,,,right,0,0.06693942984566092,,,,,,,1013,2019_Mar_06_1151,mf_amp_cond1,3.0.4,59.98549407027563,
dignity,,&&&&&&&,left,sanctity.virtue,,,,,,,,,,,,,,,0,104,104,33,,,,,,,,,,,,,LDT,left,0.23365024907980114,,,,,,1,,,,,,,,,,,,,left,1,0.23365024907980114,,,,,,,1013,2019_Mar_06_1151,mf_amp_cond1,3.0.4,59.98549407027563,
also,,&&&&,left,neutral,,,,,,,,,,,,,,,0,105,105,62,,,,,,,,,,,,,LDT,right,0.05026510858442634,,,,,,0,,,,,,,,,,,,,right,0,0.05026510858442634,,,,,,,1013,2019_Mar_06_1151,mf_amp_cond1,3.0.4,59.98549407027563,
