words,nonwords,mask,corr_ans,category,AMP_prac_loop.thisRepN,AMP_prac_loop.thisTrialN,AMP_prac_loop.thisN,AMP_prac_loop.thisIndex,AMP_trials.thisRepN,AMP_trials.thisTrialN,AMP_trials.thisN,AMP_trials.thisIndex,LDT_prac_loop.thisRepN,LDT_prac_loop.thisTrialN,LDT_prac_loop.thisN,LDT_prac_loop.thisIndex,LDT_loop.thisRepN,LDT_loop.thisTrialN,LDT_loop.thisN,LDT_loop.thisIndex,tweet_loop.thisRepN,tweet_loop.thisTrialN,tweet_loop.thisN,tweet_loop.thisIndex,tweets,topic,begin_key.keys,begin_key.rt,key_resp_AMP_instr1.keys,key_resp_AMP_instr1.rt,resp_AMP_ready1.keys,resp_AMP_ready1.rt,resp_AMP_prac.keys,resp_AMP_prac.rt,task,keypress,RT,resp_AMP_ready.keys,resp_AMP_ready.rt,resp_AMP.keys,resp_AMP.corr,resp_AMP.rt,corr,AMP_nonword_rating.response,AMP_nonword_rating.rt,AMP_word_rating.response,AMP_word_rating.rt,AMP_random_rating.response,AMP_random_rating.rt,key_resp_LDT_instr.keys,key_resp_LDT_instr.rt,resp_LDT_prac.keys,resp_LDT_prac.rt,resp_LDT_ready.keys,resp_LDT_ready.rt,resp_LDT.keys,resp_LDT.corr,resp_LDT.rt,LDT_rating.response,LDT_rating.rt,key_resp_LDT_instr_2.keys,key_resp_LDT_instr_2.rt,participant,date,expName,psychopyVersion,frameRate,
,,,,,,,,,,,,,,,,,,,,,,,,,,,right,1258.413059117156,,,,,,,,,,,,,,,,,,,,,,,,,,,,,,,,,,,1015,2019_Mar_06_1245,mf_amp_cond1,3.0.4,59.98335896723193,
,,,,,,,,,,,,,,,,,,,,,,,,,,,,,right,0.5837435682769865,,,,,,,,,,,,,,,,,,,,,,,,,,,,,,,,,1015,2019_Mar_06_1245,mf_amp_cond1,3.0.4,59.98335896723193,
,,,,,,,,,,,,,,,,,,,,,,,,,,,,,,,right,1.8674200085224584,,,,,,,,,,,,,,,,,,,,,,,,,,,,,,,1015,2019_Mar_06_1245,mf_amp_cond1,3.0.4,59.98335896723193,
banana,kacket,&&&&&&,,,0,0,0,1,,,,,,,,,,,,,,,,,,,,,,,,,left,2.0674652949674055,AMP_prac,left,2.0674652949674055,,,,,,,,,,,,,,,,,,,,,,,,,,1015,2019_Mar_06_1245,mf_amp_cond1,3.0.4,59.98335896723193,
car,cemtuper,&&&&&&&&,,,0,1,1,0,,,,,,,,,,,,,,,,,,,,,,,,,left,1.050512054702267,AMP_prac,left,1.050512054702267,,,,,,,,,,,,,,,,,,,,,,,,,,1015,2019_Mar_06_1245,mf_amp_cond1,3.0.4,59.98335896723193,
scarf,bisebell,&&&&&&&&,,,0,2,2,3,,,,,,,,,,,,,,,,,,,,,,,,,right,1.0004929554415867,AMP_prac,right,1.0004929554415867,,,,,,,,,,,,,,,,,,,,,,,,,,1015,2019_Mar_06_1245,mf_amp_cond1,3.0.4,59.98335896723193,
keyboard,senk,&&&&,,,0,3,3,2,,,,,,,,,,,,,,,,,,,,,,,,,left,0.6837535427184775,AMP_prac,left,0.6837535427184775,,,,,,,,,,,,,,,,,,,,,,,,,,1015,2019_Mar_06_1245,mf_amp_cond1,3.0.4,59.98335896723193,
,,,,,,,,,,,,,,,,,,,,,,,,,,,,,,,,,,,,,,right,2.4342392017133534,,,,,,,,,,,,,,,,,,,,,,,,1015,2019_Mar_06_1245,mf_amp_cond1,3.0.4,59.98335896723193,
prosecution,pullness,&&&&&&&&,right,authority.vice,,,,,0,0,0,0,,,,,,,,,,,,,,,,,,,,,,,AMP,left,0.46706323337275535,,,left,0,0.46706323337275535,0,,,,,,,,,,,,,,,,,,,,1015,2019_Mar_06_1245,mf_amp_cond1,3.0.4,59.98335896723193,
smapper,vicissifude,&&&&&&&&&&&,None,nonword,,,,,0,1,1,1,,,,,,,,,,,,,,,,,,,,,,,AMP,left,0.316966486396268,,,left,0,0.316966486396268,0,,,,,,,,,,,,,,,,,,,,1015,2019_Mar_06_1245,mf_amp_cond1,3.0.4,59.98335896723193,
terrorist,viscs,&&&&&,right,loyalty.vice,,,,,0,2,2,2,,,,,,,,,,,,,,,,,,,,,,,AMP,left,0.8171189915155992,,,left,0,0.8171189915155992,0,,,,,,,,,,,,,,,,,,,,1015,2019_Mar_06_1245,mf_amp_cond1,3.0.4,59.98335896723193,
credit,gationwide,&&&&&&&&&&,left,fairness.virtue,,,,,0,3,3,3,,,,,,,,,,,,,,,,,,,,,,,AMP,left,1.0505207142559811,,,left,1,1.0505207142559811,1,,,,,,,,,,,,,,,,,,,,1015,2019_Mar_06_1245,mf_amp_cond1,3.0.4,59.98335896723193,
ability,imebreaker,&&&&&&&&&&,left,authority.virtue,,,,,0,4,4,4,,,,,,,,,,,,,,,,,,,,,,,AMP,right,1.8840910104336217,,,right,0,1.8840910104336217,0,,,,,,,,,,,,,,,,,,,,1015,2019_Mar_06_1245,mf_amp_cond1,3.0.4,59.98335896723193,
abuse,epigrach,&&&&&&&&,right,sanctity.vice,,,,,0,5,5,5,,,,,,,,,,,,,,,,,,,,,,,AMP,left,0.7004258275264874,,,left,0,0.7004258275264874,0,,,,,,,,,,,,,,,,,,,,1015,2019_Mar_06_1245,mf_amp_cond1,3.0.4,59.98335896723193,
agreement,frocessing,&&&&&&&&&&,left,fairness.virtue,,,,,0,6,6,6,,,,,,,,,,,,,,,,,,,,,,,AMP,right,0.8005018716212362,,,right,0,0.8005018716212362,0,,,,,,,,,,,,,,,,,,,,1015,2019_Mar_06_1245,mf_amp_cond1,3.0.4,59.98335896723193,
useful,dormandi,&&&&&&&&,left,authority.virtue,,,,,0,7,7,7,,,,,,,,,,,,,,,,,,,,,,,AMP,right,1.0170991707127541,,,right,0,1.0170991707127541,0,,,,,,,,,,,,,,,,,,,,1015,2019_Mar_06_1245,mf_amp_cond1,3.0.4,59.98335896723193,
unpleasant,lenon,&&&&&,None,control,,,,,0,8,8,8,,,,,,,,,,,,,,,,,,,,,,,AMP,right,1.934103695093654,,,right,0,1.934103695093654,0,,,,,,,,,,,,,,,,,,,,1015,2019_Mar_06_1245,mf_amp_cond1,3.0.4,59.98335896723193,
accused,brotesque,&&&&&&&&&,right,fairness.vice,,,,,0,9,9,9,,,,,,,,,,,,,,,,,,,,,,,AMP,right,1.6173261161893606,,,right,1,1.6173261161893606,1,,,,,,,,,,,,,,,,,,,,1015,2019_Mar_06_1245,mf_amp_cond1,3.0.4,59.98335896723193,
ban,slending,&&&&&&&&,right,loyalty.vice,,,,,0,10,10,10,,,,,,,,,,,,,,,,,,,,,,,AMP,left,1.5673233739798889,,,left,0,1.5673233739798889,0,,,,,,,,,,,,,,,,,,,,1015,2019_Mar_06_1245,mf_amp_cond1,3.0.4,59.98335896723193,
increase,chonograph,&&&&&&&&&&,left,care.virtue,,,,,0,11,11,11,,,,,,,,,,,,,,,,,,,,,,,AMP,left,1.3672735972795635,,,left,1,1.3672735972795635,1,,,,,,,,,,,,,,,,,,,,1015,2019_Mar_06_1245,mf_amp_cond1,3.0.4,59.98335896723193,
police,sowntrodden,&&&&&&&&&&&,right,authority.vice,,,,,0,12,12,12,,,,,,,,,,,,,,,,,,,,,,,AMP,left,1.6673638174543157,,,left,0,1.6673638174543157,0,,,,,,,,,,,,,,,,,,,,1015,2019_Mar_06_1245,mf_amp_cond1,3.0.4,59.98335896723193,
illegal,blunderints,&&&&&&&&&&&,right,fairness.vice,,,,,0,13,13,13,,,,,,,,,,,,,,,,,,,,,,,AMP,left,0.9338233808521181,,,left,0,0.9338233808521181,0,,,,,,,,,,,,,,,,,,,,1015,2019_Mar_06_1245,mf_amp_cond1,3.0.4,59.98335896723193,
betrayal,suggists,&&&&&&&&,right,loyalty.vice,,,,,0,14,14,14,,,,,,,,,,,,,,,,,,,,,,,AMP,left,1.3339238963089883,,,left,0,1.3339238963089883,0,,,,,,,,,,,,,,,,,,,,1015,2019_Mar_06_1245,mf_amp_cond1,3.0.4,59.98335896723193,
values,crilfully,&&&&&&&&&,left,sanctity.virtue,,,,,0,15,15,15,,,,,,,,,,,,,,,,,,,,,,,AMP,right,2.1174520009662956,,,right,0,2.1174520009662956,0,,,,,,,,,,,,,,,,,,,,1015,2019_Mar_06_1245,mf_amp_cond1,3.0.4,59.98335896723193,
violations,tabin,&&&&&,right,sanctity.vice,,,,,0,16,16,16,,,,,,,,,,,,,,,,,,,,,,,AMP,left,3.0177002106793225,,,left,0,3.0177002106793225,0,,,,,,,,,,,,,,,,,,,,1015,2019_Mar_06_1245,mf_amp_cond1,3.0.4,59.98335896723193,
stindig,frojecting,&&&&&&&&&&,None,nonword,,,,,0,17,17,17,,,,,,,,,,,,,,,,,,,,,,,AMP,left,1.117184515693225,,,left,0,1.117184515693225,0,,,,,,,,,,,,,,,,,,,,1015,2019_Mar_06_1245,mf_amp_cond1,3.0.4,59.98335896723193,
Loorish,chadows,&&&&&&&,None,nonword,,,,,0,18,18,18,,,,,,,,,,,,,,,,,,,,,,,AMP,left,0.9171822065254673,,,left,0,0.9171822065254673,0,,,,,,,,,,,,,,,,,,,,1015,2019_Mar_06_1245,mf_amp_cond1,3.0.4,59.98335896723193,
penalty,touls,&&&&&,right,authority.vice,,,,,0,19,19,19,,,,,,,,,,,,,,,,,,,,,,,AMP,left,0.9504687245935202,,,left,0,0.9504687245935202,0,,,,,,,,,,,,,,,,,,,,1015,2019_Mar_06_1245,mf_amp_cond1,3.0.4,59.98335896723193,
violence,refuejing,&&&&&&&&&,right,care.vice,,,,,0,20,20,20,,,,,,,,,,,,,,,,,,,,,,,AMP,left,1.7173941420624033,,,left,0,1.7173941420624033,0,,,,,,,,,,,,,,,,,,,,1015,2019_Mar_06_1245,mf_amp_cond1,3.0.4,59.98335896723193,
pleasant,galamitous,&&&&&&&&&&,None,control,,,,,0,21,21,21,,,,,,,,,,,,,,,,,,,,,,,AMP,right,0.6504012759542093,,,right,0,0.6504012759542093,0,,,,,,,,,,,,,,,,,,,,1015,2019_Mar_06_1245,mf_amp_cond1,3.0.4,59.98335896723193,
promises,alar,&&&&,left,fairness.virtue,,,,,0,22,22,22,,,,,,,,,,,,,,,,,,,,,,,AMP,left,1.2672052506823093,,,left,1,1.2672052506823093,1,,,,,,,,,,,,,,,,,,,,1015,2019_Mar_06_1245,mf_amp_cond1,3.0.4,59.98335896723193,
oam,leact,&&&&&,None,nonword,,,,,0,23,23,23,,,,,,,,,,,,,,,,,,,,,,,AMP,left,0.8671368077630177,,,left,0,0.8671368077630177,0,,,,,,,,,,,,,,,,,,,,1015,2019_Mar_06_1245,mf_amp_cond1,3.0.4,59.98335896723193,
safe,lorthwhile,&&&&&&&&&&,left,care.virtue,,,,,0,24,24,24,,,,,,,,,,,,,,,,,,,,,,,AMP,right,0.7337649445980787,,,right,0,0.7337649445980787,0,,,,,,,,,,,,,,,,,,,,1015,2019_Mar_06_1245,mf_amp_cond1,3.0.4,59.98335896723193,
sexual,sidearbs,&&&&&&&&,right,sanctity.vice,,,,,0,25,25,25,,,,,,,,,,,,,,,,,,,,,,,AMP,left,1.2337513137608767,,,left,0,1.2337513137608767,0,,,,,,,,,,,,,,,,,,,,1015,2019_Mar_06_1245,mf_amp_cond1,3.0.4,59.98335896723193,
win,presentkess,&&&&&&&&&&&,left,fairness.virtue,,,,,0,26,26,26,,,,,,,,,,,,,,,,,,,,,,,AMP,right,2.4508855077438056,,,right,0,2.4508855077438056,0,,,,,,,,,,,,,,,,,,,,1015,2019_Mar_06_1245,mf_amp_cond1,3.0.4,59.98335896723193,
riot,reelectiob,&&&&&&&&&&,right,authority.vice,,,,,0,27,27,27,,,,,,,,,,,,,,,,,,,,,,,AMP,left,1.1838807106250897,,,left,0,1.1838807106250897,0,,,,,,,,,,,,,,,,,,,,1015,2019_Mar_06_1245,mf_amp_cond1,3.0.4,59.98335896723193,
drug,mih,&&&,right,sanctity.vice,,,,,0,28,28,28,,,,,,,,,,,,,,,,,,,,,,,AMP,right,0.8838706718524918,,,right,1,0.8838706718524918,1,,,,,,,,,,,,,,,,,,,,1015,2019_Mar_06_1245,mf_amp_cond1,3.0.4,59.98335896723193,
faith,gowlands,&&&&&&&&,left,sanctity.virtue,,,,,0,29,29,29,,,,,,,,,,,,,,,,,,,,,,,AMP,right,0.7837795537197962,,,right,0,0.7837795537197962,0,,,,,,,,,,,,,,,,,,,,1015,2019_Mar_06_1245,mf_amp_cond1,3.0.4,59.98335896723193,
civilians,thabbily,&&&&&&&&,right,care.vice,,,,,0,30,30,30,,,,,,,,,,,,,,,,,,,,,,,AMP,left,1.5173049161676317,,,left,0,1.5173049161676317,0,,,,,,,,,,,,,,,,,,,,1015,2019_Mar_06_1245,mf_amp_cond1,3.0.4,59.98335896723193,
squets,perified,&&&&&&&&,None,nonword,,,,,0,31,31,31,,,,,,,,,,,,,,,,,,,,,,,AMP,left,1.133868988021277,,,left,0,1.133868988021277,0,,,,,,,,,,,,,,,,,,,,1015,2019_Mar_06_1245,mf_amp_cond1,3.0.4,59.98335896723193,
help,laming,&&&&&&,left,care.virtue,,,,,0,32,32,32,,,,,,,,,,,,,,,,,,,,,,,AMP,left,1.3672703900374472,,,left,1,1.3672703900374472,1,,,,,,,,,,,,,,,,,,,,1015,2019_Mar_06_1245,mf_amp_cond1,3.0.4,59.98335896723193,
peaceful,scalbel,&&&&&&&,left,authority.virtue,,,,,0,33,33,33,,,,,,,,,,,,,,,,,,,,,,,AMP,left,1.1005237771896645,,,left,1,1.1005237771896645,1,,,,,,,,,,,,,,,,,,,,1015,2019_Mar_06_1245,mf_amp_cond1,3.0.4,59.98335896723193,
care,elduringly,&&&&&&&&&&,left,care.virtue,,,,,0,34,34,34,,,,,,,,,,,,,,,,,,,,,,,AMP,right,1.450627323356457,,,right,0,1.450627323356457,0,,,,,,,,,,,,,,,,,,,,1015,2019_Mar_06_1245,mf_amp_cond1,3.0.4,59.98335896723193,
failure,godlaness,&&&&&&&&&,right,loyalty.vice,,,,,0,35,35,35,,,,,,,,,,,,,,,,,,,,,,,AMP,right,0.9338060616282746,,,right,1,0.9338060616282746,1,,,,,,,,,,,,,,,,,,,,1015,2019_Mar_06_1245,mf_amp_cond1,3.0.4,59.98335896723193,
noped,nomparisons,&&&&&&&&&&&,None,nonword,,,,,0,36,36,36,,,,,,,,,,,,,,,,,,,,,,,AMP,right,2.4675478498684242,,,right,0,2.4675478498684242,0,,,,,,,,,,,,,,,,,,,,1015,2019_Mar_06_1245,mf_amp_cond1,3.0.4,59.98335896723193,
scandal,framo,&&&&&,right,sanctity.vice,,,,,0,37,37,37,,,,,,,,,,,,,,,,,,,,,,,AMP,right,0.833836177829653,,,right,1,0.833836177829653,1,,,,,,,,,,,,,,,,,,,,1015,2019_Mar_06_1245,mf_amp_cond1,3.0.4,59.98335896723193,
attacks,bycled,&&&&&&,right,care.vice,,,,,0,38,38,38,,,,,,,,,,,,,,,,,,,,,,,AMP,right,1.3005709879798815,,,right,1,1.3005709879798815,1,,,,,,,,,,,,,,,,,,,,1015,2019_Mar_06_1245,mf_amp_cond1,3.0.4,59.98335896723193,
integrity,seachwear,&&&&&&&&&,left,fairness.virtue,,,,,0,39,39,39,,,,,,,,,,,,,,,,,,,,,,,AMP,right,4.218019717489369,,,right,0,4.218019717489369,0,,,,,,,,,,,,,,,,,,,,1015,2019_Mar_06_1245,mf_amp_cond1,3.0.4,59.98335896723193,
corruption,disregord,&&&&&&&&&,right,sanctity.vice,,,,,0,40,40,40,,,,,,,,,,,,,,,,,,,,,,,AMP,left,2.3175267942715436,,,left,0,2.3175267942715436,0,,,,,,,,,,,,,,,,,,,,1015,2019_Mar_06_1245,mf_amp_cond1,3.0.4,59.98335896723193,
fighters,focomotive,&&&&&&&&&&,right,authority.vice,,,,,0,41,41,41,,,,,,,,,,,,,,,,,,,,,,,AMP,right,1.8840618242975324,,,right,1,1.8840618242975324,1,,,,,,,,,,,,,,,,,,,,1015,2019_Mar_06_1245,mf_amp_cond1,3.0.4,59.98335896723193,
strength,prones,&&&&&&,left,sanctity.virtue,,,,,0,42,42,42,,,,,,,,,,,,,,,,,,,,,,,AMP,right,1.0004993699258193,,,right,0,1.0004993699258193,0,,,,,,,,,,,,,,,,,,,,1015,2019_Mar_06_1245,mf_amp_cond1,3.0.4,59.98335896723193,
great,fegard,&&&&&&,left,loyalty.virtue,,,,,0,43,43,43,,,,,,,,,,,,,,,,,,,,,,,AMP,left,2.550884898286313,,,left,1,2.550884898286313,1,,,,,,,,,,,,,,,,,,,,1015,2019_Mar_06_1245,mf_amp_cond1,3.0.4,59.98335896723193,
intelligence,carvels,&&&&&&&,left,loyalty.virtue,,,,,0,44,44,44,,,,,,,,,,,,,,,,,,,,,,,AMP,left,1.3172496871557087,,,left,1,1.3172496871557087,1,,,,,,,,,,,,,,,,,,,,1015,2019_Mar_06_1245,mf_amp_cond1,3.0.4,59.98335896723193,
death,antral,&&&&&&,right,care.vice,,,,,0,45,45,45,,,,,,,,,,,,,,,,,,,,,,,AMP,right,0.6670790129574016,,,right,1,0.6670790129574016,1,,,,,,,,,,,,,,,,,,,,1015,2019_Mar_06_1245,mf_amp_cond1,3.0.4,59.98335896723193,
freedom,fontacts,&&&&&&&&,left,sanctity.virtue,,,,,0,46,46,46,,,,,,,,,,,,,,,,,,,,,,,AMP,left,1.700636544264853,,,left,1,1.700636544264853,1,,,,,,,,,,,,,,,,,,,,1015,2019_Mar_06_1245,mf_amp_cond1,3.0.4,59.98335896723193,
torture,greaks,&&&&&&,right,care.vice,,,,,0,47,47,47,,,,,,,,,,,,,,,,,,,,,,,AMP,right,1.1171915717422962,,,right,1,1.1171915717422962,1,,,,,,,,,,,,,,,,,,,,1015,2019_Mar_06_1245,mf_amp_cond1,3.0.4,59.98335896723193,
prison,unreflectuve,&&&&&&&&&&&&,right,fairness.vice,,,,,0,48,48,48,,,,,,,,,,,,,,,,,,,,,,,AMP,left,1.2672350781504065,,,left,0,1.2672350781504065,0,,,,,,,,,,,,,,,,,,,,1015,2019_Mar_06_1245,mf_amp_cond1,3.0.4,59.98335896723193,
fear,counpy's,&&&&&&&&,right,sanctity.vice,,,,,0,49,49,49,,,,,,,,,,,,,,,,,,,,,,,AMP,left,0.7004107534885406,,,left,0,0.7004107534885406,0,,,,,,,,,,,,,,,,,,,,1015,2019_Mar_06_1245,mf_amp_cond1,3.0.4,59.98335896723193,
respect,Lacedonia,&&&&&&&&&,left,sanctity.virtue,,,,,0,50,50,50,,,,,,,,,,,,,,,,,,,,,,,AMP,right,0.8337906347587705,,,right,0,0.8337906347587705,0,,,,,,,,,,,,,,,,,,,,1015,2019_Mar_06_1245,mf_amp_cond1,3.0.4,59.98335896723193,
good,simplustic,&&&&&&&&&&,left,care.virtue,,,,,0,51,51,51,,,,,,,,,,,,,,,,,,,,,,,AMP,right,0.8337906347587705,,,right,0,0.8337906347587705,0,,,,,,,,,,,,,,,,,,,,1015,2019_Mar_06_1245,mf_amp_cond1,3.0.4,59.98335896723193,
lachelor,feleological,&&&&&&&&&&&&,None,nonword,,,,,0,52,52,52,,,,,,,,,,,,,,,,,,,,,,,AMP,left,1.0338227715110406,,,left,0,1.0338227715110406,0,,,,,,,,,,,,,,,,,,,,1015,2019_Mar_06_1245,mf_amp_cond1,3.0.4,59.98335896723193,
victims,sliptery,&&&&&&&&,right,care.vice,,,,,0,53,53,53,,,,,,,,,,,,,,,,,,,,,,,AMP,left,2.8509879475459456,,,left,0,2.8509879475459456,0,,,,,,,,,,,,,,,,,,,,1015,2019_Mar_06_1245,mf_amp_cond1,3.0.4,59.98335896723193,
restore,reprisols,&&&&&&&&&,left,care.virtue,,,,,0,54,54,54,,,,,,,,,,,,,,,,,,,,,,,AMP,left,0.7504433231661096,,,left,1,0.7504433231661096,1,,,,,,,,,,,,,,,,,,,,1015,2019_Mar_06_1245,mf_amp_cond1,3.0.4,59.98335896723193,
praised,ilportation,&&&&&&&&&&&,left,loyalty.virtue,,,,,0,55,55,55,,,,,,,,,,,,,,,,,,,,,,,AMP,right,0.9171315318671986,,,right,0,0.9171315318671986,0,,,,,,,,,,,,,,,,,,,,1015,2019_Mar_06_1245,mf_amp_cond1,3.0.4,59.98335896723193,
threatened,Daptist,&&&&&&&,right,fairness.vice,,,,,0,56,56,56,,,,,,,,,,,,,,,,,,,,,,,AMP,left,1.567341655259952,,,left,0,1.567341655259952,0,,,,,,,,,,,,,,,,,,,,1015,2019_Mar_06_1245,mf_amp_cond1,3.0.4,59.98335896723193,
friends,chared,&&&&&&,left,loyalty.virtue,,,,,0,57,57,57,,,,,,,,,,,,,,,,,,,,,,,AMP,right,1.850731046171859,,,right,0,1.850731046171859,0,,,,,,,,,,,,,,,,,,,,1015,2019_Mar_06_1245,mf_amp_cond1,3.0.4,59.98335896723193,
abointment,neputized,&&&&&&&&&,None,nonword,,,,,0,58,58,58,,,,,,,,,,,,,,,,,,,,,,,AMP,left,0.6504015966784209,,,left,0,0.6504015966784209,0,,,,,,,,,,,,,,,,,,,,1015,2019_Mar_06_1245,mf_amp_cond1,3.0.4,59.98335896723193,
compassion,juck,&&&&,left,care.virtue,,,,,0,59,59,59,,,,,,,,,,,,,,,,,,,,,,,AMP,left,0.43364778358954936,,,left,1,0.43364778358954936,1,,,,,,,,,,,,,,,,,,,,1015,2019_Mar_06_1245,mf_amp_cond1,3.0.4,59.98335896723193,
loyalty,ning,&&&&,left,loyalty.virtue,,,,,0,60,60,60,,,,,,,,,,,,,,,,,,,,,,,AMP,right,0.733755964320153,,,right,0,0.733755964320153,0,,,,,,,,,,,,,,,,,,,,1015,2019_Mar_06_1245,mf_amp_cond1,3.0.4,59.98335896723193,
terrorists,ammessment,&&&&&&&&&&,right,fairness.vice,,,,,0,61,61,61,,,,,,,,,,,,,,,,,,,,,,,AMP,left,1.5839828295866027,,,left,0,1.5839828295866027,0,,,,,,,,,,,,,,,,,,,,1015,2019_Mar_06_1245,mf_amp_cond1,3.0.4,59.98335896723193,
progress,dumid,&&&&&,left,authority.virtue,,,,,0,62,62,62,,,,,,,,,,,,,,,,,,,,,,,AMP,left,0.8671310347272083,,,left,1,0.8671310347272083,1,,,,,,,,,,,,,,,,,,,,1015,2019_Mar_06_1245,mf_amp_cond1,3.0.4,59.98335896723193,
dignity,taxpayung,&&&&&&&&&,left,sanctity.virtue,,,,,0,63,63,63,,,,,,,,,,,,,,,,,,,,,,,AMP,left,1.100538530619815,,,left,1,1.100538530619815,1,,,,,,,,,,,,,,,,,,,,1015,2019_Mar_06_1245,mf_amp_cond1,3.0.4,59.98335896723193,
shot,openet,&&&&&&,right,care.vice,,,,,0,64,64,64,,,,,,,,,,,,,,,,,,,,,,,AMP,left,1.9840875144582242,,,left,0,1.9840875144582242,0,,,,,,,,,,,,,,,,,,,,1015,2019_Mar_06_1245,mf_amp_cond1,3.0.4,59.98335896723193,
promised,synchronazers,&&&&&&&&&&&&&,left,loyalty.virtue,,,,,0,65,65,65,,,,,,,,,,,,,,,,,,,,,,,AMP,right,0.9171559070236981,,,right,0,0.9171559070236981,0,,,,,,,,,,,,,,,,,,,,1015,2019_Mar_06_1245,mf_amp_cond1,3.0.4,59.98335896723193,
troops,nonobservalt,&&&&&&&&&&&&,right,loyalty.vice,,,,,0,66,66,66,,,,,,,,,,,,,,,,,,,,,,,AMP,left,0.7504301733570173,,,left,0,0.7504301733570173,0,,,,,,,,,,,,,,,,,,,,1015,2019_Mar_06_1245,mf_amp_cond1,3.0.4,59.98335896723193,
celebrated,sickyay,&&&&&&&,left,authority.virtue,,,,,0,67,67,67,,,,,,,,,,,,,,,,,,,,,,,AMP,left,1.750718826544471,,,left,1,1.750718826544471,1,,,,,,,,,,,,,,,,,,,,1015,2019_Mar_06_1245,mf_amp_cond1,3.0.4,59.98335896723193,
charges,gournful,&&&&&&&&,right,fairness.vice,,,,,0,68,68,68,,,,,,,,,,,,,,,,,,,,,,,AMP,left,0.950451084645465,,,left,0,0.950451084645465,0,,,,,,,,,,,,,,,,,,,,1015,2019_Mar_06_1245,mf_amp_cond1,3.0.4,59.98335896723193,
blamed,tove,&&&&,right,loyalty.vice,,,,,0,69,69,69,,,,,,,,,,,,,,,,,,,,,,,AMP,right,1.1838736545760185,,,right,1,1.1838736545760185,1,,,,,,,,,,,,,,,,,,,,1015,2019_Mar_06_1245,mf_amp_cond1,3.0.4,59.98335896723193,
embrace,edancipation,&&&&&&&&&&&&,left,authority.virtue,,,,,0,70,70,70,,,,,,,,,,,,,,,,,,,,,,,AMP,left,1.450621550437063,,,left,1,1.450621550437063,1,,,,,,,,,,,,,,,,,,,,1015,2019_Mar_06_1245,mf_amp_cond1,3.0.4,59.98335896723193,
rorroborated,sfumatoy,&&&&&&&&,None,nonword,,,,,0,71,71,71,,,,,,,,,,,,,,,,,,,,,,,AMP,left,1.5839921307051554,,,left,0,1.5839921307051554,0,,,,,,,,,,,,,,,,,,,,1015,2019_Mar_06_1245,mf_amp_cond1,3.0.4,59.98335896723193,
party,festate,&&&&&&&,left,loyalty.virtue,,,,,0,72,72,72,,,,,,,,,,,,,,,,,,,,,,,AMP,right,0.7336289569502696,,,right,0,0.7336289569502696,0,,,,,,,,,,,,,,,,,,,,1015,2019_Mar_06_1245,mf_amp_cond1,3.0.4,59.98335896723193,
interests,quarterbocks,&&&&&&&&&&&&,left,fairness.virtue,,,,,0,73,73,73,,,,,,,,,,,,,,,,,,,,,,,AMP,right,0.7837779500987381,,,right,0,0.7837779500987381,0,,,,,,,,,,,,,,,,,,,,1015,2019_Mar_06_1245,mf_amp_cond1,3.0.4,59.98335896723193,
gikely,drumbled,&&&&&&&&,None,nonword,,,,,0,74,74,74,,,,,,,,,,,,,,,,,,,,,,,AMP,right,0.8671214130008593,,,right,0,0.8671214130008593,0,,,,,,,,,,,,,,,,,,,,1015,2019_Mar_06_1245,mf_amp_cond1,3.0.4,59.98335896723193,
critics,spag,&&&&,right,loyalty.vice,,,,,0,75,75,75,,,,,,,,,,,,,,,,,,,,,,,AMP,left,0.5837256076047197,,,left,0,0.5837256076047197,0,,,,,,,,,,,,,,,,,,,,1015,2019_Mar_06_1245,mf_amp_cond1,3.0.4,59.98335896723193,
powerful,halaise,&&&&&&&,left,authority.virtue,,,,,0,76,76,76,,,,,,,,,,,,,,,,,,,,,,,AMP,right,2.00081977492664,,,right,0,2.00081977492664,0,,,,,,,,,,,,,,,,,,,,1015,2019_Mar_06_1245,mf_amp_cond1,3.0.4,59.98335896723193,
protesters,photocalkodes,&&&&&&&&&&&&&,right,authority.vice,,,,,0,77,77,77,,,,,,,,,,,,,,,,,,,,,,,AMP,left,1.2004388169152662,,,left,0,1.2004388169152662,0,,,,,,,,,,,,,,,,,,,,1015,2019_Mar_06_1245,mf_amp_cond1,3.0.4,59.98335896723193,
hate,chressing,&&&&&&&&&,right,fairness.vice,,,,,0,78,78,78,,,,,,,,,,,,,,,,,,,,,,,AMP,right,1.9674213235266507,,,right,1,1.9674213235266507,1,,,,,,,,,,,,,,,,,,,,1015,2019_Mar_06_1245,mf_amp_cond1,3.0.4,59.98335896723193,
free,yane,&&&&,left,fairness.virtue,,,,,0,79,79,79,,,,,,,,,,,,,,,,,,,,,,,AMP,left,1.7506944512715563,,,left,1,1.7506944512715563,1,,,,,,,,,,,,,,,,,,,,1015,2019_Mar_06_1245,mf_amp_cond1,3.0.4,59.98335896723193,
refused,clamorek,&&&&&&&&,right,authority.vice,,,,,0,80,80,80,,,,,,,,,,,,,,,,,,,,,,,AMP,left,0.9004727175924927,,,left,0,0.9004727175924927,0,,,,,,,,,,,,,,,,,,,,1015,2019_Mar_06_1245,mf_amp_cond1,3.0.4,59.98335896723193,
clean,gazily,&&&&&&,left,sanctity.virtue,,,,,0,81,81,81,,,,,,,,,,,,,,,,,,,,,,,AMP,right,2.7843071474926546,,,right,0,2.7843071474926546,0,,,,,,,,,,,,,,,,,,,,1015,2019_Mar_06_1245,mf_amp_cond1,3.0.4,59.98335896723193,
charges,quarterbocks,&&&&&&&&&&&&,right,fairness.vice,,,,,0,82,82,82,,,,,,,,,,,,,,,,,,,,,,,AMP,right,0.8837940184166655,,,right,1,0.8837940184166655,1,,,,,,,,,,,,,,,,,,,,1015,2019_Mar_06_1245,mf_amp_cond1,3.0.4,59.98335896723193,
scandal,chadows,&&&&&&&,right,sanctity.vice,,,,,0,83,83,83,,,,,,,,,,,,,,,,,,,,,,,AMP,left,1.8007148335454985,,,left,0,1.8007148335454985,0,,,,,,,,,,,,,,,,,,,,1015,2019_Mar_06_1245,mf_amp_cond1,3.0.4,59.98335896723193,
fighters,brotesque,&&&&&&&&&,right,authority.vice,,,,,0,84,84,84,,,,,,,,,,,,,,,,,,,,,,,AMP,right,0.7004306383896619,,,right,1,0.7004306383896619,1,,,,,,,,,,,,,,,,,,,,1015,2019_Mar_06_1245,mf_amp_cond1,3.0.4,59.98335896723193,
progress,presentkess,&&&&&&&&&&&,left,authority.virtue,,,,,0,85,85,85,,,,,,,,,,,,,,,,,,,,,,,AMP,left,0.783782119397074,,,left,1,0.783782119397074,1,,,,,,,,,,,,,,,,,,,,1015,2019_Mar_06_1245,mf_amp_cond1,3.0.4,59.98335896723193,
loyalty,greaks,&&&&&&,left,loyalty.virtue,,,,,0,86,86,86,,,,,,,,,,,,,,,,,,,,,,,AMP,right,0.5337103570345789,,,right,0,0.5337103570345789,0,,,,,,,,,,,,,,,,,,,,1015,2019_Mar_06_1245,mf_amp_cond1,3.0.4,59.98335896723193,
abuse,fegard,&&&&&&,right,sanctity.vice,,,,,0,87,87,87,,,,,,,,,,,,,,,,,,,,,,,AMP,left,0.8671801057644188,,,left,0,0.8671801057644188,0,,,,,,,,,,,,,,,,,,,,1015,2019_Mar_06_1245,mf_amp_cond1,3.0.4,59.98335896723193,
interests,sidearbs,&&&&&&&&,left,fairness.virtue,,,,,0,88,88,88,,,,,,,,,,,,,,,,,,,,,,,AMP,left,1.133886307128705,,,left,1,1.133886307128705,1,,,,,,,,,,,,,,,,,,,,1015,2019_Mar_06_1245,mf_amp_cond1,3.0.4,59.98335896723193,
compassion,dumid,&&&&&,left,care.virtue,,,,,0,89,89,89,,,,,,,,,,,,,,,,,,,,,,,AMP,right,0.9004695103503764,,,right,0,0.9004695103503764,0,,,,,,,,,,,,,,,,,,,,1015,2019_Mar_06_1245,mf_amp_cond1,3.0.4,59.98335896723193,
penalty,mih,&&&,right,authority.vice,,,,,0,90,90,90,,,,,,,,,,,,,,,,,,,,,,,AMP,right,0.3836655677296221,,,right,1,0.3836655677296221,1,,,,,,,,,,,,,,,,,,,,1015,2019_Mar_06_1245,mf_amp_cond1,3.0.4,59.98335896723193,
shot,unreflectuve,&&&&&&&&&&&&,right,care.vice,,,,,0,91,91,91,,,,,,,,,,,,,,,,,,,,,,,AMP,left,0.8671352042583749,,,left,0,0.8671352042583749,0,,,,,,,,,,,,,,,,,,,,1015,2019_Mar_06_1245,mf_amp_cond1,3.0.4,59.98335896723193,
values,lorthwhile,&&&&&&&&&&,left,sanctity.virtue,,,,,0,92,92,92,,,,,,,,,,,,,,,,,,,,,,,AMP,right,0.8171096903970465,,,right,0,0.8171096903970465,0,,,,,,,,,,,,,,,,,,,,1015,2019_Mar_06_1245,mf_amp_cond1,3.0.4,59.98335896723193,
protesters,frojecting,&&&&&&&&&&,right,authority.vice,,,,,0,93,93,93,,,,,,,,,,,,,,,,,,,,,,,AMP,left,1.0504973012721166,,,left,0,1.0504973012721166,0,,,,,,,,,,,,,,,,,,,,1015,2019_Mar_06_1245,mf_amp_cond1,3.0.4,59.98335896723193,
clean,tabin,&&&&&,left,sanctity.virtue,,,,,0,94,94,94,,,,,,,,,,,,,,,,,,,,,,,AMP,right,1.0838790748966858,,,right,0,1.0838790748966858,0,,,,,,,,,,,,,,,,,,,,1015,2019_Mar_06_1245,mf_amp_cond1,3.0.4,59.98335896723193,
party,ilportation,&&&&&&&&&&&,left,loyalty.virtue,,,,,0,95,95,95,,,,,,,,,,,,,,,,,,,,,,,AMP,left,0.683752580662258,,,left,1,0.683752580662258,1,,,,,,,,,,,,,,,,,,,,1015,2019_Mar_06_1245,mf_amp_cond1,3.0.4,59.98335896723193,
prosecution,epigrach,&&&&&&&&,right,authority.vice,,,,,0,96,96,96,,,,,,,,,,,,,,,,,,,,,,,AMP,left,1.033856768393889,,,left,0,1.033856768393889,0,,,,,,,,,,,,,,,,,,,,1015,2019_Mar_06_1245,mf_amp_cond1,3.0.4,59.98335896723193,
failure,leact,&&&&&,right,loyalty.vice,,,,,0,97,97,97,,,,,,,,,,,,,,,,,,,,,,,AMP,left,0.567032154998742,,,left,0,0.567032154998742,0,,,,,,,,,,,,,,,,,,,,1015,2019_Mar_06_1245,mf_amp_cond1,3.0.4,59.98335896723193,
rorroborated,blunderints,&&&&&&&&&&&,None,nonword,,,,,0,98,98,98,,,,,,,,,,,,,,,,,,,,,,,AMP,left,0.7002590501215309,,,left,0,0.7002590501215309,0,,,,,,,,,,,,,,,,,,,,1015,2019_Mar_06_1245,mf_amp_cond1,3.0.4,59.98335896723193,
unpleasant,edancipation,&&&&&&&&&&&&,None,control,,,,,0,99,99,99,,,,,,,,,,,,,,,,,,,,,,,AMP,right,0.6503993516089395,,,right,0,0.6503993516089395,0,,,,,,,,,,,,,,,,,,,,1015,2019_Mar_06_1245,mf_amp_cond1,3.0.4,59.98335896723193,
help,chressing,&&&&&&&&&,left,care.virtue,,,,,0,100,100,100,,,,,,,,,,,,,,,,,,,,,,,AMP,right,0.80045953579247,,,right,0,0.80045953579247,0,,,,,,,,,,,,,,,,,,,,1015,2019_Mar_06_1245,mf_amp_cond1,3.0.4,59.98335896723193,
ban,antral,&&&&&&,right,loyalty.vice,,,,,0,101,101,101,,,,,,,,,,,,,,,,,,,,,,,AMP,left,0.567041776725091,,,left,0,0.567041776725091,0,,,,,,,,,,,,,,,,,,,,1015,2019_Mar_06_1245,mf_amp_cond1,3.0.4,59.98335896723193,
agreement,feleological,&&&&&&&&&&&&,left,fairness.virtue,,,,,0,102,102,102,,,,,,,,,,,,,,,,,,,,,,,AMP,left,2.9843620556639507,,,left,1,2.9843620556639507,1,,,,,,,,,,,,,,,,,,,,1015,2019_Mar_06_1245,mf_amp_cond1,3.0.4,59.98335896723193,
increase,synchronazers,&&&&&&&&&&&&&,left,care.virtue,,,,,0,103,103,103,,,,,,,,,,,,,,,,,,,,,,,AMP,right,0.6504035210236907,,,right,0,0.6504035210236907,0,,,,,,,,,,,,,,,,,,,,1015,2019_Mar_06_1245,mf_amp_cond1,3.0.4,59.98335896723193,
violence,chonograph,&&&&&&&&&&,right,care.vice,,,,,0,104,104,104,,,,,,,,,,,,,,,,,,,,,,,AMP,left,1.1171816291753203,,,left,0,1.1171816291753203,0,,,,,,,,,,,,,,,,,,,,1015,2019_Mar_06_1245,mf_amp_cond1,3.0.4,59.98335896723193,
strength,pullness,&&&&&&&&,left,sanctity.virtue,,,,,0,105,105,105,,,,,,,,,,,,,,,,,,,,,,,AMP,right,0.4503996081184596,,,right,0,0.4503996081184596,0,,,,,,,,,,,,,,,,,,,,1015,2019_Mar_06_1245,mf_amp_cond1,3.0.4,59.98335896723193,
powerful,crilfully,&&&&&&&&&,left,authority.virtue,,,,,0,106,106,106,,,,,,,,,,,,,,,,,,,,,,,AMP,right,3.0843656157376245,,,right,0,3.0843656157376245,0,,,,,,,,,,,,,,,,,,,,1015,2019_Mar_06_1245,mf_amp_cond1,3.0.4,59.98335896723193,
terrorist,neputized,&&&&&&&&&,right,loyalty.vice,,,,,0,107,107,107,,,,,,,,,,,,,,,,,,,,,,,AMP,left,0.4353482712758705,,,left,0,0.4353482712758705,0,,,,,,,,,,,,,,,,,,,,1015,2019_Mar_06_1245,mf_amp_cond1,3.0.4,59.98335896723193,
betrayal,perified,&&&&&&&&,right,loyalty.vice,,,,,0,108,108,108,,,,,,,,,,,,,,,,,,,,,,,AMP,left,1.083862076397054,,,left,0,1.083862076397054,0,,,,,,,,,,,,,,,,,,,,1015,2019_Mar_06_1245,mf_amp_cond1,3.0.4,59.98335896723193,
abointment,prones,&&&&&&,None,nonword,,,,,0,109,109,109,,,,,,,,,,,,,,,,,,,,,,,AMP,left,0.7337643031496555,,,left,0,0.7337643031496555,0,,,,,,,,,,,,,,,,,,,,1015,2019_Mar_06_1245,mf_amp_cond1,3.0.4,59.98335896723193,
squets,laming,&&&&&&,None,nonword,,,,,0,110,110,110,,,,,,,,,,,,,,,,,,,,,,,AMP,left,0.6337344435742125,,,left,0,0.6337344435742125,0,,,,,,,,,,,,,,,,,,,,1015,2019_Mar_06_1245,mf_amp_cond1,3.0.4,59.98335896723193,
dignity,ammessment,&&&&&&&&&&,left,sanctity.virtue,,,,,0,111,111,111,,,,,,,,,,,,,,,,,,,,,,,AMP,left,2.01743432902731,,,left,1,2.01743432902731,1,,,,,,,,,,,,,,,,,,,,1015,2019_Mar_06_1245,mf_amp_cond1,3.0.4,59.98335896723193,
illegal,yane,&&&&,right,fairness.vice,,,,,0,112,112,112,,,,,,,,,,,,,,,,,,,,,,,AMP,left,0.5170265262713656,,,left,0,0.5170265262713656,0,,,,,,,,,,,,,,,,,,,,1015,2019_Mar_06_1245,mf_amp_cond1,3.0.4,59.98335896723193,
accused,nomparisons,&&&&&&&&&&&,right,fairness.vice,,,,,0,113,113,113,,,,,,,,,,,,,,,,,,,,,,,AMP,left,0.5337568623945117,,,left,0,0.5337568623945117,0,,,,,,,,,,,,,,,,,,,,1015,2019_Mar_06_1245,mf_amp_cond1,3.0.4,59.98335896723193,
celebrated,gournful,&&&&&&&&,left,authority.virtue,,,,,0,114,114,114,,,,,,,,,,,,,,,,,,,,,,,AMP,right,0.48369799309875816,,,right,0,0.48369799309875816,0,,,,,,,,,,,,,,,,,,,,1015,2019_Mar_06_1245,mf_amp_cond1,3.0.4,59.98335896723193,
win,drumbled,&&&&&&&&,left,fairness.virtue,,,,,0,115,115,115,,,,,,,,,,,,,,,,,,,,,,,AMP,left,2.9510232594329864,,,left,1,2.9510232594329864,1,,,,,,,,,,,,,,,,,,,,1015,2019_Mar_06_1245,mf_amp_cond1,3.0.4,59.98335896723193,
safe,reprisols,&&&&&&&&&,left,care.virtue,,,,,0,116,116,116,,,,,,,,,,,,,,,,,,,,,,,AMP,right,1.3505775788798928,,,right,0,1.3505775788798928,0,,,,,,,,,,,,,,,,,,,,1015,2019_Mar_06_1245,mf_amp_cond1,3.0.4,59.98335896723193,
ability,frocessing,&&&&&&&&&&,left,authority.virtue,,,,,0,117,117,117,,,,,,,,,,,,,,,,,,,,,,,AMP,right,0.5837246454320848,,,right,0,0.5837246454320848,0,,,,,,,,,,,,,,,,,,,,1015,2019_Mar_06_1245,mf_amp_cond1,3.0.4,59.98335896723193,
hate,lenon,&&&&&,right,fairness.vice,,,,,0,118,118,118,,,,,,,,,,,,,,,,,,,,,,,AMP,right,0.43366991356015205,,,right,1,0.43366991356015205,1,,,,,,,,,,,,,,,,,,,,1015,2019_Mar_06_1245,mf_amp_cond1,3.0.4,59.98335896723193,
fear,fontacts,&&&&&&&&,right,sanctity.vice,,,,,0,119,119,119,,,,,,,,,,,,,,,,,,,,,,,AMP,left,0.7670960435643792,,,left,0,0.7670960435643792,0,,,,,,,,,,,,,,,,,,,,1015,2019_Mar_06_1245,mf_amp_cond1,3.0.4,59.98335896723193,
lachelor,imebreaker,&&&&&&&&&&,None,nonword,,,,,0,120,120,120,,,,,,,,,,,,,,,,,,,,,,,AMP,right,0.9338160041952506,,,right,0,0.9338160041952506,0,,,,,,,,,,,,,,,,,,,,1015,2019_Mar_06_1245,mf_amp_cond1,3.0.4,59.98335896723193,
smapper,sfumatoy,&&&&&&&&,None,nonword,,,,,0,121,121,121,,,,,,,,,,,,,,,,,,,,,,,AMP,left,0.650400634505786,,,left,0,0.650400634505786,0,,,,,,,,,,,,,,,,,,,,1015,2019_Mar_06_1245,mf_amp_cond1,3.0.4,59.98335896723193,
threatened,viscs,&&&&&,right,fairness.vice,,,,,0,122,122,122,,,,,,,,,,,,,,,,,,,,,,,AMP,left,0.7837657624622807,,,left,0,0.7837657624622807,0,,,,,,,,,,,,,,,,,,,,1015,2019_Mar_06_1245,mf_amp_cond1,3.0.4,59.98335896723193,
useful,nonobservalt,&&&&&&&&&&&&,left,authority.virtue,,,,,0,123,123,123,,,,,,,,,,,,,,,,,,,,,,,AMP,left,4.3847274906001985,,,left,1,4.3847274906001985,1,,,,,,,,,,,,,,,,,,,,1015,2019_Mar_06_1245,mf_amp_cond1,3.0.4,59.98335896723193,
friends,gationwide,&&&&&&&&&&,left,loyalty.virtue,,,,,0,124,124,124,,,,,,,,,,,,,,,,,,,,,,,AMP,right,1.984093287610449,,,right,0,1.984093287610449,0,,,,,,,,,,,,,,,,,,,,1015,2019_Mar_06_1245,mf_amp_cond1,3.0.4,59.98335896723193,
victims,thabbily,&&&&&&&&,right,care.vice,,,,,0,125,125,125,,,,,,,,,,,,,,,,,,,,,,,AMP,right,1.033825016580522,,,right,1,1.033825016580522,1,,,,,,,,,,,,,,,,,,,,1015,2019_Mar_06_1245,mf_amp_cond1,3.0.4,59.98335896723193,
great,clamorek,&&&&&&&&,left,loyalty.virtue,,,,,0,126,126,126,,,,,,,,,,,,,,,,,,,,,,,AMP,left,1.2005885958205909,,,left,1,1.2005885958205909,1,,,,,,,,,,,,,,,,,,,,1015,2019_Mar_06_1245,mf_amp_cond1,3.0.4,59.98335896723193,
good,framo,&&&&&,left,care.virtue,,,,,0,127,127,127,,,,,,,,,,,,,,,,,,,,,,,AMP,right,0.5337045839987695,,,right,0,0.5337045839987695,0,,,,,,,,,,,,,,,,,,,,1015,2019_Mar_06_1245,mf_amp_cond1,3.0.4,59.98335896723193,
sexual,suggists,&&&&&&&&,right,sanctity.vice,,,,,0,128,128,128,,,,,,,,,,,,,,,,,,,,,,,AMP,left,3.46781244862359,,,left,0,3.46781244862359,0,,,,,,,,,,,,,,,,,,,,1015,2019_Mar_06_1245,mf_amp_cond1,3.0.4,59.98335896723193,
troops,vicissifude,&&&&&&&&&&&,right,loyalty.vice,,,,,0,129,129,129,,,,,,,,,,,,,,,,,,,,,,,AMP,left,2.0341111038578674,,,left,0,2.0341111038578674,0,,,,,,,,,,,,,,,,,,,,1015,2019_Mar_06_1245,mf_amp_cond1,3.0.4,59.98335896723193,
gikely,festate,&&&&&&&,None,nonword,,,,,0,130,130,130,,,,,,,,,,,,,,,,,,,,,,,AMP,left,0.9671503102872521,,,left,0,0.9671503102872521,0,,,,,,,,,,,,,,,,,,,,1015,2019_Mar_06_1245,mf_amp_cond1,3.0.4,59.98335896723193,
respect,halaise,&&&&&&&,left,sanctity.virtue,,,,,0,131,131,131,,,,,,,,,,,,,,,,,,,,,,,AMP,right,0.5170412795851007,,,right,0,0.5170412795851007,0,,,,,,,,,,,,,,,,,,,,1015,2019_Mar_06_1245,mf_amp_cond1,3.0.4,59.98335896723193,
corruption,sickyay,&&&&&&&,right,sanctity.vice,,,,,0,132,132,132,,,,,,,,,,,,,,,,,,,,,,,AMP,left,0.5170274884440005,,,left,0,0.5170274884440005,0,,,,,,,,,,,,,,,,,,,,1015,2019_Mar_06_1245,mf_amp_cond1,3.0.4,59.98335896723193,
refused,openet,&&&&&&,right,authority.vice,,,,,0,133,133,133,,,,,,,,,,,,,,,,,,,,,,,AMP,left,0.9004695103503764,,,left,0,0.9004695103503764,0,,,,,,,,,,,,,,,,,,,,1015,2019_Mar_06_1245,mf_amp_cond1,3.0.4,59.98335896723193,
oam,counpy's,&&&&&&&&,None,nonword,,,,,0,134,134,134,,,,,,,,,,,,,,,,,,,,,,,AMP,left,0.6337245011236519,,,left,0,0.6337245011236519,0,,,,,,,,,,,,,,,,,,,,1015,2019_Mar_06_1245,mf_amp_cond1,3.0.4,59.98335896723193,
credit,sliptery,&&&&&&&&,left,fairness.virtue,,,,,0,135,135,135,,,,,,,,,,,,,,,,,,,,,,,AMP,left,2.7176029345719144,,,left,1,2.7176029345719144,1,,,,,,,,,,,,,,,,,,,,1015,2019_Mar_06_1245,mf_amp_cond1,3.0.4,59.98335896723193,
violations,reelectiob,&&&&&&&&&&,right,sanctity.vice,,,,,0,136,136,136,,,,,,,,,,,,,,,,,,,,,,,AMP,left,0.9671628186479211,,,left,0,0.9671628186479211,0,,,,,,,,,,,,,,,,,,,,1015,2019_Mar_06_1245,mf_amp_cond1,3.0.4,59.98335896723193,
praised,slending,&&&&&&&&,left,loyalty.virtue,,,,,0,137,137,137,,,,,,,,,,,,,,,,,,,,,,,AMP,right,0.7337643031496555,,,right,0,0.7337643031496555,0,,,,,,,,,,,,,,,,,,,,1015,2019_Mar_06_1245,mf_amp_cond1,3.0.4,59.98335896723193,
prison,bycled,&&&&&&,right,fairness.vice,,,,,0,138,138,138,,,,,,,,,,,,,,,,,,,,,,,AMP,right,0.5503598703071475,,,right,1,0.5503598703071475,1,,,,,,,,,,,,,,,,,,,,1015,2019_Mar_06_1245,mf_amp_cond1,3.0.4,59.98335896723193,
embrace,focomotive,&&&&&&&&&&,left,authority.virtue,,,,,0,139,139,139,,,,,,,,,,,,,,,,,,,,,,,AMP,right,0.7337729628197849,,,right,0,0.7337729628197849,0,,,,,,,,,,,,,,,,,,,,1015,2019_Mar_06_1245,mf_amp_cond1,3.0.4,59.98335896723193,
noped,gowlands,&&&&&&&&,None,nonword,,,,,0,140,140,140,,,,,,,,,,,,,,,,,,,,,,,AMP,left,0.8004483103286475,,,left,0,0.8004483103286475,0,,,,,,,,,,,,,,,,,,,,1015,2019_Mar_06_1245,mf_amp_cond1,3.0.4,59.98335896723193,
civilians,galamitous,&&&&&&&&&&,right,care.vice,,,,,0,141,141,141,,,,,,,,,,,,,,,,,,,,,,,AMP,left,1.550650447839871,,,left,0,1.550650447839871,0,,,,,,,,,,,,,,,,,,,,1015,2019_Mar_06_1245,mf_amp_cond1,3.0.4,59.98335896723193,
integrity,sowntrodden,&&&&&&&&&&&,left,fairness.virtue,,,,,0,142,142,142,,,,,,,,,,,,,,,,,,,,,,,AMP,left,0.9338358890963718,,,left,1,0.9338358890963718,1,,,,,,,,,,,,,,,,,,,,1015,2019_Mar_06_1245,mf_amp_cond1,3.0.4,59.98335896723193,
faith,godlaness,&&&&&&&&&,left,sanctity.virtue,,,,,0,143,143,143,,,,,,,,,,,,,,,,,,,,,,,AMP,right,0.6170557443983853,,,right,0,0.6170557443983853,0,,,,,,,,,,,,,,,,,,,,1015,2019_Mar_06_1245,mf_amp_cond1,3.0.4,59.98335896723193,
terrorists,dormandi,&&&&&&&&,right,fairness.vice,,,,,0,144,144,144,,,,,,,,,,,,,,,,,,,,,,,AMP,left,1.417279546847567,,,left,0,1.417279546847567,0,,,,,,,,,,,,,,,,,,,,1015,2019_Mar_06_1245,mf_amp_cond1,3.0.4,59.98335896723193,
freedom,refuejing,&&&&&&&&&,left,sanctity.virtue,,,,,0,145,145,145,,,,,,,,,,,,,,,,,,,,,,,AMP,left,0.5837153444299474,,,left,1,0.5837153444299474,1,,,,,,,,,,,,,,,,,,,,1015,2019_Mar_06_1245,mf_amp_cond1,3.0.4,59.98335896723193,
free,Lacedonia,&&&&&&&&&,left,fairness.virtue,,,,,0,146,146,146,,,,,,,,,,,,,,,,,,,,,,,AMP,left,0.4670427069067955,,,left,1,0.4670427069067955,1,,,,,,,,,,,,,,,,,,,,1015,2019_Mar_06_1245,mf_amp_cond1,3.0.4,59.98335896723193,
restore,spag,&&&&,left,care.virtue,,,,,0,147,147,147,,,,,,,,,,,,,,,,,,,,,,,AMP,left,0.7336007331032306,,,left,1,0.7336007331032306,1,,,,,,,,,,,,,,,,,,,,1015,2019_Mar_06_1245,mf_amp_cond1,3.0.4,59.98335896723193,
torture,tove,&&&&,right,care.vice,,,,,0,148,148,148,,,,,,,,,,,,,,,,,,,,,,,AMP,right,1.6339765915181488,,,right,1,1.6339765915181488,1,,,,,,,,,,,,,,,,,,,,1015,2019_Mar_06_1245,mf_amp_cond1,3.0.4,59.98335896723193,
promises,alar,&&&&,left,fairness.virtue,,,,,0,149,149,149,,,,,,,,,,,,,,,,,,,,,,,AMP,left,2.2341653706971556,,,left,1,2.2341653706971556,1,,,,,,,,,,,,,,,,,,,,1015,2019_Mar_06_1245,mf_amp_cond1,3.0.4,59.98335896723193,
promised,disregord,&&&&&&&&&,left,loyalty.virtue,,,,,0,150,150,150,,,,,,,,,,,,,,,,,,,,,,,AMP,left,1.583988923463039,,,left,1,1.583988923463039,1,,,,,,,,,,,,,,,,,,,,1015,2019_Mar_06_1245,mf_amp_cond1,3.0.4,59.98335896723193,
death,taxpayung,&&&&&&&&&,right,care.vice,,,,,0,151,151,151,,,,,,,,,,,,,,,,,,,,,,,AMP,left,0.8504953127121553,,,left,0,0.8504953127121553,0,,,,,,,,,,,,,,,,,,,,1015,2019_Mar_06_1245,mf_amp_cond1,3.0.4,59.98335896723193,
Loorish,seachwear,&&&&&&&&&,None,nonword,,,,,0,152,152,152,,,,,,,,,,,,,,,,,,,,,,,AMP,right,0.6504185950616375,,,right,0,0.6504185950616375,0,,,,,,,,,,,,,,,,,,,,1015,2019_Mar_06_1245,mf_amp_cond1,3.0.4,59.98335896723193,
peaceful,elduringly,&&&&&&&&&&,left,authority.virtue,,,,,0,153,153,153,,,,,,,,,,,,,,,,,,,,,,,AMP,right,0.5837179102236405,,,right,0,0.5837179102236405,0,,,,,,,,,,,,,,,,,,,,1015,2019_Mar_06_1245,mf_amp_cond1,3.0.4,59.98335896723193,
attacks,chared,&&&&&&,right,care.vice,,,,,0,154,154,154,,,,,,,,,,,,,,,,,,,,,,,AMP,left,1.150545121403411,,,left,0,1.150545121403411,0,,,,,,,,,,,,,,,,,,,,1015,2019_Mar_06_1245,mf_amp_cond1,3.0.4,59.98335896723193,
drug,Daptist,&&&&&&&,right,sanctity.vice,,,,,0,155,155,155,,,,,,,,,,,,,,,,,,,,,,,AMP,left,0.6837407137500122,,,left,0,0.6837407137500122,0,,,,,,,,,,,,,,,,,,,,1015,2019_Mar_06_1245,mf_amp_cond1,3.0.4,59.98335896723193,
intelligence,simplustic,&&&&&&&&&&,left,loyalty.virtue,,,,,0,156,156,156,,,,,,,,,,,,,,,,,,,,,,,AMP,right,0.5503829624503851,,,right,0,0.5503829624503851,0,,,,,,,,,,,,,,,,,,,,1015,2019_Mar_06_1245,mf_amp_cond1,3.0.4,59.98335896723193,
care,carvels,&&&&&&&,left,care.virtue,,,,,0,157,157,157,,,,,,,,,,,,,,,,,,,,,,,AMP,right,4.184708182816394,,,right,0,4.184708182816394,0,,,,,,,,,,,,,,,,,,,,1015,2019_Mar_06_1245,mf_amp_cond1,3.0.4,59.98335896723193,
blamed,ning,&&&&,right,loyalty.vice,,,,,0,158,158,158,,,,,,,,,,,,,,,,,,,,,,,AMP,right,0.36703529802616686,,,right,1,0.36703529802616686,1,,,,,,,,,,,,,,,,,,,,1015,2019_Mar_06_1245,mf_amp_cond1,3.0.4,59.98335896723193,
pleasant,juck,&&&&,None,control,,,,,0,159,159,159,,,,,,,,,,,,,,,,,,,,,,,AMP,left,0.583719193120487,,,left,0,0.583719193120487,0,,,,,,,,,,,,,,,,,,,,1015,2019_Mar_06_1245,mf_amp_cond1,3.0.4,59.98335896723193,
stindig,photocalkodes,&&&&&&&&&&&&&,None,nonword,,,,,0,160,160,160,,,,,,,,,,,,,,,,,,,,,,,AMP,left,2.084101658547297,,,left,0,2.084101658547297,0,,,,,,,,,,,,,,,,,,,,1015,2019_Mar_06_1245,mf_amp_cond1,3.0.4,59.98335896723193,
riot,gazily,&&&&&&,right,authority.vice,,,,,0,161,161,161,,,,,,,,,,,,,,,,,,,,,,,AMP,right,0.6504169914405793,,,right,1,0.6504169914405793,1,,,,,,,,,,,,,,,,,,,,1015,2019_Mar_06_1245,mf_amp_cond1,3.0.4,59.98335896723193,
critics,touls,&&&&&,right,loyalty.vice,,,,,0,162,162,162,,,,,,,,,,,,,,,,,,,,,,,AMP,left,0.6336965980008245,,,left,0,0.6336965980008245,0,,,,,,,,,,,,,,,,,,,,1015,2019_Mar_06_1245,mf_amp_cond1,3.0.4,59.98335896723193,
police,scalbel,&&&&&&&,right,authority.vice,,,,,0,163,163,163,,,,,,,,,,,,,,,,,,,,,,,AMP,left,2.050768955843523,,,left,0,2.050768955843523,0,,,,,,,,,,,,,,,,,,,,1015,2019_Mar_06_1245,mf_amp_cond1,3.0.4,59.98335896723193,
integrity,neputized,&&&&&&&&&,left,fairness.virtue,,,,,0,164,164,164,,,,,,,,,,,,,,,,,,,,,,,AMP,left,0.6337341228500009,,,left,1,0.6337341228500009,1,,,,,,,,,,,,,,,,,,,,1015,2019_Mar_06_1245,mf_amp_cond1,3.0.4,59.98335896723193,
Loorish,touls,&&&&&,None,nonword,,,,,0,165,165,165,,,,,,,,,,,,,,,,,,,,,,,AMP,right,1.6840094819199294,,,right,0,1.6840094819199294,0,,,,,,,,,,,,,,,,,,,,1015,2019_Mar_06_1245,mf_amp_cond1,3.0.4,59.98335896723193,
dignity,gowlands,&&&&&&&&,left,sanctity.virtue,,,,,0,166,166,166,,,,,,,,,,,,,,,,,,,,,,,AMP,left,0.6170644039520994,,,left,1,0.6170644039520994,1,,,,,,,,,,,,,,,,,,,,1015,2019_Mar_06_1245,mf_amp_cond1,3.0.4,59.98335896723193,
critics,reelectiob,&&&&&&&&&&,right,loyalty.vice,,,,,0,167,167,167,,,,,,,,,,,,,,,,,,,,,,,AMP,right,0.683752580662258,,,right,1,0.683752580662258,1,,,,,,,,,,,,,,,,,,,,1015,2019_Mar_06_1245,mf_amp_cond1,3.0.4,59.98335896723193,
praised,gationwide,&&&&&&&&&&,left,loyalty.virtue,,,,,0,168,168,168,,,,,,,,,,,,,,,,,,,,,,,AMP,right,0.8504888982279226,,,right,0,0.8504888982279226,0,,,,,,,,,,,,,,,,,,,,1015,2019_Mar_06_1245,mf_amp_cond1,3.0.4,59.98335896723193,
intelligence,presentkess,&&&&&&&&&&&,left,loyalty.virtue,,,,,0,169,169,169,,,,,,,,,,,,,,,,,,,,,,,AMP,right,0.6337889669230208,,,right,0,0.6337889669230208,0,,,,,,,,,,,,,,,,,,,,1015,2019_Mar_06_1245,mf_amp_cond1,3.0.4,59.98335896723193,
freedom,imebreaker,&&&&&&&&&&,left,sanctity.virtue,,,,,0,170,170,170,,,,,,,,,,,,,,,,,,,,,,,AMP,right,0.5337190167047083,,,right,0,0.5337190167047083,0,,,,,,,,,,,,,,,,,,,,1015,2019_Mar_06_1245,mf_amp_cond1,3.0.4,59.98335896723193,
hate,tove,&&&&,right,fairness.vice,,,,,0,171,171,171,,,,,,,,,,,,,,,,,,,,,,,AMP,left,1.0505146203795448,,,left,0,1.0505146203795448,0,,,,,,,,,,,,,,,,,,,,1015,2019_Mar_06_1245,mf_amp_cond1,3.0.4,59.98335896723193,
threatened,laming,&&&&&&,right,fairness.vice,,,,,0,172,172,172,,,,,,,,,,,,,,,,,,,,,,,AMP,left,1.4504765822784975,,,left,0,1.4504765822784975,0,,,,,,,,,,,,,,,,,,,,1015,2019_Mar_06_1245,mf_amp_cond1,3.0.4,59.98335896723193,
embrace,fegard,&&&&&&,left,authority.virtue,,,,,0,173,173,173,,,,,,,,,,,,,,,,,,,,,,,AMP,left,0.600387629121542,,,left,1,0.600387629121542,1,,,,,,,,,,,,,,,,,,,,1015,2019_Mar_06_1245,mf_amp_cond1,3.0.4,59.98335896723193,
rorroborated,prones,&&&&&&,None,nonword,,,,,0,174,174,174,,,,,,,,,,,,,,,,,,,,,,,AMP,left,3.617851785616949,,,left,0,3.617851785616949,0,,,,,,,,,,,,,,,,,,,,1015,2019_Mar_06_1245,mf_amp_cond1,3.0.4,59.98335896723193,
promised,chadows,&&&&&&&,left,loyalty.virtue,,,,,0,175,175,175,,,,,,,,,,,,,,,,,,,,,,,AMP,left,0.7671868089819327,,,left,1,0.7671868089819327,1,,,,,,,,,,,,,,,,,,,,1015,2019_Mar_06_1245,mf_amp_cond1,3.0.4,59.98335896723193,
ban,feleological,&&&&&&&&&&&&,right,loyalty.vice,,,,,0,176,176,176,,,,,,,,,,,,,,,,,,,,,,,AMP,left,0.7504340220475569,,,left,0,0.7504340220475569,0,,,,,,,,,,,,,,,,,,,,1015,2019_Mar_06_1245,mf_amp_cond1,3.0.4,59.98335896723193,
fighters,openet,&&&&&&,right,authority.vice,,,,,0,177,177,177,,,,,,,,,,,,,,,,,,,,,,,AMP,right,0.5337004145840183,,,right,1,0.5337004145840183,1,,,,,,,,,,,,,,,,,,,,1015,2019_Mar_06_1245,mf_amp_cond1,3.0.4,59.98335896723193,
celebrated,leact,&&&&&,left,authority.virtue,,,,,0,178,178,178,,,,,,,,,,,,,,,,,,,,,,,AMP,right,2.2842216740828007,,,right,0,2.2842216740828007,0,,,,,,,,,,,,,,,,,,,,1015,2019_Mar_06_1245,mf_amp_cond1,3.0.4,59.98335896723193,
help,simplustic,&&&&&&&&&&,left,care.virtue,,,,,0,179,179,179,,,,,,,,,,,,,,,,,,,,,,,AMP,right,0.4170014775590971,,,right,0,0.4170014775590971,0,,,,,,,,,,,,,,,,,,,,1015,2019_Mar_06_1245,mf_amp_cond1,3.0.4,59.98335896723193,
progress,elduringly,&&&&&&&&&&,left,authority.virtue,,,,,0,180,180,180,,,,,,,,,,,,,,,,,,,,,,,AMP,right,0.533693679375574,,,right,0,0.533693679375574,0,,,,,,,,,,,,,,,,,,,,1015,2019_Mar_06_1245,mf_amp_cond1,3.0.4,59.98335896723193,
charges,unreflectuve,&&&&&&&&&&&&,right,fairness.vice,,,,,0,181,181,181,,,,,,,,,,,,,,,,,,,,,,,AMP,left,0.5670324757229537,,,left,0,0.5670324757229537,0,,,,,,,,,,,,,,,,,,,,1015,2019_Mar_06_1245,mf_amp_cond1,3.0.4,59.98335896723193,
torture,framo,&&&&&,right,care.vice,,,,,0,182,182,182,,,,,,,,,,,,,,,,,,,,,,,AMP,left,1.1171976655023172,,,left,0,1.1171976655023172,0,,,,,,,,,,,,,,,,,,,,1015,2019_Mar_06_1245,mf_amp_cond1,3.0.4,59.98335896723193,
refused,sickyay,&&&&&&&,right,authority.vice,,,,,0,183,183,183,,,,,,,,,,,,,,,,,,,,,,,AMP,left,0.3336499964352697,,,left,0,0.3336499964352697,0,,,,,,,,,,,,,,,,,,,,1015,2019_Mar_06_1245,mf_amp_cond1,3.0.4,59.98335896723193,
restore,godlaness,&&&&&&&&&,left,care.virtue,,,,,0,184,184,184,,,,,,,,,,,,,,,,,,,,,,,AMP,right,0.5503624361008406,,,right,0,0.5503624361008406,0,,,,,,,,,,,,,,,,,,,,1015,2019_Mar_06_1245,mf_amp_cond1,3.0.4,59.98335896723193,
useful,focomotive,&&&&&&&&&&,left,authority.virtue,,,,,0,185,185,185,,,,,,,,,,,,,,,,,,,,,,,AMP,left,0.700445712544024,,,left,1,0.700445712544024,1,,,,,,,,,,,,,,,,,,,,1015,2019_Mar_06_1245,mf_amp_cond1,3.0.4,59.98335896723193,
illegal,antral,&&&&&&,right,fairness.vice,,,,,0,186,186,186,,,,,,,,,,,,,,,,,,,,,,,AMP,left,0.5003850312205032,,,left,0,0.5003850312205032,0,,,,,,,,,,,,,,,,,,,,1015,2019_Mar_06_1245,mf_amp_cond1,3.0.4,59.98335896723193,
clean,frojecting,&&&&&&&&&&,left,sanctity.virtue,,,,,0,187,187,187,,,,,,,,,,,,,,,,,,,,,,,AMP,left,1.5006181987700984,,,left,1,1.5006181987700984,1,,,,,,,,,,,,,,,,,,,,1015,2019_Mar_06_1245,mf_amp_cond1,3.0.4,59.98335896723193,
blamed,yane,&&&&,right,loyalty.vice,,,,,0,188,188,188,,,,,,,,,,,,,,,,,,,,,,,AMP,left,0.6337325192289427,,,left,0,0.6337325192289427,0,,,,,,,,,,,,,,,,,,,,1015,2019_Mar_06_1245,mf_amp_cond1,3.0.4,59.98335896723193,
prison,dumid,&&&&&,right,fairness.vice,,,,,0,189,189,189,,,,,,,,,,,,,,,,,,,,,,,AMP,left,0.3669839820358902,,,left,0,0.3669839820358902,0,,,,,,,,,,,,,,,,,,,,1015,2019_Mar_06_1245,mf_amp_cond1,3.0.4,59.98335896723193,
penalty,reprisols,&&&&&&&&&,right,authority.vice,,,,,0,190,190,190,,,,,,,,,,,,,,,,,,,,,,,AMP,left,1.2505637556314468,,,left,0,1.2505637556314468,0,,,,,,,,,,,,,,,,,,,,1015,2019_Mar_06_1245,mf_amp_cond1,3.0.4,59.98335896723193,
attacks,ilportation,&&&&&&&&&&&,right,care.vice,,,,,0,191,191,191,,,,,,,,,,,,,,,,,,,,,,,AMP,left,0.3003079928457737,,,left,0,0.3003079928457737,0,,,,,,,,,,,,,,,,,,,,1015,2019_Mar_06_1245,mf_amp_cond1,3.0.4,59.98335896723193,
compassion,slending,&&&&&&&&,left,care.virtue,,,,,0,192,192,192,,,,,,,,,,,,,,,,,,,,,,,AMP,right,0.9671580077847466,,,right,0,0.9671580077847466,0,,,,,,,,,,,,,,,,,,,,1015,2019_Mar_06_1245,mf_amp_cond1,3.0.4,59.98335896723193,
scandal,crilfully,&&&&&&&&&,right,sanctity.vice,,,,,0,193,193,193,,,,,,,,,,,,,,,,,,,,,,,AMP,left,1.9007841423153877,,,left,0,1.9007841423153877,0,,,,,,,,,,,,,,,,,,,,1015,2019_Mar_06_1245,mf_amp_cond1,3.0.4,59.98335896723193,
win,ammessment,&&&&&&&&&&,left,fairness.virtue,,,,,0,194,194,194,,,,,,,,,,,,,,,,,,,,,,,AMP,right,0.5670446633594111,,,right,0,0.5670446633594111,0,,,,,,,,,,,,,,,,,,,,1015,2019_Mar_06_1245,mf_amp_cond1,3.0.4,59.98335896723193,
abuse,refuejing,&&&&&&&&&,right,sanctity.vice,,,,,0,195,195,195,,,,,,,,,,,,,,,,,,,,,,,AMP,left,0.8504529768833891,,,left,0,0.8504529768833891,0,,,,,,,,,,,,,,,,,,,,1015,2019_Mar_06_1245,mf_amp_cond1,3.0.4,59.98335896723193,
great,clamorek,&&&&&&&&,left,loyalty.virtue,,,,,0,196,196,196,,,,,,,,,,,,,,,,,,,,,,,AMP,right,2.7509596914751455,,,right,0,2.7509596914751455,0,,,,,,,,,,,,,,,,,,,,1015,2019_Mar_06_1245,mf_amp_cond1,3.0.4,59.98335896723193,
credit,frocessing,&&&&&&&&&&,left,fairness.virtue,,,,,0,197,197,197,,,,,,,,,,,,,,,,,,,,,,,AMP,right,0.6170605552615598,,,right,0,0.6170605552615598,0,,,,,,,,,,,,,,,,,,,,1015,2019_Mar_06_1245,mf_amp_cond1,3.0.4,59.98335896723193,
sexual,gournful,&&&&&&&&,right,sanctity.vice,,,,,0,198,198,198,,,,,,,,,,,,,,,,,,,,,,,AMP,left,0.6671162171987817,,,left,0,0.6671162171987817,0,,,,,,,,,,,,,,,,,,,,1015,2019_Mar_06_1245,mf_amp_cond1,3.0.4,59.98335896723193,
pleasant,Daptist,&&&&&&&,None,control,,,,,0,199,199,199,,,,,,,,,,,,,,,,,,,,,,,AMP,left,0.6504343107808381,,,left,0,0.6504343107808381,0,,,,,,,,,,,,,,,,,,,,1015,2019_Mar_06_1245,mf_amp_cond1,3.0.4,59.98335896723193,
powerful,seachwear,&&&&&&&&&,left,authority.virtue,,,,,0,200,200,200,,,,,,,,,,,,,,,,,,,,,,,AMP,right,0.48369029571767896,,,right,0,0.48369029571767896,0,,,,,,,,,,,,,,,,,,,,1015,2019_Mar_06_1245,mf_amp_cond1,3.0.4,59.98335896723193,
free,tabin,&&&&&,left,fairness.virtue,,,,,0,201,201,201,,,,,,,,,,,,,,,,,,,,,,,AMP,right,1.4339450962143019,,,right,0,1.4339450962143019,0,,,,,,,,,,,,,,,,,,,,1015,2019_Mar_06_1245,mf_amp_cond1,3.0.4,59.98335896723193,
prosecution,synchronazers,&&&&&&&&&&&&&,right,authority.vice,,,,,0,202,202,202,,,,,,,,,,,,,,,,,,,,,,,AMP,right,0.6337556114885956,,,right,1,0.6337556114885956,1,,,,,,,,,,,,,,,,,,,,1015,2019_Mar_06_1245,mf_amp_cond1,3.0.4,59.98335896723193,
increase,drumbled,&&&&&&&&,left,care.virtue,,,,,0,203,203,203,,,,,,,,,,,,,,,,,,,,,,,AMP,left,0.5503630775492638,,,left,1,0.5503630775492638,1,,,,,,,,,,,,,,,,,,,,1015,2019_Mar_06_1245,mf_amp_cond1,3.0.4,59.98335896723193,
interests,lorthwhile,&&&&&&&&&&,left,fairness.virtue,,,,,0,204,204,204,,,,,,,,,,,,,,,,,,,,,,,AMP,right,1.3673120844177902,,,right,0,1.3673120844177902,0,,,,,,,,,,,,,,,,,,,,1015,2019_Mar_06_1245,mf_amp_cond1,3.0.4,59.98335896723193,
lachelor,chared,&&&&&&,None,nonword,,,,,0,205,205,205,,,,,,,,,,,,,,,,,,,,,,,AMP,left,0.5337061876198277,,,left,0,0.5337061876198277,0,,,,,,,,,,,,,,,,,,,,1015,2019_Mar_06_1245,mf_amp_cond1,3.0.4,59.98335896723193,
riot,disregord,&&&&&&&&&,right,authority.vice,,,,,0,206,206,206,,,,,,,,,,,,,,,,,,,,,,,AMP,left,0.5003815032541752,,,left,0,0.5003815032541752,0,,,,,,,,,,,,,,,,,,,,1015,2019_Mar_06_1245,mf_amp_cond1,3.0.4,59.98335896723193,
promises,alar,&&&&,left,fairness.virtue,,,,,0,207,207,207,,,,,,,,,,,,,,,,,,,,,,,AMP,right,3.484475753037259,,,right,0,3.484475753037259,0,,,,,,,,,,,,,,,,,,,,1015,2019_Mar_06_1245,mf_amp_cond1,3.0.4,59.98335896723193,
troops,lenon,&&&&&,right,loyalty.vice,,,,,0,208,208,208,,,,,,,,,,,,,,,,,,,,,,,AMP,left,2.5842669926350936,,,left,0,2.5842669926350936,0,,,,,,,,,,,,,,,,,,,,1015,2019_Mar_06_1245,mf_amp_cond1,3.0.4,59.98335896723193,
gikely,perified,&&&&&&&&,None,nonword,,,,,0,209,209,209,,,,,,,,,,,,,,,,,,,,,,,AMP,left,2.2174934067297727,,,left,0,2.2174934067297727,0,,,,,,,,,,,,,,,,,,,,1015,2019_Mar_06_1245,mf_amp_cond1,3.0.4,59.98335896723193,
police,counpy's,&&&&&&&&,right,authority.vice,,,,,0,210,210,210,,,,,,,,,,,,,,,,,,,,,,,AMP,left,0.6170663284137845,,,left,0,0.6170663284137845,0,,,,,,,,,,,,,,,,,,,,1015,2019_Mar_06_1245,mf_amp_cond1,3.0.4,59.98335896723193,
violations,sliptery,&&&&&&&&,right,sanctity.vice,,,,,0,211,211,211,,,,,,,,,,,,,,,,,,,,,,,AMP,right,1.033844580873847,,,right,1,1.033844580873847,1,,,,,,,,,,,,,,,,,,,,1015,2019_Mar_06_1245,mf_amp_cond1,3.0.4,59.98335896723193,
civilians,nomparisons,&&&&&&&&&&&,right,care.vice,,,,,0,212,212,212,,,,,,,,,,,,,,,,,,,,,,,AMP,left,0.8004758928436786,,,left,0,0.8004758928436786,0,,,,,,,,,,,,,,,,,,,,1015,2019_Mar_06_1245,mf_amp_cond1,3.0.4,59.98335896723193,
oam,sfumatoy,&&&&&&&&,None,nonword,,,,,0,213,213,213,,,,,,,,,,,,,,,,,,,,,,,AMP,left,0.6504089733352885,,,left,0,0.6504089733352885,0,,,,,,,,,,,,,,,,,,,,1015,2019_Mar_06_1245,mf_amp_cond1,3.0.4,59.98335896723193,
agreement,vicissifude,&&&&&&&&&&&,left,fairness.virtue,,,,,0,214,214,214,,,,,,,,,,,,,,,,,,,,,,,AMP,left,1.1005635471083224,,,left,1,1.1005635471083224,1,,,,,,,,,,,,,,,,,,,,1015,2019_Mar_06_1245,mf_amp_cond1,3.0.4,59.98335896723193,
strength,epigrach,&&&&&&&&,left,sanctity.virtue,,,,,0,215,215,215,,,,,,,,,,,,,,,,,,,,,,,AMP,right,1.2005443357629701,,,right,0,1.2005443357629701,0,,,,,,,,,,,,,,,,,,,,1015,2019_Mar_06_1245,mf_amp_cond1,3.0.4,59.98335896723193,
smapper,quarterbocks,&&&&&&&&&&&&,None,nonword,,,,,0,216,216,216,,,,,,,,,,,,,,,,,,,,,,,AMP,right,0.9505129847675562,,,right,0,0.9505129847675562,0,,,,,,,,,,,,,,,,,,,,1015,2019_Mar_06_1245,mf_amp_cond1,3.0.4,59.98335896723193,
violence,Lacedonia,&&&&&&&&&,right,care.vice,,,,,0,217,217,217,,,,,,,,,,,,,,,,,,,,,,,AMP,left,2.317485741339624,,,left,0,2.317485741339624,0,,,,,,,,,,,,,,,,,,,,1015,2019_Mar_06_1245,mf_amp_cond1,3.0.4,59.98335896723193,
values,spag,&&&&,left,sanctity.virtue,,,,,0,218,218,218,,,,,,,,,,,,,,,,,,,,,,,AMP,left,0.4670199352549389,,,left,1,0.4670199352549389,1,,,,,,,,,,,,,,,,,,,,1015,2019_Mar_06_1245,mf_amp_cond1,3.0.4,59.98335896723193,
shot,edancipation,&&&&&&&&&&&&,right,care.vice,,,,,0,219,219,219,,,,,,,,,,,,,,,,,,,,,,,AMP,left,1.0171925018075854,,,left,0,1.0171925018075854,0,,,,,,,,,,,,,,,,,,,,1015,2019_Mar_06_1245,mf_amp_cond1,3.0.4,59.98335896723193,
death,pullness,&&&&&&&&,right,care.vice,,,,,0,220,220,220,,,,,,,,,,,,,,,,,,,,,,,AMP,right,0.867127827485092,,,right,1,0.867127827485092,1,,,,,,,,,,,,,,,,,,,,1015,2019_Mar_06_1245,mf_amp_cond1,3.0.4,59.98335896723193,
drug,viscs,&&&&&,right,sanctity.vice,,,,,0,221,221,221,,,,,,,,,,,,,,,,,,,,,,,AMP,left,1.500646743341349,,,left,0,1.500646743341349,0,,,,,,,,,,,,,,,,,,,,1015,2019_Mar_06_1245,mf_amp_cond1,3.0.4,59.98335896723193,
fear,juck,&&&&,right,sanctity.vice,,,,,0,222,222,222,,,,,,,,,,,,,,,,,,,,,,,AMP,left,1.1672196512809023,,,left,0,1.1672196512809023,0,,,,,,,,,,,,,,,,,,,,1015,2019_Mar_06_1245,mf_amp_cond1,3.0.4,59.98335896723193,
protesters,suggists,&&&&&&&&,right,authority.vice,,,,,0,223,223,223,,,,,,,,,,,,,,,,,,,,,,,AMP,right,1.5673198458971456,,,right,1,1.5673198458971456,1,,,,,,,,,,,,,,,,,,,,1015,2019_Mar_06_1245,mf_amp_cond1,3.0.4,59.98335896723193,
failure,dormandi,&&&&&&&&,right,loyalty.vice,,,,,0,224,224,224,,,,,,,,,,,,,,,,,,,,,,,AMP,right,0.4170110992854461,,,right,1,0.4170110992854461,1,,,,,,,,,,,,,,,,,,,,1015,2019_Mar_06_1245,mf_amp_cond1,3.0.4,59.98335896723193,
unpleasant,festate,&&&&&&&,None,control,,,,,0,225,225,225,,,,,,,,,,,,,,,,,,,,,,,AMP,left,0.5670546058099717,,,left,0,0.5670546058099717,0,,,,,,,,,,,,,,,,,,,,1015,2019_Mar_06_1245,mf_amp_cond1,3.0.4,59.98335896723193,
squets,gazily,&&&&&&,None,nonword,,,,,0,226,226,226,,,,,,,,,,,,,,,,,,,,,,,AMP,right,0.7337806602008641,,,right,0,0.7337806602008641,0,,,,,,,,,,,,,,,,,,,,1015,2019_Mar_06_1245,mf_amp_cond1,3.0.4,59.98335896723193,
friends,thabbily,&&&&&&&&,left,loyalty.virtue,,,,,0,227,227,227,,,,,,,,,,,,,,,,,,,,,,,AMP,right,0.7504349842201918,,,right,0,0.7504349842201918,0,,,,,,,,,,,,,,,,,,,,1015,2019_Mar_06_1245,mf_amp_cond1,3.0.4,59.98335896723193,
peaceful,galamitous,&&&&&&&&&&,left,authority.virtue,,,,,0,228,228,228,,,,,,,,,,,,,,,,,,,,,,,AMP,right,0.633745348197408,,,right,0,0.633745348197408,0,,,,,,,,,,,,,,,,,,,,1015,2019_Mar_06_1245,mf_amp_cond1,3.0.4,59.98335896723193,
party,greaks,&&&&&&,left,loyalty.virtue,,,,,0,229,229,229,,,,,,,,,,,,,,,,,,,,,,,AMP,right,0.3670000182464719,,,right,0,0.3670000182464719,0,,,,,,,,,,,,,,,,,,,,1015,2019_Mar_06_1245,mf_amp_cond1,3.0.4,59.98335896723193,
betrayal,carvels,&&&&&&&,right,loyalty.vice,,,,,0,230,230,230,,,,,,,,,,,,,,,,,,,,,,,AMP,right,5.084933300269768,,,right,1,5.084933300269768,1,,,,,,,,,,,,,,,,,,,,1015,2019_Mar_06_1245,mf_amp_cond1,3.0.4,59.98335896723193,
ability,sidearbs,&&&&&&&&,left,authority.virtue,,,,,0,231,231,231,,,,,,,,,,,,,,,,,,,,,,,AMP,right,0.6170628003310412,,,right,0,0.6170628003310412,0,,,,,,,,,,,,,,,,,,,,1015,2019_Mar_06_1245,mf_amp_cond1,3.0.4,59.98335896723193,
faith,chressing,&&&&&&&&&,left,sanctity.virtue,,,,,0,232,232,232,,,,,,,,,,,,,,,,,,,,,,,AMP,left,0.6003946850541979,,,left,1,0.6003946850541979,1,,,,,,,,,,,,,,,,,,,,1015,2019_Mar_06_1245,mf_amp_cond1,3.0.4,59.98335896723193,
noped,mih,&&&,None,nonword,,,,,0,233,233,233,,,,,,,,,,,,,,,,,,,,,,,AMP,right,0.4336788939544931,,,right,0,0.4336788939544931,0,,,,,,,,,,,,,,,,,,,,1015,2019_Mar_06_1245,mf_amp_cond1,3.0.4,59.98335896723193,
victims,blunderints,&&&&&&&&&&&,right,care.vice,,,,,0,234,234,234,,,,,,,,,,,,,,,,,,,,,,,AMP,left,12.953684962005354,,,left,0,12.953684962005354,0,,,,,,,,,,,,,,,,,,,,1015,2019_Mar_06_1245,mf_amp_cond1,3.0.4,59.98335896723193,
corruption,scalbel,&&&&&&&,right,sanctity.vice,,,,,0,235,235,235,,,,,,,,,,,,,,,,,,,,,,,AMP,left,0.5670645482605323,,,left,0,0.5670645482605323,0,,,,,,,,,,,,,,,,,,,,1015,2019_Mar_06_1245,mf_amp_cond1,3.0.4,59.98335896723193,
respect,chonograph,&&&&&&&&&&,left,sanctity.virtue,,,,,0,236,236,236,,,,,,,,,,,,,,,,,,,,,,,AMP,left,0.8337986529804766,,,left,1,0.8337986529804766,1,,,,,,,,,,,,,,,,,,,,1015,2019_Mar_06_1245,mf_amp_cond1,3.0.4,59.98335896723193,
accused,photocalkodes,&&&&&&&&&&&&&,right,fairness.vice,,,,,0,237,237,237,,,,,,,,,,,,,,,,,,,,,,,AMP,left,0.7504385121865198,,,left,0,0.7504385121865198,0,,,,,,,,,,,,,,,,,,,,1015,2019_Mar_06_1245,mf_amp_cond1,3.0.4,59.98335896723193,
stindig,taxpayung,&&&&&&&&&,None,nonword,,,,,0,238,238,238,,,,,,,,,,,,,,,,,,,,,,,AMP,left,2.817643698770553,,,left,0,2.817643698770553,0,,,,,,,,,,,,,,,,,,,,1015,2019_Mar_06_1245,mf_amp_cond1,3.0.4,59.98335896723193,
terrorist,halaise,&&&&&&&,right,loyalty.vice,,,,,0,239,239,239,,,,,,,,,,,,,,,,,,,,,,,AMP,left,0.4503373873885721,,,left,0,0.4503373873885721,0,,,,,,,,,,,,,,,,,,,,1015,2019_Mar_06_1245,mf_amp_cond1,3.0.4,59.98335896723193,
terrorists,brotesque,&&&&&&&&&,right,fairness.vice,,,,,0,240,240,240,,,,,,,,,,,,,,,,,,,,,,,AMP,left,1.5339643717743456,,,left,0,1.5339643717743456,0,,,,,,,,,,,,,,,,,,,,1015,2019_Mar_06_1245,mf_amp_cond1,3.0.4,59.98335896723193,
care,sowntrodden,&&&&&&&&&&&,left,care.virtue,,,,,0,241,241,241,,,,,,,,,,,,,,,,,,,,,,,AMP,right,0.5170303749619052,,,right,0,0.5170303749619052,0,,,,,,,,,,,,,,,,,,,,1015,2019_Mar_06_1245,mf_amp_cond1,3.0.4,59.98335896723193,
abointment,nonobservalt,&&&&&&&&&&&&,None,nonword,,,,,0,242,242,242,,,,,,,,,,,,,,,,,,,,,,,AMP,left,0.550209129229188,,,left,0,0.550209129229188,0,,,,,,,,,,,,,,,,,,,,1015,2019_Mar_06_1245,mf_amp_cond1,3.0.4,59.98335896723193,
loyalty,fontacts,&&&&&&&&,left,loyalty.virtue,,,,,0,243,243,243,,,,,,,,,,,,,,,,,,,,,,,AMP,left,0.5837121370714158,,,left,1,0.5837121370714158,1,,,,,,,,,,,,,,,,,,,,1015,2019_Mar_06_1245,mf_amp_cond1,3.0.4,59.98335896723193,
good,bycled,&&&&&&,left,care.virtue,,,,,0,244,244,244,,,,,,,,,,,,,,,,,,,,,,,AMP,right,0.43370038259308785,,,right,0,0.43370038259308785,0,,,,,,,,,,,,,,,,,,,,1015,2019_Mar_06_1245,mf_amp_cond1,3.0.4,59.98335896723193,
safe,ning,&&&&,left,care.virtue,,,,,0,245,245,245,,,,,,,,,,,,,,,,,,,,,,,AMP,right,0.433683063252829,,,right,0,0.433683063252829,0,,,,,,,,,,,,,,,,,,,,1015,2019_Mar_06_1245,mf_amp_cond1,3.0.4,59.98335896723193,
loyalty,seachwear,&&&&&&&&&,left,loyalty.virtue,,,,,0,246,246,246,,,,,,,,,,,,,,,,,,,,,,,AMP,right,0.900463737314567,,,right,0,0.900463737314567,0,,,,,,,,,,,,,,,,,,,,1015,2019_Mar_06_1245,mf_amp_cond1,3.0.4,59.98335896723193,
sexual,Daptist,&&&&&&&,right,sanctity.vice,,,,,0,247,247,247,,,,,,,,,,,,,,,,,,,,,,,AMP,left,0.5337167716352269,,,left,0,0.5337167716352269,0,,,,,,,,,,,,,,,,,,,,1015,2019_Mar_06_1245,mf_amp_cond1,3.0.4,59.98335896723193,
ban,ning,&&&&,right,loyalty.vice,,,,,0,248,248,248,,,,,,,,,,,,,,,,,,,,,,,AMP,right,0.5336975280661136,,,right,1,0.5336975280661136,1,,,,,,,,,,,,,,,,,,,,1015,2019_Mar_06_1245,mf_amp_cond1,3.0.4,59.98335896723193,
abuse,sliptery,&&&&&&&&,right,sanctity.vice,,,,,0,249,249,249,,,,,,,,,,,,,,,,,,,,,,,AMP,right,2.5675581451505423,,,right,1,2.5675581451505423,1,,,,,,,,,,,,,,,,,,,,1015,2019_Mar_06_1245,mf_amp_cond1,3.0.4,59.98335896723193,
violations,chared,&&&&&&,right,sanctity.vice,,,,,0,250,250,250,,,,,,,,,,,,,,,,,,,,,,,AMP,left,0.5837377952411771,,,left,0,0.5837377952411771,0,,,,,,,,,,,,,,,,,,,,1015,2019_Mar_06_1245,mf_amp_cond1,3.0.4,59.98335896723193,
drug,counpy's,&&&&&&&&,right,sanctity.vice,,,,,0,251,251,251,,,,,,,,,,,,,,,,,,,,,,,AMP,left,0.5670507570030168,,,left,0,0.5670507570030168,0,,,,,,,,,,,,,,,,,,,,1015,2019_Mar_06_1245,mf_amp_cond1,3.0.4,59.98335896723193,
death,refuejing,&&&&&&&&&,right,care.vice,,,,,0,252,252,252,,,,,,,,,,,,,,,,,,,,,,,AMP,left,1.0671772833447903,,,left,0,1.0671772833447903,0,,,,,,,,,,,,,,,,,,,,1015,2019_Mar_06_1245,mf_amp_cond1,3.0.4,59.98335896723193,
freedom,nomparisons,&&&&&&&&&&&,left,sanctity.virtue,,,,,0,253,253,253,,,,,,,,,,,,,,,,,,,,,,,AMP,right,1.4506170601816848,,,right,0,1.4506170601816848,0,,,,,,,,,,,,,,,,,,,,1015,2019_Mar_06_1245,mf_amp_cond1,3.0.4,59.98335896723193,
troops,taxpayung,&&&&&&&&&,right,loyalty.vice,,,,,0,254,254,254,,,,,,,,,,,,,,,,,,,,,,,AMP,left,1.6840421960223466,,,left,0,1.6840421960223466,0,,,,,,,,,,,,,,,,,,,,1015,2019_Mar_06_1245,mf_amp_cond1,3.0.4,59.98335896723193,
scandal,scalbel,&&&&&&&,right,sanctity.vice,,,,,0,255,255,255,,,,,,,,,,,,,,,,,,,,,,,AMP,left,0.7670989300822839,,,left,0,0.7670989300822839,0,,,,,,,,,,,,,,,,,,,,1015,2019_Mar_06_1245,mf_amp_cond1,3.0.4,59.98335896723193,
ability,antral,&&&&&&,left,authority.virtue,,,,,0,256,256,256,,,,,,,,,,,,,,,,,,,,,,,AMP,left,0.9004967721411958,,,left,1,0.9004967721411958,1,,,,,,,,,,,,,,,,,,,,1015,2019_Mar_06_1245,mf_amp_cond1,3.0.4,59.98335896723193,
values,sickyay,&&&&&&&,left,sanctity.virtue,,,,,0,257,257,257,,,,,,,,,,,,,,,,,,,,,,,AMP,left,0.40034426690544933,,,left,1,0.40034426690544933,1,,,,,,,,,,,,,,,,,,,,1015,2019_Mar_06_1245,mf_amp_cond1,3.0.4,59.98335896723193,
civilians,sowntrodden,&&&&&&&&&&&,right,care.vice,,,,,0,258,258,258,,,,,,,,,,,,,,,,,,,,,,,AMP,left,0.6003901947988197,,,left,0,0.6003901947988197,0,,,,,,,,,,,,,,,,,,,,1015,2019_Mar_06_1245,mf_amp_cond1,3.0.4,59.98335896723193,
peaceful,edancipation,&&&&&&&&&&&&,left,authority.virtue,,,,,0,259,259,259,,,,,,,,,,,,,,,,,,,,,,,AMP,right,0.633726746076718,,,right,0,0.633726746076718,0,,,,,,,,,,,,,,,,,,,,1015,2019_Mar_06_1245,mf_amp_cond1,3.0.4,59.98335896723193,
safe,ilportation,&&&&&&&&&&&,left,care.virtue,,,,,0,260,260,260,,,,,,,,,,,,,,,,,,,,,,,AMP,left,0.9338172870920971,,,left,1,0.9338172870920971,1,,,,,,,,,,,,,,,,,,,,1015,2019_Mar_06_1245,mf_amp_cond1,3.0.4,59.98335896723193,
oam,unreflectuve,&&&&&&&&&&&&,None,nonword,,,,,0,261,261,261,,,,,,,,,,,,,,,,,,,,,,,AMP,left,0.9338131176773459,,,left,0,0.9338131176773459,0,,,,,,,,,,,,,,,,,,,,1015,2019_Mar_06_1245,mf_amp_cond1,3.0.4,59.98335896723193,
restore,slending,&&&&&&&&,left,care.virtue,,,,,0,262,262,262,,,,,,,,,,,,,,,,,,,,,,,AMP,right,0.4336827425286174,,,right,0,0.4336827425286174,0,,,,,,,,,,,,,,,,,,,,1015,2019_Mar_06_1245,mf_amp_cond1,3.0.4,59.98335896723193,
credit,sfumatoy,&&&&&&&&,left,fairness.virtue,,,,,0,263,263,263,,,,,,,,,,,,,,,,,,,,,,,AMP,left,0.43368915712926537,,,left,1,0.43368915712926537,1,,,,,,,,,,,,,,,,,,,,1015,2019_Mar_06_1245,mf_amp_cond1,3.0.4,59.98335896723193,
agreement,gowlands,&&&&&&&&,left,fairness.virtue,,,,,0,264,264,264,,,,,,,,,,,,,,,,,,,,,,,AMP,right,1.2339148839237168,,,right,0,1.2339148839237168,0,,,,,,,,,,,,,,,,,,,,1015,2019_Mar_06_1245,mf_amp_cond1,3.0.4,59.98335896723193,
embrace,carvels,&&&&&&&,left,authority.virtue,,,,,0,265,265,265,,,,,,,,,,,,,,,,,,,,,,,AMP,left,0.6003921192605048,,,left,1,0.6003921192605048,1,,,,,,,,,,,,,,,,,,,,1015,2019_Mar_06_1245,mf_amp_cond1,3.0.4,59.98335896723193,
terrorist,blunderints,&&&&&&&&&&&,right,loyalty.vice,,,,,0,266,266,266,,,,,,,,,,,,,,,,,,,,,,,AMP,left,0.5837175893830135,,,left,0,0.5837175893830135,0,,,,,,,,,,,,,,,,,,,,1015,2019_Mar_06_1245,mf_amp_cond1,3.0.4,59.98335896723193,
increase,brotesque,&&&&&&&&&,left,care.virtue,,,,,0,267,267,267,,,,,,,,,,,,,,,,,,,,,,,AMP,right,0.46703276433981955,,,right,0,0.46703276433981955,0,,,,,,,,,,,,,,,,,,,,1015,2019_Mar_06_1245,mf_amp_cond1,3.0.4,59.98335896723193,
progress,reprisols,&&&&&&&&&,left,authority.virtue,,,,,0,268,268,268,,,,,,,,,,,,,,,,,,,,,,,AMP,right,0.6004739042837173,,,right,0,0.6004739042837173,0,,,,,,,,,,,,,,,,,,,,1015,2019_Mar_06_1245,mf_amp_cond1,3.0.4,59.98335896723193,
terrorists,juck,&&&&,right,fairness.vice,,,,,0,269,269,269,,,,,,,,,,,,,,,,,,,,,,,AMP,left,0.4837117842398584,,,left,0,0.4837117842398584,0,,,,,,,,,,,,,,,,,,,,1015,2019_Mar_06_1245,mf_amp_cond1,3.0.4,59.98335896723193,
torture,drumbled,&&&&&&&&,right,care.vice,,,,,0,270,270,270,,,,,,,,,,,,,,,,,,,,,,,AMP,left,0.550380717497319,,,left,0,0.550380717497319,0,,,,,,,,,,,,,,,,,,,,1015,2019_Mar_06_1245,mf_amp_cond1,3.0.4,59.98335896723193,
violence,prones,&&&&&&,right,care.vice,,,,,0,271,271,271,,,,,,,,,,,,,,,,,,,,,,,AMP,left,0.38366781279910356,,,left,0,0.38366781279910356,0,,,,,,,,,,,,,,,,,,,,1015,2019_Mar_06_1245,mf_amp_cond1,3.0.4,59.98335896723193,
police,clamorek,&&&&&&&&,right,authority.vice,,,,,0,272,272,272,,,,,,,,,,,,,,,,,,,,,,,AMP,left,0.7004113949369639,,,left,0,0.7004113949369639,0,,,,,,,,,,,,,,,,,,,,1015,2019_Mar_06_1245,mf_amp_cond1,3.0.4,59.98335896723193,
Loorish,dormandi,&&&&&&&&,None,nonword,,,,,0,273,273,273,,,,,,,,,,,,,,,,,,,,,,,AMP,right,0.617061196709983,,,right,0,0.617061196709983,0,,,,,,,,,,,,,,,,,,,,1015,2019_Mar_06_1245,mf_amp_cond1,3.0.4,59.98335896723193,
riot,pullness,&&&&&&&&,right,authority.vice,,,,,0,274,274,274,,,,,,,,,,,,,,,,,,,,,,,AMP,right,1.0671859430149198,,,right,1,1.0671859430149198,1,,,,,,,,,,,,,,,,,,,,1015,2019_Mar_06_1245,mf_amp_cond1,3.0.4,59.98335896723193,
blamed,synchronazers,&&&&&&&&&&&&&,right,loyalty.vice,,,,,0,275,275,275,,,,,,,,,,,,,,,,,,,,,,,AMP,right,1.1505406312644482,,,right,1,1.1505406312644482,1,,,,,,,,,,,,,,,,,,,,1015,2019_Mar_06_1245,mf_amp_cond1,3.0.4,59.98335896723193,
prison,lenon,&&&&&,right,fairness.vice,,,,,0,276,276,276,,,,,,,,,,,,,,,,,,,,,,,AMP,right,0.4670196146471426,,,right,1,0.4670196146471426,1,,,,,,,,,,,,,,,,,,,,1015,2019_Mar_06_1245,mf_amp_cond1,3.0.4,59.98335896723193,
faith,presentkess,&&&&&&&&&&&,left,sanctity.virtue,,,,,0,277,277,277,,,,,,,,,,,,,,,,,,,,,,,AMP,right,0.6504185951780528,,,right,0,0.6504185951780528,0,,,,,,,,,,,,,,,,,,,,1015,2019_Mar_06_1245,mf_amp_cond1,3.0.4,59.98335896723193,
integrity,alar,&&&&,left,fairness.virtue,,,,,0,278,278,278,,,,,,,,,,,,,,,,,,,,,,,AMP,right,9.45271877583582,,,right,0,9.45271877583582,0,,,,,,,,,,,,,,,,,,,,1015,2019_Mar_06_1245,mf_amp_cond1,3.0.4,59.98335896723193,
pleasant,fegard,&&&&&&,None,control,,,,,0,279,279,279,,,,,,,,,,,,,,,,,,,,,,,AMP,right,2.4175980273867026,,,right,0,2.4175980273867026,0,,,,,,,,,,,,,,,,,,,,1015,2019_Mar_06_1245,mf_amp_cond1,3.0.4,59.98335896723193,
help,sidearbs,&&&&&&&&,left,care.virtue,,,,,0,280,280,280,,,,,,,,,,,,,,,,,,,,,,,AMP,right,1.1505704587325454,,,right,0,1.1505704587325454,0,,,,,,,,,,,,,,,,,,,,1015,2019_Mar_06_1245,mf_amp_cond1,3.0.4,59.98335896723193,
corruption,spag,&&&&,right,sanctity.vice,,,,,0,281,281,281,,,,,,,,,,,,,,,,,,,,,,,AMP,left,0.4503758745267987,,,left,0,0.4503758745267987,0,,,,,,,,,,,,,,,,,,,,1015,2019_Mar_06_1245,mf_amp_cond1,3.0.4,59.98335896723193,
strength,ammessment,&&&&&&&&&&,left,sanctity.virtue,,,,,0,282,282,282,,,,,,,,,,,,,,,,,,,,,,,AMP,right,1.1172361526405439,,,right,0,1.1172361526405439,0,,,,,,,,,,,,,,,,,,,,1015,2019_Mar_06_1245,mf_amp_cond1,3.0.4,59.98335896723193,
noped,touls,&&&&&,None,nonword,,,,,0,283,283,283,,,,,,,,,,,,,,,,,,,,,,,AMP,left,0.6836265353485942,,,left,0,0.6836265353485942,0,,,,,,,,,,,,,,,,,,,,1015,2019_Mar_06_1245,mf_amp_cond1,3.0.4,59.98335896723193,
great,nonobservalt,&&&&&&&&&&&&,left,loyalty.virtue,,,,,0,284,284,284,,,,,,,,,,,,,,,,,,,,,,,AMP,right,1.533944807597436,,,right,0,1.533944807597436,0,,,,,,,,,,,,,,,,,,,,1015,2019_Mar_06_1245,mf_amp_cond1,3.0.4,59.98335896723193,
rorroborated,frojecting,&&&&&&&&&&,None,nonword,,,,,0,285,285,285,,,,,,,,,,,,,,,,,,,,,,,AMP,left,0.8004858352942392,,,left,0,0.8004858352942392,0,,,,,,,,,,,,,,,,,,,,1015,2019_Mar_06_1245,mf_amp_cond1,3.0.4,59.98335896723193,
shot,gournful,&&&&&&&&,right,care.vice,,,,,0,286,286,286,,,,,,,,,,,,,,,,,,,,,,,AMP,left,0.8004479897208512,,,left,0,0.8004479897208512,0,,,,,,,,,,,,,,,,,,,,1015,2019_Mar_06_1245,mf_amp_cond1,3.0.4,59.98335896723193,
hate,photocalkodes,&&&&&&&&&&&&&,right,fairness.vice,,,,,0,287,287,287,,,,,,,,,,,,,,,,,,,,,,,AMP,left,0.6169232847169042,,,left,0,0.6169232847169042,0,,,,,,,,,,,,,,,,,,,,1015,2019_Mar_06_1245,mf_amp_cond1,3.0.4,59.98335896723193,
protesters,crilfully,&&&&&&&&&,right,authority.vice,,,,,0,288,288,288,,,,,,,,,,,,,,,,,,,,,,,AMP,left,0.4670208975439891,,,left,0,0.4670208975439891,0,,,,,,,,,,,,,,,,,,,,1015,2019_Mar_06_1245,mf_amp_cond1,3.0.4,59.98335896723193,
party,disregord,&&&&&&&&&,left,loyalty.virtue,,,,,0,289,289,289,,,,,,,,,,,,,,,,,,,,,,,AMP,right,1.8673795971553773,,,right,0,1.8673795971553773,0,,,,,,,,,,,,,,,,,,,,1015,2019_Mar_06_1245,mf_amp_cond1,3.0.4,59.98335896723193,
failure,tove,&&&&,right,loyalty.vice,,,,,0,290,290,290,,,,,,,,,,,,,,,,,,,,,,,AMP,right,0.7170827173395082,,,right,1,0.7170827173395082,1,,,,,,,,,,,,,,,,,,,,1015,2019_Mar_06_1245,mf_amp_cond1,3.0.4,59.98335896723193,
fear,simplustic,&&&&&&&&&&,right,sanctity.vice,,,,,0,291,291,291,,,,,,,,,,,,,,,,,,,,,,,AMP,right,0.5837095712777227,,,right,1,0.5837095712777227,1,,,,,,,,,,,,,,,,,,,,1015,2019_Mar_06_1245,mf_amp_cond1,3.0.4,59.98335896723193,
attacks,chadows,&&&&&&&,right,care.vice,,,,,0,292,292,292,,,,,,,,,,,,,,,,,,,,,,,AMP,left,0.600421946728602,,,left,0,0.600421946728602,0,,,,,,,,,,,,,,,,,,,,1015,2019_Mar_06_1245,mf_amp_cond1,3.0.4,59.98335896723193,
promised,thabbily,&&&&&&&&,left,loyalty.virtue,,,,,0,293,293,293,,,,,,,,,,,,,,,,,,,,,,,AMP,right,0.7504343428881839,,,right,0,0.7504343428881839,0,,,,,,,,,,,,,,,,,,,,1015,2019_Mar_06_1245,mf_amp_cond1,3.0.4,59.98335896723193,
threatened,bycled,&&&&&&,right,fairness.vice,,,,,0,294,294,294,,,,,,,,,,,,,,,,,,,,,,,AMP,right,0.4169934594538063,,,right,1,0.4169934594538063,1,,,,,,,,,,,,,,,,,,,,1015,2019_Mar_06_1245,mf_amp_cond1,3.0.4,59.98335896723193,
respect,Lacedonia,&&&&&&&&&,left,sanctity.virtue,,,,,0,295,295,295,,,,,,,,,,,,,,,,,,,,,,,AMP,right,1.2338962818030268,,,right,0,1.2338962818030268,0,,,,,,,,,,,,,,,,,,,,1015,2019_Mar_06_1245,mf_amp_cond1,3.0.4,59.98335896723193,
squets,framo,&&&&&,None,nonword,,,,,0,296,296,296,,,,,,,,,,,,,,,,,,,,,,,AMP,right,0.9671753270085901,,,right,0,0.9671753270085901,0,,,,,,,,,,,,,,,,,,,,1015,2019_Mar_06_1245,mf_amp_cond1,3.0.4,59.98335896723193,
clean,chressing,&&&&&&&&&,left,sanctity.virtue,,,,,0,297,297,297,,,,,,,,,,,,,,,,,,,,,,,AMP,left,0.7004210166633129,,,left,1,0.7004210166633129,1,,,,,,,,,,,,,,,,,,,,1015,2019_Mar_06_1245,mf_amp_cond1,3.0.4,59.98335896723193,
lachelor,quarterbocks,&&&&&&&&&&&&,None,nonword,,,,,0,298,298,298,,,,,,,,,,,,,,,,,,,,,,,AMP,right,0.6503878054209054,,,right,0,0.6503878054209054,0,,,,,,,,,,,,,,,,,,,,1015,2019_Mar_06_1245,mf_amp_cond1,3.0.4,59.98335896723193,
betrayal,feleological,&&&&&&&&&&&&,right,loyalty.vice,,,,,0,299,299,299,,,,,,,,,,,,,,,,,,,,,,,AMP,right,1.550647561205551,,,right,1,1.550647561205551,1,,,,,,,,,,,,,,,,,,,,1015,2019_Mar_06_1245,mf_amp_cond1,3.0.4,59.98335896723193,
smapper,greaks,&&&&&&,None,nonword,,,,,0,300,300,300,,,,,,,,,,,,,,,,,,,,,,,AMP,right,0.3169834848958999,,,right,0,0.3169834848958999,0,,,,,,,,,,,,,,,,,,,,1015,2019_Mar_06_1245,mf_amp_cond1,3.0.4,59.98335896723193,
stindig,frocessing,&&&&&&&&&&,None,nonword,,,,,0,301,301,301,,,,,,,,,,,,,,,,,,,,,,,AMP,right,0.40035869961138815,,,right,0,0.40035869961138815,0,,,,,,,,,,,,,,,,,,,,1015,2019_Mar_06_1245,mf_amp_cond1,3.0.4,59.98335896723193,
intelligence,elduringly,&&&&&&&&&&,left,loyalty.virtue,,,,,0,302,302,302,,,,,,,,,,,,,,,,,,,,,,,AMP,right,0.5003782960120589,,,right,0,0.5003782960120589,0,,,,,,,,,,,,,,,,,,,,1015,2019_Mar_06_1245,mf_amp_cond1,3.0.4,59.98335896723193,
friends,focomotive,&&&&&&&&&&,left,loyalty.virtue,,,,,0,303,303,303,,,,,,,,,,,,,,,,,,,,,,,AMP,right,0.9337922704871744,,,right,0,0.9337922704871744,0,,,,,,,,,,,,,,,,,,,,1015,2019_Mar_06_1245,mf_amp_cond1,3.0.4,59.98335896723193,
celebrated,yane,&&&&,left,authority.virtue,,,,,0,304,304,304,,,,,,,,,,,,,,,,,,,,,,,AMP,left,0.5837159858783707,,,left,1,0.5837159858783707,1,,,,,,,,,,,,,,,,,,,,1015,2019_Mar_06_1245,mf_amp_cond1,3.0.4,59.98335896723193,
dignity,gazily,&&&&&&,left,sanctity.virtue,,,,,0,305,305,305,,,,,,,,,,,,,,,,,,,,,,,AMP,right,0.33366378769278526,,,right,0,0.33366378769278526,0,,,,,,,,,,,,,,,,,,,,1015,2019_Mar_06_1245,mf_amp_cond1,3.0.4,59.98335896723193,
powerful,viscs,&&&&&,left,authority.virtue,,,,,0,306,306,306,,,,,,,,,,,,,,,,,,,,,,,AMP,left,0.8337899933103472,,,left,1,0.8337899933103472,1,,,,,,,,,,,,,,,,,,,,1015,2019_Mar_06_1245,mf_amp_cond1,3.0.4,59.98335896723193,
interests,neputized,&&&&&&&&&,left,fairness.virtue,,,,,0,307,307,307,,,,,,,,,,,,,,,,,,,,,,,AMP,left,0.6004184187622741,,,left,1,0.6004184187622741,1,,,,,,,,,,,,,,,,,,,,1015,2019_Mar_06_1245,mf_amp_cond1,3.0.4,59.98335896723193,
illegal,godlaness,&&&&&&&&&,right,fairness.vice,,,,,0,308,308,308,,,,,,,,,,,,,,,,,,,,,,,AMP,right,0.7004495612345636,,,right,1,0.7004495612345636,1,,,,,,,,,,,,,,,,,,,,1015,2019_Mar_06_1245,mf_amp_cond1,3.0.4,59.98335896723193,
prosecution,vicissifude,&&&&&&&&&&&,right,authority.vice,,,,,0,309,309,309,,,,,,,,,,,,,,,,,,,,,,,AMP,right,2.1341451328480616,,,right,1,2.1341451328480616,1,,,,,,,,,,,,,,,,,,,,1015,2019_Mar_06_1245,mf_amp_cond1,3.0.4,59.98335896723193,
accused,fontacts,&&&&&&&&,right,fairness.vice,,,,,0,310,310,310,,,,,,,,,,,,,,,,,,,,,,,AMP,left,1.9840974570252001,,,left,0,1.9840974570252001,0,,,,,,,,,,,,,,,,,,,,1015,2019_Mar_06_1245,mf_amp_cond1,3.0.4,59.98335896723193,
praised,gationwide,&&&&&&&&&&,left,loyalty.virtue,,,,,0,311,311,311,,,,,,,,,,,,,,,,,,,,,,,AMP,right,1.2338796040276065,,,right,0,1.2338796040276065,0,,,,,,,,,,,,,,,,,,,,1015,2019_Mar_06_1245,mf_amp_cond1,3.0.4,59.98335896723193,
unpleasant,suggists,&&&&&&&&,None,control,,,,,0,312,312,312,,,,,,,,,,,,,,,,,,,,,,,AMP,right,2.117471244535409,,,right,0,2.117471244535409,0,,,,,,,,,,,,,,,,,,,,1015,2019_Mar_06_1245,mf_amp_cond1,3.0.4,59.98335896723193,
promises,reelectiob,&&&&&&&&&&,left,fairness.virtue,,,,,0,313,313,313,,,,,,,,,,,,,,,,,,,,,,,AMP,left,1.217220469028689,,,left,1,1.217220469028689,1,,,,,,,,,,,,,,,,,,,,1015,2019_Mar_06_1245,mf_amp_cond1,3.0.4,59.98335896723193,
refused,halaise,&&&&&&&,right,authority.vice,,,,,0,314,314,314,,,,,,,,,,,,,,,,,,,,,,,AMP,left,2.96768752601929,,,left,0,2.96768752601929,0,,,,,,,,,,,,,,,,,,,,1015,2019_Mar_06_1245,mf_amp_cond1,3.0.4,59.98335896723193,
victims,epigrach,&&&&&&&&,right,care.vice,,,,,0,315,315,315,,,,,,,,,,,,,,,,,,,,,,,AMP,left,3.601191367721185,,,left,0,3.601191367721185,0,,,,,,,,,,,,,,,,,,,,1015,2019_Mar_06_1245,mf_amp_cond1,3.0.4,59.98335896723193,
free,tabin,&&&&&,left,fairness.virtue,,,,,0,316,316,316,,,,,,,,,,,,,,,,,,,,,,,AMP,right,0.38370790355838835,,,right,0,0.38370790355838835,0,,,,,,,,,,,,,,,,,,,,1015,2019_Mar_06_1245,mf_amp_cond1,3.0.4,59.98335896723193,
care,galamitous,&&&&&&&&&&,left,care.virtue,,,,,0,317,317,317,,,,,,,,,,,,,,,,,,,,,,,AMP,right,0.5504028474679217,,,right,0,0.5504028474679217,0,,,,,,,,,,,,,,,,,,,,1015,2019_Mar_06_1245,mf_amp_cond1,3.0.4,59.98335896723193,
gikely,openet,&&&&&&,None,nonword,,,,,0,318,318,318,,,,,,,,,,,,,,,,,,,,,,,AMP,right,0.41700564709026366,,,right,0,0.41700564709026366,0,,,,,,,,,,,,,,,,,,,,1015,2019_Mar_06_1245,mf_amp_cond1,3.0.4,59.98335896723193,
abointment,leact,&&&&&,None,nonword,,,,,0,319,319,319,,,,,,,,,,,,,,,,,,,,,,,AMP,right,0.5671165059320629,,,right,0,0.5671165059320629,0,,,,,,,,,,,,,,,,,,,,1015,2019_Mar_06_1245,mf_amp_cond1,3.0.4,59.98335896723193,
compassion,laming,&&&&&&,left,care.virtue,,,,,0,320,320,320,,,,,,,,,,,,,,,,,,,,,,,AMP,right,0.25039633677806705,,,right,0,0.25039633677806705,0,,,,,,,,,,,,,,,,,,,,1015,2019_Mar_06_1245,mf_amp_cond1,3.0.4,59.98335896723193,
fighters,lorthwhile,&&&&&&&&&&,right,authority.vice,,,,,0,321,321,321,,,,,,,,,,,,,,,,,,,,,,,AMP,left,1.0005016149953008,,,left,0,1.0005016149953008,0,,,,,,,,,,,,,,,,,,,,1015,2019_Mar_06_1245,mf_amp_cond1,3.0.4,59.98335896723193,
useful,imebreaker,&&&&&&&&&&,left,authority.virtue,,,,,0,322,322,322,,,,,,,,,,,,,,,,,,,,,,,AMP,right,2.9843678288161755,,,right,0,2.9843678288161755,0,,,,,,,,,,,,,,,,,,,,1015,2019_Mar_06_1245,mf_amp_cond1,3.0.4,59.98335896723193,
critics,chonograph,&&&&&&&&&&,right,loyalty.vice,,,,,0,323,323,323,,,,,,,,,,,,,,,,,,,,,,,AMP,left,0.5003686742857099,,,left,0,0.5003686742857099,0,,,,,,,,,,,,,,,,,,,,1015,2019_Mar_06_1245,mf_amp_cond1,3.0.4,59.98335896723193,
penalty,perified,&&&&&&&&,right,authority.vice,,,,,0,324,324,324,,,,,,,,,,,,,,,,,,,,,,,AMP,left,0.8837936976924539,,,left,0,0.8837936976924539,0,,,,,,,,,,,,,,,,,,,,1015,2019_Mar_06_1245,mf_amp_cond1,3.0.4,59.98335896723193,
charges,dumid,&&&&&,right,fairness.vice,,,,,0,325,325,325,,,,,,,,,,,,,,,,,,,,,,,AMP,left,1.3005892693763599,,,left,0,1.3005892693763599,0,,,,,,,,,,,,,,,,,,,,1015,2019_Mar_06_1245,mf_amp_cond1,3.0.4,59.98335896723193,
win,mih,&&&,left,fairness.virtue,,,,,0,326,326,326,,,,,,,,,,,,,,,,,,,,,,,AMP,right,0.5003645047545433,,,right,0,0.5003645047545433,0,,,,,,,,,,,,,,,,,,,,1015,2019_Mar_06_1245,mf_amp_cond1,3.0.4,59.98335896723193,
good,festate,&&&&&&&,left,care.virtue,,,,,0,327,327,327,,,,,,,,,,,,,,,,,,,,,,,AMP,left,2.00074632873293,,,left,1,2.00074632873293,1,,,,,,,,,,,,,,,,,,,,1015,2019_Mar_06_1245,mf_amp_cond1,3.0.4,59.98335896723193,
,,,,,,,,,,,,,,,,,,,,,,,,,,,,,,,,,,,,,,,,,,,,7,10.588,,,,,,,,,,,,,,,,,,1015,2019_Mar_06_1245,mf_amp_cond1,3.0.4,59.98335896723193,
,,,,,,,,,,,,,,,,,,,,,,,,,,,,,,,,,,,,,,,,,,,,,,1,5.203,,,,,,,,,,,,,,,,1015,2019_Mar_06_1245,mf_amp_cond1,3.0.4,59.98335896723193,
,,,,,,,,,,,,,,,,,,,,,,,,,,,,,,,,,,,,,,,,,,,,,,,,3,11.405,,,,,,,,,,,,,,1015,2019_Mar_06_1245,mf_amp_cond1,3.0.4,59.98335896723193,
,,,,,,,,,,,,,,,,,,,,,,,,,,,,,,,,,,,,,,,,,,,,,,,,,,right,1.834101417916827,,,,,,,,,,,,1015,2019_Mar_06_1245,mf_amp_cond1,3.0.4,59.98335896723193,
bisebell,,&&&&&&&,,,,,,,,,,,0,0,0,1,,,,,,,,,,,,,,,,,,,LDT_prac,left,1.6506706855725497,,,,,,0,,,,,,,,,left,1.6506706855725497,,,,,,,,,,1015,2019_Mar_06_1245,mf_amp_cond1,3.0.4,59.98335896723193,
keyboard,,&&&&&&&,,,,,,,,,,,0,1,1,0,,,,,,,,,,,,,,,,,,,LDT_prac,right,1.117251868126914,,,,,,0,,,,,,,,,right,1.117251868126914,,,,,,,,,,1015,2019_Mar_06_1245,mf_amp_cond1,3.0.4,59.98335896723193,
,,,,,,,,,,,,,,,,,,,,,,,,,,,,,,,,,,,,,,,,,,,,,,,,,,,,,,right,2.9677943276474252,,,,,,,,1015,2019_Mar_06_1245,mf_amp_cond1,3.0.4,59.98335896723193,
forced,,&&&&&&,left,fairness.vice,,,,,,,,,,,,,0,0,0,56,,,,,,,,,,,,,,,LDT,right,0.817114822100848,,,,,,0,,,,,,,,,,,,,right,0,0.817114822100848,,,,,1015,2019_Mar_06_1245,mf_amp_cond1,3.0.4,59.98335896723193,
growth,,&&&&&&,left,care.virtue,,,,,,,,,,,,,0,1,1,89,,,,,,,,,,,,,,,LDT,right,0.6003895534668118,,,,,,0,,,,,,,,,,,,,right,0,0.6003895534668118,,,,,1015,2019_Mar_06_1245,mf_amp_cond1,3.0.4,59.98335896723193,
hasks,,&&&&&,right,nonword,,,,,,,,,,,,,0,2,2,91,,,,,,,,,,,,,,,LDT,left,0.8671906897798181,,,,,,0,,,,,,,,,,,,,left,0,0.8671906897798181,,,,,1015,2019_Mar_06_1245,mf_amp_cond1,3.0.4,59.98335896723193,
mostly,,&&&&&&,left,neutral,,,,,,,,,,,,,0,3,3,172,,,,,,,,,,,,,,,LDT,right,0.7337671896675602,,,,,,0,,,,,,,,,,,,,right,0,0.7337671896675602,,,,,1015,2019_Mar_06_1245,mf_amp_cond1,3.0.4,59.98335896723193,
Oregoniuns,,&&&&&&&&&&,right,nonword,,,,,,,,,,,,,0,4,4,80,,,,,,,,,,,,,,,LDT,left,3.534540074528195,,,,,,0,,,,,,,,,,,,,left,0,3.534540074528195,,,,,1015,2019_Mar_06_1245,mf_amp_cond1,3.0.4,59.98335896723193,
letish,,&&&&&&,right,nonword,,,,,,,,,,,,,0,5,5,112,,,,,,,,,,,,,,,LDT,left,0.900479452800937,,,,,,0,,,,,,,,,,,,,left,0,0.900479452800937,,,,,1015,2019_Mar_06_1245,mf_amp_cond1,3.0.4,59.98335896723193,
couldnt,,&&&&&&&,left,neutral,,,,,,,,,,,,,0,6,6,7,,,,,,,,,,,,,,,LDT,right,0.7004226202843711,,,,,,0,,,,,,,,,,,,,right,0,0.7004226202843711,,,,,1015,2019_Mar_06_1245,mf_amp_cond1,3.0.4,59.98335896723193,
could,,&&&&&,left,neutral,,,,,,,,,,,,,0,7,7,141,,,,,,,,,,,,,,,LDT,right,2.734329101163894,,,,,,0,,,,,,,,,,,,,right,0,2.734329101163894,,,,,1015,2019_Mar_06_1245,mf_amp_cond1,3.0.4,59.98335896723193,
about,,&&&&&,left,neutral,,,,,,,,,,,,,0,8,8,21,,,,,,,,,,,,,,,LDT,right,0.5503810381051153,,,,,,0,,,,,,,,,,,,,right,0,0.5503810381051153,,,,,1015,2019_Mar_06_1245,mf_amp_cond1,3.0.4,59.98335896723193,
forepo,,&&&&&&,right,nonword,,,,,,,,,,,,,0,9,9,151,,,,,,,,,,,,,,,LDT,left,2.2008284985786304,,,,,,0,,,,,,,,,,,,,left,0,2.2008284985786304,,,,,1015,2019_Mar_06_1245,mf_amp_cond1,3.0.4,59.98335896723193,
tracious,,&&&&&&&&,right,nonword,,,,,,,,,,,,,0,10,10,136,,,,,,,,,,,,,,,LDT,left,0.983663194347173,,,,,,0,,,,,,,,,,,,,left,0,0.983663194347173,,,,,1015,2019_Mar_06_1245,mf_amp_cond1,3.0.4,59.98335896723193,
Boeinf,,&&&&&&,right,nonword,,,,,,,,,,,,,0,11,11,15,,,,,,,,,,,,,,,LDT,left,0.7671181736513972,,,,,,0,,,,,,,,,,,,,left,0,0.7671181736513972,,,,,1015,2019_Mar_06_1245,mf_amp_cond1,3.0.4,59.98335896723193,
latter,,&&&&&&,left,neutral,,,,,,,,,,,,,0,12,12,106,,,,,,,,,,,,,,,LDT,right,0.6337424617959186,,,,,,0,,,,,,,,,,,,,right,0,0.6337424617959186,,,,,1015,2019_Mar_06_1245,mf_amp_cond1,3.0.4,59.98335896723193,
nackers,,&&&&&&&,right,nonword,,,,,,,,,,,,,0,13,13,193,,,,,,,,,,,,,,,LDT,right,0.6837474490748718,,,,,,1,,,,,,,,,,,,,right,1,0.6837474490748718,,,,,1015,2019_Mar_06_1245,mf_amp_cond1,3.0.4,59.98335896723193,
pulge,,&&&&&,right,nonword,,,,,,,,,,,,,0,14,14,1,,,,,,,,,,,,,,,LDT,right,2.434219316695817,,,,,,1,,,,,,,,,,,,,right,1,2.434219316695817,,,,,1015,2019_Mar_06_1245,mf_amp_cond1,3.0.4,59.98335896723193,
there,,&&&&&,left,neutral,,,,,,,,,,,,,0,15,15,149,,,,,,,,,,,,,,,LDT,right,0.6670642596436664,,,,,,0,,,,,,,,,,,,,right,0,0.6670642596436664,,,,,1015,2019_Mar_06_1245,mf_amp_cond1,3.0.4,59.98335896723193,
clattening,,&&&&&&&&&&,right,nonword,,,,,,,,,,,,,0,16,16,133,,,,,,,,,,,,,,,LDT,right,0.7504362671170384,,,,,,1,,,,,,,,,,,,,right,1,0.7504362671170384,,,,,1015,2019_Mar_06_1245,mf_amp_cond1,3.0.4,59.98335896723193,
killed,,&&&&&&,left,care.vice,,,,,,,,,,,,,0,17,17,32,,,,,,,,,,,,,,,LDT,right,0.6503990310011432,,,,,,0,,,,,,,,,,,,,right,0,0.6503990310011432,,,,,1015,2019_Mar_06_1245,mf_amp_cond1,3.0.4,59.98335896723193,
conspiracy,,&&&&&&&&&&,left,sanctity.vice,,,,,,,,,,,,,0,18,18,73,,,,,,,,,,,,,,,LDT,right,0.6337472726590931,,,,,,0,,,,,,,,,,,,,right,0,0.6337472726590931,,,,,1015,2019_Mar_06_1245,mf_amp_cond1,3.0.4,59.98335896723193,
trust,,&&&&&,left,authority.virtue,,,,,,,,,,,,,0,19,19,34,,,,,,,,,,,,,,,LDT,right,0.6504041625885293,,,,,,0,,,,,,,,,,,,,right,0,0.6504041625885293,,,,,1015,2019_Mar_06_1245,mf_amp_cond1,3.0.4,59.98335896723193,
improve,,&&&&&&&,left,care.virtue,,,,,,,,,,,,,0,20,20,74,,,,,,,,,,,,,,,LDT,right,0.8671297518303618,,,,,,0,,,,,,,,,,,,,right,0,0.8671297518303618,,,,,1015,2019_Mar_06_1245,mf_amp_cond1,3.0.4,59.98335896723193,
benefit,,&&&&&&&,left,fairness.virtue,,,,,,,,,,,,,0,21,21,166,,,,,,,,,,,,,,,LDT,right,0.9838328582700342,,,,,,0,,,,,,,,,,,,,right,0,0.9838328582700342,,,,,1015,2019_Mar_06_1245,mf_amp_cond1,3.0.4,59.98335896723193,
uller,,&&&&&,right,nonword,,,,,,,,,,,,,0,22,22,72,,,,,,,,,,,,,,,LDT,left,1.1338661015033722,,,,,,0,,,,,,,,,,,,,left,0,1.1338661015033722,,,,,1015,2019_Mar_06_1245,mf_amp_cond1,3.0.4,59.98335896723193,
ittutable,,&&&&&&&&&,right,nonword,,,,,,,,,,,,,0,23,23,36,,,,,,,,,,,,,,,LDT,left,1.2505810748552904,,,,,,0,,,,,,,,,,,,,left,0,1.2505810748552904,,,,,1015,2019_Mar_06_1245,mf_amp_cond1,3.0.4,59.98335896723193,
ejanulated,,&&&&&&&&&&,right,nonword,,,,,,,,,,,,,0,24,24,197,,,,,,,,,,,,,,,LDT,left,1.3172525737900287,,,,,,0,,,,,,,,,,,,,left,0,1.3172525737900287,,,,,1015,2019_Mar_06_1245,mf_amp_cond1,3.0.4,59.98335896723193,
scock,,&&&&&,right,nonword,,,,,,,,,,,,,0,25,25,59,,,,,,,,,,,,,,,LDT,left,2.3341775903245434,,,,,,0,,,,,,,,,,,,,left,0,2.3341775903245434,,,,,1015,2019_Mar_06_1245,mf_amp_cond1,3.0.4,59.98335896723193,
crinking,,&&&&&&&&,right,nonword,,,,,,,,,,,,,0,26,26,11,,,,,,,,,,,,,,,LDT,left,0.9504985520616174,,,,,,0,,,,,,,,,,,,,left,0,0.9504985520616174,,,,,1015,2019_Mar_06_1245,mf_amp_cond1,3.0.4,59.98335896723193,
amoungst,,&&&&&&&&,left,neutral,,,,,,,,,,,,,0,27,27,9,,,,,,,,,,,,,,,LDT,left,1.250574980978854,,,,,,1,,,,,,,,,,,,,left,1,1.250574980978854,,,,,1015,2019_Mar_06_1245,mf_amp_cond1,3.0.4,59.98335896723193,
gaultless,,&&&&&&&&&,right,nonword,,,,,,,,,,,,,0,28,28,109,,,,,,,,,,,,,,,LDT,left,1.2672424549236894,,,,,,0,,,,,,,,,,,,,left,0,1.2672424549236894,,,,,1015,2019_Mar_06_1245,mf_amp_cond1,3.0.4,59.98335896723193,
black,,&&&&&,left,loyalty.vice,,,,,,,,,,,,,0,29,29,130,,,,,,,,,,,,,,,LDT,right,0.5337456369306892,,,,,,0,,,,,,,,,,,,,right,0,0.5337456369306892,,,,,1015,2019_Mar_06_1245,mf_amp_cond1,3.0.4,59.98335896723193,
shoirmaster,,&&&&&&&&&&&,right,nonword,,,,,,,,,,,,,0,30,30,0,,,,,,,,,,,,,,,LDT,left,3.9512801605742425,,,,,,0,,,,,,,,,,,,,left,0,3.9512801605742425,,,,,1015,2019_Mar_06_1245,mf_amp_cond1,3.0.4,59.98335896723193,
men,,&&&,left,loyalty.vice,,,,,,,,,,,,,0,31,31,3,,,,,,,,,,,,,,,LDT,right,0.6670783716253936,,,,,,0,,,,,,,,,,,,,right,0,0.6670783716253936,,,,,1015,2019_Mar_06_1245,mf_amp_cond1,3.0.4,59.98335896723193,
nuckheap,,&&&&&&&&,right,nonword,,,,,,,,,,,,,0,32,32,53,,,,,,,,,,,,,,,LDT,right,1.0505316188791767,,,,,,1,,,,,,,,,,,,,right,1,1.0505316188791767,,,,,1015,2019_Mar_06_1245,mf_amp_cond1,3.0.4,59.98335896723193,
therefore,,&&&&&&&&&,left,neutral,,,,,,,,,,,,,0,33,33,103,,,,,,,,,,,,,,,LDT,right,0.6504051246447489,,,,,,0,,,,,,,,,,,,,right,0,0.6504051246447489,,,,,1015,2019_Mar_06_1245,mf_amp_cond1,3.0.4,59.98335896723193,
groups,,&&&&&&,left,loyalty.vice,,,,,,,,,,,,,0,34,34,49,,,,,,,,,,,,,,,LDT,right,0.850466447416693,,,,,,0,,,,,,,,,,,,,right,0,0.850466447416693,,,,,1015,2019_Mar_06_1245,mf_amp_cond1,3.0.4,59.98335896723193,
erks,,&&&&,right,nonword,,,,,,,,,,,,,0,35,35,154,,,,,,,,,,,,,,,LDT,right,1.5339749557897449,,,,,,1,,,,,,,,,,,,,right,1,1.5339749557897449,,,,,1015,2019_Mar_06_1245,mf_amp_cond1,3.0.4,59.98335896723193,
racist,,&&&&&&,left,sanctity.vice,,,,,,,,,,,,,0,36,36,94,,,,,,,,,,,,,,,LDT,right,2.5175775330280885,,,,,,0,,,,,,,,,,,,,right,0,2.5175775330280885,,,,,1015,2019_Mar_06_1245,mf_amp_cond1,3.0.4,59.98335896723193,
honstables,,&&&&&&&&&&,right,nonword,,,,,,,,,,,,,0,37,37,63,,,,,,,,,,,,,,,LDT,right,0.7837798744440079,,,,,,1,,,,,,,,,,,,,right,1,0.7837798744440079,,,,,1015,2019_Mar_06_1245,mf_amp_cond1,3.0.4,59.98335896723193,
perfect,,&&&&&&&,left,sanctity.virtue,,,,,,,,,,,,,0,38,38,54,,,,,,,,,,,,,,,LDT,right,1.1670698723755777,,,,,,0,,,,,,,,,,,,,right,0,1.1670698723755777,,,,,1015,2019_Mar_06_1245,mf_amp_cond1,3.0.4,59.98335896723193,
noone,,&&&&&,left,neutral,,,,,,,,,,,,,0,39,39,10,,,,,,,,,,,,,,,LDT,left,1.0837180705275387,,,,,,1,,,,,,,,,,,,,left,1,1.0837180705275387,,,,,1015,2019_Mar_06_1245,mf_amp_cond1,3.0.4,59.98335896723193,
coom,,&&&&,right,nonword,,,,,,,,,,,,,0,40,40,189,,,,,,,,,,,,,,,LDT,left,0.9337605185573921,,,,,,0,,,,,,,,,,,,,left,0,0.9337605185573921,,,,,1015,2019_Mar_06_1245,mf_amp_cond1,3.0.4,59.98335896723193,
tomedians,,&&&&&&&&&,right,nonword,,,,,,,,,,,,,0,41,41,14,,,,,,,,,,,,,,,LDT,left,1.0171694095479324,,,,,,0,,,,,,,,,,,,,left,0,1.0171694095479324,,,,,1015,2019_Mar_06_1245,mf_amp_cond1,3.0.4,59.98335896723193,
precificity,,&&&&&&&&&&&,right,nonword,,,,,,,,,,,,,0,42,42,87,,,,,,,,,,,,,,,LDT,right,1.2505894136847928,,,,,,1,,,,,,,,,,,,,right,1,1.2505894136847928,,,,,1015,2019_Mar_06_1245,mf_amp_cond1,3.0.4,59.98335896723193,
shoirmaster,,&&&&&&&&&&&,None,nonword,,,,,,,,,,,,,0,43,43,125,,,,,,,,,,,,,,,LDT,left,2.017435932648368,,,,,,0,,,,,,,,,,,,,left,0,2.017435932648368,,,,,1015,2019_Mar_06_1245,mf_amp_cond1,3.0.4,59.98335896723193,
pharing,,&&&&&&&,right,nonword,,,,,,,,,,,,,0,44,44,183,,,,,,,,,,,,,,,LDT,right,1.5673278640024364,,,,,,1,,,,,,,,,,,,,right,1,1.5673278640024364,,,,,1015,2019_Mar_06_1245,mf_amp_cond1,3.0.4,59.98335896723193,
itself,,&&&&&&,left,neutral,,,,,,,,,,,,,0,45,45,145,,,,,,,,,,,,,,,LDT,right,0.5170473734615371,,,,,,0,,,,,,,,,,,,,right,0,0.5170473734615371,,,,,1015,2019_Mar_06_1245,mf_amp_cond1,3.0.4,59.98335896723193,
Phintoism,,&&&&&&&&&,right,nonword,,,,,,,,,,,,,0,46,46,101,,,,,,,,,,,,,,,LDT,right,3.267762671923265,,,,,,1,,,,,,,,,,,,,right,1,3.267762671923265,,,,,1015,2019_Mar_06_1245,mf_amp_cond1,3.0.4,59.98335896723193,
fornicalion,,&&&&&&&&&&&,right,nonword,,,,,,,,,,,,,0,47,47,120,,,,,,,,,,,,,,,LDT,left,1.9674517925595865,,,,,,0,,,,,,,,,,,,,left,0,1.9674517925595865,,,,,1015,2019_Mar_06_1245,mf_amp_cond1,3.0.4,59.98335896723193,
fraud,,&&&&&,left,fairness.vice,,,,,,,,,,,,,0,48,48,178,,,,,,,,,,,,,,,LDT,right,0.7837721769465134,,,,,,0,,,,,,,,,,,,,right,0,0.7837721769465134,,,,,1015,2019_Mar_06_1245,mf_amp_cond1,3.0.4,59.98335896723193,
slavery,,&&&&&&&,left,loyalty.vice,,,,,,,,,,,,,0,49,49,105,,,,,,,,,,,,,,,LDT,right,0.9838424799963832,,,,,,0,,,,,,,,,,,,,right,0,0.9838424799963832,,,,,1015,2019_Mar_06_1245,mf_amp_cond1,3.0.4,59.98335896723193,
faspberry,,&&&&&&&&&,None,nonword,,,,,,,,,,,,,0,50,50,19,,,,,,,,,,,,,,,LDT,right,0.7670982886338606,,,,,,0,,,,,,,,,,,,,right,0,0.7670982886338606,,,,,1015,2019_Mar_06_1245,mf_amp_cond1,3.0.4,59.98335896723193,
both,,&&&&,left,neutral,,,,,,,,,,,,,0,51,51,77,,,,,,,,,,,,,,,LDT,right,0.5837057225871831,,,,,,0,,,,,,,,,,,,,right,0,0.5837057225871831,,,,,1015,2019_Mar_06_1245,mf_amp_cond1,3.0.4,59.98335896723193,
esquisiteness,,&&&&&&&&&&&&&,right,nonword,,,,,,,,,,,,,0,52,52,160,,,,,,,,,,,,,,,LDT,left,1.6173440768616274,,,,,,0,,,,,,,,,,,,,left,0,1.6173440768616274,,,,,1015,2019_Mar_06_1245,mf_amp_cond1,3.0.4,59.98335896723193,
proached,,&&&&&&&&,right,nonword,,,,,,,,,,,,,0,53,53,57,,,,,,,,,,,,,,,LDT,left,2.7676406358368695,,,,,,0,,,,,,,,,,,,,left,0,2.7676406358368695,,,,,1015,2019_Mar_06_1245,mf_amp_cond1,3.0.4,59.98335896723193,
troubla,,&&&&&&&,right,nonword,,,,,,,,,,,,,0,54,54,37,,,,,,,,,,,,,,,LDT,right,1.1338311423314735,,,,,,1,,,,,,,,,,,,,right,1,1.1338311423314735,,,,,1015,2019_Mar_06_1245,mf_amp_cond1,3.0.4,59.98335896723193,
were,,&&&&,left,neutral,,,,,,,,,,,,,0,55,55,75,,,,,,,,,,,,,,,LDT,right,0.5503672470804304,,,,,,0,,,,,,,,,,,,,right,0,0.5503672470804304,,,,,1015,2019_Mar_06_1245,mf_amp_cond1,3.0.4,59.98335896723193,
lies,,&&&&,left,fairness.vice,,,,,,,,,,,,,0,56,56,122,,,,,,,,,,,,,,,LDT,right,0.5337344114668667,,,,,,0,,,,,,,,,,,,,right,0,0.5337344114668667,,,,,1015,2019_Mar_06_1245,mf_amp_cond1,3.0.4,59.98335896723193,
neutralust,,&&&&&&&&&&,right,nonword,,,,,,,,,,,,,0,57,57,66,,,,,,,,,,,,,,,LDT,left,4.9349013400496915,,,,,,0,,,,,,,,,,,,,left,0,4.9349013400496915,,,,,1015,2019_Mar_06_1245,mf_amp_cond1,3.0.4,59.98335896723193,
discovars,,&&&&&&&&&,right,nonword,,,,,,,,,,,,,0,58,58,190,,,,,,,,,,,,,,,LDT,right,2.4675818467512727,,,,,,1,,,,,,,,,,,,,right,1,2.4675818467512727,,,,,1015,2019_Mar_06_1245,mf_amp_cond1,3.0.4,59.98335896723193,
allears,,&&&&&&&,right,nonword,,,,,,,,,,,,,0,59,59,64,,,,,,,,,,,,,,,LDT,left,0.9838418385479599,,,,,,0,,,,,,,,,,,,,left,0,0.9838418385479599,,,,,1015,2019_Mar_06_1245,mf_amp_cond1,3.0.4,59.98335896723193,
brudent,,&&&&&&&,right,nonword,,,,,,,,,,,,,0,60,60,40,,,,,,,,,,,,,,,LDT,left,0.9171446815598756,,,,,,0,,,,,,,,,,,,,left,0,0.9171446815598756,,,,,1015,2019_Mar_06_1245,mf_amp_cond1,3.0.4,59.98335896723193,
fonderland,,&&&&&&&&&&,right,nonword,,,,,,,,,,,,,0,61,61,67,,,,,,,,,,,,,,,LDT,left,0.8838055644882843,,,,,,0,,,,,,,,,,,,,left,0,0.8838055644882843,,,,,1015,2019_Mar_06_1245,mf_amp_cond1,3.0.4,59.98335896723193,
iptervention,,&&&&&&&&&&&&,right,nonword,,,,,,,,,,,,,0,62,62,185,,,,,,,,,,,,,,,LDT,left,1.7340491076465696,,,,,,0,,,,,,,,,,,,,left,0,1.7340491076465696,,,,,1015,2019_Mar_06_1245,mf_amp_cond1,3.0.4,59.98335896723193,
gun,,&&&,left,authority.vice,,,,,,,,,,,,,0,63,63,139,,,,,,,,,,,,,,,LDT,right,0.7170916977338493,,,,,,0,,,,,,,,,,,,,right,0,0.7170916977338493,,,,,1015,2019_Mar_06_1245,mf_amp_cond1,3.0.4,59.98335896723193,
health,,&&&&&&,left,care.virtue,,,,,,,,,,,,,0,64,64,31,,,,,,,,,,,,,,,LDT,right,0.5837442097254097,,,,,,0,,,,,,,,,,,,,right,0,0.5837442097254097,,,,,1015,2019_Mar_06_1245,mf_amp_cond1,3.0.4,59.98335896723193,
totalestic,,&&&&&&&&&&,None,nonword,,,,,,,,,,,,,0,65,65,65,,,,,,,,,,,,,,,LDT,left,2.1674723831238225,,,,,,0,,,,,,,,,,,,,left,0,2.1674723831238225,,,,,1015,2019_Mar_06_1245,mf_amp_cond1,3.0.4,59.98335896723193,
died,,&&&&,left,care.vice,,,,,,,,,,,,,0,66,66,102,,,,,,,,,,,,,,,LDT,right,0.6337334814015776,,,,,,0,,,,,,,,,,,,,right,0,0.6337334814015776,,,,,1015,2019_Mar_06_1245,mf_amp_cond1,3.0.4,59.98335896723193,
opportunity,,&&&&&&&&&&&,left,fairness.virtue,,,,,,,,,,,,,0,67,67,135,,,,,,,,,,,,,,,LDT,right,0.5670286270324141,,,,,,0,,,,,,,,,,,,,right,0,0.5670286270324141,,,,,1015,2019_Mar_06_1245,mf_amp_cond1,3.0.4,59.98335896723193,
arrests,,&&&&&&&,left,authority.vice,,,,,,,,,,,,,0,68,68,23,,,,,,,,,,,,,,,LDT,right,0.6504176330054179,,,,,,0,,,,,,,,,,,,,right,0,0.6504176330054179,,,,,1015,2019_Mar_06_1245,mf_amp_cond1,3.0.4,59.98335896723193,
asn,,&&&,right,nonword,,,,,,,,,,,,,0,69,69,110,,,,,,,,,,,,,,,LDT,right,0.8004460652591661,,,,,,1,,,,,,,,,,,,,right,1,0.8004460652591661,,,,,1015,2019_Mar_06_1245,mf_amp_cond1,3.0.4,59.98335896723193,
been,,&&&&,left,neutral,,,,,,,,,,,,,0,70,70,104,,,,,,,,,,,,,,,LDT,right,0.733749870560132,,,,,,0,,,,,,,,,,,,,right,0,0.733749870560132,,,,,1015,2019_Mar_06_1245,mf_amp_cond1,3.0.4,59.98335896723193,
baladroit,,&&&&&&&&&,right,nonword,,,,,,,,,,,,,0,71,71,170,,,,,,,,,,,,,,,LDT,left,1.3672655791742727,,,,,,0,,,,,,,,,,,,,left,0,1.3672655791742727,,,,,1015,2019_Mar_06_1245,mf_amp_cond1,3.0.4,59.98335896723193,
gusinesslike,,&&&&&&&&&&&&,right,nonword,,,,,,,,,,,,,0,72,72,96,,,,,,,,,,,,,,,LDT,left,1.8840743327746168,,,,,,0,,,,,,,,,,,,,left,0,1.8840743327746168,,,,,1015,2019_Mar_06_1245,mf_amp_cond1,3.0.4,59.98335896723193,
egpeditious,,&&&&&&&&&&&,right,nonword,,,,,,,,,,,,,0,73,73,192,,,,,,,,,,,,,,,LDT,left,0.8171215573092923,,,,,,0,,,,,,,,,,,,,left,0,0.8171215573092923,,,,,1015,2019_Mar_06_1245,mf_amp_cond1,3.0.4,59.98335896723193,
three,,&&&&&,left,neutral,,,,,,,,,,,,,0,74,74,182,,,,,,,,,,,,,,,LDT,right,0.6670539963524789,,,,,,0,,,,,,,,,,,,,right,0,0.6670539963524789,,,,,1015,2019_Mar_06_1245,mf_amp_cond1,3.0.4,59.98335896723193,
unscothed,,&&&&&&&&&,right,nonword,,,,,,,,,,,,,0,75,75,46,,,,,,,,,,,,,,,LDT,left,3.134413580293767,,,,,,0,,,,,,,,,,,,,left,0,3.134413580293767,,,,,1015,2019_Mar_06_1245,mf_amp_cond1,3.0.4,59.98335896723193,
latterly,,&&&&&&&&,left,neutral,,,,,,,,,,,,,0,76,76,117,,,,,,,,,,,,,,,LDT,left,1.0171453551156446,,,,,,1,,,,,,,,,,,,,left,1,1.0171453551156446,,,,,1015,2019_Mar_06_1245,mf_amp_cond1,3.0.4,59.98335896723193,
wherever,,&&&&&&&&,left,neutral,,,,,,,,,,,,,0,77,77,118,,,,,,,,,,,,,,,LDT,right,0.9004743212135509,,,,,,0,,,,,,,,,,,,,right,0,0.9004743212135509,,,,,1015,2019_Mar_06_1245,mf_amp_cond1,3.0.4,59.98335896723193,
emports,,&&&&&&&,right,nonword,,,,,,,,,,,,,0,78,78,132,,,,,,,,,,,,,,,LDT,left,0.9004865088500082,,,,,,0,,,,,,,,,,,,,left,0,0.9004865088500082,,,,,1015,2019_Mar_06_1245,mf_amp_cond1,3.0.4,59.98335896723193,
officers,,&&&&&&&&,left,authority.vice,,,,,,,,,,,,,0,79,79,13,,,,,,,,,,,,,,,LDT,right,0.7170971501618624,,,,,,0,,,,,,,,,,,,,right,0,0.7170971501618624,,,,,1015,2019_Mar_06_1245,mf_amp_cond1,3.0.4,59.98335896723193,
strofe,,&&&&&&,right,nonword,,,,,,,,,,,,,0,80,80,100,,,,,,,,,,,,,,,LDT,right,0.5837265697773546,,,,,,1,,,,,,,,,,,,,right,1,0.5837265697773546,,,,,1015,2019_Mar_06_1245,mf_amp_cond1,3.0.4,59.98335896723193,
even,,&&&&,left,neutral,,,,,,,,,,,,,0,81,81,22,,,,,,,,,,,,,,,LDT,right,0.5170377517351881,,,,,,0,,,,,,,,,,,,,right,0,0.5170377517351881,,,,,1015,2019_Mar_06_1245,mf_amp_cond1,3.0.4,59.98335896723193,
commitment,,&&&&&&&&&&,left,sanctity.virtue,,,,,,,,,,,,,0,82,82,168,,,,,,,,,,,,,,,LDT,left,4.617993546416983,,,,,,1,,,,,,,,,,,,,left,1,4.617993546416983,,,,,1015,2019_Mar_06_1245,mf_amp_cond1,3.0.4,59.98335896723193,
tislay,,&&&&&&,right,nonword,,,,,,,,,,,,,0,83,83,79,,,,,,,,,,,,,,,LDT,left,0.7170977914938703,,,,,,0,,,,,,,,,,,,,left,0,0.7170977914938703,,,,,1015,2019_Mar_06_1245,mf_amp_cond1,3.0.4,59.98335896723193,
rebels,,&&&&&&,left,authority.vice,,,,,,,,,,,,,0,84,84,111,,,,,,,,,,,,,,,LDT,right,0.8004434995818883,,,,,,0,,,,,,,,,,,,,right,0,0.8004434995818883,,,,,1015,2019_Mar_06_1245,mf_amp_cond1,3.0.4,59.98335896723193,
gillipede,,&&&&&&&&&,None,nonword,,,,,,,,,,,,,0,85,85,175,,,,,,,,,,,,,,,LDT,left,1.2339046206325293,,,,,,0,,,,,,,,,,,,,left,0,1.2339046206325293,,,,,1015,2019_Mar_06_1245,mf_amp_cond1,3.0.4,59.98335896723193,
atson,,&&&&&,right,nonword,,,,,,,,,,,,,0,86,86,45,,,,,,,,,,,,,,,LDT,left,2.5842862360877916,,,,,,0,,,,,,,,,,,,,left,0,2.5842862360877916,,,,,1015,2019_Mar_06_1245,mf_amp_cond1,3.0.4,59.98335896723193,
with,,&&&&,left,neutral,,,,,,,,,,,,,0,87,87,41,,,,,,,,,,,,,,,LDT,right,0.7838061739457771,,,,,,0,,,,,,,,,,,,,right,0,0.7838061739457771,,,,,1015,2019_Mar_06_1245,mf_amp_cond1,3.0.4,59.98335896723193,
done,,&&&&,left,neutral,,,,,,,,,,,,,0,88,88,8,,,,,,,,,,,,,,,LDT,right,0.6337440654169768,,,,,,0,,,,,,,,,,,,,right,0,0.6337440654169768,,,,,1015,2019_Mar_06_1245,mf_amp_cond1,3.0.4,59.98335896723193,
mightingale,,&&&&&&&&&&&,right,nonword,,,,,,,,,,,,,0,89,89,95,,,,,,,,,,,,,,,LDT,left,1.1005282673286274,,,,,,0,,,,,,,,,,,,,left,0,1.1005282673286274,,,,,1015,2019_Mar_06_1245,mf_amp_cond1,3.0.4,59.98335896723193,
become,,&&&&&&,left,neutral,,,,,,,,,,,,,0,90,90,83,,,,,,,,,,,,,,,LDT,right,0.583582243300043,,,,,,0,,,,,,,,,,,,,right,0,0.583582243300043,,,,,1015,2019_Mar_06_1245,mf_amp_cond1,3.0.4,59.98335896723193,
baklara,,&&&&&&&,right,nonword,,,,,,,,,,,,,0,91,91,198,,,,,,,,,,,,,,,LDT,left,0.8171164256054908,,,,,,0,,,,,,,,,,,,,left,0,0.8171164256054908,,,,,1015,2019_Mar_06_1245,mf_amp_cond1,3.0.4,59.98335896723193,
whereafter,,&&&&&&&&&&,left,neutral,,,,,,,,,,,,,0,92,92,186,,,,,,,,,,,,,,,LDT,right,0.6337370093679056,,,,,,0,,,,,,,,,,,,,right,0,0.6337370093679056,,,,,1015,2019_Mar_06_1245,mf_amp_cond1,3.0.4,59.98335896723193,
army,,&&&&,left,loyalty.vice,,,,,,,,,,,,,0,93,93,158,,,,,,,,,,,,,,,LDT,right,0.717084962525405,,,,,,0,,,,,,,,,,,,,right,0,0.717084962525405,,,,,1015,2019_Mar_06_1245,mf_amp_cond1,3.0.4,59.98335896723193,
sgrawl,,&&&&&&,right,nonword,,,,,,,,,,,,,0,94,94,161,,,,,,,,,,,,,,,LDT,left,1.0171857664827257,,,,,,0,,,,,,,,,,,,,left,0,1.0171857664827257,,,,,1015,2019_Mar_06_1245,mf_amp_cond1,3.0.4,59.98335896723193,
suicide,,&&&&&&&,left,care.vice,,,,,,,,,,,,,0,95,95,124,,,,,,,,,,,,,,,LDT,right,1.4672842132858932,,,,,,0,,,,,,,,,,,,,right,0,1.4672842132858932,,,,,1015,2019_Mar_06_1245,mf_amp_cond1,3.0.4,59.98335896723193,
encourage,,&&&&&&&&&,left,authority.virtue,,,,,,,,,,,,,0,96,96,126,,,,,,,,,,,,,,,LDT,right,0.6003898740746081,,,,,,0,,,,,,,,,,,,,right,0,0.6003898740746081,,,,,1015,2019_Mar_06_1245,mf_amp_cond1,3.0.4,59.98335896723193,
serial,,&&&&&&,left,sanctity.vice,,,,,,,,,,,,,0,97,97,169,,,,,,,,,,,,,,,LDT,right,2.7843039402505383,,,,,,0,,,,,,,,,,,,,right,0,2.7843039402505383,,,,,1015,2019_Mar_06_1245,mf_amp_cond1,3.0.4,59.98335896723193,
actively,,&&&&&&&&,left,authority.virtue,,,,,,,,,,,,,0,98,98,88,,,,,,,,,,,,,,,LDT,right,0.6003863462246954,,,,,,0,,,,,,,,,,,,,right,0,0.6003863462246954,,,,,1015,2019_Mar_06_1245,mf_amp_cond1,3.0.4,59.98335896723193,
hescribe,,&&&&&&&&,right,nonword,,,,,,,,,,,,,0,99,99,38,,,,,,,,,,,,,,,LDT,right,1.000482692150399,,,,,,1,,,,,,,,,,,,,right,1,1.000482692150399,,,,,1015,2019_Mar_06_1245,mf_amp_cond1,3.0.4,59.98335896723193,
saned,,&&&&&,None,nonword,,,,,,,,,,,,,0,100,100,69,,,,,,,,,,,,,,,LDT,right,0.5670398523798212,,,,,,0,,,,,,,,,,,,,right,0,0.5670398523798212,,,,,1015,2019_Mar_06_1245,mf_amp_cond1,3.0.4,59.98335896723193,
reviked,,&&&&&&&,right,nonword,,,,,,,,,,,,,0,101,101,78,,,,,,,,,,,,,,,LDT,left,1.1838852006476372,,,,,,0,,,,,,,,,,,,,left,0,1.1838852006476372,,,,,1015,2019_Mar_06_1245,mf_amp_cond1,3.0.4,59.98335896723193,
vurtain,,&&&&&&&,right,nonword,,,,,,,,,,,,,0,102,102,98,,,,,,,,,,,,,,,LDT,right,1.4339595289202407,,,,,,1,,,,,,,,,,,,,right,1,1.4339595289202407,,,,,1015,2019_Mar_06_1245,mf_amp_cond1,3.0.4,59.98335896723193,
further,,&&&&&&&,left,neutral,,,,,,,,,,,,,0,103,103,97,,,,,,,,,,,,,,,LDT,right,0.6837538635591045,,,,,,0,,,,,,,,,,,,,right,0,0.6837538635591045,,,,,1015,2019_Mar_06_1245,mf_amp_cond1,3.0.4,59.98335896723193,
ugeasily,,&&&&&&&&,right,nonword,,,,,,,,,,,,,0,104,104,52,,,,,,,,,,,,,,,LDT,right,0.9671596114058048,,,,,,1,,,,,,,,,,,,,right,1,0.9671596114058048,,,,,1015,2019_Mar_06_1245,mf_amp_cond1,3.0.4,59.98335896723193,
anyhow,,&&&&&&,left,neutral,,,,,,,,,,,,,0,105,105,5,,,,,,,,,,,,,,,LDT,right,2.2508254677522928,,,,,,0,,,,,,,,,,,,,right,0,2.2508254677522928,,,,,1015,2019_Mar_06_1245,mf_amp_cond1,3.0.4,59.98335896723193,
sharing,,&&&&&&&,left,loyalty.virtue,,,,,,,,,,,,,0,106,106,90,,,,,,,,,,,,,,,LDT,right,2.9676984305260703,,,,,,0,,,,,,,,,,,,,right,0,2.9676984305260703,,,,,1015,2019_Mar_06_1245,mf_amp_cond1,3.0.4,59.98335896723193,
gedious,,&&&&&&&,right,nonword,,,,,,,,,,,,,0,107,107,25,,,,,,,,,,,,,,,LDT,left,3.084388066548854,,,,,,0,,,,,,,,,,,,,left,0,3.084388066548854,,,,,1015,2019_Mar_06_1245,mf_amp_cond1,3.0.4,59.98335896723193,
fair,,&&&&,left,fairness.virtue,,,,,,,,,,,,,0,108,108,35,,,,,,,,,,,,,,,LDT,right,1.2339331653201953,,,,,,0,,,,,,,,,,,,,right,0,1.2339331653201953,,,,,1015,2019_Mar_06_1245,mf_amp_cond1,3.0.4,59.98335896723193,
praise,,&&&&&&,left,authority.virtue,,,,,,,,,,,,,0,109,109,86,,,,,,,,,,,,,,,LDT,right,3.7512364777503535,,,,,,0,,,,,,,,,,,,,right,0,3.7512364777503535,,,,,1015,2019_Mar_06_1245,mf_amp_cond1,3.0.4,59.98335896723193,
hefurbished,,&&&&&&&&&&&,right,nonword,,,,,,,,,,,,,0,110,110,159,,,,,,,,,,,,,,,LDT,left,2.517570797703229,,,,,,0,,,,,,,,,,,,,left,0,2.517570797703229,,,,,1015,2019_Mar_06_1245,mf_amp_cond1,3.0.4,59.98335896723193,
pistraught,,&&&&&&&&&&,right,nonword,,,,,,,,,,,,,0,111,111,70,,,,,,,,,,,,,,,LDT,right,1.2672527180984616,,,,,,1,,,,,,,,,,,,,right,1,1.2672527180984616,,,,,1015,2019_Mar_06_1245,mf_amp_cond1,3.0.4,59.98335896723193,
strong,,&&&&&&,left,loyalty.virtue,,,,,,,,,,,,,0,112,112,143,,,,,,,,,,,,,,,LDT,right,1.250689159380272,,,,,,0,,,,,,,,,,,,,right,0,1.250689159380272,,,,,1015,2019_Mar_06_1245,mf_amp_cond1,3.0.4,59.98335896723193,
give,,&&&&,left,neutral,,,,,,,,,,,,,0,113,113,142,,,,,,,,,,,,,,,LDT,right,2.11735097237397,,,,,,0,,,,,,,,,,,,,right,0,2.11735097237397,,,,,1015,2019_Mar_06_1245,mf_amp_cond1,3.0.4,59.98335896723193,
