words,mask,corr_ans,category,nonwords,tweets,topic,LDT_prac_loop.thisRepN,LDT_prac_loop.thisTrialN,LDT_prac_loop.thisN,LDT_prac_loop.thisIndex,LDT_loop.thisRepN,LDT_loop.thisTrialN,LDT_loop.thisN,LDT_loop.thisIndex,AMP_pracloop.thisRepN,AMP_pracloop.thisTrialN,AMP_pracloop.thisN,AMP_pracloop.thisIndex,AMP_loop.thisRepN,AMP_loop.thisTrialN,AMP_loop.thisN,AMP_loop.thisIndex,tweet_loop.thisRepN,tweet_loop.thisTrialN,tweet_loop.thisN,tweet_loop.thisIndex,begin_key.keys,begin_key.rt,key_resp_AMP_instr1.keys,key_resp_AMP_instr1.rt,key_resp_LDT_instr.keys,key_resp_LDT_instr.rt,resp_LDT_prac.keys,resp_LDT_prac.rt,task,keypress,RT,corr,resp_LDT_ready.keys,resp_LDT_ready.rt,resp_LDT.keys,resp_LDT.corr,resp_LDT.rt,LDT_rating.response,LDT_rating.rt,resp_AMP_ready1.keys,resp_AMP_ready1.rt,resp_AMP_prac.keys,resp_AMP_prac.rt,resp_AMP_ready.keys,resp_AMP_ready.rt,resp_AMP.keys,resp_AMP.corr,resp_AMP.rt,AMP_nonword_rating.response,AMP_nonword_rating.rt,AMP_word_rating.response,AMP_word_rating.rt,AMP_random_rating.response,AMP_random_rating.rt,key_resp_LDT_instr_2.keys,key_resp_LDT_instr_2.rt,resp_tweets.keys,resp_tweets.rt,participant,date,expName,psychopyVersion,frameRate,
,,,,,,,,,,,,,,,,,,,,,,,,,,,right,1285.6206993763335,,,,,,,,,,,,,,,,,,,,,,,,,,,,,,,,,,,,,1016,2019_Mar_06_1244,mf_amp_cond2,3.0.4,60.00300210088386,
,,,,,,,,,,,,,,,,,,,,,,,,,,,,,right,1.0338514255126938,,,,,,,,,,,,,,,,,,,,,,,,,,,,,,,,,,,1016,2019_Mar_06_1244,mf_amp_cond2,3.0.4,60.00300210088386,
,,,,,,,,,,,,,,,,,,,,,,,,,,,,,,,right,3.0843488953541964,,,,,,,,,,,,,,,,,,,,,,,,,,,,,,,,,1016,2019_Mar_06_1244,mf_amp_cond2,3.0.4,60.00300210088386,
keyboard,&&&&&&&,,,,,,0,0,0,0,,,,,,,,,,,,,,,,,,,,,,,left,1.5506408319342881,LDT_prac,left,1.5506408319342881,0,,,,,,,,,,,,,,,,,,,,,,,,,,,1016,2019_Mar_06_1244,mf_amp_cond2,3.0.4,60.00300210088386,
bisebell,&&&&&&&,,,,,,0,1,1,1,,,,,,,,,,,,,,,,,,,,,,,left,0.8671369714429602,LDT_prac,left,0.8671369714429602,0,,,,,,,,,,,,,,,,,,,,,,,,,,,1016,2019_Mar_06_1244,mf_amp_cond2,3.0.4,60.00300210088386,
,,,,,,,,,,,,,,,,,,,,,,,,,,,,,,,,,,,,,,,right,1.6173366201110184,,,,,,,,,,,,,,,,,,,,,,,,,1016,2019_Mar_06_1244,mf_amp_cond2,3.0.4,60.00300210088386,
toward,&&&&&&,left,neutral,,,,,,,,0,0,0,3,,,,,,,,,,,,,,,,,,,,,LDT,left,0.8337820215383545,1,,,left,1,0.8337820215383545,,,,,,,,,,,,,,,,,,,,,,1016,2019_Mar_06_1244,mf_amp_cond2,3.0.4,60.00300210088386,
serial,&&&&&&,left,sanctity.vice,,,,,,,,0,1,1,195,,,,,,,,,,,,,,,,,,,,,LDT,left,0.5170488695148379,1,,,left,1,0.5170488695148379,,,,,,,,,,,,,,,,,,,,,,1016,2019_Mar_06_1244,mf_amp_cond2,3.0.4,60.00300210088386,
friends,&&&&&&&,left,loyalty.virtue,,,,,,,,0,2,2,174,,,,,,,,,,,,,,,,,,,,,LDT,left,0.46703216002788395,1,,,left,1,0.46703216002788395,,,,,,,,,,,,,,,,,,,,,,1016,2019_Mar_06_1244,mf_amp_cond2,3.0.4,60.00300210088386,
mih,&&&,right,nonword,,,,,,,,0,3,3,126,,,,,,,,,,,,,,,,,,,,,LDT,left,0.500365300802514,0,,,left,0,0.500365300802514,,,,,,,,,,,,,,,,,,,,,,1016,2019_Mar_06_1244,mf_amp_cond2,3.0.4,60.00300210088386,
black,&&&&&,left,loyalty.vice,,,,,,,,0,4,4,81,,,,,,,,,,,,,,,,,,,,,LDT,left,0.7170948608545586,1,,,left,1,0.7170948608545586,,,,,,,,,,,,,,,,,,,,,,1016,2019_Mar_06_1244,mf_amp_cond2,3.0.4,60.00300210088386,
even,&&&&,left,neutral,,,,,,,,0,5,5,136,,,,,,,,,,,,,,,,,,,,,LDT,left,0.5837186791468412,1,,,left,1,0.5837186791468412,,,,,,,,,,,,,,,,,,,,,,1016,2019_Mar_06_1244,mf_amp_cond2,3.0.4,60.00300210088386,
ning,&&&&,right,nonword,,,,,,,,0,6,6,63,,,,,,,,,,,,,,,,,,,,,LDT,left,0.7504491693107411,0,,,left,0,0.7504491693107411,,,,,,,,,,,,,,,,,,,,,,1016,2019_Mar_06_1244,mf_amp_cond2,3.0.4,60.00300210088386,
racist,&&&&&&,left,sanctity.vice,,,,,,,,0,7,7,30,,,,,,,,,,,,,,,,,,,,,LDT,left,0.667069171089679,1,,,left,1,0.667069171089679,,,,,,,,,,,,,,,,,,,,,,1016,2019_Mar_06_1244,mf_amp_cond2,3.0.4,60.00300210088386,
myself,&&&&&&,left,neutral,,,,,,,,0,8,8,167,,,,,,,,,,,,,,,,,,,,,LDT,left,0.48370899353176355,1,,,left,1,0.48370899353176355,,,,,,,,,,,,,,,,,,,,,,1016,2019_Mar_06_1244,mf_amp_cond2,3.0.4,60.00300210088386,
frocessing,&&&&&&&&&&,right,nonword,,,,,,,,0,9,9,130,,,,,,,,,,,,,,,,,,,,,LDT,left,0.5337196092586964,0,,,left,0,0.5337196092586964,,,,,,,,,,,,,,,,,,,,,,1016,2019_Mar_06_1244,mf_amp_cond2,3.0.4,60.00300210088386,
elduringly,&&&&&&&&&&,right,nonword,,,,,,,,0,10,10,87,,,,,,,,,,,,,,,,,,,,,LDT,left,0.4337185830809176,0,,,left,0,0.4337185830809176,,,,,,,,,,,,,,,,,,,,,,1016,2019_Mar_06_1244,mf_amp_cond2,3.0.4,60.00300210088386,
fonderland,&&&&&&&&&&,right,nonword,,,,,,,,0,11,11,71,,,,,,,,,,,,,,,,,,,,,LDT,left,0.3837015527533367,0,,,left,0,0.3837015527533367,,,,,,,,,,,,,,,,,,,,,,1016,2019_Mar_06_1244,mf_amp_cond2,3.0.4,60.00300210088386,
mostly,&&&&&&,left,neutral,,,,,,,,0,12,12,65,,,,,,,,,,,,,,,,,,,,,LDT,left,0.600509689305909,1,,,left,1,0.600509689305909,,,,,,,,,,,,,,,,,,,,,,1016,2019_Mar_06_1244,mf_amp_cond2,3.0.4,60.00300210088386,
promises,&&&&&&&&,left,fairness.virtue,,,,,,,,0,13,13,11,,,,,,,,,,,,,,,,,,,,,LDT,left,0.43369484960567206,1,,,left,1,0.43369484960567206,,,,,,,,,,,,,,,,,,,,,,1016,2019_Mar_06_1244,mf_amp_cond2,3.0.4,60.00300210088386,
couldnt,&&&&&&&,left,neutral,,,,,,,,0,14,14,123,,,,,,,,,,,,,,,,,,,,,LDT,left,0.4003780655330047,1,,,left,1,0.4003780655330047,,,,,,,,,,,,,,,,,,,,,,1016,2019_Mar_06_1244,mf_amp_cond2,3.0.4,60.00300210088386,
nuckheap,&&&&&&&&,right,nonword,,,,,,,,0,15,15,75,,,,,,,,,,,,,,,,,,,,,LDT,left,1.1838861595606431,0,,,left,0,1.1838861595606431,,,,,,,,,,,,,,,,,,,,,,1016,2019_Mar_06_1244,mf_amp_cond2,3.0.4,60.00300210088386,
about,&&&&&,left,neutral,,,,,,,,0,16,16,124,,,,,,,,,,,,,,,,,,,,,LDT,right,0.8671324813039973,0,,,right,0,0.8671324813039973,,,,,,,,,,,,,,,,,,,,,,1016,2019_Mar_06_1244,mf_amp_cond2,3.0.4,60.00300210088386,
anything,&&&&&&&&,left,neutral,,,,,,,,0,17,17,21,,,,,,,,,,,,,,,,,,,,,LDT,right,1.2005434291204438,0,,,right,0,1.2005434291204438,,,,,,,,,,,,,,,,,,,,,,1016,2019_Mar_06_1244,mf_amp_cond2,3.0.4,60.00300210088386,
love,&&&&,left,loyalty.virtue,,,,,,,,0,18,18,178,,,,,,,,,,,,,,,,,,,,,LDT,left,1.21723437437322,1,,,left,1,1.21723437437322,,,,,,,,,,,,,,,,,,,,,,1016,2019_Mar_06_1244,mf_amp_cond2,3.0.4,60.00300210088386,
forepo,&&&&&&,right,nonword,,,,,,,,0,19,19,62,,,,,,,,,,,,,,,,,,,,,LDT,right,0.7670961758121848,1,,,right,1,0.7670961758121848,,,,,,,,,,,,,,,,,,,,,,1016,2019_Mar_06_1244,mf_amp_cond2,3.0.4,60.00300210088386,
charges,&&&&&&&,left,fairness.vice,,,,,,,,0,20,20,76,,,,,,,,,,,,,,,,,,,,,LDT,left,1.5839829529868439,1,,,left,1,1.5839829529868439,,,,,,,,,,,,,,,,,,,,,,1016,2019_Mar_06_1244,mf_amp_cond2,3.0.4,60.00300210088386,
wonderfujnoss,&&&&&&&&&&&&&,right,nonword,,,,,,,,0,21,21,37,,,,,,,,,,,,,,,,,,,,,LDT,right,1.2505662323674187,1,,,right,1,1.2505662323674187,,,,,,,,,,,,,,,,,,,,,,1016,2019_Mar_06_1244,mf_amp_cond2,3.0.4,60.00300210088386,
hence,&&&&&,left,neutral,,,,,,,,0,22,22,161,,,,,,,,,,,,,,,,,,,,,LDT,left,1.0338424453511834,1,,,left,1,1.0338424453511834,,,,,,,,,,,,,,,,,,,,,,1016,2019_Mar_06_1244,mf_amp_cond2,3.0.4,60.00300210088386,
values,&&&&&&,left,sanctity.virtue,,,,,,,,0,23,23,95,,,,,,,,,,,,,,,,,,,,,LDT,right,1.2338772114599124,0,,,right,0,1.2338772114599124,,,,,,,,,,,,,,,,,,,,,,1016,2019_Mar_06_1244,mf_amp_cond2,3.0.4,60.00300210088386,
prones,&&&&&&,right,nonword,,,,,,,,0,24,24,57,,,,,,,,,,,,,,,,,,,,,LDT,left,2.417526037665084,0,,,left,0,2.417526037665084,,,,,,,,,,,,,,,,,,,,,,1016,2019_Mar_06_1244,mf_amp_cond2,3.0.4,60.00300210088386,
lies,&&&&,left,fairness.vice,,,,,,,,0,25,25,122,,,,,,,,,,,,,,,,,,,,,LDT,left,0.5337186472024769,1,,,left,1,0.5337186472024769,,,,,,,,,,,,,,,,,,,,,,1016,2019_Mar_06_1244,mf_amp_cond2,3.0.4,60.00300210088386,
give,&&&&,left,neutral,,,,,,,,0,26,26,107,,,,,,,,,,,,,,,,,,,,,LDT,right,0.7337572618853301,0,,,right,0,0.7337572618853301,,,,,,,,,,,,,,,,,,,,,,1016,2019_Mar_06_1244,mf_amp_cond2,3.0.4,60.00300210088386,
lursuer,&&&&&&&,right,nonword,,,,,,,,0,27,27,140,,,,,,,,,,,,,,,,,,,,,LDT,right,0.7504385855281726,1,,,right,1,0.7504385855281726,,,,,,,,,,,,,,,,,,,,,,1016,2019_Mar_06_1244,mf_amp_cond2,3.0.4,60.00300210088386,
Phintoism,&&&&&&&&&,right,nonword,,,,,,,,0,28,28,74,,,,,,,,,,,,,,,,,,,,,LDT,right,1.0336872164625674,1,,,right,1,1.0336872164625674,,,,,,,,,,,,,,,,,,,,,,1016,2019_Mar_06_1244,mf_amp_cond2,3.0.4,60.00300210088386,
sickyay,&&&&&&&,right,nonword,,,,,,,,0,29,29,183,,,,,,,,,,,,,,,,,,,,,LDT,left,1.36726141104009,0,,,left,0,1.36726141104009,,,,,,,,,,,,,,,,,,,,,,1016,2019_Mar_06_1244,mf_amp_cond2,3.0.4,60.00300210088386,
unscothed,&&&&&&&&&,right,nonword,,,,,,,,0,30,30,60,,,,,,,,,,,,,,,,,,,,,LDT,right,0.8504421774996445,1,,,right,1,0.8504421774996445,,,,,,,,,,,,,,,,,,,,,,1016,2019_Mar_06_1244,mf_amp_cond2,3.0.4,60.00300210088386,
oam,&&&,right,nonword,,,,,,,,0,31,31,94,,,,,,,,,,,,,,,,,,,,,LDT,left,0.7837659534998238,0,,,left,0,0.7837659534998238,,,,,,,,,,,,,,,,,,,,,,1016,2019_Mar_06_1244,mf_amp_cond2,3.0.4,60.00300210088386,
forty,&&&&&,left,neutral,,,,,,,,0,32,32,175,,,,,,,,,,,,,,,,,,,,,LDT,right,0.48370514484122396,0,,,right,0,0.48370514484122396,,,,,,,,,,,,,,,,,,,,,,1016,2019_Mar_06_1244,mf_amp_cond2,3.0.4,60.00300210088386,
sidearbs,&&&&&&&&,right,nonword,,,,,,,,0,33,33,18,,,,,,,,,,,,,,,,,,,,,LDT,left,1.8340392395621166,0,,,left,0,1.8340392395621166,,,,,,,,,,,,,,,,,,,,,,1016,2019_Mar_06_1244,mf_amp_cond2,3.0.4,60.00300210088386,
halaise,&&&&&&&,None,nonword,,,,,,,,0,34,34,117,,,,,,,,,,,,,,,,,,,,,LDT,right,0.8171401466242969,0,,,right,0,0.8171401466242969,,,,,,,,,,,,,,,,,,,,,,1016,2019_Mar_06_1244,mf_amp_cond2,3.0.4,60.00300210088386,
fighters,&&&&&&&&,left,authority.vice,,,,,,,,0,35,35,53,,,,,,,,,,,,,,,,,,,,,LDT,left,0.6336911292746663,1,,,left,1,0.6336911292746663,,,,,,,,,,,,,,,,,,,,,,1016,2019_Mar_06_1244,mf_amp_cond2,3.0.4,60.00300210088386,
riot,&&&&,left,authority.vice,,,,,,,,0,36,36,186,,,,,,,,,,,,,,,,,,,,,LDT,right,0.850459817214869,0,,,right,0,0.850459817214869,,,,,,,,,,,,,,,,,,,,,,1016,2019_Mar_06_1244,mf_amp_cond2,3.0.4,60.00300210088386,
honored,&&&&&&&,left,authority.virtue,,,,,,,,0,37,37,163,,,,,,,,,,,,,,,,,,,,,LDT,left,0.5837343945167959,1,,,left,1,0.5837343945167959,,,,,,,,,,,,,,,,,,,,,,1016,2019_Mar_06_1244,mf_amp_cond2,3.0.4,60.00300210088386,
integrity,&&&&&&&&&,left,fairness.virtue,,,,,,,,0,38,38,176,,,,,,,,,,,,,,,,,,,,,LDT,right,0.4504015101119876,0,,,right,0,0.4504015101119876,,,,,,,,,,,,,,,,,,,,,,1016,2019_Mar_06_1244,mf_amp_cond2,3.0.4,60.00300210088386,
ammessment,&&&&&&&&&&,right,nonword,,,,,,,,0,39,39,135,,,,,,,,,,,,,,,,,,,,,LDT,left,0.9336582875112072,0,,,left,0,0.9336582875112072,,,,,,,,,,,,,,,,,,,,,,1016,2019_Mar_06_1244,mf_amp_cond2,3.0.4,60.00300210088386,
uller,&&&&&,right,nonword,,,,,,,,0,40,40,36,,,,,,,,,,,,,,,,,,,,,LDT,right,0.5503903492353857,1,,,right,1,0.5503903492353857,,,,,,,,,,,,,,,,,,,,,,1016,2019_Mar_06_1244,mf_amp_cond2,3.0.4,60.00300210088386,
further,&&&&&&&,left,neutral,,,,,,,,0,41,41,125,,,,,,,,,,,,,,,,,,,,,LDT,right,0.8504566099727526,0,,,right,0,0.8504566099727526,,,,,,,,,,,,,,,,,,,,,,1016,2019_Mar_06_1244,mf_amp_cond2,3.0.4,60.00300210088386,
useful,&&&&&&,left,authority.virtue,,,,,,,,0,42,42,191,,,,,,,,,,,,,,,,,,,,,LDT,left,0.5837305459426716,1,,,left,1,0.5837305459426716,,,,,,,,,,,,,,,,,,,,,,1016,2019_Mar_06_1244,mf_amp_cond2,3.0.4,60.00300210088386,
viscs,&&&&&,None,nonword,,,,,,,,0,43,43,34,,,,,,,,,,,,,,,,,,,,,LDT,left,1.500627008965239,0,,,left,0,1.500627008965239,,,,,,,,,,,,,,,,,,,,,,1016,2019_Mar_06_1244,mf_amp_cond2,3.0.4,60.00300210088386,
edancipation,&&&&&&&&&&&&,None,nonword,,,,,,,,0,44,44,20,,,,,,,,,,,,,,,,,,,,,LDT,left,0.9671633346006274,0,,,left,0,0.9671633346006274,,,,,,,,,,,,,,,,,,,,,,1016,2019_Mar_06_1244,mf_amp_cond2,3.0.4,60.00300210088386,
everything,&&&&&&&&&&,left,neutral,,,,,,,,0,45,45,171,,,,,,,,,,,,,,,,,,,,,LDT,right,0.5503913112916052,0,,,right,0,0.5503913112916052,,,,,,,,,,,,,,,,,,,,,,1016,2019_Mar_06_1244,mf_amp_cond2,3.0.4,60.00300210088386,
Daptist,&&&&&&&,right,nonword,,,,,,,,0,46,46,168,,,,,,,,,,,,,,,,,,,,,LDT,right,0.9671662212349474,1,,,right,1,0.9671662212349474,,,,,,,,,,,,,,,,,,,,,,1016,2019_Mar_06_1244,mf_amp_cond2,3.0.4,60.00300210088386,
hereby,&&&&&&,left,neutral,,,,,,,,0,47,47,157,,,,,,,,,,,,,,,,,,,,,LDT,left,1.4673217707313597,1,,,left,1,1.4673217707313597,,,,,,,,,,,,,,,,,,,,,,1016,2019_Mar_06_1244,mf_amp_cond2,3.0.4,60.00300210088386,
energy,&&&&&&,left,sanctity.virtue,,,,,,,,0,48,48,188,,,,,,,,,,,,,,,,,,,,,LDT,right,0.8004562571877614,0,,,right,0,0.8004562571877614,,,,,,,,,,,,,,,,,,,,,,1016,2019_Mar_06_1244,mf_amp_cond2,3.0.4,60.00300210088386,
although,&&&&&&&&,left,neutral,,,,,,,,0,49,49,139,,,,,,,,,,,,,,,,,,,,,LDT,left,0.9504675787175074,1,,,left,1,0.9504675787175074,,,,,,,,,,,,,,,,,,,,,,1016,2019_Mar_06_1244,mf_amp_cond2,3.0.4,60.00300210088386,
torture,&&&&&&&,left,care.vice,,,,,,,,0,50,50,26,,,,,,,,,,,,,,,,,,,,,LDT,right,0.7337761844974011,0,,,right,0,0.7337761844974011,,,,,,,,,,,,,,,,,,,,,,1016,2019_Mar_06_1244,mf_amp_cond2,3.0.4,60.00300210088386,
agreement,&&&&&&&&&,left,fairness.virtue,,,,,,,,0,51,51,23,,,,,,,,,,,,,,,,,,,,,LDT,right,0.6504151087719947,0,,,right,0,0.6504151087719947,,,,,,,,,,,,,,,,,,,,,,1016,2019_Mar_06_1244,mf_amp_cond2,3.0.4,60.00300210088386,
eight,&&&&&,left,neutral,,,,,,,,0,52,52,108,,,,,,,,,,,,,,,,,,,,,LDT,right,0.8671263876603916,0,,,right,0,0.8671263876603916,,,,,,,,,,,,,,,,,,,,,,1016,2019_Mar_06_1244,mf_amp_cond2,3.0.4,60.00300210088386,
esquisiteness,&&&&&&&&&&&&&,right,nonword,,,,,,,,0,53,53,170,,,,,,,,,,,,,,,,,,,,,LDT,left,2.1341093491064385,0,,,left,0,2.1341093491064385,,,,,,,,,,,,,,,,,,,,,,1016,2019_Mar_06_1244,mf_amp_cond2,3.0.4,60.00300210088386,
benefit,&&&&&&&,left,fairness.virtue,,,,,,,,0,54,54,13,,,,,,,,,,,,,,,,,,,,,LDT,right,0.717088446370326,0,,,right,0,0.717088446370326,,,,,,,,,,,,,,,,,,,,,,1016,2019_Mar_06_1244,mf_amp_cond2,3.0.4,60.00300210088386,
divility,&&&&&&&&,right,nonword,,,,,,,,0,55,55,56,,,,,,,,,,,,,,,,,,,,,LDT,right,0.7337579033337533,1,,,right,1,0.7337579033337533,,,,,,,,,,,,,,,,,,,,,,1016,2019_Mar_06_1244,mf_amp_cond2,3.0.4,60.00300210088386,
men,&&&,left,loyalty.vice,,,,,,,,0,56,56,156,,,,,,,,,,,,,,,,,,,,,LDT,right,0.6170691390288994,0,,,right,0,0.6170691390288994,,,,,,,,,,,,,,,,,,,,,,1016,2019_Mar_06_1244,mf_amp_cond2,3.0.4,60.00300210088386,
neutralust,&&&&&&&&&&,right,nonword,,,,,,,,0,57,57,116,,,,,,,,,,,,,,,,,,,,,LDT,right,0.7671019487315789,1,,,right,1,0.7671019487315789,,,,,,,,,,,,,,,,,,,,,,1016,2019_Mar_06_1244,mf_amp_cond2,3.0.4,60.00300210088386,
whither,&&&&&&&,left,neutral,,,,,,,,0,58,58,177,,,,,,,,,,,,,,,,,,,,,LDT,right,0.8005582463229075,0,,,right,0,0.8005582463229075,,,,,,,,,,,,,,,,,,,,,,1016,2019_Mar_06_1244,mf_amp_cond2,3.0.4,60.00300210088386,
help,&&&&,left,care.virtue,,,,,,,,0,59,59,128,,,,,,,,,,,,,,,,,,,,,LDT,right,0.8504835505736992,0,,,right,0,0.8504835505736992,,,,,,,,,,,,,,,,,,,,,,1016,2019_Mar_06_1244,mf_amp_cond2,3.0.4,60.00300210088386,
smapper,&&&&&&&,right,nonword,,,,,,,,0,60,60,92,,,,,,,,,,,,,,,,,,,,,LDT,right,0.5670681447954848,1,,,right,1,0.5670681447954848,,,,,,,,,,,,,,,,,,,,,,1016,2019_Mar_06_1244,mf_amp_cond2,3.0.4,60.00300210088386,
nackers,&&&&&&&,right,nonword,,,,,,,,0,61,61,83,,,,,,,,,,,,,,,,,,,,,LDT,right,0.4503739281790331,1,,,right,1,0.4503739281790331,,,,,,,,,,,,,,,,,,,,,,1016,2019_Mar_06_1244,mf_amp_cond2,3.0.4,60.00300210088386,
framatic,&&&&&&&&,right,nonword,,,,,,,,0,62,62,77,,,,,,,,,,,,,,,,,,,,,LDT,right,0.8004488806473091,1,,,right,1,0.8004488806473091,,,,,,,,,,,,,,,,,,,,,,1016,2019_Mar_06_1244,mf_amp_cond2,3.0.4,60.00300210088386,
scock,&&&&&,right,nonword,,,,,,,,0,63,63,198,,,,,,,,,,,,,,,,,,,,,LDT,left,0.9172011476475745,0,,,left,0,0.9172011476475745,,,,,,,,,,,,,,,,,,,,,,1016,2019_Mar_06_1244,mf_amp_cond2,3.0.4,60.00300210088386,
health,&&&&&&,left,care.virtue,,,,,,,,0,64,64,41,,,,,,,,,,,,,,,,,,,,,LDT,right,0.6837492118356749,0,,,right,0,0.6837492118356749,,,,,,,,,,,,,,,,,,,,,,1016,2019_Mar_06_1244,mf_amp_cond2,3.0.4,60.00300210088386,
therefore,&&&&&&&&&,left,neutral,,,,,,,,0,65,65,32,,,,,,,,,,,,,,,,,,,,,LDT,left,0.6004028893075883,1,,,left,1,0.6004028893075883,,,,,,,,,,,,,,,,,,,,,,1016,2019_Mar_06_1244,mf_amp_cond2,3.0.4,60.00300210088386,
festate,&&&&&&&,right,nonword,,,,,,,,0,66,66,115,,,,,,,,,,,,,,,,,,,,,LDT,right,0.48371284210588783,1,,,right,1,0.48371284210588783,,,,,,,,,,,,,,,,,,,,,,1016,2019_Mar_06_1244,mf_amp_cond2,3.0.4,60.00300210088386,
tislay,&&&&&&,right,nonword,,,,,,,,0,67,67,164,,,,,,,,,,,,,,,,,,,,,LDT,right,0.4837205393705517,1,,,right,1,0.4837205393705517,,,,,,,,,,,,,,,,,,,,,,1016,2019_Mar_06_1244,mf_amp_cond2,3.0.4,60.00300210088386,
focomotive,&&&&&&&&&&,right,nonword,,,,,,,,0,68,68,17,,,,,,,,,,,,,,,,,,,,,LDT,right,0.43369773612357676,1,,,right,1,0.43369773612357676,,,,,,,,,,,,,,,,,,,,,,1016,2019_Mar_06_1244,mf_amp_cond2,3.0.4,60.00300210088386,
strofe,&&&&&&,right,nonword,,,,,,,,0,69,69,12,,,,,,,,,,,,,,,,,,,,,LDT,right,0.5170491902390495,1,,,right,1,0.5170491902390495,,,,,,,,,,,,,,,,,,,,,,1016,2019_Mar_06_1244,mf_amp_cond2,3.0.4,60.00300210088386,
papert,&&&&&&,right,nonword,,,,,,,,0,70,70,90,,,,,,,,,,,,,,,,,,,,,LDT,right,0.6170771570177749,1,,,right,1,0.6170771570177749,,,,,,,,,,,,,,,,,,,,,,1016,2019_Mar_06_1244,mf_amp_cond2,3.0.4,60.00300210088386,
rejected,&&&&&&&&,left,authority.vice,,,,,,,,0,71,71,59,,,,,,,,,,,,,,,,,,,,,LDT,right,0.6504292205208912,0,,,right,0,0.6504292205208912,,,,,,,,,,,,,,,,,,,,,,1016,2019_Mar_06_1244,mf_amp_cond2,3.0.4,60.00300210088386,
saned,&&&&&,None,nonword,,,,,,,,0,72,72,52,,,,,,,,,,,,,,,,,,,,,LDT,right,0.6837569091003388,0,,,right,0,0.6837569091003388,,,,,,,,,,,,,,,,,,,,,,1016,2019_Mar_06_1244,mf_amp_cond2,3.0.4,60.00300210088386,
fostet,&&&&&&,right,nonword,,,,,,,,0,73,73,106,,,,,,,,,,,,,,,,,,,,,LDT,left,0.5003717152867466,0,,,left,0,0.5003717152867466,,,,,,,,,,,,,,,,,,,,,,1016,2019_Mar_06_1244,mf_amp_cond2,3.0.4,60.00300210088386,
gationwide,&&&&&&&&&&,right,nonword,,,,,,,,0,74,74,147,,,,,,,,,,,,,,,,,,,,,LDT,right,0.41701384680345654,1,,,right,1,0.41701384680345654,,,,,,,,,,,,,,,,,,,,,,1016,2019_Mar_06_1244,mf_amp_cond2,3.0.4,60.00300210088386,
anyhow,&&&&&&,left,neutral,,,,,,,,0,75,75,193,,,,,,,,,,,,,,,,,,,,,LDT,left,0.8671770615037531,1,,,left,1,0.8671770615037531,,,,,,,,,,,,,,,,,,,,,,1016,2019_Mar_06_1244,mf_amp_cond2,3.0.4,60.00300210088386,
wherever,&&&&&&&&,left,neutral,,,,,,,,0,76,76,73,,,,,,,,,,,,,,,,,,,,,LDT,right,1.6006386190420017,0,,,right,0,1.6006386190420017,,,,,,,,,,,,,,,,,,,,,,1016,2019_Mar_06_1244,mf_amp_cond2,3.0.4,60.00300210088386,
penalty,&&&&&&&,left,authority.vice,,,,,,,,0,77,77,38,,,,,,,,,,,,,,,,,,,,,LDT,right,0.4835547268157825,0,,,right,0,0.4835547268157825,,,,,,,,,,,,,,,,,,,,,,1016,2019_Mar_06_1244,mf_amp_cond2,3.0.4,60.00300210088386,
both,&&&&,left,neutral,,,,,,,,0,78,78,14,,,,,,,,,,,,,,,,,,,,,LDT,right,0.6337398788891733,0,,,right,0,0.6337398788891733,,,,,,,,,,,,,,,,,,,,,,1016,2019_Mar_06_1244,mf_amp_cond2,3.0.4,60.00300210088386,
death,&&&&&,left,care.vice,,,,,,,,0,79,79,54,,,,,,,,,,,,,,,,,,,,,LDT,right,0.5670431286562234,0,,,right,0,0.5670431286562234,,,,,,,,,,,,,,,,,,,,,,1016,2019_Mar_06_1244,mf_amp_cond2,3.0.4,60.00300210088386,
noone,&&&&&,left,neutral,,,,,,,,0,80,80,55,,,,,,,,,,,,,,,,,,,,,LDT,right,0.5337471913080662,0,,,right,0,0.5337471913080662,,,,,,,,,,,,,,,,,,,,,,1016,2019_Mar_06_1244,mf_amp_cond2,3.0.4,60.00300210088386,
erks,&&&&,right,nonword,,,,,,,,0,81,81,43,,,,,,,,,,,,,,,,,,,,,LDT,right,0.5837218863889575,1,,,right,1,0.5837218863889575,,,,,,,,,,,,,,,,,,,,,,1016,2019_Mar_06_1244,mf_amp_cond2,3.0.4,60.00300210088386,
scandal,&&&&&&&,left,sanctity.vice,,,,,,,,0,82,82,93,,,,,,,,,,,,,,,,,,,,,LDT,right,0.6003717794083059,0,,,right,0,0.6003717794083059,,,,,,,,,,,,,,,,,,,,,,1016,2019_Mar_06_1244,mf_amp_cond2,3.0.4,60.00300210088386,
done,&&&&,left,neutral,,,,,,,,0,83,83,72,,,,,,,,,,,,,,,,,,,,,LDT,left,0.5337125535588712,1,,,left,1,0.5337125535588712,,,,,,,,,,,,,,,,,,,,,,1016,2019_Mar_06_1244,mf_amp_cond2,3.0.4,60.00300210088386,
latterly,&&&&&&&&,left,neutral,,,,,,,,0,84,84,144,,,,,,,,,,,,,,,,,,,,,LDT,right,0.3670086831552908,0,,,right,0,0.3670086831552908,,,,,,,,,,,,,,,,,,,,,,1016,2019_Mar_06_1244,mf_amp_cond2,3.0.4,60.00300210088386,
infet,&&&&&,right,nonword,,,,,,,,0,85,85,5,,,,,,,,,,,,,,,,,,,,,LDT,right,0.5337154399603605,1,,,right,1,0.5337154399603605,,,,,,,,,,,,,,,,,,,,,,1016,2019_Mar_06_1244,mf_amp_cond2,3.0.4,60.00300210088386,
chonograph,&&&&&&&&&&,right,nonword,,,,,,,,0,86,86,86,,,,,,,,,,,,,,,,,,,,,LDT,right,0.533642636379227,1,,,right,1,0.533642636379227,,,,,,,,,,,,,,,,,,,,,,1016,2019_Mar_06_1244,mf_amp_cond2,3.0.4,60.00300210088386,
chreams,&&&&&&&,right,nonword,,,,,,,,0,87,87,51,,,,,,,,,,,,,,,,,,,,,LDT,left,0.4836968061281368,0,,,left,0,0.4836968061281368,,,,,,,,,,,,,,,,,,,,,,1016,2019_Mar_06_1244,mf_amp_cond2,3.0.4,60.00300210088386,
besides,&&&&&&&,left,neutral,,,,,,,,0,88,88,153,,,,,,,,,,,,,,,,,,,,,LDT,right,0.6505562259117141,0,,,right,0,0.6505562259117141,,,,,,,,,,,,,,,,,,,,,,1016,2019_Mar_06_1244,mf_amp_cond2,3.0.4,60.00300210088386,
either,&&&&&&,left,neutral,,,,,,,,0,89,89,91,,,,,,,,,,,,,,,,,,,,,LDT,right,0.9504900290630758,0,,,right,0,0.9504900290630758,,,,,,,,,,,,,,,,,,,,,,1016,2019_Mar_06_1244,mf_amp_cond2,3.0.4,60.00300210088386,
bycled,&&&&&&,None,nonword,,,,,,,,0,90,90,4,,,,,,,,,,,,,,,,,,,,,LDT,left,0.7337495646206662,0,,,left,0,0.7337495646206662,,,,,,,,,,,,,,,,,,,,,,1016,2019_Mar_06_1244,mf_amp_cond2,3.0.4,60.00300210088386,
crilfully,&&&&&&&&&,right,nonword,,,,,,,,0,91,91,162,,,,,,,,,,,,,,,,,,,,,LDT,right,0.4337089613545686,1,,,right,1,0.4337089613545686,,,,,,,,,,,,,,,,,,,,,,1016,2019_Mar_06_1244,mf_amp_cond2,3.0.4,60.00300210088386,
fraud,&&&&&,left,fairness.vice,,,,,,,,0,92,92,69,,,,,,,,,,,,,,,,,,,,,LDT,right,0.6004035307560116,0,,,right,0,0.6004035307560116,,,,,,,,,,,,,,,,,,,,,,1016,2019_Mar_06_1244,mf_amp_cond2,3.0.4,60.00300210088386,
glacenta,&&&&&&&&,right,nonword,,,,,,,,0,93,93,39,,,,,,,,,,,,,,,,,,,,,LDT,right,0.7837550488766283,1,,,right,1,0.7837550488766283,,,,,,,,,,,,,,,,,,,,,,1016,2019_Mar_06_1244,mf_amp_cond2,3.0.4,60.00300210088386,
else,&&&&,left,neutral,,,,,,,,0,94,94,129,,,,,,,,,,,,,,,,,,,,,LDT,left,1.3339228179538622,1,,,left,1,1.3339228179538622,,,,,,,,,,,,,,,,,,,,,,1016,2019_Mar_06_1244,mf_amp_cond2,3.0.4,60.00300210088386,
ittutable,&&&&&&&&&,right,nonword,,,,,,,,0,95,95,49,,,,,,,,,,,,,,,,,,,,,LDT,right,0.48371380427852273,1,,,right,1,0.48371380427852273,,,,,,,,,,,,,,,,,,,,,,1016,2019_Mar_06_1244,mf_amp_cond2,3.0.4,60.00300210088386,
metibolic,&&&&&&&&&,right,nonword,,,,,,,,0,96,96,98,,,,,,,,,,,,,,,,,,,,,LDT,right,0.533714157063514,1,,,right,1,0.533714157063514,,,,,,,,,,,,,,,,,,,,,,1016,2019_Mar_06_1244,mf_amp_cond2,3.0.4,60.00300210088386,
pulge,&&&&&,right,nonword,,,,,,,,0,97,97,88,,,,,,,,,,,,,,,,,,,,,LDT,right,0.6337921563535929,1,,,right,1,0.6337921563535929,,,,,,,,,,,,,,,,,,,,,,1016,2019_Mar_06_1244,mf_amp_cond2,3.0.4,60.00300210088386,
whereafter,&&&&&&&&&&,left,neutral,,,,,,,,0,98,98,47,,,,,,,,,,,,,,,,,,,,,LDT,left,0.7170666374731809,1,,,left,1,0.7170666374731809,,,,,,,,,,,,,,,,,,,,,,1016,2019_Mar_06_1244,mf_amp_cond2,3.0.4,60.00300210088386,
laming,&&&&&&,right,nonword,,,,,,,,0,99,99,16,,,,,,,,,,,,,,,,,,,,,LDT,right,0.4837028997717425,1,,,right,1,0.4837028997717425,,,,,,,,,,,,,,,,,,,,,,1016,2019_Mar_06_1244,mf_amp_cond2,3.0.4,60.00300210088386,
seem,&&&&,left,neutral,,,,,,,,0,100,100,137,,,,,,,,,,,,,,,,,,,,,LDT,left,0.41702667565550655,1,,,left,1,0.41702667565550655,,,,,,,,,,,,,,,,,,,,,,1016,2019_Mar_06_1244,mf_amp_cond2,3.0.4,60.00300210088386,
were,&&&&,left,neutral,,,,,,,,0,101,101,44,,,,,,,,,,,,,,,,,,,,,LDT,right,0.5003694702172652,0,,,right,0,0.5003694702172652,,,,,,,,,,,,,,,,,,,,,,1016,2019_Mar_06_1244,mf_amp_cond2,3.0.4,60.00300210088386,
civilians,&&&&&&&&&,left,care.vice,,,,,,,,0,102,102,119,,,,,,,,,,,,,,,,,,,,,LDT,right,0.4670404987409711,0,,,right,0,0.4670404987409711,,,,,,,,,,,,,,,,,,,,,,1016,2019_Mar_06_1244,mf_amp_cond2,3.0.4,60.00300210088386,
pafer,&&&&&,right,nonword,,,,,,,,0,103,103,68,,,,,,,,,,,,,,,,,,,,,LDT,right,0.48369712685234845,1,,,right,1,0.48369712685234845,,,,,,,,,,,,,,,,,,,,,,1016,2019_Mar_06_1244,mf_amp_cond2,3.0.4,60.00300210088386,
reprisols,&&&&&&&&&,right,nonword,,,,,,,,0,104,104,121,,,,,,,,,,,,,,,,,,,,,LDT,left,1.5006218773778528,0,,,left,0,1.5006218773778528,,,,,,,,,,,,,,,,,,,,,,1016,2019_Mar_06_1244,mf_amp_cond2,3.0.4,60.00300210088386,
least,&&&&&,left,neutral,,,,,,,,0,105,105,118,,,,,,,,,,,,,,,,,,,,,LDT,right,0.5003672252641991,0,,,right,0,0.5003672252641991,,,,,,,,,,,,,,,,,,,,,,1016,2019_Mar_06_1244,mf_amp_cond2,3.0.4,60.00300210088386,
strong,&&&&&&,left,loyalty.virtue,,,,,,,,0,106,106,166,,,,,,,,,,,,,,,,,,,,,LDT,right,0.850617611897178,0,,,right,0,0.850617611897178,,,,,,,,,,,,,,,,,,,,,,1016,2019_Mar_06_1244,mf_amp_cond2,3.0.4,60.00300210088386,
iptervention,&&&&&&&&&&&&,right,nonword,,,,,,,,0,107,107,29,,,,,,,,,,,,,,,,,,,,,LDT,left,0.8004607473267242,0,,,left,0,0.8004607473267242,,,,,,,,,,,,,,,,,,,,,,1016,2019_Mar_06_1244,mf_amp_cond2,3.0.4,60.00300210088386,
could,&&&&&,left,neutral,,,,,,,,0,108,108,169,,,,,,,,,,,,,,,,,,,,,LDT,right,0.6170569516252726,0,,,right,0,0.6170569516252726,,,,,,,,,,,,,,,,,,,,,,1016,2019_Mar_06_1244,mf_amp_cond2,3.0.4,60.00300210088386,
godlaness,&&&&&&&&&,right,nonword,,,,,,,,0,109,109,96,,,,,,,,,,,,,,,,,,,,,LDT,left,0.8337845872156322,0,,,left,0,0.8337845872156322,,,,,,,,,,,,,,,,,,,,,,1016,2019_Mar_06_1244,mf_amp_cond2,3.0.4,60.00300210088386,
carvels,&&&&&&&,None,nonword,,,,,,,,0,110,110,112,,,,,,,,,,,,,,,,,,,,,LDT,left,0.6504022799199447,0,,,left,0,0.6504022799199447,,,,,,,,,,,,,,,,,,,,,,1016,2019_Mar_06_1244,mf_amp_cond2,3.0.4,60.00300210088386,
erdest,&&&&&&,right,nonword,,,,,,,,0,111,111,173,,,,,,,,,,,,,,,,,,,,,LDT,right,0.5503954807063565,1,,,right,1,0.5503954807063565,,,,,,,,,,,,,,,,,,,,,,1016,2019_Mar_06_1244,mf_amp_cond2,3.0.4,60.00300210088386,
praise,&&&&&&,left,authority.virtue,,,,,,,,0,112,112,78,,,,,,,,,,,,,,,,,,,,,LDT,right,0.7170929365092888,0,,,right,0,0.7170929365092888,,,,,,,,,,,,,,,,,,,,,,1016,2019_Mar_06_1244,mf_amp_cond2,3.0.4,60.00300210088386,
also,&&&&,left,neutral,,,,,,,,0,113,113,27,,,,,,,,,,,,,,,,,,,,,LDT,right,0.4837253501173109,0,,,right,0,0.4837253501173109,,,,,,,,,,,,,,,,,,,,,,1016,2019_Mar_06_1244,mf_amp_cond2,3.0.4,60.00300210088386,
chadows,&&&&&&&,right,nonword,,,,,,,,0,114,114,19,,,,,,,,,,,,,,,,,,,,,LDT,left,1.7840462633175775,0,,,left,0,1.7840462633175775,,,,,,,,,,,,,,,,,,,,,,1016,2019_Mar_06_1244,mf_amp_cond2,3.0.4,60.00300210088386,
good,&&&&,left,care.virtue,,,,,,,,0,115,115,31,,,,,,,,,,,,,,,,,,,,,LDT,right,0.6004070586059242,0,,,right,0,0.6004070586059242,,,,,,,,,,,,,,,,,,,,,,1016,2019_Mar_06_1244,mf_amp_cond2,3.0.4,60.00300210088386,
counpy's,&&&&&&&&,right,nonword,,,,,,,,0,116,116,120,,,,,,,,,,,,,,,,,,,,,LDT,left,0.9671440913807601,0,,,left,0,0.9671440913807601,,,,,,,,,,,,,,,,,,,,,,1016,2019_Mar_06_1244,mf_amp_cond2,3.0.4,60.00300210088386,
chressing,&&&&&&&&&,None,nonword,,,,,,,,0,117,117,99,,,,,,,,,,,,,,,,,,,,,LDT,right,0.5503990086726844,0,,,right,0,0.5503990086726844,,,,,,,,,,,,,,,,,,,,,,1016,2019_Mar_06_1244,mf_amp_cond2,3.0.4,60.00300210088386,
sliptery,&&&&&&&&,right,nonword,,,,,,,,0,118,118,194,,,,,,,,,,,,,,,,,,,,,LDT,right,1.5839723693206906,1,,,right,1,1.5839723693206906,,,,,,,,,,,,,,,,,,,,,,1016,2019_Mar_06_1244,mf_amp_cond2,3.0.4,60.00300210088386,
violence,&&&&&&&&,left,care.vice,,,,,,,,0,119,119,152,,,,,,,,,,,,,,,,,,,,,LDT,left,0.7004270075121894,1,,,left,1,0.7004270075121894,,,,,,,,,,,,,,,,,,,,,,1016,2019_Mar_06_1244,mf_amp_cond2,3.0.4,60.00300210088386,
atson,&&&&&,right,nonword,,,,,,,,0,120,120,172,,,,,,,,,,,,,,,,,,,,,LDT,left,1.1005077649606392,0,,,left,0,1.1005077649606392,,,,,,,,,,,,,,,,,,,,,,1016,2019_Mar_06_1244,mf_amp_cond2,3.0.4,60.00300210088386,
alar,&&&&,right,nonword,,,,,,,,0,121,121,40,,,,,,,,,,,,,,,,,,,,,LDT,left,0.7337745807599276,0,,,left,0,0.7337745807599276,,,,,,,,,,,,,,,,,,,,,,1016,2019_Mar_06_1244,mf_amp_cond2,3.0.4,60.00300210088386,
respect,&&&&&&&,left,sanctity.virtue,,,,,,,,0,122,122,89,,,,,,,,,,,,,,,,,,,,,LDT,right,0.5670463357819244,0,,,right,0,0.5670463357819244,,,,,,,,,,,,,,,,,,,,,,1016,2019_Mar_06_1244,mf_amp_cond2,3.0.4,60.00300210088386,
with,&&&&,left,neutral,,,,,,,,0,123,123,110,,,,,,,,,,,,,,,,,,,,,LDT,left,0.5503788031637669,1,,,left,1,0.5503788031637669,,,,,,,,,,,,,,,,,,,,,,1016,2019_Mar_06_1244,mf_amp_cond2,3.0.4,60.00300210088386,
taxpayung,&&&&&&&&&,right,nonword,,,,,,,,0,124,124,33,,,,,,,,,,,,,,,,,,,,,LDT,left,0.7837890454102308,0,,,left,0,0.7837890454102308,,,,,,,,,,,,,,,,,,,,,,1016,2019_Mar_06_1244,mf_amp_cond2,3.0.4,60.00300210088386,
itself,&&&&&&,left,neutral,,,,,,,,0,125,125,70,,,,,,,,,,,,,,,,,,,,,LDT,left,0.8004572194768116,1,,,left,1,0.8004572194768116,,,,,,,,,,,,,,,,,,,,,,1016,2019_Mar_06_1244,mf_amp_cond2,3.0.4,60.00300210088386,
less,&&&&,left,neutral,,,,,,,,0,126,126,109,,,,,,,,,,,,,,,,,,,,,LDT,left,0.6837572298245504,1,,,left,1,0.6837572298245504,,,,,,,,,,,,,,,,,,,,,,1016,2019_Mar_06_1244,mf_amp_cond2,3.0.4,60.00300210088386,
peaceful,&&&&&&&&,left,authority.virtue,,,,,,,,0,127,127,127,,,,,,,,,,,,,,,,,,,,,LDT,right,0.6504391627386212,0,,,right,0,0.6504391627386212,,,,,,,,,,,,,,,,,,,,,,1016,2019_Mar_06_1244,mf_amp_cond2,3.0.4,60.00300210088386,
elsewhere,&&&&&&&&&,left,neutral,,,,,,,,0,128,128,0,,,,,,,,,,,,,,,,,,,,,LDT,left,0.8171215447364375,1,,,left,1,0.8171215447364375,,,,,,,,,,,,,,,,,,,,,,1016,2019_Mar_06_1244,mf_amp_cond2,3.0.4,60.00300210088386,
fornicalion,&&&&&&&&&&&,right,nonword,,,,,,,,0,129,129,133,,,,,,,,,,,,,,,,,,,,,LDT,left,0.9505108760204166,0,,,left,0,0.9505108760204166,,,,,,,,,,,,,,,,,,,,,,1016,2019_Mar_06_1244,mf_amp_cond2,3.0.4,60.00300210088386,
powerful,&&&&&&&&,left,authority.virtue,,,,,,,,0,130,130,105,,,,,,,,,,,,,,,,,,,,,LDT,right,0.5837311873910949,0,,,right,0,0.5837311873910949,,,,,,,,,,,,,,,,,,,,,,1016,2019_Mar_06_1244,mf_amp_cond2,3.0.4,60.00300210088386,
interests,&&&&&&&&&,left,fairness.virtue,,,,,,,,0,131,131,8,,,,,,,,,,,,,,,,,,,,,LDT,left,0.5837353566894308,1,,,left,1,0.5837353566894308,,,,,,,,,,,,,,,,,,,,,,1016,2019_Mar_06_1244,mf_amp_cond2,3.0.4,60.00300210088386,
galamitous,&&&&&&&&&&,right,nonword,,,,,,,,0,132,132,10,,,,,,,,,,,,,,,,,,,,,LDT,left,0.7837864795001224,0,,,left,0,0.7837864795001224,,,,,,,,,,,,,,,,,,,,,,1016,2019_Mar_06_1244,mf_amp_cond2,3.0.4,60.00300210088386,
compassion,&&&&&&&&&&,left,care.virtue,,,,,,,,0,133,133,111,,,,,,,,,,,,,,,,,,,,,LDT,left,1.4339353902032599,1,,,left,1,1.4339353902032599,,,,,,,,,,,,,,,,,,,,,,1016,2019_Mar_06_1244,mf_amp_cond2,3.0.4,60.00300210088386,
slending,&&&&&&&&,right,nonword,,,,,,,,0,134,134,25,,,,,,,,,,,,,,,,,,,,,LDT,left,0.517051114467904,0,,,left,0,0.517051114467904,,,,,,,,,,,,,,,,,,,,,,1016,2019_Mar_06_1244,mf_amp_cond2,3.0.4,60.00300210088386,
refuejing,&&&&&&&&&,right,nonword,,,,,,,,0,135,135,189,,,,,,,,,,,,,,,,,,,,,LDT,left,1.3339410990010947,0,,,left,0,1.3339410990010947,,,,,,,,,,,,,,,,,,,,,,1016,2019_Mar_06_1244,mf_amp_cond2,3.0.4,60.00300210088386,
abuse,&&&&&,left,sanctity.vice,,,,,,,,0,136,136,197,,,,,,,,,,,,,,,,,,,,,LDT,left,0.7838201551930979,1,,,left,1,0.7838201551930979,,,,,,,,,,,,,,,,,,,,,,1016,2019_Mar_06_1244,mf_amp_cond2,3.0.4,60.00300210088386,
imebreaker,&&&&&&&&&&,right,nonword,,,,,,,,0,137,137,181,,,,,,,,,,,,,,,,,,,,,LDT,right,0.7337758636567742,1,,,right,1,0.7337758636567742,,,,,,,,,,,,,,,,,,,,,,1016,2019_Mar_06_1244,mf_amp_cond2,3.0.4,60.00300210088386,
idexpressible,&&&&&&&&&&&&&,right,nonword,,,,,,,,0,138,138,146,,,,,,,,,,,,,,,,,,,,,LDT,left,0.7504466035170481,0,,,left,0,0.7504466035170481,,,,,,,,,,,,,,,,,,,,,,1016,2019_Mar_06_1244,mf_amp_cond2,3.0.4,60.00300210088386,
each,&&&&,left,neutral,,,,,,,,0,139,139,165,,,,,,,,,,,,,,,,,,,,,LDT,left,0.8504543649032712,1,,,left,1,0.8504543649032712,,,,,,,,,,,,,,,,,,,,,,1016,2019_Mar_06_1244,mf_amp_cond2,3.0.4,60.00300210088386,
sonvoy,&&&&&&,None,nonword,,,,,,,,0,140,140,151,,,,,,,,,,,,,,,,,,,,,LDT,left,0.8669794976012781,0,,,left,0,0.8669794976012781,,,,,,,,,,,,,,,,,,,,,,1016,2019_Mar_06_1244,mf_amp_cond2,3.0.4,60.00300210088386,
faspberry,&&&&&&&&&,None,nonword,,,,,,,,0,141,141,61,,,,,,,,,,,,,,,,,,,,,LDT,left,0.6170316146453843,0,,,left,0,0.6170316146453843,,,,,,,,,,,,,,,,,,,,,,1016,2019_Mar_06_1244,mf_amp_cond2,3.0.4,60.00300210088386,
troops,&&&&&&,left,loyalty.vice,,,,,,,,0,142,142,196,,,,,,,,,,,,,,,,,,,,,LDT,left,0.8005059688584879,1,,,left,1,0.8005059688584879,,,,,,,,,,,,,,,,,,,,,,1016,2019_Mar_06_1244,mf_amp_cond2,3.0.4,60.00300210088386,
baklara,&&&&&&&,right,nonword,,,,,,,,0,143,143,85,,,,,,,,,,,,,,,,,,,,,LDT,left,1.0004894197918475,0,,,left,0,1.0004894197918475,,,,,,,,,,,,,,,,,,,,,,1016,2019_Mar_06_1244,mf_amp_cond2,3.0.4,60.00300210088386,
latter,&&&&&&,left,neutral,,,,,,,,0,144,144,138,,,,,,,,,,,,,,,,,,,,,LDT,right,1.067186490749009,0,,,right,0,1.067186490749009,,,,,,,,,,,,,,,,,,,,,,1016,2019_Mar_06_1244,mf_amp_cond2,3.0.4,60.00300210088386,
photocalkodes,&&&&&&&&&&&&&,right,nonword,,,,,,,,0,145,145,22,,,,,,,,,,,,,,,,,,,,,LDT,left,0.7337681663921103,0,,,left,0,0.7337681663921103,,,,,,,,,,,,,,,,,,,,,,1016,2019_Mar_06_1244,mf_amp_cond2,3.0.4,60.00300210088386,
there,&&&&&,left,neutral,,,,,,,,0,146,146,103,,,,,,,,,,,,,,,,,,,,,LDT,left,1.2339394312584773,1,,,left,1,1.2339394312584773,,,,,,,,,,,,,,,,,,,,,,1016,2019_Mar_06_1244,mf_amp_cond2,3.0.4,60.00300210088386,
Cunday,&&&&&&,None,nonword,,,,,,,,0,147,147,158,,,,,,,,,,,,,,,,,,,,,LDT,right,0.4837073899107054,0,,,right,0,0.4837073899107054,,,,,,,,,,,,,,,,,,,,,,1016,2019_Mar_06_1244,mf_amp_cond2,3.0.4,60.00300210088386,
fifty,&&&&&,left,neutral,,,,,,,,0,148,148,48,,,,,,,,,,,,,,,,,,,,,LDT,right,0.517034116317518,0,,,right,0,0.517034116317518,,,,,,,,,,,,,,,,,,,,,,1016,2019_Mar_06_1244,mf_amp_cond2,3.0.4,60.00300210088386,
sexual,&&&&&&,left,sanctity.vice,,,,,,,,0,149,149,66,,,,,,,,,,,,,,,,,,,,,LDT,right,0.7837957805022597,0,,,right,0,0.7837957805022597,,,,,,,,,,,,,,,,,,,,,,1016,2019_Mar_06_1244,mf_amp_cond2,3.0.4,60.00300210088386,
lorthwhile,&&&&&&&&&&,right,nonword,,,,,,,,0,150,150,142,,,,,,,,,,,,,,,,,,,,,LDT,left,0.5170418136985973,0,,,left,0,0.5170418136985973,,,,,,,,,,,,,,,,,,,,,,1016,2019_Mar_06_1244,mf_amp_cond2,3.0.4,60.00300210088386,
towards,&&&&&&&,left,neutral,,,,,,,,0,151,151,15,,,,,,,,,,,,,,,,,,,,,LDT,left,0.5670800114749,1,,,left,1,0.5670800114749,,,,,,,,,,,,,,,,,,,,,,1016,2019_Mar_06_1244,mf_amp_cond2,3.0.4,60.00300210088386,
amoungst,&&&&&&&&,left,neutral,,,,,,,,0,152,152,159,,,,,,,,,,,,,,,,,,,,,LDT,right,0.5504086301662028,0,,,right,0,0.5504086301662028,,,,,,,,,,,,,,,,,,,,,,1016,2019_Mar_06_1244,mf_amp_cond2,3.0.4,60.00300210088386,
been,&&&&,left,neutral,,,,,,,,0,153,153,141,,,,,,,,,,,,,,,,,,,,,LDT,left,0.7004414399852976,1,,,left,1,0.7004414399852976,,,,,,,,,,,,,,,,,,,,,,1016,2019_Mar_06_1244,mf_amp_cond2,3.0.4,60.00300210088386,
dormandi,&&&&&&&&,None,nonword,,,,,,,,0,154,154,100,,,,,,,,,,,,,,,,,,,,,LDT,left,1.1172003138344735,0,,,left,0,1.1172003138344735,,,,,,,,,,,,,,,,,,,,,,1016,2019_Mar_06_1244,mf_amp_cond2,3.0.4,60.00300210088386,
bluently,&&&&&&&&,None,nonword,,,,,,,,0,155,155,58,,,,,,,,,,,,,,,,,,,,,LDT,left,1.4838077754247934,0,,,left,0,1.4838077754247934,,,,,,,,,,,,,,,,,,,,,,1016,2019_Mar_06_1244,mf_amp_cond2,3.0.4,60.00300210088386,
party,&&&&&,left,loyalty.virtue,,,,,,,,0,156,156,104,,,,,,,,,,,,,,,,,,,,,LDT,right,0.6837854532059282,0,,,right,0,0.6837854532059282,,,,,,,,,,,,,,,,,,,,,,1016,2019_Mar_06_1244,mf_amp_cond2,3.0.4,60.00300210088386,
reelectiob,&&&&&&&&&&,right,nonword,,,,,,,,0,157,157,35,,,,,,,,,,,,,,,,,,,,,LDT,left,0.8004492013715208,0,,,left,0,0.8004492013715208,,,,,,,,,,,,,,,,,,,,,,1016,2019_Mar_06_1244,mf_amp_cond2,3.0.4,60.00300210088386,
rebels,&&&&&&,left,authority.vice,,,,,,,,0,158,158,9,,,,,,,,,,,,,,,,,,,,,LDT,right,0.8838083527516574,0,,,right,0,0.8838083527516574,,,,,,,,,,,,,,,,,,,,,,1016,2019_Mar_06_1244,mf_amp_cond2,3.0.4,60.00300210088386,
epigrach,&&&&&&&&,right,nonword,,,,,,,,0,159,159,46,,,,,,,,,,,,,,,,,,,,,LDT,left,8.235667794942856,0,,,left,0,8.235667794942856,,,,,,,,,,,,,,,,,,,,,,1016,2019_Mar_06_1244,mf_amp_cond2,3.0.4,60.00300210088386,
leact,&&&&&,right,nonword,,,,,,,,0,160,160,132,,,,,,,,,,,,,,,,,,,,,LDT,left,1.5506235130596906,0,,,left,0,1.5506235130596906,,,,,,,,,,,,,,,,,,,,,,1016,2019_Mar_06_1244,mf_amp_cond2,3.0.4,60.00300210088386,
sgrawl,&&&&&&,right,nonword,,,,,,,,0,161,161,45,,,,,,,,,,,,,,,,,,,,,LDT,right,0.5003669044235721,1,,,right,1,0.5003669044235721,,,,,,,,,,,,,,,,,,,,,,1016,2019_Mar_06_1244,mf_amp_cond2,3.0.4,60.00300210088386,
bruthfulness,&&&&&&&&&&&&,right,nonword,,,,,,,,0,162,162,199,,,,,,,,,,,,,,,,,,,,,LDT,left,1.033837634488009,0,,,left,0,1.033837634488009,,,,,,,,,,,,,,,,,,,,,,1016,2019_Mar_06_1244,mf_amp_cond2,3.0.4,60.00300210088386,
wump,&&&&,right,nonword,,,,,,,,0,163,163,79,,,,,,,,,,,,,,,,,,,,,LDT,right,0.36683966335840523,1,,,right,1,0.36683966335840523,,,,,,,,,,,,,,,,,,,,,,1016,2019_Mar_06_1244,mf_amp_cond2,3.0.4,60.00300210088386,
simplustic,&&&&&&&&&&,right,nonword,,,,,,,,0,164,164,185,,,,,,,,,,,,,,,,,,,,,LDT,right,0.26697943347971886,1,,,right,1,0.26697943347971886,,,,,,,,,,,,,,,,,,,,,,1016,2019_Mar_06_1244,mf_amp_cond2,3.0.4,60.00300210088386,
amount,&&&&&&,left,neutral,,,,,,,,0,165,165,114,,,,,,,,,,,,,,,,,,,,,LDT,right,0.3836842338787392,0,,,right,0,0.3836842338787392,,,,,,,,,,,,,,,,,,,,,,1016,2019_Mar_06_1244,mf_amp_cond2,3.0.4,60.00300210088386,
commitment,&&&&&&&&&&,left,sanctity.virtue,,,,,,,,0,166,166,149,,,,,,,,,,,,,,,,,,,,,LDT,left,0.13361736352089792,1,,,left,1,0.13361736352089792,,,,,,,,,,,,,,,,,,,,,,1016,2019_Mar_06_1244,mf_amp_cond2,3.0.4,60.00300210088386,
openet,&&&&&&,None,nonword,,,,,,,,0,167,167,154,,,,,,,,,,,,,,,,,,,,,LDT,left,0.38367012212984264,0,,,left,0,0.38367012212984264,,,,,,,,,,,,,,,,,,,,,,1016,2019_Mar_06_1244,mf_amp_cond2,3.0.4,60.00300210088386,
stindig,&&&&&&&,right,nonword,,,,,,,,0,168,168,134,,,,,,,,,,,,,,,,,,,,,LDT,left,0.4503540435107425,0,,,left,0,0.4503540435107425,,,,,,,,,,,,,,,,,,,,,,1016,2019_Mar_06_1244,mf_amp_cond2,3.0.4,60.00300210088386,
ablow,&&&&&,right,nonword,,,,,,,,0,169,169,42,,,,,,,,,,,,,,,,,,,,,LDT,left,0.6670617945492268,0,,,left,0,0.6670617945492268,,,,,,,,,,,,,,,,,,,,,,1016,2019_Mar_06_1244,mf_amp_cond2,3.0.4,60.00300210088386,
attacks,&&&&&&&,left,care.vice,,,,,,,,0,170,170,190,,,,,,,,,,,,,,,,,,,,,LDT,left,0.41705810627900064,1,,,left,1,0.41705810627900064,,,,,,,,,,,,,,,,,,,,,,1016,2019_Mar_06_1244,mf_amp_cond2,3.0.4,60.00300210088386,
blamed,&&&&&&,left,loyalty.vice,,,,,,,,0,171,171,84,,,,,,,,,,,,,,,,,,,,,LDT,left,0.2836466452572495,1,,,left,1,0.2836466452572495,,,,,,,,,,,,,,,,,,,,,,1016,2019_Mar_06_1244,mf_amp_cond2,3.0.4,60.00300210088386,
supervuned,&&&&&&&&&&,right,nonword,,,,,,,,0,172,172,187,,,,,,,,,,,,,,,,,,,,,LDT,left,0.46704210224561393,0,,,left,0,0.46704210224561393,,,,,,,,,,,,,,,,,,,,,,1016,2019_Mar_06_1244,mf_amp_cond2,3.0.4,60.00300210088386,
fifteen,&&&&&&&,left,neutral,,,,,,,,0,173,173,2,,,,,,,,,,,,,,,,,,,,,LDT,left,0.9171690756920725,1,,,left,1,0.9171690756920725,,,,,,,,,,,,,,,,,,,,,,1016,2019_Mar_06_1244,mf_amp_cond2,3.0.4,60.00300210088386,
prison,&&&&&&,left,fairness.vice,,,,,,,,0,174,174,101,,,,,,,,,,,,,,,,,,,,,LDT,right,0.4670388950034976,0,,,right,0,0.4670388950034976,,,,,,,,,,,,,,,,,,,,,,1016,2019_Mar_06_1244,mf_amp_cond2,3.0.4,60.00300210088386,
accused,&&&&&&&,left,fairness.vice,,,,,,,,0,175,175,1,,,,,,,,,,,,,,,,,,,,,LDT,left,8.202301619923674,1,,,left,1,8.202301619923674,,,,,,,,,,,,,,,,,,,,,,1016,2019_Mar_06_1244,mf_amp_cond2,3.0.4,60.00300210088386,
gikely,&&&&&&,right,nonword,,,,,,,,0,176,176,131,,,,,,,,,,,,,,,,,,,,,LDT,right,0.4336833036504686,1,,,right,1,0.4336833036504686,,,,,,,,,,,,,,,,,,,,,,1016,2019_Mar_06_1244,mf_amp_cond2,3.0.4,60.00300210088386,
front,&&&&&,left,neutral,,,,,,,,0,177,177,148,,,,,,,,,,,,,,,,,,,,,LDT,right,0.38368102663662285,0,,,right,0,0.38368102663662285,,,,,,,,,,,,,,,,,,,,,,1016,2019_Mar_06_1244,mf_amp_cond2,3.0.4,60.00300210088386,
sowntrodden,&&&&&&&&&&&,right,nonword,,,,,,,,0,178,178,113,,,,,,,,,,,,,,,,,,,,,LDT,right,0.38367525360081345,1,,,right,1,0.38367525360081345,,,,,,,,,,,,,,,,,,,,,,1016,2019_Mar_06_1244,mf_amp_cond2,3.0.4,60.00300210088386,
quarterbocks,&&&&&&&&&&&&,right,nonword,,,,,,,,0,179,179,28,,,,,,,,,,,,,,,,,,,,,LDT,right,0.41702090261969715,1,,,right,1,0.41702090261969715,,,,,,,,,,,,,,,,,,,,,,1016,2019_Mar_06_1244,mf_amp_cond2,3.0.4,60.00300210088386,
presentkess,&&&&&&&&&&&,right,nonword,,,,,,,,0,180,180,192,,,,,,,,,,,,,,,,,,,,,LDT,right,0.25031639100052416,1,,,right,1,0.25031639100052416,,,,,,,,,,,,,,,,,,,,,,1016,2019_Mar_06_1244,mf_amp_cond2,3.0.4,60.00300210088386,
become,&&&&&&,left,neutral,,,,,,,,0,181,181,102,,,,,,,,,,,,,,,,,,,,,LDT,left,0.40034503128845245,1,,,left,1,0.40034503128845245,,,,,,,,,,,,,,,,,,,,,,1016,2019_Mar_06_1244,mf_amp_cond2,3.0.4,60.00300210088386,
brudent,&&&&&&&,right,nonword,,,,,,,,0,182,182,182,,,,,,,,,,,,,,,,,,,,,LDT,left,0.2669653217308223,0,,,left,0,0.2669653217308223,,,,,,,,,,,,,,,,,,,,,,1016,2019_Mar_06_1244,mf_amp_cond2,3.0.4,60.00300210088386,
noped,&&&&&,right,nonword,,,,,,,,0,183,183,184,,,,,,,,,,,,,,,,,,,,,LDT,left,0.3836787815671414,0,,,left,0,0.3836787815671414,,,,,,,,,,,,,,,,,,,,,,1016,2019_Mar_06_1244,mf_amp_cond2,3.0.4,60.00300210088386,
suggists,&&&&&&&&,right,nonword,,,,,,,,0,184,184,64,,,,,,,,,,,,,,,,,,,,,LDT,right,0.48368429800029844,1,,,right,1,0.48368429800029844,,,,,,,,,,,,,,,,,,,,,,1016,2019_Mar_06_1244,mf_amp_cond2,3.0.4,60.00300210088386,
somehow,&&&&&&&,left,neutral,,,,,,,,0,185,185,6,,,,,,,,,,,,,,,,,,,,,LDT,left,0.38371758873108774,1,,,left,1,0.38371758873108774,,,,,,,,,,,,,,,,,,,,,,1016,2019_Mar_06_1244,mf_amp_cond2,3.0.4,60.00300210088386,
improve,&&&&&&&,left,care.virtue,,,,,,,,0,186,186,7,,,,,,,,,,,,,,,,,,,,,LDT,right,0.317003840347752,0,,,right,0,0.317003840347752,,,,,,,,,,,,,,,,,,,,,,1016,2019_Mar_06_1244,mf_amp_cond2,3.0.4,60.00300210088386,
betrayal,&&&&&&&&,left,loyalty.vice,,,,,,,,0,187,187,97,,,,,,,,,,,,,,,,,,,,,LDT,left,0.3503145307768136,1,,,left,1,0.3503145307768136,,,,,,,,,,,,,,,,,,,,,,1016,2019_Mar_06_1244,mf_amp_cond2,3.0.4,60.00300210088386,
scalbel,&&&&&&&,right,nonword,,,,,,,,0,188,188,150,,,,,,,,,,,,,,,,,,,,,LDT,left,0.35034531995188445,0,,,left,0,0.35034531995188445,,,,,,,,,,,,,,,,,,,,,,1016,2019_Mar_06_1244,mf_amp_cond2,3.0.4,60.00300210088386,
Boeinf,&&&&&&,right,nonword,,,,,,,,0,189,189,50,,,,,,,,,,,,,,,,,,,,,LDT,left,0.4004576043225825,0,,,left,0,0.4004576043225825,,,,,,,,,,,,,,,,,,,,,,1016,2019_Mar_06_1244,mf_amp_cond2,3.0.4,60.00300210088386,
promised,&&&&&&&&,left,loyalty.virtue,,,,,,,,0,190,190,67,,,,,,,,,,,,,,,,,,,,,LDT,left,0.3834828211693093,1,,,left,1,0.3834828211693093,,,,,,,,,,,,,,,,,,,,,,1016,2019_Mar_06_1244,mf_amp_cond2,3.0.4,60.00300210088386,
neputized,&&&&&&&&&,right,nonword,,,,,,,,0,191,191,143,,,,,,,,,,,,,,,,,,,,,LDT,right,1.267237292835489,1,,,right,1,1.267237292835489,,,,,,,,,,,,,,,,,,,,,,1016,2019_Mar_06_1244,mf_amp_cond2,3.0.4,60.00300210088386,
freedom,&&&&&&&,left,sanctity.virtue,,,,,,,,0,192,192,179,,,,,,,,,,,,,,,,,,,,,LDT,right,0.9338353254133835,0,,,right,0,0.9338353254133835,,,,,,,,,,,,,,,,,,,,,,1016,2019_Mar_06_1244,mf_amp_cond2,3.0.4,60.00300210088386,
frojecting,&&&&&&&&&&,right,nonword,,,,,,,,0,193,193,80,,,,,,,,,,,,,,,,,,,,,LDT,right,0.6670826413901523,1,,,right,1,0.6670826413901523,,,,,,,,,,,,,,,,,,,,,,1016,2019_Mar_06_1244,mf_amp_cond2,3.0.4,60.00300210088386,
gusinesslike,&&&&&&&&&&&&,right,nonword,,,,,,,,0,194,194,82,,,,,,,,,,,,,,,,,,,,,LDT,right,0.6170662525109947,1,,,right,1,0.6170662525109947,,,,,,,,,,,,,,,,,,,,,,1016,2019_Mar_06_1244,mf_amp_cond2,3.0.4,60.00300210088386,
Loorish,&&&&&&&,right,nonword,,,,,,,,0,195,195,180,,,,,,,,,,,,,,,,,,,,,LDT,left,0.8504652694100514,0,,,left,0,0.8504652694100514,,,,,,,,,,,,,,,,,,,,,,1016,2019_Mar_06_1244,mf_amp_cond2,3.0.4,60.00300210088386,
ronviolence,&&&&&&&&&&&,right,nonword,,,,,,,,0,196,196,24,,,,,,,,,,,,,,,,,,,,,LDT,left,1.0838482503313571,0,,,left,0,1.0838482503313571,,,,,,,,,,,,,,,,,,,,,,1016,2019_Mar_06_1244,mf_amp_cond2,3.0.4,60.00300210088386,
thru,&&&&,left,neutral,,,,,,,,0,197,197,160,,,,,,,,,,,,,,,,,,,,,LDT,right,0.5503916320158169,0,,,right,0,0.5503916320158169,,,,,,,,,,,,,,,,,,,,,,1016,2019_Mar_06_1244,mf_amp_cond2,3.0.4,60.00300210088386,
hatigue,&&&&&&&,right,nonword,,,,,,,,0,198,198,145,,,,,,,,,,,,,,,,,,,,,LDT,right,1.0005016071954742,1,,,right,1,1.0005016071954742,,,,,,,,,,,,,,,,,,,,,,1016,2019_Mar_06_1244,mf_amp_cond2,3.0.4,60.00300210088386,
three,&&&&&,left,neutral,,,,,,,,0,199,199,155,,,,,,,,,,,,,,,,,,,,,LDT,right,0.7004010290838778,0,,,right,0,0.7004010290838778,,,,,,,,,,,,,,,,,,,,,,1016,2019_Mar_06_1244,mf_amp_cond2,3.0.4,60.00300210088386,
,,,,,,,,,,,,,,,,,,,,,,,,,,,,,,,,,,,,,,,,,,,,3,16.323,,,,,,,,,,,,,,,,,,,,1016,2019_Mar_06_1244,mf_amp_cond2,3.0.4,60.00300210088386,
,,,,,,,,,,,,,,,,,,,,,,,,,,,,,,,,,,,,,,,,,,,,,,right,2.917650477262214,,,,,,,,,,,,,,,,,,1016,2019_Mar_06_1244,mf_amp_cond2,3.0.4,60.00300210088386,
banana,&&&&&&,,,kacket,,,,,,,,,,,0,0,0,1,,,,,,,,,,,,,,,,,AMP_prac,left,3.8512051720172167,,,,,,,,,,,left,3.8512051720172167,,,,,,,,,,,,,,,,1016,2019_Mar_06_1244,mf_amp_cond2,3.0.4,60.00300210088386,
keyboard,&&&&,,,senk,,,,,,,,,,,0,1,1,2,,,,,,,,,,,,,,,,,AMP_prac,left,1.78402894444298,,,,,,,,,,,left,1.78402894444298,,,,,,,,,,,,,,,,1016,2019_Mar_06_1244,mf_amp_cond2,3.0.4,60.00300210088386,
scarf,&&&&&&&&,,,bisebell,,,,,,,,,,,0,2,2,3,,,,,,,,,,,,,,,,,AMP_prac,left,1.784029906615615,,,,,,,,,,,left,1.784029906615615,,,,,,,,,,,,,,,,1016,2019_Mar_06_1244,mf_amp_cond2,3.0.4,60.00300210088386,
car,&&&&&&&&,,,cemtuper,,,,,,,,,,,0,3,3,0,,,,,,,,,,,,,,,,,AMP_prac,right,0.7838089300785214,,,,,,,,,,,right,0.7838089300785214,,,,,,,,,,,,,,,,1016,2019_Mar_06_1244,mf_amp_cond2,3.0.4,60.00300210088386,
,,,,,,,,,,,,,,,,,,,,,,,,,,,,,,,,,,,,,,,,,,,,,,,,,,right,6.118439257727005,,,,,,,,,,,,,,1016,2019_Mar_06_1244,mf_amp_cond2,3.0.4,60.00300210088386,
celebrated,&&&&&&&&,left,authority.virtue,proached,,,,,,,,,,,,,,,0,0,0,324,,,,,,,,,,,,,AMP,right,0.9338580964831635,0,,,,,,,,,,,,,,right,0,0.9338580964831635,,,,,,,,,,,1016,2019_Mar_06_1244,mf_amp_cond2,3.0.4,60.00300210088386,
abointment,&&&&,None,nonword,juck,,,,,,,,,,,,,,,0,1,1,302,,,,,,,,,,,,,AMP,left,1.2338893987471238,0,,,,,,,,,,,,,,left,0,1.2338893987471238,,,,,,,,,,,1016,2019_Mar_06_1244,mf_amp_cond2,3.0.4,60.00300210088386,
sharing,&&&&&&&&&&&&,left,loyalty.virtue,rorroborated,,,,,,,,,,,,,,,0,2,2,299,,,,,,,,,,,,,AMP,right,2.2008195696398616,0,,,,,,,,,,,,,,right,0,2.2008195696398616,,,,,,,,,,,1016,2019_Mar_06_1244,mf_amp_cond2,3.0.4,60.00300210088386,
loyalty,&&&&&,left,loyalty.virtue,lenon,,,,,,,,,,,,,,,0,3,3,288,,,,,,,,,,,,,AMP,right,0.4170083944918588,0,,,,,,,,,,,,,,right,0,0.4170083944918588,,,,,,,,,,,1016,2019_Mar_06_1244,mf_amp_cond2,3.0.4,60.00300210088386,
fair,&&&&&&&,left,fairness.virtue,vurtain,,,,,,,,,,,,,,,0,4,4,165,,,,,,,,,,,,,AMP,right,0.3336771458853036,0,,,,,,,,,,,,,,right,0,0.3336771458853036,,,,,,,,,,,1016,2019_Mar_06_1244,mf_amp_cond2,3.0.4,60.00300210088386,
credit,&&&&&&&&&&&,left,fairness.virtue,ilportation,,,,,,,,,,,,,,,0,5,5,216,,,,,,,,,,,,,AMP,right,1.5506382662570104,0,,,,,,,,,,,,,,right,0,1.5506382662570104,,,,,,,,,,,1016,2019_Mar_06_1244,mf_amp_cond2,3.0.4,60.00300210088386,
hope,&&&&&&&&&&&&,left,loyalty.virtue,feleological,,,,,,,,,,,,,,,0,6,6,171,,,,,,,,,,,,,AMP,right,0.31699646380729973,0,,,,,,,,,,,,,,right,0,0.31699646380729973,,,,,,,,,,,1016,2019_Mar_06_1244,mf_amp_cond2,3.0.4,60.00300210088386,
celebrated,&&&&&&&&&,left,authority.virtue,gillipede,,,,,,,,,,,,,,,0,7,7,119,,,,,,,,,,,,,AMP,left,1.0005339998751879,1,,,,,,,,,,,,,,left,1,1.0005339998751879,,,,,,,,,,,1016,2019_Mar_06_1244,mf_amp_cond2,3.0.4,60.00300210088386,
intelligence,&&&&&&,left,loyalty.virtue,antral,,,,,,,,,,,,,,,0,8,8,176,,,,,,,,,,,,,AMP,right,0.3336662413785234,0,,,,,,,,,,,,,,right,0,0.3336662413785234,,,,,,,,,,,1016,2019_Mar_06_1244,mf_amp_cond2,3.0.4,60.00300210088386,
suicide,&&&&&&,right,care.vice,squets,,,,,,,,,,,,,,,0,9,9,205,,,,,,,,,,,,,AMP,left,0.3169913322199136,0,,,,,,,,,,,,,,left,0,0.3169913322199136,,,,,,,,,,,1016,2019_Mar_06_1244,mf_amp_cond2,3.0.4,60.00300210088386,
embrace,&&&&&&,left,authority.virtue,pumber,,,,,,,,,,,,,,,0,10,10,326,,,,,,,,,,,,,AMP,right,1.7173370049567893,0,,,,,,,,,,,,,,right,0,1.7173370049567893,,,,,,,,,,,1016,2019_Mar_06_1244,mf_amp_cond2,3.0.4,60.00300210088386,
safety,&&&&&&&&&&&,left,care.virtue,vicissifude,,,,,,,,,,,,,,,0,11,11,307,,,,,,,,,,,,,AMP,right,0.3170019160024822,0,,,,,,,,,,,,,,right,0,0.3170019160024822,,,,,,,,,,,1016,2019_Mar_06_1244,mf_amp_cond2,3.0.4,60.00300210088386,
promote,&&&&&,left,sanctity.virtue,touls,,,,,,,,,,,,,,,0,12,12,101,,,,,,,,,,,,,AMP,right,0.2836594742257148,0,,,,,,,,,,,,,,right,0,0.2836594742257148,,,,,,,,,,,1016,2019_Mar_06_1244,mf_amp_cond2,3.0.4,60.00300210088386,
actively,&&&&&&&&&,left,authority.virtue,pescinded,,,,,,,,,,,,,,,0,13,13,317,,,,,,,,,,,,,AMP,right,0.1336378896376118,0,,,,,,,,,,,,,,right,0,0.1336378896376118,,,,,,,,,,,1016,2019_Mar_06_1244,mf_amp_cond2,3.0.4,60.00300210088386,
nonobservalt,&&&&&&&&,None,nonword,hescribe,,,,,,,,,,,,,,,0,14,14,280,,,,,,,,,,,,,AMP,left,0.516857078531757,0,,,,,,,,,,,,,,left,0,0.516857078531757,,,,,,,,,,,1016,2019_Mar_06_1244,mf_amp_cond2,3.0.4,60.00300210088386,
protect,&&&&&&&&,left,fairness.virtue,lachelor,,,,,,,,,,,,,,,0,15,15,249,,,,,,,,,,,,,AMP,right,0.4170507296221331,0,,,,,,,,,,,,,,right,0,0.4170507296221331,,,,,,,,,,,1016,2019_Mar_06_1244,mf_amp_cond2,3.0.4,60.00300210088386,
progress,&&&&&&&&&,left,authority.virtue,disregord,,,,,,,,,,,,,,,0,16,16,203,,,,,,,,,,,,,AMP,right,0.33368452242575586,0,,,,,,,,,,,,,,right,0,0.33368452242575586,,,,,,,,,,,1016,2019_Mar_06_1244,mf_amp_cond2,3.0.4,60.00300210088386,
ban,&&&&&,right,loyalty.vice,lenon,,,,,,,,,,,,,,,0,17,17,192,,,,,,,,,,,,,AMP,left,0.4670177275547758,0,,,,,,,,,,,,,,left,0,0.4670177275547758,,,,,,,,,,,1016,2019_Mar_06_1244,mf_amp_cond2,3.0.4,60.00300210088386,
win,&&&&&&&&&&,left,fairness.virtue,clattening,,,,,,,,,,,,,,,0,18,18,112,,,,,,,,,,,,,AMP,right,0.6671012432780117,0,,,,,,,,,,,,,,right,0,0.6671012432780117,,,,,,,,,,,1016,2019_Mar_06_1244,mf_amp_cond2,3.0.4,60.00300210088386,
nonobservalt,&&&&&&,None,nonword,letish,,,,,,,,,,,,,,,0,19,19,106,,,,,,,,,,,,,AMP,left,0.7004128957632929,0,,,,,,,,,,,,,,left,0,0.7004128957632929,,,,,,,,,,,1016,2019_Mar_06_1244,mf_amp_cond2,3.0.4,60.00300210088386,
perfect,&&&&&&,left,sanctity.virtue,squets,,,,,,,,,,,,,,,0,20,20,152,,,,,,,,,,,,,AMP,right,0.28365209756884724,0,,,,,,,,,,,,,,right,0,0.28365209756884724,,,,,,,,,,,1016,2019_Mar_06_1244,mf_amp_cond2,3.0.4,60.00300210088386,
peace,&&&&&,left,care.virtue,aubos,,,,,,,,,,,,,,,0,21,21,261,,,,,,,,,,,,,AMP,right,0.13376329152379185,0,,,,,,,,,,,,,,right,0,0.13376329152379185,,,,,,,,,,,1016,2019_Mar_06_1244,mf_amp_cond2,3.0.4,60.00300210088386,
intelligence,&&&&&,left,loyalty.virtue,mecan,,,,,,,,,,,,,,,0,22,22,25,,,,,,,,,,,,,AMP,right,0.23362191778142005,0,,,,,,,,,,,,,,right,0,0.23362191778142005,,,,,,,,,,,1016,2019_Mar_06_1244,mf_amp_cond2,3.0.4,60.00300210088386,
illegal,&&&&&&&&,right,fairness.vice,gowlands,,,,,,,,,,,,,,,0,23,23,259,,,,,,,,,,,,,AMP,right,0.10029865510296077,1,,,,,,,,,,,,,,right,1,0.10029865510296077,,,,,,,,,,,1016,2019_Mar_06_1244,mf_amp_cond2,3.0.4,60.00300210088386,
perfect,&&&&&&&,left,sanctity.virtue,emports,,,,,,,,,,,,,,,0,24,24,58,,,,,,,,,,,,,AMP,right,0.783774292212911,0,,,,,,,,,,,,,,right,0,0.783774292212911,,,,,,,,,,,1016,2019_Mar_06_1244,mf_amp_cond2,3.0.4,60.00300210088386,
clean,&&&&&&&&&,left,sanctity.virtue,discovars,,,,,,,,,,,,,,,0,25,25,315,,,,,,,,,,,,,AMP,right,0.7837733299238607,0,,,,,,,,,,,,,,right,0,0.7837733299238607,,,,,,,,,,,1016,2019_Mar_06_1244,mf_amp_cond2,3.0.4,60.00300210088386,
care,&&&&&&&&&,left,care.virtue,tenuflect,,,,,,,,,,,,,,,0,26,26,1,,,,,,,,,,,,,AMP,right,0.25030580710154027,0,,,,,,,,,,,,,,right,0,0.25030580710154027,,,,,,,,,,,1016,2019_Mar_06_1244,mf_amp_cond2,3.0.4,60.00300210088386,
protesters,&&&&&&&,right,authority.vice,pharing,,,,,,,,,,,,,,,0,27,27,222,,,,,,,,,,,,,AMP,left,0.3336694485042244,0,,,,,,,,,,,,,,left,0,0.3336694485042244,,,,,,,,,,,1016,2019_Mar_06_1244,mf_amp_cond2,3.0.4,60.00300210088386,
ensure,&&&&&&&&&,left,fairness.virtue,discovars,,,,,,,,,,,,,,,0,28,28,7,,,,,,,,,,,,,AMP,right,0.6170470092911273,0,,,,,,,,,,,,,,right,0,0.6170470092911273,,,,,,,,,,,1016,2019_Mar_06_1244,mf_amp_cond2,3.0.4,60.00300210088386,
troubla,&&&&&&&&&&,None,nonword,pistraught,,,,,,,,,,,,,,,0,29,29,69,,,,,,,,,,,,,AMP,left,0.533710949937813,0,,,,,,,,,,,,,,left,0,0.533710949937813,,,,,,,,,,,1016,2019_Mar_06_1244,mf_amp_cond2,3.0.4,60.00300210088386,
ability,&&&&,left,authority.virtue,juck,,,,,,,,,,,,,,,0,30,30,160,,,,,,,,,,,,,AMP,right,0.2336478962097317,0,,,,,,,,,,,,,,right,0,0.2336478962097317,,,,,,,,,,,1016,2019_Mar_06_1244,mf_amp_cond2,3.0.4,60.00300210088386,
victims,&&&&&&&&,right,care.vice,fontacts,,,,,,,,,,,,,,,0,31,31,246,,,,,,,,,,,,,AMP,right,1.0171386713627726,1,,,,,,,,,,,,,,right,1,1.0171386713627726,,,,,,,,,,,1016,2019_Mar_06_1244,mf_amp_cond2,3.0.4,60.00300210088386,
hand,&&&&&&&&&&&,left,sanctity.virtue,nomparisons,,,,,,,,,,,,,,,0,32,32,319,,,,,,,,,,,,,AMP,right,0.2669948280090466,0,,,,,,,,,,,,,,right,0,0.2669948280090466,,,,,,,,,,,1016,2019_Mar_06_1244,mf_amp_cond2,3.0.4,60.00300210088386,
gournful,&&&&&&&&&,None,nonword,gaultless,,,,,,,,,,,,,,,0,33,33,36,,,,,,,,,,,,,AMP,left,1.7506970863323659,0,,,,,,,,,,,,,,left,0,1.7506970863323659,,,,,,,,,,,1016,2019_Mar_06_1244,mf_amp_cond2,3.0.4,60.00300210088386,
credit,&&&&&&&&&,left,fairness.virtue,fangsters,,,,,,,,,,,,,,,0,34,34,83,,,,,,,,,,,,,AMP,right,0.18362573441118002,0,,,,,,,,,,,,,,right,0,0.18362573441118002,,,,,,,,,,,1016,2019_Mar_06_1244,mf_amp_cond2,3.0.4,60.00300210088386,
protesters,&&&&&,right,authority.vice,touls,,,,,,,,,,,,,,,0,35,35,81,,,,,,,,,,,,,AMP,left,1.6006662009749562,0,,,,,,,,,,,,,,left,0,1.6006662009749562,,,,,,,,,,,1016,2019_Mar_06_1244,mf_amp_cond2,3.0.4,60.00300210088386,
arrests,&&&&&&,right,authority.vice,chared,,,,,,,,,,,,,,,0,36,36,310,,,,,,,,,,,,,AMP,left,0.9838299051625654,0,,,,,,,,,,,,,,left,0,0.9838299051625654,,,,,,,,,,,1016,2019_Mar_06_1244,mf_amp_cond2,3.0.4,60.00300210088386,
war,&&&&&&&&&&,right,sanctity.vice,totalestic,,,,,,,,,,,,,,,0,37,37,252,,,,,,,,,,,,,AMP,left,0.30032412032596767,0,,,,,,,,,,,,,,left,0,0.30032412032596767,,,,,,,,,,,1016,2019_Mar_06_1244,mf_amp_cond2,3.0.4,60.00300210088386,
win,&&&&&&&&&,left,fairness.virtue,baladroit,,,,,,,,,,,,,,,0,38,38,16,,,,,,,,,,,,,AMP,right,1.1005244423868135,0,,,,,,,,,,,,,,right,0,1.1005244423868135,,,,,,,,,,,1016,2019_Mar_06_1244,mf_amp_cond2,3.0.4,60.00300210088386,
abointment,&&&&&&&&,None,nonword,fontacts,,,,,,,,,,,,,,,0,39,39,163,,,,,,,,,,,,,AMP,left,0.5170453415485099,0,,,,,,,,,,,,,,left,0,0.5170453415485099,,,,,,,,,,,1016,2019_Mar_06_1244,mf_amp_cond2,3.0.4,60.00300210088386,
drug,&&&&&&&&,right,sanctity.vice,sfumatoy,,,,,,,,,,,,,,,0,40,40,15,,,,,,,,,,,,,AMP,left,0.26698616868816316,0,,,,,,,,,,,,,,left,0,0.26698616868816316,,,,,,,,,,,1016,2019_Mar_06_1244,mf_amp_cond2,3.0.4,60.00300210088386,
nomaric,&&&&&&&&,None,nonword,hescribe,,,,,,,,,,,,,,,0,41,41,20,,,,,,,,,,,,,AMP,left,0.7337877303361893,0,,,,,,,,,,,,,,left,0,0.7337877303361893,,,,,,,,,,,1016,2019_Mar_06_1244,mf_amp_cond2,3.0.4,60.00300210088386,
arrests,&&&&&&&,right,authority.vice,emports,,,,,,,,,,,,,,,0,42,42,213,,,,,,,,,,,,,AMP,left,1.0171752334572375,0,,,,,,,,,,,,,,left,0,1.0171752334572375,,,,,,,,,,,1016,2019_Mar_06_1244,mf_amp_cond2,3.0.4,60.00300210088386,
victim,&&&&&&&&&,right,care.vice,fangsters,,,,,,,,,,,,,,,0,43,43,314,,,,,,,,,,,,,AMP,right,0.517037644283846,1,,,,,,,,,,,,,,right,1,0.517037644283846,,,,,,,,,,,1016,2019_Mar_06_1244,mf_amp_cond2,3.0.4,60.00300210088386,
intelligence,&&&&&&&&,left,loyalty.virtue,tracious,,,,,,,,,,,,,,,0,44,44,133,,,,,,,,,,,,,AMP,right,1.7173421364277601,0,,,,,,,,,,,,,,right,0,1.7173421364277601,,,,,,,,,,,1016,2019_Mar_06_1244,mf_amp_cond2,3.0.4,60.00300210088386,
police,&&&&&&&,right,authority.vice,allears,,,,,,,,,,,,,,,0,45,45,27,,,,,,,,,,,,,AMP,right,1.533965281327255,1,,,,,,,,,,,,,,right,1,1.533965281327255,,,,,,,,,,,1016,2019_Mar_06_1244,mf_amp_cond2,3.0.4,60.00300210088386,
nomaric,&&&&&&&,None,nonword,reviked,,,,,,,,,,,,,,,0,46,46,312,,,,,,,,,,,,,AMP,right,0.5670530708739534,0,,,,,,,,,,,,,,right,0,0.5670530708739534,,,,,,,,,,,1016,2019_Mar_06_1244,mf_amp_cond2,3.0.4,60.00300210088386,
prosecution,&&&&&&&&&,right,authority.vice,gaultless,,,,,,,,,,,,,,,0,47,47,311,,,,,,,,,,,,,AMP,right,0.7004177066264674,1,,,,,,,,,,,,,,right,1,0.7004177066264674,,,,,,,,,,,1016,2019_Mar_06_1244,mf_amp_cond2,3.0.4,60.00300210088386,
injured,&&&&&&&&&,right,care.vice,tomedians,,,,,,,,,,,,,,,0,48,48,234,,,,,,,,,,,,,AMP,left,0.2836604363983497,0,,,,,,,,,,,,,,left,0,0.2836604363983497,,,,,,,,,,,1016,2019_Mar_06_1244,mf_amp_cond2,3.0.4,60.00300210088386,
failure,&&&&&&&&,right,loyalty.vice,hescribe,,,,,,,,,,,,,,,0,49,49,241,,,,,,,,,,,,,AMP,left,0.15013159171212465,0,,,,,,,,,,,,,,left,0,0.15013159171212465,,,,,,,,,,,1016,2019_Mar_06_1244,mf_amp_cond2,3.0.4,60.00300210088386,
hate,&&&&&&&,right,fairness.vice,dramens,,,,,,,,,,,,,,,0,50,50,72,,,,,,,,,,,,,AMP,left,0.28354209032841027,0,,,,,,,,,,,,,,left,0,0.28354209032841027,,,,,,,,,,,1016,2019_Mar_06_1244,mf_amp_cond2,3.0.4,60.00300210088386,
voter,&&&&&,right,fairness.vice,hasks,,,,,,,,,,,,,,,0,51,51,126,,,,,,,,,,,,,AMP,left,0.4170083946082741,0,,,,,,,,,,,,,,left,0,0.4170083946082741,,,,,,,,,,,1016,2019_Mar_06_1244,mf_amp_cond2,3.0.4,60.00300210088386,
restore,&&&&&&&,left,care.virtue,gedious,,,,,,,,,,,,,,,0,52,52,164,,,,,,,,,,,,,AMP,left,0.61706336599309,1,,,,,,,,,,,,,,left,1,0.61706336599309,,,,,,,,,,,1016,2019_Mar_06_1244,mf_amp_cond2,3.0.4,60.00300210088386,
opportunity,&&&&&&&,left,fairness.virtue,pharing,,,,,,,,,,,,,,,0,53,53,105,,,,,,,,,,,,,AMP,left,0.6337536697974429,1,,,,,,,,,,,,,,left,1,0.6337536697974429,,,,,,,,,,,1016,2019_Mar_06_1244,mf_amp_cond2,3.0.4,60.00300210088386,
restore,&&&&&&&&&,left,care.virtue,tenuflect,,,,,,,,,,,,,,,0,54,54,289,,,,,,,,,,,,,AMP,left,0.9504829732468352,1,,,,,,,,,,,,,,left,1,0.9504829732468352,,,,,,,,,,,1016,2019_Mar_06_1244,mf_amp_cond2,3.0.4,60.00300210088386,
shoirmaster,&&&&,None,nonword,yane,,,,,,,,,,,,,,,0,55,55,182,,,,,,,,,,,,,AMP,right,1.0171450856141746,0,,,,,,,,,,,,,,right,0,1.0171450856141746,,,,,,,,,,,1016,2019_Mar_06_1244,mf_amp_cond2,3.0.4,60.00300210088386,
free,&&&&&&&,left,fairness.virtue,menizen,,,,,,,,,,,,,,,0,56,56,33,,,,,,,,,,,,,AMP,right,0.033582982257939875,0,,,,,,,,,,,,,,right,0,0.033582982257939875,,,,,,,,,,,1016,2019_Mar_06_1244,mf_amp_cond2,3.0.4,60.00300210088386,
progress,&&&&&&&&&,left,authority.virtue,gandbrake,,,,,,,,,,,,,,,0,57,57,92,,,,,,,,,,,,,AMP,right,0.8838314446620643,0,,,,,,,,,,,,,,right,0,0.8838314446620643,,,,,,,,,,,1016,2019_Mar_06_1244,mf_amp_cond2,3.0.4,60.00300210088386,
hand,&&&&&&&,left,sanctity.virtue,reviked,,,,,,,,,,,,,,,0,58,58,122,,,,,,,,,,,,,AMP,left,0.7170958230271935,1,,,,,,,,,,,,,,left,1,0.7170958230271935,,,,,,,,,,,1016,2019_Mar_06_1244,mf_amp_cond2,3.0.4,60.00300210088386,
loyalty,&&&&&&&&&,left,loyalty.virtue,seachwear,,,,,,,,,,,,,,,0,59,59,18,,,,,,,,,,,,,AMP,right,0.5670703898649663,0,,,,,,,,,,,,,,right,0,0.5670703898649663,,,,,,,,,,,1016,2019_Mar_06_1244,mf_amp_cond2,3.0.4,60.00300210088386,
abointment,&&&&,None,nonword,coom,,,,,,,,,,,,,,,0,60,60,172,,,,,,,,,,,,,AMP,left,1.3338897835928947,0,,,,,,,,,,,,,,left,0,1.3338897835928947,,,,,,,,,,,1016,2019_Mar_06_1244,mf_amp_cond2,3.0.4,60.00300210088386,
died,&&&&&&&&&,right,care.vice,gillipede,,,,,,,,,,,,,,,0,61,61,68,,,,,,,,,,,,,AMP,left,0.367012852570042,0,,,,,,,,,,,,,,left,0,0.367012852570042,,,,,,,,,,,1016,2019_Mar_06_1244,mf_amp_cond2,3.0.4,60.00300210088386,
slavery,&&&&&&&&&&,right,loyalty.vice,clattening,,,,,,,,,,,,,,,0,62,62,65,,,,,,,,,,,,,AMP,left,0.4670295942341909,0,,,,,,,,,,,,,,left,0,0.4670295942341909,,,,,,,,,,,1016,2019_Mar_06_1244,mf_amp_cond2,3.0.4,60.00300210088386,
great,&&&&&&&&&&&,left,loyalty.virtue,blunderints,,,,,,,,,,,,,,,0,63,63,54,,,,,,,,,,,,,AMP,right,0.30040750768966973,0,,,,,,,,,,,,,,right,0,0.30040750768966973,,,,,,,,,,,1016,2019_Mar_06_1244,mf_amp_cond2,3.0.4,60.00300210088386,
prosecution,&&&&&&&&&,right,authority.vice,gondensed,,,,,,,,,,,,,,,0,64,64,130,,,,,,,,,,,,,AMP,right,2.8009607509011403,1,,,,,,,,,,,,,,right,1,2.8009607509011403,,,,,,,,,,,1016,2019_Mar_06_1244,mf_amp_cond2,3.0.4,60.00300210088386,
terrorists,&&&&&&&&&&&,right,fairness.vice,hefurbished,,,,,,,,,,,,,,,0,65,65,284,,,,,,,,,,,,,AMP,left,1.6673382557928562,0,,,,,,,,,,,,,,left,0,1.6673382557928562,,,,,,,,,,,1016,2019_Mar_06_1244,mf_amp_cond2,3.0.4,60.00300210088386,
crime,&&&&&&&&&,right,fairness.vice,rivernoat,,,,,,,,,,,,,,,0,66,66,204,,,,,,,,,,,,,AMP,left,0.2669739812845364,0,,,,,,,,,,,,,,left,0,0.2669739812845364,,,,,,,,,,,1016,2019_Mar_06_1244,mf_amp_cond2,3.0.4,60.00300210088386,
terrorist,&&&&&&&&&&&,right,loyalty.vice,neneficence,,,,,,,,,,,,,,,0,67,67,10,,,,,,,,,,,,,AMP,left,0.550393235636875,0,,,,,,,,,,,,,,left,0,0.550393235636875,,,,,,,,,,,1016,2019_Mar_06_1244,mf_amp_cond2,3.0.4,60.00300210088386,
voter,&&&&&&&&,right,fairness.vice,sfumatoy,,,,,,,,,,,,,,,0,68,68,316,,,,,,,,,,,,,AMP,right,0.6002418874995783,1,,,,,,,,,,,,,,right,1,0.6002418874995783,,,,,,,,,,,1016,2019_Mar_06_1244,mf_amp_cond2,3.0.4,60.00300210088386,
crime,&&&&&&&&&&,right,fairness.vice,honstables,,,,,,,,,,,,,,,0,69,69,63,,,,,,,,,,,,,AMP,left,1.634001586935483,0,,,,,,,,,,,,,,left,0,1.634001586935483,,,,,,,,,,,1016,2019_Mar_06_1244,mf_amp_cond2,3.0.4,60.00300210088386,
army,&&&&&&&,right,loyalty.vice,menizen,,,,,,,,,,,,,,,0,70,70,266,,,,,,,,,,,,,AMP,right,0.6003964748233557,1,,,,,,,,,,,,,,right,1,0.6003964748233557,,,,,,,,,,,1016,2019_Mar_06_1244,mf_amp_cond2,3.0.4,60.00300210088386,
faith,&&&&&&&&&&&,left,sanctity.virtue,blunderints,,,,,,,,,,,,,,,0,71,71,221,,,,,,,,,,,,,AMP,right,0.20033239491749555,0,,,,,,,,,,,,,,right,0,0.20033239491749555,,,,,,,,,,,1016,2019_Mar_06_1244,mf_amp_cond2,3.0.4,60.00300210088386,
peace,&&&&&,left,care.virtue,aubos,,,,,,,,,,,,,,,0,72,72,137,,,,,,,,,,,,,AMP,right,0.2503176738973707,0,,,,,,,,,,,,,,right,0,0.2503176738973707,,,,,,,,,,,1016,2019_Mar_06_1244,mf_amp_cond2,3.0.4,60.00300210088386,
ebbitter,&&&&&&,None,nonword,letish,,,,,,,,,,,,,,,0,73,73,275,,,,,,,,,,,,,AMP,left,0.6004105865722522,0,,,,,,,,,,,,,,left,0,0.6004105865722522,,,,,,,,,,,1016,2019_Mar_06_1244,mf_amp_cond2,3.0.4,60.00300210088386,
hope,&&&&&&&&,left,loyalty.virtue,proached,,,,,,,,,,,,,,,0,74,74,103,,,,,,,,,,,,,AMP,right,0.050250835600309074,0,,,,,,,,,,,,,,right,0,0.050250835600309074,,,,,,,,,,,1016,2019_Mar_06_1244,mf_amp_cond2,3.0.4,60.00300210088386,
praised,&&&&&&,left,loyalty.virtue,greaks,,,,,,,,,,,,,,,0,75,75,191,,,,,,,,,,,,,AMP,right,0.6170470092911273,0,,,,,,,,,,,,,,right,0,0.6170470092911273,,,,,,,,,,,1016,2019_Mar_06_1244,mf_amp_cond2,3.0.4,60.00300210088386,
dignity,&&&&&&&&&&&,left,sanctity.virtue,egpeditious,,,,,,,,,,,,,,,0,76,76,178,,,,,,,,,,,,,AMP,right,0.350349809974432,0,,,,,,,,,,,,,,right,0,0.350349809974432,,,,,,,,,,,1016,2019_Mar_06_1244,mf_amp_cond2,3.0.4,60.00300210088386,
fear,&&&&&&&&&,right,sanctity.vice,baladroit,,,,,,,,,,,,,,,0,77,77,292,,,,,,,,,,,,,AMP,left,0.5337186472024769,0,,,,,,,,,,,,,,left,0,0.5337186472024769,,,,,,,,,,,1016,2019_Mar_06_1244,mf_amp_cond2,3.0.4,60.00300210088386,
abointment,&&&&,None,nonword,coom,,,,,,,,,,,,,,,0,78,78,48,,,,,,,,,,,,,AMP,left,1.0671858493005857,0,,,,,,,,,,,,,,left,0,1.0671858493005857,,,,,,,,,,,1016,2019_Mar_06_1244,mf_amp_cond2,3.0.4,60.00300210088386,
harassment,&&&&&&&&&,right,sanctity.vice,discovars,,,,,,,,,,,,,,,0,79,79,237,,,,,,,,,,,,,AMP,left,0.8671199732925743,0,,,,,,,,,,,,,,left,0,0.8671199732925743,,,,,,,,,,,1016,2019_Mar_06_1244,mf_amp_cond2,3.0.4,60.00300210088386,
sharing,&&&&&&,left,loyalty.virtue,chared,,,,,,,,,,,,,,,0,80,80,194,,,,,,,,,,,,,AMP,right,0.21698068431578577,0,,,,,,,,,,,,,,right,0,0.21698068431578577,,,,,,,,,,,1016,2019_Mar_06_1244,mf_amp_cond2,3.0.4,60.00300210088386,
support,&&&&&&&,left,loyalty.virtue,allears,,,,,,,,,,,,,,,0,81,81,125,,,,,,,,,,,,,AMP,right,1.9173874863190576,0,,,,,,,,,,,,,,right,0,1.9173874863190576,,,,,,,,,,,1016,2019_Mar_06_1244,mf_amp_cond2,3.0.4,60.00300210088386,
fear,&&&&&&&&,right,sanctity.vice,clamorek,,,,,,,,,,,,,,,0,82,82,118,,,,,,,,,,,,,AMP,left,0.5337375696981326,0,,,,,,,,,,,,,,left,0,0.5337375696981326,,,,,,,,,,,1016,2019_Mar_06_1244,mf_amp_cond2,3.0.4,60.00300210088386,
unpleasant,&&&&&,None,control,lenon,,,,,,,,,,,,,,,0,83,83,141,,,,,,,,,,,,,AMP,right,0.38367525360081345,0,,,,,,,,,,,,,,right,0,0.38367525360081345,,,,,,,,,,,1016,2019_Mar_06_1244,mf_amp_cond2,3.0.4,60.00300210088386,
restore,&&&&&&&&,left,care.virtue,gowlands,,,,,,,,,,,,,,,0,84,84,89,,,,,,,,,,,,,AMP,right,0.5670745591633022,0,,,,,,,,,,,,,,right,0,0.5670745591633022,,,,,,,,,,,1016,2019_Mar_06_1244,mf_amp_cond2,3.0.4,60.00300210088386,
ensure,&&&&&&,left,fairness.virtue,pumber,,,,,,,,,,,,,,,0,85,85,195,,,,,,,,,,,,,AMP,right,1.0505231275456026,0,,,,,,,,,,,,,,right,0,1.0505231275456026,,,,,,,,,,,1016,2019_Mar_06_1244,mf_amp_cond2,3.0.4,60.00300210088386,
embrace,&&&&,left,authority.virtue,juck,,,,,,,,,,,,,,,0,86,86,219,,,,,,,,,,,,,AMP,right,0.3836637077620253,0,,,,,,,,,,,,,,right,0,0.3836637077620253,,,,,,,,,,,1016,2019_Mar_06_1244,mf_amp_cond2,3.0.4,60.00300210088386,
officers,&&&&&&&&,right,authority.vice,clamorek,,,,,,,,,,,,,,,0,87,87,268,,,,,,,,,,,,,AMP,right,0.9671623725444078,1,,,,,,,,,,,,,,right,1,0.9671623725444078,,,,,,,,,,,1016,2019_Mar_06_1244,mf_amp_cond2,3.0.4,60.00300210088386,
emassion,&&&&&&&&&&&,None,nonword,shoirmaster,,,,,,,,,,,,,,,0,88,88,244,,,,,,,,,,,,,AMP,left,0.7671016280073673,0,,,,,,,,,,,,,,left,0,0.7671016280073673,,,,,,,,,,,1016,2019_Mar_06_1244,mf_amp_cond2,3.0.4,60.00300210088386,
perfect,&&&&&&&,left,sanctity.virtue,pharing,,,,,,,,,,,,,,,0,89,89,267,,,,,,,,,,,,,AMP,right,0.8337910016998649,0,,,,,,,,,,,,,,right,0,0.8337910016998649,,,,,,,,,,,1016,2019_Mar_06_1244,mf_amp_cond2,3.0.4,60.00300210088386,
free,&&&&&&&&,left,fairness.virtue,pullness,,,,,,,,,,,,,,,0,90,90,250,,,,,,,,,,,,,AMP,right,0.23365527275018394,0,,,,,,,,,,,,,,right,0,0.23365527275018394,,,,,,,,,,,1016,2019_Mar_06_1244,mf_amp_cond2,3.0.4,60.00300210088386,
voter,&&&&&&&&,right,fairness.vice,crinking,,,,,,,,,,,,,,,0,91,91,231,,,,,,,,,,,,,AMP,right,0.45036270294804126,1,,,,,,,,,,,,,,right,1,0.45036270294804126,,,,,,,,,,,1016,2019_Mar_06_1244,mf_amp_cond2,3.0.4,60.00300210088386,
faith,&&&&&&&&&&&,left,sanctity.virtue,cromiscuity,,,,,,,,,,,,,,,0,92,92,304,,,,,,,,,,,,,AMP,right,0.7171006337739527,0,,,,,,,,,,,,,,right,0,0.7171006337739527,,,,,,,,,,,1016,2019_Mar_06_1244,mf_amp_cond2,3.0.4,60.00300210088386,
victim,&&&,right,care.vice,asn,,,,,,,,,,,,,,,0,93,93,144,,,,,,,,,,,,,AMP,right,1.767321001039818,1,,,,,,,,,,,,,,right,1,1.767321001039818,,,,,,,,,,,1016,2019_Mar_06_1244,mf_amp_cond2,3.0.4,60.00300210088386,
encourage,&&&&,left,authority.virtue,spag,,,,,,,,,,,,,,,0,94,94,113,,,,,,,,,,,,,AMP,right,0.5170418136985973,0,,,,,,,,,,,,,,right,0,0.5170418136985973,,,,,,,,,,,1016,2019_Mar_06_1244,mf_amp_cond2,3.0.4,60.00300210088386,
increase,&&&&&&&&&,left,care.virtue,gaultless,,,,,,,,,,,,,,,0,95,95,239,,,,,,,,,,,,,AMP,right,0.48372182226739824,0,,,,,,,,,,,,,,right,0,0.48372182226739824,,,,,,,,,,,1016,2019_Mar_06_1244,mf_amp_cond2,3.0.4,60.00300210088386,
promote,&&&&&&&&&,left,sanctity.virtue,seachwear,,,,,,,,,,,,,,,0,96,96,282,,,,,,,,,,,,,AMP,right,0.3669634615071118,0,,,,,,,,,,,,,,right,0,0.3669634615071118,,,,,,,,,,,1016,2019_Mar_06_1244,mf_amp_cond2,3.0.4,60.00300210088386,
victims,&&&&&&&,right,care.vice,dramens,,,,,,,,,,,,,,,0,97,97,228,,,,,,,,,,,,,AMP,right,1.0672852726420388,1,,,,,,,,,,,,,,right,1,1.0672852726420388,,,,,,,,,,,1016,2019_Mar_06_1244,mf_amp_cond2,3.0.4,60.00300210088386,
ban,&&&&&&&&,right,loyalty.vice,drumbled,,,,,,,,,,,,,,,0,98,98,23,,,,,,,,,,,,,AMP,left,1.9340598298003897,0,,,,,,,,,,,,,,left,0,1.9340598298003897,,,,,,,,,,,1016,2019_Mar_06_1244,mf_amp_cond2,3.0.4,60.00300210088386,
corruption,&&&&&&&&&&&,right,sanctity.vice,vicissifude,,,,,,,,,,,,,,,0,99,99,6,,,,,,,,,,,,,AMP,left,0.500387430540286,0,,,,,,,,,,,,,,left,0,0.500387430540286,,,,,,,,,,,1016,2019_Mar_06_1244,mf_amp_cond2,3.0.4,60.00300210088386,
loyalty,&&&&&&&&,left,loyalty.virtue,gowlands,,,,,,,,,,,,,,,0,100,100,174,,,,,,,,,,,,,AMP,right,0.3169852385763079,0,,,,,,,,,,,,,,right,0,0.3169852385763079,,,,,,,,,,,1016,2019_Mar_06_1244,mf_amp_cond2,3.0.4,60.00300210088386,
ensure,&&&&&&&&&&&,left,fairness.virtue,ilportation,,,,,,,,,,,,,,,0,101,101,248,,,,,,,,,,,,,AMP,left,0.45020458777435124,1,,,,,,,,,,,,,,left,1,0.45020458777435124,,,,,,,,,,,1016,2019_Mar_06_1244,mf_amp_cond2,3.0.4,60.00300210088386,
drug,&&&&&&&&&&&,right,sanctity.vice,mightingale,,,,,,,,,,,,,,,0,102,102,200,,,,,,,,,,,,,AMP,left,0.33366175123956054,0,,,,,,,,,,,,,,left,0,0.33366175123956054,,,,,,,,,,,1016,2019_Mar_06_1244,mf_amp_cond2,3.0.4,60.00300210088386,
clean,&&&&&&&&,left,sanctity.virtue,lachelor,,,,,,,,,,,,,,,0,103,103,207,,,,,,,,,,,,,AMP,right,0.3836835923139006,0,,,,,,,,,,,,,,right,0,0.3836835923139006,,,,,,,,,,,1016,2019_Mar_06_1244,mf_amp_cond2,3.0.4,60.00300210088386,
crime,&&&&&,right,fairness.vice,framo,,,,,,,,,,,,,,,0,104,104,320,,,,,,,,,,,,,AMP,left,0.4670616661896929,0,,,,,,,,,,,,,,left,0,0.4670616661896929,,,,,,,,,,,1016,2019_Mar_06_1244,mf_amp_cond2,3.0.4,60.00300210088386,
violations,&&&&,right,sanctity.vice,coom,,,,,,,,,,,,,,,0,105,105,321,,,,,,,,,,,,,AMP,left,2.1007778118364513,0,,,,,,,,,,,,,,left,0,2.1007778118364513,,,,,,,,,,,1016,2019_Mar_06_1244,mf_amp_cond2,3.0.4,60.00300210088386,
trust,&&&&&&&&&,left,authority.virtue,baladroit,,,,,,,,,,,,,,,0,106,106,88,,,,,,,,,,,,,AMP,right,0.26700797758530825,0,,,,,,,,,,,,,,right,0,0.26700797758530825,,,,,,,,,,,1016,2019_Mar_06_1244,mf_amp_cond2,3.0.4,60.00300210088386,
sharing,&&&&&,left,loyalty.virtue,dumid,,,,,,,,,,,,,,,0,107,107,14,,,,,,,,,,,,,AMP,right,0.36700226878747344,0,,,,,,,,,,,,,,right,0,0.36700226878747344,,,,,,,,,,,1016,2019_Mar_06_1244,mf_amp_cond2,3.0.4,60.00300210088386,
police,&&&&&,right,authority.vice,hasks,,,,,,,,,,,,,,,0,108,108,300,,,,,,,,,,,,,AMP,left,0.5503897076705471,0,,,,,,,,,,,,,,left,0,0.5503897076705471,,,,,,,,,,,1016,2019_Mar_06_1244,mf_amp_cond2,3.0.4,60.00300210088386,
unpleasant,&&&&&,None,control,dumid,,,,,,,,,,,,,,,0,109,109,309,,,,,,,,,,,,,AMP,right,0.7838018742622808,0,,,,,,,,,,,,,,right,0,0.7838018742622808,,,,,,,,,,,1016,2019_Mar_06_1244,mf_amp_cond2,3.0.4,60.00300210088386,
peace,&&&&&&&&&&,left,care.virtue,ejanulated,,,,,,,,,,,,,,,0,110,110,225,,,,,,,,,,,,,AMP,right,0.8337948503904045,0,,,,,,,,,,,,,,right,0,0.8337948503904045,,,,,,,,,,,1016,2019_Mar_06_1244,mf_amp_cond2,3.0.4,60.00300210088386,
credit,&&&&&,left,fairness.virtue,lenon,,,,,,,,,,,,,,,0,111,111,76,,,,,,,,,,,,,AMP,right,0.30032283742912114,0,,,,,,,,,,,,,,right,0,0.30032283742912114,,,,,,,,,,,1016,2019_Mar_06_1244,mf_amp_cond2,3.0.4,60.00300210088386,
refused,&&&&&&&&&,right,authority.vice,gandbrake,,,,,,,,,,,,,,,0,112,112,274,,,,,,,,,,,,,AMP,right,0.7504299260908738,1,,,,,,,,,,,,,,right,1,0.7504299260908738,,,,,,,,,,,1016,2019_Mar_06_1244,mf_amp_cond2,3.0.4,60.00300210088386,
terrorist,&&&&&&,right,loyalty.vice,chared,,,,,,,,,,,,,,,0,113,113,94,,,,,,,,,,,,,AMP,left,0.250301958527416,0,,,,,,,,,,,,,,left,0,0.250301958527416,,,,,,,,,,,1016,2019_Mar_06_1244,mf_amp_cond2,3.0.4,60.00300210088386,
refused,&&&&&&&&&,right,authority.vice,fangsters,,,,,,,,,,,,,,,0,114,114,238,,,,,,,,,,,,,AMP,left,0.4670299148419872,0,,,,,,,,,,,,,,left,0,0.4670299148419872,,,,,,,,,,,1016,2019_Mar_06_1244,mf_amp_cond2,3.0.4,60.00300210088386,
increase,&&&&&&&&&&&&&,left,care.virtue,synchronazers,,,,,,,,,,,,,,,0,115,115,156,,,,,,,,,,,,,AMP,right,0.35032479383517057,0,,,,,,,,,,,,,,right,0,0.35032479383517057,,,,,,,,,,,1016,2019_Mar_06_1244,mf_amp_cond2,3.0.4,60.00300210088386,
great,&&&&&&&&,left,loyalty.virtue,pullness,,,,,,,,,,,,,,,0,116,116,151,,,,,,,,,,,,,AMP,right,0.5170337955933064,0,,,,,,,,,,,,,,right,0,0.5170337955933064,,,,,,,,,,,1016,2019_Mar_06_1244,mf_amp_cond2,3.0.4,60.00300210088386,
protesters,&&&&&,right,authority.vice,tabin,,,,,,,,,,,,,,,0,117,117,154,,,,,,,,,,,,,AMP,left,1.2005511263851076,0,,,,,,,,,,,,,,left,0,1.2005511263851076,,,,,,,,,,,1016,2019_Mar_06_1244,mf_amp_cond2,3.0.4,60.00300210088386,
officers,&&&&&&&&&&&,right,authority.vice,shoirmaster,,,,,,,,,,,,,,,0,118,118,99,,,,,,,,,,,,,AMP,right,0.667081999941729,1,,,,,,,,,,,,,,right,1,0.667081999941729,,,,,,,,,,,1016,2019_Mar_06_1244,mf_amp_cond2,3.0.4,60.00300210088386,
hate,&&&&&&&&&&,right,fairness.vice,pistraught,,,,,,,,,,,,,,,0,119,119,107,,,,,,,,,,,,,AMP,left,0.31699774670414627,0,,,,,,,,,,,,,,left,0,0.31699774670414627,,,,,,,,,,,1016,2019_Mar_06_1244,mf_amp_cond2,3.0.4,60.00300210088386,
peace,&&&&&&,left,care.virtue,antral,,,,,,,,,,,,,,,0,120,120,64,,,,,,,,,,,,,AMP,right,4.834796140319668,0,,,,,,,,,,,,,,right,0,4.834796140319668,,,,,,,,,,,1016,2019_Mar_06_1244,mf_amp_cond2,3.0.4,60.00300210088386,
safety,&&&&&&,left,care.virtue,letish,,,,,,,,,,,,,,,0,121,121,30,,,,,,,,,,,,,AMP,right,0.4336772100068629,0,,,,,,,,,,,,,,right,0,0.4336772100068629,,,,,,,,,,,1016,2019_Mar_06_1244,mf_amp_cond2,3.0.4,60.00300210088386,
safety,&&&&&&&&,left,care.virtue,drumbled,,,,,,,,,,,,,,,0,122,122,167,,,,,,,,,,,,,AMP,left,0.6337360301986337,1,,,,,,,,,,,,,,left,1,0.6337360301986337,,,,,,,,,,,1016,2019_Mar_06_1244,mf_amp_cond2,3.0.4,60.00300210088386,
terrorist,&&&&,right,loyalty.vice,spag,,,,,,,,,,,,,,,0,123,123,235,,,,,,,,,,,,,AMP,right,0.5337128741666675,1,,,,,,,,,,,,,,right,1,0.5337128741666675,,,,,,,,,,,1016,2019_Mar_06_1244,mf_amp_cond2,3.0.4,60.00300210088386,
gournful,&&&&&&&&&&&,None,nonword,hefurbished,,,,,,,,,,,,,,,0,124,124,142,,,,,,,,,,,,,AMP,left,0.48368942947126925,0,,,,,,,,,,,,,,left,0,0.48368942947126925,,,,,,,,,,,1016,2019_Mar_06_1244,mf_amp_cond2,3.0.4,60.00300210088386,
groups,&&&&&&&,right,loyalty.vice,gedious,,,,,,,,,,,,,,,0,125,125,157,,,,,,,,,,,,,AMP,left,1.7673434513853863,0,,,,,,,,,,,,,,left,0,1.7673434513853863,,,,,,,,,,,1016,2019_Mar_06_1244,mf_amp_cond2,3.0.4,60.00300210088386,
fair,&&&&&&&&&,left,fairness.virtue,disregord,,,,,,,,,,,,,,,0,126,126,40,,,,,,,,,,,,,AMP,right,0.3670041930163279,0,,,,,,,,,,,,,,right,0,0.3670041930163279,,,,,,,,,,,1016,2019_Mar_06_1244,mf_amp_cond2,3.0.4,60.00300210088386,
clean,&&&&&&&&,left,sanctity.virtue,lachelor,,,,,,,,,,,,,,,0,127,127,139,,,,,,,,,,,,,AMP,right,0.6504179952898994,0,,,,,,,,,,,,,,right,0,0.6504179952898994,,,,,,,,,,,1016,2019_Mar_06_1244,mf_amp_cond2,3.0.4,60.00300210088386,
growth,&&&&&&,left,care.virtue,squets,,,,,,,,,,,,,,,0,128,128,4,,,,,,,,,,,,,AMP,right,0.8337727206526324,0,,,,,,,,,,,,,,right,0,0.8337727206526324,,,,,,,,,,,1016,2019_Mar_06_1244,mf_amp_cond2,3.0.4,60.00300210088386,
win,&&&&&&&&&,left,fairness.virtue,rivernoat,,,,,,,,,,,,,,,0,129,129,322,,,,,,,,,,,,,AMP,right,0.5170472658937797,0,,,,,,,,,,,,,,right,0,0.5170472658937797,,,,,,,,,,,1016,2019_Mar_06_1244,mf_amp_cond2,3.0.4,60.00300210088386,
police,&&&&&&&,right,authority.vice,vurtain,,,,,,,,,,,,,,,0,130,130,82,,,,,,,,,,,,,AMP,left,0.6504099773010239,0,,,,,,,,,,,,,,left,0,0.6504099773010239,,,,,,,,,,,1016,2019_Mar_06_1244,mf_amp_cond2,3.0.4,60.00300210088386,
voter,&&&&&&&&&&&,right,fairness.vice,precificity,,,,,,,,,,,,,,,0,131,131,66,,,,,,,,,,,,,AMP,right,0.5170940910466015,1,,,,,,,,,,,,,,right,1,0.5170940910466015,,,,,,,,,,,1016,2019_Mar_06_1244,mf_amp_cond2,3.0.4,60.00300210088386,
hand,&&&&&&&&&,left,sanctity.virtue,baladroit,,,,,,,,,,,,,,,0,132,132,186,,,,,,,,,,,,,AMP,left,1.0338719516294077,1,,,,,,,,,,,,,,left,1,1.0338719516294077,,,,,,,,,,,1016,2019_Mar_06_1244,mf_amp_cond2,3.0.4,60.00300210088386,
unpleasant,&&&&&&&&&,None,control,Lacedonia,,,,,,,,,,,,,,,0,133,133,47,,,,,,,,,,,,,AMP,left,1.9340784315718338,0,,,,,,,,,,,,,,left,0,1.9340784315718338,,,,,,,,,,,1016,2019_Mar_06_1244,mf_amp_cond2,3.0.4,60.00300210088386,
forced,&&&&&&&&,right,fairness.vice,drumbled,,,,,,,,,,,,,,,0,134,134,124,,,,,,,,,,,,,AMP,left,0.6170800435356796,0,,,,,,,,,,,,,,left,0,0.6170800435356796,,,,,,,,,,,1016,2019_Mar_06_1244,mf_amp_cond2,3.0.4,60.00300210088386,
critics,&&&&&&&&,right,loyalty.vice,perified,,,,,,,,,,,,,,,0,135,135,21,,,,,,,,,,,,,AMP,right,0.7504292846424505,1,,,,,,,,,,,,,,right,1,0.7504292846424505,,,,,,,,,,,1016,2019_Mar_06_1244,mf_amp_cond2,3.0.4,60.00300210088386,
ebbitter,&&&&&&&&&,None,nonword,gandbrake,,,,,,,,,,,,,,,0,136,136,227,,,,,,,,,,,,,AMP,left,0.8838003346463665,0,,,,,,,,,,,,,,left,0,0.8838003346463665,,,,,,,,,,,1016,2019_Mar_06_1244,mf_amp_cond2,3.0.4,60.00300210088386,
shot,&&&&&&&&&&&&,right,care.vice,unreflectuve,,,,,,,,,,,,,,,0,137,137,313,,,,,,,,,,,,,AMP,left,1.1503881681710482,0,,,,,,,,,,,,,,left,0,1.1503881681710482,,,,,,,,,,,1016,2019_Mar_06_1244,mf_amp_cond2,3.0.4,60.00300210088386,
terrorist,&&&&&&&&,right,loyalty.vice,perified,,,,,,,,,,,,,,,0,138,138,323,,,,,,,,,,,,,AMP,right,1.8673951516393572,1,,,,,,,,,,,,,,right,1,1.8673951516393572,,,,,,,,,,,1016,2019_Mar_06_1244,mf_amp_cond2,3.0.4,60.00300210088386,
strength,&&&&&&,left,sanctity.virtue,fegard,,,,,,,,,,,,,,,0,139,139,169,,,,,,,,,,,,,AMP,right,0.43371505511458963,0,,,,,,,,,,,,,,right,0,0.43371505511458963,,,,,,,,,,,1016,2019_Mar_06_1244,mf_amp_cond2,3.0.4,60.00300210088386,
army,&&&&,right,loyalty.vice,yane,,,,,,,,,,,,,,,0,140,140,46,,,,,,,,,,,,,AMP,right,1.2172176968306303,1,,,,,,,,,,,,,,right,1,1.2172176968306303,,,,,,,,,,,1016,2019_Mar_06_1244,mf_amp_cond2,3.0.4,60.00300210088386,
strength,&&&&&&&,left,sanctity.virtue,vurtain,,,,,,,,,,,,,,,0,141,141,290,,,,,,,,,,,,,AMP,right,0.6837527396855876,0,,,,,,,,,,,,,,right,0,0.6837527396855876,,,,,,,,,,,1016,2019_Mar_06_1244,mf_amp_cond2,3.0.4,60.00300210088386,
corruption,&&&&&&&&,right,sanctity.vice,ugeasily,,,,,,,,,,,,,,,0,142,142,95,,,,,,,,,,,,,AMP,left,0.7670823847874999,0,,,,,,,,,,,,,,left,0,0.7670823847874999,,,,,,,,,,,1016,2019_Mar_06_1244,mf_amp_cond2,3.0.4,60.00300210088386,
corruption,&&&&&&&,right,sanctity.vice,reviked,,,,,,,,,,,,,,,0,143,143,206,,,,,,,,,,,,,AMP,left,1.0505163923371583,0,,,,,,,,,,,,,,left,0,1.0505163923371583,,,,,,,,,,,1016,2019_Mar_06_1244,mf_amp_cond2,3.0.4,60.00300210088386,
clean,&&&&&&&&&,left,sanctity.virtue,tomedians,,,,,,,,,,,,,,,0,144,144,77,,,,,,,,,,,,,AMP,right,0.3169951809104532,0,,,,,,,,,,,,,,right,0,0.3169951809104532,,,,,,,,,,,1016,2019_Mar_06_1244,mf_amp_cond2,3.0.4,60.00300210088386,
care,&&&&&,left,care.virtue,hasks,,,,,,,,,,,,,,,0,145,145,220,,,,,,,,,,,,,AMP,left,0.6670932251727208,1,,,,,,,,,,,,,,left,1,0.6670932251727208,,,,,,,,,,,1016,2019_Mar_06_1244,mf_amp_cond2,3.0.4,60.00300210088386,
hate,&&&&&&&&&&,right,fairness.vice,ejanulated,,,,,,,,,,,,,,,0,146,146,277,,,,,,,,,,,,,AMP,right,0.8171276384964585,1,,,,,,,,,,,,,,right,1,0.8171276384964585,,,,,,,,,,,1016,2019_Mar_06_1244,mf_amp_cond2,3.0.4,60.00300210088386,
shoirmaster,&&&&&&&&&&&&,None,nonword,rorroborated,,,,,,,,,,,,,,,0,147,147,41,,,,,,,,,,,,,AMP,left,0.9671559581765905,0,,,,,,,,,,,,,,left,0,0.9671559581765905,,,,,,,,,,,1016,2019_Mar_06_1244,mf_amp_cond2,3.0.4,60.00300210088386,
nonobservalt,&&&&&&&,None,nonword,gedious,,,,,,,,,,,,,,,0,148,148,49,,,,,,,,,,,,,AMP,left,1.6840128442272544,0,,,,,,,,,,,,,,left,0,1.6840128442272544,,,,,,,,,,,1016,2019_Mar_06_1244,mf_amp_cond2,3.0.4,60.00300210088386,
gazily,&&&&&,None,nonword,dumid,,,,,,,,,,,,,,,0,149,149,110,,,,,,,,,,,,,AMP,left,1.8840591562911868,0,,,,,,,,,,,,,,left,0,1.8840591562911868,,,,,,,,,,,1016,2019_Mar_06_1244,mf_amp_cond2,3.0.4,60.00300210088386,
critics,&&&,right,loyalty.vice,asn,,,,,,,,,,,,,,,0,150,150,181,,,,,,,,,,,,,AMP,left,0.40035978436935693,0,,,,,,,,,,,,,,left,0,0.40035978436935693,,,,,,,,,,,1016,2019_Mar_06_1244,mf_amp_cond2,3.0.4,60.00300210088386,
injured,&&&&&,right,care.vice,tabin,,,,,,,,,,,,,,,0,151,151,55,,,,,,,,,,,,,AMP,left,0.5003848648630083,0,,,,,,,,,,,,,,left,0,0.5003848648630083,,,,,,,,,,,1016,2019_Mar_06_1244,mf_amp_cond2,3.0.4,60.00300210088386,
victim,&&&&&&&&&&,right,care.vice,clattening,,,,,,,,,,,,,,,0,152,152,233,,,,,,,,,,,,,AMP,left,0.5503826518543065,0,,,,,,,,,,,,,,left,0,0.5503826518543065,,,,,,,,,,,1016,2019_Mar_06_1244,mf_amp_cond2,3.0.4,60.00300210088386,
hate,&&&&&&&&,right,fairness.vice,perified,,,,,,,,,,,,,,,0,153,153,168,,,,,,,,,,,,,AMP,left,0.750444358563982,0,,,,,,,,,,,,,,left,0,0.750444358563982,,,,,,,,,,,1016,2019_Mar_06_1244,mf_amp_cond2,3.0.4,60.00300210088386,
loyalty,&&&&&&&&,left,loyalty.virtue,crinking,,,,,,,,,,,,,,,0,154,154,131,,,,,,,,,,,,,AMP,left,0.600428546895273,1,,,,,,,,,,,,,,left,1,0.600428546895273,,,,,,,,,,,1016,2019_Mar_06_1244,mf_amp_cond2,3.0.4,60.00300210088386,
ebbitter,&&&&&&,None,nonword,pumber,,,,,,,,,,,,,,,0,155,155,2,,,,,,,,,,,,,AMP,left,0.4837006547022611,0,,,,,,,,,,,,,,left,0,0.4837006547022611,,,,,,,,,,,1016,2019_Mar_06_1244,mf_amp_cond2,3.0.4,60.00300210088386,
dignity,&&&&&&&&&,left,sanctity.virtue,Lacedonia,,,,,,,,,,,,,,,0,156,156,100,,,,,,,,,,,,,AMP,right,0.6003842875361443,0,,,,,,,,,,,,,,right,0,0.6003842875361443,,,,,,,,,,,1016,2019_Mar_06_1244,mf_amp_cond2,3.0.4,60.00300210088386,
hope,&&&&&&&&&&&&&,left,loyalty.virtue,synchronazers,,,,,,,,,,,,,,,0,157,157,256,,,,,,,,,,,,,AMP,right,0.21696657256688923,0,,,,,,,,,,,,,,right,0,0.21696657256688923,,,,,,,,,,,1016,2019_Mar_06_1244,mf_amp_cond2,3.0.4,60.00300210088386,
died,&&&&&,right,care.vice,tabin,,,,,,,,,,,,,,,0,158,158,211,,,,,,,,,,,,,AMP,right,0.6504083736799657,1,,,,,,,,,,,,,,right,1,0.6504083736799657,,,,,,,,,,,1016,2019_Mar_06_1244,mf_amp_cond2,3.0.4,60.00300210088386,
pleasant,&&&&&&&&,None,control,thabbily,,,,,,,,,,,,,,,0,159,159,201,,,,,,,,,,,,,AMP,right,0.6002297002123669,0,,,,,,,,,,,,,,right,0,0.6002297002123669,,,,,,,,,,,1016,2019_Mar_06_1244,mf_amp_cond2,3.0.4,60.00300210088386,
troubla,&&&&&&&&&&&,None,nonword,mightingale,,,,,,,,,,,,,,,0,160,160,120,,,,,,,,,,,,,AMP,right,0.9171430972637609,0,,,,,,,,,,,,,,right,0,0.9171430972637609,,,,,,,,,,,1016,2019_Mar_06_1244,mf_amp_cond2,3.0.4,60.00300210088386,
dignity,&&&&&&&&,left,sanctity.virtue,thabbily,,,,,,,,,,,,,,,0,161,161,325,,,,,,,,,,,,,AMP,right,0.6504102979088202,0,,,,,,,,,,,,,,right,0,0.6504102979088202,,,,,,,,,,,1016,2019_Mar_06_1244,mf_amp_cond2,3.0.4,60.00300210088386,
faith,&&&&&&&&&&&,left,sanctity.virtue,nomparisons,,,,,,,,,,,,,,,0,162,162,114,,,,,,,,,,,,,AMP,right,0.3503655253443867,0,,,,,,,,,,,,,,right,0,0.3503655253443867,,,,,,,,,,,1016,2019_Mar_06_1244,mf_amp_cond2,3.0.4,60.00300210088386,
died,&&&&&&&&&&,right,care.vice,ecgagement,,,,,,,,,,,,,,,0,163,163,263,,,,,,,,,,,,,AMP,left,0.8838170121889561,0,,,,,,,,,,,,,,left,0,0.8838170121889561,,,,,,,,,,,1016,2019_Mar_06_1244,mf_amp_cond2,3.0.4,60.00300210088386,
groups,&&&&&&&&&&&,right,loyalty.vice,precificity,,,,,,,,,,,,,,,0,164,164,271,,,,,,,,,,,,,AMP,right,1.2339150564512238,1,,,,,,,,,,,,,,right,1,1.2339150564512238,,,,,,,,,,,1016,2019_Mar_06_1244,mf_amp_cond2,3.0.4,60.00300210088386,
failure,&&&&&&&&&&&,right,loyalty.vice,neneficence,,,,,,,,,,,,,,,0,165,165,287,,,,,,,,,,,,,AMP,left,0.25030741083901376,0,,,,,,,,,,,,,,left,0,0.25030741083901376,,,,,,,,,,,1016,2019_Mar_06_1244,mf_amp_cond2,3.0.4,60.00300210088386,
actively,&&&&&&&&&,left,authority.virtue,disregord,,,,,,,,,,,,,,,0,166,166,97,,,,,,,,,,,,,AMP,right,1.3339189692633227,0,,,,,,,,,,,,,,right,0,1.3339189692633227,,,,,,,,,,,1016,2019_Mar_06_1244,mf_amp_cond2,3.0.4,60.00300210088386,
shoirmaster,&&&&&&&&&&&&,None,nonword,feleological,,,,,,,,,,,,,,,0,167,167,269,,,,,,,,,,,,,AMP,left,0.4670350464293733,0,,,,,,,,,,,,,,left,0,0.4670350464293733,,,,,,,,,,,1016,2019_Mar_06_1244,mf_amp_cond2,3.0.4,60.00300210088386,
unpleasant,&&&&&&&&&&&,None,control,hefurbished,,,,,,,,,,,,,,,0,168,168,175,,,,,,,,,,,,,AMP,right,0.5170206461334601,0,,,,,,,,,,,,,,right,0,0.5170206461334601,,,,,,,,,,,1016,2019_Mar_06_1244,mf_amp_cond2,3.0.4,60.00300210088386,
free,&&&&&,left,fairness.virtue,framo,,,,,,,,,,,,,,,0,169,169,150,,,,,,,,,,,,,AMP,right,1.0672041303478181,0,,,,,,,,,,,,,,right,0,1.0672041303478181,,,,,,,,,,,1016,2019_Mar_06_1244,mf_amp_cond2,3.0.4,60.00300210088386,
failure,&&&&&&&&&,right,loyalty.vice,pescinded,,,,,,,,,,,,,,,0,170,170,35,,,,,,,,,,,,,AMP,left,0.6337668194901198,0,,,,,,,,,,,,,,left,0,0.6337668194901198,,,,,,,,,,,1016,2019_Mar_06_1244,mf_amp_cond2,3.0.4,60.00300210088386,
violations,&&&&&,right,sanctity.vice,aubos,,,,,,,,,,,,,,,0,171,171,43,,,,,,,,,,,,,AMP,left,0.48372984025627375,0,,,,,,,,,,,,,,left,0,0.48372984025627375,,,,,,,,,,,1016,2019_Mar_06_1244,mf_amp_cond2,3.0.4,60.00300210088386,
gun,&&&&&&&&&,right,authority.vice,Lacedonia,,,,,,,,,,,,,,,0,172,172,245,,,,,,,,,,,,,AMP,left,0.21697940141893923,0,,,,,,,,,,,,,,left,0,0.21697940141893923,,,,,,,,,,,1016,2019_Mar_06_1244,mf_amp_cond2,3.0.4,60.00300210088386,
threatened,&&&&&&&&&&,right,fairness.vice,honstables,,,,,,,,,,,,,,,0,173,173,214,,,,,,,,,,,,,AMP,left,0.4170192991150543,0,,,,,,,,,,,,,,left,0,0.4170192991150543,,,,,,,,,,,1016,2019_Mar_06_1244,mf_amp_cond2,3.0.4,60.00300210088386,
emassion,&&&&&&&&&,None,nonword,gondensed,,,,,,,,,,,,,,,0,174,174,19,,,,,,,,,,,,,AMP,left,0.3836855167755857,0,,,,,,,,,,,,,,left,0,0.3836855167755857,,,,,,,,,,,1016,2019_Mar_06_1244,mf_amp_cond2,3.0.4,60.00300210088386,
violations,&&&&&&&&&&&,right,sanctity.vice,cromiscuity,,,,,,,,,,,,,,,0,175,175,159,,,,,,,,,,,,,AMP,left,0.4003536907257512,0,,,,,,,,,,,,,,left,0,0.4003536907257512,,,,,,,,,,,1016,2019_Mar_06_1244,mf_amp_cond2,3.0.4,60.00300210088386,
care,&&&&&&&&,left,care.virtue,perified,,,,,,,,,,,,,,,0,176,176,85,,,,,,,,,,,,,AMP,right,0.5670633340487257,0,,,,,,,,,,,,,,right,0,0.5670633340487257,,,,,,,,,,,1016,2019_Mar_06_1244,mf_amp_cond2,3.0.4,60.00300210088386,
grovelire,&&&&&&&&,None,nonword,drumbled,,,,,,,,,,,,,,,0,177,177,279,,,,,,,,,,,,,AMP,right,0.28366268146783113,0,,,,,,,,,,,,,,right,0,0.28366268146783113,,,,,,,,,,,1016,2019_Mar_06_1244,mf_amp_cond2,3.0.4,60.00300210088386,
forced,&&&&&&&&&&&,right,fairness.vice,mightingale,,,,,,,,,,,,,,,0,178,178,281,,,,,,,,,,,,,AMP,right,0.45037072093691677,1,,,,,,,,,,,,,,right,1,0.45037072093691677,,,,,,,,,,,1016,2019_Mar_06_1244,mf_amp_cond2,3.0.4,60.00300210088386,
safe,&&&&&&&&&&&,left,care.virtue,blunderints,,,,,,,,,,,,,,,0,179,179,295,,,,,,,,,,,,,AMP,right,0.4170279585523531,0,,,,,,,,,,,,,,right,0,0.4170279585523531,,,,,,,,,,,1016,2019_Mar_06_1244,mf_amp_cond2,3.0.4,60.00300210088386,
win,&&&&&&&&&&&,left,fairness.virtue,cromiscuity,,,,,,,,,,,,,,,0,180,180,232,,,,,,,,,,,,,AMP,right,0.4003511250484735,0,,,,,,,,,,,,,,right,0,0.4003511250484735,,,,,,,,,,,1016,2019_Mar_06_1244,mf_amp_cond2,3.0.4,60.00300210088386,
great,&&&&&&&&&,left,loyalty.virtue,disregord,,,,,,,,,,,,,,,0,181,181,258,,,,,,,,,,,,,AMP,right,0.23356964031700045,0,,,,,,,,,,,,,,right,0,0.23356964031700045,,,,,,,,,,,1016,2019_Mar_06_1244,mf_amp_cond2,3.0.4,60.00300210088386,
ability,&&&&&&&&&&,left,authority.virtue,ejanulated,,,,,,,,,,,,,,,0,182,182,42,,,,,,,,,,,,,AMP,right,0.38370700494851917,0,,,,,,,,,,,,,,right,0,0.38370700494851917,,,,,,,,,,,1016,2019_Mar_06_1244,mf_amp_cond2,3.0.4,60.00300210088386,
gazily,&&&&&&&&&&,None,nonword,ecgagement,,,,,,,,,,,,,,,0,183,183,243,,,,,,,,,,,,,AMP,right,0.6337437275797129,0,,,,,,,,,,,,,,right,0,0.6337437275797129,,,,,,,,,,,1016,2019_Mar_06_1244,mf_amp_cond2,3.0.4,60.00300210088386,
promote,&&&&,left,sanctity.virtue,tove,,,,,,,,,,,,,,,0,184,184,179,,,,,,,,,,,,,AMP,right,0.4003694060957059,0,,,,,,,,,,,,,,right,0,0.4003694060957059,,,,,,,,,,,1016,2019_Mar_06_1244,mf_amp_cond2,3.0.4,60.00300210088386,
nomaric,&&&&&&&&&&&&&,None,nonword,synchronazers,,,,,,,,,,,,,,,0,185,185,187,,,,,,,,,,,,,AMP,right,0.20031860389281064,0,,,,,,,,,,,,,,right,0,0.20031860389281064,,,,,,,,,,,1016,2019_Mar_06_1244,mf_amp_cond2,3.0.4,60.00300210088386,
opportunity,&&&&&&&&&&,left,fairness.virtue,pistraught,,,,,,,,,,,,,,,0,186,186,272,,,,,,,,,,,,,AMP,right,0.6670890557579696,0,,,,,,,,,,,,,,right,0,0.6670890557579696,,,,,,,,,,,1016,2019_Mar_06_1244,mf_amp_cond2,3.0.4,60.00300210088386,
actively,&&&&&&&&,left,authority.virtue,thabbily,,,,,,,,,,,,,,,0,187,187,67,,,,,,,,,,,,,AMP,right,0.5503974049352109,0,,,,,,,,,,,,,,right,0,0.5503974049352109,,,,,,,,,,,1016,2019_Mar_06_1244,mf_amp_cond2,3.0.4,60.00300210088386,
arrests,&&&&&&&&&,right,authority.vice,seachwear,,,,,,,,,,,,,,,0,188,188,121,,,,,,,,,,,,,AMP,right,1.0171871001366526,1,,,,,,,,,,,,,,right,1,1.0171871001366526,,,,,,,,,,,1016,2019_Mar_06_1244,mf_amp_cond2,3.0.4,60.00300210088386,
suicide,&&&&&&&&&&&,right,care.vice,egpeditious,,,,,,,,,,,,,,,0,189,189,123,,,,,,,,,,,,,AMP,right,2.050778100383468,1,,,,,,,,,,,,,,right,1,2.050778100383468,,,,,,,,,,,1016,2019_Mar_06_1244,mf_amp_cond2,3.0.4,60.00300210088386,
grovelire,&&&&&&&&,None,nonword,thadowed,,,,,,,,,,,,,,,0,190,190,111,,,,,,,,,,,,,AMP,left,0.5837366395862773,0,,,,,,,,,,,,,,left,0,0.5837366395862773,,,,,,,,,,,1016,2019_Mar_06_1244,mf_amp_cond2,3.0.4,60.00300210088386,
harassment,&&&&&&&&&&,right,sanctity.vice,ecgagement,,,,,,,,,,,,,,,0,191,191,98,,,,,,,,,,,,,AMP,left,0.7337768259458244,0,,,,,,,,,,,,,,left,0,0.7337768259458244,,,,,,,,,,,1016,2019_Mar_06_1244,mf_amp_cond2,3.0.4,60.00300210088386,
injured,&&&&&&&,right,care.vice,dramens,,,,,,,,,,,,,,,0,192,192,298,,,,,,,,,,,,,AMP,left,0.23362576647195965,0,,,,,,,,,,,,,,left,0,0.23362576647195965,,,,,,,,,,,1016,2019_Mar_06_1244,mf_amp_cond2,3.0.4,60.00300210088386,
pleasant,&&&&&&,None,control,greaks,,,,,,,,,,,,,,,0,193,193,53,,,,,,,,,,,,,AMP,right,0.15028553758747876,0,,,,,,,,,,,,,,right,0,0.15028553758747876,,,,,,,,,,,1016,2019_Mar_06_1244,mf_amp_cond2,3.0.4,60.00300210088386,
embrace,&&&&&&&&,left,authority.virtue,proached,,,,,,,,,,,,,,,0,194,194,79,,,,,,,,,,,,,AMP,right,0.383692572475411,0,,,,,,,,,,,,,,right,0,0.383692572475411,,,,,,,,,,,1016,2019_Mar_06_1244,mf_amp_cond2,3.0.4,60.00300210088386,
drug,&&&&&&&&,right,sanctity.vice,thadowed,,,,,,,,,,,,,,,0,195,195,297,,,,,,,,,,,,,AMP,left,0.40034887997899204,0,,,,,,,,,,,,,,left,0,0.40034887997899204,,,,,,,,,,,1016,2019_Mar_06_1244,mf_amp_cond2,3.0.4,60.00300210088386,
forced,&&&&&&&&&&&&&,right,fairness.vice,synchronazers,,,,,,,,,,,,,,,0,196,196,39,,,,,,,,,,,,,AMP,right,0.2336401988286525,1,,,,,,,,,,,,,,right,1,0.2336401988286525,,,,,,,,,,,1016,2019_Mar_06_1244,mf_amp_cond2,3.0.4,60.00300210088386,
safety,&&&&&&,left,care.virtue,antral,,,,,,,,,,,,,,,0,197,197,143,,,,,,,,,,,,,AMP,left,1.1171839571325108,1,,,,,,,,,,,,,,left,1,1.1171839571325108,,,,,,,,,,,1016,2019_Mar_06_1244,mf_amp_cond2,3.0.4,60.00300210088386,
ebbitter,&&&&&&&&&&,None,nonword,honstables,,,,,,,,,,,,,,,0,198,198,136,,,,,,,,,,,,,AMP,right,0.6171101912623271,0,,,,,,,,,,,,,,right,0,0.6171101912623271,,,,,,,,,,,1016,2019_Mar_06_1244,mf_amp_cond2,3.0.4,60.00300210088386,
arrests,&&&&&&&,right,authority.vice,pharing,,,,,,,,,,,,,,,0,199,199,61,,,,,,,,,,,,,AMP,left,0.8504594964906573,0,,,,,,,,,,,,,,left,0,0.8504594964906573,,,,,,,,,,,1016,2019_Mar_06_1244,mf_amp_cond2,3.0.4,60.00300210088386,
opportunity,&&&&&&&&&,left,fairness.virtue,gillipede,,,,,,,,,,,,,,,0,200,200,240,,,,,,,,,,,,,AMP,right,0.883815408567898,0,,,,,,,,,,,,,,right,0,0.883815408567898,,,,,,,,,,,1016,2019_Mar_06_1244,mf_amp_cond2,3.0.4,60.00300210088386,
refused,&&&&,right,authority.vice,spag,,,,,,,,,,,,,,,0,201,201,80,,,,,,,,,,,,,AMP,left,0.3336444324813783,0,,,,,,,,,,,,,,left,0,0.3336444324813783,,,,,,,,,,,1016,2019_Mar_06_1244,mf_amp_cond2,3.0.4,60.00300210088386,
encourage,&&&&&&&&&,left,authority.virtue,tenuflect,,,,,,,,,,,,,,,0,202,202,198,,,,,,,,,,,,,AMP,right,0.45035564713180065,0,,,,,,,,,,,,,,right,0,0.45035564713180065,,,,,,,,,,,1016,2019_Mar_06_1244,mf_amp_cond2,3.0.4,60.00300210088386,
support,&&&&&&&,left,loyalty.virtue,menizen,,,,,,,,,,,,,,,0,203,203,202,,,,,,,,,,,,,AMP,right,0.5337061389582232,0,,,,,,,,,,,,,,right,0,0.5337061389582232,,,,,,,,,,,1016,2019_Mar_06_1244,mf_amp_cond2,3.0.4,60.00300210088386,
strength,&&&&&&&&&&,left,sanctity.virtue,totalestic,,,,,,,,,,,,,,,0,204,204,146,,,,,,,,,,,,,AMP,right,1.233884267276153,0,,,,,,,,,,,,,,right,0,1.233884267276153,,,,,,,,,,,1016,2019_Mar_06_1244,mf_amp_cond2,3.0.4,60.00300210088386,
encourage,&&&&,left,authority.virtue,tove,,,,,,,,,,,,,,,0,205,205,9,,,,,,,,,,,,,AMP,right,0.33365758194122463,0,,,,,,,,,,,,,,right,0,0.33365758194122463,,,,,,,,,,,1016,2019_Mar_06_1244,mf_amp_cond2,3.0.4,60.00300210088386,
perfect,&&&&&,left,sanctity.virtue,framo,,,,,,,,,,,,,,,0,206,206,180,,,,,,,,,,,,,AMP,right,0.5337087048683316,0,,,,,,,,,,,,,,right,0,0.5337087048683316,,,,,,,,,,,1016,2019_Mar_06_1244,mf_amp_cond2,3.0.4,60.00300210088386,
promote,&&&&&&&&&&&,left,sanctity.virtue,nomparisons,,,,,,,,,,,,,,,0,207,207,26,,,,,,,,,,,,,AMP,right,1.2839022596599534,0,,,,,,,,,,,,,,right,0,1.2839022596599534,,,,,,,,,,,1016,2019_Mar_06_1244,mf_amp_cond2,3.0.4,60.00300210088386,
groups,&&&&&&&,right,loyalty.vice,allears,,,,,,,,,,,,,,,0,208,208,236,,,,,,,,,,,,,AMP,right,0.38366114196833223,1,,,,,,,,,,,,,,right,1,0.38366114196833223,,,,,,,,,,,1016,2019_Mar_06_1244,mf_amp_cond2,3.0.4,60.00300210088386,
safe,&&&&&&&&&&&&,left,care.virtue,feleological,,,,,,,,,,,,,,,0,209,209,148,,,,,,,,,,,,,AMP,right,0.0669129160232842,0,,,,,,,,,,,,,,right,0,0.0669129160232842,,,,,,,,,,,1016,2019_Mar_06_1244,mf_amp_cond2,3.0.4,60.00300210088386,
shot,&&&&&&&&&&&,right,care.vice,precificity,,,,,,,,,,,,,,,0,210,210,177,,,,,,,,,,,,,AMP,left,0.967167183291167,0,,,,,,,,,,,,,,left,0,0.967167183291167,,,,,,,,,,,1016,2019_Mar_06_1244,mf_amp_cond2,3.0.4,60.00300210088386,
protesters,&&&&&&&&&,right,authority.vice,Lacedonia,,,,,,,,,,,,,,,0,211,211,306,,,,,,,,,,,,,AMP,right,0.4837064277380705,1,,,,,,,,,,,,,,right,1,0.4837064277380705,,,,,,,,,,,1016,2019_Mar_06_1244,mf_amp_cond2,3.0.4,60.00300210088386,
grovelire,&&&&&&&&,None,nonword,proached,,,,,,,,,,,,,,,0,212,212,229,,,,,,,,,,,,,AMP,right,1.4839424781966954,0,,,,,,,,,,,,,,right,0,1.4839424781966954,,,,,,,,,,,1016,2019_Mar_06_1244,mf_amp_cond2,3.0.4,60.00300210088386,
gournful,&&&&&&&&&&,None,nonword,pistraught,,,,,,,,,,,,,,,0,213,213,223,,,,,,,,,,,,,AMP,right,2.384186482289806,0,,,,,,,,,,,,,,right,0,2.384186482289806,,,,,,,,,,,1016,2019_Mar_06_1244,mf_amp_cond2,3.0.4,60.00300210088386,
actively,&&&&&&&&,left,authority.virtue,sfumatoy,,,,,,,,,,,,,,,0,214,214,183,,,,,,,,,,,,,AMP,left,0.1336308338213712,1,,,,,,,,,,,,,,left,1,0.1336308338213712,,,,,,,,,,,1016,2019_Mar_06_1244,mf_amp_cond2,3.0.4,60.00300210088386,
shot,&&&,right,care.vice,asn,,,,,,,,,,,,,,,0,215,215,17,,,,,,,,,,,,,AMP,left,0.35032671818044037,0,,,,,,,,,,,,,,left,0,0.35032671818044037,,,,,,,,,,,1016,2019_Mar_06_1244,mf_amp_cond2,3.0.4,60.00300210088386,
intelligence,&&&&&,left,loyalty.virtue,touls,,,,,,,,,,,,,,,0,216,216,251,,,,,,,,,,,,,AMP,right,0.30032957263756543,0,,,,,,,,,,,,,,right,0,0.30032957263756543,,,,,,,,,,,1016,2019_Mar_06_1244,mf_amp_cond2,3.0.4,60.00300210088386,
fear,&&&&&&&&&,right,sanctity.vice,seachwear,,,,,,,,,,,,,,,0,217,217,196,,,,,,,,,,,,,AMP,left,0.4170151297003031,0,,,,,,,,,,,,,,left,0,0.4170151297003031,,,,,,,,,,,1016,2019_Mar_06_1244,mf_amp_cond2,3.0.4,60.00300210088386,
gazily,&&&&&&&&&&,None,nonword,Oregoniuns,,,,,,,,,,,,,,,0,218,218,70,,,,,,,,,,,,,AMP,right,0.1336151184514165,0,,,,,,,,,,,,,,right,0,0.1336151184514165,,,,,,,,,,,1016,2019_Mar_06_1244,mf_amp_cond2,3.0.4,60.00300210088386,
died,&&&&&&&&&&&&,right,care.vice,rorroborated,,,,,,,,,,,,,,,0,219,219,135,,,,,,,,,,,,,AMP,left,0.16694761801045388,0,,,,,,,,,,,,,,left,0,0.16694761801045388,,,,,,,,,,,1016,2019_Mar_06_1244,mf_amp_cond2,3.0.4,60.00300210088386,
ban,&&&&&&&&,right,loyalty.vice,ugeasily,,,,,,,,,,,,,,,0,220,220,308,,,,,,,,,,,,,AMP,right,0.7170874841976911,1,,,,,,,,,,,,,,right,1,0.7170874841976911,,,,,,,,,,,1016,2019_Mar_06_1244,mf_amp_cond2,3.0.4,60.00300210088386,
victims,&&&&,right,care.vice,tove,,,,,,,,,,,,,,,0,221,221,117,,,,,,,,,,,,,AMP,left,0.3169942187378183,0,,,,,,,,,,,,,,left,0,0.3169942187378183,,,,,,,,,,,1016,2019_Mar_06_1244,mf_amp_cond2,3.0.4,60.00300210088386,
sharing,&&&&&&&&&&&,left,loyalty.virtue,neneficence,,,,,,,,,,,,,,,0,222,222,116,,,,,,,,,,,,,AMP,right,0.1669546739431098,0,,,,,,,,,,,,,,right,0,0.1669546739431098,,,,,,,,,,,1016,2019_Mar_06_1244,mf_amp_cond2,3.0.4,60.00300210088386,
violations,&&&&&&&&&&,right,sanctity.vice,totalestic,,,,,,,,,,,,,,,0,223,223,230,,,,,,,,,,,,,AMP,left,0.3169922942761332,0,,,,,,,,,,,,,,left,0,0.3169922942761332,,,,,,,,,,,1016,2019_Mar_06_1244,mf_amp_cond2,3.0.4,60.00300210088386,
terrorists,&&&&&&&&&,right,fairness.vice,gondensed,,,,,,,,,,,,,,,0,224,224,226,,,,,,,,,,,,,AMP,right,0.2836504939477891,1,,,,,,,,,,,,,,right,1,0.2836504939477891,,,,,,,,,,,1016,2019_Mar_06_1244,mf_amp_cond2,3.0.4,60.00300210088386,
emassion,&&&&&,None,nonword,mecan,,,,,,,,,,,,,,,0,225,225,149,,,,,,,,,,,,,AMP,right,0.4003286745864898,0,,,,,,,,,,,,,,right,0,0.4003286745864898,,,,,,,,,,,1016,2019_Mar_06_1244,mf_amp_cond2,3.0.4,60.00300210088386,
slavery,&&&&&&&,right,loyalty.vice,gedious,,,,,,,,,,,,,,,0,226,226,254,,,,,,,,,,,,,AMP,left,1.2005466362461448,0,,,,,,,,,,,,,,left,0,1.2005466362461448,,,,,,,,,,,1016,2019_Mar_06_1244,mf_amp_cond2,3.0.4,60.00300210088386,
fair,&&&&&&&&&,left,fairness.virtue,gondensed,,,,,,,,,,,,,,,0,227,227,301,,,,,,,,,,,,,AMP,left,0.4003710097167641,1,,,,,,,,,,,,,,left,1,0.4003710097167641,,,,,,,,,,,1016,2019_Mar_06_1244,mf_amp_cond2,3.0.4,60.00300210088386,
trust,&&&&&&&&,left,authority.virtue,tracious,,,,,,,,,,,,,,,0,228,228,285,,,,,,,,,,,,,AMP,right,0.4170225062407553,0,,,,,,,,,,,,,,right,0,0.4170225062407553,,,,,,,,,,,1016,2019_Mar_06_1244,mf_amp_cond2,3.0.4,60.00300210088386,
ban,&&&&&&&&&&,right,loyalty.vice,Oregoniuns,,,,,,,,,,,,,,,0,229,229,134,,,,,,,,,,,,,AMP,right,0.6337418032344431,1,,,,,,,,,,,,,,right,1,0.6337418032344431,,,,,,,,,,,1016,2019_Mar_06_1244,mf_amp_cond2,3.0.4,60.00300210088386,
critics,&&&&&&&&&&&,right,loyalty.vice,egpeditious,,,,,,,,,,,,,,,0,230,230,293,,,,,,,,,,,,,AMP,left,0.43369677395094186,0,,,,,,,,,,,,,,left,0,0.43369677395094186,,,,,,,,,,,1016,2019_Mar_06_1244,mf_amp_cond2,3.0.4,60.00300210088386,
faith,&&&&&,left,sanctity.virtue,hasks,,,,,,,,,,,,,,,0,231,231,75,,,,,,,,,,,,,AMP,right,0.43370062264148146,0,,,,,,,,,,,,,,right,0,0.43370062264148146,,,,,,,,,,,1016,2019_Mar_06_1244,mf_amp_cond2,3.0.4,60.00300210088386,
support,&&&&&&,left,loyalty.virtue,greaks,,,,,,,,,,,,,,,0,232,232,273,,,,,,,,,,,,,AMP,right,1.0338511047884822,0,,,,,,,,,,,,,,right,0,1.0338511047884822,,,,,,,,,,,1016,2019_Mar_06_1244,mf_amp_cond2,3.0.4,60.00300210088386,
suicide,&&&&&,right,care.vice,framo,,,,,,,,,,,,,,,0,233,233,0,,,,,,,,,,,,,AMP,left,0.25030452432110906,0,,,,,,,,,,,,,,left,0,0.25030452432110906,,,,,,,,,,,1016,2019_Mar_06_1244,mf_amp_cond2,3.0.4,60.00300210088386,
terrorists,&&&&&&&&,right,fairness.vice,ugeasily,,,,,,,,,,,,,,,0,234,234,13,,,,,,,,,,,,,AMP,left,0.8504604586632922,0,,,,,,,,,,,,,,left,0,0.8504604586632922,,,,,,,,,,,1016,2019_Mar_06_1244,mf_amp_cond2,3.0.4,60.00300210088386,
slavery,&&&&&&&&,right,loyalty.vice,pullness,,,,,,,,,,,,,,,0,235,235,242,,,,,,,,,,,,,AMP,left,0.3836884031770751,0,,,,,,,,,,,,,,left,0,0.3836884031770751,,,,,,,,,,,1016,2019_Mar_06_1244,mf_amp_cond2,3.0.4,60.00300210088386,
victim,&&&&&&&&,right,care.vice,lachelor,,,,,,,,,,,,,,,0,236,236,34,,,,,,,,,,,,,AMP,right,0.6670762269059196,1,,,,,,,,,,,,,,right,1,0.6670762269059196,,,,,,,,,,,1016,2019_Mar_06_1244,mf_amp_cond2,3.0.4,60.00300210088386,
shot,&&&&&&&&&&&&,right,care.vice,unreflectuve,,,,,,,,,,,,,,,0,237,237,140,,,,,,,,,,,,,AMP,left,0.483701616874896,0,,,,,,,,,,,,,,left,0,0.483701616874896,,,,,,,,,,,1016,2019_Mar_06_1244,mf_amp_cond2,3.0.4,60.00300210088386,
gournful,&&&,None,nonword,asn,,,,,,,,,,,,,,,0,238,238,283,,,,,,,,,,,,,AMP,right,0.600396474939771,0,,,,,,,,,,,,,,right,0,0.600396474939771,,,,,,,,,,,1016,2019_Mar_06_1244,mf_amp_cond2,3.0.4,60.00300210088386,
critics,&&&&&&&&&&,right,loyalty.vice,ejanulated,,,,,,,,,,,,,,,0,239,239,87,,,,,,,,,,,,,AMP,left,0.3003549095010385,0,,,,,,,,,,,,,,left,0,0.3003549095010385,,,,,,,,,,,1016,2019_Mar_06_1244,mf_amp_cond2,3.0.4,60.00300210088386,
illegal,&&&&&&&&&,right,fairness.vice,brotesque,,,,,,,,,,,,,,,0,240,240,57,,,,,,,,,,,,,AMP,left,0.26701503340154886,0,,,,,,,,,,,,,,left,0,0.26701503340154886,,,,,,,,,,,1016,2019_Mar_06_1244,mf_amp_cond2,3.0.4,60.00300210088386,
growth,&&&&&&&&&&&,left,care.virtue,ilportation,,,,,,,,,,,,,,,0,241,241,145,,,,,,,,,,,,,AMP,right,0.4503607787191868,0,,,,,,,,,,,,,,right,0,0.4503607787191868,,,,,,,,,,,1016,2019_Mar_06_1244,mf_amp_cond2,3.0.4,60.00300210088386,
grovelire,&&&&&&&&&&&,None,nonword,mightingale,,,,,,,,,,,,,,,0,242,242,11,,,,,,,,,,,,,AMP,left,0.4337217902066186,0,,,,,,,,,,,,,,left,0,0.4337217902066186,,,,,,,,,,,1016,2019_Mar_06_1244,mf_amp_cond2,3.0.4,60.00300210088386,
