words,nonwords,mask,corr_ans,category,tweets,topic,AMP_prac_loop.thisRepN,AMP_prac_loop.thisTrialN,AMP_prac_loop.thisN,AMP_prac_loop.thisIndex,AMP_trials.thisRepN,AMP_trials.thisTrialN,AMP_trials.thisN,AMP_trials.thisIndex,LDT_prac_loop.thisRepN,LDT_prac_loop.thisTrialN,LDT_prac_loop.thisN,LDT_prac_loop.thisIndex,LDT_loop.thisRepN,LDT_loop.thisTrialN,LDT_loop.thisN,LDT_loop.thisIndex,tweet_loop.thisRepN,tweet_loop.thisTrialN,tweet_loop.thisN,tweet_loop.thisIndex,begin_key.keys,begin_key.rt,key_resp_AMP_instr1.keys,key_resp_AMP_instr1.rt,resp_AMP_ready1.keys,resp_AMP_ready1.rt,resp_AMP_prac.keys,resp_AMP_prac.rt,task,keypress,RT,resp_AMP_ready.keys,resp_AMP_ready.rt,resp_AMP.keys,resp_AMP.corr,resp_AMP.rt,corr,AMP_nonword_rating.response,AMP_nonword_rating.rt,AMP_word_rating.response,AMP_word_rating.rt,AMP_random_rating.response,AMP_random_rating.rt,key_resp_LDT_instr.keys,key_resp_LDT_instr.rt,resp_LDT_prac.keys,resp_LDT_prac.rt,resp_LDT_ready.keys,resp_LDT_ready.rt,resp_LDT.keys,resp_LDT.corr,resp_LDT.rt,LDT_rating.response,LDT_rating.rt,key_resp_LDT_instr_2.keys,key_resp_LDT_instr_2.rt,resp_tweets.keys,resp_tweets.rt,participant,date,expName,psychopyVersion,frameRate,
,,,,,,,,,,,,,,,,,,,,,,,,,,,right,1261.4318215203239,,,,,,,,,,,,,,,,,,,,,,,,,,,,,,,,,,,,,1017,2019_Mar_06_1245,mf_amp_cond1,3.0.4,59.98603264524671,
,,,,,,,,,,,,,,,,,,,,,,,,,,,,,right,0.8004520877730101,,,,,,,,,,,,,,,,,,,,,,,,,,,,,,,,,,,1017,2019_Mar_06_1245,mf_amp_cond1,3.0.4,59.98603264524671,
,,,,,,,,,,,,,,,,,,,,,,,,,,,,,,,right,1.767371033434756,,,,,,,,,,,,,,,,,,,,,,,,,,,,,,,,,1017,2019_Mar_06_1245,mf_amp_cond1,3.0.4,59.98603264524671,
banana,kacket,&&&&&&,,,,,0,0,0,1,,,,,,,,,,,,,,,,,,,,,,,right,3.8011721058283,AMP_prac,right,3.8011721058283,,,,,,,,,,,,,,,,,,,,,,,,,,,,1017,2019_Mar_06_1245,mf_amp_cond1,3.0.4,59.98603264524671,
keyboard,senk,&&&&,,,,,0,1,1,2,,,,,,,,,,,,,,,,,,,,,,,left,1.5506113256560639,AMP_prac,left,1.5506113256560639,,,,,,,,,,,,,,,,,,,,,,,,,,,,1017,2019_Mar_06_1245,mf_amp_cond1,3.0.4,59.98603264524671,
car,cemtuper,&&&&&&&&,,,,,0,2,2,0,,,,,,,,,,,,,,,,,,,,,,,right,1.733989784377627,AMP_prac,right,1.733989784377627,,,,,,,,,,,,,,,,,,,,,,,,,,,,1017,2019_Mar_06_1245,mf_amp_cond1,3.0.4,59.98603264524671,
scarf,bisebell,&&&&&&&&,,,,,0,3,3,3,,,,,,,,,,,,,,,,,,,,,,,right,0.5003614521119744,AMP_prac,right,0.5003614521119744,,,,,,,,,,,,,,,,,,,,,,,,,,,,1017,2019_Mar_06_1245,mf_amp_cond1,3.0.4,59.98603264524671,
,,,,,,,,,,,,,,,,,,,,,,,,,,,,,,,,,,,,,,right,1.3172527195420116,,,,,,,,,,,,,,,,,,,,,,,,,,1017,2019_Mar_06_1245,mf_amp_cond1,3.0.4,59.98603264524671,
praised,saned,&&&&&,left,loyalty.virtue,,,,,,,0,0,0,0,,,,,,,,,,,,,,,,,,,,,AMP,left,0.4336903595831245,,,left,1,0.4336903595831245,1,,,,,,,,,,,,,,,,,,,,,,1017,2019_Mar_06_1245,mf_amp_cond1,3.0.4,59.98603264524671,
ban,rivernoat,&&&&&&&&&,right,loyalty.vice,,,,,,,0,1,1,1,,,,,,,,,,,,,,,,,,,,,AMP,left,0.4503126706695184,,,left,0,0.4503126706695184,0,,,,,,,,,,,,,,,,,,,,,,1017,2019_Mar_06_1245,mf_amp_cond1,3.0.4,59.98603264524671,
sexual,glacenta,&&&&&&&&,right,sanctity.vice,,,,,,,0,2,2,2,,,,,,,,,,,,,,,,,,,,,AMP,right,0.2670249758521095,,,right,1,0.2670249758521095,1,,,,,,,,,,,,,,,,,,,,,,1017,2019_Mar_06_1245,mf_amp_cond1,3.0.4,59.98603264524671,
credit,gaultless,&&&&&&&&&,left,fairness.virtue,,,,,,,0,3,3,3,,,,,,,,,,,,,,,,,,,,,AMP,right,1.2172350157052279,,,right,0,1.2172350157052279,0,,,,,,,,,,,,,,,,,,,,,,1017,2019_Mar_06_1245,mf_amp_cond1,3.0.4,59.98603264524671,
sliptery,ebbitter,&&&&&&&&,None,nonword,,,,,,,0,4,4,4,,,,,,,,,,,,,,,,,,,,,AMP,right,0.2836812832392752,,,right,0,0.2836812832392752,0,,,,,,,,,,,,,,,,,,,,,,1017,2019_Mar_06_1245,mf_amp_cond1,3.0.4,59.98603264524671,
intelligence,leact,&&&&&,left,loyalty.virtue,,,,,,,0,5,5,5,,,,,,,,,,,,,,,,,,,,,AMP,right,0.7671003451105207,,,right,0,0.7671003451105207,0,,,,,,,,,,,,,,,,,,,,,,1017,2019_Mar_06_1245,mf_amp_cond1,3.0.4,59.98603264524671,
increase,tabin,&&&&&,left,care.virtue,,,,,,,0,6,6,6,,,,,,,,,,,,,,,,,,,,,AMP,left,0.4670360086020082,,,left,1,0.4670360086020082,1,,,,,,,,,,,,,,,,,,,,,,1017,2019_Mar_06_1245,mf_amp_cond1,3.0.4,59.98603264524671,
ejanulated,esquisiteness,&&&&&&&&&&&&&,None,nonword,,,,,,,0,7,7,7,,,,,,,,,,,,,,,,,,,,,AMP,right,0.4503668723627925,,,right,0,0.4503668723627925,0,,,,,,,,,,,,,,,,,,,,,,1017,2019_Mar_06_1245,mf_amp_cond1,3.0.4,59.98603264524671,
rejected,chadows,&&&&&&&,right,authority.vice,,,,,,,0,8,8,8,,,,,,,,,,,,,,,,,,,,,AMP,right,0.5670726349344477,,,right,1,0.5670726349344477,1,,,,,,,,,,,,,,,,,,,,,,1017,2019_Mar_06_1245,mf_amp_cond1,3.0.4,59.98603264524671,
accused,neputized,&&&&&&&&&,right,fairness.vice,,,,,,,0,9,9,9,,,,,,,,,,,,,,,,,,,,,AMP,left,0.8004726140061393,,,left,0,0.8004726140061393,0,,,,,,,,,,,,,,,,,,,,,,1017,2019_Mar_06_1245,mf_amp_cond1,3.0.4,59.98603264524671,
trust,fornicalion,&&&&&&&&&&&,left,authority.virtue,,,,,,,0,10,10,10,,,,,,,,,,,,,,,,,,,,,AMP,left,0.4837038619443774,,,left,1,0.4837038619443774,1,,,,,,,,,,,,,,,,,,,,,,1017,2019_Mar_06_1245,mf_amp_cond1,3.0.4,59.98603264524671,
safety,letish,&&&&&&,left,care.virtue,,,,,,,0,11,11,11,,,,,,,,,,,,,,,,,,,,,AMP,left,0.7171060860855505,,,left,1,0.7171060860855505,1,,,,,,,,,,,,,,,,,,,,,,1017,2019_Mar_06_1245,mf_amp_cond1,3.0.4,59.98603264524671,
tenuflect,proached,&&&&&&&&,None,nonword,,,,,,,0,12,12,12,,,,,,,,,,,,,,,,,,,,,AMP,right,0.21699094725772738,,,right,0,0.21699094725772738,0,,,,,,,,,,,,,,,,,,,,,,1017,2019_Mar_06_1245,mf_amp_cond1,3.0.4,59.98603264524671,
abuse,coom,&&&&,right,sanctity.vice,,,,,,,0,13,13,13,,,,,,,,,,,,,,,,,,,,,AMP,right,0.3336482810555026,,,right,1,0.3336482810555026,1,,,,,,,,,,,,,,,,,,,,,,1017,2019_Mar_06_1245,mf_amp_cond1,3.0.4,59.98603264524671,
perfect,idexpressible,&&&&&&&&&&&&&,left,sanctity.virtue,,,,,,,0,14,14,14,,,,,,,,,,,,,,,,,,,,,AMP,right,0.2671160604804754,,,right,0,0.2671160604804754,0,,,,,,,,,,,,,,,,,,,,,,1017,2019_Mar_06_1245,mf_amp_cond1,3.0.4,59.98603264524671,
slavery,sfumatoy,&&&&&&&&,right,loyalty.vice,,,,,,,0,15,15,15,,,,,,,,,,,,,,,,,,,,,AMP,left,0.933817685698159,,,left,0,0.933817685698159,0,,,,,,,,,,,,,,,,,,,,,,1017,2019_Mar_06_1245,mf_amp_cond1,3.0.4,59.98603264524671,
threatened,erks,&&&&,right,fairness.vice,,,,,,,0,16,16,16,,,,,,,,,,,,,,,,,,,,,AMP,left,1.5506485293153673,,,left,0,1.5506485293153673,0,,,,,,,,,,,,,,,,,,,,,,1017,2019_Mar_06_1245,mf_amp_cond1,3.0.4,59.98603264524671,
killed,baklara,&&&&&&&,right,care.vice,,,,,,,0,17,17,17,,,,,,,,,,,,,,,,,,,,,AMP,right,0.2836322129005566,,,right,1,0.2836322129005566,1,,,,,,,,,,,,,,,,,,,,,,1017,2019_Mar_06_1245,mf_amp_cond1,3.0.4,59.98603264524671,
violence,quarterbocks,&&&&&&&&&&&&,right,care.vice,,,,,,,0,18,18,18,,,,,,,,,,,,,,,,,,,,,AMP,right,0.4670507616829127,,,right,1,0.4670507616829127,1,,,,,,,,,,,,,,,,,,,,,,1017,2019_Mar_06_1245,mf_amp_cond1,3.0.4,59.98603264524671,
sharing,lachelor,&&&&&&&&,left,loyalty.virtue,,,,,,,0,19,19,19,,,,,,,,,,,,,,,,,,,,,AMP,right,0.6337151833577082,,,right,0,0.6337151833577082,0,,,,,,,,,,,,,,,,,,,,,,1017,2019_Mar_06_1245,mf_amp_cond1,3.0.4,59.98603264524671,
hate,crilfully,&&&&&&&&&,right,fairness.vice,,,,,,,0,20,20,20,,,,,,,,,,,,,,,,,,,,,AMP,right,0.7170826734509319,,,right,1,0.7170826734509319,1,,,,,,,,,,,,,,,,,,,,,,1017,2019_Mar_06_1245,mf_amp_cond1,3.0.4,59.98603264524671,
victims,oam,&&&,right,care.vice,,,,,,,0,21,21,21,,,,,,,,,,,,,,,,,,,,,AMP,left,0.5003903170581907,,,left,0,0.5003903170581907,0,,,,,,,,,,,,,,,,,,,,,,1017,2019_Mar_06_1245,mf_amp_cond1,3.0.4,59.98603264524671,
torture,framo,&&&&&,right,care.vice,,,,,,,0,22,22,22,,,,,,,,,,,,,,,,,,,,,AMP,left,0.28365626698359847,,,left,0,0.28365626698359847,0,,,,,,,,,,,,,,,,,,,,,,1017,2019_Mar_06_1245,mf_amp_cond1,3.0.4,59.98603264524671,
safe,clattening,&&&&&&&&&&,left,care.virtue,,,,,,,0,23,23,23,,,,,,,,,,,,,,,,,,,,,AMP,left,0.5170879974029958,,,left,1,0.5170879974029958,1,,,,,,,,,,,,,,,,,,,,,,1017,2019_Mar_06_1245,mf_amp_cond1,3.0.4,59.98603264524671,
penalty,allears,&&&&&&&,right,authority.vice,,,,,,,0,24,24,24,,,,,,,,,,,,,,,,,,,,,AMP,right,0.750350387301296,,,right,1,0.750350387301296,1,,,,,,,,,,,,,,,,,,,,,,1017,2019_Mar_06_1245,mf_amp_cond1,3.0.4,59.98603264524671,
friends,feleological,&&&&&&&&&&&&,left,loyalty.virtue,,,,,,,0,25,25,25,,,,,,,,,,,,,,,,,,,,,AMP,left,0.46701452031265944,,,left,1,0.46701452031265944,1,,,,,,,,,,,,,,,,,,,,,,1017,2019_Mar_06_1245,mf_amp_cond1,3.0.4,59.98603264524671,
unpleasant,nomparisons,&&&&&&&&&&&,None,control,,,,,,,0,26,26,26,,,,,,,,,,,,,,,,,,,,,AMP,left,0.41703982511535287,,,left,0,0.41703982511535287,0,,,,,,,,,,,,,,,,,,,,,,1017,2019_Mar_06_1245,mf_amp_cond1,3.0.4,59.98603264524671,
voter,touls,&&&&&,right,fairness.vice,,,,,,,0,27,27,27,,,,,,,,,,,,,,,,,,,,,AMP,right,0.5003903170581907,,,right,1,0.5003903170581907,1,,,,,,,,,,,,,,,,,,,,,,1017,2019_Mar_06_1245,mf_amp_cond1,3.0.4,59.98603264524671,
death,chonograph,&&&&&&&&&&,right,care.vice,,,,,,,0,28,28,28,,,,,,,,,,,,,,,,,,,,,AMP,left,0.6504218438640237,,,left,0,0.6504218438640237,0,,,,,,,,,,,,,,,,,,,,,,1017,2019_Mar_06_1245,mf_amp_cond1,3.0.4,59.98603264524671,
grovelire,pulge,&&&&&,None,nonword,,,,,,,0,29,29,29,,,,,,,,,,,,,,,,,,,,,AMP,right,0.6337376338196918,,,right,0,0.6337376338196918,0,,,,,,,,,,,,,,,,,,,,,,1017,2019_Mar_06_1245,mf_amp_cond1,3.0.4,59.98603264524671,
health,brudent,&&&&&&&,left,care.virtue,,,,,,,0,30,30,30,,,,,,,,,,,,,,,,,,,,,AMP,left,0.6003987198928371,,,left,1,0.6003987198928371,1,,,,,,,,,,,,,,,,,,,,,,1017,2019_Mar_06_1245,mf_amp_cond1,3.0.4,59.98603264524671,
win,gournful,&&&&&&&&,left,fairness.virtue,,,,,,,0,31,31,31,,,,,,,,,,,,,,,,,,,,,AMP,left,0.30037928430829197,,,left,1,0.30037928430829197,1,,,,,,,,,,,,,,,,,,,,,,1017,2019_Mar_06_1245,mf_amp_cond1,3.0.4,59.98603264524671,
opportunity,bluently,&&&&&&&&,left,fairness.virtue,,,,,,,0,32,32,32,,,,,,,,,,,,,,,,,,,,,AMP,left,1.233738660113886,,,left,1,1.233738660113886,1,,,,,,,,,,,,,,,,,,,,,,1017,2019_Mar_06_1245,mf_amp_cond1,3.0.4,59.98603264524671,
war,synchronazers,&&&&&&&&&&&&&,right,sanctity.vice,,,,,,,0,33,33,33,,,,,,,,,,,,,,,,,,,,,AMP,right,0.5670877087395638,,,right,1,0.5670877087395638,1,,,,,,,,,,,,,,,,,,,,,,1017,2019_Mar_06_1245,mf_amp_cond1,3.0.4,59.98603264524671,
betrayal,noped,&&&&&,right,loyalty.vice,,,,,,,0,34,34,34,,,,,,,,,,,,,,,,,,,,,AMP,left,0.9838408096693456,,,left,0,0.9838408096693456,0,,,,,,,,,,,,,,,,,,,,,,1017,2019_Mar_06_1245,mf_amp_cond1,3.0.4,59.98603264524671,
faith,nackers,&&&&&&&,left,sanctity.virtue,,,,,,,0,35,35,35,,,,,,,,,,,,,,,,,,,,,AMP,right,0.4170269963797182,,,right,0,0.4170269963797182,0,,,,,,,,,,,,,,,,,,,,,,1017,2019_Mar_06_1245,mf_amp_cond1,3.0.4,59.98603264524671,
prosecution,Lacedonia,&&&&&&&&&,right,authority.vice,,,,,,,0,36,36,36,,,,,,,,,,,,,,,,,,,,,AMP,right,0.30032123380806297,,,right,1,0.30032123380806297,1,,,,,,,,,,,,,,,,,,,,,,1017,2019_Mar_06_1245,mf_amp_cond1,3.0.4,59.98603264524671,
troops,crinking,&&&&&&&&,right,loyalty.vice,,,,,,,0,37,37,37,,,,,,,,,,,,,,,,,,,,,AMP,left,0.43371345149353147,,,left,0,0.43371345149353147,0,,,,,,,,,,,,,,,,,,,,,,1017,2019_Mar_06_1245,mf_amp_cond1,3.0.4,59.98603264524671,
pleasant,lempestuous,&&&&&&&&&&&,None,control,,,,,,,0,38,38,38,,,,,,,,,,,,,,,,,,,,,AMP,right,0.783786800224334,,,right,0,0.783786800224334,0,,,,,,,,,,,,,,,,,,,,,,1017,2019_Mar_06_1245,mf_amp_cond1,3.0.4,59.98603264524671,
peaceful,nomaric,&&&&&&&,left,authority.virtue,,,,,,,0,39,39,39,,,,,,,,,,,,,,,,,,,,,AMP,right,0.3003472121199593,,,right,0,0.3003472121199593,0,,,,,,,,,,,,,,,,,,,,,,1017,2019_Mar_06_1245,mf_amp_cond1,3.0.4,59.98603264524671,
prison,juck,&&&&,right,fairness.vice,,,,,,,0,40,40,40,,,,,,,,,,,,,,,,,,,,,AMP,right,0.28365402191411704,,,right,1,0.28365402191411704,1,,,,,,,,,,,,,,,,,,,,,,1017,2019_Mar_06_1245,mf_amp_cond1,3.0.4,59.98603264524671,
refused,ecgagement,&&&&&&&&&&,right,authority.vice,,,,,,,0,41,41,41,,,,,,,,,,,,,,,,,,,,,AMP,left,0.4672059905715287,,,left,0,0.4672059905715287,0,,,,,,,,,,,,,,,,,,,,,,1017,2019_Mar_06_1245,mf_amp_cond1,3.0.4,59.98603264524671,
suicide,pescinded,&&&&&&&&&,right,care.vice,,,,,,,0,42,42,42,,,,,,,,,,,,,,,,,,,,,AMP,right,0.5503887454979122,,,right,1,0.5503887454979122,1,,,,,,,,,,,,,,,,,,,,,,1017,2019_Mar_06_1245,mf_amp_cond1,3.0.4,59.98603264524671,
love,stindig,&&&&&&&,left,loyalty.virtue,,,,,,,0,43,43,43,,,,,,,,,,,,,,,,,,,,,AMP,right,0.3171472024405375,,,right,0,0.3171472024405375,0,,,,,,,,,,,,,,,,,,,,,,1017,2019_Mar_06_1245,mf_amp_cond1,3.0.4,59.98603264524671,
men,drumbled,&&&&&&&&,right,loyalty.vice,,,,,,,0,44,44,44,,,,,,,,,,,,,,,,,,,,,AMP,left,0.6003939091460779,,,left,0,0.6003939091460779,0,,,,,,,,,,,,,,,,,,,,,,1017,2019_Mar_06_1245,mf_amp_cond1,3.0.4,59.98603264524671,
scandal,fonderland,&&&&&&&&&&,right,sanctity.vice,,,,,,,0,45,45,45,,,,,,,,,,,,,,,,,,,,,AMP,left,0.28363349579740316,,,left,0,0.28363349579740316,0,,,,,,,,,,,,,,,,,,,,,,1017,2019_Mar_06_1245,mf_amp_cond1,3.0.4,59.98603264524671,
victim,ablow,&&&&&,right,care.vice,,,,,,,0,46,46,46,,,,,,,,,,,,,,,,,,,,,AMP,right,0.16696718195453286,,,right,1,0.16696718195453286,1,,,,,,,,,,,,,,,,,,,,,,1017,2019_Mar_06_1245,mf_amp_cond1,3.0.4,59.98603264524671,
shoirmaster,alar,&&&&,None,nonword,,,,,,,0,47,47,47,,,,,,,,,,,,,,,,,,,,,AMP,right,0.48381386906839907,,,right,0,0.48381386906839907,0,,,,,,,,,,,,,,,,,,,,,,1017,2019_Mar_06_1245,mf_amp_cond1,3.0.4,59.98603264524671,
free,hefurbished,&&&&&&&&&&&,left,fairness.virtue,,,,,,,0,48,48,48,,,,,,,,,,,,,,,,,,,,,AMP,left,0.6170733083272353,,,left,1,0.6170733083272353,1,,,,,,,,,,,,,,,,,,,,,,1017,2019_Mar_06_1245,mf_amp_cond1,3.0.4,59.98603264524671,
arrests,framatic,&&&&&&&&,right,authority.vice,,,,,,,0,49,49,49,,,,,,,,,,,,,,,,,,,,,AMP,left,0.4503559678560123,,,left,0,0.4503559678560123,0,,,,,,,,,,,,,,,,,,,,,,1017,2019_Mar_06_1245,mf_amp_cond1,3.0.4,59.98603264524671,
commitment,pistraught,&&&&&&&&&&,left,sanctity.virtue,,,,,,,0,50,50,50,,,,,,,,,,,,,,,,,,,,,AMP,left,0.4336942081572488,,,left,1,0.4336942081572488,1,,,,,,,,,,,,,,,,,,,,,,1017,2019_Mar_06_1245,mf_amp_cond1,3.0.4,59.98603264524671,
gun,chared,&&&&&&,right,authority.vice,,,,,,,0,51,51,51,,,,,,,,,,,,,,,,,,,,,AMP,right,0.5837074540322646,,,right,1,0.5837074540322646,1,,,,,,,,,,,,,,,,,,,,,,1017,2019_Mar_06_1245,mf_amp_cond1,3.0.4,59.98603264524671,
emassion,tislay,&&&&&&,None,nonword,,,,,,,0,52,52,52,,,,,,,,,,,,,,,,,,,,,AMP,left,0.4837054655654356,,,left,0,0.4837054655654356,0,,,,,,,,,,,,,,,,,,,,,,1017,2019_Mar_06_1245,mf_amp_cond1,3.0.4,59.98603264524671,
good,aubos,&&&&&,left,care.virtue,,,,,,,0,53,53,53,,,,,,,,,,,,,,,,,,,,,AMP,right,0.3503437163308263,,,right,0,0.3503437163308263,0,,,,,,,,,,,,,,,,,,,,,,1017,2019_Mar_06_1245,mf_amp_cond1,3.0.4,59.98603264524671,
police,gazily,&&&&&&,right,authority.vice,,,,,,,0,54,54,54,,,,,,,,,,,,,,,,,,,,,AMP,right,0.26700509106740355,,,right,1,0.26700509106740355,1,,,,,,,,,,,,,,,,,,,,,,1017,2019_Mar_06_1245,mf_amp_cond1,3.0.4,59.98603264524671,
interests,smapper,&&&&&&&,left,fairness.virtue,,,,,,,0,55,55,55,,,,,,,,,,,,,,,,,,,,,AMP,right,0.30031898885499686,,,right,0,0.30031898885499686,0,,,,,,,,,,,,,,,,,,,,,,1017,2019_Mar_06_1245,mf_amp_cond1,3.0.4,59.98603264524671,
groups,sidearbs,&&&&&&&&,right,loyalty.vice,,,,,,,0,56,56,56,,,,,,,,,,,,,,,,,,,,,AMP,right,0.18361707497388124,,,right,1,0.18361707497388124,1,,,,,,,,,,,,,,,,,,,,,,1017,2019_Mar_06_1245,mf_amp_cond1,3.0.4,59.98603264524671,
chreams,simplustic,&&&&&&&&&&,None,nonword,,,,,,,0,57,57,57,,,,,,,,,,,,,,,,,,,,,AMP,right,0.2669807163765654,,,right,0,0.2669807163765654,0,,,,,,,,,,,,,,,,,,,,,,1017,2019_Mar_06_1245,mf_amp_cond1,3.0.4,59.98603264524671,
imebreaker,papert,&&&&&&,None,nonword,,,,,,,0,58,58,58,,,,,,,,,,,,,,,,,,,,,AMP,right,0.45035949582234025,,,right,0,0.45035949582234025,0,,,,,,,,,,,,,,,,,,,,,,1017,2019_Mar_06_1245,mf_amp_cond1,3.0.4,59.98603264524671,
strength,ugeasily,&&&&&&&&,left,sanctity.virtue,,,,,,,0,59,59,59,,,,,,,,,,,,,,,,,,,,,AMP,left,0.25027758383657783,,,left,1,0.25027758383657783,1,,,,,,,,,,,,,,,,,,,,,,1017,2019_Mar_06_1245,mf_amp_cond1,3.0.4,59.98603264524671,
lies,edancipation,&&&&&&&&&&&&,right,fairness.vice,,,,,,,0,60,60,60,,,,,,,,,,,,,,,,,,,,,AMP,right,0.35034435777924955,,,right,1,0.35034435777924955,1,,,,,,,,,,,,,,,,,,,,,,1017,2019_Mar_06_1245,mf_amp_cond1,3.0.4,59.98603264524671,
charges,disregord,&&&&&&&&&,right,fairness.vice,,,,,,,0,61,61,61,,,,,,,,,,,,,,,,,,,,,AMP,right,0.3503373018465936,,,right,1,0.3503373018465936,1,,,,,,,,,,,,,,,,,,,,,,1017,2019_Mar_06_1245,mf_amp_cond1,3.0.4,59.98603264524671,
encourage,dumid,&&&&&,left,authority.virtue,,,,,,,0,62,62,62,,,,,,,,,,,,,,,,,,,,,AMP,left,0.3503379434114322,,,left,1,0.3503379434114322,1,,,,,,,,,,,,,,,,,,,,,,1017,2019_Mar_06_1245,mf_amp_cond1,3.0.4,59.98603264524671,
violations,discovars,&&&&&&&&&,right,sanctity.vice,,,,,,,0,63,63,63,,,,,,,,,,,,,,,,,,,,,AMP,left,0.3003196301870048,,,left,0,0.3003196301870048,0,,,,,,,,,,,,,,,,,,,,,,1017,2019_Mar_06_1245,mf_amp_cond1,3.0.4,59.98603264524671,
army,gationwide,&&&&&&&&&&,right,loyalty.vice,,,,,,,0,64,64,64,,,,,,,,,,,,,,,,,,,,,AMP,left,0.2336716294521466,,,left,0,0.2336716294521466,0,,,,,,,,,,,,,,,,,,,,,,1017,2019_Mar_06_1245,mf_amp_cond1,3.0.4,59.98603264524671,
agreement,Loorish,&&&&&&&,left,fairness.virtue,,,,,,,0,65,65,65,,,,,,,,,,,,,,,,,,,,,AMP,right,0.7504575080238283,,,right,0,0.7504575080238283,0,,,,,,,,,,,,,,,,,,,,,,1017,2019_Mar_06_1245,mf_amp_cond1,3.0.4,59.98603264524671,
ability,yane,&&&&,left,authority.virtue,,,,,,,0,66,66,66,,,,,,,,,,,,,,,,,,,,,AMP,right,0.7504523764364421,,,right,0,0.7504523764364421,0,,,,,,,,,,,,,,,,,,,,,,1017,2019_Mar_06_1245,mf_amp_cond1,3.0.4,59.98603264524671,
frojecting,clamorek,&&&&&&&&,None,nonword,,,,,,,0,67,67,67,,,,,,,,,,,,,,,,,,,,,AMP,right,0.4336817000294104,,,right,0,0.4336817000294104,0,,,,,,,,,,,,,,,,,,,,,,1017,2019_Mar_06_1245,mf_amp_cond1,3.0.4,59.98603264524671,
serial,rorroborated,&&&&&&&&&&&&,right,sanctity.vice,,,,,,,0,68,68,68,,,,,,,,,,,,,,,,,,,,,AMP,left,0.300240412238054,,,left,0,0.300240412238054,0,,,,,,,,,,,,,,,,,,,,,,1017,2019_Mar_06_1245,mf_amp_cond1,3.0.4,59.98603264524671,
benefit,squets,&&&&&&,left,fairness.virtue,,,,,,,0,69,69,69,,,,,,,,,,,,,,,,,,,,,AMP,right,0.23363442590925843,,,right,0,0.23363442590925843,0,,,,,,,,,,,,,,,,,,,,,,1017,2019_Mar_06_1245,mf_amp_cond1,3.0.4,59.98603264524671,
values,photocalkodes,&&&&&&&&&&&&&,left,sanctity.virtue,,,,,,,0,70,70,70,,,,,,,,,,,,,,,,,,,,,AMP,left,0.5170472658937797,,,left,1,0.5170472658937797,1,,,,,,,,,,,,,,,,,,,,,,1017,2019_Mar_06_1245,mf_amp_cond1,3.0.4,59.98603264524671,
dignity,honstables,&&&&&&&&&&,left,sanctity.virtue,,,,,,,0,71,71,71,,,,,,,,,,,,,,,,,,,,,AMP,left,0.1836305451579392,,,left,1,0.1836305451579392,1,,,,,,,,,,,,,,,,,,,,,,1017,2019_Mar_06_1245,mf_amp_cond1,3.0.4,59.98603264524671,
improve,abointment,&&&&&&&&&&,left,care.virtue,,,,,,,0,72,72,72,,,,,,,,,,,,,,,,,,,,,AMP,right,0.23363538808189332,,,right,0,0.23363538808189332,0,,,,,,,,,,,,,,,,,,,,,,1017,2019_Mar_06_1245,mf_amp_cond1,3.0.4,59.98603264524671,
party,gandbrake,&&&&&&&&&,left,loyalty.virtue,,,,,,,0,73,73,73,,,,,,,,,,,,,,,,,,,,,AMP,right,0.1502868204843253,,,right,0,0.1502868204843253,0,,,,,,,,,,,,,,,,,,,,,,1017,2019_Mar_06_1245,mf_amp_cond1,3.0.4,59.98603264524671,
celebrated,forepo,&&&&&&,left,authority.virtue,,,,,,,0,74,74,74,,,,,,,,,,,,,,,,,,,,,AMP,right,0.16694344859570265,,,right,0,0.16694344859570265,0,,,,,,,,,,,,,,,,,,,,,,1017,2019_Mar_06_1245,mf_amp_cond1,3.0.4,59.98603264524671,
honored,ammessment,&&&&&&&&&&,left,authority.virtue,,,,,,,0,75,75,75,,,,,,,,,,,,,,,,,,,,,AMP,left,0.7004212345927954,,,left,1,0.7004212345927954,1,,,,,,,,,,,,,,,,,,,,,,1017,2019_Mar_06_1245,mf_amp_cond1,3.0.4,59.98603264524671,
tomedians,scock,&&&&&,None,nonword,,,,,,,0,76,76,76,,,,,,,,,,,,,,,,,,,,,AMP,left,0.2169771563494578,,,left,0,0.2169771563494578,0,,,,,,,,,,,,,,,,,,,,,,1017,2019_Mar_06_1245,mf_amp_cond1,3.0.4,59.98603264524671,
promote,precificity,&&&&&&&&&&&,left,sanctity.virtue,,,,,,,0,77,77,77,,,,,,,,,,,,,,,,,,,,,AMP,left,0.5170774136204273,,,left,1,0.5170774136204273,1,,,,,,,,,,,,,,,,,,,,,,1017,2019_Mar_06_1245,mf_amp_cond1,3.0.4,59.98603264524671,
harassment,atson,&&&&&,right,sanctity.vice,,,,,,,0,78,78,78,,,,,,,,,,,,,,,,,,,,,AMP,right,0.3170031988993287,,,right,1,0.3170031988993287,1,,,,,,,,,,,,,,,,,,,,,,1017,2019_Mar_06_1245,mf_amp_cond1,3.0.4,59.98603264524671,
strong,thadowed,&&&&&&&&,left,loyalty.virtue,,,,,,,0,79,79,79,,,,,,,,,,,,,,,,,,,,,AMP,right,0.717097747256048,,,right,0,0.717097747256048,0,,,,,,,,,,,,,,,,,,,,,,1017,2019_Mar_06_1245,mf_amp_cond1,3.0.4,59.98603264524671,
restore,reprisols,&&&&&&&&&,left,care.virtue,,,,,,,0,80,80,80,,,,,,,,,,,,,,,,,,,,,AMP,right,0.35034724429715425,,,right,0,0.35034724429715425,0,,,,,,,,,,,,,,,,,,,,,,1017,2019_Mar_06_1245,mf_amp_cond1,3.0.4,59.98603264524671,
embrace,elduringly,&&&&&&&&&&,left,authority.virtue,,,,,,,0,81,81,81,,,,,,,,,,,,,,,,,,,,,AMP,right,0.18363279022742063,,,right,0,0.18363279022742063,0,,,,,,,,,,,,,,,,,,,,,,1017,2019_Mar_06_1245,mf_amp_cond1,3.0.4,59.98603264524671,
embrace,framo,&&&&&,left,authority.virtue,,,,,,,0,82,82,82,,,,,,,,,,,,,,,,,,,,,AMP,left,0.7837858381681144,,,left,1,0.7837858381681144,1,,,,,,,,,,,,,,,,,,,,,,1017,2019_Mar_06_1245,mf_amp_cond1,3.0.4,59.98603264524671,
commitment,leact,&&&&&,left,sanctity.virtue,,,,,,,0,83,83,83,,,,,,,,,,,,,,,,,,,,,AMP,right,0.2836418345104903,,,right,0,0.2836418345104903,0,,,,,,,,,,,,,,,,,,,,,,1017,2019_Mar_06_1245,mf_amp_cond1,3.0.4,59.98603264524671,
benefit,scock,&&&&&,left,fairness.virtue,,,,,,,0,84,84,84,,,,,,,,,,,,,,,,,,,,,AMP,right,0.25031927740201354,,,right,0,0.25031927740201354,0,,,,,,,,,,,,,,,,,,,,,,1017,2019_Mar_06_1245,mf_amp_cond1,3.0.4,59.98603264524671,
charges,baklara,&&&&&&&,right,fairness.vice,,,,,,,0,85,85,85,,,,,,,,,,,,,,,,,,,,,AMP,right,0.5837308666668832,,,right,1,0.5837308666668832,1,,,,,,,,,,,,,,,,,,,,,,1017,2019_Mar_06_1245,mf_amp_cond1,3.0.4,59.98603264524671,
hate,nomparisons,&&&&&&&&&&&,right,fairness.vice,,,,,,,0,86,86,86,,,,,,,,,,,,,,,,,,,,,AMP,left,0.2169832499930635,,,left,0,0.2169832499930635,0,,,,,,,,,,,,,,,,,,,,,,1017,2019_Mar_06_1245,mf_amp_cond1,3.0.4,59.98603264524671,
groups,Loorish,&&&&&&&,right,loyalty.vice,,,,,,,0,87,87,87,,,,,,,,,,,,,,,,,,,,,AMP,left,0.5337019696598873,,,left,0,0.5337019696598873,0,,,,,,,,,,,,,,,,,,,,,,1017,2019_Mar_06_1245,mf_amp_cond1,3.0.4,59.98603264524671,
party,atson,&&&&&,left,loyalty.virtue,,,,,,,0,88,88,88,,,,,,,,,,,,,,,,,,,,,AMP,right,0.4170282791601494,,,right,0,0.4170282791601494,0,,,,,,,,,,,,,,,,,,,,,,1017,2019_Mar_06_1245,mf_amp_cond1,3.0.4,59.98603264524671,
scandal,fornicalion,&&&&&&&&&&&,right,sanctity.vice,,,,,,,0,89,89,89,,,,,,,,,,,,,,,,,,,,,AMP,right,0.3003395148552954,,,right,1,0.3003395148552954,1,,,,,,,,,,,,,,,,,,,,,,1017,2019_Mar_06_1245,mf_amp_cond1,3.0.4,59.98603264524671,
good,photocalkodes,&&&&&&&&&&&&&,left,care.virtue,,,,,,,0,90,90,90,,,,,,,,,,,,,,,,,,,,,AMP,right,0.9671591653022915,,,right,0,0.9671591653022915,0,,,,,,,,,,,,,,,,,,,,,,1017,2019_Mar_06_1245,mf_amp_cond1,3.0.4,59.98603264524671,
free,coom,&&&&,left,fairness.virtue,,,,,,,0,91,91,91,,,,,,,,,,,,,,,,,,,,,AMP,right,0.2170105113182217,,,right,0,0.2170105113182217,0,,,,,,,,,,,,,,,,,,,,,,1017,2019_Mar_06_1245,mf_amp_cond1,3.0.4,59.98603264524671,
celebrated,gournful,&&&&&&&&,left,authority.virtue,,,,,,,0,92,92,92,,,,,,,,,,,,,,,,,,,,,AMP,right,0.20029711571987718,,,right,0,0.20029711571987718,0,,,,,,,,,,,,,,,,,,,,,,1017,2019_Mar_06_1245,mf_amp_cond1,3.0.4,59.98603264524671,
men,quarterbocks,&&&&&&&&&&&&,right,loyalty.vice,,,,,,,0,93,93,93,,,,,,,,,,,,,,,,,,,,,AMP,left,0.7669480028562248,,,left,0,0.7669480028562248,0,,,,,,,,,,,,,,,,,,,,,,1017,2019_Mar_06_1245,mf_amp_cond1,3.0.4,59.98603264524671,
abuse,glacenta,&&&&&&&&,right,sanctity.vice,,,,,,,0,94,94,94,,,,,,,,,,,,,,,,,,,,,AMP,left,0.8504649488022551,,,left,0,0.8504649488022551,0,,,,,,,,,,,,,,,,,,,,,,1017,2019_Mar_06_1245,mf_amp_cond1,3.0.4,59.98603264524671,
sharing,chonograph,&&&&&&&&&&,left,loyalty.virtue,,,,,,,0,95,95,95,,,,,,,,,,,,,,,,,,,,,AMP,left,0.350330246030353,,,left,1,0.350330246030353,1,,,,,,,,,,,,,,,,,,,,,,1017,2019_Mar_06_1245,mf_amp_cond1,3.0.4,59.98603264524671,
opportunity,simplustic,&&&&&&&&&&,left,fairness.virtue,,,,,,,0,96,96,96,,,,,,,,,,,,,,,,,,,,,AMP,right,0.35036809102166444,,,right,0,0.35036809102166444,0,,,,,,,,,,,,,,,,,,,,,,1017,2019_Mar_06_1245,mf_amp_cond1,3.0.4,59.98603264524671,
violence,juck,&&&&,right,care.vice,,,,,,,0,97,97,97,,,,,,,,,,,,,,,,,,,,,AMP,right,0.0834576126653701,,,right,1,0.0834576126653701,1,,,,,,,,,,,,,,,,,,,,,,1017,2019_Mar_06_1245,mf_amp_cond1,3.0.4,59.98603264524671,
tomedians,rivernoat,&&&&&&&&&,None,nonword,,,,,,,0,98,98,98,,,,,,,,,,,,,,,,,,,,,AMP,right,0.23366810160223395,,,right,0,0.23366810160223395,0,,,,,,,,,,,,,,,,,,,,,,1017,2019_Mar_06_1245,mf_amp_cond1,3.0.4,59.98603264524671,
tenuflect,sfumatoy,&&&&&&&&,None,nonword,,,,,,,0,99,99,99,,,,,,,,,,,,,,,,,,,,,AMP,left,0.4836721105966717,,,left,0,0.4836721105966717,0,,,,,,,,,,,,,,,,,,,,,,1017,2019_Mar_06_1245,mf_amp_cond1,3.0.4,59.98603264524671,
accused,allears,&&&&&&&,right,fairness.vice,,,,,,,0,100,100,100,,,,,,,,,,,,,,,,,,,,,AMP,right,0.5837311873910949,,,right,1,0.5837311873910949,1,,,,,,,,,,,,,,,,,,,,,,1017,2019_Mar_06_1245,mf_amp_cond1,3.0.4,59.98603264524671,
chreams,discovars,&&&&&&&&&,None,nonword,,,,,,,0,101,101,101,,,,,,,,,,,,,,,,,,,,,AMP,left,0.6337341059697792,,,left,0,0.6337341059697792,0,,,,,,,,,,,,,,,,,,,,,,1017,2019_Mar_06_1245,mf_amp_cond1,3.0.4,59.98603264524671,
safe,drumbled,&&&&&&&&,left,care.virtue,,,,,,,0,102,102,102,,,,,,,,,,,,,,,,,,,,,AMP,right,0.2337239069165662,,,right,0,0.2337239069165662,0,,,,,,,,,,,,,,,,,,,,,,1017,2019_Mar_06_1245,mf_amp_cond1,3.0.4,59.98603264524671,
grovelire,chadows,&&&&&&&,None,nonword,,,,,,,0,103,103,103,,,,,,,,,,,,,,,,,,,,,AMP,left,0.11693988856859505,,,left,0,0.11693988856859505,0,,,,,,,,,,,,,,,,,,,,,,1017,2019_Mar_06_1245,mf_amp_cond1,3.0.4,59.98603264524671,
strength,lachelor,&&&&&&&&,left,sanctity.virtue,,,,,,,0,104,104,104,,,,,,,,,,,,,,,,,,,,,AMP,right,0.5337035732809454,,,right,0,0.5337035732809454,0,,,,,,,,,,,,,,,,,,,,,,1017,2019_Mar_06_1245,mf_amp_cond1,3.0.4,59.98603264524671,
interests,tislay,&&&&&&,left,fairness.virtue,,,,,,,0,105,105,105,,,,,,,,,,,,,,,,,,,,,AMP,right,0.216988060856238,,,right,0,0.216988060856238,0,,,,,,,,,,,,,,,,,,,,,,1017,2019_Mar_06_1245,mf_amp_cond1,3.0.4,59.98603264524671,
gun,pulge,&&&&&,right,authority.vice,,,,,,,0,106,106,106,,,,,,,,,,,,,,,,,,,,,AMP,right,0.28369475342333317,,,right,1,0.28369475342333317,1,,,,,,,,,,,,,,,,,,,,,,1017,2019_Mar_06_1245,mf_amp_cond1,3.0.4,59.98603264524671,
faith,rorroborated,&&&&&&&&&&&&,left,sanctity.virtue,,,,,,,0,107,107,107,,,,,,,,,,,,,,,,,,,,,AMP,right,0.5837382432073355,,,right,0,0.5837382432073355,0,,,,,,,,,,,,,,,,,,,,,,1017,2019_Mar_06_1245,mf_amp_cond1,3.0.4,59.98603264524671,
values,papert,&&&&&&,left,sanctity.virtue,,,,,,,0,108,108,108,,,,,,,,,,,,,,,,,,,,,AMP,left,0.4670209347968921,,,left,1,0.4670209347968921,1,,,,,,,,,,,,,,,,,,,,,,1017,2019_Mar_06_1245,mf_amp_cond1,3.0.4,59.98603264524671,
emassion,disregord,&&&&&&&&&,None,nonword,,,,,,,0,109,109,109,,,,,,,,,,,,,,,,,,,,,AMP,left,0.9003989123739302,,,left,0,0.9003989123739302,0,,,,,,,,,,,,,,,,,,,,,,1017,2019_Mar_06_1245,mf_amp_cond1,3.0.4,59.98603264524671,
strong,brudent,&&&&&&&,left,loyalty.virtue,,,,,,,0,110,110,110,,,,,,,,,,,,,,,,,,,,,AMP,right,0.40033925836905837,,,right,0,0.40033925836905837,0,,,,,,,,,,,,,,,,,,,,,,1017,2019_Mar_06_1245,mf_amp_cond1,3.0.4,59.98603264524671,
promote,precificity,&&&&&&&&&&&,left,sanctity.virtue,,,,,,,0,111,111,111,,,,,,,,,,,,,,,,,,,,,AMP,right,0.317003840347752,,,right,0,0.317003840347752,0,,,,,,,,,,,,,,,,,,,,,,1017,2019_Mar_06_1245,mf_amp_cond1,3.0.4,59.98603264524671,
love,synchronazers,&&&&&&&&&&&&&,left,loyalty.virtue,,,,,,,0,112,112,112,,,,,,,,,,,,,,,,,,,,,AMP,right,0.3003244410501793,,,right,0,0.3003244410501793,0,,,,,,,,,,,,,,,,,,,,,,1017,2019_Mar_06_1245,mf_amp_cond1,3.0.4,59.98603264524671,
rejected,clamorek,&&&&&&&&,right,authority.vice,,,,,,,0,113,113,113,,,,,,,,,,,,,,,,,,,,,AMP,left,0.31699069077149034,,,left,0,0.31699069077149034,0,,,,,,,,,,,,,,,,,,,,,,1017,2019_Mar_06_1245,mf_amp_cond1,3.0.4,59.98603264524671,
trust,ugeasily,&&&&&&&&,left,authority.virtue,,,,,,,0,114,114,114,,,,,,,,,,,,,,,,,,,,,AMP,right,1.1005196316400543,,,right,0,1.1005196316400543,0,,,,,,,,,,,,,,,,,,,,,,1017,2019_Mar_06_1245,mf_amp_cond1,3.0.4,59.98603264524671,
peaceful,ablow,&&&&&,left,authority.virtue,,,,,,,0,115,115,115,,,,,,,,,,,,,,,,,,,,,AMP,right,0.26700124237686396,,,right,0,0.26700124237686396,0,,,,,,,,,,,,,,,,,,,,,,1017,2019_Mar_06_1245,mf_amp_cond1,3.0.4,59.98603264524671,
slavery,reprisols,&&&&&&&&&,right,loyalty.vice,,,,,,,0,116,116,116,,,,,,,,,,,,,,,,,,,,,AMP,left,0.23364949971437454,,,left,0,0.23364949971437454,0,,,,,,,,,,,,,,,,,,,,,,1017,2019_Mar_06_1245,mf_amp_cond1,3.0.4,59.98603264524671,
violations,noped,&&&&&,right,sanctity.vice,,,,,,,0,117,117,117,,,,,,,,,,,,,,,,,,,,,AMP,left,0.8171683700056747,,,left,0,0.8171683700056747,0,,,,,,,,,,,,,,,,,,,,,,1017,2019_Mar_06_1245,mf_amp_cond1,3.0.4,59.98603264524671,
encourage,alar,&&&&,left,authority.virtue,,,,,,,0,118,118,118,,,,,,,,,,,,,,,,,,,,,AMP,left,0.3336938233114779,,,left,1,0.3336938233114779,1,,,,,,,,,,,,,,,,,,,,,,1017,2019_Mar_06_1245,mf_amp_cond1,3.0.4,59.98603264524671,
intelligence,gaultless,&&&&&&&&&,left,loyalty.virtue,,,,,,,0,119,119,119,,,,,,,,,,,,,,,,,,,,,AMP,right,0.3670115696731955,,,right,0,0.3670115696731955,0,,,,,,,,,,,,,,,,,,,,,,1017,2019_Mar_06_1245,mf_amp_cond1,3.0.4,59.98603264524671,
health,thadowed,&&&&&&&&,left,care.virtue,,,,,,,0,120,120,120,,,,,,,,,,,,,,,,,,,,,AMP,right,0.5836442719446495,,,right,0,0.5836442719446495,0,,,,,,,,,,,,,,,,,,,,,,1017,2019_Mar_06_1245,mf_amp_cond1,3.0.4,59.98603264524671,
dignity,bluently,&&&&&&&&,left,sanctity.virtue,,,,,,,0,121,121,121,,,,,,,,,,,,,,,,,,,,,AMP,right,0.3670086831552908,,,right,0,0.3670086831552908,0,,,,,,,,,,,,,,,,,,,,,,1017,2019_Mar_06_1245,mf_amp_cond1,3.0.4,59.98603264524671,
sliptery,touls,&&&&&,None,nonword,,,,,,,0,122,122,122,,,,,,,,,,,,,,,,,,,,,AMP,left,0.45033512101508677,,,left,0,0.45033512101508677,0,,,,,,,,,,,,,,,,,,,,,,1017,2019_Mar_06_1245,mf_amp_cond1,3.0.4,59.98603264524671,
ban,esquisiteness,&&&&&&&&&&&&&,right,loyalty.vice,,,,,,,0,123,123,123,,,,,,,,,,,,,,,,,,,,,AMP,left,0.5170540009858087,,,left,0,0.5170540009858087,0,,,,,,,,,,,,,,,,,,,,,,1017,2019_Mar_06_1245,mf_amp_cond1,3.0.4,59.98603264524671,
arrests,idexpressible,&&&&&&&&&&&&&,right,authority.vice,,,,,,,0,124,124,124,,,,,,,,,,,,,,,,,,,,,AMP,right,0.3836755743250251,,,right,1,0.3836755743250251,1,,,,,,,,,,,,,,,,,,,,,,1017,2019_Mar_06_1245,mf_amp_cond1,3.0.4,59.98603264524671,
unpleasant,hefurbished,&&&&&&&&&&&,None,control,,,,,,,0,125,125,125,,,,,,,,,,,,,,,,,,,,,AMP,left,0.6504176744492725,,,left,0,0.6504176744492725,0,,,,,,,,,,,,,,,,,,,,,,1017,2019_Mar_06_1245,mf_amp_cond1,3.0.4,59.98603264524671,
credit,gandbrake,&&&&&&&&&,left,fairness.virtue,,,,,,,0,126,126,126,,,,,,,,,,,,,,,,,,,,,AMP,right,0.517063943319954,,,right,0,0.517063943319954,0,,,,,,,,,,,,,,,,,,,,,,1017,2019_Mar_06_1245,mf_amp_cond1,3.0.4,59.98603264524671,
penalty,edancipation,&&&&&&&&&&&&,right,authority.vice,,,,,,,0,127,127,127,,,,,,,,,,,,,,,,,,,,,AMP,left,0.4336996605852619,,,left,0,0.4336996605852619,0,,,,,,,,,,,,,,,,,,,,,,1017,2019_Mar_06_1245,mf_amp_cond1,3.0.4,59.98603264524671,
serial,feleological,&&&&&&&&&&&&,right,sanctity.vice,,,,,,,0,128,128,128,,,,,,,,,,,,,,,,,,,,,AMP,left,0.3336761837126687,,,left,0,0.3336761837126687,0,,,,,,,,,,,,,,,,,,,,,,1017,2019_Mar_06_1245,mf_amp_cond1,3.0.4,59.98603264524671,
death,honstables,&&&&&&&&&&,right,care.vice,,,,,,,0,129,129,129,,,,,,,,,,,,,,,,,,,,,AMP,left,0.33350972970947623,,,left,0,0.33350972970947623,0,,,,,,,,,,,,,,,,,,,,,,1017,2019_Mar_06_1245,mf_amp_cond1,3.0.4,59.98603264524671,
ejanulated,framatic,&&&&&&&&,None,nonword,,,,,,,0,130,130,130,,,,,,,,,,,,,,,,,,,,,AMP,left,0.2836764723761007,,,left,0,0.2836764723761007,0,,,,,,,,,,,,,,,,,,,,,,1017,2019_Mar_06_1245,mf_amp_cond1,3.0.4,59.98603264524671,
win,ecgagement,&&&&&&&&&&,left,fairness.virtue,,,,,,,0,131,131,131,,,,,,,,,,,,,,,,,,,,,AMP,right,0.8004450320731848,,,right,0,0.8004450320731848,0,,,,,,,,,,,,,,,,,,,,,,1017,2019_Mar_06_1245,mf_amp_cond1,3.0.4,59.98603264524671,
army,Lacedonia,&&&&&&&&&,right,loyalty.vice,,,,,,,0,132,132,132,,,,,,,,,,,,,,,,,,,,,AMP,left,0.4336970947915688,,,left,0,0.4336970947915688,0,,,,,,,,,,,,,,,,,,,,,,1017,2019_Mar_06_1245,mf_amp_cond1,3.0.4,59.98603264524671,
increase,elduringly,&&&&&&&&&&,left,care.virtue,,,,,,,0,133,133,133,,,,,,,,,,,,,,,,,,,,,AMP,left,0.3670016273390502,,,left,1,0.3670016273390502,1,,,,,,,,,,,,,,,,,,,,,,1017,2019_Mar_06_1245,mf_amp_cond1,3.0.4,59.98603264524671,
ability,pistraught,&&&&&&&&&&,left,authority.virtue,,,,,,,0,134,134,134,,,,,,,,,,,,,,,,,,,,,AMP,left,0.3503446785034612,,,left,1,0.3503446785034612,1,,,,,,,,,,,,,,,,,,,,,,1017,2019_Mar_06_1245,mf_amp_cond1,3.0.4,59.98603264524671,
harassment,clattening,&&&&&&&&&&,right,sanctity.vice,,,,,,,0,135,135,135,,,,,,,,,,,,,,,,,,,,,AMP,right,0.46703248063568026,,,right,1,0.46703248063568026,1,,,,,,,,,,,,,,,,,,,,,,1017,2019_Mar_06_1245,mf_amp_cond1,3.0.4,59.98603264524671,
suicide,neputized,&&&&&&&&&,right,care.vice,,,,,,,0,136,136,136,,,,,,,,,,,,,,,,,,,,,AMP,left,0.8671270291088149,,,left,0,0.8671270291088149,0,,,,,,,,,,,,,,,,,,,,,,1017,2019_Mar_06_1245,mf_amp_cond1,3.0.4,59.98603264524671,
police,gationwide,&&&&&&&&&&,right,authority.vice,,,,,,,0,137,137,137,,,,,,,,,,,,,,,,,,,,,AMP,right,0.433689076686278,,,right,1,0.433689076686278,1,,,,,,,,,,,,,,,,,,,,,,1017,2019_Mar_06_1245,mf_amp_cond1,3.0.4,59.98603264524671,
victim,tabin,&&&&&,right,care.vice,,,,,,,0,138,138,138,,,,,,,,,,,,,,,,,,,,,AMP,left,0.6837508154567331,,,left,0,0.6837508154567331,0,,,,,,,,,,,,,,,,,,,,,,1017,2019_Mar_06_1245,mf_amp_cond1,3.0.4,59.98603264524671,
voter,letish,&&&&&&,right,fairness.vice,,,,,,,0,139,139,139,,,,,,,,,,,,,,,,,,,,,AMP,right,1.2170627887826413,,,right,1,1.2170627887826413,1,,,,,,,,,,,,,,,,,,,,,,1017,2019_Mar_06_1245,mf_amp_cond1,3.0.4,59.98603264524671,
torture,sidearbs,&&&&&&&&,right,care.vice,,,,,,,0,140,140,140,,,,,,,,,,,,,,,,,,,,,AMP,left,0.6337482176022604,,,left,0,0.6337482176022604,0,,,,,,,,,,,,,,,,,,,,,,1017,2019_Mar_06_1245,mf_amp_cond1,3.0.4,59.98603264524671,
improve,nackers,&&&&&&&,left,care.virtue,,,,,,,0,141,141,141,,,,,,,,,,,,,,,,,,,,,AMP,right,0.3168396312976256,,,right,0,0.3168396312976256,0,,,,,,,,,,,,,,,,,,,,,,1017,2019_Mar_06_1245,mf_amp_cond1,3.0.4,59.98603264524671,
praised,stindig,&&&&&&&,left,loyalty.virtue,,,,,,,0,142,142,142,,,,,,,,,,,,,,,,,,,,,AMP,left,0.5170559253310785,,,left,1,0.5170559253310785,1,,,,,,,,,,,,,,,,,,,,,,1017,2019_Mar_06_1245,mf_amp_cond1,3.0.4,59.98603264524671,
frojecting,squets,&&&&&&,None,nonword,,,,,,,0,143,143,143,,,,,,,,,,,,,,,,,,,,,AMP,right,0.4003540115663782,,,right,0,0.4003540115663782,0,,,,,,,,,,,,,,,,,,,,,,1017,2019_Mar_06_1245,mf_amp_cond1,3.0.4,59.98603264524671,
threatened,pescinded,&&&&&&&&&,right,fairness.vice,,,,,,,0,144,144,144,,,,,,,,,,,,,,,,,,,,,AMP,right,0.3336582233896479,,,right,1,0.3336582233896479,1,,,,,,,,,,,,,,,,,,,,,,1017,2019_Mar_06_1245,mf_amp_cond1,3.0.4,59.98603264524671,
imebreaker,chared,&&&&&&,None,nonword,,,,,,,0,145,145,145,,,,,,,,,,,,,,,,,,,,,AMP,right,0.28364824899472296,,,right,0,0.28364824899472296,0,,,,,,,,,,,,,,,,,,,,,,1017,2019_Mar_06_1245,mf_amp_cond1,3.0.4,59.98603264524671,
restore,erks,&&&&,left,care.virtue,,,,,,,0,146,146,146,,,,,,,,,,,,,,,,,,,,,AMP,right,0.3670006651664153,,,right,0,0.3670006651664153,0,,,,,,,,,,,,,,,,,,,,,,1017,2019_Mar_06_1245,mf_amp_cond1,3.0.4,59.98603264524671,
agreement,saned,&&&&&,left,fairness.virtue,,,,,,,0,147,147,147,,,,,,,,,,,,,,,,,,,,,AMP,right,0.5337250615702942,,,right,0,0.5337250615702942,0,,,,,,,,,,,,,,,,,,,,,,1017,2019_Mar_06_1245,mf_amp_cond1,3.0.4,59.98603264524671,
victims,smapper,&&&&&&&,right,care.vice,,,,,,,0,148,148,148,,,,,,,,,,,,,,,,,,,,,AMP,right,0.3503321703756228,,,right,1,0.3503321703756228,1,,,,,,,,,,,,,,,,,,,,,,1017,2019_Mar_06_1245,mf_amp_cond1,3.0.4,59.98603264524671,
prosecution,crinking,&&&&&&&&,right,authority.vice,,,,,,,0,149,149,149,,,,,,,,,,,,,,,,,,,,,AMP,left,0.38369898695964366,,,left,0,0.38369898695964366,0,,,,,,,,,,,,,,,,,,,,,,1017,2019_Mar_06_1245,mf_amp_cond1,3.0.4,59.98603264524671,
safety,crilfully,&&&&&&&&&,left,care.virtue,,,,,,,0,150,150,150,,,,,,,,,,,,,,,,,,,,,AMP,left,0.6003900604555383,,,left,1,0.6003900604555383,1,,,,,,,,,,,,,,,,,,,,,,1017,2019_Mar_06_1245,mf_amp_cond1,3.0.4,59.98603264524671,
perfect,fonderland,&&&&&&&&&&,left,sanctity.virtue,,,,,,,0,151,151,151,,,,,,,,,,,,,,,,,,,,,AMP,right,0.5170414928579703,,,right,0,0.5170414928579703,0,,,,,,,,,,,,,,,,,,,,,,1017,2019_Mar_06_1245,mf_amp_cond1,3.0.4,59.98603264524671,
friends,proached,&&&&&&&&,left,loyalty.virtue,,,,,,,0,152,152,152,,,,,,,,,,,,,,,,,,,,,AMP,right,0.36716808134224266,,,right,0,0.36716808134224266,0,,,,,,,,,,,,,,,,,,,,,,1017,2019_Mar_06_1245,mf_amp_cond1,3.0.4,59.98603264524671,
troops,lempestuous,&&&&&&&&&&&,right,loyalty.vice,,,,,,,0,153,153,153,,,,,,,,,,,,,,,,,,,,,AMP,left,0.4836935988860205,,,left,0,0.4836935988860205,0,,,,,,,,,,,,,,,,,,,,,,1017,2019_Mar_06_1245,mf_amp_cond1,3.0.4,59.98603264524671,
lies,aubos,&&&&&,right,fairness.vice,,,,,,,0,154,154,154,,,,,,,,,,,,,,,,,,,,,AMP,right,0.36700355156790465,,,right,1,0.36700355156790465,1,,,,,,,,,,,,,,,,,,,,,,1017,2019_Mar_06_1245,mf_amp_cond1,3.0.4,59.98603264524671,
sexual,forepo,&&&&&&,right,sanctity.vice,,,,,,,0,155,155,155,,,,,,,,,,,,,,,,,,,,,AMP,right,0.2169681761879474,,,right,1,0.2169681761879474,1,,,,,,,,,,,,,,,,,,,,,,1017,2019_Mar_06_1245,mf_amp_cond1,3.0.4,59.98603264524671,
honored,gazily,&&&&&&,left,authority.virtue,,,,,,,0,156,156,156,,,,,,,,,,,,,,,,,,,,,AMP,right,0.4169679838232696,,,right,0,0.4169679838232696,0,,,,,,,,,,,,,,,,,,,,,,1017,2019_Mar_06_1245,mf_amp_cond1,3.0.4,59.98603264524671,
war,abointment,&&&&&&&&&&,right,sanctity.vice,,,,,,,0,157,157,157,,,,,,,,,,,,,,,,,,,,,AMP,left,0.16695820179302245,,,left,0,0.16695820179302245,0,,,,,,,,,,,,,,,,,,,,,,1017,2019_Mar_06_1245,mf_amp_cond1,3.0.4,59.98603264524671,
prison,dumid,&&&&&,right,fairness.vice,,,,,,,0,158,158,158,,,,,,,,,,,,,,,,,,,,,AMP,left,0.45037938049063087,,,left,0,0.45037938049063087,0,,,,,,,,,,,,,,,,,,,,,,1017,2019_Mar_06_1245,mf_amp_cond1,3.0.4,59.98603264524671,
betrayal,nomaric,&&&&&&&,right,loyalty.vice,,,,,,,0,159,159,159,,,,,,,,,,,,,,,,,,,,,AMP,right,0.9171498323557898,,,right,1,0.9171498323557898,1,,,,,,,,,,,,,,,,,,,,,,1017,2019_Mar_06_1245,mf_amp_cond1,3.0.4,59.98603264524671,
refused,oam,&&&,right,authority.vice,,,,,,,0,160,160,160,,,,,,,,,,,,,,,,,,,,,AMP,right,0.7504263981245458,,,right,1,0.7504263981245458,1,,,,,,,,,,,,,,,,,,,,,,1017,2019_Mar_06_1245,mf_amp_cond1,3.0.4,59.98603264524671,
killed,ammessment,&&&&&&&&&&,right,care.vice,,,,,,,0,161,161,161,,,,,,,,,,,,,,,,,,,,,AMP,right,0.5337173643056303,,,right,1,0.5337173643056303,1,,,,,,,,,,,,,,,,,,,,,,1017,2019_Mar_06_1245,mf_amp_cond1,3.0.4,59.98603264524671,
shoirmaster,ebbitter,&&&&&&&&,None,nonword,,,,,,,0,162,162,162,,,,,,,,,,,,,,,,,,,,,AMP,left,0.5337125534424558,,,left,0,0.5337125534424558,0,,,,,,,,,,,,,,,,,,,,,,1017,2019_Mar_06_1245,mf_amp_cond1,3.0.4,59.98603264524671,
pleasant,yane,&&&&,None,control,,,,,,,0,163,163,163,,,,,,,,,,,,,,,,,,,,,AMP,right,0.2336350673576817,,,right,0,0.2336350673576817,0,,,,,,,,,,,,,,,,,,,,,,1017,2019_Mar_06_1245,mf_amp_cond1,3.0.4,59.98603264524671,
ejanulated,papert,&&&&&&,None,nonword,,,,,,,0,164,164,164,,,,,,,,,,,,,,,,,,,,,AMP,right,0.4335325650172308,,,right,0,0.4335325650172308,0,,,,,,,,,,,,,,,,,,,,,,1017,2019_Mar_06_1245,mf_amp_cond1,3.0.4,59.98603264524671,
dignity,edancipation,&&&&&&&&&&&&,left,sanctity.virtue,,,,,,,0,165,165,165,,,,,,,,,,,,,,,,,,,,,AMP,right,0.3836823095334694,,,right,0,0.3836823095334694,0,,,,,,,,,,,,,,,,,,,,,,1017,2019_Mar_06_1245,mf_amp_cond1,3.0.4,59.98603264524671,
interests,ammessment,&&&&&&&&&&,left,fairness.virtue,,,,,,,0,166,166,166,,,,,,,,,,,,,,,,,,,,,AMP,right,0.333708576625213,,,right,0,0.333708576625213,0,,,,,,,,,,,,,,,,,,,,,,1017,2019_Mar_06_1245,mf_amp_cond1,3.0.4,59.98603264524671,
hate,chared,&&&&&&,right,fairness.vice,,,,,,,0,167,167,167,,,,,,,,,,,,,,,,,,,,,AMP,right,0.21697651501744986,,,right,1,0.21697651501744986,1,,,,,,,,,,,,,,,,,,,,,,1017,2019_Mar_06_1245,mf_amp_cond1,3.0.4,59.98603264524671,
peaceful,chonograph,&&&&&&&&&&,left,authority.virtue,,,,,,,0,168,168,168,,,,,,,,,,,,,,,,,,,,,AMP,left,0.31702147994656116,,,left,1,0.31702147994656116,1,,,,,,,,,,,,,,,,,,,,,,1017,2019_Mar_06_1245,mf_amp_cond1,3.0.4,59.98603264524671,
praised,nackers,&&&&&&&,left,loyalty.virtue,,,,,,,0,169,169,169,,,,,,,,,,,,,,,,,,,,,AMP,left,0.28367871744558215,,,left,1,0.28367871744558215,1,,,,,,,,,,,,,,,,,,,,,,1017,2019_Mar_06_1245,mf_amp_cond1,3.0.4,59.98603264524671,
voter,gaultless,&&&&&&&&&,right,fairness.vice,,,,,,,0,170,170,170,,,,,,,,,,,,,,,,,,,,,AMP,right,0.5168942820746452,,,right,1,0.5168942820746452,1,,,,,,,,,,,,,,,,,,,,,,1017,2019_Mar_06_1245,mf_amp_cond1,3.0.4,59.98603264524671,
refused,idexpressible,&&&&&&&&&&&&&,right,authority.vice,,,,,,,0,171,171,171,,,,,,,,,,,,,,,,,,,,,AMP,right,0.4503245372325182,,,right,1,0.4503245372325182,1,,,,,,,,,,,,,,,,,,,,,,1017,2019_Mar_06_1245,mf_amp_cond1,3.0.4,59.98603264524671,
threatened,pescinded,&&&&&&&&&,right,fairness.vice,,,,,,,0,172,172,172,,,,,,,,,,,,,,,,,,,,,AMP,left,0.3169143592240289,,,left,0,0.3169143592240289,0,,,,,,,,,,,,,,,,,,,,,,1017,2019_Mar_06_1245,mf_amp_cond1,3.0.4,59.98603264524671,
improve,proached,&&&&&&&&,left,care.virtue,,,,,,,0,173,173,173,,,,,,,,,,,,,,,,,,,,,AMP,right,0.35035814880393445,,,right,0,0.35035814880393445,0,,,,,,,,,,,,,,,,,,,,,,1017,2019_Mar_06_1245,mf_amp_cond1,3.0.4,59.98603264524671,
party,esquisiteness,&&&&&&&&&&&&&,left,loyalty.virtue,,,,,,,0,174,174,174,,,,,,,,,,,,,,,,,,,,,AMP,right,0.3503437163308263,,,right,0,0.3503437163308263,0,,,,,,,,,,,,,,,,,,,,,,1017,2019_Mar_06_1245,mf_amp_cond1,3.0.4,59.98603264524671,
troops,letish,&&&&&&,right,loyalty.vice,,,,,,,0,175,175,175,,,,,,,,,,,,,,,,,,,,,AMP,left,0.43374680634588003,,,left,0,0.43374680634588003,0,,,,,,,,,,,,,,,,,,,,,,1017,2019_Mar_06_1245,mf_amp_cond1,3.0.4,59.98603264524671,
celebrated,erks,&&&&,left,authority.virtue,,,,,,,0,176,176,176,,,,,,,,,,,,,,,,,,,,,AMP,right,0.5337164021329954,,,right,0,0.5337164021329954,0,,,,,,,,,,,,,,,,,,,,,,1017,2019_Mar_06_1245,mf_amp_cond1,3.0.4,59.98603264524671,
benefit,ablow,&&&&&,left,fairness.virtue,,,,,,,0,177,177,177,,,,,,,,,,,,,,,,,,,,,AMP,right,0.3003311761422083,,,right,0,0.3003311761422083,0,,,,,,,,,,,,,,,,,,,,,,1017,2019_Mar_06_1245,mf_amp_cond1,3.0.4,59.98603264524671,
honored,neputized,&&&&&&&&&,left,authority.virtue,,,,,,,0,178,178,178,,,,,,,,,,,,,,,,,,,,,AMP,left,0.41701673332136124,,,left,1,0.41701673332136124,1,,,,,,,,,,,,,,,,,,,,,,1017,2019_Mar_06_1245,mf_amp_cond1,3.0.4,59.98603264524671,
shoirmaster,Loorish,&&&&&&&,None,nonword,,,,,,,0,179,179,179,,,,,,,,,,,,,,,,,,,,,AMP,left,0.3337537981569767,,,left,0,0.3337537981569767,0,,,,,,,,,,,,,,,,,,,,,,1017,2019_Mar_06_1245,mf_amp_cond1,3.0.4,59.98603264524671,
imebreaker,hefurbished,&&&&&&&&&&&,None,nonword,,,,,,,0,180,180,180,,,,,,,,,,,,,,,,,,,,,AMP,right,0.21695534733589739,,,right,0,0.21695534733589739,0,,,,,,,,,,,,,,,,,,,,,,1017,2019_Mar_06_1245,mf_amp_cond1,3.0.4,59.98603264524671,
promote,smapper,&&&&&&&,left,sanctity.virtue,,,,,,,0,181,181,181,,,,,,,,,,,,,,,,,,,,,AMP,right,0.7337601484032348,,,right,0,0.7337601484032348,0,,,,,,,,,,,,,,,,,,,,,,1017,2019_Mar_06_1245,mf_amp_cond1,3.0.4,59.98603264524671,
police,aubos,&&&&&,right,authority.vice,,,,,,,0,182,182,182,,,,,,,,,,,,,,,,,,,,,AMP,left,0.2668190731201321,,,left,0,0.2668190731201321,0,,,,,,,,,,,,,,,,,,,,,,1017,2019_Mar_06_1245,mf_amp_cond1,3.0.4,59.98603264524671,
war,leact,&&&&&,right,sanctity.vice,,,,,,,0,183,183,183,,,,,,,,,,,,,,,,,,,,,AMP,left,0.5337096669245511,,,left,0,0.5337096669245511,0,,,,,,,,,,,,,,,,,,,,,,1017,2019_Mar_06_1245,mf_amp_cond1,3.0.4,59.98603264524671,
charges,scock,&&&&&,right,fairness.vice,,,,,,,0,184,184,184,,,,,,,,,,,,,,,,,,,,,AMP,left,0.5837209243327379,,,left,0,0.5837209243327379,0,,,,,,,,,,,,,,,,,,,,,,1017,2019_Mar_06_1245,mf_amp_cond1,3.0.4,59.98603264524671,
death,abointment,&&&&&&&&&&,right,care.vice,,,,,,,0,185,185,185,,,,,,,,,,,,,,,,,,,,,AMP,right,0.6003150118049234,,,right,1,0.6003150118049234,1,,,,,,,,,,,,,,,,,,,,,,1017,2019_Mar_06_1245,mf_amp_cond1,3.0.4,59.98603264524671,
army,nomparisons,&&&&&&&&&&&,right,loyalty.vice,,,,,,,0,186,186,186,,,,,,,,,,,,,,,,,,,,,AMP,right,0.6170704219257459,,,right,1,0.6170704219257459,1,,,,,,,,,,,,,,,,,,,,,,1017,2019_Mar_06_1245,mf_amp_cond1,3.0.4,59.98603264524671,
safe,rivernoat,&&&&&&&&&,left,care.virtue,,,,,,,0,187,187,187,,,,,,,,,,,,,,,,,,,,,AMP,right,0.7171080104308203,,,right,0,0.7171080104308203,0,,,,,,,,,,,,,,,,,,,,,,1017,2019_Mar_06_1245,mf_amp_cond1,3.0.4,59.98603264524671,
pleasant,noped,&&&&&,None,control,,,,,,,0,188,188,188,,,,,,,,,,,,,,,,,,,,,AMP,right,0.4003315611043945,,,right,0,0.4003315611043945,0,,,,,,,,,,,,,,,,,,,,,,1017,2019_Mar_06_1245,mf_amp_cond1,3.0.4,59.98603264524671,
victim,pulge,&&&&&,right,care.vice,,,,,,,0,189,189,189,,,,,,,,,,,,,,,,,,,,,AMP,left,0.6838319577509537,,,left,0,0.6838319577509537,0,,,,,,,,,,,,,,,,,,,,,,1017,2019_Mar_06_1245,mf_amp_cond1,3.0.4,59.98603264524671,
health,chadows,&&&&&&&,left,care.virtue,,,,,,,0,190,190,190,,,,,,,,,,,,,,,,,,,,,AMP,left,0.35017950739711523,,,left,1,0.35017950739711523,1,,,,,,,,,,,,,,,,,,,,,,1017,2019_Mar_06_1245,mf_amp_cond1,3.0.4,59.98603264524671,
intelligence,discovars,&&&&&&&&&,left,loyalty.virtue,,,,,,,0,191,191,191,,,,,,,,,,,,,,,,,,,,,AMP,left,0.6003140496322885,,,left,1,0.6003140496322885,1,,,,,,,,,,,,,,,,,,,,,,1017,2019_Mar_06_1245,mf_amp_cond1,3.0.4,59.98603264524671,
emassion,saned,&&&&&,None,nonword,,,,,,,0,192,192,192,,,,,,,,,,,,,,,,,,,,,AMP,right,0.23366104578599334,,,right,0,0.23366104578599334,0,,,,,,,,,,,,,,,,,,,,,,1017,2019_Mar_06_1245,mf_amp_cond1,3.0.4,59.98603264524671,
violations,fonderland,&&&&&&&&&&,right,sanctity.vice,,,,,,,0,193,193,193,,,,,,,,,,,,,,,,,,,,,AMP,right,0.3503587902523577,,,right,1,0.3503587902523577,1,,,,,,,,,,,,,,,,,,,,,,1017,2019_Mar_06_1245,mf_amp_cond1,3.0.4,59.98603264524671,
embrace,brudent,&&&&&&&,left,authority.virtue,,,,,,,0,194,194,194,,,,,,,,,,,,,,,,,,,,,AMP,right,0.23364212329033762,,,right,0,0.23364212329033762,0,,,,,,,,,,,,,,,,,,,,,,1017,2019_Mar_06_1245,mf_amp_cond1,3.0.4,59.98603264524671,
suicide,gazily,&&&&&&,right,care.vice,,,,,,,0,195,195,195,,,,,,,,,,,,,,,,,,,,,AMP,right,0.31683033041190356,,,right,1,0.31683033041190356,1,,,,,,,,,,,,,,,,,,,,,,1017,2019_Mar_06_1245,mf_amp_cond1,3.0.4,59.98603264524671,
sharing,precificity,&&&&&&&&&&&,left,loyalty.virtue,,,,,,,0,196,196,196,,,,,,,,,,,,,,,,,,,,,AMP,left,0.1669565981719643,,,left,1,0.1669565981719643,1,,,,,,,,,,,,,,,,,,,,,,1017,2019_Mar_06_1245,mf_amp_cond1,3.0.4,59.98603264524671,
good,photocalkodes,&&&&&&&&&&&&&,left,care.virtue,,,,,,,0,197,197,197,,,,,,,,,,,,,,,,,,,,,AMP,right,0.36700707965064794,,,right,0,0.36700707965064794,0,,,,,,,,,,,,,,,,,,,,,,1017,2019_Mar_06_1245,mf_amp_cond1,3.0.4,59.98603264524671,
safety,tabin,&&&&&,left,care.virtue,,,,,,,0,198,198,198,,,,,,,,,,,,,,,,,,,,,AMP,left,0.31699293584097177,,,left,1,0.31699293584097177,1,,,,,,,,,,,,,,,,,,,,,,1017,2019_Mar_06_1245,mf_amp_cond1,3.0.4,59.98603264524671,
groups,reprisols,&&&&&&&&&,right,loyalty.vice,,,,,,,0,199,199,199,,,,,,,,,,,,,,,,,,,,,AMP,left,0.3836906482465565,,,left,0,0.3836906482465565,0,,,,,,,,,,,,,,,,,,,,,,1017,2019_Mar_06_1245,mf_amp_cond1,3.0.4,59.98603264524671,
torture,lachelor,&&&&&&&&,right,care.vice,,,,,,,0,200,200,200,,,,,,,,,,,,,,,,,,,,,AMP,right,0.35032447311095893,,,right,1,0.35032447311095893,1,,,,,,,,,,,,,,,,,,,,,,1017,2019_Mar_06_1245,mf_amp_cond1,3.0.4,59.98603264524671,
serial,rorroborated,&&&&&&&&&&&&,right,sanctity.vice,,,,,,,0,201,201,201,,,,,,,,,,,,,,,,,,,,,AMP,left,0.28365402191411704,,,left,0,0.28365402191411704,0,,,,,,,,,,,,,,,,,,,,,,1017,2019_Mar_06_1245,mf_amp_cond1,3.0.4,59.98603264524671,
win,stindig,&&&&&&&,left,fairness.virtue,,,,,,,0,202,202,202,,,,,,,,,,,,,,,,,,,,,AMP,right,0.28365017333999276,,,right,0,0.28365017333999276,0,,,,,,,,,,,,,,,,,,,,,,1017,2019_Mar_06_1245,mf_amp_cond1,3.0.4,59.98603264524671,
frojecting,juck,&&&&,None,nonword,,,,,,,0,203,203,203,,,,,,,,,,,,,,,,,,,,,AMP,right,0.3003321383148432,,,right,0,0.3003321383148432,0,,,,,,,,,,,,,,,,,,,,,,1017,2019_Mar_06_1245,mf_amp_cond1,3.0.4,59.98603264524671,
prosecution,elduringly,&&&&&&&&&&,right,authority.vice,,,,,,,0,204,204,204,,,,,,,,,,,,,,,,,,,,,AMP,left,0.28365241829305887,,,left,0,0.28365241829305887,0,,,,,,,,,,,,,,,,,,,,,,1017,2019_Mar_06_1245,mf_amp_cond1,3.0.4,59.98603264524671,
killed,disregord,&&&&&&&&&,right,care.vice,,,,,,,0,205,205,205,,,,,,,,,,,,,,,,,,,,,AMP,right,0.43369966046884656,,,right,1,0.43369966046884656,1,,,,,,,,,,,,,,,,,,,,,,1017,2019_Mar_06_1245,mf_amp_cond1,3.0.4,59.98603264524671,
violence,sfumatoy,&&&&&&&&,right,care.vice,,,,,,,0,206,206,206,,,,,,,,,,,,,,,,,,,,,AMP,left,0.31697722047101706,,,left,0,0.31697722047101706,0,,,,,,,,,,,,,,,,,,,,,,1017,2019_Mar_06_1245,mf_amp_cond1,3.0.4,59.98603264524671,
grovelire,oam,&&&,None,nonword,,,,,,,0,207,207,207,,,,,,,,,,,,,,,,,,,,,AMP,left,0.2836674922145903,,,left,0,0.2836674922145903,0,,,,,,,,,,,,,,,,,,,,,,1017,2019_Mar_06_1245,mf_amp_cond1,3.0.4,59.98603264524671,
friends,drumbled,&&&&&&&&,left,loyalty.virtue,,,,,,,0,208,208,208,,,,,,,,,,,,,,,,,,,,,AMP,right,0.266987772192806,,,right,0,0.266987772192806,0,,,,,,,,,,,,,,,,,,,,,,1017,2019_Mar_06_1245,mf_amp_cond1,3.0.4,59.98603264524671,
sliptery,tislay,&&&&&&,None,nonword,,,,,,,0,209,209,209,,,,,,,,,,,,,,,,,,,,,AMP,right,0.6337395580485463,,,right,0,0.6337395580485463,0,,,,,,,,,,,,,,,,,,,,,,1017,2019_Mar_06_1245,mf_amp_cond1,3.0.4,59.98603264524671,
scandal,allears,&&&&&&&,right,sanctity.vice,,,,,,,0,210,210,210,,,,,,,,,,,,,,,,,,,,,AMP,right,0.4837083520833403,,,right,1,0.4837083520833403,1,,,,,,,,,,,,,,,,,,,,,,1017,2019_Mar_06_1245,mf_amp_cond1,3.0.4,59.98603264524671,
prison,dumid,&&&&&,right,fairness.vice,,,,,,,0,211,211,211,,,,,,,,,,,,,,,,,,,,,AMP,right,0.6170806849841028,,,right,1,0.6170806849841028,1,,,,,,,,,,,,,,,,,,,,,,1017,2019_Mar_06_1245,mf_amp_cond1,3.0.4,59.98603264524671,
abuse,framatic,&&&&&&&&,right,sanctity.vice,,,,,,,0,212,212,212,,,,,,,,,,,,,,,,,,,,,AMP,left,0.41702988278120756,,,left,0,0.41702988278120756,0,,,,,,,,,,,,,,,,,,,,,,1017,2019_Mar_06_1245,mf_amp_cond1,3.0.4,59.98603264524671,
values,atson,&&&&&,left,sanctity.virtue,,,,,,,0,213,213,213,,,,,,,,,,,,,,,,,,,,,AMP,left,0.38367653649766,,,left,1,0.38367653649766,1,,,,,,,,,,,,,,,,,,,,,,1017,2019_Mar_06_1245,mf_amp_cond1,3.0.4,59.98603264524671,
betrayal,feleological,&&&&&&&&&&&&,right,loyalty.vice,,,,,,,0,214,214,214,,,,,,,,,,,,,,,,,,,,,AMP,left,0.6670662846881896,,,left,0,0.6670662846881896,0,,,,,,,,,,,,,,,,,,,,,,1017,2019_Mar_06_1245,mf_amp_cond1,3.0.4,59.98603264524671,
strength,touls,&&&&&,left,sanctity.virtue,,,,,,,0,215,215,215,,,,,,,,,,,,,,,,,,,,,AMP,right,0.23362512490712106,,,right,0,0.23362512490712106,0,,,,,,,,,,,,,,,,,,,,,,1017,2019_Mar_06_1245,mf_amp_cond1,3.0.4,59.98603264524671,
increase,glacenta,&&&&&&&&,left,care.virtue,,,,,,,0,216,216,216,,,,,,,,,,,,,,,,,,,,,AMP,right,0.3670141353504732,,,right,0,0.3670141353504732,0,,,,,,,,,,,,,,,,,,,,,,1017,2019_Mar_06_1245,mf_amp_cond1,3.0.4,59.98603264524671,
harassment,crinking,&&&&&&&&,right,sanctity.vice,,,,,,,0,217,217,217,,,,,,,,,,,,,,,,,,,,,AMP,left,0.3003164230613038,,,left,0,0.3003164230613038,0,,,,,,,,,,,,,,,,,,,,,,1017,2019_Mar_06_1245,mf_amp_cond1,3.0.4,59.98603264524671,
free,fornicalion,&&&&&&&&&&&,left,fairness.virtue,,,,,,,0,218,218,218,,,,,,,,,,,,,,,,,,,,,AMP,right,0.23364372679498047,,,right,0,0.23364372679498047,0,,,,,,,,,,,,,,,,,,,,,,1017,2019_Mar_06_1245,mf_amp_cond1,3.0.4,59.98603264524671,
faith,baklara,&&&&&&&,left,sanctity.virtue,,,,,,,0,219,219,219,,,,,,,,,,,,,,,,,,,,,AMP,left,0.33366848644800484,,,left,1,0.33366848644800484,1,,,,,,,,,,,,,,,,,,,,,,1017,2019_Mar_06_1245,mf_amp_cond1,3.0.4,59.98603264524671,
ban,lempestuous,&&&&&&&&&&&,right,loyalty.vice,,,,,,,0,220,220,220,,,,,,,,,,,,,,,,,,,,,AMP,right,0.41702956205699593,,,right,1,0.41702956205699593,1,,,,,,,,,,,,,,,,,,,,,,1017,2019_Mar_06_1245,mf_amp_cond1,3.0.4,59.98603264524671,
accused,clamorek,&&&&&&&&,right,fairness.vice,,,,,,,0,221,221,221,,,,,,,,,,,,,,,,,,,,,AMP,left,0.4003536907257512,,,left,0,0.4003536907257512,0,,,,,,,,,,,,,,,,,,,,,,1017,2019_Mar_06_1245,mf_amp_cond1,3.0.4,59.98603264524671,
restore,pistraught,&&&&&&&&&&,left,care.virtue,,,,,,,0,222,222,222,,,,,,,,,,,,,,,,,,,,,AMP,right,0.5170530388131738,,,right,0,0.5170530388131738,0,,,,,,,,,,,,,,,,,,,,,,1017,2019_Mar_06_1245,mf_amp_cond1,3.0.4,59.98603264524671,
ability,alar,&&&&,left,authority.virtue,,,,,,,0,223,223,223,,,,,,,,,,,,,,,,,,,,,AMP,right,0.5337231372250244,,,right,0,0.5337231372250244,0,,,,,,,,,,,,,,,,,,,,,,1017,2019_Mar_06_1245,mf_amp_cond1,3.0.4,59.98603264524671,
victims,squets,&&&&&&,right,care.vice,,,,,,,0,224,224,224,,,,,,,,,,,,,,,,,,,,,AMP,right,0.28366877511143684,,,right,1,0.28366877511143684,1,,,,,,,,,,,,,,,,,,,,,,1017,2019_Mar_06_1245,mf_amp_cond1,3.0.4,59.98603264524671,
strong,bluently,&&&&&&&&,left,loyalty.virtue,,,,,,,0,225,225,225,,,,,,,,,,,,,,,,,,,,,AMP,right,0.4336922839283943,,,right,0,0.4336922839283943,0,,,,,,,,,,,,,,,,,,,,,,1017,2019_Mar_06_1245,mf_amp_cond1,3.0.4,59.98603264524671,
rejected,forepo,&&&&&&,right,authority.vice,,,,,,,0,226,226,226,,,,,,,,,,,,,,,,,,,,,AMP,left,0.2503000341821462,,,left,0,0.2503000341821462,0,,,,,,,,,,,,,,,,,,,,,,1017,2019_Mar_06_1245,mf_amp_cond1,3.0.4,59.98603264524671,
opportunity,framo,&&&&&,left,fairness.virtue,,,,,,,0,227,227,227,,,,,,,,,,,,,,,,,,,,,AMP,left,0.4003642745083198,,,left,1,0.4003642745083198,1,,,,,,,,,,,,,,,,,,,,,,1017,2019_Mar_06_1245,mf_amp_cond1,3.0.4,59.98603264524671,
trust,sidearbs,&&&&&&&&,left,authority.virtue,,,,,,,0,228,228,228,,,,,,,,,,,,,,,,,,,,,AMP,right,0.03358234092593193,,,right,0,0.03358234092593193,0,,,,,,,,,,,,,,,,,,,,,,1017,2019_Mar_06_1245,mf_amp_cond1,3.0.4,59.98603264524671,
perfect,honstables,&&&&&&&&&&,left,sanctity.virtue,,,,,,,0,229,229,229,,,,,,,,,,,,,,,,,,,,,AMP,left,0.46703632932621986,,,left,1,0.46703632932621986,1,,,,,,,,,,,,,,,,,,,,,,1017,2019_Mar_06_1245,mf_amp_cond1,3.0.4,59.98603264524671,
credit,nomaric,&&&&&&&,left,fairness.virtue,,,,,,,0,230,230,230,,,,,,,,,,,,,,,,,,,,,AMP,left,1.117194540798664,,,left,1,1.117194540798664,1,,,,,,,,,,,,,,,,,,,,,,1017,2019_Mar_06_1245,mf_amp_cond1,3.0.4,59.98603264524671,
penalty,quarterbocks,&&&&&&&&&&&&,right,authority.vice,,,,,,,0,231,231,231,,,,,,,,,,,,,,,,,,,,,AMP,right,0.5003633765736595,,,right,1,0.5003633765736595,1,,,,,,,,,,,,,,,,,,,,,,1017,2019_Mar_06_1245,mf_amp_cond1,3.0.4,59.98603264524671,
chreams,gandbrake,&&&&&&&&&,None,nonword,,,,,,,0,232,232,232,,,,,,,,,,,,,,,,,,,,,AMP,right,0.4670302355661988,,,right,0,0.4670302355661988,0,,,,,,,,,,,,,,,,,,,,,,1017,2019_Mar_06_1245,mf_amp_cond1,3.0.4,59.98603264524671,
gun,thadowed,&&&&&&&&,right,authority.vice,,,,,,,0,233,233,233,,,,,,,,,,,,,,,,,,,,,AMP,left,0.5003778089303523,,,left,0,0.5003778089303523,0,,,,,,,,,,,,,,,,,,,,,,1017,2019_Mar_06_1245,mf_amp_cond1,3.0.4,59.98603264524671,
commitment,gationwide,&&&&&&&&&&,left,sanctity.virtue,,,,,,,0,234,234,234,,,,,,,,,,,,,,,,,,,,,AMP,right,0.5837218865053728,,,right,0,0.5837218865053728,0,,,,,,,,,,,,,,,,,,,,,,1017,2019_Mar_06_1245,mf_amp_cond1,3.0.4,59.98603264524671,
encourage,gournful,&&&&&&&&,left,authority.virtue,,,,,,,0,235,235,235,,,,,,,,,,,,,,,,,,,,,AMP,left,0.317003519507125,,,left,1,0.317003519507125,1,,,,,,,,,,,,,,,,,,,,,,1017,2019_Mar_06_1245,mf_amp_cond1,3.0.4,59.98603264524671,
tenuflect,ugeasily,&&&&&&&&,None,nonword,,,,,,,0,236,236,236,,,,,,,,,,,,,,,,,,,,,AMP,left,0.6670771890785545,,,left,0,0.6670771890785545,0,,,,,,,,,,,,,,,,,,,,,,1017,2019_Mar_06_1245,mf_amp_cond1,3.0.4,59.98603264524671,
agreement,ebbitter,&&&&&&&&,left,fairness.virtue,,,,,,,0,237,237,237,,,,,,,,,,,,,,,,,,,,,AMP,left,1.0005003242986277,,,left,1,1.0005003242986277,1,,,,,,,,,,,,,,,,,,,,,,1017,2019_Mar_06_1245,mf_amp_cond1,3.0.4,59.98603264524671,
sexual,ecgagement,&&&&&&&&&&,right,sanctity.vice,,,,,,,0,238,238,238,,,,,,,,,,,,,,,,,,,,,AMP,right,0.28364536247681826,,,right,1,0.28364536247681826,1,,,,,,,,,,,,,,,,,,,,,,1017,2019_Mar_06_1245,mf_amp_cond1,3.0.4,59.98603264524671,
tomedians,clattening,&&&&&&&&&&,None,nonword,,,,,,,0,239,239,239,,,,,,,,,,,,,,,,,,,,,AMP,right,0.40034406923223287,,,right,0,0.40034406923223287,0,,,,,,,,,,,,,,,,,,,,,,1017,2019_Mar_06_1245,mf_amp_cond1,3.0.4,59.98603264524671,
love,crilfully,&&&&&&&&&,left,loyalty.virtue,,,,,,,0,240,240,240,,,,,,,,,,,,,,,,,,,,,AMP,right,0.3336749009322375,,,right,0,0.3336749009322375,0,,,,,,,,,,,,,,,,,,,,,,1017,2019_Mar_06_1245,mf_amp_cond1,3.0.4,59.98603264524671,
lies,simplustic,&&&&&&&&&&,right,fairness.vice,,,,,,,0,241,241,241,,,,,,,,,,,,,,,,,,,,,AMP,left,0.4837372169131413,,,left,0,0.4837372169131413,0,,,,,,,,,,,,,,,,,,,,,,1017,2019_Mar_06_1245,mf_amp_cond1,3.0.4,59.98603264524671,
unpleasant,synchronazers,&&&&&&&&&&&&&,None,control,,,,,,,0,242,242,242,,,,,,,,,,,,,,,,,,,,,AMP,left,0.7171647779177874,,,left,0,0.7171647779177874,0,,,,,,,,,,,,,,,,,,,,,,1017,2019_Mar_06_1245,mf_amp_cond1,3.0.4,59.98603264524671,
men,yane,&&&&,right,loyalty.vice,,,,,,,0,243,243,243,,,,,,,,,,,,,,,,,,,,,AMP,right,0.6170903065940365,,,right,1,0.6170903065940365,1,,,,,,,,,,,,,,,,,,,,,,1017,2019_Mar_06_1245,mf_amp_cond1,3.0.4,59.98603264524671,
slavery,Lacedonia,&&&&&&&&&,right,loyalty.vice,,,,,,,0,244,244,244,,,,,,,,,,,,,,,,,,,,,AMP,right,0.7004270075121894,,,right,1,0.7004270075121894,1,,,,,,,,,,,,,,,,,,,,,,1017,2019_Mar_06_1245,mf_amp_cond1,3.0.4,59.98603264524671,
arrests,coom,&&&&,right,authority.vice,,,,,,,0,245,245,245,,,,,,,,,,,,,,,,,,,,,AMP,right,0.4336900388589129,,,right,1,0.4336900388589129,1,,,,,,,,,,,,,,,,,,,,,,1017,2019_Mar_06_1245,mf_amp_cond1,3.0.4,59.98603264524671,
opportunity,framatic,&&&&&&&&,left,fairness.virtue,,,,,,,0,246,246,246,,,,,,,,,,,,,,,,,,,,,AMP,right,0.3836685185087845,,,right,0,0.3836685185087845,0,,,,,,,,,,,,,,,,,,,,,,1017,2019_Mar_06_1245,mf_amp_cond1,3.0.4,59.98603264524671,
emassion,rivernoat,&&&&&&&&&,None,nonword,,,,,,,0,247,247,247,,,,,,,,,,,,,,,,,,,,,AMP,left,0.4170083944918588,,,left,0,0.4170083944918588,0,,,,,,,,,,,,,,,,,,,,,,1017,2019_Mar_06_1245,mf_amp_cond1,3.0.4,59.98603264524671,
violence,yane,&&&&,right,care.vice,,,,,,,0,248,248,248,,,,,,,,,,,,,,,,,,,,,AMP,left,0.6337401994969696,,,left,0,0.6337401994969696,0,,,,,,,,,,,,,,,,,,,,,,1017,2019_Mar_06_1245,mf_amp_cond1,3.0.4,59.98603264524671,
war,honstables,&&&&&&&&&&,right,sanctity.vice,,,,,,,0,249,249,249,,,,,,,,,,,,,,,,,,,,,AMP,right,0.3170009538298473,,,right,1,0.3170009538298473,1,,,,,,,,,,,,,,,,,,,,,,1017,2019_Mar_06_1245,mf_amp_cond1,3.0.4,59.98603264524671,
violations,Lacedonia,&&&&&&&&&,right,sanctity.vice,,,,,,,0,250,250,250,,,,,,,,,,,,,,,,,,,,,AMP,left,0.18362509284634143,,,left,0,0.18362509284634143,0,,,,,,,,,,,,,,,,,,,,,,1017,2019_Mar_06_1245,mf_amp_cond1,3.0.4,59.98603264524671,
army,alar,&&&&,right,loyalty.vice,,,,,,,0,251,251,251,,,,,,,,,,,,,,,,,,,,,AMP,right,0.31698299339041114,,,right,1,0.31698299339041114,1,,,,,,,,,,,,,,,,,,,,,,1017,2019_Mar_06_1245,mf_amp_cond1,3.0.4,59.98603264524671,
tomedians,clattening,&&&&&&&&&&,None,nonword,,,,,,,0,252,252,252,,,,,,,,,,,,,,,,,,,,,AMP,right,0.533697800245136,,,right,0,0.533697800245136,0,,,,,,,,,,,,,,,,,,,,,,1017,2019_Mar_06_1245,mf_amp_cond1,3.0.4,59.98603264524671,
values,hefurbished,&&&&&&&&&&&,left,sanctity.virtue,,,,,,,0,253,253,253,,,,,,,,,,,,,,,,,,,,,AMP,left,0.2669887343654409,,,left,1,0.2669887343654409,1,,,,,,,,,,,,,,,,,,,,,,1017,2019_Mar_06_1245,mf_amp_cond1,3.0.4,59.98603264524671,
pleasant,drumbled,&&&&&&&&,None,control,,,,,,,0,254,254,254,,,,,,,,,,,,,,,,,,,,,AMP,left,0.41701673332136124,,,left,0,0.41701673332136124,0,,,,,,,,,,,,,,,,,,,,,,1017,2019_Mar_06_1245,mf_amp_cond1,3.0.4,59.98603264524671,
shoirmaster,ecgagement,&&&&&&&&&&,None,nonword,,,,,,,0,255,255,255,,,,,,,,,,,,,,,,,,,,,AMP,left,0.6337456518085673,,,left,0,0.6337456518085673,0,,,,,,,,,,,,,,,,,,,,,,1017,2019_Mar_06_1245,mf_amp_cond1,3.0.4,59.98603264524671,
perfect,sfumatoy,&&&&&&&&,left,sanctity.virtue,,,,,,,0,256,256,256,,,,,,,,,,,,,,,,,,,,,AMP,left,0.633729615714401,,,left,1,0.633729615714401,1,,,,,,,,,,,,,,,,,,,,,,1017,2019_Mar_06_1245,mf_amp_cond1,3.0.4,59.98603264524671,
abuse,Loorish,&&&&&&&,right,sanctity.vice,,,,,,,0,257,257,257,,,,,,,,,,,,,,,,,,,,,AMP,right,0.4503668723627925,,,right,1,0.4503668723627925,1,,,,,,,,,,,,,,,,,,,,,,1017,2019_Mar_06_1245,mf_amp_cond1,3.0.4,59.98603264524671,
ejanulated,brudent,&&&&&&&,None,nonword,,,,,,,0,258,258,258,,,,,,,,,,,,,,,,,,,,,AMP,right,0.8671491588465869,,,right,0,0.8671491588465869,0,,,,,,,,,,,,,,,,,,,,,,1017,2019_Mar_06_1245,mf_amp_cond1,3.0.4,59.98603264524671,
unpleasant,atson,&&&&&,None,control,,,,,,,0,259,259,259,,,,,,,,,,,,,,,,,,,,,AMP,right,0.6504006764153019,,,right,0,0.6504006764153019,0,,,,,,,,,,,,,,,,,,,,,,1017,2019_Mar_06_1245,mf_amp_cond1,3.0.4,59.98603264524671,
encourage,photocalkodes,&&&&&&&&&&&&&,left,authority.virtue,,,,,,,0,260,260,260,,,,,,,,,,,,,,,,,,,,,AMP,right,0.6003955127671361,,,right,0,0.6003955127671361,0,,,,,,,,,,,,,,,,,,,,,,1017,2019_Mar_06_1245,mf_amp_cond1,3.0.4,59.98603264524671,
increase,clamorek,&&&&&&&&,left,care.virtue,,,,,,,0,261,261,261,,,,,,,,,,,,,,,,,,,,,AMP,left,0.4503639858448878,,,left,1,0.4503639858448878,1,,,,,,,,,,,,,,,,,,,,,,1017,2019_Mar_06_1245,mf_amp_cond1,3.0.4,59.98603264524671,
strong,papert,&&&&&&,left,loyalty.virtue,,,,,,,0,262,262,262,,,,,,,,,,,,,,,,,,,,,AMP,left,0.3170307808322832,,,left,1,0.3170307808322832,1,,,,,,,,,,,,,,,,,,,,,,1017,2019_Mar_06_1245,mf_amp_cond1,3.0.4,59.98603264524671,
charges,chonograph,&&&&&&&&&&,right,fairness.vice,,,,,,,0,263,263,263,,,,,,,,,,,,,,,,,,,,,AMP,right,0.3837429255945608,,,right,1,0.3837429255945608,1,,,,,,,,,,,,,,,,,,,,,,1017,2019_Mar_06_1245,mf_amp_cond1,3.0.4,59.98603264524671,
health,disregord,&&&&&&&&&,left,care.virtue,,,,,,,0,264,264,264,,,,,,,,,,,,,,,,,,,,,AMP,right,0.5003627351252362,,,right,0,0.5003627351252362,0,,,,,,,,,,,,,,,,,,,,,,1017,2019_Mar_06_1245,mf_amp_cond1,3.0.4,59.98603264524671,
victims,abointment,&&&&&&&&&&,right,care.vice,,,,,,,0,265,265,265,,,,,,,,,,,,,,,,,,,,,AMP,left,0.6671086198184639,,,left,0,0.6671086198184639,0,,,,,,,,,,,,,,,,,,,,,,1017,2019_Mar_06_1245,mf_amp_cond1,3.0.4,59.98603264524671,
dignity,erks,&&&&,left,sanctity.virtue,,,,,,,0,266,266,266,,,,,,,,,,,,,,,,,,,,,AMP,right,0.6837501740083098,,,right,0,0.6837501740083098,0,,,,,,,,,,,,,,,,,,,,,,1017,2019_Mar_06_1245,mf_amp_cond1,3.0.4,59.98603264524671,
intelligence,framo,&&&&&,left,loyalty.virtue,,,,,,,0,267,267,267,,,,,,,,,,,,,,,,,,,,,AMP,left,0.4003338060574606,,,left,1,0.4003338060574606,1,,,,,,,,,,,,,,,,,,,,,,1017,2019_Mar_06_1245,mf_amp_cond1,3.0.4,59.98603264524671,
arrests,coom,&&&&,right,authority.vice,,,,,,,0,268,268,268,,,,,,,,,,,,,,,,,,,,,AMP,right,0.3836912896949798,,,right,1,0.3836912896949798,1,,,,,,,,,,,,,,,,,,,,,,1017,2019_Mar_06_1245,mf_amp_cond1,3.0.4,59.98603264524671,
party,chadows,&&&&&&&,left,loyalty.virtue,,,,,,,0,269,269,269,,,,,,,,,,,,,,,,,,,,,AMP,left,0.7004215552005917,,,left,1,0.7004215552005917,1,,,,,,,,,,,,,,,,,,,,,,1017,2019_Mar_06_1245,mf_amp_cond1,3.0.4,59.98603264524671,
serial,idexpressible,&&&&&&&&&&&&&,right,sanctity.vice,,,,,,,0,270,270,270,,,,,,,,,,,,,,,,,,,,,AMP,left,0.38368519593495876,,,left,0,0.38368519593495876,0,,,,,,,,,,,,,,,,,,,,,,1017,2019_Mar_06_1245,mf_amp_cond1,3.0.4,59.98603264524671,
death,glacenta,&&&&&&&&,right,care.vice,,,,,,,0,271,271,271,,,,,,,,,,,,,,,,,,,,,AMP,left,0.5003729981835932,,,left,0,0.5003729981835932,0,,,,,,,,,,,,,,,,,,,,,,1017,2019_Mar_06_1245,mf_amp_cond1,3.0.4,59.98603264524671,
win,gationwide,&&&&&&&&&&,left,fairness.virtue,,,,,,,0,272,272,272,,,,,,,,,,,,,,,,,,,,,AMP,left,0.2836597948335111,,,left,1,0.2836597948335111,1,,,,,,,,,,,,,,,,,,,,,,1017,2019_Mar_06_1245,mf_amp_cond1,3.0.4,59.98603264524671,
sexual,aubos,&&&&&,right,sanctity.vice,,,,,,,0,273,273,273,,,,,,,,,,,,,,,,,,,,,AMP,right,0.3169964636908844,,,right,1,0.3169964636908844,1,,,,,,,,,,,,,,,,,,,,,,1017,2019_Mar_06_1245,mf_amp_cond1,3.0.4,59.98603264524671,
harassment,synchronazers,&&&&&&&&&&&&&,right,sanctity.vice,,,,,,,0,274,274,274,,,,,,,,,,,,,,,,,,,,,AMP,right,0.33366463775746524,,,right,1,0.33366463775746524,1,,,,,,,,,,,,,,,,,,,,,,1017,2019_Mar_06_1245,mf_amp_cond1,3.0.4,59.98603264524671,
grovelire,discovars,&&&&&&&&&,None,nonword,,,,,,,0,275,275,275,,,,,,,,,,,,,,,,,,,,,AMP,right,0.933821213664487,,,right,0,0.933821213664487,0,,,,,,,,,,,,,,,,,,,,,,1017,2019_Mar_06_1245,mf_amp_cond1,3.0.4,59.98603264524671,
faith,nomparisons,&&&&&&&&&&&,left,sanctity.virtue,,,,,,,0,276,276,276,,,,,,,,,,,,,,,,,,,,,AMP,left,0.28364921116735786,,,left,1,0.28364921116735786,1,,,,,,,,,,,,,,,,,,,,,,1017,2019_Mar_06_1245,mf_amp_cond1,3.0.4,59.98603264524671,
suicide,chared,&&&&&&,right,care.vice,,,,,,,0,277,277,277,,,,,,,,,,,,,,,,,,,,,AMP,left,0.58373022521846,,,left,0,0.58373022521846,0,,,,,,,,,,,,,,,,,,,,,,1017,2019_Mar_06_1245,mf_amp_cond1,3.0.4,59.98603264524671,
ban,lachelor,&&&&&&&&,right,loyalty.vice,,,,,,,0,278,278,278,,,,,,,,,,,,,,,,,,,,,AMP,left,0.4503591750981286,,,left,0,0.4503591750981286,0,,,,,,,,,,,,,,,,,,,,,,1017,2019_Mar_06_1245,mf_amp_cond1,3.0.4,59.98603264524671,
tenuflect,pistraught,&&&&&&&&&&,None,nonword,,,,,,,0,279,279,279,,,,,,,,,,,,,,,,,,,,,AMP,left,0.517037644283846,,,left,0,0.517037644283846,0,,,,,,,,,,,,,,,,,,,,,,1017,2019_Mar_06_1245,mf_amp_cond1,3.0.4,59.98603264524671,
penalty,touls,&&&&&,right,authority.vice,,,,,,,0,280,280,280,,,,,,,,,,,,,,,,,,,,,AMP,right,0.2669896965380758,,,right,1,0.2669896965380758,1,,,,,,,,,,,,,,,,,,,,,,1017,2019_Mar_06_1245,mf_amp_cond1,3.0.4,59.98603264524671,
benefit,fonderland,&&&&&&&&&&,left,fairness.virtue,,,,,,,0,281,281,281,,,,,,,,,,,,,,,,,,,,,AMP,right,0.6005594009766355,,,right,0,0.6005594009766355,0,,,,,,,,,,,,,,,,,,,,,,1017,2019_Mar_06_1245,mf_amp_cond1,3.0.4,59.98603264524671,
men,stindig,&&&&&&&,right,loyalty.vice,,,,,,,0,282,282,282,,,,,,,,,,,,,,,,,,,,,AMP,right,0.18363182805478573,,,right,1,0.18363182805478573,1,,,,,,,,,,,,,,,,,,,,,,1017,2019_Mar_06_1245,mf_amp_cond1,3.0.4,59.98603264524671,
improve,bluently,&&&&&&&&,left,care.virtue,,,,,,,0,283,283,283,,,,,,,,,,,,,,,,,,,,,AMP,right,0.5337234580656514,,,right,0,0.5337234580656514,0,,,,,,,,,,,,,,,,,,,,,,1017,2019_Mar_06_1245,mf_amp_cond1,3.0.4,59.98603264524671,
torture,allears,&&&&&&&,right,care.vice,,,,,,,0,284,284,284,,,,,,,,,,,,,,,,,,,,,AMP,left,0.2503170323325321,,,left,0,0.2503170323325321,0,,,,,,,,,,,,,,,,,,,,,,1017,2019_Mar_06_1245,mf_amp_cond1,3.0.4,59.98603264524671,
police,gazily,&&&&&&,right,authority.vice,,,,,,,0,285,285,285,,,,,,,,,,,,,,,,,,,,,AMP,left,0.48370931413955986,,,left,0,0.48370931413955986,0,,,,,,,,,,,,,,,,,,,,,,1017,2019_Mar_06_1245,mf_amp_cond1,3.0.4,59.98603264524671,
love,gournful,&&&&&&&&,left,loyalty.virtue,,,,,,,0,286,286,286,,,,,,,,,,,,,,,,,,,,,AMP,right,0.2836633229162544,,,right,0,0.2836633229162544,0,,,,,,,,,,,,,,,,,,,,,,1017,2019_Mar_06_1245,mf_amp_cond1,3.0.4,59.98603264524671,
sliptery,feleological,&&&&&&&&&&&&,None,nonword,,,,,,,0,287,287,287,,,,,,,,,,,,,,,,,,,,,AMP,right,0.2836437588557601,,,right,0,0.2836437588557601,0,,,,,,,,,,,,,,,,,,,,,,1017,2019_Mar_06_1245,mf_amp_cond1,3.0.4,59.98603264524671,
frojecting,thadowed,&&&&&&&&,None,nonword,,,,,,,0,288,288,288,,,,,,,,,,,,,,,,,,,,,AMP,right,0.00028800719883292913,,,right,0,0.00028800719883292913,0,,,,,,,,,,,,,,,,,,,,,,1017,2019_Mar_06_1245,mf_amp_cond1,3.0.4,59.98603264524671,
credit,tislay,&&&&&&,left,fairness.virtue,,,,,,,0,289,289,289,,,,,,,,,,,,,,,,,,,,,AMP,left,0.8002955762203783,,,left,1,0.8002955762203783,1,,,,,,,,,,,,,,,,,,,,,,1017,2019_Mar_06_1245,mf_amp_cond1,3.0.4,59.98603264524671,
threatened,tabin,&&&&&,right,fairness.vice,,,,,,,0,290,290,290,,,,,,,,,,,,,,,,,,,,,AMP,left,0.1669469765620306,,,left,0,0.1669469765620306,0,,,,,,,,,,,,,,,,,,,,,,1017,2019_Mar_06_1245,mf_amp_cond1,3.0.4,59.98603264524671,
safe,baklara,&&&&&&&,left,care.virtue,,,,,,,0,291,291,291,,,,,,,,,,,,,,,,,,,,,AMP,left,0.7337732979794964,,,left,1,0.7337732979794964,1,,,,,,,,,,,,,,,,,,,,,,1017,2019_Mar_06_1245,mf_amp_cond1,3.0.4,59.98603264524671,
praised,crinking,&&&&&&&&,left,loyalty.virtue,,,,,,,0,292,292,292,,,,,,,,,,,,,,,,,,,,,AMP,right,0.10028422262985259,,,right,0,0.10028422262985259,0,,,,,,,,,,,,,,,,,,,,,,1017,2019_Mar_06_1245,mf_amp_cond1,3.0.4,59.98603264524671,
slavery,pulge,&&&&&,right,loyalty.vice,,,,,,,0,293,293,293,,,,,,,,,,,,,,,,,,,,,AMP,right,0.3170118583366275,,,right,1,0.3170118583366275,1,,,,,,,,,,,,,,,,,,,,,,1017,2019_Mar_06_1245,mf_amp_cond1,3.0.4,59.98603264524671,
imebreaker,ebbitter,&&&&&&&&,None,nonword,,,,,,,0,294,294,294,,,,,,,,,,,,,,,,,,,,,AMP,right,0.33366367558483034,,,right,0,0.33366367558483034,0,,,,,,,,,,,,,,,,,,,,,,1017,2019_Mar_06_1245,mf_amp_cond1,3.0.4,59.98603264524671,
prosecution,nackers,&&&&&&&,right,authority.vice,,,,,,,0,295,295,295,,,,,,,,,,,,,,,,,,,,,AMP,left,0.2169733076589182,,,left,0,0.2169733076589182,0,,,,,,,,,,,,,,,,,,,,,,1017,2019_Mar_06_1245,mf_amp_cond1,3.0.4,59.98603264524671,
celebrated,forepo,&&&&&&,left,authority.virtue,,,,,,,0,296,296,296,,,,,,,,,,,,,,,,,,,,,AMP,right,0.4670289526693523,,,right,0,0.4670289526693523,0,,,,,,,,,,,,,,,,,,,,,,1017,2019_Mar_06_1245,mf_amp_cond1,3.0.4,59.98603264524671,
safety,oam,&&&,left,care.virtue,,,,,,,0,297,297,297,,,,,,,,,,,,,,,,,,,,,AMP,left,0.8004546535667032,,,left,1,0.8004546535667032,1,,,,,,,,,,,,,,,,,,,,,,1017,2019_Mar_06_1245,mf_amp_cond1,3.0.4,59.98603264524671,
embrace,precificity,&&&&&&&&&&&,left,authority.virtue,,,,,,,0,298,298,298,,,,,,,,,,,,,,,,,,,,,AMP,right,0.8004517671652138,,,right,0,0.8004517671652138,0,,,,,,,,,,,,,,,,,,,,,,1017,2019_Mar_06_1245,mf_amp_cond1,3.0.4,59.98603264524671,
rejected,squets,&&&&&&,right,authority.vice,,,,,,,0,299,299,299,,,,,,,,,,,,,,,,,,,,,AMP,right,0.3336434701923281,,,right,1,0.3336434701923281,1,,,,,,,,,,,,,,,,,,,,,,1017,2019_Mar_06_1245,mf_amp_cond1,3.0.4,59.98603264524671,
promote,lempestuous,&&&&&&&&&&&,left,sanctity.virtue,,,,,,,0,300,300,300,,,,,,,,,,,,,,,,,,,,,AMP,left,0.5670482601271942,,,left,1,0.5670482601271942,1,,,,,,,,,,,,,,,,,,,,,,1017,2019_Mar_06_1245,mf_amp_cond1,3.0.4,59.98603264524671,
voter,smapper,&&&&&&&,right,fairness.vice,,,,,,,0,301,301,301,,,,,,,,,,,,,,,,,,,,,AMP,left,0.5503852175315842,,,left,0,0.5503852175315842,0,,,,,,,,,,,,,,,,,,,,,,1017,2019_Mar_06_1245,mf_amp_cond1,3.0.4,59.98603264524671,
victim,nomaric,&&&&&&&,right,care.vice,,,,,,,0,302,302,302,,,,,,,,,,,,,,,,,,,,,AMP,right,0.40034695563372225,,,right,1,0.40034695563372225,1,,,,,,,,,,,,,,,,,,,,,,1017,2019_Mar_06_1245,mf_amp_cond1,3.0.4,59.98603264524671,
commitment,dumid,&&&&&,left,sanctity.virtue,,,,,,,0,303,303,303,,,,,,,,,,,,,,,,,,,,,AMP,right,0.5670726348180324,,,right,0,0.5670726348180324,0,,,,,,,,,,,,,,,,,,,,,,1017,2019_Mar_06_1245,mf_amp_cond1,3.0.4,59.98603264524671,
troops,elduringly,&&&&&&&&&&,right,loyalty.vice,,,,,,,0,304,304,304,,,,,,,,,,,,,,,,,,,,,AMP,left,0.45035981643013656,,,left,0,0.45035981643013656,0,,,,,,,,,,,,,,,,,,,,,,1017,2019_Mar_06_1245,mf_amp_cond1,3.0.4,59.98603264524671,
trust,rorroborated,&&&&&&&&&&&&,left,authority.virtue,,,,,,,0,305,305,305,,,,,,,,,,,,,,,,,,,,,AMP,left,0.38363772933371365,,,left,1,0.38363772933371365,1,,,,,,,,,,,,,,,,,,,,,,1017,2019_Mar_06_1245,mf_amp_cond1,3.0.4,59.98603264524671,
good,sidearbs,&&&&&&&&,left,care.virtue,,,,,,,0,306,306,306,,,,,,,,,,,,,,,,,,,,,AMP,left,0.7004071228438988,,,left,1,0.7004071228438988,1,,,,,,,,,,,,,,,,,,,,,,1017,2019_Mar_06_1245,mf_amp_cond1,3.0.4,59.98603264524671,
agreement,edancipation,&&&&&&&&&&&&,left,fairness.virtue,,,,,,,0,307,307,307,,,,,,,,,,,,,,,,,,,,,AMP,right,0.4170298828976229,,,right,0,0.4170298828976229,0,,,,,,,,,,,,,,,,,,,,,,1017,2019_Mar_06_1245,mf_amp_cond1,3.0.4,59.98603264524671,
groups,scock,&&&&&,right,loyalty.vice,,,,,,,0,308,308,308,,,,,,,,,,,,,,,,,,,,,AMP,right,0.7671385108260438,,,right,1,0.7671385108260438,1,,,,,,,,,,,,,,,,,,,,,,1017,2019_Mar_06_1245,mf_amp_cond1,3.0.4,59.98603264524671,
honored,letish,&&&&&&,left,authority.virtue,,,,,,,0,309,309,309,,,,,,,,,,,,,,,,,,,,,AMP,left,0.9504852183163166,,,left,1,0.9504852183163166,1,,,,,,,,,,,,,,,,,,,,,,1017,2019_Mar_06_1245,mf_amp_cond1,3.0.4,59.98603264524671,
friends,reprisols,&&&&&&&&&,left,loyalty.virtue,,,,,,,0,310,310,310,,,,,,,,,,,,,,,,,,,,,AMP,right,0.6837591541698202,,,right,0,0.6837591541698202,0,,,,,,,,,,,,,,,,,,,,,,1017,2019_Mar_06_1245,mf_amp_cond1,3.0.4,59.98603264524671,
restore,ammessment,&&&&&&&&&&,left,care.virtue,,,,,,,0,311,311,311,,,,,,,,,,,,,,,,,,,,,AMP,left,0.5170523974811658,,,left,1,0.5170523974811658,1,,,,,,,,,,,,,,,,,,,,,,1017,2019_Mar_06_1245,mf_amp_cond1,3.0.4,59.98603264524671,
hate,quarterbocks,&&&&&&&&&&&&,right,fairness.vice,,,,,,,0,312,312,312,,,,,,,,,,,,,,,,,,,,,AMP,right,0.2336478962097317,,,right,1,0.2336478962097317,1,,,,,,,,,,,,,,,,,,,,,,1017,2019_Mar_06_1245,mf_amp_cond1,3.0.4,59.98603264524671,
lies,crilfully,&&&&&&&&&,right,fairness.vice,,,,,,,0,313,313,313,,,,,,,,,,,,,,,,,,,,,AMP,right,0.3670237570768222,,,right,1,0.3670237570768222,1,,,,,,,,,,,,,,,,,,,,,,1017,2019_Mar_06_1245,mf_amp_cond1,3.0.4,59.98603264524671,
accused,simplustic,&&&&&&&&&&,right,fairness.vice,,,,,,,0,314,314,314,,,,,,,,,,,,,,,,,,,,,AMP,left,0.30023624282330275,,,left,0,0.30023624282330275,0,,,,,,,,,,,,,,,,,,,,,,1017,2019_Mar_06_1245,mf_amp_cond1,3.0.4,59.98603264524671,
peaceful,noped,&&&&&,left,authority.virtue,,,,,,,0,315,315,315,,,,,,,,,,,,,,,,,,,,,AMP,left,0.5670543537707999,,,left,1,0.5670543537707999,1,,,,,,,,,,,,,,,,,,,,,,1017,2019_Mar_06_1245,mf_amp_cond1,3.0.4,59.98603264524671,
killed,proached,&&&&&&&&,right,care.vice,,,,,,,0,316,316,316,,,,,,,,,,,,,,,,,,,,,AMP,left,0.35033152892719954,,,left,0,0.35033152892719954,0,,,,,,,,,,,,,,,,,,,,,,1017,2019_Mar_06_1245,mf_amp_cond1,3.0.4,59.98603264524671,
strength,ablow,&&&&&,left,sanctity.virtue,,,,,,,0,317,317,317,,,,,,,,,,,,,,,,,,,,,AMP,right,0.7336068439763039,,,right,0,0.7336068439763039,0,,,,,,,,,,,,,,,,,,,,,,1017,2019_Mar_06_1245,mf_amp_cond1,3.0.4,59.98603264524671,
gun,gaultless,&&&&&&&&&,right,authority.vice,,,,,,,0,318,318,318,,,,,,,,,,,,,,,,,,,,,AMP,right,0.5503832933027297,,,right,1,0.5503832933027297,1,,,,,,,,,,,,,,,,,,,,,,1017,2019_Mar_06_1245,mf_amp_cond1,3.0.4,59.98603264524671,
prison,gandbrake,&&&&&&&&&,right,fairness.vice,,,,,,,0,319,319,319,,,,,,,,,,,,,,,,,,,,,AMP,left,0.567056919564493,,,left,0,0.567056919564493,0,,,,,,,,,,,,,,,,,,,,,,1017,2019_Mar_06_1245,mf_amp_cond1,3.0.4,59.98603264524671,
ability,leact,&&&&&,left,authority.virtue,,,,,,,0,320,320,320,,,,,,,,,,,,,,,,,,,,,AMP,right,0.3003282897407189,,,right,0,0.3003282897407189,0,,,,,,,,,,,,,,,,,,,,,,1017,2019_Mar_06_1245,mf_amp_cond1,3.0.4,59.98603264524671,
scandal,esquisiteness,&&&&&&&&&&&&&,right,sanctity.vice,,,,,,,0,321,321,321,,,,,,,,,,,,,,,,,,,,,AMP,right,0.4503562885802239,,,right,1,0.4503562885802239,1,,,,,,,,,,,,,,,,,,,,,,1017,2019_Mar_06_1245,mf_amp_cond1,3.0.4,59.98603264524671,
betrayal,juck,&&&&,right,loyalty.vice,,,,,,,0,322,322,322,,,,,,,,,,,,,,,,,,,,,AMP,right,0.4170148088596761,,,right,1,0.4170148088596761,1,,,,,,,,,,,,,,,,,,,,,,1017,2019_Mar_06_1245,mf_amp_cond1,3.0.4,59.98603264524671,
sharing,ugeasily,&&&&&&&&,left,loyalty.virtue,,,,,,,0,323,323,323,,,,,,,,,,,,,,,,,,,,,AMP,left,0.3003542680526152,,,left,1,0.3003542680526152,1,,,,,,,,,,,,,,,,,,,,,,1017,2019_Mar_06_1245,mf_amp_cond1,3.0.4,59.98603264524671,
chreams,saned,&&&&&,None,nonword,,,,,,,0,324,324,324,,,,,,,,,,,,,,,,,,,,,AMP,left,0.26698809291701764,,,left,0,0.26698809291701764,0,,,,,,,,,,,,,,,,,,,,,,1017,2019_Mar_06_1245,mf_amp_cond1,3.0.4,59.98603264524671,
refused,fornicalion,&&&&&&&&&&&,right,authority.vice,,,,,,,0,325,325,325,,,,,,,,,,,,,,,,,,,,,AMP,left,0.8171305248979479,,,left,0,0.8171305248979479,0,,,,,,,,,,,,,,,,,,,,,,1017,2019_Mar_06_1245,mf_amp_cond1,3.0.4,59.98603264524671,
interests,neputized,&&&&&&&&&,left,fairness.virtue,,,,,,,0,326,326,326,,,,,,,,,,,,,,,,,,,,,AMP,left,0.3503241523867473,,,left,1,0.3503241523867473,1,,,,,,,,,,,,,,,,,,,,,,1017,2019_Mar_06_1245,mf_amp_cond1,3.0.4,59.98603264524671,
free,pescinded,&&&&&&&&&,left,fairness.virtue,,,,,,,0,327,327,327,,,,,,,,,,,,,,,,,,,,,AMP,right,0.4003690853714943,,,right,0,0.4003690853714943,0,,,,,,,,,,,,,,,,,,,,,,1017,2019_Mar_06_1245,mf_amp_cond1,3.0.4,59.98603264524671,
,,,,,,,,,,,,,,,,,,,,,,,,,,,,,,,,,,,,,,,,,,,,3,12.105,,,,,,,,,,,,,,,,,,,,1017,2019_Mar_06_1245,mf_amp_cond1,3.0.4,59.98603264524671,
,,,,,,,,,,,,,,,,,,,,,,,,,,,,,,,,,,,,,,,,,,,,,,5,4.653,,,,,,,,,,,,,,,,,,1017,2019_Mar_06_1245,mf_amp_cond1,3.0.4,59.98603264524671,
,,,,,,,,,,,,,,,,,,,,,,,,,,,,,,,,,,,,,,,,,,,,,,,,4,3.269,,,,,,,,,,,,,,,,1017,2019_Mar_06_1245,mf_amp_cond1,3.0.4,59.98603264524671,
,,,,,,,,,,,,,,,,,,,,,,,,,,,,,,,,,,,,,,,,,,,,,,,,,,right,1.2005989137105644,,,,,,,,,,,,,,1017,2019_Mar_06_1245,mf_amp_cond1,3.0.4,59.98603264524671,
keyboard,,&&&&&&&,,,,,,,,,,,,,0,0,0,0,,,,,,,,,,,,,,,,,LDT_prac,left,4.134600372402929,,,,,,0,,,,,,,,,left,4.134600372402929,,,,,,,,,,,,1017,2019_Mar_06_1245,mf_amp_cond1,3.0.4,59.98603264524671,
bisebell,,&&&&&&&,,,,,,,,,,,,,0,1,1,1,,,,,,,,,,,,,,,,,LDT_prac,right,1.800692628370598,,,,,,0,,,,,,,,,right,1.800692628370598,,,,,,,,,,,,1017,2019_Mar_06_1245,mf_amp_cond1,3.0.4,59.98603264524671,
,,,,,,,,,,,,,,,,,,,,,,,,,,,,,,,,,,,,,,,,,,,,,,,,,,,,,,right,0.7004193102475256,,,,,,,,,,1017,2019_Mar_06_1245,mf_amp_cond1,3.0.4,59.98603264524671,
thabbily,,&&&&&&&&,right,nonword,,,,,,,,,,,,,,,0,0,0,21,,,,,,,,,,,,,LDT,left,1.4005913448054343,,,,,,0,,,,,,,,,,,,,left,0,1.4005913448054343,,,,,,,1017,2019_Mar_06_1245,mf_amp_cond1,3.0.4,59.98603264524671,
blamed,,&&&&&&,left,loyalty.vice,,,,,,,,,,,,,,,0,1,1,117,,,,,,,,,,,,,LDT,right,0.5837417710572481,,,,,,0,,,,,,,,,,,,,right,0,0.5837417710572481,,,,,,,1017,2019_Mar_06_1245,mf_amp_cond1,3.0.4,59.98603264524671,
care,,&&&&,left,care.virtue,,,,,,,,,,,,,,,0,2,2,188,,,,,,,,,,,,,LDT,right,0.4837067484622821,,,,,,0,,,,,,,,,,,,,right,0,0.4837067484622821,,,,,,,1017,2019_Mar_06_1245,mf_amp_cond1,3.0.4,59.98603264524671,
both,,&&&&,left,neutral,,,,,,,,,,,,,,,0,3,3,28,,,,,,,,,,,,,LDT,right,0.4670523653039709,,,,,,0,,,,,,,,,,,,,right,0,0.4670523653039709,,,,,,,1017,2019_Mar_06_1245,mf_amp_cond1,3.0.4,59.98603264524671,
slending,,&&&&&&&&,right,nonword,,,,,,,,,,,,,,,0,4,4,12,,,,,,,,,,,,,LDT,left,0.4170132053550333,,,,,,0,,,,,,,,,,,,,left,0,0.4170132053550333,,,,,,,1017,2019_Mar_06_1245,mf_amp_cond1,3.0.4,59.98603264524671,
wonderfujnoss,,&&&&&&&&&&&&&,right,nonword,,,,,,,,,,,,,,,0,5,5,112,,,,,,,,,,,,,LDT,left,0.567060447530821,,,,,,0,,,,,,,,,,,,,left,0,0.567060447530821,,,,,,,1017,2019_Mar_06_1245,mf_amp_cond1,3.0.4,59.98603264524671,
scalbel,,&&&&&&&,right,nonword,,,,,,,,,,,,,,,0,6,6,106,,,,,,,,,,,,,LDT,left,0.6337257671402767,,,,,,0,,,,,,,,,,,,,left,0,0.6337257671402767,,,,,,,1017,2019_Mar_06_1245,mf_amp_cond1,3.0.4,59.98603264524671,
even,,&&&&,left,neutral,,,,,,,,,,,,,,,0,7,7,173,,,,,,,,,,,,,LDT,right,0.40035689796786755,,,,,,0,,,,,,,,,,,,,right,0,0.40035689796786755,,,,,,,1017,2019_Mar_06_1245,mf_amp_cond1,3.0.4,59.98603264524671,
wump,,&&&&,right,nonword,,,,,,,,,,,,,,,0,8,8,17,,,,,,,,,,,,,LDT,left,1.0171800442039967,,,,,,0,,,,,,,,,,,,,left,0,1.0171800442039967,,,,,,,1017,2019_Mar_06_1245,mf_amp_cond1,3.0.4,59.98603264524671,
unreflectuve,,&&&&&&&&&&&&,right,nonword,,,,,,,,,,,,,,,0,9,9,18,,,,,,,,,,,,,LDT,right,0.8838073905790225,,,,,,1,,,,,,,,,,,,,right,1,0.8838073905790225,,,,,,,1017,2019_Mar_06_1245,mf_amp_cond1,3.0.4,59.98603264524671,
although,,&&&&&&&&,left,neutral,,,,,,,,,,,,,,,0,10,10,1,,,,,,,,,,,,,LDT,right,1.2838987318100408,,,,,,0,,,,,,,,,,,,,right,0,1.2838987318100408,,,,,,,1017,2019_Mar_06_1245,mf_amp_cond1,3.0.4,59.98603264524671,
anything,,&&&&&&&&,left,neutral,,,,,,,,,,,,,,,0,11,11,92,,,,,,,,,,,,,LDT,right,0.5336981209693477,,,,,,0,,,,,,,,,,,,,right,0,0.5336981209693477,,,,,,,1017,2019_Mar_06_1245,mf_amp_cond1,3.0.4,59.98603264524671,
sonvoy,,&&&&&&,None,nonword,,,,,,,,,,,,,,,0,12,12,23,,,,,,,,,,,,,LDT,left,0.9171341171022505,,,,,,0,,,,,,,,,,,,,left,0,0.9171341171022505,,,,,,,1017,2019_Mar_06_1245,mf_amp_cond1,3.0.4,59.98603264524671,
officers,,&&&&&&&&,left,authority.vice,,,,,,,,,,,,,,,0,13,13,46,,,,,,,,,,,,,LDT,right,0.5003768467577174,,,,,,0,,,,,,,,,,,,,right,0,0.5003768467577174,,,,,,,1017,2019_Mar_06_1245,mf_amp_cond1,3.0.4,59.98603264524671,
terrorists,,&&&&&&&&&&,left,fairness.vice,,,,,,,,,,,,,,,0,14,14,9,,,,,,,,,,,,,LDT,right,0.6670932251727208,,,,,,0,,,,,,,,,,,,,right,0,0.6670932251727208,,,,,,,1017,2019_Mar_06_1245,mf_amp_cond1,3.0.4,59.98603264524671,
least,,&&&&&,left,neutral,,,,,,,,,,,,,,,0,15,15,39,,,,,,,,,,,,,LDT,left,0.9004765267018229,,,,,,1,,,,,,,,,,,,,left,1,0.9004765267018229,,,,,,,1017,2019_Mar_06_1245,mf_amp_cond1,3.0.4,59.98603264524671,
praise,,&&&&&&,left,authority.virtue,,,,,,,,,,,,,,,0,16,16,94,,,,,,,,,,,,,LDT,right,0.48370610701385885,,,,,,0,,,,,,,,,,,,,right,0,0.48370610701385885,,,,,,,1017,2019_Mar_06_1245,mf_amp_cond1,3.0.4,59.98603264524671,
hope,,&&&&,left,loyalty.virtue,,,,,,,,,,,,,,,0,17,17,82,,,,,,,,,,,,,LDT,right,0.450374890351668,,,,,,0,,,,,,,,,,,,,right,0,0.450374890351668,,,,,,,1017,2019_Mar_06_1245,mf_amp_cond1,3.0.4,59.98603264524671,
fangsters,,&&&&&&&&&,right,nonword,,,,,,,,,,,,,,,0,18,18,115,,,,,,,,,,,,,LDT,left,0.550374633865431,,,,,,0,,,,,,,,,,,,,left,0,0.550374633865431,,,,,,,1017,2019_Mar_06_1245,mf_amp_cond1,3.0.4,59.98603264524671,
perified,,&&&&&&&&,right,nonword,,,,,,,,,,,,,,,0,19,19,15,,,,,,,,,,,,,LDT,right,0.5670389592414722,,,,,,1,,,,,,,,,,,,,right,1,0.5670389592414722,,,,,,,1017,2019_Mar_06_1245,mf_amp_cond1,3.0.4,59.98603264524671,
integrity,,&&&&&&&&&,left,fairness.virtue,,,,,,,,,,,,,,,0,20,20,156,,,,,,,,,,,,,LDT,left,0.6004109072964638,,,,,,1,,,,,,,,,,,,,left,1,0.6004109072964638,,,,,,,1017,2019_Mar_06_1245,mf_amp_cond1,3.0.4,59.98603264524671,
gedious,,&&&&&&&,right,nonword,,,,,,,,,,,,,,,0,21,21,116,,,,,,,,,,,,,LDT,right,0.7337681663921103,,,,,,1,,,,,,,,,,,,,right,1,0.7337681663921103,,,,,,,1017,2019_Mar_06_1245,mf_amp_cond1,3.0.4,59.98603264524671,
divility,,&&&&&&&&,right,nonword,,,,,,,,,,,,,,,0,22,22,139,,,,,,,,,,,,,LDT,right,0.6670813584933057,,,,,,1,,,,,,,,,,,,,right,1,0.6670813584933057,,,,,,,1017,2019_Mar_06_1245,mf_amp_cond1,3.0.4,59.98603264524671,
less,,&&&&,left,neutral,,,,,,,,,,,,,,,0,23,23,41,,,,,,,,,,,,,LDT,right,0.3836816680850461,,,,,,0,,,,,,,,,,,,,right,0,0.3836816680850461,,,,,,,1017,2019_Mar_06_1245,mf_amp_cond1,3.0.4,59.98603264524671,
fostet,,&&&&&&,right,nonword,,,,,,,,,,,,,,,0,24,24,195,,,,,,,,,,,,,LDT,right,0.45037360745482147,,,,,,1,,,,,,,,,,,,,right,1,0.45037360745482147,,,,,,,1017,2019_Mar_06_1245,mf_amp_cond1,3.0.4,59.98603264524671,
besides,,&&&&&&&,left,neutral,,,,,,,,,,,,,,,0,25,25,81,,,,,,,,,,,,,LDT,right,0.5503929149126634,,,,,,0,,,,,,,,,,,,,right,0,0.5503929149126634,,,,,,,1017,2019_Mar_06_1245,mf_amp_cond1,3.0.4,59.98603264524671,
gondensed,,&&&&&&&&&,right,nonword,,,,,,,,,,,,,,,0,26,26,196,,,,,,,,,,,,,LDT,left,0.5837077747564763,,,,,,0,,,,,,,,,,,,,left,0,0.5837077747564763,,,,,,,1017,2019_Mar_06_1245,mf_amp_cond1,3.0.4,59.98603264524671,
mecan,,&&&&&,right,nonword,,,,,,,,,,,,,,,0,27,27,119,,,,,,,,,,,,,LDT,right,0.6503807916305959,,,,,,1,,,,,,,,,,,,,right,1,0.6503807916305959,,,,,,,1017,2019_Mar_06_1245,mf_amp_cond1,3.0.4,59.98603264524671,
noone,,&&&&&,left,neutral,,,,,,,,,,,,,,,0,28,28,71,,,,,,,,,,,,,LDT,right,0.5003816575044766,,,,,,0,,,,,,,,,,,,,right,0,0.5003816575044766,,,,,,,1017,2019_Mar_06_1245,mf_amp_cond1,3.0.4,59.98603264524671,
black,,&&&&&,left,loyalty.vice,,,,,,,,,,,,,,,0,29,29,128,,,,,,,,,,,,,LDT,right,0.46704723383300006,,,,,,0,,,,,,,,,,,,,right,0,0.46704723383300006,,,,,,,1017,2019_Mar_06_1245,mf_amp_cond1,3.0.4,59.98603264524671,
gowlands,,&&&&&&&&,right,nonword,,,,,,,,,,,,,,,0,30,30,155,,,,,,,,,,,,,LDT,right,0.6503743772627786,,,,,,1,,,,,,,,,,,,,right,1,0.6503743772627786,,,,,,,1017,2019_Mar_06_1245,mf_amp_cond1,3.0.4,59.98603264524671,
lursuer,,&&&&&&&,right,nonword,,,,,,,,,,,,,,,0,31,31,113,,,,,,,,,,,,,LDT,left,0.4835412565153092,,,,,,0,,,,,,,,,,,,,left,0,0.4835412565153092,,,,,,,1017,2019_Mar_06_1245,mf_amp_cond1,3.0.4,59.98603264524671,
also,,&&&&,left,neutral,,,,,,,,,,,,,,,0,32,32,52,,,,,,,,,,,,,LDT,left,0.9504954813746735,,,,,,1,,,,,,,,,,,,,left,1,0.9504954813746735,,,,,,,1017,2019_Mar_06_1245,mf_amp_cond1,3.0.4,59.98603264524671,
respect,,&&&&&&&,left,sanctity.virtue,,,,,,,,,,,,,,,0,33,33,44,,,,,,,,,,,,,LDT,right,0.6504183158976957,,,,,,0,,,,,,,,,,,,,right,0,0.6504183158976957,,,,,,,1017,2019_Mar_06_1245,mf_amp_cond1,3.0.4,59.98603264524671,
terrorist,,&&&&&&&&&,left,loyalty.vice,,,,,,,,,,,,,,,0,34,34,194,,,,,,,,,,,,,LDT,right,0.5337096669245511,,,,,,0,,,,,,,,,,,,,right,0,0.5337096669245511,,,,,,,1017,2019_Mar_06_1245,mf_amp_cond1,3.0.4,59.98603264524671,
shoirmaster,,&&&&&&&&&&&,None,nonword,,,,,,,,,,,,,,,0,35,35,184,,,,,,,,,,,,,LDT,right,0.8337778522400185,,,,,,0,,,,,,,,,,,,,right,0,0.8337778522400185,,,,,,,1017,2019_Mar_06_1245,mf_amp_cond1,3.0.4,59.98603264524671,
amount,,&&&&&&,left,neutral,,,,,,,,,,,,,,,0,36,36,51,,,,,,,,,,,,,LDT,left,0.4503787390422076,,,,,,1,,,,,,,,,,,,,left,1,0.4503787390422076,,,,,,,1017,2019_Mar_06_1245,mf_amp_cond1,3.0.4,59.98603264524671,
Phintoism,,&&&&&&&&&,right,nonword,,,,,,,,,,,,,,,0,37,37,172,,,,,,,,,,,,,LDT,left,0.7004080850165337,,,,,,0,,,,,,,,,,,,,left,0,0.7004080850165337,,,,,,,1017,2019_Mar_06_1245,mf_amp_cond1,3.0.4,59.98603264524671,
Boeinf,,&&&&&&,right,nonword,,,,,,,,,,,,,,,0,38,38,16,,,,,,,,,,,,,LDT,left,1.0171559902373701,,,,,,0,,,,,,,,,,,,,left,0,1.0171559902373701,,,,,,,1017,2019_Mar_06_1245,mf_amp_cond1,3.0.4,59.98603264524671,
died,,&&&&,left,care.vice,,,,,,,,,,,,,,,0,39,39,87,,,,,,,,,,,,,LDT,right,0.5670626926003024,,,,,,0,,,,,,,,,,,,,right,0,0.5670626926003024,,,,,,,1017,2019_Mar_06_1245,mf_amp_cond1,3.0.4,59.98603264524671,
troubla,,&&&&&&&,right,nonword,,,,,,,,,,,,,,,0,40,40,7,,,,,,,,,,,,,LDT,right,0.5337147985119373,,,,,,1,,,,,,,,,,,,,right,1,0.5337147985119373,,,,,,,1017,2019_Mar_06_1245,mf_amp_cond1,3.0.4,59.98603264524671,
promises,,&&&&&&&&,left,fairness.virtue,,,,,,,,,,,,,,,0,41,41,174,,,,,,,,,,,,,LDT,right,0.9004560007015243,,,,,,0,,,,,,,,,,,,,right,0,0.9004560007015243,,,,,,,1017,2019_Mar_06_1245,mf_amp_cond1,3.0.4,59.98603264524671,
bycled,,&&&&&&,None,nonword,,,,,,,,,,,,,,,0,42,42,125,,,,,,,,,,,,,LDT,right,0.617043802049011,,,,,,0,,,,,,,,,,,,,right,0,0.617043802049011,,,,,,,1017,2019_Mar_06_1245,mf_amp_cond1,3.0.4,59.98603264524671,
conspiracy,,&&&&&&&&&&,left,sanctity.vice,,,,,,,,,,,,,,,0,43,43,198,,,,,,,,,,,,,LDT,right,0.567082577268593,,,,,,0,,,,,,,,,,,,,right,0,0.567082577268593,,,,,,,1017,2019_Mar_06_1245,mf_amp_cond1,3.0.4,59.98603264524671,
egpeditious,,&&&&&&&&&&&,right,nonword,,,,,,,,,,,,,,,0,44,44,150,,,,,,,,,,,,,LDT,left,0.36701926693785936,,,,,,0,,,,,,,,,,,,,left,0,0.36701926693785936,,,,,,,1017,2019_Mar_06_1245,mf_amp_cond1,3.0.4,59.98603264524671,
ittutable,,&&&&&&&&&,right,nonword,,,,,,,,,,,,,,,0,45,45,77,,,,,,,,,,,,,LDT,left,0.7338329519843683,,,,,,0,,,,,,,,,,,,,left,0,0.7338329519843683,,,,,,,1017,2019_Mar_06_1245,mf_amp_cond1,3.0.4,59.98603264524671,
gillipede,,&&&&&&&&&,None,nonword,,,,,,,,,,,,,,,0,46,46,151,,,,,,,,,,,,,LDT,left,0.6503884890116751,,,,,,0,,,,,,,,,,,,,left,0,0.6503884890116751,,,,,,,1017,2019_Mar_06_1245,mf_amp_cond1,3.0.4,59.98603264524671,
refuejing,,&&&&&&&&&,right,nonword,,,,,,,,,,,,,,,0,47,47,19,,,,,,,,,,,,,LDT,right,0.517024815431796,,,,,,1,,,,,,,,,,,,,right,1,0.517024815431796,,,,,,,1017,2019_Mar_06_1245,mf_amp_cond1,3.0.4,59.98603264524671,
pullness,,&&&&&&&&,right,nonword,,,,,,,,,,,,,,,0,48,48,95,,,,,,,,,,,,,LDT,right,0.7837912903632969,,,,,,1,,,,,,,,,,,,,right,1,0.7837912903632969,,,,,,,1017,2019_Mar_06_1245,mf_amp_cond1,3.0.4,59.98603264524671,
useful,,&&&&&&,left,authority.virtue,,,,,,,,,,,,,,,0,49,49,161,,,,,,,,,,,,,LDT,right,0.4503707210533321,,,,,,0,,,,,,,,,,,,,right,0,0.4503707210533321,,,,,,,1017,2019_Mar_06_1245,mf_amp_cond1,3.0.4,59.98603264524671,
about,,&&&&&,left,neutral,,,,,,,,,,,,,,,0,50,50,164,,,,,,,,,,,,,LDT,right,0.4503479498671368,,,,,,0,,,,,,,,,,,,,right,0,0.4503479498671368,,,,,,,1017,2019_Mar_06_1245,mf_amp_cond1,3.0.4,59.98603264524671,
pafer,,&&&&&,right,nonword,,,,,,,,,,,,,,,0,51,51,80,,,,,,,,,,,,,LDT,right,0.48373561329208314,,,,,,1,,,,,,,,,,,,,right,1,0.48373561329208314,,,,,,,1017,2019_Mar_06_1245,mf_amp_cond1,3.0.4,59.98603264524671,
viscs,,&&&&&,None,nonword,,,,,,,,,,,,,,,0,52,52,144,,,,,,,,,,,,,LDT,right,0.6170736291678622,,,,,,0,,,,,,,,,,,,,right,0,0.6170736291678622,,,,,,,1017,2019_Mar_06_1245,mf_amp_cond1,3.0.4,59.98603264524671,
nuckheap,,&&&&&&&&,right,nonword,,,,,,,,,,,,,,,0,53,53,13,,,,,,,,,,,,,LDT,left,0.5837305458262563,,,,,,0,,,,,,,,,,,,,left,0,0.5837305458262563,,,,,,,1017,2019_Mar_06_1245,mf_amp_cond1,3.0.4,59.98603264524671,
somehow,,&&&&&&&,left,neutral,,,,,,,,,,,,,,,0,54,54,65,,,,,,,,,,,,,LDT,left,0.6337774031562731,,,,,,1,,,,,,,,,,,,,left,1,0.6337774031562731,,,,,,,1017,2019_Mar_06_1245,mf_amp_cond1,3.0.4,59.98603264524671,
failure,,&&&&&&&,left,loyalty.vice,,,,,,,,,,,,,,,0,55,55,24,,,,,,,,,,,,,LDT,left,0.7837617840850726,,,,,,1,,,,,,,,,,,,,left,1,0.7837617840850726,,,,,,,1017,2019_Mar_06_1245,mf_amp_cond1,3.0.4,59.98603264524671,
each,,&&&&,left,neutral,,,,,,,,,,,,,,,0,56,56,35,,,,,,,,,,,,,LDT,left,0.6337437275797129,,,,,,1,,,,,,,,,,,,,left,1,0.6337437275797129,,,,,,,1017,2019_Mar_06_1245,mf_amp_cond1,3.0.4,59.98603264524671,
wherever,,&&&&&&&&,left,neutral,,,,,,,,,,,,,,,0,57,57,168,,,,,,,,,,,,,LDT,left,0.4670385743957013,,,,,,1,,,,,,,,,,,,,left,1,0.4670385743957013,,,,,,,1017,2019_Mar_06_1245,mf_amp_cond1,3.0.4,59.98603264524671,
thru,,&&&&,left,neutral,,,,,,,,,,,,,,,0,58,58,180,,,,,,,,,,,,,LDT,right,0.4170234684133902,,,,,,0,,,,,,,,,,,,,right,0,0.4170234684133902,,,,,,,1017,2019_Mar_06_1245,mf_amp_cond1,3.0.4,59.98603264524671,
toward,,&&&&&&,left,neutral,,,,,,,,,,,,,,,0,59,59,158,,,,,,,,,,,,,LDT,right,0.41695002338383347,,,,,,0,,,,,,,,,,,,,right,0,0.41695002338383347,,,,,,,1017,2019_Mar_06_1245,mf_amp_cond1,3.0.4,59.98603264524671,
galamitous,,&&&&&&&&&&,right,nonword,,,,,,,,,,,,,,,0,60,60,108,,,,,,,,,,,,,LDT,right,0.4670684013981372,,,,,,1,,,,,,,,,,,,,right,1,0.4670684013981372,,,,,,,1017,2019_Mar_06_1245,mf_amp_cond1,3.0.4,59.98603264524671,
godlaness,,&&&&&&&&&,right,nonword,,,,,,,,,,,,,,,0,61,61,135,,,,,,,,,,,,,LDT,right,0.7004128957632929,,,,,,1,,,,,,,,,,,,,right,1,0.7004128957632929,,,,,,,1017,2019_Mar_06_1245,mf_amp_cond1,3.0.4,59.98603264524671,
seachwear,,&&&&&&&&&,right,nonword,,,,,,,,,,,,,,,0,62,62,50,,,,,,,,,,,,,LDT,left,0.316994218621403,,,,,,0,,,,,,,,,,,,,left,0,0.316994218621403,,,,,,,1017,2019_Mar_06_1245,mf_amp_cond1,3.0.4,59.98603264524671,
hence,,&&&&&,left,neutral,,,,,,,,,,,,,,,0,63,63,169,,,,,,,,,,,,,LDT,left,0.2670031668385491,,,,,,1,,,,,,,,,,,,,left,1,0.2670031668385491,,,,,,,1017,2019_Mar_06_1245,mf_amp_cond1,3.0.4,59.98603264524671,
growth,,&&&&&&,left,care.virtue,,,,,,,,,,,,,,,0,64,64,111,,,,,,,,,,,,,LDT,right,0.26699995959643275,,,,,,0,,,,,,,,,,,,,right,0,0.26699995959643275,,,,,,,1017,2019_Mar_06_1245,mf_amp_cond1,3.0.4,59.98603264524671,
there,,&&&&&,left,neutral,,,,,,,,,,,,,,,0,65,65,153,,,,,,,,,,,,,LDT,right,0.6003961542155594,,,,,,0,,,,,,,,,,,,,right,0,0.6003961542155594,,,,,,,1017,2019_Mar_06_1245,mf_amp_cond1,3.0.4,59.98603264524671,
presentkess,,&&&&&&&&&&&,right,nonword,,,,,,,,,,,,,,,0,66,66,49,,,,,,,,,,,,,LDT,right,0.4837343303952366,,,,,,1,,,,,,,,,,,,,right,1,0.4837343303952366,,,,,,,1017,2019_Mar_06_1245,mf_amp_cond1,3.0.4,59.98603264524671,
mih,,&&&,right,nonword,,,,,,,,,,,,,,,0,67,67,70,,,,,,,,,,,,,LDT,right,0.4837009754264727,,,,,,1,,,,,,,,,,,,,right,1,0.4837009754264727,,,,,,,1017,2019_Mar_06_1245,mf_amp_cond1,3.0.4,59.98603264524671,
hereby,,&&&&&&,left,neutral,,,,,,,,,,,,,,,0,68,68,134,,,,,,,,,,,,,LDT,left,0.3170102547155693,,,,,,1,,,,,,,,,,,,,left,1,0.3170102547155693,,,,,,,1017,2019_Mar_06_1245,mf_amp_cond1,3.0.4,59.98603264524671,
asn,,&&&,right,nonword,,,,,,,,,,,,,,,0,69,69,68,,,,,,,,,,,,,LDT,left,0.48371284210588783,,,,,,0,,,,,,,,,,,,,left,0,0.48371284210588783,,,,,,,1017,2019_Mar_06_1245,mf_amp_cond1,3.0.4,59.98603264524671,
focomotive,,&&&&&&&&&&,right,nonword,,,,,,,,,,,,,,,0,70,70,30,,,,,,,,,,,,,LDT,left,0.41687272978015244,,,,,,0,,,,,,,,,,,,,left,0,0.41687272978015244,,,,,,,1017,2019_Mar_06_1245,mf_amp_cond1,3.0.4,59.98603264524671,
pumber,,&&&&&&,None,nonword,,,,,,,,,,,,,,,0,71,71,55,,,,,,,,,,,,,LDT,right,1.26720490003936,,,,,,0,,,,,,,,,,,,,right,0,1.26720490003936,,,,,,,1017,2019_Mar_06_1245,mf_amp_cond1,3.0.4,59.98603264524671,
fraud,,&&&&&,left,fairness.vice,,,,,,,,,,,,,,,0,72,72,148,,,,,,,,,,,,,LDT,right,0.5337231372250244,,,,,,0,,,,,,,,,,,,,right,0,0.5337231372250244,,,,,,,1017,2019_Mar_06_1245,mf_amp_cond1,3.0.4,59.98603264524671,
dramens,,&&&&&&&,right,nonword,,,,,,,,,,,,,,,0,73,73,176,,,,,,,,,,,,,LDT,left,0.7171092932112515,,,,,,0,,,,,,,,,,,,,left,0,0.7171092932112515,,,,,,,1017,2019_Mar_06_1245,mf_amp_cond1,3.0.4,59.98603264524671,
therefore,,&&&&&&&&&,left,neutral,,,,,,,,,,,,,,,0,74,74,146,,,,,,,,,,,,,LDT,right,0.6504003555746749,,,,,,0,,,,,,,,,,,,,right,0,0.6504003555746749,,,,,,,1017,2019_Mar_06_1245,mf_amp_cond1,3.0.4,59.98603264524671,
latter,,&&&&&&,left,neutral,,,,,,,,,,,,,,,0,75,75,178,,,,,,,,,,,,,LDT,right,0.48370354110375047,,,,,,0,,,,,,,,,,,,,right,0,0.48370354110375047,,,,,,,1017,2019_Mar_06_1245,mf_amp_cond1,3.0.4,59.98603264524671,
drug,,&&&&,left,sanctity.vice,,,,,,,,,,,,,,,0,76,76,58,,,,,,,,,,,,,LDT,right,0.5503913112916052,,,,,,0,,,,,,,,,,,,,right,0,0.5503913112916052,,,,,,,1017,2019_Mar_06_1245,mf_amp_cond1,3.0.4,59.98603264524671,
anyhow,,&&&&&&,left,neutral,,,,,,,,,,,,,,,0,77,77,103,,,,,,,,,,,,,LDT,right,0.5003723567351699,,,,,,0,,,,,,,,,,,,,right,0,0.5003723567351699,,,,,,,1017,2019_Mar_06_1245,mf_amp_cond1,3.0.4,59.98603264524671,
clean,,&&&&&,left,sanctity.virtue,,,,,,,,,,,,,,,0,78,78,124,,,,,,,,,,,,,LDT,left,0.5503563527017832,,,,,,1,,,,,,,,,,,,,left,1,0.5503563527017832,,,,,,,1017,2019_Mar_06_1245,mf_amp_cond1,3.0.4,59.98603264524671,
civilians,,&&&&&&&&&,left,care.vice,,,,,,,,,,,,,,,0,79,79,159,,,,,,,,,,,,,LDT,right,0.5170203254092485,,,,,,0,,,,,,,,,,,,,right,0,0.5170203254092485,,,,,,,1017,2019_Mar_06_1245,mf_amp_cond1,3.0.4,59.98603264524671,
energy,,&&&&&&,left,sanctity.virtue,,,,,,,,,,,,,,,0,80,80,67,,,,,,,,,,,,,LDT,right,0.6170912687666714,,,,,,0,,,,,,,,,,,,,right,0,0.6170912687666714,,,,,,,1017,2019_Mar_06_1245,mf_amp_cond1,3.0.4,59.98603264524671,
ensure,,&&&&&&,left,fairness.virtue,,,,,,,,,,,,,,,0,81,81,84,,,,,,,,,,,,,LDT,right,0.7671032316284254,,,,,,0,,,,,,,,,,,,,right,0,0.7671032316284254,,,,,,,1017,2019_Mar_06_1245,mf_amp_cond1,3.0.4,59.98603264524671,
corruption,,&&&&&&&&&&,left,sanctity.vice,,,,,,,,,,,,,,,0,82,82,60,,,,,,,,,,,,,LDT,right,0.4670247833710164,,,,,,0,,,,,,,,,,,,,right,0,0.4670247833710164,,,,,,,1017,2019_Mar_06_1245,mf_amp_cond1,3.0.4,59.98603264524671,
rebels,,&&&&&&,left,authority.vice,,,,,,,,,,,,,,,0,83,83,34,,,,,,,,,,,,,LDT,right,0.433717941516079,,,,,,0,,,,,,,,,,,,,right,0,0.433717941516079,,,,,,,1017,2019_Mar_06_1245,mf_amp_cond1,3.0.4,59.98603264524671,
faspberry,,&&&&&&&&&,None,nonword,,,,,,,,,,,,,,,0,84,84,98,,,,,,,,,,,,,LDT,left,0.35034852707758546,,,,,,0,,,,,,,,,,,,,left,0,0.35034852707758546,,,,,,,1017,2019_Mar_06_1245,mf_amp_cond1,3.0.4,59.98603264524671,
forty,,&&&&&,left,neutral,,,,,,,,,,,,,,,0,85,85,36,,,,,,,,,,,,,LDT,left,0.6838059793226421,,,,,,1,,,,,,,,,,,,,left,1,0.6838059793226421,,,,,,,1017,2019_Mar_06_1245,mf_amp_cond1,3.0.4,59.98603264524671,
fair,,&&&&,left,fairness.virtue,,,,,,,,,,,,,,,0,86,86,143,,,,,,,,,,,,,LDT,left,0.3836845544865355,,,,,,1,,,,,,,,,,,,,left,1,0.3836845544865355,,,,,,,1017,2019_Mar_06_1245,mf_amp_cond1,3.0.4,59.98603264524671,
hand,,&&&&,left,sanctity.virtue,,,,,,,,,,,,,,,0,87,87,182,,,,,,,,,,,,,LDT,right,1.0672102241078392,,,,,,0,,,,,,,,,,,,,right,0,1.0672102241078392,,,,,,,1017,2019_Mar_06_1245,mf_amp_cond1,3.0.4,59.98603264524671,
myself,,&&&&&&,left,neutral,,,,,,,,,,,,,,,0,88,88,120,,,,,,,,,,,,,LDT,right,0.7171134626260027,,,,,,0,,,,,,,,,,,,,right,0,0.7171134626260027,,,,,,,1017,2019_Mar_06_1245,mf_amp_cond1,3.0.4,59.98603264524671,
ning,,&&&&,right,nonword,,,,,,,,,,,,,,,0,89,89,6,,,,,,,,,,,,,LDT,left,0.6337677815463394,,,,,,0,,,,,,,,,,,,,left,0,0.6337677815463394,,,,,,,1017,2019_Mar_06_1245,mf_amp_cond1,3.0.4,59.98603264524671,
mostly,,&&&&&&,left,neutral,,,,,,,,,,,,,,,0,90,90,75,,,,,,,,,,,,,LDT,right,0.5003848648630083,,,,,,0,,,,,,,,,,,,,right,0,0.5003848648630083,,,,,,,1017,2019_Mar_06_1245,mf_amp_cond1,3.0.4,59.98603264524671,
taxpayung,,&&&&&&&&&,right,nonword,,,,,,,,,,,,,,,0,91,91,10,,,,,,,,,,,,,LDT,right,0.46703953645192087,,,,,,1,,,,,,,,,,,,,right,1,0.46703953645192087,,,,,,,1017,2019_Mar_06_1245,mf_amp_cond1,3.0.4,59.98603264524671,
Daptist,,&&&&&&&,right,nonword,,,,,,,,,,,,,,,0,92,92,57,,,,,,,,,,,,,LDT,left,0.3670211913995445,,,,,,0,,,,,,,,,,,,,left,0,0.3670211913995445,,,,,,,1017,2019_Mar_06_1245,mf_amp_cond1,3.0.4,59.98603264524671,
amoungst,,&&&&&&&&,left,neutral,,,,,,,,,,,,,,,0,93,93,27,,,,,,,,,,,,,LDT,left,0.41702282696496695,,,,,,1,,,,,,,,,,,,,left,1,0.41702282696496695,,,,,,,1017,2019_Mar_06_1245,mf_amp_cond1,3.0.4,59.98603264524671,
mightingale,,&&&&&&&&&&&,right,nonword,,,,,,,,,,,,,,,0,94,94,107,,,,,,,,,,,,,LDT,left,0.4170478431042284,,,,,,0,,,,,,,,,,,,,left,0,0.4170478431042284,,,,,,,1017,2019_Mar_06_1245,mf_amp_cond1,3.0.4,59.98603264524671,
epigrach,,&&&&&&&&,right,nonword,,,,,,,,,,,,,,,0,95,95,69,,,,,,,,,,,,,LDT,left,0.35034243343397975,,,,,,0,,,,,,,,,,,,,left,0,0.35034243343397975,,,,,,,1017,2019_Mar_06_1245,mf_amp_cond1,3.0.4,59.98603264524671,
towards,,&&&&&&&,left,neutral,,,,,,,,,,,,,,,0,96,96,141,,,,,,,,,,,,,LDT,right,0.5003800538834184,,,,,,0,,,,,,,,,,,,,right,0,0.5003800538834184,,,,,,,1017,2019_Mar_06_1245,mf_amp_cond1,3.0.4,59.98603264524671,
dormandi,,&&&&&&&&,None,nonword,,,,,,,,,,,,,,,0,97,97,76,,,,,,,,,,,,,LDT,right,0.7004302147543058,,,,,,0,,,,,,,,,,,,,right,0,0.7004302147543058,,,,,,,1017,2019_Mar_06_1245,mf_amp_cond1,3.0.4,59.98603264524671,
openet,,&&&&&&,None,nonword,,,,,,,,,,,,,,,0,98,98,152,,,,,,,,,,,,,LDT,right,0.4003851213492453,,,,,,0,,,,,,,,,,,,,right,0,0.4003851213492453,,,,,,,1017,2019_Mar_06_1245,mf_amp_cond1,3.0.4,59.98603264524671,
emports,,&&&&&&&,right,nonword,,,,,,,,,,,,,,,0,99,99,102,,,,,,,,,,,,,LDT,right,0.21696561039425433,,,,,,1,,,,,,,,,,,,,right,1,0.21696561039425433,,,,,,,1017,2019_Mar_06_1245,mf_amp_cond1,3.0.4,59.98603264524671,
illegal,,&&&&&&&,left,fairness.vice,,,,,,,,,,,,,,,0,100,100,167,,,,,,,,,,,,,LDT,right,0.28365883277729154,,,,,,0,,,,,,,,,,,,,right,0,0.28365883277729154,,,,,,,1017,2019_Mar_06_1245,mf_amp_cond1,3.0.4,59.98603264524671,
metibolic,,&&&&&&&&&,right,nonword,,,,,,,,,,,,,,,0,101,101,29,,,,,,,,,,,,,LDT,right,0.20032694260589778,,,,,,1,,,,,,,,,,,,,right,1,0.20032694260589778,,,,,,,1017,2019_Mar_06_1245,mf_amp_cond1,3.0.4,59.98603264524671,
everything,,&&&&&&&&&&,left,neutral,,,,,,,,,,,,,,,0,102,102,26,,,,,,,,,,,,,LDT,left,0.20034714799840003,,,,,,1,,,,,,,,,,,,,left,1,0.20034714799840003,,,,,,,1017,2019_Mar_06_1245,mf_amp_cond1,3.0.4,59.98603264524671,
great,,&&&&&,left,loyalty.virtue,,,,,,,,,,,,,,,0,103,103,56,,,,,,,,,,,,,LDT,left,0.8837656968971714,,,,,,1,,,,,,,,,,,,,left,1,0.8837656968971714,,,,,,,1017,2019_Mar_06_1245,mf_amp_cond1,3.0.4,59.98603264524671,
protesters,,&&&&&&&&&&,left,authority.vice,,,,,,,,,,,,,,,0,104,104,47,,,,,,,,,,,,,LDT,left,0.5837529964046553,,,,,,1,,,,,,,,,,,,,left,1,0.5837529964046553,,,,,,,1017,2019_Mar_06_1245,mf_amp_cond1,3.0.4,59.98603264524671,
forced,,&&&&&&,left,fairness.vice,,,,,,,,,,,,,,,0,105,105,62,,,,,,,,,,,,,LDT,left,0.5503970843274146,,,,,,1,,,,,,,,,,,,,left,1,0.5503970843274146,,,,,,,1017,2019_Mar_06_1245,mf_amp_cond1,3.0.4,59.98603264524671,
totalestic,,&&&&&&&&&&,None,nonword,,,,,,,,,,,,,,,0,106,106,177,,,,,,,,,,,,,LDT,right,0.26704646402504295,,,,,,0,,,,,,,,,,,,,right,0,0.26704646402504295,,,,,,,1017,2019_Mar_06_1245,mf_amp_cond1,3.0.4,59.98603264524671,
prones,,&&&&&&,right,nonword,,,,,,,,,,,,,,,0,107,107,183,,,,,,,,,,,,,LDT,right,0.43367015419062227,,,,,,1,,,,,,,,,,,,,right,1,0.43367015419062227,,,,,,,1017,2019_Mar_06_1245,mf_amp_cond1,3.0.4,59.98603264524671,
