words,mask,corr_ans,category,nonwords,tweets,topic,LDT_prac_loop.thisRepN,LDT_prac_loop.thisTrialN,LDT_prac_loop.thisN,LDT_prac_loop.thisIndex,LDT_loop.thisRepN,LDT_loop.thisTrialN,LDT_loop.thisN,LDT_loop.thisIndex,AMP_pracloop.thisRepN,AMP_pracloop.thisTrialN,AMP_pracloop.thisN,AMP_pracloop.thisIndex,AMP_loop.thisRepN,AMP_loop.thisTrialN,AMP_loop.thisN,AMP_loop.thisIndex,tweet_loop.thisRepN,tweet_loop.thisTrialN,tweet_loop.thisN,tweet_loop.thisIndex,begin_key.keys,begin_key.rt,key_resp_AMP_instr1.keys,key_resp_AMP_instr1.rt,key_resp_LDT_instr.keys,key_resp_LDT_instr.rt,resp_LDT_prac.keys,resp_LDT_prac.rt,task,keypress,RT,corr,resp_LDT_ready.keys,resp_LDT_ready.rt,resp_LDT.keys,resp_LDT.corr,resp_LDT.rt,LDT_rating.response,LDT_rating.rt,resp_AMP_ready1.keys,resp_AMP_ready1.rt,resp_AMP_prac.keys,resp_AMP_prac.rt,resp_AMP_ready.keys,resp_AMP_ready.rt,resp_AMP.keys,resp_AMP.corr,resp_AMP.rt,AMP_nonword_rating.response,AMP_nonword_rating.rt,AMP_word_rating.response,AMP_word_rating.rt,AMP_random_rating.response,AMP_random_rating.rt,key_resp_LDT_instr_2.keys,key_resp_LDT_instr_2.rt,resp_tweets.keys,resp_tweets.rt,participant,date,expName,psychopyVersion,frameRate,
,,,,,,,,,,,,,,,,,,,,,,,,,,,right,1334.5542802235577,,,,,,,,,,,,,,,,,,,,,,,,,,,,,,,,,,,,,1018,2019_Mar_06_1243,mf_amp_cond2,3.0.4,60.003964371266285,
,,,,,,,,,,,,,,,,,,,,,,,,,,,,,right,6.718622192391194,,,,,,,,,,,,,,,,,,,,,,,,,,,,,,,,,,,1018,2019_Mar_06_1243,mf_amp_cond2,3.0.4,60.003964371266285,
,,,,,,,,,,,,,,,,,,,,,,,,,,,,,,,right,1.7340264557860792,,,,,,,,,,,,,,,,,,,,,,,,,,,,,,,,,1018,2019_Mar_06_1243,mf_amp_cond2,3.0.4,60.003964371266285,
keyboard,&&&&&&&,,,,,,0,0,0,0,,,,,,,,,,,,,,,,,,,,,,,left,2.167483437922783,LDT_prac,left,2.167483437922783,0,,,,,,,,,,,,,,,,,,,,,,,,,,,1018,2019_Mar_06_1243,mf_amp_cond2,3.0.4,60.003964371266285,
bisebell,&&&&&&&,,,,,,0,1,1,1,,,,,,,,,,,,,,,,,,,,,,,left,0.400361068546772,LDT_prac,left,0.400361068546772,0,,,,,,,,,,,,,,,,,,,,,,,,,,,1018,2019_Mar_06_1243,mf_amp_cond2,3.0.4,60.003964371266285,
,,,,,,,,,,,,,,,,,,,,,,,,,,,,,,,,,,,,,,,right,1.5172862582840025,,,,,,,,,,,,,,,,,,,,,,,,,1018,2019_Mar_06_1243,mf_amp_cond2,3.0.4,60.003964371266285,
elsewhere,&&&&&&&&&,left,neutral,,,,,,,,0,0,0,51,,,,,,,,,,,,,,,,,,,,,LDT,left,0.9171797145390883,1,,,left,1,0.9171797145390883,,,,,,,,,,,,,,,,,,,,,,1018,2019_Mar_06_1243,mf_amp_cond2,3.0.4,60.003964371266285,
pulge,&&&&&,right,nonword,,,,,,,,0,1,1,127,,,,,,,,,,,,,,,,,,,,,LDT,left,0.3836886716308072,0,,,left,0,0.3836886716308072,,,,,,,,,,,,,,,,,,,,,,1018,2019_Mar_06_1243,mf_amp_cond2,3.0.4,60.003964371266285,
neutralust,&&&&&&&&&&,right,nonword,,,,,,,,0,2,2,164,,,,,,,,,,,,,,,,,,,,,LDT,left,1.117188181495294,0,,,left,0,1.117188181495294,,,,,,,,,,,,,,,,,,,,,,1018,2019_Mar_06_1243,mf_amp_cond2,3.0.4,60.003964371266285,
seachwear,&&&&&&&&&,right,nonword,,,,,,,,0,3,3,198,,,,,,,,,,,,,,,,,,,,,LDT,right,0.5337524310452864,1,,,right,1,0.5337524310452864,,,,,,,,,,,,,,,,,,,,,,1018,2019_Mar_06_1243,mf_amp_cond2,3.0.4,60.003964371266285,
each,&&&&,left,neutral,,,,,,,,0,4,4,146,,,,,,,,,,,,,,,,,,,,,LDT,right,0.5003855074755847,0,,,right,0,0.5003855074755847,,,,,,,,,,,,,,,,,,,,,,1018,2019_Mar_06_1243,mf_amp_cond2,3.0.4,60.003964371266285,
imebreaker,&&&&&&&&&&,right,nonword,,,,,,,,0,5,5,52,,,,,,,,,,,,,,,,,,,,,LDT,right,0.5505021219141781,1,,,right,1,0.5505021219141781,,,,,,,,,,,,,,,,,,,,,,1018,2019_Mar_06_1243,mf_amp_cond2,3.0.4,60.003964371266285,
elduringly,&&&&&&&&&&,right,nonword,,,,,,,,0,6,6,116,,,,,,,,,,,,,,,,,,,,,LDT,left,0.7171083859866485,0,,,left,0,0.7171083859866485,,,,,,,,,,,,,,,,,,,,,,1018,2019_Mar_06_1243,mf_amp_cond2,3.0.4,60.003964371266285,
strength,&&&&&&&&,left,sanctity.virtue,,,,,,,,0,7,7,177,,,,,,,,,,,,,,,,,,,,,LDT,right,0.5837487748358399,0,,,right,0,0.5837487748358399,,,,,,,,,,,,,,,,,,,,,,1018,2019_Mar_06_1243,mf_amp_cond2,3.0.4,60.003964371266285,
rivernoat,&&&&&&&&&,right,nonword,,,,,,,,0,8,8,156,,,,,,,,,,,,,,,,,,,,,LDT,right,1.23392414546106,1,,,right,1,1.23392414546106,,,,,,,,,,,,,,,,,,,,,,1018,2019_Mar_06_1243,mf_amp_cond2,3.0.4,60.003964371266285,
drumbled,&&&&&&&&,right,nonword,,,,,,,,0,9,9,138,,,,,,,,,,,,,,,,,,,,,LDT,right,0.5170428304700181,1,,,right,1,0.5170428304700181,,,,,,,,,,,,,,,,,,,,,,1018,2019_Mar_06_1243,mf_amp_cond2,3.0.4,60.003964371266285,
pafer,&&&&&,right,nonword,,,,,,,,0,10,10,108,,,,,,,,,,,,,,,,,,,,,LDT,right,0.7171019715024158,1,,,right,1,0.7171019715024158,,,,,,,,,,,,,,,,,,,,,,1018,2019_Mar_06_1243,mf_amp_cond2,3.0.4,60.003964371266285,
scock,&&&&&,right,nonword,,,,,,,,0,11,11,179,,,,,,,,,,,,,,,,,,,,,LDT,right,0.7671021638670936,1,,,right,1,0.7671021638670936,,,,,,,,,,,,,,,,,,,,,,1018,2019_Mar_06_1243,mf_amp_cond2,3.0.4,60.003964371266285,
peace,&&&&&,left,care.virtue,,,,,,,,0,12,12,78,,,,,,,,,,,,,,,,,,,,,LDT,right,0.5003758857492357,0,,,right,0,0.5003758857492357,,,,,,,,,,,,,,,,,,,,,,1018,2019_Mar_06_1243,mf_amp_cond2,3.0.4,60.003964371266285,
hate,&&&&,left,fairness.vice,,,,,,,,0,13,13,44,,,,,,,,,,,,,,,,,,,,,LDT,right,0.48368873563595116,0,,,right,0,0.48368873563595116,,,,,,,,,,,,,,,,,,,,,,1018,2019_Mar_06_1243,mf_amp_cond2,3.0.4,60.003964371266285,
eight,&&&&&,left,neutral,,,,,,,,0,14,14,94,,,,,,,,,,,,,,,,,,,,,LDT,right,0.5003168730763718,0,,,right,0,0.5003168730763718,,,,,,,,,,,,,,,,,,,,,,1018,2019_Mar_06_1243,mf_amp_cond2,3.0.4,60.003964371266285,
army,&&&&,left,loyalty.vice,,,,,,,,0,15,15,151,,,,,,,,,,,,,,,,,,,,,LDT,right,0.4503538842545822,0,,,right,0,0.4503538842545822,,,,,,,,,,,,,,,,,,,,,,1018,2019_Mar_06_1243,mf_amp_cond2,3.0.4,60.003964371266285,
done,&&&&,left,neutral,,,,,,,,0,16,16,136,,,,,,,,,,,,,,,,,,,,,LDT,right,0.3836816156981513,0,,,right,0,0.3836816156981513,,,,,,,,,,,,,,,,,,,,,,1018,2019_Mar_06_1243,mf_amp_cond2,3.0.4,60.003964371266285,
erdest,&&&&&&,right,nonword,,,,,,,,0,17,17,150,,,,,,,,,,,,,,,,,,,,,LDT,left,0.883832034189254,0,,,left,0,0.883832034189254,,,,,,,,,,,,,,,,,,,,,,1018,2019_Mar_06_1243,mf_amp_cond2,3.0.4,60.003964371266285,
become,&&&&&&,left,neutral,,,,,,,,0,18,18,117,,,,,,,,,,,,,,,,,,,,,LDT,right,0.5503943593939766,0,,,right,0,0.5503943593939766,,,,,,,,,,,,,,,,,,,,,,1018,2019_Mar_06_1243,mf_amp_cond2,3.0.4,60.003964371266285,
reprisols,&&&&&&&&&,right,nonword,,,,,,,,0,19,19,70,,,,,,,,,,,,,,,,,,,,,LDT,left,0.8838179224403575,0,,,left,0,0.8838179224403575,,,,,,,,,,,,,,,,,,,,,,1018,2019_Mar_06_1243,mf_amp_cond2,3.0.4,60.003964371266285,
ittutable,&&&&&&&&&,right,nonword,,,,,,,,0,20,20,35,,,,,,,,,,,,,,,,,,,,,LDT,left,0.5337094543501735,0,,,left,0,0.5337094543501735,,,,,,,,,,,,,,,,,,,,,,1018,2019_Mar_06_1243,mf_amp_cond2,3.0.4,60.003964371266285,
neputized,&&&&&&&&&,right,nonword,,,,,,,,0,21,21,192,,,,,,,,,,,,,,,,,,,,,LDT,left,0.5837410774547607,0,,,left,0,0.5837410774547607,,,,,,,,,,,,,,,,,,,,,,1018,2019_Mar_06_1243,mf_amp_cond2,3.0.4,60.003964371266285,
pistraught,&&&&&&&&&&,right,nonword,,,,,,,,0,22,22,189,,,,,,,,,,,,,,,,,,,,,LDT,left,0.500376848038286,0,,,left,0,0.500376848038286,,,,,,,,,,,,,,,,,,,,,,1018,2019_Mar_06_1243,mf_amp_cond2,3.0.4,60.003964371266285,
festate,&&&&&&&,right,nonword,,,,,,,,0,23,23,121,,,,,,,,,,,,,,,,,,,,,LDT,left,1.0005003258120269,0,,,left,0,1.0005003258120269,,,,,,,,,,,,,,,,,,,,,,1018,2019_Mar_06_1243,mf_amp_cond2,3.0.4,60.003964371266285,
victims,&&&&&&&,left,care.vice,,,,,,,,0,24,24,147,,,,,,,,,,,,,,,,,,,,,LDT,right,0.5003489451482892,0,,,right,0,0.5003489451482892,,,,,,,,,,,,,,,,,,,,,,1018,2019_Mar_06_1243,mf_amp_cond2,3.0.4,60.003964371266285,
erks,&&&&,right,nonword,,,,,,,,0,25,25,80,,,,,,,,,,,,,,,,,,,,,LDT,left,0.5836891205981374,0,,,left,0,0.5836891205981374,,,,,,,,,,,,,,,,,,,,,,1018,2019_Mar_06_1243,mf_amp_cond2,3.0.4,60.003964371266285,
rorroborated,&&&&&&&&&&&&,right,nonword,,,,,,,,0,26,26,169,,,,,,,,,,,,,,,,,,,,,LDT,left,0.7004292538622394,0,,,left,0,0.7004292538622394,,,,,,,,,,,,,,,,,,,,,,1018,2019_Mar_06_1243,mf_amp_cond2,3.0.4,60.003964371266285,
ejanulated,&&&&&&&&&&,right,nonword,,,,,,,,0,27,27,11,,,,,,,,,,,,,,,,,,,,,LDT,left,1.0505178372841328,0,,,left,0,1.0505178372841328,,,,,,,,,,,,,,,,,,,,,,1018,2019_Mar_06_1243,mf_amp_cond2,3.0.4,60.003964371266285,
gournful,&&&&&&&&,right,nonword,,,,,,,,0,28,28,167,,,,,,,,,,,,,,,,,,,,,LDT,right,0.5670686805387959,1,,,right,1,0.5670686805387959,,,,,,,,,,,,,,,,,,,,,,1018,2019_Mar_06_1243,mf_amp_cond2,3.0.4,60.003964371266285,
esquisiteness,&&&&&&&&&&&&&,right,nonword,,,,,,,,0,29,29,188,,,,,,,,,,,,,,,,,,,,,LDT,right,0.5337569211842492,1,,,right,1,0.5337569211842492,,,,,,,,,,,,,,,,,,,,,,1018,2019_Mar_06_1243,mf_amp_cond2,3.0.4,60.003964371266285,
also,&&&&,left,neutral,,,,,,,,0,30,30,54,,,,,,,,,,,,,,,,,,,,,LDT,right,0.4670644471189007,0,,,right,0,0.4670644471189007,,,,,,,,,,,,,,,,,,,,,,1018,2019_Mar_06_1243,mf_amp_cond2,3.0.4,60.003964371266285,
whereafter,&&&&&&&&&&,left,neutral,,,,,,,,0,31,31,119,,,,,,,,,,,,,,,,,,,,,LDT,left,0.7171006886055693,1,,,left,1,0.7171006886055693,,,,,,,,,,,,,,,,,,,,,,1018,2019_Mar_06_1243,mf_amp_cond2,3.0.4,60.003964371266285,
civilians,&&&&&&&&&,left,care.vice,,,,,,,,0,32,32,180,,,,,,,,,,,,,,,,,,,,,LDT,right,0.6504252129234374,0,,,right,0,0.6504252129234374,,,,,,,,,,,,,,,,,,,,,,1018,2019_Mar_06_1243,mf_amp_cond2,3.0.4,60.003964371266285,
forced,&&&&&&,left,fairness.vice,,,,,,,,0,33,33,69,,,,,,,,,,,,,,,,,,,,,LDT,right,0.6670215986669064,0,,,right,0,0.6670215986669064,,,,,,,,,,,,,,,,,,,,,,1018,2019_Mar_06_1243,mf_amp_cond2,3.0.4,60.003964371266285,
viscs,&&&&&,None,nonword,,,,,,,,0,34,34,175,,,,,,,,,,,,,,,,,,,,,LDT,left,0.7004318196559325,0,,,left,0,0.7004318196559325,,,,,,,,,,,,,,,,,,,,,,1018,2019_Mar_06_1243,mf_amp_cond2,3.0.4,60.003964371266285,
myself,&&&&&&,left,neutral,,,,,,,,0,35,35,23,,,,,,,,,,,,,,,,,,,,,LDT,right,0.4503651096019894,0,,,right,0,0.4503651096019894,,,,,,,,,,,,,,,,,,,,,,1018,2019_Mar_06_1243,mf_amp_cond2,3.0.4,60.003964371266285,
unscothed,&&&&&&&&&,right,nonword,,,,,,,,0,36,36,185,,,,,,,,,,,,,,,,,,,,,LDT,right,0.5337181139038876,1,,,right,1,0.5337181139038876,,,,,,,,,,,,,,,,,,,,,,1018,2019_Mar_06_1243,mf_amp_cond2,3.0.4,60.003964371266285,
reviked,&&&&&&&,right,nonword,,,,,,,,0,37,37,84,,,,,,,,,,,,,,,,,,,,,LDT,left,0.5337335084332153,0,,,left,0,0.5337335084332153,,,,,,,,,,,,,,,,,,,,,,1018,2019_Mar_06_1243,mf_amp_cond2,3.0.4,60.003964371266285,
supervuned,&&&&&&&&&&,right,nonword,,,,,,,,0,38,38,120,,,,,,,,,,,,,,,,,,,,,LDT,right,0.4670468074036762,1,,,right,1,0.4670468074036762,,,,,,,,,,,,,,,,,,,,,,1018,2019_Mar_06_1243,mf_amp_cond2,3.0.4,60.003964371266285,
abuse,&&&&&,left,sanctity.vice,,,,,,,,0,39,39,33,,,,,,,,,,,,,,,,,,,,,LDT,right,0.50036979210563,0,,,right,0,0.50036979210563,,,,,,,,,,,,,,,,,,,,,,1018,2019_Mar_06_1243,mf_amp_cond2,3.0.4,60.003964371266285,
gedious,&&&&&&&,right,nonword,,,,,,,,0,40,40,22,,,,,,,,,,,,,,,,,,,,,LDT,left,0.5837468506069854,0,,,left,0,0.5837468506069854,,,,,,,,,,,,,,,,,,,,,,1018,2019_Mar_06_1243,mf_amp_cond2,3.0.4,60.003964371266285,
tenuflect,&&&&&&&&&,right,nonword,,,,,,,,0,41,41,86,,,,,,,,,,,,,,,,,,,,,LDT,left,0.5670375706395134,0,,,left,0,0.5670375706395134,,,,,,,,,,,,,,,,,,,,,,1018,2019_Mar_06_1243,mf_amp_cond2,3.0.4,60.003964371266285,
less,&&&&,left,neutral,,,,,,,,0,42,42,184,,,,,,,,,,,,,,,,,,,,,LDT,right,0.3170625868951902,0,,,right,0,0.3170625868951902,,,,,,,,,,,,,,,,,,,,,,1018,2019_Mar_06_1243,mf_amp_cond2,3.0.4,60.003964371266285,
values,&&&&&&,left,sanctity.virtue,,,,,,,,0,43,43,57,,,,,,,,,,,,,,,,,,,,,LDT,right,0.5504164891317487,0,,,right,0,0.5504164891317487,,,,,,,,,,,,,,,,,,,,,,1018,2019_Mar_06_1243,mf_amp_cond2,3.0.4,60.003964371266285,
bluently,&&&&&&&&,None,nonword,,,,,,,,0,44,44,50,,,,,,,,,,,,,,,,,,,,,LDT,left,0.5670638697920367,0,,,left,0,0.5670638697920367,,,,,,,,,,,,,,,,,,,,,,1018,2019_Mar_06_1243,mf_amp_cond2,3.0.4,60.003964371266285,
both,&&&&,left,neutral,,,,,,,,0,45,45,176,,,,,,,,,,,,,,,,,,,,,LDT,right,0.46700511360540986,0,,,right,0,0.46700511360540986,,,,,,,,,,,,,,,,,,,,,,1018,2019_Mar_06_1243,mf_amp_cond2,3.0.4,60.003964371266285,
totalestic,&&&&&&&&&&,None,nonword,,,,,,,,0,46,46,193,,,,,,,,,,,,,,,,,,,,,LDT,left,0.5337219624780118,0,,,left,0,0.5337219624780118,,,,,,,,,,,,,,,,,,,,,,1018,2019_Mar_06_1243,mf_amp_cond2,3.0.4,60.003964371266285,
tabin,&&&&&,right,nonword,,,,,,,,0,47,47,118,,,,,,,,,,,,,,,,,,,,,LDT,left,0.7004154628375545,0,,,left,0,0.7004154628375545,,,,,,,,,,,,,,,,,,,,,,1018,2019_Mar_06_1243,mf_amp_cond2,3.0.4,60.003964371266285,
ilportation,&&&&&&&&&&&,right,nonword,,,,,,,,0,48,48,66,,,,,,,,,,,,,,,,,,,,,LDT,left,1.5673223715275526,0,,,left,0,1.5673223715275526,,,,,,,,,,,,,,,,,,,,,,1018,2019_Mar_06_1243,mf_amp_cond2,3.0.4,60.003964371266285,
ablow,&&&&&,right,nonword,,,,,,,,0,49,49,166,,,,,,,,,,,,,,,,,,,,,LDT,right,0.467016338952817,1,,,right,1,0.467016338952817,,,,,,,,,,,,,,,,,,,,,,1018,2019_Mar_06_1243,mf_amp_cond2,3.0.4,60.003964371266285,
groups,&&&&&&,left,loyalty.vice,,,,,,,,0,50,50,100,,,,,,,,,,,,,,,,,,,,,LDT,right,0.40034022147301584,0,,,right,0,0.40034022147301584,,,,,,,,,,,,,,,,,,,,,,1018,2019_Mar_06_1243,mf_amp_cond2,3.0.4,60.003964371266285,
hasks,&&&&&,right,nonword,,,,,,,,0,51,51,172,,,,,,,,,,,,,,,,,,,,,LDT,right,0.4670644471189007,1,,,right,1,0.4670644471189007,,,,,,,,,,,,,,,,,,,,,,1018,2019_Mar_06_1243,mf_amp_cond2,3.0.4,60.003964371266285,
give,&&&&,left,neutral,,,,,,,,0,52,52,105,,,,,,,,,,,,,,,,,,,,,LDT,right,0.6004150779917836,0,,,right,0,0.6004150779917836,,,,,,,,,,,,,,,,,,,,,,1018,2019_Mar_06_1243,mf_amp_cond2,3.0.4,60.003964371266285,
protect,&&&&&&&,left,fairness.virtue,,,,,,,,0,53,53,96,,,,,,,,,,,,,,,,,,,,,LDT,right,0.3503842887002975,0,,,right,0,0.3503842887002975,,,,,,,,,,,,,,,,,,,,,,1018,2019_Mar_06_1243,mf_amp_cond2,3.0.4,60.003964371266285,
killed,&&&&&&,left,care.vice,,,,,,,,0,54,54,29,,,,,,,,,,,,,,,,,,,,,LDT,right,0.3336756501812488,0,,,right,0,0.3336756501812488,,,,,,,,,,,,,,,,,,,,,,1018,2019_Mar_06_1243,mf_amp_cond2,3.0.4,60.003964371266285,
peaceful,&&&&&&&&,left,authority.virtue,,,,,,,,0,55,55,130,,,,,,,,,,,,,,,,,,,,,LDT,right,0.4170257680816576,0,,,right,0,0.4170257680816576,,,,,,,,,,,,,,,,,,,,,,1018,2019_Mar_06_1243,mf_amp_cond2,3.0.4,60.003964371266285,
could,&&&&&,left,neutral,,,,,,,,0,56,56,134,,,,,,,,,,,,,,,,,,,,,LDT,right,0.40032033692114055,0,,,right,0,0.40032033692114055,,,,,,,,,,,,,,,,,,,,,,1018,2019_Mar_06_1243,mf_amp_cond2,3.0.4,60.003964371266285,
chressing,&&&&&&&&&,None,nonword,,,,,,,,0,57,57,99,,,,,,,,,,,,,,,,,,,,,LDT,left,0.7837774473009631,0,,,left,0,0.7837774473009631,,,,,,,,,,,,,,,,,,,,,,1018,2019_Mar_06_1243,mf_amp_cond2,3.0.4,60.003964371266285,
sidearbs,&&&&&&&&,right,nonword,,,,,,,,0,58,58,102,,,,,,,,,,,,,,,,,,,,,LDT,left,0.7337843108689412,0,,,left,0,0.7337843108689412,,,,,,,,,,,,,,,,,,,,,,1018,2019_Mar_06_1243,mf_amp_cond2,3.0.4,60.003964371266285,
toward,&&&&&&,left,neutral,,,,,,,,0,59,59,79,,,,,,,,,,,,,,,,,,,,,LDT,right,0.4837034889496863,0,,,right,0,0.4837034889496863,,,,,,,,,,,,,,,,,,,,,,1018,2019_Mar_06_1243,mf_amp_cond2,3.0.4,60.003964371266285,
disregord,&&&&&&&&&,right,nonword,,,,,,,,0,60,60,13,,,,,,,,,,,,,,,,,,,,,LDT,right,0.6003929482540116,1,,,right,1,0.6003929482540116,,,,,,,,,,,,,,,,,,,,,,1018,2019_Mar_06_1243,mf_amp_cond2,3.0.4,60.003964371266285,
else,&&&&,left,neutral,,,,,,,,0,61,61,47,,,,,,,,,,,,,,,,,,,,,LDT,right,0.4670282055158168,0,,,right,0,0.4670282055158168,,,,,,,,,,,,,,,,,,,,,,1018,2019_Mar_06_1243,mf_amp_cond2,3.0.4,60.003964371266285,
somehow,&&&&&&&,left,neutral,,,,,,,,0,62,62,9,,,,,,,,,,,,,,,,,,,,,LDT,right,1.3839824526803568,0,,,right,0,1.3839824526803568,,,,,,,,,,,,,,,,,,,,,,1018,2019_Mar_06_1243,mf_amp_cond2,3.0.4,60.003964371266285,
sharing,&&&&&&&,left,loyalty.virtue,,,,,,,,0,63,63,139,,,,,,,,,,,,,,,,,,,,,LDT,right,0.3336727637797594,0,,,right,0,0.3336727637797594,,,,,,,,,,,,,,,,,,,,,,1018,2019_Mar_06_1243,mf_amp_cond2,3.0.4,60.003964371266285,
support,&&&&&&&,left,loyalty.virtue,,,,,,,,0,64,64,157,,,,,,,,,,,,,,,,,,,,,LDT,right,0.36703423503786325,0,,,right,0,0.36703423503786325,,,,,,,,,,,,,,,,,,,,,,1018,2019_Mar_06_1243,mf_amp_cond2,3.0.4,60.003964371266285,
nackers,&&&&&&&,right,nonword,,,,,,,,0,65,65,8,,,,,,,,,,,,,,,,,,,,,LDT,left,0.6004400942474604,0,,,left,0,0.6004400942474604,,,,,,,,,,,,,,,,,,,,,,1018,2019_Mar_06_1243,mf_amp_cond2,3.0.4,60.003964371266285,
were,&&&&,left,neutral,,,,,,,,0,66,66,61,,,,,,,,,,,,,,,,,,,,,LDT,right,0.6837539705447853,0,,,right,0,0.6837539705447853,,,,,,,,,,,,,,,,,,,,,,1018,2019_Mar_06_1243,mf_amp_cond2,3.0.4,60.003964371266285,
hescribe,&&&&&&&&,right,nonword,,,,,,,,0,67,67,89,,,,,,,,,,,,,,,,,,,,,LDT,left,1.3005919239949435,0,,,left,0,1.3005919239949435,,,,,,,,,,,,,,,,,,,,,,1018,2019_Mar_06_1243,mf_amp_cond2,3.0.4,60.003964371266285,
mostly,&&&&&&,left,neutral,,,,,,,,0,68,68,114,,,,,,,,,,,,,,,,,,,,,LDT,right,0.3336923278402537,0,,,right,0,0.3336923278402537,,,,,,,,,,,,,,,,,,,,,,1018,2019_Mar_06_1243,mf_amp_cond2,3.0.4,60.003964371266285,
Loorish,&&&&&&&,right,nonword,,,,,,,,0,69,69,88,,,,,,,,,,,,,,,,,,,,,LDT,left,0.7004116142634302,0,,,left,0,0.7004116142634302,,,,,,,,,,,,,,,,,,,,,,1018,2019_Mar_06_1243,mf_amp_cond2,3.0.4,60.003964371266285,
pullness,&&&&&&&&,right,nonword,,,,,,,,0,70,70,41,,,,,,,,,,,,,,,,,,,,,LDT,right,0.41705463302787393,1,,,right,1,0.41705463302787393,,,,,,,,,,,,,,,,,,,,,,1018,2019_Mar_06_1243,mf_amp_cond2,3.0.4,60.003964371266285,
photocalkodes,&&&&&&&&&&&&&,right,nonword,,,,,,,,0,71,71,63,,,,,,,,,,,,,,,,,,,,,LDT,left,0.6171067182440311,0,,,left,0,0.6171067182440311,,,,,,,,,,,,,,,,,,,,,,1018,2019_Mar_06_1243,mf_amp_cond2,3.0.4,60.003964371266285,
ning,&&&&,right,nonword,,,,,,,,0,72,72,153,,,,,,,,,,,,,,,,,,,,,LDT,left,1.0171672705328092,0,,,left,0,1.0171672705328092,,,,,,,,,,,,,,,,,,,,,,1018,2019_Mar_06_1243,mf_amp_cond2,3.0.4,60.003964371266285,
thru,&&&&,left,neutral,,,,,,,,0,73,73,143,,,,,,,,,,,,,,,,,,,,,LDT,right,0.40038416045717895,0,,,right,0,0.40038416045717895,,,,,,,,,,,,,,,,,,,,,,1018,2019_Mar_06_1243,mf_amp_cond2,3.0.4,60.003964371266285,
therefore,&&&&&&&&&,left,neutral,,,,,,,,0,74,74,59,,,,,,,,,,,,,,,,,,,,,LDT,right,0.3836655797204003,0,,,right,0,0.3836655797204003,,,,,,,,,,,,,,,,,,,,,,1018,2019_Mar_06_1243,mf_amp_cond2,3.0.4,60.003964371266285,
credit,&&&&&&,left,fairness.virtue,,,,,,,,0,75,75,28,,,,,,,,,,,,,,,,,,,,,LDT,right,0.3836796913528815,0,,,right,0,0.3836796913528815,,,,,,,,,,,,,,,,,,,,,,1018,2019_Mar_06_1243,mf_amp_cond2,3.0.4,60.003964371266285,
smapper,&&&&&&&,right,nonword,,,,,,,,0,76,76,126,,,,,,,,,,,,,,,,,,,,,LDT,left,0.717103575123474,0,,,left,0,0.717103575123474,,,,,,,,,,,,,,,,,,,,,,1018,2019_Mar_06_1243,mf_amp_cond2,3.0.4,60.003964371266285,
Boeinf,&&&&&&,right,nonword,,,,,,,,0,77,77,161,,,,,,,,,,,,,,,,,,,,,LDT,left,1.2672381498850882,0,,,left,0,1.2672381498850882,,,,,,,,,,,,,,,,,,,,,,1018,2019_Mar_06_1243,mf_amp_cond2,3.0.4,60.003964371266285,
promote,&&&&&&&,left,sanctity.virtue,,,,,,,,0,78,78,38,,,,,,,,,,,,,,,,,,,,,LDT,right,0.38369765179231763,0,,,right,0,0.38369765179231763,,,,,,,,,,,,,,,,,,,,,,1018,2019_Mar_06_1243,mf_amp_cond2,3.0.4,60.003964371266285,
couldnt,&&&&&&&,left,neutral,,,,,,,,0,79,79,111,,,,,,,,,,,,,,,,,,,,,LDT,right,0.4003248269436881,0,,,right,0,0.4003248269436881,,,,,,,,,,,,,,,,,,,,,,1018,2019_Mar_06_1243,mf_amp_cond2,3.0.4,60.003964371266285,
nuckheap,&&&&&&&&,right,nonword,,,,,,,,0,80,80,158,,,,,,,,,,,,,,,,,,,,,LDT,left,0.5003839039709419,0,,,left,0,0.5003839039709419,,,,,,,,,,,,,,,,,,,,,,1018,2019_Mar_06_1243,mf_amp_cond2,3.0.4,60.003964371266285,
antral,&&&&&&,right,nonword,,,,,,,,0,81,81,191,,,,,,,,,,,,,,,,,,,,,LDT,left,0.5170460375957191,0,,,left,0,0.5170460375957191,,,,,,,,,,,,,,,,,,,,,,1018,2019_Mar_06_1243,mf_amp_cond2,3.0.4,60.003964371266285,
party,&&&&&,left,loyalty.virtue,,,,,,,,0,82,82,71,,,,,,,,,,,,,,,,,,,,,LDT,right,0.40035657840780914,0,,,right,0,0.40035657840780914,,,,,,,,,,,,,,,,,,,,,,1018,2019_Mar_06_1243,mf_amp_cond2,3.0.4,60.003964371266285,
love,&&&&,left,loyalty.virtue,,,,,,,,0,83,83,27,,,,,,,,,,,,,,,,,,,,,LDT,right,0.41700780764222145,0,,,right,0,0.41700780764222145,,,,,,,,,,,,,,,,,,,,,,1018,2019_Mar_06_1243,mf_amp_cond2,3.0.4,60.003964371266285,
mightingale,&&&&&&&&&&&,right,nonword,,,,,,,,0,84,84,55,,,,,,,,,,,,,,,,,,,,,LDT,left,0.6504066109191626,0,,,left,0,0.6504066109191626,,,,,,,,,,,,,,,,,,,,,,1018,2019_Mar_06_1243,mf_amp_cond2,3.0.4,60.003964371266285,
counpy's,&&&&&&&&,right,nonword,,,,,,,,0,85,85,74,,,,,,,,,,,,,,,,,,,,,LDT,left,0.5671113365096971,0,,,left,0,0.5671113365096971,,,,,,,,,,,,,,,,,,,,,,1018,2019_Mar_06_1243,mf_amp_cond2,3.0.4,60.003964371266285,
been,&&&&,left,neutral,,,,,,,,0,86,86,173,,,,,,,,,,,,,,,,,,,,,LDT,right,0.31698208570014685,0,,,right,0,0.31698208570014685,,,,,,,,,,,,,,,,,,,,,,1018,2019_Mar_06_1243,mf_amp_cond2,3.0.4,60.003964371266285,
victim,&&&&&&,left,care.vice,,,,,,,,0,87,87,1,,,,,,,,,,,,,,,,,,,,,LDT,right,0.45039333309978247,0,,,right,0,0.45039333309978247,,,,,,,,,,,,,,,,,,,,,,1018,2019_Mar_06_1243,mf_amp_cond2,3.0.4,60.003964371266285,
clean,&&&&&,left,sanctity.virtue,,,,,,,,0,88,88,48,,,,,,,,,,,,,,,,,,,,,LDT,right,0.3836671832250431,0,,,right,0,0.3836671832250431,,,,,,,,,,,,,,,,,,,,,,1018,2019_Mar_06_1243,mf_amp_cond2,3.0.4,60.003964371266285,
rejected,&&&&&&&&,left,authority.vice,,,,,,,,0,89,89,97,,,,,,,,,,,,,,,,,,,,,LDT,right,0.5837240793043748,0,,,right,0,0.5837240793043748,,,,,,,,,,,,,,,,,,,,,,1018,2019_Mar_06_1243,mf_amp_cond2,3.0.4,60.003964371266285,
amoungst,&&&&&&&&,left,neutral,,,,,,,,0,90,90,6,,,,,,,,,,,,,,,,,,,,,LDT,left,0.7170958778588101,1,,,left,1,0.7170958778588101,,,,,,,,,,,,,,,,,,,,,,1018,2019_Mar_06_1243,mf_amp_cond2,3.0.4,60.003964371266285,
suggists,&&&&&&&&,right,nonword,,,,,,,,0,91,91,132,,,,,,,,,,,,,,,,,,,,,LDT,right,0.45038339076563716,1,,,right,1,0.45038339076563716,,,,,,,,,,,,,,,,,,,,,,1018,2019_Mar_06_1243,mf_amp_cond2,3.0.4,60.003964371266285,
voter,&&&&&,left,fairness.vice,,,,,,,,0,92,92,0,,,,,,,,,,,,,,,,,,,,,LDT,right,0.31698080291971564,0,,,right,0,0.31698080291971564,,,,,,,,,,,,,,,,,,,,,,1018,2019_Mar_06_1243,mf_amp_cond2,3.0.4,60.003964371266285,
dormandi,&&&&&&&&,None,nonword,,,,,,,,0,93,93,90,,,,,,,,,,,,,,,,,,,,,LDT,left,0.6337797564920038,0,,,left,0,0.6337797564920038,,,,,,,,,,,,,,,,,,,,,,1018,2019_Mar_06_1243,mf_amp_cond2,3.0.4,60.003964371266285,
unreflectuve,&&&&&&&&&&&&,right,nonword,,,,,,,,0,94,94,101,,,,,,,,,,,,,,,,,,,,,LDT,left,0.4836252328241244,0,,,left,0,0.4836252328241244,,,,,,,,,,,,,,,,,,,,,,1018,2019_Mar_06_1243,mf_amp_cond2,3.0.4,60.003964371266285,
touls,&&&&&,right,nonword,,,,,,,,0,95,95,187,,,,,,,,,,,,,,,,,,,,,LDT,left,0.43369495775550604,0,,,left,0,0.43369495775550604,,,,,,,,,,,,,,,,,,,,,,1018,2019_Mar_06_1243,mf_amp_cond2,3.0.4,60.003964371266285,
about,&&&&&,left,neutral,,,,,,,,0,96,96,72,,,,,,,,,,,,,,,,,,,,,LDT,right,0.36702717922162265,0,,,right,0,0.36702717922162265,,,,,,,,,,,,,,,,,,,,,,1018,2019_Mar_06_1243,mf_amp_cond2,3.0.4,60.003964371266285,
openet,&&&&&&,None,nonword,,,,,,,,0,97,97,154,,,,,,,,,,,,,,,,,,,,,LDT,right,0.5504084711428732,0,,,right,0,0.5504084711428732,,,,,,,,,,,,,,,,,,,,,,1018,2019_Mar_06_1243,mf_amp_cond2,3.0.4,60.003964371266285,
sgrawl,&&&&&&,right,nonword,,,,,,,,0,98,98,124,,,,,,,,,,,,,,,,,,,,,LDT,left,0.5670709256082773,0,,,left,0,0.5670709256082773,,,,,,,,,,,,,,,,,,,,,,1018,2019_Mar_06_1243,mf_amp_cond2,3.0.4,60.003964371266285,
lachelor,&&&&&&&&,right,nonword,,,,,,,,0,99,99,39,,,,,,,,,,,,,,,,,,,,,LDT,left,0.5837343423627317,0,,,left,0,0.5837343423627317,,,,,,,,,,,,,,,,,,,,,,1018,2019_Mar_06_1243,mf_amp_cond2,3.0.4,60.003964371266285,
spag,&&&&,None,nonword,,,,,,,,0,100,100,7,,,,,,,,,,,,,,,,,,,,,LDT,left,0.6004060978302732,0,,,left,0,0.6004060978302732,,,,,,,,,,,,,,,,,,,,,,1018,2019_Mar_06_1243,mf_amp_cond2,3.0.4,60.003964371266285,
sickyay,&&&&&&&,right,nonword,,,,,,,,0,101,101,135,,,,,,,,,,,,,,,,,,,,,LDT,left,1.050532269757241,0,,,left,0,1.050532269757241,,,,,,,,,,,,,,,,,,,,,,1018,2019_Mar_06_1243,mf_amp_cond2,3.0.4,60.003964371266285,
serial,&&&&&&,left,sanctity.vice,,,,,,,,0,102,102,75,,,,,,,,,,,,,,,,,,,,,LDT,right,0.5004005813971162,0,,,right,0,0.5004005813971162,,,,,,,,,,,,,,,,,,,,,,1018,2019_Mar_06_1243,mf_amp_cond2,3.0.4,60.003964371266285,
although,&&&&&&&&,left,neutral,,,,,,,,0,103,103,30,,,,,,,,,,,,,,,,,,,,,LDT,right,0.4003325243247673,0,,,right,0,0.4003325243247673,,,,,,,,,,,,,,,,,,,,,,1018,2019_Mar_06_1243,mf_amp_cond2,3.0.4,60.003964371266285,
protesters,&&&&&&&&&&,left,authority.vice,,,,,,,,0,104,104,125,,,,,,,,,,,,,,,,,,,,,LDT,left,0.6837690444663167,1,,,left,1,0.6837690444663167,,,,,,,,,,,,,,,,,,,,,,1018,2019_Mar_06_1243,mf_amp_cond2,3.0.4,60.003964371266285,
thabbily,&&&&&&&&,right,nonword,,,,,,,,0,105,105,186,,,,,,,,,,,,,,,,,,,,,LDT,left,0.5837359459837899,0,,,left,0,0.5837359459837899,,,,,,,,,,,,,,,,,,,,,,1018,2019_Mar_06_1243,mf_amp_cond2,3.0.4,60.003964371266285,
tomedians,&&&&&&&&&,right,nonword,,,,,,,,0,106,106,183,,,,,,,,,,,,,,,,,,,,,LDT,left,0.5003758857492357,0,,,left,0,0.5003758857492357,,,,,,,,,,,,,,,,,,,,,,1018,2019_Mar_06_1243,mf_amp_cond2,3.0.4,60.003964371266285,
pumber,&&&&&&,None,nonword,,,,,,,,0,107,107,36,,,,,,,,,,,,,,,,,,,,,LDT,left,1.1505223914282396,0,,,left,0,1.1505223914282396,,,,,,,,,,,,,,,,,,,,,,1018,2019_Mar_06_1243,mf_amp_cond2,3.0.4,60.003964371266285,
progress,&&&&&&&&,left,authority.virtue,,,,,,,,0,108,108,155,,,,,,,,,,,,,,,,,,,,,LDT,right,0.4335422943113372,0,,,right,0,0.4335422943113372,,,,,,,,,,,,,,,,,,,,,,1018,2019_Mar_06_1243,mf_amp_cond2,3.0.4,60.003964371266285,
latterly,&&&&&&&&,left,neutral,,,,,,,,0,109,109,110,,,,,,,,,,,,,,,,,,,,,LDT,right,0.6837584605673328,0,,,right,0,0.6837584605673328,,,,,,,,,,,,,,,,,,,,,,1018,2019_Mar_06_1243,mf_amp_cond2,3.0.4,60.003964371266285,
simplustic,&&&&&&&&&&,right,nonword,,,,,,,,0,110,110,3,,,,,,,,,,,,,,,,,,,,,LDT,left,0.5837077224859968,0,,,left,0,0.5837077224859968,,,,,,,,,,,,,,,,,,,,,,1018,2019_Mar_06_1243,mf_amp_cond2,3.0.4,60.003964371266285,
galamitous,&&&&&&&&&&,right,nonword,,,,,,,,0,111,111,113,,,,,,,,,,,,,,,,,,,,,LDT,left,0.48371471429709345,0,,,left,0,0.48371471429709345,,,,,,,,,,,,,,,,,,,,,,1018,2019_Mar_06_1243,mf_amp_cond2,3.0.4,60.003964371266285,
crime,&&&&&,left,fairness.vice,,,,,,,,0,112,112,34,,,,,,,,,,,,,,,,,,,,,LDT,right,0.4837066961918026,0,,,right,0,0.4837066961918026,,,,,,,,,,,,,,,,,,,,,,1018,2019_Mar_06_1243,mf_amp_cond2,3.0.4,60.003964371266285,
further,&&&&&&&,left,neutral,,,,,,,,0,113,113,45,,,,,,,,,,,,,,,,,,,,,LDT,right,0.6670937610324472,0,,,right,0,0.6670937610324472,,,,,,,,,,,,,,,,,,,,,,1018,2019_Mar_06_1243,mf_amp_cond2,3.0.4,60.003964371266285,
even,&&&&,left,neutral,,,,,,,,0,114,114,182,,,,,,,,,,,,,,,,,,,,,LDT,right,0.4170299374964088,0,,,right,0,0.4170299374964088,,,,,,,,,,,,,,,,,,,,,,1018,2019_Mar_06_1243,mf_amp_cond2,3.0.4,60.003964371266285,
drug,&&&&,left,sanctity.vice,,,,,,,,0,115,115,104,,,,,,,,,,,,,,,,,,,,,LDT,right,0.3503461228683591,0,,,right,0,0.3503461228683591,,,,,,,,,,,,,,,,,,,,,,1018,2019_Mar_06_1243,mf_amp_cond2,3.0.4,60.003964371266285,
iptervention,&&&&&&&&&&&&,right,nonword,,,,,,,,0,116,116,123,,,,,,,,,,,,,,,,,,,,,LDT,left,0.5670696428278461,0,,,left,0,0.5670696428278461,,,,,,,,,,,,,,,,,,,,,,1018,2019_Mar_06_1243,mf_amp_cond2,3.0.4,60.003964371266285,
crilfully,&&&&&&&&&,right,nonword,,,,,,,,0,117,117,95,,,,,,,,,,,,,,,,,,,,,LDT,right,0.5169950429117307,1,,,right,1,0.5169950429117307,,,,,,,,,,,,,,,,,,,,,,1018,2019_Mar_06_1243,mf_amp_cond2,3.0.4,60.003964371266285,
improve,&&&&&&&,left,care.virtue,,,,,,,,0,118,118,17,,,,,,,,,,,,,,,,,,,,,LDT,left,1.3840658403933048,1,,,left,1,1.3840658403933048,,,,,,,,,,,,,,,,,,,,,,1018,2019_Mar_06_1243,mf_amp_cond2,3.0.4,60.003964371266285,
emports,&&&&&&&,right,nonword,,,,,,,,0,119,119,170,,,,,,,,,,,,,,,,,,,,,LDT,right,0.4336779594887048,1,,,right,1,0.4336779594887048,,,,,,,,,,,,,,,,,,,,,,1018,2019_Mar_06_1243,mf_amp_cond2,3.0.4,60.003964371266285,
saned,&&&&&,None,nonword,,,,,,,,0,120,120,159,,,,,,,,,,,,,,,,,,,,,LDT,right,0.38370470772497356,0,,,right,0,0.38370470772497356,,,,,,,,,,,,,,,,,,,,,,1018,2019_Mar_06_1243,mf_amp_cond2,3.0.4,60.003964371266285,
chonograph,&&&&&&&&&&,right,nonword,,,,,,,,0,121,121,15,,,,,,,,,,,,,,,,,,,,,LDT,left,0.6004558097338304,0,,,left,0,0.6004558097338304,,,,,,,,,,,,,,,,,,,,,,1018,2019_Mar_06_1243,mf_amp_cond2,3.0.4,60.003964371266285,
alar,&&&&,right,nonword,,,,,,,,0,122,122,141,,,,,,,,,,,,,,,,,,,,,LDT,left,0.683760064188391,0,,,left,0,0.683760064188391,,,,,,,,,,,,,,,,,,,,,,1018,2019_Mar_06_1243,mf_amp_cond2,3.0.4,60.003964371266285,
fair,&&&&,left,fairness.virtue,,,,,,,,0,123,123,160,,,,,,,,,,,,,,,,,,,,,LDT,right,0.5170550178736448,0,,,right,0,0.5170550178736448,,,,,,,,,,,,,,,,,,,,,,1018,2019_Mar_06_1243,mf_amp_cond2,3.0.4,60.003964371266285,
three,&&&&&,left,neutral,,,,,,,,0,124,124,20,,,,,,,,,,,,,,,,,,,,,LDT,left,0.8338029768783599,1,,,left,1,0.8338029768783599,,,,,,,,,,,,,,,,,,,,,,1018,2019_Mar_06_1243,mf_amp_cond2,3.0.4,60.003964371266285,
ecgagement,&&&&&&&&&&,None,nonword,,,,,,,,0,125,125,178,,,,,,,,,,,,,,,,,,,,,LDT,left,1.0005160412983969,0,,,left,0,1.0005160412983969,,,,,,,,,,,,,,,,,,,,,,1018,2019_Mar_06_1243,mf_amp_cond2,3.0.4,60.003964371266285,
either,&&&&&&,left,neutral,,,,,,,,0,126,126,142,,,,,,,,,,,,,,,,,,,,,LDT,right,0.38352831068914384,0,,,right,0,0.38352831068914384,,,,,,,,,,,,,,,,,,,,,,1018,2019_Mar_06_1243,mf_amp_cond2,3.0.4,60.003964371266285,
glacenta,&&&&&&&&,right,nonword,,,,,,,,0,127,127,82,,,,,,,,,,,,,,,,,,,,,LDT,left,0.5170405854005367,0,,,left,0,0.5170405854005367,,,,,,,,,,,,,,,,,,,,,,1018,2019_Mar_06_1243,mf_amp_cond2,3.0.4,60.003964371266285,
seem,&&&&,left,neutral,,,,,,,,0,128,128,106,,,,,,,,,,,,,,,,,,,,,LDT,right,0.3670156332664192,0,,,right,0,0.3670156332664192,,,,,,,,,,,,,,,,,,,,,,1018,2019_Mar_06_1243,mf_amp_cond2,3.0.4,60.003964371266285,
rebels,&&&&&&,left,authority.vice,,,,,,,,0,129,129,56,,,,,,,,,,,,,,,,,,,,,LDT,right,0.7004327818285674,0,,,right,0,0.7004327818285674,,,,,,,,,,,,,,,,,,,,,,1018,2019_Mar_06_1243,mf_amp_cond2,3.0.4,60.003964371266285,
anyhow,&&&&&&,left,neutral,,,,,,,,0,130,130,137,,,,,,,,,,,,,,,,,,,,,LDT,right,0.4003472775220871,0,,,right,0,0.4003472775220871,,,,,,,,,,,,,,,,,,,,,,1018,2019_Mar_06_1243,mf_amp_cond2,3.0.4,60.003964371266285,
noone,&&&&&,left,neutral,,,,,,,,0,131,131,4,,,,,,,,,,,,,,,,,,,,,LDT,right,0.40035946492571384,0,,,right,0,0.40035946492571384,,,,,,,,,,,,,,,,,,,,,,1018,2019_Mar_06_1243,mf_amp_cond2,3.0.4,60.003964371266285,
chreams,&&&&&&&,right,nonword,,,,,,,,0,132,132,109,,,,,,,,,,,,,,,,,,,,,LDT,left,0.6337310068774968,0,,,left,0,0.6337310068774968,,,,,,,,,,,,,,,,,,,,,,1018,2019_Mar_06_1243,mf_amp_cond2,3.0.4,60.003964371266285,
crinking,&&&&&&&&,right,nonword,,,,,,,,0,133,133,85,,,,,,,,,,,,,,,,,,,,,LDT,left,0.5837308143964037,0,,,left,0,0.5837308143964037,,,,,,,,,,,,,,,,,,,,,,1018,2019_Mar_06_1243,mf_amp_cond2,3.0.4,60.003964371266285,
idexpressible,&&&&&&&&&&&&&,right,nonword,,,,,,,,0,134,134,25,,,,,,,,,,,,,,,,,,,,,LDT,left,1.7673667593626305,0,,,left,0,1.7673667593626305,,,,,,,,,,,,,,,,,,,,,,1018,2019_Mar_06_1243,mf_amp_cond2,3.0.4,60.003964371266285,
chared,&&&&&&,right,nonword,,,,,,,,0,135,135,24,,,,,,,,,,,,,,,,,,,,,LDT,left,0.6004134743707255,0,,,left,0,0.6004134743707255,,,,,,,,,,,,,,,,,,,,,,1018,2019_Mar_06_1243,mf_amp_cond2,3.0.4,60.003964371266285,
atson,&&&&&,right,nonword,,,,,,,,0,136,136,98,,,,,,,,,,,,,,,,,,,,,LDT,left,0.7004497800953686,0,,,left,0,0.7004497800953686,,,,,,,,,,,,,,,,,,,,,,1018,2019_Mar_06_1243,mf_amp_cond2,3.0.4,60.003964371266285,
hereby,&&&&&&,left,neutral,,,,,,,,0,137,137,68,,,,,,,,,,,,,,,,,,,,,LDT,right,0.5337296597426757,0,,,right,0,0.5337296597426757,,,,,,,,,,,,,,,,,,,,,,1018,2019_Mar_06_1243,mf_amp_cond2,3.0.4,60.003964371266285,
there,&&&&&,left,neutral,,,,,,,,0,138,138,199,,,,,,,,,,,,,,,,,,,,,LDT,right,0.6170743253314868,0,,,right,0,0.6170743253314868,,,,,,,,,,,,,,,,,,,,,,1018,2019_Mar_06_1243,mf_amp_cond2,3.0.4,60.003964371266285,
embrace,&&&&&&&,left,authority.virtue,,,,,,,,0,139,139,14,,,,,,,,,,,,,,,,,,,,,LDT,right,0.5337068886728957,0,,,right,0,0.5337068886728957,,,,,,,,,,,,,,,,,,,,,,1018,2019_Mar_06_1243,mf_amp_cond2,3.0.4,60.003964371266285,
synchronazers,&&&&&&&&&&&&&,right,nonword,,,,,,,,0,140,140,103,,,,,,,,,,,,,,,,,,,,,LDT,left,0.7004436864517629,0,,,left,0,0.7004436864517629,,,,,,,,,,,,,,,,,,,,,,1018,2019_Mar_06_1243,mf_amp_cond2,3.0.4,60.003964371266285,
sowntrodden,&&&&&&&&&&&,right,nonword,,,,,,,,0,141,141,16,,,,,,,,,,,,,,,,,,,,,LDT,left,1.4172746480908245,0,,,left,0,1.4172746480908245,,,,,,,,,,,,,,,,,,,,,,1018,2019_Mar_06_1243,mf_amp_cond2,3.0.4,60.003964371266285,
cromiscuity,&&&&&&&&&&&,right,nonword,,,,,,,,0,142,142,67,,,,,,,,,,,,,,,,,,,,,LDT,left,0.7337881595594808,0,,,left,0,0.7337881595594808,,,,,,,,,,,,,,,,,,,,,,1018,2019_Mar_06_1243,mf_amp_cond2,3.0.4,60.003964371266285,
leact,&&&&&,right,nonword,,,,,,,,0,143,143,83,,,,,,,,,,,,,,,,,,,,,LDT,left,0.7337573702679947,0,,,left,0,0.7337573702679947,,,,,,,,,,,,,,,,,,,,,,1018,2019_Mar_06_1243,mf_amp_cond2,3.0.4,60.003964371266285,
everything,&&&&&&&&&&,left,neutral,,,,,,,,0,144,144,163,,,,,,,,,,,,,,,,,,,,,LDT,left,0.8004508063895628,1,,,left,1,0.8004508063895628,,,,,,,,,,,,,,,,,,,,,,1018,2019_Mar_06_1243,mf_amp_cond2,3.0.4,60.003964371266285,
neneficence,&&&&&&&&&&&,right,nonword,,,,,,,,0,145,145,181,,,,,,,,,,,,,,,,,,,,,LDT,left,2.234151537180878,0,,,left,0,2.234151537180878,,,,,,,,,,,,,,,,,,,,,,1018,2019_Mar_06_1243,mf_amp_cond2,3.0.4,60.003964371266285,
terrorist,&&&&&&&&&,left,loyalty.vice,,,,,,,,0,146,146,40,,,,,,,,,,,,,,,,,,,,,LDT,right,0.3836796913528815,0,,,right,0,0.3836796913528815,,,,,,,,,,,,,,,,,,,,,,1018,2019_Mar_06_1243,mf_amp_cond2,3.0.4,60.003964371266285,
increase,&&&&&&&&,left,care.virtue,,,,,,,,0,147,147,144,,,,,,,,,,,,,,,,,,,,,LDT,right,0.633754740236327,0,,,right,0,0.633754740236327,,,,,,,,,,,,,,,,,,,,,,1018,2019_Mar_06_1243,mf_amp_cond2,3.0.4,60.003964371266285,
precificity,&&&&&&&&&&&,right,nonword,,,,,,,,0,148,148,32,,,,,,,,,,,,,,,,,,,,,LDT,left,0.5837404360063374,0,,,left,0,0.5837404360063374,,,,,,,,,,,,,,,,,,,,,,1018,2019_Mar_06_1243,mf_amp_cond2,3.0.4,60.003964371266285,
amount,&&&&&&,left,neutral,,,,,,,,0,149,149,43,,,,,,,,,,,,,,,,,,,,,LDT,right,0.36699671077076346,0,,,right,0,0.36699671077076346,,,,,,,,,,,,,,,,,,,,,,1018,2019_Mar_06_1243,mf_amp_cond2,3.0.4,60.003964371266285,
interests,&&&&&&&&&,left,fairness.virtue,,,,,,,,0,150,150,65,,,,,,,,,,,,,,,,,,,,,LDT,right,0.5503953215666115,0,,,right,0,0.5503953215666115,,,,,,,,,,,,,,,,,,,,,,1018,2019_Mar_06_1243,mf_amp_cond2,3.0.4,60.003964371266285,
mih,&&&,right,nonword,,,,,,,,0,151,151,76,,,,,,,,,,,,,,,,,,,,,LDT,left,1.0004955149488524,0,,,left,0,1.0004955149488524,,,,,,,,,,,,,,,,,,,,,,1018,2019_Mar_06_1243,mf_amp_cond2,3.0.4,60.003964371266285,
lies,&&&&,left,fairness.vice,,,,,,,,0,152,152,81,,,,,,,,,,,,,,,,,,,,,LDT,left,2.1174607949797064,1,,,left,1,2.1174607949797064,,,,,,,,,,,,,,,,,,,,,,1018,2019_Mar_06_1243,mf_amp_cond2,3.0.4,60.003964371266285,
Cunday,&&&&&&,None,nonword,,,,,,,,0,153,153,122,,,,,,,,,,,,,,,,,,,,,LDT,left,0.6170740046072751,0,,,left,0,0.6170740046072751,,,,,,,,,,,,,,,,,,,,,,1018,2019_Mar_06_1243,mf_amp_cond2,3.0.4,60.003964371266285,
promised,&&&&&&&&,left,loyalty.virtue,,,,,,,,0,154,154,129,,,,,,,,,,,,,,,,,,,,,LDT,right,0.6669959409628063,0,,,right,0,0.6669959409628063,,,,,,,,,,,,,,,,,,,,,,1018,2019_Mar_06_1243,mf_amp_cond2,3.0.4,60.003964371266285,
praise,&&&&&&,left,authority.virtue,,,,,,,,0,155,155,148,,,,,,,,,,,,,,,,,,,,,LDT,left,1.1005254063056782,1,,,left,1,1.1005254063056782,,,,,,,,,,,,,,,,,,,,,,1018,2019_Mar_06_1243,mf_amp_cond2,3.0.4,60.003964371266285,
godlaness,&&&&&&&&&,right,nonword,,,,,,,,0,156,156,196,,,,,,,,,,,,,,,,,,,,,LDT,left,0.6670777249382809,0,,,left,0,0.6670777249382809,,,,,,,,,,,,,,,,,,,,,,1018,2019_Mar_06_1243,mf_amp_cond2,3.0.4,60.003964371266285,
torture,&&&&&&&,left,care.vice,,,,,,,,0,157,157,37,,,,,,,,,,,,,,,,,,,,,LDT,left,0.6337637203978375,1,,,left,1,0.6337637203978375,,,,,,,,,,,,,,,,,,,,,,1018,2019_Mar_06_1243,mf_amp_cond2,3.0.4,60.003964371266285,
wonderfujnoss,&&&&&&&&&&&&&,right,nonword,,,,,,,,0,158,158,19,,,,,,,,,,,,,,,,,,,,,LDT,left,0.7837745608994737,0,,,left,0,0.7837745608994737,,,,,,,,,,,,,,,,,,,,,,1018,2019_Mar_06_1243,mf_amp_cond2,3.0.4,60.003964371266285,
gandbrake,&&&&&&&&&,right,nonword,,,,,,,,0,159,159,62,,,,,,,,,,,,,,,,,,,,,LDT,left,0.667079328559339,0,,,left,0,0.667079328559339,,,,,,,,,,,,,,,,,,,,,,1018,2019_Mar_06_1243,mf_amp_cond2,3.0.4,60.003964371266285,
wherever,&&&&&&&&,left,neutral,,,,,,,,0,160,160,171,,,,,,,,,,,,,,,,,,,,,LDT,right,0.4670153766637668,0,,,right,0,0.4670153766637668,,,,,,,,,,,,,,,,,,,,,,1018,2019_Mar_06_1243,mf_amp_cond2,3.0.4,60.003964371266285,
help,&&&&,left,care.virtue,,,,,,,,0,161,161,49,,,,,,,,,,,,,,,,,,,,,LDT,right,0.38370566989760846,0,,,right,0,0.38370566989760846,,,,,,,,,,,,,,,,,,,,,,1018,2019_Mar_06_1243,mf_amp_cond2,3.0.4,60.003964371266285,
harassment,&&&&&&&&&&,left,sanctity.vice,,,,,,,,0,162,162,12,,,,,,,,,,,,,,,,,,,,,LDT,right,0.5837227964075282,0,,,right,0,0.5837227964075282,,,,,,,,,,,,,,,,,,,,,,1018,2019_Mar_06_1243,mf_amp_cond2,3.0.4,60.003964371266285,
baladroit,&&&&&&&&&,right,nonword,,,,,,,,0,163,163,133,,,,,,,,,,,,,,,,,,,,,LDT,left,0.5504168099723756,0,,,left,0,0.5504168099723756,,,,,,,,,,,,,,,,,,,,,,1018,2019_Mar_06_1243,mf_amp_cond2,3.0.4,60.003964371266285,
besides,&&&&&&&,left,neutral,,,,,,,,0,164,164,152,,,,,,,,,,,,,,,,,,,,,LDT,right,0.6004176437854767,0,,,right,0,0.6004176437854767,,,,,,,,,,,,,,,,,,,,,,1018,2019_Mar_06_1243,mf_amp_cond2,3.0.4,60.003964371266285,
focomotive,&&&&&&&&&&,right,nonword,,,,,,,,0,165,165,5,,,,,,,,,,,,,,,,,,,,,LDT,left,0.6670982511714101,0,,,left,0,0.6670982511714101,,,,,,,,,,,,,,,,,,,,,,1018,2019_Mar_06_1243,mf_amp_cond2,3.0.4,60.003964371266285,
whither,&&&&&&&,left,neutral,,,,,,,,0,166,166,93,,,,,,,,,,,,,,,,,,,,,LDT,right,0.4337174082174897,0,,,right,0,0.4337174082174897,,,,,,,,,,,,,,,,,,,,,,1018,2019_Mar_06_1243,mf_amp_cond2,3.0.4,60.003964371266285,
anything,&&&&&&&&,left,neutral,,,,,,,,0,167,167,18,,,,,,,,,,,,,,,,,,,,,LDT,right,0.3836896338034421,0,,,right,0,0.3836896338034421,,,,,,,,,,,,,,,,,,,,,,1018,2019_Mar_06_1243,mf_amp_cond2,3.0.4,60.003964371266285,
police,&&&&&&,left,authority.vice,,,,,,,,0,168,168,92,,,,,,,,,,,,,,,,,,,,,LDT,right,0.4670436001615599,0,,,right,0,0.4670436001615599,,,,,,,,,,,,,,,,,,,,,,1018,2019_Mar_06_1243,mf_amp_cond2,3.0.4,60.003964371266285,
fifty,&&&&&,left,neutral,,,,,,,,0,169,169,195,,,,,,,,,,,,,,,,,,,,,LDT,right,0.5838186921318993,0,,,right,0,0.5838186921318993,,,,,,,,,,,,,,,,,,,,,,1018,2019_Mar_06_1243,mf_amp_cond2,3.0.4,60.003964371266285,
uller,&&&&&,right,nonword,,,,,,,,0,170,170,60,,,,,,,,,,,,,,,,,,,,,LDT,left,1.6173446937464178,0,,,left,0,1.6173446937464178,,,,,,,,,,,,,,,,,,,,,,1018,2019_Mar_06_1243,mf_amp_cond2,3.0.4,60.003964371266285,
nomaric,&&&&&&&,None,nonword,,,,,,,,0,171,171,162,,,,,,,,,,,,,,,,,,,,,LDT,right,0.3170038948301226,0,,,right,0,0.3170038948301226,,,,,,,,,,,,,,,,,,,,,,1018,2019_Mar_06_1243,mf_amp_cond2,3.0.4,60.003964371266285,
itself,&&&&&&,left,neutral,,,,,,,,0,172,172,26,,,,,,,,,,,,,,,,,,,,,LDT,right,0.4503692790167406,0,,,right,0,0.4503692790167406,,,,,,,,,,,,,,,,,,,,,,1018,2019_Mar_06_1243,mf_amp_cond2,3.0.4,60.003964371266285,
least,&&&&&,left,neutral,,,,,,,,0,173,173,112,,,,,,,,,,,,,,,,,,,,,LDT,right,0.3503207858884707,0,,,right,0,0.3503207858884707,,,,,,,,,,,,,,,,,,,,,,1018,2019_Mar_06_1243,mf_amp_cond2,3.0.4,60.003964371266285,
grovelire,&&&&&&&&&,right,nonword,,,,,,,,0,174,174,21,,,,,,,,,,,,,,,,,,,,,LDT,left,0.5503783232998103,0,,,left,0,0.5503783232998103,,,,,,,,,,,,,,,,,,,,,,1018,2019_Mar_06_1243,mf_amp_cond2,3.0.4,60.003964371266285,
latter,&&&&&&,left,neutral,,,,,,,,0,175,175,31,,,,,,,,,,,,,,,,,,,,,LDT,right,0.38369476539082825,0,,,right,0,0.38369476539082825,,,,,,,,,,,,,,,,,,,,,,1018,2019_Mar_06_1243,mf_amp_cond2,3.0.4,60.003964371266285,
feleological,&&&&&&&&&&&&,right,nonword,,,,,,,,0,176,176,64,,,,,,,,,,,,,,,,,,,,,LDT,left,0.6170634207082912,0,,,left,0,0.6170634207082912,,,,,,,,,,,,,,,,,,,,,,1018,2019_Mar_06_1243,mf_amp_cond2,3.0.4,60.003964371266285,
failure,&&&&&&&,left,loyalty.vice,,,,,,,,0,177,177,194,,,,,,,,,,,,,,,,,,,,,LDT,right,0.6336068875389174,0,,,right,0,0.6336068875389174,,,,,,,,,,,,,,,,,,,,,,1018,2019_Mar_06_1243,mf_amp_cond2,3.0.4,60.003964371266285,
with,&&&&,left,neutral,,,,,,,,0,178,178,197,,,,,,,,,,,,,,,,,,,,,LDT,right,0.3670191611163318,0,,,right,0,0.3670191611163318,,,,,,,,,,,,,,,,,,,,,,1018,2019_Mar_06_1243,mf_amp_cond2,3.0.4,60.003964371266285,
sonvoy,&&&&&&,None,nonword,,,,,,,,0,179,179,2,,,,,,,,,,,,,,,,,,,,,LDT,left,0.5337213210295886,0,,,left,0,0.5337213210295886,,,,,,,,,,,,,,,,,,,,,,1018,2019_Mar_06_1243,mf_amp_cond2,3.0.4,60.003964371266285,
forty,&&&&&,left,neutral,,,,,,,,0,180,180,77,,,,,,,,,,,,,,,,,,,,,LDT,right,0.6170820225961506,0,,,right,0,0.6170820225961506,,,,,,,,,,,,,,,,,,,,,,1018,2019_Mar_06_1243,mf_amp_cond2,3.0.4,60.003964371266285,
hand,&&&&,left,sanctity.virtue,,,,,,,,0,181,181,128,,,,,,,,,,,,,,,,,,,,,LDT,right,1.1005286135477945,0,,,right,0,1.1005286135477945,,,,,,,,,,,,,,,,,,,,,,1018,2019_Mar_06_1243,mf_amp_cond2,3.0.4,60.003964371266285,
critics,&&&&&&&,left,loyalty.vice,,,,,,,,0,182,182,145,,,,,,,,,,,,,,,,,,,,,LDT,right,0.5838722527259961,0,,,right,0,0.5838722527259961,,,,,,,,,,,,,,,,,,,,,,1018,2019_Mar_06_1243,mf_amp_cond2,3.0.4,60.003964371266285,
towards,&&&&&&&,left,neutral,,,,,,,,0,183,183,53,,,,,,,,,,,,,,,,,,,,,LDT,right,0.41702063649427146,0,,,right,0,0.41702063649427146,,,,,,,,,,,,,,,,,,,,,,1018,2019_Mar_06_1243,mf_amp_cond2,3.0.4,60.003964371266285,
juck,&&&&,right,nonword,,,,,,,,0,184,184,149,,,,,,,,,,,,,,,,,,,,,LDT,left,0.6004150781081989,0,,,left,0,0.6004150781081989,,,,,,,,,,,,,,,,,,,,,,1018,2019_Mar_06_1243,mf_amp_cond2,3.0.4,60.003964371266285,
officers,&&&&&&&&,left,authority.vice,,,,,,,,0,185,185,174,,,,,,,,,,,,,,,,,,,,,LDT,right,0.6837546118767932,0,,,right,0,0.6837546118767932,,,,,,,,,,,,,,,,,,,,,,1018,2019_Mar_06_1243,mf_amp_cond2,3.0.4,60.003964371266285,
greaks,&&&&&&,right,nonword,,,,,,,,0,186,186,168,,,,,,,,,,,,,,,,,,,,,LDT,left,0.5835762264905497,0,,,left,0,0.5835762264905497,,,,,,,,,,,,,,,,,,,,,,1018,2019_Mar_06_1243,mf_amp_cond2,3.0.4,60.003964371266285,
fifteen,&&&&&&&,left,neutral,,,,,,,,0,187,187,131,,,,,,,,,,,,,,,,,,,,,LDT,right,0.7671127478824928,0,,,right,0,0.7671127478824928,,,,,,,,,,,,,,,,,,,,,,1018,2019_Mar_06_1243,mf_amp_cond2,3.0.4,60.003964371266285,
noped,&&&&&,right,nonword,,,,,,,,0,188,188,87,,,,,,,,,,,,,,,,,,,,,LDT,right,0.3503002596553415,1,,,right,1,0.3503002596553415,,,,,,,,,,,,,,,,,,,,,,1018,2019_Mar_06_1243,mf_amp_cond2,3.0.4,60.003964371266285,
agreement,&&&&&&&&&,left,fairness.virtue,,,,,,,,0,189,189,107,,,,,,,,,,,,,,,,,,,,,LDT,right,0.9338219634955749,0,,,right,0,0.9338219634955749,,,,,,,,,,,,,,,,,,,,,,1018,2019_Mar_06_1243,mf_amp_cond2,3.0.4,60.003964371266285,
lempestuous,&&&&&&&&&&&,right,nonword,,,,,,,,0,190,190,140,,,,,,,,,,,,,,,,,,,,,LDT,left,0.6337476844200864,0,,,left,0,0.6337476844200864,,,,,,,,,,,,,,,,,,,,,,1018,2019_Mar_06_1243,mf_amp_cond2,3.0.4,60.003964371266285,
honored,&&&&&&&,left,authority.virtue,,,,,,,,0,191,191,73,,,,,,,,,,,,,,,,,,,,,LDT,right,0.4836957915686071,0,,,right,0,0.4836957915686071,,,,,,,,,,,,,,,,,,,,,,1018,2019_Mar_06_1243,mf_amp_cond2,3.0.4,60.003964371266285,
hence,&&&&&,left,neutral,,,,,,,,0,192,192,165,,,,,,,,,,,,,,,,,,,,,LDT,right,0.5337161894422024,0,,,right,0,0.5337161894422024,,,,,,,,,,,,,,,,,,,,,,1018,2019_Mar_06_1243,mf_amp_cond2,3.0.4,60.003964371266285,
sliptery,&&&&&&&&,right,nonword,,,,,,,,0,193,193,42,,,,,,,,,,,,,,,,,,,,,LDT,left,0.7671031261561438,0,,,left,0,0.7671031261561438,,,,,,,,,,,,,,,,,,,,,,1018,2019_Mar_06_1243,mf_amp_cond2,3.0.4,60.003964371266285,
coom,&&&&,right,nonword,,,,,,,,0,194,194,115,,,,,,,,,,,,,,,,,,,,,LDT,left,0.600395193323493,0,,,left,0,0.600395193323493,,,,,,,,,,,,,,,,,,,,,,1018,2019_Mar_06_1243,mf_amp_cond2,3.0.4,60.003964371266285,
brotesque,&&&&&&&&&,right,nonword,,,,,,,,0,195,195,10,,,,,,,,,,,,,,,,,,,,,LDT,left,0.5670706048840657,0,,,left,0,0.5670706048840657,,,,,,,,,,,,,,,,,,,,,,1018,2019_Mar_06_1243,mf_amp_cond2,3.0.4,60.003964371266285,
front,&&&&&,left,neutral,,,,,,,,0,196,196,91,,,,,,,,,,,,,,,,,,,,,LDT,right,0.5003688299329951,0,,,right,0,0.5003688299329951,,,,,,,,,,,,,,,,,,,,,,1018,2019_Mar_06_1243,mf_amp_cond2,3.0.4,60.003964371266285,
health,&&&&&&,left,care.virtue,,,,,,,,0,197,197,46,,,,,,,,,,,,,,,,,,,,,LDT,right,0.41702448518481106,0,,,right,0,0.41702448518481106,,,,,,,,,,,,,,,,,,,,,,1018,2019_Mar_06_1243,mf_amp_cond2,3.0.4,60.003964371266285,
tove,&&&&,right,nonword,,,,,,,,0,198,198,190,,,,,,,,,,,,,,,,,,,,,LDT,left,0.7671031261561438,0,,,left,0,0.7671031261561438,,,,,,,,,,,,,,,,,,,,,,1018,2019_Mar_06_1243,mf_amp_cond2,3.0.4,60.003964371266285,
sexual,&&&&&&,left,sanctity.vice,,,,,,,,0,199,199,58,,,,,,,,,,,,,,,,,,,,,LDT,right,0.4003267512889579,0,,,right,0,0.4003267512889579,,,,,,,,,,,,,,,,,,,,,,1018,2019_Mar_06_1243,mf_amp_cond2,3.0.4,60.003964371266285,
,,,,,,,,,,,,,,,,,,,,,,,,,,,,,,,,,,,,,,,,,,,,2,12.955,,,,,,,,,,,,,,,,,,,,1018,2019_Mar_06_1243,mf_amp_cond2,3.0.4,60.003964371266285,
,,,,,,,,,,,,,,,,,,,,,,,,,,,,,,,,,,,,,,,,,,,,,,right,1.5173055016202852,,,,,,,,,,,,,,,,,,1018,2019_Mar_06_1243,mf_amp_cond2,3.0.4,60.003964371266285,
banana,&&&&&&,,,kacket,,,,,,,,,,,0,0,0,1,,,,,,,,,,,,,,,,,AMP_prac,right,1.0671902342000976,,,,,,,,,,,right,1.0671902342000976,,,,,,,,,,,,,,,,1018,2019_Mar_06_1243,mf_amp_cond2,3.0.4,60.003964371266285,
keyboard,&&&&,,,senk,,,,,,,,,,,0,1,1,2,,,,,,,,,,,,,,,,,AMP_prac,right,0.2836635911371559,,,,,,,,,,,right,0.2836635911371559,,,,,,,,,,,,,,,,1018,2019_Mar_06_1243,mf_amp_cond2,3.0.4,60.003964371266285,
scarf,&&&&&&&&,,,bisebell,,,,,,,,,,,0,2,2,3,,,,,,,,,,,,,,,,,AMP_prac,left,0.5170790719566867,,,,,,,,,,,left,0.5170790719566867,,,,,,,,,,,,,,,,1018,2019_Mar_06_1243,mf_amp_cond2,3.0.4,60.003964371266285,
car,&&&&&&&&,,,cemtuper,,,,,,,,,,,0,3,3,0,,,,,,,,,,,,,,,,,AMP_prac,right,0.6671091556781903,,,,,,,,,,,right,0.6671091556781903,,,,,,,,,,,,,,,,1018,2019_Mar_06_1243,mf_amp_cond2,3.0.4,60.003964371266285,
,,,,,,,,,,,,,,,,,,,,,,,,,,,,,,,,,,,,,,,,,,,,,,,,,,right,1.1005138602340594,,,,,,,,,,,,,,1018,2019_Mar_06_1243,mf_amp_cond2,3.0.4,60.003964371266285,
fighters,&&&&&&&,right,authority.vice,hatigue,,,,,,,,,,,,,,,0,0,0,241,,,,,,,,,,,,,AMP,right,0.7004286125302315,1,,,,,,,,,,,,,,right,1,0.7004286125302315,,,,,,,,,,,1018,2019_Mar_06_1243,mf_amp_cond2,3.0.4,60.003964371266285,
fear,&&&&&&&&&&&,right,sanctity.vice,nomparisons,,,,,,,,,,,,,,,0,1,1,197,,,,,,,,,,,,,AMP,left,0.6170746460556984,0,,,,,,,,,,,,,,left,0,0.6170746460556984,,,,,,,,,,,1018,2019_Mar_06_1243,mf_amp_cond2,3.0.4,60.003964371266285,
care,&&&&&&&,left,care.virtue,Daptist,,,,,,,,,,,,,,,0,2,2,261,,,,,,,,,,,,,AMP,left,0.3003273284994066,1,,,,,,,,,,,,,,left,1,0.3003273284994066,,,,,,,,,,,1018,2019_Mar_06_1243,mf_amp_cond2,3.0.4,60.003964371266285,
ban,&&&&&&,right,loyalty.vice,bycled,,,,,,,,,,,,,,,0,3,3,146,,,,,,,,,,,,,AMP,left,0.30030968878418207,0,,,,,,,,,,,,,,left,0,0.30030968878418207,,,,,,,,,,,1018,2019_Mar_06_1243,mf_amp_cond2,3.0.4,60.003964371266285,
corruption,&&&&&&&&&&,right,sanctity.vice,clattening,,,,,,,,,,,,,,,0,4,4,80,,,,,,,,,,,,,AMP,left,0.3336278627393767,0,,,,,,,,,,,,,,left,0,0.3336278627393767,,,,,,,,,,,1018,2019_Mar_06_1243,mf_amp_cond2,3.0.4,60.003964371266285,
laming,&&&&&&&&&&,None,nonword,reelectiob,,,,,,,,,,,,,,,0,5,5,254,,,,,,,,,,,,,AMP,left,1.183892522356473,0,,,,,,,,,,,,,,left,0,1.183892522356473,,,,,,,,,,,1018,2019_Mar_06_1243,mf_amp_cond2,3.0.4,60.003964371266285,
stindig,&&&&&&&&&,None,nonword,refuejing,,,,,,,,,,,,,,,0,6,6,111,,,,,,,,,,,,,AMP,left,0.3003314979141578,0,,,,,,,,,,,,,,left,0,0.3003314979141578,,,,,,,,,,,1018,2019_Mar_06_1243,mf_amp_cond2,3.0.4,60.003964371266285,
fear,&&&&&&&&&&,right,sanctity.vice,frojecting,,,,,,,,,,,,,,,0,7,7,9,,,,,,,,,,,,,AMP,left,1.3839481354225427,0,,,,,,,,,,,,,,left,0,1.3839481354225427,,,,,,,,,,,1018,2019_Mar_06_1243,mf_amp_cond2,3.0.4,60.003964371266285,
men,&&&&&&&&&&,right,loyalty.vice,frojecting,,,,,,,,,,,,,,,0,8,8,285,,,,,,,,,,,,,AMP,left,0.433830623049289,0,,,,,,,,,,,,,,left,0,0.433830623049289,,,,,,,,,,,1018,2019_Mar_06_1243,mf_amp_cond2,3.0.4,60.003964371266285,
great,&&&&&,left,loyalty.virtue,infet,,,,,,,,,,,,,,,0,9,9,213,,,,,,,,,,,,,AMP,left,0.7671185208018869,1,,,,,,,,,,,,,,left,1,0.7671185208018869,,,,,,,,,,,1018,2019_Mar_06_1243,mf_amp_cond2,3.0.4,60.003964371266285,
commitment,&&&&&&&&&,left,sanctity.virtue,Lacedonia,,,,,,,,,,,,,,,0,10,10,99,,,,,,,,,,,,,AMP,right,1.2338879038579762,0,,,,,,,,,,,,,,right,0,1.2338879038579762,,,,,,,,,,,1018,2019_Mar_06_1243,mf_amp_cond2,3.0.4,60.003964371266285,
promises,&&&&&,left,fairness.virtue,mecan,,,,,,,,,,,,,,,0,11,11,276,,,,,,,,,,,,,AMP,right,1.150544521282427,0,,,,,,,,,,,,,,right,0,1.150544521282427,,,,,,,,,,,1018,2019_Mar_06_1243,mf_amp_cond2,3.0.4,60.003964371266285,
faith,&&&&&&&&&,left,sanctity.virtue,Phintoism,,,,,,,,,,,,,,,0,12,12,159,,,,,,,,,,,,,AMP,left,0.5170389817794785,1,,,,,,,,,,,,,,left,1,0.5170389817794785,,,,,,,,,,,1018,2019_Mar_06_1243,mf_amp_cond2,3.0.4,60.003964371266285,
promises,&&&&&&&&,left,fairness.virtue,emassion,,,,,,,,,,,,,,,0,13,13,174,,,,,,,,,,,,,AMP,left,2.23414993355982,1,,,,,,,,,,,,,,left,1,2.23414993355982,,,,,,,,,,,1018,2019_Mar_06_1243,mf_amp_cond2,3.0.4,60.003964371266285,
men,&&&&&&&&&&&,right,loyalty.vice,ronviolence,,,,,,,,,,,,,,,0,14,14,161,,,,,,,,,,,,,AMP,left,0.9671603428432718,0,,,,,,,,,,,,,,left,0,0.9671603428432718,,,,,,,,,,,1018,2019_Mar_06_1243,mf_amp_cond2,3.0.4,60.003964371266285,
intelligence,&&&&&&&&,left,loyalty.virtue,gowlands,,,,,,,,,,,,,,,0,15,15,160,,,,,,,,,,,,,AMP,right,0.6170800983672962,0,,,,,,,,,,,,,,right,0,0.6170800983672962,,,,,,,,,,,1018,2019_Mar_06_1243,mf_amp_cond2,3.0.4,60.003964371266285,
violations,&&&&&&,right,sanctity.vice,gazily,,,,,,,,,,,,,,,0,16,16,287,,,,,,,,,,,,,AMP,right,0.7337596153374761,1,,,,,,,,,,,,,,right,1,0.7337596153374761,,,,,,,,,,,1018,2019_Mar_06_1243,mf_amp_cond2,3.0.4,60.003964371266285,
penalty,&&&&&&&&,right,authority.vice,ugeasily,,,,,,,,,,,,,,,0,17,17,59,,,,,,,,,,,,,AMP,left,0.5170502071268857,0,,,,,,,,,,,,,,left,0,0.5170502071268857,,,,,,,,,,,1018,2019_Mar_06_1243,mf_amp_cond2,3.0.4,60.003964371266285,
frocessing,&&&&&&&&,None,nonword,fontacts,,,,,,,,,,,,,,,0,18,18,113,,,,,,,,,,,,,AMP,right,1.08389277884271,0,,,,,,,,,,,,,,right,0,1.08389277884271,,,,,,,,,,,1018,2019_Mar_06_1243,mf_amp_cond2,3.0.4,60.003964371266285,
threatened,&&&&&&,right,fairness.vice,fostet,,,,,,,,,,,,,,,0,19,19,31,,,,,,,,,,,,,AMP,right,0.517098636017181,1,,,,,,,,,,,,,,right,1,0.517098636017181,,,,,,,,,,,1018,2019_Mar_06_1243,mf_amp_cond2,3.0.4,60.003964371266285,
compassion,&&&&&&,left,care.virtue,strofe,,,,,,,,,,,,,,,0,20,20,119,,,,,,,,,,,,,AMP,left,1.117197803221643,1,,,,,,,,,,,,,,left,1,1.117197803221643,,,,,,,,,,,1018,2019_Mar_06_1243,mf_amp_cond2,3.0.4,60.003964371266285,
suicide,&&&&&&&&,right,care.vice,framatic,,,,,,,,,,,,,,,0,21,21,211,,,,,,,,,,,,,AMP,left,0.6837475560605526,0,,,,,,,,,,,,,,left,0,0.6837475560605526,,,,,,,,,,,1018,2019_Mar_06_1243,mf_amp_cond2,3.0.4,60.003964371266285,
commitment,&&&&&&&&,left,sanctity.virtue,ugeasily,,,,,,,,,,,,,,,0,22,22,296,,,,,,,,,,,,,AMP,left,0.7004347061738372,1,,,,,,,,,,,,,,left,1,0.7004347061738372,,,,,,,,,,,1018,2019_Mar_06_1243,mf_amp_cond2,3.0.4,60.003964371266285,
blamed,&&&&&&,right,loyalty.vice,tislay,,,,,,,,,,,,,,,0,23,23,300,,,,,,,,,,,,,AMP,left,1.1338788595749065,0,,,,,,,,,,,,,,left,0,1.1338788595749065,,,,,,,,,,,1018,2019_Mar_06_1243,mf_amp_cond2,3.0.4,60.003964371266285,
pleasant,&&&&&&&&&,None,control,taxpayung,,,,,,,,,,,,,,,0,24,24,67,,,,,,,,,,,,,AMP,left,0.800445354077965,0,,,,,,,,,,,,,,left,0,0.800445354077965,,,,,,,,,,,1018,2019_Mar_06_1243,mf_amp_cond2,3.0.4,60.003964371266285,
died,&&&&&&&&,right,care.vice,framatic,,,,,,,,,,,,,,,0,25,25,76,,,,,,,,,,,,,AMP,left,0.5003778102109209,0,,,,,,,,,,,,,,left,0,0.5003778102109209,,,,,,,,,,,1018,2019_Mar_06_1243,mf_amp_cond2,3.0.4,60.003964371266285,
died,&&&&&&&&&&&,right,care.vice,shoirmaster,,,,,,,,,,,,,,,0,26,26,224,,,,,,,,,,,,,AMP,left,1.2338834137190133,0,,,,,,,,,,,,,,left,0,1.2338834137190133,,,,,,,,,,,1018,2019_Mar_06_1243,mf_amp_cond2,3.0.4,60.003964371266285,
strong,&&&&&&&&&,left,loyalty.virtue,faspberry,,,,,,,,,,,,,,,0,27,27,218,,,,,,,,,,,,,AMP,left,0.36699863499961793,1,,,,,,,,,,,,,,left,1,0.36699863499961793,,,,,,,,,,,1018,2019_Mar_06_1243,mf_amp_cond2,3.0.4,60.003964371266285,
prison,&&&&&&&&,right,fairness.vice,divility,,,,,,,,,,,,,,,0,28,28,102,,,,,,,,,,,,,AMP,right,1.0838959862012416,1,,,,,,,,,,,,,,right,1,1.0838959862012416,,,,,,,,,,,1018,2019_Mar_06_1243,mf_amp_cond2,3.0.4,60.003964371266285,
blamed,&&&&&&&&&&,right,loyalty.vice,honstables,,,,,,,,,,,,,,,0,29,29,51,,,,,,,,,,,,,AMP,left,0.8504615826532245,0,,,,,,,,,,,,,,left,0,0.8504615826532245,,,,,,,,,,,1018,2019_Mar_06_1243,mf_amp_cond2,3.0.4,60.003964371266285,
powerful,&&&&&,left,authority.virtue,infet,,,,,,,,,,,,,,,0,30,30,23,,,,,,,,,,,,,AMP,left,0.38368001219350845,1,,,,,,,,,,,,,,left,1,0.38368001219350845,,,,,,,,,,,1018,2019_Mar_06_1243,mf_amp_cond2,3.0.4,60.003964371266285,
injured,&&&&&&&&,right,care.vice,emassion,,,,,,,,,,,,,,,0,31,31,90,,,,,,,,,,,,,AMP,right,0.6337473636958748,1,,,,,,,,,,,,,,right,1,0.6337473636958748,,,,,,,,,,,1018,2019_Mar_06_1243,mf_amp_cond2,3.0.4,60.003964371266285,
dramens,&&&&&&&&,None,nonword,clamorek,,,,,,,,,,,,,,,0,32,32,60,,,,,,,,,,,,,AMP,right,0.8504545268369839,0,,,,,,,,,,,,,,right,0,0.8504545268369839,,,,,,,,,,,1018,2019_Mar_06_1243,mf_amp_cond2,3.0.4,60.003964371266285,
unpleasant,&&&&&&&&&&&,None,control,blunderints,,,,,,,,,,,,,,,0,33,33,257,,,,,,,,,,,,,AMP,right,2.9009980218252167,0,,,,,,,,,,,,,,right,0,2.9009980218252167,,,,,,,,,,,1018,2019_Mar_06_1243,mf_amp_cond2,3.0.4,60.003964371266285,
restore,&&&&&&&,left,care.virtue,chadows,,,,,,,,,,,,,,,0,34,34,25,,,,,,,,,,,,,AMP,right,0.6837578192353249,0,,,,,,,,,,,,,,right,0,0.6837578192353249,,,,,,,,,,,1018,2019_Mar_06_1243,mf_amp_cond2,3.0.4,60.003964371266285,
injured,&&&&&,right,care.vice,aubos,,,,,,,,,,,,,,,0,35,35,259,,,,,,,,,,,,,AMP,right,0.4170257680816576,1,,,,,,,,,,,,,,right,1,0.4170257680816576,,,,,,,,,,,1018,2019_Mar_06_1243,mf_amp_cond2,3.0.4,60.003964371266285,
betrayal,&&&&&&&&&,right,loyalty.vice,pescinded,,,,,,,,,,,,,,,0,36,36,256,,,,,,,,,,,,,AMP,right,0.933827736414969,1,,,,,,,,,,,,,,right,1,0.933827736414969,,,,,,,,,,,1018,2019_Mar_06_1243,mf_amp_cond2,3.0.4,60.003964371266285,
respect,&&&&&,left,sanctity.virtue,aubos,,,,,,,,,,,,,,,0,37,37,82,,,,,,,,,,,,,AMP,right,0.35031950287520885,0,,,,,,,,,,,,,,right,0,0.35031950287520885,,,,,,,,,,,1018,2019_Mar_06_1243,mf_amp_cond2,3.0.4,60.003964371266285,
hefurbished,&&&&&&&&,None,nonword,ebbitter,,,,,,,,,,,,,,,0,38,38,271,,,,,,,,,,,,,AMP,left,0.6838363959686831,0,,,,,,,,,,,,,,left,0,0.6838363959686831,,,,,,,,,,,1018,2019_Mar_06_1243,mf_amp_cond2,3.0.4,60.003964371266285,
war,&&&&&&&&&,right,sanctity.vice,metibolic,,,,,,,,,,,,,,,0,39,39,228,,,,,,,,,,,,,AMP,right,1.3006044321227819,1,,,,,,,,,,,,,,right,1,1.3006044321227819,,,,,,,,,,,1018,2019_Mar_06_1243,mf_amp_cond2,3.0.4,60.003964371266285,
shot,&&&&&,right,care.vice,mecan,,,,,,,,,,,,,,,0,40,40,27,,,,,,,,,,,,,AMP,right,0.3169814443681389,1,,,,,,,,,,,,,,right,1,0.3169814443681389,,,,,,,,,,,1018,2019_Mar_06_1243,mf_amp_cond2,3.0.4,60.003964371266285,
freedom,&&&&&&&&&,left,sanctity.virtue,discovars,,,,,,,,,,,,,,,0,41,41,214,,,,,,,,,,,,,AMP,right,0.8504856367362663,0,,,,,,,,,,,,,,right,0,0.8504856367362663,,,,,,,,,,,1018,2019_Mar_06_1243,mf_amp_cond2,3.0.4,60.003964371266285,
fraud,&&&&&&&,right,fairness.vice,baklara,,,,,,,,,,,,,,,0,42,42,62,,,,,,,,,,,,,AMP,right,0.6337547403527424,1,,,,,,,,,,,,,,right,1,0.6337547403527424,,,,,,,,,,,1018,2019_Mar_06_1243,mf_amp_cond2,3.0.4,60.003964371266285,
trust,&&&&&&&&&,left,authority.virtue,faspberry,,,,,,,,,,,,,,,0,43,43,286,,,,,,,,,,,,,AMP,right,0.4503631852567196,0,,,,,,,,,,,,,,right,0,0.4503631852567196,,,,,,,,,,,1018,2019_Mar_06_1243,mf_amp_cond2,3.0.4,60.003964371266285,
freedom,&&&&&&&&&,left,sanctity.virtue,gaultless,,,,,,,,,,,,,,,0,44,44,311,,,,,,,,,,,,,AMP,left,0.4170017138822004,1,,,,,,,,,,,,,,left,1,0.4170017138822004,,,,,,,,,,,1018,2019_Mar_06_1243,mf_amp_cond2,3.0.4,60.003964371266285,
betrayal,&&&&&&&,right,loyalty.vice,hatigue,,,,,,,,,,,,,,,0,45,45,153,,,,,,,,,,,,,AMP,left,0.5003284190315753,0,,,,,,,,,,,,,,left,0,0.5003284190315753,,,,,,,,,,,1018,2019_Mar_06_1243,mf_amp_cond2,3.0.4,60.003964371266285,
faith,&&&&&&&&&,left,sanctity.virtue,pescinded,,,,,,,,,,,,,,,0,46,46,219,,,,,,,,,,,,,AMP,right,0.9838346641045064,0,,,,,,,,,,,,,,right,0,0.9838346641045064,,,,,,,,,,,1018,2019_Mar_06_1243,mf_amp_cond2,3.0.4,60.003964371266285,
racist,&&&&&&&,right,sanctity.vice,chadows,,,,,,,,,,,,,,,0,47,47,84,,,,,,,,,,,,,AMP,right,0.3836758426623419,1,,,,,,,,,,,,,,right,1,0.3836758426623419,,,,,,,,,,,1018,2019_Mar_06_1243,mf_amp_cond2,3.0.4,60.003964371266285,
violations,&&&&&&&&&&&,right,sanctity.vice,presentkess,,,,,,,,,,,,,,,0,48,48,72,,,,,,,,,,,,,AMP,left,1.1838662230875343,0,,,,,,,,,,,,,,left,0,1.1838662230875343,,,,,,,,,,,1018,2019_Mar_06_1243,mf_amp_cond2,3.0.4,60.003964371266285,
war,&&&&,right,sanctity.vice,yane,,,,,,,,,,,,,,,0,49,49,314,,,,,,,,,,,,,AMP,left,1.500636632554233,0,,,,,,,,,,,,,,left,0,1.500636632554233,,,,,,,,,,,1018,2019_Mar_06_1243,mf_amp_cond2,3.0.4,60.003964371266285,
friends,&&&&&&&&,left,loyalty.virtue,ugeasily,,,,,,,,,,,,,,,0,50,50,151,,,,,,,,,,,,,AMP,left,0.3503031461732462,1,,,,,,,,,,,,,,left,1,0.3503031461732462,,,,,,,,,,,1018,2019_Mar_06_1243,mf_amp_cond2,3.0.4,60.003964371266285,
corruption,&&&&&&&&,right,sanctity.vice,ebbitter,,,,,,,,,,,,,,,0,51,51,137,,,,,,,,,,,,,AMP,left,0.3503518959041685,0,,,,,,,,,,,,,,left,0,0.3503518959041685,,,,,,,,,,,1018,2019_Mar_06_1243,mf_amp_cond2,3.0.4,60.003964371266285,
accused,&&&&&&&,right,fairness.vice,troubla,,,,,,,,,,,,,,,0,52,52,258,,,,,,,,,,,,,AMP,left,0.41700395895168185,0,,,,,,,,,,,,,,left,0,0.41700395895168185,,,,,,,,,,,1018,2019_Mar_06_1243,mf_amp_cond2,3.0.4,60.003964371266285,
commitment,&&&&&&&&&&,left,sanctity.virtue,lorthwhile,,,,,,,,,,,,,,,0,53,53,56,,,,,,,,,,,,,AMP,right,0.7671101820887998,0,,,,,,,,,,,,,,right,0,0.7671101820887998,,,,,,,,,,,1018,2019_Mar_06_1243,mf_amp_cond2,3.0.4,60.003964371266285,
gun,&&&&&&&&&,right,authority.vice,Phintoism,,,,,,,,,,,,,,,0,54,54,278,,,,,,,,,,,,,AMP,left,0.6504082146566361,0,,,,,,,,,,,,,,left,0,0.6504082146566361,,,,,,,,,,,1018,2019_Mar_06_1243,mf_amp_cond2,3.0.4,60.003964371266285,
energy,&&&&&&&&,left,sanctity.virtue,epigrach,,,,,,,,,,,,,,,0,55,55,138,,,,,,,,,,,,,AMP,right,0.6503915371140465,0,,,,,,,,,,,,,,right,0,0.6503915371140465,,,,,,,,,,,1018,2019_Mar_06_1243,mf_amp_cond2,3.0.4,60.003964371266285,
growth,&&&&&&&,left,care.virtue,vurtain,,,,,,,,,,,,,,,0,56,56,29,,,,,,,,,,,,,AMP,right,0.6837565363384783,0,,,,,,,,,,,,,,right,0,0.6837565363384783,,,,,,,,,,,1018,2019_Mar_06_1243,mf_amp_cond2,3.0.4,60.003964371266285,
suicide,&&&&&&&&&,right,care.vice,Lacedonia,,,,,,,,,,,,,,,0,57,57,247,,,,,,,,,,,,,AMP,right,0.3667972218245268,1,,,,,,,,,,,,,,right,1,0.3667972218245268,,,,,,,,,,,1018,2019_Mar_06_1243,mf_amp_cond2,3.0.4,60.003964371266285,
hope,&&&&,left,loyalty.virtue,wump,,,,,,,,,,,,,,,0,58,58,187,,,,,,,,,,,,,AMP,left,0.48369033937342465,1,,,,,,,,,,,,,,left,1,0.48369033937342465,,,,,,,,,,,1018,2019_Mar_06_1243,mf_amp_cond2,3.0.4,60.003964371266285,
perfect,&&&&&&&,left,sanctity.virtue,pharing,,,,,,,,,,,,,,,0,59,59,124,,,,,,,,,,,,,AMP,right,0.7670915802009404,0,,,,,,,,,,,,,,right,0,0.7670915802009404,,,,,,,,,,,1018,2019_Mar_06_1243,mf_amp_cond2,3.0.4,60.003964371266285,
black,&&&&&&&&,right,loyalty.vice,ebbitter,,,,,,,,,,,,,,,0,60,60,231,,,,,,,,,,,,,AMP,left,0.483783348579891,0,,,,,,,,,,,,,,left,0,0.483783348579891,,,,,,,,,,,1018,2019_Mar_06_1243,mf_amp_cond2,3.0.4,60.003964371266285,
energy,&&&&&&&,left,sanctity.virtue,vurtain,,,,,,,,,,,,,,,0,61,61,204,,,,,,,,,,,,,AMP,left,1.233883093111217,1,,,,,,,,,,,,,,left,1,1.233883093111217,,,,,,,,,,,1018,2019_Mar_06_1243,mf_amp_cond2,3.0.4,60.003964371266285,
penalty,&&&&&&&&&&&,right,authority.vice,presentkess,,,,,,,,,,,,,,,0,62,62,282,,,,,,,,,,,,,AMP,left,0.9338181149214506,0,,,,,,,,,,,,,,left,0,0.9338181149214506,,,,,,,,,,,1018,2019_Mar_06_1243,mf_amp_cond2,3.0.4,60.003964371266285,
dramens,&&&&&&&&&&&,None,nonword,vicissifude,,,,,,,,,,,,,,,0,63,63,140,,,,,,,,,,,,,AMP,left,0.7504807618679479,0,,,,,,,,,,,,,,left,0,0.7504807618679479,,,,,,,,,,,1018,2019_Mar_06_1243,mf_amp_cond2,3.0.4,60.003964371266285,
squets,&&&&&&&&&,None,nonword,refuejing,,,,,,,,,,,,,,,0,64,64,189,,,,,,,,,,,,,AMP,left,0.38367744628340006,0,,,,,,,,,,,,,,left,0,0.38367744628340006,,,,,,,,,,,1018,2019_Mar_06_1243,mf_amp_cond2,3.0.4,60.003964371266285,
ensure,&&&&&&&&&,left,fairness.virtue,Phintoism,,,,,,,,,,,,,,,0,65,65,43,,,,,,,,,,,,,AMP,left,0.5837917515309528,1,,,,,,,,,,,,,,left,1,0.5837917515309528,,,,,,,,,,,1018,2019_Mar_06_1243,mf_amp_cond2,3.0.4,60.003964371266285,
compassion,&&&&&&&&&,left,care.virtue,gondensed,,,,,,,,,,,,,,,0,66,66,57,,,,,,,,,,,,,AMP,right,0.8837951511377469,0,,,,,,,,,,,,,,right,0,0.8837951511377469,,,,,,,,,,,1018,2019_Mar_06_1243,mf_amp_cond2,3.0.4,60.003964371266285,
promises,&&&&&&&&&,left,fairness.virtue,metibolic,,,,,,,,,,,,,,,0,67,67,94,,,,,,,,,,,,,AMP,right,0.33367917826399207,0,,,,,,,,,,,,,,right,0,0.33367917826399207,,,,,,,,,,,1018,2019_Mar_06_1243,mf_amp_cond2,3.0.4,60.003964371266285,
energy,&&&&&&&&,left,sanctity.virtue,perified,,,,,,,,,,,,,,,0,68,68,36,,,,,,,,,,,,,AMP,right,0.46702852624002844,0,,,,,,,,,,,,,,right,0,0.46702852624002844,,,,,,,,,,,1018,2019_Mar_06_1243,mf_amp_cond2,3.0.4,60.003964371266285,
respect,&&&&&&&&&&&,left,sanctity.virtue,fornicalion,,,,,,,,,,,,,,,0,69,69,220,,,,,,,,,,,,,AMP,left,0.5004069957649335,1,,,,,,,,,,,,,,left,1,0.5004069957649335,,,,,,,,,,,1018,2019_Mar_06_1243,mf_amp_cond2,3.0.4,60.003964371266285,
death,&&&&&&&&&&,right,care.vice,Oregoniuns,,,,,,,,,,,,,,,0,70,70,199,,,,,,,,,,,,,AMP,left,0.467042637988925,0,,,,,,,,,,,,,,left,0,0.467042637988925,,,,,,,,,,,1018,2019_Mar_06_1243,mf_amp_cond2,3.0.4,60.003964371266285,
loyalty,&&&&&&&&&,left,loyalty.virtue,pescinded,,,,,,,,,,,,,,,0,71,71,112,,,,,,,,,,,,,AMP,right,0.817121920408681,0,,,,,,,,,,,,,,right,0,0.817121920408681,,,,,,,,,,,1018,2019_Mar_06_1243,mf_amp_cond2,3.0.4,60.003964371266285,
pleasant,&&&&&&&,None,control,scalbel,,,,,,,,,,,,,,,0,72,72,144,,,,,,,,,,,,,AMP,left,1.8174051177920774,0,,,,,,,,,,,,,,left,0,1.8174051177920774,,,,,,,,,,,1018,2019_Mar_06_1243,mf_amp_cond2,3.0.4,60.003964371266285,
terrorists,&&&&&&&&&&&,right,fairness.vice,presentkess,,,,,,,,,,,,,,,0,73,73,171,,,,,,,,,,,,,AMP,right,0.733761218842119,1,,,,,,,,,,,,,,right,1,0.733761218842119,,,,,,,,,,,1018,2019_Mar_06_1243,mf_amp_cond2,3.0.4,60.003964371266285,
great,&&&&&&&,left,loyalty.virtue,halaise,,,,,,,,,,,,,,,0,74,74,275,,,,,,,,,,,,,AMP,right,2.050751322763972,0,,,,,,,,,,,,,,right,0,2.050751322763972,,,,,,,,,,,1018,2019_Mar_06_1243,mf_amp_cond2,3.0.4,60.003964371266285,
violence,&&&&&&&,right,care.vice,allears,,,,,,,,,,,,,,,0,75,75,39,,,,,,,,,,,,,AMP,right,0.6504072523675859,1,,,,,,,,,,,,,,right,1,0.6504072523675859,,,,,,,,,,,1018,2019_Mar_06_1243,mf_amp_cond2,3.0.4,60.003964371266285,
encourage,&&&&&&&&&,left,authority.virtue,gaultless,,,,,,,,,,,,,,,0,76,76,26,,,,,,,,,,,,,AMP,left,0.6504393246723339,1,,,,,,,,,,,,,,left,1,0.6504393246723339,,,,,,,,,,,1018,2019_Mar_06_1243,mf_amp_cond2,3.0.4,60.003964371266285,
troops,&&&&&&&&&,right,loyalty.vice,taxpayung,,,,,,,,,,,,,,,0,77,77,101,,,,,,,,,,,,,AMP,left,0.40036652074195445,0,,,,,,,,,,,,,,left,0,0.40036652074195445,,,,,,,,,,,1018,2019_Mar_06_1243,mf_amp_cond2,3.0.4,60.003964371266285,
freedom,&&&&&&&&&,left,sanctity.virtue,discovars,,,,,,,,,,,,,,,0,78,78,132,,,,,,,,,,,,,AMP,right,0.5003851867513731,0,,,,,,,,,,,,,,right,0,0.5003851867513731,,,,,,,,,,,1018,2019_Mar_06_1243,mf_amp_cond2,3.0.4,60.003964371266285,
actively,&&&&,left,authority.virtue,yane,,,,,,,,,,,,,,,0,79,79,201,,,,,,,,,,,,,AMP,right,2.200799046084285,0,,,,,,,,,,,,,,right,0,2.200799046084285,,,,,,,,,,,1018,2019_Mar_06_1243,mf_amp_cond2,3.0.4,60.003964371266285,
accused,&&&&&&&&,right,fairness.vice,epigrach,,,,,,,,,,,,,,,0,80,80,4,,,,,,,,,,,,,AMP,right,0.4003601062577218,1,,,,,,,,,,,,,,right,1,0.4003601062577218,,,,,,,,,,,1018,2019_Mar_06_1243,mf_amp_cond2,3.0.4,60.003964371266285,
promises,&&&&&&&&&&&,left,fairness.virtue,ronviolence,,,,,,,,,,,,,,,0,81,81,75,,,,,,,,,,,,,AMP,left,0.45037505205255,1,,,,,,,,,,,,,,left,1,0.45037505205255,,,,,,,,,,,1018,2019_Mar_06_1243,mf_amp_cond2,3.0.4,60.003964371266285,
scandal,&&&&&&&&,right,sanctity.vice,fontacts,,,,,,,,,,,,,,,0,82,82,255,,,,,,,,,,,,,AMP,right,0.8671381489839405,1,,,,,,,,,,,,,,right,1,0.8671381489839405,,,,,,,,,,,1018,2019_Mar_06_1243,mf_amp_cond2,3.0.4,60.003964371266285,
useful,&&&&&&&&&,left,authority.virtue,gondensed,,,,,,,,,,,,,,,0,83,83,125,,,,,,,,,,,,,AMP,right,0.6004253411665559,0,,,,,,,,,,,,,,right,0,0.6004253411665559,,,,,,,,,,,1018,2019_Mar_06_1243,mf_amp_cond2,3.0.4,60.003964371266285,
laming,&&&&&&&&&&,None,nonword,reelectiob,,,,,,,,,,,,,,,0,84,84,15,,,,,,,,,,,,,AMP,left,1.2172276944620535,0,,,,,,,,,,,,,,left,0,1.2172276944620535,,,,,,,,,,,1018,2019_Mar_06_1243,mf_amp_cond2,3.0.4,60.003964371266285,
benefit,&&&&&&&&&&&,left,fairness.virtue,shoirmaster,,,,,,,,,,,,,,,0,85,85,117,,,,,,,,,,,,,AMP,left,0.5002379755023867,1,,,,,,,,,,,,,,left,1,0.5002379755023867,,,,,,,,,,,1018,2019_Mar_06_1243,mf_amp_cond2,3.0.4,60.003964371266285,
died,&&&&&&,right,care.vice,gazily,,,,,,,,,,,,,,,0,86,86,131,,,,,,,,,,,,,AMP,left,0.3336718016071245,0,,,,,,,,,,,,,,left,0,0.3336718016071245,,,,,,,,,,,1018,2019_Mar_06_1243,mf_amp_cond2,3.0.4,60.003964371266285,
praised,&&&&&&&&,left,loyalty.virtue,slending,,,,,,,,,,,,,,,0,87,87,106,,,,,,,,,,,,,AMP,right,1.3506107182474807,0,,,,,,,,,,,,,,right,0,1.3506107182474807,,,,,,,,,,,1018,2019_Mar_06_1243,mf_amp_cond2,3.0.4,60.003964371266285,
celebrated,&&&&&&&,left,authority.virtue,vurtain,,,,,,,,,,,,,,,0,88,88,283,,,,,,,,,,,,,AMP,left,0.5670385328121483,1,,,,,,,,,,,,,,left,1,0.5670385328121483,,,,,,,,,,,1018,2019_Mar_06_1243,mf_amp_cond2,3.0.4,60.003964371266285,
free,&&&&&&&&&&,left,fairness.virtue,gationwide,,,,,,,,,,,,,,,0,89,89,73,,,,,,,,,,,,,AMP,right,0.6669276271713898,0,,,,,,,,,,,,,,right,0,0.6669276271713898,,,,,,,,,,,1018,2019_Mar_06_1243,mf_amp_cond2,3.0.4,60.003964371266285,
racist,&&&&&&&,right,sanctity.vice,allears,,,,,,,,,,,,,,,0,90,90,260,,,,,,,,,,,,,AMP,right,0.8504699214827269,1,,,,,,,,,,,,,,right,1,0.8504699214827269,,,,,,,,,,,1018,2019_Mar_06_1243,mf_amp_cond2,3.0.4,60.003964371266285,
shot,&&&&&,right,care.vice,infet,,,,,,,,,,,,,,,0,91,91,288,,,,,,,,,,,,,AMP,left,0.36697522236499935,0,,,,,,,,,,,,,,left,0,0.36697522236499935,,,,,,,,,,,1018,2019_Mar_06_1243,mf_amp_cond2,3.0.4,60.003964371266285,
arrests,&&&&&&&,right,authority.vice,menizen,,,,,,,,,,,,,,,0,92,92,277,,,,,,,,,,,,,AMP,right,0.6170557235600427,1,,,,,,,,,,,,,,right,1,0.6170557235600427,,,,,,,,,,,1018,2019_Mar_06_1243,mf_amp_cond2,3.0.4,60.003964371266285,
actively,&&&&&&&&&&&&,left,authority.virtue,gusinesslike,,,,,,,,,,,,,,,0,93,93,110,,,,,,,,,,,,,AMP,left,0.6670681033283472,1,,,,,,,,,,,,,,left,1,0.6670681033283472,,,,,,,,,,,1018,2019_Mar_06_1243,mf_amp_cond2,3.0.4,60.003964371266285,
care,&&&&&&,left,care.virtue,prones,,,,,,,,,,,,,,,0,94,94,46,,,,,,,,,,,,,AMP,right,0.6170768911251798,0,,,,,,,,,,,,,,right,0,0.6170768911251798,,,,,,,,,,,1018,2019_Mar_06_1243,mf_amp_cond2,3.0.4,60.003964371266285,
friends,&&&&&&&,left,loyalty.virtue,chadows,,,,,,,,,,,,,,,0,95,95,326,,,,,,,,,,,,,AMP,right,0.4003395801410079,0,,,,,,,,,,,,,,right,0,0.4003395801410079,,,,,,,,,,,1018,2019_Mar_06_1243,mf_amp_cond2,3.0.4,60.003964371266285,
death,&&&&&&,right,care.vice,fegard,,,,,,,,,,,,,,,0,96,96,149,,,,,,,,,,,,,AMP,right,0.717071182327345,1,,,,,,,,,,,,,,right,1,0.717071182327345,,,,,,,,,,,1018,2019_Mar_06_1243,mf_amp_cond2,3.0.4,60.003964371266285,
riot,&&&&&&&&&&,right,authority.vice,ammessment,,,,,,,,,,,,,,,0,97,97,251,,,,,,,,,,,,,AMP,right,0.717093953397125,1,,,,,,,,,,,,,,right,1,0.717093953397125,,,,,,,,,,,1018,2019_Mar_06_1243,mf_amp_cond2,3.0.4,60.003964371266285,
integrity,&&&&&&,left,fairness.virtue,strofe,,,,,,,,,,,,,,,0,98,98,319,,,,,,,,,,,,,AMP,right,1.1838671853765845,0,,,,,,,,,,,,,,right,0,1.1838671853765845,,,,,,,,,,,1018,2019_Mar_06_1243,mf_amp_cond2,3.0.4,60.003964371266285,
safety,&&&&&&&&,left,care.virtue,clamorek,,,,,,,,,,,,,,,0,99,99,190,,,,,,,,,,,,,AMP,right,0.8004854443715885,0,,,,,,,,,,,,,,right,0,0.8004854443715885,,,,,,,,,,,1018,2019_Mar_06_1243,mf_amp_cond2,3.0.4,60.003964371266285,
black,&&&&&&,right,loyalty.vice,gikely,,,,,,,,,,,,,,,0,100,100,136,,,,,,,,,,,,,AMP,right,1.8507239329628646,1,,,,,,,,,,,,,,right,1,1.8507239329628646,,,,,,,,,,,1018,2019_Mar_06_1243,mf_amp_cond2,3.0.4,60.003964371266285,
black,&&&&&&&&&&&&,right,loyalty.vice,bruthfulness,,,,,,,,,,,,,,,0,101,101,55,,,,,,,,,,,,,AMP,left,0.5337023984175175,0,,,,,,,,,,,,,,left,0,0.5337023984175175,,,,,,,,,,,1018,2019_Mar_06_1243,mf_amp_cond2,3.0.4,60.003964371266285,
betrayal,&&&&&&&&&,right,loyalty.vice,gillipede,,,,,,,,,,,,,,,0,102,102,232,,,,,,,,,,,,,AMP,right,0.5835916212527081,1,,,,,,,,,,,,,,right,1,0.5835916212527081,,,,,,,,,,,1018,2019_Mar_06_1243,mf_amp_cond2,3.0.4,60.003964371266285,
gun,&&&&&&&,right,authority.vice,halaise,,,,,,,,,,,,,,,0,103,103,227,,,,,,,,,,,,,AMP,right,0.33366410434246063,1,,,,,,,,,,,,,,right,1,0.33366410434246063,,,,,,,,,,,1018,2019_Mar_06_1243,mf_amp_cond2,3.0.4,60.003964371266285,
squets,&&&&&&&&&&&,None,nonword,nomparisons,,,,,,,,,,,,,,,0,104,104,33,,,,,,,,,,,,,AMP,left,1.2339074679184705,0,,,,,,,,,,,,,,left,0,1.2339074679184705,,,,,,,,,,,1018,2019_Mar_06_1243,mf_amp_cond2,3.0.4,60.003964371266285,
free,&&&,left,fairness.virtue,oam,,,,,,,,,,,,,,,0,105,105,135,,,,,,,,,,,,,AMP,right,0.3836569201666862,0,,,,,,,,,,,,,,right,0,0.3836569201666862,,,,,,,,,,,1018,2019_Mar_06_1243,mf_amp_cond2,3.0.4,60.003964371266285,
hope,&&&&&&&&&&,left,loyalty.virtue,fonderland,,,,,,,,,,,,,,,0,106,106,78,,,,,,,,,,,,,AMP,right,0.7671226902166381,0,,,,,,,,,,,,,,right,0,0.7671226902166381,,,,,,,,,,,1018,2019_Mar_06_1243,mf_amp_cond2,3.0.4,60.003964371266285,
hefurbished,&&&&&&&&&&&&,None,nonword,edancipation,,,,,,,,,,,,,,,0,107,107,18,,,,,,,,,,,,,AMP,right,0.8337721875868738,0,,,,,,,,,,,,,,right,0,0.8337721875868738,,,,,,,,,,,1018,2019_Mar_06_1243,mf_amp_cond2,3.0.4,60.003964371266285,
opportunity,&&&&&,left,fairness.virtue,dumid,,,,,,,,,,,,,,,0,108,108,38,,,,,,,,,,,,,AMP,right,0.467035902896896,0,,,,,,,,,,,,,,right,0,0.467035902896896,,,,,,,,,,,1018,2019_Mar_06_1243,mf_amp_cond2,3.0.4,60.003964371266285,
riot,&&&&&&&,right,authority.vice,scalbel,,,,,,,,,,,,,,,0,109,109,196,,,,,,,,,,,,,AMP,left,0.7337583323242143,0,,,,,,,,,,,,,,left,0,0.7337583323242143,,,,,,,,,,,1018,2019_Mar_06_1243,mf_amp_cond2,3.0.4,60.003964371266285,
strong,&&&&&&&&&,left,loyalty.virtue,metibolic,,,,,,,,,,,,,,,0,110,110,298,,,,,,,,,,,,,AMP,right,0.41701101476792246,0,,,,,,,,,,,,,,right,0,0.41701101476792246,,,,,,,,,,,1018,2019_Mar_06_1243,mf_amp_cond2,3.0.4,60.003964371266285,
prosecution,&&&&&&&&&&,right,authority.vice,honstables,,,,,,,,,,,,,,,0,111,111,157,,,,,,,,,,,,,AMP,right,0.7004619674989954,1,,,,,,,,,,,,,,right,1,0.7004619674989954,,,,,,,,,,,1018,2019_Mar_06_1243,mf_amp_cond2,3.0.4,60.003964371266285,
blamed,&&&&&&,right,loyalty.vice,papert,,,,,,,,,,,,,,,0,112,112,93,,,,,,,,,,,,,AMP,right,0.6837603849126026,1,,,,,,,,,,,,,,right,1,0.6837603849126026,,,,,,,,,,,1018,2019_Mar_06_1243,mf_amp_cond2,3.0.4,60.003964371266285,
terrorists,&&&,right,fairness.vice,asn,,,,,,,,,,,,,,,0,113,113,294,,,,,,,,,,,,,AMP,right,0.6503665207419544,1,,,,,,,,,,,,,,right,1,0.6503665207419544,,,,,,,,,,,1018,2019_Mar_06_1243,mf_amp_cond2,3.0.4,60.003964371266285,
growth,&&&&&&&&&,left,care.virtue,taxpayung,,,,,,,,,,,,,,,0,114,114,167,,,,,,,,,,,,,AMP,left,0.3669912584591657,1,,,,,,,,,,,,,,left,1,0.3669912584591657,,,,,,,,,,,1018,2019_Mar_06_1243,mf_amp_cond2,3.0.4,60.003964371266285,
useful,&&&&&,left,authority.virtue,dumid,,,,,,,,,,,,,,,0,115,115,180,,,,,,,,,,,,,AMP,right,0.36699093773495406,0,,,,,,,,,,,,,,right,0,0.36699093773495406,,,,,,,,,,,1018,2019_Mar_06_1243,mf_amp_cond2,3.0.4,60.003964371266285,
win,&&&&&&&&,left,fairness.virtue,perified,,,,,,,,,,,,,,,0,116,116,215,,,,,,,,,,,,,AMP,right,0.3670021629659459,0,,,,,,,,,,,,,,right,0,0.3670021629659459,,,,,,,,,,,1018,2019_Mar_06_1243,mf_amp_cond2,3.0.4,60.003964371266285,
attacks,&&&&&&,right,care.vice,gazily,,,,,,,,,,,,,,,0,117,117,28,,,,,,,,,,,,,AMP,left,0.800461710896343,0,,,,,,,,,,,,,,left,0,0.800461710896343,,,,,,,,,,,1018,2019_Mar_06_1243,mf_amp_cond2,3.0.4,60.003964371266285,
gun,&&&,right,authority.vice,asn,,,,,,,,,,,,,,,0,118,118,104,,,,,,,,,,,,,AMP,right,0.4670593155315146,1,,,,,,,,,,,,,,right,1,0.4670593155315146,,,,,,,,,,,1018,2019_Mar_06_1243,mf_amp_cond2,3.0.4,60.003964371266285,
respect,&&&&&&&&&,left,sanctity.virtue,metibolic,,,,,,,,,,,,,,,0,119,119,77,,,,,,,,,,,,,AMP,right,0.3336304285330698,0,,,,,,,,,,,,,,right,0,0.3336304285330698,,,,,,,,,,,1018,2019_Mar_06_1243,mf_amp_cond2,3.0.4,60.003964371266285,
actively,&&&&&&,left,authority.virtue,bycled,,,,,,,,,,,,,,,0,120,120,17,,,,,,,,,,,,,AMP,left,0.43369014689233154,1,,,,,,,,,,,,,,left,1,0.43369014689233154,,,,,,,,,,,1018,2019_Mar_06_1243,mf_amp_cond2,3.0.4,60.003964371266285,
ban,&&&&&&,right,loyalty.vice,gazily,,,,,,,,,,,,,,,0,121,121,233,,,,,,,,,,,,,AMP,left,0.35034965083468705,0,,,,,,,,,,,,,,left,0,0.35034965083468705,,,,,,,,,,,1018,2019_Mar_06_1243,mf_amp_cond2,3.0.4,60.003964371266285,
forepo,&&&&&&&&,None,nonword,proached,,,,,,,,,,,,,,,0,122,122,147,,,,,,,,,,,,,AMP,right,0.4170007517095655,0,,,,,,,,,,,,,,right,0,0.4170007517095655,,,,,,,,,,,1018,2019_Mar_06_1243,mf_amp_cond2,3.0.4,60.003964371266285,
intelligence,&&&&&&&&&,left,loyalty.virtue,gillipede,,,,,,,,,,,,,,,0,123,123,3,,,,,,,,,,,,,AMP,right,1.1338814252521843,0,,,,,,,,,,,,,,right,0,1.1338814252521843,,,,,,,,,,,1018,2019_Mar_06_1243,mf_amp_cond2,3.0.4,60.003964371266285,
stindig,&&&&&&&,None,nonword,pharing,,,,,,,,,,,,,,,0,124,124,198,,,,,,,,,,,,,AMP,right,0.6838181148050353,0,,,,,,,,,,,,,,right,0,0.6838181148050353,,,,,,,,,,,1018,2019_Mar_06_1243,mf_amp_cond2,3.0.4,60.003964371266285,
arrests,&&&&&&&&,right,authority.vice,sfumatoy,,,,,,,,,,,,,,,0,125,125,13,,,,,,,,,,,,,AMP,right,0.6837530083721504,1,,,,,,,,,,,,,,right,1,0.6837530083721504,,,,,,,,,,,1018,2019_Mar_06_1243,mf_amp_cond2,3.0.4,60.003964371266285,
good,&&&&&&&&,left,care.virtue,perified,,,,,,,,,,,,,,,0,126,126,129,,,,,,,,,,,,,AMP,right,0.33364678535144776,0,,,,,,,,,,,,,,right,0,0.33364678535144776,,,,,,,,,,,1018,2019_Mar_06_1243,mf_amp_cond2,3.0.4,60.003964371266285,
egpeditious,&&&&,None,nonword,wump,,,,,,,,,,,,,,,0,127,127,12,,,,,,,,,,,,,AMP,left,0.5170476413331926,0,,,,,,,,,,,,,,left,0,0.5170476413331926,,,,,,,,,,,1018,2019_Mar_06_1243,mf_amp_cond2,3.0.4,60.003964371266285,
stindig,&&&&&&&,None,nonword,brudent,,,,,,,,,,,,,,,0,128,128,310,,,,,,,,,,,,,AMP,right,0.6170807396993041,0,,,,,,,,,,,,,,right,0,0.6170807396993041,,,,,,,,,,,1018,2019_Mar_06_1243,mf_amp_cond2,3.0.4,60.003964371266285,
racist,&&&&&&&&,right,sanctity.vice,sfumatoy,,,,,,,,,,,,,,,0,129,129,169,,,,,,,,,,,,,AMP,right,1.2172180727357045,1,,,,,,,,,,,,,,right,1,1.2172180727357045,,,,,,,,,,,1018,2019_Mar_06_1243,mf_amp_cond2,3.0.4,60.003964371266285,
prison,&&&&&&,right,fairness.vice,prones,,,,,,,,,,,,,,,0,130,130,176,,,,,,,,,,,,,AMP,left,1.4839392193825915,0,,,,,,,,,,,,,,left,0,1.4839392193825915,,,,,,,,,,,1018,2019_Mar_06_1243,mf_amp_cond2,3.0.4,60.003964371266285,
suicide,&&&&&&,right,care.vice,papert,,,,,,,,,,,,,,,0,131,131,35,,,,,,,,,,,,,AMP,right,0.5003842246951535,1,,,,,,,,,,,,,,right,1,0.5003842246951535,,,,,,,,,,,1018,2019_Mar_06_1243,mf_amp_cond2,3.0.4,60.003964371266285,
good,&&&&&&&&&&,left,care.virtue,fonderland,,,,,,,,,,,,,,,0,132,132,303,,,,,,,,,,,,,AMP,right,0.383655316545628,0,,,,,,,,,,,,,,right,0,0.383655316545628,,,,,,,,,,,1018,2019_Mar_06_1243,mf_amp_cond2,3.0.4,60.003964371266285,
terrorists,&&&&&&,right,fairness.vice,gikely,,,,,,,,,,,,,,,0,133,133,74,,,,,,,,,,,,,AMP,right,2.917716923286207,1,,,,,,,,,,,,,,right,1,2.917716923286207,,,,,,,,,,,1018,2019_Mar_06_1243,mf_amp_cond2,3.0.4,60.003964371266285,
celebrated,&&&&&&&,left,authority.virtue,chadows,,,,,,,,,,,,,,,0,134,134,244,,,,,,,,,,,,,AMP,right,0.2503082136390731,0,,,,,,,,,,,,,,right,0,0.2503082136390731,,,,,,,,,,,1018,2019_Mar_06_1243,mf_amp_cond2,3.0.4,60.003964371266285,
strong,&&&&&&&,left,loyalty.virtue,menizen,,,,,,,,,,,,,,,0,135,135,53,,,,,,,,,,,,,AMP,right,0.4503888429608196,0,,,,,,,,,,,,,,right,0,0.4503888429608196,,,,,,,,,,,1018,2019_Mar_06_1243,mf_amp_cond2,3.0.4,60.003964371266285,
faith,&&&&&&&&&&&&,left,sanctity.virtue,bruthfulness,,,,,,,,,,,,,,,0,136,136,266,,,,,,,,,,,,,AMP,left,0.8171097330050543,1,,,,,,,,,,,,,,left,1,0.8171097330050543,,,,,,,,,,,1018,2019_Mar_06_1243,mf_amp_cond2,3.0.4,60.003964371266285,
prosecution,&&&&&&&&&&&,right,authority.vice,shoirmaster,,,,,,,,,,,,,,,0,137,137,272,,,,,,,,,,,,,AMP,left,0.3836668625008315,0,,,,,,,,,,,,,,left,0,0.3836668625008315,,,,,,,,,,,1018,2019_Mar_06_1243,mf_amp_cond2,3.0.4,60.003964371266285,
great,&&&&&&&,left,loyalty.virtue,carvels,,,,,,,,,,,,,,,0,138,138,134,,,,,,,,,,,,,AMP,right,0.5003899976145476,0,,,,,,,,,,,,,,right,0,0.5003899976145476,,,,,,,,,,,1018,2019_Mar_06_1243,mf_amp_cond2,3.0.4,60.003964371266285,
war,&&&&&&&&&&,right,sanctity.vice,frojecting,,,,,,,,,,,,,,,0,139,139,95,,,,,,,,,,,,,AMP,left,0.7337753305910155,0,,,,,,,,,,,,,,left,0,0.7337753305910155,,,,,,,,,,,1018,2019_Mar_06_1243,mf_amp_cond2,3.0.4,60.003964371266285,
loyalty,&&&&&&&&&&&,left,loyalty.virtue,ronviolence,,,,,,,,,,,,,,,0,140,140,289,,,,,,,,,,,,,AMP,left,0.3002840311964974,1,,,,,,,,,,,,,,left,1,0.3002840311964974,,,,,,,,,,,1018,2019_Mar_06_1243,mf_amp_cond2,3.0.4,60.003964371266285,
stindig,&&&&&&&&&&,None,nonword,abointment,,,,,,,,,,,,,,,0,141,141,44,,,,,,,,,,,,,AMP,left,0.633741911384277,0,,,,,,,,,,,,,,left,0,0.633741911384277,,,,,,,,,,,1018,2019_Mar_06_1243,mf_amp_cond2,3.0.4,60.003964371266285,
accused,&&&&&&,right,fairness.vice,bycled,,,,,,,,,,,,,,,0,142,142,182,,,,,,,,,,,,,AMP,left,0.16688048106152564,0,,,,,,,,,,,,,,left,0,0.16688048106152564,,,,,,,,,,,1018,2019_Mar_06_1243,mf_amp_cond2,3.0.4,60.003964371266285,
framo,&&&&&&&,None,nonword,halaise,,,,,,,,,,,,,,,0,143,143,91,,,,,,,,,,,,,AMP,right,1.3338998346589506,0,,,,,,,,,,,,,,right,0,1.3338998346589506,,,,,,,,,,,1018,2019_Mar_06_1243,mf_amp_cond2,3.0.4,60.003964371266285,
compassion,&&&&&&,left,care.virtue,papert,,,,,,,,,,,,,,,0,144,144,293,,,,,,,,,,,,,AMP,right,0.4003405423136428,0,,,,,,,,,,,,,,right,0,0.4003405423136428,,,,,,,,,,,1018,2019_Mar_06_1243,mf_amp_cond2,3.0.4,60.003964371266285,
fighters,&&&&&&&&&&&&,right,authority.vice,bruthfulness,,,,,,,,,,,,,,,0,145,145,86,,,,,,,,,,,,,AMP,left,0.43376391287893057,0,,,,,,,,,,,,,,left,0,0.43376391287893057,,,,,,,,,,,1018,2019_Mar_06_1243,mf_amp_cond2,3.0.4,60.003964371266285,
trust,&&&&&&&,left,authority.virtue,menizen,,,,,,,,,,,,,,,0,146,146,156,,,,,,,,,,,,,AMP,right,0.35030058037955314,0,,,,,,,,,,,,,,right,0,0.35030058037955314,,,,,,,,,,,1018,2019_Mar_06_1243,mf_amp_cond2,3.0.4,60.003964371266285,
win,&&&&&&&,left,fairness.virtue,pharing,,,,,,,,,,,,,,,0,147,147,2,,,,,,,,,,,,,AMP,right,0.45034041395410895,0,,,,,,,,,,,,,,right,0,0.45034041395410895,,,,,,,,,,,1018,2019_Mar_06_1243,mf_amp_cond2,3.0.4,60.003964371266285,
squets,&&&&&&&,None,nonword,scalbel,,,,,,,,,,,,,,,0,148,148,323,,,,,,,,,,,,,AMP,left,0.900474283262156,0,,,,,,,,,,,,,,left,0,0.900474283262156,,,,,,,,,,,1018,2019_Mar_06_1243,mf_amp_cond2,3.0.4,60.003964371266285,
slavery,&&&&&&&,right,loyalty.vice,brudent,,,,,,,,,,,,,,,0,149,149,100,,,,,,,,,,,,,AMP,left,0.7504576698411256,0,,,,,,,,,,,,,,left,0,0.7504576698411256,,,,,,,,,,,1018,2019_Mar_06_1243,mf_amp_cond2,3.0.4,60.003964371266285,
intelligence,&&&&&&&&&,left,loyalty.virtue,Phintoism,,,,,,,,,,,,,,,0,150,150,212,,,,,,,,,,,,,AMP,left,0.9004960923921317,1,,,,,,,,,,,,,,left,1,0.9004960923921317,,,,,,,,,,,1018,2019_Mar_06_1243,mf_amp_cond2,3.0.4,60.003964371266285,
death,&&&&&,right,care.vice,dumid,,,,,,,,,,,,,,,0,151,151,313,,,,,,,,,,,,,AMP,left,0.4503606194630265,0,,,,,,,,,,,,,,left,0,0.4503606194630265,,,,,,,,,,,1018,2019_Mar_06_1243,mf_amp_cond2,3.0.4,60.003964371266285,
ban,&&&&&&,right,loyalty.vice,fostet,,,,,,,,,,,,,,,0,152,152,290,,,,,,,,,,,,,AMP,right,0.9671651538228616,1,,,,,,,,,,,,,,right,1,0.9671651538228616,,,,,,,,,,,1018,2019_Mar_06_1243,mf_amp_cond2,3.0.4,60.003964371266285,
men,&&&&&&&&,right,loyalty.vice,divility,,,,,,,,,,,,,,,0,153,153,184,,,,,,,,,,,,,AMP,right,0.800439581158571,1,,,,,,,,,,,,,,right,1,0.800439581158571,,,,,,,,,,,1018,2019_Mar_06_1243,mf_amp_cond2,3.0.4,60.003964371266285,
restore,&&&&&&&&&&&,left,care.virtue,nomparisons,,,,,,,,,,,,,,,0,154,154,109,,,,,,,,,,,,,AMP,left,0.5003669057041407,1,,,,,,,,,,,,,,left,1,0.5003669057041407,,,,,,,,,,,1018,2019_Mar_06_1243,mf_amp_cond2,3.0.4,60.003964371266285,
troops,&&&&&&&,right,loyalty.vice,Daptist,,,,,,,,,,,,,,,0,155,155,14,,,,,,,,,,,,,AMP,right,0.7004228394944221,1,,,,,,,,,,,,,,right,1,0.7004228394944221,,,,,,,,,,,1018,2019_Mar_06_1243,mf_amp_cond2,3.0.4,60.003964371266285,
charges,&&&&&&&&,right,fairness.vice,epigrach,,,,,,,,,,,,,,,0,156,156,291,,,,,,,,,,,,,AMP,right,0.400335410842672,1,,,,,,,,,,,,,,right,1,0.400335410842672,,,,,,,,,,,1018,2019_Mar_06_1243,mf_amp_cond2,3.0.4,60.003964371266285,
good,&&&&,left,care.virtue,yane,,,,,,,,,,,,,,,0,157,157,30,,,,,,,,,,,,,AMP,right,0.6002774884691462,0,,,,,,,,,,,,,,right,0,0.6002774884691462,,,,,,,,,,,1018,2019_Mar_06_1243,mf_amp_cond2,3.0.4,60.003964371266285,
egpeditious,&&&&&&&,None,nonword,allears,,,,,,,,,,,,,,,0,158,158,115,,,,,,,,,,,,,AMP,right,0.5337758436799049,0,,,,,,,,,,,,,,right,0,0.5337758436799049,,,,,,,,,,,1018,2019_Mar_06_1243,mf_amp_cond2,3.0.4,60.003964371266285,
energy,&&&&&&&&&&,left,sanctity.virtue,gationwide,,,,,,,,,,,,,,,0,159,159,292,,,,,,,,,,,,,AMP,right,0.6671085143461823,0,,,,,,,,,,,,,,right,0,0.6671085143461823,,,,,,,,,,,1018,2019_Mar_06_1243,mf_amp_cond2,3.0.4,60.003964371266285,
racist,&&&&&&,right,sanctity.vice,fegard,,,,,,,,,,,,,,,0,160,160,24,,,,,,,,,,,,,AMP,right,0.38367840845603496,1,,,,,,,,,,,,,,right,1,0.38367840845603496,,,,,,,,,,,1018,2019_Mar_06_1243,mf_amp_cond2,3.0.4,60.003964371266285,
egpeditious,&&&&&&,None,nonword,tislay,,,,,,,,,,,,,,,0,161,161,242,,,,,,,,,,,,,AMP,right,0.7170888220425695,0,,,,,,,,,,,,,,right,0,0.7170888220425695,,,,,,,,,,,1018,2019_Mar_06_1243,mf_amp_cond2,3.0.4,60.003964371266285,
prison,&&&&&&&&&&,right,fairness.vice,Oregoniuns,,,,,,,,,,,,,,,0,162,162,267,,,,,,,,,,,,,AMP,right,0.40033124142792076,1,,,,,,,,,,,,,,right,1,0.40033124142792076,,,,,,,,,,,1018,2019_Mar_06_1243,mf_amp_cond2,3.0.4,60.003964371266285,
great,&&&&&&&&&,left,loyalty.virtue,faspberry,,,,,,,,,,,,,,,0,163,163,19,,,,,,,,,,,,,AMP,right,0.40033124131150544,0,,,,,,,,,,,,,,right,0,0.40033124131150544,,,,,,,,,,,1018,2019_Mar_06_1243,mf_amp_cond2,3.0.4,60.003964371266285,
friends,&&&&&&&,left,loyalty.virtue,allears,,,,,,,,,,,,,,,0,164,164,186,,,,,,,,,,,,,AMP,right,0.3503255966352299,0,,,,,,,,,,,,,,right,0,0.3503255966352299,,,,,,,,,,,1018,2019_Mar_06_1243,mf_amp_cond2,3.0.4,60.003964371266285,
illegal,&&&&&&&&&,right,fairness.vice,refuejing,,,,,,,,,,,,,,,0,165,165,0,,,,,,,,,,,,,AMP,left,0.33365768985822797,0,,,,,,,,,,,,,,left,0,0.33365768985822797,,,,,,,,,,,1018,2019_Mar_06_1243,mf_amp_cond2,3.0.4,60.003964371266285,
charges,&&&&&&&,right,fairness.vice,lursuer,,,,,,,,,,,,,,,0,166,166,58,,,,,,,,,,,,,AMP,right,0.36700088006909937,1,,,,,,,,,,,,,,right,1,0.36700088006909937,,,,,,,,,,,1018,2019_Mar_06_1243,mf_amp_cond2,3.0.4,60.003964371266285,
forepo,&&&&&&&&&,None,nonword,gillipede,,,,,,,,,,,,,,,0,167,167,246,,,,,,,,,,,,,AMP,right,0.36702333053108305,0,,,,,,,,,,,,,,right,0,0.36702333053108305,,,,,,,,,,,1018,2019_Mar_06_1243,mf_amp_cond2,3.0.4,60.003964371266285,
terrorists,&&&&&&&&,right,fairness.vice,sfumatoy,,,,,,,,,,,,,,,0,168,168,143,,,,,,,,,,,,,AMP,right,0.6337217059917748,1,,,,,,,,,,,,,,right,1,0.6337217059917748,,,,,,,,,,,1018,2019_Mar_06_1243,mf_amp_cond2,3.0.4,60.003964371266285,
illegal,&&&&&&&&&&,right,fairness.vice,abointment,,,,,,,,,,,,,,,0,169,169,97,,,,,,,,,,,,,AMP,left,0.8671468084212393,0,,,,,,,,,,,,,,left,0,0.8671468084212393,,,,,,,,,,,1018,2019_Mar_06_1243,mf_amp_cond2,3.0.4,60.003964371266285,
threatened,&&&&&&&&&&&&,right,fairness.vice,gusinesslike,,,,,,,,,,,,,,,0,170,170,325,,,,,,,,,,,,,AMP,left,1.333897910430096,0,,,,,,,,,,,,,,left,0,1.333897910430096,,,,,,,,,,,1018,2019_Mar_06_1243,mf_amp_cond2,3.0.4,60.003964371266285,
troops,&&&&&&&&,right,loyalty.vice,thadowed,,,,,,,,,,,,,,,0,171,171,301,,,,,,,,,,,,,AMP,right,0.4003405423136428,1,,,,,,,,,,,,,,right,1,0.4003405423136428,,,,,,,,,,,1018,2019_Mar_06_1243,mf_amp_cond2,3.0.4,60.003964371266285,
fraud,&&&&&,right,fairness.vice,aubos,,,,,,,,,,,,,,,0,172,172,178,,,,,,,,,,,,,AMP,right,0.5336947011528537,1,,,,,,,,,,,,,,right,1,0.5336947011528537,,,,,,,,,,,1018,2019_Mar_06_1243,mf_amp_cond2,3.0.4,60.003964371266285,
restore,&&&&&&&&&&,left,care.virtue,fonderland,,,,,,,,,,,,,,,0,173,173,206,,,,,,,,,,,,,AMP,right,0.31698657595552504,0,,,,,,,,,,,,,,right,0,0.31698657595552504,,,,,,,,,,,1018,2019_Mar_06_1243,mf_amp_cond2,3.0.4,60.003964371266285,
perfect,&&&&&&&,left,sanctity.virtue,troubla,,,,,,,,,,,,,,,0,174,174,236,,,,,,,,,,,,,AMP,left,0.6337261960143223,1,,,,,,,,,,,,,,left,1,0.6337261960143223,,,,,,,,,,,1018,2019_Mar_06_1243,mf_amp_cond2,3.0.4,60.003964371266285,
fighters,&&&&&&&,right,authority.vice,carvels,,,,,,,,,,,,,,,0,175,175,70,,,,,,,,,,,,,AMP,right,0.2503162316279486,1,,,,,,,,,,,,,,right,1,0.2503162316279486,,,,,,,,,,,1018,2019_Mar_06_1243,mf_amp_cond2,3.0.4,60.003964371266285,
encourage,&&&&&&&,left,authority.virtue,pharing,,,,,,,,,,,,,,,0,176,176,305,,,,,,,,,,,,,AMP,right,0.41704693564679474,0,,,,,,,,,,,,,,right,0,0.41704693564679474,,,,,,,,,,,1018,2019_Mar_06_1243,mf_amp_cond2,3.0.4,60.003964371266285,
dignity,&&&&&&&&&,left,sanctity.virtue,Lacedonia,,,,,,,,,,,,,,,0,177,177,205,,,,,,,,,,,,,AMP,right,0.333676612470299,0,,,,,,,,,,,,,,right,0,0.333676612470299,,,,,,,,,,,1018,2019_Mar_06_1243,mf_amp_cond2,3.0.4,60.003964371266285,
dramens,&&&&&&&,None,nonword,baklara,,,,,,,,,,,,,,,0,178,178,175,,,,,,,,,,,,,AMP,right,0.5670394949847832,0,,,,,,,,,,,,,,right,0,0.5670394949847832,,,,,,,,,,,1018,2019_Mar_06_1243,mf_amp_cond2,3.0.4,60.003964371266285,
troops,&&&&&&&&&&&,right,loyalty.vice,vicissifude,,,,,,,,,,,,,,,0,179,179,195,,,,,,,,,,,,,AMP,left,0.3003430438693613,0,,,,,,,,,,,,,,left,0,0.3003430438693613,,,,,,,,,,,1018,2019_Mar_06_1243,mf_amp_cond2,3.0.4,60.003964371266285,
ensure,&&&&&&&,left,fairness.virtue,vurtain,,,,,,,,,,,,,,,0,180,180,96,,,,,,,,,,,,,AMP,right,0.5670244210632518,0,,,,,,,,,,,,,,right,0,0.5670244210632518,,,,,,,,,,,1018,2019_Mar_06_1243,mf_amp_cond2,3.0.4,60.003964371266285,
ban,&&&&&&&&&&&&,right,loyalty.vice,gusinesslike,,,,,,,,,,,,,,,0,181,181,65,,,,,,,,,,,,,AMP,left,0.28364851721562445,0,,,,,,,,,,,,,,left,0,0.28364851721562445,,,,,,,,,,,1018,2019_Mar_06_1243,mf_amp_cond2,3.0.4,60.003964371266285,
corruption,&&&&&&&&&&&&,right,sanctity.vice,nonobservalt,,,,,,,,,,,,,,,0,182,182,177,,,,,,,,,,,,,AMP,left,1.2171975466189906,0,,,,,,,,,,,,,,left,0,1.2171975466189906,,,,,,,,,,,1018,2019_Mar_06_1243,mf_amp_cond2,3.0.4,60.003964371266285,
fighters,&&&&&&&&,right,authority.vice,proached,,,,,,,,,,,,,,,0,183,183,318,,,,,,,,,,,,,AMP,right,0.8671445633517578,1,,,,,,,,,,,,,,right,1,0.8671445633517578,,,,,,,,,,,1018,2019_Mar_06_1243,mf_amp_cond2,3.0.4,60.003964371266285,
refused,&&&&&&&&&,right,authority.vice,gaultless,,,,,,,,,,,,,,,0,184,184,207,,,,,,,,,,,,,AMP,left,0.4170215987833217,0,,,,,,,,,,,,,,left,0,0.4170215987833217,,,,,,,,,,,1018,2019_Mar_06_1243,mf_amp_cond2,3.0.4,60.003964371266285,
integrity,&&&&&&&&&,left,fairness.virtue,gondensed,,,,,,,,,,,,,,,0,185,185,185,,,,,,,,,,,,,AMP,right,0.40034086303785443,0,,,,,,,,,,,,,,right,0,0.40034086303785443,,,,,,,,,,,1018,2019_Mar_06_1243,mf_amp_cond2,3.0.4,60.003964371266285,
shot,&&&&&&&&&&,right,care.vice,ammessment,,,,,,,,,,,,,,,0,186,186,148,,,,,,,,,,,,,AMP,right,0.3836633345345035,1,,,,,,,,,,,,,,right,1,0.3836633345345035,,,,,,,,,,,1018,2019_Mar_06_1243,mf_amp_cond2,3.0.4,60.003964371266285,
frocessing,&&&&&&&&&&&&,None,nonword,edancipation,,,,,,,,,,,,,,,0,187,187,273,,,,,,,,,,,,,AMP,right,1.1005321413977072,0,,,,,,,,,,,,,,right,0,1.1005321413977072,,,,,,,,,,,1018,2019_Mar_06_1243,mf_amp_cond2,3.0.4,60.003964371266285,
ability,&&&&&&&&,left,authority.virtue,slending,,,,,,,,,,,,,,,0,188,188,229,,,,,,,,,,,,,AMP,right,0.5503754368983209,0,,,,,,,,,,,,,,right,0,0.5503754368983209,,,,,,,,,,,1018,2019_Mar_06_1243,mf_amp_cond2,3.0.4,60.003964371266285,
hefurbished,&&&&&&&&,None,nonword,thadowed,,,,,,,,,,,,,,,0,189,189,107,,,,,,,,,,,,,AMP,right,0.7504381058970466,0,,,,,,,,,,,,,,right,0,0.7504381058970466,,,,,,,,,,,1018,2019_Mar_06_1243,mf_amp_cond2,3.0.4,60.003964371266285,
shot,&&&&&&&&,right,care.vice,thadowed,,,,,,,,,,,,,,,0,190,190,192,,,,,,,,,,,,,AMP,right,0.5670455886283889,1,,,,,,,,,,,,,,right,1,0.5670455886283889,,,,,,,,,,,1018,2019_Mar_06_1243,mf_amp_cond2,3.0.4,60.003964371266285,
ensure,&&&&&&&,left,fairness.virtue,Daptist,,,,,,,,,,,,,,,0,191,191,225,,,,,,,,,,,,,AMP,right,0.3836319037945941,0,,,,,,,,,,,,,,right,0,0.3836319037945941,,,,,,,,,,,1018,2019_Mar_06_1243,mf_amp_cond2,3.0.4,60.003964371266285,
attacks,&&&&&&&&&&,right,care.vice,gationwide,,,,,,,,,,,,,,,0,192,192,226,,,,,,,,,,,,,AMP,right,0.750450293184258,1,,,,,,,,,,,,,,right,1,0.750450293184258,,,,,,,,,,,1018,2019_Mar_06_1243,mf_amp_cond2,3.0.4,60.003964371266285,
war,&&&,right,sanctity.vice,asn,,,,,,,,,,,,,,,0,193,193,63,,,,,,,,,,,,,AMP,right,0.26698445912916213,1,,,,,,,,,,,,,,right,1,0.26698445912916213,,,,,,,,,,,1018,2019_Mar_06_1243,mf_amp_cond2,3.0.4,60.003964371266285,
care,&&&&&&&&&&&,left,care.virtue,presentkess,,,,,,,,,,,,,,,0,194,194,141,,,,,,,,,,,,,AMP,right,1.1006023795343935,0,,,,,,,,,,,,,,right,0,1.1006023795343935,,,,,,,,,,,1018,2019_Mar_06_1243,mf_amp_cond2,3.0.4,60.003964371266285,
injured,&&&&&&&&&&&&,right,care.vice,quarterbocks,,,,,,,,,,,,,,,0,195,195,5,,,,,,,,,,,,,AMP,right,0.38365659944247454,1,,,,,,,,,,,,,,right,1,0.38365659944247454,,,,,,,,,,,1018,2019_Mar_06_1243,mf_amp_cond2,3.0.4,60.003964371266285,
attacks,&&&,right,care.vice,oam,,,,,,,,,,,,,,,0,196,196,248,,,,,,,,,,,,,AMP,right,0.3336551241809502,1,,,,,,,,,,,,,,right,1,0.3336551241809502,,,,,,,,,,,1018,2019_Mar_06_1243,mf_amp_cond2,3.0.4,60.003964371266285,
egpeditious,&&&&&&&&,None,nonword,emassion,,,,,,,,,,,,,,,0,197,197,253,,,,,,,,,,,,,AMP,right,0.40033797651994973,0,,,,,,,,,,,,,,right,0,0.40033797651994973,,,,,,,,,,,1018,2019_Mar_06_1243,mf_amp_cond2,3.0.4,60.003964371266285,
intelligence,&&&&&&&&&,left,loyalty.virtue,refuejing,,,,,,,,,,,,,,,0,198,198,299,,,,,,,,,,,,,AMP,left,0.3669845232507214,1,,,,,,,,,,,,,,left,1,0.3669845232507214,,,,,,,,,,,1018,2019_Mar_06_1243,mf_amp_cond2,3.0.4,60.003964371266285,
opportunity,&&&&&,left,fairness.virtue,dumid,,,,,,,,,,,,,,,0,199,199,92,,,,,,,,,,,,,AMP,left,0.46703141275793314,1,,,,,,,,,,,,,,left,1,0.46703141275793314,,,,,,,,,,,1018,2019_Mar_06_1243,mf_amp_cond2,3.0.4,60.003964371266285,
encourage,&&&&&&&&&,left,authority.virtue,faspberry,,,,,,,,,,,,,,,0,200,200,130,,,,,,,,,,,,,AMP,right,0.30028755916282535,0,,,,,,,,,,,,,,right,0,0.30028755916282535,,,,,,,,,,,1018,2019_Mar_06_1243,mf_amp_cond2,3.0.4,60.003964371266285,
ability,&&&&&,left,authority.virtue,lenon,,,,,,,,,,,,,,,0,201,201,281,,,,,,,,,,,,,AMP,right,0.7669507834361866,0,,,,,,,,,,,,,,right,0,0.7669507834361866,,,,,,,,,,,1018,2019_Mar_06_1243,mf_amp_cond2,3.0.4,60.003964371266285,
restore,&&&&&&&&&,left,care.virtue,taxpayung,,,,,,,,,,,,,,,0,202,202,284,,,,,,,,,,,,,AMP,left,0.33372215495910496,1,,,,,,,,,,,,,,left,1,0.33372215495910496,,,,,,,,,,,1018,2019_Mar_06_1243,mf_amp_cond2,3.0.4,60.003964371266285,
violence,&&&&&&&&&&&,right,care.vice,blunderints,,,,,,,,,,,,,,,0,203,203,200,,,,,,,,,,,,,AMP,right,0.9504837766289711,1,,,,,,,,,,,,,,right,1,0.9504837766289711,,,,,,,,,,,1018,2019_Mar_06_1243,mf_amp_cond2,3.0.4,60.003964371266285,
integrity,&&&&&&&,left,fairness.virtue,halaise,,,,,,,,,,,,,,,0,204,204,52,,,,,,,,,,,,,AMP,right,0.7671207658713683,0,,,,,,,,,,,,,,right,0,0.7671207658713683,,,,,,,,,,,1018,2019_Mar_06_1243,mf_amp_cond2,3.0.4,60.003964371266285,
compassion,&&&,left,care.virtue,oam,,,,,,,,,,,,,,,0,205,205,239,,,,,,,,,,,,,AMP,right,0.6671101178508252,0,,,,,,,,,,,,,,right,0,0.6671101178508252,,,,,,,,,,,1018,2019_Mar_06_1243,mf_amp_cond2,3.0.4,60.003964371266285,
illegal,&&&&&&&&,right,fairness.vice,perified,,,,,,,,,,,,,,,0,206,206,269,,,,,,,,,,,,,AMP,right,0.783765901462175,1,,,,,,,,,,,,,,right,1,0.783765901462175,,,,,,,,,,,1018,2019_Mar_06_1243,mf_amp_cond2,3.0.4,60.003964371266285,
hope,&&&&&&&&,left,loyalty.virtue,sfumatoy,,,,,,,,,,,,,,,0,207,207,309,,,,,,,,,,,,,AMP,right,1.0838360111229122,0,,,,,,,,,,,,,,right,0,1.0838360111229122,,,,,,,,,,,1018,2019_Mar_06_1243,mf_amp_cond2,3.0.4,60.003964371266285,
fraud,&&&&&&&&&&&&,right,fairness.vice,nonobservalt,,,,,,,,,,,,,,,0,208,208,317,,,,,,,,,,,,,AMP,left,0.5837564722169191,0,,,,,,,,,,,,,,left,0,0.5837564722169191,,,,,,,,,,,1018,2019_Mar_06_1243,mf_amp_cond2,3.0.4,60.003964371266285,
gun,&&&&&&&&&,right,authority.vice,pescinded,,,,,,,,,,,,,,,0,209,209,10,,,,,,,,,,,,,AMP,right,0.917153415386565,1,,,,,,,,,,,,,,right,1,0.917153415386565,,,,,,,,,,,1018,2019_Mar_06_1243,mf_amp_cond2,3.0.4,60.003964371266285,
forepo,&&&&&&&&&&&,None,nonword,shoirmaster,,,,,,,,,,,,,,,0,210,210,20,,,,,,,,,,,,,AMP,left,0.2836597424466163,0,,,,,,,,,,,,,,left,0,0.2836597424466163,,,,,,,,,,,1018,2019_Mar_06_1243,mf_amp_cond2,3.0.4,60.003964371266285,
dignity,&&&&&&&&,left,sanctity.virtue,fontacts,,,,,,,,,,,,,,,0,211,211,40,,,,,,,,,,,,,AMP,right,0.5670715671731159,0,,,,,,,,,,,,,,right,0,0.5670715671731159,,,,,,,,,,,1018,2019_Mar_06_1243,mf_amp_cond2,3.0.4,60.003964371266285,
loyalty,&&&&&&&&,left,loyalty.virtue,proached,,,,,,,,,,,,,,,0,212,212,164,,,,,,,,,,,,,AMP,right,0.9670173010090366,0,,,,,,,,,,,,,,right,0,0.9670173010090366,,,,,,,,,,,1018,2019_Mar_06_1243,mf_amp_cond2,3.0.4,60.003964371266285,
faith,&&&&&&&&&,left,sanctity.virtue,discovars,,,,,,,,,,,,,,,0,213,213,54,,,,,,,,,,,,,AMP,right,0.41702256083954126,0,,,,,,,,,,,,,,right,0,0.41702256083954126,,,,,,,,,,,1018,2019_Mar_06_1243,mf_amp_cond2,3.0.4,60.003964371266285,
suicide,&&&&&&&&&&,right,care.vice,fonderland,,,,,,,,,,,,,,,0,214,214,152,,,,,,,,,,,,,AMP,right,0.38368129497393966,1,,,,,,,,,,,,,,right,1,0.38368129497393966,,,,,,,,,,,1018,2019_Mar_06_1243,mf_amp_cond2,3.0.4,60.003964371266285,
conspiracy,&&&&&&&&&&,right,sanctity.vice,ammessment,,,,,,,,,,,,,,,0,215,215,172,,,,,,,,,,,,,AMP,right,0.40035176754463464,1,,,,,,,,,,,,,,right,1,0.40035176754463464,,,,,,,,,,,1018,2019_Mar_06_1243,mf_amp_cond2,3.0.4,60.003964371266285,
praised,&&&&&&,left,loyalty.virtue,letish,,,,,,,,,,,,,,,0,216,216,203,,,,,,,,,,,,,AMP,right,0.7837687878636643,0,,,,,,,,,,,,,,right,0,0.7837687878636643,,,,,,,,,,,1018,2019_Mar_06_1243,mf_amp_cond2,3.0.4,60.003964371266285,
penalty,&&&&&,right,authority.vice,lenon,,,,,,,,,,,,,,,0,217,217,142,,,,,,,,,,,,,AMP,right,0.30035138269886374,1,,,,,,,,,,,,,,right,1,0.30035138269886374,,,,,,,,,,,1018,2019_Mar_06_1243,mf_amp_cond2,3.0.4,60.003964371266285,
unpleasant,&&&&&&&&&,None,control,gaultless,,,,,,,,,,,,,,,0,218,218,87,,,,,,,,,,,,,AMP,left,0.35035638592671603,0,,,,,,,,,,,,,,left,0,0.35035638592671603,,,,,,,,,,,1018,2019_Mar_06_1243,mf_amp_cond2,3.0.4,60.003964371266285,
safety,&&&&&&&&&&,left,care.virtue,honstables,,,,,,,,,,,,,,,0,219,219,320,,,,,,,,,,,,,AMP,right,1.8840607086895034,0,,,,,,,,,,,,,,right,0,1.8840607086895034,,,,,,,,,,,1018,2019_Mar_06_1243,mf_amp_cond2,3.0.4,60.003964371266285,
charges,&&&&&&,right,fairness.vice,strofe,,,,,,,,,,,,,,,0,220,220,223,,,,,,,,,,,,,AMP,left,2.200808026245795,0,,,,,,,,,,,,,,left,0,2.200808026245795,,,,,,,,,,,1018,2019_Mar_06_1243,mf_amp_cond2,3.0.4,60.003964371266285,
safety,&&&&&&&&&,left,care.virtue,Lacedonia,,,,,,,,,,,,,,,0,221,221,69,,,,,,,,,,,,,AMP,right,0.9004640200873837,0,,,,,,,,,,,,,,right,0,0.9004640200873837,,,,,,,,,,,1018,2019_Mar_06_1243,mf_amp_cond2,3.0.4,60.003964371266285,
win,&&&&&&&&&&,left,fairness.virtue,gationwide,,,,,,,,,,,,,,,0,222,222,116,,,,,,,,,,,,,AMP,right,0.5170469998847693,0,,,,,,,,,,,,,,right,0,0.5170469998847693,,,,,,,,,,,1018,2019_Mar_06_1243,mf_amp_cond2,3.0.4,60.003964371266285,
integrity,&&&&&&,left,fairness.virtue,prones,,,,,,,,,,,,,,,0,223,223,128,,,,,,,,,,,,,AMP,right,0.333686234196648,0,,,,,,,,,,,,,,right,0,0.333686234196648,,,,,,,,,,,1018,2019_Mar_06_1243,mf_amp_cond2,3.0.4,60.003964371266285,
threatened,&&&&&&&&&&,right,fairness.vice,honstables,,,,,,,,,,,,,,,0,224,224,191,,,,,,,,,,,,,AMP,right,0.5003864696482196,1,,,,,,,,,,,,,,right,1,0.5003864696482196,,,,,,,,,,,1018,2019_Mar_06_1243,mf_amp_cond2,3.0.4,60.003964371266285,
growth,&&&&,left,care.virtue,yane,,,,,,,,,,,,,,,0,225,225,158,,,,,,,,,,,,,AMP,right,0.5170235871337354,0,,,,,,,,,,,,,,right,0,0.5170235871337354,,,,,,,,,,,1018,2019_Mar_06_1243,mf_amp_cond2,3.0.4,60.003964371266285,
freedom,&&&&&&&&,left,sanctity.virtue,divility,,,,,,,,,,,,,,,0,226,226,45,,,,,,,,,,,,,AMP,right,1.1672028064494953,0,,,,,,,,,,,,,,right,0,1.1672028064494953,,,,,,,,,,,1018,2019_Mar_06_1243,mf_amp_cond2,3.0.4,60.003964371266285,
growth,&&&&&&&&,left,care.virtue,gowlands,,,,,,,,,,,,,,,0,227,227,264,,,,,,,,,,,,,AMP,right,0.7337827072478831,0,,,,,,,,,,,,,,right,0,0.7337827072478831,,,,,,,,,,,1018,2019_Mar_06_1243,mf_amp_cond2,3.0.4,60.003964371266285,
squets,&&&&&&&&&&,None,nonword,lorthwhile,,,,,,,,,,,,,,,0,228,228,133,,,,,,,,,,,,,AMP,right,0.5337594869779423,0,,,,,,,,,,,,,,right,0,0.5337594869779423,,,,,,,,,,,1018,2019_Mar_06_1243,mf_amp_cond2,3.0.4,60.003964371266285,
riot,&&&&&&&&&&&&,right,authority.vice,quarterbocks,,,,,,,,,,,,,,,0,229,229,108,,,,,,,,,,,,,AMP,right,2.500896096462384,1,,,,,,,,,,,,,,right,1,2.500896096462384,,,,,,,,,,,1018,2019_Mar_06_1243,mf_amp_cond2,3.0.4,60.003964371266285,
safety,&&&&&&&&&&,left,care.virtue,reelectiob,,,,,,,,,,,,,,,0,230,230,155,,,,,,,,,,,,,AMP,right,0.6503998758271337,0,,,,,,,,,,,,,,right,0,0.6503998758271337,,,,,,,,,,,1018,2019_Mar_06_1243,mf_amp_cond2,3.0.4,60.003964371266285,
attacks,&&&&&&&,right,care.vice,baklara,,,,,,,,,,,,,,,0,231,231,145,,,,,,,,,,,,,AMP,right,0.41700075182598084,1,,,,,,,,,,,,,,right,1,0.41700075182598084,,,,,,,,,,,1018,2019_Mar_06_1243,mf_amp_cond2,3.0.4,60.003964371266285,
hope,&&&&&&,left,loyalty.virtue,tislay,,,,,,,,,,,,,,,0,232,232,105,,,,,,,,,,,,,AMP,right,0.36700055934488773,0,,,,,,,,,,,,,,right,0,0.36700055934488773,,,,,,,,,,,1018,2019_Mar_06_1243,mf_amp_cond2,3.0.4,60.003964371266285,
dramens,&&&&&&&&&,None,nonword,discovars,,,,,,,,,,,,,,,0,233,233,316,,,,,,,,,,,,,AMP,right,0.43373825517483056,0,,,,,,,,,,,,,,right,0,0.43373825517483056,,,,,,,,,,,1018,2019_Mar_06_1243,mf_amp_cond2,3.0.4,60.003964371266285,
ensure,&&&&&&,left,fairness.virtue,prones,,,,,,,,,,,,,,,0,234,234,250,,,,,,,,,,,,,AMP,right,0.38368706800974905,0,,,,,,,,,,,,,,right,0,0.38368706800974905,,,,,,,,,,,1018,2019_Mar_06_1243,mf_amp_cond2,3.0.4,60.003964371266285,
opportunity,&&&&&&&&,left,fairness.virtue,ugeasily,,,,,,,,,,,,,,,0,235,235,245,,,,,,,,,,,,,AMP,left,0.5504116783849895,1,,,,,,,,,,,,,,left,1,0.5504116783849895,,,,,,,,,,,1018,2019_Mar_06_1243,mf_amp_cond2,3.0.4,60.003964371266285,
conspiracy,&&&&&&&&,right,sanctity.vice,emassion,,,,,,,,,,,,,,,0,236,236,34,,,,,,,,,,,,,AMP,right,0.33364069170784205,1,,,,,,,,,,,,,,right,1,0.33364069170784205,,,,,,,,,,,1018,2019_Mar_06_1243,mf_amp_cond2,3.0.4,60.003964371266285,
celebrated,&&&&&&&&&&&&,left,authority.virtue,edancipation,,,,,,,,,,,,,,,0,237,237,162,,,,,,,,,,,,,AMP,right,0.7337567288195714,0,,,,,,,,,,,,,,right,0,0.7337567288195714,,,,,,,,,,,1018,2019_Mar_06_1243,mf_amp_cond2,3.0.4,60.003964371266285,
charges,&&&&&&&&&&,right,fairness.vice,Oregoniuns,,,,,,,,,,,,,,,0,238,238,150,,,,,,,,,,,,,AMP,right,0.21695187373552471,1,,,,,,,,,,,,,,right,1,0.21695187373552471,,,,,,,,,,,1018,2019_Mar_06_1243,mf_amp_cond2,3.0.4,60.003964371266285,
fraud,&&&&&,right,fairness.vice,mecan,,,,,,,,,,,,,,,0,239,239,122,,,,,,,,,,,,,AMP,right,0.3503268795320764,1,,,,,,,,,,,,,,right,1,0.3503268795320764,,,,,,,,,,,1018,2019_Mar_06_1243,mf_amp_cond2,3.0.4,60.003964371266285,
violence,&&&&&&,right,care.vice,letish,,,,,,,,,,,,,,,0,240,240,103,,,,,,,,,,,,,AMP,right,0.2836372919846326,1,,,,,,,,,,,,,,right,1,0.2836372919846326,,,,,,,,,,,1018,2019_Mar_06_1243,mf_amp_cond2,3.0.4,60.003964371266285,
