words,mask,corr_ans,category,nonwords,tweets,topic,LDT_prac_loop.thisRepN,LDT_prac_loop.thisTrialN,LDT_prac_loop.thisN,LDT_prac_loop.thisIndex,LDT_loop.thisRepN,LDT_loop.thisTrialN,LDT_loop.thisN,LDT_loop.thisIndex,AMP_pracloop.thisRepN,AMP_pracloop.thisTrialN,AMP_pracloop.thisN,AMP_pracloop.thisIndex,AMP_loop.thisRepN,AMP_loop.thisTrialN,AMP_loop.thisN,AMP_loop.thisIndex,tweet_loop.thisRepN,tweet_loop.thisTrialN,tweet_loop.thisN,tweet_loop.thisIndex,begin_key.keys,begin_key.rt,key_resp_AMP_instr1.keys,key_resp_AMP_instr1.rt,key_resp_LDT_instr.keys,key_resp_LDT_instr.rt,resp_LDT_prac.keys,resp_LDT_prac.rt,task,keypress,RT,corr,resp_LDT_ready.keys,resp_LDT_ready.rt,resp_LDT.keys,resp_LDT.corr,resp_LDT.rt,LDT_rating.response,LDT_rating.rt,resp_AMP_ready1.keys,resp_AMP_ready1.rt,resp_AMP_prac.keys,resp_AMP_prac.rt,resp_AMP_ready.keys,resp_AMP_ready.rt,resp_AMP.keys,resp_AMP.corr,resp_AMP.rt,AMP_nonword_rating.response,AMP_nonword_rating.rt,AMP_word_rating.response,AMP_word_rating.rt,AMP_random_rating.response,AMP_random_rating.rt,key_resp_LDT_instr_2.keys,key_resp_LDT_instr_2.rt,resp_tweets.keys,resp_tweets.rt,participant,date,expName,psychopyVersion,frameRate,
,,,,,,,,,,,,,,,,,,,,,,,,,,,right,1538.5575449375901,,,,,,,,,,,,,,,,,,,,,,,,,,,,,,,,,,,,,1020,2019_Mar_06_1240,mf_amp_cond2,3.0.4,60.064880900199206,
,,,,,,,,,,,,,,,,,,,,,,,,,,,,,right,0.11697890760842711,,,,,,,,,,,,,,,,,,,,,,,,,,,,,,,,,,,1020,2019_Mar_06_1240,mf_amp_cond2,3.0.4,60.064880900199206,
,,,,,,,,,,,,,,,,,,,,,,,,,,,,,,,right,1.634008745313622,,,,,,,,,,,,,,,,,,,,,,,,,,,,,,,,,1020,2019_Mar_06_1240,mf_amp_cond2,3.0.4,60.064880900199206,
bisebell,&&&&&&&,,,,,,0,0,0,1,,,,,,,,,,,,,,,,,,,,,,,left,2.250793938874267,LDT_prac,left,2.250793938874267,0,,,,,,,,,,,,,,,,,,,,,,,,,,,1020,2019_Mar_06_1240,mf_amp_cond2,3.0.4,60.064880900199206,
keyboard,&&&&&&&,,,,,,0,1,1,0,,,,,,,,,,,,,,,,,,,,,,,right,0.6503990701166913,LDT_prac,right,0.6503990701166913,0,,,,,,,,,,,,,,,,,,,,,,,,,,,1020,2019_Mar_06_1240,mf_amp_cond2,3.0.4,60.064880900199206,
,,,,,,,,,,,,,,,,,,,,,,,,,,,,,,,,,,,,,,,right,1.2005549714667723,,,,,,,,,,,,,,,,,,,,,,,,,1020,2019_Mar_06_1240,mf_amp_cond2,3.0.4,60.064880900199206,
disregord,&&&&&&&&&,right,nonword,,,,,,,,0,0,0,95,,,,,,,,,,,,,,,,,,,,,LDT,right,1.4172533145174384,1,,,right,1,1.4172533145174384,,,,,,,,,,,,,,,,,,,,,,1020,2019_Mar_06_1240,mf_amp_cond2,3.0.4,60.064880900199206,
dormandi,&&&&&&&&,None,nonword,,,,,,,,0,1,1,180,,,,,,,,,,,,,,,,,,,,,LDT,left,0.5503881016047671,0,,,left,0,0.5503881016047671,,,,,,,,,,,,,,,,,,,,,,1020,2019_Mar_06_1240,mf_amp_cond2,3.0.4,60.064880900199206,
glacenta,&&&&&&&&,right,nonword,,,,,,,,0,2,2,77,,,,,,,,,,,,,,,,,,,,,LDT,left,0.7671210822882131,0,,,left,0,0.7671210822882131,,,,,,,,,,,,,,,,,,,,,,1020,2019_Mar_06_1240,mf_amp_cond2,3.0.4,60.064880900199206,
killed,&&&&&&,left,care.vice,,,,,,,,0,3,3,54,,,,,,,,,,,,,,,,,,,,,LDT,right,1.600619692588225,0,,,right,0,1.600619692588225,,,,,,,,,,,,,,,,,,,,,,1020,2019_Mar_06_1240,mf_amp_cond2,3.0.4,60.064880900199206,
mostly,&&&&&&,left,neutral,,,,,,,,0,4,4,50,,,,,,,,,,,,,,,,,,,,,LDT,right,0.5837017855374143,0,,,right,0,0.5837017855374143,,,,,,,,,,,,,,,,,,,,,,1020,2019_Mar_06_1240,mf_amp_cond2,3.0.4,60.064880900199206,
egpeditious,&&&&&&&&&&&,right,nonword,,,,,,,,0,5,5,81,,,,,,,,,,,,,,,,,,,,,LDT,left,0.5503800836158916,0,,,left,0,0.5503800836158916,,,,,,,,,,,,,,,,,,,,,,1020,2019_Mar_06_1240,mf_amp_cond2,3.0.4,60.064880900199206,
Cunday,&&&&&&,None,nonword,,,,,,,,0,6,6,51,,,,,,,,,,,,,,,,,,,,,LDT,left,0.6838413622463122,0,,,left,0,0.6838413622463122,,,,,,,,,,,,,,,,,,,,,,1020,2019_Mar_06_1240,mf_amp_cond2,3.0.4,60.064880900199206,
lies,&&&&,left,fairness.vice,,,,,,,,0,7,7,66,,,,,,,,,,,,,,,,,,,,,LDT,right,0.5670433400664479,0,,,right,0,0.5670433400664479,,,,,,,,,,,,,,,,,,,,,,1020,2019_Mar_06_1240,mf_amp_cond2,3.0.4,60.064880900199206,
aubos,&&&&&,right,nonword,,,,,,,,0,8,8,120,,,,,,,,,,,,,,,,,,,,,LDT,left,0.5670718839392066,0,,,left,0,0.5670718839392066,,,,,,,,,,,,,,,,,,,,,,1020,2019_Mar_06_1240,mf_amp_cond2,3.0.4,60.064880900199206,
besides,&&&&&&&,left,neutral,,,,,,,,0,9,9,72,,,,,,,,,,,,,,,,,,,,,LDT,left,0.7670806716196239,1,,,left,1,0.7670806716196239,,,,,,,,,,,,,,,,,,,,,,1020,2019_Mar_06_1240,mf_amp_cond2,3.0.4,60.064880900199206,
greaks,&&&&&&,right,nonword,,,,,,,,0,10,10,133,,,,,,,,,,,,,,,,,,,,,LDT,right,1.2838228247128427,1,,,right,1,1.2838228247128427,,,,,,,,,,,,,,,,,,,,,,1020,2019_Mar_06_1240,mf_amp_cond2,3.0.4,60.064880900199206,
neputized,&&&&&&&&&,right,nonword,,,,,,,,0,11,11,185,,,,,,,,,,,,,,,,,,,,,LDT,left,0.6003935858607292,0,,,left,0,0.6003935858607292,,,,,,,,,,,,,,,,,,,,,,1020,2019_Mar_06_1240,mf_amp_cond2,3.0.4,60.064880900199206,
baladroit,&&&&&&&&&,right,nonword,,,,,,,,0,12,12,55,,,,,,,,,,,,,,,,,,,,,LDT,left,0.43368052202276886,0,,,left,0,0.43368052202276886,,,,,,,,,,,,,,,,,,,,,,1020,2019_Mar_06_1240,mf_amp_cond2,3.0.4,60.064880900199206,
gazily,&&&&&&,right,nonword,,,,,,,,0,13,13,145,,,,,,,,,,,,,,,,,,,,,LDT,left,0.45034570258576423,0,,,left,0,0.45034570258576423,,,,,,,,,,,,,,,,,,,,,,1020,2019_Mar_06_1240,mf_amp_cond2,3.0.4,60.064880900199206,
allears,&&&&&&&,right,nonword,,,,,,,,0,14,14,188,,,,,,,,,,,,,,,,,,,,,LDT,left,0.5837373853428289,0,,,left,0,0.5837373853428289,,,,,,,,,,,,,,,,,,,,,,1020,2019_Mar_06_1240,mf_amp_cond2,3.0.4,60.064880900199206,
fornicalion,&&&&&&&&&&&,right,nonword,,,,,,,,0,15,15,68,,,,,,,,,,,,,,,,,,,,,LDT,right,0.73375480028335,1,,,right,1,0.73375480028335,,,,,,,,,,,,,,,,,,,,,,1020,2019_Mar_06_1240,mf_amp_cond2,3.0.4,60.064880900199206,
violence,&&&&&&&&,left,care.vice,,,,,,,,0,16,16,22,,,,,,,,,,,,,,,,,,,,,LDT,right,0.7504324890905991,0,,,right,0,0.7504324890905991,,,,,,,,,,,,,,,,,,,,,,1020,2019_Mar_06_1240,mf_amp_cond2,3.0.4,60.064880900199206,
therefore,&&&&&&&&&,left,neutral,,,,,,,,0,17,17,45,,,,,,,,,,,,,,,,,,,,,LDT,right,0.5670372464228421,0,,,right,0,0.5670372464228421,,,,,,,,,,,,,,,,,,,,,,1020,2019_Mar_06_1240,mf_amp_cond2,3.0.4,60.064880900199206,
fontacts,&&&&&&&&,right,nonword,,,,,,,,0,18,18,159,,,,,,,,,,,,,,,,,,,,,LDT,left,0.9004537527216598,0,,,left,0,0.9004537527216598,,,,,,,,,,,,,,,,,,,,,,1020,2019_Mar_06_1240,mf_amp_cond2,3.0.4,60.064880900199206,
war,&&&,left,sanctity.vice,,,,,,,,0,19,19,182,,,,,,,,,,,,,,,,,,,,,LDT,right,0.6670818903949112,0,,,right,0,0.6670818903949112,,,,,,,,,,,,,,,,,,,,,,1020,2019_Mar_06_1240,mf_amp_cond2,3.0.4,60.064880900199206,
seem,&&&&,left,neutral,,,,,,,,0,20,20,15,,,,,,,,,,,,,,,,,,,,,LDT,left,1.017156521556899,1,,,left,1,1.017156521556899,,,,,,,,,,,,,,,,,,,,,,1020,2019_Mar_06_1240,mf_amp_cond2,3.0.4,60.064880900199206,
either,&&&&&&,left,neutral,,,,,,,,0,21,21,183,,,,,,,,,,,,,,,,,,,,,LDT,right,0.5170179711421952,0,,,right,0,0.5170179711421952,,,,,,,,,,,,,,,,,,,,,,1020,2019_Mar_06_1240,mf_amp_cond2,3.0.4,60.064880900199206,
Phintoism,&&&&&&&&&,right,nonword,,,,,,,,0,22,22,104,,,,,,,,,,,,,,,,,,,,,LDT,left,0.567022172617726,0,,,left,0,0.567022172617726,,,,,,,,,,,,,,,,,,,,,,1020,2019_Mar_06_1240,mf_amp_cond2,3.0.4,60.064880900199206,
hereby,&&&&&&,left,neutral,,,,,,,,0,23,23,8,,,,,,,,,,,,,,,,,,,,,LDT,right,0.6337556983344257,0,,,right,0,0.6337556983344257,,,,,,,,,,,,,,,,,,,,,,1020,2019_Mar_06_1240,mf_amp_cond2,3.0.4,60.064880900199206,
tove,&&&&,right,nonword,,,,,,,,0,24,24,162,,,,,,,,,,,,,,,,,,,,,LDT,right,1.667303506983444,1,,,right,1,1.667303506983444,,,,,,,,,,,,,,,,,,,,,,1020,2019_Mar_06_1240,mf_amp_cond2,3.0.4,60.064880900199206,
eight,&&&&&,left,neutral,,,,,,,,0,25,25,36,,,,,,,,,,,,,,,,,,,,,LDT,right,0.6003983966074884,0,,,right,0,0.6003983966074884,,,,,,,,,,,,,,,,,,,,,,1020,2019_Mar_06_1240,mf_amp_cond2,3.0.4,60.064880900199206,
carvels,&&&&&&&,None,nonword,,,,,,,,0,26,26,138,,,,,,,,,,,,,,,,,,,,,LDT,left,0.5837290466297418,0,,,left,0,0.5837290466297418,,,,,,,,,,,,,,,,,,,,,,1020,2019_Mar_06_1240,mf_amp_cond2,3.0.4,60.064880900199206,
useful,&&&&&&,left,authority.virtue,,,,,,,,0,27,27,67,,,,,,,,,,,,,,,,,,,,,LDT,right,1.0671783625148237,0,,,right,0,1.0671783625148237,,,,,,,,,,,,,,,,,,,,,,1020,2019_Mar_06_1240,mf_amp_cond2,3.0.4,60.064880900199206,
less,&&&&,left,neutral,,,,,,,,0,28,28,38,,,,,,,,,,,,,,,,,,,,,LDT,right,0.5837514969753101,0,,,right,0,0.5837514969753101,,,,,,,,,,,,,,,,,,,,,,1020,2019_Mar_06_1240,mf_amp_cond2,3.0.4,60.064880900199206,
openet,&&&&&&,None,nonword,,,,,,,,0,29,29,144,,,,,,,,,,,,,,,,,,,,,LDT,left,0.7837327028391883,0,,,left,0,0.7837327028391883,,,,,,,,,,,,,,,,,,,,,,1020,2019_Mar_06_1240,mf_amp_cond2,3.0.4,60.064880900199206,
everything,&&&&&&&&&&,left,neutral,,,,,,,,0,30,30,47,,,,,,,,,,,,,,,,,,,,,LDT,right,0.9338171480922028,0,,,right,0,0.9338171480922028,,,,,,,,,,,,,,,,,,,,,,1020,2019_Mar_06_1240,mf_amp_cond2,3.0.4,60.064880900199206,
touls,&&&&&,right,nonword,,,,,,,,0,31,31,89,,,,,,,,,,,,,,,,,,,,,LDT,left,0.8004475949564949,0,,,left,0,0.8004475949564949,,,,,,,,,,,,,,,,,,,,,,1020,2019_Mar_06_1240,mf_amp_cond2,3.0.4,60.064880900199206,
with,&&&&,left,neutral,,,,,,,,0,32,32,157,,,,,,,,,,,,,,,,,,,,,LDT,right,0.6504000322893262,0,,,right,0,0.6504000322893262,,,,,,,,,,,,,,,,,,,,,,1020,2019_Mar_06_1240,mf_amp_cond2,3.0.4,60.064880900199206,
violations,&&&&&&&&&&,left,sanctity.vice,,,,,,,,0,33,33,71,,,,,,,,,,,,,,,,,,,,,LDT,right,0.6671069064177573,0,,,right,0,0.6671069064177573,,,,,,,,,,,,,,,,,,,,,,1020,2019_Mar_06_1240,mf_amp_cond2,3.0.4,60.064880900199206,
towards,&&&&&&&,left,neutral,,,,,,,,0,34,34,90,,,,,,,,,,,,,,,,,,,,,LDT,right,0.5170263098552823,0,,,right,0,0.5170263098552823,,,,,,,,,,,,,,,,,,,,,,1020,2019_Mar_06_1240,mf_amp_cond2,3.0.4,60.064880900199206,
myself,&&&&&&,left,neutral,,,,,,,,0,35,35,84,,,,,,,,,,,,,,,,,,,,,LDT,right,0.483698514290154,0,,,right,0,0.483698514290154,,,,,,,,,,,,,,,,,,,,,,1020,2019_Mar_06_1240,mf_amp_cond2,3.0.4,60.064880900199206,
also,&&&&,left,neutral,,,,,,,,0,36,36,160,,,,,,,,,,,,,,,,,,,,,LDT,right,0.7670938210794702,0,,,right,0,0.7670938210794702,,,,,,,,,,,,,,,,,,,,,,1020,2019_Mar_06_1240,mf_amp_cond2,3.0.4,60.064880900199206,
alar,&&&&,right,nonword,,,,,,,,0,37,37,49,,,,,,,,,,,,,,,,,,,,,LDT,left,0.700417703948915,0,,,left,0,0.700417703948915,,,,,,,,,,,,,,,,,,,,,,1020,2019_Mar_06_1240,mf_amp_cond2,3.0.4,60.064880900199206,
scandal,&&&&&&&,left,sanctity.vice,,,,,,,,0,38,38,177,,,,,,,,,,,,,,,,,,,,,LDT,right,0.683733280049637,0,,,right,0,0.683733280049637,,,,,,,,,,,,,,,,,,,,,,1020,2019_Mar_06_1240,mf_amp_cond2,3.0.4,60.064880900199206,
thru,&&&&,left,neutral,,,,,,,,0,39,39,70,,,,,,,,,,,,,,,,,,,,,LDT,right,0.7837554739089683,0,,,right,0,0.7837554739089683,,,,,,,,,,,,,,,,,,,,,,1020,2019_Mar_06_1240,mf_amp_cond2,3.0.4,60.064880900199206,
clamorek,&&&&&&&&,right,nonword,,,,,,,,0,40,40,10,,,,,,,,,,,,,,,,,,,,,LDT,left,0.8671166562708095,0,,,left,0,0.8671166562708095,,,,,,,,,,,,,,,,,,,,,,1020,2019_Mar_06_1240,mf_amp_cond2,3.0.4,60.064880900199206,
totalestic,&&&&&&&&&&,None,nonword,,,,,,,,0,41,41,94,,,,,,,,,,,,,,,,,,,,,LDT,left,0.800404618610628,0,,,left,0,0.800404618610628,,,,,,,,,,,,,,,,,,,,,,1020,2019_Mar_06_1240,mf_amp_cond2,3.0.4,60.064880900199206,
perfect,&&&&&&&,left,sanctity.virtue,,,,,,,,0,42,42,4,,,,,,,,,,,,,,,,,,,,,LDT,right,0.8171015504049137,0,,,right,0,0.8171015504049137,,,,,,,,,,,,,,,,,,,,,,1020,2019_Mar_06_1240,mf_amp_cond2,3.0.4,60.064880900199206,
interests,&&&&&&&&&,left,fairness.virtue,,,,,,,,0,43,43,175,,,,,,,,,,,,,,,,,,,,,LDT,right,0.7837756791850552,0,,,right,0,0.7837756791850552,,,,,,,,,,,,,,,,,,,,,,1020,2019_Mar_06_1240,mf_amp_cond2,3.0.4,60.064880900199206,
tenuflect,&&&&&&&&&,right,nonword,,,,,,,,0,44,44,106,,,,,,,,,,,,,,,,,,,,,LDT,left,0.6504042017040774,0,,,left,0,0.6504042017040774,,,,,,,,,,,,,,,,,,,,,,1020,2019_Mar_06_1240,mf_amp_cond2,3.0.4,60.064880900199206,
dignity,&&&&&&&,left,sanctity.virtue,,,,,,,,0,45,45,163,,,,,,,,,,,,,,,,,,,,,LDT,right,0.6003724185284227,0,,,right,0,0.6003724185284227,,,,,,,,,,,,,,,,,,,,,,1020,2019_Mar_06_1240,mf_amp_cond2,3.0.4,60.064880900199206,
vurtain,&&&&&&&,right,nonword,,,,,,,,0,46,46,30,,,,,,,,,,,,,,,,,,,,,LDT,left,0.717093468294479,0,,,left,0,0.717093468294479,,,,,,,,,,,,,,,,,,,,,,1020,2019_Mar_06_1240,mf_amp_cond2,3.0.4,60.064880900199206,
itself,&&&&&&,left,neutral,,,,,,,,0,47,47,147,,,,,,,,,,,,,,,,,,,,,LDT,right,0.8171009089564905,0,,,right,0,0.8171009089564905,,,,,,,,,,,,,,,,,,,,,,1020,2019_Mar_06_1240,mf_amp_cond2,3.0.4,60.064880900199206,
ability,&&&&&&&,left,authority.virtue,,,,,,,,0,48,48,119,,,,,,,,,,,,,,,,,,,,,LDT,right,1.1671614286024123,0,,,right,0,1.1671614286024123,,,,,,,,,,,,,,,,,,,,,,1020,2019_Mar_06_1240,mf_amp_cond2,3.0.4,60.064880900199206,
compassion,&&&&&&&&&&,left,care.virtue,,,,,,,,0,49,49,117,,,,,,,,,,,,,,,,,,,,,LDT,right,0.8337856535799801,0,,,right,0,0.8337856535799801,,,,,,,,,,,,,,,,,,,,,,1020,2019_Mar_06_1240,mf_amp_cond2,3.0.4,60.064880900199206,
although,&&&&&&&&,left,neutral,,,,,,,,0,50,50,155,,,,,,,,,,,,,,,,,,,,,LDT,right,1.6506222904426977,0,,,right,0,1.6506222904426977,,,,,,,,,,,,,,,,,,,,,,1020,2019_Mar_06_1240,mf_amp_cond2,3.0.4,60.064880900199206,
done,&&&&,left,neutral,,,,,,,,0,51,51,139,,,,,,,,,,,,,,,,,,,,,LDT,right,0.6504003530135378,0,,,right,0,0.6504003530135378,,,,,,,,,,,,,,,,,,,,,,1020,2019_Mar_06_1240,mf_amp_cond2,3.0.4,60.064880900199206,
strofe,&&&&&&,right,nonword,,,,,,,,0,52,52,194,,,,,,,,,,,,,,,,,,,,,LDT,left,0.5837014648132026,0,,,left,0,0.5837014648132026,,,,,,,,,,,,,,,,,,,,,,1020,2019_Mar_06_1240,mf_amp_cond2,3.0.4,60.064880900199206,
conspiracy,&&&&&&&&&&,left,sanctity.vice,,,,,,,,0,53,53,137,,,,,,,,,,,,,,,,,,,,,LDT,right,0.7672002996550873,0,,,right,0,0.7672002996550873,,,,,,,,,,,,,,,,,,,,,,1020,2019_Mar_06_1240,mf_amp_cond2,3.0.4,60.064880900199206,
wonderfujnoss,&&&&&&&&&&&&&,right,nonword,,,,,,,,0,54,54,170,,,,,,,,,,,,,,,,,,,,,LDT,left,1.4672716275090352,0,,,left,0,1.4672716275090352,,,,,,,,,,,,,,,,,,,,,,1020,2019_Mar_06_1240,mf_amp_cond2,3.0.4,60.064880900199206,
attacks,&&&&&&&,left,care.vice,,,,,,,,0,55,55,125,,,,,,,,,,,,,,,,,,,,,LDT,right,1.0171587666263804,0,,,right,0,1.0171587666263804,,,,,,,,,,,,,,,,,,,,,,1020,2019_Mar_06_1240,mf_amp_cond2,3.0.4,60.064880900199206,
fraud,&&&&&,left,fairness.vice,,,,,,,,0,56,56,28,,,,,,,,,,,,,,,,,,,,,LDT,right,0.5670491129858419,0,,,right,0,0.5670491129858419,,,,,,,,,,,,,,,,,,,,,,1020,2019_Mar_06_1240,mf_amp_cond2,3.0.4,60.064880900199206,
praised,&&&&&&&,left,loyalty.virtue,,,,,,,,0,57,57,121,,,,,,,,,,,,,,,,,,,,,LDT,right,0.6670972848078236,0,,,right,0,0.6670972848078236,,,,,,,,,,,,,,,,,,,,,,1020,2019_Mar_06_1240,mf_amp_cond2,3.0.4,60.064880900199206,
least,&&&&&,left,neutral,,,,,,,,0,58,58,58,,,,,,,,,,,,,,,,,,,,,LDT,right,0.5003627326805145,0,,,right,0,0.5003627326805145,,,,,,,,,,,,,,,,,,,,,,1020,2019_Mar_06_1240,mf_amp_cond2,3.0.4,60.064880900199206,
refused,&&&&&&&,left,authority.vice,,,,,,,,0,59,59,193,,,,,,,,,,,,,,,,,,,,,LDT,right,0.5170247062342241,0,,,right,0,0.5170247062342241,,,,,,,,,,,,,,,,,,,,,,1020,2019_Mar_06_1240,mf_amp_cond2,3.0.4,60.064880900199206,
opportunity,&&&&&&&&&&&,left,fairness.virtue,,,,,,,,0,60,60,0,,,,,,,,,,,,,,,,,,,,,LDT,right,1.0004996795905754,0,,,right,0,1.0004996795905754,,,,,,,,,,,,,,,,,,,,,,1020,2019_Mar_06_1240,mf_amp_cond2,3.0.4,60.064880900199206,
ning,&&&&,right,nonword,,,,,,,,0,61,61,108,,,,,,,,,,,,,,,,,,,,,LDT,left,0.7670880481600761,0,,,left,0,0.7670880481600761,,,,,,,,,,,,,,,,,,,,,,1020,2019_Mar_06_1240,mf_amp_cond2,3.0.4,60.064880900199206,
pafer,&&&&&,right,nonword,,,,,,,,0,62,62,123,,,,,,,,,,,,,,,,,,,,,LDT,left,0.6004096217220649,0,,,left,0,0.6004096217220649,,,,,,,,,,,,,,,,,,,,,,1020,2019_Mar_06_1240,mf_amp_cond2,3.0.4,60.064880900199206,
clean,&&&&&,left,sanctity.virtue,,,,,,,,0,63,63,17,,,,,,,,,,,,,,,,,,,,,LDT,right,0.733765063341707,0,,,right,0,0.733765063341707,,,,,,,,,,,,,,,,,,,,,,1020,2019_Mar_06_1240,mf_amp_cond2,3.0.4,60.064880900199206,
arrests,&&&&&&&,left,authority.vice,,,,,,,,0,64,64,83,,,,,,,,,,,,,,,,,,,,,LDT,right,0.6835819008992985,0,,,right,0,0.6835819008992985,,,,,,,,,,,,,,,,,,,,,,1020,2019_Mar_06_1240,mf_amp_cond2,3.0.4,60.064880900199206,
latter,&&&&&&,left,neutral,,,,,,,,0,65,65,46,,,,,,,,,,,,,,,,,,,,,LDT,right,0.5837194250198081,0,,,right,0,0.5837194250198081,,,,,,,,,,,,,,,,,,,,,,1020,2019_Mar_06_1240,mf_amp_cond2,3.0.4,60.064880900199206,
saned,&&&&&,None,nonword,,,,,,,,0,66,66,132,,,,,,,,,,,,,,,,,,,,,LDT,left,0.767089651664719,0,,,left,0,0.767089651664719,,,,,,,,,,,,,,,,,,,,,,1020,2019_Mar_06_1240,mf_amp_cond2,3.0.4,60.064880900199206,
Loorish,&&&&&&&,right,nonword,,,,,,,,0,67,67,112,,,,,,,,,,,,,,,,,,,,,LDT,left,0.5670523201115429,0,,,left,0,0.5670523201115429,,,,,,,,,,,,,,,,,,,,,,1020,2019_Mar_06_1240,mf_amp_cond2,3.0.4,60.064880900199206,
anyhow,&&&&&&,left,neutral,,,,,,,,0,68,68,16,,,,,,,,,,,,,,,,,,,,,LDT,right,0.6670693822670728,0,,,right,0,0.6670693822670728,,,,,,,,,,,,,,,,,,,,,,1020,2019_Mar_06_1240,mf_amp_cond2,3.0.4,60.064880900199206,
chreams,&&&&&&&,right,nonword,,,,,,,,0,69,69,199,,,,,,,,,,,,,,,,,,,,,LDT,left,0.967140132910572,0,,,left,0,0.967140132910572,,,,,,,,,,,,,,,,,,,,,,1020,2019_Mar_06_1240,mf_amp_cond2,3.0.4,60.064880900199206,
men,&&&,left,loyalty.vice,,,,,,,,0,70,70,93,,,,,,,,,,,,,,,,,,,,,LDT,right,0.5837226322619244,0,,,right,0,0.5837226322619244,,,,,,,,,,,,,,,,,,,,,,1020,2019_Mar_06_1240,mf_amp_cond2,3.0.4,60.064880900199206,
blamed,&&&&&&,left,loyalty.vice,,,,,,,,0,71,71,103,,,,,,,,,,,,,,,,,,,,,LDT,right,0.6670674580382183,0,,,right,0,0.6670674580382183,,,,,,,,,,,,,,,,,,,,,,1020,2019_Mar_06_1240,mf_amp_cond2,3.0.4,60.064880900199206,
energy,&&&&&&,left,sanctity.virtue,,,,,,,,0,72,72,190,,,,,,,,,,,,,,,,,,,,,LDT,right,0.6670658544171602,0,,,right,0,0.6670658544171602,,,,,,,,,,,,,,,,,,,,,,1020,2019_Mar_06_1240,mf_amp_cond2,3.0.4,60.064880900199206,
nuckheap,&&&&&&&&,right,nonword,,,,,,,,0,73,73,80,,,,,,,,,,,,,,,,,,,,,LDT,left,0.783768302644603,0,,,left,0,0.783768302644603,,,,,,,,,,,,,,,,,,,,,,1020,2019_Mar_06_1240,mf_amp_cond2,3.0.4,60.064880900199206,
give,&&&&,left,neutral,,,,,,,,0,74,74,6,,,,,,,,,,,,,,,,,,,,,LDT,right,0.6503932971972972,0,,,right,0,0.6503932971972972,,,,,,,,,,,,,,,,,,,,,,1020,2019_Mar_06_1240,mf_amp_cond2,3.0.4,60.064880900199206,
wherever,&&&&&&&&,left,neutral,,,,,,,,0,75,75,85,,,,,,,,,,,,,,,,,,,,,LDT,right,0.6837252621771768,0,,,right,0,0.6837252621771768,,,,,,,,,,,,,,,,,,,,,,1020,2019_Mar_06_1240,mf_amp_cond2,3.0.4,60.064880900199206,
chadows,&&&&&&&,right,nonword,,,,,,,,0,76,76,20,,,,,,,,,,,,,,,,,,,,,LDT,left,0.8338023308897391,0,,,left,0,0.8338023308897391,,,,,,,,,,,,,,,,,,,,,,1020,2019_Mar_06_1240,mf_amp_cond2,3.0.4,60.064880900199206,
couldnt,&&&&&&&,left,neutral,,,,,,,,0,77,77,127,,,,,,,,,,,,,,,,,,,,,LDT,right,1.8340521707432345,0,,,right,0,1.8340521707432345,,,,,,,,,,,,,,,,,,,,,,1020,2019_Mar_06_1240,mf_amp_cond2,3.0.4,60.064880900199206,
further,&&&&&&&,left,neutral,,,,,,,,0,78,78,148,,,,,,,,,,,,,,,,,,,,,LDT,right,0.5336953392252326,0,,,right,0,0.5336953392252326,,,,,,,,,,,,,,,,,,,,,,1020,2019_Mar_06_1240,mf_amp_cond2,3.0.4,60.064880900199206,
pullness,&&&&&&&&,right,nonword,,,,,,,,0,79,79,187,,,,,,,,,,,,,,,,,,,,,LDT,left,1.0171536351554096,0,,,left,0,1.0171536351554096,,,,,,,,,,,,,,,,,,,,,,1020,2019_Mar_06_1240,mf_amp_cond2,3.0.4,60.064880900199206,
tomedians,&&&&&&&&&,right,nonword,,,,,,,,0,80,80,27,,,,,,,,,,,,,,,,,,,,,LDT,left,0.700405195937492,0,,,left,0,0.700405195937492,,,,,,,,,,,,,,,,,,,,,,1020,2019_Mar_06_1240,mf_amp_cond2,3.0.4,60.064880900199206,
sliptery,&&&&&&&&,right,nonword,,,,,,,,0,81,81,7,,,,,,,,,,,,,,,,,,,,,LDT,right,2.084084723610431,1,,,right,1,2.084084723610431,,,,,,,,,,,,,,,,,,,,,,1020,2019_Mar_06_1240,mf_amp_cond2,3.0.4,60.064880900199206,
sfumatoy,&&&&&&&&,None,nonword,,,,,,,,0,82,82,186,,,,,,,,,,,,,,,,,,,,,LDT,left,0.8004328418755904,0,,,left,0,0.8004328418755904,,,,,,,,,,,,,,,,,,,,,,1020,2019_Mar_06_1240,mf_amp_cond2,3.0.4,60.064880900199206,
asn,&&&,right,nonword,,,,,,,,0,83,83,73,,,,,,,,,,,,,,,,,,,,,LDT,left,0.533717147889547,0,,,left,0,0.533717147889547,,,,,,,,,,,,,,,,,,,,,,1020,2019_Mar_06_1240,mf_amp_cond2,3.0.4,60.064880900199206,
shoirmaster,&&&&&&&&&&&,None,nonword,,,,,,,,0,84,84,3,,,,,,,,,,,,,,,,,,,,,LDT,left,0.5503986853873357,0,,,left,0,0.5503986853873357,,,,,,,,,,,,,,,,,,,,,,1020,2019_Mar_06_1240,mf_amp_cond2,3.0.4,60.064880900199206,
sowntrodden,&&&&&&&&&&&,right,nonword,,,,,,,,0,85,85,86,,,,,,,,,,,,,,,,,,,,,LDT,left,0.5337110543623567,0,,,left,0,0.5337110543623567,,,,,,,,,,,,,,,,,,,,,,1020,2019_Mar_06_1240,mf_amp_cond2,3.0.4,60.064880900199206,
juck,&&&&,right,nonword,,,,,,,,0,86,86,35,,,,,,,,,,,,,,,,,,,,,LDT,left,0.7004035923164338,0,,,left,0,0.7004035923164338,,,,,,,,,,,,,,,,,,,,,,1020,2019_Mar_06_1240,mf_amp_cond2,3.0.4,60.064880900199206,
crinking,&&&&&&&&,right,nonword,,,,,,,,0,87,87,13,,,,,,,,,,,,,,,,,,,,,LDT,left,0.5337001499719918,0,,,left,0,0.5337001499719918,,,,,,,,,,,,,,,,,,,,,,1020,2019_Mar_06_1240,mf_amp_cond2,3.0.4,60.064880900199206,
ammessment,&&&&&&&&&&,right,nonword,,,,,,,,0,88,88,1,,,,,,,,,,,,,,,,,,,,,LDT,left,1.8173472209600732,0,,,left,0,1.8173472209600732,,,,,,,,,,,,,,,,,,,,,,1020,2019_Mar_06_1240,mf_amp_cond2,3.0.4,60.064880900199206,
baklara,&&&&&&&,right,nonword,,,,,,,,0,89,89,196,,,,,,,,,,,,,,,,,,,,,LDT,left,0.5837251979392022,0,,,left,0,0.5837251979392022,,,,,,,,,,,,,,,,,,,,,,1020,2019_Mar_06_1240,mf_amp_cond2,3.0.4,60.064880900199206,
somehow,&&&&&&&,left,neutral,,,,,,,,0,90,90,82,,,,,,,,,,,,,,,,,,,,,LDT,left,1.7006803724216297,1,,,left,1,1.7006803724216297,,,,,,,,,,,,,,,,,,,,,,1020,2019_Mar_06_1240,mf_amp_cond2,3.0.4,60.064880900199206,
prones,&&&&&&,right,nonword,,,,,,,,0,91,91,135,,,,,,,,,,,,,,,,,,,,,LDT,left,2.1174096326576546,0,,,left,0,2.1174096326576546,,,,,,,,,,,,,,,,,,,,,,1020,2019_Mar_06_1240,mf_amp_cond2,3.0.4,60.064880900199206,
frojecting,&&&&&&&&&&,right,nonword,,,,,,,,0,92,92,92,,,,,,,,,,,,,,,,,,,,,LDT,left,0.6503856000490487,0,,,left,0,0.6503856000490487,,,,,,,,,,,,,,,,,,,,,,1020,2019_Mar_06_1240,mf_amp_cond2,3.0.4,60.064880900199206,
whither,&&&&&&&,left,neutral,,,,,,,,0,93,93,124,,,,,,,,,,,,,,,,,,,,,LDT,left,0.6003823607461527,1,,,left,1,0.6003823607461527,,,,,,,,,,,,,,,,,,,,,,1020,2019_Mar_06_1240,mf_amp_cond2,3.0.4,60.064880900199206,
pescinded,&&&&&&&&&,right,nonword,,,,,,,,0,94,94,115,,,,,,,,,,,,,,,,,,,,,LDT,left,0.6670716273365542,0,,,left,0,0.6670716273365542,,,,,,,,,,,,,,,,,,,,,,1020,2019_Mar_06_1240,mf_amp_cond2,3.0.4,60.064880900199206,
leact,&&&&&,right,nonword,,,,,,,,0,95,95,52,,,,,,,,,,,,,,,,,,,,,LDT,left,1.5504333229037002,0,,,left,0,1.5504333229037002,,,,,,,,,,,,,,,,,,,,,,1020,2019_Mar_06_1240,mf_amp_cond2,3.0.4,60.064880900199206,
about,&&&&&,left,neutral,,,,,,,,0,96,96,142,,,,,,,,,,,,,,,,,,,,,LDT,right,0.683746108901687,0,,,right,0,0.683746108901687,,,,,,,,,,,,,,,,,,,,,,1020,2019_Mar_06_1240,mf_amp_cond2,3.0.4,60.064880900199206,
hence,&&&&&,left,neutral,,,,,,,,0,97,97,53,,,,,,,,,,,,,,,,,,,,,LDT,right,0.5503608405124396,0,,,right,0,0.5503608405124396,,,,,,,,,,,,,,,,,,,,,,1020,2019_Mar_06_1240,mf_amp_cond2,3.0.4,60.064880900199206,
benefit,&&&&&&&,left,fairness.virtue,,,,,,,,0,98,98,76,,,,,,,,,,,,,,,,,,,,,LDT,right,0.7337714778259397,0,,,right,0,0.7337714778259397,,,,,,,,,,,,,,,,,,,,,,1020,2019_Mar_06_1240,mf_amp_cond2,3.0.4,60.064880900199206,
riot,&&&&,left,authority.vice,,,,,,,,0,99,99,181,,,,,,,,,,,,,,,,,,,,,LDT,right,0.5336552492808551,0,,,right,0,0.5336552492808551,,,,,,,,,,,,,,,,,,,,,,1020,2019_Mar_06_1240,mf_amp_cond2,3.0.4,60.064880900199206,
amount,&&&&&&,left,neutral,,,,,,,,0,100,100,122,,,,,,,,,,,,,,,,,,,,,LDT,right,0.5003473381511867,0,,,right,0,0.5003473381511867,,,,,,,,,,,,,,,,,,,,,,1020,2019_Mar_06_1240,mf_amp_cond2,3.0.4,60.064880900199206,
supervuned,&&&&&&&&&&,right,nonword,,,,,,,,0,101,101,25,,,,,,,,,,,,,,,,,,,,,LDT,left,1.4172513901721686,0,,,left,0,1.4172513901721686,,,,,,,,,,,,,,,,,,,,,,1020,2019_Mar_06_1240,mf_amp_cond2,3.0.4,60.064880900199206,
Daptist,&&&&&&&,right,nonword,,,,,,,,0,102,102,110,,,,,,,,,,,,,,,,,,,,,LDT,left,1.4339303616434336,0,,,left,0,1.4339303616434336,,,,,,,,,,,,,,,,,,,,,,1020,2019_Mar_06_1240,mf_amp_cond2,3.0.4,60.064880900199206,
fangsters,&&&&&&&&&,right,nonword,,,,,,,,0,103,103,96,,,,,,,,,,,,,,,,,,,,,LDT,left,1.1171905818628147,0,,,left,0,1.1171905818628147,,,,,,,,,,,,,,,,,,,,,,1020,2019_Mar_06_1240,mf_amp_cond2,3.0.4,60.064880900199206,
suicide,&&&&&&&,left,care.vice,,,,,,,,0,104,104,105,,,,,,,,,,,,,,,,,,,,,LDT,right,1.0172071951674297,0,,,right,0,1.0172071951674297,,,,,,,,,,,,,,,,,,,,,,1020,2019_Mar_06_1240,mf_amp_cond2,3.0.4,60.064880900199206,
toward,&&&&&&,left,neutral,,,,,,,,0,105,105,33,,,,,,,,,,,,,,,,,,,,,LDT,right,0.6670591193251312,0,,,right,0,0.6670591193251312,,,,,,,,,,,,,,,,,,,,,,1020,2019_Mar_06_1240,mf_amp_cond2,3.0.4,60.064880900199206,
each,&&&&,left,neutral,,,,,,,,0,106,106,197,,,,,,,,,,,,,,,,,,,,,LDT,right,0.6670379518764094,0,,,right,0,0.6670379518764094,,,,,,,,,,,,,,,,,,,,,,1020,2019_Mar_06_1240,mf_amp_cond2,3.0.4,60.064880900199206,
ejanulated,&&&&&&&&&&,right,nonword,,,,,,,,0,107,107,150,,,,,,,,,,,,,,,,,,,,,LDT,left,0.7171021277317777,0,,,left,0,0.7171021277317777,,,,,,,,,,,,,,,,,,,,,,1020,2019_Mar_06_1240,mf_amp_cond2,3.0.4,60.064880900199206,
fifteen,&&&&&&&,left,neutral,,,,,,,,0,108,108,141,,,,,,,,,,,,,,,,,,,,,LDT,left,1.0171395235229284,1,,,left,1,1.0171395235229284,,,,,,,,,,,,,,,,,,,,,,1020,2019_Mar_06_1240,mf_amp_cond2,3.0.4,60.064880900199206,
reviked,&&&&&&&,right,nonword,,,,,,,,0,109,109,39,,,,,,,,,,,,,,,,,,,,,LDT,left,0.7670886896084994,0,,,left,0,0.7670886896084994,,,,,,,,,,,,,,,,,,,,,,1020,2019_Mar_06_1240,mf_amp_cond2,3.0.4,60.064880900199206,
hope,&&&&,left,loyalty.virtue,,,,,,,,0,110,110,79,,,,,,,,,,,,,,,,,,,,,LDT,right,0.5003662606468424,0,,,right,0,0.5003662606468424,,,,,,,,,,,,,,,,,,,,,,1020,2019_Mar_06_1240,mf_amp_cond2,3.0.4,60.064880900199206,
lursuer,&&&&&&&,right,nonword,,,,,,,,0,111,111,102,,,,,,,,,,,,,,,,,,,,,LDT,left,0.7671156299766153,0,,,left,0,0.7671156299766153,,,,,,,,,,,,,,,,,,,,,,1020,2019_Mar_06_1240,mf_amp_cond2,3.0.4,60.064880900199206,
whereafter,&&&&&&&&&&,left,neutral,,,,,,,,0,112,112,161,,,,,,,,,,,,,,,,,,,,,LDT,left,1.667306714109145,1,,,left,1,1.667306714109145,,,,,,,,,,,,,,,,,,,,,,1020,2019_Mar_06_1240,mf_amp_cond2,3.0.4,60.064880900199206,
papert,&&&&&&,right,nonword,,,,,,,,0,113,113,192,,,,,,,,,,,,,,,,,,,,,LDT,left,0.5503791214432567,0,,,left,0,0.5503791214432567,,,,,,,,,,,,,,,,,,,,,,1020,2019_Mar_06_1240,mf_amp_cond2,3.0.4,60.064880900199206,
hefurbished,&&&&&&&&&&&,right,nonword,,,,,,,,0,114,114,99,,,,,,,,,,,,,,,,,,,,,LDT,left,0.483694986323826,0,,,left,0,0.483694986323826,,,,,,,,,,,,,,,,,,,,,,1020,2019_Mar_06_1240,mf_amp_cond2,3.0.4,60.064880900199206,
voter,&&&&&,left,fairness.vice,,,,,,,,0,115,115,64,,,,,,,,,,,,,,,,,,,,,LDT,left,0.8337824463378638,1,,,left,1,0.8337824463378638,,,,,,,,,,,,,,,,,,,,,,1020,2019_Mar_06_1240,mf_amp_cond2,3.0.4,60.064880900199206,
unscothed,&&&&&&&&&,right,nonword,,,,,,,,0,116,116,131,,,,,,,,,,,,,,,,,,,,,LDT,left,1.1671110758325085,0,,,left,0,1.1671110758325085,,,,,,,,,,,,,,,,,,,,,,1020,2019_Mar_06_1240,mf_amp_cond2,3.0.4,60.064880900199206,
pistraught,&&&&&&&&&&,right,nonword,,,,,,,,0,117,117,63,,,,,,,,,,,,,,,,,,,,,LDT,left,0.600376267102547,0,,,left,0,0.600376267102547,,,,,,,,,,,,,,,,,,,,,,1020,2019_Mar_06_1240,mf_amp_cond2,3.0.4,60.064880900199206,
been,&&&&,left,neutral,,,,,,,,0,118,118,154,,,,,,,,,,,,,,,,,,,,,LDT,left,1.1671793889254332,1,,,left,1,1.1671793889254332,,,,,,,,,,,,,,,,,,,,,,1020,2019_Mar_06_1240,mf_amp_cond2,3.0.4,60.064880900199206,
brudent,&&&&&&&,right,nonword,,,,,,,,0,119,119,44,,,,,,,,,,,,,,,,,,,,,LDT,left,1.2172108513768762,0,,,left,0,1.2172108513768762,,,,,,,,,,,,,,,,,,,,,,1020,2019_Mar_06_1240,mf_amp_cond2,3.0.4,60.064880900199206,
slavery,&&&&&&&,left,loyalty.vice,,,,,,,,0,120,120,173,,,,,,,,,,,,,,,,,,,,,LDT,right,1.5506145289400592,0,,,right,0,1.5506145289400592,,,,,,,,,,,,,,,,,,,,,,1020,2019_Mar_06_1240,mf_amp_cond2,3.0.4,60.064880900199206,
encourage,&&&&&&&&&,left,authority.virtue,,,,,,,,0,121,121,152,,,,,,,,,,,,,,,,,,,,,LDT,right,1.2339174046646804,0,,,right,0,1.2339174046646804,,,,,,,,,,,,,,,,,,,,,,1020,2019_Mar_06_1240,mf_amp_cond2,3.0.4,60.064880900199206,
tabin,&&&&&,right,nonword,,,,,,,,0,122,122,168,,,,,,,,,,,,,,,,,,,,,LDT,left,0.483685685438104,0,,,left,0,0.483685685438104,,,,,,,,,,,,,,,,,,,,,,1020,2019_Mar_06_1240,mf_amp_cond2,3.0.4,60.064880900199206,
become,&&&&&&,left,neutral,,,,,,,,0,123,123,59,,,,,,,,,,,,,,,,,,,,,LDT,right,0.6503990702331066,0,,,right,0,0.6503990702331066,,,,,,,,,,,,,,,,,,,,,,1020,2019_Mar_06_1240,mf_amp_cond2,3.0.4,60.064880900199206,
vicissifude,&&&&&&&&&&&,right,nonword,,,,,,,,0,124,124,136,,,,,,,,,,,,,,,,,,,,,LDT,left,0.5170526086585596,0,,,left,0,0.5170526086585596,,,,,,,,,,,,,,,,,,,,,,1020,2019_Mar_06_1240,mf_amp_cond2,3.0.4,60.064880900199206,
lenon,&&&&&,right,nonword,,,,,,,,0,125,125,42,,,,,,,,,,,,,,,,,,,,,LDT,left,0.6337239472195506,0,,,left,0,0.6337239472195506,,,,,,,,,,,,,,,,,,,,,,1020,2019_Mar_06_1240,mf_amp_cond2,3.0.4,60.064880900199206,
groups,&&&&&&,left,loyalty.vice,,,,,,,,0,126,126,151,,,,,,,,,,,,,,,,,,,,,LDT,right,1.2338878985028714,0,,,right,0,1.2338878985028714,,,,,,,,,,,,,,,,,,,,,,1020,2019_Mar_06_1240,mf_amp_cond2,3.0.4,60.064880900199206,
bycled,&&&&&&,None,nonword,,,,,,,,0,127,127,179,,,,,,,,,,,,,,,,,,,,,LDT,left,0.6170488243224099,0,,,left,0,0.6170488243224099,,,,,,,,,,,,,,,,,,,,,,1020,2019_Mar_06_1240,mf_amp_cond2,3.0.4,60.064880900199206,
gusinesslike,&&&&&&&&&&&&,right,nonword,,,,,,,,0,128,128,87,,,,,,,,,,,,,,,,,,,,,LDT,left,0.4836940241511911,0,,,left,0,0.4836940241511911,,,,,,,,,,,,,,,,,,,,,,1020,2019_Mar_06_1240,mf_amp_cond2,3.0.4,60.064880900199206,
gikely,&&&&&&,right,nonword,,,,,,,,0,129,129,21,,,,,,,,,,,,,,,,,,,,,LDT,left,0.43366480676922947,0,,,left,0,0.43366480676922947,,,,,,,,,,,,,,,,,,,,,,1020,2019_Mar_06_1240,mf_amp_cond2,3.0.4,60.064880900199206,
reelectiob,&&&&&&&&&&,right,nonword,,,,,,,,0,130,130,114,,,,,,,,,,,,,,,,,,,,,LDT,left,0.38365579454693943,0,,,left,0,0.38365579454693943,,,,,,,,,,,,,,,,,,,,,,1020,2019_Mar_06_1240,mf_amp_cond2,3.0.4,60.064880900199206,
were,&&&&,left,neutral,,,,,,,,0,131,131,172,,,,,,,,,,,,,,,,,,,,,LDT,right,0.8337824462214485,0,,,right,0,0.8337824462214485,,,,,,,,,,,,,,,,,,,,,,1020,2019_Mar_06_1240,mf_amp_cond2,3.0.4,60.064880900199206,
fostet,&&&&&&,right,nonword,,,,,,,,0,132,132,129,,,,,,,,,,,,,,,,,,,,,LDT,left,0.4670144112315029,0,,,left,0,0.4670144112315029,,,,,,,,,,,,,,,,,,,,,,1020,2019_Mar_06_1240,mf_amp_cond2,3.0.4,60.064880900199206,
taxpayung,&&&&&&&&&,right,nonword,,,,,,,,0,133,133,174,,,,,,,,,,,,,,,,,,,,,LDT,left,0.4670185805298388,0,,,left,0,0.4670185805298388,,,,,,,,,,,,,,,,,,,,,,1020,2019_Mar_06_1240,mf_amp_cond2,3.0.4,60.064880900199206,
abointment,&&&&&&&&&&,right,nonword,,,,,,,,0,134,134,11,,,,,,,,,,,,,,,,,,,,,LDT,left,0.43352785985916853,0,,,left,0,0.43352785985916853,,,,,,,,,,,,,,,,,,,,,,1020,2019_Mar_06_1240,mf_amp_cond2,3.0.4,60.064880900199206,
crilfully,&&&&&&&&&,right,nonword,,,,,,,,0,135,135,149,,,,,,,,,,,,,,,,,,,,,LDT,left,0.4336744282627478,0,,,left,0,0.4336744282627478,,,,,,,,,,,,,,,,,,,,,,1020,2019_Mar_06_1240,mf_amp_cond2,3.0.4,60.064880900199206,
atson,&&&&&,right,nonword,,,,,,,,0,136,136,189,,,,,,,,,,,,,,,,,,,,,LDT,left,0.48372737888712436,0,,,left,0,0.48372737888712436,,,,,,,,,,,,,,,,,,,,,,1020,2019_Mar_06_1240,mf_amp_cond2,3.0.4,60.064880900199206,
charges,&&&&&&&,left,fairness.vice,,,,,,,,0,137,137,9,,,,,,,,,,,,,,,,,,,,,LDT,right,0.6337271544616669,0,,,right,0,0.6337271544616669,,,,,,,,,,,,,,,,,,,,,,1020,2019_Mar_06_1240,mf_amp_cond2,3.0.4,60.064880900199206,
smapper,&&&&&&&,right,nonword,,,,,,,,0,138,138,116,,,,,,,,,,,,,,,,,,,,,LDT,left,0.5004403466591612,0,,,left,0,0.5004403466591612,,,,,,,,,,,,,,,,,,,,,,1020,2019_Mar_06_1240,mf_amp_cond2,3.0.4,60.064880900199206,
safety,&&&&&&,left,care.virtue,,,,,,,,0,139,139,65,,,,,,,,,,,,,,,,,,,,,LDT,right,0.5503627648577094,0,,,right,0,0.5503627648577094,,,,,,,,,,,,,,,,,,,,,,1020,2019_Mar_06_1240,mf_amp_cond2,3.0.4,60.064880900199206,
sgrawl,&&&&&&,right,nonword,,,,,,,,0,140,140,78,,,,,,,,,,,,,,,,,,,,,LDT,left,0.5003601670032367,0,,,left,0,0.5003601670032367,,,,,,,,,,,,,,,,,,,,,,1020,2019_Mar_06_1240,mf_amp_cond2,3.0.4,60.064880900199206,
friends,&&&&&&&,left,loyalty.virtue,,,,,,,,0,141,141,169,,,,,,,,,,,,,,,,,,,,,LDT,right,0.5670305112143978,0,,,right,0,0.5670305112143978,,,,,,,,,,,,,,,,,,,,,,1020,2019_Mar_06_1240,mf_amp_cond2,3.0.4,60.064880900199206,
nomaric,&&&&&&&,None,nonword,,,,,,,,0,142,142,37,,,,,,,,,,,,,,,,,,,,,LDT,left,0.5670298698823899,0,,,left,0,0.5670298698823899,,,,,,,,,,,,,,,,,,,,,,1020,2019_Mar_06_1240,mf_amp_cond2,3.0.4,60.064880900199206,
scalbel,&&&&&&&,right,nonword,,,,,,,,0,143,143,195,,,,,,,,,,,,,,,,,,,,,LDT,left,0.7837573982542381,0,,,left,0,0.7837573982542381,,,,,,,,,,,,,,,,,,,,,,1020,2019_Mar_06_1240,mf_amp_cond2,3.0.4,60.064880900199206,
embrace,&&&&&&&,left,authority.virtue,,,,,,,,0,144,144,156,,,,,,,,,,,,,,,,,,,,,LDT,right,0.650417992612347,0,,,right,0,0.650417992612347,,,,,,,,,,,,,,,,,,,,,,1020,2019_Mar_06_1240,mf_amp_cond2,3.0.4,60.064880900199206,
victims,&&&&&&&,left,care.vice,,,,,,,,0,145,145,31,,,,,,,,,,,,,,,,,,,,,LDT,right,0.5168903251178563,0,,,right,0,0.5168903251178563,,,,,,,,,,,,,,,,,,,,,,1020,2019_Mar_06_1240,mf_amp_cond2,3.0.4,60.064880900199206,
police,&&&&&&,left,authority.vice,,,,,,,,0,146,146,18,,,,,,,,,,,,,,,,,,,,,LDT,right,1.4006003211252391,0,,,right,0,1.4006003211252391,,,,,,,,,,,,,,,,,,,,,,1020,2019_Mar_06_1240,mf_amp_cond2,3.0.4,60.064880900199206,
else,&&&&,left,neutral,,,,,,,,0,147,147,29,,,,,,,,,,,,,,,,,,,,,LDT,right,0.46701441111508757,0,,,right,0,0.46701441111508757,,,,,,,,,,,,,,,,,,,,,,1020,2019_Mar_06_1240,mf_amp_cond2,3.0.4,60.064880900199206,
noped,&&&&&,right,nonword,,,,,,,,0,148,148,167,,,,,,,,,,,,,,,,,,,,,LDT,left,0.5837117278715596,0,,,left,0,0.5837117278715596,,,,,,,,,,,,,,,,,,,,,,1020,2019_Mar_06_1240,mf_amp_cond2,3.0.4,60.064880900199206,
lorthwhile,&&&&&&&&&&,right,nonword,,,,,,,,0,149,149,118,,,,,,,,,,,,,,,,,,,,,LDT,left,0.6670520635088906,0,,,left,0,0.6670520635088906,,,,,,,,,,,,,,,,,,,,,,1020,2019_Mar_06_1240,mf_amp_cond2,3.0.4,60.064880900199206,
praise,&&&&&&,left,authority.virtue,,,,,,,,0,150,150,91,,,,,,,,,,,,,,,,,,,,,LDT,right,0.5003588841063902,0,,,right,0,0.5003588841063902,,,,,,,,,,,,,,,,,,,,,,1020,2019_Mar_06_1240,mf_amp_cond2,3.0.4,60.064880900199206,
shoirmaster,&&&&&&&&&&&,right,nonword,,,,,,,,0,151,151,178,,,,,,,,,,,,,,,,,,,,,LDT,left,0.4170108512043953,0,,,left,0,0.4170108512043953,,,,,,,,,,,,,,,,,,,,,,1020,2019_Mar_06_1240,mf_amp_cond2,3.0.4,60.064880900199206,
three,&&&&&,left,neutral,,,,,,,,0,152,152,14,,,,,,,,,,,,,,,,,,,,,LDT,right,0.6170780096435919,0,,,right,0,0.6170780096435919,,,,,,,,,,,,,,,,,,,,,,1020,2019_Mar_06_1240,mf_amp_cond2,3.0.4,60.064880900199206,
pharing,&&&&&&&,right,nonword,,,,,,,,0,153,153,128,,,,,,,,,,,,,,,,,,,,,LDT,left,0.683729110751301,0,,,left,0,0.683729110751301,,,,,,,,,,,,,,,,,,,,,,1020,2019_Mar_06_1240,mf_amp_cond2,3.0.4,60.064880900199206,
rejected,&&&&&&&&,left,authority.vice,,,,,,,,0,154,154,60,,,,,,,,,,,,,,,,,,,,,LDT,right,2.117408670601435,0,,,right,0,2.117408670601435,,,,,,,,,,,,,,,,,,,,,,1020,2019_Mar_06_1240,mf_amp_cond2,3.0.4,60.064880900199206,
menizen,&&&&&&&,None,nonword,,,,,,,,0,155,155,88,,,,,,,,,,,,,,,,,,,,,LDT,left,0.48366419738158584,0,,,left,0,0.48366419738158584,,,,,,,,,,,,,,,,,,,,,,1020,2019_Mar_06_1240,mf_amp_cond2,3.0.4,60.064880900199206,
amoungst,&&&&&&&&,left,neutral,,,,,,,,0,156,156,158,,,,,,,,,,,,,,,,,,,,,LDT,left,0.43367474898695946,1,,,left,1,0.43367474898695946,,,,,,,,,,,,,,,,,,,,,,1020,2019_Mar_06_1240,mf_amp_cond2,3.0.4,60.064880900199206,
tislay,&&&&&&,right,nonword,,,,,,,,0,157,157,126,,,,,,,,,,,,,,,,,,,,,LDT,left,0.4169993052491918,0,,,left,0,0.4169993052491918,,,,,,,,,,,,,,,,,,,,,,1020,2019_Mar_06_1240,mf_amp_cond2,3.0.4,60.064880900199206,
support,&&&&&&&,left,loyalty.virtue,,,,,,,,0,158,158,143,,,,,,,,,,,,,,,,,,,,,LDT,right,0.5670382084790617,0,,,right,0,0.5670382084790617,,,,,,,,,,,,,,,,,,,,,,1020,2019_Mar_06_1240,mf_amp_cond2,3.0.4,60.064880900199206,
corruption,&&&&&&&&&&,left,sanctity.vice,,,,,,,,0,159,159,107,,,,,,,,,,,,,,,,,,,,,LDT,right,1.433897648472339,0,,,right,0,1.433897648472339,,,,,,,,,,,,,,,,,,,,,,1020,2019_Mar_06_1240,mf_amp_cond2,3.0.4,60.064880900199206,
mih,&&&,right,nonword,,,,,,,,0,160,160,32,,,,,,,,,,,,,,,,,,,,,LDT,left,0.4836997971870005,0,,,left,0,0.4836997971870005,,,,,,,,,,,,,,,,,,,,,,1020,2019_Mar_06_1240,mf_amp_cond2,3.0.4,60.064880900199206,
proached,&&&&&&&&,right,nonword,,,,,,,,0,161,161,62,,,,,,,,,,,,,,,,,,,,,LDT,left,0.4670387858059257,0,,,left,0,0.4670387858059257,,,,,,,,,,,,,,,,,,,,,,1020,2019_Mar_06_1240,mf_amp_cond2,3.0.4,60.064880900199206,
fair,&&&&,left,fairness.virtue,,,,,,,,0,162,162,5,,,,,,,,,,,,,,,,,,,,,LDT,right,0.6170504278270528,0,,,right,0,0.6170504278270528,,,,,,,,,,,,,,,,,,,,,,1020,2019_Mar_06_1240,mf_amp_cond2,3.0.4,60.064880900199206,
great,&&&&&,left,loyalty.virtue,,,,,,,,0,163,163,164,,,,,,,,,,,,,,,,,,,,,LDT,right,0.5337072056718171,0,,,right,0,0.5337072056718171,,,,,,,,,,,,,,,,,,,,,,1020,2019_Mar_06_1240,mf_amp_cond2,3.0.4,60.064880900199206,
tracious,&&&&&&&&,right,nonword,,,,,,,,0,164,164,40,,,,,,,,,,,,,,,,,,,,,LDT,left,0.6670741931302473,0,,,left,0,0.6670741931302473,,,,,,,,,,,,,,,,,,,,,,1020,2019_Mar_06_1240,mf_amp_cond2,3.0.4,60.064880900199206,
both,&&&&,left,neutral,,,,,,,,0,165,165,165,,,,,,,,,,,,,,,,,,,,,LDT,right,0.6503955422667786,0,,,right,0,0.6503955422667786,,,,,,,,,,,,,,,,,,,,,,1020,2019_Mar_06_1240,mf_amp_cond2,3.0.4,60.064880900199206,
noone,&&&&&,left,neutral,,,,,,,,0,166,166,171,,,,,,,,,,,,,,,,,,,,,LDT,left,0.5336969426134601,1,,,left,1,0.5336969426134601,,,,,,,,,,,,,,,,,,,,,,1020,2019_Mar_06_1240,mf_amp_cond2,3.0.4,60.064880900199206,
nonobservalt,&&&&&&&&&&&&,right,nonword,,,,,,,,0,167,167,61,,,,,,,,,,,,,,,,,,,,,LDT,left,0.500396087532863,0,,,left,0,0.500396087532863,,,,,,,,,,,,,,,,,,,,,,1020,2019_Mar_06_1240,mf_amp_cond2,3.0.4,60.064880900199206,
Oregoniuns,&&&&&&&&&&,right,nonword,,,,,,,,0,168,168,2,,,,,,,,,,,,,,,,,,,,,LDT,left,0.5337200344074517,0,,,left,0,0.5337200344074517,,,,,,,,,,,,,,,,,,,,,,1020,2019_Mar_06_1240,mf_amp_cond2,3.0.4,60.064880900199206,
hescribe,&&&&&&&&,right,nonword,,,,,,,,0,169,169,198,,,,,,,,,,,,,,,,,,,,,LDT,left,1.367251358111389,0,,,left,0,1.367251358111389,,,,,,,,,,,,,,,,,,,,,,1020,2019_Mar_06_1240,mf_amp_cond2,3.0.4,60.064880900199206,
forty,&&&&&,left,neutral,,,,,,,,0,170,170,24,,,,,,,,,,,,,,,,,,,,,LDT,left,0.8337878985330462,1,,,left,1,0.8337878985330462,,,,,,,,,,,,,,,,,,,,,,1020,2019_Mar_06_1240,mf_amp_cond2,3.0.4,60.064880900199206,
safe,&&&&,left,care.virtue,,,,,,,,0,171,171,113,,,,,,,,,,,,,,,,,,,,,LDT,right,0.6170536350691691,0,,,right,0,0.6170536350691691,,,,,,,,,,,,,,,,,,,,,,1020,2019_Mar_06_1240,mf_amp_cond2,3.0.4,60.064880900199206,
even,&&&&,left,neutral,,,,,,,,0,172,172,57,,,,,,,,,,,,,,,,,,,,,LDT,right,0.5670545651810244,0,,,right,0,0.5670545651810244,,,,,,,,,,,,,,,,,,,,,,1020,2019_Mar_06_1240,mf_amp_cond2,3.0.4,60.064880900199206,
front,&&&&&,left,neutral,,,,,,,,0,173,173,74,,,,,,,,,,,,,,,,,,,,,LDT,right,0.7170957133639604,0,,,right,0,0.7170957133639604,,,,,,,,,,,,,,,,,,,,,,1020,2019_Mar_06_1240,mf_amp_cond2,3.0.4,60.064880900199206,
presentkess,&&&&&&&&&&&,right,nonword,,,,,,,,0,174,174,23,,,,,,,,,,,,,,,,,,,,,LDT,left,0.5670426985016093,0,,,left,0,0.5670426985016093,,,,,,,,,,,,,,,,,,,,,,1020,2019_Mar_06_1240,mf_amp_cond2,3.0.4,60.064880900199206,
blunderints,&&&&&&&&&&&,right,nonword,,,,,,,,0,175,175,184,,,,,,,,,,,,,,,,,,,,,LDT,left,0.6003724184120074,0,,,left,0,0.6003724184120074,,,,,,,,,,,,,,,,,,,,,,1020,2019_Mar_06_1240,mf_amp_cond2,3.0.4,60.064880900199206,
fifty,&&&&&,left,neutral,,,,,,,,0,176,176,56,,,,,,,,,,,,,,,,,,,,,LDT,right,0.5670369255822152,0,,,right,0,0.5670369255822152,,,,,,,,,,,,,,,,,,,,,,1020,2019_Mar_06_1240,mf_amp_cond2,3.0.4,60.064880900199206,
gillipede,&&&&&&&&&,None,nonword,,,,,,,,0,177,177,111,,,,,,,,,,,,,,,,,,,,,LDT,left,0.6003801157930866,0,,,left,0,0.6003801157930866,,,,,,,,,,,,,,,,,,,,,,1020,2019_Mar_06_1240,mf_amp_cond2,3.0.4,60.064880900199206,
gandbrake,&&&&&&&&&,right,nonword,,,,,,,,0,178,178,140,,,,,,,,,,,,,,,,,,,,,LDT,left,0.48368921340443194,0,,,left,0,0.48368921340443194,,,,,,,,,,,,,,,,,,,,,,1020,2019_Mar_06_1240,mf_amp_cond2,3.0.4,60.064880900199206,
framatic,&&&&&&&&,right,nonword,,,,,,,,0,179,179,98,,,,,,,,,,,,,,,,,,,,,LDT,left,0.783767340471968,0,,,left,0,0.783767340471968,,,,,,,,,,,,,,,,,,,,,,1020,2019_Mar_06_1240,mf_amp_cond2,3.0.4,60.064880900199206,
infet,&&&&&,right,nonword,,,,,,,,0,180,180,43,,,,,,,,,,,,,,,,,,,,,LDT,left,0.6837990274652839,0,,,left,0,0.6837990274652839,,,,,,,,,,,,,,,,,,,,,,1020,2019_Mar_06_1240,mf_amp_cond2,3.0.4,60.064880900199206,
help,&&&&,left,care.virtue,,,,,,,,0,181,181,69,,,,,,,,,,,,,,,,,,,,,LDT,right,0.5837915868032724,0,,,right,0,0.5837915868032724,,,,,,,,,,,,,,,,,,,,,,1020,2019_Mar_06_1240,mf_amp_cond2,3.0.4,60.064880900199206,
critics,&&&&&&&,left,loyalty.vice,,,,,,,,0,182,182,166,,,,,,,,,,,,,,,,,,,,,LDT,right,0.7170748666394502,0,,,right,0,0.7170748666394502,,,,,,,,,,,,,,,,,,,,,,1020,2019_Mar_06_1240,mf_amp_cond2,3.0.4,60.064880900199206,
imebreaker,&&&&&&&&&&,right,nonword,,,,,,,,0,183,183,146,,,,,,,,,,,,,,,,,,,,,LDT,left,0.5503890636609867,0,,,left,0,0.5503890636609867,,,,,,,,,,,,,,,,,,,,,,1020,2019_Mar_06_1240,mf_amp_cond2,3.0.4,60.064880900199206,
Lacedonia,&&&&&&&&&,right,nonword,,,,,,,,0,184,184,109,,,,,,,,,,,,,,,,,,,,,LDT,left,0.4503514755051583,0,,,left,0,0.4503514755051583,,,,,,,,,,,,,,,,,,,,,,1020,2019_Mar_06_1240,mf_amp_cond2,3.0.4,60.064880900199206,
promote,&&&&&&&,left,sanctity.virtue,,,,,,,,0,185,185,97,,,,,,,,,,,,,,,,,,,,,LDT,right,1.2005437463521957,0,,,right,0,1.2005437463521957,,,,,,,,,,,,,,,,,,,,,,1020,2019_Mar_06_1240,mf_amp_cond2,3.0.4,60.064880900199206,
neneficence,&&&&&&&&&&&,right,nonword,,,,,,,,0,186,186,134,,,,,,,,,,,,,,,,,,,,,LDT,left,0.8837930620647967,0,,,left,0,0.8837930620647967,,,,,,,,,,,,,,,,,,,,,,1020,2019_Mar_06_1240,mf_amp_cond2,3.0.4,60.064880900199206,
stindig,&&&&&&&,right,nonword,,,,,,,,0,187,187,191,,,,,,,,,,,,,,,,,,,,,LDT,left,0.7670947832521051,0,,,left,0,0.7670947832521051,,,,,,,,,,,,,,,,,,,,,,1020,2019_Mar_06_1240,mf_amp_cond2,3.0.4,60.064880900199206,
pumber,&&&&&&,None,nonword,,,,,,,,0,188,188,34,,,,,,,,,,,,,,,,,,,,,LDT,left,0.6337245886679739,0,,,left,0,0.6337245886679739,,,,,,,,,,,,,,,,,,,,,,1020,2019_Mar_06_1240,mf_amp_cond2,3.0.4,60.064880900199206,
crime,&&&&&,left,fairness.vice,,,,,,,,0,189,189,75,,,,,,,,,,,,,,,,,,,,,LDT,right,0.7337394058704376,0,,,right,0,0.7337394058704376,,,,,,,,,,,,,,,,,,,,,,1020,2019_Mar_06_1240,mf_amp_cond2,3.0.4,60.064880900199206,
there,&&&&&,left,neutral,,,,,,,,0,190,190,153,,,,,,,,,,,,,,,,,,,,,LDT,right,0.867127881385386,0,,,right,0,0.867127881385386,,,,,,,,,,,,,,,,,,,,,,1020,2019_Mar_06_1240,mf_amp_cond2,3.0.4,60.064880900199206,
increase,&&&&&&&&,left,care.virtue,,,,,,,,0,191,191,19,,,,,,,,,,,,,,,,,,,,,LDT,right,0.883657077443786,0,,,right,0,0.883657077443786,,,,,,,,,,,,,,,,,,,,,,1020,2019_Mar_06_1240,mf_amp_cond2,3.0.4,60.064880900199206,
elsewhere,&&&&&&&&&,left,neutral,,,,,,,,0,192,192,48,,,,,,,,,,,,,,,,,,,,,LDT,right,0.6670700238319114,0,,,right,0,0.6670700238319114,,,,,,,,,,,,,,,,,,,,,,1020,2019_Mar_06_1240,mf_amp_cond2,3.0.4,60.064880900199206,
anything,&&&&&&&&,left,neutral,,,,,,,,0,193,193,130,,,,,,,,,,,,,,,,,,,,,LDT,right,0.8171047575306147,0,,,right,0,0.8171047575306147,,,,,,,,,,,,,,,,,,,,,,1020,2019_Mar_06_1240,mf_amp_cond2,3.0.4,60.064880900199206,
could,&&&&&,left,neutral,,,,,,,,0,194,194,41,,,,,,,,,,,,,,,,,,,,,LDT,left,1.6839709327323362,1,,,left,1,1.6839709327323362,,,,,,,,,,,,,,,,,,,,,,1020,2019_Mar_06_1240,mf_amp_cond2,3.0.4,60.064880900199206,
latterly,&&&&&&&&,left,neutral,,,,,,,,0,195,195,26,,,,,,,,,,,,,,,,,,,,,LDT,left,1.3004751766566187,1,,,left,1,1.3004751766566187,,,,,,,,,,,,,,,,,,,,,,1020,2019_Mar_06_1240,mf_amp_cond2,3.0.4,60.064880900199206,
neutralust,&&&&&&&&&&,right,nonword,,,,,,,,0,196,196,100,,,,,,,,,,,,,,,,,,,,,LDT,left,0.5003816551761702,0,,,left,0,0.5003816551761702,,,,,,,,,,,,,,,,,,,,,,1020,2019_Mar_06_1240,mf_amp_cond2,3.0.4,60.064880900199206,
free,&&&&,left,fairness.virtue,,,,,,,,0,197,197,12,,,,,,,,,,,,,,,,,,,,,LDT,right,0.4836940241511911,0,,,right,0,0.4836940241511911,,,,,,,,,,,,,,,,,,,,,,1020,2019_Mar_06_1240,mf_amp_cond2,3.0.4,60.064880900199206,
gaultless,&&&&&&&&&,right,nonword,,,,,,,,0,198,198,176,,,,,,,,,,,,,,,,,,,,,LDT,left,0.6670700238319114,0,,,left,0,0.6670700238319114,,,,,,,,,,,,,,,,,,,,,,1020,2019_Mar_06_1240,mf_amp_cond2,3.0.4,60.064880900199206,
focomotive,&&&&&&&&&&,right,nonword,,,,,,,,0,199,199,101,,,,,,,,,,,,,,,,,,,,,LDT,left,0.4837036457611248,0,,,left,0,0.4837036457611248,,,,,,,,,,,,,,,,,,,,,,1020,2019_Mar_06_1240,mf_amp_cond2,3.0.4,60.064880900199206,
,,,,,,,,,,,,,,,,,,,,,,,,,,,,,,,,,,,,,,,,,,,,2,9.588,,,,,,,,,,,,,,,,,,,,1020,2019_Mar_06_1240,mf_amp_cond2,3.0.4,60.064880900199206,
,,,,,,,,,,,,,,,,,,,,,,,,,,,,,,,,,,,,,,,,,,,,,,right,1.283898193622008,,,,,,,,,,,,,,,,,,1020,2019_Mar_06_1240,mf_amp_cond2,3.0.4,60.064880900199206,
keyboard,&&&&,,,senk,,,,,,,,,,,0,0,0,2,,,,,,,,,,,,,,,,,AMP_prac,left,2.484177667880431,,,,,,,,,,,left,2.484177667880431,,,,,,,,,,,,,,,,1020,2019_Mar_06_1240,mf_amp_cond2,3.0.4,60.064880900199206,
car,&&&&&&&&,,,cemtuper,,,,,,,,,,,0,1,1,0,,,,,,,,,,,,,,,,,AMP_prac,right,1.2672435967251658,,,,,,,,,,,right,1.2672435967251658,,,,,,,,,,,,,,,,1020,2019_Mar_06_1240,mf_amp_cond2,3.0.4,60.064880900199206,
banana,&&&&&&,,,kacket,,,,,,,,,,,0,2,2,1,,,,,,,,,,,,,,,,,AMP_prac,right,1.067172268871218,,,,,,,,,,,right,1.067172268871218,,,,,,,,,,,,,,,,1020,2019_Mar_06_1240,mf_amp_cond2,3.0.4,60.064880900199206,
scarf,&&&&&&&&,,,bisebell,,,,,,,,,,,0,3,3,3,,,,,,,,,,,,,,,,,AMP_prac,right,0.8171130963601172,,,,,,,,,,,right,0.8171130963601172,,,,,,,,,,,,,,,,1020,2019_Mar_06_1240,mf_amp_cond2,3.0.4,60.064880900199206,
,,,,,,,,,,,,,,,,,,,,,,,,,,,,,,,,,,,,,,,,,,,,,,,,,,right,1.3670942060416564,,,,,,,,,,,,,,1020,2019_Mar_06_1240,mf_amp_cond2,3.0.4,60.064880900199206,
death,&&&&&,right,care.vice,hasks,,,,,,,,,,,,,,,0,0,0,102,,,,,,,,,,,,,AMP,left,2.150744484155439,0,,,,,,,,,,,,,,left,0,2.150744484155439,,,,,,,,,,,1020,2019_Mar_06_1240,mf_amp_cond2,3.0.4,60.064880900199206,
forced,&&&&&&&,right,fairness.vice,hatigue,,,,,,,,,,,,,,,0,1,1,86,,,,,,,,,,,,,AMP,left,1.3338664745679125,0,,,,,,,,,,,,,,left,0,1.3338664745679125,,,,,,,,,,,1020,2019_Mar_06_1240,mf_amp_cond2,3.0.4,60.064880900199206,
trust,&&&&&&&&&&,left,authority.virtue,chonograph,,,,,,,,,,,,,,,0,2,2,309,,,,,,,,,,,,,AMP,right,0.7504071522271261,0,,,,,,,,,,,,,,right,0,0.7504071522271261,,,,,,,,,,,1020,2019_Mar_06_1240,mf_amp_cond2,3.0.4,60.064880900199206,
integrity,&&&&&&&&&&,left,fairness.virtue,simplustic,,,,,,,,,,,,,,,0,3,3,180,,,,,,,,,,,,,AMP,right,0.4503675114829093,0,,,,,,,,,,,,,,right,0,0.4503675114829093,,,,,,,,,,,1020,2019_Mar_06_1240,mf_amp_cond2,3.0.4,60.064880900199206,
faspberry,&&&&&&&&&&&&,None,nonword,iptervention,,,,,,,,,,,,,,,0,4,4,52,,,,,,,,,,,,,AMP,right,0.533661984372884,0,,,,,,,,,,,,,,right,0,0.533661984372884,,,,,,,,,,,1020,2019_Mar_06_1240,mf_amp_cond2,3.0.4,60.064880900199206,
promised,&&&&&&&&&&&&,left,loyalty.virtue,quarterbocks,,,,,,,,,,,,,,,0,5,5,96,,,,,,,,,,,,,AMP,right,0.9504605198744684,0,,,,,,,,,,,,,,right,0,0.9504605198744684,,,,,,,,,,,1020,2019_Mar_06_1240,mf_amp_cond2,3.0.4,60.064880900199206,
drug,&&&&&&&&&&,right,sanctity.vice,fonderland,,,,,,,,,,,,,,,0,6,6,12,,,,,,,,,,,,,AMP,right,0.617064539459534,1,,,,,,,,,,,,,,right,1,0.617064539459534,,,,,,,,,,,1020,2019_Mar_06_1240,mf_amp_cond2,3.0.4,60.064880900199206,
celebrated,&&&&&&,left,authority.virtue,forepo,,,,,,,,,,,,,,,0,7,7,45,,,,,,,,,,,,,AMP,right,0.7670466754352674,0,,,,,,,,,,,,,,right,0,0.7670466754352674,,,,,,,,,,,1020,2019_Mar_06_1240,mf_amp_cond2,3.0.4,60.064880900199206,
terrorist,&&&&&&&&&&&&,right,loyalty.vice,rorroborated,,,,,,,,,,,,,,,0,8,8,285,,,,,,,,,,,,,AMP,left,0.36699670751113445,0,,,,,,,,,,,,,,left,0,0.36699670751113445,,,,,,,,,,,1020,2019_Mar_06_1240,mf_amp_cond2,3.0.4,60.064880900199206,
gun,&&&&&&&&&&&&,right,authority.vice,iptervention,,,,,,,,,,,,,,,0,9,9,161,,,,,,,,,,,,,AMP,right,2.6175677470164374,1,,,,,,,,,,,,,,right,1,2.6175677470164374,,,,,,,,,,,1020,2019_Mar_06_1240,mf_amp_cond2,3.0.4,60.064880900199206,
racist,&&&&&&&&&,right,sanctity.vice,godlaness,,,,,,,,,,,,,,,0,10,10,115,,,,,,,,,,,,,AMP,left,2.667546611628495,0,,,,,,,,,,,,,,left,0,2.667546611628495,,,,,,,,,,,1020,2019_Mar_06_1240,mf_amp_cond2,3.0.4,60.064880900199206,
peace,&&&&&&&&&&&,left,care.virtue,nomparisons,,,,,,,,,,,,,,,0,11,11,55,,,,,,,,,,,,,AMP,right,0.45019913418218493,0,,,,,,,,,,,,,,right,0,0.45019913418218493,,,,,,,,,,,1020,2019_Mar_06_1240,mf_amp_cond2,3.0.4,60.064880900199206,
failure,&&&&&&,right,loyalty.vice,letish,,,,,,,,,,,,,,,0,12,12,178,,,,,,,,,,,,,AMP,left,1.2505485891597345,0,,,,,,,,,,,,,,left,0,1.2505485891597345,,,,,,,,,,,1020,2019_Mar_06_1240,mf_amp_cond2,3.0.4,60.064880900199206,
respect,&&&&&&&&,left,sanctity.virtue,bluently,,,,,,,,,,,,,,,0,13,13,233,,,,,,,,,,,,,AMP,right,2.2341194574255496,0,,,,,,,,,,,,,,right,0,2.2341194574255496,,,,,,,,,,,1020,2019_Mar_06_1240,mf_amp_cond2,3.0.4,60.064880900199206,
harassment,&&&&&&&&&,right,sanctity.vice,chressing,,,,,,,,,,,,,,,0,14,14,37,,,,,,,,,,,,,AMP,left,1.150534413405694,0,,,,,,,,,,,,,,left,0,1.150534413405694,,,,,,,,,,,1020,2019_Mar_06_1240,mf_amp_cond2,3.0.4,60.064880900199206,
health,&&&&&&&&&,left,care.virtue,discovars,,,,,,,,,,,,,,,0,15,15,91,,,,,,,,,,,,,AMP,right,0.43366256169974804,0,,,,,,,,,,,,,,right,0,0.43366256169974804,,,,,,,,,,,1020,2019_Mar_06_1240,mf_amp_cond2,3.0.4,60.064880900199206,
celebrated,&&&&,left,authority.virtue,wump,,,,,,,,,,,,,,,0,16,16,252,,,,,,,,,,,,,AMP,right,2.150797081994824,0,,,,,,,,,,,,,,right,0,2.150797081994824,,,,,,,,,,,1020,2019_Mar_06_1240,mf_amp_cond2,3.0.4,60.064880900199206,
good,&&&&&&&,left,care.virtue,troubla,,,,,,,,,,,,,,,0,17,17,40,,,,,,,,,,,,,AMP,left,1.0338480011560023,1,,,,,,,,,,,,,,left,1,1.0338480011560023,,,,,,,,,,,1020,2019_Mar_06_1240,mf_amp_cond2,3.0.4,60.064880900199206,
penalty,&&&&&&&&&,right,authority.vice,gondensed,,,,,,,,,,,,,,,0,18,18,16,,,,,,,,,,,,,AMP,left,1.4339095150353387,0,,,,,,,,,,,,,,left,0,1.4339095150353387,,,,,,,,,,,1020,2019_Mar_06_1240,mf_amp_cond2,3.0.4,60.064880900199206,
progress,&&&&&&,left,authority.virtue,Boeinf,,,,,,,,,,,,,,,0,19,19,53,,,,,,,,,,,,,AMP,right,0.8171143791405484,0,,,,,,,,,,,,,,right,0,0.8171143791405484,,,,,,,,,,,1020,2019_Mar_06_1240,mf_amp_cond2,3.0.4,60.064880900199206,
forced,&&&&,right,fairness.vice,erks,,,,,,,,,,,,,,,0,20,20,302,,,,,,,,,,,,,AMP,left,0.6503849584842101,0,,,,,,,,,,,,,,left,0,0.6503849584842101,,,,,,,,,,,1020,2019_Mar_06_1240,mf_amp_cond2,3.0.4,60.064880900199206,
penalty,&&&&&&&&,right,authority.vice,ebbitter,,,,,,,,,,,,,,,0,21,21,210,,,,,,,,,,,,,AMP,left,1.1171729423804209,0,,,,,,,,,,,,,,left,0,1.1171729423804209,,,,,,,,,,,1020,2019_Mar_06_1240,mf_amp_cond2,3.0.4,60.064880900199206,
peaceful,&&&&&&&&&&,left,authority.virtue,galamitous,,,,,,,,,,,,,,,0,22,22,120,,,,,,,,,,,,,AMP,right,1.5005894807400182,0,,,,,,,,,,,,,,right,0,1.5005894807400182,,,,,,,,,,,1020,2019_Mar_06_1240,mf_amp_cond2,3.0.4,60.064880900199206,
terrorists,&&&&&&&&&&&,right,fairness.vice,precificity,,,,,,,,,,,,,,,0,23,23,290,,,,,,,,,,,,,AMP,right,1.8506817515008152,1,,,,,,,,,,,,,,right,1,1.8506817515008152,,,,,,,,,,,1020,2019_Mar_06_1240,mf_amp_cond2,3.0.4,60.064880900199206,
unpleasant,&&&&&&,None,control,chared,,,,,,,,,,,,,,,0,24,24,90,,,,,,,,,,,,,AMP,left,1.6338076547253877,0,,,,,,,,,,,,,,left,0,1.6338076547253877,,,,,,,,,,,1020,2019_Mar_06_1240,mf_amp_cond2,3.0.4,60.064880900199206,
army,&&&&&&&&&&&&,right,loyalty.vice,bruthfulness,,,,,,,,,,,,,,,0,25,25,89,,,,,,,,,,,,,AMP,left,0.8504367225104943,0,,,,,,,,,,,,,,left,0,0.8504367225104943,,,,,,,,,,,1020,2019_Mar_06_1240,mf_amp_cond2,3.0.4,60.064880900199206,
protesters,&&&&,right,authority.vice,spag,,,,,,,,,,,,,,,0,26,26,108,,,,,,,,,,,,,AMP,left,1.2006139836739749,0,,,,,,,,,,,,,,left,0,1.2006139836739749,,,,,,,,,,,1020,2019_Mar_06_1240,mf_amp_cond2,3.0.4,60.064880900199206,
unpleasant,&&&&&&&,None,control,dramens,,,,,,,,,,,,,,,0,27,27,224,,,,,,,,,,,,,AMP,left,0.6170478620333597,0,,,,,,,,,,,,,,left,0,0.6170478620333597,,,,,,,,,,,1020,2019_Mar_06_1240,mf_amp_cond2,3.0.4,60.064880900199206,
credit,&&&&&&&&&&,left,fairness.virtue,galamitous,,,,,,,,,,,,,,,0,28,28,266,,,,,,,,,,,,,AMP,left,3.0341539666987956,1,,,,,,,,,,,,,,left,1,3.0341539666987956,,,,,,,,,,,1020,2019_Mar_06_1240,mf_amp_cond2,3.0.4,60.064880900199206,
failure,&&&&&&&&&,right,loyalty.vice,gondensed,,,,,,,,,,,,,,,0,29,29,304,,,,,,,,,,,,,AMP,left,3.5011010270100087,0,,,,,,,,,,,,,,left,0,3.5011010270100087,,,,,,,,,,,1020,2019_Mar_06_1240,mf_amp_cond2,3.0.4,60.064880900199206,
edancipation,&&&&&&&&&&&&,None,nonword,unreflectuve,,,,,,,,,,,,,,,0,30,30,32,,,,,,,,,,,,,AMP,left,1.0171183560742065,0,,,,,,,,,,,,,,left,0,1.0171183560742065,,,,,,,,,,,1020,2019_Mar_06_1240,mf_amp_cond2,3.0.4,60.064880900199206,
mightingale,&&&&&&&&&&,None,nonword,clattening,,,,,,,,,,,,,,,0,31,31,111,,,,,,,,,,,,,AMP,left,2.0173608193872496,0,,,,,,,,,,,,,,left,0,2.0173608193872496,,,,,,,,,,,1020,2019_Mar_06_1240,mf_amp_cond2,3.0.4,60.064880900199206,
strong,&&&&&&&&&&,left,loyalty.virtue,clattening,,,,,,,,,,,,,,,0,32,32,230,,,,,,,,,,,,,AMP,right,0.7004003851907328,0,,,,,,,,,,,,,,right,0,0.7004003851907328,,,,,,,,,,,1020,2019_Mar_06_1240,mf_amp_cond2,3.0.4,60.064880900199206,
abuse,&&&&&&,right,sanctity.vice,forepo,,,,,,,,,,,,,,,0,33,33,326,,,,,,,,,,,,,AMP,left,3.234202202875167,0,,,,,,,,,,,,,,left,0,3.234202202875167,,,,,,,,,,,1020,2019_Mar_06_1240,mf_amp_cond2,3.0.4,60.064880900199206,
win,&&&&&,left,fairness.virtue,ablow,,,,,,,,,,,,,,,0,34,34,296,,,,,,,,,,,,,AMP,left,0.6170295811025426,1,,,,,,,,,,,,,,left,1,0.6170295811025426,,,,,,,,,,,1020,2019_Mar_06_1240,mf_amp_cond2,3.0.4,60.064880900199206,
sexual,&&&&&&&&&&,right,sanctity.vice,gationwide,,,,,,,,,,,,,,,0,35,35,20,,,,,,,,,,,,,AMP,left,1.5339920038823038,0,,,,,,,,,,,,,,left,0,1.5339920038823038,,,,,,,,,,,1020,2019_Mar_06_1240,mf_amp_cond2,3.0.4,60.064880900199206,
harassment,&&&&&&,right,sanctity.vice,sonvoy,,,,,,,,,,,,,,,0,36,36,110,,,,,,,,,,,,,AMP,right,3.267701262142509,1,,,,,,,,,,,,,,right,1,3.267701262142509,,,,,,,,,,,1020,2019_Mar_06_1240,mf_amp_cond2,3.0.4,60.064880900199206,
edancipation,&&&&&&&&&&&&&,None,nonword,photocalkodes,,,,,,,,,,,,,,,0,37,37,189,,,,,,,,,,,,,AMP,right,1.2170588306616992,0,,,,,,,,,,,,,,right,0,1.2170588306616992,,,,,,,,,,,1020,2019_Mar_06_1240,mf_amp_cond2,3.0.4,60.064880900199206,
drug,&&&&&,right,sanctity.vice,framo,,,,,,,,,,,,,,,0,38,38,146,,,,,,,,,,,,,AMP,left,1.5339275394799188,0,,,,,,,,,,,,,,left,0,1.5339275394799188,,,,,,,,,,,1020,2019_Mar_06_1240,mf_amp_cond2,3.0.4,60.064880900199206,
laming,&&&&&&,None,nonword,sonvoy,,,,,,,,,,,,,,,0,39,39,76,,,,,,,,,,,,,AMP,right,1.1004888393217698,0,,,,,,,,,,,,,,right,0,1.1004888393217698,,,,,,,,,,,1020,2019_Mar_06_1240,mf_amp_cond2,3.0.4,60.064880900199206,
fegard,&&&&&&&&&&,None,nonword,ecgagement,,,,,,,,,,,,,,,0,40,40,8,,,,,,,,,,,,,AMP,right,1.017144013545476,0,,,,,,,,,,,,,,right,0,1.017144013545476,,,,,,,,,,,1020,2019_Mar_06_1240,mf_amp_cond2,3.0.4,60.064880900199206,
edancipation,&&&&&&&&,None,nonword,sidearbs,,,,,,,,,,,,,,,0,41,41,116,,,,,,,,,,,,,AMP,left,2.2007602313533425,0,,,,,,,,,,,,,,left,0,2.2007602313533425,,,,,,,,,,,1020,2019_Mar_06_1240,mf_amp_cond2,3.0.4,60.064880900199206,
sexual,&&&&&&&&&,right,sanctity.vice,discovars,,,,,,,,,,,,,,,0,42,42,232,,,,,,,,,,,,,AMP,right,0.5670067780883983,1,,,,,,,,,,,,,,right,1,0.5670067780883983,,,,,,,,,,,1020,2019_Mar_06_1240,mf_amp_cond2,3.0.4,60.064880900199206,
laming,&&&&&&&&&&,None,nonword,elduringly,,,,,,,,,,,,,,,0,43,43,118,,,,,,,,,,,,,AMP,right,3.201001411769539,0,,,,,,,,,,,,,,right,0,3.201001411769539,,,,,,,,,,,1020,2019_Mar_06_1240,mf_amp_cond2,3.0.4,60.064880900199206,
civilians,&&&&&&&,right,care.vice,emports,,,,,,,,,,,,,,,0,44,44,77,,,,,,,,,,,,,AMP,right,0.8003982042428106,1,,,,,,,,,,,,,,right,1,0.8003982042428106,,,,,,,,,,,1020,2019_Mar_06_1240,mf_amp_cond2,3.0.4,60.064880900199206,
strength,&&&&&&&&&&&&,left,sanctity.virtue,feleological,,,,,,,,,,,,,,,0,45,45,140,,,,,,,,,,,,,AMP,right,0.5170384971424937,0,,,,,,,,,,,,,,right,0,0.5170384971424937,,,,,,,,,,,1020,2019_Mar_06_1240,mf_amp_cond2,3.0.4,60.064880900199206,
party,&&&&&&,left,loyalty.virtue,erdest,,,,,,,,,,,,,,,0,46,46,129,,,,,,,,,,,,,AMP,right,0.7004234768683091,0,,,,,,,,,,,,,,right,0,0.7004234768683091,,,,,,,,,,,1020,2019_Mar_06_1240,mf_amp_cond2,3.0.4,60.064880900199206,
betrayal,&&&&&&&&,right,loyalty.vice,ugeasily,,,,,,,,,,,,,,,0,47,47,276,,,,,,,,,,,,,AMP,left,0.4670006203232333,0,,,,,,,,,,,,,,left,0,0.4670006203232333,,,,,,,,,,,1020,2019_Mar_06_1240,mf_amp_cond2,3.0.4,60.064880900199206,
celebrated,&&&&&&&&&,left,authority.virtue,rivernoat,,,,,,,,,,,,,,,0,48,48,160,,,,,,,,,,,,,AMP,right,0.8504325532121584,0,,,,,,,,,,,,,,right,0,0.8504325532121584,,,,,,,,,,,1020,2019_Mar_06_1240,mf_amp_cond2,3.0.4,60.064880900199206,
freedom,&&&&&&&&&,left,sanctity.virtue,seachwear,,,,,,,,,,,,,,,0,49,49,272,,,,,,,,,,,,,AMP,left,0.43365871300920844,1,,,,,,,,,,,,,,left,1,0.43365871300920844,,,,,,,,,,,1020,2019_Mar_06_1240,mf_amp_cond2,3.0.4,60.064880900199206,
hate,&&&&&&&&,right,fairness.vice,perified,,,,,,,,,,,,,,,0,50,50,107,,,,,,,,,,,,,AMP,right,0.45034890982788056,1,,,,,,,,,,,,,,right,1,0.45034890982788056,,,,,,,,,,,1020,2019_Mar_06_1240,mf_amp_cond2,3.0.4,60.064880900199206,
integrity,&&&&&&,left,fairness.virtue,forepo,,,,,,,,,,,,,,,0,51,51,142,,,,,,,,,,,,,AMP,right,1.4672527051297948,0,,,,,,,,,,,,,,right,0,1.4672527051297948,,,,,,,,,,,1020,2019_Mar_06_1240,mf_amp_cond2,3.0.4,60.064880900199206,
betrayal,&&&&&&&&&&&&&,right,loyalty.vice,idexpressible,,,,,,,,,,,,,,,0,52,52,36,,,,,,,,,,,,,AMP,left,0.5003547148080543,0,,,,,,,,,,,,,,left,0,0.5003547148080543,,,,,,,,,,,1020,2019_Mar_06_1240,mf_amp_cond2,3.0.4,60.064880900199206,
promises,&&&&&&&&,left,fairness.virtue,gowlands,,,,,,,,,,,,,,,0,53,53,164,,,,,,,,,,,,,AMP,right,0.5504015717888251,0,,,,,,,,,,,,,,right,0,0.5504015717888251,,,,,,,,,,,1020,2019_Mar_06_1240,mf_amp_cond2,3.0.4,60.064880900199206,
death,&&&&&&&,right,care.vice,hatigue,,,,,,,,,,,,,,,0,54,54,47,,,,,,,,,,,,,AMP,left,0.4336721833096817,0,,,,,,,,,,,,,,left,0,0.4336721833096817,,,,,,,,,,,1020,2019_Mar_06_1240,mf_amp_cond2,3.0.4,60.064880900199206,
values,&&&&&,left,sanctity.virtue,dumid,,,,,,,,,,,,,,,0,55,55,9,,,,,,,,,,,,,AMP,left,0.9504547469550744,1,,,,,,,,,,,,,,left,1,0.9504547469550744,,,,,,,,,,,1020,2019_Mar_06_1240,mf_amp_cond2,3.0.4,60.064880900199206,
faith,&&&&&&&&,left,sanctity.virtue,sidearbs,,,,,,,,,,,,,,,0,56,56,59,,,,,,,,,,,,,AMP,left,0.4670044688973576,1,,,,,,,,,,,,,,left,1,0.4670044688973576,,,,,,,,,,,1020,2019_Mar_06_1240,mf_amp_cond2,3.0.4,60.064880900199206,
injured,&&&&&&&&,right,care.vice,epigrach,,,,,,,,,,,,,,,0,57,57,274,,,,,,,,,,,,,AMP,right,2.967613192740828,1,,,,,,,,,,,,,,right,1,2.967613192740828,,,,,,,,,,,1020,2019_Mar_06_1240,mf_amp_cond2,3.0.4,60.064880900199206,
promised,&&&,left,loyalty.virtue,oam,,,,,,,,,,,,,,,0,58,58,73,,,,,,,,,,,,,AMP,right,2.0007094296161085,0,,,,,,,,,,,,,,right,0,2.0007094296161085,,,,,,,,,,,1020,2019_Mar_06_1240,mf_amp_cond2,3.0.4,60.064880900199206,
laming,&&&&&&&&&&,None,nonword,elduringly,,,,,,,,,,,,,,,0,59,59,262,,,,,,,,,,,,,AMP,right,0.5670731668360531,0,,,,,,,,,,,,,,right,0,0.5670731668360531,,,,,,,,,,,1020,2019_Mar_06_1240,mf_amp_cond2,3.0.4,60.064880900199206,
faith,&&&&&,left,sanctity.virtue,pulge,,,,,,,,,,,,,,,0,60,60,236,,,,,,,,,,,,,AMP,right,1.1171658865641803,0,,,,,,,,,,,,,,right,0,1.1171658865641803,,,,,,,,,,,1020,2019_Mar_06_1240,mf_amp_cond2,3.0.4,60.064880900199206,
health,&&&&&&&&&&&,left,care.virtue,precificity,,,,,,,,,,,,,,,0,61,61,243,,,,,,,,,,,,,AMP,right,5.568256618571468,0,,,,,,,,,,,,,,right,0,5.568256618571468,,,,,,,,,,,1020,2019_Mar_06_1240,mf_amp_cond2,3.0.4,60.064880900199206,
protesters,&&&&&&,right,authority.vice,erdest,,,,,,,,,,,,,,,0,62,62,286,,,,,,,,,,,,,AMP,left,0.7837525873910636,0,,,,,,,,,,,,,,left,0,0.7837525873910636,,,,,,,,,,,1020,2019_Mar_06_1240,mf_amp_cond2,3.0.4,60.064880900199206,
illegal,&&&&&&&&&,right,fairness.vice,seachwear,,,,,,,,,,,,,,,0,63,63,44,,,,,,,,,,,,,AMP,right,3.717799690668471,1,,,,,,,,,,,,,,right,1,3.717799690668471,,,,,,,,,,,1020,2019_Mar_06_1240,mf_amp_cond2,3.0.4,60.064880900199206,
growth,&&&&&&,left,care.virtue,erdest,,,,,,,,,,,,,,,0,64,64,15,,,,,,,,,,,,,AMP,right,0.7837525873910636,0,,,,,,,,,,,,,,right,0,0.7837525873910636,,,,,,,,,,,1020,2019_Mar_06_1240,mf_amp_cond2,3.0.4,60.064880900199206,
improve,&&&&&&&,left,care.virtue,nackers,,,,,,,,,,,,,,,0,65,65,308,,,,,,,,,,,,,AMP,right,0.8004123157588765,0,,,,,,,,,,,,,,right,0,0.8004123157588765,,,,,,,,,,,1020,2019_Mar_06_1240,mf_amp_cond2,3.0.4,60.064880900199206,
racist,&&&&&&&&&&,right,sanctity.vice,frocessing,,,,,,,,,,,,,,,0,66,66,19,,,,,,,,,,,,,AMP,left,7.652098237420432,0,,,,,,,,,,,,,,left,0,7.652098237420432,,,,,,,,,,,1020,2019_Mar_06_1240,mf_amp_cond2,3.0.4,60.064880900199206,
honored,&&&&,left,authority.virtue,erks,,,,,,,,,,,,,,,0,67,67,71,,,,,,,,,,,,,AMP,right,0.3003295704256743,0,,,,,,,,,,,,,,right,0,0.3003295704256743,,,,,,,,,,,1020,2019_Mar_06_1240,mf_amp_cond2,3.0.4,60.064880900199206,
penalty,&&&&&&&,right,authority.vice,hatigue,,,,,,,,,,,,,,,0,68,68,278,,,,,,,,,,,,,AMP,right,0.58370787918102,1,,,,,,,,,,,,,,right,1,0.58370787918102,,,,,,,,,,,1020,2019_Mar_06_1240,mf_amp_cond2,3.0.4,60.064880900199206,
health,&&&&&&&&&,left,care.virtue,godlaness,,,,,,,,,,,,,,,0,69,69,49,,,,,,,,,,,,,AMP,right,0.5503531432477757,0,,,,,,,,,,,,,,right,0,0.5503531432477757,,,,,,,,,,,1020,2019_Mar_06_1240,mf_amp_cond2,3.0.4,60.064880900199206,
peace,&&&&&,left,care.virtue,dumid,,,,,,,,,,,,,,,0,70,70,238,,,,,,,,,,,,,AMP,right,0.817098663887009,0,,,,,,,,,,,,,,right,0,0.817098663887009,,,,,,,,,,,1020,2019_Mar_06_1240,mf_amp_cond2,3.0.4,60.064880900199206,
honored,&&&&&&&,left,authority.virtue,emports,,,,,,,,,,,,,,,0,71,71,246,,,,,,,,,,,,,AMP,right,0.7170806395588443,0,,,,,,,,,,,,,,right,0,0.7170806395588443,,,,,,,,,,,1020,2019_Mar_06_1240,mf_amp_cond2,3.0.4,60.064880900199206,
progress,&&&&&&&&,left,authority.virtue,gournful,,,,,,,,,,,,,,,0,72,72,92,,,,,,,,,,,,,AMP,left,0.917131120688282,1,,,,,,,,,,,,,,left,1,0.917131120688282,,,,,,,,,,,1020,2019_Mar_06_1240,mf_amp_cond2,3.0.4,60.064880900199206,
ensure,&&&&&&&&&,left,fairness.virtue,godlaness,,,,,,,,,,,,,,,0,73,73,273,,,,,,,,,,,,,AMP,right,1.0838265451602638,0,,,,,,,,,,,,,,right,0,1.0838265451602638,,,,,,,,,,,1020,2019_Mar_06_1240,mf_amp_cond2,3.0.4,60.064880900199206,
respect,&&&&&,left,sanctity.virtue,ablow,,,,,,,,,,,,,,,0,74,74,21,,,,,,,,,,,,,AMP,left,3.317710595089011,1,,,,,,,,,,,,,,left,1,3.317710595089011,,,,,,,,,,,1020,2019_Mar_06_1240,mf_amp_cond2,3.0.4,60.064880900199206,
fear,&&&&&,right,sanctity.vice,hasks,,,,,,,,,,,,,,,0,75,75,257,,,,,,,,,,,,,AMP,left,0.3836394378449768,0,,,,,,,,,,,,,,left,0,0.3836394378449768,,,,,,,,,,,1020,2019_Mar_06_1240,mf_amp_cond2,3.0.4,60.064880900199206,
officers,&&&&&&&&,right,authority.vice,thadowed,,,,,,,,,,,,,,,0,76,76,271,,,,,,,,,,,,,AMP,left,0.4836847232654691,0,,,,,,,,,,,,,,left,0,0.4836847232654691,,,,,,,,,,,1020,2019_Mar_06_1240,mf_amp_cond2,3.0.4,60.064880900199206,
abuse,&&&&&,right,sanctity.vice,framo,,,,,,,,,,,,,,,0,77,77,42,,,,,,,,,,,,,AMP,right,0.25026828108821064,1,,,,,,,,,,,,,,right,1,0.25026828108821064,,,,,,,,,,,1020,2019_Mar_06_1240,mf_amp_cond2,3.0.4,60.064880900199206,
suggists,&&&&&&&&&,None,nonword,rivernoat,,,,,,,,,,,,,,,0,78,78,64,,,,,,,,,,,,,AMP,right,0.8504428161541,0,,,,,,,,,,,,,,right,0,0.8504428161541,,,,,,,,,,,1020,2019_Mar_06_1240,mf_amp_cond2,3.0.4,60.064880900199206,
prosecution,&&&&&&&&,right,authority.vice,ebbitter,,,,,,,,,,,,,,,0,79,79,135,,,,,,,,,,,,,AMP,left,0.633577699540183,0,,,,,,,,,,,,,,left,0,0.633577699540183,,,,,,,,,,,1020,2019_Mar_06_1240,mf_amp_cond2,3.0.4,60.064880900199206,
synchronazers,&&&,None,nonword,oam,,,,,,,,,,,,,,,0,80,80,263,,,,,,,,,,,,,AMP,right,2.434153261128813,0,,,,,,,,,,,,,,right,0,2.434153261128813,,,,,,,,,,,1020,2019_Mar_06_1240,mf_amp_cond2,3.0.4,60.064880900199206,
abuse,&&&&,right,sanctity.vice,wump,,,,,,,,,,,,,,,0,81,81,186,,,,,,,,,,,,,AMP,left,0.7003962157759815,0,,,,,,,,,,,,,,left,0,0.7003962157759815,,,,,,,,,,,1020,2019_Mar_06_1240,mf_amp_cond2,3.0.4,60.064880900199206,
growth,&&&&&&&&&&,left,care.virtue,frocessing,,,,,,,,,,,,,,,0,82,82,254,,,,,,,,,,,,,AMP,right,0.617054597241804,0,,,,,,,,,,,,,,right,0,0.617054597241804,,,,,,,,,,,1020,2019_Mar_06_1240,mf_amp_cond2,3.0.4,60.064880900199206,
died,&&&&&&&&&&&&,right,care.vice,feleological,,,,,,,,,,,,,,,0,83,83,200,,,,,,,,,,,,,AMP,left,1.4172918007243425,0,,,,,,,,,,,,,,left,0,1.4172918007243425,,,,,,,,,,,1020,2019_Mar_06_1240,mf_amp_cond2,3.0.4,60.064880900199206,
restore,&&&&&&&&,left,care.virtue,epigrach,,,,,,,,,,,,,,,0,84,84,241,,,,,,,,,,,,,AMP,left,3.2343824467388913,1,,,,,,,,,,,,,,left,1,3.2343824467388913,,,,,,,,,,,1020,2019_Mar_06_1240,mf_amp_cond2,3.0.4,60.064880900199206,
cromiscuity,&&&&,None,nonword,yane,,,,,,,,,,,,,,,0,85,85,33,,,,,,,,,,,,,AMP,left,0.9504646892892197,0,,,,,,,,,,,,,,left,0,0.9504646892892197,,,,,,,,,,,1020,2019_Mar_06_1240,mf_amp_cond2,3.0.4,60.064880900199206,
agreement,&&&&&&&&&&,left,fairness.virtue,honstables,,,,,,,,,,,,,,,0,86,86,319,,,,,,,,,,,,,AMP,right,2.1507646894315258,0,,,,,,,,,,,,,,right,0,2.1507646894315258,,,,,,,,,,,1020,2019_Mar_06_1240,mf_amp_cond2,3.0.4,60.064880900199206,
fear,&&&&&,right,sanctity.vice,scock,,,,,,,,,,,,,,,0,87,87,24,,,,,,,,,,,,,AMP,left,0.5336927734315395,0,,,,,,,,,,,,,,left,0,0.5336927734315395,,,,,,,,,,,1020,2019_Mar_06_1240,mf_amp_cond2,3.0.4,60.064880900199206,
harassment,&&&&&&&&&&&,right,sanctity.vice,lempestuous,,,,,,,,,,,,,,,0,88,88,216,,,,,,,,,,,,,AMP,left,1.2338888606755063,0,,,,,,,,,,,,,,left,0,1.2338888606755063,,,,,,,,,,,1020,2019_Mar_06_1240,mf_amp_cond2,3.0.4,60.064880900199206,
emassion,&&&&&&&&&&&&,None,nonword,rorroborated,,,,,,,,,,,,,,,0,89,89,60,,,,,,,,,,,,,AMP,left,1.3505544263171032,0,,,,,,,,,,,,,,left,0,1.3505544263171032,,,,,,,,,,,1020,2019_Mar_06_1240,mf_amp_cond2,3.0.4,60.064880900199206,
credit,&&&&&&&&,left,fairness.virtue,lachelor,,,,,,,,,,,,,,,0,90,90,184,,,,,,,,,,,,,AMP,right,1.067159760859795,0,,,,,,,,,,,,,,right,0,1.067159760859795,,,,,,,,,,,1020,2019_Mar_06_1240,mf_amp_cond2,3.0.4,60.064880900199206,
growth,&&&&&&&&,left,care.virtue,gowlands,,,,,,,,,,,,,,,0,91,91,121,,,,,,,,,,,,,AMP,left,1.5672652773791924,1,,,,,,,,,,,,,,left,1,1.5672652773791924,,,,,,,,,,,1020,2019_Mar_06_1240,mf_amp_cond2,3.0.4,60.064880900199206,
abuse,&&&&&&,right,sanctity.vice,letish,,,,,,,,,,,,,,,0,92,92,143,,,,,,,,,,,,,AMP,left,0.7504100387450308,0,,,,,,,,,,,,,,left,0,0.7504100387450308,,,,,,,,,,,1020,2019_Mar_06_1240,mf_amp_cond2,3.0.4,60.064880900199206,
hand,&&&&&&&&&,left,sanctity.virtue,discovars,,,,,,,,,,,,,,,0,93,93,22,,,,,,,,,,,,,AMP,right,1.0505346700083464,0,,,,,,,,,,,,,,right,0,1.0505346700083464,,,,,,,,,,,1020,2019_Mar_06_1240,mf_amp_cond2,3.0.4,60.064880900199206,
protect,&&&&&,left,fairness.virtue,uller,,,,,,,,,,,,,,,0,94,94,214,,,,,,,,,,,,,AMP,right,1.9840051212813705,0,,,,,,,,,,,,,,right,0,1.9840051212813705,,,,,,,,,,,1020,2019_Mar_06_1240,mf_amp_cond2,3.0.4,60.064880900199206,
improve,&&&&&&&&,left,care.virtue,slending,,,,,,,,,,,,,,,0,95,95,195,,,,,,,,,,,,,AMP,left,0.617048503481783,1,,,,,,,,,,,,,,left,1,0.617048503481783,,,,,,,,,,,1020,2019_Mar_06_1240,mf_amp_cond2,3.0.4,60.064880900199206,
sharing,&&&&&&&&&&&&,left,loyalty.virtue,unreflectuve,,,,,,,,,,,,,,,0,96,96,275,,,,,,,,,,,,,AMP,left,0.5837062756763771,1,,,,,,,,,,,,,,left,1,0.5837062756763771,,,,,,,,,,,1020,2019_Mar_06_1240,mf_amp_cond2,3.0.4,60.064880900199206,
commitment,&&&&&&&&&,left,sanctity.virtue,ittutable,,,,,,,,,,,,,,,0,97,97,2,,,,,,,,,,,,,AMP,left,0.9171105946879834,1,,,,,,,,,,,,,,left,1,0.9171105946879834,,,,,,,,,,,1020,2019_Mar_06_1240,mf_amp_cond2,3.0.4,60.064880900199206,
died,&&&&&&&&&&&&,right,care.vice,rorroborated,,,,,,,,,,,,,,,0,98,98,132,,,,,,,,,,,,,AMP,left,1.2838815161958337,0,,,,,,,,,,,,,,left,0,1.2838815161958337,,,,,,,,,,,1020,2019_Mar_06_1240,mf_amp_cond2,3.0.4,60.064880900199206,
fegard,&&&&&&&&&&,None,nonword,simplustic,,,,,,,,,,,,,,,0,99,99,300,,,,,,,,,,,,,AMP,right,0.5003758822567761,0,,,,,,,,,,,,,,right,0,0.5003758822567761,,,,,,,,,,,1020,2019_Mar_06_1240,mf_amp_cond2,3.0.4,60.064880900199206,
actively,&&&&&&&&&&&&&,left,authority.virtue,photocalkodes,,,,,,,,,,,,,,,0,100,100,72,,,,,,,,,,,,,AMP,left,0.35029945499263704,1,,,,,,,,,,,,,,left,1,0.35029945499263704,,,,,,,,,,,1020,2019_Mar_06_1240,mf_amp_cond2,3.0.4,60.064880900199206,
faith,&&&&&,left,sanctity.virtue,mecan,,,,,,,,,,,,,,,0,101,101,253,,,,,,,,,,,,,AMP,right,1.0671485357452184,0,,,,,,,,,,,,,,right,0,1.0671485357452184,,,,,,,,,,,1020,2019_Mar_06_1240,mf_amp_cond2,3.0.4,60.064880900199206,
emassion,&&&&&&&,None,nonword,halaise,,,,,,,,,,,,,,,0,102,102,235,,,,,,,,,,,,,AMP,right,1.250534798251465,0,,,,,,,,,,,,,,right,0,1.250534798251465,,,,,,,,,,,1020,2019_Mar_06_1240,mf_amp_cond2,3.0.4,60.064880900199206,
fear,&&&&&&&&,right,sanctity.vice,counpy's,,,,,,,,,,,,,,,0,103,103,98,,,,,,,,,,,,,AMP,left,0.8336865514284,0,,,,,,,,,,,,,,left,0,0.8336865514284,,,,,,,,,,,1020,2019_Mar_06_1240,mf_amp_cond2,3.0.4,60.064880900199206,
fegard,&&&&&&&,None,nonword,festate,,,,,,,,,,,,,,,0,104,104,156,,,,,,,,,,,,,AMP,right,2.9675246744882315,0,,,,,,,,,,,,,,right,0,2.9675246744882315,,,,,,,,,,,1020,2019_Mar_06_1240,mf_amp_cond2,3.0.4,60.064880900199206,
good,&&&&&&&&&,left,care.virtue,refuejing,,,,,,,,,,,,,,,0,105,105,134,,,,,,,,,,,,,AMP,right,1.2838696497492492,0,,,,,,,,,,,,,,right,0,1.2838696497492492,,,,,,,,,,,1020,2019_Mar_06_1240,mf_amp_cond2,3.0.4,60.064880900199206,
hate,&&&&&&&&&&&,right,fairness.vice,ronviolence,,,,,,,,,,,,,,,0,106,106,217,,,,,,,,,,,,,AMP,left,0.7337445373414084,0,,,,,,,,,,,,,,left,0,0.7337445373414084,,,,,,,,,,,1020,2019_Mar_06_1240,mf_amp_cond2,3.0.4,60.064880900199206,
terrorist,&&&&&&&&&,right,loyalty.vice,reprisols,,,,,,,,,,,,,,,0,107,107,151,,,,,,,,,,,,,AMP,left,0.3169158543460071,0,,,,,,,,,,,,,,left,0,0.3169158543460071,,,,,,,,,,,1020,2019_Mar_06_1240,mf_amp_cond2,3.0.4,60.064880900199206,
ensure,&&&&&&&&&&,left,fairness.virtue,ecgagement,,,,,,,,,,,,,,,0,108,108,155,,,,,,,,,,,,,AMP,right,0.6670690615428612,0,,,,,,,,,,,,,,right,0,0.6670690615428612,,,,,,,,,,,1020,2019_Mar_06_1240,mf_amp_cond2,3.0.4,60.064880900199206,
accused,&&&&&&&&&,right,fairness.vice,rivernoat,,,,,,,,,,,,,,,0,109,109,297,,,,,,,,,,,,,AMP,left,0.46701633546035737,0,,,,,,,,,,,,,,left,0,0.46701633546035737,,,,,,,,,,,1020,2019_Mar_06_1240,mf_amp_cond2,3.0.4,60.064880900199206,
torture,&&&&&&&&&&,right,care.vice,clattening,,,,,,,,,,,,,,,0,110,110,258,,,,,,,,,,,,,AMP,left,0.4670137696666643,0,,,,,,,,,,,,,,left,0,0.4670137696666643,,,,,,,,,,,1020,2019_Mar_06_1240,mf_amp_cond2,3.0.4,60.064880900199206,
civilians,&&&&&&&&&,right,care.vice,godlaness,,,,,,,,,,,,,,,0,111,111,208,,,,,,,,,,,,,AMP,right,0.800423220382072,1,,,,,,,,,,,,,,right,1,0.800423220382072,,,,,,,,,,,1020,2019_Mar_06_1240,mf_amp_cond2,3.0.4,60.064880900199206,
synchronazers,&&&&&&&&,None,nonword,drumbled,,,,,,,,,,,,,,,0,112,112,173,,,,,,,,,,,,,AMP,left,1.0171462586149573,0,,,,,,,,,,,,,,left,0,1.0171462586149573,,,,,,,,,,,1020,2019_Mar_06_1240,mf_amp_cond2,3.0.4,60.064880900199206,
torture,&&&&&&&&&,right,care.vice,seachwear,,,,,,,,,,,,,,,0,113,113,93,,,,,,,,,,,,,AMP,left,2.50085247005336,0,,,,,,,,,,,,,,left,0,2.50085247005336,,,,,,,,,,,1020,2019_Mar_06_1240,mf_amp_cond2,3.0.4,60.064880900199206,
ban,&&&&&&&&&&&&,right,loyalty.vice,unreflectuve,,,,,,,,,,,,,,,0,114,114,209,,,,,,,,,,,,,AMP,left,0.4003415012266487,0,,,,,,,,,,,,,,left,0,0.4003415012266487,,,,,,,,,,,1020,2019_Mar_06_1240,mf_amp_cond2,3.0.4,60.064880900199206,
pleasant,&&&&&,None,control,uller,,,,,,,,,,,,,,,0,115,115,261,,,,,,,,,,,,,AMP,right,0.6503875242779031,0,,,,,,,,,,,,,,right,0,0.6503875242779031,,,,,,,,,,,1020,2019_Mar_06_1240,mf_amp_cond2,3.0.4,60.064880900199206,
promises,&&&&&&&&&&&&,left,fairness.virtue,feleological,,,,,,,,,,,,,,,0,116,116,14,,,,,,,,,,,,,AMP,right,0.48369338270276785,0,,,,,,,,,,,,,,right,0,0.48369338270276785,,,,,,,,,,,1020,2019_Mar_06_1240,mf_amp_cond2,3.0.4,60.064880900199206,
threatened,&&&&&&&&&&&,right,fairness.vice,precificity,,,,,,,,,,,,,,,0,117,117,48,,,,,,,,,,,,,AMP,left,0.4003277103183791,0,,,,,,,,,,,,,,left,0,0.4003277103183791,,,,,,,,,,,1020,2019_Mar_06_1240,mf_amp_cond2,3.0.4,60.064880900199206,
gun,&&&&&&&&&&,right,authority.vice,galamitous,,,,,,,,,,,,,,,0,118,118,81,,,,,,,,,,,,,AMP,left,3.317702897824347,0,,,,,,,,,,,,,,left,0,3.317702897824347,,,,,,,,,,,1020,2019_Mar_06_1240,mf_amp_cond2,3.0.4,60.064880900199206,
protesters,&&&&,right,authority.vice,erks,,,,,,,,,,,,,,,0,119,119,205,,,,,,,,,,,,,AMP,left,1.2005245031323284,0,,,,,,,,,,,,,,left,0,1.2005245031323284,,,,,,,,,,,1020,2019_Mar_06_1240,mf_amp_cond2,3.0.4,60.064880900199206,
care,&&&&&&&&&,left,care.virtue,gondensed,,,,,,,,,,,,,,,0,120,120,204,,,,,,,,,,,,,AMP,right,0.8504347981652245,0,,,,,,,,,,,,,,right,0,0.8504347981652245,,,,,,,,,,,1020,2019_Mar_06_1240,mf_amp_cond2,3.0.4,60.064880900199206,
hand,&&&&&&&&&&,left,sanctity.virtue,fonderland,,,,,,,,,,,,,,,0,121,121,112,,,,,,,,,,,,,AMP,right,3.8345027803443372,0,,,,,,,,,,,,,,right,0,3.8345027803443372,,,,,,,,,,,1020,2019_Mar_06_1240,mf_amp_cond2,3.0.4,60.064880900199206,
protesters,&&&&&&,right,authority.vice,letish,,,,,,,,,,,,,,,0,122,122,34,,,,,,,,,,,,,AMP,left,0.26696232648100704,0,,,,,,,,,,,,,,left,0,0.26696232648100704,,,,,,,,,,,1020,2019_Mar_06_1240,mf_amp_cond2,3.0.4,60.064880900199206,
squets,&&&&&&&&&,None,nonword,gondensed,,,,,,,,,,,,,,,0,123,123,95,,,,,,,,,,,,,AMP,left,0.850449551246129,0,,,,,,,,,,,,,,left,0,0.850449551246129,,,,,,,,,,,1020,2019_Mar_06_1240,mf_amp_cond2,3.0.4,60.064880900199206,
growth,&&&&&&&&&,left,care.virtue,rivernoat,,,,,,,,,,,,,,,0,124,124,176,,,,,,,,,,,,,AMP,left,0.7004151381552219,1,,,,,,,,,,,,,,left,1,0.7004151381552219,,,,,,,,,,,1020,2019_Mar_06_1240,mf_amp_cond2,3.0.4,60.064880900199206,
civilians,&&&&&&&,right,care.vice,festate,,,,,,,,,,,,,,,0,125,125,311,,,,,,,,,,,,,AMP,left,1.8840287902858108,0,,,,,,,,,,,,,,left,0,1.8840287902858108,,,,,,,,,,,1020,2019_Mar_06_1240,mf_amp_cond2,3.0.4,60.064880900199206,
torture,&&&,right,care.vice,oam,,,,,,,,,,,,,,,0,126,126,165,,,,,,,,,,,,,AMP,left,0.5337043191539124,0,,,,,,,,,,,,,,left,0,0.5337043191539124,,,,,,,,,,,1020,2019_Mar_06_1240,mf_amp_cond2,3.0.4,60.064880900199206,
harassment,&&&&&&&&,right,sanctity.vice,sidearbs,,,,,,,,,,,,,,,0,127,127,295,,,,,,,,,,,,,AMP,left,0.31695498200133443,0,,,,,,,,,,,,,,left,0,0.31695498200133443,,,,,,,,,,,1020,2019_Mar_06_1240,mf_amp_cond2,3.0.4,60.064880900199206,
commitment,&&&&&,left,sanctity.virtue,scock,,,,,,,,,,,,,,,0,128,128,181,,,,,,,,,,,,,AMP,right,0.3503231881186366,0,,,,,,,,,,,,,,right,0,0.3503231881186366,,,,,,,,,,,1020,2019_Mar_06_1240,mf_amp_cond2,3.0.4,60.064880900199206,
prosecution,&&&&&&&,right,authority.vice,sickyay,,,,,,,,,,,,,,,0,129,129,74,,,,,,,,,,,,,AMP,right,0.5003521491307765,1,,,,,,,,,,,,,,right,1,0.5003521491307765,,,,,,,,,,,1020,2019_Mar_06_1240,mf_amp_cond2,3.0.4,60.064880900199206,
loyalty,&&&&&&,left,loyalty.virtue,sonvoy,,,,,,,,,,,,,,,0,130,130,223,,,,,,,,,,,,,AMP,left,0.5670459057437256,1,,,,,,,,,,,,,,left,1,0.5670459057437256,,,,,,,,,,,1020,2019_Mar_06_1240,mf_amp_cond2,3.0.4,60.064880900199206,
restore,&&&&&&&&&,left,care.virtue,metibolic,,,,,,,,,,,,,,,0,131,131,123,,,,,,,,,,,,,AMP,right,0.9504957989556715,0,,,,,,,,,,,,,,right,0,0.9504957989556715,,,,,,,,,,,1020,2019_Mar_06_1240,mf_amp_cond2,3.0.4,60.064880900199206,
credit,&&&&&&&&&,left,fairness.virtue,reprisols,,,,,,,,,,,,,,,0,132,132,41,,,,,,,,,,,,,AMP,left,0.700271456153132,1,,,,,,,,,,,,,,left,1,0.700271456153132,,,,,,,,,,,1020,2019_Mar_06_1240,mf_amp_cond2,3.0.4,60.064880900199206,
troops,&&&&&&&&,right,loyalty.vice,counpy's,,,,,,,,,,,,,,,0,133,133,194,,,,,,,,,,,,,AMP,left,0.4670227498281747,0,,,,,,,,,,,,,,left,0,0.4670227498281747,,,,,,,,,,,1020,2019_Mar_06_1240,mf_amp_cond2,3.0.4,60.064880900199206,
faspberry,&&&&&&&&&&,None,nonword,chonograph,,,,,,,,,,,,,,,0,134,134,196,,,,,,,,,,,,,AMP,right,2.5175231030443683,0,,,,,,,,,,,,,,right,0,2.5175231030443683,,,,,,,,,,,1020,2019_Mar_06_1240,mf_amp_cond2,3.0.4,60.064880900199206,
strength,&&&&&&&&&&,left,sanctity.virtue,galamitous,,,,,,,,,,,,,,,0,135,135,225,,,,,,,,,,,,,AMP,right,0.6835575263248757,0,,,,,,,,,,,,,,right,0,0.6835575263248757,,,,,,,,,,,1020,2019_Mar_06_1240,mf_amp_cond2,3.0.4,60.064880900199206,
troops,&&&&&&&&&&,right,loyalty.vice,clattening,,,,,,,,,,,,,,,0,136,136,38,,,,,,,,,,,,,AMP,left,0.983818142209202,0,,,,,,,,,,,,,,left,0,0.983818142209202,,,,,,,,,,,1020,2019_Mar_06_1240,mf_amp_cond2,3.0.4,60.064880900199206,
death,&&&&&&&&&,right,care.vice,metibolic,,,,,,,,,,,,,,,0,137,137,321,,,,,,,,,,,,,AMP,left,1.717309953412041,0,,,,,,,,,,,,,,left,0,1.717309953412041,,,,,,,,,,,1020,2019_Mar_06_1240,mf_amp_cond2,3.0.4,60.064880900199206,
serial,&&&&&&&,right,sanctity.vice,nackers,,,,,,,,,,,,,,,0,138,138,144,,,,,,,,,,,,,AMP,left,0.800449198577553,0,,,,,,,,,,,,,,left,0,0.800449198577553,,,,,,,,,,,1020,2019_Mar_06_1240,mf_amp_cond2,3.0.4,60.064880900199206,
values,&&&&&&&&,left,sanctity.virtue,ugeasily,,,,,,,,,,,,,,,0,139,139,137,,,,,,,,,,,,,AMP,left,1.283894024323672,1,,,,,,,,,,,,,,left,1,1.283894024323672,,,,,,,,,,,1020,2019_Mar_06_1240,mf_amp_cond2,3.0.4,60.064880900199206,
fighters,&&&&&&&&,right,authority.vice,gournful,,,,,,,,,,,,,,,0,140,140,291,,,,,,,,,,,,,AMP,left,0.8504306288668886,0,,,,,,,,,,,,,,left,0,0.8504306288668886,,,,,,,,,,,1020,2019_Mar_06_1240,mf_amp_cond2,3.0.4,60.064880900199206,
ban,&&&&&&&,right,loyalty.vice,sickyay,,,,,,,,,,,,,,,0,141,141,306,,,,,,,,,,,,,AMP,left,0.3836804898455739,0,,,,,,,,,,,,,,left,0,0.3836804898455739,,,,,,,,,,,1020,2019_Mar_06_1240,mf_amp_cond2,3.0.4,60.064880900199206,
synchronazers,&&&&,None,nonword,wump,,,,,,,,,,,,,,,0,142,142,122,,,,,,,,,,,,,AMP,left,0.6170452964724973,0,,,,,,,,,,,,,,left,0,0.6170452964724973,,,,,,,,,,,1020,2019_Mar_06_1240,mf_amp_cond2,3.0.4,60.064880900199206,
suggists,&&&&&&&&&&&,None,nonword,nomparisons,,,,,,,,,,,,,,,0,143,143,228,,,,,,,,,,,,,AMP,right,1.0504724505590275,0,,,,,,,,,,,,,,right,0,1.0504724505590275,,,,,,,,,,,1020,2019_Mar_06_1240,mf_amp_cond2,3.0.4,60.064880900199206,
rebels,&&&&&&&&,right,authority.vice,bluently,,,,,,,,,,,,,,,0,144,144,114,,,,,,,,,,,,,AMP,left,0.25028816564008594,0,,,,,,,,,,,,,,left,0,0.25028816564008594,,,,,,,,,,,1020,2019_Mar_06_1240,mf_amp_cond2,3.0.4,60.064880900199206,
black,&&&&&&&,right,loyalty.vice,festate,,,,,,,,,,,,,,,0,145,145,198,,,,,,,,,,,,,AMP,left,0.4503434575162828,0,,,,,,,,,,,,,,left,0,0.4503434575162828,,,,,,,,,,,1020,2019_Mar_06_1240,mf_amp_cond2,3.0.4,60.064880900199206,
credit,&&&&,left,fairness.virtue,erks,,,,,,,,,,,,,,,0,146,146,148,,,,,,,,,,,,,AMP,left,0.4170111719286069,1,,,,,,,,,,,,,,left,1,0.4170111719286069,,,,,,,,,,,1020,2019_Mar_06_1240,mf_amp_cond2,3.0.4,60.064880900199206,
mightingale,&&&&&&,None,nonword,letish,,,,,,,,,,,,,,,0,147,147,322,,,,,,,,,,,,,AMP,left,0.817088721669279,0,,,,,,,,,,,,,,left,0,0.817088721669279,,,,,,,,,,,1020,2019_Mar_06_1240,mf_amp_cond2,3.0.4,60.064880900199206,
gun,&&&&&&&,right,authority.vice,emports,,,,,,,,,,,,,,,0,148,148,202,,,,,,,,,,,,,AMP,left,1.200525786029175,0,,,,,,,,,,,,,,left,0,1.200525786029175,,,,,,,,,,,1020,2019_Mar_06_1240,mf_amp_cond2,3.0.4,60.064880900199206,
terrorists,&&&&&,right,fairness.vice,ablow,,,,,,,,,,,,,,,0,149,149,119,,,,,,,,,,,,,AMP,left,0.3169767908984795,0,,,,,,,,,,,,,,left,0,0.3169767908984795,,,,,,,,,,,1020,2019_Mar_06_1240,mf_amp_cond2,3.0.4,60.064880900199206,
love,&&&&&&&&&&,left,loyalty.virtue,honstables,,,,,,,,,,,,,,,0,150,150,75,,,,,,,,,,,,,AMP,right,0.1836187836015597,0,,,,,,,,,,,,,,right,0,0.1836187836015597,,,,,,,,,,,1020,2019_Mar_06_1240,mf_amp_cond2,3.0.4,60.064880900199206,
threatened,&&&&&&&&&,right,fairness.vice,refuejing,,,,,,,,,,,,,,,0,151,151,277,,,,,,,,,,,,,AMP,left,0.8004408597480506,0,,,,,,,,,,,,,,left,0,0.8004408597480506,,,,,,,,,,,1020,2019_Mar_06_1240,mf_amp_cond2,3.0.4,60.064880900199206,
pleasant,&&&&&&&&,None,control,ugeasily,,,,,,,,,,,,,,,0,152,152,242,,,,,,,,,,,,,AMP,left,0.9004309817682952,0,,,,,,,,,,,,,,left,0,0.9004309817682952,,,,,,,,,,,1020,2019_Mar_06_1240,mf_amp_cond2,3.0.4,60.064880900199206,
prosecution,&&&&&&&&,right,authority.vice,counpy's,,,,,,,,,,,,,,,0,153,153,251,,,,,,,,,,,,,AMP,left,1.0004903788212687,0,,,,,,,,,,,,,,left,0,1.0004903788212687,,,,,,,,,,,1020,2019_Mar_06_1240,mf_amp_cond2,3.0.4,60.064880900199206,
shot,&&&&&&&,right,care.vice,halaise,,,,,,,,,,,,,,,0,154,154,323,,,,,,,,,,,,,AMP,left,0.35032767814118415,0,,,,,,,,,,,,,,left,0,0.35032767814118415,,,,,,,,,,,1020,2019_Mar_06_1240,mf_amp_cond2,3.0.4,60.064880900199206,
values,&&&&,left,sanctity.virtue,spag,,,,,,,,,,,,,,,0,155,155,268,,,,,,,,,,,,,AMP,right,1.5339419717201963,0,,,,,,,,,,,,,,right,0,1.5339419717201963,,,,,,,,,,,1020,2019_Mar_06_1240,mf_amp_cond2,3.0.4,60.064880900199206,
care,&&&&&&&&,left,care.virtue,gournful,,,,,,,,,,,,,,,0,156,156,70,,,,,,,,,,,,,AMP,left,0.4169842314440757,1,,,,,,,,,,,,,,left,1,0.4169842314440757,,,,,,,,,,,1020,2019_Mar_06_1240,mf_amp_cond2,3.0.4,60.064880900199206,
protect,&&&&&&&&&,left,fairness.virtue,brotesque,,,,,,,,,,,,,,,0,157,157,43,,,,,,,,,,,,,AMP,left,1.2505367225967348,1,,,,,,,,,,,,,,left,1,1.2505367225967348,,,,,,,,,,,1020,2019_Mar_06_1240,mf_amp_cond2,3.0.4,60.064880900199206,
rebels,&&&&&&&&&&,right,authority.vice,honstables,,,,,,,,,,,,,,,0,158,158,213,,,,,,,,,,,,,AMP,left,2.6675616854336113,0,,,,,,,,,,,,,,left,0,2.6675616854336113,,,,,,,,,,,1020,2019_Mar_06_1240,mf_amp_cond2,3.0.4,60.064880900199206,
serial,&&&&&&&&&&&&,right,sanctity.vice,bruthfulness,,,,,,,,,,,,,,,0,159,159,249,,,,,,,,,,,,,AMP,left,0.6001992304809391,0,,,,,,,,,,,,,,left,0,0.6001992304809391,,,,,,,,,,,1020,2019_Mar_06_1240,mf_amp_cond2,3.0.4,60.064880900199206,
sharing,&&&&&&&&,left,loyalty.virtue,lachelor,,,,,,,,,,,,,,,0,160,160,13,,,,,,,,,,,,,AMP,left,0.35032158449757844,1,,,,,,,,,,,,,,left,1,0.35032158449757844,,,,,,,,,,,1020,2019_Mar_06_1240,mf_amp_cond2,3.0.4,60.064880900199206,
sharing,&&&&&&&&,left,loyalty.virtue,gournful,,,,,,,,,,,,,,,0,161,161,191,,,,,,,,,,,,,AMP,left,0.33363812300376594,1,,,,,,,,,,,,,,left,1,0.33363812300376594,,,,,,,,,,,1020,2019_Mar_06_1240,mf_amp_cond2,3.0.4,60.064880900199206,
respect,&&&&&,left,sanctity.virtue,scock,,,,,,,,,,,,,,,0,162,162,282,,,,,,,,,,,,,AMP,left,0.4503505134489387,1,,,,,,,,,,,,,,left,1,0.4503505134489387,,,,,,,,,,,1020,2019_Mar_06_1240,mf_amp_cond2,3.0.4,60.064880900199206,
commitment,&&&&&&&&&&&&&,left,sanctity.virtue,idexpressible,,,,,,,,,,,,,,,0,163,163,313,,,,,,,,,,,,,AMP,left,0.3503257539123297,1,,,,,,,,,,,,,,left,1,0.3503257539123297,,,,,,,,,,,1020,2019_Mar_06_1240,mf_amp_cond2,3.0.4,60.064880900199206,
victim,&&&&&&&&&&&,right,care.vice,lempestuous,,,,,,,,,,,,,,,0,164,164,149,,,,,,,,,,,,,AMP,left,1.9505795064615086,0,,,,,,,,,,,,,,left,0,1.9505795064615086,,,,,,,,,,,1020,2019_Mar_06_1240,mf_amp_cond2,3.0.4,60.064880900199206,
party,&&&&&&&&&&,left,loyalty.virtue,elduringly,,,,,,,,,,,,,,,0,165,165,219,,,,,,,,,,,,,AMP,right,0.6337431903230026,0,,,,,,,,,,,,,,right,0,0.6337431903230026,,,,,,,,,,,1020,2019_Mar_06_1240,mf_amp_cond2,3.0.4,60.064880900199206,
win,&&&&&&&&,left,fairness.virtue,sidearbs,,,,,,,,,,,,,,,0,166,166,229,,,,,,,,,,,,,AMP,right,0.717067490098998,0,,,,,,,,,,,,,,right,0,0.717067490098998,,,,,,,,,,,1020,2019_Mar_06_1240,mf_amp_cond2,3.0.4,60.064880900199206,
injured,&&&&&&&,right,care.vice,dramens,,,,,,,,,,,,,,,0,167,167,117,,,,,,,,,,,,,AMP,left,0.5170189333148301,0,,,,,,,,,,,,,,left,0,0.5170189333148301,,,,,,,,,,,1020,2019_Mar_06_1240,mf_amp_cond2,3.0.4,60.064880900199206,
mightingale,&&&&&&&&,None,nonword,divility,,,,,,,,,,,,,,,0,168,168,185,,,,,,,,,,,,,AMP,right,2.6008865303592756,0,,,,,,,,,,,,,,right,0,2.6008865303592756,,,,,,,,,,,1020,2019_Mar_06_1240,mf_amp_cond2,3.0.4,60.064880900199206,
unpleasant,&&&&&&&&,None,control,perified,,,,,,,,,,,,,,,0,169,169,260,,,,,,,,,,,,,AMP,right,0.7504286405164748,0,,,,,,,,,,,,,,right,0,0.7504286405164748,,,,,,,,,,,1020,2019_Mar_06_1240,mf_amp_cond2,3.0.4,60.064880900199206,
freedom,&&&&&&&&&,left,sanctity.virtue,metibolic,,,,,,,,,,,,,,,0,170,170,245,,,,,,,,,,,,,AMP,right,1.1504962479230016,0,,,,,,,,,,,,,,right,0,1.1504962479230016,,,,,,,,,,,1020,2019_Mar_06_1240,mf_amp_cond2,3.0.4,60.064880900199206,
protect,&&&&&&,left,fairness.virtue,sonvoy,,,,,,,,,,,,,,,0,171,171,264,,,,,,,,,,,,,AMP,right,0.2836271864362061,0,,,,,,,,,,,,,,right,0,0.2836271864362061,,,,,,,,,,,1020,2019_Mar_06_1240,mf_amp_cond2,3.0.4,60.064880900199206,
sexual,&&&&&&&&&,right,sanctity.vice,ittutable,,,,,,,,,,,,,,,0,172,172,162,,,,,,,,,,,,,AMP,left,0.23364094516728073,0,,,,,,,,,,,,,,left,0,0.23364094516728073,,,,,,,,,,,1020,2019_Mar_06_1240,mf_amp_cond2,3.0.4,60.064880900199206,
hate,&&&&,right,fairness.vice,coom,,,,,,,,,,,,,,,0,173,173,281,,,,,,,,,,,,,AMP,left,0.3003013471607119,0,,,,,,,,,,,,,,left,0,0.3003013471607119,,,,,,,,,,,1020,2019_Mar_06_1240,mf_amp_cond2,3.0.4,60.064880900199206,
celebrated,&&&&&&,left,authority.virtue,Boeinf,,,,,,,,,,,,,,,0,174,174,169,,,,,,,,,,,,,AMP,right,0.8004549714969471,0,,,,,,,,,,,,,,right,0,0.8004549714969471,,,,,,,,,,,1020,2019_Mar_06_1240,mf_amp_cond2,3.0.4,60.064880900199206,
civilians,&&&&&&&&&&,right,care.vice,honstables,,,,,,,,,,,,,,,0,175,175,136,,,,,,,,,,,,,AMP,left,0.41698840085882694,0,,,,,,,,,,,,,,left,0,0.41698840085882694,,,,,,,,,,,1020,2019_Mar_06_1240,mf_amp_cond2,3.0.4,60.064880900199206,
illegal,&&&&&&&,right,fairness.vice,halaise,,,,,,,,,,,,,,,0,176,176,130,,,,,,,,,,,,,AMP,left,1.600610391702503,0,,,,,,,,,,,,,,left,0,1.600610391702503,,,,,,,,,,,1020,2019_Mar_06_1240,mf_amp_cond2,3.0.4,60.064880900199206,
threatened,&&&&&&&&&,right,fairness.vice,grovelire,,,,,,,,,,,,,,,0,177,177,174,,,,,,,,,,,,,AMP,left,0.5170266305794939,0,,,,,,,,,,,,,,left,0,0.5170266305794939,,,,,,,,,,,1020,2019_Mar_06_1240,mf_amp_cond2,3.0.4,60.064880900199206,
racist,&&&&&&&,right,sanctity.vice,dramens,,,,,,,,,,,,,,,0,178,178,294,,,,,,,,,,,,,AMP,left,0.583704672055319,0,,,,,,,,,,,,,,left,0,0.583704672055319,,,,,,,,,,,1020,2019_Mar_06_1240,mf_amp_cond2,3.0.4,60.064880900199206,
drug,&&&&&&&&&&&,right,sanctity.vice,ilportation,,,,,,,,,,,,,,,0,179,179,248,,,,,,,,,,,,,AMP,left,0.9171157261589542,0,,,,,,,,,,,,,,left,0,0.9171157261589542,,,,,,,,,,,1020,2019_Mar_06_1240,mf_amp_cond2,3.0.4,60.064880900199206,
prosecution,&&&&&&&&&,right,authority.vice,reprisols,,,,,,,,,,,,,,,0,180,180,220,,,,,,,,,,,,,AMP,left,0.5503794421674684,0,,,,,,,,,,,,,,left,0,0.5503794421674684,,,,,,,,,,,1020,2019_Mar_06_1240,mf_amp_cond2,3.0.4,60.064880900199206,
health,&&&&&,left,care.virtue,pulge,,,,,,,,,,,,,,,0,181,181,307,,,,,,,,,,,,,AMP,left,0.8504505134187639,1,,,,,,,,,,,,,,left,1,0.8504505134187639,,,,,,,,,,,1020,2019_Mar_06_1240,mf_amp_cond2,3.0.4,60.064880900199206,
powerful,&&&&&&&&&,left,authority.virtue,refuejing,,,,,,,,,,,,,,,0,182,182,192,,,,,,,,,,,,,AMP,right,1.1338564039906487,0,,,,,,,,,,,,,,right,0,1.1338564039906487,,,,,,,,,,,1020,2019_Mar_06_1240,mf_amp_cond2,3.0.4,60.064880900199206,
powerful,&&&&&&&&,left,authority.virtue,gowlands,,,,,,,,,,,,,,,0,183,183,68,,,,,,,,,,,,,AMP,right,0.5003579219337553,0,,,,,,,,,,,,,,right,0,0.5003579219337553,,,,,,,,,,,1020,2019_Mar_06_1240,mf_amp_cond2,3.0.4,60.064880900199206,
improve,&&&&&&&&,left,care.virtue,ebbitter,,,,,,,,,,,,,,,0,184,184,18,,,,,,,,,,,,,AMP,left,2.084055217448622,1,,,,,,,,,,,,,,left,1,2.084055217448622,,,,,,,,,,,1020,2019_Mar_06_1240,mf_amp_cond2,3.0.4,60.064880900199206,
cromiscuity,&&&&&&&,None,nonword,gedious,,,,,,,,,,,,,,,0,185,185,154,,,,,,,,,,,,,AMP,left,0.7170706973411143,0,,,,,,,,,,,,,,left,0,0.7170706973411143,,,,,,,,,,,1020,2019_Mar_06_1240,mf_amp_cond2,3.0.4,60.064880900199206,
cromiscuity,&&&&&&&&&&,None,nonword,fonderland,,,,,,,,,,,,,,,0,186,186,231,,,,,,,,,,,,,AMP,left,1.6506453820038587,0,,,,,,,,,,,,,,left,0,1.6506453820038587,,,,,,,,,,,1020,2019_Mar_06_1240,mf_amp_cond2,3.0.4,60.064880900199206,
loyalty,&&&&&&&&&&&&,left,loyalty.virtue,bruthfulness,,,,,,,,,,,,,,,0,187,187,57,,,,,,,,,,,,,AMP,left,5.251533836708404,1,,,,,,,,,,,,,,left,1,5.251533836708404,,,,,,,,,,,1020,2019_Mar_06_1240,mf_amp_cond2,3.0.4,60.064880900199206,
terrorists,&&&&&&&&,right,fairness.vice,bluently,,,,,,,,,,,,,,,0,188,188,11,,,,,,,,,,,,,AMP,left,0.5503711035707965,0,,,,,,,,,,,,,,left,0,0.5503711035707965,,,,,,,,,,,1020,2019_Mar_06_1240,mf_amp_cond2,3.0.4,60.064880900199206,
betrayal,&&&&&,right,loyalty.vice,mecan,,,,,,,,,,,,,,,0,189,189,105,,,,,,,,,,,,,AMP,left,0.450338326045312,0,,,,,,,,,,,,,,left,0,0.450338326045312,,,,,,,,,,,1020,2019_Mar_06_1240,mf_amp_cond2,3.0.4,60.064880900199206,
terrorist,&&&&&&&&,right,loyalty.vice,perified,,,,,,,,,,,,,,,0,190,190,166,,,,,,,,,,,,,AMP,left,0.4169900044798851,0,,,,,,,,,,,,,,left,0,0.4169900044798851,,,,,,,,,,,1020,2019_Mar_06_1240,mf_amp_cond2,3.0.4,60.064880900199206,
suggists,&&&&&&&&&,None,nonword,brotesque,,,,,,,,,,,,,,,0,191,191,270,,,,,,,,,,,,,AMP,left,0.5503297308459878,0,,,,,,,,,,,,,,left,0,0.5503297308459878,,,,,,,,,,,1020,2019_Mar_06_1240,mf_amp_cond2,3.0.4,60.064880900199206,
intelligence,&&&&&&&&&&&,left,loyalty.virtue,ilportation,,,,,,,,,,,,,,,0,192,192,51,,,,,,,,,,,,,AMP,left,0.4168681313749403,1,,,,,,,,,,,,,,left,1,0.4168681313749403,,,,,,,,,,,1020,2019_Mar_06_1240,mf_amp_cond2,3.0.4,60.064880900199206,
victim,&&&&&&&&&&&&,right,care.vice,feleological,,,,,,,,,,,,,,,0,193,193,310,,,,,,,,,,,,,AMP,left,0.3836756789823994,0,,,,,,,,,,,,,,left,0,0.3836756789823994,,,,,,,,,,,1020,2019_Mar_06_1240,mf_amp_cond2,3.0.4,60.064880900199206,
prison,&&&&&&&&,right,fairness.vice,thadowed,,,,,,,,,,,,,,,0,194,194,145,,,,,,,,,,,,,AMP,left,0.3503478834172711,0,,,,,,,,,,,,,,left,0,0.3503478834172711,,,,,,,,,,,1020,2019_Mar_06_1240,mf_amp_cond2,3.0.4,60.064880900199206,
freedom,&&&&&&&&,left,sanctity.virtue,perified,,,,,,,,,,,,,,,0,195,195,69,,,,,,,,,,,,,AMP,right,0.3669845201075077,0,,,,,,,,,,,,,,right,0,0.3669845201075077,,,,,,,,,,,1020,2019_Mar_06_1240,mf_amp_cond2,3.0.4,60.064880900199206,
squets,&&&&&,None,nonword,uller,,,,,,,,,,,,,,,0,196,196,23,,,,,,,,,,,,,AMP,left,0.41701341699808836,0,,,,,,,,,,,,,,left,0,0.41701341699808836,,,,,,,,,,,1020,2019_Mar_06_1240,mf_amp_cond2,3.0.4,60.064880900199206,
failure,&&&&&&&&,right,loyalty.vice,divility,,,,,,,,,,,,,,,0,197,197,0,,,,,,,,,,,,,AMP,left,0.9504531433340162,0,,,,,,,,,,,,,,left,0,0.9504531433340162,,,,,,,,,,,1020,2019_Mar_06_1240,mf_amp_cond2,3.0.4,60.064880900199206,
shot,&&&&&&&,right,care.vice,emports,,,,,,,,,,,,,,,0,198,198,131,,,,,,,,,,,,,AMP,right,1.3505650099832565,1,,,,,,,,,,,,,,right,1,1.3505650099832565,,,,,,,,,,,1020,2019_Mar_06_1240,mf_amp_cond2,3.0.4,60.064880900199206,
good,&&&&&,left,care.virtue,framo,,,,,,,,,,,,,,,0,199,199,314,,,,,,,,,,,,,AMP,right,0.18364540324546397,0,,,,,,,,,,,,,,right,0,0.18364540324546397,,,,,,,,,,,1020,2019_Mar_06_1240,mf_amp_cond2,3.0.4,60.064880900199206,
emassion,&&&&&&&&&&&,None,nonword,ronviolence,,,,,,,,,,,,,,,0,200,200,315,,,,,,,,,,,,,AMP,left,0.35033473395742476,0,,,,,,,,,,,,,,left,0,0.35033473395742476,,,,,,,,,,,1020,2019_Mar_06_1240,mf_amp_cond2,3.0.4,60.064880900199206,
actively,&&&&&&&&,left,authority.virtue,epigrach,,,,,,,,,,,,,,,0,201,201,94,,,,,,,,,,,,,AMP,right,0.8504431368783116,0,,,,,,,,,,,,,,right,0,0.8504431368783116,,,,,,,,,,,1020,2019_Mar_06_1240,mf_amp_cond2,3.0.4,60.064880900199206,
death,&&&&&&&&&&&&,right,care.vice,rorroborated,,,,,,,,,,,,,,,0,202,202,237,,,,,,,,,,,,,AMP,left,0.4670057517942041,0,,,,,,,,,,,,,,left,0,0.4670057517942041,,,,,,,,,,,1020,2019_Mar_06_1240,mf_amp_cond2,3.0.4,60.064880900199206,
strength,&&&&&&&&&&&&&,left,sanctity.virtue,photocalkodes,,,,,,,,,,,,,,,0,203,203,318,,,,,,,,,,,,,AMP,right,0.6337047041160986,0,,,,,,,,,,,,,,right,0,0.6337047041160986,,,,,,,,,,,1020,2019_Mar_06_1240,mf_amp_cond2,3.0.4,60.064880900199206,
pleasant,&&&&&&&&&&&,None,control,ronviolence,,,,,,,,,,,,,,,0,204,204,63,,,,,,,,,,,,,AMP,left,0.7672455210704356,0,,,,,,,,,,,,,,left,0,0.7672455210704356,,,,,,,,,,,1020,2019_Mar_06_1240,mf_amp_cond2,3.0.4,60.064880900199206,
hand,&&&&&&&&&,left,sanctity.virtue,discovars,,,,,,,,,,,,,,,0,205,205,301,,,,,,,,,,,,,AMP,right,0.3669841994997114,0,,,,,,,,,,,,,,right,0,0.3669841994997114,,,,,,,,,,,1020,2019_Mar_06_1240,mf_amp_cond2,3.0.4,60.064880900199206,
promised,&&&&&&&&&&,left,loyalty.virtue,fonderland,,,,,,,,,,,,,,,0,206,206,287,,,,,,,,,,,,,AMP,right,1.0004858886823058,0,,,,,,,,,,,,,,right,0,1.0004858886823058,,,,,,,,,,,1020,2019_Mar_06_1240,mf_amp_cond2,3.0.4,60.064880900199206,
suggists,&&&&&&&,None,nonword,sickyay,,,,,,,,,,,,,,,0,207,207,124,,,,,,,,,,,,,AMP,left,0.48368344048503786,0,,,,,,,,,,,,,,left,0,0.48368344048503786,,,,,,,,,,,1020,2019_Mar_06_1240,mf_amp_cond2,3.0.4,60.064880900199206,
sharing,&&&&&&&&&&&,left,loyalty.virtue,precificity,,,,,,,,,,,,,,,0,208,208,100,,,,,,,,,,,,,AMP,right,1.5172703767893836,0,,,,,,,,,,,,,,right,0,1.5172703767893836,,,,,,,,,,,1020,2019_Mar_06_1240,mf_amp_cond2,3.0.4,60.064880900199206,
love,&&&&&&&&&&&&,left,loyalty.virtue,iptervention,,,,,,,,,,,,,,,0,209,209,199,,,,,,,,,,,,,AMP,right,0.2503006737679243,0,,,,,,,,,,,,,,right,0,0.2503006737679243,,,,,,,,,,,1020,2019_Mar_06_1240,mf_amp_cond2,3.0.4,60.064880900199206,
prison,&&&&&&,right,fairness.vice,chared,,,,,,,,,,,,,,,0,210,210,35,,,,,,,,,,,,,AMP,left,0.35033056465908885,0,,,,,,,,,,,,,,left,0,0.35033056465908885,,,,,,,,,,,1020,2019_Mar_06_1240,mf_amp_cond2,3.0.4,60.064880900199206,
black,&&&&&&&&&&,right,loyalty.vice,simplustic,,,,,,,,,,,,,,,0,211,211,103,,,,,,,,,,,,,AMP,right,1.0171472207875922,1,,,,,,,,,,,,,,right,1,1.0171472207875922,,,,,,,,,,,1020,2019_Mar_06_1240,mf_amp_cond2,3.0.4,60.064880900199206,
army,&&&&&&&,right,loyalty.vice,sickyay,,,,,,,,,,,,,,,0,212,212,170,,,,,,,,,,,,,AMP,left,0.4503174793208018,0,,,,,,,,,,,,,,left,0,0.4503174793208018,,,,,,,,,,,1020,2019_Mar_06_1240,mf_amp_cond2,3.0.4,60.064880900199206,
intelligence,&&&&&&&&&&&,left,loyalty.virtue,ilportation,,,,,,,,,,,,,,,0,213,213,172,,,,,,,,,,,,,AMP,left,0.4836827990366146,1,,,,,,,,,,,,,,left,1,0.4836827990366146,,,,,,,,,,,1020,2019_Mar_06_1240,mf_amp_cond2,3.0.4,60.064880900199206,
fegard,&&&&&&&&&&,None,nonword,gationwide,,,,,,,,,,,,,,,0,214,214,221,,,,,,,,,,,,,AMP,right,1.2171993054216728,0,,,,,,,,,,,,,,right,0,1.2171993054216728,,,,,,,,,,,1020,2019_Mar_06_1240,mf_amp_cond2,3.0.4,60.064880900199206,
peaceful,&&&&&&&,left,authority.virtue,hatigue,,,,,,,,,,,,,,,0,215,215,188,,,,,,,,,,,,,AMP,right,0.6170504279434681,0,,,,,,,,,,,,,,right,0,0.6170504279434681,,,,,,,,,,,1020,2019_Mar_06_1240,mf_amp_cond2,3.0.4,60.064880900199206,
actively,&&&&&&&&&,left,authority.virtue,seachwear,,,,,,,,,,,,,,,0,216,216,222,,,,,,,,,,,,,AMP,left,0.7504292818484828,1,,,,,,,,,,,,,,left,1,0.7504292818484828,,,,,,,,,,,1020,2019_Mar_06_1240,mf_amp_cond2,3.0.4,60.064880900199206,
loyalty,&&&&&,left,loyalty.virtue,viscs,,,,,,,,,,,,,,,0,217,217,250,,,,,,,,,,,,,AMP,left,0.4503601349424571,1,,,,,,,,,,,,,,left,1,0.4503601349424571,,,,,,,,,,,1020,2019_Mar_06_1240,mf_amp_cond2,3.0.4,60.064880900199206,
rebels,&&&&&&&,right,authority.vice,halaise,,,,,,,,,,,,,,,0,218,218,10,,,,,,,,,,,,,AMP,left,2.467616720823571,0,,,,,,,,,,,,,,left,0,2.467616720823571,,,,,,,,,,,1020,2019_Mar_06_1240,mf_amp_cond2,3.0.4,60.064880900199206,
strong,&&&&&&&,left,loyalty.virtue,nackers,,,,,,,,,,,,,,,0,219,219,66,,,,,,,,,,,,,AMP,right,2.9509553887182847,0,,,,,,,,,,,,,,right,0,2.9509553887182847,,,,,,,,,,,1020,2019_Mar_06_1240,mf_amp_cond2,3.0.4,60.064880900199206,
accused,&&&&&&&&&,right,fairness.vice,chressing,,,,,,,,,,,,,,,0,220,220,87,,,,,,,,,,,,,AMP,left,0.3836583602242172,0,,,,,,,,,,,,,,left,0,0.3836583602242172,,,,,,,,,,,1020,2019_Mar_06_1240,mf_amp_cond2,3.0.4,60.064880900199206,
illegal,&&&&,right,fairness.vice,spag,,,,,,,,,,,,,,,0,221,221,182,,,,,,,,,,,,,AMP,right,1.0504888072609901,1,,,,,,,,,,,,,,right,1,1.0504888072609901,,,,,,,,,,,1020,2019_Mar_06_1240,mf_amp_cond2,3.0.4,60.064880900199206,
fighters,&&&&&&&&,right,authority.vice,thadowed,,,,,,,,,,,,,,,0,222,222,206,,,,,,,,,,,,,AMP,left,2.7675341677386314,0,,,,,,,,,,,,,,left,0,2.7675341677386314,,,,,,,,,,,1020,2019_Mar_06_1240,mf_amp_cond2,3.0.4,60.064880900199206,
officers,&&&&&&,right,authority.vice,chared,,,,,,,,,,,,,,,0,223,223,234,,,,,,,,,,,,,AMP,left,2.717560755321756,0,,,,,,,,,,,,,,left,0,2.717560755321756,,,,,,,,,,,1020,2019_Mar_06_1240,mf_amp_cond2,3.0.4,60.064880900199206,
edancipation,&&&&&&&&&&,None,nonword,ecgagement,,,,,,,,,,,,,,,0,224,224,284,,,,,,,,,,,,,AMP,right,0.6337255508406088,0,,,,,,,,,,,,,,right,0,0.6337255508406088,,,,,,,,,,,1020,2019_Mar_06_1240,mf_amp_cond2,3.0.4,60.064880900199206,
promises,&&&&&&&&,left,fairness.virtue,thabbily,,,,,,,,,,,,,,,0,225,225,305,,,,,,,,,,,,,AMP,left,0.6668971565086395,1,,,,,,,,,,,,,,left,1,0.6668971565086395,,,,,,,,,,,1020,2019_Mar_06_1240,mf_amp_cond2,3.0.4,60.064880900199206,
army,&&&&&&&&&&&,right,loyalty.vice,lempestuous,,,,,,,,,,,,,,,0,226,226,280,,,,,,,,,,,,,AMP,left,0.23362009855918586,0,,,,,,,,,,,,,,left,0,0.23362009855918586,,,,,,,,,,,1020,2019_Mar_06_1240,mf_amp_cond2,3.0.4,60.064880900199206,
restore,&&&&&&&&&&&&,left,care.virtue,iptervention,,,,,,,,,,,,,,,0,227,227,279,,,,,,,,,,,,,AMP,right,0.6337274751858786,0,,,,,,,,,,,,,,right,0,0.6337274751858786,,,,,,,,,,,1020,2019_Mar_06_1240,mf_amp_cond2,3.0.4,60.064880900199206,
honored,&&&&&&&&,left,authority.virtue,thabbily,,,,,,,,,,,,,,,0,228,228,193,,,,,,,,,,,,,AMP,left,0.41700443683657795,1,,,,,,,,,,,,,,left,1,0.41700443683657795,,,,,,,,,,,1020,2019_Mar_06_1240,mf_amp_cond2,3.0.4,60.064880900199206,
terrorist,&&&&,right,loyalty.vice,wump,,,,,,,,,,,,,,,0,229,229,26,,,,,,,,,,,,,AMP,left,0.4003366904798895,0,,,,,,,,,,,,,,left,0,0.4003366904798895,,,,,,,,,,,1020,2019_Mar_06_1240,mf_amp_cond2,3.0.4,60.064880900199206,
intelligence,&&&&&&&&&&&&&,left,loyalty.virtue,esquisiteness,,,,,,,,,,,,,,,0,230,230,101,,,,,,,,,,,,,AMP,left,0.46702307066880167,1,,,,,,,,,,,,,,left,1,0.46702307066880167,,,,,,,,,,,1020,2019_Mar_06_1240,mf_amp_cond2,3.0.4,60.064880900199206,
care,&&&&,left,care.virtue,yane,,,,,,,,,,,,,,,0,231,231,157,,,,,,,,,,,,,AMP,left,0.5170545331202447,1,,,,,,,,,,,,,,left,1,0.5170545331202447,,,,,,,,,,,1020,2019_Mar_06_1240,mf_amp_cond2,3.0.4,60.064880900199206,
laming,&&&&&,None,nonword,hasks,,,,,,,,,,,,,,,0,232,232,203,,,,,,,,,,,,,AMP,left,0.5670135131804273,0,,,,,,,,,,,,,,left,0,0.5670135131804273,,,,,,,,,,,1020,2019_Mar_06_1240,mf_amp_cond2,3.0.4,60.064880900199206,
powerful,&&&&&&&&&&,left,authority.virtue,frocessing,,,,,,,,,,,,,,,0,233,233,150,,,,,,,,,,,,,AMP,right,0.6503868829458952,0,,,,,,,,,,,,,,right,0,0.6503868829458952,,,,,,,,,,,1020,2019_Mar_06_1240,mf_amp_cond2,3.0.4,60.064880900199206,
shot,&&&&&&&&&&,right,care.vice,simplustic,,,,,,,,,,,,,,,0,234,234,27,,,,,,,,,,,,,AMP,right,0.46701344894245267,1,,,,,,,,,,,,,,right,1,0.46701344894245267,,,,,,,,,,,1020,2019_Mar_06_1240,mf_amp_cond2,3.0.4,60.064880900199206,
accused,&&&&&&&,right,fairness.vice,troubla,,,,,,,,,,,,,,,0,235,235,239,,,,,,,,,,,,,AMP,right,1.133866346324794,1,,,,,,,,,,,,,,right,1,1.133866346324794,,,,,,,,,,,1020,2019_Mar_06_1240,mf_amp_cond2,3.0.4,60.064880900199206,
troops,&&&&&&,right,loyalty.vice,Boeinf,,,,,,,,,,,,,,,0,236,236,325,,,,,,,,,,,,,AMP,left,0.3003013472771272,0,,,,,,,,,,,,,,left,0,0.3003013472771272,,,,,,,,,,,1020,2019_Mar_06_1240,mf_amp_cond2,3.0.4,60.064880900199206,
serial,&&&&&&&&,right,sanctity.vice,slending,,,,,,,,,,,,,,,0,237,237,79,,,,,,,,,,,,,AMP,left,0.5003588841063902,0,,,,,,,,,,,,,,left,0,0.5003588841063902,,,,,,,,,,,1020,2019_Mar_06_1240,mf_amp_cond2,3.0.4,60.064880900199206,
failure,&&&&&&&&&&&&&,right,loyalty.vice,idexpressible,,,,,,,,,,,,,,,0,238,238,133,,,,,,,,,,,,,AMP,left,0.4836840818170458,0,,,,,,,,,,,,,,left,0,0.4836840818170458,,,,,,,,,,,1020,2019_Mar_06_1240,mf_amp_cond2,3.0.4,60.064880900199206,
forced,&&&&&&&&&,right,fairness.vice,brotesque,,,,,,,,,,,,,,,0,239,239,183,,,,,,,,,,,,,AMP,left,1.467253346578218,0,,,,,,,,,,,,,,left,0,1.467253346578218,,,,,,,,,,,1020,2019_Mar_06_1240,mf_amp_cond2,3.0.4,60.064880900199206,
squets,&&&&&&&&&&&&,None,nonword,quarterbocks,,,,,,,,,,,,,,,0,240,240,175,,,,,,,,,,,,,AMP,right,0.6003935858607292,0,,,,,,,,,,,,,,right,0,0.6003935858607292,,,,,,,,,,,1020,2019_Mar_06_1240,mf_amp_cond2,3.0.4,60.064880900199206,
fighters,&&&&&&,right,authority.vice,antral,,,,,,,,,,,,,,,0,241,241,125,,,,,,,,,,,,,AMP,left,0.38367984839715064,0,,,,,,,,,,,,,,left,0,0.38367984839715064,,,,,,,,,,,1020,2019_Mar_06_1240,mf_amp_cond2,3.0.4,60.064880900199206,
