words,mask,corr_ans,category,nonwords,tweets,topic,LDT_prac_loop.thisRepN,LDT_prac_loop.thisTrialN,LDT_prac_loop.thisN,LDT_prac_loop.thisIndex,LDT_loop.thisRepN,LDT_loop.thisTrialN,LDT_loop.thisN,LDT_loop.thisIndex,AMP_pracloop.thisRepN,AMP_pracloop.thisTrialN,AMP_pracloop.thisN,AMP_pracloop.thisIndex,AMP_loop.thisRepN,AMP_loop.thisTrialN,AMP_loop.thisN,AMP_loop.thisIndex,tweet_loop.thisRepN,tweet_loop.thisTrialN,tweet_loop.thisN,tweet_loop.thisIndex,begin_key.keys,begin_key.rt,key_resp_AMP_instr1.keys,key_resp_AMP_instr1.rt,key_resp_LDT_instr.keys,key_resp_LDT_instr.rt,resp_LDT_prac.keys,resp_LDT_prac.rt,task,keypress,RT,corr,resp_LDT_ready.keys,resp_LDT_ready.rt,resp_LDT.keys,resp_LDT.corr,resp_LDT.rt,LDT_rating.response,LDT_rating.rt,resp_AMP_ready1.keys,resp_AMP_ready1.rt,resp_AMP_prac.keys,resp_AMP_prac.rt,resp_AMP_ready.keys,resp_AMP_ready.rt,resp_AMP.keys,resp_AMP.corr,resp_AMP.rt,AMP_nonword_rating.response,AMP_nonword_rating.rt,AMP_word_rating.response,AMP_word_rating.rt,AMP_random_rating.response,AMP_random_rating.rt,key_resp_LDT_instr_2.keys,key_resp_LDT_instr_2.rt,resp_tweets.keys,resp_tweets.rt,participant,date,expName,psychopyVersion,frameRate,
,,,,,,,,,,,,,,,,,,,,,,,,,,,right,253.61144369840622,,,,,,,,,,,,,,,,,,,,,,,,,,,,,,,,,,,,,1024,2019_Mar_06_1502,mf_amp_cond2,3.0.4,60.00531163518782,
,,,,,,,,,,,,,,,,,,,,,,,,,,,,,right,2.21747940487694,,,,,,,,,,,,,,,,,,,,,,,,,,,,,,,,,,,1024,2019_Mar_06_1502,mf_amp_cond2,3.0.4,60.00531163518782,
,,,,,,,,,,,,,,,,,,,,,,,,,,,,,,,right,2.034109605709091,,,,,,,,,,,,,,,,,,,,,,,,,,,,,,,,,1024,2019_Mar_06_1502,mf_amp_cond2,3.0.4,60.00531163518782,
bisebell,&&&&&&&,,,,,,0,0,0,1,,,,,,,,,,,,,,,,,,,,,,,left,2.850953727029264,LDT_prac,left,2.850953727029264,0,,,,,,,,,,,,,,,,,,,,,,,,,,,1024,2019_Mar_06_1502,mf_amp_cond2,3.0.4,60.00531163518782,
keyboard,&&&&&&&,,,,,,0,1,1,0,,,,,,,,,,,,,,,,,,,,,,,left,2.2341581627260894,LDT_prac,left,2.2341581627260894,0,,,,,,,,,,,,,,,,,,,,,,,,,,,1024,2019_Mar_06_1502,mf_amp_cond2,3.0.4,60.00531163518782,
,,,,,,,,,,,,,,,,,,,,,,,,,,,,,,,,,,,,,,,right,1.8340206376742572,,,,,,,,,,,,,,,,,,,,,,,,,1024,2019_Mar_06_1502,mf_amp_cond2,3.0.4,60.00531163518782,
tove,&&&&,right,nonword,,,,,,,,0,0,0,103,,,,,,,,,,,,,,,,,,,,,LDT,right,1.500628612586297,1,,,right,1,1.500628612586297,,,,,,,,,,,,,,,,,,,,,,1024,2019_Mar_06_1502,mf_amp_cond2,3.0.4,60.00531163518782,
Loorish,&&&&&&&,right,nonword,,,,,,,,0,1,1,133,,,,,,,,,,,,,,,,,,,,,LDT,right,1.0171665740199387,1,,,right,1,1.0171665740199387,,,,,,,,,,,,,,,,,,,,,,1024,2019_Mar_06_1502,mf_amp_cond2,3.0.4,60.00531163518782,
sickyay,&&&&&&&,right,nonword,,,,,,,,0,2,2,181,,,,,,,,,,,,,,,,,,,,,LDT,left,1.4506147895008326,0,,,left,0,1.4506147895008326,,,,,,,,,,,,,,,,,,,,,,1024,2019_Mar_06_1502,mf_amp_cond2,3.0.4,60.00531163518782,
whither,&&&&&&&,left,neutral,,,,,,,,0,3,3,66,,,,,,,,,,,,,,,,,,,,,LDT,left,1.1838730101007968,1,,,left,1,1.1838730101007968,,,,,,,,,,,,,,,,,,,,,,1024,2019_Mar_06_1502,mf_amp_cond2,3.0.4,60.00531163518782,
rivernoat,&&&&&&&&&,right,nonword,,,,,,,,0,4,4,122,,,,,,,,,,,,,,,,,,,,,LDT,right,0.6170598381431773,1,,,right,1,0.6170598381431773,,,,,,,,,,,,,,,,,,,,,,1024,2019_Mar_06_1502,mf_amp_cond2,3.0.4,60.00531163518782,
sowntrodden,&&&&&&&&&&&,right,nonword,,,,,,,,0,5,5,163,,,,,,,,,,,,,,,,,,,,,LDT,right,3.2510425025830045,1,,,right,1,3.2510425025830045,,,,,,,,,,,,,,,,,,,,,,1024,2019_Mar_06_1502,mf_amp_cond2,3.0.4,60.00531163518782,
faith,&&&&&,left,sanctity.virtue,,,,,,,,0,6,6,120,,,,,,,,,,,,,,,,,,,,,LDT,right,0.7004068020032719,0,,,right,0,0.7004068020032719,,,,,,,,,,,,,,,,,,,,,,1024,2019_Mar_06_1502,mf_amp_cond2,3.0.4,60.00531163518782,
fangsters,&&&&&&&&&,right,nonword,,,,,,,,0,7,7,71,,,,,,,,,,,,,,,,,,,,,LDT,right,2.4175302070798352,1,,,right,1,2.4175302070798352,,,,,,,,,,,,,,,,,,,,,,1024,2019_Mar_06_1502,mf_amp_cond2,3.0.4,60.00531163518782,
sonvoy,&&&&&&,None,nonword,,,,,,,,0,8,8,95,,,,,,,,,,,,,,,,,,,,,LDT,left,1.1505286438623443,0,,,left,0,1.1505286438623443,,,,,,,,,,,,,,,,,,,,,,1024,2019_Mar_06_1502,mf_amp_cond2,3.0.4,60.00531163518782,
latterly,&&&&&&&&,left,neutral,,,,,,,,0,9,9,138,,,,,,,,,,,,,,,,,,,,,LDT,left,1.3006381059531122,1,,,left,1,1.3006381059531122,,,,,,,,,,,,,,,,,,,,,,1024,2019_Mar_06_1502,mf_amp_cond2,3.0.4,60.00531163518782,
tenuflect,&&&&&&&&&,right,nonword,,,,,,,,0,10,10,100,,,,,,,,,,,,,,,,,,,,,LDT,left,1.4339469361584634,0,,,left,0,1.4339469361584634,,,,,,,,,,,,,,,,,,,,,,1024,2019_Mar_06_1502,mf_amp_cond2,3.0.4,60.00531163518782,
been,&&&&,left,neutral,,,,,,,,0,11,11,160,,,,,,,,,,,,,,,,,,,,,LDT,right,0.7670964965363964,0,,,right,0,0.7670964965363964,,,,,,,,,,,,,,,,,,,,,,1024,2019_Mar_06_1502,mf_amp_cond2,3.0.4,60.00531163518782,
torture,&&&&&&&,left,care.vice,,,,,,,,0,12,12,46,,,,,,,,,,,,,,,,,,,,,LDT,right,1.1838277884526178,0,,,right,0,1.1838277884526178,,,,,,,,,,,,,,,,,,,,,,1024,2019_Mar_06_1502,mf_amp_cond2,3.0.4,60.00531163518782,
penalty,&&&&&&&,left,authority.vice,,,,,,,,0,13,13,148,,,,,,,,,,,,,,,,,,,,,LDT,right,0.967151147313416,0,,,right,0,0.967151147313416,,,,,,,,,,,,,,,,,,,,,,1024,2019_Mar_06_1502,mf_amp_cond2,3.0.4,60.00531163518782,
leact,&&&&&,right,nonword,,,,,,,,0,14,14,81,,,,,,,,,,,,,,,,,,,,,LDT,left,1.1005122549831867,0,,,left,0,1.1005122549831867,,,,,,,,,,,,,,,,,,,,,,1024,2019_Mar_06_1502,mf_amp_cond2,3.0.4,60.00531163518782,
towards,&&&&&&&,left,neutral,,,,,,,,0,15,15,195,,,,,,,,,,,,,,,,,,,,,LDT,right,0.9504691823385656,0,,,right,0,0.9504691823385656,,,,,,,,,,,,,,,,,,,,,,1024,2019_Mar_06_1502,mf_amp_cond2,3.0.4,60.00531163518782,
disregord,&&&&&&&&&,right,nonword,,,,,,,,0,16,16,64,,,,,,,,,,,,,,,,,,,,,LDT,right,1.250410682754591,1,,,right,1,1.250410682754591,,,,,,,,,,,,,,,,,,,,,,1024,2019_Mar_06_1502,mf_amp_cond2,3.0.4,60.00531163518782,
gournful,&&&&&&&&,right,nonword,,,,,,,,0,17,17,48,,,,,,,,,,,,,,,,,,,,,LDT,right,1.0670748800039291,1,,,right,1,1.0670748800039291,,,,,,,,,,,,,,,,,,,,,,1024,2019_Mar_06_1502,mf_amp_cond2,3.0.4,60.00531163518782,
terrorists,&&&&&&&&&&,left,fairness.vice,,,,,,,,0,18,18,193,,,,,,,,,,,,,,,,,,,,,LDT,left,1.5006407999899238,1,,,left,1,1.5006407999899238,,,,,,,,,,,,,,,,,,,,,,1024,2019_Mar_06_1502,mf_amp_cond2,3.0.4,60.00531163518782,
latter,&&&&&&,left,neutral,,,,,,,,0,19,19,20,,,,,,,,,,,,,,,,,,,,,LDT,right,1.3672511480981484,0,,,right,0,1.3672511480981484,,,,,,,,,,,,,,,,,,,,,,1024,2019_Mar_06_1502,mf_amp_cond2,3.0.4,60.00531163518782,
perfect,&&&&&&&,left,sanctity.virtue,,,,,,,,0,20,20,61,,,,,,,,,,,,,,,,,,,,,LDT,right,1.5671470421366394,0,,,right,0,1.5671470421366394,,,,,,,,,,,,,,,,,,,,,,1024,2019_Mar_06_1502,mf_amp_cond2,3.0.4,60.00531163518782,
synchronazers,&&&&&&&&&&&&&,right,nonword,,,,,,,,0,21,21,159,,,,,,,,,,,,,,,,,,,,,LDT,right,3.1176762632094324,1,,,right,1,3.1176762632094324,,,,,,,,,,,,,,,,,,,,,,1024,2019_Mar_06_1502,mf_amp_cond2,3.0.4,60.00531163518782,
forced,&&&&&&,left,fairness.vice,,,,,,,,0,22,22,188,,,,,,,,,,,,,,,,,,,,,LDT,right,0.7504302468150854,0,,,right,0,0.7504302468150854,,,,,,,,,,,,,,,,,,,,,,1024,2019_Mar_06_1502,mf_amp_cond2,3.0.4,60.00531163518782,
integrity,&&&&&&&&&,left,fairness.virtue,,,,,,,,0,23,23,16,,,,,,,,,,,,,,,,,,,,,LDT,right,0.7004096886375919,0,,,right,0,0.7004096886375919,,,,,,,,,,,,,,,,,,,,,,1024,2019_Mar_06_1502,mf_amp_cond2,3.0.4,60.00531163518782,
chared,&&&&&&,right,nonword,,,,,,,,0,24,24,165,,,,,,,,,,,,,,,,,,,,,LDT,right,0.7171051237965003,1,,,right,1,0.7171051237965003,,,,,,,,,,,,,,,,,,,,,,1024,2019_Mar_06_1502,mf_amp_cond2,3.0.4,60.00531163518782,
restore,&&&&&&&,left,care.virtue,,,,,,,,0,25,25,151,,,,,,,,,,,,,,,,,,,,,LDT,right,1.0505160716129467,0,,,right,0,1.0505160716129467,,,,,,,,,,,,,,,,,,,,,,1024,2019_Mar_06_1502,mf_amp_cond2,3.0.4,60.00531163518782,
aubos,&&&&&,right,nonword,,,,,,,,0,26,26,45,,,,,,,,,,,,,,,,,,,,,LDT,left,1.1171926165698096,0,,,left,0,1.1171926165698096,,,,,,,,,,,,,,,,,,,,,,1024,2019_Mar_06_1502,mf_amp_cond2,3.0.4,60.00531163518782,
nuckheap,&&&&&&&&,right,nonword,,,,,,,,0,27,27,153,,,,,,,,,,,,,,,,,,,,,LDT,left,1.2005408633267507,0,,,left,0,1.2005408633267507,,,,,,,,,,,,,,,,,,,,,,1024,2019_Mar_06_1502,mf_amp_cond2,3.0.4,60.00531163518782,
divility,&&&&&&&&,right,nonword,,,,,,,,0,28,28,178,,,,,,,,,,,,,,,,,,,,,LDT,right,0.750430567539297,1,,,right,1,0.750430567539297,,,,,,,,,,,,,,,,,,,,,,1024,2019_Mar_06_1502,mf_amp_cond2,3.0.4,60.00531163518782,
hefurbished,&&&&&&&&&&&,right,nonword,,,,,,,,0,29,29,198,,,,,,,,,,,,,,,,,,,,,LDT,left,1.6838502387981862,0,,,left,0,1.6838502387981862,,,,,,,,,,,,,,,,,,,,,,1024,2019_Mar_06_1502,mf_amp_cond2,3.0.4,60.00531163518782,
whereafter,&&&&&&&&&&,left,neutral,,,,,,,,0,30,30,12,,,,,,,,,,,,,,,,,,,,,LDT,right,1.5005933332722634,0,,,right,0,1.5005933332722634,,,,,,,,,,,,,,,,,,,,,,1024,2019_Mar_06_1502,mf_amp_cond2,3.0.4,60.00531163518782,
death,&&&&&,left,care.vice,,,,,,,,0,31,31,37,,,,,,,,,,,,,,,,,,,,,LDT,right,1.4506096579134464,0,,,right,0,1.4506096579134464,,,,,,,,,,,,,,,,,,,,,,1024,2019_Mar_06_1502,mf_amp_cond2,3.0.4,60.00531163518782,
powerful,&&&&&&&&,left,authority.virtue,,,,,,,,0,32,32,192,,,,,,,,,,,,,,,,,,,,,LDT,right,0.9671392806340009,0,,,right,0,0.9671392806340009,,,,,,,,,,,,,,,,,,,,,,1024,2019_Mar_06_1502,mf_amp_cond2,3.0.4,60.00531163518782,
gationwide,&&&&&&&&&&,right,nonword,,,,,,,,0,33,33,31,,,,,,,,,,,,,,,,,,,,,LDT,left,0.7337534133112058,0,,,left,0,0.7337534133112058,,,,,,,,,,,,,,,,,,,,,,1024,2019_Mar_06_1502,mf_amp_cond2,3.0.4,60.00531163518782,
dramens,&&&&&&&,right,nonword,,,,,,,,0,34,34,72,,,,,,,,,,,,,,,,,,,,,LDT,right,0.8504524406744167,1,,,right,1,0.8504524406744167,,,,,,,,,,,,,,,,,,,,,,1024,2019_Mar_06_1502,mf_amp_cond2,3.0.4,60.00531163518782,
amount,&&&&&&,left,neutral,,,,,,,,0,35,35,171,,,,,,,,,,,,,,,,,,,,,LDT,right,1.8840418374165893,0,,,right,0,1.8840418374165893,,,,,,,,,,,,,,,,,,,,,,1024,2019_Mar_06_1502,mf_amp_cond2,3.0.4,60.00531163518782,
nomparisons,&&&&&&&&&&&,right,nonword,,,,,,,,0,36,36,101,,,,,,,,,,,,,,,,,,,,,LDT,right,1.6506684781052172,1,,,right,1,1.6506684781052172,,,,,,,,,,,,,,,,,,,,,,1024,2019_Mar_06_1502,mf_amp_cond2,3.0.4,60.00531163518782,
harassment,&&&&&&&&&&,left,sanctity.vice,,,,,,,,0,37,37,10,,,,,,,,,,,,,,,,,,,,,LDT,right,1.1171807498903945,0,,,right,0,1.1171807498903945,,,,,,,,,,,,,,,,,,,,,,1024,2019_Mar_06_1502,mf_amp_cond2,3.0.4,60.00531163518782,
ebbitter,&&&&&&&&,right,nonword,,,,,,,,0,38,38,65,,,,,,,,,,,,,,,,,,,,,LDT,left,0.7504247945034876,0,,,left,0,0.7504247945034876,,,,,,,,,,,,,,,,,,,,,,1024,2019_Mar_06_1502,mf_amp_cond2,3.0.4,60.00531163518782,
agreement,&&&&&&&&&,left,fairness.virtue,,,,,,,,0,39,39,50,,,,,,,,,,,,,,,,,,,,,LDT,left,1.4506199209718034,1,,,left,1,1.4506199209718034,,,,,,,,,,,,,,,,,,,,,,1024,2019_Mar_06_1502,mf_amp_cond2,3.0.4,60.00531163518782,
civilians,&&&&&&&&&,left,care.vice,,,,,,,,0,40,40,135,,,,,,,,,,,,,,,,,,,,,LDT,right,0.6503872061148286,0,,,right,0,0.6503872061148286,,,,,,,,,,,,,,,,,,,,,,1024,2019_Mar_06_1502,mf_amp_cond2,3.0.4,60.00531163518782,
were,&&&&,left,neutral,,,,,,,,0,41,41,145,,,,,,,,,,,,,,,,,,,,,LDT,right,4.101276853121817,0,,,right,0,4.101276853121817,,,,,,,,,,,,,,,,,,,,,,1024,2019_Mar_06_1502,mf_amp_cond2,3.0.4,60.00531163518782,
party,&&&&&,left,loyalty.virtue,,,,,,,,0,42,42,158,,,,,,,,,,,,,,,,,,,,,LDT,right,1.0504993941867724,0,,,right,0,1.0504993941867724,,,,,,,,,,,,,,,,,,,,,,1024,2019_Mar_06_1502,mf_amp_cond2,3.0.4,60.00531163518782,
esquisiteness,&&&&&&&&&&&&&,right,nonword,,,,,,,,0,43,43,147,,,,,,,,,,,,,,,,,,,,,LDT,left,0.7004193102475256,0,,,left,0,0.7004193102475256,,,,,,,,,,,,,,,,,,,,,,1024,2019_Mar_06_1502,mf_amp_cond2,3.0.4,60.00531163518782,
totalestic,&&&&&&&&&&,None,nonword,,,,,,,,0,44,44,99,,,,,,,,,,,,,,,,,,,,,LDT,left,1.7006617749575526,0,,,left,0,1.7006617749575526,,,,,,,,,,,,,,,,,,,,,,1024,2019_Mar_06_1502,mf_amp_cond2,3.0.4,60.00531163518782,
prison,&&&&&&,left,fairness.vice,,,,,,,,0,45,45,154,,,,,,,,,,,,,,,,,,,,,LDT,right,0.5836910972138867,0,,,right,0,0.5836910972138867,,,,,,,,,,,,,,,,,,,,,,1024,2019_Mar_06_1502,mf_amp_cond2,3.0.4,60.00531163518782,
even,&&&&,left,neutral,,,,,,,,0,46,46,32,,,,,,,,,,,,,,,,,,,,,LDT,right,0.933824741630815,0,,,right,0,0.933824741630815,,,,,,,,,,,,,,,,,,,,,,1024,2019_Mar_06_1502,mf_amp_cond2,3.0.4,60.00531163518782,
shoirmaster,&&&&&&&&&&&,right,nonword,,,,,,,,0,47,47,106,,,,,,,,,,,,,,,,,,,,,LDT,right,3.31773540424183,1,,,right,1,3.31773540424183,,,,,,,,,,,,,,,,,,,,,,1024,2019_Mar_06_1502,mf_amp_cond2,3.0.4,60.00531163518782,
hereby,&&&&&&,left,neutral,,,,,,,,0,48,48,8,,,,,,,,,,,,,,,,,,,,,LDT,right,1.0336814435431734,0,,,right,0,1.0336814435431734,,,,,,,,,,,,,,,,,,,,,,1024,2019_Mar_06_1502,mf_amp_cond2,3.0.4,60.00531163518782,
army,&&&&,left,loyalty.vice,,,,,,,,0,49,49,176,,,,,,,,,,,,,,,,,,,,,LDT,right,0.7671202298952267,0,,,right,0,0.7671202298952267,,,,,,,,,,,,,,,,,,,,,,1024,2019_Mar_06_1502,mf_amp_cond2,3.0.4,60.00531163518782,
ammessment,&&&&&&&&&&,right,nonword,,,,,,,,0,50,50,18,,,,,,,,,,,,,,,,,,,,,LDT,right,0.9338577757589519,1,,,right,1,0.9338577757589519,,,,,,,,,,,,,,,,,,,,,,1024,2019_Mar_06_1502,mf_amp_cond2,3.0.4,60.00531163518782,
touls,&&&&&,right,nonword,,,,,,,,0,51,51,168,,,,,,,,,,,,,,,,,,,,,LDT,right,0.7337716943584383,1,,,right,1,0.7337716943584383,,,,,,,,,,,,,,,,,,,,,,1024,2019_Mar_06_1502,mf_amp_cond2,3.0.4,60.00531163518782,
iptervention,&&&&&&&&&&&&,right,nonword,,,,,,,,0,52,52,53,,,,,,,,,,,,,,,,,,,,,LDT,right,0.9171248162165284,1,,,right,1,0.9171248162165284,,,,,,,,,,,,,,,,,,,,,,1024,2019_Mar_06_1502,mf_amp_cond2,3.0.4,60.00531163518782,
ecgagement,&&&&&&&&&&,None,nonword,,,,,,,,0,53,53,96,,,,,,,,,,,,,,,,,,,,,LDT,right,1.50061738723889,0,,,right,0,1.50061738723889,,,,,,,,,,,,,,,,,,,,,,1024,2019_Mar_06_1502,mf_amp_cond2,3.0.4,60.00531163518782,
toward,&&&&&&,left,neutral,,,,,,,,0,54,54,79,,,,,,,,,,,,,,,,,,,,,LDT,left,0.8671376128913835,1,,,left,1,0.8671376128913835,,,,,,,,,,,,,,,,,,,,,,1024,2019_Mar_06_1502,mf_amp_cond2,3.0.4,60.00531163518782,
itself,&&&&&&,left,neutral,,,,,,,,0,55,55,161,,,,,,,,,,,,,,,,,,,,,LDT,right,0.8671222183620557,0,,,right,0,0.8671222183620557,,,,,,,,,,,,,,,,,,,,,,1024,2019_Mar_06_1502,mf_amp_cond2,3.0.4,60.00531163518782,
emports,&&&&&&&,right,nonword,,,,,,,,0,56,56,58,,,,,,,,,,,,,,,,,,,,,LDT,left,0.8837977689690888,0,,,left,0,0.8837977689690888,,,,,,,,,,,,,,,,,,,,,,1024,2019_Mar_06_1502,mf_amp_cond2,3.0.4,60.00531163518782,
quarterbocks,&&&&&&&&&&&&,right,nonword,,,,,,,,0,57,57,68,,,,,,,,,,,,,,,,,,,,,LDT,right,0.9171411729184911,1,,,right,1,0.9171411729184911,,,,,,,,,,,,,,,,,,,,,,1024,2019_Mar_06_1502,mf_amp_cond2,3.0.4,60.00531163518782,
safety,&&&&&&,left,care.virtue,,,,,,,,0,58,58,3,,,,,,,,,,,,,,,,,,,,,LDT,right,0.8504457055823877,0,,,right,0,0.8504457055823877,,,,,,,,,,,,,,,,,,,,,,1024,2019_Mar_06_1502,mf_amp_cond2,3.0.4,60.00531163518782,
killed,&&&&&&,left,care.vice,,,,,,,,0,59,59,5,,,,,,,,,,,,,,,,,,,,,LDT,right,1.4339321829611436,0,,,right,0,1.4339321829611436,,,,,,,,,,,,,,,,,,,,,,1024,2019_Mar_06_1502,mf_amp_cond2,3.0.4,60.00531163518782,
thru,&&&&,left,neutral,,,,,,,,0,60,60,57,,,,,,,,,,,,,,,,,,,,,LDT,right,1.1838681992376223,0,,,right,0,1.1838681992376223,,,,,,,,,,,,,,,,,,,,,,1024,2019_Mar_06_1502,mf_amp_cond2,3.0.4,60.00531163518782,
faspberry,&&&&&&&&&,None,nonword,,,,,,,,0,61,61,41,,,,,,,,,,,,,,,,,,,,,LDT,right,1.3504232550039887,0,,,right,0,1.3504232550039887,,,,,,,,,,,,,,,,,,,,,,1024,2019_Mar_06_1502,mf_amp_cond2,3.0.4,60.00531163518782,
fair,&&&&,left,fairness.virtue,,,,,,,,0,62,62,22,,,,,,,,,,,,,,,,,,,,,LDT,right,1.4506080542923883,0,,,right,0,1.4506080542923883,,,,,,,,,,,,,,,,,,,,,,1024,2019_Mar_06_1502,mf_amp_cond2,3.0.4,60.00531163518782,
friends,&&&&&&&,left,loyalty.virtue,,,,,,,,0,63,63,128,,,,,,,,,,,,,,,,,,,,,LDT,right,0.8504707217216492,0,,,right,0,0.8504707217216492,,,,,,,,,,,,,,,,,,,,,,1024,2019_Mar_06_1502,mf_amp_cond2,3.0.4,60.00531163518782,
letish,&&&&&&,right,nonword,,,,,,,,0,64,64,119,,,,,,,,,,,,,,,,,,,,,LDT,left,0.7670496713835746,0,,,left,0,0.7670496713835746,,,,,,,,,,,,,,,,,,,,,,1024,2019_Mar_06_1502,mf_amp_cond2,3.0.4,60.00531163518782,
done,&&&&,left,neutral,,,,,,,,0,65,65,67,,,,,,,,,,,,,,,,,,,,,LDT,right,0.9004438132978976,0,,,right,0,0.9004438132978976,,,,,,,,,,,,,,,,,,,,,,1024,2019_Mar_06_1502,mf_amp_cond2,3.0.4,60.00531163518782,
arrests,&&&&&&&,left,authority.vice,,,,,,,,0,66,66,52,,,,,,,,,,,,,,,,,,,,,LDT,right,1.5506302481517196,0,,,right,0,1.5506302481517196,,,,,,,,,,,,,,,,,,,,,,1024,2019_Mar_06_1502,mf_amp_cond2,3.0.4,60.00531163518782,
shoirmaster,&&&&&&&&&&&,None,nonword,,,,,,,,0,67,67,157,,,,,,,,,,,,,,,,,,,,,LDT,left,2.300805201404728,0,,,left,0,2.300805201404728,,,,,,,,,,,,,,,,,,,,,,1024,2019_Mar_06_1502,mf_amp_cond2,3.0.4,60.00531163518782,
chreams,&&&&&&&,right,nonword,,,,,,,,0,68,68,42,,,,,,,,,,,,,,,,,,,,,LDT,right,0.6503981105051935,1,,,right,1,0.6503981105051935,,,,,,,,,,,,,,,,,,,,,,1024,2019_Mar_06_1502,mf_amp_cond2,3.0.4,60.00531163518782,
coom,&&&&,right,nonword,,,,,,,,0,69,69,92,,,,,,,,,,,,,,,,,,,,,LDT,left,0.9171212882502005,0,,,left,0,0.9171212882502005,,,,,,,,,,,,,,,,,,,,,,1024,2019_Mar_06_1502,mf_amp_cond2,3.0.4,60.00531163518782,
glacenta,&&&&&&&&,right,nonword,,,,,,,,0,70,70,0,,,,,,,,,,,,,,,,,,,,,LDT,right,1.717343098600395,1,,,right,1,1.717343098600395,,,,,,,,,,,,,,,,,,,,,,1024,2019_Mar_06_1502,mf_amp_cond2,3.0.4,60.00531163518782,
black,&&&&&,left,loyalty.vice,,,,,,,,0,71,71,69,,,,,,,,,,,,,,,,,,,,,LDT,right,1.2505550071364269,0,,,right,0,1.2505550071364269,,,,,,,,,,,,,,,,,,,,,,1024,2019_Mar_06_1502,mf_amp_cond2,3.0.4,60.00531163518782,
galamitous,&&&&&&&&&&,right,nonword,,,,,,,,0,72,72,137,,,,,,,,,,,,,,,,,,,,,LDT,left,2.6508965105749667,0,,,left,0,2.6508965105749667,,,,,,,,,,,,,,,,,,,,,,1024,2019_Mar_06_1502,mf_amp_cond2,3.0.4,60.00531163518782,
idexpressible,&&&&&&&&&&&&&,right,nonword,,,,,,,,0,73,73,102,,,,,,,,,,,,,,,,,,,,,LDT,right,0.6837402315577492,1,,,right,1,0.6837402315577492,,,,,,,,,,,,,,,,,,,,,,1024,2019_Mar_06_1502,mf_amp_cond2,3.0.4,60.00531163518782,
three,&&&&&,left,neutral,,,,,,,,0,74,74,110,,,,,,,,,,,,,,,,,,,,,LDT,right,0.817106791655533,0,,,right,0,0.817106791655533,,,,,,,,,,,,,,,,,,,,,,1024,2019_Mar_06_1502,mf_amp_cond2,3.0.4,60.00531163518782,
fifteen,&&&&&&&,left,neutral,,,,,,,,0,75,75,190,,,,,,,,,,,,,,,,,,,,,LDT,right,0.6836254136869684,0,,,right,0,0.6836254136869684,,,,,,,,,,,,,,,,,,,,,,1024,2019_Mar_06_1502,mf_amp_cond2,3.0.4,60.00531163518782,
crilfully,&&&&&&&&&,right,nonword,,,,,,,,0,76,76,131,,,,,,,,,,,,,,,,,,,,,LDT,right,0.667085527908057,1,,,right,1,0.667085527908057,,,,,,,,,,,,,,,,,,,,,,1024,2019_Mar_06_1502,mf_amp_cond2,3.0.4,60.00531163518782,
unreflectuve,&&&&&&&&&&&&,right,nonword,,,,,,,,0,77,77,98,,,,,,,,,,,,,,,,,,,,,LDT,left,0.700415461556986,0,,,left,0,0.700415461556986,,,,,,,,,,,,,,,,,,,,,,1024,2019_Mar_06_1502,mf_amp_cond2,3.0.4,60.00531163518782,
strofe,&&&&&&,right,nonword,,,,,,,,0,78,78,11,,,,,,,,,,,,,,,,,,,,,LDT,right,0.7337553375400603,1,,,right,1,0.7337553375400603,,,,,,,,,,,,,,,,,,,,,,1024,2019_Mar_06_1502,mf_amp_cond2,3.0.4,60.00531163518782,
promises,&&&&&&&&,left,fairness.virtue,,,,,,,,0,79,79,40,,,,,,,,,,,,,,,,,,,,,LDT,left,1.4005878168391064,1,,,left,1,1.4005878168391064,,,,,,,,,,,,,,,,,,,,,,1024,2019_Mar_06_1502,mf_amp_cond2,3.0.4,60.00531163518782,
clamorek,&&&&&&&&,right,nonword,,,,,,,,0,80,80,63,,,,,,,,,,,,,,,,,,,,,LDT,right,0.6670691712060943,1,,,right,1,0.6670691712060943,,,,,,,,,,,,,,,,,,,,,,1024,2019_Mar_06_1502,mf_amp_cond2,3.0.4,60.00531163518782,
strong,&&&&&&,left,loyalty.virtue,,,,,,,,0,81,81,175,,,,,,,,,,,,,,,,,,,,,LDT,right,2.2341283357236534,0,,,right,0,2.2341283357236534,,,,,,,,,,,,,,,,,,,,,,1024,2019_Mar_06_1502,mf_amp_cond2,3.0.4,60.00531163518782,
serial,&&&&&&,left,sanctity.vice,,,,,,,,0,82,82,141,,,,,,,,,,,,,,,,,,,,,LDT,right,0.8837740356102586,0,,,right,0,0.8837740356102586,,,,,,,,,,,,,,,,,,,,,,1024,2019_Mar_06_1502,mf_amp_cond2,3.0.4,60.00531163518782,
fostet,&&&&&&,right,nonword,,,,,,,,0,83,83,49,,,,,,,,,,,,,,,,,,,,,LDT,right,0.8671270291088149,1,,,right,1,0.8671270291088149,,,,,,,,,,,,,,,,,,,,,,1024,2019_Mar_06_1502,mf_amp_cond2,3.0.4,60.00531163518782,
lursuer,&&&&&&&,right,nonword,,,,,,,,0,84,84,25,,,,,,,,,,,,,,,,,,,,,LDT,right,0.7669502479257062,1,,,right,1,0.7669502479257062,,,,,,,,,,,,,,,,,,,,,,1024,2019_Mar_06_1502,mf_amp_cond2,3.0.4,60.00531163518782,
godlaness,&&&&&&&&&,right,nonword,,,,,,,,0,85,85,199,,,,,,,,,,,,,,,,,,,,,LDT,left,1.5172752982471138,0,,,left,0,1.5172752982471138,,,,,,,,,,,,,,,,,,,,,,1024,2019_Mar_06_1502,mf_amp_cond2,3.0.4,60.00531163518782,
therefore,&&&&&&&&&,left,neutral,,,,,,,,0,86,86,187,,,,,,,,,,,,,,,,,,,,,LDT,left,1.3672553173964843,1,,,left,1,1.3672553173964843,,,,,,,,,,,,,,,,,,,,,,1024,2019_Mar_06_1502,mf_amp_cond2,3.0.4,60.00531163518782,
atson,&&&&&,right,nonword,,,,,,,,0,87,87,125,,,,,,,,,,,,,,,,,,,,,LDT,left,1.0005044935969636,0,,,left,0,1.0005044935969636,,,,,,,,,,,,,,,,,,,,,,1024,2019_Mar_06_1502,mf_amp_cond2,3.0.4,60.00531163518782,
lempestuous,&&&&&&&&&&&,right,nonword,,,,,,,,0,88,88,14,,,,,,,,,,,,,,,,,,,,,LDT,left,4.8014527363702655,0,,,left,0,4.8014527363702655,,,,,,,,,,,,,,,,,,,,,,1024,2019_Mar_06_1502,mf_amp_cond2,3.0.4,60.00531163518782,
hence,&&&&&,left,neutral,,,,,,,,0,89,89,170,,,,,,,,,,,,,,,,,,,,,LDT,right,0.9838064925279468,0,,,right,0,0.9838064925279468,,,,,,,,,,,,,,,,,,,,,,1024,2019_Mar_06_1502,mf_amp_cond2,3.0.4,60.00531163518782,
rebels,&&&&&&,left,authority.vice,,,,,,,,0,90,90,185,,,,,,,,,,,,,,,,,,,,,LDT,right,0.7670939307427034,0,,,right,0,0.7670939307427034,,,,,,,,,,,,,,,,,,,,,,1024,2019_Mar_06_1502,mf_amp_cond2,3.0.4,60.00531163518782,
bluently,&&&&&&&&,None,nonword,,,,,,,,0,91,91,28,,,,,,,,,,,,,,,,,,,,,LDT,left,1.1838704441906884,0,,,left,0,1.1838704441906884,,,,,,,,,,,,,,,,,,,,,,1024,2019_Mar_06_1502,mf_amp_cond2,3.0.4,60.00531163518782,
chadows,&&&&&&&,right,nonword,,,,,,,,0,92,92,21,,,,,,,,,,,,,,,,,,,,,LDT,right,1.333918648539111,1,,,right,1,1.333918648539111,,,,,,,,,,,,,,,,,,,,,,1024,2019_Mar_06_1502,mf_amp_cond2,3.0.4,60.00531163518782,
tislay,&&&&&&,right,nonword,,,,,,,,0,93,93,130,,,,,,,,,,,,,,,,,,,,,LDT,left,2.9008934636367485,0,,,left,0,2.9008934636367485,,,,,,,,,,,,,,,,,,,,,,1024,2019_Mar_06_1502,mf_amp_cond2,3.0.4,60.00531163518782,
pescinded,&&&&&&&&&,right,nonword,,,,,,,,0,94,94,109,,,,,,,,,,,,,,,,,,,,,LDT,left,1.5006151422858238,0,,,left,0,1.5006151422858238,,,,,,,,,,,,,,,,,,,,,,1024,2019_Mar_06_1502,mf_amp_cond2,3.0.4,60.00531163518782,
myself,&&&&&&,left,neutral,,,,,,,,0,95,95,129,,,,,,,,,,,,,,,,,,,,,LDT,right,0.5670636547729373,0,,,right,0,0.5670636547729373,,,,,,,,,,,,,,,,,,,,,,1024,2019_Mar_06_1502,mf_amp_cond2,3.0.4,60.00531163518782,
sgrawl,&&&&&&,right,nonword,,,,,,,,0,96,96,123,,,,,,,,,,,,,,,,,,,,,LDT,right,4.634730585035868,1,,,right,1,4.634730585035868,,,,,,,,,,,,,,,,,,,,,,1024,2019_Mar_06_1502,mf_amp_cond2,3.0.4,60.00531163518782,
seachwear,&&&&&&&&&,right,nonword,,,,,,,,0,97,97,19,,,,,,,,,,,,,,,,,,,,,LDT,left,1.1171807497739792,0,,,left,0,1.1171807497739792,,,,,,,,,,,,,,,,,,,,,,1024,2019_Mar_06_1502,mf_amp_cond2,3.0.4,60.00531163518782,
mostly,&&&&&&,left,neutral,,,,,,,,0,98,98,186,,,,,,,,,,,,,,,,,,,,,LDT,right,0.6337148627499118,0,,,right,0,0.6337148627499118,,,,,,,,,,,,,,,,,,,,,,1024,2019_Mar_06_1502,mf_amp_cond2,3.0.4,60.00531163518782,
oam,&&&,right,nonword,,,,,,,,0,99,99,189,,,,,,,,,,,,,,,,,,,,,LDT,left,1.2839160508010536,0,,,left,0,1.2839160508010536,,,,,,,,,,,,,,,,,,,,,,1024,2019_Mar_06_1502,mf_amp_cond2,3.0.4,60.00531163518782,
couldnt,&&&&&&&,left,neutral,,,,,,,,0,100,100,152,,,,,,,,,,,,,,,,,,,,,LDT,left,1.6171679210383445,1,,,left,1,1.6171679210383445,,,,,,,,,,,,,,,,,,,,,,1024,2019_Mar_06_1502,mf_amp_cond2,3.0.4,60.00531163518782,
increase,&&&&&&&&,left,care.virtue,,,,,,,,0,101,101,7,,,,,,,,,,,,,,,,,,,,,LDT,right,0.5670495430240408,0,,,right,0,0.5670495430240408,,,,,,,,,,,,,,,,,,,,,,1024,2019_Mar_06_1502,mf_amp_cond2,3.0.4,60.00531163518782,
opportunity,&&&&&&&&&&&,left,fairness.virtue,,,,,,,,0,102,102,108,,,,,,,,,,,,,,,,,,,,,LDT,right,1.1338575833942741,0,,,right,0,1.1338575833942741,,,,,,,,,,,,,,,,,,,,,,1024,2019_Mar_06_1502,mf_amp_cond2,3.0.4,60.00531163518782,
trust,&&&&&,left,authority.virtue,,,,,,,,0,103,103,60,,,,,,,,,,,,,,,,,,,,,LDT,right,1.4005996835185215,0,,,right,0,1.4005996835185215,,,,,,,,,,,,,,,,,,,,,,1024,2019_Mar_06_1502,mf_amp_cond2,3.0.4,60.00531163518782,
slavery,&&&&&&&,left,loyalty.vice,,,,,,,,0,104,104,184,,,,,,,,,,,,,,,,,,,,,LDT,right,0.7670929685700685,0,,,right,0,0.7670929685700685,,,,,,,,,,,,,,,,,,,,,,1024,2019_Mar_06_1502,mf_amp_cond2,3.0.4,60.00531163518782,
besides,&&&&&&&,left,neutral,,,,,,,,0,105,105,112,,,,,,,,,,,,,,,,,,,,,LDT,right,1.0336791985901073,0,,,right,0,1.0336791985901073,,,,,,,,,,,,,,,,,,,,,,1024,2019_Mar_06_1502,mf_amp_cond2,3.0.4,60.00531163518782,
yane,&&&&,right,nonword,,,,,,,,0,106,106,142,,,,,,,,,,,,,,,,,,,,,LDT,left,1.017138029797934,0,,,left,0,1.017138029797934,,,,,,,,,,,,,,,,,,,,,,1024,2019_Mar_06_1502,mf_amp_cond2,3.0.4,60.00531163518782,
blamed,&&&&&&,left,loyalty.vice,,,,,,,,0,107,107,93,,,,,,,,,,,,,,,,,,,,,LDT,right,0.8004245058400556,0,,,right,0,0.8004245058400556,,,,,,,,,,,,,,,,,,,,,,1024,2019_Mar_06_1502,mf_amp_cond2,3.0.4,60.00531163518782,
lenon,&&&&&,right,nonword,,,,,,,,0,108,108,140,,,,,,,,,,,,,,,,,,,,,LDT,right,1.2005456741899252,1,,,right,1,1.2005456741899252,,,,,,,,,,,,,,,,,,,,,,1024,2019_Mar_06_1502,mf_amp_cond2,3.0.4,60.00531163518782,
counpy's,&&&&&&&&,right,nonword,,,,,,,,0,109,109,56,,,,,,,,,,,,,,,,,,,,,LDT,right,2.200805457890965,1,,,right,1,2.200805457890965,,,,,,,,,,,,,,,,,,,,,,1024,2019_Mar_06_1502,mf_amp_cond2,3.0.4,60.00531163518782,
emassion,&&&&&&&&,right,nonword,,,,,,,,0,110,110,70,,,,,,,,,,,,,,,,,,,,,LDT,right,1.7340093484381214,1,,,right,1,1.7340093484381214,,,,,,,,,,,,,,,,,,,,,,1024,2019_Mar_06_1502,mf_amp_cond2,3.0.4,60.00531163518782,
help,&&&&,left,care.virtue,,,,,,,,0,111,111,177,,,,,,,,,,,,,,,,,,,,,LDT,right,0.6837501740083098,0,,,right,0,0.6837501740083098,,,,,,,,,,,,,,,,,,,,,,1024,2019_Mar_06_1502,mf_amp_cond2,3.0.4,60.00531163518782,
encourage,&&&&&&&&&,left,authority.virtue,,,,,,,,0,112,112,23,,,,,,,,,,,,,,,,,,,,,LDT,right,1.6673398594139144,0,,,right,0,1.6673398594139144,,,,,,,,,,,,,,,,,,,,,,1024,2019_Mar_06_1502,mf_amp_cond2,3.0.4,60.00531163518782,
praised,&&&&&&&,left,loyalty.virtue,,,,,,,,0,113,113,139,,,,,,,,,,,,,,,,,,,,,LDT,right,0.7170778625877574,0,,,right,0,0.7170778625877574,,,,,,,,,,,,,,,,,,,,,,1024,2019_Mar_06_1502,mf_amp_cond2,3.0.4,60.00531163518782,
hasks,&&&&&,right,nonword,,,,,,,,0,114,114,47,,,,,,,,,,,,,,,,,,,,,LDT,left,0.983808096149005,0,,,left,0,0.983808096149005,,,,,,,,,,,,,,,,,,,,,,1024,2019_Mar_06_1502,mf_amp_cond2,3.0.4,60.00531163518782,
less,&&&&,left,neutral,,,,,,,,0,115,115,27,,,,,,,,,,,,,,,,,,,,,LDT,right,1.0505061292788014,0,,,right,0,1.0505061292788014,,,,,,,,,,,,,,,,,,,,,,1024,2019_Mar_06_1502,mf_amp_cond2,3.0.4,60.00531163518782,
front,&&&&&,left,neutral,,,,,,,,0,116,116,6,,,,,,,,,,,,,,,,,,,,,LDT,right,0.8838025798322633,0,,,right,0,0.8838025798322633,,,,,,,,,,,,,,,,,,,,,,1024,2019_Mar_06_1502,mf_amp_cond2,3.0.4,60.00531163518782,
either,&&&&&&,left,neutral,,,,,,,,0,117,117,132,,,,,,,,,,,,,,,,,,,,,LDT,left,1.4339418046874925,1,,,left,1,1.4339418046874925,,,,,,,,,,,,,,,,,,,,,,1024,2019_Mar_06_1502,mf_amp_cond2,3.0.4,60.00531163518782,
Cunday,&&&&&&,None,nonword,,,,,,,,0,118,118,84,,,,,,,,,,,,,,,,,,,,,LDT,right,0.6670781512511894,0,,,right,0,0.6670781512511894,,,,,,,,,,,,,,,,,,,,,,1024,2019_Mar_06_1502,mf_amp_cond2,3.0.4,60.00531163518782,
both,&&&&,left,neutral,,,,,,,,0,119,119,15,,,,,,,,,,,,,,,,,,,,,LDT,right,1.5672974600456655,0,,,right,0,1.5672974600456655,,,,,,,,,,,,,,,,,,,,,,1024,2019_Mar_06_1502,mf_amp_cond2,3.0.4,60.00531163518782,
further,&&&&&&&,left,neutral,,,,,,,,0,120,120,194,,,,,,,,,,,,,,,,,,,,,LDT,right,1.3839244536357,0,,,right,0,1.3839244536357,,,,,,,,,,,,,,,,,,,,,,1024,2019_Mar_06_1502,mf_amp_cond2,3.0.4,60.00531163518782,
Phintoism,&&&&&&&&&,right,nonword,,,,,,,,0,121,121,86,,,,,,,,,,,,,,,,,,,,,LDT,left,1.8673733425093815,0,,,left,0,1.8673733425093815,,,,,,,,,,,,,,,,,,,,,,1024,2019_Mar_06_1502,mf_amp_cond2,3.0.4,60.00531163518782,
presentkess,&&&&&&&&&&&,right,nonword,,,,,,,,0,122,122,191,,,,,,,,,,,,,,,,,,,,,LDT,right,0.6670666054124013,1,,,right,1,0.6670666054124013,,,,,,,,,,,,,,,,,,,,,,1024,2019_Mar_06_1502,mf_amp_cond2,3.0.4,60.00531163518782,
anyhow,&&&&&&,left,neutral,,,,,,,,0,123,123,26,,,,,,,,,,,,,,,,,,,,,LDT,right,0.7504793170373887,0,,,right,0,0.7504793170373887,,,,,,,,,,,,,,,,,,,,,,1024,2019_Mar_06_1502,mf_amp_cond2,3.0.4,60.00531163518782,
drumbled,&&&&&&&&,right,nonword,,,,,,,,0,124,124,89,,,,,,,,,,,,,,,,,,,,,LDT,right,0.7337126818019897,1,,,right,1,0.7337126818019897,,,,,,,,,,,,,,,,,,,,,,1024,2019_Mar_06_1502,mf_amp_cond2,3.0.4,60.00531163518782,
give,&&&&,left,neutral,,,,,,,,0,125,125,36,,,,,,,,,,,,,,,,,,,,,LDT,left,1.950749492039904,1,,,left,1,1.950749492039904,,,,,,,,,,,,,,,,,,,,,,1024,2019_Mar_06_1502,mf_amp_cond2,3.0.4,60.00531163518782,
officers,&&&&&&&&,left,authority.vice,,,,,,,,0,126,126,124,,,,,,,,,,,,,,,,,,,,,LDT,right,3.8345357151702046,0,,,right,0,3.8345357151702046,,,,,,,,,,,,,,,,,,,,,,1024,2019_Mar_06_1502,mf_amp_cond2,3.0.4,60.00531163518782,
amoungst,&&&&&&&&,left,neutral,,,,,,,,0,127,127,107,,,,,,,,,,,,,,,,,,,,,LDT,right,0.7170810698298737,0,,,right,0,0.7170810698298737,,,,,,,,,,,,,,,,,,,,,,1024,2019_Mar_06_1502,mf_amp_cond2,3.0.4,60.00531163518782,
ittutable,&&&&&&&&&,right,nonword,,,,,,,,0,128,128,134,,,,,,,,,,,,,,,,,,,,,LDT,left,0.9004768475424498,0,,,left,0,0.9004768475424498,,,,,,,,,,,,,,,,,,,,,,1024,2019_Mar_06_1502,mf_amp_cond2,3.0.4,60.00531163518782,
eight,&&&&&,left,neutral,,,,,,,,0,129,129,115,,,,,,,,,,,,,,,,,,,,,LDT,right,0.6003637614194304,0,,,right,0,0.6003637614194304,,,,,,,,,,,,,,,,,,,,,,1024,2019_Mar_06_1502,mf_amp_cond2,3.0.4,60.00531163518782,
there,&&&&&,left,neutral,,,,,,,,0,130,130,75,,,,,,,,,,,,,,,,,,,,,LDT,right,0.5837151512969285,0,,,right,0,0.5837151512969285,,,,,,,,,,,,,,,,,,,,,,1024,2019_Mar_06_1502,mf_amp_cond2,3.0.4,60.00531163518782,
noone,&&&&&,left,neutral,,,,,,,,0,131,131,90,,,,,,,,,,,,,,,,,,,,,LDT,right,0.750424794619903,0,,,right,0,0.750424794619903,,,,,,,,,,,,,,,,,,,,,,1024,2019_Mar_06_1502,mf_amp_cond2,3.0.4,60.00531163518782,
viscs,&&&&&,None,nonword,,,,,,,,0,132,132,39,,,,,,,,,,,,,,,,,,,,,LDT,right,1.6173100002342835,0,,,right,0,1.6173100002342835,,,,,,,,,,,,,,,,,,,,,,1024,2019_Mar_06_1502,mf_amp_cond2,3.0.4,60.00531163518782,
hope,&&&&,left,loyalty.virtue,,,,,,,,0,133,133,155,,,,,,,,,,,,,,,,,,,,,LDT,right,0.6003833253635094,0,,,right,0,0.6003833253635094,,,,,,,,,,,,,,,,,,,,,,1024,2019_Mar_06_1502,mf_amp_cond2,3.0.4,60.00531163518782,
gedious,&&&&&&&,right,nonword,,,,,,,,0,134,134,105,,,,,,,,,,,,,,,,,,,,,LDT,right,0.9504569949349388,1,,,right,1,0.9504569949349388,,,,,,,,,,,,,,,,,,,,,,1024,2019_Mar_06_1502,mf_amp_cond2,3.0.4,60.00531163518782,
useful,&&&&&&,left,authority.virtue,,,,,,,,0,135,135,143,,,,,,,,,,,,,,,,,,,,,LDT,right,0.7837746129371226,0,,,right,0,0.7837746129371226,,,,,,,,,,,,,,,,,,,,,,1024,2019_Mar_06_1502,mf_amp_cond2,3.0.4,60.00531163518782,
saned,&&&&&,None,nonword,,,,,,,,0,136,136,180,,,,,,,,,,,,,,,,,,,,,LDT,right,1.3172453430015594,0,,,right,0,1.3172453430015594,,,,,,,,,,,,,,,,,,,,,,1024,2019_Mar_06_1502,mf_amp_cond2,3.0.4,60.00531163518782,
festate,&&&&&&&,right,nonword,,,,,,,,0,137,137,172,,,,,,,,,,,,,,,,,,,,,LDT,left,1.100503595545888,0,,,left,0,1.100503595545888,,,,,,,,,,,,,,,,,,,,,,1024,2019_Mar_06_1502,mf_amp_cond2,3.0.4,60.00531163518782,
ablow,&&&&&,right,nonword,,,,,,,,0,138,138,118,,,,,,,,,,,,,,,,,,,,,LDT,right,0.5503813689574599,1,,,right,1,0.5503813689574599,,,,,,,,,,,,,,,,,,,,,,1024,2019_Mar_06_1502,mf_amp_cond2,3.0.4,60.00531163518782,
respect,&&&&&&&,left,sanctity.virtue,,,,,,,,0,139,139,59,,,,,,,,,,,,,,,,,,,,,LDT,right,3.701162740821019,0,,,right,0,3.701162740821019,,,,,,,,,,,,,,,,,,,,,,1024,2019_Mar_06_1502,mf_amp_cond2,3.0.4,60.00531163518782,
dormandi,&&&&&&&&,None,nonword,,,,,,,,0,140,140,9,,,,,,,,,,,,,,,,,,,,,LDT,right,1.8006522175855935,0,,,right,0,1.8006522175855935,,,,,,,,,,,,,,,,,,,,,,1024,2019_Mar_06_1502,mf_amp_cond2,3.0.4,60.00531163518782,
critics,&&&&&&&,left,loyalty.vice,,,,,,,,0,141,141,34,,,,,,,,,,,,,,,,,,,,,LDT,right,1.367246337234974,0,,,right,0,1.367246337234974,,,,,,,,,,,,,,,,,,,,,,1024,2019_Mar_06_1502,mf_amp_cond2,3.0.4,60.00531163518782,
supervuned,&&&&&&&&&&,right,nonword,,,,,,,,0,142,142,164,,,,,,,,,,,,,,,,,,,,,LDT,left,1.2172099995659664,0,,,left,0,1.2172099995659664,,,,,,,,,,,,,,,,,,,,,,1024,2019_Mar_06_1502,mf_amp_cond2,3.0.4,60.00531163518782,
reelectiob,&&&&&&&&&&,right,nonword,,,,,,,,0,143,143,173,,,,,,,,,,,,,,,,,,,,,LDT,right,0.6837402316741645,1,,,right,1,0.6837402316741645,,,,,,,,,,,,,,,,,,,,,,1024,2019_Mar_06_1502,mf_amp_cond2,3.0.4,60.00531163518782,
war,&&&,left,sanctity.vice,,,,,,,,0,144,144,114,,,,,,,,,,,,,,,,,,,,,LDT,right,0.6337341059697792,0,,,right,0,0.6337341059697792,,,,,,,,,,,,,,,,,,,,,,1024,2019_Mar_06_1502,mf_amp_cond2,3.0.4,60.00531163518782,
freedom,&&&&&&&,left,sanctity.virtue,,,,,,,,0,145,145,77,,,,,,,,,,,,,,,,,,,,,LDT,left,5.018171071074903,1,,,left,1,5.018171071074903,,,,,,,,,,,,,,,,,,,,,,1024,2019_Mar_06_1502,mf_amp_cond2,3.0.4,60.00531163518782,
fifty,&&&&&,left,neutral,,,,,,,,0,146,146,149,,,,,,,,,,,,,,,,,,,,,LDT,right,0.7504289639182389,0,,,right,0,0.7504289639182389,,,,,,,,,,,,,,,,,,,,,,1024,2019_Mar_06_1502,mf_amp_cond2,3.0.4,60.00531163518782,
about,&&&&&,left,neutral,,,,,,,,0,147,147,146,,,,,,,,,,,,,,,,,,,,,LDT,right,0.8338009441504255,0,,,right,0,0.8338009441504255,,,,,,,,,,,,,,,,,,,,,,1024,2019_Mar_06_1502,mf_amp_cond2,3.0.4,60.00531163518782,
bruthfulness,&&&&&&&&&&&&,right,nonword,,,,,,,,0,148,148,150,,,,,,,,,,,,,,,,,,,,,LDT,left,6.401836703182198,0,,,left,0,6.401836703182198,,,,,,,,,,,,,,,,,,,,,,1024,2019_Mar_06_1502,mf_amp_cond2,3.0.4,60.00531163518782,
sexual,&&&&&&,left,sanctity.vice,,,,,,,,0,149,149,29,,,,,,,,,,,,,,,,,,,,,LDT,right,0.3836768572218716,0,,,right,0,0.3836768572218716,,,,,,,,,,,,,,,,,,,,,,1024,2019_Mar_06_1502,mf_amp_cond2,3.0.4,60.00531163518782,
discovars,&&&&&&&&&,right,nonword,,,,,,,,0,150,150,88,,,,,,,,,,,,,,,,,,,,,LDT,left,0.9671745598316193,0,,,left,0,0.9671745598316193,,,,,,,,,,,,,,,,,,,,,,1024,2019_Mar_06_1502,mf_amp_cond2,3.0.4,60.00531163518782,
tracious,&&&&&&&&,right,nonword,,,,,,,,0,151,151,54,,,,,,,,,,,,,,,,,,,,,LDT,right,0.5003540755715221,1,,,right,1,0.5003540755715221,,,,,,,,,,,,,,,,,,,,,,1024,2019_Mar_06_1502,mf_amp_cond2,3.0.4,60.00531163518782,
riot,&&&&,left,authority.vice,,,,,,,,0,152,152,121,,,,,,,,,,,,,,,,,,,,,LDT,right,0.8004399004857987,0,,,right,0,0.8004399004857987,,,,,,,,,,,,,,,,,,,,,,1024,2019_Mar_06_1502,mf_amp_cond2,3.0.4,60.00531163518782,
although,&&&&&&&&,left,neutral,,,,,,,,0,153,153,55,,,,,,,,,,,,,,,,,,,,,LDT,right,0.5670549952192232,0,,,right,0,0.5670549952192232,,,,,,,,,,,,,,,,,,,,,,1024,2019_Mar_06_1502,mf_amp_cond2,3.0.4,60.00531163518782,
each,&&&&,left,neutral,,,,,,,,0,154,154,113,,,,,,,,,,,,,,,,,,,,,LDT,right,0.5503727095201612,0,,,right,0,0.5503727095201612,,,,,,,,,,,,,,,,,,,,,,1024,2019_Mar_06_1502,mf_amp_cond2,3.0.4,60.00531163518782,
Boeinf,&&&&&&,right,nonword,,,,,,,,0,155,155,97,,,,,,,,,,,,,,,,,,,,,LDT,left,1.167195214307867,0,,,left,0,1.167195214307867,,,,,,,,,,,,,,,,,,,,,,1024,2019_Mar_06_1502,mf_amp_cond2,3.0.4,60.00531163518782,
spag,&&&&,None,nonword,,,,,,,,0,156,156,74,,,,,,,,,,,,,,,,,,,,,LDT,left,0.9170747837051749,0,,,left,0,0.9170747837051749,,,,,,,,,,,,,,,,,,,,,,1024,2019_Mar_06_1502,mf_amp_cond2,3.0.4,60.00531163518782,
dumid,&&&&&,right,nonword,,,,,,,,0,157,157,167,,,,,,,,,,,,,,,,,,,,,LDT,right,0.7670971379848197,1,,,right,1,0.7670971379848197,,,,,,,,,,,,,,,,,,,,,,1024,2019_Mar_06_1502,mf_amp_cond2,3.0.4,60.00531163518782,
wherever,&&&&&&&&,left,neutral,,,,,,,,0,158,158,174,,,,,,,,,,,,,,,,,,,,,LDT,left,1.2839012976037338,1,,,left,1,1.2839012976037338,,,,,,,,,,,,,,,,,,,,,,1024,2019_Mar_06_1502,mf_amp_cond2,3.0.4,60.00531163518782,
actively,&&&&&&&&,left,authority.virtue,,,,,,,,0,159,159,117,,,,,,,,,,,,,,,,,,,,,LDT,right,0.5837449782993644,0,,,right,0,0.5837449782993644,,,,,,,,,,,,,,,,,,,,,,1024,2019_Mar_06_1502,mf_amp_cond2,3.0.4,60.00531163518782,
with,&&&&,left,neutral,,,,,,,,0,160,160,51,,,,,,,,,,,,,,,,,,,,,LDT,right,0.8337813800899312,0,,,right,0,0.8337813800899312,,,,,,,,,,,,,,,,,,,,,,1024,2019_Mar_06_1502,mf_amp_cond2,3.0.4,60.00531163518782,
abointment,&&&&&&&&&&,right,nonword,,,,,,,,0,161,161,1,,,,,,,,,,,,,,,,,,,,,LDT,right,0.8504514785017818,1,,,right,1,0.8504514785017818,,,,,,,,,,,,,,,,,,,,,,1024,2019_Mar_06_1502,mf_amp_cond2,3.0.4,60.00531163518782,
honstables,&&&&&&&&&&,right,nonword,,,,,,,,0,162,162,80,,,,,,,,,,,,,,,,,,,,,LDT,left,3.484455951838754,0,,,left,0,3.484455951838754,,,,,,,,,,,,,,,,,,,,,,1024,2019_Mar_06_1502,mf_amp_cond2,3.0.4,60.00531163518782,
also,&&&&,left,neutral,,,,,,,,0,163,163,183,,,,,,,,,,,,,,,,,,,,,LDT,right,0.7504270395729691,0,,,right,0,0.7504270395729691,,,,,,,,,,,,,,,,,,,,,,1024,2019_Mar_06_1502,mf_amp_cond2,3.0.4,60.00531163518782,
safe,&&&&,left,care.virtue,,,,,,,,0,164,164,126,,,,,,,,,,,,,,,,,,,,,LDT,right,1.6339890788076445,0,,,right,0,1.6339890788076445,,,,,,,,,,,,,,,,,,,,,,1024,2019_Mar_06_1502,mf_amp_cond2,3.0.4,60.00531163518782,
brudent,&&&&&&&,right,nonword,,,,,,,,0,165,165,116,,,,,,,,,,,,,,,,,,,,,LDT,right,1.0005016071954742,1,,,right,1,1.0005016071954742,,,,,,,,,,,,,,,,,,,,,,1024,2019_Mar_06_1502,mf_amp_cond2,3.0.4,60.00531163518782,
perified,&&&&&&&&,right,nonword,,,,,,,,0,166,166,196,,,,,,,,,,,,,,,,,,,,,LDT,left,1.2672292748466134,0,,,left,0,1.2672292748466134,,,,,,,,,,,,,,,,,,,,,,1024,2019_Mar_06_1502,mf_amp_cond2,3.0.4,60.00531163518782,
fornicalion,&&&&&&&&&&&,right,nonword,,,,,,,,0,167,167,169,,,,,,,,,,,,,,,,,,,,,LDT,left,0.9338054982945323,0,,,left,0,0.9338054982945323,,,,,,,,,,,,,,,,,,,,,,1024,2019_Mar_06_1502,mf_amp_cond2,3.0.4,60.00531163518782,
crime,&&&&&,left,fairness.vice,,,,,,,,0,168,168,111,,,,,,,,,,,,,,,,,,,,,LDT,right,0.8671247840393335,0,,,right,0,0.8671247840393335,,,,,,,,,,,,,,,,,,,,,,1024,2019_Mar_06_1502,mf_amp_cond2,3.0.4,60.00531163518782,
stindig,&&&&&&&,right,nonword,,,,,,,,0,169,169,91,,,,,,,,,,,,,,,,,,,,,LDT,right,0.8504075398668647,1,,,right,1,0.8504075398668647,,,,,,,,,,,,,,,,,,,,,,1024,2019_Mar_06_1502,mf_amp_cond2,3.0.4,60.00531163518782,
laming,&&&&&&,right,nonword,,,,,,,,0,170,170,24,,,,,,,,,,,,,,,,,,,,,LDT,left,8.252306783339009,0,,,left,0,8.252306783339009,,,,,,,,,,,,,,,,,,,,,,1024,2019_Mar_06_1502,mf_amp_cond2,3.0.4,60.00531163518782,
nonobservalt,&&&&&&&&&&&&,right,nonword,,,,,,,,0,171,171,62,,,,,,,,,,,,,,,,,,,,,LDT,right,0.9504723894642666,1,,,right,1,0.9504723894642666,,,,,,,,,,,,,,,,,,,,,,1024,2019_Mar_06_1502,mf_amp_cond2,3.0.4,60.00531163518782,
could,&&&&&,left,neutral,,,,,,,,0,172,172,156,,,,,,,,,,,,,,,,,,,,,LDT,left,1.6840202207677066,1,,,left,1,1.6840202207677066,,,,,,,,,,,,,,,,,,,,,,1024,2019_Mar_06_1502,mf_amp_cond2,3.0.4,60.00531163518782,
mightingale,&&&&&&&&&&&,right,nonword,,,,,,,,0,173,173,179,,,,,,,,,,,,,,,,,,,,,LDT,right,0.7004205930279568,1,,,right,1,0.7004205930279568,,,,,,,,,,,,,,,,,,,,,,1024,2019_Mar_06_1502,mf_amp_cond2,3.0.4,60.00531163518782,
violations,&&&&&&&&&&,left,sanctity.vice,,,,,,,,0,174,174,13,,,,,,,,,,,,,,,,,,,,,LDT,right,0.5503714266233146,0,,,right,0,0.5503714266233146,,,,,,,,,,,,,,,,,,,,,,1024,2019_Mar_06_1502,mf_amp_cond2,3.0.4,60.00531163518782,
neputized,&&&&&&&&&,right,nonword,,,,,,,,0,175,175,85,,,,,,,,,,,,,,,,,,,,,LDT,right,0.6670778306433931,1,,,right,1,0.6670778306433931,,,,,,,,,,,,,,,,,,,,,,1024,2019_Mar_06_1502,mf_amp_cond2,3.0.4,60.00531163518782,
wonderfujnoss,&&&&&&&&&&&&&,right,nonword,,,,,,,,0,176,176,94,,,,,,,,,,,,,,,,,,,,,LDT,left,0.517031550523825,0,,,left,0,0.517031550523825,,,,,,,,,,,,,,,,,,,,,,1024,2019_Mar_06_1502,mf_amp_cond2,3.0.4,60.00531163518782,
least,&&&&&,left,neutral,,,,,,,,0,177,177,4,,,,,,,,,,,,,,,,,,,,,LDT,right,0.6837344587547705,0,,,right,0,0.6837344587547705,,,,,,,,,,,,,,,,,,,,,,1024,2019_Mar_06_1502,mf_amp_cond2,3.0.4,60.00531163518782,
seem,&&&&,left,neutral,,,,,,,,0,178,178,104,,,,,,,,,,,,,,,,,,,,,LDT,right,0.7504154936177656,0,,,right,0,0.7504154936177656,,,,,,,,,,,,,,,,,,,,,,1024,2019_Mar_06_1502,mf_amp_cond2,3.0.4,60.00531163518782,
everything,&&&&&&&&&&,left,neutral,,,,,,,,0,179,179,33,,,,,,,,,,,,,,,,,,,,,LDT,right,3.701171720866114,0,,,right,0,3.701171720866114,,,,,,,,,,,,,,,,,,,,,,1024,2019_Mar_06_1502,mf_amp_cond2,3.0.4,60.00531163518782,
hate,&&&&,left,fairness.vice,,,,,,,,0,180,180,78,,,,,,,,,,,,,,,,,,,,,LDT,right,0.6503923375857994,0,,,right,0,0.6503923375857994,,,,,,,,,,,,,,,,,,,,,,1024,2019_Mar_06_1502,mf_amp_cond2,3.0.4,60.00531163518782,
died,&&&&,left,care.vice,,,,,,,,0,181,181,44,,,,,,,,,,,,,,,,,,,,,LDT,right,1.2005552957998589,0,,,right,0,1.2005552957998589,,,,,,,,,,,,,,,,,,,,,,1024,2019_Mar_06_1502,mf_amp_cond2,3.0.4,60.00531163518782,
pharing,&&&&&&&,right,nonword,,,,,,,,0,182,182,197,,,,,,,,,,,,,,,,,,,,,LDT,left,0.9504858597647399,0,,,left,0,0.9504858597647399,,,,,,,,,,,,,,,,,,,,,,1024,2019_Mar_06_1502,mf_amp_cond2,3.0.4,60.00531163518782,
framatic,&&&&&&&&,right,nonword,,,,,,,,0,183,183,82,,,,,,,,,,,,,,,,,,,,,LDT,right,0.5337170435814187,1,,,right,1,0.5337170435814187,,,,,,,,,,,,,,,,,,,,,,1024,2019_Mar_06_1502,mf_amp_cond2,3.0.4,60.00531163518782,
elsewhere,&&&&&&&&&,left,neutral,,,,,,,,0,184,184,87,,,,,,,,,,,,,,,,,,,,,LDT,right,0.7837720471434295,0,,,right,0,0.7837720471434295,,,,,,,,,,,,,,,,,,,,,,1024,2019_Mar_06_1502,mf_amp_cond2,3.0.4,60.00531163518782,
else,&&&&,left,neutral,,,,,,,,0,185,185,73,,,,,,,,,,,,,,,,,,,,,LDT,right,0.8671077858889475,0,,,right,0,0.8671077858889475,,,,,,,,,,,,,,,,,,,,,,1024,2019_Mar_06_1502,mf_amp_cond2,3.0.4,60.00531163518782,
gusinesslike,&&&&&&&&&&&&,right,nonword,,,,,,,,0,186,186,182,,,,,,,,,,,,,,,,,,,,,LDT,left,1.100499105406925,0,,,left,0,1.100499105406925,,,,,,,,,,,,,,,,,,,,,,1024,2019_Mar_06_1502,mf_amp_cond2,3.0.4,60.00531163518782,
somehow,&&&&&&&,left,neutral,,,,,,,,0,187,187,30,,,,,,,,,,,,,,,,,,,,,LDT,right,1.8173649717355147,0,,,right,0,1.8173649717355147,,,,,,,,,,,,,,,,,,,,,,1024,2019_Mar_06_1502,mf_amp_cond2,3.0.4,60.00531163518782,
become,&&&&&&,left,neutral,,,,,,,,0,188,188,17,,,,,,,,,,,,,,,,,,,,,LDT,right,0.7671167018124834,0,,,right,0,0.7671167018124834,,,,,,,,,,,,,,,,,,,,,,1024,2019_Mar_06_1502,mf_amp_cond2,3.0.4,60.00531163518782,
strength,&&&&&&&&,left,sanctity.virtue,,,,,,,,0,189,189,2,,,,,,,,,,,,,,,,,,,,,LDT,right,0.8337800971930847,0,,,right,0,0.8337800971930847,,,,,,,,,,,,,,,,,,,,,,1024,2019_Mar_06_1502,mf_amp_cond2,3.0.4,60.00531163518782,
neutralust,&&&&&&&&&&,right,nonword,,,,,,,,0,190,190,166,,,,,,,,,,,,,,,,,,,,,LDT,right,1.4172813278855756,1,,,right,1,1.4172813278855756,,,,,,,,,,,,,,,,,,,,,,1024,2019_Mar_06_1502,mf_amp_cond2,3.0.4,60.00531163518782,
elduringly,&&&&&&&&&&,right,nonword,,,,,,,,0,191,191,162,,,,,,,,,,,,,,,,,,,,,LDT,left,1.6506694402778521,0,,,left,0,1.6506694402778521,,,,,,,,,,,,,,,,,,,,,,1024,2019_Mar_06_1502,mf_amp_cond2,3.0.4,60.00531163518782,
fontacts,&&&&&&&&,right,nonword,,,,,,,,0,192,192,76,,,,,,,,,,,,,,,,,,,,,LDT,right,0.5003707531141117,1,,,right,1,0.5003707531141117,,,,,,,,,,,,,,,,,,,,,,1024,2019_Mar_06_1502,mf_amp_cond2,3.0.4,60.00531163518782,
forty,&&&&&,left,neutral,,,,,,,,0,193,193,38,,,,,,,,,,,,,,,,,,,,,LDT,right,1.1171890886034817,0,,,right,0,1.1171890886034817,,,,,,,,,,,,,,,,,,,,,,1024,2019_Mar_06_1502,mf_amp_cond2,3.0.4,60.00531163518782,
hatigue,&&&&&&&,right,nonword,,,,,,,,0,194,194,136,,,,,,,,,,,,,,,,,,,,,LDT,left,1.0505096572451293,0,,,left,0,1.0505096572451293,,,,,,,,,,,,,,,,,,,,,,1024,2019_Mar_06_1502,mf_amp_cond2,3.0.4,60.00531163518782,
taxpayung,&&&&&&&&&,right,nonword,,,,,,,,0,195,195,35,,,,,,,,,,,,,,,,,,,,,LDT,left,0.7004183479584754,0,,,left,0,0.7004183479584754,,,,,,,,,,,,,,,,,,,,,,1024,2019_Mar_06_1502,mf_amp_cond2,3.0.4,60.00531163518782,
gondensed,&&&&&&&&&,right,nonword,,,,,,,,0,196,196,43,,,,,,,,,,,,,,,,,,,,,LDT,left,0.9837583844782785,0,,,left,0,0.9837583844782785,,,,,,,,,,,,,,,,,,,,,,1024,2019_Mar_06_1502,mf_amp_cond2,3.0.4,60.00531163518782,
thabbily,&&&&&&&&,right,nonword,,,,,,,,0,197,197,144,,,,,,,,,,,,,,,,,,,,,LDT,left,1.2005315624410287,0,,,left,0,1.2005315624410287,,,,,,,,,,,,,,,,,,,,,,1024,2019_Mar_06_1502,mf_amp_cond2,3.0.4,60.00531163518782,
anything,&&&&&&&&,left,neutral,,,,,,,,0,198,198,83,,,,,,,,,,,,,,,,,,,,,LDT,right,0.5170398893533275,0,,,right,0,0.5170398893533275,,,,,,,,,,,,,,,,,,,,,,1024,2019_Mar_06_1502,mf_amp_cond2,3.0.4,60.00531163518782,
chressing,&&&&&&&&&,None,nonword,,,,,,,,0,199,199,127,,,,,,,,,,,,,,,,,,,,,LDT,right,0.8837891094153747,0,,,right,0,0.8837891094153747,,,,,,,,,,,,,,,,,,,,,,1024,2019_Mar_06_1502,mf_amp_cond2,3.0.4,60.00531163518782,
,,,,,,,,,,,,,,,,,,,,,,,,,,,,,,,,,,,,,,,,,,,,5,13.639,,,,,,,,,,,,,,,,,,,,1024,2019_Mar_06_1502,mf_amp_cond2,3.0.4,60.00531163518782,
,,,,,,,,,,,,,,,,,,,,,,,,,,,,,,,,,,,,,,,,,,,,,,right,1.917415389092639,,,,,,,,,,,,,,,,,,1024,2019_Mar_06_1502,mf_amp_cond2,3.0.4,60.00531163518782,
scarf,&&&&&&&&,,,bisebell,,,,,,,,,,,0,0,0,3,,,,,,,,,,,,,,,,,AMP_prac,right,3.051001963438466,,,,,,,,,,,right,3.051001963438466,,,,,,,,,,,,,,,,1024,2019_Mar_06_1502,mf_amp_cond2,3.0.4,60.00531163518782,
banana,&&&&&&,,,kacket,,,,,,,,,,,0,1,1,1,,,,,,,,,,,,,,,,,AMP_prac,left,1.7173382878536358,,,,,,,,,,,left,1.7173382878536358,,,,,,,,,,,,,,,,1024,2019_Mar_06_1502,mf_amp_cond2,3.0.4,60.00531163518782,
car,&&&&&&&&,,,cemtuper,,,,,,,,,,,0,2,2,0,,,,,,,,,,,,,,,,,AMP_prac,left,2.9676402462646365,,,,,,,,,,,left,2.9676402462646365,,,,,,,,,,,,,,,,1024,2019_Mar_06_1502,mf_amp_cond2,3.0.4,60.00531163518782,
keyboard,&&&&,,,senk,,,,,,,,,,,0,3,3,2,,,,,,,,,,,,,,,,,AMP_prac,right,3.4676982967648655,,,,,,,,,,,right,3.4676982967648655,,,,,,,,,,,,,,,,1024,2019_Mar_06_1502,mf_amp_cond2,3.0.4,60.00531163518782,
,,,,,,,,,,,,,,,,,,,,,,,,,,,,,,,,,,,,,,,,,,,,,,,,,,right,3.701160495635122,,,,,,,,,,,,,,1024,2019_Mar_06_1502,mf_amp_cond2,3.0.4,60.00531163518782,
promote,&&&&&&&&&&&,left,sanctity.virtue,precificity,,,,,,,,,,,,,,,0,0,0,54,,,,,,,,,,,,,AMP,right,4.0179177017416805,0,,,,,,,,,,,,,,right,0,4.0179177017416805,,,,,,,,,,,1024,2019_Mar_06_1502,mf_amp_cond2,3.0.4,60.00531163518782,
violence,&&&&&&&,right,care.vice,halaise,,,,,,,,,,,,,,,0,1,1,327,,,,,,,,,,,,,AMP,left,3.7345269916113466,0,,,,,,,,,,,,,,left,0,3.7345269916113466,,,,,,,,,,,1024,2019_Mar_06_1502,mf_amp_cond2,3.0.4,60.00531163518782,
peaceful,&&&&&&&&&&&,left,authority.virtue,blunderints,,,,,,,,,,,,,,,0,2,2,108,,,,,,,,,,,,,AMP,left,2.950985542498529,1,,,,,,,,,,,,,,left,1,2.950985542498529,,,,,,,,,,,1024,2019_Mar_06_1502,mf_amp_cond2,3.0.4,60.00531163518782,
ban,&&&&&&&&&,right,loyalty.vice,gillipede,,,,,,,,,,,,,,,0,3,3,247,,,,,,,,,,,,,AMP,right,3.66781516734045,1,,,,,,,,,,,,,,right,1,3.66781516734045,,,,,,,,,,,1024,2019_Mar_06_1502,mf_amp_cond2,3.0.4,60.00531163518782,
metibolic,&&&&,None,nonword,wump,,,,,,,,,,,,,,,0,4,4,71,,,,,,,,,,,,,AMP,left,1.3672149066114798,0,,,,,,,,,,,,,,left,0,1.3672149066114798,,,,,,,,,,,1024,2019_Mar_06_1502,mf_amp_cond2,3.0.4,60.00531163518782,
troops,&&&&&,right,loyalty.vice,scock,,,,,,,,,,,,,,,0,5,5,315,,,,,,,,,,,,,AMP,left,2.100759209948592,0,,,,,,,,,,,,,,left,0,2.100759209948592,,,,,,,,,,,1024,2019_Mar_06_1502,mf_amp_cond2,3.0.4,60.00531163518782,
free,&&&&&&&&&&&&,left,fairness.virtue,edancipation,,,,,,,,,,,,,,,0,6,6,150,,,,,,,,,,,,,AMP,right,1.4339315415127203,0,,,,,,,,,,,,,,right,0,1.4339315415127203,,,,,,,,,,,1024,2019_Mar_06_1502,mf_amp_cond2,3.0.4,60.00531163518782,
injured,&&&&&&&&&&,right,care.vice,clattening,,,,,,,,,,,,,,,0,7,7,279,,,,,,,,,,,,,AMP,right,6.184995532385074,1,,,,,,,,,,,,,,right,1,6.184995532385074,,,,,,,,,,,1024,2019_Mar_06_1502,mf_amp_cond2,3.0.4,60.00531163518782,
care,&&&&&&,left,care.virtue,papert,,,,,,,,,,,,,,,0,8,8,277,,,,,,,,,,,,,AMP,right,2.534187540761195,0,,,,,,,,,,,,,,right,0,2.534187540761195,,,,,,,,,,,1024,2019_Mar_06_1502,mf_amp_cond2,3.0.4,60.00531163518782,
free,&&&&&&&&&&&,left,fairness.virtue,ronviolence,,,,,,,,,,,,,,,0,9,9,220,,,,,,,,,,,,,AMP,left,0.7504263981245458,1,,,,,,,,,,,,,,left,1,0.7504263981245458,,,,,,,,,,,1024,2019_Mar_06_1502,mf_amp_cond2,3.0.4,60.00531163518782,
free,&&&&&&&,left,fairness.virtue,Daptist,,,,,,,,,,,,,,,0,10,10,285,,,,,,,,,,,,,AMP,left,1.5006270088488236,1,,,,,,,,,,,,,,left,1,1.5006270088488236,,,,,,,,,,,1024,2019_Mar_06_1502,mf_amp_cond2,3.0.4,60.00531163518782,
compassion,&&&&&&&&&,left,care.virtue,gaultless,,,,,,,,,,,,,,,0,11,11,69,,,,,,,,,,,,,AMP,left,4.984808103181422,1,,,,,,,,,,,,,,left,1,4.984808103181422,,,,,,,,,,,1024,2019_Mar_06_1502,mf_amp_cond2,3.0.4,60.00531163518782,
failure,&&&&&&&&,right,loyalty.vice,sfumatoy,,,,,,,,,,,,,,,0,12,12,58,,,,,,,,,,,,,AMP,left,1.4339331451337785,0,,,,,,,,,,,,,,left,0,1.4339331451337785,,,,,,,,,,,1024,2019_Mar_06_1502,mf_amp_cond2,3.0.4,60.00531163518782,
values,&&&&&&&&&&&,left,sanctity.virtue,egpeditious,,,,,,,,,,,,,,,0,13,13,42,,,,,,,,,,,,,AMP,right,1.3339019711129367,0,,,,,,,,,,,,,,right,0,1.3339019711129367,,,,,,,,,,,1024,2019_Mar_06_1502,mf_amp_cond2,3.0.4,60.00531163518782,
racist,&&&&&,right,sanctity.vice,uller,,,,,,,,,,,,,,,0,14,14,248,,,,,,,,,,,,,AMP,left,0.9504887461662292,0,,,,,,,,,,,,,,left,0,0.9504887461662292,,,,,,,,,,,1024,2019_Mar_06_1502,mf_amp_cond2,3.0.4,60.00531163518782,
celebrated,&&&,left,authority.virtue,mih,,,,,,,,,,,,,,,0,15,15,313,,,,,,,,,,,,,AMP,right,1.6839836586732417,0,,,,,,,,,,,,,,right,0,1.6839836586732417,,,,,,,,,,,1024,2019_Mar_06_1502,mf_amp_cond2,3.0.4,60.00531163518782,
terrorist,&&&&,right,loyalty.vice,juck,,,,,,,,,,,,,,,0,16,16,260,,,,,,,,,,,,,AMP,left,4.80142996518407,0,,,,,,,,,,,,,,left,0,4.80142996518407,,,,,,,,,,,1024,2019_Mar_06_1502,mf_amp_cond2,3.0.4,60.00531163518782,
unpleasant,&&&&&&&&,None,control,hescribe,,,,,,,,,,,,,,,0,17,17,234,,,,,,,,,,,,,AMP,right,2.3508247974095866,0,,,,,,,,,,,,,,right,0,2.3508247974095866,,,,,,,,,,,1024,2019_Mar_06_1502,mf_amp_cond2,3.0.4,60.00531163518782,
interests,&&&&&&&&&,left,fairness.virtue,unscothed,,,,,,,,,,,,,,,0,18,18,243,,,,,,,,,,,,,AMP,right,1.300533230183646,0,,,,,,,,,,,,,,right,0,1.300533230183646,,,,,,,,,,,1024,2019_Mar_06_1502,mf_amp_cond2,3.0.4,60.00531163518782,
failure,&&&&&&,right,loyalty.vice,pumber,,,,,,,,,,,,,,,0,19,19,324,,,,,,,,,,,,,AMP,right,2.467507147230208,1,,,,,,,,,,,,,,right,1,2.467507147230208,,,,,,,,,,,1024,2019_Mar_06_1502,mf_amp_cond2,3.0.4,60.00531163518782,
victim,&&&&&&&,right,care.vice,reviked,,,,,,,,,,,,,,,0,20,20,36,,,,,,,,,,,,,AMP,left,1.0338270508218557,0,,,,,,,,,,,,,,left,0,1.0338270508218557,,,,,,,,,,,1024,2019_Mar_06_1502,mf_amp_cond2,3.0.4,60.00531163518782,
credit,&&&&&&,left,fairness.virtue,fegard,,,,,,,,,,,,,,,0,21,21,301,,,,,,,,,,,,,AMP,right,6.184978534118272,0,,,,,,,,,,,,,,right,0,6.184978534118272,,,,,,,,,,,1024,2019_Mar_06_1502,mf_amp_cond2,3.0.4,60.00531163518782,
racist,&&&&&&&&,right,sanctity.vice,slending,,,,,,,,,,,,,,,0,22,22,235,,,,,,,,,,,,,AMP,left,1.1338450752664357,0,,,,,,,,,,,,,,left,0,1.1338450752664357,,,,,,,,,,,1024,2019_Mar_06_1502,mf_amp_cond2,3.0.4,60.00531163518782,
attacks,&&&&&&&&&&,right,care.vice,frocessing,,,,,,,,,,,,,,,0,23,23,10,,,,,,,,,,,,,AMP,right,2.4341749685117975,1,,,,,,,,,,,,,,right,1,2.4341749685117975,,,,,,,,,,,1024,2019_Mar_06_1502,mf_amp_cond2,3.0.4,60.00531163518782,
peace,&&&&&&&&&&,left,care.virtue,chonograph,,,,,,,,,,,,,,,0,24,24,254,,,,,,,,,,,,,AMP,right,0.4670456302119419,0,,,,,,,,,,,,,,right,0,0.4670456302119419,,,,,,,,,,,1024,2019_Mar_06_1502,mf_amp_cond2,3.0.4,60.00531163518782,
troops,&&&&&,right,loyalty.vice,pafer,,,,,,,,,,,,,,,0,25,25,27,,,,,,,,,,,,,AMP,left,2.834291967446916,0,,,,,,,,,,,,,,left,0,2.834291967446916,,,,,,,,,,,1024,2019_Mar_06_1502,mf_amp_cond2,3.0.4,60.00531163518782,
ejanulated,&&&&&&&&&,None,nonword,grovelire,,,,,,,,,,,,,,,0,26,26,252,,,,,,,,,,,,,AMP,left,0.8004552950151265,0,,,,,,,,,,,,,,left,0,0.8004552950151265,,,,,,,,,,,1024,2019_Mar_06_1502,mf_amp_cond2,3.0.4,60.00531163518782,
hand,&&&&&,left,sanctity.virtue,tabin,,,,,,,,,,,,,,,0,27,27,319,,,,,,,,,,,,,AMP,right,1.3005550391972065,0,,,,,,,,,,,,,,right,0,1.3005550391972065,,,,,,,,,,,1024,2019_Mar_06_1502,mf_amp_cond2,3.0.4,60.00531163518782,
clean,&&&&&&&&&&&&,left,sanctity.virtue,rorroborated,,,,,,,,,,,,,,,0,28,28,154,,,,,,,,,,,,,AMP,right,1.1504831014899537,0,,,,,,,,,,,,,,right,0,1.1504831014899537,,,,,,,,,,,1024,2019_Mar_06_1502,mf_amp_cond2,3.0.4,60.00531163518782,
fraud,&&&&&&&&&&&,right,fairness.vice,cromiscuity,,,,,,,,,,,,,,,0,29,29,155,,,,,,,,,,,,,AMP,left,0.45033993187826127,0,,,,,,,,,,,,,,left,0,0.45033993187826127,,,,,,,,,,,1024,2019_Mar_06_1502,mf_amp_cond2,3.0.4,60.00531163518782,
promised,&&&&&&&,left,loyalty.virtue,smapper,,,,,,,,,,,,,,,0,30,30,77,,,,,,,,,,,,,AMP,left,3.7011665892787278,1,,,,,,,,,,,,,,left,1,3.7011665892787278,,,,,,,,,,,1024,2019_Mar_06_1502,mf_amp_cond2,3.0.4,60.00531163518782,
Oregoniuns,&&&&,None,nonword,erks,,,,,,,,,,,,,,,0,31,31,142,,,,,,,,,,,,,AMP,right,1.31726522766985,0,,,,,,,,,,,,,,right,0,1.31726522766985,,,,,,,,,,,1024,2019_Mar_06_1502,mf_amp_cond2,3.0.4,60.00531163518782,
betrayal,&&&&&&&,right,loyalty.vice,nomaric,,,,,,,,,,,,,,,0,32,32,274,,,,,,,,,,,,,AMP,right,1.5339264740468934,1,,,,,,,,,,,,,,right,1,1.5339264740468934,,,,,,,,,,,1024,2019_Mar_06_1502,mf_amp_cond2,3.0.4,60.00531163518782,
suicide,&&&&&&,right,care.vice,forepo,,,,,,,,,,,,,,,0,33,33,256,,,,,,,,,,,,,AMP,left,1.3672681462485343,0,,,,,,,,,,,,,,left,0,1.3672681462485343,,,,,,,,,,,1024,2019_Mar_06_1502,mf_amp_cond2,3.0.4,60.00531163518782,
free,&&&&&,left,fairness.virtue,framo,,,,,,,,,,,,,,,0,34,34,37,,,,,,,,,,,,,AMP,right,8.018918350338936,0,,,,,,,,,,,,,,right,0,8.018918350338936,,,,,,,,,,,1024,2019_Mar_06_1502,mf_amp_cond2,3.0.4,60.00531163518782,
betrayal,&&&,right,loyalty.vice,mih,,,,,,,,,,,,,,,0,35,35,179,,,,,,,,,,,,,AMP,left,4.1179267461411655,0,,,,,,,,,,,,,,left,0,4.1179267461411655,,,,,,,,,,,1024,2019_Mar_06_1502,mf_amp_cond2,3.0.4,60.00531163518782,
threatened,&&&&&&&&,right,fairness.vice,thadowed,,,,,,,,,,,,,,,0,36,36,21,,,,,,,,,,,,,AMP,left,1.1171746561303735,0,,,,,,,,,,,,,,left,0,1.1171746561303735,,,,,,,,,,,1024,2019_Mar_06_1502,mf_amp_cond2,3.0.4,60.00531163518782,
lies,&&&&&&&&&&,right,fairness.vice,lorthwhile,,,,,,,,,,,,,,,0,37,37,204,,,,,,,,,,,,,AMP,left,0.8337910018162802,0,,,,,,,,,,,,,,left,0,0.8337910018162802,,,,,,,,,,,1024,2019_Mar_06_1502,mf_amp_cond2,3.0.4,60.00531163518782,
great,&&&&&,left,loyalty.virtue,mecan,,,,,,,,,,,,,,,0,38,38,265,,,,,,,,,,,,,AMP,left,4.634637896670029,1,,,,,,,,,,,,,,left,1,4.634637896670029,,,,,,,,,,,1024,2019_Mar_06_1502,mf_amp_cond2,3.0.4,60.00531163518782,
loyalty,&&&&&&&&&&,left,loyalty.virtue,fonderland,,,,,,,,,,,,,,,0,39,39,271,,,,,,,,,,,,,AMP,left,0.8837929582223296,1,,,,,,,,,,,,,,left,1,0.8837929582223296,,,,,,,,,,,1024,2019_Mar_06_1502,mf_amp_cond2,3.0.4,60.00531163518782,
credit,&&&&&&&&&,left,fairness.virtue,Lacedonia,,,,,,,,,,,,,,,0,40,40,207,,,,,,,,,,,,,AMP,right,0.783780065132305,0,,,,,,,,,,,,,,right,0,0.783780065132305,,,,,,,,,,,1024,2019_Mar_06_1502,mf_amp_cond2,3.0.4,60.00531163518782,
celebrated,&&&&&&&,left,authority.virtue,nackers,,,,,,,,,,,,,,,0,41,41,128,,,,,,,,,,,,,AMP,right,0.8837952031753957,0,,,,,,,,,,,,,,right,0,0.8837952031753957,,,,,,,,,,,1024,2019_Mar_06_1502,mf_amp_cond2,3.0.4,60.00531163518782,
victims,&&&&&,right,care.vice,noped,,,,,,,,,,,,,,,0,42,42,318,,,,,,,,,,,,,AMP,left,3.5177951864898205,0,,,,,,,,,,,,,,left,0,3.5177951864898205,,,,,,,,,,,1024,2019_Mar_06_1502,mf_amp_cond2,3.0.4,60.00531163518782,
police,&&&&&&&&,right,authority.vice,suggists,,,,,,,,,,,,,,,0,43,43,208,,,,,,,,,,,,,AMP,right,0.8670991264516488,1,,,,,,,,,,,,,,right,1,0.8670991264516488,,,,,,,,,,,1024,2019_Mar_06_1502,mf_amp_cond2,3.0.4,60.00531163518782,
intelligence,&&&&&&,left,loyalty.virtue,papert,,,,,,,,,,,,,,,0,44,44,177,,,,,,,,,,,,,AMP,right,0.9504890668904409,0,,,,,,,,,,,,,,right,0,0.9504890668904409,,,,,,,,,,,1024,2019_Mar_06_1502,mf_amp_cond2,3.0.4,60.00531163518782,
voter,&&&&&&&&,right,fairness.vice,slending,,,,,,,,,,,,,,,0,45,45,33,,,,,,,,,,,,,AMP,right,1.450613506603986,1,,,,,,,,,,,,,,right,1,1.450613506603986,,,,,,,,,,,1024,2019_Mar_06_1502,mf_amp_cond2,3.0.4,60.00531163518782,
lies,&&&&&,right,fairness.vice,noped,,,,,,,,,,,,,,,0,46,46,118,,,,,,,,,,,,,AMP,left,0.8004411833826452,0,,,,,,,,,,,,,,left,0,0.8004411833826452,,,,,,,,,,,1024,2019_Mar_06_1502,mf_amp_cond2,3.0.4,60.00531163518782,
victims,&&&&,right,care.vice,erks,,,,,,,,,,,,,,,0,47,47,221,,,,,,,,,,,,,AMP,right,2.6675765512045473,1,,,,,,,,,,,,,,right,1,2.6675765512045473,,,,,,,,,,,1024,2019_Mar_06_1502,mf_amp_cond2,3.0.4,60.00531163518782,
win,&&&&&&&&&&,left,fairness.virtue,imebreaker,,,,,,,,,,,,,,,0,48,48,314,,,,,,,,,,,,,AMP,left,1.6506428204011172,1,,,,,,,,,,,,,,left,1,1.6506428204011172,,,,,,,,,,,1024,2019_Mar_06_1502,mf_amp_cond2,3.0.4,60.00531163518782,
values,&&&&&&,left,sanctity.virtue,bycled,,,,,,,,,,,,,,,0,49,49,267,,,,,,,,,,,,,AMP,left,7.652148603927344,1,,,,,,,,,,,,,,left,1,7.652148603927344,,,,,,,,,,,1024,2019_Mar_06_1502,mf_amp_cond2,3.0.4,60.00531163518782,
unpleasant,&&&&&&&&,None,control,pullness,,,,,,,,,,,,,,,0,50,50,258,,,,,,,,,,,,,AMP,right,1.4505987534066662,0,,,,,,,,,,,,,,right,0,1.4505987534066662,,,,,,,,,,,1024,2019_Mar_06_1502,mf_amp_cond2,3.0.4,60.00531163518782,
terrorist,&&&&&&&&,right,loyalty.vice,hescribe,,,,,,,,,,,,,,,0,51,51,138,,,,,,,,,,,,,AMP,left,1.5839662755606696,0,,,,,,,,,,,,,,left,0,1.5839662755606696,,,,,,,,,,,1024,2019_Mar_06_1502,mf_amp_cond2,3.0.4,60.00531163518782,
support,&&&&&&&,left,loyalty.virtue,smapper,,,,,,,,,,,,,,,0,52,52,189,,,,,,,,,,,,,AMP,right,4.501357610686682,0,,,,,,,,,,,,,,right,0,4.501357610686682,,,,,,,,,,,1024,2019_Mar_06_1502,mf_amp_cond2,3.0.4,60.00531163518782,
great,&&&&&&,left,loyalty.virtue,fegard,,,,,,,,,,,,,,,0,53,53,197,,,,,,,,,,,,,AMP,right,0.5169645199785009,0,,,,,,,,,,,,,,right,0,0.5169645199785009,,,,,,,,,,,1024,2019_Mar_06_1502,mf_amp_cond2,3.0.4,60.00531163518782,
refused,&&&&&&,right,authority.vice,gazily,,,,,,,,,,,,,,,0,54,54,232,,,,,,,,,,,,,AMP,left,0.7004084057407454,0,,,,,,,,,,,,,,left,0,0.7004084057407454,,,,,,,,,,,1024,2019_Mar_06_1502,mf_amp_cond2,3.0.4,60.00531163518782,
fraud,&&&&&&&&,right,fairness.vice,proached,,,,,,,,,,,,,,,0,55,55,176,,,,,,,,,,,,,AMP,left,3.8178486184915528,0,,,,,,,,,,,,,,left,0,3.8178486184915528,,,,,,,,,,,1024,2019_Mar_06_1502,mf_amp_cond2,3.0.4,60.00531163518782,
ensure,&&&&&&&&&&,left,fairness.virtue,lorthwhile,,,,,,,,,,,,,,,0,56,56,153,,,,,,,,,,,,,AMP,right,0.9171363620553166,0,,,,,,,,,,,,,,right,0,0.9171363620553166,,,,,,,,,,,1024,2019_Mar_06_1502,mf_amp_cond2,3.0.4,60.00531163518782,
ilportation,&&&&&&&&&&,None,nonword,simplustic,,,,,,,,,,,,,,,0,57,57,9,,,,,,,,,,,,,AMP,right,0.700424762442708,0,,,,,,,,,,,,,,right,0,0.700424762442708,,,,,,,,,,,1024,2019_Mar_06_1502,mf_amp_cond2,3.0.4,60.00531163518782,
dignity,&&&&&&&&,left,sanctity.virtue,sidearbs,,,,,,,,,,,,,,,0,58,58,182,,,,,,,,,,,,,AMP,right,0.7170188500313088,0,,,,,,,,,,,,,,right,0,0.7170188500313088,,,,,,,,,,,1024,2019_Mar_06_1502,mf_amp_cond2,3.0.4,60.00531163518782,
victim,&&&&&&&&,right,care.vice,sfumatoy,,,,,,,,,,,,,,,0,59,59,268,,,,,,,,,,,,,AMP,left,0.9004617736209184,0,,,,,,,,,,,,,,left,0,0.9004617736209184,,,,,,,,,,,1024,2019_Mar_06_1502,mf_amp_cond2,3.0.4,60.00531163518782,
focomotive,&&&,None,nonword,asn,,,,,,,,,,,,,,,0,60,60,201,,,,,,,,,,,,,AMP,left,0.7004064813954756,0,,,,,,,,,,,,,,left,0,0.7004064813954756,,,,,,,,,,,1024,2019_Mar_06_1502,mf_amp_cond2,3.0.4,60.00531163518782,
protect,&&&&&,left,fairness.virtue,framo,,,,,,,,,,,,,,,0,61,61,95,,,,,,,,,,,,,AMP,left,3.4844354257220402,1,,,,,,,,,,,,,,left,1,3.4844354257220402,,,,,,,,,,,1024,2019_Mar_06_1502,mf_amp_cond2,3.0.4,60.00531163518782,
improve,&&&&&&&,left,care.virtue,allears,,,,,,,,,,,,,,,0,62,62,106,,,,,,,,,,,,,AMP,right,1.0171479722484946,0,,,,,,,,,,,,,,right,0,1.0171479722484946,,,,,,,,,,,1024,2019_Mar_06_1502,mf_amp_cond2,3.0.4,60.00531163518782,
troops,&&&&&,right,loyalty.vice,tabin,,,,,,,,,,,,,,,0,63,63,191,,,,,,,,,,,,,AMP,right,1.5005978234112263,1,,,,,,,,,,,,,,right,1,1.5005978234112263,,,,,,,,,,,1024,2019_Mar_06_1502,mf_amp_cond2,3.0.4,60.00531163518782,
neneficence,&&&&&&&&&&,None,nonword,frocessing,,,,,,,,,,,,,,,0,64,64,214,,,,,,,,,,,,,AMP,right,1.6339954931754619,0,,,,,,,,,,,,,,right,0,1.6339954931754619,,,,,,,,,,,1024,2019_Mar_06_1502,mf_amp_cond2,3.0.4,60.00531163518782,
infet,&&&&&&&&&&,None,nonword,chonograph,,,,,,,,,,,,,,,0,65,65,70,,,,,,,,,,,,,AMP,left,0.6003894190071151,0,,,,,,,,,,,,,,left,0,0.6003894190071151,,,,,,,,,,,1024,2019_Mar_06_1502,mf_amp_cond2,3.0.4,60.00531163518782,
interests,&&&&&&&&,left,fairness.virtue,suggists,,,,,,,,,,,,,,,0,66,66,100,,,,,,,,,,,,,AMP,right,0.8004245058400556,0,,,,,,,,,,,,,,right,0,0.8004245058400556,,,,,,,,,,,1024,2019_Mar_06_1502,mf_amp_cond2,3.0.4,60.00531163518782,
promised,&&&&&&&,left,loyalty.virtue,nomaric,,,,,,,,,,,,,,,0,67,67,132,,,,,,,,,,,,,AMP,right,1.267214521765709,0,,,,,,,,,,,,,,right,0,1.267214521765709,,,,,,,,,,,1024,2019_Mar_06_1502,mf_amp_cond2,3.0.4,60.00531163518782,
pistraught,&&&&&&&&,None,nonword,sidearbs,,,,,,,,,,,,,,,0,68,68,284,,,,,,,,,,,,,AMP,right,1.2005331660620868,0,,,,,,,,,,,,,,right,0,1.2005331660620868,,,,,,,,,,,1024,2019_Mar_06_1502,mf_amp_cond2,3.0.4,60.00531163518782,
support,&&&&&&&,left,loyalty.virtue,Daptist,,,,,,,,,,,,,,,0,69,69,93,,,,,,,,,,,,,AMP,left,1.4505949047161266,1,,,,,,,,,,,,,,left,1,1.4505949047161266,,,,,,,,,,,1024,2019_Mar_06_1502,mf_amp_cond2,3.0.4,60.00531163518782,
fighters,&&&&&&,right,authority.vice,openet,,,,,,,,,,,,,,,0,70,70,68,,,,,,,,,,,,,AMP,right,0.8669727623928338,1,,,,,,,,,,,,,,right,1,0.8669727623928338,,,,,,,,,,,1024,2019_Mar_06_1502,mf_amp_cond2,3.0.4,60.00531163518782,
growth,&&&&&&&&&,left,care.virtue,Lacedonia,,,,,,,,,,,,,,,0,71,71,44,,,,,,,,,,,,,AMP,left,0.8671125966357067,1,,,,,,,,,,,,,,left,1,0.8671125966357067,,,,,,,,,,,1024,2019_Mar_06_1502,mf_amp_cond2,3.0.4,60.00531163518782,
hand,&&&&&&,left,sanctity.virtue,erdest,,,,,,,,,,,,,,,0,72,72,72,,,,,,,,,,,,,AMP,right,0.8837968067964539,0,,,,,,,,,,,,,,right,0,0.8837968067964539,,,,,,,,,,,1024,2019_Mar_06_1502,mf_amp_cond2,3.0.4,60.00531163518782,
energy,&&&&&&&&&&&&&,left,sanctity.virtue,photocalkodes,,,,,,,,,,,,,,,0,73,73,209,,,,,,,,,,,,,AMP,left,2.800931885954924,1,,,,,,,,,,,,,,left,1,2.800931885954924,,,,,,,,,,,1024,2019_Mar_06_1502,mf_amp_cond2,3.0.4,60.00531163518782,
infet,&&&&&&&&&&&&,None,nonword,rorroborated,,,,,,,,,,,,,,,0,74,74,253,,,,,,,,,,,,,AMP,right,1.5172939001349732,0,,,,,,,,,,,,,,right,0,1.5172939001349732,,,,,,,,,,,1024,2019_Mar_06_1502,mf_amp_cond2,3.0.4,60.00531163518782,
corruption,&&&&&,right,sanctity.vice,pafer,,,,,,,,,,,,,,,0,75,75,103,,,,,,,,,,,,,AMP,right,2.7509469278156757,1,,,,,,,,,,,,,,right,1,2.7509469278156757,,,,,,,,,,,1024,2019_Mar_06_1502,mf_amp_cond2,3.0.4,60.00531163518782,
Oregoniuns,&&&&&&,None,nonword,bycled,,,,,,,,,,,,,,,0,76,76,237,,,,,,,,,,,,,AMP,right,0.6670720576075837,0,,,,,,,,,,,,,,right,0,0.6670720576075837,,,,,,,,,,,1024,2019_Mar_06_1502,mf_amp_cond2,3.0.4,60.00531163518782,
benefit,&&&&&&,left,fairness.virtue,pumber,,,,,,,,,,,,,,,0,77,77,233,,,,,,,,,,,,,AMP,left,2.4008338095154613,1,,,,,,,,,,,,,,left,1,2.4008338095154613,,,,,,,,,,,1024,2019_Mar_06_1502,mf_amp_cond2,3.0.4,60.00531163518782,
charges,&&&&&,right,fairness.vice,mecan,,,,,,,,,,,,,,,0,78,78,163,,,,,,,,,,,,,AMP,right,1.5506209472659975,1,,,,,,,,,,,,,,right,1,1.5506209472659975,,,,,,,,,,,1024,2019_Mar_06_1502,mf_amp_cond2,3.0.4,60.00531163518782,
great,&&&&&&&&,left,loyalty.virtue,epigrach,,,,,,,,,,,,,,,0,79,79,86,,,,,,,,,,,,,AMP,right,0.6670797548722476,0,,,,,,,,,,,,,,right,0,0.6670797548722476,,,,,,,,,,,1024,2019_Mar_06_1502,mf_amp_cond2,3.0.4,60.00531163518782,
neneficence,&&&&&&,None,nonword,erdest,,,,,,,,,,,,,,,0,80,80,159,,,,,,,,,,,,,AMP,left,0.6837520982371643,0,,,,,,,,,,,,,,left,0,0.6837520982371643,,,,,,,,,,,1024,2019_Mar_06_1502,mf_amp_cond2,3.0.4,60.00531163518782,
protect,&&&&&,left,fairness.virtue,framo,,,,,,,,,,,,,,,0,81,81,241,,,,,,,,,,,,,AMP,right,8.285621643299237,0,,,,,,,,,,,,,,right,0,8.285621643299237,,,,,,,,,,,1024,2019_Mar_06_1502,mf_amp_cond2,3.0.4,60.00531163518782,
ensure,&&&&&&&&,left,fairness.virtue,crinking,,,,,,,,,,,,,,,0,82,82,170,,,,,,,,,,,,,AMP,left,4.634732509381138,1,,,,,,,,,,,,,,left,1,4.634732509381138,,,,,,,,,,,1024,2019_Mar_06_1502,mf_amp_cond2,3.0.4,60.00531163518782,
praise,&&&&&&&&&&&,left,authority.virtue,cromiscuity,,,,,,,,,,,,,,,0,83,83,262,,,,,,,,,,,,,AMP,left,1.0338312201201916,1,,,,,,,,,,,,,,left,1,1.0338312201201916,,,,,,,,,,,1024,2019_Mar_06_1502,mf_amp_cond2,3.0.4,60.00531163518782,
refused,&&&&&&&,right,authority.vice,carvels,,,,,,,,,,,,,,,0,84,84,141,,,,,,,,,,,,,AMP,right,0.7671506982296705,1,,,,,,,,,,,,,,right,1,0.7671506982296705,,,,,,,,,,,1024,2019_Mar_06_1502,mf_amp_cond2,3.0.4,60.00531163518782,
pleasant,&&&&&&&&&&&,None,control,vicissifude,,,,,,,,,,,,,,,0,85,85,139,,,,,,,,,,,,,AMP,left,0.46700842666905373,0,,,,,,,,,,,,,,left,0,0.46700842666905373,,,,,,,,,,,1024,2019_Mar_06_1502,mf_amp_cond2,3.0.4,60.00531163518782,
pistraught,&&&&&&&&,None,nonword,hescribe,,,,,,,,,,,,,,,0,86,86,38,,,,,,,,,,,,,AMP,left,0.850478418986313,0,,,,,,,,,,,,,,left,0,0.850478418986313,,,,,,,,,,,1024,2019_Mar_06_1502,mf_amp_cond2,3.0.4,60.00531163518782,
clean,&&&&&&&&&&&,left,sanctity.virtue,cromiscuity,,,,,,,,,,,,,,,0,87,87,167,,,,,,,,,,,,,AMP,right,1.2172167346579954,0,,,,,,,,,,,,,,right,0,1.2172167346579954,,,,,,,,,,,1024,2019_Mar_06_1502,mf_amp_cond2,3.0.4,60.00531163518782,
ning,&&&&&&&,None,nonword,reviked,,,,,,,,,,,,,,,0,88,88,210,,,,,,,,,,,,,AMP,left,5.18486050888896,0,,,,,,,,,,,,,,left,0,5.18486050888896,,,,,,,,,,,1024,2019_Mar_06_1502,mf_amp_cond2,3.0.4,60.00531163518782,
lies,&&&&&&&&,right,fairness.vice,proached,,,,,,,,,,,,,,,0,89,89,5,,,,,,,,,,,,,AMP,left,0.9004441340221092,0,,,,,,,,,,,,,,left,0,0.9004441340221092,,,,,,,,,,,1024,2019_Mar_06_1502,mf_amp_cond2,3.0.4,60.00531163518782,
gun,&&&&&&&,right,authority.vice,baklara,,,,,,,,,,,,,,,0,90,90,120,,,,,,,,,,,,,AMP,left,0.9004678673809394,0,,,,,,,,,,,,,,left,0,0.9004678673809394,,,,,,,,,,,1024,2019_Mar_06_1502,mf_amp_cond2,3.0.4,60.00531163518782,
protesters,&&&&&&&&&,right,authority.vice,tomedians,,,,,,,,,,,,,,,0,91,91,16,,,,,,,,,,,,,AMP,left,3.8011852554045618,0,,,,,,,,,,,,,,left,0,3.8011852554045618,,,,,,,,,,,1024,2019_Mar_06_1502,mf_amp_cond2,3.0.4,60.00531163518782,
victim,&&&,right,care.vice,mih,,,,,,,,,,,,,,,0,92,92,152,,,,,,,,,,,,,AMP,right,0.8171058294828981,1,,,,,,,,,,,,,,right,1,0.8171058294828981,,,,,,,,,,,1024,2019_Mar_06_1502,mf_amp_cond2,3.0.4,60.00531163518782,
fear,&&&&&&&&,right,sanctity.vice,crinking,,,,,,,,,,,,,,,0,93,93,12,,,,,,,,,,,,,AMP,left,2.000740223331377,0,,,,,,,,,,,,,,left,0,2.000740223331377,,,,,,,,,,,1024,2019_Mar_06_1502,mf_amp_cond2,3.0.4,60.00531163518782,
good,&&&&&&&,left,care.virtue,reviked,,,,,,,,,,,,,,,0,94,94,272,,,,,,,,,,,,,AMP,right,0.8671241425909102,0,,,,,,,,,,,,,,right,0,0.8671241425909102,,,,,,,,,,,1024,2019_Mar_06_1502,mf_amp_cond2,3.0.4,60.00531163518782,
failure,&&&&,right,loyalty.vice,juck,,,,,,,,,,,,,,,0,95,95,230,,,,,,,,,,,,,AMP,left,1.9507161371875554,0,,,,,,,,,,,,,,left,0,1.9507161371875554,,,,,,,,,,,1024,2019_Mar_06_1502,mf_amp_cond2,3.0.4,60.00531163518782,
unpleasant,&&&&&,None,control,scock,,,,,,,,,,,,,,,0,96,96,117,,,,,,,,,,,,,AMP,left,0.7837608219124377,0,,,,,,,,,,,,,,left,0,0.7837608219124377,,,,,,,,,,,1024,2019_Mar_06_1502,mf_amp_cond2,3.0.4,60.00531163518782,
conspiracy,&&&&&&&&&,right,sanctity.vice,gaultless,,,,,,,,,,,,,,,0,97,97,215,,,,,,,,,,,,,AMP,right,1.8506955469492823,1,,,,,,,,,,,,,,right,1,1.8506955469492823,,,,,,,,,,,1024,2019_Mar_06_1502,mf_amp_cond2,3.0.4,60.00531163518782,
threatened,&&&&&&&&,right,fairness.vice,gowlands,,,,,,,,,,,,,,,0,98,98,87,,,,,,,,,,,,,AMP,right,4.734782605897635,1,,,,,,,,,,,,,,right,1,4.734782605897635,,,,,,,,,,,1024,2019_Mar_06_1502,mf_amp_cond2,3.0.4,60.00531163518782,
police,&&&&&&&&&,right,authority.vice,reprisols,,,,,,,,,,,,,,,0,99,99,157,,,,,,,,,,,,,AMP,right,0.9838424132904038,1,,,,,,,,,,,,,,right,1,0.9838424132904038,,,,,,,,,,,1024,2019_Mar_06_1502,mf_amp_cond2,3.0.4,60.00531163518782,
groups,&&&&&&&,right,loyalty.vice,nackers,,,,,,,,,,,,,,,0,100,100,18,,,,,,,,,,,,,AMP,left,1.0171643289504573,0,,,,,,,,,,,,,,left,0,1.0171643289504573,,,,,,,,,,,1024,2019_Mar_06_1502,mf_amp_cond2,3.0.4,60.00531163518782,
Oregoniuns,&&&&&&&&&&&&,None,nonword,rorroborated,,,,,,,,,,,,,,,0,101,101,73,,,,,,,,,,,,,AMP,left,3.6511578978970647,0,,,,,,,,,,,,,,left,0,3.6511578978970647,,,,,,,,,,,1024,2019_Mar_06_1502,mf_amp_cond2,3.0.4,60.00531163518782,
good,&&&&&&&,left,care.virtue,nomaric,,,,,,,,,,,,,,,0,102,102,2,,,,,,,,,,,,,AMP,right,1.967397460830398,0,,,,,,,,,,,,,,right,0,1.967397460830398,,,,,,,,,,,1024,2019_Mar_06_1502,mf_amp_cond2,3.0.4,60.00531163518782,
abuse,&&&&,right,sanctity.vice,alar,,,,,,,,,,,,,,,0,103,103,203,,,,,,,,,,,,,AMP,left,0.6504234474850819,0,,,,,,,,,,,,,,left,0,0.6504234474850819,,,,,,,,,,,1024,2019_Mar_06_1502,mf_amp_cond2,3.0.4,60.00531163518782,
honored,&&&&&&,left,authority.virtue,antral,,,,,,,,,,,,,,,0,104,104,136,,,,,,,,,,,,,AMP,left,3.4511106236604974,1,,,,,,,,,,,,,,left,1,3.4511106236604974,,,,,,,,,,,1024,2019_Mar_06_1502,mf_amp_cond2,3.0.4,60.00531163518782,
drug,&&&&&&&&&,right,sanctity.vice,gillipede,,,,,,,,,,,,,,,0,105,105,55,,,,,,,,,,,,,AMP,right,0.9338067811913788,1,,,,,,,,,,,,,,right,1,0.9338067811913788,,,,,,,,,,,1024,2019_Mar_06_1502,mf_amp_cond2,3.0.4,60.00531163518782,
praise,&&&&&&&&&,left,authority.virtue,grovelire,,,,,,,,,,,,,,,0,106,106,145,,,,,,,,,,,,,AMP,left,0.6170550273964182,1,,,,,,,,,,,,,,left,1,0.6170550273964182,,,,,,,,,,,1024,2019_Mar_06_1502,mf_amp_cond2,3.0.4,60.00531163518782,
peaceful,&&&&&&&&&&,left,authority.virtue,simplustic,,,,,,,,,,,,,,,0,107,107,172,,,,,,,,,,,,,AMP,right,0.717074976186268,0,,,,,,,,,,,,,,right,0,0.717074976186268,,,,,,,,,,,1024,2019_Mar_06_1502,mf_amp_cond2,3.0.4,60.00531163518782,
protesters,&&&&&&&,right,authority.vice,menizen,,,,,,,,,,,,,,,0,108,108,309,,,,,,,,,,,,,AMP,right,0.6670964322984219,1,,,,,,,,,,,,,,right,1,0.6670964322984219,,,,,,,,,,,1024,2019_Mar_06_1502,mf_amp_cond2,3.0.4,60.00531163518782,
win,&&&&&&&&&,left,fairness.virtue,gaultless,,,,,,,,,,,,,,,0,109,109,83,,,,,,,,,,,,,AMP,right,2.434296521707438,0,,,,,,,,,,,,,,right,0,2.434296521707438,,,,,,,,,,,1024,2019_Mar_06_1502,mf_amp_cond2,3.0.4,60.00531163518782,
pleasant,&&&&&&&&&,None,control,grovelire,,,,,,,,,,,,,,,0,110,110,65,,,,,,,,,,,,,AMP,left,0.6337257671402767,0,,,,,,,,,,,,,,left,0,0.6337257671402767,,,,,,,,,,,1024,2019_Mar_06_1502,mf_amp_cond2,3.0.4,60.00531163518782,
scandal,&&&&&&&&&&,right,sanctity.vice,imebreaker,,,,,,,,,,,,,,,0,111,111,4,,,,,,,,,,,,,AMP,left,2.8842868680367246,0,,,,,,,,,,,,,,left,0,2.8842868680367246,,,,,,,,,,,1024,2019_Mar_06_1502,mf_amp_cond2,3.0.4,60.00531163518782,
sharing,&&&&&&&&&&&,left,loyalty.virtue,egpeditious,,,,,,,,,,,,,,,0,112,112,225,,,,,,,,,,,,,AMP,right,1.150516456575133,0,,,,,,,,,,,,,,right,0,1.150516456575133,,,,,,,,,,,1024,2019_Mar_06_1502,mf_amp_cond2,3.0.4,60.00531163518782,
dignity,&&&,left,sanctity.virtue,asn,,,,,,,,,,,,,,,0,113,113,81,,,,,,,,,,,,,AMP,right,1.850694905500859,0,,,,,,,,,,,,,,right,0,1.850694905500859,,,,,,,,,,,1024,2019_Mar_06_1502,mf_amp_cond2,3.0.4,60.00531163518782,
rejected,&&&&&&&&&&&,right,authority.vice,cromiscuity,,,,,,,,,,,,,,,0,114,114,46,,,,,,,,,,,,,AMP,left,1.100494294660166,0,,,,,,,,,,,,,,left,0,1.100494294660166,,,,,,,,,,,1024,2019_Mar_06_1502,mf_amp_cond2,3.0.4,60.00531163518782,
celebrated,&&&&&&&&,left,authority.virtue,lachelor,,,,,,,,,,,,,,,0,115,115,228,,,,,,,,,,,,,AMP,left,1.3505682207178324,1,,,,,,,,,,,,,,left,1,1.3505682207178324,,,,,,,,,,,1024,2019_Mar_06_1502,mf_amp_cond2,3.0.4,60.00531163518782,
values,&&&&&&&,left,sanctity.virtue,troubla,,,,,,,,,,,,,,,0,116,116,213,,,,,,,,,,,,,AMP,right,0.5836885315366089,0,,,,,,,,,,,,,,right,0,0.5836885315366089,,,,,,,,,,,1024,2019_Mar_06_1502,mf_amp_cond2,3.0.4,60.00531163518782,
illegal,&&&&&&,right,fairness.vice,squets,,,,,,,,,,,,,,,0,117,117,85,,,,,,,,,,,,,AMP,right,1.700651512015611,1,,,,,,,,,,,,,,right,1,1.700651512015611,,,,,,,,,,,1024,2019_Mar_06_1502,mf_amp_cond2,3.0.4,60.00531163518782,
embrace,&&&&&&&&&,left,authority.virtue,refuejing,,,,,,,,,,,,,,,0,118,118,293,,,,,,,,,,,,,AMP,left,1.7006595300044864,1,,,,,,,,,,,,,,left,1,1.7006595300044864,,,,,,,,,,,1024,2019_Mar_06_1502,mf_amp_cond2,3.0.4,60.00531163518782,
drug,&&&&&&&,right,sanctity.vice,nackers,,,,,,,,,,,,,,,0,119,119,222,,,,,,,,,,,,,AMP,left,3.0676682131597772,0,,,,,,,,,,,,,,left,0,3.0676682131597772,,,,,,,,,,,1024,2019_Mar_06_1502,mf_amp_cond2,3.0.4,60.00531163518782,
prosecution,&&&&&&&&,right,authority.vice,sliptery,,,,,,,,,,,,,,,0,120,120,196,,,,,,,,,,,,,AMP,left,1.68399328016676,0,,,,,,,,,,,,,,left,0,1.68399328016676,,,,,,,,,,,1024,2019_Mar_06_1502,mf_amp_cond2,3.0.4,60.00531163518782,
pleasant,&&&&&&,None,control,greaks,,,,,,,,,,,,,,,0,121,121,175,,,,,,,,,,,,,AMP,left,1.6173176976153627,0,,,,,,,,,,,,,,left,0,1.6173176976153627,,,,,,,,,,,1024,2019_Mar_06_1502,mf_amp_cond2,3.0.4,60.00531163518782,
support,&&&,left,loyalty.virtue,asn,,,,,,,,,,,,,,,0,122,122,282,,,,,,,,,,,,,AMP,left,2.7675955379381776,1,,,,,,,,,,,,,,left,1,2.7675955379381776,,,,,,,,,,,1024,2019_Mar_06_1502,mf_amp_cond2,3.0.4,60.00531163518782,
growth,&&&&&&&&&&&&,left,care.virtue,feleological,,,,,,,,,,,,,,,0,123,123,198,,,,,,,,,,,,,AMP,right,0.3836598589550704,0,,,,,,,,,,,,,,right,0,0.3836598589550704,,,,,,,,,,,1024,2019_Mar_06_1502,mf_amp_cond2,3.0.4,60.00531163518782,
ejanulated,&&&&,None,nonword,erks,,,,,,,,,,,,,,,0,124,124,67,,,,,,,,,,,,,AMP,right,0.6837354209274054,0,,,,,,,,,,,,,,right,0,0.6837354209274054,,,,,,,,,,,1024,2019_Mar_06_1502,mf_amp_cond2,3.0.4,60.00531163518782,
values,&&&&&&&&&,left,sanctity.virtue,tomedians,,,,,,,,,,,,,,,0,125,125,130,,,,,,,,,,,,,AMP,right,0.5337218544445932,0,,,,,,,,,,,,,,right,0,0.5337218544445932,,,,,,,,,,,1024,2019_Mar_06_1502,mf_amp_cond2,3.0.4,60.00531163518782,
honored,&&&&&&&,left,authority.virtue,troubla,,,,,,,,,,,,,,,0,126,126,298,,,,,,,,,,,,,AMP,right,0.8671494795707986,0,,,,,,,,,,,,,,right,0,0.8671494795707986,,,,,,,,,,,1024,2019_Mar_06_1502,mf_amp_cond2,3.0.4,60.00531163518782,
ejanulated,&&&&&&&&,None,nonword,gowlands,,,,,,,,,,,,,,,0,127,127,190,,,,,,,,,,,,,AMP,left,0.9504688614979386,0,,,,,,,,,,,,,,left,0,0.9504688614979386,,,,,,,,,,,1024,2019_Mar_06_1502,mf_amp_cond2,3.0.4,60.00531163518782,
police,&&&&,right,authority.vice,alar,,,,,,,,,,,,,,,0,128,128,30,,,,,,,,,,,,,AMP,right,1.317245663725771,1,,,,,,,,,,,,,,right,1,1.317245663725771,,,,,,,,,,,1024,2019_Mar_06_1502,mf_amp_cond2,3.0.4,60.00531163518782,
celebrated,&&&&&&&&&,left,authority.virtue,baladroit,,,,,,,,,,,,,,,0,129,129,78,,,,,,,,,,,,,AMP,right,1.1171765804756433,0,,,,,,,,,,,,,,right,0,1.1171765804756433,,,,,,,,,,,1024,2019_Mar_06_1502,mf_amp_cond2,3.0.4,60.00531163518782,
growth,&&&&&,left,care.virtue,tabin,,,,,,,,,,,,,,,0,130,130,158,,,,,,,,,,,,,AMP,right,1.4672957924194634,0,,,,,,,,,,,,,,right,0,1.4672957924194634,,,,,,,,,,,1024,2019_Mar_06_1502,mf_amp_cond2,3.0.4,60.00531163518782,
men,&&&&&&&&&,right,loyalty.vice,Lacedonia,,,,,,,,,,,,,,,0,131,131,134,,,,,,,,,,,,,AMP,left,3.234378177090548,0,,,,,,,,,,,,,,left,0,3.234378177090548,,,,,,,,,,,1024,2019_Mar_06_1502,mf_amp_cond2,3.0.4,60.00531163518782,
racist,&&&&&&,right,sanctity.vice,papert,,,,,,,,,,,,,,,0,132,132,13,,,,,,,,,,,,,AMP,left,1.5006051998352632,0,,,,,,,,,,,,,,left,0,1.5006051998352632,,,,,,,,,,,1024,2019_Mar_06_1502,mf_amp_cond2,3.0.4,60.00531163518782,
men,&&&&&&,right,loyalty.vice,antral,,,,,,,,,,,,,,,0,133,133,306,,,,,,,,,,,,,AMP,left,1.4672733418410644,0,,,,,,,,,,,,,,left,0,1.4672733418410644,,,,,,,,,,,1024,2019_Mar_06_1502,mf_amp_cond2,3.0.4,60.00531163518782,
energy,&&&&&&&&&&&&&,left,sanctity.virtue,photocalkodes,,,,,,,,,,,,,,,0,134,134,49,,,,,,,,,,,,,AMP,right,0.8004382968647406,0,,,,,,,,,,,,,,right,0,0.8004382968647406,,,,,,,,,,,1024,2019_Mar_06_1502,mf_amp_cond2,3.0.4,60.00531163518782,
peaceful,&&&&&&&,left,authority.virtue,baklara,,,,,,,,,,,,,,,0,135,135,63,,,,,,,,,,,,,AMP,right,6.9686408947454765,0,,,,,,,,,,,,,,right,0,6.9686408947454765,,,,,,,,,,,1024,2019_Mar_06_1502,mf_amp_cond2,3.0.4,60.00531163518782,
improve,&&&&&,left,care.virtue,pulge,,,,,,,,,,,,,,,0,136,136,257,,,,,,,,,,,,,AMP,right,13.48695725237485,0,,,,,,,,,,,,,,right,0,13.48695725237485,,,,,,,,,,,1024,2019_Mar_06_1502,mf_amp_cond2,3.0.4,60.00531163518782,
illegal,&&&&&&&&&&&&,right,fairness.vice,feleological,,,,,,,,,,,,,,,0,137,137,296,,,,,,,,,,,,,AMP,right,1.9507305696606636,1,,,,,,,,,,,,,,right,1,1.9507305696606636,,,,,,,,,,,1024,2019_Mar_06_1502,mf_amp_cond2,3.0.4,60.00531163518782,
energy,&&&&&&,left,sanctity.virtue,gikely,,,,,,,,,,,,,,,0,138,138,137,,,,,,,,,,,,,AMP,left,0.8171077538281679,1,,,,,,,,,,,,,,left,1,0.8171077538281679,,,,,,,,,,,1024,2019_Mar_06_1502,mf_amp_cond2,3.0.4,60.00531163518782,
shot,&&&&&&,right,care.vice,squets,,,,,,,,,,,,,,,0,139,139,53,,,,,,,,,,,,,AMP,left,2.03409068309702,0,,,,,,,,,,,,,,left,0,2.03409068309702,,,,,,,,,,,1024,2019_Mar_06_1502,mf_amp_cond2,3.0.4,60.00531163518782,
peace,&&&&&&&&,left,care.virtue,proached,,,,,,,,,,,,,,,0,140,140,115,,,,,,,,,,,,,AMP,right,1.3505707866279408,0,,,,,,,,,,,,,,right,0,1.3505707866279408,,,,,,,,,,,1024,2019_Mar_06_1502,mf_amp_cond2,3.0.4,60.00531163518782,
prosecution,&&&&&&&,right,authority.vice,baklara,,,,,,,,,,,,,,,0,141,141,323,,,,,,,,,,,,,AMP,left,0.8337640612153336,0,,,,,,,,,,,,,,left,0,0.8337640612153336,,,,,,,,,,,1024,2019_Mar_06_1502,mf_amp_cond2,3.0.4,60.00531163518782,
good,&&&&,left,care.virtue,wump,,,,,,,,,,,,,,,0,142,142,169,,,,,,,,,,,,,AMP,left,1.9507167786359787,1,,,,,,,,,,,,,,left,1,1.9507167786359787,,,,,,,,,,,1024,2019_Mar_06_1502,mf_amp_cond2,3.0.4,60.00531163518782,
fear,&&&&&&,right,sanctity.vice,papert,,,,,,,,,,,,,,,0,143,143,119,,,,,,,,,,,,,AMP,left,0.833776569343172,0,,,,,,,,,,,,,,left,0,0.833776569343172,,,,,,,,,,,1024,2019_Mar_06_1502,mf_amp_cond2,3.0.4,60.00531163518782,
compassion,&&&&&&&&,left,care.virtue,thadowed,,,,,,,,,,,,,,,0,144,144,178,,,,,,,,,,,,,AMP,left,1.1838515216950327,1,,,,,,,,,,,,,,left,1,1.1838515216950327,,,,,,,,,,,1024,2019_Mar_06_1502,mf_amp_cond2,3.0.4,60.00531163518782,
groups,&&&&&&&&&,right,loyalty.vice,gillipede,,,,,,,,,,,,,,,0,145,145,216,,,,,,,,,,,,,AMP,left,0.9838222078979015,0,,,,,,,,,,,,,,left,0,0.9838222078979015,,,,,,,,,,,1024,2019_Mar_06_1502,mf_amp_cond2,3.0.4,60.00531163518782,
fighters,&&&&&&&&&,right,authority.vice,baladroit,,,,,,,,,,,,,,,0,146,146,242,,,,,,,,,,,,,AMP,right,2.5175389306386933,1,,,,,,,,,,,,,,right,1,2.5175389306386933,,,,,,,,,,,1024,2019_Mar_06_1502,mf_amp_cond2,3.0.4,60.00531163518782,
accused,&&&&&&&,right,fairness.vice,menizen,,,,,,,,,,,,,,,0,147,147,57,,,,,,,,,,,,,AMP,left,0.8004585022572428,0,,,,,,,,,,,,,,left,0,0.8004585022572428,,,,,,,,,,,1024,2019_Mar_06_1502,mf_amp_cond2,3.0.4,60.00531163518782,
charges,&&&&&&&,right,fairness.vice,vurtain,,,,,,,,,,,,,,,0,148,148,224,,,,,,,,,,,,,AMP,right,1.1005167451221496,1,,,,,,,,,,,,,,right,1,1.1005167451221496,,,,,,,,,,,1024,2019_Mar_06_1502,mf_amp_cond2,3.0.4,60.00531163518782,
support,&&&&&&&&&&,left,loyalty.virtue,lorthwhile,,,,,,,,,,,,,,,0,149,149,20,,,,,,,,,,,,,AMP,right,1.0504823959199712,0,,,,,,,,,,,,,,right,0,1.0504823959199712,,,,,,,,,,,1024,2019_Mar_06_1502,mf_amp_cond2,3.0.4,60.00531163518782,
victim,&&&&&&&&&,right,care.vice,brotesque,,,,,,,,,,,,,,,0,150,150,174,,,,,,,,,,,,,AMP,right,1.6506498763337731,1,,,,,,,,,,,,,,right,1,1.6506498763337731,,,,,,,,,,,1024,2019_Mar_06_1502,mf_amp_cond2,3.0.4,60.00531163518782,
metibolic,&&&&&&&&&,None,nonword,Lacedonia,,,,,,,,,,,,,,,0,151,151,294,,,,,,,,,,,,,AMP,left,1.017159518203698,0,,,,,,,,,,,,,,left,0,1.017159518203698,,,,,,,,,,,1024,2019_Mar_06_1502,mf_amp_cond2,3.0.4,60.00531163518782,
praise,&&&&&&&&&&&,left,authority.virtue,ronviolence,,,,,,,,,,,,,,,0,152,152,64,,,,,,,,,,,,,AMP,left,10.85294540238101,1,,,,,,,,,,,,,,left,1,10.85294540238101,,,,,,,,,,,1024,2019_Mar_06_1502,mf_amp_cond2,3.0.4,60.00531163518782,
illegal,&&&&&&&&&&,right,fairness.vice,imebreaker,,,,,,,,,,,,,,,0,153,153,187,,,,,,,,,,,,,AMP,left,2.234169708681293,0,,,,,,,,,,,,,,left,0,2.234169708681293,,,,,,,,,,,1024,2019_Mar_06_1502,mf_amp_cond2,3.0.4,60.00531163518782,
loyalty,&&&&&&&&&&,left,loyalty.virtue,frojecting,,,,,,,,,,,,,,,0,154,154,186,,,,,,,,,,,,,AMP,right,0.6169068544404581,0,,,,,,,,,,,,,,right,0,0.6169068544404581,,,,,,,,,,,1024,2019_Mar_06_1502,mf_amp_cond2,3.0.4,60.00531163518782,
clean,&&&&&&&&&&,left,sanctity.virtue,frojecting,,,,,,,,,,,,,,,0,155,155,302,,,,,,,,,,,,,AMP,left,1.884037668001838,1,,,,,,,,,,,,,,left,1,1.884037668001838,,,,,,,,,,,1024,2019_Mar_06_1502,mf_amp_cond2,3.0.4,60.00531163518782,
intelligence,&&&&&&&&&&&&,left,loyalty.virtue,feleological,,,,,,,,,,,,,,,0,156,156,98,,,,,,,,,,,,,AMP,left,5.068173027480952,1,,,,,,,,,,,,,,left,1,5.068173027480952,,,,,,,,,,,1024,2019_Mar_06_1502,mf_amp_cond2,3.0.4,60.00531163518782,
conspiracy,&&&&&&,right,sanctity.vice,antral,,,,,,,,,,,,,,,0,157,157,24,,,,,,,,,,,,,AMP,right,1.2672273505013436,1,,,,,,,,,,,,,,right,1,1.2672273505013436,,,,,,,,,,,1024,2019_Mar_06_1502,mf_amp_cond2,3.0.4,60.00531163518782,
neneficence,&&&&&&&&&,None,nonword,brotesque,,,,,,,,,,,,,,,0,158,158,311,,,,,,,,,,,,,AMP,right,0.5337237786734477,0,,,,,,,,,,,,,,right,0,0.5337237786734477,,,,,,,,,,,1024,2019_Mar_06_1502,mf_amp_cond2,3.0.4,60.00531163518782,
promised,&&&&&&&&&&&,left,loyalty.virtue,egpeditious,,,,,,,,,,,,,,,0,159,159,295,,,,,,,,,,,,,AMP,left,2.050744104082696,1,,,,,,,,,,,,,,left,1,2.050744104082696,,,,,,,,,,,1024,2019_Mar_06_1502,mf_amp_cond2,3.0.4,60.00531163518782,
conspiracy,&&&&,right,sanctity.vice,alar,,,,,,,,,,,,,,,0,160,160,303,,,,,,,,,,,,,AMP,right,2.1341058211401105,1,,,,,,,,,,,,,,right,1,2.1341058211401105,,,,,,,,,,,1024,2019_Mar_06_1502,mf_amp_cond2,3.0.4,60.00531163518782,
benefit,&&&&&&&,left,fairness.virtue,menizen,,,,,,,,,,,,,,,0,161,161,97,,,,,,,,,,,,,AMP,right,15.003981426474638,0,,,,,,,,,,,,,,right,0,15.003981426474638,,,,,,,,,,,1024,2019_Mar_06_1502,mf_amp_cond2,3.0.4,60.00531163518782,
progress,&&&&&&&&&&&,left,authority.virtue,precificity,,,,,,,,,,,,,,,0,162,162,321,,,,,,,,,,,,,AMP,right,0.8170994151150808,0,,,,,,,,,,,,,,right,0,0.8170994151150808,,,,,,,,,,,1024,2019_Mar_06_1502,mf_amp_cond2,3.0.4,60.00531163518782,
rejected,&&&&&&&&,right,authority.vice,hescribe,,,,,,,,,,,,,,,0,163,163,259,,,,,,,,,,,,,AMP,right,0.9838138691848144,1,,,,,,,,,,,,,,right,1,0.9838138691848144,,,,,,,,,,,1024,2019_Mar_06_1502,mf_amp_cond2,3.0.4,60.00531163518782,
ban,&&&&&&&&,right,loyalty.vice,suggists,,,,,,,,,,,,,,,0,164,164,23,,,,,,,,,,,,,AMP,left,1.7506746359867975,0,,,,,,,,,,,,,,left,0,1.7506746359867975,,,,,,,,,,,1024,2019_Mar_06_1502,mf_amp_cond2,3.0.4,60.00531163518782,
benefit,&&&&&&&&&,left,fairness.virtue,reprisols,,,,,,,,,,,,,,,0,165,165,40,,,,,,,,,,,,,AMP,right,0.6504035628167912,0,,,,,,,,,,,,,,right,0,0.6504035628167912,,,,,,,,,,,1024,2019_Mar_06_1502,mf_amp_cond2,3.0.4,60.00531163518782,
violence,&&&&&&&&&,right,care.vice,gillipede,,,,,,,,,,,,,,,0,166,166,121,,,,,,,,,,,,,AMP,right,1.083840232458897,1,,,,,,,,,,,,,,right,1,1.083840232458897,,,,,,,,,,,1024,2019_Mar_06_1502,mf_amp_cond2,3.0.4,60.00531163518782,
great,&&&&&&&,left,loyalty.virtue,vurtain,,,,,,,,,,,,,,,0,167,167,14,,,,,,,,,,,,,AMP,right,0.5503759166458622,0,,,,,,,,,,,,,,right,0,0.5503759166458622,,,,,,,,,,,1024,2019_Mar_06_1502,mf_amp_cond2,3.0.4,60.00531163518782,
corruption,&&&&&&&,right,sanctity.vice,carvels,,,,,,,,,,,,,,,0,168,168,50,,,,,,,,,,,,,AMP,left,0.8004248265642673,0,,,,,,,,,,,,,,left,0,0.8004248265642673,,,,,,,,,,,1024,2019_Mar_06_1502,mf_amp_cond2,3.0.4,60.00531163518782,
betrayal,&&&&&&,right,loyalty.vice,forepo,,,,,,,,,,,,,,,0,169,169,11,,,,,,,,,,,,,AMP,right,1.5839797458611429,1,,,,,,,,,,,,,,right,1,1.5839797458611429,,,,,,,,,,,1024,2019_Mar_06_1502,mf_amp_cond2,3.0.4,60.00531163518782,
commitment,&&&&&&&&&&,left,sanctity.virtue,clattening,,,,,,,,,,,,,,,0,170,170,229,,,,,,,,,,,,,AMP,right,0.950468540773727,0,,,,,,,,,,,,,,right,0,0.950468540773727,,,,,,,,,,,1024,2019_Mar_06_1502,mf_amp_cond2,3.0.4,60.00531163518782,
health,&&&&&,left,care.virtue,noped,,,,,,,,,,,,,,,0,171,171,52,,,,,,,,,,,,,AMP,left,1.2670807811664417,1,,,,,,,,,,,,,,left,1,1.2670807811664417,,,,,,,,,,,1024,2019_Mar_06_1502,mf_amp_cond2,3.0.4,60.00531163518782,
attacks,&&&&&&&&&&,right,care.vice,frocessing,,,,,,,,,,,,,,,0,172,172,322,,,,,,,,,,,,,AMP,left,2.817610964528285,0,,,,,,,,,,,,,,left,0,2.817610964528285,,,,,,,,,,,1024,2019_Mar_06_1502,mf_amp_cond2,3.0.4,60.00531163518782,
terrorist,&&&&&&&,right,loyalty.vice,nomaric,,,,,,,,,,,,,,,0,173,173,168,,,,,,,,,,,,,AMP,left,3.651159180677496,0,,,,,,,,,,,,,,left,0,3.651159180677496,,,,,,,,,,,1024,2019_Mar_06_1502,mf_amp_cond2,3.0.4,60.00531163518782,
ensure,&&&&&&&&,left,fairness.virtue,proached,,,,,,,,,,,,,,,0,174,174,297,,,,,,,,,,,,,AMP,left,2.2674624387873337,1,,,,,,,,,,,,,,left,1,2.2674624387873337,,,,,,,,,,,1024,2019_Mar_06_1502,mf_amp_cond2,3.0.4,60.00531163518782,
energy,&&&&&&&&&,left,sanctity.virtue,unscothed,,,,,,,,,,,,,,,0,175,175,317,,,,,,,,,,,,,AMP,right,1.0171550280647352,0,,,,,,,,,,,,,,right,0,1.0171550280647352,,,,,,,,,,,1024,2019_Mar_06_1502,mf_amp_cond2,3.0.4,60.00531163518782,
ning,&&&&&&&&,None,nonword,sfumatoy,,,,,,,,,,,,,,,0,176,176,99,,,,,,,,,,,,,AMP,right,2.0507460283115506,0,,,,,,,,,,,,,,right,0,2.0507460283115506,,,,,,,,,,,1024,2019_Mar_06_1502,mf_amp_cond2,3.0.4,60.00531163518782,
rejected,&&&&&&&&&&,right,authority.vice,imebreaker,,,,,,,,,,,,,,,0,177,177,102,,,,,,,,,,,,,AMP,left,1.7339458456262946,0,,,,,,,,,,,,,,left,0,1.7339458456262946,,,,,,,,,,,1024,2019_Mar_06_1502,mf_amp_cond2,3.0.4,60.00531163518782,
progress,&&&&&&&&,left,authority.virtue,pullness,,,,,,,,,,,,,,,0,178,178,79,,,,,,,,,,,,,AMP,right,0.9171402107458562,0,,,,,,,,,,,,,,right,0,0.9171402107458562,,,,,,,,,,,1024,2019_Mar_06_1502,mf_amp_cond2,3.0.4,60.00531163518782,
love,&&&&&&&&&,left,loyalty.virtue,refuejing,,,,,,,,,,,,,,,0,179,179,92,,,,,,,,,,,,,AMP,right,2.1507861824939027,0,,,,,,,,,,,,,,right,0,2.1507861824939027,,,,,,,,,,,1024,2019_Mar_06_1502,mf_amp_cond2,3.0.4,60.00531163518782,
rejected,&&&&&&&&&&&&,right,authority.vice,rorroborated,,,,,,,,,,,,,,,0,180,180,223,,,,,,,,,,,,,AMP,right,1.834058482781984,1,,,,,,,,,,,,,,right,1,1.834058482781984,,,,,,,,,,,1024,2019_Mar_06_1502,mf_amp_cond2,3.0.4,60.00531163518782,
ning,&&&&&&&&&,None,nonword,reprisols,,,,,,,,,,,,,,,0,181,181,261,,,,,,,,,,,,,AMP,right,1.8673778326483443,0,,,,,,,,,,,,,,right,0,1.8673778326483443,,,,,,,,,,,1024,2019_Mar_06_1502,mf_amp_cond2,3.0.4,60.00531163518782,
progress,&&&&&&&&,left,authority.virtue,pullness,,,,,,,,,,,,,,,0,182,182,144,,,,,,,,,,,,,AMP,right,1.1338623941410333,0,,,,,,,,,,,,,,right,0,1.1338623941410333,,,,,,,,,,,1024,2019_Mar_06_1502,mf_amp_cond2,3.0.4,60.00531163518782,
compassion,&&&&&&&&&,left,care.virtue,unscothed,,,,,,,,,,,,,,,0,183,183,84,,,,,,,,,,,,,AMP,left,0.5837186792632565,1,,,,,,,,,,,,,,left,1,0.5837186792632565,,,,,,,,,,,1024,2019_Mar_06_1502,mf_amp_cond2,3.0.4,60.00531163518782,
loyalty,&&&&&&,left,loyalty.virtue,bycled,,,,,,,,,,,,,,,0,184,184,161,,,,,,,,,,,,,AMP,right,1.4172588773071766,0,,,,,,,,,,,,,,right,0,1.4172588773071766,,,,,,,,,,,1024,2019_Mar_06_1502,mf_amp_cond2,3.0.4,60.00531163518782,
metibolic,&&&&&&,None,nonword,prones,,,,,,,,,,,,,,,0,185,185,114,,,,,,,,,,,,,AMP,right,2.500847664778121,0,,,,,,,,,,,,,,right,0,2.500847664778121,,,,,,,,,,,1024,2019_Mar_06_1502,mf_amp_cond2,3.0.4,60.00531163518782,
improve,&&&&&&&&&,left,care.virtue,tomedians,,,,,,,,,,,,,,,0,186,186,192,,,,,,,,,,,,,AMP,right,1.233842573594302,0,,,,,,,,,,,,,,right,0,1.233842573594302,,,,,,,,,,,1024,2019_Mar_06_1502,mf_amp_cond2,3.0.4,60.00531163518782,
attacks,&&&&&&&,right,care.vice,carvels,,,,,,,,,,,,,,,0,187,187,218,,,,,,,,,,,,,AMP,left,0.8338432791642845,0,,,,,,,,,,,,,,left,0,0.8338432791642845,,,,,,,,,,,1024,2019_Mar_06_1502,mf_amp_cond2,3.0.4,60.00531163518782,
health,&&&&&&&&&,left,care.virtue,gandbrake,,,,,,,,,,,,,,,0,188,188,245,,,,,,,,,,,,,AMP,right,0.7337489231722429,0,,,,,,,,,,,,,,right,0,0.7337489231722429,,,,,,,,,,,1024,2019_Mar_06_1502,mf_amp_cond2,3.0.4,60.00531163518782,
gun,&&&&&&&&,right,authority.vice,epigrach,,,,,,,,,,,,,,,0,189,189,288,,,,,,,,,,,,,AMP,left,0.6337148627499118,0,,,,,,,,,,,,,,left,0,0.6337148627499118,,,,,,,,,,,1024,2019_Mar_06_1502,mf_amp_cond2,3.0.4,60.00531163518782,
injured,&&&&&&&,right,care.vice,allears,,,,,,,,,,,,,,,0,190,190,231,,,,,,,,,,,,,AMP,left,2.6008836495457217,0,,,,,,,,,,,,,,left,0,2.6008836495457217,,,,,,,,,,,1024,2019_Mar_06_1502,mf_amp_cond2,3.0.4,60.00531163518782,
protect,&&&&&&&&&,left,fairness.virtue,brotesque,,,,,,,,,,,,,,,0,191,191,75,,,,,,,,,,,,,AMP,right,0.9170828016940504,0,,,,,,,,,,,,,,right,0,0.9170828016940504,,,,,,,,,,,1024,2019_Mar_06_1502,mf_amp_cond2,3.0.4,60.00531163518782,
gun,&&&&&,right,authority.vice,tabin,,,,,,,,,,,,,,,0,192,192,61,,,,,,,,,,,,,AMP,left,0.7837717264192179,0,,,,,,,,,,,,,,left,0,0.7837717264192179,,,,,,,,,,,1024,2019_Mar_06_1502,mf_amp_cond2,3.0.4,60.00531163518782,
embrace,&&&&&&,left,authority.virtue,erdest,,,,,,,,,,,,,,,0,193,193,244,,,,,,,,,,,,,AMP,left,0.8170994151150808,1,,,,,,,,,,,,,,left,1,0.8170994151150808,,,,,,,,,,,1024,2019_Mar_06_1502,mf_amp_cond2,3.0.4,60.00531163518782,
abuse,&&&&&&&&&&&,right,sanctity.vice,vicissifude,,,,,,,,,,,,,,,0,194,194,66,,,,,,,,,,,,,AMP,right,1.0505183166824281,1,,,,,,,,,,,,,,right,1,1.0505183166824281,,,,,,,,,,,1024,2019_Mar_06_1502,mf_amp_cond2,3.0.4,60.00531163518782,
shot,&&&&&&&,right,care.vice,Daptist,,,,,,,,,,,,,,,0,195,195,171,,,,,,,,,,,,,AMP,left,0.5837276594247669,0,,,,,,,,,,,,,,left,0,0.5837276594247669,,,,,,,,,,,1024,2019_Mar_06_1502,mf_amp_cond2,3.0.4,60.00531163518782,
clean,&&&&&&&&,left,sanctity.virtue,epigrach,,,,,,,,,,,,,,,0,196,196,19,,,,,,,,,,,,,AMP,left,0.917129306239076,1,,,,,,,,,,,,,,left,1,0.917129306239076,,,,,,,,,,,1024,2019_Mar_06_1502,mf_amp_cond2,3.0.4,60.00531163518782,
praise,&&&&&&&&&&,left,authority.virtue,chonograph,,,,,,,,,,,,,,,0,197,197,200,,,,,,,,,,,,,AMP,left,0.8004382968647406,1,,,,,,,,,,,,,,left,1,0.8004382968647406,,,,,,,,,,,1024,2019_Mar_06_1502,mf_amp_cond2,3.0.4,60.00531163518782,
police,&&&&&&&,right,authority.vice,smapper,,,,,,,,,,,,,,,0,198,198,286,,,,,,,,,,,,,AMP,left,0.6337296158308163,0,,,,,,,,,,,,,,left,0,0.6337296158308163,,,,,,,,,,,1024,2019_Mar_06_1502,mf_amp_cond2,3.0.4,60.00531163518782,
honored,&&&&&&,left,authority.virtue,prones,,,,,,,,,,,,,,,0,199,199,185,,,,,,,,,,,,,AMP,right,0.483685580897145,0,,,,,,,,,,,,,,right,0,0.483685580897145,,,,,,,,,,,1024,2019_Mar_06_1502,mf_amp_cond2,3.0.4,60.00531163518782,
charges,&&&&&&&&&&&,right,fairness.vice,blunderints,,,,,,,,,,,,,,,0,200,200,246,,,,,,,,,,,,,AMP,left,0.6837376658804715,0,,,,,,,,,,,,,,left,0,0.6837376658804715,,,,,,,,,,,1024,2019_Mar_06_1502,mf_amp_cond2,3.0.4,60.00531163518782,
protesters,&&&&&&&&&&,right,authority.vice,frojecting,,,,,,,,,,,,,,,0,201,201,129,,,,,,,,,,,,,AMP,left,1.0171470099594444,0,,,,,,,,,,,,,,left,0,1.0171470099594444,,,,,,,,,,,1024,2019_Mar_06_1502,mf_amp_cond2,3.0.4,60.00531163518782,
gun,&&&&&&&&,right,authority.vice,pullness,,,,,,,,,,,,,,,0,202,202,205,,,,,,,,,,,,,AMP,left,1.333900046767667,0,,,,,,,,,,,,,,left,0,1.333900046767667,,,,,,,,,,,1024,2019_Mar_06_1502,mf_amp_cond2,3.0.4,60.00531163518782,
failure,&&&&&&&&,right,loyalty.vice,sliptery,,,,,,,,,,,,,,,0,203,203,112,,,,,,,,,,,,,AMP,right,2.7342543789418414,1,,,,,,,,,,,,,,right,1,2.7342543789418414,,,,,,,,,,,1024,2019_Mar_06_1502,mf_amp_cond2,3.0.4,60.00531163518782,
ilportation,&&&&&&&&&&&&,None,nonword,edancipation,,,,,,,,,,,,,,,0,204,204,180,,,,,,,,,,,,,AMP,right,0.9504608435090631,0,,,,,,,,,,,,,,right,0,0.9504608435090631,,,,,,,,,,,1024,2019_Mar_06_1502,mf_amp_cond2,3.0.4,60.00531163518782,
ning,&&&&&&&,None,nonword,allears,,,,,,,,,,,,,,,0,205,205,8,,,,,,,,,,,,,AMP,right,1.4171620197594166,0,,,,,,,,,,,,,,right,0,1.4171620197594166,,,,,,,,,,,1024,2019_Mar_06_1502,mf_amp_cond2,3.0.4,60.00531163518782,
fear,&&&&&&,right,sanctity.vice,openet,,,,,,,,,,,,,,,0,206,206,193,,,,,,,,,,,,,AMP,left,3.0843392737442628,0,,,,,,,,,,,,,,left,0,3.0843392737442628,,,,,,,,,,,1024,2019_Mar_06_1502,mf_amp_cond2,3.0.4,60.00531163518782,
growth,&&&&&&&&,left,care.virtue,suggists,,,,,,,,,,,,,,,0,207,207,304,,,,,,,,,,,,,AMP,right,1.067163398838602,0,,,,,,,,,,,,,,right,0,1.067163398838602,,,,,,,,,,,1024,2019_Mar_06_1502,mf_amp_cond2,3.0.4,60.00531163518782,
scalbel,&&&&&&&,None,nonword,halaise,,,,,,,,,,,,,,,0,208,208,211,,,,,,,,,,,,,AMP,right,0.6837325342930853,0,,,,,,,,,,,,,,right,0,0.6837325342930853,,,,,,,,,,,1024,2019_Mar_06_1502,mf_amp_cond2,3.0.4,60.00531163518782,
love,&&&&&,left,loyalty.virtue,noped,,,,,,,,,,,,,,,0,209,209,238,,,,,,,,,,,,,AMP,left,0.7837941768812016,1,,,,,,,,,,,,,,left,1,0.7837941768812016,,,,,,,,,,,1024,2019_Mar_06_1502,mf_amp_cond2,3.0.4,60.00531163518782,
loyalty,&&&&&&&&,left,loyalty.virtue,sidearbs,,,,,,,,,,,,,,,0,210,210,35,,,,,,,,,,,,,AMP,right,5.118180436082184,0,,,,,,,,,,,,,,right,0,5.118180436082184,,,,,,,,,,,1024,2019_Mar_06_1502,mf_amp_cond2,3.0.4,60.00531163518782,
love,&&&&&&,left,loyalty.virtue,gazily,,,,,,,,,,,,,,,0,211,211,290,,,,,,,,,,,,,AMP,right,0.6170438021654263,0,,,,,,,,,,,,,,right,0,0.6170438021654263,,,,,,,,,,,1024,2019_Mar_06_1502,mf_amp_cond2,3.0.4,60.00531163518782,
intelligence,&&&&&&&&,left,loyalty.virtue,slending,,,,,,,,,,,,,,,0,212,212,255,,,,,,,,,,,,,AMP,right,0.6170665733516216,0,,,,,,,,,,,,,,right,0,0.6170665733516216,,,,,,,,,,,1024,2019_Mar_06_1502,mf_amp_cond2,3.0.4,60.00531163518782,
scandal,&&&&&&&&,right,sanctity.vice,ugeasily,,,,,,,,,,,,,,,0,213,213,219,,,,,,,,,,,,,AMP,left,1.2672494802391157,0,,,,,,,,,,,,,,left,0,1.2672494802391157,,,,,,,,,,,1024,2019_Mar_06_1502,mf_amp_cond2,3.0.4,60.00531163518782,
pistraught,&&&&&,None,nonword,mecan,,,,,,,,,,,,,,,0,214,214,202,,,,,,,,,,,,,AMP,left,1.7173033293802291,0,,,,,,,,,,,,,,left,0,1.7173033293802291,,,,,,,,,,,1024,2019_Mar_06_1502,mf_amp_cond2,3.0.4,60.00531163518782,
sharing,&&&&,left,loyalty.virtue,wump,,,,,,,,,,,,,,,0,215,215,305,,,,,,,,,,,,,AMP,right,0.5003912792308256,0,,,,,,,,,,,,,,right,0,0.5003912792308256,,,,,,,,,,,1024,2019_Mar_06_1502,mf_amp_cond2,3.0.4,60.00531163518782,
promote,&&&&&&&&&&&&&,left,sanctity.virtue,photocalkodes,,,,,,,,,,,,,,,0,216,216,266,,,,,,,,,,,,,AMP,left,1.3172350799432024,1,,,,,,,,,,,,,,left,1,1.3172350799432024,,,,,,,,,,,1024,2019_Mar_06_1502,mf_amp_cond2,3.0.4,60.00531163518782,
intelligence,&&&&&&&&,left,loyalty.virtue,lachelor,,,,,,,,,,,,,,,0,217,217,28,,,,,,,,,,,,,AMP,right,1.0504952247720212,0,,,,,,,,,,,,,,right,0,1.0504952247720212,,,,,,,,,,,1024,2019_Mar_06_1502,mf_amp_cond2,3.0.4,60.00531163518782,
infet,&&&&&&&&&&,None,nonword,chonograph,,,,,,,,,,,,,,,0,218,218,88,,,,,,,,,,,,,AMP,right,2.234134750091471,0,,,,,,,,,,,,,,right,0,2.234134750091471,,,,,,,,,,,1024,2019_Mar_06_1502,mf_amp_cond2,3.0.4,60.00531163518782,
focomotive,&&&&&&,None,nonword,erdest,,,,,,,,,,,,,,,0,219,219,283,,,,,,,,,,,,,AMP,left,0.6504173538414761,0,,,,,,,,,,,,,,left,0,0.6504173538414761,,,,,,,,,,,1024,2019_Mar_06_1502,mf_amp_cond2,3.0.4,60.00531163518782,
health,&&&&&&&,left,care.virtue,nackers,,,,,,,,,,,,,,,0,220,220,300,,,,,,,,,,,,,AMP,right,0.6337116555077955,0,,,,,,,,,,,,,,right,0,0.6337116555077955,,,,,,,,,,,1024,2019_Mar_06_1502,mf_amp_cond2,3.0.4,60.00531163518782,
men,&&&&&&&&&,right,loyalty.vice,refuejing,,,,,,,,,,,,,,,0,221,221,43,,,,,,,,,,,,,AMP,right,0.7004266867879778,1,,,,,,,,,,,,,,right,1,0.7004266867879778,,,,,,,,,,,1024,2019_Mar_06_1502,mf_amp_cond2,3.0.4,60.00531163518782,
fear,&&&&&&&&&&&&,right,sanctity.vice,edancipation,,,,,,,,,,,,,,,0,222,222,273,,,,,,,,,,,,,AMP,right,3.217704230104573,1,,,,,,,,,,,,,,right,1,3.217704230104573,,,,,,,,,,,1024,2019_Mar_06_1502,mf_amp_cond2,3.0.4,60.00531163518782,
protect,&&&&,left,fairness.virtue,erks,,,,,,,,,,,,,,,0,223,223,326,,,,,,,,,,,,,AMP,right,1.6506200493313372,0,,,,,,,,,,,,,,right,0,1.6506200493313372,,,,,,,,,,,1024,2019_Mar_06_1502,mf_amp_cond2,3.0.4,60.00531163518782,
scalbel,&&&&&&&&,None,nonword,gowlands,,,,,,,,,,,,,,,0,224,224,45,,,,,,,,,,,,,AMP,left,8.669070468051359,0,,,,,,,,,,,,,,left,0,8.669070468051359,,,,,,,,,,,1024,2019_Mar_06_1502,mf_amp_cond2,3.0.4,60.00531163518782,
refused,&&&&&&&,right,authority.vice,allears,,,,,,,,,,,,,,,0,225,225,276,,,,,,,,,,,,,AMP,right,1.3505874640541151,1,,,,,,,,,,,,,,right,1,1.3505874640541151,,,,,,,,,,,1024,2019_Mar_06_1502,mf_amp_cond2,3.0.4,60.00531163518782,
victims,&&&&&&&,right,care.vice,Daptist,,,,,,,,,,,,,,,0,226,226,41,,,,,,,,,,,,,AMP,right,0.8004376554163173,1,,,,,,,,,,,,,,right,1,0.8004376554163173,,,,,,,,,,,1024,2019_Mar_06_1502,mf_amp_cond2,3.0.4,60.00531163518782,
ban,&&&&&&&&,right,loyalty.vice,thadowed,,,,,,,,,,,,,,,0,227,227,131,,,,,,,,,,,,,AMP,right,0.683745683869347,1,,,,,,,,,,,,,,right,1,0.683745683869347,,,,,,,,,,,1024,2019_Mar_06_1502,mf_amp_cond2,3.0.4,60.00531163518782,
refused,&&&&&,right,authority.vice,uller,,,,,,,,,,,,,,,0,228,228,51,,,,,,,,,,,,,AMP,left,0.5170238532591611,0,,,,,,,,,,,,,,left,0,0.5170238532591611,,,,,,,,,,,1024,2019_Mar_06_1502,mf_amp_cond2,3.0.4,60.00531163518782,
ilportation,&&&&&&,None,nonword,prones,,,,,,,,,,,,,,,0,229,229,280,,,,,,,,,,,,,AMP,left,1.2838846200611442,0,,,,,,,,,,,,,,left,0,1.2838846200611442,,,,,,,,,,,1024,2019_Mar_06_1502,mf_amp_cond2,3.0.4,60.00531163518782,
fraud,&&&&&&,right,fairness.vice,openet,,,,,,,,,,,,,,,0,230,230,278,,,,,,,,,,,,,AMP,right,0.6003932676976547,1,,,,,,,,,,,,,,right,1,0.6003932676976547,,,,,,,,,,,1024,2019_Mar_06_1502,mf_amp_cond2,3.0.4,60.00531163518782,
scandal,&&&&&&&&&&,right,sanctity.vice,fonderland,,,,,,,,,,,,,,,0,231,231,133,,,,,,,,,,,,,AMP,left,1.3505868227221072,0,,,,,,,,,,,,,,left,0,1.3505868227221072,,,,,,,,,,,1024,2019_Mar_06_1502,mf_amp_cond2,3.0.4,60.00531163518782,
ejanulated,&&&&&&&&&&&,None,nonword,precificity,,,,,,,,,,,,,,,0,232,232,148,,,,,,,,,,,,,AMP,left,4.918132520513609,0,,,,,,,,,,,,,,left,0,4.918132520513609,,,,,,,,,,,1024,2019_Mar_06_1502,mf_amp_cond2,3.0.4,60.00531163518782,
threatened,&&&&&&&&,right,fairness.vice,thadowed,,,,,,,,,,,,,,,0,233,233,320,,,,,,,,,,,,,AMP,left,9.085888033849187,0,,,,,,,,,,,,,,left,0,9.085888033849187,,,,,,,,,,,1024,2019_Mar_06_1502,mf_amp_cond2,3.0.4,60.00531163518782,
benefit,&&&&&&&&&&,left,fairness.virtue,simplustic,,,,,,,,,,,,,,,0,234,234,287,,,,,,,,,,,,,AMP,right,0.7504318504361436,0,,,,,,,,,,,,,,right,0,0.7504318504361436,,,,,,,,,,,1024,2019_Mar_06_1502,mf_amp_cond2,3.0.4,60.00531163518782,
men,&&&&&&,right,loyalty.vice,forepo,,,,,,,,,,,,,,,0,235,235,181,,,,,,,,,,,,,AMP,right,0.7337595069548115,1,,,,,,,,,,,,,,right,1,0.7337595069548115,,,,,,,,,,,1024,2019_Mar_06_1502,mf_amp_cond2,3.0.4,60.00531163518782,
dignity,&&&&&&&&&&&,left,sanctity.virtue,vicissifude,,,,,,,,,,,,,,,0,236,236,251,,,,,,,,,,,,,AMP,left,1.0838479296071455,1,,,,,,,,,,,,,,left,1,1.0838479296071455,,,,,,,,,,,1024,2019_Mar_06_1502,mf_amp_cond2,3.0.4,60.00531163518782,
voter,&&&&&&&&&&&,right,fairness.vice,ronviolence,,,,,,,,,,,,,,,0,237,237,250,,,,,,,,,,,,,AMP,left,0.8671186903957278,0,,,,,,,,,,,,,,left,0,0.8671186903957278,,,,,,,,,,,1024,2019_Mar_06_1502,mf_amp_cond2,3.0.4,60.00531163518782,
pistraught,&&&,None,nonword,asn,,,,,,,,,,,,,,,0,238,238,111,,,,,,,,,,,,,AMP,right,0.6504006762988865,0,,,,,,,,,,,,,,right,0,0.6504006762988865,,,,,,,,,,,1024,2019_Mar_06_1502,mf_amp_cond2,3.0.4,60.00531163518782,
ilportation,&&&&&,None,nonword,uller,,,,,,,,,,,,,,,0,239,239,109,,,,,,,,,,,,,AMP,right,0.7170906914398074,0,,,,,,,,,,,,,,right,0,0.7170906914398074,,,,,,,,,,,1024,2019_Mar_06_1502,mf_amp_cond2,3.0.4,60.00531163518782,
corruption,&&&&&&&,right,sanctity.vice,carvels,,,,,,,,,,,,,,,0,240,240,307,,,,,,,,,,,,,AMP,right,0.5337170434650034,1,,,,,,,,,,,,,,right,1,0.5337170434650034,,,,,,,,,,,1024,2019_Mar_06_1502,mf_amp_cond2,3.0.4,60.00531163518782,
corruption,&&&&&,right,sanctity.vice,pulge,,,,,,,,,,,,,,,0,241,241,239,,,,,,,,,,,,,AMP,left,0.817200442077592,0,,,,,,,,,,,,,,left,0,0.817200442077592,,,,,,,,,,,1024,2019_Mar_06_1502,mf_amp_cond2,3.0.4,60.00531163518782,
ability,&&&&&&&,left,authority.virtue,halaise,,,,,,,,,,,,,,,0,242,242,39,,,,,,,,,,,,,AMP,right,0.7337511682417244,0,,,,,,,,,,,,,,right,0,0.7337511682417244,,,,,,,,,,,1024,2019_Mar_06_1502,mf_amp_cond2,3.0.4,60.00531163518782,
hand,&&&&&&,left,sanctity.virtue,antral,,,,,,,,,,,,,,,0,243,243,217,,,,,,,,,,,,,AMP,right,1.3505640514194965,0,,,,,,,,,,,,,,right,0,1.3505640514194965,,,,,,,,,,,1024,2019_Mar_06_1502,mf_amp_cond2,3.0.4,60.00531163518782,
