words,mask,corr_ans,category,nonwords,LDT_prac_loop.thisRepN,LDT_prac_loop.thisTrialN,LDT_prac_loop.thisN,LDT_prac_loop.thisIndex,LDT_loop.thisRepN,LDT_loop.thisTrialN,LDT_loop.thisN,LDT_loop.thisIndex,AMP_pracloop.thisRepN,AMP_pracloop.thisTrialN,AMP_pracloop.thisN,AMP_pracloop.thisIndex,AMP_loop.thisRepN,AMP_loop.thisTrialN,AMP_loop.thisN,AMP_loop.thisIndex,tweet_loop.thisRepN,tweet_loop.thisTrialN,tweet_loop.thisN,tweet_loop.thisIndex,tweets,topic,begin_key.keys,begin_key.rt,key_resp_AMP_instr1.keys,key_resp_AMP_instr1.rt,key_resp_LDT_instr.keys,key_resp_LDT_instr.rt,resp_LDT_prac.keys,resp_LDT_prac.rt,task,keypress,RT,corr,resp_LDT_ready.keys,resp_LDT_ready.rt,resp_LDT.keys,resp_LDT.corr,resp_LDT.rt,LDT_rating.response,LDT_rating.rt,resp_AMP_ready1.keys,resp_AMP_ready1.rt,resp_AMP_prac.keys,resp_AMP_prac.rt,resp_AMP_ready.keys,resp_AMP_ready.rt,resp_AMP.keys,resp_AMP.corr,resp_AMP.rt,AMP_nonword_rating.response,AMP_nonword_rating.rt,AMP_word_rating.response,AMP_word_rating.rt,AMP_random_rating.response,AMP_random_rating.rt,key_resp_LDT_instr_2.keys,key_resp_LDT_instr_2.rt,participant,date,expName,psychopyVersion,frameRate,
,,,,,,,,,,,,,,,,,,,,,,,,,,,right,509.31315650127704,,,,,,,,,,,,,,,,,,,,,,,,,,,,,,,,,,,1030,2019_Mar_07_1358,mf_amp_cond2,3.0.4,59.98339752443915,
,,,,,,,,,,,,,,,,,,,,,,,,,,,,,right,4.051330538119714,,,,,,,,,,,,,,,,,,,,,,,,,,,,,,,,,1030,2019_Mar_07_1358,mf_amp_cond2,3.0.4,59.98339752443915,
,,,,,,,,,,,,,,,,,,,,,,,,,,,,,,,right,1.8174165132271582,,,,,,,,,,,,,,,,,,,,,,,,,,,,,,,1030,2019_Mar_07_1358,mf_amp_cond2,3.0.4,59.98339752443915,
keyboard,&&&&&&&,,,,0,0,0,0,,,,,,,,,,,,,,,,,,,,,,,,,left,1.2172440921900716,LDT_prac,left,1.2172440921900716,0,,,,,,,,,,,,,,,,,,,,,,,,,1030,2019_Mar_07_1358,mf_amp_cond2,3.0.4,59.98339752443915,
bisebell,&&&&&&&,,,,0,1,1,1,,,,,,,,,,,,,,,,,,,,,,,,,left,0.9671777825743675,LDT_prac,left,0.9671777825743675,0,,,,,,,,,,,,,,,,,,,,,,,,,1030,2019_Mar_07_1358,mf_amp_cond2,3.0.4,59.98339752443915,
,,,,,,,,,,,,,,,,,,,,,,,,,,,,,,,,,,,,,,,right,1.734016175376837,,,,,,,,,,,,,,,,,,,,,,,1030,2019_Mar_07_1358,mf_amp_cond2,3.0.4,59.98339752443915,
rorroborated,&&&&&&&&&&&&,right,nonword,,,,,,0,0,0,194,,,,,,,,,,,,,,,,,,,,,,,LDT,left,0.6504362322796169,0,,,left,0,0.6504362322796169,,,,,,,,,,,,,,,,,,,,1030,2019_Mar_07_1358,mf_amp_cond2,3.0.4,59.98339752443915,
three,&&&&&,left,neutral,,,,,,0,1,1,65,,,,,,,,,,,,,,,,,,,,,,,LDT,left,0.6504275727409095,1,,,left,1,0.6504275727409095,,,,,,,,,,,,,,,,,,,,1030,2019_Mar_07_1358,mf_amp_cond2,3.0.4,59.98339752443915,
hatigue,&&&&&&&,right,nonword,,,,,,0,2,2,145,,,,,,,,,,,,,,,,,,,,,,,LDT,left,0.6337489804997176,0,,,left,0,0.6337489804997176,,,,,,,,,,,,,,,,,,,,1030,2019_Mar_07_1358,mf_amp_cond2,3.0.4,59.98339752443915,
itself,&&&&&&,left,neutral,,,,,,0,3,3,42,,,,,,,,,,,,,,,,,,,,,,,LDT,left,0.6337669410244189,1,,,left,1,0.6337669410244189,,,,,,,,,,,,,,,,,,,,1030,2019_Mar_07_1358,mf_amp_cond2,3.0.4,59.98339752443915,
myself,&&&&&&,left,neutral,,,,,,0,4,4,50,,,,,,,,,,,,,,,,,,,,,,,LDT,left,0.667140803136931,1,,,left,1,0.667140803136931,,,,,,,,,,,,,,,,,,,,1030,2019_Mar_07_1358,mf_amp_cond2,3.0.4,59.98339752443915,
trust,&&&&&,left,authority.virtue,,,,,,0,5,5,45,,,,,,,,,,,,,,,,,,,,,,,LDT,left,0.6837693624879648,1,,,left,1,0.6837693624879648,,,,,,,,,,,,,,,,,,,,1030,2019_Mar_07_1358,mf_amp_cond2,3.0.4,59.98339752443915,
embrace,&&&&&&&,left,authority.virtue,,,,,,0,6,6,32,,,,,,,,,,,,,,,,,,,,,,,LDT,left,0.6004177746333426,1,,,left,1,0.6004177746333426,,,,,,,,,,,,,,,,,,,,1030,2019_Mar_07_1358,mf_amp_cond2,3.0.4,59.98339752443915,
emassion,&&&&&&&&,right,nonword,,,,,,0,7,7,23,,,,,,,,,,,,,,,,,,,,,,,LDT,left,0.7171377722984289,0,,,left,0,0.7171377722984289,,,,,,,,,,,,,,,,,,,,1030,2019_Mar_07_1358,mf_amp_cond2,3.0.4,59.98339752443915,
mih,&&&,right,nonword,,,,,,0,8,8,133,,,,,,,,,,,,,,,,,,,,,,,LDT,left,0.5503916196191767,0,,,left,0,0.5503916196191767,,,,,,,,,,,,,,,,,,,,1030,2019_Mar_07_1358,mf_amp_cond2,3.0.4,59.98339752443915,
sickyay,&&&&&&&,right,nonword,,,,,,0,9,9,88,,,,,,,,,,,,,,,,,,,,,,,LDT,left,0.7337862165160232,0,,,left,0,0.7337862165160232,,,,,,,,,,,,,,,,,,,,1030,2019_Mar_07_1358,mf_amp_cond2,3.0.4,59.98339752443915,
praise,&&&&&&,left,authority.virtue,,,,,,0,10,10,152,,,,,,,,,,,,,,,,,,,,,,,LDT,left,0.867142791623678,1,,,left,1,0.867142791623678,,,,,,,,,,,,,,,,,,,,1030,2019_Mar_07_1358,mf_amp_cond2,3.0.4,59.98339752443915,
amoungst,&&&&&&&&,left,neutral,,,,,,0,11,11,118,,,,,,,,,,,,,,,,,,,,,,,LDT,left,1.0005112335064723,1,,,left,1,1.0005112335064723,,,,,,,,,,,,,,,,,,,,1030,2019_Mar_07_1358,mf_amp_cond2,3.0.4,59.98339752443915,
blamed,&&&&&&,left,loyalty.vice,,,,,,0,12,12,131,,,,,,,,,,,,,,,,,,,,,,,LDT,left,0.4837138131508709,1,,,left,1,0.4837138131508709,,,,,,,,,,,,,,,,,,,,1030,2019_Mar_07_1358,mf_amp_cond2,3.0.4,59.98339752443915,
failure,&&&&&&&,left,loyalty.vice,,,,,,0,13,13,199,,,,,,,,,,,,,,,,,,,,,,,LDT,left,0.633752829183436,1,,,left,1,0.633752829183436,,,,,,,,,,,,,,,,,,,,1030,2019_Mar_07_1358,mf_amp_cond2,3.0.4,59.98339752443915,
gazily,&&&&&&,right,nonword,,,,,,0,14,14,92,,,,,,,,,,,,,,,,,,,,,,,LDT,left,0.7671190260007279,0,,,left,0,0.7671190260007279,,,,,,,,,,,,,,,,,,,,1030,2019_Mar_07_1358,mf_amp_cond2,3.0.4,59.98339752443915,
allears,&&&&&&&,right,nonword,,,,,,0,15,15,183,,,,,,,,,,,,,,,,,,,,,,,LDT,left,0.4337206926733188,0,,,left,0,0.4337206926733188,,,,,,,,,,,,,,,,,,,,1030,2019_Mar_07_1358,mf_amp_cond2,3.0.4,59.98339752443915,
hence,&&&&&,left,neutral,,,,,,0,16,16,49,,,,,,,,,,,,,,,,,,,,,,,LDT,left,0.8171329935159974,1,,,left,1,0.8171329935159974,,,,,,,,,,,,,,,,,,,,1030,2019_Mar_07_1358,mf_amp_cond2,3.0.4,59.98339752443915,
papert,&&&&&&,right,nonword,,,,,,0,17,17,165,,,,,,,,,,,,,,,,,,,,,,,LDT,left,0.5337329122445453,0,,,left,0,0.5337329122445453,,,,,,,,,,,,,,,,,,,,1030,2019_Mar_07_1358,mf_amp_cond2,3.0.4,59.98339752443915,
officers,&&&&&&&&,left,authority.vice,,,,,,0,18,18,95,,,,,,,,,,,,,,,,,,,,,,,LDT,left,0.4336931104389805,1,,,left,1,0.4336931104389805,,,,,,,,,,,,,,,,,,,,1030,2019_Mar_07_1358,mf_amp_cond2,3.0.4,59.98339752443915,
fifteen,&&&&&&&,left,neutral,,,,,,0,19,19,103,,,,,,,,,,,,,,,,,,,,,,,LDT,left,0.567061873045418,1,,,left,1,0.567061873045418,,,,,,,,,,,,,,,,,,,,1030,2019_Mar_07_1358,mf_amp_cond2,3.0.4,59.98339752443915,
friends,&&&&&&&,left,loyalty.virtue,,,,,,0,20,20,78,,,,,,,,,,,,,,,,,,,,,,,LDT,left,0.5670686082421525,1,,,left,1,0.5670686082421525,,,,,,,,,,,,,,,,,,,,1030,2019_Mar_07_1358,mf_amp_cond2,3.0.4,59.98339752443915,
rebels,&&&&&&,left,authority.vice,,,,,,0,21,21,71,,,,,,,,,,,,,,,,,,,,,,,LDT,left,0.41701804615786386,1,,,left,1,0.41701804615786386,,,,,,,,,,,,,,,,,,,,1030,2019_Mar_07_1358,mf_amp_cond2,3.0.4,59.98339752443915,
voter,&&&&&,left,fairness.vice,,,,,,0,22,22,139,,,,,,,,,,,,,,,,,,,,,,,LDT,left,0.5170732426989844,1,,,left,1,0.5170732426989844,,,,,,,,,,,,,,,,,,,,1030,2019_Mar_07_1358,mf_amp_cond2,3.0.4,59.98339752443915,
pharing,&&&&&&&,right,nonword,,,,,,0,23,23,90,,,,,,,,,,,,,,,,,,,,,,,LDT,left,0.4670326551203061,0,,,left,0,0.4670326551203061,,,,,,,,,,,,,,,,,,,,1030,2019_Mar_07_1358,mf_amp_cond2,3.0.4,59.98339752443915,
respect,&&&&&&&,left,sanctity.virtue,,,,,,0,24,24,34,,,,,,,,,,,,,,,,,,,,,,,LDT,left,0.4170295922094738,1,,,left,1,0.4170295922094738,,,,,,,,,,,,,,,,,,,,1030,2019_Mar_07_1358,mf_amp_cond2,3.0.4,59.98339752443915,
thabbily,&&&&&&&&,right,nonword,,,,,,0,25,25,58,,,,,,,,,,,,,,,,,,,,,,,LDT,left,0.36701498324691784,0,,,left,0,0.36701498324691784,,,,,,,,,,,,,,,,,,,,1030,2019_Mar_07_1358,mf_amp_cond2,3.0.4,59.98339752443915,
therefore,&&&&&&&&&,left,neutral,,,,,,0,26,26,168,,,,,,,,,,,,,,,,,,,,,,,LDT,left,0.45039832274358105,1,,,left,1,0.45039832274358105,,,,,,,,,,,,,,,,,,,,1030,2019_Mar_07_1358,mf_amp_cond2,3.0.4,59.98339752443915,
blunderints,&&&&&&&&&&&,right,nonword,,,,,,0,27,27,30,,,,,,,,,,,,,,,,,,,,,,,LDT,left,0.483741074661566,0,,,left,0,0.483741074661566,,,,,,,,,,,,,,,,,,,,1030,2019_Mar_07_1358,mf_amp_cond2,3.0.4,59.98339752443915,
tenuflect,&&&&&&&&&,right,nonword,,,,,,0,28,28,24,,,,,,,,,,,,,,,,,,,,,,,LDT,left,0.3836861988440887,0,,,left,0,0.3836861988440887,,,,,,,,,,,,,,,,,,,,1030,2019_Mar_07_1358,mf_amp_cond2,3.0.4,59.98339752443915,
festate,&&&&&&&,right,nonword,,,,,,0,29,29,140,,,,,,,,,,,,,,,,,,,,,,,LDT,left,0.4670480498558618,0,,,left,0,0.4670480498558618,,,,,,,,,,,,,,,,,,,,1030,2019_Mar_07_1358,mf_amp_cond2,3.0.4,59.98339752443915,
touls,&&&&&,right,nonword,,,,,,0,30,30,179,,,,,,,,,,,,,,,,,,,,,,,LDT,left,0.48372600064976723,0,,,left,0,0.48372600064976723,,,,,,,,,,,,,,,,,,,,1030,2019_Mar_07_1358,mf_amp_cond2,3.0.4,59.98339752443915,
seachwear,&&&&&&&&&,right,nonword,,,,,,0,31,31,27,,,,,,,,,,,,,,,,,,,,,,,LDT,left,0.6337496219468903,0,,,left,0,0.6337496219468903,,,,,,,,,,,,,,,,,,,,1030,2019_Mar_07_1358,mf_amp_cond2,3.0.4,59.98339752443915,
whither,&&&&&&&,left,neutral,,,,,,0,32,32,10,,,,,,,,,,,,,,,,,,,,,,,LDT,left,0.6337197946470496,1,,,left,1,0.6337197946470496,,,,,,,,,,,,,,,,,,,,1030,2019_Mar_07_1358,mf_amp_cond2,3.0.4,59.98339752443915,
Cunday,&&&&&&,None,nonword,,,,,,0,33,33,186,,,,,,,,,,,,,,,,,,,,,,,LDT,left,0.5337316293498588,0,,,left,0,0.5337316293498588,,,,,,,,,,,,,,,,,,,,1030,2019_Mar_07_1358,mf_amp_cond2,3.0.4,59.98339752443915,
actively,&&&&&&&&,left,authority.virtue,,,,,,0,34,34,122,,,,,,,,,,,,,,,,,,,,,,,LDT,left,0.4170398553665109,1,,,left,1,0.4170398553665109,,,,,,,,,,,,,,,,,,,,1030,2019_Mar_07_1358,mf_amp_cond2,3.0.4,59.98339752443915,
else,&&&&,left,neutral,,,,,,0,35,35,184,,,,,,,,,,,,,,,,,,,,,,,LDT,left,0.43371780616030264,1,,,left,1,0.43371780616030264,,,,,,,,,,,,,,,,,,,,1030,2019_Mar_07_1358,mf_amp_cond2,3.0.4,59.98339752443915,
gun,&&&,left,authority.vice,,,,,,0,36,36,195,,,,,,,,,,,,,,,,,,,,,,,LDT,left,0.8338054920077411,1,,,left,1,0.8338054920077411,,,,,,,,,,,,,,,,,,,,1030,2019_Mar_07_1358,mf_amp_cond2,3.0.4,59.98339752443915,
neutralust,&&&&&&&&&&,right,nonword,,,,,,0,37,37,39,,,,,,,,,,,,,,,,,,,,,,,LDT,left,0.5003891981556308,0,,,left,0,0.5003891981556308,,,,,,,,,,,,,,,,,,,,1030,2019_Mar_07_1358,mf_amp_cond2,3.0.4,59.98339752443915,
fifty,&&&&&,left,neutral,,,,,,0,38,38,81,,,,,,,,,,,,,,,,,,,,,,,LDT,left,0.4670355416333223,1,,,left,1,0.4670355416333223,,,,,,,,,,,,,,,,,,,,1030,2019_Mar_07_1358,mf_amp_cond2,3.0.4,59.98339752443915,
nonobservalt,&&&&&&&&&&&&,right,nonword,,,,,,0,39,39,54,,,,,,,,,,,,,,,,,,,,,,,LDT,left,0.683761665120187,0,,,left,0,0.683761665120187,,,,,,,,,,,,,,,,,,,,1030,2019_Mar_07_1358,mf_amp_cond2,3.0.4,59.98339752443915,
values,&&&&&&,left,sanctity.virtue,,,,,,0,40,40,146,,,,,,,,,,,,,,,,,,,,,,,LDT,left,0.7337894237525688,1,,,left,1,0.7337894237525688,,,,,,,,,,,,,,,,,,,,1030,2019_Mar_07_1358,mf_amp_cond2,3.0.4,59.98339752443915,
both,&&&&,left,neutral,,,,,,0,41,41,83,,,,,,,,,,,,,,,,,,,,,,,LDT,left,0.4837205483476055,1,,,left,1,0.4837205483476055,,,,,,,,,,,,,,,,,,,,1030,2019_Mar_07_1358,mf_amp_cond2,3.0.4,59.98339752443915,
fegard,&&&&&&,right,nonword,,,,,,0,42,42,153,,,,,,,,,,,,,,,,,,,,,,,LDT,left,0.5337175175091033,0,,,left,0,0.5337175175091033,,,,,,,,,,,,,,,,,,,,1030,2019_Mar_07_1358,mf_amp_cond2,3.0.4,59.98339752443915,
Daptist,&&&&&&&,right,nonword,,,,,,0,43,43,126,,,,,,,,,,,,,,,,,,,,,,,LDT,left,0.5670676460711093,0,,,left,0,0.5670676460711093,,,,,,,,,,,,,,,,,,,,1030,2019_Mar_07_1358,mf_amp_cond2,3.0.4,59.98339752443915,
whereafter,&&&&&&&&&&,left,neutral,,,,,,0,44,44,52,,,,,,,,,,,,,,,,,,,,,,,LDT,left,0.567067646071223,1,,,left,1,0.567067646071223,,,,,,,,,,,,,,,,,,,,1030,2019_Mar_07_1358,mf_amp_cond2,3.0.4,59.98339752443915,
faspberry,&&&&&&&&&,None,nonword,,,,,,0,45,45,193,,,,,,,,,,,,,,,,,,,,,,,LDT,left,0.5670727776497415,0,,,left,0,0.5670727776497415,,,,,,,,,,,,,,,,,,,,1030,2019_Mar_07_1358,mf_amp_cond2,3.0.4,59.98339752443915,
serial,&&&&&&,left,sanctity.vice,,,,,,0,46,46,62,,,,,,,,,,,,,,,,,,,,,,,LDT,left,0.5503791113966372,1,,,left,1,0.5503791113966372,,,,,,,,,,,,,,,,,,,,1030,2019_Mar_07_1358,mf_amp_cond2,3.0.4,59.98339752443915,
towards,&&&&&&&,left,neutral,,,,,,0,47,47,46,,,,,,,,,,,,,,,,,,,,,,,LDT,left,0.4837141338745141,1,,,left,1,0.4837141338745141,,,,,,,,,,,,,,,,,,,,1030,2019_Mar_07_1358,mf_amp_cond2,3.0.4,59.98339752443915,
with,&&&&,left,neutral,,,,,,0,48,48,172,,,,,,,,,,,,,,,,,,,,,,,LDT,left,0.45035791156306004,1,,,left,1,0.45035791156306004,,,,,,,,,,,,,,,,,,,,1030,2019_Mar_07_1358,mf_amp_cond2,3.0.4,59.98339752443915,
bluently,&&&&&&&&,None,nonword,,,,,,0,49,49,191,,,,,,,,,,,,,,,,,,,,,,,LDT,left,0.5004029892727431,0,,,left,0,0.5004029892727431,,,,,,,,,,,,,,,,,,,,1030,2019_Mar_07_1358,mf_amp_cond2,3.0.4,59.98339752443915,
thru,&&&&,left,neutral,,,,,,0,50,50,142,,,,,,,,,,,,,,,,,,,,,,,LDT,left,0.5837404652866098,1,,,left,1,0.5837404652866098,,,,,,,,,,,,,,,,,,,,1030,2019_Mar_07_1358,mf_amp_cond2,3.0.4,59.98339752443915,
could,&&&&&,left,neutral,,,,,,0,51,51,188,,,,,,,,,,,,,,,,,,,,,,,LDT,left,0.7671177431061551,1,,,left,1,0.7671177431061551,,,,,,,,,,,,,,,,,,,,1030,2019_Mar_07_1358,mf_amp_cond2,3.0.4,59.98339752443915,
shoirmaster,&&&&&&&&&&&,right,nonword,,,,,,0,52,52,182,,,,,,,,,,,,,,,,,,,,,,,LDT,left,0.5837472004833444,0,,,left,0,0.5837472004833444,,,,,,,,,,,,,,,,,,,,1030,2019_Mar_07_1358,mf_amp_cond2,3.0.4,59.98339752443915,
violations,&&&&&&&&&&,left,sanctity.vice,,,,,,0,53,53,106,,,,,,,,,,,,,,,,,,,,,,,LDT,left,0.5002243461967737,1,,,left,1,0.5002243461967737,,,,,,,,,,,,,,,,,,,,1030,2019_Mar_07_1358,mf_amp_cond2,3.0.4,59.98339752443915,
chressing,&&&&&&&&&,None,nonword,,,,,,0,54,54,143,,,,,,,,,,,,,,,,,,,,,,,LDT,left,0.650438477345233,0,,,left,0,0.650438477345233,,,,,,,,,,,,,,,,,,,,1030,2019_Mar_07_1358,mf_amp_cond2,3.0.4,59.98339752443915,
slending,&&&&&&&&,right,nonword,,,,,,0,55,55,31,,,,,,,,,,,,,,,,,,,,,,,LDT,left,0.617075519836817,0,,,left,0,0.617075519836817,,,,,,,,,,,,,,,,,,,,1030,2019_Mar_07_1358,mf_amp_cond2,3.0.4,59.98339752443915,
ning,&&&&,right,nonword,,,,,,0,56,56,8,,,,,,,,,,,,,,,,,,,,,,,LDT,left,0.5003821422351393,0,,,left,0,0.5003821422351393,,,,,,,,,,,,,,,,,,,,1030,2019_Mar_07_1358,mf_amp_cond2,3.0.4,59.98339752443915,
openet,&&&&&&,None,nonword,,,,,,0,57,57,73,,,,,,,,,,,,,,,,,,,,,,,LDT,left,0.5503900160009607,0,,,left,0,0.5503900160009607,,,,,,,,,,,,,,,,,,,,1030,2019_Mar_07_1358,mf_amp_cond2,3.0.4,59.98339752443915,
even,&&&&,left,neutral,,,,,,0,58,58,166,,,,,,,,,,,,,,,,,,,,,,,LDT,left,0.6004155295677265,1,,,left,1,0.6004155295677265,,,,,,,,,,,,,,,,,,,,1030,2019_Mar_07_1358,mf_amp_cond2,3.0.4,59.98339752443915,
shot,&&&&,left,care.vice,,,,,,0,59,59,72,,,,,,,,,,,,,,,,,,,,,,,LDT,left,0.5670933039637021,1,,,left,1,0.5670933039637021,,,,,,,,,,,,,,,,,,,,1030,2019_Mar_07_1358,mf_amp_cond2,3.0.4,59.98339752443915,
counpy's,&&&&&&&&,right,nonword,,,,,,0,60,60,68,,,,,,,,,,,,,,,,,,,,,,,LDT,left,0.5337396474412799,0,,,left,0,0.5337396474412799,,,,,,,,,,,,,,,,,,,,1030,2019_Mar_07_1358,mf_amp_cond2,3.0.4,59.98339752443915,
done,&&&&,left,neutral,,,,,,0,61,61,57,,,,,,,,,,,,,,,,,,,,,,,LDT,left,0.5504115044858509,1,,,left,1,0.5504115044858509,,,,,,,,,,,,,,,,,,,,1030,2019_Mar_07_1358,mf_amp_cond2,3.0.4,59.98339752443915,
ejanulated,&&&&&&&&&&,right,nonword,,,,,,0,62,62,136,,,,,,,,,,,,,,,,,,,,,,,LDT,left,0.8671479232020829,0,,,left,0,0.8671479232020829,,,,,,,,,,,,,,,,,,,,1030,2019_Mar_07_1358,mf_amp_cond2,3.0.4,59.98339752443915,
terrorist,&&&&&&&&&,left,loyalty.vice,,,,,,0,63,63,107,,,,,,,,,,,,,,,,,,,,,,,LDT,left,0.7837918452161148,1,,,left,1,0.7837918452161148,,,,,,,,,,,,,,,,,,,,1030,2019_Mar_07_1358,mf_amp_cond2,3.0.4,59.98339752443915,
least,&&&&&,left,neutral,,,,,,0,64,64,11,,,,,,,,,,,,,,,,,,,,,,,LDT,left,0.5837574636403815,1,,,left,1,0.5837574636403815,,,,,,,,,,,,,,,,,,,,1030,2019_Mar_07_1358,mf_amp_cond2,3.0.4,59.98339752443915,
lenon,&&&&&,right,nonword,,,,,,0,65,65,48,,,,,,,,,,,,,,,,,,,,,,,LDT,left,0.4670480498558618,0,,,left,0,0.4670480498558618,,,,,,,,,,,,,,,,,,,,1030,2019_Mar_07_1358,mf_amp_cond2,3.0.4,59.98339752443915,
everything,&&&&&&&&&&,left,neutral,,,,,,0,66,66,155,,,,,,,,,,,,,,,,,,,,,,,LDT,left,1.0672044347101064,1,,,left,1,1.0672044347101064,,,,,,,,,,,,,,,,,,,,1030,2019_Mar_07_1358,mf_amp_cond2,3.0.4,59.98339752443915,
strong,&&&&&&,left,loyalty.virtue,,,,,,0,67,67,76,,,,,,,,,,,,,,,,,,,,,,,LDT,left,0.7004290320335258,1,,,left,1,0.7004290320335258,,,,,,,,,,,,,,,,,,,,1030,2019_Mar_07_1358,mf_amp_cond2,3.0.4,59.98339752443915,
anyhow,&&&&&&,left,neutral,,,,,,0,68,68,64,,,,,,,,,,,,,,,,,,,,,,,LDT,left,0.5669566756864697,1,,,left,1,0.5669566756864697,,,,,,,,,,,,,,,,,,,,1030,2019_Mar_07_1358,mf_amp_cond2,3.0.4,59.98339752443915,
baladroit,&&&&&&&&&,right,nonword,,,,,,0,69,69,12,,,,,,,,,,,,,,,,,,,,,,,LDT,left,0.6670952603778915,0,,,left,0,0.6670952603778915,,,,,,,,,,,,,,,,,,,,1030,2019_Mar_07_1358,mf_amp_cond2,3.0.4,59.98339752443915,
gillipede,&&&&&&&&&,None,nonword,,,,,,0,70,70,160,,,,,,,,,,,,,,,,,,,,,,,LDT,left,1.5173230864263587,0,,,left,0,1.5173230864263587,,,,,,,,,,,,,,,,,,,,1030,2019_Mar_07_1358,mf_amp_cond2,3.0.4,59.98339752443915,
coom,&&&&,right,nonword,,,,,,0,71,71,176,,,,,,,,,,,,,,,,,,,,,,,LDT,left,0.7671183845534415,0,,,left,0,0.7671183845534415,,,,,,,,,,,,,,,,,,,,1030,2019_Mar_07_1358,mf_amp_cond2,3.0.4,59.98339752443915,
gusinesslike,&&&&&&&&&&&&,right,nonword,,,,,,0,72,72,114,,,,,,,,,,,,,,,,,,,,,,,LDT,left,0.9005002968298186,0,,,left,0,0.9005002968298186,,,,,,,,,,,,,,,,,,,,1030,2019_Mar_07_1358,mf_amp_cond2,3.0.4,59.98339752443915,
viscs,&&&&&,None,nonword,,,,,,0,73,73,7,,,,,,,,,,,,,,,,,,,,,,,LDT,left,0.5170402081624843,0,,,left,0,0.5170402081624843,,,,,,,,,,,,,,,,,,,,1030,2019_Mar_07_1358,mf_amp_cond2,3.0.4,59.98339752443915,
about,&&&&&,left,neutral,,,,,,0,74,74,99,,,,,,,,,,,,,,,,,,,,,,,LDT,left,1.2504325760298798,1,,,left,1,1.2504325760298798,,,,,,,,,,,,,,,,,,,,1030,2019_Mar_07_1358,mf_amp_cond2,3.0.4,59.98339752443915,
edancipation,&&&&&&&&&&&&,None,nonword,,,,,,0,75,75,59,,,,,,,,,,,,,,,,,,,,,,,LDT,left,2.1008117836436213,0,,,left,0,2.1008117836436213,,,,,,,,,,,,,,,,,,,,1030,2019_Mar_07_1358,mf_amp_cond2,3.0.4,59.98339752443915,
feleological,&&&&&&&&&&&&,right,nonword,,,,,,0,76,76,109,,,,,,,,,,,,,,,,,,,,,,,LDT,left,1.0338539854243436,0,,,left,0,1.0338539854243436,,,,,,,,,,,,,,,,,,,,1030,2019_Mar_07_1358,mf_amp_cond2,3.0.4,59.98339752443915,
each,&&&&,left,neutral,,,,,,0,77,77,198,,,,,,,,,,,,,,,,,,,,,,,LDT,left,1.100527622485174,1,,,left,1,1.100527622485174,,,,,,,,,,,,,,,,,,,,1030,2019_Mar_07_1358,mf_amp_cond2,3.0.4,59.98339752443915,
simplustic,&&&&&&&&&&,right,nonword,,,,,,0,78,78,137,,,,,,,,,,,,,,,,,,,,,,,LDT,left,0.6670942982069619,0,,,left,0,0.6670942982069619,,,,,,,,,,,,,,,,,,,,1030,2019_Mar_07_1358,mf_amp_cond2,3.0.4,59.98339752443915,
accused,&&&&&&&,left,fairness.vice,,,,,,0,79,79,79,,,,,,,,,,,,,,,,,,,,,,,LDT,left,0.6504221204387477,1,,,left,1,0.6504221204387477,,,,,,,,,,,,,,,,,,,,1030,2019_Mar_07_1358,mf_amp_cond2,3.0.4,59.98339752443915,
presentkess,&&&&&&&&&&&,right,nonword,,,,,,0,80,80,21,,,,,,,,,,,,,,,,,,,,,,,LDT,left,0.5004135731533097,0,,,left,0,0.5004135731533097,,,,,,,,,,,,,,,,,,,,1030,2019_Mar_07_1358,mf_amp_cond2,3.0.4,59.98339752443915,
elsewhere,&&&&&&&&&,left,neutral,,,,,,0,81,81,80,,,,,,,,,,,,,,,,,,,,,,,LDT,left,0.6504291763591254,1,,,left,1,0.6504291763591254,,,,,,,,,,,,,,,,,,,,1030,2019_Mar_07_1358,mf_amp_cond2,3.0.4,59.98339752443915,
refused,&&&&&&&,left,authority.vice,,,,,,0,82,82,144,,,,,,,,,,,,,,,,,,,,,,,LDT,left,0.8171320313449542,1,,,left,1,0.8171320313449542,,,,,,,,,,,,,,,,,,,,1030,2019_Mar_07_1358,mf_amp_cond2,3.0.4,59.98339752443915,
were,&&&&,left,neutral,,,,,,0,83,83,87,,,,,,,,,,,,,,,,,,,,,,,LDT,left,1.3672843911173231,1,,,left,1,1.3672843911173231,,,,,,,,,,,,,,,,,,,,1030,2019_Mar_07_1358,mf_amp_cond2,3.0.4,59.98339752443915,
peace,&&&&&,left,care.virtue,,,,,,0,84,84,94,,,,,,,,,,,,,,,,,,,,,,,LDT,right,0.7838665738278223,0,,,right,0,0.7838665738278223,,,,,,,,,,,,,,,,,,,,1030,2019_Mar_07_1358,mf_amp_cond2,3.0.4,59.98339752443915,
opportunity,&&&&&&&&&&&,left,fairness.virtue,,,,,,0,85,85,178,,,,,,,,,,,,,,,,,,,,,,,LDT,left,1.117214232817787,1,,,left,1,1.117214232817787,,,,,,,,,,,,,,,,,,,,1030,2019_Mar_07_1358,mf_amp_cond2,3.0.4,59.98339752443915,
ensure,&&&&&&,left,fairness.virtue,,,,,,0,86,86,181,,,,,,,,,,,,,,,,,,,,,,,LDT,right,0.7004296734809259,0,,,right,0,0.7004296734809259,,,,,,,,,,,,,,,,,,,,1030,2019_Mar_07_1358,mf_amp_cond2,3.0.4,59.98339752443915,
erks,&&&&,right,nonword,,,,,,0,87,87,180,,,,,,,,,,,,,,,,,,,,,,,LDT,left,1.2839199743165182,0,,,left,0,1.2839199743165182,,,,,,,,,,,,,,,,,,,,1030,2019_Mar_07_1358,mf_amp_cond2,3.0.4,59.98339752443915,
perified,&&&&&&&&,right,nonword,,,,,,0,88,88,29,,,,,,,,,,,,,,,,,,,,,,,LDT,right,1.5840105146043015,1,,,right,1,1.5840105146043015,,,,,,,,,,,,,,,,,,,,1030,2019_Mar_07_1358,mf_amp_cond2,3.0.4,59.98339752443915,
saned,&&&&&,None,nonword,,,,,,0,89,89,157,,,,,,,,,,,,,,,,,,,,,,,LDT,right,1.4339692535061204,0,,,right,0,1.4339692535061204,,,,,,,,,,,,,,,,,,,,1030,2019_Mar_07_1358,mf_amp_cond2,3.0.4,59.98339752443915,
prison,&&&&&&,left,fairness.vice,,,,,,0,90,90,108,,,,,,,,,,,,,,,,,,,,,,,LDT,right,1.4339785544921142,0,,,right,0,1.4339785544921142,,,,,,,,,,,,,,,,,,,,1030,2019_Mar_07_1358,mf_amp_cond2,3.0.4,59.98339752443915,
iptervention,&&&&&&&&&&&&,right,nonword,,,,,,0,91,91,101,,,,,,,,,,,,,,,,,,,,,,,LDT,left,0.7504625636917126,0,,,left,0,0.7504625636917126,,,,,,,,,,,,,,,,,,,,1030,2019_Mar_07_1358,mf_amp_cond2,3.0.4,59.98339752443915,
gedious,&&&&&&&,right,nonword,,,,,,0,92,92,128,,,,,,,,,,,,,,,,,,,,,,,LDT,left,0.7337817263849047,0,,,left,0,0.7337817263849047,,,,,,,,,,,,,,,,,,,,1030,2019_Mar_07_1358,mf_amp_cond2,3.0.4,59.98339752443915,
either,&&&&&&,left,neutral,,,,,,0,93,93,63,,,,,,,,,,,,,,,,,,,,,,,LDT,left,1.0505277668107738,1,,,left,1,1.0505277668107738,,,,,,,,,,,,,,,,,,,,1030,2019_Mar_07_1358,mf_amp_cond2,3.0.4,59.98339752443915,
stindig,&&&&&&&,right,nonword,,,,,,0,94,94,18,,,,,,,,,,,,,,,,,,,,,,,LDT,left,0.700451161965816,0,,,left,0,0.700451161965816,,,,,,,,,,,,,,,,,,,,1030,2019_Mar_07_1358,mf_amp_cond2,3.0.4,59.98339752443915,
charges,&&&&&&&,left,fairness.vice,,,,,,0,95,95,150,,,,,,,,,,,,,,,,,,,,,,,LDT,left,1.467304949503614,1,,,left,1,1.467304949503614,,,,,,,,,,,,,,,,,,,,1030,2019_Mar_07_1358,mf_amp_cond2,3.0.4,59.98339752443915,
abointment,&&&&&&&&&&,right,nonword,,,,,,0,96,96,41,,,,,,,,,,,,,,,,,,,,,,,LDT,left,1.8507416253440852,0,,,left,0,1.8507416253440852,,,,,,,,,,,,,,,,,,,,1030,2019_Mar_07_1358,mf_amp_cond2,3.0.4,59.98339752443915,
atson,&&&&&,right,nonword,,,,,,0,97,97,171,,,,,,,,,,,,,,,,,,,,,,,LDT,left,1.4339650840985314,0,,,left,0,1.4339650840985314,,,,,,,,,,,,,,,,,,,,1030,2019_Mar_07_1358,mf_amp_cond2,3.0.4,59.98339752443915,
greaks,&&&&&&,right,nonword,,,,,,0,98,98,132,,,,,,,,,,,,,,,,,,,,,,,LDT,right,0.7004399366378493,1,,,right,1,0.7004399366378493,,,,,,,,,,,,,,,,,,,,1030,2019_Mar_07_1358,mf_amp_cond2,3.0.4,59.98339752443915,
peaceful,&&&&&&&&,left,authority.virtue,,,,,,0,99,99,15,,,,,,,,,,,,,,,,,,,,,,,LDT,right,0.9004900336727815,0,,,right,0,0.9004900336727815,,,,,,,,,,,,,,,,,,,,1030,2019_Mar_07_1358,mf_amp_cond2,3.0.4,59.98339752443915,
precificity,&&&&&&&&&&&,right,nonword,,,,,,0,100,100,113,,,,,,,,,,,,,,,,,,,,,,,LDT,left,0.8671511304386286,0,,,left,0,0.8671511304386286,,,,,,,,,,,,,,,,,,,,1030,2019_Mar_07_1358,mf_amp_cond2,3.0.4,59.98339752443915,
wump,&&&&,right,nonword,,,,,,0,101,101,5,,,,,,,,,,,,,,,,,,,,,,,LDT,left,0.7504548663239348,0,,,left,0,0.7504548663239348,,,,,,,,,,,,,,,,,,,,1030,2019_Mar_07_1358,mf_amp_cond2,3.0.4,59.98339752443915,
sharing,&&&&&&&,left,loyalty.virtue,,,,,,0,102,102,20,,,,,,,,,,,,,,,,,,,,,,,LDT,right,0.7171044170382856,0,,,right,0,0.7171044170382856,,,,,,,,,,,,,,,,,,,,1030,2019_Mar_07_1358,mf_amp_cond2,3.0.4,59.98339752443915,
troops,&&&&&&,left,loyalty.vice,,,,,,0,103,103,43,,,,,,,,,,,,,,,,,,,,,,,LDT,right,0.8338308291764633,0,,,right,0,0.8338308291764633,,,,,,,,,,,,,,,,,,,,1030,2019_Mar_07_1358,mf_amp_cond2,3.0.4,59.98339752443915,
squets,&&&&&&,right,nonword,,,,,,0,104,104,190,,,,,,,,,,,,,,,,,,,,,,,LDT,left,0.6670821107079519,0,,,left,0,0.6670821107079519,,,,,,,,,,,,,,,,,,,,1030,2019_Mar_07_1358,mf_amp_cond2,3.0.4,59.98339752443915,
strofe,&&&&&&,right,nonword,,,,,,0,105,105,156,,,,,,,,,,,,,,,,,,,,,,,LDT,left,1.2505727322671873,0,,,left,0,1.2505727322671873,,,,,,,,,,,,,,,,,,,,1030,2019_Mar_07_1358,mf_amp_cond2,3.0.4,59.98339752443915,
latterly,&&&&&&&&,left,neutral,,,,,,0,106,106,40,,,,,,,,,,,,,,,,,,,,,,,LDT,left,0.8004688338390906,1,,,left,1,0.8004688338390906,,,,,,,,,,,,,,,,,,,,1030,2019_Mar_07_1358,mf_amp_cond2,3.0.4,59.98339752443915,
conspiracy,&&&&&&&&&&,left,sanctity.vice,,,,,,0,107,107,121,,,,,,,,,,,,,,,,,,,,,,,LDT,left,1.1338982773611406,1,,,left,1,1.1338982773611406,,,,,,,,,,,,,,,,,,,,1030,2019_Mar_07_1358,mf_amp_cond2,3.0.4,59.98339752443915,
injured,&&&&&&&,left,care.vice,,,,,,0,108,108,159,,,,,,,,,,,,,,,,,,,,,,,LDT,right,1.7007026093114064,0,,,right,0,1.7007026093114064,,,,,,,,,,,,,,,,,,,,1030,2019_Mar_07_1358,mf_amp_cond2,3.0.4,59.98339752443915,
less,&&&&,left,neutral,,,,,,0,109,109,158,,,,,,,,,,,,,,,,,,,,,,,LDT,right,0.583736937326421,0,,,right,0,0.583736937326421,,,,,,,,,,,,,,,,,,,,1030,2019_Mar_07_1358,mf_amp_cond2,3.0.4,59.98339752443915,
vurtain,&&&&&&&,right,nonword,,,,,,0,110,110,19,,,,,,,,,,,,,,,,,,,,,,,LDT,left,0.5837170524598605,0,,,left,0,0.5837170524598605,,,,,,,,,,,,,,,,,,,,1030,2019_Mar_07_1358,mf_amp_cond2,3.0.4,59.98339752443915,
also,&&&&,left,neutral,,,,,,0,111,111,13,,,,,,,,,,,,,,,,,,,,,,,LDT,left,0.6170838586519949,1,,,left,1,0.6170838586519949,,,,,,,,,,,,,,,,,,,,1030,2019_Mar_07_1358,mf_amp_cond2,3.0.4,59.98339752443915,
crinking,&&&&&&&&,right,nonword,,,,,,0,112,112,130,,,,,,,,,,,,,,,,,,,,,,,LDT,left,0.7337932724365146,0,,,left,0,0.7337932724365146,,,,,,,,,,,,,,,,,,,,1030,2019_Mar_07_1358,mf_amp_cond2,3.0.4,59.98339752443915,
divility,&&&&&&&&,right,nonword,,,,,,0,113,113,93,,,,,,,,,,,,,,,,,,,,,,,LDT,left,0.7838146165956914,0,,,left,0,0.7838146165956914,,,,,,,,,,,,,,,,,,,,1030,2019_Mar_07_1358,mf_amp_cond2,3.0.4,59.98339752443915,
killed,&&&&&&,left,care.vice,,,,,,0,114,114,69,,,,,,,,,,,,,,,,,,,,,,,LDT,left,0.6836195845410202,1,,,left,1,0.6836195845410202,,,,,,,,,,,,,,,,,,,,1030,2019_Mar_07_1358,mf_amp_cond2,3.0.4,59.98339752443915,
terrorists,&&&&&&&&&&,left,fairness.vice,,,,,,0,115,115,170,,,,,,,,,,,,,,,,,,,,,,,LDT,right,1.0338562304899597,0,,,right,0,1.0338562304899597,,,,,,,,,,,,,,,,,,,,1030,2019_Mar_07_1358,mf_amp_cond2,3.0.4,59.98339752443915,
crilfully,&&&&&&&&&,right,nonword,,,,,,0,116,116,97,,,,,,,,,,,,,,,,,,,,,,,LDT,left,1.434004853831766,0,,,left,0,1.434004853831766,,,,,,,,,,,,,,,,,,,,1030,2019_Mar_07_1358,mf_amp_cond2,3.0.4,59.98339752443915,
reviked,&&&&&&&,right,nonword,,,,,,0,117,117,75,,,,,,,,,,,,,,,,,,,,,,,LDT,right,0.5337136688252713,1,,,right,1,0.5337136688252713,,,,,,,,,,,,,,,,,,,,1030,2019_Mar_07_1358,mf_amp_cond2,3.0.4,59.98339752443915,
oam,&&&,right,nonword,,,,,,0,118,118,14,,,,,,,,,,,,,,,,,,,,,,,LDT,left,1.0671890399746644,0,,,left,0,1.0671890399746644,,,,,,,,,,,,,,,,,,,,1030,2019_Mar_07_1358,mf_amp_cond2,3.0.4,59.98339752443915,
Oregoniuns,&&&&&&&&&&,right,nonword,,,,,,0,119,119,2,,,,,,,,,,,,,,,,,,,,,,,LDT,left,0.550483025860899,0,,,left,0,0.550483025860899,,,,,,,,,,,,,,,,,,,,1030,2019_Mar_07_1358,mf_amp_cond2,3.0.4,59.98339752443915,
esquisiteness,&&&&&&&&&&&&&,right,nonword,,,,,,0,120,120,9,,,,,,,,,,,,,,,,,,,,,,,LDT,left,0.6337515462888632,0,,,left,0,0.6337515462888632,,,,,,,,,,,,,,,,,,,,1030,2019_Mar_07_1358,mf_amp_cond2,3.0.4,59.98339752443915,
tomedians,&&&&&&&&&,right,nonword,,,,,,0,121,121,35,,,,,,,,,,,,,,,,,,,,,,,LDT,left,0.6671029577456693,0,,,left,0,0.6671029577456693,,,,,,,,,,,,,,,,,,,,1030,2019_Mar_07_1358,mf_amp_cond2,3.0.4,59.98339752443915,
seem,&&&&,left,neutral,,,,,,0,122,122,189,,,,,,,,,,,,,,,,,,,,,,,LDT,left,1.0503940250465575,1,,,left,1,1.0503940250465575,,,,,,,,,,,,,,,,,,,,1030,2019_Mar_07_1358,mf_amp_cond2,3.0.4,59.98339752443915,
fonderland,&&&&&&&&&&,right,nonword,,,,,,0,123,123,96,,,,,,,,,,,,,,,,,,,,,,,LDT,left,0.7837998633075358,0,,,left,0,0.7837998633075358,,,,,,,,,,,,,,,,,,,,1030,2019_Mar_07_1358,mf_amp_cond2,3.0.4,59.98339752443915,
grovelire,&&&&&&&&&,right,nonword,,,,,,0,124,124,47,,,,,,,,,,,,,,,,,,,,,,,LDT,left,0.7004383330195196,0,,,left,0,0.7004383330195196,,,,,,,,,,,,,,,,,,,,1030,2019_Mar_07_1358,mf_amp_cond2,3.0.4,59.98339752443915,
become,&&&&&&,left,neutral,,,,,,0,125,125,61,,,,,,,,,,,,,,,,,,,,,,,LDT,right,0.6670975054435075,0,,,right,0,0.6670975054435075,,,,,,,,,,,,,,,,,,,,1030,2019_Mar_07_1358,mf_amp_cond2,3.0.4,59.98339752443915,
gaultless,&&&&&&&&&,right,nonword,,,,,,0,126,126,25,,,,,,,,,,,,,,,,,,,,,,,LDT,left,0.8004637022606857,0,,,left,0,0.8004637022606857,,,,,,,,,,,,,,,,,,,,1030,2019_Mar_07_1358,mf_amp_cond2,3.0.4,59.98339752443915,
been,&&&&,left,neutral,,,,,,0,127,127,26,,,,,,,,,,,,,,,,,,,,,,,LDT,left,0.6170662188509368,1,,,left,1,0.6170662188509368,,,,,,,,,,,,,,,,,,,,1030,2019_Mar_07_1358,mf_amp_cond2,3.0.4,59.98339752443915,
ebbitter,&&&&&&&&,right,nonword,,,,,,0,128,128,67,,,,,,,,,,,,,,,,,,,,,,,LDT,right,2.6342688735447837,1,,,right,1,2.6342688735447837,,,,,,,,,,,,,,,,,,,,1030,2019_Mar_07_1358,mf_amp_cond2,3.0.4,59.98339752443915,
betrayal,&&&&&&&&,left,loyalty.vice,,,,,,0,129,129,138,,,,,,,,,,,,,,,,,,,,,,,LDT,left,1.2839135598433131,1,,,left,1,1.2839135598433131,,,,,,,,,,,,,,,,,,,,1030,2019_Mar_07_1358,mf_amp_cond2,3.0.4,59.98339752443915,
although,&&&&&&&&,left,neutral,,,,,,0,130,130,112,,,,,,,,,,,,,,,,,,,,,,,LDT,left,0.5670577036379427,1,,,left,1,0.5670577036379427,,,,,,,,,,,,,,,,,,,,1030,2019_Mar_07_1358,mf_amp_cond2,3.0.4,59.98339752443915,
couldnt,&&&&&&&,left,neutral,,,,,,0,131,131,124,,,,,,,,,,,,,,,,,,,,,,,LDT,left,0.6504266105698662,1,,,left,1,0.6504266105698662,,,,,,,,,,,,,,,,,,,,1030,2019_Mar_07_1358,mf_amp_cond2,3.0.4,59.98339752443915,
energy,&&&&&&,left,sanctity.virtue,,,,,,0,132,132,187,,,,,,,,,,,,,,,,,,,,,,,LDT,left,0.7171438660477634,1,,,left,1,0.7171438660477634,,,,,,,,,,,,,,,,,,,,1030,2019_Mar_07_1358,mf_amp_cond2,3.0.4,59.98339752443915,
alar,&&&&,right,nonword,,,,,,0,133,133,177,,,,,,,,,,,,,,,,,,,,,,,LDT,left,1.7840602909155905,0,,,left,0,1.7840602909155905,,,,,,,,,,,,,,,,,,,,1030,2019_Mar_07_1358,mf_amp_cond2,3.0.4,59.98339752443915,
protect,&&&&&&&,left,fairness.virtue,,,,,,0,134,134,82,,,,,,,,,,,,,,,,,,,,,,,LDT,left,0.7171060206565016,1,,,left,1,0.7171060206565016,,,,,,,,,,,,,,,,,,,,1030,2019_Mar_07_1358,mf_amp_cond2,3.0.4,59.98339752443915,
troubla,&&&&&&&,right,nonword,,,,,,0,135,135,60,,,,,,,,,,,,,,,,,,,,,,,LDT,left,0.6670686403144828,0,,,left,0,0.6670686403144828,,,,,,,,,,,,,,,,,,,,1030,2019_Mar_07_1358,mf_amp_cond2,3.0.4,59.98339752443915,
safety,&&&&&&,left,care.virtue,,,,,,0,136,136,51,,,,,,,,,,,,,,,,,,,,,,,LDT,right,1.2505929378576184,0,,,right,0,1.2505929378576184,,,,,,,,,,,,,,,,,,,,1030,2019_Mar_07_1358,mf_amp_cond2,3.0.4,59.98339752443915,
victims,&&&&&&&,left,care.vice,,,,,,0,137,137,22,,,,,,,,,,,,,,,,,,,,,,,LDT,right,0.6170649359562503,0,,,right,0,0.6170649359562503,,,,,,,,,,,,,,,,,,,,1030,2019_Mar_07_1358,mf_amp_cond2,3.0.4,59.98339752443915,
egpeditious,&&&&&&&&&&&,right,nonword,,,,,,0,138,138,127,,,,,,,,,,,,,,,,,,,,,,,LDT,left,1.0005237417288981,0,,,left,0,1.0005237417288981,,,,,,,,,,,,,,,,,,,,1030,2019_Mar_07_1358,mf_amp_cond2,3.0.4,59.98339752443915,
police,&&&&&&,left,authority.vice,,,,,,0,139,139,37,,,,,,,,,,,,,,,,,,,,,,,LDT,right,0.6337586022093546,0,,,right,0,0.6337586022093546,,,,,,,,,,,,,,,,,,,,1030,2019_Mar_07_1358,mf_amp_cond2,3.0.4,59.98339752443915,
lorthwhile,&&&&&&&&&&,right,nonword,,,,,,0,140,140,85,,,,,,,,,,,,,,,,,,,,,,,LDT,left,0.9004951652513,0,,,left,0,0.9004951652513,,,,,,,,,,,,,,,,,,,,1030,2019_Mar_07_1358,mf_amp_cond2,3.0.4,59.98339752443915,
give,&&&&,left,neutral,,,,,,0,141,141,36,,,,,,,,,,,,,,,,,,,,,,,LDT,right,0.8338096614152164,0,,,right,0,0.8338096614152164,,,,,,,,,,,,,,,,,,,,1030,2019_Mar_07_1358,mf_amp_cond2,3.0.4,59.98339752443915,
disregord,&&&&&&&&&,right,nonword,,,,,,0,142,142,123,,,,,,,,,,,,,,,,,,,,,,,LDT,left,0.7171185288790412,0,,,left,0,0.7171185288790412,,,,,,,,,,,,,,,,,,,,1030,2019_Mar_07_1358,mf_amp_cond2,3.0.4,59.98339752443915,
prones,&&&&&&,right,nonword,,,,,,0,143,143,105,,,,,,,,,,,,,,,,,,,,,,,LDT,left,1.567336091770585,0,,,left,0,1.567336091770585,,,,,,,,,,,,,,,,,,,,1030,2019_Mar_07_1358,mf_amp_cond2,3.0.4,59.98339752443915,
mecan,&&&&&,right,nonword,,,,,,0,144,144,192,,,,,,,,,,,,,,,,,,,,,,,LDT,left,1.0672012274735607,0,,,left,0,1.0672012274735607,,,,,,,,,,,,,,,,,,,,1030,2019_Mar_07_1358,mf_amp_cond2,3.0.4,59.98339752443915,
somehow,&&&&&&&,left,neutral,,,,,,0,145,145,185,,,,,,,,,,,,,,,,,,,,,,,LDT,right,0.6170758405605739,0,,,right,0,0.6170758405605739,,,,,,,,,,,,,,,,,,,,1030,2019_Mar_07_1358,mf_amp_cond2,3.0.4,59.98339752443915,
aubos,&&&&&,right,nonword,,,,,,0,146,146,33,,,,,,,,,,,,,,,,,,,,,,,LDT,left,0.6837645516330895,0,,,left,0,0.6837645516330895,,,,,,,,,,,,,,,,,,,,1030,2019_Mar_07_1358,mf_amp_cond2,3.0.4,59.98339752443915,
clean,&&&&&,left,sanctity.virtue,,,,,,0,147,147,196,,,,,,,,,,,,,,,,,,,,,,,LDT,left,1.6673733277868905,1,,,left,1,1.6673733277868905,,,,,,,,,,,,,,,,,,,,1030,2019_Mar_07_1358,mf_amp_cond2,3.0.4,59.98339752443915,
hereby,&&&&&&,left,neutral,,,,,,0,148,148,91,,,,,,,,,,,,,,,,,,,,,,,LDT,left,0.9505046426352237,1,,,left,1,0.9505046426352237,,,,,,,,,,,,,,,,,,,,1030,2019_Mar_07_1358,mf_amp_cond2,3.0.4,59.98339752443915,
anything,&&&&&&&&,left,neutral,,,,,,0,149,149,77,,,,,,,,,,,,,,,,,,,,,,,LDT,right,0.9838820327080384,0,,,right,0,0.9838820327080384,,,,,,,,,,,,,,,,,,,,1030,2019_Mar_07_1358,mf_amp_cond2,3.0.4,59.98339752443915,
gikely,&&&&&&,right,nonword,,,,,,0,150,150,149,,,,,,,,,,,,,,,,,,,,,,,LDT,left,0.6504243655043638,0,,,left,0,0.6504243655043638,,,,,,,,,,,,,,,,,,,,1030,2019_Mar_07_1358,mf_amp_cond2,3.0.4,59.98339752443915,
attacks,&&&&&&&,left,care.vice,,,,,,0,151,151,55,,,,,,,,,,,,,,,,,,,,,,,LDT,left,0.7504433202724385,1,,,left,1,0.7504433202724385,,,,,,,,,,,,,,,,,,,,1030,2019_Mar_07_1358,mf_amp_cond2,3.0.4,59.98339752443915,
ecgagement,&&&&&&&&&&,None,nonword,,,,,,0,152,152,28,,,,,,,,,,,,,,,,,,,,,,,LDT,left,0.7337826885558343,0,,,left,0,0.7337826885558343,,,,,,,,,,,,,,,,,,,,1030,2019_Mar_07_1358,mf_amp_cond2,3.0.4,59.98339752443915,
Lacedonia,&&&&&&&&&,right,nonword,,,,,,0,153,153,56,,,,,,,,,,,,,,,,,,,,,,,LDT,left,0.9838429044220902,0,,,left,0,0.9838429044220902,,,,,,,,,,,,,,,,,,,,1030,2019_Mar_07_1358,mf_amp_cond2,3.0.4,59.98339752443915,
praised,&&&&&&&,left,loyalty.virtue,,,,,,0,154,154,116,,,,,,,,,,,,,,,,,,,,,,,LDT,left,2.167475798994815,1,,,left,1,2.167475798994815,,,,,,,,,,,,,,,,,,,,1030,2019_Mar_07_1358,mf_amp_cond2,3.0.4,59.98339752443915,
restore,&&&&&&&,left,care.virtue,,,,,,0,155,155,100,,,,,,,,,,,,,,,,,,,,,,,LDT,right,0.5004033099963863,0,,,right,0,0.5004033099963863,,,,,,,,,,,,,,,,,,,,1030,2019_Mar_07_1358,mf_amp_cond2,3.0.4,59.98339752443915,
framo,&&&&&,right,nonword,,,,,,0,156,156,6,,,,,,,,,,,,,,,,,,,,,,,LDT,left,0.750478599874441,0,,,left,0,0.750478599874441,,,,,,,,,,,,,,,,,,,,1030,2019_Mar_07_1358,mf_amp_cond2,3.0.4,59.98339752443915,
forty,&&&&&,left,neutral,,,,,,0,157,157,148,,,,,,,,,,,,,,,,,,,,,,,LDT,right,0.8169780839905343,0,,,right,0,0.8169780839905343,,,,,,,,,,,,,,,,,,,,1030,2019_Mar_07_1358,mf_amp_cond2,3.0.4,59.98339752443915,
gournful,&&&&&&&&,right,nonword,,,,,,0,158,158,74,,,,,,,,,,,,,,,,,,,,,,,LDT,left,0.6171063093078146,0,,,left,0,0.6171063093078146,,,,,,,,,,,,,,,,,,,,1030,2019_Mar_07_1358,mf_amp_cond2,3.0.4,59.98339752443915,
drumbled,&&&&&&&&,right,nonword,,,,,,0,159,159,135,,,,,,,,,,,,,,,,,,,,,,,LDT,right,0.8338086992442868,1,,,right,1,0.8338086992442868,,,,,,,,,,,,,,,,,,,,1030,2019_Mar_07_1358,mf_amp_cond2,3.0.4,59.98339752443915,
latter,&&&&&&,left,neutral,,,,,,0,160,160,162,,,,,,,,,,,,,,,,,,,,,,,LDT,left,0.7337634451364465,1,,,left,1,0.7337634451364465,,,,,,,,,,,,,,,,,,,,1030,2019_Mar_07_1358,mf_amp_cond2,3.0.4,59.98339752443915,
supervuned,&&&&&&&&&&,right,nonword,,,,,,0,161,161,98,,,,,,,,,,,,,,,,,,,,,,,LDT,left,0.9671934980334527,0,,,left,0,0.9671934980334527,,,,,,,,,,,,,,,,,,,,1030,2019_Mar_07_1358,mf_amp_cond2,3.0.4,59.98339752443915,
infet,&&&&&,right,nonword,,,,,,0,162,162,66,,,,,,,,,,,,,,,,,,,,,,,LDT,left,0.8171329935159974,0,,,left,0,0.8171329935159974,,,,,,,,,,,,,,,,,,,,1030,2019_Mar_07_1358,mf_amp_cond2,3.0.4,59.98339752443915,
win,&&&,left,fairness.virtue,,,,,,0,163,163,70,,,,,,,,,,,,,,,,,,,,,,,LDT,left,0.7671225539609168,1,,,left,1,0.7671225539609168,,,,,,,,,,,,,,,,,,,,1030,2019_Mar_07_1358,mf_amp_cond2,3.0.4,59.98339752443915,
shoirmaster,&&&&&&&&&&&,None,nonword,,,,,,0,164,164,17,,,,,,,,,,,,,,,,,,,,,,,LDT,left,1.1338880142041035,0,,,left,0,1.1338880142041035,,,,,,,,,,,,,,,,,,,,1030,2019_Mar_07_1358,mf_amp_cond2,3.0.4,59.98339752443915,
epigrach,&&&&&&&&,right,nonword,,,,,,0,165,165,129,,,,,,,,,,,,,,,,,,,,,,,LDT,left,1.0338369870707993,0,,,left,0,1.0338369870707993,,,,,,,,,,,,,,,,,,,,1030,2019_Mar_07_1358,mf_amp_cond2,3.0.4,59.98339752443915,
growth,&&&&&&,left,care.virtue,,,,,,0,166,166,147,,,,,,,,,,,,,,,,,,,,,,,LDT,left,2.000770378219613,1,,,left,1,2.000770378219613,,,,,,,,,,,,,,,,,,,,1030,2019_Mar_07_1358,mf_amp_cond2,3.0.4,59.98339752443915,
corruption,&&&&&&&&&&,left,sanctity.vice,,,,,,0,167,167,38,,,,,,,,,,,,,,,,,,,,,,,LDT,right,1.8507990348784915,0,,,right,0,1.8507990348784915,,,,,,,,,,,,,,,,,,,,1030,2019_Mar_07_1358,mf_amp_cond2,3.0.4,59.98339752443915,
dormandi,&&&&&&&&,None,nonword,,,,,,0,168,168,161,,,,,,,,,,,,,,,,,,,,,,,LDT,left,0.6837700039352512,0,,,left,0,0.6837700039352512,,,,,,,,,,,,,,,,,,,,1030,2019_Mar_07_1358,mf_amp_cond2,3.0.4,59.98339752443915,
sidearbs,&&&&&&&&,right,nonword,,,,,,0,169,169,134,,,,,,,,,,,,,,,,,,,,,,,LDT,left,1.800731506512875,0,,,left,0,1.800731506512875,,,,,,,,,,,,,,,,,,,,1030,2019_Mar_07_1358,mf_amp_cond2,3.0.4,59.98339752443915,
wonderfujnoss,&&&&&&&&&&&&&,right,nonword,,,,,,0,170,170,84,,,,,,,,,,,,,,,,,,,,,,,LDT,left,1.8673865416014905,0,,,left,0,1.8673865416014905,,,,,,,,,,,,,,,,,,,,1030,2019_Mar_07_1358,mf_amp_cond2,3.0.4,59.98339752443915,
tislay,&&&&&&,right,nonword,,,,,,0,171,171,120,,,,,,,,,,,,,,,,,,,,,,,LDT,left,1.2339169114056858,0,,,left,0,1.2339169114056858,,,,,,,,,,,,,,,,,,,,1030,2019_Mar_07_1358,mf_amp_cond2,3.0.4,59.98339752443915,
scock,&&&&&,right,nonword,,,,,,0,172,172,0,,,,,,,,,,,,,,,,,,,,,,,LDT,left,0.8169697451753564,0,,,left,0,0.8169697451753564,,,,,,,,,,,,,,,,,,,,1030,2019_Mar_07_1358,mf_amp_cond2,3.0.4,59.98339752443915,
besides,&&&&&&&,left,neutral,,,,,,0,173,173,115,,,,,,,,,,,,,,,,,,,,,,,LDT,left,1.5339763414988283,1,,,left,1,1.5339763414988283,,,,,,,,,,,,,,,,,,,,1030,2019_Mar_07_1358,mf_amp_cond2,3.0.4,59.98339752443915,
mightingale,&&&&&&&&&&&,right,nonword,,,,,,0,174,174,117,,,,,,,,,,,,,,,,,,,,,,,LDT,left,0.9338491424973654,0,,,left,0,0.9338491424973654,,,,,,,,,,,,,,,,,,,,1030,2019_Mar_07_1358,mf_amp_cond2,3.0.4,59.98339752443915,
glacenta,&&&&&&&&,right,nonword,,,,,,0,175,175,4,,,,,,,,,,,,,,,,,,,,,,,LDT,left,1.9674340407748332,0,,,left,0,1.9674340407748332,,,,,,,,,,,,,,,,,,,,1030,2019_Mar_07_1358,mf_amp_cond2,3.0.4,59.98339752443915,
clamorek,&&&&&&&&,right,nonword,,,,,,0,176,176,16,,,,,,,,,,,,,,,,,,,,,,,LDT,left,0.6170774441786762,0,,,left,0,0.6170774441786762,,,,,,,,,,,,,,,,,,,,1030,2019_Mar_07_1358,mf_amp_cond2,3.0.4,59.98339752443915,
brotesque,&&&&&&&&&,right,nonword,,,,,,0,177,177,111,,,,,,,,,,,,,,,,,,,,,,,LDT,left,1.1672201822416355,0,,,left,0,1.1672201822416355,,,,,,,,,,,,,,,,,,,,1030,2019_Mar_07_1358,mf_amp_cond2,3.0.4,59.98339752443915,
amount,&&&&&&,left,neutral,,,,,,0,178,178,173,,,,,,,,,,,,,,,,,,,,,,,LDT,right,0.6504266105698662,0,,,right,0,0.6504266105698662,,,,,,,,,,,,,,,,,,,,1030,2019_Mar_07_1358,mf_amp_cond2,3.0.4,59.98339752443915,
health,&&&&&&,left,care.virtue,,,,,,0,179,179,169,,,,,,,,,,,,,,,,,,,,,,,LDT,right,0.7504657709282583,0,,,right,0,0.7504657709282583,,,,,,,,,,,,,,,,,,,,1030,2019_Mar_07_1358,mf_amp_cond2,3.0.4,59.98339752443915,
promote,&&&&&&&,left,sanctity.virtue,,,,,,0,180,180,125,,,,,,,,,,,,,,,,,,,,,,,LDT,left,2.2008243239386047,1,,,left,1,2.2008243239386047,,,,,,,,,,,,,,,,,,,,1030,2019_Mar_07_1358,mf_amp_cond2,3.0.4,59.98339752443915,
there,&&&&&,left,neutral,,,,,,0,181,181,174,,,,,,,,,,,,,,,,,,,,,,,LDT,right,1.217253393176179,0,,,right,0,1.217253393176179,,,,,,,,,,,,,,,,,,,,1030,2019_Mar_07_1358,mf_amp_cond2,3.0.4,59.98339752443915,
party,&&&&&,left,loyalty.virtue,,,,,,0,182,182,110,,,,,,,,,,,,,,,,,,,,,,,LDT,right,0.76714372172205,0,,,right,0,0.76714372172205,,,,,,,,,,,,,,,,,,,,1030,2019_Mar_07_1358,mf_amp_cond2,3.0.4,59.98339752443915,
front,&&&&&,left,neutral,,,,,,0,183,183,164,,,,,,,,,,,,,,,,,,,,,,,LDT,left,0.7838316149493494,1,,,left,1,0.7838316149493494,,,,,,,,,,,,,,,,,,,,1030,2019_Mar_07_1358,mf_amp_cond2,3.0.4,59.98339752443915,
eight,&&&&&,left,neutral,,,,,,0,184,184,154,,,,,,,,,,,,,,,,,,,,,,,LDT,right,0.5337351573102751,0,,,right,0,0.5337351573102751,,,,,,,,,,,,,,,,,,,,1030,2019_Mar_07_1358,mf_amp_cond2,3.0.4,59.98339752443915,
forepo,&&&&&&,right,nonword,,,,,,0,185,185,1,,,,,,,,,,,,,,,,,,,,,,,LDT,left,0.7337839714505208,0,,,left,0,0.7337839714505208,,,,,,,,,,,,,,,,,,,,1030,2019_Mar_07_1358,mf_amp_cond2,3.0.4,59.98339752443915,
toward,&&&&&&,left,neutral,,,,,,0,186,186,163,,,,,,,,,,,,,,,,,,,,,,,LDT,left,1.6840208098337826,1,,,left,1,1.6840208098337826,,,,,,,,,,,,,,,,,,,,1030,2019_Mar_07_1358,mf_amp_cond2,3.0.4,59.98339752443915,
fornicalion,&&&&&&&&&&&,right,nonword,,,,,,0,187,187,175,,,,,,,,,,,,,,,,,,,,,,,LDT,left,2.817659301034155,0,,,left,0,2.817659301034155,,,,,,,,,,,,,,,,,,,,1030,2019_Mar_07_1358,mf_amp_cond2,3.0.4,59.98339752443915,
free,&&&&,left,fairness.virtue,,,,,,0,188,188,89,,,,,,,,,,,,,,,,,,,,,,,LDT,right,1.4006149555364118,0,,,right,0,1.4006149555364118,,,,,,,,,,,,,,,,,,,,1030,2019_Mar_07_1358,mf_amp_cond2,3.0.4,59.98339752443915,
noone,&&&&&,left,neutral,,,,,,0,189,189,197,,,,,,,,,,,,,,,,,,,,,,,LDT,right,1.0171975231153283,0,,,right,0,1.0171975231153283,,,,,,,,,,,,,,,,,,,,1030,2019_Mar_07_1358,mf_amp_cond2,3.0.4,59.98339752443915,
fear,&&&&,left,sanctity.vice,,,,,,0,190,190,86,,,,,,,,,,,,,,,,,,,,,,,LDT,right,0.500381180064096,0,,,right,0,0.500381180064096,,,,,,,,,,,,,,,,,,,,1030,2019_Mar_07_1358,mf_amp_cond2,3.0.4,59.98339752443915,
mostly,&&&&&&,left,neutral,,,,,,0,191,191,3,,,,,,,,,,,,,,,,,,,,,,,LDT,right,0.5837202596965199,0,,,right,0,0.5837202596965199,,,,,,,,,,,,,,,,,,,,1030,2019_Mar_07_1358,mf_amp_cond2,3.0.4,59.98339752443915,
wherever,&&&&&&&&,left,neutral,,,,,,0,192,192,104,,,,,,,,,,,,,,,,,,,,,,,LDT,right,0.6337518670127338,0,,,right,0,0.6337518670127338,,,,,,,,,,,,,,,,,,,,1030,2019_Mar_07_1358,mf_amp_cond2,3.0.4,59.98339752443915,
further,&&&&&&&,left,neutral,,,,,,0,193,193,151,,,,,,,,,,,,,,,,,,,,,,,LDT,right,0.4836916832186944,0,,,right,0,0.4836916832186944,,,,,,,,,,,,,,,,,,,,1030,2019_Mar_07_1358,mf_amp_cond2,3.0.4,59.98339752443915,
halaise,&&&&&&&,None,nonword,,,,,,0,194,194,141,,,,,,,,,,,,,,,,,,,,,,,LDT,left,0.8338247354270152,0,,,left,0,0.8338247354270152,,,,,,,,,,,,,,,,,,,,1030,2019_Mar_07_1358,mf_amp_cond2,3.0.4,59.98339752443915,
honstables,&&&&&&&&&&,right,nonword,,,,,,0,195,195,44,,,,,,,,,,,,,,,,,,,,,,,LDT,left,0.850479273394285,0,,,left,0,0.850479273394285,,,,,,,,,,,,,,,,,,,,1030,2019_Mar_07_1358,mf_amp_cond2,3.0.4,59.98339752443915,
dramens,&&&&&&&,right,nonword,,,,,,0,196,196,119,,,,,,,,,,,,,,,,,,,,,,,LDT,right,0.567055458572213,1,,,right,1,0.567055458572213,,,,,,,,,,,,,,,,,,,,1030,2019_Mar_07_1358,mf_amp_cond2,3.0.4,59.98339752443915,
refuejing,&&&&&&&&&,right,nonword,,,,,,0,197,197,53,,,,,,,,,,,,,,,,,,,,,,,LDT,right,1.3172736308385993,1,,,right,1,1.3172736308385993,,,,,,,,,,,,,,,,,,,,1030,2019_Mar_07_1358,mf_amp_cond2,3.0.4,59.98339752443915,
taxpayung,&&&&&&&&&,right,nonword,,,,,,0,198,198,167,,,,,,,,,,,,,,,,,,,,,,,LDT,left,1.0003572861519388,0,,,left,0,1.0003572861519388,,,,,,,,,,,,,,,,,,,,1030,2019_Mar_07_1358,mf_amp_cond2,3.0.4,59.98339752443915,
uller,&&&&&,right,nonword,,,,,,0,199,199,102,,,,,,,,,,,,,,,,,,,,,,,LDT,left,0.7504468482327411,0,,,left,0,0.7504468482327411,,,,,,,,,,,,,,,,,,,,1030,2019_Mar_07_1358,mf_amp_cond2,3.0.4,59.98339752443915,
,,,,,,,,,,,,,,,,,,,,,,,,,,,,,,,,,,,,,,,,,,,,6,31.46,,,,,,,,,,,,,,,,,,1030,2019_Mar_07_1358,mf_amp_cond2,3.0.4,59.98339752443915,
,,,,,,,,,,,,,,,,,,,,,,,,,,,,,,,,,,,,,,,,,,,,,,right,1.584023343550598,,,,,,,,,,,,,,,,1030,2019_Mar_07_1358,mf_amp_cond2,3.0.4,59.98339752443915,
keyboard,&&&&,,,senk,,,,,,,,,0,0,0,2,,,,,,,,,,,,,,,,,,,AMP_prac,right,4.368053165718948,,,,,,,,,,,right,4.368053165718948,,,,,,,,,,,,,,1030,2019_Mar_07_1358,mf_amp_cond2,3.0.4,59.98339752443915,
scarf,&&&&&&&&,,,bisebell,,,,,,,,,0,1,1,3,,,,,,,,,,,,,,,,,,,AMP_prac,right,4.701480043451738,,,,,,,,,,,right,4.701480043451738,,,,,,,,,,,,,,1030,2019_Mar_07_1358,mf_amp_cond2,3.0.4,59.98339752443915,
banana,&&&&&&,,,kacket,,,,,,,,,0,2,2,1,,,,,,,,,,,,,,,,,,,AMP_prac,left,2.4842237637626567,,,,,,,,,,,left,2.4842237637626567,,,,,,,,,,,,,,1030,2019_Mar_07_1358,mf_amp_cond2,3.0.4,59.98339752443915,
car,&&&&&&&&,,,cemtuper,,,,,,,,,0,3,3,0,,,,,,,,,,,,,,,,,,,AMP_prac,left,1.667356008709703,,,,,,,,,,,left,1.667356008709703,,,,,,,,,,,,,,1030,2019_Mar_07_1358,mf_amp_cond2,3.0.4,59.98339752443915,
,,,,,,,,,,,,,,,,,,,,,,,,,,,,,,,,,,,,,,,,,,,,,,,,,,right,1.2171738537097099,,,,,,,,,,,,1030,2019_Mar_07_1358,mf_amp_cond2,3.0.4,59.98339752443915,
promises,&&&&&&&&&&&,left,fairness.virtue,cromiscuity,,,,,,,,,,,,,0,0,0,221,,,,,,,,,,,,,,,AMP,left,3.4511465710311313,1,,,,,,,,,,,,,,left,1,3.4511465710311313,,,,,,,,,1030,2019_Mar_07_1358,mf_amp_cond2,3.0.4,59.98339752443915,
civilians,&&&&&&&,right,care.vice,Loorish,,,,,,,,,,,,,0,1,1,47,,,,,,,,,,,,,,,AMP,left,0.6671010334036964,0,,,,,,,,,,,,,,left,0,0.6671010334036964,,,,,,,,,1030,2019_Mar_07_1358,mf_amp_cond2,3.0.4,59.98339752443915,
harassment,&&&&&,right,sanctity.vice,noped,,,,,,,,,,,,,0,2,2,151,,,,,,,,,,,,,,,AMP,left,1.2338890084477043,0,,,,,,,,,,,,,,left,0,1.2338890084477043,,,,,,,,,1030,2019_Mar_07_1358,mf_amp_cond2,3.0.4,59.98339752443915,
hand,&&&&&&&&&,left,sanctity.virtue,rivernoat,,,,,,,,,,,,,0,3,3,282,,,,,,,,,,,,,,,AMP,right,1.0338706630545857,0,,,,,,,,,,,,,,right,0,1.0338706630545857,,,,,,,,,1030,2019_Mar_07_1358,mf_amp_cond2,3.0.4,59.98339752443915,
racist,&&&&&&&&&&,right,sanctity.vice,chonograph,,,,,,,,,,,,,0,4,4,288,,,,,,,,,,,,,,,AMP,left,1.4339577074545105,0,,,,,,,,,,,,,,left,0,1.4339577074545105,,,,,,,,,1030,2019_Mar_07_1358,mf_amp_cond2,3.0.4,59.98339752443915,
credit,&&&&&&&&&,left,fairness.virtue,reprisols,,,,,,,,,,,,,0,5,5,290,,,,,,,,,,,,,,,AMP,left,2.0174483290138596,1,,,,,,,,,,,,,,left,1,2.0174483290138596,,,,,,,,,1030,2019_Mar_07_1358,mf_amp_cond2,3.0.4,59.98339752443915,
critics,&&&&&&&&,right,loyalty.vice,suggists,,,,,,,,,,,,,0,6,6,233,,,,,,,,,,,,,,,AMP,left,4.101330393794115,0,,,,,,,,,,,,,,left,0,4.101330393794115,,,,,,,,,1030,2019_Mar_07_1358,mf_amp_cond2,3.0.4,59.98339752443915,
powerful,&&&&&,left,authority.virtue,pulge,,,,,,,,,,,,,0,7,7,52,,,,,,,,,,,,,,,AMP,left,0.7837886379795691,1,,,,,,,,,,,,,,left,1,0.7837886379795691,,,,,,,,,1030,2019_Mar_07_1358,mf_amp_cond2,3.0.4,59.98339752443915,
died,&&&&,right,care.vice,juck,,,,,,,,,,,,,0,8,8,295,,,,,,,,,,,,,,,AMP,right,5.735058847979872,1,,,,,,,,,,,,,,right,1,5.735058847979872,,,,,,,,,1030,2019_Mar_07_1358,mf_amp_cond2,3.0.4,59.98339752443915,
help,&&&&&&&,left,care.virtue,lursuer,,,,,,,,,,,,,0,9,9,191,,,,,,,,,,,,,,,AMP,right,2.117471773912939,0,,,,,,,,,,,,,,right,0,2.117471773912939,,,,,,,,,1030,2019_Mar_07_1358,mf_amp_cond2,3.0.4,59.98339752443915,
ban,&&&&&&&&&&&,right,loyalty.vice,sowntrodden,,,,,,,,,,,,,0,10,10,255,,,,,,,,,,,,,,,AMP,left,1.4506266779862926,0,,,,,,,,,,,,,,left,0,1.4506266779862926,,,,,,,,,1030,2019_Mar_07_1358,mf_amp_cond2,3.0.4,59.98339752443915,
illegal,&&&&&&&&&&&,right,fairness.vice,ronviolence,,,,,,,,,,,,,0,11,11,298,,,,,,,,,,,,,,,AMP,left,1.7340460026766777,0,,,,,,,,,,,,,,left,0,1.7340460026766777,,,,,,,,,1030,2019_Mar_07_1358,mf_amp_cond2,3.0.4,59.98339752443915,
hate,&&&&&&&&&&&,right,fairness.vice,neneficence,,,,,,,,,,,,,0,12,12,108,,,,,,,,,,,,,,,AMP,left,0.7171210946683004,0,,,,,,,,,,,,,,left,0,0.7171210946683004,,,,,,,,,1030,2019_Mar_07_1358,mf_amp_cond2,3.0.4,59.98339752443915,
hope,&&&&&&&&&&,left,loyalty.virtue,pistraught,,,,,,,,,,,,,0,13,13,130,,,,,,,,,,,,,,,AMP,left,1.3005950385975211,1,,,,,,,,,,,,,,left,1,1.3005950385975211,,,,,,,,,1030,2019_Mar_07_1358,mf_amp_cond2,3.0.4,59.98339752443915,
dignity,&&&&&&&&&&,left,sanctity.virtue,elduringly,,,,,,,,,,,,,0,14,14,31,,,,,,,,,,,,,,,AMP,left,1.017207144825079,1,,,,,,,,,,,,,,left,1,1.017207144825079,,,,,,,,,1030,2019_Mar_07_1358,mf_amp_cond2,3.0.4,59.98339752443915,
hope,&&&&&&&&&&&,left,loyalty.virtue,hefurbished,,,,,,,,,,,,,0,15,15,36,,,,,,,,,,,,,,,AMP,left,0.7170765140801905,1,,,,,,,,,,,,,,left,1,0.7170765140801905,,,,,,,,,1030,2019_Mar_07_1358,mf_amp_cond2,3.0.4,59.98339752443915,
perfect,&&&&&&,left,sanctity.virtue,pumber,,,,,,,,,,,,,0,16,16,201,,,,,,,,,,,,,,,AMP,right,0.9837014652900962,0,,,,,,,,,,,,,,right,0,0.9837014652900962,,,,,,,,,1030,2019_Mar_07_1358,mf_amp_cond2,3.0.4,59.98339752443915,
violence,&&&&&&&&,right,care.vice,sliptery,,,,,,,,,,,,,0,17,17,76,,,,,,,,,,,,,,,AMP,left,2.0674578063976696,0,,,,,,,,,,,,,,left,0,2.0674578063976696,,,,,,,,,1030,2019_Mar_07_1358,mf_amp_cond2,3.0.4,59.98339752443915,
interests,&&&&&&,left,fairness.virtue,letish,,,,,,,,,,,,,0,18,18,98,,,,,,,,,,,,,,,AMP,right,3.067571342571682,0,,,,,,,,,,,,,,right,0,3.067571342571682,,,,,,,,,1030,2019_Mar_07_1358,mf_amp_cond2,3.0.4,59.98339752443915,
fraud,&&&&&&&&&,right,fairness.vice,reprisols,,,,,,,,,,,,,0,19,19,6,,,,,,,,,,,,,,,AMP,left,0.8338176795066374,0,,,,,,,,,,,,,,left,0,0.8338176795066374,,,,,,,,,1030,2019_Mar_07_1358,mf_amp_cond2,3.0.4,59.98339752443915,
faith,&&&&&,left,sanctity.virtue,noped,,,,,,,,,,,,,0,20,20,66,,,,,,,,,,,,,,,AMP,left,2.784314624774197,1,,,,,,,,,,,,,,left,1,2.784314624774197,,,,,,,,,1030,2019_Mar_07_1358,mf_amp_cond2,3.0.4,59.98339752443915,
great,&&&&&&,left,loyalty.virtue,erdest,,,,,,,,,,,,,0,21,21,177,,,,,,,,,,,,,,,AMP,left,2.6009367055073653,1,,,,,,,,,,,,,,left,1,2.6009367055073653,,,,,,,,,1030,2019_Mar_07_1358,mf_amp_cond2,3.0.4,59.98339752443915,
rejected,&&&&&&&&,right,authority.vice,suggists,,,,,,,,,,,,,0,22,22,279,,,,,,,,,,,,,,,AMP,left,1.200556198962886,0,,,,,,,,,,,,,,left,0,1.200556198962886,,,,,,,,,1030,2019_Mar_07_1358,mf_amp_cond2,3.0.4,59.98339752443915,
intelligence,&&&&&&&&&&,left,loyalty.virtue,gationwide,,,,,,,,,,,,,0,23,23,256,,,,,,,,,,,,,,,AMP,left,0.8004665887735882,1,,,,,,,,,,,,,,left,1,0.8004665887735882,,,,,,,,,1030,2019_Mar_07_1358,mf_amp_cond2,3.0.4,59.98339752443915,
penalty,&&&&&&&&&&,right,authority.vice,frocessing,,,,,,,,,,,,,0,24,24,227,,,,,,,,,,,,,,,AMP,left,0.43369086537336443,0,,,,,,,,,,,,,,left,0,0.43369086537336443,,,,,,,,,1030,2019_Mar_07_1358,mf_amp_cond2,3.0.4,59.98339752443915,
commitment,&&&&&&&,left,sanctity.virtue,smapper,,,,,,,,,,,,,0,25,25,274,,,,,,,,,,,,,,,AMP,right,0.7837844685720938,0,,,,,,,,,,,,,,right,0,0.7837844685720938,,,,,,,,,1030,2019_Mar_07_1358,mf_amp_cond2,3.0.4,59.98339752443915,
hand,&&&&&&,left,sanctity.virtue,laming,,,,,,,,,,,,,0,26,26,232,,,,,,,,,,,,,,,AMP,right,0.4170138767503886,0,,,,,,,,,,,,,,right,0,0.4170138767503886,,,,,,,,,1030,2019_Mar_07_1358,mf_amp_cond2,3.0.4,59.98339752443915,
crime,&&&&&&,right,fairness.vice,fostet,,,,,,,,,,,,,0,27,27,11,,,,,,,,,,,,,,,AMP,left,1.133896673742811,0,,,,,,,,,,,,,,left,0,1.133896673742811,,,,,,,,,1030,2019_Mar_07_1358,mf_amp_cond2,3.0.4,59.98339752443915,
dignity,&&&&&&&&&&&,left,sanctity.virtue,ronviolence,,,,,,,,,,,,,0,28,28,156,,,,,,,,,,,,,,,AMP,right,0.7671151773167821,0,,,,,,,,,,,,,,right,0,0.7671151773167821,,,,,,,,,1030,2019_Mar_07_1358,mf_amp_cond2,3.0.4,59.98339752443915,
suicide,&&&&&,right,care.vice,dumid,,,,,,,,,,,,,0,29,29,131,,,,,,,,,,,,,,,AMP,left,2.2675566534283007,0,,,,,,,,,,,,,,left,0,2.2675566534283007,,,,,,,,,1030,2019_Mar_07_1358,mf_amp_cond2,3.0.4,59.98339752443915,
arrests,&&&&&,right,authority.vice,dumid,,,,,,,,,,,,,0,30,30,204,,,,,,,,,,,,,,,AMP,left,0.6004017384505005,0,,,,,,,,,,,,,,left,0,0.6004017384505005,,,,,,,,,1030,2019_Mar_07_1358,mf_amp_cond2,3.0.4,59.98339752443915,
pleasant,&&&&,None,control,spag,,,,,,,,,,,,,0,31,31,60,,,,,,,,,,,,,,,AMP,right,1.617356153035189,0,,,,,,,,,,,,,,right,0,1.617356153035189,,,,,,,,,1030,2019_Mar_07_1358,mf_amp_cond2,3.0.4,59.98339752443915,
ablow,&&&&&&&&&&,None,nonword,galamitous,,,,,,,,,,,,,0,32,32,326,,,,,,,,,,,,,,,AMP,left,0.6171014984529393,0,,,,,,,,,,,,,,left,0,0.6171014984529393,,,,,,,,,1030,2019_Mar_07_1358,mf_amp_cond2,3.0.4,59.98339752443915,
useful,&&&&&&&&&&&,left,authority.virtue,lempestuous,,,,,,,,,,,,,0,33,33,129,,,,,,,,,,,,,,,AMP,right,1.2172360740987642,0,,,,,,,,,,,,,,right,0,1.2172360740987642,,,,,,,,,1030,2019_Mar_07_1358,mf_amp_cond2,3.0.4,59.98339752443915,
illegal,&&&&&&&&&&&&,right,fairness.vice,quarterbocks,,,,,,,,,,,,,0,34,34,105,,,,,,,,,,,,,,,AMP,right,0.6670920531414595,1,,,,,,,,,,,,,,right,1,0.6670920531414595,,,,,,,,,1030,2019_Mar_07_1358,mf_amp_cond2,3.0.4,59.98339752443915,
arrests,&&&&&&&&&&&,right,authority.vice,vicissifude,,,,,,,,,,,,,0,35,35,309,,,,,,,,,,,,,,,AMP,left,1.0338722666729154,0,,,,,,,,,,,,,,left,0,1.0338722666729154,,,,,,,,,1030,2019_Mar_07_1358,mf_amp_cond2,3.0.4,59.98339752443915,
strength,&&&&,left,sanctity.virtue,juck,,,,,,,,,,,,,0,36,36,147,,,,,,,,,,,,,,,AMP,right,0.7837835064012779,0,,,,,,,,,,,,,,right,0,0.7837835064012779,,,,,,,,,1030,2019_Mar_07_1358,mf_amp_cond2,3.0.4,59.98339752443915,
credit,&&&&&&&&&&&,left,fairness.virtue,lempestuous,,,,,,,,,,,,,0,37,37,211,,,,,,,,,,,,,,,AMP,right,0.6170604458252456,0,,,,,,,,,,,,,,right,0,0.6170604458252456,,,,,,,,,1030,2019_Mar_07_1358,mf_amp_cond2,3.0.4,59.98339752443915,
encourage,&&&&&&&&&,left,authority.virtue,reprisols,,,,,,,,,,,,,0,38,38,142,,,,,,,,,,,,,,,AMP,right,0.4670323343966629,0,,,,,,,,,,,,,,right,0,0.4670323343966629,,,,,,,,,1030,2019_Mar_07_1358,mf_amp_cond2,3.0.4,59.98339752443915,
fighters,&&&&&&&&&&&&,right,authority.vice,unreflectuve,,,,,,,,,,,,,0,39,39,2,,,,,,,,,,,,,,,AMP,right,0.7004296734808122,1,,,,,,,,,,,,,,right,1,0.7004296734808122,,,,,,,,,1030,2019_Mar_07_1358,mf_amp_cond2,3.0.4,59.98339752443915,
synchronazers,&&&&&&&&&&&,None,nonword,nomparisons,,,,,,,,,,,,,0,40,40,77,,,,,,,,,,,,,,,AMP,right,1.3339438842649542,0,,,,,,,,,,,,,,right,0,1.3339438842649542,,,,,,,,,1030,2019_Mar_07_1358,mf_amp_cond2,3.0.4,59.98339752443915,
sexual,&&&&&&&&&,right,sanctity.vice,Phintoism,,,,,,,,,,,,,0,41,41,304,,,,,,,,,,,,,,,AMP,right,1.8507210990301246,1,,,,,,,,,,,,,,right,1,1.8507210990301246,,,,,,,,,1030,2019_Mar_07_1358,mf_amp_cond2,3.0.4,59.98339752443915,
forced,&&&,right,fairness.vice,asn,,,,,,,,,,,,,0,42,42,64,,,,,,,,,,,,,,,AMP,left,0.6337544328018794,0,,,,,,,,,,,,,,left,0,0.6337544328018794,,,,,,,,,1030,2019_Mar_07_1358,mf_amp_cond2,3.0.4,59.98339752443915,
hand,&&&&&&&&&&&,left,sanctity.virtue,hefurbished,,,,,,,,,,,,,0,43,43,122,,,,,,,,,,,,,,,AMP,left,1.233916269958172,1,,,,,,,,,,,,,,left,1,1.233916269958172,,,,,,,,,1030,2019_Mar_07_1358,mf_amp_cond2,3.0.4,59.98339752443915,
fair,&&&&&&&&&&&,left,fairness.virtue,ilportation,,,,,,,,,,,,,0,44,44,160,,,,,,,,,,,,,,,AMP,left,1.3672683549345948,1,,,,,,,,,,,,,,left,1,1.3672683549345948,,,,,,,,,1030,2019_Mar_07_1358,mf_amp_cond2,3.0.4,59.98339752443915,
intelligence,&&&&&&&&&&,left,loyalty.virtue,chonograph,,,,,,,,,,,,,0,45,45,205,,,,,,,,,,,,,,,AMP,right,3.1010558543453044,0,,,,,,,,,,,,,,right,0,3.1010558543453044,,,,,,,,,1030,2019_Mar_07_1358,mf_amp_cond2,3.0.4,59.98339752443915,
ittutable,&&&&&&&,None,nonword,chreams,,,,,,,,,,,,,0,46,46,194,,,,,,,,,,,,,,,AMP,right,0.5003879152609443,0,,,,,,,,,,,,,,right,0,0.5003879152609443,,,,,,,,,1030,2019_Mar_07_1358,mf_amp_cond2,3.0.4,59.98339752443915,
black,&&&&&,right,loyalty.vice,dumid,,,,,,,,,,,,,0,47,47,37,,,,,,,,,,,,,,,AMP,left,1.2172514688340925,0,,,,,,,,,,,,,,left,0,1.2172514688340925,,,,,,,,,1030,2019_Mar_07_1358,mf_amp_cond2,3.0.4,59.98339752443915,
support,&&&&&&&&,left,loyalty.virtue,gowlands,,,,,,,,,,,,,0,48,48,92,,,,,,,,,,,,,,,AMP,left,0.7337672938203923,1,,,,,,,,,,,,,,left,1,0.7337672938203923,,,,,,,,,1030,2019_Mar_07_1358,mf_amp_cond2,3.0.4,59.98339752443915,
victim,&&&&&,right,care.vice,dumid,,,,,,,,,,,,,0,49,49,271,,,,,,,,,,,,,,,AMP,left,0.41702991293323066,0,,,,,,,,,,,,,,left,0,0.41702991293323066,,,,,,,,,1030,2019_Mar_07_1358,mf_amp_cond2,3.0.4,59.98339752443915,
unpleasant,&&&&&&,None,control,sonvoy,,,,,,,,,,,,,0,50,50,318,,,,,,,,,,,,,,,AMP,left,0.8838159315628218,0,,,,,,,,,,,,,,left,0,0.8838159315628218,,,,,,,,,1030,2019_Mar_07_1358,mf_amp_cond2,3.0.4,59.98339752443915,
racist,&&&&&&&,right,sanctity.vice,emports,,,,,,,,,,,,,0,51,51,19,,,,,,,,,,,,,,,AMP,left,0.7170999269071672,0,,,,,,,,,,,,,,left,0,0.7170999269071672,,,,,,,,,1030,2019_Mar_07_1358,mf_amp_cond2,3.0.4,59.98339752443915,
increase,&&&&&&&&&&,left,care.virtue,totalestic,,,,,,,,,,,,,0,52,52,119,,,,,,,,,,,,,,,AMP,right,0.8504969131952294,0,,,,,,,,,,,,,,right,0,0.8504969131952294,,,,,,,,,1030,2019_Mar_07_1358,mf_amp_cond2,3.0.4,59.98339752443915,
compassion,&&&&&&&&&,left,care.virtue,godlaness,,,,,,,,,,,,,0,53,53,152,,,,,,,,,,,,,,,AMP,left,0.6003933996353226,1,,,,,,,,,,,,,,left,1,0.6003933996353226,,,,,,,,,1030,2019_Mar_07_1358,mf_amp_cond2,3.0.4,59.98339752443915,
war,&&&&&&&,right,sanctity.vice,smapper,,,,,,,,,,,,,0,54,54,70,,,,,,,,,,,,,,,AMP,right,0.600420661146245,1,,,,,,,,,,,,,,right,1,0.600420661146245,,,,,,,,,1030,2019_Mar_07_1358,mf_amp_cond2,3.0.4,59.98339752443915,
protesters,&&&&&&&&&,right,authority.vice,gandbrake,,,,,,,,,,,,,0,55,55,206,,,,,,,,,,,,,,,AMP,right,1.0171920708132802,1,,,,,,,,,,,,,,right,1,1.0171920708132802,,,,,,,,,1030,2019_Mar_07_1358,mf_amp_cond2,3.0.4,59.98339752443915,
protesters,&&&&&&,right,authority.vice,fostet,,,,,,,,,,,,,0,56,56,249,,,,,,,,,,,,,,,AMP,left,0.3837006314086011,0,,,,,,,,,,,,,,left,0,0.3837006314086011,,,,,,,,,1030,2019_Mar_07_1358,mf_amp_cond2,3.0.4,59.98339752443915,
synchronazers,&&&&&&&&&,None,nonword,pescinded,,,,,,,,,,,,,0,57,57,220,,,,,,,,,,,,,,,AMP,left,0.8004707581810635,0,,,,,,,,,,,,,,left,0,0.8004707581810635,,,,,,,,,1030,2019_Mar_07_1358,mf_amp_cond2,3.0.4,59.98339752443915,
lies,&&&&&&,right,fairness.vice,erdest,,,,,,,,,,,,,0,58,58,300,,,,,,,,,,,,,,,AMP,left,1.0171779589725247,0,,,,,,,,,,,,,,left,0,1.0171779589725247,,,,,,,,,1030,2019_Mar_07_1358,mf_amp_cond2,3.0.4,59.98339752443915,
unpleasant,&&&&&&&&&&&,None,control,sowntrodden,,,,,,,,,,,,,0,59,59,33,,,,,,,,,,,,,,,AMP,left,0.5170559236216832,0,,,,,,,,,,,,,,left,0,0.5170559236216832,,,,,,,,,1030,2019_Mar_07_1358,mf_amp_cond2,3.0.4,59.98339752443915,
honored,&&&&&&&,left,authority.virtue,Loorish,,,,,,,,,,,,,0,60,60,275,,,,,,,,,,,,,,,AMP,left,2.3842291839923746,1,,,,,,,,,,,,,,left,1,2.3842291839923746,,,,,,,,,1030,2019_Mar_07_1358,mf_amp_cond2,3.0.4,59.98339752443915,
good,&&&&&&&&&&,left,care.virtue,chonograph,,,,,,,,,,,,,0,61,61,97,,,,,,,,,,,,,,,AMP,left,1.8674067471918079,1,,,,,,,,,,,,,,left,1,1.8674067471918079,,,,,,,,,1030,2019_Mar_07_1358,mf_amp_cond2,3.0.4,59.98339752443915,
hate,&&&&&&&&&&&,right,fairness.vice,ilportation,,,,,,,,,,,,,0,62,62,9,,,,,,,,,,,,,,,AMP,left,0.7004287113097689,0,,,,,,,,,,,,,,left,0,0.7004287113097689,,,,,,,,,1030,2019_Mar_07_1358,mf_amp_cond2,3.0.4,59.98339752443915,
prosecution,&&&&,right,authority.vice,tove,,,,,,,,,,,,,0,63,63,301,,,,,,,,,,,,,,,AMP,left,0.867122586033247,0,,,,,,,,,,,,,,left,0,0.867122586033247,,,,,,,,,1030,2019_Mar_07_1358,mf_amp_cond2,3.0.4,59.98339752443915,
sexual,&&&&&&,right,sanctity.vice,pumber,,,,,,,,,,,,,0,64,64,78,,,,,,,,,,,,,,,AMP,right,0.5003843873007554,1,,,,,,,,,,,,,,right,1,0.5003843873007554,,,,,,,,,1030,2019_Mar_07_1358,mf_amp_cond2,3.0.4,59.98339752443915,
encourage,&&&&&&&&,left,authority.virtue,sfumatoy,,,,,,,,,,,,,0,65,65,35,,,,,,,,,,,,,,,AMP,right,0.7171015305254969,0,,,,,,,,,,,,,,right,0,0.7171015305254969,,,,,,,,,1030,2019_Mar_07_1358,mf_amp_cond2,3.0.4,59.98339752443915,
intelligence,&&&&&&,left,loyalty.virtue,erdest,,,,,,,,,,,,,0,66,66,112,,,,,,,,,,,,,,,AMP,right,0.7504481311273139,0,,,,,,,,,,,,,,right,0,0.7504481311273139,,,,,,,,,1030,2019_Mar_07_1358,mf_amp_cond2,3.0.4,59.98339752443915,
promised,&&&&&&&&&&,left,loyalty.virtue,frocessing,,,,,,,,,,,,,0,67,67,281,,,,,,,,,,,,,,,AMP,left,1.4839710335222662,1,,,,,,,,,,,,,,left,1,1.4839710335222662,,,,,,,,,1030,2019_Mar_07_1358,mf_amp_cond2,3.0.4,59.98339752443915,
help,&&&&&&,left,care.virtue,bycled,,,,,,,,,,,,,0,68,68,18,,,,,,,,,,,,,,,AMP,right,0.6670888459048001,0,,,,,,,,,,,,,,right,0,0.6670888459048001,,,,,,,,,1030,2019_Mar_07_1358,mf_amp_cond2,3.0.4,59.98339752443915,
threatened,&&&&&&&,right,fairness.vice,nackers,,,,,,,,,,,,,0,69,69,7,,,,,,,,,,,,,,,AMP,left,1.00050898844097,0,,,,,,,,,,,,,,left,0,1.00050898844097,,,,,,,,,1030,2019_Mar_07_1358,mf_amp_cond2,3.0.4,59.98339752443915,
loyalty,&&&&&&,left,loyalty.virtue,sonvoy,,,,,,,,,,,,,0,70,70,179,,,,,,,,,,,,,,,AMP,left,0.5837202596962925,1,,,,,,,,,,,,,,left,1,0.5837202596962925,,,,,,,,,1030,2019_Mar_07_1358,mf_amp_cond2,3.0.4,59.98339752443915,
civilians,&&&&&&&,right,care.vice,chreams,,,,,,,,,,,,,0,71,71,284,,,,,,,,,,,,,,,AMP,right,0.4337078637270224,1,,,,,,,,,,,,,,right,1,0.4337078637270224,,,,,,,,,1030,2019_Mar_07_1358,mf_amp_cond2,3.0.4,59.98339752443915,
progress,&&&&&,left,authority.virtue,hasks,,,,,,,,,,,,,0,72,72,104,,,,,,,,,,,,,,,AMP,left,0.6337553949729227,1,,,,,,,,,,,,,,left,1,0.6337553949729227,,,,,,,,,1030,2019_Mar_07_1358,mf_amp_cond2,3.0.4,59.98339752443915,
promises,&&&&&&&,left,fairness.virtue,smapper,,,,,,,,,,,,,0,73,73,117,,,,,,,,,,,,,,,AMP,right,0.8671463195839806,0,,,,,,,,,,,,,,right,0,0.8671463195839806,,,,,,,,,1030,2019_Mar_07_1358,mf_amp_cond2,3.0.4,59.98339752443915,
powerful,&&&&&&&&,left,authority.virtue,fontacts,,,,,,,,,,,,,0,74,74,226,,,,,,,,,,,,,,,AMP,left,0.8505241747059245,1,,,,,,,,,,,,,,left,1,0.8505241747059245,,,,,,,,,1030,2019_Mar_07_1358,mf_amp_cond2,3.0.4,59.98339752443915,
celebrated,&&&&&&&,left,authority.virtue,smapper,,,,,,,,,,,,,0,75,75,170,,,,,,,,,,,,,,,AMP,right,0.5337146309962009,0,,,,,,,,,,,,,,right,0,0.5337146309962009,,,,,,,,,1030,2019_Mar_07_1358,mf_amp_cond2,3.0.4,59.98339752443915,
carvels,&&&&&&&&,None,nonword,nuckheap,,,,,,,,,,,,,0,76,76,305,,,,,,,,,,,,,,,AMP,left,0.48372471775519443,0,,,,,,,,,,,,,,left,0,0.48372471775519443,,,,,,,,,1030,2019_Mar_07_1358,mf_amp_cond2,3.0.4,59.98339752443915,
racist,&&&&&&&,right,sanctity.vice,nomaric,,,,,,,,,,,,,0,77,77,203,,,,,,,,,,,,,,,AMP,left,0.7337977625675194,0,,,,,,,,,,,,,,left,0,0.7337977625675194,,,,,,,,,1030,2019_Mar_07_1358,mf_amp_cond2,3.0.4,59.98339752443915,
synchronazers,&&&&&&&&&,None,nonword,neputized,,,,,,,,,,,,,0,78,78,137,,,,,,,,,,,,,,,AMP,left,0.5171219926944559,0,,,,,,,,,,,,,,left,0,0.5171219926944559,,,,,,,,,1030,2019_Mar_07_1358,mf_amp_cond2,3.0.4,59.98339752443915,
agreement,&&&&&&&,left,fairness.virtue,menizen,,,,,,,,,,,,,0,79,79,158,,,,,,,,,,,,,,,AMP,left,1.3339400355810085,1,,,,,,,,,,,,,,left,1,1.3339400355810085,,,,,,,,,1030,2019_Mar_07_1358,mf_amp_cond2,3.0.4,59.98339752443915,
critics,&&&&&&&&&&,right,loyalty.vice,ammessment,,,,,,,,,,,,,0,80,80,80,,,,,,,,,,,,,,,AMP,left,0.6837658345275486,0,,,,,,,,,,,,,,left,0,0.6837658345275486,,,,,,,,,1030,2019_Mar_07_1358,mf_amp_cond2,3.0.4,59.98339752443915,
credit,&&&&&&&&,left,fairness.virtue,proached,,,,,,,,,,,,,0,81,81,161,,,,,,,,,,,,,,,AMP,right,0.5337322707971452,0,,,,,,,,,,,,,,right,0,0.5337322707971452,,,,,,,,,1030,2019_Mar_07_1358,mf_amp_cond2,3.0.4,59.98339752443915,
protesters,&&&&&&&&&&&&&,right,authority.vice,photocalkodes,,,,,,,,,,,,,0,82,82,79,,,,,,,,,,,,,,,AMP,left,0.4003320772726511,0,,,,,,,,,,,,,,left,0,0.4003320772726511,,,,,,,,,1030,2019_Mar_07_1358,mf_amp_cond2,3.0.4,59.98339752443915,
sgrawl,&&&&&&,None,nonword,antral,,,,,,,,,,,,,0,83,83,67,,,,,,,,,,,,,,,AMP,right,0.43370080780687204,0,,,,,,,,,,,,,,right,0,0.43370080780687204,,,,,,,,,1030,2019_Mar_07_1358,mf_amp_cond2,3.0.4,59.98339752443915,
lies,&&&&&&&&&,right,fairness.vice,gondensed,,,,,,,,,,,,,0,84,84,68,,,,,,,,,,,,,,,AMP,left,0.8171442188438505,0,,,,,,,,,,,,,,left,0,0.8171442188438505,,,,,,,,,1030,2019_Mar_07_1358,mf_amp_cond2,3.0.4,59.98339752443915,
scalbel,&&&&&,None,nonword,pafer,,,,,,,,,,,,,0,85,85,262,,,,,,,,,,,,,,,AMP,left,0.3336828152096132,0,,,,,,,,,,,,,,left,0,0.3336828152096132,,,,,,,,,1030,2019_Mar_07_1358,mf_amp_cond2,3.0.4,59.98339752443915,
scandal,&&&&&&&&&&,right,sanctity.vice,galamitous,,,,,,,,,,,,,0,86,86,159,,,,,,,,,,,,,,,AMP,right,0.5337502313220739,1,,,,,,,,,,,,,,right,1,0.5337502313220739,,,,,,,,,1030,2019_Mar_07_1358,mf_amp_cond2,3.0.4,59.98339752443915,
strength,&&&&&,left,sanctity.virtue,pulge,,,,,,,,,,,,,0,87,87,286,,,,,,,,,,,,,,,AMP,right,0.7004450682163679,0,,,,,,,,,,,,,,right,0,0.7004450682163679,,,,,,,,,1030,2019_Mar_07_1358,mf_amp_cond2,3.0.4,59.98339752443915,
faith,&&&&&&&,left,sanctity.virtue,lursuer,,,,,,,,,,,,,0,88,88,87,,,,,,,,,,,,,,,AMP,right,0.3670419240340834,0,,,,,,,,,,,,,,right,0,0.3670419240340834,,,,,,,,,1030,2019_Mar_07_1358,mf_amp_cond2,3.0.4,59.98339752443915,
freedom,&&&&&&&&&&,left,sanctity.virtue,focomotive,,,,,,,,,,,,,0,89,89,228,,,,,,,,,,,,,,,AMP,left,1.083869877281586,1,,,,,,,,,,,,,,left,1,1.083869877281586,,,,,,,,,1030,2019_Mar_07_1358,mf_amp_cond2,3.0.4,59.98339752443915,
useful,&&&&&&&,left,authority.virtue,emports,,,,,,,,,,,,,0,90,90,317,,,,,,,,,,,,,,,AMP,left,0.41703247872237625,1,,,,,,,,,,,,,,left,1,0.41703247872237625,,,,,,,,,1030,2019_Mar_07_1358,mf_amp_cond2,3.0.4,59.98339752443915,
great,&&&&&&&&,left,loyalty.virtue,thadowed,,,,,,,,,,,,,0,91,91,125,,,,,,,,,,,,,,,AMP,left,1.350609647560077,1,,,,,,,,,,,,,,left,1,1.350609647560077,,,,,,,,,1030,2019_Mar_07_1358,mf_amp_cond2,3.0.4,59.98339752443915,
crime,&&&&&&&,right,fairness.vice,chreams,,,,,,,,,,,,,0,92,92,133,,,,,,,,,,,,,,,AMP,right,1.3172511801828932,1,,,,,,,,,,,,,,right,1,1.3172511801828932,,,,,,,,,1030,2019_Mar_07_1358,mf_amp_cond2,3.0.4,59.98339752443915,
fighters,&&&&&&&&,right,authority.vice,framatic,,,,,,,,,,,,,0,93,93,327,,,,,,,,,,,,,,,AMP,right,0.5670698911367253,1,,,,,,,,,,,,,,right,1,0.5670698911367253,,,,,,,,,1030,2019_Mar_07_1358,mf_amp_cond2,3.0.4,59.98339752443915,
intelligence,&&&&&&&&,left,loyalty.virtue,framatic,,,,,,,,,,,,,0,94,94,69,,,,,,,,,,,,,,,AMP,right,0.3170071094814375,0,,,,,,,,,,,,,,right,0,0.3170071094814375,,,,,,,,,1030,2019_Mar_07_1358,mf_amp_cond2,3.0.4,59.98339752443915,
increase,&&&&&&&&,left,care.virtue,thadowed,,,,,,,,,,,,,0,95,95,180,,,,,,,,,,,,,,,AMP,right,0.5170636209893473,0,,,,,,,,,,,,,,right,0,0.5170636209893473,,,,,,,,,1030,2019_Mar_07_1358,mf_amp_cond2,3.0.4,59.98339752443915,
fangsters,&&&&&&&,None,nonword,Loorish,,,,,,,,,,,,,0,96,96,213,,,,,,,,,,,,,,,AMP,right,0.3003471192118923,0,,,,,,,,,,,,,,right,0,0.3003471192118923,,,,,,,,,1030,2019_Mar_07_1358,mf_amp_cond2,3.0.4,59.98339752443915,
powerful,&&&&&&&&,left,authority.virtue,gowlands,,,,,,,,,,,,,0,97,97,291,,,,,,,,,,,,,,,AMP,right,0.5670679667948662,0,,,,,,,,,,,,,,right,0,0.5670679667948662,,,,,,,,,1030,2019_Mar_07_1358,mf_amp_cond2,3.0.4,59.98339752443915,
ban,&&&&&&&&&&,right,loyalty.vice,focomotive,,,,,,,,,,,,,0,98,98,145,,,,,,,,,,,,,,,AMP,left,0.650410895110781,0,,,,,,,,,,,,,,left,0,0.650410895110781,,,,,,,,,1030,2019_Mar_07_1358,mf_amp_cond2,3.0.4,59.98339752443915,
benefit,&&&&&,left,fairness.virtue,noped,,,,,,,,,,,,,0,99,99,188,,,,,,,,,,,,,,,AMP,left,0.8171535198298443,1,,,,,,,,,,,,,,left,1,0.8171535198298443,,,,,,,,,1030,2019_Mar_07_1358,mf_amp_cond2,3.0.4,59.98339752443915,
riot,&&&&&,right,authority.vice,pafer,,,,,,,,,,,,,0,100,100,154,,,,,,,,,,,,,,,AMP,left,0.5837302021295727,0,,,,,,,,,,,,,,left,0,0.5837302021295727,,,,,,,,,1030,2019_Mar_07_1358,mf_amp_cond2,3.0.4,59.98339752443915,
men,&&&&&&&&&,right,loyalty.vice,pescinded,,,,,,,,,,,,,0,101,101,114,,,,,,,,,,,,,,,AMP,right,0.31700582658663734,1,,,,,,,,,,,,,,right,1,0.31700582658663734,,,,,,,,,1030,2019_Mar_07_1358,mf_amp_cond2,3.0.4,59.98339752443915,
riot,&&&&&&&&,right,authority.vice,proached,,,,,,,,,,,,,0,102,102,28,,,,,,,,,,,,,,,AMP,right,0.9672101756634675,1,,,,,,,,,,,,,,right,1,0.9672101756634675,,,,,,,,,1030,2019_Mar_07_1358,mf_amp_cond2,3.0.4,59.98339752443915,
harassment,&&&&&&&&,right,sanctity.vice,framatic,,,,,,,,,,,,,0,103,103,242,,,,,,,,,,,,,,,AMP,right,0.43369984563582875,1,,,,,,,,,,,,,,right,1,0.43369984563582875,,,,,,,,,1030,2019_Mar_07_1358,mf_amp_cond2,3.0.4,59.98339752443915,
carvels,&&&&&&&&&&&,None,nonword,ronviolence,,,,,,,,,,,,,0,104,104,240,,,,,,,,,,,,,,,AMP,right,0.3170228249402953,0,,,,,,,,,,,,,,right,0,0.3170228249402953,,,,,,,,,1030,2019_Mar_07_1358,mf_amp_cond2,3.0.4,59.98339752443915,
integrity,&&&&&&&&&&&&,left,fairness.virtue,quarterbocks,,,,,,,,,,,,,0,105,105,253,,,,,,,,,,,,,,,AMP,right,1.083864424979538,0,,,,,,,,,,,,,,right,0,1.083864424979538,,,,,,,,,1030,2019_Mar_07_1358,mf_amp_cond2,3.0.4,59.98339752443915,
drug,&&&&&&&,right,sanctity.vice,nackers,,,,,,,,,,,,,0,106,106,124,,,,,,,,,,,,,,,AMP,left,0.43372999365919895,0,,,,,,,,,,,,,,left,0,0.43372999365919895,,,,,,,,,1030,2019_Mar_07_1358,mf_amp_cond2,3.0.4,59.98339752443915,
slavery,&&&&&&&&&&,right,loyalty.vice,reelectiob,,,,,,,,,,,,,0,107,107,269,,,,,,,,,,,,,,,AMP,left,0.5337139895489145,0,,,,,,,,,,,,,,left,0,0.5337139895489145,,,,,,,,,1030,2019_Mar_07_1358,mf_amp_cond2,3.0.4,59.98339752443915,
commitment,&&&&&&&&&&,left,sanctity.virtue,frocessing,,,,,,,,,,,,,0,108,108,148,,,,,,,,,,,,,,,AMP,left,0.6505305250343554,1,,,,,,,,,,,,,,left,1,0.6505305250343554,,,,,,,,,1030,2019_Mar_07_1358,mf_amp_cond2,3.0.4,59.98339752443915,
ability,&&&&&&&,left,authority.virtue,brudent,,,,,,,,,,,,,0,109,109,17,,,,,,,,,,,,,,,AMP,left,0.3670053615371671,1,,,,,,,,,,,,,,left,1,0.3670053615371671,,,,,,,,,1030,2019_Mar_07_1358,mf_amp_cond2,3.0.4,59.98339752443915,
love,&&&&&&&,left,loyalty.virtue,emports,,,,,,,,,,,,,0,110,110,93,,,,,,,,,,,,,,,AMP,right,0.7838168616613075,0,,,,,,,,,,,,,,right,0,0.7838168616613075,,,,,,,,,1030,2019_Mar_07_1358,mf_amp_cond2,3.0.4,59.98339752443915,
synchronazers,&&&&&&&&,None,nonword,fontacts,,,,,,,,,,,,,0,111,111,247,,,,,,,,,,,,,,,AMP,left,0.4503486105770662,0,,,,,,,,,,,,,,left,0,0.4503486105770662,,,,,,,,,1030,2019_Mar_07_1358,mf_amp_cond2,3.0.4,59.98339752443915,
hand,&&&&&&&&&&,left,sanctity.virtue,clattening,,,,,,,,,,,,,0,112,112,61,,,,,,,,,,,,,,,AMP,left,0.6170877073357133,1,,,,,,,,,,,,,,left,1,0.6170877073357133,,,,,,,,,1030,2019_Mar_07_1358,mf_amp_cond2,3.0.4,59.98339752443915,
strength,&&&&&&&,left,sanctity.virtue,emports,,,,,,,,,,,,,0,113,113,169,,,,,,,,,,,,,,,AMP,left,0.6005024456783303,1,,,,,,,,,,,,,,left,1,0.6005024456783303,,,,,,,,,1030,2019_Mar_07_1358,mf_amp_cond2,3.0.4,59.98339752443915,
honored,&&&&,left,authority.virtue,yane,,,,,,,,,,,,,0,114,114,136,,,,,,,,,,,,,,,AMP,right,0.4503771549823341,0,,,,,,,,,,,,,,right,0,0.4503771549823341,,,,,,,,,1030,2019_Mar_07_1358,mf_amp_cond2,3.0.4,59.98339752443915,
groups,&&&&&&,right,loyalty.vice,Boeinf,,,,,,,,,,,,,0,115,115,299,,,,,,,,,,,,,,,AMP,left,0.7504388301413201,0,,,,,,,,,,,,,,left,0,0.7504388301413201,,,,,,,,,1030,2019_Mar_07_1358,mf_amp_cond2,3.0.4,59.98339752443915,
rejected,&&&&&&&&,right,authority.vice,sfumatoy,,,,,,,,,,,,,0,116,116,123,,,,,,,,,,,,,,,AMP,left,0.8838088756422167,0,,,,,,,,,,,,,,left,0,0.8838088756422167,,,,,,,,,1030,2019_Mar_07_1358,mf_amp_cond2,3.0.4,59.98339752443915,
help,&&&&&&&,left,care.virtue,nomaric,,,,,,,,,,,,,0,117,117,259,,,,,,,,,,,,,,,AMP,left,0.5670759848862872,1,,,,,,,,,,,,,,left,1,0.5670759848862872,,,,,,,,,1030,2019_Mar_07_1358,mf_amp_cond2,3.0.4,59.98339752443915,
ittutable,&&&&&&&&&&,None,nonword,frojecting,,,,,,,,,,,,,0,118,118,115,,,,,,,,,,,,,,,AMP,left,0.7004482754530272,0,,,,,,,,,,,,,,left,0,0.7004482754530272,,,,,,,,,1030,2019_Mar_07_1358,mf_amp_cond2,3.0.4,59.98339752443915,
interests,&&&&&&&&&&,left,fairness.virtue,pistraught,,,,,,,,,,,,,0,119,119,73,,,,,,,,,,,,,,,AMP,left,0.417014518197675,1,,,,,,,,,,,,,,left,1,0.417014518197675,,,,,,,,,1030,2019_Mar_07_1358,mf_amp_cond2,3.0.4,59.98339752443915,
prosecution,&&&&&&&&&&&&,right,authority.vice,bruthfulness,,,,,,,,,,,,,0,120,120,118,,,,,,,,,,,,,,,AMP,right,0.4837045121648771,1,,,,,,,,,,,,,,right,1,0.4837045121648771,,,,,,,,,1030,2019_Mar_07_1358,mf_amp_cond2,3.0.4,59.98339752443915,
black,&&&&&,right,loyalty.vice,hasks,,,,,,,,,,,,,0,121,121,254,,,,,,,,,,,,,,,AMP,right,0.467034579462279,1,,,,,,,,,,,,,,right,1,0.467034579462279,,,,,,,,,1030,2019_Mar_07_1358,mf_amp_cond2,3.0.4,59.98339752443915,
faith,&&&&&&&&,left,sanctity.virtue,sfumatoy,,,,,,,,,,,,,0,122,122,268,,,,,,,,,,,,,,,AMP,left,0.6170883487829997,1,,,,,,,,,,,,,,left,1,0.6170883487829997,,,,,,,,,1030,2019_Mar_07_1358,mf_amp_cond2,3.0.4,59.98339752443915,
men,&&&&&&&&&,right,loyalty.vice,pescinded,,,,,,,,,,,,,0,123,123,4,,,,,,,,,,,,,,,AMP,right,0.8004713996283499,1,,,,,,,,,,,,,,right,1,0.8004713996283499,,,,,,,,,1030,2019_Mar_07_1358,mf_amp_cond2,3.0.4,59.98339752443915,
benefit,&&&&&&,left,fairness.virtue,chared,,,,,,,,,,,,,0,124,124,311,,,,,,,,,,,,,,,AMP,left,1.1338844862439146,1,,,,,,,,,,,,,,left,1,1.1338844862439146,,,,,,,,,1030,2019_Mar_07_1358,mf_amp_cond2,3.0.4,59.98339752443915,
fair,&&&&&&&,left,fairness.virtue,baklara,,,,,,,,,,,,,0,125,125,1,,,,,,,,,,,,,,,AMP,left,0.5504012413287,1,,,,,,,,,,,,,,left,1,0.5504012413287,,,,,,,,,1030,2019_Mar_07_1358,mf_amp_cond2,3.0.4,59.98339752443915,
perfect,&&&&&&&&&&&,left,sanctity.virtue,cromiscuity,,,,,,,,,,,,,0,126,126,44,,,,,,,,,,,,,,,AMP,left,0.5003866323663715,1,,,,,,,,,,,,,,left,1,0.5003866323663715,,,,,,,,,1030,2019_Mar_07_1358,mf_amp_cond2,3.0.4,59.98339752443915,
help,&&&&&,left,care.virtue,pulge,,,,,,,,,,,,,0,127,127,101,,,,,,,,,,,,,,,AMP,right,2.4675496616525834,0,,,,,,,,,,,,,,right,0,2.4675496616525834,,,,,,,,,1030,2019_Mar_07_1358,mf_amp_cond2,3.0.4,59.98339752443915,
interests,&&&&&&&&,left,fairness.virtue,sfumatoy,,,,,,,,,,,,,0,128,128,235,,,,,,,,,,,,,,,AMP,left,0.3503748778443878,1,,,,,,,,,,,,,,left,1,0.3503748778443878,,,,,,,,,1030,2019_Mar_07_1358,mf_amp_cond2,3.0.4,59.98339752443915,
torture,&&&&&&&,right,care.vice,menizen,,,,,,,,,,,,,0,129,129,26,,,,,,,,,,,,,,,AMP,right,0.33361899120222915,1,,,,,,,,,,,,,,right,1,0.33361899120222915,,,,,,,,,1030,2019_Mar_07_1358,mf_amp_cond2,3.0.4,59.98339752443915,
ablow,&&&&&&&&&,None,nonword,metibolic,,,,,,,,,,,,,0,130,130,83,,,,,,,,,,,,,,,AMP,right,0.30032563072700214,0,,,,,,,,,,,,,,right,0,0.30032563072700214,,,,,,,,,1030,2019_Mar_07_1358,mf_amp_cond2,3.0.4,59.98339752443915,
died,&&&&&&&&,right,care.vice,thadowed,,,,,,,,,,,,,0,131,131,53,,,,,,,,,,,,,,,AMP,right,0.7337791605957591,1,,,,,,,,,,,,,,right,1,0.7337791605957591,,,,,,,,,1030,2019_Mar_07_1358,mf_amp_cond2,3.0.4,59.98339752443915,
men,&&&&&&&&&,right,loyalty.vice,reprisols,,,,,,,,,,,,,0,132,132,223,,,,,,,,,,,,,,,AMP,left,1.383940532702809,0,,,,,,,,,,,,,,left,0,1.383940532702809,,,,,,,,,1030,2019_Mar_07_1358,mf_amp_cond2,3.0.4,59.98339752443915,
fangsters,&&&&&&,None,nonword,bycled,,,,,,,,,,,,,0,133,133,140,,,,,,,,,,,,,,,AMP,right,1.133876147428964,0,,,,,,,,,,,,,,right,0,1.133876147428964,,,,,,,,,1030,2019_Mar_07_1358,mf_amp_cond2,3.0.4,59.98339752443915,
imebreaker,&&&&,None,nonword,yane,,,,,,,,,,,,,0,134,134,14,,,,,,,,,,,,,,,AMP,right,0.9338308612489072,0,,,,,,,,,,,,,,right,0,0.9338308612489072,,,,,,,,,1030,2019_Mar_07_1358,mf_amp_cond2,3.0.4,59.98339752443915,
increase,&&&&&&&&&,left,care.virtue,unscothed,,,,,,,,,,,,,0,135,135,22,,,,,,,,,,,,,,,AMP,left,0.567069249689439,1,,,,,,,,,,,,,,left,1,0.567069249689439,,,,,,,,,1030,2019_Mar_07_1358,mf_amp_cond2,3.0.4,59.98339752443915,
freedom,&&&&&&&&,left,sanctity.virtue,hescribe,,,,,,,,,,,,,0,136,136,56,,,,,,,,,,,,,,,AMP,left,0.717109227893161,1,,,,,,,,,,,,,,left,1,0.717109227893161,,,,,,,,,1030,2019_Mar_07_1358,mf_amp_cond2,3.0.4,59.98339752443915,
integrity,&&&&&&&&&&&&,left,fairness.virtue,bruthfulness,,,,,,,,,,,,,0,137,137,72,,,,,,,,,,,,,,,AMP,left,2.150834731421355,1,,,,,,,,,,,,,,left,1,2.150834731421355,,,,,,,,,1030,2019_Mar_07_1358,mf_amp_cond2,3.0.4,59.98339752443915,
carvels,&&&&&&,None,nonword,sonvoy,,,,,,,,,,,,,0,138,138,143,,,,,,,,,,,,,,,AMP,left,0.5670458368626896,0,,,,,,,,,,,,,,left,0,0.5670458368626896,,,,,,,,,1030,2019_Mar_07_1358,mf_amp_cond2,3.0.4,59.98339752443915,
loyalty,&&&&&&&&,left,loyalty.virtue,ugeasily,,,,,,,,,,,,,0,139,139,58,,,,,,,,,,,,,,,AMP,left,0.5503993169868409,1,,,,,,,,,,,,,,left,1,0.5503993169868409,,,,,,,,,1030,2019_Mar_07_1358,mf_amp_cond2,3.0.4,59.98339752443915,
critics,&&&&&&,right,loyalty.vice,Boeinf,,,,,,,,,,,,,0,140,140,162,,,,,,,,,,,,,,,AMP,right,0.5670557792959698,1,,,,,,,,,,,,,,right,1,0.5670557792959698,,,,,,,,,1030,2019_Mar_07_1358,mf_amp_cond2,3.0.4,59.98339752443915,
commitment,&&&&&&&&&&&,left,sanctity.virtue,vicissifude,,,,,,,,,,,,,0,141,141,65,,,,,,,,,,,,,,,AMP,right,0.45037266485110194,0,,,,,,,,,,,,,,right,0,0.45037266485110194,,,,,,,,,1030,2019_Mar_07_1358,mf_amp_cond2,3.0.4,59.98339752443915,
dignity,&&&&&&&&,left,sanctity.virtue,pullness,,,,,,,,,,,,,0,142,142,308,,,,,,,,,,,,,,,AMP,left,0.5503896952773175,1,,,,,,,,,,,,,,left,1,0.5503896952773175,,,,,,,,,1030,2019_Mar_07_1358,mf_amp_cond2,3.0.4,59.98339752443915,
fangsters,&&&&&&&&&&&&,None,nonword,quarterbocks,,,,,,,,,,,,,0,143,143,48,,,,,,,,,,,,,,,AMP,right,0.733783330003007,0,,,,,,,,,,,,,,right,0,0.733783330003007,,,,,,,,,1030,2019_Mar_07_1358,mf_amp_cond2,3.0.4,59.98339752443915,
army,&&&&&&,right,loyalty.vice,letish,,,,,,,,,,,,,0,144,144,323,,,,,,,,,,,,,,,AMP,right,0.9004865057127063,1,,,,,,,,,,,,,,right,1,0.9004865057127063,,,,,,,,,1030,2019_Mar_07_1358,mf_amp_cond2,3.0.4,59.98339752443915,
slavery,&&&&&&,right,loyalty.vice,chared,,,,,,,,,,,,,0,145,145,229,,,,,,,,,,,,,,,AMP,left,1.033872266672688,0,,,,,,,,,,,,,,left,0,1.033872266672688,,,,,,,,,1030,2019_Mar_07_1358,mf_amp_cond2,3.0.4,59.98339752443915,
lies,&&&&&&&&&,right,fairness.vice,rivernoat,,,,,,,,,,,,,0,146,146,190,,,,,,,,,,,,,,,AMP,left,0.6837693624879648,0,,,,,,,,,,,,,,left,0,0.6837693624879648,,,,,,,,,1030,2019_Mar_07_1358,mf_amp_cond2,3.0.4,59.98339752443915,
tracious,&&&&&&&&&&,None,nonword,frojecting,,,,,,,,,,,,,0,147,147,272,,,,,,,,,,,,,,,AMP,left,0.350363011069021,0,,,,,,,,,,,,,,left,0,0.350363011069021,,,,,,,,,1030,2019_Mar_07_1358,mf_amp_cond2,3.0.4,59.98339752443915,
idexpressible,&&&&&&&&&&&,None,nonword,sowntrodden,,,,,,,,,,,,,0,148,148,88,,,,,,,,,,,,,,,AMP,left,1.2338896498949907,0,,,,,,,,,,,,,,left,0,1.2338896498949907,,,,,,,,,1030,2019_Mar_07_1358,mf_amp_cond2,3.0.4,59.98339752443915,
suicide,&&&&&&&&&,right,care.vice,gondensed,,,,,,,,,,,,,0,149,149,234,,,,,,,,,,,,,,,AMP,left,1.500640324777578,0,,,,,,,,,,,,,,left,0,1.500640324777578,,,,,,,,,1030,2019_Mar_07_1358,mf_amp_cond2,3.0.4,59.98339752443915,
suicide,&&&&&&&&&&,right,care.vice,clattening,,,,,,,,,,,,,0,150,150,312,,,,,,,,,,,,,,,AMP,left,0.1836441199006913,0,,,,,,,,,,,,,,left,0,0.1836441199006913,,,,,,,,,1030,2019_Mar_07_1358,mf_amp_cond2,3.0.4,59.98339752443915,
increase,&&&&&&&,left,care.virtue,lursuer,,,,,,,,,,,,,0,151,151,324,,,,,,,,,,,,,,,AMP,right,0.5837411067338962,0,,,,,,,,,,,,,,right,0,0.5837411067338962,,,,,,,,,1030,2019_Mar_07_1358,mf_amp_cond2,3.0.4,59.98339752443915,
death,&&&&&&&&&,right,care.vice,Phintoism,,,,,,,,,,,,,0,152,152,127,,,,,,,,,,,,,,,AMP,left,0.5504057314599322,0,,,,,,,,,,,,,,left,0,0.5504057314599322,,,,,,,,,1030,2019_Mar_07_1358,mf_amp_cond2,3.0.4,59.98339752443915,
pleasant,&&&&&&&&&,None,control,neputized,,,,,,,,,,,,,0,153,153,246,,,,,,,,,,,,,,,AMP,right,0.6670882044575137,0,,,,,,,,,,,,,,right,0,0.6670882044575137,,,,,,,,,1030,2019_Mar_07_1358,mf_amp_cond2,3.0.4,59.98339752443915,
good,&&&&&,left,care.virtue,leact,,,,,,,,,,,,,0,154,154,16,,,,,,,,,,,,,,,AMP,left,0.35034280547893104,1,,,,,,,,,,,,,,left,1,0.35034280547893104,,,,,,,,,1030,2019_Mar_07_1358,mf_amp_cond2,3.0.4,59.98339752443915,
rejected,&&&&&&&&&&,right,authority.vice,totalestic,,,,,,,,,,,,,0,155,155,75,,,,,,,,,,,,,,,AMP,right,0.3836845952259864,1,,,,,,,,,,,,,,right,1,0.3836845952259864,,,,,,,,,1030,2019_Mar_07_1358,mf_amp_cond2,3.0.4,59.98339752443915,
civilians,&&&&&&&&&&&&&,right,care.vice,photocalkodes,,,,,,,,,,,,,0,156,156,168,,,,,,,,,,,,,,,AMP,left,0.6170938010852751,0,,,,,,,,,,,,,,left,0,0.6170938010852751,,,,,,,,,1030,2019_Mar_07_1358,mf_amp_cond2,3.0.4,59.98339752443915,
scalbel,&&&&&&&&&,None,nonword,neputized,,,,,,,,,,,,,0,157,157,38,,,,,,,,,,,,,,,AMP,right,0.30034776065940605,0,,,,,,,,,,,,,,right,0,0.30034776065940605,,,,,,,,,1030,2019_Mar_07_1358,mf_amp_cond2,3.0.4,59.98339752443915,
fraud,&&&&&&&&&&&,right,fairness.vice,cromiscuity,,,,,,,,,,,,,0,158,158,293,,,,,,,,,,,,,,,AMP,left,0.6171098372681172,0,,,,,,,,,,,,,,left,0,0.6171098372681172,,,,,,,,,1030,2019_Mar_07_1358,mf_amp_cond2,3.0.4,59.98339752443915,
hope,&&&&&&&&&,left,loyalty.virtue,unscothed,,,,,,,,,,,,,0,159,159,313,,,,,,,,,,,,,,,AMP,left,0.8004633815369289,1,,,,,,,,,,,,,,left,1,0.8004633815369289,,,,,,,,,1030,2019_Mar_07_1358,mf_amp_cond2,3.0.4,59.98339752443915,
groups,&&&&&&&&,right,loyalty.vice,nuckheap,,,,,,,,,,,,,0,160,160,183,,,,,,,,,,,,,,,AMP,left,0.4837131717035845,0,,,,,,,,,,,,,,left,0,0.4837131717035845,,,,,,,,,1030,2019_Mar_07_1358,mf_amp_cond2,3.0.4,59.98339752443915,
great,&&&&&&&&&,left,loyalty.virtue,discovars,,,,,,,,,,,,,0,161,161,289,,,,,,,,,,,,,,,AMP,left,0.43371395747658426,1,,,,,,,,,,,,,,left,1,0.43371395747658426,,,,,,,,,1030,2019_Mar_07_1358,mf_amp_cond2,3.0.4,59.98339752443915,
war,&&&&&&&,right,sanctity.vice,nackers,,,,,,,,,,,,,0,162,162,218,,,,,,,,,,,,,,,AMP,right,1.1338796753893803,1,,,,,,,,,,,,,,right,1,1.1338796753893803,,,,,,,,,1030,2019_Mar_07_1358,mf_amp_cond2,3.0.4,59.98339752443915,
ability,&&&&&&&,left,authority.virtue,chadows,,,,,,,,,,,,,0,163,163,150,,,,,,,,,,,,,,,AMP,right,0.5003786142749505,0,,,,,,,,,,,,,,right,0,0.5003786142749505,,,,,,,,,1030,2019_Mar_07_1358,mf_amp_cond2,3.0.4,59.98339752443915,
compassion,&&&&&&&,left,care.virtue,chadows,,,,,,,,,,,,,0,164,164,20,,,,,,,,,,,,,,,AMP,right,0.4170295922094738,0,,,,,,,,,,,,,,right,0,0.4170295922094738,,,,,,,,,1030,2019_Mar_07_1358,mf_amp_cond2,3.0.4,59.98339752443915,
violence,&&&&&&&&&&&&&,right,care.vice,photocalkodes,,,,,,,,,,,,,0,165,165,277,,,,,,,,,,,,,,,AMP,left,0.31700358152102126,0,,,,,,,,,,,,,,left,0,0.31700358152102126,,,,,,,,,1030,2019_Mar_07_1358,mf_amp_cond2,3.0.4,59.98339752443915,
crime,&&&&&&&&&&&,right,fairness.vice,nomparisons,,,,,,,,,,,,,0,166,166,248,,,,,,,,,,,,,,,AMP,left,0.38369229259365056,0,,,,,,,,,,,,,,left,0,0.38369229259365056,,,,,,,,,1030,2019_Mar_07_1358,mf_amp_cond2,3.0.4,59.98339752443915,
illegal,&&&&,right,fairness.vice,spag,,,,,,,,,,,,,0,167,167,230,,,,,,,,,,,,,,,AMP,right,0.3503376739004125,1,,,,,,,,,,,,,,right,1,0.3503376739004125,,,,,,,,,1030,2019_Mar_07_1358,mf_amp_cond2,3.0.4,59.98339752443915,
love,&&&&&&&&&&,left,loyalty.virtue,galamitous,,,,,,,,,,,,,0,168,168,214,,,,,,,,,,,,,,,AMP,left,0.4503742684694316,1,,,,,,,,,,,,,,left,1,0.4503742684694316,,,,,,,,,1030,2019_Mar_07_1358,mf_amp_cond2,3.0.4,59.98339752443915,
ban,&&&&&&,right,loyalty.vice,laming,,,,,,,,,,,,,0,169,169,46,,,,,,,,,,,,,,,AMP,right,0.3670852217276206,1,,,,,,,,,,,,,,right,1,0.3670852217276206,,,,,,,,,1030,2019_Mar_07_1358,mf_amp_cond2,3.0.4,59.98339752443915,
threatened,&&&&&&&&&&,right,fairness.vice,frojecting,,,,,,,,,,,,,0,170,170,186,,,,,,,,,,,,,,,AMP,right,0.8504885743802788,1,,,,,,,,,,,,,,right,1,0.8504885743802788,,,,,,,,,1030,2019_Mar_07_1358,mf_amp_cond2,3.0.4,59.98339752443915,
promises,&&&&&&&&&&&&,left,fairness.virtue,unreflectuve,,,,,,,,,,,,,0,171,171,278,,,,,,,,,,,,,,,AMP,left,0.800456646340308,1,,,,,,,,,,,,,,left,1,0.800456646340308,,,,,,,,,1030,2019_Mar_07_1358,mf_amp_cond2,3.0.4,59.98339752443915,
honored,&&&&&&&&&&&&,left,authority.virtue,quarterbocks,,,,,,,,,,,,,0,172,172,237,,,,,,,,,,,,,,,AMP,right,0.4003599802304052,0,,,,,,,,,,,,,,right,0,0.4003599802304052,,,,,,,,,1030,2019_Mar_07_1358,mf_amp_cond2,3.0.4,59.98339752443915,
care,&&&&&&&&,left,care.virtue,ugeasily,,,,,,,,,,,,,0,173,173,153,,,,,,,,,,,,,,,AMP,left,0.433692789715451,1,,,,,,,,,,,,,,left,1,0.433692789715451,,,,,,,,,1030,2019_Mar_07_1358,mf_amp_cond2,3.0.4,59.98339752443915,
celebrated,&&&&&&&&,left,authority.virtue,hescribe,,,,,,,,,,,,,0,174,174,132,,,,,,,,,,,,,,,AMP,left,0.6837783427504291,1,,,,,,,,,,,,,,left,1,0.6837783427504291,,,,,,,,,1030,2019_Mar_07_1358,mf_amp_cond2,3.0.4,59.98339752443915,
war,&&&&&&&,right,sanctity.vice,chadows,,,,,,,,,,,,,0,175,175,273,,,,,,,,,,,,,,,AMP,right,0.5170706769097251,1,,,,,,,,,,,,,,right,1,0.5170706769097251,,,,,,,,,1030,2019_Mar_07_1358,mf_amp_cond2,3.0.4,59.98339752443915,
drug,&&&&&&&,right,sanctity.vice,lursuer,,,,,,,,,,,,,0,176,176,55,,,,,,,,,,,,,,,AMP,right,0.5670724569258709,1,,,,,,,,,,,,,,right,1,0.5670724569258709,,,,,,,,,1030,2019_Mar_07_1358,mf_amp_cond2,3.0.4,59.98339752443915,
faith,&&&&&&&&&&&,left,sanctity.virtue,ilportation,,,,,,,,,,,,,0,177,177,208,,,,,,,,,,,,,,,AMP,right,0.5337232905349083,0,,,,,,,,,,,,,,right,0,0.5337232905349083,,,,,,,,,1030,2019_Mar_07_1358,mf_amp_cond2,3.0.4,59.98339752443915,
idexpressible,&&&&&,None,nonword,tabin,,,,,,,,,,,,,0,178,178,260,,,,,,,,,,,,,,,AMP,right,0.8336464130748027,0,,,,,,,,,,,,,,right,0,0.8336464130748027,,,,,,,,,1030,2019_Mar_07_1358,mf_amp_cond2,3.0.4,59.98339752443915,
improve,&&&&&&&&,left,care.virtue,proached,,,,,,,,,,,,,0,179,179,199,,,,,,,,,,,,,,,AMP,right,0.3169990913900165,0,,,,,,,,,,,,,,right,0,0.3169990913900165,,,,,,,,,1030,2019_Mar_07_1358,mf_amp_cond2,3.0.4,59.98339752443915,
encourage,&&&&&,left,authority.virtue,leact,,,,,,,,,,,,,0,180,180,224,,,,,,,,,,,,,,,AMP,right,0.38368235016014296,0,,,,,,,,,,,,,,right,0,0.38368235016014296,,,,,,,,,1030,2019_Mar_07_1358,mf_amp_cond2,3.0.4,59.98339752443915,
sgrawl,&&&&&&&,None,nonword,menizen,,,,,,,,,,,,,0,181,181,185,,,,,,,,,,,,,,,AMP,right,0.6504227618861478,0,,,,,,,,,,,,,,right,0,0.6504227618861478,,,,,,,,,1030,2019_Mar_07_1358,mf_amp_cond2,3.0.4,59.98339752443915,
ablow,&&&&&,None,nonword,pafer,,,,,,,,,,,,,0,182,182,192,,,,,,,,,,,,,,,AMP,right,0.46703810742269525,0,,,,,,,,,,,,,,right,0,0.46703810742269525,,,,,,,,,1030,2019_Mar_07_1358,mf_amp_cond2,3.0.4,59.98339752443915,
improve,&&&&&&&,left,care.virtue,baklara,,,,,,,,,,,,,0,183,183,89,,,,,,,,,,,,,,,AMP,right,0.48369264538973766,0,,,,,,,,,,,,,,right,0,0.48369264538973766,,,,,,,,,1030,2019_Mar_07_1358,mf_amp_cond2,3.0.4,59.98339752443915,
good,&&&&,left,care.virtue,spag,,,,,,,,,,,,,0,184,184,297,,,,,,,,,,,,,,,AMP,right,1.3005892655717162,0,,,,,,,,,,,,,,right,0,1.3005892655717162,,,,,,,,,1030,2019_Mar_07_1358,mf_amp_cond2,3.0.4,59.98339752443915,
support,&&&&&&&,left,loyalty.virtue,baklara,,,,,,,,,,,,,0,185,185,315,,,,,,,,,,,,,,,AMP,right,1.1672124848739713,0,,,,,,,,,,,,,,right,0,1.1672124848739713,,,,,,,,,1030,2019_Mar_07_1358,mf_amp_cond2,3.0.4,59.98339752443915,
celebrated,&&&&&&,left,authority.virtue,Boeinf,,,,,,,,,,,,,0,186,186,13,,,,,,,,,,,,,,,AMP,left,0.8838143279444921,1,,,,,,,,,,,,,,left,1,0.8838143279444921,,,,,,,,,1030,2019_Mar_07_1358,mf_amp_cond2,3.0.4,59.98339752443915,
pleasant,&&&&&&&&&&,None,control,ammessment,,,,,,,,,,,,,0,187,187,100,,,,,,,,,,,,,,,AMP,left,1.0171949573261827,0,,,,,,,,,,,,,,left,0,1.0171949573261827,,,,,,,,,1030,2019_Mar_07_1358,mf_amp_cond2,3.0.4,59.98339752443915,
slavery,&&&&&&&&&&,right,loyalty.vice,reelectiob,,,,,,,,,,,,,0,188,188,24,,,,,,,,,,,,,,,AMP,left,1.2172437714664284,0,,,,,,,,,,,,,,left,0,1.2172437714664284,,,,,,,,,1030,2019_Mar_07_1358,mf_amp_cond2,3.0.4,59.98339752443915,
unpleasant,&&&&&&&&,None,control,nuckheap,,,,,,,,,,,,,0,189,189,163,,,,,,,,,,,,,,,AMP,left,0.6004168124622993,0,,,,,,,,,,,,,,left,0,0.6004168124622993,,,,,,,,,1030,2019_Mar_07_1358,mf_amp_cond2,3.0.4,59.98339752443915,
compassion,&&&&&&&,left,care.virtue,chadows,,,,,,,,,,,,,0,190,190,238,,,,,,,,,,,,,,,AMP,left,0.5003760484855775,1,,,,,,,,,,,,,,left,1,0.5003760484855775,,,,,,,,,1030,2019_Mar_07_1358,mf_amp_cond2,3.0.4,59.98339752443915,
crime,&&&&&&&&&&&,right,fairness.vice,sowntrodden,,,,,,,,,,,,,0,191,191,244,,,,,,,,,,,,,,,AMP,left,1.050553745426896,0,,,,,,,,,,,,,,left,0,1.050553745426896,,,,,,,,,1030,2019_Mar_07_1358,mf_amp_cond2,3.0.4,59.98339752443915,
forced,&&&&&&&&&&,right,fairness.vice,elduringly,,,,,,,,,,,,,0,192,192,82,,,,,,,,,,,,,,,AMP,left,0.6505308457581123,0,,,,,,,,,,,,,,left,0,0.6505308457581123,,,,,,,,,1030,2019_Mar_07_1358,mf_amp_cond2,3.0.4,59.98339752443915,
dignity,&&&&&&&&&&&,left,sanctity.virtue,vicissifude,,,,,,,,,,,,,0,193,193,175,,,,,,,,,,,,,,,AMP,left,0.9671777825744812,1,,,,,,,,,,,,,,left,1,0.9671777825744812,,,,,,,,,1030,2019_Mar_07_1358,mf_amp_cond2,3.0.4,59.98339752443915,
torture,&&&&&&&&&&,right,care.vice,gationwide,,,,,,,,,,,,,0,194,194,181,,,,,,,,,,,,,,,AMP,right,1.05051846582478,1,,,,,,,,,,,,,,right,1,1.05051846582478,,,,,,,,,1030,2019_Mar_07_1358,mf_amp_cond2,3.0.4,59.98339752443915,
love,&&&&&&&&&,left,loyalty.virtue,discovars,,,,,,,,,,,,,0,195,195,30,,,,,,,,,,,,,,,AMP,left,1.9008107573279176,1,,,,,,,,,,,,,,left,1,1.9008107573279176,,,,,,,,,1030,2019_Mar_07_1358,mf_amp_cond2,3.0.4,59.98339752443915,
agreement,&&&,left,fairness.virtue,asn,,,,,,,,,,,,,0,196,196,276,,,,,,,,,,,,,,,AMP,left,1.4172842467917235,1,,,,,,,,,,,,,,left,1,1.4172842467917235,,,,,,,,,1030,2019_Mar_07_1358,mf_amp_cond2,3.0.4,59.98339752443915,
fangsters,&&&&&&&&&,None,nonword,pescinded,,,,,,,,,,,,,0,197,197,310,,,,,,,,,,,,,,,AMP,left,0.6504294970827686,0,,,,,,,,,,,,,,left,0,0.6504294970827686,,,,,,,,,1030,2019_Mar_07_1358,mf_amp_cond2,3.0.4,59.98339752443915,
promised,&&&&&&&&,left,loyalty.virtue,ugeasily,,,,,,,,,,,,,0,198,198,243,,,,,,,,,,,,,,,AMP,left,1.2339031202884598,1,,,,,,,,,,,,,,left,1,1.2339031202884598,,,,,,,,,1030,2019_Mar_07_1358,mf_amp_cond2,3.0.4,59.98339752443915,
drug,&&&&&&&&&&,right,sanctity.vice,focomotive,,,,,,,,,,,,,0,199,199,321,,,,,,,,,,,,,,,AMP,left,1.4173471086280642,0,,,,,,,,,,,,,,left,0,1.4173471086280642,,,,,,,,,1030,2019_Mar_07_1358,mf_amp_cond2,3.0.4,59.98339752443915,
idexpressible,&&&&&&&&&&,None,nonword,pistraught,,,,,,,,,,,,,0,200,200,222,,,,,,,,,,,,,,,AMP,left,0.983827188963005,0,,,,,,,,,,,,,,left,0,0.983827188963005,,,,,,,,,1030,2019_Mar_07_1358,mf_amp_cond2,3.0.4,59.98339752443915,
progress,&&&&&&&&&&,left,authority.virtue,galamitous,,,,,,,,,,,,,0,201,201,40,,,,,,,,,,,,,,,AMP,left,1.300589586295473,1,,,,,,,,,,,,,,left,1,1.300589586295473,,,,,,,,,1030,2019_Mar_07_1358,mf_amp_cond2,3.0.4,59.98339752443915,
safe,&&&&&&&&,left,care.virtue,gowlands,,,,,,,,,,,,,0,202,202,225,,,,,,,,,,,,,,,AMP,right,0.5170539992795966,0,,,,,,,,,,,,,,right,0,0.5170539992795966,,,,,,,,,1030,2019_Mar_07_1358,mf_amp_cond2,3.0.4,59.98339752443915,
sgrawl,&&&&,None,nonword,yane,,,,,,,,,,,,,0,203,203,283,,,,,,,,,,,,,,,AMP,right,0.35034665416264943,0,,,,,,,,,,,,,,right,0,0.35034665416264943,,,,,,,,,1030,2019_Mar_07_1358,mf_amp_cond2,3.0.4,59.98339752443915,
progress,&&&&&&&&&,left,authority.virtue,gandbrake,,,,,,,,,,,,,0,204,204,264,,,,,,,,,,,,,,,AMP,left,0.43370369431954714,1,,,,,,,,,,,,,,left,1,0.43370369431954714,,,,,,,,,1030,2019_Mar_07_1358,mf_amp_cond2,3.0.4,59.98339752443915,
victim,&&&&&&,right,care.vice,letish,,,,,,,,,,,,,0,205,205,10,,,,,,,,,,,,,,,AMP,left,0.6836154151333176,0,,,,,,,,,,,,,,left,0,0.6836154151333176,,,,,,,,,1030,2019_Mar_07_1358,mf_amp_cond2,3.0.4,59.98339752443915,
support,&&&&&&&&&,left,loyalty.virtue,Phintoism,,,,,,,,,,,,,0,206,206,245,,,,,,,,,,,,,,,AMP,left,1.700709344508141,1,,,,,,,,,,,,,,left,1,1.700709344508141,,,,,,,,,1030,2019_Mar_07_1358,mf_amp_cond2,3.0.4,59.98339752443915,
arrests,&&&&&&&&,right,authority.vice,framatic,,,,,,,,,,,,,0,207,207,138,,,,,,,,,,,,,,,AMP,left,0.5504089386965916,0,,,,,,,,,,,,,,left,0,0.5504089386965916,,,,,,,,,1030,2019_Mar_07_1358,mf_amp_cond2,3.0.4,59.98339752443915,
tracious,&&&&&&&&,None,nonword,pullness,,,,,,,,,,,,,0,208,208,241,,,,,,,,,,,,,,,AMP,left,3.984671975070796,0,,,,,,,,,,,,,,left,0,3.984671975070796,,,,,,,,,1030,2019_Mar_07_1358,mf_amp_cond2,3.0.4,59.98339752443915,
perfect,&&&&&&&&,left,sanctity.virtue,ugeasily,,,,,,,,,,,,,0,209,209,302,,,,,,,,,,,,,,,AMP,left,0.45034572406393636,1,,,,,,,,,,,,,,left,1,0.45034572406393636,,,,,,,,,1030,2019_Mar_07_1358,mf_amp_cond2,3.0.4,59.98339752443915,
loyalty,&&&&&&&&&&,left,loyalty.virtue,clattening,,,,,,,,,,,,,0,210,210,120,,,,,,,,,,,,,,,AMP,left,0.8838107999843032,1,,,,,,,,,,,,,,left,1,0.8838107999843032,,,,,,,,,1030,2019_Mar_07_1358,mf_amp_cond2,3.0.4,59.98339752443915,
scalbel,&&&&&&&&&,None,nonword,discovars,,,,,,,,,,,,,0,211,211,139,,,,,,,,,,,,,,,AMP,left,0.4835521684285595,0,,,,,,,,,,,,,,left,0,0.4835521684285595,,,,,,,,,1030,2019_Mar_07_1358,mf_amp_cond2,3.0.4,59.98339752443915,
freedom,&&&&&&,left,sanctity.virtue,pumber,,,,,,,,,,,,,0,212,212,110,,,,,,,,,,,,,,,AMP,right,0.9005028626190779,0,,,,,,,,,,,,,,right,0,0.9005028626190779,,,,,,,,,1030,2019_Mar_07_1358,mf_amp_cond2,3.0.4,59.98339752443915,
protesters,&&&&&&&&&&,right,authority.vice,reelectiob,,,,,,,,,,,,,0,213,213,116,,,,,,,,,,,,,,,AMP,left,0.7671684174435995,0,,,,,,,,,,,,,,left,0,0.7671684174435995,,,,,,,,,1030,2019_Mar_07_1358,mf_amp_cond2,3.0.4,59.98339752443915,
scandal,&&&&&&&&&&,right,sanctity.vice,chonograph,,,,,,,,,,,,,0,214,214,27,,,,,,,,,,,,,,,AMP,left,0.7838226346871124,0,,,,,,,,,,,,,,left,0,0.7838226346871124,,,,,,,,,1030,2019_Mar_07_1358,mf_amp_cond2,3.0.4,59.98339752443915,
abuse,&&&&&&&&&&&,right,sanctity.vice,neneficence,,,,,,,,,,,,,0,215,215,287,,,,,,,,,,,,,,,AMP,left,0.7671177431061551,0,,,,,,,,,,,,,,left,0,0.7671177431061551,,,,,,,,,1030,2019_Mar_07_1358,mf_amp_cond2,3.0.4,59.98339752443915,
safe,&&&&&&&&&&,left,care.virtue,gationwide,,,,,,,,,,,,,0,216,216,41,,,,,,,,,,,,,,,AMP,left,0.9505046426352237,1,,,,,,,,,,,,,,left,1,0.9505046426352237,,,,,,,,,1030,2019_Mar_07_1358,mf_amp_cond2,3.0.4,59.98339752443915,
perfect,&&&&&&&&,left,sanctity.virtue,fontacts,,,,,,,,,,,,,0,217,217,109,,,,,,,,,,,,,,,AMP,left,0.5837439932470261,1,,,,,,,,,,,,,,left,1,0.5837439932470261,,,,,,,,,1030,2019_Mar_07_1358,mf_amp_cond2,3.0.4,59.98339752443915,
penalty,&&&&&&&,right,authority.vice,Loorish,,,,,,,,,,,,,0,218,218,121,,,,,,,,,,,,,,,AMP,left,0.6004129637783535,0,,,,,,,,,,,,,,left,0,0.6004129637783535,,,,,,,,,1030,2019_Mar_07_1358,mf_amp_cond2,3.0.4,59.98339752443915,
ability,&&&&&&&&,left,authority.virtue,proached,,,,,,,,,,,,,0,219,219,261,,,,,,,,,,,,,,,AMP,right,0.9338327855907664,0,,,,,,,,,,,,,,right,0,0.9338327855907664,,,,,,,,,1030,2019_Mar_07_1358,mf_amp_cond2,3.0.4,59.98339752443915,
ittutable,&&&&&,None,nonword,tabin,,,,,,,,,,,,,0,220,220,12,,,,,,,,,,,,,,,AMP,right,1.650690566138337,0,,,,,,,,,,,,,,right,0,1.650690566138337,,,,,,,,,1030,2019_Mar_07_1358,mf_amp_cond2,3.0.4,59.98339752443915,
care,&&&&&&&&,left,care.virtue,hescribe,,,,,,,,,,,,,0,221,221,250,,,,,,,,,,,,,,,AMP,left,0.20016010524864214,1,,,,,,,,,,,,,,left,1,0.20016010524864214,,,,,,,,,1030,2019_Mar_07_1358,mf_amp_cond2,3.0.4,59.98339752443915,
fraud,&&&&&&&&&,right,fairness.vice,godlaness,,,,,,,,,,,,,0,222,222,210,,,,,,,,,,,,,,,AMP,right,0.5337245734294811,1,,,,,,,,,,,,,,right,1,0.5337245734294811,,,,,,,,,1030,2019_Mar_07_1358,mf_amp_cond2,3.0.4,59.98339752443915,
strength,&&&&,left,sanctity.virtue,tove,,,,,,,,,,,,,0,223,223,25,,,,,,,,,,,,,,,AMP,left,0.6670962225489347,1,,,,,,,,,,,,,,left,1,0.6670962225489347,,,,,,,,,1030,2019_Mar_07_1358,mf_amp_cond2,3.0.4,59.98339752443915,
sgrawl,&&&&&&&&&,None,nonword,rivernoat,,,,,,,,,,,,,0,224,224,157,,,,,,,,,,,,,,,AMP,left,0.9838384142910854,0,,,,,,,,,,,,,,left,0,0.9838384142910854,,,,,,,,,1030,2019_Mar_07_1358,mf_amp_cond2,3.0.4,59.98339752443915,
celebrated,&&&&&&&&&&,left,authority.virtue,elduringly,,,,,,,,,,,,,0,225,225,263,,,,,,,,,,,,,,,AMP,left,0.4837189447293895,1,,,,,,,,,,,,,,left,1,0.4837189447293895,,,,,,,,,1030,2019_Mar_07_1358,mf_amp_cond2,3.0.4,59.98339752443915,
support,&&&&&&,left,loyalty.virtue,erdest,,,,,,,,,,,,,0,226,226,8,,,,,,,,,,,,,,,AMP,left,0.8171509540406987,1,,,,,,,,,,,,,,left,1,0.8171509540406987,,,,,,,,,1030,2019_Mar_07_1358,mf_amp_cond2,3.0.4,59.98339752443915,
scalbel,&&&&,None,nonword,juck,,,,,,,,,,,,,0,227,227,198,,,,,,,,,,,,,,,AMP,right,0.40036222529624865,0,,,,,,,,,,,,,,right,0,0.40036222529624865,,,,,,,,,1030,2019_Mar_07_1358,mf_amp_cond2,3.0.4,59.98339752443915,
improve,&&&&&,left,care.virtue,noped,,,,,,,,,,,,,0,228,228,257,,,,,,,,,,,,,,,AMP,left,0.45036849544362667,1,,,,,,,,,,,,,,left,1,0.45036849544362667,,,,,,,,,1030,2019_Mar_07_1358,mf_amp_cond2,3.0.4,59.98339752443915,
prosecution,&&&&&&&&&&&&,right,authority.vice,bruthfulness,,,,,,,,,,,,,0,229,229,165,,,,,,,,,,,,,,,AMP,left,0.5503733383709459,0,,,,,,,,,,,,,,left,0,0.5503733383709459,,,,,,,,,1030,2019_Mar_07_1358,mf_amp_cond2,3.0.4,59.98339752443915,
promised,&&&&&&&&&&,left,loyalty.virtue,focomotive,,,,,,,,,,,,,0,230,230,23,,,,,,,,,,,,,,,AMP,left,0.41703119582780346,1,,,,,,,,,,,,,,left,1,0.41703119582780346,,,,,,,,,1030,2019_Mar_07_1358,mf_amp_cond2,3.0.4,59.98339752443915,
victim,&&&&&&,right,care.vice,antral,,,,,,,,,,,,,0,231,231,193,,,,,,,,,,,,,,,AMP,left,0.5503816771858965,0,,,,,,,,,,,,,,left,0,0.5503816771858965,,,,,,,,,1030,2019_Mar_07_1358,mf_amp_cond2,3.0.4,59.98339752443915,
idexpressible,&&&&&&&&&,None,nonword,Phintoism,,,,,,,,,,,,,0,232,232,15,,,,,,,,,,,,,,,AMP,left,0.3836993485140283,0,,,,,,,,,,,,,,left,0,0.3836993485140283,,,,,,,,,1030,2019_Mar_07_1358,mf_amp_cond2,3.0.4,59.98339752443915,
drug,&&&&&,right,sanctity.vice,tabin,,,,,,,,,,,,,0,233,233,166,,,,,,,,,,,,,,,AMP,right,0.28366435756333885,1,,,,,,,,,,,,,,right,1,0.28366435756333885,,,,,,,,,1030,2019_Mar_07_1358,mf_amp_cond2,3.0.4,59.98339752443915,
progress,&&&&&&,left,authority.virtue,Boeinf,,,,,,,,,,,,,0,234,234,231,,,,,,,,,,,,,,,AMP,left,0.3670483385069474,1,,,,,,,,,,,,,,left,1,0.3670483385069474,,,,,,,,,1030,2019_Mar_07_1358,mf_amp_cond2,3.0.4,59.98339752443915,
abuse,&&&&&&&&&&&,right,sanctity.vice,ronviolence,,,,,,,,,,,,,0,235,235,32,,,,,,,,,,,,,,,AMP,right,0.6837870022889092,1,,,,,,,,,,,,,,right,1,0.6837870022889092,,,,,,,,,1030,2019_Mar_07_1358,mf_amp_cond2,3.0.4,59.98339752443915,
death,&&&&&&&&&&,right,care.vice,elduringly,,,,,,,,,,,,,0,236,236,215,,,,,,,,,,,,,,,AMP,left,1.3172784416935883,0,,,,,,,,,,,,,,left,0,1.3172784416935883,,,,,,,,,1030,2019_Mar_07_1358,mf_amp_cond2,3.0.4,59.98339752443915,
civilians,&&&&&&&&,right,care.vice,pullness,,,,,,,,,,,,,0,237,237,85,,,,,,,,,,,,,,,AMP,right,0.8504837635252898,1,,,,,,,,,,,,,,right,1,0.8504837635252898,,,,,,,,,1030,2019_Mar_07_1358,mf_amp_cond2,3.0.4,59.98339752443915,
improve,&&&&&&&&,left,care.virtue,nuckheap,,,,,,,,,,,,,0,238,238,29,,,,,,,,,,,,,,,AMP,left,0.43369952491207187,1,,,,,,,,,,,,,,left,1,0.43369952491207187,,,,,,,,,1030,2019_Mar_07_1358,mf_amp_cond2,3.0.4,59.98339752443915,
army,&&&&&,right,loyalty.vice,tabin,,,,,,,,,,,,,0,239,239,95,,,,,,,,,,,,,,,AMP,left,0.8671386222160891,0,,,,,,,,,,,,,,left,0,0.8671386222160891,,,,,,,,,1030,2019_Mar_07_1358,mf_amp_cond2,3.0.4,59.98339752443915,
loyalty,&&&&&&&&&&&,left,loyalty.virtue,ilportation,,,,,,,,,,,,,0,240,240,303,,,,,,,,,,,,,,,AMP,left,0.46702431630546926,1,,,,,,,,,,,,,,left,1,0.46702431630546926,,,,,,,,,1030,2019_Mar_07_1358,mf_amp_cond2,3.0.4,59.98339752443915,
black,&&&&&&&&&&,right,loyalty.vice,totalestic,,,,,,,,,,,,,0,241,241,187,,,,,,,,,,,,,,,AMP,left,2.9010140961254365,0,,,,,,,,,,,,,,left,0,2.9010140961254365,,,,,,,,,1030,2019_Mar_07_1358,mf_amp_cond2,3.0.4,59.98339752443915,
ablow,&&&&&&&&&&,None,nonword,frocessing,,,,,,,,,,,,,0,242,242,3,,,,,,,,,,,,,,,AMP,left,0.3836906889753209,0,,,,,,,,,,,,,,left,0,0.3836906889753209,,,,,,,,,1030,2019_Mar_07_1358,mf_amp_cond2,3.0.4,59.98339752443915,
benefit,&&&,left,fairness.virtue,asn,,,,,,,,,,,,,0,243,243,141,,,,,,,,,,,,,,,AMP,right,0.7004643116356419,0,,,,,,,,,,,,,,right,0,0.7004643116356419,,,,,,,,,1030,2019_Mar_07_1358,mf_amp_cond2,3.0.4,59.98339752443915,
fighters,&&&&&&&&&&,right,authority.vice,ammessment,,,,,,,,,,,,,0,244,244,207,,,,,,,,,,,,,,,AMP,left,0.6503999905066848,0,,,,,,,,,,,,,,left,0,0.6503999905066848,,,,,,,,,1030,2019_Mar_07_1358,mf_amp_cond2,3.0.4,59.98339752443915,
racist,&&&&&&&&&&,right,sanctity.vice,gationwide,,,,,,,,,,,,,0,245,245,149,,,,,,,,,,,,,,,AMP,left,0.5837395031157939,0,,,,,,,,,,,,,,left,0,0.5837395031157939,,,,,,,,,1030,2019_Mar_07_1358,mf_amp_cond2,3.0.4,59.98339752443915,
death,&&&&&,right,care.vice,pafer,,,,,,,,,,,,,0,246,246,0,,,,,,,,,,,,,,,AMP,left,0.567063476663634,0,,,,,,,,,,,,,,left,0,0.567063476663634,,,,,,,,,1030,2019_Mar_07_1358,mf_amp_cond2,3.0.4,59.98339752443915,
penalty,&&&&&,right,authority.vice,leact,,,,,,,,,,,,,0,247,247,320,,,,,,,,,,,,,,,AMP,left,3.117728673560805,0,,,,,,,,,,,,,,left,0,3.117728673560805,,,,,,,,,1030,2019_Mar_07_1358,mf_amp_cond2,3.0.4,59.98339752443915,
army,&&&&&&&&&&&,right,loyalty.vice,lempestuous,,,,,,,,,,,,,0,248,248,34,,,,,,,,,,,,,,,AMP,left,0.5337319500736157,0,,,,,,,,,,,,,,left,0,0.5337319500736157,,,,,,,,,1030,2019_Mar_07_1358,mf_amp_cond2,3.0.4,59.98339752443915,
