words,mask,corr_ans,category,nonwords,tweets,topic,LDT_prac_loop.thisRepN,LDT_prac_loop.thisTrialN,LDT_prac_loop.thisN,LDT_prac_loop.thisIndex,LDT_loop.thisRepN,LDT_loop.thisTrialN,LDT_loop.thisN,LDT_loop.thisIndex,AMP_pracloop.thisRepN,AMP_pracloop.thisTrialN,AMP_pracloop.thisN,AMP_pracloop.thisIndex,AMP_loop.thisRepN,AMP_loop.thisTrialN,AMP_loop.thisN,AMP_loop.thisIndex,tweet_loop.thisRepN,tweet_loop.thisTrialN,tweet_loop.thisN,tweet_loop.thisIndex,begin_key.keys,begin_key.rt,key_resp_AMP_instr1.keys,key_resp_AMP_instr1.rt,key_resp_LDT_instr.keys,key_resp_LDT_instr.rt,resp_LDT_prac.keys,resp_LDT_prac.rt,task,keypress,RT,corr,resp_LDT_ready.keys,resp_LDT_ready.rt,resp_LDT.keys,resp_LDT.corr,resp_LDT.rt,LDT_rating.response,LDT_rating.rt,resp_AMP_ready1.keys,resp_AMP_ready1.rt,resp_AMP_prac.keys,resp_AMP_prac.rt,resp_AMP_ready.keys,resp_AMP_ready.rt,resp_AMP.keys,resp_AMP.corr,resp_AMP.rt,AMP_nonword_rating.response,AMP_nonword_rating.rt,AMP_word_rating.response,AMP_word_rating.rt,AMP_random_rating.response,AMP_random_rating.rt,key_resp_LDT_instr_2.keys,key_resp_LDT_instr_2.rt,resp_tweets.keys,resp_tweets.rt,participant,date,expName,psychopyVersion,frameRate,
,,,,,,,,,,,,,,,,,,,,,,,,,,,right,441.09209464564975,,,,,,,,,,,,,,,,,,,,,,,,,,,,,,,,,,,,,1032,2019_Mar_07_1359,mf_amp_cond2,3.0.4,59.97630176775522,
,,,,,,,,,,,,,,,,,,,,,,,,,,,,,right,2.250825211642905,,,,,,,,,,,,,,,,,,,,,,,,,,,,,,,,,,,1032,2019_Mar_07_1359,mf_amp_cond2,3.0.4,59.97630176775522,
,,,,,,,,,,,,,,,,,,,,,,,,,,,,,,,right,2.0507731267728104,,,,,,,,,,,,,,,,,,,,,,,,,,,,,,,,,1032,2019_Mar_07_1359,mf_amp_cond2,3.0.4,59.97630176775522,
bisebell,&&&&&&&,,,,,,0,0,0,1,,,,,,,,,,,,,,,,,,,,,,,right,5.584963444375035,LDT_prac,right,5.584963444375035,0,,,,,,,,,,,,,,,,,,,,,,,,,,,1032,2019_Mar_07_1359,mf_amp_cond2,3.0.4,59.97630176775522,
keyboard,&&&&&&&,,,,,,0,1,1,0,,,,,,,,,,,,,,,,,,,,,,,right,2.1674660069249967,LDT_prac,right,2.1674660069249967,0,,,,,,,,,,,,,,,,,,,,,,,,,,,1032,2019_Mar_07_1359,mf_amp_cond2,3.0.4,59.97630176775522,
,,,,,,,,,,,,,,,,,,,,,,,,,,,,,,,,,,,,,,,right,1.2338976288556296,,,,,,,,,,,,,,,,,,,,,,,,,1032,2019_Mar_07_1359,mf_amp_cond2,3.0.4,59.97630176775522,
faspberry,&&&&&&&&&,None,nonword,,,,,,,,0,0,0,29,,,,,,,,,,,,,,,,,,,,,LDT,left,1.2505728052834684,0,,,left,0,1.2505728052834684,,,,,,,,,,,,,,,,,,,,,,1032,2019_Mar_07_1359,mf_amp_cond2,3.0.4,59.97630176775522,
proached,&&&&&&&&,right,nonword,,,,,,,,0,1,1,182,,,,,,,,,,,,,,,,,,,,,LDT,left,1.1672103933690323,0,,,left,0,1.1672103933690323,,,,,,,,,,,,,,,,,,,,,,1032,2019_Mar_07_1359,mf_amp_cond2,3.0.4,59.97630176775522,
myself,&&&&&&,left,neutral,,,,,,,,0,2,2,14,,,,,,,,,,,,,,,,,,,,,LDT,left,0.8337976284706201,1,,,left,1,0.8337976284706201,,,,,,,,,,,,,,,,,,,,,,1032,2019_Mar_07_1359,mf_amp_cond2,3.0.4,59.97630176775522,
gournful,&&&&&&&&,right,nonword,,,,,,,,0,3,3,23,,,,,,,,,,,,,,,,,,,,,LDT,left,0.8504619004306733,0,,,left,0,0.8504619004306733,,,,,,,,,,,,,,,,,,,,,,1032,2019_Mar_07_1359,mf_amp_cond2,3.0.4,59.97630176775522,
done,&&&&,left,neutral,,,,,,,,0,4,4,180,,,,,,,,,,,,,,,,,,,,,LDT,left,1.3672599124820408,1,,,left,1,1.3672599124820408,,,,,,,,,,,,,,,,,,,,,,1032,2019_Mar_07_1359,mf_amp_cond2,3.0.4,59.97630176775522,
gun,&&&,left,authority.vice,,,,,,,,0,5,5,127,,,,,,,,,,,,,,,,,,,,,LDT,left,1.0838576030440663,1,,,left,1,1.0838576030440663,,,,,,,,,,,,,,,,,,,,,,1032,2019_Mar_07_1359,mf_amp_cond2,3.0.4,59.97630176775522,
rivernoat,&&&&&&&&&,right,nonword,,,,,,,,0,6,6,51,,,,,,,,,,,,,,,,,,,,,LDT,left,0.7671087893859294,0,,,left,0,0.7671087893859294,,,,,,,,,,,,,,,,,,,,,,1032,2019_Mar_07_1359,mf_amp_cond2,3.0.4,59.97630176775522,
thabbily,&&&&&&&&,right,nonword,,,,,,,,0,7,7,166,,,,,,,,,,,,,,,,,,,,,LDT,left,0.850453882439524,0,,,left,0,0.850453882439524,,,,,,,,,,,,,,,,,,,,,,1032,2019_Mar_07_1359,mf_amp_cond2,3.0.4,59.97630176775522,
give,&&&&,left,neutral,,,,,,,,0,8,8,196,,,,,,,,,,,,,,,,,,,,,LDT,right,0.6836116752213002,0,,,right,0,0.6836116752213002,,,,,,,,,,,,,,,,,,,,,,1032,2019_Mar_07_1359,mf_amp_cond2,3.0.4,59.97630176775522,
dormandi,&&&&&&&&,None,nonword,,,,,,,,0,9,9,69,,,,,,,,,,,,,,,,,,,,,LDT,right,0.6170703671726869,0,,,right,0,0.6170703671726869,,,,,,,,,,,,,,,,,,,,,,1032,2019_Mar_07_1359,mf_amp_cond2,3.0.4,59.97630176775522,
mih,&&&,right,nonword,,,,,,,,0,10,10,101,,,,,,,,,,,,,,,,,,,,,LDT,right,0.817127904276731,1,,,right,1,0.817127904276731,,,,,,,,,,,,,,,,,,,,,,1032,2019_Mar_07_1359,mf_amp_cond2,3.0.4,59.97630176775522,
anything,&&&&&&&&,left,neutral,,,,,,,,0,11,11,17,,,,,,,,,,,,,,,,,,,,,LDT,right,0.6670766532777179,0,,,right,0,0.6670766532777179,,,,,,,,,,,,,,,,,,,,,,1032,2019_Mar_07_1359,mf_amp_cond2,3.0.4,59.97630176775522,
front,&&&&&,left,neutral,,,,,,,,0,12,12,117,,,,,,,,,,,,,,,,,,,,,LDT,left,0.58373572957953,1,,,left,1,0.58373572957953,,,,,,,,,,,,,,,,,,,,,,1032,2019_Mar_07_1359,mf_amp_cond2,3.0.4,59.97630176775522,
even,&&&&,left,neutral,,,,,,,,0,13,13,112,,,,,,,,,,,,,,,,,,,,,LDT,right,0.933814690755753,0,,,right,0,0.933814690755753,,,,,,,,,,,,,,,,,,,,,,1032,2019_Mar_07_1359,mf_amp_cond2,3.0.4,59.97630176775522,
drug,&&&&,left,sanctity.vice,,,,,,,,0,14,14,195,,,,,,,,,,,,,,,,,,,,,LDT,right,0.6837338694055006,0,,,right,0,0.6837338694055006,,,,,,,,,,,,,,,,,,,,,,1032,2019_Mar_07_1359,mf_amp_cond2,3.0.4,59.97630176775522,
festate,&&&&&&&,right,nonword,,,,,,,,0,15,15,85,,,,,,,,,,,,,,,,,,,,,LDT,left,0.8004562557649706,0,,,left,0,0.8004562557649706,,,,,,,,,,,,,,,,,,,,,,1032,2019_Mar_07_1359,mf_amp_cond2,3.0.4,59.97630176775522,
clattening,&&&&&&&&&&,right,nonword,,,,,,,,0,16,16,81,,,,,,,,,,,,,,,,,,,,,LDT,right,0.8504580517949307,1,,,right,1,0.8504580517949307,,,,,,,,,,,,,,,,,,,,,,1032,2019_Mar_07_1359,mf_amp_cond2,3.0.4,59.97630176775522,
shoirmaster,&&&&&&&&&&&,right,nonword,,,,,,,,0,17,17,68,,,,,,,,,,,,,,,,,,,,,LDT,right,0.7170919195326633,1,,,right,1,0.7170919195326633,,,,,,,,,,,,,,,,,,,,,,1032,2019_Mar_07_1359,mf_amp_cond2,3.0.4,59.97630176775522,
least,&&&&&,left,neutral,,,,,,,,0,18,18,153,,,,,,,,,,,,,,,,,,,,,LDT,right,0.6003874934733631,0,,,right,0,0.6003874934733631,,,,,,,,,,,,,,,,,,,,,,1032,2019_Mar_07_1359,mf_amp_cond2,3.0.4,59.97630176775522,
respect,&&&&&&&,left,sanctity.virtue,,,,,,,,0,19,19,91,,,,,,,,,,,,,,,,,,,,,LDT,right,0.6170495203957671,0,,,right,0,0.6170495203957671,,,,,,,,,,,,,,,,,,,,,,1032,2019_Mar_07_1359,mf_amp_cond2,3.0.4,59.97630176775522,
fontacts,&&&&&&&&,right,nonword,,,,,,,,0,20,20,188,,,,,,,,,,,,,,,,,,,,,LDT,left,0.917165171899228,0,,,left,0,0.917165171899228,,,,,,,,,,,,,,,,,,,,,,1032,2019_Mar_07_1359,mf_amp_cond2,3.0.4,59.97630176775522,
betrayal,&&&&&&&&,left,loyalty.vice,,,,,,,,0,21,21,61,,,,,,,,,,,,,,,,,,,,,LDT,right,0.6504213614676928,0,,,right,0,0.6504213614676928,,,,,,,,,,,,,,,,,,,,,,1032,2019_Mar_07_1359,mf_amp_cond2,3.0.4,59.97630176775522,
ecgagement,&&&&&&&&&&,None,nonword,,,,,,,,0,22,22,141,,,,,,,,,,,,,,,,,,,,,LDT,left,0.6337519579934678,0,,,left,0,0.6337519579934678,,,,,,,,,,,,,,,,,,,,,,1032,2019_Mar_07_1359,mf_amp_cond2,3.0.4,59.97630176775522,
hereby,&&&&&&,left,neutral,,,,,,,,0,23,23,86,,,,,,,,,,,,,,,,,,,,,LDT,right,0.7504397066313686,0,,,right,0,0.7504397066313686,,,,,,,,,,,,,,,,,,,,,,1032,2019_Mar_07_1359,mf_amp_cond2,3.0.4,59.97630176775522,
tislay,&&&&&&,right,nonword,,,,,,,,0,24,24,44,,,,,,,,,,,,,,,,,,,,,LDT,left,0.7170986546452696,0,,,left,0,0.7170986546452696,,,,,,,,,,,,,,,,,,,,,,1032,2019_Mar_07_1359,mf_amp_cond2,3.0.4,59.97630176775522,
could,&&&&&,left,neutral,,,,,,,,0,25,25,35,,,,,,,,,,,,,,,,,,,,,LDT,right,0.6837486225091425,0,,,right,0,0.6837486225091425,,,,,,,,,,,,,,,,,,,,,,1032,2019_Mar_07_1359,mf_amp_cond2,3.0.4,59.97630176775522,
pistraught,&&&&&&&&&&,right,nonword,,,,,,,,0,26,26,181,,,,,,,,,,,,,,,,,,,,,LDT,left,0.8171195655659176,0,,,left,0,0.8171195655659176,,,,,,,,,,,,,,,,,,,,,,1032,2019_Mar_07_1359,mf_amp_cond2,3.0.4,59.97630176775522,
health,&&&&&&,left,care.virtue,,,,,,,,0,27,27,122,,,,,,,,,,,,,,,,,,,,,LDT,right,0.5336989751083365,0,,,right,0,0.5336989751083365,,,,,,,,,,,,,,,,,,,,,,1032,2019_Mar_07_1359,mf_amp_cond2,3.0.4,59.97630176775522,
toward,&&&&&&,left,neutral,,,,,,,,0,28,28,105,,,,,,,,,,,,,,,,,,,,,LDT,right,1.13387351073834,0,,,right,0,1.13387351073834,,,,,,,,,,,,,,,,,,,,,,1032,2019_Mar_07_1359,mf_amp_cond2,3.0.4,59.97630176775522,
amoungst,&&&&&&&&,left,neutral,,,,,,,,0,29,29,198,,,,,,,,,,,,,,,,,,,,,LDT,left,0.500367865431258,1,,,left,1,0.500367865431258,,,,,,,,,,,,,,,,,,,,,,1032,2019_Mar_07_1359,mf_amp_cond2,3.0.4,59.97630176775522,
anyhow,&&&&&&,left,neutral,,,,,,,,0,30,30,129,,,,,,,,,,,,,,,,,,,,,LDT,right,0.8504798607307293,0,,,right,0,0.8504798607307293,,,,,,,,,,,,,,,,,,,,,,1032,2019_Mar_07_1359,mf_amp_cond2,3.0.4,59.97630176775522,
cromiscuity,&&&&&&&&&&&,right,nonword,,,,,,,,0,31,31,3,,,,,,,,,,,,,,,,,,,,,LDT,right,0.6670817847920034,1,,,right,1,0.6670817847920034,,,,,,,,,,,,,,,,,,,,,,1032,2019_Mar_07_1359,mf_amp_cond2,3.0.4,59.97630176775522,
chreams,&&&&&&&,right,nonword,,,,,,,,0,32,32,25,,,,,,,,,,,,,,,,,,,,,LDT,right,0.6837771665574337,1,,,right,1,0.6837771665574337,,,,,,,,,,,,,,,,,,,,,,1032,2019_Mar_07_1359,mf_amp_cond2,3.0.4,59.97630176775522,
fornicalion,&&&&&&&&&&&,right,nonword,,,,,,,,0,33,33,78,,,,,,,,,,,,,,,,,,,,,LDT,left,0.5003887122080641,0,,,left,0,0.5003887122080641,,,,,,,,,,,,,,,,,,,,,,1032,2019_Mar_07_1359,mf_amp_cond2,3.0.4,59.97630176775522,
gationwide,&&&&&&&&&&,right,nonword,,,,,,,,0,34,34,132,,,,,,,,,,,,,,,,,,,,,LDT,right,0.6003903799502268,1,,,right,1,0.6003903799502268,,,,,,,,,,,,,,,,,,,,,,1032,2019_Mar_07_1359,mf_amp_cond2,3.0.4,59.97630176775522,
synchronazers,&&&&&&&&&&&&&,right,nonword,,,,,,,,0,35,35,171,,,,,,,,,,,,,,,,,,,,,LDT,right,0.6504309830570492,1,,,right,1,0.6504309830570492,,,,,,,,,,,,,,,,,,,,,,1032,2019_Mar_07_1359,mf_amp_cond2,3.0.4,59.97630176775522,
godlaness,&&&&&&&&&,right,nonword,,,,,,,,0,36,36,93,,,,,,,,,,,,,,,,,,,,,LDT,left,0.3668490706186276,0,,,left,0,0.3668490706186276,,,,,,,,,,,,,,,,,,,,,,1032,2019_Mar_07_1359,mf_amp_cond2,3.0.4,59.97630176775522,
crinking,&&&&&&&&,right,nonword,,,,,,,,0,37,37,163,,,,,,,,,,,,,,,,,,,,,LDT,right,0.5337345749887845,1,,,right,1,0.5337345749887845,,,,,,,,,,,,,,,,,,,,,,1032,2019_Mar_07_1359,mf_amp_cond2,3.0.4,59.97630176775522,
nomaric,&&&&&&&,None,nonword,,,,,,,,0,38,38,92,,,,,,,,,,,,,,,,,,,,,LDT,left,0.36700494036540476,0,,,left,0,0.36700494036540476,,,,,,,,,,,,,,,,,,,,,,1032,2019_Mar_07_1359,mf_amp_cond2,3.0.4,59.97630176775522,
forty,&&&&&,left,neutral,,,,,,,,0,39,39,118,,,,,,,,,,,,,,,,,,,,,LDT,right,0.4170192444614713,0,,,right,0,0.4170192444614713,,,,,,,,,,,,,,,,,,,,,,1032,2019_Mar_07_1359,mf_amp_cond2,3.0.4,59.97630176775522,
quarterbocks,&&&&&&&&&&&&,right,nonword,,,,,,,,0,40,40,97,,,,,,,,,,,,,,,,,,,,,LDT,left,0.3836586285771091,0,,,left,0,0.3836586285771091,,,,,,,,,,,,,,,,,,,,,,1032,2019_Mar_07_1359,mf_amp_cond2,3.0.4,59.97630176775522,
restore,&&&&&&&,left,care.virtue,,,,,,,,0,41,41,16,,,,,,,,,,,,,,,,,,,,,LDT,right,0.8171202070052459,0,,,right,0,0.8171202070052459,,,,,,,,,,,,,,,,,,,,,,1032,2019_Mar_07_1359,mf_amp_cond2,3.0.4,59.97630176775522,
edancipation,&&&&&&&&&&&&,None,nonword,,,,,,,,0,42,42,24,,,,,,,,,,,,,,,,,,,,,LDT,right,0.45035612709227735,0,,,right,0,0.45035612709227735,,,,,,,,,,,,,,,,,,,,,,1032,2019_Mar_07_1359,mf_amp_cond2,3.0.4,59.97630176775522,
seem,&&&&,left,neutral,,,,,,,,0,43,43,154,,,,,,,,,,,,,,,,,,,,,LDT,left,0.4503429775868426,1,,,left,1,0.4503429775868426,,,,,,,,,,,,,,,,,,,,,,1032,2019_Mar_07_1359,mf_amp_cond2,3.0.4,59.97630176775522,
protect,&&&&&&&,left,fairness.virtue,,,,,,,,0,44,44,52,,,,,,,,,,,,,,,,,,,,,LDT,right,0.6170886481924072,0,,,right,0,0.6170886481924072,,,,,,,,,,,,,,,,,,,,,,1032,2019_Mar_07_1359,mf_amp_cond2,3.0.4,59.97630176775522,
praise,&&&&&&,left,authority.virtue,,,,,,,,0,45,45,45,,,,,,,,,,,,,,,,,,,,,LDT,right,0.9838174489445919,0,,,right,0,0.9838174489445919,,,,,,,,,,,,,,,,,,,,,,1032,2019_Mar_07_1359,mf_amp_cond2,3.0.4,59.97630176775522,
dumid,&&&&&,right,nonword,,,,,,,,0,46,46,28,,,,,,,,,,,,,,,,,,,,,LDT,left,1.3672483665748132,0,,,left,0,1.3672483665748132,,,,,,,,,,,,,,,,,,,,,,1032,2019_Mar_07_1359,mf_amp_cond2,3.0.4,59.97630176775522,
actively,&&&&&&&&,left,authority.virtue,,,,,,,,0,47,47,50,,,,,,,,,,,,,,,,,,,,,LDT,right,1.1171826190479806,0,,,right,0,1.1171826190479806,,,,,,,,,,,,,,,,,,,,,,1032,2019_Mar_07_1359,mf_amp_cond2,3.0.4,59.97630176775522,
mostly,&&&&&&,left,neutral,,,,,,,,0,48,48,152,,,,,,,,,,,,,,,,,,,,,LDT,right,0.9004697901339114,0,,,right,0,0.9004697901339114,,,,,,,,,,,,,,,,,,,,,,1032,2019_Mar_07_1359,mf_amp_cond2,3.0.4,59.97630176775522,
somehow,&&&&&&&,left,neutral,,,,,,,,0,49,49,40,,,,,,,,,,,,,,,,,,,,,LDT,right,0.5503786416112462,0,,,right,0,0.5503786416112462,,,,,,,,,,,,,,,,,,,,,,1032,2019_Mar_07_1359,mf_amp_cond2,3.0.4,59.97630176775522,
also,&&&&,left,neutral,,,,,,,,0,50,50,99,,,,,,,,,,,,,,,,,,,,,LDT,right,0.4170176408632642,0,,,right,0,0.4170176408632642,,,,,,,,,,,,,,,,,,,,,,1032,2019_Mar_07_1359,mf_amp_cond2,3.0.4,59.97630176775522,
with,&&&&,left,neutral,,,,,,,,0,51,51,56,,,,,,,,,,,,,,,,,,,,,LDT,right,0.5003829392543366,0,,,right,0,0.5003829392543366,,,,,,,,,,,,,,,,,,,,,,1032,2019_Mar_07_1359,mf_amp_cond2,3.0.4,59.97630176775522,
been,&&&&,left,neutral,,,,,,,,0,52,52,158,,,,,,,,,,,,,,,,,,,,,LDT,right,0.383681078952236,0,,,right,0,0.383681078952236,,,,,,,,,,,,,,,,,,,,,,1032,2019_Mar_07_1359,mf_amp_cond2,3.0.4,59.97630176775522,
latter,&&&&&&,left,neutral,,,,,,,,0,53,53,128,,,,,,,,,,,,,,,,,,,,,LDT,right,0.3336638883793057,0,,,right,0,0.3336638883793057,,,,,,,,,,,,,,,,,,,,,,1032,2019_Mar_07_1359,mf_amp_cond2,3.0.4,59.97630176775522,
gusinesslike,&&&&&&&&&&&&,right,nonword,,,,,,,,0,54,54,26,,,,,,,,,,,,,,,,,,,,,LDT,right,0.3669892251028841,1,,,right,1,0.3669892251028841,,,,,,,,,,,,,,,,,,,,,,1032,2019_Mar_07_1359,mf_amp_cond2,3.0.4,59.97630176775522,
suggists,&&&&&&&&,right,nonword,,,,,,,,0,55,55,113,,,,,,,,,,,,,,,,,,,,,LDT,right,0.3836897383825999,1,,,right,1,0.3836897383825999,,,,,,,,,,,,,,,,,,,,,,1032,2019_Mar_07_1359,mf_amp_cond2,3.0.4,59.97630176775522,
forced,&&&&&&,left,fairness.vice,,,,,,,,0,56,56,192,,,,,,,,,,,,,,,,,,,,,LDT,right,0.3503483656768367,0,,,right,0,0.3503483656768367,,,,,,,,,,,,,,,,,,,,,,1032,2019_Mar_07_1359,mf_amp_cond2,3.0.4,59.97630176775522,
either,&&&&&&,left,neutral,,,,,,,,0,57,57,197,,,,,,,,,,,,,,,,,,,,,LDT,right,0.38366921232534423,0,,,right,0,0.38366921232534423,,,,,,,,,,,,,,,,,,,,,,1032,2019_Mar_07_1359,mf_amp_cond2,3.0.4,59.97630176775522,
honstables,&&&&&&&&&&,right,nonword,,,,,,,,0,58,58,63,,,,,,,,,,,,,,,,,,,,,LDT,right,0.36702963577795344,1,,,right,1,0.36702963577795344,,,,,,,,,,,,,,,,,,,,,,1032,2019_Mar_07_1359,mf_amp_cond2,3.0.4,59.97630176775522,
noone,&&&&&,left,neutral,,,,,,,,0,59,59,65,,,,,,,,,,,,,,,,,,,,,LDT,right,0.4003434265943042,0,,,right,0,0.4003434265943042,,,,,,,,,,,,,,,,,,,,,,1032,2019_Mar_07_1359,mf_amp_cond2,3.0.4,59.97630176775522,
interests,&&&&&&&&&,left,fairness.virtue,,,,,,,,0,60,60,38,,,,,,,,,,,,,,,,,,,,,LDT,right,1.3172478534235097,0,,,right,0,1.3172478534235097,,,,,,,,,,,,,,,,,,,,,,1032,2019_Mar_07_1359,mf_amp_cond2,3.0.4,59.97630176775522,
there,&&&&&,left,neutral,,,,,,,,0,61,61,174,,,,,,,,,,,,,,,,,,,,,LDT,right,0.4335395133015254,0,,,right,0,0.4335395133015254,,,,,,,,,,,,,,,,,,,,,,1032,2019_Mar_07_1359,mf_amp_cond2,3.0.4,59.97630176775522,
refused,&&&&&&&,left,authority.vice,,,,,,,,0,62,62,80,,,,,,,,,,,,,,,,,,,,,LDT,right,0.4836939718818485,0,,,right,0,0.4836939718818485,,,,,,,,,,,,,,,,,,,,,,1032,2019_Mar_07_1359,mf_amp_cond2,3.0.4,59.97630176775522,
tabin,&&&&&,right,nonword,,,,,,,,0,63,63,90,,,,,,,,,,,,,,,,,,,,,LDT,right,0.383682361830779,1,,,right,1,0.383682361830779,,,,,,,,,,,,,,,,,,,,,,1032,2019_Mar_07_1359,mf_amp_cond2,3.0.4,59.97630176775522,
Phintoism,&&&&&&&&&,right,nonword,,,,,,,,0,64,64,119,,,,,,,,,,,,,,,,,,,,,LDT,right,0.3336600397435632,1,,,right,1,0.3336600397435632,,,,,,,,,,,,,,,,,,,,,,1032,2019_Mar_07_1359,mf_amp_cond2,3.0.4,59.97630176775522,
conspiracy,&&&&&&&&&&,left,sanctity.vice,,,,,,,,0,65,65,165,,,,,,,,,,,,,,,,,,,,,LDT,right,0.383682361830779,0,,,right,0,0.383682361830779,,,,,,,,,,,,,,,,,,,,,,1032,2019_Mar_07_1359,mf_amp_cond2,3.0.4,59.97630176775522,
army,&&&&,left,loyalty.vice,,,,,,,,0,66,66,159,,,,,,,,,,,,,,,,,,,,,LDT,left,0.38368492758797856,1,,,left,1,0.38368492758797856,,,,,,,,,,,,,,,,,,,,,,1032,2019_Mar_07_1359,mf_amp_cond2,3.0.4,59.97630176775522,
gikely,&&&&&&,right,nonword,,,,,,,,0,67,67,146,,,,,,,,,,,,,,,,,,,,,LDT,left,0.3836820411111148,0,,,left,0,0.3836820411111148,,,,,,,,,,,,,,,,,,,,,,1032,2019_Mar_07_1359,mf_amp_cond2,3.0.4,59.97630176775522,
everything,&&&&&&&&&&,left,neutral,,,,,,,,0,68,68,36,,,,,,,,,,,,,,,,,,,,,LDT,left,0.3169948056246312,1,,,left,1,0.3169948056246312,,,,,,,,,,,,,,,,,,,,,,1032,2019_Mar_07_1359,mf_amp_cond2,3.0.4,59.97630176775522,
couldnt,&&&&&&&,left,neutral,,,,,,,,0,69,69,55,,,,,,,,,,,,,,,,,,,,,LDT,left,0.3670155241136399,1,,,left,1,0.3670155241136399,,,,,,,,,,,,,,,,,,,,,,1032,2019_Mar_07_1359,mf_amp_cond2,3.0.4,59.97630176775522,
carvels,&&&&&&&,None,nonword,,,,,,,,0,70,70,64,,,,,,,,,,,,,,,,,,,,,LDT,left,0.350333933292859,0,,,left,0,0.350333933292859,,,,,,,,,,,,,,,,,,,,,,1032,2019_Mar_07_1359,mf_amp_cond2,3.0.4,59.97630176775522,
hatigue,&&&&&&&,right,nonword,,,,,,,,0,71,71,157,,,,,,,,,,,,,,,,,,,,,LDT,left,0.4003556139407465,0,,,left,0,0.4003556139407465,,,,,,,,,,,,,,,,,,,,,,1032,2019_Mar_07_1359,mf_amp_cond2,3.0.4,59.97630176775522,
crime,&&&&&,left,fairness.vice,,,,,,,,0,72,72,184,,,,,,,,,,,,,,,,,,,,,LDT,left,0.4837007069943411,1,,,left,1,0.4837007069943411,,,,,,,,,,,,,,,,,,,,,,1032,2019_Mar_07_1359,mf_amp_cond2,3.0.4,59.97630176775522,
coom,&&&&,right,nonword,,,,,,,,0,73,73,175,,,,,,,,,,,,,,,,,,,,,LDT,right,0.4003559346605243,1,,,right,1,0.4003559346605243,,,,,,,,,,,,,,,,,,,,,,1032,2019_Mar_07_1359,mf_amp_cond2,3.0.4,59.97630176775522,
strength,&&&&&&&&,left,sanctity.virtue,,,,,,,,0,74,74,167,,,,,,,,,,,,,,,,,,,,,LDT,right,0.4503635036440983,0,,,right,0,0.4503635036440983,,,,,,,,,,,,,,,,,,,,,,1032,2019_Mar_07_1359,mf_amp_cond2,3.0.4,59.97630176775522,
leact,&&&&&,right,nonword,,,,,,,,0,75,75,94,,,,,,,,,,,,,,,,,,,,,LDT,right,0.3670078268421548,1,,,right,1,0.3670078268421548,,,,,,,,,,,,,,,,,,,,,,1032,2019_Mar_07_1359,mf_amp_cond2,3.0.4,59.97630176775522,
spag,&&&&,None,nonword,,,,,,,,0,76,76,121,,,,,,,,,,,,,,,,,,,,,LDT,right,0.38370866084153477,0,,,right,0,0.38370866084153477,,,,,,,,,,,,,,,,,,,,,,1032,2019_Mar_07_1359,mf_amp_cond2,3.0.4,59.97630176775522,
support,&&&&&&&,left,loyalty.virtue,,,,,,,,0,77,77,107,,,,,,,,,,,,,,,,,,,,,LDT,right,0.3670103925993544,0,,,right,0,0.3670103925993544,,,,,,,,,,,,,,,,,,,,,,1032,2019_Mar_07_1359,mf_amp_cond2,3.0.4,59.97630176775522,
each,&&&&,left,neutral,,,,,,,,0,78,78,120,,,,,,,,,,,,,,,,,,,,,LDT,right,0.41703431828477733,0,,,right,0,0.41703431828477733,,,,,,,,,,,,,,,,,,,,,,1032,2019_Mar_07_1359,mf_amp_cond2,3.0.4,59.97630176775522,
bluently,&&&&&&&&,None,nonword,,,,,,,,0,79,79,111,,,,,,,,,,,,,,,,,,,,,LDT,left,0.6337561273488745,0,,,left,0,0.6337561273488745,,,,,,,,,,,,,,,,,,,,,,1032,2019_Mar_07_1359,mf_amp_cond2,3.0.4,59.97630176775522,
although,&&&&&&&&,left,neutral,,,,,,,,0,80,80,160,,,,,,,,,,,,,,,,,,,,,LDT,right,0.7504785137082308,0,,,right,0,0.7504785137082308,,,,,,,,,,,,,,,,,,,,,,1032,2019_Mar_07_1359,mf_amp_cond2,3.0.4,59.97630176775522,
violations,&&&&&&&&&&,left,sanctity.vice,,,,,,,,0,81,81,62,,,,,,,,,,,,,,,,,,,,,LDT,right,0.6837746008002341,0,,,right,0,0.6837746008002341,,,,,,,,,,,,,,,,,,,,,,1032,2019_Mar_07_1359,mf_amp_cond2,3.0.4,59.97630176775522,
nonobservalt,&&&&&&&&&&&&,right,nonword,,,,,,,,0,82,82,0,,,,,,,,,,,,,,,,,,,,,LDT,right,0.6337336769736339,1,,,right,1,0.6337336769736339,,,,,,,,,,,,,,,,,,,,,,1032,2019_Mar_07_1359,mf_amp_cond2,3.0.4,59.97630176775522,
thru,&&&&,left,neutral,,,,,,,,0,83,83,13,,,,,,,,,,,,,,,,,,,,,LDT,left,0.5170635679162388,1,,,left,1,0.5170635679162388,,,,,,,,,,,,,,,,,,,,,,1032,2019_Mar_07_1359,mf_amp_cond2,3.0.4,59.97630176775522,
critics,&&&&&&&,left,loyalty.vice,,,,,,,,0,84,84,172,,,,,,,,,,,,,,,,,,,,,LDT,right,0.35033842336792986,0,,,right,0,0.35033842336792986,,,,,,,,,,,,,,,,,,,,,,1032,2019_Mar_07_1359,mf_amp_cond2,3.0.4,59.97630176775522,
sickyay,&&&&&&&,right,nonword,,,,,,,,0,85,85,76,,,,,,,,,,,,,,,,,,,,,LDT,left,0.3336590775846844,0,,,left,0,0.3336590775846844,,,,,,,,,,,,,,,,,,,,,,1032,2019_Mar_07_1359,mf_amp_cond2,3.0.4,59.97630176775522,
about,&&&&&,left,neutral,,,,,,,,0,86,86,27,,,,,,,,,,,,,,,,,,,,,LDT,right,0.38365542138069486,0,,,right,0,0.38365542138069486,,,,,,,,,,,,,,,,,,,,,,1032,2019_Mar_07_1359,mf_amp_cond2,3.0.4,59.97630176775522,
vicissifude,&&&&&&&&&&&,right,nonword,,,,,,,,0,87,87,106,,,,,,,,,,,,,,,,,,,,,LDT,right,0.40034727523004676,1,,,right,1,0.40034727523004676,,,,,,,,,,,,,,,,,,,,,,1032,2019_Mar_07_1359,mf_amp_cond2,3.0.4,59.97630176775522,
elduringly,&&&&&&&&&&,right,nonword,,,,,,,,0,88,88,178,,,,,,,,,,,,,,,,,,,,,LDT,left,0.5003800527777003,0,,,left,0,0.5003800527777003,,,,,,,,,,,,,,,,,,,,,,1032,2019_Mar_07_1359,mf_amp_cond2,3.0.4,59.97630176775522,
baladroit,&&&&&&&&&,right,nonword,,,,,,,,0,89,89,37,,,,,,,,,,,,,,,,,,,,,LDT,right,0.650430662337385,1,,,right,1,0.650430662337385,,,,,,,,,,,,,,,,,,,,,,1032,2019_Mar_07_1359,mf_amp_cond2,3.0.4,59.97630176775522,
smapper,&&&&&&&,right,nonword,,,,,,,,0,90,90,70,,,,,,,,,,,,,,,,,,,,,LDT,right,0.40036074545514566,1,,,right,1,0.40036074545514566,,,,,,,,,,,,,,,,,,,,,,1032,2019_Mar_07_1359,mf_amp_cond2,3.0.4,59.97630176775522,
bruthfulness,&&&&&&&&&&&&,right,nonword,,,,,,,,0,91,91,19,,,,,,,,,,,,,,,,,,,,,LDT,right,0.40036683912830995,1,,,right,1,0.40036683912830995,,,,,,,,,,,,,,,,,,,,,,1032,2019_Mar_07_1359,mf_amp_cond2,3.0.4,59.97630176775522,
galamitous,&&&&&&&&&&,right,nonword,,,,,,,,0,92,92,96,,,,,,,,,,,,,,,,,,,,,LDT,left,0.3670155241136399,0,,,left,0,0.3670155241136399,,,,,,,,,,,,,,,,,,,,,,1032,2019_Mar_07_1359,mf_amp_cond2,3.0.4,59.97630176775522,
loyalty,&&&&&&&,left,loyalty.virtue,,,,,,,,0,93,93,58,,,,,,,,,,,,,,,,,,,,,LDT,right,0.71709608888807,0,,,right,0,0.71709608888807,,,,,,,,,,,,,,,,,,,,,,1032,2019_Mar_07_1359,mf_amp_cond2,3.0.4,59.97630176775522,
rorroborated,&&&&&&&&&&&&,right,nonword,,,,,,,,0,94,94,170,,,,,,,,,,,,,,,,,,,,,LDT,right,0.8337918555170063,1,,,right,1,0.8337918555170063,,,,,,,,,,,,,,,,,,,,,,1032,2019_Mar_07_1359,mf_amp_cond2,3.0.4,59.97630176775522,
wherever,&&&&&&&&,left,neutral,,,,,,,,0,95,95,42,,,,,,,,,,,,,,,,,,,,,LDT,right,0.4503734459530051,0,,,right,0,0.4503734459530051,,,,,,,,,,,,,,,,,,,,,,1032,2019_Mar_07_1359,mf_amp_cond2,3.0.4,59.97630176775522,
fifty,&&&&&,left,neutral,,,,,,,,0,96,96,67,,,,,,,,,,,,,,,,,,,,,LDT,right,0.46703707647361625,0,,,right,0,0.46703707647361625,,,,,,,,,,,,,,,,,,,,,,1032,2019_Mar_07_1359,mf_amp_cond2,3.0.4,59.97630176775522,
sharing,&&&&&&&,left,loyalty.virtue,,,,,,,,0,97,97,142,,,,,,,,,,,,,,,,,,,,,LDT,right,0.40037100848371665,0,,,right,0,0.40037100848371665,,,,,,,,,,,,,,,,,,,,,,1032,2019_Mar_07_1359,mf_amp_cond2,3.0.4,59.97630176775522,
itself,&&&&&&,left,neutral,,,,,,,,0,98,98,151,,,,,,,,,,,,,,,,,,,,,LDT,right,0.40034823738903924,0,,,right,0,0.40034823738903924,,,,,,,,,,,,,,,,,,,,,,1032,2019_Mar_07_1359,mf_amp_cond2,3.0.4,59.97630176775522,
win,&&&,left,fairness.virtue,,,,,,,,0,99,99,110,,,,,,,,,,,,,,,,,,,,,LDT,right,0.4003479166693751,0,,,right,0,0.4003479166693751,,,,,,,,,,,,,,,,,,,,,,1032,2019_Mar_07_1359,mf_amp_cond2,3.0.4,59.97630176775522,
values,&&&&&&,left,sanctity.virtue,,,,,,,,0,100,100,164,,,,,,,,,,,,,,,,,,,,,LDT,right,0.41700705711502906,0,,,right,0,0.41700705711502906,,,,,,,,,,,,,,,,,,,,,,1032,2019_Mar_07_1359,mf_amp_cond2,3.0.4,59.97630176775522,
focomotive,&&&&&&&&&&,right,nonword,,,,,,,,0,101,101,150,,,,,,,,,,,,,,,,,,,,,LDT,left,0.4003434265943042,0,,,left,0,0.4003434265943042,,,,,,,,,,,,,,,,,,,,,,1032,2019_Mar_07_1359,mf_amp_cond2,3.0.4,59.97630176775522,
shot,&&&&,left,care.vice,,,,,,,,0,102,102,48,,,,,,,,,,,,,,,,,,,,,LDT,left,0.5504084685380803,1,,,left,1,0.5504084685380803,,,,,,,,,,,,,,,,,,,,,,1032,2019_Mar_07_1359,mf_amp_cond2,3.0.4,59.97630176775522,
imebreaker,&&&&&&&&&&,right,nonword,,,,,,,,0,103,103,20,,,,,,,,,,,,,,,,,,,,,LDT,left,0.46703868007193705,0,,,left,0,0.46703868007193705,,,,,,,,,,,,,,,,,,,,,,1032,2019_Mar_07_1359,mf_amp_cond2,3.0.4,59.97630176775522,
seachwear,&&&&&&&&&,right,nonword,,,,,,,,0,104,104,137,,,,,,,,,,,,,,,,,,,,,LDT,right,0.3670065439636119,1,,,right,1,0.3670065439636119,,,,,,,,,,,,,,,,,,,,,,1032,2019_Mar_07_1359,mf_amp_cond2,3.0.4,59.97630176775522,
penalty,&&&&&&&,left,authority.vice,,,,,,,,0,105,105,194,,,,,,,,,,,,,,,,,,,,,LDT,right,0.4003453509122892,0,,,right,0,0.4003453509122892,,,,,,,,,,,,,,,,,,,,,,1032,2019_Mar_07_1359,mf_amp_cond2,3.0.4,59.97630176775522,
stindig,&&&&&&&,right,nonword,,,,,,,,0,106,106,5,,,,,,,,,,,,,,,,,,,,,LDT,right,0.3836855690271932,1,,,right,1,0.3836855690271932,,,,,,,,,,,,,,,,,,,,,,1032,2019_Mar_07_1359,mf_amp_cond2,3.0.4,59.97630176775522,
elsewhere,&&&&&&&&&,left,neutral,,,,,,,,0,107,107,30,,,,,,,,,,,,,,,,,,,,,LDT,right,0.5170497769714757,0,,,right,0,0.5170497769714757,,,,,,,,,,,,,,,,,,,,,,1032,2019_Mar_07_1359,mf_amp_cond2,3.0.4,59.97630176775522,
latterly,&&&&&&&&,left,neutral,,,,,,,,0,108,108,169,,,,,,,,,,,,,,,,,,,,,LDT,left,0.40033797436035456,1,,,left,1,0.40033797436035456,,,,,,,,,,,,,,,,,,,,,,1032,2019_Mar_07_1359,mf_amp_cond2,3.0.4,59.97630176775522,
become,&&&&&&,left,neutral,,,,,,,,0,109,109,190,,,,,,,,,,,,,,,,,,,,,LDT,left,0.400355293221196,1,,,left,1,0.400355293221196,,,,,,,,,,,,,,,,,,,,,,1032,2019_Mar_07_1359,mf_amp_cond2,3.0.4,59.97630176775522,
freedom,&&&&&&&,left,sanctity.virtue,,,,,,,,0,110,110,7,,,,,,,,,,,,,,,,,,,,,LDT,left,0.38369615277554203,1,,,left,1,0.38369615277554203,,,,,,,,,,,,,,,,,,,,,,1032,2019_Mar_07_1359,mf_amp_cond2,3.0.4,59.97630176775522,
nomparisons,&&&&&&&&&&&,right,nonword,,,,,,,,0,111,111,89,,,,,,,,,,,,,,,,,,,,,LDT,right,0.4837084042658262,1,,,right,1,0.4837084042658262,,,,,,,,,,,,,,,,,,,,,,1032,2019_Mar_07_1359,mf_amp_cond2,3.0.4,59.97630176775522,
erdest,&&&&&&,right,nonword,,,,,,,,0,112,112,9,,,,,,,,,,,,,,,,,,,,,LDT,right,0.3836788339147006,1,,,right,1,0.3836788339147006,,,,,,,,,,,,,,,,,,,,,,1032,2019_Mar_07_1359,mf_amp_cond2,3.0.4,59.97630176775522,
tracious,&&&&&&&&,right,nonword,,,,,,,,0,113,113,2,,,,,,,,,,,,,,,,,,,,,LDT,right,0.33369660178300364,1,,,right,1,0.33369660178300364,,,,,,,,,,,,,,,,,,,,,,1032,2019_Mar_07_1359,mf_amp_cond2,3.0.4,59.97630176775522,
chonograph,&&&&&&&&&&,right,nonword,,,,,,,,0,114,114,143,,,,,,,,,,,,,,,,,,,,,LDT,right,0.3670164862725187,1,,,right,1,0.3670164862725187,,,,,,,,,,,,,,,,,,,,,,1032,2019_Mar_07_1359,mf_amp_cond2,3.0.4,59.97630176775522,
peaceful,&&&&&&&&,left,authority.virtue,,,,,,,,0,115,115,74,,,,,,,,,,,,,,,,,,,,,LDT,right,0.6004054537734191,0,,,right,0,0.6004054537734191,,,,,,,,,,,,,,,,,,,,,,1032,2019_Mar_07_1359,mf_amp_cond2,3.0.4,59.97630176775522,
fraud,&&&&&,left,fairness.vice,,,,,,,,0,116,116,149,,,,,,,,,,,,,,,,,,,,,LDT,left,0.43368544073939574,1,,,left,1,0.43368544073939574,,,,,,,,,,,,,,,,,,,,,,1032,2019_Mar_07_1359,mf_amp_cond2,3.0.4,59.97630176775522,
embrace,&&&&&&&,left,authority.virtue,,,,,,,,0,117,117,84,,,,,,,,,,,,,,,,,,,,,LDT,left,0.6002531119427204,1,,,left,1,0.6002531119427204,,,,,,,,,,,,,,,,,,,,,,1032,2019_Mar_07_1359,mf_amp_cond2,3.0.4,59.97630176775522,
pafer,&&&&&,right,nonword,,,,,,,,0,118,118,71,,,,,,,,,,,,,,,,,,,,,LDT,left,0.4170166787043854,0,,,left,0,0.4170166787043854,,,,,,,,,,,,,,,,,,,,,,1032,2019_Mar_07_1359,mf_amp_cond2,3.0.4,59.97630176775522,
totalestic,&&&&&&&&&&,None,nonword,,,,,,,,0,119,119,8,,,,,,,,,,,,,,,,,,,,,LDT,right,0.6504704315732397,0,,,right,0,0.6504704315732397,,,,,,,,,,,,,,,,,,,,,,1032,2019_Mar_07_1359,mf_amp_cond2,3.0.4,59.97630176775522,
squets,&&&&&&,right,nonword,,,,,,,,0,120,120,183,,,,,,,,,,,,,,,,,,,,,LDT,right,0.41702405525620634,1,,,right,1,0.41702405525620634,,,,,,,,,,,,,,,,,,,,,,1032,2019_Mar_07_1359,mf_amp_cond2,3.0.4,59.97630176775522,
threatened,&&&&&&&&&&,left,fairness.vice,,,,,,,,0,121,121,15,,,,,,,,,,,,,,,,,,,,,LDT,right,0.3503576665465289,0,,,right,0,0.3503576665465289,,,,,,,,,,,,,,,,,,,,,,1032,2019_Mar_07_1359,mf_amp_cond2,3.0.4,59.97630176775522,
terrorists,&&&&&&&&&&,left,fairness.vice,,,,,,,,0,122,122,72,,,,,,,,,,,,,,,,,,,,,LDT,right,0.3336642090988562,0,,,right,0,0.3336642090988562,,,,,,,,,,,,,,,,,,,,,,1032,2019_Mar_07_1359,mf_amp_cond2,3.0.4,59.97630176775522,
oam,&&&,right,nonword,,,,,,,,0,123,123,139,,,,,,,,,,,,,,,,,,,,,LDT,right,0.3003254021502926,1,,,right,1,0.3003254021502926,,,,,,,,,,,,,,,,,,,,,,1032,2019_Mar_07_1359,mf_amp_cond2,3.0.4,59.97630176775522,
idexpressible,&&&&&&&&&&&&&,right,nonword,,,,,,,,0,124,124,145,,,,,,,,,,,,,,,,,,,,,LDT,right,0.3503457999197508,1,,,right,1,0.3503457999197508,,,,,,,,,,,,,,,,,,,,,,1032,2019_Mar_07_1359,mf_amp_cond2,3.0.4,59.97630176775522,
fostet,&&&&&&,right,nonword,,,,,,,,0,125,125,10,,,,,,,,,,,,,,,,,,,,,LDT,left,0.8337998735081555,0,,,left,0,0.8337998735081555,,,,,,,,,,,,,,,,,,,,,,1032,2019_Mar_07_1359,mf_amp_cond2,3.0.4,59.97630176775522,
towards,&&&&&&&,left,neutral,,,,,,,,0,126,126,12,,,,,,,,,,,,,,,,,,,,,LDT,left,0.3836753059986222,1,,,left,1,0.3836753059986222,,,,,,,,,,,,,,,,,,,,,,1032,2019_Mar_07_1359,mf_amp_cond2,3.0.4,59.97630176775522,
ilportation,&&&&&&&&&&&,right,nonword,,,,,,,,0,127,127,79,,,,,,,,,,,,,,,,,,,,,LDT,left,0.2503146259703044,0,,,left,0,0.2503146259703044,,,,,,,,,,,,,,,,,,,,,,1032,2019_Mar_07_1359,mf_amp_cond2,3.0.4,59.97630176775522,
whither,&&&&&&&,left,neutral,,,,,,,,0,128,128,22,,,,,,,,,,,,,,,,,,,,,LDT,right,0.3670216177869179,0,,,right,0,0.3670216177869179,,,,,,,,,,,,,,,,,,,,,,1032,2019_Mar_07_1359,mf_amp_cond2,3.0.4,59.97630176775522,
free,&&&&,left,fairness.virtue,,,,,,,,0,129,129,32,,,,,,,,,,,,,,,,,,,,,LDT,right,0.3503281603393589,0,,,right,0,0.3503281603393589,,,,,,,,,,,,,,,,,,,,,,1032,2019_Mar_07_1359,mf_amp_cond2,3.0.4,59.97630176775522,
were,&&&&,left,neutral,,,,,,,,0,130,130,41,,,,,,,,,,,,,,,,,,,,,LDT,right,0.38367851319503643,0,,,right,0,0.38367851319503643,,,,,,,,,,,,,,,,,,,,,,1032,2019_Mar_07_1359,mf_amp_cond2,3.0.4,59.97630176775522,
atson,&&&&&,right,nonword,,,,,,,,0,131,131,191,,,,,,,,,,,,,,,,,,,,,LDT,right,0.20014445212746068,1,,,right,1,0.20014445212746068,,,,,,,,,,,,,,,,,,,,,,1032,2019_Mar_07_1359,mf_amp_cond2,3.0.4,59.97630176775522,
prones,&&&&&&,right,nonword,,,,,,,,0,132,132,53,,,,,,,,,,,,,,,,,,,,,LDT,right,0.2836576022742747,1,,,right,1,0.2836576022742747,,,,,,,,,,,,,,,,,,,,,,1032,2019_Mar_07_1359,mf_amp_cond2,3.0.4,59.97630176775522,
noped,&&&&&,right,nonword,,,,,,,,0,133,133,60,,,,,,,,,,,,,,,,,,,,,LDT,right,0.06695279135135479,1,,,right,1,0.06695279135135479,,,,,,,,,,,,,,,,,,,,,,1032,2019_Mar_07_1359,mf_amp_cond2,3.0.4,59.97630176775522,
killed,&&&&&&,left,care.vice,,,,,,,,0,134,134,73,,,,,,,,,,,,,,,,,,,,,LDT,right,0.13361821790203976,0,,,right,0,0.13361821790203976,,,,,,,,,,,,,,,,,,,,,,1032,2019_Mar_07_1359,mf_amp_cond2,3.0.4,59.97630176775522,
unreflectuve,&&&&&&&&&&&&,right,nonword,,,,,,,,0,135,135,88,,,,,,,,,,,,,,,,,,,,,LDT,right,0.05026478613774543,1,,,right,1,0.05026478613774543,,,,,,,,,,,,,,,,,,,,,,1032,2019_Mar_07_1359,mf_amp_cond2,3.0.4,59.97630176775522,
sexual,&&&&&&,left,sanctity.vice,,,,,,,,0,136,136,6,,,,,,,,,,,,,,,,,,,,,LDT,right,0.00027838465052809624,0,,,right,0,0.00027838465052809624,,,,,,,,,,,,,,,,,,,,,,1032,2019_Mar_07_1359,mf_amp_cond2,3.0.4,59.97630176775522,
reelectiob,&&&&&&&&&&,right,nonword,,,,,,,,0,137,137,179,,,,,,,,,,,,,,,,,,,,,LDT,left,0.050257409585924506,0,,,left,0,0.050257409585924506,,,,,,,,,,,,,,,,,,,,,,1032,2019_Mar_07_1359,mf_amp_cond2,3.0.4,59.97630176775522,
amount,&&&&&&,left,neutral,,,,,,,,0,138,138,31,,,,,,,,,,,,,,,,,,,,,LDT,left,0.21696266951630605,1,,,left,1,0.21696266951630605,,,,,,,,,,,,,,,,,,,,,,1032,2019_Mar_07_1359,mf_amp_cond2,3.0.4,59.97630176775522,
neutralust,&&&&&&&&&&,right,nonword,,,,,,,,0,139,139,189,,,,,,,,,,,,,,,,,,,,,LDT,left,0.25034317001859563,0,,,left,0,0.25034317001859563,,,,,,,,,,,,,,,,,,,,,,1032,2019_Mar_07_1359,mf_amp_cond2,3.0.4,59.97630176775522,
brudent,&&&&&&&,right,nonword,,,,,,,,0,140,140,87,,,,,,,,,,,,,,,,,,,,,LDT,left,0.050267993334159655,0,,,left,0,0.050267993334159655,,,,,,,,,,,,,,,,,,,,,,1032,2019_Mar_07_1359,mf_amp_cond2,3.0.4,59.97630176775522,
slavery,&&&&&&&,left,loyalty.vice,,,,,,,,0,141,141,54,,,,,,,,,,,,,,,,,,,,,LDT,left,0.18363316343743463,1,,,left,1,0.18363316343743463,,,,,,,,,,,,,,,,,,,,,,1032,2019_Mar_07_1359,mf_amp_cond2,3.0.4,59.97630176775522,
infet,&&&&&,right,nonword,,,,,,,,0,142,142,39,,,,,,,,,,,,,,,,,,,,,LDT,right,0.16696760859883852,1,,,right,1,0.16696760859883852,,,,,,,,,,,,,,,,,,,,,,1032,2019_Mar_07_1359,mf_amp_cond2,3.0.4,59.97630176775522,
vurtain,&&&&&&&,right,nonword,,,,,,,,0,143,143,131,,,,,,,,,,,,,,,,,,,,,LDT,right,0.2836476599653679,1,,,right,1,0.2836476599653679,,,,,,,,,,,,,,,,,,,,,,1032,2019_Mar_07_1359,mf_amp_cond2,3.0.4,59.97630176775522,
nuckheap,&&&&&&&&,right,nonword,,,,,,,,0,144,144,125,,,,,,,,,,,,,,,,,,,,,LDT,right,0.10026946864445563,1,,,right,1,0.10026946864445563,,,,,,,,,,,,,,,,,,,,,,1032,2019_Mar_07_1359,mf_amp_cond2,3.0.4,59.97630176775522,
saned,&&&&&,None,nonword,,,,,,,,0,145,145,168,,,,,,,,,,,,,,,,,,,,,LDT,right,0.25027357385590676,0,,,right,0,0.25027357385590676,,,,,,,,,,,,,,,,,,,,,,1032,2019_Mar_07_1359,mf_amp_cond2,3.0.4,59.97630176775522,
dramens,&&&&&&&,right,nonword,,,,,,,,0,146,146,199,,,,,,,,,,,,,,,,,,,,,LDT,right,0.0669502255941552,1,,,right,1,0.0669502255941552,,,,,,,,,,,,,,,,,,,,,,1032,2019_Mar_07_1359,mf_amp_cond2,3.0.4,59.97630176775522,
blunderints,&&&&&&&&&&&,right,nonword,,,,,,,,0,147,147,59,,,,,,,,,,,,,,,,,,,,,LDT,right,0.3836878140647286,1,,,right,1,0.3836878140647286,,,,,,,,,,,,,,,,,,,,,,1032,2019_Mar_07_1359,mf_amp_cond2,3.0.4,59.97630176775522,
Lacedonia,&&&&&&&&&,right,nonword,,,,,,,,0,148,148,193,,,,,,,,,,,,,,,,,,,,,LDT,right,0.2836434906099612,1,,,right,1,0.2836434906099612,,,,,,,,,,,,,,,,,,,,,,1032,2019_Mar_07_1359,mf_amp_cond2,3.0.4,59.97630176775522,
sfumatoy,&&&&&&&&,None,nonword,,,,,,,,0,149,149,147,,,,,,,,,,,,,,,,,,,,,LDT,right,0.35033104681610894,0,,,right,0,0.35033104681610894,,,,,,,,,,,,,,,,,,,,,,1032,2019_Mar_07_1359,mf_amp_cond2,3.0.4,59.97630176775522,
drumbled,&&&&&&&&,right,nonword,,,,,,,,0,150,150,124,,,,,,,,,,,,,,,,,,,,,LDT,right,0.38367241952187214,1,,,right,1,0.38367241952187214,,,,,,,,,,,,,,,,,,,,,,1032,2019_Mar_07_1359,mf_amp_cond2,3.0.4,59.97630176775522,
asn,&&&,right,nonword,,,,,,,,0,151,151,115,,,,,,,,,,,,,,,,,,,,,LDT,right,0.5670605531515776,1,,,right,1,0.5670605531515776,,,,,,,,,,,,,,,,,,,,,,1032,2019_Mar_07_1359,mf_amp_cond2,3.0.4,59.97630176775522,
ammessment,&&&&&&&&&&,right,nonword,,,,,,,,0,152,152,4,,,,,,,,,,,,,,,,,,,,,LDT,right,0.533745158736906,1,,,right,1,0.533745158736906,,,,,,,,,,,,,,,,,,,,,,1032,2019_Mar_07_1359,mf_amp_cond2,3.0.4,59.97630176775522,
tove,&&&&,right,nonword,,,,,,,,0,153,153,98,,,,,,,,,,,,,,,,,,,,,LDT,right,0.5337297641940495,1,,,right,1,0.5337297641940495,,,,,,,,,,,,,,,,,,,,,,1032,2019_Mar_07_1359,mf_amp_cond2,3.0.4,59.97630176775522,
frojecting,&&&&&&&&&&,right,nonword,,,,,,,,0,154,154,136,,,,,,,,,,,,,,,,,,,,,LDT,right,0.3170201424765082,1,,,right,1,0.3170201424765082,,,,,,,,,,,,,,,,,,,,,,1032,2019_Mar_07_1359,mf_amp_cond2,3.0.4,59.97630176775522,
fangsters,&&&&&&&&&,right,nonword,,,,,,,,0,155,155,49,,,,,,,,,,,,,,,,,,,,,LDT,right,0.4503606171672345,1,,,right,1,0.4503606171672345,,,,,,,,,,,,,,,,,,,,,,1032,2019_Mar_07_1359,mf_amp_cond2,3.0.4,59.97630176775522,
less,&&&&,left,neutral,,,,,,,,0,156,156,186,,,,,,,,,,,,,,,,,,,,,LDT,right,0.3669860179064699,0,,,right,0,0.3669860179064699,,,,,,,,,,,,,,,,,,,,,,1032,2019_Mar_07_1359,mf_amp_cond2,3.0.4,59.97630176775522,
failure,&&&&&&&,left,loyalty.vice,,,,,,,,0,157,157,176,,,,,,,,,,,,,,,,,,,,,LDT,right,0.3503288017785735,0,,,right,0,0.3503288017785735,,,,,,,,,,,,,,,,,,,,,,1032,2019_Mar_07_1359,mf_amp_cond2,3.0.4,59.97630176775522,
great,&&&&&,left,loyalty.virtue,,,,,,,,0,158,158,161,,,,,,,,,,,,,,,,,,,,,LDT,left,0.3503406684053516,1,,,left,1,0.3503406684053516,,,,,,,,,,,,,,,,,,,,,,1032,2019_Mar_07_1359,mf_amp_cond2,3.0.4,59.97630176775522,
hence,&&&&&,left,neutral,,,,,,,,0,159,159,11,,,,,,,,,,,,,,,,,,,,,LDT,left,0.3503345747321873,1,,,left,1,0.3503345747321873,,,,,,,,,,,,,,,,,,,,,,1032,2019_Mar_07_1359,mf_amp_cond2,3.0.4,59.97630176775522,
lorthwhile,&&&&&&&&&&,right,nonword,,,,,,,,0,160,160,1,,,,,,,,,,,,,,,,,,,,,LDT,right,0.3336735099686621,1,,,right,1,0.3336735099686621,,,,,,,,,,,,,,,,,,,,,,1032,2019_Mar_07_1359,mf_amp_cond2,3.0.4,59.97630176775522,
good,&&&&,left,care.virtue,,,,,,,,0,161,161,46,,,,,,,,,,,,,,,,,,,,,LDT,left,0.35034708279818005,1,,,left,1,0.35034708279818005,,,,,,,,,,,,,,,,,,,,,,1032,2019_Mar_07_1359,mf_amp_cond2,3.0.4,59.97630176775522,
baklara,&&&&&&&,right,nonword,,,,,,,,0,162,162,177,,,,,,,,,,,,,,,,,,,,,LDT,right,0.40034631307116797,1,,,right,1,0.40034631307116797,,,,,,,,,,,,,,,,,,,,,,1032,2019_Mar_07_1359,mf_amp_cond2,3.0.4,59.97630176775522,
gondensed,&&&&&&&&&,right,nonword,,,,,,,,0,163,163,18,,,,,,,,,,,,,,,,,,,,,LDT,right,0.3670155241136399,1,,,right,1,0.3670155241136399,,,,,,,,,,,,,,,,,,,,,,1032,2019_Mar_07_1359,mf_amp_cond2,3.0.4,59.97630176775522,
alar,&&&&,right,nonword,,,,,,,,0,164,164,109,,,,,,,,,,,,,,,,,,,,,LDT,left,0.4003495202674685,0,,,left,0,0.4003495202674685,,,,,,,,,,,,,,,,,,,,,,1032,2019_Mar_07_1359,mf_amp_cond2,3.0.4,59.97630176775522,
died,&&&&,left,care.vice,,,,,,,,0,165,165,103,,,,,,,,,,,,,,,,,,,,,LDT,left,0.35034868639650085,1,,,left,1,0.35034868639650085,,,,,,,,,,,,,,,,,,,,,,1032,2019_Mar_07_1359,mf_amp_cond2,3.0.4,59.97630176775522,
hescribe,&&&&&&&&,right,nonword,,,,,,,,0,166,166,43,,,,,,,,,,,,,,,,,,,,,LDT,left,0.4337062875162019,0,,,left,0,0.4337062875162019,,,,,,,,,,,,,,,,,,,,,,1032,2019_Mar_07_1359,mf_amp_cond2,3.0.4,59.97630176775522,
therefore,&&&&&&&&&,left,neutral,,,,,,,,0,167,167,95,,,,,,,,,,,,,,,,,,,,,LDT,left,0.38359961616276905,1,,,left,1,0.38359961616276905,,,,,,,,,,,,,,,,,,,,,,1032,2019_Mar_07_1359,mf_amp_cond2,3.0.4,59.97630176775522,
framatic,&&&&&&&&,right,nonword,,,,,,,,0,168,168,135,,,,,,,,,,,,,,,,,,,,,LDT,left,0.41700545351682194,0,,,left,0,0.41700545351682194,,,,,,,,,,,,,,,,,,,,,,1032,2019_Mar_07_1359,mf_amp_cond2,3.0.4,59.97630176775522,
refuejing,&&&&&&&&&,right,nonword,,,,,,,,0,169,169,102,,,,,,,,,,,,,,,,,,,,,LDT,right,0.5670801170498407,1,,,right,1,0.5670801170498407,,,,,,,,,,,,,,,,,,,,,,1032,2019_Mar_07_1359,mf_amp_cond2,3.0.4,59.97630176775522,
commitment,&&&&&&&&&&,left,sanctity.virtue,,,,,,,,0,170,170,57,,,,,,,,,,,,,,,,,,,,,LDT,right,1.467281785561795,0,,,right,0,1.467281785561795,,,,,,,,,,,,,,,,,,,,,,1032,2019_Mar_07_1359,mf_amp_cond2,3.0.4,59.97630176775522,
violence,&&&&&&&&,left,care.vice,,,,,,,,0,171,171,82,,,,,,,,,,,,,,,,,,,,,LDT,right,0.33368120724014716,0,,,right,0,0.33368120724014716,,,,,,,,,,,,,,,,,,,,,,1032,2019_Mar_07_1359,mf_amp_cond2,3.0.4,59.97630176775522,
eight,&&&&&,left,neutral,,,,,,,,0,172,172,114,,,,,,,,,,,,,,,,,,,,,LDT,left,0.40035080314612514,1,,,left,1,0.40035080314612514,,,,,,,,,,,,,,,,,,,,,,1032,2019_Mar_07_1359,mf_amp_cond2,3.0.4,59.97630176775522,
fifteen,&&&&&&&,left,neutral,,,,,,,,0,173,173,66,,,,,,,,,,,,,,,,,,,,,LDT,right,0.46703515215585867,0,,,right,0,0.46703515215585867,,,,,,,,,,,,,,,,,,,,,,1032,2019_Mar_07_1359,mf_amp_cond2,3.0.4,59.97630176775522,
emassion,&&&&&&&&,right,nonword,,,,,,,,0,174,174,185,,,,,,,,,,,,,,,,,,,,,LDT,right,0.3670158448331904,1,,,right,1,0.3670158448331904,,,,,,,,,,,,,,,,,,,,,,1032,2019_Mar_07_1359,mf_amp_cond2,3.0.4,59.97630176775522,
troubla,&&&&&&&,right,nonword,,,,,,,,0,175,175,116,,,,,,,,,,,,,,,,,,,,,LDT,right,0.3670418231243957,1,,,right,1,0.3670418231243957,,,,,,,,,,,,,,,,,,,,,,1032,2019_Mar_07_1359,mf_amp_cond2,3.0.4,59.97630176775522,
useful,&&&&&&,left,authority.virtue,,,,,,,,0,176,176,123,,,,,,,,,,,,,,,,,,,,,LDT,right,0.36699563949571257,0,,,right,0,0.36699563949571257,,,,,,,,,,,,,,,,,,,,,,1032,2019_Mar_07_1359,mf_amp_cond2,3.0.4,59.97630176775522,
officers,&&&&&&&&,left,authority.vice,,,,,,,,0,177,177,33,,,,,,,,,,,,,,,,,,,,,LDT,right,0.30033758949673484,0,,,right,0,0.30033758949673484,,,,,,,,,,,,,,,,,,,,,,1032,2019_Mar_07_1359,mf_amp_cond2,3.0.4,59.97630176775522,
torture,&&&&&&&,left,care.vice,,,,,,,,0,178,178,104,,,,,,,,,,,,,,,,,,,,,LDT,right,0.33367447212754087,0,,,right,0,0.33367447212754087,,,,,,,,,,,,,,,,,,,,,,1032,2019_Mar_07_1359,mf_amp_cond2,3.0.4,59.97630176775522,
further,&&&&&&&,left,neutral,,,,,,,,0,179,179,77,,,,,,,,,,,,,,,,,,,,,LDT,right,0.5670611945909059,0,,,right,0,0.5670611945909059,,,,,,,,,,,,,,,,,,,,,,1032,2019_Mar_07_1359,mf_amp_cond2,3.0.4,59.97630176775522,
slending,&&&&&&&&,right,nonword,,,,,,,,0,180,180,108,,,,,,,,,,,,,,,,,,,,,LDT,right,0.41688197645396485,1,,,right,1,0.41688197645396485,,,,,,,,,,,,,,,,,,,,,,1032,2019_Mar_07_1359,mf_amp_cond2,3.0.4,59.97630176775522,
else,&&&&,left,neutral,,,,,,,,0,181,181,140,,,,,,,,,,,,,,,,,,,,,LDT,right,0.38367915463425106,0,,,right,0,0.38367915463425106,,,,,,,,,,,,,,,,,,,,,,1032,2019_Mar_07_1359,mf_amp_cond2,3.0.4,59.97630176775522,
arrests,&&&&&&&,left,authority.vice,,,,,,,,0,182,182,130,,,,,,,,,,,,,,,,,,,,,LDT,right,0.36698890438321996,0,,,right,0,0.36698890438321996,,,,,,,,,,,,,,,,,,,,,,1032,2019_Mar_07_1359,mf_amp_cond2,3.0.4,59.97630176775522,
wump,&&&&,right,nonword,,,,,,,,0,183,183,126,,,,,,,,,,,,,,,,,,,,,LDT,left,0.4170279038918352,0,,,left,0,0.4170279038918352,,,,,,,,,,,,,,,,,,,,,,1032,2019_Mar_07_1359,mf_amp_cond2,3.0.4,59.97630176775522,
improve,&&&&&&&,left,care.virtue,,,,,,,,0,184,184,34,,,,,,,,,,,,,,,,,,,,,LDT,left,0.567053818039085,1,,,left,1,0.567053818039085,,,,,,,,,,,,,,,,,,,,,,1032,2019_Mar_07_1359,mf_amp_cond2,3.0.4,59.97630176775522,
corruption,&&&&&&&&&&,left,sanctity.vice,,,,,,,,0,185,185,134,,,,,,,,,,,,,,,,,,,,,LDT,left,0.466985119891433,1,,,left,1,0.466985119891433,,,,,,,,,,,,,,,,,,,,,,1032,2019_Mar_07_1359,mf_amp_cond2,3.0.4,59.97630176775522,
feleological,&&&&&&&&&&&&,right,nonword,,,,,,,,0,186,186,21,,,,,,,,,,,,,,,,,,,,,LDT,left,0.45036542796185586,0,,,left,0,0.45036542796185586,,,,,,,,,,,,,,,,,,,,,,1032,2019_Mar_07_1359,mf_amp_cond2,3.0.4,59.97630176775522,
sonvoy,&&&&&&,None,nonword,,,,,,,,0,187,187,162,,,,,,,,,,,,,,,,,,,,,LDT,left,0.40035593466041064,0,,,left,0,0.40035593466041064,,,,,,,,,,,,,,,,,,,,,,1032,2019_Mar_07_1359,mf_amp_cond2,3.0.4,59.97630176775522,
help,&&&&,left,care.virtue,,,,,,,,0,188,188,133,,,,,,,,,,,,,,,,,,,,,LDT,left,0.46700981530398167,1,,,left,1,0.46700981530398167,,,,,,,,,,,,,,,,,,,,,,1032,2019_Mar_07_1359,mf_amp_cond2,3.0.4,59.97630176775522,
disregord,&&&&&&&&&,right,nonword,,,,,,,,0,189,189,156,,,,,,,,,,,,,,,,,,,,,LDT,right,0.3503464413589654,1,,,right,1,0.3503464413589654,,,,,,,,,,,,,,,,,,,,,,1032,2019_Mar_07_1359,mf_amp_cond2,3.0.4,59.97630176775522,
both,&&&&,left,neutral,,,,,,,,0,190,190,148,,,,,,,,,,,,,,,,,,,,,LDT,right,0.38368172039156434,0,,,right,0,0.38368172039156434,,,,,,,,,,,,,,,,,,,,,,1032,2019_Mar_07_1359,mf_amp_cond2,3.0.4,59.97630176775522,
wonderfujnoss,&&&&&&&&&&&&&,right,nonword,,,,,,,,0,191,191,83,,,,,,,,,,,,,,,,,,,,,LDT,right,0.3503400269660233,1,,,right,1,0.3503400269660233,,,,,,,,,,,,,,,,,,,,,,1032,2019_Mar_07_1359,mf_amp_cond2,3.0.4,59.97630176775522,
gillipede,&&&&&&&&&,None,nonword,,,,,,,,0,192,192,75,,,,,,,,,,,,,,,,,,,,,LDT,right,0.3503583079858572,0,,,right,0,0.3503583079858572,,,,,,,,,,,,,,,,,,,,,,1032,2019_Mar_07_1359,mf_amp_cond2,3.0.4,59.97630176775522,
three,&&&&&,left,neutral,,,,,,,,0,193,193,47,,,,,,,,,,,,,,,,,,,,,LDT,right,0.33366966133291953,0,,,right,0,0.33366966133291953,,,,,,,,,,,,,,,,,,,,,,1032,2019_Mar_07_1359,mf_amp_cond2,3.0.4,59.97630176775522,
agreement,&&&&&&&&&,left,fairness.virtue,,,,,,,,0,194,194,173,,,,,,,,,,,,,,,,,,,,,LDT,right,0.20029262460275277,0,,,right,0,0.20029262460275277,,,,,,,,,,,,,,,,,,,,,,1032,2019_Mar_07_1359,mf_amp_cond2,3.0.4,59.97630176775522,
besides,&&&&&&&,left,neutral,,,,,,,,0,195,195,187,,,,,,,,,,,,,,,,,,,,,LDT,right,0.35034098912501577,0,,,right,0,0.35034098912501577,,,,,,,,,,,,,,,,,,,,,,1032,2019_Mar_07_1359,mf_amp_cond2,3.0.4,59.97630176775522,
hasks,&&&&&,right,nonword,,,,,,,,0,196,196,144,,,,,,,,,,,,,,,,,,,,,LDT,left,0.35034098912512945,0,,,left,0,0.35034098912512945,,,,,,,,,,,,,,,,,,,,,,1032,2019_Mar_07_1359,mf_amp_cond2,3.0.4,59.97630176775522,
epigrach,&&&&&&&&,right,nonword,,,,,,,,0,197,197,155,,,,,,,,,,,,,,,,,,,,,LDT,left,0.3003638885076043,0,,,left,0,0.3003638885076043,,,,,,,,,,,,,,,,,,,,,,1032,2019_Mar_07_1359,mf_amp_cond2,3.0.4,59.97630176775522,
party,&&&&&,left,loyalty.virtue,,,,,,,,0,198,198,100,,,,,,,,,,,,,,,,,,,,,LDT,left,0.3170111623264802,1,,,left,1,0.3170111623264802,,,,,,,,,,,,,,,,,,,,,,1032,2019_Mar_07_1359,mf_amp_cond2,3.0.4,59.97630176775522,
whereafter,&&&&&&&&&&,left,neutral,,,,,,,,0,199,199,138,,,,,,,,,,,,,,,,,,,,,LDT,left,0.35034098912501577,1,,,left,1,0.35034098912501577,,,,,,,,,,,,,,,,,,,,,,1032,2019_Mar_07_1359,mf_amp_cond2,3.0.4,59.97630176775522,
,,,,,,,,,,,,,,,,,,,,,,,,,,,,,,,,,,,,,,,,,,,,7,6.587,,,,,,,,,,,,,,,,,,,,1032,2019_Mar_07_1359,mf_amp_cond2,3.0.4,59.97630176775522,
,,,,,,,,,,,,,,,,,,,,,,,,,,,,,,,,,,,,,,,,,,,,,,right,1.1672081483313832,,,,,,,,,,,,,,,,,,1032,2019_Mar_07_1359,mf_amp_cond2,3.0.4,59.97630176775522,
scarf,&&&&&&&&,,,bisebell,,,,,,,,,,,0,0,0,3,,,,,,,,,,,,,,,,,AMP_prac,right,1.5673280333344337,,,,,,,,,,,right,1.5673280333344337,,,,,,,,,,,,,,,,1032,2019_Mar_07_1359,mf_amp_cond2,3.0.4,59.97630176775522,
banana,&&&&&&,,,kacket,,,,,,,,,,,0,1,1,1,,,,,,,,,,,,,,,,,AMP_prac,left,0.8838087253704998,,,,,,,,,,,left,0.8838087253704998,,,,,,,,,,,,,,,,1032,2019_Mar_07_1359,mf_amp_cond2,3.0.4,59.97630176775522,
keyboard,&&&&,,,senk,,,,,,,,,,,0,2,2,2,,,,,,,,,,,,,,,,,AMP_prac,left,0.6670731253616395,,,,,,,,,,,left,0.6670731253616395,,,,,,,,,,,,,,,,1032,2019_Mar_07_1359,mf_amp_cond2,3.0.4,59.97630176775522,
car,&&&&&&&&,,,cemtuper,,,,,,,,,,,0,3,3,0,,,,,,,,,,,,,,,,,AMP_prac,right,0.583725466550959,,,,,,,,,,,right,0.583725466550959,,,,,,,,,,,,,,,,1032,2019_Mar_07_1359,mf_amp_cond2,3.0.4,59.97630176775522,
,,,,,,,,,,,,,,,,,,,,,,,,,,,,,,,,,,,,,,,,,,,,,,,,,,right,11.119665951247953,,,,,,,,,,,,,,1032,2019_Mar_07_1359,mf_amp_cond2,3.0.4,59.97630176775522,
encourage,&&&&&&&,left,authority.virtue,emports,,,,,,,,,,,,,,,0,0,0,147,,,,,,,,,,,,,AMP,right,0.7004132151887461,0,,,,,,,,,,,,,,right,0,0.7004132151887461,,,,,,,,,,,1032,2019_Mar_07_1359,mf_amp_cond2,3.0.4,59.97630176775522,
rebels,&&&&&&,right,authority.vice,gazily,,,,,,,,,,,,,,,0,1,1,138,,,,,,,,,,,,,AMP,right,0.5670480450853574,1,,,,,,,,,,,,,,right,1,0.5670480450853574,,,,,,,,,,,1032,2019_Mar_07_1359,mf_amp_cond2,3.0.4,59.97630176775522,
mecan,&&&&&,None,nonword,viscs,,,,,,,,,,,,,,,0,2,2,230,,,,,,,,,,,,,AMP,left,0.3169899948300099,0,,,,,,,,,,,,,,left,0,0.3169899948300099,,,,,,,,,,,1032,2019_Mar_07_1359,mf_amp_cond2,3.0.4,59.97630176775522,
illegal,&&&&&&&&&&&,right,fairness.vice,mightingale,,,,,,,,,,,,,,,0,3,3,68,,,,,,,,,,,,,AMP,right,0.08359878229157403,1,,,,,,,,,,,,,,right,1,0.08359878229157403,,,,,,,,,,,1032,2019_Mar_07_1359,mf_amp_cond2,3.0.4,59.97630176775522,
menizen,&&&&&&&&&&&,None,nonword,hefurbished,,,,,,,,,,,,,,,0,4,4,12,,,,,,,,,,,,,AMP,right,0.5003771663009502,0,,,,,,,,,,,,,,right,0,0.5003771663009502,,,,,,,,,,,1032,2019_Mar_07_1359,mf_amp_cond2,3.0.4,59.97630176775522,
abuse,&&&&&&&&,right,sanctity.vice,glacenta,,,,,,,,,,,,,,,0,5,5,274,,,,,,,,,,,,,AMP,left,0.4003514445853398,0,,,,,,,,,,,,,,left,0,0.4003514445853398,,,,,,,,,,,1032,2019_Mar_07_1359,mf_amp_cond2,3.0.4,59.97630176775522,
discovars,&&&&&&&&&&&,None,nonword,shoirmaster,,,,,,,,,,,,,,,0,6,6,1,,,,,,,,,,,,,AMP,left,0.36704054024585275,0,,,,,,,,,,,,,,left,0,0.36704054024585275,,,,,,,,,,,1032,2019_Mar_07_1359,mf_amp_cond2,3.0.4,59.97630176775522,
victims,&&&&&&&,right,care.vice,gedious,,,,,,,,,,,,,,,0,7,7,122,,,,,,,,,,,,,AMP,left,0.43370757039474483,0,,,,,,,,,,,,,,left,0,0.43370757039474483,,,,,,,,,,,1032,2019_Mar_07_1359,mf_amp_cond2,3.0.4,59.97630176775522,
peace,&&&&&&,left,care.virtue,pumber,,,,,,,,,,,,,,,0,8,8,169,,,,,,,,,,,,,AMP,right,0.38367081592355134,0,,,,,,,,,,,,,,right,0,0.38367081592355134,,,,,,,,,,,1032,2019_Mar_07_1359,mf_amp_cond2,3.0.4,59.97630176775522,
credit,&&&&&&,left,fairness.virtue,sgrawl,,,,,,,,,,,,,,,0,9,9,200,,,,,,,,,,,,,AMP,right,0.5337185390067134,0,,,,,,,,,,,,,,right,0,0.5337185390067134,,,,,,,,,,,1032,2019_Mar_07_1359,mf_amp_cond2,3.0.4,59.97630176775522,
police,&&&&&&&&&&&&&,right,authority.vice,esquisiteness,,,,,,,,,,,,,,,0,10,10,5,,,,,,,,,,,,,AMP,right,0.4503599757279062,1,,,,,,,,,,,,,,right,1,0.4503599757279062,,,,,,,,,,,1032,2019_Mar_07_1359,mf_amp_cond2,3.0.4,59.97630176775522,
lies,&&&&&&&&&&,right,fairness.vice,supervuned,,,,,,,,,,,,,,,0,11,11,85,,,,,,,,,,,,,AMP,left,0.3670132790759908,0,,,,,,,,,,,,,,left,0,0.3670132790759908,,,,,,,,,,,1032,2019_Mar_07_1359,mf_amp_cond2,3.0.4,59.97630176775522,
victim,&&&&&&&&&&&,right,care.vice,ronviolence,,,,,,,,,,,,,,,0,12,12,219,,,,,,,,,,,,,AMP,right,0.1669611942058964,1,,,,,,,,,,,,,,right,1,0.1669611942058964,,,,,,,,,,,1032,2019_Mar_07_1359,mf_amp_cond2,3.0.4,59.97630176775522,
energy,&&&&&&&&&&,left,sanctity.virtue,Oregoniuns,,,,,,,,,,,,,,,0,13,13,89,,,,,,,,,,,,,AMP,right,0.31699384346575243,0,,,,,,,,,,,,,,right,0,0.31699384346575243,,,,,,,,,,,1032,2019_Mar_07_1359,mf_amp_cond2,3.0.4,59.97630176775522,
perfect,&&&&&&&,left,sanctity.virtue,lursuer,,,,,,,,,,,,,,,0,14,14,0,,,,,,,,,,,,,AMP,right,0.5170452868967459,0,,,,,,,,,,,,,,right,0,0.5170452868967459,,,,,,,,,,,1032,2019_Mar_07_1359,mf_amp_cond2,3.0.4,59.97630176775522,
blamed,&&&&&&&&&&&,right,loyalty.vice,neneficence,,,,,,,,,,,,,,,0,15,15,239,,,,,,,,,,,,,AMP,right,0.3003937154344385,1,,,,,,,,,,,,,,right,1,0.3003937154344385,,,,,,,,,,,1032,2019_Mar_07_1359,mf_amp_cond2,3.0.4,59.97630176775522,
safe,&&&&&&,left,care.virtue,chared,,,,,,,,,,,,,,,0,16,16,285,,,,,,,,,,,,,AMP,right,0.5003361141864389,0,,,,,,,,,,,,,,right,0,0.5003361141864389,,,,,,,,,,,1032,2019_Mar_07_1359,mf_amp_cond2,3.0.4,59.97630176775522,
perfect,&&&&&,left,sanctity.virtue,scock,,,,,,,,,,,,,,,0,17,17,131,,,,,,,,,,,,,AMP,left,0.30032443999152747,1,,,,,,,,,,,,,,left,1,0.30032443999152747,,,,,,,,,,,1032,2019_Mar_07_1359,mf_amp_cond2,3.0.4,59.97630176775522,
ability,&&&&&&&,left,authority.virtue,allears,,,,,,,,,,,,,,,0,18,18,226,,,,,,,,,,,,,AMP,left,0.016936242217752806,1,,,,,,,,,,,,,,left,1,0.016936242217752806,,,,,,,,,,,1032,2019_Mar_07_1359,mf_amp_cond2,3.0.4,59.97630176775522,
blamed,&&&&&&,right,loyalty.vice,Cunday,,,,,,,,,,,,,,,0,19,19,256,,,,,,,,,,,,,AMP,left,0.05025291951073996,0,,,,,,,,,,,,,,left,0,0.05025291951073996,,,,,,,,,,,1032,2019_Mar_07_1359,mf_amp_cond2,3.0.4,59.97630176775522,
racist,&&&&&&&&&&,right,sanctity.vice,abointment,,,,,,,,,,,,,,,0,20,20,42,,,,,,,,,,,,,AMP,left,0.06691975722787902,0,,,,,,,,,,,,,,left,0,0.06691975722787902,,,,,,,,,,,1032,2019_Mar_07_1359,mf_amp_cond2,3.0.4,59.97630176775522,
accused,&&&&&&,right,fairness.vice,papert,,,,,,,,,,,,,,,0,21,21,149,,,,,,,,,,,,,AMP,left,0.33365619110782063,0,,,,,,,,,,,,,,left,0,0.33365619110782063,,,,,,,,,,,1032,2019_Mar_07_1359,mf_amp_cond2,3.0.4,59.97630176775522,
clean,&&&&&&&,left,sanctity.virtue,Daptist,,,,,,,,,,,,,,,0,22,22,91,,,,,,,,,,,,,AMP,right,0.016952919639152242,0,,,,,,,,,,,,,,right,0,0.016952919639152242,,,,,,,,,,,1032,2019_Mar_07_1359,mf_amp_cond2,3.0.4,59.97630176775522,
victim,&&&&&&&&&&&&,right,care.vice,iptervention,,,,,,,,,,,,,,,0,23,23,260,,,,,,,,,,,,,AMP,right,0.03359217546699256,1,,,,,,,,,,,,,,right,1,0.03359217546699256,,,,,,,,,,,1032,2019_Mar_07_1359,mf_amp_cond2,3.0.4,59.97630176775522,
dignity,&&&&&&&&&,left,sanctity.virtue,metibolic,,,,,,,,,,,,,,,0,24,24,150,,,,,,,,,,,,,AMP,right,0.750405710349014,0,,,,,,,,,,,,,,right,0,0.750405710349014,,,,,,,,,,,1032,2019_Mar_07_1359,mf_amp_cond2,3.0.4,59.97630176775522,
honored,&&&&&&&&&&,left,authority.virtue,abointment,,,,,,,,,,,,,,,0,25,25,137,,,,,,,,,,,,,AMP,left,0.4170263002936281,1,,,,,,,,,,,,,,left,1,0.4170263002936281,,,,,,,,,,,1032,2019_Mar_07_1359,mf_amp_cond2,3.0.4,59.97630176775522,
hand,&&&&&&&,left,sanctity.virtue,nackers,,,,,,,,,,,,,,,0,26,26,228,,,,,,,,,,,,,AMP,right,0.3336709442114625,0,,,,,,,,,,,,,,right,0,0.3336709442114625,,,,,,,,,,,1032,2019_Mar_07_1359,mf_amp_cond2,3.0.4,59.97630176775522,
groups,&&&&&&&&&&&,right,loyalty.vice,sowntrodden,,,,,,,,,,,,,,,0,27,27,290,,,,,,,,,,,,,AMP,right,0.3836618357734096,1,,,,,,,,,,,,,,right,1,0.3836618357734096,,,,,,,,,,,1032,2019_Mar_07_1359,mf_amp_cond2,3.0.4,59.97630176775522,
hate,&&&&&&&&,right,fairness.vice,clamorek,,,,,,,,,,,,,,,0,28,28,240,,,,,,,,,,,,,AMP,left,0.30032315711287083,0,,,,,,,,,,,,,,left,0,0.30032315711287083,,,,,,,,,,,1032,2019_Mar_07_1359,mf_amp_cond2,3.0.4,59.97630176775522,
compassion,&&&&&&&&,left,care.virtue,sidearbs,,,,,,,,,,,,,,,0,29,29,220,,,,,,,,,,,,,AMP,left,0.36701295835632664,1,,,,,,,,,,,,,,left,1,0.36701295835632664,,,,,,,,,,,1032,2019_Mar_07_1359,mf_amp_cond2,3.0.4,59.97630176775522,
clean,&&&&&&&&,left,sanctity.virtue,ugeasily,,,,,,,,,,,,,,,0,30,30,309,,,,,,,,,,,,,AMP,left,0.13362334941643894,1,,,,,,,,,,,,,,left,1,0.13362334941643894,,,,,,,,,,,1032,2019_Mar_07_1359,mf_amp_cond2,3.0.4,59.97630176775522,
troops,&&&&&&&&&,right,loyalty.vice,neputized,,,,,,,,,,,,,,,0,31,31,114,,,,,,,,,,,,,AMP,left,0.016915716160383454,0,,,,,,,,,,,,,,left,0,0.016915716160383454,,,,,,,,,,,1032,2019_Mar_07_1359,mf_amp_cond2,3.0.4,59.97630176775522,
peace,&&&&&&&&&&,left,care.virtue,frocessing,,,,,,,,,,,,,,,0,32,32,29,,,,,,,,,,,,,AMP,left,0.4336758191500394,1,,,,,,,,,,,,,,left,1,0.4336758191500394,,,,,,,,,,,1032,2019_Mar_07_1359,mf_amp_cond2,3.0.4,59.97630176775522,
black,&&&&&,right,loyalty.vice,touls,,,,,,,,,,,,,,,0,33,33,121,,,,,,,,,,,,,AMP,left,0.06693258601376328,0,,,,,,,,,,,,,,left,0,0.06693258601376328,,,,,,,,,,,1032,2019_Mar_07_1359,mf_amp_cond2,3.0.4,59.97630176775522,
victims,&&&&&&&&,right,care.vice,pullness,,,,,,,,,,,,,,,0,34,34,80,,,,,,,,,,,,,AMP,left,0.2669891609587012,0,,,,,,,,,,,,,,left,0,0.2669891609587012,,,,,,,,,,,1032,2019_Mar_07_1359,mf_amp_cond2,3.0.4,59.97630176775522,
war,&&&&&&&&&,right,sanctity.vice,pescinded,,,,,,,,,,,,,,,0,35,35,252,,,,,,,,,,,,,AMP,right,0.10029063614092593,1,,,,,,,,,,,,,,right,1,0.10029063614092593,,,,,,,,,,,1032,2019_Mar_07_1359,mf_amp_cond2,3.0.4,59.97630176775522,
opportunity,&&&&&&&,left,fairness.virtue,Loorish,,,,,,,,,,,,,,,0,36,36,268,,,,,,,,,,,,,AMP,right,0.16695798700948217,0,,,,,,,,,,,,,,right,0,0.16695798700948217,,,,,,,,,,,1032,2019_Mar_07_1359,mf_amp_cond2,3.0.4,59.97630176775522,
chadows,&&&&&&&&&,None,nonword,grovelire,,,,,,,,,,,,,,,0,37,37,48,,,,,,,,,,,,,AMP,right,0.0002908927167482034,0,,,,,,,,,,,,,,right,0,0.0002908927167482034,,,,,,,,,,,1032,2019_Mar_07_1359,mf_amp_cond2,3.0.4,59.97630176775522,
ensure,&&&&&&&,left,fairness.virtue,gedious,,,,,,,,,,,,,,,0,38,38,65,,,,,,,,,,,,,AMP,right,0.20028845524734606,0,,,,,,,,,,,,,,right,0,0.20028845524734606,,,,,,,,,,,1032,2019_Mar_07_1359,mf_amp_cond2,3.0.4,59.97630176775522,
encourage,&&&&&&,left,authority.virtue,greaks,,,,,,,,,,,,,,,0,39,39,76,,,,,,,,,,,,,AMP,right,0.08360583812373079,0,,,,,,,,,,,,,,right,0,0.08360583812373079,,,,,,,,,,,1032,2019_Mar_07_1359,mf_amp_cond2,3.0.4,59.97630176775522,
bycled,&&&&&&&&&,None,nonword,pescinded,,,,,,,,,,,,,,,0,40,40,44,,,,,,,,,,,,,AMP,right,0.03358127099909325,0,,,,,,,,,,,,,,right,0,0.03358127099909325,,,,,,,,,,,1032,2019_Mar_07_1359,mf_amp_cond2,3.0.4,59.97630176775522,
trust,&&&&&&&&&,left,authority.virtue,metibolic,,,,,,,,,,,,,,,0,41,41,316,,,,,,,,,,,,,AMP,right,0.10026914792479147,0,,,,,,,,,,,,,,right,0,0.10026914792479147,,,,,,,,,,,1032,2019_Mar_07_1359,mf_amp_cond2,3.0.4,59.97630176775522,
care,&&&&&&,left,care.virtue,pumber,,,,,,,,,,,,,,,0,42,42,146,,,,,,,,,,,,,AMP,right,0.13362078365935304,0,,,,,,,,,,,,,,right,0,0.13362078365935304,,,,,,,,,,,1032,2019_Mar_07_1359,mf_amp_cond2,3.0.4,59.97630176775522,
death,&&&&&&&&,right,care.vice,sliptery,,,,,,,,,,,,,,,0,43,43,184,,,,,,,,,,,,,AMP,right,0.667074087520632,1,,,,,,,,,,,,,,right,1,0.667074087520632,,,,,,,,,,,1032,2019_Mar_07_1359,mf_amp_cond2,3.0.4,59.97630176775522,
hope,&&&&&&&&&&&&&,left,loyalty.virtue,esquisiteness,,,,,,,,,,,,,,,0,44,44,293,,,,,,,,,,,,,AMP,right,0.0002912134364123631,0,,,,,,,,,,,,,,right,0,0.0002912134364123631,,,,,,,,,,,1032,2019_Mar_07_1359,mf_amp_cond2,3.0.4,59.97630176775522,
hope,&&&&,left,loyalty.virtue,ning,,,,,,,,,,,,,,,0,45,45,203,,,,,,,,,,,,,AMP,right,0.05025195735197485,0,,,,,,,,,,,,,,right,0,0.05025195735197485,,,,,,,,,,,1032,2019_Mar_07_1359,mf_amp_cond2,3.0.4,59.97630176775522,
ban,&&&&&&&&&&&,right,loyalty.vice,lempestuous,,,,,,,,,,,,,,,0,46,46,204,,,,,,,,,,,,,AMP,right,0.2669904438373578,1,,,,,,,,,,,,,,right,1,0.2669904438373578,,,,,,,,,,,1032,2019_Mar_07_1359,mf_amp_cond2,3.0.4,59.97630176775522,
injured,&&&&,right,care.vice,ning,,,,,,,,,,,,,,,0,47,47,148,,,,,,,,,,,,,AMP,right,0.2503001935863267,1,,,,,,,,,,,,,,right,1,0.2503001935863267,,,,,,,,,,,1032,2019_Mar_07_1359,mf_amp_cond2,3.0.4,59.97630176775522,
love,&&&&&&&,left,loyalty.virtue,nackers,,,,,,,,,,,,,,,0,48,48,27,,,,,,,,,,,,,AMP,right,0.8837958965846155,0,,,,,,,,,,,,,,right,0,0.8837958965846155,,,,,,,,,,,1032,2019_Mar_07_1359,mf_amp_cond2,3.0.4,59.97630176775522,
praised,&&&&&&,left,loyalty.virtue,Boeinf,,,,,,,,,,,,,,,0,49,49,93,,,,,,,,,,,,,AMP,right,0.0002857612025763956,0,,,,,,,,,,,,,,right,0,0.0002857612025763956,,,,,,,,,,,1032,2019_Mar_07_1359,mf_amp_cond2,3.0.4,59.97630176775522,
charges,&&&&&,right,fairness.vice,scock,,,,,,,,,,,,,,,0,50,50,247,,,,,,,,,,,,,AMP,right,0.0002864026416773413,1,,,,,,,,,,,,,,right,1,0.0002864026416773413,,,,,,,,,,,1032,2019_Mar_07_1359,mf_amp_cond2,3.0.4,59.97630176775522,
praised,&&&&&&,left,loyalty.virtue,Cunday,,,,,,,,,,,,,,,0,51,51,175,,,,,,,,,,,,,AMP,right,0.20029037956533102,0,,,,,,,,,,,,,,right,0,0.20029037956533102,,,,,,,,,,,1032,2019_Mar_07_1359,mf_amp_cond2,3.0.4,59.97630176775522,
fighters,&&&&&,right,authority.vice,pulge,,,,,,,,,,,,,,,0,52,52,278,,,,,,,,,,,,,AMP,left,0.18361841033379278,0,,,,,,,,,,,,,,left,0,0.18361841033379278,,,,,,,,,,,1032,2019_Mar_07_1359,mf_amp_cond2,3.0.4,59.97630176775522,
voter,&&&&&&&&&&&,right,fairness.vice,neneficence,,,,,,,,,,,,,,,0,53,53,108,,,,,,,,,,,,,AMP,left,0.28365760227416104,0,,,,,,,,,,,,,,left,0,0.28365760227416104,,,,,,,,,,,1032,2019_Mar_07_1359,mf_amp_cond2,3.0.4,59.97630176775522,
unpleasant,&&&&&&&&&&,None,control,simplustic,,,,,,,,,,,,,,,0,54,54,60,,,,,,,,,,,,,AMP,left,0.26698402944452937,0,,,,,,,,,,,,,,left,0,0.26698402944452937,,,,,,,,,,,1032,2019_Mar_07_1359,mf_amp_cond2,3.0.4,59.97630176775522,
pleasant,&&&&&&&,None,control,halaise,,,,,,,,,,,,,,,0,55,55,119,,,,,,,,,,,,,AMP,left,0.06693803824759925,0,,,,,,,,,,,,,,left,0,0.06693803824759925,,,,,,,,,,,1032,2019_Mar_07_1359,mf_amp_cond2,3.0.4,59.97630176775522,
gowlands,&&&&&,None,nonword,aubos,,,,,,,,,,,,,,,0,56,56,62,,,,,,,,,,,,,AMP,left,0.03354053960447345,0,,,,,,,,,,,,,,left,0,0.03354053960447345,,,,,,,,,,,1032,2019_Mar_07_1359,mf_amp_cond2,3.0.4,59.97630176775522,
love,&&&&&&&&&,left,loyalty.virtue,tenuflect,,,,,,,,,,,,,,,0,57,57,295,,,,,,,,,,,,,AMP,left,0.01694842956408138,1,,,,,,,,,,,,,,left,1,0.01694842956408138,,,,,,,,,,,1032,2019_Mar_07_1359,mf_amp_cond2,3.0.4,59.97630176775522,
brotesque,&&&&&,None,nonword,viscs,,,,,,,,,,,,,,,0,58,58,321,,,,,,,,,,,,,AMP,left,0.5170837732537166,0,,,,,,,,,,,,,,left,0,0.5170837732537166,,,,,,,,,,,1032,2019_Mar_07_1359,mf_amp_cond2,3.0.4,59.97630176775522,
fair,&&&&&&&&,left,fairness.virtue,divility,,,,,,,,,,,,,,,0,59,59,279,,,,,,,,,,,,,AMP,right,0.4003527274639964,0,,,,,,,,,,,,,,right,0,0.4003527274639964,,,,,,,,,,,1032,2019_Mar_07_1359,mf_amp_cond2,3.0.4,59.97630176775522,
benefit,&&&&&&&,left,fairness.virtue,pharing,,,,,,,,,,,,,,,0,60,60,248,,,,,,,,,,,,,AMP,right,0.016910584646211646,0,,,,,,,,,,,,,,right,0,0.016910584646211646,,,,,,,,,,,1032,2019_Mar_07_1359,mf_amp_cond2,3.0.4,59.97630176775522,
taxpayung,&&&&,None,nonword,yane,,,,,,,,,,,,,,,0,61,61,263,,,,,,,,,,,,,AMP,right,0.2836983336692356,0,,,,,,,,,,,,,,right,0,0.2836983336692356,,,,,,,,,,,1032,2019_Mar_07_1359,mf_amp_cond2,3.0.4,59.97630176775522,
abuse,&&&&,right,sanctity.vice,yane,,,,,,,,,,,,,,,0,62,62,117,,,,,,,,,,,,,AMP,right,0.2503046836613976,1,,,,,,,,,,,,,,right,1,0.2503046836613976,,,,,,,,,,,1032,2019_Mar_07_1359,mf_amp_cond2,3.0.4,59.97630176775522,
care,&&&&&,left,care.virtue,lenon,,,,,,,,,,,,,,,0,63,63,25,,,,,,,,,,,,,AMP,right,0.8004597836811627,0,,,,,,,,,,,,,,right,0,0.8004597836811627,,,,,,,,,,,1032,2019_Mar_07_1359,mf_amp_cond2,3.0.4,59.97630176775522,
prosecution,&&&&&&&&&,right,authority.vice,ittutable,,,,,,,,,,,,,,,0,64,64,167,,,,,,,,,,,,,AMP,right,0.31699384346575243,1,,,,,,,,,,,,,,right,1,0.31699384346575243,,,,,,,,,,,1032,2019_Mar_07_1359,mf_amp_cond2,3.0.4,59.97630176775522,
care,&&&&&&&&,left,care.virtue,divility,,,,,,,,,,,,,,,0,65,65,241,,,,,,,,,,,,,AMP,right,0.03354470895965278,0,,,,,,,,,,,,,,right,0,0.03354470895965278,,,,,,,,,,,1032,2019_Mar_07_1359,mf_amp_cond2,3.0.4,59.97630176775522,
serial,&&&&&&&&&&&&,right,sanctity.vice,iptervention,,,,,,,,,,,,,,,0,66,66,88,,,,,,,,,,,,,AMP,right,0.16695798700948217,1,,,,,,,,,,,,,,right,1,0.16695798700948217,,,,,,,,,,,1032,2019_Mar_07_1359,mf_amp_cond2,3.0.4,59.97630176775522,
gowlands,&&&&&,None,nonword,framo,,,,,,,,,,,,,,,0,67,67,129,,,,,,,,,,,,,AMP,right,0.28365631939573177,0,,,,,,,,,,,,,,right,0,0.28365631939573177,,,,,,,,,,,1032,2019_Mar_07_1359,mf_amp_cond2,3.0.4,59.97630176775522,
compassion,&&&&&,left,care.virtue,lenon,,,,,,,,,,,,,,,0,68,68,270,,,,,,,,,,,,,AMP,left,0.2503120602132185,1,,,,,,,,,,,,,,left,1,0.2503120602132185,,,,,,,,,,,1032,2019_Mar_07_1359,mf_amp_cond2,3.0.4,59.97630176775522,
troops,&&&&&,right,loyalty.vice,uller,,,,,,,,,,,,,,,0,69,69,280,,,,,,,,,,,,,AMP,left,0.03359634482239926,0,,,,,,,,,,,,,,left,0,0.03359634482239926,,,,,,,,,,,1032,2019_Mar_07_1359,mf_amp_cond2,3.0.4,59.97630176775522,
harassment,&&&&&&&&,right,sanctity.vice,sidearbs,,,,,,,,,,,,,,,0,70,70,267,,,,,,,,,,,,,AMP,left,0.0002851197632480762,0,,,,,,,,,,,,,,left,0,0.0002851197632480762,,,,,,,,,,,1032,2019_Mar_07_1359,mf_amp_cond2,3.0.4,59.97630176775522,
powerful,&&&&&,left,authority.virtue,aubos,,,,,,,,,,,,,,,0,71,71,266,,,,,,,,,,,,,AMP,left,0.43369923168393143,1,,,,,,,,,,,,,,left,1,0.43369923168393143,,,,,,,,,,,1032,2019_Mar_07_1359,mf_amp_cond2,3.0.4,59.97630176775522,
integrity,&&&&&&&,left,fairness.virtue,pharing,,,,,,,,,,,,,,,0,72,72,22,,,,,,,,,,,,,AMP,left,0.06691847434944975,1,,,,,,,,,,,,,,left,1,0.06691847434944975,,,,,,,,,,,1032,2019_Mar_07_1359,mf_amp_cond2,3.0.4,59.97630176775522,
benefit,&&&&,left,fairness.virtue,erks,,,,,,,,,,,,,,,0,73,73,30,,,,,,,,,,,,,AMP,left,0.10027748663560487,1,,,,,,,,,,,,,,left,1,0.10027748663560487,,,,,,,,,,,1032,2019_Mar_07_1359,mf_amp_cond2,3.0.4,59.97630176775522,
serial,&&&&&&&&&,right,sanctity.vice,tomedians,,,,,,,,,,,,,,,0,74,74,72,,,,,,,,,,,,,AMP,left,0.06692873737802074,0,,,,,,,,,,,,,,left,0,0.06692873737802074,,,,,,,,,,,1032,2019_Mar_07_1359,mf_amp_cond2,3.0.4,59.97630176775522,
rejected,&&&&,right,authority.vice,ning,,,,,,,,,,,,,,,0,75,75,288,,,,,,,,,,,,,AMP,left,0.48370006555501277,0,,,,,,,,,,,,,,left,0,0.48370006555501277,,,,,,,,,,,1032,2019_Mar_07_1359,mf_amp_cond2,3.0.4,59.97630176775522,
friends,&&&&&&&&&,left,loyalty.virtue,gaultless,,,,,,,,,,,,,,,0,76,76,94,,,,,,,,,,,,,AMP,left,0.050266069016288384,1,,,,,,,,,,,,,,left,1,0.050266069016288384,,,,,,,,,,,1032,2019_Mar_07_1359,mf_amp_cond2,3.0.4,59.97630176775522,
riot,&&&&&,right,authority.vice,pulge,,,,,,,,,,,,,,,0,77,77,178,,,,,,,,,,,,,AMP,left,0.03358640251349243,0,,,,,,,,,,,,,,left,0,0.03358640251349243,,,,,,,,,,,1032,2019_Mar_07_1359,mf_amp_cond2,3.0.4,59.97630176775522,
honored,&&&&&&&&&,left,authority.virtue,gaultless,,,,,,,,,,,,,,,0,78,78,224,,,,,,,,,,,,,AMP,left,0.16697594730953824,1,,,,,,,,,,,,,,left,1,0.16697594730953824,,,,,,,,,,,1032,2019_Mar_07_1359,mf_amp_cond2,3.0.4,59.97630176775522,
promote,&&&&&&&&&&&,left,sanctity.virtue,egpeditious,,,,,,,,,,,,,,,0,79,79,124,,,,,,,,,,,,,AMP,left,0.15027703762802957,1,,,,,,,,,,,,,,left,1,0.15027703762802957,,,,,,,,,,,1032,2019_Mar_07_1359,mf_amp_cond2,3.0.4,59.97630176775522,
hope,&&&&&&&&,left,loyalty.virtue,sidearbs,,,,,,,,,,,,,,,0,80,80,8,,,,,,,,,,,,,AMP,left,0.13361436926629722,1,,,,,,,,,,,,,,left,1,0.13361436926629722,,,,,,,,,,,1032,2019_Mar_07_1359,mf_amp_cond2,3.0.4,59.97630176775522,
victims,&&&&&&&&,right,care.vice,ebbitter,,,,,,,,,,,,,,,0,81,81,206,,,,,,,,,,,,,AMP,left,0.2836415662920899,0,,,,,,,,,,,,,,left,0,0.2836415662920899,,,,,,,,,,,1032,2019_Mar_07_1359,mf_amp_cond2,3.0.4,59.97630176775522,
prosecution,&&&&&&,right,authority.vice,Cunday,,,,,,,,,,,,,,,0,82,82,24,,,,,,,,,,,,,AMP,left,0.26698723664117097,0,,,,,,,,,,,,,,left,0,0.26698723664117097,,,,,,,,,,,1032,2019_Mar_07_1359,mf_amp_cond2,3.0.4,59.97630176775522,
voter,&&&&&&&&&&,right,fairness.vice,fonderland,,,,,,,,,,,,,,,0,83,83,50,,,,,,,,,,,,,AMP,left,0.0002880062399981398,0,,,,,,,,,,,,,,left,0,0.0002880062399981398,,,,,,,,,,,1032,2019_Mar_07_1359,mf_amp_cond2,3.0.4,59.97630176775522,
protesters,&&&&&&&&,right,authority.vice,pullness,,,,,,,,,,,,,,,0,84,84,296,,,,,,,,,,,,,AMP,right,0.15028826281559304,1,,,,,,,,,,,,,,right,1,0.15028826281559304,,,,,,,,,,,1032,2019_Mar_07_1359,mf_amp_cond2,3.0.4,59.97630176775522,
intelligence,&&&&&&&&&,left,loyalty.virtue,ittutable,,,,,,,,,,,,,,,0,85,85,315,,,,,,,,,,,,,AMP,left,0.1835343817872399,1,,,,,,,,,,,,,,left,1,0.1835343817872399,,,,,,,,,,,1032,2019_Mar_07_1359,mf_amp_cond2,3.0.4,59.97630176775522,
rebels,&&&&,right,authority.vice,juck,,,,,,,,,,,,,,,0,86,86,317,,,,,,,,,,,,,AMP,right,0.1836190517731211,1,,,,,,,,,,,,,,right,1,0.1836190517731211,,,,,,,,,,,1032,2019_Mar_07_1359,mf_amp_cond2,3.0.4,59.97630176775522,
fear,&&&&&&,right,sanctity.vice,openet,,,,,,,,,,,,,,,0,87,87,257,,,,,,,,,,,,,AMP,right,0.0502567681464825,1,,,,,,,,,,,,,,right,1,0.0502567681464825,,,,,,,,,,,1032,2019_Mar_07_1359,mf_amp_cond2,3.0.4,59.97630176775522,
serial,&&&&&&&&,right,sanctity.vice,lachelor,,,,,,,,,,,,,,,0,88,88,300,,,,,,,,,,,,,AMP,right,0.16699454904892264,1,,,,,,,,,,,,,,right,1,0.16699454904892264,,,,,,,,,,,1032,2019_Mar_07_1359,mf_amp_cond2,3.0.4,59.97630176775522,
terrorist,&&&&&&,right,loyalty.vice,antral,,,,,,,,,,,,,,,0,89,89,198,,,,,,,,,,,,,AMP,right,0.13360378551806207,1,,,,,,,,,,,,,,right,1,0.13360378551806207,,,,,,,,,,,1032,2019_Mar_07_1359,mf_amp_cond2,3.0.4,59.97630176775522,
groups,&&&&&&&&&&,right,loyalty.vice,fonderland,,,,,,,,,,,,,,,0,90,90,191,,,,,,,,,,,,,AMP,right,0.11692187397784437,1,,,,,,,,,,,,,,right,1,0.11692187397784437,,,,,,,,,,,1032,2019_Mar_07_1359,mf_amp_cond2,3.0.4,59.97630176775522,
opportunity,&&&&&,left,fairness.virtue,touls,,,,,,,,,,,,,,,0,91,91,17,,,,,,,,,,,,,AMP,right,0.250313022372211,0,,,,,,,,,,,,,,right,0,0.250313022372211,,,,,,,,,,,1032,2019_Mar_07_1359,mf_amp_cond2,3.0.4,59.97630176775522,
fighters,&&&&&&&&&&,right,authority.vice,Oregoniuns,,,,,,,,,,,,,,,0,92,92,35,,,,,,,,,,,,,AMP,right,0.31697844892278226,1,,,,,,,,,,,,,,right,1,0.31697844892278226,,,,,,,,,,,1032,2019_Mar_07_1359,mf_amp_cond2,3.0.4,59.97630176775522,
strong,&&&&&&&&&,left,loyalty.virtue,tenuflect,,,,,,,,,,,,,,,0,93,93,58,,,,,,,,,,,,,AMP,right,0.03358511963483579,0,,,,,,,,,,,,,,right,0,0.03358511963483579,,,,,,,,,,,1032,2019_Mar_07_1359,mf_amp_cond2,3.0.4,59.97630176775522,
safety,&&&&&&&&,left,care.virtue,ugeasily,,,,,,,,,,,,,,,0,94,94,237,,,,,,,,,,,,,AMP,left,0.3503345747321873,1,,,,,,,,,,,,,,left,1,0.3503345747321873,,,,,,,,,,,1032,2019_Mar_07_1359,mf_amp_cond2,3.0.4,59.97630176775522,
discovars,&&&&&&,None,nonword,forepo,,,,,,,,,,,,,,,0,95,95,193,,,,,,,,,,,,,AMP,left,0.23363239371042255,0,,,,,,,,,,,,,,left,0,0.23363239371042255,,,,,,,,,,,1032,2019_Mar_07_1359,mf_amp_cond2,3.0.4,59.97630176775522,
growth,&&&&&&&&&,left,care.virtue,pescinded,,,,,,,,,,,,,,,0,96,96,83,,,,,,,,,,,,,AMP,right,0.0003563195241440553,0,,,,,,,,,,,,,,right,0,0.0003563195241440553,,,,,,,,,,,1032,2019_Mar_07_1359,mf_amp_cond2,3.0.4,59.97630176775522,
bycled,&&&&&&&,None,nonword,scalbel,,,,,,,,,,,,,,,0,97,97,140,,,,,,,,,,,,,AMP,left,0.016908660328226688,0,,,,,,,,,,,,,,left,0,0.016908660328226688,,,,,,,,,,,1032,2019_Mar_07_1359,mf_amp_cond2,3.0.4,59.97630176775522,
safety,&&&&&&,left,care.virtue,Cunday,,,,,,,,,,,,,,,0,98,98,132,,,,,,,,,,,,,AMP,left,0.06693002025667738,1,,,,,,,,,,,,,,left,1,0.06693002025667738,,,,,,,,,,,1032,2019_Mar_07_1359,mf_amp_cond2,3.0.4,59.97630176775522,
war,&&&&&,right,sanctity.vice,lenon,,,,,,,,,,,,,,,0,99,99,141,,,,,,,,,,,,,AMP,right,0.4503542027744061,1,,,,,,,,,,,,,,right,1,0.4503542027744061,,,,,,,,,,,1032,2019_Mar_07_1359,mf_amp_cond2,3.0.4,59.97630176775522,
honored,&&&&&&&,left,authority.virtue,halaise,,,,,,,,,,,,,,,0,100,100,314,,,,,,,,,,,,,AMP,right,0.23363239371042255,0,,,,,,,,,,,,,,right,0,0.23363239371042255,,,,,,,,,,,1032,2019_Mar_07_1359,mf_amp_cond2,3.0.4,59.97630176775522,
abuse,&&&&&&&,right,sanctity.vice,Loorish,,,,,,,,,,,,,,,0,101,101,57,,,,,,,,,,,,,AMP,right,0.10028422174809748,1,,,,,,,,,,,,,,right,1,0.10028422174809748,,,,,,,,,,,1032,2019_Mar_07_1359,mf_amp_cond2,3.0.4,59.97630176775522,
promises,&&&&&&&&,left,fairness.virtue,lachelor,,,,,,,,,,,,,,,0,102,102,165,,,,,,,,,,,,,AMP,right,0.28364958428323916,0,,,,,,,,,,,,,,right,0,0.28364958428323916,,,,,,,,,,,1032,2019_Mar_07_1359,mf_amp_cond2,3.0.4,59.97630176775522,
peace,&&&&&&&&,left,care.virtue,clamorek,,,,,,,,,,,,,,,0,103,103,305,,,,,,,,,,,,,AMP,right,0.2336304693924376,0,,,,,,,,,,,,,,right,0,0.2336304693924376,,,,,,,,,,,1032,2019_Mar_07_1359,mf_amp_cond2,3.0.4,59.97630176775522,
prosecution,&&&&&&&&,right,authority.vice,lachelor,,,,,,,,,,,,,,,0,104,104,155,,,,,,,,,,,,,AMP,right,0.1836315598393412,1,,,,,,,,,,,,,,right,1,0.1836315598393412,,,,,,,,,,,1032,2019_Mar_07_1359,mf_amp_cond2,3.0.4,59.97630176775522,
ability,&&&&&,left,authority.virtue,pulge,,,,,,,,,,,,,,,0,105,105,52,,,,,,,,,,,,,AMP,left,0.850453882439524,1,,,,,,,,,,,,,,left,1,0.850453882439524,,,,,,,,,,,1032,2019_Mar_07_1359,mf_amp_cond2,3.0.4,59.97630176775522,
promises,&&&&&&&&&&,left,fairness.virtue,simplustic,,,,,,,,,,,,,,,0,106,106,269,,,,,,,,,,,,,AMP,left,0.1170020538886547,1,,,,,,,,,,,,,,left,1,0.1170020538886547,,,,,,,,,,,1032,2019_Mar_07_1359,mf_amp_cond2,3.0.4,59.97630176775522,
suicide,&&&&&&,right,care.vice,antral,,,,,,,,,,,,,,,0,107,107,38,,,,,,,,,,,,,AMP,left,0.18364118142858388,0,,,,,,,,,,,,,,left,0,0.18364118142858388,,,,,,,,,,,1032,2019_Mar_07_1359,mf_amp_cond2,3.0.4,59.97630176775522,
prison,&&&&&&&&&&,right,fairness.vice,ejanulated,,,,,,,,,,,,,,,0,108,108,197,,,,,,,,,,,,,AMP,left,0.016923092712431753,0,,,,,,,,,,,,,,left,0,0.016923092712431753,,,,,,,,,,,1032,2019_Mar_07_1359,mf_amp_cond2,3.0.4,59.97630176775522,
intelligence,&&&&,left,loyalty.virtue,erks,,,,,,,,,,,,,,,0,109,109,235,,,,,,,,,,,,,AMP,left,0.1503222590979476,1,,,,,,,,,,,,,,left,1,0.1503222590979476,,,,,,,,,,,1032,2019_Mar_07_1359,mf_amp_cond2,3.0.4,59.97630176775522,
growth,&&&&&&&&&&&,left,care.virtue,neneficence,,,,,,,,,,,,,,,0,110,110,49,,,,,,,,,,,,,AMP,left,0.08360904532014501,1,,,,,,,,,,,,,,left,1,0.08360904532014501,,,,,,,,,,,1032,2019_Mar_07_1359,mf_amp_cond2,3.0.4,59.97630176775522,
safe,&&&&&&&&&,left,care.virtue,grovelire,,,,,,,,,,,,,,,0,111,111,183,,,,,,,,,,,,,AMP,right,0.1836190517731211,0,,,,,,,,,,,,,,right,0,0.1836190517731211,,,,,,,,,,,1032,2019_Mar_07_1359,mf_amp_cond2,3.0.4,59.97630176775522,
chressing,&&&&,None,nonword,erks,,,,,,,,,,,,,,,0,112,112,115,,,,,,,,,,,,,AMP,right,0.10026978936411979,0,,,,,,,,,,,,,,right,0,0.10026978936411979,,,,,,,,,,,1032,2019_Mar_07_1359,mf_amp_cond2,3.0.4,59.97630176775522,
energy,&&&&&&,left,sanctity.virtue,pumber,,,,,,,,,,,,,,,0,113,113,297,,,,,,,,,,,,,AMP,right,0.0002886476793264592,0,,,,,,,,,,,,,,right,0,0.0002886476793264592,,,,,,,,,,,1032,2019_Mar_07_1359,mf_amp_cond2,3.0.4,59.97630176775522,
fear,&&&&&&&&&,right,sanctity.vice,tenuflect,,,,,,,,,,,,,,,0,114,114,176,,,,,,,,,,,,,AMP,right,0.20030737770639462,1,,,,,,,,,,,,,,right,1,0.20030737770639462,,,,,,,,,,,1032,2019_Mar_07_1359,mf_amp_cond2,3.0.4,59.97630176775522,
fighters,&&&&&&,right,authority.vice,letish,,,,,,,,,,,,,,,0,115,115,135,,,,,,,,,,,,,AMP,left,0.050249712314325734,0,,,,,,,,,,,,,,left,0,0.050249712314325734,,,,,,,,,,,1032,2019_Mar_07_1359,mf_amp_cond2,3.0.4,59.97630176775522,
progress,&&&&&&,left,authority.virtue,antral,,,,,,,,,,,,,,,0,116,116,110,,,,,,,,,,,,,AMP,left,0.3503432341626649,1,,,,,,,,,,,,,,left,1,0.3503432341626649,,,,,,,,,,,1032,2019_Mar_07_1359,mf_amp_cond2,3.0.4,59.97630176775522,
celebrated,&&&&&&&&,left,authority.virtue,perified,,,,,,,,,,,,,,,0,117,117,26,,,,,,,,,,,,,AMP,right,0.0002880062399981398,0,,,,,,,,,,,,,,right,0,0.0002880062399981398,,,,,,,,,,,1032,2019_Mar_07_1359,mf_amp_cond2,3.0.4,59.97630176775522,
voter,&&&&&&&,right,fairness.vice,emports,,,,,,,,,,,,,,,0,118,118,291,,,,,,,,,,,,,AMP,right,0.1502792826656787,1,,,,,,,,,,,,,,right,1,0.1502792826656787,,,,,,,,,,,1032,2019_Mar_07_1359,mf_amp_cond2,3.0.4,59.97630176775522,
lies,&&&&&&&&,right,fairness.vice,thadowed,,,,,,,,,,,,,,,0,119,119,172,,,,,,,,,,,,,AMP,right,0.2169671595913769,1,,,,,,,,,,,,,,right,1,0.2169671595913769,,,,,,,,,,,1032,2019_Mar_07_1359,mf_amp_cond2,3.0.4,59.97630176775522,
terrorist,&&&&&&&&&,right,loyalty.vice,grovelire,,,,,,,,,,,,,,,0,120,120,120,,,,,,,,,,,,,AMP,right,0.10026850648569052,1,,,,,,,,,,,,,,right,1,0.10026850648569052,,,,,,,,,,,1032,2019_Mar_07_1359,mf_amp_cond2,3.0.4,59.97630176775522,
dignity,&&&&&&,left,sanctity.virtue,fegard,,,,,,,,,,,,,,,0,121,121,61,,,,,,,,,,,,,AMP,right,0.2002932660420811,0,,,,,,,,,,,,,,right,0,0.2002932660420811,,,,,,,,,,,1032,2019_Mar_07_1359,mf_amp_cond2,3.0.4,59.97630176775522,
safe,&&&&&&&&,left,care.virtue,ebbitter,,,,,,,,,,,,,,,0,122,122,99,,,,,,,,,,,,,AMP,right,0.08361802547028674,0,,,,,,,,,,,,,,right,0,0.08361802547028674,,,,,,,,,,,1032,2019_Mar_07_1359,mf_amp_cond2,3.0.4,59.97630176775522,
police,&&&&&&&&&&,right,authority.vice,supervuned,,,,,,,,,,,,,,,0,123,123,232,,,,,,,,,,,,,AMP,right,0.23363175227086685,1,,,,,,,,,,,,,,right,1,0.23363175227086685,,,,,,,,,,,1032,2019_Mar_07_1359,mf_amp_cond2,3.0.4,59.97630176775522,
trust,&&&&&&&,left,authority.virtue,emports,,,,,,,,,,,,,,,0,124,124,79,,,,,,,,,,,,,AMP,left,0.21693027683249966,1,,,,,,,,,,,,,,left,1,0.21693027683249966,,,,,,,,,,,1032,2019_Mar_07_1359,mf_amp_cond2,3.0.4,59.97630176775522,
charges,&&&&&&,right,fairness.vice,strofe,,,,,,,,,,,,,,,0,125,125,16,,,,,,,,,,,,,AMP,right,0.13365285562349527,1,,,,,,,,,,,,,,right,1,0.13365285562349527,,,,,,,,,,,1032,2019_Mar_07_1359,mf_amp_cond2,3.0.4,59.97630176775522,
charges,&&&&&&&&&&&,right,fairness.vice,presentkess,,,,,,,,,,,,,,,0,126,126,218,,,,,,,,,,,,,AMP,right,0.033432136364808684,1,,,,,,,,,,,,,,right,1,0.033432136364808684,,,,,,,,,,,1032,2019_Mar_07_1359,mf_amp_cond2,3.0.4,59.97630176775522,
increase,&&&&&&&&,left,care.virtue,clamorek,,,,,,,,,,,,,,,0,127,127,3,,,,,,,,,,,,,AMP,right,0.0002876855203339801,0,,,,,,,,,,,,,,right,0,0.0002876855203339801,,,,,,,,,,,1032,2019_Mar_07_1359,mf_amp_cond2,3.0.4,59.97630176775522,
brotesque,&&&&&&&&&,None,nonword,metibolic,,,,,,,,,,,,,,,0,128,128,213,,,,,,,,,,,,,AMP,right,0.10028293886944084,0,,,,,,,,,,,,,,right,0,0.10028293886944084,,,,,,,,,,,1032,2019_Mar_07_1359,mf_amp_cond2,3.0.4,59.97630176775522,
counpy's,&&&&&&&,None,nonword,reviked,,,,,,,,,,,,,,,0,129,129,70,,,,,,,,,,,,,AMP,right,0.4170166787043854,0,,,,,,,,,,,,,,right,0,0.4170166787043854,,,,,,,,,,,1032,2019_Mar_07_1359,mf_amp_cond2,3.0.4,59.97630176775522,
credit,&&&&&,left,fairness.virtue,ablow,,,,,,,,,,,,,,,0,130,130,105,,,,,,,,,,,,,AMP,left,0.20032694160454412,1,,,,,,,,,,,,,,left,1,0.20032694160454412,,,,,,,,,,,1032,2019_Mar_07_1359,mf_amp_cond2,3.0.4,59.97630176775522,
attacks,&&&&&,right,care.vice,scock,,,,,,,,,,,,,,,0,131,131,217,,,,,,,,,,,,,AMP,right,0.833787044722385,1,,,,,,,,,,,,,,right,1,0.833787044722385,,,,,,,,,,,1032,2019_Mar_07_1359,mf_amp_cond2,3.0.4,59.97630176775522,
intelligence,&&&&&&&,left,loyalty.virtue,reviked,,,,,,,,,,,,,,,0,132,132,98,,,,,,,,,,,,,AMP,right,0.01691892335702505,0,,,,,,,,,,,,,,right,0,0.01691892335702505,,,,,,,,,,,1032,2019_Mar_07_1359,mf_amp_cond2,3.0.4,59.97630176775522,
brotesque,&&&&&&,None,nonword,strofe,,,,,,,,,,,,,,,0,133,133,161,,,,,,,,,,,,,AMP,right,0.15026613316035764,0,,,,,,,,,,,,,,right,0,0.15026613316035764,,,,,,,,,,,1032,2019_Mar_07_1359,mf_amp_cond2,3.0.4,59.97630176775522,
opportunity,&&&&,left,fairness.virtue,juck,,,,,,,,,,,,,,,0,134,134,118,,,,,,,,,,,,,AMP,right,0.08360102732922314,0,,,,,,,,,,,,,,right,0,0.08360102732922314,,,,,,,,,,,1032,2019_Mar_07_1359,mf_amp_cond2,3.0.4,59.97630176775522,
hate,&&&&&&&,right,fairness.vice,reviked,,,,,,,,,,,,,,,0,135,135,307,,,,,,,,,,,,,AMP,right,0.0669306616960057,1,,,,,,,,,,,,,,right,1,0.0669306616960057,,,,,,,,,,,1032,2019_Mar_07_1359,mf_amp_cond2,3.0.4,59.97630176775522,
victim,&&&&&&&&&&&,right,care.vice,precificity,,,,,,,,,,,,,,,0,136,136,40,,,,,,,,,,,,,AMP,right,0.26699108527668614,1,,,,,,,,,,,,,,right,1,0.26699108527668614,,,,,,,,,,,1032,2019_Mar_07_1359,mf_amp_cond2,3.0.4,59.97630176775522,
trust,&&&&&,left,authority.virtue,ablow,,,,,,,,,,,,,,,0,137,137,179,,,,,,,,,,,,,AMP,right,0.016920526955118476,0,,,,,,,,,,,,,,right,0,0.016920526955118476,,,,,,,,,,,1032,2019_Mar_07_1359,mf_amp_cond2,3.0.4,59.97630176775522,
strong,&&&&&&&,left,loyalty.virtue,nackers,,,,,,,,,,,,,,,0,138,138,327,,,,,,,,,,,,,AMP,right,0.1503071852746416,0,,,,,,,,,,,,,,right,0,0.1503071852746416,,,,,,,,,,,1032,2019_Mar_07_1359,mf_amp_cond2,3.0.4,59.97630176775522,
mecan,&&&&&&&,None,nonword,Daptist,,,,,,,,,,,,,,,0,139,139,320,,,,,,,,,,,,,AMP,left,0.11694817298848648,0,,,,,,,,,,,,,,left,0,0.11694817298848648,,,,,,,,,,,1032,2019_Mar_07_1359,mf_amp_cond2,3.0.4,59.97630176775522,
fighters,&&&&&&,right,authority.vice,letish,,,,,,,,,,,,,,,0,140,140,211,,,,,,,,,,,,,AMP,right,0.11693662708125885,1,,,,,,,,,,,,,,right,1,0.11693662708125885,,,,,,,,,,,1032,2019_Mar_07_1359,mf_amp_cond2,3.0.4,59.97630176775522,
abuse,&&&&&&&&&&&,right,sanctity.vice,shoirmaster,,,,,,,,,,,,,,,0,141,141,173,,,,,,,,,,,,,AMP,right,0.03357132869018642,1,,,,,,,,,,,,,,right,1,0.03357132869018642,,,,,,,,,,,1032,2019_Mar_07_1359,mf_amp_cond2,3.0.4,59.97630176775522,
fair,&&&&&&&,left,fairness.virtue,emports,,,,,,,,,,,,,,,0,142,142,202,,,,,,,,,,,,,AMP,right,0.21696074519854847,0,,,,,,,,,,,,,,right,0,0.21696074519854847,,,,,,,,,,,1032,2019_Mar_07_1359,mf_amp_cond2,3.0.4,59.97630176775522,
death,&&&&&&&&&&&,right,care.vice,ronviolence,,,,,,,,,,,,,,,0,143,143,31,,,,,,,,,,,,,AMP,left,0.21695304792706338,0,,,,,,,,,,,,,,left,0,0.21695304792706338,,,,,,,,,,,1032,2019_Mar_07_1359,mf_amp_cond2,3.0.4,59.97630176775522,
rejected,&&&&&&&&&,right,authority.vice,unscothed,,,,,,,,,,,,,,,0,144,144,212,,,,,,,,,,,,,AMP,left,0.033594420504641676,0,,,,,,,,,,,,,,left,0,0.033594420504641676,,,,,,,,,,,1032,2019_Mar_07_1359,mf_amp_cond2,3.0.4,59.97630176775522,
powerful,&&&&&&,left,authority.virtue,fegard,,,,,,,,,,,,,,,0,145,145,158,,,,,,,,,,,,,AMP,right,0.2669763321730443,0,,,,,,,,,,,,,,right,0,0.2669763321730443,,,,,,,,,,,1032,2019_Mar_07_1359,mf_amp_cond2,3.0.4,59.97630176775522,
menizen,&&&&&&&&&&&,None,nonword,egpeditious,,,,,,,,,,,,,,,0,146,146,166,,,,,,,,,,,,,AMP,left,0.10027043080344811,0,,,,,,,,,,,,,,left,0,0.10027043080344811,,,,,,,,,,,1032,2019_Mar_07_1359,mf_amp_cond2,3.0.4,59.97630176775522,
terrorist,&&&&&&,right,loyalty.vice,strofe,,,,,,,,,,,,,,,0,147,147,325,,,,,,,,,,,,,AMP,right,0.0002864026416773413,1,,,,,,,,,,,,,,right,1,0.0002864026416773413,,,,,,,,,,,1032,2019_Mar_07_1359,mf_amp_cond2,3.0.4,59.97630176775522,
prison,&&&&&&&&&,right,fairness.vice,tomedians,,,,,,,,,,,,,,,0,148,148,139,,,,,,,,,,,,,AMP,right,0.15021866665301786,1,,,,,,,,,,,,,,right,1,0.15021866665301786,,,,,,,,,,,1032,2019_Mar_07_1359,mf_amp_cond2,3.0.4,59.97630176775522,
friends,&&&&&&&&,left,loyalty.virtue,ugeasily,,,,,,,,,,,,,,,0,149,149,77,,,,,,,,,,,,,AMP,left,0.05027312484844515,1,,,,,,,,,,,,,,left,1,0.05027312484844515,,,,,,,,,,,1032,2019_Mar_07_1359,mf_amp_cond2,3.0.4,59.97630176775522,
terrorist,&&&&&&,right,loyalty.vice,openet,,,,,,,,,,,,,,,0,150,150,45,,,,,,,,,,,,,AMP,right,0.28364541492783246,1,,,,,,,,,,,,,,right,1,0.28364541492783246,,,,,,,,,,,1032,2019_Mar_07_1359,mf_amp_cond2,3.0.4,59.97630176775522,
benefit,&&&&&,left,fairness.virtue,uller,,,,,,,,,,,,,,,0,151,151,111,,,,,,,,,,,,,AMP,left,0.13361918006080487,1,,,,,,,,,,,,,,left,1,0.13361918006080487,,,,,,,,,,,1032,2019_Mar_07_1359,mf_amp_cond2,3.0.4,59.97630176775522,
faith,&&&&&&&&&,left,sanctity.virtue,crilfully,,,,,,,,,,,,,,,0,152,152,302,,,,,,,,,,,,,AMP,left,0.43368544073950943,1,,,,,,,,,,,,,,left,1,0.43368544073950943,,,,,,,,,,,1032,2019_Mar_07_1359,mf_amp_cond2,3.0.4,59.97630176775522,
men,&&&&&&&&&,right,loyalty.vice,ittutable,,,,,,,,,,,,,,,0,153,153,43,,,,,,,,,,,,,AMP,left,0.2836806940886163,0,,,,,,,,,,,,,,left,0,0.2836806940886163,,,,,,,,,,,1032,2019_Mar_07_1359,mf_amp_cond2,3.0.4,59.97630176775522,
riot,&&&&&&&&&&&,right,authority.vice,sowntrodden,,,,,,,,,,,,,,,0,154,154,107,,,,,,,,,,,,,AMP,right,0.4336908929733454,1,,,,,,,,,,,,,,right,1,0.4336908929733454,,,,,,,,,,,1032,2019_Mar_07_1359,mf_amp_cond2,3.0.4,59.97630176775522,
powerful,&&&&&&&&&,left,authority.virtue,reprisols,,,,,,,,,,,,,,,0,155,155,205,,,,,,,,,,,,,AMP,left,0.033588647550914175,1,,,,,,,,,,,,,,left,1,0.033588647550914175,,,,,,,,,,,1032,2019_Mar_07_1359,mf_amp_cond2,3.0.4,59.97630176775522,
integrity,&&&&&&,left,fairness.virtue,gazily,,,,,,,,,,,,,,,0,156,156,318,,,,,,,,,,,,,AMP,left,0.10031821803045204,1,,,,,,,,,,,,,,left,1,0.10031821803045204,,,,,,,,,,,1032,2019_Mar_07_1359,mf_amp_cond2,3.0.4,59.97630176775522,
lies,&&&&&&&&&,right,fairness.vice,grovelire,,,,,,,,,,,,,,,0,157,157,281,,,,,,,,,,,,,AMP,left,0.15030012944248483,0,,,,,,,,,,,,,,left,0,0.15030012944248483,,,,,,,,,,,1032,2019_Mar_07_1359,mf_amp_cond2,3.0.4,59.97630176775522,
safety,&&&&&&&&&&&,left,care.virtue,shoirmaster,,,,,,,,,,,,,,,0,158,158,254,,,,,,,,,,,,,AMP,left,0.23363848738358683,1,,,,,,,,,,,,,,left,1,0.23363848738358683,,,,,,,,,,,1032,2019_Mar_07_1359,mf_amp_cond2,3.0.4,59.97630176775522,
promised,&&&&&&,left,loyalty.virtue,letish,,,,,,,,,,,,,,,0,159,159,46,,,,,,,,,,,,,AMP,left,0.08361161107723092,1,,,,,,,,,,,,,,left,1,0.08361161107723092,,,,,,,,,,,1032,2019_Mar_07_1359,mf_amp_cond2,3.0.4,59.97630176775522,
progress,&&&&&&&&,left,authority.virtue,thadowed,,,,,,,,,,,,,,,0,160,160,51,,,,,,,,,,,,,AMP,left,0.0002924963148416282,1,,,,,,,,,,,,,,left,1,0.0002924963148416282,,,,,,,,,,,1032,2019_Mar_07_1359,mf_amp_cond2,3.0.4,59.97630176775522,
promised,&&&&&&,left,loyalty.virtue,papert,,,,,,,,,,,,,,,0,161,161,249,,,,,,,,,,,,,AMP,left,0.10027107224277643,1,,,,,,,,,,,,,,left,1,0.10027107224277643,,,,,,,,,,,1032,2019_Mar_07_1359,mf_amp_cond2,3.0.4,59.97630176775522,
chressing,&&&&&&&&&,None,nonword,unscothed,,,,,,,,,,,,,,,0,162,162,32,,,,,,,,,,,,,AMP,left,0.13359544680747604,0,,,,,,,,,,,,,,left,0,0.13359544680747604,,,,,,,,,,,1032,2019_Mar_07_1359,mf_amp_cond2,3.0.4,59.97630176775522,
fair,&&&&&&&,left,fairness.virtue,lursuer,,,,,,,,,,,,,,,0,163,163,143,,,,,,,,,,,,,AMP,right,0.10026818576602636,0,,,,,,,,,,,,,,right,0,0.10026818576602636,,,,,,,,,,,1032,2019_Mar_07_1359,mf_amp_cond2,3.0.4,59.97630176775522,
promised,&&&&&&&&,left,loyalty.virtue,perified,,,,,,,,,,,,,,,0,164,164,210,,,,,,,,,,,,,AMP,right,0.033568121493772196,0,,,,,,,,,,,,,,right,0,0.033568121493772196,,,,,,,,,,,1032,2019_Mar_07_1359,mf_amp_cond2,3.0.4,59.97630176775522,
discovars,&&&&&&&&,None,nonword,clamorek,,,,,,,,,,,,,,,0,165,165,151,,,,,,,,,,,,,AMP,right,0.1669416303077469,0,,,,,,,,,,,,,,right,0,0.1669416303077469,,,,,,,,,,,1032,2019_Mar_07_1359,mf_amp_cond2,3.0.4,59.97630176775522,
growth,&&&&&&&&&,left,care.virtue,unscothed,,,,,,,,,,,,,,,0,166,166,264,,,,,,,,,,,,,AMP,right,0.016912188244532445,0,,,,,,,,,,,,,,right,0,0.016912188244532445,,,,,,,,,,,1032,2019_Mar_07_1359,mf_amp_cond2,3.0.4,59.97630176775522,
integrity,&&&&&,left,fairness.virtue,pulge,,,,,,,,,,,,,,,0,167,167,112,,,,,,,,,,,,,AMP,right,0.11694560723140057,0,,,,,,,,,,,,,,right,0,0.11694560723140057,,,,,,,,,,,1032,2019_Mar_07_1359,mf_amp_cond2,3.0.4,59.97630176775522,
celebrated,&&&&&&&&&&,left,authority.virtue,ejanulated,,,,,,,,,,,,,,,0,168,168,284,,,,,,,,,,,,,AMP,right,0.0002889683989906189,0,,,,,,,,,,,,,,right,0,0.0002889683989906189,,,,,,,,,,,1032,2019_Mar_07_1359,mf_amp_cond2,3.0.4,59.97630176775522,
counpy's,&&&&&,None,nonword,touls,,,,,,,,,,,,,,,0,169,169,271,,,,,,,,,,,,,AMP,right,0.23364458105675112,0,,,,,,,,,,,,,,right,0,0.23364458105675112,,,,,,,,,,,1032,2019_Mar_07_1359,mf_amp_cond2,3.0.4,59.97630176775522,
friends,&&&&&&&&,left,loyalty.virtue,sliptery,,,,,,,,,,,,,,,0,170,170,265,,,,,,,,,,,,,AMP,right,0.06693515177084919,0,,,,,,,,,,,,,,right,0,0.06693515177084919,,,,,,,,,,,1032,2019_Mar_07_1359,mf_amp_cond2,3.0.4,59.97630176775522,
strong,&&&&&&,left,loyalty.virtue,laming,,,,,,,,,,,,,,,0,171,171,153,,,,,,,,,,,,,AMP,right,0.033593779065313356,0,,,,,,,,,,,,,,right,0,0.033593779065313356,,,,,,,,,,,1032,2019_Mar_07_1359,mf_amp_cond2,3.0.4,59.97630176775522,
promote,&&&&&&&&,left,sanctity.virtue,perified,,,,,,,,,,,,,,,0,172,172,292,,,,,,,,,,,,,AMP,right,0.15028313130142124,0,,,,,,,,,,,,,,right,0,0.15028313130142124,,,,,,,,,,,1032,2019_Mar_07_1359,mf_amp_cond2,3.0.4,59.97630176775522,
racist,&&&&&&&&&,right,sanctity.vice,gandbrake,,,,,,,,,,,,,,,0,173,173,306,,,,,,,,,,,,,AMP,right,0.05026895549303845,1,,,,,,,,,,,,,,right,1,0.05026895549303845,,,,,,,,,,,1032,2019_Mar_07_1359,mf_amp_cond2,3.0.4,59.97630176775522,
increase,&&&&&&,left,care.virtue,Boeinf,,,,,,,,,,,,,,,0,174,174,298,,,,,,,,,,,,,AMP,left,0.2002974353974878,1,,,,,,,,,,,,,,left,1,0.2002974353974878,,,,,,,,,,,1032,2019_Mar_07_1359,mf_amp_cond2,3.0.4,59.97630176775522,
pleasant,&&&&&&,None,control,sgrawl,,,,,,,,,,,,,,,0,175,175,81,,,,,,,,,,,,,AMP,right,0.08360647956305911,0,,,,,,,,,,,,,,right,0,0.08360647956305911,,,,,,,,,,,1032,2019_Mar_07_1359,mf_amp_cond2,3.0.4,59.97630176775522,
victim,&&&&&&,right,care.vice,chared,,,,,,,,,,,,,,,0,176,176,144,,,,,,,,,,,,,AMP,right,0.200285568770596,1,,,,,,,,,,,,,,right,1,0.200285568770596,,,,,,,,,,,1032,2019_Mar_07_1359,mf_amp_cond2,3.0.4,59.97630176775522,
men,&&&&&&&&&&&,right,loyalty.vice,mightingale,,,,,,,,,,,,,,,0,177,177,243,,,,,,,,,,,,,AMP,right,0.2336346387478443,1,,,,,,,,,,,,,,right,1,0.2336346387478443,,,,,,,,,,,1032,2019_Mar_07_1359,mf_amp_cond2,3.0.4,59.97630176775522,
energy,&&&&&&&&&,left,sanctity.virtue,tomedians,,,,,,,,,,,,,,,0,178,178,190,,,,,,,,,,,,,AMP,left,0.050256768146709874,1,,,,,,,,,,,,,,left,1,0.050256768146709874,,,,,,,,,,,1032,2019_Mar_07_1359,mf_amp_cond2,3.0.4,59.97630176775522,
prosecution,&&&&&&&&&&,right,authority.vice,supervuned,,,,,,,,,,,,,,,0,179,179,326,,,,,,,,,,,,,AMP,left,0.3169992956995884,0,,,,,,,,,,,,,,left,0,0.3169992956995884,,,,,,,,,,,1032,2019_Mar_07_1359,mf_amp_cond2,3.0.4,59.97630176775522,
harassment,&&&&&&,right,sanctity.vice,laming,,,,,,,,,,,,,,,0,180,180,78,,,,,,,,,,,,,AMP,right,0.08361578043263762,1,,,,,,,,,,,,,,right,1,0.08361578043263762,,,,,,,,,,,1032,2019_Mar_07_1359,mf_amp_cond2,3.0.4,59.97630176775522,
victims,&&&&&&&&&&&&&,right,care.vice,photocalkodes,,,,,,,,,,,,,,,0,181,181,273,,,,,,,,,,,,,AMP,left,0.06693162385499818,0,,,,,,,,,,,,,,left,0,0.06693162385499818,,,,,,,,,,,1032,2019_Mar_07_1359,mf_amp_cond2,3.0.4,59.97630176775522,
attacks,&&&&&,right,care.vice,scock,,,,,,,,,,,,,,,0,182,182,14,,,,,,,,,,,,,AMP,left,0.6837479810699278,0,,,,,,,,,,,,,,left,0,0.6837479810699278,,,,,,,,,,,1032,2019_Mar_07_1359,mf_amp_cond2,3.0.4,59.97630176775522,
perfect,&&&&&&&&&,left,sanctity.virtue,crilfully,,,,,,,,,,,,,,,0,183,183,185,,,,,,,,,,,,,AMP,right,0.06693932112625589,0,,,,,,,,,,,,,,right,0,0.06693932112625589,,,,,,,,,,,1032,2019_Mar_07_1359,mf_amp_cond2,3.0.4,59.97630176775522,
encourage,&&&&&&&&&&,left,authority.virtue,Oregoniuns,,,,,,,,,,,,,,,0,184,184,287,,,,,,,,,,,,,AMP,right,0.3503339332930864,0,,,,,,,,,,,,,,right,0,0.3503339332930864,,,,,,,,,,,1032,2019_Mar_07_1359,mf_amp_cond2,3.0.4,59.97630176775522,
ban,&&&&&&&&&,right,loyalty.vice,ittutable,,,,,,,,,,,,,,,0,185,185,86,,,,,,,,,,,,,AMP,right,0.0003162295686252037,1,,,,,,,,,,,,,,right,1,0.0003162295686252037,,,,,,,,,,,1032,2019_Mar_07_1359,mf_amp_cond2,3.0.4,59.97630176775522,
energy,&&&&&&&&&,left,sanctity.virtue,gandbrake,,,,,,,,,,,,,,,0,186,186,10,,,,,,,,,,,,,AMP,right,0.11693277844574368,0,,,,,,,,,,,,,,right,0,0.11693277844574368,,,,,,,,,,,1032,2019_Mar_07_1359,mf_amp_cond2,3.0.4,59.97630176775522,
hand,&&&&&&&&&&&,left,sanctity.virtue,ronviolence,,,,,,,,,,,,,,,0,187,187,277,,,,,,,,,,,,,AMP,right,0.10026882720535468,0,,,,,,,,,,,,,,right,0,0.10026882720535468,,,,,,,,,,,1032,2019_Mar_07_1359,mf_amp_cond2,3.0.4,59.97630176775522,
ban,&&&&&&&,right,loyalty.vice,allears,,,,,,,,,,,,,,,0,188,188,20,,,,,,,,,,,,,AMP,left,0.15028633849760809,0,,,,,,,,,,,,,,left,0,0.15028633849760809,,,,,,,,,,,1032,2019_Mar_07_1359,mf_amp_cond2,3.0.4,59.97630176775522,
clean,&&&&&&&&,left,sanctity.virtue,glacenta,,,,,,,,,,,,,,,0,189,189,7,,,,,,,,,,,,,AMP,left,0.08361513899353668,1,,,,,,,,,,,,,,left,1,0.08361513899353668,,,,,,,,,,,1032,2019_Mar_07_1359,mf_amp_cond2,3.0.4,59.97630176775522,
taxpayung,&&&&&&,None,nonword,greaks,,,,,,,,,,,,,,,0,190,190,142,,,,,,,,,,,,,AMP,right,0.2836672238636311,0,,,,,,,,,,,,,,right,0,0.2836672238636311,,,,,,,,,,,1032,2019_Mar_07_1359,mf_amp_cond2,3.0.4,59.97630176775522,
blamed,&&&&&&&&&&&,right,loyalty.vice,lempestuous,,,,,,,,,,,,,,,0,191,191,123,,,,,,,,,,,,,AMP,right,0.0002841576042555971,1,,,,,,,,,,,,,,right,1,0.0002841576042555971,,,,,,,,,,,1032,2019_Mar_07_1359,mf_amp_cond2,3.0.4,59.97630176775522,
rebels,&&&&&&&,right,authority.vice,lursuer,,,,,,,,,,,,,,,0,192,192,229,,,,,,,,,,,,,AMP,right,0.03359185474755577,1,,,,,,,,,,,,,,right,1,0.03359185474755577,,,,,,,,,,,1032,2019_Mar_07_1359,mf_amp_cond2,3.0.4,59.97630176775522,
bycled,&&&&&&,None,nonword,Boeinf,,,,,,,,,,,,,,,0,193,193,187,,,,,,,,,,,,,AMP,right,0.1336313674075882,0,,,,,,,,,,,,,,right,0,0.1336313674075882,,,,,,,,,,,1032,2019_Mar_07_1359,mf_amp_cond2,3.0.4,59.97630176775522,
unpleasant,&&&&&&&&&,None,control,neputized,,,,,,,,,,,,,,,0,194,194,258,,,,,,,,,,,,,AMP,left,0.16696728787928805,0,,,,,,,,,,,,,,left,0,0.16696728787928805,,,,,,,,,,,1032,2019_Mar_07_1359,mf_amp_cond2,3.0.4,59.97630176775522,
intelligence,&&&&&,left,loyalty.virtue,ablow,,,,,,,,,,,,,,,0,195,195,4,,,,,,,,,,,,,AMP,left,0.1336195007806964,1,,,,,,,,,,,,,,left,1,0.1336195007806964,,,,,,,,,,,1032,2019_Mar_07_1359,mf_amp_cond2,3.0.4,59.97630176775522,
injured,&&&&&&&&&&&,right,care.vice,presentkess,,,,,,,,,,,,,,,0,196,196,308,,,,,,,,,,,,,AMP,right,0.0002912134361849894,1,,,,,,,,,,,,,,right,1,0.0002912134361849894,,,,,,,,,,,1032,2019_Mar_07_1359,mf_amp_cond2,3.0.4,59.97630176775522,
groups,&&&&&&&&&,right,loyalty.vice,tenuflect,,,,,,,,,,,,,,,0,197,197,126,,,,,,,,,,,,,AMP,left,0.3003199499164566,0,,,,,,,,,,,,,,left,0,0.3003199499164566,,,,,,,,,,,1032,2019_Mar_07_1359,mf_amp_cond2,3.0.4,59.97630176775522,
promises,&&&&&&&&&&,left,fairness.virtue,frocessing,,,,,,,,,,,,,,,0,198,198,152,,,,,,,,,,,,,AMP,left,0.26698306728576426,1,,,,,,,,,,,,,,left,1,0.26698306728576426,,,,,,,,,,,1032,2019_Mar_07_1359,mf_amp_cond2,3.0.4,59.97630176775522,
prison,&&&&&&&,right,fairness.vice,allears,,,,,,,,,,,,,,,0,199,199,324,,,,,,,,,,,,,AMP,right,0.6337288661788989,1,,,,,,,,,,,,,,right,1,0.6337288661788989,,,,,,,,,,,1032,2019_Mar_07_1359,mf_amp_cond2,3.0.4,59.97630176775522,
hate,&&&&&&&&&,right,fairness.vice,unscothed,,,,,,,,,,,,,,,0,200,200,160,,,,,,,,,,,,,AMP,left,0.33365522894882815,0,,,,,,,,,,,,,,left,0,0.33365522894882815,,,,,,,,,,,1032,2019_Mar_07_1359,mf_amp_cond2,3.0.4,59.97630176775522,
gowlands,&&&&&&&,None,nonword,Daptist,,,,,,,,,,,,,,,0,201,201,222,,,,,,,,,,,,,AMP,left,0.2336429774586577,0,,,,,,,,,,,,,,left,0,0.2336429774586577,,,,,,,,,,,1032,2019_Mar_07_1359,mf_amp_cond2,3.0.4,59.97630176775522,
love,&&&&&&&&&,left,loyalty.virtue,crilfully,,,,,,,,,,,,,,,0,202,202,157,,,,,,,,,,,,,AMP,right,0.1836190517731211,0,,,,,,,,,,,,,,right,0,0.1836190517731211,,,,,,,,,,,1032,2019_Mar_07_1359,mf_amp_cond2,3.0.4,59.97630176775522,
fear,&&&&&&&&&&&,right,sanctity.vice,hefurbished,,,,,,,,,,,,,,,0,203,203,136,,,,,,,,,,,,,AMP,right,0.01676305361024788,1,,,,,,,,,,,,,,right,1,0.01676305361024788,,,,,,,,,,,1032,2019_Mar_07_1359,mf_amp_cond2,3.0.4,59.97630176775522,
scandal,&&&&&&&&,right,sanctity.vice,sliptery,,,,,,,,,,,,,,,0,204,204,54,,,,,,,,,,,,,AMP,right,0.2669728042571933,1,,,,,,,,,,,,,,right,1,0.2669728042571933,,,,,,,,,,,1032,2019_Mar_07_1359,mf_amp_cond2,3.0.4,59.97630176775522,
pleasant,&&&&&,None,control,uller,,,,,,,,,,,,,,,0,205,205,168,,,,,,,,,,,,,AMP,left,0.10030314420691866,0,,,,,,,,,,,,,,left,0,0.10030314420691866,,,,,,,,,,,1032,2019_Mar_07_1359,mf_amp_cond2,3.0.4,59.97630176775522,
love,&&&&&&&&&&&&&,left,loyalty.virtue,photocalkodes,,,,,,,,,,,,,,,0,206,206,234,,,,,,,,,,,,,AMP,left,0.3004036577433453,1,,,,,,,,,,,,,,left,1,0.3004036577433453,,,,,,,,,,,1032,2019_Mar_07_1359,mf_amp_cond2,3.0.4,59.97630176775522,
scandal,&&&&&&&&&&&,right,sanctity.vice,presentkess,,,,,,,,,,,,,,,0,207,207,82,,,,,,,,,,,,,AMP,left,0.23363848738358683,0,,,,,,,,,,,,,,left,0,0.23363848738358683,,,,,,,,,,,1032,2019_Mar_07_1359,mf_amp_cond2,3.0.4,59.97630176775522,
mecan,&&&&&&&&&&,None,nonword,fonderland,,,,,,,,,,,,,,,0,208,208,116,,,,,,,,,,,,,AMP,left,0.13364676195033098,0,,,,,,,,,,,,,,left,0,0.13364676195033098,,,,,,,,,,,1032,2019_Mar_07_1359,mf_amp_cond2,3.0.4,59.97630176775522,
unpleasant,&&&&&&&&&&&&&,None,control,esquisiteness,,,,,,,,,,,,,,,0,209,209,186,,,,,,,,,,,,,AMP,right,0.11694368291341561,0,,,,,,,,,,,,,,right,0,0.11694368291341561,,,,,,,,,,,1032,2019_Mar_07_1359,mf_amp_cond2,3.0.4,59.97630176775522,
rebels,&&&&&&,right,authority.vice,Boeinf,,,,,,,,,,,,,,,0,210,210,56,,,,,,,,,,,,,AMP,left,0.1836748569910469,0,,,,,,,,,,,,,,left,0,0.1836748569910469,,,,,,,,,,,1032,2019_Mar_07_1359,mf_amp_cond2,3.0.4,59.97630176775522,
suicide,&&&&&&&&&&&&&,right,care.vice,photocalkodes,,,,,,,,,,,,,,,0,211,211,134,,,,,,,,,,,,,AMP,right,0.15028345202085802,1,,,,,,,,,,,,,,right,1,0.15028345202085802,,,,,,,,,,,1032,2019_Mar_07_1359,mf_amp_cond2,3.0.4,59.97630176775522,
praised,&&&&&&&,left,loyalty.virtue,halaise,,,,,,,,,,,,,,,0,212,212,21,,,,,,,,,,,,,AMP,right,0.26696638986413745,0,,,,,,,,,,,,,,right,0,0.26696638986413745,,,,,,,,,,,1032,2019_Mar_07_1359,mf_amp_cond2,3.0.4,59.97630176775522,
injured,&&&&&&,right,care.vice,gazily,,,,,,,,,,,,,,,0,213,213,47,,,,,,,,,,,,,AMP,right,0.617061707742323,1,,,,,,,,,,,,,,right,1,0.617061707742323,,,,,,,,,,,1032,2019_Mar_07_1359,mf_amp_cond2,3.0.4,59.97630176775522,
taxpayung,&&&&&&,None,nonword,openet,,,,,,,,,,,,,,,0,214,214,195,,,,,,,,,,,,,AMP,left,0.0002908927167482034,0,,,,,,,,,,,,,,left,0,0.0002908927167482034,,,,,,,,,,,1032,2019_Mar_07_1359,mf_amp_cond2,3.0.4,59.97630176775522,
rejected,&&&&&&&&&,right,authority.vice,reprisols,,,,,,,,,,,,,,,0,215,215,74,,,,,,,,,,,,,AMP,right,0.11700141244932638,1,,,,,,,,,,,,,,right,1,0.11700141244932638,,,,,,,,,,,1032,2019_Mar_07_1359,mf_amp_cond2,3.0.4,59.97630176775522,
faith,&&&&&&,left,sanctity.virtue,openet,,,,,,,,,,,,,,,0,216,216,133,,,,,,,,,,,,,AMP,left,0.016910584646211646,1,,,,,,,,,,,,,,left,1,0.016910584646211646,,,,,,,,,,,1032,2019_Mar_07_1359,mf_amp_cond2,3.0.4,59.97630176775522,
lies,&&&&&&&&&&&,right,fairness.vice,lempestuous,,,,,,,,,,,,,,,0,217,217,71,,,,,,,,,,,,,AMP,left,0.03362681318844807,0,,,,,,,,,,,,,,left,0,0.03362681318844807,,,,,,,,,,,1032,2019_Mar_07_1359,mf_amp_cond2,3.0.4,59.97630176775522,
faith,&&&&&,left,sanctity.virtue,uller,,,,,,,,,,,,,,,0,218,218,15,,,,,,,,,,,,,AMP,left,0.11693374060450878,1,,,,,,,,,,,,,,left,1,0.11693374060450878,,,,,,,,,,,1032,2019_Mar_07_1359,mf_amp_cond2,3.0.4,59.97630176775522,
black,&&&&&&&&&&&,right,loyalty.vice,egpeditious,,,,,,,,,,,,,,,0,219,219,262,,,,,,,,,,,,,AMP,left,0.05025901318413162,0,,,,,,,,,,,,,,left,0,0.05025901318413162,,,,,,,,,,,1032,2019_Mar_07_1359,mf_amp_cond2,3.0.4,59.97630176775522,
racist,&&&&&&&&&&&,right,sanctity.vice,precificity,,,,,,,,,,,,,,,0,220,220,231,,,,,,,,,,,,,AMP,right,0.016764977928005464,1,,,,,,,,,,,,,,right,1,0.016764977928005464,,,,,,,,,,,1032,2019_Mar_07_1359,mf_amp_cond2,3.0.4,59.97630176775522,
illegal,&&&&&&&&&&,right,fairness.vice,frocessing,,,,,,,,,,,,,,,0,221,221,323,,,,,,,,,,,,,AMP,right,0.20029615251883115,1,,,,,,,,,,,,,,right,1,0.20029615251883115,,,,,,,,,,,1032,2019_Mar_07_1359,mf_amp_cond2,3.0.4,59.97630176775522,
fair,&&&&&,left,fairness.virtue,framo,,,,,,,,,,,,,,,0,222,222,64,,,,,,,,,,,,,AMP,right,0.13355535685195719,0,,,,,,,,,,,,,,right,0,0.13355535685195719,,,,,,,,,,,1032,2019_Mar_07_1359,mf_amp_cond2,3.0.4,59.97630176775522,
strong,&&&&&&&&,left,loyalty.virtue,glacenta,,,,,,,,,,,,,,,0,223,223,208,,,,,,,,,,,,,AMP,right,0.00032713403652451234,0,,,,,,,,,,,,,,right,0,0.00032713403652451234,,,,,,,,,,,1032,2019_Mar_07_1359,mf_amp_cond2,3.0.4,59.97630176775522,
trust,&&&&&&&&,left,authority.virtue,pullness,,,,,,,,,,,,,,,0,224,224,156,,,,,,,,,,,,,AMP,right,0.10026465784994798,0,,,,,,,,,,,,,,right,0,0.10026465784994798,,,,,,,,,,,1032,2019_Mar_07_1359,mf_amp_cond2,3.0.4,59.97630176775522,
protesters,&&&&&&&&,right,authority.vice,perified,,,,,,,,,,,,,,,0,225,225,109,,,,,,,,,,,,,AMP,right,0.11696934048495677,1,,,,,,,,,,,,,,right,1,0.11696934048495677,,,,,,,,,,,1032,2019_Mar_07_1359,mf_amp_cond2,3.0.4,59.97630176775522,
police,&&&&&&&&&&&,right,authority.vice,lempestuous,,,,,,,,,,,,,,,0,226,226,289,,,,,,,,,,,,,AMP,left,0.05024810871623231,0,,,,,,,,,,,,,,left,0,0.05024810871623231,,,,,,,,,,,1032,2019_Mar_07_1359,mf_amp_cond2,3.0.4,59.97630176775522,
credit,&&&&&&&&&&&,left,fairness.virtue,precificity,,,,,,,,,,,,,,,0,227,227,303,,,,,,,,,,,,,AMP,right,0.06691334283527794,0,,,,,,,,,,,,,,right,0,0.06691334283527794,,,,,,,,,,,1032,2019_Mar_07_1359,mf_amp_cond2,3.0.4,59.97630176775522,
faith,&&&&&&&&&&,left,sanctity.virtue,abointment,,,,,,,,,,,,,,,0,228,228,170,,,,,,,,,,,,,AMP,right,0.2002788336581034,0,,,,,,,,,,,,,,right,0,0.2002788336581034,,,,,,,,,,,1032,2019_Mar_07_1359,mf_amp_cond2,3.0.4,59.97630176775522,
credit,&&&&&&,left,fairness.virtue,papert,,,,,,,,,,,,,,,0,229,229,11,,,,,,,,,,,,,AMP,left,0.01694842956408138,1,,,,,,,,,,,,,,left,1,0.01694842956408138,,,,,,,,,,,1032,2019_Mar_07_1359,mf_amp_cond2,3.0.4,59.97630176775522,
compassion,&&&&&&&&&&&&,left,care.virtue,iptervention,,,,,,,,,,,,,,,0,230,230,75,,,,,,,,,,,,,AMP,right,0.06693739680827093,0,,,,,,,,,,,,,,right,0,0.06693739680827093,,,,,,,,,,,1032,2019_Mar_07_1359,mf_amp_cond2,3.0.4,59.97630176775522,
bycled,&&&&&&&&&&,None,nonword,abointment,,,,,,,,,,,,,,,0,231,231,250,,,,,,,,,,,,,AMP,left,0.050245542959146405,0,,,,,,,,,,,,,,left,0,0.050245542959146405,,,,,,,,,,,1032,2019_Mar_07_1359,mf_amp_cond2,3.0.4,59.97630176775522,
death,&&&&&&&&,right,care.vice,ebbitter,,,,,,,,,,,,,,,0,232,232,322,,,,,,,,,,,,,AMP,left,0.166943875345396,0,,,,,,,,,,,,,,left,0,0.166943875345396,,,,,,,,,,,1032,2019_Mar_07_1359,mf_amp_cond2,3.0.4,59.97630176775522,
brotesque,&&&&&&,None,nonword,forepo,,,,,,,,,,,,,,,0,233,233,36,,,,,,,,,,,,,AMP,left,0.0335944205044143,0,,,,,,,,,,,,,,left,0,0.0335944205044143,,,,,,,,,,,1032,2019_Mar_07_1359,mf_amp_cond2,3.0.4,59.97630176775522,
perfect,&&&&&&,left,sanctity.virtue,antral,,,,,,,,,,,,,,,0,234,234,253,,,,,,,,,,,,,AMP,right,0.2836322654225114,0,,,,,,,,,,,,,,right,0,0.2836322654225114,,,,,,,,,,,1032,2019_Mar_07_1359,mf_amp_cond2,3.0.4,59.97630176775522,
celebrated,&&&&&&&&&,left,authority.virtue,neputized,,,,,,,,,,,,,,,0,235,235,244,,,,,,,,,,,,,AMP,left,0.1169446450724081,1,,,,,,,,,,,,,,left,1,0.1169446450724081,,,,,,,,,,,1032,2019_Mar_07_1359,mf_amp_cond2,3.0.4,59.97630176775522,
riot,&&&&&&&&&,right,authority.vice,metibolic,,,,,,,,,,,,,,,0,236,236,19,,,,,,,,,,,,,AMP,left,0.1502776790673579,0,,,,,,,,,,,,,,left,0,0.1502776790673579,,,,,,,,,,,1032,2019_Mar_07_1359,mf_amp_cond2,3.0.4,59.97630176775522,
promised,&&&&&&&&,left,loyalty.virtue,ugeasily,,,,,,,,,,,,,,,0,237,237,92,,,,,,,,,,,,,AMP,left,0.166969212197273,1,,,,,,,,,,,,,,left,1,0.166969212197273,,,,,,,,,,,1032,2019_Mar_07_1359,mf_amp_cond2,3.0.4,59.97630176775522,
mecan,&&&&,None,nonword,yane,,,,,,,,,,,,,,,0,238,238,28,,,,,,,,,,,,,AMP,right,0.0335918547473284,0,,,,,,,,,,,,,,right,0,0.0335918547473284,,,,,,,,,,,1032,2019_Mar_07_1359,mf_amp_cond2,3.0.4,59.97630176775522,
chressing,&&&&,None,nonword,yane,,,,,,,,,,,,,,,0,239,239,209,,,,,,,,,,,,,AMP,left,0.15013175162948755,0,,,,,,,,,,,,,,left,0,0.15013175162948755,,,,,,,,,,,1032,2019_Mar_07_1359,mf_amp_cond2,3.0.4,59.97630176775522,
attacks,&&&&&&&,right,care.vice,Loorish,,,,,,,,,,,,,,,0,240,240,103,,,,,,,,,,,,,AMP,left,0.05026125822155336,0,,,,,,,,,,,,,,left,0,0.05026125822155336,,,,,,,,,,,1032,2019_Mar_07_1359,mf_amp_cond2,3.0.4,59.97630176775522,
