words,nonwords,mask,corr_ans,category,tweets,topic,AMP_prac_loop.thisRepN,AMP_prac_loop.thisTrialN,AMP_prac_loop.thisN,AMP_prac_loop.thisIndex,AMP_trials.thisRepN,AMP_trials.thisTrialN,AMP_trials.thisN,AMP_trials.thisIndex,LDT_prac_loop.thisRepN,LDT_prac_loop.thisTrialN,LDT_prac_loop.thisN,LDT_prac_loop.thisIndex,LDT_loop.thisRepN,LDT_loop.thisTrialN,LDT_loop.thisN,LDT_loop.thisIndex,tweet_loop.thisRepN,tweet_loop.thisTrialN,tweet_loop.thisN,tweet_loop.thisIndex,begin_key.keys,begin_key.rt,key_resp_AMP_instr1.keys,key_resp_AMP_instr1.rt,resp_AMP_ready1.keys,resp_AMP_ready1.rt,resp_AMP_prac.keys,resp_AMP_prac.rt,task,keypress,RT,resp_AMP_ready.keys,resp_AMP_ready.rt,resp_AMP.keys,resp_AMP.corr,resp_AMP.rt,corr,AMP_nonword_rating.response,AMP_nonword_rating.rt,AMP_word_rating.response,AMP_word_rating.rt,AMP_random_rating.response,AMP_random_rating.rt,key_resp_LDT_instr.keys,key_resp_LDT_instr.rt,resp_LDT_prac.keys,resp_LDT_prac.rt,resp_LDT_ready.keys,resp_LDT_ready.rt,resp_LDT.keys,resp_LDT.corr,resp_LDT.rt,LDT_rating.response,LDT_rating.rt,key_resp_LDT_instr_2.keys,key_resp_LDT_instr_2.rt,resp_tweets.keys,resp_tweets.rt,participant,date,expName,psychopyVersion,frameRate,
,,,,,,,,,,,,,,,,,,,,,,,,,,,right,565.2226378035994,,,,,,,,,,,,,,,,,,,,,,,,,,,,,,,,,,,,,1037,2019_Mar_08_1457,mf_amp_cond1,3.0.4,59.98668667580435,
,,,,,,,,,,,,,,,,,,,,,,,,,,,,,right,1.5173063526890473,,,,,,,,,,,,,,,,,,,,,,,,,,,,,,,,,,,1037,2019_Mar_08_1457,mf_amp_cond1,3.0.4,59.98668667580435,
,,,,,,,,,,,,,,,,,,,,,,,,,,,,,,,right,0.8838738314661896,,,,,,,,,,,,,,,,,,,,,,,,,,,,,,,,,1037,2019_Mar_08_1457,mf_amp_cond1,3.0.4,59.98668667580435,
scarf,bisebell,&&&&&&&&,,,,,0,0,0,3,,,,,,,,,,,,,,,,,,,,,,,right,4.067952795201563,AMP_prac,right,4.067952795201563,,,,,,,,,,,,,,,,,,,,,,,,,,,,1037,2019_Mar_08_1457,mf_amp_cond1,3.0.4,59.98668667580435,
banana,kacket,&&&&&&,,,,,0,1,1,1,,,,,,,,,,,,,,,,,,,,,,,left,1.200567802065052,AMP_prac,left,1.200567802065052,,,,,,,,,,,,,,,,,,,,,,,,,,,,1037,2019_Mar_08_1457,mf_amp_cond1,3.0.4,59.98668667580435,
keyboard,senk,&&&&,,,,,0,2,2,2,,,,,,,,,,,,,,,,,,,,,,,left,2.8176384899561526,AMP_prac,left,2.8176384899561526,,,,,,,,,,,,,,,,,,,,,,,,,,,,1037,2019_Mar_08_1457,mf_amp_cond1,3.0.4,59.98668667580435,
car,cemtuper,&&&&&&&&,,,,,0,3,3,0,,,,,,,,,,,,,,,,,,,,,,,left,1.3172670966014266,AMP_prac,left,1.3172670966014266,,,,,,,,,,,,,,,,,,,,,,,,,,,,1037,2019_Mar_08_1457,mf_amp_cond1,3.0.4,59.98668667580435,
,,,,,,,,,,,,,,,,,,,,,,,,,,,,,,,,,,,,,,right,0.9505071860476164,,,,,,,,,,,,,,,,,,,,,,,,,,1037,2019_Mar_08_1457,mf_amp_cond1,3.0.4,59.98668667580435,
encourage,tenuflect,&&&&&&&&&,left,authority.virtue,,,,,,,0,0,0,0,,,,,,,,,,,,,,,,,,,,,AMP,left,0.7337937156844418,,,left,1,0.7337937156844418,1,,,,,,,,,,,,,,,,,,,,,,1037,2019_Mar_08_1457,mf_amp_cond1,3.0.4,59.98668667580435,
scandal,feleological,&&&&&&&&&&&&,right,sanctity.vice,,,,,,,0,1,1,1,,,,,,,,,,,,,,,,,,,,,AMP,left,1.233909495480475,,,left,0,1.233909495480475,0,,,,,,,,,,,,,,,,,,,,,,1037,2019_Mar_08_1457,mf_amp_cond1,3.0.4,59.98668667580435,
shoirmaster,synchronazers,&&&&&&&&&&&&&,None,nonword,,,,,,,0,2,2,2,,,,,,,,,,,,,,,,,,,,,AMP,left,0.8338242481986526,,,left,0,0.8338242481986526,0,,,,,,,,,,,,,,,,,,,,,,1037,2019_Mar_08_1457,mf_amp_cond1,3.0.4,59.98668667580435,
opportunity,gillipede,&&&&&&&&&,left,fairness.virtue,,,,,,,0,3,3,3,,,,,,,,,,,,,,,,,,,,,AMP,right,0.4503875576192513,,,right,0,0.4503875576192513,0,,,,,,,,,,,,,,,,,,,,,,1037,2019_Mar_08_1457,mf_amp_cond1,3.0.4,59.98668667580435,
elduringly,mightingale,&&&&&&&&&&&,None,nonword,,,,,,,0,4,4,4,,,,,,,,,,,,,,,,,,,,,AMP,right,1.2172384884033818,,,right,0,1.2172384884033818,0,,,,,,,,,,,,,,,,,,,,,,1037,2019_Mar_08_1457,mf_amp_cond1,3.0.4,59.98668667580435,
love,drumbled,&&&&&&&&,left,loyalty.virtue,,,,,,,0,5,5,5,,,,,,,,,,,,,,,,,,,,,AMP,left,0.8338123815628933,,,left,1,0.8338123815628933,1,,,,,,,,,,,,,,,,,,,,,,1037,2019_Mar_08_1457,mf_amp_cond1,3.0.4,59.98668667580435,
increase,shoirmaster,&&&&&&&&&&&,left,care.virtue,,,,,,,0,6,6,6,,,,,,,,,,,,,,,,,,,,,AMP,left,1.5673331648431486,,,left,1,1.5673331648431486,1,,,,,,,,,,,,,,,,,,,,,,1037,2019_Mar_08_1457,mf_amp_cond1,3.0.4,59.98668667580435,
good,gowlands,&&&&&&&&,left,care.virtue,,,,,,,0,7,7,7,,,,,,,,,,,,,,,,,,,,,AMP,left,2.2173205926374067,,,left,1,2.2173205926374067,1,,,,,,,,,,,,,,,,,,,,,,1037,2019_Mar_08_1457,mf_amp_cond1,3.0.4,59.98668667580435,
safe,gikely,&&&&&&,left,care.virtue,,,,,,,0,8,8,8,,,,,,,,,,,,,,,,,,,,,AMP,right,0.5335639521363191,,,right,0,0.5335639521363191,0,,,,,,,,,,,,,,,,,,,,,,1037,2019_Mar_08_1457,mf_amp_cond1,3.0.4,59.98668667580435,
fraud,pulge,&&&&&,right,fairness.vice,,,,,,,0,9,9,9,,,,,,,,,,,,,,,,,,,,,AMP,left,0.6170982697803993,,,left,0,0.6170982697803993,0,,,,,,,,,,,,,,,,,,,,,,1037,2019_Mar_08_1457,mf_amp_cond1,3.0.4,59.98668667580435,
blunderints,epigrach,&&&&&&&&,None,nonword,,,,,,,0,10,10,10,,,,,,,,,,,,,,,,,,,,,AMP,right,2.584241504460806,,,right,0,2.584241504460806,0,,,,,,,,,,,,,,,,,,,,,,1037,2019_Mar_08_1457,mf_amp_cond1,3.0.4,59.98668667580435,
peace,scock,&&&&&,left,care.virtue,,,,,,,0,11,11,11,,,,,,,,,,,,,,,,,,,,,AMP,right,0.4003629904909758,,,right,0,0.4003629904909758,0,,,,,,,,,,,,,,,,,,,,,,1037,2019_Mar_08_1457,mf_amp_cond1,3.0.4,59.98668667580435,
freedom,esquisiteness,&&&&&&&&&&&&&,left,sanctity.virtue,,,,,,,0,12,12,12,,,,,,,,,,,,,,,,,,,,,AMP,right,1.3172613236383768,,,right,0,1.3172613236383768,0,,,,,,,,,,,,,,,,,,,,,,1037,2019_Mar_08_1457,mf_amp_cond1,3.0.4,59.98668667580435,
police,tracious,&&&&&&&&,right,authority.vice,,,,,,,0,13,13,13,,,,,,,,,,,,,,,,,,,,,AMP,left,1.717354268199415,,,left,0,1.717354268199415,0,,,,,,,,,,,,,,,,,,,,,,1037,2019_Mar_08_1457,mf_amp_cond1,3.0.4,59.98668667580435,
terrorists,ilportation,&&&&&&&&&&&,right,fairness.vice,,,,,,,0,14,14,14,,,,,,,,,,,,,,,,,,,,,AMP,left,1.8674064813531004,,,left,0,1.8674064813531004,0,,,,,,,,,,,,,,,,,,,,,,1037,2019_Mar_08_1457,mf_amp_cond1,3.0.4,59.98668667580435,
drug,discovars,&&&&&&&&&,right,sanctity.vice,,,,,,,0,15,15,15,,,,,,,,,,,,,,,,,,,,,AMP,right,1.450622645119438,,,right,1,1.450622645119438,1,,,,,,,,,,,,,,,,,,,,,,1037,2019_Mar_08_1457,mf_amp_cond1,3.0.4,59.98668667580435,
unpleasant,grovelire,&&&&&&&&&,None,control,,,,,,,0,16,16,16,,,,,,,,,,,,,,,,,,,,,AMP,left,2.2339899961225456,,,left,0,2.2339899961225456,0,,,,,,,,,,,,,,,,,,,,,,1037,2019_Mar_08_1457,mf_amp_cond1,3.0.4,59.98668667580435,
interests,noped,&&&&&,left,fairness.virtue,,,,,,,0,17,17,17,,,,,,,,,,,,,,,,,,,,,AMP,right,0.6837781287176767,,,right,0,0.6837781287176767,0,,,,,,,,,,,,,,,,,,,,,,1037,2019_Mar_08_1457,mf_amp_cond1,3.0.4,59.98668667580435,
energy,emports,&&&&&&&,left,sanctity.virtue,,,,,,,0,18,18,18,,,,,,,,,,,,,,,,,,,,,AMP,right,0.48371802584733814,,,right,0,0.48371802584733814,0,,,,,,,,,,,,,,,,,,,,,,1037,2019_Mar_08_1457,mf_amp_cond1,3.0.4,59.98668667580435,
men,brudent,&&&&&&&,right,loyalty.vice,,,,,,,0,19,19,19,,,,,,,,,,,,,,,,,,,,,AMP,left,0.43372617213753983,,,left,0,0.43372617213753983,0,,,,,,,,,,,,,,,,,,,,,,1037,2019_Mar_08_1457,mf_amp_cond1,3.0.4,59.98668667580435,
attacks,uller,&&&&&,right,care.vice,,,,,,,0,20,20,20,,,,,,,,,,,,,,,,,,,,,AMP,left,0.8004655566328438,,,left,0,0.8004655566328438,0,,,,,,,,,,,,,,,,,,,,,,1037,2019_Mar_08_1457,mf_amp_cond1,3.0.4,59.98668667580435,
tomedians,baklara,&&&&&&&,None,nonword,,,,,,,0,21,21,21,,,,,,,,,,,,,,,,,,,,,AMP,left,1.083873959738412,,,left,0,1.083873959738412,0,,,,,,,,,,,,,,,,,,,,,,1037,2019_Mar_08_1457,mf_amp_cond1,3.0.4,59.98668667580435,
faith,pullness,&&&&&&&&,left,sanctity.virtue,,,,,,,0,22,22,22,,,,,,,,,,,,,,,,,,,,,AMP,left,1.167250804050127,,,left,1,1.167250804050127,1,,,,,,,,,,,,,,,,,,,,,,1037,2019_Mar_08_1457,mf_amp_cond1,3.0.4,59.98668667580435,
arrests,brotesque,&&&&&&&&&,right,authority.vice,,,,,,,0,23,23,23,,,,,,,,,,,,,,,,,,,,,AMP,left,0.7337873012875207,,,left,0,0.7337873012875207,0,,,,,,,,,,,,,,,,,,,,,,1037,2019_Mar_08_1457,mf_amp_cond1,3.0.4,59.98668667580435,
died,lorthwhile,&&&&&&&&&&,right,care.vice,,,,,,,0,24,24,24,,,,,,,,,,,,,,,,,,,,,AMP,left,0.4503830675384961,,,left,0,0.4503830675384961,0,,,,,,,,,,,,,,,,,,,,,,1037,2019_Mar_08_1457,mf_amp_cond1,3.0.4,59.98668667580435,
pleasant,divility,&&&&&&&&,None,control,,,,,,,0,25,25,25,,,,,,,,,,,,,,,,,,,,,AMP,right,0.41707376680278685,,,right,0,0.41707376680278685,0,,,,,,,,,,,,,,,,,,,,,,1037,2019_Mar_08_1457,mf_amp_cond1,3.0.4,59.98668667580435,
embrace,ittutable,&&&&&&&&&,left,authority.virtue,,,,,,,0,26,26,26,,,,,,,,,,,,,,,,,,,,,AMP,right,0.3837003221269697,,,right,0,0.3837003221269697,0,,,,,,,,,,,,,,,,,,,,,,1037,2019_Mar_08_1457,mf_amp_cond1,3.0.4,59.98668667580435,
victims,metibolic,&&&&&&&&&,right,care.vice,,,,,,,0,27,27,27,,,,,,,,,,,,,,,,,,,,,AMP,left,0.5170654922258109,,,left,0,0.5170654922258109,0,,,,,,,,,,,,,,,,,,,,,,1037,2019_Mar_08_1457,mf_amp_cond1,3.0.4,59.98668667580435,
strength,nomparisons,&&&&&&&&&&&,left,sanctity.virtue,,,,,,,0,28,28,28,,,,,,,,,,,,,,,,,,,,,AMP,left,2.1674785149953095,,,left,1,2.1674785149953095,1,,,,,,,,,,,,,,,,,,,,,,1037,2019_Mar_08_1457,mf_amp_cond1,3.0.4,59.98668667580435,
ability,leact,&&&&&,left,authority.virtue,,,,,,,0,29,29,29,,,,,,,,,,,,,,,,,,,,,AMP,right,0.40036587697977666,,,right,0,0.40036587697977666,0,,,,,,,,,,,,,,,,,,,,,,1037,2019_Mar_08_1457,mf_amp_cond1,3.0.4,59.98668667580435,
presentkess,sgrawl,&&&&&&,None,nonword,,,,,,,0,30,30,30,,,,,,,,,,,,,,,,,,,,,AMP,left,1.3672679304727353,,,left,0,1.3672679304727353,0,,,,,,,,,,,,,,,,,,,,,,1037,2019_Mar_08_1457,mf_amp_cond1,3.0.4,59.98668667580435,
win,yane,&&&&,left,fairness.virtue,,,,,,,0,31,31,31,,,,,,,,,,,,,,,,,,,,,AMP,left,3.751199170743348,,,left,1,3.751199170743348,1,,,,,,,,,,,,,,,,,,,,,,1037,2019_Mar_08_1457,mf_amp_cond1,3.0.4,59.98668667580435,
celebrated,rorroborated,&&&&&&&&&&&&,left,authority.virtue,,,,,,,0,32,32,32,,,,,,,,,,,,,,,,,,,,,AMP,right,0.4503830675384961,,,right,0,0.4503830675384961,0,,,,,,,,,,,,,,,,,,,,,,1037,2019_Mar_08_1457,mf_amp_cond1,3.0.4,59.98668667580435,
praise,nomaric,&&&&&&&,left,authority.virtue,,,,,,,0,33,33,33,,,,,,,,,,,,,,,,,,,,,AMP,left,1.067204556267825,,,left,1,1.067204556267825,1,,,,,,,,,,,,,,,,,,,,,,1037,2019_Mar_08_1457,mf_amp_cond1,3.0.4,59.98668667580435,
hope,ejanulated,&&&&&&&&&&,left,loyalty.virtue,,,,,,,0,34,34,34,,,,,,,,,,,,,,,,,,,,,AMP,left,0.717118539265357,,,left,1,0.717118539265357,1,,,,,,,,,,,,,,,,,,,,,,1037,2019_Mar_08_1457,mf_amp_cond1,3.0.4,59.98668667580435,
support,asn,&&&,left,loyalty.virtue,,,,,,,0,35,35,35,,,,,,,,,,,,,,,,,,,,,AMP,right,1.7840447108756052,,,right,0,1.7840447108756052,0,,,,,,,,,,,,,,,,,,,,,,1037,2019_Mar_08_1457,mf_amp_cond1,3.0.4,59.98668667580435,
fair,sfumatoy,&&&&&&&&,left,fairness.virtue,,,,,,,0,36,36,36,,,,,,,,,,,,,,,,,,,,,AMP,left,0.5670935872767586,,,left,1,0.5670935872767586,1,,,,,,,,,,,,,,,,,,,,,,1037,2019_Mar_08_1457,mf_amp_cond1,3.0.4,59.98668667580435,
great,gournful,&&&&&&&&,left,loyalty.virtue,,,,,,,0,37,37,37,,,,,,,,,,,,,,,,,,,,,AMP,left,2.584284801603644,,,left,1,2.584284801603644,1,,,,,,,,,,,,,,,,,,,,,,1037,2019_Mar_08_1457,mf_amp_cond1,3.0.4,59.98668667580435,
strong,openet,&&&&&&,left,loyalty.virtue,,,,,,,0,38,38,38,,,,,,,,,,,,,,,,,,,,,AMP,right,0.40037581928481814,,,right,0,0.40037581928481814,0,,,,,,,,,,,,,,,,,,,,,,1037,2019_Mar_08_1457,mf_amp_cond1,3.0.4,59.98668667580435,
benefit,frojecting,&&&&&&&&&&,left,fairness.virtue,,,,,,,0,39,39,39,,,,,,,,,,,,,,,,,,,,,AMP,left,0.6170847995526856,,,left,1,0.6170847995526856,1,,,,,,,,,,,,,,,,,,,,,,1037,2019_Mar_08_1457,mf_amp_cond1,3.0.4,59.98668667580435,
racist,mih,&&&,right,sanctity.vice,,,,,,,0,40,40,40,,,,,,,,,,,,,,,,,,,,,AMP,left,0.5003948058729293,,,left,0,0.5003948058729293,0,,,,,,,,,,,,,,,,,,,,,,1037,2019_Mar_08_1457,mf_amp_cond1,3.0.4,59.98668667580435,
promises,spag,&&&&,left,fairness.virtue,,,,,,,0,41,41,41,,,,,,,,,,,,,,,,,,,,,AMP,left,1.7840633126179455,,,left,1,1.7840633126179455,1,,,,,,,,,,,,,,,,,,,,,,1037,2019_Mar_08_1457,mf_amp_cond1,3.0.4,59.98668667580435,
lies,menizen,&&&&&&&,right,fairness.vice,,,,,,,0,42,42,42,,,,,,,,,,,,,,,,,,,,,AMP,left,0.8171301493130159,,,left,0,0.8171301493130159,0,,,,,,,,,,,,,,,,,,,,,,1037,2019_Mar_08_1457,mf_amp_cond1,3.0.4,59.98668667580435,
prosecution,fornicalion,&&&&&&&&&&&,right,authority.vice,,,,,,,0,43,43,43,,,,,,,,,,,,,,,,,,,,,AMP,left,0.5669361139298417,,,left,0,0.5669361139298417,0,,,,,,,,,,,,,,,,,,,,,,1037,2019_Mar_08_1457,mf_amp_cond1,3.0.4,59.98668667580435,
party,papert,&&&&&&,left,loyalty.virtue,,,,,,,0,44,44,44,,,,,,,,,,,,,,,,,,,,,AMP,right,0.8338091743789846,,,right,0,0.8338091743789846,0,,,,,,,,,,,,,,,,,,,,,,1037,2019_Mar_08_1457,mf_amp_cond1,3.0.4,59.98668667580435,
betrayal,taxpayung,&&&&&&&&&,right,loyalty.vice,,,,,,,0,45,45,45,,,,,,,,,,,,,,,,,,,,,AMP,left,0.9004938441212289,,,left,0,0.9004938441212289,0,,,,,,,,,,,,,,,,,,,,,,1037,2019_Mar_08_1457,mf_amp_cond1,3.0.4,59.98668667580435,
carvels,pumber,&&&&&&,None,nonword,,,,,,,0,46,46,46,,,,,,,,,,,,,,,,,,,,,AMP,left,0.7337908292101929,,,left,0,0.7337908292101929,0,,,,,,,,,,,,,,,,,,,,,,1037,2019_Mar_08_1457,mf_amp_cond1,3.0.4,59.98668667580435,
death,chared,&&&&&&,right,care.vice,,,,,,,0,47,47,47,,,,,,,,,,,,,,,,,,,,,AMP,left,0.517069020163035,,,left,0,0.517069020163035,0,,,,,,,,,,,,,,,,,,,,,,1037,2019_Mar_08_1457,mf_amp_cond1,3.0.4,59.98668667580435,
war,gaultless,&&&&&&&&&,right,sanctity.vice,,,,,,,0,48,48,48,,,,,,,,,,,,,,,,,,,,,AMP,left,0.6337830677948659,,,left,0,0.6337830677948659,0,,,,,,,,,,,,,,,,,,,,,,1037,2019_Mar_08_1457,mf_amp_cond1,3.0.4,59.98668667580435,
groups,galamitous,&&&&&&&&&&,right,loyalty.vice,,,,,,,0,49,49,49,,,,,,,,,,,,,,,,,,,,,AMP,left,1.4339606181893032,,,left,0,1.4339606181893032,0,,,,,,,,,,,,,,,,,,,,,,1037,2019_Mar_08_1457,mf_amp_cond1,3.0.4,59.98668667580435,
ban,gondensed,&&&&&&&&&,right,loyalty.vice,,,,,,,0,50,50,50,,,,,,,,,,,,,,,,,,,,,AMP,left,0.5004005788359791,,,left,0,0.5004005788359791,0,,,,,,,,,,,,,,,,,,,,,,1037,2019_Mar_08_1457,mf_amp_cond1,3.0.4,59.98668667580435,
serial,strofe,&&&&&&,right,sanctity.vice,,,,,,,0,51,51,51,,,,,,,,,,,,,,,,,,,,,AMP,left,0.41705003354582004,,,left,0,0.41705003354582004,0,,,,,,,,,,,,,,,,,,,,,,1037,2019_Mar_08_1457,mf_amp_cond1,3.0.4,59.98668667580435,
frocessing,simplustic,&&&&&&&&&&,None,nonword,,,,,,,0,52,52,52,,,,,,,,,,,,,,,,,,,,,AMP,left,0.900476845970843,,,left,0,0.900476845970843,0,,,,,,,,,,,,,,,,,,,,,,1037,2019_Mar_08_1457,mf_amp_cond1,3.0.4,59.98668667580435,
victim,precificity,&&&&&&&&&&&,right,care.vice,,,,,,,0,53,53,53,,,,,,,,,,,,,,,,,,,,,AMP,left,0.3670318808144657,,,left,0,0.3670318808144657,0,,,,,,,,,,,,,,,,,,,,,,1037,2019_Mar_08_1457,mf_amp_cond1,3.0.4,59.98668667580435,
hate,erdest,&&&&&&,right,fairness.vice,,,,,,,0,54,54,54,,,,,,,,,,,,,,,,,,,,,AMP,left,0.40036812200560234,,,left,0,0.40036812200560234,0,,,,,,,,,,,,,,,,,,,,,,1037,2019_Mar_08_1457,mf_amp_cond1,3.0.4,59.98668667580435,
commitment,baladroit,&&&&&&&&&,left,sanctity.virtue,,,,,,,0,55,55,55,,,,,,,,,,,,,,,,,,,,,AMP,left,0.517073830938898,,,left,1,0.517073830938898,1,,,,,,,,,,,,,,,,,,,,,,1037,2019_Mar_08_1457,mf_amp_cond1,3.0.4,59.98668667580435,
actively,gationwide,&&&&&&&&&&,left,authority.virtue,,,,,,,0,56,56,56,,,,,,,,,,,,,,,,,,,,,AMP,right,1.10053662811697,,,right,0,1.10053662811697,0,,,,,,,,,,,,,,,,,,,,,,1037,2019_Mar_08_1457,mf_amp_cond1,3.0.4,59.98668667580435,
violence,hasks,&&&&&,right,care.vice,,,,,,,0,57,57,57,,,,,,,,,,,,,,,,,,,,,AMP,right,2.5842437494866317,,,right,1,2.5842437494866317,1,,,,,,,,,,,,,,,,,,,,,,1037,2019_Mar_08_1457,mf_amp_cond1,3.0.4,59.98668667580435,
troops,pafer,&&&&&,right,loyalty.vice,,,,,,,0,58,58,58,,,,,,,,,,,,,,,,,,,,,AMP,left,0.5171087893832009,,,left,0,0.5171087893832009,0,,,,,,,,,,,,,,,,,,,,,,1037,2019_Mar_08_1457,mf_amp_cond1,3.0.4,59.98668667580435,
terrorist,letish,&&&&&&,right,loyalty.vice,,,,,,,0,59,59,59,,,,,,,,,,,,,,,,,,,,,AMP,left,3.6511779391003074,,,left,0,3.6511779391003074,0,,,,,,,,,,,,,,,,,,,,,,1037,2019_Mar_08_1457,mf_amp_cond1,3.0.4,59.98668667580435,
scalbel,focomotive,&&&&&&&&&&,None,nonword,,,,,,,0,60,60,60,,,,,,,,,,,,,,,,,,,,,AMP,left,0.3670328429725487,,,left,0,0.3670328429725487,0,,,,,,,,,,,,,,,,,,,,,,1037,2019_Mar_08_1457,mf_amp_cond1,3.0.4,59.98668667580435,
dignity,Loorish,&&&&&&&,left,sanctity.virtue,,,,,,,0,61,61,61,,,,,,,,,,,,,,,,,,,,,AMP,right,0.6004237347806338,,,right,0,0.6004237347806338,0,,,,,,,,,,,,,,,,,,,,,,1037,2019_Mar_08_1457,mf_amp_cond1,3.0.4,59.98668667580435,
restore,ecgagement,&&&&&&&&&&,left,care.virtue,,,,,,,0,62,62,62,,,,,,,,,,,,,,,,,,,,,AMP,right,0.36701873131096363,,,right,0,0.36701873131096363,0,,,,,,,,,,,,,,,,,,,,,,1037,2019_Mar_08_1457,mf_amp_cond1,3.0.4,59.98668667580435,
gun,quarterbocks,&&&&&&&&&&&&,right,authority.vice,,,,,,,0,63,63,63,,,,,,,,,,,,,,,,,,,,,AMP,left,2.0507843519590097,,,left,0,2.0507843519590097,0,,,,,,,,,,,,,,,,,,,,,,1037,2019_Mar_08_1457,mf_amp_cond1,3.0.4,59.98668667580435,
refused,tabin,&&&&&,right,authority.vice,,,,,,,0,64,64,64,,,,,,,,,,,,,,,,,,,,,AMP,left,0.8337665186700178,,,left,0,0.8337665186700178,0,,,,,,,,,,,,,,,,,,,,,,1037,2019_Mar_08_1457,mf_amp_cond1,3.0.4,59.98668667580435,
charges,framatic,&&&&&&&&,right,fairness.vice,,,,,,,0,65,65,65,,,,,,,,,,,,,,,,,,,,,AMP,left,0.7171012204053113,,,left,0,0.7171012204053113,0,,,,,,,,,,,,,,,,,,,,,,1037,2019_Mar_08_1457,mf_amp_cond1,3.0.4,59.98668667580435,
torture,gedious,&&&&&&&,right,care.vice,,,,,,,0,66,66,66,,,,,,,,,,,,,,,,,,,,,AMP,left,0.6171008355449885,,,left,0,0.6171008355449885,0,,,,,,,,,,,,,,,,,,,,,,1037,2019_Mar_08_1457,mf_amp_cond1,3.0.4,59.98668667580435,
sexual,iptervention,&&&&&&&&&&&&,right,sanctity.vice,,,,,,,0,67,67,67,,,,,,,,,,,,,,,,,,,,,AMP,left,0.5170610021596076,,,left,0,0.5170610021596076,0,,,,,,,,,,,,,,,,,,,,,,1037,2019_Mar_08_1457,mf_amp_cond1,3.0.4,59.98668667580435,
compassion,rivernoat,&&&&&&&&&,left,care.virtue,,,,,,,0,68,68,68,,,,,,,,,,,,,,,,,,,,,AMP,right,1.283757346085622,,,right,0,1.283757346085622,0,,,,,,,,,,,,,,,,,,,,,,1037,2019_Mar_08_1457,mf_amp_cond1,3.0.4,59.98668667580435,
conspiracy,pharing,&&&&&&&,right,sanctity.vice,,,,,,,0,69,69,69,,,,,,,,,,,,,,,,,,,,,AMP,left,0.4503942927258322,,,left,0,0.4503942927258322,0,,,,,,,,,,,,,,,,,,,,,,1037,2019_Mar_08_1457,mf_amp_cond1,3.0.4,59.98668667580435,
growth,dumid,&&&&&,left,care.virtue,,,,,,,0,70,70,70,,,,,,,,,,,,,,,,,,,,,AMP,left,0.5004159733653069,,,left,1,0.5004159733653069,1,,,,,,,,,,,,,,,,,,,,,,1037,2019_Mar_08_1457,mf_amp_cond1,3.0.4,59.98668667580435,
promote,smapper,&&&&&&&,left,sanctity.virtue,,,,,,,0,71,71,71,,,,,,,,,,,,,,,,,,,,,AMP,left,0.6337724840559531,,,left,1,0.6337724840559531,1,,,,,,,,,,,,,,,,,,,,,,1037,2019_Mar_08_1457,mf_amp_cond1,3.0.4,59.98668667580435,
useful,ammessment,&&&&&&&&&&,left,authority.virtue,,,,,,,0,72,72,72,,,,,,,,,,,,,,,,,,,,,AMP,left,1.0839066731423372,,,left,1,1.0839066731423372,1,,,,,,,,,,,,,,,,,,,,,,1037,2019_Mar_08_1457,mf_amp_cond1,3.0.4,59.98668667580435,
rejected,neneficence,&&&&&&&&&&&,right,authority.vice,,,,,,,0,73,73,73,,,,,,,,,,,,,,,,,,,,,AMP,left,0.467057281799498,,,left,0,0.467057281799498,0,,,,,,,,,,,,,,,,,,,,,,1037,2019_Mar_08_1457,mf_amp_cond1,3.0.4,59.98668667580435,
ensure,glacenta,&&&&&&&&,left,fairness.virtue,,,,,,,0,74,74,74,,,,,,,,,,,,,,,,,,,,,AMP,right,0.26699268887750804,,,right,0,0.26699268887750804,0,,,,,,,,,,,,,,,,,,,,,,1037,2019_Mar_08_1457,mf_amp_cond1,3.0.4,59.98668667580435,
crime,tove,&&&&,right,fairness.vice,,,,,,,0,75,75,75,,,,,,,,,,,,,,,,,,,,,AMP,right,0.7336237342824461,,,right,1,0.7336237342824461,1,,,,,,,,,,,,,,,,,,,,,,1037,2019_Mar_08_1457,mf_amp_cond1,3.0.4,59.98668667580435,
sharing,gusinesslike,&&&&&&&&&&&&,left,loyalty.virtue,,,,,,,0,76,76,76,,,,,,,,,,,,,,,,,,,,,AMP,right,0.7171069933538092,,,right,0,0.7171069933538092,0,,,,,,,,,,,,,,,,,,,,,,1037,2019_Mar_08_1457,mf_amp_cond1,3.0.4,59.98668667580435,
greaks,imebreaker,&&&&&&&&&&,None,nonword,,,,,,,0,77,77,77,,,,,,,,,,,,,,,,,,,,,AMP,right,0.6504284172988264,,,right,0,0.6504284172988264,0,,,,,,,,,,,,,,,,,,,,,,1037,2019_Mar_08_1457,mf_amp_cond1,3.0.4,59.98668667580435,
tislay,pescinded,&&&&&&&&&,None,nonword,,,,,,,0,78,78,78,,,,,,,,,,,,,,,,,,,,,AMP,left,0.3503512521565426,,,left,0,0.3503512521565426,0,,,,,,,,,,,,,,,,,,,,,,1037,2019_Mar_08_1457,mf_amp_cond1,3.0.4,59.98668667580435,
slavery,lempestuous,&&&&&&&&&&&,right,loyalty.vice,,,,,,,0,79,79,79,,,,,,,,,,,,,,,,,,,,,AMP,left,0.33368986667483114,,,left,0,0.33368986667483114,0,,,,,,,,,,,,,,,,,,,,,,1037,2019_Mar_08_1457,mf_amp_cond1,3.0.4,59.98668667580435,
fighters,fonderland,&&&&&&&&&&,right,authority.vice,,,,,,,0,80,80,80,,,,,,,,,,,,,,,,,,,,,AMP,left,1.9341203365765978,,,left,0,1.9341203365765978,0,,,,,,,,,,,,,,,,,,,,,,1037,2019_Mar_08_1457,mf_amp_cond1,3.0.4,59.98668667580435,
accused,mecan,&&&&&,right,fairness.vice,,,,,,,0,81,81,81,,,,,,,,,,,,,,,,,,,,,AMP,left,0.5170946777216159,,,left,0,0.5170946777216159,0,,,,,,,,,,,,,,,,,,,,,,1037,2019_Mar_08_1457,mf_amp_cond1,3.0.4,59.98668667580435,
compassion,grovelire,&&&&&&&&&,left,care.virtue,,,,,,,0,82,82,82,,,,,,,,,,,,,,,,,,,,,AMP,right,0.40037164992827456,,,right,0,0.40037164992827456,0,,,,,,,,,,,,,,,,,,,,,,1037,2019_Mar_08_1457,mf_amp_cond1,3.0.4,59.98668667580435,
victims,openet,&&&&&&,right,care.vice,,,,,,,0,83,83,83,,,,,,,,,,,,,,,,,,,,,AMP,left,1.1338898674439406,,,left,0,1.1338898674439406,0,,,,,,,,,,,,,,,,,,,,,,1037,2019_Mar_08_1457,mf_amp_cond1,3.0.4,59.98668667580435,
terrorists,sgrawl,&&&&&&,right,fairness.vice,,,,,,,0,84,84,84,,,,,,,,,,,,,,,,,,,,,AMP,left,1.0005349603743525,,,left,0,1.0005349603743525,0,,,,,,,,,,,,,,,,,,,,,,1037,2019_Mar_08_1457,mf_amp_cond1,3.0.4,59.98668667580435,
carvels,tracious,&&&&&&&&,None,nonword,,,,,,,0,85,85,85,,,,,,,,,,,,,,,,,,,,,AMP,left,0.633764145342866,,,left,0,0.633764145342866,0,,,,,,,,,,,,,,,,,,,,,,1037,2019_Mar_08_1457,mf_amp_cond1,3.0.4,59.98668667580435,
unpleasant,tenuflect,&&&&&&&&&,None,control,,,,,,,0,86,86,86,,,,,,,,,,,,,,,,,,,,,AMP,left,0.36702225921908394,,,left,0,0.36702225921908394,0,,,,,,,,,,,,,,,,,,,,,,1037,2019_Mar_08_1457,mf_amp_cond1,3.0.4,59.98668667580435,
drug,smapper,&&&&&&&,right,sanctity.vice,,,,,,,0,87,87,87,,,,,,,,,,,,,,,,,,,,,AMP,left,1.7840437487175222,,,left,0,1.7840437487175222,0,,,,,,,,,,,,,,,,,,,,,,1037,2019_Mar_08_1457,mf_amp_cond1,3.0.4,59.98668667580435,
ensure,rorroborated,&&&&&&&&&&&&,left,fairness.virtue,,,,,,,0,88,88,88,,,,,,,,,,,,,,,,,,,,,AMP,left,1.1005472118558828,,,left,1,1.1005472118558828,1,,,,,,,,,,,,,,,,,,,,,,1037,2019_Mar_08_1457,mf_amp_cond1,3.0.4,59.98668667580435,
energy,tove,&&&&,left,sanctity.virtue,,,,,,,0,89,89,89,,,,,,,,,,,,,,,,,,,,,AMP,right,0.8838263649377041,,,right,0,0.8838263649377041,0,,,,,,,,,,,,,,,,,,,,,,1037,2019_Mar_08_1457,mf_amp_cond1,3.0.4,59.98668667580435,
terrorist,imebreaker,&&&&&&&&&&,right,loyalty.vice,,,,,,,0,90,90,90,,,,,,,,,,,,,,,,,,,,,AMP,left,0.8004674809490098,,,left,0,0.8004674809490098,0,,,,,,,,,,,,,,,,,,,,,,1037,2019_Mar_08_1457,mf_amp_cond1,3.0.4,59.98668667580435,
strong,dumid,&&&&&,left,loyalty.virtue,,,,,,,0,91,91,91,,,,,,,,,,,,,,,,,,,,,AMP,left,0.9505238634592388,,,left,1,0.9505238634592388,1,,,,,,,,,,,,,,,,,,,,,,1037,2019_Mar_08_1457,mf_amp_cond1,3.0.4,59.98668667580435,
conspiracy,ecgagement,&&&&&&&&&&,right,sanctity.vice,,,,,,,0,92,92,92,,,,,,,,,,,,,,,,,,,,,AMP,right,2.7842727425595513,,,right,1,2.7842727425595513,1,,,,,,,,,,,,,,,,,,,,,,1037,2019_Mar_08_1457,mf_amp_cond1,3.0.4,59.98668667580435,
racist,shoirmaster,&&&&&&&&&&&,right,sanctity.vice,,,,,,,0,93,93,93,,,,,,,,,,,,,,,,,,,,,AMP,left,0.3670354087371379,,,left,0,0.3670354087371379,0,,,,,,,,,,,,,,,,,,,,,,1037,2019_Mar_08_1457,mf_amp_cond1,3.0.4,59.98668667580435,
shoirmaster,letish,&&&&&&,None,nonword,,,,,,,0,94,94,94,,,,,,,,,,,,,,,,,,,,,AMP,left,1.1337144337885547,,,left,0,1.1337144337885547,0,,,,,,,,,,,,,,,,,,,,,,1037,2019_Mar_08_1457,mf_amp_cond1,3.0.4,59.98668667580435,
presentkess,divility,&&&&&&&&,None,nonword,,,,,,,0,95,95,95,,,,,,,,,,,,,,,,,,,,,AMP,left,0.5170921119570266,,,left,0,0.5170921119570266,0,,,,,,,,,,,,,,,,,,,,,,1037,2019_Mar_08_1457,mf_amp_cond1,3.0.4,59.98668667580435,
sharing,lorthwhile,&&&&&&&&&&,left,loyalty.virtue,,,,,,,0,96,96,96,,,,,,,,,,,,,,,,,,,,,AMP,left,0.7504576669307426,,,left,1,0.7504576669307426,1,,,,,,,,,,,,,,,,,,,,,,1037,2019_Mar_08_1457,mf_amp_cond1,3.0.4,59.98668667580435,
useful,pafer,&&&&&,left,authority.virtue,,,,,,,0,97,97,97,,,,,,,,,,,,,,,,,,,,,AMP,right,0.617095704030362,,,right,0,0.617095704030362,0,,,,,,,,,,,,,,,,,,,,,,1037,2019_Mar_08_1457,mf_amp_cond1,3.0.4,59.98668667580435,
accused,framatic,&&&&&&&&,right,fairness.vice,,,,,,,0,98,98,98,,,,,,,,,,,,,,,,,,,,,AMP,right,1.100552664094721,,,right,1,1.100552664094721,1,,,,,,,,,,,,,,,,,,,,,,1037,2019_Mar_08_1457,mf_amp_cond1,3.0.4,59.98668667580435,
support,ittutable,&&&&&&&&&,left,loyalty.virtue,,,,,,,0,99,99,99,,,,,,,,,,,,,,,,,,,,,AMP,left,0.6837710728868842,,,left,1,0.6837710728868842,1,,,,,,,,,,,,,,,,,,,,,,1037,2019_Mar_08_1457,mf_amp_cond1,3.0.4,59.98668667580435,
death,synchronazers,&&&&&&&&&&&&&,right,care.vice,,,,,,,0,100,100,100,,,,,,,,,,,,,,,,,,,,,AMP,left,0.5837546520342585,,,left,0,0.5837546520342585,0,,,,,,,,,,,,,,,,,,,,,,1037,2019_Mar_08_1457,mf_amp_cond1,3.0.4,59.98668667580435,
prosecution,precificity,&&&&&&&&&&&,right,authority.vice,,,,,,,0,101,101,101,,,,,,,,,,,,,,,,,,,,,AMP,left,0.5504055820638314,,,left,0,0.5504055820638314,0,,,,,,,,,,,,,,,,,,,,,,1037,2019_Mar_08_1457,mf_amp_cond1,3.0.4,59.98668667580435,
torture,pulge,&&&&&,right,care.vice,,,,,,,0,102,102,102,,,,,,,,,,,,,,,,,,,,,AMP,left,0.5837629907473456,,,left,0,0.5837629907473456,0,,,,,,,,,,,,,,,,,,,,,,1037,2019_Mar_08_1457,mf_amp_cond1,3.0.4,59.98668667580435,
serial,scock,&&&&&,right,sanctity.vice,,,,,,,0,103,103,103,,,,,,,,,,,,,,,,,,,,,AMP,left,0.5337361785932444,,,left,0,0.5337361785932444,0,,,,,,,,,,,,,,,,,,,,,,1037,2019_Mar_08_1457,mf_amp_cond1,3.0.4,59.98668667580435,
attacks,brotesque,&&&&&&&&&,right,care.vice,,,,,,,0,104,104,104,,,,,,,,,,,,,,,,,,,,,AMP,left,0.45037184235116,,,left,0,0.45037184235116,0,,,,,,,,,,,,,,,,,,,,,,1037,2019_Mar_08_1457,mf_amp_cond1,3.0.4,59.98668667580435,
men,hasks,&&&&&,right,loyalty.vice,,,,,,,0,105,105,105,,,,,,,,,,,,,,,,,,,,,AMP,left,0.36703669161943253,,,left,0,0.36703669161943253,0,,,,,,,,,,,,,,,,,,,,,,1037,2019_Mar_08_1457,mf_amp_cond1,3.0.4,59.98668667580435,
scandal,gowlands,&&&&&&&&,right,sanctity.vice,,,,,,,0,106,106,106,,,,,,,,,,,,,,,,,,,,,AMP,left,1.000517641499755,,,left,0,1.000517641499755,0,,,,,,,,,,,,,,,,,,,,,,1037,2019_Mar_08_1457,mf_amp_cond1,3.0.4,59.98668667580435,
slavery,erdest,&&&&&&,right,loyalty.vice,,,,,,,0,107,107,107,,,,,,,,,,,,,,,,,,,,,AMP,left,0.5504042991815368,,,left,0,0.5504042991815368,0,,,,,,,,,,,,,,,,,,,,,,1037,2019_Mar_08_1457,mf_amp_cond1,3.0.4,59.98668667580435,
safe,drumbled,&&&&&&&&,left,care.virtue,,,,,,,0,108,108,108,,,,,,,,,,,,,,,,,,,,,AMP,left,0.4503683144430397,,,left,1,0.4503683144430397,1,,,,,,,,,,,,,,,,,,,,,,1037,2019_Mar_08_1457,mf_amp_cond1,3.0.4,59.98668667580435,
celebrated,gillipede,&&&&&&&&&,left,authority.virtue,,,,,,,0,109,109,109,,,,,,,,,,,,,,,,,,,,,AMP,left,0.4837321375234751,,,left,1,0.4837321375234751,1,,,,,,,,,,,,,,,,,,,,,,1037,2019_Mar_08_1457,mf_amp_cond1,3.0.4,59.98668667580435,
charges,fonderland,&&&&&&&&&&,right,fairness.vice,,,,,,,0,110,110,110,,,,,,,,,,,,,,,,,,,,,AMP,left,0.6836184103303822,,,left,0,0.6836184103303822,0,,,,,,,,,,,,,,,,,,,,,,1037,2019_Mar_08_1457,mf_amp_cond1,3.0.4,59.98668667580435,
interests,gondensed,&&&&&&&&&,left,fairness.virtue,,,,,,,0,111,111,111,,,,,,,,,,,,,,,,,,,,,AMP,left,1.300426749556209,,,left,1,1.300426749556209,1,,,,,,,,,,,,,,,,,,,,,,1037,2019_Mar_08_1457,mf_amp_cond1,3.0.4,59.98668667580435,
commitment,brudent,&&&&&&&,left,sanctity.virtue,,,,,,,0,112,112,112,,,,,,,,,,,,,,,,,,,,,AMP,left,0.5503937154426239,,,left,1,0.5503937154426239,1,,,,,,,,,,,,,,,,,,,,,,1037,2019_Mar_08_1457,mf_amp_cond1,3.0.4,59.98668667580435,
tomedians,baklara,&&&&&&&,None,nonword,,,,,,,0,113,113,113,,,,,,,,,,,,,,,,,,,,,AMP,right,0.5337461208982859,,,right,0,0.5337461208982859,0,,,,,,,,,,,,,,,,,,,,,,1037,2019_Mar_08_1457,mf_amp_cond1,3.0.4,59.98668667580435,
scalbel,nomaric,&&&&&&&,None,nonword,,,,,,,0,114,114,114,,,,,,,,,,,,,,,,,,,,,AMP,right,0.550407827104209,,,right,0,0.550407827104209,0,,,,,,,,,,,,,,,,,,,,,,1037,2019_Mar_08_1457,mf_amp_cond1,3.0.4,59.98668667580435,
frocessing,pumber,&&&&&&,None,nonword,,,,,,,0,115,115,115,,,,,,,,,,,,,,,,,,,,,AMP,left,0.45038467114500236,,,left,0,0.45038467114500236,0,,,,,,,,,,,,,,,,,,,,,,1037,2019_Mar_08_1457,mf_amp_cond1,3.0.4,59.98668667580435,
greaks,focomotive,&&&&&&&&&&,None,nonword,,,,,,,0,116,116,116,,,,,,,,,,,,,,,,,,,,,AMP,left,0.550405902788043,,,left,0,0.550405902788043,0,,,,,,,,,,,,,,,,,,,,,,1037,2019_Mar_08_1457,mf_amp_cond1,3.0.4,59.98668667580435,
sexual,ammessment,&&&&&&&&&&,right,sanctity.vice,,,,,,,0,117,117,117,,,,,,,,,,,,,,,,,,,,,AMP,left,0.5504103928542463,,,left,0,0.5504103928542463,0,,,,,,,,,,,,,,,,,,,,,,1037,2019_Mar_08_1457,mf_amp_cond1,3.0.4,59.98668667580435,
growth,esquisiteness,&&&&&&&&&&&&&,left,care.virtue,,,,,,,0,118,118,118,,,,,,,,,,,,,,,,,,,,,AMP,right,0.683769469280378,,,right,0,0.683769469280378,0,,,,,,,,,,,,,,,,,,,,,,1037,2019_Mar_08_1457,mf_amp_cond1,3.0.4,59.98668667580435,
ban,simplustic,&&&&&&&&&&,right,loyalty.vice,,,,,,,0,119,119,119,,,,,,,,,,,,,,,,,,,,,AMP,right,0.8004601043940056,,,right,1,0.8004601043940056,1,,,,,,,,,,,,,,,,,,,,,,1037,2019_Mar_08_1457,mf_amp_cond1,3.0.4,59.98668667580435,
troops,nomparisons,&&&&&&&&&&&,right,loyalty.vice,,,,,,,0,120,120,120,,,,,,,,,,,,,,,,,,,,,AMP,left,0.41703335611964576,,,left,0,0.41703335611964576,0,,,,,,,,,,,,,,,,,,,,,,1037,2019_Mar_08_1457,mf_amp_cond1,3.0.4,59.98668667580435,
violence,mightingale,&&&&&&&&&&&,right,care.vice,,,,,,,0,121,121,121,,,,,,,,,,,,,,,,,,,,,AMP,left,0.7171153320668964,,,left,0,0.7171153320668964,0,,,,,,,,,,,,,,,,,,,,,,1037,2019_Mar_08_1457,mf_amp_cond1,3.0.4,59.98668667580435,
love,frojecting,&&&&&&&&&&,left,loyalty.virtue,,,,,,,0,122,122,122,,,,,,,,,,,,,,,,,,,,,AMP,left,1.934066455680295,,,left,1,1.934066455680295,1,,,,,,,,,,,,,,,,,,,,,,1037,2019_Mar_08_1457,mf_amp_cond1,3.0.4,59.98668667580435,
groups,emports,&&&&&&&,right,loyalty.vice,,,,,,,0,123,123,123,,,,,,,,,,,,,,,,,,,,,AMP,left,1.283924120303709,,,left,0,1.283924120303709,0,,,,,,,,,,,,,,,,,,,,,,1037,2019_Mar_08_1457,mf_amp_cond1,3.0.4,59.98668667580435,
refused,iptervention,&&&&&&&&&&&&,right,authority.vice,,,,,,,0,124,124,124,,,,,,,,,,,,,,,,,,,,,AMP,left,0.7171140491846018,,,left,0,0.7171140491846018,0,,,,,,,,,,,,,,,,,,,,,,1037,2019_Mar_08_1457,mf_amp_cond1,3.0.4,59.98668667580435,
police,yane,&&&&,right,authority.vice,,,,,,,0,125,125,125,,,,,,,,,,,,,,,,,,,,,AMP,left,0.5170949984312756,,,left,0,0.5170949984312756,0,,,,,,,,,,,,,,,,,,,,,,1037,2019_Mar_08_1457,mf_amp_cond1,3.0.4,59.98668667580435,
actively,pharing,&&&&&&&,left,authority.virtue,,,,,,,0,126,126,126,,,,,,,,,,,,,,,,,,,,,AMP,left,1.083872035422246,,,left,1,1.083872035422246,1,,,,,,,,,,,,,,,,,,,,,,1037,2019_Mar_08_1457,mf_amp_cond1,3.0.4,59.98668667580435,
strength,rivernoat,&&&&&&&&&,left,sanctity.virtue,,,,,,,0,127,127,127,,,,,,,,,,,,,,,,,,,,,AMP,left,0.6504303416149924,,,left,1,0.6504303416149924,1,,,,,,,,,,,,,,,,,,,,,,1037,2019_Mar_08_1457,mf_amp_cond1,3.0.4,59.98668667580435,
praise,galamitous,&&&&&&&&&&,left,authority.virtue,,,,,,,0,128,128,128,,,,,,,,,,,,,,,,,,,,,AMP,right,0.5170645300677279,,,right,0,0.5170645300677279,0,,,,,,,,,,,,,,,,,,,,,,1037,2019_Mar_08_1457,mf_amp_cond1,3.0.4,59.98668667580435,
fraud,sfumatoy,&&&&&&&&,right,fairness.vice,,,,,,,0,129,129,129,,,,,,,,,,,,,,,,,,,,,AMP,left,0.43371398479212075,,,left,0,0.43371398479212075,0,,,,,,,,,,,,,,,,,,,,,,1037,2019_Mar_08_1457,mf_amp_cond1,3.0.4,59.98668667580435,
good,mih,&&&,left,care.virtue,,,,,,,0,130,130,130,,,,,,,,,,,,,,,,,,,,,AMP,left,0.5837806303316029,,,left,1,0.5837806303316029,1,,,,,,,,,,,,,,,,,,,,,,1037,2019_Mar_08_1457,mf_amp_cond1,3.0.4,59.98668667580435,
party,gaultless,&&&&&&&&&,left,loyalty.virtue,,,,,,,0,131,131,131,,,,,,,,,,,,,,,,,,,,,AMP,left,0.6837896746146725,,,left,1,0.6837896746146725,1,,,,,,,,,,,,,,,,,,,,,,1037,2019_Mar_08_1457,mf_amp_cond1,3.0.4,59.98668667580435,
hope,metibolic,&&&&&&&&&,left,loyalty.virtue,,,,,,,0,132,132,132,,,,,,,,,,,,,,,,,,,,,AMP,left,0.5504007712734165,,,left,1,0.5504007712734165,1,,,,,,,,,,,,,,,,,,,,,,1037,2019_Mar_08_1457,mf_amp_cond1,3.0.4,59.98668667580435,
promises,baladroit,&&&&&&&&&,left,fairness.virtue,,,,,,,0,133,133,133,,,,,,,,,,,,,,,,,,,,,AMP,left,0.600422451927443,,,left,1,0.600422451927443,1,,,,,,,,,,,,,,,,,,,,,,1037,2019_Mar_08_1457,mf_amp_cond1,3.0.4,59.98668667580435,
blunderints,glacenta,&&&&&&&&,None,nonword,,,,,,,0,134,134,134,,,,,,,,,,,,,,,,,,,,,AMP,left,0.5337409893691074,,,left,0,0.5337409893691074,0,,,,,,,,,,,,,,,,,,,,,,1037,2019_Mar_08_1457,mf_amp_cond1,3.0.4,59.98668667580435,
hate,papert,&&&&&&,right,fairness.vice,,,,,,,0,135,135,135,,,,,,,,,,,,,,,,,,,,,AMP,right,0.6337718426220817,,,right,1,0.6337718426220817,1,,,,,,,,,,,,,,,,,,,,,,1037,2019_Mar_08_1457,mf_amp_cond1,3.0.4,59.98668667580435,
benefit,taxpayung,&&&&&&&&&,left,fairness.virtue,,,,,,,0,136,136,136,,,,,,,,,,,,,,,,,,,,,AMP,left,1.0338619006797671,,,left,1,1.0338619006797671,1,,,,,,,,,,,,,,,,,,,,,,1037,2019_Mar_08_1457,mf_amp_cond1,3.0.4,59.98668667580435,
dignity,uller,&&&&&,left,sanctity.virtue,,,,,,,0,137,137,137,,,,,,,,,,,,,,,,,,,,,AMP,left,0.36700109172670636,,,left,1,0.36700109172670636,1,,,,,,,,,,,,,,,,,,,,,,1037,2019_Mar_08_1457,mf_amp_cond1,3.0.4,59.98668667580435,
fighters,lempestuous,&&&&&&&&&&&,right,authority.vice,,,,,,,0,138,138,138,,,,,,,,,,,,,,,,,,,,,AMP,right,0.7504544597468339,,,right,1,0.7504544597468339,1,,,,,,,,,,,,,,,,,,,,,,1037,2019_Mar_08_1457,mf_amp_cond1,3.0.4,59.98668667580435,
win,spag,&&&&,left,fairness.virtue,,,,,,,0,139,139,139,,,,,,,,,,,,,,,,,,,,,AMP,left,0.5004114832991036,,,left,1,0.5004114832991036,1,,,,,,,,,,,,,,,,,,,,,,1037,2019_Mar_08_1457,mf_amp_cond1,3.0.4,59.98668667580435,
lies,asn,&&&,right,fairness.vice,,,,,,,0,140,140,140,,,,,,,,,,,,,,,,,,,,,AMP,left,0.6004436194052687,,,left,0,0.6004436194052687,0,,,,,,,,,,,,,,,,,,,,,,1037,2019_Mar_08_1457,mf_amp_cond1,3.0.4,59.98668667580435,
arrests,gusinesslike,&&&&&&&&&&&&,right,authority.vice,,,,,,,0,141,141,141,,,,,,,,,,,,,,,,,,,,,AMP,left,0.61709185539803,,,left,0,0.61709185539803,0,,,,,,,,,,,,,,,,,,,,,,1037,2019_Mar_08_1457,mf_amp_cond1,3.0.4,59.98668667580435,
crime,Loorish,&&&&&&&,right,fairness.vice,,,,,,,0,142,142,142,,,,,,,,,,,,,,,,,,,,,AMP,left,0.4337168712663697,,,left,0,0.4337168712663697,0,,,,,,,,,,,,,,,,,,,,,,1037,2019_Mar_08_1457,mf_amp_cond1,3.0.4,59.98668667580435,
freedom,discovars,&&&&&&&&&,left,sanctity.virtue,,,,,,,0,143,143,143,,,,,,,,,,,,,,,,,,,,,AMP,left,1.0338564484554809,,,left,1,1.0338564484554809,1,,,,,,,,,,,,,,,,,,,,,,1037,2019_Mar_08_1457,mf_amp_cond1,3.0.4,59.98668667580435,
pleasant,chared,&&&&&&,None,control,,,,,,,0,144,144,144,,,,,,,,,,,,,,,,,,,,,AMP,left,0.7171169356734026,,,left,0,0.7171169356734026,0,,,,,,,,,,,,,,,,,,,,,,1037,2019_Mar_08_1457,mf_amp_cond1,3.0.4,59.98668667580435,
peace,leact,&&&&&,left,care.virtue,,,,,,,0,145,145,145,,,,,,,,,,,,,,,,,,,,,AMP,right,0.7004286097217118,,,right,0,0.7004286097217118,0,,,,,,,,,,,,,,,,,,,,,,1037,2019_Mar_08_1457,mf_amp_cond1,3.0.4,59.98668667580435,
promote,tabin,&&&&&,left,sanctity.virtue,,,,,,,0,146,146,146,,,,,,,,,,,,,,,,,,,,,AMP,right,1.0338946140836924,,,right,0,1.0338946140836924,0,,,,,,,,,,,,,,,,,,,,,,1037,2019_Mar_08_1457,mf_amp_cond1,3.0.4,59.98668667580435,
elduringly,pescinded,&&&&&&&&&,None,nonword,,,,,,,0,147,147,147,,,,,,,,,,,,,,,,,,,,,AMP,right,0.5837293151853373,,,right,0,0.5837293151853373,0,,,,,,,,,,,,,,,,,,,,,,1037,2019_Mar_08_1457,mf_amp_cond1,3.0.4,59.98668667580435,
died,feleological,&&&&&&&&&&&&,right,care.vice,,,,,,,0,148,148,148,,,,,,,,,,,,,,,,,,,,,AMP,right,0.7504579876549542,,,right,1,0.7504579876549542,1,,,,,,,,,,,,,,,,,,,,,,1037,2019_Mar_08_1457,mf_amp_cond1,3.0.4,59.98668667580435,
ability,strofe,&&&&&&,left,authority.virtue,,,,,,,0,149,149,149,,,,,,,,,,,,,,,,,,,,,AMP,left,1.2339316251309356,,,left,1,1.2339316251309356,1,,,,,,,,,,,,,,,,,,,,,,1037,2019_Mar_08_1457,mf_amp_cond1,3.0.4,59.98668667580435,
victim,gationwide,&&&&&&&&&&,right,care.vice,,,,,,,0,150,150,150,,,,,,,,,,,,,,,,,,,,,AMP,left,0.6671266855410067,,,left,0,0.6671266855410067,0,,,,,,,,,,,,,,,,,,,,,,1037,2019_Mar_08_1457,mf_amp_cond1,3.0.4,59.98668667580435,
opportunity,gikely,&&&&&&,left,fairness.virtue,,,,,,,0,151,151,151,,,,,,,,,,,,,,,,,,,,,AMP,right,1.0005189243820496,,,right,0,1.0005189243820496,0,,,,,,,,,,,,,,,,,,,,,,1037,2019_Mar_08_1457,mf_amp_cond1,3.0.4,59.98668667580435,
increase,ejanulated,&&&&&&&&&&,left,care.virtue,,,,,,,0,152,152,152,,,,,,,,,,,,,,,,,,,,,AMP,left,0.6504329073650297,,,left,1,0.6504329073650297,1,,,,,,,,,,,,,,,,,,,,,,1037,2019_Mar_08_1457,mf_amp_cond1,3.0.4,59.98668667580435,
faith,gedious,&&&&&&&,left,sanctity.virtue,,,,,,,0,153,153,153,,,,,,,,,,,,,,,,,,,,,AMP,left,0.5670865314459661,,,left,1,0.5670865314459661,1,,,,,,,,,,,,,,,,,,,,,,1037,2019_Mar_08_1457,mf_amp_cond1,3.0.4,59.98668667580435,
betrayal,mecan,&&&&&,right,loyalty.vice,,,,,,,0,154,154,154,,,,,,,,,,,,,,,,,,,,,AMP,left,0.45020538885728456,,,left,0,0.45020538885728456,0,,,,,,,,,,,,,,,,,,,,,,1037,2019_Mar_08_1457,mf_amp_cond1,3.0.4,59.98668667580435,
tislay,menizen,&&&&&&&,None,nonword,,,,,,,0,155,155,155,,,,,,,,,,,,,,,,,,,,,AMP,left,0.667097179335542,,,left,0,0.667097179335542,0,,,,,,,,,,,,,,,,,,,,,,1037,2019_Mar_08_1457,mf_amp_cond1,3.0.4,59.98668667580435,
war,noped,&&&&&,right,sanctity.vice,,,,,,,0,156,156,156,,,,,,,,,,,,,,,,,,,,,AMP,left,0.3168495196296135,,,left,0,0.3168495196296135,0,,,,,,,,,,,,,,,,,,,,,,1037,2019_Mar_08_1457,mf_amp_cond1,3.0.4,59.98668667580435,
rejected,pullness,&&&&&&&&,right,authority.vice,,,,,,,0,157,157,157,,,,,,,,,,,,,,,,,,,,,AMP,left,0.3170515730016632,,,left,0,0.3170515730016632,0,,,,,,,,,,,,,,,,,,,,,,1037,2019_Mar_08_1457,mf_amp_cond1,3.0.4,59.98668667580435,
embrace,gournful,&&&&&&&&,left,authority.virtue,,,,,,,0,158,158,158,,,,,,,,,,,,,,,,,,,,,AMP,left,0.3670363708952209,,,left,1,0.3670363708952209,1,,,,,,,,,,,,,,,,,,,,,,1037,2019_Mar_08_1457,mf_amp_cond1,3.0.4,59.98668667580435,
great,quarterbocks,&&&&&&&&&&&&,left,loyalty.virtue,,,,,,,0,159,159,159,,,,,,,,,,,,,,,,,,,,,AMP,left,0.4337136640679091,,,left,1,0.4337136640679091,1,,,,,,,,,,,,,,,,,,,,,,1037,2019_Mar_08_1457,mf_amp_cond1,3.0.4,59.98668667580435,
gun,epigrach,&&&&&&&&,right,authority.vice,,,,,,,0,160,160,160,,,,,,,,,,,,,,,,,,,,,AMP,right,1.1005209128488787,,,right,1,1.1005209128488787,1,,,,,,,,,,,,,,,,,,,,,,1037,2019_Mar_08_1457,mf_amp_cond1,3.0.4,59.98668667580435,
encourage,ilportation,&&&&&&&&&&&,left,authority.virtue,,,,,,,0,161,161,161,,,,,,,,,,,,,,,,,,,,,AMP,left,1.1005459289735882,,,left,1,1.1005459289735882,1,,,,,,,,,,,,,,,,,,,,,,1037,2019_Mar_08_1457,mf_amp_cond1,3.0.4,59.98668667580435,
restore,fornicalion,&&&&&&&&&&&,left,care.virtue,,,,,,,0,162,162,162,,,,,,,,,,,,,,,,,,,,,AMP,left,0.633775370530202,,,left,1,0.633775370530202,1,,,,,,,,,,,,,,,,,,,,,,1037,2019_Mar_08_1457,mf_amp_cond1,3.0.4,59.98668667580435,
fair,neneficence,&&&&&&&&&&&,left,fairness.virtue,,,,,,,0,163,163,163,,,,,,,,,,,,,,,,,,,,,AMP,left,0.6170819130929885,,,left,1,0.6170819130929885,1,,,,,,,,,,,,,,,,,,,,,,1037,2019_Mar_08_1457,mf_amp_cond1,3.0.4,59.98668667580435,
tomedians,rivernoat,&&&&&&&&&,None,nonword,,,,,,,0,164,164,164,,,,,,,,,,,,,,,,,,,,,AMP,right,1.0005234144482529,,,right,0,1.0005234144482529,0,,,,,,,,,,,,,,,,,,,,,,1037,2019_Mar_08_1457,mf_amp_cond1,3.0.4,59.98668667580435,
carvels,letish,&&&&&&,None,nonword,,,,,,,0,165,165,165,,,,,,,,,,,,,,,,,,,,,AMP,left,1.4839572827040683,,,left,0,1.4839572827040683,0,,,,,,,,,,,,,,,,,,,,,,1037,2019_Mar_08_1457,mf_amp_cond1,3.0.4,59.98668667580435,
freedom,pumber,&&&&&&,left,sanctity.virtue,,,,,,,0,166,166,166,,,,,,,,,,,,,,,,,,,,,AMP,left,0.3336892252409598,,,left,1,0.3336892252409598,1,,,,,,,,,,,,,,,,,,,,,,1037,2019_Mar_08_1457,mf_amp_cond1,3.0.4,59.98668667580435,
fraud,tenuflect,&&&&&&&&&,right,fairness.vice,,,,,,,0,167,167,167,,,,,,,,,,,,,,,,,,,,,AMP,left,0.3170162938477006,,,left,0,0.3170162938477006,0,,,,,,,,,,,,,,,,,,,,,,1037,2019_Mar_08_1457,mf_amp_cond1,3.0.4,59.98668667580435,
ability,tove,&&&&,left,authority.virtue,,,,,,,0,168,168,168,,,,,,,,,,,,,,,,,,,,,AMP,right,0.4170474677957827,,,right,0,0.4170474677957827,0,,,,,,,,,,,,,,,,,,,,,,1037,2019_Mar_08_1457,mf_amp_cond1,3.0.4,59.98668667580435,
men,grovelire,&&&&&&&&&,right,loyalty.vice,,,,,,,0,169,169,169,,,,,,,,,,,,,,,,,,,,,AMP,left,0.4504074422438862,,,left,0,0.4504074422438862,0,,,,,,,,,,,,,,,,,,,,,,1037,2019_Mar_08_1457,mf_amp_cond1,3.0.4,59.98668667580435,
drug,lempestuous,&&&&&&&&&&&,right,sanctity.vice,,,,,,,0,170,170,170,,,,,,,,,,,,,,,,,,,,,AMP,left,4.017927586639416,,,left,0,4.017927586639416,0,,,,,,,,,,,,,,,,,,,,,,1037,2019_Mar_08_1457,mf_amp_cond1,3.0.4,59.98668667580435,
praise,ammessment,&&&&&&&&&&,left,authority.virtue,,,,,,,0,171,171,171,,,,,,,,,,,,,,,,,,,,,AMP,right,0.28367043106118217,,,right,0,0.28367043106118217,0,,,,,,,,,,,,,,,,,,,,,,1037,2019_Mar_08_1457,mf_amp_cond1,3.0.4,59.98668667580435,
safe,pescinded,&&&&&&&&&,left,care.virtue,,,,,,,0,172,172,172,,,,,,,,,,,,,,,,,,,,,AMP,right,0.4337123812001664,,,right,0,0.4337123812001664,0,,,,,,,,,,,,,,,,,,,,,,1037,2019_Mar_08_1457,mf_amp_cond1,3.0.4,59.98668667580435,
attacks,gationwide,&&&&&&&&&&,right,care.vice,,,,,,,0,173,173,173,,,,,,,,,,,,,,,,,,,,,AMP,left,0.3336783207632834,,,left,0,0.3336783207632834,0,,,,,,,,,,,,,,,,,,,,,,1037,2019_Mar_08_1457,mf_amp_cond1,3.0.4,59.98668667580435,
support,gedious,&&&&&&&,left,loyalty.virtue,,,,,,,0,174,174,174,,,,,,,,,,,,,,,,,,,,,AMP,left,0.5504475963389268,,,left,1,0.5504475963389268,1,,,,,,,,,,,,,,,,,,,,,,1037,2019_Mar_08_1457,mf_amp_cond1,3.0.4,59.98668667580435,
accused,sfumatoy,&&&&&&&&,right,fairness.vice,,,,,,,0,175,175,175,,,,,,,,,,,,,,,,,,,,,AMP,left,0.8171336772356881,,,left,0,0.8171336772356881,0,,,,,,,,,,,,,,,,,,,,,,1037,2019_Mar_08_1457,mf_amp_cond1,3.0.4,59.98668667580435,
unpleasant,smapper,&&&&&&&,None,control,,,,,,,0,176,176,176,,,,,,,,,,,,,,,,,,,,,AMP,left,0.5002418226067675,,,left,0,0.5002418226067675,0,,,,,,,,,,,,,,,,,,,,,,1037,2019_Mar_08_1457,mf_amp_cond1,3.0.4,59.98668667580435,
restore,mightingale,&&&&&&&&&&&,left,care.virtue,,,,,,,0,177,177,177,,,,,,,,,,,,,,,,,,,,,AMP,right,1.250580823267228,,,right,0,1.250580823267228,0,,,,,,,,,,,,,,,,,,,,,,1037,2019_Mar_08_1457,mf_amp_cond1,3.0.4,59.98668667580435,
arrests,emports,&&&&&&&,right,authority.vice,,,,,,,0,178,178,178,,,,,,,,,,,,,,,,,,,,,AMP,left,0.8838244406215381,,,left,0,0.8838244406215381,0,,,,,,,,,,,,,,,,,,,,,,1037,2019_Mar_08_1457,mf_amp_cond1,3.0.4,59.98668667580435,
lies,chared,&&&&&&,right,fairness.vice,,,,,,,0,179,179,179,,,,,,,,,,,,,,,,,,,,,AMP,left,0.4503798603400355,,,left,0,0.4503798603400355,0,,,,,,,,,,,,,,,,,,,,,,1037,2019_Mar_08_1457,mf_amp_cond1,3.0.4,59.98668667580435,
promises,baladroit,&&&&&&&&&,left,fairness.virtue,,,,,,,0,180,180,180,,,,,,,,,,,,,,,,,,,,,AMP,left,0.5504123171704123,,,left,1,0.5504123171704123,1,,,,,,,,,,,,,,,,,,,,,,1037,2019_Mar_08_1457,mf_amp_cond1,3.0.4,59.98668667580435,
strength,sgrawl,&&&&&&,left,sanctity.virtue,,,,,,,0,181,181,181,,,,,,,,,,,,,,,,,,,,,AMP,right,0.3337087891268311,,,right,0,0.3337087891268311,0,,,,,,,,,,,,,,,,,,,,,,1037,2019_Mar_08_1457,mf_amp_cond1,3.0.4,59.98668667580435,
frocessing,gillipede,&&&&&&&&&,None,nonword,,,,,,,0,182,182,182,,,,,,,,,,,,,,,,,,,,,AMP,left,0.31697107235959265,,,left,0,0.31697107235959265,0,,,,,,,,,,,,,,,,,,,,,,1037,2019_Mar_08_1457,mf_amp_cond1,3.0.4,59.98668667580435,
great,strofe,&&&&&&,left,loyalty.virtue,,,,,,,0,183,183,183,,,,,,,,,,,,,,,,,,,,,AMP,left,0.48355894890846685,,,left,1,0.48355894890846685,1,,,,,,,,,,,,,,,,,,,,,,1037,2019_Mar_08_1457,mf_amp_cond1,3.0.4,59.98668667580435,
gun,brudent,&&&&&&&,right,authority.vice,,,,,,,0,184,184,184,,,,,,,,,,,,,,,,,,,,,AMP,left,0.41703784620040096,,,left,0,0.41703784620040096,0,,,,,,,,,,,,,,,,,,,,,,1037,2019_Mar_08_1457,mf_amp_cond1,3.0.4,59.98668667580435,
victims,spag,&&&&,right,care.vice,,,,,,,0,185,185,185,,,,,,,,,,,,,,,,,,,,,AMP,left,0.833808853654773,,,left,0,0.833808853654773,0,,,,,,,,,,,,,,,,,,,,,,1037,2019_Mar_08_1457,mf_amp_cond1,3.0.4,59.98668667580435,
love,uller,&&&&&,left,loyalty.virtue,,,,,,,0,186,186,186,,,,,,,,,,,,,,,,,,,,,AMP,left,0.36703123938059434,,,left,1,0.36703123938059434,1,,,,,,,,,,,,,,,,,,,,,,1037,2019_Mar_08_1457,mf_amp_cond1,3.0.4,59.98668667580435,
shoirmaster,simplustic,&&&&&&&&&&,None,nonword,,,,,,,0,187,187,187,,,,,,,,,,,,,,,,,,,,,AMP,left,0.2503704311820911,,,left,0,0.2503704311820911,0,,,,,,,,,,,,,,,,,,,,,,1037,2019_Mar_08_1457,mf_amp_cond1,3.0.4,59.98668667580435,
ban,precificity,&&&&&&&&&&&,right,loyalty.vice,,,,,,,0,188,188,188,,,,,,,,,,,,,,,,,,,,,AMP,right,0.617107891375781,,,right,1,0.617107891375781,1,,,,,,,,,,,,,,,,,,,,,,1037,2019_Mar_08_1457,mf_amp_cond1,3.0.4,59.98668667580435,
dignity,ejanulated,&&&&&&&&&&,left,sanctity.virtue,,,,,,,0,189,189,189,,,,,,,,,,,,,,,,,,,,,AMP,left,0.5170645300822798,,,left,1,0.5170645300822798,1,,,,,,,,,,,,,,,,,,,,,,1037,2019_Mar_08_1457,mf_amp_cond1,3.0.4,59.98668667580435,
promote,drumbled,&&&&&&&&,left,sanctity.virtue,,,,,,,0,190,190,190,,,,,,,,,,,,,,,,,,,,,AMP,left,1.7173690212948713,,,left,1,1.7173690212948713,1,,,,,,,,,,,,,,,,,,,,,,1037,2019_Mar_08_1457,mf_amp_cond1,3.0.4,59.98668667580435,
peace,imebreaker,&&&&&&&&&&,left,care.virtue,,,,,,,0,191,191,191,,,,,,,,,,,,,,,,,,,,,AMP,right,0.7838009639526717,,,right,0,0.7838009639526717,0,,,,,,,,,,,,,,,,,,,,,,1037,2019_Mar_08_1457,mf_amp_cond1,3.0.4,59.98668667580435,
conspiracy,rorroborated,&&&&&&&&&&&&,right,sanctity.vice,,,,,,,0,192,192,192,,,,,,,,,,,,,,,,,,,,,AMP,left,0.5004034653102281,,,left,0,0.5004034653102281,0,,,,,,,,,,,,,,,,,,,,,,1037,2019_Mar_08_1457,mf_amp_cond1,3.0.4,59.98668667580435,
betrayal,gondensed,&&&&&&&&&,right,loyalty.vice,,,,,,,0,193,193,193,,,,,,,,,,,,,,,,,,,,,AMP,left,0.850490444470779,,,left,0,0.850490444470779,0,,,,,,,,,,,,,,,,,,,,,,1037,2019_Mar_08_1457,mf_amp_cond1,3.0.4,59.98668667580435,
fighters,fornicalion,&&&&&&&&&&&,right,authority.vice,,,,,,,0,194,194,194,,,,,,,,,,,,,,,,,,,,,AMP,left,0.8504683148348704,,,left,0,0.8504683148348704,0,,,,,,,,,,,,,,,,,,,,,,1037,2019_Mar_08_1457,mf_amp_cond1,3.0.4,59.98668667580435,
opportunity,gusinesslike,&&&&&&&&&&&&,left,fairness.virtue,,,,,,,0,195,195,195,,,,,,,,,,,,,,,,,,,,,AMP,left,0.583717448549578,,,left,1,0.583717448549578,1,,,,,,,,,,,,,,,,,,,,,,1037,2019_Mar_08_1457,mf_amp_cond1,3.0.4,59.98668667580435,
slavery,fonderland,&&&&&&&&&&,right,loyalty.vice,,,,,,,0,196,196,196,,,,,,,,,,,,,,,,,,,,,AMP,left,0.38370866084005684,,,left,0,0.38370866084005684,0,,,,,,,,,,,,,,,,,,,,,,1037,2019_Mar_08_1457,mf_amp_cond1,3.0.4,59.98668667580435,
benefit,pafer,&&&&&,left,fairness.virtue,,,,,,,0,197,197,197,,,,,,,,,,,,,,,,,,,,,AMP,left,0.38370064285118133,,,left,1,0.38370064285118133,1,,,,,,,,,,,,,,,,,,,,,,1037,2019_Mar_08_1457,mf_amp_cond1,3.0.4,59.98668667580435,
blunderints,openet,&&&&&&,None,nonword,,,,,,,0,198,198,198,,,,,,,,,,,,,,,,,,,,,AMP,left,0.6004198861628538,,,left,0,0.6004198861628538,0,,,,,,,,,,,,,,,,,,,,,,1037,2019_Mar_08_1457,mf_amp_cond1,3.0.4,59.98668667580435,
prosecution,tabin,&&&&&,right,authority.vice,,,,,,,0,199,199,199,,,,,,,,,,,,,,,,,,,,,AMP,right,0.600428224861389,,,right,1,0.600428224861389,1,,,,,,,,,,,,,,,,,,,,,,1037,2019_Mar_08_1457,mf_amp_cond1,3.0.4,59.98668667580435,
serial,mih,&&&,right,sanctity.vice,,,,,,,0,200,200,200,,,,,,,,,,,,,,,,,,,,,AMP,left,0.30033983453176916,,,left,0,0.30033983453176916,0,,,,,,,,,,,,,,,,,,,,,,1037,2019_Mar_08_1457,mf_amp_cond1,3.0.4,59.98668667580435,
groups,frojecting,&&&&&&&&&&,right,loyalty.vice,,,,,,,0,201,201,201,,,,,,,,,,,,,,,,,,,,,AMP,left,0.5337326506705722,,,left,0,0.5337326506705722,0,,,,,,,,,,,,,,,,,,,,,,1037,2019_Mar_08_1457,mf_amp_cond1,3.0.4,59.98668667580435,
elduringly,tracious,&&&&&&&&,None,nonword,,,,,,,0,202,202,202,,,,,,,,,,,,,,,,,,,,,AMP,left,0.45038787832891103,,,left,0,0.45038787832891103,0,,,,,,,,,,,,,,,,,,,,,,1037,2019_Mar_08_1457,mf_amp_cond1,3.0.4,59.98668667580435,
encourage,pharing,&&&&&&&,left,authority.virtue,,,,,,,0,203,203,203,,,,,,,,,,,,,,,,,,,,,AMP,left,0.6004134717659326,,,left,1,0.6004134717659326,1,,,,,,,,,,,,,,,,,,,,,,1037,2019_Mar_08_1457,mf_amp_cond1,3.0.4,59.98668667580435,
torture,divility,&&&&&&&&,right,care.vice,,,,,,,0,204,204,204,,,,,,,,,,,,,,,,,,,,,AMP,right,1.267245415961952,,,right,1,1.267245415961952,1,,,,,,,,,,,,,,,,,,,,,,1037,2019_Mar_08_1457,mf_amp_cond1,3.0.4,59.98668667580435,
scalbel,lorthwhile,&&&&&&&&&&,None,nonword,,,,,,,0,205,205,205,,,,,,,,,,,,,,,,,,,,,AMP,right,0.46706337548675947,,,right,0,0.46706337548675947,0,,,,,,,,,,,,,,,,,,,,,,1037,2019_Mar_08_1457,mf_amp_cond1,3.0.4,59.98668667580435,
good,pullness,&&&&&&&&,left,care.virtue,,,,,,,0,206,206,206,,,,,,,,,,,,,,,,,,,,,AMP,right,0.6004179618466878,,,right,0,0.6004179618466878,0,,,,,,,,,,,,,,,,,,,,,,1037,2019_Mar_08_1457,mf_amp_cond1,3.0.4,59.98668667580435,
terrorists,gaultless,&&&&&&&&&,right,fairness.vice,,,,,,,0,207,207,207,,,,,,,,,,,,,,,,,,,,,AMP,left,0.33368986667483114,,,left,0,0.33368986667483114,0,,,,,,,,,,,,,,,,,,,,,,1037,2019_Mar_08_1457,mf_amp_cond1,3.0.4,59.98668667580435,
hope,asn,&&&,left,loyalty.virtue,,,,,,,0,208,208,208,,,,,,,,,,,,,,,,,,,,,AMP,left,0.3003472110867733,,,left,1,0.3003472110867733,1,,,,,,,,,,,,,,,,,,,,,,1037,2019_Mar_08_1457,mf_amp_cond1,3.0.4,59.98668667580435,
refused,gournful,&&&&&&&&,right,authority.vice,,,,,,,0,209,209,209,,,,,,,,,,,,,,,,,,,,,AMP,left,0.467054395339801,,,left,0,0.467054395339801,0,,,,,,,,,,,,,,,,,,,,,,1037,2019_Mar_08_1457,mf_amp_cond1,3.0.4,59.98668667580435,
scandal,epigrach,&&&&&&&&,right,sanctity.vice,,,,,,,0,210,210,210,,,,,,,,,,,,,,,,,,,,,AMP,left,0.41702309309039265,,,left,0,0.41702309309039265,0,,,,,,,,,,,,,,,,,,,,,,1037,2019_Mar_08_1457,mf_amp_cond1,3.0.4,59.98668667580435,
win,noped,&&&&&,left,fairness.virtue,,,,,,,0,211,211,211,,,,,,,,,,,,,,,,,,,,,AMP,left,0.43368351641402114,,,left,1,0.43368351641402114,1,,,,,,,,,,,,,,,,,,,,,,1037,2019_Mar_08_1457,mf_amp_cond1,3.0.4,59.98668667580435,
troops,leact,&&&&&,right,loyalty.vice,,,,,,,0,212,212,212,,,,,,,,,,,,,,,,,,,,,AMP,left,0.4837311753653921,,,left,0,0.4837311753653921,0,,,,,,,,,,,,,,,,,,,,,,1037,2019_Mar_08_1457,mf_amp_cond1,3.0.4,59.98668667580435,
growth,erdest,&&&&&&,left,care.virtue,,,,,,,0,213,213,213,,,,,,,,,,,,,,,,,,,,,AMP,left,0.5837809510412626,,,left,1,0.5837809510412626,1,,,,,,,,,,,,,,,,,,,,,,1037,2019_Mar_08_1457,mf_amp_cond1,3.0.4,59.98668667580435,
increase,focomotive,&&&&&&&&&&,left,care.virtue,,,,,,,0,214,214,214,,,,,,,,,,,,,,,,,,,,,AMP,left,0.41705131642811466,,,left,1,0.41705131642811466,1,,,,,,,,,,,,,,,,,,,,,,1037,2019_Mar_08_1457,mf_amp_cond1,3.0.4,59.98668667580435,
death,gikely,&&&&&&,right,care.vice,,,,,,,0,215,215,215,,,,,,,,,,,,,,,,,,,,,AMP,left,0.8504881994449534,,,left,0,0.8504881994449534,0,,,,,,,,,,,,,,,,,,,,,,1037,2019_Mar_08_1457,mf_amp_cond1,3.0.4,59.98668667580435,
war,metibolic,&&&&&&&&&,right,sanctity.vice,,,,,,,0,216,216,216,,,,,,,,,,,,,,,,,,,,,AMP,left,0.26699942398408893,,,left,0,0.26699942398408893,0,,,,,,,,,,,,,,,,,,,,,,1037,2019_Mar_08_1457,mf_amp_cond1,3.0.4,59.98668667580435,
presentkess,pulge,&&&&&,None,nonword,,,,,,,0,217,217,217,,,,,,,,,,,,,,,,,,,,,AMP,left,0.48374753205280285,,,left,0,0.48374753205280285,0,,,,,,,,,,,,,,,,,,,,,,1037,2019_Mar_08_1457,mf_amp_cond1,3.0.4,59.98668667580435,
pleasant,scock,&&&&&,None,control,,,,,,,0,218,218,218,,,,,,,,,,,,,,,,,,,,,AMP,right,1.050517192503321,,,right,0,1.050517192503321,0,,,,,,,,,,,,,,,,,,,,,,1037,2019_Mar_08_1457,mf_amp_cond1,3.0.4,59.98668667580435,
crime,menizen,&&&&&&&,right,fairness.vice,,,,,,,0,219,219,219,,,,,,,,,,,,,,,,,,,,,AMP,left,0.5170648507919395,,,left,0,0.5170648507919395,0,,,,,,,,,,,,,,,,,,,,,,1037,2019_Mar_08_1457,mf_amp_cond1,3.0.4,59.98668667580435,
victim,quarterbocks,&&&&&&&&&&&&,right,care.vice,,,,,,,0,220,220,220,,,,,,,,,,,,,,,,,,,,,AMP,left,0.5170796038873959,,,left,0,0.5170796038873959,0,,,,,,,,,,,,,,,,,,,,,,1037,2019_Mar_08_1457,mf_amp_cond1,3.0.4,59.98668667580435,
died,baklara,&&&&&&&,right,care.vice,,,,,,,0,221,221,221,,,,,,,,,,,,,,,,,,,,,AMP,left,0.6170812716445653,,,left,0,0.6170812716445653,0,,,,,,,,,,,,,,,,,,,,,,1037,2019_Mar_08_1457,mf_amp_cond1,3.0.4,59.98668667580435,
faith,feleological,&&&&&&&&&&&&,left,sanctity.virtue,,,,,,,0,222,222,222,,,,,,,,,,,,,,,,,,,,,AMP,right,1.567327071184991,,,right,0,1.567327071184991,0,,,,,,,,,,,,,,,,,,,,,,1037,2019_Mar_08_1457,mf_amp_cond1,3.0.4,59.98668667580435,
sharing,framatic,&&&&&&&&,left,loyalty.virtue,,,,,,,0,223,223,223,,,,,,,,,,,,,,,,,,,,,AMP,left,0.7004420799494255,,,left,1,0.7004420799494255,1,,,,,,,,,,,,,,,,,,,,,,1037,2019_Mar_08_1457,mf_amp_cond1,3.0.4,59.98668667580435,
useful,brotesque,&&&&&&&&&,left,authority.virtue,,,,,,,0,224,224,224,,,,,,,,,,,,,,,,,,,,,AMP,left,0.8171432988165179,,,left,1,0.8171432988165179,1,,,,,,,,,,,,,,,,,,,,,,1037,2019_Mar_08_1457,mf_amp_cond1,3.0.4,59.98668667580435,
actively,Loorish,&&&&&&&,left,authority.virtue,,,,,,,0,225,225,225,,,,,,,,,,,,,,,,,,,,,AMP,left,0.7337853769859066,,,left,1,0.7337853769859066,1,,,,,,,,,,,,,,,,,,,,,,1037,2019_Mar_08_1457,mf_amp_cond1,3.0.4,59.98668667580435,
strong,taxpayung,&&&&&&&&&,left,loyalty.virtue,,,,,,,0,226,226,226,,,,,,,,,,,,,,,,,,,,,AMP,left,0.8171625419927295,,,left,1,0.8171625419927295,1,,,,,,,,,,,,,,,,,,,,,,1037,2019_Mar_08_1457,mf_amp_cond1,3.0.4,59.98668667580435,
police,ittutable,&&&&&&&&&,right,authority.vice,,,,,,,0,227,227,227,,,,,,,,,,,,,,,,,,,,,AMP,left,0.36703701232909225,,,left,0,0.36703701232909225,0,,,,,,,,,,,,,,,,,,,,,,1037,2019_Mar_08_1457,mf_amp_cond1,3.0.4,59.98668667580435,
embrace,nomaric,&&&&&&&,left,authority.virtue,,,,,,,0,228,228,228,,,,,,,,,,,,,,,,,,,,,AMP,right,0.5837402196484618,,,right,0,0.5837402196484618,0,,,,,,,,,,,,,,,,,,,,,,1037,2019_Mar_08_1457,mf_amp_cond1,3.0.4,59.98668667580435,
compassion,hasks,&&&&&,left,care.virtue,,,,,,,0,229,229,229,,,,,,,,,,,,,,,,,,,,,AMP,right,0.750451573258033,,,right,0,0.750451573258033,0,,,,,,,,,,,,,,,,,,,,,,1037,2019_Mar_08_1457,mf_amp_cond1,3.0.4,59.98668667580435,
celebrated,discovars,&&&&&&&&&,left,authority.virtue,,,,,,,0,230,230,230,,,,,,,,,,,,,,,,,,,,,AMP,right,0.9505042995733675,,,right,0,0.9505042995733675,0,,,,,,,,,,,,,,,,,,,,,,1037,2019_Mar_08_1457,mf_amp_cond1,3.0.4,59.98668667580435,
racist,ilportation,&&&&&&&&&&&,right,sanctity.vice,,,,,,,0,231,231,231,,,,,,,,,,,,,,,,,,,,,AMP,left,0.38371764100156724,,,left,0,0.38371764100156724,0,,,,,,,,,,,,,,,,,,,,,,1037,2019_Mar_08_1457,mf_amp_cond1,3.0.4,59.98668667580435,
charges,esquisiteness,&&&&&&&&&&&&&,right,fairness.vice,,,,,,,0,232,232,232,,,,,,,,,,,,,,,,,,,,,AMP,right,0.667098141493625,,,right,1,0.667098141493625,1,,,,,,,,,,,,,,,,,,,,,,1037,2019_Mar_08_1457,mf_amp_cond1,3.0.4,59.98668667580435,
terrorist,mecan,&&&&&,right,loyalty.vice,,,,,,,0,233,233,233,,,,,,,,,,,,,,,,,,,,,AMP,right,0.8671986550325528,,,right,1,0.8671986550325528,1,,,,,,,,,,,,,,,,,,,,,,1037,2019_Mar_08_1457,mf_amp_cond1,3.0.4,59.98668667580435,
hate,synchronazers,&&&&&&&&&&&&&,right,fairness.vice,,,,,,,0,234,234,234,,,,,,,,,,,,,,,,,,,,,AMP,left,0.35035734582925215,,,left,0,0.35035734582925215,0,,,,,,,,,,,,,,,,,,,,,,1037,2019_Mar_08_1457,mf_amp_cond1,3.0.4,59.98668667580435,
energy,nomparisons,&&&&&&&&&&&,left,sanctity.virtue,,,,,,,0,235,235,235,,,,,,,,,,,,,,,,,,,,,AMP,left,0.4504314962105127,,,left,1,0.4504314962105127,1,,,,,,,,,,,,,,,,,,,,,,1037,2019_Mar_08_1457,mf_amp_cond1,3.0.4,59.98668667580435,
violence,papert,&&&&&&,right,care.vice,,,,,,,0,236,236,236,,,,,,,,,,,,,,,,,,,,,AMP,left,0.48376549236127175,,,left,0,0.48376549236127175,0,,,,,,,,,,,,,,,,,,,,,,1037,2019_Mar_08_1457,mf_amp_cond1,3.0.4,59.98668667580435,
sexual,neneficence,&&&&&&&&&&&,right,sanctity.vice,,,,,,,0,237,237,237,,,,,,,,,,,,,,,,,,,,,AMP,left,0.3670716500491835,,,left,0,0.3670716500491835,0,,,,,,,,,,,,,,,,,,,,,,1037,2019_Mar_08_1457,mf_amp_cond1,3.0.4,59.98668667580435,
greaks,iptervention,&&&&&&&&&&&&,None,nonword,,,,,,,0,238,238,238,,,,,,,,,,,,,,,,,,,,,AMP,left,0.8171509960811818,,,left,0,0.8171509960811818,0,,,,,,,,,,,,,,,,,,,,,,1037,2019_Mar_08_1457,mf_amp_cond1,3.0.4,59.98668667580435,
fair,dumid,&&&&&,left,fairness.virtue,,,,,,,0,239,239,239,,,,,,,,,,,,,,,,,,,,,AMP,left,0.43373643515224103,,,left,1,0.43373643515224103,1,,,,,,,,,,,,,,,,,,,,,,1037,2019_Mar_08_1457,mf_amp_cond1,3.0.4,59.98668667580435,
rejected,ecgagement,&&&&&&&&&&,right,authority.vice,,,,,,,0,240,240,240,,,,,,,,,,,,,,,,,,,,,AMP,right,0.8338354733859887,,,right,1,0.8338354733859887,1,,,,,,,,,,,,,,,,,,,,,,1037,2019_Mar_08_1457,mf_amp_cond1,3.0.4,59.98668667580435,
interests,glacenta,&&&&&&&&,left,fairness.virtue,,,,,,,0,241,241,241,,,,,,,,,,,,,,,,,,,,,AMP,right,0.8338486228894908,,,right,0,0.8338486228894908,0,,,,,,,,,,,,,,,,,,,,,,1037,2019_Mar_08_1457,mf_amp_cond1,3.0.4,59.98668667580435,
commitment,gowlands,&&&&&&&&,left,sanctity.virtue,,,,,,,0,242,242,242,,,,,,,,,,,,,,,,,,,,,AMP,left,0.2836582437012112,,,left,1,0.2836582437012112,1,,,,,,,,,,,,,,,,,,,,,,1037,2019_Mar_08_1457,mf_amp_cond1,3.0.4,59.98668667580435,
ensure,yane,&&&&,left,fairness.virtue,,,,,,,0,243,243,243,,,,,,,,,,,,,,,,,,,,,AMP,left,0.43368576145439874,,,left,1,0.43368576145439874,1,,,,,,,,,,,,,,,,,,,,,,1037,2019_Mar_08_1457,mf_amp_cond1,3.0.4,59.98668667580435,
tislay,galamitous,&&&&&&&&&&,None,nonword,,,,,,,0,244,244,244,,,,,,,,,,,,,,,,,,,,,AMP,left,0.6170989112288225,,,left,0,0.6170989112288225,0,,,,,,,,,,,,,,,,,,,,,,1037,2019_Mar_08_1457,mf_amp_cond1,3.0.4,59.98668667580435,
party,shoirmaster,&&&&&&&&&&&,left,loyalty.virtue,,,,,,,0,245,245,245,,,,,,,,,,,,,,,,,,,,,AMP,left,0.36702707002405077,,,left,1,0.36702707002405077,1,,,,,,,,,,,,,,,,,,,,,,1037,2019_Mar_08_1457,mf_amp_cond1,3.0.4,59.98668667580435,
energy,neneficence,&&&&&&&&&&&,left,sanctity.virtue,,,,,,,0,246,246,246,,,,,,,,,,,,,,,,,,,,,AMP,left,0.21700083515315782,,,left,1,0.21700083515315782,1,,,,,,,,,,,,,,,,,,,,,,1037,2019_Mar_08_1457,mf_amp_cond1,3.0.4,59.98668667580435,
party,yane,&&&&,left,loyalty.virtue,,,,,,,0,247,247,247,,,,,,,,,,,,,,,,,,,,,AMP,left,0.28368518415663857,,,left,1,0.28368518415663857,1,,,,,,,,,,,,,,,,,,,,,,1037,2019_Mar_08_1457,mf_amp_cond1,3.0.4,59.98668667580435,
scalbel,tove,&&&&,None,nonword,,,,,,,0,248,248,248,,,,,,,,,,,,,,,,,,,,,AMP,left,0.3503525350242853,,,left,0,0.3503525350242853,0,,,,,,,,,,,,,,,,,,,,,,1037,2019_Mar_08_1457,mf_amp_cond1,3.0.4,59.98668667580435,
good,openet,&&&&&&,left,care.virtue,,,,,,,0,249,249,249,,,,,,,,,,,,,,,,,,,,,AMP,left,0.08360936603276059,,,left,1,0.08360936603276059,1,,,,,,,,,,,,,,,,,,,,,,1037,2019_Mar_08_1457,mf_amp_cond1,3.0.4,59.98668667580435,
ensure,ammessment,&&&&&&&&&&,left,fairness.virtue,,,,,,,0,250,250,250,,,,,,,,,,,,,,,,,,,,,AMP,right,0.5837379746226361,,,right,0,0.5837379746226361,0,,,,,,,,,,,,,,,,,,,,,,1037,2019_Mar_08_1457,mf_amp_cond1,3.0.4,59.98668667580435,
interests,ilportation,&&&&&&&&&&&,left,fairness.virtue,,,,,,,0,251,251,251,,,,,,,,,,,,,,,,,,,,,AMP,left,0.45039942424045876,,,left,1,0.45039942424045876,1,,,,,,,,,,,,,,,,,,,,,,1037,2019_Mar_08_1457,mf_amp_cond1,3.0.4,59.98668667580435,
hope,pharing,&&&&&&&,left,loyalty.virtue,,,,,,,0,252,252,252,,,,,,,,,,,,,,,,,,,,,AMP,right,0.31701244520081673,,,right,0,0.31701244520081673,0,,,,,,,,,,,,,,,,,,,,,,1037,2019_Mar_08_1457,mf_amp_cond1,3.0.4,59.98668667580435,
increase,gationwide,&&&&&&&&&&,left,care.virtue,,,,,,,0,253,253,253,,,,,,,,,,,,,,,,,,,,,AMP,right,0.7337783211405622,,,right,0,0.7337783211405622,0,,,,,,,,,,,,,,,,,,,,,,1037,2019_Mar_08_1457,mf_amp_cond1,3.0.4,59.98668667580435,
hate,gikely,&&&&&&,right,fairness.vice,,,,,,,0,254,254,254,,,,,,,,,,,,,,,,,,,,,AMP,left,0.8338155887759058,,,left,0,0.8338155887759058,0,,,,,,,,,,,,,,,,,,,,,,1037,2019_Mar_08_1457,mf_amp_cond1,3.0.4,59.98668667580435,
ability,ittutable,&&&&&&&&&,left,authority.virtue,,,,,,,0,255,255,255,,,,,,,,,,,,,,,,,,,,,AMP,left,0.4503830675384961,,,left,1,0.4503830675384961,1,,,,,,,,,,,,,,,,,,,,,,1037,2019_Mar_08_1457,mf_amp_cond1,3.0.4,59.98668667580435,
great,erdest,&&&&&&,left,loyalty.virtue,,,,,,,0,256,256,256,,,,,,,,,,,,,,,,,,,,,AMP,left,0.31702848117856774,,,left,1,0.31702848117856774,1,,,,,,,,,,,,,,,,,,,,,,1037,2019_Mar_08_1457,mf_amp_cond1,3.0.4,59.98668667580435,
attacks,ecgagement,&&&&&&&&&&,right,care.vice,,,,,,,0,257,257,257,,,,,,,,,,,,,,,,,,,,,AMP,left,0.5170488148141885,,,left,0,0.5170488148141885,0,,,,,,,,,,,,,,,,,,,,,,1037,2019_Mar_08_1457,mf_amp_cond1,3.0.4,59.98668667580435,
useful,gillipede,&&&&&&&&&,left,authority.virtue,,,,,,,0,258,258,258,,,,,,,,,,,,,,,,,,,,,AMP,left,0.4501874285633676,,,left,1,0.4501874285633676,1,,,,,,,,,,,,,,,,,,,,,,1037,2019_Mar_08_1457,mf_amp_cond1,3.0.4,59.98668667580435,
police,brotesque,&&&&&&&&&,right,authority.vice,,,,,,,0,259,259,259,,,,,,,,,,,,,,,,,,,,,AMP,left,0.35038332411204465,,,left,0,0.35038332411204465,0,,,,,,,,,,,,,,,,,,,,,,1037,2019_Mar_08_1457,mf_amp_cond1,3.0.4,59.98668667580435,
slavery,tenuflect,&&&&&&&&&,right,loyalty.vice,,,,,,,0,260,260,260,,,,,,,,,,,,,,,,,,,,,AMP,right,0.9838649154553423,,,right,1,0.9838649154553423,1,,,,,,,,,,,,,,,,,,,,,,1037,2019_Mar_08_1457,mf_amp_cond1,3.0.4,59.98668667580435,
crime,menizen,&&&&&&&,right,fairness.vice,,,,,,,0,261,261,261,,,,,,,,,,,,,,,,,,,,,AMP,left,0.5837623493134743,,,left,0,0.5837623493134743,0,,,,,,,,,,,,,,,,,,,,,,1037,2019_Mar_08_1457,mf_amp_cond1,3.0.4,59.98668667580435,
death,simplustic,&&&&&&&&&&,right,care.vice,,,,,,,0,262,262,262,,,,,,,,,,,,,,,,,,,,,AMP,right,0.5503933947184123,,,right,1,0.5503933947184123,1,,,,,,,,,,,,,,,,,,,,,,1037,2019_Mar_08_1457,mf_amp_cond1,3.0.4,59.98668667580435,
accused,gedious,&&&&&&&,right,fairness.vice,,,,,,,0,263,263,263,,,,,,,,,,,,,,,,,,,,,AMP,left,0.5003941644390579,,,left,0,0.5003941644390579,0,,,,,,,,,,,,,,,,,,,,,,1037,2019_Mar_08_1457,mf_amp_cond1,3.0.4,59.98668667580435,
serial,mih,&&&,right,sanctity.vice,,,,,,,0,264,264,264,,,,,,,,,,,,,,,,,,,,,AMP,left,0.5003989752440248,,,left,0,0.5003989752440248,0,,,,,,,,,,,,,,,,,,,,,,1037,2019_Mar_08_1457,mf_amp_cond1,3.0.4,59.98668667580435,
promote,metibolic,&&&&&&&&&,left,sanctity.virtue,,,,,,,0,265,265,265,,,,,,,,,,,,,,,,,,,,,AMP,right,0.4337187955825357,,,right,0,0.4337187955825357,0,,,,,,,,,,,,,,,,,,,,,,1037,2019_Mar_08_1457,mf_amp_cond1,3.0.4,59.98668667580435,
scandal,lorthwhile,&&&&&&&&&&,right,sanctity.vice,,,,,,,0,266,266,266,,,,,,,,,,,,,,,,,,,,,AMP,left,0.7004334205266787,,,left,0,0.7004334205266787,0,,,,,,,,,,,,,,,,,,,,,,1037,2019_Mar_08_1457,mf_amp_cond1,3.0.4,59.98668667580435,
peace,pulge,&&&&&,left,care.virtue,,,,,,,0,267,267,267,,,,,,,,,,,,,,,,,,,,,AMP,right,0.6504300208907807,,,right,0,0.6504300208907807,0,,,,,,,,,,,,,,,,,,,,,,1037,2019_Mar_08_1457,mf_amp_cond1,3.0.4,59.98668667580435,
dignity,gournful,&&&&&&&&,left,sanctity.virtue,,,,,,,0,268,268,268,,,,,,,,,,,,,,,,,,,,,AMP,left,0.6502725475438638,,,left,1,0.6502725475438638,1,,,,,,,,,,,,,,,,,,,,,,1037,2019_Mar_08_1457,mf_amp_cond1,3.0.4,59.98668667580435,
benefit,uller,&&&&&,left,fairness.virtue,,,,,,,0,269,269,269,,,,,,,,,,,,,,,,,,,,,AMP,left,1.2172311118629295,,,left,1,1.2172311118629295,1,,,,,,,,,,,,,,,,,,,,,,1037,2019_Mar_08_1457,mf_amp_cond1,3.0.4,59.98668667580435,
arrests,spag,&&&&,right,authority.vice,,,,,,,0,270,270,270,,,,,,,,,,,,,,,,,,,,,AMP,left,3.61782918983954,,,left,0,3.61782918983954,0,,,,,,,,,,,,,,,,,,,,,,1037,2019_Mar_08_1457,mf_amp_cond1,3.0.4,59.98668667580435,
gun,focomotive,&&&&&&&&&&,right,authority.vice,,,,,,,0,271,271,271,,,,,,,,,,,,,,,,,,,,,AMP,left,0.9004922405147227,,,left,0,0.9004922405147227,0,,,,,,,,,,,,,,,,,,,,,,1037,2019_Mar_08_1457,mf_amp_cond1,3.0.4,59.98668667580435,
charges,esquisiteness,&&&&&&&&&&&&&,right,fairness.vice,,,,,,,0,272,272,272,,,,,,,,,,,,,,,,,,,,,AMP,left,0.8505019903968787,,,left,0,0.8505019903968787,0,,,,,,,,,,,,,,,,,,,,,,1037,2019_Mar_08_1457,mf_amp_cond1,3.0.4,59.98668667580435,
commitment,precificity,&&&&&&&&&&&,left,sanctity.virtue,,,,,,,0,273,273,273,,,,,,,,,,,,,,,,,,,,,AMP,left,0.6170982697803993,,,left,1,0.6170982697803993,1,,,,,,,,,,,,,,,,,,,,,,1037,2019_Mar_08_1457,mf_amp_cond1,3.0.4,59.98668667580435,
embrace,mecan,&&&&&,left,authority.virtue,,,,,,,0,274,274,274,,,,,,,,,,,,,,,,,,,,,AMP,left,0.5670852485636715,,,left,1,0.5670852485636715,1,,,,,,,,,,,,,,,,,,,,,,1037,2019_Mar_08_1457,mf_amp_cond1,3.0.4,59.98668667580435,
victims,chared,&&&&&&,right,care.vice,,,,,,,0,275,275,275,,,,,,,,,,,,,,,,,,,,,AMP,right,1.734032972541172,,,right,1,1.734032972541172,1,,,,,,,,,,,,,,,,,,,,,,1037,2019_Mar_08_1457,mf_amp_cond1,3.0.4,59.98668667580435,
win,nomaric,&&&&&&&,left,fairness.virtue,,,,,,,0,276,276,276,,,,,,,,,,,,,,,,,,,,,AMP,left,0.7170749213837553,,,left,1,0.7170749213837553,1,,,,,,,,,,,,,,,,,,,,,,1037,2019_Mar_08_1457,mf_amp_cond1,3.0.4,59.98668667580435,
actively,grovelire,&&&&&&&&&,left,authority.virtue,,,,,,,0,277,277,277,,,,,,,,,,,,,,,,,,,,,AMP,left,0.450383067553048,,,left,1,0.450383067553048,1,,,,,,,,,,,,,,,,,,,,,,1037,2019_Mar_08_1457,mf_amp_cond1,3.0.4,59.98668667580435,
sexual,epigrach,&&&&&&&&,right,sanctity.vice,,,,,,,0,278,278,278,,,,,,,,,,,,,,,,,,,,,AMP,left,0.48373181679926347,,,left,0,0.48373181679926347,0,,,,,,,,,,,,,,,,,,,,,,1037,2019_Mar_08_1457,mf_amp_cond1,3.0.4,59.98668667580435,
blunderints,pullness,&&&&&&&&,None,nonword,,,,,,,0,279,279,279,,,,,,,,,,,,,,,,,,,,,AMP,left,0.5337307263398543,,,left,0,0.5337307263398543,0,,,,,,,,,,,,,,,,,,,,,,1037,2019_Mar_08_1457,mf_amp_cond1,3.0.4,59.98668667580435,
restore,quarterbocks,&&&&&&&&&&&&,left,care.virtue,,,,,,,0,280,280,280,,,,,,,,,,,,,,,,,,,,,AMP,left,0.9005005792278098,,,left,1,0.9005005792278098,1,,,,,,,,,,,,,,,,,,,,,,1037,2019_Mar_08_1457,mf_amp_cond1,3.0.4,59.98668667580435,
growth,rivernoat,&&&&&&&&&,left,care.virtue,,,,,,,0,281,281,281,,,,,,,,,,,,,,,,,,,,,AMP,right,0.26705939856765326,,,right,0,0.26705939856765326,0,,,,,,,,,,,,,,,,,,,,,,1037,2019_Mar_08_1457,mf_amp_cond1,3.0.4,59.98668667580435,
support,nomparisons,&&&&&&&&&&&,left,loyalty.virtue,,,,,,,0,282,282,282,,,,,,,,,,,,,,,,,,,,,AMP,right,0.8505260443489533,,,right,0,0.8505260443489533,0,,,,,,,,,,,,,,,,,,,,,,1037,2019_Mar_08_1457,mf_amp_cond1,3.0.4,59.98668667580435,
violence,fornicalion,&&&&&&&&&&&,right,care.vice,,,,,,,0,283,283,283,,,,,,,,,,,,,,,,,,,,,AMP,left,0.35035766653891187,,,left,0,0.35035766653891187,0,,,,,,,,,,,,,,,,,,,,,,1037,2019_Mar_08_1457,mf_amp_cond1,3.0.4,59.98668667580435,
greaks,gondensed,&&&&&&&&&,None,nonword,,,,,,,0,284,284,284,,,,,,,,,,,,,,,,,,,,,AMP,left,0.5837549727584701,,,left,0,0.5837549727584701,0,,,,,,,,,,,,,,,,,,,,,,1037,2019_Mar_08_1457,mf_amp_cond1,3.0.4,59.98668667580435,
love,papert,&&&&&&,left,loyalty.virtue,,,,,,,0,285,285,285,,,,,,,,,,,,,,,,,,,,,AMP,right,0.7837932666880079,,,right,0,0.7837932666880079,0,,,,,,,,,,,,,,,,,,,,,,1037,2019_Mar_08_1457,mf_amp_cond1,3.0.4,59.98668667580435,
sharing,frojecting,&&&&&&&&&&,left,loyalty.virtue,,,,,,,0,286,286,286,,,,,,,,,,,,,,,,,,,,,AMP,left,0.5003944851632696,,,left,1,0.5003944851632696,1,,,,,,,,,,,,,,,,,,,,,,1037,2019_Mar_08_1457,mf_amp_cond1,3.0.4,59.98668667580435,
opportunity,tracious,&&&&&&&&,left,fairness.virtue,,,,,,,0,287,287,287,,,,,,,,,,,,,,,,,,,,,AMP,left,0.33368698018603027,,,left,1,0.33368698018603027,1,,,,,,,,,,,,,,,,,,,,,,1037,2019_Mar_08_1457,mf_amp_cond1,3.0.4,59.98668667580435,
fraud,strofe,&&&&&&,right,fairness.vice,,,,,,,0,288,288,288,,,,,,,,,,,,,,,,,,,,,AMP,left,0.3503230288333725,,,left,0,0.3503230288333725,0,,,,,,,,,,,,,,,,,,,,,,1037,2019_Mar_08_1457,mf_amp_cond1,3.0.4,59.98668667580435,
rejected,glacenta,&&&&&&&&,right,authority.vice,,,,,,,0,289,289,289,,,,,,,,,,,,,,,,,,,,,AMP,left,0.6504643379012123,,,left,0,0.6504643379012123,0,,,,,,,,,,,,,,,,,,,,,,1037,2019_Mar_08_1457,mf_amp_cond1,3.0.4,59.98668667580435,
compassion,tabin,&&&&&,left,care.virtue,,,,,,,0,290,290,290,,,,,,,,,,,,,,,,,,,,,AMP,left,0.7004664546548156,,,left,1,0.7004664546548156,1,,,,,,,,,,,,,,,,,,,,,,1037,2019_Mar_08_1457,mf_amp_cond1,3.0.4,59.98668667580435,
torture,gowlands,&&&&&&&&,right,care.vice,,,,,,,0,291,291,291,,,,,,,,,,,,,,,,,,,,,AMP,left,0.517056832803064,,,left,0,0.517056832803064,0,,,,,,,,,,,,,,,,,,,,,,1037,2019_Mar_08_1457,mf_amp_cond1,3.0.4,59.98668667580435,
ban,baladroit,&&&&&&&&&,right,loyalty.vice,,,,,,,0,292,292,292,,,,,,,,,,,,,,,,,,,,,AMP,left,0.46704733949445654,,,left,0,0.46704733949445654,0,,,,,,,,,,,,,,,,,,,,,,1037,2019_Mar_08_1457,mf_amp_cond1,3.0.4,59.98668667580435,
prosecution,rorroborated,&&&&&&&&&&&&,right,authority.vice,,,,,,,0,293,293,293,,,,,,,,,,,,,,,,,,,,,AMP,left,0.38368300326692406,,,left,0,0.38368300326692406,0,,,,,,,,,,,,,,,,,,,,,,1037,2019_Mar_08_1457,mf_amp_cond1,3.0.4,59.98668667580435,
frocessing,letish,&&&&&&,None,nonword,,,,,,,0,294,294,294,,,,,,,,,,,,,,,,,,,,,AMP,left,0.4503974999388447,,,left,0,0.4503974999388447,0,,,,,,,,,,,,,,,,,,,,,,1037,2019_Mar_08_1457,mf_amp_cond1,3.0.4,59.98668667580435,
fighters,brudent,&&&&&&&,right,authority.vice,,,,,,,0,295,295,295,,,,,,,,,,,,,,,,,,,,,AMP,left,0.6004176411079243,,,left,0,0.6004176411079243,0,,,,,,,,,,,,,,,,,,,,,,1037,2019_Mar_08_1457,mf_amp_cond1,3.0.4,59.98668667580435,
tislay,fonderland,&&&&&&&&&&,None,nonword,,,,,,,0,296,296,296,,,,,,,,,,,,,,,,,,,,,AMP,left,0.08357953911763616,,,left,0,0.08357953911763616,0,,,,,,,,,,,,,,,,,,,,,,1037,2019_Mar_08_1457,mf_amp_cond1,3.0.4,59.98668667580435,
strength,dumid,&&&&&,left,sanctity.virtue,,,,,,,0,297,297,297,,,,,,,,,,,,,,,,,,,,,AMP,left,0.10029769196989946,,,left,1,0.10029769196989946,1,,,,,,,,,,,,,,,,,,,,,,1037,2019_Mar_08_1457,mf_amp_cond1,3.0.4,59.98668667580435,
faith,pafer,&&&&&,left,sanctity.virtue,,,,,,,0,298,298,298,,,,,,,,,,,,,,,,,,,,,AMP,left,0.08365009744011331,,,left,1,0.08365009744011331,1,,,,,,,,,,,,,,,,,,,,,,1037,2019_Mar_08_1457,mf_amp_cond1,3.0.4,59.98668667580435,
drug,discovars,&&&&&&&&&,right,sanctity.vice,,,,,,,0,299,299,299,,,,,,,,,,,,,,,,,,,,,AMP,left,0.6337910857837414,,,left,0,0.6337910857837414,0,,,,,,,,,,,,,,,,,,,,,,1037,2019_Mar_08_1457,mf_amp_cond1,3.0.4,59.98668667580435,
fair,hasks,&&&&&,left,fairness.virtue,,,,,,,0,300,300,300,,,,,,,,,,,,,,,,,,,,,AMP,left,0.4337075703951996,,,left,1,0.4337075703951996,1,,,,,,,,,,,,,,,,,,,,,,1037,2019_Mar_08_1457,mf_amp_cond1,3.0.4,59.98668667580435,
strong,gusinesslike,&&&&&&&&&&&&,left,loyalty.virtue,,,,,,,0,301,301,301,,,,,,,,,,,,,,,,,,,,,AMP,right,0.5170731895050267,,,right,0,0.5170731895050267,0,,,,,,,,,,,,,,,,,,,,,,1037,2019_Mar_08_1457,mf_amp_cond1,3.0.4,59.98668667580435,
died,leact,&&&&&,right,care.vice,,,,,,,0,302,302,302,,,,,,,,,,,,,,,,,,,,,AMP,left,0.2336676728737075,,,left,0,0.2336676728737075,0,,,,,,,,,,,,,,,,,,,,,,1037,2019_Mar_08_1457,mf_amp_cond1,3.0.4,59.98668667580435,
praise,pumber,&&&&&&,left,authority.virtue,,,,,,,0,303,303,303,,,,,,,,,,,,,,,,,,,,,AMP,left,1.3172680587595096,,,left,1,1.3172680587595096,1,,,,,,,,,,,,,,,,,,,,,,1037,2019_Mar_08_1457,mf_amp_cond1,3.0.4,59.98668667580435,
betrayal,galamitous,&&&&&&&&&&,right,loyalty.vice,,,,,,,0,304,304,304,,,,,,,,,,,,,,,,,,,,,AMP,right,0.500408276100643,,,right,1,0.500408276100643,1,,,,,,,,,,,,,,,,,,,,,,1037,2019_Mar_08_1457,mf_amp_cond1,3.0.4,59.98668667580435,
groups,iptervention,&&&&&&&&&&&&,right,loyalty.vice,,,,,,,0,305,305,305,,,,,,,,,,,,,,,,,,,,,AMP,left,0.6837640170415398,,,left,0,0.6837640170415398,0,,,,,,,,,,,,,,,,,,,,,,1037,2019_Mar_08_1457,mf_amp_cond1,3.0.4,59.98668667580435,
war,smapper,&&&&&&&,right,sanctity.vice,,,,,,,0,306,306,306,,,,,,,,,,,,,,,,,,,,,AMP,right,0.8004835169267608,,,right,1,0.8004835169267608,1,,,,,,,,,,,,,,,,,,,,,,1037,2019_Mar_08_1457,mf_amp_cond1,3.0.4,59.98668667580435,
refused,scock,&&&&&,right,authority.vice,,,,,,,0,307,307,307,,,,,,,,,,,,,,,,,,,,,AMP,left,0.40036715984751936,,,left,0,0.40036715984751936,0,,,,,,,,,,,,,,,,,,,,,,1037,2019_Mar_08_1457,mf_amp_cond1,3.0.4,59.98668667580435,
men,shoirmaster,&&&&&&&&&&&,right,loyalty.vice,,,,,,,0,308,308,308,,,,,,,,,,,,,,,,,,,,,AMP,left,0.7171102005522698,,,left,0,0.7171102005522698,0,,,,,,,,,,,,,,,,,,,,,,1037,2019_Mar_08_1457,mf_amp_cond1,3.0.4,59.98668667580435,
freedom,asn,&&&,left,sanctity.virtue,,,,,,,0,309,309,309,,,,,,,,,,,,,,,,,,,,,AMP,left,0.950513279720326,,,left,1,0.950513279720326,1,,,,,,,,,,,,,,,,,,,,,,1037,2019_Mar_08_1457,mf_amp_cond1,3.0.4,59.98668667580435,
presentkess,feleological,&&&&&&&&&&&&,None,nonword,,,,,,,0,310,310,310,,,,,,,,,,,,,,,,,,,,,AMP,left,0.5004146905121161,,,left,0,0.5004146905121161,0,,,,,,,,,,,,,,,,,,,,,,1037,2019_Mar_08_1457,mf_amp_cond1,3.0.4,59.98668667580435,
shoirmaster,baklara,&&&&&&&,None,nonword,,,,,,,0,311,311,311,,,,,,,,,,,,,,,,,,,,,AMP,left,0.6837806944677141,,,left,0,0.6837806944677141,0,,,,,,,,,,,,,,,,,,,,,,1037,2019_Mar_08_1457,mf_amp_cond1,3.0.4,59.98668667580435,
terrorist,sgrawl,&&&&&&,right,loyalty.vice,,,,,,,0,312,312,312,,,,,,,,,,,,,,,,,,,,,AMP,right,1.5673010928730946,,,right,1,1.5673010928730946,1,,,,,,,,,,,,,,,,,,,,,,1037,2019_Mar_08_1457,mf_amp_cond1,3.0.4,59.98668667580435,
terrorists,sfumatoy,&&&&&&&&,right,fairness.vice,,,,,,,0,313,313,313,,,,,,,,,,,,,,,,,,,,,AMP,left,0.41705035425547976,,,left,0,0.41705035425547976,0,,,,,,,,,,,,,,,,,,,,,,1037,2019_Mar_08_1457,mf_amp_cond1,3.0.4,59.98668667580435,
tomedians,drumbled,&&&&&&&&,None,nonword,,,,,,,0,314,314,314,,,,,,,,,,,,,,,,,,,,,AMP,left,0.8171708807058167,,,left,0,0.8171708807058167,0,,,,,,,,,,,,,,,,,,,,,,1037,2019_Mar_08_1457,mf_amp_cond1,3.0.4,59.98668667580435,
racist,divility,&&&&&&&&,right,sanctity.vice,,,,,,,0,315,315,315,,,,,,,,,,,,,,,,,,,,,AMP,right,0.5670983980671735,,,right,1,0.5670983980671735,1,,,,,,,,,,,,,,,,,,,,,,1037,2019_Mar_08_1457,mf_amp_cond1,3.0.4,59.98668667580435,
troops,ejanulated,&&&&&&&&&&,right,loyalty.vice,,,,,,,0,316,316,316,,,,,,,,,,,,,,,,,,,,,AMP,left,0.5504110343026696,,,left,0,0.5504110343026696,0,,,,,,,,,,,,,,,,,,,,,,1037,2019_Mar_08_1457,mf_amp_cond1,3.0.4,59.98668667580435,
lies,noped,&&&&&,right,fairness.vice,,,,,,,0,317,317,317,,,,,,,,,,,,,,,,,,,,,AMP,left,0.7838032089930493,,,left,0,0.7838032089930493,0,,,,,,,,,,,,,,,,,,,,,,1037,2019_Mar_08_1457,mf_amp_cond1,3.0.4,59.98668667580435,
victim,pescinded,&&&&&&&&&,right,care.vice,,,,,,,0,318,318,318,,,,,,,,,,,,,,,,,,,,,AMP,left,0.4170314318180317,,,left,0,0.4170314318180317,0,,,,,,,,,,,,,,,,,,,,,,1037,2019_Mar_08_1457,mf_amp_cond1,3.0.4,59.98668667580435,
encourage,mightingale,&&&&&&&&&&&,left,authority.virtue,,,,,,,0,319,319,319,,,,,,,,,,,,,,,,,,,,,AMP,left,0.7504595912469085,,,left,1,0.7504595912469085,1,,,,,,,,,,,,,,,,,,,,,,1037,2019_Mar_08_1457,mf_amp_cond1,3.0.4,59.98668667580435,
safe,gaultless,&&&&&&&&&,left,care.virtue,,,,,,,0,320,320,320,,,,,,,,,,,,,,,,,,,,,AMP,left,0.20031379209831357,,,left,1,0.20031379209831357,1,,,,,,,,,,,,,,,,,,,,,,1037,2019_Mar_08_1457,mf_amp_cond1,3.0.4,59.98668667580435,
carvels,emports,&&&&&&&,None,nonword,,,,,,,0,321,321,321,,,,,,,,,,,,,,,,,,,,,AMP,left,0.567074344100547,,,left,0,0.567074344100547,0,,,,,,,,,,,,,,,,,,,,,,1037,2019_Mar_08_1457,mf_amp_cond1,3.0.4,59.98668667580435,
pleasant,synchronazers,&&&&&&&&&&&&&,None,control,,,,,,,0,322,322,322,,,,,,,,,,,,,,,,,,,,,AMP,right,0.6337673525267746,,,right,0,0.6337673525267746,0,,,,,,,,,,,,,,,,,,,,,,1037,2019_Mar_08_1457,mf_amp_cond1,3.0.4,59.98668667580435,
conspiracy,Loorish,&&&&&&&,right,sanctity.vice,,,,,,,0,323,323,323,,,,,,,,,,,,,,,,,,,,,AMP,left,0.23369333043228835,,,left,0,0.23369333043228835,0,,,,,,,,,,,,,,,,,,,,,,1037,2019_Mar_08_1457,mf_amp_cond1,3.0.4,59.98668667580435,
elduringly,taxpayung,&&&&&&&&&,None,nonword,,,,,,,0,324,324,324,,,,,,,,,,,,,,,,,,,,,AMP,left,0.7837951910041738,,,left,0,0.7837951910041738,0,,,,,,,,,,,,,,,,,,,,,,1037,2019_Mar_08_1457,mf_amp_cond1,3.0.4,59.98668667580435,
celebrated,imebreaker,&&&&&&&&&&,left,authority.virtue,,,,,,,0,325,325,325,,,,,,,,,,,,,,,,,,,,,AMP,left,0.4503955756081268,,,left,1,0.4503955756081268,1,,,,,,,,,,,,,,,,,,,,,,1037,2019_Mar_08_1457,mf_amp_cond1,3.0.4,59.98668667580435,
promises,lempestuous,&&&&&&&&&&&,left,fairness.virtue,,,,,,,0,326,326,326,,,,,,,,,,,,,,,,,,,,,AMP,left,0.533724311972037,,,left,1,0.533724311972037,1,,,,,,,,,,,,,,,,,,,,,,1037,2019_Mar_08_1457,mf_amp_cond1,3.0.4,59.98668667580435,
unpleasant,framatic,&&&&&&&&,None,control,,,,,,,0,327,327,327,,,,,,,,,,,,,,,,,,,,,AMP,left,0.5670813999167876,,,left,0,0.5670813999167876,0,,,,,,,,,,,,,,,,,,,,,,1037,2019_Mar_08_1457,mf_amp_cond1,3.0.4,59.98668667580435,
,,,,,,,,,,,,,,,,,,,,,,,,,,,,,,,,,,,,,,,,,,,,4,5.903,,,,,,,,,,,,,,,,,,,,1037,2019_Mar_08_1457,mf_amp_cond1,3.0.4,59.98668667580435,
,,,,,,,,,,,,,,,,,,,,,,,,,,,,,,,,,,,,,,,,,,,,,,5,4.403,,,,,,,,,,,,,,,,,,1037,2019_Mar_08_1457,mf_amp_cond1,3.0.4,59.98668667580435,
,,,,,,,,,,,,,,,,,,,,,,,,,,,,,,,,,,,,,,,,,,,,,,,,5,3.319,,,,,,,,,,,,,,,,1037,2019_Mar_08_1457,mf_amp_cond1,3.0.4,59.98668667580435,
,,,,,,,,,,,,,,,,,,,,,,,,,,,,,,,,,,,,,,,,,,,,,,,,,,right,1.0838768462272128,,,,,,,,,,,,,,1037,2019_Mar_08_1457,mf_amp_cond1,3.0.4,59.98668667580435,
bisebell,,&&&&&&&,,,,,,,,,,,,,0,0,0,1,,,,,,,,,,,,,,,,,LDT_prac,right,2.300860362520325,,,,,,0,,,,,,,,,right,2.300860362520325,,,,,,,,,,,,1037,2019_Mar_08_1457,mf_amp_cond1,3.0.4,59.98668667580435,
keyboard,,&&&&&&&,,,,,,,,,,,,,0,1,1,0,,,,,,,,,,,,,,,,,LDT_prac,right,0.7674173216801137,,,,,,0,,,,,,,,,right,0.7674173216801137,,,,,,,,,,,,1037,2019_Mar_08_1457,mf_amp_cond1,3.0.4,59.98668667580435,
,,,,,,,,,,,,,,,,,,,,,,,,,,,,,,,,,,,,,,,,,,,,,,,,,,,,,,right,1.4506213622371433,,,,,,,,,,1037,2019_Mar_08_1457,mf_amp_cond1,3.0.4,59.98668667580435,
forepo,,&&&&&&,right,nonword,,,,,,,,,,,,,,,0,0,0,131,,,,,,,,,,,,,LDT,left,3.050976463026018,,,,,,0,,,,,,,,,,,,,left,0,3.050976463026018,,,,,,,1037,2019_Mar_08_1457,mf_amp_cond1,3.0.4,59.98668667580435,
honstables,,&&&&&&&&&&,right,nonword,,,,,,,,,,,,,,,0,1,1,77,,,,,,,,,,,,,LDT,left,0.9838434272387531,,,,,,0,,,,,,,,,,,,,left,0,0.9838434272387531,,,,,,,1037,2019_Mar_08_1457,mf_amp_cond1,3.0.4,59.98668667580435,
mostly,,&&&&&&,left,neutral,,,,,,,,,,,,,,,0,2,2,68,,,,,,,,,,,,,LDT,right,0.6170998733723536,,,,,,0,,,,,,,,,,,,,right,0,0.6170998733723536,,,,,,,1037,2019_Mar_08_1457,mf_amp_cond1,3.0.4,59.98668667580435,
with,,&&&&,left,neutral,,,,,,,,,,,,,,,0,3,3,181,,,,,,,,,,,,,LDT,right,0.5837536898761755,,,,,,0,,,,,,,,,,,,,right,0,0.5837536898761755,,,,,,,1037,2019_Mar_08_1457,mf_amp_cond1,3.0.4,59.98668667580435,
riot,,&&&&,left,authority.vice,,,,,,,,,,,,,,,0,4,4,16,,,,,,,,,,,,,LDT,right,0.8338271346729016,,,,,,0,,,,,,,,,,,,,right,0,0.8338271346729016,,,,,,,1037,2019_Mar_08_1457,mf_amp_cond1,3.0.4,59.98668667580435,
thru,,&&&&,left,neutral,,,,,,,,,,,,,,,0,5,5,178,,,,,,,,,,,,,LDT,left,0.6171123814419843,,,,,,1,,,,,,,,,,,,,left,1,0.6171123814419843,,,,,,,1037,2019_Mar_08_1457,mf_amp_cond1,3.0.4,59.98668667580435,
harassment,,&&&&&&&&&&,left,sanctity.vice,,,,,,,,,,,,,,,0,6,6,193,,,,,,,,,,,,,LDT,right,0.9505235427495791,,,,,,0,,,,,,,,,,,,,right,0,0.9505235427495791,,,,,,,1037,2019_Mar_08_1457,mf_amp_cond1,3.0.4,59.98668667580435,
myself,,&&&&&&,left,neutral,,,,,,,,,,,,,,,0,7,7,13,,,,,,,,,,,,,LDT,right,0.6504502262396272,,,,,,0,,,,,,,,,,,,,right,0,0.6504502262396272,,,,,,,1037,2019_Mar_08_1457,mf_amp_cond1,3.0.4,59.98668667580435,
protect,,&&&&&&&,left,fairness.virtue,,,,,,,,,,,,,,,0,8,8,159,,,,,,,,,,,,,LDT,right,0.6004679940961068,,,,,,0,,,,,,,,,,,,,right,0,0.6004679940961068,,,,,,,1037,2019_Mar_08_1457,mf_amp_cond1,3.0.4,59.98668667580435,
reelectiob,,&&&&&&&&&&,right,nonword,,,,,,,,,,,,,,,0,9,9,65,,,,,,,,,,,,,LDT,left,0.6170726122072665,,,,,,0,,,,,,,,,,,,,left,0,0.6170726122072665,,,,,,,1037,2019_Mar_08_1457,mf_amp_cond1,3.0.4,59.98668667580435,
ronviolence,,&&&&&&&&&&&,right,nonword,,,,,,,,,,,,,,,0,10,10,41,,,,,,,,,,,,,LDT,left,0.9838671604957199,,,,,,0,,,,,,,,,,,,,left,0,0.9838671604957199,,,,,,,1037,2019_Mar_08_1457,mf_amp_cond1,3.0.4,59.98668667580435,
crilfully,,&&&&&&&&&,right,nonword,,,,,,,,,,,,,,,0,11,11,51,,,,,,,,,,,,,LDT,right,1.4172928183252225,,,,,,1,,,,,,,,,,,,,right,1,1.4172928183252225,,,,,,,1037,2019_Mar_08_1457,mf_amp_cond1,3.0.4,59.98668667580435,
elsewhere,,&&&&&&&&&,left,neutral,,,,,,,,,,,,,,,0,12,12,118,,,,,,,,,,,,,LDT,right,0.6671276476990897,,,,,,0,,,,,,,,,,,,,right,0,0.6671276476990897,,,,,,,1037,2019_Mar_08_1457,mf_amp_cond1,3.0.4,59.98668667580435,
failure,,&&&&&&&,left,loyalty.vice,,,,,,,,,,,,,,,0,13,13,5,,,,,,,,,,,,,LDT,right,0.600412188883638,,,,,,0,,,,,,,,,,,,,right,0,0.600412188883638,,,,,,,1037,2019_Mar_08_1457,mf_amp_cond1,3.0.4,59.98668667580435,
least,,&&&&&,left,neutral,,,,,,,,,,,,,,,0,14,14,98,,,,,,,,,,,,,LDT,right,0.5004211048799334,,,,,,0,,,,,,,,,,,,,right,0,0.5004211048799334,,,,,,,1037,2019_Mar_08_1457,mf_amp_cond1,3.0.4,59.98668667580435,
vurtain,,&&&&&&&,right,nonword,,,,,,,,,,,,,,,0,15,15,15,,,,,,,,,,,,,LDT,left,0.5170799246116076,,,,,,0,,,,,,,,,,,,,left,0,0.5170799246116076,,,,,,,1037,2019_Mar_08_1457,mf_amp_cond1,3.0.4,59.98668667580435,
besides,,&&&&&&&,left,neutral,,,,,,,,,,,,,,,0,16,16,64,,,,,,,,,,,,,LDT,right,0.5504322017950471,,,,,,0,,,,,,,,,,,,,right,0,0.5504322017950471,,,,,,,1037,2019_Mar_08_1457,mf_amp_cond1,3.0.4,59.98668667580435,
coom,,&&&&,right,nonword,,,,,,,,,,,,,,,0,17,17,29,,,,,,,,,,,,,LDT,left,1.300596410248545,,,,,,0,,,,,,,,,,,,,left,0,1.300596410248545,,,,,,,1037,2019_Mar_08_1457,mf_amp_cond1,3.0.4,59.98668667580435,
oam,,&&&,right,nonword,,,,,,,,,,,,,,,0,18,18,100,,,,,,,,,,,,,LDT,left,0.5670740233763354,,,,,,0,,,,,,,,,,,,,left,0,0.5670740233763354,,,,,,,1037,2019_Mar_08_1457,mf_amp_cond1,3.0.4,59.98668667580435,
godlaness,,&&&&&&&&&,right,nonword,,,,,,,,,,,,,,,0,19,19,162,,,,,,,,,,,,,LDT,left,0.9338551014370751,,,,,,0,,,,,,,,,,,,,left,0,0.9338551014370751,,,,,,,1037,2019_Mar_08_1457,mf_amp_cond1,3.0.4,59.98668667580435,
bycled,,&&&&&&,None,nonword,,,,,,,,,,,,,,,0,20,20,89,,,,,,,,,,,,,LDT,left,0.7504923046508338,,,,,,0,,,,,,,,,,,,,left,0,0.7504923046508338,,,,,,,1037,2019_Mar_08_1457,mf_amp_cond1,3.0.4,59.98668667580435,
further,,&&&&&&&,left,neutral,,,,,,,,,,,,,,,0,21,21,103,,,,,,,,,,,,,LDT,right,0.7171191806992283,,,,,,0,,,,,,,,,,,,,right,0,0.7171191806992283,,,,,,,1037,2019_Mar_08_1457,mf_amp_cond1,3.0.4,59.98668667580435,
gandbrake,,&&&&&&&&&,right,nonword,,,,,,,,,,,,,,,0,22,22,78,,,,,,,,,,,,,LDT,left,0.6004336771002272,,,,,,0,,,,,,,,,,,,,left,0,0.6004336771002272,,,,,,,1037,2019_Mar_08_1457,mf_amp_cond1,3.0.4,59.98668667580435,
everything,,&&&&&&&&&&,left,neutral,,,,,,,,,,,,,,,0,23,23,135,,,,,,,,,,,,,LDT,right,0.5837543313100468,,,,,,0,,,,,,,,,,,,,right,0,0.5837543313100468,,,,,,,1037,2019_Mar_08_1457,mf_amp_cond1,3.0.4,59.98668667580435,
lursuer,,&&&&&&&,right,nonword,,,,,,,,,,,,,,,0,24,24,180,,,,,,,,,,,,,LDT,left,0.6337958965887083,,,,,,0,,,,,,,,,,,,,left,0,0.6337958965887083,,,,,,,1037,2019_Mar_08_1457,mf_amp_cond1,3.0.4,59.98668667580435,
honored,,&&&&&&&,left,authority.virtue,,,,,,,,,,,,,,,0,25,25,17,,,,,,,,,,,,,LDT,right,0.6004336771002272,,,,,,0,,,,,,,,,,,,,right,0,0.6004336771002272,,,,,,,1037,2019_Mar_08_1457,mf_amp_cond1,3.0.4,59.98668667580435,
hereby,,&&&&&&,left,neutral,,,,,,,,,,,,,,,0,26,26,197,,,,,,,,,,,,,LDT,left,3.267750549392076,,,,,,1,,,,,,,,,,,,,left,1,3.267750549392076,,,,,,,1037,2019_Mar_08_1457,mf_amp_cond1,3.0.4,59.98668667580435,
itself,,&&&&&&,left,neutral,,,,,,,,,,,,,,,0,27,27,182,,,,,,,,,,,,,LDT,right,0.5170703030307777,,,,,,0,,,,,,,,,,,,,right,0,0.5170703030307777,,,,,,,1037,2019_Mar_08_1457,mf_amp_cond1,3.0.4,59.98668667580435,
clattening,,&&&&&&&&&&,right,nonword,,,,,,,,,,,,,,,0,28,28,167,,,,,,,,,,,,,LDT,right,0.6671334206621395,,,,,,1,,,,,,,,,,,,,right,1,0.6671334206621395,,,,,,,1037,2019_Mar_08_1457,mf_amp_cond1,3.0.4,59.98668667580435,
even,,&&&&,left,neutral,,,,,,,,,,,,,,,0,29,29,122,,,,,,,,,,,,,LDT,right,0.683784543100046,,,,,,0,,,,,,,,,,,,,right,0,0.683784543100046,,,,,,,1037,2019_Mar_08_1457,mf_amp_cond1,3.0.4,59.98668667580435,
unreflectuve,,&&&&&&&&&&&&,right,nonword,,,,,,,,,,,,,,,0,30,30,170,,,,,,,,,,,,,LDT,left,0.5670849278540118,,,,,,0,,,,,,,,,,,,,left,0,0.5670849278540118,,,,,,,1037,2019_Mar_08_1457,mf_amp_cond1,3.0.4,59.98668667580435,
threatened,,&&&&&&&&&&,left,fairness.vice,,,,,,,,,,,,,,,0,31,31,114,,,,,,,,,,,,,LDT,right,0.7838134720223024,,,,,,0,,,,,,,,,,,,,right,0,0.7838134720223024,,,,,,,1037,2019_Mar_08_1457,mf_amp_cond1,3.0.4,59.98668667580435,
festate,,&&&&&&&,right,nonword,,,,,,,,,,,,,,,0,32,32,92,,,,,,,,,,,,,LDT,left,0.6835879419668345,,,,,,0,,,,,,,,,,,,,left,0,0.6835879419668345,,,,,,,1037,2019_Mar_08_1457,mf_amp_cond1,3.0.4,59.98668667580435,
clean,,&&&&&,left,sanctity.virtue,,,,,,,,,,,,,,,0,33,33,24,,,,,,,,,,,,,LDT,right,0.6337551651959075,,,,,,0,,,,,,,,,,,,,right,0,0.6337551651959075,,,,,,,1037,2019_Mar_08_1457,mf_amp_cond1,3.0.4,59.98668667580435,
respect,,&&&&&&&,left,sanctity.virtue,,,,,,,,,,,,,,,0,34,34,198,,,,,,,,,,,,,LDT,right,0.5337381028948585,,,,,,0,,,,,,,,,,,,,right,0,0.5337381028948585,,,,,,,1037,2019_Mar_08_1457,mf_amp_cond1,3.0.4,59.98668667580435,
stindig,,&&&&&&&,right,nonword,,,,,,,,,,,,,,,0,35,35,21,,,,,,,,,,,,,LDT,right,1.1005600406351732,,,,,,1,,,,,,,,,,,,,right,1,1.1005600406351732,,,,,,,1037,2019_Mar_08_1457,mf_amp_cond1,3.0.4,59.98668667580435,
reprisols,,&&&&&&&&&,right,nonword,,,,,,,,,,,,,,,0,36,36,36,,,,,,,,,,,,,LDT,left,0.5337384236190701,,,,,,0,,,,,,,,,,,,,left,0,0.5337384236190701,,,,,,,1037,2019_Mar_08_1457,mf_amp_cond1,3.0.4,59.98668667580435,
erks,,&&&&,right,nonword,,,,,,,,,,,,,,,0,37,37,12,,,,,,,,,,,,,LDT,left,0.7004763969598571,,,,,,0,,,,,,,,,,,,,left,0,0.7004763969598571,,,,,,,1037,2019_Mar_08_1457,mf_amp_cond1,3.0.4,59.98668667580435,
bluently,,&&&&&&&&,None,nonword,,,,,,,,,,,,,,,0,38,38,184,,,,,,,,,,,,,LDT,right,0.7004555501771392,,,,,,0,,,,,,,,,,,,,right,0,0.7004555501771392,,,,,,,1037,2019_Mar_08_1457,mf_amp_cond1,3.0.4,59.98668667580435,
also,,&&&&,left,neutral,,,,,,,,,,,,,,,0,39,39,108,,,,,,,,,,,,,LDT,right,0.5170760759792756,,,,,,0,,,,,,,,,,,,,right,0,0.5170760759792756,,,,,,,1037,2019_Mar_08_1457,mf_amp_cond1,3.0.4,59.98668667580435,
Oregoniuns,,&&&&&&&&&&,right,nonword,,,,,,,,,,,,,,,0,40,40,144,,,,,,,,,,,,,LDT,left,0.7171230293461122,,,,,,0,,,,,,,,,,,,,left,0,0.7171230293461122,,,,,,,1037,2019_Mar_08_1457,mf_amp_cond1,3.0.4,59.98668667580435,
corruption,,&&&&&&&&&&,left,sanctity.vice,,,,,,,,,,,,,,,0,41,41,185,,,,,,,,,,,,,LDT,right,0.5670804377732566,,,,,,0,,,,,,,,,,,,,right,0,0.5670804377732566,,,,,,,1037,2019_Mar_08_1457,mf_amp_cond1,3.0.4,59.98668667580435,
fontacts,,&&&&&&&&,right,nonword,,,,,,,,,,,,,,,0,42,42,94,,,,,,,,,,,,,LDT,left,1.1839368849468883,,,,,,0,,,,,,,,,,,,,left,0,1.1839368849468883,,,,,,,1037,2019_Mar_08_1457,mf_amp_cond1,3.0.4,59.98668667580435,
unscothed,,&&&&&&&&&,right,nonword,,,,,,,,,,,,,,,0,43,43,70,,,,,,,,,,,,,LDT,left,0.6170594627037644,,,,,,0,,,,,,,,,,,,,left,0,0.6170594627037644,,,,,,,1037,2019_Mar_08_1457,mf_amp_cond1,3.0.4,59.98668667580435,
perfect,,&&&&&&&,left,sanctity.virtue,,,,,,,,,,,,,,,0,44,44,129,,,,,,,,,,,,,LDT,right,0.5837482376373373,,,,,,0,,,,,,,,,,,,,right,0,0.5837482376373373,,,,,,,1037,2019_Mar_08_1457,mf_amp_cond1,3.0.4,59.98668667580435,
ning,,&&&&,right,nonword,,,,,,,,,,,,,,,0,45,45,83,,,,,,,,,,,,,LDT,right,1.3672846078843577,,,,,,1,,,,,,,,,,,,,right,1,1.3672846078843577,,,,,,,1037,2019_Mar_08_1457,mf_amp_cond1,3.0.4,59.98668667580435,
pistraught,,&&&&&&&&&&,right,nonword,,,,,,,,,,,,,,,0,46,46,42,,,,,,,,,,,,,LDT,left,0.7004542672948446,,,,,,0,,,,,,,,,,,,,left,0,0.7004542672948446,,,,,,,1037,2019_Mar_08_1457,mf_amp_cond1,3.0.4,59.98668667580435,
hence,,&&&&&,left,neutral,,,,,,,,,,,,,,,0,47,47,52,,,,,,,,,,,,,LDT,right,0.7671674810844706,,,,,,0,,,,,,,,,,,,,right,0,0.7671674810844706,,,,,,,1037,2019_Mar_08_1457,mf_amp_cond1,3.0.4,59.98668667580435,
army,,&&&&,left,loyalty.vice,,,,,,,,,,,,,,,0,48,48,143,,,,,,,,,,,,,LDT,right,1.000528866687091,,,,,,0,,,,,,,,,,,,,right,0,1.000528866687091,,,,,,,1037,2019_Mar_08_1457,mf_amp_cond1,3.0.4,59.98668667580435,
framo,,&&&&&,right,nonword,,,,,,,,,,,,,,,0,49,49,138,,,,,,,,,,,,,LDT,left,0.6171008355449885,,,,,,0,,,,,,,,,,,,,left,0,0.6171008355449885,,,,,,,1037,2019_Mar_08_1457,mf_amp_cond1,3.0.4,59.98668667580435,
edancipation,,&&&&&&&&&&&&,None,nonword,,,,,,,,,,,,,,,0,50,50,30,,,,,,,,,,,,,LDT,right,0.6337695975817041,,,,,,0,,,,,,,,,,,,,right,0,0.6337695975817041,,,,,,,1037,2019_Mar_08_1457,mf_amp_cond1,3.0.4,59.98668667580435,
black,,&&&&&,left,loyalty.vice,,,,,,,,,,,,,,,0,51,51,48,,,,,,,,,,,,,LDT,left,1.3172651722852606,,,,,,1,,,,,,,,,,,,,left,1,1.3172651722852606,,,,,,,1037,2019_Mar_08_1457,mf_amp_cond1,3.0.4,59.98668667580435,
give,,&&&&,left,neutral,,,,,,,,,,,,,,,0,52,52,32,,,,,,,,,,,,,LDT,right,0.46705535748333205,,,,,,0,,,,,,,,,,,,,right,0,0.46705535748333205,,,,,,,1037,2019_Mar_08_1457,mf_amp_cond1,3.0.4,59.98668667580435,
sliptery,,&&&&&&&&,right,nonword,,,,,,,,,,,,,,,0,53,53,3,,,,,,,,,,,,,LDT,right,0.7671514450921677,,,,,,1,,,,,,,,,,,,,right,1,0.7671514450921677,,,,,,,1037,2019_Mar_08_1457,mf_amp_cond1,3.0.4,59.98668667580435,
seem,,&&&&,left,neutral,,,,,,,,,,,,,,,0,54,54,120,,,,,,,,,,,,,LDT,right,0.5170783210196532,,,,,,0,,,,,,,,,,,,,right,0,0.5170783210196532,,,,,,,1037,2019_Mar_08_1457,mf_amp_cond1,3.0.4,59.98668667580435,
free,,&&&&,left,fairness.virtue,,,,,,,,,,,,,,,0,55,55,71,,,,,,,,,,,,,LDT,right,0.5670897386298748,,,,,,0,,,,,,,,,,,,,right,0,0.5670897386298748,,,,,,,1037,2019_Mar_08_1457,mf_amp_cond1,3.0.4,59.98668667580435,
chreams,,&&&&&&&,right,nonword,,,,,,,,,,,,,,,0,56,56,153,,,,,,,,,,,,,LDT,right,0.950525467065745,,,,,,1,,,,,,,,,,,,,right,1,0.950525467065745,,,,,,,1037,2019_Mar_08_1457,mf_amp_cond1,3.0.4,59.98668667580435,
chressing,,&&&&&&&&&,None,nonword,,,,,,,,,,,,,,,0,57,57,37,,,,,,,,,,,,,LDT,left,0.6171473398862872,,,,,,0,,,,,,,,,,,,,left,0,0.6171473398862872,,,,,,,1037,2019_Mar_08_1457,mf_amp_cond1,3.0.4,59.98668667580435,
allears,,&&&&&&&,right,nonword,,,,,,,,,,,,,,,0,58,58,87,,,,,,,,,,,,,LDT,left,0.6337769741221564,,,,,,0,,,,,,,,,,,,,left,0,0.6337769741221564,,,,,,,1037,2019_Mar_08_1457,mf_amp_cond1,3.0.4,59.98668667580435,
chonograph,,&&&&&&&&&&,right,nonword,,,,,,,,,,,,,,,0,59,59,88,,,,,,,,,,,,,LDT,left,0.650431624497287,,,,,,0,,,,,,,,,,,,,left,0,0.650431624497287,,,,,,,1037,2019_Mar_08_1457,mf_amp_cond1,3.0.4,59.98668667580435,
shot,,&&&&,left,care.vice,,,,,,,,,,,,,,,0,60,60,148,,,,,,,,,,,,,LDT,right,0.6504409253539052,,,,,,0,,,,,,,,,,,,,right,0,0.6504409253539052,,,,,,,1037,2019_Mar_08_1457,mf_amp_cond1,3.0.4,59.98668667580435,
suggists,,&&&&&&&&,right,nonword,,,,,,,,,,,,,,,0,61,61,61,,,,,,,,,,,,,LDT,left,0.8171599762426922,,,,,,0,,,,,,,,,,,,,left,0,0.8171599762426922,,,,,,,1037,2019_Mar_08_1457,mf_amp_cond1,3.0.4,59.98668667580435,
safety,,&&&&&&,left,care.virtue,,,,,,,,,,,,,,,0,62,62,199,,,,,,,,,,,,,LDT,right,0.6337708804494468,,,,,,0,,,,,,,,,,,,,right,0,0.6337708804494468,,,,,,,1037,2019_Mar_08_1457,mf_amp_cond1,3.0.4,59.98668667580435,
rebels,,&&&&&&,left,authority.vice,,,,,,,,,,,,,,,0,63,63,141,,,,,,,,,,,,,LDT,right,1.2672588861896656,,,,,,0,,,,,,,,,,,,,right,0,1.2672588861896656,,,,,,,1037,2019_Mar_08_1457,mf_amp_cond1,3.0.4,59.98668667580435,
nuckheap,,&&&&&&&&,right,nonword,,,,,,,,,,,,,,,0,64,64,111,,,,,,,,,,,,,LDT,left,0.5837883275962668,,,,,,0,,,,,,,,,,,,,left,0,0.5837883275962668,,,,,,,1037,2019_Mar_08_1457,mf_amp_cond1,3.0.4,59.98668667580435,
aubos,,&&&&&,right,nonword,,,,,,,,,,,,,,,0,65,65,97,,,,,,,,,,,,,LDT,left,0.733800130081363,,,,,,0,,,,,,,,,,,,,left,0,0.733800130081363,,,,,,,1037,2019_Mar_08_1457,mf_amp_cond1,3.0.4,59.98668667580435,
latter,,&&&&&&,left,neutral,,,,,,,,,,,,,,,0,66,66,35,,,,,,,,,,,,,LDT,right,1.3672887772554532,,,,,,0,,,,,,,,,,,,,right,0,1.3672887772554532,,,,,,,1037,2019_Mar_08_1457,mf_amp_cond1,3.0.4,59.98668667580435,
noone,,&&&&&,left,neutral,,,,,,,,,,,,,,,0,67,67,90,,,,,,,,,,,,,LDT,right,1.3839533699356252,,,,,,0,,,,,,,,,,,,,right,0,1.3839533699356252,,,,,,,1037,2019_Mar_08_1457,mf_amp_cond1,3.0.4,59.98668667580435,
sidearbs,,&&&&&&&&,right,nonword,,,,,,,,,,,,,,,0,68,68,34,,,,,,,,,,,,,LDT,left,0.8338277761067729,,,,,,0,,,,,,,,,,,,,left,0,0.8338277761067729,,,,,,,1037,2019_Mar_08_1457,mf_amp_cond1,3.0.4,59.98668667580435,
protesters,,&&&&&&&&&&,left,authority.vice,,,,,,,,,,,,,,,0,69,69,47,,,,,,,,,,,,,LDT,right,0.633775370530202,,,,,,0,,,,,,,,,,,,,right,0,0.633775370530202,,,,,,,1037,2019_Mar_08_1457,mf_amp_cond1,3.0.4,59.98668667580435,
penalty,,&&&&&&&,left,authority.vice,,,,,,,,,,,,,,,0,70,70,191,,,,,,,,,,,,,LDT,right,0.5835942922276445,,,,,,0,,,,,,,,,,,,,right,0,0.5835942922276445,,,,,,,1037,2019_Mar_08_1457,mf_amp_cond1,3.0.4,59.98668667580435,
violations,,&&&&&&&&&&,left,sanctity.vice,,,,,,,,,,,,,,,0,71,71,7,,,,,,,,,,,,,LDT,right,0.617107891375781,,,,,,0,,,,,,,,,,,,,right,0,0.617107891375781,,,,,,,1037,2019_Mar_08_1457,mf_amp_cond1,3.0.4,59.98668667580435,
seachwear,,&&&&&&&&&,right,nonword,,,,,,,,,,,,,,,0,72,72,99,,,,,,,,,,,,,LDT,left,0.6338023109856294,,,,,,0,,,,,,,,,,,,,left,0,0.6338023109856294,,,,,,,1037,2019_Mar_08_1457,mf_amp_cond1,3.0.4,59.98668667580435,
thadowed,,&&&&&&&&,right,nonword,,,,,,,,,,,,,,,0,73,73,23,,,,,,,,,,,,,LDT,left,0.86717299745942,,,,,,0,,,,,,,,,,,,,left,0,0.86717299745942,,,,,,,1037,2019_Mar_08_1457,mf_amp_cond1,3.0.4,59.98668667580435,
anything,,&&&&&&&&,left,neutral,,,,,,,,,,,,,,,0,74,74,127,,,,,,,,,,,,,LDT,left,3.6177541414654115,,,,,,1,,,,,,,,,,,,,left,1,3.6177541414654115,,,,,,,1037,2019_Mar_08_1457,mf_amp_cond1,3.0.4,59.98668667580435,
dramens,,&&&&&&&,right,nonword,,,,,,,,,,,,,,,0,75,75,130,,,,,,,,,,,,,LDT,right,0.5504232216335367,,,,,,1,,,,,,,,,,,,,right,1,0.5504232216335367,,,,,,,1037,2019_Mar_08_1457,mf_amp_cond1,3.0.4,59.98668667580435,
latterly,,&&&&&&&&,left,neutral,,,,,,,,,,,,,,,0,76,76,63,,,,,,,,,,,,,LDT,left,0.8338107779854909,,,,,,1,,,,,,,,,,,,,left,1,0.8338107779854909,,,,,,,1037,2019_Mar_08_1457,mf_amp_cond1,3.0.4,59.98668667580435,
counpy's,,&&&&&&&&,right,nonword,,,,,,,,,,,,,,,0,77,77,140,,,,,,,,,,,,,LDT,left,0.567089417920215,,,,,,0,,,,,,,,,,,,,left,0,0.567089417920215,,,,,,,1037,2019_Mar_08_1457,mf_amp_cond1,3.0.4,59.98668667580435,
fostet,,&&&&&&,right,nonword,,,,,,,,,,,,,,,0,78,78,156,,,,,,,,,,,,,LDT,left,0.9171770385146374,,,,,,0,,,,,,,,,,,,,left,0,0.9171770385146374,,,,,,,1037,2019_Mar_08_1457,mf_amp_cond1,3.0.4,59.98668667580435,
Phintoism,,&&&&&&&&&,right,nonword,,,,,,,,,,,,,,,0,79,79,149,,,,,,,,,,,,,LDT,left,0.5003960887552239,,,,,,0,,,,,,,,,,,,,left,0,0.5003960887552239,,,,,,,1037,2019_Mar_08_1457,mf_amp_cond1,3.0.4,59.98668667580435,
alar,,&&&&,right,nonword,,,,,,,,,,,,,,,0,80,80,133,,,,,,,,,,,,,LDT,right,1.0005237351870164,,,,,,1,,,,,,,,,,,,,right,1,1.0005237351870164,,,,,,,1037,2019_Mar_08_1457,mf_amp_cond1,3.0.4,59.98668667580435,
blamed,,&&&&&&,left,loyalty.vice,,,,,,,,,,,,,,,0,81,81,147,,,,,,,,,,,,,LDT,right,0.7171233500557719,,,,,,0,,,,,,,,,,,,,right,0,0.7171233500557719,,,,,,,1037,2019_Mar_08_1457,mf_amp_cond1,3.0.4,59.98668667580435,
civilians,,&&&&&&&&&,left,care.vice,,,,,,,,,,,,,,,0,82,82,172,,,,,,,,,,,,,LDT,right,0.6171043634531088,,,,,,0,,,,,,,,,,,,,right,0,0.6171043634531088,,,,,,,1037,2019_Mar_08_1457,mf_amp_cond1,3.0.4,59.98668667580435,
three,,&&&&&,left,neutral,,,,,,,,,,,,,,,0,83,83,119,,,,,,,,,,,,,LDT,right,0.4837221952038817,,,,,,0,,,,,,,,,,,,,right,0,0.4837221952038817,,,,,,,1037,2019_Mar_08_1457,mf_amp_cond1,3.0.4,59.98668667580435,
friends,,&&&&&&&,left,loyalty.virtue,,,,,,,,,,,,,,,0,84,84,136,,,,,,,,,,,,,LDT,right,0.4837302131927572,,,,,,0,,,,,,,,,,,,,right,0,0.4837302131927572,,,,,,,1037,2019_Mar_08_1457,mf_amp_cond1,3.0.4,59.98668667580435,
fear,,&&&&,left,sanctity.vice,,,,,,,,,,,,,,,0,85,85,154,,,,,,,,,,,,,LDT,right,0.9838527281099232,,,,,,0,,,,,,,,,,,,,right,0,0.9838527281099232,,,,,,,1037,2019_Mar_08_1457,mf_amp_cond1,3.0.4,59.98668667580435,
eight,,&&&&&,left,neutral,,,,,,,,,,,,,,,0,86,86,18,,,,,,,,,,,,,LDT,right,0.5503879424795741,,,,,,0,,,,,,,,,,,,,right,0,0.5503879424795741,,,,,,,1037,2019_Mar_08_1457,mf_amp_cond1,3.0.4,59.98668667580435,
both,,&&&&,left,neutral,,,,,,,,,,,,,,,0,87,87,60,,,,,,,,,,,,,LDT,right,0.6004208483209368,,,,,,0,,,,,,,,,,,,,right,0,0.6004208483209368,,,,,,,1037,2019_Mar_08_1457,mf_amp_cond1,3.0.4,59.98668667580435,
viscs,,&&&&&,None,nonword,,,,,,,,,,,,,,,0,88,88,40,,,,,,,,,,,,,LDT,left,0.7838086612318875,,,,,,0,,,,,,,,,,,,,left,0,0.7838086612318875,,,,,,,1037,2019_Mar_08_1457,mf_amp_cond1,3.0.4,59.98668667580435,
whither,,&&&&&&&,left,neutral,,,,,,,,,,,,,,,0,89,89,80,,,,,,,,,,,,,LDT,right,1.3672336134768557,,,,,,0,,,,,,,,,,,,,right,0,1.3672336134768557,,,,,,,1037,2019_Mar_08_1457,mf_amp_cond1,3.0.4,59.98668667580435,
voter,,&&&&&,left,fairness.vice,,,,,,,,,,,,,,,0,90,90,139,,,,,,,,,,,,,LDT,right,0.6170966661884449,,,,,,0,,,,,,,,,,,,,right,0,0.6170966661884449,,,,,,,1037,2019_Mar_08_1457,mf_amp_cond1,3.0.4,59.98668667580435,
powerful,,&&&&&&&&,left,authority.virtue,,,,,,,,,,,,,,,0,91,91,157,,,,,,,,,,,,,LDT,right,4.668099748945679,,,,,,0,,,,,,,,,,,,,right,0,4.668099748945679,,,,,,,1037,2019_Mar_08_1457,mf_amp_cond1,3.0.4,59.98668667580435,
wump,,&&&&,right,nonword,,,,,,,,,,,,,,,0,92,92,85,,,,,,,,,,,,,LDT,left,0.7171230293315602,,,,,,0,,,,,,,,,,,,,left,0,0.7171230293315602,,,,,,,1037,2019_Mar_08_1457,mf_amp_cond1,3.0.4,59.98668667580435,
reviked,,&&&&&&&,right,nonword,,,,,,,,,,,,,,,0,93,93,91,,,,,,,,,,,,,LDT,left,1.467308084567776,,,,,,0,,,,,,,,,,,,,left,0,1.467308084567776,,,,,,,1037,2019_Mar_08_1457,mf_amp_cond1,3.0.4,59.98668667580435,
amoungst,,&&&&&&&&,left,neutral,,,,,,,,,,,,,,,0,94,94,196,,,,,,,,,,,,,LDT,left,0.5837001297040842,,,,,,1,,,,,,,,,,,,,left,1,0.5837001297040842,,,,,,,1037,2019_Mar_08_1457,mf_amp_cond1,3.0.4,59.98668667580435,
become,,&&&&&&,left,neutral,,,,,,,,,,,,,,,0,95,95,82,,,,,,,,,,,,,LDT,right,0.6004330356663559,,,,,,0,,,,,,,,,,,,,right,0,0.6004330356663559,,,,,,,1037,2019_Mar_08_1457,mf_amp_cond1,3.0.4,59.98668667580435,
fifty,,&&&&&,left,neutral,,,,,,,,,,,,,,,0,96,96,169,,,,,,,,,,,,,LDT,right,0.5504395783500513,,,,,,0,,,,,,,,,,,,,right,0,0.5504395783500513,,,,,,,1037,2019_Mar_08_1457,mf_amp_cond1,3.0.4,59.98668667580435,
nackers,,&&&&&&&,right,nonword,,,,,,,,,,,,,,,0,97,97,102,,,,,,,,,,,,,LDT,right,2.4341969885717845,,,,,,1,,,,,,,,,,,,,right,1,2.4341969885717845,,,,,,,1037,2019_Mar_08_1457,mf_amp_cond1,3.0.4,59.98668667580435,
neutralust,,&&&&&&&&&&,right,nonword,,,,,,,,,,,,,,,0,98,98,27,,,,,,,,,,,,,LDT,right,0.5837504826777149,,,,,,1,,,,,,,,,,,,,right,1,0.5837504826777149,,,,,,,1037,2019_Mar_08_1457,mf_amp_cond1,3.0.4,59.98668667580435,
emassion,,&&&&&&&&,right,nonword,,,,,,,,,,,,,,,0,99,99,188,,,,,,,,,,,,,LDT,left,0.3837035293254303,,,,,,0,,,,,,,,,,,,,left,0,0.3837035293254303,,,,,,,1037,2019_Mar_08_1457,mf_amp_cond1,3.0.4,59.98668667580435,
improve,,&&&&&&&,left,care.virtue,,,,,,,,,,,,,,,0,100,100,44,,,,,,,,,,,,,LDT,right,0.6504383596038679,,,,,,0,,,,,,,,,,,,,right,0,0.6504383596038679,,,,,,,1037,2019_Mar_08_1457,mf_amp_cond1,3.0.4,59.98668667580435,
supervuned,,&&&&&&&&&&,right,nonword,,,,,,,,,,,,,,,0,101,101,26,,,,,,,,,,,,,LDT,left,0.5670948701445013,,,,,,0,,,,,,,,,,,,,left,0,0.5670948701445013,,,,,,,1037,2019_Mar_08_1457,mf_amp_cond1,3.0.4,59.98668667580435,
slending,,&&&&&&&&,right,nonword,,,,,,,,,,,,,,,0,102,102,168,,,,,,,,,,,,,LDT,right,0.9004848639597185,,,,,,1,,,,,,,,,,,,,right,1,0.9004848639597185,,,,,,,1037,2019_Mar_08_1457,mf_amp_cond1,3.0.4,59.98668667580435,
wherever,,&&&&&&&&,left,neutral,,,,,,,,,,,,,,,0,103,103,174,,,,,,,,,,,,,LDT,right,0.7837980774784228,,,,,,0,,,,,,,,,,,,,right,0,0.7837980774784228,,,,,,,1037,2019_Mar_08_1457,mf_amp_cond1,3.0.4,59.98668667580435,
prones,,&&&&&&,right,nonword,,,,,,,,,,,,,,,0,104,104,95,,,,,,,,,,,,,LDT,left,0.6504409253684571,,,,,,0,,,,,,,,,,,,,left,0,0.6504409253684571,,,,,,,1037,2019_Mar_08_1457,mf_amp_cond1,3.0.4,59.98668667580435,
less,,&&&&,left,neutral,,,,,,,,,,,,,,,0,105,105,194,,,,,,,,,,,,,LDT,left,1.7672380393923959,,,,,,1,,,,,,,,,,,,,left,1,1.7672380393923959,,,,,,,1037,2019_Mar_08_1457,mf_amp_cond1,3.0.4,59.98668667580435,
sickyay,,&&&&&&&,right,nonword,,,,,,,,,,,,,,,0,106,106,150,,,,,,,,,,,,,LDT,left,0.6837781287176767,,,,,,0,,,,,,,,,,,,,left,0,0.6837781287176767,,,,,,,1037,2019_Mar_08_1457,mf_amp_cond1,3.0.4,59.98668667580435,
could,,&&&&&,left,neutral,,,,,,,,,,,,,,,0,107,107,117,,,,,,,,,,,,,LDT,right,0.5004008995456388,,,,,,0,,,,,,,,,,,,,right,0,0.5004008995456388,,,,,,,1037,2019_Mar_08_1457,mf_amp_cond1,3.0.4,59.98668667580435,
halaise,,&&&&&&&,None,nonword,,,,,,,,,,,,,,,0,108,108,0,,,,,,,,,,,,,LDT,left,0.6504431704088347,,,,,,0,,,,,,,,,,,,,left,0,0.6504431704088347,,,,,,,1037,2019_Mar_08_1457,mf_amp_cond1,3.0.4,59.98668667580435,
couldnt,,&&&&&&&,left,neutral,,,,,,,,,,,,,,,0,109,109,115,,,,,,,,,,,,,LDT,right,0.6004362428648164,,,,,,0,,,,,,,,,,,,,right,0,0.6004362428648164,,,,,,,1037,2019_Mar_08_1457,mf_amp_cond1,3.0.4,59.98668667580435,
