words,mask,corr_ans,category,nonwords,tweets,topic,LDT_pracloop.thisRepN,LDT_pracloop.thisTrialN,LDT_pracloop.thisN,LDT_pracloop.thisIndex,LDT_trials.thisRepN,LDT_trials.thisTrialN,LDT_trials.thisN,LDT_trials.thisIndex,AMP_pracloop.thisRepN,AMP_pracloop.thisTrialN,AMP_pracloop.thisN,AMP_pracloop.thisIndex,AMP_trials.thisRepN,AMP_trials.thisTrialN,AMP_trials.thisN,AMP_trials.thisIndex,tweet_loop.thisRepN,tweet_loop.thisTrialN,tweet_loop.thisN,tweet_loop.thisIndex,begin_key.keys,begin_key.rt,key_resp_AMP_instr1.keys,key_resp_AMP_instr1.rt,key_resp_LDT_instr.keys,key_resp_LDT_instr.rt,resp_LDT_prac.keys,resp_LDT_prac.rt,task,keypress,RT,corr,resp_LDT_ready.keys,resp_LDT_ready.rt,resp_LDT.keys,resp_LDT.corr,resp_LDT.rt,LDT_rating.response,LDT_rating.rt,resp_AMP_ready1.keys,resp_AMP_ready1.rt,resp_AMP_prac.keys,resp_AMP_prac.rt,resp_AMP_ready.keys,resp_AMP_ready.rt,resp_AMP.keys,resp_AMP.corr,resp_AMP.rt,AMP_nonword_rating.response,AMP_nonword_rating.rt,AMP_word_rating.response,AMP_word_rating.rt,AMP_random_rating.response,AMP_random_rating.rt,key_resp_LDT_instr_2.keys,key_resp_LDT_instr_2.rt,resp_tweets.keys,resp_tweets.rt,participant,date,expName,psychopyVersion,frameRate,
,,,,,,,,,,,,,,,,,,,,,,,,,,,right,927.606911466457,,,,,,,,,,,,,,,,,,,,,,,,,,,,,,,,,,,,,1042,2019_Mar_13_0950,mf_amp_cond2,3.0.4,59.98766749964676,
,,,,,,,,,,,,,,,,,,,,,,,,,,,,,right,6.0518424130859785,,,,,,,,,,,,,,,,,,,,,,,,,,,,,,,,,,,1042,2019_Mar_13_0950,mf_amp_cond2,3.0.4,59.98766749964676,
,,,,,,,,,,,,,,,,,,,,,,,,,,,,,,,right,5.101555221073795,,,,,,,,,,,,,,,,,,,,,,,,,,,,,,,,,1042,2019_Mar_13_0950,mf_amp_cond2,3.0.4,59.98766749964676,
keyboard,&&&&&&&,,,,,,0,0,0,0,,,,,,,,,,,,,,,,,,,,,,,left,1.1005494316923432,LDT_prac,left,1.1005494316923432,0,,,,,,,,,,,,,,,,,,,,,,,,,,,1042,2019_Mar_13_0950,mf_amp_cond2,3.0.4,59.98766749964676,
bisebell,&&&&&&&,,,,,,0,1,1,1,,,,,,,,,,,,,,,,,,,,,,,left,0.633750904846238,LDT_prac,left,0.633750904846238,0,,,,,,,,,,,,,,,,,,,,,,,,,,,1042,2019_Mar_13_0950,mf_amp_cond2,3.0.4,59.98766749964676,
,,,,,,,,,,,,,,,,,,,,,,,,,,,,,,,,,,,,,,,right,1.8006984719831962,,,,,,,,,,,,,,,,,,,,,,,,,1042,2019_Mar_13_0950,mf_amp_cond2,3.0.4,59.98766749964676,
fifteen,&&&&&&&,left,neutral,,,,,,,,0,0,0,136,,,,,,,,,,,,,,,,,,,,,LDT,left,1.31725021803868,1,,,left,1,1.31725021803868,,,,,,,,,,,,,,,,,,,,,,1042,2019_Mar_13_0950,mf_amp_cond2,3.0.4,59.98766749964676,
pafer,&&&&&,right,nonword,,,,,,,,0,1,1,172,,,,,,,,,,,,,,,,,,,,,LDT,right,0.6337428867409471,1,,,right,1,0.6337428867409471,,,,,,,,,,,,,,,,,,,,,,1042,2019_Mar_13_0950,mf_amp_cond2,3.0.4,59.98766749964676,
coom,&&&&,right,nonword,,,,,,,,0,2,2,144,,,,,,,,,,,,,,,,,,,,,LDT,right,0.7170402722840663,1,,,right,1,0.7170402722840663,,,,,,,,,,,,,,,,,,,,,,1042,2019_Mar_13_0950,mf_amp_cond2,3.0.4,59.98766749964676,
even,&&&&,left,neutral,,,,,,,,0,3,3,67,,,,,,,,,,,,,,,,,,,,,LDT,right,0.6337351893889718,0,,,right,0,0.6337351893889718,,,,,,,,,,,,,,,,,,,,,,1042,2019_Mar_13_0950,mf_amp_cond2,3.0.4,59.98766749964676,
faspberry,&&&&&&&&&,None,nonword,,,,,,,,0,4,4,56,,,,,,,,,,,,,,,,,,,,,LDT,right,0.7337445224402472,0,,,right,0,0.7337445224402472,,,,,,,,,,,,,,,,,,,,,,1042,2019_Mar_13_0950,mf_amp_cond2,3.0.4,59.98766749964676,
peaceful,&&&&&&&&,left,authority.virtue,,,,,,,,0,5,5,29,,,,,,,,,,,,,,,,,,,,,LDT,right,0.5170485469570849,0,,,right,0,0.5170485469570849,,,,,,,,,,,,,,,,,,,,,,1042,2019_Mar_13_0950,mf_amp_cond2,3.0.4,59.98766749964676,
officers,&&&&&&&&,left,authority.vice,,,,,,,,0,6,6,60,,,,,,,,,,,,,,,,,,,,,LDT,right,0.46707980148494244,0,,,right,0,0.46707980148494244,,,,,,,,,,,,,,,,,,,,,,1042,2019_Mar_13_0950,mf_amp_cond2,3.0.4,59.98766749964676,
with,&&&&,left,neutral,,,,,,,,0,7,7,178,,,,,,,,,,,,,,,,,,,,,LDT,right,0.5503762248845305,0,,,right,0,0.5503762248845305,,,,,,,,,,,,,,,,,,,,,,1042,2019_Mar_13_0950,mf_amp_cond2,3.0.4,59.98766749964676,
help,&&&&,left,care.virtue,,,,,,,,0,8,8,101,,,,,,,,,,,,,,,,,,,,,LDT,right,0.4336927897238638,0,,,right,0,0.4336927897238638,,,,,,,,,,,,,,,,,,,,,,1042,2019_Mar_13_0950,mf_amp_cond2,3.0.4,59.98766749964676,
further,&&&&&&&,left,neutral,,,,,,,,0,9,9,15,,,,,,,,,,,,,,,,,,,,,LDT,right,0.5337258563085925,0,,,right,0,0.5337258563085925,,,,,,,,,,,,,,,,,,,,,,1042,2019_Mar_13_0950,mf_amp_cond2,3.0.4,59.98766749964676,
crinking,&&&&&&&&,right,nonword,,,,,,,,0,10,10,112,,,,,,,,,,,,,,,,,,,,,LDT,left,0.8337981153454166,0,,,left,0,0.8337981153454166,,,,,,,,,,,,,,,,,,,,,,1042,2019_Mar_13_0950,mf_amp_cond2,3.0.4,59.98766749964676,
health,&&&&&&,left,care.virtue,,,,,,,,0,11,11,155,,,,,,,,,,,,,,,,,,,,,LDT,right,0.550396109756548,0,,,right,0,0.550396109756548,,,,,,,,,,,,,,,,,,,,,,1042,2019_Mar_13_0950,mf_amp_cond2,3.0.4,59.98766749964676,
powerful,&&&&&&&&,left,authority.virtue,,,,,,,,0,12,12,79,,,,,,,,,,,,,,,,,,,,,LDT,right,0.4336956762417685,0,,,right,0,0.4336956762417685,,,,,,,,,,,,,,,,,,,,,,1042,2019_Mar_13_0950,mf_amp_cond2,3.0.4,59.98766749964676,
laming,&&&&&&,right,nonword,,,,,,,,0,13,13,54,,,,,,,,,,,,,,,,,,,,,LDT,right,0.6338131252268795,1,,,right,1,0.6338131252268795,,,,,,,,,,,,,,,,,,,,,,1042,2019_Mar_13_0950,mf_amp_cond2,3.0.4,59.98766749964676,
nackers,&&&&&&&,right,nonword,,,,,,,,0,14,14,182,,,,,,,,,,,,,,,,,,,,,LDT,left,0.833789776545018,0,,,left,0,0.833789776545018,,,,,,,,,,,,,,,,,,,,,,1042,2019_Mar_13_0950,mf_amp_cond2,3.0.4,59.98766749964676,
forepo,&&&&&&,right,nonword,,,,,,,,0,15,15,39,,,,,,,,,,,,,,,,,,,,,LDT,left,0.9838313583750278,0,,,left,0,0.9838313583750278,,,,,,,,,,,,,,,,,,,,,,1042,2019_Mar_13_0950,mf_amp_cond2,3.0.4,59.98766749964676,
else,&&&&,left,neutral,,,,,,,,0,16,16,159,,,,,,,,,,,,,,,,,,,,,LDT,right,0.4670381074247416,0,,,right,0,0.4670381074247416,,,,,,,,,,,,,,,,,,,,,,1042,2019_Mar_13_0950,mf_amp_cond2,3.0.4,59.98766749964676,
protesters,&&&&&&&&&&,left,authority.vice,,,,,,,,0,17,17,163,,,,,,,,,,,,,,,,,,,,,LDT,right,0.7171069828036707,0,,,right,0,0.7171069828036707,,,,,,,,,,,,,,,,,,,,,,1042,2019_Mar_13_0950,mf_amp_cond2,3.0.4,59.98766749964676,
although,&&&&&&&&,left,neutral,,,,,,,,0,18,18,1,,,,,,,,,,,,,,,,,,,,,LDT,right,0.8004531183687504,0,,,right,0,0.8004531183687504,,,,,,,,,,,,,,,,,,,,,,1042,2019_Mar_13_0950,mf_amp_cond2,3.0.4,59.98766749964676,
done,&&&&,left,neutral,,,,,,,,0,19,19,107,,,,,,,,,,,,,,,,,,,,,LDT,right,0.6004078321857378,0,,,right,0,0.6004078321857378,,,,,,,,,,,,,,,,,,,,,,1042,2019_Mar_13_0950,mf_amp_cond2,3.0.4,59.98766749964676,
increase,&&&&&&&&,left,care.virtue,,,,,,,,0,20,20,28,,,,,,,,,,,,,,,,,,,,,LDT,right,0.5170107015874237,0,,,right,0,0.5170107015874237,,,,,,,,,,,,,,,,,,,,,,1042,2019_Mar_13_0950,mf_amp_cond2,3.0.4,59.98766749964676,
mostly,&&&&&&,left,neutral,,,,,,,,0,21,21,80,,,,,,,,,,,,,,,,,,,,,LDT,right,0.4837009842158295,0,,,right,0,0.4837009842158295,,,,,,,,,,,,,,,,,,,,,,1042,2019_Mar_13_0950,mf_amp_cond2,3.0.4,59.98766749964676,
latterly,&&&&&&&&,left,neutral,,,,,,,,0,22,22,171,,,,,,,,,,,,,,,,,,,,,LDT,left,1.2005808946851175,1,,,left,1,1.2005808946851175,,,,,,,,,,,,,,,,,,,,,,1042,2019_Mar_13_0950,mf_amp_cond2,3.0.4,59.98766749964676,
ronviolence,&&&&&&&&&&&,right,nonword,,,,,,,,0,23,23,70,,,,,,,,,,,,,,,,,,,,,LDT,right,0.8004521562252194,1,,,right,1,0.8004521562252194,,,,,,,,,,,,,,,,,,,,,,1042,2019_Mar_13_0950,mf_amp_cond2,3.0.4,59.98766749964676,
perified,&&&&&&&&,right,nonword,,,,,,,,0,24,24,193,,,,,,,,,,,,,,,,,,,,,LDT,right,0.7837886379857082,1,,,right,1,0.7837886379857082,,,,,,,,,,,,,,,,,,,,,,1042,2019_Mar_13_0950,mf_amp_cond2,3.0.4,59.98766749964676,
strong,&&&&&&,left,loyalty.virtue,,,,,,,,0,25,25,51,,,,,,,,,,,,,,,,,,,,,LDT,right,0.483696173352655,0,,,right,0,0.483696173352655,,,,,,,,,,,,,,,,,,,,,,1042,2019_Mar_13_0950,mf_amp_cond2,3.0.4,59.98766749964676,
give,&&&&,left,neutral,,,,,,,,0,26,26,48,,,,,,,,,,,,,,,,,,,,,LDT,right,0.4670349001826253,0,,,right,0,0.4670349001826253,,,,,,,,,,,,,,,,,,,,,,1042,2019_Mar_13_0950,mf_amp_cond2,3.0.4,59.98766749964676,
lempestuous,&&&&&&&&&&&,right,nonword,,,,,,,,0,27,27,68,,,,,,,,,,,,,,,,,,,,,LDT,left,1.0171805247664452,0,,,left,0,1.0171805247664452,,,,,,,,,,,,,,,,,,,,,,1042,2019_Mar_13_0950,mf_amp_cond2,3.0.4,59.98766749964676,
idexpressible,&&&&&&&&&&&&&,right,nonword,,,,,,,,0,28,28,189,,,,,,,,,,,,,,,,,,,,,LDT,right,0.5170446982956491,1,,,right,1,0.5170446982956491,,,,,,,,,,,,,,,,,,,,,,1042,2019_Mar_13_0950,mf_amp_cond2,3.0.4,59.98766749964676,
crilfully,&&&&&&&&&,right,nonword,,,,,,,,0,29,29,177,,,,,,,,,,,,,,,,,,,,,LDT,right,0.5337630602589343,1,,,right,1,0.5337630602589343,,,,,,,,,,,,,,,,,,,,,,1042,2019_Mar_13_0950,mf_amp_cond2,3.0.4,59.98766749964676,
reviked,&&&&&&&,right,nonword,,,,,,,,0,30,30,148,,,,,,,,,,,,,,,,,,,,,LDT,left,0.9671630292723421,0,,,left,0,0.9671630292723421,,,,,,,,,,,,,,,,,,,,,,1042,2019_Mar_13_0950,mf_amp_cond2,3.0.4,59.98766749964676,
fraud,&&&&&,left,fairness.vice,,,,,,,,0,31,31,81,,,,,,,,,,,,,,,,,,,,,LDT,right,0.6004280378110707,0,,,right,0,0.6004280378110707,,,,,,,,,,,,,,,,,,,,,,1042,2019_Mar_13_0950,mf_amp_cond2,3.0.4,59.98766749964676,
lursuer,&&&&&&&,right,nonword,,,,,,,,0,32,32,151,,,,,,,,,,,,,,,,,,,,,LDT,left,0.9004913165408652,0,,,left,0,0.9004913165408652,,,,,,,,,,,,,,,,,,,,,,1042,2019_Mar_13_0950,mf_amp_cond2,3.0.4,59.98766749964676,
alar,&&&&,right,nonword,,,,,,,,0,33,33,96,,,,,,,,,,,,,,,,,,,,,LDT,left,0.8337939459597692,0,,,left,0,0.8337939459597692,,,,,,,,,,,,,,,,,,,,,,1042,2019_Mar_13_0950,mf_amp_cond2,3.0.4,59.98766749964676,
spag,&&&&,None,nonword,,,,,,,,0,34,34,61,,,,,,,,,,,,,,,,,,,,,LDT,left,0.6670994297601283,0,,,left,0,0.6670994297601283,,,,,,,,,,,,,,,,,,,,,,1042,2019_Mar_13_0950,mf_amp_cond2,3.0.4,59.98766749964676,
refused,&&&&&&&,left,authority.vice,,,,,,,,0,35,35,146,,,,,,,,,,,,,,,,,,,,,LDT,right,0.6837497983360663,0,,,right,0,0.6837497983360663,,,,,,,,,,,,,,,,,,,,,,1042,2019_Mar_13_0950,mf_amp_cond2,3.0.4,59.98766749964676,
forty,&&&&&,left,neutral,,,,,,,,0,36,36,130,,,,,,,,,,,,,,,,,,,,,LDT,right,0.6337400002521463,0,,,right,0,0.6337400002521463,,,,,,,,,,,,,,,,,,,,,,1042,2019_Mar_13_0950,mf_amp_cond2,3.0.4,59.98766749964676,
commitment,&&&&&&&&&&,left,sanctity.virtue,,,,,,,,0,37,37,38,,,,,,,,,,,,,,,,,,,,,LDT,right,0.5837266741727944,0,,,right,0,0.5837266741727944,,,,,,,,,,,,,,,,,,,,,,1042,2019_Mar_13_0950,mf_amp_cond2,3.0.4,59.98766749964676,
totalestic,&&&&&&&&&&,None,nonword,,,,,,,,0,38,38,160,,,,,,,,,,,,,,,,,,,,,LDT,right,0.6170559556921944,0,,,right,0,0.6170559556921944,,,,,,,,,,,,,,,,,,,,,,1042,2019_Mar_13_0950,mf_amp_cond2,3.0.4,59.98766749964676,
scalbel,&&&&&&&,right,nonword,,,,,,,,0,39,39,187,,,,,,,,,,,,,,,,,,,,,LDT,left,0.6003985312127043,0,,,left,0,0.6003985312127043,,,,,,,,,,,,,,,,,,,,,,1042,2019_Mar_13_0950,mf_amp_cond2,3.0.4,59.98766749964676,
violence,&&&&&&&&,left,care.vice,,,,,,,,0,40,40,170,,,,,,,,,,,,,,,,,,,,,LDT,right,0.7171066621085629,0,,,right,0,0.7171066621085629,,,,,,,,,,,,,,,,,,,,,,1042,2019_Mar_13_0950,mf_amp_cond2,3.0.4,59.98766749964676,
either,&&&&&&,left,neutral,,,,,,,,0,41,41,26,,,,,,,,,,,,,,,,,,,,,LDT,right,0.5503598679788411,0,,,right,0,0.5503598679788411,,,,,,,,,,,,,,,,,,,,,,1042,2019_Mar_13_0950,mf_amp_cond2,3.0.4,59.98766749964676,
supervuned,&&&&&&&&&&,right,nonword,,,,,,,,0,42,42,117,,,,,,,,,,,,,,,,,,,,,LDT,left,1.000502894690726,0,,,left,0,1.000502894690726,,,,,,,,,,,,,,,,,,,,,,1042,2019_Mar_13_0950,mf_amp_cond2,3.0.4,59.98766749964676,
tislay,&&&&&&,right,nonword,,,,,,,,0,43,43,75,,,,,,,,,,,,,,,,,,,,,LDT,left,0.7004216553759761,0,,,left,0,0.7004216553759761,,,,,,,,,,,,,,,,,,,,,,1042,2019_Mar_13_0950,mf_amp_cond2,3.0.4,59.98766749964676,
yane,&&&&,right,nonword,,,,,,,,0,44,44,17,,,,,,,,,,,,,,,,,,,,,LDT,left,0.7173353380640037,0,,,left,0,0.7173353380640037,,,,,,,,,,,,,,,,,,,,,,1042,2019_Mar_13_0950,mf_amp_cond2,3.0.4,59.98766749964676,
perfect,&&&&&&&,left,sanctity.virtue,,,,,,,,0,45,45,24,,,,,,,,,,,,,,,,,,,,,LDT,right,0.5003744448767975,0,,,right,0,0.5003744448767975,,,,,,,,,,,,,,,,,,,,,,1042,2019_Mar_13_0950,mf_amp_cond2,3.0.4,59.98766749964676,
sowntrodden,&&&&&&&&&&&,right,nonword,,,,,,,,0,46,46,123,,,,,,,,,,,,,,,,,,,,,LDT,left,0.6504192339198198,0,,,left,0,0.6504192339198198,,,,,,,,,,,,,,,,,,,,,,1042,2019_Mar_13_0950,mf_amp_cond2,3.0.4,59.98766749964676,
wherever,&&&&&&&&,left,neutral,,,,,,,,0,47,47,52,,,,,,,,,,,,,,,,,,,,,LDT,right,0.5837318057310767,0,,,right,0,0.5837318057310767,,,,,,,,,,,,,,,,,,,,,,1042,2019_Mar_13_0950,mf_amp_cond2,3.0.4,59.98766749964676,
neneficence,&&&&&&&&&&&,right,nonword,,,,,,,,0,48,48,37,,,,,,,,,,,,,,,,,,,,,LDT,left,0.9838393764512148,0,,,left,0,0.9838393764512148,,,,,,,,,,,,,,,,,,,,,,1042,2019_Mar_13_0950,mf_amp_cond2,3.0.4,59.98766749964676,
hence,&&&&&,left,neutral,,,,,,,,0,49,49,129,,,,,,,,,,,,,,,,,,,,,LDT,right,0.5503871294786222,0,,,right,0,0.5503871294786222,,,,,,,,,,,,,,,,,,,,,,1042,2019_Mar_13_0950,mf_amp_cond2,3.0.4,59.98766749964676,
noone,&&&&&,left,neutral,,,,,,,,0,50,50,64,,,,,,,,,,,,,,,,,,,,,LDT,right,0.43370497721480206,0,,,right,0,0.43370497721480206,,,,,,,,,,,,,,,,,,,,,,1042,2019_Mar_13_0950,mf_amp_cond2,3.0.4,59.98766749964676,
presentkess,&&&&&&&&&&&,right,nonword,,,,,,,,0,51,51,86,,,,,,,,,,,,,,,,,,,,,LDT,left,0.6837004068947863,0,,,left,0,0.6837004068947863,,,,,,,,,,,,,,,,,,,,,,1042,2019_Mar_13_0950,mf_amp_cond2,3.0.4,59.98766749964676,
Phintoism,&&&&&&&&&,right,nonword,,,,,,,,0,52,52,115,,,,,,,,,,,,,,,,,,,,,LDT,left,0.8838018196984194,0,,,left,0,0.8838018196984194,,,,,,,,,,,,,,,,,,,,,,1042,2019_Mar_13_0950,mf_amp_cond2,3.0.4,59.98766749964676,
whereafter,&&&&&&&&&&,left,neutral,,,,,,,,0,53,53,197,,,,,,,,,,,,,,,,,,,,,LDT,right,0.5670451954065356,0,,,right,0,0.5670451954065356,,,,,,,,,,,,,,,,,,,,,,1042,2019_Mar_13_0950,mf_amp_cond2,3.0.4,59.98766749964676,
agreement,&&&&&&&&&,left,fairness.virtue,,,,,,,,0,54,54,106,,,,,,,,,,,,,,,,,,,,,LDT,right,0.9671588598866947,0,,,right,0,0.9671588598866947,,,,,,,,,,,,,,,,,,,,,,1042,2019_Mar_13_0950,mf_amp_cond2,3.0.4,59.98766749964676,
elsewhere,&&&&&&&&&,left,neutral,,,,,,,,0,55,55,69,,,,,,,,,,,,,,,,,,,,,LDT,right,0.45036849545431323,0,,,right,0,0.45036849545431323,,,,,,,,,,,,,,,,,,,,,,1042,2019_Mar_13_0950,mf_amp_cond2,3.0.4,59.98766749964676,
progress,&&&&&&&&,left,authority.virtue,,,,,,,,0,56,56,109,,,,,,,,,,,,,,,,,,,,,LDT,right,0.4170039343298413,0,,,right,0,0.4170039343298413,,,,,,,,,,,,,,,,,,,,,,1042,2019_Mar_13_0950,mf_amp_cond2,3.0.4,59.98766749964676,
eight,&&&&&,left,neutral,,,,,,,,0,57,57,167,,,,,,,,,,,,,,,,,,,,,LDT,right,0.4170549293921795,0,,,right,0,0.4170549293921795,,,,,,,,,,,,,,,,,,,,,,1042,2019_Mar_13_0950,mf_amp_cond2,3.0.4,59.98766749964676,
lachelor,&&&&&&&&,right,nonword,,,,,,,,0,58,58,135,,,,,,,,,,,,,,,,,,,,,LDT,left,0.7171079450054094,0,,,left,0,0.7171079450054094,,,,,,,,,,,,,,,,,,,,,,1042,2019_Mar_13_0950,mf_amp_cond2,3.0.4,59.98766749964676,
prones,&&&&&&,right,nonword,,,,,,,,0,59,59,23,,,,,,,,,,,,,,,,,,,,,LDT,left,0.8004553634382319,0,,,left,0,0.8004553634382319,,,,,,,,,,,,,,,,,,,,,,1042,2019_Mar_13_0950,mf_amp_cond2,3.0.4,59.98766749964676,
dignity,&&&&&&&,left,sanctity.virtue,,,,,,,,0,60,60,77,,,,,,,,,,,,,,,,,,,,,LDT,right,0.60041809536051,0,,,right,0,0.60041809536051,,,,,,,,,,,,,,,,,,,,,,1042,2019_Mar_13_0950,mf_amp_cond2,3.0.4,59.98766749964676,
also,&&&&,left,neutral,,,,,,,,0,61,61,114,,,,,,,,,,,,,,,,,,,,,LDT,right,0.4503925497410819,0,,,right,0,0.4503925497410819,,,,,,,,,,,,,,,,,,,,,,1042,2019_Mar_13_0950,mf_amp_cond2,3.0.4,59.98766749964676,
anything,&&&&&&&&,left,neutral,,,,,,,,0,62,62,143,,,,,,,,,,,,,,,,,,,,,LDT,right,0.533697953360388,0,,,right,0,0.533697953360388,,,,,,,,,,,,,,,,,,,,,,1042,2019_Mar_13_0950,mf_amp_cond2,3.0.4,59.98766749964676,
somehow,&&&&&&&,left,neutral,,,,,,,,0,63,63,184,,,,,,,,,,,,,,,,,,,,,LDT,right,0.5504127873573452,0,,,right,0,0.5504127873573452,,,,,,,,,,,,,,,,,,,,,,1042,2019_Mar_13_0950,mf_amp_cond2,3.0.4,59.98766749964676,
accused,&&&&&&&,left,fairness.vice,,,,,,,,0,64,64,7,,,,,,,,,,,,,,,,,,,,,LDT,right,0.6837735318986233,0,,,right,0,0.6837735318986233,,,,,,,,,,,,,,,,,,,,,,1042,2019_Mar_13_0950,mf_amp_cond2,3.0.4,59.98766749964676,
whither,&&&&&&&,left,neutral,,,,,,,,0,65,65,95,,,,,,,,,,,,,,,,,,,,,LDT,right,0.6170938010618556,0,,,right,0,0.6170938010618556,,,,,,,,,,,,,,,,,,,,,,1042,2019_Mar_13_0950,mf_amp_cond2,3.0.4,59.98766749964676,
sliptery,&&&&&&&&,right,nonword,,,,,,,,0,66,66,22,,,,,,,,,,,,,,,,,,,,,LDT,left,0.8504686895175837,0,,,left,0,0.8504686895175837,,,,,,,,,,,,,,,,,,,,,,1042,2019_Mar_13_0950,mf_amp_cond2,3.0.4,59.98766749964676,
front,&&&&&,left,neutral,,,,,,,,0,67,67,162,,,,,,,,,,,,,,,,,,,,,LDT,right,0.8004293848352972,0,,,right,0,0.8004293848352972,,,,,,,,,,,,,,,,,,,,,,1042,2019_Mar_13_0950,mf_amp_cond2,3.0.4,59.98766749964676,
chreams,&&&&&&&,right,nonword,,,,,,,,0,68,68,168,,,,,,,,,,,,,,,,,,,,,LDT,left,0.7004299942054786,0,,,left,0,0.7004299942054786,,,,,,,,,,,,,,,,,,,,,,1042,2019_Mar_13_0950,mf_amp_cond2,3.0.4,59.98766749964676,
black,&&&&&,left,loyalty.vice,,,,,,,,0,69,69,141,,,,,,,,,,,,,,,,,,,,,LDT,right,0.6170745576673653,0,,,right,0,0.6170745576673653,,,,,,,,,,,,,,,,,,,,,,1042,2019_Mar_13_0950,mf_amp_cond2,3.0.4,59.98766749964676,
hatigue,&&&&&&&,right,nonword,,,,,,,,0,70,70,116,,,,,,,,,,,,,,,,,,,,,LDT,left,1.550614843290532,0,,,left,0,1.550614843290532,,,,,,,,,,,,,,,,,,,,,,1042,2019_Mar_13_0950,mf_amp_cond2,3.0.4,59.98766749964676,
disregord,&&&&&&&&&,right,nonword,,,,,,,,0,71,71,46,,,,,,,,,,,,,,,,,,,,,LDT,right,0.5337313086201902,1,,,right,1,0.5337313086201902,,,,,,,,,,,,,,,,,,,,,,1042,2019_Mar_13_0950,mf_amp_cond2,3.0.4,59.98766749964676,
halaise,&&&&&&&,None,nonword,,,,,,,,0,72,72,140,,,,,,,,,,,,,,,,,,,,,LDT,left,0.7172003134037368,0,,,left,0,0.7172003134037368,,,,,,,,,,,,,,,,,,,,,,1042,2019_Mar_13_0950,mf_amp_cond2,3.0.4,59.98766749964676,
gillipede,&&&&&&&&&,None,nonword,,,,,,,,0,73,73,139,,,,,,,,,,,,,,,,,,,,,LDT,left,0.6504115365678445,0,,,left,0,0.6504115365678445,,,,,,,,,,,,,,,,,,,,,,1042,2019_Mar_13_0950,mf_amp_cond2,3.0.4,59.98766749964676,
anyhow,&&&&&&,left,neutral,,,,,,,,0,74,74,157,,,,,,,,,,,,,,,,,,,,,LDT,right,0.4003423404355999,0,,,right,0,0.4003423404355999,,,,,,,,,,,,,,,,,,,,,,1042,2019_Mar_13_0950,mf_amp_cond2,3.0.4,59.98766749964676,
seem,&&&&,left,neutral,,,,,,,,0,75,75,85,,,,,,,,,,,,,,,,,,,,,LDT,right,0.4503624016942922,0,,,right,0,0.4503624016942922,,,,,,,,,,,,,,,,,,,,,,1042,2019_Mar_13_0950,mf_amp_cond2,3.0.4,59.98766749964676,
each,&&&&,left,neutral,,,,,,,,0,76,76,94,,,,,,,,,,,,,,,,,,,,,LDT,right,0.5003625780809671,0,,,right,0,0.5003625780809671,,,,,,,,,,,,,,,,,,,,,,1042,2019_Mar_13_0950,mf_amp_cond2,3.0.4,59.98766749964676,
illegal,&&&&&&&,left,fairness.vice,,,,,,,,0,77,77,98,,,,,,,,,,,,,,,,,,,,,LDT,right,0.8671447159722447,0,,,right,0,0.8671447159722447,,,,,,,,,,,,,,,,,,,,,,1042,2019_Mar_13_0950,mf_amp_cond2,3.0.4,59.98766749964676,
couldnt,&&&&&&&,left,neutral,,,,,,,,0,78,78,34,,,,,,,,,,,,,,,,,,,,,LDT,right,0.6170841793937143,0,,,right,0,0.6170841793937143,,,,,,,,,,,,,,,,,,,,,,1042,2019_Mar_13_0950,mf_amp_cond2,3.0.4,59.98766749964676,
good,&&&&,left,care.virtue,,,,,,,,0,79,79,57,,,,,,,,,,,,,,,,,,,,,LDT,right,0.367006002983544,0,,,right,0,0.367006002983544,,,,,,,,,,,,,,,,,,,,,,1042,2019_Mar_13_0950,mf_amp_cond2,3.0.4,59.98766749964676,
hescribe,&&&&&&&&,right,nonword,,,,,,,,0,80,80,74,,,,,,,,,,,,,,,,,,,,,LDT,left,0.6171181760728359,0,,,left,0,0.6171181760728359,,,,,,,,,,,,,,,,,,,,,,1042,2019_Mar_13_0950,mf_amp_cond2,3.0.4,59.98766749964676,
precificity,&&&&&&&&&&&,right,nonword,,,,,,,,0,81,81,49,,,,,,,,,,,,,,,,,,,,,LDT,right,0.5670532135118265,1,,,right,1,0.5670532135118265,,,,,,,,,,,,,,,,,,,,,,1042,2019_Mar_13_0950,mf_amp_cond2,3.0.4,59.98766749964676,
thru,&&&&,left,neutral,,,,,,,,0,82,82,20,,,,,,,,,,,,,,,,,,,,,LDT,left,1.3339172642154153,1,,,left,1,1.3339172642154153,,,,,,,,,,,,,,,,,,,,,,1042,2019_Mar_13_0950,mf_amp_cond2,3.0.4,59.98766749964676,
pulge,&&&&&,right,nonword,,,,,,,,0,83,83,72,,,,,,,,,,,,,,,,,,,,,LDT,left,0.617091556021478,0,,,left,0,0.617091556021478,,,,,,,,,,,,,,,,,,,,,,1042,2019_Mar_13_0950,mf_amp_cond2,3.0.4,59.98766749964676,
galamitous,&&&&&&&&&&,right,nonword,,,,,,,,0,84,84,174,,,,,,,,,,,,,,,,,,,,,LDT,left,0.6170732747705188,0,,,left,0,0.6170732747705188,,,,,,,,,,,,,,,,,,,,,,1042,2019_Mar_13_0950,mf_amp_cond2,3.0.4,59.98766749964676,
nomparisons,&&&&&&&&&&&,right,nonword,,,,,,,,0,85,85,147,,,,,,,,,,,,,,,,,,,,,LDT,right,2.634264383406844,1,,,right,1,2.634264383406844,,,,,,,,,,,,,,,,,,,,,,1042,2019_Mar_13_0950,mf_amp_cond2,3.0.4,59.98766749964676,
framo,&&&&&,right,nonword,,,,,,,,0,86,86,154,,,,,,,,,,,,,,,,,,,,,LDT,left,0.53377204053686,0,,,left,0,0.53377204053686,,,,,,,,,,,,,,,,,,,,,,1042,2019_Mar_13_0950,mf_amp_cond2,3.0.4,59.98766749964676,
Cunday,&&&&&&,None,nonword,,,,,,,,0,87,87,113,,,,,,,,,,,,,,,,,,,,,LDT,left,0.5170562443381641,0,,,left,0,0.5170562443381641,,,,,,,,,,,,,,,,,,,,,,1042,2019_Mar_13_0950,mf_amp_cond2,3.0.4,59.98766749964676,
gondensed,&&&&&&&&&,right,nonword,,,,,,,,0,88,88,50,,,,,,,,,,,,,,,,,,,,,LDT,left,0.7170816456782632,0,,,left,0,0.7170816456782632,,,,,,,,,,,,,,,,,,,,,,1042,2019_Mar_13_0950,mf_amp_cond2,3.0.4,59.98766749964676,
torture,&&&&&&&,left,care.vice,,,,,,,,0,89,89,180,,,,,,,,,,,,,,,,,,,,,LDT,right,0.4169895017403178,0,,,right,0,0.4169895017403178,,,,,,,,,,,,,,,,,,,,,,1042,2019_Mar_13_0950,mf_amp_cond2,3.0.4,59.98766749964676,
atson,&&&&&,right,nonword,,,,,,,,0,90,90,32,,,,,,,,,,,,,,,,,,,,,LDT,left,0.4836977769737132,0,,,left,0,0.4836977769737132,,,,,,,,,,,,,,,,,,,,,,1042,2019_Mar_13_0950,mf_amp_cond2,3.0.4,59.98766749964676,
allears,&&&&&&&,right,nonword,,,,,,,,0,91,91,25,,,,,,,,,,,,,,,,,,,,,LDT,left,0.5837414274574257,0,,,left,0,0.5837414274574257,,,,,,,,,,,,,,,,,,,,,,1042,2019_Mar_13_0950,mf_amp_cond2,3.0.4,59.98766749964676,
killed,&&&&&&,left,care.vice,,,,,,,,0,92,92,194,,,,,,,,,,,,,,,,,,,,,LDT,right,0.483696173352655,0,,,right,0,0.483696173352655,,,,,,,,,,,,,,,,,,,,,,1042,2019_Mar_13_0950,mf_amp_cond2,3.0.4,59.98766749964676,
counpy's,&&&&&&&&,right,nonword,,,,,,,,0,93,93,175,,,,,,,,,,,,,,,,,,,,,LDT,left,0.5504044485569466,0,,,left,0,0.5504044485569466,,,,,,,,,,,,,,,,,,,,,,1042,2019_Mar_13_0950,mf_amp_cond2,3.0.4,59.98766749964676,
fifty,&&&&&,left,neutral,,,,,,,,0,94,94,14,,,,,,,,,,,,,,,,,,,,,LDT,right,0.5170594515802804,0,,,right,0,0.5170594515802804,,,,,,,,,,,,,,,,,,,,,,1042,2019_Mar_13_0950,mf_amp_cond2,3.0.4,59.98766749964676,
army,&&&&,left,loyalty.vice,,,,,,,,0,95,95,192,,,,,,,,,,,,,,,,,,,,,LDT,right,0.45037074052379467,0,,,right,0,0.45037074052379467,,,,,,,,,,,,,,,,,,,,,,1042,2019_Mar_13_0950,mf_amp_cond2,3.0.4,59.98766749964676,
there,&&&&&,left,neutral,,,,,,,,0,96,96,93,,,,,,,,,,,,,,,,,,,,,LDT,right,0.4336972798628267,0,,,right,0,0.4336972798628267,,,,,,,,,,,,,,,,,,,,,,1042,2019_Mar_13_0950,mf_amp_cond2,3.0.4,59.98766749964676,
energy,&&&&&&,left,sanctity.virtue,,,,,,,,0,97,97,111,,,,,,,,,,,,,,,,,,,,,LDT,right,0.4503463655128144,0,,,right,0,0.4503463655128144,,,,,,,,,,,,,,,,,,,,,,1042,2019_Mar_13_0950,mf_amp_cond2,3.0.4,59.98766749964676,
Boeinf,&&&&&&,right,nonword,,,,,,,,0,98,98,169,,,,,,,,,,,,,,,,,,,,,LDT,left,0.5170658660354093,0,,,left,0,0.5170658660354093,,,,,,,,,,,,,,,,,,,,,,1042,2019_Mar_13_0950,mf_amp_cond2,3.0.4,59.98766749964676,
gaultless,&&&&&&&&&,right,nonword,,,,,,,,0,99,99,11,,,,,,,,,,,,,,,,,,,,,LDT,right,1.1838952465332113,1,,,right,1,1.1838952465332113,,,,,,,,,,,,,,,,,,,,,,1042,2019_Mar_13_0950,mf_amp_cond2,3.0.4,59.98766749964676,
fangsters,&&&&&&&&&,right,nonword,,,,,,,,0,100,100,33,,,,,,,,,,,,,,,,,,,,,LDT,left,0.5837237876548897,0,,,left,0,0.5837237876548897,,,,,,,,,,,,,,,,,,,,,,1042,2019_Mar_13_0950,mf_amp_cond2,3.0.4,59.98766749964676,
benefit,&&&&&&&,left,fairness.virtue,,,,,,,,0,101,101,35,,,,,,,,,,,,,,,,,,,,,LDT,left,0.6504115365387406,1,,,left,1,0.6504115365387406,,,,,,,,,,,,,,,,,,,,,,1042,2019_Mar_13_0950,mf_amp_cond2,3.0.4,59.98766749964676,
amount,&&&&&&,left,neutral,,,,,,,,0,102,102,87,,,,,,,,,,,,,,,,,,,,,LDT,right,0.4836929661105387,0,,,right,0,0.4836929661105387,,,,,,,,,,,,,,,,,,,,,,1042,2019_Mar_13_0950,mf_amp_cond2,3.0.4,59.98766749964676,
abointment,&&&&&&&&&&,right,nonword,,,,,,,,0,103,103,90,,,,,,,,,,,,,,,,,,,,,LDT,right,0.5837330886279233,1,,,right,1,0.5837330886279233,,,,,,,,,,,,,,,,,,,,,,1042,2019_Mar_13_0950,mf_amp_cond2,3.0.4,59.98766749964676,
hasks,&&&&&,right,nonword,,,,,,,,0,104,104,45,,,,,,,,,,,,,,,,,,,,,LDT,left,0.5503896952723153,0,,,left,0,0.5503896952723153,,,,,,,,,,,,,,,,,,,,,,1042,2019_Mar_13_0950,mf_amp_cond2,3.0.4,59.98766749964676,
chonograph,&&&&&&&&&&,right,nonword,,,,,,,,0,105,105,120,,,,,,,,,,,,,,,,,,,,,LDT,left,1.0004836512671318,0,,,left,0,1.0004836512671318,,,,,,,,,,,,,,,,,,,,,,1042,2019_Mar_13_0950,mf_amp_cond2,3.0.4,59.98766749964676,
nonobservalt,&&&&&&&&&&&&,right,nonword,,,,,,,,0,106,106,62,,,,,,,,,,,,,,,,,,,,,LDT,left,0.7504513383610174,0,,,left,0,0.7504513383610174,,,,,,,,,,,,,,,,,,,,,,1042,2019_Mar_13_0950,mf_amp_cond2,3.0.4,59.98766749964676,
suggists,&&&&&&&&,right,nonword,,,,,,,,0,107,107,100,,,,,,,,,,,,,,,,,,,,,LDT,left,0.7004351257928647,0,,,left,0,0.7004351257928647,,,,,,,,,,,,,,,,,,,,,,1042,2019_Mar_13_0950,mf_amp_cond2,3.0.4,59.98766749964676,
could,&&&&&,left,neutral,,,,,,,,0,108,108,4,,,,,,,,,,,,,,,,,,,,,LDT,left,0.46702976859523915,1,,,left,1,0.46702976859523915,,,,,,,,,,,,,,,,,,,,,,1042,2019_Mar_13_0950,mf_amp_cond2,3.0.4,59.98766749964676,
bruthfulness,&&&&&&&&&&&&,right,nonword,,,,,,,,0,109,109,42,,,,,,,,,,,,,,,,,,,,,LDT,left,0.6337406416714657,0,,,left,0,0.6337406416714657,,,,,,,,,,,,,,,,,,,,,,1042,2019_Mar_13_0950,mf_amp_cond2,3.0.4,59.98766749964676,
egpeditious,&&&&&&&&&&&,right,nonword,,,,,,,,0,110,110,134,,,,,,,,,,,,,,,,,,,,,LDT,left,0.4837115680857096,0,,,left,0,0.4837115680857096,,,,,,,,,,,,,,,,,,,,,,1042,2019_Mar_13_0950,mf_amp_cond2,3.0.4,59.98766749964676,
pistraught,&&&&&&&&&&,right,nonword,,,,,,,,0,111,111,153,,,,,,,,,,,,,,,,,,,,,LDT,left,0.8503198737162165,0,,,left,0,0.8503198737162165,,,,,,,,,,,,,,,,,,,,,,1042,2019_Mar_13_0950,mf_amp_cond2,3.0.4,59.98766749964676,
less,&&&&,left,neutral,,,,,,,,0,112,112,21,,,,,,,,,,,,,,,,,,,,,LDT,right,0.8004511940234806,0,,,right,0,0.8004511940234806,,,,,,,,,,,,,,,,,,,,,,1042,2019_Mar_13_0950,mf_amp_cond2,3.0.4,59.98766749964676,
mih,&&&,right,nonword,,,,,,,,0,113,113,59,,,,,,,,,,,,,,,,,,,,,LDT,left,1.0171750724548474,0,,,left,0,1.0171750724548474,,,,,,,,,,,,,,,,,,,,,,1042,2019_Mar_13_0950,mf_amp_cond2,3.0.4,59.98766749964676,
greaks,&&&&&&,right,nonword,,,,,,,,0,114,114,119,,,,,,,,,,,,,,,,,,,,,LDT,left,0.7004133165755775,0,,,left,0,0.7004133165755775,,,,,,,,,,,,,,,,,,,,,,1042,2019_Mar_13_0950,mf_amp_cond2,3.0.4,59.98766749964676,
betrayal,&&&&&&&&,left,loyalty.vice,,,,,,,,0,115,115,122,,,,,,,,,,,,,,,,,,,,,LDT,right,0.6170784063288011,0,,,right,0,0.6170784063288011,,,,,,,,,,,,,,,,,,,,,,1042,2019_Mar_13_0950,mf_amp_cond2,3.0.4,59.98766749964676,
intelligence,&&&&&&&&&&&&,left,loyalty.virtue,,,,,,,,0,116,116,0,,,,,,,,,,,,,,,,,,,,,LDT,right,0.6003103322000243,0,,,right,0,0.6003103322000243,,,,,,,,,,,,,,,,,,,,,,1042,2019_Mar_13_0950,mf_amp_cond2,3.0.4,59.98766749964676,
become,&&&&&&,left,neutral,,,,,,,,0,117,117,76,,,,,,,,,,,,,,,,,,,,,LDT,right,0.9671716888260562,0,,,right,0,0.9671716888260562,,,,,,,,,,,,,,,,,,,,,,1042,2019_Mar_13_0950,mf_amp_cond2,3.0.4,59.98766749964676,
support,&&&&&&&,left,loyalty.virtue,,,,,,,,0,118,118,10,,,,,,,,,,,,,,,,,,,,,LDT,right,0.383671445568325,0,,,right,0,0.383671445568325,,,,,,,,,,,,,,,,,,,,,,1042,2019_Mar_13_0950,mf_amp_cond2,3.0.4,59.98766749964676,
everything,&&&&&&&&&&,left,neutral,,,,,,,,0,119,119,137,,,,,,,,,,,,,,,,,,,,,LDT,right,0.3836993485165294,0,,,right,0,0.3836993485165294,,,,,,,,,,,,,,,,,,,,,,1042,2019_Mar_13_0950,mf_amp_cond2,3.0.4,59.98766749964676,
elduringly,&&&&&&&&&&,right,nonword,,,,,,,,0,120,120,138,,,,,,,,,,,,,,,,,,,,,LDT,right,0.6004065492888913,1,,,right,1,0.6004065492888913,,,,,,,,,,,,,,,,,,,,,,1042,2019_Mar_13_0950,mf_amp_cond2,3.0.4,59.98766749964676,
harassment,&&&&&&&&&&,left,sanctity.vice,,,,,,,,0,121,121,133,,,,,,,,,,,,,,,,,,,,,LDT,right,0.45036881614942104,0,,,right,0,0.45036881614942104,,,,,,,,,,,,,,,,,,,,,,1042,2019_Mar_13_0950,mf_amp_cond2,3.0.4,59.98766749964676,
ebbitter,&&&&&&&&,right,nonword,,,,,,,,0,122,122,142,,,,,,,,,,,,,,,,,,,,,LDT,left,0.6004383009567391,0,,,left,0,0.6004383009567391,,,,,,,,,,,,,,,,,,,,,,1042,2019_Mar_13_0950,mf_amp_cond2,3.0.4,59.98766749964676,
useful,&&&&&&,left,authority.virtue,,,,,,,,0,123,123,13,,,,,,,,,,,,,,,,,,,,,LDT,right,0.600394361797953,0,,,right,0,0.600394361797953,,,,,,,,,,,,,,,,,,,,,,1042,2019_Mar_13_0950,mf_amp_cond2,3.0.4,59.98766749964676,
esquisiteness,&&&&&&&&&&&&&,right,nonword,,,,,,,,0,124,124,83,,,,,,,,,,,,,,,,,,,,,LDT,left,1.067213414964499,0,,,left,0,1.067213414964499,,,,,,,,,,,,,,,,,,,,,,1042,2019_Mar_13_0950,mf_amp_cond2,3.0.4,59.98766749964676,
ablow,&&&&&,right,nonword,,,,,,,,0,125,125,63,,,,,,,,,,,,,,,,,,,,,LDT,left,0.7671013862127438,0,,,left,0,0.7671013862127438,,,,,,,,,,,,,,,,,,,,,,1042,2019_Mar_13_0950,mf_amp_cond2,3.0.4,59.98766749964676,
tenuflect,&&&&&&&&&,right,nonword,,,,,,,,0,126,126,198,,,,,,,,,,,,,,,,,,,,,LDT,left,0.5670487233728636,0,,,left,0,0.5670487233728636,,,,,,,,,,,,,,,,,,,,,,1042,2019_Mar_13_0950,mf_amp_cond2,3.0.4,59.98766749964676,
amoungst,&&&&&&&&,left,neutral,,,,,,,,0,127,127,132,,,,,,,,,,,,,,,,,,,,,LDT,right,0.5503900159965269,0,,,right,0,0.5503900159965269,,,,,,,,,,,,,,,,,,,,,,1042,2019_Mar_13_0950,mf_amp_cond2,3.0.4,59.98766749964676,
cromiscuity,&&&&&&&&&&&,right,nonword,,,,,,,,0,128,128,185,,,,,,,,,,,,,,,,,,,,,LDT,left,0.6671058442734648,0,,,left,0,0.6671058442734648,,,,,,,,,,,,,,,,,,,,,,1042,2019_Mar_13_0950,mf_amp_cond2,3.0.4,59.98766749964676,
free,&&&&,left,fairness.virtue,,,,,,,,0,129,129,9,,,,,,,,,,,,,,,,,,,,,LDT,right,0.48369841842213646,0,,,right,0,0.48369841842213646,,,,,,,,,,,,,,,,,,,,,,1042,2019_Mar_13_0950,mf_amp_cond2,3.0.4,59.98766749964676,
ittutable,&&&&&&&&&,right,nonword,,,,,,,,0,130,130,118,,,,,,,,,,,,,,,,,,,,,LDT,left,0.6504073671530932,0,,,left,0,0.6504073671530932,,,,,,,,,,,,,,,,,,,,,,1042,2019_Mar_13_0950,mf_amp_cond2,3.0.4,59.98766749964676,
juck,&&&&,right,nonword,,,,,,,,0,131,131,131,,,,,,,,,,,,,,,,,,,,,LDT,right,1.0339235824649222,1,,,right,1,1.0339235824649222,,,,,,,,,,,,,,,,,,,,,,1042,2019_Mar_13_0950,mf_amp_cond2,3.0.4,59.98766749964676,
gournful,&&&&&&&&,right,nonword,,,,,,,,0,132,132,186,,,,,,,,,,,,,,,,,,,,,LDT,left,1.3839142333599739,0,,,left,0,1.3839142333599739,,,,,,,,,,,,,,,,,,,,,,1042,2019_Mar_13_0950,mf_amp_cond2,3.0.4,59.98766749964676,
touls,&&&&&,right,nonword,,,,,,,,0,133,133,31,,,,,,,,,,,,,,,,,,,,,LDT,right,0.5837488040851895,1,,,right,1,0.5837488040851895,,,,,,,,,,,,,,,,,,,,,,1042,2019_Mar_13_0950,mf_amp_cond2,3.0.4,59.98766749964676,
been,&&&&,left,neutral,,,,,,,,0,134,134,179,,,,,,,,,,,,,,,,,,,,,LDT,right,0.767125119746197,0,,,right,0,0.767125119746197,,,,,,,,,,,,,,,,,,,,,,1042,2019_Mar_13_0950,mf_amp_cond2,3.0.4,59.98766749964676,
therefore,&&&&&&&&&,left,neutral,,,,,,,,0,135,135,150,,,,,,,,,,,,,,,,,,,,,LDT,right,0.7838149373128545,0,,,right,0,0.7838149373128545,,,,,,,,,,,,,,,,,,,,,,1042,2019_Mar_13_0950,mf_amp_cond2,3.0.4,59.98766749964676,
prosecution,&&&&&&&&&&&,left,authority.vice,,,,,,,,0,136,136,183,,,,,,,,,,,,,,,,,,,,,LDT,right,0.5837366165942512,0,,,right,0,0.5837366165942512,,,,,,,,,,,,,,,,,,,,,,1042,2019_Mar_13_0950,mf_amp_cond2,3.0.4,59.98766749964676,
interests,&&&&&&&&&,left,fairness.virtue,,,,,,,,0,137,137,127,,,,,,,,,,,,,,,,,,,,,LDT,right,0.45037683425471187,0,,,right,0,0.45037683425471187,,,,,,,,,,,,,,,,,,,,,,1042,2019_Mar_13_0950,mf_amp_cond2,3.0.4,59.98766749964676,
celebrated,&&&&&&&&&&,left,authority.virtue,,,,,,,,0,138,138,102,,,,,,,,,,,,,,,,,,,,,LDT,right,0.5503778285055887,0,,,right,0,0.5503778285055887,,,,,,,,,,,,,,,,,,,,,,1042,2019_Mar_13_0950,mf_amp_cond2,3.0.4,59.98766749964676,
were,&&&&,left,neutral,,,,,,,,0,139,139,55,,,,,,,,,,,,,,,,,,,,,LDT,right,0.5003734827041626,0,,,right,0,0.5003734827041626,,,,,,,,,,,,,,,,,,,,,,1042,2019_Mar_13_0950,mf_amp_cond2,3.0.4,59.98766749964676,
ban,&&&,left,loyalty.vice,,,,,,,,0,140,140,44,,,,,,,,,,,,,,,,,,,,,LDT,right,0.5003680303925648,0,,,right,0,0.5003680303925648,,,,,,,,,,,,,,,,,,,,,,1042,2019_Mar_13_0950,mf_amp_cond2,3.0.4,59.98766749964676,
shoirmaster,&&&&&&&&&&&,right,nonword,,,,,,,,0,141,141,125,,,,,,,,,,,,,,,,,,,,,LDT,left,0.7670908023137599,0,,,left,0,0.7670908023137599,,,,,,,,,,,,,,,,,,,,,,1042,2019_Mar_13_0950,mf_amp_cond2,3.0.4,59.98766749964676,
scandal,&&&&&&&,left,sanctity.vice,,,,,,,,0,142,142,66,,,,,,,,,,,,,,,,,,,,,LDT,right,0.5337149517145008,0,,,right,0,0.5337149517145008,,,,,,,,,,,,,,,,,,,,,,1042,2019_Mar_13_0950,mf_amp_cond2,3.0.4,59.98766749964676,
bluently,&&&&&&&&,None,nonword,,,,,,,,0,143,143,126,,,,,,,,,,,,,,,,,,,,,LDT,left,0.8838111207296606,0,,,left,0,0.8838111207296606,,,,,,,,,,,,,,,,,,,,,,1042,2019_Mar_13_0950,mf_amp_cond2,3.0.4,59.98766749964676,
abuse,&&&&&,left,sanctity.vice,,,,,,,,0,144,144,27,,,,,,,,,,,,,,,,,,,,,LDT,right,0.5503983548260294,0,,,right,0,0.5503983548260294,,,,,,,,,,,,,,,,,,,,,,1042,2019_Mar_13_0950,mf_amp_cond2,3.0.4,59.98766749964676,
shoirmaster,&&&&&&&&&&&,None,nonword,,,,,,,,0,145,145,166,,,,,,,,,,,,,,,,,,,,,LDT,left,0.6836064348754007,0,,,left,0,0.6836064348754007,,,,,,,,,,,,,,,,,,,,,,1042,2019_Mar_13_0950,mf_amp_cond2,3.0.4,59.98766749964676,
dumid,&&&&&,right,nonword,,,,,,,,0,146,146,99,,,,,,,,,,,,,,,,,,,,,LDT,left,0.8838832835026551,0,,,left,0,0.8838832835026551,,,,,,,,,,,,,,,,,,,,,,1042,2019_Mar_13_0950,mf_amp_cond2,3.0.4,59.98766749964676,
openet,&&&&&&,None,nonword,,,,,,,,0,147,147,165,,,,,,,,,,,,,,,,,,,,,LDT,left,1.0503779888676945,0,,,left,0,1.0503779888676945,,,,,,,,,,,,,,,,,,,,,,1042,2019_Mar_13_0950,mf_amp_cond2,3.0.4,59.98766749964676,
victims,&&&&&&&,left,care.vice,,,,,,,,0,148,148,191,,,,,,,,,,,,,,,,,,,,,LDT,right,0.500387273816159,0,,,right,0,0.500387273816159,,,,,,,,,,,,,,,,,,,,,,1042,2019_Mar_13_0950,mf_amp_cond2,3.0.4,59.98766749964676,
crime,&&&&&,left,fairness.vice,,,,,,,,0,149,149,121,,,,,,,,,,,,,,,,,,,,,LDT,right,0.6504144230566453,0,,,right,0,0.6504144230566453,,,,,,,,,,,,,,,,,,,,,,1042,2019_Mar_13_0950,mf_amp_cond2,3.0.4,59.98766749964676,
synchronazers,&&&&&&&&&&&&&,right,nonword,,,,,,,,0,150,150,124,,,,,,,,,,,,,,,,,,,,,LDT,left,0.7337682560028043,0,,,left,0,0.7337682560028043,,,,,,,,,,,,,,,,,,,,,,1042,2019_Mar_13_0950,mf_amp_cond2,3.0.4,59.98766749964676,
letish,&&&&&&,right,nonword,,,,,,,,0,151,151,149,,,,,,,,,,,,,,,,,,,,,LDT,left,0.6335902222781442,0,,,left,0,0.6335902222781442,,,,,,,,,,,,,,,,,,,,,,1042,2019_Mar_13_0950,mf_amp_cond2,3.0.4,59.98766749964676,
serial,&&&&&&,left,sanctity.vice,,,,,,,,0,152,152,30,,,,,,,,,,,,,,,,,,,,,LDT,right,0.600415529566817,0,,,right,0,0.600415529566817,,,,,,,,,,,,,,,,,,,,,,1042,2019_Mar_13_0950,mf_amp_cond2,3.0.4,59.98766749964676,
reprisols,&&&&&&&&&,right,nonword,,,,,,,,0,153,153,71,,,,,,,,,,,,,,,,,,,,,LDT,left,0.6170639737974852,0,,,left,0,0.6170639737974852,,,,,,,,,,,,,,,,,,,,,,1042,2019_Mar_13_0950,mf_amp_cond2,3.0.4,59.98766749964676,
hereby,&&&&&&,left,neutral,,,,,,,,0,154,154,176,,,,,,,,,,,,,,,,,,,,,LDT,right,0.6504327043076046,0,,,right,0,0.6504327043076046,,,,,,,,,,,,,,,,,,,,,,1042,2019_Mar_13_0950,mf_amp_cond2,3.0.4,59.98766749964676,
rivernoat,&&&&&&&&&,right,nonword,,,,,,,,0,155,155,103,,,,,,,,,,,,,,,,,,,,,LDT,left,0.5003792557108682,0,,,left,0,0.5003792557108682,,,,,,,,,,,,,,,,,,,,,,1042,2019_Mar_13_0950,mf_amp_cond2,3.0.4,59.98766749964676,
gedious,&&&&&&&,right,nonword,,,,,,,,0,156,156,65,,,,,,,,,,,,,,,,,,,,,LDT,left,0.5670682875206694,0,,,left,0,0.5670682875206694,,,,,,,,,,,,,,,,,,,,,,1042,2019_Mar_13_0950,mf_amp_cond2,3.0.4,59.98766749964676,
godlaness,&&&&&&&&&,right,nonword,,,,,,,,0,157,157,152,,,,,,,,,,,,,,,,,,,,,LDT,left,0.5003750862961169,0,,,left,0,0.5003750862961169,,,,,,,,,,,,,,,,,,,,,,1042,2019_Mar_13_0950,mf_amp_cond2,3.0.4,59.98766749964676,
itself,&&&&&&,left,neutral,,,,,,,,0,158,158,158,,,,,,,,,,,,,,,,,,,,,LDT,right,0.48371926543768495,0,,,right,0,0.48371926543768495,,,,,,,,,,,,,,,,,,,,,,1042,2019_Mar_13_0950,mf_amp_cond2,3.0.4,59.98766749964676,
promote,&&&&&&&,left,sanctity.virtue,,,,,,,,0,159,159,104,,,,,,,,,,,,,,,,,,,,,LDT,right,0.8504654822754674,0,,,right,0,0.8504654822754674,,,,,,,,,,,,,,,,,,,,,,1042,2019_Mar_13_0950,mf_amp_cond2,3.0.4,59.98766749964676,
framatic,&&&&&&&&,right,nonword,,,,,,,,0,160,160,8,,,,,,,,,,,,,,,,,,,,,LDT,left,1.0171692994481418,0,,,left,0,1.0171692994481418,,,,,,,,,,,,,,,,,,,,,,1042,2019_Mar_13_0950,mf_amp_cond2,3.0.4,59.98766749964676,
gusinesslike,&&&&&&&&&&&&,right,nonword,,,,,,,,0,161,161,88,,,,,,,,,,,,,,,,,,,,,LDT,left,0.8671360564185306,0,,,left,0,0.8671360564185306,,,,,,,,,,,,,,,,,,,,,,1042,2019_Mar_13_0950,mf_amp_cond2,3.0.4,59.98766749964676,
seachwear,&&&&&&&&&,right,nonword,,,,,,,,0,162,162,78,,,,,,,,,,,,,,,,,,,,,LDT,left,1.8007090558530763,0,,,left,0,1.8007090558530763,,,,,,,,,,,,,,,,,,,,,,1042,2019_Mar_13_0950,mf_amp_cond2,3.0.4,59.98766749964676,
drumbled,&&&&&&&&,right,nonword,,,,,,,,0,163,163,40,,,,,,,,,,,,,,,,,,,,,LDT,left,0.7004373708332423,0,,,left,0,0.7004373708332423,,,,,,,,,,,,,,,,,,,,,,1042,2019_Mar_13_0950,mf_amp_cond2,3.0.4,59.98766749964676,
leact,&&&&&,right,nonword,,,,,,,,0,164,164,128,,,,,,,,,,,,,,,,,,,,,LDT,left,0.6337454525346402,0,,,left,0,0.6337454525346402,,,,,,,,,,,,,,,,,,,,,,1042,2019_Mar_13_0950,mf_amp_cond2,3.0.4,59.98766749964676,
latter,&&&&&&,left,neutral,,,,,,,,0,165,165,196,,,,,,,,,,,,,,,,,,,,,LDT,right,0.7170928709674627,0,,,right,0,0.7170928709674627,,,,,,,,,,,,,,,,,,,,,,1042,2019_Mar_13_0950,mf_amp_cond2,3.0.4,59.98766749964676,
hope,&&&&,left,loyalty.virtue,,,,,,,,0,166,166,5,,,,,,,,,,,,,,,,,,,,,LDT,right,0.583730522863334,0,,,right,0,0.583730522863334,,,,,,,,,,,,,,,,,,,,,,1042,2019_Mar_13_0950,mf_amp_cond2,3.0.4,59.98766749964676,
gun,&&&,left,authority.vice,,,,,,,,0,167,167,110,,,,,,,,,,,,,,,,,,,,,LDT,right,0.4503710612480063,0,,,right,0,0.4503710612480063,,,,,,,,,,,,,,,,,,,,,,1042,2019_Mar_13_0950,mf_amp_cond2,3.0.4,59.98766749964676,
hefurbished,&&&&&&&&&&&,right,nonword,,,,,,,,0,168,168,156,,,,,,,,,,,,,,,,,,,,,LDT,left,0.6171027813397814,0,,,left,0,0.6171027813397814,,,,,,,,,,,,,,,,,,,,,,1042,2019_Mar_13_0950,mf_amp_cond2,3.0.4,59.98766749964676,
about,&&&&&,left,neutral,,,,,,,,0,169,169,6,,,,,,,,,,,,,,,,,,,,,LDT,right,0.8504651615803596,0,,,right,0,0.8504651615803596,,,,,,,,,,,,,,,,,,,,,,1042,2019_Mar_13_0950,mf_amp_cond2,3.0.4,59.98766749964676,
honstables,&&&&&&&&&&,right,nonword,,,,,,,,0,170,170,18,,,,,,,,,,,,,,,,,,,,,LDT,left,0.8504696516902186,0,,,left,0,0.8504696516902186,,,,,,,,,,,,,,,,,,,,,,1042,2019_Mar_13_0950,mf_amp_cond2,3.0.4,59.98766749964676,
Oregoniuns,&&&&&&&&&&,right,nonword,,,,,,,,0,171,171,145,,,,,,,,,,,,,,,,,,,,,LDT,left,0.5170565650623757,0,,,left,0,0.5170565650623757,,,,,,,,,,,,,,,,,,,,,,1042,2019_Mar_13_0950,mf_amp_cond2,3.0.4,59.98766749964676,
viscs,&&&&&,None,nonword,,,,,,,,0,172,172,2,,,,,,,,,,,,,,,,,,,,,LDT,left,0.4837144546036143,0,,,left,0,0.4837144546036143,,,,,,,,,,,,,,,,,,,,,,1042,2019_Mar_13_0950,mf_amp_cond2,3.0.4,59.98766749964676,
least,&&&&&,left,neutral,,,,,,,,0,173,173,97,,,,,,,,,,,,,,,,,,,,,LDT,right,0.46709263045340776,0,,,right,0,0.46709263045340776,,,,,,,,,,,,,,,,,,,,,,1042,2019_Mar_13_0950,mf_amp_cond2,3.0.4,59.98766749964676,
victim,&&&&&&,left,care.vice,,,,,,,,0,174,174,195,,,,,,,,,,,,,,,,,,,,,LDT,right,0.533730667171767,0,,,right,0,0.533730667171767,,,,,,,,,,,,,,,,,,,,,,1042,2019_Mar_13_0950,mf_amp_cond2,3.0.4,59.98766749964676,
gowlands,&&&&&&&&,right,nonword,,,,,,,,0,175,175,164,,,,,,,,,,,,,,,,,,,,,LDT,left,0.65043302506092,0,,,left,0,0.65043302506092,,,,,,,,,,,,,,,,,,,,,,1042,2019_Mar_13_0950,mf_amp_cond2,3.0.4,59.98766749964676,
ning,&&&&,right,nonword,,,,,,,,0,176,176,199,,,,,,,,,,,,,,,,,,,,,LDT,left,0.6670994297892321,0,,,left,0,0.6670994297892321,,,,,,,,,,,,,,,,,,,,,,1042,2019_Mar_13_0950,mf_amp_cond2,3.0.4,59.98766749964676,
tracious,&&&&&&&&,right,nonword,,,,,,,,0,177,177,43,,,,,,,,,,,,,,,,,,,,,LDT,left,0.8671142472012434,0,,,left,0,0.8671142472012434,,,,,,,,,,,,,,,,,,,,,,1042,2019_Mar_13_0950,mf_amp_cond2,3.0.4,59.98766749964676,
safety,&&&&&&,left,care.virtue,,,,,,,,0,178,178,105,,,,,,,,,,,,,,,,,,,,,LDT,right,0.48370932301622815,0,,,right,0,0.48370932301622815,,,,,,,,,,,,,,,,,,,,,,1042,2019_Mar_13_0950,mf_amp_cond2,3.0.4,59.98766749964676,
fegard,&&&&&&,right,nonword,,,,,,,,0,179,179,3,,,,,,,,,,,,,,,,,,,,,LDT,left,0.6337255676626228,0,,,left,0,0.6337255676626228,,,,,,,,,,,,,,,,,,,,,,1042,2019_Mar_13_0950,mf_amp_cond2,3.0.4,59.98766749964676,
taxpayung,&&&&&&&&&,right,nonword,,,,,,,,0,180,180,190,,,,,,,,,,,,,,,,,,,,,LDT,left,1.0838939315581229,0,,,left,0,1.0838939315581229,,,,,,,,,,,,,,,,,,,,,,1042,2019_Mar_13_0950,mf_amp_cond2,3.0.4,59.98766749964676,
troops,&&&&&&,left,loyalty.vice,,,,,,,,0,181,181,181,,,,,,,,,,,,,,,,,,,,,LDT,right,0.9004884300520644,0,,,right,0,0.9004884300520644,,,,,,,,,,,,,,,,,,,,,,1042,2019_Mar_13_0950,mf_amp_cond2,3.0.4,59.98766749964676,
threatened,&&&&&&&&&&,left,fairness.vice,,,,,,,,0,182,182,47,,,,,,,,,,,,,,,,,,,,,LDT,right,0.5003847080224659,0,,,right,0,0.5003847080224659,,,,,,,,,,,,,,,,,,,,,,1042,2019_Mar_13_0950,mf_amp_cond2,3.0.4,59.98766749964676,
nomaric,&&&&&&&,None,nonword,,,,,,,,0,183,183,188,,,,,,,,,,,,,,,,,,,,,LDT,right,0.5503656409855466,0,,,right,0,0.5503656409855466,,,,,,,,,,,,,,,,,,,,,,1042,2019_Mar_13_0950,mf_amp_cond2,3.0.4,59.98766749964676,
pullness,&&&&&&&&,right,nonword,,,,,,,,0,184,184,91,,,,,,,,,,,,,,,,,,,,,LDT,right,1.3339339418162126,1,,,right,1,1.3339339418162126,,,,,,,,,,,,,,,,,,,,,,1042,2019_Mar_13_0950,mf_amp_cond2,3.0.4,59.98766749964676,
tove,&&&&,right,nonword,,,,,,,,0,185,185,92,,,,,,,,,,,,,,,,,,,,,LDT,right,1.5506469156534877,1,,,right,1,1.5506469156534877,,,,,,,,,,,,,,,,,,,,,,1042,2019_Mar_13_0950,mf_amp_cond2,3.0.4,59.98766749964676,
chared,&&&&&&,right,nonword,,,,,,,,0,186,186,16,,,,,,,,,,,,,,,,,,,,,LDT,left,0.7004367294139229,0,,,left,0,0.7004367294139229,,,,,,,,,,,,,,,,,,,,,,1042,2019_Mar_13_0950,mf_amp_cond2,3.0.4,59.98766749964676,
emassion,&&&&&&&&,right,nonword,,,,,,,,0,187,187,161,,,,,,,,,,,,,,,,,,,,,LDT,right,0.5838337958557531,1,,,right,1,0.5838337958557531,,,,,,,,,,,,,,,,,,,,,,1042,2019_Mar_13_0950,mf_amp_cond2,3.0.4,59.98766749964676,
unscothed,&&&&&&&&&,right,nonword,,,,,,,,0,188,188,73,,,,,,,,,,,,,,,,,,,,,LDT,right,0.517043094674591,1,,,right,1,0.517043094674591,,,,,,,,,,,,,,,,,,,,,,1042,2019_Mar_13_0950,mf_amp_cond2,3.0.4,59.98766749964676,
party,&&&&&,left,loyalty.virtue,,,,,,,,0,189,189,108,,,,,,,,,,,,,,,,,,,,,LDT,right,0.7670423730451148,0,,,right,0,0.7670423730451148,,,,,,,,,,,,,,,,,,,,,,1042,2019_Mar_13_0950,mf_amp_cond2,3.0.4,59.98766749964676,
lorthwhile,&&&&&&&&&&,right,nonword,,,,,,,,0,190,190,84,,,,,,,,,,,,,,,,,,,,,LDT,left,0.7171717690071091,0,,,left,0,0.7171717690071091,,,,,,,,,,,,,,,,,,,,,,1042,2019_Mar_13_0950,mf_amp_cond2,3.0.4,59.98766749964676,
credit,&&&&&&,left,fairness.virtue,,,,,,,,0,191,191,19,,,,,,,,,,,,,,,,,,,,,LDT,right,0.6670038541487884,0,,,right,0,0.6670038541487884,,,,,,,,,,,,,,,,,,,,,,1042,2019_Mar_13_0950,mf_amp_cond2,3.0.4,59.98766749964676,
three,&&&&&,left,neutral,,,,,,,,0,192,192,89,,,,,,,,,,,,,,,,,,,,,LDT,right,0.6004007762821857,0,,,right,0,0.6004007762821857,,,,,,,,,,,,,,,,,,,,,,1042,2019_Mar_13_0950,mf_amp_cond2,3.0.4,59.98766749964676,
both,&&&&,left,neutral,,,,,,,,0,193,193,12,,,,,,,,,,,,,,,,,,,,,LDT,right,0.5170536785735749,0,,,right,0,0.5170536785735749,,,,,,,,,,,,,,,,,,,,,,1042,2019_Mar_13_0950,mf_amp_cond2,3.0.4,59.98766749964676,
drug,&&&&,left,sanctity.vice,,,,,,,,0,194,194,82,,,,,,,,,,,,,,,,,,,,,LDT,right,0.6504118572920561,0,,,right,0,0.6504118572920561,,,,,,,,,,,,,,,,,,,,,,1042,2019_Mar_13_0950,mf_amp_cond2,3.0.4,59.98766749964676,
uller,&&&&&,right,nonword,,,,,,,,0,195,195,41,,,,,,,,,,,,,,,,,,,,,LDT,left,0.5003875945112668,0,,,left,0,0.5003875945112668,,,,,,,,,,,,,,,,,,,,,,1042,2019_Mar_13_0950,mf_amp_cond2,3.0.4,59.98766749964676,
towards,&&&&&&&,left,neutral,,,,,,,,0,196,196,53,,,,,,,,,,,,,,,,,,,,,LDT,right,0.5171088430215605,0,,,right,0,0.5171088430215605,,,,,,,,,,,,,,,,,,,,,,1042,2019_Mar_13_0950,mf_amp_cond2,3.0.4,59.98766749964676,
myself,&&&&&&,left,neutral,,,,,,,,0,197,197,173,,,,,,,,,,,,,,,,,,,,,LDT,right,0.6503829921421129,0,,,right,0,0.6503829921421129,,,,,,,,,,,,,,,,,,,,,,1042,2019_Mar_13_0950,mf_amp_cond2,3.0.4,59.98766749964676,
besides,&&&&&&&,left,neutral,,,,,,,,0,198,198,58,,,,,,,,,,,,,,,,,,,,,LDT,right,0.6337416038732044,0,,,right,0,0.6337416038732044,,,,,,,,,,,,,,,,,,,,,,1042,2019_Mar_13_0950,mf_amp_cond2,3.0.4,59.98766749964676,
toward,&&&&&&,left,neutral,,,,,,,,0,199,199,36,,,,,,,,,,,,,,,,,,,,,LDT,right,0.6170646152459085,0,,,right,0,0.6170646152459085,,,,,,,,,,,,,,,,,,,,,,1042,2019_Mar_13_0950,mf_amp_cond2,3.0.4,59.98766749964676,
,,,,,,,,,,,,,,,,,,,,,,,,,,,,,,,,,,,,,,,,,,,,2,8.971,,,,,,,,,,,,,,,,,,,,1042,2019_Mar_13_0950,mf_amp_cond2,3.0.4,59.98766749964676,
,,,,,,,,,,,,,,,,,,,,,,,,,,,,,,,,,,,,,,,,,,,,,,right,1.4006377269106451,,,,,,,,,,,,,,,,,,1042,2019_Mar_13_0950,mf_amp_cond2,3.0.4,59.98766749964676,
scarf,&&&&&&&&,,,bisebell,,,,,,,,,,,0,0,0,3,,,,,,,,,,,,,,,,,AMP_prac,left,2.800981991662411,,,,,,,,,,,left,2.800981991662411,,,,,,,,,,,,,,,,1042,2019_Mar_13_0950,mf_amp_cond2,3.0.4,59.98766749964676,
keyboard,&&&&,,,senk,,,,,,,,,,,0,1,1,2,,,,,,,,,,,,,,,,,AMP_prac,left,0.7337586342764553,,,,,,,,,,,left,0.7337586342764553,,,,,,,,,,,,,,,,1042,2019_Mar_13_0950,mf_amp_cond2,3.0.4,59.98766749964676,
car,&&&&&&&&,,,cemtuper,,,,,,,,,,,0,2,2,0,,,,,,,,,,,,,,,,,AMP_prac,left,0.48368494800524786,,,,,,,,,,,left,0.48368494800524786,,,,,,,,,,,,,,,,1042,2019_Mar_13_0950,mf_amp_cond2,3.0.4,59.98766749964676,
banana,&&&&&&,,,kacket,,,,,,,,,,,0,3,3,1,,,,,,,,,,,,,,,,,AMP_prac,left,0.6504182717762887,,,,,,,,,,,left,0.6504182717762887,,,,,,,,,,,,,,,,1042,2019_Mar_13_0950,mf_amp_cond2,3.0.4,59.98766749964676,
,,,,,,,,,,,,,,,,,,,,,,,,,,,,,,,,,,,,,,,,,,,,,,,,,,right,2.7676546345173847,,,,,,,,,,,,,,1042,2019_Mar_13_0950,mf_amp_cond2,3.0.4,59.98766749964676,
died,&&&&&&&&&&&,right,care.vice,fornicalion,,,,,,,,,,,,,,,0,0,0,120,,,,,,,,,,,,,AMP,left,1.6173144589702133,0,,,,,,,,,,,,,,left,0,1.6173144589702133,,,,,,,,,,,1042,2019_Mar_13_0950,mf_amp_cond2,3.0.4,59.98766749964676,
slavery,&&&&&&,right,loyalty.vice,antral,,,,,,,,,,,,,,,0,1,1,312,,,,,,,,,,,,,AMP,right,1.483929018722847,1,,,,,,,,,,,,,,right,1,1.483929018722847,,,,,,,,,,,1042,2019_Mar_13_0950,mf_amp_cond2,3.0.4,59.98766749964676,
integrity,&&&&&&&&&,left,fairness.virtue,neputized,,,,,,,,,,,,,,,0,2,2,151,,,,,,,,,,,,,AMP,right,1.617304195795441,0,,,,,,,,,,,,,,right,0,1.617304195795441,,,,,,,,,,,1042,2019_Mar_13_0950,mf_amp_cond2,3.0.4,59.98766749964676,
rejected,&&&&&&&,right,authority.vice,Loorish,,,,,,,,,,,,,,,0,3,3,269,,,,,,,,,,,,,AMP,right,1.4839322259649634,1,,,,,,,,,,,,,,right,1,1.4839322259649634,,,,,,,,,,,1042,2019_Mar_13_0950,mf_amp_cond2,3.0.4,59.98766749964676,
compassion,&&&&&&&&&&&,left,care.virtue,ilportation,,,,,,,,,,,,,,,0,4,4,260,,,,,,,,,,,,,AMP,left,0.6504253276798408,1,,,,,,,,,,,,,,left,1,0.6504253276798408,,,,,,,,,,,1042,2019_Mar_13_0950,mf_amp_cond2,3.0.4,59.98766749964676,
lies,&&&&&&&,right,fairness.vice,Loorish,,,,,,,,,,,,,,,0,5,5,13,,,,,,,,,,,,,AMP,left,0.9337898086232599,0,,,,,,,,,,,,,,left,0,0.9337898086232599,,,,,,,,,,,1042,2019_Mar_13_0950,mf_amp_cond2,3.0.4,59.98766749964676,
arrests,&&&&&&&&,right,authority.vice,slending,,,,,,,,,,,,,,,0,6,6,195,,,,,,,,,,,,,AMP,left,0.8170935444941279,0,,,,,,,,,,,,,,left,0,0.8170935444941279,,,,,,,,,,,1042,2019_Mar_13_0950,mf_amp_cond2,3.0.4,59.98766749964676,
fair,&&&&&&&,left,fairness.virtue,menizen,,,,,,,,,,,,,,,0,7,7,140,,,,,,,,,,,,,AMP,right,1.5172906933294144,0,,,,,,,,,,,,,,right,0,1.5172906933294144,,,,,,,,,,,1042,2019_Mar_13_0950,mf_amp_cond2,3.0.4,59.98766749964676,
charges,&&&&&&&&&&,right,fairness.vice,fonderland,,,,,,,,,,,,,,,0,8,8,228,,,,,,,,,,,,,AMP,right,0.8837880286155269,1,,,,,,,,,,,,,,right,1,0.8837880286155269,,,,,,,,,,,1042,2019_Mar_13_0950,mf_amp_cond2,3.0.4,59.98766749964676,
growth,&&&&&&&,left,care.virtue,smapper,,,,,,,,,,,,,,,0,9,9,85,,,,,,,,,,,,,AMP,left,0.43366969760973006,1,,,,,,,,,,,,,,left,1,0.43366969760973006,,,,,,,,,,,1042,2019_Mar_13_0950,mf_amp_cond2,3.0.4,59.98766749964676,
improve,&&&&&&&&&&&&,left,care.virtue,quarterbocks,,,,,,,,,,,,,,,0,10,10,240,,,,,,,,,,,,,AMP,left,0.8170893751084805,1,,,,,,,,,,,,,,left,1,0.8170893751084805,,,,,,,,,,,1042,2019_Mar_13_0950,mf_amp_cond2,3.0.4,59.98766749964676,
loyalty,&&&&&&&&&&,left,loyalty.virtue,ejanulated,,,,,,,,,,,,,,,0,11,11,84,,,,,,,,,,,,,AMP,left,0.5003847080224659,1,,,,,,,,,,,,,,left,1,0.5003847080224659,,,,,,,,,,,1042,2019_Mar_13_0950,mf_amp_cond2,3.0.4,59.98766749964676,
friends,&&&&&,left,loyalty.virtue,infet,,,,,,,,,,,,,,,0,12,12,242,,,,,,,,,,,,,AMP,left,2.284122350945836,1,,,,,,,,,,,,,,left,1,2.284122350945836,,,,,,,,,,,1042,2019_Mar_13_0950,mf_amp_cond2,3.0.4,59.98766749964676,
mecan,&&&&&&&&,None,nonword,thadowed,,,,,,,,,,,,,,,0,13,13,133,,,,,,,,,,,,,AMP,right,2.6842469200200867,0,,,,,,,,,,,,,,right,0,2.6842469200200867,,,,,,,,,,,1042,2019_Mar_13_0950,mf_amp_cond2,3.0.4,59.98766749964676,
groups,&&&&&&&,right,loyalty.vice,emports,,,,,,,,,,,,,,,0,14,14,156,,,,,,,,,,,,,AMP,right,1.367237244732678,1,,,,,,,,,,,,,,right,1,1.367237244732678,,,,,,,,,,,1042,2019_Mar_13_0950,mf_amp_cond2,3.0.4,59.98766749964676,
clean,&&&&&&&&&,left,sanctity.virtue,gandbrake,,,,,,,,,,,,,,,0,15,15,173,,,,,,,,,,,,,AMP,left,0.6503980661800597,1,,,,,,,,,,,,,,left,1,0.6503980661800597,,,,,,,,,,,1042,2019_Mar_13_0950,mf_amp_cond2,3.0.4,59.98766749964676,
civilians,&&&&&&&&&&&&,right,care.vice,rorroborated,,,,,,,,,,,,,,,0,16,16,43,,,,,,,,,,,,,AMP,left,0.4169907846371643,0,,,,,,,,,,,,,,left,0,0.4169907846371643,,,,,,,,,,,1042,2019_Mar_13_0950,mf_amp_cond2,3.0.4,59.98766749964676,
vurtain,&&&&&&&&&&,None,nonword,reelectiob,,,,,,,,,,,,,,,0,17,17,290,,,,,,,,,,,,,AMP,left,0.500355522177415,0,,,,,,,,,,,,,,left,0,0.500355522177415,,,,,,,,,,,1042,2019_Mar_13_0950,mf_amp_cond2,3.0.4,59.98766749964676,
forced,&&&&&&&&&&&&,right,fairness.vice,quarterbocks,,,,,,,,,,,,,,,0,18,18,250,,,,,,,,,,,,,AMP,left,0.6837199710425921,0,,,,,,,,,,,,,,left,0,0.6837199710425921,,,,,,,,,,,1042,2019_Mar_13_0950,mf_amp_cond2,3.0.4,59.98766749964676,
promised,&&&&&&,left,loyalty.virtue,erdest,,,,,,,,,,,,,,,0,19,19,232,,,,,,,,,,,,,AMP,left,2.8343372518138494,1,,,,,,,,,,,,,,left,1,2.8343372518138494,,,,,,,,,,,1042,2019_Mar_13_0950,mf_amp_cond2,3.0.4,59.98766749964676,
aubos,&&&&&&&&&,None,nonword,refuejing,,,,,,,,,,,,,,,0,20,20,247,,,,,,,,,,,,,AMP,left,0.7003950353246182,0,,,,,,,,,,,,,,left,0,0.7003950353246182,,,,,,,,,,,1042,2019_Mar_13_0950,mf_amp_cond2,3.0.4,59.98766749964676,
unpleasant,&&&&&&&&&,None,control,grovelire,,,,,,,,,,,,,,,0,21,21,284,,,,,,,,,,,,,AMP,left,1.8673753163020592,0,,,,,,,,,,,,,,left,0,1.8673753163020592,,,,,,,,,,,1042,2019_Mar_13_0950,mf_amp_cond2,3.0.4,59.98766749964676,
glacenta,&&&&&,None,nonword,lenon,,,,,,,,,,,,,,,0,22,22,54,,,,,,,,,,,,,AMP,left,0.9004361520928796,0,,,,,,,,,,,,,,left,0,0.9004361520928796,,,,,,,,,,,1042,2019_Mar_13_0950,mf_amp_cond2,3.0.4,59.98766749964676,
safe,&&&&&&&&&&,left,care.virtue,simplustic,,,,,,,,,,,,,,,0,23,23,322,,,,,,,,,,,,,AMP,right,0.7337502954760566,0,,,,,,,,,,,,,,right,0,0.7337502954760566,,,,,,,,,,,1042,2019_Mar_13_0950,mf_amp_cond2,3.0.4,59.98766749964676,
fighters,&&&&&&&&&&,right,authority.vice,frojecting,,,,,,,,,,,,,,,0,24,24,106,,,,,,,,,,,,,AMP,left,0.7337304106040392,0,,,,,,,,,,,,,,left,0,0.7337304106040392,,,,,,,,,,,1042,2019_Mar_13_0950,mf_amp_cond2,3.0.4,59.98766749964676,
sexual,&&&&&&,right,sanctity.vice,antral,,,,,,,,,,,,,,,0,25,25,183,,,,,,,,,,,,,AMP,left,0.8170877714874223,0,,,,,,,,,,,,,,left,0,0.8170877714874223,,,,,,,,,,,1042,2019_Mar_13_0950,mf_amp_cond2,3.0.4,59.98766749964676,
sexual,&&&&&&&,right,sanctity.vice,pharing,,,,,,,,,,,,,,,0,26,26,32,,,,,,,,,,,,,AMP,left,0.5503403038310353,0,,,,,,,,,,,,,,left,0,0.5503403038310353,,,,,,,,,,,1042,2019_Mar_13_0950,mf_amp_cond2,3.0.4,59.98766749964676,
died,&&&&&&&&&,right,care.vice,chressing,,,,,,,,,,,,,,,0,27,27,316,,,,,,,,,,,,,AMP,left,1.1838474586838856,0,,,,,,,,,,,,,,left,0,1.1838474586838856,,,,,,,,,,,1042,2019_Mar_13_0950,mf_amp_cond2,3.0.4,59.98766749964676,
ammessment,&&&&&&&&&&&&,None,nonword,rorroborated,,,,,,,,,,,,,,,0,28,28,121,,,,,,,,,,,,,AMP,left,0.6003738354775123,0,,,,,,,,,,,,,,left,0,0.6003738354775123,,,,,,,,,,,1042,2019_Mar_13_0950,mf_amp_cond2,3.0.4,59.98766749964676,
fighters,&&&&&&&&&&,right,authority.vice,simplustic,,,,,,,,,,,,,,,0,29,29,69,,,,,,,,,,,,,AMP,right,0.5503662824339699,1,,,,,,,,,,,,,,right,1,0.5503662824339699,,,,,,,,,,,1042,2019_Mar_13_0950,mf_amp_cond2,3.0.4,59.98766749964676,
great,&&&&&&&,left,loyalty.virtue,chadows,,,,,,,,,,,,,,,0,30,30,167,,,,,,,,,,,,,AMP,right,1.1337927592685446,0,,,,,,,,,,,,,,right,0,1.1337927592685446,,,,,,,,,,,1042,2019_Mar_13_0950,mf_amp_cond2,3.0.4,59.98766749964676,
racist,&&&&&,right,sanctity.vice,tabin,,,,,,,,,,,,,,,0,31,31,103,,,,,,,,,,,,,AMP,left,1.3005546274071094,0,,,,,,,,,,,,,,left,0,1.3005546274071094,,,,,,,,,,,1042,2019_Mar_13_0950,mf_amp_cond2,3.0.4,59.98766749964676,
epigrach,&&&&&&,None,nonword,sonvoy,,,,,,,,,,,,,,,0,32,32,261,,,,,,,,,,,,,AMP,right,2.5008683592895977,0,,,,,,,,,,,,,,right,0,2.5008683592895977,,,,,,,,,,,1042,2019_Mar_13_0950,mf_amp_cond2,3.0.4,59.98766749964676,
compassion,&&&&&&&&&&&,left,care.virtue,blunderints,,,,,,,,,,,,,,,0,33,33,177,,,,,,,,,,,,,AMP,left,2.250761317787692,1,,,,,,,,,,,,,,left,1,2.250761317787692,,,,,,,,,,,1042,2019_Mar_13_0950,mf_amp_cond2,3.0.4,59.98766749964676,
terrorist,&&&&&&,right,loyalty.vice,antral,,,,,,,,,,,,,,,0,34,34,124,,,,,,,,,,,,,AMP,left,0.9004470566869713,0,,,,,,,,,,,,,,left,0,0.9004470566869713,,,,,,,,,,,1042,2019_Mar_13_0950,mf_amp_cond2,3.0.4,59.98766749964676,
opportunity,&&&&&&&&&&,left,fairness.virtue,focomotive,,,,,,,,,,,,,,,0,35,35,65,,,,,,,,,,,,,AMP,right,2.4008590262383223,0,,,,,,,,,,,,,,right,0,2.4008590262383223,,,,,,,,,,,1042,2019_Mar_13_0950,mf_amp_cond2,3.0.4,59.98766749964676,
restore,&&&&&&&,left,care.virtue,sickyay,,,,,,,,,,,,,,,0,36,36,214,,,,,,,,,,,,,AMP,left,0.6003587614977732,1,,,,,,,,,,,,,,left,1,0.6003587614977732,,,,,,,,,,,1042,2019_Mar_13_0950,mf_amp_cond2,3.0.4,59.98766749964676,
growth,&&&&&&,left,care.virtue,gikely,,,,,,,,,,,,,,,0,37,37,2,,,,,,,,,,,,,AMP,left,1.6006336216523778,1,,,,,,,,,,,,,,left,1,1.6006336216523778,,,,,,,,,,,1042,2019_Mar_13_0950,mf_amp_cond2,3.0.4,59.98766749964676,
gazily,&&&&&&,None,nonword,fostet,,,,,,,,,,,,,,,0,38,38,306,,,,,,,,,,,,,AMP,right,2.2174512796627823,0,,,,,,,,,,,,,,right,0,2.2174512796627823,,,,,,,,,,,1042,2019_Mar_13_0950,mf_amp_cond2,3.0.4,59.98766749964676,
rebels,&&&&&&&,right,authority.vice,Loorish,,,,,,,,,,,,,,,0,39,39,226,,,,,,,,,,,,,AMP,left,3.6178205608739518,0,,,,,,,,,,,,,,left,0,3.6178205608739518,,,,,,,,,,,1042,2019_Mar_13_0950,mf_amp_cond2,3.0.4,59.98766749964676,
win,&&&&&&&&&&,left,fairness.virtue,frocessing,,,,,,,,,,,,,,,0,40,40,198,,,,,,,,,,,,,AMP,right,5.551664571801666,0,,,,,,,,,,,,,,right,0,5.551664571801666,,,,,,,,,,,1042,2019_Mar_13_0950,mf_amp_cond2,3.0.4,59.98766749964676,
care,&&&&&&&,left,care.virtue,menizen,,,,,,,,,,,,,,,0,41,41,235,,,,,,,,,,,,,AMP,right,1.2671756337222178,0,,,,,,,,,,,,,,right,0,1.2671756337222178,,,,,,,,,,,1042,2019_Mar_13_0950,mf_amp_cond2,3.0.4,59.98766749964676,
honored,&&&&&&&&,left,authority.virtue,proached,,,,,,,,,,,,,,,0,42,42,264,,,,,,,,,,,,,AMP,right,2.9343061737017706,0,,,,,,,,,,,,,,right,0,2.9343061737017706,,,,,,,,,,,1042,2019_Mar_13_0950,mf_amp_cond2,3.0.4,59.98766749964676,
encourage,&&&&&&&,left,authority.virtue,dramens,,,,,,,,,,,,,,,0,43,43,314,,,,,,,,,,,,,AMP,right,0.8670988524681889,0,,,,,,,,,,,,,,right,0,0.8670988524681889,,,,,,,,,,,1042,2019_Mar_13_0950,mf_amp_cond2,3.0.4,59.98766749964676,
loyalty,&&&&&&&&&&&&,left,loyalty.virtue,iptervention,,,,,,,,,,,,,,,0,44,44,26,,,,,,,,,,,,,AMP,right,2.4508457322372124,0,,,,,,,,,,,,,,right,0,2.4508457322372124,,,,,,,,,,,1042,2019_Mar_13_0950,mf_amp_cond2,3.0.4,59.98766749964676,
aubos,&&&&&&&,None,nonword,troubla,,,,,,,,,,,,,,,0,45,45,222,,,,,,,,,,,,,AMP,left,1.3838924241717905,0,,,,,,,,,,,,,,left,0,1.3838924241717905,,,,,,,,,,,1042,2019_Mar_13_0950,mf_amp_cond2,3.0.4,59.98766749964676,
penalty,&&&&&&&&,right,authority.vice,slending,,,,,,,,,,,,,,,0,46,46,252,,,,,,,,,,,,,AMP,left,1.9673901016358286,0,,,,,,,,,,,,,,left,0,1.9673901016358286,,,,,,,,,,,1042,2019_Mar_13_0950,mf_amp_cond2,3.0.4,59.98766749964676,
fighters,&&&&&,right,authority.vice,noped,,,,,,,,,,,,,,,0,47,47,184,,,,,,,,,,,,,AMP,left,1.4839456963527482,0,,,,,,,,,,,,,,left,0,1.4839456963527482,,,,,,,,,,,1042,2019_Mar_13_0950,mf_amp_cond2,3.0.4,59.98766749964676,
sexual,&&&&&&&,right,sanctity.vice,emports,,,,,,,,,,,,,,,0,48,48,277,,,,,,,,,,,,,AMP,left,0.617044088896364,0,,,,,,,,,,,,,,left,0,0.617044088896364,,,,,,,,,,,1042,2019_Mar_13_0950,mf_amp_cond2,3.0.4,59.98766749964676,
critics,&&&&&&&&&&&&,right,loyalty.vice,iptervention,,,,,,,,,,,,,,,0,49,49,97,,,,,,,,,,,,,AMP,left,3.501016212889226,0,,,,,,,,,,,,,,left,0,3.501016212889226,,,,,,,,,,,1042,2019_Mar_13_0950,mf_amp_cond2,3.0.4,59.98766749964676,
terrorists,&&&&&&&&,right,fairness.vice,sidearbs,,,,,,,,,,,,,,,0,50,50,191,,,,,,,,,,,,,AMP,left,0.4669999413017649,0,,,,,,,,,,,,,,left,0,0.4669999413017649,,,,,,,,,,,1042,2019_Mar_13_0950,mf_amp_cond2,3.0.4,59.98766749964676,
faith,&&&&&,left,sanctity.virtue,saned,,,,,,,,,,,,,,,0,51,51,89,,,,,,,,,,,,,AMP,right,0.883803744072793,0,,,,,,,,,,,,,,right,0,0.883803744072793,,,,,,,,,,,1042,2019_Mar_13_0950,mf_amp_cond2,3.0.4,59.98766749964676,
prison,&&&&&&&&&&,right,fairness.vice,fonderland,,,,,,,,,,,,,,,0,52,52,317,,,,,,,,,,,,,AMP,left,0.8337795133993495,0,,,,,,,,,,,,,,left,0,0.8337795133993495,,,,,,,,,,,1042,2019_Mar_13_0950,mf_amp_cond2,3.0.4,59.98766749964676,
praise,&&&&&&&,left,authority.virtue,festate,,,,,,,,,,,,,,,0,53,53,53,,,,,,,,,,,,,AMP,left,0.867113605781924,1,,,,,,,,,,,,,,left,1,0.867113605781924,,,,,,,,,,,1042,2019_Mar_13_0950,mf_amp_cond2,3.0.4,59.98766749964676,
civilians,&&&&&&&&&,right,care.vice,grovelire,,,,,,,,,,,,,,,0,54,54,83,,,,,,,,,,,,,AMP,left,0.4003170032519847,0,,,,,,,,,,,,,,left,0,0.4003170032519847,,,,,,,,,,,1042,2019_Mar_13_0950,mf_amp_cond2,3.0.4,59.98766749964676,
terrorist,&&&&&&&&&&&&&,right,loyalty.vice,wonderfujnoss,,,,,,,,,,,,,,,0,55,55,249,,,,,,,,,,,,,AMP,left,0.6170649359410163,0,,,,,,,,,,,,,,left,0,0.6170649359410163,,,,,,,,,,,1042,2019_Mar_13_0950,mf_amp_cond2,3.0.4,59.98766749964676,
freedom,&&&&&&&&&&,left,sanctity.virtue,neutralust,,,,,,,,,,,,,,,0,56,56,289,,,,,,,,,,,,,AMP,right,0.8504346928093582,0,,,,,,,,,,,,,,right,0,0.8504346928093582,,,,,,,,,,,1042,2019_Mar_13_0950,mf_amp_cond2,3.0.4,59.98766749964676,
promised,&&&&&&&,left,loyalty.virtue,festate,,,,,,,,,,,,,,,0,57,57,275,,,,,,,,,,,,,AMP,left,1.2005379177280702,1,,,,,,,,,,,,,,left,1,1.2005379177280702,,,,,,,,,,,1042,2019_Mar_13_0950,mf_amp_cond2,3.0.4,59.98766749964676,
growth,&&&&&&&&&&&&,left,care.virtue,unreflectuve,,,,,,,,,,,,,,,0,58,58,272,,,,,,,,,,,,,AMP,left,4.31800359787303,1,,,,,,,,,,,,,,left,1,4.31800359787303,,,,,,,,,,,1042,2019_Mar_13_0950,mf_amp_cond2,3.0.4,59.98766749964676,
win,&&&&&&&&&,left,fairness.virtue,brotesque,,,,,,,,,,,,,,,0,59,59,313,,,,,,,,,,,,,AMP,left,0.5503508877009153,1,,,,,,,,,,,,,,left,1,0.5503508877009153,,,,,,,,,,,1042,2019_Mar_13_0950,mf_amp_cond2,3.0.4,59.98766749964676,
glacenta,&&&&&&&&&&,None,nonword,reelectiob,,,,,,,,,,,,,,,0,60,60,161,,,,,,,,,,,,,AMP,left,0.7337647280364763,0,,,,,,,,,,,,,,left,0,0.7337647280364763,,,,,,,,,,,1042,2019_Mar_13_0950,mf_amp_cond2,3.0.4,59.98766749964676,
arrests,&&&&,right,authority.vice,erks,,,,,,,,,,,,,,,0,61,61,64,,,,,,,,,,,,,AMP,left,0.6670465103816241,0,,,,,,,,,,,,,,left,0,0.6670465103816241,,,,,,,,,,,1042,2019_Mar_13_0950,mf_amp_cond2,3.0.4,59.98766749964676,
fighters,&&&&&&&,right,authority.vice,smapper,,,,,,,,,,,,,,,0,62,62,295,,,,,,,,,,,,,AMP,left,1.0505085233889986,0,,,,,,,,,,,,,,left,0,1.0505085233889986,,,,,,,,,,,1042,2019_Mar_13_0950,mf_amp_cond2,3.0.4,59.98766749964676,
prison,&&&&&&&&&,right,fairness.vice,grovelire,,,,,,,,,,,,,,,0,63,63,62,,,,,,,,,,,,,AMP,left,0.43372069267206825,0,,,,,,,,,,,,,,left,0,0.43372069267206825,,,,,,,,,,,1042,2019_Mar_13_0950,mf_amp_cond2,3.0.4,59.98766749964676,
groups,&&&&&&&&&&,right,loyalty.vice,frocessing,,,,,,,,,,,,,,,0,64,64,57,,,,,,,,,,,,,AMP,right,1.167048274364788,1,,,,,,,,,,,,,,right,1,1.167048274364788,,,,,,,,,,,1042,2019_Mar_13_0950,mf_amp_cond2,3.0.4,59.98766749964676,
blamed,&&&&&&&&,right,loyalty.vice,clamorek,,,,,,,,,,,,,,,0,65,65,217,,,,,,,,,,,,,AMP,left,0.700408505712403,0,,,,,,,,,,,,,,left,0,0.700408505712403,,,,,,,,,,,1042,2019_Mar_13_0950,mf_amp_cond2,3.0.4,59.98766749964676,
unpleasant,&&&&&&&&&&&&,None,control,quarterbocks,,,,,,,,,,,,,,,0,66,66,45,,,,,,,,,,,,,AMP,left,0.5836984505003784,0,,,,,,,,,,,,,,left,0,0.5836984505003784,,,,,,,,,,,1042,2019_Mar_13_0950,mf_amp_cond2,3.0.4,59.98766749964676,
protect,&&&&&&&&&&&,left,fairness.virtue,mightingale,,,,,,,,,,,,,,,0,67,67,60,,,,,,,,,,,,,AMP,left,0.7004001668829005,1,,,,,,,,,,,,,,left,1,0.7004001668829005,,,,,,,,,,,1042,2019_Mar_13_0950,mf_amp_cond2,3.0.4,59.98766749964676,
police,&&&,right,authority.vice,asn,,,,,,,,,,,,,,,0,68,68,143,,,,,,,,,,,,,AMP,left,3.0843423032201827,0,,,,,,,,,,,,,,left,0,3.0843423032201827,,,,,,,,,,,1042,2019_Mar_13_0950,mf_amp_cond2,3.0.4,59.98766749964676,
pleasant,&&&&&&&&&,None,control,brotesque,,,,,,,,,,,,,,,0,69,69,107,,,,,,,,,,,,,AMP,left,1.1338719780032989,0,,,,,,,,,,,,,,left,0,1.1338719780032989,,,,,,,,,,,1042,2019_Mar_13_0950,mf_amp_cond2,3.0.4,59.98766749964676,
injured,&&&&&&&&,right,care.vice,thadowed,,,,,,,,,,,,,,,0,70,70,192,,,,,,,,,,,,,AMP,left,0.533736760931788,0,,,,,,,,,,,,,,left,0,0.533736760931788,,,,,,,,,,,1042,2019_Mar_13_0950,mf_amp_cond2,3.0.4,59.98766749964676,
integrity,&&&&&&,left,fairness.virtue,squets,,,,,,,,,,,,,,,0,71,71,243,,,,,,,,,,,,,AMP,left,0.5837112794397399,1,,,,,,,,,,,,,,left,1,0.5837112794397399,,,,,,,,,,,1042,2019_Mar_13_0950,mf_amp_cond2,3.0.4,59.98766749964676,
ability,&&&&&&,left,authority.virtue,sonvoy,,,,,,,,,,,,,,,0,72,72,194,,,,,,,,,,,,,AMP,right,0.983788702142192,0,,,,,,,,,,,,,,right,0,0.983788702142192,,,,,,,,,,,1042,2019_Mar_13_0950,mf_amp_cond2,3.0.4,59.98766749964676,
corruption,&&&&&&&&&&&&&,right,sanctity.vice,photocalkodes,,,,,,,,,,,,,,,0,73,73,268,,,,,,,,,,,,,AMP,left,0.5670480819244403,0,,,,,,,,,,,,,,left,0,0.5670480819244403,,,,,,,,,,,1042,2019_Mar_13_0950,mf_amp_cond2,3.0.4,59.98766749964676,
slavery,&&&&&&&&&&,right,loyalty.vice,imebreaker,,,,,,,,,,,,,,,0,74,74,128,,,,,,,,,,,,,AMP,left,1.733991800370859,0,,,,,,,,,,,,,,left,0,1.733991800370859,,,,,,,,,,,1042,2019_Mar_13_0950,mf_amp_cond2,3.0.4,59.98766749964676,
praise,&&&&&&&,left,authority.virtue,smapper,,,,,,,,,,,,,,,0,75,75,189,,,,,,,,,,,,,AMP,right,0.9004329448507633,0,,,,,,,,,,,,,,right,0,0.9004329448507633,,,,,,,,,,,1042,2019_Mar_13_0950,mf_amp_cond2,3.0.4,59.98766749964676,
protect,&&&&&&&&,left,fairness.virtue,thabbily,,,,,,,,,,,,,,,0,76,76,307,,,,,,,,,,,,,AMP,left,2.53421848785365,1,,,,,,,,,,,,,,left,1,2.53421848785365,,,,,,,,,,,1042,2019_Mar_13_0950,mf_amp_cond2,3.0.4,59.98766749964676,
opportunity,&&&&&&&&,left,fairness.virtue,sfumatoy,,,,,,,,,,,,,,,0,77,77,233,,,,,,,,,,,,,AMP,right,0.9838034554268233,0,,,,,,,,,,,,,,right,0,0.9838034554268233,,,,,,,,,,,1042,2019_Mar_13_0950,mf_amp_cond2,3.0.4,59.98766749964676,
sharing,&&&&&&&&&&&,left,loyalty.virtue,mightingale,,,,,,,,,,,,,,,0,78,78,278,,,,,,,,,,,,,AMP,right,0.667106485721888,0,,,,,,,,,,,,,,right,0,0.667106485721888,,,,,,,,,,,1042,2019_Mar_13_0950,mf_amp_cond2,3.0.4,59.98766749964676,
war,&&&&&&&&&&&&,right,sanctity.vice,edancipation,,,,,,,,,,,,,,,0,79,79,223,,,,,,,,,,,,,AMP,left,0.43370529790990986,0,,,,,,,,,,,,,,left,0,0.43370529790990986,,,,,,,,,,,1042,2019_Mar_13_0950,mf_amp_cond2,3.0.4,59.98766749964676,
ensure,&&&&&&&&&&&&&,left,fairness.virtue,wonderfujnoss,,,,,,,,,,,,,,,0,80,80,146,,,,,,,,,,,,,AMP,right,0.683709387172712,0,,,,,,,,,,,,,,right,0,0.683709387172712,,,,,,,,,,,1042,2019_Mar_13_0950,mf_amp_cond2,3.0.4,59.98766749964676,
safe,&&&&&&&,left,care.virtue,festate,,,,,,,,,,,,,,,0,81,81,150,,,,,,,,,,,,,AMP,right,1.183848100132309,0,,,,,,,,,,,,,,right,0,1.183848100132309,,,,,,,,,,,1042,2019_Mar_13_0950,mf_amp_cond2,3.0.4,59.98766749964676,
praised,&&&&&&&&&,left,loyalty.virtue,tomedians,,,,,,,,,,,,,,,0,82,82,33,,,,,,,,,,,,,AMP,right,3.401092192332726,0,,,,,,,,,,,,,,right,0,3.401092192332726,,,,,,,,,,,1042,2019_Mar_13_0950,mf_amp_cond2,3.0.4,59.98766749964676,
peace,&&&&&&,left,care.virtue,bycled,,,,,,,,,,,,,,,0,83,83,201,,,,,,,,,,,,,AMP,right,1.7339985355793033,0,,,,,,,,,,,,,,right,0,1.7339985355793033,,,,,,,,,,,1042,2019_Mar_13_0950,mf_amp_cond2,3.0.4,59.98766749964676,
values,&&&&&&,left,sanctity.virtue,pumber,,,,,,,,,,,,,,,0,84,84,305,,,,,,,,,,,,,AMP,right,1.0838297868031077,0,,,,,,,,,,,,,,right,0,1.0838297868031077,,,,,,,,,,,1042,2019_Mar_13_0950,mf_amp_cond2,3.0.4,59.98766749964676,
sharing,&&&&&&&&&,left,loyalty.virtue,pescinded,,,,,,,,,,,,,,,0,85,85,28,,,,,,,,,,,,,AMP,right,2.06740841496503,0,,,,,,,,,,,,,,right,0,2.06740841496503,,,,,,,,,,,1042,2019_Mar_13_0950,mf_amp_cond2,3.0.4,59.98766749964676,
conspiracy,&&&&&&&&,right,sanctity.vice,thabbily,,,,,,,,,,,,,,,0,86,86,42,,,,,,,,,,,,,AMP,left,0.5670314042945392,0,,,,,,,,,,,,,,left,0,0.5670314042945392,,,,,,,,,,,1042,2019_Mar_13_0950,mf_amp_cond2,3.0.4,59.98766749964676,
vicissifude,&&&&&&,None,nonword,strofe,,,,,,,,,,,,,,,0,87,87,319,,,,,,,,,,,,,AMP,right,1.4172383832919877,0,,,,,,,,,,,,,,right,0,1.4172383832919877,,,,,,,,,,,1042,2019_Mar_13_0950,mf_amp_cond2,3.0.4,59.98766749964676,
attacks,&&&&&&&,right,care.vice,brudent,,,,,,,,,,,,,,,0,88,88,50,,,,,,,,,,,,,AMP,left,0.733726241189288,0,,,,,,,,,,,,,,left,0,0.733726241189288,,,,,,,,,,,1042,2019_Mar_13_0950,mf_amp_cond2,3.0.4,59.98766749964676,
rebels,&&&,right,authority.vice,asn,,,,,,,,,,,,,,,0,89,89,255,,,,,,,,,,,,,AMP,left,2.617554680968169,0,,,,,,,,,,,,,,left,0,2.617554680968169,,,,,,,,,,,1042,2019_Mar_13_0950,mf_amp_cond2,3.0.4,59.98766749964676,
praise,&&&&&&&&&&&,left,authority.virtue,blunderints,,,,,,,,,,,,,,,0,90,90,304,,,,,,,,,,,,,AMP,right,0.9171009532292373,0,,,,,,,,,,,,,,right,0,0.9171009532292373,,,,,,,,,,,1042,2019_Mar_13_0950,mf_amp_cond2,3.0.4,59.98766749964676,
ensure,&&&&&&,left,fairness.virtue,pumber,,,,,,,,,,,,,,,0,91,91,15,,,,,,,,,,,,,AMP,right,0.41699110536137596,0,,,,,,,,,,,,,,right,0,0.41699110536137596,,,,,,,,,,,1042,2019_Mar_13_0950,mf_amp_cond2,3.0.4,59.98766749964676,
oam,&&&&&&&&,None,nonword,slending,,,,,,,,,,,,,,,0,92,92,59,,,,,,,,,,,,,AMP,right,0.517004287103191,0,,,,,,,,,,,,,,right,0,0.517004287103191,,,,,,,,,,,1042,2019_Mar_13_0950,mf_amp_cond2,3.0.4,59.98766749964676,
love,&&&&&&&,left,loyalty.virtue,sickyay,,,,,,,,,,,,,,,0,93,93,119,,,,,,,,,,,,,AMP,left,0.8504555398540106,1,,,,,,,,,,,,,,left,1,0.8504555398540106,,,,,,,,,,,1042,2019_Mar_13_0950,mf_amp_cond2,3.0.4,59.98766749964676,
shot,&&&&&&&&,right,care.vice,dormandi,,,,,,,,,,,,,,,0,94,94,280,,,,,,,,,,,,,AMP,left,1.7506489041261375,0,,,,,,,,,,,,,,left,0,1.7506489041261375,,,,,,,,,,,1042,2019_Mar_13_0950,mf_amp_cond2,3.0.4,59.98766749964676,
terrorist,&&&&&&&&&&,right,loyalty.vice,simplustic,,,,,,,,,,,,,,,0,95,95,172,,,,,,,,,,,,,AMP,left,1.5506244649877772,0,,,,,,,,,,,,,,left,0,1.5506244649877772,,,,,,,,,,,1042,2019_Mar_13_0950,mf_amp_cond2,3.0.4,59.98766749964676,
sharing,&&&&&&,left,loyalty.virtue,strofe,,,,,,,,,,,,,,,0,96,96,221,,,,,,,,,,,,,AMP,left,0.6003831364505459,1,,,,,,,,,,,,,,left,1,0.6003831364505459,,,,,,,,,,,1042,2019_Mar_13_0950,mf_amp_cond2,3.0.4,59.98766749964676,
riot,&&&&&&&&&,right,authority.vice,chressing,,,,,,,,,,,,,,,0,97,97,230,,,,,,,,,,,,,AMP,left,0.7170178216474596,0,,,,,,,,,,,,,,left,0,0.7170178216474596,,,,,,,,,,,1042,2019_Mar_13_0950,mf_amp_cond2,3.0.4,59.98766749964676,
arrests,&&&&&&&&&&,right,authority.vice,clattening,,,,,,,,,,,,,,,0,98,98,162,,,,,,,,,,,,,AMP,left,0.6003619687107857,0,,,,,,,,,,,,,,left,0,0.6003619687107857,,,,,,,,,,,1042,2019_Mar_13_0950,mf_amp_cond2,3.0.4,59.98766749964676,
praised,&&&&&&&&,left,loyalty.virtue,divility,,,,,,,,,,,,,,,0,99,99,219,,,,,,,,,,,,,AMP,right,1.2005286167259328,0,,,,,,,,,,,,,,right,0,1.2005286167259328,,,,,,,,,,,1042,2019_Mar_13_0950,mf_amp_cond2,3.0.4,59.98766749964676,
forced,&&&&&&&,right,fairness.vice,dramens,,,,,,,,,,,,,,,0,100,100,78,,,,,,,,,,,,,AMP,left,0.8337644393905066,0,,,,,,,,,,,,,,left,0,0.8337644393905066,,,,,,,,,,,1042,2019_Mar_13_0950,mf_amp_cond2,3.0.4,59.98766749964676,
improve,&&&&&&&&&,left,care.virtue,Lacedonia,,,,,,,,,,,,,,,0,101,101,52,,,,,,,,,,,,,AMP,right,1.0004573519399855,0,,,,,,,,,,,,,,right,0,1.0004573519399855,,,,,,,,,,,1042,2019_Mar_13_0950,mf_amp_cond2,3.0.4,59.98766749964676,
failure,&&&&&&&&,right,loyalty.vice,slending,,,,,,,,,,,,,,,0,102,102,148,,,,,,,,,,,,,AMP,left,0.6170524277549703,0,,,,,,,,,,,,,,left,0,0.6170524277549703,,,,,,,,,,,1042,2019_Mar_13_0950,mf_amp_cond2,3.0.4,59.98766749964676,
racist,&&&&&&&&&&&&,right,sanctity.vice,rorroborated,,,,,,,,,,,,,,,0,103,103,199,,,,,,,,,,,,,AMP,left,0.46700090350350365,0,,,,,,,,,,,,,,left,0,0.46700090350350365,,,,,,,,,,,1042,2019_Mar_13_0950,mf_amp_cond2,3.0.4,59.98766749964676,
vicissifude,&&&&&&&&,None,nonword,proached,,,,,,,,,,,,,,,0,104,104,58,,,,,,,,,,,,,AMP,left,1.0171333783946466,0,,,,,,,,,,,,,,left,0,1.0171333783946466,,,,,,,,,,,1042,2019_Mar_13_0950,mf_amp_cond2,3.0.4,59.98766749964676,
love,&&&&&&&,left,loyalty.virtue,chadows,,,,,,,,,,,,,,,0,105,105,80,,,,,,,,,,,,,AMP,right,0.3669752135174349,0,,,,,,,,,,,,,,right,0,0.3669752135174349,,,,,,,,,,,1042,2019_Mar_13_0950,mf_amp_cond2,3.0.4,59.98766749964676,
mecan,&&&&&&&&&,None,nonword,tomedians,,,,,,,,,,,,,,,0,106,106,181,,,,,,,,,,,,,AMP,right,0.6503781813080423,0,,,,,,,,,,,,,,right,0,0.6503781813080423,,,,,,,,,,,1042,2019_Mar_13_0950,mf_amp_cond2,3.0.4,59.98766749964676,
respect,&&&,left,sanctity.virtue,asn,,,,,,,,,,,,,,,0,107,107,241,,,,,,,,,,,,,AMP,right,0.9337586984329391,0,,,,,,,,,,,,,,right,0,0.9337586984329391,,,,,,,,,,,1042,2019_Mar_13_0950,mf_amp_cond2,3.0.4,59.98766749964676,
racist,&&&&&,right,sanctity.vice,saned,,,,,,,,,,,,,,,0,108,108,248,,,,,,,,,,,,,AMP,left,1.6673255399509799,0,,,,,,,,,,,,,,left,0,1.6673255399509799,,,,,,,,,,,1042,2019_Mar_13_0950,mf_amp_cond2,3.0.4,59.98766749964676,
police,&&&&&&&&,right,authority.vice,thadowed,,,,,,,,,,,,,,,0,109,109,327,,,,,,,,,,,,,AMP,left,0.9337930158653762,0,,,,,,,,,,,,,,left,0,0.9337930158653762,,,,,,,,,,,1042,2019_Mar_13_0950,mf_amp_cond2,3.0.4,59.98766749964676,
win,&&&&&&&&,left,fairness.virtue,dormandi,,,,,,,,,,,,,,,0,110,110,141,,,,,,,,,,,,,AMP,right,1.9340245783387218,0,,,,,,,,,,,,,,right,0,1.9340245783387218,,,,,,,,,,,1042,2019_Mar_13_0950,mf_amp_cond2,3.0.4,59.98766749964676,
hate,&&&&&&&&&&,right,fairness.vice,focomotive,,,,,,,,,,,,,,,0,111,111,91,,,,,,,,,,,,,AMP,left,2.0340698324434925,0,,,,,,,,,,,,,,left,0,2.0340698324434925,,,,,,,,,,,1042,2019_Mar_13_0950,mf_amp_cond2,3.0.4,59.98766749964676,
unpleasant,&&&&&&&,None,control,baklara,,,,,,,,,,,,,,,0,112,112,94,,,,,,,,,,,,,AMP,left,1.5172307180182543,0,,,,,,,,,,,,,,left,0,1.5172307180182543,,,,,,,,,,,1042,2019_Mar_13_0950,mf_amp_cond2,3.0.4,59.98766749964676,
death,&&&&&&&&&,right,care.vice,gandbrake,,,,,,,,,,,,,,,0,113,113,14,,,,,,,,,,,,,AMP,left,0.3503113745537121,0,,,,,,,,,,,,,,left,0,0.3503113745537121,,,,,,,,,,,1042,2019_Mar_13_0950,mf_amp_cond2,3.0.4,59.98766749964676,
peace,&&&&&&&&&&,left,care.virtue,frojecting,,,,,,,,,,,,,,,0,114,114,320,,,,,,,,,,,,,AMP,right,0.28363677533343434,0,,,,,,,,,,,,,,right,0,0.28363677533343434,,,,,,,,,,,1042,2019_Mar_13_0950,mf_amp_cond2,3.0.4,59.98766749964676,
vurtain,&&&&&&&&&&,None,nonword,focomotive,,,,,,,,,,,,,,,0,115,115,234,,,,,,,,,,,,,AMP,right,2.400833689054707,0,,,,,,,,,,,,,,right,0,2.400833689054707,,,,,,,,,,,1042,2019_Mar_13_0950,mf_amp_cond2,3.0.4,59.98766749964676,
fear,&&&&,right,sanctity.vice,wump,,,,,,,,,,,,,,,0,116,116,216,,,,,,,,,,,,,AMP,left,0.9004727145947982,0,,,,,,,,,,,,,,left,0,0.9004727145947982,,,,,,,,,,,1042,2019_Mar_13_0950,mf_amp_cond2,3.0.4,59.98766749964676,
pleasant,&&&&&&,None,control,strofe,,,,,,,,,,,,,,,0,117,117,25,,,,,,,,,,,,,AMP,right,1.3505666705896147,0,,,,,,,,,,,,,,right,0,1.3505666705896147,,,,,,,,,,,1042,2019_Mar_13_0950,mf_amp_cond2,3.0.4,59.98766749964676,
epigrach,&&&&&&,None,nonword,sgrawl,,,,,,,,,,,,,,,0,118,118,179,,,,,,,,,,,,,AMP,left,1.0338129327865317,0,,,,,,,,,,,,,,left,0,1.0338129327865317,,,,,,,,,,,1042,2019_Mar_13_0950,mf_amp_cond2,3.0.4,59.98766749964676,
actively,&&&&&&&&&,left,authority.virtue,gandbrake,,,,,,,,,,,,,,,0,119,119,309,,,,,,,,,,,,,AMP,right,0.8837970088643488,0,,,,,,,,,,,,,,right,0,0.8837970088643488,,,,,,,,,,,1042,2019_Mar_13_0950,mf_amp_cond2,3.0.4,59.98766749964676,
promised,&&&&&&&&&&&&&,left,loyalty.virtue,wonderfujnoss,,,,,,,,,,,,,,,0,120,120,47,,,,,,,,,,,,,AMP,right,0.5670477612002287,0,,,,,,,,,,,,,,right,0,0.5670477612002287,,,,,,,,,,,1042,2019_Mar_13_0950,mf_amp_cond2,3.0.4,59.98766749964676,
respect,&&&&&&&,left,sanctity.virtue,troubla,,,,,,,,,,,,,,,0,121,121,117,,,,,,,,,,,,,AMP,right,0.41696416458580643,0,,,,,,,,,,,,,,right,0,0.41696416458580643,,,,,,,,,,,1042,2019_Mar_13_0950,mf_amp_cond2,3.0.4,59.98766749964676,
epigrach,&&&&&&&&,None,nonword,dormandi,,,,,,,,,,,,,,,0,122,122,10,,,,,,,,,,,,,AMP,right,1.633972204173915,0,,,,,,,,,,,,,,right,0,1.633972204173915,,,,,,,,,,,1042,2019_Mar_13_0950,mf_amp_cond2,3.0.4,59.98766749964676,
vurtain,&&&&&,None,nonword,tabin,,,,,,,,,,,,,,,0,123,123,20,,,,,,,,,,,,,AMP,left,0.6670538870384917,0,,,,,,,,,,,,,,left,0,0.6670538870384917,,,,,,,,,,,1042,2019_Mar_13_0950,mf_amp_cond2,3.0.4,59.98766749964676,
slavery,&&&&&&&&&,right,loyalty.vice,pescinded,,,,,,,,,,,,,,,0,124,124,187,,,,,,,,,,,,,AMP,left,0.7170312920643482,0,,,,,,,,,,,,,,left,0,0.7170312920643482,,,,,,,,,,,1042,2019_Mar_13_0950,mf_amp_cond2,3.0.4,59.98766749964676,
mecan,&&&&&&,None,nonword,erdest,,,,,,,,,,,,,,,0,125,125,270,,,,,,,,,,,,,AMP,right,0.45029986058943905,0,,,,,,,,,,,,,,right,0,0.45029986058943905,,,,,,,,,,,1042,2019_Mar_13_0950,mf_amp_cond2,3.0.4,59.98766749964676,
loyalty,&&&&&&&&,left,loyalty.virtue,ugeasily,,,,,,,,,,,,,,,0,126,126,325,,,,,,,,,,,,,AMP,right,1.2338720101106446,0,,,,,,,,,,,,,,right,0,1.2338720101106446,,,,,,,,,,,1042,2019_Mar_13_0950,mf_amp_cond2,3.0.4,59.98766749964676,
died,&&&&&&&&&&,right,care.vice,imebreaker,,,,,,,,,,,,,,,0,127,127,34,,,,,,,,,,,,,AMP,left,0.9838079455366824,0,,,,,,,,,,,,,,left,0,0.9838079455366824,,,,,,,,,,,1042,2019_Mar_13_0950,mf_amp_cond2,3.0.4,59.98766749964676,
shot,&&&&&&,right,care.vice,sonvoy,,,,,,,,,,,,,,,0,128,128,138,,,,,,,,,,,,,AMP,right,0.7337461260613054,1,,,,,,,,,,,,,,right,1,0.7337461260613054,,,,,,,,,,,1042,2019_Mar_13_0950,mf_amp_cond2,3.0.4,59.98766749964676,
died,&&&&&&&&&,right,care.vice,metibolic,,,,,,,,,,,,,,,0,129,129,218,,,,,,,,,,,,,AMP,right,0.6670561321079731,1,,,,,,,,,,,,,,right,1,0.6670561321079731,,,,,,,,,,,1042,2019_Mar_13_0950,mf_amp_cond2,3.0.4,59.98766749964676,
blamed,&&&&,right,loyalty.vice,erks,,,,,,,,,,,,,,,0,130,130,129,,,,,,,,,,,,,AMP,left,0.6170434474770445,0,,,,,,,,,,,,,,left,0,0.6170434474770445,,,,,,,,,,,1042,2019_Mar_13_0950,mf_amp_cond2,3.0.4,59.98766749964676,
honored,&&&&&&&&&&,left,authority.virtue,gationwide,,,,,,,,,,,,,,,0,131,131,21,,,,,,,,,,,,,AMP,right,0.5336851244210266,0,,,,,,,,,,,,,,right,0,0.5336851244210266,,,,,,,,,,,1042,2019_Mar_13_0950,mf_amp_cond2,3.0.4,59.98766749964676,
trust,&&&&&&&&&&&,left,authority.virtue,ilportation,,,,,,,,,,,,,,,0,132,132,18,,,,,,,,,,,,,AMP,right,2.817615682608448,0,,,,,,,,,,,,,,right,0,2.817615682608448,,,,,,,,,,,1042,2019_Mar_13_0950,mf_amp_cond2,3.0.4,59.98766749964676,
penalty,&&&&&&&&,right,authority.vice,proached,,,,,,,,,,,,,,,0,133,133,238,,,,,,,,,,,,,AMP,left,0.9004486603080295,0,,,,,,,,,,,,,,left,0,0.9004486603080295,,,,,,,,,,,1042,2019_Mar_13_0950,mf_amp_cond2,3.0.4,59.98766749964676,
conspiracy,&&&&&&,right,sanctity.vice,strofe,,,,,,,,,,,,,,,0,134,134,145,,,,,,,,,,,,,AMP,left,0.7670837464102078,0,,,,,,,,,,,,,,left,0,0.7670837464102078,,,,,,,,,,,1042,2019_Mar_13_0950,mf_amp_cond2,3.0.4,59.98766749964676,
great,&&&&&&&&&&,left,loyalty.virtue,ecgagement,,,,,,,,,,,,,,,0,135,135,66,,,,,,,,,,,,,AMP,right,0.41700265143299475,0,,,,,,,,,,,,,,right,0,0.41700265143299475,,,,,,,,,,,1042,2019_Mar_13_0950,mf_amp_cond2,3.0.4,59.98766749964676,
integrity,&&&&&&,left,fairness.virtue,bycled,,,,,,,,,,,,,,,0,136,136,266,,,,,,,,,,,,,AMP,right,0.8671046255039982,0,,,,,,,,,,,,,,right,0,0.8671046255039982,,,,,,,,,,,1042,2019_Mar_13_0950,mf_amp_cond2,3.0.4,59.98766749964676,
trust,&&&&&&&,left,authority.virtue,stindig,,,,,,,,,,,,,,,0,137,137,215,,,,,,,,,,,,,AMP,right,0.33365619514370337,0,,,,,,,,,,,,,,right,0,0.33365619514370337,,,,,,,,,,,1042,2019_Mar_13_0950,mf_amp_cond2,3.0.4,59.98766749964676,
clean,&&&&&&,left,sanctity.virtue,sgrawl,,,,,,,,,,,,,,,0,138,138,296,,,,,,,,,,,,,AMP,right,0.33355773298535496,0,,,,,,,,,,,,,,right,0,0.33355773298535496,,,,,,,,,,,1042,2019_Mar_13_0950,mf_amp_cond2,3.0.4,59.98766749964676,
love,&&&&&&&&&&,left,loyalty.virtue,ecgagement,,,,,,,,,,,,,,,0,139,139,256,,,,,,,,,,,,,AMP,right,0.25027862866409123,0,,,,,,,,,,,,,,right,0,0.25027862866409123,,,,,,,,,,,1042,2019_Mar_13_0950,mf_amp_cond2,3.0.4,59.98766749964676,
violations,&&&&&&,right,sanctity.vice,pumber,,,,,,,,,,,,,,,0,140,140,132,,,,,,,,,,,,,AMP,left,0.7003956767730415,0,,,,,,,,,,,,,,left,0,0.7003956767730415,,,,,,,,,,,1042,2019_Mar_13_0950,mf_amp_cond2,3.0.4,59.98766749964676,
groups,&&&&&&&&&,right,loyalty.vice,neputized,,,,,,,,,,,,,,,0,141,141,286,,,,,,,,,,,,,AMP,right,1.4005828831868712,1,,,,,,,,,,,,,,right,1,1.4005828831868712,,,,,,,,,,,1042,2019_Mar_13_0950,mf_amp_cond2,3.0.4,59.98766749964676,
arrests,&&&&&,right,authority.vice,infet,,,,,,,,,,,,,,,0,142,142,274,,,,,,,,,,,,,AMP,left,0.7670747661322821,0,,,,,,,,,,,,,,left,0,0.7670747661322821,,,,,,,,,,,1042,2019_Mar_13_0950,mf_amp_cond2,3.0.4,59.98766749964676,
penalty,&&&&&&,right,authority.vice,squets,,,,,,,,,,,,,,,0,143,143,31,,,,,,,,,,,,,AMP,left,0.43366167953354307,0,,,,,,,,,,,,,,left,0,0.43366167953354307,,,,,,,,,,,1042,2019_Mar_13_0950,mf_amp_cond2,3.0.4,59.98766749964676,
peace,&&&&&&&&&&&,left,care.virtue,fornicalion,,,,,,,,,,,,,,,0,144,144,12,,,,,,,,,,,,,AMP,right,0.4836673082318157,0,,,,,,,,,,,,,,right,0,0.4836673082318157,,,,,,,,,,,1042,2019_Mar_13_0950,mf_amp_cond2,3.0.4,59.98766749964676,
shot,&&&&&&&&&&,right,care.vice,clattening,,,,,,,,,,,,,,,0,145,145,210,,,,,,,,,,,,,AMP,right,0.9838281511329114,1,,,,,,,,,,,,,,right,1,0.9838281511329114,,,,,,,,,,,1042,2019_Mar_13_0950,mf_amp_cond2,3.0.4,59.98766749964676,
critics,&&&&&&&&&&,right,loyalty.vice,gationwide,,,,,,,,,,,,,,,0,146,146,236,,,,,,,,,,,,,AMP,left,0.9171221209689975,0,,,,,,,,,,,,,,left,0,0.9171221209689975,,,,,,,,,,,1042,2019_Mar_13_0950,mf_amp_cond2,3.0.4,59.98766749964676,
compassion,&&&&&&&&,left,care.virtue,thadowed,,,,,,,,,,,,,,,0,147,147,35,,,,,,,,,,,,,AMP,right,0.5336787099658977,0,,,,,,,,,,,,,,right,0,0.5336787099658977,,,,,,,,,,,1042,2019_Mar_13_0950,mf_amp_cond2,3.0.4,59.98766749964676,
police,&&&&&&&&&&,right,authority.vice,neutralust,,,,,,,,,,,,,,,0,148,148,166,,,,,,,,,,,,,AMP,left,0.8004204045573715,0,,,,,,,,,,,,,,left,0,0.8004204045573715,,,,,,,,,,,1042,2019_Mar_13_0950,mf_amp_cond2,3.0.4,59.98766749964676,
charges,&&&&&&&&,right,fairness.vice,clamorek,,,,,,,,,,,,,,,0,149,149,56,,,,,,,,,,,,,AMP,left,0.8671081534703262,0,,,,,,,,,,,,,,left,0,0.8671081534703262,,,,,,,,,,,1042,2019_Mar_13_0950,mf_amp_cond2,3.0.4,59.98766749964676,
friends,&&&&&&,left,loyalty.virtue,sgrawl,,,,,,,,,,,,,,,0,150,150,44,,,,,,,,,,,,,AMP,right,1.5839588780945633,0,,,,,,,,,,,,,,right,0,1.5839588780945633,,,,,,,,,,,1042,2019_Mar_13_0950,mf_amp_cond2,3.0.4,59.98766749964676,
actively,&&&&&&&&,left,authority.virtue,nuckheap,,,,,,,,,,,,,,,0,151,151,147,,,,,,,,,,,,,AMP,left,3.134359477990074,1,,,,,,,,,,,,,,left,1,3.134359477990074,,,,,,,,,,,1042,2019_Mar_13_0950,mf_amp_cond2,3.0.4,59.98766749964676,
fear,&&&&&&&,right,sanctity.vice,troubla,,,,,,,,,,,,,,,0,152,152,287,,,,,,,,,,,,,AMP,left,0.8504330891883001,0,,,,,,,,,,,,,,left,0,0.8504330891883001,,,,,,,,,,,1042,2019_Mar_13_0950,mf_amp_cond2,3.0.4,59.98766749964676,
men,&&&&&&,right,loyalty.vice,squets,,,,,,,,,,,,,,,0,153,153,310,,,,,,,,,,,,,AMP,left,0.36693480232497677,0,,,,,,,,,,,,,,left,0,0.36693480232497677,,,,,,,,,,,1042,2019_Mar_13_0950,mf_amp_cond2,3.0.4,59.98766749964676,
faith,&&&&&&&&&&&&,left,sanctity.virtue,feleological,,,,,,,,,,,,,,,0,154,154,297,,,,,,,,,,,,,AMP,left,1.3839312317140866,1,,,,,,,,,,,,,,left,1,1.3839312317140866,,,,,,,,,,,1042,2019_Mar_13_0950,mf_amp_cond2,3.0.4,59.98766749964676,
death,&&&&&&&&&&,right,care.vice,gationwide,,,,,,,,,,,,,,,0,155,155,300,,,,,,,,,,,,,AMP,left,0.40032726639765315,0,,,,,,,,,,,,,,left,0,0.40032726639765315,,,,,,,,,,,1042,2019_Mar_13_0950,mf_amp_cond2,3.0.4,59.98766749964676,
faith,&&&&&&&&&&&,left,sanctity.virtue,blunderints,,,,,,,,,,,,,,,0,156,156,74,,,,,,,,,,,,,AMP,left,0.933820598089369,1,,,,,,,,,,,,,,left,1,0.933820598089369,,,,,,,,,,,1042,2019_Mar_13_0950,mf_amp_cond2,3.0.4,59.98766749964676,
clean,&&&&&&&,left,sanctity.virtue,menizen,,,,,,,,,,,,,,,0,157,157,24,,,,,,,,,,,,,AMP,right,0.583713845233433,0,,,,,,,,,,,,,,right,0,0.583713845233433,,,,,,,,,,,1042,2019_Mar_13_0950,mf_amp_cond2,3.0.4,59.98766749964676,
racist,&&&&&&&&&&,right,sanctity.vice,fonderland,,,,,,,,,,,,,,,0,158,158,23,,,,,,,,,,,,,AMP,left,0.40021565460483544,0,,,,,,,,,,,,,,left,0,0.40021565460483544,,,,,,,,,,,1042,2019_Mar_13_0950,mf_amp_cond2,3.0.4,59.98766749964676,
prison,&&&&&&&,right,fairness.vice,carvels,,,,,,,,,,,,,,,0,159,159,168,,,,,,,,,,,,,AMP,left,0.7004011290846393,0,,,,,,,,,,,,,,left,0,0.7004011290846393,,,,,,,,,,,1042,2019_Mar_13_0950,mf_amp_cond2,3.0.4,59.98766749964676,
forced,&&&&&&&&&&&&,right,fairness.vice,unreflectuve,,,,,,,,,,,,,,,0,160,160,142,,,,,,,,,,,,,AMP,left,0.5002089514455292,0,,,,,,,,,,,,,,left,0,0.5002089514455292,,,,,,,,,,,1042,2019_Mar_13_0950,mf_amp_cond2,3.0.4,59.98766749964676,
discovars,&&&&&&&&&&,None,nonword,focomotive,,,,,,,,,,,,,,,0,161,161,276,,,,,,,,,,,,,AMP,right,0.4503021056589205,0,,,,,,,,,,,,,,right,0,0.4503021056589205,,,,,,,,,,,1042,2019_Mar_13_0950,mf_amp_cond2,3.0.4,59.98766749964676,
violations,&&&&&&&&&&&&,right,sanctity.vice,unreflectuve,,,,,,,,,,,,,,,0,162,162,204,,,,,,,,,,,,,AMP,left,0.383687481720699,0,,,,,,,,,,,,,,left,0,0.383687481720699,,,,,,,,,,,1042,2019_Mar_13_0950,mf_amp_cond2,3.0.4,59.98766749964676,
hand,&&&&&&&&,left,sanctity.virtue,nuckheap,,,,,,,,,,,,,,,0,163,163,182,,,,,,,,,,,,,AMP,left,0.5670294799492694,1,,,,,,,,,,,,,,left,1,0.5670294799492694,,,,,,,,,,,1042,2019_Mar_13_0950,mf_amp_cond2,3.0.4,59.98766749964676,
clean,&&&&&&&&&&&&,left,sanctity.virtue,edancipation,,,,,,,,,,,,,,,0,164,164,98,,,,,,,,,,,,,AMP,right,0.40031604110845365,0,,,,,,,,,,,,,,right,0,0.40031604110845365,,,,,,,,,,,1042,2019_Mar_13_0950,mf_amp_cond2,3.0.4,59.98766749964676,
values,&&&&&&,left,sanctity.virtue,antral,,,,,,,,,,,,,,,0,165,165,79,,,,,,,,,,,,,AMP,right,0.5003356373053975,0,,,,,,,,,,,,,,right,0,0.5003356373053975,,,,,,,,,,,1042,2019_Mar_13_0950,mf_amp_cond2,3.0.4,59.98766749964676,
death,&&&&&&&&&&&,right,care.vice,mightingale,,,,,,,,,,,,,,,0,166,166,245,,,,,,,,,,,,,AMP,left,1.2338899706082884,0,,,,,,,,,,,,,,left,0,1.2338899706082884,,,,,,,,,,,1042,2019_Mar_13_0950,mf_amp_cond2,3.0.4,59.98766749964676,
promises,&&&&&&&&,left,fairness.virtue,fontacts,,,,,,,,,,,,,,,0,167,167,114,,,,,,,,,,,,,AMP,right,0.7338083464710508,0,,,,,,,,,,,,,,right,0,0.7338083464710508,,,,,,,,,,,1042,2019_Mar_13_0950,mf_amp_cond2,3.0.4,59.98766749964676,
protect,&&&&&&,left,fairness.virtue,fostet,,,,,,,,,,,,,,,0,168,168,104,,,,,,,,,,,,,AMP,left,0.5003670682199299,1,,,,,,,,,,,,,,left,1,0.5003670682199299,,,,,,,,,,,1042,2019_Mar_13_0950,mf_amp_cond2,3.0.4,59.98766749964676,
respect,&&&,left,sanctity.virtue,asn,,,,,,,,,,,,,,,0,169,169,51,,,,,,,,,,,,,AMP,right,1.2171908520685975,0,,,,,,,,,,,,,,right,0,1.2171908520685975,,,,,,,,,,,1042,2019_Mar_13_0950,mf_amp_cond2,3.0.4,59.98766749964676,
praised,&&&&&&&&,left,loyalty.virtue,sidearbs,,,,,,,,,,,,,,,0,170,170,246,,,,,,,,,,,,,AMP,right,0.5336761441722047,0,,,,,,,,,,,,,,right,0,0.5336761441722047,,,,,,,,,,,1042,2019_Mar_13_0950,mf_amp_cond2,3.0.4,59.98766749964676,
charges,&&&&&&&&&,right,fairness.vice,baladroit,,,,,,,,,,,,,,,0,171,171,254,,,,,,,,,,,,,AMP,left,2.634249309398001,0,,,,,,,,,,,,,,left,0,2.634249309398001,,,,,,,,,,,1042,2019_Mar_13_0950,mf_amp_cond2,3.0.4,59.98766749964676,
critics,&&&&&&&&,right,loyalty.vice,sidearbs,,,,,,,,,,,,,,,0,172,172,9,,,,,,,,,,,,,AMP,left,0.43366616967250593,0,,,,,,,,,,,,,,left,0,0.43366616967250593,,,,,,,,,,,1042,2019_Mar_13_0950,mf_amp_cond2,3.0.4,59.98766749964676,
injured,&&&&&&&&&&,right,care.vice,imebreaker,,,,,,,,,,,,,,,0,173,173,301,,,,,,,,,,,,,AMP,left,0.36697200627531856,0,,,,,,,,,,,,,,left,0,0.36697200627531856,,,,,,,,,,,1042,2019_Mar_13_0950,mf_amp_cond2,3.0.4,59.98766749964676,
attacks,&&&&&&&&,right,care.vice,nuckheap,,,,,,,,,,,,,,,0,174,174,323,,,,,,,,,,,,,AMP,left,0.48366794968023896,0,,,,,,,,,,,,,,left,0,0.48366794968023896,,,,,,,,,,,1042,2019_Mar_13_0950,mf_amp_cond2,3.0.4,59.98766749964676,
hand,&&&&&&&&&&&&,left,sanctity.virtue,rorroborated,,,,,,,,,,,,,,,0,175,175,285,,,,,,,,,,,,,AMP,left,1.133840867812978,1,,,,,,,,,,,,,,left,1,1.133840867812978,,,,,,,,,,,1042,2019_Mar_13_0950,mf_amp_cond2,3.0.4,59.98766749964676,
freedom,&&&&&&&&&,left,sanctity.virtue,chressing,,,,,,,,,,,,,,,0,176,176,46,,,,,,,,,,,,,AMP,right,0.5003455797268543,0,,,,,,,,,,,,,,right,0,0.5003455797268543,,,,,,,,,,,1042,2019_Mar_13_0950,mf_amp_cond2,3.0.4,59.98766749964676,
terrorists,&&&&&&&,right,fairness.vice,stindig,,,,,,,,,,,,,,,0,177,177,137,,,,,,,,,,,,,AMP,left,0.5170081358228344,0,,,,,,,,,,,,,,left,0,0.5170081358228344,,,,,,,,,,,1042,2019_Mar_13_0950,mf_amp_cond2,3.0.4,59.98766749964676,
conspiracy,&&&&&&&&&&,right,sanctity.vice,ecgagement,,,,,,,,,,,,,,,0,178,178,211,,,,,,,,,,,,,AMP,left,1.7840221248043235,0,,,,,,,,,,,,,,left,0,1.7840221248043235,,,,,,,,,,,1042,2019_Mar_13_0950,mf_amp_cond2,3.0.4,59.98766749964676,
hand,&&&&&&&&,left,sanctity.virtue,sfumatoy,,,,,,,,,,,,,,,0,179,179,55,,,,,,,,,,,,,AMP,right,0.6003696660918649,0,,,,,,,,,,,,,,right,0,0.6003696660918649,,,,,,,,,,,1042,2019_Mar_13_0950,mf_amp_cond2,3.0.4,59.98766749964676,
fair,&&&&&&&&&&,left,fairness.virtue,reelectiob,,,,,,,,,,,,,,,0,180,180,27,,,,,,,,,,,,,AMP,right,0.6837158016569447,0,,,,,,,,,,,,,,right,0,0.6837158016569447,,,,,,,,,,,1042,2019_Mar_13_0950,mf_amp_cond2,3.0.4,59.98766749964676,
praised,&&&&&&&&,left,loyalty.virtue,thabbily,,,,,,,,,,,,,,,0,181,181,122,,,,,,,,,,,,,AMP,right,0.6669156551361084,0,,,,,,,,,,,,,,right,0,0.6669156551361084,,,,,,,,,,,1042,2019_Mar_13_0950,mf_amp_cond2,3.0.4,59.98766749964676,
strength,&&&&&&&&&&,left,sanctity.virtue,clattening,,,,,,,,,,,,,,,0,182,182,299,,,,,,,,,,,,,AMP,right,0.5837016577424947,0,,,,,,,,,,,,,,right,0,0.5837016577424947,,,,,,,,,,,1042,2019_Mar_13_0950,mf_amp_cond2,3.0.4,59.98766749964676,
failure,&&&&&&&,right,loyalty.vice,emports,,,,,,,,,,,,,,,0,183,183,229,,,,,,,,,,,,,AMP,left,0.35024209824041463,0,,,,,,,,,,,,,,left,0,0.35024209824041463,,,,,,,,,,,1042,2019_Mar_13_0950,mf_amp_cond2,3.0.4,59.98766749964676,
embrace,&&&&&,left,authority.virtue,infet,,,,,,,,,,,,,,,0,184,184,87,,,,,,,,,,,,,AMP,right,0.3336347066506278,0,,,,,,,,,,,,,,right,0,0.3336347066506278,,,,,,,,,,,1042,2019_Mar_13_0950,mf_amp_cond2,3.0.4,59.98766749964676,
hand,&&&&&&&&&&,left,sanctity.virtue,frocessing,,,,,,,,,,,,,,,0,185,185,118,,,,,,,,,,,,,AMP,right,0.7504073992313351,0,,,,,,,,,,,,,,right,0,0.7504073992313351,,,,,,,,,,,1042,2019_Mar_13_0950,mf_amp_cond2,3.0.4,59.98766749964676,
strength,&&&&&,left,sanctity.virtue,lenon,,,,,,,,,,,,,,,0,186,186,237,,,,,,,,,,,,,AMP,right,0.533687369490508,0,,,,,,,,,,,,,,right,0,0.533687369490508,,,,,,,,,,,1042,2019_Mar_13_0950,mf_amp_cond2,3.0.4,59.98766749964676,
ensure,&&&&&&&&&&&&&,left,fairness.virtue,wonderfujnoss,,,,,,,,,,,,,,,0,187,187,203,,,,,,,,,,,,,AMP,right,0.36700728588039055,0,,,,,,,,,,,,,,right,0,0.36700728588039055,,,,,,,,,,,1042,2019_Mar_13_0950,mf_amp_cond2,3.0.4,59.98766749964676,
men,&&&&&&&&&,right,loyalty.vice,baladroit,,,,,,,,,,,,,,,0,188,188,8,,,,,,,,,,,,,AMP,left,0.3837028764828574,0,,,,,,,,,,,,,,left,0,0.3837028764828574,,,,,,,,,,,1042,2019_Mar_13_0950,mf_amp_cond2,3.0.4,59.98766749964676,
rebels,&&&&&,right,authority.vice,noped,,,,,,,,,,,,,,,0,189,189,116,,,,,,,,,,,,,AMP,left,0.5170276999415364,0,,,,,,,,,,,,,,left,0,0.5170276999415364,,,,,,,,,,,1042,2019_Mar_13_0950,mf_amp_cond2,3.0.4,59.98766749964676,
care,&&&&&&&&&&,left,care.virtue,ejanulated,,,,,,,,,,,,,,,0,190,190,17,,,,,,,,,,,,,AMP,right,1.2338659163506236,0,,,,,,,,,,,,,,right,0,1.2338659163506236,,,,,,,,,,,1042,2019_Mar_13_0950,mf_amp_cond2,3.0.4,59.98766749964676,
fair,&&&&&,left,fairness.virtue,scock,,,,,,,,,,,,,,,0,191,191,171,,,,,,,,,,,,,AMP,right,0.36697264772374183,0,,,,,,,,,,,,,,right,0,0.36697264772374183,,,,,,,,,,,1042,2019_Mar_13_0950,mf_amp_cond2,3.0.4,59.98766749964676,
voter,&&&&&&&&&,right,fairness.vice,baladroit,,,,,,,,,,,,,,,0,192,192,100,,,,,,,,,,,,,AMP,right,0.3669675161363557,1,,,,,,,,,,,,,,right,1,0.3669675161363557,,,,,,,,,,,1042,2019_Mar_13_0950,mf_amp_cond2,3.0.4,59.98766749964676,
win,&&&&&&&&&&,left,fairness.virtue,clattening,,,,,,,,,,,,,,,0,193,193,76,,,,,,,,,,,,,AMP,right,0.43366200022865087,0,,,,,,,,,,,,,,right,0,0.43366200022865087,,,,,,,,,,,1042,2019_Mar_13_0950,mf_amp_cond2,3.0.4,59.98766749964676,
freedom,&&&&&&&&&,left,sanctity.virtue,pescinded,,,,,,,,,,,,,,,0,194,194,125,,,,,,,,,,,,,AMP,right,0.5170161538699176,0,,,,,,,,,,,,,,right,0,0.5170161538699176,,,,,,,,,,,1042,2019_Mar_13_0950,mf_amp_cond2,3.0.4,59.98766749964676,
faith,&&&&&&&&&&,left,sanctity.virtue,ejanulated,,,,,,,,,,,,,,,0,195,195,206,,,,,,,,,,,,,AMP,right,0.417036968836328,0,,,,,,,,,,,,,,right,0,0.417036968836328,,,,,,,,,,,1042,2019_Mar_13_0950,mf_amp_cond2,3.0.4,59.98766749964676,
praise,&&&&&&&,left,authority.virtue,Daptist,,,,,,,,,,,,,,,0,196,196,93,,,,,,,,,,,,,AMP,right,0.6170357500959653,0,,,,,,,,,,,,,,right,0,0.6170357500959653,,,,,,,,,,,1042,2019_Mar_13_0950,mf_amp_cond2,3.0.4,59.98766749964676,
suicide,&&&&&&&,right,care.vice,chadows,,,,,,,,,,,,,,,0,197,197,135,,,,,,,,,,,,,AMP,left,0.7004017705330625,0,,,,,,,,,,,,,,left,0,0.7004017705330625,,,,,,,,,,,1042,2019_Mar_13_0950,mf_amp_cond2,3.0.4,59.98766749964676,
oam,&&&&&&&&&,None,nonword,tomedians,,,,,,,,,,,,,,,0,198,198,288,,,,,,,,,,,,,AMP,left,0.6837100286211353,0,,,,,,,,,,,,,,left,0,0.6837100286211353,,,,,,,,,,,1042,2019_Mar_13_0950,mf_amp_cond2,3.0.4,59.98766749964676,
opportunity,&&&&&&,left,fairness.virtue,erdest,,,,,,,,,,,,,,,0,199,199,101,,,,,,,,,,,,,AMP,right,0.8670969281520229,0,,,,,,,,,,,,,,right,0,0.8670969281520229,,,,,,,,,,,1042,2019_Mar_13_0950,mf_amp_cond2,3.0.4,59.98766749964676,
ability,&&&&&&&,left,authority.virtue,stindig,,,,,,,,,,,,,,,0,200,200,315,,,,,,,,,,,,,AMP,right,0.6337104936537798,0,,,,,,,,,,,,,,right,0,0.6337104936537798,,,,,,,,,,,1042,2019_Mar_13_0950,mf_amp_cond2,3.0.4,59.98766749964676,
war,&&&&&&&&&&&&,right,sanctity.vice,feleological,,,,,,,,,,,,,,,0,201,201,131,,,,,,,,,,,,,AMP,left,0.35033158014994115,0,,,,,,,,,,,,,,left,0,0.35033158014994115,,,,,,,,,,,1042,2019_Mar_13_0950,mf_amp_cond2,3.0.4,59.98766749964676,
discovars,&&&&&&&&&,None,nonword,neputized,,,,,,,,,,,,,,,0,202,202,67,,,,,,,,,,,,,AMP,left,1.4171386382658966,0,,,,,,,,,,,,,,left,0,1.4171386382658966,,,,,,,,,,,1042,2019_Mar_13_0950,mf_amp_cond2,3.0.4,59.98766749964676,
peace,&&&&&&&&,left,care.virtue,ugeasily,,,,,,,,,,,,,,,0,203,203,109,,,,,,,,,,,,,AMP,right,0.48367596775642596,0,,,,,,,,,,,,,,right,0,0.48367596775642596,,,,,,,,,,,1042,2019_Mar_13_0950,mf_amp_cond2,3.0.4,59.98766749964676,
glacenta,&&&&&&&&&,None,nonword,metibolic,,,,,,,,,,,,,,,0,204,204,258,,,,,,,,,,,,,AMP,right,3.1843862744572107,0,,,,,,,,,,,,,,right,0,3.1843862744572107,,,,,,,,,,,1042,2019_Mar_13_0950,mf_amp_cond2,3.0.4,59.98766749964676,
injured,&&&&&&&&&,right,care.vice,tomedians,,,,,,,,,,,,,,,0,205,205,139,,,,,,,,,,,,,AMP,left,0.567058986518532,0,,,,,,,,,,,,,,left,0,0.567058986518532,,,,,,,,,,,1042,2019_Mar_13_0950,mf_amp_cond2,3.0.4,59.98766749964676,
aubos,&&&&&&&&&&&,None,nonword,ilportation,,,,,,,,,,,,,,,0,206,206,110,,,,,,,,,,,,,AMP,left,0.583695243258262,0,,,,,,,,,,,,,,left,0,0.583695243258262,,,,,,,,,,,1042,2019_Mar_13_0950,mf_amp_cond2,3.0.4,59.98766749964676,
corruption,&&&&&&&,right,sanctity.vice,Loorish,,,,,,,,,,,,,,,0,207,207,95,,,,,,,,,,,,,AMP,left,0.3669704026833642,0,,,,,,,,,,,,,,left,0,0.3669704026833642,,,,,,,,,,,1042,2019_Mar_13_0950,mf_amp_cond2,3.0.4,59.98766749964676,
violations,&&&&&&&&,right,sanctity.vice,nuckheap,,,,,,,,,,,,,,,0,208,208,30,,,,,,,,,,,,,AMP,left,0.4170065000944305,0,,,,,,,,,,,,,,left,0,0.4170065000944305,,,,,,,,,,,1042,2019_Mar_13_0950,mf_amp_cond2,3.0.4,59.98766749964676,
terrorists,&&&&&&&&&,right,fairness.vice,refuejing,,,,,,,,,,,,,,,0,209,209,77,,,,,,,,,,,,,AMP,left,0.3836557301110588,0,,,,,,,,,,,,,,left,0,0.3836557301110588,,,,,,,,,,,1042,2019_Mar_13_0950,mf_amp_cond2,3.0.4,59.98766749964676,
pleasant,&&&&&&&&,None,control,fontacts,,,,,,,,,,,,,,,0,210,210,209,,,,,,,,,,,,,AMP,right,0.4003125131421257,0,,,,,,,,,,,,,,right,0,0.4003125131421257,,,,,,,,,,,1042,2019_Mar_13_0950,mf_amp_cond2,3.0.4,59.98766749964676,
friends,&&&&&&&&&&&,left,loyalty.virtue,fornicalion,,,,,,,,,,,,,,,0,211,211,267,,,,,,,,,,,,,AMP,right,0.5836917152919341,0,,,,,,,,,,,,,,right,0,0.5836917152919341,,,,,,,,,,,1042,2019_Mar_13_0950,mf_amp_cond2,3.0.4,59.98766749964676,
oam,&&&&&&&,None,nonword,carvels,,,,,,,,,,,,,,,0,212,212,113,,,,,,,,,,,,,AMP,right,0.4503437997191213,0,,,,,,,,,,,,,,right,0,0.4503437997191213,,,,,,,,,,,1042,2019_Mar_13_0950,mf_amp_cond2,3.0.4,59.98766749964676,
promises,&&&&&,left,fairness.virtue,scock,,,,,,,,,,,,,,,0,213,213,3,,,,,,,,,,,,,AMP,right,0.4836884759715758,0,,,,,,,,,,,,,,right,0,0.4836884759715758,,,,,,,,,,,1042,2019_Mar_13_0950,mf_amp_cond2,3.0.4,59.98766749964676,
men,&&&&&&&,right,loyalty.vice,festate,,,,,,,,,,,,,,,0,214,214,196,,,,,,,,,,,,,AMP,left,0.4003404160903301,0,,,,,,,,,,,,,,left,0,0.4003404160903301,,,,,,,,,,,1042,2019_Mar_13_0950,mf_amp_cond2,3.0.4,59.98766749964676,
groups,&&&&&&&&&,right,loyalty.vice,Lacedonia,,,,,,,,,,,,,,,0,215,215,239,,,,,,,,,,,,,AMP,right,1.3005709843127988,1,,,,,,,,,,,,,,right,1,1.3005709843127988,,,,,,,,,,,1042,2019_Mar_13_0950,mf_amp_cond2,3.0.4,59.98766749964676,
injured,&&&&&&&&,right,care.vice,ugeasily,,,,,,,,,,,,,,,0,216,216,72,,,,,,,,,,,,,AMP,left,0.4169907846371643,0,,,,,,,,,,,,,,left,0,0.4169907846371643,,,,,,,,,,,1042,2019_Mar_13_0950,mf_amp_cond2,3.0.4,59.98766749964676,
discovars,&&&&&&&&,None,nonword,divility,,,,,,,,,,,,,,,0,217,217,144,,,,,,,,,,,,,AMP,right,0.6003914752800483,0,,,,,,,,,,,,,,right,0,0.6003914752800483,,,,,,,,,,,1042,2019_Mar_13_0950,mf_amp_cond2,3.0.4,59.98766749964676,
honored,&&&&&&&,left,authority.virtue,dramens,,,,,,,,,,,,,,,0,218,218,165,,,,,,,,,,,,,AMP,right,0.6003677417465951,0,,,,,,,,,,,,,,right,0,0.6003677417465951,,,,,,,,,,,1042,2019_Mar_13_0950,mf_amp_cond2,3.0.4,59.98766749964676,
attacks,&&&&&&&&&&,right,care.vice,simplustic,,,,,,,,,,,,,,,0,219,219,159,,,,,,,,,,,,,AMP,left,0.46700314854388125,0,,,,,,,,,,,,,,left,0,0.46700314854388125,,,,,,,,,,,1042,2019_Mar_13_0950,mf_amp_cond2,3.0.4,59.98766749964676,
improve,&&&&&&&&&&&&,left,care.virtue,quarterbocks,,,,,,,,,,,,,,,0,220,220,155,,,,,,,,,,,,,AMP,left,1.9507179238426033,1,,,,,,,,,,,,,,left,1,1.9507179238426033,,,,,,,,,,,1042,2019_Mar_13_0950,mf_amp_cond2,3.0.4,59.98766749964676,
values,&&&&&&&&&&,left,sanctity.virtue,reelectiob,,,,,,,,,,,,,,,0,221,221,169,,,,,,,,,,,,,AMP,right,0.5670304421219043,0,,,,,,,,,,,,,,right,0,0.5670304421219043,,,,,,,,,,,1042,2019_Mar_13_0950,mf_amp_cond2,3.0.4,59.98766749964676,
lies,&&&&&&&&,right,fairness.vice,clamorek,,,,,,,,,,,,,,,0,222,222,115,,,,,,,,,,,,,AMP,left,0.4669899988803081,0,,,,,,,,,,,,,,left,0,0.4669899988803081,,,,,,,,,,,1042,2019_Mar_13_0950,mf_amp_cond2,3.0.4,59.98766749964676,
lies,&&&&&,right,fairness.vice,noped,,,,,,,,,,,,,,,0,223,223,271,,,,,,,,,,,,,AMP,left,0.46691078014555387,0,,,,,,,,,,,,,,left,0,0.46691078014555387,,,,,,,,,,,1042,2019_Mar_13_0950,mf_amp_cond2,3.0.4,59.98766749964676,
civilians,&&&&&&&&&&,right,care.vice,frocessing,,,,,,,,,,,,,,,0,224,224,263,,,,,,,,,,,,,AMP,right,0.6002224539406598,1,,,,,,,,,,,,,,right,1,0.6002224539406598,,,,,,,,,,,1042,2019_Mar_13_0950,mf_amp_cond2,3.0.4,59.98766749964676,
ensure,&&&&&&&,left,fairness.virtue,sickyay,,,,,,,,,,,,,,,0,225,225,253,,,,,,,,,,,,,AMP,right,0.9338327855803072,0,,,,,,,,,,,,,,right,0,0.9338327855803072,,,,,,,,,,,1042,2019_Mar_13_0950,mf_amp_cond2,3.0.4,59.98766749964676,
fear,&&&&&&&&,right,sanctity.vice,sfumatoy,,,,,,,,,,,,,,,0,226,226,96,,,,,,,,,,,,,AMP,left,4.4346899195807055,0,,,,,,,,,,,,,,left,0,4.4346899195807055,,,,,,,,,,,1042,2019_Mar_13_0950,mf_amp_cond2,3.0.4,59.98766749964676,
terrorist,&&&&&&&,right,loyalty.vice,sickyay,,,,,,,,,,,,,,,0,227,227,19,,,,,,,,,,,,,AMP,left,0.36702107699238695,0,,,,,,,,,,,,,,left,0,0.36702107699238695,,,,,,,,,,,1042,2019_Mar_13_0950,mf_amp_cond2,3.0.4,59.98766749964676,
care,&&&&&&&,left,care.virtue,Daptist,,,,,,,,,,,,,,,0,228,228,279,,,,,,,,,,,,,AMP,right,0.550370451877825,0,,,,,,,,,,,,,,right,0,0.550370451877825,,,,,,,,,,,1042,2019_Mar_13_0950,mf_amp_cond2,3.0.4,59.98766749964676,
restore,&&&&&&&&,left,care.virtue,divility,,,,,,,,,,,,,,,0,229,229,251,,,,,,,,,,,,,AMP,right,0.7170636851224117,0,,,,,,,,,,,,,,right,0,0.7170636851224117,,,,,,,,,,,1042,2019_Mar_13_0950,mf_amp_cond2,3.0.4,59.98766749964676,
civilians,&&&&&&&&&&&,right,care.vice,ilportation,,,,,,,,,,,,,,,0,230,230,190,,,,,,,,,,,,,AMP,right,0.7170800420281012,1,,,,,,,,,,,,,,right,1,0.7170800420281012,,,,,,,,,,,1042,2019_Mar_13_0950,mf_amp_cond2,3.0.4,59.98766749964676,
failure,&&&&&&&&&&&&,right,loyalty.vice,unreflectuve,,,,,,,,,,,,,,,0,231,231,41,,,,,,,,,,,,,AMP,left,2.6175550016923808,0,,,,,,,,,,,,,,left,0,2.6175550016923808,,,,,,,,,,,1042,2019_Mar_13_0950,mf_amp_cond2,3.0.4,59.98766749964676,
care,&&&&&&&&&&&&&,left,care.virtue,photocalkodes,,,,,,,,,,,,,,,0,232,232,90,,,,,,,,,,,,,AMP,right,0.30029484126134776,0,,,,,,,,,,,,,,right,0,0.30029484126134776,,,,,,,,,,,1042,2019_Mar_13_0950,mf_amp_cond2,3.0.4,59.98766749964676,
fair,&&&&&,left,fairness.virtue,lenon,,,,,,,,,,,,,,,0,233,233,265,,,,,,,,,,,,,AMP,right,0.2669017357111443,0,,,,,,,,,,,,,,right,0,0.2669017357111443,,,,,,,,,,,1042,2019_Mar_13_0950,mf_amp_cond2,3.0.4,59.98766749964676,
trust,&&&&&,left,authority.virtue,tabin,,,,,,,,,,,,,,,0,234,234,292,,,,,,,,,,,,,AMP,right,0.2669860860623885,0,,,,,,,,,,,,,,right,0,0.2669860860623885,,,,,,,,,,,1042,2019_Mar_13_0950,mf_amp_cond2,3.0.4,59.98766749964676,
great,&&&&&&&,left,loyalty.virtue,brudent,,,,,,,,,,,,,,,0,235,235,324,,,,,,,,,,,,,AMP,right,0.11691467693890445,0,,,,,,,,,,,,,,right,0,0.11691467693890445,,,,,,,,,,,1042,2019_Mar_13_0950,mf_amp_cond2,3.0.4,59.98766749964676,
improve,&&&&&&&,left,care.virtue,baklara,,,,,,,,,,,,,,,0,236,236,318,,,,,,,,,,,,,AMP,right,0.48366474243812263,0,,,,,,,,,,,,,,right,0,0.48366474243812263,,,,,,,,,,,1042,2019_Mar_13_0950,mf_amp_cond2,3.0.4,59.98766749964676,
rejected,&&&&&&,right,authority.vice,gikely,,,,,,,,,,,,,,,0,237,237,160,,,,,,,,,,,,,AMP,left,0.5170164746232331,0,,,,,,,,,,,,,,left,0,0.5170164746232331,,,,,,,,,,,1042,2019_Mar_13_0950,mf_amp_cond2,3.0.4,59.98766749964676,
restore,&&&&&&&&&&,left,care.virtue,gationwide,,,,,,,,,,,,,,,0,238,238,163,,,,,,,,,,,,,AMP,left,0.933802958286833,1,,,,,,,,,,,,,,left,1,0.933802958286833,,,,,,,,,,,1042,2019_Mar_13_0950,mf_amp_cond2,3.0.4,59.98766749964676,
critics,&&&&&&,right,loyalty.vice,papert,,,,,,,,,,,,,,,0,239,239,259,,,,,,,,,,,,,AMP,left,0.6170363915443886,0,,,,,,,,,,,,,,left,0,0.6170363915443886,,,,,,,,,,,1042,2019_Mar_13_0950,mf_amp_cond2,3.0.4,59.98766749964676,
freedom,&&&&&&&&&,left,sanctity.virtue,neputized,,,,,,,,,,,,,,,0,240,240,175,,,,,,,,,,,,,AMP,right,0.40033688812400214,0,,,,,,,,,,,,,,right,0,0.40033688812400214,,,,,,,,,,,1042,2019_Mar_13_0950,mf_amp_cond2,3.0.4,59.98766749964676,
encourage,&&&&&&&&&&&,left,authority.virtue,fornicalion,,,,,,,,,,,,,,,0,241,241,174,,,,,,,,,,,,,AMP,right,0.3503065637196414,0,,,,,,,,,,,,,,right,0,0.3503065637196414,,,,,,,,,,,1042,2019_Mar_13_0950,mf_amp_cond2,3.0.4,59.98766749964676,
loyalty,&&&&&&&&&&&&,left,loyalty.virtue,iptervention,,,,,,,,,,,,,,,0,242,242,193,,,,,,,,,,,,,AMP,right,0.31698016868904233,0,,,,,,,,,,,,,,right,0,0.31698016868904233,,,,,,,,,,,1042,2019_Mar_13_0950,mf_amp_cond2,3.0.4,59.98766749964676,
