words,nonwords,mask,corr_ans,category,tweets,topic,AMP_pracloop.thisRepN,AMP_pracloop.thisTrialN,AMP_pracloop.thisN,AMP_pracloop.thisIndex,AMP_trials.thisRepN,AMP_trials.thisTrialN,AMP_trials.thisN,AMP_trials.thisIndex,LDT_pracloop.thisRepN,LDT_pracloop.thisTrialN,LDT_pracloop.thisN,LDT_pracloop.thisIndex,LDT_trials.thisRepN,LDT_trials.thisTrialN,LDT_trials.thisN,LDT_trials.thisIndex,tweet_loop.thisRepN,tweet_loop.thisTrialN,tweet_loop.thisN,tweet_loop.thisIndex,begin_key.keys,begin_key.rt,key_resp_AMP_instr1.keys,key_resp_AMP_instr1.rt,resp_AMP_ready1.keys,resp_AMP_ready1.rt,resp_AMP_prac.keys,resp_AMP_prac.rt,task,keypress,RT,resp_AMP_ready.keys,resp_AMP_ready.rt,resp_AMP.keys,resp_AMP.corr,resp_AMP.rt,corr,AMP_nonword_rating.response,AMP_nonword_rating.rt,AMP_word_rating.response,AMP_word_rating.rt,AMP_random_rating.response,AMP_random_rating.rt,key_resp_LDT_instr.keys,key_resp_LDT_instr.rt,resp_LDT_prac.keys,resp_LDT_prac.rt,resp_LDT_ready.keys,resp_LDT_ready.rt,resp_LDT.keys,resp_LDT.corr,resp_LDT.rt,LDT_rating.response,LDT_rating.rt,key_resp_LDT_instr_2.keys,key_resp_LDT_instr_2.rt,resp_tweets.keys,resp_tweets.rt,participant,date,expName,psychopyVersion,frameRate,
,,,,,,,,,,,,,,,,,,,,,,,,,,,right,909.6378865541192,,,,,,,,,,,,,,,,,,,,,,,,,,,,,,,,,,,,,1043,2019_Mar_13_0950,mf_amp_cond1,3.0.4,60.062913916634585,
,,,,,,,,,,,,,,,,,,,,,,,,,,,,,right,7.335384115052875,,,,,,,,,,,,,,,,,,,,,,,,,,,,,,,,,,,1043,2019_Mar_13_0950,mf_amp_cond1,3.0.4,60.062913916634585,
,,,,,,,,,,,,,,,,,,,,,,,,,,,,,,,right,3.601146953908028,,,,,,,,,,,,,,,,,,,,,,,,,,,,,,,,,1043,2019_Mar_13_0950,mf_amp_cond1,3.0.4,60.062913916634585,
keyboard,senk,&&&&,,,,,0,0,0,2,,,,,,,,,,,,,,,,,,,,,,,right,4.117931121174479,AMP_prac,right,4.117931121174479,,,,,,,,,,,,,,,,,,,,,,,,,,,,1043,2019_Mar_13_0950,mf_amp_cond1,3.0.4,60.062913916634585,
banana,kacket,&&&&&&,,,,,0,1,1,1,,,,,,,,,,,,,,,,,,,,,,,right,1.4839259037398733,AMP_prac,right,1.4839259037398733,,,,,,,,,,,,,,,,,,,,,,,,,,,,1043,2019_Mar_13_0950,mf_amp_cond1,3.0.4,60.062913916634585,
car,cemtuper,&&&&&&&&,,,,,0,2,2,0,,,,,,,,,,,,,,,,,,,,,,,right,0.9837899190606549,AMP_prac,right,0.9837899190606549,,,,,,,,,,,,,,,,,,,,,,,,,,,,1043,2019_Mar_13_0950,mf_amp_cond1,3.0.4,60.062913916634585,
scarf,bisebell,&&&&&&&&,,,,,0,3,3,3,,,,,,,,,,,,,,,,,,,,,,,left,2.4674958098330535,AMP_prac,left,2.4674958098330535,,,,,,,,,,,,,,,,,,,,,,,,,,,,1043,2019_Mar_13_0950,mf_amp_cond1,3.0.4,60.062913916634585,
,,,,,,,,,,,,,,,,,,,,,,,,,,,,,,,,,,,,,,right,1.8506945802946575,,,,,,,,,,,,,,,,,,,,,,,,,,1043,2019_Mar_13_0950,mf_amp_cond1,3.0.4,60.062913916634585,
care,allears,&&&&&&&,left,care.virtue,,,,,,,0,0,0,0,,,,,,,,,,,,,,,,,,,,,AMP,left,1.7838779883750249,,,left,1,1.7838779883750249,1,,,,,,,,,,,,,,,,,,,,,,1043,2019_Mar_13_0950,mf_amp_cond1,3.0.4,60.062913916634585,
help,glacenta,&&&&&&&&,left,care.virtue,,,,,,,0,1,1,1,,,,,,,,,,,,,,,,,,,,,AMP,right,0.6337512083118781,,,right,0,0.6337512083118781,0,,,,,,,,,,,,,,,,,,,,,,1043,2019_Mar_13_0950,mf_amp_cond1,3.0.4,60.062913916634585,
protesters,atson,&&&&&,right,authority.vice,,,,,,,0,2,2,2,,,,,,,,,,,,,,,,,,,,,AMP,left,0.6837615033728071,,,left,0,0.6837615033728071,0,,,,,,,,,,,,,,,,,,,,,,1043,2019_Mar_13_0950,mf_amp_cond1,3.0.4,60.062913916634585,
great,lempestuous,&&&&&&&&&&&,left,loyalty.virtue,,,,,,,0,3,3,3,,,,,,,,,,,,,,,,,,,,,AMP,right,0.6670924740901683,,,right,0,0.6670924740901683,0,,,,,,,,,,,,,,,,,,,,,,1043,2019_Mar_13_0950,mf_amp_cond1,3.0.4,60.062913916634585,
freedom,spag,&&&&,left,sanctity.virtue,,,,,,,0,4,4,4,,,,,,,,,,,,,,,,,,,,,AMP,right,2.0340609583363403,,,right,0,2.0340609583363403,0,,,,,,,,,,,,,,,,,,,,,,1043,2019_Mar_13_0950,mf_amp_cond1,3.0.4,60.062913916634585,
fear,clattening,&&&&&&&&&&,right,sanctity.vice,,,,,,,0,5,5,5,,,,,,,,,,,,,,,,,,,,,AMP,left,1.7339886042464059,,,left,0,1.7339886042464059,0,,,,,,,,,,,,,,,,,,,,,,1043,2019_Mar_13_0950,mf_amp_cond1,3.0.4,60.062913916634585,
improve,totalestic,&&&&&&&&&&,left,care.virtue,,,,,,,0,6,6,6,,,,,,,,,,,,,,,,,,,,,AMP,right,1.2505540413840208,,,right,0,1.2505540413840208,0,,,,,,,,,,,,,,,,,,,,,,1043,2019_Mar_13_0950,mf_amp_cond1,3.0.4,60.062913916634585,
ability,pistraught,&&&&&&&&&&,left,authority.virtue,,,,,,,0,7,7,7,,,,,,,,,,,,,,,,,,,,,AMP,right,1.000500962487422,,,right,0,1.000500962487422,0,,,,,,,,,,,,,,,,,,,,,,1043,2019_Mar_13_0950,mf_amp_cond1,3.0.4,60.062913916634585,
values,tenuflect,&&&&&&&&&,left,sanctity.virtue,,,,,,,0,8,8,8,,,,,,,,,,,,,,,,,,,,,AMP,right,0.9504961196216755,,,right,0,0.9504961196216755,0,,,,,,,,,,,,,,,,,,,,,,1043,2019_Mar_13_0950,mf_amp_cond1,3.0.4,60.062913916634585,
war,vicissifude,&&&&&&&&&&&,right,sanctity.vice,,,,,,,0,9,9,9,,,,,,,,,,,,,,,,,,,,,AMP,left,0.5337049606896471,,,left,0,0.5337049606896471,0,,,,,,,,,,,,,,,,,,,,,,1043,2019_Mar_13_0950,mf_amp_cond1,3.0.4,60.062913916634585,
neputized,dumid,&&&&&,None,nonword,,,,,,,0,10,10,10,,,,,,,,,,,,,,,,,,,,,AMP,left,0.8170986639452167,,,left,0,0.8170986639452167,0,,,,,,,,,,,,,,,,,,,,,,1043,2019_Mar_13_0950,mf_amp_cond1,3.0.4,60.062913916634585,
promises,infet,&&&&&,left,fairness.virtue,,,,,,,0,11,11,11,,,,,,,,,,,,,,,,,,,,,AMP,right,0.600400320981862,,,right,0,0.600400320981862,0,,,,,,,,,,,,,,,,,,,,,,1043,2019_Mar_13_0950,mf_amp_cond1,3.0.4,60.062913916634585,
abointment,Oregoniuns,&&&&&&&&&&,None,nonword,,,,,,,0,12,12,12,,,,,,,,,,,,,,,,,,,,,AMP,left,0.46704327582847327,,,left,0,0.46704327582847327,0,,,,,,,,,,,,,,,,,,,,,,1043,2019_Mar_13_0950,mf_amp_cond1,3.0.4,60.062913916634585,
men,supervuned,&&&&&&&&&&,right,loyalty.vice,,,,,,,0,13,13,13,,,,,,,,,,,,,,,,,,,,,AMP,right,1.2672240328683984,,,right,1,1.2672240328683984,1,,,,,,,,,,,,,,,,,,,,,,1043,2019_Mar_13_0950,mf_amp_cond1,3.0.4,60.062913916634585,
celebrated,sickyay,&&&&&&&,left,authority.virtue,,,,,,,0,14,14,14,,,,,,,,,,,,,,,,,,,,,AMP,left,0.7504690509813372,,,left,1,0.7504690509813372,1,,,,,,,,,,,,,,,,,,,,,,1043,2019_Mar_13_0950,mf_amp_cond1,3.0.4,60.062913916634585,
lies,ning,&&&&,right,fairness.vice,,,,,,,0,15,15,15,,,,,,,,,,,,,,,,,,,,,AMP,left,1.0172055915463716,,,left,0,1.0172055915463716,0,,,,,,,,,,,,,,,,,,,,,,1043,2019_Mar_13_0950,mf_amp_cond1,3.0.4,60.062913916634585,
prosecution,festate,&&&&&&&,right,authority.vice,,,,,,,0,16,16,16,,,,,,,,,,,,,,,,,,,,,AMP,left,0.5670507165195886,,,left,0,0.5670507165195886,0,,,,,,,,,,,,,,,,,,,,,,1043,2019_Mar_13_0950,mf_amp_cond1,3.0.4,60.062913916634585,
party,imebreaker,&&&&&&&&&&,left,loyalty.virtue,,,,,,,0,17,17,17,,,,,,,,,,,,,,,,,,,,,AMP,right,0.4503604556375649,,,right,0,0.4503604556375649,0,,,,,,,,,,,,,,,,,,,,,,1043,2019_Mar_13_0950,mf_amp_cond1,3.0.4,60.062913916634585,
serial,gandbrake,&&&&&&&&&,right,sanctity.vice,,,,,,,0,18,18,18,,,,,,,,,,,,,,,,,,,,,AMP,left,0.5837235944345593,,,left,0,0.5837235944345593,0,,,,,,,,,,,,,,,,,,,,,,1043,2019_Mar_13_0950,mf_amp_cond1,3.0.4,60.062913916634585,
commitment,hatigue,&&&&&&&,left,sanctity.virtue,,,,,,,0,19,19,19,,,,,,,,,,,,,,,,,,,,,AMP,right,0.6003916615736671,,,right,0,0.6003916615736671,0,,,,,,,,,,,,,,,,,,,,,,1043,2019_Mar_13_0950,mf_amp_cond1,3.0.4,60.062913916634585,
gun,Boeinf,&&&&&&,right,authority.vice,,,,,,,0,20,20,20,,,,,,,,,,,,,,,,,,,,,AMP,left,0.40034470838145353,,,left,0,0.40034470838145353,0,,,,,,,,,,,,,,,,,,,,,,1043,2019_Mar_13_0950,mf_amp_cond1,3.0.4,60.062913916634585,
compassion,tracious,&&&&&&&&,left,care.virtue,,,,,,,0,21,21,21,,,,,,,,,,,,,,,,,,,,,AMP,right,0.9671571309445426,,,right,0,0.9671571309445426,0,,,,,,,,,,,,,,,,,,,,,,1043,2019_Mar_13_0950,mf_amp_cond1,3.0.4,60.062913916634585,
fighters,faspberry,&&&&&&&&&,right,authority.vice,,,,,,,0,22,22,22,,,,,,,,,,,,,,,,,,,,,AMP,left,0.7337746849225368,,,left,0,0.7337746849225368,0,,,,,,,,,,,,,,,,,,,,,,1043,2019_Mar_13_0950,mf_amp_cond1,3.0.4,60.062913916634585,
gusinesslike,slending,&&&&&&&&,None,nonword,,,,,,,0,23,23,23,,,,,,,,,,,,,,,,,,,,,AMP,left,1.0671735517389607,,,left,0,1.0671735517389607,0,,,,,,,,,,,,,,,,,,,,,,1043,2019_Mar_13_0950,mf_amp_cond1,3.0.4,60.062913916634585,
threatened,pullness,&&&&&&&&,right,fairness.vice,,,,,,,0,24,24,24,,,,,,,,,,,,,,,,,,,,,AMP,left,0.650420237594517,,,left,0,0.650420237594517,0,,,,,,,,,,,,,,,,,,,,,,1043,2019_Mar_13_0950,mf_amp_cond1,3.0.4,60.062913916634585,
encourage,Loorish,&&&&&&&,left,authority.virtue,,,,,,,0,25,25,25,,,,,,,,,,,,,,,,,,,,,AMP,right,0.35033152683172375,,,right,0,0.35033152683172375,0,,,,,,,,,,,,,,,,,,,,,,1043,2019_Mar_13_0950,mf_amp_cond1,3.0.4,60.062913916634585,
unpleasant,gaultless,&&&&&&&&&,None,control,,,,,,,0,26,26,26,,,,,,,,,,,,,,,,,,,,,AMP,left,0.4837110222724732,,,left,0,0.4837110222724732,0,,,,,,,,,,,,,,,,,,,,,,1043,2019_Mar_13_0950,mf_amp_cond1,3.0.4,60.062913916634585,
black,lursuer,&&&&&&&,right,loyalty.vice,,,,,,,0,27,27,27,,,,,,,,,,,,,,,,,,,,,AMP,right,0.6670732309576124,,,right,1,0.6670732309576124,1,,,,,,,,,,,,,,,,,,,,,,1043,2019_Mar_13_0950,mf_amp_cond1,3.0.4,60.062913916634585,
forced,fonderland,&&&&&&&&&&,right,fairness.vice,,,,,,,0,28,28,28,,,,,,,,,,,,,,,,,,,,,AMP,left,0.4670285227766726,,,left,0,0.4670285227766726,0,,,,,,,,,,,,,,,,,,,,,,1043,2019_Mar_13_0950,mf_amp_cond1,3.0.4,60.062913916634585,
violence,chonograph,&&&&&&&&&&,right,care.vice,,,,,,,0,29,29,29,,,,,,,,,,,,,,,,,,,,,AMP,right,0.5504147212195676,,,right,1,0.5504147212195676,1,,,,,,,,,,,,,,,,,,,,,,1043,2019_Mar_13_0950,mf_amp_cond1,3.0.4,60.062913916634585,
good,tove,&&&&,left,care.virtue,,,,,,,0,30,30,30,,,,,,,,,,,,,,,,,,,,,AMP,right,1.400581398716895,,,right,0,1.400581398716895,0,,,,,,,,,,,,,,,,,,,,,,1043,2019_Mar_13_0950,mf_amp_cond1,3.0.4,60.062913916634585,
illegal,gationwide,&&&&&&&&&&,right,fairness.vice,,,,,,,0,31,31,31,,,,,,,,,,,,,,,,,,,,,AMP,left,0.5503823286562692,,,left,0,0.5503823286562692,0,,,,,,,,,,,,,,,,,,,,,,1043,2019_Mar_13_0950,mf_amp_cond1,3.0.4,60.062913916634585,
chressing,sowntrodden,&&&&&&&&&&&,None,nonword,,,,,,,0,32,32,32,,,,,,,,,,,,,,,,,,,,,AMP,right,1.0505022774159443,,,right,0,1.0505022774159443,0,,,,,,,,,,,,,,,,,,,,,,1043,2019_Mar_13_0950,mf_amp_cond1,3.0.4,60.062913916634585,
civilians,ebbitter,&&&&&&&&,right,care.vice,,,,,,,0,33,33,33,,,,,,,,,,,,,,,,,,,,,AMP,right,1.250570077332668,,,right,1,1.250570077332668,1,,,,,,,,,,,,,,,,,,,,,,1043,2019_Mar_13_0950,mf_amp_cond1,3.0.4,60.062913916634585,
promote,antral,&&&&&&,left,sanctity.virtue,,,,,,,0,34,34,34,,,,,,,,,,,,,,,,,,,,,AMP,right,1.000484605814563,,,right,0,1.000484605814563,0,,,,,,,,,,,,,,,,,,,,,,1043,2019_Mar_13_0950,mf_amp_cond1,3.0.4,60.062913916634585,
penalty,aubos,&&&&&,right,authority.vice,,,,,,,0,35,35,35,,,,,,,,,,,,,,,,,,,,,AMP,left,0.5503717449610122,,,left,0,0.5503717449610122,0,,,,,,,,,,,,,,,,,,,,,,1043,2019_Mar_13_0950,mf_amp_cond1,3.0.4,60.062913916634585,
progress,lachelor,&&&&&&&&,left,authority.virtue,,,,,,,0,36,36,36,,,,,,,,,,,,,,,,,,,,,AMP,right,1.0005266199586913,,,right,0,1.0005266199586913,0,,,,,,,,,,,,,,,,,,,,,,1043,2019_Mar_13_0950,mf_amp_cond1,3.0.4,60.062913916634585,
racist,metibolic,&&&&&&&&&,right,sanctity.vice,,,,,,,0,37,37,37,,,,,,,,,,,,,,,,,,,,,AMP,left,0.7504328097857069,,,left,0,0.7504328097857069,0,,,,,,,,,,,,,,,,,,,,,,1043,2019_Mar_13_0950,mf_amp_cond1,3.0.4,60.062913916634585,
energy,sonvoy,&&&&&&,left,sanctity.virtue,,,,,,,0,38,38,38,,,,,,,,,,,,,,,,,,,,,AMP,right,0.9504576333856676,,,right,0,0.9504576333856676,0,,,,,,,,,,,,,,,,,,,,,,1043,2019_Mar_13_0950,mf_amp_cond1,3.0.4,60.062913916634585,
pleasant,nomparisons,&&&&&&&&&&&,None,control,,,,,,,0,39,39,39,,,,,,,,,,,,,,,,,,,,,AMP,left,0.76713615594781,,,left,0,0.76713615594781,0,,,,,,,,,,,,,,,,,,,,,,1043,2019_Mar_13_0950,mf_amp_cond1,3.0.4,60.062913916634585,
sexual,precificity,&&&&&&&&&&&,right,sanctity.vice,,,,,,,0,40,40,40,,,,,,,,,,,,,,,,,,,,,AMP,right,0.46706476400140673,,,right,1,0.46706476400140673,1,,,,,,,,,,,,,,,,,,,,,,1043,2019_Mar_13_0950,mf_amp_cond1,3.0.4,60.062913916634585,
bluently,gournful,&&&&&&&&,None,nonword,,,,,,,0,41,41,41,,,,,,,,,,,,,,,,,,,,,AMP,left,0.5170426664699335,,,left,0,0.5170426664699335,0,,,,,,,,,,,,,,,,,,,,,,1043,2019_Mar_13_0950,mf_amp_cond1,3.0.4,60.062913916634585,
safe,proached,&&&&&&&&,left,care.virtue,,,,,,,0,42,42,42,,,,,,,,,,,,,,,,,,,,,AMP,right,0.5170433079183567,,,right,0,0.5170433079183567,0,,,,,,,,,,,,,,,,,,,,,,1043,2019_Mar_13_0950,mf_amp_cond1,3.0.4,60.062913916634585,
free,mightingale,&&&&&&&&&&&,left,fairness.virtue,,,,,,,0,43,43,43,,,,,,,,,,,,,,,,,,,,,AMP,right,0.5670478300307877,,,right,0,0.5670478300307877,0,,,,,,,,,,,,,,,,,,,,,,1043,2019_Mar_13_0950,mf_amp_cond1,3.0.4,60.062913916634585,
integrity,sidearbs,&&&&&&&&,left,fairness.virtue,,,,,,,0,44,44,44,,,,,,,,,,,,,,,,,,,,,AMP,left,0.5670423778356053,,,left,1,0.5670423778356053,1,,,,,,,,,,,,,,,,,,,,,,1043,2019_Mar_13_0950,mf_amp_cond1,3.0.4,60.062913916634585,
cromiscuity,wump,&&&&,None,nonword,,,,,,,0,45,45,45,,,,,,,,,,,,,,,,,,,,,AMP,right,1.4005945481767412,,,right,0,1.4005945481767412,0,,,,,,,,,,,,,,,,,,,,,,1043,2019_Mar_13_0950,mf_amp_cond1,3.0.4,60.062913916634585,
sharing,prones,&&&&&&,left,loyalty.virtue,,,,,,,0,46,46,46,,,,,,,,,,,,,,,,,,,,,AMP,right,1.1505244711588603,,,right,0,1.1505244711588603,0,,,,,,,,,,,,,,,,,,,,,,1043,2019_Mar_13_0950,mf_amp_cond1,3.0.4,60.062913916634585,
baladroit,egpeditious,&&&&&&&&&&&,None,nonword,,,,,,,0,47,47,47,,,,,,,,,,,,,,,,,,,,,AMP,left,0.46704391727689654,,,left,0,0.46704391727689654,0,,,,,,,,,,,,,,,,,,,,,,1043,2019_Mar_13_0950,mf_amp_cond1,3.0.4,60.062913916634585,
corruption,presentkess,&&&&&&&&&&&,right,sanctity.vice,,,,,,,0,48,48,48,,,,,,,,,,,,,,,,,,,,,AMP,left,0.5504657154961023,,,left,0,0.5504657154961023,0,,,,,,,,,,,,,,,,,,,,,,1043,2019_Mar_13_0950,mf_amp_cond1,3.0.4,60.062913916634585,
crime,ammessment,&&&&&&&&&&,right,fairness.vice,,,,,,,0,49,49,49,,,,,,,,,,,,,,,,,,,,,AMP,left,1.0171616530860774,,,left,0,1.0171616530860774,0,,,,,,,,,,,,,,,,,,,,,,1043,2019_Mar_13_0950,mf_amp_cond1,3.0.4,60.062913916634585,
killed,pumber,&&&&&&,right,care.vice,,,,,,,0,50,50,50,,,,,,,,,,,,,,,,,,,,,AMP,left,0.5837389889347833,,,left,0,0.5837389889347833,0,,,,,,,,,,,,,,,,,,,,,,1043,2019_Mar_13_0950,mf_amp_cond1,3.0.4,60.062913916634585,
peaceful,framatic,&&&&&&&&,left,authority.virtue,,,,,,,0,51,51,51,,,,,,,,,,,,,,,,,,,,,AMP,right,0.48369274131255224,,,right,0,0.48369274131255224,0,,,,,,,,,,,,,,,,,,,,,,1043,2019_Mar_13_0950,mf_amp_cond1,3.0.4,60.062913916634585,
benefit,uller,&&&&&,left,fairness.virtue,,,,,,,0,52,52,52,,,,,,,,,,,,,,,,,,,,,AMP,left,0.5337200344365556,,,left,1,0.5337200344365556,1,,,,,,,,,,,,,,,,,,,,,,1043,2019_Mar_13_0950,mf_amp_cond1,3.0.4,60.062913916634585,
squets,pafer,&&&&&,None,nonword,,,,,,,0,53,53,53,,,,,,,,,,,,,,,,,,,,,AMP,left,1.750731398788048,,,left,0,1.750731398788048,0,,,,,,,,,,,,,,,,,,,,,,1043,2019_Mar_13_0950,mf_amp_cond1,3.0.4,60.062913916634585,
critics,gowlands,&&&&&&&&,right,loyalty.vice,,,,,,,0,54,54,54,,,,,,,,,,,,,,,,,,,,,AMP,left,0.5670542444277089,,,left,0,0.5670542444277089,0,,,,,,,,,,,,,,,,,,,,,,1043,2019_Mar_13_0950,mf_amp_cond1,3.0.4,60.062913916634585,
clean,synchronazers,&&&&&&&&&&&&&,left,sanctity.virtue,,,,,,,0,55,55,55,,,,,,,,,,,,,,,,,,,,,AMP,right,0.40033604894415475,,,right,0,0.40033604894415475,0,,,,,,,,,,,,,,,,,,,,,,1043,2019_Mar_13_0950,mf_amp_cond1,3.0.4,60.062913916634585,
abuse,chreams,&&&&&&&,right,sanctity.vice,,,,,,,0,56,56,56,,,,,,,,,,,,,,,,,,,,,AMP,left,0.5170272719697095,,,left,0,0.5170272719697095,0,,,,,,,,,,,,,,,,,,,,,,1043,2019_Mar_13_0950,mf_amp_cond1,3.0.4,60.062913916634585,
protect,fostet,&&&&&&,left,fairness.virtue,,,,,,,0,57,57,57,,,,,,,,,,,,,,,,,,,,,AMP,right,0.43372862969408743,,,right,0,0.43372862969408743,0,,,,,,,,,,,,,,,,,,,,,,1043,2019_Mar_13_0950,mf_amp_cond1,3.0.4,60.062913916634585,
torture,perified,&&&&&&&&,right,care.vice,,,,,,,0,58,58,58,,,,,,,,,,,,,,,,,,,,,AMP,left,0.4003411804733332,,,left,0,0.4003411804733332,0,,,,,,,,,,,,,,,,,,,,,,1043,2019_Mar_13_0950,mf_amp_cond1,3.0.4,60.062913916634585,
win,laming,&&&&&&,left,fairness.virtue,,,,,,,0,59,59,59,,,,,,,,,,,,,,,,,,,,,AMP,right,0.583756628446281,,,right,0,0.583756628446281,0,,,,,,,,,,,,,,,,,,,,,,1043,2019_Mar_13_0950,mf_amp_cond1,3.0.4,60.062913916634585,
blamed,gondensed,&&&&&&&&&,right,loyalty.vice,,,,,,,0,60,60,60,,,,,,,,,,,,,,,,,,,,,AMP,left,1.150522867566906,,,left,0,1.150522867566906,0,,,,,,,,,,,,,,,,,,,,,,1043,2019_Mar_13_0950,mf_amp_cond1,3.0.4,60.062913916634585,
yane,focomotive,&&&&&&&&&&,None,nonword,,,,,,,0,61,61,61,,,,,,,,,,,,,,,,,,,,,AMP,left,0.5170356106827967,,,left,0,0.5170356106827967,0,,,,,,,,,,,,,,,,,,,,,,1043,2019_Mar_13_0950,mf_amp_cond1,3.0.4,60.062913916634585,
peace,reelectiob,&&&&&&&&&&,left,care.virtue,,,,,,,0,62,62,62,,,,,,,,,,,,,,,,,,,,,AMP,right,0.4503578899020795,,,right,0,0.4503578899020795,0,,,,,,,,,,,,,,,,,,,,,,1043,2019_Mar_13_0950,mf_amp_cond1,3.0.4,60.062913916634585,
death,drumbled,&&&&&&&&,right,care.vice,,,,,,,0,63,63,63,,,,,,,,,,,,,,,,,,,,,AMP,left,0.45039413109770976,,,left,0,0.45039413109770976,0,,,,,,,,,,,,,,,,,,,,,,1043,2019_Mar_13_0950,mf_amp_cond1,3.0.4,60.062913916634585,
framo,counpy's,&&&&&&&&,None,nonword,,,,,,,0,64,64,64,,,,,,,,,,,,,,,,,,,,,AMP,left,0.7837715097994078,,,left,0,0.7837715097994078,0,,,,,,,,,,,,,,,,,,,,,,1043,2019_Mar_13_0950,mf_amp_cond1,3.0.4,60.062913916634585,
perfect,gillipede,&&&&&&&&&,left,sanctity.virtue,,,,,,,0,65,65,65,,,,,,,,,,,,,,,,,,,,,AMP,left,1.1171963548404165,,,left,1,1.1171963548404165,1,,,,,,,,,,,,,,,,,,,,,,1043,2019_Mar_13_0950,mf_amp_cond1,3.0.4,60.062913916634585,
army,lorthwhile,&&&&&&&&&&,right,loyalty.vice,,,,,,,0,66,66,66,,,,,,,,,,,,,,,,,,,,,AMP,left,2.4174951362947468,,,left,0,2.4174951362947468,0,,,,,,,,,,,,,,,,,,,,,,1043,2019_Mar_13_0950,mf_amp_cond1,3.0.4,60.062913916634585,
strong,iptervention,&&&&&&&&&&&&,left,loyalty.virtue,,,,,,,0,67,67,67,,,,,,,,,,,,,,,,,,,,,AMP,right,0.4170172655431088,,,right,0,0.4170172655431088,0,,,,,,,,,,,,,,,,,,,,,,1043,2019_Mar_13_0950,mf_amp_cond1,3.0.4,60.062913916634585,
hate,frojecting,&&&&&&&&&&,right,fairness.vice,,,,,,,0,68,68,68,,,,,,,,,,,,,,,,,,,,,AMP,left,0.5503624441043939,,,left,0,0.5503624441043939,0,,,,,,,,,,,,,,,,,,,,,,1043,2019_Mar_13_0950,mf_amp_cond1,3.0.4,60.062913916634585,
voter,brotesque,&&&&&&&&&,right,fairness.vice,,,,,,,0,69,69,69,,,,,,,,,,,,,,,,,,,,,AMP,right,0.6670822110609151,,,right,1,0.6670822110609151,1,,,,,,,,,,,,,,,,,,,,,,1043,2019_Mar_13_0950,mf_amp_cond1,3.0.4,60.062913916634585,
shot,simplustic,&&&&&&&&&&,right,care.vice,,,,,,,0,70,70,70,,,,,,,,,,,,,,,,,,,,,AMP,left,0.650409653870156,,,left,0,0.650409653870156,0,,,,,,,,,,,,,,,,,,,,,,1043,2019_Mar_13_0950,mf_amp_cond1,3.0.4,60.062913916634585,
loyalty,bruthfulness,&&&&&&&&&&&&,left,loyalty.virtue,,,,,,,0,71,71,71,,,,,,,,,,,,,,,,,,,,,AMP,right,0.6003987173899077,,,right,0,0.6003987173899077,0,,,,,,,,,,,,,,,,,,,,,,1043,2019_Mar_13_0950,mf_amp_cond1,3.0.4,60.062913916634585,
victim,nackers,&&&&&&&,right,care.vice,,,,,,,0,72,72,72,,,,,,,,,,,,,,,,,,,,,AMP,left,0.6504240862268489,,,left,0,0.6504240862268489,0,,,,,,,,,,,,,,,,,,,,,,1043,2019_Mar_13_0950,mf_amp_cond1,3.0.4,60.062913916634585,
love,discovars,&&&&&&&&&,left,loyalty.virtue,,,,,,,0,73,73,73,,,,,,,,,,,,,,,,,,,,,AMP,right,0.3001801155915018,,,right,0,0.3001801155915018,0,,,,,,,,,,,,,,,,,,,,,,1043,2019_Mar_13_0950,mf_amp_cond1,3.0.4,60.062913916634585,
failure,lenon,&&&&&,right,loyalty.vice,,,,,,,0,74,74,74,,,,,,,,,,,,,,,,,,,,,AMP,left,0.4170227177964989,,,left,0,0.4170227177964989,0,,,,,,,,,,,,,,,,,,,,,,1043,2019_Mar_13_0950,mf_amp_cond1,3.0.4,60.062913916634585,
powerful,idexpressible,&&&&&&&&&&&&&,left,authority.virtue,,,,,,,0,75,75,75,,,,,,,,,,,,,,,,,,,,,AMP,left,1.0671992092393339,,,left,1,1.0671992092393339,1,,,,,,,,,,,,,,,,,,,,,,1043,2019_Mar_13_0950,mf_amp_cond1,3.0.4,60.062913916634585,
agreement,hescribe,&&&&&&&&,left,fairness.virtue,,,,,,,0,76,76,76,,,,,,,,,,,,,,,,,,,,,AMP,right,0.4336984821711667,,,right,0,0.4336984821711667,0,,,,,,,,,,,,,,,,,,,,,,1043,2019_Mar_13_0950,mf_amp_cond1,3.0.4,60.062913916634585,
arrests,fegard,&&&&&&,right,authority.vice,,,,,,,0,77,77,77,,,,,,,,,,,,,,,,,,,,,AMP,left,0.7502997115370817,,,left,0,0.7502997115370817,0,,,,,,,,,,,,,,,,,,,,,,1043,2019_Mar_13_0950,mf_amp_cond1,3.0.4,60.062913916634585,
friends,epigrach,&&&&&&&&,left,loyalty.virtue,,,,,,,0,78,78,78,,,,,,,,,,,,,,,,,,,,,AMP,right,0.7837663782993332,,,right,0,0.7837663782993332,0,,,,,,,,,,,,,,,,,,,,,,1043,2019_Mar_13_0950,mf_amp_cond1,3.0.4,60.062913916634585,
trust,ronviolence,&&&&&&&&&&&,left,authority.virtue,,,,,,,0,79,79,79,,,,,,,,,,,,,,,,,,,,,AMP,right,0.6337377381278202,,,right,0,0.6337377381278202,0,,,,,,,,,,,,,,,,,,,,,,1043,2019_Mar_13_0950,mf_amp_cond1,3.0.4,60.062913916634585,
slavery,esquisiteness,&&&&&&&&&&&&&,right,loyalty.vice,,,,,,,0,80,80,80,,,,,,,,,,,,,,,,,,,,,AMP,left,0.5503820079320576,,,left,0,0.5503820079320576,0,,,,,,,,,,,,,,,,,,,,,,1043,2019_Mar_13_0950,mf_amp_cond1,3.0.4,60.062913916634585,
rebels,frocessing,&&&&&&&&&&,right,authority.vice,,,,,,,0,81,81,81,,,,,,,,,,,,,,,,,,,,,AMP,right,1.4839400153723545,,,right,1,1.4839400153723545,1,,,,,,,,,,,,,,,,,,,,,,1043,2019_Mar_13_0950,mf_amp_cond1,3.0.4,60.062913916634585,
slavery,framatic,&&&&&&&&,right,loyalty.vice,,,,,,,0,82,82,82,,,,,,,,,,,,,,,,,,,,,AMP,left,0.6670780417625792,,,left,0,0.6670780417625792,0,,,,,,,,,,,,,,,,,,,,,,1043,2019_Mar_13_0950,mf_amp_cond1,3.0.4,60.062913916634585,
prosecution,nomparisons,&&&&&&&&&&&,right,authority.vice,,,,,,,0,83,83,83,,,,,,,,,,,,,,,,,,,,,AMP,left,3.2343298488121945,,,left,0,3.2343298488121945,0,,,,,,,,,,,,,,,,,,,,,,1043,2019_Mar_13_0950,mf_amp_cond1,3.0.4,60.062913916634585,
free,esquisiteness,&&&&&&&&&&&&&,left,fairness.virtue,,,,,,,0,84,84,84,,,,,,,,,,,,,,,,,,,,,AMP,right,0.40034759481204674,,,right,0,0.40034759481204674,0,,,,,,,,,,,,,,,,,,,,,,1043,2019_Mar_13_0950,mf_amp_cond1,3.0.4,60.062913916634585,
peace,laming,&&&&&&,left,care.virtue,,,,,,,0,85,85,85,,,,,,,,,,,,,,,,,,,,,AMP,right,0.5503800836158916,,,right,0,0.5503800836158916,0,,,,,,,,,,,,,,,,,,,,,,1043,2019_Mar_13_0950,mf_amp_cond1,3.0.4,60.062913916634585,
great,frojecting,&&&&&&&&&&,left,loyalty.virtue,,,,,,,0,86,86,86,,,,,,,,,,,,,,,,,,,,,AMP,right,0.6169160467688926,,,right,0,0.6169160467688926,0,,,,,,,,,,,,,,,,,,,,,,1043,2019_Mar_13_0950,mf_amp_cond1,3.0.4,60.062913916634585,
party,wump,&&&&,left,loyalty.virtue,,,,,,,0,87,87,87,,,,,,,,,,,,,,,,,,,,,AMP,right,0.600385888654273,,,right,0,0.600385888654273,0,,,,,,,,,,,,,,,,,,,,,,1043,2019_Mar_13_0950,mf_amp_cond1,3.0.4,60.062913916634585,
army,faspberry,&&&&&&&&&,right,loyalty.vice,,,,,,,0,88,88,88,,,,,,,,,,,,,,,,,,,,,AMP,left,0.6670751552737784,,,left,0,0.6670751552737784,0,,,,,,,,,,,,,,,,,,,,,,1043,2019_Mar_13_0950,mf_amp_cond1,3.0.4,60.062913916634585,
threatened,glacenta,&&&&&&&&,right,fairness.vice,,,,,,,0,89,89,89,,,,,,,,,,,,,,,,,,,,,AMP,left,1.4005781915329862,,,left,0,1.4005781915329862,0,,,,,,,,,,,,,,,,,,,,,,1043,2019_Mar_13_0950,mf_amp_cond1,3.0.4,60.062913916634585,
shot,bruthfulness,&&&&&&&&&&&&,right,care.vice,,,,,,,0,90,90,90,,,,,,,,,,,,,,,,,,,,,AMP,left,0.5170641546137631,,,left,0,0.5170641546137631,0,,,,,,,,,,,,,,,,,,,,,,1043,2019_Mar_13_0950,mf_amp_cond1,3.0.4,60.062913916634585,
failure,fonderland,&&&&&&&&&&,right,loyalty.vice,,,,,,,0,91,91,91,,,,,,,,,,,,,,,,,,,,,AMP,left,0.7837622089718934,,,left,0,0.7837622089718934,0,,,,,,,,,,,,,,,,,,,,,,1043,2019_Mar_13_0950,mf_amp_cond1,3.0.4,60.062913916634585,
corruption,iptervention,&&&&&&&&&&&&,right,sanctity.vice,,,,,,,0,92,92,92,,,,,,,,,,,,,,,,,,,,,AMP,left,0.7337644218932837,,,left,0,0.7337644218932837,0,,,,,,,,,,,,,,,,,,,,,,1043,2019_Mar_13_0950,mf_amp_cond1,3.0.4,60.062913916634585,
framo,ammessment,&&&&&&&&&&,None,nonword,,,,,,,0,93,93,93,,,,,,,,,,,,,,,,,,,,,AMP,left,1.4506035603699274,,,left,0,1.4506035603699274,0,,,,,,,,,,,,,,,,,,,,,,1043,2019_Mar_13_0950,mf_amp_cond1,3.0.4,60.062913916634585,
rebels,gaultless,&&&&&&&&&,right,authority.vice,,,,,,,0,94,94,94,,,,,,,,,,,,,,,,,,,,,AMP,right,1.8840493162570056,,,right,1,1.8840493162570056,1,,,,,,,,,,,,,,,,,,,,,,1043,2019_Mar_13_0950,mf_amp_cond1,3.0.4,60.062913916634585,
compassion,gationwide,&&&&&&&&&&,left,care.virtue,,,,,,,0,95,95,95,,,,,,,,,,,,,,,,,,,,,AMP,right,0.6670902290497907,,,right,0,0.6670902290497907,0,,,,,,,,,,,,,,,,,,,,,,1043,2019_Mar_13_0950,mf_amp_cond1,3.0.4,60.062913916634585,
sexual,fostet,&&&&&&,right,sanctity.vice,,,,,,,0,96,96,96,,,,,,,,,,,,,,,,,,,,,AMP,right,1.7340046401659492,,,right,1,1.7340046401659492,1,,,,,,,,,,,,,,,,,,,,,,1043,2019_Mar_13_0950,mf_amp_cond1,3.0.4,60.062913916634585,
peaceful,precificity,&&&&&&&&&&&,left,authority.virtue,,,,,,,0,97,97,97,,,,,,,,,,,,,,,,,,,,,AMP,right,1.1171928269322962,,,right,0,1.1171928269322962,0,,,,,,,,,,,,,,,,,,,,,,1043,2019_Mar_13_0950,mf_amp_cond1,3.0.4,60.062913916634585,
commitment,totalestic,&&&&&&&&&&,left,sanctity.virtue,,,,,,,0,98,98,98,,,,,,,,,,,,,,,,,,,,,AMP,right,0.8838171159732156,,,right,0,0.8838171159732156,0,,,,,,,,,,,,,,,,,,,,,,1043,2019_Mar_13_0950,mf_amp_cond1,3.0.4,60.062913916634585,
benefit,aubos,&&&&&,left,fairness.virtue,,,,,,,0,99,99,99,,,,,,,,,,,,,,,,,,,,,AMP,right,1.0338476804608945,,,right,0,1.0338476804608945,0,,,,,,,,,,,,,,,,,,,,,,1043,2019_Mar_13_0950,mf_amp_cond1,3.0.4,60.062913916634585,
help,counpy's,&&&&&&&&,left,care.virtue,,,,,,,0,100,100,100,,,,,,,,,,,,,,,,,,,,,AMP,right,1.0005458630912472,,,right,0,1.0005458630912472,0,,,,,,,,,,,,,,,,,,,,,,1043,2019_Mar_13_0950,mf_amp_cond1,3.0.4,60.062913916634585,
hate,sonvoy,&&&&&&,right,fairness.vice,,,,,,,0,101,101,101,,,,,,,,,,,,,,,,,,,,,AMP,left,0.4337055379874073,,,left,0,0.4337055379874073,0,,,,,,,,,,,,,,,,,,,,,,1043,2019_Mar_13_0950,mf_amp_cond1,3.0.4,60.062913916634585,
promote,pumber,&&&&&&,left,sanctity.virtue,,,,,,,0,102,102,102,,,,,,,,,,,,,,,,,,,,,AMP,left,0.7170944304671139,,,left,1,0.7170944304671139,1,,,,,,,,,,,,,,,,,,,,,,1043,2019_Mar_13_0950,mf_amp_cond1,3.0.4,60.062913916634585,
blamed,nackers,&&&&&&&,right,loyalty.vice,,,,,,,0,103,103,103,,,,,,,,,,,,,,,,,,,,,AMP,left,0.6170651809079573,,,left,0,0.6170651809079573,0,,,,,,,,,,,,,,,,,,,,,,1043,2019_Mar_13_0950,mf_amp_cond1,3.0.4,60.062913916634585,
progress,gandbrake,&&&&&&&&&,left,authority.virtue,,,,,,,0,104,104,104,,,,,,,,,,,,,,,,,,,,,AMP,right,0.4836981935368385,,,right,0,0.4836981935368385,0,,,,,,,,,,,,,,,,,,,,,,1043,2019_Mar_13_0950,mf_amp_cond1,3.0.4,60.062913916634585,
voter,perified,&&&&&&&&,right,fairness.vice,,,,,,,0,105,105,105,,,,,,,,,,,,,,,,,,,,,AMP,left,1.217208606278291,,,left,0,1.217208606278291,0,,,,,,,,,,,,,,,,,,,,,,1043,2019_Mar_13_0950,mf_amp_cond1,3.0.4,60.062913916634585,
squets,slending,&&&&&&&&,None,nonword,,,,,,,0,106,106,106,,,,,,,,,,,,,,,,,,,,,AMP,left,1.1505478836188558,,,left,0,1.1505478836188558,0,,,,,,,,,,,,,,,,,,,,,,1043,2019_Mar_13_0950,mf_amp_cond1,3.0.4,60.062913916634585,
chressing,brotesque,&&&&&&&&&,None,nonword,,,,,,,0,107,107,107,,,,,,,,,,,,,,,,,,,,,AMP,left,2.967495489108842,,,left,0,2.967495489108842,0,,,,,,,,,,,,,,,,,,,,,,1043,2019_Mar_13_0950,mf_amp_cond1,3.0.4,60.062913916634585,
serial,atson,&&&&&,right,sanctity.vice,,,,,,,0,108,108,108,,,,,,,,,,,,,,,,,,,,,AMP,left,0.5670949757040944,,,left,0,0.5670949757040944,0,,,,,,,,,,,,,,,,,,,,,,1043,2019_Mar_13_0950,mf_amp_cond1,3.0.4,60.062913916634585,
strong,clattening,&&&&&&&&&&,left,loyalty.virtue,,,,,,,0,109,109,109,,,,,,,,,,,,,,,,,,,,,AMP,right,0.417016944848001,,,right,0,0.417016944848001,0,,,,,,,,,,,,,,,,,,,,,,1043,2019_Mar_13_0950,mf_amp_cond1,3.0.4,60.062913916634585,
war,presentkess,&&&&&&&&&&&,right,sanctity.vice,,,,,,,0,110,110,110,,,,,,,,,,,,,,,,,,,,,AMP,left,1.4506147855136078,,,left,0,1.4506147855136078,0,,,,,,,,,,,,,,,,,,,,,,1043,2019_Mar_13_0950,mf_amp_cond1,3.0.4,60.062913916634585,
crime,sickyay,&&&&&&&,right,fairness.vice,,,,,,,0,111,111,111,,,,,,,,,,,,,,,,,,,,,AMP,left,0.6337313237600029,,,left,0,0.6337313237600029,0,,,,,,,,,,,,,,,,,,,,,,1043,2019_Mar_13_0950,mf_amp_cond1,3.0.4,60.062913916634585,
promises,hatigue,&&&&&&&,left,fairness.virtue,,,,,,,0,112,112,112,,,,,,,,,,,,,,,,,,,,,AMP,right,1.4506109369103797,,,right,0,1.4506109369103797,0,,,,,,,,,,,,,,,,,,,,,,1043,2019_Mar_13_0950,mf_amp_cond1,3.0.4,60.062913916634585,
integrity,tracious,&&&&&&&&,left,fairness.virtue,,,,,,,0,113,113,113,,,,,,,,,,,,,,,,,,,,,AMP,right,0.4670304471219424,,,right,0,0.4670304471219424,0,,,,,,,,,,,,,,,,,,,,,,1043,2019_Mar_13_0950,mf_amp_cond1,3.0.4,60.062913916634585,
improve,gournful,&&&&&&&&,left,care.virtue,,,,,,,0,114,114,114,,,,,,,,,,,,,,,,,,,,,AMP,right,0.9338072057871614,,,right,0,0.9338072057871614,0,,,,,,,,,,,,,,,,,,,,,,1043,2019_Mar_13_0950,mf_amp_cond1,3.0.4,60.062913916634585,
abuse,tove,&&&&,right,sanctity.vice,,,,,,,0,115,115,115,,,,,,,,,,,,,,,,,,,,,AMP,left,0.3669970282353461,,,left,0,0.3669970282353461,0,,,,,,,,,,,,,,,,,,,,,,1043,2019_Mar_13_0950,mf_amp_cond1,3.0.4,60.062913916634585,
forced,spag,&&&&,right,fairness.vice,,,,,,,0,116,116,116,,,,,,,,,,,,,,,,,,,,,AMP,left,1.2839116638351697,,,left,0,1.2839116638351697,0,,,,,,,,,,,,,,,,,,,,,,1043,2019_Mar_13_0950,mf_amp_cond1,3.0.4,60.062913916634585,
baladroit,ronviolence,&&&&&&&&&&&,None,nonword,,,,,,,0,117,117,117,,,,,,,,,,,,,,,,,,,,,AMP,left,0.5337100921606179,,,left,0,0.5337100921606179,0,,,,,,,,,,,,,,,,,,,,,,1043,2019_Mar_13_0950,mf_amp_cond1,3.0.4,60.062913916634585,
neputized,gondensed,&&&&&&&&&,None,nonword,,,,,,,0,118,118,118,,,,,,,,,,,,,,,,,,,,,AMP,left,0.767102480516769,,,left,0,0.767102480516769,0,,,,,,,,,,,,,,,,,,,,,,1043,2019_Mar_13_0950,mf_amp_cond1,3.0.4,60.062913916634585,
safe,pafer,&&&&&,left,care.virtue,,,,,,,0,119,119,119,,,,,,,,,,,,,,,,,,,,,AMP,right,0.7670992733328603,,,right,0,0.7670992733328603,0,,,,,,,,,,,,,,,,,,,,,,1043,2019_Mar_13_0950,mf_amp_cond1,3.0.4,60.062913916634585,
encourage,antral,&&&&&&,left,authority.virtue,,,,,,,0,120,120,120,,,,,,,,,,,,,,,,,,,,,AMP,right,0.9504804044263437,,,right,0,0.9504804044263437,0,,,,,,,,,,,,,,,,,,,,,,1043,2019_Mar_13_0950,mf_amp_cond1,3.0.4,60.062913916634585,
black,focomotive,&&&&&&&&&&,right,loyalty.vice,,,,,,,0,121,121,121,,,,,,,,,,,,,,,,,,,,,AMP,left,0.4336811633547768,,,left,0,0.4336811633547768,0,,,,,,,,,,,,,,,,,,,,,,1043,2019_Mar_13_0950,mf_amp_cond1,3.0.4,60.062913916634585,
civilians,ebbitter,&&&&&&&&,right,care.vice,,,,,,,0,122,122,122,,,,,,,,,,,,,,,,,,,,,AMP,right,1.533962177025387,,,right,1,1.533962177025387,1,,,,,,,,,,,,,,,,,,,,,,1043,2019_Mar_13_0950,mf_amp_cond1,3.0.4,60.062913916634585,
trust,allears,&&&&&&&,left,authority.virtue,,,,,,,0,123,123,123,,,,,,,,,,,,,,,,,,,,,AMP,right,1.1838564360805321,,,right,0,1.1838564360805321,0,,,,,,,,,,,,,,,,,,,,,,1043,2019_Mar_13_0950,mf_amp_cond1,3.0.4,60.062913916634585,
violence,chonograph,&&&&&&&&&&,right,care.vice,,,,,,,0,124,124,124,,,,,,,,,,,,,,,,,,,,,AMP,left,0.45057437496143393,,,left,0,0.45057437496143393,0,,,,,,,,,,,,,,,,,,,,,,1043,2019_Mar_13_0950,mf_amp_cond1,3.0.4,60.062913916634585,
yane,frocessing,&&&&&&&&&&,None,nonword,,,,,,,0,125,125,125,,,,,,,,,,,,,,,,,,,,,AMP,left,0.8004405390820466,,,left,0,0.8004405390820466,0,,,,,,,,,,,,,,,,,,,,,,1043,2019_Mar_13_0950,mf_amp_cond1,3.0.4,60.062913916634585,
torture,fegard,&&&&&&,right,care.vice,,,,,,,0,126,126,126,,,,,,,,,,,,,,,,,,,,,AMP,left,0.6837406566774007,,,left,0,0.6837406566774007,0,,,,,,,,,,,,,,,,,,,,,,1043,2019_Mar_13_0950,mf_amp_cond1,3.0.4,60.062913916634585,
sharing,egpeditious,&&&&&&&&&&&,left,loyalty.virtue,,,,,,,0,127,127,127,,,,,,,,,,,,,,,,,,,,,AMP,right,0.38366926470189355,,,right,0,0.38366926470189355,0,,,,,,,,,,,,,,,,,,,,,,1043,2019_Mar_13_0950,mf_amp_cond1,3.0.4,60.062913916634585,
gun,discovars,&&&&&&&&&,right,authority.vice,,,,,,,0,128,128,128,,,,,,,,,,,,,,,,,,,,,AMP,left,0.9838251980836503,,,left,0,0.9838251980836503,0,,,,,,,,,,,,,,,,,,,,,,1043,2019_Mar_13_0950,mf_amp_cond1,3.0.4,60.062913916634585,
gusinesslike,proached,&&&&&&&&,None,nonword,,,,,,,0,129,129,129,,,,,,,,,,,,,,,,,,,,,AMP,left,4.651376620517112,,,left,0,4.651376620517112,0,,,,,,,,,,,,,,,,,,,,,,1043,2019_Mar_13_0950,mf_amp_cond1,3.0.4,60.062913916634585,
unpleasant,simplustic,&&&&&&&&&&,None,control,,,,,,,0,130,130,130,,,,,,,,,,,,,,,,,,,,,AMP,left,0.4836888926802203,,,left,0,0.4836888926802203,0,,,,,,,,,,,,,,,,,,,,,,1043,2019_Mar_13_0950,mf_amp_cond1,3.0.4,60.062913916634585,
celebrated,reelectiob,&&&&&&&&&&,left,authority.virtue,,,,,,,0,131,131,131,,,,,,,,,,,,,,,,,,,,,AMP,right,0.4170368293998763,,,right,0,0.4170368293998763,0,,,,,,,,,,,,,,,,,,,,,,1043,2019_Mar_13_0950,mf_amp_cond1,3.0.4,60.062913916634585,
illegal,synchronazers,&&&&&&&&&&&&&,right,fairness.vice,,,,,,,0,132,132,132,,,,,,,,,,,,,,,,,,,,,AMP,left,2.0840898550814018,,,left,0,2.0840898550814018,0,,,,,,,,,,,,,,,,,,,,,,1043,2019_Mar_13_0950,mf_amp_cond1,3.0.4,60.062913916634585,
protesters,lachelor,&&&&&&&&,right,authority.vice,,,,,,,0,133,133,133,,,,,,,,,,,,,,,,,,,,,AMP,right,0.650258916139137,,,right,1,0.650258916139137,1,,,,,,,,,,,,,,,,,,,,,,1043,2019_Mar_13_0950,mf_amp_cond1,3.0.4,60.062913916634585,
victim,idexpressible,&&&&&&&&&&&&&,right,care.vice,,,,,,,0,134,134,134,,,,,,,,,,,,,,,,,,,,,AMP,left,0.7504376205324661,,,left,0,0.7504376205324661,0,,,,,,,,,,,,,,,,,,,,,,1043,2019_Mar_13_0950,mf_amp_cond1,3.0.4,60.062913916634585,
values,gillipede,&&&&&&&&&,left,sanctity.virtue,,,,,,,0,135,135,135,,,,,,,,,,,,,,,,,,,,,AMP,right,0.5003729957388714,,,right,0,0.5003729957388714,0,,,,,,,,,,,,,,,,,,,,,,1043,2019_Mar_13_0950,mf_amp_cond1,3.0.4,60.062913916634585,
racist,lempestuous,&&&&&&&&&&&,right,sanctity.vice,,,,,,,0,136,136,136,,,,,,,,,,,,,,,,,,,,,AMP,left,0.4503848302701954,,,left,0,0.4503848302701954,0,,,,,,,,,,,,,,,,,,,,,,1043,2019_Mar_13_0950,mf_amp_cond1,3.0.4,60.062913916634585,
fighters,infet,&&&&&,right,authority.vice,,,,,,,0,137,137,137,,,,,,,,,,,,,,,,,,,,,AMP,right,0.5670529615308624,,,right,1,0.5670529615308624,1,,,,,,,,,,,,,,,,,,,,,,1043,2019_Mar_13_0950,mf_amp_cond1,3.0.4,60.062913916634585,
powerful,lorthwhile,&&&&&&&&&&,left,authority.virtue,,,,,,,0,138,138,138,,,,,,,,,,,,,,,,,,,,,AMP,right,0.3503238295670599,,,right,0,0.3503238295670599,0,,,,,,,,,,,,,,,,,,,,,,1043,2019_Mar_13_0950,mf_amp_cond1,3.0.4,60.062913916634585,
men,pistraught,&&&&&&&&&&,right,loyalty.vice,,,,,,,0,139,139,139,,,,,,,,,,,,,,,,,,,,,AMP,right,0.4503617385344114,,,right,1,0.4503617385344114,1,,,,,,,,,,,,,,,,,,,,,,1043,2019_Mar_13_0950,mf_amp_cond1,3.0.4,60.062913916634585,
lies,sowntrodden,&&&&&&&&&&&,right,fairness.vice,,,,,,,0,140,140,140,,,,,,,,,,,,,,,,,,,,,AMP,left,0.867125636403216,,,left,0,0.867125636403216,0,,,,,,,,,,,,,,,,,,,,,,1043,2019_Mar_13_0950,mf_amp_cond1,3.0.4,60.062913916634585,
abointment,vicissifude,&&&&&&&&&&&,None,nonword,,,,,,,0,141,141,141,,,,,,,,,,,,,,,,,,,,,AMP,left,0.7170995619671885,,,left,0,0.7170995619671885,0,,,,,,,,,,,,,,,,,,,,,,1043,2019_Mar_13_0950,mf_amp_cond1,3.0.4,60.062913916634585,
penalty,Oregoniuns,&&&&&&&&&&,right,authority.vice,,,,,,,0,142,142,142,,,,,,,,,,,,,,,,,,,,,AMP,left,0.5670510372146964,,,left,0,0.5670510372146964,0,,,,,,,,,,,,,,,,,,,,,,1043,2019_Mar_13_0950,mf_amp_cond1,3.0.4,60.062913916634585,
energy,lursuer,&&&&&&&,left,sanctity.virtue,,,,,,,0,143,143,143,,,,,,,,,,,,,,,,,,,,,AMP,right,0.4003350868297275,,,right,0,0.4003350868297275,0,,,,,,,,,,,,,,,,,,,,,,1043,2019_Mar_13_0950,mf_amp_cond1,3.0.4,60.062913916634585,
pleasant,imebreaker,&&&&&&&&&&,None,control,,,,,,,0,144,144,144,,,,,,,,,,,,,,,,,,,,,AMP,right,0.5171401649422478,,,right,0,0.5171401649422478,0,,,,,,,,,,,,,,,,,,,,,,1043,2019_Mar_13_0950,mf_amp_cond1,3.0.4,60.062913916634585,
good,dumid,&&&&&,left,care.virtue,,,,,,,0,145,145,145,,,,,,,,,,,,,,,,,,,,,AMP,right,0.6170725574484095,,,right,0,0.6170725574484095,0,,,,,,,,,,,,,,,,,,,,,,1043,2019_Mar_13_0950,mf_amp_cond1,3.0.4,60.062913916634585,
critics,Boeinf,&&&&&&,right,loyalty.vice,,,,,,,0,146,146,146,,,,,,,,,,,,,,,,,,,,,AMP,left,0.6003961516544223,,,left,0,0.6003961516544223,0,,,,,,,,,,,,,,,,,,,,,,1043,2019_Mar_13_0950,mf_amp_cond1,3.0.4,60.062913916634585,
friends,uller,&&&&&,left,loyalty.virtue,,,,,,,0,147,147,147,,,,,,,,,,,,,,,,,,,,,AMP,right,0.5337062435573898,,,right,0,0.5337062435573898,0,,,,,,,,,,,,,,,,,,,,,,1043,2019_Mar_13_0950,mf_amp_cond1,3.0.4,60.062913916634585,
win,lenon,&&&&&,left,fairness.virtue,,,,,,,0,148,148,148,,,,,,,,,,,,,,,,,,,,,AMP,right,0.45022126377443783,,,right,0,0.45022126377443783,0,,,,,,,,,,,,,,,,,,,,,,1043,2019_Mar_13_0950,mf_amp_cond1,3.0.4,60.062913916634585,
agreement,supervuned,&&&&&&&&&&,left,fairness.virtue,,,,,,,0,149,149,149,,,,,,,,,,,,,,,,,,,,,AMP,left,1.4672745139687322,,,left,1,1.4672745139687322,1,,,,,,,,,,,,,,,,,,,,,,1043,2019_Mar_13_0950,mf_amp_cond1,3.0.4,60.062913916634585,
bluently,tenuflect,&&&&&&&&&,None,nonword,,,,,,,0,150,150,150,,,,,,,,,,,,,,,,,,,,,AMP,right,1.31724330803263,,,right,0,1.31724330803263,0,,,,,,,,,,,,,,,,,,,,,,1043,2019_Mar_13_0950,mf_amp_cond1,3.0.4,60.062913916634585,
ability,metibolic,&&&&&&&&&,left,authority.virtue,,,,,,,0,151,151,151,,,,,,,,,,,,,,,,,,,,,AMP,left,1.3839239152730443,,,left,1,1.3839239152730443,1,,,,,,,,,,,,,,,,,,,,,,1043,2019_Mar_13_0950,mf_amp_cond1,3.0.4,60.062913916634585,
freedom,festate,&&&&&&&,left,sanctity.virtue,,,,,,,0,152,152,152,,,,,,,,,,,,,,,,,,,,,AMP,right,0.3336621768248733,,,right,0,0.3336621768248733,0,,,,,,,,,,,,,,,,,,,,,,1043,2019_Mar_13_0950,mf_amp_cond1,3.0.4,60.062913916634585,
perfect,sidearbs,&&&&&&&&,left,sanctity.virtue,,,,,,,0,153,153,153,,,,,,,,,,,,,,,,,,,,,AMP,right,0.4669274964253418,,,right,0,0.4669274964253418,0,,,,,,,,,,,,,,,,,,,,,,1043,2019_Mar_13_0950,mf_amp_cond1,3.0.4,60.062913916634585,
arrests,gowlands,&&&&&&&&,right,authority.vice,,,,,,,0,154,154,154,,,,,,,,,,,,,,,,,,,,,AMP,left,0.43369559571146965,,,left,0,0.43369559571146965,0,,,,,,,,,,,,,,,,,,,,,,1043,2019_Mar_13_0950,mf_amp_cond1,3.0.4,60.062913916634585,
killed,chreams,&&&&&&&,right,care.vice,,,,,,,0,155,155,155,,,,,,,,,,,,,,,,,,,,,AMP,left,1.9840391174075194,,,left,0,1.9840391174075194,0,,,,,,,,,,,,,,,,,,,,,,1043,2019_Mar_13_0950,mf_amp_cond1,3.0.4,60.062913916634585,
death,Loorish,&&&&&&&,right,care.vice,,,,,,,0,156,156,156,,,,,,,,,,,,,,,,,,,,,AMP,left,0.45035179625847377,,,left,0,0.45035179625847377,0,,,,,,,,,,,,,,,,,,,,,,1043,2019_Mar_13_0950,mf_amp_cond1,3.0.4,60.062913916634585,
protect,pullness,&&&&&&&&,left,fairness.virtue,,,,,,,0,157,157,157,,,,,,,,,,,,,,,,,,,,,AMP,right,0.4170336221868638,,,right,0,0.4170336221868638,0,,,,,,,,,,,,,,,,,,,,,,1043,2019_Mar_13_0950,mf_amp_cond1,3.0.4,60.062913916634585,
care,prones,&&&&&&,left,care.virtue,,,,,,,0,158,158,158,,,,,,,,,,,,,,,,,,,,,AMP,right,0.36701306415488943,,,right,0,0.36701306415488943,0,,,,,,,,,,,,,,,,,,,,,,1043,2019_Mar_13_0950,mf_amp_cond1,3.0.4,60.062913916634585,
fear,mightingale,&&&&&&&&&&&,right,sanctity.vice,,,,,,,0,159,159,159,,,,,,,,,,,,,,,,,,,,,AMP,left,0.38367503765039146,,,left,0,0.38367503765039146,0,,,,,,,,,,,,,,,,,,,,,,1043,2019_Mar_13_0950,mf_amp_cond1,3.0.4,60.062913916634585,
loyalty,ning,&&&&,left,loyalty.virtue,,,,,,,0,160,160,160,,,,,,,,,,,,,,,,,,,,,AMP,right,0.417012134072138,,,right,0,0.417012134072138,0,,,,,,,,,,,,,,,,,,,,,,1043,2019_Mar_13_0950,mf_amp_cond1,3.0.4,60.062913916634585,
clean,epigrach,&&&&&&&&,left,sanctity.virtue,,,,,,,0,161,161,161,,,,,,,,,,,,,,,,,,,,,AMP,right,0.5837303295265883,,,right,0,0.5837303295265883,0,,,,,,,,,,,,,,,,,,,,,,1043,2019_Mar_13_0950,mf_amp_cond1,3.0.4,60.062913916634585,
love,drumbled,&&&&&&&&,left,loyalty.virtue,,,,,,,0,162,162,162,,,,,,,,,,,,,,,,,,,,,AMP,right,0.41701053048018366,,,right,0,0.41701053048018366,0,,,,,,,,,,,,,,,,,,,,,,1043,2019_Mar_13_0950,mf_amp_cond1,3.0.4,60.062913916634585,
cromiscuity,hescribe,&&&&&&&&,None,nonword,,,,,,,0,163,163,163,,,,,,,,,,,,,,,,,,,,,AMP,left,1.2172474132676143,,,left,0,1.2172474132676143,0,,,,,,,,,,,,,,,,,,,,,,1043,2019_Mar_13_0950,mf_amp_cond1,3.0.4,60.062913916634585,
voter,chreams,&&&&&&&,right,fairness.vice,,,,,,,0,164,164,164,,,,,,,,,,,,,,,,,,,,,AMP,right,0.5170407421537675,,,right,1,0.5170407421537675,1,,,,,,,,,,,,,,,,,,,,,,1043,2019_Mar_13_0950,mf_amp_cond1,3.0.4,60.062913916634585,
help,antral,&&&&&&,left,care.virtue,,,,,,,0,165,165,165,,,,,,,,,,,,,,,,,,,,,AMP,right,0.6837493160564918,,,right,0,0.6837493160564918,0,,,,,,,,,,,,,,,,,,,,,,1043,2019_Mar_13_0950,mf_amp_cond1,3.0.4,60.062913916634585,
army,esquisiteness,&&&&&&&&&&&&&,right,loyalty.vice,,,,,,,0,166,166,166,,,,,,,,,,,,,,,,,,,,,AMP,left,0.36700151828699745,,,left,0,0.36700151828699745,0,,,,,,,,,,,,,,,,,,,,,,1043,2019_Mar_13_0950,mf_amp_cond1,3.0.4,60.062913916634585,
abointment,perified,&&&&&&&&,None,nonword,,,,,,,0,167,167,167,,,,,,,,,,,,,,,,,,,,,AMP,left,1.017154276574729,,,left,0,1.017154276574729,0,,,,,,,,,,,,,,,,,,,,,,1043,2019_Mar_13_0950,mf_amp_cond1,3.0.4,60.062913916634585,
killed,mightingale,&&&&&&&&&&&,right,care.vice,,,,,,,0,168,168,168,,,,,,,,,,,,,,,,,,,,,AMP,left,1.4505888073181268,,,left,0,1.4505888073181268,0,,,,,,,,,,,,,,,,,,,,,,1043,2019_Mar_13_0950,mf_amp_cond1,3.0.4,60.062913916634585,
cromiscuity,proached,&&&&&&&&,None,nonword,,,,,,,0,169,169,169,,,,,,,,,,,,,,,,,,,,,AMP,left,0.38365483237430453,,,left,0,0.38365483237430453,0,,,,,,,,,,,,,,,,,,,,,,1043,2019_Mar_13_0950,mf_amp_cond1,3.0.4,60.062913916634585,
powerful,simplustic,&&&&&&&&&&,left,authority.virtue,,,,,,,0,170,170,170,,,,,,,,,,,,,,,,,,,,,AMP,right,0.31697005580645055,,,right,0,0.31697005580645055,0,,,,,,,,,,,,,,,,,,,,,,1043,2019_Mar_13_0950,mf_amp_cond1,3.0.4,60.062913916634585,
party,chonograph,&&&&&&&&&&,left,loyalty.virtue,,,,,,,0,171,171,171,,,,,,,,,,,,,,,,,,,,,AMP,right,0.31700469338102266,,,right,0,0.31700469338102266,0,,,,,,,,,,,,,,,,,,,,,,1043,2019_Mar_13_0950,mf_amp_cond1,3.0.4,60.062913916634585,
slavery,Boeinf,&&&&&&,right,loyalty.vice,,,,,,,0,172,172,172,,,,,,,,,,,,,,,,,,,,,AMP,left,2.434179880801821,,,left,0,2.434179880801821,0,,,,,,,,,,,,,,,,,,,,,,1043,2019_Mar_13_0950,mf_amp_cond1,3.0.4,60.062913916634585,
pleasant,gillipede,&&&&&&&&&,None,control,,,,,,,0,173,173,173,,,,,,,,,,,,,,,,,,,,,AMP,right,0.5336889247409999,,,right,0,0.5336889247409999,0,,,,,,,,,,,,,,,,,,,,,,1043,2019_Mar_13_0950,mf_amp_cond1,3.0.4,60.062913916634585,
forced,hatigue,&&&&&&&,right,fairness.vice,,,,,,,0,174,174,174,,,,,,,,,,,,,,,,,,,,,AMP,left,1.2172018712153658,,,left,0,1.2172018712153658,0,,,,,,,,,,,,,,,,,,,,,,1043,2019_Mar_13_0950,mf_amp_cond1,3.0.4,60.062913916634585,
abuse,idexpressible,&&&&&&&&&&&&&,right,sanctity.vice,,,,,,,0,175,175,175,,,,,,,,,,,,,,,,,,,,,AMP,left,0.2670203765446786,,,left,0,0.2670203765446786,0,,,,,,,,,,,,,,,,,,,,,,1043,2019_Mar_13_0950,mf_amp_cond1,3.0.4,60.062913916634585,
lies,sowntrodden,&&&&&&&&&&&,right,fairness.vice,,,,,,,0,176,176,176,,,,,,,,,,,,,,,,,,,,,AMP,left,0.21697608529939316,,,left,0,0.21697608529939316,0,,,,,,,,,,,,,,,,,,,,,,1043,2019_Mar_13_0950,mf_amp_cond1,3.0.4,60.062913916634585,
crime,Oregoniuns,&&&&&&&&&&,right,fairness.vice,,,,,,,0,177,177,177,,,,,,,,,,,,,,,,,,,,,AMP,left,0.23363741734647192,,,left,0,0.23363741734647192,0,,,,,,,,,,,,,,,,,,,,,,1043,2019_Mar_13_0950,mf_amp_cond1,3.0.4,60.062913916634585,
win,egpeditious,&&&&&&&&&&&,left,fairness.virtue,,,,,,,0,178,178,178,,,,,,,,,,,,,,,,,,,,,AMP,right,0.2503189546696376,,,right,0,0.2503189546696376,0,,,,,,,,,,,,,,,,,,,,,,1043,2019_Mar_13_0950,mf_amp_cond1,3.0.4,60.062913916634585,
strong,wump,&&&&,left,loyalty.virtue,,,,,,,0,179,179,179,,,,,,,,,,,,,,,,,,,,,AMP,right,0.8504546827753074,,,right,0,0.8504546827753074,0,,,,,,,,,,,,,,,,,,,,,,1043,2019_Mar_13_0950,mf_amp_cond1,3.0.4,60.062913916634585,
racist,Loorish,&&&&&&&,right,sanctity.vice,,,,,,,0,180,180,180,,,,,,,,,,,,,,,,,,,,,AMP,left,0.16694462281884626,,,left,0,0.16694462281884626,0,,,,,,,,,,,,,,,,,,,,,,1043,2019_Mar_13_0950,mf_amp_cond1,3.0.4,60.062913916634585,
victim,brotesque,&&&&&&&&&,right,care.vice,,,,,,,0,181,181,181,,,,,,,,,,,,,,,,,,,,,AMP,left,0.5670635452552233,,,left,0,0.5670635452552233,0,,,,,,,,,,,,,,,,,,,,,,1043,2019_Mar_13_0950,mf_amp_cond1,3.0.4,60.062913916634585,
celebrated,prones,&&&&&&,left,authority.virtue,,,,,,,0,182,182,182,,,,,,,,,,,,,,,,,,,,,AMP,right,0.21693856123602018,,,right,0,0.21693856123602018,0,,,,,,,,,,,,,,,,,,,,,,1043,2019_Mar_13_0950,mf_amp_cond1,3.0.4,60.062913916634585,
torture,totalestic,&&&&&&&&&&,right,care.vice,,,,,,,0,183,183,183,,,,,,,,,,,,,,,,,,,,,AMP,left,0.21696453943150118,,,left,0,0.21696453943150118,0,,,,,,,,,,,,,,,,,,,,,,1043,2019_Mar_13_0950,mf_amp_cond1,3.0.4,60.062913916634585,
love,synchronazers,&&&&&&&&&&&&&,left,loyalty.virtue,,,,,,,0,184,184,184,,,,,,,,,,,,,,,,,,,,,AMP,right,1.0504920144448988,,,right,0,1.0504920144448988,0,,,,,,,,,,,,,,,,,,,,,,1043,2019_Mar_13_0950,mf_amp_cond1,3.0.4,60.062913916634585,
fighters,metibolic,&&&&&&&&&,right,authority.vice,,,,,,,0,185,185,185,,,,,,,,,,,,,,,,,,,,,AMP,left,0.9671940135885961,,,left,0,0.9671940135885961,0,,,,,,,,,,,,,,,,,,,,,,1043,2019_Mar_13_0950,mf_amp_cond1,3.0.4,60.062913916634585,
perfect,sonvoy,&&&&&&,left,sanctity.virtue,,,,,,,0,186,186,186,,,,,,,,,,,,,,,,,,,,,AMP,left,5.201528031757334,,,left,1,5.201528031757334,1,,,,,,,,,,,,,,,,,,,,,,1043,2019_Mar_13_0950,mf_amp_cond1,3.0.4,60.062913916634585,
war,pafer,&&&&&,right,sanctity.vice,,,,,,,0,187,187,187,,,,,,,,,,,,,,,,,,,,,AMP,left,0.33366121468134224,,,left,0,0.33366121468134224,0,,,,,,,,,,,,,,,,,,,,,,1043,2019_Mar_13_0950,mf_amp_cond1,3.0.4,60.062913916634585,
violence,fegard,&&&&&&,right,care.vice,,,,,,,0,188,188,188,,,,,,,,,,,,,,,,,,,,,AMP,left,0.1002794100495521,,,left,0,0.1002794100495521,0,,,,,,,,,,,,,,,,,,,,,,1043,2019_Mar_13_0950,mf_amp_cond1,3.0.4,60.062913916634585,
friends,nomparisons,&&&&&&&&&&&,left,loyalty.virtue,,,,,,,0,189,189,189,,,,,,,,,,,,,,,,,,,,,AMP,right,0.18362872587749735,,,right,0,0.18362872587749735,0,,,,,,,,,,,,,,,,,,,,,,1043,2019_Mar_13_0950,mf_amp_cond1,3.0.4,60.062913916634585,
values,lempestuous,&&&&&&&&&&&,left,sanctity.virtue,,,,,,,0,190,190,190,,,,,,,,,,,,,,,,,,,,,AMP,right,0.41703715012408793,,,right,0,0.41703715012408793,0,,,,,,,,,,,,,,,,,,,,,,1043,2019_Mar_13_0950,mf_amp_cond1,3.0.4,60.062913916634585,
death,infet,&&&&&,right,care.vice,,,,,,,0,191,191,191,,,,,,,,,,,,,,,,,,,,,AMP,left,0.10029223881429061,,,left,0,0.10029223881429061,0,,,,,,,,,,,,,,,,,,,,,,1043,2019_Mar_13_0950,mf_amp_cond1,3.0.4,60.062913916634585,
protesters,gationwide,&&&&&&&&&&,right,authority.vice,,,,,,,0,192,192,192,,,,,,,,,,,,,,,,,,,,,AMP,left,1.1505299233831465,,,left,0,1.1505299233831465,0,,,,,,,,,,,,,,,,,,,,,,1043,2019_Mar_13_0950,mf_amp_cond1,3.0.4,60.062913916634585,
protect,pumber,&&&&&&,left,fairness.virtue,,,,,,,0,193,193,193,,,,,,,,,,,,,,,,,,,,,AMP,right,0.5670702803472523,,,right,0,0.5670702803472523,0,,,,,,,,,,,,,,,,,,,,,,1043,2019_Mar_13_0950,mf_amp_cond1,3.0.4,60.062913916634585,
corruption,ebbitter,&&&&&&&&,right,sanctity.vice,,,,,,,0,194,194,194,,,,,,,,,,,,,,,,,,,,,AMP,left,1.4339354932308197,,,left,0,1.4339354932308197,0,,,,,,,,,,,,,,,,,,,,,,1043,2019_Mar_13_0950,mf_amp_cond1,3.0.4,60.062913916634585,
failure,framatic,&&&&&&&&,right,loyalty.vice,,,,,,,0,195,195,195,,,,,,,,,,,,,,,,,,,,,AMP,left,0.4503543619939592,,,left,0,0.4503543619939592,0,,,,,,,,,,,,,,,,,,,,,,1043,2019_Mar_13_0950,mf_amp_cond1,3.0.4,60.062913916634585,
trust,lursuer,&&&&&&&,left,authority.virtue,,,,,,,0,196,196,196,,,,,,,,,,,,,,,,,,,,,AMP,right,0.333663459692616,,,right,0,0.333663459692616,0,,,,,,,,,,,,,,,,,,,,,,1043,2019_Mar_13_0950,mf_amp_cond1,3.0.4,60.062913916634585,
peaceful,sickyay,&&&&&&&,left,authority.virtue,,,,,,,0,197,197,197,,,,,,,,,,,,,,,,,,,,,AMP,right,0.9338521063909866,,,right,0,0.9338521063909866,0,,,,,,,,,,,,,,,,,,,,,,1043,2019_Mar_13_0950,mf_amp_cond1,3.0.4,60.062913916634585,
blamed,ning,&&&&,right,loyalty.vice,,,,,,,0,198,198,198,,,,,,,,,,,,,,,,,,,,,AMP,left,0.38353424216620624,,,left,0,0.38353424216620624,0,,,,,,,,,,,,,,,,,,,,,,1043,2019_Mar_13_0950,mf_amp_cond1,3.0.4,60.062913916634585,
integrity,counpy's,&&&&&&&&,left,fairness.virtue,,,,,,,0,199,199,199,,,,,,,,,,,,,,,,,,,,,AMP,left,0.8671128076384775,,,left,1,0.8671128076384775,1,,,,,,,,,,,,,,,,,,,,,,1043,2019_Mar_13_0950,mf_amp_cond1,3.0.4,60.062913916634585,
arrests,drumbled,&&&&&&&&,right,authority.vice,,,,,,,0,200,200,200,,,,,,,,,,,,,,,,,,,,,AMP,left,0.4836888926802203,,,left,0,0.4836888926802203,0,,,,,,,,,,,,,,,,,,,,,,1043,2019_Mar_13_0950,mf_amp_cond1,3.0.4,60.062913916634585,
unpleasant,tenuflect,&&&&&&&&&,None,control,,,,,,,0,201,201,201,,,,,,,,,,,,,,,,,,,,,AMP,left,0.5503720656852238,,,left,0,0.5503720656852238,0,,,,,,,,,,,,,,,,,,,,,,1043,2019_Mar_13_0950,mf_amp_cond1,3.0.4,60.062913916634585,
agreement,iptervention,&&&&&&&&&&&&,left,fairness.virtue,,,,,,,0,202,202,202,,,,,,,,,,,,,,,,,,,,,AMP,right,0.40033444538130425,,,right,0,0.40033444538130425,0,,,,,,,,,,,,,,,,,,,,,,1043,2019_Mar_13_0950,mf_amp_cond1,3.0.4,60.062913916634585,
sexual,uller,&&&&&,right,sanctity.vice,,,,,,,0,203,203,203,,,,,,,,,,,,,,,,,,,,,AMP,right,0.5503909880644642,,,right,1,0.5503909880644642,1,,,,,,,,,,,,,,,,,,,,,,1043,2019_Mar_13_0950,mf_amp_cond1,3.0.4,60.062913916634585,
framo,gaultless,&&&&&&&&&,None,nonword,,,,,,,0,204,204,204,,,,,,,,,,,,,,,,,,,,,AMP,left,0.45035981421824545,,,left,0,0.45035981421824545,0,,,,,,,,,,,,,,,,,,,,,,1043,2019_Mar_13_0950,mf_amp_cond1,3.0.4,60.062913916634585,
squets,festate,&&&&&&&,None,nonword,,,,,,,0,205,205,205,,,,,,,,,,,,,,,,,,,,,AMP,left,0.7837731133913621,,,left,0,0.7837731133913621,0,,,,,,,,,,,,,,,,,,,,,,1043,2019_Mar_13_0950,mf_amp_cond1,3.0.4,60.062913916634585,
black,bruthfulness,&&&&&&&&&&&&,right,loyalty.vice,,,,,,,0,206,206,206,,,,,,,,,,,,,,,,,,,,,AMP,right,0.8004617065016646,,,right,1,0.8004617065016646,1,,,,,,,,,,,,,,,,,,,,,,1043,2019_Mar_13_0950,mf_amp_cond1,3.0.4,60.062913916634585,
rebels,frojecting,&&&&&&&&&&,right,authority.vice,,,,,,,0,207,207,207,,,,,,,,,,,,,,,,,,,,,AMP,left,1.0671725895663258,,,left,0,1.0671725895663258,0,,,,,,,,,,,,,,,,,,,,,,1043,2019_Mar_13_0950,mf_amp_cond1,3.0.4,60.062913916634585,
compassion,gondensed,&&&&&&&&&,left,care.virtue,,,,,,,0,208,208,208,,,,,,,,,,,,,,,,,,,,,AMP,right,0.25030933308880776,,,right,0,0.25030933308880776,0,,,,,,,,,,,,,,,,,,,,,,1043,2019_Mar_13_0950,mf_amp_cond1,3.0.4,60.062913916634585,
penalty,faspberry,&&&&&&&&&,right,authority.vice,,,,,,,0,209,209,209,,,,,,,,,,,,,,,,,,,,,AMP,left,0.6504311420430895,,,left,0,0.6504311420430895,0,,,,,,,,,,,,,,,,,,,,,,1043,2019_Mar_13_0950,mf_amp_cond1,3.0.4,60.062913916634585,
neputized,nackers,&&&&&&&,None,nonword,,,,,,,0,210,210,210,,,,,,,,,,,,,,,,,,,,,AMP,left,1.2839107016916387,,,left,0,1.2839107016916387,0,,,,,,,,,,,,,,,,,,,,,,1043,2019_Mar_13_0950,mf_amp_cond1,3.0.4,60.062913916634585,
fear,fostet,&&&&&&,right,sanctity.vice,,,,,,,0,211,211,211,,,,,,,,,,,,,,,,,,,,,AMP,left,0.6837538061081432,,,left,0,0.6837538061081432,0,,,,,,,,,,,,,,,,,,,,,,1043,2019_Mar_13_0950,mf_amp_cond1,3.0.4,60.062913916634585,
promote,clattening,&&&&&&&&&&,left,sanctity.virtue,,,,,,,0,212,212,212,,,,,,,,,,,,,,,,,,,,,AMP,left,0.8171063611807767,,,left,1,0.8171063611807767,1,,,,,,,,,,,,,,,,,,,,,,1043,2019_Mar_13_0950,mf_amp_cond1,3.0.4,60.062913916634585,
illegal,laming,&&&&&&,right,fairness.vice,,,,,,,0,213,213,213,,,,,,,,,,,,,,,,,,,,,AMP,left,2.2508439710363746,,,left,0,2.2508439710363746,0,,,,,,,,,,,,,,,,,,,,,,1043,2019_Mar_13_0950,mf_amp_cond1,3.0.4,60.062913916634585,
shot,reelectiob,&&&&&&&&&&,right,care.vice,,,,,,,0,214,214,214,,,,,,,,,,,,,,,,,,,,,AMP,left,1.483944505424006,,,left,0,1.483944505424006,0,,,,,,,,,,,,,,,,,,,,,,1043,2019_Mar_13_0950,mf_amp_cond1,3.0.4,60.062913916634585,
clean,fonderland,&&&&&&&&&&,left,sanctity.virtue,,,,,,,0,215,215,215,,,,,,,,,,,,,,,,,,,,,AMP,right,0.13362773164408281,,,right,0,0.13362773164408281,0,,,,,,,,,,,,,,,,,,,,,,1043,2019_Mar_13_0950,mf_amp_cond1,3.0.4,60.062913916634585,
progress,slending,&&&&&&&&,left,authority.virtue,,,,,,,0,216,216,216,,,,,,,,,,,,,,,,,,,,,AMP,right,1.2339180461131036,,,right,0,1.2339180461131036,0,,,,,,,,,,,,,,,,,,,,,,1043,2019_Mar_13_0950,mf_amp_cond1,3.0.4,60.062913916634585,
energy,epigrach,&&&&&&&&,left,sanctity.virtue,,,,,,,0,217,217,217,,,,,,,,,,,,,,,,,,,,,AMP,right,0.43366993821109645,,,right,0,0.43366993821109645,0,,,,,,,,,,,,,,,,,,,,,,1043,2019_Mar_13_0950,mf_amp_cond1,3.0.4,60.062913916634585,
gusinesslike,vicissifude,&&&&&&&&&&&,None,nonword,,,,,,,0,218,218,218,,,,,,,,,,,,,,,,,,,,,AMP,right,0.45034923049388453,,,right,0,0.45034923049388453,0,,,,,,,,,,,,,,,,,,,,,,1043,2019_Mar_13_0950,mf_amp_cond1,3.0.4,60.062913916634585,
baladroit,gowlands,&&&&&&&&,None,nonword,,,,,,,0,219,219,219,,,,,,,,,,,,,,,,,,,,,AMP,right,0.46704391727689654,,,right,0,0.46704391727689654,0,,,,,,,,,,,,,,,,,,,,,,1043,2019_Mar_13_0950,mf_amp_cond1,3.0.4,60.062913916634585,
commitment,dumid,&&&&&,left,sanctity.virtue,,,,,,,0,220,220,220,,,,,,,,,,,,,,,,,,,,,AMP,right,0.5003669020952657,,,right,0,0.5003669020952657,0,,,,,,,,,,,,,,,,,,,,,,1043,2019_Mar_13_0950,mf_amp_cond1,3.0.4,60.062913916634585,
yane,sidearbs,&&&&&&&&,None,nonword,,,,,,,0,221,221,221,,,,,,,,,,,,,,,,,,,,,AMP,right,0.5335606372973416,,,right,0,0.5335606372973416,0,,,,,,,,,,,,,,,,,,,,,,1043,2019_Mar_13_0950,mf_amp_cond1,3.0.4,60.062913916634585,
hate,tracious,&&&&&&&&,right,fairness.vice,,,,,,,0,222,222,222,,,,,,,,,,,,,,,,,,,,,AMP,left,0.41701149262371473,,,left,0,0.41701149262371473,0,,,,,,,,,,,,,,,,,,,,,,1043,2019_Mar_13_0950,mf_amp_cond1,3.0.4,60.062913916634585,
good,lorthwhile,&&&&&&&&&&,left,care.virtue,,,,,,,0,223,223,223,,,,,,,,,,,,,,,,,,,,,AMP,right,0.43368853989522904,,,right,0,0.43368853989522904,0,,,,,,,,,,,,,,,,,,,,,,1043,2019_Mar_13_0950,mf_amp_cond1,3.0.4,60.062913916634585,
promises,glacenta,&&&&&&&&,left,fairness.virtue,,,,,,,0,224,224,224,,,,,,,,,,,,,,,,,,,,,AMP,left,1.4339396625582594,,,left,1,1.4339396625582594,1,,,,,,,,,,,,,,,,,,,,,,1043,2019_Mar_13_0950,mf_amp_cond1,3.0.4,60.062913916634585,
peace,gandbrake,&&&&&&&&&,left,care.virtue,,,,,,,0,225,225,225,,,,,,,,,,,,,,,,,,,,,AMP,right,0.4003665172494948,,,right,0,0.4003665172494948,0,,,,,,,,,,,,,,,,,,,,,,1043,2019_Mar_13_0950,mf_amp_cond1,3.0.4,60.062913916634585,
improve,pullness,&&&&&&&&,left,care.virtue,,,,,,,0,226,226,226,,,,,,,,,,,,,,,,,,,,,AMP,right,0.8837904963584151,,,right,0,0.8837904963584151,0,,,,,,,,,,,,,,,,,,,,,,1043,2019_Mar_13_0950,mf_amp_cond1,3.0.4,60.062913916634585,
sharing,presentkess,&&&&&&&&&&&,left,loyalty.virtue,,,,,,,0,227,227,227,,,,,,,,,,,,,,,,,,,,,AMP,right,0.41700347466394305,,,right,0,0.41700347466394305,0,,,,,,,,,,,,,,,,,,,,,,1043,2019_Mar_13_0950,mf_amp_cond1,3.0.4,60.062913916634585,
chressing,discovars,&&&&&&&&&,None,nonword,,,,,,,0,228,228,228,,,,,,,,,,,,,,,,,,,,,AMP,right,0.7170909025589935,,,right,0,0.7170909025589935,0,,,,,,,,,,,,,,,,,,,,,,1043,2019_Mar_13_0950,mf_amp_cond1,3.0.4,60.062913916634585,
freedom,aubos,&&&&&,left,sanctity.virtue,,,,,,,0,229,229,229,,,,,,,,,,,,,,,,,,,,,AMP,right,0.5170317620213609,,,right,0,0.5170317620213609,0,,,,,,,,,,,,,,,,,,,,,,1043,2019_Mar_13_0950,mf_amp_cond1,3.0.4,60.062913916634585,
bluently,focomotive,&&&&&&&&&&,None,nonword,,,,,,,0,230,230,230,,,,,,,,,,,,,,,,,,,,,AMP,right,0.6170728781726211,,,right,0,0.6170728781726211,0,,,,,,,,,,,,,,,,,,,,,,1043,2019_Mar_13_0950,mf_amp_cond1,3.0.4,60.062913916634585,
men,supervuned,&&&&&&&&&&,right,loyalty.vice,,,,,,,0,231,231,231,,,,,,,,,,,,,,,,,,,,,AMP,right,2.884374204237247,,,right,1,2.884374204237247,1,,,,,,,,,,,,,,,,,,,,,,1043,2019_Mar_13_0950,mf_amp_cond1,3.0.4,60.062913916634585,
encourage,lachelor,&&&&&&&&,left,authority.virtue,,,,,,,0,232,232,232,,,,,,,,,,,,,,,,,,,,,AMP,right,1.517281922569964,,,right,0,1.517281922569964,0,,,,,,,,,,,,,,,,,,,,,,1043,2019_Mar_13_0950,mf_amp_cond1,3.0.4,60.062913916634585,
great,frocessing,&&&&&&&&&&,left,loyalty.virtue,,,,,,,0,233,233,233,,,,,,,,,,,,,,,,,,,,,AMP,right,1.0338412660930771,,,right,0,1.0338412660930771,0,,,,,,,,,,,,,,,,,,,,,,1043,2019_Mar_13_0950,mf_amp_cond1,3.0.4,60.062913916634585,
free,tove,&&&&,left,fairness.virtue,,,,,,,0,234,234,234,,,,,,,,,,,,,,,,,,,,,AMP,right,1.433936134679243,,,right,0,1.433936134679243,0,,,,,,,,,,,,,,,,,,,,,,1043,2019_Mar_13_0950,mf_amp_cond1,3.0.4,60.062913916634585,
safe,gournful,&&&&&&&&,left,care.virtue,,,,,,,0,235,235,235,,,,,,,,,,,,,,,,,,,,,AMP,right,0.4670291642250959,,,right,0,0.4670291642250959,0,,,,,,,,,,,,,,,,,,,,,,1043,2019_Mar_13_0950,mf_amp_cond1,3.0.4,60.062913916634585,
care,allears,&&&&&&&,left,care.virtue,,,,,,,0,236,236,236,,,,,,,,,,,,,,,,,,,,,AMP,right,0.5003646570839919,,,right,0,0.5003646570839919,0,,,,,,,,,,,,,,,,,,,,,,1043,2019_Mar_13_0950,mf_amp_cond1,3.0.4,60.062913916634585,
civilians,hescribe,&&&&&&&&,right,care.vice,,,,,,,0,237,237,237,,,,,,,,,,,,,,,,,,,,,AMP,right,0.9171259891882073,,,right,1,0.9171259891882073,1,,,,,,,,,,,,,,,,,,,,,,1043,2019_Mar_13_0950,mf_amp_cond1,3.0.4,60.062913916634585,
gun,ronviolence,&&&&&&&&&&&,right,authority.vice,,,,,,,0,238,238,238,,,,,,,,,,,,,,,,,,,,,AMP,left,0.3504072164359968,,,left,0,0.3504072164359968,0,,,,,,,,,,,,,,,,,,,,,,1043,2019_Mar_13_0950,mf_amp_cond1,3.0.4,60.062913916634585,
prosecution,lenon,&&&&&,right,authority.vice,,,,,,,0,239,239,239,,,,,,,,,,,,,,,,,,,,,AMP,left,3.1343410098634195,,,left,0,3.1343410098634195,0,,,,,,,,,,,,,,,,,,,,,,1043,2019_Mar_13_0950,mf_amp_cond1,3.0.4,60.062913916634585,
serial,ammessment,&&&&&&&&&&,right,sanctity.vice,,,,,,,0,240,240,240,,,,,,,,,,,,,,,,,,,,,AMP,left,0.2836461088154465,,,left,0,0.2836461088154465,0,,,,,,,,,,,,,,,,,,,,,,1043,2019_Mar_13_0950,mf_amp_cond1,3.0.4,60.062913916634585,
benefit,atson,&&&&&,left,fairness.virtue,,,,,,,0,241,241,241,,,,,,,,,,,,,,,,,,,,,AMP,right,0.23363645517383702,,,right,0,0.23363645517383702,0,,,,,,,,,,,,,,,,,,,,,,1043,2019_Mar_13_0950,mf_amp_cond1,3.0.4,60.062913916634585,
critics,pistraught,&&&&&&&&&&,right,loyalty.vice,,,,,,,0,242,242,242,,,,,,,,,,,,,,,,,,,,,AMP,left,6.1850940892181825,,,left,0,6.1850940892181825,0,,,,,,,,,,,,,,,,,,,,,,1043,2019_Mar_13_0950,mf_amp_cond1,3.0.4,60.062913916634585,
loyalty,imebreaker,&&&&&&&&&&,left,loyalty.virtue,,,,,,,0,243,243,243,,,,,,,,,,,,,,,,,,,,,AMP,right,0.6837124334124383,,,right,0,0.6837124334124383,0,,,,,,,,,,,,,,,,,,,,,,1043,2019_Mar_13_0950,mf_amp_cond1,3.0.4,60.062913916634585,
ability,spag,&&&&,left,authority.virtue,,,,,,,0,244,244,244,,,,,,,,,,,,,,,,,,,,,AMP,left,0.5337116957816761,,,left,1,0.5337116957816761,1,,,,,,,,,,,,,,,,,,,,,,1043,2019_Mar_13_0950,mf_amp_cond1,3.0.4,60.062913916634585,
threatened,precificity,&&&&&&&&&&&,right,fairness.vice,,,,,,,0,245,245,245,,,,,,,,,,,,,,,,,,,,,AMP,left,0.5170301584585104,,,left,0,0.5170301584585104,0,,,,,,,,,,,,,,,,,,,,,,1043,2019_Mar_13_0950,mf_amp_cond1,3.0.4,60.062913916634585,
unpleasant,lorthwhile,&&&&&&&&&&,None,control,,,,,,,0,246,246,246,,,,,,,,,,,,,,,,,,,,,AMP,left,0.3670034426031634,,,left,0,0.3670034426031634,0,,,,,,,,,,,,,,,,,,,,,,1043,2019_Mar_13_0950,mf_amp_cond1,3.0.4,60.062913916634585,
arrests,sonvoy,&&&&&&,right,authority.vice,,,,,,,0,247,247,247,,,,,,,,,,,,,,,,,,,,,AMP,left,0.36701338487910107,,,left,0,0.36701338487910107,0,,,,,,,,,,,,,,,,,,,,,,1043,2019_Mar_13_0950,mf_amp_cond1,3.0.4,60.062913916634585,
free,discovars,&&&&&&&&&,left,fairness.virtue,,,,,,,0,248,248,248,,,,,,,,,,,,,,,,,,,,,AMP,right,0.8504453819477931,,,right,0,0.8504453819477931,0,,,,,,,,,,,,,,,,,,,,,,1043,2019_Mar_13_0950,mf_amp_cond1,3.0.4,60.062913916634585,
energy,Loorish,&&&&&&&,left,sanctity.virtue,,,,,,,0,249,249,249,,,,,,,,,,,,,,,,,,,,,AMP,right,0.5003604877274483,,,right,0,0.5003604877274483,0,,,,,,,,,,,,,,,,,,,,,,1043,2019_Mar_13_0950,mf_amp_cond1,3.0.4,60.062913916634585,
penalty,egpeditious,&&&&&&&&&&&,right,authority.vice,,,,,,,0,250,250,250,,,,,,,,,,,,,,,,,,,,,AMP,left,0.2503058052097913,,,left,0,0.2503058052097913,0,,,,,,,,,,,,,,,,,,,,,,1043,2019_Mar_13_0950,mf_amp_cond1,3.0.4,60.062913916634585,
abuse,glacenta,&&&&&&&&,right,sanctity.vice,,,,,,,0,251,251,251,,,,,,,,,,,,,,,,,,,,,AMP,left,0.8838065322779585,,,left,0,0.8838065322779585,0,,,,,,,,,,,,,,,,,,,,,,1043,2019_Mar_13_0950,mf_amp_cond1,3.0.4,60.062913916634585,
critics,focomotive,&&&&&&&&&&,right,loyalty.vice,,,,,,,0,252,252,252,,,,,,,,,,,,,,,,,,,,,AMP,left,0.5837213494232856,,,left,0,0.5837213494232856,0,,,,,,,,,,,,,,,,,,,,,,1043,2019_Mar_13_0950,mf_amp_cond1,3.0.4,60.062913916634585,
threatened,clattening,&&&&&&&&&&,right,fairness.vice,,,,,,,0,253,253,253,,,,,,,,,,,,,,,,,,,,,AMP,left,0.8004450291628018,,,left,0,0.8004450291628018,0,,,,,,,,,,,,,,,,,,,,,,1043,2019_Mar_13_0950,mf_amp_cond1,3.0.4,60.062913916634585,
bluently,gillipede,&&&&&&&&&,None,nonword,,,,,,,0,254,254,254,,,,,,,,,,,,,,,,,,,,,AMP,left,0.6001209750538692,,,left,0,0.6001209750538692,0,,,,,,,,,,,,,,,,,,,,,,1043,2019_Mar_13_0950,mf_amp_cond1,3.0.4,60.062913916634585,
celebrated,totalestic,&&&&&&&&&&,left,authority.virtue,,,,,,,0,255,255,255,,,,,,,,,,,,,,,,,,,,,AMP,right,0.33366249754908495,,,right,0,0.33366249754908495,0,,,,,,,,,,,,,,,,,,,,,,1043,2019_Mar_13_0950,mf_amp_cond1,3.0.4,60.062913916634585,
failure,vicissifude,&&&&&&&&&&&,right,loyalty.vice,,,,,,,0,256,256,256,,,,,,,,,,,,,,,,,,,,,AMP,left,0.18362648083711974,,,left,0,0.18362648083711974,0,,,,,,,,,,,,,,,,,,,,,,1043,2019_Mar_13_0950,mf_amp_cond1,3.0.4,60.062913916634585,
gun,nomparisons,&&&&&&&&&&&,right,authority.vice,,,,,,,0,257,257,257,,,,,,,,,,,,,,,,,,,,,AMP,left,0.5670786190312356,,,left,0,0.5670786190312356,0,,,,,,,,,,,,,,,,,,,,,,1043,2019_Mar_13_0950,mf_amp_cond1,3.0.4,60.062913916634585,
corruption,Oregoniuns,&&&&&&&&&&,right,sanctity.vice,,,,,,,0,258,258,258,,,,,,,,,,,,,,,,,,,,,AMP,left,0.4670249948685523,,,left,0,0.4670249948685523,0,,,,,,,,,,,,,,,,,,,,,,1043,2019_Mar_13_0950,mf_amp_cond1,3.0.4,60.062913916634585,
shot,frocessing,&&&&&&&&&&,right,care.vice,,,,,,,0,259,259,259,,,,,,,,,,,,,,,,,,,,,AMP,left,0.18362295292899944,,,left,0,0.18362295292899944,0,,,,,,,,,,,,,,,,,,,,,,1043,2019_Mar_13_0950,mf_amp_cond1,3.0.4,60.062913916634585,
win,drumbled,&&&&&&&&,left,fairness.virtue,,,,,,,0,260,260,260,,,,,,,,,,,,,,,,,,,,,AMP,right,0.166958413698012,,,right,0,0.166958413698012,0,,,,,,,,,,,,,,,,,,,,,,1043,2019_Mar_13_0950,mf_amp_cond1,3.0.4,60.062913916634585,
peace,wump,&&&&,left,care.virtue,,,,,,,0,261,261,261,,,,,,,,,,,,,,,,,,,,,AMP,right,0.35034082768834196,,,right,0,0.35034082768834196,0,,,,,,,,,,,,,,,,,,,,,,1043,2019_Mar_13_0950,mf_amp_cond1,3.0.4,60.062913916634585,
benefit,imebreaker,&&&&&&&&&&,left,fairness.virtue,,,,,,,0,262,262,262,,,,,,,,,,,,,,,,,,,,,AMP,right,0.21696902948315255,,,right,0,0.21696902948315255,0,,,,,,,,,,,,,,,,,,,,,,1043,2019_Mar_13_0950,mf_amp_cond1,3.0.4,60.062913916634585,
love,gondensed,&&&&&&&&&,left,loyalty.virtue,,,,,,,0,263,263,263,,,,,,,,,,,,,,,,,,,,,AMP,right,0.13361073355190456,,,right,0,0.13361073355190456,0,,,,,,,,,,,,,,,,,,,,,,1043,2019_Mar_13_0950,mf_amp_cond1,3.0.4,60.062913916634585,
care,supervuned,&&&&&&&&&&,left,care.virtue,,,,,,,0,264,264,264,,,,,,,,,,,,,,,,,,,,,AMP,right,0.23348860390251502,,,right,0,0.23348860390251502,0,,,,,,,,,,,,,,,,,,,,,,1043,2019_Mar_13_0950,mf_amp_cond1,3.0.4,60.062913916634585,
framo,uller,&&&&&,None,nonword,,,,,,,0,265,265,265,,,,,,,,,,,,,,,,,,,,,AMP,left,0.4170201520319097,,,left,0,0.4170201520319097,0,,,,,,,,,,,,,,,,,,,,,,1043,2019_Mar_13_0950,mf_amp_cond1,3.0.4,60.062913916634585,
fighters,lachelor,&&&&&&&&,right,authority.vice,,,,,,,0,266,266,266,,,,,,,,,,,,,,,,,,,,,AMP,left,0.3003292497305665,,,left,0,0.3003292497305665,0,,,,,,,,,,,,,,,,,,,,,,1043,2019_Mar_13_0950,mf_amp_cond1,3.0.4,60.062913916634585,
improve,gowlands,&&&&&&&&,left,care.virtue,,,,,,,0,267,267,267,,,,,,,,,,,,,,,,,,,,,AMP,right,0.21697480243165046,,,right,0,0.21697480243165046,0,,,,,,,,,,,,,,,,,,,,,,1043,2019_Mar_13_0950,mf_amp_cond1,3.0.4,60.062913916634585,
yane,gaultless,&&&&&&&&&,None,nonword,,,,,,,0,268,268,268,,,,,,,,,,,,,,,,,,,,,AMP,left,0.4336843705677893,,,left,0,0.4336843705677893,0,,,,,,,,,,,,,,,,,,,,,,1043,2019_Mar_13_0950,mf_amp_cond1,3.0.4,60.062913916634585,
death,esquisiteness,&&&&&&&&&&&&&,right,care.vice,,,,,,,0,269,269,269,,,,,,,,,,,,,,,,,,,,,AMP,left,0.16696514879004098,,,left,0,0.16696514879004098,0,,,,,,,,,,,,,,,,,,,,,,1043,2019_Mar_13_0950,mf_amp_cond1,3.0.4,60.062913916634585,
civilians,laming,&&&&&&,right,care.vice,,,,,,,0,270,270,270,,,,,,,,,,,,,,,,,,,,,AMP,right,0.25030676735332236,,,right,1,0.25030676735332236,1,,,,,,,,,,,,,,,,,,,,,,1043,2019_Mar_13_0950,mf_amp_cond1,3.0.4,60.062913916634585,
commitment,ebbitter,&&&&&&&&,left,sanctity.virtue,,,,,,,0,271,271,271,,,,,,,,,,,,,,,,,,,,,AMP,left,0.4670246741734445,,,left,1,0.4670246741734445,1,,,,,,,,,,,,,,,,,,,,,,1043,2019_Mar_13_0950,mf_amp_cond1,3.0.4,60.062913916634585,
encourage,gandbrake,&&&&&&&&&,left,authority.virtue,,,,,,,0,272,272,272,,,,,,,,,,,,,,,,,,,,,AMP,right,0.18361108633689582,,,right,0,0.18361108633689582,0,,,,,,,,,,,,,,,,,,,,,,1043,2019_Mar_13_0950,mf_amp_cond1,3.0.4,60.062913916634585,
gusinesslike,tracious,&&&&&&&&,None,nonword,,,,,,,0,273,273,273,,,,,,,,,,,,,,,,,,,,,AMP,right,1.4172638981835917,,,right,0,1.4172638981835917,0,,,,,,,,,,,,,,,,,,,,,,1043,2019_Mar_13_0950,mf_amp_cond1,3.0.4,60.062913916634585,
blamed,proached,&&&&&&&&,right,loyalty.vice,,,,,,,0,274,274,274,,,,,,,,,,,,,,,,,,,,,AMP,left,0.20026856978074647,,,left,0,0.20026856978074647,0,,,,,,,,,,,,,,,,,,,,,,1043,2019_Mar_13_0950,mf_amp_cond1,3.0.4,60.062913916634585,
help,pullness,&&&&&&&&,left,care.virtue,,,,,,,0,275,275,275,,,,,,,,,,,,,,,,,,,,,AMP,left,0.40034599124919623,,,left,1,0.40034599124919623,1,,,,,,,,,,,,,,,,,,,,,,1043,2019_Mar_13_0950,mf_amp_cond1,3.0.4,60.062913916634585,
loyalty,synchronazers,&&&&&&&&&&&&&,left,loyalty.virtue,,,,,,,0,276,276,276,,,,,,,,,,,,,,,,,,,,,AMP,right,0.2836566925398074,,,right,0,0.2836566925398074,0,,,,,,,,,,,,,,,,,,,,,,1043,2019_Mar_13_0950,mf_amp_cond1,3.0.4,60.062913916634585,
illegal,simplustic,&&&&&&&&&&,right,fairness.vice,,,,,,,0,277,277,277,,,,,,,,,,,,,,,,,,,,,AMP,left,0.18362808442907408,,,left,0,0.18362808442907408,0,,,,,,,,,,,,,,,,,,,,,,1043,2019_Mar_13_0950,mf_amp_cond1,3.0.4,60.062913916634585,
peaceful,sowntrodden,&&&&&&&&&&&,left,authority.virtue,,,,,,,0,278,278,278,,,,,,,,,,,,,,,,,,,,,AMP,right,0.36706117194262333,,,right,0,0.36706117194262333,0,,,,,,,,,,,,,,,,,,,,,,1043,2019_Mar_13_0950,mf_amp_cond1,3.0.4,60.062913916634585,
clean,lursuer,&&&&&&&,left,sanctity.virtue,,,,,,,0,279,279,279,,,,,,,,,,,,,,,,,,,,,AMP,right,0.4003620271687396,,,right,0,0.4003620271687396,0,,,,,,,,,,,,,,,,,,,,,,1043,2019_Mar_13_0950,mf_amp_cond1,3.0.4,60.062913916634585,
forced,gationwide,&&&&&&&&&&,right,fairness.vice,,,,,,,0,280,280,280,,,,,,,,,,,,,,,,,,,,,AMP,left,0.3004854396858718,,,left,0,0.3004854396858718,0,,,,,,,,,,,,,,,,,,,,,,1043,2019_Mar_13_0950,mf_amp_cond1,3.0.4,60.062913916634585,
prosecution,allears,&&&&&&&,right,authority.vice,,,,,,,0,281,281,281,,,,,,,,,,,,,,,,,,,,,AMP,left,0.38371127884602174,,,left,0,0.38371127884602174,0,,,,,,,,,,,,,,,,,,,,,,1043,2019_Mar_13_0950,mf_amp_cond1,3.0.4,60.062913916634585,
hate,metibolic,&&&&&&&&&,right,fairness.vice,,,,,,,0,282,282,282,,,,,,,,,,,,,,,,,,,,,AMP,left,0.08361936089931987,,,left,0,0.08361936089931987,0,,,,,,,,,,,,,,,,,,,,,,1043,2019_Mar_13_0950,mf_amp_cond1,3.0.4,60.062913916634585,
army,hatigue,&&&&&&&,right,loyalty.vice,,,,,,,0,283,283,283,,,,,,,,,,,,,,,,,,,,,AMP,left,0.16695873442222364,,,left,0,0.16695873442222364,0,,,,,,,,,,,,,,,,,,,,,,1043,2019_Mar_13_0950,mf_amp_cond1,3.0.4,60.062913916634585,
compassion,fonderland,&&&&&&&&&&,left,care.virtue,,,,,,,0,284,284,284,,,,,,,,,,,,,,,,,,,,,AMP,right,0.4170275285723619,,,right,0,0.4170275285723619,0,,,,,,,,,,,,,,,,,,,,,,1043,2019_Mar_13_0950,mf_amp_cond1,3.0.4,60.062913916634585,
crime,reelectiob,&&&&&&&&&&,right,fairness.vice,,,,,,,0,285,285,285,,,,,,,,,,,,,,,,,,,,,AMP,left,9.836088092444697,,,left,0,9.836088092444697,0,,,,,,,,,,,,,,,,,,,,,,1043,2019_Mar_13_0950,mf_amp_cond1,3.0.4,60.062913916634585,
powerful,faspberry,&&&&&&&&&,left,authority.virtue,,,,,,,0,286,286,286,,,,,,,,,,,,,,,,,,,,,AMP,right,0.1836094827449415,,,right,0,0.1836094827449415,0,,,,,,,,,,,,,,,,,,,,,,1043,2019_Mar_13_0950,mf_amp_cond1,3.0.4,60.062913916634585,
promote,atson,&&&&&,left,sanctity.virtue,,,,,,,0,287,287,287,,,,,,,,,,,,,,,,,,,,,AMP,right,3.1343477449263446,,,right,0,3.1343477449263446,0,,,,,,,,,,,,,,,,,,,,,,1043,2019_Mar_13_0950,mf_amp_cond1,3.0.4,60.062913916634585,
great,prones,&&&&&&,left,loyalty.virtue,,,,,,,0,288,288,288,,,,,,,,,,,,,,,,,,,,,AMP,right,0.8504886789305601,,,right,0,0.8504886789305601,0,,,,,,,,,,,,,,,,,,,,,,1043,2019_Mar_13_0950,mf_amp_cond1,3.0.4,60.062913916634585,
freedom,nackers,&&&&&&&,left,sanctity.virtue,,,,,,,0,289,289,289,,,,,,,,,,,,,,,,,,,,,AMP,left,1.3172413837455679,,,left,1,1.3172413837455679,1,,,,,,,,,,,,,,,,,,,,,,1043,2019_Mar_13_0950,mf_amp_cond1,3.0.4,60.062913916634585,
baladroit,infet,&&&&&,None,nonword,,,,,,,0,290,290,290,,,,,,,,,,,,,,,,,,,,,AMP,left,0.9838130107964389,,,left,0,0.9838130107964389,0,,,,,,,,,,,,,,,,,,,,,,1043,2019_Mar_13_0950,mf_amp_cond1,3.0.4,60.062913916634585,
cromiscuity,iptervention,&&&&&&&&&&&&,None,nonword,,,,,,,0,291,291,291,,,,,,,,,,,,,,,,,,,,,AMP,left,0.9338466541667003,,,left,0,0.9338466541667003,0,,,,,,,,,,,,,,,,,,,,,,1043,2019_Mar_13_0950,mf_amp_cond1,3.0.4,60.062913916634585,
strong,chonograph,&&&&&&&&&&,left,loyalty.virtue,,,,,,,0,292,292,292,,,,,,,,,,,,,,,,,,,,,AMP,right,1.600640218501212,,,right,0,1.600640218501212,0,,,,,,,,,,,,,,,,,,,,,,1043,2019_Mar_13_0950,mf_amp_cond1,3.0.4,60.062913916634585,
sharing,lenon,&&&&&,left,loyalty.virtue,,,,,,,0,293,293,293,,,,,,,,,,,,,,,,,,,,,AMP,right,0.7170860917831305,,,right,0,0.7170860917831305,0,,,,,,,,,,,,,,,,,,,,,,1043,2019_Mar_13_0950,mf_amp_cond1,3.0.4,60.062913916634585,
perfect,tenuflect,&&&&&&&&&,left,sanctity.virtue,,,,,,,0,294,294,294,,,,,,,,,,,,,,,,,,,,,AMP,right,0.9004832587961573,,,right,0,0.9004832587961573,0,,,,,,,,,,,,,,,,,,,,,,1043,2019_Mar_13_0950,mf_amp_cond1,3.0.4,60.062913916634585,
war,sickyay,&&&&&&&,right,sanctity.vice,,,,,,,0,295,295,295,,,,,,,,,,,,,,,,,,,,,AMP,left,0.5003678642387968,,,left,0,0.5003678642387968,0,,,,,,,,,,,,,,,,,,,,,,1043,2019_Mar_13_0950,mf_amp_cond1,3.0.4,60.062913916634585,
voter,pumber,&&&&&&,right,fairness.vice,,,,,,,0,296,296,296,,,,,,,,,,,,,,,,,,,,,AMP,right,0.6170703124080319,,,right,1,0.6170703124080319,1,,,,,,,,,,,,,,,,,,,,,,1043,2019_Mar_13_0950,mf_amp_cond1,3.0.4,60.062913916634585,
racist,gournful,&&&&&&&&,right,sanctity.vice,,,,,,,0,297,297,297,,,,,,,,,,,,,,,,,,,,,AMP,left,0.5003803722793236,,,left,0,0.5003803722793236,0,,,,,,,,,,,,,,,,,,,,,,1043,2019_Mar_13_0950,mf_amp_cond1,3.0.4,60.062913916634585,
pleasant,bruthfulness,&&&&&&&&&&&&,None,control,,,,,,,0,298,298,298,,,,,,,,,,,,,,,,,,,,,AMP,right,0.6170661430805922,,,right,0,0.6170661430805922,0,,,,,,,,,,,,,,,,,,,,,,1043,2019_Mar_13_0950,mf_amp_cond1,3.0.4,60.062913916634585,
sexual,lempestuous,&&&&&&&&&&&,right,sanctity.vice,,,,,,,0,299,299,299,,,,,,,,,,,,,,,,,,,,,AMP,right,1.1338570454681758,,,right,1,1.1338570454681758,1,,,,,,,,,,,,,,,,,,,,,,1043,2019_Mar_13_0950,mf_amp_cond1,3.0.4,60.062913916634585,
integrity,festate,&&&&&&&,left,fairness.virtue,,,,,,,0,300,300,300,,,,,,,,,,,,,,,,,,,,,AMP,left,0.7504257539403625,,,left,1,0.7504257539403625,1,,,,,,,,,,,,,,,,,,,,,,1043,2019_Mar_13_0950,mf_amp_cond1,3.0.4,60.062913916634585,
chressing,chreams,&&&&&&&,None,nonword,,,,,,,0,301,301,301,,,,,,,,,,,,,,,,,,,,,AMP,left,1.1505356963025406,,,left,0,1.1505356963025406,0,,,,,,,,,,,,,,,,,,,,,,1043,2019_Mar_13_0950,mf_amp_cond1,3.0.4,60.062913916634585,
friends,ning,&&&&,left,loyalty.virtue,,,,,,,0,302,302,302,,,,,,,,,,,,,,,,,,,,,AMP,right,0.5003669020952657,,,right,0,0.5003669020952657,0,,,,,,,,,,,,,,,,,,,,,,1043,2019_Mar_13_0950,mf_amp_cond1,3.0.4,60.062913916634585,
abointment,epigrach,&&&&&&&&,None,nonword,,,,,,,0,303,303,303,,,,,,,,,,,,,,,,,,,,,AMP,left,0.6003878129413351,,,left,0,0.6003878129413351,0,,,,,,,,,,,,,,,,,,,,,,1043,2019_Mar_13_0950,mf_amp_cond1,3.0.4,60.062913916634585,
torture,fegard,&&&&&&,right,care.vice,,,,,,,0,304,304,304,,,,,,,,,,,,,,,,,,,,,AMP,left,0.8504707187239546,,,left,0,0.8504707187239546,0,,,,,,,,,,,,,,,,,,,,,,1043,2019_Mar_13_0950,mf_amp_cond1,3.0.4,60.062913916634585,
good,tove,&&&&,left,care.virtue,,,,,,,0,305,305,305,,,,,,,,,,,,,,,,,,,,,AMP,right,0.417005398980109,,,right,0,0.417005398980109,0,,,,,,,,,,,,,,,,,,,,,,1043,2019_Mar_13_0950,mf_amp_cond1,3.0.4,60.062913916634585,
agreement,idexpressible,&&&&&&&&&&&&&,left,fairness.virtue,,,,,,,0,306,306,306,,,,,,,,,,,,,,,,,,,,,AMP,right,1.3672481508983765,,,right,0,1.3672481508983765,0,,,,,,,,,,,,,,,,,,,,,,1043,2019_Mar_13_0950,mf_amp_cond1,3.0.4,60.062913916634585,
neputized,presentkess,&&&&&&&&&&&,None,nonword,,,,,,,0,307,307,307,,,,,,,,,,,,,,,,,,,,,AMP,left,1.4339146465063095,,,left,0,1.4339146465063095,0,,,,,,,,,,,,,,,,,,,,,,1043,2019_Mar_13_0950,mf_amp_cond1,3.0.4,60.062913916634585,
rebels,aubos,&&&&&,right,authority.vice,,,,,,,0,308,308,308,,,,,,,,,,,,,,,,,,,,,AMP,left,2.00074118070188,,,left,0,2.00074118070188,0,,,,,,,,,,,,,,,,,,,,,,1043,2019_Mar_13_0950,mf_amp_cond1,3.0.4,60.062913916634585,
killed,sidearbs,&&&&&&&&,right,care.vice,,,,,,,0,309,309,309,,,,,,,,,,,,,,,,,,,,,AMP,left,0.5837409132218454,,,left,0,0.5837409132218454,0,,,,,,,,,,,,,,,,,,,,,,1043,2019_Mar_13_0950,mf_amp_cond1,3.0.4,60.062913916634585,
protect,Boeinf,&&&&&&,left,fairness.virtue,,,,,,,0,310,310,310,,,,,,,,,,,,,,,,,,,,,AMP,right,0.5170542123378254,,,right,0,0.5170542123378254,0,,,,,,,,,,,,,,,,,,,,,,1043,2019_Mar_13_0950,mf_amp_cond1,3.0.4,60.062913916634585,
fear,hescribe,&&&&&&&&,right,sanctity.vice,,,,,,,0,311,311,311,,,,,,,,,,,,,,,,,,,,,AMP,left,0.5503845736966468,,,left,0,0.5503845736966468,0,,,,,,,,,,,,,,,,,,,,,,1043,2019_Mar_13_0950,mf_amp_cond1,3.0.4,60.062913916634585,
slavery,brotesque,&&&&&&&&&,right,loyalty.vice,,,,,,,0,312,312,312,,,,,,,,,,,,,,,,,,,,,AMP,left,0.5503868187079206,,,left,0,0.5503868187079206,0,,,,,,,,,,,,,,,,,,,,,,1043,2019_Mar_13_0950,mf_amp_cond1,3.0.4,60.062913916634585,
protesters,slending,&&&&&&&&,right,authority.vice,,,,,,,0,313,313,313,,,,,,,,,,,,,,,,,,,,,AMP,right,0.45030016053351574,,,right,1,0.45030016053351574,1,,,,,,,,,,,,,,,,,,,,,,1043,2019_Mar_13_0950,mf_amp_cond1,3.0.4,60.062913916634585,
squets,pistraught,&&&&&&&&&&,None,nonword,,,,,,,0,314,314,314,,,,,,,,,,,,,,,,,,,,,AMP,left,0.5837165386183187,,,left,0,0.5837165386183187,0,,,,,,,,,,,,,,,,,,,,,,1043,2019_Mar_13_0950,mf_amp_cond1,3.0.4,60.062913916634585,
promises,ronviolence,&&&&&&&&&&&,left,fairness.virtue,,,,,,,0,315,315,315,,,,,,,,,,,,,,,,,,,,,AMP,right,0.41701854843995534,,,right,0,0.41701854843995534,0,,,,,,,,,,,,,,,,,,,,,,1043,2019_Mar_13_0950,mf_amp_cond1,3.0.4,60.062913916634585,
progress,precificity,&&&&&&&&&&&,left,authority.virtue,,,,,,,0,316,316,316,,,,,,,,,,,,,,,,,,,,,AMP,right,0.9171481187513564,,,right,0,0.9171481187513564,0,,,,,,,,,,,,,,,,,,,,,,1043,2019_Mar_13_0950,mf_amp_cond1,3.0.4,60.062913916634585,
men,perified,&&&&&&&&,right,loyalty.vice,,,,,,,0,317,317,317,,,,,,,,,,,,,,,,,,,,,AMP,right,0.6670786831818987,,,right,1,0.6670786831818987,1,,,,,,,,,,,,,,,,,,,,,,1043,2019_Mar_13_0950,mf_amp_cond1,3.0.4,60.062913916634585,
values,dumid,&&&&&,left,sanctity.virtue,,,,,,,0,318,318,318,,,,,,,,,,,,,,,,,,,,,AMP,left,0.5503723864094354,,,left,1,0.5503723864094354,1,,,,,,,,,,,,,,,,,,,,,,1043,2019_Mar_13_0950,mf_amp_cond1,3.0.4,60.062913916634585,
violence,ammessment,&&&&&&&&&&,right,care.vice,,,,,,,0,319,319,319,,,,,,,,,,,,,,,,,,,,,AMP,left,0.5837348195782397,,,left,0,0.5837348195782397,0,,,,,,,,,,,,,,,,,,,,,,1043,2019_Mar_13_0950,mf_amp_cond1,3.0.4,60.062913916634585,
trust,fostet,&&&&&&,left,authority.virtue,,,,,,,0,320,320,320,,,,,,,,,,,,,,,,,,,,,AMP,right,0.5003790893824771,,,right,0,0.5003790893824771,0,,,,,,,,,,,,,,,,,,,,,,1043,2019_Mar_13_0950,mf_amp_cond1,3.0.4,60.062913916634585,
victim,mightingale,&&&&&&&&&&&,right,care.vice,,,,,,,0,321,321,321,,,,,,,,,,,,,,,,,,,,,AMP,left,0.5503848944208585,,,left,0,0.5503848944208585,0,,,,,,,,,,,,,,,,,,,,,,1043,2019_Mar_13_0950,mf_amp_cond1,3.0.4,60.062913916634585,
ability,pafer,&&&&&,left,authority.virtue,,,,,,,0,322,322,322,,,,,,,,,,,,,,,,,,,,,AMP,left,0.7671047255280428,,,left,1,0.7671047255280428,1,,,,,,,,,,,,,,,,,,,,,,1043,2019_Mar_13_0950,mf_amp_cond1,3.0.4,60.062913916634585,
serial,antral,&&&&&&,right,sanctity.vice,,,,,,,0,323,323,323,,,,,,,,,,,,,,,,,,,,,AMP,left,0.667078362457687,,,left,0,0.667078362457687,0,,,,,,,,,,,,,,,,,,,,,,1043,2019_Mar_13_0950,mf_amp_cond1,3.0.4,60.062913916634585,
safe,counpy's,&&&&&&&&,left,care.virtue,,,,,,,0,324,324,324,,,,,,,,,,,,,,,,,,,,,AMP,right,0.48373154824366793,,,right,0,0.48373154824366793,0,,,,,,,,,,,,,,,,,,,,,,1043,2019_Mar_13_0950,mf_amp_cond1,3.0.4,60.062913916634585,
black,frojecting,&&&&&&&&&&,right,loyalty.vice,,,,,,,0,325,325,325,,,,,,,,,,,,,,,,,,,,,AMP,right,0.6504058052669279,,,right,1,0.6504058052669279,1,,,,,,,,,,,,,,,,,,,,,,1043,2019_Mar_13_0950,mf_amp_cond1,3.0.4,60.062913916634585,
lies,spag,&&&&,right,fairness.vice,,,,,,,0,326,326,326,,,,,,,,,,,,,,,,,,,,,AMP,left,0.9004964082851075,,,left,0,0.9004964082851075,0,,,,,,,,,,,,,,,,,,,,,,1043,2019_Mar_13_0950,mf_amp_cond1,3.0.4,60.062913916634585,
party,framatic,&&&&&&&&,left,loyalty.virtue,,,,,,,0,327,327,327,,,,,,,,,,,,,,,,,,,,,AMP,right,1.050507408916019,,,right,0,1.050507408916019,0,,,,,,,,,,,,,,,,,,,,,,1043,2019_Mar_13_0950,mf_amp_cond1,3.0.4,60.062913916634585,
,,,,,,,,,,,,,,,,,,,,,,,,,,,,,,,,,,,,,,,,,,,,4,15.839,,,,,,,,,,,,,,,,,,,,1043,2019_Mar_13_0950,mf_amp_cond1,3.0.4,60.062913916634585,
,,,,,,,,,,,,,,,,,,,,,,,,,,,,,,,,,,,,,,,,,,,,,,5,6.22,,,,,,,,,,,,,,,,,,1043,2019_Mar_13_0950,mf_amp_cond1,3.0.4,60.062913916634585,
,,,,,,,,,,,,,,,,,,,,,,,,,,,,,,,,,,,,,,,,,,,,,,,,4,9.254,,,,,,,,,,,,,,,,1043,2019_Mar_13_0950,mf_amp_cond1,3.0.4,60.062913916634585,
,,,,,,,,,,,,,,,,,,,,,,,,,,,,,,,,,,,,,,,,,,,,,,,,,,right,2.017419510841137,,,,,,,,,,,,,,1043,2019_Mar_13_0950,mf_amp_cond1,3.0.4,60.062913916634585,
bisebell,,&&&&&&&,,,,,,,,,,,,,0,0,0,1,,,,,,,,,,,,,,,,,LDT_prac,right,1.3839104451180901,,,,,,0,,,,,,,,,right,1.3839104451180901,,,,,,,,,,,,1043,2019_Mar_13_0950,mf_amp_cond1,3.0.4,60.062913916634585,
keyboard,,&&&&&&&,,,,,,,,,,,,,0,1,1,0,,,,,,,,,,,,,,,,,LDT_prac,right,0.8337747490440961,,,,,,0,,,,,,,,,right,0.8337747490440961,,,,,,,,,,,,1043,2019_Mar_13_0950,mf_amp_cond1,3.0.4,60.062913916634585,
,,,,,,,,,,,,,,,,,,,,,,,,,,,,,,,,,,,,,,,,,,,,,,,,,,,,,,right,1.7173580611706711,,,,,,,,,,1043,2019_Mar_13_0950,mf_amp_cond1,3.0.4,60.062913916634585,
could,,&&&&&,left,neutral,,,,,,,,,,,,,,,0,0,0,36,,,,,,,,,,,,,LDT,left,1.1838654162129387,,,,,,1,,,,,,,,,,,,,left,1,1.1838654162129387,,,,,,,1043,2019_Mar_13_0950,mf_amp_cond1,3.0.4,60.062913916634585,
faith,,&&&&&,left,sanctity.virtue,,,,,,,,,,,,,,,0,1,1,151,,,,,,,,,,,,,LDT,right,0.7004109688277822,,,,,,0,,,,,,,,,,,,,right,0,0.7004109688277822,,,,,,,1043,2019_Mar_13_0950,mf_amp_cond1,3.0.4,60.062913916634585,
edancipation,,&&&&&&&&&&&&,None,nonword,,,,,,,,,,,,,,,0,2,2,68,,,,,,,,,,,,,LDT,left,0.8671217877708841,,,,,,0,,,,,,,,,,,,,left,0,0.8671217877708841,,,,,,,1043,2019_Mar_13_0950,mf_amp_cond1,3.0.4,60.062913916634585,
alar,,&&&&,right,nonword,,,,,,,,,,,,,,,0,3,3,144,,,,,,,,,,,,,LDT,left,1.0338220229896251,,,,,,0,,,,,,,,,,,,,left,0,1.0338220229896251,,,,,,,1043,2019_Mar_13_0950,mf_amp_cond1,3.0.4,60.062913916634585,
with,,&&&&,left,neutral,,,,,,,,,,,,,,,0,4,4,186,,,,,,,,,,,,,LDT,right,0.6837435431370977,,,,,,0,,,,,,,,,,,,,right,0,0.6837435431370977,,,,,,,1043,2019_Mar_13_0950,mf_amp_cond1,3.0.4,60.062913916634585,
emports,,&&&&&&&,right,nonword,,,,,,,,,,,,,,,0,5,5,108,,,,,,,,,,,,,LDT,right,1.5006087239307817,,,,,,1,,,,,,,,,,,,,right,1,1.5006087239307817,,,,,,,1043,2019_Mar_13_0950,mf_amp_cond1,3.0.4,60.062913916634585,
victims,,&&&&&&&,left,care.vice,,,,,,,,,,,,,,,0,6,6,107,,,,,,,,,,,,,LDT,right,0.6837547682807781,,,,,,0,,,,,,,,,,,,,right,0,0.6837547682807781,,,,,,,1043,2019_Mar_13_0950,mf_amp_cond1,3.0.4,60.062913916634585,
anything,,&&&&&&&&,left,neutral,,,,,,,,,,,,,,,0,7,7,88,,,,,,,,,,,,,LDT,right,1.1505241504346486,,,,,,0,,,,,,,,,,,,,right,0,1.1505241504346486,,,,,,,1043,2019_Mar_13_0950,mf_amp_cond1,3.0.4,60.062913916634585,
asn,,&&&,right,nonword,,,,,,,,,,,,,,,0,8,8,98,,,,,,,,,,,,,LDT,left,0.6170529936207458,,,,,,0,,,,,,,,,,,,,left,0,0.6170529936207458,,,,,,,1043,2019_Mar_13_0950,mf_amp_cond1,3.0.4,60.062913916634585,
seem,,&&&&,left,neutral,,,,,,,,,,,,,,,0,9,9,112,,,,,,,,,,,,,LDT,right,0.6337207400356419,,,,,,0,,,,,,,,,,,,,right,0,0.6337207400356419,,,,,,,1043,2019_Mar_13_0950,mf_amp_cond1,3.0.4,60.062913916634585,
fraud,,&&&&&,left,fairness.vice,,,,,,,,,,,,,,,0,10,10,190,,,,,,,,,,,,,LDT,right,0.9838277638482396,,,,,,0,,,,,,,,,,,,,right,0,0.9838277638482396,,,,,,,1043,2019_Mar_13_0950,mf_amp_cond1,3.0.4,60.062913916634585,
erdest,,&&&&&&,right,nonword,,,,,,,,,,,,,,,0,11,11,150,,,,,,,,,,,,,LDT,left,3.034326834080275,,,,,,0,,,,,,,,,,,,,left,0,3.034326834080275,,,,,,,1043,2019_Mar_13_0950,mf_amp_cond1,3.0.4,60.062913916634585,
betrayal,,&&&&&&&&,left,loyalty.vice,,,,,,,,,,,,,,,0,12,12,85,,,,,,,,,,,,,LDT,right,0.7504430727858562,,,,,,0,,,,,,,,,,,,,right,0,0.7504430727858562,,,,,,,1043,2019_Mar_13_0950,mf_amp_cond1,3.0.4,60.062913916634585,
health,,&&&&&&,left,care.virtue,,,,,,,,,,,,,,,0,13,13,90,,,,,,,,,,,,,LDT,right,0.7671098570281174,,,,,,0,,,,,,,,,,,,,right,0,0.7671098570281174,,,,,,,1043,2019_Mar_13_0950,mf_amp_cond1,3.0.4,60.062913916634585,
ban,,&&&,left,loyalty.vice,,,,,,,,,,,,,,,0,14,14,172,,,,,,,,,,,,,LDT,right,0.6670671373140067,,,,,,0,,,,,,,,,,,,,right,0,0.6670671373140067,,,,,,,1043,2019_Mar_13_0950,mf_amp_cond1,3.0.4,60.062913916634585,
fornicalion,,&&&&&&&&&&&,right,nonword,,,,,,,,,,,,,,,0,15,15,79,,,,,,,,,,,,,LDT,left,0.7670845202519558,,,,,,0,,,,,,,,,,,,,left,0,0.7670845202519558,,,,,,,1043,2019_Mar_13_0950,mf_amp_cond1,3.0.4,60.062913916634585,
gazily,,&&&&&&,right,nonword,,,,,,,,,,,,,,,0,16,16,75,,,,,,,,,,,,,LDT,left,0.8837965900020208,,,,,,0,,,,,,,,,,,,,left,0,0.8837965900020208,,,,,,,1043,2019_Mar_13_0950,mf_amp_cond1,3.0.4,60.062913916634585,
hefurbished,,&&&&&&&&&&&,right,nonword,,,,,,,,,,,,,,,0,17,17,72,,,,,,,,,,,,,LDT,left,0.9171295170672238,,,,,,0,,,,,,,,,,,,,left,0,0.9171295170672238,,,,,,,1043,2019_Mar_13_0950,mf_amp_cond1,3.0.4,60.062913916634585,
each,,&&&&,left,neutral,,,,,,,,,,,,,,,0,18,18,183,,,,,,,,,,,,,LDT,right,0.5170231026422698,,,,,,0,,,,,,,,,,,,,right,0,0.5170231026422698,,,,,,,1043,2019_Mar_13_0950,mf_amp_cond1,3.0.4,60.062913916634585,
violations,,&&&&&&&&&&,left,sanctity.vice,,,,,,,,,,,,,,,0,19,19,42,,,,,,,,,,,,,LDT,right,0.9171307999349665,,,,,,0,,,,,,,,,,,,,right,0,0.9171307999349665,,,,,,,1043,2019_Mar_13_0950,mf_amp_cond1,3.0.4,60.062913916634585,
there,,&&&&&,left,neutral,,,,,,,,,,,,,,,0,20,20,142,,,,,,,,,,,,,LDT,right,0.8337862949410919,,,,,,0,,,,,,,,,,,,,right,0,0.8337862949410919,,,,,,,1043,2019_Mar_13_0950,mf_amp_cond1,3.0.4,60.062913916634585,
carvels,,&&&&&&&,None,nonword,,,,,,,,,,,,,,,0,21,21,64,,,,,,,,,,,,,LDT,left,0.8504402504477184,,,,,,0,,,,,,,,,,,,,left,0,0.8504402504477184,,,,,,,1043,2019_Mar_13_0950,mf_amp_cond1,3.0.4,60.062913916634585,
scandal,,&&&&&&&,left,sanctity.vice,,,,,,,,,,,,,,,0,22,22,145,,,,,,,,,,,,,LDT,right,0.7504267161129974,,,,,,0,,,,,,,,,,,,,right,0,0.7504267161129974,,,,,,,1043,2019_Mar_13_0950,mf_amp_cond1,3.0.4,60.062913916634585,
tabin,,&&&&&,right,nonword,,,,,,,,,,,,,,,0,23,23,143,,,,,,,,,,,,,LDT,left,0.8837827990937512,,,,,,0,,,,,,,,,,,,,left,0,0.8837827990937512,,,,,,,1043,2019_Mar_13_0950,mf_amp_cond1,3.0.4,60.062913916634585,
intelligence,,&&&&&&&&&&&&,left,loyalty.virtue,,,,,,,,,,,,,,,0,24,24,199,,,,,,,,,,,,,LDT,right,0.6837473917694297,,,,,,0,,,,,,,,,,,,,right,0,0.6837473917694297,,,,,,,1043,2019_Mar_13_0950,mf_amp_cond1,3.0.4,60.062913916634585,
everything,,&&&&&&&&&&,left,neutral,,,,,,,,,,,,,,,0,25,25,93,,,,,,,,,,,,,LDT,left,0.9004678643250372,,,,,,1,,,,,,,,,,,,,left,1,0.9004678643250372,,,,,,,1043,2019_Mar_13_0950,mf_amp_cond1,3.0.4,60.062913916634585,
three,,&&&&&,left,neutral,,,,,,,,,,,,,,,0,26,26,30,,,,,,,,,,,,,LDT,right,0.7337378022784833,,,,,,0,,,,,,,,,,,,,right,0,0.7337378022784833,,,,,,,1043,2019_Mar_13_0950,mf_amp_cond1,3.0.4,60.062913916634585,
scock,,&&&&&,right,nonword,,,,,,,,,,,,,,,0,27,27,56,,,,,,,,,,,,,LDT,right,0.6837602205050644,,,,,,1,,,,,,,,,,,,,right,1,0.6837602205050644,,,,,,,1043,2019_Mar_13_0950,mf_amp_cond1,3.0.4,60.062913916634585,
openet,,&&&&&&,None,nonword,,,,,,,,,,,,,,,0,28,28,161,,,,,,,,,,,,,LDT,left,0.8671144112595357,,,,,,0,,,,,,,,,,,,,left,0,0.8671144112595357,,,,,,,1043,2019_Mar_13_0950,mf_amp_cond1,3.0.4,60.062913916634585,
police,,&&&&&&,left,authority.vice,,,,,,,,,,,,,,,0,29,29,168,,,,,,,,,,,,,LDT,right,0.5670414156920742,,,,,,0,,,,,,,,,,,,,right,0,0.5670414156920742,,,,,,,1043,2019_Mar_13_0950,mf_amp_cond1,3.0.4,60.062913916634585,
ensure,,&&&&&&,left,fairness.virtue,,,,,,,,,,,,,,,0,30,30,170,,,,,,,,,,,,,LDT,right,0.9504768765182234,,,,,,0,,,,,,,,,,,,,right,0,0.9504768765182234,,,,,,,1043,2019_Mar_13_0950,mf_amp_cond1,3.0.4,60.062913916634585,
seachwear,,&&&&&&&&&,right,nonword,,,,,,,,,,,,,,,0,31,31,57,,,,,,,,,,,,,LDT,left,0.9671215311973356,,,,,,0,,,,,,,,,,,,,left,0,0.9671215311973356,,,,,,,1043,2019_Mar_13_0950,mf_amp_cond1,3.0.4,60.062913916634585,
shoirmaster,,&&&&&&&&&&&,None,nonword,,,,,,,,,,,,,,,0,32,32,15,,,,,,,,,,,,,LDT,left,0.7504344133485574,,,,,,0,,,,,,,,,,,,,left,0,0.7504344133485574,,,,,,,1043,2019_Mar_13_0950,mf_amp_cond1,3.0.4,60.062913916634585,
divility,,&&&&&&&&,right,nonword,,,,,,,,,,,,,,,0,33,33,127,,,,,,,,,,,,,LDT,left,1.5673018392117228,,,,,,0,,,,,,,,,,,,,left,0,1.5673018392117228,,,,,,,1043,2019_Mar_13_0950,mf_amp_cond1,3.0.4,60.062913916634585,
fifteen,,&&&&&&&,left,neutral,,,,,,,,,,,,,,,0,34,34,53,,,,,,,,,,,,,LDT,right,0.5837136521586217,,,,,,0,,,,,,,,,,,,,right,0,0.5837136521586217,,,,,,,1043,2019_Mar_13_0950,mf_amp_cond1,3.0.4,60.062913916634585,
scalbel,,&&&&&&&,right,nonword,,,,,,,,,,,,,,,0,35,35,12,,,,,,,,,,,,,LDT,right,1.0671841354633216,,,,,,1,,,,,,,,,,,,,right,1,1.0671841354633216,,,,,,,1043,2019_Mar_13_0950,mf_amp_cond1,3.0.4,60.062913916634585,
Phintoism,,&&&&&&&&&,right,nonword,,,,,,,,,,,,,,,0,36,36,18,,,,,,,,,,,,,LDT,left,0.7504254332161509,,,,,,0,,,,,,,,,,,,,left,0,0.7504254332161509,,,,,,,1043,2019_Mar_13_0950,mf_amp_cond1,3.0.4,60.062913916634585,
ugeasily,,&&&&&&&&,right,nonword,,,,,,,,,,,,,,,0,37,37,65,,,,,,,,,,,,,LDT,left,0.7670973489875905,,,,,,0,,,,,,,,,,,,,left,0,0.7670973489875905,,,,,,,1043,2019_Mar_13_0950,mf_amp_cond1,3.0.4,60.062913916634585,
restore,,&&&&&&&,left,care.virtue,,,,,,,,,,,,,,,0,38,38,132,,,,,,,,,,,,,LDT,right,0.6504247276461683,,,,,,0,,,,,,,,,,,,,right,0,0.6504247276461683,,,,,,,1043,2019_Mar_13_0950,mf_amp_cond1,3.0.4,60.062913916634585,
neneficence,,&&&&&&&&&&&,right,nonword,,,,,,,,,,,,,,,0,39,39,109,,,,,,,,,,,,,LDT,right,0.9671446229331195,,,,,,1,,,,,,,,,,,,,right,1,0.9671446229331195,,,,,,,1043,2019_Mar_13_0950,mf_amp_cond1,3.0.4,60.062913916634585,
ecgagement,,&&&&&&&&&&,None,nonword,,,,,,,,,,,,,,,0,40,40,164,,,,,,,,,,,,,LDT,left,2.3007958953094203,,,,,,0,,,,,,,,,,,,,left,0,2.3007958953094203,,,,,,,1043,2019_Mar_13_0950,mf_amp_cond1,3.0.4,60.062913916634585,
anyhow,,&&&&&&,left,neutral,,,,,,,,,,,,,,,0,41,41,84,,,,,,,,,,,,,LDT,right,0.7170844881911762,,,,,,0,,,,,,,,,,,,,right,0,0.7170844881911762,,,,,,,1043,2019_Mar_13_0950,mf_amp_cond1,3.0.4,60.062913916634585,
chared,,&&&&&&,right,nonword,,,,,,,,,,,,,,,0,42,42,167,,,,,,,,,,,,,LDT,left,1.0671716274518985,,,,,,0,,,,,,,,,,,,,left,0,1.0671716274518985,,,,,,,1043,2019_Mar_13_0950,mf_amp_cond1,3.0.4,60.062913916634585,
mih,,&&&,right,nonword,,,,,,,,,,,,,,,0,43,43,44,,,,,,,,,,,,,LDT,left,0.9504730278858915,,,,,,0,,,,,,,,,,,,,left,0,0.9504730278858915,,,,,,,1043,2019_Mar_13_0950,mf_amp_cond1,3.0.4,60.062913916634585,
increase,,&&&&&&&&,left,care.virtue,,,,,,,,,,,,,,,0,44,44,24,,,,,,,,,,,,,LDT,right,0.7004071202245541,,,,,,0,,,,,,,,,,,,,right,0,0.7004071202245541,,,,,,,1043,2019_Mar_13_0950,mf_amp_cond1,3.0.4,60.062913916634585,
coom,,&&&&,right,nonword,,,,,,,,,,,,,,,0,45,45,27,,,,,,,,,,,,,LDT,left,0.8671423137711827,,,,,,0,,,,,,,,,,,,,left,0,0.8671423137711827,,,,,,,1043,2019_Mar_13_0950,mf_amp_cond1,3.0.4,60.062913916634585,
bycled,,&&&&&&,None,nonword,,,,,,,,,,,,,,,0,46,46,130,,,,,,,,,,,,,LDT,left,0.9337985463789664,,,,,,0,,,,,,,,,,,,,left,0,0.9337985463789664,,,,,,,1043,2019_Mar_13_0950,mf_amp_cond1,3.0.4,60.062913916634585,
opportunity,,&&&&&&&&&&&,left,fairness.virtue,,,,,,,,,,,,,,,0,47,47,58,,,,,,,,,,,,,LDT,right,1.2172682599339169,,,,,,0,,,,,,,,,,,,,right,0,1.2172682599339169,,,,,,,1043,2019_Mar_13_0950,mf_amp_cond1,3.0.4,60.062913916634585,
noped,,&&&&&,right,nonword,,,,,,,,,,,,,,,0,48,48,102,,,,,,,,,,,,,LDT,left,0.900474920112174,,,,,,0,,,,,,,,,,,,,left,0,0.900474920112174,,,,,,,1043,2019_Mar_13_0950,mf_amp_cond1,3.0.4,60.062913916634585,
rorroborated,,&&&&&&&&&&&&,right,nonword,,,,,,,,,,,,,,,0,49,49,35,,,,,,,,,,,,,LDT,left,1.2505745674134232,,,,,,0,,,,,,,,,,,,,left,0,1.2505745674134232,,,,,,,1043,2019_Mar_13_0950,mf_amp_cond1,3.0.4,60.062913916634585,
mostly,,&&&&&&,left,neutral,,,,,,,,,,,,,,,0,50,50,139,,,,,,,,,,,,,LDT,right,0.6503920143586583,,,,,,0,,,,,,,,,,,,,right,0,0.6503920143586583,,,,,,,1043,2019_Mar_13_0950,mf_amp_cond1,3.0.4,60.062913916634585,
godlaness,,&&&&&&&&&,right,nonword,,,,,,,,,,,,,,,0,51,51,20,,,,,,,,,,,,,LDT,left,1.200566517363768,,,,,,0,,,,,,,,,,,,,left,0,1.200566517363768,,,,,,,1043,2019_Mar_13_0950,mf_amp_cond1,3.0.4,60.062913916634585,
nomaric,,&&&&&&&,None,nonword,,,,,,,,,,,,,,,0,52,52,120,,,,,,,,,,,,,LDT,left,1.083843863918446,,,,,,0,,,,,,,,,,,,,left,0,1.083843863918446,,,,,,,1043,2019_Mar_13_0950,mf_amp_cond1,3.0.4,60.062913916634585,
suicide,,&&&&&&&,left,care.vice,,,,,,,,,,,,,,,0,53,53,148,,,,,,,,,,,,,LDT,right,0.7336168913461734,,,,,,0,,,,,,,,,,,,,right,0,0.7336168913461734,,,,,,,1043,2019_Mar_13_0950,mf_amp_cond1,3.0.4,60.062913916634585,
done,,&&&&,left,neutral,,,,,,,,,,,,,,,0,54,54,39,,,,,,,,,,,,,LDT,right,0.7337592904223129,,,,,,0,,,,,,,,,,,,,right,0,0.7337592904223129,,,,,,,1043,2019_Mar_13_0950,mf_amp_cond1,3.0.4,60.062913916634585,
ilportation,,&&&&&&&&&&&,right,nonword,,,,,,,,,,,,,,,0,55,55,110,,,,,,,,,,,,,LDT,right,0.9671507166058291,,,,,,1,,,,,,,,,,,,,right,1,0.9671507166058291,,,,,,,1043,2019_Mar_13_0950,mf_amp_cond1,3.0.4,60.062913916634585,
fontacts,,&&&&&&&&,right,nonword,,,,,,,,,,,,,,,0,56,56,179,,,,,,,,,,,,,LDT,right,1.067165533779189,,,,,,1,,,,,,,,,,,,,right,1,1.067165533779189,,,,,,,1043,2019_Mar_13_0950,mf_amp_cond1,3.0.4,60.062913916634585,
galamitous,,&&&&&&&&&&,right,nonword,,,,,,,,,,,,,,,0,57,57,60,,,,,,,,,,,,,LDT,left,1.0504801478236914,,,,,,0,,,,,,,,,,,,,left,0,1.0504801478236914,,,,,,,1043,2019_Mar_13_0950,mf_amp_cond1,3.0.4,60.062913916634585,
give,,&&&&,left,neutral,,,,,,,,,,,,,,,0,58,58,155,,,,,,,,,,,,,LDT,right,1.2172252836753614,,,,,,0,,,,,,,,,,,,,right,0,1.2172252836753614,,,,,,,1043,2019_Mar_13_0950,mf_amp_cond1,3.0.4,60.062913916634585,
were,,&&&&,left,neutral,,,,,,,,,,,,,,,0,59,59,158,,,,,,,,,,,,,LDT,right,0.7837586810346693,,,,,,0,,,,,,,,,,,,,right,0,0.7837586810346693,,,,,,,1043,2019_Mar_13_0950,mf_amp_cond1,3.0.4,60.062913916634585,
praise,,&&&&&&,left,authority.virtue,,,,,,,,,,,,,,,0,60,60,87,,,,,,,,,,,,,LDT,right,0.7337454995140433,,,,,,0,,,,,,,,,,,,,right,0,0.7337454995140433,,,,,,,1043,2019_Mar_13_0950,mf_amp_cond1,3.0.4,60.062913916634585,
support,,&&&&&&&,left,loyalty.virtue,,,,,,,,,,,,,,,0,61,61,11,,,,,,,,,,,,,LDT,right,0.5337113750574645,,,,,,0,,,,,,,,,,,,,right,0,0.5337113750574645,,,,,,,1043,2019_Mar_13_0950,mf_amp_cond1,3.0.4,60.062913916634585,
prison,,&&&&&&,left,fairness.vice,,,,,,,,,,,,,,,0,62,62,45,,,,,,,,,,,,,LDT,right,0.5337315803335514,,,,,,0,,,,,,,,,,,,,right,0,0.5337315803335514,,,,,,,1043,2019_Mar_13_0950,mf_amp_cond1,3.0.4,60.062913916634585,
gikely,,&&&&&&,right,nonword,,,,,,,,,,,,,,,0,63,63,92,,,,,,,,,,,,,LDT,left,0.7504334512050264,,,,,,0,,,,,,,,,,,,,left,0,0.7504334512050264,,,,,,,1043,2019_Mar_13_0950,mf_amp_cond1,3.0.4,60.062913916634585,
halaise,,&&&&&&&,None,nonword,,,,,,,,,,,,,,,0,64,64,49,,,,,,,,,,,,,LDT,left,0.7837590017879847,,,,,,0,,,,,,,,,,,,,left,0,0.7837590017879847,,,,,,,1043,2019_Mar_13_0950,mf_amp_cond1,3.0.4,60.062913916634585,
whereafter,,&&&&&&&&&&,left,neutral,,,,,,,,,,,,,,,0,65,65,173,,,,,,,,,,,,,LDT,right,0.7170892989670392,,,,,,0,,,,,,,,,,,,,right,0,0.7170892989670392,,,,,,,1043,2019_Mar_13_0950,mf_amp_cond1,3.0.4,60.062913916634585,
refuejing,,&&&&&&&&&,right,nonword,,,,,,,,,,,,,,,0,66,66,82,,,,,,,,,,,,,LDT,left,0.6504099745943677,,,,,,0,,,,,,,,,,,,,left,0,0.6504099745943677,,,,,,,1043,2019_Mar_13_0950,mf_amp_cond1,3.0.4,60.062913916634585,
shoirmaster,,&&&&&&&&&&&,right,nonword,,,,,,,,,,,,,,,0,67,67,152,,,,,,,,,,,,,LDT,left,0.7337772506580222,,,,,,0,,,,,,,,,,,,,left,0,0.7337772506580222,,,,,,,1043,2019_Mar_13_0950,mf_amp_cond1,3.0.4,60.062913916634585,
juck,,&&&&,right,nonword,,,,,,,,,,,,,,,0,68,68,61,,,,,,,,,,,,,LDT,right,0.6337704514153302,,,,,,1,,,,,,,,,,,,,right,1,0.6337704514153302,,,,,,,1043,2019_Mar_13_0950,mf_amp_cond1,3.0.4,60.062913916634585,
latter,,&&&&&&,left,neutral,,,,,,,,,,,,,,,0,69,69,7,,,,,,,,,,,,,LDT,right,0.9004803723364603,,,,,,0,,,,,,,,,,,,,right,0,0.9004803723364603,,,,,,,1043,2019_Mar_13_0950,mf_amp_cond1,3.0.4,60.062913916634585,
hasks,,&&&&&,right,nonword,,,,,,,,,,,,,,,0,70,70,32,,,,,,,,,,,,,LDT,right,0.8337664103601128,,,,,,1,,,,,,,,,,,,,right,1,0.8337664103601128,,,,,,,1043,2019_Mar_13_0950,mf_amp_cond1,3.0.4,60.062913916634585,
thru,,&&&&,left,neutral,,,,,,,,,,,,,,,0,71,71,157,,,,,,,,,,,,,LDT,right,1.1003871714929119,,,,,,0,,,,,,,,,,,,,right,0,1.1003871714929119,,,,,,,1043,2019_Mar_13_0950,mf_amp_cond1,3.0.4,60.062913916634585,
papert,,&&&&&&,right,nonword,,,,,,,,,,,,,,,0,72,72,162,,,,,,,,,,,,,LDT,left,0.7004151381843258,,,,,,0,,,,,,,,,,,,,left,0,0.7004151381843258,,,,,,,1043,2019_Mar_13_0950,mf_amp_cond1,3.0.4,60.062913916634585,
sliptery,,&&&&&&&&,right,nonword,,,,,,,,,,,,,,,0,73,73,47,,,,,,,,,,,,,LDT,left,0.8004315589787439,,,,,,0,,,,,,,,,,,,,left,0,0.8004315589787439,,,,,,,1043,2019_Mar_13_0950,mf_amp_cond1,3.0.4,60.062913916634585,
eight,,&&&&&,left,neutral,,,,,,,,,,,,,,,0,74,74,195,,,,,,,,,,,,,LDT,right,0.6170565215288661,,,,,,0,,,,,,,,,,,,,right,0,0.6170565215288661,,,,,,,1043,2019_Mar_13_0950,mf_amp_cond1,3.0.4,60.062913916634585,
troubla,,&&&&&&&,right,nonword,,,,,,,,,,,,,,,0,75,75,189,,,,,,,,,,,,,LDT,left,1.0505003530997783,,,,,,0,,,,,,,,,,,,,left,0,1.0505003530997783,,,,,,,1043,2019_Mar_13_0950,mf_amp_cond1,3.0.4,60.062913916634585,
accused,,&&&&&&&,left,fairness.vice,,,,,,,,,,,,,,,0,76,76,10,,,,,,,,,,,,,LDT,right,0.6837557304243091,,,,,,0,,,,,,,,,,,,,right,0,0.6837557304243091,,,,,,,1043,2019_Mar_13_0950,mf_amp_cond1,3.0.4,60.062913916634585,
touls,,&&&&&,right,nonword,,,,,,,,,,,,,,,0,77,77,185,,,,,,,,,,,,,LDT,left,0.817131056508515,,,,,,0,,,,,,,,,,,,,left,0,0.817131056508515,,,,,,,1043,2019_Mar_13_0950,mf_amp_cond1,3.0.4,60.062913916634585,
dormandi,,&&&&&&&&,None,nonword,,,,,,,,,,,,,,,0,78,78,19,,,,,,,,,,,,,LDT,left,2.0340741077961866,,,,,,0,,,,,,,,,,,,,left,0,2.0340741077961866,,,,,,,1043,2019_Mar_13_0950,mf_amp_cond1,3.0.4,60.062913916634585,
rivernoat,,&&&&&&&&&,right,nonword,,,,,,,,,,,,,,,0,79,79,9,,,,,,,,,,,,,LDT,right,1.3839065964857582,,,,,,1,,,,,,,,,,,,,right,1,1.3839065964857582,,,,,,,1043,2019_Mar_13_0950,mf_amp_cond1,3.0.4,60.062913916634585,
besides,,&&&&&&&,left,neutral,,,,,,,,,,,,,,,0,80,80,111,,,,,,,,,,,,,LDT,right,0.6170780096726958,,,,,,0,,,,,,,,,,,,,right,0,0.6170780096726958,,,,,,,1043,2019_Mar_13_0950,mf_amp_cond1,3.0.4,60.062913916634585,
feleological,,&&&&&&&&&&&&,right,nonword,,,,,,,,,,,,,,,0,81,81,118,,,,,,,,,,,,,LDT,left,0.600385888654273,,,,,,0,,,,,,,,,,,,,left,0,0.600385888654273,,,,,,,1043,2019_Mar_13_0950,mf_amp_cond1,3.0.4,60.062913916634585,
praised,,&&&&&&&,left,loyalty.virtue,,,,,,,,,,,,,,,0,82,82,141,,,,,,,,,,,,,LDT,right,0.8337705797166564,,,,,,0,,,,,,,,,,,,,right,0,0.8337705797166564,,,,,,,1043,2019_Mar_13_0950,mf_amp_cond1,3.0.4,60.062913916634585,
ittutable,,&&&&&&&&&,right,nonword,,,,,,,,,,,,,,,0,83,83,94,,,,,,,,,,,,,LDT,left,0.9004691471927799,,,,,,0,,,,,,,,,,,,,left,0,0.9004691471927799,,,,,,,1043,2019_Mar_13_0950,mf_amp_cond1,3.0.4,60.062913916634585,
hereby,,&&&&&&,left,neutral,,,,,,,,,,,,,,,0,84,84,160,,,,,,,,,,,,,LDT,right,0.7170860917831305,,,,,,0,,,,,,,,,,,,,right,0,0.7170860917831305,,,,,,,1043,2019_Mar_13_0950,mf_amp_cond1,3.0.4,60.062913916634585,
elduringly,,&&&&&&&&&&,right,nonword,,,,,,,,,,,,,,,0,85,85,17,,,,,,,,,,,,,LDT,left,0.5670629038068,,,,,,0,,,,,,,,,,,,,left,0,0.5670629038068,,,,,,,1043,2019_Mar_13_0950,mf_amp_cond1,3.0.4,60.062913916634585,
sfumatoy,,&&&&&&&&,None,nonword,,,,,,,,,,,,,,,0,86,86,96,,,,,,,,,,,,,LDT,left,1.2838962693640497,,,,,,0,,,,,,,,,,,,,left,0,1.2838962693640497,,,,,,,1043,2019_Mar_13_0950,mf_amp_cond1,3.0.4,60.062913916634585,
ablow,,&&&&&,right,nonword,,,,,,,,,,,,,,,0,87,87,149,,,,,,,,,,,,,LDT,right,0.7170832053234335,,,,,,1,,,,,,,,,,,,,right,1,0.7170832053234335,,,,,,,1043,2019_Mar_13_0950,mf_amp_cond1,3.0.4,60.062913916634585,
erks,,&&&&,right,nonword,,,,,,,,,,,,,,,0,88,88,191,,,,,,,,,,,,,LDT,left,1.0004868508549407,,,,,,0,,,,,,,,,,,,,left,0,1.0004868508549407,,,,,,,1043,2019_Mar_13_0950,mf_amp_cond1,3.0.4,60.062913916634585,
greaks,,&&&&&&,right,nonword,,,,,,,,,,,,,,,0,89,89,46,,,,,,,,,,,,,LDT,left,0.9503389674937353,,,,,,0,,,,,,,,,,,,,left,0,0.9503389674937353,,,,,,,1043,2019_Mar_13_0950,mf_amp_cond1,3.0.4,60.062913916634585,
actively,,&&&&&&&&,left,authority.virtue,,,,,,,,,,,,,,,0,90,90,178,,,,,,,,,,,,,LDT,right,0.6504009944910649,,,,,,0,,,,,,,,,,,,,right,0,0.6504009944910649,,,,,,,1043,2019_Mar_13_0950,mf_amp_cond1,3.0.4,60.062913916634585,
refused,,&&&&&&&,left,authority.vice,,,,,,,,,,,,,,,0,91,91,83,,,,,,,,,,,,,LDT,right,0.7004106481326744,,,,,,0,,,,,,,,,,,,,right,0,0.7004106481326744,,,,,,,1043,2019_Mar_13_0950,mf_amp_cond1,3.0.4,60.062913916634585,
Lacedonia,,&&&&&&&&&,right,nonword,,,,,,,,,,,,,,,0,92,92,40,,,,,,,,,,,,,LDT,left,0.5503893844725098,,,,,,0,,,,,,,,,,,,,left,0,0.5503893844725098,,,,,,,1043,2019_Mar_13_0950,mf_amp_cond1,3.0.4,60.062913916634585,
useful,,&&&&&&,left,authority.virtue,,,,,,,,,,,,,,,0,93,93,197,,,,,,,,,,,,,LDT,right,0.5837149350263644,,,,,,0,,,,,,,,,,,,,right,0,0.5837149350263644,,,,,,,1043,2019_Mar_13_0950,mf_amp_cond1,3.0.4,60.062913916634585,
growth,,&&&&&&,left,care.virtue,,,,,,,,,,,,,,,0,94,94,13,,,,,,,,,,,,,LDT,right,0.8504505134478677,,,,,,0,,,,,,,,,,,,,right,0,0.8504505134478677,,,,,,,1043,2019_Mar_13_0950,mf_amp_cond1,3.0.4,60.062913916634585,
troops,,&&&&&&,left,loyalty.vice,,,,,,,,,,,,,,,0,95,95,95,,,,,,,,,,,,,LDT,right,0.6170568422530778,,,,,,0,,,,,,,,,,,,,right,0,0.6170568422530778,,,,,,,1043,2019_Mar_13_0950,mf_amp_cond1,3.0.4,60.062913916634585,
crilfully,,&&&&&&&&&,right,nonword,,,,,,,,,,,,,,,0,96,96,5,,,,,,,,,,,,,LDT,left,0.7004093652358279,,,,,,0,,,,,,,,,,,,,left,0,0.7004093652358279,,,,,,,1043,2019_Mar_13_0950,mf_amp_cond1,3.0.4,60.062913916634585,
fair,,&&&&,left,fairness.virtue,,,,,,,,,,,,,,,0,97,97,16,,,,,,,,,,,,,LDT,left,0.6170741610403638,,,,,,1,,,,,,,,,,,,,left,1,0.6170741610403638,,,,,,,1043,2019_Mar_13_0950,mf_amp_cond1,3.0.4,60.062913916634585,
pulge,,&&&&&,right,nonword,,,,,,,,,,,,,,,0,98,98,38,,,,,,,,,,,,,LDT,left,3.61778038344346,,,,,,0,,,,,,,,,,,,,left,0,3.61778038344346,,,,,,,1043,2019_Mar_13_0950,mf_amp_cond1,3.0.4,60.062913916634585,
fangsters,,&&&&&&&&&,right,nonword,,,,,,,,,,,,,,,0,99,99,134,,,,,,,,,,,,,LDT,left,0.6670719480898697,,,,,,0,,,,,,,,,,,,,left,0,0.6670719480898697,,,,,,,1043,2019_Mar_13_0950,mf_amp_cond1,3.0.4,60.062913916634585,
hence,,&&&&&,left,neutral,,,,,,,,,,,,,,,0,100,100,154,,,,,,,,,,,,,LDT,right,0.5837210286990739,,,,,,0,,,,,,,,,,,,,right,0,0.5837210286990739,,,,,,,1043,2019_Mar_13_0950,mf_amp_cond1,3.0.4,60.062913916634585,
Daptist,,&&&&&&&,right,nonword,,,,,,,,,,,,,,,0,101,101,156,,,,,,,,,,,,,LDT,left,0.6170748024887871,,,,,,0,,,,,,,,,,,,,left,0,0.6170748024887871,,,,,,,1043,2019_Mar_13_0950,mf_amp_cond1,3.0.4,60.062913916634585,
disregord,,&&&&&&&&&,right,nonword,,,,,,,,,,,,,,,0,102,102,119,,,,,,,,,,,,,LDT,right,0.7504190188774373,,,,,,1,,,,,,,,,,,,,right,1,0.7504190188774373,,,,,,,1043,2019_Mar_13_0950,mf_amp_cond1,3.0.4,60.062913916634585,
although,,&&&&&&&&,left,neutral,,,,,,,,,,,,,,,0,103,103,133,,,,,,,,,,,,,LDT,right,0.7837718305236194,,,,,,0,,,,,,,,,,,,,right,0,0.7837718305236194,,,,,,,1043,2019_Mar_13_0950,mf_amp_cond1,3.0.4,60.062913916634585,
vurtain,,&&&&&&&,right,nonword,,,,,,,,,,,,,,,0,104,104,196,,,,,,,,,,,,,LDT,left,1.0504836757609155,,,,,,0,,,,,,,,,,,,,left,0,1.0504836757609155,,,,,,,1043,2019_Mar_13_0950,mf_amp_cond1,3.0.4,60.062913916634585,
nuckheap,,&&&&&&&&,right,nonword,,,,,,,,,,,,,,,0,105,105,125,,,,,,,,,,,,,LDT,left,1.0171587666263804,,,,,,0,,,,,,,,,,,,,left,0,1.0171587666263804,,,,,,,1043,2019_Mar_13_0950,mf_amp_cond1,3.0.4,60.062913916634585,
