words,nonwords,mask,corr_ans,category,tweets,topic,AMP_pracloop.thisRepN,AMP_pracloop.thisTrialN,AMP_pracloop.thisN,AMP_pracloop.thisIndex,AMP_trials.thisRepN,AMP_trials.thisTrialN,AMP_trials.thisN,AMP_trials.thisIndex,LDT_pracloop.thisRepN,LDT_pracloop.thisTrialN,LDT_pracloop.thisN,LDT_pracloop.thisIndex,LDT_trials.thisRepN,LDT_trials.thisTrialN,LDT_trials.thisN,LDT_trials.thisIndex,tweet_loop.thisRepN,tweet_loop.thisTrialN,tweet_loop.thisN,tweet_loop.thisIndex,begin_key.keys,begin_key.rt,key_resp_AMP_instr1.keys,key_resp_AMP_instr1.rt,resp_AMP_ready1.keys,resp_AMP_ready1.rt,resp_AMP_prac.keys,resp_AMP_prac.rt,task,keypress,RT,resp_AMP_ready.keys,resp_AMP_ready.rt,resp_AMP.keys,resp_AMP.corr,resp_AMP.rt,corr,AMP_nonword_rating.response,AMP_nonword_rating.rt,AMP_word_rating.response,AMP_word_rating.rt,AMP_random_rating.response,AMP_random_rating.rt,key_resp_LDT_instr.keys,key_resp_LDT_instr.rt,resp_LDT_prac.keys,resp_LDT_prac.rt,resp_LDT_ready.keys,resp_LDT_ready.rt,resp_LDT.keys,resp_LDT.corr,resp_LDT.rt,LDT_rating.response,LDT_rating.rt,key_resp_LDT_instr_2.keys,key_resp_LDT_instr_2.rt,resp_tweets.keys,resp_tweets.rt,participant,date,expName,psychopyVersion,frameRate,
,,,,,,,,,,,,,,,,,,,,,,,,,,,right,891.2254212918051,,,,,,,,,,,,,,,,,,,,,,,,,,,,,,,,,,,,,1045,2019_Mar_13_0951,mf_amp_cond1,3.0.4,59.99547799324481,
,,,,,,,,,,,,,,,,,,,,,,,,,,,,,right,3.1011684009281453,,,,,,,,,,,,,,,,,,,,,,,,,,,,,,,,,,,1045,2019_Mar_13_0951,mf_amp_cond1,3.0.4,59.99547799324481,
,,,,,,,,,,,,,,,,,,,,,,,,,,,,,,,right,1.4006849589641206,,,,,,,,,,,,,,,,,,,,,,,,,,,,,,,,,1045,2019_Mar_13_0951,mf_amp_cond1,3.0.4,59.99547799324481,
car,cemtuper,&&&&&&&&,,,,,0,0,0,0,,,,,,,,,,,,,,,,,,,,,,,left,2.2342045851401053,AMP_prac,left,2.2342045851401053,,,,,,,,,,,,,,,,,,,,,,,,,,,,1045,2019_Mar_13_0951,mf_amp_cond1,3.0.4,59.99547799324481,
scarf,bisebell,&&&&&&&&,,,,,0,1,1,3,,,,,,,,,,,,,,,,,,,,,,,left,0.5503970523132011,AMP_prac,left,0.5503970523132011,,,,,,,,,,,,,,,,,,,,,,,,,,,,1045,2019_Mar_13_0951,mf_amp_cond1,3.0.4,59.99547799324481,
keyboard,senk,&&&&,,,,,0,2,2,2,,,,,,,,,,,,,,,,,,,,,,,left,0.5004235288943164,AMP_prac,left,0.5004235288943164,,,,,,,,,,,,,,,,,,,,,,,,,,,,1045,2019_Mar_13_0951,mf_amp_cond1,3.0.4,59.99547799324481,
banana,kacket,&&&&&&,,,,,0,3,3,1,,,,,,,,,,,,,,,,,,,,,,,left,0.350320140394615,AMP_prac,left,0.350320140394615,,,,,,,,,,,,,,,,,,,,,,,,,,,,1045,2019_Mar_13_0951,mf_amp_cond1,3.0.4,59.99547799324481,
,,,,,,,,,,,,,,,,,,,,,,,,,,,,,,,,,,,,,,right,1.6340572400658857,,,,,,,,,,,,,,,,,,,,,,,,,,1045,2019_Mar_13_0951,mf_amp_cond1,3.0.4,59.99547799324481,
hate,crilfully,&&&&&&&&&,right,fairness.vice,,,,,,,0,0,0,0,,,,,,,,,,,,,,,,,,,,,AMP,left,0.6504252448212355,,,left,0,0.6504252448212355,0,,,,,,,,,,,,,,,,,,,,,,1045,2019_Mar_13_0951,mf_amp_cond1,3.0.4,59.99547799324481,
victim,nuckheap,&&&&&&&&,right,care.vice,,,,,,,0,1,1,1,,,,,,,,,,,,,,,,,,,,,AMP,right,0.9505184821318835,,,right,1,0.9505184821318835,1,,,,,,,,,,,,,,,,,,,,,,1045,2019_Mar_13_0951,mf_amp_cond1,3.0.4,59.99547799324481,
injured,pescinded,&&&&&&&&&,right,care.vice,,,,,,,0,2,2,2,,,,,,,,,,,,,,,,,,,,,AMP,right,0.4337019312370103,,,right,1,0.4337019312370103,1,,,,,,,,,,,,,,,,,,,,,,1045,2019_Mar_13_0951,mf_amp_cond1,3.0.4,59.99547799324481,
protect,edancipation,&&&&&&&&&&&&,left,fairness.virtue,,,,,,,0,3,3,3,,,,,,,,,,,,,,,,,,,,,AMP,left,0.40035043365787715,,,left,1,0.40035043365787715,1,,,,,,,,,,,,,,,,,,,,,,1045,2019_Mar_13_0951,mf_amp_cond1,3.0.4,59.99547799324481,
commitment,pafer,&&&&&,left,sanctity.virtue,,,,,,,0,4,4,4,,,,,,,,,,,,,,,,,,,,,AMP,left,0.8171445652842522,,,left,1,0.8171445652842522,1,,,,,,,,,,,,,,,,,,,,,,1045,2019_Mar_13_0951,mf_amp_cond1,3.0.4,59.99547799324481,
rorroborated,crinking,&&&&&&&&,None,nonword,,,,,,,0,5,5,5,,,,,,,,,,,,,,,,,,,,,AMP,left,0.5003773432399612,,,left,0,0.5003773432399612,0,,,,,,,,,,,,,,,,,,,,,,1045,2019_Mar_13_0951,mf_amp_cond1,3.0.4,59.99547799324481,
abuse,baladroit,&&&&&&&&&,right,sanctity.vice,,,,,,,0,6,6,6,,,,,,,,,,,,,,,,,,,,,AMP,left,0.6837712899141479,,,left,0,0.6837712899141479,0,,,,,,,,,,,,,,,,,,,,,,1045,2019_Mar_13_0951,mf_amp_cond1,3.0.4,59.99547799324481,
shot,aubos,&&&&&,right,care.vice,,,,,,,0,7,7,7,,,,,,,,,,,,,,,,,,,,,AMP,left,1.2005839919729624,,,left,0,1.2005839919729624,0,,,,,,,,,,,,,,,,,,,,,,1045,2019_Mar_13_0951,mf_amp_cond1,3.0.4,59.99547799324481,
benefit,laming,&&&&&&,left,fairness.virtue,,,,,,,0,8,8,8,,,,,,,,,,,,,,,,,,,,,AMP,right,0.900499414477963,,,right,0,0.900499414477963,0,,,,,,,,,,,,,,,,,,,,,,1045,2019_Mar_13_0951,mf_amp_cond1,3.0.4,59.99547799324481,
rebels,yane,&&&&,right,authority.vice,,,,,,,0,9,9,9,,,,,,,,,,,,,,,,,,,,,AMP,right,1.0338775008858647,,,right,1,1.0338775008858647,1,,,,,,,,,,,,,,,,,,,,,,1045,2019_Mar_13_0951,mf_amp_cond1,3.0.4,59.99547799324481,
support,asn,&&&,left,loyalty.virtue,,,,,,,0,10,10,10,,,,,,,,,,,,,,,,,,,,,AMP,left,0.9171746821666602,,,left,1,0.9171746821666602,1,,,,,,,,,,,,,,,,,,,,,,1045,2019_Mar_13_0951,mf_amp_cond1,3.0.4,59.99547799324481,
loyalty,forepo,&&&&&&,left,loyalty.virtue,,,,,,,0,11,11,11,,,,,,,,,,,,,,,,,,,,,AMP,left,0.6003920649236534,,,left,1,0.6003920649236534,1,,,,,,,,,,,,,,,,,,,,,,1045,2019_Mar_13_0951,mf_amp_cond1,3.0.4,59.99547799324481,
free,gikely,&&&&&&,left,fairness.virtue,,,,,,,0,12,12,12,,,,,,,,,,,,,,,,,,,,,AMP,left,0.46704059944022447,,,left,1,0.46704059944022447,1,,,,,,,,,,,,,,,,,,,,,,1045,2019_Mar_13_0951,mf_amp_cond1,3.0.4,59.99547799324481,
trust,Phintoism,&&&&&&&&&,left,authority.virtue,,,,,,,0,13,13,13,,,,,,,,,,,,,,,,,,,,,AMP,left,0.6671110967290588,,,left,1,0.6671110967290588,1,,,,,,,,,,,,,,,,,,,,,,1045,2019_Mar_13_0951,mf_amp_cond1,3.0.4,59.99547799324481,
praise,divility,&&&&&&&&,left,authority.virtue,,,,,,,0,14,14,14,,,,,,,,,,,,,,,,,,,,,AMP,right,0.6671059649961535,,,right,0,0.6671059649961535,0,,,,,,,,,,,,,,,,,,,,,,1045,2019_Mar_13_0951,mf_amp_cond1,3.0.4,59.99547799324481,
critics,fonderland,&&&&&&&&&&,right,loyalty.vice,,,,,,,0,15,15,15,,,,,,,,,,,,,,,,,,,,,AMP,right,0.5003882482124027,,,right,1,0.5003882482124027,1,,,,,,,,,,,,,,,,,,,,,,1045,2019_Mar_13_0951,mf_amp_cond1,3.0.4,59.99547799324481,
torture,sfumatoy,&&&&&&&&,right,care.vice,,,,,,,0,16,16,16,,,,,,,,,,,,,,,,,,,,,AMP,left,0.5670889981556684,,,left,0,0.5670889981556684,0,,,,,,,,,,,,,,,,,,,,,,1045,2019_Mar_13_0951,mf_amp_cond1,3.0.4,59.99547799324481,
corruption,idexpressible,&&&&&&&&&&&&&,right,sanctity.vice,,,,,,,0,17,17,17,,,,,,,,,,,,,,,,,,,,,AMP,left,1.0170672043168452,,,left,0,1.0170672043168452,0,,,,,,,,,,,,,,,,,,,,,,1045,2019_Mar_13_0951,mf_amp_cond1,3.0.4,59.99547799324481,
failure,unreflectuve,&&&&&&&&&&&&,right,loyalty.vice,,,,,,,0,18,18,18,,,,,,,,,,,,,,,,,,,,,AMP,left,0.7004411051166244,,,left,0,0.7004411051166244,0,,,,,,,,,,,,,,,,,,,,,,1045,2019_Mar_13_0951,mf_amp_cond1,3.0.4,59.99547799324481,
improve,gedious,&&&&&&&,left,care.virtue,,,,,,,0,19,19,19,,,,,,,,,,,,,,,,,,,,,AMP,right,1.3172759057488292,,,right,0,1.3172759057488292,0,,,,,,,,,,,,,,,,,,,,,,1045,2019_Mar_13_0951,mf_amp_cond1,3.0.4,59.99547799324481,
health,chressing,&&&&&&&&&,left,care.virtue,,,,,,,0,20,20,20,,,,,,,,,,,,,,,,,,,,,AMP,left,0.9838552259316202,,,left,1,0.9838552259316202,1,,,,,,,,,,,,,,,,,,,,,,1045,2019_Mar_13_0951,mf_amp_cond1,3.0.4,59.99547799324481,
clean,wonderfujnoss,&&&&&&&&&&&&&,left,sanctity.virtue,,,,,,,0,21,21,21,,,,,,,,,,,,,,,,,,,,,AMP,right,0.8505159483174793,,,right,0,0.8505159483174793,0,,,,,,,,,,,,,,,,,,,,,,1045,2019_Mar_13_0951,mf_amp_cond1,3.0.4,59.99547799324481,
elduringly,imebreaker,&&&&&&&&&&,None,nonword,,,,,,,0,22,22,22,,,,,,,,,,,,,,,,,,,,,AMP,left,0.8003390797239263,,,left,0,0.8003390797239263,0,,,,,,,,,,,,,,,,,,,,,,1045,2019_Mar_13_0951,mf_amp_cond1,3.0.4,59.99547799324481,
scandal,pumber,&&&&&&,right,sanctity.vice,,,,,,,0,23,23,23,,,,,,,,,,,,,,,,,,,,,AMP,right,0.45036052077193744,,,right,1,0.45036052077193744,1,,,,,,,,,,,,,,,,,,,,,,1045,2019_Mar_13_0951,mf_amp_cond1,3.0.4,59.99547799324481,
ittutable,blunderints,&&&&&&&&&&&,None,nonword,,,,,,,0,24,24,24,,,,,,,,,,,,,,,,,,,,,AMP,left,0.6504252448503394,,,left,0,0.6504252448503394,0,,,,,,,,,,,,,,,,,,,,,,1045,2019_Mar_13_0951,mf_amp_cond1,3.0.4,59.99547799324481,
prison,rivernoat,&&&&&&&&&,right,fairness.vice,,,,,,,0,25,25,25,,,,,,,,,,,,,,,,,,,,,AMP,left,0.8338179085403681,,,left,0,0.8338179085403681,0,,,,,,,,,,,,,,,,,,,,,,1045,2019_Mar_13_0951,mf_amp_cond1,3.0.4,59.99547799324481,
gun,photocalkodes,&&&&&&&&&&&&&,right,authority.vice,,,,,,,0,26,26,26,,,,,,,,,,,,,,,,,,,,,AMP,left,0.383684146538144,,,left,0,0.383684146538144,0,,,,,,,,,,,,,,,,,,,,,,1045,2019_Mar_13_0951,mf_amp_cond1,3.0.4,59.99547799324481,
help,reelectiob,&&&&&&&&&&,left,care.virtue,,,,,,,0,27,27,27,,,,,,,,,,,,,,,,,,,,,AMP,left,0.550388713250868,,,left,1,0.550388713250868,1,,,,,,,,,,,,,,,,,,,,,,1045,2019_Mar_13_0951,mf_amp_cond1,3.0.4,59.99547799324481,
peaceful,stindig,&&&&&&&,left,authority.virtue,,,,,,,0,28,28,28,,,,,,,,,,,,,,,,,,,,,AMP,left,1.2172599011391867,,,left,1,1.2172599011391867,1,,,,,,,,,,,,,,,,,,,,,,1045,2019_Mar_13_0951,mf_amp_cond1,3.0.4,59.99547799324481,
prosecution,epigrach,&&&&&&&&,right,authority.vice,,,,,,,0,29,29,29,,,,,,,,,,,,,,,,,,,,,AMP,left,0.4336849323590286,,,left,0,0.4336849323590286,0,,,,,,,,,,,,,,,,,,,,,,1045,2019_Mar_13_0951,mf_amp_cond1,3.0.4,59.99547799324481,
praised,uller,&&&&&,left,loyalty.virtue,,,,,,,0,30,30,30,,,,,,,,,,,,,,,,,,,,,AMP,left,0.3836726001172792,,,left,1,0.3836726001172792,1,,,,,,,,,,,,,,,,,,,,,,1045,2019_Mar_13_0951,mf_amp_cond1,3.0.4,59.99547799324481,
juck,ronviolence,&&&&&&&&&&&,None,nonword,,,,,,,0,31,31,31,,,,,,,,,,,,,,,,,,,,,AMP,left,0.8171259627270047,,,left,0,0.8171259627270047,0,,,,,,,,,,,,,,,,,,,,,,1045,2019_Mar_13_0951,mf_amp_cond1,3.0.4,59.99547799324481,
fraud,ecgagement,&&&&&&&&&&,right,fairness.vice,,,,,,,0,32,32,32,,,,,,,,,,,,,,,,,,,,,AMP,right,0.45041312111425214,,,right,1,0.45041312111425214,1,,,,,,,,,,,,,,,,,,,,,,1045,2019_Mar_13_0951,mf_amp_cond1,3.0.4,59.99547799324481,
fear,dumid,&&&&&,right,sanctity.vice,,,,,,,0,33,33,33,,,,,,,,,,,,,,,,,,,,,AMP,right,0.9171657016559038,,,right,1,0.9171657016559038,1,,,,,,,,,,,,,,,,,,,,,,1045,2019_Mar_13_0951,mf_amp_cond1,3.0.4,59.99547799324481,
dignity,vicissifude,&&&&&&&&&&&,left,sanctity.virtue,,,,,,,0,34,34,34,,,,,,,,,,,,,,,,,,,,,AMP,left,0.4503685391100589,,,left,1,0.4503685391100589,1,,,,,,,,,,,,,,,,,,,,,,1045,2019_Mar_13_0951,mf_amp_cond1,3.0.4,59.99547799324481,
men,emassion,&&&&&&&&,right,loyalty.vice,,,,,,,0,35,35,35,,,,,,,,,,,,,,,,,,,,,AMP,right,0.667109493049793,,,right,1,0.667109493049793,1,,,,,,,,,,,,,,,,,,,,,,1045,2019_Mar_13_0951,mf_amp_cond1,3.0.4,59.99547799324481,
smapper,gationwide,&&&&&&&&&&,None,nonword,,,,,,,0,36,36,36,,,,,,,,,,,,,,,,,,,,,AMP,left,0.9171881529910024,,,left,0,0.9171881529910024,0,,,,,,,,,,,,,,,,,,,,,,1045,2019_Mar_13_0951,mf_amp_cond1,3.0.4,59.99547799324481,
police,gondensed,&&&&&&&&&,right,authority.vice,,,,,,,0,37,37,37,,,,,,,,,,,,,,,,,,,,,AMP,left,0.6170833692594897,,,left,0,0.6170833692594897,0,,,,,,,,,,,,,,,,,,,,,,1045,2019_Mar_13_0951,mf_amp_cond1,3.0.4,59.99547799324481,
ban,bluently,&&&&&&&&,right,loyalty.vice,,,,,,,0,38,38,38,,,,,,,,,,,,,,,,,,,,,AMP,right,0.7171032226760872,,,right,1,0.7171032226760872,1,,,,,,,,,,,,,,,,,,,,,,1045,2019_Mar_13_0951,mf_amp_cond1,3.0.4,59.99547799324481,
restore,dramens,&&&&&&&,left,care.virtue,,,,,,,0,39,39,39,,,,,,,,,,,,,,,,,,,,,AMP,left,0.6504136984294746,,,left,1,0.6504136984294746,1,,,,,,,,,,,,,,,,,,,,,,1045,2019_Mar_13_0951,mf_amp_cond1,3.0.4,59.99547799324481,
hope,fangsters,&&&&&&&&&,left,loyalty.virtue,,,,,,,0,40,40,40,,,,,,,,,,,,,,,,,,,,,AMP,left,0.633751580840908,,,left,1,0.633751580840908,1,,,,,,,,,,,,,,,,,,,,,,1045,2019_Mar_13_0951,mf_amp_cond1,3.0.4,59.99547799324481,
arrests,lempestuous,&&&&&&&&&&&,right,authority.vice,,,,,,,0,41,41,41,,,,,,,,,,,,,,,,,,,,,AMP,left,0.41702217326383106,,,left,0,0.41702217326383106,0,,,,,,,,,,,,,,,,,,,,,,1045,2019_Mar_13_0951,mf_amp_cond1,3.0.4,59.99547799324481,
attacks,wump,&&&&,right,care.vice,,,,,,,0,42,42,42,,,,,,,,,,,,,,,,,,,,,AMP,left,0.3670149728131946,,,left,0,0.3670149728131946,0,,,,,,,,,,,,,,,,,,,,,,1045,2019_Mar_13_0951,mf_amp_cond1,3.0.4,59.99547799324481,
emports,brudent,&&&&&&&,None,nonword,,,,,,,0,43,43,43,,,,,,,,,,,,,,,,,,,,,AMP,right,0.450364690303104,,,right,0,0.450364690303104,0,,,,,,,,,,,,,,,,,,,,,,1045,2019_Mar_13_0951,mf_amp_cond1,3.0.4,59.99547799324481,
blamed,tomedians,&&&&&&&&&,right,loyalty.vice,,,,,,,0,44,44,44,,,,,,,,,,,,,,,,,,,,,AMP,left,0.6337557503720745,,,left,0,0.6337557503720745,0,,,,,,,,,,,,,,,,,,,,,,1045,2019_Mar_13_0951,mf_amp_cond1,3.0.4,59.99547799324481,
pleasant,lenon,&&&&&,None,control,,,,,,,0,45,45,45,,,,,,,,,,,,,,,,,,,,,AMP,left,0.6670828721253201,,,left,0,0.6670828721253201,0,,,,,,,,,,,,,,,,,,,,,,1045,2019_Mar_13_0951,mf_amp_cond1,3.0.4,59.99547799324481,
win,chreams,&&&&&&&,left,fairness.virtue,,,,,,,0,46,46,46,,,,,,,,,,,,,,,,,,,,,AMP,right,0.21697348591987975,,,right,0,0.21697348591987975,0,,,,,,,,,,,,,,,,,,,,,,1045,2019_Mar_13_0951,mf_amp_cond1,3.0.4,59.99547799324481,
illegal,tenuflect,&&&&&&&&&,right,fairness.vice,,,,,,,0,47,47,47,,,,,,,,,,,,,,,,,,,,,AMP,left,0.4837100939184893,,,left,0,0.4837100939184893,0,,,,,,,,,,,,,,,,,,,,,,1045,2019_Mar_13_0951,mf_amp_cond1,3.0.4,59.99547799324481,
credit,taxpayung,&&&&&&&&&,left,fairness.virtue,,,,,,,0,48,48,48,,,,,,,,,,,,,,,,,,,,,AMP,right,0.4670168651500717,,,right,0,0.4670168651500717,0,,,,,,,,,,,,,,,,,,,,,,1045,2019_Mar_13_0951,mf_amp_cond1,3.0.4,59.99547799324481,
values,disregord,&&&&&&&&&,left,sanctity.virtue,,,,,,,0,49,49,49,,,,,,,,,,,,,,,,,,,,,AMP,left,0.7004446331702638,,,left,1,0.7004446331702638,1,,,,,,,,,,,,,,,,,,,,,,1045,2019_Mar_13_0951,mf_amp_cond1,3.0.4,59.99547799324481,
terrorist,quarterbocks,&&&&&&&&&&&&,right,loyalty.vice,,,,,,,0,50,50,50,,,,,,,,,,,,,,,,,,,,,AMP,left,0.6004087430774234,,,left,0,0.6004087430774234,0,,,,,,,,,,,,,,,,,,,,,,1045,2019_Mar_13_0951,mf_amp_cond1,3.0.4,59.99547799324481,
compassion,sliptery,&&&&&&&&,left,care.virtue,,,,,,,0,51,51,51,,,,,,,,,,,,,,,,,,,,,AMP,left,1.9674445635755546,,,left,1,1.9674445635755546,1,,,,,,,,,,,,,,,,,,,,,,1045,2019_Mar_13_0951,mf_amp_cond1,3.0.4,59.99547799324481,
party,sidearbs,&&&&&&&&,left,loyalty.virtue,,,,,,,0,52,52,52,,,,,,,,,,,,,,,,,,,,,AMP,right,0.5837463047646452,,,right,0,0.5837463047646452,0,,,,,,,,,,,,,,,,,,,,,,1045,2019_Mar_13_0951,mf_amp_cond1,3.0.4,59.99547799324481,
integrity,chared,&&&&&&,left,fairness.virtue,,,,,,,0,53,53,53,,,,,,,,,,,,,,,,,,,,,AMP,right,0.4003613386012148,,,right,0,0.4003613386012148,0,,,,,,,,,,,,,,,,,,,,,,1045,2019_Mar_13_0951,mf_amp_cond1,3.0.4,59.99547799324481,
officers,letish,&&&&&&,right,authority.vice,,,,,,,0,54,54,54,,,,,,,,,,,,,,,,,,,,,AMP,left,0.5003856823022943,,,left,0,0.5003856823022943,0,,,,,,,,,,,,,,,,,,,,,,1045,2019_Mar_13_0951,mf_amp_cond1,3.0.4,59.99547799324481,
seachwear,greaks,&&&&&&,None,nonword,,,,,,,0,55,55,55,,,,,,,,,,,,,,,,,,,,,AMP,right,1.3839275834616274,,,right,0,1.3839275834616274,0,,,,,,,,,,,,,,,,,,,,,,1045,2019_Mar_13_0951,mf_amp_cond1,3.0.4,59.99547799324481,
encourage,saned,&&&&&,left,authority.virtue,,,,,,,0,56,56,56,,,,,,,,,,,,,,,,,,,,,AMP,left,0.9338614962471183,,,left,1,0.9338614962471183,1,,,,,,,,,,,,,,,,,,,,,,1045,2019_Mar_13_0951,mf_amp_cond1,3.0.4,59.99547799324481,
lies,perified,&&&&&&&&,right,fairness.vice,,,,,,,0,57,57,57,,,,,,,,,,,,,,,,,,,,,AMP,right,0.7504505507240538,,,right,1,0.7504505507240538,1,,,,,,,,,,,,,,,,,,,,,,1045,2019_Mar_13_0951,mf_amp_cond1,3.0.4,59.99547799324481,
army,erdest,&&&&&&,right,loyalty.vice,,,,,,,0,58,58,58,,,,,,,,,,,,,,,,,,,,,AMP,left,0.5337294822675176,,,left,0,0.5337294822675176,0,,,,,,,,,,,,,,,,,,,,,,1045,2019_Mar_13_0951,mf_amp_cond1,3.0.4,59.99547799324481,
progress,tracious,&&&&&&&&,left,authority.virtue,,,,,,,0,59,59,59,,,,,,,,,,,,,,,,,,,,,AMP,left,1.5840484359359834,,,left,1,1.5840484359359834,1,,,,,,,,,,,,,,,,,,,,,,1045,2019_Mar_13_0951,mf_amp_cond1,3.0.4,59.99547799324481,
prones,ejanulated,&&&&&&&&&&,None,nonword,,,,,,,0,60,60,60,,,,,,,,,,,,,,,,,,,,,AMP,left,0.6837635923002381,,,left,0,0.6837635923002381,0,,,,,,,,,,,,,,,,,,,,,,1045,2019_Mar_13_0951,mf_amp_cond1,3.0.4,59.99547799324481,
safety,spag,&&&&,left,care.virtue,,,,,,,0,61,61,61,,,,,,,,,,,,,,,,,,,,,AMP,left,0.7504531165759545,,,left,1,0.7504531165759545,1,,,,,,,,,,,,,,,,,,,,,,1045,2019_Mar_13_0951,mf_amp_cond1,3.0.4,59.99547799324481,
ability,pistraught,&&&&&&&&&&,left,authority.virtue,,,,,,,0,62,62,62,,,,,,,,,,,,,,,,,,,,,AMP,right,0.43370161051279865,,,right,0,0.43370161051279865,0,,,,,,,,,,,,,,,,,,,,,,1045,2019_Mar_13_0951,mf_amp_cond1,3.0.4,59.99547799324481,
hand,dormandi,&&&&&&&&,left,sanctity.virtue,,,,,,,0,63,63,63,,,,,,,,,,,,,,,,,,,,,AMP,left,0.5003930591919925,,,left,1,0.5003930591919925,1,,,,,,,,,,,,,,,,,,,,,,1045,2019_Mar_13_0951,mf_amp_cond1,3.0.4,59.99547799324481,
increase,hasks,&&&&&,left,care.virtue,,,,,,,0,64,64,64,,,,,,,,,,,,,,,,,,,,,AMP,left,1.06722001786693,,,left,1,1.06722001786693,1,,,,,,,,,,,,,,,,,,,,,,1045,2019_Mar_13_0951,mf_amp_cond1,3.0.4,59.99547799324481,
sexual,gillipede,&&&&&&&&&,right,sanctity.vice,,,,,,,0,65,65,65,,,,,,,,,,,,,,,,,,,,,AMP,left,0.4503714256861713,,,left,0,0.4503714256861713,0,,,,,,,,,,,,,,,,,,,,,,1045,2019_Mar_13_0951,mf_amp_cond1,3.0.4,59.99547799324481,
respect,frocessing,&&&&&&&&&&,left,sanctity.virtue,,,,,,,0,66,66,66,,,,,,,,,,,,,,,,,,,,,AMP,left,0.5337301237159409,,,left,1,0.5337301237159409,1,,,,,,,,,,,,,,,,,,,,,,1045,2019_Mar_13_0951,mf_amp_cond1,3.0.4,59.99547799324481,
promised,lursuer,&&&&&&&,left,loyalty.virtue,,,,,,,0,67,67,67,,,,,,,,,,,,,,,,,,,,,AMP,right,1.2839446144353133,,,right,0,1.2839446144353133,0,,,,,,,,,,,,,,,,,,,,,,1045,2019_Mar_13_0951,mf_amp_cond1,3.0.4,59.99547799324481,
charges,sgrawl,&&&&&&,right,fairness.vice,,,,,,,0,68,68,68,,,,,,,,,,,,,,,,,,,,,AMP,left,0.48369501941488124,,,left,0,0.48369501941488124,0,,,,,,,,,,,,,,,,,,,,,,1045,2019_Mar_13_0951,mf_amp_cond1,3.0.4,59.99547799324481,
strong,neneficence,&&&&&&&&&&&,left,loyalty.virtue,,,,,,,0,69,69,69,,,,,,,,,,,,,,,,,,,,,AMP,left,0.43368974336772226,,,left,1,0.43368974336772226,1,,,,,,,,,,,,,,,,,,,,,,1045,2019_Mar_13_0951,mf_amp_cond1,3.0.4,59.99547799324481,
riot,ablow,&&&&&,right,authority.vice,,,,,,,0,70,70,70,,,,,,,,,,,,,,,,,,,,,AMP,left,0.5504076365323272,,,left,0,0.5504076365323272,0,,,,,,,,,,,,,,,,,,,,,,1045,2019_Mar_13_0951,mf_amp_cond1,3.0.4,59.99547799324481,
terrorists,tove,&&&&,right,fairness.vice,,,,,,,0,71,71,71,,,,,,,,,,,,,,,,,,,,,AMP,left,0.5003738151572179,,,left,0,0.5003738151572179,0,,,,,,,,,,,,,,,,,,,,,,1045,2019_Mar_13_0951,mf_amp_cond1,3.0.4,59.99547799324481,
killed,presentkess,&&&&&&&&&&&,right,care.vice,,,,,,,0,72,72,72,,,,,,,,,,,,,,,,,,,,,AMP,left,0.5170500450476538,,,left,0,0.5170500450476538,0,,,,,,,,,,,,,,,,,,,,,,1045,2019_Mar_13_0951,mf_amp_cond1,3.0.4,59.99547799324481,
ammessment,hefurbished,&&&&&&&&&&&,None,nonword,,,,,,,0,73,73,73,,,,,,,,,,,,,,,,,,,,,AMP,left,1.7507478708866984,,,left,0,1.7507478708866984,0,,,,,,,,,,,,,,,,,,,,,,1045,2019_Mar_13_0951,mf_amp_cond1,3.0.4,59.99547799324481,
violence,feleological,&&&&&&&&&&&&,right,care.vice,,,,,,,0,74,74,74,,,,,,,,,,,,,,,,,,,,,AMP,left,0.38369408930884674,,,left,0,0.38369408930884674,0,,,,,,,,,,,,,,,,,,,,,,1045,2019_Mar_13_0951,mf_amp_cond1,3.0.4,59.99547799324481,
actively,thabbily,&&&&&&&&,left,authority.virtue,,,,,,,0,75,75,75,,,,,,,,,,,,,,,,,,,,,AMP,left,0.783773182251025,,,left,1,0.783773182251025,1,,,,,,,,,,,,,,,,,,,,,,1045,2019_Mar_13_0951,mf_amp_cond1,3.0.4,59.99547799324481,
interests,bruthfulness,&&&&&&&&&&&&,left,fairness.virtue,,,,,,,0,76,76,76,,,,,,,,,,,,,,,,,,,,,AMP,left,1.033865954465,,,left,1,1.033865954465,1,,,,,,,,,,,,,,,,,,,,,,1045,2019_Mar_13_0951,mf_amp_cond1,3.0.4,59.99547799324481,
serial,noped,&&&&&,right,sanctity.vice,,,,,,,0,77,77,77,,,,,,,,,,,,,,,,,,,,,AMP,right,0.8338413221354131,,,right,1,0.8338413221354131,1,,,,,,,,,,,,,,,,,,,,,,1045,2019_Mar_13_0951,mf_amp_cond1,3.0.4,59.99547799324481,
racist,godlaness,&&&&&&&&&,right,sanctity.vice,,,,,,,0,78,78,78,,,,,,,,,,,,,,,,,,,,,AMP,right,0.7671206866507418,,,right,1,0.7671206866507418,1,,,,,,,,,,,,,,,,,,,,,,1045,2019_Mar_13_0951,mf_amp_cond1,3.0.4,59.99547799324481,
unpleasant,discovars,&&&&&&&&&,None,control,,,,,,,0,79,79,79,,,,,,,,,,,,,,,,,,,,,AMP,left,1.400655772187747,,,left,0,1.400655772187747,0,,,,,,,,,,,,,,,,,,,,,,1045,2019_Mar_13_0951,mf_amp_cond1,3.0.4,59.99547799324481,
mecan,galamitous,&&&&&&&&&&,None,nonword,,,,,,,0,80,80,80,,,,,,,,,,,,,,,,,,,,,AMP,right,0.7337932441441808,,,right,0,0.7337932441441808,0,,,,,,,,,,,,,,,,,,,,,,1045,2019_Mar_13_0951,mf_amp_cond1,3.0.4,59.99547799324481,
promote,clattening,&&&&&&&&&&,left,sanctity.virtue,,,,,,,0,81,81,81,,,,,,,,,,,,,,,,,,,,,AMP,left,0.7337881123821717,,,left,1,0.7337881123821717,1,,,,,,,,,,,,,,,,,,,,,,1045,2019_Mar_13_0951,mf_amp_cond1,3.0.4,59.99547799324481,
loyalty,crilfully,&&&&&&&&&,left,loyalty.virtue,,,,,,,0,82,82,82,,,,,,,,,,,,,,,,,,,,,AMP,right,0.7837911433307454,,,right,0,0.7837911433307454,0,,,,,,,,,,,,,,,,,,,,,,1045,2019_Mar_13_0951,mf_amp_cond1,3.0.4,59.99547799324481,
army,brudent,&&&&&&&,right,loyalty.vice,,,,,,,0,83,83,83,,,,,,,,,,,,,,,,,,,,,AMP,right,0.700439822190674,,,right,1,0.700439822190674,1,,,,,,,,,,,,,,,,,,,,,,1045,2019_Mar_13_0951,mf_amp_cond1,3.0.4,59.99547799324481,
progress,yane,&&&&,left,authority.virtue,,,,,,,0,84,84,84,,,,,,,,,,,,,,,,,,,,,AMP,left,0.5170545353321359,,,left,1,0.5170545353321359,1,,,,,,,,,,,,,,,,,,,,,,1045,2019_Mar_13_0951,mf_amp_cond1,3.0.4,59.99547799324481,
terrorist,tenuflect,&&&&&&&&&,right,loyalty.vice,,,,,,,0,85,85,85,,,,,,,,,,,,,,,,,,,,,AMP,left,0.45036276589962654,,,left,0,0.45036276589962654,0,,,,,,,,,,,,,,,,,,,,,,1045,2019_Mar_13_0951,mf_amp_cond1,3.0.4,59.99547799324481,
compassion,neneficence,&&&&&&&&&&&,left,care.virtue,,,,,,,0,86,86,86,,,,,,,,,,,,,,,,,,,,,AMP,left,2.2175934642145876,,,left,1,2.2175934642145876,1,,,,,,,,,,,,,,,,,,,,,,1045,2019_Mar_13_0951,mf_amp_cond1,3.0.4,59.99547799324481,
strong,stindig,&&&&&&&,left,loyalty.virtue,,,,,,,0,87,87,87,,,,,,,,,,,,,,,,,,,,,AMP,left,0.6504258862696588,,,left,1,0.6504258862696588,1,,,,,,,,,,,,,,,,,,,,,,1045,2019_Mar_13_0951,mf_amp_cond1,3.0.4,59.99547799324481,
shot,dramens,&&&&&&&,right,care.vice,,,,,,,0,88,88,88,,,,,,,,,,,,,,,,,,,,,AMP,right,0.30037612447631545,,,right,1,0.30037612447631545,1,,,,,,,,,,,,,,,,,,,,,,1045,2019_Mar_13_0951,mf_amp_cond1,3.0.4,59.99547799324481,
men,tove,&&&&,right,loyalty.vice,,,,,,,0,89,89,89,,,,,,,,,,,,,,,,,,,,,AMP,left,0.683784119260963,,,left,0,0.683784119260963,0,,,,,,,,,,,,,,,,,,,,,,1045,2019_Mar_13_0951,mf_amp_cond1,3.0.4,59.99547799324481,
respect,bluently,&&&&&&&&,left,sanctity.virtue,,,,,,,0,90,90,90,,,,,,,,,,,,,,,,,,,,,AMP,right,0.8671607463038526,,,right,0,0.8671607463038526,0,,,,,,,,,,,,,,,,,,,,,,1045,2019_Mar_13_0951,mf_amp_cond1,3.0.4,59.99547799324481,
lies,feleological,&&&&&&&&&&&&,right,fairness.vice,,,,,,,0,91,91,91,,,,,,,,,,,,,,,,,,,,,AMP,left,0.36698771044029854,,,left,0,0.36698771044029854,0,,,,,,,,,,,,,,,,,,,,,,1045,2019_Mar_13_0951,mf_amp_cond1,3.0.4,59.99547799324481,
clean,idexpressible,&&&&&&&&&&&&&,left,sanctity.virtue,,,,,,,0,92,92,92,,,,,,,,,,,,,,,,,,,,,AMP,right,0.5003824749728665,,,right,0,0.5003824749728665,0,,,,,,,,,,,,,,,,,,,,,,1045,2019_Mar_13_0951,mf_amp_cond1,3.0.4,59.99547799324481,
safety,unreflectuve,&&&&&&&&&&&&,left,care.virtue,,,,,,,0,93,93,93,,,,,,,,,,,,,,,,,,,,,AMP,left,0.6004055357479956,,,left,1,0.6004055357479956,1,,,,,,,,,,,,,,,,,,,,,,1045,2019_Mar_13_0951,mf_amp_cond1,3.0.4,59.99547799324481,
ability,tomedians,&&&&&&&&&,left,authority.virtue,,,,,,,0,94,94,94,,,,,,,,,,,,,,,,,,,,,AMP,right,0.5337407079350669,,,right,0,0.5337407079350669,0,,,,,,,,,,,,,,,,,,,,,,1045,2019_Mar_13_0951,mf_amp_cond1,3.0.4,59.99547799324481,
prosecution,sgrawl,&&&&&&,right,authority.vice,,,,,,,0,95,95,95,,,,,,,,,,,,,,,,,,,,,AMP,left,0.4837197159358766,,,left,0,0.4837197159358766,0,,,,,,,,,,,,,,,,,,,,,,1045,2019_Mar_13_0951,mf_amp_cond1,3.0.4,59.99547799324481,
benefit,crinking,&&&&&&&&,left,fairness.virtue,,,,,,,0,96,96,96,,,,,,,,,,,,,,,,,,,,,AMP,left,0.7004702918638941,,,left,1,0.7004702918638941,1,,,,,,,,,,,,,,,,,,,,,,1045,2019_Mar_13_0951,mf_amp_cond1,3.0.4,59.99547799324481,
hate,tracious,&&&&&&&&,right,fairness.vice,,,,,,,0,97,97,97,,,,,,,,,,,,,,,,,,,,,AMP,right,0.4003462641267106,,,right,1,0.4003462641267106,1,,,,,,,,,,,,,,,,,,,,,,1045,2019_Mar_13_0951,mf_amp_cond1,3.0.4,59.99547799324481,
torture,perified,&&&&&&&&,right,care.vice,,,,,,,0,98,98,98,,,,,,,,,,,,,,,,,,,,,AMP,right,0.400348830036819,,,right,1,0.400348830036819,1,,,,,,,,,,,,,,,,,,,,,,1045,2019_Mar_13_0951,mf_amp_cond1,3.0.4,59.99547799324481,
actively,gondensed,&&&&&&&&&,left,authority.virtue,,,,,,,0,99,99,99,,,,,,,,,,,,,,,,,,,,,AMP,left,0.4003587727493141,,,left,1,0.4003587727493141,1,,,,,,,,,,,,,,,,,,,,,,1045,2019_Mar_13_0951,mf_amp_cond1,3.0.4,59.99547799324481,
rorroborated,clattening,&&&&&&&&&&,None,nonword,,,,,,,0,100,100,100,,,,,,,,,,,,,,,,,,,,,AMP,left,0.4503865001897793,,,left,0,0.4503865001897793,0,,,,,,,,,,,,,,,,,,,,,,1045,2019_Mar_13_0951,mf_amp_cond1,3.0.4,59.99547799324481,
abuse,quarterbocks,&&&&&&&&&&&&,right,sanctity.vice,,,,,,,0,101,101,101,,,,,,,,,,,,,,,,,,,,,AMP,right,1.2839757256151643,,,right,1,1.2839757256151643,1,,,,,,,,,,,,,,,,,,,,,,1045,2019_Mar_13_0951,mf_amp_cond1,3.0.4,59.99547799324481,
praise,sliptery,&&&&&&&&,left,authority.virtue,,,,,,,0,102,102,102,,,,,,,,,,,,,,,,,,,,,AMP,left,0.4170128719997592,,,left,1,0.4170128719997592,1,,,,,,,,,,,,,,,,,,,,,,1045,2019_Mar_13_0951,mf_amp_cond1,3.0.4,59.99547799324481,
restore,lenon,&&&&&,left,care.virtue,,,,,,,0,103,103,103,,,,,,,,,,,,,,,,,,,,,AMP,left,0.5503996181942057,,,left,1,0.5503996181942057,1,,,,,,,,,,,,,,,,,,,,,,1045,2019_Mar_13_0951,mf_amp_cond1,3.0.4,59.99547799324481,
fear,hasks,&&&&&,right,sanctity.vice,,,,,,,0,104,104,104,,,,,,,,,,,,,,,,,,,,,AMP,right,0.33366315450984985,,,right,1,0.33366315450984985,1,,,,,,,,,,,,,,,,,,,,,,1045,2019_Mar_13_0951,mf_amp_cond1,3.0.4,59.99547799324481,
serial,gillipede,&&&&&&&&&,right,sanctity.vice,,,,,,,0,105,105,105,,,,,,,,,,,,,,,,,,,,,AMP,right,1.1004018472740427,,,right,1,1.1004018472740427,1,,,,,,,,,,,,,,,,,,,,,,1045,2019_Mar_13_0951,mf_amp_cond1,3.0.4,59.99547799324481,
integrity,erdest,&&&&&&,left,fairness.virtue,,,,,,,0,106,106,106,,,,,,,,,,,,,,,,,,,,,AMP,right,0.7838062178052496,,,right,0,0.7838062178052496,0,,,,,,,,,,,,,,,,,,,,,,1045,2019_Mar_13_0951,mf_amp_cond1,3.0.4,59.99547799324481,
corruption,blunderints,&&&&&&&&&&&,right,sanctity.vice,,,,,,,0,107,107,107,,,,,,,,,,,,,,,,,,,,,AMP,left,0.767119082971476,,,left,0,0.767119082971476,0,,,,,,,,,,,,,,,,,,,,,,1045,2019_Mar_13_0951,mf_amp_cond1,3.0.4,59.99547799324481,
emports,disregord,&&&&&&&&&,None,nonword,,,,,,,0,108,108,108,,,,,,,,,,,,,,,,,,,,,AMP,right,1.5006640791834798,,,right,0,1.5006640791834798,0,,,,,,,,,,,,,,,,,,,,,,1045,2019_Mar_13_0951,mf_amp_cond1,3.0.4,59.99547799324481,
juck,pafer,&&&&&,None,nonword,,,,,,,0,109,109,109,,,,,,,,,,,,,,,,,,,,,AMP,left,0.7004606698465068,,,left,0,0.7004606698465068,0,,,,,,,,,,,,,,,,,,,,,,1045,2019_Mar_13_0951,mf_amp_cond1,3.0.4,59.99547799324481,
failure,ejanulated,&&&&&&&&&&,right,loyalty.vice,,,,,,,0,110,110,110,,,,,,,,,,,,,,,,,,,,,AMP,left,0.8838652007398196,,,left,0,0.8838652007398196,0,,,,,,,,,,,,,,,,,,,,,,1045,2019_Mar_13_0951,mf_amp_cond1,3.0.4,59.99547799324481,
pleasant,bruthfulness,&&&&&&&&&&&&,None,control,,,,,,,0,111,111,111,,,,,,,,,,,,,,,,,,,,,AMP,right,0.5337128040846437,,,right,0,0.5337128040846437,0,,,,,,,,,,,,,,,,,,,,,,1045,2019_Mar_13_0951,mf_amp_cond1,3.0.4,59.99547799324481,
win,gikely,&&&&&&,left,fairness.virtue,,,,,,,0,112,112,112,,,,,,,,,,,,,,,,,,,,,AMP,left,1.017202553950483,,,left,1,1.017202553950483,1,,,,,,,,,,,,,,,,,,,,,,1045,2019_Mar_13_0951,mf_amp_cond1,3.0.4,59.99547799324481,
sexual,laming,&&&&&&,right,sanctity.vice,,,,,,,0,113,113,113,,,,,,,,,,,,,,,,,,,,,AMP,right,0.41703596484148875,,,right,1,0.41703596484148875,1,,,,,,,,,,,,,,,,,,,,,,1045,2019_Mar_13_0951,mf_amp_cond1,3.0.4,59.99547799324481,
police,pistraught,&&&&&&&&&&,right,authority.vice,,,,,,,0,114,114,114,,,,,,,,,,,,,,,,,,,,,AMP,right,0.4336926299438346,,,right,1,0.4336926299438346,1,,,,,,,,,,,,,,,,,,,,,,1045,2019_Mar_13_0951,mf_amp_cond1,3.0.4,59.99547799324481,
interests,dumid,&&&&&,left,fairness.virtue,,,,,,,0,115,115,115,,,,,,,,,,,,,,,,,,,,,AMP,left,1.167263605602784,,,left,1,1.167263605602784,1,,,,,,,,,,,,,,,,,,,,,,1045,2019_Mar_13_0951,mf_amp_cond1,3.0.4,59.99547799324481,
officers,thabbily,&&&&&&&&,right,authority.vice,,,,,,,0,116,116,116,,,,,,,,,,,,,,,,,,,,,AMP,left,1.9508366499794647,,,left,0,1.9508366499794647,0,,,,,,,,,,,,,,,,,,,,,,1045,2019_Mar_13_0951,mf_amp_cond1,3.0.4,59.99547799324481,
elduringly,photocalkodes,&&&&&&&&&&&&&,None,nonword,,,,,,,0,117,117,117,,,,,,,,,,,,,,,,,,,,,AMP,right,0.45036821835674345,,,right,0,0.45036821835674345,0,,,,,,,,,,,,,,,,,,,,,,1045,2019_Mar_13_0951,mf_amp_cond1,3.0.4,59.99547799324481,
hand,rivernoat,&&&&&&&&&,left,sanctity.virtue,,,,,,,0,118,118,118,,,,,,,,,,,,,,,,,,,,,AMP,left,1.5173467237618752,,,left,1,1.5173467237618752,1,,,,,,,,,,,,,,,,,,,,,,1045,2019_Mar_13_0951,mf_amp_cond1,3.0.4,59.99547799324481,
promised,pumber,&&&&&&,left,loyalty.virtue,,,,,,,0,119,119,119,,,,,,,,,,,,,,,,,,,,,AMP,right,2.36759870822425,,,right,0,2.36759870822425,0,,,,,,,,,,,,,,,,,,,,,,1045,2019_Mar_13_0951,mf_amp_cond1,3.0.4,59.99547799324481,
dignity,gationwide,&&&&&&&&&&,left,sanctity.virtue,,,,,,,0,120,120,120,,,,,,,,,,,,,,,,,,,,,AMP,right,0.6170917083800305,,,right,0,0.6170917083800305,0,,,,,,,,,,,,,,,,,,,,,,1045,2019_Mar_13_0951,mf_amp_cond1,3.0.4,59.99547799324481,
terrorists,ecgagement,&&&&&&&&&&,right,fairness.vice,,,,,,,0,121,121,121,,,,,,,,,,,,,,,,,,,,,AMP,left,0.48370977319427766,,,left,0,0.48370977319427766,0,,,,,,,,,,,,,,,,,,,,,,1045,2019_Mar_13_0951,mf_amp_cond1,3.0.4,59.99547799324481,
values,galamitous,&&&&&&&&&&,left,sanctity.virtue,,,,,,,0,122,122,122,,,,,,,,,,,,,,,,,,,,,AMP,right,0.7671303086681291,,,right,0,0.7671303086681291,0,,,,,,,,,,,,,,,,,,,,,,1045,2019_Mar_13_0951,mf_amp_cond1,3.0.4,59.99547799324481,
seachwear,presentkess,&&&&&&&&&&&,None,nonword,,,,,,,0,123,123,123,,,,,,,,,,,,,,,,,,,,,AMP,left,1.5673382082604803,,,left,0,1.5673382082604803,0,,,,,,,,,,,,,,,,,,,,,,1045,2019_Mar_13_0951,mf_amp_cond1,3.0.4,59.99547799324481,
hope,taxpayung,&&&&&&&&&,left,loyalty.virtue,,,,,,,0,124,124,124,,,,,,,,,,,,,,,,,,,,,AMP,right,0.6004302322107833,,,right,0,0.6004302322107833,0,,,,,,,,,,,,,,,,,,,,,,1045,2019_Mar_13_0951,mf_amp_cond1,3.0.4,59.99547799324481,
help,noped,&&&&&,left,care.virtue,,,,,,,0,125,125,125,,,,,,,,,,,,,,,,,,,,,AMP,right,0.6337535052152816,,,right,0,0.6337535052152816,0,,,,,,,,,,,,,,,,,,,,,,1045,2019_Mar_13_0951,mf_amp_cond1,3.0.4,59.99547799324481,
ittutable,dormandi,&&&&&&&&,None,nonword,,,,,,,0,126,126,126,,,,,,,,,,,,,,,,,,,,,AMP,left,0.5670764895330649,,,left,0,0.5670764895330649,0,,,,,,,,,,,,,,,,,,,,,,1045,2019_Mar_13_0951,mf_amp_cond1,3.0.4,59.99547799324481,
racist,forepo,&&&&&&,right,sanctity.vice,,,,,,,0,127,127,127,,,,,,,,,,,,,,,,,,,,,AMP,left,0.5004151898028795,,,left,0,0.5004151898028795,0,,,,,,,,,,,,,,,,,,,,,,1045,2019_Mar_13_0951,mf_amp_cond1,3.0.4,59.99547799324481,
injured,nuckheap,&&&&&&&&,right,care.vice,,,,,,,0,128,128,128,,,,,,,,,,,,,,,,,,,,,AMP,left,0.8171403957239818,,,left,0,0.8171403957239818,0,,,,,,,,,,,,,,,,,,,,,,1045,2019_Mar_13_0951,mf_amp_cond1,3.0.4,59.99547799324481,
mecan,chared,&&&&&&,None,nonword,,,,,,,0,129,129,129,,,,,,,,,,,,,,,,,,,,,AMP,left,1.4173534912406467,,,left,0,1.4173534912406467,0,,,,,,,,,,,,,,,,,,,,,,1045,2019_Mar_13_0951,mf_amp_cond1,3.0.4,59.99547799324481,
smapper,aubos,&&&&&,None,nonword,,,,,,,0,130,130,130,,,,,,,,,,,,,,,,,,,,,AMP,left,0.6504329424351454,,,left,0,0.6504329424351454,0,,,,,,,,,,,,,,,,,,,,,,1045,2019_Mar_13_0951,mf_amp_cond1,3.0.4,59.99547799324481,
unpleasant,godlaness,&&&&&&&&&,None,control,,,,,,,0,131,131,131,,,,,,,,,,,,,,,,,,,,,AMP,right,1.0005282484635245,,,right,0,1.0005282484635245,0,,,,,,,,,,,,,,,,,,,,,,1045,2019_Mar_13_0951,mf_amp_cond1,3.0.4,59.99547799324481,
free,ronviolence,&&&&&&&&&&&,left,fairness.virtue,,,,,,,0,132,132,132,,,,,,,,,,,,,,,,,,,,,AMP,right,1.0505335245106835,,,right,0,1.0505335245106835,0,,,,,,,,,,,,,,,,,,,,,,1045,2019_Mar_13_0951,mf_amp_cond1,3.0.4,59.99547799324481,
rebels,pescinded,&&&&&&&&&,right,authority.vice,,,,,,,0,133,133,133,,,,,,,,,,,,,,,,,,,,,AMP,left,0.8004596755781677,,,left,0,0.8004596755781677,0,,,,,,,,,,,,,,,,,,,,,,1045,2019_Mar_13_0951,mf_amp_cond1,3.0.4,59.99547799324481,
fraud,reelectiob,&&&&&&&&&&,right,fairness.vice,,,,,,,0,134,134,134,,,,,,,,,,,,,,,,,,,,,AMP,left,0.5503967315889895,,,left,0,0.5503967315889895,0,,,,,,,,,,,,,,,,,,,,,,1045,2019_Mar_13_0951,mf_amp_cond1,3.0.4,59.99547799324481,
promote,chreams,&&&&&&&,left,sanctity.virtue,,,,,,,0,135,135,135,,,,,,,,,,,,,,,,,,,,,AMP,right,2.2175540139432997,,,right,0,2.2175540139432997,0,,,,,,,,,,,,,,,,,,,,,,1045,2019_Mar_13_0951,mf_amp_cond1,3.0.4,59.99547799324481,
encourage,spag,&&&&,left,authority.virtue,,,,,,,0,136,136,136,,,,,,,,,,,,,,,,,,,,,AMP,left,0.6337695418915246,,,left,1,0.6337695418915246,1,,,,,,,,,,,,,,,,,,,,,,1045,2019_Mar_13_0951,mf_amp_cond1,3.0.4,59.99547799324481,
commitment,saned,&&&&&,left,sanctity.virtue,,,,,,,0,137,137,137,,,,,,,,,,,,,,,,,,,,,AMP,left,0.5504146926978137,,,left,1,0.5504146926978137,1,,,,,,,,,,,,,,,,,,,,,,1045,2019_Mar_13_0951,mf_amp_cond1,3.0.4,59.99547799324481,
health,letish,&&&&&&,left,care.virtue,,,,,,,0,138,138,138,,,,,,,,,,,,,,,,,,,,,AMP,left,0.633757674775552,,,left,1,0.633757674775552,1,,,,,,,,,,,,,,,,,,,,,,1045,2019_Mar_13_0951,mf_amp_cond1,3.0.4,59.99547799324481,
ban,sidearbs,&&&&&&&&,right,loyalty.vice,,,,,,,0,139,139,139,,,,,,,,,,,,,,,,,,,,,AMP,left,0.6504313387558796,,,left,0,0.6504313387558796,0,,,,,,,,,,,,,,,,,,,,,,1045,2019_Mar_13_0951,mf_amp_cond1,3.0.4,59.99547799324481,
support,vicissifude,&&&&&&&&&&&,left,loyalty.virtue,,,,,,,0,140,140,140,,,,,,,,,,,,,,,,,,,,,AMP,left,0.6337615235534031,,,left,1,0.6337615235534031,1,,,,,,,,,,,,,,,,,,,,,,1045,2019_Mar_13_0951,mf_amp_cond1,3.0.4,59.99547799324481,
increase,frocessing,&&&&&&&&&&,left,care.virtue,,,,,,,0,141,141,141,,,,,,,,,,,,,,,,,,,,,AMP,right,0.5003853616071865,,,right,0,0.5003853616071865,0,,,,,,,,,,,,,,,,,,,,,,1045,2019_Mar_13_0951,mf_amp_cond1,3.0.4,59.99547799324481,
riot,hefurbished,&&&&&&&&&&&,right,authority.vice,,,,,,,0,142,142,142,,,,,,,,,,,,,,,,,,,,,AMP,left,0.3669998983386904,,,left,0,0.3669998983386904,0,,,,,,,,,,,,,,,,,,,,,,1045,2019_Mar_13_0951,mf_amp_cond1,3.0.4,59.99547799324481,
arrests,sfumatoy,&&&&&&&&,right,authority.vice,,,,,,,0,143,143,143,,,,,,,,,,,,,,,,,,,,,AMP,left,0.40035460321814753,,,left,0,0.40035460321814753,0,,,,,,,,,,,,,,,,,,,,,,1045,2019_Mar_13_0951,mf_amp_cond1,3.0.4,59.99547799324481,
trust,Phintoism,&&&&&&&&&,left,authority.virtue,,,,,,,0,144,144,144,,,,,,,,,,,,,,,,,,,,,AMP,right,0.7838155190984253,,,right,0,0.7838155190984253,0,,,,,,,,,,,,,,,,,,,,,,1045,2019_Mar_13_0951,mf_amp_cond1,3.0.4,59.99547799324481,
critics,edancipation,&&&&&&&&&&&&,right,loyalty.vice,,,,,,,0,145,145,145,,,,,,,,,,,,,,,,,,,,,AMP,left,0.7004385392356198,,,left,0,0.7004385392356198,0,,,,,,,,,,,,,,,,,,,,,,1045,2019_Mar_13_0951,mf_amp_cond1,3.0.4,59.99547799324481,
credit,fangsters,&&&&&&&&&,left,fairness.virtue,,,,,,,0,146,146,146,,,,,,,,,,,,,,,,,,,,,AMP,left,2.1675314182939474,,,left,1,2.1675314182939474,1,,,,,,,,,,,,,,,,,,,,,,1045,2019_Mar_13_0951,mf_amp_cond1,3.0.4,59.99547799324481,
improve,wump,&&&&,left,care.virtue,,,,,,,0,147,147,147,,,,,,,,,,,,,,,,,,,,,AMP,left,0.7004449538944755,,,left,1,0.7004449538944755,1,,,,,,,,,,,,,,,,,,,,,,1045,2019_Mar_13_0951,mf_amp_cond1,3.0.4,59.99547799324481,
praised,gedious,&&&&&&&,left,loyalty.virtue,,,,,,,0,148,148,148,,,,,,,,,,,,,,,,,,,,,AMP,left,0.917052482633153,,,left,1,0.917052482633153,1,,,,,,,,,,,,,,,,,,,,,,1045,2019_Mar_13_0951,mf_amp_cond1,3.0.4,59.99547799324481,
attacks,imebreaker,&&&&&&&&&&,right,care.vice,,,,,,,0,149,149,149,,,,,,,,,,,,,,,,,,,,,AMP,left,0.7671639856998809,,,left,0,0.7671639856998809,0,,,,,,,,,,,,,,,,,,,,,,1045,2019_Mar_13_0951,mf_amp_cond1,3.0.4,59.99547799324481,
prones,fonderland,&&&&&&&&&&,None,nonword,,,,,,,0,150,150,150,,,,,,,,,,,,,,,,,,,,,AMP,left,0.7671155549178366,,,left,0,0.7671155549178366,0,,,,,,,,,,,,,,,,,,,,,,1045,2019_Mar_13_0951,mf_amp_cond1,3.0.4,59.99547799324481,
charges,wonderfujnoss,&&&&&&&&&&&&&,right,fairness.vice,,,,,,,0,151,151,151,,,,,,,,,,,,,,,,,,,,,AMP,right,0.5503925620287191,,,right,1,0.5503925620287191,1,,,,,,,,,,,,,,,,,,,,,,1045,2019_Mar_13_0951,mf_amp_cond1,3.0.4,59.99547799324481,
blamed,asn,&&&,right,loyalty.vice,,,,,,,0,152,152,152,,,,,,,,,,,,,,,,,,,,,AMP,left,0.6837895717471838,,,left,0,0.6837895717471838,0,,,,,,,,,,,,,,,,,,,,,,1045,2019_Mar_13_0951,mf_amp_cond1,3.0.4,59.99547799324481,
illegal,chressing,&&&&&&&&&,right,fairness.vice,,,,,,,0,153,153,153,,,,,,,,,,,,,,,,,,,,,AMP,left,3.317885941301938,,,left,0,3.317885941301938,0,,,,,,,,,,,,,,,,,,,,,,1045,2019_Mar_13_0951,mf_amp_cond1,3.0.4,59.99547799324481,
victim,discovars,&&&&&&&&&,right,care.vice,,,,,,,0,154,154,154,,,,,,,,,,,,,,,,,,,,,AMP,left,0.48372452694457024,,,left,0,0.48372452694457024,0,,,,,,,,,,,,,,,,,,,,,,1045,2019_Mar_13_0951,mf_amp_cond1,3.0.4,59.99547799324481,
peaceful,divility,&&&&&&&&,left,authority.virtue,,,,,,,0,155,155,155,,,,,,,,,,,,,,,,,,,,,AMP,right,0.3003187131253071,,,right,0,0.3003187131253071,0,,,,,,,,,,,,,,,,,,,,,,1045,2019_Mar_13_0951,mf_amp_cond1,3.0.4,59.99547799324481,
prison,lempestuous,&&&&&&&&&&&,right,fairness.vice,,,,,,,0,156,156,156,,,,,,,,,,,,,,,,,,,,,AMP,left,0.6504213960142806,,,left,0,0.6504213960142806,0,,,,,,,,,,,,,,,,,,,,,,1045,2019_Mar_13_0951,mf_amp_cond1,3.0.4,59.99547799324481,
ammessment,lursuer,&&&&&&&,None,nonword,,,,,,,0,157,157,157,,,,,,,,,,,,,,,,,,,,,AMP,left,0.8004503743140958,,,left,0,0.8004503743140958,0,,,,,,,,,,,,,,,,,,,,,,1045,2019_Mar_13_0951,mf_amp_cond1,3.0.4,59.99547799324481,
violence,epigrach,&&&&&&&&,right,care.vice,,,,,,,0,158,158,158,,,,,,,,,,,,,,,,,,,,,AMP,right,0.8338435672631022,,,right,1,0.8338435672631022,1,,,,,,,,,,,,,,,,,,,,,,1045,2019_Mar_13_0951,mf_amp_cond1,3.0.4,59.99547799324481,
scandal,ablow,&&&&&,right,sanctity.vice,,,,,,,0,159,159,159,,,,,,,,,,,,,,,,,,,,,AMP,right,0.8338137390092015,,,right,1,0.8338137390092015,1,,,,,,,,,,,,,,,,,,,,,,1045,2019_Mar_13_0951,mf_amp_cond1,3.0.4,59.99547799324481,
gun,emassion,&&&&&&&&,right,authority.vice,,,,,,,0,160,160,160,,,,,,,,,,,,,,,,,,,,,AMP,left,0.5002439180098008,,,left,0,0.5002439180098008,0,,,,,,,,,,,,,,,,,,,,,,1045,2019_Mar_13_0951,mf_amp_cond1,3.0.4,59.99547799324481,
killed,baladroit,&&&&&&&&&,right,care.vice,,,,,,,0,161,161,161,,,,,,,,,,,,,,,,,,,,,AMP,left,0.4337112325010821,,,left,0,0.4337112325010821,0,,,,,,,,,,,,,,,,,,,,,,1045,2019_Mar_13_0951,mf_amp_cond1,3.0.4,59.99547799324481,
protect,uller,&&&&&,left,fairness.virtue,,,,,,,0,162,162,162,,,,,,,,,,,,,,,,,,,,,AMP,left,0.700439822190674,,,left,1,0.700439822190674,1,,,,,,,,,,,,,,,,,,,,,,1045,2019_Mar_13_0951,mf_amp_cond1,3.0.4,59.99547799324481,
party,greaks,&&&&&&,left,loyalty.virtue,,,,,,,0,163,163,163,,,,,,,,,,,,,,,,,,,,,AMP,left,0.7337723964592442,,,left,1,0.7337723964592442,1,,,,,,,,,,,,,,,,,,,,,,1045,2019_Mar_13_0951,mf_amp_cond1,3.0.4,59.99547799324481,
elduringly,brudent,&&&&&&&,None,nonword,,,,,,,0,164,164,164,,,,,,,,,,,,,,,,,,,,,AMP,left,1.7174178624991328,,,left,0,1.7174178624991328,0,,,,,,,,,,,,,,,,,,,,,,1045,2019_Mar_13_0951,mf_amp_cond1,3.0.4,59.99547799324481,
injured,sfumatoy,&&&&&&&&,right,care.vice,,,,,,,0,165,165,165,,,,,,,,,,,,,,,,,,,,,AMP,left,1.183914176770486,,,left,0,1.183914176770486,0,,,,,,,,,,,,,,,,,,,,,,1045,2019_Mar_13_0951,mf_amp_cond1,3.0.4,59.99547799324481,
commitment,dormandi,&&&&&&&&,left,sanctity.virtue,,,,,,,0,166,166,166,,,,,,,,,,,,,,,,,,,,,AMP,left,0.9005276390817016,,,left,1,0.9005276390817016,1,,,,,,,,,,,,,,,,,,,,,,1045,2019_Mar_13_0951,mf_amp_cond1,3.0.4,59.99547799324481,
interests,edancipation,&&&&&&&&&&&&,left,fairness.virtue,,,,,,,0,167,167,167,,,,,,,,,,,,,,,,,,,,,AMP,left,0.8671543316158932,,,left,1,0.8671543316158932,1,,,,,,,,,,,,,,,,,,,,,,1045,2019_Mar_13_0951,mf_amp_cond1,3.0.4,59.99547799324481,
strong,spag,&&&&,left,loyalty.virtue,,,,,,,0,168,168,168,,,,,,,,,,,,,,,,,,,,,AMP,left,1.2339165662415326,,,left,1,1.2339165662415326,1,,,,,,,,,,,,,,,,,,,,,,1045,2019_Mar_13_0951,mf_amp_cond1,3.0.4,59.99547799324481,
terrorists,greaks,&&&&&&,right,fairness.vice,,,,,,,0,169,169,169,,,,,,,,,,,,,,,,,,,,,AMP,left,0.5003879274590872,,,left,0,0.5003879274590872,0,,,,,,,,,,,,,,,,,,,,,,1045,2019_Mar_13_0951,mf_amp_cond1,3.0.4,59.99547799324481,
corruption,erdest,&&&&&&,right,sanctity.vice,,,,,,,0,170,170,170,,,,,,,,,,,,,,,,,,,,,AMP,left,0.40036005567526445,,,left,0,0.40036005567526445,0,,,,,,,,,,,,,,,,,,,,,,1045,2019_Mar_13_0951,mf_amp_cond1,3.0.4,59.99547799324481,
actively,presentkess,&&&&&&&&&&&,left,authority.virtue,,,,,,,0,171,171,171,,,,,,,,,,,,,,,,,,,,,AMP,left,1.333959191746544,,,left,1,1.333959191746544,1,,,,,,,,,,,,,,,,,,,,,,1045,2019_Mar_13_0951,mf_amp_cond1,3.0.4,59.99547799324481,
critics,galamitous,&&&&&&&&&&,right,loyalty.vice,,,,,,,0,172,172,172,,,,,,,,,,,,,,,,,,,,,AMP,left,1.0338723691529594,,,left,0,1.0338723691529594,0,,,,,,,,,,,,,,,,,,,,,,1045,2019_Mar_13_0951,mf_amp_cond1,3.0.4,59.99547799324481,
fear,crinking,&&&&&&&&,right,sanctity.vice,,,,,,,0,173,173,173,,,,,,,,,,,,,,,,,,,,,AMP,left,0.5170914196933154,,,left,0,0.5170914196933154,0,,,,,,,,,,,,,,,,,,,,,,1045,2019_Mar_13_0951,mf_amp_cond1,3.0.4,59.99547799324481,
torture,reelectiob,&&&&&&&&&&,right,care.vice,,,,,,,0,174,174,174,,,,,,,,,,,,,,,,,,,,,AMP,left,0.8504861200635787,,,left,0,0.8504861200635787,0,,,,,,,,,,,,,,,,,,,,,,1045,2019_Mar_13_0951,mf_amp_cond1,3.0.4,59.99547799324481,
praise,chared,&&&&&&,left,authority.virtue,,,,,,,0,175,175,175,,,,,,,,,,,,,,,,,,,,,AMP,left,0.4503781610983424,,,left,1,0.4503781610983424,1,,,,,,,,,,,,,,,,,,,,,,1045,2019_Mar_13_0951,mf_amp_cond1,3.0.4,59.99547799324481,
smapper,gillipede,&&&&&&&&&,None,nonword,,,,,,,0,176,176,176,,,,,,,,,,,,,,,,,,,,,AMP,left,0.500380550569389,,,left,0,0.500380550569389,0,,,,,,,,,,,,,,,,,,,,,,1045,2019_Mar_13_0951,mf_amp_cond1,3.0.4,59.99547799324481,
blamed,perified,&&&&&&&&,right,loyalty.vice,,,,,,,0,177,177,177,,,,,,,,,,,,,,,,,,,,,AMP,left,0.8504739321942907,,,left,0,0.8504739321942907,0,,,,,,,,,,,,,,,,,,,,,,1045,2019_Mar_13_0951,mf_amp_cond1,3.0.4,59.99547799324481,
victim,gikely,&&&&&&,right,care.vice,,,,,,,0,178,178,178,,,,,,,,,,,,,,,,,,,,,AMP,left,0.46703675063326955,,,left,0,0.46703675063326955,0,,,,,,,,,,,,,,,,,,,,,,1045,2019_Mar_13_0951,mf_amp_cond1,3.0.4,59.99547799324481,
help,forepo,&&&&&&,left,care.virtue,,,,,,,0,179,179,179,,,,,,,,,,,,,,,,,,,,,AMP,left,1.2172637499461416,,,left,1,1.2172637499461416,1,,,,,,,,,,,,,,,,,,,,,,1045,2019_Mar_13_0951,mf_amp_cond1,3.0.4,59.99547799324481,
respect,epigrach,&&&&&&&&,left,sanctity.virtue,,,,,,,0,180,180,180,,,,,,,,,,,,,,,,,,,,,AMP,left,1.1839144975238014,,,left,1,1.1839144975238014,1,,,,,,,,,,,,,,,,,,,,,,1045,2019_Mar_13_0951,mf_amp_cond1,3.0.4,59.99547799324481,
free,emassion,&&&&&&&&,left,fairness.virtue,,,,,,,0,181,181,181,,,,,,,,,,,,,,,,,,,,,AMP,right,0.350396154273767,,,right,0,0.350396154273767,0,,,,,,,,,,,,,,,,,,,,,,1045,2019_Mar_13_0951,mf_amp_cond1,3.0.4,59.99547799324481,
sexual,tove,&&&&,right,sanctity.vice,,,,,,,0,182,182,182,,,,,,,,,,,,,,,,,,,,,AMP,left,0.45037174643948674,,,left,0,0.45037174643948674,0,,,,,,,,,,,,,,,,,,,,,,1045,2019_Mar_13_0951,mf_amp_cond1,3.0.4,59.99547799324481,
ammessment,idexpressible,&&&&&&&&&&&&&,None,nonword,,,,,,,0,183,183,183,,,,,,,,,,,,,,,,,,,,,AMP,left,0.583765548770316,,,left,0,0.583765548770316,0,,,,,,,,,,,,,,,,,,,,,,1045,2019_Mar_13_0951,mf_amp_cond1,3.0.4,59.99547799324481,
riot,Phintoism,&&&&&&&&&,right,authority.vice,,,,,,,0,184,184,184,,,,,,,,,,,,,,,,,,,,,AMP,left,1.5673584144969936,,,left,0,1.5673584144969936,0,,,,,,,,,,,,,,,,,,,,,,1045,2019_Mar_13_0951,mf_amp_cond1,3.0.4,59.99547799324481,
unpleasant,blunderints,&&&&&&&&&&&,None,control,,,,,,,0,185,185,185,,,,,,,,,,,,,,,,,,,,,AMP,left,0.41702056961366907,,,left,0,0.41702056961366907,0,,,,,,,,,,,,,,,,,,,,,,1045,2019_Mar_13_0951,mf_amp_cond1,3.0.4,59.99547799324481,
prones,disregord,&&&&&&&&&,None,nonword,,,,,,,0,186,186,186,,,,,,,,,,,,,,,,,,,,,AMP,left,0.9838590747385751,,,left,0,0.9838590747385751,0,,,,,,,,,,,,,,,,,,,,,,1045,2019_Mar_13_0951,mf_amp_cond1,3.0.4,59.99547799324481,
charges,gationwide,&&&&&&&&&&,right,fairness.vice,,,,,,,0,187,187,187,,,,,,,,,,,,,,,,,,,,,AMP,left,0.4503678976325318,,,left,0,0.4503678976325318,0,,,,,,,,,,,,,,,,,,,,,,1045,2019_Mar_13_0951,mf_amp_cond1,3.0.4,59.99547799324481,
prosecution,bruthfulness,&&&&&&&&&&&&,right,authority.vice,,,,,,,0,188,188,188,,,,,,,,,,,,,,,,,,,,,AMP,left,0.5337272371398285,,,left,0,0.5337272371398285,0,,,,,,,,,,,,,,,,,,,,,,1045,2019_Mar_13_0951,mf_amp_cond1,3.0.4,59.99547799324481,
rorroborated,nuckheap,&&&&&&&&,None,nonword,,,,,,,0,189,189,189,,,,,,,,,,,,,,,,,,,,,AMP,left,0.6504313387558796,,,left,0,0.6504313387558796,0,,,,,,,,,,,,,,,,,,,,,,1045,2019_Mar_13_0951,mf_amp_cond1,3.0.4,59.99547799324481,
restore,pumber,&&&&&&,left,care.virtue,,,,,,,0,190,190,190,,,,,,,,,,,,,,,,,,,,,AMP,left,0.3836895990243647,,,left,1,0.3836895990243647,1,,,,,,,,,,,,,,,,,,,,,,1045,2019_Mar_13_0951,mf_amp_cond1,3.0.4,59.99547799324481,
juck,letish,&&&&&&,None,nonword,,,,,,,0,191,191,191,,,,,,,,,,,,,,,,,,,,,AMP,left,0.5837514364975505,,,left,0,0.5837514364975505,0,,,,,,,,,,,,,,,,,,,,,,1045,2019_Mar_13_0951,mf_amp_cond1,3.0.4,59.99547799324481,
promote,neneficence,&&&&&&&&&&&,left,sanctity.virtue,,,,,,,0,192,192,192,,,,,,,,,,,,,,,,,,,,,AMP,left,0.016905875207157806,,,left,1,0.016905875207157806,1,,,,,,,,,,,,,,,,,,,,,,1045,2019_Mar_13_0951,mf_amp_cond1,3.0.4,59.99547799324481,
praised,lempestuous,&&&&&&&&&&&,left,loyalty.virtue,,,,,,,0,193,193,193,,,,,,,,,,,,,,,,,,,,,AMP,left,1.900794810266234,,,left,1,1.900794810266234,1,,,,,,,,,,,,,,,,,,,,,,1045,2019_Mar_13_0951,mf_amp_cond1,3.0.4,59.99547799324481,
racist,divility,&&&&&&&&,right,sanctity.vice,,,,,,,0,194,194,194,,,,,,,,,,,,,,,,,,,,,AMP,left,0.5337275578640401,,,left,0,0.5337275578640401,0,,,,,,,,,,,,,,,,,,,,,,1045,2019_Mar_13_0951,mf_amp_cond1,3.0.4,59.99547799324481,
benefit,rivernoat,&&&&&&&&&,left,fairness.virtue,,,,,,,0,195,195,195,,,,,,,,,,,,,,,,,,,,,AMP,left,0.7837789554323535,,,left,1,0.7837789554323535,1,,,,,,,,,,,,,,,,,,,,,,1045,2019_Mar_13_0951,mf_amp_cond1,3.0.4,59.99547799324481,
officers,wonderfujnoss,&&&&&&&&&&&&&,right,authority.vice,,,,,,,0,196,196,196,,,,,,,,,,,,,,,,,,,,,AMP,left,0.6170410324120894,,,left,0,0.6170410324120894,0,,,,,,,,,,,,,,,,,,,,,,1045,2019_Mar_13_0951,mf_amp_cond1,3.0.4,59.99547799324481,
army,quarterbocks,&&&&&&&&&&&&,right,loyalty.vice,,,,,,,0,197,197,197,,,,,,,,,,,,,,,,,,,,,AMP,left,0.6504290936281905,,,left,0,0.6504290936281905,0,,,,,,,,,,,,,,,,,,,,,,1045,2019_Mar_13_0951,mf_amp_cond1,3.0.4,59.99547799324481,
pleasant,asn,&&&,None,control,,,,,,,0,198,198,198,,,,,,,,,,,,,,,,,,,,,AMP,right,0.18363096890971065,,,right,0,0.18363096890971065,0,,,,,,,,,,,,,,,,,,,,,,1045,2019_Mar_13_0951,mf_amp_cond1,3.0.4,59.99547799324481,
improve,aubos,&&&&&,left,care.virtue,,,,,,,0,199,199,199,,,,,,,,,,,,,,,,,,,,,AMP,left,0.38367773187928833,,,left,1,0.38367773187928833,1,,,,,,,,,,,,,,,,,,,,,,1045,2019_Mar_13_0951,mf_amp_cond1,3.0.4,59.99547799324481,
clean,noped,&&&&&,left,sanctity.virtue,,,,,,,0,200,200,200,,,,,,,,,,,,,,,,,,,,,AMP,left,0.8338211158697959,,,left,1,0.8338211158697959,1,,,,,,,,,,,,,,,,,,,,,,1045,2019_Mar_13_0951,mf_amp_cond1,3.0.4,59.99547799324481,
fraud,ecgagement,&&&&&&&&&&,right,fairness.vice,,,,,,,0,201,201,201,,,,,,,,,,,,,,,,,,,,,AMP,left,0.850489648146322,,,left,0,0.850489648146322,0,,,,,,,,,,,,,,,,,,,,,,1045,2019_Mar_13_0951,mf_amp_cond1,3.0.4,59.99547799324481,
party,chressing,&&&&&&&&&,left,loyalty.virtue,,,,,,,0,202,202,202,,,,,,,,,,,,,,,,,,,,,AMP,left,0.9005157719366252,,,left,1,0.9005157719366252,1,,,,,,,,,,,,,,,,,,,,,,1045,2019_Mar_13_0951,mf_amp_cond1,3.0.4,59.99547799324481,
encourage,discovars,&&&&&&&&&,left,authority.virtue,,,,,,,0,203,203,203,,,,,,,,,,,,,,,,,,,,,AMP,left,0.5504028255236335,,,left,1,0.5504028255236335,1,,,,,,,,,,,,,,,,,,,,,,1045,2019_Mar_13_0951,mf_amp_cond1,3.0.4,59.99547799324481,
failure,hasks,&&&&&,right,loyalty.vice,,,,,,,0,204,204,204,,,,,,,,,,,,,,,,,,,,,AMP,left,0.6337746736535337,,,left,0,0.6337746736535337,0,,,,,,,,,,,,,,,,,,,,,,1045,2019_Mar_13_0951,mf_amp_cond1,3.0.4,59.99547799324481,
compassion,fonderland,&&&&&&&&&&,left,care.virtue,,,,,,,0,205,205,205,,,,,,,,,,,,,,,,,,,,,AMP,right,1.8674615945492405,,,right,0,1.8674615945492405,0,,,,,,,,,,,,,,,,,,,,,,1045,2019_Mar_13_0951,mf_amp_cond1,3.0.4,59.99547799324481,
attacks,clattening,&&&&&&&&&&,right,care.vice,,,,,,,0,206,206,206,,,,,,,,,,,,,,,,,,,,,AMP,left,0.6838315878412686,,,left,0,0.6838315878412686,0,,,,,,,,,,,,,,,,,,,,,,1045,2019_Mar_13_0951,mf_amp_cond1,3.0.4,59.99547799324481,
ittutable,godlaness,&&&&&&&&&,None,nonword,,,,,,,0,207,207,207,,,,,,,,,,,,,,,,,,,,,AMP,left,1.2005846334504895,,,left,0,1.2005846334504895,0,,,,,,,,,,,,,,,,,,,,,,1045,2019_Mar_13_0951,mf_amp_cond1,3.0.4,59.99547799324481,
terrorist,taxpayung,&&&&&&&&&,right,loyalty.vice,,,,,,,0,208,208,208,,,,,,,,,,,,,,,,,,,,,AMP,left,1.133896071347408,,,left,0,1.133896071347408,0,,,,,,,,,,,,,,,,,,,,,,1045,2019_Mar_13_0951,mf_amp_cond1,3.0.4,59.99547799324481,
arrests,vicissifude,&&&&&&&&&&&,right,authority.vice,,,,,,,0,209,209,209,,,,,,,,,,,,,,,,,,,,,AMP,left,0.75045343732927,,,left,0,0.75045343732927,0,,,,,,,,,,,,,,,,,,,,,,1045,2019_Mar_13_0951,mf_amp_cond1,3.0.4,59.99547799324481,
ban,uller,&&&&&,right,loyalty.vice,,,,,,,0,210,210,210,,,,,,,,,,,,,,,,,,,,,AMP,right,0.5670675089932047,,,right,1,0.5670675089932047,1,,,,,,,,,,,,,,,,,,,,,,1045,2019_Mar_13_0951,mf_amp_cond1,3.0.4,59.99547799324481,
illegal,yane,&&&&,right,fairness.vice,,,,,,,0,211,211,211,,,,,,,,,,,,,,,,,,,,,AMP,right,0.35034130880376324,,,right,1,0.35034130880376324,1,,,,,,,,,,,,,,,,,,,,,,1045,2019_Mar_13_0951,mf_amp_cond1,3.0.4,59.99547799324481,
peaceful,sidearbs,&&&&&&&&,left,authority.virtue,,,,,,,0,212,212,212,,,,,,,,,,,,,,,,,,,,,AMP,right,0.23363015102222562,,,right,0,0.23363015102222562,0,,,,,,,,,,,,,,,,,,,,,,1045,2019_Mar_13_0951,mf_amp_cond1,3.0.4,59.99547799324481,
values,pescinded,&&&&&&&&&,left,sanctity.virtue,,,,,,,0,213,213,213,,,,,,,,,,,,,,,,,,,,,AMP,right,0.5170384986267891,,,right,0,0.5170384986267891,0,,,,,,,,,,,,,,,,,,,,,,1045,2019_Mar_13_0951,mf_amp_cond1,3.0.4,59.99547799324481,
ability,lursuer,&&&&&&&,left,authority.virtue,,,,,,,0,214,214,214,,,,,,,,,,,,,,,,,,,,,AMP,left,0.1836434775032103,,,left,1,0.1836434775032103,1,,,,,,,,,,,,,,,,,,,,,,1045,2019_Mar_13_0951,mf_amp_cond1,3.0.4,59.99547799324481,
progress,baladroit,&&&&&&&&&,left,authority.virtue,,,,,,,0,215,215,215,,,,,,,,,,,,,,,,,,,,,AMP,left,1.0172057612799108,,,left,1,1.0172057612799108,1,,,,,,,,,,,,,,,,,,,,,,1045,2019_Mar_13_0951,mf_amp_cond1,3.0.4,59.99547799324481,
violence,gondensed,&&&&&&&&&,right,care.vice,,,,,,,0,216,216,216,,,,,,,,,,,,,,,,,,,,,AMP,left,0.7504784545453731,,,left,0,0.7504784545453731,0,,,,,,,,,,,,,,,,,,,,,,1045,2019_Mar_13_0951,mf_amp_cond1,3.0.4,59.99547799324481,
dignity,imebreaker,&&&&&&&&&&,left,sanctity.virtue,,,,,,,0,217,217,217,,,,,,,,,,,,,,,,,,,,,AMP,left,0.3836639403307345,,,left,1,0.3836639403307345,1,,,,,,,,,,,,,,,,,,,,,,1045,2019_Mar_13_0951,mf_amp_cond1,3.0.4,59.99547799324481,
win,ablow,&&&&&,left,fairness.virtue,,,,,,,0,218,218,218,,,,,,,,,,,,,,,,,,,,,AMP,left,0.5670742444053758,,,left,1,0.5670742444053758,1,,,,,,,,,,,,,,,,,,,,,,1045,2019_Mar_13_0951,mf_amp_cond1,3.0.4,59.99547799324481,
mecan,ejanulated,&&&&&&&&&&,None,nonword,,,,,,,0,219,219,219,,,,,,,,,,,,,,,,,,,,,AMP,left,0.7171166935295332,,,left,0,0.7171166935295332,0,,,,,,,,,,,,,,,,,,,,,,1045,2019_Mar_13_0951,mf_amp_cond1,3.0.4,59.99547799324481,
safety,wump,&&&&,left,care.virtue,,,,,,,0,220,220,220,,,,,,,,,,,,,,,,,,,,,AMP,left,0.7504537580534816,,,left,1,0.7504537580534816,1,,,,,,,,,,,,,,,,,,,,,,1045,2019_Mar_13_0951,mf_amp_cond1,3.0.4,59.99547799324481,
police,tracious,&&&&&&&&,right,authority.vice,,,,,,,0,221,221,221,,,,,,,,,,,,,,,,,,,,,AMP,left,0.9338461010484025,,,left,0,0.9338461010484025,0,,,,,,,,,,,,,,,,,,,,,,1045,2019_Mar_13_0951,mf_amp_cond1,3.0.4,59.99547799324481,
trust,sliptery,&&&&&&&&,left,authority.virtue,,,,,,,0,222,222,222,,,,,,,,,,,,,,,,,,,,,AMP,left,0.10027002572314814,,,left,1,0.10027002572314814,1,,,,,,,,,,,,,,,,,,,,,,1045,2019_Mar_13_0951,mf_amp_cond1,3.0.4,59.99547799324481,
increase,frocessing,&&&&&&&&&&,left,care.virtue,,,,,,,0,223,223,223,,,,,,,,,,,,,,,,,,,,,AMP,left,1.1005628556304146,,,left,1,1.1005628556304146,1,,,,,,,,,,,,,,,,,,,,,,1045,2019_Mar_13_0951,mf_amp_cond1,3.0.4,59.99547799324481,
hand,laming,&&&&&&,left,sanctity.virtue,,,,,,,0,224,224,224,,,,,,,,,,,,,,,,,,,,,AMP,right,0.5170516486978158,,,right,0,0.5170516486978158,0,,,,,,,,,,,,,,,,,,,,,,1045,2019_Mar_13_0951,mf_amp_cond1,3.0.4,59.99547799324481,
loyalty,fangsters,&&&&&&&&&,left,loyalty.virtue,,,,,,,0,225,225,225,,,,,,,,,,,,,,,,,,,,,AMP,right,0.3503403466020245,,,right,0,0.3503403466020245,0,,,,,,,,,,,,,,,,,,,,,,1045,2019_Mar_13_0951,mf_amp_cond1,3.0.4,59.99547799324481,
killed,dramens,&&&&&&&,right,care.vice,,,,,,,0,226,226,226,,,,,,,,,,,,,,,,,,,,,AMP,left,0.40033022745046765,,,left,0,0.40033022745046765,0,,,,,,,,,,,,,,,,,,,,,,1045,2019_Mar_13_0951,mf_amp_cond1,3.0.4,59.99547799324481,
protect,pafer,&&&&&,left,fairness.virtue,,,,,,,0,227,227,227,,,,,,,,,,,,,,,,,,,,,AMP,left,1.2672683845448773,,,left,1,1.2672683845448773,1,,,,,,,,,,,,,,,,,,,,,,1045,2019_Mar_13_0951,mf_amp_cond1,3.0.4,59.99547799324481,
rebels,stindig,&&&&&&&,right,authority.vice,,,,,,,0,228,228,228,,,,,,,,,,,,,,,,,,,,,AMP,left,0.45036084146704525,,,left,0,0.45036084146704525,0,,,,,,,,,,,,,,,,,,,,,,1045,2019_Mar_13_0951,mf_amp_cond1,3.0.4,59.99547799324481,
prison,ronviolence,&&&&&&&&&&&,right,fairness.vice,,,,,,,0,229,229,229,,,,,,,,,,,,,,,,,,,,,AMP,left,0.5337288407899905,,,left,0,0.5337288407899905,0,,,,,,,,,,,,,,,,,,,,,,1045,2019_Mar_13_0951,mf_amp_cond1,3.0.4,59.99547799324481,
hate,saned,&&&&&,right,fairness.vice,,,,,,,0,230,230,230,,,,,,,,,,,,,,,,,,,,,AMP,left,0.8504248599347193,,,left,0,0.8504248599347193,0,,,,,,,,,,,,,,,,,,,,,,1045,2019_Mar_13_0951,mf_amp_cond1,3.0.4,59.99547799324481,
hope,crilfully,&&&&&&&&&,left,loyalty.virtue,,,,,,,0,231,231,231,,,,,,,,,,,,,,,,,,,,,AMP,left,0.7171054678328801,,,left,1,0.7171054678328801,1,,,,,,,,,,,,,,,,,,,,,,1045,2019_Mar_13_0951,mf_amp_cond1,3.0.4,59.99547799324481,
promised,photocalkodes,&&&&&&&&&&&&&,left,loyalty.virtue,,,,,,,0,232,232,232,,,,,,,,,,,,,,,,,,,,,AMP,right,0.4337792280712165,,,right,0,0.4337792280712165,0,,,,,,,,,,,,,,,,,,,,,,1045,2019_Mar_13_0951,mf_amp_cond1,3.0.4,59.99547799324481,
emports,unreflectuve,&&&&&&&&&&&&,None,nonword,,,,,,,0,233,233,233,,,,,,,,,,,,,,,,,,,,,AMP,left,0.6004251005069818,,,left,0,0.6004251005069818,0,,,,,,,,,,,,,,,,,,,,,,1045,2019_Mar_13_0951,mf_amp_cond1,3.0.4,59.99547799324481,
integrity,lenon,&&&&&,left,fairness.virtue,,,,,,,0,234,234,234,,,,,,,,,,,,,,,,,,,,,AMP,right,0.5337205017276574,,,right,0,0.5337205017276574,0,,,,,,,,,,,,,,,,,,,,,,1045,2019_Mar_13_0951,mf_amp_cond1,3.0.4,59.99547799324481,
support,thabbily,&&&&&&&&,left,loyalty.virtue,,,,,,,0,235,235,235,,,,,,,,,,,,,,,,,,,,,AMP,right,0.3503304038604256,,,right,0,0.3503304038604256,0,,,,,,,,,,,,,,,,,,,,,,1045,2019_Mar_13_0951,mf_amp_cond1,3.0.4,59.99547799324481,
health,hefurbished,&&&&&&&&&&&,left,care.virtue,,,,,,,0,236,236,236,,,,,,,,,,,,,,,,,,,,,AMP,right,0.21696835415787064,,,right,0,0.21696835415787064,0,,,,,,,,,,,,,,,,,,,,,,1045,2019_Mar_13_0951,mf_amp_cond1,3.0.4,59.99547799324481,
seachwear,bluently,&&&&&&&&,None,nonword,,,,,,,0,237,237,237,,,,,,,,,,,,,,,,,,,,,AMP,left,0.5670713578001596,,,left,0,0.5670713578001596,0,,,,,,,,,,,,,,,,,,,,,,1045,2019_Mar_13_0951,mf_amp_cond1,3.0.4,59.99547799324481,
lies,chreams,&&&&&&&,right,fairness.vice,,,,,,,0,238,238,238,,,,,,,,,,,,,,,,,,,,,AMP,left,0.533714728517225,,,left,0,0.533714728517225,0,,,,,,,,,,,,,,,,,,,,,,1045,2019_Mar_13_0951,mf_amp_cond1,3.0.4,59.99547799324481,
abuse,pistraught,&&&&&&&&&&,right,sanctity.vice,,,,,,,0,239,239,239,,,,,,,,,,,,,,,,,,,,,AMP,left,0.3670008605113253,,,left,0,0.3670008605113253,0,,,,,,,,,,,,,,,,,,,,,,1045,2019_Mar_13_0951,mf_amp_cond1,3.0.4,59.99547799324481,
men,tomedians,&&&&&&&&&,right,loyalty.vice,,,,,,,0,240,240,240,,,,,,,,,,,,,,,,,,,,,AMP,left,0.8338143804576248,,,left,0,0.8338143804576248,0,,,,,,,,,,,,,,,,,,,,,,1045,2019_Mar_13_0951,mf_amp_cond1,3.0.4,59.99547799324481,
scandal,tenuflect,&&&&&&&&&,right,sanctity.vice,,,,,,,0,241,241,241,,,,,,,,,,,,,,,,,,,,,AMP,left,0.45038906604168005,,,left,0,0.45038906604168005,0,,,,,,,,,,,,,,,,,,,,,,1045,2019_Mar_13_0951,mf_amp_cond1,3.0.4,59.99547799324481,
credit,sgrawl,&&&&&&,left,fairness.virtue,,,,,,,0,242,242,242,,,,,,,,,,,,,,,,,,,,,AMP,left,1.0172038368764333,,,left,1,1.0172038368764333,1,,,,,,,,,,,,,,,,,,,,,,1045,2019_Mar_13_0951,mf_amp_cond1,3.0.4,59.99547799324481,
gun,dumid,&&&&&,right,authority.vice,,,,,,,0,243,243,243,,,,,,,,,,,,,,,,,,,,,AMP,right,0.266982290049782,,,right,1,0.266982290049782,1,,,,,,,,,,,,,,,,,,,,,,1045,2019_Mar_13_0951,mf_amp_cond1,3.0.4,59.99547799324481,
shot,feleological,&&&&&&&&&&&&,right,care.vice,,,,,,,0,244,244,244,,,,,,,,,,,,,,,,,,,,,AMP,left,0.5504140512202866,,,left,0,0.5504140512202866,0,,,,,,,,,,,,,,,,,,,,,,1045,2019_Mar_13_0951,mf_amp_cond1,3.0.4,59.99547799324481,
serial,gedious,&&&&&&&,right,sanctity.vice,,,,,,,0,245,245,245,,,,,,,,,,,,,,,,,,,,,AMP,left,0.23366767686093226,,,left,0,0.23366767686093226,0,,,,,,,,,,,,,,,,,,,,,,1045,2019_Mar_13_0951,mf_amp_cond1,3.0.4,59.99547799324481,
credit,fangsters,&&&&&&&&&,left,fairness.virtue,,,,,,,0,246,246,246,,,,,,,,,,,,,,,,,,,,,AMP,left,3.251185512082884,,,left,1,3.251185512082884,1,,,,,,,,,,,,,,,,,,,,,,1045,2019_Mar_13_0951,mf_amp_cond1,3.0.4,59.99547799324481,
prosecution,clattening,&&&&&&&&&&,right,authority.vice,,,,,,,0,247,247,247,,,,,,,,,,,,,,,,,,,,,AMP,left,1.70073618015158,,,left,0,1.70073618015158,0,,,,,,,,,,,,,,,,,,,,,,1045,2019_Mar_13_0951,mf_amp_cond1,3.0.4,59.99547799324481,
mecan,asn,&&&,None,nonword,,,,,,,0,248,248,248,,,,,,,,,,,,,,,,,,,,,AMP,left,0.33369651081738994,,,left,0,0.33369651081738994,0,,,,,,,,,,,,,,,,,,,,,,1045,2019_Mar_13_0951,mf_amp_cond1,3.0.4,59.99547799324481,
torture,thabbily,&&&&&&&&,right,care.vice,,,,,,,0,249,249,249,,,,,,,,,,,,,,,,,,,,,AMP,left,1.2672760821296833,,,left,0,1.2672760821296833,0,,,,,,,,,,,,,,,,,,,,,,1045,2019_Mar_13_0951,mf_amp_cond1,3.0.4,59.99547799324481,
arrests,blunderints,&&&&&&&&&&&,right,authority.vice,,,,,,,0,250,250,250,,,,,,,,,,,,,,,,,,,,,AMP,left,0.6671293785329908,,,left,0,0.6671293785329908,0,,,,,,,,,,,,,,,,,,,,,,1045,2019_Mar_13_0951,mf_amp_cond1,3.0.4,59.99547799324481,
ability,gedious,&&&&&&&,left,authority.virtue,,,,,,,0,251,251,251,,,,,,,,,,,,,,,,,,,,,AMP,left,0.5003933799162041,,,left,1,0.5003933799162041,1,,,,,,,,,,,,,,,,,,,,,,1045,2019_Mar_13_0951,mf_amp_cond1,3.0.4,59.99547799324481,
commitment,lursuer,&&&&&&&,left,sanctity.virtue,,,,,,,0,252,252,252,,,,,,,,,,,,,,,,,,,,,AMP,left,0.38369056122610345,,,left,1,0.38369056122610345,1,,,,,,,,,,,,,,,,,,,,,,1045,2019_Mar_13_0951,mf_amp_cond1,3.0.4,59.99547799324481,
compassion,vicissifude,&&&&&&&&&&&,left,care.virtue,,,,,,,0,253,253,253,,,,,,,,,,,,,,,,,,,,,AMP,left,0.750443494587671,,,left,1,0.750443494587671,1,,,,,,,,,,,,,,,,,,,,,,1045,2019_Mar_13_0951,mf_amp_cond1,3.0.4,59.99547799324481,
protect,bruthfulness,&&&&&&&&&&&&,left,fairness.virtue,,,,,,,0,254,254,254,,,,,,,,,,,,,,,,,,,,,AMP,left,0.6170227505790535,,,left,1,0.6170227505790535,1,,,,,,,,,,,,,,,,,,,,,,1045,2019_Mar_13_0951,mf_amp_cond1,3.0.4,59.99547799324481,
officers,Phintoism,&&&&&&&&&,right,authority.vice,,,,,,,0,255,255,255,,,,,,,,,,,,,,,,,,,,,AMP,left,0.15027882988215424,,,left,0,0.15027882988215424,0,,,,,,,,,,,,,,,,,,,,,,1045,2019_Mar_13_0951,mf_amp_cond1,3.0.4,59.99547799324481,
killed,feleological,&&&&&&&&&&&&,right,care.vice,,,,,,,0,256,256,256,,,,,,,,,,,,,,,,,,,,,AMP,left,2.634371559135616,,,left,0,2.634371559135616,0,,,,,,,,,,,,,,,,,,,,,,1045,2019_Mar_13_0951,mf_amp_cond1,3.0.4,59.99547799324481,
pleasant,lempestuous,&&&&&&&&&&&,None,control,,,,,,,0,257,257,257,,,,,,,,,,,,,,,,,,,,,AMP,left,0.467038675036747,,,left,0,0.467038675036747,0,,,,,,,,,,,,,,,,,,,,,,1045,2019_Mar_13_0951,mf_amp_cond1,3.0.4,59.99547799324481,
scandal,discovars,&&&&&&&&&,right,sanctity.vice,,,,,,,0,258,258,258,,,,,,,,,,,,,,,,,,,,,AMP,left,0.4337170057115145,,,left,0,0.4337170057115145,0,,,,,,,,,,,,,,,,,,,,,,1045,2019_Mar_13_0951,mf_amp_cond1,3.0.4,59.99547799324481,
prones,aubos,&&&&&,None,nonword,,,,,,,0,259,259,259,,,,,,,,,,,,,,,,,,,,,AMP,left,0.5503951279388275,,,left,0,0.5503951279388275,0,,,,,,,,,,,,,,,,,,,,,,1045,2019_Mar_13_0951,mf_amp_cond1,3.0.4,59.99547799324481,
encourage,unreflectuve,&&&&&&&&&&&&,left,authority.virtue,,,,,,,0,260,260,260,,,,,,,,,,,,,,,,,,,,,AMP,right,0.3169910941796843,,,right,0,0.3169910941796843,0,,,,,,,,,,,,,,,,,,,,,,1045,2019_Mar_13_0951,mf_amp_cond1,3.0.4,59.99547799324481,
benefit,yane,&&&&,left,fairness.virtue,,,,,,,0,261,261,261,,,,,,,,,,,,,,,,,,,,,AMP,right,0.35032944165868685,,,right,0,0.35032944165868685,0,,,,,,,,,,,,,,,,,,,,,,1045,2019_Mar_13_0951,mf_amp_cond1,3.0.4,59.99547799324481,
abuse,emassion,&&&&&&&&,right,sanctity.vice,,,,,,,0,262,262,262,,,,,,,,,,,,,,,,,,,,,AMP,left,0.6004180443414953,,,left,0,0.6004180443414953,0,,,,,,,,,,,,,,,,,,,,,,1045,2019_Mar_13_0951,mf_amp_cond1,3.0.4,59.99547799324481,
praise,stindig,&&&&&&&,left,authority.virtue,,,,,,,0,263,263,263,,,,,,,,,,,,,,,,,,,,,AMP,left,0.46704252384370193,,,left,1,0.46704252384370193,1,,,,,,,,,,,,,,,,,,,,,,1045,2019_Mar_13_0951,mf_amp_cond1,3.0.4,59.99547799324481,
ammessment,ejanulated,&&&&&&&&&&,None,nonword,,,,,,,0,264,264,264,,,,,,,,,,,,,,,,,,,,,AMP,left,1.8341569241310935,,,left,0,1.8341569241310935,0,,,,,,,,,,,,,,,,,,,,,,1045,2019_Mar_13_0951,mf_amp_cond1,3.0.4,59.99547799324481,
hand,uller,&&&&&,left,sanctity.virtue,,,,,,,0,265,265,265,,,,,,,,,,,,,,,,,,,,,AMP,left,0.9338422522414476,,,left,1,0.9338422522414476,1,,,,,,,,,,,,,,,,,,,,,,1045,2019_Mar_13_0951,mf_amp_cond1,3.0.4,59.99547799324481,
injured,baladroit,&&&&&&&&&,right,care.vice,,,,,,,0,266,266,266,,,,,,,,,,,,,,,,,,,,,AMP,left,0.700439822190674,,,left,0,0.700439822190674,0,,,,,,,,,,,,,,,,,,,,,,1045,2019_Mar_13_0951,mf_amp_cond1,3.0.4,59.99547799324481,
support,godlaness,&&&&&&&&&,left,loyalty.virtue,,,,,,,0,267,267,267,,,,,,,,,,,,,,,,,,,,,AMP,right,0.28366750045097433,,,right,0,0.28366750045097433,0,,,,,,,,,,,,,,,,,,,,,,1045,2019_Mar_13_0951,mf_amp_cond1,3.0.4,59.99547799324481,
safety,dumid,&&&&&,left,care.virtue,,,,,,,0,268,268,268,,,,,,,,,,,,,,,,,,,,,AMP,left,0.6670973051514011,,,left,1,0.6670973051514011,1,,,,,,,,,,,,,,,,,,,,,,1045,2019_Mar_13_0951,mf_amp_cond1,3.0.4,59.99547799324481,
integrity,ablow,&&&&&,left,fairness.virtue,,,,,,,0,269,269,269,,,,,,,,,,,,,,,,,,,,,AMP,left,0.43369808243005536,,,left,1,0.43369808243005536,1,,,,,,,,,,,,,,,,,,,,,,1045,2019_Mar_13_0951,mf_amp_cond1,3.0.4,59.99547799324481,
army,pumber,&&&&&&,right,loyalty.vice,,,,,,,0,270,270,270,,,,,,,,,,,,,,,,,,,,,AMP,left,0.583732833940303,,,left,0,0.583732833940303,0,,,,,,,,,,,,,,,,,,,,,,1045,2019_Mar_13_0951,mf_amp_cond1,3.0.4,59.99547799324481,
critics,neneficence,&&&&&&&&&&&,right,loyalty.vice,,,,,,,0,271,271,271,,,,,,,,,,,,,,,,,,,,,AMP,left,0.48371650857734494,,,left,0,0.48371650857734494,0,,,,,,,,,,,,,,,,,,,,,,1045,2019_Mar_13_0951,mf_amp_cond1,3.0.4,59.99547799324481,
terrorist,noped,&&&&&,right,loyalty.vice,,,,,,,0,272,272,272,,,,,,,,,,,,,,,,,,,,,AMP,right,0.9171769273234531,,,right,1,0.9171769273234531,1,,,,,,,,,,,,,,,,,,,,,,1045,2019_Mar_13_0951,mf_amp_cond1,3.0.4,59.99547799324481,
increase,wonderfujnoss,&&&&&&&&&&&&&,left,care.virtue,,,,,,,0,273,273,273,,,,,,,,,,,,,,,,,,,,,AMP,right,0.6171087072580121,,,right,0,0.6171087072580121,0,,,,,,,,,,,,,,,,,,,,,,1045,2019_Mar_13_0951,mf_amp_cond1,3.0.4,59.99547799324481,
illegal,rivernoat,&&&&&&&&&,right,fairness.vice,,,,,,,0,274,274,274,,,,,,,,,,,,,,,,,,,,,AMP,left,0.6504473754321225,,,left,0,0.6504473754321225,0,,,,,,,,,,,,,,,,,,,,,,1045,2019_Mar_13_0951,mf_amp_cond1,3.0.4,59.99547799324481,
prison,idexpressible,&&&&&&&&&&&&&,right,fairness.vice,,,,,,,0,275,275,275,,,,,,,,,,,,,,,,,,,,,AMP,left,0.43362976613570936,,,left,0,0.43362976613570936,0,,,,,,,,,,,,,,,,,,,,,,1045,2019_Mar_13_0951,mf_amp_cond1,3.0.4,59.99547799324481,
shot,pescinded,&&&&&&&&&,right,care.vice,,,,,,,0,276,276,276,,,,,,,,,,,,,,,,,,,,,AMP,left,1.6840612332161982,,,left,0,1.6840612332161982,0,,,,,,,,,,,,,,,,,,,,,,1045,2019_Mar_13_0951,mf_amp_cond1,3.0.4,59.99547799324481,
ittutable,divility,&&&&&&&&,None,nonword,,,,,,,0,277,277,277,,,,,,,,,,,,,,,,,,,,,AMP,left,1.6674183596333023,,,left,0,1.6674183596333023,0,,,,,,,,,,,,,,,,,,,,,,1045,2019_Mar_13_0951,mf_amp_cond1,3.0.4,59.99547799324481,
actively,edancipation,&&&&&&&&&&&&,left,authority.virtue,,,,,,,0,278,278,278,,,,,,,,,,,,,,,,,,,,,AMP,left,0.9838664516282734,,,left,1,0.9838664516282734,1,,,,,,,,,,,,,,,,,,,,,,1045,2019_Mar_13_0951,mf_amp_cond1,3.0.4,59.99547799324481,
strong,hasks,&&&&&,left,loyalty.virtue,,,,,,,0,279,279,279,,,,,,,,,,,,,,,,,,,,,AMP,left,0.6004286285606213,,,left,1,0.6004286285606213,1,,,,,,,,,,,,,,,,,,,,,,1045,2019_Mar_13_0951,mf_amp_cond1,3.0.4,59.99547799324481,
failure,dramens,&&&&&&&,right,loyalty.vice,,,,,,,0,280,280,280,,,,,,,,,,,,,,,,,,,,,AMP,left,1.3172925839025993,,,left,0,1.3172925839025993,0,,,,,,,,,,,,,,,,,,,,,,1045,2019_Mar_13_0951,mf_amp_cond1,3.0.4,59.99547799324481,
charges,tenuflect,&&&&&&&&&,right,fairness.vice,,,,,,,0,281,281,281,,,,,,,,,,,,,,,,,,,,,AMP,left,0.5003795883967541,,,left,0,0.5003795883967541,0,,,,,,,,,,,,,,,,,,,,,,1045,2019_Mar_13_0951,mf_amp_cond1,3.0.4,59.99547799324481,
corruption,wump,&&&&,right,sanctity.vice,,,,,,,0,282,282,282,,,,,,,,,,,,,,,,,,,,,AMP,left,0.7171394656179473,,,left,0,0.7171394656179473,0,,,,,,,,,,,,,,,,,,,,,,1045,2019_Mar_13_0951,mf_amp_cond1,3.0.4,59.99547799324481,
blamed,sfumatoy,&&&&&&&&,right,loyalty.vice,,,,,,,0,283,283,283,,,,,,,,,,,,,,,,,,,,,AMP,left,0.40034209459554404,,,left,0,0.40034209459554404,0,,,,,,,,,,,,,,,,,,,,,,1045,2019_Mar_13_0951,mf_amp_cond1,3.0.4,59.99547799324481,
peaceful,galamitous,&&&&&&&&&&,left,authority.virtue,,,,,,,0,284,284,284,,,,,,,,,,,,,,,,,,,,,AMP,right,0.2836508222972043,,,right,0,0.2836508222972043,0,,,,,,,,,,,,,,,,,,,,,,1045,2019_Mar_13_0951,mf_amp_cond1,3.0.4,59.99547799324481,
party,presentkess,&&&&&&&&&&&,left,loyalty.virtue,,,,,,,0,285,285,285,,,,,,,,,,,,,,,,,,,,,AMP,right,0.48370688655995764,,,right,0,0.48370688655995764,0,,,,,,,,,,,,,,,,,,,,,,1045,2019_Mar_13_0951,mf_amp_cond1,3.0.4,59.99547799324481,
violence,saned,&&&&&,right,care.vice,,,,,,,0,286,286,286,,,,,,,,,,,,,,,,,,,,,AMP,left,0.9505284248734824,,,left,0,0.9505284248734824,0,,,,,,,,,,,,,,,,,,,,,,1045,2019_Mar_13_0951,mf_amp_cond1,3.0.4,59.99547799324481,
values,pafer,&&&&&,left,sanctity.virtue,,,,,,,0,287,287,287,,,,,,,,,,,,,,,,,,,,,AMP,right,0.6837863643886521,,,right,0,0.6837863643886521,0,,,,,,,,,,,,,,,,,,,,,,1045,2019_Mar_13_0951,mf_amp_cond1,3.0.4,59.99547799324481,
free,laming,&&&&&&,left,fairness.virtue,,,,,,,0,288,288,288,,,,,,,,,,,,,,,,,,,,,AMP,left,1.0838904745760374,,,left,1,1.0838904745760374,1,,,,,,,,,,,,,,,,,,,,,,1045,2019_Mar_13_0951,mf_amp_cond1,3.0.4,59.99547799324481,
rebels,ecgagement,&&&&&&&&&&,right,authority.vice,,,,,,,0,289,289,289,,,,,,,,,,,,,,,,,,,,,AMP,right,0.8338493404735345,,,right,1,0.8338493404735345,1,,,,,,,,,,,,,,,,,,,,,,1045,2019_Mar_13_0951,mf_amp_cond1,3.0.4,59.99547799324481,
win,epigrach,&&&&&&&&,left,fairness.virtue,,,,,,,0,290,290,290,,,,,,,,,,,,,,,,,,,,,AMP,right,1.3506322143075522,,,right,0,1.3506322143075522,0,,,,,,,,,,,,,,,,,,,,,,1045,2019_Mar_13_0951,mf_amp_cond1,3.0.4,59.99547799324481,
interests,sgrawl,&&&&&&,left,fairness.virtue,,,,,,,0,291,291,291,,,,,,,,,,,,,,,,,,,,,AMP,left,0.6170695777400397,,,left,1,0.6170695777400397,1,,,,,,,,,,,,,,,,,,,,,,1045,2019_Mar_13_0951,mf_amp_cond1,3.0.4,59.99547799324481,
improve,forepo,&&&&&&,left,care.virtue,,,,,,,0,292,292,292,,,,,,,,,,,,,,,,,,,,,AMP,left,0.7004417465650477,,,left,1,0.7004417465650477,1,,,,,,,,,,,,,,,,,,,,,,1045,2019_Mar_13_0951,mf_amp_cond1,3.0.4,59.99547799324481,
ban,hefurbished,&&&&&&&&&&&,right,loyalty.vice,,,,,,,0,293,293,293,,,,,,,,,,,,,,,,,,,,,AMP,left,0.6004340810177382,,,left,0,0.6004340810177382,0,,,,,,,,,,,,,,,,,,,,,,1045,2019_Mar_13_0951,mf_amp_cond1,3.0.4,59.99547799324481,
terrorists,gondensed,&&&&&&&&&,right,fairness.vice,,,,,,,0,294,294,294,,,,,,,,,,,,,,,,,,,,,AMP,left,0.46702937374357134,,,left,0,0.46702937374357134,0,,,,,,,,,,,,,,,,,,,,,,1045,2019_Mar_13_0951,mf_amp_cond1,3.0.4,59.99547799324481,
trust,greaks,&&&&&&,left,authority.virtue,,,,,,,0,295,295,295,,,,,,,,,,,,,,,,,,,,,AMP,right,0.7838039726775605,,,right,0,0.7838039726775605,0,,,,,,,,,,,,,,,,,,,,,,1045,2019_Mar_13_0951,mf_amp_cond1,3.0.4,59.99547799324481,
serial,spag,&&&&,right,sanctity.vice,,,,,,,0,296,296,296,,,,,,,,,,,,,,,,,,,,,AMP,left,0.4503720671928022,,,left,0,0.4503720671928022,0,,,,,,,,,,,,,,,,,,,,,,1045,2019_Mar_13_0951,mf_amp_cond1,3.0.4,59.99547799324481,
victim,disregord,&&&&&&&&&,right,care.vice,,,,,,,0,297,297,297,,,,,,,,,,,,,,,,,,,,,AMP,left,0.7170993738982361,,,left,0,0.7170993738982361,0,,,,,,,,,,,,,,,,,,,,,,1045,2019_Mar_13_0951,mf_amp_cond1,3.0.4,59.99547799324481,
hate,nuckheap,&&&&&&&&,right,fairness.vice,,,,,,,0,298,298,298,,,,,,,,,,,,,,,,,,,,,AMP,left,0.5337301237159409,,,left,0,0.5337301237159409,0,,,,,,,,,,,,,,,,,,,,,,1045,2019_Mar_13_0951,mf_amp_cond1,3.0.4,59.99547799324481,
restore,tomedians,&&&&&&&&&,left,care.virtue,,,,,,,0,299,299,299,,,,,,,,,,,,,,,,,,,,,AMP,left,0.5503861473989673,,,left,1,0.5503861473989673,1,,,,,,,,,,,,,,,,,,,,,,1045,2019_Mar_13_0951,mf_amp_cond1,3.0.4,59.99547799324481,
hope,pistraught,&&&&&&&&&&,left,loyalty.virtue,,,,,,,0,300,300,300,,,,,,,,,,,,,,,,,,,,,AMP,left,0.5003901726158801,,,left,1,0.5003901726158801,1,,,,,,,,,,,,,,,,,,,,,,1045,2019_Mar_13_0951,mf_amp_cond1,3.0.4,59.99547799324481,
rorroborated,fonderland,&&&&&&&&&&,None,nonword,,,,,,,0,301,301,301,,,,,,,,,,,,,,,,,,,,,AMP,left,1.267295967641985,,,left,0,1.267295967641985,0,,,,,,,,,,,,,,,,,,,,,,1045,2019_Mar_13_0951,mf_amp_cond1,3.0.4,59.99547799324481,
loyalty,chared,&&&&&&,left,loyalty.virtue,,,,,,,0,302,302,302,,,,,,,,,,,,,,,,,,,,,AMP,right,0.1502740188734606,,,right,0,0.1502740188734606,0,,,,,,,,,,,,,,,,,,,,,,1045,2019_Mar_13_0951,mf_amp_cond1,3.0.4,59.99547799324481,
racist,dormandi,&&&&&&&&,right,sanctity.vice,,,,,,,0,303,303,303,,,,,,,,,,,,,,,,,,,,,AMP,left,0.2503060601884499,,,left,0,0.2503060601884499,0,,,,,,,,,,,,,,,,,,,,,,1045,2019_Mar_13_0951,mf_amp_cond1,3.0.4,59.99547799324481,
seachwear,crilfully,&&&&&&&&&,None,nonword,,,,,,,0,304,304,304,,,,,,,,,,,,,,,,,,,,,AMP,left,0.5002500119444449,,,left,0,0.5002500119444449,0,,,,,,,,,,,,,,,,,,,,,,1045,2019_Mar_13_0951,mf_amp_cond1,3.0.4,59.99547799324481,
juck,sidearbs,&&&&&&&&,None,nonword,,,,,,,0,305,305,305,,,,,,,,,,,,,,,,,,,,,AMP,left,0.9004952449759003,,,left,0,0.9004952449759003,0,,,,,,,,,,,,,,,,,,,,,,1045,2019_Mar_13_0951,mf_amp_cond1,3.0.4,59.99547799324481,
help,crinking,&&&&&&&&,left,care.virtue,,,,,,,0,306,306,306,,,,,,,,,,,,,,,,,,,,,AMP,left,1.7674253837030847,,,left,1,1.7674253837030847,1,,,,,,,,,,,,,,,,,,,,,,1045,2019_Mar_13_0951,mf_amp_cond1,3.0.4,59.99547799324481,
gun,sliptery,&&&&&&&&,right,authority.vice,,,,,,,0,307,307,307,,,,,,,,,,,,,,,,,,,,,AMP,left,0.3503352148400154,,,left,0,0.3503352148400154,0,,,,,,,,,,,,,,,,,,,,,,1045,2019_Mar_13_0951,mf_amp_cond1,3.0.4,59.99547799324481,
men,letish,&&&&&&,right,loyalty.vice,,,,,,,0,308,308,308,,,,,,,,,,,,,,,,,,,,,AMP,left,0.1502948665583972,,,left,0,0.1502948665583972,0,,,,,,,,,,,,,,,,,,,,,,1045,2019_Mar_13_0951,mf_amp_cond1,3.0.4,59.99547799324481,
clean,gillipede,&&&&&&&&&,left,sanctity.virtue,,,,,,,0,309,309,309,,,,,,,,,,,,,,,,,,,,,AMP,left,0.5670553211239167,,,left,1,0.5670553211239167,1,,,,,,,,,,,,,,,,,,,,,,1045,2019_Mar_13_0951,mf_amp_cond1,3.0.4,59.99547799324481,
elduringly,gikely,&&&&&&,None,nonword,,,,,,,0,310,310,310,,,,,,,,,,,,,,,,,,,,,AMP,left,0.9338432144431863,,,left,0,0.9338432144431863,0,,,,,,,,,,,,,,,,,,,,,,1045,2019_Mar_13_0951,mf_amp_cond1,3.0.4,59.99547799324481,
praised,taxpayung,&&&&&&&&&,left,loyalty.virtue,,,,,,,0,311,311,311,,,,,,,,,,,,,,,,,,,,,AMP,right,0.6837696862348821,,,right,0,0.6837696862348821,0,,,,,,,,,,,,,,,,,,,,,,1045,2019_Mar_13_0951,mf_amp_cond1,3.0.4,59.99547799324481,
promised,frocessing,&&&&&&&&&&,left,loyalty.virtue,,,,,,,0,312,312,312,,,,,,,,,,,,,,,,,,,,,AMP,right,0.3836918441520538,,,right,0,0.3836918441520538,0,,,,,,,,,,,,,,,,,,,,,,1045,2019_Mar_13_0951,mf_amp_cond1,3.0.4,59.99547799324481,
emports,lenon,&&&&&,None,nonword,,,,,,,0,313,313,313,,,,,,,,,,,,,,,,,,,,,AMP,left,0.38368735389667563,,,left,0,0.38368735389667563,0,,,,,,,,,,,,,,,,,,,,,,1045,2019_Mar_13_0951,mf_amp_cond1,3.0.4,59.99547799324481,
riot,photocalkodes,&&&&&&&&&&&&&,right,authority.vice,,,,,,,0,314,314,314,,,,,,,,,,,,,,,,,,,,,AMP,left,0.6171013303683139,,,left,0,0.6171013303683139,0,,,,,,,,,,,,,,,,,,,,,,1045,2019_Mar_13_0951,mf_amp_cond1,3.0.4,59.99547799324481,
health,erdest,&&&&&&,left,care.virtue,,,,,,,0,315,315,315,,,,,,,,,,,,,,,,,,,,,AMP,left,0.5670700748742092,,,left,1,0.5670700748742092,1,,,,,,,,,,,,,,,,,,,,,,1045,2019_Mar_13_0951,mf_amp_cond1,3.0.4,59.99547799324481,
promote,imebreaker,&&&&&&&&&&,left,sanctity.virtue,,,,,,,0,316,316,316,,,,,,,,,,,,,,,,,,,,,AMP,left,0.7838293106178753,,,left,1,0.7838293106178753,1,,,,,,,,,,,,,,,,,,,,,,1045,2019_Mar_13_0951,mf_amp_cond1,3.0.4,59.99547799324481,
police,brudent,&&&&&&&,right,authority.vice,,,,,,,0,317,317,317,,,,,,,,,,,,,,,,,,,,,AMP,right,0.5504060328821652,,,right,1,0.5504060328821652,1,,,,,,,,,,,,,,,,,,,,,,1045,2019_Mar_13_0951,mf_amp_cond1,3.0.4,59.99547799324481,
smapper,chreams,&&&&&&&,None,nonword,,,,,,,0,318,318,318,,,,,,,,,,,,,,,,,,,,,AMP,right,0.46705535319051705,,,right,0,0.46705535319051705,0,,,,,,,,,,,,,,,,,,,,,,1045,2019_Mar_13_0951,mf_amp_cond1,3.0.4,59.99547799324481,
unpleasant,tove,&&&&,None,control,,,,,,,0,319,319,319,,,,,,,,,,,,,,,,,,,,,AMP,right,0.7171009775483981,,,right,0,0.7171009775483981,0,,,,,,,,,,,,,,,,,,,,,,1045,2019_Mar_13_0951,mf_amp_cond1,3.0.4,59.99547799324481,
fear,chressing,&&&&&&&&&,right,sanctity.vice,,,,,,,0,320,320,320,,,,,,,,,,,,,,,,,,,,,AMP,left,0.3003402022877708,,,left,0,0.3003402022877708,0,,,,,,,,,,,,,,,,,,,,,,1045,2019_Mar_13_0951,mf_amp_cond1,3.0.4,59.99547799324481,
progress,tracious,&&&&&&&&,left,authority.virtue,,,,,,,0,321,321,321,,,,,,,,,,,,,,,,,,,,,AMP,left,0.6170872180955485,,,left,1,0.6170872180955485,1,,,,,,,,,,,,,,,,,,,,,,1045,2019_Mar_13_0951,mf_amp_cond1,3.0.4,59.99547799324481,
attacks,quarterbocks,&&&&&&&&&&&&,right,care.vice,,,,,,,0,322,322,322,,,,,,,,,,,,,,,,,,,,,AMP,left,0.4336842908523977,,,left,0,0.4336842908523977,0,,,,,,,,,,,,,,,,,,,,,,1045,2019_Mar_13_0951,mf_amp_cond1,3.0.4,59.99547799324481,
sexual,bluently,&&&&&&&&,right,sanctity.vice,,,,,,,0,323,323,323,,,,,,,,,,,,,,,,,,,,,AMP,right,0.3003158265200909,,,right,1,0.3003158265200909,1,,,,,,,,,,,,,,,,,,,,,,1045,2019_Mar_13_0951,mf_amp_cond1,3.0.4,59.99547799324481,
lies,ronviolence,&&&&&&&&&&&,right,fairness.vice,,,,,,,0,324,324,324,,,,,,,,,,,,,,,,,,,,,AMP,left,0.48372933792416006,,,left,0,0.48372933792416006,0,,,,,,,,,,,,,,,,,,,,,,1045,2019_Mar_13_0951,mf_amp_cond1,3.0.4,59.99547799324481,
respect,reelectiob,&&&&&&&&&&,left,sanctity.virtue,,,,,,,0,325,325,325,,,,,,,,,,,,,,,,,,,,,AMP,right,0.6836362610047217,,,right,0,0.6836362610047217,0,,,,,,,,,,,,,,,,,,,,,,1045,2019_Mar_13_0951,mf_amp_cond1,3.0.4,59.99547799324481,
fraud,perified,&&&&&&&&,right,fairness.vice,,,,,,,0,326,326,326,,,,,,,,,,,,,,,,,,,,,AMP,right,0.4003475470817648,,,right,1,0.4003475470817648,1,,,,,,,,,,,,,,,,,,,,,,1045,2019_Mar_13_0951,mf_amp_cond1,3.0.4,59.99547799324481,
dignity,gationwide,&&&&&&&&&&,left,sanctity.virtue,,,,,,,0,327,327,327,,,,,,,,,,,,,,,,,,,,,AMP,right,0.6004058564722072,,,right,0,0.6004058564722072,0,,,,,,,,,,,,,,,,,,,,,,1045,2019_Mar_13_0951,mf_amp_cond1,3.0.4,59.99547799324481,
,,,,,,,,,,,,,,,,,,,,,,,,,,,,,,,,,,,,,,,,,,,,6,11.639,,,,,,,,,,,,,,,,,,,,1045,2019_Mar_13_0951,mf_amp_cond1,3.0.4,59.99547799324481,
,,,,,,,,,,,,,,,,,,,,,,,,,,,,,,,,,,,,,,,,,,,,,,5,8.604,,,,,,,,,,,,,,,,,,1045,2019_Mar_13_0951,mf_amp_cond1,3.0.4,59.99547799324481,
,,,,,,,,,,,,,,,,,,,,,,,,,,,,,,,,,,,,,,,,,,,,,,,,6,3.736,,,,,,,,,,,,,,,,1045,2019_Mar_13_0951,mf_amp_cond1,3.0.4,59.99547799324481,
,,,,,,,,,,,,,,,,,,,,,,,,,,,,,,,,,,,,,,,,,,,,,,,,,,right,0.4170760565320961,,,,,,,,,,,,,,1045,2019_Mar_13_0951,mf_amp_cond1,3.0.4,59.99547799324481,
keyboard,,&&&&&&&,,,,,,,,,,,,,0,0,0,0,,,,,,,,,,,,,,,,,LDT_prac,right,1.450666180026019,,,,,,0,,,,,,,,,right,1.450666180026019,,,,,,,,,,,,1045,2019_Mar_13_0951,mf_amp_cond1,3.0.4,59.99547799324481,
bisebell,,&&&&&&&,,,,,,,,,,,,,0,1,1,1,,,,,,,,,,,,,,,,,LDT_prac,left,0.8171243590477388,,,,,,0,,,,,,,,,left,0.8171243590477388,,,,,,,,,,,,1045,2019_Mar_13_0951,mf_amp_cond1,3.0.4,59.99547799324481,
,,,,,,,,,,,,,,,,,,,,,,,,,,,,,,,,,,,,,,,,,,,,,,,,,,,,,,right,1.7174297296442091,,,,,,,,,,1045,2019_Mar_13_0951,mf_amp_cond1,3.0.4,59.99547799324481,
ilportation,,&&&&&&&&&&&,right,nonword,,,,,,,,,,,,,,,0,0,0,68,,,,,,,,,,,,,LDT,left,0.5837414937268477,,,,,,0,,,,,,,,,,,,,left,0,0.5837414937268477,,,,,,,1045,2019_Mar_13_0951,mf_amp_cond1,3.0.4,59.99547799324481,
amoungst,,&&&&&&&&,left,neutral,,,,,,,,,,,,,,,0,1,1,158,,,,,,,,,,,,,LDT,left,0.8171612434380222,,,,,,1,,,,,,,,,,,,,left,1,0.8171612434380222,,,,,,,1045,2019_Mar_13_0951,mf_amp_cond1,3.0.4,59.99547799324481,
violations,,&&&&&&&&&&,left,sanctity.vice,,,,,,,,,,,,,,,0,2,2,61,,,,,,,,,,,,,LDT,right,0.6170929913059808,,,,,,0,,,,,,,,,,,,,right,0,0.6170929913059808,,,,,,,1045,2019_Mar_13_0951,mf_amp_cond1,3.0.4,59.99547799324481,
baklara,,&&&&&&&,right,nonword,,,,,,,,,,,,,,,0,3,3,187,,,,,,,,,,,,,LDT,left,0.5337301237450447,,,,,,0,,,,,,,,,,,,,left,0,0.5337301237450447,,,,,,,1045,2019_Mar_13_0951,mf_amp_cond1,3.0.4,59.99547799324481,
refuejing,,&&&&&&&&&,right,nonword,,,,,,,,,,,,,,,0,4,4,76,,,,,,,,,,,,,LDT,left,0.9838815260736737,,,,,,0,,,,,,,,,,,,,left,0,0.9838815260736737,,,,,,,1045,2019_Mar_13_0951,mf_amp_cond1,3.0.4,59.99547799324481,
shoirmaster,,&&&&&&&&&&&,None,nonword,,,,,,,,,,,,,,,0,5,5,37,,,,,,,,,,,,,LDT,left,0.6004453067143913,,,,,,0,,,,,,,,,,,,,left,0,0.6004453067143913,,,,,,,1045,2019_Mar_13_0951,mf_amp_cond1,3.0.4,59.99547799324481,
neutralust,,&&&&&&&&&&,right,nonword,,,,,,,,,,,,,,,0,6,6,101,,,,,,,,,,,,,LDT,left,1.18379101503524,,,,,,0,,,,,,,,,,,,,left,0,1.18379101503524,,,,,,,1045,2019_Mar_13_0951,mf_amp_cond1,3.0.4,59.99547799324481,
harassment,,&&&&&&&&&&,left,sanctity.vice,,,,,,,,,,,,,,,0,7,7,116,,,,,,,,,,,,,LDT,right,0.5837126277037896,,,,,,0,,,,,,,,,,,,,right,0,0.5837126277037896,,,,,,,1045,2019_Mar_13_0951,mf_amp_cond1,3.0.4,59.99547799324481,
nomaric,,&&&&&&&,None,nonword,,,,,,,,,,,,,,,0,8,8,23,,,,,,,,,,,,,LDT,left,0.48370688655995764,,,,,,0,,,,,,,,,,,,,left,0,0.48370688655995764,,,,,,,1045,2019_Mar_13_0951,mf_amp_cond1,3.0.4,59.99547799324481,
bycled,,&&&&&&,None,nonword,,,,,,,,,,,,,,,0,9,9,15,,,,,,,,,,,,,LDT,left,0.7337932441441808,,,,,,0,,,,,,,,,,,,,left,0,0.7337932441441808,,,,,,,1045,2019_Mar_13_0951,mf_amp_cond1,3.0.4,59.99547799324481,
growth,,&&&&&&,left,care.virtue,,,,,,,,,,,,,,,0,10,10,2,,,,,,,,,,,,,LDT,right,1.0172051198023837,,,,,,0,,,,,,,,,,,,,right,0,1.0172051198023837,,,,,,,1045,2019_Mar_13_0951,mf_amp_cond1,3.0.4,59.99547799324481,
esquisiteness,,&&&&&&&&&&&&&,right,nonword,,,,,,,,,,,,,,,0,11,11,149,,,,,,,,,,,,,LDT,left,0.6337618443067186,,,,,,0,,,,,,,,,,,,,left,0,0.6337618443067186,,,,,,,1045,2019_Mar_13_0951,mf_amp_cond1,3.0.4,59.99547799324481,
each,,&&&&,left,neutral,,,,,,,,,,,,,,,0,12,12,51,,,,,,,,,,,,,LDT,right,0.7004481612530071,,,,,,0,,,,,,,,,,,,,right,0,0.7004481612530071,,,,,,,1045,2019_Mar_13_0951,mf_amp_cond1,3.0.4,59.99547799324481,
troubla,,&&&&&&&,right,nonword,,,,,,,,,,,,,,,0,13,13,112,,,,,,,,,,,,,LDT,left,0.6337685797188897,,,,,,0,,,,,,,,,,,,,left,0,0.6337685797188897,,,,,,,1045,2019_Mar_13_0951,mf_amp_cond1,3.0.4,59.99547799324481,
grovelire,,&&&&&&&&&,right,nonword,,,,,,,,,,,,,,,0,14,14,50,,,,,,,,,,,,,LDT,right,0.5504214281099848,,,,,,1,,,,,,,,,,,,,right,1,0.5504214281099848,,,,,,,1045,2019_Mar_13_0951,mf_amp_cond1,3.0.4,59.99547799324481,
erks,,&&&&,right,nonword,,,,,,,,,,,,,,,0,15,15,65,,,,,,,,,,,,,LDT,left,0.5837501535424963,,,,,,0,,,,,,,,,,,,,left,0,0.5837501535424963,,,,,,,1045,2019_Mar_13_0951,mf_amp_cond1,3.0.4,59.99547799324481,
give,,&&&&,left,neutral,,,,,,,,,,,,,,,0,16,16,199,,,,,,,,,,,,,LDT,right,0.6004125918843783,,,,,,0,,,,,,,,,,,,,right,0,0.6004125918843783,,,,,,,1045,2019_Mar_13_0951,mf_amp_cond1,3.0.4,59.99547799324481,
pharing,,&&&&&&&,right,nonword,,,,,,,,,,,,,,,0,17,17,117,,,,,,,,,,,,,LDT,left,0.6170852936629672,,,,,,0,,,,,,,,,,,,,left,0,0.6170852936629672,,,,,,,1045,2019_Mar_13_0951,mf_amp_cond1,3.0.4,59.99547799324481,
lachelor,,&&&&&&&&,right,nonword,,,,,,,,,,,,,,,0,18,18,157,,,,,,,,,,,,,LDT,right,0.9338534779089969,,,,,,1,,,,,,,,,,,,,right,1,0.9338534779089969,,,,,,,1045,2019_Mar_13_0951,mf_amp_cond1,3.0.4,59.99547799324481,
antral,,&&&&&&,right,nonword,,,,,,,,,,,,,,,0,19,19,59,,,,,,,,,,,,,LDT,left,1.350523164815968,,,,,,0,,,,,,,,,,,,,left,0,1.350523164815968,,,,,,,1045,2019_Mar_13_0951,mf_amp_cond1,3.0.4,59.99547799324481,
ebbitter,,&&&&&&&&,right,nonword,,,,,,,,,,,,,,,0,20,20,85,,,,,,,,,,,,,LDT,left,0.9338403278379701,,,,,,0,,,,,,,,,,,,,left,0,0.9338403278379701,,,,,,,1045,2019_Mar_13_0951,mf_amp_cond1,3.0.4,59.99547799324481,
care,,&&&&,left,care.virtue,,,,,,,,,,,,,,,0,21,21,166,,,,,,,,,,,,,LDT,right,0.617108065780485,,,,,,0,,,,,,,,,,,,,right,0,0.617108065780485,,,,,,,1045,2019_Mar_13_0951,mf_amp_cond1,3.0.4,59.99547799324481,
gaultless,,&&&&&&&&&,right,nonword,,,,,,,,,,,,,,,0,22,22,163,,,,,,,,,,,,,LDT,right,0.7671370440511964,,,,,,1,,,,,,,,,,,,,right,1,0.7671370440511964,,,,,,,1045,2019_Mar_13_0951,mf_amp_cond1,3.0.4,59.99547799324481,
betrayal,,&&&&&&&&,left,loyalty.vice,,,,,,,,,,,,,,,0,23,23,81,,,,,,,,,,,,,LDT,right,0.6504060008155648,,,,,,0,,,,,,,,,,,,,right,0,0.6504060008155648,,,,,,,1045,2019_Mar_13_0951,mf_amp_cond1,3.0.4,59.99547799324481,
counpy's,,&&&&&&&&,right,nonword,,,,,,,,,,,,,,,0,24,24,22,,,,,,,,,,,,,LDT,left,0.6671351517434232,,,,,,0,,,,,,,,,,,,,left,0,0.6671351517434232,,,,,,,1045,2019_Mar_13_0951,mf_amp_cond1,3.0.4,59.99547799324481,
conspiracy,,&&&&&&&&&&,left,sanctity.vice,,,,,,,,,,,,,,,0,25,25,140,,,,,,,,,,,,,LDT,right,0.633754788141232,,,,,,0,,,,,,,,,,,,,right,0,0.633754788141232,,,,,,,1045,2019_Mar_13_0951,mf_amp_cond1,3.0.4,59.99547799324481,
troops,,&&&&&&,left,loyalty.vice,,,,,,,,,,,,,,,0,26,26,104,,,,,,,,,,,,,LDT,left,0.8671597841021139,,,,,,1,,,,,,,,,,,,,left,1,0.8671597841021139,,,,,,,1045,2019_Mar_13_0951,mf_amp_cond1,3.0.4,59.99547799324481,
suicide,,&&&&&&&,left,care.vice,,,,,,,,,,,,,,,0,27,27,103,,,,,,,,,,,,,LDT,right,0.7171093166689388,,,,,,0,,,,,,,,,,,,,right,0,0.7171093166689388,,,,,,,1045,2019_Mar_13_0951,mf_amp_cond1,3.0.4,59.99547799324481,
with,,&&&&,left,neutral,,,,,,,,,,,,,,,0,28,28,197,,,,,,,,,,,,,LDT,right,0.7504624178691301,,,,,,0,,,,,,,,,,,,,right,0,0.7504624178691301,,,,,,,1045,2019_Mar_13_0951,mf_amp_cond1,3.0.4,59.99547799324481,
anyhow,,&&&&&&,left,neutral,,,,,,,,,,,,,,,0,29,29,80,,,,,,,,,,,,,LDT,right,0.7337736793560907,,,,,,0,,,,,,,,,,,,,right,0,0.7337736793560907,,,,,,,1045,2019_Mar_13_0951,mf_amp_cond1,3.0.4,59.99547799324481,
front,,&&&&&,left,neutral,,,,,,,,,,,,,,,0,30,30,26,,,,,,,,,,,,,LDT,right,1.0005343423981685,,,,,,0,,,,,,,,,,,,,right,0,1.0005343423981685,,,,,,,1045,2019_Mar_13_0951,mf_amp_cond1,3.0.4,59.99547799324481,
besides,,&&&&&&&,left,neutral,,,,,,,,,,,,,,,0,31,31,164,,,,,,,,,,,,,LDT,right,0.5837398900766857,,,,,,0,,,,,,,,,,,,,right,0,0.5837398900766857,,,,,,,1045,2019_Mar_13_0951,mf_amp_cond1,3.0.4,59.99547799324481,
strength,,&&&&&&&&,left,sanctity.virtue,,,,,,,,,,,,,,,0,32,32,98,,,,,,,,,,,,,LDT,right,0.45025820669252425,,,,,,0,,,,,,,,,,,,,right,0,0.45025820669252425,,,,,,,1045,2019_Mar_13_0951,mf_amp_cond1,3.0.4,59.99547799324481,
also,,&&&&,left,neutral,,,,,,,,,,,,,,,0,33,33,18,,,,,,,,,,,,,LDT,right,0.43379077449208125,,,,,,0,,,,,,,,,,,,,right,0,0.43379077449208125,,,,,,,1045,2019_Mar_13_0951,mf_amp_cond1,3.0.4,59.99547799324481,
mih,,&&&,right,nonword,,,,,,,,,,,,,,,0,34,34,139,,,,,,,,,,,,,LDT,left,0.6337852578726597,,,,,,0,,,,,,,,,,,,,left,0,0.6337852578726597,,,,,,,1045,2019_Mar_13_0951,mf_amp_cond1,3.0.4,59.99547799324481,
celebrated,,&&&&&&&&&&,left,authority.virtue,,,,,,,,,,,,,,,0,35,35,31,,,,,,,,,,,,,LDT,left,0.8171426408516709,,,,,,1,,,,,,,,,,,,,left,1,0.8171426408516709,,,,,,,1045,2019_Mar_13_0951,mf_amp_cond1,3.0.4,59.99547799324481,
gowlands,,&&&&&&&&,right,nonword,,,,,,,,,,,,,,,0,36,36,73,,,,,,,,,,,,,LDT,left,0.6004286285606213,,,,,,0,,,,,,,,,,,,,left,0,0.6004286285606213,,,,,,,1045,2019_Mar_13_0951,mf_amp_cond1,3.0.4,59.99547799324481,
rejected,,&&&&&&&&,left,authority.vice,,,,,,,,,,,,,,,0,37,37,179,,,,,,,,,,,,,LDT,right,0.5837552852754015,,,,,,0,,,,,,,,,,,,,right,0,0.5837552852754015,,,,,,,1045,2019_Mar_13_0951,mf_amp_cond1,3.0.4,59.99547799324481,
could,,&&&&&,left,neutral,,,,,,,,,,,,,,,0,38,38,118,,,,,,,,,,,,,LDT,right,0.883834410313284,,,,,,0,,,,,,,,,,,,,right,0,0.883834410313284,,,,,,,1045,2019_Mar_13_0951,mf_amp_cond1,3.0.4,59.99547799324481,
synchronazers,,&&&&&&&&&&&&&,right,nonword,,,,,,,,,,,,,,,0,39,39,145,,,,,,,,,,,,,LDT,left,0.5337298029917292,,,,,,0,,,,,,,,,,,,,left,0,0.5337298029917292,,,,,,,1045,2019_Mar_13_0951,mf_amp_cond1,3.0.4,59.99547799324481,
viscs,,&&&&&,None,nonword,,,,,,,,,,,,,,,0,40,40,29,,,,,,,,,,,,,LDT,left,0.6337538259685971,,,,,,0,,,,,,,,,,,,,left,0,0.6337538259685971,,,,,,,1045,2019_Mar_13_0951,mf_amp_cond1,3.0.4,59.99547799324481,
gazily,,&&&&&&,right,nonword,,,,,,,,,,,,,,,0,41,41,122,,,,,,,,,,,,,LDT,left,1.1672462860005908,,,,,,0,,,,,,,,,,,,,left,0,1.1672462860005908,,,,,,,1045,2019_Mar_13_0951,mf_amp_cond1,3.0.4,59.99547799324481,
death,,&&&&&,left,care.vice,,,,,,,,,,,,,,,0,42,42,5,,,,,,,,,,,,,LDT,right,1.200591048138449,,,,,,0,,,,,,,,,,,,,right,0,1.200591048138449,,,,,,,1045,2019_Mar_13_0951,mf_amp_cond1,3.0.4,59.99547799324481,
sickyay,,&&&&&&&,right,nonword,,,,,,,,,,,,,,,0,43,43,100,,,,,,,,,,,,,LDT,left,1.317282961885212,,,,,,0,,,,,,,,,,,,,left,0,1.317282961885212,,,,,,,1045,2019_Mar_13_0951,mf_amp_cond1,3.0.4,59.99547799324481,
leact,,&&&&&,right,nonword,,,,,,,,,,,,,,,0,44,44,147,,,,,,,,,,,,,LDT,left,0.6671043613168877,,,,,,0,,,,,,,,,,,,,left,0,0.6671043613168877,,,,,,,1045,2019_Mar_13_0951,mf_amp_cond1,3.0.4,59.99547799324481,
myself,,&&&&&&,left,neutral,,,,,,,,,,,,,,,0,45,45,137,,,,,,,,,,,,,LDT,right,0.45037848185165785,,,,,,0,,,,,,,,,,,,,right,0,0.45037848185165785,,,,,,,1045,2019_Mar_13_0951,mf_amp_cond1,3.0.4,59.99547799324481,
atson,,&&&&&,right,nonword,,,,,,,,,,,,,,,0,46,46,70,,,,,,,,,,,,,LDT,left,0.7338169784343336,,,,,,0,,,,,,,,,,,,,left,0,0.7338169784343336,,,,,,,1045,2019_Mar_13_0951,mf_amp_cond1,3.0.4,59.99547799324481,
framo,,&&&&&,right,nonword,,,,,,,,,,,,,,,0,47,47,43,,,,,,,,,,,,,LDT,right,0.3670245948305819,,,,,,1,,,,,,,,,,,,,right,1,0.3670245948305819,,,,,,,1045,2019_Mar_13_0951,mf_amp_cond1,3.0.4,59.99547799324481,
allears,,&&&&&&&,right,nonword,,,,,,,,,,,,,,,0,48,48,4,,,,,,,,,,,,,LDT,left,0.6504364705178887,,,,,,0,,,,,,,,,,,,,left,0,0.6504364705178887,,,,,,,1045,2019_Mar_13_0951,mf_amp_cond1,3.0.4,59.99547799324481,
simplustic,,&&&&&&&&&&,right,nonword,,,,,,,,,,,,,,,0,49,49,167,,,,,,,,,,,,,LDT,right,0.6504258862987626,,,,,,1,,,,,,,,,,,,,right,1,0.6504258862987626,,,,,,,1045,2019_Mar_13_0951,mf_amp_cond1,3.0.4,59.99547799324481,
refused,,&&&&&&&,left,authority.vice,,,,,,,,,,,,,,,0,50,50,162,,,,,,,,,,,,,LDT,left,1.117087699181866,,,,,,1,,,,,,,,,,,,,left,1,1.117087699181866,,,,,,,1045,2019_Mar_13_0951,mf_amp_cond1,3.0.4,59.99547799324481,
powerful,,&&&&&&&&,left,authority.virtue,,,,,,,,,,,,,,,0,51,51,174,,,,,,,,,,,,,LDT,right,0.5337423116143327,,,,,,0,,,,,,,,,,,,,right,0,0.5337423116143327,,,,,,,1045,2019_Mar_13_0951,mf_amp_cond1,3.0.4,59.99547799324481,
nackers,,&&&&&&&,right,nonword,,,,,,,,,,,,,,,0,52,52,196,,,,,,,,,,,,,LDT,left,0.6337894274038263,,,,,,0,,,,,,,,,,,,,left,0,0.6337894274038263,,,,,,,1045,2019_Mar_13_0951,mf_amp_cond1,3.0.4,59.99547799324481,
although,,&&&&&&&&,left,neutral,,,,,,,,,,,,,,,0,53,53,91,,,,,,,,,,,,,LDT,right,0.7171109203191008,,,,,,0,,,,,,,,,,,,,right,0,0.7171109203191008,,,,,,,1045,2019_Mar_13_0951,mf_amp_cond1,3.0.4,59.99547799324481,
neputized,,&&&&&&&&&,right,nonword,,,,,,,,,,,,,,,0,54,54,132,,,,,,,,,,,,,LDT,left,0.9838776772958227,,,,,,0,,,,,,,,,,,,,left,0,0.9838776772958227,,,,,,,1045,2019_Mar_13_0951,mf_amp_cond1,3.0.4,59.99547799324481,
faith,,&&&&&,left,sanctity.virtue,,,,,,,,,,,,,,,0,55,55,123,,,,,,,,,,,,,LDT,right,0.5504037877544761,,,,,,0,,,,,,,,,,,,,right,0,0.5504037877544761,,,,,,,1045,2019_Mar_13_0951,mf_amp_cond1,3.0.4,59.99547799324481,
groups,,&&&&&&,left,loyalty.vice,,,,,,,,,,,,,,,0,56,56,82,,,,,,,,,,,,,LDT,right,0.53373236884363,,,,,,0,,,,,,,,,,,,,right,0,0.53373236884363,,,,,,,1045,2019_Mar_13_0951,mf_amp_cond1,3.0.4,59.99547799324481,
honstables,,&&&&&&&&&&,right,nonword,,,,,,,,,,,,,,,0,57,57,135,,,,,,,,,,,,,LDT,left,0.6170881802972872,,,,,,0,,,,,,,,,,,,,left,0,0.6170881802972872,,,,,,,1045,2019_Mar_13_0951,mf_amp_cond1,3.0.4,59.99547799324481,
eight,,&&&&&,left,neutral,,,,,,,,,,,,,,,0,58,58,184,,,,,,,,,,,,,LDT,right,0.4003712813719176,,,,,,0,,,,,,,,,,,,,right,0,0.4003712813719176,,,,,,,1045,2019_Mar_13_0951,mf_amp_cond1,3.0.4,59.99547799324481,
slavery,,&&&&&&&,left,loyalty.vice,,,,,,,,,,,,,,,0,59,59,154,,,,,,,,,,,,,LDT,right,0.7004362941079307,,,,,,0,,,,,,,,,,,,,right,0,0.7004362941079307,,,,,,,1045,2019_Mar_13_0951,mf_amp_cond1,3.0.4,59.99547799324481,
sharing,,&&&&&&&,left,loyalty.virtue,,,,,,,,,,,,,,,0,60,60,94,,,,,,,,,,,,,LDT,right,0.667121680919081,,,,,,0,,,,,,,,,,,,,right,0,0.667121680919081,,,,,,,1045,2019_Mar_13_0951,mf_amp_cond1,3.0.4,59.99547799324481,
protesters,,&&&&&&&&&&,left,authority.vice,,,,,,,,,,,,,,,0,61,61,173,,,,,,,,,,,,,LDT,left,0.6671069271978922,,,,,,1,,,,,,,,,,,,,left,1,0.6671069271978922,,,,,,,1045,2019_Mar_13_0951,mf_amp_cond1,3.0.4,59.99547799324481,
love,,&&&&,left,loyalty.virtue,,,,,,,,,,,,,,,0,62,62,11,,,,,,,,,,,,,LDT,right,0.650439357094001,,,,,,0,,,,,,,,,,,,,right,0,0.650439357094001,,,,,,,1045,2019_Mar_13_0951,mf_amp_cond1,3.0.4,59.99547799324481,
voter,,&&&&&,left,fairness.vice,,,,,,,,,,,,,,,0,63,63,193,,,,,,,,,,,,,LDT,left,1.1339085799700115,,,,,,1,,,,,,,,,,,,,left,1,1.1339085799700115,,,,,,,1045,2019_Mar_13_0951,mf_amp_cond1,3.0.4,59.99547799324481,
embrace,,&&&&&&&,left,authority.virtue,,,,,,,,,,,,,,,0,64,64,38,,,,,,,,,,,,,LDT,right,0.6004087430774234,,,,,,0,,,,,,,,,,,,,right,0,0.6004087430774234,,,,,,,1045,2019_Mar_13_0951,mf_amp_cond1,3.0.4,59.99547799324481,
clamorek,,&&&&&&&&,right,nonword,,,,,,,,,,,,,,,0,65,65,181,,,,,,,,,,,,,LDT,left,0.6337640894344077,,,,,,0,,,,,,,,,,,,,left,0,0.6337640894344077,,,,,,,1045,2019_Mar_13_0951,mf_amp_cond1,3.0.4,59.99547799324481,
freedom,,&&&&&&&,left,sanctity.virtue,,,,,,,,,,,,,,,0,66,66,8,,,,,,,,,,,,,LDT,right,0.7337919611891266,,,,,,0,,,,,,,,,,,,,right,0,0.7337919611891266,,,,,,,1045,2019_Mar_13_0951,mf_amp_cond1,3.0.4,59.99547799324481,
Boeinf,,&&&&&&,right,nonword,,,,,,,,,,,,,,,0,67,67,63,,,,,,,,,,,,,LDT,left,0.667115586984437,,,,,,0,,,,,,,,,,,,,left,0,0.667115586984437,,,,,,,1045,2019_Mar_13_0951,mf_amp_cond1,3.0.4,59.99547799324481,
penalty,,&&&&&&&,left,authority.vice,,,,,,,,,,,,,,,0,68,68,56,,,,,,,,,,,,,LDT,right,0.8338230402732734,,,,,,0,,,,,,,,,,,,,right,0,0.8338230402732734,,,,,,,1045,2019_Mar_13_0951,mf_amp_cond1,3.0.4,59.99547799324481,
thadowed,,&&&&&&&&,right,nonword,,,,,,,,,,,,,,,0,69,69,124,,,,,,,,,,,,,LDT,left,0.9005055084417108,,,,,,0,,,,,,,,,,,,,left,0,0.9005055084417108,,,,,,,1045,2019_Mar_13_0951,mf_amp_cond1,3.0.4,59.99547799324481,
chonograph,,&&&&&&&&&&,right,nonword,,,,,,,,,,,,,,,0,70,70,113,,,,,,,,,,,,,LDT,left,1.0005250411049929,,,,,,0,,,,,,,,,,,,,left,0,1.0005250411049929,,,,,,,1045,2019_Mar_13_0951,mf_amp_cond1,3.0.4,59.99547799324481,
couldnt,,&&&&&&&,left,neutral,,,,,,,,,,,,,,,0,71,71,153,,,,,,,,,,,,,LDT,left,0.8171403957239818,,,,,,1,,,,,,,,,,,,,left,1,0.8171403957239818,,,,,,,1045,2019_Mar_13_0951,mf_amp_cond1,3.0.4,59.99547799324481,
fighters,,&&&&&&&&,left,authority.vice,,,,,,,,,,,,,,,0,72,72,129,,,,,,,,,,,,,LDT,right,0.6837793082522694,,,,,,0,,,,,,,,,,,,,right,0,0.6837793082522694,,,,,,,1045,2019_Mar_13_0951,mf_amp_cond1,3.0.4,59.99547799324481,
nomparisons,,&&&&&&&&&&&,right,nonword,,,,,,,,,,,,,,,0,73,73,121,,,,,,,,,,,,,LDT,right,0.7004718955431599,,,,,,1,,,,,,,,,,,,,right,1,0.7004718955431599,,,,,,,1045,2019_Mar_13_0951,mf_amp_cond1,3.0.4,59.99547799324481,
perfect,,&&&&&&&,left,sanctity.virtue,,,,,,,,,,,,,,,0,74,74,36,,,,,,,,,,,,,LDT,right,0.6337624857551418,,,,,,0,,,,,,,,,,,,,right,0,0.6337624857551418,,,,,,,1045,2019_Mar_13_0951,mf_amp_cond1,3.0.4,59.99547799324481,
there,,&&&&&,left,neutral,,,,,,,,,,,,,,,0,75,75,83,,,,,,,,,,,,,LDT,right,0.8838202980114147,,,,,,0,,,,,,,,,,,,,right,0,0.8838202980114147,,,,,,,1045,2019_Mar_13_0951,mf_amp_cond1,3.0.4,59.99547799324481,
slending,,&&&&&&&&,right,nonword,,,,,,,,,,,,,,,0,76,76,194,,,,,,,,,,,,,LDT,left,0.8004596755781677,,,,,,0,,,,,,,,,,,,,left,0,0.8004596755781677,,,,,,,1045,2019_Mar_13_0951,mf_amp_cond1,3.0.4,59.99547799324481,
festate,,&&&&&&&,right,nonword,,,,,,,,,,,,,,,0,77,77,77,,,,,,,,,,,,,LDT,right,0.7003779205551837,,,,,,1,,,,,,,,,,,,,right,1,0.7003779205551837,,,,,,,1045,2019_Mar_13_0951,mf_amp_cond1,3.0.4,59.99547799324481,
Oregoniuns,,&&&&&&&&&&,right,nonword,,,,,,,,,,,,,,,0,78,78,127,,,,,,,,,,,,,LDT,right,0.7338278833776712,,,,,,1,,,,,,,,,,,,,right,1,0.7338278833776712,,,,,,,1045,2019_Mar_13_0951,mf_amp_cond1,3.0.4,59.99547799324481,
mostly,,&&&&&&,left,neutral,,,,,,,,,,,,,,,0,79,79,88,,,,,,,,,,,,,LDT,right,0.8671629914315417,,,,,,0,,,,,,,,,,,,,right,0,0.8671629914315417,,,,,,,1045,2019_Mar_13_0951,mf_amp_cond1,3.0.4,59.99547799324481,
chadows,,&&&&&&&,right,nonword,,,,,,,,,,,,,,,0,80,80,192,,,,,,,,,,,,,LDT,right,0.6504528279183432,,,,,,1,,,,,,,,,,,,,right,1,0.6504528279183432,,,,,,,1045,2019_Mar_13_0951,mf_amp_cond1,3.0.4,59.99547799324481,
suggists,,&&&&&&&&,right,nonword,,,,,,,,,,,,,,,0,81,81,89,,,,,,,,,,,,,LDT,right,0.6837738557660487,,,,,,1,,,,,,,,,,,,,right,1,0.6837738557660487,,,,,,,1045,2019_Mar_13_0951,mf_amp_cond1,3.0.4,59.99547799324481,
ning,,&&&&,right,nonword,,,,,,,,,,,,,,,0,82,82,24,,,,,,,,,,,,,LDT,left,0.8171650922449771,,,,,,0,,,,,,,,,,,,,left,0,0.8171650922449771,,,,,,,1045,2019_Mar_13_0951,mf_amp_cond1,3.0.4,59.99547799324481,
victims,,&&&&&&&,left,care.vice,,,,,,,,,,,,,,,0,83,83,9,,,,,,,,,,,,,LDT,right,1.2339438286144286,,,,,,0,,,,,,,,,,,,,right,0,1.2339438286144286,,,,,,,1045,2019_Mar_13_0951,mf_amp_cond1,3.0.4,59.99547799324481,
about,,&&&&&,left,neutral,,,,,,,,,,,,,,,0,84,84,55,,,,,,,,,,,,,LDT,right,0.6836365817289334,,,,,,0,,,,,,,,,,,,,right,0,0.6836365817289334,,,,,,,1045,2019_Mar_13_0951,mf_amp_cond1,3.0.4,59.99547799324481,
fair,,&&&&,left,fairness.virtue,,,,,,,,,,,,,,,0,85,85,148,,,,,,,,,,,,,LDT,right,1.0172128174162935,,,,,,0,,,,,,,,,,,,,right,0,1.0172128174162935,,,,,,,1045,2019_Mar_13_0951,mf_amp_cond1,3.0.4,59.99547799324481,
become,,&&&&&&,left,neutral,,,,,,,,,,,,,,,0,86,86,106,,,,,,,,,,,,,LDT,left,0.9171778895251919,,,,,,1,,,,,,,,,,,,,left,1,0.9171778895251919,,,,,,,1045,2019_Mar_13_0951,mf_amp_cond1,3.0.4,59.99547799324481,
abointment,,&&&&&&&&&&,right,nonword,,,,,,,,,,,,,,,0,87,87,119,,,,,,,,,,,,,LDT,left,0.7671424965374172,,,,,,0,,,,,,,,,,,,,left,0,0.7671424965374172,,,,,,,1045,2019_Mar_13_0951,mf_amp_cond1,3.0.4,59.99547799324481,
else,,&&&&,left,neutral,,,,,,,,,,,,,,,0,88,88,99,,,,,,,,,,,,,LDT,right,0.6838193999719806,,,,,,0,,,,,,,,,,,,,right,0,0.6838193999719806,,,,,,,1045,2019_Mar_13_0951,mf_amp_cond1,3.0.4,59.99547799324481,
further,,&&&&&&&,left,neutral,,,,,,,,,,,,,,,0,89,89,95,,,,,,,,,,,,,LDT,right,0.6504364704887848,,,,,,0,,,,,,,,,,,,,right,0,0.6504364704887848,,,,,,,1045,2019_Mar_13_0951,mf_amp_cond1,3.0.4,59.99547799324481,
amount,,&&&&&&,left,neutral,,,,,,,,,,,,,,,0,90,90,53,,,,,,,,,,,,,LDT,right,0.5837543231027666,,,,,,0,,,,,,,,,,,,,right,0,0.5837543231027666,,,,,,,1045,2019_Mar_13_0951,mf_amp_cond1,3.0.4,59.99547799324481,
toward,,&&&&&&,left,neutral,,,,,,,,,,,,,,,0,91,91,62,,,,,,,,,,,,,LDT,right,0.8004763537319377,,,,,,0,,,,,,,,,,,,,right,0,0.8004763537319377,,,,,,,1045,2019_Mar_13_0951,mf_amp_cond1,3.0.4,59.99547799324481,
egpeditious,,&&&&&&&&&&&,right,nonword,,,,,,,,,,,,,,,0,92,92,41,,,,,,,,,,,,,LDT,left,0.6671245675242972,,,,,,0,,,,,,,,,,,,,left,0,0.6671245675242972,,,,,,,1045,2019_Mar_13_0951,mf_amp_cond1,3.0.4,59.99547799324481,
drumbled,,&&&&&&&&,right,nonword,,,,,,,,,,,,,,,0,93,93,10,,,,,,,,,,,,,LDT,right,0.66709345637355,,,,,,1,,,,,,,,,,,,,right,1,0.66709345637355,,,,,,,1045,2019_Mar_13_0951,mf_amp_cond1,3.0.4,59.99547799324481,
openet,,&&&&&&,None,nonword,,,,,,,,,,,,,,,0,94,94,96,,,,,,,,,,,,,LDT,left,1.033880387491081,,,,,,0,,,,,,,,,,,,,left,0,1.033880387491081,,,,,,,1045,2019_Mar_13_0951,mf_amp_cond1,3.0.4,59.99547799324481,
fifty,,&&&&&,left,neutral,,,,,,,,,,,,,,,0,95,95,111,,,,,,,,,,,,,LDT,right,1.200591048138449,,,,,,0,,,,,,,,,,,,,right,0,1.200591048138449,,,,,,,1045,2019_Mar_13_0951,mf_amp_cond1,3.0.4,59.99547799324481,
infet,,&&&&&,right,nonword,,,,,,,,,,,,,,,0,96,96,126,,,,,,,,,,,,,LDT,left,0.783902437920915,,,,,,0,,,,,,,,,,,,,left,0,0.783902437920915,,,,,,,1045,2019_Mar_13_0951,mf_amp_cond1,3.0.4,59.99547799324481,
pulge,,&&&&&,right,nonword,,,,,,,,,,,,,,,0,97,97,108,,,,,,,,,,,,,LDT,left,0.5337323688727338,,,,,,0,,,,,,,,,,,,,left,0,0.5337323688727338,,,,,,,1045,2019_Mar_13_0951,mf_amp_cond1,3.0.4,59.99547799324481,
drug,,&&&&,left,sanctity.vice,,,,,,,,,,,,,,,0,98,98,183,,,,,,,,,,,,,LDT,right,0.5504089194873814,,,,,,0,,,,,,,,,,,,,right,0,0.5504089194873814,,,,,,,1045,2019_Mar_13_0951,mf_amp_cond1,3.0.4,59.99547799324481,
halaise,,&&&&&&&,None,nonword,,,,,,,,,,,,,,,0,99,99,90,,,,,,,,,,,,,LDT,left,0.6170824070868548,,,,,,0,,,,,,,,,,,,,left,0,0.6170824070868548,,,,,,,1045,2019_Mar_13_0951,mf_amp_cond1,3.0.4,59.99547799324481,
oam,,&&&,right,nonword,,,,,,,,,,,,,,,0,100,100,189,,,,,,,,,,,,,LDT,left,0.7171112410433125,,,,,,0,,,,,,,,,,,,,left,0,0.7171112410433125,,,,,,,1045,2019_Mar_13_0951,mf_amp_cond1,3.0.4,59.99547799324481,
black,,&&&&&,left,loyalty.vice,,,,,,,,,,,,,,,0,101,101,172,,,,,,,,,,,,,LDT,right,0.6504480169096496,,,,,,0,,,,,,,,,,,,,right,0,0.6504480169096496,,,,,,,1045,2019_Mar_13_0951,mf_amp_cond1,3.0.4,59.99547799324481,
whereafter,,&&&&&&&&&&,left,neutral,,,,,,,,,,,,,,,0,102,102,170,,,,,,,,,,,,,LDT,left,0.7337980551237706,,,,,,1,,,,,,,,,,,,,left,1,0.7337980551237706,,,,,,,1045,2019_Mar_13_0951,mf_amp_cond1,3.0.4,59.99547799324481,
frojecting,,&&&&&&&&&&,right,nonword,,,,,,,,,,,,,,,0,103,103,19,,,,,,,,,,,,,LDT,left,0.883850446989527,,,,,,0,,,,,,,,,,,,,left,0,0.883850446989527,,,,,,,1045,2019_Mar_13_0951,mf_amp_cond1,3.0.4,59.99547799324481,
Lacedonia,,&&&&&&&&&,right,nonword,,,,,,,,,,,,,,,0,104,104,160,,,,,,,,,,,,,LDT,left,0.9672030510846525,,,,,,0,,,,,,,,,,,,,left,0,0.9672030510846525,,,,,,,1045,2019_Mar_13_0951,mf_amp_cond1,3.0.4,59.99547799324481,
precificity,,&&&&&&&&&&&,right,nonword,,,,,,,,,,,,,,,0,105,105,136,,,,,,,,,,,,,LDT,left,1.567402996472083,,,,,,0,,,,,,,,,,,,,left,0,1.567402996472083,,,,,,,1045,2019_Mar_13_0951,mf_amp_cond1,3.0.4,59.99547799324481,
seem,,&&&&,left,neutral,,,,,,,,,,,,,,,0,106,106,66,,,,,,,,,,,,,LDT,right,0.7004529722617008,,,,,,0,,,,,,,,,,,,,right,0,0.7004529722617008,,,,,,,1045,2019_Mar_13_0951,mf_amp_cond1,3.0.4,59.99547799324481,
cromiscuity,,&&&&&&&&&&&,right,nonword,,,,,,,,,,,,,,,0,107,107,12,,,,,,,,,,,,,LDT,left,1.1505732634395827,,,,,,0,,,,,,,,,,,,,left,0,1.1505732634395827,,,,,,,1045,2019_Mar_13_0951,mf_amp_cond1,3.0.4,59.99547799324481,
therefore,,&&&&&&&&&,left,neutral,,,,,,,,,,,,,,,0,108,108,171,,,,,,,,,,,,,LDT,right,0.43370449711801484,,,,,,0,,,,,,,,,,,,,right,0,0.43370449711801484,,,,,,,1045,2019_Mar_13_0951,mf_amp_cond1,3.0.4,59.99547799324481,
vurtain,,&&&&&&&,right,nonword,,,,,,,,,,,,,,,0,109,109,185,,,,,,,,,,,,,LDT,left,0.6671037198393606,,,,,,0,,,,,,,,,,,,,left,0,0.6671037198393606,,,,,,,1045,2019_Mar_13_0951,mf_amp_cond1,3.0.4,59.99547799324481,
