words,mask,corr_ans,category,nonwords,tweets,topic,LDT_pracloop.thisRepN,LDT_pracloop.thisTrialN,LDT_pracloop.thisN,LDT_pracloop.thisIndex,LDT_trials.thisRepN,LDT_trials.thisTrialN,LDT_trials.thisN,LDT_trials.thisIndex,AMP_pracloop.thisRepN,AMP_pracloop.thisTrialN,AMP_pracloop.thisN,AMP_pracloop.thisIndex,AMP_trials.thisRepN,AMP_trials.thisTrialN,AMP_trials.thisN,AMP_trials.thisIndex,tweet_loop.thisRepN,tweet_loop.thisTrialN,tweet_loop.thisN,tweet_loop.thisIndex,begin_key.keys,begin_key.rt,key_resp_AMP_instr1.keys,key_resp_AMP_instr1.rt,key_resp_LDT_instr.keys,key_resp_LDT_instr.rt,resp_LDT_prac.keys,resp_LDT_prac.rt,task,keypress,RT,corr,resp_LDT_ready.keys,resp_LDT_ready.rt,resp_LDT.keys,resp_LDT.corr,resp_LDT.rt,LDT_rating.response,LDT_rating.rt,resp_AMP_ready1.keys,resp_AMP_ready1.rt,resp_AMP_prac.keys,resp_AMP_prac.rt,resp_AMP_ready.keys,resp_AMP_ready.rt,resp_AMP.keys,resp_AMP.corr,resp_AMP.rt,AMP_nonword_rating.response,AMP_nonword_rating.rt,AMP_word_rating.response,AMP_word_rating.rt,AMP_random_rating.response,AMP_random_rating.rt,key_resp_LDT_instr_2.keys,key_resp_LDT_instr_2.rt,resp_tweets.keys,resp_tweets.rt,participant,date,expName,psychopyVersion,frameRate,
,,,,,,,,,,,,,,,,,,,,,,,,,,,right,831.2573456258979,,,,,,,,,,,,,,,,,,,,,,,,,,,,,,,,,,,,,1048,2019_Mar_13_0952,mf_amp_cond2,3.0.4,59.98291687136277,
,,,,,,,,,,,,,,,,,,,,,,,,,,,,,right,0.8837759599264245,,,,,,,,,,,,,,,,,,,,,,,,,,,,,,,,,,,1048,2019_Mar_13_0952,mf_amp_cond2,3.0.4,59.98291687136277,
,,,,,,,,,,,,,,,,,,,,,,,,,,,,,,,right,2.167442169273272,,,,,,,,,,,,,,,,,,,,,,,,,,,,,,,,,1048,2019_Mar_13_0952,mf_amp_cond2,3.0.4,59.98291687136277,
keyboard,&&&&&&&,,,,,,0,0,0,0,,,,,,,,,,,,,,,,,,,,,,,left,1.5172756190004293,LDT_prac,left,1.5172756190004293,0,,,,,,,,,,,,,,,,,,,,,,,,,,,1048,2019_Mar_13_0952,mf_amp_cond2,3.0.4,59.98291687136277,
bisebell,&&&&&&&,,,,,,0,1,1,1,,,,,,,,,,,,,,,,,,,,,,,left,0.6003977577784099,LDT_prac,left,0.6003977577784099,0,,,,,,,,,,,,,,,,,,,,,,,,,,,1048,2019_Mar_13_0952,mf_amp_cond2,3.0.4,59.98291687136277,
,,,,,,,,,,,,,,,,,,,,,,,,,,,,,,,,,,,,,,,right,1.2672302370192483,,,,,,,,,,,,,,,,,,,,,,,,,1048,2019_Mar_13_0952,mf_amp_cond2,3.0.4,59.98291687136277,
epigrach,&&&&&&&&,right,nonword,,,,,,,,0,0,0,64,,,,,,,,,,,,,,,,,,,,,LDT,left,2.1007556820404716,0,,,left,0,2.1007556820404716,,,,,,,,,,,,,,,,,,,,,,1048,2019_Mar_13_0952,mf_amp_cond2,3.0.4,59.98291687136277,
ensure,&&&&&&,left,fairness.virtue,,,,,,,,0,1,1,173,,,,,,,,,,,,,,,,,,,,,LDT,right,0.717079786962131,0,,,right,0,0.717079786962131,,,,,,,,,,,,,,,,,,,,,,1048,2019_Mar_13_0952,mf_amp_cond2,3.0.4,59.98291687136277,
chressing,&&&&&&&&&,None,nonword,,,,,,,,0,2,2,5,,,,,,,,,,,,,,,,,,,,,LDT,right,0.7504116449854337,0,,,right,0,0.7504116449854337,,,,,,,,,,,,,,,,,,,,,,1048,2019_Mar_13_0952,mf_amp_cond2,3.0.4,59.98291687136277,
gedious,&&&&&&&,right,nonword,,,,,,,,0,3,3,113,,,,,,,,,,,,,,,,,,,,,LDT,left,0.9838183592073619,0,,,left,0,0.9838183592073619,,,,,,,,,,,,,,,,,,,,,,1048,2019_Mar_13_0952,mf_amp_cond2,3.0.4,59.98291687136277,
metibolic,&&&&&&&&&,right,nonword,,,,,,,,0,4,4,116,,,,,,,,,,,,,,,,,,,,,LDT,left,1.5839550503587816,0,,,left,0,1.5839550503587816,,,,,,,,,,,,,,,,,,,,,,1048,2019_Mar_13_0952,mf_amp_cond2,3.0.4,59.98291687136277,
even,&&&&,left,neutral,,,,,,,,0,5,5,21,,,,,,,,,,,,,,,,,,,,,LDT,right,0.7670894406328443,0,,,right,0,0.7670894406328443,,,,,,,,,,,,,,,,,,,,,,1048,2019_Mar_13_0952,mf_amp_cond2,3.0.4,59.98291687136277,
give,&&&&,left,neutral,,,,,,,,0,6,6,199,,,,,,,,,,,,,,,,,,,,,LDT,right,0.567028054734692,0,,,right,0,0.567028054734692,,,,,,,,,,,,,,,,,,,,,,1048,2019_Mar_13_0952,mf_amp_cond2,3.0.4,59.98291687136277,
drumbled,&&&&&&&&,right,nonword,,,,,,,,0,7,7,86,,,,,,,,,,,,,,,,,,,,,LDT,right,0.5503723887668457,1,,,right,1,0.5503723887668457,,,,,,,,,,,,,,,,,,,,,,1048,2019_Mar_13_0952,mf_amp_cond2,3.0.4,59.98291687136277,
latter,&&&&&&,left,neutral,,,,,,,,0,8,8,23,,,,,,,,,,,,,,,,,,,,,LDT,right,0.5670408835576382,0,,,right,0,0.5670408835576382,,,,,,,,,,,,,,,,,,,,,,1048,2019_Mar_13_0952,mf_amp_cond2,3.0.4,59.98291687136277,
embrace,&&&&&&&,left,authority.virtue,,,,,,,,0,9,9,152,,,,,,,,,,,,,,,,,,,,,LDT,right,0.5670347898558248,0,,,right,0,0.5670347898558248,,,,,,,,,,,,,,,,,,,,,,1048,2019_Mar_13_0952,mf_amp_cond2,3.0.4,59.98291687136277,
halaise,&&&&&&&,None,nonword,,,,,,,,0,10,10,30,,,,,,,,,,,,,,,,,,,,,LDT,left,0.8837897509220056,0,,,left,0,0.8837897509220056,,,,,,,,,,,,,,,,,,,,,,1048,2019_Mar_13_0952,mf_amp_cond2,3.0.4,59.98291687136277,
promote,&&&&&&&,left,sanctity.virtue,,,,,,,,0,11,11,22,,,,,,,,,,,,,,,,,,,,,LDT,right,0.6337251256918535,0,,,right,0,0.6337251256918535,,,,,,,,,,,,,,,,,,,,,,1048,2019_Mar_13_0952,mf_amp_cond2,3.0.4,59.98291687136277,
baladroit,&&&&&&&&&,right,nonword,,,,,,,,0,12,12,177,,,,,,,,,,,,,,,,,,,,,LDT,right,1.0504763022763655,1,,,right,1,1.0504763022763655,,,,,,,,,,,,,,,,,,,,,,1048,2019_Mar_13_0952,mf_amp_cond2,3.0.4,59.98291687136277,
forty,&&&&&,left,neutral,,,,,,,,0,13,13,56,,,,,,,,,,,,,,,,,,,,,LDT,right,1.1338351328740828,0,,,right,0,1.1338351328740828,,,,,,,,,,,,,,,,,,,,,,1048,2019_Mar_13_0952,mf_amp_cond2,3.0.4,59.98291687136277,
further,&&&&&&&,left,neutral,,,,,,,,0,14,14,59,,,,,,,,,,,,,,,,,,,,,LDT,right,0.4670068229897879,0,,,right,0,0.4670068229897879,,,,,,,,,,,,,,,,,,,,,,1048,2019_Mar_13_0952,mf_amp_cond2,3.0.4,59.98291687136277,
threatened,&&&&&&&&&&,left,fairness.vice,,,,,,,,0,15,15,196,,,,,,,,,,,,,,,,,,,,,LDT,right,0.6337203148868866,0,,,right,0,0.6337203148868866,,,,,,,,,,,,,,,,,,,,,,1048,2019_Mar_13_0952,mf_amp_cond2,3.0.4,59.98291687136277,
seem,&&&&,left,neutral,,,,,,,,0,16,16,126,,,,,,,,,,,,,,,,,,,,,LDT,right,0.8171045466151554,0,,,right,0,0.8171045466151554,,,,,,,,,,,,,,,,,,,,,,1048,2019_Mar_13_0952,mf_amp_cond2,3.0.4,59.98291687136277,
fostet,&&&&&&,right,nonword,,,,,,,,0,17,17,45,,,,,,,,,,,,,,,,,,,,,LDT,left,0.6170521408203058,0,,,left,0,0.6170521408203058,,,,,,,,,,,,,,,,,,,,,,1048,2019_Mar_13_0952,mf_amp_cond2,3.0.4,59.98291687136277,
hatigue,&&&&&&&,right,nonword,,,,,,,,0,18,18,150,,,,,,,,,,,,,,,,,,,,,LDT,left,1.1505103628151119,0,,,left,0,1.1505103628151119,,,,,,,,,,,,,,,,,,,,,,1048,2019_Mar_13_0952,mf_amp_cond2,3.0.4,59.98291687136277,
rejected,&&&&&&&&,left,authority.vice,,,,,,,,0,19,19,108,,,,,,,,,,,,,,,,,,,,,LDT,right,0.6003842875070404,0,,,right,0,0.6003842875070404,,,,,,,,,,,,,,,,,,,,,,1048,2019_Mar_13_0952,mf_amp_cond2,3.0.4,59.98291687136277,
both,&&&&,left,neutral,,,,,,,,0,20,20,117,,,,,,,,,,,,,,,,,,,,,LDT,right,0.550360201363219,0,,,right,0,0.550360201363219,,,,,,,,,,,,,,,,,,,,,,1048,2019_Mar_13_0952,mf_amp_cond2,3.0.4,59.98291687136277,
celebrated,&&&&&&&&&&,left,authority.virtue,,,,,,,,0,21,21,107,,,,,,,,,,,,,,,,,,,,,LDT,right,0.8337756071414333,0,,,right,0,0.8337756071414333,,,,,,,,,,,,,,,,,,,,,,1048,2019_Mar_13_0952,mf_amp_cond2,3.0.4,59.98291687136277,
counpy's,&&&&&&&&,right,nonword,,,,,,,,0,22,22,9,,,,,,,,,,,,,,,,,,,,,LDT,left,0.7170871635316871,0,,,left,0,0.7170871635316871,,,,,,,,,,,,,,,,,,,,,,1048,2019_Mar_13_0952,mf_amp_cond2,3.0.4,59.98291687136277,
clattening,&&&&&&&&&&,right,nonword,,,,,,,,0,23,23,164,,,,,,,,,,,,,,,,,,,,,LDT,right,0.7670801397471223,1,,,right,1,0.7670801397471223,,,,,,,,,,,,,,,,,,,,,,1048,2019_Mar_13_0952,mf_amp_cond2,3.0.4,59.98291687136277,
Loorish,&&&&&&&,right,nonword,,,,,,,,0,24,24,136,,,,,,,,,,,,,,,,,,,,,LDT,right,0.8671279912814498,1,,,right,1,0.8671279912814498,,,,,,,,,,,,,,,,,,,,,,1048,2019_Mar_13_0952,mf_amp_cond2,3.0.4,59.98291687136277,
festate,&&&&&&&,right,nonword,,,,,,,,0,25,25,67,,,,,,,,,,,,,,,,,,,,,LDT,right,0.6503904132987373,1,,,right,1,0.6503904132987373,,,,,,,,,,,,,,,,,,,,,,1048,2019_Mar_13_0952,mf_amp_cond2,3.0.4,59.98291687136277,
betrayal,&&&&&&&&,left,loyalty.vice,,,,,,,,0,26,26,11,,,,,,,,,,,,,,,,,,,,,LDT,right,0.6504192781576421,0,,,right,0,0.6504192781576421,,,,,,,,,,,,,,,,,,,,,,1048,2019_Mar_13_0952,mf_amp_cond2,3.0.4,59.98291687136277,
photocalkodes,&&&&&&&&&&&&&,right,nonword,,,,,,,,0,27,27,65,,,,,,,,,,,,,,,,,,,,,LDT,left,0.5503592392196879,0,,,left,0,0.5503592392196879,,,,,,,,,,,,,,,,,,,,,,1048,2019_Mar_13_0952,mf_amp_cond2,3.0.4,59.98291687136277,
least,&&&&&,left,neutral,,,,,,,,0,28,28,153,,,,,,,,,,,,,,,,,,,,,LDT,right,0.6170396327506751,0,,,right,0,0.6170396327506751,,,,,,,,,,,,,,,,,,,,,,1048,2019_Mar_13_0952,mf_amp_cond2,3.0.4,59.98291687136277,
presentkess,&&&&&&&&&&&,right,nonword,,,,,,,,0,29,29,25,,,,,,,,,,,,,,,,,,,,,LDT,left,0.35038220282876864,0,,,left,0,0.35038220282876864,,,,,,,,,,,,,,,,,,,,,,1048,2019_Mar_13_0952,mf_amp_cond2,3.0.4,59.98291687136277,
terrorist,&&&&&&&&&,left,loyalty.vice,,,,,,,,0,30,30,142,,,,,,,,,,,,,,,,,,,,,LDT,right,0.23361903129261918,0,,,right,0,0.23361903129261918,,,,,,,,,,,,,,,,,,,,,,1048,2019_Mar_13_0952,mf_amp_cond2,3.0.4,59.98291687136277,
scandal,&&&&&&&,left,sanctity.vice,,,,,,,,0,31,31,149,,,,,,,,,,,,,,,,,,,,,LDT,left,0.1335884986910969,1,,,left,1,0.1335884986910969,,,,,,,,,,,,,,,,,,,,,,1048,2019_Mar_13_0952,mf_amp_cond2,3.0.4,59.98291687136277,
hereby,&&&&&&,left,neutral,,,,,,,,0,32,32,157,,,,,,,,,,,,,,,,,,,,,LDT,right,0.16693575130193494,0,,,right,0,0.16693575130193494,,,,,,,,,,,,,,,,,,,,,,1048,2019_Mar_13_0952,mf_amp_cond2,3.0.4,59.98291687136277,
lenon,&&&&&,right,nonword,,,,,,,,0,33,33,15,,,,,,,,,,,,,,,,,,,,,LDT,right,0.20028717329842038,1,,,right,1,0.20028717329842038,,,,,,,,,,,,,,,,,,,,,,1048,2019_Mar_13_0952,mf_amp_cond2,3.0.4,59.98291687136277,
violations,&&&&&&&&&&,left,sanctity.vice,,,,,,,,0,34,34,194,,,,,,,,,,,,,,,,,,,,,LDT,right,0.5336894615611527,0,,,right,0,0.5336894615611527,,,,,,,,,,,,,,,,,,,,,,1048,2019_Mar_13_0952,mf_amp_cond2,3.0.4,59.98291687136277,
gondensed,&&&&&&&&&,right,nonword,,,,,,,,0,35,35,26,,,,,,,,,,,,,,,,,,,,,LDT,right,0.5003553584974725,1,,,right,1,0.5003553584974725,,,,,,,,,,,,,,,,,,,,,,1048,2019_Mar_13_0952,mf_amp_cond2,3.0.4,59.98291687136277,
neutralust,&&&&&&&&&&,right,nonword,,,,,,,,0,36,36,168,,,,,,,,,,,,,,,,,,,,,LDT,right,0.35027027133037336,1,,,right,1,0.35027027133037336,,,,,,,,,,,,,,,,,,,,,,1048,2019_Mar_13_0952,mf_amp_cond2,3.0.4,59.98291687136277,
Phintoism,&&&&&&&&&,right,nonword,,,,,,,,0,37,37,10,,,,,,,,,,,,,,,,,,,,,LDT,left,1.4339350694499444,0,,,left,0,1.4339350694499444,,,,,,,,,,,,,,,,,,,,,,1048,2019_Mar_13_0952,mf_amp_cond2,3.0.4,59.98291687136277,
atson,&&&&&,right,nonword,,,,,,,,0,38,38,29,,,,,,,,,,,,,,,,,,,,,LDT,right,0.7671147776127327,1,,,right,1,0.7671147776127327,,,,,,,,,,,,,,,,,,,,,,1048,2019_Mar_13_0952,mf_amp_cond2,3.0.4,59.98291687136277,
drug,&&&&,left,sanctity.vice,,,,,,,,0,39,39,145,,,,,,,,,,,,,,,,,,,,,LDT,right,0.5503669365134556,0,,,right,0,0.5503669365134556,,,,,,,,,,,,,,,,,,,,,,1048,2019_Mar_13_0952,mf_amp_cond2,3.0.4,59.98291687136277,
win,&&&,left,fairness.virtue,,,,,,,,0,40,40,159,,,,,,,,,,,,,,,,,,,,,LDT,right,0.45033255525049753,0,,,right,0,0.45033255525049753,,,,,,,,,,,,,,,,,,,,,,1048,2019_Mar_13_0952,mf_amp_cond2,3.0.4,59.98291687136277,
besides,&&&&&&&,left,neutral,,,,,,,,0,41,41,39,,,,,,,,,,,,,,,,,,,,,LDT,right,0.4336704748857301,0,,,right,0,0.4336704748857301,,,,,,,,,,,,,,,,,,,,,,1048,2019_Mar_13_0952,mf_amp_cond2,3.0.4,59.98291687136277,
amount,&&&&&&,left,neutral,,,,,,,,0,42,42,139,,,,,,,,,,,,,,,,,,,,,LDT,right,0.4503373660845682,0,,,right,0,0.4503373660845682,,,,,,,,,,,,,,,,,,,,,,1048,2019_Mar_13_0952,mf_amp_cond2,3.0.4,59.98291687136277,
faspberry,&&&&&&&&&,None,nonword,,,,,,,,0,43,43,191,,,,,,,,,,,,,,,,,,,,,LDT,left,0.8504341595689766,0,,,left,0,0.8504341595689766,,,,,,,,,,,,,,,,,,,,,,1048,2019_Mar_13_0952,mf_amp_cond2,3.0.4,59.98291687136277,
suicide,&&&&&&&,left,care.vice,,,,,,,,0,44,44,74,,,,,,,,,,,,,,,,,,,,,LDT,left,0.883795844623819,1,,,left,1,0.883795844623819,,,,,,,,,,,,,,,,,,,,,,1048,2019_Mar_13_0952,mf_amp_cond2,3.0.4,59.98291687136277,
ning,&&&&,right,nonword,,,,,,,,0,45,45,38,,,,,,,,,,,,,,,,,,,,,LDT,right,0.450358854373917,1,,,right,1,0.450358854373917,,,,,,,,,,,,,,,,,,,,,,1048,2019_Mar_13_0952,mf_amp_cond2,3.0.4,59.98291687136277,
rivernoat,&&&&&&&&&,right,nonword,,,,,,,,0,46,46,76,,,,,,,,,,,,,,,,,,,,,LDT,left,0.7504058720078319,0,,,left,0,0.7504058720078319,,,,,,,,,,,,,,,,,,,,,,1048,2019_Mar_13_0952,mf_amp_cond2,3.0.4,59.98291687136277,
amoungst,&&&&&&&&,left,neutral,,,,,,,,0,47,47,28,,,,,,,,,,,,,,,,,,,,,LDT,right,0.5336878579691984,0,,,right,0,0.5336878579691984,,,,,,,,,,,,,,,,,,,,,,1048,2019_Mar_13_0952,mf_amp_cond2,3.0.4,59.98291687136277,
lempestuous,&&&&&&&&&&&,right,nonword,,,,,,,,0,48,48,138,,,,,,,,,,,,,,,,,,,,,LDT,right,1.0171608010132331,1,,,right,1,1.0171608010132331,,,,,,,,,,,,,,,,,,,,,,1048,2019_Mar_13_0952,mf_amp_cond2,3.0.4,59.98291687136277,
fear,&&&&,left,sanctity.vice,,,,,,,,0,49,49,96,,,,,,,,,,,,,,,,,,,,,LDT,right,0.6337215977837332,0,,,right,0,0.6337215977837332,,,,,,,,,,,,,,,,,,,,,,1048,2019_Mar_13_0952,mf_amp_cond2,3.0.4,59.98291687136277,
anything,&&&&&&&&,left,neutral,,,,,,,,0,50,50,48,,,,,,,,,,,,,,,,,,,,,LDT,left,0.8671074651647359,1,,,left,1,0.8671074651647359,,,,,,,,,,,,,,,,,,,,,,1048,2019_Mar_13_0952,mf_amp_cond2,3.0.4,59.98291687136277,
perified,&&&&&&&&,right,nonword,,,,,,,,0,51,51,42,,,,,,,,,,,,,,,,,,,,,LDT,left,0.8171395051467698,0,,,left,0,0.8171395051467698,,,,,,,,,,,,,,,,,,,,,,1048,2019_Mar_13_0952,mf_amp_cond2,3.0.4,59.98291687136277,
charges,&&&&&&&,left,fairness.vice,,,,,,,,0,52,52,35,,,,,,,,,,,,,,,,,,,,,LDT,left,0.5337128741957713,1,,,left,1,0.5337128741957713,,,,,,,,,,,,,,,,,,,,,,1048,2019_Mar_13_0952,mf_amp_cond2,3.0.4,59.98291687136277,
papert,&&&&&&,right,nonword,,,,,,,,0,53,53,72,,,,,,,,,,,,,,,,,,,,,LDT,right,0.4336749649955891,1,,,right,1,0.4336749649955891,,,,,,,,,,,,,,,,,,,,,,1048,2019_Mar_13_0952,mf_amp_cond2,3.0.4,59.98291687136277,
done,&&&&,left,neutral,,,,,,,,0,54,54,120,,,,,,,,,,,,,,,,,,,,,LDT,right,0.5170180803106632,0,,,right,0,0.5170180803106632,,,,,,,,,,,,,,,,,,,,,,1048,2019_Mar_13_0952,mf_amp_cond2,3.0.4,59.98291687136277,
uller,&&&&&,right,nonword,,,,,,,,0,55,55,155,,,,,,,,,,,,,,,,,,,,,LDT,right,1.467240949103143,1,,,right,1,1.467240949103143,,,,,,,,,,,,,,,,,,,,,,1048,2019_Mar_13_0952,mf_amp_cond2,3.0.4,59.98291687136277,
scalbel,&&&&&&&,right,nonword,,,,,,,,0,56,56,61,,,,,,,,,,,,,,,,,,,,,LDT,right,0.550348013988696,1,,,right,1,0.550348013988696,,,,,,,,,,,,,,,,,,,,,,1048,2019_Mar_13_0952,mf_amp_cond2,3.0.4,59.98291687136277,
pescinded,&&&&&&&&&,right,nonword,,,,,,,,0,57,57,19,,,,,,,,,,,,,,,,,,,,,LDT,left,0.6837200262525585,0,,,left,0,0.6837200262525585,,,,,,,,,,,,,,,,,,,,,,1048,2019_Mar_13_0952,mf_amp_cond2,3.0.4,59.98291687136277,
pulge,&&&&&,right,nonword,,,,,,,,0,58,58,85,,,,,,,,,,,,,,,,,,,,,LDT,left,3.3343942773062736,0,,,left,0,3.3343942773062736,,,,,,,,,,,,,,,,,,,,,,1048,2019_Mar_13_0952,mf_amp_cond2,3.0.4,59.98291687136277,
somehow,&&&&&&&,left,neutral,,,,,,,,0,59,59,46,,,,,,,,,,,,,,,,,,,,,LDT,right,0.8837817329040263,0,,,right,0,0.8837817329040263,,,,,,,,,,,,,,,,,,,,,,1048,2019_Mar_13_0952,mf_amp_cond2,3.0.4,59.98291687136277,
victim,&&&&&&,left,care.vice,,,,,,,,0,60,60,158,,,,,,,,,,,,,,,,,,,,,LDT,left,4.034578499267809,1,,,left,1,4.034578499267809,,,,,,,,,,,,,,,,,,,,,,1048,2019_Mar_13_0952,mf_amp_cond2,3.0.4,59.98291687136277,
nomaric,&&&&&&&,None,nonword,,,,,,,,0,61,61,131,,,,,,,,,,,,,,,,,,,,,LDT,right,1.9007212366268504,0,,,right,0,1.9007212366268504,,,,,,,,,,,,,,,,,,,,,,1048,2019_Mar_13_0952,mf_amp_cond2,3.0.4,59.98291687136277,
squets,&&&&&&,right,nonword,,,,,,,,0,62,62,111,,,,,,,,,,,,,,,,,,,,,LDT,right,0.8171221862430684,1,,,right,1,0.8171221862430684,,,,,,,,,,,,,,,,,,,,,,1048,2019_Mar_13_0952,mf_amp_cond2,3.0.4,59.98291687136277,
forced,&&&&&&,left,fairness.vice,,,,,,,,0,63,63,178,,,,,,,,,,,,,,,,,,,,,LDT,right,0.8170990943617653,0,,,right,0,0.8170990943617653,,,,,,,,,,,,,,,,,,,,,,1048,2019_Mar_13_0952,mf_amp_cond2,3.0.4,59.98291687136277,
Oregoniuns,&&&&&&&&&&,right,nonword,,,,,,,,0,64,64,115,,,,,,,,,,,,,,,,,,,,,LDT,left,0.7670987415476702,0,,,left,0,0.7670987415476702,,,,,,,,,,,,,,,,,,,,,,1048,2019_Mar_13_0952,mf_amp_cond2,3.0.4,59.98291687136277,
either,&&&&&&,left,neutral,,,,,,,,0,65,65,33,,,,,,,,,,,,,,,,,,,,,LDT,left,0.8504033703939058,1,,,left,1,0.8504033703939058,,,,,,,,,,,,,,,,,,,,,,1048,2019_Mar_13_0952,mf_amp_cond2,3.0.4,59.98291687136277,
fifteen,&&&&&&&,left,neutral,,,,,,,,0,66,66,70,,,,,,,,,,,,,,,,,,,,,LDT,right,0.20028107959660701,0,,,right,0,0.20028107959660701,,,,,,,,,,,,,,,,,,,,,,1048,2019_Mar_13_0952,mf_amp_cond2,3.0.4,59.98291687136277,
front,&&&&&,left,neutral,,,,,,,,0,67,67,156,,,,,,,,,,,,,,,,,,,,,LDT,right,0.6169184003374539,0,,,right,0,0.6169184003374539,,,,,,,,,,,,,,,,,,,,,,1048,2019_Mar_13_0952,mf_amp_cond2,3.0.4,59.98291687136277,
ejanulated,&&&&&&&&&&,right,nonword,,,,,,,,0,68,68,60,,,,,,,,,,,,,,,,,,,,,LDT,right,1.0338190327165648,1,,,right,1,1.0338190327165648,,,,,,,,,,,,,,,,,,,,,,1048,2019_Mar_13_0952,mf_amp_cond2,3.0.4,59.98291687136277,
viscs,&&&&&,None,nonword,,,,,,,,0,69,69,137,,,,,,,,,,,,,,,,,,,,,LDT,right,0.6170543858606834,0,,,right,0,0.6170543858606834,,,,,,,,,,,,,,,,,,,,,,1048,2019_Mar_13_0952,mf_amp_cond2,3.0.4,59.98291687136277,
whither,&&&&&&&,left,neutral,,,,,,,,0,70,70,198,,,,,,,,,,,,,,,,,,,,,LDT,left,1.2672074658621568,1,,,left,1,1.2672074658621568,,,,,,,,,,,,,,,,,,,,,,1048,2019_Mar_13_0952,mf_amp_cond2,3.0.4,59.98291687136277,
spag,&&&&,None,nonword,,,,,,,,0,71,71,87,,,,,,,,,,,,,,,,,,,,,LDT,right,0.4670382536423858,0,,,right,0,0.4670382536423858,,,,,,,,,,,,,,,,,,,,,,1048,2019_Mar_13_0952,mf_amp_cond2,3.0.4,59.98291687136277,
tislay,&&&&&&,right,nonword,,,,,,,,0,72,72,163,,,,,,,,,,,,,,,,,,,,,LDT,right,0.7170845977670979,1,,,right,1,0.7170845977670979,,,,,,,,,,,,,,,,,,,,,,1048,2019_Mar_13_0952,mf_amp_cond2,3.0.4,59.98291687136277,
could,&&&&&,left,neutral,,,,,,,,0,73,73,105,,,,,,,,,,,,,,,,,,,,,LDT,right,0.7170807491347659,0,,,right,0,0.7170807491347659,,,,,,,,,,,,,,,,,,,,,,1048,2019_Mar_13_0952,mf_amp_cond2,3.0.4,59.98291687136277,
noone,&&&&&,left,neutral,,,,,,,,0,74,74,90,,,,,,,,,,,,,,,,,,,,,LDT,right,0.6170694597822148,0,,,right,0,0.6170694597822148,,,,,,,,,,,,,,,,,,,,,,1048,2019_Mar_13_0952,mf_amp_cond2,3.0.4,59.98291687136277,
myself,&&&&&&,left,neutral,,,,,,,,0,75,75,135,,,,,,,,,,,,,,,,,,,,,LDT,right,0.6503836781485006,0,,,right,0,0.6503836781485006,,,,,,,,,,,,,,,,,,,,,,1048,2019_Mar_13_0952,mf_amp_cond2,3.0.4,59.98291687136277,
torture,&&&&&&&,left,care.vice,,,,,,,,0,76,76,100,,,,,,,,,,,,,,,,,,,,,LDT,right,0.9838212456961628,0,,,right,0,0.9838212456961628,,,,,,,,,,,,,,,,,,,,,,1048,2019_Mar_13_0952,mf_amp_cond2,3.0.4,59.98291687136277,
unreflectuve,&&&&&&&&&&&&,right,nonword,,,,,,,,0,77,77,184,,,,,,,,,,,,,,,,,,,,,LDT,right,0.5170495109341573,1,,,right,1,0.5170495109341573,,,,,,,,,,,,,,,,,,,,,,1048,2019_Mar_13_0952,mf_amp_cond2,3.0.4,59.98291687136277,
eight,&&&&&,left,neutral,,,,,,,,0,78,78,187,,,,,,,,,,,,,,,,,,,,,LDT,right,0.4670379329181742,0,,,right,0,0.4670379329181742,,,,,,,,,,,,,,,,,,,,,,1048,2019_Mar_13_0952,mf_amp_cond2,3.0.4,59.98291687136277,
glacenta,&&&&&&&&,right,nonword,,,,,,,,0,79,79,176,,,,,,,,,,,,,,,,,,,,,LDT,right,0.4170157711196225,1,,,right,1,0.4170157711196225,,,,,,,,,,,,,,,,,,,,,,1048,2019_Mar_13_0952,mf_amp_cond2,3.0.4,59.98291687136277,
hand,&&&&,left,sanctity.virtue,,,,,,,,0,80,80,130,,,,,,,,,,,,,,,,,,,,,LDT,left,0.5503525040985551,1,,,left,1,0.5503525040985551,,,,,,,,,,,,,,,,,,,,,,1048,2019_Mar_13_0952,mf_amp_cond2,3.0.4,59.98291687136277,
strength,&&&&&&&&,left,sanctity.virtue,,,,,,,,0,81,81,13,,,,,,,,,,,,,,,,,,,,,LDT,left,0.7837704435223714,1,,,left,1,0.7837704435223714,,,,,,,,,,,,,,,,,,,,,,1048,2019_Mar_13_0952,mf_amp_cond2,3.0.4,59.98291687136277,
grovelire,&&&&&&&&&,right,nonword,,,,,,,,0,82,82,51,,,,,,,,,,,,,,,,,,,,,LDT,left,0.5503396752465051,0,,,left,0,0.5503396752465051,,,,,,,,,,,,,,,,,,,,,,1048,2019_Mar_13_0952,mf_amp_cond2,3.0.4,59.98291687136277,
synchronazers,&&&&&&&&&&&&&,right,nonword,,,,,,,,0,83,83,183,,,,,,,,,,,,,,,,,,,,,LDT,left,0.5503624464327004,0,,,left,0,0.5503624464327004,,,,,,,,,,,,,,,,,,,,,,1048,2019_Mar_13_0952,mf_amp_cond2,3.0.4,59.98291687136277,
corruption,&&&&&&&&&&,left,sanctity.vice,,,,,,,,0,84,84,68,,,,,,,,,,,,,,,,,,,,,LDT,right,0.6837293271382805,0,,,right,0,0.6837293271382805,,,,,,,,,,,,,,,,,,,,,,1048,2019_Mar_13_0952,mf_amp_cond2,3.0.4,59.98291687136277,
black,&&&&&,left,loyalty.vice,,,,,,,,0,85,85,140,,,,,,,,,,,,,,,,,,,,,LDT,right,0.5670354312751442,0,,,right,0,0.5670354312751442,,,,,,,,,,,,,,,,,,,,,,1048,2019_Mar_13_0952,mf_amp_cond2,3.0.4,59.98291687136277,
gusinesslike,&&&&&&&&&&&&,right,nonword,,,,,,,,0,86,86,71,,,,,,,,,,,,,,,,,,,,,LDT,right,1.6172920398821589,1,,,right,1,1.6172920398821589,,,,,,,,,,,,,,,,,,,,,,1048,2019_Mar_13_0952,mf_amp_cond2,3.0.4,59.98291687136277,
mih,&&&,right,nonword,,,,,,,,0,87,87,146,,,,,,,,,,,,,,,,,,,,,LDT,right,1.3672341498313472,1,,,right,1,1.3672341498313472,,,,,,,,,,,,,,,,,,,,,,1048,2019_Mar_13_0952,mf_amp_cond2,3.0.4,59.98291687136277,
shoirmaster,&&&&&&&&&&&,None,nonword,,,,,,,,0,88,88,75,,,,,,,,,,,,,,,,,,,,,LDT,left,1.033846614707727,0,,,left,0,1.033846614707727,,,,,,,,,,,,,,,,,,,,,,1048,2019_Mar_13_0952,mf_amp_cond2,3.0.4,59.98291687136277,
restore,&&&&&&&,left,care.virtue,,,,,,,,0,89,89,95,,,,,,,,,,,,,,,,,,,,,LDT,right,0.750408437801525,0,,,right,0,0.750408437801525,,,,,,,,,,,,,,,,,,,,,,1048,2019_Mar_13_0952,mf_amp_cond2,3.0.4,59.98291687136277,
commitment,&&&&&&&&&&,left,sanctity.virtue,,,,,,,,0,90,90,143,,,,,,,,,,,,,,,,,,,,,LDT,right,0.7670900820812676,0,,,right,0,0.7670900820812676,,,,,,,,,,,,,,,,,,,,,,1048,2019_Mar_13_0952,mf_amp_cond2,3.0.4,59.98291687136277,
ugeasily,&&&&&&&&,right,nonword,,,,,,,,0,91,91,132,,,,,,,,,,,,,,,,,,,,,LDT,right,0.417020902648801,1,,,right,1,0.417020902648801,,,,,,,,,,,,,,,,,,,,,,1048,2019_Mar_13_0952,mf_amp_cond2,3.0.4,59.98291687136277,
vurtain,&&&&&&&,right,nonword,,,,,,,,0,92,92,197,,,,,,,,,,,,,,,,,,,,,LDT,right,0.31696375022875145,1,,,right,1,0.31696375022875145,,,,,,,,,,,,,,,,,,,,,,1048,2019_Mar_13_0952,mf_amp_cond2,3.0.4,59.98291687136277,
taxpayung,&&&&&&&&&,right,nonword,,,,,,,,0,93,93,106,,,,,,,,,,,,,,,,,,,,,LDT,right,0.36699489221791737,1,,,right,1,0.36699489221791737,,,,,,,,,,,,,,,,,,,,,,1048,2019_Mar_13_0952,mf_amp_cond2,3.0.4,59.98291687136277,
refused,&&&&&&&,left,authority.vice,,,,,,,,0,94,94,151,,,,,,,,,,,,,,,,,,,,,LDT,left,1.0338199948891997,1,,,left,1,1.0338199948891997,,,,,,,,,,,,,,,,,,,,,,1048,2019_Mar_13_0952,mf_amp_cond2,3.0.4,59.98291687136277,
mostly,&&&&&&,left,neutral,,,,,,,,0,95,95,24,,,,,,,,,,,,,,,,,,,,,LDT,right,0.13362570229219273,0,,,right,0,0.13362570229219273,,,,,,,,,,,,,,,,,,,,,,1048,2019_Mar_13_0952,mf_amp_cond2,3.0.4,59.98291687136277,
focomotive,&&&&&&&&&&,right,nonword,,,,,,,,0,96,96,101,,,,,,,,,,,,,,,,,,,,,LDT,right,0.28364343813154846,1,,,right,1,0.28364343813154846,,,,,,,,,,,,,,,,,,,,,,1048,2019_Mar_13_0952,mf_amp_cond2,3.0.4,59.98291687136277,
couldnt,&&&&&&&,left,neutral,,,,,,,,0,97,97,109,,,,,,,,,,,,,,,,,,,,,LDT,right,0.45033608318772167,0,,,right,0,0.45033608318772167,,,,,,,,,,,,,,,,,,,,,,1048,2019_Mar_13_0952,mf_amp_cond2,3.0.4,59.98291687136277,
yane,&&&&,right,nonword,,,,,,,,0,98,98,81,,,,,,,,,,,,,,,,,,,,,LDT,right,0.4336772100359667,1,,,right,1,0.4336772100359667,,,,,,,,,,,,,,,,,,,,,,1048,2019_Mar_13_0952,mf_amp_cond2,3.0.4,59.98291687136277,
lursuer,&&&&&&&,right,nonword,,,,,,,,0,99,99,148,,,,,,,,,,,,,,,,,,,,,LDT,left,0.6670672468026169,0,,,left,0,0.6670672468026169,,,,,,,,,,,,,,,,,,,,,,1048,2019_Mar_13_0952,mf_amp_cond2,3.0.4,59.98291687136277,
nomparisons,&&&&&&&&&&&,right,nonword,,,,,,,,0,100,100,77,,,,,,,,,,,,,,,,,,,,,LDT,right,1.1505312096269336,1,,,right,1,1.1505312096269336,,,,,,,,,,,,,,,,,,,,,,1048,2019_Mar_13_0952,mf_amp_cond2,3.0.4,59.98291687136277,
pharing,&&&&&&&,right,nonword,,,,,,,,0,101,101,102,,,,,,,,,,,,,,,,,,,,,LDT,right,0.6003907019330654,1,,,right,1,0.6003907019330654,,,,,,,,,,,,,,,,,,,,,,1048,2019_Mar_13_0952,mf_amp_cond2,3.0.4,59.98291687136277,
mecan,&&&&&,right,nonword,,,,,,,,0,102,102,31,,,,,,,,,,,,,,,,,,,,,LDT,left,0.6337232013756875,0,,,left,0,0.6337232013756875,,,,,,,,,,,,,,,,,,,,,,1048,2019_Mar_13_0952,mf_amp_cond2,3.0.4,59.98291687136277,
ammessment,&&&&&&&&&&,right,nonword,,,,,,,,0,103,103,50,,,,,,,,,,,,,,,,,,,,,LDT,right,0.7504174179630354,1,,,right,1,0.7504174179630354,,,,,,,,,,,,,,,,,,,,,,1048,2019_Mar_13_0952,mf_amp_cond2,3.0.4,59.98291687136277,
promises,&&&&&&&&,left,fairness.virtue,,,,,,,,0,104,104,119,,,,,,,,,,,,,,,,,,,,,LDT,right,0.5336298074980732,0,,,right,0,0.5336298074980732,,,,,,,,,,,,,,,,,,,,,,1048,2019_Mar_13_0952,mf_amp_cond2,3.0.4,59.98291687136277,
peace,&&&&&,left,care.virtue,,,,,,,,0,105,105,41,,,,,,,,,,,,,,,,,,,,,LDT,right,0.583728621568298,0,,,right,0,0.583728621568298,,,,,,,,,,,,,,,,,,,,,,1048,2019_Mar_13_0952,mf_amp_cond2,3.0.4,59.98291687136277,
safety,&&&&&&,left,care.virtue,,,,,,,,0,106,106,141,,,,,,,,,,,,,,,,,,,,,LDT,right,0.4503569300286472,0,,,right,0,0.4503569300286472,,,,,,,,,,,,,,,,,,,,,,1048,2019_Mar_13_0952,mf_amp_cond2,3.0.4,59.98291687136277,
been,&&&&,left,neutral,,,,,,,,0,107,107,166,,,,,,,,,,,,,,,,,,,,,LDT,right,0.5336836886126548,0,,,right,0,0.5336836886126548,,,,,,,,,,,,,,,,,,,,,,1048,2019_Mar_13_0952,mf_amp_cond2,3.0.4,59.98291687136277,
infet,&&&&&,right,nonword,,,,,,,,0,108,108,110,,,,,,,,,,,,,,,,,,,,,LDT,left,1.217198453610763,0,,,left,0,1.217198453610763,,,,,,,,,,,,,,,,,,,,,,1048,2019_Mar_13_0952,mf_amp_cond2,3.0.4,59.98291687136277,
opportunity,&&&&&&&&&&&,left,fairness.virtue,,,,,,,,0,109,109,27,,,,,,,,,,,,,,,,,,,,,LDT,right,0.6503949033503886,0,,,right,0,0.6503949033503886,,,,,,,,,,,,,,,,,,,,,,1048,2019_Mar_13_0952,mf_amp_cond2,3.0.4,59.98291687136277,
proached,&&&&&&&&,right,nonword,,,,,,,,0,110,110,98,,,,,,,,,,,,,,,,,,,,,LDT,right,0.6170492543606088,1,,,right,1,0.6170492543606088,,,,,,,,,,,,,,,,,,,,,,1048,2019_Mar_13_0952,mf_amp_cond2,3.0.4,59.98291687136277,
vicissifude,&&&&&&&&&&&,right,nonword,,,,,,,,0,111,111,182,,,,,,,,,,,,,,,,,,,,,LDT,right,1.3172344384947792,1,,,right,1,1.3172344384947792,,,,,,,,,,,,,,,,,,,,,,1048,2019_Mar_13_0952,mf_amp_cond2,3.0.4,59.98291687136277,
towards,&&&&&&&,left,neutral,,,,,,,,0,112,112,112,,,,,,,,,,,,,,,,,,,,,LDT,right,0.6670547386747785,0,,,right,0,0.6670547386747785,,,,,,,,,,,,,,,,,,,,,,1048,2019_Mar_13_0952,mf_amp_cond2,3.0.4,59.98291687136277,
tabin,&&&&&,right,nonword,,,,,,,,0,113,113,174,,,,,,,,,,,,,,,,,,,,,LDT,left,0.6670531350828242,0,,,left,0,0.6670531350828242,,,,,,,,,,,,,,,,,,,,,,1048,2019_Mar_13_0952,mf_amp_cond2,3.0.4,59.98291687136277,
stindig,&&&&&&&,right,nonword,,,,,,,,0,114,114,118,,,,,,,,,,,,,,,,,,,,,LDT,right,0.6670585873362143,1,,,right,1,0.6670585873362143,,,,,,,,,,,,,,,,,,,,,,1048,2019_Mar_13_0952,mf_amp_cond2,3.0.4,59.98291687136277,
fornicalion,&&&&&&&&&&&,right,nonword,,,,,,,,0,115,115,62,,,,,,,,,,,,,,,,,,,,,LDT,left,0.7837592182913795,0,,,left,0,0.7837592182913795,,,,,,,,,,,,,,,,,,,,,,1048,2019_Mar_13_0952,mf_amp_cond2,3.0.4,59.98291687136277,
tracious,&&&&&&&&,right,nonword,,,,,,,,0,116,116,17,,,,,,,,,,,,,,,,,,,,,LDT,left,0.4670193311176263,0,,,left,0,0.4670193311176263,,,,,,,,,,,,,,,,,,,,,,1048,2019_Mar_13_0952,mf_amp_cond2,3.0.4,59.98291687136277,
dormandi,&&&&&&&&,None,nonword,,,,,,,,0,117,117,40,,,,,,,,,,,,,,,,,,,,,LDT,left,0.38365665182936937,0,,,left,0,0.38365665182936937,,,,,,,,,,,,,,,,,,,,,,1048,2019_Mar_13_0952,mf_amp_cond2,3.0.4,59.98291687136277,
whereafter,&&&&&&&&&&,left,neutral,,,,,,,,0,118,118,37,,,,,,,,,,,,,,,,,,,,,LDT,left,0.5837132269516587,1,,,left,1,0.5837132269516587,,,,,,,,,,,,,,,,,,,,,,1048,2019_Mar_13_0952,mf_amp_cond2,3.0.4,59.98291687136277,
party,&&&&&,left,loyalty.virtue,,,,,,,,0,119,119,2,,,,,,,,,,,,,,,,,,,,,LDT,right,0.3836643491522409,0,,,right,0,0.3836643491522409,,,,,,,,,,,,,,,,,,,,,,1048,2019_Mar_13_0952,mf_amp_cond2,3.0.4,59.98291687136277,
allears,&&&&&&&,right,nonword,,,,,,,,0,120,120,3,,,,,,,,,,,,,,,,,,,,,LDT,right,0.41700005580787547,1,,,right,1,0.41700005580787547,,,,,,,,,,,,,,,,,,,,,,1048,2019_Mar_13_0952,mf_amp_cond2,3.0.4,59.98291687136277,
rebels,&&&&&&,left,authority.vice,,,,,,,,0,121,121,82,,,,,,,,,,,,,,,,,,,,,LDT,right,0.5003547170490492,0,,,right,0,0.5003547170490492,,,,,,,,,,,,,,,,,,,,,,1048,2019_Mar_13_0952,mf_amp_cond2,3.0.4,59.98291687136277,
hope,&&&&,left,loyalty.virtue,,,,,,,,0,122,122,18,,,,,,,,,,,,,,,,,,,,,LDT,right,0.4170176954357885,0,,,right,0,0.4170176954357885,,,,,,,,,,,,,,,,,,,,,,1048,2019_Mar_13_0952,mf_amp_cond2,3.0.4,59.98291687136277,
hasks,&&&&&,right,nonword,,,,,,,,0,123,123,97,,,,,,,,,,,,,,,,,,,,,LDT,right,0.6503907339938451,1,,,right,1,0.6503907339938451,,,,,,,,,,,,,,,,,,,,,,1048,2019_Mar_13_0952,mf_amp_cond2,3.0.4,59.98291687136277,
accused,&&&&&&&,left,fairness.vice,,,,,,,,0,124,124,181,,,,,,,,,,,,,,,,,,,,,LDT,right,0.7670801397471223,0,,,right,0,0.7670801397471223,,,,,,,,,,,,,,,,,,,,,,1048,2019_Mar_13_0952,mf_amp_cond2,3.0.4,59.98291687136277,
failure,&&&&&&&,left,loyalty.vice,,,,,,,,0,125,125,88,,,,,,,,,,,,,,,,,,,,,LDT,right,0.6170540651655756,0,,,right,0,0.6170540651655756,,,,,,,,,,,,,,,,,,,,,,1048,2019_Mar_13_0952,mf_amp_cond2,3.0.4,59.98291687136277,
hefurbished,&&&&&&&&&&&,right,nonword,,,,,,,,0,126,126,54,,,,,,,,,,,,,,,,,,,,,LDT,left,0.9170584269450046,0,,,left,0,0.9170584269450046,,,,,,,,,,,,,,,,,,,,,,1048,2019_Mar_13_0952,mf_amp_cond2,3.0.4,59.98291687136277,
menizen,&&&&&&&,None,nonword,,,,,,,,0,127,127,8,,,,,,,,,,,,,,,,,,,,,LDT,left,0.9171196846000385,0,,,left,0,0.9171196846000385,,,,,,,,,,,,,,,,,,,,,,1048,2019_Mar_13_0952,mf_amp_cond2,3.0.4,59.98291687136277,
saned,&&&&&,None,nonword,,,,,,,,0,128,128,144,,,,,,,,,,,,,,,,,,,,,LDT,right,1.1671836683817673,0,,,right,0,1.1671836683817673,,,,,,,,,,,,,,,,,,,,,,1048,2019_Mar_13_0952,mf_amp_cond2,3.0.4,59.98291687136277,
wherever,&&&&&&&&,left,neutral,,,,,,,,0,129,129,167,,,,,,,,,,,,,,,,,,,,,LDT,right,0.6337132590415422,0,,,right,0,0.6337132590415422,,,,,,,,,,,,,,,,,,,,,,1048,2019_Mar_13_0952,mf_amp_cond2,3.0.4,59.98291687136277,
attacks,&&&&&&&,left,care.vice,,,,,,,,0,130,130,79,,,,,,,,,,,,,,,,,,,,,LDT,right,0.4503219714970328,0,,,right,0,0.4503219714970328,,,,,,,,,,,,,,,,,,,,,,1048,2019_Mar_13_0952,mf_amp_cond2,3.0.4,59.98291687136277,
reviked,&&&&&&&,right,nonword,,,,,,,,0,131,131,57,,,,,,,,,,,,,,,,,,,,,LDT,right,0.5837180377857294,1,,,right,1,0.5837180377857294,,,,,,,,,,,,,,,,,,,,,,1048,2019_Mar_13_0952,mf_amp_cond2,3.0.4,59.98291687136277,
frojecting,&&&&&&&&&&,right,nonword,,,,,,,,0,132,132,32,,,,,,,,,,,,,,,,,,,,,LDT,right,0.5170283433690201,1,,,right,1,0.5170283433690201,,,,,,,,,,,,,,,,,,,,,,1048,2019_Mar_13_0952,mf_amp_cond2,3.0.4,59.98291687136277,
neputized,&&&&&&&&&,right,nonword,,,,,,,,0,133,133,80,,,,,,,,,,,,,,,,,,,,,LDT,right,0.7837842345179524,1,,,right,1,0.7837842345179524,,,,,,,,,,,,,,,,,,,,,,1048,2019_Mar_13_0952,mf_amp_cond2,3.0.4,59.98291687136277,
else,&&&&,left,neutral,,,,,,,,0,134,134,104,,,,,,,,,,,,,,,,,,,,,LDT,right,0.5170139109250158,0,,,right,0,0.5170139109250158,,,,,,,,,,,,,,,,,,,,,,1048,2019_Mar_13_0952,mf_amp_cond2,3.0.4,59.98291687136277,
sfumatoy,&&&&&&&&,None,nonword,,,,,,,,0,135,135,123,,,,,,,,,,,,,,,,,,,,,LDT,right,0.3836685185087845,0,,,right,0,0.3836685185087845,,,,,,,,,,,,,,,,,,,,,,1048,2019_Mar_13_0952,mf_amp_cond2,3.0.4,59.98291687136277,
nuckheap,&&&&&&&&,right,nonword,,,,,,,,0,136,136,129,,,,,,,,,,,,,,,,,,,,,LDT,right,0.40032739166053943,1,,,right,1,0.40032739166053943,,,,,,,,,,,,,,,,,,,,,,1048,2019_Mar_13_0952,mf_amp_cond2,3.0.4,59.98291687136277,
honored,&&&&&&&,left,authority.virtue,,,,,,,,0,137,137,89,,,,,,,,,,,,,,,,,,,,,LDT,right,0.40033316463814117,0,,,right,0,0.40033316463814117,,,,,,,,,,,,,,,,,,,,,,1048,2019_Mar_13_0952,mf_amp_cond2,3.0.4,59.98291687136277,
hence,&&&&&,left,neutral,,,,,,,,0,138,138,121,,,,,,,,,,,,,,,,,,,,,LDT,left,0.316967919585295,1,,,left,1,0.316967919585295,,,,,,,,,,,,,,,,,,,,,,1048,2019_Mar_13_0952,mf_amp_cond2,3.0.4,59.98291687136277,
ilportation,&&&&&&&&&&&,right,nonword,,,,,,,,0,139,139,6,,,,,,,,,,,,,,,,,,,,,LDT,right,0.15026276643038727,1,,,right,1,0.15026276643038727,,,,,,,,,,,,,,,,,,,,,,1048,2019_Mar_13_0952,mf_amp_cond2,3.0.4,59.98291687136277,
although,&&&&&&&&,left,neutral,,,,,,,,0,140,140,195,,,,,,,,,,,,,,,,,,,,,LDT,left,0.3169688817579299,1,,,left,1,0.3169688817579299,,,,,,,,,,,,,,,,,,,,,,1048,2019_Mar_13_0952,mf_amp_cond2,3.0.4,59.98291687136277,
greaks,&&&&&&,right,nonword,,,,,,,,0,141,141,69,,,,,,,,,,,,,,,,,,,,,LDT,left,0.38372592750238255,0,,,left,0,0.38372592750238255,,,,,,,,,,,,,,,,,,,,,,1048,2019_Mar_13_0952,mf_amp_cond2,3.0.4,59.98291687136277,
values,&&&&&&,left,sanctity.virtue,,,,,,,,0,142,142,43,,,,,,,,,,,,,,,,,,,,,LDT,left,0.4170006972271949,1,,,left,1,0.4170006972271949,,,,,,,,,,,,,,,,,,,,,,1048,2019_Mar_13_0952,mf_amp_cond2,3.0.4,59.98291687136277,
about,&&&&&,left,neutral,,,,,,,,0,143,143,73,,,,,,,,,,,,,,,,,,,,,LDT,left,0.31697016465477645,1,,,left,1,0.31697016465477645,,,,,,,,,,,,,,,,,,,,,,1048,2019_Mar_13_0952,mf_amp_cond2,3.0.4,59.98291687136277,
openet,&&&&&&,None,nonword,,,,,,,,0,144,144,4,,,,,,,,,,,,,,,,,,,,,LDT,left,0.40032226013136096,0,,,left,0,0.40032226013136096,,,,,,,,,,,,,,,,,,,,,,1048,2019_Mar_13_0952,mf_amp_cond2,3.0.4,59.98291687136277,
become,&&&&&&,left,neutral,,,,,,,,0,145,145,84,,,,,,,,,,,,,,,,,,,,,LDT,left,0.8004399004566949,1,,,left,1,0.8004399004566949,,,,,,,,,,,,,,,,,,,,,,1048,2019_Mar_13_0952,mf_amp_cond2,3.0.4,59.98291687136277,
carvels,&&&&&&&,None,nonword,,,,,,,,0,146,146,179,,,,,,,,,,,,,,,,,,,,,LDT,left,0.4503431390330661,0,,,left,0,0.4503431390330661,,,,,,,,,,,,,,,,,,,,,,1048,2019_Mar_13_0952,mf_amp_cond2,3.0.4,59.98291687136277,
fifty,&&&&&,left,neutral,,,,,,,,0,147,147,1,,,,,,,,,,,,,,,,,,,,,LDT,left,0.40019397184369154,1,,,left,1,0.40019397184369154,,,,,,,,,,,,,,,,,,,,,,1048,2019_Mar_13_0952,mf_amp_cond2,3.0.4,59.98291687136277,
gournful,&&&&&&&&,right,nonword,,,,,,,,0,148,148,162,,,,,,,,,,,,,,,,,,,,,LDT,left,0.40032675021211617,0,,,left,0,0.40032675021211617,,,,,,,,,,,,,,,,,,,,,,1048,2019_Mar_13_0952,mf_amp_cond2,3.0.4,59.98291687136277,
pafer,&&&&&,right,nonword,,,,,,,,0,149,149,169,,,,,,,,,,,,,,,,,,,,,LDT,right,0.6337318608420901,1,,,right,1,0.6337318608420901,,,,,,,,,,,,,,,,,,,,,,1048,2019_Mar_13_0952,mf_amp_cond2,3.0.4,59.98291687136277,
sidearbs,&&&&&&&&,right,nonword,,,,,,,,0,150,150,186,,,,,,,,,,,,,,,,,,,,,LDT,left,0.4003408619319089,0,,,left,0,0.4003408619319089,,,,,,,,,,,,,,,,,,,,,,1048,2019_Mar_13_0952,mf_amp_cond2,3.0.4,59.98291687136277,
ronviolence,&&&&&&&&&&&,right,nonword,,,,,,,,0,151,151,172,,,,,,,,,,,,,,,,,,,,,LDT,left,0.5670399213850033,0,,,left,0,0.5670399213850033,,,,,,,,,,,,,,,,,,,,,,1048,2019_Mar_13_0952,mf_amp_cond2,3.0.4,59.98291687136277,
with,&&&&,left,neutral,,,,,,,,0,152,152,91,,,,,,,,,,,,,,,,,,,,,LDT,left,0.4003107141761575,1,,,left,1,0.4003107141761575,,,,,,,,,,,,,,,,,,,,,,1048,2019_Mar_13_0952,mf_amp_cond2,3.0.4,59.98291687136277,
anyhow,&&&&&&,left,neutral,,,,,,,,0,153,153,20,,,,,,,,,,,,,,,,,,,,,LDT,left,0.3503164550929796,1,,,left,1,0.3503164550929796,,,,,,,,,,,,,,,,,,,,,,1048,2019_Mar_13_0952,mf_amp_cond2,3.0.4,59.98291687136277,
increase,&&&&&&&&,left,care.virtue,,,,,,,,0,154,154,34,,,,,,,,,,,,,,,,,,,,,LDT,left,0.2336328223173041,1,,,left,1,0.2336328223173041,,,,,,,,,,,,,,,,,,,,,,1048,2019_Mar_13_0952,mf_amp_cond2,3.0.4,59.98291687136277,
therefore,&&&&&&&&&,left,neutral,,,,,,,,0,155,155,171,,,,,,,,,,,,,,,,,,,,,LDT,right,0.5503688608296216,0,,,right,0,0.5503688608296216,,,,,,,,,,,,,,,,,,,,,,1048,2019_Mar_13_0952,mf_amp_cond2,3.0.4,59.98291687136277,
were,&&&&,left,neutral,,,,,,,,0,156,156,114,,,,,,,,,,,,,,,,,,,,,LDT,right,0.7337383393896744,0,,,right,0,0.7337383393896744,,,,,,,,,,,,,,,,,,,,,,1048,2019_Mar_13_0952,mf_amp_cond2,3.0.4,59.98291687136277,
army,&&&&,left,loyalty.vice,,,,,,,,0,157,157,49,,,,,,,,,,,,,,,,,,,,,LDT,right,0.48369905111030675,0,,,right,0,0.48369905111030675,,,,,,,,,,,,,,,,,,,,,,1048,2019_Mar_13_0952,mf_amp_cond2,3.0.4,59.98291687136277,
gun,&&&,left,authority.vice,,,,,,,,0,158,158,55,,,,,,,,,,,,,,,,,,,,,LDT,right,0.4836820529017132,0,,,right,0,0.4836820529017132,,,,,,,,,,,,,,,,,,,,,,1048,2019_Mar_13_0952,mf_amp_cond2,3.0.4,59.98291687136277,
reelectiob,&&&&&&&&&&,right,nonword,,,,,,,,0,159,159,175,,,,,,,,,,,,,,,,,,,,,LDT,left,1.0171531037194654,0,,,left,0,1.0171531037194654,,,,,,,,,,,,,,,,,,,,,,1048,2019_Mar_13_0952,mf_amp_cond2,3.0.4,59.98291687136277,
godlaness,&&&&&&&&&,right,nonword,,,,,,,,0,160,160,52,,,,,,,,,,,,,,,,,,,,,LDT,left,0.6003913433523849,0,,,left,0,0.6003913433523849,,,,,,,,,,,,,,,,,,,,,,1048,2019_Mar_13_0952,mf_amp_cond2,3.0.4,59.98291687136277,
discovars,&&&&&&&&&,right,nonword,,,,,,,,0,161,161,122,,,,,,,,,,,,,,,,,,,,,LDT,left,0.36699617508566007,0,,,left,0,0.36699617508566007,,,,,,,,,,,,,,,,,,,,,,1048,2019_Mar_13_0952,mf_amp_cond2,3.0.4,59.98291687136277,
illegal,&&&&&&&,left,fairness.vice,,,,,,,,0,162,162,154,,,,,,,,,,,,,,,,,,,,,LDT,right,0.5002302774519194,0,,,right,0,0.5002302774519194,,,,,,,,,,,,,,,,,,,,,,1048,2019_Mar_13_0952,mf_amp_cond2,3.0.4,59.98291687136277,
neneficence,&&&&&&&&&&&,right,nonword,,,,,,,,0,163,163,193,,,,,,,,,,,,,,,,,,,,,LDT,left,0.5003848648339044,0,,,left,0,0.5003848648339044,,,,,,,,,,,,,,,,,,,,,,1048,2019_Mar_13_0952,mf_amp_cond2,3.0.4,59.98291687136277,
also,&&&&,left,neutral,,,,,,,,0,164,164,92,,,,,,,,,,,,,,,,,,,,,LDT,right,0.45033383814734407,0,,,right,0,0.45033383814734407,,,,,,,,,,,,,,,,,,,,,,1048,2019_Mar_13_0952,mf_amp_cond2,3.0.4,59.98291687136277,
ability,&&&&&&&,left,authority.virtue,,,,,,,,0,165,165,190,,,,,,,,,,,,,,,,,,,,,LDT,left,0.46701323744491674,1,,,left,1,0.46701323744491674,,,,,,,,,,,,,,,,,,,,,,1048,2019_Mar_13_0952,mf_amp_cond2,3.0.4,59.98291687136277,
itself,&&&&&&,left,neutral,,,,,,,,0,166,166,7,,,,,,,,,,,,,,,,,,,,,LDT,right,0.5337003660679329,0,,,right,0,0.5337003660679329,,,,,,,,,,,,,,,,,,,,,,1048,2019_Mar_13_0952,mf_amp_cond2,3.0.4,59.98291687136277,
thabbily,&&&&&&&&,right,nonword,,,,,,,,0,167,167,0,,,,,,,,,,,,,,,,,,,,,LDT,left,0.15026084214332514,0,,,left,0,0.15026084214332514,,,,,,,,,,,,,,,,,,,,,,1048,2019_Mar_13_0952,mf_amp_cond2,3.0.4,59.98291687136277,
framo,&&&&&,right,nonword,,,,,,,,0,168,168,127,,,,,,,,,,,,,,,,,,,,,LDT,left,0.6335833671619184,0,,,left,0,0.6335833671619184,,,,,,,,,,,,,,,,,,,,,,1048,2019_Mar_13_0952,mf_amp_cond2,3.0.4,59.98291687136277,
toward,&&&&&&,left,neutral,,,,,,,,0,169,169,188,,,,,,,,,,,,,,,,,,,,,LDT,right,0.9338026118348353,0,,,right,0,0.9338026118348353,,,,,,,,,,,,,,,,,,,,,,1048,2019_Mar_13_0952,mf_amp_cond2,3.0.4,59.98291687136277,
shoirmaster,&&&&&&&&&&&,right,nonword,,,,,,,,0,170,170,160,,,,,,,,,,,,,,,,,,,,,LDT,left,0.5837096990435384,0,,,left,0,0.5837096990435384,,,,,,,,,,,,,,,,,,,,,,1048,2019_Mar_13_0952,mf_amp_cond2,3.0.4,59.98291687136277,
civilians,&&&&&&&&&,left,care.vice,,,,,,,,0,171,171,36,,,,,,,,,,,,,,,,,,,,,LDT,left,0.9671415256743785,1,,,left,1,0.9671415256743785,,,,,,,,,,,,,,,,,,,,,,1048,2019_Mar_13_0952,mf_amp_cond2,3.0.4,59.98291687136277,
oam,&&&,right,nonword,,,,,,,,0,172,172,44,,,,,,,,,,,,,,,,,,,,,LDT,right,1.2838788471126463,1,,,right,1,1.2838788471126463,,,,,,,,,,,,,,,,,,,,,,1048,2019_Mar_13_0952,mf_amp_cond2,3.0.4,59.98291687136277,
love,&&&&,left,loyalty.virtue,,,,,,,,0,173,173,14,,,,,,,,,,,,,,,,,,,,,LDT,right,0.6503868853615131,0,,,right,0,0.6503868853615131,,,,,,,,,,,,,,,,,,,,,,1048,2019_Mar_13_0952,mf_amp_cond2,3.0.4,59.98291687136277,
sgrawl,&&&&&&,right,nonword,,,,,,,,0,174,174,93,,,,,,,,,,,,,,,,,,,,,LDT,left,0.7337505267641973,0,,,left,0,0.7337505267641973,,,,,,,,,,,,,,,,,,,,,,1048,2019_Mar_13_0952,mf_amp_cond2,3.0.4,59.98291687136277,
three,&&&&&,left,neutral,,,,,,,,0,175,175,134,,,,,,,,,,,,,,,,,,,,,LDT,left,0.6170595174189657,1,,,left,1,0.6170595174189657,,,,,,,,,,,,,,,,,,,,,,1048,2019_Mar_13_0952,mf_amp_cond2,3.0.4,59.98291687136277,
latterly,&&&&&&&&,left,neutral,,,,,,,,0,176,176,66,,,,,,,,,,,,,,,,,,,,,LDT,right,0.7837550489348359,0,,,right,0,0.7837550489348359,,,,,,,,,,,,,,,,,,,,,,1048,2019_Mar_13_0952,mf_amp_cond2,3.0.4,59.98291687136277,
emassion,&&&&&&&&,right,nonword,,,,,,,,0,177,177,53,,,,,,,,,,,,,,,,,,,,,LDT,left,0.1002088533132337,0,,,left,0,0.1002088533132337,,,,,,,,,,,,,,,,,,,,,,1048,2019_Mar_13_0952,mf_amp_cond2,3.0.4,59.98291687136277,
sickyay,&&&&&&&,right,nonword,,,,,,,,0,178,178,12,,,,,,,,,,,,,,,,,,,,,LDT,right,0.7504116449854337,1,,,right,1,0.7504116449854337,,,,,,,,,,,,,,,,,,,,,,1048,2019_Mar_13_0952,mf_amp_cond2,3.0.4,59.98291687136277,
useful,&&&&&&,left,authority.virtue,,,,,,,,0,179,179,180,,,,,,,,,,,,,,,,,,,,,LDT,right,0.5670517880353145,0,,,right,0,0.5670517880353145,,,,,,,,,,,,,,,,,,,,,,1048,2019_Mar_13_0952,mf_amp_cond2,3.0.4,59.98291687136277,
good,&&&&,left,care.virtue,,,,,,,,0,180,180,147,,,,,,,,,,,,,,,,,,,,,LDT,right,0.45036302373046055,0,,,right,0,0.45036302373046055,,,,,,,,,,,,,,,,,,,,,,1048,2019_Mar_13_0952,mf_amp_cond2,3.0.4,59.98291687136277,
elsewhere,&&&&&&&&&,left,neutral,,,,,,,,0,181,181,170,,,,,,,,,,,,,,,,,,,,,LDT,right,0.4169990936643444,0,,,right,0,0.4169990936643444,,,,,,,,,,,,,,,,,,,,,,1048,2019_Mar_13_0952,mf_amp_cond2,3.0.4,59.98291687136277,
everything,&&&&&&&&&&,left,neutral,,,,,,,,0,182,182,128,,,,,,,,,,,,,,,,,,,,,LDT,right,0.483690391673008,0,,,right,0,0.483690391673008,,,,,,,,,,,,,,,,,,,,,,1048,2019_Mar_13_0952,mf_amp_cond2,3.0.4,59.98291687136277,
sowntrodden,&&&&&&&&&&&,right,nonword,,,,,,,,0,183,183,103,,,,,,,,,,,,,,,,,,,,,LDT,left,0.5837161134404596,0,,,left,0,0.5837161134404596,,,,,,,,,,,,,,,,,,,,,,1048,2019_Mar_13_0952,mf_amp_cond2,3.0.4,59.98291687136277,
bycled,&&&&&&,None,nonword,,,,,,,,0,184,184,99,,,,,,,,,,,,,,,,,,,,,LDT,left,0.9838010402745567,0,,,left,0,0.9838010402745567,,,,,,,,,,,,,,,,,,,,,,1048,2019_Mar_13_0952,mf_amp_cond2,3.0.4,59.98291687136277,
pullness,&&&&&&&&,right,nonword,,,,,,,,0,185,185,94,,,,,,,,,,,,,,,,,,,,,LDT,left,0.3169704853789881,0,,,left,0,0.3169704853789881,,,,,,,,,,,,,,,,,,,,,,1048,2019_Mar_13_0952,mf_amp_cond2,3.0.4,59.98291687136277,
galamitous,&&&&&&&&&&,right,nonword,,,,,,,,0,186,186,78,,,,,,,,,,,,,,,,,,,,,LDT,left,0.6837206677009817,0,,,left,0,0.6837206677009817,,,,,,,,,,,,,,,,,,,,,,1048,2019_Mar_13_0952,mf_amp_cond2,3.0.4,59.98291687136277,
gationwide,&&&&&&&&&&,right,nonword,,,,,,,,0,187,187,161,,,,,,,,,,,,,,,,,,,,,LDT,left,0.5503662950650323,0,,,left,0,0.5503662950650323,,,,,,,,,,,,,,,,,,,,,,1048,2019_Mar_13_0952,mf_amp_cond2,3.0.4,59.98291687136277,
chadows,&&&&&&&,right,nonword,,,,,,,,0,188,188,63,,,,,,,,,,,,,,,,,,,,,LDT,left,0.6670691711187828,0,,,left,0,0.6670691711187828,,,,,,,,,,,,,,,,,,,,,,1048,2019_Mar_13_0952,mf_amp_cond2,3.0.4,59.98291687136277,
interests,&&&&&&&&&,left,fairness.virtue,,,,,,,,0,189,189,58,,,,,,,,,,,,,,,,,,,,,LDT,left,0.5336917066306341,1,,,left,1,0.5336917066306341,,,,,,,,,,,,,,,,,,,,,,1048,2019_Mar_13_0952,mf_amp_cond2,3.0.4,59.98291687136277,
thru,&&&&,left,neutral,,,,,,,,0,190,190,16,,,,,,,,,,,,,,,,,,,,,LDT,left,0.6670659639057703,1,,,left,1,0.6670659639057703,,,,,,,,,,,,,,,,,,,,,,1048,2019_Mar_13_0952,mf_amp_cond2,3.0.4,59.98291687136277,
friends,&&&&&&&,left,loyalty.virtue,,,,,,,,0,191,191,124,,,,,,,,,,,,,,,,,,,,,LDT,right,1.0838274035195354,0,,,right,0,1.0838274035195354,,,,,,,,,,,,,,,,,,,,,,1048,2019_Mar_13_0952,mf_amp_cond2,3.0.4,59.98291687136277,
wonderfujnoss,&&&&&&&&&&&&&,right,nonword,,,,,,,,0,192,192,185,,,,,,,,,,,,,,,,,,,,,LDT,right,0.550367257266771,1,,,right,1,0.550367257266771,,,,,,,,,,,,,,,,,,,,,,1048,2019_Mar_13_0952,mf_amp_cond2,3.0.4,59.98291687136277,
less,&&&&,left,neutral,,,,,,,,0,193,193,165,,,,,,,,,,,,,,,,,,,,,LDT,left,0.4670138788642362,1,,,left,1,0.4670138788642362,,,,,,,,,,,,,,,,,,,,,,1048,2019_Mar_13_0952,mf_amp_cond2,3.0.4,59.98291687136277,
fighters,&&&&&&&&,left,authority.vice,,,,,,,,0,194,194,125,,,,,,,,,,,,,,,,,,,,,LDT,right,0.38366050049080513,0,,,right,0,0.38366050049080513,,,,,,,,,,,,,,,,,,,,,,1048,2019_Mar_13_0952,mf_amp_cond2,3.0.4,59.98291687136277,
wump,&&&&,right,nonword,,,,,,,,0,195,195,189,,,,,,,,,,,,,,,,,,,,,LDT,left,0.6837437595822848,0,,,left,0,0.6837437595822848,,,,,,,,,,,,,,,,,,,,,,1048,2019_Mar_13_0952,mf_amp_cond2,3.0.4,59.98291687136277,
intelligence,&&&&&&&&&&&&,left,loyalty.virtue,,,,,,,,0,196,196,83,,,,,,,,,,,,,,,,,,,,,LDT,right,0.6004009649914224,0,,,right,0,0.6004009649914224,,,,,,,,,,,,,,,,,,,,,,1048,2019_Mar_13_0952,mf_amp_cond2,3.0.4,59.98291687136277,
lorthwhile,&&&&&&&&&&,right,nonword,,,,,,,,0,197,197,133,,,,,,,,,,,,,,,,,,,,,LDT,right,0.5170100622926839,1,,,right,1,0.5170100622926839,,,,,,,,,,,,,,,,,,,,,,1048,2019_Mar_13_0952,mf_amp_cond2,3.0.4,59.98291687136277,
each,&&&&,left,neutral,,,,,,,,0,198,198,192,,,,,,,,,,,,,,,,,,,,,LDT,right,0.5837161134695634,0,,,right,0,0.5837161134695634,,,,,,,,,,,,,,,,,,,,,,1048,2019_Mar_13_0952,mf_amp_cond2,3.0.4,59.98291687136277,
there,&&&&&,left,neutral,,,,,,,,0,199,199,47,,,,,,,,,,,,,,,,,,,,,LDT,left,0.6503734150610399,1,,,left,1,0.6503734150610399,,,,,,,,,,,,,,,,,,,,,,1048,2019_Mar_13_0952,mf_amp_cond2,3.0.4,59.98291687136277,
,,,,,,,,,,,,,,,,,,,,,,,,,,,,,,,,,,,,,,,,,,,,5,11.438,,,,,,,,,,,,,,,,,,,,1048,2019_Mar_13_0952,mf_amp_cond2,3.0.4,59.98291687136277,
,,,,,,,,,,,,,,,,,,,,,,,,,,,,,,,,,,,,,,,,,,,,,,right,1.0838411945151165,,,,,,,,,,,,,,,,,,1048,2019_Mar_13_0952,mf_amp_cond2,3.0.4,59.98291687136277,
keyboard,&&&&,,,senk,,,,,,,,,,,0,0,0,2,,,,,,,,,,,,,,,,,AMP_prac,right,1.917391335038701,,,,,,,,,,,right,1.917391335038701,,,,,,,,,,,,,,,,1048,2019_Mar_13_0952,mf_amp_cond2,3.0.4,59.98291687136277,
scarf,&&&&&&&&,,,bisebell,,,,,,,,,,,0,1,1,3,,,,,,,,,,,,,,,,,AMP_prac,right,1.4005676114466041,,,,,,,,,,,right,1.4005676114466041,,,,,,,,,,,,,,,,1048,2019_Mar_13_0952,mf_amp_cond2,3.0.4,59.98291687136277,
banana,&&&&&&,,,kacket,,,,,,,,,,,0,2,2,1,,,,,,,,,,,,,,,,,AMP_prac,right,5.1181733802950475,,,,,,,,,,,right,5.1181733802950475,,,,,,,,,,,,,,,,1048,2019_Mar_13_0952,mf_amp_cond2,3.0.4,59.98291687136277,
car,&&&&&&&&,,,cemtuper,,,,,,,,,,,0,3,3,0,,,,,,,,,,,,,,,,,AMP_prac,right,2.317470168170985,,,,,,,,,,,right,2.317470168170985,,,,,,,,,,,,,,,,1048,2019_Mar_13_0952,mf_amp_cond2,3.0.4,59.98291687136277,
,,,,,,,,,,,,,,,,,,,,,,,,,,,,,,,,,,,,,,,,,,,,,,,,,,right,1.0171383505512495,,,,,,,,,,,,,,1048,2019_Mar_13_0952,mf_amp_cond2,3.0.4,59.98291687136277,
killed,&&&&&&&&&,right,care.vice,fangsters,,,,,,,,,,,,,,,0,0,0,249,,,,,,,,,,,,,AMP,left,1.0171399541723076,0,,,,,,,,,,,,,,left,0,1.0171399541723076,,,,,,,,,,,1048,2019_Mar_13_0952,mf_amp_cond2,3.0.4,59.98291687136277,
groups,&&&&&&&&&,right,loyalty.vice,gandbrake,,,,,,,,,,,,,,,0,1,1,213,,,,,,,,,,,,,AMP,left,0.567037355620414,0,,,,,,,,,,,,,,left,0,0.567037355620414,,,,,,,,,,,1048,2019_Mar_13_0952,mf_amp_cond2,3.0.4,59.98291687136277,
strong,&&&&&&&&&&,left,loyalty.virtue,supervuned,,,,,,,,,,,,,,,0,2,2,52,,,,,,,,,,,,,AMP,right,0.3502927217632532,0,,,,,,,,,,,,,,right,0,0.3502927217632532,,,,,,,,,,,1048,2019_Mar_13_0952,mf_amp_cond2,3.0.4,59.98291687136277,
troops,&&&&&,right,loyalty.vice,leact,,,,,,,,,,,,,,,0,3,3,287,,,,,,,,,,,,,AMP,left,1.000474345870316,0,,,,,,,,,,,,,,left,0,1.000474345870316,,,,,,,,,,,1048,2019_Mar_13_0952,mf_amp_cond2,3.0.4,59.98291687136277,
loyalty,&&&&&&&,left,loyalty.virtue,smapper,,,,,,,,,,,,,,,0,4,4,279,,,,,,,,,,,,,AMP,right,0.2669537758338265,0,,,,,,,,,,,,,,right,0,0.2669537758338265,,,,,,,,,,,1048,2019_Mar_13_0952,mf_amp_cond2,3.0.4,59.98291687136277,
slavery,&&&&&&,right,loyalty.vice,laming,,,,,,,,,,,,,,,0,5,5,98,,,,,,,,,,,,,AMP,left,0.7671057973930147,0,,,,,,,,,,,,,,left,0,0.7671057973930147,,,,,,,,,,,1048,2019_Mar_13_0952,mf_amp_cond2,3.0.4,59.98291687136277,
slending,&&&&&&&&&,None,nonword,crilfully,,,,,,,,,,,,,,,0,6,6,325,,,,,,,,,,,,,AMP,right,0.8337647026346531,0,,,,,,,,,,,,,,right,0,0.8337647026346531,,,,,,,,,,,1048,2019_Mar_13_0952,mf_amp_cond2,3.0.4,59.98291687136277,
promised,&&&&&&&&&&&&,left,loyalty.virtue,rorroborated,,,,,,,,,,,,,,,0,7,7,75,,,,,,,,,,,,,AMP,left,0.9171232125372626,1,,,,,,,,,,,,,,left,1,0.9171232125372626,,,,,,,,,,,1048,2019_Mar_13_0952,mf_amp_cond2,3.0.4,59.98291687136277,
harassment,&&&&&&&&&,right,sanctity.vice,Lacedonia,,,,,,,,,,,,,,,0,8,8,157,,,,,,,,,,,,,AMP,left,1.4172466899908613,0,,,,,,,,,,,,,,left,0,1.4172466899908613,,,,,,,,,,,1048,2019_Mar_13_0952,mf_amp_cond2,3.0.4,59.98291687136277,
slending,&&&&&,None,nonword,scock,,,,,,,,,,,,,,,0,9,9,88,,,,,,,,,,,,,AMP,left,1.267206503689522,0,,,,,,,,,,,,,,left,0,1.267206503689522,,,,,,,,,,,1048,2019_Mar_13_0952,mf_amp_cond2,3.0.4,59.98291687136277,
voter,&&&&&&&&&&,right,fairness.vice,supervuned,,,,,,,,,,,,,,,0,10,10,256,,,,,,,,,,,,,AMP,right,0.3836524824728258,1,,,,,,,,,,,,,,right,1,0.3836524824728258,,,,,,,,,,,1048,2019_Mar_13_0952,mf_amp_cond2,3.0.4,59.98291687136277,
penalty,&&&&&&&&,right,authority.vice,clamorek,,,,,,,,,,,,,,,0,11,11,137,,,,,,,,,,,,,AMP,left,0.7670772532583214,0,,,,,,,,,,,,,,left,0,0.7670772532583214,,,,,,,,,,,1048,2019_Mar_13_0952,mf_amp_cond2,3.0.4,59.98291687136277,
support,&&&&&&&&&&&&&,left,loyalty.virtue,esquisiteness,,,,,,,,,,,,,,,0,12,12,177,,,,,,,,,,,,,AMP,right,1.1505135700281244,0,,,,,,,,,,,,,,right,0,1.1505135700281244,,,,,,,,,,,1048,2019_Mar_13_0952,mf_amp_cond2,3.0.4,59.98291687136277,
pumber,&&&&,None,nonword,tove,,,,,,,,,,,,,,,0,13,13,146,,,,,,,,,,,,,AMP,right,0.8837740356102586,0,,,,,,,,,,,,,,right,0,0.8837740356102586,,,,,,,,,,,1048,2019_Mar_13_0952,mf_amp_cond2,3.0.4,59.98291687136277,
dignity,&&&&&&&&&&&&,left,sanctity.virtue,quarterbocks,,,,,,,,,,,,,,,0,14,14,72,,,,,,,,,,,,,AMP,right,1.016988574003335,0,,,,,,,,,,,,,,right,0,1.016988574003335,,,,,,,,,,,1048,2019_Mar_13_0952,mf_amp_cond2,3.0.4,59.98291687136277,
perfect,&&&&&&&&&,left,sanctity.virtue,reprisols,,,,,,,,,,,,,,,0,15,15,103,,,,,,,,,,,,,AMP,right,1.3339125548664015,0,,,,,,,,,,,,,,right,0,1.3339125548664015,,,,,,,,,,,1048,2019_Mar_13_0952,mf_amp_cond2,3.0.4,59.98291687136277,
pleasant,&&&&&&,None,control,gazily,,,,,,,,,,,,,,,0,16,16,289,,,,,,,,,,,,,AMP,right,0.2002775516884867,0,,,,,,,,,,,,,,right,0,0.2002775516884867,,,,,,,,,,,1048,2019_Mar_13_0952,mf_amp_cond2,3.0.4,59.98291687136277,
dignity,&&&&&&&&,left,sanctity.virtue,ebbitter,,,,,,,,,,,,,,,0,17,17,250,,,,,,,,,,,,,AMP,right,0.16693510985351168,0,,,,,,,,,,,,,,right,0,0.16693510985351168,,,,,,,,,,,1048,2019_Mar_13_0952,mf_amp_cond2,3.0.4,59.98291687136277,
died,&&&&&&&&&&&&,right,care.vice,rorroborated,,,,,,,,,,,,,,,0,18,18,315,,,,,,,,,,,,,AMP,left,0.08358942880295217,0,,,,,,,,,,,,,,left,0,0.08358942880295217,,,,,,,,,,,1048,2019_Mar_13_0952,mf_amp_cond2,3.0.4,59.98291687136277,
victims,&&&&&,right,care.vice,scock,,,,,,,,,,,,,,,0,19,19,27,,,,,,,,,,,,,AMP,right,0.05023191310465336,1,,,,,,,,,,,,,,right,1,0.05023191310465336,,,,,,,,,,,1048,2019_Mar_13_0952,mf_amp_cond2,3.0.4,59.98291687136277,
protect,&&&&&&&&&&&&,left,fairness.virtue,rorroborated,,,,,,,,,,,,,,,0,20,20,179,,,,,,,,,,,,,AMP,left,0.08357307201367803,1,,,,,,,,,,,,,,left,1,0.08357307201367803,,,,,,,,,,,1048,2019_Mar_13_0952,mf_amp_cond2,3.0.4,59.98291687136277,
injured,&&&&&&&&&&,right,care.vice,chonograph,,,,,,,,,,,,,,,0,21,21,203,,,,,,,,,,,,,AMP,right,1.2338756078388542,1,,,,,,,,,,,,,,right,1,1.2338756078388542,,,,,,,,,,,1048,2019_Mar_13_0952,mf_amp_cond2,3.0.4,59.98291687136277,
racist,&&&&&,right,sanctity.vice,touls,,,,,,,,,,,,,,,0,22,22,194,,,,,,,,,,,,,AMP,left,0.13359747888171114,0,,,,,,,,,,,,,,left,0,0.13359747888171114,,,,,,,,,,,1048,2019_Mar_13_0952,mf_amp_cond2,3.0.4,59.98291687136277,
health,&&&&&&&&&,left,care.virtue,crilfully,,,,,,,,,,,,,,,0,23,23,49,,,,,,,,,,,,,AMP,right,0.1835975109715946,0,,,,,,,,,,,,,,right,0,0.1835975109715946,,,,,,,,,,,1048,2019_Mar_13_0952,mf_amp_cond2,3.0.4,59.98291687136277,
integrity,&&&&&&&,left,fairness.virtue,Daptist,,,,,,,,,,,,,,,0,24,24,199,,,,,,,,,,,,,AMP,left,0.3503093992185313,1,,,,,,,,,,,,,,left,1,0.3503093992185313,,,,,,,,,,,1048,2019_Mar_13_0952,mf_amp_cond2,3.0.4,59.98291687136277,
riot,&&&&&&&&&&,right,authority.vice,simplustic,,,,,,,,,,,,,,,0,25,25,238,,,,,,,,,,,,,AMP,left,0.10024958485155366,0,,,,,,,,,,,,,,left,0,0.10024958485155366,,,,,,,,,,,1048,2019_Mar_13_0952,mf_amp_cond2,3.0.4,59.98291687136277,
respect,&&&&&&&&&&,left,sanctity.virtue,pistraught,,,,,,,,,,,,,,,0,26,26,288,,,,,,,,,,,,,AMP,right,0.1335949131171219,0,,,,,,,,,,,,,,right,0,0.1335949131171219,,,,,,,,,,,1048,2019_Mar_13_0952,mf_amp_cond2,3.0.4,59.98291687136277,
great,&&&&&&&&&,left,loyalty.virtue,tenuflect,,,,,,,,,,,,,,,0,27,27,233,,,,,,,,,,,,,AMP,right,0.20026183637673967,0,,,,,,,,,,,,,,right,0,0.20026183637673967,,,,,,,,,,,1048,2019_Mar_13_0952,mf_amp_cond2,3.0.4,59.98291687136277,
men,&&&&,right,loyalty.vice,juck,,,,,,,,,,,,,,,0,28,28,265,,,,,,,,,,,,,AMP,left,0.45034442192991264,0,,,,,,,,,,,,,,left,0,0.45034442192991264,,,,,,,,,,,1048,2019_Mar_13_0952,mf_amp_cond2,3.0.4,59.98291687136277,
lies,&&&&&&&&&&&,right,fairness.vice,blunderints,,,,,,,,,,,,,,,0,29,29,3,,,,,,,,,,,,,AMP,right,0.7502740558120422,1,,,,,,,,,,,,,,right,1,0.7502740558120422,,,,,,,,,,,1048,2019_Mar_13_0952,mf_amp_cond2,3.0.4,59.98291687136277,
support,&&&&&&&&&&,left,loyalty.virtue,pistraught,,,,,,,,,,,,,,,0,30,30,112,,,,,,,,,,,,,AMP,right,0.4170308450120501,0,,,,,,,,,,,,,,right,0,0.4170308450120501,,,,,,,,,,,1048,2019_Mar_13_0952,mf_amp_cond2,3.0.4,59.98291687136277,
loyalty,&&&&&&,left,loyalty.virtue,Boeinf,,,,,,,,,,,,,,,0,31,31,94,,,,,,,,,,,,,AMP,right,0.15027302948874421,0,,,,,,,,,,,,,,right,0,0.15027302948874421,,,,,,,,,,,1048,2019_Mar_13_0952,mf_amp_cond2,3.0.4,59.98291687136277,
trust,&&&&&&&&&&,left,authority.virtue,elduringly,,,,,,,,,,,,,,,0,32,32,117,,,,,,,,,,,,,AMP,right,0.21695598878432065,0,,,,,,,,,,,,,,right,0,0.21695598878432065,,,,,,,,,,,1048,2019_Mar_13_0952,mf_amp_cond2,3.0.4,59.98291687136277,
faith,&&&&&&&&&&&&,left,sanctity.virtue,quarterbocks,,,,,,,,,,,,,,,0,33,33,324,,,,,,,,,,,,,AMP,right,0.3169701646256726,0,,,,,,,,,,,,,,right,0,0.3169701646256726,,,,,,,,,,,1048,2019_Mar_13_0952,mf_amp_cond2,3.0.4,59.98291687136277,
officers,&&&,right,authority.vice,asn,,,,,,,,,,,,,,,0,34,34,214,,,,,,,,,,,,,AMP,left,0.38364895453560166,0,,,,,,,,,,,,,,left,0,0.38364895453560166,,,,,,,,,,,1048,2019_Mar_13_0952,mf_amp_cond2,3.0.4,59.98291687136277,
prison,&&&&&&,right,fairness.vice,erdest,,,,,,,,,,,,,,,0,35,35,38,,,,,,,,,,,,,AMP,right,0.5836991152609698,1,,,,,,,,,,,,,,right,1,0.5836991152609698,,,,,,,,,,,1048,2019_Mar_13_0952,mf_amp_cond2,3.0.4,59.98291687136277,
slavery,&&&&&,right,loyalty.vice,touls,,,,,,,,,,,,,,,0,36,36,268,,,,,,,,,,,,,AMP,right,1.0004701765137725,1,,,,,,,,,,,,,,right,1,1.0004701765137725,,,,,,,,,,,1048,2019_Mar_13_0952,mf_amp_cond2,3.0.4,59.98291687136277,
progress,&&&&,left,authority.virtue,juck,,,,,,,,,,,,,,,0,37,37,207,,,,,,,,,,,,,AMP,left,0.4003171286021825,1,,,,,,,,,,,,,,left,1,0.4003171286021825,,,,,,,,,,,1048,2019_Mar_13_0952,mf_amp_cond2,3.0.4,59.98291687136277,
baklara,&&&&&&&&&,None,nonword,refuejing,,,,,,,,,,,,,,,0,38,38,129,,,,,,,,,,,,,AMP,left,0.6503795087628532,0,,,,,,,,,,,,,,left,0,0.6503795087628532,,,,,,,,,,,1048,2019_Mar_13_0952,mf_amp_cond2,3.0.4,59.98291687136277,
shot,&&&&&&&&,right,care.vice,framatic,,,,,,,,,,,,,,,0,39,39,43,,,,,,,,,,,,,AMP,right,0.6003348965314217,1,,,,,,,,,,,,,,right,1,0.6003348965314217,,,,,,,,,,,1048,2019_Mar_13_0952,mf_amp_cond2,3.0.4,59.98291687136277,
men,&&&&&&&,right,loyalty.vice,smapper,,,,,,,,,,,,,,,0,40,40,220,,,,,,,,,,,,,AMP,left,0.9171270611986984,0,,,,,,,,,,,,,,left,0,0.9171270611986984,,,,,,,,,,,1048,2019_Mar_13_0952,mf_amp_cond2,3.0.4,59.98291687136277,
praise,&&&&&&&&&,left,authority.virtue,disregord,,,,,,,,,,,,,,,0,41,41,218,,,,,,,,,,,,,AMP,right,0.3836483131162822,0,,,,,,,,,,,,,,right,0,0.3836483131162822,,,,,,,,,,,1048,2019_Mar_13_0952,mf_amp_cond2,3.0.4,59.98291687136277,
voter,&&&&&&&&&&,right,fairness.vice,abointment,,,,,,,,,,,,,,,0,42,42,119,,,,,,,,,,,,,AMP,right,0.2836283642682247,1,,,,,,,,,,,,,,right,1,0.2836283642682247,,,,,,,,,,,1048,2019_Mar_13_0952,mf_amp_cond2,3.0.4,59.98291687136277,
credit,&&&&&,left,fairness.virtue,ablow,,,,,,,,,,,,,,,0,43,43,153,,,,,,,,,,,,,AMP,right,0.2336122962005902,0,,,,,,,,,,,,,,right,0,0.2336122962005902,,,,,,,,,,,1048,2019_Mar_13_0952,mf_amp_cond2,3.0.4,59.98291687136277,
hescribe,&&&&&&&,None,nonword,brudent,,,,,,,,,,,,,,,0,44,44,100,,,,,,,,,,,,,AMP,left,0.8004328446113504,0,,,,,,,,,,,,,,left,0,0.8004328446113504,,,,,,,,,,,1048,2019_Mar_13_0952,mf_amp_cond2,3.0.4,59.98291687136277,
faith,&&&&&&&&&&&&,left,sanctity.virtue,edancipation,,,,,,,,,,,,,,,0,45,45,96,,,,,,,,,,,,,AMP,left,0.8837878265767358,1,,,,,,,,,,,,,,left,1,0.8837878265767358,,,,,,,,,,,1048,2019_Mar_13_0952,mf_amp_cond2,3.0.4,59.98291687136277,
benefit,&&&&&&&&,left,fairness.virtue,framatic,,,,,,,,,,,,,,,0,46,46,280,,,,,,,,,,,,,AMP,right,0.20029070123564452,0,,,,,,,,,,,,,,right,0,0.20029070123564452,,,,,,,,,,,1048,2019_Mar_13_0952,mf_amp_cond2,3.0.4,59.98291687136277,
lies,&&&&&&&&&,right,fairness.vice,seachwear,,,,,,,,,,,,,,,0,47,47,175,,,,,,,,,,,,,AMP,left,0.85044025327079,0,,,,,,,,,,,,,,left,0,0.85044025327079,,,,,,,,,,,1048,2019_Mar_13_0952,mf_amp_cond2,3.0.4,59.98291687136277,
injured,&&&&&&&&&&,right,care.vice,imebreaker,,,,,,,,,,,,,,,0,48,48,293,,,,,,,,,,,,,AMP,left,0.43366855059866793,0,,,,,,,,,,,,,,left,0,0.43366855059866793,,,,,,,,,,,1048,2019_Mar_13_0952,mf_amp_cond2,3.0.4,59.98291687136277,
help,&&&&&&&&&,left,care.virtue,reprisols,,,,,,,,,,,,,,,0,49,49,276,,,,,,,,,,,,,AMP,left,0.7170650338230189,1,,,,,,,,,,,,,,left,1,0.7170650338230189,,,,,,,,,,,1048,2019_Mar_13_0952,mf_amp_cond2,3.0.4,59.98291687136277,
praise,&&&&&,left,authority.virtue,aubos,,,,,,,,,,,,,,,0,50,50,139,,,,,,,,,,,,,AMP,left,0.33363962155999616,1,,,,,,,,,,,,,,left,1,0.33363962155999616,,,,,,,,,,,1048,2019_Mar_13_0952,mf_amp_cond2,3.0.4,59.98291687136277,
abuse,&&&&&&&&&,right,sanctity.vice,fangsters,,,,,,,,,,,,,,,0,51,51,232,,,,,,,,,,,,,AMP,left,0.26696115237427875,0,,,,,,,,,,,,,,left,0,0.26696115237427875,,,,,,,,,,,1048,2019_Mar_13_0952,mf_amp_cond2,3.0.4,59.98291687136277,
death,&&&&&&,right,care.vice,gikely,,,,,,,,,,,,,,,0,52,52,309,,,,,,,,,,,,,AMP,left,0.2336106925504282,0,,,,,,,,,,,,,,left,0,0.2336106925504282,,,,,,,,,,,1048,2019_Mar_13_0952,mf_amp_cond2,3.0.4,59.98291687136277,
sharing,&&&&&&&&&,left,loyalty.virtue,seachwear,,,,,,,,,,,,,,,0,53,53,26,,,,,,,,,,,,,AMP,right,0.2836546633625403,0,,,,,,,,,,,,,,right,0,0.2836546633625403,,,,,,,,,,,1048,2019_Mar_13_0952,mf_amp_cond2,3.0.4,59.98291687136277,
care,&&&&&&&&,left,care.virtue,clamorek,,,,,,,,,,,,,,,0,54,54,64,,,,,,,,,,,,,AMP,right,0.4169853026687633,0,,,,,,,,,,,,,,right,0,0.4169853026687633,,,,,,,,,,,1048,2019_Mar_13_0952,mf_amp_cond2,3.0.4,59.98291687136277,
arrests,&&&&&&&&,right,authority.vice,sliptery,,,,,,,,,,,,,,,0,55,55,2,,,,,,,,,,,,,AMP,left,0.3336553368717432,0,,,,,,,,,,,,,,left,0,0.3336553368717432,,,,,,,,,,,1048,2019_Mar_13_0952,mf_amp_cond2,3.0.4,59.98291687136277,
fegard,&&&&&&&,None,nonword,nackers,,,,,,,,,,,,,,,0,56,56,190,,,,,,,,,,,,,AMP,right,0.2502910540206358,0,,,,,,,,,,,,,,right,0,0.2502910540206358,,,,,,,,,,,1048,2019_Mar_13_0952,mf_amp_cond2,3.0.4,59.98291687136277,
violence,&&&&&&&&&&,right,care.vice,imebreaker,,,,,,,,,,,,,,,0,57,57,144,,,,,,,,,,,,,AMP,left,0.1335936302493792,0,,,,,,,,,,,,,,left,0,0.1335936302493792,,,,,,,,,,,1048,2019_Mar_13_0952,mf_amp_cond2,3.0.4,59.98291687136277,
terrorists,&&&&&&&&&,right,fairness.vice,tenuflect,,,,,,,,,,,,,,,0,58,58,272,,,,,,,,,,,,,AMP,left,0.08358622158993967,0,,,,,,,,,,,,,,left,0,0.08358622158993967,,,,,,,,,,,1048,2019_Mar_13_0952,mf_amp_cond2,3.0.4,59.98291687136277,
voter,&&&&&&&&&&&&,right,fairness.vice,bruthfulness,,,,,,,,,,,,,,,0,59,59,61,,,,,,,,,,,,,AMP,right,1.1171720903657842,1,,,,,,,,,,,,,,right,1,1.1171720903657842,,,,,,,,,,,1048,2019_Mar_13_0952,mf_amp_cond2,3.0.4,59.98291687136277,
penalty,&&&&&&&&&&&&,right,authority.vice,nonobservalt,,,,,,,,,,,,,,,0,60,60,227,,,,,,,,,,,,,AMP,left,0.4003366925462615,0,,,,,,,,,,,,,,left,0,0.4003366925462615,,,,,,,,,,,1048,2019_Mar_13_0952,mf_amp_cond2,3.0.4,59.98291687136277,
arrests,&&&&&&,right,authority.vice,chared,,,,,,,,,,,,,,,0,61,61,124,,,,,,,,,,,,,AMP,right,0.9004720366792753,1,,,,,,,,,,,,,,right,1,0.9004720366792753,,,,,,,,,,,1048,2019_Mar_13_0952,mf_amp_cond2,3.0.4,59.98291687136277,
perfect,&&&&&&,left,sanctity.virtue,forepo,,,,,,,,,,,,,,,0,62,62,187,,,,,,,,,,,,,AMP,right,0.1335884986910969,0,,,,,,,,,,,,,,right,0,0.1335884986910969,,,,,,,,,,,1048,2019_Mar_13_0952,mf_amp_cond2,3.0.4,59.98291687136277,
integrity,&&&&&&,left,fairness.virtue,gazily,,,,,,,,,,,,,,,0,63,63,97,,,,,,,,,,,,,AMP,right,0.26695249293698,0,,,,,,,,,,,,,,right,0,0.26695249293698,,,,,,,,,,,1048,2019_Mar_13_0952,mf_amp_cond2,3.0.4,59.98291687136277,
slending,&&&&&&&&&&&&,None,nonword,feleological,,,,,,,,,,,,,,,0,64,64,178,,,,,,,,,,,,,AMP,right,0.20027049581403844,0,,,,,,,,,,,,,,right,0,0.20027049581403844,,,,,,,,,,,1048,2019_Mar_13_0952,mf_amp_cond2,3.0.4,59.98291687136277,
abuse,&&&&&&&&,right,sanctity.vice,ebbitter,,,,,,,,,,,,,,,0,65,65,109,,,,,,,,,,,,,AMP,right,0.5503579563228413,1,,,,,,,,,,,,,,right,1,0.5503579563228413,,,,,,,,,,,1048,2019_Mar_13_0952,mf_amp_cond2,3.0.4,59.98291687136277,
riot,&&&&&&,right,authority.vice,erdest,,,,,,,,,,,,,,,0,66,66,91,,,,,,,,,,,,,AMP,right,0.35031260646064766,1,,,,,,,,,,,,,,right,1,0.35031260646064766,,,,,,,,,,,1048,2019_Mar_13_0952,mf_amp_cond2,3.0.4,59.98291687136277,
died,&&&&,right,care.vice,coom,,,,,,,,,,,,,,,0,67,67,82,,,,,,,,,,,,,AMP,left,0.4503405732684769,0,,,,,,,,,,,,,,left,0,0.4503405732684769,,,,,,,,,,,1048,2019_Mar_13_0952,mf_amp_cond2,3.0.4,59.98291687136277,
fraud,&&&&&&,right,fairness.vice,strofe,,,,,,,,,,,,,,,0,68,68,281,,,,,,,,,,,,,AMP,left,0.35030971994274296,0,,,,,,,,,,,,,,left,0,0.35030971994274296,,,,,,,,,,,1048,2019_Mar_13_0952,mf_amp_cond2,3.0.4,59.98291687136277,
slavery,&&&&&&&&&&,right,loyalty.vice,elduringly,,,,,,,,,,,,,,,0,69,69,193,,,,,,,,,,,,,AMP,right,1.133842188748531,1,,,,,,,,,,,,,,right,1,1.133842188748531,,,,,,,,,,,1048,2019_Mar_13_0952,mf_amp_cond2,3.0.4,59.98291687136277,
compassion,&&&&&&&&&&&&,left,care.virtue,iptervention,,,,,,,,,,,,,,,0,70,70,160,,,,,,,,,,,,,AMP,right,0.10024220825289376,0,,,,,,,,,,,,,,right,0,0.10024220825289376,,,,,,,,,,,1048,2019_Mar_13_0952,mf_amp_cond2,3.0.4,59.98291687136277,
ban,&&&&&&&&,right,loyalty.vice,thadowed,,,,,,,,,,,,,,,0,71,71,298,,,,,,,,,,,,,AMP,right,0.7170602230180521,1,,,,,,,,,,,,,,right,1,0.7170602230180521,,,,,,,,,,,1048,2019_Mar_13_0952,mf_amp_cond2,3.0.4,59.98291687136277,
unscothed,&&&&&&&&&,None,nonword,disregord,,,,,,,,,,,,,,,0,72,72,99,,,,,,,,,,,,,AMP,left,0.25028528104303405,0,,,,,,,,,,,,,,left,0,0.25028528104303405,,,,,,,,,,,1048,2019_Mar_13_0952,mf_amp_cond2,3.0.4,59.98291687136277,
prosecution,&&&&&&&&&&&&,right,authority.vice,feleological,,,,,,,,,,,,,,,0,73,73,44,,,,,,,,,,,,,AMP,right,0.05025436356663704,1,,,,,,,,,,,,,,right,1,0.05025436356663704,,,,,,,,,,,1048,2019_Mar_13_0952,mf_amp_cond2,3.0.4,59.98291687136277,
improve,&&&&&&&&&&,left,care.virtue,supervuned,,,,,,,,,,,,,,,0,74,74,215,,,,,,,,,,,,,AMP,right,0.400331561017083,0,,,,,,,,,,,,,,right,0,0.400331561017083,,,,,,,,,,,1048,2019_Mar_13_0952,mf_amp_cond2,3.0.4,59.98291687136277,
groups,&&&&&&&,right,loyalty.vice,troubla,,,,,,,,,,,,,,,0,75,75,110,,,,,,,,,,,,,AMP,right,0.3336306413693819,1,,,,,,,,,,,,,,right,1,0.3336306413693819,,,,,,,,,,,1048,2019_Mar_13_0952,mf_amp_cond2,3.0.4,59.98291687136277,
freedom,&&&&&&&&&,left,sanctity.virtue,brotesque,,,,,,,,,,,,,,,0,76,76,14,,,,,,,,,,,,,AMP,right,0.3169631087803282,0,,,,,,,,,,,,,,right,0,0.3169631087803282,,,,,,,,,,,1048,2019_Mar_13_0952,mf_amp_cond2,3.0.4,59.98291687136277,
promised,&&&&&&&&&&,left,loyalty.virtue,chonograph,,,,,,,,,,,,,,,0,77,77,126,,,,,,,,,,,,,AMP,right,0.1002024388872087,0,,,,,,,,,,,,,,right,0,0.1002024388872087,,,,,,,,,,,1048,2019_Mar_13_0952,mf_amp_cond2,3.0.4,59.98291687136277,
sexual,&&&&&&,right,sanctity.vice,forepo,,,,,,,,,,,,,,,0,78,78,260,,,,,,,,,,,,,AMP,right,0.33365020534256473,1,,,,,,,,,,,,,,right,1,0.33365020534256473,,,,,,,,,,,1048,2019_Mar_13_0952,mf_amp_cond2,3.0.4,59.98291687136277,
letish,&&&&&&&&&&&&,None,nonword,rorroborated,,,,,,,,,,,,,,,0,79,79,93,,,,,,,,,,,,,AMP,right,0.4003395790641662,0,,,,,,,,,,,,,,right,0,0.4003395790641662,,,,,,,,,,,1048,2019_Mar_13_0952,mf_amp_cond2,3.0.4,59.98291687136277,
dignity,&&&&&&&&&&&&,left,sanctity.virtue,bruthfulness,,,,,,,,,,,,,,,0,80,80,202,,,,,,,,,,,,,AMP,right,0.2669605109549593,0,,,,,,,,,,,,,,right,0,0.2669605109549593,,,,,,,,,,,1048,2019_Mar_13_0952,mf_amp_cond2,3.0.4,59.98291687136277,
troops,&&&&&&&&&&&&&,right,loyalty.vice,esquisiteness,,,,,,,,,,,,,,,0,81,81,149,,,,,,,,,,,,,AMP,left,0.15028329254710115,0,,,,,,,,,,,,,,left,0,0.15028329254710115,,,,,,,,,,,1048,2019_Mar_13_0952,mf_amp_cond2,3.0.4,59.98291687136277,
freedom,&&&&&&&&,left,sanctity.virtue,suggists,,,,,,,,,,,,,,,0,82,82,92,,,,,,,,,,,,,AMP,right,0.0002344468084629625,0,,,,,,,,,,,,,,right,0,0.0002344468084629625,,,,,,,,,,,1048,2019_Mar_13_0952,mf_amp_cond2,3.0.4,59.98291687136277,
peaceful,&&&&&&&&&&,left,authority.virtue,ecgagement,,,,,,,,,,,,,,,0,83,83,247,,,,,,,,,,,,,AMP,right,0.28363125075702555,0,,,,,,,,,,,,,,right,0,0.28363125075702555,,,,,,,,,,,1048,2019_Mar_13_0952,mf_amp_cond2,3.0.4,59.98291687136277,
ban,&&&&&&&&&&&&,right,loyalty.vice,nonobservalt,,,,,,,,,,,,,,,0,84,84,6,,,,,,,,,,,,,AMP,left,0.23362320067826658,0,,,,,,,,,,,,,,left,0,0.23362320067826658,,,,,,,,,,,1048,2019_Mar_13_0952,mf_amp_cond2,3.0.4,59.98291687136277,
killed,&&&&&&&&,right,care.vice,thadowed,,,,,,,,,,,,,,,0,85,85,71,,,,,,,,,,,,,AMP,right,0.10024188752868213,1,,,,,,,,,,,,,,right,1,0.10024188752868213,,,,,,,,,,,1048,2019_Mar_13_0952,mf_amp_cond2,3.0.4,59.98291687136277,
letish,&&&&&&&&&&,None,nonword,chonograph,,,,,,,,,,,,,,,0,86,86,303,,,,,,,,,,,,,AMP,left,0.11692000392940827,0,,,,,,,,,,,,,,left,0,0.11692000392940827,,,,,,,,,,,1048,2019_Mar_13_0952,mf_amp_cond2,3.0.4,59.98291687136277,
conspiracy,&&&&&&&,right,sanctity.vice,emports,,,,,,,,,,,,,,,0,87,87,11,,,,,,,,,,,,,AMP,right,0.3669772525609005,1,,,,,,,,,,,,,,right,1,0.3669772525609005,,,,,,,,,,,1048,2019_Mar_13_0952,mf_amp_cond2,3.0.4,59.98291687136277,
slavery,&&&&&&&&&&&&,right,loyalty.vice,iptervention,,,,,,,,,,,,,,,0,88,88,25,,,,,,,,,,,,,AMP,left,0.9838087375683244,0,,,,,,,,,,,,,,left,0,0.9838087375683244,,,,,,,,,,,1048,2019_Mar_13_0952,mf_amp_cond2,3.0.4,59.98291687136277,
powerful,&&&&&&&&&&,left,authority.virtue,supervuned,,,,,,,,,,,,,,,0,89,89,120,,,,,,,,,,,,,AMP,right,0.31698331420193426,0,,,,,,,,,,,,,,right,0,0.31698331420193426,,,,,,,,,,,1048,2019_Mar_13_0952,mf_amp_cond2,3.0.4,59.98291687136277,
great,&&&&&,left,loyalty.virtue,leact,,,,,,,,,,,,,,,0,90,90,21,,,,,,,,,,,,,AMP,right,0.517024815431796,0,,,,,,,,,,,,,,right,0,0.517024815431796,,,,,,,,,,,1048,2019_Mar_13_0952,mf_amp_cond2,3.0.4,59.98291687136277,
compassion,&&&&&&&&&&&,left,care.virtue,egpeditious,,,,,,,,,,,,,,,0,91,91,204,,,,,,,,,,,,,AMP,right,0.08359135311911814,0,,,,,,,,,,,,,,right,0,0.08359135311911814,,,,,,,,,,,1048,2019_Mar_13_0952,mf_amp_cond2,3.0.4,59.98291687136277,
energy,&&&&&&&&&&&&&,left,sanctity.virtue,idexpressible,,,,,,,,,,,,,,,0,92,92,128,,,,,,,,,,,,,AMP,right,0.15024673042353243,0,,,,,,,,,,,,,,right,0,0.15024673042353243,,,,,,,,,,,1048,2019_Mar_13_0952,mf_amp_cond2,3.0.4,59.98291687136277,
divility,&&&&&&,None,nonword,gazily,,,,,,,,,,,,,,,0,93,93,18,,,,,,,,,,,,,AMP,right,0.4503210093243979,0,,,,,,,,,,,,,,right,0,0.4503210093243979,,,,,,,,,,,1048,2019_Mar_13_0952,mf_amp_cond2,3.0.4,59.98291687136277,
hescribe,&&&&&,None,nonword,touls,,,,,,,,,,,,,,,0,94,94,77,,,,,,,,,,,,,AMP,right,0.2836174597905483,0,,,,,,,,,,,,,,right,0,0.2836174597905483,,,,,,,,,,,1048,2019_Mar_13_0952,mf_amp_cond2,3.0.4,59.98291687136277,
divility,&&&&&&&&&&&&,None,nonword,edancipation,,,,,,,,,,,,,,,0,95,95,275,,,,,,,,,,,,,AMP,left,0.6837155361426994,0,,,,,,,,,,,,,,left,0,0.6837155361426994,,,,,,,,,,,1048,2019_Mar_13_0952,mf_amp_cond2,3.0.4,59.98291687136277,
officers,&&&&&&&&&,right,authority.vice,tenuflect,,,,,,,,,,,,,,,0,96,96,63,,,,,,,,,,,,,AMP,right,0.9004524727351964,1,,,,,,,,,,,,,,right,1,0.9004524727351964,,,,,,,,,,,1048,2019_Mar_13_0952,mf_amp_cond2,3.0.4,59.98291687136277,
shot,&&&&,right,care.vice,alar,,,,,,,,,,,,,,,0,97,97,304,,,,,,,,,,,,,AMP,left,0.10025311275967397,0,,,,,,,,,,,,,,left,0,0.10025311275967397,,,,,,,,,,,1048,2019_Mar_13_0952,mf_amp_cond2,3.0.4,59.98291687136277,
pleasant,&&&&&&&&,None,control,bluently,,,,,,,,,,,,,,,0,98,98,188,,,,,,,,,,,,,AMP,right,0.166931902669603,0,,,,,,,,,,,,,,right,0,0.166931902669603,,,,,,,,,,,1048,2019_Mar_13_0952,mf_amp_cond2,3.0.4,59.98291687136277,
critics,&&&,right,loyalty.vice,asn,,,,,,,,,,,,,,,0,99,99,142,,,,,,,,,,,,,AMP,left,0.13359042300726287,0,,,,,,,,,,,,,,left,0,0.13359042300726287,,,,,,,,,,,1048,2019_Mar_13_0952,mf_amp_cond2,3.0.4,59.98291687136277,
blamed,&&&&&&&&,right,loyalty.vice,fontacts,,,,,,,,,,,,,,,0,100,100,132,,,,,,,,,,,,,AMP,left,0.4668692338455003,0,,,,,,,,,,,,,,left,0,0.4668692338455003,,,,,,,,,,,1048,2019_Mar_13_0952,mf_amp_cond2,3.0.4,59.98291687136277,
protesters,&&&&&&,right,authority.vice,Cunday,,,,,,,,,,,,,,,0,101,101,217,,,,,,,,,,,,,AMP,right,0.1336295509536285,1,,,,,,,,,,,,,,right,1,0.1336295509536285,,,,,,,,,,,1048,2019_Mar_13_0952,mf_amp_cond2,3.0.4,59.98291687136277,
arrests,&&&&&&&&,right,authority.vice,fontacts,,,,,,,,,,,,,,,0,102,102,267,,,,,,,,,,,,,AMP,left,0.30032155456137843,0,,,,,,,,,,,,,,left,0,0.30032155456137843,,,,,,,,,,,1048,2019_Mar_13_0952,mf_amp_cond2,3.0.4,59.98291687136277,
dignity,&&&&&&&,left,sanctity.virtue,smapper,,,,,,,,,,,,,,,0,103,103,145,,,,,,,,,,,,,AMP,right,0.300286916695768,0,,,,,,,,,,,,,,right,0,0.300286916695768,,,,,,,,,,,1048,2019_Mar_13_0952,mf_amp_cond2,3.0.4,59.98291687136277,
serial,&&&&&&&&,right,sanctity.vice,lachelor,,,,,,,,,,,,,,,0,104,104,130,,,,,,,,,,,,,AMP,left,0.23361197544727474,0,,,,,,,,,,,,,,left,0,0.23361197544727474,,,,,,,,,,,1048,2019_Mar_13_0952,mf_amp_cond2,3.0.4,59.98291687136277,
help,&&&&&&&&&,left,care.virtue,refuejing,,,,,,,,,,,,,,,0,105,105,41,,,,,,,,,,,,,AMP,right,0.45033031023922376,0,,,,,,,,,,,,,,right,0,0.45033031023922376,,,,,,,,,,,1048,2019_Mar_13_0952,mf_amp_cond2,3.0.4,59.98291687136277,
officers,&&&&&&&&,right,authority.vice,crinking,,,,,,,,,,,,,,,0,106,106,301,,,,,,,,,,,,,AMP,left,0.30031738517573103,0,,,,,,,,,,,,,,left,0,0.30031738517573103,,,,,,,,,,,1048,2019_Mar_13_0952,mf_amp_cond2,3.0.4,59.98291687136277,
compassion,&&&&&&&,left,care.virtue,emports,,,,,,,,,,,,,,,0,107,107,282,,,,,,,,,,,,,AMP,right,0.23361005113110878,0,,,,,,,,,,,,,,right,0,0.23361005113110878,,,,,,,,,,,1048,2019_Mar_13_0952,mf_amp_cond2,3.0.4,59.98291687136277,
faith,&&&&&&&&&&,left,sanctity.virtue,pistraught,,,,,,,,,,,,,,,0,108,108,59,,,,,,,,,,,,,AMP,right,0.03357111563673243,0,,,,,,,,,,,,,,right,0,0.03357111563673243,,,,,,,,,,,1048,2019_Mar_13_0952,mf_amp_cond2,3.0.4,59.98291687136277,
health,&&&&&&&&&&,left,care.virtue,elduringly,,,,,,,,,,,,,,,0,109,109,292,,,,,,,,,,,,,AMP,right,0.5837055296869949,0,,,,,,,,,,,,,,right,0,0.5837055296869949,,,,,,,,,,,1048,2019_Mar_13_0952,mf_amp_cond2,3.0.4,59.98291687136277,
sexual,&&&&&&&&&,right,sanctity.vice,reprisols,,,,,,,,,,,,,,,0,110,110,24,,,,,,,,,,,,,AMP,right,0.31698876642622054,1,,,,,,,,,,,,,,right,1,0.31698876642622054,,,,,,,,,,,1048,2019_Mar_13_0952,mf_amp_cond2,3.0.4,59.98291687136277,
lies,&&&&&&&,right,fairness.vice,dramens,,,,,,,,,,,,,,,0,111,111,107,,,,,,,,,,,,,AMP,left,0.350314210052602,0,,,,,,,,,,,,,,left,0,0.350314210052602,,,,,,,,,,,1048,2019_Mar_13_0952,mf_amp_cond2,3.0.4,59.98291687136277,
free,&&&&&&&&&&&,left,fairness.virtue,egpeditious,,,,,,,,,,,,,,,0,112,112,79,,,,,,,,,,,,,AMP,right,0.2335962601355277,0,,,,,,,,,,,,,,right,0,0.2335962601355277,,,,,,,,,,,1048,2019_Mar_13_0952,mf_amp_cond2,3.0.4,59.98291687136277,
help,&&&&&&&&&&&,left,care.virtue,precificity,,,,,,,,,,,,,,,0,113,113,122,,,,,,,,,,,,,AMP,left,0.3336495639232453,1,,,,,,,,,,,,,,left,1,0.3336495639232453,,,,,,,,,,,1048,2019_Mar_13_0952,mf_amp_cond2,3.0.4,59.98291687136277,
serial,&&&&&&&&&&,right,sanctity.vice,totalestic,,,,,,,,,,,,,,,0,114,114,285,,,,,,,,,,,,,AMP,right,0.3503177379607223,1,,,,,,,,,,,,,,right,1,0.3503177379607223,,,,,,,,,,,1048,2019_Mar_13_0952,mf_amp_cond2,3.0.4,59.98291687136277,
progress,&&&&&&,left,authority.virtue,chared,,,,,,,,,,,,,,,0,115,115,36,,,,,,,,,,,,,AMP,left,0.1836029632249847,1,,,,,,,,,,,,,,left,1,0.1836029632249847,,,,,,,,,,,1048,2019_Mar_13_0952,mf_amp_cond2,3.0.4,59.98291687136277,
pumber,&&&&&&&&,None,nonword,ebbitter,,,,,,,,,,,,,,,0,116,116,47,,,,,,,,,,,,,AMP,right,0.48367788357427344,0,,,,,,,,,,,,,,right,0,0.48367788357427344,,,,,,,,,,,1048,2019_Mar_13_0952,mf_amp_cond2,3.0.4,59.98291687136277,
terrorists,&&&&&&&&&&&&,right,fairness.vice,quarterbocks,,,,,,,,,,,,,,,0,117,117,163,,,,,,,,,,,,,AMP,left,0.8504521199502051,0,,,,,,,,,,,,,,left,0,0.8504521199502051,,,,,,,,,,,1048,2019_Mar_13_0952,mf_amp_cond2,3.0.4,59.98291687136277,
powerful,&&&&,left,authority.virtue,erks,,,,,,,,,,,,,,,0,118,118,252,,,,,,,,,,,,,AMP,right,0.016915770393097773,0,,,,,,,,,,,,,,right,0,0.016915770393097773,,,,,,,,,,,1048,2019_Mar_13_0952,mf_amp_cond2,3.0.4,59.98291687136277,
praised,&&&&&&&&,left,loyalty.virtue,ebbitter,,,,,,,,,,,,,,,0,119,119,189,,,,,,,,,,,,,AMP,right,0.1502566727285739,0,,,,,,,,,,,,,,right,0,0.1502566727285739,,,,,,,,,,,1048,2019_Mar_13_0952,mf_amp_cond2,3.0.4,59.98291687136277,
unscothed,&&&&&&,None,nonword,antral,,,,,,,,,,,,,,,0,120,120,60,,,,,,,,,,,,,AMP,right,0.20026632645749487,0,,,,,,,,,,,,,,right,0,0.20026632645749487,,,,,,,,,,,1048,2019_Mar_13_0952,mf_amp_cond2,3.0.4,59.98291687136277,
integrity,&&&&&&&&,left,fairness.virtue,lachelor,,,,,,,,,,,,,,,0,121,121,253,,,,,,,,,,,,,AMP,right,0.41701737471157685,0,,,,,,,,,,,,,,right,0,0.41701737471157685,,,,,,,,,,,1048,2019_Mar_13_0952,mf_amp_cond2,3.0.4,59.98291687136277,
groups,&&&&&&&,right,loyalty.vice,smapper,,,,,,,,,,,,,,,0,122,122,76,,,,,,,,,,,,,AMP,right,0.1169626597838942,1,,,,,,,,,,,,,,right,1,0.1169626597838942,,,,,,,,,,,1048,2019_Mar_13_0952,mf_amp_cond2,3.0.4,59.98291687136277,
died,&&&&&&&&,right,care.vice,gowlands,,,,,,,,,,,,,,,0,123,123,172,,,,,,,,,,,,,AMP,left,0.16692516751936637,0,,,,,,,,,,,,,,left,0,0.16692516751936637,,,,,,,,,,,1048,2019_Mar_13_0952,mf_amp_cond2,3.0.4,59.98291687136277,
energy,&&&&&&&&,left,sanctity.virtue,fontacts,,,,,,,,,,,,,,,0,124,124,28,,,,,,,,,,,,,AMP,right,0.26696115237427875,0,,,,,,,,,,,,,,right,0,0.26696115237427875,,,,,,,,,,,1048,2019_Mar_13_0952,mf_amp_cond2,3.0.4,59.98291687136277,
terrorists,&&&&&&&&&&&,right,fairness.vice,precificity,,,,,,,,,,,,,,,0,125,125,195,,,,,,,,,,,,,AMP,right,0.35030939924763516,1,,,,,,,,,,,,,,right,1,0.35030939924763516,,,,,,,,,,,1048,2019_Mar_13_0952,mf_amp_cond2,3.0.4,59.98291687136277,
respect,&&&&&&&,left,sanctity.virtue,dramens,,,,,,,,,,,,,,,0,126,126,30,,,,,,,,,,,,,AMP,right,0.700398784072604,0,,,,,,,,,,,,,,right,0,0.700398784072604,,,,,,,,,,,1048,2019_Mar_13_0952,mf_amp_cond2,3.0.4,59.98291687136277,
sexual,&&&&&&&&&&&&&,right,sanctity.vice,idexpressible,,,,,,,,,,,,,,,0,127,127,182,,,,,,,,,,,,,AMP,right,0.40032803307985887,1,,,,,,,,,,,,,,right,1,0.40032803307985887,,,,,,,,,,,1048,2019_Mar_13_0952,mf_amp_cond2,3.0.4,59.98291687136277,
protect,&&&&&&&&&&,left,fairness.virtue,simplustic,,,,,,,,,,,,,,,0,128,128,23,,,,,,,,,,,,,AMP,right,0.18361290553002618,0,,,,,,,,,,,,,,right,0,0.18361290553002618,,,,,,,,,,,1048,2019_Mar_13_0952,mf_amp_cond2,3.0.4,59.98291687136277,
officers,&&&&&&&&,right,authority.vice,crinking,,,,,,,,,,,,,,,0,129,129,140,,,,,,,,,,,,,AMP,right,0.06690393580356613,1,,,,,,,,,,,,,,right,1,0.06690393580356613,,,,,,,,,,,1048,2019_Mar_13_0952,mf_amp_cond2,3.0.4,59.98291687136277,
perfect,&&&&&&&&,left,sanctity.virtue,crinking,,,,,,,,,,,,,,,0,130,130,5,,,,,,,,,,,,,AMP,right,0.21693578336271457,0,,,,,,,,,,,,,,right,0,0.21693578336271457,,,,,,,,,,,1048,2019_Mar_13_0952,mf_amp_cond2,3.0.4,59.98291687136277,
faith,&&&&&&&&&&&,left,sanctity.virtue,blunderints,,,,,,,,,,,,,,,0,131,131,174,,,,,,,,,,,,,AMP,right,0.00023605042952112854,0,,,,,,,,,,,,,,right,0,0.00023605042952112854,,,,,,,,,,,1048,2019_Mar_13_0952,mf_amp_cond2,3.0.4,59.98291687136277,
ittutable,&&&&&&,None,nonword,laming,,,,,,,,,,,,,,,0,132,132,54,,,,,,,,,,,,,AMP,right,0.40032739166053943,0,,,,,,,,,,,,,,right,0,0.40032739166053943,,,,,,,,,,,1048,2019_Mar_13_0952,mf_amp_cond2,3.0.4,59.98291687136277,
agreement,&&&&&&&&,left,fairness.virtue,thadowed,,,,,,,,,,,,,,,0,133,133,133,,,,,,,,,,,,,AMP,right,0.016842325392644852,0,,,,,,,,,,,,,,right,0,0.016842325392644852,,,,,,,,,,,1048,2019_Mar_13_0952,mf_amp_cond2,3.0.4,59.98291687136277,
gillipede,&&&&&&,None,nonword,laming,,,,,,,,,,,,,,,0,134,134,166,,,,,,,,,,,,,AMP,right,0.13358625367982313,0,,,,,,,,,,,,,,right,0,0.13358625367982313,,,,,,,,,,,1048,2019_Mar_13_0952,mf_amp_cond2,3.0.4,59.98291687136277,
promised,&&&&&&&,left,loyalty.virtue,chreams,,,,,,,,,,,,,,,0,135,135,230,,,,,,,,,,,,,AMP,right,0.13358336719102226,0,,,,,,,,,,,,,,right,0,0.13358336719102226,,,,,,,,,,,1048,2019_Mar_13_0952,mf_amp_cond2,3.0.4,59.98291687136277,
actively,&&&,left,authority.virtue,asn,,,,,,,,,,,,,,,0,136,136,15,,,,,,,,,,,,,AMP,right,0.5003447747149039,0,,,,,,,,,,,,,,right,0,0.5003447747149039,,,,,,,,,,,1048,2019_Mar_13_0952,mf_amp_cond2,3.0.4,59.98291687136277,
clean,&&&&&&&&&&,left,sanctity.virtue,honstables,,,,,,,,,,,,,,,0,137,137,326,,,,,,,,,,,,,AMP,right,0.3503110028395895,0,,,,,,,,,,,,,,right,0,0.3503110028395895,,,,,,,,,,,1048,2019_Mar_13_0952,mf_amp_cond2,3.0.4,59.98291687136277,
benefit,&&&&&&&&&&&,left,fairness.virtue,precificity,,,,,,,,,,,,,,,0,138,138,81,,,,,,,,,,,,,AMP,right,0.3336386594164651,0,,,,,,,,,,,,,,right,0,0.3336386594164651,,,,,,,,,,,1048,2019_Mar_13_0952,mf_amp_cond2,3.0.4,59.98291687136277,
riot,&&&&&&&&&&&&,right,authority.vice,bruthfulness,,,,,,,,,,,,,,,0,139,139,305,,,,,,,,,,,,,AMP,right,0.5670386384881567,1,,,,,,,,,,,,,,right,1,0.5670386384881567,,,,,,,,,,,1048,2019_Mar_13_0952,mf_amp_cond2,3.0.4,59.98291687136277,
unpleasant,&&&&&&&&&&,None,control,chonograph,,,,,,,,,,,,,,,0,140,140,39,,,,,,,,,,,,,AMP,right,0.3669660273590125,0,,,,,,,,,,,,,,right,0,0.3669660273590125,,,,,,,,,,,1048,2019_Mar_13_0952,mf_amp_cond2,3.0.4,59.98291687136277,
growth,&&&&&&&&&&&,left,care.virtue,precificity,,,,,,,,,,,,,,,0,141,141,321,,,,,,,,,,,,,AMP,right,0.40019140610820614,0,,,,,,,,,,,,,,right,0,0.40019140610820614,,,,,,,,,,,1048,2019_Mar_13_0952,mf_amp_cond2,3.0.4,59.98291687136277,
crime,&&&&&&&,right,fairness.vice,nackers,,,,,,,,,,,,,,,0,142,142,56,,,,,,,,,,,,,AMP,right,0.383681026607519,1,,,,,,,,,,,,,,right,1,0.383681026607519,,,,,,,,,,,1048,2019_Mar_13_0952,mf_amp_cond2,3.0.4,59.98291687136277,
gillipede,&&&&&&&&&&&&,None,nonword,iptervention,,,,,,,,,,,,,,,0,143,143,273,,,,,,,,,,,,,AMP,right,0.23347951783216558,0,,,,,,,,,,,,,,right,0,0.23347951783216558,,,,,,,,,,,1048,2019_Mar_13_0952,mf_amp_cond2,3.0.4,59.98291687136277,
blamed,&&&&,right,loyalty.vice,coom,,,,,,,,,,,,,,,0,144,144,40,,,,,,,,,,,,,AMP,right,0.366982384090079,1,,,,,,,,,,,,,,right,1,0.366982384090079,,,,,,,,,,,1048,2019_Mar_13_0952,mf_amp_cond2,3.0.4,59.98291687136277,
harassment,&&&&&&&&&&&,right,sanctity.vice,mightingale,,,,,,,,,,,,,,,0,145,145,191,,,,,,,,,,,,,AMP,right,0.33363737651961856,1,,,,,,,,,,,,,,right,1,0.33363737651961856,,,,,,,,,,,1048,2019_Mar_13_0952,mf_amp_cond2,3.0.4,59.98291687136277,
war,&&&&&&&&&&,right,sanctity.vice,fonderland,,,,,,,,,,,,,,,0,146,146,111,,,,,,,,,,,,,AMP,right,0.05024698699708097,1,,,,,,,,,,,,,,right,1,0.05024698699708097,,,,,,,,,,,1048,2019_Mar_13_0952,mf_amp_cond2,3.0.4,59.98291687136277,
divility,&&&&&&&&&,None,nonword,crilfully,,,,,,,,,,,,,,,0,147,147,123,,,,,,,,,,,,,AMP,right,0.15025891779805534,0,,,,,,,,,,,,,,right,0,0.15025891779805534,,,,,,,,,,,1048,2019_Mar_13_0952,mf_amp_cond2,3.0.4,59.98291687136277,
prison,&&&&&,right,fairness.vice,dumid,,,,,,,,,,,,,,,0,148,148,312,,,,,,,,,,,,,AMP,right,0.2002679300494492,1,,,,,,,,,,,,,,right,1,0.2002679300494492,,,,,,,,,,,1048,2019_Mar_13_0952,mf_amp_cond2,3.0.4,59.98291687136277,
unpleasant,&&&&&&,None,control,Boeinf,,,,,,,,,,,,,,,0,149,149,228,,,,,,,,,,,,,AMP,right,0.5003447747149039,0,,,,,,,,,,,,,,right,0,0.5003447747149039,,,,,,,,,,,1048,2019_Mar_13_0952,mf_amp_cond2,3.0.4,59.98291687136277,
police,&&&&,right,authority.vice,tove,,,,,,,,,,,,,,,0,150,150,237,,,,,,,,,,,,,AMP,right,1.0337936957948841,1,,,,,,,,,,,,,,right,1,1.0337936957948841,,,,,,,,,,,1048,2019_Mar_13_0952,mf_amp_cond2,3.0.4,59.98291687136277,
ittutable,&&&&&&&&&,None,nonword,fangsters,,,,,,,,,,,,,,,0,151,151,154,,,,,,,,,,,,,AMP,right,0.4501949661062099,0,,,,,,,,,,,,,,right,0,0.4501949661062099,,,,,,,,,,,1048,2019_Mar_13_0952,mf_amp_cond2,3.0.4,59.98291687136277,
credit,&&&&&&&&&&&,left,fairness.virtue,mightingale,,,,,,,,,,,,,,,0,152,152,261,,,,,,,,,,,,,AMP,left,0.2002669678768143,1,,,,,,,,,,,,,,left,1,0.2002669678768143,,,,,,,,,,,1048,2019_Mar_13_0952,mf_amp_cond2,3.0.4,59.98291687136277,
serial,&&&&&&&&&&,right,sanctity.vice,imebreaker,,,,,,,,,,,,,,,0,153,153,20,,,,,,,,,,,,,AMP,left,0.5503476932935882,0,,,,,,,,,,,,,,left,0,0.5503476932935882,,,,,,,,,,,1048,2019_Mar_13_0952,mf_amp_cond2,3.0.4,59.98291687136277,
respect,&&&&&&&&&,left,sanctity.virtue,Lacedonia,,,,,,,,,,,,,,,0,154,154,201,,,,,,,,,,,,,AMP,right,0.13358465005876496,0,,,,,,,,,,,,,,right,0,0.13358465005876496,,,,,,,,,,,1048,2019_Mar_13_0952,mf_amp_cond2,3.0.4,59.98291687136277,
protesters,&&&&&&,right,authority.vice,sonvoy,,,,,,,,,,,,,,,0,155,155,263,,,,,,,,,,,,,AMP,left,0.33364828102639876,0,,,,,,,,,,,,,,left,0,0.33364828102639876,,,,,,,,,,,1048,2019_Mar_13_0952,mf_amp_cond2,3.0.4,59.98291687136277,
great,&&&&,left,loyalty.virtue,erks,,,,,,,,,,,,,,,0,156,156,148,,,,,,,,,,,,,AMP,left,0.45033159310696647,1,,,,,,,,,,,,,,left,1,0.45033159310696647,,,,,,,,,,,1048,2019_Mar_13_0952,mf_amp_cond2,3.0.4,59.98291687136277,
shot,&&&&&,right,care.vice,leact,,,,,,,,,,,,,,,0,157,157,161,,,,,,,,,,,,,AMP,left,0.31695605293498375,0,,,,,,,,,,,,,,left,0,0.31695605293498375,,,,,,,,,,,1048,2019_Mar_13_0952,mf_amp_cond2,3.0.4,59.98291687136277,
fegard,&&&&&&,None,nonword,sonvoy,,,,,,,,,,,,,,,0,158,158,51,,,,,,,,,,,,,AMP,left,0.4836798078904394,0,,,,,,,,,,,,,,left,0,0.4836798078904394,,,,,,,,,,,1048,2019_Mar_13_0952,mf_amp_cond2,3.0.4,59.98291687136277,
slending,&&&&&&&&&,None,nonword,gaultless,,,,,,,,,,,,,,,0,159,159,67,,,,,,,,,,,,,AMP,left,0.13359876177855767,0,,,,,,,,,,,,,,left,0,0.13359876177855767,,,,,,,,,,,1048,2019_Mar_13_0952,mf_amp_cond2,3.0.4,59.98291687136277,
praised,&&&&&,left,loyalty.virtue,aubos,,,,,,,,,,,,,,,0,160,160,319,,,,,,,,,,,,,AMP,left,0.5503974049643148,1,,,,,,,,,,,,,,left,1,0.5503974049643148,,,,,,,,,,,1048,2019_Mar_13_0952,mf_amp_cond2,3.0.4,59.98291687136277,
growth,&&&&&&&&&&,left,care.virtue,ecgagement,,,,,,,,,,,,,,,0,161,161,83,,,,,,,,,,,,,AMP,left,0.18360713258152828,1,,,,,,,,,,,,,,left,1,0.18360713258152828,,,,,,,,,,,1048,2019_Mar_13_0952,mf_amp_cond2,3.0.4,59.98291687136277,
help,&&&&&&&&,left,care.virtue,framatic,,,,,,,,,,,,,,,0,162,162,222,,,,,,,,,,,,,AMP,left,0.31696599526912905,1,,,,,,,,,,,,,,left,1,0.31696599526912905,,,,,,,,,,,1048,2019_Mar_13_0952,mf_amp_cond2,3.0.4,59.98291687136277,
fraud,&&&&&&&&,right,fairness.vice,suggists,,,,,,,,,,,,,,,0,163,163,224,,,,,,,,,,,,,AMP,left,0.3336367350711953,0,,,,,,,,,,,,,,left,0,0.3336367350711953,,,,,,,,,,,1048,2019_Mar_13_0952,mf_amp_cond2,3.0.4,59.98291687136277,
trust,&&&&&&,left,authority.virtue,gikely,,,,,,,,,,,,,,,0,164,164,78,,,,,,,,,,,,,AMP,left,0.033430319250328466,1,,,,,,,,,,,,,,left,1,0.033430319250328466,,,,,,,,,,,1048,2019_Mar_13_0952,mf_amp_cond2,3.0.4,59.98291687136277,
peaceful,&&&&&&&&,left,authority.virtue,bluently,,,,,,,,,,,,,,,0,165,165,95,,,,,,,,,,,,,AMP,right,0.2669499271432869,0,,,,,,,,,,,,,,right,0,0.2669499271432869,,,,,,,,,,,1048,2019_Mar_13_0952,mf_amp_cond2,3.0.4,59.98291687136277,
crime,&&&&&&&&&&,right,fairness.vice,pistraught,,,,,,,,,,,,,,,0,166,166,236,,,,,,,,,,,,,AMP,left,0.20027177868178114,0,,,,,,,,,,,,,,left,0,0.20027177868178114,,,,,,,,,,,1048,2019_Mar_13_0952,mf_amp_cond2,3.0.4,59.98291687136277,
progress,&&&&&&&&&&,left,authority.virtue,simplustic,,,,,,,,,,,,,,,0,167,167,259,,,,,,,,,,,,,AMP,right,0.10024220825289376,0,,,,,,,,,,,,,,right,0,0.10024220825289376,,,,,,,,,,,1048,2019_Mar_13_0952,mf_amp_cond2,3.0.4,59.98291687136277,
improve,&&&&&&&&,left,care.virtue,bluently,,,,,,,,,,,,,,,0,168,168,73,,,,,,,,,,,,,AMP,right,0.00023861619411036372,0,,,,,,,,,,,,,,right,0,0.00023861619411036372,,,,,,,,,,,1048,2019_Mar_13_0952,mf_amp_cond2,3.0.4,59.98291687136277,
men,&&&&&&,right,loyalty.vice,sonvoy,,,,,,,,,,,,,,,0,169,169,106,,,,,,,,,,,,,AMP,right,0.16691939457086846,1,,,,,,,,,,,,,,right,1,0.16691939457086846,,,,,,,,,,,1048,2019_Mar_13_0952,mf_amp_cond2,3.0.4,59.98291687136277,
promised,&&&&&&&,left,loyalty.virtue,Daptist,,,,,,,,,,,,,,,0,170,170,290,,,,,,,,,,,,,AMP,left,0.8004212986852508,1,,,,,,,,,,,,,,left,1,0.8004212986852508,,,,,,,,,,,1048,2019_Mar_13_0952,mf_amp_cond2,3.0.4,59.98291687136277,
growth,&&&&&&&&&,left,care.virtue,gandbrake,,,,,,,,,,,,,,,0,171,171,50,,,,,,,,,,,,,AMP,left,0.36699809940182604,1,,,,,,,,,,,,,,left,1,0.36699809940182604,,,,,,,,,,,1048,2019_Mar_13_0952,mf_amp_cond2,3.0.4,59.98291687136277,
racist,&&&&&&&,right,sanctity.vice,chreams,,,,,,,,,,,,,,,0,172,172,31,,,,,,,,,,,,,AMP,left,0.3336373765487224,0,,,,,,,,,,,,,,left,0,0.3336373765487224,,,,,,,,,,,1048,2019_Mar_13_0952,mf_amp_cond2,3.0.4,59.98291687136277,
ban,&&&&&&&&&&,right,loyalty.vice,totalestic,,,,,,,,,,,,,,,0,173,173,229,,,,,,,,,,,,,AMP,left,0.16692388465162367,0,,,,,,,,,,,,,,left,0,0.16692388465162367,,,,,,,,,,,1048,2019_Mar_13_0952,mf_amp_cond2,3.0.4,59.98291687136277,
hate,&&&&&,right,fairness.vice,aubos,,,,,,,,,,,,,,,0,174,174,216,,,,,,,,,,,,,AMP,left,0.01676054162089713,0,,,,,,,,,,,,,,left,0,0.01676054162089713,,,,,,,,,,,1048,2019_Mar_13_0952,mf_amp_cond2,3.0.4,59.98291687136277,
strong,&&&&&,left,loyalty.virtue,dumid,,,,,,,,,,,,,,,0,175,175,87,,,,,,,,,,,,,AMP,left,0.016896847897442058,1,,,,,,,,,,,,,,left,1,0.016896847897442058,,,,,,,,,,,1048,2019_Mar_13_0952,mf_amp_cond2,3.0.4,59.98291687136277,
voter,&&&&&&,right,fairness.vice,strofe,,,,,,,,,,,,,,,0,176,176,212,,,,,,,,,,,,,AMP,right,0.4169641351036262,1,,,,,,,,,,,,,,right,1,0.4169641351036262,,,,,,,,,,,1048,2019_Mar_13_0952,mf_amp_cond2,3.0.4,59.98291687136277,
prosecution,&&&&&&&&&,right,authority.vice,tenuflect,,,,,,,,,,,,,,,0,177,177,136,,,,,,,,,,,,,AMP,right,0.400333485333249,1,,,,,,,,,,,,,,right,1,0.400333485333249,,,,,,,,,,,1048,2019_Mar_13_0952,mf_amp_cond2,3.0.4,59.98291687136277,
actively,&&&&&,left,authority.virtue,noped,,,,,,,,,,,,,,,0,178,178,266,,,,,,,,,,,,,AMP,right,0.050238648254889995,0,,,,,,,,,,,,,,right,0,0.050238648254889995,,,,,,,,,,,1048,2019_Mar_13_0952,mf_amp_cond2,3.0.4,59.98291687136277,
freedom,&&&&&&&&&&&&&,left,sanctity.virtue,idexpressible,,,,,,,,,,,,,,,0,179,179,258,,,,,,,,,,,,,AMP,right,0.00023572970530949533,0,,,,,,,,,,,,,,right,0,0.00023572970530949533,,,,,,,,,,,1048,2019_Mar_13_0952,mf_amp_cond2,3.0.4,59.98291687136277,
troops,&&&&&&&&&&,right,loyalty.vice,elduringly,,,,,,,,,,,,,,,0,180,180,48,,,,,,,,,,,,,AMP,left,0.05022710229968652,0,,,,,,,,,,,,,,left,0,0.05022710229968652,,,,,,,,,,,1048,2019_Mar_13_0952,mf_amp_cond2,3.0.4,59.98291687136277,
fair,&&&&&&&&&&,left,fairness.virtue,ecgagement,,,,,,,,,,,,,,,0,181,181,243,,,,,,,,,,,,,AMP,right,0.3002878788684029,0,,,,,,,,,,,,,,right,0,0.3002878788684029,,,,,,,,,,,1048,2019_Mar_13_0952,mf_amp_cond2,3.0.4,59.98291687136277,
victims,&&&&&&&&&,right,care.vice,disregord,,,,,,,,,,,,,,,0,182,182,322,,,,,,,,,,,,,AMP,right,0.33363160357112065,1,,,,,,,,,,,,,,right,1,0.33363160357112065,,,,,,,,,,,1048,2019_Mar_13_0952,mf_amp_cond2,3.0.4,59.98291687136277,
shot,&&&&&&&&&&,right,care.vice,honstables,,,,,,,,,,,,,,,0,183,183,235,,,,,,,,,,,,,AMP,left,0.23362159708631225,0,,,,,,,,,,,,,,left,0,0.23362159708631225,,,,,,,,,,,1048,2019_Mar_13_0952,mf_amp_cond2,3.0.4,59.98291687136277,
unscothed,&&&&&&&&&&&&,None,nonword,iptervention,,,,,,,,,,,,,,,0,184,184,167,,,,,,,,,,,,,AMP,left,0.10026818662299775,0,,,,,,,,,,,,,,left,0,0.10026818662299775,,,,,,,,,,,1048,2019_Mar_13_0952,mf_amp_cond2,3.0.4,59.98291687136277,
prosecution,&&&&&&&&,right,authority.vice,gowlands,,,,,,,,,,,,,,,0,185,185,323,,,,,,,,,,,,,AMP,left,0.5670363934477791,0,,,,,,,,,,,,,,left,0,0.5670363934477791,,,,,,,,,,,1048,2019_Mar_13_0952,mf_amp_cond2,3.0.4,59.98291687136277,
letish,&&&&&&&,None,nonword,dramens,,,,,,,,,,,,,,,0,186,186,221,,,,,,,,,,,,,AMP,right,0.7004029534582514,0,,,,,,,,,,,,,,right,0,0.7004029534582514,,,,,,,,,,,1048,2019_Mar_13_0952,mf_amp_cond2,3.0.4,59.98291687136277,
critics,&&&&&&&,right,loyalty.vice,emports,,,,,,,,,,,,,,,0,187,187,226,,,,,,,,,,,,,AMP,right,0.4503283859230578,1,,,,,,,,,,,,,,right,1,0.4503283859230578,,,,,,,,,,,1048,2019_Mar_13_0952,mf_amp_cond2,3.0.4,59.98291687136277,
improve,&&&&&&&,left,care.virtue,chreams,,,,,,,,,,,,,,,0,188,188,150,,,,,,,,,,,,,AMP,right,0.7504142107500229,0,,,,,,,,,,,,,,right,0,0.7504142107500229,,,,,,,,,,,1048,2019_Mar_13_0952,mf_amp_cond2,3.0.4,59.98291687136277,
praised,&&&&&&&,left,loyalty.virtue,emports,,,,,,,,,,,,,,,0,189,189,143,,,,,,,,,,,,,AMP,left,0.16692837473237887,1,,,,,,,,,,,,,,left,1,0.16692837473237887,,,,,,,,,,,1048,2019_Mar_13_0952,mf_amp_cond2,3.0.4,59.98291687136277,
clean,&&&&&&&,left,sanctity.virtue,Daptist,,,,,,,,,,,,,,,0,190,190,104,,,,,,,,,,,,,AMP,left,0.48368044930975884,1,,,,,,,,,,,,,,left,1,0.48368044930975884,,,,,,,,,,,1048,2019_Mar_13_0952,mf_amp_cond2,3.0.4,59.98291687136277,
died,&&&&&&&&&,right,care.vice,tomedians,,,,,,,,,,,,,,,0,191,191,45,,,,,,,,,,,,,AMP,left,0.35031934158178046,0,,,,,,,,,,,,,,left,0,0.35031934158178046,,,,,,,,,,,1048,2019_Mar_13_0952,mf_amp_cond2,3.0.4,59.98291687136277,
health,&&&&&&&&&&,left,care.virtue,imebreaker,,,,,,,,,,,,,,,0,192,192,239,,,,,,,,,,,,,AMP,right,0.3169669574126601,0,,,,,,,,,,,,,,right,0,0.3169669574126601,,,,,,,,,,,1048,2019_Mar_13_0952,mf_amp_cond2,3.0.4,59.98291687136277,
gillipede,&&&&&&&&&&,None,nonword,honstables,,,,,,,,,,,,,,,0,193,193,102,,,,,,,,,,,,,AMP,left,0.483706106984755,0,,,,,,,,,,,,,,left,0,0.483706106984755,,,,,,,,,,,1048,2019_Mar_13_0952,mf_amp_cond2,3.0.4,59.98291687136277,
critics,&&&&&&&,right,loyalty.vice,troubla,,,,,,,,,,,,,,,0,194,194,68,,,,,,,,,,,,,AMP,left,0.683737024461152,0,,,,,,,,,,,,,,left,0,0.683737024461152,,,,,,,,,,,1048,2019_Mar_13_0952,mf_amp_cond2,3.0.4,59.98291687136277,
letish,&&&&&&,None,nonword,forepo,,,,,,,,,,,,,,,0,195,195,1,,,,,,,,,,,,,AMP,left,0.33367522156913765,0,,,,,,,,,,,,,,left,0,0.33367522156913765,,,,,,,,,,,1048,2019_Mar_13_0952,mf_amp_cond2,3.0.4,59.98291687136277,
protect,&&&&&,left,fairness.virtue,scock,,,,,,,,,,,,,,,0,196,196,286,,,,,,,,,,,,,AMP,left,0.7004029534582514,1,,,,,,,,,,,,,,left,1,0.7004029534582514,,,,,,,,,,,1048,2019_Mar_13_0952,mf_amp_cond2,3.0.4,59.98291687136277,
death,&&&&&,right,care.vice,leact,,,,,,,,,,,,,,,0,197,197,231,,,,,,,,,,,,,AMP,left,0.3503119650122244,0,,,,,,,,,,,,,,left,0,0.3503119650122244,,,,,,,,,,,1048,2019_Mar_13_0952,mf_amp_cond2,3.0.4,59.98291687136277,
support,&&&&&&&&&,left,loyalty.virtue,seachwear,,,,,,,,,,,,,,,0,198,198,284,,,,,,,,,,,,,AMP,right,0.4003280331089627,0,,,,,,,,,,,,,,right,0,0.4003280331089627,,,,,,,,,,,1048,2019_Mar_13_0952,mf_amp_cond2,3.0.4,59.98291687136277,
encourage,&&&&&,left,authority.virtue,dumid,,,,,,,,,,,,,,,0,199,199,34,,,,,,,,,,,,,AMP,left,0.38365601041004993,1,,,,,,,,,,,,,,left,1,0.38365601041004993,,,,,,,,,,,1048,2019_Mar_13_0952,mf_amp_cond2,3.0.4,59.98291687136277,
terrorists,&&&&&&&&&&,right,fairness.vice,abointment,,,,,,,,,,,,,,,0,200,200,10,,,,,,,,,,,,,AMP,right,0.4336813794216141,1,,,,,,,,,,,,,,right,1,0.4336813794216141,,,,,,,,,,,1048,2019_Mar_13_0952,mf_amp_cond2,3.0.4,59.98291687136277,
victims,&&&&&&&&&&&,right,care.vice,cromiscuity,,,,,,,,,,,,,,,0,201,201,173,,,,,,,,,,,,,AMP,left,0.8337836251594126,0,,,,,,,,,,,,,,left,0,0.8337836251594126,,,,,,,,,,,1048,2019_Mar_13_0952,mf_amp_cond2,3.0.4,59.98291687136277,
free,&&&&&&,left,fairness.virtue,chared,,,,,,,,,,,,,,,0,202,202,317,,,,,,,,,,,,,AMP,right,0.20027691024006344,0,,,,,,,,,,,,,,right,0,0.20027691024006344,,,,,,,,,,,1048,2019_Mar_13_0952,mf_amp_cond2,3.0.4,59.98291687136277,
hate,&&&&&&,right,fairness.vice,prones,,,,,,,,,,,,,,,0,203,203,295,,,,,,,,,,,,,AMP,left,0.4336608532757964,0,,,,,,,,,,,,,,left,0,0.4336608532757964,,,,,,,,,,,1048,2019_Mar_13_0952,mf_amp_cond2,3.0.4,59.98291687136277,
encourage,&&&&&&&&&&,left,authority.virtue,simplustic,,,,,,,,,,,,,,,0,204,204,101,,,,,,,,,,,,,AMP,right,0.4503591750690248,0,,,,,,,,,,,,,,right,0,0.4503591750690248,,,,,,,,,,,1048,2019_Mar_13_0952,mf_amp_cond2,3.0.4,59.98291687136277,
health,&&&&&&&&&&&&,left,care.virtue,nonobservalt,,,,,,,,,,,,,,,0,205,205,116,,,,,,,,,,,,,AMP,right,0.5170244947366882,0,,,,,,,,,,,,,,right,0,0.5170244947366882,,,,,,,,,,,1048,2019_Mar_13_0952,mf_amp_cond2,3.0.4,59.98291687136277,
praise,&&&&&&,left,authority.virtue,laming,,,,,,,,,,,,,,,0,206,206,318,,,,,,,,,,,,,AMP,left,1.0671508907398675,1,,,,,,,,,,,,,,left,1,1.0671508907398675,,,,,,,,,,,1048,2019_Mar_13_0952,mf_amp_cond2,3.0.4,59.98291687136277,
violence,&&&&&&&&&&,right,care.vice,honstables,,,,,,,,,,,,,,,0,207,207,9,,,,,,,,,,,,,AMP,left,0.5670267718378454,0,,,,,,,,,,,,,,left,0,0.5670267718378454,,,,,,,,,,,1048,2019_Mar_13_0952,mf_amp_cond2,3.0.4,59.98291687136277,
improve,&&&&&,left,care.virtue,ablow,,,,,,,,,,,,,,,0,208,208,262,,,,,,,,,,,,,AMP,left,0.21694155636942014,1,,,,,,,,,,,,,,left,1,0.21694155636942014,,,,,,,,,,,1048,2019_Mar_13_0952,mf_amp_cond2,3.0.4,59.98291687136277,
fegard,&&&&&&,None,nonword,forepo,,,,,,,,,,,,,,,0,209,209,151,,,,,,,,,,,,,AMP,right,0.0002376540214754641,0,,,,,,,,,,,,,,right,0,0.0002376540214754641,,,,,,,,,,,1048,2019_Mar_13_0952,mf_amp_cond2,3.0.4,59.98291687136277,
police,&&&&&&&&&&&,right,authority.vice,cromiscuity,,,,,,,,,,,,,,,0,210,210,8,,,,,,,,,,,,,AMP,left,0.38364670949522406,0,,,,,,,,,,,,,,left,0,0.38364670949522406,,,,,,,,,,,1048,2019_Mar_13_0952,mf_amp_cond2,3.0.4,59.98291687136277,
fraud,&&&&&&&&&&&,right,fairness.vice,mightingale,,,,,,,,,,,,,,,0,211,211,58,,,,,,,,,,,,,AMP,right,0.7337258312909398,1,,,,,,,,,,,,,,right,1,0.7337258312909398,,,,,,,,,,,1048,2019_Mar_13_0952,mf_amp_cond2,3.0.4,59.98291687136277,
gillipede,&&&&&&&,None,nonword,brudent,,,,,,,,,,,,,,,0,212,212,17,,,,,,,,,,,,,AMP,left,0.15026982230483554,0,,,,,,,,,,,,,,left,0,0.15026982230483554,,,,,,,,,,,1048,2019_Mar_13_0952,mf_amp_cond2,3.0.4,59.98291687136277,
safe,&&&&&&&&&&&&,left,care.virtue,bruthfulness,,,,,,,,,,,,,,,0,213,213,85,,,,,,,,,,,,,AMP,right,0.33365212968783453,0,,,,,,,,,,,,,,right,0,0.33365212968783453,,,,,,,,,,,1048,2019_Mar_13_0952,mf_amp_cond2,3.0.4,59.98291687136277,
encourage,&&&&&,left,authority.virtue,scock,,,,,,,,,,,,,,,0,214,214,211,,,,,,,,,,,,,AMP,left,0.2836533804947976,1,,,,,,,,,,,,,,left,1,0.2836533804947976,,,,,,,,,,,1048,2019_Mar_13_0952,mf_amp_cond2,3.0.4,59.98291687136277,
racist,&&&&&&&&&&&,right,sanctity.vice,blunderints,,,,,,,,,,,,,,,0,215,215,248,,,,,,,,,,,,,AMP,right,0.3336354522034526,1,,,,,,,,,,,,,,right,1,0.3336354522034526,,,,,,,,,,,1048,2019_Mar_13_0952,mf_amp_cond2,3.0.4,59.98291687136277,
fair,&&&&&&&,left,fairness.virtue,brudent,,,,,,,,,,,,,,,0,216,216,306,,,,,,,,,,,,,AMP,left,0.06689752140664496,1,,,,,,,,,,,,,,left,1,0.06689752140664496,,,,,,,,,,,1048,2019_Mar_13_0952,mf_amp_cond2,3.0.4,59.98291687136277,
harassment,&&&&,right,sanctity.vice,tove,,,,,,,,,,,,,,,0,217,217,57,,,,,,,,,,,,,AMP,right,0.5003604900557548,1,,,,,,,,,,,,,,right,1,0.5003604900557548,,,,,,,,,,,1048,2019_Mar_13_0952,mf_amp_cond2,3.0.4,59.98291687136277,
baklara,&&&&&&&&&,None,nonword,crilfully,,,,,,,,,,,,,,,0,218,218,206,,,,,,,,,,,,,AMP,left,0.2002666471817065,0,,,,,,,,,,,,,,left,0,0.2002666471817065,,,,,,,,,,,1048,2019_Mar_13_0952,mf_amp_cond2,3.0.4,59.98291687136277,
integrity,&&&&&&&&&&&&&,left,fairness.virtue,idexpressible,,,,,,,,,,,,,,,0,219,219,16,,,,,,,,,,,,,AMP,right,0.18360168032813817,0,,,,,,,,,,,,,,right,0,0.18360168032813817,,,,,,,,,,,1048,2019_Mar_13_0952,mf_amp_cond2,3.0.4,59.98291687136277,
free,&&&&&&&&&&,left,fairness.virtue,frocessing,,,,,,,,,,,,,,,0,220,220,127,,,,,,,,,,,,,AMP,right,0.2669608316500671,0,,,,,,,,,,,,,,right,0,0.2669608316500671,,,,,,,,,,,1048,2019_Mar_13_0952,mf_amp_cond2,3.0.4,59.98291687136277,
care,&&&&&&&&&,left,care.virtue,brotesque,,,,,,,,,,,,,,,0,221,221,152,,,,,,,,,,,,,AMP,right,0.46699912572512403,0,,,,,,,,,,,,,,right,0,0.46699912572512403,,,,,,,,,,,1048,2019_Mar_13_0952,mf_amp_cond2,3.0.4,59.98291687136277,
hate,&&&&&&&&&&&,right,fairness.vice,mightingale,,,,,,,,,,,,,,,0,222,222,162,,,,,,,,,,,,,AMP,left,0.35030394699424505,0,,,,,,,,,,,,,,left,0,0.35030394699424505,,,,,,,,,,,1048,2019_Mar_13_0952,mf_amp_cond2,3.0.4,59.98291687136277,
hescribe,&&&&&&&&&&&&&,None,nonword,esquisiteness,,,,,,,,,,,,,,,0,223,223,296,,,,,,,,,,,,,AMP,right,0.4003280331089627,0,,,,,,,,,,,,,,right,0,0.4003280331089627,,,,,,,,,,,1048,2019_Mar_13_0952,mf_amp_cond2,3.0.4,59.98291687136277,
care,&&&&&&&&&&,left,care.virtue,frocessing,,,,,,,,,,,,,,,0,224,224,169,,,,,,,,,,,,,AMP,right,0.166957881039707,0,,,,,,,,,,,,,,right,0,0.166957881039707,,,,,,,,,,,1048,2019_Mar_13_0952,mf_amp_cond2,3.0.4,59.98291687136277,
trust,&&&&,left,authority.virtue,coom,,,,,,,,,,,,,,,0,225,225,197,,,,,,,,,,,,,AMP,right,0.20028204176924191,0,,,,,,,,,,,,,,right,0,0.20028204176924191,,,,,,,,,,,1048,2019_Mar_13_0952,mf_amp_cond2,3.0.4,59.98291687136277,
penalty,&&&&&&&&,right,authority.vice,suggists,,,,,,,,,,,,,,,0,226,226,65,,,,,,,,,,,,,AMP,left,0.20027947597554885,0,,,,,,,,,,,,,,left,0,0.20027947597554885,,,,,,,,,,,1048,2019_Mar_13_0952,mf_amp_cond2,3.0.4,59.98291687136277,
encourage,&&&&&&&&&&&,left,authority.virtue,egpeditious,,,,,,,,,,,,,,,0,227,227,251,,,,,,,,,,,,,AMP,right,0.683732534351293,0,,,,,,,,,,,,,,right,0,0.683732534351293,,,,,,,,,,,1048,2019_Mar_13_0952,mf_amp_cond2,3.0.4,59.98291687136277,
police,&&&&&&&&&&&,right,authority.vice,blunderints,,,,,,,,,,,,,,,0,228,228,156,,,,,,,,,,,,,AMP,left,0.5670274132862687,0,,,,,,,,,,,,,,left,0,0.5670274132862687,,,,,,,,,,,1048,2019_Mar_13_0952,mf_amp_cond2,3.0.4,59.98291687136277,
riot,&&&&&&,right,authority.vice,prones,,,,,,,,,,,,,,,0,229,229,80,,,,,,,,,,,,,AMP,left,0.8670901462610345,0,,,,,,,,,,,,,,left,0,0.8670901462610345,,,,,,,,,,,1048,2019_Mar_13_0952,mf_amp_cond2,3.0.4,59.98291687136277,
clean,&&&&&&&&,left,sanctity.virtue,thadowed,,,,,,,,,,,,,,,0,230,230,240,,,,,,,,,,,,,AMP,right,0.21694123561610468,0,,,,,,,,,,,,,,right,0,0.21694123561610468,,,,,,,,,,,1048,2019_Mar_13_0952,mf_amp_cond2,3.0.4,59.98291687136277,
loyalty,&&&&&&&&,left,loyalty.virtue,gowlands,,,,,,,,,,,,,,,0,231,231,7,,,,,,,,,,,,,AMP,right,0.2169652896700427,0,,,,,,,,,,,,,,right,0,0.2169652896700427,,,,,,,,,,,1048,2019_Mar_13_0952,mf_amp_cond2,3.0.4,59.98291687136277,
police,&&&&&&,right,authority.vice,erdest,,,,,,,,,,,,,,,0,232,232,311,,,,,,,,,,,,,AMP,right,0.5003450954391155,1,,,,,,,,,,,,,,right,1,0.5003450954391155,,,,,,,,,,,1048,2019_Mar_13_0952,mf_amp_cond2,3.0.4,59.98291687136277,
perfect,&&&&&&&&&,left,sanctity.virtue,gaultless,,,,,,,,,,,,,,,0,233,233,316,,,,,,,,,,,,,AMP,right,0.2002980778052006,0,,,,,,,,,,,,,,right,0,0.2002980778052006,,,,,,,,,,,1048,2019_Mar_13_0952,mf_amp_cond2,3.0.4,59.98291687136277,
death,&&&&&&&,right,care.vice,Daptist,,,,,,,,,,,,,,,0,234,234,35,,,,,,,,,,,,,AMP,left,0.700404236355098,0,,,,,,,,,,,,,,left,0,0.700404236355098,,,,,,,,,,,1048,2019_Mar_13_0952,mf_amp_cond2,3.0.4,59.98291687136277,
prison,&&&&&&&,right,fairness.vice,brudent,,,,,,,,,,,,,,,0,235,235,223,,,,,,,,,,,,,AMP,left,0.45033832822809927,0,,,,,,,,,,,,,,left,0,0.45033832822809927,,,,,,,,,,,1048,2019_Mar_13_0952,mf_amp_cond2,3.0.4,59.98291687136277,
conspiracy,&&&&,right,sanctity.vice,juck,,,,,,,,,,,,,,,0,236,236,90,,,,,,,,,,,,,AMP,left,0.6003618370450567,0,,,,,,,,,,,,,,left,0,0.6003618370450567,,,,,,,,,,,1048,2019_Mar_13_0952,mf_amp_cond2,3.0.4,59.98291687136277,
respect,&&&&,left,sanctity.virtue,alar,,,,,,,,,,,,,,,0,237,237,121,,,,,,,,,,,,,AMP,left,0.36699906157446094,1,,,,,,,,,,,,,,left,1,0.36699906157446094,,,,,,,,,,,1048,2019_Mar_13_0952,mf_amp_cond2,3.0.4,59.98291687136277,
sexual,&&&&&&,right,sanctity.vice,antral,,,,,,,,,,,,,,,0,238,238,113,,,,,,,,,,,,,AMP,left,1.1671958557562903,0,,,,,,,,,,,,,,left,0,1.1671958557562903,,,,,,,,,,,1048,2019_Mar_13_0952,mf_amp_cond2,3.0.4,59.98291687136277,
ittutable,&&&&&&&&&,None,nonword,reprisols,,,,,,,,,,,,,,,0,239,239,241,,,,,,,,,,,,,AMP,left,0.483675638504792,0,,,,,,,,,,,,,,left,0,0.483675638504792,,,,,,,,,,,1048,2019_Mar_13_0952,mf_amp_cond2,3.0.4,59.98291687136277,
actively,&&&&&&&&,left,authority.virtue,clamorek,,,,,,,,,,,,,,,0,240,240,208,,,,,,,,,,,,,AMP,right,0.28362804354401305,0,,,,,,,,,,,,,,right,0,0.28362804354401305,,,,,,,,,,,1048,2019_Mar_13_0952,mf_amp_cond2,3.0.4,59.98291687136277,
agreement,&&&&&&&&&,left,fairness.virtue,gaultless,,,,,,,,,,,,,,,0,241,241,171,,,,,,,,,,,,,AMP,right,0.3836502374324482,0,,,,,,,,,,,,,,right,0,0.3836502374324482,,,,,,,,,,,1048,2019_Mar_13_0952,mf_amp_cond2,3.0.4,59.98291687136277,
