words,nonwords,mask,corr_ans,category,tweets,topic,AMP_pracloop.thisRepN,AMP_pracloop.thisTrialN,AMP_pracloop.thisN,AMP_pracloop.thisIndex,AMP_trials.thisRepN,AMP_trials.thisTrialN,AMP_trials.thisN,AMP_trials.thisIndex,LDT_pracloop.thisRepN,LDT_pracloop.thisTrialN,LDT_pracloop.thisN,LDT_pracloop.thisIndex,LDT_trials.thisRepN,LDT_trials.thisTrialN,LDT_trials.thisN,LDT_trials.thisIndex,tweet_loop.thisRepN,tweet_loop.thisTrialN,tweet_loop.thisN,tweet_loop.thisIndex,begin_key.keys,begin_key.rt,key_resp_AMP_instr1.keys,key_resp_AMP_instr1.rt,resp_AMP_ready1.keys,resp_AMP_ready1.rt,resp_AMP_prac.keys,resp_AMP_prac.rt,task,keypress,RT,resp_AMP_ready.keys,resp_AMP_ready.rt,resp_AMP.keys,resp_AMP.corr,resp_AMP.rt,corr,AMP_nonword_rating.response,AMP_nonword_rating.rt,AMP_word_rating.response,AMP_word_rating.rt,AMP_random_rating.response,AMP_random_rating.rt,key_resp_LDT_instr.keys,key_resp_LDT_instr.rt,resp_LDT_prac.keys,resp_LDT_prac.rt,resp_LDT_ready.keys,resp_LDT_ready.rt,resp_LDT.keys,resp_LDT.corr,resp_LDT.rt,LDT_rating.response,LDT_rating.rt,key_resp_LDT_instr_2.keys,key_resp_LDT_instr_2.rt,resp_tweets.keys,resp_tweets.rt,participant,date,expName,psychopyVersion,frameRate,
,,,,,,,,,,,,,,,,,,,,,,,,,,,right,1283.3622686736926,,,,,,,,,,,,,,,,,,,,,,,,,,,,,,,,,,,,,1051,2019_Mar_13_1144,mf_amp_cond1,3.0.4,60.00396433983,
,,,,,,,,,,,,,,,,,,,,,,,,,,,,,right,0.7837673404428642,,,,,,,,,,,,,,,,,,,,,,,,,,,,,,,,,,,1051,2019_Mar_13_1144,mf_amp_cond1,3.0.4,60.00396433983,
,,,,,,,,,,,,,,,,,,,,,,,,,,,,,,,right,2.3008305329422,,,,,,,,,,,,,,,,,,,,,,,,,,,,,,,,,1051,2019_Mar_13_1144,mf_amp_cond1,3.0.4,60.00396433983,
scarf,bisebell,&&&&&&&&,,,,,0,0,0,3,,,,,,,,,,,,,,,,,,,,,,,right,3.5677742577099707,AMP_prac,right,3.5677742577099707,,,,,,,,,,,,,,,,,,,,,,,,,,,,1051,2019_Mar_13_1144,mf_amp_cond1,3.0.4,60.00396433983,
banana,kacket,&&&&&&,,,,,0,1,1,1,,,,,,,,,,,,,,,,,,,,,,,left,2.184103068721015,AMP_prac,left,2.184103068721015,,,,,,,,,,,,,,,,,,,,,,,,,,,,1051,2019_Mar_13_1144,mf_amp_cond1,3.0.4,60.00396433983,
car,cemtuper,&&&&&&&&,,,,,0,2,2,0,,,,,,,,,,,,,,,,,,,,,,,left,0.9838081999914721,AMP_prac,left,0.9838081999914721,,,,,,,,,,,,,,,,,,,,,,,,,,,,1051,2019_Mar_13_1144,mf_amp_cond1,3.0.4,60.00396433983,
keyboard,senk,&&&&,,,,,0,3,3,2,,,,,,,,,,,,,,,,,,,,,,,left,1.0671668166760355,AMP_prac,left,1.0671668166760355,,,,,,,,,,,,,,,,,,,,,,,,,,,,1051,2019_Mar_13_1144,mf_amp_cond1,3.0.4,60.00396433983,
,,,,,,,,,,,,,,,,,,,,,,,,,,,,,,,,,,,,,,right,1.4339008556271438,,,,,,,,,,,,,,,,,,,,,,,,,,1051,2019_Mar_13_1144,mf_amp_cond1,3.0.4,60.00396433983,
illegal,shoirmaster,&&&&&&&&&&&,right,fairness.vice,,,,,,,0,0,0,0,,,,,,,,,,,,,,,,,,,,,AMP,left,0.833778597676428,,,left,0,0.833778597676428,0,,,,,,,,,,,,,,,,,,,,,,1051,2019_Mar_13_1144,mf_amp_cond1,3.0.4,60.00396433983,
nonobservalt,stindig,&&&&&&&,None,nonword,,,,,,,0,1,1,1,,,,,,,,,,,,,,,,,,,,,AMP,left,2.0507033680041786,,,left,0,2.0507033680041786,0,,,,,,,,,,,,,,,,,,,,,,1051,2019_Mar_13_1144,mf_amp_cond1,3.0.4,60.00396433983,
gun,antral,&&&&&&,right,authority.vice,,,,,,,0,2,2,2,,,,,,,,,,,,,,,,,,,,,AMP,left,0.45034858904546127,,,left,0,0.45034858904546127,0,,,,,,,,,,,,,,,,,,,,,,1051,2019_Mar_13_1144,mf_amp_cond1,3.0.4,60.00396433983,
gowlands,drumbled,&&&&&&&&,None,nonword,,,,,,,0,3,3,3,,,,,,,,,,,,,,,,,,,,,AMP,right,0.4836686874041334,,,right,0,0.4836686874041334,0,,,,,,,,,,,,,,,,,,,,,,1051,2019_Mar_13_1144,mf_amp_cond1,3.0.4,60.00396433983,
free,allears,&&&&&&&,left,fairness.virtue,,,,,,,0,4,4,4,,,,,,,,,,,,,,,,,,,,,AMP,right,0.41698968375567347,,,right,0,0.41698968375567347,0,,,,,,,,,,,,,,,,,,,,,,1051,2019_Mar_13_1144,mf_amp_cond1,3.0.4,60.00396433983,
penalty,Boeinf,&&&&&&,right,authority.vice,,,,,,,0,5,5,5,,,,,,,,,,,,,,,,,,,,,AMP,left,0.5836950504744891,,,left,0,0.5836950504744891,0,,,,,,,,,,,,,,,,,,,,,,1051,2019_Mar_13_1144,mf_amp_cond1,3.0.4,60.00396433983,
pleasant,coom,&&&&,None,control,,,,,,,0,6,6,6,,,,,,,,,,,,,,,,,,,,,AMP,right,0.38365290802903473,,,right,0,0.38365290802903473,0,,,,,,,,,,,,,,,,,,,,,,1051,2019_Mar_13_1144,mf_amp_cond1,3.0.4,60.00396433983,
rejected,brotesque,&&&&&&&&&,right,authority.vice,,,,,,,0,7,7,7,,,,,,,,,,,,,,,,,,,,,AMP,left,0.6003666454926133,,,left,0,0.6003666454926133,0,,,,,,,,,,,,,,,,,,,,,,1051,2019_Mar_13_1144,mf_amp_cond1,3.0.4,60.00396433983,
win,dramens,&&&&&&&,left,fairness.virtue,,,,,,,0,8,8,8,,,,,,,,,,,,,,,,,,,,,AMP,left,2.3841378345969133,,,left,1,2.3841378345969133,1,,,,,,,,,,,,,,,,,,,,,,1051,2019_Mar_13_1144,mf_amp_cond1,3.0.4,60.00396433983,
dignity,totalestic,&&&&&&&&&&,left,sanctity.virtue,,,,,,,0,9,9,9,,,,,,,,,,,,,,,,,,,,,AMP,right,0.7837699062074535,,,right,0,0.7837699062074535,0,,,,,,,,,,,,,,,,,,,,,,1051,2019_Mar_13_1144,mf_amp_cond1,3.0.4,60.00396433983,
fraud,disregord,&&&&&&&&&,right,fairness.vice,,,,,,,0,10,10,10,,,,,,,,,,,,,,,,,,,,,AMP,left,0.35032928179134615,,,left,0,0.35032928179134615,0,,,,,,,,,,,,,,,,,,,,,,1051,2019_Mar_13_1144,mf_amp_cond1,3.0.4,60.00396433983,
critics,smapper,&&&&&&&,right,loyalty.vice,,,,,,,0,11,11,11,,,,,,,,,,,,,,,,,,,,,AMP,right,0.5836976162390783,,,right,1,0.5836976162390783,1,,,,,,,,,,,,,,,,,,,,,,1051,2019_Mar_13_1144,mf_amp_cond1,3.0.4,60.00396433983,
abointment,sfumatoy,&&&&&&&&,None,nonword,,,,,,,0,12,12,12,,,,,,,,,,,,,,,,,,,,,AMP,left,0.5837017855665181,,,left,0,0.5837017855665181,0,,,,,,,,,,,,,,,,,,,,,,1051,2019_Mar_13_1144,mf_amp_cond1,3.0.4,60.00396433983,
safety,Cunday,&&&&&&,left,care.virtue,,,,,,,0,13,13,13,,,,,,,,,,,,,,,,,,,,,AMP,right,0.5336940562410746,,,right,0,0.5336940562410746,0,,,,,,,,,,,,,,,,,,,,,,1051,2019_Mar_13_1144,mf_amp_cond1,3.0.4,60.00396433983,
gillipede,nomparisons,&&&&&&&&&&&,None,nonword,,,,,,,0,14,14,14,,,,,,,,,,,,,,,,,,,,,AMP,left,0.4503303080855403,,,left,0,0.4503303080855403,0,,,,,,,,,,,,,,,,,,,,,,1051,2019_Mar_13_1144,mf_amp_cond1,3.0.4,60.00396433983,
love,hefurbished,&&&&&&&&&&&,left,loyalty.virtue,,,,,,,0,15,15,15,,,,,,,,,,,,,,,,,,,,,AMP,right,0.3669845201948192,,,right,0,0.3669845201948192,0,,,,,,,,,,,,,,,,,,,,,,1051,2019_Mar_13_1144,mf_amp_cond1,3.0.4,60.00396433983,
peaceful,dormandi,&&&&&&&&,left,authority.virtue,,,,,,,0,16,16,16,,,,,,,,,,,,,,,,,,,,,AMP,left,1.550591757928487,,,left,1,1.550591757928487,1,,,,,,,,,,,,,,,,,,,,,,1051,2019_Mar_13_1144,mf_amp_cond1,3.0.4,60.00396433983,
terrorists,baladroit,&&&&&&&&&,right,fairness.vice,,,,,,,0,17,17,17,,,,,,,,,,,,,,,,,,,,,AMP,left,0.8337862949119881,,,left,0,0.8337862949119881,0,,,,,,,,,,,,,,,,,,,,,,1051,2019_Mar_13_1144,mf_amp_cond1,3.0.4,60.00396433983,
commitment,spag,&&&&,left,sanctity.virtue,,,,,,,0,18,18,18,,,,,,,,,,,,,,,,,,,,,AMP,right,0.9171327242511325,,,right,0,0.9171327242511325,0,,,,,,,,,,,,,,,,,,,,,,1051,2019_Mar_13_1144,mf_amp_cond1,3.0.4,60.00396433983,
friends,quarterbocks,&&&&&&&&&&&&,left,loyalty.virtue,,,,,,,0,19,19,19,,,,,,,,,,,,,,,,,,,,,AMP,right,0.8004168058978394,,,right,0,0.8004168058978394,0,,,,,,,,,,,,,,,,,,,,,,1051,2019_Mar_13_1144,mf_amp_cond1,3.0.4,60.00396433983,
victim,Phintoism,&&&&&&&&&,right,care.vice,,,,,,,0,20,20,20,,,,,,,,,,,,,,,,,,,,,AMP,left,1.7673260213632602,,,left,0,1.7673260213632602,0,,,,,,,,,,,,,,,,,,,,,,1051,2019_Mar_13_1144,mf_amp_cond1,3.0.4,60.00396433983,
great,pumber,&&&&&&,left,loyalty.virtue,,,,,,,0,21,21,21,,,,,,,,,,,,,,,,,,,,,AMP,right,0.5336930940975435,,,right,0,0.5336930940975435,0,,,,,,,,,,,,,,,,,,,,,,1051,2019_Mar_13_1144,mf_amp_cond1,3.0.4,60.00396433983,
terrorist,gationwide,&&&&&&&&&&,right,loyalty.vice,,,,,,,0,22,22,22,,,,,,,,,,,,,,,,,,,,,AMP,left,0.4169839108362794,,,left,0,0.4169839108362794,0,,,,,,,,,,,,,,,,,,,,,,1051,2019_Mar_13_1144,mf_amp_cond1,3.0.4,60.00396433983,
party,wonderfujnoss,&&&&&&&&&&&&&,left,loyalty.virtue,,,,,,,0,23,23,23,,,,,,,,,,,,,,,,,,,,,AMP,right,0.5003473382384982,,,right,0,0.5003473382384982,0,,,,,,,,,,,,,,,,,,,,,,1051,2019_Mar_13_1144,mf_amp_cond1,3.0.4,60.00396433983,
ability,vurtain,&&&&&&&,left,authority.virtue,,,,,,,0,24,24,24,,,,,,,,,,,,,,,,,,,,,AMP,right,0.4336599959351588,,,right,0,0.4336599959351588,0,,,,,,,,,,,,,,,,,,,,,,1051,2019_Mar_13_1144,mf_amp_cond1,3.0.4,60.00396433983,
laming,ebbitter,&&&&&&&&,None,nonword,,,,,,,0,25,25,25,,,,,,,,,,,,,,,,,,,,,AMP,right,0.41699096662341617,,,right,0,0.41699096662341617,0,,,,,,,,,,,,,,,,,,,,,,1051,2019_Mar_13_1144,mf_amp_cond1,3.0.4,60.00396433983,
interests,esquisiteness,&&&&&&&&&&&&&,left,fairness.virtue,,,,,,,0,26,26,26,,,,,,,,,,,,,,,,,,,,,AMP,right,0.36699093459174037,,,right,0,0.36699093459174037,0,,,,,,,,,,,,,,,,,,,,,,1051,2019_Mar_13_1144,mf_amp_cond1,3.0.4,60.00396433983,
troops,tomedians,&&&&&&&&&,right,loyalty.vice,,,,,,,0,27,27,27,,,,,,,,,,,,,,,,,,,,,AMP,right,0.4336526194238104,,,right,1,0.4336526194238104,1,,,,,,,,,,,,,,,,,,,,,,1051,2019_Mar_13_1144,mf_amp_cond1,3.0.4,60.00396433983,
hand,unscothed,&&&&&&&&&,left,sanctity.virtue,,,,,,,0,28,28,28,,,,,,,,,,,,,,,,,,,,,AMP,right,1.2005148816679139,,,right,0,1.2005148816679139,0,,,,,,,,,,,,,,,,,,,,,,1051,2019_Mar_13_1144,mf_amp_cond1,3.0.4,60.00396433983,
suicide,viscs,&&&&&,right,care.vice,,,,,,,0,29,29,29,,,,,,,,,,,,,,,,,,,,,AMP,left,0.2502920143015217,,,left,0,0.2502920143015217,0,,,,,,,,,,,,,,,,,,,,,,1051,2019_Mar_13_1144,mf_amp_cond1,3.0.4,60.00396433983,
benefit,chreams,&&&&&&&,left,fairness.virtue,,,,,,,0,30,30,30,,,,,,,,,,,,,,,,,,,,,AMP,right,0.3169617170933634,,,right,0,0.3169617170933634,0,,,,,,,,,,,,,,,,,,,,,,1051,2019_Mar_13_1144,mf_amp_cond1,3.0.4,60.00396433983,
death,presentkess,&&&&&&&&&&&,right,care.vice,,,,,,,0,31,31,31,,,,,,,,,,,,,,,,,,,,,AMP,left,0.4836728567315731,,,left,0,0.4836728567315731,0,,,,,,,,,,,,,,,,,,,,,,1051,2019_Mar_13_1144,mf_amp_cond1,3.0.4,60.00396433983,
scandal,festate,&&&&&&&,right,sanctity.vice,,,,,,,0,32,32,32,,,,,,,,,,,,,,,,,,,,,AMP,right,0.18362231148057617,,,right,1,0.18362231148057617,1,,,,,,,,,,,,,,,,,,,,,,1051,2019_Mar_13_1144,mf_amp_cond1,3.0.4,60.00396433983,
powerful,asn,&&&,left,authority.virtue,,,,,,,0,33,33,33,,,,,,,,,,,,,,,,,,,,,AMP,left,1.5005942916031927,,,left,1,1.5005942916031927,1,,,,,,,,,,,,,,,,,,,,,,1051,2019_Mar_13_1144,mf_amp_cond1,3.0.4,60.00396433983,
died,cromiscuity,&&&&&&&&&&&,right,care.vice,,,,,,,0,34,34,34,,,,,,,,,,,,,,,,,,,,,AMP,left,0.25027726124972105,,,left,0,0.25027726124972105,0,,,,,,,,,,,,,,,,,,,,,,1051,2019_Mar_13_1144,mf_amp_cond1,3.0.4,60.00396433983,
clean,squets,&&&&&&,left,sanctity.virtue,,,,,,,0,35,35,35,,,,,,,,,,,,,,,,,,,,,AMP,right,0.16692634182982147,,,right,0,0.16692634182982147,0,,,,,,,,,,,,,,,,,,,,,,1051,2019_Mar_13_1144,mf_amp_cond1,3.0.4,60.00396433983,
blamed,carvels,&&&&&&&,right,loyalty.vice,,,,,,,0,36,36,36,,,,,,,,,,,,,,,,,,,,,AMP,left,0.8837898549099918,,,left,0,0.8837898549099918,0,,,,,,,,,,,,,,,,,,,,,,1051,2019_Mar_13_1144,mf_amp_cond1,3.0.4,60.00396433983,
threatened,frojecting,&&&&&&&&&&,right,fairness.vice,,,,,,,0,37,37,37,,,,,,,,,,,,,,,,,,,,,AMP,left,0.1002537525491789,,,left,0,0.1002537525491789,0,,,,,,,,,,,,,,,,,,,,,,1051,2019_Mar_13_1144,mf_amp_cond1,3.0.4,60.00396433983,
officers,taxpayung,&&&&&&&&&,right,authority.vice,,,,,,,0,38,38,38,,,,,,,,,,,,,,,,,,,,,AMP,left,0.2502827134740073,,,left,0,0.2502827134740073,0,,,,,,,,,,,,,,,,,,,,,,1051,2019_Mar_13_1144,mf_amp_cond1,3.0.4,60.00396433983,
protect,touls,&&&&&,left,fairness.virtue,,,,,,,0,39,39,39,,,,,,,,,,,,,,,,,,,,,AMP,right,0.5837049927504268,,,right,0,0.5837049927504268,0,,,,,,,,,,,,,,,,,,,,,,1051,2019_Mar_13_1144,mf_amp_cond1,3.0.4,60.00396433983,
embrace,synchronazers,&&&&&&&&&&&&&,left,authority.virtue,,,,,,,0,40,40,40,,,,,,,,,,,,,,,,,,,,,AMP,right,2.1007377169735264,,,right,0,2.1007377169735264,0,,,,,,,,,,,,,,,,,,,,,,1051,2019_Mar_13_1144,mf_amp_cond1,3.0.4,60.00396433983,
values,photocalkodes,&&&&&&&&&&&&&,left,sanctity.virtue,,,,,,,0,41,41,41,,,,,,,,,,,,,,,,,,,,,AMP,left,0.4003187301568687,,,left,1,0.4003187301568687,1,,,,,,,,,,,,,,,,,,,,,,1051,2019_Mar_13_1144,mf_amp_cond1,3.0.4,60.00396433983,
war,chonograph,&&&&&&&&&&,right,sanctity.vice,,,,,,,0,42,42,42,,,,,,,,,,,,,,,,,,,,,AMP,left,0.6337258715357166,,,left,0,0.6337258715357166,0,,,,,,,,,,,,,,,,,,,,,,1051,2019_Mar_13_1144,mf_amp_cond1,3.0.4,60.00396433983,
growth,prones,&&&&&&,left,care.virtue,,,,,,,0,43,43,43,,,,,,,,,,,,,,,,,,,,,AMP,right,0.8337683346762788,,,right,0,0.8337683346762788,0,,,,,,,,,,,,,,,,,,,,,,1051,2019_Mar_13_1144,mf_amp_cond1,3.0.4,60.00396433983,
peace,hescribe,&&&&&&&&,left,care.virtue,,,,,,,0,44,44,44,,,,,,,,,,,,,,,,,,,,,AMP,right,0.08357061166316271,,,right,0,0.08357061166316271,0,,,,,,,,,,,,,,,,,,,,,,1051,2019_Mar_13_1144,mf_amp_cond1,3.0.4,60.00396433983,
progress,sidearbs,&&&&&&&&,left,authority.virtue,,,,,,,0,45,45,45,,,,,,,,,,,,,,,,,,,,,AMP,right,0.01688872155500576,,,right,0,0.01688872155500576,0,,,,,,,,,,,,,,,,,,,,,,1051,2019_Mar_13_1144,mf_amp_cond1,3.0.4,60.00396433983,
attacks,lachelor,&&&&&&&&,right,care.vice,,,,,,,0,46,46,46,,,,,,,,,,,,,,,,,,,,,AMP,left,0.21693759906338528,,,left,0,0.21693759906338528,0,,,,,,,,,,,,,,,,,,,,,,1051,2019_Mar_13_1144,mf_amp_cond1,3.0.4,60.00396433983,
safe,shoirmaster,&&&&&&&&&&&,left,care.virtue,,,,,,,0,47,47,47,,,,,,,,,,,,,,,,,,,,,AMP,right,0.15023646582267247,,,right,0,0.15023646582267247,0,,,,,,,,,,,,,,,,,,,,,,1051,2019_Mar_13_1144,mf_amp_cond1,3.0.4,60.00396433983,
honstables,ronviolence,&&&&&&&&&&&,None,nonword,,,,,,,0,48,48,48,,,,,,,,,,,,,,,,,,,,,AMP,left,0.1669314733298961,,,left,0,0.1669314733298961,0,,,,,,,,,,,,,,,,,,,,,,1051,2019_Mar_13_1144,mf_amp_cond1,3.0.4,60.00396433983,
fair,perified,&&&&&&&&,left,fairness.virtue,,,,,,,0,49,49,49,,,,,,,,,,,,,,,,,,,,,AMP,right,0.266952704929281,,,right,0,0.266952704929281,0,,,,,,,,,,,,,,,,,,,,,,1051,2019_Mar_13_1144,mf_amp_cond1,3.0.4,60.00396433983,
celebrated,hatigue,&&&&&&&,left,authority.virtue,,,,,,,0,50,50,50,,,,,,,,,,,,,,,,,,,,,AMP,right,0.8504235730797518,,,right,0,0.8504235730797518,0,,,,,,,,,,,,,,,,,,,,,,1051,2019_Mar_13_1144,mf_amp_cond1,3.0.4,60.00396433983,
fear,pulge,&&&&&,right,sanctity.vice,,,,,,,0,51,51,51,,,,,,,,,,,,,,,,,,,,,AMP,left,0.43365326084312983,,,left,0,0.43365326084312983,0,,,,,,,,,,,,,,,,,,,,,,1051,2019_Mar_13_1144,mf_amp_cond1,3.0.4,60.00396433983,
corruption,Oregoniuns,&&&&&&&&&&,right,sanctity.vice,,,,,,,0,52,52,52,,,,,,,,,,,,,,,,,,,,,AMP,left,0.5836879946873523,,,left,0,0.5836879946873523,0,,,,,,,,,,,,,,,,,,,,,,1051,2019_Mar_13_1144,mf_amp_cond1,3.0.4,60.00396433983,
emassion,papert,&&&&&&,None,nonword,,,,,,,0,53,53,53,,,,,,,,,,,,,,,,,,,,,AMP,left,0.5003611291467678,,,left,0,0.5003611291467678,0,,,,,,,,,,,,,,,,,,,,,,1051,2019_Mar_13_1144,mf_amp_cond1,3.0.4,60.00396433983,
groups,blunderints,&&&&&&&&&&&,right,loyalty.vice,,,,,,,0,54,54,54,,,,,,,,,,,,,,,,,,,,,AMP,left,0.2336021382943727,,,left,0,0.2336021382943727,0,,,,,,,,,,,,,,,,,,,,,,1051,2019_Mar_13_1144,mf_amp_cond1,3.0.4,60.00396433983,
promised,suggists,&&&&&&&&,left,loyalty.virtue,,,,,,,0,55,55,55,,,,,,,,,,,,,,,,,,,,,AMP,right,0.2002704940678086,,,right,0,0.2002704940678086,0,,,,,,,,,,,,,,,,,,,,,,1051,2019_Mar_13_1144,mf_amp_cond1,3.0.4,60.00396433983,
black,lursuer,&&&&&&&,right,loyalty.vice,,,,,,,0,56,56,56,,,,,,,,,,,,,,,,,,,,,AMP,left,0.20026632474036887,,,left,0,0.20026632474036887,0,,,,,,,,,,,,,,,,,,,,,,1051,2019_Mar_13_1144,mf_amp_cond1,3.0.4,60.00396433983,
strong,chared,&&&&&&,left,loyalty.virtue,,,,,,,0,57,57,57,,,,,,,,,,,,,,,,,,,,,AMP,right,0.6837239793094341,,,right,0,0.6837239793094341,0,,,,,,,,,,,,,,,,,,,,,,1051,2019_Mar_13_1144,mf_amp_cond1,3.0.4,60.00396433983,
promote,pistraught,&&&&&&&&&&,left,sanctity.virtue,,,,,,,0,58,58,58,,,,,,,,,,,,,,,,,,,,,AMP,left,0.23349116966710426,,,left,1,0.23349116966710426,1,,,,,,,,,,,,,,,,,,,,,,1051,2019_Mar_13_1144,mf_amp_cond1,3.0.4,60.00396433983,
serial,glacenta,&&&&&&&&,right,sanctity.vice,,,,,,,0,59,59,59,,,,,,,,,,,,,,,,,,,,,AMP,left,0.38367279261001386,,,left,0,0.38367279261001386,0,,,,,,,,,,,,,,,,,,,,,,1051,2019_Mar_13_1144,mf_amp_cond1,3.0.4,60.00396433983,
actively,reviked,&&&&&&&,left,authority.virtue,,,,,,,0,60,60,60,,,,,,,,,,,,,,,,,,,,,AMP,right,1.100481142057106,,,right,0,1.100481142057106,0,,,,,,,,,,,,,,,,,,,,,,1051,2019_Mar_13_1144,mf_amp_cond1,3.0.4,60.00396433983,
compassion,crinking,&&&&&&&&,left,care.virtue,,,,,,,0,61,61,61,,,,,,,,,,,,,,,,,,,,,AMP,right,0.366965597786475,,,right,0,0.366965597786475,0,,,,,,,,,,,,,,,,,,,,,,1051,2019_Mar_13_1144,mf_amp_cond1,3.0.4,60.00396433983,
betrayal,saned,&&&&&,right,loyalty.vice,,,,,,,0,62,62,62,,,,,,,,,,,,,,,,,,,,,AMP,left,0.28363039359101094,,,left,0,0.28363039359101094,0,,,,,,,,,,,,,,,,,,,,,,1051,2019_Mar_13_1144,mf_amp_cond1,3.0.4,60.00396433983,
refused,bluently,&&&&&&&&,right,authority.vice,,,,,,,0,63,63,63,,,,,,,,,,,,,,,,,,,,,AMP,left,0.4669964509375859,,,left,0,0.4669964509375859,0,,,,,,,,,,,,,,,,,,,,,,1051,2019_Mar_13_1144,mf_amp_cond1,3.0.4,60.00396433983,
health,neutralust,&&&&&&&&&&,left,care.virtue,,,,,,,0,64,64,64,,,,,,,,,,,,,,,,,,,,,AMP,right,0.3002949328511022,,,right,0,0.3002949328511022,0,,,,,,,,,,,,,,,,,,,,,,1051,2019_Mar_13_1144,mf_amp_cond1,3.0.4,60.00396433983,
respect,ecgagement,&&&&&&&&&&,left,sanctity.virtue,,,,,,,0,65,65,65,,,,,,,,,,,,,,,,,,,,,AMP,right,0.4001833869260736,,,right,0,0.4001833869260736,0,,,,,,,,,,,,,,,,,,,,,,1051,2019_Mar_13_1144,mf_amp_cond1,3.0.4,60.00396433983,
riot,atson,&&&&&,right,authority.vice,,,,,,,0,66,66,66,,,,,,,,,,,,,,,,,,,,,AMP,left,0.2836262242635712,,,left,0,0.2836262242635712,0,,,,,,,,,,,,,,,,,,,,,,1051,2019_Mar_13_1144,mf_amp_cond1,3.0.4,60.00396433983,
support,mih,&&&,left,loyalty.virtue,,,,,,,0,67,67,67,,,,,,,,,,,,,,,,,,,,,AMP,right,0.3836407207418233,,,right,0,0.3836407207418233,0,,,,,,,,,,,,,,,,,,,,,,1051,2019_Mar_13_1144,mf_amp_cond1,3.0.4,60.00396433983,
violence,faspberry,&&&&&&&&&,right,care.vice,,,,,,,0,68,68,68,,,,,,,,,,,,,,,,,,,,,AMP,left,1.200517768127611,,,left,0,1.200517768127611,0,,,,,,,,,,,,,,,,,,,,,,1051,2019_Mar_13_1144,mf_amp_cond1,3.0.4,60.00396433983,
arrests,tabin,&&&&&,right,authority.vice,,,,,,,0,69,69,69,,,,,,,,,,,,,,,,,,,,,AMP,left,0.35029271987150423,,,left,0,0.35029271987150423,0,,,,,,,,,,,,,,,,,,,,,,1051,2019_Mar_13_1144,mf_amp_cond1,3.0.4,60.00396433983,
unpleasant,tislay,&&&&&&,None,control,,,,,,,0,70,70,70,,,,,,,,,,,,,,,,,,,,,AMP,left,0.6837326386885252,,,left,0,0.6837326386885252,0,,,,,,,,,,,,,,,,,,,,,,1051,2019_Mar_13_1144,mf_amp_cond1,3.0.4,60.00396433983,
promises,openet,&&&&&&,left,fairness.virtue,,,,,,,0,71,71,71,,,,,,,,,,,,,,,,,,,,,AMP,left,0.5669884970993735,,,left,1,0.5669884970993735,1,,,,,,,,,,,,,,,,,,,,,,1051,2019_Mar_13_1144,mf_amp_cond1,3.0.4,60.00396433983,
hate,iptervention,&&&&&&&&&&&&,right,fairness.vice,,,,,,,0,72,72,72,,,,,,,,,,,,,,,,,,,,,AMP,left,0.18362167006125674,,,left,0,0.18362167006125674,0,,,,,,,,,,,,,,,,,,,,,,1051,2019_Mar_13_1144,mf_amp_cond1,3.0.4,60.00396433983,
shot,Lacedonia,&&&&&&&&&,right,care.vice,,,,,,,0,73,73,73,,,,,,,,,,,,,,,,,,,,,AMP,left,0.2502894485660363,,,left,0,0.2502894485660363,0,,,,,,,,,,,,,,,,,,,,,,1051,2019_Mar_13_1144,mf_amp_cond1,3.0.4,60.00396433983,
help,framo,&&&&&,left,care.virtue,,,,,,,0,74,74,74,,,,,,,,,,,,,,,,,,,,,AMP,left,0.5170150846824981,,,left,1,0.5170150846824981,1,,,,,,,,,,,,,,,,,,,,,,1051,2019_Mar_13_1144,mf_amp_cond1,3.0.4,60.00396433983,
brudent,halaise,&&&&&&&,None,nonword,,,,,,,0,75,75,75,,,,,,,,,,,,,,,,,,,,,AMP,left,0.5336703230859712,,,left,0,0.5336703230859712,0,,,,,,,,,,,,,,,,,,,,,,1051,2019_Mar_13_1144,mf_amp_cond1,3.0.4,60.00396433983,
Loorish,troubla,&&&&&&&,None,nonword,,,,,,,0,76,76,76,,,,,,,,,,,,,,,,,,,,,AMP,left,0.650387524307007,,,left,0,0.650387524307007,0,,,,,,,,,,,,,,,,,,,,,,1051,2019_Mar_13_1144,mf_amp_cond1,3.0.4,60.00396433983,
conspiracy,sliptery,&&&&&&&&,right,sanctity.vice,,,,,,,0,77,77,77,,,,,,,,,,,,,,,,,,,,,AMP,left,1.3838985784968827,,,left,0,1.3838985784968827,0,,,,,,,,,,,,,,,,,,,,,,1051,2019_Mar_13_1144,mf_amp_cond1,3.0.4,60.00396433983,
gournful,lenon,&&&&&,None,nonword,,,,,,,0,78,78,78,,,,,,,,,,,,,,,,,,,,,AMP,left,0.4336458843026776,,,left,0,0.4336458843026776,0,,,,,,,,,,,,,,,,,,,,,,1051,2019_Mar_13_1144,mf_amp_cond1,3.0.4,60.00396433983,
accused,nomaric,&&&&&&&,right,fairness.vice,,,,,,,0,79,79,79,,,,,,,,,,,,,,,,,,,,,AMP,left,0.38364360720152035,,,left,0,0.38364360720152035,0,,,,,,,,,,,,,,,,,,,,,,1051,2019_Mar_13_1144,mf_amp_cond1,3.0.4,60.00396433983,
violations,lorthwhile,&&&&&&&&&&,right,sanctity.vice,,,,,,,0,80,80,80,,,,,,,,,,,,,,,,,,,,,AMP,left,0.43364973296411335,,,left,0,0.43364973296411335,0,,,,,,,,,,,,,,,,,,,,,,1051,2019_Mar_13_1144,mf_amp_cond1,3.0.4,60.00396433983,
forced,bycled,&&&&&&,right,fairness.vice,,,,,,,0,81,81,81,,,,,,,,,,,,,,,,,,,,,AMP,left,0.08358536471496336,,,left,0,0.08358536471496336,0,,,,,,,,,,,,,,,,,,,,,,1051,2019_Mar_13_1144,mf_amp_cond1,3.0.4,60.00396433983,
corruption,tislay,&&&&&&,right,sanctity.vice,,,,,,,0,82,82,82,,,,,,,,,,,,,,,,,,,,,AMP,left,0.08359434481826611,,,left,0,0.08359434481826611,0,,,,,,,,,,,,,,,,,,,,,,1051,2019_Mar_13_1144,mf_amp_cond1,3.0.4,60.00396433983,
conspiracy,smapper,&&&&&&&,right,sanctity.vice,,,,,,,0,83,83,83,,,,,,,,,,,,,,,,,,,,,AMP,left,0.9004473383247387,,,left,0,0.9004473383247387,0,,,,,,,,,,,,,,,,,,,,,,1051,2019_Mar_13_1144,mf_amp_cond1,3.0.4,60.00396433983,
compassion,gationwide,&&&&&&&&&&,left,care.virtue,,,,,,,0,84,84,84,,,,,,,,,,,,,,,,,,,,,AMP,right,0.116926309739938,,,right,0,0.116926309739938,0,,,,,,,,,,,,,,,,,,,,,,1051,2019_Mar_13_1144,mf_amp_cond1,3.0.4,60.00396433983,
shot,brotesque,&&&&&&&&&,right,care.vice,,,,,,,0,85,85,85,,,,,,,,,,,,,,,,,,,,,AMP,left,1.0171308641147334,,,left,0,1.0171308641147334,0,,,,,,,,,,,,,,,,,,,,,,1051,2019_Mar_13_1144,mf_amp_cond1,3.0.4,60.00396433983,
love,papert,&&&&&&,left,loyalty.virtue,,,,,,,0,86,86,86,,,,,,,,,,,,,,,,,,,,,AMP,right,0.1335898868564982,,,right,0,0.1335898868564982,0,,,,,,,,,,,,,,,,,,,,,,1051,2019_Mar_13_1144,mf_amp_cond1,3.0.4,60.00396433983,
promises,glacenta,&&&&&&&&,left,fairness.virtue,,,,,,,0,87,87,87,,,,,,,,,,,,,,,,,,,,,AMP,right,0.46699613021337427,,,right,0,0.46699613021337427,0,,,,,,,,,,,,,,,,,,,,,,1051,2019_Mar_13_1144,mf_amp_cond1,3.0.4,60.00396433983,
fraud,openet,&&&&&&,right,fairness.vice,,,,,,,0,88,88,88,,,,,,,,,,,,,,,,,,,,,AMP,left,0.21680482153897174,,,left,0,0.21680482153897174,0,,,,,,,,,,,,,,,,,,,,,,1051,2019_Mar_13_1144,mf_amp_cond1,3.0.4,60.00396433983,
progress,hescribe,&&&&&&&&,left,authority.virtue,,,,,,,0,89,89,89,,,,,,,,,,,,,,,,,,,,,AMP,right,0.4503476269019302,,,right,0,0.4503476269019302,0,,,,,,,,,,,,,,,,,,,,,,1051,2019_Mar_13_1144,mf_amp_cond1,3.0.4,60.00396433983,
health,shoirmaster,&&&&&&&&&&&,left,care.virtue,,,,,,,0,90,90,90,,,,,,,,,,,,,,,,,,,,,AMP,right,0.13358892471296713,,,right,0,0.13358892471296713,0,,,,,,,,,,,,,,,,,,,,,,1051,2019_Mar_13_1144,mf_amp_cond1,3.0.4,60.00396433983,
rejected,Lacedonia,&&&&&&&&&,right,authority.vice,,,,,,,0,91,91,91,,,,,,,,,,,,,,,,,,,,,AMP,left,0.25027854411746375,,,left,0,0.25027854411746375,0,,,,,,,,,,,,,,,,,,,,,,1051,2019_Mar_13_1144,mf_amp_cond1,3.0.4,60.00396433983,
gillipede,frojecting,&&&&&&&&&&,None,nonword,,,,,,,0,92,92,92,,,,,,,,,,,,,,,,,,,,,AMP,left,1.0338172121846583,,,left,0,1.0338172121846583,0,,,,,,,,,,,,,,,,,,,,,,1051,2019_Mar_13_1144,mf_amp_cond1,3.0.4,60.00396433983,
respect,ecgagement,&&&&&&&&&&,left,sanctity.virtue,,,,,,,0,93,93,93,,,,,,,,,,,,,,,,,,,,,AMP,right,0.7170700558635872,,,right,0,0.7170700558635872,0,,,,,,,,,,,,,,,,,,,,,,1051,2019_Mar_13_1144,mf_amp_cond1,3.0.4,60.00396433983,
war,chreams,&&&&&&&,right,sanctity.vice,,,,,,,0,94,94,94,,,,,,,,,,,,,,,,,,,,,AMP,left,1.0004611933545675,,,left,0,1.0004611933545675,0,,,,,,,,,,,,,,,,,,,,,,1051,2019_Mar_13_1144,mf_amp_cond1,3.0.4,60.00396433983,
accused,quarterbocks,&&&&&&&&&&&&,right,fairness.vice,,,,,,,0,95,95,95,,,,,,,,,,,,,,,,,,,,,AMP,right,1.2505357604240999,,,right,1,1.2505357604240999,1,,,,,,,,,,,,,,,,,,,,,,1051,2019_Mar_13_1144,mf_amp_cond1,3.0.4,60.00396433983,
commitment,vurtain,&&&&&&&,left,sanctity.virtue,,,,,,,0,96,96,96,,,,,,,,,,,,,,,,,,,,,AMP,right,1.0004608726303559,,,right,0,1.0004608726303559,0,,,,,,,,,,,,,,,,,,,,,,1051,2019_Mar_13_1144,mf_amp_cond1,3.0.4,60.00396433983,
suicide,blunderints,&&&&&&&&&&&,right,care.vice,,,,,,,0,97,97,97,,,,,,,,,,,,,,,,,,,,,AMP,left,0.33363427431322634,,,left,0,0.33363427431322634,0,,,,,,,,,,,,,,,,,,,,,,1051,2019_Mar_13_1144,mf_amp_cond1,3.0.4,60.00396433983,
attacks,tabin,&&&&&,right,care.vice,,,,,,,0,98,98,98,,,,,,,,,,,,,,,,,,,,,AMP,left,0.6503766198584344,,,left,0,0.6503766198584344,0,,,,,,,,,,,,,,,,,,,,,,1051,2019_Mar_13_1144,mf_amp_cond1,3.0.4,60.00396433983,
black,pulge,&&&&&,right,loyalty.vice,,,,,,,0,99,99,99,,,,,,,,,,,,,,,,,,,,,AMP,left,0.26694629053235985,,,left,0,0.26694629053235985,0,,,,,,,,,,,,,,,,,,,,,,1051,2019_Mar_13_1144,mf_amp_cond1,3.0.4,60.00396433983,
pleasant,mih,&&&,None,control,,,,,,,0,100,100,100,,,,,,,,,,,,,,,,,,,,,AMP,right,0.9171182919235434,,,right,0,0.9171182919235434,0,,,,,,,,,,,,,,,,,,,,,,1051,2019_Mar_13_1144,mf_amp_cond1,3.0.4,60.00396433983,
critics,prones,&&&&&&,right,loyalty.vice,,,,,,,0,101,101,101,,,,,,,,,,,,,,,,,,,,,AMP,right,1.9005464403890073,,,right,1,1.9005464403890073,1,,,,,,,,,,,,,,,,,,,,,,1051,2019_Mar_13_1144,mf_amp_cond1,3.0.4,60.00396433983,
scandal,lorthwhile,&&&&&&&&&&,right,sanctity.vice,,,,,,,0,102,102,102,,,,,,,,,,,,,,,,,,,,,AMP,left,0.8171137377503328,,,left,0,0.8171137377503328,0,,,,,,,,,,,,,,,,,,,,,,1051,2019_Mar_13_1144,mf_amp_cond1,3.0.4,60.00396433983,
blamed,photocalkodes,&&&&&&&&&&&&&,right,loyalty.vice,,,,,,,0,103,103,103,,,,,,,,,,,,,,,,,,,,,AMP,left,1.0338101563684177,,,left,0,1.0338101563684177,0,,,,,,,,,,,,,,,,,,,,,,1051,2019_Mar_13_1144,mf_amp_cond1,3.0.4,60.00396433983,
help,antral,&&&&&&,left,care.virtue,,,,,,,0,104,104,104,,,,,,,,,,,,,,,,,,,,,AMP,left,1.3505640478397254,,,left,1,1.3505640478397254,1,,,,,,,,,,,,,,,,,,,,,,1051,2019_Mar_13_1144,mf_amp_cond1,3.0.4,60.00396433983,
powerful,lachelor,&&&&&&&&,left,authority.virtue,,,,,,,0,105,105,105,,,,,,,,,,,,,,,,,,,,,AMP,left,0.5170115567743778,,,left,1,0.5170115567743778,1,,,,,,,,,,,,,,,,,,,,,,1051,2019_Mar_13_1144,mf_amp_cond1,3.0.4,60.00396433983,
dignity,halaise,&&&&&&&,left,sanctity.virtue,,,,,,,0,106,106,106,,,,,,,,,,,,,,,,,,,,,AMP,right,2.0505885507445782,,,right,0,2.0505885507445782,0,,,,,,,,,,,,,,,,,,,,,,1051,2019_Mar_13_1144,mf_amp_cond1,3.0.4,60.00396433983,
ability,chonograph,&&&&&&&&&&,left,authority.virtue,,,,,,,0,107,107,107,,,,,,,,,,,,,,,,,,,,,AMP,left,0.36698644451098517,,,left,1,0.36698644451098517,1,,,,,,,,,,,,,,,,,,,,,,1051,2019_Mar_13_1144,mf_amp_cond1,3.0.4,60.00396433983,
victim,dramens,&&&&&&&,right,care.vice,,,,,,,0,108,108,108,,,,,,,,,,,,,,,,,,,,,AMP,right,0.35029432346345857,,,right,1,0.35029432346345857,1,,,,,,,,,,,,,,,,,,,,,,1051,2019_Mar_13_1144,mf_amp_cond1,3.0.4,60.00396433983,
win,disregord,&&&&&&&&&,left,fairness.virtue,,,,,,,0,109,109,109,,,,,,,,,,,,,,,,,,,,,AMP,right,0.18361493496922776,,,right,0,0.18361493496922776,0,,,,,,,,,,,,,,,,,,,,,,1051,2019_Mar_13_1144,mf_amp_cond1,3.0.4,60.00396433983,
forced,neutralust,&&&&&&&&&&,right,fairness.vice,,,,,,,0,110,110,110,,,,,,,,,,,,,,,,,,,,,AMP,left,0.4503421746776439,,,left,0,0.4503421746776439,0,,,,,,,,,,,,,,,,,,,,,,1051,2019_Mar_13_1144,mf_amp_cond1,3.0.4,60.00396433983,
brudent,touls,&&&&&,None,nonword,,,,,,,0,111,111,111,,,,,,,,,,,,,,,,,,,,,AMP,right,0.2169568421668373,,,right,0,0.2169568421668373,0,,,,,,,,,,,,,,,,,,,,,,1051,2019_Mar_13_1144,mf_amp_cond1,3.0.4,60.00396433983,
values,bycled,&&&&&&,left,sanctity.virtue,,,,,,,0,112,112,112,,,,,,,,,,,,,,,,,,,,,AMP,left,1.2672012618277222,,,left,1,1.2672012618277222,1,,,,,,,,,,,,,,,,,,,,,,1051,2019_Mar_13_1144,mf_amp_cond1,3.0.4,60.00396433983,
abointment,tomedians,&&&&&&&&&,None,nonword,,,,,,,0,113,113,113,,,,,,,,,,,,,,,,,,,,,AMP,left,0.1501290250744205,,,left,0,0.1501290250744205,0,,,,,,,,,,,,,,,,,,,,,,1051,2019_Mar_13_1144,mf_amp_cond1,3.0.4,60.00396433983,
hand,taxpayung,&&&&&&&&&,left,sanctity.virtue,,,,,,,0,114,114,114,,,,,,,,,,,,,,,,,,,,,AMP,left,0.15026084045530297,,,left,1,0.15026084045530297,1,,,,,,,,,,,,,,,,,,,,,,1051,2019_Mar_13_1144,mf_amp_cond1,3.0.4,60.00396433983,
benefit,shoirmaster,&&&&&&&&&&&,left,fairness.virtue,,,,,,,0,115,115,115,,,,,,,,,,,,,,,,,,,,,AMP,right,0.43366416526259854,,,right,0,0.43366416526259854,0,,,,,,,,,,,,,,,,,,,,,,1051,2019_Mar_13_1144,mf_amp_cond1,3.0.4,60.00396433983,
nonobservalt,ronviolence,&&&&&&&&&&&,None,nonword,,,,,,,0,116,116,116,,,,,,,,,,,,,,,,,,,,,AMP,left,0.18361108636599965,,,left,0,0.18361108636599965,0,,,,,,,,,,,,,,,,,,,,,,1051,2019_Mar_13_1144,mf_amp_cond1,3.0.4,60.00396433983,
arrests,Boeinf,&&&&&&,right,authority.vice,,,,,,,0,117,117,117,,,,,,,,,,,,,,,,,,,,,AMP,left,0.5336815482005477,,,left,0,0.5336815482005477,0,,,,,,,,,,,,,,,,,,,,,,1051,2019_Mar_13_1144,mf_amp_cond1,3.0.4,60.00396433983,
death,presentkess,&&&&&&&&&&&,right,care.vice,,,,,,,0,118,118,118,,,,,,,,,,,,,,,,,,,,,AMP,left,0.2836226963554509,,,left,0,0.2836226963554509,0,,,,,,,,,,,,,,,,,,,,,,1051,2019_Mar_13_1144,mf_amp_cond1,3.0.4,60.00396433983,
interests,synchronazers,&&&&&&&&&&&&&,left,fairness.virtue,,,,,,,0,119,119,119,,,,,,,,,,,,,,,,,,,,,AMP,left,0.4336644859868102,,,left,1,0.4336644859868102,1,,,,,,,,,,,,,,,,,,,,,,1051,2019_Mar_13_1144,mf_amp_cond1,3.0.4,60.00396433983,
threatened,pistraught,&&&&&&&&&&,right,fairness.vice,,,,,,,0,120,120,120,,,,,,,,,,,,,,,,,,,,,AMP,left,0.3503074729233049,,,left,0,0.3503074729233049,0,,,,,,,,,,,,,,,,,,,,,,1051,2019_Mar_13_1144,mf_amp_cond1,3.0.4,60.00396433983,
emassion,lursuer,&&&&&&&,None,nonword,,,,,,,0,121,121,121,,,,,,,,,,,,,,,,,,,,,AMP,left,0.40033829398453236,,,left,0,0.40033829398453236,0,,,,,,,,,,,,,,,,,,,,,,1051,2019_Mar_13_1144,mf_amp_cond1,3.0.4,60.00396433983,
officers,saned,&&&&&,right,authority.vice,,,,,,,0,122,122,122,,,,,,,,,,,,,,,,,,,,,AMP,left,0.31695658559328876,,,left,0,0.31695658559328876,0,,,,,,,,,,,,,,,,,,,,,,1051,2019_Mar_13_1144,mf_amp_cond1,3.0.4,60.00396433983,
Loorish,spag,&&&&,None,nonword,,,,,,,0,123,123,123,,,,,,,,,,,,,,,,,,,,,AMP,left,0.35034339342382737,,,left,0,0.35034339342382737,0,,,,,,,,,,,,,,,,,,,,,,1051,2019_Mar_13_1144,mf_amp_cond1,3.0.4,60.00396433983,
illegal,esquisiteness,&&&&&&&&&&&&&,right,fairness.vice,,,,,,,0,124,124,124,,,,,,,,,,,,,,,,,,,,,AMP,left,0.21694401343120262,,,left,0,0.21694401343120262,0,,,,,,,,,,,,,,,,,,,,,,1051,2019_Mar_13_1144,mf_amp_cond1,3.0.4,60.00396433983,
clean,troubla,&&&&&&&,left,sanctity.virtue,,,,,,,0,125,125,125,,,,,,,,,,,,,,,,,,,,,AMP,right,0.15025635037454776,,,right,0,0.15025635037454776,0,,,,,,,,,,,,,,,,,,,,,,1051,2019_Mar_13_1144,mf_amp_cond1,3.0.4,60.00396433983,
terrorists,Cunday,&&&&&&,right,fairness.vice,,,,,,,0,126,126,126,,,,,,,,,,,,,,,,,,,,,AMP,left,0.21693054324714467,,,left,0,0.21693054324714467,0,,,,,,,,,,,,,,,,,,,,,,1051,2019_Mar_13_1144,mf_amp_cond1,3.0.4,60.00396433983,
friends,nomaric,&&&&&&&,left,loyalty.virtue,,,,,,,0,127,127,127,,,,,,,,,,,,,,,,,,,,,AMP,right,0.5003393203078303,,,right,0,0.5003393203078303,0,,,,,,,,,,,,,,,,,,,,,,1051,2019_Mar_13_1144,mf_amp_cond1,3.0.4,60.00396433983,
unpleasant,asn,&&&,None,control,,,,,,,0,128,128,128,,,,,,,,,,,,,,,,,,,,,AMP,left,0.30030840303516015,,,left,0,0.30030840303516015,0,,,,,,,,,,,,,,,,,,,,,,1051,2019_Mar_13_1144,mf_amp_cond1,3.0.4,60.00396433983,
free,coom,&&&&,left,fairness.virtue,,,,,,,0,129,129,129,,,,,,,,,,,,,,,,,,,,,AMP,right,0.4503303080855403,,,right,0,0.4503303080855403,0,,,,,,,,,,,,,,,,,,,,,,1051,2019_Mar_13_1144,mf_amp_cond1,3.0.4,60.00396433983,
died,viscs,&&&&&,right,care.vice,,,,,,,0,130,130,130,,,,,,,,,,,,,,,,,,,,,AMP,left,0.2169379197875969,,,left,0,0.2169379197875969,0,,,,,,,,,,,,,,,,,,,,,,1051,2019_Mar_13_1144,mf_amp_cond1,3.0.4,60.00396433983,
violence,faspberry,&&&&&&&&&,right,care.vice,,,,,,,0,131,131,131,,,,,,,,,,,,,,,,,,,,,AMP,left,0.5336812275054399,,,left,0,0.5336812275054399,0,,,,,,,,,,,,,,,,,,,,,,1051,2019_Mar_13_1144,mf_amp_cond1,3.0.4,60.00396433983,
strong,hefurbished,&&&&&&&&&&&,left,loyalty.virtue,,,,,,,0,132,132,132,,,,,,,,,,,,,,,,,,,,,AMP,right,0.46701858050073497,,,right,0,0.46701858050073497,0,,,,,,,,,,,,,,,,,,,,,,1051,2019_Mar_13_1144,mf_amp_cond1,3.0.4,60.00396433983,
laming,wonderfujnoss,&&&&&&&&&&&&&,None,nonword,,,,,,,0,133,133,133,,,,,,,,,,,,,,,,,,,,,AMP,right,0.6170372784254141,,,right,0,0.6170372784254141,0,,,,,,,,,,,,,,,,,,,,,,1051,2019_Mar_13_1144,mf_amp_cond1,3.0.4,60.00396433983,
great,totalestic,&&&&&&&&&&,left,loyalty.virtue,,,,,,,0,134,134,134,,,,,,,,,,,,,,,,,,,,,AMP,right,0.2002804363728501,,,right,0,0.2002804363728501,0,,,,,,,,,,,,,,,,,,,,,,1051,2019_Mar_13_1144,mf_amp_cond1,3.0.4,60.00396433983,
celebrated,stindig,&&&&&&&,left,authority.virtue,,,,,,,0,135,135,135,,,,,,,,,,,,,,,,,,,,,AMP,right,0.23362106070271693,,,right,0,0.23362106070271693,0,,,,,,,,,,,,,,,,,,,,,,1051,2019_Mar_13_1144,mf_amp_cond1,3.0.4,60.00396433983,
riot,chared,&&&&&&,right,authority.vice,,,,,,,0,136,136,136,,,,,,,,,,,,,,,,,,,,,AMP,left,0.23361624992685392,,,left,0,0.23361624992685392,0,,,,,,,,,,,,,,,,,,,,,,1051,2019_Mar_13_1144,mf_amp_cond1,3.0.4,60.00396433983,
promote,pumber,&&&&&&,left,sanctity.virtue,,,,,,,0,137,137,137,,,,,,,,,,,,,,,,,,,,,AMP,right,0.7670514862402342,,,right,0,0.7670514862402342,0,,,,,,,,,,,,,,,,,,,,,,1051,2019_Mar_13_1144,mf_amp_cond1,3.0.4,60.00396433983,
serial,perified,&&&&&&&&,right,sanctity.vice,,,,,,,0,138,138,138,,,,,,,,,,,,,,,,,,,,,AMP,left,0.2502759783528745,,,left,0,0.2502759783528745,0,,,,,,,,,,,,,,,,,,,,,,1051,2019_Mar_13_1144,mf_amp_cond1,3.0.4,60.00396433983,
betrayal,Oregoniuns,&&&&&&&&&&,right,loyalty.vice,,,,,,,0,139,139,139,,,,,,,,,,,,,,,,,,,,,AMP,left,0.6003631176135968,,,left,0,0.6003631176135968,0,,,,,,,,,,,,,,,,,,,,,,1051,2019_Mar_13_1144,mf_amp_cond1,3.0.4,60.00396433983,
growth,bluently,&&&&&&&&,left,care.virtue,,,,,,,0,140,140,140,,,,,,,,,,,,,,,,,,,,,AMP,right,0.30028787700575776,,,right,0,0.30028787700575776,0,,,,,,,,,,,,,,,,,,,,,,1051,2019_Mar_13_1144,mf_amp_cond1,3.0.4,60.00396433983,
violations,sfumatoy,&&&&&&&&,right,sanctity.vice,,,,,,,0,141,141,141,,,,,,,,,,,,,,,,,,,,,AMP,left,0.3003039129835088,,,left,0,0.3003039129835088,0,,,,,,,,,,,,,,,,,,,,,,1051,2019_Mar_13_1144,mf_amp_cond1,3.0.4,60.00396433983,
gun,dormandi,&&&&&&&&,right,authority.vice,,,,,,,0,142,142,142,,,,,,,,,,,,,,,,,,,,,AMP,left,0.20028620929224417,,,left,0,0.20028620929224417,0,,,,,,,,,,,,,,,,,,,,,,1051,2019_Mar_13_1144,mf_amp_cond1,3.0.4,60.00396433983,
fear,framo,&&&&&,right,sanctity.vice,,,,,,,0,143,143,143,,,,,,,,,,,,,,,,,,,,,AMP,left,2.7842557948897593,,,left,0,2.7842557948897593,0,,,,,,,,,,,,,,,,,,,,,,1051,2019_Mar_13_1144,mf_amp_cond1,3.0.4,60.00396433983,
promised,crinking,&&&&&&&&,left,loyalty.virtue,,,,,,,0,144,144,144,,,,,,,,,,,,,,,,,,,,,AMP,left,0.28362397925229743,,,left,1,0.28362397925229743,1,,,,,,,,,,,,,,,,,,,,,,1051,2019_Mar_13_1144,mf_amp_cond1,3.0.4,60.00396433983,
hate,baladroit,&&&&&&&&&,right,fairness.vice,,,,,,,0,145,145,145,,,,,,,,,,,,,,,,,,,,,AMP,right,0.06690094093210064,,,right,1,0.06690094093210064,1,,,,,,,,,,,,,,,,,,,,,,1051,2019_Mar_13_1144,mf_amp_cond1,3.0.4,60.00396433983,
groups,sidearbs,&&&&&&&&,right,loyalty.vice,,,,,,,0,146,146,146,,,,,,,,,,,,,,,,,,,,,AMP,left,0.41697877933620475,,,left,0,0.41697877933620475,0,,,,,,,,,,,,,,,,,,,,,,1051,2019_Mar_13_1144,mf_amp_cond1,3.0.4,60.00396433983,
refused,reviked,&&&&&&&,right,authority.vice,,,,,,,0,147,147,147,,,,,,,,,,,,,,,,,,,,,AMP,left,0.2002679283323232,,,left,0,0.2002679283323232,0,,,,,,,,,,,,,,,,,,,,,,1051,2019_Mar_13_1144,mf_amp_cond1,3.0.4,60.00396433983,
safety,iptervention,&&&&&&&&&&&&,left,care.virtue,,,,,,,0,148,148,148,,,,,,,,,,,,,,,,,,,,,AMP,right,0.7671040841087233,,,right,0,0.7671040841087233,0,,,,,,,,,,,,,,,,,,,,,,1051,2019_Mar_13_1144,mf_amp_cond1,3.0.4,60.00396433983,
peaceful,festate,&&&&&&&,left,authority.virtue,,,,,,,0,149,149,149,,,,,,,,,,,,,,,,,,,,,AMP,right,0.13360014985664748,,,right,0,0.13360014985664748,0,,,,,,,,,,,,,,,,,,,,,,1051,2019_Mar_13_1144,mf_amp_cond1,3.0.4,60.00396433983,
support,lenon,&&&&&,left,loyalty.virtue,,,,,,,0,150,150,150,,,,,,,,,,,,,,,,,,,,,AMP,right,0.0835667630599346,,,right,0,0.0835667630599346,0,,,,,,,,,,,,,,,,,,,,,,1051,2019_Mar_13_1144,mf_amp_cond1,3.0.4,60.00396433983,
protect,hatigue,&&&&&&&,left,fairness.virtue,,,,,,,0,151,151,151,,,,,,,,,,,,,,,,,,,,,AMP,right,0.0835869683069177,,,right,0,0.0835869683069177,0,,,,,,,,,,,,,,,,,,,,,,1051,2019_Mar_13_1144,mf_amp_cond1,3.0.4,60.00396433983,
peace,unscothed,&&&&&&&&&,left,care.virtue,,,,,,,0,152,152,152,,,,,,,,,,,,,,,,,,,,,AMP,right,0.016901550290640444,,,right,0,0.016901550290640444,0,,,,,,,,,,,,,,,,,,,,,,1051,2019_Mar_13_1144,mf_amp_cond1,3.0.4,60.00396433983,
actively,sliptery,&&&&&&&&,left,authority.virtue,,,,,,,0,153,153,153,,,,,,,,,,,,,,,,,,,,,AMP,right,0.3669248665391933,,,right,0,0.3669248665391933,0,,,,,,,,,,,,,,,,,,,,,,1051,2019_Mar_13_1144,mf_amp_cond1,3.0.4,60.00396433983,
terrorist,ebbitter,&&&&&&&&,right,loyalty.vice,,,,,,,0,154,154,154,,,,,,,,,,,,,,,,,,,,,AMP,left,0.8337612788600381,,,left,0,0.8337612788600381,0,,,,,,,,,,,,,,,,,,,,,,1051,2019_Mar_13_1144,mf_amp_cond1,3.0.4,60.00396433983,
penalty,atson,&&&&&,right,authority.vice,,,,,,,0,155,155,155,,,,,,,,,,,,,,,,,,,,,AMP,right,0.18360210623359308,,,right,1,0.18360210623359308,1,,,,,,,,,,,,,,,,,,,,,,1051,2019_Mar_13_1144,mf_amp_cond1,3.0.4,60.00396433983,
embrace,carvels,&&&&&&&,left,authority.virtue,,,,,,,0,156,156,156,,,,,,,,,,,,,,,,,,,,,AMP,left,0.4503322324017063,,,left,1,0.4503322324017063,1,,,,,,,,,,,,,,,,,,,,,,1051,2019_Mar_13_1144,mf_amp_cond1,3.0.4,60.00396433983,
party,drumbled,&&&&&&&&,left,loyalty.virtue,,,,,,,0,157,157,157,,,,,,,,,,,,,,,,,,,,,AMP,left,0.833754543797113,,,left,1,0.833754543797113,1,,,,,,,,,,,,,,,,,,,,,,1051,2019_Mar_13_1144,mf_amp_cond1,3.0.4,60.00396433983,
troops,allears,&&&&&&&,right,loyalty.vice,,,,,,,0,158,158,158,,,,,,,,,,,,,,,,,,,,,AMP,left,0.10024477244587615,,,left,0,0.10024477244587615,0,,,,,,,,,,,,,,,,,,,,,,1051,2019_Mar_13_1144,mf_amp_cond1,3.0.4,60.00396433983,
gournful,squets,&&&&&&,None,nonword,,,,,,,0,159,159,159,,,,,,,,,,,,,,,,,,,,,AMP,left,0.4003331624844577,,,left,0,0.4003331624844577,0,,,,,,,,,,,,,,,,,,,,,,1051,2019_Mar_13_1144,mf_amp_cond1,3.0.4,60.00396433983,
gowlands,suggists,&&&&&&&&,None,nonword,,,,,,,0,160,160,160,,,,,,,,,,,,,,,,,,,,,AMP,left,0.08357542243902571,,,left,0,0.08357542243902571,0,,,,,,,,,,,,,,,,,,,,,,1051,2019_Mar_13_1144,mf_amp_cond1,3.0.4,60.00396433983,
fair,cromiscuity,&&&&&&&&&&&,left,fairness.virtue,,,,,,,0,161,161,161,,,,,,,,,,,,,,,,,,,,,AMP,left,0.41698808016371913,,,left,1,0.41698808016371913,1,,,,,,,,,,,,,,,,,,,,,,1051,2019_Mar_13_1144,mf_amp_cond1,3.0.4,60.00396433983,
safe,nomparisons,&&&&&&&&&&&,left,care.virtue,,,,,,,0,162,162,162,,,,,,,,,,,,,,,,,,,,,AMP,right,0.6003733806137461,,,right,0,0.6003733806137461,0,,,,,,,,,,,,,,,,,,,,,,1051,2019_Mar_13_1144,mf_amp_cond1,3.0.4,60.00396433983,
honstables,Phintoism,&&&&&&&&&,None,nonword,,,,,,,0,163,163,163,,,,,,,,,,,,,,,,,,,,,AMP,left,0.03355550582637079,,,left,0,0.03355550582637079,0,,,,,,,,,,,,,,,,,,,,,,1051,2019_Mar_13_1144,mf_amp_cond1,3.0.4,60.00396433983,
honstables,vurtain,&&&&&&&,None,nonword,,,,,,,0,164,164,164,,,,,,,,,,,,,,,,,,,,,AMP,right,0.6670504599460401,,,right,0,0.6670504599460401,0,,,,,,,,,,,,,,,,,,,,,,1051,2019_Mar_13_1144,mf_amp_cond1,3.0.4,60.00396433983,
fear,suggists,&&&&&&&&,right,sanctity.vice,,,,,,,0,165,165,165,,,,,,,,,,,,,,,,,,,,,AMP,right,0.5503492946445476,,,right,1,0.5503492946445476,1,,,,,,,,,,,,,,,,,,,,,,1051,2019_Mar_13_1144,mf_amp_cond1,3.0.4,60.00396433983,
abointment,ronviolence,&&&&&&&&&&&,None,nonword,,,,,,,0,166,166,166,,,,,,,,,,,,,,,,,,,,,AMP,right,0.3336323499970604,,,right,0,0.3336323499970604,0,,,,,,,,,,,,,,,,,,,,,,1051,2019_Mar_13_1144,mf_amp_cond1,3.0.4,60.00396433983,
win,Phintoism,&&&&&&&&&,left,fairness.virtue,,,,,,,0,167,167,167,,,,,,,,,,,,,,,,,,,,,AMP,left,0.46700992112164386,,,left,1,0.46700992112164386,1,,,,,,,,,,,,,,,,,,,,,,1051,2019_Mar_13_1144,mf_amp_cond1,3.0.4,60.00396433983,
laming,pumber,&&&&&&,None,nonword,,,,,,,0,168,168,168,,,,,,,,,,,,,,,,,,,,,AMP,left,0.3002869148622267,,,left,0,0.3002869148622267,0,,,,,,,,,,,,,,,,,,,,,,1051,2019_Mar_13_1144,mf_amp_cond1,3.0.4,60.00396433983,
health,framo,&&&&&,left,care.virtue,,,,,,,0,169,169,169,,,,,,,,,,,,,,,,,,,,,AMP,right,0.9004476590198465,,,right,0,0.9004476590198465,0,,,,,,,,,,,,,,,,,,,,,,1051,2019_Mar_13_1144,mf_amp_cond1,3.0.4,60.00396433983,
gournful,touls,&&&&&,None,nonword,,,,,,,0,170,170,170,,,,,,,,,,,,,,,,,,,,,AMP,left,1.0338524912658613,,,left,0,1.0338524912658613,0,,,,,,,,,,,,,,,,,,,,,,1051,2019_Mar_13_1144,mf_amp_cond1,3.0.4,60.00396433983,
friends,asn,&&&,left,loyalty.virtue,,,,,,,0,171,171,171,,,,,,,,,,,,,,,,,,,,,AMP,right,0.30028851848328486,,,right,0,0.30028851848328486,0,,,,,,,,,,,,,,,,,,,,,,1051,2019_Mar_13_1144,mf_amp_cond1,3.0.4,60.00396433983,
scandal,nomparisons,&&&&&&&&&&&,right,sanctity.vice,,,,,,,0,172,172,172,,,,,,,,,,,,,,,,,,,,,AMP,left,0.2502817513013724,,,left,0,0.2502817513013724,0,,,,,,,,,,,,,,,,,,,,,,1051,2019_Mar_13_1144,mf_amp_cond1,3.0.4,60.00396433983,
black,antral,&&&&&&,right,loyalty.vice,,,,,,,0,173,173,173,,,,,,,,,,,,,,,,,,,,,AMP,right,0.31695626489818096,,,right,1,0.31695626489818096,1,,,,,,,,,,,,,,,,,,,,,,1051,2019_Mar_13_1144,mf_amp_cond1,3.0.4,60.00396433983,
critics,taxpayung,&&&&&&&&&,right,loyalty.vice,,,,,,,0,174,174,174,,,,,,,,,,,,,,,,,,,,,AMP,left,0.7837471351958811,,,left,0,0.7837471351958811,0,,,,,,,,,,,,,,,,,,,,,,1051,2019_Mar_13_1144,mf_amp_cond1,3.0.4,60.00396433983,
clean,stindig,&&&&&&&,left,sanctity.virtue,,,,,,,0,175,175,175,,,,,,,,,,,,,,,,,,,,,AMP,right,0.3503270367800724,,,right,0,0.3503270367800724,0,,,,,,,,,,,,,,,,,,,,,,1051,2019_Mar_13_1144,mf_amp_cond1,3.0.4,60.00396433983,
unpleasant,ebbitter,&&&&&&&&,None,control,,,,,,,0,176,176,176,,,,,,,,,,,,,,,,,,,,,AMP,left,0.4836664423928596,,,left,0,0.4836664423928596,0,,,,,,,,,,,,,,,,,,,,,,1051,2019_Mar_13_1144,mf_amp_cond1,3.0.4,60.00396433983,
emassion,sfumatoy,&&&&&&&&,None,nonword,,,,,,,0,177,177,177,,,,,,,,,,,,,,,,,,,,,AMP,left,0.43366384456749074,,,left,0,0.43366384456749074,0,,,,,,,,,,,,,,,,,,,,,,1051,2019_Mar_13_1144,mf_amp_cond1,3.0.4,60.00396433983,
progress,Boeinf,&&&&&&,left,authority.virtue,,,,,,,0,178,178,178,,,,,,,,,,,,,,,,,,,,,AMP,left,0.3002958949946333,,,left,1,0.3002958949946333,1,,,,,,,,,,,,,,,,,,,,,,1051,2019_Mar_13_1144,mf_amp_cond1,3.0.4,60.00396433983,
promised,gationwide,&&&&&&&&&&,left,loyalty.virtue,,,,,,,0,179,179,179,,,,,,,,,,,,,,,,,,,,,AMP,right,0.1836155763885472,,,right,0,0.1836155763885472,0,,,,,,,,,,,,,,,,,,,,,,1051,2019_Mar_13_1144,mf_amp_cond1,3.0.4,60.00396433983,
died,totalestic,&&&&&&&&&&,right,care.vice,,,,,,,0,180,180,180,,,,,,,,,,,,,,,,,,,,,AMP,left,0.15024512523086742,,,left,0,0.15024512523086742,0,,,,,,,,,,,,,,,,,,,,,,1051,2019_Mar_13_1144,mf_amp_cond1,3.0.4,60.00396433983,
hate,wonderfujnoss,&&&&&&&&&&&&&,right,fairness.vice,,,,,,,0,181,181,181,,,,,,,,,,,,,,,,,,,,,AMP,left,0.15025699185207486,,,left,0,0.15025699185207486,0,,,,,,,,,,,,,,,,,,,,,,1051,2019_Mar_13_1144,mf_amp_cond1,3.0.4,60.00396433983,
benefit,chonograph,&&&&&&&&&&,left,fairness.virtue,,,,,,,0,182,182,182,,,,,,,,,,,,,,,,,,,,,AMP,left,0.9671244176570326,,,left,1,0.9671244176570326,1,,,,,,,,,,,,,,,,,,,,,,1051,2019_Mar_13_1144,mf_amp_cond1,3.0.4,60.00396433983,
dignity,sidearbs,&&&&&&&&,left,sanctity.virtue,,,,,,,0,183,183,183,,,,,,,,,,,,,,,,,,,,,AMP,right,0.6837239792803302,,,right,0,0.6837239792803302,0,,,,,,,,,,,,,,,,,,,,,,1051,2019_Mar_13_1144,mf_amp_cond1,3.0.4,60.00396433983,
violence,perified,&&&&&&&&,right,care.vice,,,,,,,0,184,184,184,,,,,,,,,,,,,,,,,,,,,AMP,left,0.23360630765091628,,,left,0,0.23360630765091628,0,,,,,,,,,,,,,,,,,,,,,,1051,2019_Mar_13_1144,mf_amp_cond1,3.0.4,60.00396433983,
ability,smapper,&&&&&&&,left,authority.virtue,,,,,,,0,185,185,185,,,,,,,,,,,,,,,,,,,,,AMP,left,0.8004232202656567,,,left,1,0.8004232202656567,1,,,,,,,,,,,,,,,,,,,,,,1051,2019_Mar_13_1144,mf_amp_cond1,3.0.4,60.00396433983,
suicide,lursuer,&&&&&&&,right,care.vice,,,,,,,0,186,186,186,,,,,,,,,,,,,,,,,,,,,AMP,left,0.38364328650641255,,,left,0,0.38364328650641255,0,,,,,,,,,,,,,,,,,,,,,,1051,2019_Mar_13_1144,mf_amp_cond1,3.0.4,60.00396433983,
party,baladroit,&&&&&&&&&,left,loyalty.virtue,,,,,,,0,187,187,187,,,,,,,,,,,,,,,,,,,,,AMP,left,0.7335963653458748,,,left,1,0.7335963653458748,1,,,,,,,,,,,,,,,,,,,,,,1051,2019_Mar_13_1144,mf_amp_cond1,3.0.4,60.00396433983,
penalty,carvels,&&&&&&&,right,authority.vice,,,,,,,0,188,188,188,,,,,,,,,,,,,,,,,,,,,AMP,left,0.5170009730500169,,,left,0,0.5170009730500169,0,,,,,,,,,,,,,,,,,,,,,,1051,2019_Mar_13_1144,mf_amp_cond1,3.0.4,60.00396433983,
respect,bluently,&&&&&&&&,left,sanctity.virtue,,,,,,,0,189,189,189,,,,,,,,,,,,,,,,,,,,,AMP,right,0.36698804807383567,,,right,0,0.36698804807383567,0,,,,,,,,,,,,,,,,,,,,,,1051,2019_Mar_13_1144,mf_amp_cond1,3.0.4,60.00396433983,
promote,synchronazers,&&&&&&&&&&&&&,left,sanctity.virtue,,,,,,,0,190,190,190,,,,,,,,,,,,,,,,,,,,,AMP,right,0.4169877594395075,,,right,0,0.4169877594395075,0,,,,,,,,,,,,,,,,,,,,,,1051,2019_Mar_13_1144,mf_amp_cond1,3.0.4,60.00396433983,
serial,reviked,&&&&&&&,right,sanctity.vice,,,,,,,0,191,191,191,,,,,,,,,,,,,,,,,,,,,AMP,left,0.5170176504179835,,,left,0,0.5170176504179835,0,,,,,,,,,,,,,,,,,,,,,,1051,2019_Mar_13_1144,mf_amp_cond1,3.0.4,60.00396433983,
forced,chreams,&&&&&&&,right,fairness.vice,,,,,,,0,192,192,192,,,,,,,,,,,,,,,,,,,,,AMP,left,0.7670716915163212,,,left,0,0.7670716915163212,0,,,,,,,,,,,,,,,,,,,,,,1051,2019_Mar_13_1144,mf_amp_cond1,3.0.4,60.00396433983,
commitment,shoirmaster,&&&&&&&&&&&,left,sanctity.virtue,,,,,,,0,193,193,193,,,,,,,,,,,,,,,,,,,,,AMP,right,0.5171263740339782,,,right,0,0.5171263740339782,0,,,,,,,,,,,,,,,,,,,,,,1051,2019_Mar_13_1144,mf_amp_cond1,3.0.4,60.00396433983,
compassion,blunderints,&&&&&&&&&&&,left,care.virtue,,,,,,,0,194,194,194,,,,,,,,,,,,,,,,,,,,,AMP,right,0.8671086383110378,,,right,0,0.8671086383110378,0,,,,,,,,,,,,,,,,,,,,,,1051,2019_Mar_13_1144,mf_amp_cond1,3.0.4,60.00396433983,
violations,unscothed,&&&&&&&&&,right,sanctity.vice,,,,,,,0,195,195,195,,,,,,,,,,,,,,,,,,,,,AMP,left,0.4837177573645022,,,left,0,0.4837177573645022,0,,,,,,,,,,,,,,,,,,,,,,1051,2019_Mar_13_1144,mf_amp_cond1,3.0.4,60.00396433983,
war,photocalkodes,&&&&&&&&&&&&&,right,sanctity.vice,,,,,,,0,196,196,196,,,,,,,,,,,,,,,,,,,,,AMP,left,0.7337301050429232,,,left,0,0.7337301050429232,0,,,,,,,,,,,,,,,,,,,,,,1051,2019_Mar_13_1144,mf_amp_cond1,3.0.4,60.00396433983,
gun,glacenta,&&&&&&&&,right,authority.vice,,,,,,,0,197,197,197,,,,,,,,,,,,,,,,,,,,,AMP,left,0.35030907654436305,,,left,0,0.35030907654436305,0,,,,,,,,,,,,,,,,,,,,,,1051,2019_Mar_13_1144,mf_amp_cond1,3.0.4,60.00396433983,
interests,viscs,&&&&&,left,fairness.virtue,,,,,,,0,198,198,198,,,,,,,,,,,,,,,,,,,,,AMP,left,0.4169948152557481,,,left,1,0.4169948152557481,1,,,,,,,,,,,,,,,,,,,,,,1051,2019_Mar_13_1144,mf_amp_cond1,3.0.4,60.00396433983,
nonobservalt,atson,&&&&&,None,nonword,,,,,,,0,199,199,199,,,,,,,,,,,,,,,,,,,,,AMP,left,0.3503296025155578,,,left,0,0.3503296025155578,0,,,,,,,,,,,,,,,,,,,,,,1051,2019_Mar_13_1144,mf_amp_cond1,3.0.4,60.00396433983,
actively,bycled,&&&&&&,left,authority.virtue,,,,,,,0,200,200,200,,,,,,,,,,,,,,,,,,,,,AMP,right,0.9170705048600212,,,right,0,0.9170705048600212,0,,,,,,,,,,,,,,,,,,,,,,1051,2019_Mar_13_1144,mf_amp_cond1,3.0.4,60.00396433983,
Loorish,prones,&&&&&&,None,nonword,,,,,,,0,201,201,201,,,,,,,,,,,,,,,,,,,,,AMP,left,0.15012581791961566,,,left,0,0.15012581791961566,0,,,,,,,,,,,,,,,,,,,,,,1051,2019_Mar_13_1144,mf_amp_cond1,3.0.4,60.00396433983,
strong,dramens,&&&&&&&,left,loyalty.virtue,,,,,,,0,202,202,202,,,,,,,,,,,,,,,,,,,,,AMP,right,0.7170671693747863,,,right,0,0.7170671693747863,0,,,,,,,,,,,,,,,,,,,,,,1051,2019_Mar_13_1144,mf_amp_cond1,3.0.4,60.00396433983,
groups,coom,&&&&,right,loyalty.vice,,,,,,,0,203,203,203,,,,,,,,,,,,,,,,,,,,,AMP,left,0.7337541589222383,,,left,0,0.7337541589222383,0,,,,,,,,,,,,,,,,,,,,,,1051,2019_Mar_13_1144,mf_amp_cond1,3.0.4,60.00396433983,
gillipede,hefurbished,&&&&&&&&&&&,None,nonword,,,,,,,0,204,204,204,,,,,,,,,,,,,,,,,,,,,AMP,left,2.31745466159191,,,left,0,2.31745466159191,0,,,,,,,,,,,,,,,,,,,,,,1051,2019_Mar_13_1144,mf_amp_cond1,3.0.4,60.00396433983,
conspiracy,tislay,&&&&&&,right,sanctity.vice,,,,,,,0,205,205,205,,,,,,,,,,,,,,,,,,,,,AMP,left,0.46699131943751127,,,left,0,0.46699131943751127,0,,,,,,,,,,,,,,,,,,,,,,1051,2019_Mar_13_1144,mf_amp_cond1,3.0.4,60.00396433983,
victim,pulge,&&&&&,right,care.vice,,,,,,,0,206,206,206,,,,,,,,,,,,,,,,,,,,,AMP,left,0.4169630641117692,,,left,0,0.4169630641117692,0,,,,,,,,,,,,,,,,,,,,,,1051,2019_Mar_13_1144,mf_amp_cond1,3.0.4,60.00396433983,
great,Cunday,&&&&&&,left,loyalty.virtue,,,,,,,0,207,207,207,,,,,,,,,,,,,,,,,,,,,AMP,right,0.3836452108225785,,,right,0,0.3836452108225785,0,,,,,,,,,,,,,,,,,,,,,,1051,2019_Mar_13_1144,mf_amp_cond1,3.0.4,60.00396433983,
celebrated,lorthwhile,&&&&&&&&&&,left,authority.virtue,,,,,,,0,208,208,208,,,,,,,,,,,,,,,,,,,,,AMP,left,0.33365544173284434,,,left,1,0.33365544173284434,1,,,,,,,,,,,,,,,,,,,,,,1051,2019_Mar_13_1144,mf_amp_cond1,3.0.4,60.00396433983,
safety,neutralust,&&&&&&&&&&,left,care.virtue,,,,,,,0,209,209,209,,,,,,,,,,,,,,,,,,,,,AMP,right,0.6503859206859488,,,right,0,0.6503859206859488,0,,,,,,,,,,,,,,,,,,,,,,1051,2019_Mar_13_1144,mf_amp_cond1,3.0.4,60.00396433983,
promises,spag,&&&&,left,fairness.virtue,,,,,,,0,210,210,210,,,,,,,,,,,,,,,,,,,,,AMP,left,0.35031901879119687,,,left,1,0.35031901879119687,1,,,,,,,,,,,,,,,,,,,,,,1051,2019_Mar_13_1144,mf_amp_cond1,3.0.4,60.00396433983,
free,Lacedonia,&&&&&&&&&,left,fairness.virtue,,,,,,,0,211,211,211,,,,,,,,,,,,,,,,,,,,,AMP,right,0.33365672460058704,,,right,0,0.33365672460058704,0,,,,,,,,,,,,,,,,,,,,,,1051,2019_Mar_13_1144,mf_amp_cond1,3.0.4,60.00396433983,
illegal,faspberry,&&&&&&&&&,right,fairness.vice,,,,,,,0,212,212,212,,,,,,,,,,,,,,,,,,,,,AMP,left,0.233617212070385,,,left,0,0.233617212070385,0,,,,,,,,,,,,,,,,,,,,,,1051,2019_Mar_13_1144,mf_amp_cond1,3.0.4,60.00396433983,
fair,ecgagement,&&&&&&&&&&,left,fairness.virtue,,,,,,,0,213,213,213,,,,,,,,,,,,,,,,,,,,,AMP,right,0.40031584369717166,,,right,0,0.40031584369717166,0,,,,,,,,,,,,,,,,,,,,,,1051,2019_Mar_13_1144,mf_amp_cond1,3.0.4,60.00396433983,
values,brotesque,&&&&&&&&&,left,sanctity.virtue,,,,,,,0,214,214,214,,,,,,,,,,,,,,,,,,,,,AMP,right,0.3169671693176497,,,right,0,0.3169671693176497,0,,,,,,,,,,,,,,,,,,,,,,1051,2019_Mar_13_1144,mf_amp_cond1,3.0.4,60.00396433983,
terrorist,shoirmaster,&&&&&&&&&&&,right,loyalty.vice,,,,,,,0,215,215,215,,,,,,,,,,,,,,,,,,,,,AMP,left,0.30029364995425567,,,left,0,0.30029364995425567,0,,,,,,,,,,,,,,,,,,,,,,1051,2019_Mar_13_1144,mf_amp_cond1,3.0.4,60.00396433983,
arrests,tabin,&&&&&,right,authority.vice,,,,,,,0,216,216,216,,,,,,,,,,,,,,,,,,,,,AMP,left,0.5003236050833948,,,left,0,0.5003236050833948,0,,,,,,,,,,,,,,,,,,,,,,1051,2019_Mar_13_1144,mf_amp_cond1,3.0.4,60.00396433983,
hand,nomaric,&&&&&&&,left,sanctity.virtue,,,,,,,0,217,217,217,,,,,,,,,,,,,,,,,,,,,AMP,left,1.4170942380151246,,,left,1,1.4170942380151246,1,,,,,,,,,,,,,,,,,,,,,,1051,2019_Mar_13_1144,mf_amp_cond1,3.0.4,60.00396433983,
blamed,troubla,&&&&&&&,right,loyalty.vice,,,,,,,0,218,218,218,,,,,,,,,,,,,,,,,,,,,AMP,left,0.5836966540664434,,,left,0,0.5836966540664434,0,,,,,,,,,,,,,,,,,,,,,,1051,2019_Mar_13_1144,mf_amp_cond1,3.0.4,60.00396433983,
pleasant,saned,&&&&&,None,control,,,,,,,0,219,219,219,,,,,,,,,,,,,,,,,,,,,AMP,left,0.16693211474921554,,,left,0,0.16693211474921554,0,,,,,,,,,,,,,,,,,,,,,,1051,2019_Mar_13_1144,mf_amp_cond1,3.0.4,60.00396433983,
safe,hescribe,&&&&&&&&,left,care.virtue,,,,,,,0,220,220,220,,,,,,,,,,,,,,,,,,,,,AMP,left,0.43366865534335375,,,left,1,0.43366865534335375,1,,,,,,,,,,,,,,,,,,,,,,1051,2019_Mar_13_1144,mf_amp_cond1,3.0.4,60.00396433983,
embrace,lenon,&&&&&,left,authority.virtue,,,,,,,0,221,221,221,,,,,,,,,,,,,,,,,,,,,AMP,right,0.30029332923004404,,,right,0,0.30029332923004404,0,,,,,,,,,,,,,,,,,,,,,,1051,2019_Mar_13_1144,mf_amp_cond1,3.0.4,60.00396433983,
refused,iptervention,&&&&&&&&&&&&,right,authority.vice,,,,,,,0,222,222,222,,,,,,,,,,,,,,,,,,,,,AMP,left,0.43365614730282687,,,left,0,0.43365614730282687,0,,,,,,,,,,,,,,,,,,,,,,1051,2019_Mar_13_1144,mf_amp_cond1,3.0.4,60.00396433983,
corruption,openet,&&&&&&,right,sanctity.vice,,,,,,,0,223,223,223,,,,,,,,,,,,,,,,,,,,,AMP,right,0.03355454365373589,,,right,1,0.03355454365373589,1,,,,,,,,,,,,,,,,,,,,,,1051,2019_Mar_13_1144,mf_amp_cond1,3.0.4,60.00396433983,
brudent,lachelor,&&&&&&&&,None,nonword,,,,,,,0,224,224,224,,,,,,,,,,,,,,,,,,,,,AMP,left,0.0668922815239057,,,left,0,0.0668922815239057,0,,,,,,,,,,,,,,,,,,,,,,1051,2019_Mar_13_1144,mf_amp_cond1,3.0.4,60.00396433983,
peace,frojecting,&&&&&&&&&&,left,care.virtue,,,,,,,0,225,225,225,,,,,,,,,,,,,,,,,,,,,AMP,left,0.633718815719476,,,left,1,0.633718815719476,1,,,,,,,,,,,,,,,,,,,,,,1051,2019_Mar_13_1144,mf_amp_cond1,3.0.4,60.00396433983,
officers,festate,&&&&&&&,right,authority.vice,,,,,,,0,226,226,226,,,,,,,,,,,,,,,,,,,,,AMP,left,0.03356897598132491,,,left,0,0.03356897598132491,0,,,,,,,,,,,,,,,,,,,,,,1051,2019_Mar_13_1144,mf_amp_cond1,3.0.4,60.00396433983,
peaceful,Oregoniuns,&&&&&&&&&&,left,authority.virtue,,,,,,,0,227,227,227,,,,,,,,,,,,,,,,,,,,,AMP,left,0.16694333992199972,,,left,1,0.16694333992199972,1,,,,,,,,,,,,,,,,,,,,,,1051,2019_Mar_13_1144,mf_amp_cond1,3.0.4,60.00396433983,
shot,pistraught,&&&&&&&&&&,right,care.vice,,,,,,,0,228,228,228,,,,,,,,,,,,,,,,,,,,,AMP,left,0.1502483324147761,,,left,0,0.1502483324147761,0,,,,,,,,,,,,,,,,,,,,,,1051,2019_Mar_13_1144,mf_amp_cond1,3.0.4,60.00396433983,
riot,chared,&&&&&&,right,authority.vice,,,,,,,0,229,229,229,,,,,,,,,,,,,,,,,,,,,AMP,left,0.5170150846824981,,,left,0,0.5170150846824981,0,,,,,,,,,,,,,,,,,,,,,,1051,2019_Mar_13_1144,mf_amp_cond1,3.0.4,60.00396433983,
gowlands,disregord,&&&&&&&&&,None,nonword,,,,,,,0,230,230,230,,,,,,,,,,,,,,,,,,,,,AMP,left,0.10024445172166452,,,left,0,0.10024445172166452,0,,,,,,,,,,,,,,,,,,,,,,1051,2019_Mar_13_1144,mf_amp_cond1,3.0.4,60.00396433983,
threatened,allears,&&&&&&&,right,fairness.vice,,,,,,,0,231,231,231,,,,,,,,,,,,,,,,,,,,,AMP,left,0.3002981400350109,,,left,0,0.3002981400350109,0,,,,,,,,,,,,,,,,,,,,,,1051,2019_Mar_13_1144,mf_amp_cond1,3.0.4,60.00396433983,
attacks,papert,&&&&&&,right,care.vice,,,,,,,0,232,232,232,,,,,,,,,,,,,,,,,,,,,AMP,left,0.08357317739864811,,,left,0,0.08357317739864811,0,,,,,,,,,,,,,,,,,,,,,,1051,2019_Mar_13_1144,mf_amp_cond1,3.0.4,60.00396433983,
accused,quarterbocks,&&&&&&&&&&&&,right,fairness.vice,,,,,,,0,233,233,233,,,,,,,,,,,,,,,,,,,,,AMP,left,0.4170002674800344,,,left,0,0.4170002674800344,0,,,,,,,,,,,,,,,,,,,,,,1051,2019_Mar_13_1144,mf_amp_cond1,3.0.4,60.00396433983,
rejected,drumbled,&&&&&&&&,right,authority.vice,,,,,,,0,234,234,234,,,,,,,,,,,,,,,,,,,,,AMP,left,0.250281109882053,,,left,0,0.250281109882053,0,,,,,,,,,,,,,,,,,,,,,,1051,2019_Mar_13_1144,mf_amp_cond1,3.0.4,60.00396433983,
troops,mih,&&&,right,loyalty.vice,,,,,,,0,235,235,235,,,,,,,,,,,,,,,,,,,,,AMP,left,0.5837393096589949,,,left,0,0.5837393096589949,0,,,,,,,,,,,,,,,,,,,,,,1051,2019_Mar_13_1144,mf_amp_cond1,3.0.4,60.00396433983,
growth,dormandi,&&&&&&&&,left,care.virtue,,,,,,,0,236,236,236,,,,,,,,,,,,,,,,,,,,,AMP,right,0.20026760760811158,,,right,0,0.20026760760811158,0,,,,,,,,,,,,,,,,,,,,,,1051,2019_Mar_13_1144,mf_amp_cond1,3.0.4,60.00396433983,
fraud,hatigue,&&&&&&&,right,fairness.vice,,,,,,,0,237,237,237,,,,,,,,,,,,,,,,,,,,,AMP,left,0.333637481497135,,,left,0,0.333637481497135,0,,,,,,,,,,,,,,,,,,,,,,1051,2019_Mar_13_1144,mf_amp_cond1,3.0.4,60.00396433983,
support,sliptery,&&&&&&&&,left,loyalty.virtue,,,,,,,0,238,238,238,,,,,,,,,,,,,,,,,,,,,AMP,right,0.5170157261018176,,,right,0,0.5170157261018176,0,,,,,,,,,,,,,,,,,,,,,,1051,2019_Mar_13_1144,mf_amp_cond1,3.0.4,60.00396433983,
betrayal,crinking,&&&&&&&&,right,loyalty.vice,,,,,,,0,239,239,239,,,,,,,,,,,,,,,,,,,,,AMP,left,0.21693535402300768,,,left,0,0.21693535402300768,0,,,,,,,,,,,,,,,,,,,,,,1051,2019_Mar_13_1144,mf_amp_cond1,3.0.4,60.00396433983,
protect,esquisiteness,&&&&&&&&&&&&&,left,fairness.virtue,,,,,,,0,240,240,240,,,,,,,,,,,,,,,,,,,,,AMP,right,0.15027174487477168,,,right,0,0.15027174487477168,0,,,,,,,,,,,,,,,,,,,,,,1051,2019_Mar_13_1144,mf_amp_cond1,3.0.4,60.00396433983,
help,tomedians,&&&&&&&&&,left,care.virtue,,,,,,,0,241,241,241,,,,,,,,,,,,,,,,,,,,,AMP,left,0.9004406032327097,,,left,1,0.9004406032327097,1,,,,,,,,,,,,,,,,,,,,,,1051,2019_Mar_13_1144,mf_amp_cond1,3.0.4,60.00396433983,
death,halaise,&&&&&&&,right,care.vice,,,,,,,0,242,242,242,,,,,,,,,,,,,,,,,,,,,AMP,left,2.784241362591274,,,left,0,2.784241362591274,0,,,,,,,,,,,,,,,,,,,,,,1051,2019_Mar_13_1144,mf_amp_cond1,3.0.4,60.00396433983,
powerful,squets,&&&&&&,left,authority.virtue,,,,,,,0,243,243,243,,,,,,,,,,,,,,,,,,,,,AMP,right,0.250281109882053,,,right,0,0.250281109882053,0,,,,,,,,,,,,,,,,,,,,,,1051,2019_Mar_13_1144,mf_amp_cond1,3.0.4,60.00396433983,
love,presentkess,&&&&&&&&&&&,left,loyalty.virtue,,,,,,,0,244,244,244,,,,,,,,,,,,,,,,,,,,,AMP,left,0.05025019258027896,,,left,1,0.05025019258027896,1,,,,,,,,,,,,,,,,,,,,,,1051,2019_Mar_13_1144,mf_amp_cond1,3.0.4,60.00396433983,
terrorists,cromiscuity,&&&&&&&&&&&,right,fairness.vice,,,,,,,0,245,245,245,,,,,,,,,,,,,,,,,,,,,AMP,left,0.4668790679133963,,,left,0,0.4668790679133963,0,,,,,,,,,,,,,,,,,,,,,,1051,2019_Mar_13_1144,mf_amp_cond1,3.0.4,60.00396433983,
free,chared,&&&&&&,left,fairness.virtue,,,,,,,0,246,246,246,,,,,,,,,,,,,,,,,,,,,AMP,left,0.717066527926363,,,left,1,0.717066527926363,1,,,,,,,,,,,,,,,,,,,,,,1051,2019_Mar_13_1144,mf_amp_cond1,3.0.4,60.00396433983,
suicide,cromiscuity,&&&&&&&&&&&,right,care.vice,,,,,,,0,247,247,247,,,,,,,,,,,,,,,,,,,,,AMP,left,0.81706659210613,,,left,0,0.81706659210613,0,,,,,,,,,,,,,,,,,,,,,,1051,2019_Mar_13_1144,mf_amp_cond1,3.0.4,60.00396433983,
terrorists,dramens,&&&&&&&,right,fairness.vice,,,,,,,0,248,248,248,,,,,,,,,,,,,,,,,,,,,AMP,left,0.5336818689538632,,,left,0,0.5336818689538632,0,,,,,,,,,,,,,,,,,,,,,,1051,2019_Mar_13_1144,mf_amp_cond1,3.0.4,60.00396433983,
friends,drumbled,&&&&&&&&,left,loyalty.virtue,,,,,,,0,249,249,249,,,,,,,,,,,,,,,,,,,,,AMP,left,1.167200235533528,,,left,1,1.167200235533528,1,,,,,,,,,,,,,,,,,,,,,,1051,2019_Mar_13_1144,mf_amp_cond1,3.0.4,60.00396433983,
party,prones,&&&&&&,left,loyalty.virtue,,,,,,,0,250,250,250,,,,,,,,,,,,,,,,,,,,,AMP,right,0.5003473382384982,,,right,0,0.5003473382384982,0,,,,,,,,,,,,,,,,,,,,,,1051,2019_Mar_13_1144,mf_amp_cond1,3.0.4,60.00396433983,
support,bluently,&&&&&&&&,left,loyalty.virtue,,,,,,,0,251,251,251,,,,,,,,,,,,,,,,,,,,,AMP,right,0.3169690936047118,,,right,0,0.3169690936047118,0,,,,,,,,,,,,,,,,,,,,,,1051,2019_Mar_13_1144,mf_amp_cond1,3.0.4,60.00396433983,
terrorist,blunderints,&&&&&&&&&&&,right,loyalty.vice,,,,,,,0,252,252,252,,,,,,,,,,,,,,,,,,,,,AMP,left,0.2002348943206016,,,left,0,0.2002348943206016,0,,,,,,,,,,,,,,,,,,,,,,1051,2019_Mar_13_1144,mf_amp_cond1,3.0.4,60.00396433983,
war,sliptery,&&&&&&&&,right,sanctity.vice,,,,,,,0,253,253,253,,,,,,,,,,,,,,,,,,,,,AMP,left,0.6337332480761688,,,left,0,0.6337332480761688,0,,,,,,,,,,,,,,,,,,,,,,1051,2019_Mar_13_1144,mf_amp_cond1,3.0.4,60.00396433983,
rejected,dormandi,&&&&&&&&,right,authority.vice,,,,,,,0,254,254,254,,,,,,,,,,,,,,,,,,,,,AMP,left,0.8004212959785946,,,left,0,0.8004212959785946,0,,,,,,,,,,,,,,,,,,,,,,1051,2019_Mar_13_1144,mf_amp_cond1,3.0.4,60.00396433983,
hand,chreams,&&&&&&&,left,sanctity.virtue,,,,,,,0,255,255,255,,,,,,,,,,,,,,,,,,,,,AMP,right,0.9337853968900163,,,right,0,0.9337853968900163,0,,,,,,,,,,,,,,,,,,,,,,1051,2019_Mar_13_1144,mf_amp_cond1,3.0.4,60.00396433983,
shot,Boeinf,&&&&&&,right,care.vice,,,,,,,0,256,256,256,,,,,,,,,,,,,,,,,,,,,AMP,left,0.7003923671436496,,,left,0,0.7003923671436496,0,,,,,,,,,,,,,,,,,,,,,,1051,2019_Mar_13_1144,mf_amp_cond1,3.0.4,60.00396433983,
violations,sfumatoy,&&&&&&&&,right,sanctity.vice,,,,,,,0,257,257,257,,,,,,,,,,,,,,,,,,,,,AMP,left,1.0004797950387,,,left,0,1.0004797950387,0,,,,,,,,,,,,,,,,,,,,,,1051,2019_Mar_13_1144,mf_amp_cond1,3.0.4,60.00396433983,
death,faspberry,&&&&&&&&&,right,care.vice,,,,,,,0,258,258,258,,,,,,,,,,,,,,,,,,,,,AMP,left,0.25027854411746375,,,left,0,0.25027854411746375,0,,,,,,,,,,,,,,,,,,,,,,1051,2019_Mar_13_1144,mf_amp_cond1,3.0.4,60.00396433983,
gun,mih,&&&,right,authority.vice,,,,,,,0,259,259,259,,,,,,,,,,,,,,,,,,,,,AMP,left,0.33362112485338,,,left,0,0.33362112485338,0,,,,,,,,,,,,,,,,,,,,,,1051,2019_Mar_13_1144,mf_amp_cond1,3.0.4,60.00396433983,
powerful,pistraught,&&&&&&&&&&,left,authority.virtue,,,,,,,0,260,260,260,,,,,,,,,,,,,,,,,,,,,AMP,right,0.5670314734161366,,,right,0,0.5670314734161366,0,,,,,,,,,,,,,,,,,,,,,,1051,2019_Mar_13_1144,mf_amp_cond1,3.0.4,60.00396433983,
embrace,reviked,&&&&&&&,left,authority.virtue,,,,,,,0,261,261,261,,,,,,,,,,,,,,,,,,,,,AMP,right,0.9337780203786679,,,right,0,0.9337780203786679,0,,,,,,,,,,,,,,,,,,,,,,1051,2019_Mar_13_1144,mf_amp_cond1,3.0.4,60.00396433983,
health,pulge,&&&&&,left,care.virtue,,,,,,,0,262,262,262,,,,,,,,,,,,,,,,,,,,,AMP,right,0.35031196297495626,,,right,0,0.35031196297495626,0,,,,,,,,,,,,,,,,,,,,,,1051,2019_Mar_13_1144,mf_amp_cond1,3.0.4,60.00396433983,
attacks,squets,&&&&&&,right,care.vice,,,,,,,0,263,263,263,,,,,,,,,,,,,,,,,,,,,AMP,left,0.26688503328477964,,,left,0,0.26688503328477964,0,,,,,,,,,,,,,,,,,,,,,,1051,2019_Mar_13_1144,mf_amp_cond1,3.0.4,60.00396433983,
corruption,baladroit,&&&&&&&&&,right,sanctity.vice,,,,,,,0,264,264,264,,,,,,,,,,,,,,,,,,,,,AMP,left,0.5336921319249086,,,left,0,0.5336921319249086,0,,,,,,,,,,,,,,,,,,,,,,1051,2019_Mar_13_1144,mf_amp_cond1,3.0.4,60.00396433983,
fear,hescribe,&&&&&&&&,right,sanctity.vice,,,,,,,0,265,265,265,,,,,,,,,,,,,,,,,,,,,AMP,left,0.3836452108225785,,,left,0,0.3836452108225785,0,,,,,,,,,,,,,,,,,,,,,,1051,2019_Mar_13_1144,mf_amp_cond1,3.0.4,60.00396433983,
fraud,Oregoniuns,&&&&&&&&&&,right,fairness.vice,,,,,,,0,266,266,266,,,,,,,,,,,,,,,,,,,,,AMP,left,0.3336361986293923,,,left,0,0.3336361986293923,0,,,,,,,,,,,,,,,,,,,,,,1051,2019_Mar_13_1144,mf_amp_cond1,3.0.4,60.00396433983,
interests,saned,&&&&&,left,fairness.virtue,,,,,,,0,267,267,267,,,,,,,,,,,,,,,,,,,,,AMP,right,1.717292955290759,,,right,0,1.717292955290759,0,,,,,,,,,,,,,,,,,,,,,,1051,2019_Mar_13_1144,mf_amp_cond1,3.0.4,60.00396433983,
scandal,ecgagement,&&&&&&&&&&,right,sanctity.vice,,,,,,,0,268,268,268,,,,,,,,,,,,,,,,,,,,,AMP,left,0.23365217039827257,,,left,0,0.23365217039827257,0,,,,,,,,,,,,,,,,,,,,,,1051,2019_Mar_13_1144,mf_amp_cond1,3.0.4,60.00396433983,
refused,halaise,&&&&&&&,right,authority.vice,,,,,,,0,269,269,269,,,,,,,,,,,,,,,,,,,,,AMP,left,0.4669964509084821,,,left,0,0.4669964509084821,0,,,,,,,,,,,,,,,,,,,,,,1051,2019_Mar_13_1144,mf_amp_cond1,3.0.4,60.00396433983,
promote,coom,&&&&,left,sanctity.virtue,,,,,,,0,270,270,270,,,,,,,,,,,,,,,,,,,,,AMP,right,1.2838590659666806,,,right,0,1.2838590659666806,0,,,,,,,,,,,,,,,,,,,,,,1051,2019_Mar_13_1144,mf_amp_cond1,3.0.4,60.00396433983,
arrests,quarterbocks,&&&&&&&&&&&&,right,authority.vice,,,,,,,0,271,271,271,,,,,,,,,,,,,,,,,,,,,AMP,left,0.11692214041249827,,,left,0,0.11692214041249827,0,,,,,,,,,,,,,,,,,,,,,,1051,2019_Mar_13_1144,mf_amp_cond1,3.0.4,60.00396433983,
laming,lorthwhile,&&&&&&&&&&,None,nonword,,,,,,,0,272,272,272,,,,,,,,,,,,,,,,,,,,,AMP,left,1.0171334298502188,,,left,0,1.0171334298502188,0,,,,,,,,,,,,,,,,,,,,,,1051,2019_Mar_13_1144,mf_amp_cond1,3.0.4,60.00396433983,
emassion,shoirmaster,&&&&&&&&&&&,None,nonword,,,,,,,0,273,273,273,,,,,,,,,,,,,,,,,,,,,AMP,left,0.16693051118636504,,,left,0,0.16693051118636504,0,,,,,,,,,,,,,,,,,,,,,,1051,2019_Mar_13_1144,mf_amp_cond1,3.0.4,60.00396433983,
promises,gationwide,&&&&&&&&&&,left,fairness.virtue,,,,,,,0,274,274,274,,,,,,,,,,,,,,,,,,,,,AMP,right,0.7837397586263251,,,right,0,0.7837397586263251,0,,,,,,,,,,,,,,,,,,,,,,1051,2019_Mar_13_1144,mf_amp_cond1,3.0.4,60.00396433983,
actively,hatigue,&&&&&&&,left,authority.virtue,,,,,,,0,275,275,275,,,,,,,,,,,,,,,,,,,,,AMP,right,0.5170179711421952,,,right,0,0.5170179711421952,0,,,,,,,,,,,,,,,,,,,,,,1051,2019_Mar_13_1144,mf_amp_cond1,3.0.4,60.00396433983,
betrayal,hefurbished,&&&&&&&&&&&,right,loyalty.vice,,,,,,,0,276,276,276,,,,,,,,,,,,,,,,,,,,,AMP,left,0.30031577954650857,,,left,0,0.30031577954650857,0,,,,,,,,,,,,,,,,,,,,,,1051,2019_Mar_13_1144,mf_amp_cond1,3.0.4,60.00396433983,
black,Cunday,&&&&&&,right,loyalty.vice,,,,,,,0,277,277,277,,,,,,,,,,,,,,,,,,,,,AMP,right,0.850449230580125,,,right,1,0.850449230580125,1,,,,,,,,,,,,,,,,,,,,,,1051,2019_Mar_13_1144,mf_amp_cond1,3.0.4,60.00396433983,
violence,bycled,&&&&&&,right,care.vice,,,,,,,0,278,278,278,,,,,,,,,,,,,,,,,,,,,AMP,left,0.3003135345352348,,,left,0,0.3003135345352348,0,,,,,,,,,,,,,,,,,,,,,,1051,2019_Mar_13_1144,mf_amp_cond1,3.0.4,60.00396433983,
critics,ebbitter,&&&&&&&&,right,loyalty.vice,,,,,,,0,279,279,279,,,,,,,,,,,,,,,,,,,,,AMP,right,0.45019945490639657,,,right,1,0.45019945490639657,1,,,,,,,,,,,,,,,,,,,,,,1051,2019_Mar_13_1144,mf_amp_cond1,3.0.4,60.00396433983,
safety,vurtain,&&&&&&&,left,care.virtue,,,,,,,0,280,280,280,,,,,,,,,,,,,,,,,,,,,AMP,right,1.4172334299073555,,,right,0,1.4172334299073555,0,,,,,,,,,,,,,,,,,,,,,,1051,2019_Mar_13_1144,mf_amp_cond1,3.0.4,60.00396433983,
respect,iptervention,&&&&&&&&&&&&,left,sanctity.virtue,,,,,,,0,281,281,281,,,,,,,,,,,,,,,,,,,,,AMP,right,0.11693913850467652,,,right,0,0.11693913850467652,0,,,,,,,,,,,,,,,,,,,,,,1051,2019_Mar_13_1144,mf_amp_cond1,3.0.4,60.00396433983,
groups,tislay,&&&&&&,right,loyalty.vice,,,,,,,0,282,282,282,,,,,,,,,,,,,,,,,,,,,AMP,right,1.5672800303436816,,,right,1,1.5672800303436816,1,,,,,,,,,,,,,,,,,,,,,,1051,2019_Mar_13_1144,mf_amp_cond1,3.0.4,60.00396433983,
troops,asn,&&&,right,loyalty.vice,,,,,,,0,283,283,283,,,,,,,,,,,,,,,,,,,,,AMP,right,1.7673167205648497,,,right,1,1.7673167205648497,1,,,,,,,,,,,,,,,,,,,,,,1051,2019_Mar_13_1144,mf_amp_cond1,3.0.4,60.00396433983,
safe,carvels,&&&&&&&,left,care.virtue,,,,,,,0,284,284,284,,,,,,,,,,,,,,,,,,,,,AMP,right,0.33363427431322634,,,right,0,0.33363427431322634,0,,,,,,,,,,,,,,,,,,,,,,1051,2019_Mar_13_1144,mf_amp_cond1,3.0.4,60.00396433983,
abointment,totalestic,&&&&&&&&&&,None,nonword,,,,,,,0,285,285,285,,,,,,,,,,,,,,,,,,,,,AMP,left,2.3007898016658146,,,left,0,2.3007898016658146,0,,,,,,,,,,,,,,,,,,,,,,1051,2019_Mar_13_1144,mf_amp_cond1,3.0.4,60.00396433983,
celebrated,framo,&&&&&,left,authority.virtue,,,,,,,0,286,286,286,,,,,,,,,,,,,,,,,,,,,AMP,right,0.2669482148485258,,,right,0,0.2669482148485258,0,,,,,,,,,,,,,,,,,,,,,,1051,2019_Mar_13_1144,mf_amp_cond1,3.0.4,60.00396433983,
peaceful,photocalkodes,&&&&&&&&&&&&&,left,authority.virtue,,,,,,,0,287,287,287,,,,,,,,,,,,,,,,,,,,,AMP,right,0.30029461212689057,,,right,0,0.30029461212689057,0,,,,,,,,,,,,,,,,,,,,,,1051,2019_Mar_13_1144,mf_amp_cond1,3.0.4,60.00396433983,
dignity,festate,&&&&&&&,left,sanctity.virtue,,,,,,,0,288,288,288,,,,,,,,,,,,,,,,,,,,,AMP,right,0.3170040519617032,,,right,0,0.3170040519617032,0,,,,,,,,,,,,,,,,,,,,,,1051,2019_Mar_13_1144,mf_amp_cond1,3.0.4,60.00396433983,
help,glacenta,&&&&&&&&,left,care.virtue,,,,,,,0,289,289,289,,,,,,,,,,,,,,,,,,,,,AMP,right,0.633681291656103,,,right,0,0.633681291656103,0,,,,,,,,,,,,,,,,,,,,,,1051,2019_Mar_13_1144,mf_amp_cond1,3.0.4,60.00396433983,
fair,smapper,&&&&&&&,left,fairness.virtue,,,,,,,0,290,290,290,,,,,,,,,,,,,,,,,,,,,AMP,right,0.5003293780318927,,,right,0,0.5003293780318927,0,,,,,,,,,,,,,,,,,,,,,,1051,2019_Mar_13_1144,mf_amp_cond1,3.0.4,60.00396433983,
values,synchronazers,&&&&&&&&&&&&&,left,sanctity.virtue,,,,,,,0,291,291,291,,,,,,,,,,,,,,,,,,,,,AMP,right,0.5003415653191041,,,right,0,0.5003415653191041,0,,,,,,,,,,,,,,,,,,,,,,1051,2019_Mar_13_1144,mf_amp_cond1,3.0.4,60.00396433983,
threatened,brotesque,&&&&&&&&&,right,fairness.vice,,,,,,,0,292,292,292,,,,,,,,,,,,,,,,,,,,,AMP,left,0.5170275926939212,,,left,0,0.5170275926939212,0,,,,,,,,,,,,,,,,,,,,,,1051,2019_Mar_13_1144,mf_amp_cond1,3.0.4,60.00396433983,
pleasant,nomaric,&&&&&&&,None,control,,,,,,,0,293,293,293,,,,,,,,,,,,,,,,,,,,,AMP,left,2.9509201096370816,,,left,0,2.9509201096370816,0,,,,,,,,,,,,,,,,,,,,,,1051,2019_Mar_13_1144,mf_amp_cond1,3.0.4,60.00396433983,
accused,openet,&&&&&&,right,fairness.vice,,,,,,,0,294,294,294,,,,,,,,,,,,,,,,,,,,,AMP,right,0.4003280310134869,,,right,1,0.4003280310134869,1,,,,,,,,,,,,,,,,,,,,,,1051,2019_Mar_13_1144,mf_amp_cond1,3.0.4,60.00396433983,
died,crinking,&&&&&&&&,right,care.vice,,,,,,,0,295,295,295,,,,,,,,,,,,,,,,,,,,,AMP,left,1.2838731775991619,,,left,0,1.2838731775991619,0,,,,,,,,,,,,,,,,,,,,,,1051,2019_Mar_13_1144,mf_amp_cond1,3.0.4,60.00396433983,
blamed,stindig,&&&&&&&,right,loyalty.vice,,,,,,,0,296,296,296,,,,,,,,,,,,,,,,,,,,,AMP,left,0.7003920464485418,,,left,0,0.7003920464485418,0,,,,,,,,,,,,,,,,,,,,,,1051,2019_Mar_13_1144,mf_amp_cond1,3.0.4,60.00396433983,
victim,taxpayung,&&&&&&&&&,right,care.vice,,,,,,,0,297,297,297,,,,,,,,,,,,,,,,,,,,,AMP,left,0.967112551064929,,,left,0,0.967112551064929,0,,,,,,,,,,,,,,,,,,,,,,1051,2019_Mar_13_1144,mf_amp_cond1,3.0.4,60.00396433983,
unpleasant,Lacedonia,&&&&&&&&&,None,control,,,,,,,0,298,298,298,,,,,,,,,,,,,,,,,,,,,AMP,left,0.500365619227523,,,left,0,0.500365619227523,0,,,,,,,,,,,,,,,,,,,,,,1051,2019_Mar_13_1144,mf_amp_cond1,3.0.4,60.00396433983,
forced,presentkess,&&&&&&&&&&&,right,fairness.vice,,,,,,,0,299,299,299,,,,,,,,,,,,,,,,,,,,,AMP,left,0.4003501606057398,,,left,0,0.4003501606057398,0,,,,,,,,,,,,,,,,,,,,,,1051,2019_Mar_13_1144,mf_amp_cond1,3.0.4,60.00396433983,
commitment,pumber,&&&&&&,left,sanctity.virtue,,,,,,,0,300,300,300,,,,,,,,,,,,,,,,,,,,,AMP,right,0.4169701199280098,,,right,0,0.4169701199280098,0,,,,,,,,,,,,,,,,,,,,,,1051,2019_Mar_13_1144,mf_amp_cond1,3.0.4,60.00396433983,
compassion,tomedians,&&&&&&&&&,left,care.virtue,,,,,,,0,301,301,301,,,,,,,,,,,,,,,,,,,,,AMP,right,0.40032257878920063,,,right,0,0.40032257878920063,0,,,,,,,,,,,,,,,,,,,,,,1051,2019_Mar_13_1144,mf_amp_cond1,3.0.4,60.00396433983,
strong,sidearbs,&&&&&&&&,left,loyalty.virtue,,,,,,,0,302,302,302,,,,,,,,,,,,,,,,,,,,,AMP,right,0.31691072284593247,,,right,0,0.31691072284593247,0,,,,,,,,,,,,,,,,,,,,,,1051,2019_Mar_13_1144,mf_amp_cond1,3.0.4,60.00396433983,
ability,Phintoism,&&&&&&&&&,left,authority.virtue,,,,,,,0,303,303,303,,,,,,,,,,,,,,,,,,,,,AMP,right,0.35029624777962454,,,right,0,0.35029624777962454,0,,,,,,,,,,,,,,,,,,,,,,1051,2019_Mar_13_1144,mf_amp_cond1,3.0.4,60.00396433983,
peace,lenon,&&&&&,left,care.virtue,,,,,,,0,304,304,304,,,,,,,,,,,,,,,,,,,,,AMP,right,0.31695786846103147,,,right,0,0.31695786846103147,0,,,,,,,,,,,,,,,,,,,,,,1051,2019_Mar_13_1144,mf_amp_cond1,3.0.4,60.00396433983,
protect,suggists,&&&&&&&&,left,fairness.virtue,,,,,,,0,305,305,305,,,,,,,,,,,,,,,,,,,,,AMP,right,0.38360480024130084,,,right,0,0.38360480024130084,0,,,,,,,,,,,,,,,,,,,,,,1051,2019_Mar_13_1144,mf_amp_cond1,3.0.4,60.00396433983,
riot,lursuer,&&&&&&&,right,authority.vice,,,,,,,0,306,306,306,,,,,,,,,,,,,,,,,,,,,AMP,left,0.4169749307038728,,,left,0,0.4169749307038728,0,,,,,,,,,,,,,,,,,,,,,,1051,2019_Mar_13_1144,mf_amp_cond1,3.0.4,60.00396433983,
brudent,ronviolence,&&&&&&&&&&&,None,nonword,,,,,,,0,307,307,307,,,,,,,,,,,,,,,,,,,,,AMP,left,1.1672169129014947,,,left,0,1.1672169129014947,0,,,,,,,,,,,,,,,,,,,,,,1051,2019_Mar_13_1144,mf_amp_cond1,3.0.4,60.00396433983,
love,chonograph,&&&&&&&&&&,left,loyalty.virtue,,,,,,,0,308,308,308,,,,,,,,,,,,,,,,,,,,,AMP,right,0.23360181757016107,,,right,0,0.23360181757016107,0,,,,,,,,,,,,,,,,,,,,,,1051,2019_Mar_13_1144,mf_amp_cond1,3.0.4,60.00396433983,
honstables,wonderfujnoss,&&&&&&&&&&&&&,None,nonword,,,,,,,0,309,309,309,,,,,,,,,,,,,,,,,,,,,AMP,left,0.5170125189179089,,,left,0,0.5170125189179089,0,,,,,,,,,,,,,,,,,,,,,,1051,2019_Mar_13_1144,mf_amp_cond1,3.0.4,60.00396433983,
hate,neutralust,&&&&&&&&&&,right,fairness.vice,,,,,,,0,310,310,310,,,,,,,,,,,,,,,,,,,,,AMP,left,0.6336944411159493,,,left,0,0.6336944411159493,0,,,,,,,,,,,,,,,,,,,,,,1051,2019_Mar_13_1144,mf_amp_cond1,3.0.4,60.00396433983,
Loorish,viscs,&&&&&,None,nonword,,,,,,,0,311,311,311,,,,,,,,,,,,,,,,,,,,,AMP,left,0.38365836028242484,,,left,0,0.38365836028242484,0,,,,,,,,,,,,,,,,,,,,,,1051,2019_Mar_13_1144,mf_amp_cond1,3.0.4,60.00396433983,
clean,disregord,&&&&&&&&&,left,sanctity.virtue,,,,,,,0,312,312,312,,,,,,,,,,,,,,,,,,,,,AMP,right,0.35029624777962454,,,right,0,0.35029624777962454,0,,,,,,,,,,,,,,,,,,,,,,1051,2019_Mar_13_1144,mf_amp_cond1,3.0.4,60.00396433983,
great,shoirmaster,&&&&&&&&&&&,left,loyalty.virtue,,,,,,,0,313,313,313,,,,,,,,,,,,,,,,,,,,,AMP,right,0.2169449755747337,,,right,0,0.2169449755747337,0,,,,,,,,,,,,,,,,,,,,,,1051,2019_Mar_13_1144,mf_amp_cond1,3.0.4,60.00396433983,
gillipede,nomparisons,&&&&&&&&&&&,None,nonword,,,,,,,0,314,314,314,,,,,,,,,,,,,,,,,,,,,AMP,left,0.417000588204246,,,left,0,0.417000588204246,0,,,,,,,,,,,,,,,,,,,,,,1051,2019_Mar_13_1144,mf_amp_cond1,3.0.4,60.00396433983,
growth,esquisiteness,&&&&&&&&&&&&&,left,care.virtue,,,,,,,0,315,315,315,,,,,,,,,,,,,,,,,,,,,AMP,right,0.3669790679705329,,,right,0,0.3669790679705329,0,,,,,,,,,,,,,,,,,,,,,,1051,2019_Mar_13_1144,mf_amp_cond1,3.0.4,60.00396433983,
illegal,spag,&&&&,right,fairness.vice,,,,,,,0,316,316,316,,,,,,,,,,,,,,,,,,,,,AMP,left,0.3836474558338523,,,left,0,0.3836474558338523,0,,,,,,,,,,,,,,,,,,,,,,1051,2019_Mar_13_1144,mf_amp_cond1,3.0.4,60.00396433983,
conspiracy,frojecting,&&&&&&&&&&,right,sanctity.vice,,,,,,,0,317,317,317,,,,,,,,,,,,,,,,,,,,,AMP,right,1.2673112683114596,,,right,1,1.2673112683114596,1,,,,,,,,,,,,,,,,,,,,,,1051,2019_Mar_13_1144,mf_amp_cond1,3.0.4,60.00396433983,
penalty,tabin,&&&&&,right,authority.vice,,,,,,,0,318,318,318,,,,,,,,,,,,,,,,,,,,,AMP,left,0.6003490060102195,,,left,0,0.6003490060102195,0,,,,,,,,,,,,,,,,,,,,,,1051,2019_Mar_13_1144,mf_amp_cond1,3.0.4,60.00396433983,
promised,antral,&&&&&&,left,loyalty.virtue,,,,,,,0,319,319,319,,,,,,,,,,,,,,,,,,,,,AMP,right,0.5837014648423065,,,right,0,0.5837014648423065,0,,,,,,,,,,,,,,,,,,,,,,1051,2019_Mar_13_1144,mf_amp_cond1,3.0.4,60.00396433983,
benefit,troubla,&&&&&&&,left,fairness.virtue,,,,,,,0,320,320,320,,,,,,,,,,,,,,,,,,,,,AMP,right,0.3669748986430932,,,right,0,0.3669748986430932,0,,,,,,,,,,,,,,,,,,,,,,1051,2019_Mar_13_1144,mf_amp_cond1,3.0.4,60.00396433983,
win,lachelor,&&&&&&&&,left,fairness.virtue,,,,,,,0,321,321,321,,,,,,,,,,,,,,,,,,,,,AMP,right,0.5837078792392276,,,right,0,0.5837078792392276,0,,,,,,,,,,,,,,,,,,,,,,1051,2019_Mar_13_1144,mf_amp_cond1,3.0.4,60.00396433983,
officers,papert,&&&&&&,right,authority.vice,,,,,,,0,322,322,322,,,,,,,,,,,,,,,,,,,,,AMP,right,1.3338703232002445,,,right,1,1.3338703232002445,1,,,,,,,,,,,,,,,,,,,,,,1051,2019_Mar_13_1144,mf_amp_cond1,3.0.4,60.00396433983,
nonobservalt,touls,&&&&&,None,nonword,,,,,,,0,323,323,323,,,,,,,,,,,,,,,,,,,,,AMP,left,0.983800502755912,,,left,0,0.983800502755912,0,,,,,,,,,,,,,,,,,,,,,,1051,2019_Mar_13_1144,mf_amp_cond1,3.0.4,60.00396433983,
progress,unscothed,&&&&&&&&&,left,authority.virtue,,,,,,,0,324,324,324,,,,,,,,,,,,,,,,,,,,,AMP,right,0.16692281392170116,,,right,0,0.16692281392170116,0,,,,,,,,,,,,,,,,,,,,,,1051,2019_Mar_13_1144,mf_amp_cond1,3.0.4,60.00396433983,
gournful,allears,&&&&&&&,None,nonword,,,,,,,0,325,325,325,,,,,,,,,,,,,,,,,,,,,AMP,left,1.1004894807410892,,,left,0,1.1004894807410892,0,,,,,,,,,,,,,,,,,,,,,,1051,2019_Mar_13_1144,mf_amp_cond1,3.0.4,60.00396433983,
gowlands,perified,&&&&&&&&,None,nonword,,,,,,,0,326,326,326,,,,,,,,,,,,,,,,,,,,,AMP,left,0.43368501198710874,,,left,0,0.43368501198710874,0,,,,,,,,,,,,,,,,,,,,,,1051,2019_Mar_13_1144,mf_amp_cond1,3.0.4,60.00396433983,
serial,atson,&&&&&,right,sanctity.vice,,,,,,,0,327,327,327,,,,,,,,,,,,,,,,,,,,,AMP,left,0.1835992197447922,,,left,0,0.1835992197447922,0,,,,,,,,,,,,,,,,,,,,,,1051,2019_Mar_13_1144,mf_amp_cond1,3.0.4,60.00396433983,
,,,,,,,,,,,,,,,,,,,,,,,,,,,,,,,,,,,,,,,,,,,,4,10.121,,,,,,,,,,,,,,,,,,,,1051,2019_Mar_13_1144,mf_amp_cond1,3.0.4,60.00396433983,
,,,,,,,,,,,,,,,,,,,,,,,,,,,,,,,,,,,,,,,,,,,,,,4,3.853,,,,,,,,,,,,,,,,,,1051,2019_Mar_13_1144,mf_amp_cond1,3.0.4,60.00396433983,
,,,,,,,,,,,,,,,,,,,,,,,,,,,,,,,,,,,,,,,,,,,,,,,,5,6.303,,,,,,,,,,,,,,,,1051,2019_Mar_13_1144,mf_amp_cond1,3.0.4,60.00396433983,
,,,,,,,,,,,,,,,,,,,,,,,,,,,,,,,,,,,,,,,,,,,,,,,,,,right,2.050724214699585,,,,,,,,,,,,,,1051,2019_Mar_13_1144,mf_amp_cond1,3.0.4,60.00396433983,
bisebell,,&&&&&&&,,,,,,,,,,,,,0,0,0,1,,,,,,,,,,,,,,,,,LDT_prac,right,0.9838527799001895,,,,,,0,,,,,,,,,right,0.9838527799001895,,,,,,,,,,,,1051,2019_Mar_13_1144,mf_amp_cond1,3.0.4,60.00396433983,
keyboard,,&&&&&&&,,,,,,,,,,,,,0,1,1,0,,,,,,,,,,,,,,,,,LDT_prac,right,0.667031216842588,,,,,,0,,,,,,,,,right,0.667031216842588,,,,,,,,,,,,1051,2019_Mar_13_1144,mf_amp_cond1,3.0.4,60.00396433983,
,,,,,,,,,,,,,,,,,,,,,,,,,,,,,,,,,,,,,,,,,,,,,,,,,,,,,,right,2.7842718308384065,,,,,,,,,,1051,2019_Mar_13_1144,mf_amp_cond1,3.0.4,60.00396433983,
gedious,,&&&&&&&,right,nonword,,,,,,,,,,,,,,,0,0,0,146,,,,,,,,,,,,,LDT,left,2.1507941955060232,,,,,,0,,,,,,,,,,,,,left,0,2.1507941955060232,,,,,,,1051,2019_Mar_13_1144,mf_amp_cond1,3.0.4,60.00396433983,
focomotive,,&&&&&&&&&&,right,nonword,,,,,,,,,,,,,,,0,1,1,102,,,,,,,,,,,,,LDT,right,0.9504723864374682,,,,,,1,,,,,,,,,,,,,right,1,0.9504723864374682,,,,,,,1051,2019_Mar_13_1144,mf_amp_cond1,3.0.4,60.00396433983,
amount,,&&&&&&,left,neutral,,,,,,,,,,,,,,,0,2,2,188,,,,,,,,,,,,,LDT,right,0.5503800836449955,,,,,,0,,,,,,,,,,,,,right,0,0.5503800836449955,,,,,,,1051,2019_Mar_13_1144,mf_amp_cond1,3.0.4,60.00396433983,
credit,,&&&&&&,left,fairness.virtue,,,,,,,,,,,,,,,0,3,3,156,,,,,,,,,,,,,LDT,right,0.4003379732603207,,,,,,0,,,,,,,,,,,,,right,0,0.4003379732603207,,,,,,,1051,2019_Mar_13_1144,mf_amp_cond1,3.0.4,60.00396433983,
besides,,&&&&&&&,left,neutral,,,,,,,,,,,,,,,0,4,4,111,,,,,,,,,,,,,LDT,right,0.7004170625004917,,,,,,0,,,,,,,,,,,,,right,0,0.7004170625004917,,,,,,,1051,2019_Mar_13_1144,mf_amp_cond1,3.0.4,60.00396433983,
voter,,&&&&&,left,fairness.vice,,,,,,,,,,,,,,,0,5,5,45,,,,,,,,,,,,,LDT,right,0.5170384971133899,,,,,,0,,,,,,,,,,,,,right,0,0.5170384971133899,,,,,,,1051,2019_Mar_13_1144,mf_amp_cond1,3.0.4,60.00396433983,
fangsters,,&&&&&&&&&,right,nonword,,,,,,,,,,,,,,,0,6,6,167,,,,,,,,,,,,,LDT,right,0.5837043513311073,,,,,,1,,,,,,,,,,,,,right,1,0.5837043513311073,,,,,,,1051,2019_Mar_13_1144,mf_amp_cond1,3.0.4,60.00396433983,
galamitous,,&&&&&&&&&&,right,nonword,,,,,,,,,,,,,,,0,7,7,125,,,,,,,,,,,,,LDT,left,0.5336959805572405,,,,,,0,,,,,,,,,,,,,left,0,0.5336959805572405,,,,,,,1051,2019_Mar_13_1144,mf_amp_cond1,3.0.4,60.00396433983,
freedom,,&&&&&&&,left,sanctity.virtue,,,,,,,,,,,,,,,0,8,8,155,,,,,,,,,,,,,LDT,right,0.500366581371054,,,,,,0,,,,,,,,,,,,,right,0,0.500366581371054,,,,,,,1051,2019_Mar_13_1144,mf_amp_cond1,3.0.4,60.00396433983,
failure,,&&&&&&&,left,loyalty.vice,,,,,,,,,,,,,,,0,9,9,138,,,,,,,,,,,,,LDT,right,0.6670575157622807,,,,,,0,,,,,,,,,,,,,right,0,0.6670575157622807,,,,,,,1051,2019_Mar_13_1144,mf_amp_cond1,3.0.4,60.00396433983,
everything,,&&&&&&&&&&,left,neutral,,,,,,,,,,,,,,,0,10,10,27,,,,,,,,,,,,,LDT,left,0.6337611505878158,,,,,,1,,,,,,,,,,,,,left,1,0.6337611505878158,,,,,,,1051,2019_Mar_13_1144,mf_amp_cond1,3.0.4,60.00396433983,
been,,&&&&,left,neutral,,,,,,,,,,,,,,,0,11,11,5,,,,,,,,,,,,,LDT,right,0.800429634633474,,,,,,0,,,,,,,,,,,,,right,0,0.800429634633474,,,,,,,1051,2019_Mar_13_1144,mf_amp_cond1,3.0.4,60.00396433983,
anyhow,,&&&&&&,left,neutral,,,,,,,,,,,,,,,0,12,12,23,,,,,,,,,,,,,LDT,left,0.9838255188369658,,,,,,1,,,,,,,,,,,,,left,1,0.9838255188369658,,,,,,,1051,2019_Mar_13_1144,mf_amp_cond1,3.0.4,60.00396433983,
army,,&&&&,left,loyalty.vice,,,,,,,,,,,,,,,0,13,13,199,,,,,,,,,,,,,LDT,right,0.6003833228896838,,,,,,0,,,,,,,,,,,,,right,0,0.6003833228896838,,,,,,,1051,2019_Mar_13_1144,mf_amp_cond1,3.0.4,60.00396433983,
eight,,&&&&&,left,neutral,,,,,,,,,,,,,,,0,14,14,116,,,,,,,,,,,,,LDT,right,0.6504122196347453,,,,,,0,,,,,,,,,,,,,right,0,0.6504122196347453,,,,,,,1051,2019_Mar_13_1144,mf_amp_cond1,3.0.4,60.00396433983,
agreement,,&&&&&&&&&,left,fairness.virtue,,,,,,,,,,,,,,,0,15,15,3,,,,,,,,,,,,,LDT,right,0.500358884135494,,,,,,0,,,,,,,,,,,,,right,0,0.500358884135494,,,,,,,1051,2019_Mar_13_1144,mf_amp_cond1,3.0.4,60.00396433983,
reprisols,,&&&&&&&&&,right,nonword,,,,,,,,,,,,,,,0,16,16,44,,,,,,,,,,,,,LDT,left,0.8836532287532464,,,,,,0,,,,,,,,,,,,,left,0,0.8836532287532464,,,,,,,1051,2019_Mar_13_1144,mf_amp_cond1,3.0.4,60.00396433983,
alar,,&&&&,right,nonword,,,,,,,,,,,,,,,0,17,17,154,,,,,,,,,,,,,LDT,left,1.8173533145163674,,,,,,0,,,,,,,,,,,,,left,0,1.8173533145163674,,,,,,,1051,2019_Mar_13_1144,mf_amp_cond1,3.0.4,60.00396433983,
ittutable,,&&&&&&&&&,right,nonword,,,,,,,,,,,,,,,0,18,18,171,,,,,,,,,,,,,LDT,right,0.7170957133348566,,,,,,1,,,,,,,,,,,,,right,1,0.7170957133348566,,,,,,,1051,2019_Mar_13_1144,mf_amp_cond1,3.0.4,60.00396433983,
feleological,,&&&&&&&&&&&&,right,nonword,,,,,,,,,,,,,,,0,19,19,104,,,,,,,,,,,,,LDT,right,1.2837538702588063,,,,,,1,,,,,,,,,,,,,right,1,1.2837538702588063,,,,,,,1051,2019_Mar_13_1144,mf_amp_cond1,3.0.4,60.00396433983,
injured,,&&&&&&&,left,care.vice,,,,,,,,,,,,,,,0,20,20,198,,,,,,,,,,,,,LDT,right,0.5837210286990739,,,,,,0,,,,,,,,,,,,,right,0,0.5837210286990739,,,,,,,1051,2019_Mar_13_1144,mf_amp_cond1,3.0.4,60.00396433983,
lempestuous,,&&&&&&&&&&&,right,nonword,,,,,,,,,,,,,,,0,21,21,189,,,,,,,,,,,,,LDT,left,0.6670623265381437,,,,,,0,,,,,,,,,,,,,left,0,0.6670623265381437,,,,,,,1051,2019_Mar_13_1144,mf_amp_cond1,3.0.4,60.00396433983,
gazily,,&&&&&&,right,nonword,,,,,,,,,,,,,,,0,22,22,176,,,,,,,,,,,,,LDT,right,0.6003862093493808,,,,,,1,,,,,,,,,,,,,right,1,0.6003862093493808,,,,,,,1051,2019_Mar_13_1144,mf_amp_cond1,3.0.4,60.00396433983,
perfect,,&&&&&&&,left,sanctity.virtue,,,,,,,,,,,,,,,0,23,23,132,,,,,,,,,,,,,LDT,left,1.617308927088743,,,,,,1,,,,,,,,,,,,,left,1,1.617308927088743,,,,,,,1051,2019_Mar_13_1144,mf_amp_cond1,3.0.4,60.00396433983,
although,,&&&&&&&&,left,neutral,,,,,,,,,,,,,,,0,24,24,50,,,,,,,,,,,,,LDT,right,0.6337098356161732,,,,,,0,,,,,,,,,,,,,right,0,0.6337098356161732,,,,,,,1051,2019_Mar_13_1144,mf_amp_cond1,3.0.4,60.00396433983,
fighters,,&&&&&&&&,left,authority.vice,,,,,,,,,,,,,,,0,25,25,162,,,,,,,,,,,,,LDT,right,0.7002836435276549,,,,,,0,,,,,,,,,,,,,right,0,0.7002836435276549,,,,,,,1051,2019_Mar_13_1144,mf_amp_cond1,3.0.4,60.00396433983,
frocessing,,&&&&&&&&&&,right,nonword,,,,,,,,,,,,,,,0,26,26,49,,,,,,,,,,,,,LDT,left,0.7670431475562509,,,,,,0,,,,,,,,,,,,,left,0,0.7670431475562509,,,,,,,1051,2019_Mar_13_1144,mf_amp_cond1,3.0.4,60.00396433983,
care,,&&&&,left,care.virtue,,,,,,,,,,,,,,,0,27,27,8,,,,,,,,,,,,,LDT,right,0.5170776248269249,,,,,,0,,,,,,,,,,,,,right,0,0.5170776248269249,,,,,,,1051,2019_Mar_13_1144,mf_amp_cond1,3.0.4,60.00396433983,
victims,,&&&&&&&,left,care.vice,,,,,,,,,,,,,,,0,28,28,59,,,,,,,,,,,,,LDT,right,1.4172590874077287,,,,,,0,,,,,,,,,,,,,right,0,1.4172590874077287,,,,,,,1051,2019_Mar_13_1144,mf_amp_cond1,3.0.4,60.00396433983,
rivernoat,,&&&&&&&&&,right,nonword,,,,,,,,,,,,,,,0,29,29,120,,,,,,,,,,,,,LDT,left,1.7006553564278875,,,,,,0,,,,,,,,,,,,,left,0,1.7006553564278875,,,,,,,1051,2019_Mar_13_1144,mf_amp_cond1,3.0.4,60.00396433983,
abuse,,&&&&&,left,sanctity.vice,,,,,,,,,,,,,,,0,30,30,94,,,,,,,,,,,,,LDT,right,0.5003794101357926,,,,,,0,,,,,,,,,,,,,right,0,0.5003794101357926,,,,,,,1051,2019_Mar_13_1144,mf_amp_cond1,3.0.4,60.00396433983,
front,,&&&&&,left,neutral,,,,,,,,,,,,,,,0,31,31,182,,,,,,,,,,,,,LDT,left,1.1672015184303746,,,,,,1,,,,,,,,,,,,,left,1,1.1672015184303746,,,,,,,1051,2019_Mar_13_1144,mf_amp_cond1,3.0.4,60.00396433983,
therefore,,&&&&&&&&&,left,neutral,,,,,,,,,,,,,,,0,32,32,64,,,,,,,,,,,,,LDT,left,1.0671719481470063,,,,,,1,,,,,,,,,,,,,left,1,1.0671719481470063,,,,,,,1051,2019_Mar_13_1144,mf_amp_cond1,3.0.4,60.00396433983,
erks,,&&&&,right,nonword,,,,,,,,,,,,,,,0,33,33,194,,,,,,,,,,,,,LDT,left,0.7337544796173461,,,,,,0,,,,,,,,,,,,,left,0,0.7337544796173461,,,,,,,1051,2019_Mar_13_1144,mf_amp_cond1,3.0.4,60.00396433983,
gandbrake,,&&&&&&&&&,right,nonword,,,,,,,,,,,,,,,0,34,34,55,,,,,,,,,,,,,LDT,right,1.0171526729536708,,,,,,1,,,,,,,,,,,,,right,1,1.0171526729536708,,,,,,,1051,2019_Mar_13_1144,mf_amp_cond1,3.0.4,60.00396433983,
uller,,&&&&&,right,nonword,,,,,,,,,,,,,,,0,35,35,130,,,,,,,,,,,,,LDT,left,0.7671021597925574,,,,,,0,,,,,,,,,,,,,left,0,0.7671021597925574,,,,,,,1051,2019_Mar_13_1144,mf_amp_cond1,3.0.4,60.00396433983,
fontacts,,&&&&&&&&,right,nonword,,,,,,,,,,,,,,,0,36,36,54,,,,,,,,,,,,,LDT,left,1.5172912233974785,,,,,,0,,,,,,,,,,,,,left,0,1.5172912233974785,,,,,,,1051,2019_Mar_13_1144,mf_amp_cond1,3.0.4,60.00396433983,
amoungst,,&&&&&&&&,left,neutral,,,,,,,,,,,,,,,0,37,37,113,,,,,,,,,,,,,LDT,left,0.7337624976062216,,,,,,1,,,,,,,,,,,,,left,1,0.7337624976062216,,,,,,,1051,2019_Mar_13_1144,mf_amp_cond1,3.0.4,60.00396433983,
egpeditious,,&&&&&&&&&&&,right,nonword,,,,,,,,,,,,,,,0,38,38,90,,,,,,,,,,,,,LDT,right,0.6837342423095834,,,,,,1,,,,,,,,,,,,,right,1,0.6837342423095834,,,,,,,1051,2019_Mar_13_1144,mf_amp_cond1,3.0.4,60.00396433983,
rorroborated,,&&&&&&&&&&&&,right,nonword,,,,,,,,,,,,,,,0,39,39,11,,,,,,,,,,,,,LDT,left,0.4003373318410013,,,,,,0,,,,,,,,,,,,,left,0,0.4003373318410013,,,,,,,1051,2019_Mar_13_1144,mf_amp_cond1,3.0.4,60.00396433983,
infet,,&&&&&,right,nonword,,,,,,,,,,,,,,,0,40,40,117,,,,,,,,,,,,,LDT,left,0.8671265985467471,,,,,,0,,,,,,,,,,,,,left,0,0.8671265985467471,,,,,,,1051,2019_Mar_13_1144,mf_amp_cond1,3.0.4,60.00396433983,
loyalty,,&&&&&&&,left,loyalty.virtue,,,,,,,,,,,,,,,0,41,41,86,,,,,,,,,,,,,LDT,right,0.7837750376784243,,,,,,0,,,,,,,,,,,,,right,0,0.7837750376784243,,,,,,,1051,2019_Mar_13_1144,mf_amp_cond1,3.0.4,60.00396433983,
restore,,&&&&&&&,left,care.virtue,,,,,,,,,,,,,,,0,42,42,47,,,,,,,,,,,,,LDT,left,0.6337293994438369,,,,,,1,,,,,,,,,,,,,left,1,0.6337293994438369,,,,,,,1051,2019_Mar_13_1144,mf_amp_cond1,3.0.4,60.00396433983,
wump,,&&&&,right,nonword,,,,,,,,,,,,,,,0,43,43,187,,,,,,,,,,,,,LDT,left,0.7837638125347439,,,,,,0,,,,,,,,,,,,,left,0,0.7837638125347439,,,,,,,1051,2019_Mar_13_1144,mf_amp_cond1,3.0.4,60.00396433983,
forty,,&&&&&,left,neutral,,,,,,,,,,,,,,,0,44,44,38,,,,,,,,,,,,,LDT,left,0.567045585019514,,,,,,1,,,,,,,,,,,,,left,1,0.567045585019514,,,,,,,1051,2019_Mar_13_1144,mf_amp_cond1,3.0.4,60.00396433983,
also,,&&&&,left,neutral,,,,,,,,,,,,,,,0,45,45,183,,,,,,,,,,,,,LDT,right,0.5670420571113937,,,,,,0,,,,,,,,,,,,,right,0,0.5670420571113937,,,,,,,1051,2019_Mar_13_1144,mf_amp_cond1,3.0.4,60.00396433983,
refuejing,,&&&&&&&&&,right,nonword,,,,,,,,,,,,,,,0,46,46,51,,,,,,,,,,,,,LDT,left,0.8837661217257846,,,,,,0,,,,,,,,,,,,,left,0,0.8837661217257846,,,,,,,1051,2019_Mar_13_1144,mf_amp_cond1,3.0.4,60.00396433983,
done,,&&&&,left,neutral,,,,,,,,,,,,,,,0,47,47,13,,,,,,,,,,,,,LDT,left,1.2338737869577017,,,,,,1,,,,,,,,,,,,,left,1,1.2338737869577017,,,,,,,1051,2019_Mar_13_1144,mf_amp_cond1,3.0.4,60.00396433983,
praise,,&&&&&&,left,authority.virtue,,,,,,,,,,,,,,,0,48,48,193,,,,,,,,,,,,,LDT,right,0.5503685377479997,,,,,,0,,,,,,,,,,,,,right,0,0.5503685377479997,,,,,,,1051,2019_Mar_13_1144,mf_amp_cond1,3.0.4,60.00396433983,
metibolic,,&&&&&&&&&,right,nonword,,,,,,,,,,,,,,,0,49,49,129,,,,,,,,,,,,,LDT,left,0.5837300088314805,,,,,,0,,,,,,,,,,,,,left,0,0.5837300088314805,,,,,,,1051,2019_Mar_13_1144,mf_amp_cond1,3.0.4,60.00396433983,
erdest,,&&&&&&,right,nonword,,,,,,,,,,,,,,,0,50,50,133,,,,,,,,,,,,,LDT,left,0.8671166562708095,,,,,,0,,,,,,,,,,,,,left,0,0.8671166562708095,,,,,,,1051,2019_Mar_13_1144,mf_amp_cond1,3.0.4,60.00396433983,
trust,,&&&&&,left,authority.virtue,,,,,,,,,,,,,,,0,51,51,75,,,,,,,,,,,,,LDT,right,0.5503598783689085,,,,,,0,,,,,,,,,,,,,right,0,0.5503598783689085,,,,,,,1051,2019_Mar_13_1144,mf_amp_cond1,3.0.4,60.00396433983,
either,,&&&&&&,left,neutral,,,,,,,,,,,,,,,0,52,52,105,,,,,,,,,,,,,LDT,left,0.5503739900013898,,,,,,1,,,,,,,,,,,,,left,1,0.5503739900013898,,,,,,,1051,2019_Mar_13_1144,mf_amp_cond1,3.0.4,60.00396433983,
men,,&&&,left,loyalty.vice,,,,,,,,,,,,,,,0,53,53,159,,,,,,,,,,,,,LDT,right,0.5670314733870327,,,,,,0,,,,,,,,,,,,,right,0,0.5670314733870327,,,,,,,1051,2019_Mar_13_1144,mf_amp_cond1,3.0.4,60.00396433983,
imebreaker,,&&&&&&&&&&,right,nonword,,,,,,,,,,,,,,,0,54,54,126,,,,,,,,,,,,,LDT,left,0.9338136201549787,,,,,,0,,,,,,,,,,,,,left,0,0.9338136201549787,,,,,,,1051,2019_Mar_13_1144,mf_amp_cond1,3.0.4,60.00396433983,
sgrawl,,&&&&&&,right,nonword,,,,,,,,,,,,,,,0,55,55,140,,,,,,,,,,,,,LDT,left,0.7004023094486911,,,,,,0,,,,,,,,,,,,,left,0,0.7004023094486911,,,,,,,1051,2019_Mar_13_1144,mf_amp_cond1,3.0.4,60.00396433983,
idexpressible,,&&&&&&&&&&&&&,right,nonword,,,,,,,,,,,,,,,0,56,56,161,,,,,,,,,,,,,LDT,left,0.8837962692778092,,,,,,0,,,,,,,,,,,,,left,0,0.8837962692778092,,,,,,,1051,2019_Mar_13_1144,mf_amp_cond1,3.0.4,60.00396433983,
strofe,,&&&&&&,right,nonword,,,,,,,,,,,,,,,0,57,57,121,,,,,,,,,,,,,LDT,left,0.9171275927801616,,,,,,0,,,,,,,,,,,,,left,0,0.9171275927801616,,,,,,,1051,2019_Mar_13_1144,mf_amp_cond1,3.0.4,60.00396433983,
fifty,,&&&&&,left,neutral,,,,,,,,,,,,,,,0,58,58,80,,,,,,,,,,,,,LDT,left,0.7337451788189355,,,,,,1,,,,,,,,,,,,,left,1,0.7337451788189355,,,,,,,1051,2019_Mar_13_1144,mf_amp_cond1,3.0.4,60.00396433983,
scock,,&&&&&,right,nonword,,,,,,,,,,,,,,,0,59,59,177,,,,,,,,,,,,,LDT,left,0.5670728460827377,,,,,,0,,,,,,,,,,,,,left,0,0.5670728460827377,,,,,,,1051,2019_Mar_13_1144,mf_amp_cond1,3.0.4,60.00396433983,
police,,&&&&&&,left,authority.vice,,,,,,,,,,,,,,,0,60,60,142,,,,,,,,,,,,,LDT,left,0.6503984287264757,,,,,,1,,,,,,,,,,,,,left,1,0.6503984287264757,,,,,,,1051,2019_Mar_13_1144,mf_amp_cond1,3.0.4,60.00396433983,
thru,,&&&&,left,neutral,,,,,,,,,,,,,,,0,61,61,91,,,,,,,,,,,,,LDT,left,0.8171105305373203,,,,,,1,,,,,,,,,,,,,left,1,0.8171105305373203,,,,,,,1051,2019_Mar_13_1144,mf_amp_cond1,3.0.4,60.00396433983,
crilfully,,&&&&&&&&&,right,nonword,,,,,,,,,,,,,,,0,62,62,81,,,,,,,,,,,,,LDT,left,0.6337422281794716,,,,,,0,,,,,,,,,,,,,left,0,0.6337422281794716,,,,,,,1051,2019_Mar_13_1144,mf_amp_cond1,3.0.4,60.00396433983,
tove,,&&&&,right,nonword,,,,,,,,,,,,,,,0,63,63,101,,,,,,,,,,,,,LDT,right,0.9504855359264184,,,,,,1,,,,,,,,,,,,,right,1,0.9504855359264184,,,,,,,1051,2019_Mar_13_1144,mf_amp_cond1,3.0.4,60.00396433983,
Daptist,,&&&&&&&,right,nonword,,,,,,,,,,,,,,,0,64,64,82,,,,,,,,,,,,,LDT,left,0.6170626151724719,,,,,,0,,,,,,,,,,,,,left,0,0.6170626151724719,,,,,,,1051,2019_Mar_13_1144,mf_amp_cond1,3.0.4,60.00396433983,
were,,&&&&,left,neutral,,,,,,,,,,,,,,,0,65,65,57,,,,,,,,,,,,,LDT,left,0.5670661110198125,,,,,,1,,,,,,,,,,,,,left,1,0.5670661110198125,,,,,,,1051,2019_Mar_13_1144,mf_amp_cond1,3.0.4,60.00396433983,
ban,,&&&,left,loyalty.vice,,,,,,,,,,,,,,,0,66,66,30,,,,,,,,,,,,,LDT,left,0.6670511013653595,,,,,,1,,,,,,,,,,,,,left,1,0.6670511013653595,,,,,,,1051,2019_Mar_13_1144,mf_amp_cond1,3.0.4,60.00396433983,
vicissifude,,&&&&&&&&&&&,right,nonword,,,,,,,,,,,,,,,0,67,67,112,,,,,,,,,,,,,LDT,left,0.5669079967192374,,,,,,0,,,,,,,,,,,,,left,0,0.5669079967192374,,,,,,,1051,2019_Mar_13_1144,mf_amp_cond1,3.0.4,60.00396433983,
hope,,&&&&,left,loyalty.virtue,,,,,,,,,,,,,,,0,68,68,2,,,,,,,,,,,,,LDT,left,0.4670265984896105,,,,,,1,,,,,,,,,,,,,left,1,0.4670265984896105,,,,,,,1051,2019_Mar_13_1144,mf_amp_cond1,3.0.4,60.00396433983,
with,,&&&&,left,neutral,,,,,,,,,,,,,,,0,69,69,151,,,,,,,,,,,,,LDT,left,0.4336728246707935,,,,,,1,,,,,,,,,,,,,left,1,0.4336728246707935,,,,,,,1051,2019_Mar_13_1144,mf_amp_cond1,3.0.4,60.00396433983,
harassment,,&&&&&&&&&&,left,sanctity.vice,,,,,,,,,,,,,,,0,70,70,4,,,,,,,,,,,,,LDT,left,0.41699160807183944,,,,,,1,,,,,,,,,,,,,left,1,0.41699160807183944,,,,,,,1051,2019_Mar_13_1144,mf_amp_cond1,3.0.4,60.00396433983,
chadows,,&&&&&&&,right,nonword,,,,,,,,,,,,,,,0,71,71,158,,,,,,,,,,,,,LDT,left,0.7670867652923334,,,,,,0,,,,,,,,,,,,,left,0,0.7670867652923334,,,,,,,1051,2019_Mar_13_1144,mf_amp_cond1,3.0.4,60.00396433983,
sharing,,&&&&&&&,left,loyalty.virtue,,,,,,,,,,,,,,,0,72,72,60,,,,,,,,,,,,,LDT,right,0.9671452643815428,,,,,,0,,,,,,,,,,,,,right,0,0.9671452643815428,,,,,,,1051,2019_Mar_13_1144,mf_amp_cond1,3.0.4,60.00396433983,
racist,,&&&&&&,left,sanctity.vice,,,,,,,,,,,,,,,0,73,73,169,,,,,,,,,,,,,LDT,left,0.3836792069778312,,,,,,1,,,,,,,,,,,,,left,1,0.3836792069778312,,,,,,,1051,2019_Mar_13_1144,mf_amp_cond1,3.0.4,60.00396433983,
hence,,&&&&&,left,neutral,,,,,,,,,,,,,,,0,74,74,100,,,,,,,,,,,,,LDT,right,0.7337493481463753,,,,,,0,,,,,,,,,,,,,right,0,0.7337493481463753,,,,,,,1051,2019_Mar_13_1144,mf_amp_cond1,3.0.4,60.00396433983,
noped,,&&&&&,right,nonword,,,,,,,,,,,,,,,0,75,75,109,,,,,,,,,,,,,LDT,left,0.5670465471921489,,,,,,0,,,,,,,,,,,,,left,0,0.5670465471921489,,,,,,,1051,2019_Mar_13_1144,mf_amp_cond1,3.0.4,60.00396433983,
elsewhere,,&&&&&&&&&,left,neutral,,,,,,,,,,,,,,,0,76,76,178,,,,,,,,,,,,,LDT,left,0.6003868507687002,,,,,,1,,,,,,,,,,,,,left,1,0.6003868507687002,,,,,,,1051,2019_Mar_13_1144,mf_amp_cond1,3.0.4,60.00396433983,
letish,,&&&&&&,right,nonword,,,,,,,,,,,,,,,0,77,77,186,,,,,,,,,,,,,LDT,left,0.4003806288528722,,,,,,0,,,,,,,,,,,,,left,0,0.4003806288528722,,,,,,,1051,2019_Mar_13_1144,mf_amp_cond1,3.0.4,60.00396433983,
useful,,&&&&&&,left,authority.virtue,,,,,,,,,,,,,,,0,78,78,87,,,,,,,,,,,,,LDT,left,0.3836625296098646,,,,,,1,,,,,,,,,,,,,left,1,0.3836625296098646,,,,,,,1051,2019_Mar_13_1144,mf_amp_cond1,3.0.4,60.00396433983,
encourage,,&&&&&&&&&,left,authority.virtue,,,,,,,,,,,,,,,0,79,79,124,,,,,,,,,,,,,LDT,left,0.43368052193545736,,,,,,1,,,,,,,,,,,,,left,1,0.43368052193545736,,,,,,,1051,2019_Mar_13_1144,mf_amp_cond1,3.0.4,60.00396433983,
prison,,&&&&&&,left,fairness.vice,,,,,,,,,,,,,,,0,80,80,20,,,,,,,,,,,,,LDT,left,0.4670189012249466,,,,,,1,,,,,,,,,,,,,left,1,0.4670189012249466,,,,,,,1051,2019_Mar_13_1144,mf_amp_cond1,3.0.4,60.00396433983,
even,,&&&&,left,neutral,,,,,,,,,,,,,,,0,81,81,106,,,,,,,,,,,,,LDT,left,0.4503408918099012,,,,,,1,,,,,,,,,,,,,left,1,0.4503408918099012,,,,,,,1051,2019_Mar_13_1144,mf_amp_cond1,3.0.4,60.00396433983,
slavery,,&&&&&&&,left,loyalty.vice,,,,,,,,,,,,,,,0,82,82,135,,,,,,,,,,,,,LDT,left,0.41701502053183503,,,,,,1,,,,,,,,,,,,,left,1,0.41701502053183503,,,,,,,1051,2019_Mar_13_1144,mf_amp_cond1,3.0.4,60.00396433983,
baklara,,&&&&&&&,right,nonword,,,,,,,,,,,,,,,0,83,83,39,,,,,,,,,,,,,LDT,left,0.633735172363231,,,,,,0,,,,,,,,,,,,,left,0,0.633735172363231,,,,,,,1051,2019_Mar_13_1144,mf_amp_cond1,3.0.4,60.00396433983,
yane,,&&&&,right,nonword,,,,,,,,,,,,,,,0,84,84,144,,,,,,,,,,,,,LDT,left,0.6837457881774753,,,,,,0,,,,,,,,,,,,,left,0,0.6837457881774753,,,,,,,1051,2019_Mar_13_1144,mf_amp_cond1,3.0.4,60.00396433983,
opportunity,,&&&&&&&&&&&,left,fairness.virtue,,,,,,,,,,,,,,,0,85,85,69,,,,,,,,,,,,,LDT,right,0.6837403359531891,,,,,,0,,,,,,,,,,,,,right,0,0.6837403359531891,,,,,,,1051,2019_Mar_13_1144,mf_amp_cond1,3.0.4,60.00396433983,
fonderland,,&&&&&&&&&&,right,nonword,,,,,,,,,,,,,,,0,86,86,115,,,,,,,,,,,,,LDT,left,0.8504418540396728,,,,,,0,,,,,,,,,,,,,left,0,0.8504418540396728,,,,,,,1051,2019_Mar_13_1144,mf_amp_cond1,3.0.4,60.00396433983,
pullness,,&&&&&&&&,right,nonword,,,,,,,,,,,,,,,0,87,87,12,,,,,,,,,,,,,LDT,right,1.333903357211966,,,,,,1,,,,,,,,,,,,,right,1,1.333903357211966,,,,,,,1051,2019_Mar_13_1144,mf_amp_cond1,3.0.4,60.00396433983,
gikely,,&&&&&&,right,nonword,,,,,,,,,,,,,,,0,88,88,114,,,,,,,,,,,,,LDT,left,0.6337220229324885,,,,,,0,,,,,,,,,,,,,left,0,0.6337220229324885,,,,,,,1051,2019_Mar_13_1144,mf_amp_cond1,3.0.4,60.00396433983,
give,,&&&&,left,neutral,,,,,,,,,,,,,,,0,89,89,139,,,,,,,,,,,,,LDT,right,0.5503829701046925,,,,,,0,,,,,,,,,,,,,right,0,0.5503829701046925,,,,,,,1051,2019_Mar_13_1144,mf_amp_cond1,3.0.4,60.00396433983,
noone,,&&&&&,left,neutral,,,,,,,,,,,,,,,0,90,90,103,,,,,,,,,,,,,LDT,left,0.6003945480333641,,,,,,1,,,,,,,,,,,,,left,1,0.6003945480333641,,,,,,,1051,2019_Mar_13_1144,mf_amp_cond1,3.0.4,60.00396433983,
neneficence,,&&&&&&&&&&&,right,nonword,,,,,,,,,,,,,,,0,91,91,136,,,,,,,,,,,,,LDT,left,0.8504463440913241,,,,,,0,,,,,,,,,,,,,left,0,0.8504463440913241,,,,,,,1051,2019_Mar_13_1144,mf_amp_cond1,3.0.4,60.00396433983,
godlaness,,&&&&&&&&&,right,nonword,,,,,,,,,,,,,,,0,92,92,143,,,,,,,,,,,,,LDT,left,0.900474920112174,,,,,,0,,,,,,,,,,,,,left,0,0.900474920112174,,,,,,,1051,2019_Mar_13_1144,mf_amp_cond1,3.0.4,60.00396433983,
whither,,&&&&&&&,left,neutral,,,,,,,,,,,,,,,0,93,93,192,,,,,,,,,,,,,LDT,left,0.5337065642816015,,,,,,1,,,,,,,,,,,,,left,1,0.5337065642816015,,,,,,,1051,2019_Mar_13_1144,mf_amp_cond1,3.0.4,60.00396433983,
mecan,,&&&&&,right,nonword,,,,,,,,,,,,,,,0,94,94,74,,,,,,,,,,,,,LDT,right,0.8004453498579096,,,,,,1,,,,,,,,,,,,,right,1,0.8004453498579096,,,,,,,1051,2019_Mar_13_1144,mf_amp_cond1,3.0.4,60.00396433983,
there,,&&&&&,left,neutral,,,,,,,,,,,,,,,0,95,95,179,,,,,,,,,,,,,LDT,left,1.0004878130275756,,,,,,1,,,,,,,,,,,,,left,1,1.0004878130275756,,,,,,,1051,2019_Mar_13_1144,mf_amp_cond1,3.0.4,60.00396433983,
intelligence,,&&&&&&&&&&&&,left,loyalty.virtue,,,,,,,,,,,,,,,0,96,96,170,,,,,,,,,,,,,LDT,right,0.9838142936641816,,,,,,0,,,,,,,,,,,,,right,0,0.9838142936641816,,,,,,,1051,2019_Mar_13_1144,mf_amp_cond1,3.0.4,60.00396433983,
nackers,,&&&&&&&,right,nonword,,,,,,,,,,,,,,,0,97,97,62,,,,,,,,,,,,,LDT,left,0.6670799660496414,,,,,,0,,,,,,,,,,,,,left,0,0.6670799660496414,,,,,,,1051,2019_Mar_13_1144,mf_amp_cond1,3.0.4,60.00396433983,
hasks,,&&&&&,right,nonword,,,,,,,,,,,,,,,0,98,98,17,,,,,,,,,,,,,LDT,left,0.7837840178399347,,,,,,0,,,,,,,,,,,,,left,0,0.7837840178399347,,,,,,,1051,2019_Mar_13_1144,mf_amp_cond1,3.0.4,60.00396433983,
seachwear,,&&&&&&&&&,right,nonword,,,,,,,,,,,,,,,0,99,99,33,,,,,,,,,,,,,LDT,left,0.4669983752537519,,,,,,0,,,,,,,,,,,,,left,0,0.4669983752537519,,,,,,,1051,2019_Mar_13_1144,mf_amp_cond1,3.0.4,60.00396433983,
about,,&&&&&,left,neutral,,,,,,,,,,,,,,,0,100,100,163,,,,,,,,,,,,,LDT,left,1.417247220815625,,,,,,1,,,,,,,,,,,,,left,1,1.417247220815625,,,,,,,1051,2019_Mar_13_1144,mf_amp_cond1,3.0.4,60.00396433983,
sickyay,,&&&&&&&,right,nonword,,,,,,,,,,,,,,,0,101,101,147,,,,,,,,,,,,,LDT,left,0.8837911377777345,,,,,,0,,,,,,,,,,,,,left,0,0.8837911377777345,,,,,,,1051,2019_Mar_13_1144,mf_amp_cond1,3.0.4,60.00396433983,
dumid,,&&&&&,right,nonword,,,,,,,,,,,,,,,0,102,102,15,,,,,,,,,,,,,LDT,left,0.8671044689544942,,,,,,0,,,,,,,,,,,,,left,0,0.8671044689544942,,,,,,,1051,2019_Mar_13_1144,mf_amp_cond1,3.0.4,60.00396433983,
strength,,&&&&&&&&,left,sanctity.virtue,,,,,,,,,,,,,,,0,103,103,83,,,,,,,,,,,,,LDT,right,0.7837615675234701,,,,,,0,,,,,,,,,,,,,right,0,0.7837615675234701,,,,,,,1051,2019_Mar_13_1144,mf_amp_cond1,3.0.4,60.00396433983,
each,,&&&&,left,neutral,,,,,,,,,,,,,,,0,104,104,123,,,,,,,,,,,,,LDT,left,0.6670729102625046,,,,,,1,,,,,,,,,,,,,left,1,0.6670729102625046,,,,,,,1051,2019_Mar_13_1144,mf_amp_cond1,3.0.4,60.00396433983,
ammessment,,&&&&&&&&&&,right,nonword,,,,,,,,,,,,,,,0,105,105,29,,,,,,,,,,,,,LDT,right,0.20029839660855941,,,,,,1,,,,,,,,,,,,,right,1,0.20029839660855941,,,,,,,1051,2019_Mar_13_1144,mf_amp_cond1,3.0.4,60.00396433983,
myself,,&&&&&&,left,neutral,,,,,,,,,,,,,,,0,106,106,65,,,,,,,,,,,,,LDT,left,0.16694718852522783,,,,,,1,,,,,,,,,,,,,left,1,0.16694718852522783,,,,,,,1051,2019_Mar_13_1144,mf_amp_cond1,3.0.4,60.00396433983,
thabbily,,&&&&&&&&,right,nonword,,,,,,,,,,,,,,,0,107,107,96,,,,,,,,,,,,,LDT,left,0.21696935017826036,,,,,,0,,,,,,,,,,,,,left,0,0.21696935017826036,,,,,,,1051,2019_Mar_13_1144,mf_amp_cond1,3.0.4,60.00396433983,
killed,,&&&&&&,left,care.vice,,,,,,,,,,,,,,,0,108,108,89,,,,,,,,,,,,,LDT,right,0.2503058052097913,,,,,,0,,,,,,,,,,,,,right,0,0.2503058052097913,,,,,,,1051,2019_Mar_13_1144,mf_amp_cond1,3.0.4,60.00396433983,
leact,,&&&&&,right,nonword,,,,,,,,,,,,,,,0,109,109,71,,,,,,,,,,,,,LDT,left,0.3669989525224082,,,,,,0,,,,,,,,,,,,,left,0,0.3669989525224082,,,,,,,1051,2019_Mar_13_1144,mf_amp_cond1,3.0.4,60.00396433983,
precificity,,&&&&&&&&&&&,right,nonword,,,,,,,,,,,,,,,0,110,110,52,,,,,,,,,,,,,LDT,right,0.3669986317981966,,,,,,1,,,,,,,,,,,,,right,1,0.3669986317981966,,,,,,,1051,2019_Mar_13_1144,mf_amp_cond1,3.0.4,60.00396433983,
honored,,&&&&&&&,left,authority.virtue,,,,,,,,,,,,,,,0,111,111,95,,,,,,,,,,,,,LDT,left,0.31698545027757064,,,,,,1,,,,,,,,,,,,,left,1,0.31698545027757064,,,,,,,1051,2019_Mar_13_1144,mf_amp_cond1,3.0.4,60.00396433983,
gaultless,,&&&&&&&&&,right,nonword,,,,,,,,,,,,,,,0,112,112,56,,,,,,,,,,,,,LDT,left,0.26698605963611044,,,,,,0,,,,,,,,,,,,,left,0,0.26698605963611044,,,,,,,1051,2019_Mar_13_1144,mf_amp_cond1,3.0.4,60.00396433983,
energy,,&&&&&&,left,sanctity.virtue,,,,,,,,,,,,,,,0,113,113,7,,,,,,,,,,,,,LDT,left,0.40033701111678965,,,,,,1,,,,,,,,,,,,,left,1,0.40033701111678965,,,,,,,1051,2019_Mar_13_1144,mf_amp_cond1,3.0.4,60.00396433983,
neputized,,&&&&&&&&&,right,nonword,,,,,,,,,,,,,,,0,114,114,185,,,,,,,,,,,,,LDT,right,0.11694972222903743,,,,,,1,,,,,,,,,,,,,right,1,0.11694972222903743,,,,,,,1051,2019_Mar_13_1144,mf_amp_cond1,3.0.4,60.00396433983,
