words,mask,corr_ans,category,nonwords,tweets,topic,LDT_pracloop.thisRepN,LDT_pracloop.thisTrialN,LDT_pracloop.thisN,LDT_pracloop.thisIndex,LDT_trials.thisRepN,LDT_trials.thisTrialN,LDT_trials.thisN,LDT_trials.thisIndex,AMP_pracloop.thisRepN,AMP_pracloop.thisTrialN,AMP_pracloop.thisN,AMP_pracloop.thisIndex,AMP_trials.thisRepN,AMP_trials.thisTrialN,AMP_trials.thisN,AMP_trials.thisIndex,tweet_loop.thisRepN,tweet_loop.thisTrialN,tweet_loop.thisN,tweet_loop.thisIndex,begin_key.keys,begin_key.rt,key_resp_AMP_instr1.keys,key_resp_AMP_instr1.rt,key_resp_LDT_instr.keys,key_resp_LDT_instr.rt,resp_LDT_prac.keys,resp_LDT_prac.rt,task,keypress,RT,corr,resp_LDT_ready.keys,resp_LDT_ready.rt,resp_LDT.keys,resp_LDT.corr,resp_LDT.rt,LDT_rating.response,LDT_rating.rt,resp_AMP_ready1.keys,resp_AMP_ready1.rt,resp_AMP_prac.keys,resp_AMP_prac.rt,resp_AMP_ready.keys,resp_AMP_ready.rt,resp_AMP.keys,resp_AMP.corr,resp_AMP.rt,AMP_nonword_rating.response,AMP_nonword_rating.rt,AMP_word_rating.response,AMP_word_rating.rt,AMP_random_rating.response,AMP_random_rating.rt,key_resp_LDT_instr_2.keys,key_resp_LDT_instr_2.rt,resp_tweets.keys,resp_tweets.rt,participant,date,expName,psychopyVersion,frameRate,
,,,,,,,,,,,,,,,,,,,,,,,,,,,right,1438.9337241396715,,,,,,,,,,,,,,,,,,,,,,,,,,,,,,,,,,,,,1054,2019_Mar_13_1242,mf_amp_cond2,3.0.4,59.98641742836463,
,,,,,,,,,,,,,,,,,,,,,,,,,,,,,right,7.852187525451882,,,,,,,,,,,,,,,,,,,,,,,,,,,,,,,,,,,1054,2019_Mar_13_1242,mf_amp_cond2,3.0.4,59.98641742836463,
,,,,,,,,,,,,,,,,,,,,,,,,,,,,,,,right,2.067428523034323,,,,,,,,,,,,,,,,,,,,,,,,,,,,,,,,,1054,2019_Mar_13_1242,mf_amp_cond2,3.0.4,59.98641742836463,
bisebell,&&&&&&&,,,,,,0,0,0,1,,,,,,,,,,,,,,,,,,,,,,,left,1.3505589163396508,LDT_prac,left,1.3505589163396508,0,,,,,,,,,,,,,,,,,,,,,,,,,,,1054,2019_Mar_13_1242,mf_amp_cond2,3.0.4,59.98641742836463,
keyboard,&&&&&&&,,,,,,0,1,1,0,,,,,,,,,,,,,,,,,,,,,,,left,1.667333654477261,LDT_prac,left,1.667333654477261,0,,,,,,,,,,,,,,,,,,,,,,,,,,,1054,2019_Mar_13_1242,mf_amp_cond2,3.0.4,59.98641742836463,
,,,,,,,,,,,,,,,,,,,,,,,,,,,,,,,,,,,,,,,right,1.4005830023088492,,,,,,,,,,,,,,,,,,,,,,,,,1054,2019_Mar_13_1242,mf_amp_cond2,3.0.4,59.98641742836463,
laming,&&&&&&,right,nonword,,,,,,,,0,0,0,57,,,,,,,,,,,,,,,,,,,,,LDT,left,2.8009168062417302,0,,,left,0,2.8009168062417302,,,,,,,,,,,,,,,,,,,,,,1054,2019_Mar_13_1242,mf_amp_cond2,3.0.4,59.98641742836463,
even,&&&&,left,neutral,,,,,,,,0,1,1,166,,,,,,,,,,,,,,,,,,,,,LDT,right,2.8342696178879123,0,,,right,0,2.8342696178879123,,,,,,,,,,,,,,,,,,,,,,1054,2019_Mar_13_1242,mf_amp_cond2,3.0.4,59.98641742836463,
further,&&&&&&&,left,neutral,,,,,,,,0,2,2,123,,,,,,,,,,,,,,,,,,,,,LDT,right,0.9671382085653022,0,,,right,0,0.9671382085653022,,,,,,,,,,,,,,,,,,,,,,1054,2019_Mar_13_1242,mf_amp_cond2,3.0.4,59.98641742836463,
rebels,&&&&&&,left,authority.vice,,,,,,,,0,3,3,129,,,,,,,,,,,,,,,,,,,,,LDT,right,0.9337979049305432,0,,,right,0,0.9337979049305432,,,,,,,,,,,,,,,,,,,,,,1054,2019_Mar_13_1242,mf_amp_cond2,3.0.4,59.98641742836463,
fangsters,&&&&&&&&&,right,nonword,,,,,,,,0,4,4,62,,,,,,,,,,,,,,,,,,,,,LDT,left,1.7173253478540573,0,,,left,0,1.7173253478540573,,,,,,,,,,,,,,,,,,,,,,1054,2019_Mar_13_1242,mf_amp_cond2,3.0.4,59.98641742836463,
trust,&&&&&,left,authority.virtue,,,,,,,,0,5,5,101,,,,,,,,,,,,,,,,,,,,,LDT,right,0.8004360490303952,0,,,right,0,0.8004360490303952,,,,,,,,,,,,,,,,,,,,,,1054,2019_Mar_13_1242,mf_amp_cond2,3.0.4,59.98641742836463,
promote,&&&&&&&,left,sanctity.virtue,,,,,,,,0,6,6,161,,,,,,,,,,,,,,,,,,,,,LDT,right,0.8504386468557641,0,,,right,0,0.8504386468557641,,,,,,,,,,,,,,,,,,,,,,1054,2019_Mar_13_1242,mf_amp_cond2,3.0.4,59.98641742836463,
army,&&&&,left,loyalty.vice,,,,,,,,0,7,7,126,,,,,,,,,,,,,,,,,,,,,LDT,right,0.55031433631666,0,,,right,0,0.55031433631666,,,,,,,,,,,,,,,,,,,,,,1054,2019_Mar_13_1242,mf_amp_cond2,3.0.4,59.98641742836463,
ittutable,&&&&&&&&&,right,nonword,,,,,,,,0,8,8,51,,,,,,,,,,,,,,,,,,,,,LDT,left,1.717332403670298,0,,,left,0,1.717332403670298,,,,,,,,,,,,,,,,,,,,,,1054,2019_Mar_13_1242,mf_amp_cond2,3.0.4,59.98641742836463,
feleological,&&&&&&&&&&&&,right,nonword,,,,,,,,0,9,9,6,,,,,,,,,,,,,,,,,,,,,LDT,left,2.2841547685384285,0,,,left,0,2.2841547685384285,,,,,,,,,,,,,,,,,,,,,,1054,2019_Mar_13_1242,mf_amp_cond2,3.0.4,59.98641742836463,
peaceful,&&&&&&&&,left,authority.virtue,,,,,,,,0,10,10,121,,,,,,,,,,,,,,,,,,,,,LDT,right,0.8671176184143405,0,,,right,0,0.8671176184143405,,,,,,,,,,,,,,,,,,,,,,1054,2019_Mar_13_1242,mf_amp_cond2,3.0.4,59.98641742836463,
terrorist,&&&&&&&&&,left,loyalty.vice,,,,,,,,0,11,11,134,,,,,,,,,,,,,,,,,,,,,LDT,right,0.6837695213325787,0,,,right,0,0.6837695213325787,,,,,,,,,,,,,,,,,,,,,,1054,2019_Mar_13_1242,mf_amp_cond2,3.0.4,59.98641742836463,
myself,&&&&&&,left,neutral,,,,,,,,0,12,12,12,,,,,,,,,,,,,,,,,,,,,LDT,right,1.033823305828264,0,,,right,0,1.033823305828264,,,,,,,,,,,,,,,,,,,,,,1054,2019_Mar_13_1242,mf_amp_cond2,3.0.4,59.98641742836463,
gournful,&&&&&&&&,right,nonword,,,,,,,,0,13,13,102,,,,,,,,,,,,,,,,,,,,,LDT,left,1.217191287461901,0,,,left,0,1.217191287461901,,,,,,,,,,,,,,,,,,,,,,1054,2019_Mar_13_1242,mf_amp_cond2,3.0.4,59.98641742836463,
been,&&&&,left,neutral,,,,,,,,0,14,14,133,,,,,,,,,,,,,,,,,,,,,LDT,right,0.7504350547969807,0,,,right,0,0.7504350547969807,,,,,,,,,,,,,,,,,,,,,,1054,2019_Mar_13_1242,mf_amp_cond2,3.0.4,59.98641742836463,
hereby,&&&&&&,left,neutral,,,,,,,,0,15,15,92,,,,,,,,,,,,,,,,,,,,,LDT,right,0.6504013152152766,0,,,right,0,0.6504013152152766,,,,,,,,,,,,,,,,,,,,,,1054,2019_Mar_13_1242,mf_amp_cond2,3.0.4,59.98641742836463,
sharing,&&&&&&&,left,loyalty.virtue,,,,,,,,0,16,16,24,,,,,,,,,,,,,,,,,,,,,LDT,right,0.6170876312244218,0,,,right,0,0.6170876312244218,,,,,,,,,,,,,,,,,,,,,,1054,2019_Mar_13_1242,mf_amp_cond2,3.0.4,59.98641742836463,
Oregoniuns,&&&&&&&&&&,right,nonword,,,,,,,,0,17,17,106,,,,,,,,,,,,,,,,,,,,,LDT,left,1.2505533999647014,0,,,left,0,1.2505533999647014,,,,,,,,,,,,,,,,,,,,,,1054,2019_Mar_13_1242,mf_amp_cond2,3.0.4,59.98641742836463,
front,&&&&&,left,neutral,,,,,,,,0,18,18,198,,,,,,,,,,,,,,,,,,,,,LDT,right,0.6503974665829446,0,,,right,0,0.6503974665829446,,,,,,,,,,,,,,,,,,,,,,1054,2019_Mar_13_1242,mf_amp_cond2,3.0.4,59.98641742836463,
idexpressible,&&&&&&&&&&&&&,right,nonword,,,,,,,,0,19,19,143,,,,,,,,,,,,,,,,,,,,,LDT,right,0.8004601029097103,1,,,right,1,0.8004601029097103,,,,,,,,,,,,,,,,,,,,,,1054,2019_Mar_13_1242,mf_amp_cond2,3.0.4,59.98641742836463,
although,&&&&&&&&,left,neutral,,,,,,,,0,20,20,20,,,,,,,,,,,,,,,,,,,,,LDT,right,0.700419948931085,0,,,right,0,0.700419948931085,,,,,,,,,,,,,,,,,,,,,,1054,2019_Mar_13_1242,mf_amp_cond2,3.0.4,59.98641742836463,
godlaness,&&&&&&&&&,right,nonword,,,,,,,,0,21,21,17,,,,,,,,,,,,,,,,,,,,,LDT,left,0.9838123693480156,0,,,left,0,0.9838123693480156,,,,,,,,,,,,,,,,,,,,,,1054,2019_Mar_13_1242,mf_amp_cond2,3.0.4,59.98641742836463,
noped,&&&&&,right,nonword,,,,,,,,0,22,22,150,,,,,,,,,,,,,,,,,,,,,LDT,left,2.717566528270254,0,,,left,0,2.717566528270254,,,,,,,,,,,,,,,,,,,,,,1054,2019_Mar_13_1242,mf_amp_cond2,3.0.4,59.98641742836463,
towards,&&&&&&&,left,neutral,,,,,,,,0,23,23,73,,,,,,,,,,,,,,,,,,,,,LDT,right,0.5504140798002481,0,,,right,0,0.5504140798002481,,,,,,,,,,,,,,,,,,,,,,1054,2019_Mar_13_1242,mf_amp_cond2,3.0.4,59.98641742836463,
mostly,&&&&&&,left,neutral,,,,,,,,0,24,24,33,,,,,,,,,,,,,,,,,,,,,LDT,right,0.5839654162700754,0,,,right,0,0.5839654162700754,,,,,,,,,,,,,,,,,,,,,,1054,2019_Mar_13_1242,mf_amp_cond2,3.0.4,59.98641742836463,
become,&&&&&&,left,neutral,,,,,,,,0,25,25,67,,,,,,,,,,,,,,,,,,,,,LDT,right,1.617341640376253,0,,,right,0,1.617341640376253,,,,,,,,,,,,,,,,,,,,,,1054,2019_Mar_13_1242,mf_amp_cond2,3.0.4,59.98641742836463,
neputized,&&&&&&&&&,right,nonword,,,,,,,,0,26,26,145,,,,,,,,,,,,,,,,,,,,,LDT,left,0.9671420571685303,0,,,left,0,0.9671420571685303,,,,,,,,,,,,,,,,,,,,,,1054,2019_Mar_13_1242,mf_amp_cond2,3.0.4,59.98641742836463,
baklara,&&&&&&&,right,nonword,,,,,,,,0,27,27,192,,,,,,,,,,,,,,,,,,,,,LDT,left,1.750688101776177,0,,,left,0,1.750688101776177,,,,,,,,,,,,,,,,,,,,,,1054,2019_Mar_13_1242,mf_amp_cond2,3.0.4,59.98641742836463,
wherever,&&&&&&&&,left,neutral,,,,,,,,0,28,28,79,,,,,,,,,,,,,,,,,,,,,LDT,right,0.5837117278424557,0,,,right,0,0.5837117278424557,,,,,,,,,,,,,,,,,,,,,,1054,2019_Mar_13_1242,mf_amp_cond2,3.0.4,59.98641742836463,
powerful,&&&&&&&&,left,authority.virtue,,,,,,,,0,29,29,23,,,,,,,,,,,,,,,,,,,,,LDT,right,0.5503941952483729,0,,,right,0,0.5503941952483729,,,,,,,,,,,,,,,,,,,,,,1054,2019_Mar_13_1242,mf_amp_cond2,3.0.4,59.98641742836463,
victim,&&&&&&,left,care.vice,,,,,,,,0,30,30,131,,,,,,,,,,,,,,,,,,,,,LDT,right,0.5503845736966468,0,,,right,0,0.5503845736966468,,,,,,,,,,,,,,,,,,,,,,1054,2019_Mar_13_1242,mf_amp_cond2,3.0.4,59.98641742836463,
taxpayung,&&&&&&&&&,right,nonword,,,,,,,,0,31,31,158,,,,,,,,,,,,,,,,,,,,,LDT,left,1.5172758289263584,0,,,left,0,1.5172758289263584,,,,,,,,,,,,,,,,,,,,,,1054,2019_Mar_13_1242,mf_amp_cond2,3.0.4,59.98641742836463,
prosecution,&&&&&&&&&&&,left,authority.vice,,,,,,,,0,32,32,4,,,,,,,,,,,,,,,,,,,,,LDT,right,0.6337348516390193,0,,,right,0,0.6337348516390193,,,,,,,,,,,,,,,,,,,,,,1054,2019_Mar_13_1242,mf_amp_cond2,3.0.4,59.98641742836463,
asn,&&&,right,nonword,,,,,,,,0,33,33,75,,,,,,,,,,,,,,,,,,,,,LDT,left,2.1174240650434513,0,,,left,0,2.1174240650434513,,,,,,,,,,,,,,,,,,,,,,1054,2019_Mar_13_1242,mf_amp_cond2,3.0.4,59.98641742836463,
else,&&&&,left,neutral,,,,,,,,0,34,34,80,,,,,,,,,,,,,,,,,,,,,LDT,right,0.6670664958946873,0,,,right,0,0.6670664958946873,,,,,,,,,,,,,,,,,,,,,,1054,2019_Mar_13_1242,mf_amp_cond2,3.0.4,59.98641742836463,
framo,&&&&&,right,nonword,,,,,,,,0,35,35,48,,,,,,,,,,,,,,,,,,,,,LDT,left,1.4172536351834424,0,,,left,0,1.4172536351834424,,,,,,,,,,,,,,,,,,,,,,1054,2019_Mar_13_1242,mf_amp_cond2,3.0.4,59.98641742836463,
openet,&&&&&&,None,nonword,,,,,,,,0,36,36,190,,,,,,,,,,,,,,,,,,,,,LDT,left,1.7339735304412898,0,,,left,0,1.7339735304412898,,,,,,,,,,,,,,,,,,,,,,1054,2019_Mar_13_1242,mf_amp_cond2,3.0.4,59.98641742836463,
loyalty,&&&&&&&,left,loyalty.virtue,,,,,,,,0,37,37,99,,,,,,,,,,,,,,,,,,,,,LDT,right,0.5335615994699765,0,,,right,0,0.5335615994699765,,,,,,,,,,,,,,,,,,,,,,1054,2019_Mar_13_1242,mf_amp_cond2,3.0.4,59.98641742836463,
health,&&&&&&,left,care.virtue,,,,,,,,0,38,38,176,,,,,,,,,,,,,,,,,,,,,LDT,right,0.5336937355459668,0,,,right,0,0.5336937355459668,,,,,,,,,,,,,,,,,,,,,,1054,2019_Mar_13_1242,mf_amp_cond2,3.0.4,59.98641742836463,
groups,&&&&&&,left,loyalty.vice,,,,,,,,0,39,39,37,,,,,,,,,,,,,,,,,,,,,LDT,right,0.5670295490999706,0,,,right,0,0.5670295490999706,,,,,,,,,,,,,,,,,,,,,,1054,2019_Mar_13_1242,mf_amp_cond2,3.0.4,59.98641742836463,
lursuer,&&&&&&&,right,nonword,,,,,,,,0,40,40,167,,,,,,,,,,,,,,,,,,,,,LDT,right,1.2172082855831832,1,,,right,1,1.2172082855831832,,,,,,,,,,,,,,,,,,,,,,1054,2019_Mar_13_1242,mf_amp_cond2,3.0.4,59.98641742836463,
somehow,&&&&&&&,left,neutral,,,,,,,,0,41,41,163,,,,,,,,,,,,,,,,,,,,,LDT,right,0.667077400314156,0,,,right,0,0.667077400314156,,,,,,,,,,,,,,,,,,,,,,1054,2019_Mar_13_1242,mf_amp_cond2,3.0.4,59.98641742836463,
both,&&&&,left,neutral,,,,,,,,0,42,42,179,,,,,,,,,,,,,,,,,,,,,LDT,right,0.48369434487540275,0,,,right,0,0.48369434487540275,,,,,,,,,,,,,,,,,,,,,,1054,2019_Mar_13_1242,mf_amp_cond2,3.0.4,59.98641742836463,
three,&&&&&,left,neutral,,,,,,,,0,43,43,146,,,,,,,,,,,,,,,,,,,,,LDT,right,0.6670972848660313,0,,,right,0,0.6670972848660313,,,,,,,,,,,,,,,,,,,,,,1054,2019_Mar_13_1242,mf_amp_cond2,3.0.4,59.98641742836463,
synchronazers,&&&&&&&&&&&&&,right,nonword,,,,,,,,0,44,44,137,,,,,,,,,,,,,,,,,,,,,LDT,left,1.4506199170136824,0,,,left,0,1.4506199170136824,,,,,,,,,,,,,,,,,,,,,,1054,2019_Mar_13_1242,mf_amp_cond2,3.0.4,59.98641742836463,
Phintoism,&&&&&&&&&,right,nonword,,,,,,,,0,45,45,115,,,,,,,,,,,,,,,,,,,,,LDT,left,1.0838329594698735,0,,,left,0,1.0838329594698735,,,,,,,,,,,,,,,,,,,,,,1054,2019_Mar_13_1242,mf_amp_cond2,3.0.4,59.98641742836463,
less,&&&&,left,neutral,,,,,,,,0,46,46,90,,,,,,,,,,,,,,,,,,,,,LDT,right,0.650399070174899,0,,,right,0,0.650399070174899,,,,,,,,,,,,,,,,,,,,,,1054,2019_Mar_13_1242,mf_amp_cond2,3.0.4,59.98641742836463,
eight,&&&&&,left,neutral,,,,,,,,0,47,47,171,,,,,,,,,,,,,,,,,,,,,LDT,right,0.6670713066705503,0,,,right,0,0.6670713066705503,,,,,,,,,,,,,,,,,,,,,,1054,2019_Mar_13_1242,mf_amp_cond2,3.0.4,59.98641742836463,
troubla,&&&&&&&,right,nonword,,,,,,,,0,48,48,103,,,,,,,,,,,,,,,,,,,,,LDT,right,0.6503965044103097,1,,,right,1,0.6503965044103097,,,,,,,,,,,,,,,,,,,,,,1054,2019_Mar_13_1242,mf_amp_cond2,3.0.4,59.98641742836463,
therefore,&&&&&&&&&,left,neutral,,,,,,,,0,49,49,78,,,,,,,,,,,,,,,,,,,,,LDT,right,0.8671278814144898,0,,,right,0,0.8671278814144898,,,,,,,,,,,,,,,,,,,,,,1054,2019_Mar_13_1242,mf_amp_cond2,3.0.4,59.98641742836463,
also,&&&&,left,neutral,,,,,,,,0,50,50,191,,,,,,,,,,,,,,,,,,,,,LDT,left,1.3005935218534432,1,,,left,1,1.3005935218534432,,,,,,,,,,,,,,,,,,,,,,1054,2019_Mar_13_1242,mf_amp_cond2,3.0.4,59.98641742836463,
harassment,&&&&&&&&&&,left,sanctity.vice,,,,,,,,0,51,51,85,,,,,,,,,,,,,,,,,,,,,LDT,right,0.6504195961751975,0,,,right,0,0.6504195961751975,,,,,,,,,,,,,,,,,,,,,,1054,2019_Mar_13_1242,mf_amp_cond2,3.0.4,59.98641742836463,
dramens,&&&&&&&,right,nonword,,,,,,,,0,52,52,91,,,,,,,,,,,,,,,,,,,,,LDT,right,1.6506479478266556,1,,,right,1,1.6506479478266556,,,,,,,,,,,,,,,,,,,,,,1054,2019_Mar_13_1242,mf_amp_cond2,3.0.4,59.98641742836463,
lempestuous,&&&&&&&&&&&,right,nonword,,,,,,,,0,53,53,56,,,,,,,,,,,,,,,,,,,,,LDT,left,0.9671625831979327,0,,,left,0,0.9671625831979327,,,,,,,,,,,,,,,,,,,,,,1054,2019_Mar_13_1242,mf_amp_cond2,3.0.4,59.98641742836463,
everything,&&&&&&&&&&,left,neutral,,,,,,,,0,54,54,170,,,,,,,,,,,,,,,,,,,,,LDT,right,0.9004697886412032,0,,,right,0,0.9004697886412032,,,,,,,,,,,,,,,,,,,,,,1054,2019_Mar_13_1242,mf_amp_cond2,3.0.4,59.98641742836463,
protesters,&&&&&&&&&&,left,authority.vice,,,,,,,,0,55,55,47,,,,,,,,,,,,,,,,,,,,,LDT,right,1.2837464937474579,0,,,right,0,1.2837464937474579,,,,,,,,,,,,,,,,,,,,,,1054,2019_Mar_13_1242,mf_amp_cond2,3.0.4,59.98641742836463,
precificity,&&&&&&&&&&&,right,nonword,,,,,,,,0,56,56,63,,,,,,,,,,,,,,,,,,,,,LDT,right,1.0004948688438162,1,,,right,1,1.0004948688438162,,,,,,,,,,,,,,,,,,,,,,1054,2019_Mar_13_1242,mf_amp_cond2,3.0.4,59.98641742836463,
glacenta,&&&&&&&&,right,nonword,,,,,,,,0,57,57,32,,,,,,,,,,,,,,,,,,,,,LDT,left,1.633955826779129,0,,,left,0,1.633955826779129,,,,,,,,,,,,,,,,,,,,,,1054,2019_Mar_13_1242,mf_amp_cond2,3.0.4,59.98641742836463,
tove,&&&&,right,nonword,,,,,,,,0,58,58,194,,,,,,,,,,,,,,,,,,,,,LDT,right,0.9504788008343894,1,,,right,1,0.9504788008343894,,,,,,,,,,,,,,,,,,,,,,1054,2019_Mar_13_1242,mf_amp_cond2,3.0.4,59.98641742836463,
clean,&&&&&,left,sanctity.virtue,,,,,,,,0,59,59,22,,,,,,,,,,,,,,,,,,,,,LDT,right,0.7671592477126978,0,,,right,0,0.7671592477126978,,,,,,,,,,,,,,,,,,,,,,1054,2019_Mar_13_1242,mf_amp_cond2,3.0.4,59.98641742836463,
metibolic,&&&&&&&&&,right,nonword,,,,,,,,0,60,60,49,,,,,,,,,,,,,,,,,,,,,LDT,right,0.8004264274786692,1,,,right,1,0.8004264274786692,,,,,,,,,,,,,,,,,,,,,,1054,2019_Mar_13_1242,mf_amp_cond2,3.0.4,59.98641742836463,
fifty,&&&&&,left,neutral,,,,,,,,0,61,61,1,,,,,,,,,,,,,,,,,,,,,LDT,right,0.8170999468420632,0,,,right,0,0.8170999468420632,,,,,,,,,,,,,,,,,,,,,,1054,2019_Mar_13_1242,mf_amp_cond2,3.0.4,59.98641742836463,
hescribe,&&&&&&&&,right,nonword,,,,,,,,0,62,62,135,,,,,,,,,,,,,,,,,,,,,LDT,left,1.1005064788332675,0,,,left,0,1.1005064788332675,,,,,,,,,,,,,,,,,,,,,,1054,2019_Mar_13_1242,mf_amp_cond2,3.0.4,59.98641742836463,
violence,&&&&&&&&,left,care.vice,,,,,,,,0,63,63,128,,,,,,,,,,,,,,,,,,,,,LDT,right,0.8171105305373203,0,,,right,0,0.8171105305373203,,,,,,,,,,,,,,,,,,,,,,1054,2019_Mar_13_1242,mf_amp_cond2,3.0.4,59.98641742836463,
sliptery,&&&&&&&&,right,nonword,,,,,,,,0,64,64,186,,,,,,,,,,,,,,,,,,,,,LDT,right,0.9171314413833898,1,,,right,1,0.9171314413833898,,,,,,,,,,,,,,,,,,,,,,1054,2019_Mar_13_1242,mf_amp_cond2,3.0.4,59.98641742836463,
fegard,&&&&&&,right,nonword,,,,,,,,0,65,65,82,,,,,,,,,,,,,,,,,,,,,LDT,left,1.4839496369240806,0,,,left,0,1.4839496369240806,,,,,,,,,,,,,,,,,,,,,,1054,2019_Mar_13_1242,mf_amp_cond2,3.0.4,59.98641742836463,
about,&&&&&,left,neutral,,,,,,,,0,66,66,41,,,,,,,,,,,,,,,,,,,,,LDT,right,0.5503396730928216,0,,,right,0,0.5503396730928216,,,,,,,,,,,,,,,,,,,,,,1054,2019_Mar_13_1242,mf_amp_cond2,3.0.4,59.98641742836463,
amoungst,&&&&&&&&,left,neutral,,,,,,,,0,67,67,97,,,,,,,,,,,,,,,,,,,,,LDT,right,1.1005234769254457,0,,,right,0,1.1005234769254457,,,,,,,,,,,,,,,,,,,,,,1054,2019_Mar_13_1242,mf_amp_cond2,3.0.4,59.98641742836463,
greaks,&&&&&&,right,nonword,,,,,,,,0,68,68,112,,,,,,,,,,,,,,,,,,,,,LDT,right,1.0505042017321102,1,,,right,1,1.0505042017321102,,,,,,,,,,,,,,,,,,,,,,1054,2019_Mar_13_1242,mf_amp_cond2,3.0.4,59.98641742836463,
fraud,&&&&&,left,fairness.vice,,,,,,,,0,69,69,111,,,,,,,,,,,,,,,,,,,,,LDT,right,0.5168973809340969,0,,,right,0,0.5168973809340969,,,,,,,,,,,,,,,,,,,,,,1054,2019_Mar_13_1242,mf_amp_cond2,3.0.4,59.98641742836463,
gationwide,&&&&&&&&&&,right,nonword,,,,,,,,0,70,70,45,,,,,,,,,,,,,,,,,,,,,LDT,right,1.100510648189811,1,,,right,1,1.100510648189811,,,,,,,,,,,,,,,,,,,,,,1054,2019_Mar_13_1242,mf_amp_cond2,3.0.4,59.98641742836463,
latter,&&&&&&,left,neutral,,,,,,,,0,71,71,109,,,,,,,,,,,,,,,,,,,,,LDT,left,1.0338300409493968,1,,,left,1,1.0338300409493968,,,,,,,,,,,,,,,,,,,,,,1054,2019_Mar_13_1242,mf_amp_cond2,3.0.4,59.98641742836463,
dumid,&&&&&,right,nonword,,,,,,,,0,72,72,164,,,,,,,,,,,,,,,,,,,,,LDT,left,1.2172031540831085,0,,,left,0,1.2172031540831085,,,,,,,,,,,,,,,,,,,,,,1054,2019_Mar_13_1242,mf_amp_cond2,3.0.4,59.98641742836463,
gillipede,&&&&&&&&&,None,nonword,,,,,,,,0,73,73,175,,,,,,,,,,,,,,,,,,,,,LDT,left,0.9671468679443933,0,,,left,0,0.9671468679443933,,,,,,,,,,,,,,,,,,,,,,1054,2019_Mar_13_1242,mf_amp_cond2,3.0.4,59.98641742836463,
attacks,&&&&&&&,left,care.vice,,,,,,,,0,74,74,72,,,,,,,,,,,,,,,,,,,,,LDT,right,0.5670555272954516,0,,,right,0,0.5670555272954516,,,,,,,,,,,,,,,,,,,,,,1054,2019_Mar_13_1242,mf_amp_cond2,3.0.4,59.98641742836463,
letish,&&&&&&,right,nonword,,,,,,,,0,75,75,98,,,,,,,,,,,,,,,,,,,,,LDT,left,1.3172073875612114,0,,,left,0,1.3172073875612114,,,,,,,,,,,,,,,,,,,,,,1054,2019_Mar_13_1242,mf_amp_cond2,3.0.4,59.98641742836463,
anything,&&&&&&&&,left,neutral,,,,,,,,0,76,76,172,,,,,,,,,,,,,,,,,,,,,LDT,right,0.6337316444551107,0,,,right,0,0.6337316444551107,,,,,,,,,,,,,,,,,,,,,,1054,2019_Mar_13_1242,mf_amp_cond2,3.0.4,59.98641742836463,
baladroit,&&&&&&&&&,right,nonword,,,,,,,,0,77,77,153,,,,,,,,,,,,,,,,,,,,,LDT,left,0.833796878636349,0,,,left,0,0.833796878636349,,,,,,,,,,,,,,,,,,,,,,1054,2019_Mar_13_1242,mf_amp_cond2,3.0.4,59.98641742836463,
reelectiob,&&&&&&&&&&,right,nonword,,,,,,,,0,78,78,61,,,,,,,,,,,,,,,,,,,,,LDT,right,0.7170896196912508,1,,,right,1,0.7170896196912508,,,,,,,,,,,,,,,,,,,,,,1054,2019_Mar_13_1242,mf_amp_cond2,3.0.4,59.98641742836463,
brudent,&&&&&&&,right,nonword,,,,,,,,0,79,79,196,,,,,,,,,,,,,,,,,,,,,LDT,right,1.367234039294999,1,,,right,1,1.367234039294999,,,,,,,,,,,,,,,,,,,,,,1054,2019_Mar_13_1242,mf_amp_cond2,3.0.4,59.98641742836463,
give,&&&&,left,neutral,,,,,,,,0,80,80,199,,,,,,,,,,,,,,,,,,,,,LDT,right,0.6170693502645008,0,,,right,0,0.6170693502645008,,,,,,,,,,,,,,,,,,,,,,1054,2019_Mar_13_1242,mf_amp_cond2,3.0.4,59.98641742836463,
pafer,&&&&&,right,nonword,,,,,,,,0,81,81,5,,,,,,,,,,,,,,,,,,,,,LDT,left,1.033686038281303,0,,,left,0,1.033686038281303,,,,,,,,,,,,,,,,,,,,,,1054,2019_Mar_13_1242,mf_amp_cond2,3.0.4,59.98641742836463,
erdest,&&&&&&,right,nonword,,,,,,,,0,82,82,86,,,,,,,,,,,,,,,,,,,,,LDT,left,1.2172092477267142,0,,,left,0,1.2172092477267142,,,,,,,,,,,,,,,,,,,,,,1054,2019_Mar_13_1242,mf_amp_cond2,3.0.4,59.98641742836463,
drug,&&&&,left,sanctity.vice,,,,,,,,0,83,83,96,,,,,,,,,,,,,,,,,,,,,LDT,right,0.7837817727995571,0,,,right,0,0.7837817727995571,,,,,,,,,,,,,,,,,,,,,,1054,2019_Mar_13_1242,mf_amp_cond2,3.0.4,59.98641742836463,
abointment,&&&&&&&&&&,right,nonword,,,,,,,,0,84,84,54,,,,,,,,,,,,,,,,,,,,,LDT,right,1.350583611667389,1,,,right,1,1.350583611667389,,,,,,,,,,,,,,,,,,,,,,1054,2019_Mar_13_1242,mf_amp_cond2,3.0.4,59.98641742836463,
emassion,&&&&&&&&,right,nonword,,,,,,,,0,85,85,100,,,,,,,,,,,,,,,,,,,,,LDT,right,1.8173433722404297,1,,,right,1,1.8173433722404297,,,,,,,,,,,,,,,,,,,,,,1054,2019_Mar_13_1242,mf_amp_cond2,3.0.4,59.98641742836463,
erks,&&&&,right,nonword,,,,,,,,0,86,86,155,,,,,,,,,,,,,,,,,,,,,LDT,left,0.8504649457754567,0,,,left,0,0.8504649457754567,,,,,,,,,,,,,,,,,,,,,,1054,2019_Mar_13_1242,mf_amp_cond2,3.0.4,59.98641742836463,
papert,&&&&&&,right,nonword,,,,,,,,0,87,87,3,,,,,,,,,,,,,,,,,,,,,LDT,right,1.7673571310879197,1,,,right,1,1.7673571310879197,,,,,,,,,,,,,,,,,,,,,,1054,2019_Mar_13_1242,mf_amp_cond2,3.0.4,59.98641742836463,
whereafter,&&&&&&&&&&,left,neutral,,,,,,,,0,88,88,74,,,,,,,,,,,,,,,,,,,,,LDT,left,2.1174333659000695,1,,,left,1,2.1174333659000695,,,,,,,,,,,,,,,,,,,,,,1054,2019_Mar_13_1242,mf_amp_cond2,3.0.4,59.98641742836463,
edancipation,&&&&&&&&&&&&,None,nonword,,,,,,,,0,89,89,173,,,,,,,,,,,,,,,,,,,,,LDT,right,0.7837759998510592,0,,,right,0,0.7837759998510592,,,,,,,,,,,,,,,,,,,,,,1054,2019_Mar_13_1242,mf_amp_cond2,3.0.4,59.98641742836463,
betrayal,&&&&&&&&,left,loyalty.vice,,,,,,,,0,90,90,65,,,,,,,,,,,,,,,,,,,,,LDT,right,0.6170783303969074,0,,,right,0,0.6170783303969074,,,,,,,,,,,,,,,,,,,,,,1054,2019_Mar_13_1242,mf_amp_cond2,3.0.4,59.98641742836463,
sowntrodden,&&&&&&&&&&&,right,nonword,,,,,,,,0,91,91,87,,,,,,,,,,,,,,,,,,,,,LDT,left,1.217203795502428,0,,,left,0,1.217203795502428,,,,,,,,,,,,,,,,,,,,,,1054,2019_Mar_13_1242,mf_amp_cond2,3.0.4,59.98641742836463,
squets,&&&&&&,right,nonword,,,,,,,,0,92,92,189,,,,,,,,,,,,,,,,,,,,,LDT,left,1.2672352580120787,0,,,left,0,1.2672352580120787,,,,,,,,,,,,,,,,,,,,,,1054,2019_Mar_13_1242,mf_amp_cond2,3.0.4,59.98641742836463,
vicissifude,&&&&&&&&&&&,right,nonword,,,,,,,,0,93,93,21,,,,,,,,,,,,,,,,,,,,,LDT,right,0.8837776675936766,1,,,right,1,0.8837776675936766,,,,,,,,,,,,,,,,,,,,,,1054,2019_Mar_13_1242,mf_amp_cond2,3.0.4,59.98641742836463,
mecan,&&&&&,right,nonword,,,,,,,,0,94,94,34,,,,,,,,,,,,,,,,,,,,,LDT,left,3.3343837936990894,0,,,left,0,3.3343837936990894,,,,,,,,,,,,,,,,,,,,,,1054,2019_Mar_13_1242,mf_amp_cond2,3.0.4,59.98641742836463,
bluently,&&&&&&&&,None,nonword,,,,,,,,0,95,95,105,,,,,,,,,,,,,,,,,,,,,LDT,left,1.1338592904794496,0,,,left,0,1.1338592904794496,,,,,,,,,,,,,,,,,,,,,,1054,2019_Mar_13_1242,mf_amp_cond2,3.0.4,59.98641742836463,
ning,&&&&,right,nonword,,,,,,,,0,96,96,89,,,,,,,,,,,,,,,,,,,,,LDT,right,1.3672680354502518,1,,,right,1,1.3672680354502518,,,,,,,,,,,,,,,,,,,,,,1054,2019_Mar_13_1242,mf_amp_cond2,3.0.4,59.98641742836463,
fontacts,&&&&&&&&,right,nonword,,,,,,,,0,97,97,188,,,,,,,,,,,,,,,,,,,,,LDT,left,0.9838110864802729,0,,,left,0,0.9838110864802729,,,,,,,,,,,,,,,,,,,,,,1054,2019_Mar_13_1242,mf_amp_cond2,3.0.4,59.98641742836463,
latterly,&&&&&&&&,left,neutral,,,,,,,,0,98,98,88,,,,,,,,,,,,,,,,,,,,,LDT,left,2.9676369259832427,1,,,left,1,2.9676369259832427,,,,,,,,,,,,,,,,,,,,,,1054,2019_Mar_13_1242,mf_amp_cond2,3.0.4,59.98641742836463,
there,&&&&&,left,neutral,,,,,,,,0,99,99,118,,,,,,,,,,,,,,,,,,,,,LDT,right,1.0171459378616419,0,,,right,0,1.0171459378616419,,,,,,,,,,,,,,,,,,,,,,1054,2019_Mar_13_1242,mf_amp_cond2,3.0.4,59.98641742836463,
gazily,&&&&&&,right,nonword,,,,,,,,0,100,100,25,,,,,,,,,,,,,,,,,,,,,LDT,right,1.2505437784129754,1,,,right,1,1.2505437784129754,,,,,,,,,,,,,,,,,,,,,,1054,2019_Mar_13_1242,mf_amp_cond2,3.0.4,59.98641742836463,
elduringly,&&&&&&&&&&,right,nonword,,,,,,,,0,101,101,44,,,,,,,,,,,,,,,,,,,,,LDT,right,0.7670854824245907,1,,,right,1,0.7670854824245907,,,,,,,,,,,,,,,,,,,,,,1054,2019_Mar_13_1242,mf_amp_cond2,3.0.4,59.98641742836463,
good,&&&&,left,care.virtue,,,,,,,,0,102,102,197,,,,,,,,,,,,,,,,,,,,,LDT,left,1.150529602658935,1,,,left,1,1.150529602658935,,,,,,,,,,,,,,,,,,,,,,1054,2019_Mar_13_1242,mf_amp_cond2,3.0.4,59.98641742836463,
mightingale,&&&&&&&&&&&,right,nonword,,,,,,,,0,103,103,120,,,,,,,,,,,,,,,,,,,,,LDT,left,1.7506759144889656,0,,,left,0,1.7506759144889656,,,,,,,,,,,,,,,,,,,,,,1054,2019_Mar_13_1242,mf_amp_cond2,3.0.4,59.98641742836463,
anyhow,&&&&&&,left,neutral,,,,,,,,0,104,104,58,,,,,,,,,,,,,,,,,,,,,LDT,right,0.9337764167867135,0,,,right,0,0.9337764167867135,,,,,,,,,,,,,,,,,,,,,,1054,2019_Mar_13_1242,mf_amp_cond2,3.0.4,59.98641742836463,
counpy's,&&&&&&&&,right,nonword,,,,,,,,0,105,105,35,,,,,,,,,,,,,,,,,,,,,LDT,right,2.734236199001316,1,,,right,1,2.734236199001316,,,,,,,,,,,,,,,,,,,,,,1054,2019_Mar_13_1242,mf_amp_cond2,3.0.4,59.98641742836463,
scandal,&&&&&&&,left,sanctity.vice,,,,,,,,0,106,106,108,,,,,,,,,,,,,,,,,,,,,LDT,right,0.6003942273382563,0,,,right,0,0.6003942273382563,,,,,,,,,,,,,,,,,,,,,,1054,2019_Mar_13_1242,mf_amp_cond2,3.0.4,59.98641742836463,
lenon,&&&&&,right,nonword,,,,,,,,0,107,107,160,,,,,,,,,,,,,,,,,,,,,LDT,right,2.1174436289002188,1,,,right,1,2.1174436289002188,,,,,,,,,,,,,,,,,,,,,,1054,2019_Mar_13_1242,mf_amp_cond2,3.0.4,59.98641742836463,
great,&&&&&,left,loyalty.virtue,,,,,,,,0,108,108,130,,,,,,,,,,,,,,,,,,,,,LDT,right,0.7337531967787072,0,,,right,0,0.7337531967787072,,,,,,,,,,,,,,,,,,,,,,1054,2019_Mar_13_1242,mf_amp_cond2,3.0.4,59.98641742836463,
photocalkodes,&&&&&&&&&&&&&,right,nonword,,,,,,,,0,109,109,113,,,,,,,,,,,,,,,,,,,,,LDT,left,1.4172873106435873,0,,,left,0,1.4172873106435873,,,,,,,,,,,,,,,,,,,,,,1054,2019_Mar_13_1242,mf_amp_cond2,3.0.4,59.98641742836463,
halaise,&&&&&&&,None,nonword,,,,,,,,0,110,110,177,,,,,,,,,,,,,,,,,,,,,LDT,left,1.03382523014443,0,,,left,0,1.03382523014443,,,,,,,,,,,,,,,,,,,,,,1054,2019_Mar_13_1242,mf_amp_cond2,3.0.4,59.98641742836463,
hasks,&&&&&,right,nonword,,,,,,,,0,111,111,94,,,,,,,,,,,,,,,,,,,,,LDT,left,1.9674210823723115,0,,,left,0,1.9674210823723115,,,,,,,,,,,,,,,,,,,,,,1054,2019_Mar_13_1242,mf_amp_cond2,3.0.4,59.98641742836463,
touls,&&&&&,right,nonword,,,,,,,,0,112,112,52,,,,,,,,,,,,,,,,,,,,,LDT,right,0.8337753904925194,1,,,right,1,0.8337753904925194,,,,,,,,,,,,,,,,,,,,,,1054,2019_Mar_13_1242,mf_amp_cond2,3.0.4,59.98641742836463,
quarterbocks,&&&&&&&&&&&&,right,nonword,,,,,,,,0,113,113,119,,,,,,,,,,,,,,,,,,,,,LDT,right,1.200555933668511,1,,,right,1,1.200555933668511,,,,,,,,,,,,,,,,,,,,,,1054,2019_Mar_13_1242,mf_amp_cond2,3.0.4,59.98641742836463,
done,&&&&,left,neutral,,,,,,,,0,114,114,114,,,,,,,,,,,,,,,,,,,,,LDT,right,0.6337210607598536,0,,,right,0,0.6337210607598536,,,,,,,,,,,,,,,,,,,,,,1054,2019_Mar_13_1242,mf_amp_cond2,3.0.4,59.98641742836463,
nonobservalt,&&&&&&&&&&&&,right,nonword,,,,,,,,0,115,115,18,,,,,,,,,,,,,,,,,,,,,LDT,right,1.3172186127048917,1,,,right,1,1.3172186127048917,,,,,,,,,,,,,,,,,,,,,,1054,2019_Mar_13_1242,mf_amp_cond2,3.0.4,59.98641742836463,
dormandi,&&&&&&&&,None,nonword,,,,,,,,0,116,116,66,,,,,,,,,,,,,,,,,,,,,LDT,left,0.7837631710863207,0,,,left,0,0.7837631710863207,,,,,,,,,,,,,,,,,,,,,,1054,2019_Mar_13_1242,mf_amp_cond2,3.0.4,59.98641742836463,
peace,&&&&&,left,care.virtue,,,,,,,,0,117,117,148,,,,,,,,,,,,,,,,,,,,,LDT,right,1.0171472207584884,0,,,right,0,1.0171472207584884,,,,,,,,,,,,,,,,,,,,,,1054,2019_Mar_13_1242,mf_amp_cond2,3.0.4,59.98641742836463,
besides,&&&&&&&,left,neutral,,,,,,,,0,118,118,169,,,,,,,,,,,,,,,,,,,,,LDT,right,0.9171352900157217,0,,,right,0,0.9171352900157217,,,,,,,,,,,,,,,,,,,,,,1054,2019_Mar_13_1242,mf_amp_cond2,3.0.4,59.98641742836463,
either,&&&&&&,left,neutral,,,,,,,,0,119,119,27,,,,,,,,,,,,,,,,,,,,,LDT,right,0.6170571629481856,0,,,right,0,0.6170571629481856,,,,,,,,,,,,,,,,,,,,,,1054,2019_Mar_13_1242,mf_amp_cond2,3.0.4,59.98641742836463,
help,&&&&,left,care.virtue,,,,,,,,0,120,120,187,,,,,,,,,,,,,,,,,,,,,LDT,right,0.5670468678872567,0,,,right,0,0.5670468678872567,,,,,,,,,,,,,,,,,,,,,,1054,2019_Mar_13_1242,mf_amp_cond2,3.0.4,59.98641742836463,
torture,&&&&&&&,left,care.vice,,,,,,,,0,121,121,159,,,,,,,,,,,,,,,,,,,,,LDT,right,0.650377902755281,0,,,right,0,0.650377902755281,,,,,,,,,,,,,,,,,,,,,,1054,2019_Mar_13_1242,mf_amp_cond2,3.0.4,59.98641742836463,
itself,&&&&&&,left,neutral,,,,,,,,0,122,122,127,,,,,,,,,,,,,,,,,,,,,LDT,right,0.8671221084950957,0,,,right,0,0.8671221084950957,,,,,,,,,,,,,,,,,,,,,,1054,2019_Mar_13_1242,mf_amp_cond2,3.0.4,59.98641742836463,
strofe,&&&&&&,right,nonword,,,,,,,,0,123,123,15,,,,,,,,,,,,,,,,,,,,,LDT,left,0.8169713386741932,0,,,left,0,0.8169713386741932,,,,,,,,,,,,,,,,,,,,,,1054,2019_Mar_13_1242,mf_amp_cond2,3.0.4,59.98641742836463,
shoirmaster,&&&&&&&&&&&,None,nonword,,,,,,,,0,124,124,165,,,,,,,,,,,,,,,,,,,,,LDT,right,1.4506138233409729,0,,,right,0,1.4506138233409729,,,,,,,,,,,,,,,,,,,,,,1054,2019_Mar_13_1242,mf_amp_cond2,3.0.4,59.98641742836463,
bycled,&&&&&&,None,nonword,,,,,,,,0,125,125,84,,,,,,,,,,,,,,,,,,,,,LDT,left,3.1176597932353616,0,,,left,0,3.1176597932353616,,,,,,,,,,,,,,,,,,,,,,1054,2019_Mar_13_1242,mf_amp_cond2,3.0.4,59.98641742836463,
could,&&&&&,left,neutral,,,,,,,,0,126,126,168,,,,,,,,,,,,,,,,,,,,,LDT,right,0.5670475093356799,0,,,right,0,0.5670475093356799,,,,,,,,,,,,,,,,,,,,,,1054,2019_Mar_13_1242,mf_amp_cond2,3.0.4,59.98641742836463,
vurtain,&&&&&&&,right,nonword,,,,,,,,0,127,127,147,,,,,,,,,,,,,,,,,,,,,LDT,left,1.1338663462956902,0,,,left,0,1.1338663462956902,,,,,,,,,,,,,,,,,,,,,,1054,2019_Mar_13_1242,mf_amp_cond2,3.0.4,59.98641742836463,
with,&&&&,left,neutral,,,,,,,,0,128,128,132,,,,,,,,,,,,,,,,,,,,,LDT,right,0.8837933828181121,0,,,right,0,0.8837933828181121,,,,,,,,,,,,,,,,,,,,,,1054,2019_Mar_13_1242,mf_amp_cond2,3.0.4,59.98641742836463,
elsewhere,&&&&&&&&&,left,neutral,,,,,,,,0,129,129,68,,,,,,,,,,,,,,,,,,,,,LDT,right,1.0005131497746333,0,,,right,0,1.0005131497746333,,,,,,,,,,,,,,,,,,,,,,1054,2019_Mar_13_1242,mf_amp_cond2,3.0.4,59.98641742836463,
pumber,&&&&&&,None,nonword,,,,,,,,0,130,130,162,,,,,,,,,,,,,,,,,,,,,LDT,right,0.8837568208982702,0,,,right,0,0.8837568208982702,,,,,,,,,,,,,,,,,,,,,,1054,2019_Mar_13_1242,mf_amp_cond2,3.0.4,59.98641742836463,
ugeasily,&&&&&&&&,right,nonword,,,,,,,,0,131,131,107,,,,,,,,,,,,,,,,,,,,,LDT,left,0.7837695854832418,0,,,left,0,0.7837695854832418,,,,,,,,,,,,,,,,,,,,,,1054,2019_Mar_13_1242,mf_amp_cond2,3.0.4,59.98641742836463,
civilians,&&&&&&&&&,left,care.vice,,,,,,,,0,132,132,151,,,,,,,,,,,,,,,,,,,,,LDT,right,1.0004852472629864,0,,,right,0,1.0004852472629864,,,,,,,,,,,,,,,,,,,,,,1054,2019_Mar_13_1242,mf_amp_cond2,3.0.4,59.98641742836463,
forty,&&&&&,left,neutral,,,,,,,,0,133,133,156,,,,,,,,,,,,,,,,,,,,,LDT,right,1.1504946443310473,0,,,right,0,1.1504946443310473,,,,,,,,,,,,,,,,,,,,,,1054,2019_Mar_13_1242,mf_amp_cond2,3.0.4,59.98641742836463,
each,&&&&,left,neutral,,,,,,,,0,134,134,16,,,,,,,,,,,,,,,,,,,,,LDT,right,0.6503769405826461,0,,,right,0,0.6503769405826461,,,,,,,,,,,,,,,,,,,,,,1054,2019_Mar_13_1242,mf_amp_cond2,3.0.4,59.98641742836463,
war,&&&,left,sanctity.vice,,,,,,,,0,135,135,0,,,,,,,,,,,,,,,,,,,,,LDT,right,0.8504424954589922,0,,,right,0,0.8504424954589922,,,,,,,,,,,,,,,,,,,,,,1054,2019_Mar_13_1242,mf_amp_cond2,3.0.4,59.98641742836463,
embrace,&&&&&&&,left,authority.virtue,,,,,,,,0,136,136,154,,,,,,,,,,,,,,,,,,,,,LDT,right,0.6670716273656581,0,,,right,0,0.6670716273656581,,,,,,,,,,,,,,,,,,,,,,1054,2019_Mar_13_1242,mf_amp_cond2,3.0.4,59.98641742836463,
iptervention,&&&&&&&&&&&&,right,nonword,,,,,,,,0,137,137,81,,,,,,,,,,,,,,,,,,,,,LDT,right,0.967151999444468,1,,,right,1,0.967151999444468,,,,,,,,,,,,,,,,,,,,,,1054,2019_Mar_13_1242,mf_amp_cond2,3.0.4,59.98641742836463,
lachelor,&&&&&&&&,right,nonword,,,,,,,,0,138,138,13,,,,,,,,,,,,,,,,,,,,,LDT,right,2.3341410096909385,1,,,right,1,2.3341410096909385,,,,,,,,,,,,,,,,,,,,,,1054,2019_Mar_13_1242,mf_amp_cond2,3.0.4,59.98641742836463,
leact,&&&&&,right,nonword,,,,,,,,0,139,139,42,,,,,,,,,,,,,,,,,,,,,LDT,left,0.8170951360370964,0,,,left,0,0.8170951360370964,,,,,,,,,,,,,,,,,,,,,,1054,2019_Mar_13_1242,mf_amp_cond2,3.0.4,59.98641742836463,
reprisols,&&&&&&&&&,right,nonword,,,,,,,,0,140,140,55,,,,,,,,,,,,,,,,,,,,,LDT,right,1.0171796133508906,1,,,right,1,1.0171796133508906,,,,,,,,,,,,,,,,,,,,,,1054,2019_Mar_13_1242,mf_amp_cond2,3.0.4,59.98641742836463,
progress,&&&&&&&&,left,authority.virtue,,,,,,,,0,141,141,185,,,,,,,,,,,,,,,,,,,,,LDT,right,0.7004109688277822,0,,,right,0,0.7004109688277822,,,,,,,,,,,,,,,,,,,,,,1054,2019_Mar_13_1242,mf_amp_cond2,3.0.4,59.98641742836463,
friends,&&&&&&&,left,loyalty.virtue,,,,,,,,0,142,142,180,,,,,,,,,,,,,,,,,,,,,LDT,right,0.6002431688539218,0,,,right,0,0.6002431688539218,,,,,,,,,,,,,,,,,,,,,,1054,2019_Mar_13_1242,mf_amp_cond2,3.0.4,59.98641742836463,
toward,&&&&&&,left,neutral,,,,,,,,0,143,143,184,,,,,,,,,,,,,,,,,,,,,LDT,right,0.5336831518216059,0,,,right,0,0.5336831518216059,,,,,,,,,,,,,,,,,,,,,,1054,2019_Mar_13_1242,mf_amp_cond2,3.0.4,59.98641742836463,
fifteen,&&&&&&&,left,neutral,,,,,,,,0,144,144,181,,,,,,,,,,,,,,,,,,,,,LDT,right,0.6003955101768952,0,,,right,0,0.6003955101768952,,,,,,,,,,,,,,,,,,,,,,1054,2019_Mar_13_1242,mf_amp_cond2,3.0.4,59.98641742836463,
riot,&&&&,left,authority.vice,,,,,,,,0,145,145,31,,,,,,,,,,,,,,,,,,,,,LDT,right,0.717081922426587,0,,,right,0,0.717081922426587,,,,,,,,,,,,,,,,,,,,,,1054,2019_Mar_13_1242,mf_amp_cond2,3.0.4,59.98641742836463,
seem,&&&&,left,neutral,,,,,,,,0,146,146,2,,,,,,,,,,,,,,,,,,,,,LDT,right,0.6337383795762435,0,,,right,0,0.6337383795762435,,,,,,,,,,,,,,,,,,,,,,1054,2019_Mar_13_1242,mf_amp_cond2,3.0.4,59.98641742836463,
love,&&&&,left,loyalty.virtue,,,,,,,,0,147,147,124,,,,,,,,,,,,,,,,,,,,,LDT,right,0.5670641866745427,0,,,right,0,0.5670641866745427,,,,,,,,,,,,,,,,,,,,,,1054,2019_Mar_13_1242,mf_amp_cond2,3.0.4,59.98641742836463,
reviked,&&&&&&&,right,nonword,,,,,,,,0,148,148,122,,,,,,,,,,,,,,,,,,,,,LDT,left,1.5672867654066067,0,,,left,0,1.5672867654066067,,,,,,,,,,,,,,,,,,,,,,1054,2019_Mar_13_1242,mf_amp_cond2,3.0.4,59.98641742836463,
drumbled,&&&&&&&&,right,nonword,,,,,,,,0,149,149,152,,,,,,,,,,,,,,,,,,,,,LDT,left,1.783860669558635,0,,,left,0,1.783860669558635,,,,,,,,,,,,,,,,,,,,,,1054,2019_Mar_13_1242,mf_amp_cond2,3.0.4,59.98641742836463,
benefit,&&&&&&&,left,fairness.virtue,,,,,,,,0,150,150,174,,,,,,,,,,,,,,,,,,,,,LDT,right,0.5003887109342031,0,,,right,0,0.5003887109342031,,,,,,,,,,,,,,,,,,,,,,1054,2019_Mar_13_1242,mf_amp_cond2,3.0.4,59.98641742836463,
frocessing,&&&&&&&&&&,right,nonword,,,,,,,,0,151,151,46,,,,,,,,,,,,,,,,,,,,,LDT,right,0.8504703979706392,1,,,right,1,0.8504703979706392,,,,,,,,,,,,,,,,,,,,,,1054,2019_Mar_13_1242,mf_amp_cond2,3.0.4,59.98641742836463,
esquisiteness,&&&&&&&&&&&&&,right,nonword,,,,,,,,0,152,152,70,,,,,,,,,,,,,,,,,,,,,LDT,right,1.1171755081159063,1,,,right,1,1.1171755081159063,,,,,,,,,,,,,,,,,,,,,,1054,2019_Mar_13_1242,mf_amp_cond2,3.0.4,59.98641742836463,
fostet,&&&&&&,right,nonword,,,,,,,,0,153,153,11,,,,,,,,,,,,,,,,,,,,,LDT,right,1.8840467505215202,1,,,right,1,1.8840467505215202,,,,,,,,,,,,,,,,,,,,,,1054,2019_Mar_13_1242,mf_amp_cond2,3.0.4,59.98641742836463,
viscs,&&&&&,None,nonword,,,,,,,,0,154,154,30,,,,,,,,,,,,,,,,,,,,,LDT,left,0.9004611292039044,0,,,left,0,0.9004611292039044,,,,,,,,,,,,,,,,,,,,,,1054,2019_Mar_13_1242,mf_amp_cond2,3.0.4,59.98641742836463,
spag,&&&&,None,nonword,,,,,,,,0,155,155,40,,,,,,,,,,,,,,,,,,,,,LDT,left,2.0007318799034692,0,,,left,0,2.0007318799034692,,,,,,,,,,,,,,,,,,,,,,1054,2019_Mar_13_1242,mf_amp_cond2,3.0.4,59.98641742836463,
abuse,&&&&&,left,sanctity.vice,,,,,,,,0,156,156,28,,,,,,,,,,,,,,,,,,,,,LDT,right,0.7004071201954503,0,,,right,0,0.7004071201954503,,,,,,,,,,,,,,,,,,,,,,1054,2019_Mar_13_1242,mf_amp_cond2,3.0.4,59.98641742836463,
least,&&&&&,left,neutral,,,,,,,,0,157,157,136,,,,,,,,,,,,,,,,,,,,,LDT,right,0.7170844881911762,0,,,right,0,0.7170844881911762,,,,,,,,,,,,,,,,,,,,,,1054,2019_Mar_13_1242,mf_amp_cond2,3.0.4,59.98641742836463,
sgrawl,&&&&&&,right,nonword,,,,,,,,0,158,158,117,,,,,,,,,,,,,,,,,,,,,LDT,left,0.8004049393057358,0,,,left,0,0.8004049393057358,,,,,,,,,,,,,,,,,,,,,,1054,2019_Mar_13_1242,mf_amp_cond2,3.0.4,59.98641742836463,
infet,&&&&&,right,nonword,,,,,,,,0,159,159,95,,,,,,,,,,,,,,,,,,,,,LDT,left,1.5005942915740889,0,,,left,0,1.5005942915740889,,,,,,,,,,,,,,,,,,,,,,1054,2019_Mar_13_1242,mf_amp_cond2,3.0.4,59.98641742836463,
coom,&&&&,right,nonword,,,,,,,,0,160,160,116,,,,,,,,,,,,,,,,,,,,,LDT,left,1.0338120807136875,0,,,left,0,1.0338120807136875,,,,,,,,,,,,,,,,,,,,,,1054,2019_Mar_13_1242,mf_amp_cond2,3.0.4,59.98641742836463,
chonograph,&&&&&&&&&&,right,nonword,,,,,,,,0,161,161,77,,,,,,,,,,,,,,,,,,,,,LDT,right,0.8004347661335487,1,,,right,1,0.8004347661335487,,,,,,,,,,,,,,,,,,,,,,1054,2019_Mar_13_1242,mf_amp_cond2,3.0.4,59.98641742836463,
win,&&&,left,fairness.virtue,,,,,,,,0,162,162,71,,,,,,,,,,,,,,,,,,,,,LDT,right,0.9004723543766886,0,,,right,0,0.9004723543766886,,,,,,,,,,,,,,,,,,,,,,1054,2019_Mar_13_1242,mf_amp_cond2,3.0.4,59.98641742836463,
chadows,&&&&&&&,right,nonword,,,,,,,,0,163,163,43,,,,,,,,,,,,,,,,,,,,,LDT,right,0.7837647747073788,1,,,right,1,0.7837647747073788,,,,,,,,,,,,,,,,,,,,,,1054,2019_Mar_13_1242,mf_amp_cond2,3.0.4,59.98641742836463,
whither,&&&&&&&,left,neutral,,,,,,,,0,164,164,110,,,,,,,,,,,,,,,,,,,,,LDT,left,1.350598043994978,1,,,left,1,1.350598043994978,,,,,,,,,,,,,,,,,,,,,,1054,2019_Mar_13_1242,mf_amp_cond2,3.0.4,59.98641742836463,
refused,&&&&&&&,left,authority.vice,,,,,,,,0,165,165,9,,,,,,,,,,,,,,,,,,,,,LDT,right,0.6503987494506873,0,,,right,0,0.6503987494506873,,,,,,,,,,,,,,,,,,,,,,1054,2019_Mar_13_1242,mf_amp_cond2,3.0.4,59.98641742836463,
presentkess,&&&&&&&&&&&,right,nonword,,,,,,,,0,166,166,178,,,,,,,,,,,,,,,,,,,,,LDT,left,1.9173963549837936,0,,,left,0,1.9173963549837936,,,,,,,,,,,,,,,,,,,,,,1054,2019_Mar_13_1242,mf_amp_cond2,3.0.4,59.98641742836463,
commitment,&&&&&&&&&&,left,sanctity.virtue,,,,,,,,0,167,167,7,,,,,,,,,,,,,,,,,,,,,LDT,right,0.7837891493109055,0,,,right,0,0.7837891493109055,,,,,,,,,,,,,,,,,,,,,,1054,2019_Mar_13_1242,mf_amp_cond2,3.0.4,59.98641742836463,
thru,&&&&,left,neutral,,,,,,,,0,168,168,139,,,,,,,,,,,,,,,,,,,,,LDT,left,1.417250107275322,1,,,left,1,1.417250107275322,,,,,,,,,,,,,,,,,,,,,,1054,2019_Mar_13_1242,mf_amp_cond2,3.0.4,59.98641742836463,
amount,&&&&&&,left,neutral,,,,,,,,0,169,169,157,,,,,,,,,,,,,,,,,,,,,LDT,right,0.583709482831182,0,,,right,0,0.583709482831182,,,,,,,,,,,,,,,,,,,,,,1054,2019_Mar_13_1242,mf_amp_cond2,3.0.4,59.98641742836463,
voter,&&&&&,left,fairness.vice,,,,,,,,0,170,170,183,,,,,,,,,,,,,,,,,,,,,LDT,right,0.9004640156927053,0,,,right,0,0.9004640156927053,,,,,,,,,,,,,,,,,,,,,,1054,2019_Mar_13_1242,mf_amp_cond2,3.0.4,59.98641742836463,
promises,&&&&&&&&,left,fairness.virtue,,,,,,,,0,171,171,142,,,,,,,,,,,,,,,,,,,,,LDT,right,1.017139202769613,0,,,right,0,1.017139202769613,,,,,,,,,,,,,,,,,,,,,,1054,2019_Mar_13_1242,mf_amp_cond2,3.0.4,59.98641742836463,
forced,&&&&&&,left,fairness.vice,,,,,,,,0,172,172,182,,,,,,,,,,,,,,,,,,,,,LDT,right,0.5503730278287549,0,,,right,0,0.5503730278287549,,,,,,,,,,,,,,,,,,,,,,1054,2019_Mar_13_1242,mf_amp_cond2,3.0.4,59.98641742836463,
aubos,&&&&&,right,nonword,,,,,,,,0,173,173,93,,,,,,,,,,,,,,,,,,,,,LDT,left,0.7503856641124003,0,,,left,0,0.7503856641124003,,,,,,,,,,,,,,,,,,,,,,1054,2019_Mar_13_1242,mf_amp_cond2,3.0.4,59.98641742836463,
failure,&&&&&&&,left,loyalty.vice,,,,,,,,0,174,174,64,,,,,,,,,,,,,,,,,,,,,LDT,right,0.583712369290879,0,,,right,0,0.583712369290879,,,,,,,,,,,,,,,,,,,,,,1054,2019_Mar_13_1242,mf_amp_cond2,3.0.4,59.98641742836463,
refuejing,&&&&&&&&&,right,nonword,,,,,,,,0,175,175,140,,,,,,,,,,,,,,,,,,,,,LDT,left,1.7673436609038617,0,,,left,0,1.7673436609038617,,,,,,,,,,,,,,,,,,,,,,1054,2019_Mar_13_1242,mf_amp_cond2,3.0.4,59.98641742836463,
fonderland,&&&&&&&&&&,right,nonword,,,,,,,,0,176,176,50,,,,,,,,,,,,,,,,,,,,,LDT,right,0.7838343706389423,1,,,right,1,0.7838343706389423,,,,,,,,,,,,,,,,,,,,,,1054,2019_Mar_13_1242,mf_amp_cond2,3.0.4,59.98641742836463,
illegal,&&&&&&&,left,fairness.vice,,,,,,,,0,177,177,144,,,,,,,,,,,,,,,,,,,,,LDT,right,0.6504343492269982,0,,,right,0,0.6504343492269982,,,,,,,,,,,,,,,,,,,,,,1054,2019_Mar_13_1242,mf_amp_cond2,3.0.4,59.98641742836463,
freedom,&&&&&&&,left,sanctity.virtue,,,,,,,,0,178,178,59,,,,,,,,,,,,,,,,,,,,,LDT,right,0.5170657582348213,0,,,right,0,0.5170657582348213,,,,,,,,,,,,,,,,,,,,,,1054,2019_Mar_13_1242,mf_amp_cond2,3.0.4,59.98641742836463,
sonvoy,&&&&&&,None,nonword,,,,,,,,0,179,179,149,,,,,,,,,,,,,,,,,,,,,LDT,left,0.9171304792398587,0,,,left,0,0.9171304792398587,,,,,,,,,,,,,,,,,,,,,,1054,2019_Mar_13_1242,mf_amp_cond2,3.0.4,59.98641742836463,
agreement,&&&&&&&&&,left,fairness.virtue,,,,,,,,0,180,180,76,,,,,,,,,,,,,,,,,,,,,LDT,right,0.7671143470797688,0,,,right,0,0.7671143470797688,,,,,,,,,,,,,,,,,,,,,,1054,2019_Mar_13_1242,mf_amp_cond2,3.0.4,59.98641742836463,
hence,&&&&&,left,neutral,,,,,,,,0,181,181,53,,,,,,,,,,,,,,,,,,,,,LDT,right,0.8837920999212656,0,,,right,0,0.8837920999212656,,,,,,,,,,,,,,,,,,,,,,1054,2019_Mar_13_1242,mf_amp_cond2,3.0.4,59.98641742836463,
egpeditious,&&&&&&&&&&&,right,nonword,,,,,,,,0,182,182,38,,,,,,,,,,,,,,,,,,,,,LDT,left,1.0671838147682138,0,,,left,0,1.0671838147682138,,,,,,,,,,,,,,,,,,,,,,1054,2019_Mar_13_1242,mf_amp_cond2,3.0.4,59.98641742836463,
focomotive,&&&&&&&&&&,right,nonword,,,,,,,,0,183,183,26,,,,,,,,,,,,,,,,,,,,,LDT,right,1.5339467824960593,1,,,right,1,1.5339467824960593,,,,,,,,,,,,,,,,,,,,,,1054,2019_Mar_13_1242,mf_amp_cond2,3.0.4,59.98641742836463,
frojecting,&&&&&&&&&&,right,nonword,,,,,,,,0,184,184,36,,,,,,,,,,,,,,,,,,,,,LDT,right,1.9007170626719017,1,,,right,1,1.9007170626719017,,,,,,,,,,,,,,,,,,,,,,1054,2019_Mar_13_1242,mf_amp_cond2,3.0.4,59.98641742836463,
sickyay,&&&&&&&,right,nonword,,,,,,,,0,185,185,195,,,,,,,,,,,,,,,,,,,,,LDT,left,0.7837606053508352,0,,,left,0,0.7837606053508352,,,,,,,,,,,,,,,,,,,,,,1054,2019_Mar_13_1242,mf_amp_cond2,3.0.4,59.98641742836463,
protect,&&&&&&&,left,fairness.virtue,,,,,,,,0,186,186,83,,,,,,,,,,,,,,,,,,,,,LDT,right,0.7504530150617938,0,,,right,0,0.7504530150617938,,,,,,,,,,,,,,,,,,,,,,1054,2019_Mar_13_1242,mf_amp_cond2,3.0.4,59.98641742836463,
imebreaker,&&&&&&&&&&,right,nonword,,,,,,,,0,187,187,138,,,,,,,,,,,,,,,,,,,,,LDT,left,1.1005257219367195,0,,,left,0,1.1005257219367195,,,,,,,,,,,,,,,,,,,,,,1054,2019_Mar_13_1242,mf_amp_cond2,3.0.4,59.98641742836463,
noone,&&&&&,left,neutral,,,,,,,,0,188,188,10,,,,,,,,,,,,,,,,,,,,,LDT,left,1.1672018391254824,1,,,left,1,1.1672018391254824,,,,,,,,,,,,,,,,,,,,,,1054,2019_Mar_13_1242,mf_amp_cond2,3.0.4,59.98641742836463,
totalestic,&&&&&&&&&&,None,nonword,,,,,,,,0,189,189,19,,,,,,,,,,,,,,,,,,,,,LDT,left,1.6006338041333947,0,,,left,0,1.6006338041333947,,,,,,,,,,,,,,,,,,,,,,1054,2019_Mar_13_1242,mf_amp_cond2,3.0.4,59.98641742836463,
were,&&&&,left,neutral,,,,,,,,0,190,190,14,,,,,,,,,,,,,,,,,,,,,LDT,right,0.7004106481326744,0,,,right,0,0.7004106481326744,,,,,,,,,,,,,,,,,,,,,,1054,2019_Mar_13_1242,mf_amp_cond2,3.0.4,59.98641742836463,
thabbily,&&&&&&&&,right,nonword,,,,,,,,0,191,191,39,,,,,,,,,,,,,,,,,,,,,LDT,left,4.901444773218827,0,,,left,0,4.901444773218827,,,,,,,,,,,,,,,,,,,,,,1054,2019_Mar_13_1242,mf_amp_cond2,3.0.4,59.98641742836463,
prison,&&&&&&,left,fairness.vice,,,,,,,,0,192,192,29,,,,,,,,,,,,,,,,,,,,,LDT,right,0.7670973490166944,0,,,right,0,0.7670973490166944,,,,,,,,,,,,,,,,,,,,,,1054,2019_Mar_13_1242,mf_amp_cond2,3.0.4,59.98641742836463,
gusinesslike,&&&&&&&&&&&&,right,nonword,,,,,,,,0,193,193,60,,,,,,,,,,,,,,,,,,,,,LDT,right,3.9513235736521892,1,,,right,1,3.9513235736521892,,,,,,,,,,,,,,,,,,,,,,1054,2019_Mar_13_1242,mf_amp_cond2,3.0.4,59.98641742836463,
ecgagement,&&&&&&&&&&,None,nonword,,,,,,,,0,194,194,104,,,,,,,,,,,,,,,,,,,,,LDT,right,0.617070953885559,0,,,right,0,0.617070953885559,,,,,,,,,,,,,,,,,,,,,,1054,2019_Mar_13_1242,mf_amp_cond2,3.0.4,59.98641742836463,
dignity,&&&&&&&,left,sanctity.virtue,,,,,,,,0,195,195,125,,,,,,,,,,,,,,,,,,,,,LDT,right,0.5837194250780158,0,,,right,0,0.5837194250780158,,,,,,,,,,,,,,,,,,,,,,1054,2019_Mar_13_1242,mf_amp_cond2,3.0.4,59.98641742836463,
safety,&&&&&&,left,care.virtue,,,,,,,,0,196,196,193,,,,,,,,,,,,,,,,,,,,,LDT,right,0.6337428696278948,0,,,right,0,0.6337428696278948,,,,,,,,,,,,,,,,,,,,,,1054,2019_Mar_13_1242,mf_amp_cond2,3.0.4,59.98641742836463,
couldnt,&&&&&&&,left,neutral,,,,,,,,0,197,197,69,,,,,,,,,,,,,,,,,,,,,LDT,right,0.8171191899455152,0,,,right,0,0.8171191899455152,,,,,,,,,,,,,,,,,,,,,,1054,2019_Mar_13_1242,mf_amp_cond2,3.0.4,59.98641742836463,
Lacedonia,&&&&&&&&&,right,nonword,,,,,,,,0,198,198,8,,,,,,,,,,,,,,,,,,,,,LDT,left,0.7170905818638857,0,,,left,0,0.7170905818638857,,,,,,,,,,,,,,,,,,,,,,1054,2019_Mar_13_1242,mf_amp_cond2,3.0.4,59.98641742836463,
ilportation,&&&&&&&&&&&,right,nonword,,,,,,,,0,199,199,141,,,,,,,,,,,,,,,,,,,,,LDT,right,0.600393585889833,1,,,right,1,0.600393585889833,,,,,,,,,,,,,,,,,,,,,,1054,2019_Mar_13_1242,mf_amp_cond2,3.0.4,59.98641742836463,
,,,,,,,,,,,,,,,,,,,,,,,,,,,,,,,,,,,,,,,,,,,,1,7.487,,,,,,,,,,,,,,,,,,,,1054,2019_Mar_13_1242,mf_amp_cond2,3.0.4,59.98641742836463,
,,,,,,,,,,,,,,,,,,,,,,,,,,,,,,,,,,,,,,,,,,,,,,right,1.2005472742312122,,,,,,,,,,,,,,,,,,1054,2019_Mar_13_1242,mf_amp_cond2,3.0.4,59.98641742836463,
banana,&&&&&&,,,kacket,,,,,,,,,,,0,0,0,1,,,,,,,,,,,,,,,,,AMP_prac,left,3.0676536675309762,,,,,,,,,,,left,3.0676536675309762,,,,,,,,,,,,,,,,1054,2019_Mar_13_1242,mf_amp_cond2,3.0.4,59.98641742836463,
car,&&&&&&&&,,,cemtuper,,,,,,,,,,,0,1,1,0,,,,,,,,,,,,,,,,,AMP_prac,right,2.584249893698143,,,,,,,,,,,right,2.584249893698143,,,,,,,,,,,,,,,,1054,2019_Mar_13_1242,mf_amp_cond2,3.0.4,59.98641742836463,
scarf,&&&&&&&&,,,bisebell,,,,,,,,,,,0,2,2,3,,,,,,,,,,,,,,,,,AMP_prac,right,3.6677669453492854,,,,,,,,,,,right,3.6677669453492854,,,,,,,,,,,,,,,,1054,2019_Mar_13_1242,mf_amp_cond2,3.0.4,59.98641742836463,
keyboard,&&&&,,,senk,,,,,,,,,,,0,3,3,2,,,,,,,,,,,,,,,,,AMP_prac,left,1.0004746635386255,,,,,,,,,,,left,1.0004746635386255,,,,,,,,,,,,,,,,1054,2019_Mar_13_1242,mf_amp_cond2,3.0.4,59.98641742836463,
,,,,,,,,,,,,,,,,,,,,,,,,,,,,,,,,,,,,,,,,,,,,,,,,,,right,1.5006173833389767,,,,,,,,,,,,,,1054,2019_Mar_13_1242,mf_amp_cond2,3.0.4,59.98641742836463,
ensure,&&&&&&&&&&&,left,fairness.virtue,ronviolence,,,,,,,,,,,,,,,0,0,0,0,,,,,,,,,,,,,AMP,right,1.7840232739108615,0,,,,,,,,,,,,,,right,0,1.7840232739108615,,,,,,,,,,,1054,2019_Mar_13_1242,mf_amp_cond2,3.0.4,59.98641742836463,
menizen,&&&&&&&&&&&,None,nonword,blunderints,,,,,,,,,,,,,,,0,1,1,7,,,,,,,,,,,,,AMP,left,1.4672921535093337,0,,,,,,,,,,,,,,left,0,1.4672921535093337,,,,,,,,,,,1054,2019_Mar_13_1242,mf_amp_cond2,3.0.4,59.98641742836463,
threatened,&&&&&&&&&&,right,fairness.vice,clattening,,,,,,,,,,,,,,,0,2,2,87,,,,,,,,,,,,,AMP,left,3.867849498288706,0,,,,,,,,,,,,,,left,0,3.867849498288706,,,,,,,,,,,1054,2019_Mar_13_1242,mf_amp_cond2,3.0.4,59.98641742836463,
integrity,&&&&&&&&,left,fairness.virtue,perified,,,,,,,,,,,,,,,0,3,3,34,,,,,,,,,,,,,AMP,right,1.3172089911531657,0,,,,,,,,,,,,,,right,0,1.3172089911531657,,,,,,,,,,,1054,2019_Mar_13_1242,mf_amp_cond2,3.0.4,59.98641742836463,
conspiracy,&&&&&&&&&&,right,sanctity.vice,simplustic,,,,,,,,,,,,,,,0,4,4,155,,,,,,,,,,,,,AMP,right,3.63447122159414,1,,,,,,,,,,,,,,right,1,3.63447122159414,,,,,,,,,,,1054,2019_Mar_13_1242,mf_amp_cond2,3.0.4,59.98641742836463,
praised,&&&&&&&&,left,loyalty.virtue,thadowed,,,,,,,,,,,,,,,0,5,5,170,,,,,,,,,,,,,AMP,left,1.7173561368545052,1,,,,,,,,,,,,,,left,1,1.7173561368545052,,,,,,,,,,,1054,2019_Mar_13_1242,mf_amp_cond2,3.0.4,59.98641742836463,
growth,&&&&&&&&&&&,left,care.virtue,fornicalion,,,,,,,,,,,,,,,0,6,6,231,,,,,,,,,,,,,AMP,right,3.2010613862075843,0,,,,,,,,,,,,,,right,0,3.2010613862075843,,,,,,,,,,,1054,2019_Mar_13_1242,mf_amp_cond2,3.0.4,59.98641742836463,
officers,&&&&&&&&&&,right,authority.vice,honstables,,,,,,,,,,,,,,,0,7,7,142,,,,,,,,,,,,,AMP,right,4.851434478157898,1,,,,,,,,,,,,,,right,1,4.851434478157898,,,,,,,,,,,1054,2019_Mar_13_1242,mf_amp_cond2,3.0.4,59.98641742836463,
perfect,&&&&&&&,left,sanctity.virtue,nomaric,,,,,,,,,,,,,,,0,8,8,138,,,,,,,,,,,,,AMP,left,3.6511145934055094,1,,,,,,,,,,,,,,left,1,3.6511145934055094,,,,,,,,,,,1054,2019_Mar_13_1242,mf_amp_cond2,3.0.4,59.98641742836463,
racist,&&&&&&&&,right,sanctity.vice,clamorek,,,,,,,,,,,,,,,0,9,9,287,,,,,,,,,,,,,AMP,left,2.4008296348911244,0,,,,,,,,,,,,,,left,0,2.4008296348911244,,,,,,,,,,,1054,2019_Mar_13_1242,mf_amp_cond2,3.0.4,59.98641742836463,
pleasant,&&&&,None,control,alar,,,,,,,,,,,,,,,0,10,10,313,,,,,,,,,,,,,AMP,right,1.4672895877156407,0,,,,,,,,,,,,,,right,0,1.4672895877156407,,,,,,,,,,,1054,2019_Mar_13_1242,mf_amp_cond2,3.0.4,59.98641742836463,
crime,&&&&&&&,right,fairness.vice,chreams,,,,,,,,,,,,,,,0,11,11,258,,,,,,,,,,,,,AMP,left,2.200776908779517,0,,,,,,,,,,,,,,left,0,2.200776908779517,,,,,,,,,,,1054,2019_Mar_13_1242,mf_amp_cond2,3.0.4,59.98641742836463,
strong,&&&&&,left,loyalty.virtue,tabin,,,,,,,,,,,,,,,0,12,12,136,,,,,,,,,,,,,AMP,left,3.6511222906410694,1,,,,,,,,,,,,,,left,1,3.6511222906410694,,,,,,,,,,,1054,2019_Mar_13_1242,mf_amp_cond2,3.0.4,59.98641742836463,
party,&&&&&&&&&&&,left,loyalty.virtue,ronviolence,,,,,,,,,,,,,,,0,13,13,109,,,,,,,,,,,,,AMP,right,3.5510962482949253,0,,,,,,,,,,,,,,right,0,3.5510962482949253,,,,,,,,,,,1054,2019_Mar_13_1242,mf_amp_cond2,3.0.4,59.98641742836463,
praised,&&&&&&&&&,left,loyalty.virtue,seachwear,,,,,,,,,,,,,,,0,14,14,65,,,,,,,,,,,,,AMP,left,3.3675900369416922,1,,,,,,,,,,,,,,left,1,3.3675900369416922,,,,,,,,,,,1054,2019_Mar_13_1242,mf_amp_cond2,3.0.4,59.98641742836463,
fear,&&&&&&&&&&&,right,sanctity.vice,hefurbished,,,,,,,,,,,,,,,0,15,15,112,,,,,,,,,,,,,AMP,left,2.4341763529228047,0,,,,,,,,,,,,,,left,0,2.4341763529228047,,,,,,,,,,,1054,2019_Mar_13_1242,mf_amp_cond2,3.0.4,59.98641742836463,
pharing,&&&&&&&,None,nonword,hatigue,,,,,,,,,,,,,,,0,16,16,318,,,,,,,,,,,,,AMP,left,1.9340477447258309,0,,,,,,,,,,,,,,left,0,1.9340477447258309,,,,,,,,,,,1054,2019_Mar_13_1242,mf_amp_cond2,3.0.4,59.98641742836463,
celebrated,&&&&,left,authority.virtue,wump,,,,,,,,,,,,,,,0,17,17,164,,,,,,,,,,,,,AMP,right,1.0671469321241602,0,,,,,,,,,,,,,,right,0,1.0671469321241602,,,,,,,,,,,1054,2019_Mar_13_1242,mf_amp_cond2,3.0.4,59.98641742836463,
encourage,&&&&&&&&&&&&,left,authority.virtue,bruthfulness,,,,,,,,,,,,,,,0,18,18,209,,,,,,,,,,,,,AMP,left,4.651385600649519,1,,,,,,,,,,,,,,left,1,4.651385600649519,,,,,,,,,,,1054,2019_Mar_13_1242,mf_amp_cond2,3.0.4,59.98641742836463,
strong,&&&&&&&,left,loyalty.virtue,carvels,,,,,,,,,,,,,,,0,19,19,228,,,,,,,,,,,,,AMP,right,3.717823423881782,0,,,,,,,,,,,,,,right,0,3.717823423881782,,,,,,,,,,,1054,2019_Mar_13_1242,mf_amp_cond2,3.0.4,59.98641742836463,
serial,&&&&&&,right,sanctity.vice,forepo,,,,,,,,,,,,,,,0,20,20,137,,,,,,,,,,,,,AMP,left,1.7840296882786788,0,,,,,,,,,,,,,,left,0,1.7840296882786788,,,,,,,,,,,1054,2019_Mar_13_1242,mf_amp_cond2,3.0.4,59.98641742836463,
pistraught,&&&&&&&,None,nonword,carvels,,,,,,,,,,,,,,,0,21,21,281,,,,,,,,,,,,,AMP,left,2.500838679174194,0,,,,,,,,,,,,,,left,0,2.500838679174194,,,,,,,,,,,1054,2019_Mar_13_1242,mf_amp_cond2,3.0.4,59.98641742836463,
critics,&&&&&&&&,right,loyalty.vice,gowlands,,,,,,,,,,,,,,,0,22,22,264,,,,,,,,,,,,,AMP,left,4.618044334842125,0,,,,,,,,,,,,,,left,0,4.618044334842125,,,,,,,,,,,1054,2019_Mar_13_1242,mf_amp_cond2,3.0.4,59.98641742836463,
interests,&&&&&&&&&&,left,fairness.virtue,neutralust,,,,,,,,,,,,,,,0,23,23,255,,,,,,,,,,,,,AMP,right,2.7842525877058506,0,,,,,,,,,,,,,,right,0,2.7842525877058506,,,,,,,,,,,1054,2019_Mar_13_1242,mf_amp_cond2,3.0.4,59.98641742836463,
support,&&&&&&&&,left,loyalty.virtue,framatic,,,,,,,,,,,,,,,0,24,24,51,,,,,,,,,,,,,AMP,left,6.518496804696042,1,,,,,,,,,,,,,,left,1,6.518496804696042,,,,,,,,,,,1054,2019_Mar_13_1242,mf_amp_cond2,3.0.4,59.98641742836463,
hate,&&&&&&&&&&&&&,right,fairness.vice,wonderfujnoss,,,,,,,,,,,,,,,0,25,25,29,,,,,,,,,,,,,AMP,left,1.6839981937082484,0,,,,,,,,,,,,,,left,0,1.6839981937082484,,,,,,,,,,,1054,2019_Mar_13_1242,mf_amp_cond2,3.0.4,59.98641742836463,
fighters,&&&&&&&&,right,authority.vice,clamorek,,,,,,,,,,,,,,,0,26,26,111,,,,,,,,,,,,,AMP,left,1.3005441311979666,0,,,,,,,,,,,,,,left,0,1.3005441311979666,,,,,,,,,,,1054,2019_Mar_13_1242,mf_amp_cond2,3.0.4,59.98641742836463,
unpleasant,&&&&&&&,None,control,allears,,,,,,,,,,,,,,,0,27,27,121,,,,,,,,,,,,,AMP,left,2.834271221450763,0,,,,,,,,,,,,,,left,0,2.834271221450763,,,,,,,,,,,1054,2019_Mar_13_1242,mf_amp_cond2,3.0.4,59.98641742836463,
values,&&&&&&&&&,left,sanctity.virtue,gandbrake,,,,,,,,,,,,,,,0,28,28,307,,,,,,,,,,,,,AMP,right,2.7842525877058506,0,,,,,,,,,,,,,,right,0,2.7842525877058506,,,,,,,,,,,1054,2019_Mar_13_1242,mf_amp_cond2,3.0.4,59.98641742836463,
pistraught,&&&&&&&,None,nonword,hatigue,,,,,,,,,,,,,,,0,29,29,19,,,,,,,,,,,,,AMP,left,1.1338727606635075,0,,,,,,,,,,,,,,left,0,1.1338727606635075,,,,,,,,,,,1054,2019_Mar_13_1242,mf_amp_cond2,3.0.4,59.98641742836463,
men,&&&&&&,right,loyalty.vice,Cunday,,,,,,,,,,,,,,,0,30,30,220,,,,,,,,,,,,,AMP,left,3.1510033040249255,0,,,,,,,,,,,,,,left,0,3.1510033040249255,,,,,,,,,,,1054,2019_Mar_13_1242,mf_amp_cond2,3.0.4,59.98641742836463,
fighters,&&&&&&&,right,authority.vice,Loorish,,,,,,,,,,,,,,,0,31,31,185,,,,,,,,,,,,,AMP,left,3.100988839636557,0,,,,,,,,,,,,,,left,0,3.100988839636557,,,,,,,,,,,1054,2019_Mar_13_1242,mf_amp_cond2,3.0.4,59.98641742836463,
accused,&&&&&&,right,fairness.vice,antral,,,,,,,,,,,,,,,0,32,32,36,,,,,,,,,,,,,AMP,left,0.9671513580251485,0,,,,,,,,,,,,,,left,0,0.9671513580251485,,,,,,,,,,,1054,2019_Mar_13_1242,mf_amp_cond2,3.0.4,59.98641742836463,
hate,&&&&&,right,fairness.vice,scock,,,,,,,,,,,,,,,0,33,33,270,,,,,,,,,,,,,AMP,left,2.3841509840567596,0,,,,,,,,,,,,,,left,0,2.3841509840567596,,,,,,,,,,,1054,2019_Mar_13_1242,mf_amp_cond2,3.0.4,59.98641742836463,
perfect,&&&&,left,sanctity.virtue,wump,,,,,,,,,,,,,,,0,34,34,303,,,,,,,,,,,,,AMP,right,2.2174613325623795,0,,,,,,,,,,,,,,right,0,2.2174613325623795,,,,,,,,,,,1054,2019_Mar_13_1242,mf_amp_cond2,3.0.4,59.98641742836463,
ban,&&&&,right,loyalty.vice,alar,,,,,,,,,,,,,,,0,35,35,122,,,,,,,,,,,,,AMP,left,1.1671883689414244,0,,,,,,,,,,,,,,left,0,1.1671883689414244,,,,,,,,,,,1054,2019_Mar_13_1242,mf_amp_cond2,3.0.4,59.98641742836463,
safe,&&&&&&,left,care.virtue,chared,,,,,,,,,,,,,,,0,36,36,180,,,,,,,,,,,,,AMP,right,0.7004161003278568,0,,,,,,,,,,,,,,right,0,0.7004161003278568,,,,,,,,,,,1054,2019_Mar_13_1242,mf_amp_cond2,3.0.4,59.98641742836463,
improve,&&&&&&&&&&&&&,left,care.virtue,wonderfujnoss,,,,,,,,,,,,,,,0,37,37,248,,,,,,,,,,,,,AMP,right,0.46701858050073497,0,,,,,,,,,,,,,,right,0,0.46701858050073497,,,,,,,,,,,1054,2019_Mar_13_1242,mf_amp_cond2,3.0.4,59.98641742836463,
integrity,&&&&,left,fairness.virtue,yane,,,,,,,,,,,,,,,0,38,38,225,,,,,,,,,,,,,AMP,left,2.1339446016354486,1,,,,,,,,,,,,,,left,1,2.1339446016354486,,,,,,,,,,,1054,2019_Mar_13_1242,mf_amp_cond2,3.0.4,59.98641742836463,
gondensed,&&&&,None,nonword,alar,,,,,,,,,,,,,,,0,39,39,234,,,,,,,,,,,,,AMP,left,4.868096451624297,0,,,,,,,,,,,,,,left,0,4.868096451624297,,,,,,,,,,,1054,2019_Mar_13_1242,mf_amp_cond2,3.0.4,59.98641742836463,
rejected,&&&&&&&,right,authority.vice,smapper,,,,,,,,,,,,,,,0,40,40,91,,,,,,,,,,,,,AMP,left,1.267211845552083,0,,,,,,,,,,,,,,left,0,1.267211845552083,,,,,,,,,,,1054,2019_Mar_13_1242,mf_amp_cond2,3.0.4,59.98641742836463,
opportunity,&&&&&&,left,fairness.virtue,gikely,,,,,,,,,,,,,,,0,41,41,33,,,,,,,,,,,,,AMP,right,0.7337541589222383,0,,,,,,,,,,,,,,right,0,0.7337541589222383,,,,,,,,,,,1054,2019_Mar_13_1242,mf_amp_cond2,3.0.4,59.98641742836463,
injured,&&&&&&&,right,care.vice,Daptist,,,,,,,,,,,,,,,0,42,42,199,,,,,,,,,,,,,AMP,left,1.4006115462398157,0,,,,,,,,,,,,,,left,0,1.4006115462398157,,,,,,,,,,,1054,2019_Mar_13_1242,mf_amp_cond2,3.0.4,59.98641742836463,
serial,&&&&&&,right,sanctity.vice,gikely,,,,,,,,,,,,,,,0,43,43,194,,,,,,,,,,,,,AMP,left,4.78475579523365,0,,,,,,,,,,,,,,left,0,4.78475579523365,,,,,,,,,,,1054,2019_Mar_13_1242,mf_amp_cond2,3.0.4,59.98641742836463,
violations,&&&&&&&&&&,right,sanctity.vice,ejanulated,,,,,,,,,,,,,,,0,44,44,54,,,,,,,,,,,,,AMP,left,3.384392485197168,0,,,,,,,,,,,,,,left,0,3.384392485197168,,,,,,,,,,,1054,2019_Mar_13_1242,mf_amp_cond2,3.0.4,59.98641742836463,
death,&&&&&&&,right,care.vice,nomaric,,,,,,,,,,,,,,,0,45,45,272,,,,,,,,,,,,,AMP,left,1.2005328419036232,0,,,,,,,,,,,,,,left,0,1.2005328419036232,,,,,,,,,,,1054,2019_Mar_13_1242,mf_amp_cond2,3.0.4,59.98641742836463,
praise,&&&&&&&,left,authority.virtue,smapper,,,,,,,,,,,,,,,0,46,46,31,,,,,,,,,,,,,AMP,right,1.5839881872816477,0,,,,,,,,,,,,,,right,0,1.5839881872816477,,,,,,,,,,,1054,2019_Mar_13_1242,mf_amp_cond2,3.0.4,59.98641742836463,
growth,&&&&&&&&&&,left,care.virtue,ammessment,,,,,,,,,,,,,,,0,47,47,247,,,,,,,,,,,,,AMP,left,1.0338258715928532,1,,,,,,,,,,,,,,left,1,1.0338258715928532,,,,,,,,,,,1054,2019_Mar_13_1242,mf_amp_cond2,3.0.4,59.98641742836463,
ensure,&&&&&&&&,left,fairness.virtue,divility,,,,,,,,,,,,,,,0,48,48,219,,,,,,,,,,,,,AMP,right,0.6670748345495667,0,,,,,,,,,,,,,,right,0,0.6670748345495667,,,,,,,,,,,1054,2019_Mar_13_1242,mf_amp_cond2,3.0.4,59.98641742836463,
faith,&&&&&&&&&&&&,left,sanctity.virtue,bruthfulness,,,,,,,,,,,,,,,0,49,49,153,,,,,,,,,,,,,AMP,left,0.7837747169833165,1,,,,,,,,,,,,,,left,1,0.7837747169833165,,,,,,,,,,,1054,2019_Mar_13_1242,mf_amp_cond2,3.0.4,59.98641742836463,
killed,&&&&&&&&&,right,care.vice,faspberry,,,,,,,,,,,,,,,0,50,50,237,,,,,,,,,,,,,AMP,left,1.9507389036298264,0,,,,,,,,,,,,,,left,0,1.9507389036298264,,,,,,,,,,,1054,2019_Mar_13_1242,mf_amp_cond2,3.0.4,59.98641742836463,
threatened,&&&&&,right,fairness.vice,pulge,,,,,,,,,,,,,,,0,51,51,265,,,,,,,,,,,,,AMP,left,2.9007940351439174,0,,,,,,,,,,,,,,left,0,2.9007940351439174,,,,,,,,,,,1054,2019_Mar_13_1242,mf_amp_cond2,3.0.4,59.98641742836463,
respect,&&&&&&&&,left,sanctity.virtue,sidearbs,,,,,,,,,,,,,,,0,52,52,41,,,,,,,,,,,,,AMP,right,1.1005080824543256,0,,,,,,,,,,,,,,right,0,1.1005080824543256,,,,,,,,,,,1054,2019_Mar_13_1242,mf_amp_cond2,3.0.4,59.98641742836463,
opportunity,&&&&&&&&&,left,fairness.virtue,chressing,,,,,,,,,,,,,,,0,53,53,161,,,,,,,,,,,,,AMP,right,0.7170546613633633,0,,,,,,,,,,,,,,right,0,0.7170546613633633,,,,,,,,,,,1054,2019_Mar_13_1242,mf_amp_cond2,3.0.4,59.98641742836463,
energy,&&&&&&&&&&,left,sanctity.virtue,galamitous,,,,,,,,,,,,,,,0,54,54,100,,,,,,,,,,,,,AMP,right,0.4170130962447729,0,,,,,,,,,,,,,,right,0,0.4170130962447729,,,,,,,,,,,1054,2019_Mar_13_1242,mf_amp_cond2,3.0.4,59.98641742836463,
hand,&&&&&&&&,left,sanctity.virtue,suggists,,,,,,,,,,,,,,,0,55,55,160,,,,,,,,,,,,,AMP,right,3.3177227823762223,0,,,,,,,,,,,,,,right,0,3.3177227823762223,,,,,,,,,,,1054,2019_Mar_13_1242,mf_amp_cond2,3.0.4,59.98641742836463,
slending,&&&&&&,None,nonword,forepo,,,,,,,,,,,,,,,0,56,56,288,,,,,,,,,,,,,AMP,left,0.6837419395451434,0,,,,,,,,,,,,,,left,0,0.6837419395451434,,,,,,,,,,,1054,2019_Mar_13_1242,mf_amp_cond2,3.0.4,59.98641742836463,
perfect,&&&&&&&&,left,sanctity.virtue,clamorek,,,,,,,,,,,,,,,0,57,57,18,,,,,,,,,,,,,AMP,right,0.5337187515688129,0,,,,,,,,,,,,,,right,0,0.5337187515688129,,,,,,,,,,,1054,2019_Mar_13_1242,mf_amp_cond2,3.0.4,59.98641742836463,
fair,&&&&&&&&,left,fairness.virtue,epigrach,,,,,,,,,,,,,,,0,58,58,271,,,,,,,,,,,,,AMP,right,1.2005379734036978,0,,,,,,,,,,,,,,right,0,1.2005379734036978,,,,,,,,,,,1054,2019_Mar_13_1242,mf_amp_cond2,3.0.4,59.98641742836463,
free,&&&&&&&,left,fairness.virtue,scalbel,,,,,,,,,,,,,,,0,59,59,212,,,,,,,,,,,,,AMP,right,0.3336365193245001,0,,,,,,,,,,,,,,right,0,0.3336365193245001,,,,,,,,,,,1054,2019_Mar_13_1242,mf_amp_cond2,3.0.4,59.98641742836463,
penalty,&&&&&&&&&,right,authority.vice,rivernoat,,,,,,,,,,,,,,,0,60,60,204,,,,,,,,,,,,,AMP,left,0.8337850120442454,0,,,,,,,,,,,,,,left,0,0.8337850120442454,,,,,,,,,,,1054,2019_Mar_13_1242,mf_amp_cond2,3.0.4,59.98641742836463,
hand,&&&&&&&,left,sanctity.virtue,stindig,,,,,,,,,,,,,,,0,61,61,28,,,,,,,,,,,,,AMP,right,0.5170384971424937,0,,,,,,,,,,,,,,right,0,0.5170384971424937,,,,,,,,,,,1054,2019_Mar_13_1242,mf_amp_cond2,3.0.4,59.98641742836463,
support,&&&&&,left,loyalty.virtue,atson,,,,,,,,,,,,,,,0,62,62,216,,,,,,,,,,,,,AMP,right,0.9171445908723399,0,,,,,,,,,,,,,,right,0,0.9171445908723399,,,,,,,,,,,1054,2019_Mar_13_1242,mf_amp_cond2,3.0.4,59.98641742836463,
sexual,&&&&&&&&,right,sanctity.vice,gowlands,,,,,,,,,,,,,,,0,63,63,157,,,,,,,,,,,,,AMP,right,0.9838165387045592,1,,,,,,,,,,,,,,right,1,0.9838165387045592,,,,,,,,,,,1054,2019_Mar_13_1242,mf_amp_cond2,3.0.4,59.98641742836463,
promised,&&&&&&&&&&&,left,loyalty.virtue,neneficence,,,,,,,,,,,,,,,0,64,64,317,,,,,,,,,,,,,AMP,right,1.6006212960928679,0,,,,,,,,,,,,,,right,0,1.6006212960928679,,,,,,,,,,,1054,2019_Mar_13_1242,mf_amp_cond2,3.0.4,59.98641742836463,
lorthwhile,&&&&&&&&,None,nonword,ebbitter,,,,,,,,,,,,,,,0,65,65,71,,,,,,,,,,,,,AMP,left,1.8173587667406537,0,,,,,,,,,,,,,,left,0,1.8173587667406537,,,,,,,,,,,1054,2019_Mar_13_1242,mf_amp_cond2,3.0.4,59.98641742836463,
oam,&&&&&&&,None,nonword,hatigue,,,,,,,,,,,,,,,0,66,66,189,,,,,,,,,,,,,AMP,left,2.9843142939789686,0,,,,,,,,,,,,,,left,0,2.9843142939789686,,,,,,,,,,,1054,2019_Mar_13_1242,mf_amp_cond2,3.0.4,59.98641742836463,
victims,&&&&&&&&&&,right,care.vice,simplustic,,,,,,,,,,,,,,,0,67,67,57,,,,,,,,,,,,,AMP,left,1.600666196725797,0,,,,,,,,,,,,,,left,0,1.600666196725797,,,,,,,,,,,1054,2019_Mar_13_1242,mf_amp_cond2,3.0.4,59.98641742836463,
celebrated,&&&&&&&,left,authority.virtue,emports,,,,,,,,,,,,,,,0,68,68,88,,,,,,,,,,,,,AMP,right,1.0004797950387,0,,,,,,,,,,,,,,right,0,1.0004797950387,,,,,,,,,,,1054,2019_Mar_13_1242,mf_amp_cond2,3.0.4,59.98641742836463,
fear,&&&&&&&,right,sanctity.vice,scalbel,,,,,,,,,,,,,,,0,69,69,13,,,,,,,,,,,,,AMP,left,0.45036943576997146,0,,,,,,,,,,,,,,left,0,0.45036943576997146,,,,,,,,,,,1054,2019_Mar_13_1242,mf_amp_cond2,3.0.4,59.98641742836463,
unpleasant,&&&&&&&&&&,None,control,clattening,,,,,,,,,,,,,,,0,70,70,62,,,,,,,,,,,,,AMP,left,0.5003534319112077,0,,,,,,,,,,,,,,left,0,0.5003534319112077,,,,,,,,,,,1054,2019_Mar_13_1242,mf_amp_cond2,3.0.4,59.98641742836463,
improve,&&&&&&&&,left,care.virtue,tracious,,,,,,,,,,,,,,,0,71,71,149,,,,,,,,,,,,,AMP,right,1.3504373639880214,0,,,,,,,,,,,,,,right,0,1.3504373639880214,,,,,,,,,,,1054,2019_Mar_13_1242,mf_amp_cond2,3.0.4,59.98641742836463,
free,&&&&&&&&,left,fairness.virtue,tracious,,,,,,,,,,,,,,,0,72,72,254,,,,,,,,,,,,,AMP,right,0.9004726750717964,0,,,,,,,,,,,,,,right,0,0.9004726750717964,,,,,,,,,,,1054,2019_Mar_13_1242,mf_amp_cond2,3.0.4,59.98641742836463,
police,&&&&&&&&&,right,authority.vice,pescinded,,,,,,,,,,,,,,,0,73,73,47,,,,,,,,,,,,,AMP,left,1.2005277104326524,0,,,,,,,,,,,,,,left,0,1.2005277104326524,,,,,,,,,,,1054,2019_Mar_13_1242,mf_amp_cond2,3.0.4,59.98641742836463,
lorthwhile,&&&&&&,None,nonword,gikely,,,,,,,,,,,,,,,0,74,74,304,,,,,,,,,,,,,AMP,right,0.5837210286990739,0,,,,,,,,,,,,,,right,0,0.5837210286990739,,,,,,,,,,,1054,2019_Mar_13_1242,mf_amp_cond2,3.0.4,59.98641742836463,
strong,&&&,left,loyalty.virtue,mih,,,,,,,,,,,,,,,0,75,75,78,,,,,,,,,,,,,AMP,left,1.0504859207721893,1,,,,,,,,,,,,,,left,1,1.0504859207721893,,,,,,,,,,,1054,2019_Mar_13_1242,mf_amp_cond2,3.0.4,59.98641742836463,
growth,&&&&&&&&&,left,care.virtue,discovars,,,,,,,,,,,,,,,0,76,76,37,,,,,,,,,,,,,AMP,right,0.7670899724762421,0,,,,,,,,,,,,,,right,0,0.7670899724762421,,,,,,,,,,,1054,2019_Mar_13_1242,mf_amp_cond2,3.0.4,59.98641742836463,
crime,&&&&&&&&&,right,fairness.vice,tomedians,,,,,,,,,,,,,,,0,77,77,81,,,,,,,,,,,,,AMP,left,0.5003633742162492,0,,,,,,,,,,,,,,left,0,0.5003633742162492,,,,,,,,,,,1054,2019_Mar_13_1242,mf_amp_cond2,3.0.4,59.98641742836463,
fair,&&&&&&&,left,fairness.virtue,Loorish,,,,,,,,,,,,,,,0,78,78,84,,,,,,,,,,,,,AMP,right,1.1671861239010468,0,,,,,,,,,,,,,,right,0,1.1671861239010468,,,,,,,,,,,1054,2019_Mar_13_1242,mf_amp_cond2,3.0.4,59.98641742836463,
restore,&&&&&&&,left,care.virtue,carvels,,,,,,,,,,,,,,,0,79,79,83,,,,,,,,,,,,,AMP,right,1.734001112257829,0,,,,,,,,,,,,,,right,0,1.734001112257829,,,,,,,,,,,1054,2019_Mar_13_1242,mf_amp_cond2,3.0.4,59.98641742836463,
killed,&&&&&,right,care.vice,pulge,,,,,,,,,,,,,,,0,80,80,53,,,,,,,,,,,,,AMP,left,0.4337161216826644,0,,,,,,,,,,,,,,left,0,0.4337161216826644,,,,,,,,,,,1054,2019_Mar_13_1242,mf_amp_cond2,3.0.4,59.98641742836463,
injured,&&&&&&,right,care.vice,prones,,,,,,,,,,,,,,,0,81,81,315,,,,,,,,,,,,,AMP,left,1.0504990702320356,0,,,,,,,,,,,,,,left,0,1.0504990702320356,,,,,,,,,,,1054,2019_Mar_13_1242,mf_amp_cond2,3.0.4,59.98641742836463,
praised,&&&&&&&&,left,loyalty.virtue,nuckheap,,,,,,,,,,,,,,,0,82,82,150,,,,,,,,,,,,,AMP,left,1.433944794087438,1,,,,,,,,,,,,,,left,1,1.433944794087438,,,,,,,,,,,1054,2019_Mar_13_1242,mf_amp_cond2,3.0.4,59.98641742836463,
corruption,&&&&&&&&&,right,sanctity.vice,unscothed,,,,,,,,,,,,,,,0,83,83,211,,,,,,,,,,,,,AMP,left,0.9671635453414638,0,,,,,,,,,,,,,,left,0,0.9671635453414638,,,,,,,,,,,1054,2019_Mar_13_1242,mf_amp_cond2,3.0.4,59.98641742836463,
troops,&&&&&&&,right,loyalty.vice,gedious,,,,,,,,,,,,,,,0,84,84,40,,,,,,,,,,,,,AMP,left,2.1174506846873555,0,,,,,,,,,,,,,,left,0,2.1174506846873555,,,,,,,,,,,1054,2019_Mar_13_1242,mf_amp_cond2,3.0.4,59.98641742836463,
suicide,&&&&&,right,care.vice,saned,,,,,,,,,,,,,,,0,85,85,21,,,,,,,,,,,,,AMP,left,0.5837203872506507,0,,,,,,,,,,,,,,left,0,0.5837203872506507,,,,,,,,,,,1054,2019_Mar_13_1242,mf_amp_cond2,3.0.4,59.98641742836463,
officers,&&&&&&&&&,right,authority.vice,brotesque,,,,,,,,,,,,,,,0,86,86,32,,,,,,,,,,,,,AMP,left,1.4005791536765173,0,,,,,,,,,,,,,,left,0,1.4005791536765173,,,,,,,,,,,1054,2019_Mar_13_1242,mf_amp_cond2,3.0.4,59.98641742836463,
opportunity,&&&&&,left,fairness.virtue,ablow,,,,,,,,,,,,,,,0,87,87,195,,,,,,,,,,,,,AMP,right,1.233893671509577,0,,,,,,,,,,,,,,right,0,1.233893671509577,,,,,,,,,,,1054,2019_Mar_13_1242,mf_amp_cond2,3.0.4,59.98641742836463,
corruption,&&&&,right,sanctity.vice,yane,,,,,,,,,,,,,,,0,88,88,290,,,,,,,,,,,,,AMP,left,0.5670093437947799,0,,,,,,,,,,,,,,left,0,0.5670093437947799,,,,,,,,,,,1054,2019_Mar_13_1242,mf_amp_cond2,3.0.4,59.98641742836463,
blamed,&&&&&&&&&&&,right,loyalty.vice,hefurbished,,,,,,,,,,,,,,,0,89,89,322,,,,,,,,,,,,,AMP,left,1.5504673190880567,0,,,,,,,,,,,,,,left,0,1.5504673190880567,,,,,,,,,,,1054,2019_Mar_13_1242,mf_amp_cond2,3.0.4,59.98641742836463,
ensure,&&&&&&&&&,left,fairness.virtue,crilfully,,,,,,,,,,,,,,,0,90,90,294,,,,,,,,,,,,,AMP,right,5.351548974693287,0,,,,,,,,,,,,,,right,0,5.351548974693287,,,,,,,,,,,1054,2019_Mar_13_1242,mf_amp_cond2,3.0.4,59.98641742836463,
racist,&&&&&&&,right,sanctity.vice,emports,,,,,,,,,,,,,,,0,91,91,224,,,,,,,,,,,,,AMP,left,0.400331879616715,0,,,,,,,,,,,,,,left,0,0.400331879616715,,,,,,,,,,,1054,2019_Mar_13_1242,mf_amp_cond2,3.0.4,59.98641742836463,
values,&&&&&&&,left,sanctity.virtue,festate,,,,,,,,,,,,,,,0,92,92,218,,,,,,,,,,,,,AMP,right,1.683981195645174,0,,,,,,,,,,,,,,right,0,1.683981195645174,,,,,,,,,,,1054,2019_Mar_13_1242,mf_amp_cond2,3.0.4,59.98641742836463,
credit,&&&&&&&&,left,fairness.virtue,sfumatoy,,,,,,,,,,,,,,,0,93,93,181,,,,,,,,,,,,,AMP,right,1.2172053990943823,0,,,,,,,,,,,,,,right,0,1.2172053990943823,,,,,,,,,,,1054,2019_Mar_13_1242,mf_amp_cond2,3.0.4,59.98641742836463,
gun,&&&&,right,authority.vice,wump,,,,,,,,,,,,,,,0,94,94,128,,,,,,,,,,,,,AMP,left,0.3503215845557861,0,,,,,,,,,,,,,,left,0,0.3503215845557861,,,,,,,,,,,1054,2019_Mar_13_1242,mf_amp_cond2,3.0.4,59.98641742836463,
arrests,&&&&&&&&,right,authority.vice,thadowed,,,,,,,,,,,,,,,0,95,95,127,,,,,,,,,,,,,AMP,left,1.0171610116376542,0,,,,,,,,,,,,,,left,0,1.0171610116376542,,,,,,,,,,,1054,2019_Mar_13_1242,mf_amp_cond2,3.0.4,59.98641742836463,
support,&&&&&&&&&,left,loyalty.virtue,rivernoat,,,,,,,,,,,,,,,0,96,96,282,,,,,,,,,,,,,AMP,left,1.1170420891721733,1,,,,,,,,,,,,,,left,1,1.1170420891721733,,,,,,,,,,,1054,2019_Mar_13_1242,mf_amp_cond2,3.0.4,59.98641742836463,
care,&&&&&&&&&&,left,care.virtue,galamitous,,,,,,,,,,,,,,,0,97,97,43,,,,,,,,,,,,,AMP,right,0.5003643363597803,0,,,,,,,,,,,,,,right,0,0.5003643363597803,,,,,,,,,,,1054,2019_Mar_13_1242,mf_amp_cond2,3.0.4,59.98641742836463,
compassion,&&&&&&&&&,left,care.virtue,gandbrake,,,,,,,,,,,,,,,0,98,98,162,,,,,,,,,,,,,AMP,right,0.7670944625278935,0,,,,,,,,,,,,,,right,0,0.7670944625278935,,,,,,,,,,,1054,2019_Mar_13_1242,mf_amp_cond2,3.0.4,59.98641742836463,
increase,&&&&&&&&&,left,care.virtue,faspberry,,,,,,,,,,,,,,,0,99,99,256,,,,,,,,,,,,,AMP,right,0.4503979797300417,0,,,,,,,,,,,,,,right,0,0.4503979797300417,,,,,,,,,,,1054,2019_Mar_13_1242,mf_amp_cond2,3.0.4,59.98641742836463,
blamed,&&&&&&&&&&&,right,loyalty.vice,shoirmaster,,,,,,,,,,,,,,,0,100,100,96,,,,,,,,,,,,,AMP,left,0.8504729637352284,0,,,,,,,,,,,,,,left,0,0.8504729637352284,,,,,,,,,,,1054,2019_Mar_13_1242,mf_amp_cond2,3.0.4,59.98641742836463,
energy,&&&&&&&,left,sanctity.virtue,smapper,,,,,,,,,,,,,,,0,101,101,232,,,,,,,,,,,,,AMP,right,0.7837557945749722,0,,,,,,,,,,,,,,right,0,0.7837557945749722,,,,,,,,,,,1054,2019_Mar_13_1242,mf_amp_cond2,3.0.4,59.98641742836463,
lies,&&&&&&&&,right,fairness.vice,proached,,,,,,,,,,,,,,,0,102,102,217,,,,,,,,,,,,,AMP,left,1.667322108609369,0,,,,,,,,,,,,,,left,0,1.667322108609369,,,,,,,,,,,1054,2019_Mar_13_1242,mf_amp_cond2,3.0.4,59.98641742836463,
pleasant,&&&&&&&,None,control,nackers,,,,,,,,,,,,,,,0,103,103,56,,,,,,,,,,,,,AMP,right,2.367488689837046,0,,,,,,,,,,,,,,right,0,2.367488689837046,,,,,,,,,,,1054,2019_Mar_13_1242,mf_amp_cond2,3.0.4,59.98641742836463,
hate,&&&&&&&,right,fairness.vice,stindig,,,,,,,,,,,,,,,0,104,104,202,,,,,,,,,,,,,AMP,left,0.5170247062342241,0,,,,,,,,,,,,,,left,0,0.5170247062342241,,,,,,,,,,,1054,2019_Mar_13_1242,mf_amp_cond2,3.0.4,59.98641742836463,
corruption,&&&&&&&&&,right,sanctity.vice,unscothed,,,,,,,,,,,,,,,0,105,105,101,,,,,,,,,,,,,AMP,left,0.5503252407361288,0,,,,,,,,,,,,,,left,0,0.5503252407361288,,,,,,,,,,,1054,2019_Mar_13_1242,mf_amp_cond2,3.0.4,59.98641742836463,
rejected,&&&&&,right,authority.vice,saned,,,,,,,,,,,,,,,0,106,106,168,,,,,,,,,,,,,AMP,left,0.5670683560601901,0,,,,,,,,,,,,,,left,0,0.5670683560601901,,,,,,,,,,,1054,2019_Mar_13_1242,mf_amp_cond2,3.0.4,59.98641742836463,
serial,&&&&&&&&&,right,sanctity.vice,discovars,,,,,,,,,,,,,,,0,107,107,309,,,,,,,,,,,,,AMP,left,0.4503655871376395,0,,,,,,,,,,,,,,left,0,0.4503655871376395,,,,,,,,,,,1054,2019_Mar_13_1242,mf_amp_cond2,3.0.4,59.98641742836463,
corruption,&&&&&&&&,right,sanctity.vice,epigrach,,,,,,,,,,,,,,,0,108,108,8,,,,,,,,,,,,,AMP,left,2.0507575694355182,0,,,,,,,,,,,,,,left,0,2.0507575694355182,,,,,,,,,,,1054,2019_Mar_13_1242,mf_amp_cond2,3.0.4,59.98641742836463,
interests,&&&&&&&&,left,fairness.virtue,proached,,,,,,,,,,,,,,,0,109,109,117,,,,,,,,,,,,,AMP,right,0.483694986323826,0,,,,,,,,,,,,,,right,0,0.483694986323826,,,,,,,,,,,1054,2019_Mar_13_1242,mf_amp_cond2,3.0.4,59.98641742836463,
compassion,&&&&&&&&&,left,care.virtue,chressing,,,,,,,,,,,,,,,0,110,110,242,,,,,,,,,,,,,AMP,right,1.0004727392515633,0,,,,,,,,,,,,,,right,0,1.0004727392515633,,,,,,,,,,,1054,2019_Mar_13_1242,mf_amp_cond2,3.0.4,59.98641742836463,
slending,&&&&&&&&,None,nonword,gowlands,,,,,,,,,,,,,,,0,111,111,213,,,,,,,,,,,,,AMP,left,1.233863844681764,0,,,,,,,,,,,,,,left,0,1.233863844681764,,,,,,,,,,,1054,2019_Mar_13_1242,mf_amp_cond2,3.0.4,59.98641742836463,
troops,&&&&&&&&&&&&&,right,loyalty.vice,wonderfujnoss,,,,,,,,,,,,,,,0,112,112,165,,,,,,,,,,,,,AMP,left,0.8003773575474042,0,,,,,,,,,,,,,,left,0,0.8003773575474042,,,,,,,,,,,1054,2019_Mar_13_1242,mf_amp_cond2,3.0.4,59.98641742836463,
encourage,&&&&&&&&&&,left,authority.virtue,neutralust,,,,,,,,,,,,,,,0,113,113,85,,,,,,,,,,,,,AMP,right,0.38367183043737896,0,,,,,,,,,,,,,,right,0,0.38367183043737896,,,,,,,,,,,1054,2019_Mar_13_1242,mf_amp_cond2,3.0.4,59.98641742836463,
troops,&&&&&&&&,right,loyalty.vice,crinking,,,,,,,,,,,,,,,0,114,114,274,,,,,,,,,,,,,AMP,left,0.8338206118205562,0,,,,,,,,,,,,,,left,0,0.8338206118205562,,,,,,,,,,,1054,2019_Mar_13_1242,mf_amp_cond2,3.0.4,59.98641742836463,
gondensed,&&&&&&&,None,nonword,chreams,,,,,,,,,,,,,,,0,115,115,126,,,,,,,,,,,,,AMP,left,0.9004608085087966,0,,,,,,,,,,,,,,left,0,0.9004608085087966,,,,,,,,,,,1054,2019_Mar_13_1242,mf_amp_cond2,3.0.4,59.98641742836463,
strength,&&&&&&&,left,sanctity.virtue,Daptist,,,,,,,,,,,,,,,0,116,116,116,,,,,,,,,,,,,AMP,left,2.0174070028297137,1,,,,,,,,,,,,,,left,1,2.0174070028297137,,,,,,,,,,,1054,2019_Mar_13_1242,mf_amp_cond2,3.0.4,59.98641742836463,
celebrated,&&&&&,left,authority.virtue,scock,,,,,,,,,,,,,,,0,117,117,72,,,,,,,,,,,,,AMP,right,0.5837043513311073,0,,,,,,,,,,,,,,right,0,0.5837043513311073,,,,,,,,,,,1054,2019_Mar_13_1242,mf_amp_cond2,3.0.4,59.98641742836463,
respect,&&&&&&&&&,left,sanctity.virtue,tenuflect,,,,,,,,,,,,,,,0,118,118,139,,,,,,,,,,,,,AMP,right,0.4335307463479694,0,,,,,,,,,,,,,,right,0,0.4335307463479694,,,,,,,,,,,1054,2019_Mar_13_1242,mf_amp_cond2,3.0.4,59.98641742836463,
tislay,&&&&&&&,None,nonword,hatigue,,,,,,,,,,,,,,,0,119,119,146,,,,,,,,,,,,,AMP,left,2.000734124914743,0,,,,,,,,,,,,,,left,0,2.000734124914743,,,,,,,,,,,1054,2019_Mar_13_1242,mf_amp_cond2,3.0.4,59.98641742836463,
credit,&&&&&&&,left,fairness.virtue,carvels,,,,,,,,,,,,,,,0,120,120,17,,,,,,,,,,,,,AMP,right,0.45036109708598815,0,,,,,,,,,,,,,,right,0,0.45036109708598815,,,,,,,,,,,1054,2019_Mar_13_1242,mf_amp_cond2,3.0.4,59.98641742836463,
violations,&&&&&&&&,right,sanctity.vice,suggists,,,,,,,,,,,,,,,0,121,121,298,,,,,,,,,,,,,AMP,left,1.6839991558517795,0,,,,,,,,,,,,,,left,0,1.6839991558517795,,,,,,,,,,,1054,2019_Mar_13_1242,mf_amp_cond2,3.0.4,59.98641742836463,
threatened,&&&&&&&&&&,right,fairness.vice,clattening,,,,,,,,,,,,,,,0,122,122,238,,,,,,,,,,,,,AMP,left,0.40032450307626277,0,,,,,,,,,,,,,,left,0,0.40032450307626277,,,,,,,,,,,1054,2019_Mar_13_1242,mf_amp_cond2,3.0.4,59.98641742836463,
actively,&&&&&&&&&,left,authority.virtue,seachwear,,,,,,,,,,,,,,,0,123,123,261,,,,,,,,,,,,,AMP,right,0.45034121253411286,0,,,,,,,,,,,,,,right,0,0.45034121253411286,,,,,,,,,,,1054,2019_Mar_13_1242,mf_amp_cond2,3.0.4,59.98641742836463,
death,&&&&&&&&&,right,care.vice,brotesque,,,,,,,,,,,,,,,0,124,124,140,,,,,,,,,,,,,AMP,left,0.31699859973741695,0,,,,,,,,,,,,,,left,0,0.31699859973741695,,,,,,,,,,,1054,2019_Mar_13_1242,mf_amp_cond2,3.0.4,59.98641742836463,
shot,&&&&&&&&&&&,right,care.vice,blunderints,,,,,,,,,,,,,,,0,125,125,314,,,,,,,,,,,,,AMP,right,0.4836908169963863,1,,,,,,,,,,,,,,right,1,0.4836908169963863,,,,,,,,,,,1054,2019_Mar_13_1242,mf_amp_cond2,3.0.4,59.98641742836463,
ban,&&&&&&&,right,loyalty.vice,allears,,,,,,,,,,,,,,,0,126,126,166,,,,,,,,,,,,,AMP,left,1.9673858033202123,0,,,,,,,,,,,,,,left,0,1.9673858033202123,,,,,,,,,,,1054,2019_Mar_13_1242,mf_amp_cond2,3.0.4,59.98641742836463,
victims,&&&&&&&&,right,care.vice,sidearbs,,,,,,,,,,,,,,,0,127,127,186,,,,,,,,,,,,,AMP,left,0.4670259570411872,0,,,,,,,,,,,,,,left,0,0.4670259570411872,,,,,,,,,,,1054,2019_Mar_13_1242,mf_amp_cond2,3.0.4,59.98641742836463,
accused,&&&&&&,right,fairness.vice,antral,,,,,,,,,,,,,,,0,128,128,286,,,,,,,,,,,,,AMP,left,2.50084830072592,0,,,,,,,,,,,,,,left,0,2.50084830072592,,,,,,,,,,,1054,2019_Mar_13_1242,mf_amp_cond2,3.0.4,59.98641742836463,
arrests,&&&&&&&&&,right,authority.vice,grovelire,,,,,,,,,,,,,,,0,129,129,9,,,,,,,,,,,,,AMP,left,0.46701825980562717,0,,,,,,,,,,,,,,left,0,0.46701825980562717,,,,,,,,,,,1054,2019_Mar_13_1242,mf_amp_cond2,3.0.4,59.98641742836463,
crime,&&&&&&,right,fairness.vice,prones,,,,,,,,,,,,,,,0,130,130,203,,,,,,,,,,,,,AMP,left,0.41698679729597643,0,,,,,,,,,,,,,,left,0,0.41698679729597643,,,,,,,,,,,1054,2019_Mar_13_1242,mf_amp_cond2,3.0.4,59.98641742836463,
ability,&&&&&&,left,authority.virtue,Boeinf,,,,,,,,,,,,,,,0,131,131,68,,,,,,,,,,,,,AMP,right,0.33364165082457475,0,,,,,,,,,,,,,,right,0,0.33364165082457475,,,,,,,,,,,1054,2019_Mar_13_1242,mf_amp_cond2,3.0.4,59.98641742836463,
party,&&&&&&&&,left,loyalty.virtue,crinking,,,,,,,,,,,,,,,0,132,132,241,,,,,,,,,,,,,AMP,right,0.5670372463355307,0,,,,,,,,,,,,,,right,0,0.5670372463355307,,,,,,,,,,,1054,2019_Mar_13_1242,mf_amp_cond2,3.0.4,59.98641742836463,
oam,&&&&&&&,None,nonword,Loorish,,,,,,,,,,,,,,,0,133,133,73,,,,,,,,,,,,,AMP,left,0.4336766733031254,0,,,,,,,,,,,,,,left,0,0.4336766733031254,,,,,,,,,,,1054,2019_Mar_13_1242,mf_amp_cond2,3.0.4,59.98641742836463,
sexual,&&&&&&&&&&&&,right,sanctity.vice,unreflectuve,,,,,,,,,,,,,,,0,134,134,200,,,,,,,,,,,,,AMP,right,0.4836898548528552,1,,,,,,,,,,,,,,right,1,0.4836898548528552,,,,,,,,,,,1054,2019_Mar_13_1242,mf_amp_cond2,3.0.4,59.98641742836463,
opportunity,&&&&&&&&&&&,left,fairness.virtue,ronviolence,,,,,,,,,,,,,,,0,135,135,300,,,,,,,,,,,,,AMP,right,1.5673031220794655,0,,,,,,,,,,,,,,right,0,1.5673031220794655,,,,,,,,,,,1054,2019_Mar_13_1242,mf_amp_cond2,3.0.4,59.98641742836463,
serial,&&&&&,right,sanctity.vice,tabin,,,,,,,,,,,,,,,0,136,136,24,,,,,,,,,,,,,AMP,left,0.6003724184411112,0,,,,,,,,,,,,,,left,0,0.6003724184411112,,,,,,,,,,,1054,2019_Mar_13_1242,mf_amp_cond2,3.0.4,59.98641742836463,
black,&&&&&&&,right,loyalty.vice,chreams,,,,,,,,,,,,,,,0,137,137,178,,,,,,,,,,,,,AMP,right,2.667552384576993,1,,,,,,,,,,,,,,right,1,2.667552384576993,,,,,,,,,,,1054,2019_Mar_13_1242,mf_amp_cond2,3.0.4,59.98641742836463,
critics,&&&&&&,right,loyalty.vice,chared,,,,,,,,,,,,,,,0,138,138,107,,,,,,,,,,,,,AMP,left,0.9671394914330449,0,,,,,,,,,,,,,,left,0,0.9671394914330449,,,,,,,,,,,1054,2019_Mar_13_1242,mf_amp_cond2,3.0.4,59.98641742836463,
praise,&&&&&&&&&,left,authority.virtue,brotesque,,,,,,,,,,,,,,,0,139,139,188,,,,,,,,,,,,,AMP,right,0.8004607443581335,0,,,,,,,,,,,,,,right,0,0.8004607443581335,,,,,,,,,,,1054,2019_Mar_13_1242,mf_amp_cond2,3.0.4,59.98641742836463,
fighters,&&&&&&&&&&&,right,authority.vice,neneficence,,,,,,,,,,,,,,,0,140,140,38,,,,,,,,,,,,,AMP,right,1.4339316445984878,1,,,,,,,,,,,,,,right,1,1.4339316445984878,,,,,,,,,,,1054,2019_Mar_13_1242,mf_amp_cond2,3.0.4,59.98641742836463,
penalty,&&&&&&&&&&&&,right,authority.vice,bruthfulness,,,,,,,,,,,,,,,0,141,141,80,,,,,,,,,,,,,AMP,left,1.050489127956098,0,,,,,,,,,,,,,,left,0,1.050489127956098,,,,,,,,,,,1054,2019_Mar_13_1242,mf_amp_cond2,3.0.4,59.98641742836463,
hate,&&&&&&&,right,fairness.vice,gedious,,,,,,,,,,,,,,,0,142,142,144,,,,,,,,,,,,,AMP,left,1.9507174154859968,0,,,,,,,,,,,,,,left,0,1.9507174154859968,,,,,,,,,,,1054,2019_Mar_13_1242,mf_amp_cond2,3.0.4,59.98641742836463,
faith,&&&&&&&,left,sanctity.virtue,emports,,,,,,,,,,,,,,,0,143,143,292,,,,,,,,,,,,,AMP,right,2.550864368735347,0,,,,,,,,,,,,,,right,0,2.550864368735347,,,,,,,,,,,1054,2019_Mar_13_1242,mf_amp_cond2,3.0.4,59.98641742836463,
fair,&&&&&&&&&,left,fairness.virtue,faspberry,,,,,,,,,,,,,,,0,144,144,70,,,,,,,,,,,,,AMP,right,0.6003862093493808,0,,,,,,,,,,,,,,right,0,0.6003862093493808,,,,,,,,,,,1054,2019_Mar_13_1242,mf_amp_cond2,3.0.4,59.98641742836463,
death,&&&&&,right,care.vice,uller,,,,,,,,,,,,,,,0,145,145,221,,,,,,,,,,,,,AMP,left,0.4003325210651383,0,,,,,,,,,,,,,,left,0,0.4003325210651383,,,,,,,,,,,1054,2019_Mar_13_1242,mf_amp_cond2,3.0.4,59.98641742836463,
improve,&&&&&&&&&&,left,care.virtue,simplustic,,,,,,,,,,,,,,,0,146,146,206,,,,,,,,,,,,,AMP,right,3.8511695645574946,0,,,,,,,,,,,,,,right,0,3.8511695645574946,,,,,,,,,,,1054,2019_Mar_13_1242,mf_amp_cond2,3.0.4,59.98641742836463,
cromiscuity,&&&&&&&&&,None,nonword,disregord,,,,,,,,,,,,,,,0,147,147,192,,,,,,,,,,,,,AMP,left,0.6836553455214016,0,,,,,,,,,,,,,,left,0,0.6836553455214016,,,,,,,,,,,1054,2019_Mar_13_1242,mf_amp_cond2,3.0.4,59.98641742836463,
slending,&&&&&&&&&&&&,None,nonword,rorroborated,,,,,,,,,,,,,,,0,148,148,99,,,,,,,,,,,,,AMP,left,1.1338791750313248,0,,,,,,,,,,,,,,left,0,1.1338791750313248,,,,,,,,,,,1054,2019_Mar_13_1242,mf_amp_cond2,3.0.4,59.98641742836463,
pullness,&&&&&&&&&&&&&,None,nonword,wonderfujnoss,,,,,,,,,,,,,,,0,149,149,154,,,,,,,,,,,,,AMP,left,4.784754833090119,0,,,,,,,,,,,,,,left,0,4.784754833090119,,,,,,,,,,,1054,2019_Mar_13_1242,mf_amp_cond2,3.0.4,59.98641742836463,
free,&&&&&&&&&,left,fairness.virtue,rivernoat,,,,,,,,,,,,,,,0,150,150,63,,,,,,,,,,,,,AMP,right,0.4003713280253578,0,,,,,,,,,,,,,,right,0,0.4003713280253578,,,,,,,,,,,1054,2019_Mar_13_1242,mf_amp_cond2,3.0.4,59.98641742836463,
black,&&&&&&&&&&,right,loyalty.vice,supervuned,,,,,,,,,,,,,,,0,151,151,280,,,,,,,,,,,,,AMP,right,0.7337416509108152,1,,,,,,,,,,,,,,right,1,0.7337416509108152,,,,,,,,,,,1054,2019_Mar_13_1242,mf_amp_cond2,3.0.4,59.98641742836463,
hope,&&&&&&&&&,left,loyalty.virtue,brotesque,,,,,,,,,,,,,,,0,152,152,273,,,,,,,,,,,,,AMP,left,2.734238123317482,1,,,,,,,,,,,,,,left,1,2.734238123317482,,,,,,,,,,,1054,2019_Mar_13_1242,mf_amp_cond2,3.0.4,59.98641742836463,
died,&&&&&&&,right,care.vice,nackers,,,,,,,,,,,,,,,0,153,153,90,,,,,,,,,,,,,AMP,left,1.3672516788064968,0,,,,,,,,,,,,,,left,0,1.3672516788064968,,,,,,,,,,,1054,2019_Mar_13_1242,mf_amp_cond2,3.0.4,59.98641742836463,
hope,&&&&&&&&,left,loyalty.virtue,tracious,,,,,,,,,,,,,,,0,154,154,5,,,,,,,,,,,,,AMP,right,0.4336317726993002,0,,,,,,,,,,,,,,right,0,0.4336317726993002,,,,,,,,,,,1054,2019_Mar_13_1242,mf_amp_cond2,3.0.4,59.98641742836463,
strength,&&&&&&&&&&&,left,sanctity.virtue,shoirmaster,,,,,,,,,,,,,,,0,155,155,39,,,,,,,,,,,,,AMP,right,0.483696910639992,0,,,,,,,,,,,,,,right,0,0.483696910639992,,,,,,,,,,,1054,2019_Mar_13_1242,mf_amp_cond2,3.0.4,59.98641742836463,
perfect,&&&&&&&&,left,sanctity.virtue,nuckheap,,,,,,,,,,,,,,,0,156,156,208,,,,,,,,,,,,,AMP,right,0.6339157369511668,0,,,,,,,,,,,,,,right,0,0.6339157369511668,,,,,,,,,,,1054,2019_Mar_13_1242,mf_amp_cond2,3.0.4,59.98641742836463,
ban,&&&&&&&&,right,loyalty.vice,crinking,,,,,,,,,,,,,,,0,157,157,52,,,,,,,,,,,,,AMP,left,1.0671652130840812,0,,,,,,,,,,,,,,left,0,1.0671652130840812,,,,,,,,,,,1054,2019_Mar_13_1242,mf_amp_cond2,3.0.4,59.98641742836463,
terrorists,&&&&&&&&,right,fairness.vice,sfumatoy,,,,,,,,,,,,,,,0,158,158,102,,,,,,,,,,,,,AMP,left,1.9173697353107855,0,,,,,,,,,,,,,,left,0,1.9173697353107855,,,,,,,,,,,1054,2019_Mar_13_1242,mf_amp_cond2,3.0.4,59.98641742836463,
pistraught,&&&&&&&&,None,nonword,framatic,,,,,,,,,,,,,,,0,159,159,94,,,,,,,,,,,,,AMP,right,2.900947017915314,0,,,,,,,,,,,,,,right,0,2.900947017915314,,,,,,,,,,,1054,2019_Mar_13_1242,mf_amp_cond2,3.0.4,59.98641742836463,
interests,&&&&&&&&&,left,fairness.virtue,tenuflect,,,,,,,,,,,,,,,0,160,160,214,,,,,,,,,,,,,AMP,right,0.5003659399517346,0,,,,,,,,,,,,,,right,0,0.5003659399517346,,,,,,,,,,,1054,2019_Mar_13_1242,mf_amp_cond2,3.0.4,59.98641742836463,
charges,&&&&&&&&,right,fairness.vice,divility,,,,,,,,,,,,,,,0,161,161,45,,,,,,,,,,,,,AMP,left,3.4844967828830704,0,,,,,,,,,,,,,,left,0,3.4844967828830704,,,,,,,,,,,1054,2019_Mar_13_1242,mf_amp_cond2,3.0.4,59.98641742836463,
pleasant,&&&&&&&&&&,None,control,ammessment,,,,,,,,,,,,,,,0,162,162,239,,,,,,,,,,,,,AMP,right,1.3505682171671651,0,,,,,,,,,,,,,,right,0,1.3505682171671651,,,,,,,,,,,1054,2019_Mar_13_1242,mf_amp_cond2,3.0.4,59.98641742836463,
party,&&&&&,left,loyalty.virtue,saned,,,,,,,,,,,,,,,0,163,163,301,,,,,,,,,,,,,AMP,right,3.951219981565373,0,,,,,,,,,,,,,,right,0,3.951219981565373,,,,,,,,,,,1054,2019_Mar_13_1242,mf_amp_cond2,3.0.4,59.98641742836463,
died,&&&&&&,right,care.vice,forepo,,,,,,,,,,,,,,,0,164,164,226,,,,,,,,,,,,,AMP,left,0.4336657688836567,0,,,,,,,,,,,,,,left,0,0.4336657688836567,,,,,,,,,,,1054,2019_Mar_13_1242,mf_amp_cond2,3.0.4,59.98641742836463,
safe,&&&&&&&&,left,care.virtue,thadowed,,,,,,,,,,,,,,,0,165,165,46,,,,,,,,,,,,,AMP,right,0.8838020421972033,0,,,,,,,,,,,,,,right,0,0.8838020421972033,,,,,,,,,,,1054,2019_Mar_13_1242,mf_amp_cond2,3.0.4,59.98641742836463,
support,&&&&&&&&&,left,loyalty.virtue,disregord,,,,,,,,,,,,,,,0,166,166,115,,,,,,,,,,,,,AMP,right,1.3005685058305971,0,,,,,,,,,,,,,,right,0,1.3005685058305971,,,,,,,,,,,1054,2019_Mar_13_1242,mf_amp_cond2,3.0.4,59.98641742836463,
safe,&&&&&,left,care.virtue,ablow,,,,,,,,,,,,,,,0,167,167,133,,,,,,,,,,,,,AMP,right,0.5336866797297262,0,,,,,,,,,,,,,,right,0,0.5336866797297262,,,,,,,,,,,1054,2019_Mar_13_1242,mf_amp_cond2,3.0.4,59.98641742836463,
rejected,&&&&&&&&,right,authority.vice,framatic,,,,,,,,,,,,,,,0,168,168,299,,,,,,,,,,,,,AMP,left,0.5837771544465795,0,,,,,,,,,,,,,,left,0,0.5837771544465795,,,,,,,,,,,1054,2019_Mar_13_1242,mf_amp_cond2,3.0.4,59.98641742836463,
suicide,&&&&&&&&&&&&,right,care.vice,bruthfulness,,,,,,,,,,,,,,,0,169,169,305,,,,,,,,,,,,,AMP,left,0.6170741610403638,0,,,,,,,,,,,,,,left,0,0.6170741610403638,,,,,,,,,,,1054,2019_Mar_13_1242,mf_amp_cond2,3.0.4,59.98641742836463,
ensure,&&&&&&&&&&&,left,fairness.virtue,blunderints,,,,,,,,,,,,,,,0,170,170,147,,,,,,,,,,,,,AMP,right,0.8171044368937146,0,,,,,,,,,,,,,,right,0,0.8171044368937146,,,,,,,,,,,1054,2019_Mar_13_1242,mf_amp_cond2,3.0.4,59.98641742836463,
promised,&&&&&&&&&&&,left,loyalty.virtue,shoirmaster,,,,,,,,,,,,,,,0,171,171,227,,,,,,,,,,,,,AMP,right,0.9338020742870867,0,,,,,,,,,,,,,,right,0,0.9338020742870867,,,,,,,,,,,1054,2019_Mar_13_1242,mf_amp_cond2,3.0.4,59.98641742836463,
menizen,&&&&&&&&&&,None,nonword,galamitous,,,,,,,,,,,,,,,0,172,172,312,,,,,,,,,,,,,AMP,left,1.4172331091831438,0,,,,,,,,,,,,,,left,0,1.4172331091831438,,,,,,,,,,,1054,2019_Mar_13_1242,mf_amp_cond2,3.0.4,59.98641742836463,
blamed,&&&&&&&&&,right,loyalty.vice,tomedians,,,,,,,,,,,,,,,0,173,173,167,,,,,,,,,,,,,AMP,left,0.48368600622052327,0,,,,,,,,,,,,,,left,0,0.48368600622052327,,,,,,,,,,,1054,2019_Mar_13_1242,mf_amp_cond2,3.0.4,59.98641742836463,
terrorists,&&&&&&&&&&,right,fairness.vice,ammessment,,,,,,,,,,,,,,,0,174,174,64,,,,,,,,,,,,,AMP,left,0.4503476269019302,0,,,,,,,,,,,,,,left,0,0.4503476269019302,,,,,,,,,,,1054,2019_Mar_13_1242,mf_amp_cond2,3.0.4,59.98641742836463,
party,&&&&&&&&&&,left,loyalty.virtue,honstables,,,,,,,,,,,,,,,0,175,175,14,,,,,,,,,,,,,AMP,right,0.4670304471219424,0,,,,,,,,,,,,,,right,0,0.4670304471219424,,,,,,,,,,,1054,2019_Mar_13_1242,mf_amp_cond2,3.0.4,59.98641742836463,
values,&&&&&&&&,left,sanctity.virtue,sidearbs,,,,,,,,,,,,,,,0,176,176,151,,,,,,,,,,,,,AMP,right,0.6337489632715005,0,,,,,,,,,,,,,,right,0,0.6337489632715005,,,,,,,,,,,1054,2019_Mar_13_1242,mf_amp_cond2,3.0.4,59.98641742836463,
pharing,&&&&&&&&&&,None,nonword,neutralust,,,,,,,,,,,,,,,0,177,177,177,,,,,,,,,,,,,AMP,right,1.6173207936517429,0,,,,,,,,,,,,,,right,0,1.6173207936517429,,,,,,,,,,,1054,2019_Mar_13_1242,mf_amp_cond2,3.0.4,59.98641742836463,
lies,&&&&&&&&&&,right,fairness.vice,neutralust,,,,,,,,,,,,,,,0,178,178,10,,,,,,,,,,,,,AMP,left,0.41711123610730283,0,,,,,,,,,,,,,,left,0,0.41711123610730283,,,,,,,,,,,1054,2019_Mar_13_1242,mf_amp_cond2,3.0.4,59.98641742836463,
honored,&&&&&,left,authority.virtue,tabin,,,,,,,,,,,,,,,0,179,179,325,,,,,,,,,,,,,AMP,right,0.9171259891591035,0,,,,,,,,,,,,,,right,0,0.9171259891591035,,,,,,,,,,,1054,2019_Mar_13_1242,mf_amp_cond2,3.0.4,59.98641742836463,
sexual,&&&&&&&,right,sanctity.vice,chreams,,,,,,,,,,,,,,,0,180,180,22,,,,,,,,,,,,,AMP,right,1.1338429338065907,1,,,,,,,,,,,,,,right,1,1.1338429338065907,,,,,,,,,,,1054,2019_Mar_13_1242,mf_amp_cond2,3.0.4,59.98641742836463,
died,&&&&&&&&,right,care.vice,divility,,,,,,,,,,,,,,,0,181,181,250,,,,,,,,,,,,,AMP,left,0.46702082554111257,0,,,,,,,,,,,,,,left,0,0.46702082554111257,,,,,,,,,,,1054,2019_Mar_13_1242,mf_amp_cond2,3.0.4,59.98641742836463,
integrity,&&&&&,left,fairness.virtue,atson,,,,,,,,,,,,,,,0,182,182,319,,,,,,,,,,,,,AMP,right,2.534192452993011,0,,,,,,,,,,,,,,right,0,2.534192452993011,,,,,,,,,,,1054,2019_Mar_13_1242,mf_amp_cond2,3.0.4,59.98641742836463,
crime,&&&&&&&&&,right,fairness.vice,seachwear,,,,,,,,,,,,,,,0,183,183,98,,,,,,,,,,,,,AMP,left,6.318447606434347,0,,,,,,,,,,,,,,left,0,6.318447606434347,,,,,,,,,,,1054,2019_Mar_13_1242,mf_amp_cond2,3.0.4,59.98641742836463,
praised,&&&&&&&&,left,loyalty.virtue,proached,,,,,,,,,,,,,,,0,184,184,284,,,,,,,,,,,,,AMP,right,0.46701954267336987,0,,,,,,,,,,,,,,right,0,0.46701954267336987,,,,,,,,,,,1054,2019_Mar_13_1242,mf_amp_cond2,3.0.4,59.98641742836463,
violations,&&&&&&&&&,right,sanctity.vice,gaultless,,,,,,,,,,,,,,,0,185,185,223,,,,,,,,,,,,,AMP,left,3.034306628804188,0,,,,,,,,,,,,,,left,0,3.034306628804188,,,,,,,,,,,1054,2019_Mar_13_1242,mf_amp_cond2,3.0.4,59.98641742836463,
suicide,&&&&&&&&&&,right,care.vice,ejanulated,,,,,,,,,,,,,,,0,186,186,236,,,,,,,,,,,,,AMP,left,0.30032475967891514,0,,,,,,,,,,,,,,left,0,0.30032475967891514,,,,,,,,,,,1054,2019_Mar_13_1242,mf_amp_cond2,3.0.4,59.98641742836463,
care,&&&&&&,left,care.virtue,Boeinf,,,,,,,,,,,,,,,0,187,187,207,,,,,,,,,,,,,AMP,right,0.4336776354466565,0,,,,,,,,,,,,,,right,0,0.4336776354466565,,,,,,,,,,,1054,2019_Mar_13_1242,mf_amp_cond2,3.0.4,59.98641742836463,
critics,&&&&&&&&&&&,right,loyalty.vice,nomparisons,,,,,,,,,,,,,,,0,188,188,205,,,,,,,,,,,,,AMP,left,3.201018730615033,0,,,,,,,,,,,,,,left,0,3.201018730615033,,,,,,,,,,,1054,2019_Mar_13_1242,mf_amp_cond2,3.0.4,59.98641742836463,
growth,&&&&&&&&&,left,care.virtue,crilfully,,,,,,,,,,,,,,,0,189,189,123,,,,,,,,,,,,,AMP,right,0.4837007592723239,0,,,,,,,,,,,,,,right,0,0.4837007592723239,,,,,,,,,,,1054,2019_Mar_13_1242,mf_amp_cond2,3.0.4,59.98641742836463,
penalty,&&&&&&,right,authority.vice,gikely,,,,,,,,,,,,,,,0,190,190,152,,,,,,,,,,,,,AMP,left,0.8337750697683077,0,,,,,,,,,,,,,,left,0,0.8337750697683077,,,,,,,,,,,1054,2019_Mar_13_1242,mf_amp_cond2,3.0.4,59.98641742836463,
gun,&&&&&&&&&,right,authority.vice,tomedians,,,,,,,,,,,,,,,0,191,191,326,,,,,,,,,,,,,AMP,left,0.7337570453819353,0,,,,,,,,,,,,,,left,0,0.7337570453819353,,,,,,,,,,,1054,2019_Mar_13_1242,mf_amp_cond2,3.0.4,59.98641742836463,
compassion,&&&&&&&,left,care.virtue,Daptist,,,,,,,,,,,,,,,0,192,192,20,,,,,,,,,,,,,AMP,right,2.6508795066620223,0,,,,,,,,,,,,,,right,0,2.6508795066620223,,,,,,,,,,,1054,2019_Mar_13_1242,mf_amp_cond2,3.0.4,59.98641742836463,
shot,&&&&&&&&&,right,care.vice,unscothed,,,,,,,,,,,,,,,0,193,193,69,,,,,,,,,,,,,AMP,left,0.36701370557420887,0,,,,,,,,,,,,,,left,0,0.36701370557420887,,,,,,,,,,,1054,2019_Mar_13_1242,mf_amp_cond2,3.0.4,59.98641742836463,
hope,&&&&&&&&,left,loyalty.virtue,crinking,,,,,,,,,,,,,,,0,194,194,120,,,,,,,,,,,,,AMP,right,0.5670353220193647,0,,,,,,,,,,,,,,right,0,0.5670353220193647,,,,,,,,,,,1054,2019_Mar_13_1242,mf_amp_cond2,3.0.4,59.98641742836463,
promised,&&&&&&&,left,loyalty.virtue,festate,,,,,,,,,,,,,,,0,195,195,125,,,,,,,,,,,,,AMP,right,0.45039156536222436,0,,,,,,,,,,,,,,right,0,0.45039156536222436,,,,,,,,,,,1054,2019_Mar_13_1242,mf_amp_cond2,3.0.4,59.98641742836463,
free,&&&&&&&&,left,fairness.virtue,ebbitter,,,,,,,,,,,,,,,0,196,196,89,,,,,,,,,,,,,AMP,right,0.5336940562410746,0,,,,,,,,,,,,,,right,0,0.5336940562410746,,,,,,,,,,,1054,2019_Mar_13_1242,mf_amp_cond2,3.0.4,59.98641742836463,
blamed,&&&&&&&&&&&&,right,loyalty.vice,rorroborated,,,,,,,,,,,,,,,0,197,197,30,,,,,,,,,,,,,AMP,left,0.3503296025155578,0,,,,,,,,,,,,,,left,0,0.3503296025155578,,,,,,,,,,,1054,2019_Mar_13_1242,mf_amp_cond2,3.0.4,59.98641742836463,
fear,&&&&&&&&&,right,sanctity.vice,gandbrake,,,,,,,,,,,,,,,0,198,198,193,,,,,,,,,,,,,AMP,left,0.6003833228896838,0,,,,,,,,,,,,,,left,0,0.6003833228896838,,,,,,,,,,,1054,2019_Mar_13_1242,mf_amp_cond2,3.0.4,59.98641742836463,
care,&&&&&&&&&&,left,care.virtue,honstables,,,,,,,,,,,,,,,0,199,199,252,,,,,,,,,,,,,AMP,left,1.3672362843062729,1,,,,,,,,,,,,,,left,1,1.3672362843062729,,,,,,,,,,,1054,2019_Mar_13_1242,mf_amp_cond2,3.0.4,59.98641742836463,
terrorists,&&&&&&&,right,fairness.vice,festate,,,,,,,,,,,,,,,0,200,200,259,,,,,,,,,,,,,AMP,left,0.46702884350088425,0,,,,,,,,,,,,,,left,0,0.46702884350088425,,,,,,,,,,,1054,2019_Mar_13_1242,mf_amp_cond2,3.0.4,59.98641742836463,
credit,&&&&&&&&&,left,fairness.virtue,grovelire,,,,,,,,,,,,,,,0,201,201,143,,,,,,,,,,,,,AMP,right,2.7175889785867184,0,,,,,,,,,,,,,,right,0,2.7175889785867184,,,,,,,,,,,1054,2019_Mar_13_1242,mf_amp_cond2,3.0.4,59.98641742836463,
useful,&&&&&&,left,authority.virtue,Cunday,,,,,,,,,,,,,,,0,202,202,79,,,,,,,,,,,,,AMP,right,0.400328993157018,0,,,,,,,,,,,,,,right,0,0.400328993157018,,,,,,,,,,,1054,2019_Mar_13_1242,mf_amp_cond2,3.0.4,59.98641742836463,
increase,&&&&&,left,care.virtue,atson,,,,,,,,,,,,,,,0,203,203,97,,,,,,,,,,,,,AMP,right,2.333988668367965,0,,,,,,,,,,,,,,right,0,2.333988668367965,,,,,,,,,,,1054,2019_Mar_13_1242,mf_amp_cond2,3.0.4,59.98641742836463,
compassion,&&&&&&&&&,left,care.virtue,gaultless,,,,,,,,,,,,,,,0,204,204,283,,,,,,,,,,,,,AMP,right,2.8342648070829455,0,,,,,,,,,,,,,,right,0,2.8342648070829455,,,,,,,,,,,1054,2019_Mar_13_1242,mf_amp_cond2,3.0.4,59.98641742836463,
men,&&&&&,right,loyalty.vice,ablow,,,,,,,,,,,,,,,0,205,205,44,,,,,,,,,,,,,AMP,left,0.8337660896359012,0,,,,,,,,,,,,,,left,0,0.8337660896359012,,,,,,,,,,,1054,2019_Mar_13_1242,mf_amp_cond2,3.0.4,59.98641742836463,
rejected,&&&&&&,right,authority.vice,forepo,,,,,,,,,,,,,,,0,206,206,23,,,,,,,,,,,,,AMP,right,2.0840565003745724,1,,,,,,,,,,,,,,right,1,2.0840565003745724,,,,,,,,,,,1054,2019_Mar_13_1242,mf_amp_cond2,3.0.4,59.98641742836463,
died,&&&&&&&&&,right,care.vice,gandbrake,,,,,,,,,,,,,,,0,207,207,6,,,,,,,,,,,,,AMP,left,2.067400620522676,0,,,,,,,,,,,,,,left,0,2.067400620522676,,,,,,,,,,,1054,2019_Mar_13_1242,mf_amp_cond2,3.0.4,59.98641742836463,
tislay,&&&&&&&&&&&,None,nonword,hefurbished,,,,,,,,,,,,,,,0,208,208,15,,,,,,,,,,,,,AMP,left,0.8004482363467105,0,,,,,,,,,,,,,,left,0,0.8004482363467105,,,,,,,,,,,1054,2019_Mar_13_1242,mf_amp_cond2,3.0.4,59.98641742836463,
restore,&&&&,left,care.virtue,juck,,,,,,,,,,,,,,,0,209,209,182,,,,,,,,,,,,,AMP,right,2.100745093484875,0,,,,,,,,,,,,,,right,0,2.100745093484875,,,,,,,,,,,1054,2019_Mar_13_1242,mf_amp_cond2,3.0.4,59.98641742836463,
oam,&&&&&&&&&&,None,nonword,simplustic,,,,,,,,,,,,,,,0,210,210,316,,,,,,,,,,,,,AMP,left,0.46701120398938656,0,,,,,,,,,,,,,,left,0,0.46701120398938656,,,,,,,,,,,1054,2019_Mar_13_1242,mf_amp_cond2,3.0.4,59.98641742836463,
killed,&&&&,right,care.vice,juck,,,,,,,,,,,,,,,0,211,211,246,,,,,,,,,,,,,AMP,left,0.8670980545866769,0,,,,,,,,,,,,,,left,0,0.8670980545866769,,,,,,,,,,,1054,2019_Mar_13_1242,mf_amp_cond2,3.0.4,59.98641742836463,
lorthwhile,&&&,None,nonword,mih,,,,,,,,,,,,,,,0,212,212,113,,,,,,,,,,,,,AMP,left,1.3338905284763314,0,,,,,,,,,,,,,,left,0,1.3338905284763314,,,,,,,,,,,1054,2019_Mar_13_1242,mf_amp_cond2,3.0.4,59.98641742836463,
actively,&&&&&&&&&&,left,authority.virtue,supervuned,,,,,,,,,,,,,,,0,213,213,210,,,,,,,,,,,,,AMP,left,1.7339889249415137,1,,,,,,,,,,,,,,left,1,1.7339889249415137,,,,,,,,,,,1054,2019_Mar_13_1242,mf_amp_cond2,3.0.4,59.98641742836463,
respect,&&&&&&&&&,left,sanctity.virtue,crilfully,,,,,,,,,,,,,,,0,214,214,198,,,,,,,,,,,,,AMP,right,0.7837795277591795,0,,,,,,,,,,,,,,right,0,0.7837795277591795,,,,,,,,,,,1054,2019_Mar_13_1242,mf_amp_cond2,3.0.4,59.98641742836463,
sexual,&&&&&&&&&,right,sanctity.vice,chressing,,,,,,,,,,,,,,,0,215,215,306,,,,,,,,,,,,,AMP,right,0.6170578043966088,1,,,,,,,,,,,,,,right,1,0.6170578043966088,,,,,,,,,,,1054,2019_Mar_13_1242,mf_amp_cond2,3.0.4,59.98641742836463,
victims,&&&&&&&&&,right,care.vice,disregord,,,,,,,,,,,,,,,0,216,216,291,,,,,,,,,,,,,AMP,left,0.4335381228593178,0,,,,,,,,,,,,,,left,0,0.4335381228593178,,,,,,,,,,,1054,2019_Mar_13_1242,mf_amp_cond2,3.0.4,59.98641742836463,
respect,&&&&&&,left,sanctity.virtue,chared,,,,,,,,,,,,,,,0,217,217,297,,,,,,,,,,,,,AMP,left,0.8004549714096356,1,,,,,,,,,,,,,,left,1,0.8004549714096356,,,,,,,,,,,1054,2019_Mar_13_1242,mf_amp_cond2,3.0.4,59.98641742836463,
gun,&&&&&&&&&,right,authority.vice,tenuflect,,,,,,,,,,,,,,,0,218,218,35,,,,,,,,,,,,,AMP,left,2.0842033894732594,0,,,,,,,,,,,,,,left,0,2.0842033894732594,,,,,,,,,,,1054,2019_Mar_13_1242,mf_amp_cond2,3.0.4,59.98641742836463,
lies,&&&&&&&&&&,right,fairness.vice,ammessment,,,,,,,,,,,,,,,0,219,219,131,,,,,,,,,,,,,AMP,left,0.5837139728828333,0,,,,,,,,,,,,,,left,0,0.5837139728828333,,,,,,,,,,,1054,2019_Mar_13_1242,mf_amp_cond2,3.0.4,59.98641742836463,
victims,&&&&,right,care.vice,yane,,,,,,,,,,,,,,,0,220,220,119,,,,,,,,,,,,,AMP,left,0.8504610971722286,0,,,,,,,,,,,,,,left,0,0.8504610971722286,,,,,,,,,,,1054,2019_Mar_13_1242,mf_amp_cond2,3.0.4,59.98641742836463,
promised,&&&&,left,loyalty.virtue,yane,,,,,,,,,,,,,,,0,221,221,1,,,,,,,,,,,,,AMP,right,1.2505453820049297,0,,,,,,,,,,,,,,right,0,1.2505453820049297,,,,,,,,,,,1054,2019_Mar_13_1242,mf_amp_cond2,3.0.4,59.98641742836463,
conspiracy,&&&&&&&&,right,sanctity.vice,ebbitter,,,,,,,,,,,,,,,0,222,222,296,,,,,,,,,,,,,AMP,right,2.3341493484040257,1,,,,,,,,,,,,,,right,1,2.3341493484040257,,,,,,,,,,,1054,2019_Mar_13_1242,mf_amp_cond2,3.0.4,59.98641742836463,
conspiracy,&&&&&&&&,right,sanctity.vice,nuckheap,,,,,,,,,,,,,,,0,223,223,77,,,,,,,,,,,,,AMP,right,2.6842339219001587,1,,,,,,,,,,,,,,right,1,2.6842339219001587,,,,,,,,,,,1054,2019_Mar_13_1242,mf_amp_cond2,3.0.4,59.98641742836463,
useful,&&&&&&&&,left,authority.virtue,clamorek,,,,,,,,,,,,,,,0,224,224,173,,,,,,,,,,,,,AMP,right,0.8671227499144152,0,,,,,,,,,,,,,,right,0,0.8671227499144152,,,,,,,,,,,1054,2019_Mar_13_1242,mf_amp_cond2,3.0.4,59.98641742836463,
restore,&&&&&,left,care.virtue,ablow,,,,,,,,,,,,,,,0,225,225,302,,,,,,,,,,,,,AMP,left,0.8171134169970173,1,,,,,,,,,,,,,,left,1,0.8171134169970173,,,,,,,,,,,1054,2019_Mar_13_1242,mf_amp_cond2,3.0.4,59.98641742836463,
killed,&&&&&&,right,care.vice,antral,,,,,,,,,,,,,,,0,226,226,145,,,,,,,,,,,,,AMP,left,1.467275476141367,0,,,,,,,,,,,,,,left,0,1.467275476141367,,,,,,,,,,,1054,2019_Mar_13_1242,mf_amp_cond2,3.0.4,59.98641742836463,
faith,&&&&&&&,left,sanctity.virtue,allears,,,,,,,,,,,,,,,0,227,227,11,,,,,,,,,,,,,AMP,left,4.5347017541353125,1,,,,,,,,,,,,,,left,1,4.5347017541353125,,,,,,,,,,,1054,2019_Mar_13_1242,mf_amp_cond2,3.0.4,59.98641742836463,
gondensed,&&&&&&&&,None,nonword,suggists,,,,,,,,,,,,,,,0,228,228,55,,,,,,,,,,,,,AMP,left,0.600416677625617,0,,,,,,,,,,,,,,left,0,0.600416677625617,,,,,,,,,,,1054,2019_Mar_13_1242,mf_amp_cond2,3.0.4,59.98641742836463,
death,&&&&&&&&,right,care.vice,proached,,,,,,,,,,,,,,,0,229,229,26,,,,,,,,,,,,,AMP,left,0.4503652664134279,0,,,,,,,,,,,,,,left,0,0.4503652664134279,,,,,,,,,,,1054,2019_Mar_13_1242,mf_amp_cond2,3.0.4,59.98641742836463,
violations,&&&&&,right,sanctity.vice,uller,,,,,,,,,,,,,,,0,230,230,129,,,,,,,,,,,,,AMP,left,0.4003315589216072,0,,,,,,,,,,,,,,left,0,0.4003315589216072,,,,,,,,,,,1054,2019_Mar_13_1242,mf_amp_cond2,3.0.4,59.98641742836463,
cromiscuity,&&&&&&&&&&,None,nonword,ejanulated,,,,,,,,,,,,,,,0,231,231,92,,,,,,,,,,,,,AMP,left,1.0671748346358072,0,,,,,,,,,,,,,,left,0,1.0671748346358072,,,,,,,,,,,1054,2019_Mar_13_1242,mf_amp_cond2,3.0.4,59.98641742836463,
arrests,&&&&&&&,right,authority.vice,scalbel,,,,,,,,,,,,,,,0,232,232,257,,,,,,,,,,,,,AMP,left,0.38365419092588127,0,,,,,,,,,,,,,,left,0,0.38365419092588127,,,,,,,,,,,1054,2019_Mar_13_1242,mf_amp_cond2,3.0.4,59.98641742836463,
integrity,&&&&&&&&,left,fairness.virtue,divility,,,,,,,,,,,,,,,0,233,233,95,,,,,,,,,,,,,AMP,right,0.4170211142045446,0,,,,,,,,,,,,,,right,0,0.4170211142045446,,,,,,,,,,,1054,2019_Mar_13_1242,mf_amp_cond2,3.0.4,59.98641742836463,
interests,&&&&&&&&&&,left,fairness.virtue,supervuned,,,,,,,,,,,,,,,0,234,234,42,,,,,,,,,,,,,AMP,right,0.7337416509108152,0,,,,,,,,,,,,,,right,0,0.7337416509108152,,,,,,,,,,,1054,2019_Mar_13_1242,mf_amp_cond2,3.0.4,59.98641742836463,
oam,&&&&,None,nonword,juck,,,,,,,,,,,,,,,0,235,235,158,,,,,,,,,,,,,AMP,left,0.35032318814774044,0,,,,,,,,,,,,,,left,0,0.35032318814774044,,,,,,,,,,,1054,2019_Mar_13_1242,mf_amp_cond2,3.0.4,59.98641742836463,
improve,&&&&,left,care.virtue,alar,,,,,,,,,,,,,,,0,236,236,74,,,,,,,,,,,,,AMP,right,0.3669941417465452,0,,,,,,,,,,,,,,right,0,0.3669941417465452,,,,,,,,,,,1054,2019_Mar_13_1242,mf_amp_cond2,3.0.4,59.98641742836463,
black,&&&&&&&&&&&,right,loyalty.vice,neneficence,,,,,,,,,,,,,,,0,237,237,163,,,,,,,,,,,,,AMP,left,0.5337068849767093,0,,,,,,,,,,,,,,left,0,0.5337068849767093,,,,,,,,,,,1054,2019_Mar_13_1242,mf_amp_cond2,3.0.4,59.98641742836463,
pullness,&&&&&&&,None,nonword,Loorish,,,,,,,,,,,,,,,0,238,238,268,,,,,,,,,,,,,AMP,left,4.017881345644128,0,,,,,,,,,,,,,,left,0,4.017881345644128,,,,,,,,,,,1054,2019_Mar_13_1242,mf_amp_cond2,3.0.4,59.98641742836463,
celebrated,&&&&&&&&&&,left,authority.virtue,ejanulated,,,,,,,,,,,,,,,0,239,239,308,,,,,,,,,,,,,AMP,right,1.6839911378920078,0,,,,,,,,,,,,,,right,0,1.6839911378920078,,,,,,,,,,,1054,2019_Mar_13_1242,mf_amp_cond2,3.0.4,59.98641742836463,
fear,&&&&&&&&&&&,right,sanctity.vice,shoirmaster,,,,,,,,,,,,,,,0,240,240,260,,,,,,,,,,,,,AMP,left,1.3505630856670905,0,,,,,,,,,,,,,,left,0,1.3505630856670905,,,,,,,,,,,1054,2019_Mar_13_1242,mf_amp_cond2,3.0.4,59.98641742836463,
ability,&&&&&,left,authority.virtue,saned,,,,,,,,,,,,,,,0,241,241,110,,,,,,,,,,,,,AMP,right,6.2851143586449325,0,,,,,,,,,,,,,,right,0,6.2851143586449325,,,,,,,,,,,1054,2019_Mar_13_1242,mf_amp_cond2,3.0.4,59.98641742836463,
charges,&&&&&&&&&,right,fairness.vice,gaultless,,,,,,,,,,,,,,,0,242,242,93,,,,,,,,,,,,,AMP,left,0.6170655016321689,0,,,,,,,,,,,,,,left,0,0.6170655016321689,,,,,,,,,,,1054,2019_Mar_13_1242,mf_amp_cond2,3.0.4,59.98641742836463,
increase,&&&&&&&&,left,care.virtue,suggists,,,,,,,,,,,,,,,0,243,243,191,,,,,,,,,,,,,AMP,right,1.1672072913497686,0,,,,,,,,,,,,,,right,0,1.1672072913497686,,,,,,,,,,,1054,2019_Mar_13_1242,mf_amp_cond2,3.0.4,59.98641742836463,
