words,mask,corr_ans,category,nonwords,tweets,topic,LDT_pracloop.thisRepN,LDT_pracloop.thisTrialN,LDT_pracloop.thisN,LDT_pracloop.thisIndex,LDT_trials.thisRepN,LDT_trials.thisTrialN,LDT_trials.thisN,LDT_trials.thisIndex,AMP_pracloop.thisRepN,AMP_pracloop.thisTrialN,AMP_pracloop.thisN,AMP_pracloop.thisIndex,AMP_trials.thisRepN,AMP_trials.thisTrialN,AMP_trials.thisN,AMP_trials.thisIndex,tweet_loop.thisRepN,tweet_loop.thisTrialN,tweet_loop.thisN,tweet_loop.thisIndex,begin_key.keys,begin_key.rt,key_resp_AMP_instr1.keys,key_resp_AMP_instr1.rt,key_resp_LDT_instr.keys,key_resp_LDT_instr.rt,resp_LDT_prac.keys,resp_LDT_prac.rt,task,keypress,RT,corr,resp_LDT_ready.keys,resp_LDT_ready.rt,resp_LDT.keys,resp_LDT.corr,resp_LDT.rt,LDT_rating.response,LDT_rating.rt,resp_AMP_ready1.keys,resp_AMP_ready1.rt,resp_AMP_prac.keys,resp_AMP_prac.rt,resp_AMP_ready.keys,resp_AMP_ready.rt,resp_AMP.keys,resp_AMP.corr,resp_AMP.rt,AMP_nonword_rating.response,AMP_nonword_rating.rt,AMP_word_rating.response,AMP_word_rating.rt,AMP_random_rating.response,AMP_random_rating.rt,key_resp_LDT_instr_2.keys,key_resp_LDT_instr_2.rt,resp_tweets.keys,resp_tweets.rt,participant,date,expName,psychopyVersion,frameRate,
,,,,,,,,,,,,,,,,,,,,,,,,,,,right,1365.780184813193,,,,,,,,,,,,,,,,,,,,,,,,,,,,,,,,,,,,,1056,2019_Mar_13_1243,mf_amp_cond2,3.0.4,59.98105061985483,
,,,,,,,,,,,,,,,,,,,,,,,,,,,,,right,7.419073265540646,,,,,,,,,,,,,,,,,,,,,,,,,,,,,,,,,,,1056,2019_Mar_13_1243,mf_amp_cond2,3.0.4,59.98105061985483,
,,,,,,,,,,,,,,,,,,,,,,,,,,,,,,,right,2.4343033070035744,,,,,,,,,,,,,,,,,,,,,,,,,,,,,,,,,1056,2019_Mar_13_1243,mf_amp_cond2,3.0.4,59.98105061985483,
keyboard,&&&&&&&,,,,,,0,0,0,0,,,,,,,,,,,,,,,,,,,,,,,right,7.65246671505156,LDT_prac,right,7.65246671505156,0,,,,,,,,,,,,,,,,,,,,,,,,,,,1056,2019_Mar_13_1243,mf_amp_cond2,3.0.4,59.98105061985483,
bisebell,&&&&&&&,,,,,,0,1,1,1,,,,,,,,,,,,,,,,,,,,,,,right,3.9013891298673116,LDT_prac,right,3.9013891298673116,0,,,,,,,,,,,,,,,,,,,,,,,,,,,1056,2019_Mar_13_1243,mf_amp_cond2,3.0.4,59.98105061985483,
,,,,,,,,,,,,,,,,,,,,,,,,,,,,,,,,,,,,,,,right,4.001401285699103,,,,,,,,,,,,,,,,,,,,,,,,,1056,2019_Mar_13_1243,mf_amp_cond2,3.0.4,59.98105061985483,
black,&&&&&,left,loyalty.vice,,,,,,,,0,0,0,22,,,,,,,,,,,,,,,,,,,,,LDT,right,1.7840814073279034,0,,,right,0,1.7840814073279034,,,,,,,,,,,,,,,,,,,,,,1056,2019_Mar_13_1243,mf_amp_cond2,3.0.4,59.98105061985483,
compassion,&&&&&&&&&&,left,care.virtue,,,,,,,,0,1,1,41,,,,,,,,,,,,,,,,,,,,,LDT,right,1.0672257911064662,0,,,right,0,1.0672257911064662,,,,,,,,,,,,,,,,,,,,,,1056,2019_Mar_13_1243,mf_amp_cond2,3.0.4,59.98105061985483,
sowntrodden,&&&&&&&&&&&,right,nonword,,,,,,,,0,2,2,145,,,,,,,,,,,,,,,,,,,,,LDT,left,1.300642333459109,0,,,left,0,1.300642333459109,,,,,,,,,,,,,,,,,,,,,,1056,2019_Mar_13_1243,mf_amp_cond2,3.0.4,59.98105061985483,
gournful,&&&&&&&&,right,nonword,,,,,,,,0,3,3,18,,,,,,,,,,,,,,,,,,,,,LDT,left,1.5840574164758436,0,,,left,0,1.5840574164758436,,,,,,,,,,,,,,,,,,,,,,1056,2019_Mar_13_1243,mf_amp_cond2,3.0.4,59.98105061985483,
scock,&&&&&,right,nonword,,,,,,,,0,4,4,117,,,,,,,,,,,,,,,,,,,,,LDT,left,3.617957368725911,0,,,left,0,3.617957368725911,,,,,,,,,,,,,,,,,,,,,,1056,2019_Mar_13_1243,mf_amp_cond2,3.0.4,59.98105061985483,
Phintoism,&&&&&&&&&,right,nonword,,,,,,,,0,5,5,129,,,,,,,,,,,,,,,,,,,,,LDT,right,2.8677403121546376,1,,,right,1,2.8677403121546376,,,,,,,,,,,,,,,,,,,,,,1056,2019_Mar_13_1243,mf_amp_cond2,3.0.4,59.98105061985483,
simplustic,&&&&&&&&&&,right,nonword,,,,,,,,0,6,6,168,,,,,,,,,,,,,,,,,,,,,LDT,right,0.9671889388118871,1,,,right,1,0.9671889388118871,,,,,,,,,,,,,,,,,,,,,,1056,2019_Mar_13_1243,mf_amp_cond2,3.0.4,59.98105061985483,
lies,&&&&,left,fairness.vice,,,,,,,,0,7,7,29,,,,,,,,,,,,,,,,,,,,,LDT,right,0.8338044377160259,0,,,right,0,0.8338044377160259,,,,,,,,,,,,,,,,,,,,,,1056,2019_Mar_13_1243,mf_amp_cond2,3.0.4,59.98105061985483,
feleological,&&&&&&&&&&&&,right,nonword,,,,,,,,0,8,8,63,,,,,,,,,,,,,,,,,,,,,LDT,left,2.3342549082590267,0,,,left,0,2.3342549082590267,,,,,,,,,,,,,,,,,,,,,,1056,2019_Mar_13_1243,mf_amp_cond2,3.0.4,59.98105061985483,
viscs,&&&&&,None,nonword,,,,,,,,0,9,9,72,,,,,,,,,,,,,,,,,,,,,LDT,right,0.7337868294562213,0,,,right,0,0.7337868294562213,,,,,,,,,,,,,,,,,,,,,,1056,2019_Mar_13_1243,mf_amp_cond2,3.0.4,59.98105061985483,
praise,&&&&&&,left,authority.virtue,,,,,,,,0,10,10,120,,,,,,,,,,,,,,,,,,,,,LDT,right,2.267571798642166,0,,,right,0,2.267571798642166,,,,,,,,,,,,,,,,,,,,,,1056,2019_Mar_13_1243,mf_amp_cond2,3.0.4,59.98105061985483,
either,&&&&&&,left,neutral,,,,,,,,0,11,11,137,,,,,,,,,,,,,,,,,,,,,LDT,right,11.120156479562866,0,,,right,0,11.120156479562866,,,,,,,,,,,,,,,,,,,,,,1056,2019_Mar_13_1243,mf_amp_cond2,3.0.4,59.98105061985483,
Loorish,&&&&&&&,right,nonword,,,,,,,,0,12,12,33,,,,,,,,,,,,,,,,,,,,,LDT,left,23.390386198676424,0,,,left,0,23.390386198676424,,,,,,,,,,,,,,,,,,,,,,1056,2019_Mar_13_1243,mf_amp_cond2,3.0.4,59.98105061985483,
sharing,&&&&&&&,left,loyalty.virtue,,,,,,,,0,13,13,87,,,,,,,,,,,,,,,,,,,,,LDT,right,1.250609153532423,0,,,right,0,1.250609153532423,,,,,,,,,,,,,,,,,,,,,,1056,2019_Mar_13_1243,mf_amp_cond2,3.0.4,59.98105061985483,
about,&&&&&,left,neutral,,,,,,,,0,14,14,101,,,,,,,,,,,,,,,,,,,,,LDT,right,0.9338457803241909,0,,,right,0,0.9338457803241909,,,,,,,,,,,,,,,,,,,,,,1056,2019_Mar_13_1243,mf_amp_cond2,3.0.4,59.98105061985483,
also,&&&&,left,neutral,,,,,,,,0,15,15,80,,,,,,,,,,,,,,,,,,,,,LDT,right,0.7671944554022048,0,,,right,0,0.7671944554022048,,,,,,,,,,,,,,,,,,,,,,1056,2019_Mar_13_1243,mf_amp_cond2,3.0.4,59.98105061985483,
egpeditious,&&&&&&&&&&&,right,nonword,,,,,,,,0,16,16,46,,,,,,,,,,,,,,,,,,,,,LDT,left,1.6673712117772084,0,,,left,0,1.6673712117772084,,,,,,,,,,,,,,,,,,,,,,1056,2019_Mar_13_1243,mf_amp_cond2,3.0.4,59.98105061985483,
lenon,&&&&&,right,nonword,,,,,,,,0,17,17,144,,,,,,,,,,,,,,,,,,,,,LDT,left,4.784981065487955,0,,,left,0,4.784981065487955,,,,,,,,,,,,,,,,,,,,,,1056,2019_Mar_13_1243,mf_amp_cond2,3.0.4,59.98105061985483,
friends,&&&&&&&,left,loyalty.virtue,,,,,,,,0,18,18,67,,,,,,,,,,,,,,,,,,,,,LDT,right,0.7671473075461108,0,,,right,0,0.7671473075461108,,,,,,,,,,,,,,,,,,,,,,1056,2019_Mar_13_1243,mf_amp_cond2,3.0.4,59.98105061985483,
fifty,&&&&&,left,neutral,,,,,,,,0,19,19,114,,,,,,,,,,,,,,,,,,,,,LDT,right,1.3172832826094236,0,,,right,0,1.3172832826094236,,,,,,,,,,,,,,,,,,,,,,1056,2019_Mar_13_1243,mf_amp_cond2,3.0.4,59.98105061985483,
embrace,&&&&&&&,left,authority.virtue,,,,,,,,0,20,20,199,,,,,,,,,,,,,,,,,,,,,LDT,right,0.8838286371028516,0,,,right,0,0.8838286371028516,,,,,,,,,,,,,,,,,,,,,,1056,2019_Mar_13_1243,mf_amp_cond2,3.0.4,59.98105061985483,
ablow,&&&&&,right,nonword,,,,,,,,0,21,21,30,,,,,,,,,,,,,,,,,,,,,LDT,right,2.884436106774956,1,,,right,1,2.884436106774956,,,,,,,,,,,,,,,,,,,,,,1056,2019_Mar_13_1243,mf_amp_cond2,3.0.4,59.98105061985483,
elsewhere,&&&&&&&&&,left,neutral,,,,,,,,0,22,22,118,,,,,,,,,,,,,,,,,,,,,LDT,right,1.3506274032988586,0,,,right,0,1.3506274032988586,,,,,,,,,,,,,,,,,,,,,,1056,2019_Mar_13_1243,mf_amp_cond2,3.0.4,59.98105061985483,
neutralust,&&&&&&&&&&,right,nonword,,,,,,,,0,23,23,82,,,,,,,,,,,,,,,,,,,,,LDT,right,1.4506770849402528,1,,,right,1,1.4506770849402528,,,,,,,,,,,,,,,,,,,,,,1056,2019_Mar_13_1243,mf_amp_cond2,3.0.4,59.98105061985483,
festate,&&&&&&&,right,nonword,,,,,,,,0,24,24,14,,,,,,,,,,,,,,,,,,,,,LDT,left,2.6843861364759505,0,,,left,0,2.6843861364759505,,,,,,,,,,,,,,,,,,,,,,1056,2019_Mar_13_1243,mf_amp_cond2,3.0.4,59.98105061985483,
freedom,&&&&&&&,left,sanctity.virtue,,,,,,,,0,25,25,48,,,,,,,,,,,,,,,,,,,,,LDT,right,1.1005894765548874,0,,,right,0,1.1005894765548874,,,,,,,,,,,,,,,,,,,,,,1056,2019_Mar_13_1243,mf_amp_cond2,3.0.4,59.98105061985483,
grovelire,&&&&&&&&&,right,nonword,,,,,,,,0,26,26,24,,,,,,,,,,,,,,,,,,,,,LDT,left,4.051435748551739,0,,,left,0,4.051435748551739,,,,,,,,,,,,,,,,,,,,,,1056,2019_Mar_13_1243,mf_amp_cond2,3.0.4,59.98105061985483,
mih,&&&,right,nonword,,,,,,,,0,27,27,131,,,,,,,,,,,,,,,,,,,,,LDT,left,5.801922221435234,0,,,left,0,5.801922221435234,,,,,,,,,,,,,,,,,,,,,,1056,2019_Mar_13_1243,mf_amp_cond2,3.0.4,59.98105061985483,
done,&&&&,left,neutral,,,,,,,,0,28,28,19,,,,,,,,,,,,,,,,,,,,,LDT,right,3.20117350059445,0,,,right,0,3.20117350059445,,,,,,,,,,,,,,,,,,,,,,1056,2019_Mar_13_1243,mf_amp_cond2,3.0.4,59.98105061985483,
frojecting,&&&&&&&&&&,right,nonword,,,,,,,,0,29,29,187,,,,,,,,,,,,,,,,,,,,,LDT,left,7.3023707675456535,0,,,left,0,7.3023707675456535,,,,,,,,,,,,,,,,,,,,,,1056,2019_Mar_13_1243,mf_amp_cond2,3.0.4,59.98105061985483,
suggists,&&&&&&&&,right,nonword,,,,,,,,0,30,30,151,,,,,,,,,,,,,,,,,,,,,LDT,left,6.602171816426562,0,,,left,0,6.602171816426562,,,,,,,,,,,,,,,,,,,,,,1056,2019_Mar_13_1243,mf_amp_cond2,3.0.4,59.98105061985483,
credit,&&&&&&,left,fairness.virtue,,,,,,,,0,31,31,62,,,,,,,,,,,,,,,,,,,,,LDT,right,1.4340043831325602,0,,,right,0,1.4340043831325602,,,,,,,,,,,,,,,,,,,,,,1056,2019_Mar_13_1243,mf_amp_cond2,3.0.4,59.98105061985483,
restore,&&&&&&&,left,care.virtue,,,,,,,,0,32,32,69,,,,,,,,,,,,,,,,,,,,,LDT,right,1.750733758584829,0,,,right,0,1.750733758584829,,,,,,,,,,,,,,,,,,,,,,1056,2019_Mar_13_1243,mf_amp_cond2,3.0.4,59.98105061985483,
lursuer,&&&&&&&,right,nonword,,,,,,,,0,33,33,119,,,,,,,,,,,,,,,,,,,,,LDT,left,4.85165006283205,0,,,left,0,4.85165006283205,,,,,,,,,,,,,,,,,,,,,,1056,2019_Mar_13_1243,mf_amp_cond2,3.0.4,59.98105061985483,
supervuned,&&&&&&&&&&,right,nonword,,,,,,,,0,34,34,182,,,,,,,,,,,,,,,,,,,,,LDT,left,7.519116532494081,0,,,left,0,7.519116532494081,,,,,,,,,,,,,,,,,,,,,,1056,2019_Mar_13_1243,mf_amp_cond2,3.0.4,59.98105061985483,
with,&&&&,left,neutral,,,,,,,,0,35,35,140,,,,,,,,,,,,,,,,,,,,,LDT,right,6.3687581606791355,0,,,right,0,6.3687581606791355,,,,,,,,,,,,,,,,,,,,,,1056,2019_Mar_13_1243,mf_amp_cond2,3.0.4,59.98105061985483,
ammessment,&&&&&&&&&&,right,nonword,,,,,,,,0,36,36,141,,,,,,,,,,,,,,,,,,,,,LDT,right,2.450988838158082,1,,,right,1,2.450988838158082,,,,,,,,,,,,,,,,,,,,,,1056,2019_Mar_13_1243,mf_amp_cond2,3.0.4,59.98105061985483,
riot,&&&&,left,authority.vice,,,,,,,,0,37,37,155,,,,,,,,,,,,,,,,,,,,,LDT,right,1.1672754727478605,0,,,right,0,1.1672754727478605,,,,,,,,,,,,,,,,,,,,,,1056,2019_Mar_13_1243,mf_amp_cond2,3.0.4,59.98105061985483,
scalbel,&&&&&&&,right,nonword,,,,,,,,0,38,38,13,,,,,,,,,,,,,,,,,,,,,LDT,left,2.9511285176849924,0,,,left,0,2.9511285176849924,,,,,,,,,,,,,,,,,,,,,,1056,2019_Mar_13_1243,mf_amp_cond2,3.0.4,59.98105061985483,
ecgagement,&&&&&&&&&&,None,nonword,,,,,,,,0,39,39,134,,,,,,,,,,,,,,,,,,,,,LDT,left,4.784995177789824,0,,,left,0,4.784995177789824,,,,,,,,,,,,,,,,,,,,,,1056,2019_Mar_13_1243,mf_amp_cond2,3.0.4,59.98105061985483,
synchronazers,&&&&&&&&&&&&&,right,nonword,,,,,,,,0,40,40,26,,,,,,,,,,,,,,,,,,,,,LDT,left,13.054027597856475,0,,,left,0,13.054027597856475,,,,,,,,,,,,,,,,,,,,,,1056,2019_Mar_13_1243,mf_amp_cond2,3.0.4,59.98105061985483,
opportunity,&&&&&&&&&&&,left,fairness.virtue,,,,,,,,0,41,41,86,,,,,,,,,,,,,,,,,,,,,LDT,right,0.9339250015327707,0,,,right,0,0.9339250015327707,,,,,,,,,,,,,,,,,,,,,,1056,2019_Mar_13_1243,mf_amp_cond2,3.0.4,59.98105061985483,
latter,&&&&&&,left,neutral,,,,,,,,0,42,42,174,,,,,,,,,,,,,,,,,,,,,LDT,right,1.5006839646957815,0,,,right,0,1.5006839646957815,,,,,,,,,,,,,,,,,,,,,,1056,2019_Mar_13_1243,mf_amp_cond2,3.0.4,59.98105061985483,
forty,&&&&&,left,neutral,,,,,,,,0,43,43,7,,,,,,,,,,,,,,,,,,,,,LDT,right,0.9172141324088443,0,,,right,0,0.9172141324088443,,,,,,,,,,,,,,,,,,,,,,1056,2019_Mar_13_1243,mf_amp_cond2,3.0.4,59.98105061985483,
asn,&&&,right,nonword,,,,,,,,0,44,44,23,,,,,,,,,,,,,,,,,,,,,LDT,left,1.8507863268605433,0,,,left,0,1.8507863268605433,,,,,,,,,,,,,,,,,,,,,,1056,2019_Mar_13_1243,mf_amp_cond2,3.0.4,59.98105061985483,
erdest,&&&&&&,right,nonword,,,,,,,,0,45,45,84,,,,,,,,,,,,,,,,,,,,,LDT,left,2.2008787462837063,0,,,left,0,2.2008787462837063,,,,,,,,,,,,,,,,,,,,,,1056,2019_Mar_13_1243,mf_amp_cond2,3.0.4,59.98105061985483,
rejected,&&&&&&&&,left,authority.vice,,,,,,,,0,46,46,136,,,,,,,,,,,,,,,,,,,,,LDT,right,1.0338752557581756,0,,,right,0,1.0338752557581756,,,,,,,,,,,,,,,,,,,,,,1056,2019_Mar_13_1243,mf_amp_cond2,3.0.4,59.98105061985483,
brotesque,&&&&&&&&&,right,nonword,,,,,,,,0,47,47,85,,,,,,,,,,,,,,,,,,,,,LDT,right,2.2509029456414282,1,,,right,1,2.2509029456414282,,,,,,,,,,,,,,,,,,,,,,1056,2019_Mar_13_1243,mf_amp_cond2,3.0.4,59.98105061985483,
noone,&&&&&,left,neutral,,,,,,,,0,48,48,152,,,,,,,,,,,,,,,,,,,,,LDT,right,3.0344525764521677,0,,,right,0,3.0344525764521677,,,,,,,,,,,,,,,,,,,,,,1056,2019_Mar_13_1243,mf_amp_cond2,3.0.4,59.98105061985483,
myself,&&&&&&,left,neutral,,,,,,,,0,49,49,196,,,,,,,,,,,,,,,,,,,,,LDT,right,0.8338153426884674,0,,,right,0,0.8338153426884674,,,,,,,,,,,,,,,,,,,,,,1056,2019_Mar_13_1243,mf_amp_cond2,3.0.4,59.98105061985483,
been,&&&&,left,neutral,,,,,,,,0,50,50,68,,,,,,,,,,,,,,,,,,,,,LDT,right,1.1339002409076784,0,,,right,0,1.1339002409076784,,,,,,,,,,,,,,,,,,,,,,1056,2019_Mar_13_1243,mf_amp_cond2,3.0.4,59.98105061985483,
esquisiteness,&&&&&&&&&&&&&,right,nonword,,,,,,,,0,51,51,130,,,,,,,,,,,,,,,,,,,,,LDT,left,4.351503327110549,0,,,left,0,4.351503327110549,,,,,,,,,,,,,,,,,,,,,,1056,2019_Mar_13_1243,mf_amp_cond2,3.0.4,59.98105061985483,
whither,&&&&&&&,left,neutral,,,,,,,,0,52,52,107,,,,,,,,,,,,,,,,,,,,,LDT,right,6.135365031892434,0,,,right,0,6.135365031892434,,,,,,,,,,,,,,,,,,,,,,1056,2019_Mar_13_1243,mf_amp_cond2,3.0.4,59.98105061985483,
atson,&&&&&,right,nonword,,,,,,,,0,53,53,115,,,,,,,,,,,,,,,,,,,,,LDT,left,1.6673882106842939,0,,,left,0,1.6673882106842939,,,,,,,,,,,,,,,,,,,,,,1056,2019_Mar_13_1243,mf_amp_cond2,3.0.4,59.98105061985483,
carvels,&&&&&&&,None,nonword,,,,,,,,0,54,54,142,,,,,,,,,,,,,,,,,,,,,LDT,left,2.467672124155797,0,,,left,0,2.467672124155797,,,,,,,,,,,,,,,,,,,,,,1056,2019_Mar_13_1243,mf_amp_cond2,3.0.4,59.98105061985483,
sfumatoy,&&&&&&&&,None,nonword,,,,,,,,0,55,55,124,,,,,,,,,,,,,,,,,,,,,LDT,left,3.517852841585409,0,,,left,0,3.517852841585409,,,,,,,,,,,,,,,,,,,,,,1056,2019_Mar_13_1243,mf_amp_cond2,3.0.4,59.98105061985483,
seem,&&&&,left,neutral,,,,,,,,0,56,56,17,,,,,,,,,,,,,,,,,,,,,LDT,right,1.3339595124998596,0,,,right,0,1.3339595124998596,,,,,,,,,,,,,,,,,,,,,,1056,2019_Mar_13_1243,mf_amp_cond2,3.0.4,59.98105061985483,
further,&&&&&&&,left,neutral,,,,,,,,0,57,57,193,,,,,,,,,,,,,,,,,,,,,LDT,right,2.100869477086235,0,,,right,0,2.100869477086235,,,,,,,,,,,,,,,,,,,,,,1056,2019_Mar_13_1243,mf_amp_cond2,3.0.4,59.98105061985483,
godlaness,&&&&&&&&&,right,nonword,,,,,,,,0,58,58,105,,,,,,,,,,,,,,,,,,,,,LDT,left,4.068090810003923,0,,,left,0,4.068090810003923,,,,,,,,,,,,,,,,,,,,,,1056,2019_Mar_13_1243,mf_amp_cond2,3.0.4,59.98105061985483,
hereby,&&&&&&,left,neutral,,,,,,,,0,59,59,66,,,,,,,,,,,,,,,,,,,,,LDT,left,18.83905998073169,1,,,left,1,18.83905998073169,,,,,,,,,,,,,,,,,,,,,,1056,2019_Mar_13_1243,mf_amp_cond2,3.0.4,59.98105061985483,
could,&&&&&,left,neutral,,,,,,,,0,60,60,147,,,,,,,,,,,,,,,,,,,,,LDT,right,1.050544429483125,0,,,right,0,1.050544429483125,,,,,,,,,,,,,,,,,,,,,,1056,2019_Mar_13_1243,mf_amp_cond2,3.0.4,59.98105061985483,
ning,&&&&,right,nonword,,,,,,,,0,61,61,34,,,,,,,,,,,,,,,,,,,,,LDT,left,1.1505960355571005,0,,,left,0,1.1505960355571005,,,,,,,,,,,,,,,,,,,,,,1056,2019_Mar_13_1243,mf_amp_cond2,3.0.4,59.98105061985483,
unscothed,&&&&&&&&&,right,nonword,,,,,,,,0,62,62,58,,,,,,,,,,,,,,,,,,,,,LDT,left,2.550979504798306,0,,,left,0,2.550979504798306,,,,,,,,,,,,,,,,,,,,,,1056,2019_Mar_13_1243,mf_amp_cond2,3.0.4,59.98105061985483,
therefore,&&&&&&&&&,left,neutral,,,,,,,,0,63,63,49,,,,,,,,,,,,,,,,,,,,,LDT,right,1.7507562099781353,0,,,right,0,1.7507562099781353,,,,,,,,,,,,,,,,,,,,,,1056,2019_Mar_13_1243,mf_amp_cond2,3.0.4,59.98105061985483,
Daptist,&&&&&&&,right,nonword,,,,,,,,0,64,64,123,,,,,,,,,,,,,,,,,,,,,LDT,left,4.818306904344354,0,,,left,0,4.818306904344354,,,,,,,,,,,,,,,,,,,,,,1056,2019_Mar_13_1243,mf_amp_cond2,3.0.4,59.98105061985483,
each,&&&&,left,neutral,,,,,,,,0,65,65,194,,,,,,,,,,,,,,,,,,,,,LDT,right,1.3339572673430666,0,,,right,0,1.3339572673430666,,,,,,,,,,,,,,,,,,,,,,1056,2019_Mar_13_1243,mf_amp_cond2,3.0.4,59.98105061985483,
hatigue,&&&&&&&,right,nonword,,,,,,,,0,66,66,121,,,,,,,,,,,,,,,,,,,,,LDT,left,4.051419711846393,0,,,left,0,4.051419711846393,,,,,,,,,,,,,,,,,,,,,,1056,2019_Mar_13_1243,mf_amp_cond2,3.0.4,59.98105061985483,
energy,&&&&&&,left,sanctity.virtue,,,,,,,,0,67,67,9,,,,,,,,,,,,,,,,,,,,,LDT,right,2.6843524594441988,0,,,right,0,2.6843524594441988,,,,,,,,,,,,,,,,,,,,,,1056,2019_Mar_13_1243,mf_amp_cond2,3.0.4,59.98105061985483,
reelectiob,&&&&&&&&&&,right,nonword,,,,,,,,0,68,68,96,,,,,,,,,,,,,,,,,,,,,LDT,right,2.2509270006848965,1,,,right,1,2.2509270006848965,,,,,,,,,,,,,,,,,,,,,,1056,2019_Mar_13_1243,mf_amp_cond2,3.0.4,59.98105061985483,
strofe,&&&&&&,right,nonword,,,,,,,,0,69,69,104,,,,,,,,,,,,,,,,,,,,,LDT,right,1.850764516973868,1,,,right,1,1.850764516973868,,,,,,,,,,,,,,,,,,,,,,1056,2019_Mar_13_1243,mf_amp_cond2,3.0.4,59.98105061985483,
intelligence,&&&&&&&&&&&&,left,loyalty.virtue,,,,,,,,0,70,70,83,,,,,,,,,,,,,,,,,,,,,LDT,right,4.6349148820736445,0,,,right,0,4.6349148820736445,,,,,,,,,,,,,,,,,,,,,,1056,2019_Mar_13_1243,mf_amp_cond2,3.0.4,59.98105061985483,
greaks,&&&&&&,right,nonword,,,,,,,,0,71,71,21,,,,,,,,,,,,,,,,,,,,,LDT,left,2.150860640889732,0,,,left,0,2.150860640889732,,,,,,,,,,,,,,,,,,,,,,1056,2019_Mar_13_1243,mf_amp_cond2,3.0.4,59.98105061985483,
threatened,&&&&&&&&&&,left,fairness.vice,,,,,,,,0,72,72,36,,,,,,,,,,,,,,,,,,,,,LDT,right,2.184045677597169,0,,,right,0,2.184045677597169,,,,,,,,,,,,,,,,,,,,,,1056,2019_Mar_13_1243,mf_amp_cond2,3.0.4,59.98105061985483,
sliptery,&&&&&&&&,right,nonword,,,,,,,,0,73,73,53,,,,,,,,,,,,,,,,,,,,,LDT,left,3.851383533066837,0,,,left,0,3.851383533066837,,,,,,,,,,,,,,,,,,,,,,1056,2019_Mar_13_1243,mf_amp_cond2,3.0.4,59.98105061985483,
laming,&&&&&&,right,nonword,,,,,,,,0,74,74,133,,,,,,,,,,,,,,,,,,,,,LDT,right,4.118099934858037,1,,,right,1,4.118099934858037,,,,,,,,,,,,,,,,,,,,,,1056,2019_Mar_13_1243,mf_amp_cond2,3.0.4,59.98105061985483,
whereafter,&&&&&&&&&&,left,neutral,,,,,,,,0,75,75,56,,,,,,,,,,,,,,,,,,,,,LDT,right,2.717672204365954,0,,,right,0,2.717672204365954,,,,,,,,,,,,,,,,,,,,,,1056,2019_Mar_13_1243,mf_amp_cond2,3.0.4,59.98105061985483,
amount,&&&&&&,left,neutral,,,,,,,,0,76,76,185,,,,,,,,,,,,,,,,,,,,,LDT,right,1.0672286776825786,0,,,right,0,1.0672286776825786,,,,,,,,,,,,,,,,,,,,,,1056,2019_Mar_13_1243,mf_amp_cond2,3.0.4,59.98105061985483,
latterly,&&&&&&&&,left,neutral,,,,,,,,0,77,77,127,,,,,,,,,,,,,,,,,,,,,LDT,left,3.1011446666088887,1,,,left,1,3.1011446666088887,,,,,,,,,,,,,,,,,,,,,,1056,2019_Mar_13_1243,mf_amp_cond2,3.0.4,59.98105061985483,
spag,&&&&,None,nonword,,,,,,,,0,78,78,64,,,,,,,,,,,,,,,,,,,,,LDT,left,1.4840019615949132,0,,,left,0,1.4840019615949132,,,,,,,,,,,,,,,,,,,,,,1056,2019_Mar_13_1243,mf_amp_cond2,3.0.4,59.98105061985483,
papert,&&&&&&,right,nonword,,,,,,,,0,79,79,149,,,,,,,,,,,,,,,,,,,,,LDT,right,1.8174434891261626,1,,,right,1,1.8174434891261626,,,,,,,,,,,,,,,,,,,,,,1056,2019_Mar_13_1243,mf_amp_cond2,3.0.4,59.98105061985483,
Cunday,&&&&&&,None,nonword,,,,,,,,0,80,80,88,,,,,,,,,,,,,,,,,,,,,LDT,right,3.417760502343299,0,,,right,0,3.417760502343299,,,,,,,,,,,,,,,,,,,,,,1056,2019_Mar_13_1243,mf_amp_cond2,3.0.4,59.98105061985483,
become,&&&&&&,left,neutral,,,,,,,,0,81,81,192,,,,,,,,,,,,,,,,,,,,,LDT,right,1.0505546929489356,0,,,right,0,1.0505546929489356,,,,,,,,,,,,,,,,,,,,,,1056,2019_Mar_13_1243,mf_amp_cond2,3.0.4,59.98105061985483,
critics,&&&&&&&,left,loyalty.vice,,,,,,,,0,82,82,183,,,,,,,,,,,,,,,,,,,,,LDT,right,2.784373275062535,0,,,right,0,2.784373275062535,,,,,,,,,,,,,,,,,,,,,,1056,2019_Mar_13_1243,mf_amp_cond2,3.0.4,59.98105061985483,
dormandi,&&&&&&&&,None,nonword,,,,,,,,0,83,83,95,,,,,,,,,,,,,,,,,,,,,LDT,left,1.8174338671087753,0,,,left,0,1.8174338671087753,,,,,,,,,,,,,,,,,,,,,,1056,2019_Mar_13_1243,mf_amp_cond2,3.0.4,59.98105061985483,
besides,&&&&&&&,left,neutral,,,,,,,,0,84,84,171,,,,,,,,,,,,,,,,,,,,,LDT,right,1.7840984062640928,0,,,right,0,1.7840984062640928,,,,,,,,,,,,,,,,,,,,,,1056,2019_Mar_13_1243,mf_amp_cond2,3.0.4,59.98105061985483,
elduringly,&&&&&&&&&&,right,nonword,,,,,,,,0,85,85,170,,,,,,,,,,,,,,,,,,,,,LDT,left,6.685525703447638,0,,,left,0,6.685525703447638,,,,,,,,,,,,,,,,,,,,,,1056,2019_Mar_13_1243,mf_amp_cond2,3.0.4,59.98105061985483,
fangsters,&&&&&&&&&,right,nonword,,,,,,,,0,86,86,81,,,,,,,,,,,,,,,,,,,,,LDT,left,1.0838914367486723,0,,,left,0,1.0838914367486723,,,,,,,,,,,,,,,,,,,,,,1056,2019_Mar_13_1243,mf_amp_cond2,3.0.4,59.98105061985483,
gazily,&&&&&&,right,nonword,,,,,,,,0,87,87,28,,,,,,,,,,,,,,,,,,,,,LDT,left,4.751603588520084,0,,,left,0,4.751603588520084,,,,,,,,,,,,,,,,,,,,,,1056,2019_Mar_13_1243,mf_amp_cond2,3.0.4,59.98105061985483,
promote,&&&&&&&,left,sanctity.virtue,,,,,,,,0,88,88,175,,,,,,,,,,,,,,,,,,,,,LDT,right,0.7838248203624971,0,,,right,0,0.7838248203624971,,,,,,,,,,,,,,,,,,,,,,1056,2019_Mar_13_1243,mf_amp_cond2,3.0.4,59.98105061985483,
death,&&&&&,left,care.vice,,,,,,,,0,89,89,160,,,,,,,,,,,,,,,,,,,,,LDT,right,1.7507590965542477,0,,,right,0,1.7507590965542477,,,,,,,,,,,,,,,,,,,,,,1056,2019_Mar_13_1243,mf_amp_cond2,3.0.4,59.98105061985483,
thru,&&&&,left,neutral,,,,,,,,0,90,90,42,,,,,,,,,,,,,,,,,,,,,LDT,right,1.600573920935858,0,,,right,0,1.600573920935858,,,,,,,,,,,,,,,,,,,,,,1056,2019_Mar_13_1243,mf_amp_cond2,3.0.4,59.98105061985483,
support,&&&&&&&,left,loyalty.virtue,,,,,,,,0,91,91,116,,,,,,,,,,,,,,,,,,,,,LDT,right,1.5673503961588722,0,,,right,0,1.5673503961588722,,,,,,,,,,,,,,,,,,,,,,1056,2019_Mar_13_1243,mf_amp_cond2,3.0.4,59.98105061985483,
openet,&&&&&&,None,nonword,,,,,,,,0,92,92,71,,,,,,,,,,,,,,,,,,,,,LDT,left,11.653645090817008,0,,,left,0,11.653645090817008,,,,,,,,,,,,,,,,,,,,,,1056,2019_Mar_13_1243,mf_amp_cond2,3.0.4,59.98105061985483,
gusinesslike,&&&&&&&&&&&&,right,nonword,,,,,,,,0,93,93,126,,,,,,,,,,,,,,,,,,,,,LDT,left,2.8177299043454695,0,,,left,0,2.8177299043454695,,,,,,,,,,,,,,,,,,,,,,1056,2019_Mar_13_1243,mf_amp_cond2,3.0.4,59.98105061985483,
give,&&&&,left,neutral,,,,,,,,0,94,94,190,,,,,,,,,,,,,,,,,,,,,LDT,right,1.4006483953271527,0,,,right,0,1.4006483953271527,,,,,,,,,,,,,,,,,,,,,,1056,2019_Mar_13_1243,mf_amp_cond2,3.0.4,59.98105061985483,
mightingale,&&&&&&&&&&&,right,nonword,,,,,,,,0,95,95,113,,,,,,,,,,,,,,,,,,,,,LDT,left,3.317869263177272,0,,,left,0,3.317869263177272,,,,,,,,,,,,,,,,,,,,,,1056,2019_Mar_13_1243,mf_amp_cond2,3.0.4,59.98105061985483,
three,&&&&&,left,neutral,,,,,,,,0,96,96,139,,,,,,,,,,,,,,,,,,,,,LDT,right,1.1839231573103461,0,,,right,0,1.1839231573103461,,,,,,,,,,,,,,,,,,,,,,1056,2019_Mar_13_1243,mf_amp_cond2,3.0.4,59.98105061985483,
tislay,&&&&&&,right,nonword,,,,,,,,0,97,97,70,,,,,,,,,,,,,,,,,,,,,LDT,left,2.634349428495625,0,,,left,0,2.634349428495625,,,,,,,,,,,,,,,,,,,,,,1056,2019_Mar_13_1243,mf_amp_cond2,3.0.4,59.98105061985483,
there,&&&&&,left,neutral,,,,,,,,0,98,98,172,,,,,,,,,,,,,,,,,,,,,LDT,right,1.4006788650294766,0,,,right,0,1.4006788650294766,,,,,,,,,,,,,,,,,,,,,,1056,2019_Mar_13_1243,mf_amp_cond2,3.0.4,59.98105061985483,
violence,&&&&&&&&,left,care.vice,,,,,,,,0,99,99,77,,,,,,,,,,,,,,,,,,,,,LDT,right,1.0672354131238535,0,,,right,0,1.0672354131238535,,,,,,,,,,,,,,,,,,,,,,1056,2019_Mar_13_1243,mf_amp_cond2,3.0.4,59.98105061985483,
troubla,&&&&&&&,right,nonword,,,,,,,,0,100,100,75,,,,,,,,,,,,,,,,,,,,,LDT,right,5.035041443625232,1,,,right,1,5.035041443625232,,,,,,,,,,,,,,,,,,,,,,1056,2019_Mar_13_1243,mf_amp_cond2,3.0.4,59.98105061985483,
ejanulated,&&&&&&&&&&,right,nonword,,,,,,,,0,101,101,106,,,,,,,,,,,,,,,,,,,,,LDT,right,4.3181665833399165,1,,,right,1,4.3181665833399165,,,,,,,,,,,,,,,,,,,,,,1056,2019_Mar_13_1243,mf_amp_cond2,3.0.4,59.98105061985483,
anything,&&&&&&&&,left,neutral,,,,,,,,0,102,102,37,,,,,,,,,,,,,,,,,,,,,LDT,right,4.518231948866742,0,,,right,0,4.518231948866742,,,,,,,,,,,,,,,,,,,,,,1056,2019_Mar_13_1243,mf_amp_cond2,3.0.4,59.98105061985483,
amoungst,&&&&&&&&,left,neutral,,,,,,,,0,103,103,92,,,,,,,,,,,,,,,,,,,,,LDT,right,3.768022269185167,0,,,right,0,3.768022269185167,,,,,,,,,,,,,,,,,,,,,,1056,2019_Mar_13_1243,mf_amp_cond2,3.0.4,59.98105061985483,
stindig,&&&&&&&,right,nonword,,,,,,,,0,104,104,128,,,,,,,,,,,,,,,,,,,,,LDT,right,5.185101853800006,1,,,right,1,5.185101853800006,,,,,,,,,,,,,,,,,,,,,,1056,2019_Mar_13_1243,mf_amp_cond2,3.0.4,59.98105061985483,
celebrated,&&&&&&&&&&,left,authority.virtue,,,,,,,,0,105,105,1,,,,,,,,,,,,,,,,,,,,,LDT,right,0.9005260354024358,0,,,right,0,0.9005260354024358,,,,,,,,,,,,,,,,,,,,,,1056,2019_Mar_13_1243,mf_amp_cond2,3.0.4,59.98105061985483,
eight,&&&&&,left,neutral,,,,,,,,0,106,106,186,,,,,,,,,,,,,,,,,,,,,LDT,right,1.0838920782553032,0,,,right,0,1.0838920782553032,,,,,,,,,,,,,,,,,,,,,,1056,2019_Mar_13_1243,mf_amp_cond2,3.0.4,59.98105061985483,
blunderints,&&&&&&&&&&&,right,nonword,,,,,,,,0,107,107,178,,,,,,,,,,,,,,,,,,,,,LDT,left,0.9838635649939533,0,,,left,0,0.9838635649939533,,,,,,,,,,,,,,,,,,,,,,1056,2019_Mar_13_1243,mf_amp_cond2,3.0.4,59.98105061985483,
front,&&&&&,left,neutral,,,,,,,,0,108,108,164,,,,,,,,,,,,,,,,,,,,,LDT,right,1.9508754587732255,0,,,right,0,1.9508754587732255,,,,,,,,,,,,,,,,,,,,,,1056,2019_Mar_13_1243,mf_amp_cond2,3.0.4,59.98105061985483,
gandbrake,&&&&&&&&&,right,nonword,,,,,,,,0,109,109,154,,,,,,,,,,,,,,,,,,,,,LDT,left,4.4182560359477066,0,,,left,0,4.4182560359477066,,,,,,,,,,,,,,,,,,,,,,1056,2019_Mar_13_1243,mf_amp_cond2,3.0.4,59.98105061985483,
somehow,&&&&&&&,left,neutral,,,,,,,,0,110,110,16,,,,,,,,,,,,,,,,,,,,,LDT,right,1.6673955875448883,0,,,right,0,1.6673955875448883,,,,,,,,,,,,,,,,,,,,,,1056,2019_Mar_13_1243,mf_amp_cond2,3.0.4,59.98105061985483,
wherever,&&&&&&&&,left,neutral,,,,,,,,0,111,111,94,,,,,,,,,,,,,,,,,,,,,LDT,right,2.0674996977031697,0,,,right,0,2.0674996977031697,,,,,,,,,,,,,,,,,,,,,,1056,2019_Mar_13_1243,mf_amp_cond2,3.0.4,59.98105061985483,
although,&&&&&&&&,left,neutral,,,,,,,,0,112,112,156,,,,,,,,,,,,,,,,,,,,,LDT,right,2.034203045623144,0,,,right,0,2.034203045623144,,,,,,,,,,,,,,,,,,,,,,1056,2019_Mar_13_1243,mf_amp_cond2,3.0.4,59.98105061985483,
oam,&&&,right,nonword,,,,,,,,0,113,113,90,,,,,,,,,,,,,,,,,,,,,LDT,left,2.6509964716096874,0,,,left,0,2.6509964716096874,,,,,,,,,,,,,,,,,,,,,,1056,2019_Mar_13_1243,mf_amp_cond2,3.0.4,59.98105061985483,
injured,&&&&&&&,left,care.vice,,,,,,,,0,114,114,32,,,,,,,,,,,,,,,,,,,,,LDT,right,1.917461097415071,0,,,right,0,1.917461097415071,,,,,,,,,,,,,,,,,,,,,,1056,2019_Mar_13_1243,mf_amp_cond2,3.0.4,59.98105061985483,
gedious,&&&&&&&,right,nonword,,,,,,,,0,115,115,146,,,,,,,,,,,,,,,,,,,,,LDT,left,2.350891367153963,0,,,left,0,2.350891367153963,,,,,,,,,,,,,,,,,,,,,,1056,2019_Mar_13_1243,mf_amp_cond2,3.0.4,59.98105061985483,
itself,&&&&&&,left,neutral,,,,,,,,0,116,116,25,,,,,,,,,,,,,,,,,,,,,LDT,right,1.8841265987430234,0,,,right,0,1.8841265987430234,,,,,,,,,,,,,,,,,,,,,,1056,2019_Mar_13_1243,mf_amp_cond2,3.0.4,59.98105061985483,
free,&&&&,left,fairness.virtue,,,,,,,,0,117,117,98,,,,,,,,,,,,,,,,,,,,,LDT,right,1.9841525460942648,0,,,right,0,1.9841525460942648,,,,,,,,,,,,,,,,,,,,,,1056,2019_Mar_13_1243,mf_amp_cond2,3.0.4,59.98105061985483,
mecan,&&&&&,right,nonword,,,,,,,,0,118,118,55,,,,,,,,,,,,,,,,,,,,,LDT,left,2.2675730815681163,0,,,left,0,2.2675730815681163,,,,,,,,,,,,,,,,,,,,,,1056,2019_Mar_13_1243,mf_amp_cond2,3.0.4,59.98105061985483,
betrayal,&&&&&&&&,left,loyalty.vice,,,,,,,,0,119,119,10,,,,,,,,,,,,,,,,,,,,,LDT,right,1.5507014286413323,0,,,right,0,1.5507014286413323,,,,,,,,,,,,,,,,,,,,,,1056,2019_Mar_13_1243,mf_amp_cond2,3.0.4,59.98105061985483,
abuse,&&&&&,left,sanctity.vice,,,,,,,,0,120,120,181,,,,,,,,,,,,,,,,,,,,,LDT,right,1.667402643681271,0,,,right,0,1.667402643681271,,,,,,,,,,,,,,,,,,,,,,1056,2019_Mar_13_1243,mf_amp_cond2,3.0.4,59.98105061985483,
emassion,&&&&&&&&,right,nonword,,,,,,,,0,121,121,112,,,,,,,,,,,,,,,,,,,,,LDT,left,3.8680376323172823,0,,,left,0,3.8680376323172823,,,,,,,,,,,,,,,,,,,,,,1056,2019_Mar_13_1243,mf_amp_cond2,3.0.4,59.98105061985483,
gowlands,&&&&&&&&,right,nonword,,,,,,,,0,122,122,184,,,,,,,,,,,,,,,,,,,,,LDT,left,1.1505671695049386,0,,,left,0,1.1505671695049386,,,,,,,,,,,,,,,,,,,,,,1056,2019_Mar_13_1243,mf_amp_cond2,3.0.4,59.98105061985483,
pulge,&&&&&,right,nonword,,,,,,,,0,123,123,73,,,,,,,,,,,,,,,,,,,,,LDT,left,3.884702636511065,0,,,left,0,3.884702636511065,,,,,,,,,,,,,,,,,,,,,,1056,2019_Mar_13_1243,mf_amp_cond2,3.0.4,59.98105061985483,
clean,&&&&&,left,sanctity.virtue,,,,,,,,0,124,124,50,,,,,,,,,,,,,,,,,,,,,LDT,right,1.3839728069142438,0,,,right,0,1.3839728069142438,,,,,,,,,,,,,,,,,,,,,,1056,2019_Mar_13_1243,mf_amp_cond2,3.0.4,59.98105061985483,
Oregoniuns,&&&&&&&&&&,right,nonword,,,,,,,,0,125,125,125,,,,,,,,,,,,,,,,,,,,,LDT,left,2.90115306986263,0,,,left,0,2.90115306986263,,,,,,,,,,,,,,,,,,,,,,1056,2019_Mar_13_1243,mf_amp_cond2,3.0.4,59.98105061985483,
even,&&&&,left,neutral,,,,,,,,0,126,126,12,,,,,,,,,,,,,,,,,,,,,LDT,right,1.38397569351946,0,,,right,0,1.38397569351946,,,,,,,,,,,,,,,,,,,,,,1056,2019_Mar_13_1243,mf_amp_cond2,3.0.4,59.98105061985483,
emports,&&&&&&&,right,nonword,,,,,,,,0,127,127,159,,,,,,,,,,,,,,,,,,,,,LDT,right,6.052026540070074,1,,,right,1,6.052026540070074,,,,,,,,,,,,,,,,,,,,,,1056,2019_Mar_13_1243,mf_amp_cond2,3.0.4,59.98105061985483,
fornicalion,&&&&&&&&&&&,right,nonword,,,,,,,,0,128,128,122,,,,,,,,,,,,,,,,,,,,,LDT,right,2.7343875637161545,1,,,right,1,2.7343875637161545,,,,,,,,,,,,,,,,,,,,,,1056,2019_Mar_13_1243,mf_amp_cond2,3.0.4,59.98105061985483,
counpy's,&&&&&&&&,right,nonword,,,,,,,,0,129,129,39,,,,,,,,,,,,,,,,,,,,,LDT,left,4.13476365612587,0,,,left,0,4.13476365612587,,,,,,,,,,,,,,,,,,,,,,1056,2019_Mar_13_1243,mf_amp_cond2,3.0.4,59.98105061985483,
totalestic,&&&&&&&&&&,None,nonword,,,,,,,,0,130,130,195,,,,,,,,,,,,,,,,,,,,,LDT,left,1.0005378704809118,0,,,left,0,1.0005378704809118,,,,,,,,,,,,,,,,,,,,,,1056,2019_Mar_13_1243,mf_amp_cond2,3.0.4,59.98105061985483,
strong,&&&&&&,left,loyalty.virtue,,,,,,,,0,131,131,99,,,,,,,,,,,,,,,,,,,,,LDT,right,1.1839173841290176,0,,,right,0,1.1839173841290176,,,,,,,,,,,,,,,,,,,,,,1056,2019_Mar_13_1243,mf_amp_cond2,3.0.4,59.98105061985483,
brudent,&&&&&&&,right,nonword,,,,,,,,0,132,132,76,,,,,,,,,,,,,,,,,,,,,LDT,left,3.3345528699283022,0,,,left,0,3.3345528699283022,,,,,,,,,,,,,,,,,,,,,,1056,2019_Mar_13_1243,mf_amp_cond2,3.0.4,59.98105061985483,
mostly,&&&&&&,left,neutral,,,,,,,,0,133,133,103,,,,,,,,,,,,,,,,,,,,,LDT,left,6.385430541733513,1,,,left,1,6.385430541733513,,,,,,,,,,,,,,,,,,,,,,1056,2019_Mar_13_1243,mf_amp_cond2,3.0.4,59.98105061985483,
cromiscuity,&&&&&&&&&&&,right,nonword,,,,,,,,0,134,134,177,,,,,,,,,,,,,,,,,,,,,LDT,left,1.333991906605661,0,,,left,0,1.333991906605661,,,,,,,,,,,,,,,,,,,,,,1056,2019_Mar_13_1243,mf_amp_cond2,3.0.4,59.98105061985483,
presentkess,&&&&&&&&&&&,right,nonword,,,,,,,,0,135,135,78,,,,,,,,,,,,,,,,,,,,,LDT,right,1.700727841060143,1,,,right,1,1.700727841060143,,,,,,,,,,,,,,,,,,,,,,1056,2019_Mar_13_1243,mf_amp_cond2,3.0.4,59.98105061985483,
vurtain,&&&&&&&,right,nonword,,,,,,,,0,136,136,65,,,,,,,,,,,,,,,,,,,,,LDT,left,3.3012065040820744,0,,,left,0,3.3012065040820744,,,,,,,,,,,,,,,,,,,,,,1056,2019_Mar_13_1243,mf_amp_cond2,3.0.4,59.98105061985483,
iptervention,&&&&&&&&&&&&,right,nonword,,,,,,,,0,137,137,0,,,,,,,,,,,,,,,,,,,,,LDT,left,2.734384677140042,0,,,left,0,2.734384677140042,,,,,,,,,,,,,,,,,,,,,,1056,2019_Mar_13_1243,mf_amp_cond2,3.0.4,59.98105061985483,
growth,&&&&&&,left,care.virtue,,,,,,,,0,138,138,157,,,,,,,,,,,,,,,,,,,,,LDT,right,1.267279289488215,0,,,right,0,1.267279289488215,,,,,,,,,,,,,,,,,,,,,,1056,2019_Mar_13_1243,mf_amp_cond2,3.0.4,59.98105061985483,
nomparisons,&&&&&&&&&&&,right,nonword,,,,,,,,0,139,139,173,,,,,,,,,,,,,,,,,,,,,LDT,right,2.250921227474464,1,,,right,1,2.250921227474464,,,,,,,,,,,,,,,,,,,,,,1056,2019_Mar_13_1243,mf_amp_cond2,3.0.4,59.98105061985483,
were,&&&&,left,neutral,,,,,,,,0,140,140,150,,,,,,,,,,,,,,,,,,,,,LDT,right,1.7674196104926523,0,,,right,0,1.7674196104926523,,,,,,,,,,,,,,,,,,,,,,1056,2019_Mar_13_1243,mf_amp_cond2,3.0.4,59.98105061985483,
actively,&&&&&&&&,left,authority.virtue,,,,,,,,0,141,141,163,,,,,,,,,,,,,,,,,,,,,LDT,right,1.7007599144417327,0,,,right,0,1.7007599144417327,,,,,,,,,,,,,,,,,,,,,,1056,2019_Mar_13_1243,mf_amp_cond2,3.0.4,59.98105061985483,
increase,&&&&&&&&,left,care.virtue,,,,,,,,0,142,142,4,,,,,,,,,,,,,,,,,,,,,LDT,right,1.6173733125906438,0,,,right,0,1.6173733125906438,,,,,,,,,,,,,,,,,,,,,,1056,2019_Mar_13_1243,mf_amp_cond2,3.0.4,59.98105061985483,
neneficence,&&&&&&&&&&&,right,nonword,,,,,,,,0,143,143,143,,,,,,,,,,,,,,,,,,,,,LDT,left,3.5011265772627667,0,,,left,0,3.5011265772627667,,,,,,,,,,,,,,,,,,,,,,1056,2019_Mar_13_1243,mf_amp_cond2,3.0.4,59.98105061985483,
smapper,&&&&&&&,right,nonword,,,,,,,,0,144,144,74,,,,,,,,,,,,,,,,,,,,,LDT,right,1.950796879013069,1,,,right,1,1.950796879013069,,,,,,,,,,,,,,,,,,,,,,1056,2019_Mar_13_1243,mf_amp_cond2,3.0.4,59.98105061985483,
protesters,&&&&&&&&&&,left,authority.vice,,,,,,,,0,145,145,60,,,,,,,,,,,,,,,,,,,,,LDT,right,2.034171292965766,0,,,right,0,2.034171292965766,,,,,,,,,,,,,,,,,,,,,,1056,2019_Mar_13_1243,mf_amp_cond2,3.0.4,59.98105061985483,
chared,&&&&&&,right,nonword,,,,,,,,0,146,146,169,,,,,,,,,,,,,,,,,,,,,LDT,left,19.505916414840613,0,,,left,0,19.505916414840613,,,,,,,,,,,,,,,,,,,,,,1056,2019_Mar_13_1243,mf_amp_cond2,3.0.4,59.98105061985483,
bluently,&&&&&&&&,None,nonword,,,,,,,,0,147,147,27,,,,,,,,,,,,,,,,,,,,,LDT,left,1.734074206877267,0,,,left,0,1.734074206877267,,,,,,,,,,,,,,,,,,,,,,1056,2019_Mar_13_1243,mf_amp_cond2,3.0.4,59.98105061985483,
voter,&&&&&,left,fairness.vice,,,,,,,,0,148,148,162,,,,,,,,,,,,,,,,,,,,,LDT,right,1.0838866257690825,0,,,right,0,1.0838866257690825,,,,,,,,,,,,,,,,,,,,,,1056,2019_Mar_13_1243,mf_amp_cond2,3.0.4,59.98105061985483,
fear,&&&&,left,sanctity.vice,,,,,,,,0,149,149,191,,,,,,,,,,,,,,,,,,,,,LDT,right,1.4838601973024197,0,,,right,0,1.4838601973024197,,,,,,,,,,,,,,,,,,,,,,1056,2019_Mar_13_1243,mf_amp_cond2,3.0.4,59.98105061985483,
towards,&&&&&&&,left,neutral,,,,,,,,0,150,150,165,,,,,,,,,,,,,,,,,,,,,LDT,right,1.2672911566332914,0,,,right,0,1.2672911566332914,,,,,,,,,,,,,,,,,,,,,,1056,2019_Mar_13_1243,mf_amp_cond2,3.0.4,59.98105061985483,
anyhow,&&&&&&,left,neutral,,,,,,,,0,151,151,153,,,,,,,,,,,,,,,,,,,,,LDT,right,1.8674561420630198,0,,,right,0,1.8674561420630198,,,,,,,,,,,,,,,,,,,,,,1056,2019_Mar_13_1243,mf_amp_cond2,3.0.4,59.98105061985483,
gaultless,&&&&&&&&&,right,nonword,,,,,,,,0,152,152,110,,,,,,,,,,,,,,,,,,,,,LDT,left,5.485189638653537,0,,,left,0,5.485189638653537,,,,,,,,,,,,,,,,,,,,,,1056,2019_Mar_13_1243,mf_amp_cond2,3.0.4,59.98105061985483,
couldnt,&&&&&&&,left,neutral,,,,,,,,0,153,153,102,,,,,,,,,,,,,,,,,,,,,LDT,right,1.2672905151848681,0,,,right,0,1.2672905151848681,,,,,,,,,,,,,,,,,,,,,,1056,2019_Mar_13_1243,mf_amp_cond2,3.0.4,59.98105061985483,
respect,&&&&&&&,left,sanctity.virtue,,,,,,,,0,154,154,197,,,,,,,,,,,,,,,,,,,,,LDT,right,1.3839772971987259,0,,,right,0,1.3839772971987259,,,,,,,,,,,,,,,,,,,,,,1056,2019_Mar_13_1243,mf_amp_cond2,3.0.4,59.98105061985483,
fostet,&&&&&&,right,nonword,,,,,,,,0,155,155,45,,,,,,,,,,,,,,,,,,,,,LDT,right,1.3673296126071364,1,,,right,1,1.3673296126071364,,,,,,,,,,,,,,,,,,,,,,1056,2019_Mar_13_1243,mf_amp_cond2,3.0.4,59.98105061985483,
forced,&&&&&&,left,fairness.vice,,,,,,,,0,156,156,31,,,,,,,,,,,,,,,,,,,,,LDT,right,1.0338823118945584,0,,,right,0,1.0338823118945584,,,,,,,,,,,,,,,,,,,,,,1056,2019_Mar_13_1243,mf_amp_cond2,3.0.4,59.98105061985483,
police,&&&&&&,left,authority.vice,,,,,,,,0,157,157,5,,,,,,,,,,,,,,,,,,,,,LDT,right,1.7174059953540564,0,,,right,0,1.7174059953540564,,,,,,,,,,,,,,,,,,,,,,1056,2019_Mar_13_1243,mf_amp_cond2,3.0.4,59.98105061985483,
clamorek,&&&&&&&&,right,nonword,,,,,,,,0,158,158,158,,,,,,,,,,,,,,,,,,,,,LDT,left,3.0678098472126294,0,,,left,0,3.0678098472126294,,,,,,,,,,,,,,,,,,,,,,1056,2019_Mar_13_1243,mf_amp_cond2,3.0.4,59.98105061985483,
fifteen,&&&&&&&,left,neutral,,,,,,,,0,159,159,132,,,,,,,,,,,,,,,,,,,,,LDT,right,1.0672164898132905,0,,,right,0,1.0672164898132905,,,,,,,,,,,,,,,,,,,,,,1056,2019_Mar_13_1243,mf_amp_cond2,3.0.4,59.98105061985483,
least,&&&&&,left,neutral,,,,,,,,0,160,160,59,,,,,,,,,,,,,,,,,,,,,LDT,right,1.6840602710144594,0,,,right,0,1.6840602710144594,,,,,,,,,,,,,,,,,,,,,,1056,2019_Mar_13_1243,mf_amp_cond2,3.0.4,59.98105061985483,
troops,&&&&&&,left,loyalty.vice,,,,,,,,0,161,161,38,,,,,,,,,,,,,,,,,,,,,LDT,right,1.2672417636495084,0,,,right,0,1.2672417636495084,,,,,,,,,,,,,,,,,,,,,,1056,2019_Mar_13_1243,mf_amp_cond2,3.0.4,59.98105061985483,
suicide,&&&&&&&,left,care.vice,,,,,,,,0,162,162,57,,,,,,,,,,,,,,,,,,,,,LDT,right,1.5506930895789992,0,,,right,0,1.5506930895789992,,,,,,,,,,,,,,,,,,,,,,1056,2019_Mar_13_1243,mf_amp_cond2,3.0.4,59.98105061985483,
pullness,&&&&&&&&,right,nonword,,,,,,,,0,163,163,189,,,,,,,,,,,,,,,,,,,,,LDT,right,1.9840290636057034,1,,,right,1,1.9840290636057034,,,,,,,,,,,,,,,,,,,,,,1056,2019_Mar_13_1243,mf_amp_cond2,3.0.4,59.98105061985483,
else,&&&&,left,neutral,,,,,,,,0,164,164,3,,,,,,,,,,,,,,,,,,,,,LDT,right,1.2339560164837167,0,,,right,0,1.2339560164837167,,,,,,,,,,,,,,,,,,,,,,1056,2019_Mar_13_1243,mf_amp_cond2,3.0.4,59.98105061985483,
tove,&&&&,right,nonword,,,,,,,,0,165,165,20,,,,,,,,,,,,,,,,,,,,,LDT,right,2.117525821493473,1,,,right,1,2.117525821493473,,,,,,,,,,,,,,,,,,,,,,1056,2019_Mar_13_1243,mf_amp_cond2,3.0.4,59.98105061985483,
refuejing,&&&&&&&&&,right,nonword,,,,,,,,0,166,166,188,,,,,,,,,,,,,,,,,,,,,LDT,left,1.5673606596537866,0,,,left,0,1.5673606596537866,,,,,,,,,,,,,,,,,,,,,,1056,2019_Mar_13_1243,mf_amp_cond2,3.0.4,59.98105061985483,
lorthwhile,&&&&&&&&&&,right,nonword,,,,,,,,0,167,167,135,,,,,,,,,,,,,,,,,,,,,LDT,left,1.2006058018887416,0,,,left,0,1.2006058018887416,,,,,,,,,,,,,,,,,,,,,,1056,2019_Mar_13_1243,mf_amp_cond2,3.0.4,59.98105061985483,
arrests,&&&&&&&,left,authority.vice,,,,,,,,0,168,168,176,,,,,,,,,,,,,,,,,,,,,LDT,right,1.067217452044133,0,,,right,0,1.067217452044133,,,,,,,,,,,,,,,,,,,,,,1056,2019_Mar_13_1243,mf_amp_cond2,3.0.4,59.98105061985483,
hence,&&&&&,left,neutral,,,,,,,,0,169,169,52,,,,,,,,,,,,,,,,,,,,,LDT,right,1.3339521356392652,0,,,right,0,1.3339521356392652,,,,,,,,,,,,,,,,,,,,,,1056,2019_Mar_13_1243,mf_amp_cond2,3.0.4,59.98105061985483,
uller,&&&&&,right,nonword,,,,,,,,0,170,170,111,,,,,,,,,,,,,,,,,,,,,LDT,left,2.150871545803966,0,,,left,0,2.150871545803966,,,,,,,,,,,,,,,,,,,,,,1056,2019_Mar_13_1243,mf_amp_cond2,3.0.4,59.98105061985483,
nackers,&&&&&&&,right,nonword,,,,,,,,0,171,171,47,,,,,,,,,,,,,,,,,,,,,LDT,left,2.0508282788214274,0,,,left,0,2.0508282788214274,,,,,,,,,,,,,,,,,,,,,,1056,2019_Mar_13_1243,mf_amp_cond2,3.0.4,59.98105061985483,
tomedians,&&&&&&&&&,right,nonword,,,,,,,,0,172,172,51,,,,,,,,,,,,,,,,,,,,,LDT,left,2.017487365490524,0,,,left,0,2.017487365490524,,,,,,,,,,,,,,,,,,,,,,1056,2019_Mar_13_1243,mf_amp_cond2,3.0.4,59.98105061985483,
clattening,&&&&&&&&&&,right,nonword,,,,,,,,0,173,173,43,,,,,,,,,,,,,,,,,,,,,LDT,right,1.0338768594374415,1,,,right,1,1.0338768594374415,,,,,,,,,,,,,,,,,,,,,,1056,2019_Mar_13_1243,mf_amp_cond2,3.0.4,59.98105061985483,
ensure,&&&&&&,left,fairness.virtue,,,,,,,,0,174,174,35,,,,,,,,,,,,,,,,,,,,,LDT,left,1.3673013880616054,1,,,left,1,1.3673013880616054,,,,,,,,,,,,,,,,,,,,,,1056,2019_Mar_13_1243,mf_amp_cond2,3.0.4,59.98105061985483,
harassment,&&&&&&&&&&,left,sanctity.vice,,,,,,,,0,175,175,161,,,,,,,,,,,,,,,,,,,,,LDT,right,1.4172765151306521,0,,,right,0,1.4172765151306521,,,,,,,,,,,,,,,,,,,,,,1056,2019_Mar_13_1243,mf_amp_cond2,3.0.4,59.98105061985483,
both,&&&&,left,neutral,,,,,,,,0,176,176,11,,,,,,,,,,,,,,,,,,,,,LDT,right,0.9671937497914769,0,,,right,0,0.9671937497914769,,,,,,,,,,,,,,,,,,,,,,1056,2019_Mar_13_1243,mf_amp_cond2,3.0.4,59.98105061985483,
photocalkodes,&&&&&&&&&&&&&,right,nonword,,,,,,,,0,177,177,198,,,,,,,,,,,,,,,,,,,,,LDT,left,3.984728904644726,0,,,left,0,3.984728904644726,,,,,,,,,,,,,,,,,,,,,,1056,2019_Mar_13_1243,mf_amp_cond2,3.0.4,59.98105061985483,
toward,&&&&&&,left,neutral,,,,,,,,0,178,178,109,,,,,,,,,,,,,,,,,,,,,LDT,right,0.9504719757242128,0,,,right,0,0.9504719757242128,,,,,,,,,,,,,,,,,,,,,,1056,2019_Mar_13_1243,mf_amp_cond2,3.0.4,59.98105061985483,
less,&&&&,left,neutral,,,,,,,,0,179,179,91,,,,,,,,,,,,,,,,,,,,,LDT,right,1.2172724097617902,0,,,right,0,1.2172724097617902,,,,,,,,,,,,,,,,,,,,,,1056,2019_Mar_13_1243,mf_amp_cond2,3.0.4,59.98105061985483,
unreflectuve,&&&&&&&&&&&&,right,nonword,,,,,,,,0,180,180,8,,,,,,,,,,,,,,,,,,,,,LDT,left,4.701627819915302,0,,,left,0,4.701627819915302,,,,,,,,,,,,,,,,,,,,,,1056,2019_Mar_13_1243,mf_amp_cond2,3.0.4,59.98105061985483,
taxpayung,&&&&&&&&&,right,nonword,,,,,,,,0,181,181,108,,,,,,,,,,,,,,,,,,,,,LDT,left,1.1005631763546262,0,,,left,0,1.1005631763546262,,,,,,,,,,,,,,,,,,,,,,1056,2019_Mar_13_1243,mf_amp_cond2,3.0.4,59.98105061985483,
agreement,&&&&&&&&&,left,fairness.virtue,,,,,,,,0,182,182,97,,,,,,,,,,,,,,,,,,,,,LDT,right,0.7671277427871246,0,,,right,0,0.7671277427871246,,,,,,,,,,,,,,,,,,,,,,1056,2019_Mar_13_1243,mf_amp_cond2,3.0.4,59.98105061985483,
victims,&&&&&&&,left,care.vice,,,,,,,,0,183,183,138,,,,,,,,,,,,,,,,,,,,,LDT,right,1.1172089365427382,0,,,right,0,1.1172089365427382,,,,,,,,,,,,,,,,,,,,,,1056,2019_Mar_13_1243,mf_amp_cond2,3.0.4,59.98105061985483,
ability,&&&&&&&,left,authority.virtue,,,,,,,,0,184,184,2,,,,,,,,,,,,,,,,,,,,,LDT,right,0.850510175107047,0,,,right,0,0.850510175107047,,,,,,,,,,,,,,,,,,,,,,1056,2019_Mar_13_1243,mf_amp_cond2,3.0.4,59.98105061985483,
crime,&&&&&,left,fairness.vice,,,,,,,,0,185,185,93,,,,,,,,,,,,,,,,,,,,,LDT,right,0.7004927432280965,0,,,right,0,0.7004927432280965,,,,,,,,,,,,,,,,,,,,,,1056,2019_Mar_13_1243,mf_amp_cond2,3.0.4,59.98105061985483,
disregord,&&&&&&&&&,right,nonword,,,,,,,,0,186,186,61,,,,,,,,,,,,,,,,,,,,,LDT,right,1.4340040624083485,1,,,right,1,1.4340040624083485,,,,,,,,,,,,,,,,,,,,,,1056,2019_Mar_13_1243,mf_amp_cond2,3.0.4,59.98105061985483,
perified,&&&&&&&&,right,nonword,,,,,,,,0,187,187,15,,,,,,,,,,,,,,,,,,,,,LDT,left,3.634629749780288,0,,,left,0,3.634629749780288,,,,,,,,,,,,,,,,,,,,,,1056,2019_Mar_13_1243,mf_amp_cond2,3.0.4,59.98105061985483,
everything,&&&&&&&&&&,left,neutral,,,,,,,,0,188,188,89,,,,,,,,,,,,,,,,,,,,,LDT,right,1.7674215348961297,0,,,right,0,1.7674215348961297,,,,,,,,,,,,,,,,,,,,,,1056,2019_Mar_13_1243,mf_amp_cond2,3.0.4,59.98105061985483,
pafer,&&&&&,right,nonword,,,,,,,,0,189,189,166,,,,,,,,,,,,,,,,,,,,,LDT,left,4.168123172043124,0,,,left,0,4.168123172043124,,,,,,,,,,,,,,,,,,,,,,1056,2019_Mar_13_1243,mf_amp_cond2,3.0.4,59.98105061985483,
slavery,&&&&&&&,left,loyalty.vice,,,,,,,,0,190,190,179,,,,,,,,,,,,,,,,,,,,,LDT,right,1.3339598332240712,0,,,right,0,1.3339598332240712,,,,,,,,,,,,,,,,,,,,,,1056,2019_Mar_13_1243,mf_amp_cond2,3.0.4,59.98105061985483,
rorroborated,&&&&&&&&&&&&,right,nonword,,,,,,,,0,191,191,54,,,,,,,,,,,,,,,,,,,,,LDT,left,3.701315104524838,0,,,left,0,3.701315104524838,,,,,,,,,,,,,,,,,,,,,,1056,2019_Mar_13_1243,mf_amp_cond2,3.0.4,59.98105061985483,
gillipede,&&&&&&&&&,None,nonword,,,,,,,,0,192,192,180,,,,,,,,,,,,,,,,,,,,,LDT,left,2.651036242576083,0,,,left,0,2.651036242576083,,,,,,,,,,,,,,,,,,,,,,1056,2019_Mar_13_1243,mf_amp_cond2,3.0.4,59.98105061985483,
nuckheap,&&&&&&&&,right,nonword,,,,,,,,0,193,193,79,,,,,,,,,,,,,,,,,,,,,LDT,left,1.3672930489701685,0,,,left,0,1.3672930489701685,,,,,,,,,,,,,,,,,,,,,,1056,2019_Mar_13_1243,mf_amp_cond2,3.0.4,59.98105061985483,
conspiracy,&&&&&&&&&&,left,sanctity.vice,,,,,,,,0,194,194,40,,,,,,,,,,,,,,,,,,,,,LDT,right,0.7838058970519342,0,,,right,0,0.7838058970519342,,,,,,,,,,,,,,,,,,,,,,1056,2019_Mar_13_1243,mf_amp_cond2,3.0.4,59.98105061985483,
scandal,&&&&&&&,left,sanctity.vice,,,,,,,,0,195,195,148,,,,,,,,,,,,,,,,,,,,,LDT,right,0.9838600369403139,0,,,right,0,0.9838600369403139,,,,,,,,,,,,,,,,,,,,,,1056,2019_Mar_13_1243,mf_amp_cond2,3.0.4,59.98105061985483,
bruthfulness,&&&&&&&&&&&&,right,nonword,,,,,,,,0,196,196,44,,,,,,,,,,,,,,,,,,,,,LDT,right,1.033884236268932,1,,,right,1,1.033884236268932,,,,,,,,,,,,,,,,,,,,,,1056,2019_Mar_13_1243,mf_amp_cond2,3.0.4,59.98105061985483,
erks,&&&&,right,nonword,,,,,,,,0,197,197,100,,,,,,,,,,,,,,,,,,,,,LDT,left,2.2008806706871837,0,,,left,0,2.2008806706871837,,,,,,,,,,,,,,,,,,,,,,1056,2019_Mar_13_1243,mf_amp_cond2,3.0.4,59.98105061985483,
safe,&&&&,left,care.virtue,,,,,,,,0,198,198,167,,,,,,,,,,,,,,,,,,,,,LDT,right,2.084156042081304,0,,,right,0,2.084156042081304,,,,,,,,,,,,,,,,,,,,,,1056,2019_Mar_13_1243,mf_amp_cond2,3.0.4,59.98105061985483,
bycled,&&&&&&,None,nonword,,,,,,,,0,199,199,6,,,,,,,,,,,,,,,,,,,,,LDT,left,2.2008938207873143,0,,,left,0,2.2008938207873143,,,,,,,,,,,,,,,,,,,,,,1056,2019_Mar_13_1243,mf_amp_cond2,3.0.4,59.98105061985483,
,,,,,,,,,,,,,,,,,,,,,,,,,,,,,,,,,,,,,,,,,,,,3,18.124,,,,,,,,,,,,,,,,,,,,1056,2019_Mar_13_1243,mf_amp_cond2,3.0.4,59.98105061985483,
,,,,,,,,,,,,,,,,,,,,,,,,,,,,,,,,,,,,,,,,,,,,,,right,2.9511063870450016,,,,,,,,,,,,,,,,,,1056,2019_Mar_13_1243,mf_amp_cond2,3.0.4,59.98105061985483,
scarf,&&&&&&&&,,,bisebell,,,,,,,,,,,0,0,0,3,,,,,,,,,,,,,,,,,AMP_prac,right,1.9674724674259778,,,,,,,,,,,right,1.9674724674259778,,,,,,,,,,,,,,,,1056,2019_Mar_13_1243,mf_amp_cond2,3.0.4,59.98105061985483,
banana,&&&&&&,,,kacket,,,,,,,,,,,0,1,1,1,,,,,,,,,,,,,,,,,AMP_prac,right,1.117232670832891,,,,,,,,,,,right,1.117232670832891,,,,,,,,,,,,,,,,1056,2019_Mar_13_1243,mf_amp_cond2,3.0.4,59.98105061985483,
car,&&&&&&&&,,,cemtuper,,,,,,,,,,,0,2,2,0,,,,,,,,,,,,,,,,,AMP_prac,right,0.7838030104758218,,,,,,,,,,,right,0.7838030104758218,,,,,,,,,,,,,,,,1056,2019_Mar_13_1243,mf_amp_cond2,3.0.4,59.98105061985483,
keyboard,&&&&,,,senk,,,,,,,,,,,0,3,3,2,,,,,,,,,,,,,,,,,AMP_prac,right,1.1339040897146333,,,,,,,,,,,right,1.1339040897146333,,,,,,,,,,,,,,,,1056,2019_Mar_13_1243,mf_amp_cond2,3.0.4,59.98105061985483,
,,,,,,,,,,,,,,,,,,,,,,,,,,,,,,,,,,,,,,,,,,,,,,,,,,right,1.4173332850041334,,,,,,,,,,,,,,1056,2019_Mar_13_1243,mf_amp_cond2,3.0.4,59.98105061985483,
love,&&&&&&,left,loyalty.virtue,gikely,,,,,,,,,,,,,,,0,0,0,267,,,,,,,,,,,,,AMP,right,1.017225326038897,0,,,,,,,,,,,,,,right,0,1.017225326038897,,,,,,,,,,,1056,2019_Mar_13_1243,mf_amp_cond2,3.0.4,59.98105061985483,
killed,&&&&&&&&&&,right,care.vice,imebreaker,,,,,,,,,,,,,,,0,1,1,93,,,,,,,,,,,,,AMP,left,1.0005526242312044,0,,,,,,,,,,,,,,left,0,1.0005526242312044,,,,,,,,,,,1056,2019_Mar_13_1243,mf_amp_cond2,3.0.4,59.98105061985483,
divility,&&&&&&&&,None,nonword,ugeasily,,,,,,,,,,,,,,,0,2,2,308,,,,,,,,,,,,,AMP,left,3.201191782427486,0,,,,,,,,,,,,,,left,0,3.201191782427486,,,,,,,,,,,1056,2019_Mar_13_1243,mf_amp_cond2,3.0.4,59.98105061985483,
terrorists,&&&&&&&&,right,fairness.vice,epigrach,,,,,,,,,,,,,,,0,3,3,251,,,,,,,,,,,,,AMP,left,0.650422678940231,0,,,,,,,,,,,,,,left,0,0.650422678940231,,,,,,,,,,,1056,2019_Mar_13_1243,mf_amp_cond2,3.0.4,59.98105061985483,
progress,&&&&&&&&&&,left,authority.virtue,imebreaker,,,,,,,,,,,,,,,0,4,4,4,,,,,,,,,,,,,AMP,right,0.7004577832703944,0,,,,,,,,,,,,,,right,0,0.7004577832703944,,,,,,,,,,,1056,2019_Mar_13_1243,mf_amp_cond2,3.0.4,59.98105061985483,
divility,&&&&&&&,None,nonword,menizen,,,,,,,,,,,,,,,0,5,5,26,,,,,,,,,,,,,AMP,left,3.1844924596953206,0,,,,,,,,,,,,,,left,0,3.1844924596953206,,,,,,,,,,,1056,2019_Mar_13_1243,mf_amp_cond2,3.0.4,59.98105061985483,
powerful,&&&&&&&,left,authority.virtue,allears,,,,,,,,,,,,,,,0,6,6,56,,,,,,,,,,,,,AMP,left,2.650957342091715,1,,,,,,,,,,,,,,left,1,2.650957342091715,,,,,,,,,,,1056,2019_Mar_13_1243,mf_amp_cond2,3.0.4,59.98105061985483,
progress,&&&&&&&&&&&&&,left,authority.virtue,wonderfujnoss,,,,,,,,,,,,,,,0,7,7,149,,,,,,,,,,,,,AMP,right,1.20056154060876,0,,,,,,,,,,,,,,right,0,1.20056154060876,,,,,,,,,,,1056,2019_Mar_13_1243,mf_amp_cond2,3.0.4,59.98105061985483,
sexual,&&&&&&&&&&&,right,sanctity.vice,shoirmaster,,,,,,,,,,,,,,,0,8,8,164,,,,,,,,,,,,,AMP,right,4.384845523425611,1,,,,,,,,,,,,,,right,1,4.384845523425611,,,,,,,,,,,1056,2019_Mar_13_1243,mf_amp_cond2,3.0.4,59.98105061985483,
pescinded,&&&&&&&,None,nonword,reviked,,,,,,,,,,,,,,,0,9,9,91,,,,,,,,,,,,,AMP,right,2.2342000948556233,0,,,,,,,,,,,,,,right,0,2.2342000948556233,,,,,,,,,,,1056,2019_Mar_13_1243,mf_amp_cond2,3.0.4,59.98105061985483,
drug,&&&&&&&&&&,right,sanctity.vice,chonograph,,,,,,,,,,,,,,,0,10,10,13,,,,,,,,,,,,,AMP,left,1.200582067569485,0,,,,,,,,,,,,,,left,0,1.200582067569485,,,,,,,,,,,1056,2019_Mar_13_1243,mf_amp_cond2,3.0.4,59.98105061985483,
attacks,&&&&&,right,care.vice,framo,,,,,,,,,,,,,,,0,11,11,19,,,,,,,,,,,,,AMP,left,0.8004728256491944,0,,,,,,,,,,,,,,left,0,0.8004728256491944,,,,,,,,,,,1056,2019_Mar_13_1243,mf_amp_cond2,3.0.4,59.98105061985483,
perfect,&&&&&&&&&&&,left,sanctity.virtue,lempestuous,,,,,,,,,,,,,,,0,12,12,295,,,,,,,,,,,,,AMP,right,0.6003834051080048,0,,,,,,,,,,,,,,right,0,0.6003834051080048,,,,,,,,,,,1056,2019_Mar_13_1243,mf_amp_cond2,3.0.4,59.98105061985483,
killed,&&&&&&&,right,care.vice,reviked,,,,,,,,,,,,,,,0,13,13,315,,,,,,,,,,,,,AMP,left,0.7671357611252461,0,,,,,,,,,,,,,,left,0,0.7671357611252461,,,,,,,,,,,1056,2019_Mar_13_1243,mf_amp_cond2,3.0.4,59.98105061985483,
praised,&&&&&&,left,loyalty.virtue,fegard,,,,,,,,,,,,,,,0,14,14,105,,,,,,,,,,,,,AMP,right,1.7674314776377287,0,,,,,,,,,,,,,,right,0,1.7674314776377287,,,,,,,,,,,1056,2019_Mar_13_1243,mf_amp_cond2,3.0.4,59.98105061985483,
corruption,&&&&&,right,sanctity.vice,framo,,,,,,,,,,,,,,,0,15,15,220,,,,,,,,,,,,,AMP,left,0.7004478404996917,0,,,,,,,,,,,,,,left,0,0.7004478404996917,,,,,,,,,,,1056,2019_Mar_13_1243,mf_amp_cond2,3.0.4,59.98105061985483,
died,&&&&&&&,right,care.vice,chreams,,,,,,,,,,,,,,,0,16,16,32,,,,,,,,,,,,,AMP,left,0.533726916386513,0,,,,,,,,,,,,,,left,0,0.533726916386513,,,,,,,,,,,1056,2019_Mar_13_1243,mf_amp_cond2,3.0.4,59.98105061985483,
corruption,&&&&&&&&,right,sanctity.vice,drumbled,,,,,,,,,,,,,,,0,17,17,246,,,,,,,,,,,,,AMP,left,2.9177394942671526,0,,,,,,,,,,,,,,left,0,2.9177394942671526,,,,,,,,,,,1056,2019_Mar_13_1243,mf_amp_cond2,3.0.4,59.98105061985483,
corruption,&&&&,right,sanctity.vice,coom,,,,,,,,,,,,,,,0,18,18,2,,,,,,,,,,,,,AMP,left,1.4339941196667496,0,,,,,,,,,,,,,,left,0,1.4339941196667496,,,,,,,,,,,1056,2019_Mar_13_1243,mf_amp_cond2,3.0.4,59.98105061985483,
accused,&&&&&&&&,right,fairness.vice,drumbled,,,,,,,,,,,,,,,0,19,19,239,,,,,,,,,,,,,AMP,left,1.5173585909069516,0,,,,,,,,,,,,,,left,0,1.5173585909069516,,,,,,,,,,,1056,2019_Mar_13_1243,mf_amp_cond2,3.0.4,59.98105061985483,
torture,&&&&&&,right,care.vice,antral,,,,,,,,,,,,,,,0,20,20,286,,,,,,,,,,,,,AMP,left,0.5837309095368255,0,,,,,,,,,,,,,,left,0,0.5837309095368255,,,,,,,,,,,1056,2019_Mar_13_1243,mf_amp_cond2,3.0.4,59.98105061985483,
sexual,&&&&&&&&&&,right,sanctity.vice,abointment,,,,,,,,,,,,,,,0,21,21,95,,,,,,,,,,,,,AMP,left,1.200586557853967,0,,,,,,,,,,,,,,left,0,1.200586557853967,,,,,,,,,,,1056,2019_Mar_13_1243,mf_amp_cond2,3.0.4,59.98105061985483,
killed,&&&&&&,right,care.vice,fegard,,,,,,,,,,,,,,,0,22,22,78,,,,,,,,,,,,,AMP,left,0.7837901811290067,0,,,,,,,,,,,,,,left,0,0.7837901811290067,,,,,,,,,,,1056,2019_Mar_13_1243,mf_amp_cond2,3.0.4,59.98105061985483,
pleasant,&&&&&&&&&&&,None,control,precificity,,,,,,,,,,,,,,,0,23,23,281,,,,,,,,,,,,,AMP,right,3.701326330221491,0,,,,,,,,,,,,,,right,0,3.701326330221491,,,,,,,,,,,1056,2019_Mar_13_1243,mf_amp_cond2,3.0.4,59.98105061985483,
safety,&&&&&&&&&&,left,care.virtue,abointment,,,,,,,,,,,,,,,0,24,24,257,,,,,,,,,,,,,AMP,right,0.9338400071137585,0,,,,,,,,,,,,,,right,0,0.9338400071137585,,,,,,,,,,,1056,2019_Mar_13_1243,mf_amp_cond2,3.0.4,59.98105061985483,
commitment,&&&&&&&,left,sanctity.virtue,dramens,,,,,,,,,,,,,,,0,25,25,161,,,,,,,,,,,,,AMP,right,1.9007858297263738,0,,,,,,,,,,,,,,right,0,1.9007858297263738,,,,,,,,,,,1056,2019_Mar_13_1243,mf_amp_cond2,3.0.4,59.98105061985483,
party,&&&&&&,left,loyalty.virtue,sonvoy,,,,,,,,,,,,,,,0,26,26,61,,,,,,,,,,,,,AMP,right,2.0008881117100827,0,,,,,,,,,,,,,,right,0,2.0008881117100827,,,,,,,,,,,1056,2019_Mar_13_1243,mf_amp_cond2,3.0.4,59.98105061985483,
protect,&&&&&&&&&&,left,fairness.virtue,pistraught,,,,,,,,,,,,,,,0,27,27,9,,,,,,,,,,,,,AMP,right,1.1839241195411887,0,,,,,,,,,,,,,,right,0,1.1839241195411887,,,,,,,,,,,1056,2019_Mar_13_1243,mf_amp_cond2,3.0.4,59.98105061985483,
fair,&&&&&,left,fairness.virtue,aubos,,,,,,,,,,,,,,,0,28,28,155,,,,,,,,,,,,,AMP,right,0.6170791997283231,0,,,,,,,,,,,,,,right,0,0.6170791997283231,,,,,,,,,,,1056,2019_Mar_13_1243,mf_amp_cond2,3.0.4,59.98105061985483,
values,&&&&&&&&,left,sanctity.virtue,thadowed,,,,,,,,,,,,,,,0,29,29,1,,,,,,,,,,,,,AMP,right,0.7004343697044533,0,,,,,,,,,,,,,,right,0,0.7004343697044533,,,,,,,,,,,1056,2019_Mar_13_1243,mf_amp_cond2,3.0.4,59.98105061985483,
useful,&&&&&&&&&&&&&,left,authority.virtue,idexpressible,,,,,,,,,,,,,,,0,30,30,50,,,,,,,,,,,,,AMP,right,1.7173941281798761,0,,,,,,,,,,,,,,right,0,1.7173941281798761,,,,,,,,,,,1056,2019_Mar_13_1243,mf_amp_cond2,3.0.4,59.98105061985483,
perfect,&&&&&&,left,sanctity.virtue,Boeinf,,,,,,,,,,,,,,,0,31,31,173,,,,,,,,,,,,,AMP,right,0.5670598114083987,0,,,,,,,,,,,,,,right,0,0.5670598114083987,,,,,,,,,,,1056,2019_Mar_13_1243,mf_amp_cond2,3.0.4,59.98105061985483,
values,&&&&&&&,left,sanctity.virtue,chadows,,,,,,,,,,,,,,,0,32,32,262,,,,,,,,,,,,,AMP,right,0.5337176151224412,0,,,,,,,,,,,,,,right,0,0.5337176151224412,,,,,,,,,,,1056,2019_Mar_13_1243,mf_amp_cond2,3.0.4,59.98105061985483,
men,&&&&&,right,loyalty.vice,tabin,,,,,,,,,,,,,,,0,33,33,51,,,,,,,,,,,,,AMP,left,1.3006109015259426,0,,,,,,,,,,,,,,left,0,1.3006109015259426,,,,,,,,,,,1056,2019_Mar_13_1243,mf_amp_cond2,3.0.4,59.98105061985483,
men,&&&&&&&&&&&&&,right,loyalty.vice,wonderfujnoss,,,,,,,,,,,,,,,0,34,34,204,,,,,,,,,,,,,AMP,right,3.3845517312875018,1,,,,,,,,,,,,,,right,1,3.3845517312875018,,,,,,,,,,,1056,2019_Mar_13_1243,mf_amp_cond2,3.0.4,59.98105061985483,
illegal,&&&&&&&&,right,fairness.vice,tracious,,,,,,,,,,,,,,,0,35,35,16,,,,,,,,,,,,,AMP,left,0.6504499413422309,0,,,,,,,,,,,,,,left,0,0.6504499413422309,,,,,,,,,,,1056,2019_Mar_13_1243,mf_amp_cond2,3.0.4,59.98105061985483,
benefit,&&&&&&&&,left,fairness.virtue,ugeasily,,,,,,,,,,,,,,,0,36,36,227,,,,,,,,,,,,,AMP,right,1.150567490258254,0,,,,,,,,,,,,,,right,0,1.150567490258254,,,,,,,,,,,1056,2019_Mar_13_1243,mf_amp_cond2,3.0.4,59.98105061985483,
serial,&&&&&&&&&,right,sanctity.vice,chressing,,,,,,,,,,,,,,,0,37,37,129,,,,,,,,,,,,,AMP,left,0.3336650789133273,0,,,,,,,,,,,,,,left,0,0.3336650789133273,,,,,,,,,,,1056,2019_Mar_13_1243,mf_amp_cond2,3.0.4,59.98105061985483,
fraud,&&&&&&,right,fairness.vice,sonvoy,,,,,,,,,,,,,,,0,38,38,206,,,,,,,,,,,,,AMP,left,0.5171427370805759,0,,,,,,,,,,,,,,left,0,0.5171427370805759,,,,,,,,,,,1056,2019_Mar_13_1243,mf_amp_cond2,3.0.4,59.98105061985483,
love,&&&&&&,left,loyalty.virtue,antral,,,,,,,,,,,,,,,0,39,39,77,,,,,,,,,,,,,AMP,right,0.8504748944251332,0,,,,,,,,,,,,,,right,0,0.8504748944251332,,,,,,,,,,,1056,2019_Mar_13_1243,mf_amp_cond2,3.0.4,59.98105061985483,
nomaric,&&&&&&&,None,nonword,menizen,,,,,,,,,,,,,,,0,40,40,300,,,,,,,,,,,,,AMP,left,0.9671870143793058,0,,,,,,,,,,,,,,left,0,0.9671870143793058,,,,,,,,,,,1056,2019_Mar_13_1243,mf_amp_cond2,3.0.4,59.98105061985483,
letish,&&&&&&&&,None,nonword,slending,,,,,,,,,,,,,,,0,41,41,269,,,,,,,,,,,,,AMP,left,1.0338752557290718,0,,,,,,,,,,,,,,left,0,1.0338752557290718,,,,,,,,,,,1056,2019_Mar_13_1243,mf_amp_cond2,3.0.4,59.98105061985483,
divility,&&&&&&&&,None,nonword,drumbled,,,,,,,,,,,,,,,0,42,42,102,,,,,,,,,,,,,AMP,left,0.5670732822036371,0,,,,,,,,,,,,,,left,0,0.5670732822036371,,,,,,,,,,,1056,2019_Mar_13_1243,mf_amp_cond2,3.0.4,59.98105061985483,
promises,&&&&&&&,left,fairness.virtue,chreams,,,,,,,,,,,,,,,0,43,43,117,,,,,,,,,,,,,AMP,right,0.6170926705526654,0,,,,,,,,,,,,,,right,0,0.6170926705526654,,,,,,,,,,,1056,2019_Mar_13_1243,mf_amp_cond2,3.0.4,59.98105061985483,
strength,&&&&&&&&&,left,sanctity.virtue,chressing,,,,,,,,,,,,,,,0,44,44,284,,,,,,,,,,,,,AMP,right,0.4670380335592199,0,,,,,,,,,,,,,,right,0,0.4670380335592199,,,,,,,,,,,1056,2019_Mar_13_1243,mf_amp_cond2,3.0.4,59.98105061985483,
letish,&&&&,None,nonword,alar,,,,,,,,,,,,,,,0,45,45,198,,,,,,,,,,,,,AMP,left,1.0338656337116845,0,,,,,,,,,,,,,,left,0,1.0338656337116845,,,,,,,,,,,1056,2019_Mar_13_1243,mf_amp_cond2,3.0.4,59.98105061985483,
refused,&&&&&&&&,right,authority.vice,thabbily,,,,,,,,,,,,,,,0,46,46,154,,,,,,,,,,,,,AMP,left,1.4506549543293659,0,,,,,,,,,,,,,,left,0,1.4506549543293659,,,,,,,,,,,1056,2019_Mar_13_1243,mf_amp_cond2,3.0.4,59.98105061985483,
values,&&&&&&&&&&,left,sanctity.virtue,gationwide,,,,,,,,,,,,,,,0,47,47,181,,,,,,,,,,,,,AMP,left,3.1511582817765884,1,,,,,,,,,,,,,,left,1,3.1511582817765884,,,,,,,,,,,1056,2019_Mar_13_1243,mf_amp_cond2,3.0.4,59.98105061985483,
party,&&&&&&&&,left,loyalty.virtue,lachelor,,,,,,,,,,,,,,,0,48,48,265,,,,,,,,,,,,,AMP,left,0.6004334395693149,1,,,,,,,,,,,,,,left,1,0.6004334395693149,,,,,,,,,,,1056,2019_Mar_13_1243,mf_amp_cond2,3.0.4,59.98105061985483,
war,&&&&&&,right,sanctity.vice,sgrawl,,,,,,,,,,,,,,,0,49,49,283,,,,,,,,,,,,,AMP,left,0.8672406089899596,0,,,,,,,,,,,,,,left,0,0.8672406089899596,,,,,,,,,,,1056,2019_Mar_13_1243,mf_amp_cond2,3.0.4,59.98105061985483,
hate,&&&&&&&&&&&,right,fairness.vice,ronviolence,,,,,,,,,,,,,,,0,50,50,231,,,,,,,,,,,,,AMP,left,0.7171089958865196,0,,,,,,,,,,,,,,left,0,0.7171089958865196,,,,,,,,,,,1056,2019_Mar_13_1243,mf_amp_cond2,3.0.4,59.98105061985483,
promises,&&&&&,left,fairness.virtue,touls,,,,,,,,,,,,,,,0,51,51,45,,,,,,,,,,,,,AMP,left,1.8174319427052978,1,,,,,,,,,,,,,,left,1,1.8174319427052978,,,,,,,,,,,1056,2019_Mar_13_1243,mf_amp_cond2,3.0.4,59.98105061985483,
attacks,&&&&&&&&&,right,care.vice,faspberry,,,,,,,,,,,,,,,0,52,52,236,,,,,,,,,,,,,AMP,left,3.684639195416821,0,,,,,,,,,,,,,,left,0,3.684639195416821,,,,,,,,,,,1056,2019_Mar_13_1243,mf_amp_cond2,3.0.4,59.98105061985483,
failure,&&&&&&&,right,loyalty.vice,baklara,,,,,,,,,,,,,,,0,53,53,36,,,,,,,,,,,,,AMP,left,0.8504925347515382,0,,,,,,,,,,,,,,left,0,0.8504925347515382,,,,,,,,,,,1056,2019_Mar_13_1243,mf_amp_cond2,3.0.4,59.98105061985483,
ban,&&&&&&,right,loyalty.vice,prones,,,,,,,,,,,,,,,0,54,54,59,,,,,,,,,,,,,AMP,left,0.467040278686909,0,,,,,,,,,,,,,,left,0,0.467040278686909,,,,,,,,,,,1056,2019_Mar_13_1243,mf_amp_cond2,3.0.4,59.98105061985483,
good,&&&&&&&&&&,left,care.virtue,chonograph,,,,,,,,,,,,,,,0,55,55,207,,,,,,,,,,,,,AMP,right,0.4503691805584822,0,,,,,,,,,,,,,,right,0,0.4503691805584822,,,,,,,,,,,1056,2019_Mar_13_1243,mf_amp_cond2,3.0.4,59.98105061985483,
hope,&&&&&,left,loyalty.virtue,touls,,,,,,,,,,,,,,,0,56,56,289,,,,,,,,,,,,,AMP,right,0.46704059944022447,0,,,,,,,,,,,,,,right,0,0.46704059944022447,,,,,,,,,,,1056,2019_Mar_13_1243,mf_amp_cond2,3.0.4,59.98105061985483,
interests,&&&&,left,fairness.virtue,juck,,,,,,,,,,,,,,,0,57,57,318,,,,,,,,,,,,,AMP,right,1.1339140324562322,0,,,,,,,,,,,,,,right,0,1.1339140324562322,,,,,,,,,,,1056,2019_Mar_13_1243,mf_amp_cond2,3.0.4,59.98105061985483,
charges,&&&&&,right,fairness.vice,dumid,,,,,,,,,,,,,,,0,58,58,182,,,,,,,,,,,,,AMP,left,0.7671508356288541,0,,,,,,,,,,,,,,left,0,0.7671508356288541,,,,,,,,,,,1056,2019_Mar_13_1243,mf_amp_cond2,3.0.4,59.98105061985483,
died,&&&&&&&,right,care.vice,halaise,,,,,,,,,,,,,,,0,59,59,197,,,,,,,,,,,,,AMP,left,0.6504242826194968,0,,,,,,,,,,,,,,left,0,0.6504242826194968,,,,,,,,,,,1056,2019_Mar_13_1243,mf_amp_cond2,3.0.4,59.98105061985483,
pleasant,&&&&&&&&&&,None,control,focomotive,,,,,,,,,,,,,,,0,60,60,109,,,,,,,,,,,,,AMP,right,0.6671422078798059,0,,,,,,,,,,,,,,right,0,0.6671422078798059,,,,,,,,,,,1056,2019_Mar_13_1243,mf_amp_cond2,3.0.4,59.98105061985483,
reprisols,&&&&&&&&&&,None,nonword,gationwide,,,,,,,,,,,,,,,0,61,61,127,,,,,,,,,,,,,AMP,left,0.8171522628690582,0,,,,,,,,,,,,,,left,0,0.8171522628690582,,,,,,,,,,,1056,2019_Mar_13_1243,mf_amp_cond2,3.0.4,59.98105061985483,
violations,&&&&,right,sanctity.vice,yane,,,,,,,,,,,,,,,0,62,62,210,,,,,,,,,,,,,AMP,left,1.2005753321573138,0,,,,,,,,,,,,,,left,0,1.2005753321573138,,,,,,,,,,,1056,2019_Mar_13_1243,mf_amp_cond2,3.0.4,59.98105061985483,
care,&&&&&&&,left,care.virtue,chadows,,,,,,,,,,,,,,,0,63,63,99,,,,,,,,,,,,,AMP,right,0.967182203399716,0,,,,,,,,,,,,,,right,0,0.967182203399716,,,,,,,,,,,1056,2019_Mar_13_1243,mf_amp_cond2,3.0.4,59.98105061985483,
safety,&&&&&,left,care.virtue,hasks,,,,,,,,,,,,,,,0,64,64,237,,,,,,,,,,,,,AMP,right,1.383829118218273,0,,,,,,,,,,,,,,right,0,1.383829118218273,,,,,,,,,,,1056,2019_Mar_13_1243,mf_amp_cond2,3.0.4,59.98105061985483,
terrorist,&&&&&,right,loyalty.vice,framo,,,,,,,,,,,,,,,0,65,65,310,,,,,,,,,,,,,AMP,left,0.2669874217826873,0,,,,,,,,,,,,,,left,0,0.2669874217826873,,,,,,,,,,,1056,2019_Mar_13_1243,mf_amp_cond2,3.0.4,59.98105061985483,
fighters,&&&&&&&,right,authority.vice,allears,,,,,,,,,,,,,,,0,66,66,221,,,,,,,,,,,,,AMP,left,0.8171487348154187,0,,,,,,,,,,,,,,left,0,0.8171487348154187,,,,,,,,,,,1056,2019_Mar_13_1243,mf_amp_cond2,3.0.4,59.98105061985483,
interests,&&&&&&&&,left,fairness.virtue,lachelor,,,,,,,,,,,,,,,0,67,67,27,,,,,,,,,,,,,AMP,right,0.7004433502443135,0,,,,,,,,,,,,,,right,0,0.7004433502443135,,,,,,,,,,,1056,2019_Mar_13_1243,mf_amp_cond2,3.0.4,59.98105061985483,
charges,&&&&&&&&&,right,fairness.vice,faspberry,,,,,,,,,,,,,,,0,68,68,254,,,,,,,,,,,,,AMP,left,0.45037174643948674,0,,,,,,,,,,,,,,left,0,0.45037174643948674,,,,,,,,,,,1056,2019_Mar_13_1243,mf_amp_cond2,3.0.4,59.98105061985483,
civilians,&&&&&&&,right,care.vice,chadows,,,,,,,,,,,,,,,0,69,69,24,,,,,,,,,,,,,AMP,right,1.1172345952363685,1,,,,,,,,,,,,,,right,1,1.1172345952363685,,,,,,,,,,,1056,2019_Mar_13_1243,mf_amp_cond2,3.0.4,59.98105061985483,
health,&&&&&&&&,left,care.virtue,crinking,,,,,,,,,,,,,,,0,70,70,136,,,,,,,,,,,,,AMP,right,1.1505976392072625,0,,,,,,,,,,,,,,right,0,1.1505976392072625,,,,,,,,,,,1056,2019_Mar_13_1243,mf_amp_cond2,3.0.4,59.98105061985483,
gun,&&&&&&&&&&&,right,authority.vice,ilportation,,,,,,,,,,,,,,,0,71,71,316,,,,,,,,,,,,,AMP,left,0.4336913470469881,0,,,,,,,,,,,,,,left,0,0.4336913470469881,,,,,,,,,,,1056,2019_Mar_13_1243,mf_amp_cond2,3.0.4,59.98105061985483,
peace,&&&&&&&&&,left,care.virtue,crilfully,,,,,,,,,,,,,,,0,72,72,25,,,,,,,,,,,,,AMP,right,0.717117655731272,0,,,,,,,,,,,,,,right,0,0.717117655731272,,,,,,,,,,,1056,2019_Mar_13_1243,mf_amp_cond2,3.0.4,59.98105061985483,
powerful,&&&&&&&,left,authority.virtue,pharing,,,,,,,,,,,,,,,0,73,73,85,,,,,,,,,,,,,AMP,left,0.733781697723316,1,,,,,,,,,,,,,,left,1,0.733781697723316,,,,,,,,,,,1056,2019_Mar_13_1243,mf_amp_cond2,3.0.4,59.98105061985483,
officers,&&&&&&&&&,right,authority.vice,rivernoat,,,,,,,,,,,,,,,0,74,74,217,,,,,,,,,,,,,AMP,right,4.501549945765873,1,,,,,,,,,,,,,,right,1,4.501549945765873,,,,,,,,,,,1056,2019_Mar_13_1243,mf_amp_cond2,3.0.4,59.98105061985483,
terrorist,&&&&&&&&&&,right,loyalty.vice,galamitous,,,,,,,,,,,,,,,0,75,75,42,,,,,,,,,,,,,AMP,left,0.600414516258752,0,,,,,,,,,,,,,,left,0,0.600414516258752,,,,,,,,,,,1056,2019_Mar_13_1243,mf_amp_cond2,3.0.4,59.98105061985483,
fraud,&&&&&&&&&&&,right,fairness.vice,shoirmaster,,,,,,,,,,,,,,,0,76,76,30,,,,,,,,,,,,,AMP,left,0.917159607692156,0,,,,,,,,,,,,,,left,0,0.917159607692156,,,,,,,,,,,1056,2019_Mar_13_1243,mf_amp_cond2,3.0.4,59.98105061985483,
army,&&&&&&&&,right,loyalty.vice,ebbitter,,,,,,,,,,,,,,,0,77,77,240,,,,,,,,,,,,,AMP,left,0.7171381826628931,0,,,,,,,,,,,,,,left,0,0.7171381826628931,,,,,,,,,,,1056,2019_Mar_13_1243,mf_amp_cond2,3.0.4,59.98105061985483,
honored,&&&&&&&&&,left,authority.virtue,chressing,,,,,,,,,,,,,,,0,78,78,224,,,,,,,,,,,,,AMP,right,0.5170612707152031,0,,,,,,,,,,,,,,right,0,0.5170612707152031,,,,,,,,,,,1056,2019_Mar_13_1243,mf_amp_cond2,3.0.4,59.98105061985483,
discovars,&&&&&&&&&&&&,None,nonword,quarterbocks,,,,,,,,,,,,,,,0,79,79,183,,,,,,,,,,,,,AMP,left,0.5170638365962077,0,,,,,,,,,,,,,,left,0,0.5170638365962077,,,,,,,,,,,1056,2019_Mar_13_1243,mf_amp_cond2,3.0.4,59.98105061985483,
ban,&&&&&&&&,right,loyalty.vice,thadowed,,,,,,,,,,,,,,,0,80,80,327,,,,,,,,,,,,,AMP,left,0.9671931083139498,0,,,,,,,,,,,,,,left,0,0.9671931083139498,,,,,,,,,,,1056,2019_Mar_13_1243,mf_amp_cond2,3.0.4,59.98105061985483,
officers,&&&&&&&&&&,right,authority.vice,chonograph,,,,,,,,,,,,,,,0,81,81,277,,,,,,,,,,,,,AMP,left,0.6670928148960229,0,,,,,,,,,,,,,,left,0,0.6670928148960229,,,,,,,,,,,1056,2019_Mar_13_1243,mf_amp_cond2,3.0.4,59.98105061985483,
unpleasant,&&&&&&&&,None,control,glacenta,,,,,,,,,,,,,,,0,82,82,322,,,,,,,,,,,,,AMP,left,1.0338662751892116,0,,,,,,,,,,,,,,left,0,1.0338662751892116,,,,,,,,,,,1056,2019_Mar_13_1243,mf_amp_cond2,3.0.4,59.98105061985483,
promised,&&&&&&&&,left,loyalty.virtue,lachelor,,,,,,,,,,,,,,,0,83,83,202,,,,,,,,,,,,,AMP,right,0.48372035738429986,0,,,,,,,,,,,,,,right,0,0.48372035738429986,,,,,,,,,,,1056,2019_Mar_13_1243,mf_amp_cond2,3.0.4,59.98105061985483,
interests,&&&&&&&&&,left,fairness.virtue,seachwear,,,,,,,,,,,,,,,0,84,84,225,,,,,,,,,,,,,AMP,right,1.5840362480375916,0,,,,,,,,,,,,,,right,0,1.5840362480375916,,,,,,,,,,,1056,2019_Mar_13_1243,mf_amp_cond2,3.0.4,59.98105061985483,
frocessing,&&&&&&&&&,None,nonword,seachwear,,,,,,,,,,,,,,,0,85,85,309,,,,,,,,,,,,,AMP,left,1.0838962477864698,0,,,,,,,,,,,,,,left,0,1.0838962477864698,,,,,,,,,,,1056,2019_Mar_13_1243,mf_amp_cond2,3.0.4,59.98105061985483,
war,&&&&&&,right,sanctity.vice,Boeinf,,,,,,,,,,,,,,,0,86,86,57,,,,,,,,,,,,,AMP,left,0.48369566089240834,0,,,,,,,,,,,,,,left,0,0.48369566089240834,,,,,,,,,,,1056,2019_Mar_13_1243,mf_amp_cond2,3.0.4,59.98105061985483,
care,&&&&&,left,care.virtue,saned,,,,,,,,,,,,,,,0,87,87,250,,,,,,,,,,,,,AMP,right,1.450663934869226,0,,,,,,,,,,,,,,right,0,1.450663934869226,,,,,,,,,,,1056,2019_Mar_13_1243,mf_amp_cond2,3.0.4,59.98105061985483,
fair,&&&&&&&&,left,fairness.virtue,tracious,,,,,,,,,,,,,,,0,88,88,226,,,,,,,,,,,,,AMP,right,1.017199667316163,0,,,,,,,,,,,,,,right,0,1.017199667316163,,,,,,,,,,,1056,2019_Mar_13_1243,mf_amp_cond2,3.0.4,59.98105061985483,
faith,&&&&&&&&&,left,sanctity.virtue,crilfully,,,,,,,,,,,,,,,0,89,89,307,,,,,,,,,,,,,AMP,right,2.584315607120516,0,,,,,,,,,,,,,,right,0,2.584315607120516,,,,,,,,,,,1056,2019_Mar_13_1243,mf_amp_cond2,3.0.4,59.98105061985483,
groups,&&&&&&&&&&&,right,loyalty.vice,vicissifude,,,,,,,,,,,,,,,0,90,90,76,,,,,,,,,,,,,AMP,right,0.9338467425259296,1,,,,,,,,,,,,,,right,1,0.9338467425259296,,,,,,,,,,,1056,2019_Mar_13_1243,mf_amp_cond2,3.0.4,59.98105061985483,
safety,&&&&&,left,care.virtue,infet,,,,,,,,,,,,,,,0,91,91,15,,,,,,,,,,,,,AMP,right,0.6170801619591657,0,,,,,,,,,,,,,,right,0,0.6170801619591657,,,,,,,,,,,1056,2019_Mar_13_1243,mf_amp_cond2,3.0.4,59.98105061985483,
peaceful,&&&&&&&&&&,left,authority.virtue,galamitous,,,,,,,,,,,,,,,0,92,92,247,,,,,,,,,,,,,AMP,right,1.0671844164608046,0,,,,,,,,,,,,,,right,0,1.0671844164608046,,,,,,,,,,,1056,2019_Mar_13_1243,mf_amp_cond2,3.0.4,59.98105061985483,
victim,&&&&&&&&&&&,right,care.vice,shoirmaster,,,,,,,,,,,,,,,0,93,93,194,,,,,,,,,,,,,AMP,left,0.5670626980136149,0,,,,,,,,,,,,,,left,0,0.5670626980136149,,,,,,,,,,,1056,2019_Mar_13_1243,mf_amp_cond2,3.0.4,59.98105061985483,
peaceful,&&&&&&&&&,left,authority.virtue,metibolic,,,,,,,,,,,,,,,0,94,94,130,,,,,,,,,,,,,AMP,left,2.951132045738632,1,,,,,,,,,,,,,,left,1,2.951132045738632,,,,,,,,,,,1056,2019_Mar_13_1243,mf_amp_cond2,3.0.4,59.98105061985483,
integrity,&&&&&&&&&&&,left,fairness.virtue,hefurbished,,,,,,,,,,,,,,,0,95,95,159,,,,,,,,,,,,,AMP,right,0.5337201809743419,0,,,,,,,,,,,,,,right,0,0.5337201809743419,,,,,,,,,,,1056,2019_Mar_13_1243,mf_amp_cond2,3.0.4,59.98105061985483,
benefit,&&&&&&&&&&&,left,fairness.virtue,lempestuous,,,,,,,,,,,,,,,0,96,96,144,,,,,,,,,,,,,AMP,right,0.8171589983103331,0,,,,,,,,,,,,,,right,0,0.8171589983103331,,,,,,,,,,,1056,2019_Mar_13_1243,mf_amp_cond2,3.0.4,59.98105061985483,
fraud,&&&&&,right,fairness.vice,tabin,,,,,,,,,,,,,,,0,97,97,321,,,,,,,,,,,,,AMP,left,9.853101703716675,0,,,,,,,,,,,,,,left,0,9.853101703716675,,,,,,,,,,,1056,2019_Mar_13_1243,mf_amp_cond2,3.0.4,59.98105061985483,
failure,&&&&&&&&&,right,loyalty.vice,neputized,,,,,,,,,,,,,,,0,98,98,120,,,,,,,,,,,,,AMP,left,0.43369359214557335,0,,,,,,,,,,,,,,left,0,0.43369359214557335,,,,,,,,,,,1056,2019_Mar_13_1243,mf_amp_cond2,3.0.4,59.98105061985483,
shot,&&&&&&&&&,right,care.vice,gondensed,,,,,,,,,,,,,,,0,99,99,274,,,,,,,,,,,,,AMP,left,0.6170856144162826,0,,,,,,,,,,,,,,left,0,0.6170856144162826,,,,,,,,,,,1056,2019_Mar_13_1243,mf_amp_cond2,3.0.4,59.98105061985483,
charges,&&&&&,right,fairness.vice,leact,,,,,,,,,,,,,,,0,100,100,20,,,,,,,,,,,,,AMP,left,0.6670334791706409,0,,,,,,,,,,,,,,left,0,0.6670334791706409,,,,,,,,,,,1056,2019_Mar_13_1243,mf_amp_cond2,3.0.4,59.98105061985483,
prosecution,&&&&&&,right,authority.vice,antral,,,,,,,,,,,,,,,0,101,101,153,,,,,,,,,,,,,AMP,left,0.6670960222254507,0,,,,,,,,,,,,,,left,0,0.6670960222254507,,,,,,,,,,,1056,2019_Mar_13_1243,mf_amp_cond2,3.0.4,59.98105061985483,
Lacedonia,&&&&&&&&,None,nonword,hescribe,,,,,,,,,,,,,,,0,102,102,213,,,,,,,,,,,,,AMP,left,2.000813380756881,0,,,,,,,,,,,,,,left,0,2.000813380756881,,,,,,,,,,,1056,2019_Mar_13_1243,mf_amp_cond2,3.0.4,59.98105061985483,
win,&&&&&&,left,fairness.virtue,Boeinf,,,,,,,,,,,,,,,0,103,103,141,,,,,,,,,,,,,AMP,right,0.5003779847174883,0,,,,,,,,,,,,,,right,0,0.5003779847174883,,,,,,,,,,,1056,2019_Mar_13_1243,mf_amp_cond2,3.0.4,59.98105061985483,
progress,&&&&&&&&,left,authority.virtue,crinking,,,,,,,,,,,,,,,0,104,104,324,,,,,,,,,,,,,AMP,right,0.7171442766266409,0,,,,,,,,,,,,,,right,0,0.7171442766266409,,,,,,,,,,,1056,2019_Mar_13_1243,mf_amp_cond2,3.0.4,59.98105061985483,
nomaric,&&&&&&&&&&,None,nonword,galamitous,,,,,,,,,,,,,,,0,105,105,94,,,,,,,,,,,,,AMP,left,3.6512995649827644,0,,,,,,,,,,,,,,left,0,3.6512995649827644,,,,,,,,,,,1056,2019_Mar_13_1243,mf_amp_cond2,3.0.4,59.98105061985483,
divility,&&&&&&&&,None,nonword,fontacts,,,,,,,,,,,,,,,0,106,106,222,,,,,,,,,,,,,AMP,left,4.684927855763817,0,,,,,,,,,,,,,,left,0,4.684927855763817,,,,,,,,,,,1056,2019_Mar_13_1243,mf_amp_cond2,3.0.4,59.98105061985483,
sickyay,&&&&&&&&,None,nonword,tracious,,,,,,,,,,,,,,,0,107,107,146,,,,,,,,,,,,,AMP,left,0.9171698711870704,0,,,,,,,,,,,,,,left,0,0.9171698711870704,,,,,,,,,,,1056,2019_Mar_13_1243,mf_amp_cond2,3.0.4,59.98105061985483,
health,&&&&&,left,care.virtue,leact,,,,,,,,,,,,,,,0,108,108,187,,,,,,,,,,,,,AMP,right,0.4003645459888503,0,,,,,,,,,,,,,,right,0,0.4003645459888503,,,,,,,,,,,1056,2019_Mar_13_1243,mf_amp_cond2,3.0.4,59.98105061985483,
torture,&&&&&&&&,right,care.vice,ugeasily,,,,,,,,,,,,,,,0,109,109,158,,,,,,,,,,,,,AMP,left,0.417022814770462,0,,,,,,,,,,,,,,left,0,0.417022814770462,,,,,,,,,,,1056,2019_Mar_13_1243,mf_amp_cond2,3.0.4,59.98105061985483,
great,&&&&&&,left,loyalty.virtue,gikely,,,,,,,,,,,,,,,0,110,110,163,,,,,,,,,,,,,AMP,right,0.40035460321814753,0,,,,,,,,,,,,,,right,0,0.40035460321814753,,,,,,,,,,,1056,2019_Mar_13_1243,mf_amp_cond2,3.0.4,59.98105061985483,
faith,&&&&&&&&&&&&,left,sanctity.virtue,quarterbocks,,,,,,,,,,,,,,,0,111,111,151,,,,,,,,,,,,,AMP,right,0.4003603764285799,0,,,,,,,,,,,,,,right,0,0.4003603764285799,,,,,,,,,,,1056,2019_Mar_13_1243,mf_amp_cond2,3.0.4,59.98105061985483,
gun,&&&&&&&&,right,authority.vice,sidearbs,,,,,,,,,,,,,,,0,112,112,212,,,,,,,,,,,,,AMP,left,0.333672776556341,0,,,,,,,,,,,,,,left,0,0.333672776556341,,,,,,,,,,,1056,2019_Mar_13_1243,mf_amp_cond2,3.0.4,59.98105061985483,
reprisols,&&&&&&&&&&&,None,nonword,ronviolence,,,,,,,,,,,,,,,0,113,113,268,,,,,,,,,,,,,AMP,left,1.7174149758939166,0,,,,,,,,,,,,,,left,0,1.7174149758939166,,,,,,,,,,,1056,2019_Mar_13_1243,mf_amp_cond2,3.0.4,59.98105061985483,
groups,&&&&&&&,right,loyalty.vice,baklara,,,,,,,,,,,,,,,0,114,114,166,,,,,,,,,,,,,AMP,right,0.733787150180433,1,,,,,,,,,,,,,,right,1,0.733787150180433,,,,,,,,,,,1056,2019_Mar_13_1243,mf_amp_cond2,3.0.4,59.98105061985483,
praised,&&&&&&&&,left,loyalty.virtue,framatic,,,,,,,,,,,,,,,0,115,115,7,,,,,,,,,,,,,AMP,right,2.3842884089099243,0,,,,,,,,,,,,,,right,0,2.3842884089099243,,,,,,,,,,,1056,2019_Mar_13_1243,mf_amp_cond2,3.0.4,59.98105061985483,
promised,&&&&&&&&,left,loyalty.virtue,ebbitter,,,,,,,,,,,,,,,0,116,116,33,,,,,,,,,,,,,AMP,right,1.534057272132486,0,,,,,,,,,,,,,,right,0,1.534057272132486,,,,,,,,,,,1056,2019_Mar_13_1243,mf_amp_cond2,3.0.4,59.98105061985483,
good,&&&&&&,left,care.virtue,pumber,,,,,,,,,,,,,,,0,117,117,84,,,,,,,,,,,,,AMP,right,0.7004423880425747,0,,,,,,,,,,,,,,right,0,0.7004423880425747,,,,,,,,,,,1056,2019_Mar_13_1243,mf_amp_cond2,3.0.4,59.98105061985483,
pleasant,&&&&&&&&&&,None,control,focomotive,,,,,,,,,,,,,,,0,118,118,244,,,,,,,,,,,,,AMP,right,1.1172403684468009,0,,,,,,,,,,,,,,right,0,1.1172403684468009,,,,,,,,,,,1056,2019_Mar_13_1243,mf_amp_cond2,3.0.4,59.98105061985483,
prison,&&&&&,right,fairness.vice,dumid,,,,,,,,,,,,,,,0,119,119,290,,,,,,,,,,,,,AMP,left,0.38367965625366196,0,,,,,,,,,,,,,,left,0,0.38367965625366196,,,,,,,,,,,1056,2019_Mar_13_1243,mf_amp_cond2,3.0.4,59.98105061985483,
perfect,&&&&&&&&&&,left,sanctity.virtue,fonderland,,,,,,,,,,,,,,,0,120,120,150,,,,,,,,,,,,,AMP,right,0.48372837575152516,0,,,,,,,,,,,,,,right,0,0.48372837575152516,,,,,,,,,,,1056,2019_Mar_13_1243,mf_amp_cond2,3.0.4,59.98105061985483,
failure,&&&&&&&&,right,loyalty.vice,framatic,,,,,,,,,,,,,,,0,121,121,292,,,,,,,,,,,,,AMP,left,0.417024418420624,0,,,,,,,,,,,,,,left,0,0.417024418420624,,,,,,,,,,,1056,2019_Mar_13_1243,mf_amp_cond2,3.0.4,59.98105061985483,
promised,&&&&&,left,loyalty.virtue,noped,,,,,,,,,,,,,,,0,122,122,92,,,,,,,,,,,,,AMP,left,2.434270912897773,1,,,,,,,,,,,,,,left,1,2.434270912897773,,,,,,,,,,,1056,2019_Mar_13_1243,mf_amp_cond2,3.0.4,59.98105061985483,
promises,&&&&&&&,left,fairness.virtue,baklara,,,,,,,,,,,,,,,0,123,123,278,,,,,,,,,,,,,AMP,right,1.1338960713765118,0,,,,,,,,,,,,,,right,0,1.1338960713765118,,,,,,,,,,,1056,2019_Mar_13_1243,mf_amp_cond2,3.0.4,59.98105061985483,
discovars,&&&&&&&&&&&&&,None,nonword,wonderfujnoss,,,,,,,,,,,,,,,0,124,124,11,,,,,,,,,,,,,AMP,left,3.3345451723143924,0,,,,,,,,,,,,,,left,0,3.3345451723143924,,,,,,,,,,,1056,2019_Mar_13_1243,mf_amp_cond2,3.0.4,59.98105061985483,
improve,&&&&&&&&&,left,care.virtue,gondensed,,,,,,,,,,,,,,,0,125,125,147,,,,,,,,,,,,,AMP,right,0.41700485366163775,0,,,,,,,,,,,,,,right,0,0.41700485366163775,,,,,,,,,,,1056,2019_Mar_13_1243,mf_amp_cond2,3.0.4,59.98105061985483,
civilians,&&&&&&,right,care.vice,sonvoy,,,,,,,,,,,,,,,0,126,126,320,,,,,,,,,,,,,AMP,right,0.6004087430483196,1,,,,,,,,,,,,,,right,1,0.6004087430483196,,,,,,,,,,,1056,2019_Mar_13_1243,mf_amp_cond2,3.0.4,59.98105061985483,
strength,&&&&&&&&&&,left,sanctity.virtue,pistraught,,,,,,,,,,,,,,,0,127,127,132,,,,,,,,,,,,,AMP,right,0.48372164033935405,0,,,,,,,,,,,,,,right,0,0.48372164033935405,,,,,,,,,,,1056,2019_Mar_13_1243,mf_amp_cond2,3.0.4,59.98105061985483,
hope,&&&&&,left,loyalty.virtue,saned,,,,,,,,,,,,,,,0,128,128,200,,,,,,,,,,,,,AMP,right,1.0171987051144242,0,,,,,,,,,,,,,,right,0,1.0171987051144242,,,,,,,,,,,1056,2019_Mar_13_1243,mf_amp_cond2,3.0.4,59.98105061985483,
accused,&&&&&,right,fairness.vice,leact,,,,,,,,,,,,,,,0,129,129,90,,,,,,,,,,,,,AMP,left,1.2839458973612636,0,,,,,,,,,,,,,,left,0,1.2839458973612636,,,,,,,,,,,1056,2019_Mar_13_1243,mf_amp_cond2,3.0.4,59.98105061985483,
frocessing,&&&&&&&,None,nonword,reviked,,,,,,,,,,,,,,,0,130,130,41,,,,,,,,,,,,,AMP,left,3.3512223643774632,0,,,,,,,,,,,,,,left,0,3.3512223643774632,,,,,,,,,,,1056,2019_Mar_13_1243,mf_amp_cond2,3.0.4,59.98105061985483,
frocessing,&&&&&&&&,None,nonword,fontacts,,,,,,,,,,,,,,,0,131,131,123,,,,,,,,,,,,,AMP,left,1.5673632255056873,0,,,,,,,,,,,,,,left,0,1.5673632255056873,,,,,,,,,,,1056,2019_Mar_13_1243,mf_amp_cond2,3.0.4,59.98105061985483,
promises,&&&&&&&&&,left,fairness.virtue,gondensed,,,,,,,,,,,,,,,0,132,132,232,,,,,,,,,,,,,AMP,right,1.2339293956174515,0,,,,,,,,,,,,,,right,0,1.2339293956174515,,,,,,,,,,,1056,2019_Mar_13_1243,mf_amp_cond2,3.0.4,59.98105061985483,
help,&&&&&&&&&&&,left,care.virtue,vicissifude,,,,,,,,,,,,,,,0,133,133,255,,,,,,,,,,,,,AMP,right,5.3518320792063605,0,,,,,,,,,,,,,,right,0,5.3518320792063605,,,,,,,,,,,1056,2019_Mar_13_1243,mf_amp_cond2,3.0.4,59.98105061985483,
sickyay,&&&&&&,None,nonword,forepo,,,,,,,,,,,,,,,0,134,134,215,,,,,,,,,,,,,AMP,left,0.6837805911782198,0,,,,,,,,,,,,,,left,0,0.6837805911782198,,,,,,,,,,,1056,2019_Mar_13_1243,mf_amp_cond2,3.0.4,59.98105061985483,
love,&&&&,left,loyalty.virtue,coom,,,,,,,,,,,,,,,0,135,135,168,,,,,,,,,,,,,AMP,right,0.5003805505984928,0,,,,,,,,,,,,,,right,0,0.5003805505984928,,,,,,,,,,,1056,2019_Mar_13_1243,mf_amp_cond2,3.0.4,59.98105061985483,
peaceful,&&&&&&&&&&,left,authority.virtue,focomotive,,,,,,,,,,,,,,,0,136,136,47,,,,,,,,,,,,,AMP,right,0.983853942976566,0,,,,,,,,,,,,,,right,0,0.983853942976566,,,,,,,,,,,1056,2019_Mar_13_1243,mf_amp_cond2,3.0.4,59.98105061985483,
rebels,&&&&&,right,authority.vice,noped,,,,,,,,,,,,,,,0,137,137,234,,,,,,,,,,,,,AMP,left,1.2339200943242759,0,,,,,,,,,,,,,,left,0,1.2339200943242759,,,,,,,,,,,1056,2019_Mar_13_1243,mf_amp_cond2,3.0.4,59.98105061985483,
fighters,&&&&&&&&&,right,authority.vice,gondensed,,,,,,,,,,,,,,,0,138,138,21,,,,,,,,,,,,,AMP,left,0.6004315151658375,0,,,,,,,,,,,,,,left,0,0.6004315151658375,,,,,,,,,,,1056,2019_Mar_13_1243,mf_amp_cond2,3.0.4,59.98105061985483,
care,&&&&&&&&,left,care.virtue,slending,,,,,,,,,,,,,,,0,139,139,75,,,,,,,,,,,,,AMP,right,0.4170337196846958,0,,,,,,,,,,,,,,right,0,0.4170337196846958,,,,,,,,,,,1056,2019_Mar_13_1243,mf_amp_cond2,3.0.4,59.98105061985483,
racist,&&&&&,right,sanctity.vice,leact,,,,,,,,,,,,,,,0,140,140,304,,,,,,,,,,,,,AMP,left,0.3336650789133273,0,,,,,,,,,,,,,,left,0,0.3336650789133273,,,,,,,,,,,1056,2019_Mar_13_1243,mf_amp_cond2,3.0.4,59.98105061985483,
penalty,&&&&&,right,authority.vice,infet,,,,,,,,,,,,,,,0,141,141,253,,,,,,,,,,,,,AMP,left,2.8844136554398574,0,,,,,,,,,,,,,,left,0,2.8844136554398574,,,,,,,,,,,1056,2019_Mar_13_1243,mf_amp_cond2,3.0.4,59.98105061985483,
values,&&&&&,left,sanctity.virtue,saned,,,,,,,,,,,,,,,0,142,142,162,,,,,,,,,,,,,AMP,right,1.0005285691877361,0,,,,,,,,,,,,,,right,0,1.0005285691877361,,,,,,,,,,,1056,2019_Mar_13_1243,mf_amp_cond2,3.0.4,59.98105061985483,
terrorists,&&&&&&&,right,fairness.vice,menizen,,,,,,,,,,,,,,,0,143,143,186,,,,,,,,,,,,,AMP,left,0.6837542910070624,0,,,,,,,,,,,,,,left,0,0.6837542910070624,,,,,,,,,,,1056,2019_Mar_13_1243,mf_amp_cond2,3.0.4,59.98105061985483,
health,&&&&&&&&&&&,left,care.virtue,lempestuous,,,,,,,,,,,,,,,0,144,144,12,,,,,,,,,,,,,AMP,right,0.6670982673531398,0,,,,,,,,,,,,,,right,0,0.6670982673531398,,,,,,,,,,,1056,2019_Mar_13_1243,mf_amp_cond2,3.0.4,59.98105061985483,
unpleasant,&&&&&&&&&&,None,control,honstables,,,,,,,,,,,,,,,0,145,145,233,,,,,,,,,,,,,AMP,left,1.1505758293205872,0,,,,,,,,,,,,,,left,0,1.1505758293205872,,,,,,,,,,,1056,2019_Mar_13_1243,mf_amp_cond2,3.0.4,59.98105061985483,
illegal,&&&&&&&&&&,right,fairness.vice,honstables,,,,,,,,,,,,,,,0,146,146,152,,,,,,,,,,,,,AMP,left,2.9177539273223374,0,,,,,,,,,,,,,,left,0,2.9177539273223374,,,,,,,,,,,1056,2019_Mar_13_1243,mf_amp_cond2,3.0.4,59.98105061985483,
sickyay,&&&&&&&&&,None,nonword,rivernoat,,,,,,,,,,,,,,,0,147,147,293,,,,,,,,,,,,,AMP,left,2.2175264308752958,0,,,,,,,,,,,,,,left,0,2.2175264308752958,,,,,,,,,,,1056,2019_Mar_13_1243,mf_amp_cond2,3.0.4,59.98105061985483,
men,&&&&&,right,loyalty.vice,touls,,,,,,,,,,,,,,,0,148,148,148,,,,,,,,,,,,,AMP,left,0.5837523986992892,0,,,,,,,,,,,,,,left,0,0.5837523986992892,,,,,,,,,,,1056,2019_Mar_13_1243,mf_amp_cond2,3.0.4,59.98105061985483,
trust,&&&&&,left,authority.virtue,hasks,,,,,,,,,,,,,,,0,149,149,270,,,,,,,,,,,,,AMP,right,0.4336948750715237,0,,,,,,,,,,,,,,right,0,0.4336948750715237,,,,,,,,,,,1056,2019_Mar_13_1243,mf_amp_cond2,3.0.4,59.98105061985483,
attacks,&&&&&&&&&,right,care.vice,ittutable,,,,,,,,,,,,,,,0,150,150,299,,,,,,,,,,,,,AMP,left,1.283941727830097,0,,,,,,,,,,,,,,left,0,1.283941727830097,,,,,,,,,,,1056,2019_Mar_13_1243,mf_amp_cond2,3.0.4,59.98105061985483,
serial,&&&&&&,right,sanctity.vice,prones,,,,,,,,,,,,,,,0,151,151,169,,,,,,,,,,,,,AMP,left,0.7837943506601732,0,,,,,,,,,,,,,,left,0,0.7837943506601732,,,,,,,,,,,1056,2019_Mar_13_1243,mf_amp_cond2,3.0.4,59.98105061985483,
trust,&&&&&&&&,left,authority.virtue,glacenta,,,,,,,,,,,,,,,0,152,152,80,,,,,,,,,,,,,AMP,right,0.667105644242838,0,,,,,,,,,,,,,,right,0,0.667105644242838,,,,,,,,,,,1056,2019_Mar_13_1243,mf_amp_cond2,3.0.4,59.98105061985483,
great,&&&&&&&&&&&&,left,loyalty.virtue,quarterbocks,,,,,,,,,,,,,,,0,153,153,69,,,,,,,,,,,,,AMP,right,0.6170846522145439,0,,,,,,,,,,,,,,right,0,0.6170846522145439,,,,,,,,,,,1056,2019_Mar_13_1243,mf_amp_cond2,3.0.4,59.98105061985483,
killed,&&&&&&,right,care.vice,antral,,,,,,,,,,,,,,,0,154,154,201,,,,,,,,,,,,,AMP,left,0.483706565835746,0,,,,,,,,,,,,,,left,0,0.483706565835746,,,,,,,,,,,1056,2019_Mar_13_1243,mf_amp_cond2,3.0.4,59.98105061985483,
love,&&&&&&&&,left,loyalty.virtue,hescribe,,,,,,,,,,,,,,,0,155,155,157,,,,,,,,,,,,,AMP,right,0.6337567125447094,0,,,,,,,,,,,,,,right,0,0.6337567125447094,,,,,,,,,,,1056,2019_Mar_13_1243,mf_amp_cond2,3.0.4,59.98105061985483,
nomaric,&&&&,None,nonword,alar,,,,,,,,,,,,,,,0,156,156,65,,,,,,,,,,,,,AMP,left,2.1008742880949285,0,,,,,,,,,,,,,,left,0,2.1008742880949285,,,,,,,,,,,1056,2019_Mar_13_1243,mf_amp_cond2,3.0.4,59.98105061985483,
rebels,&&&&&&,right,authority.vice,pumber,,,,,,,,,,,,,,,0,157,157,285,,,,,,,,,,,,,AMP,left,1.0005298521427903,0,,,,,,,,,,,,,,left,0,1.0005298521427903,,,,,,,,,,,1056,2019_Mar_13_1243,mf_amp_cond2,3.0.4,59.98105061985483,
penalty,&&&&&&&&&&,right,authority.vice,gationwide,,,,,,,,,,,,,,,0,158,158,14,,,,,,,,,,,,,AMP,left,1.7340661885391455,0,,,,,,,,,,,,,,left,0,1.7340661885391455,,,,,,,,,,,1056,2019_Mar_13_1243,mf_amp_cond2,3.0.4,59.98105061985483,
illegal,&&&&&&,right,fairness.vice,pumber,,,,,,,,,,,,,,,0,159,159,193,,,,,,,,,,,,,AMP,left,1.200586557853967,0,,,,,,,,,,,,,,left,0,1.200586557853967,,,,,,,,,,,1056,2019_Mar_13_1243,mf_amp_cond2,3.0.4,59.98105061985483,
faith,&&&&&&&&&,left,sanctity.virtue,rivernoat,,,,,,,,,,,,,,,0,160,160,79,,,,,,,,,,,,,AMP,right,0.5504458038776647,0,,,,,,,,,,,,,,right,0,0.5504458038776647,,,,,,,,,,,1056,2019_Mar_13_1243,mf_amp_cond2,3.0.4,59.98105061985483,
encourage,&&&&&&,left,authority.virtue,forepo,,,,,,,,,,,,,,,0,161,161,110,,,,,,,,,,,,,AMP,right,2.000825568626169,0,,,,,,,,,,,,,,right,0,2.000825568626169,,,,,,,,,,,1056,2019_Mar_13_1243,mf_amp_cond2,3.0.4,59.98105061985483,
protect,&&&&&&&&,left,fairness.virtue,slending,,,,,,,,,,,,,,,0,162,162,119,,,,,,,,,,,,,AMP,right,2.4342895154259168,0,,,,,,,,,,,,,,right,0,2.4342895154259168,,,,,,,,,,,1056,2019_Mar_13_1243,mf_amp_cond2,3.0.4,59.98105061985483,
fair,&&&&&&&&&,left,fairness.virtue,tenuflect,,,,,,,,,,,,,,,0,163,163,17,,,,,,,,,,,,,AMP,right,0.2836931591446046,0,,,,,,,,,,,,,,right,0,0.2836931591446046,,,,,,,,,,,1056,2019_Mar_13_1243,mf_amp_cond2,3.0.4,59.98105061985483,
victim,&&&&&&,right,care.vice,prones,,,,,,,,,,,,,,,0,164,164,303,,,,,,,,,,,,,AMP,left,0.3504121909791138,0,,,,,,,,,,,,,,left,0,0.3504121909791138,,,,,,,,,,,1056,2019_Mar_13_1243,mf_amp_cond2,3.0.4,59.98105061985483,
powerful,&&&&&&&&&&&,left,authority.virtue,hefurbished,,,,,,,,,,,,,,,0,165,165,291,,,,,,,,,,,,,AMP,right,8.135967690555844,0,,,,,,,,,,,,,,right,0,8.135967690555844,,,,,,,,,,,1056,2019_Mar_13_1243,mf_amp_cond2,3.0.4,59.98105061985483,
help,&&&&&&&&&&,left,care.virtue,fonderland,,,,,,,,,,,,,,,0,166,166,228,,,,,,,,,,,,,AMP,right,1.1839128938445356,0,,,,,,,,,,,,,,right,0,1.1839128938445356,,,,,,,,,,,1056,2019_Mar_13_1243,mf_amp_cond2,3.0.4,59.98105061985483,
accused,&&&&&&&&&&&,right,fairness.vice,ilportation,,,,,,,,,,,,,,,0,167,167,28,,,,,,,,,,,,,AMP,left,11.07012746919645,0,,,,,,,,,,,,,,left,0,11.07012746919645,,,,,,,,,,,1056,2019_Mar_13_1243,mf_amp_cond2,3.0.4,59.98105061985483,
praised,&&&&,left,loyalty.virtue,coom,,,,,,,,,,,,,,,0,168,168,317,,,,,,,,,,,,,AMP,right,0.1836165358836297,0,,,,,,,,,,,,,,right,0,0.1836165358836297,,,,,,,,,,,1056,2019_Mar_13_1243,mf_amp_cond2,3.0.4,59.98105061985483,
pescinded,&&&&&&&&&&&&,None,nonword,quarterbocks,,,,,,,,,,,,,,,0,169,169,298,,,,,,,,,,,,,AMP,left,1.0338736520789098,0,,,,,,,,,,,,,,left,0,1.0338736520789098,,,,,,,,,,,1056,2019_Mar_13_1243,mf_amp_cond2,3.0.4,59.98105061985483,
help,&&&&&&&&,left,care.virtue,crinking,,,,,,,,,,,,,,,0,170,170,72,,,,,,,,,,,,,AMP,right,0.5003856823313981,0,,,,,,,,,,,,,,right,0,0.5003856823313981,,,,,,,,,,,1056,2019_Mar_13_1243,mf_amp_cond2,3.0.4,59.98105061985483,
died,&&&&&&&&,right,care.vice,hescribe,,,,,,,,,,,,,,,0,171,171,266,,,,,,,,,,,,,AMP,left,0.2670810760464519,0,,,,,,,,,,,,,,left,0,0.2670810760464519,,,,,,,,,,,1056,2019_Mar_13_1243,mf_amp_cond2,3.0.4,59.98105061985483,
racist,&&&&&&&,right,sanctity.vice,pharing,,,,,,,,,,,,,,,0,172,172,205,,,,,,,,,,,,,AMP,left,0.3336695691978093,0,,,,,,,,,,,,,,left,0,0.3336695691978093,,,,,,,,,,,1056,2019_Mar_13_1243,mf_amp_cond2,3.0.4,59.98105061985483,
encourage,&&&&&&&&&,left,authority.virtue,neputized,,,,,,,,,,,,,,,0,173,173,243,,,,,,,,,,,,,AMP,right,0.3003193546028342,0,,,,,,,,,,,,,,right,0,0.3003193546028342,,,,,,,,,,,1056,2019_Mar_13_1243,mf_amp_cond2,3.0.4,59.98105061985483,
victim,&&&&,right,care.vice,juck,,,,,,,,,,,,,,,0,174,174,8,,,,,,,,,,,,,AMP,left,0.30032576926168986,0,,,,,,,,,,,,,,left,0,0.30032576926168986,,,,,,,,,,,1056,2019_Mar_13_1243,mf_amp_cond2,3.0.4,59.98105061985483,
strength,&&&&&&&&&&&,left,sanctity.virtue,precificity,,,,,,,,,,,,,,,0,175,175,37,,,,,,,,,,,,,AMP,right,1.4006692430120893,0,,,,,,,,,,,,,,right,0,1.4006692430120893,,,,,,,,,,,1056,2019_Mar_13_1243,mf_amp_cond2,3.0.4,59.98105061985483,
serial,&&&&&&&&&&,right,sanctity.vice,imebreaker,,,,,,,,,,,,,,,0,176,176,325,,,,,,,,,,,,,AMP,left,0.567078734660754,0,,,,,,,,,,,,,,left,0,0.567078734660754,,,,,,,,,,,1056,2019_Mar_13_1243,mf_amp_cond2,3.0.4,59.98105061985483,
good,&&&&&&&&,left,care.virtue,ebbitter,,,,,,,,,,,,,,,0,177,177,279,,,,,,,,,,,,,AMP,right,0.48369726457167417,0,,,,,,,,,,,,,,right,0,0.48369726457167417,,,,,,,,,,,1056,2019_Mar_13_1243,mf_amp_cond2,3.0.4,59.98105061985483,
care,&&&&&&&&&&&&,left,care.virtue,nonobservalt,,,,,,,,,,,,,,,0,178,178,216,,,,,,,,,,,,,AMP,right,1.65073026259779,0,,,,,,,,,,,,,,right,0,1.65073026259779,,,,,,,,,,,1056,2019_Mar_13_1243,mf_amp_cond2,3.0.4,59.98105061985483,
attacks,&&&&&&&&&&,right,care.vice,chonograph,,,,,,,,,,,,,,,0,179,179,83,,,,,,,,,,,,,AMP,left,0.7337775281630456,0,,,,,,,,,,,,,,left,0,0.7337775281630456,,,,,,,,,,,1056,2019_Mar_13_1243,mf_amp_cond2,3.0.4,59.98105061985483,
civilians,&&&&&&&&&&&,right,care.vice,hefurbished,,,,,,,,,,,,,,,0,180,180,167,,,,,,,,,,,,,AMP,left,7.602505379501963,0,,,,,,,,,,,,,,left,0,7.602505379501963,,,,,,,,,,,1056,2019_Mar_13_1243,mf_amp_cond2,3.0.4,59.98105061985483,
honored,&&&&&,left,authority.virtue,saned,,,,,,,,,,,,,,,0,181,181,18,,,,,,,,,,,,,AMP,right,0.3670185008959379,0,,,,,,,,,,,,,,right,0,0.3670185008959379,,,,,,,,,,,1056,2019_Mar_13_1243,mf_amp_cond2,3.0.4,59.98105061985483,
violations,&&&&,right,sanctity.vice,juck,,,,,,,,,,,,,,,0,182,182,135,,,,,,,,,,,,,AMP,left,0.9838892236875836,0,,,,,,,,,,,,,,left,0,0.9838892236875836,,,,,,,,,,,1056,2019_Mar_13_1243,mf_amp_cond2,3.0.4,59.98105061985483,
charges,&&&&&&&&&,right,fairness.vice,crilfully,,,,,,,,,,,,,,,0,183,183,131,,,,,,,,,,,,,AMP,left,0.9005237902747467,0,,,,,,,,,,,,,,left,0,0.9005237902747467,,,,,,,,,,,1056,2019_Mar_13_1243,mf_amp_cond2,3.0.4,59.98105061985483,
racist,&&&&,right,sanctity.vice,alar,,,,,,,,,,,,,,,0,184,184,126,,,,,,,,,,,,,AMP,left,0.3670127276855055,0,,,,,,,,,,,,,,left,0,0.3670127276855055,,,,,,,,,,,1056,2019_Mar_13_1243,mf_amp_cond2,3.0.4,59.98105061985483,
died,&&&&&&&&,right,care.vice,proached,,,,,,,,,,,,,,,0,185,185,143,,,,,,,,,,,,,AMP,left,0.28364472836256027,0,,,,,,,,,,,,,,left,0,0.28364472836256027,,,,,,,,,,,1056,2019_Mar_13_1243,mf_amp_cond2,3.0.4,59.98105061985483,
integrity,&&&&,left,fairness.virtue,wump,,,,,,,,,,,,,,,0,186,186,249,,,,,,,,,,,,,AMP,right,0.8838154870027211,0,,,,,,,,,,,,,,right,0,0.8838154870027211,,,,,,,,,,,1056,2019_Mar_13_1243,mf_amp_cond2,3.0.4,59.98105061985483,
officers,&&&&&&&&,right,authority.vice,ugeasily,,,,,,,,,,,,,,,0,187,187,70,,,,,,,,,,,,,AMP,left,0.28364986009546556,0,,,,,,,,,,,,,,left,0,0.28364986009546556,,,,,,,,,,,1056,2019_Mar_13_1243,mf_amp_cond2,3.0.4,59.98105061985483,
sickyay,&&&&&&&&&&&&,None,nonword,edancipation,,,,,,,,,,,,,,,0,188,188,23,,,,,,,,,,,,,AMP,left,1.9674721467017662,0,,,,,,,,,,,,,,left,0,1.9674721467017662,,,,,,,,,,,1056,2019_Mar_13_1243,mf_amp_cond2,3.0.4,59.98105061985483,
army,&&&&&&&&&,right,loyalty.vice,baladroit,,,,,,,,,,,,,,,0,189,189,121,,,,,,,,,,,,,AMP,left,1.1672450030455366,0,,,,,,,,,,,,,,left,0,1.1672450030455366,,,,,,,,,,,1056,2019_Mar_13_1243,mf_amp_cond2,3.0.4,59.98105061985483,
letish,&&&&,None,nonword,wump,,,,,,,,,,,,,,,0,190,190,111,,,,,,,,,,,,,AMP,left,0.700468046736205,0,,,,,,,,,,,,,,left,0,0.700468046736205,,,,,,,,,,,1056,2019_Mar_13_1243,mf_amp_cond2,3.0.4,59.98105061985483,
health,&&&&&&&,left,care.virtue,halaise,,,,,,,,,,,,,,,0,191,191,302,,,,,,,,,,,,,AMP,right,0.38369408930884674,0,,,,,,,,,,,,,,right,0,0.38369408930884674,,,,,,,,,,,1056,2019_Mar_13_1243,mf_amp_cond2,3.0.4,59.98105061985483,
reprisols,&&&&&&,None,nonword,gikely,,,,,,,,,,,,,,,0,192,192,238,,,,,,,,,,,,,AMP,left,0.8504857993684709,0,,,,,,,,,,,,,,left,0,0.8504857993684709,,,,,,,,,,,1056,2019_Mar_13_1243,mf_amp_cond2,3.0.4,59.98105061985483,
protect,&&&&&&,left,fairness.virtue,fegard,,,,,,,,,,,,,,,0,193,193,296,,,,,,,,,,,,,AMP,left,1.6005620538198855,1,,,,,,,,,,,,,,left,1,1.6005620538198855,,,,,,,,,,,1056,2019_Mar_13_1243,mf_amp_cond2,3.0.4,59.98105061985483,
violations,&&&&&&&&&,right,sanctity.vice,ittutable,,,,,,,,,,,,,,,0,194,194,73,,,,,,,,,,,,,AMP,left,0.2336346412776038,0,,,,,,,,,,,,,,left,0,0.2336346412776038,,,,,,,,,,,1056,2019_Mar_13_1243,mf_amp_cond2,3.0.4,59.98105061985483,
discovars,&&&&&&&&&&&&&,None,nonword,wonderfujnoss,,,,,,,,,,,,,,,0,195,195,276,,,,,,,,,,,,,AMP,right,3.384544675151119,0,,,,,,,,,,,,,,right,0,3.384544675151119,,,,,,,,,,,1056,2019_Mar_13_1243,mf_amp_cond2,3.0.4,59.98105061985483,
terrorists,&&&&&&&&&,right,fairness.vice,seachwear,,,,,,,,,,,,,,,0,196,196,53,,,,,,,,,,,,,AMP,left,0.4503675769083202,0,,,,,,,,,,,,,,left,0,0.4503675769083202,,,,,,,,,,,1056,2019_Mar_13_1243,mf_amp_cond2,3.0.4,59.98105061985483,
groups,&&&&&,right,loyalty.vice,tabin,,,,,,,,,,,,,,,0,197,197,106,,,,,,,,,,,,,AMP,right,0.8171538665774278,1,,,,,,,,,,,,,,right,1,0.8171538665774278,,,,,,,,,,,1056,2019_Mar_13_1243,mf_amp_cond2,3.0.4,59.98105061985483,
win,&&&&&&&&&&&,left,fairness.virtue,precificity,,,,,,,,,,,,,,,0,198,198,190,,,,,,,,,,,,,AMP,left,3.434563422051724,1,,,,,,,,,,,,,,left,1,3.434563422051724,,,,,,,,,,,1056,2019_Mar_13_1243,mf_amp_cond2,3.0.4,59.98105061985483,
terrorist,&&&&&,right,loyalty.vice,aubos,,,,,,,,,,,,,,,0,199,199,203,,,,,,,,,,,,,AMP,left,0.28366301019559614,0,,,,,,,,,,,,,,left,0,0.28366301019559614,,,,,,,,,,,1056,2019_Mar_13_1243,mf_amp_cond2,3.0.4,59.98105061985483,
encourage,&&&&&&&&,left,authority.virtue,drumbled,,,,,,,,,,,,,,,0,200,200,63,,,,,,,,,,,,,AMP,right,0.3169910942087881,0,,,,,,,,,,,,,,right,0,0.3169910942087881,,,,,,,,,,,1056,2019_Mar_13_1243,mf_amp_cond2,3.0.4,59.98105061985483,
pescinded,&&&&&&&,None,nonword,chreams,,,,,,,,,,,,,,,0,201,201,209,,,,,,,,,,,,,AMP,left,0.7004763857985381,0,,,,,,,,,,,,,,left,0,0.7004763857985381,,,,,,,,,,,1056,2019_Mar_13_1243,mf_amp_cond2,3.0.4,59.98105061985483,
prison,&&&&&,right,fairness.vice,infet,,,,,,,,,,,,,,,0,202,202,195,,,,,,,,,,,,,AMP,left,1.2839394826733042,0,,,,,,,,,,,,,,left,0,1.2839394826733042,,,,,,,,,,,1056,2019_Mar_13_1243,mf_amp_cond2,3.0.4,59.98105061985483,
refused,&&&&,right,authority.vice,wump,,,,,,,,,,,,,,,0,203,203,165,,,,,,,,,,,,,AMP,left,1.2339300370658748,0,,,,,,,,,,,,,,left,0,1.2339300370658748,,,,,,,,,,,1056,2019_Mar_13_1243,mf_amp_cond2,3.0.4,59.98105061985483,
prison,&&&&&&,right,fairness.vice,prones,,,,,,,,,,,,,,,0,204,204,98,,,,,,,,,,,,,AMP,left,1.1839144974946976,0,,,,,,,,,,,,,,left,0,1.1839144974946976,,,,,,,,,,,1056,2019_Mar_13_1243,mf_amp_cond2,3.0.4,59.98105061985483,
interests,&&&&&&&&,left,fairness.virtue,epigrach,,,,,,,,,,,,,,,0,205,205,82,,,,,,,,,,,,,AMP,right,1.4339925159874838,0,,,,,,,,,,,,,,right,0,1.4339925159874838,,,,,,,,,,,1056,2019_Mar_13_1243,mf_amp_cond2,3.0.4,59.98105061985483,
gun,&&&&&&&&&,right,authority.vice,seachwear,,,,,,,,,,,,,,,0,206,206,128,,,,,,,,,,,,,AMP,left,0.4003513958887197,0,,,,,,,,,,,,,,left,0,0.4003513958887197,,,,,,,,,,,1056,2019_Mar_13_1243,mf_amp_cond2,3.0.4,59.98105061985483,
squets,&&&&&&&&&,None,nonword,crilfully,,,,,,,,,,,,,,,0,207,207,184,,,,,,,,,,,,,AMP,left,0.617103575496003,0,,,,,,,,,,,,,,left,0,0.617103575496003,,,,,,,,,,,1056,2019_Mar_13_1243,mf_amp_cond2,3.0.4,59.98105061985483,
penalty,&&&&&&&&&,right,authority.vice,tenuflect,,,,,,,,,,,,,,,0,208,208,185,,,,,,,,,,,,,AMP,left,2.4176103989593685,0,,,,,,,,,,,,,,left,0,2.4176103989593685,,,,,,,,,,,1056,2019_Mar_13_1243,mf_amp_cond2,3.0.4,59.98105061985483,
squets,&&&&&,None,nonword,hasks,,,,,,,,,,,,,,,0,209,209,58,,,,,,,,,,,,,AMP,left,0.7671158756420482,0,,,,,,,,,,,,,,left,0,0.7671158756420482,,,,,,,,,,,1056,2019_Mar_13_1243,mf_amp_cond2,3.0.4,59.98105061985483,
illegal,&&&&&,right,fairness.vice,aubos,,,,,,,,,,,,,,,0,210,210,326,,,,,,,,,,,,,AMP,left,0.283518038544571,0,,,,,,,,,,,,,,left,0,0.283518038544571,,,,,,,,,,,1056,2019_Mar_13_1243,mf_amp_cond2,3.0.4,59.98105061985483,
honored,&&&&&&&&&&&,left,authority.virtue,ilportation,,,,,,,,,,,,,,,0,211,211,160,,,,,,,,,,,,,AMP,right,0.4170401343726553,0,,,,,,,,,,,,,,right,0,0.4170401343726553,,,,,,,,,,,1056,2019_Mar_13_1243,mf_amp_cond2,3.0.4,59.98105061985483,
shot,&&&&&&&,right,care.vice,chadows,,,,,,,,,,,,,,,0,212,212,176,,,,,,,,,,,,,AMP,left,1.017080995865399,0,,,,,,,,,,,,,,left,0,1.017080995865399,,,,,,,,,,,1056,2019_Mar_13_1243,mf_amp_cond2,3.0.4,59.98105061985483,
victim,&&&&&&&,right,care.vice,baklara,,,,,,,,,,,,,,,0,213,213,122,,,,,,,,,,,,,AMP,left,0.7337826599250548,0,,,,,,,,,,,,,,left,0,0.7337826599250548,,,,,,,,,,,1056,2019_Mar_13_1243,mf_amp_cond2,3.0.4,59.98105061985483,
win,&&&&&&&&,left,fairness.virtue,hescribe,,,,,,,,,,,,,,,0,214,214,22,,,,,,,,,,,,,AMP,right,0.6837786667747423,0,,,,,,,,,,,,,,right,0,0.6837786667747423,,,,,,,,,,,1056,2019_Mar_13_1243,mf_amp_cond2,3.0.4,59.98105061985483,
blamed,&&&&&&&&,right,loyalty.vice,sidearbs,,,,,,,,,,,,,,,0,215,215,118,,,,,,,,,,,,,AMP,left,0.43374458883772604,0,,,,,,,,,,,,,,left,0,0.43374458883772604,,,,,,,,,,,1056,2019_Mar_13_1243,mf_amp_cond2,3.0.4,59.98105061985483,
unpleasant,&&&&&&&,None,control,halaise,,,,,,,,,,,,,,,0,216,216,125,,,,,,,,,,,,,AMP,left,0.9505162369750906,0,,,,,,,,,,,,,,left,0,0.9505162369750906,,,,,,,,,,,1056,2019_Mar_13_1243,mf_amp_cond2,3.0.4,59.98105061985483,
loyalty,&&&&&&&&&&,left,loyalty.virtue,honstables,,,,,,,,,,,,,,,0,217,217,248,,,,,,,,,,,,,AMP,right,0.41701126834959723,0,,,,,,,,,,,,,,right,0,0.41701126834959723,,,,,,,,,,,1056,2019_Mar_13_1243,mf_amp_cond2,3.0.4,59.98105061985483,
commitment,&&&&&&&&&&&,left,sanctity.virtue,shoirmaster,,,,,,,,,,,,,,,0,218,218,287,,,,,,,,,,,,,AMP,right,0.41701447567902505,0,,,,,,,,,,,,,,right,0,0.41701447567902505,,,,,,,,,,,1056,2019_Mar_13_1243,mf_amp_cond2,3.0.4,59.98105061985483,
drug,&&&&&&&&,right,sanctity.vice,slending,,,,,,,,,,,,,,,0,219,219,208,,,,,,,,,,,,,AMP,left,0.2836488978937268,0,,,,,,,,,,,,,,left,0,0.2836488978937268,,,,,,,,,,,1056,2019_Mar_13_1243,mf_amp_cond2,3.0.4,59.98105061985483,
blamed,&&&&&&&&&&,right,loyalty.vice,honstables,,,,,,,,,,,,,,,0,220,220,62,,,,,,,,,,,,,AMP,left,0.8171554702275898,0,,,,,,,,,,,,,,left,0,0.8171554702275898,,,,,,,,,,,1056,2019_Mar_13_1243,mf_amp_cond2,3.0.4,59.98105061985483,
discovars,&&&&&&&&&&&&,None,nonword,edancipation,,,,,,,,,,,,,,,0,221,221,115,,,,,,,,,,,,,AMP,left,0.7337913197407033,0,,,,,,,,,,,,,,left,0,0.7337913197407033,,,,,,,,,,,1056,2019_Mar_13_1243,mf_amp_cond2,3.0.4,59.98105061985483,
hand,&&&&&&&&&&,left,sanctity.virtue,pistraught,,,,,,,,,,,,,,,0,222,222,172,,,,,,,,,,,,,AMP,left,1.267263252811972,1,,,,,,,,,,,,,,left,1,1.267263252811972,,,,,,,,,,,1056,2019_Mar_13_1243,mf_amp_cond2,3.0.4,59.98105061985483,
loyalty,&&&&,left,loyalty.virtue,yane,,,,,,,,,,,,,,,0,223,223,112,,,,,,,,,,,,,AMP,right,0.4836982267734129,0,,,,,,,,,,,,,,right,0,0.4836982267734129,,,,,,,,,,,1056,2019_Mar_13_1243,mf_amp_cond2,3.0.4,59.98105061985483,
faith,&&&&&,left,sanctity.virtue,touls,,,,,,,,,,,,,,,0,224,224,229,,,,,,,,,,,,,AMP,right,0.7337881123821717,0,,,,,,,,,,,,,,right,0,0.7337881123821717,,,,,,,,,,,1056,2019_Mar_13_1243,mf_amp_cond2,3.0.4,59.98105061985483,
nomaric,&&&&&,None,nonword,tabin,,,,,,,,,,,,,,,0,225,225,242,,,,,,,,,,,,,AMP,left,0.5503883925266564,0,,,,,,,,,,,,,,left,0,0.5503883925266564,,,,,,,,,,,1056,2019_Mar_13_1243,mf_amp_cond2,3.0.4,59.98105061985483,
groups,&&&&&&&,right,loyalty.vice,pharing,,,,,,,,,,,,,,,0,226,226,297,,,,,,,,,,,,,AMP,left,1.2005846334504895,0,,,,,,,,,,,,,,left,0,1.2005846334504895,,,,,,,,,,,1056,2019_Mar_13_1243,mf_amp_cond2,3.0.4,59.98105061985483,
peace,&&&&&&&&&&,left,care.virtue,imebreaker,,,,,,,,,,,,,,,0,227,227,178,,,,,,,,,,,,,AMP,right,2.3509298552235123,0,,,,,,,,,,,,,,right,0,2.3509298552235123,,,,,,,,,,,1056,2019_Mar_13_1243,mf_amp_cond2,3.0.4,59.98105061985483,
failure,&&&&&&&&&&&&&,right,loyalty.vice,idexpressible,,,,,,,,,,,,,,,0,228,228,177,,,,,,,,,,,,,AMP,left,0.3670573096605949,0,,,,,,,,,,,,,,left,0,0.3670573096605949,,,,,,,,,,,1056,2019_Mar_13_1243,mf_amp_cond2,3.0.4,59.98105061985483,
prison,&&&&&&&,right,fairness.vice,pharing,,,,,,,,,,,,,,,0,229,229,54,,,,,,,,,,,,,AMP,left,1.717406316078268,0,,,,,,,,,,,,,,left,0,1.717406316078268,,,,,,,,,,,1056,2019_Mar_13_1243,mf_amp_cond2,3.0.4,59.98105061985483,
army,&&&&&&&&,right,loyalty.vice,sidearbs,,,,,,,,,,,,,,,0,230,230,48,,,,,,,,,,,,,AMP,left,1.6507183954527136,0,,,,,,,,,,,,,,left,0,1.6507183954527136,,,,,,,,,,,1056,2019_Mar_13_1243,mf_amp_cond2,3.0.4,59.98105061985483,
officers,&&&&&&&,right,authority.vice,menizen,,,,,,,,,,,,,,,0,231,231,103,,,,,,,,,,,,,AMP,right,0.9171695504337549,1,,,,,,,,,,,,,,right,1,0.9171695504337549,,,,,,,,,,,1056,2019_Mar_13_1243,mf_amp_cond2,3.0.4,59.98105061985483,
sexual,&&&&&&&&&,right,sanctity.vice,metibolic,,,,,,,,,,,,,,,0,232,232,52,,,,,,,,,,,,,AMP,right,2.067513168498408,1,,,,,,,,,,,,,,right,1,2.067513168498408,,,,,,,,,,,1056,2019_Mar_13_1243,mf_amp_cond2,3.0.4,59.98105061985483,
dignity,&&&&&&&,left,sanctity.virtue,dramens,,,,,,,,,,,,,,,0,233,233,46,,,,,,,,,,,,,AMP,right,1.0505396184744313,0,,,,,,,,,,,,,,right,0,1.0505396184744313,,,,,,,,,,,1056,2019_Mar_13_1243,mf_amp_cond2,3.0.4,59.98105061985483,
progress,&&&&&&&&&,left,authority.virtue,ittutable,,,,,,,,,,,,,,,0,234,234,219,,,,,,,,,,,,,AMP,right,0.23363752791192383,0,,,,,,,,,,,,,,right,0,0.23363752791192383,,,,,,,,,,,1056,2019_Mar_13_1243,mf_amp_cond2,3.0.4,59.98105061985483,
improve,&&&&&&,left,care.virtue,sgrawl,,,,,,,,,,,,,,,0,235,235,230,,,,,,,,,,,,,AMP,right,0.31694266339764,0,,,,,,,,,,,,,,right,0,0.31694266339764,,,,,,,,,,,1056,2019_Mar_13_1243,mf_amp_cond2,3.0.4,59.98105061985483,
men,&&&&,right,loyalty.vice,alar,,,,,,,,,,,,,,,0,236,236,273,,,,,,,,,,,,,AMP,right,0.33367117287707515,1,,,,,,,,,,,,,,right,1,0.33367117287707515,,,,,,,,,,,1056,2019_Mar_13_1243,mf_amp_cond2,3.0.4,59.98105061985483,
integrity,&&&&&&&&&&,left,fairness.virtue,galamitous,,,,,,,,,,,,,,,0,237,237,218,,,,,,,,,,,,,AMP,right,0.9837169896927662,0,,,,,,,,,,,,,,right,0,0.9837169896927662,,,,,,,,,,,1056,2019_Mar_13_1243,mf_amp_cond2,3.0.4,59.98105061985483,
sexual,&&&&&&&&,right,sanctity.vice,sidearbs,,,,,,,,,,,,,,,0,238,238,294,,,,,,,,,,,,,AMP,left,0.5670610943052452,0,,,,,,,,,,,,,,left,0,0.5670610943052452,,,,,,,,,,,1056,2019_Mar_13_1243,mf_amp_cond2,3.0.4,59.98105061985483,
praised,&&&&&&&&,left,loyalty.virtue,crinking,,,,,,,,,,,,,,,0,239,239,180,,,,,,,,,,,,,AMP,left,0.9671882973052561,1,,,,,,,,,,,,,,left,1,0.9671882973052561,,,,,,,,,,,1056,2019_Mar_13_1243,mf_amp_cond2,3.0.4,59.98105061985483,
hate,&&&&&&&&&&,right,fairness.vice,pistraught,,,,,,,,,,,,,,,0,240,240,306,,,,,,,,,,,,,AMP,left,0.3503432332072407,0,,,,,,,,,,,,,,left,0,0.3503432332072407,,,,,,,,,,,1056,2019_Mar_13_1243,mf_amp_cond2,3.0.4,59.98105061985483,
Lacedonia,&&&&&&&&&&,None,nonword,fonderland,,,,,,,,,,,,,,,0,241,241,261,,,,,,,,,,,,,AMP,left,4.651579886267427,0,,,,,,,,,,,,,,left,0,4.651579886267427,,,,,,,,,,,1056,2019_Mar_13_1243,mf_amp_cond2,3.0.4,59.98105061985483,
Lacedonia,&&&&&&&&&,None,nonword,tenuflect,,,,,,,,,,,,,,,0,242,242,108,,,,,,,,,,,,,AMP,left,1.3839763349969871,0,,,,,,,,,,,,,,left,0,1.3839763349969871,,,,,,,,,,,1056,2019_Mar_13_1243,mf_amp_cond2,3.0.4,59.98105061985483,
protect,&&&&&&,left,fairness.virtue,fegard,,,,,,,,,,,,,,,0,243,243,245,,,,,,,,,,,,,AMP,right,0.6170849729387555,0,,,,,,,,,,,,,,right,0,0.6170849729387555,,,,,,,,,,,1056,2019_Mar_13_1243,mf_amp_cond2,3.0.4,59.98105061985483,
unpleasant,&&&&&&&&&&,None,control,abointment,,,,,,,,,,,,,,,0,244,244,49,,,,,,,,,,,,,AMP,right,4.718276145984419,0,,,,,,,,,,,,,,right,0,4.718276145984419,,,,,,,,,,,1056,2019_Mar_13_1243,mf_amp_cond2,3.0.4,59.98105061985483,
