words,nonwords,mask,corr_ans,category,tweets,topic,AMP_pracloop.thisRepN,AMP_pracloop.thisTrialN,AMP_pracloop.thisN,AMP_pracloop.thisIndex,AMP_trials.thisRepN,AMP_trials.thisTrialN,AMP_trials.thisN,AMP_trials.thisIndex,LDT_pracloop.thisRepN,LDT_pracloop.thisTrialN,LDT_pracloop.thisN,LDT_pracloop.thisIndex,LDT_trials.thisRepN,LDT_trials.thisTrialN,LDT_trials.thisN,LDT_trials.thisIndex,tweet_loop.thisRepN,tweet_loop.thisTrialN,tweet_loop.thisN,tweet_loop.thisIndex,begin_key.keys,begin_key.rt,key_resp_AMP_instr1.keys,key_resp_AMP_instr1.rt,resp_AMP_ready1.keys,resp_AMP_ready1.rt,resp_AMP_prac.keys,resp_AMP_prac.rt,task,keypress,RT,resp_AMP_ready.keys,resp_AMP_ready.rt,resp_AMP.keys,resp_AMP.corr,resp_AMP.rt,corr,AMP_nonword_rating.response,AMP_nonword_rating.rt,AMP_word_rating.response,AMP_word_rating.rt,AMP_random_rating.response,AMP_random_rating.rt,key_resp_LDT_instr.keys,key_resp_LDT_instr.rt,resp_LDT_prac.keys,resp_LDT_prac.rt,resp_LDT_ready.keys,resp_LDT_ready.rt,resp_LDT.keys,resp_LDT.corr,resp_LDT.rt,LDT_rating.response,LDT_rating.rt,key_resp_LDT_instr_2.keys,key_resp_LDT_instr_2.rt,resp_tweets.keys,resp_tweets.rt,participant,date,expName,psychopyVersion,frameRate,
,,,,,,,,,,,,,,,,,,,,,,,,,,,right,1326.9153812034347,,,,,,,,,,,,,,,,,,,,,,,,,,,,,,,,,,,,,1057,2019_Mar_13_1244,mf_amp_cond1,3.0.4,60.00159720718113,
,,,,,,,,,,,,,,,,,,,,,,,,,,,,,right,5.918325071106665,,,,,,,,,,,,,,,,,,,,,,,,,,,,,,,,,,,1057,2019_Mar_13_1244,mf_amp_cond1,3.0.4,60.00159720718113,
,,,,,,,,,,,,,,,,,,,,,,,,,,,,,,,right,2.0506913551071193,,,,,,,,,,,,,,,,,,,,,,,,,,,,,,,,,1057,2019_Mar_13_1244,mf_amp_cond1,3.0.4,60.00159720718113,
car,cemtuper,&&&&&&&&,,,,,0,0,0,0,,,,,,,,,,,,,,,,,,,,,,,right,2.9175832511100452,AMP_prac,right,2.9175832511100452,,,,,,,,,,,,,,,,,,,,,,,,,,,,1057,2019_Mar_13_1244,mf_amp_cond1,3.0.4,60.00159720718113,
banana,kacket,&&&&&&,,,,,0,1,1,1,,,,,,,,,,,,,,,,,,,,,,,right,2.250759860384278,AMP_prac,right,2.250759860384278,,,,,,,,,,,,,,,,,,,,,,,,,,,,1057,2019_Mar_13_1244,mf_amp_cond1,3.0.4,60.00159720718113,
scarf,bisebell,&&&&&&&&,,,,,0,2,2,3,,,,,,,,,,,,,,,,,,,,,,,right,2.11740576592274,AMP_prac,right,2.11740576592274,,,,,,,,,,,,,,,,,,,,,,,,,,,,1057,2019_Mar_13_1244,mf_amp_cond1,3.0.4,60.00159720718113,
keyboard,senk,&&&&,,,,,0,3,3,2,,,,,,,,,,,,,,,,,,,,,,,left,3.6844638257753104,AMP_prac,left,3.6844638257753104,,,,,,,,,,,,,,,,,,,,,,,,,,,,1057,2019_Mar_13_1244,mf_amp_cond1,3.0.4,60.00159720718113,
,,,,,,,,,,,,,,,,,,,,,,,,,,,,,,,,,,,,,,right,1.133836774592055,,,,,,,,,,,,,,,,,,,,,,,,,,1057,2019_Mar_13_1244,mf_amp_cond1,3.0.4,60.00159720718113,
perfect,pumber,&&&&&&,left,sanctity.virtue,,,,,,,0,0,0,0,,,,,,,,,,,,,,,,,,,,,AMP,right,2.234098576416727,,,right,0,2.234098576416727,0,,,,,,,,,,,,,,,,,,,,,,1057,2019_Mar_13_1244,mf_amp_cond1,3.0.4,60.00159720718113,
war,yane,&&&&,right,sanctity.vice,,,,,,,0,1,1,1,,,,,,,,,,,,,,,,,,,,,AMP,left,3.3343667926383205,,,left,0,3.3343667926383205,0,,,,,,,,,,,,,,,,,,,,,,1057,2019_Mar_13_1244,mf_amp_cond1,3.0.4,60.00159720718113,
embrace,clattening,&&&&&&&&&&,left,authority.virtue,,,,,,,0,2,2,2,,,,,,,,,,,,,,,,,,,,,AMP,right,1.1171636240615044,,,right,0,1.1171636240615044,0,,,,,,,,,,,,,,,,,,,,,,1057,2019_Mar_13_1244,mf_amp_cond1,3.0.4,60.00159720718113,
encourage,antral,&&&&&&,left,authority.virtue,,,,,,,0,3,3,3,,,,,,,,,,,,,,,,,,,,,AMP,right,1.7839812418678775,,,right,0,1.7839812418678775,0,,,,,,,,,,,,,,,,,,,,,,1057,2019_Mar_13_1244,mf_amp_cond1,3.0.4,60.00159720718113,
violations,nomparisons,&&&&&&&&&&&,right,sanctity.vice,,,,,,,0,4,4,4,,,,,,,,,,,,,,,,,,,,,AMP,left,1.1838517360738479,,,left,0,1.1838517360738479,0,,,,,,,,,,,,,,,,,,,,,,1057,2019_Mar_13_1244,mf_amp_cond1,3.0.4,60.00159720718113,
alar,slending,&&&&&&&&,None,nonword,,,,,,,0,5,5,5,,,,,,,,,,,,,,,,,,,,,AMP,right,1.2505164356552996,,,right,0,1.2505164356552996,0,,,,,,,,,,,,,,,,,,,,,,1057,2019_Mar_13_1244,mf_amp_cond1,3.0.4,60.00159720718113,
victim,ejanulated,&&&&&&&&&&,right,care.vice,,,,,,,0,6,6,6,,,,,,,,,,,,,,,,,,,,,AMP,left,0.8504371542367153,,,left,0,0.8504371542367153,0,,,,,,,,,,,,,,,,,,,,,,1057,2019_Mar_13_1244,mf_amp_cond1,3.0.4,60.00159720718113,
faspberry,touls,&&&&&,None,nonword,,,,,,,0,7,7,7,,,,,,,,,,,,,,,,,,,,,AMP,right,0.9004277411731891,,,right,0,0.9004277411731891,0,,,,,,,,,,,,,,,,,,,,,,1057,2019_Mar_13_1244,mf_amp_cond1,3.0.4,60.00159720718113,
police,brudent,&&&&&&&,right,authority.vice,,,,,,,0,8,8,8,,,,,,,,,,,,,,,,,,,,,AMP,left,0.8004177027032711,,,left,0,0.8004177027032711,0,,,,,,,,,,,,,,,,,,,,,,1057,2019_Mar_13_1244,mf_amp_cond1,3.0.4,60.00159720718113,
godlaness,reviked,&&&&&&&,None,nonword,,,,,,,0,9,9,9,,,,,,,,,,,,,,,,,,,,,AMP,right,1.8006704282597639,,,right,0,1.8006704282597639,0,,,,,,,,,,,,,,,,,,,,,,1057,2019_Mar_13_1244,mf_amp_cond1,3.0.4,60.00159720718113,
actively,troubla,&&&&&&&,left,authority.virtue,,,,,,,0,10,10,10,,,,,,,,,,,,,,,,,,,,,AMP,right,1.1838334551721346,,,right,0,1.1838334551721346,0,,,,,,,,,,,,,,,,,,,,,,1057,2019_Mar_13_1244,mf_amp_cond1,3.0.4,60.00159720718113,
unpleasant,scalbel,&&&&&&&,None,control,,,,,,,0,11,11,11,,,,,,,,,,,,,,,,,,,,,AMP,left,3.551083753176499,,,left,0,3.551083753176499,0,,,,,,,,,,,,,,,,,,,,,,1057,2019_Mar_13_1244,mf_amp_cond1,3.0.4,60.00159720718113,
support,fonderland,&&&&&&&&&&,left,loyalty.virtue,,,,,,,0,12,12,12,,,,,,,,,,,,,,,,,,,,,AMP,right,0.8504220805189107,,,right,0,0.8504220805189107,0,,,,,,,,,,,,,,,,,,,,,,1057,2019_Mar_13_1244,mf_amp_cond1,3.0.4,60.00159720718113,
groups,precificity,&&&&&&&&&&&,right,loyalty.vice,,,,,,,0,13,13,13,,,,,,,,,,,,,,,,,,,,,AMP,right,1.2838636988017242,,,right,1,1.2838636988017242,1,,,,,,,,,,,,,,,,,,,,,,1057,2019_Mar_13_1244,mf_amp_cond1,3.0.4,60.00159720718113,
hate,dramens,&&&&&&&,right,fairness.vice,,,,,,,0,14,14,14,,,,,,,,,,,,,,,,,,,,,AMP,left,1.1171030084078666,,,left,0,1.1171030084078666,0,,,,,,,,,,,,,,,,,,,,,,1057,2019_Mar_13_1244,mf_amp_cond1,3.0.4,60.00159720718113,
fraud,reelectiob,&&&&&&&&&&,right,fairness.vice,,,,,,,0,15,15,15,,,,,,,,,,,,,,,,,,,,,AMP,right,0.46700344161945395,,,right,1,0.46700344161945395,1,,,,,,,,,,,,,,,,,,,,,,1057,2019_Mar_13_1244,mf_amp_cond1,3.0.4,60.00159720718113,
fear,infet,&&&&&,right,sanctity.vice,,,,,,,0,16,16,16,,,,,,,,,,,,,,,,,,,,,AMP,left,0.4337597702688072,,,left,0,0.4337597702688072,0,,,,,,,,,,,,,,,,,,,,,,1057,2019_Mar_13_1244,mf_amp_cond1,3.0.4,60.00159720718113,
forced,nackers,&&&&&&&,right,fairness.vice,,,,,,,0,17,17,17,,,,,,,,,,,,,,,,,,,,,AMP,right,0.8504108554043341,,,right,1,0.8504108554043341,1,,,,,,,,,,,,,,,,,,,,,,1057,2019_Mar_13_1244,mf_amp_cond1,3.0.4,60.00159720718113,
love,framatic,&&&&&&&&,left,loyalty.virtue,,,,,,,0,18,18,18,,,,,,,,,,,,,,,,,,,,,AMP,right,0.20026959528331645,,,right,0,0.20026959528331645,0,,,,,,,,,,,,,,,,,,,,,,1057,2019_Mar_13_1244,mf_amp_cond1,3.0.4,60.00159720718113,
shot,laming,&&&&&&,right,care.vice,,,,,,,0,19,19,19,,,,,,,,,,,,,,,,,,,,,AMP,right,0.8837642121943645,,,right,1,0.8837642121943645,1,,,,,,,,,,,,,,,,,,,,,,1057,2019_Mar_13_1244,mf_amp_cond1,3.0.4,60.00159720718113,
injured,ronviolence,&&&&&&&&&&&,right,care.vice,,,,,,,0,20,20,20,,,,,,,,,,,,,,,,,,,,,AMP,left,0.7504101177328266,,,left,0,0.7504101177328266,0,,,,,,,,,,,,,,,,,,,,,,1057,2019_Mar_13_1244,mf_amp_cond1,3.0.4,60.00159720718113,
gationwide,gaultless,&&&&&&&&&,None,nonword,,,,,,,0,21,21,21,,,,,,,,,,,,,,,,,,,,,AMP,left,0.9504520034533925,,,left,0,0.9504520034533925,0,,,,,,,,,,,,,,,,,,,,,,1057,2019_Mar_13_1244,mf_amp_cond1,3.0.4,60.00159720718113,
commitment,gazily,&&&&&&,left,sanctity.virtue,,,,,,,0,22,22,22,,,,,,,,,,,,,,,,,,,,,AMP,right,1.200530338770477,,,right,0,1.200530338770477,0,,,,,,,,,,,,,,,,,,,,,,1057,2019_Mar_13_1244,mf_amp_cond1,3.0.4,60.00159720718113,
good,mecan,&&&&&,left,care.virtue,,,,,,,0,23,23,23,,,,,,,,,,,,,,,,,,,,,AMP,right,0.3503035753383301,,,right,0,0.3503035753383301,0,,,,,,,,,,,,,,,,,,,,,,1057,2019_Mar_13_1244,mf_amp_cond1,3.0.4,60.00159720718113,
torture,lenon,&&&&&,right,care.vice,,,,,,,0,24,24,24,,,,,,,,,,,,,,,,,,,,,AMP,left,0.45033510189387016,,,left,0,0.45033510189387016,0,,,,,,,,,,,,,,,,,,,,,,1057,2019_Mar_13_1244,mf_amp_cond1,3.0.4,60.00159720718113,
party,crilfully,&&&&&&&&&,left,loyalty.virtue,,,,,,,0,25,25,25,,,,,,,,,,,,,,,,,,,,,AMP,left,1.067139361781301,,,left,1,1.067139361781301,1,,,,,,,,,,,,,,,,,,,,,,1057,2019_Mar_13_1244,mf_amp_cond1,3.0.4,60.00159720718113,
opportunity,papert,&&&&&&,left,fairness.virtue,,,,,,,0,26,26,26,,,,,,,,,,,,,,,,,,,,,AMP,right,0.7337315150361974,,,right,0,0.7337315150361974,0,,,,,,,,,,,,,,,,,,,,,,1057,2019_Mar_13_1244,mf_amp_cond1,3.0.4,60.00159720718113,
friends,galamitous,&&&&&&&&&&,left,loyalty.virtue,,,,,,,0,27,27,27,,,,,,,,,,,,,,,,,,,,,AMP,right,0.3502830493962392,,,right,0,0.3502830493962392,0,,,,,,,,,,,,,,,,,,,,,,1057,2019_Mar_13_1244,mf_amp_cond1,3.0.4,60.00159720718113,
critics,hatigue,&&&&&&&,right,loyalty.vice,,,,,,,0,28,28,28,,,,,,,,,,,,,,,,,,,,,AMP,left,0.7503976097505074,,,left,0,0.7503976097505074,0,,,,,,,,,,,,,,,,,,,,,,1057,2019_Mar_13_1244,mf_amp_cond1,3.0.4,60.00159720718113,
gun,Lacedonia,&&&&&&&&&,right,authority.vice,,,,,,,0,29,29,29,,,,,,,,,,,,,,,,,,,,,AMP,left,0.46699606510810554,,,left,0,0.46699606510810554,0,,,,,,,,,,,,,,,,,,,,,,1057,2019_Mar_13_1244,mf_amp_cond1,3.0.4,60.00159720718113,
illegal,reprisols,&&&&&&&&&,right,fairness.vice,,,,,,,0,30,30,30,,,,,,,,,,,,,,,,,,,,,AMP,left,0.4503299703937955,,,left,0,0.4503299703937955,0,,,,,,,,,,,,,,,,,,,,,,1057,2019_Mar_13_1244,mf_amp_cond1,3.0.4,60.00159720718113,
voter,sliptery,&&&&&&&&,right,fairness.vice,,,,,,,0,31,31,31,,,,,,,,,,,,,,,,,,,,,AMP,right,0.5336751970171463,,,right,1,0.5336751970171463,1,,,,,,,,,,,,,,,,,,,,,,1057,2019_Mar_13_1244,mf_amp_cond1,3.0.4,60.00159720718113,
abuse,sidearbs,&&&&&&&&,right,sanctity.vice,,,,,,,0,32,32,32,,,,,,,,,,,,,,,,,,,,,AMP,left,0.3003120262583252,,,left,0,0.3003120262583252,0,,,,,,,,,,,,,,,,,,,,,,1057,2019_Mar_13_1244,mf_amp_cond1,3.0.4,60.00159720718113,
fair,neneficence,&&&&&&&&&&&,left,fairness.virtue,,,,,,,0,33,33,33,,,,,,,,,,,,,,,,,,,,,AMP,right,0.7337206106458325,,,right,0,0.7337206106458325,0,,,,,,,,,,,,,,,,,,,,,,1057,2019_Mar_13_1244,mf_amp_cond1,3.0.4,60.00159720718113,
peaceful,pescinded,&&&&&&&&&,left,authority.virtue,,,,,,,0,34,34,34,,,,,,,,,,,,,,,,,,,,,AMP,left,2.1674066158302594,,,left,1,2.1674066158302594,1,,,,,,,,,,,,,,,,,,,,,,1057,2019_Mar_13_1244,mf_amp_cond1,3.0.4,60.00159720718113,
shoirmaster,divility,&&&&&&&&,None,nonword,,,,,,,0,35,35,35,,,,,,,,,,,,,,,,,,,,,AMP,left,0.6503869298612699,,,left,0,0.6503869298612699,0,,,,,,,,,,,,,,,,,,,,,,1057,2019_Mar_13_1244,mf_amp_cond1,3.0.4,60.00159720718113,
blamed,uller,&&&&&,right,loyalty.vice,,,,,,,0,36,36,36,,,,,,,,,,,,,,,,,,,,,AMP,left,0.28362540557282045,,,left,0,0.28362540557282045,0,,,,,,,,,,,,,,,,,,,,,,1057,2019_Mar_13_1244,mf_amp_cond1,3.0.4,60.00159720718113,
sexual,hefurbished,&&&&&&&&&&&,right,sanctity.vice,,,,,,,0,37,37,37,,,,,,,,,,,,,,,,,,,,,AMP,left,0.5170318732270971,,,left,0,0.5170318732270971,0,,,,,,,,,,,,,,,,,,,,,,1057,2019_Mar_13_1244,mf_amp_cond1,3.0.4,60.00159720718113,
respect,gusinesslike,&&&&&&&&&&&&,left,sanctity.virtue,,,,,,,0,38,38,38,,,,,,,,,,,,,,,,,,,,,AMP,right,0.8670958724687807,,,right,0,0.8670958724687807,0,,,,,,,,,,,,,,,,,,,,,,1057,2019_Mar_13_1244,mf_amp_cond1,3.0.4,60.00159720718113,
improve,aubos,&&&&&,left,care.virtue,,,,,,,0,39,39,39,,,,,,,,,,,,,,,,,,,,,AMP,right,2.800894609914394,,,right,0,2.800894609914394,0,,,,,,,,,,,,,,,,,,,,,,1057,2019_Mar_13_1244,mf_amp_cond1,3.0.4,60.00159720718113,
scandal,sfumatoy,&&&&&&&&,right,sanctity.vice,,,,,,,0,40,40,40,,,,,,,,,,,,,,,,,,,,,AMP,left,0.3003027254308108,,,left,0,0.3003027254308108,0,,,,,,,,,,,,,,,,,,,,,,1057,2019_Mar_13_1244,mf_amp_cond1,3.0.4,60.00159720718113,
interests,gedious,&&&&&&&,left,fairness.virtue,,,,,,,0,41,41,41,,,,,,,,,,,,,,,,,,,,,AMP,right,0.433677025110228,,,right,0,0.433677025110228,0,,,,,,,,,,,,,,,,,,,,,,1057,2019_Mar_13_1244,mf_amp_cond1,3.0.4,60.00159720718113,
praise,viscs,&&&&&,left,authority.virtue,,,,,,,0,42,42,42,,,,,,,,,,,,,,,,,,,,,AMP,right,0.23361717918305658,,,right,0,0.23361717918305658,0,,,,,,,,,,,,,,,,,,,,,,1057,2019_Mar_13_1244,mf_amp_cond1,3.0.4,60.00159720718113,
win,rorroborated,&&&&&&&&&&&&,left,fairness.virtue,,,,,,,0,43,43,43,,,,,,,,,,,,,,,,,,,,,AMP,right,0.25028776394901797,,,right,0,0.25028776394901797,0,,,,,,,,,,,,,,,,,,,,,,1057,2019_Mar_13_1244,mf_amp_cond1,3.0.4,60.00159720718113,
nomaric,fornicalion,&&&&&&&&&&&,None,nonword,,,,,,,0,44,44,44,,,,,,,,,,,,,,,,,,,,,AMP,right,1.2338294943037909,,,right,0,1.2338294943037909,0,,,,,,,,,,,,,,,,,,,,,,1057,2019_Mar_13_1244,mf_amp_cond1,3.0.4,60.00159720718113,
terrorist,totalestic,&&&&&&&&&&,right,loyalty.vice,,,,,,,0,45,45,45,,,,,,,,,,,,,,,,,,,,,AMP,left,0.8170886082225479,,,left,0,0.8170886082225479,0,,,,,,,,,,,,,,,,,,,,,,1057,2019_Mar_13_1244,mf_amp_cond1,3.0.4,60.00159720718113,
unscothed,tenuflect,&&&&&&&&&,None,nonword,,,,,,,0,46,46,46,,,,,,,,,,,,,,,,,,,,,AMP,left,0.850420797651168,,,left,0,0.850420797651168,0,,,,,,,,,,,,,,,,,,,,,,1057,2019_Mar_13_1244,mf_amp_cond1,3.0.4,60.00159720718113,
trust,erdest,&&&&&&,left,authority.virtue,,,,,,,0,47,47,47,,,,,,,,,,,,,,,,,,,,,AMP,right,1.5172525270318147,,,right,0,1.5172525270318147,0,,,,,,,,,,,,,,,,,,,,,,1057,2019_Mar_13_1244,mf_amp_cond1,3.0.4,60.00159720718113,
shoirmaster,pafer,&&&&&,None,nonword,,,,,,,0,48,48,48,,,,,,,,,,,,,,,,,,,,,AMP,right,0.8336174357391428,,,right,0,0.8336174357391428,0,,,,,,,,,,,,,,,,,,,,,,1057,2019_Mar_13_1244,mf_amp_cond1,3.0.4,60.00159720718113,
victims,strofe,&&&&&&,right,care.vice,,,,,,,0,49,49,49,,,,,,,,,,,,,,,,,,,,,AMP,right,1.017136266862508,,,right,1,1.017136266862508,1,,,,,,,,,,,,,,,,,,,,,,1057,2019_Mar_13_1244,mf_amp_cond1,3.0.4,60.00159720718113,
energy,vicissifude,&&&&&&&&&&&,left,sanctity.virtue,,,,,,,0,50,50,50,,,,,,,,,,,,,,,,,,,,,AMP,right,0.38363223685882986,,,right,0,0.38363223685882986,0,,,,,,,,,,,,,,,,,,,,,,1057,2019_Mar_13_1244,mf_amp_cond1,3.0.4,60.00159720718113,
dignity,edancipation,&&&&&&&&&&&&,left,sanctity.virtue,,,,,,,0,51,51,51,,,,,,,,,,,,,,,,,,,,,AMP,right,0.05022631442989223,,,right,0,0.05022631442989223,0,,,,,,,,,,,,,,,,,,,,,,1057,2019_Mar_13_1244,mf_amp_cond1,3.0.4,60.00159720718113,
freedom,asn,&&&,left,sanctity.virtue,,,,,,,0,52,52,52,,,,,,,,,,,,,,,,,,,,,AMP,right,0.8004600374551956,,,right,0,0.8004600374551956,0,,,,,,,,,,,,,,,,,,,,,,1057,2019_Mar_13_1244,mf_amp_cond1,3.0.4,60.00159720718113,
lies,nonobservalt,&&&&&&&&&&&&,right,fairness.vice,,,,,,,0,53,53,53,,,,,,,,,,,,,,,,,,,,,AMP,left,0.1668925053672865,,,left,0,0.1668925053672865,0,,,,,,,,,,,,,,,,,,,,,,1057,2019_Mar_13_1244,mf_amp_cond1,3.0.4,60.00159720718113,
arrests,fostet,&&&&&&,right,authority.vice,,,,,,,0,54,54,54,,,,,,,,,,,,,,,,,,,,,AMP,left,0.8337495714367833,,,left,0,0.8337495714367833,0,,,,,,,,,,,,,,,,,,,,,,1057,2019_Mar_13_1244,mf_amp_cond1,3.0.4,60.00159720718113,
ban,ebbitter,&&&&&&&&,right,loyalty.vice,,,,,,,0,55,55,55,,,,,,,,,,,,,,,,,,,,,AMP,right,1.3838993947138079,,,right,1,1.3838993947138079,1,,,,,,,,,,,,,,,,,,,,,,1057,2019_Mar_13_1244,mf_amp_cond1,3.0.4,60.00159720718113,
charges,focomotive,&&&&&&&&&&,right,fairness.vice,,,,,,,0,56,56,56,,,,,,,,,,,,,,,,,,,,,AMP,right,2.550846101366915,,,right,1,2.550846101366915,1,,,,,,,,,,,,,,,,,,,,,,1057,2019_Mar_13_1244,mf_amp_cond1,3.0.4,60.00159720718113,
free,imebreaker,&&&&&&&&&&,left,fairness.virtue,,,,,,,0,57,57,57,,,,,,,,,,,,,,,,,,,,,AMP,right,0.6503773083095439,,,right,0,0.6503773083095439,0,,,,,,,,,,,,,,,,,,,,,,1057,2019_Mar_13_1244,mf_amp_cond1,3.0.4,60.00159720718113,
integrity,disregord,&&&&&&&&&,left,fairness.virtue,,,,,,,0,58,58,58,,,,,,,,,,,,,,,,,,,,,AMP,right,1.0338309054204728,,,right,0,1.0338309054204728,0,,,,,,,,,,,,,,,,,,,,,,1057,2019_Mar_13_1244,mf_amp_cond1,3.0.4,60.00159720718113,
rejected,feleological,&&&&&&&&&&&&,right,authority.vice,,,,,,,0,59,59,59,,,,,,,,,,,,,,,,,,,,,AMP,left,0.5669624859874602,,,left,0,0.5669624859874602,0,,,,,,,,,,,,,,,,,,,,,,1057,2019_Mar_13_1244,mf_amp_cond1,3.0.4,60.00159720718113,
ittutable,chadows,&&&&&&&,None,nonword,,,,,,,0,60,60,60,,,,,,,,,,,,,,,,,,,,,AMP,left,1.333855247910833,,,left,0,1.333855247910833,0,,,,,,,,,,,,,,,,,,,,,,1057,2019_Mar_13_1244,mf_amp_cond1,3.0.4,60.00159720718113,
growth,chared,&&&&&&,left,care.virtue,,,,,,,0,61,61,61,,,,,,,,,,,,,,,,,,,,,AMP,right,1.0504690977104474,,,right,0,1.0504690977104474,0,,,,,,,,,,,,,,,,,,,,,,1057,2019_Mar_13_1244,mf_amp_cond1,3.0.4,60.00159720718113,
safety,photocalkodes,&&&&&&&&&&&&&,left,care.virtue,,,,,,,0,62,62,62,,,,,,,,,,,,,,,,,,,,,AMP,right,0.6670536660240032,,,right,0,0.6670536660240032,0,,,,,,,,,,,,,,,,,,,,,,1057,2019_Mar_13_1244,mf_amp_cond1,3.0.4,60.00159720718113,
great,quarterbocks,&&&&&&&&&&&&,left,loyalty.virtue,,,,,,,0,63,63,63,,,,,,,,,,,,,,,,,,,,,AMP,right,0.5669640895794146,,,right,0,0.5669640895794146,0,,,,,,,,,,,,,,,,,,,,,,1057,2019_Mar_13_1244,mf_amp_cond1,3.0.4,60.00159720718113,
betrayal,unreflectuve,&&&&&&&&&&&&,right,loyalty.vice,,,,,,,0,64,64,64,,,,,,,,,,,,,,,,,,,,,AMP,left,0.5836968935618643,,,left,0,0.5836968935618643,0,,,,,,,,,,,,,,,,,,,,,,1057,2019_Mar_13_1244,mf_amp_cond1,3.0.4,60.00159720718113,
intelligence,frocessing,&&&&&&&&&&,left,loyalty.virtue,,,,,,,0,65,65,65,,,,,,,,,,,,,,,,,,,,,AMP,right,0.5502338513033465,,,right,0,0.5502338513033465,0,,,,,,,,,,,,,,,,,,,,,,1057,2019_Mar_13_1244,mf_amp_cond1,3.0.4,60.00159720718113,
lachelor,tove,&&&&,None,nonword,,,,,,,0,66,66,66,,,,,,,,,,,,,,,,,,,,,AMP,right,0.3670328514126595,,,right,0,0.3670328514126595,0,,,,,,,,,,,,,,,,,,,,,,1057,2019_Mar_13_1244,mf_amp_cond1,3.0.4,60.00159720718113,
conspiracy,scock,&&&&&,right,sanctity.vice,,,,,,,0,67,67,67,,,,,,,,,,,,,,,,,,,,,AMP,left,0.5170014050672762,,,left,0,0.5170014050672762,0,,,,,,,,,,,,,,,,,,,,,,1057,2019_Mar_13_1244,mf_amp_cond1,3.0.4,60.00159720718113,
celebrated,hasks,&&&&&,left,authority.virtue,,,,,,,0,68,68,68,,,,,,,,,,,,,,,,,,,,,AMP,right,0.6503654417756479,,,right,0,0.6503654417756479,0,,,,,,,,,,,,,,,,,,,,,,1057,2019_Mar_13_1244,mf_amp_cond1,3.0.4,60.00159720718113,
restore,pharing,&&&&&&&,left,care.virtue,,,,,,,0,69,69,69,,,,,,,,,,,,,,,,,,,,,AMP,right,0.6503776290628593,,,right,0,0.6503776290628593,0,,,,,,,,,,,,,,,,,,,,,,1057,2019_Mar_13_1244,mf_amp_cond1,3.0.4,60.00159720718113,
died,carvels,&&&&&&&,right,care.vice,,,,,,,0,70,70,70,,,,,,,,,,,,,,,,,,,,,AMP,left,0.4670024794759229,,,left,0,0.4670024794759229,0,,,,,,,,,,,,,,,,,,,,,,1057,2019_Mar_13_1244,mf_amp_cond1,3.0.4,60.00159720718113,
killed,coom,&&&&,right,care.vice,,,,,,,0,71,71,71,,,,,,,,,,,,,,,,,,,,,AMP,left,0.4503588349907659,,,left,0,0.4503588349907659,0,,,,,,,,,,,,,,,,,,,,,,1057,2019_Mar_13_1244,mf_amp_cond1,3.0.4,60.00159720718113,
clean,crinking,&&&&&&&&,left,sanctity.virtue,,,,,,,0,72,72,72,,,,,,,,,,,,,,,,,,,,,AMP,right,0.5670394581975415,,,right,0,0.5670394581975415,0,,,,,,,,,,,,,,,,,,,,,,1057,2019_Mar_13_1244,mf_amp_cond1,3.0.4,60.00159720718113,
pleasant,idexpressible,&&&&&&&&&&&&&,None,control,,,,,,,0,73,73,73,,,,,,,,,,,,,,,,,,,,,AMP,left,0.46709548760554753,,,left,0,0.46709548760554753,0,,,,,,,,,,,,,,,,,,,,,,1057,2019_Mar_13_1244,mf_amp_cond1,3.0.4,60.00159720718113,
rebels,sowntrodden,&&&&&&&&&&&,right,authority.vice,,,,,,,0,74,74,74,,,,,,,,,,,,,,,,,,,,,AMP,right,0.7003787996654864,,,right,1,0.7003787996654864,1,,,,,,,,,,,,,,,,,,,,,,1057,2019_Mar_13_1244,mf_amp_cond1,3.0.4,60.00159720718113,
riot,gournful,&&&&&&&&,right,authority.vice,,,,,,,0,75,75,75,,,,,,,,,,,,,,,,,,,,,AMP,right,0.6170502503809985,,,right,1,0.6170502503809985,1,,,,,,,,,,,,,,,,,,,,,,1057,2019_Mar_13_1244,mf_amp_cond1,3.0.4,60.00159720718113,
help,ning,&&&&,left,care.virtue,,,,,,,0,76,76,76,,,,,,,,,,,,,,,,,,,,,AMP,right,0.7337254214216955,,,right,0,0.7337254214216955,0,,,,,,,,,,,,,,,,,,,,,,1057,2019_Mar_13_1244,mf_amp_cond1,3.0.4,60.00159720718113,
troops,forepo,&&&&&&,right,loyalty.vice,,,,,,,0,77,77,77,,,,,,,,,,,,,,,,,,,,,AMP,right,0.41697982075857,,,right,1,0.41697982075857,1,,,,,,,,,,,,,,,,,,,,,,1057,2019_Mar_13_1244,mf_amp_cond1,3.0.4,60.00159720718113,
promised,thabbily,&&&&&&&&,left,loyalty.virtue,,,,,,,0,78,78,78,,,,,,,,,,,,,,,,,,,,,AMP,right,0.35030870680930093,,,right,0,0.35030870680930093,0,,,,,,,,,,,,,,,,,,,,,,1057,2019_Mar_13_1244,mf_amp_cond1,3.0.4,60.00159720718113,
increase,tomedians,&&&&&&&&&,left,care.virtue,,,,,,,0,79,79,79,,,,,,,,,,,,,,,,,,,,,AMP,right,0.45032066956628114,,,right,0,0.45032066956628114,0,,,,,,,,,,,,,,,,,,,,,,1057,2019_Mar_13_1244,mf_amp_cond1,3.0.4,60.00159720718113,
agreement,wump,&&&&,left,fairness.virtue,,,,,,,0,80,80,80,,,,,,,,,,,,,,,,,,,,,AMP,right,0.450338309048675,,,right,0,0.450338309048675,0,,,,,,,,,,,,,,,,,,,,,,1057,2019_Mar_13_1244,mf_amp_cond1,3.0.4,60.00159720718113,
prosecution,bluently,&&&&&&&&,right,authority.vice,,,,,,,0,81,81,81,,,,,,,,,,,,,,,,,,,,,AMP,left,0.35033436422236264,,,left,0,0.35033436422236264,0,,,,,,,,,,,,,,,,,,,,,,1057,2019_Mar_13_1244,mf_amp_cond1,3.0.4,60.00159720718113,
dignity,asn,&&&,left,sanctity.virtue,,,,,,,0,82,82,82,,,,,,,,,,,,,,,,,,,,,AMP,right,0.4503113687678706,,,right,0,0.4503113687678706,0,,,,,,,,,,,,,,,,,,,,,,1057,2019_Mar_13_1244,mf_amp_cond1,3.0.4,60.00159720718113,
help,pescinded,&&&&&&&&&,left,care.virtue,,,,,,,0,83,83,83,,,,,,,,,,,,,,,,,,,,,AMP,left,0.45032548034214415,,,left,1,0.45032548034214415,1,,,,,,,,,,,,,,,,,,,,,,1057,2019_Mar_13_1244,mf_amp_cond1,3.0.4,60.00159720718113,
alar,pharing,&&&&&&&,None,nonword,,,,,,,0,84,84,84,,,,,,,,,,,,,,,,,,,,,AMP,right,0.9504471927066334,,,right,0,0.9504471927066334,0,,,,,,,,,,,,,,,,,,,,,,1057,2019_Mar_13_1244,mf_amp_cond1,3.0.4,60.00159720718113,
sexual,disregord,&&&&&&&&&,right,sanctity.vice,,,,,,,0,85,85,85,,,,,,,,,,,,,,,,,,,,,AMP,right,0.7337344014958944,,,right,1,0.7337344014958944,1,,,,,,,,,,,,,,,,,,,,,,1057,2019_Mar_13_1244,mf_amp_cond1,3.0.4,60.00159720718113,
peaceful,galamitous,&&&&&&&&&&,left,authority.virtue,,,,,,,0,86,86,86,,,,,,,,,,,,,,,,,,,,,AMP,right,0.3336301041126717,,,right,0,0.3336301041126717,0,,,,,,,,,,,,,,,,,,,,,,1057,2019_Mar_13_1244,mf_amp_cond1,3.0.4,60.00159720718113,
actively,rorroborated,&&&&&&&&&&&&,left,authority.virtue,,,,,,,0,87,87,87,,,,,,,,,,,,,,,,,,,,,AMP,right,0.950452324206708,,,right,0,0.950452324206708,0,,,,,,,,,,,,,,,,,,,,,,1057,2019_Mar_13_1244,mf_amp_cond1,3.0.4,60.00159720718113,
violations,imebreaker,&&&&&&&&&&,right,sanctity.vice,,,,,,,0,88,88,88,,,,,,,,,,,,,,,,,,,,,AMP,right,0.5503653455525637,,,right,1,0.5503653455525637,1,,,,,,,,,,,,,,,,,,,,,,1057,2019_Mar_13_1244,mf_amp_cond1,3.0.4,60.00159720718113,
promised,yane,&&&&,left,loyalty.virtue,,,,,,,0,89,89,89,,,,,,,,,,,,,,,,,,,,,AMP,right,0.4836785164370667,,,right,0,0.4836785164370667,0,,,,,,,,,,,,,,,,,,,,,,1057,2019_Mar_13_1244,mf_amp_cond1,3.0.4,60.00159720718113,
good,thabbily,&&&&&&&&,left,care.virtue,,,,,,,0,90,90,90,,,,,,,,,,,,,,,,,,,,,AMP,right,0.33361759610124864,,,right,0,0.33361759610124864,0,,,,,,,,,,,,,,,,,,,,,,1057,2019_Mar_13_1244,mf_amp_cond1,3.0.4,60.00159720718113,
terrorist,hatigue,&&&&&&&,right,loyalty.vice,,,,,,,0,91,91,91,,,,,,,,,,,,,,,,,,,,,AMP,left,0.46700215875171125,,,left,0,0.46700215875171125,0,,,,,,,,,,,,,,,,,,,,,,1057,2019_Mar_13_1244,mf_amp_cond1,3.0.4,60.00159720718113,
energy,Lacedonia,&&&&&&&&&,left,sanctity.virtue,,,,,,,0,92,92,92,,,,,,,,,,,,,,,,,,,,,AMP,right,0.9004402491846122,,,right,0,0.9004402491846122,0,,,,,,,,,,,,,,,,,,,,,,1057,2019_Mar_13_1244,mf_amp_cond1,3.0.4,60.00159720718113,
interests,brudent,&&&&&&&,left,fairness.virtue,,,,,,,0,93,93,93,,,,,,,,,,,,,,,,,,,,,AMP,left,0.7670755710278172,,,left,1,0.7670755710278172,1,,,,,,,,,,,,,,,,,,,,,,1057,2019_Mar_13_1244,mf_amp_cond1,3.0.4,60.00159720718113,
improve,strofe,&&&&&&,left,care.virtue,,,,,,,0,94,94,94,,,,,,,,,,,,,,,,,,,,,AMP,right,0.6670138970075641,,,right,0,0.6670138970075641,0,,,,,,,,,,,,,,,,,,,,,,1057,2019_Mar_13_1244,mf_amp_cond1,3.0.4,60.00159720718113,
commitment,chadows,&&&&&&&,left,sanctity.virtue,,,,,,,0,95,95,95,,,,,,,,,,,,,,,,,,,,,AMP,right,1.2671895861567464,,,right,0,1.2671895861567464,0,,,,,,,,,,,,,,,,,,,,,,1057,2019_Mar_13_1244,mf_amp_cond1,3.0.4,60.00159720718113,
unscothed,hefurbished,&&&&&&&&&&&,None,nonword,,,,,,,0,96,96,96,,,,,,,,,,,,,,,,,,,,,AMP,right,0.6170374216744676,,,right,0,0.6170374216744676,0,,,,,,,,,,,,,,,,,,,,,,1057,2019_Mar_13_1244,mf_amp_cond1,3.0.4,60.00159720718113,
ittutable,carvels,&&&&&&&,None,nonword,,,,,,,0,97,97,97,,,,,,,,,,,,,,,,,,,,,AMP,right,0.40031853682012297,,,right,0,0.40031853682012297,0,,,,,,,,,,,,,,,,,,,,,,1057,2019_Mar_13_1244,mf_amp_cond1,3.0.4,60.00159720718113,
support,viscs,&&&&&,left,loyalty.virtue,,,,,,,0,98,98,98,,,,,,,,,,,,,,,,,,,,,AMP,right,0.5003359517722856,,,right,0,0.5003359517722856,0,,,,,,,,,,,,,,,,,,,,,,1057,2019_Mar_13_1244,mf_amp_cond1,3.0.4,60.00159720718113,
blamed,tenuflect,&&&&&&&&&,right,loyalty.vice,,,,,,,0,99,99,99,,,,,,,,,,,,,,,,,,,,,AMP,left,0.433660347800469,,,left,0,0.433660347800469,0,,,,,,,,,,,,,,,,,,,,,,1057,2019_Mar_13_1244,mf_amp_cond1,3.0.4,60.00159720718113,
gationwide,sowntrodden,&&&&&&&&&&&,None,nonword,,,,,,,0,100,100,100,,,,,,,,,,,,,,,,,,,,,AMP,right,0.43361320230178535,,,right,0,0.43361320230178535,0,,,,,,,,,,,,,,,,,,,,,,1057,2019_Mar_13_1244,mf_amp_cond1,3.0.4,60.00159720718113,
unpleasant,totalestic,&&&&&&&&&&,None,control,,,,,,,0,101,101,101,,,,,,,,,,,,,,,,,,,,,AMP,left,0.8671167191059794,,,left,0,0.8671167191059794,0,,,,,,,,,,,,,,,,,,,,,,1057,2019_Mar_13_1244,mf_amp_cond1,3.0.4,60.00159720718113,
intelligence,neneficence,&&&&&&&&&&&,left,loyalty.virtue,,,,,,,0,102,102,102,,,,,,,,,,,,,,,,,,,,,AMP,right,0.3503010096028447,,,right,0,0.3503010096028447,0,,,,,,,,,,,,,,,,,,,,,,1057,2019_Mar_13_1244,mf_amp_cond1,3.0.4,60.00159720718113,
perfect,vicissifude,&&&&&&&&&&&,left,sanctity.virtue,,,,,,,0,103,103,103,,,,,,,,,,,,,,,,,,,,,AMP,right,0.13357859684037976,,,right,0,0.13357859684037976,0,,,,,,,,,,,,,,,,,,,,,,1057,2019_Mar_13_1244,mf_amp_cond1,3.0.4,60.00159720718113,
rejected,gusinesslike,&&&&&&&&&&&&,right,authority.vice,,,,,,,0,104,104,104,,,,,,,,,,,,,,,,,,,,,AMP,left,0.31695791575475596,,,left,0,0.31695791575475596,0,,,,,,,,,,,,,,,,,,,,,,1057,2019_Mar_13_1244,mf_amp_cond1,3.0.4,60.00159720718113,
scandal,photocalkodes,&&&&&&&&&&&&&,right,sanctity.vice,,,,,,,0,105,105,105,,,,,,,,,,,,,,,,,,,,,AMP,right,0.283624764153501,,,right,1,0.283624764153501,1,,,,,,,,,,,,,,,,,,,,,,1057,2019_Mar_13_1244,mf_amp_cond1,3.0.4,60.00159720718113,
nomaric,ronviolence,&&&&&&&&&&&,None,nonword,,,,,,,0,106,106,106,,,,,,,,,,,,,,,,,,,,,AMP,left,0.9337839844520204,,,left,0,0.9337839844520204,0,,,,,,,,,,,,,,,,,,,,,,1057,2019_Mar_13_1244,mf_amp_cond1,3.0.4,60.00159720718113,
troops,antral,&&&&&&,right,loyalty.vice,,,,,,,0,107,107,107,,,,,,,,,,,,,,,,,,,,,AMP,right,1.4839180925337132,,,right,1,1.4839180925337132,1,,,,,,,,,,,,,,,,,,,,,,1057,2019_Mar_13_1244,mf_amp_cond1,3.0.4,60.00159720718113,
war,precificity,&&&&&&&&&&&,right,sanctity.vice,,,,,,,0,108,108,108,,,,,,,,,,,,,,,,,,,,,AMP,left,2.5341851381526794,,,left,0,2.5341851381526794,0,,,,,,,,,,,,,,,,,,,,,,1057,2019_Mar_13_1244,mf_amp_cond1,3.0.4,60.00159720718113,
died,infet,&&&&&,right,care.vice,,,,,,,0,109,109,109,,,,,,,,,,,,,,,,,,,,,AMP,left,0.2669458407035563,,,left,0,0.2669458407035563,0,,,,,,,,,,,,,,,,,,,,,,1057,2019_Mar_13_1244,mf_amp_cond1,3.0.4,60.00159720718113,
killed,reviked,&&&&&&&,right,care.vice,,,,,,,0,110,110,110,,,,,,,,,,,,,,,,,,,,,AMP,left,0.467035513400333,,,left,0,0.467035513400333,0,,,,,,,,,,,,,,,,,,,,,,1057,2019_Mar_13_1244,mf_amp_cond1,3.0.4,60.00159720718113,
lachelor,gazily,&&&&&&,None,nonword,,,,,,,0,111,111,111,,,,,,,,,,,,,,,,,,,,,AMP,right,0.6503712146659382,,,right,0,0.6503712146659382,0,,,,,,,,,,,,,,,,,,,,,,1057,2019_Mar_13_1244,mf_amp_cond1,3.0.4,60.00159720718113,
praise,nonobservalt,&&&&&&&&&&&&,left,authority.virtue,,,,,,,0,112,112,112,,,,,,,,,,,,,,,,,,,,,AMP,right,1.0671457761200145,,,right,0,1.0671457761200145,0,,,,,,,,,,,,,,,,,,,,,,1057,2019_Mar_13_1244,mf_amp_cond1,3.0.4,60.00159720718113,
faspberry,focomotive,&&&&&&&&&&,None,nonword,,,,,,,0,113,113,113,,,,,,,,,,,,,,,,,,,,,AMP,right,0.3169960811501369,,,right,0,0.3169960811501369,0,,,,,,,,,,,,,,,,,,,,,,1057,2019_Mar_13_1244,mf_amp_cond1,3.0.4,60.00159720718113,
fear,hasks,&&&&&,right,sanctity.vice,,,,,,,0,114,114,114,,,,,,,,,,,,,,,,,,,,,AMP,left,1.4338935095292982,,,left,0,1.4338935095292982,0,,,,,,,,,,,,,,,,,,,,,,1057,2019_Mar_13_1244,mf_amp_cond1,3.0.4,60.00159720718113,
godlaness,touls,&&&&&,None,nonword,,,,,,,0,115,115,115,,,,,,,,,,,,,,,,,,,,,AMP,left,0.9838015116984025,,,left,0,0.9838015116984025,0,,,,,,,,,,,,,,,,,,,,,,1057,2019_Mar_13_1244,mf_amp_cond1,3.0.4,60.00159720718113,
restore,bluently,&&&&&&&&,left,care.virtue,,,,,,,0,116,116,116,,,,,,,,,,,,,,,,,,,,,AMP,right,0.7837323649437167,,,right,0,0.7837323649437167,0,,,,,,,,,,,,,,,,,,,,,,1057,2019_Mar_13_1244,mf_amp_cond1,3.0.4,60.00159720718113,
conspiracy,lenon,&&&&&,right,sanctity.vice,,,,,,,0,117,117,117,,,,,,,,,,,,,,,,,,,,,AMP,left,0.7003752717573661,,,left,0,0.7003752717573661,0,,,,,,,,,,,,,,,,,,,,,,1057,2019_Mar_13_1244,mf_amp_cond1,3.0.4,60.00159720718113,
riot,reelectiob,&&&&&&&&&&,right,authority.vice,,,,,,,0,118,118,118,,,,,,,,,,,,,,,,,,,,,AMP,right,2.167411747330334,,,right,1,2.167411747330334,1,,,,,,,,,,,,,,,,,,,,,,1057,2019_Mar_13_1244,mf_amp_cond1,3.0.4,60.00159720718113,
groups,sfumatoy,&&&&&&&&,right,loyalty.vice,,,,,,,0,119,119,119,,,,,,,,,,,,,,,,,,,,,AMP,left,1.7173033928556833,,,left,0,1.7173033928556833,0,,,,,,,,,,,,,,,,,,,,,,1057,2019_Mar_13_1244,mf_amp_cond1,3.0.4,60.00159720718113,
prosecution,crinking,&&&&&&&&,right,authority.vice,,,,,,,0,120,120,120,,,,,,,,,,,,,,,,,,,,,AMP,left,0.6170412702776957,,,left,0,0.6170412702776957,0,,,,,,,,,,,,,,,,,,,,,,1057,2019_Mar_13_1244,mf_amp_cond1,3.0.4,60.00159720718113,
growth,scock,&&&&&,left,care.virtue,,,,,,,0,121,121,121,,,,,,,,,,,,,,,,,,,,,AMP,left,3.9178228272066917,,,left,1,3.9178228272066917,1,,,,,,,,,,,,,,,,,,,,,,1057,2019_Mar_13_1244,mf_amp_cond1,3.0.4,60.00159720718113,
illegal,ning,&&&&,right,fairness.vice,,,,,,,0,122,122,122,,,,,,,,,,,,,,,,,,,,,AMP,left,0.3669917995866854,,,left,0,0.3669917995866854,0,,,,,,,,,,,,,,,,,,,,,,1057,2019_Mar_13_1244,mf_amp_cond1,3.0.4,60.00159720718113,
arrests,quarterbocks,&&&&&&&&&&&&,right,authority.vice,,,,,,,0,123,123,123,,,,,,,,,,,,,,,,,,,,,AMP,left,0.41697982075857,,,left,0,0.41697982075857,0,,,,,,,,,,,,,,,,,,,,,,1057,2019_Mar_13_1244,mf_amp_cond1,3.0.4,60.00159720718113,
voter,tove,&&&&,right,fairness.vice,,,,,,,0,124,124,124,,,,,,,,,,,,,,,,,,,,,AMP,right,0.33363331129658036,,,right,1,0.33363331129658036,1,,,,,,,,,,,,,,,,,,,,,,1057,2019_Mar_13_1244,mf_amp_cond1,3.0.4,60.00159720718113,
shoirmaster,aubos,&&&&&,None,nonword,,,,,,,0,125,125,125,,,,,,,,,,,,,,,,,,,,,AMP,left,0.5170264210319147,,,left,0,0.5170264210319147,0,,,,,,,,,,,,,,,,,,,,,,1057,2019_Mar_13_1244,mf_amp_cond1,3.0.4,60.00159720718113,
victim,slending,&&&&&&&&,right,care.vice,,,,,,,0,126,126,126,,,,,,,,,,,,,,,,,,,,,AMP,left,2.9175842132535763,,,left,0,2.9175842132535763,0,,,,,,,,,,,,,,,,,,,,,,1057,2019_Mar_13_1244,mf_amp_cond1,3.0.4,60.00159720718113,
ban,tomedians,&&&&&&&&&,right,loyalty.vice,,,,,,,0,127,127,127,,,,,,,,,,,,,,,,,,,,,AMP,right,5.3015076617884915,,,right,1,5.3015076617884915,1,,,,,,,,,,,,,,,,,,,,,,1057,2019_Mar_13_1244,mf_amp_cond1,3.0.4,60.00159720718113,
embrace,nomparisons,&&&&&&&&&&&,left,authority.virtue,,,,,,,0,128,128,128,,,,,,,,,,,,,,,,,,,,,AMP,right,1.150501907162834,,,right,0,1.150501907162834,0,,,,,,,,,,,,,,,,,,,,,,1057,2019_Mar_13_1244,mf_amp_cond1,3.0.4,60.00159720718113,
clean,crilfully,&&&&&&&&&,left,sanctity.virtue,,,,,,,0,129,129,129,,,,,,,,,,,,,,,,,,,,,AMP,right,2.7175404032168444,,,right,0,2.7175404032168444,0,,,,,,,,,,,,,,,,,,,,,,1057,2019_Mar_13_1244,mf_amp_cond1,3.0.4,60.00159720718113,
celebrated,pumber,&&&&&&,left,authority.virtue,,,,,,,0,130,130,130,,,,,,,,,,,,,,,,,,,,,AMP,right,0.08358095411676913,,,right,0,0.08358095411676913,0,,,,,,,,,,,,,,,,,,,,,,1057,2019_Mar_13_1244,mf_amp_cond1,3.0.4,60.00159720718113,
increase,clattening,&&&&&&&&&&,left,care.virtue,,,,,,,0,131,131,131,,,,,,,,,,,,,,,,,,,,,AMP,right,0.6503968721081037,,,right,0,0.6503968721081037,0,,,,,,,,,,,,,,,,,,,,,,1057,2019_Mar_13_1244,mf_amp_cond1,3.0.4,60.00159720718113,
respect,nackers,&&&&&&&,left,sanctity.virtue,,,,,,,0,132,132,132,,,,,,,,,,,,,,,,,,,,,AMP,right,0.25028872612165287,,,right,0,0.25028872612165287,0,,,,,,,,,,,,,,,,,,,,,,1057,2019_Mar_13_1244,mf_amp_cond1,3.0.4,60.00159720718113,
victims,mecan,&&&&&,right,care.vice,,,,,,,0,133,133,133,,,,,,,,,,,,,,,,,,,,,AMP,left,0.2669118446356151,,,left,0,0.2669118446356151,0,,,,,,,,,,,,,,,,,,,,,,1057,2019_Mar_13_1244,mf_amp_cond1,3.0.4,60.00159720718113,
shot,scalbel,&&&&&&&,right,care.vice,,,,,,,0,134,134,134,,,,,,,,,,,,,,,,,,,,,AMP,right,0.2669522551004775,,,right,1,0.2669522551004775,1,,,,,,,,,,,,,,,,,,,,,,1057,2019_Mar_13_1244,mf_amp_cond1,3.0.4,60.00159720718113,
gun,reprisols,&&&&&&&&&,right,authority.vice,,,,,,,0,135,135,135,,,,,,,,,,,,,,,,,,,,,AMP,left,0.26695578297949396,,,left,0,0.26695578297949396,0,,,,,,,,,,,,,,,,,,,,,,1057,2019_Mar_13_1244,mf_amp_cond1,3.0.4,60.00159720718113,
injured,erdest,&&&&&&,right,care.vice,,,,,,,0,136,136,136,,,,,,,,,,,,,,,,,,,,,AMP,left,0.4001867218175903,,,left,0,0.4001867218175903,0,,,,,,,,,,,,,,,,,,,,,,1057,2019_Mar_13_1244,mf_amp_cond1,3.0.4,60.00159720718113,
win,ebbitter,&&&&&&&&,left,fairness.virtue,,,,,,,0,137,137,137,,,,,,,,,,,,,,,,,,,,,AMP,right,0.36698827167856507,,,right,0,0.36698827167856507,0,,,,,,,,,,,,,,,,,,,,,,1057,2019_Mar_13_1244,mf_amp_cond1,3.0.4,60.00159720718113,
rebels,wump,&&&&,right,authority.vice,,,,,,,0,138,138,138,,,,,,,,,,,,,,,,,,,,,AMP,left,0.8837555528443772,,,left,0,0.8837555528443772,0,,,,,,,,,,,,,,,,,,,,,,1057,2019_Mar_13_1244,mf_amp_cond1,3.0.4,60.00159720718113,
love,coom,&&&&,left,loyalty.virtue,,,,,,,0,139,139,139,,,,,,,,,,,,,,,,,,,,,AMP,right,0.30029470747103915,,,right,0,0.30029470747103915,0,,,,,,,,,,,,,,,,,,,,,,1057,2019_Mar_13_1244,mf_amp_cond1,3.0.4,60.00159720718113,
betrayal,pafer,&&&&&,right,loyalty.vice,,,,,,,0,140,140,140,,,,,,,,,,,,,,,,,,,,,AMP,left,0.45032804607762955,,,left,0,0.45032804607762955,0,,,,,,,,,,,,,,,,,,,,,,1057,2019_Mar_13_1244,mf_amp_cond1,3.0.4,60.00159720718113,
torture,fornicalion,&&&&&&&&&&&,right,care.vice,,,,,,,0,141,141,141,,,,,,,,,,,,,,,,,,,,,AMP,left,0.4004198836046271,,,left,0,0.4004198836046271,0,,,,,,,,,,,,,,,,,,,,,,1057,2019_Mar_13_1244,mf_amp_cond1,3.0.4,60.00159720718113,
great,unreflectuve,&&&&&&&&&&&&,left,loyalty.virtue,,,,,,,0,142,142,142,,,,,,,,,,,,,,,,,,,,,AMP,right,0.3336304248368833,,,right,0,0.3336304248368833,0,,,,,,,,,,,,,,,,,,,,,,1057,2019_Mar_13_1244,mf_amp_cond1,3.0.4,60.00159720718113,
integrity,edancipation,&&&&&&&&&&&&,left,fairness.virtue,,,,,,,0,143,143,143,,,,,,,,,,,,,,,,,,,,,AMP,left,0.40031340532004833,,,left,1,0.40031340532004833,1,,,,,,,,,,,,,,,,,,,,,,1057,2019_Mar_13_1244,mf_amp_cond1,3.0.4,60.00159720718113,
forced,fonderland,&&&&&&&&&&,right,fairness.vice,,,,,,,0,144,144,144,,,,,,,,,,,,,,,,,,,,,AMP,right,0.40034900497994386,,,right,1,0.40034900497994386,1,,,,,,,,,,,,,,,,,,,,,,1057,2019_Mar_13_1244,mf_amp_cond1,3.0.4,60.00159720718113,
lies,gedious,&&&&&&&,right,fairness.vice,,,,,,,0,145,145,145,,,,,,,,,,,,,,,,,,,,,AMP,left,0.45035466566332616,,,left,0,0.45035466566332616,0,,,,,,,,,,,,,,,,,,,,,,1057,2019_Mar_13_1244,mf_amp_cond1,3.0.4,60.00159720718113,
charges,sliptery,&&&&&&&&,right,fairness.vice,,,,,,,0,146,146,146,,,,,,,,,,,,,,,,,,,,,AMP,left,0.43364046327769756,,,left,0,0.43364046327769756,0,,,,,,,,,,,,,,,,,,,,,,1057,2019_Mar_13_1244,mf_amp_cond1,3.0.4,60.00159720718113,
pleasant,sidearbs,&&&&&&&&,None,control,,,,,,,0,147,147,147,,,,,,,,,,,,,,,,,,,,,AMP,left,0.4503367054858245,,,left,0,0.4503367054858245,0,,,,,,,,,,,,,,,,,,,,,,1057,2019_Mar_13_1244,mf_amp_cond1,3.0.4,60.00159720718113,
freedom,feleological,&&&&&&&&&&&&,left,sanctity.virtue,,,,,,,0,148,148,148,,,,,,,,,,,,,,,,,,,,,AMP,left,0.40031116030877456,,,left,1,0.40031116030877456,1,,,,,,,,,,,,,,,,,,,,,,1057,2019_Mar_13_1244,mf_amp_cond1,3.0.4,60.00159720718113,
free,forepo,&&&&&&,left,fairness.virtue,,,,,,,0,149,149,149,,,,,,,,,,,,,,,,,,,,,AMP,left,0.5836901584698353,,,left,1,0.5836901584698353,1,,,,,,,,,,,,,,,,,,,,,,1057,2019_Mar_13_1244,mf_amp_cond1,3.0.4,60.00159720718113,
friends,gournful,&&&&&&&&,left,loyalty.virtue,,,,,,,0,150,150,150,,,,,,,,,,,,,,,,,,,,,AMP,left,2.017387068073731,,,left,1,2.017387068073731,1,,,,,,,,,,,,,,,,,,,,,,1057,2019_Mar_13_1244,mf_amp_cond1,3.0.4,60.00159720718113,
hate,gaultless,&&&&&&&&&,right,fairness.vice,,,,,,,0,151,151,151,,,,,,,,,,,,,,,,,,,,,AMP,left,0.5169975564349443,,,left,0,0.5169975564349443,0,,,,,,,,,,,,,,,,,,,,,,1057,2019_Mar_13_1244,mf_amp_cond1,3.0.4,60.00159720718113,
fair,idexpressible,&&&&&&&&&&&&&,left,fairness.virtue,,,,,,,0,152,152,152,,,,,,,,,,,,,,,,,,,,,AMP,right,0.050220862234709784,,,right,0,0.050220862234709784,0,,,,,,,,,,,,,,,,,,,,,,1057,2019_Mar_13_1244,mf_amp_cond1,3.0.4,60.00159720718113,
police,dramens,&&&&&&&,right,authority.vice,,,,,,,0,153,153,153,,,,,,,,,,,,,,,,,,,,,AMP,left,0.033565030491445214,,,left,0,0.033565030491445214,0,,,,,,,,,,,,,,,,,,,,,,1057,2019_Mar_13_1244,mf_amp_cond1,3.0.4,60.00159720718113,
fraud,chared,&&&&&&,right,fairness.vice,,,,,,,0,154,154,154,,,,,,,,,,,,,,,,,,,,,AMP,right,0.1002367858600337,,,right,1,0.1002367858600337,1,,,,,,,,,,,,,,,,,,,,,,1057,2019_Mar_13_1244,mf_amp_cond1,3.0.4,60.00159720718113,
abuse,uller,&&&&&,right,sanctity.vice,,,,,,,0,155,155,155,,,,,,,,,,,,,,,,,,,,,AMP,left,0.18359452046570368,,,left,0,0.18359452046570368,0,,,,,,,,,,,,,,,,,,,,,,1057,2019_Mar_13_1244,mf_amp_cond1,3.0.4,60.00159720718113,
opportunity,framatic,&&&&&&&&,left,fairness.virtue,,,,,,,0,156,156,156,,,,,,,,,,,,,,,,,,,,,AMP,right,0.4336625928117428,,,right,0,0.4336625928117428,0,,,,,,,,,,,,,,,,,,,,,,1057,2019_Mar_13_1244,mf_amp_cond1,3.0.4,60.00159720718113,
shoirmaster,ejanulated,&&&&&&&&&&,None,nonword,,,,,,,0,157,157,157,,,,,,,,,,,,,,,,,,,,,AMP,right,0.8004212306113914,,,right,0,0.8004212306113914,0,,,,,,,,,,,,,,,,,,,,,,1057,2019_Mar_13_1244,mf_amp_cond1,3.0.4,60.00159720718113,
agreement,fostet,&&&&&&,left,fairness.virtue,,,,,,,0,158,158,158,,,,,,,,,,,,,,,,,,,,,AMP,left,0.9671158531855326,,,left,1,0.9671158531855326,1,,,,,,,,,,,,,,,,,,,,,,1057,2019_Mar_13_1244,mf_amp_cond1,3.0.4,60.00159720718113,
critics,papert,&&&&&&,right,loyalty.vice,,,,,,,0,159,159,159,,,,,,,,,,,,,,,,,,,,,AMP,left,0.5336755177413579,,,left,0,0.5336755177413579,0,,,,,,,,,,,,,,,,,,,,,,1057,2019_Mar_13_1244,mf_amp_cond1,3.0.4,60.00159720718113,
safety,frocessing,&&&&&&&&&&,left,care.virtue,,,,,,,0,160,160,160,,,,,,,,,,,,,,,,,,,,,AMP,right,0.6336627852288075,,,right,0,0.6336627852288075,0,,,,,,,,,,,,,,,,,,,,,,1057,2019_Mar_13_1244,mf_amp_cond1,3.0.4,60.00159720718113,
party,divility,&&&&&&&&,left,loyalty.virtue,,,,,,,0,161,161,161,,,,,,,,,,,,,,,,,,,,,AMP,right,0.8170725723321084,,,right,0,0.8170725723321084,0,,,,,,,,,,,,,,,,,,,,,,1057,2019_Mar_13_1244,mf_amp_cond1,3.0.4,60.00159720718113,
encourage,laming,&&&&&&,left,authority.virtue,,,,,,,0,162,162,162,,,,,,,,,,,,,,,,,,,,,AMP,right,0.8337588722642977,,,right,0,0.8337588722642977,0,,,,,,,,,,,,,,,,,,,,,,1057,2019_Mar_13_1244,mf_amp_cond1,3.0.4,60.00159720718113,
trust,troubla,&&&&&&&,left,authority.virtue,,,,,,,0,163,163,163,,,,,,,,,,,,,,,,,,,,,AMP,right,1.133856338361511,,,right,0,1.133856338361511,0,,,,,,,,,,,,,,,,,,,,,,1057,2019_Mar_13_1244,mf_amp_cond1,3.0.4,60.00159720718113,
great,sfumatoy,&&&&&&&&,left,loyalty.virtue,,,,,,,0,164,164,164,,,,,,,,,,,,,,,,,,,,,AMP,right,0.30032132705673575,,,right,0,0.30032132705673575,0,,,,,,,,,,,,,,,,,,,,,,1057,2019_Mar_13_1244,mf_amp_cond1,3.0.4,60.00159720718113,
encourage,gedious,&&&&&&&,left,authority.virtue,,,,,,,0,165,165,165,,,,,,,,,,,,,,,,,,,,,AMP,right,0.40031372601515613,,,right,0,0.40031372601515613,0,,,,,,,,,,,,,,,,,,,,,,1057,2019_Mar_13_1244,mf_amp_cond1,3.0.4,60.00159720718113,
increase,erdest,&&&&&&,left,care.virtue,,,,,,,0,166,166,166,,,,,,,,,,,,,,,,,,,,,AMP,left,0.31698261099518277,,,left,1,0.31698261099518277,1,,,,,,,,,,,,,,,,,,,,,,1057,2019_Mar_13_1244,mf_amp_cond1,3.0.4,60.00159720718113,
illegal,carvels,&&&&&&&,right,fairness.vice,,,,,,,0,167,167,167,,,,,,,,,,,,,,,,,,,,,AMP,right,0.6837175157270394,,,right,1,0.6837175157270394,1,,,,,,,,,,,,,,,,,,,,,,1057,2019_Mar_13_1244,mf_amp_cond1,3.0.4,60.00159720718113,
dignity,totalestic,&&&&&&&&&&,left,sanctity.virtue,,,,,,,0,168,168,168,,,,,,,,,,,,,,,,,,,,,AMP,right,3.6011038461583667,,,right,0,3.6011038461583667,0,,,,,,,,,,,,,,,,,,,,,,1057,2019_Mar_13_1244,mf_amp_cond1,3.0.4,60.00159720718113,
critics,frocessing,&&&&&&&&&&,right,loyalty.vice,,,,,,,0,169,169,169,,,,,,,,,,,,,,,,,,,,,AMP,left,1.2838758861180395,,,left,0,1.2838758861180395,0,,,,,,,,,,,,,,,,,,,,,,1057,2019_Mar_13_1244,mf_amp_cond1,3.0.4,60.00159720718113,
rejected,divility,&&&&&&&&,right,authority.vice,,,,,,,0,170,170,170,,,,,,,,,,,,,,,,,,,,,AMP,left,0.900414271018235,,,left,0,0.900414271018235,0,,,,,,,,,,,,,,,,,,,,,,1057,2019_Mar_13_1244,mf_amp_cond1,3.0.4,60.00159720718113,
commitment,sidearbs,&&&&&&&&,left,sanctity.virtue,,,,,,,0,171,171,171,,,,,,,,,,,,,,,,,,,,,AMP,left,1.5172547720430885,,,left,1,1.5172547720430885,1,,,,,,,,,,,,,,,,,,,,,,1057,2019_Mar_13_1244,mf_amp_cond1,3.0.4,60.00159720718113,
perfect,Lacedonia,&&&&&&&&&,left,sanctity.virtue,,,,,,,0,172,172,172,,,,,,,,,,,,,,,,,,,,,AMP,right,0.4670037623436656,,,right,0,0.4670037623436656,0,,,,,,,,,,,,,,,,,,,,,,1057,2019_Mar_13_1244,mf_amp_cond1,3.0.4,60.00159720718113,
lachelor,feleological,&&&&&&&&&&&&,None,nonword,,,,,,,0,173,173,173,,,,,,,,,,,,,,,,,,,,,AMP,left,1.4005558679054957,,,left,0,1.4005558679054957,0,,,,,,,,,,,,,,,,,,,,,,1057,2019_Mar_13_1244,mf_amp_cond1,3.0.4,60.00159720718113,
rebels,vicissifude,&&&&&&&&&&&,right,authority.vice,,,,,,,0,174,174,174,,,,,,,,,,,,,,,,,,,,,AMP,left,0.38363961337017827,,,left,0,0.38363961337017827,0,,,,,,,,,,,,,,,,,,,,,,1057,2019_Mar_13_1244,mf_amp_cond1,3.0.4,60.00159720718113,
shoirmaster,edancipation,&&&&&&&&&&&&,None,nonword,,,,,,,0,175,175,175,,,,,,,,,,,,,,,,,,,,,AMP,right,0.9837970216467511,,,right,0,0.9837970216467511,0,,,,,,,,,,,,,,,,,,,,,,1057,2019_Mar_13_1244,mf_amp_cond1,3.0.4,60.00159720718113,
conspiracy,reprisols,&&&&&&&&&,right,sanctity.vice,,,,,,,0,176,176,176,,,,,,,,,,,,,,,,,,,,,AMP,left,0.6837194400141016,,,left,0,0.6837194400141016,0,,,,,,,,,,,,,,,,,,,,,,1057,2019_Mar_13_1244,mf_amp_cond1,3.0.4,60.00159720718113,
scandal,photocalkodes,&&&&&&&&&&&&&,right,sanctity.vice,,,,,,,0,177,177,177,,,,,,,,,,,,,,,,,,,,,AMP,left,0.567027270939434,,,left,0,0.567027270939434,0,,,,,,,,,,,,,,,,,,,,,,1057,2019_Mar_13_1244,mf_amp_cond1,3.0.4,60.00159720718113,
nomaric,reviked,&&&&&&&,None,nonword,,,,,,,0,178,178,178,,,,,,,,,,,,,,,,,,,,,AMP,left,1.0171523027238436,,,left,0,1.0171523027238436,0,,,,,,,,,,,,,,,,,,,,,,1057,2019_Mar_13_1244,mf_amp_cond1,3.0.4,60.00159720718113,
riot,gournful,&&&&&&&&,right,authority.vice,,,,,,,0,179,179,179,,,,,,,,,,,,,,,,,,,,,AMP,left,0.40018608039827086,,,left,0,0.40018608039827086,0,,,,,,,,,,,,,,,,,,,,,,1057,2019_Mar_13_1244,mf_amp_cond1,3.0.4,60.00159720718113,
arrests,tove,&&&&,right,authority.vice,,,,,,,0,180,180,180,,,,,,,,,,,,,,,,,,,,,AMP,left,0.6503843641257845,,,left,0,0.6503843641257845,0,,,,,,,,,,,,,,,,,,,,,,1057,2019_Mar_13_1244,mf_amp_cond1,3.0.4,60.00159720718113,
trust,focomotive,&&&&&&&&&&,left,authority.virtue,,,,,,,0,181,181,181,,,,,,,,,,,,,,,,,,,,,AMP,right,0.5836924035102129,,,right,0,0.5836924035102129,0,,,,,,,,,,,,,,,,,,,,,,1057,2019_Mar_13_1244,mf_amp_cond1,3.0.4,60.00159720718113,
shot,hasks,&&&&&,right,care.vice,,,,,,,0,182,182,182,,,,,,,,,,,,,,,,,,,,,AMP,left,0.4336577820358798,,,left,0,0.4336577820358798,0,,,,,,,,,,,,,,,,,,,,,,1057,2019_Mar_13_1244,mf_amp_cond1,3.0.4,60.00159720718113,
intelligence,fonderland,&&&&&&&&&&,left,loyalty.virtue,,,,,,,0,183,183,183,,,,,,,,,,,,,,,,,,,,,AMP,right,0.6337128171871882,,,right,0,0.6337128171871882,0,,,,,,,,,,,,,,,,,,,,,,1057,2019_Mar_13_1244,mf_amp_cond1,3.0.4,60.00159720718113,
troops,fornicalion,&&&&&&&&&&&,right,loyalty.vice,,,,,,,0,184,184,184,,,,,,,,,,,,,,,,,,,,,AMP,left,1.1004923978762235,,,left,0,1.1004923978762235,0,,,,,,,,,,,,,,,,,,,,,,1057,2019_Mar_13_1244,mf_amp_cond1,3.0.4,60.00159720718113,
growth,mecan,&&&&&,left,care.virtue,,,,,,,0,185,185,185,,,,,,,,,,,,,,,,,,,,,AMP,right,0.5170129508769605,,,right,0,0.5170129508769605,0,,,,,,,,,,,,,,,,,,,,,,1057,2019_Mar_13_1244,mf_amp_cond1,3.0.4,60.00159720718113,
integrity,hefurbished,&&&&&&&&&&&,left,fairness.virtue,,,,,,,0,186,186,186,,,,,,,,,,,,,,,,,,,,,AMP,left,0.8504182319156826,,,left,1,0.8504182319156826,1,,,,,,,,,,,,,,,,,,,,,,1057,2019_Mar_13_1244,mf_amp_cond1,3.0.4,60.00159720718113,
free,pafer,&&&&&,left,fairness.virtue,,,,,,,0,187,187,187,,,,,,,,,,,,,,,,,,,,,AMP,right,0.5503563654492609,,,right,0,0.5503563654492609,0,,,,,,,,,,,,,,,,,,,,,,1057,2019_Mar_13_1244,mf_amp_cond1,3.0.4,60.00159720718113,
war,dramens,&&&&&&&,right,sanctity.vice,,,,,,,0,188,188,188,,,,,,,,,,,,,,,,,,,,,AMP,left,0.5837045907974243,,,left,0,0.5837045907974243,0,,,,,,,,,,,,,,,,,,,,,,1057,2019_Mar_13_1244,mf_amp_cond1,3.0.4,60.00159720718113,
help,tenuflect,&&&&&&&&&,left,care.virtue,,,,,,,0,189,189,189,,,,,,,,,,,,,,,,,,,,,AMP,right,1.1505025485821534,,,right,0,1.1505025485821534,0,,,,,,,,,,,,,,,,,,,,,,1057,2019_Mar_13_1244,mf_amp_cond1,3.0.4,60.00159720718113,
hate,rorroborated,&&&&&&&&&&&&,right,fairness.vice,,,,,,,0,190,190,190,,,,,,,,,,,,,,,,,,,,,AMP,left,0.5003269716980867,,,left,0,0.5003269716980867,0,,,,,,,,,,,,,,,,,,,,,,1057,2019_Mar_13_1244,mf_amp_cond1,3.0.4,60.00159720718113,
party,pescinded,&&&&&&&&&,left,loyalty.virtue,,,,,,,0,191,191,191,,,,,,,,,,,,,,,,,,,,,AMP,right,0.9171124375425279,,,right,0,0.9171124375425279,0,,,,,,,,,,,,,,,,,,,,,,1057,2019_Mar_13_1244,mf_amp_cond1,3.0.4,60.00159720718113,
fraud,thabbily,&&&&&&&&,right,fairness.vice,,,,,,,0,192,192,192,,,,,,,,,,,,,,,,,,,,,AMP,left,1.5839316589117516,,,left,0,1.5839316589117516,0,,,,,,,,,,,,,,,,,,,,,,1057,2019_Mar_13_1244,mf_amp_cond1,3.0.4,60.00159720718113,
freedom,chared,&&&&&&,left,sanctity.virtue,,,,,,,0,193,193,193,,,,,,,,,,,,,,,,,,,,,AMP,right,0.9337631377857178,,,right,0,0.9337631377857178,0,,,,,,,,,,,,,,,,,,,,,,1057,2019_Mar_13_1244,mf_amp_cond1,3.0.4,60.00159720718113,
energy,pumber,&&&&&&,left,sanctity.virtue,,,,,,,0,194,194,194,,,,,,,,,,,,,,,,,,,,,AMP,right,0.8004401529615279,,,right,0,0.8004401529615279,0,,,,,,,,,,,,,,,,,,,,,,1057,2019_Mar_13_1244,mf_amp_cond1,3.0.4,60.00159720718113,
forced,idexpressible,&&&&&&&&&&&&&,right,fairness.vice,,,,,,,0,195,195,195,,,,,,,,,,,,,,,,,,,,,AMP,left,2.8175514038302936,,,left,0,2.8175514038302936,0,,,,,,,,,,,,,,,,,,,,,,1057,2019_Mar_13_1244,mf_amp_cond1,3.0.4,60.00159720718113,
improve,neneficence,&&&&&&&&&&&,left,care.virtue,,,,,,,0,196,196,196,,,,,,,,,,,,,,,,,,,,,AMP,right,0.8170498013496399,,,right,0,0.8170498013496399,0,,,,,,,,,,,,,,,,,,,,,,1057,2019_Mar_13_1244,mf_amp_cond1,3.0.4,60.00159720718113,
peaceful,ronviolence,&&&&&&&&&&&,left,authority.virtue,,,,,,,0,197,197,197,,,,,,,,,,,,,,,,,,,,,AMP,right,0.4503293289744761,,,right,0,0.4503293289744761,0,,,,,,,,,,,,,,,,,,,,,,1057,2019_Mar_13_1244,mf_amp_cond1,3.0.4,60.00159720718113,
good,infet,&&&&&,left,care.virtue,,,,,,,0,198,198,198,,,,,,,,,,,,,,,,,,,,,AMP,right,0.45033029111800715,,,right,0,0.45033029111800715,0,,,,,,,,,,,,,,,,,,,,,,1057,2019_Mar_13_1244,mf_amp_cond1,3.0.4,60.00159720718113,
sexual,nomparisons,&&&&&&&&&&&,right,sanctity.vice,,,,,,,0,199,199,199,,,,,,,,,,,,,,,,,,,,,AMP,right,0.7004169650608674,,,right,1,0.7004169650608674,1,,,,,,,,,,,,,,,,,,,,,,1057,2019_Mar_13_1244,mf_amp_cond1,3.0.4,60.00159720718113,
interests,ning,&&&&,left,fairness.virtue,,,,,,,0,200,200,200,,,,,,,,,,,,,,,,,,,,,AMP,left,0.5003362724964973,,,left,1,0.5003362724964973,1,,,,,,,,,,,,,,,,,,,,,,1057,2019_Mar_13_1244,mf_amp_cond1,3.0.4,60.00159720718113,
died,wump,&&&&,right,care.vice,,,,,,,0,201,201,201,,,,,,,,,,,,,,,,,,,,,AMP,left,0.40033393126213923,,,left,0,0.40033393126213923,0,,,,,,,,,,,,,,,,,,,,,,1057,2019_Mar_13_1244,mf_amp_cond1,3.0.4,60.00159720718113,
friends,sliptery,&&&&&&&&,left,loyalty.virtue,,,,,,,0,202,202,202,,,,,,,,,,,,,,,,,,,,,AMP,right,0.4669967065565288,,,right,0,0.4669967065565288,0,,,,,,,,,,,,,,,,,,,,,,1057,2019_Mar_13_1244,mf_amp_cond1,3.0.4,60.00159720718113,
clean,laming,&&&&&&,left,sanctity.virtue,,,,,,,0,203,203,203,,,,,,,,,,,,,,,,,,,,,AMP,right,0.5168609307147563,,,right,0,0.5168609307147563,0,,,,,,,,,,,,,,,,,,,,,,1057,2019_Mar_13_1244,mf_amp_cond1,3.0.4,60.00159720718113,
opportunity,disregord,&&&&&&&&&,left,fairness.virtue,,,,,,,0,204,204,204,,,,,,,,,,,,,,,,,,,,,AMP,right,0.46699478224036284,,,right,0,0.46699478224036284,0,,,,,,,,,,,,,,,,,,,,,,1057,2019_Mar_13_1244,mf_amp_cond1,3.0.4,60.00159720718113,
godlaness,ejanulated,&&&&&&&&&&,None,nonword,,,,,,,0,205,205,205,,,,,,,,,,,,,,,,,,,,,AMP,right,0.8170809109869879,,,right,0,0.8170809109869879,0,,,,,,,,,,,,,,,,,,,,,,1057,2019_Mar_13_1244,mf_amp_cond1,3.0.4,60.00159720718113,
killed,reelectiob,&&&&&&&&&&,right,care.vice,,,,,,,0,206,206,206,,,,,,,,,,,,,,,,,,,,,AMP,left,0.4503530620713718,,,left,0,0.4503530620713718,0,,,,,,,,,,,,,,,,,,,,,,1057,2019_Mar_13_1244,mf_amp_cond1,3.0.4,60.00159720718113,
police,pharing,&&&&&&&,right,authority.vice,,,,,,,0,207,207,207,,,,,,,,,,,,,,,,,,,,,AMP,right,0.5503428953234106,,,right,1,0.5503428953234106,1,,,,,,,,,,,,,,,,,,,,,,1057,2019_Mar_13_1244,mf_amp_cond1,3.0.4,60.00159720718113,
ittutable,hatigue,&&&&&&&,None,nonword,,,,,,,0,208,208,208,,,,,,,,,,,,,,,,,,,,,AMP,left,0.6670632875466254,,,left,0,0.6670632875466254,0,,,,,,,,,,,,,,,,,,,,,,1057,2019_Mar_13_1244,mf_amp_cond1,3.0.4,60.00159720718113,
praise,quarterbocks,&&&&&&&&&&&&,left,authority.virtue,,,,,,,0,209,209,209,,,,,,,,,,,,,,,,,,,,,AMP,right,0.41697533073602244,,,right,0,0.41697533073602244,0,,,,,,,,,,,,,,,,,,,,,,1057,2019_Mar_13_1244,mf_amp_cond1,3.0.4,60.00159720718113,
embrace,precificity,&&&&&&&&&&&,left,authority.virtue,,,,,,,0,210,210,210,,,,,,,,,,,,,,,,,,,,,AMP,right,0.5170062158140354,,,right,0,0.5170062158140354,0,,,,,,,,,,,,,,,,,,,,,,1057,2019_Mar_13_1244,mf_amp_cond1,3.0.4,60.00159720718113,
faspberry,papert,&&&&&&,None,nonword,,,,,,,0,211,211,211,,,,,,,,,,,,,,,,,,,,,AMP,right,0.76708455113112,,,right,0,0.76708455113112,0,,,,,,,,,,,,,,,,,,,,,,1057,2019_Mar_13_1244,mf_amp_cond1,3.0.4,60.00159720718113,
violations,sowntrodden,&&&&&&&&&&&,right,sanctity.vice,,,,,,,0,212,212,212,,,,,,,,,,,,,,,,,,,,,AMP,left,1.0171667350514326,,,left,0,1.0171667350514326,0,,,,,,,,,,,,,,,,,,,,,,1057,2019_Mar_13_1244,mf_amp_cond1,3.0.4,60.00159720718113,
restore,brudent,&&&&&&&,left,care.virtue,,,,,,,0,213,213,213,,,,,,,,,,,,,,,,,,,,,AMP,left,2.6008434233954176,,,left,1,2.6008434233954176,1,,,,,,,,,,,,,,,,,,,,,,1057,2019_Mar_13_1244,mf_amp_cond1,3.0.4,60.00159720718113,
charges,gusinesslike,&&&&&&&&&&&&,right,fairness.vice,,,,,,,0,214,214,214,,,,,,,,,,,,,,,,,,,,,AMP,left,0.7337337600474712,,,left,0,0.7337337600474712,0,,,,,,,,,,,,,,,,,,,,,,1057,2019_Mar_13_1244,mf_amp_cond1,3.0.4,60.00159720718113,
unpleasant,crinking,&&&&&&&&,None,control,,,,,,,0,215,215,215,,,,,,,,,,,,,,,,,,,,,AMP,left,0.7503851017681882,,,left,0,0.7503851017681882,0,,,,,,,,,,,,,,,,,,,,,,1057,2019_Mar_13_1244,mf_amp_cond1,3.0.4,60.00159720718113,
abuse,uller,&&&&&,right,sanctity.vice,,,,,,,0,216,216,216,,,,,,,,,,,,,,,,,,,,,AMP,left,0.33363266981905326,,,left,0,0.33363266981905326,0,,,,,,,,,,,,,,,,,,,,,,1057,2019_Mar_13_1244,mf_amp_cond1,3.0.4,60.00159720718113,
promised,ebbitter,&&&&&&&&,left,loyalty.virtue,,,,,,,0,217,217,217,,,,,,,,,,,,,,,,,,,,,AMP,left,0.6170300451631192,,,left,1,0.6170300451631192,1,,,,,,,,,,,,,,,,,,,,,,1057,2019_Mar_13_1244,mf_amp_cond1,3.0.4,60.00159720718113,
pleasant,gaultless,&&&&&&&&&,None,control,,,,,,,0,218,218,218,,,,,,,,,,,,,,,,,,,,,AMP,right,0.6003604225406889,,,right,0,0.6003604225406889,0,,,,,,,,,,,,,,,,,,,,,,1057,2019_Mar_13_1244,mf_amp_cond1,3.0.4,60.00159720718113,
celebrated,crilfully,&&&&&&&&&,left,authority.virtue,,,,,,,0,219,219,219,,,,,,,,,,,,,,,,,,,,,AMP,right,1.0171397947415244,,,right,0,1.0171397947415244,0,,,,,,,,,,,,,,,,,,,,,,1057,2019_Mar_13_1244,mf_amp_cond1,3.0.4,60.00159720718113,
agreement,imebreaker,&&&&&&&&&&,left,fairness.virtue,,,,,,,0,220,220,220,,,,,,,,,,,,,,,,,,,,,AMP,right,0.2836186705098953,,,right,0,0.2836186705098953,0,,,,,,,,,,,,,,,,,,,,,,1057,2019_Mar_13_1244,mf_amp_cond1,3.0.4,60.00159720718113,
actively,asn,&&&,left,authority.virtue,,,,,,,0,221,221,221,,,,,,,,,,,,,,,,,,,,,AMP,left,0.8837786444928497,,,left,1,0.8837786444928497,1,,,,,,,,,,,,,,,,,,,,,,1057,2019_Mar_13_1244,mf_amp_cond1,3.0.4,60.00159720718113,
alar,forepo,&&&&&&,None,nonword,,,,,,,0,222,222,222,,,,,,,,,,,,,,,,,,,,,AMP,right,1.4672497528081294,,,right,0,1.4672497528081294,0,,,,,,,,,,,,,,,,,,,,,,1057,2019_Mar_13_1244,mf_amp_cond1,3.0.4,60.00159720718113,
safety,lenon,&&&&&,left,care.virtue,,,,,,,0,223,223,223,,,,,,,,,,,,,,,,,,,,,AMP,left,0.4169884801376611,,,left,1,0.4169884801376611,1,,,,,,,,,,,,,,,,,,,,,,1057,2019_Mar_13_1244,mf_amp_cond1,3.0.4,60.00159720718113,
injured,yane,&&&&,right,care.vice,,,,,,,0,224,224,224,,,,,,,,,,,,,,,,,,,,,AMP,left,0.35029395381570794,,,left,0,0.35029395381570794,0,,,,,,,,,,,,,,,,,,,,,,1057,2019_Mar_13_1244,mf_amp_cond1,3.0.4,60.00159720718113,
ban,nonobservalt,&&&&&&&&&&&&,right,loyalty.vice,,,,,,,0,225,225,225,,,,,,,,,,,,,,,,,,,,,AMP,left,0.30032004418899305,,,left,0,0.30032004418899305,0,,,,,,,,,,,,,,,,,,,,,,1057,2019_Mar_13_1244,mf_amp_cond1,3.0.4,60.00159720718113,
terrorist,strofe,&&&&&&,right,loyalty.vice,,,,,,,0,226,226,226,,,,,,,,,,,,,,,,,,,,,AMP,left,0.283665816008579,,,left,0,0.283665816008579,0,,,,,,,,,,,,,,,,,,,,,,1057,2019_Mar_13_1244,mf_amp_cond1,3.0.4,60.00159720718113,
victims,slending,&&&&&&&&,right,care.vice,,,,,,,0,227,227,227,,,,,,,,,,,,,,,,,,,,,AMP,left,0.25029642329900526,,,left,0,0.25029642329900526,0,,,,,,,,,,,,,,,,,,,,,,1057,2019_Mar_13_1244,mf_amp_cond1,3.0.4,60.00159720718113,
gun,chadows,&&&&&&&,right,authority.vice,,,,,,,0,228,228,228,,,,,,,,,,,,,,,,,,,,,AMP,left,0.11689806982758455,,,left,0,0.11689806982758455,0,,,,,,,,,,,,,,,,,,,,,,1057,2019_Mar_13_1244,mf_amp_cond1,3.0.4,60.00159720718113,
shoirmaster,tomedians,&&&&&&&&&,None,nonword,,,,,,,0,229,229,229,,,,,,,,,,,,,,,,,,,,,AMP,left,1.0004676063836087,,,left,0,1.0004676063836087,0,,,,,,,,,,,,,,,,,,,,,,1057,2019_Mar_13_1244,mf_amp_cond1,3.0.4,60.00159720718113,
lies,coom,&&&&,right,fairness.vice,,,,,,,0,230,230,230,,,,,,,,,,,,,,,,,,,,,AMP,left,0.4003374591411557,,,left,0,0.4003374591411557,0,,,,,,,,,,,,,,,,,,,,,,1057,2019_Mar_13_1244,mf_amp_cond1,3.0.4,60.00159720718113,
prosecution,antral,&&&&&&,right,authority.vice,,,,,,,0,231,231,231,,,,,,,,,,,,,,,,,,,,,AMP,left,0.5336825735284947,,,left,0,0.5336825735284947,0,,,,,,,,,,,,,,,,,,,,,,1057,2019_Mar_13_1244,mf_amp_cond1,3.0.4,60.00159720718113,
betrayal,viscs,&&&&&,right,loyalty.vice,,,,,,,0,232,232,232,,,,,,,,,,,,,,,,,,,,,AMP,left,0.9004283826216124,,,left,0,0.9004283826216124,0,,,,,,,,,,,,,,,,,,,,,,1057,2019_Mar_13_1244,mf_amp_cond1,3.0.4,60.00159720718113,
respect,scalbel,&&&&&&&,left,sanctity.virtue,,,,,,,0,233,233,233,,,,,,,,,,,,,,,,,,,,,AMP,right,0.5836885549069848,,,right,0,0.5836885549069848,0,,,,,,,,,,,,,,,,,,,,,,1057,2019_Mar_13_1244,mf_amp_cond1,3.0.4,60.00159720718113,
gationwide,unreflectuve,&&&&&&&&&&&&,None,nonword,,,,,,,0,234,234,234,,,,,,,,,,,,,,,,,,,,,AMP,left,0.9837861172272824,,,left,0,0.9837861172272824,0,,,,,,,,,,,,,,,,,,,,,,1057,2019_Mar_13_1244,mf_amp_cond1,3.0.4,60.00159720718113,
voter,galamitous,&&&&&&&&&&,right,fairness.vice,,,,,,,0,235,235,235,,,,,,,,,,,,,,,,,,,,,AMP,right,0.833753740764223,,,right,1,0.833753740764223,1,,,,,,,,,,,,,,,,,,,,,,1057,2019_Mar_13_1244,mf_amp_cond1,3.0.4,60.00159720718113,
love,aubos,&&&&&,left,loyalty.virtue,,,,,,,0,236,236,236,,,,,,,,,,,,,,,,,,,,,AMP,right,0.41699746024096385,,,right,0,0.41699746024096385,0,,,,,,,,,,,,,,,,,,,,,,1057,2019_Mar_13_1244,mf_amp_cond1,3.0.4,60.00159720718113,
fair,nackers,&&&&&&&,left,fairness.virtue,,,,,,,0,237,237,237,,,,,,,,,,,,,,,,,,,,,AMP,right,0.41699264946510084,,,right,0,0.41699264946510084,0,,,,,,,,,,,,,,,,,,,,,,1057,2019_Mar_13_1244,mf_amp_cond1,3.0.4,60.00159720718113,
groups,troubla,&&&&&&&,right,loyalty.vice,,,,,,,0,238,238,238,,,,,,,,,,,,,,,,,,,,,AMP,left,0.7003897040558513,,,left,0,0.7003897040558513,0,,,,,,,,,,,,,,,,,,,,,,1057,2019_Mar_13_1244,mf_amp_cond1,3.0.4,60.00159720718113,
blamed,framatic,&&&&&&&&,right,loyalty.vice,,,,,,,0,239,239,239,,,,,,,,,,,,,,,,,,,,,AMP,left,10.46940657927189,,,left,0,10.46940657927189,0,,,,,,,,,,,,,,,,,,,,,,1057,2019_Mar_13_1244,mf_amp_cond1,3.0.4,60.00159720718113,
unscothed,clattening,&&&&&&&&&&,None,nonword,,,,,,,0,240,240,240,,,,,,,,,,,,,,,,,,,,,AMP,left,1.0171487748448271,,,left,0,1.0171487748448271,0,,,,,,,,,,,,,,,,,,,,,,1057,2019_Mar_13_1244,mf_amp_cond1,3.0.4,60.00159720718113,
win,touls,&&&&&,left,fairness.virtue,,,,,,,0,241,241,241,,,,,,,,,,,,,,,,,,,,,AMP,left,0.50033755536424,,,left,1,0.50033755536424,1,,,,,,,,,,,,,,,,,,,,,,1057,2019_Mar_13_1244,mf_amp_cond1,3.0.4,60.00159720718113,
fear,fostet,&&&&&&,right,sanctity.vice,,,,,,,0,242,242,242,,,,,,,,,,,,,,,,,,,,,AMP,left,0.4169836693617981,,,left,0,0.4169836693617981,0,,,,,,,,,,,,,,,,,,,,,,1057,2019_Mar_13_1244,mf_amp_cond1,3.0.4,60.00159720718113,
victim,gazily,&&&&&&,right,care.vice,,,,,,,0,243,243,243,,,,,,,,,,,,,,,,,,,,,AMP,left,0.41698655582149513,,,left,0,0.41698655582149513,0,,,,,,,,,,,,,,,,,,,,,,1057,2019_Mar_13_1244,mf_amp_cond1,3.0.4,60.00159720718113,
support,scock,&&&&&,left,loyalty.virtue,,,,,,,0,244,244,244,,,,,,,,,,,,,,,,,,,,,AMP,right,0.5170222517044749,,,right,0,0.5170222517044749,0,,,,,,,,,,,,,,,,,,,,,,1057,2019_Mar_13_1244,mf_amp_cond1,3.0.4,60.00159720718113,
torture,bluently,&&&&&&&&,right,care.vice,,,,,,,0,245,245,245,,,,,,,,,,,,,,,,,,,,,AMP,right,1.6672849034657702,,,right,1,1.6672849034657702,1,,,,,,,,,,,,,,,,,,,,,,1057,2019_Mar_13_1244,mf_amp_cond1,3.0.4,60.00159720718113,
gationwide,hefurbished,&&&&&&&&&&&,None,nonword,,,,,,,0,246,246,246,,,,,,,,,,,,,,,,,,,,,AMP,right,1.2671963212487753,,,right,0,1.2671963212487753,0,,,,,,,,,,,,,,,,,,,,,,1057,2019_Mar_13_1244,mf_amp_cond1,3.0.4,60.00159720718113,
fraud,dramens,&&&&&&&,right,fairness.vice,,,,,,,0,247,247,247,,,,,,,,,,,,,,,,,,,,,AMP,right,0.5503605348058045,,,right,1,0.5503605348058045,1,,,,,,,,,,,,,,,,,,,,,,1057,2019_Mar_13_1244,mf_amp_cond1,3.0.4,60.00159720718113,
lachelor,galamitous,&&&&&&&&&&,None,nonword,,,,,,,0,248,248,248,,,,,,,,,,,,,,,,,,,,,AMP,right,2.0173768051026855,,,right,0,2.0173768051026855,0,,,,,,,,,,,,,,,,,,,,,,1057,2019_Mar_13_1244,mf_amp_cond1,3.0.4,60.00159720718113,
killed,touls,&&&&&,right,care.vice,,,,,,,0,249,249,249,,,,,,,,,,,,,,,,,,,,,AMP,right,0.41698623512638733,,,right,1,0.41698623512638733,1,,,,,,,,,,,,,,,,,,,,,,1057,2019_Mar_13_1244,mf_amp_cond1,3.0.4,60.00159720718113,
war,sowntrodden,&&&&&&&&&&&,right,sanctity.vice,,,,,,,0,250,250,250,,,,,,,,,,,,,,,,,,,,,AMP,left,0.6837197607383132,,,left,0,0.6837197607383132,0,,,,,,,,,,,,,,,,,,,,,,1057,2019_Mar_13_1244,mf_amp_cond1,3.0.4,60.00159720718113,
ittutable,ning,&&&&,None,nonword,,,,,,,0,251,251,251,,,,,,,,,,,,,,,,,,,,,AMP,left,0.5670269502443261,,,left,0,0.5670269502443261,0,,,,,,,,,,,,,,,,,,,,,,1057,2019_Mar_13_1244,mf_amp_cond1,3.0.4,60.00159720718113,
great,antral,&&&&&&,left,loyalty.virtue,,,,,,,0,252,252,252,,,,,,,,,,,,,,,,,,,,,AMP,left,2.1173958236759063,,,left,1,2.1173958236759063,1,,,,,,,,,,,,,,,,,,,,,,1057,2019_Mar_13_1244,mf_amp_cond1,3.0.4,60.00159720718113,
good,laming,&&&&&&,left,care.virtue,,,,,,,0,253,253,253,,,,,,,,,,,,,,,,,,,,,AMP,right,0.4169932909135241,,,right,0,0.4169932909135241,0,,,,,,,,,,,,,,,,,,,,,,1057,2019_Mar_13_1244,mf_amp_cond1,3.0.4,60.00159720718113,
police,tove,&&&&,right,authority.vice,,,,,,,0,254,254,254,,,,,,,,,,,,,,,,,,,,,AMP,right,0.5336893085914198,,,right,1,0.5336893085914198,1,,,,,,,,,,,,,,,,,,,,,,1057,2019_Mar_13_1244,mf_amp_cond1,3.0.4,60.00159720718113,
lies,slending,&&&&&&&&,right,fairness.vice,,,,,,,0,255,255,255,,,,,,,,,,,,,,,,,,,,,AMP,left,0.6503859677177388,,,left,0,0.6503859677177388,0,,,,,,,,,,,,,,,,,,,,,,1057,2019_Mar_13_1244,mf_amp_cond1,3.0.4,60.00159720718113,
party,reelectiob,&&&&&&&&&&,left,loyalty.virtue,,,,,,,0,256,256,256,,,,,,,,,,,,,,,,,,,,,AMP,right,0.5003279338416178,,,right,0,0.5003279338416178,0,,,,,,,,,,,,,,,,,,,,,,1057,2019_Mar_13_1244,mf_amp_cond1,3.0.4,60.00159720718113,
agreement,chadows,&&&&&&&,left,fairness.virtue,,,,,,,0,257,257,257,,,,,,,,,,,,,,,,,,,,,AMP,right,0.400272674189182,,,right,0,0.400272674189182,0,,,,,,,,,,,,,,,,,,,,,,1057,2019_Mar_13_1244,mf_amp_cond1,3.0.4,60.00159720718113,
conspiracy,sfumatoy,&&&&&&&&,right,sanctity.vice,,,,,,,0,258,258,258,,,,,,,,,,,,,,,,,,,,,AMP,left,0.46699863084359095,,,left,0,0.46699863084359095,0,,,,,,,,,,,,,,,,,,,,,,1057,2019_Mar_13_1244,mf_amp_cond1,3.0.4,60.00159720718113,
blamed,scock,&&&&&,right,loyalty.vice,,,,,,,0,259,259,259,,,,,,,,,,,,,,,,,,,,,AMP,left,0.38365115923807025,,,left,0,0.38365115923807025,0,,,,,,,,,,,,,,,,,,,,,,1057,2019_Mar_13_1244,mf_amp_cond1,3.0.4,60.00159720718113,
integrity,gazily,&&&&&&,left,fairness.virtue,,,,,,,0,260,260,260,,,,,,,,,,,,,,,,,,,,,AMP,right,0.4003223854233511,,,right,0,0.4003223854233511,0,,,,,,,,,,,,,,,,,,,,,,1057,2019_Mar_13_1244,mf_amp_cond1,3.0.4,60.00159720718113,
betrayal,fostet,&&&&&&,right,loyalty.vice,,,,,,,0,261,261,261,,,,,,,,,,,,,,,,,,,,,AMP,left,0.4669992722920142,,,left,0,0.4669992722920142,0,,,,,,,,,,,,,,,,,,,,,,1057,2019_Mar_13_1244,mf_amp_cond1,3.0.4,60.00159720718113,
commitment,nomparisons,&&&&&&&&&&&,left,sanctity.virtue,,,,,,,0,262,262,262,,,,,,,,,,,,,,,,,,,,,AMP,right,1.4172165104246233,,,right,0,1.4172165104246233,0,,,,,,,,,,,,,,,,,,,,,,1057,2019_Mar_13_1244,mf_amp_cond1,3.0.4,60.00159720718113,
restore,lenon,&&&&&,left,care.virtue,,,,,,,0,263,263,263,,,,,,,,,,,,,,,,,,,,,AMP,right,1.000455419125501,,,right,0,1.000455419125501,0,,,,,,,,,,,,,,,,,,,,,,1057,2019_Mar_13_1244,mf_amp_cond1,3.0.4,60.00159720718113,
fair,erdest,&&&&&&,left,fairness.virtue,,,,,,,0,264,264,264,,,,,,,,,,,,,,,,,,,,,AMP,right,0.3669680664606858,,,right,0,0.3669680664606858,0,,,,,,,,,,,,,,,,,,,,,,1057,2019_Mar_13_1244,mf_amp_cond1,3.0.4,60.00159720718113,
shot,uller,&&&&&,right,care.vice,,,,,,,0,265,265,265,,,,,,,,,,,,,,,,,,,,,AMP,left,0.28364817655528896,,,left,0,0.28364817655528896,0,,,,,,,,,,,,,,,,,,,,,,1057,2019_Mar_13_1244,mf_amp_cond1,3.0.4,60.00159720718113,
help,disregord,&&&&&&&&&,left,care.virtue,,,,,,,0,266,266,266,,,,,,,,,,,,,,,,,,,,,AMP,left,0.5336902707640547,,,left,1,0.5336902707640547,1,,,,,,,,,,,,,,,,,,,,,,1057,2019_Mar_13_1244,mf_amp_cond1,3.0.4,60.00159720718113,
opportunity,rorroborated,&&&&&&&&&&&&,left,fairness.virtue,,,,,,,0,267,267,267,,,,,,,,,,,,,,,,,,,,,AMP,right,0.4670634158246685,,,right,0,0.4670634158246685,0,,,,,,,,,,,,,,,,,,,,,,1057,2019_Mar_13_1244,mf_amp_cond1,3.0.4,60.00159720718113,
dignity,gournful,&&&&&&&&,left,sanctity.virtue,,,,,,,0,268,268,268,,,,,,,,,,,,,,,,,,,,,AMP,left,0.5837110051361378,,,left,1,0.5837110051361378,1,,,,,,,,,,,,,,,,,,,,,,1057,2019_Mar_13_1244,mf_amp_cond1,3.0.4,60.00159720718113,
improve,clattening,&&&&&&&&&&,left,care.virtue,,,,,,,0,269,269,269,,,,,,,,,,,,,,,,,,,,,AMP,right,0.7504062691295985,,,right,0,0.7504062691295985,0,,,,,,,,,,,,,,,,,,,,,,1057,2019_Mar_13_1244,mf_amp_cond1,3.0.4,60.00159720718113,
actively,strofe,&&&&&&,left,authority.virtue,,,,,,,0,270,270,270,,,,,,,,,,,,,,,,,,,,,AMP,right,0.3003280621196609,,,right,0,0.3003280621196609,0,,,,,,,,,,,,,,,,,,,,,,1057,2019_Mar_13_1244,mf_amp_cond1,3.0.4,60.00159720718113,
riot,ronviolence,&&&&&&&&&&&,right,authority.vice,,,,,,,0,271,271,271,,,,,,,,,,,,,,,,,,,,,AMP,left,0.5003417246916797,,,left,0,0.5003417246916797,0,,,,,,,,,,,,,,,,,,,,,,1057,2019_Mar_13_1244,mf_amp_cond1,3.0.4,60.00159720718113,
freedom,unreflectuve,&&&&&&&&&&&&,left,sanctity.virtue,,,,,,,0,272,272,272,,,,,,,,,,,,,,,,,,,,,AMP,right,1.1504954927950166,,,right,0,1.1504954927950166,0,,,,,,,,,,,,,,,,,,,,,,1057,2019_Mar_13_1244,mf_amp_cond1,3.0.4,60.00159720718113,
gun,sidearbs,&&&&&&&&,right,authority.vice,,,,,,,0,273,273,273,,,,,,,,,,,,,,,,,,,,,AMP,left,0.7503972890553996,,,left,0,0.7503972890553996,0,,,,,,,,,,,,,,,,,,,,,,1057,2019_Mar_13_1244,mf_amp_cond1,3.0.4,60.00159720718113,
scandal,quarterbocks,&&&&&&&&&&&&,right,sanctity.vice,,,,,,,0,274,274,274,,,,,,,,,,,,,,,,,,,,,AMP,left,0.5170315525028855,,,left,0,0.5170315525028855,0,,,,,,,,,,,,,,,,,,,,,,1057,2019_Mar_13_1244,mf_amp_cond1,3.0.4,60.00159720718113,
friends,forepo,&&&&&&,left,loyalty.virtue,,,,,,,0,275,275,275,,,,,,,,,,,,,,,,,,,,,AMP,right,0.5003468561626505,,,right,0,0.5003468561626505,0,,,,,,,,,,,,,,,,,,,,,,1057,2019_Mar_13_1244,mf_amp_cond1,3.0.4,60.00159720718113,
pleasant,pharing,&&&&&&&,None,control,,,,,,,0,276,276,276,,,,,,,,,,,,,,,,,,,,,AMP,right,0.48368461008067243,,,right,0,0.48368461008067243,0,,,,,,,,,,,,,,,,,,,,,,1057,2019_Mar_13_1244,mf_amp_cond1,3.0.4,60.00159720718113,
torture,photocalkodes,&&&&&&&&&&&&&,right,care.vice,,,,,,,0,277,277,277,,,,,,,,,,,,,,,,,,,,,AMP,left,0.4836634427192621,,,left,0,0.4836634427192621,0,,,,,,,,,,,,,,,,,,,,,,1057,2019_Mar_13_1244,mf_amp_cond1,3.0.4,60.00159720718113,
terrorist,reprisols,&&&&&&&&&,right,loyalty.vice,,,,,,,0,278,278,278,,,,,,,,,,,,,,,,,,,,,AMP,left,0.4503261217905674,,,left,0,0.4503261217905674,0,,,,,,,,,,,,,,,,,,,,,,1057,2019_Mar_13_1244,mf_amp_cond1,3.0.4,60.00159720718113,
violations,fornicalion,&&&&&&&&&&&,right,sanctity.vice,,,,,,,0,279,279,279,,,,,,,,,,,,,,,,,,,,,AMP,left,0.43366227208753116,,,left,0,0.43366227208753116,0,,,,,,,,,,,,,,,,,,,,,,1057,2019_Mar_13_1244,mf_amp_cond1,3.0.4,60.00159720718113,
prosecution,vicissifude,&&&&&&&&&&&,right,authority.vice,,,,,,,0,280,280,280,,,,,,,,,,,,,,,,,,,,,AMP,left,0.4169997052522376,,,left,0,0.4169997052522376,0,,,,,,,,,,,,,,,,,,,,,,1057,2019_Mar_13_1244,mf_amp_cond1,3.0.4,60.00159720718113,
abuse,tenuflect,&&&&&&&&&,right,sanctity.vice,,,,,,,0,281,281,281,,,,,,,,,,,,,,,,,,,,,AMP,left,0.2169626303075347,,,left,0,0.2169626303075347,0,,,,,,,,,,,,,,,,,,,,,,1057,2019_Mar_13_1244,mf_amp_cond1,3.0.4,60.00159720718113,
sexual,crilfully,&&&&&&&&&,right,sanctity.vice,,,,,,,0,282,282,282,,,,,,,,,,,,,,,,,,,,,AMP,right,0.41697436856338754,,,right,1,0.41697436856338754,1,,,,,,,,,,,,,,,,,,,,,,1057,2019_Mar_13_1244,mf_amp_cond1,3.0.4,60.00159720718113,
free,pescinded,&&&&&&&&&,left,fairness.virtue,,,,,,,0,283,283,283,,,,,,,,,,,,,,,,,,,,,AMP,right,0.9171076267666649,,,right,0,0.9171076267666649,0,,,,,,,,,,,,,,,,,,,,,,1057,2019_Mar_13_1244,mf_amp_cond1,3.0.4,60.00159720718113,
embrace,pafer,&&&&&,left,authority.virtue,,,,,,,0,284,284,284,,,,,,,,,,,,,,,,,,,,,AMP,right,0.800414816243574,,,right,0,0.800414816243574,0,,,,,,,,,,,,,,,,,,,,,,1057,2019_Mar_13_1244,mf_amp_cond1,3.0.4,60.00159720718113,
trust,divility,&&&&&&&&,left,authority.virtue,,,,,,,0,285,285,285,,,,,,,,,,,,,,,,,,,,,AMP,left,0.783761229540687,,,left,1,0.783761229540687,1,,,,,,,,,,,,,,,,,,,,,,1057,2019_Mar_13_1244,mf_amp_cond1,3.0.4,60.00159720718113,
voter,idexpressible,&&&&&&&&&&&&&,right,fairness.vice,,,,,,,0,286,286,286,,,,,,,,,,,,,,,,,,,,,AMP,right,0.7170683067815844,,,right,1,0.7170683067815844,1,,,,,,,,,,,,,,,,,,,,,,1057,2019_Mar_13_1244,mf_amp_cond1,3.0.4,60.00159720718113,
win,bluently,&&&&&&&&,left,fairness.virtue,,,,,,,0,287,287,287,,,,,,,,,,,,,,,,,,,,,AMP,right,0.26693750207778066,,,right,0,0.26693750207778066,0,,,,,,,,,,,,,,,,,,,,,,1057,2019_Mar_13_1244,mf_amp_cond1,3.0.4,60.00159720718113,
safety,gusinesslike,&&&&&&&&&&&&,left,care.virtue,,,,,,,0,288,288,288,,,,,,,,,,,,,,,,,,,,,AMP,right,0.700390024780063,,,right,0,0.700390024780063,0,,,,,,,,,,,,,,,,,,,,,,1057,2019_Mar_13_1244,mf_amp_cond1,3.0.4,60.00159720718113,
forced,imebreaker,&&&&&&&&&&,right,fairness.vice,,,,,,,0,289,289,289,,,,,,,,,,,,,,,,,,,,,AMP,right,1.1171584925905336,,,right,1,1.1171584925905336,1,,,,,,,,,,,,,,,,,,,,,,1057,2019_Mar_13_1244,mf_amp_cond1,3.0.4,60.00159720718113,
perfect,ebbitter,&&&&&&&&,left,sanctity.virtue,,,,,,,0,290,290,290,,,,,,,,,,,,,,,,,,,,,AMP,right,0.7504312851233408,,,right,0,0.7504312851233408,0,,,,,,,,,,,,,,,,,,,,,,1057,2019_Mar_13_1244,mf_amp_cond1,3.0.4,60.00159720718113,
troops,carvels,&&&&&&&,right,loyalty.vice,,,,,,,0,291,291,291,,,,,,,,,,,,,,,,,,,,,AMP,right,1.4672343583370093,,,right,1,1.4672343583370093,1,,,,,,,,,,,,,,,,,,,,,,1057,2019_Mar_13_1244,mf_amp_cond1,3.0.4,60.00159720718113,
victim,nackers,&&&&&&&,right,care.vice,,,,,,,0,292,292,292,,,,,,,,,,,,,,,,,,,,,AMP,left,0.3336191997223068,,,left,0,0.3336191997223068,0,,,,,,,,,,,,,,,,,,,,,,1057,2019_Mar_13_1244,mf_amp_cond1,3.0.4,60.00159720718113,
faspberry,aubos,&&&&&,None,nonword,,,,,,,0,293,293,293,,,,,,,,,,,,,,,,,,,,,AMP,left,0.1502568788419012,,,left,0,0.1502568788419012,0,,,,,,,,,,,,,,,,,,,,,,1057,2019_Mar_13_1244,mf_amp_cond1,3.0.4,60.00159720718113,
nomaric,tomedians,&&&&&&&&&,None,nonword,,,,,,,0,294,294,294,,,,,,,,,,,,,,,,,,,,,AMP,left,0.7837532116100192,,,left,0,0.7837532116100192,0,,,,,,,,,,,,,,,,,,,,,,1057,2019_Mar_13_1244,mf_amp_cond1,3.0.4,60.00159720718113,
celebrated,chared,&&&&&&,left,authority.virtue,,,,,,,0,295,295,295,,,,,,,,,,,,,,,,,,,,,AMP,right,1.2505395273328759,,,right,0,1.2505395273328759,0,,,,,,,,,,,,,,,,,,,,,,1057,2019_Mar_13_1244,mf_amp_cond1,3.0.4,60.00159720718113,
promised,fonderland,&&&&&&&&&&,left,loyalty.virtue,,,,,,,0,296,296,296,,,,,,,,,,,,,,,,,,,,,AMP,right,0.7003964391187765,,,right,0,0.7003964391187765,0,,,,,,,,,,,,,,,,,,,,,,1057,2019_Mar_13_1244,mf_amp_cond1,3.0.4,60.00159720718113,
energy,asn,&&&,left,sanctity.virtue,,,,,,,0,297,297,297,,,,,,,,,,,,,,,,,,,,,AMP,right,1.6339485446806066,,,right,0,1.6339485446806066,0,,,,,,,,,,,,,,,,,,,,,,1057,2019_Mar_13_1244,mf_amp_cond1,3.0.4,60.00159720718113,
peaceful,hasks,&&&&&,left,authority.virtue,,,,,,,0,298,298,298,,,,,,,,,,,,,,,,,,,,,AMP,right,1.6672906763851643,,,right,0,1.6672906763851643,0,,,,,,,,,,,,,,,,,,,,,,1057,2019_Mar_13_1244,mf_amp_cond1,3.0.4,60.00159720718113,
respect,yane,&&&&,left,sanctity.virtue,,,,,,,0,299,299,299,,,,,,,,,,,,,,,,,,,,,AMP,right,4.30124755972065,,,right,0,4.30124755972065,0,,,,,,,,,,,,,,,,,,,,,,1057,2019_Mar_13_1244,mf_amp_cond1,3.0.4,60.00159720718113,
alar,frocessing,&&&&&&&&&&,None,nonword,,,,,,,0,300,300,300,,,,,,,,,,,,,,,,,,,,,AMP,right,2.7008675734396093,,,right,0,2.7008675734396093,0,,,,,,,,,,,,,,,,,,,,,,1057,2019_Mar_13_1244,mf_amp_cond1,3.0.4,60.00159720718113,
critics,gedious,&&&&&&&,right,loyalty.vice,,,,,,,0,301,301,301,,,,,,,,,,,,,,,,,,,,,AMP,left,0.6170271587034222,,,left,0,0.6170271587034222,0,,,,,,,,,,,,,,,,,,,,,,1057,2019_Mar_13_1244,mf_amp_cond1,3.0.4,60.00159720718113,
increase,infet,&&&&&,left,care.virtue,,,,,,,0,302,302,302,,,,,,,,,,,,,,,,,,,,,AMP,right,0.7670784575166181,,,right,0,0.7670784575166181,0,,,,,,,,,,,,,,,,,,,,,,1057,2019_Mar_13_1244,mf_amp_cond1,3.0.4,60.00159720718113,
fear,neneficence,&&&&&&&&&&&,right,sanctity.vice,,,,,,,0,303,303,303,,,,,,,,,,,,,,,,,,,,,AMP,right,0.18360991493682377,,,right,1,0.18360991493682377,1,,,,,,,,,,,,,,,,,,,,,,1057,2019_Mar_13_1244,mf_amp_cond1,3.0.4,60.00159720718113,
victims,crinking,&&&&&&&&,right,care.vice,,,,,,,0,304,304,304,,,,,,,,,,,,,,,,,,,,,AMP,right,0.60036908191978,,,right,1,0.60036908191978,1,,,,,,,,,,,,,,,,,,,,,,1057,2019_Mar_13_1244,mf_amp_cond1,3.0.4,60.00159720718113,
rebels,edancipation,&&&&&&&&&&&&,right,authority.vice,,,,,,,0,305,305,305,,,,,,,,,,,,,,,,,,,,,AMP,right,0.4670294197567273,,,right,1,0.4670294197567273,1,,,,,,,,,,,,,,,,,,,,,,1057,2019_Mar_13_1244,mf_amp_cond1,3.0.4,60.00159720718113,
love,pumber,&&&&&&,left,loyalty.virtue,,,,,,,0,306,306,306,,,,,,,,,,,,,,,,,,,,,AMP,right,2.1674223309964873,,,right,0,2.1674223309964873,0,,,,,,,,,,,,,,,,,,,,,,1057,2019_Mar_13_1244,mf_amp_cond1,3.0.4,60.00159720718113,
ban,feleological,&&&&&&&&&&&&,right,loyalty.vice,,,,,,,0,307,307,307,,,,,,,,,,,,,,,,,,,,,AMP,right,1.2672017734439578,,,right,1,1.2672017734439578,1,,,,,,,,,,,,,,,,,,,,,,1057,2019_Mar_13_1244,mf_amp_cond1,3.0.4,60.00159720718113,
clean,nonobservalt,&&&&&&&&&&&&,left,sanctity.virtue,,,,,,,0,308,308,308,,,,,,,,,,,,,,,,,,,,,AMP,right,7.6353920950205065,,,right,0,7.6353920950205065,0,,,,,,,,,,,,,,,,,,,,,,1057,2019_Mar_13_1244,mf_amp_cond1,3.0.4,60.00159720718113,
died,focomotive,&&&&&&&&&&,right,care.vice,,,,,,,0,309,309,309,,,,,,,,,,,,,,,,,,,,,AMP,left,0.4503280461067334,,,left,0,0.4503280461067334,0,,,,,,,,,,,,,,,,,,,,,,1057,2019_Mar_13_1244,mf_amp_cond1,3.0.4,60.00159720718113,
arrests,precificity,&&&&&&&&&&&,right,authority.vice,,,,,,,0,310,310,310,,,,,,,,,,,,,,,,,,,,,AMP,left,0.11691570930997841,,,left,0,0.11691570930997841,0,,,,,,,,,,,,,,,,,,,,,,1057,2019_Mar_13_1244,mf_amp_cond1,3.0.4,60.00159720718113,
injured,brudent,&&&&&&&,right,care.vice,,,,,,,0,311,311,311,,,,,,,,,,,,,,,,,,,,,AMP,left,0.9004325519490521,,,left,0,0.9004325519490521,0,,,,,,,,,,,,,,,,,,,,,,1057,2019_Mar_13_1244,mf_amp_cond1,3.0.4,60.00159720718113,
shoirmaster,gaultless,&&&&&&&&&,None,nonword,,,,,,,0,312,312,312,,,,,,,,,,,,,,,,,,,,,AMP,left,0.983839997817995,,,left,0,0.983839997817995,0,,,,,,,,,,,,,,,,,,,,,,1057,2019_Mar_13_1244,mf_amp_cond1,3.0.4,60.00159720718113,
intelligence,totalestic,&&&&&&&&&&,left,loyalty.virtue,,,,,,,0,313,313,313,,,,,,,,,,,,,,,,,,,,,AMP,left,3.984516070690006,,,left,1,3.984516070690006,1,,,,,,,,,,,,,,,,,,,,,,1057,2019_Mar_13_1244,mf_amp_cond1,3.0.4,60.00159720718113,
rejected,troubla,&&&&&&&,right,authority.vice,,,,,,,0,314,314,314,,,,,,,,,,,,,,,,,,,,,AMP,left,2.68420661019627,,,left,0,2.68420661019627,0,,,,,,,,,,,,,,,,,,,,,,1057,2019_Mar_13_1244,mf_amp_cond1,3.0.4,60.00159720718113,
godlaness,coom,&&&&,None,nonword,,,,,,,0,315,315,315,,,,,,,,,,,,,,,,,,,,,AMP,right,0.63367593465955,,,right,0,0.63367593465955,0,,,,,,,,,,,,,,,,,,,,,,1057,2019_Mar_13_1244,mf_amp_cond1,3.0.4,60.00159720718113,
unscothed,reviked,&&&&&&&,None,nonword,,,,,,,0,316,316,316,,,,,,,,,,,,,,,,,,,,,AMP,left,0.15025752026122063,,,left,0,0.15025752026122063,0,,,,,,,,,,,,,,,,,,,,,,1057,2019_Mar_13_1244,mf_amp_cond1,3.0.4,60.00159720718113,
hate,Lacedonia,&&&&&&&&&,right,fairness.vice,,,,,,,0,317,317,317,,,,,,,,,,,,,,,,,,,,,AMP,right,0.01688514489796944,,,right,1,0.01688514489796944,1,,,,,,,,,,,,,,,,,,,,,,1057,2019_Mar_13_1244,mf_amp_cond1,3.0.4,60.00159720718113,
growth,mecan,&&&&&,left,care.virtue,,,,,,,0,318,318,318,,,,,,,,,,,,,,,,,,,,,AMP,left,0.4503501756116748,,,left,1,0.4503501756116748,1,,,,,,,,,,,,,,,,,,,,,,1057,2019_Mar_13_1244,mf_amp_cond1,3.0.4,60.00159720718113,
praise,sliptery,&&&&&&&&,left,authority.virtue,,,,,,,0,319,319,319,,,,,,,,,,,,,,,,,,,,,AMP,right,0.3669703115010634,,,right,0,0.3669703115010634,0,,,,,,,,,,,,,,,,,,,,,,1057,2019_Mar_13_1244,mf_amp_cond1,3.0.4,60.00159720718113,
support,thabbily,&&&&&&&&,left,loyalty.virtue,,,,,,,0,320,320,320,,,,,,,,,,,,,,,,,,,,,AMP,right,0.33363812204333954,,,right,0,0.33363812204333954,0,,,,,,,,,,,,,,,,,,,,,,1057,2019_Mar_13_1244,mf_amp_cond1,3.0.4,60.00159720718113,
shoirmaster,ejanulated,&&&&&&&&&&,None,nonword,,,,,,,0,321,321,321,,,,,,,,,,,,,,,,,,,,,AMP,right,0.983779702859465,,,right,0,0.983779702859465,0,,,,,,,,,,,,,,,,,,,,,,1057,2019_Mar_13_1244,mf_amp_cond1,3.0.4,60.00159720718113,
groups,viscs,&&&&&,right,loyalty.vice,,,,,,,0,322,322,322,,,,,,,,,,,,,,,,,,,,,AMP,right,3.534426638565492,,,right,1,3.534426638565492,1,,,,,,,,,,,,,,,,,,,,,,1057,2019_Mar_13_1244,mf_amp_cond1,3.0.4,60.00159720718113,
unpleasant,framatic,&&&&&&&&,None,control,,,,,,,0,323,323,323,,,,,,,,,,,,,,,,,,,,,AMP,right,2.4008281572314445,,,right,0,2.4008281572314445,0,,,,,,,,,,,,,,,,,,,,,,1057,2019_Mar_13_1244,mf_amp_cond1,3.0.4,60.00159720718113,
encourage,scalbel,&&&&&&&,left,authority.virtue,,,,,,,0,324,324,324,,,,,,,,,,,,,,,,,,,,,AMP,right,0.45033285685349256,,,right,0,0.45033285685349256,0,,,,,,,,,,,,,,,,,,,,,,1057,2019_Mar_13_1244,mf_amp_cond1,3.0.4,60.00159720718113,
illegal,wump,&&&&,right,fairness.vice,,,,,,,0,325,325,325,,,,,,,,,,,,,,,,,,,,,AMP,left,0.48367017778218724,,,left,0,0.48367017778218724,0,,,,,,,,,,,,,,,,,,,,,,1057,2019_Mar_13_1244,mf_amp_cond1,3.0.4,60.00159720718113,
charges,papert,&&&&&&,right,fairness.vice,,,,,,,0,326,326,326,,,,,,,,,,,,,,,,,,,,,AMP,right,0.4003236682910938,,,right,1,0.4003236682910938,1,,,,,,,,,,,,,,,,,,,,,,1057,2019_Mar_13_1244,mf_amp_cond1,3.0.4,60.00159720718113,
interests,hatigue,&&&&&&&,left,fairness.virtue,,,,,,,0,327,327,327,,,,,,,,,,,,,,,,,,,,,AMP,left,0.6670472516561858,,,left,1,0.6670472516561858,1,,,,,,,,,,,,,,,,,,,,,,1057,2019_Mar_13_1244,mf_amp_cond1,3.0.4,60.00159720718113,
,,,,,,,,,,,,,,,,,,,,,,,,,,,,,,,,,,,,,,,,,,,,1,21.79,,,,,,,,,,,,,,,,,,,,1057,2019_Mar_13_1244,mf_amp_cond1,3.0.4,60.00159720718113,
,,,,,,,,,,,,,,,,,,,,,,,,,,,,,,,,,,,,,,,,,,,,,,7,4.22,,,,,,,,,,,,,,,,,,1057,2019_Mar_13_1244,mf_amp_cond1,3.0.4,60.00159720718113,
,,,,,,,,,,,,,,,,,,,,,,,,,,,,,,,,,,,,,,,,,,,,,,,,3,6.353,,,,,,,,,,,,,,,,1057,2019_Mar_13_1244,mf_amp_cond1,3.0.4,60.00159720718113,
,,,,,,,,,,,,,,,,,,,,,,,,,,,,,,,,,,,,,,,,,,,,,,,,,,right,1.7506824070587754,,,,,,,,,,,,,,1057,2019_Mar_13_1244,mf_amp_cond1,3.0.4,60.00159720718113,
bisebell,,&&&&&&&,,,,,,,,,,,,,0,0,0,1,,,,,,,,,,,,,,,,,LDT_prac,left,1.7006555790430866,,,,,,0,,,,,,,,,left,1.7006555790430866,,,,,,,,,,,,1057,2019_Mar_13_1244,mf_amp_cond1,3.0.4,60.00159720718113,
keyboard,,&&&&&&&,,,,,,,,,,,,,0,1,1,0,,,,,,,,,,,,,,,,,LDT_prac,left,1.5172486783994827,,,,,,0,,,,,,,,,left,1.5172486783994827,,,,,,,,,,,,1057,2019_Mar_13_1244,mf_amp_cond1,3.0.4,60.00159720718113,
,,,,,,,,,,,,,,,,,,,,,,,,,,,,,,,,,,,,,,,,,,,,,,,,,,,,,,right,1.4172447335731704,,,,,,,,,,1057,2019_Mar_13_1244,mf_amp_cond1,3.0.4,60.00159720718113,
whither,,&&&&&&&,left,neutral,,,,,,,,,,,,,,,0,0,0,139,,,,,,,,,,,,,LDT,left,1.133872053527739,,,,,,1,,,,,,,,,,,,,left,1,1.133872053527739,,,,,,,1057,2019_Mar_13_1244,mf_amp_cond1,3.0.4,60.00159720718113,
prones,,&&&&&&,right,nonword,,,,,,,,,,,,,,,0,1,1,124,,,,,,,,,,,,,LDT,left,1.600467862939695,,,,,,0,,,,,,,,,,,,,left,0,1.600467862939695,,,,,,,1057,2019_Mar_13_1244,mf_amp_cond1,3.0.4,60.00159720718113,
anyhow,,&&&&&&,left,neutral,,,,,,,,,,,,,,,0,2,2,75,,,,,,,,,,,,,LDT,right,0.8504185526398942,,,,,,0,,,,,,,,,,,,,right,0,0.8504185526398942,,,,,,,1057,2019_Mar_13_1244,mf_amp_cond1,3.0.4,60.00159720718113,
mightingale,,&&&&&&&&&&&,right,nonword,,,,,,,,,,,,,,,0,3,3,73,,,,,,,,,,,,,LDT,left,0.9504462305631023,,,,,,0,,,,,,,,,,,,,left,0,0.9504462305631023,,,,,,,1057,2019_Mar_13_1244,mf_amp_cond1,3.0.4,60.00159720718113,
chreams,,&&&&&&&,right,nonword,,,,,,,,,,,,,,,0,4,4,178,,,,,,,,,,,,,LDT,right,1.1505092836450785,,,,,,1,,,,,,,,,,,,,right,1,1.1505092836450785,,,,,,,1057,2019_Mar_13_1244,mf_amp_cond1,3.0.4,60.00159720718113,
greaks,,&&&&&&,right,nonword,,,,,,,,,,,,,,,0,5,5,155,,,,,,,,,,,,,LDT,right,0.8671006832446437,,,,,,1,,,,,,,,,,,,,right,1,0.8671006832446437,,,,,,,1057,2019_Mar_13_1244,mf_amp_cond1,3.0.4,60.00159720718113,
could,,&&&&&,left,neutral,,,,,,,,,,,,,,,0,6,6,53,,,,,,,,,,,,,LDT,right,0.6670475723803975,,,,,,0,,,,,,,,,,,,,right,0,0.6670475723803975,,,,,,,1057,2019_Mar_13_1244,mf_amp_cond1,3.0.4,60.00159720718113,
lursuer,,&&&&&&&,right,nonword,,,,,,,,,,,,,,,0,7,7,140,,,,,,,,,,,,,LDT,left,0.7670675530680455,,,,,,0,,,,,,,,,,,,,left,0,0.7670675530680455,,,,,,,1057,2019_Mar_13_1244,mf_amp_cond1,3.0.4,60.00159720718113,
sharing,,&&&&&&&,left,loyalty.virtue,,,,,,,,,,,,,,,0,8,8,166,,,,,,,,,,,,,LDT,right,0.8837731922976673,,,,,,0,,,,,,,,,,,,,right,0,0.8837731922976673,,,,,,,1057,2019_Mar_13_1244,mf_amp_cond1,3.0.4,60.00159720718113,
eight,,&&&&&,left,neutral,,,,,,,,,,,,,,,0,9,9,11,,,,,,,,,,,,,LDT,right,0.6170399873808492,,,,,,0,,,,,,,,,,,,,right,0,0.6170399873808492,,,,,,,1057,2019_Mar_13_1244,mf_amp_cond1,3.0.4,60.00159720718113,
peace,,&&&&&,left,care.virtue,,,,,,,,,,,,,,,0,10,10,20,,,,,,,,,,,,,LDT,right,0.7170564402185846,,,,,,0,,,,,,,,,,,,,right,0,0.7170564402185846,,,,,,,1057,2019_Mar_13_1244,mf_amp_cond1,3.0.4,60.00159720718113,
baklara,,&&&&&&&,right,nonword,,,,,,,,,,,,,,,0,11,11,34,,,,,,,,,,,,,LDT,left,0.6170406288292725,,,,,,0,,,,,,,,,,,,,left,0,0.6170406288292725,,,,,,,1057,2019_Mar_13_1244,mf_amp_cond1,3.0.4,60.00159720718113,
honstables,,&&&&&&&&&&,right,nonword,,,,,,,,,,,,,,,0,12,12,89,,,,,,,,,,,,,LDT,right,0.9504520034824964,,,,,,1,,,,,,,,,,,,,right,1,0.9504520034824964,,,,,,,1057,2019_Mar_13_1244,mf_amp_cond1,3.0.4,60.00159720718113,
black,,&&&&&,left,loyalty.vice,,,,,,,,,,,,,,,0,13,13,136,,,,,,,,,,,,,LDT,right,0.5503679112880491,,,,,,0,,,,,,,,,,,,,right,0,0.5503679112880491,,,,,,,1057,2019_Mar_13_1244,mf_amp_cond1,3.0.4,60.00159720718113,
compassion,,&&&&&&&&&&,left,care.virtue,,,,,,,,,,,,,,,0,14,14,154,,,,,,,,,,,,,LDT,right,0.6337015920726117,,,,,,0,,,,,,,,,,,,,right,0,0.6337015920726117,,,,,,,1057,2019_Mar_13_1244,mf_amp_cond1,3.0.4,60.00159720718113,
festate,,&&&&&&&,right,nonword,,,,,,,,,,,,,,,0,15,15,69,,,,,,,,,,,,,LDT,left,0.8170902117853984,,,,,,0,,,,,,,,,,,,,left,0,0.8170902117853984,,,,,,,1057,2019_Mar_13_1244,mf_amp_cond1,3.0.4,60.00159720718113,
toward,,&&&&&&,left,neutral,,,,,,,,,,,,,,,0,16,16,191,,,,,,,,,,,,,LDT,right,0.5837286446185317,,,,,,0,,,,,,,,,,,,,right,0,0.5837286446185317,,,,,,,1057,2019_Mar_13_1244,mf_amp_cond1,3.0.4,60.00159720718113,
Phintoism,,&&&&&&&&&,right,nonword,,,,,,,,,,,,,,,0,17,17,61,,,,,,,,,,,,,LDT,left,0.7504049862618558,,,,,,0,,,,,,,,,,,,,left,0,0.7504049862618558,,,,,,,1057,2019_Mar_13_1244,mf_amp_cond1,3.0.4,60.00159720718113,
emports,,&&&&&&&,right,nonword,,,,,,,,,,,,,,,0,18,18,82,,,,,,,,,,,,,LDT,right,0.5836959314183332,,,,,,1,,,,,,,,,,,,,right,1,0.5836959314183332,,,,,,,1057,2019_Mar_13_1244,mf_amp_cond1,3.0.4,60.00159720718113,
allears,,&&&&&&&,right,nonword,,,,,,,,,,,,,,,0,19,19,97,,,,,,,,,,,,,LDT,left,0.7170599681267049,,,,,,0,,,,,,,,,,,,,left,0,0.7170599681267049,,,,,,,1057,2019_Mar_13_1244,mf_amp_cond1,3.0.4,60.00159720718113,
benefit,,&&&&&&&,left,fairness.virtue,,,,,,,,,,,,,,,0,20,20,6,,,,,,,,,,,,,LDT,right,3.8178166373691056,,,,,,0,,,,,,,,,,,,,right,0,3.8178166373691056,,,,,,,1057,2019_Mar_13_1244,mf_amp_cond1,3.0.4,60.00159720718113,
ability,,&&&&&&&,left,authority.virtue,,,,,,,,,,,,,,,0,21,21,52,,,,,,,,,,,,,LDT,right,0.683724892209284,,,,,,0,,,,,,,,,,,,,right,0,0.683724892209284,,,,,,,1057,2019_Mar_13_1244,mf_amp_cond1,3.0.4,60.00159720718113,
racist,,&&&&&&,left,sanctity.vice,,,,,,,,,,,,,,,0,22,22,88,,,,,,,,,,,,,LDT,right,0.7170660617412068,,,,,,0,,,,,,,,,,,,,right,0,0.7170660617412068,,,,,,,1057,2019_Mar_13_1244,mf_amp_cond1,3.0.4,60.00159720718113,
accused,,&&&&&&&,left,fairness.vice,,,,,,,,,,,,,,,0,23,23,18,,,,,,,,,,,,,LDT,right,0.7168909499014262,,,,,,0,,,,,,,,,,,,,right,0,0.7168909499014262,,,,,,,1057,2019_Mar_13_1244,mf_amp_cond1,3.0.4,60.00159720718113,
elduringly,,&&&&&&&&&&,right,nonword,,,,,,,,,,,,,,,0,24,24,43,,,,,,,,,,,,,LDT,left,0.5003465354675427,,,,,,0,,,,,,,,,,,,,left,0,0.5003465354675427,,,,,,,1057,2019_Mar_13_1244,mf_amp_cond1,3.0.4,60.00159720718113,
fifty,,&&&&&,left,neutral,,,,,,,,,,,,,,,0,25,25,27,,,,,,,,,,,,,LDT,right,0.5836875927634537,,,,,,0,,,,,,,,,,,,,right,0,0.5836875927634537,,,,,,,1057,2019_Mar_13_1244,mf_amp_cond1,3.0.4,60.00159720718113,
protesters,,&&&&&&&&&&,left,authority.vice,,,,,,,,,,,,,,,0,26,26,193,,,,,,,,,,,,,LDT,right,1.0504902651009616,,,,,,0,,,,,,,,,,,,,right,0,1.0504902651009616,,,,,,,1057,2019_Mar_13_1244,mf_amp_cond1,3.0.4,60.00159720718113,
care,,&&&&,left,care.virtue,,,,,,,,,,,,,,,0,27,27,175,,,,,,,,,,,,,LDT,right,0.6503776290337555,,,,,,0,,,,,,,,,,,,,right,0,0.6503776290337555,,,,,,,1057,2019_Mar_13_1244,mf_amp_cond1,3.0.4,60.00159720718113,
gowlands,,&&&&&&&&,right,nonword,,,,,,,,,,,,,,,0,28,28,90,,,,,,,,,,,,,LDT,right,0.6670369887142442,,,,,,1,,,,,,,,,,,,,right,1,0.6670369887142442,,,,,,,1057,2019_Mar_13_1244,mf_amp_cond1,3.0.4,60.00159720718113,
ilportation,,&&&&&&&&&&&,right,nonword,,,,,,,,,,,,,,,0,29,29,104,,,,,,,,,,,,,LDT,left,0.8671067768591456,,,,,,0,,,,,,,,,,,,,left,0,0.8671067768591456,,,,,,,1057,2019_Mar_13_1244,mf_amp_cond1,3.0.4,60.00159720718113,
ammessment,,&&&&&&&&&&,right,nonword,,,,,,,,,,,,,,,0,30,30,129,,,,,,,,,,,,,LDT,right,1.1671696054690983,,,,,,1,,,,,,,,,,,,,right,1,1.1671696054690983,,,,,,,1057,2019_Mar_13_1244,mf_amp_cond1,3.0.4,60.00159720718113,
harassment,,&&&&&&&&&&,left,sanctity.vice,,,,,,,,,,,,,,,0,31,31,102,,,,,,,,,,,,,LDT,right,1.8673222991637886,,,,,,0,,,,,,,,,,,,,right,0,1.8673222991637886,,,,,,,1057,2019_Mar_13_1244,mf_amp_cond1,3.0.4,60.00159720718113,
both,,&&&&,left,neutral,,,,,,,,,,,,,,,0,32,32,2,,,,,,,,,,,,,LDT,right,0.5837036286538932,,,,,,0,,,,,,,,,,,,,right,0,0.5837036286538932,,,,,,,1057,2019_Mar_13_1244,mf_amp_cond1,3.0.4,60.00159720718113,
spag,,&&&&,None,nonword,,,,,,,,,,,,,,,0,33,33,13,,,,,,,,,,,,,LDT,right,0.45033766762935556,,,,,,0,,,,,,,,,,,,,right,0,0.45033766762935556,,,,,,,1057,2019_Mar_13_1244,mf_amp_cond1,3.0.4,60.00159720718113,
menizen,,&&&&&&&,None,nonword,,,,,,,,,,,,,,,0,34,34,105,,,,,,,,,,,,,LDT,left,0.9169979413272813,,,,,,0,,,,,,,,,,,,,left,0,0.9169979413272813,,,,,,,1057,2019_Mar_13_1244,mf_amp_cond1,3.0.4,60.00159720718113,
somehow,,&&&&&&&,left,neutral,,,,,,,,,,,,,,,0,35,35,12,,,,,,,,,,,,,LDT,right,0.9837947766063735,,,,,,0,,,,,,,,,,,,,right,0,0.9837947766063735,,,,,,,1057,2019_Mar_13_1244,mf_amp_cond1,3.0.4,60.00159720718113,
pistraught,,&&&&&&&&&&,right,nonword,,,,,,,,,,,,,,,0,36,36,93,,,,,,,,,,,,,LDT,left,0.7170660617703106,,,,,,0,,,,,,,,,,,,,left,0,0.7170660617703106,,,,,,,1057,2019_Mar_13_1244,mf_amp_cond1,3.0.4,60.00159720718113,
perified,,&&&&&&&&,right,nonword,,,,,,,,,,,,,,,0,37,37,186,,,,,,,,,,,,,LDT,left,0.6670565524837002,,,,,,0,,,,,,,,,,,,,left,0,0.6670565524837002,,,,,,,1057,2019_Mar_13_1244,mf_amp_cond1,3.0.4,60.00159720718113,
refused,,&&&&&&&,left,authority.vice,,,,,,,,,,,,,,,0,38,38,74,,,,,,,,,,,,,LDT,right,0.9004479464201722,,,,,,0,,,,,,,,,,,,,right,0,0.9004479464201722,,,,,,,1057,2019_Mar_13_1244,mf_amp_cond1,3.0.4,60.00159720718113,
faith,,&&&&&,left,sanctity.virtue,,,,,,,,,,,,,,,0,39,39,14,,,,,,,,,,,,,LDT,right,0.5504083217238076,,,,,,0,,,,,,,,,,,,,right,0,0.5504083217238076,,,,,,,1057,2019_Mar_13_1244,mf_amp_cond1,3.0.4,60.00159720718113,
there,,&&&&&,left,neutral,,,,,,,,,,,,,,,0,40,40,25,,,,,,,,,,,,,LDT,right,0.5503762499720324,,,,,,0,,,,,,,,,,,,,right,0,0.5503762499720324,,,,,,,1057,2019_Mar_13_1244,mf_amp_cond1,3.0.4,60.00159720718113,
therefore,,&&&&&&&&&,left,neutral,,,,,,,,,,,,,,,0,41,41,41,,,,,,,,,,,,,LDT,right,0.483677233569324,,,,,,0,,,,,,,,,,,,,right,0,0.483677233569324,,,,,,,1057,2019_Mar_13_1244,mf_amp_cond1,3.0.4,60.00159720718113,
slavery,,&&&&&&&,left,loyalty.vice,,,,,,,,,,,,,,,0,42,42,146,,,,,,,,,,,,,LDT,right,0.4003262340265792,,,,,,0,,,,,,,,,,,,,right,0,0.4003262340265792,,,,,,,1057,2019_Mar_13_1244,mf_amp_cond1,3.0.4,60.00159720718113,
ablow,,&&&&&,right,nonword,,,,,,,,,,,,,,,0,43,43,135,,,,,,,,,,,,,LDT,right,0.6170204236113932,,,,,,1,,,,,,,,,,,,,right,1,0.6170204236113932,,,,,,,1057,2019_Mar_13_1244,mf_amp_cond1,3.0.4,60.00159720718113,
less,,&&&&,left,neutral,,,,,,,,,,,,,,,0,44,44,190,,,,,,,,,,,,,LDT,left,0.783756418764824,,,,,,1,,,,,,,,,,,,,left,1,0.783756418764824,,,,,,,1057,2019_Mar_13_1244,mf_amp_cond1,3.0.4,60.00159720718113,
powerful,,&&&&&&&&,left,authority.virtue,,,,,,,,,,,,,,,0,45,45,123,,,,,,,,,,,,,LDT,right,0.7504168528248556,,,,,,0,,,,,,,,,,,,,right,0,0.7504168528248556,,,,,,,1057,2019_Mar_13_1244,mf_amp_cond1,3.0.4,60.00159720718113,
corruption,,&&&&&&&&&&,left,sanctity.vice,,,,,,,,,,,,,,,0,46,46,99,,,,,,,,,,,,,LDT,left,0.2669615558697842,,,,,,1,,,,,,,,,,,,,left,1,0.2669615558697842,,,,,,,1057,2019_Mar_13_1244,mf_amp_cond1,3.0.4,60.00159720718113,
values,,&&&&&&,left,sanctity.virtue,,,,,,,,,,,,,,,0,47,47,0,,,,,,,,,,,,,LDT,right,0.11692597225192003,,,,,,0,,,,,,,,,,,,,right,0,0.11692597225192003,,,,,,,1057,2019_Mar_13_1244,mf_amp_cond1,3.0.4,60.00159720718113,
Boeinf,,&&&&&&,right,nonword,,,,,,,,,,,,,,,0,48,48,170,,,,,,,,,,,,,LDT,left,1.6172914300695993,,,,,,0,,,,,,,,,,,,,left,0,1.6172914300695993,,,,,,,1057,2019_Mar_13_1244,mf_amp_cond1,3.0.4,60.00159720718113,
Oregoniuns,,&&&&&&&&&&,right,nonword,,,,,,,,,,,,,,,0,49,49,1,,,,,,,,,,,,,LDT,left,0.6670504588400945,,,,,,0,,,,,,,,,,,,,left,0,0.6670504588400945,,,,,,,1057,2019_Mar_13_1244,mf_amp_cond1,3.0.4,60.00159720718113,
also,,&&&&,left,neutral,,,,,,,,,,,,,,,0,50,50,59,,,,,,,,,,,,,LDT,right,0.6171602565445937,,,,,,0,,,,,,,,,,,,,right,0,0.6171602565445937,,,,,,,1057,2019_Mar_13_1244,mf_amp_cond1,3.0.4,60.00159720718113,
tracious,,&&&&&&&&,right,nonword,,,,,,,,,,,,,,,0,51,51,199,,,,,,,,,,,,,LDT,right,0.48367370569030754,,,,,,1,,,,,,,,,,,,,right,1,0.48367370569030754,,,,,,,1057,2019_Mar_13_1244,mf_amp_cond1,3.0.4,60.00159720718113,
Daptist,,&&&&&&&,right,nonword,,,,,,,,,,,,,,,0,52,52,8,,,,,,,,,,,,,LDT,left,0.6837094977672677,,,,,,0,,,,,,,,,,,,,left,0,0.6837094977672677,,,,,,,1057,2019_Mar_13_1244,mf_amp_cond1,3.0.4,60.00159720718113,
oam,,&&&,right,nonword,,,,,,,,,,,,,,,0,53,53,167,,,,,,,,,,,,,LDT,left,0.7337369672604837,,,,,,0,,,,,,,,,,,,,left,0,0.7337369672604837,,,,,,,1057,2019_Mar_13_1244,mf_amp_cond1,3.0.4,60.00159720718113,
amount,,&&&&&&,left,neutral,,,,,,,,,,,,,,,0,54,54,103,,,,,,,,,,,,,LDT,right,2.0007078239577822,,,,,,0,,,,,,,,,,,,,right,0,2.0007078239577822,,,,,,,1057,2019_Mar_13_1244,mf_amp_cond1,3.0.4,60.00159720718113,
hope,,&&&&,left,loyalty.virtue,,,,,,,,,,,,,,,0,55,55,174,,,,,,,,,,,,,LDT,right,0.4670066488033626,,,,,,0,,,,,,,,,,,,,right,0,0.4670066488033626,,,,,,,1057,2019_Mar_13_1244,mf_amp_cond1,3.0.4,60.00159720718113,
praised,,&&&&&&&,left,loyalty.virtue,,,,,,,,,,,,,,,0,56,56,48,,,,,,,,,,,,,LDT,right,0.36696582144941203,,,,,,0,,,,,,,,,,,,,right,0,0.36696582144941203,,,,,,,1057,2019_Mar_13_1244,mf_amp_cond1,3.0.4,60.00159720718113,
letish,,&&&&&&,right,nonword,,,,,,,,,,,,,,,0,57,57,4,,,,,,,,,,,,,LDT,left,0.7504001755150966,,,,,,0,,,,,,,,,,,,,left,0,0.7504001755150966,,,,,,,1057,2019_Mar_13_1244,mf_amp_cond1,3.0.4,60.00159720718113,
hence,,&&&&&,left,neutral,,,,,,,,,,,,,,,0,58,58,188,,,,,,,,,,,,,LDT,right,0.7171257152513135,,,,,,0,,,,,,,,,,,,,right,0,0.7171257152513135,,,,,,,1057,2019_Mar_13_1244,mf_amp_cond1,3.0.4,60.00159720718113,
threatened,,&&&&&&&&&&,left,fairness.vice,,,,,,,,,,,,,,,0,59,59,110,,,,,,,,,,,,,LDT,right,6.401768180774525,,,,,,0,,,,,,,,,,,,,right,0,6.401768180774525,,,,,,,1057,2019_Mar_13_1244,mf_amp_cond1,3.0.4,60.00159720718113,
drumbled,,&&&&&&&&,right,nonword,,,,,,,,,,,,,,,0,60,60,83,,,,,,,,,,,,,LDT,left,0.6837534360820428,,,,,,0,,,,,,,,,,,,,left,0,0.6837534360820428,,,,,,,1057,2019_Mar_13_1244,mf_amp_cond1,3.0.4,60.00159720718113,
pulge,,&&&&&,right,nonword,,,,,,,,,,,,,,,0,61,61,64,,,,,,,,,,,,,LDT,right,0.7337331186281517,,,,,,1,,,,,,,,,,,,,right,1,0.7337331186281517,,,,,,,1057,2019_Mar_13_1244,mf_amp_cond1,3.0.4,60.00159720718113,
itself,,&&&&&&,left,neutral,,,,,,,,,,,,,,,0,62,62,143,,,,,,,,,,,,,LDT,left,0.3836479520541616,,,,,,1,,,,,,,,,,,,,left,1,0.3836479520541616,,,,,,,1057,2019_Mar_13_1244,mf_amp_cond1,3.0.4,60.00159720718113,
tislay,,&&&&&&,right,nonword,,,,,,,,,,,,,,,0,63,63,80,,,,,,,,,,,,,LDT,right,0.5336851392639801,,,,,,1,,,,,,,,,,,,,right,1,0.5336851392639801,,,,,,,1057,2019_Mar_13_1244,mf_amp_cond1,3.0.4,60.00159720718113,
frojecting,,&&&&&&&&&&,right,nonword,,,,,,,,,,,,,,,0,64,64,121,,,,,,,,,,,,,LDT,left,0.050228238716954365,,,,,,0,,,,,,,,,,,,,left,0,0.050228238716954365,,,,,,,1057,2019_Mar_13_1244,mf_amp_cond1,3.0.4,60.00159720718113,
refuejing,,&&&&&&&&&,right,nonword,,,,,,,,,,,,,,,0,65,65,113,,,,,,,,,,,,,LDT,right,0.033565030491445214,,,,,,1,,,,,,,,,,,,,right,1,0.033565030491445214,,,,,,,1057,2019_Mar_13_1244,mf_amp_cond1,3.0.4,60.00159720718113,
brotesque,,&&&&&&&&&,right,nonword,,,,,,,,,,,,,,,0,66,66,107,,,,,,,,,,,,,LDT,left,0.13360553712118417,,,,,,0,,,,,,,,,,,,,left,0,0.13360553712118417,,,,,,,1057,2019_Mar_13_1244,mf_amp_cond1,3.0.4,60.00159720718113,
ecgagement,,&&&&&&&&&&,None,nonword,,,,,,,,,,,,,,,0,67,67,17,,,,,,,,,,,,,LDT,right,7.8519814099418,,,,,,0,,,,,,,,,,,,,right,0,7.8519814099418,,,,,,,1057,2019_Mar_13_1244,mf_amp_cond1,3.0.4,60.00159720718113,
protect,,&&&&&&&,left,fairness.virtue,,,,,,,,,,,,,,,0,68,68,87,,,,,,,,,,,,,LDT,left,0.3336294626642484,,,,,,1,,,,,,,,,,,,,left,1,0.3336294626642484,,,,,,,1057,2019_Mar_13_1244,mf_amp_cond1,3.0.4,60.00159720718113,
metibolic,,&&&&&&&&&,right,nonword,,,,,,,,,,,,,,,0,69,69,108,,,,,,,,,,,,,LDT,right,0.40033200694597326,,,,,,1,,,,,,,,,,,,,right,1,0.40033200694597326,,,,,,,1057,2019_Mar_13_1244,mf_amp_cond1,3.0.4,60.00159720718113,
smapper,,&&&&&&&,right,nonword,,,,,,,,,,,,,,,0,70,70,81,,,,,,,,,,,,,LDT,left,0.15025976530159824,,,,,,0,,,,,,,,,,,,,left,0,0.15025976530159824,,,,,,,1057,2019_Mar_13_1244,mf_amp_cond1,3.0.4,60.00159720718113,
saned,,&&&&&,None,nonword,,,,,,,,,,,,,,,0,71,71,24,,,,,,,,,,,,,LDT,right,0.15025623739347793,,,,,,0,,,,,,,,,,,,,right,0,0.15025623739347793,,,,,,,1057,2019_Mar_13_1244,mf_amp_cond1,3.0.4,60.00159720718113,
gikely,,&&&&&&,right,nonword,,,,,,,,,,,,,,,0,72,72,142,,,,,,,,,,,,,LDT,left,0.10025891539407894,,,,,,0,,,,,,,,,,,,,left,0,0.10025891539407894,,,,,,,1057,2019_Mar_13_1244,mf_amp_cond1,3.0.4,60.00159720718113,
suicide,,&&&&&&&,left,care.vice,,,,,,,,,,,,,,,0,73,73,156,,,,,,,,,,,,,LDT,right,0.06690427570720203,,,,,,0,,,,,,,,,,,,,right,0,0.06690427570720203,,,,,,,1057,2019_Mar_13_1244,mf_amp_cond1,3.0.4,60.00159720718113,
counpy's,,&&&&&&&&,right,nonword,,,,,,,,,,,,,,,0,74,74,179,,,,,,,,,,,,,LDT,left,0.00023701036116108298,,,,,,0,,,,,,,,,,,,,left,0,0.00023701036116108298,,,,,,,1057,2019_Mar_13_1244,mf_amp_cond1,3.0.4,60.00159720718113,
framo,,&&&&&,right,nonword,,,,,,,,,,,,,,,0,75,75,49,,,,,,,,,,,,,LDT,right,0.016892842133529484,,,,,,1,,,,,,,,,,,,,right,1,0.016892842133529484,,,,,,,1057,2019_Mar_13_1244,mf_amp_cond1,3.0.4,60.00159720718113,
either,,&&&&&&,left,neutral,,,,,,,,,,,,,,,0,76,76,185,,,,,,,,,,,,,LDT,right,0.1169121814018581,,,,,,0,,,,,,,,,,,,,right,0,0.1169121814018581,,,,,,,1057,2019_Mar_13_1244,mf_amp_cond1,3.0.4,60.00159720718113,
leact,,&&&&&,right,nonword,,,,,,,,,,,,,,,0,77,77,57,,,,,,,,,,,,,LDT,right,0.08360757367336191,,,,,,1,,,,,,,,,,,,,right,1,0.08360757367336191,,,,,,,1057,2019_Mar_13_1244,mf_amp_cond1,3.0.4,60.00159720718113,
iptervention,,&&&&&&&&&&&&,right,nonword,,,,,,,,,,,,,,,0,78,78,180,,,,,,,,,,,,,LDT,right,0.033552843204233795,,,,,,1,,,,,,,,,,,,,right,1,0.033552843204233795,,,,,,,1057,2019_Mar_13_1244,mf_amp_cond1,3.0.4,60.00159720718113,
terrorists,,&&&&&&&&&&,left,fairness.vice,,,,,,,,,,,,,,,0,79,79,30,,,,,,,,,,,,,LDT,right,0.2002737646107562,,,,,,0,,,,,,,,,,,,,right,0,0.2002737646107562,,,,,,,1057,2019_Mar_13_1244,mf_amp_cond1,3.0.4,60.00159720718113,
serial,,&&&&&&,left,sanctity.vice,,,,,,,,,,,,,,,0,80,80,168,,,,,,,,,,,,,LDT,right,0.23362038636696525,,,,,,0,,,,,,,,,,,,,right,0,0.23362038636696525,,,,,,,1057,2019_Mar_13_1244,mf_amp_cond1,3.0.4,60.00159720718113,
each,,&&&&,left,neutral,,,,,,,,,,,,,,,0,81,81,37,,,,,,,,,,,,,LDT,right,0.1502511058934033,,,,,,0,,,,,,,,,,,,,right,0,0.1502511058934033,,,,,,,1057,2019_Mar_13_1244,mf_amp_cond1,3.0.4,60.00159720718113,
blunderints,,&&&&&&&&&&&,right,nonword,,,,,,,,,,,,,,,0,82,82,63,,,,,,,,,,,,,LDT,right,0.2336040297523141,,,,,,1,,,,,,,,,,,,,right,1,0.2336040297523141,,,,,,,1057,2019_Mar_13_1244,mf_amp_cond1,3.0.4,60.00159720718113,
dormandi,,&&&&&&&&,None,nonword,,,,,,,,,,,,,,,0,83,83,101,,,,,,,,,,,,,LDT,right,0.10023967231973074,,,,,,0,,,,,,,,,,,,,right,0,0.10023967231973074,,,,,,,1057,2019_Mar_13_1244,mf_amp_cond1,3.0.4,60.00159720718113,
squets,,&&&&&&,right,nonword,,,,,,,,,,,,,,,0,84,84,119,,,,,,,,,,,,,LDT,right,0.01689123854157515,,,,,,1,,,,,,,,,,,,,right,1,0.01689123854157515,,,,,,,1057,2019_Mar_13_1244,mf_amp_cond1,3.0.4,60.00159720718113,
latterly,,&&&&&&&&,left,neutral,,,,,,,,,,,,,,,0,85,85,42,,,,,,,,,,,,,LDT,left,0.0002415004128124565,,,,,,1,,,,,,,,,,,,,left,1,0.0002415004128124565,,,,,,,1057,2019_Mar_13_1244,mf_amp_cond1,3.0.4,60.00159720718113,
front,,&&&&&,left,neutral,,,,,,,,,,,,,,,0,86,86,173,,,,,,,,,,,,,LDT,right,0.0669026721152477,,,,,,0,,,,,,,,,,,,,right,0,0.0669026721152477,,,,,,,1057,2019_Mar_13_1244,mf_amp_cond1,3.0.4,60.00159720718113,
fegard,,&&&&&&,right,nonword,,,,,,,,,,,,,,,0,87,87,21,,,,,,,,,,,,,LDT,right,0.13359142557601444,,,,,,1,,,,,,,,,,,,,right,1,0.13359142557601444,,,,,,,1057,2019_Mar_13_1244,mf_amp_cond1,3.0.4,60.00159720718113,
fighters,,&&&&&&&&,left,authority.vice,,,,,,,,,,,,,,,0,88,88,98,,,,,,,,,,,,,LDT,right,0.116932707343949,,,,,,0,,,,,,,,,,,,,right,0,0.116932707343949,,,,,,,1057,2019_Mar_13_1244,mf_amp_cond1,3.0.4,60.00159720718113,
civilians,,&&&&&&&&&,left,care.vice,,,,,,,,,,,,,,,0,89,89,55,,,,,,,,,,,,,LDT,left,0.000238613982219249,,,,,,1,,,,,,,,,,,,,left,1,0.000238613982219249,,,,,,,1057,2019_Mar_13_1244,mf_amp_cond1,3.0.4,60.00159720718113,
lorthwhile,,&&&&&&&&&&,right,nonword,,,,,,,,,,,,,,,0,90,90,70,,,,,,,,,,,,,LDT,right,1.767315788572887,,,,,,1,,,,,,,,,,,,,right,1,1.767315788572887,,,,,,,1057,2019_Mar_13_1244,mf_amp_cond1,3.0.4,60.00159720718113,
noone,,&&&&&,left,neutral,,,,,,,,,,,,,,,0,91,91,22,,,,,,,,,,,,,LDT,right,0.8004234756226651,,,,,,0,,,,,,,,,,,,,right,0,0.8004234756226651,,,,,,,1057,2019_Mar_13_1244,mf_amp_cond1,3.0.4,60.00159720718113,
been,,&&&&,left,neutral,,,,,,,,,,,,,,,0,92,92,152,,,,,,,,,,,,,LDT,right,0.3169713859097101,,,,,,0,,,,,,,,,,,,,right,0,0.3169713859097101,,,,,,,1057,2019_Mar_13_1244,mf_amp_cond1,3.0.4,60.00159720718113,
fontacts,,&&&&&&&&,right,nonword,,,,,,,,,,,,,,,0,93,93,133,,,,,,,,,,,,,LDT,right,0.20027216104790568,,,,,,1,,,,,,,,,,,,,right,1,0.20027216104790568,,,,,,,1057,2019_Mar_13_1244,mf_amp_cond1,3.0.4,60.00159720718113,
useful,,&&&&&&,left,authority.virtue,,,,,,,,,,,,,,,0,94,94,5,,,,,,,,,,,,,LDT,right,0.05024812323972583,,,,,,0,,,,,,,,,,,,,right,0,0.05024812323972583,,,,,,,1057,2019_Mar_13_1244,mf_amp_cond1,3.0.4,60.00159720718113,
ugeasily,,&&&&&&&&,right,nonword,,,,,,,,,,,,,,,0,95,95,177,,,,,,,,,,,,,LDT,right,0.10027976203127764,,,,,,1,,,,,,,,,,,,,right,1,0.10027976203127764,,,,,,,1057,2019_Mar_13_1244,mf_amp_cond1,3.0.4,60.00159720718113,
stindig,,&&&&&&&,right,nonword,,,,,,,,,,,,,,,0,96,96,115,,,,,,,,,,,,,LDT,left,0.08357518119737506,,,,,,0,,,,,,,,,,,,,left,0,0.08357518119737506,,,,,,,1057,2019_Mar_13_1244,mf_amp_cond1,3.0.4,60.00159720718113,
death,,&&&&&,left,care.vice,,,,,,,,,,,,,,,0,97,97,169,,,,,,,,,,,,,LDT,left,0.050248764688149095,,,,,,1,,,,,,,,,,,,,left,1,0.050248764688149095,,,,,,,1057,2019_Mar_13_1244,mf_amp_cond1,3.0.4,60.00159720718113,
sonvoy,,&&&&&&,None,nonword,,,,,,,,,,,,,,,0,98,98,161,,,,,,,,,,,,,LDT,right,0.3836325575830415,,,,,,0,,,,,,,,,,,,,right,0,0.3836325575830415,,,,,,,1057,2019_Mar_13_1244,mf_amp_cond1,3.0.4,60.00159720718113,
give,,&&&&,left,neutral,,,,,,,,,,,,,,,0,99,99,91,,,,,,,,,,,,,LDT,right,0.2669551415310707,,,,,,0,,,,,,,,,,,,,right,0,0.2669551415310707,,,,,,,1057,2019_Mar_13_1244,mf_amp_cond1,3.0.4,60.00159720718113,
suggists,,&&&&&&&&,right,nonword,,,,,,,,,,,,,,,0,100,100,40,,,,,,,,,,,,,LDT,right,0.18362210219493136,,,,,,1,,,,,,,,,,,,,right,1,0.18362210219493136,,,,,,,1057,2019_Mar_13_1244,mf_amp_cond1,3.0.4,60.00159720718113,
chressing,,&&&&&&&&&,None,nonword,,,,,,,,,,,,,,,0,101,101,54,,,,,,,,,,,,,LDT,left,0.0669049171556253,,,,,,0,,,,,,,,,,,,,left,0,0.0669049171556253,,,,,,,1057,2019_Mar_13_1244,mf_amp_cond1,3.0.4,60.00159720718113,
discovars,,&&&&&&&&&,right,nonword,,,,,,,,,,,,,,,0,102,102,182,,,,,,,,,,,,,LDT,left,0.5837074772571214,,,,,,0,,,,,,,,,,,,,left,0,0.5837074772571214,,,,,,,1057,2019_Mar_13_1244,mf_amp_cond1,3.0.4,60.00159720718113,
simplustic,,&&&&&&&&&&,right,nonword,,,,,,,,,,,,,,,0,103,103,71,,,,,,,,,,,,,LDT,right,0.2169591023994144,,,,,,1,,,,,,,,,,,,,right,1,0.2169591023994144,,,,,,,1057,2019_Mar_13_1244,mf_amp_cond1,3.0.4,60.00159720718113,
halaise,,&&&&&&&,None,nonword,,,,,,,,,,,,,,,0,104,104,181,,,,,,,,,,,,,LDT,right,1.7839738653565291,,,,,,0,,,,,,,,,,,,,right,0,1.7839738653565291,,,,,,,1057,2019_Mar_13_1244,mf_amp_cond1,3.0.4,60.00159720718113,
ensure,,&&&&&&,left,fairness.virtue,,,,,,,,,,,,,,,0,105,105,72,,,,,,,,,,,,,LDT,left,0.45033189468085766,,,,,,1,,,,,,,,,,,,,left,1,0.45033189468085766,,,,,,,1057,2019_Mar_13_1244,mf_amp_cond1,3.0.4,60.00159720718113,
amoungst,,&&&&&&&&,left,neutral,,,,,,,,,,,,,,,0,106,106,62,,,,,,,,,,,,,LDT,right,1.050476153526688,,,,,,0,,,,,,,,,,,,,right,0,1.050476153526688,,,,,,,1057,2019_Mar_13_1244,mf_amp_cond1,3.0.4,60.00159720718113,
egpeditious,,&&&&&&&&&&&,right,nonword,,,,,,,,,,,,,,,0,107,107,32,,,,,,,,,,,,,LDT,right,0.26693589848582633,,,,,,1,,,,,,,,,,,,,right,1,0.26693589848582633,,,,,,,1057,2019_Mar_13_1244,mf_amp_cond1,3.0.4,60.00159720718113,
