words,nonwords,mask,corr_ans,category,tweets,topic,AMP_pracloop.thisRepN,AMP_pracloop.thisTrialN,AMP_pracloop.thisN,AMP_pracloop.thisIndex,AMP_trials.thisRepN,AMP_trials.thisTrialN,AMP_trials.thisN,AMP_trials.thisIndex,LDT_pracloop.thisRepN,LDT_pracloop.thisTrialN,LDT_pracloop.thisN,LDT_pracloop.thisIndex,LDT_trials.thisRepN,LDT_trials.thisTrialN,LDT_trials.thisN,LDT_trials.thisIndex,tweet_loop.thisRepN,tweet_loop.thisTrialN,tweet_loop.thisN,tweet_loop.thisIndex,begin_key.keys,begin_key.rt,key_resp_AMP_instr1.keys,key_resp_AMP_instr1.rt,resp_AMP_ready1.keys,resp_AMP_ready1.rt,resp_AMP_prac.keys,resp_AMP_prac.rt,task,keypress,RT,resp_AMP_ready.keys,resp_AMP_ready.rt,resp_AMP.keys,resp_AMP.corr,resp_AMP.rt,corr,AMP_nonword_rating.response,AMP_nonword_rating.rt,AMP_word_rating.response,AMP_word_rating.rt,AMP_random_rating.response,AMP_random_rating.rt,key_resp_LDT_instr.keys,key_resp_LDT_instr.rt,resp_LDT_prac.keys,resp_LDT_prac.rt,resp_LDT_ready.keys,resp_LDT_ready.rt,resp_LDT.keys,resp_LDT.corr,resp_LDT.rt,LDT_rating.response,LDT_rating.rt,key_resp_LDT_instr_2.keys,key_resp_LDT_instr_2.rt,resp_tweets.keys,resp_tweets.rt,participant,date,expName,psychopyVersion,frameRate,
,,,,,,,,,,,,,,,,,,,,,,,,,,,right,1280.1696243527113,,,,,,,,,,,,,,,,,,,,,,,,,,,,,,,,,,,,,1059,2019_Mar_13_1245,mf_amp_cond1,3.0.4,60.03488902773253,
,,,,,,,,,,,,,,,,,,,,,,,,,,,,,right,6.468518379551824,,,,,,,,,,,,,,,,,,,,,,,,,,,,,,,,,,,1059,2019_Mar_13_1245,mf_amp_cond1,3.0.4,60.03488902773253,
,,,,,,,,,,,,,,,,,,,,,,,,,,,,,,,right,2.4841708312160335,,,,,,,,,,,,,,,,,,,,,,,,,,,,,,,,,1059,2019_Mar_13_1245,mf_amp_cond1,3.0.4,60.03488902773253,
banana,kacket,&&&&&&,,,,,0,0,0,1,,,,,,,,,,,,,,,,,,,,,,,right,6.41849108619499,AMP_prac,right,6.41849108619499,,,,,,,,,,,,,,,,,,,,,,,,,,,,1059,2019_Mar_13_1245,mf_amp_cond1,3.0.4,60.03488902773253,
keyboard,senk,&&&&,,,,,0,1,1,2,,,,,,,,,,,,,,,,,,,,,,,left,3.0343010758806486,AMP_prac,left,3.0343010758806486,,,,,,,,,,,,,,,,,,,,,,,,,,,,1059,2019_Mar_13_1245,mf_amp_cond1,3.0.4,60.03488902773253,
scarf,bisebell,&&&&&&&&,,,,,0,2,2,3,,,,,,,,,,,,,,,,,,,,,,,left,1.267204579373356,AMP_prac,left,1.267204579373356,,,,,,,,,,,,,,,,,,,,,,,,,,,,1059,2019_Mar_13_1245,mf_amp_cond1,3.0.4,60.03488902773253,
car,cemtuper,&&&&&&&&,,,,,0,3,3,0,,,,,,,,,,,,,,,,,,,,,,,right,3.134350851731142,AMP_prac,right,3.134350851731142,,,,,,,,,,,,,,,,,,,,,,,,,,,,1059,2019_Mar_13_1245,mf_amp_cond1,3.0.4,60.03488902773253,
,,,,,,,,,,,,,,,,,,,,,,,,,,,,,,,,,,,,,,right,0.9336563631950412,,,,,,,,,,,,,,,,,,,,,,,,,,1059,2019_Mar_13_1245,mf_amp_cond1,3.0.4,60.03488902773253,
ability,emassion,&&&&&&&&,left,authority.virtue,,,,,,,0,0,0,0,,,,,,,,,,,,,,,,,,,,,AMP,right,1.5839457494439557,,,right,0,1.5839457494439557,0,,,,,,,,,,,,,,,,,,,,,,1059,2019_Mar_13_1245,mf_amp_cond1,3.0.4,60.03488902773253,
fear,wonderfujnoss,&&&&&&&&&&&&&,right,sanctity.vice,,,,,,,0,1,1,1,,,,,,,,,,,,,,,,,,,,,AMP,right,1.8006714608054608,,,right,1,1.8006714608054608,1,,,,,,,,,,,,,,,,,,,,,,1059,2019_Mar_13_1245,mf_amp_cond1,3.0.4,60.03488902773253,
coom,brudent,&&&&&&&,None,nonword,,,,,,,0,2,2,2,,,,,,,,,,,,,,,,,,,,,AMP,left,1.5672679537674412,,,left,0,1.5672679537674412,0,,,,,,,,,,,,,,,,,,,,,,1059,2019_Mar_13_1245,mf_amp_cond1,3.0.4,60.03488902773253,
compassion,gationwide,&&&&&&&&&&,left,care.virtue,,,,,,,0,3,3,3,,,,,,,,,,,,,,,,,,,,,AMP,left,2.3674756525142584,,,left,1,2.3674756525142584,1,,,,,,,,,,,,,,,,,,,,,,1059,2019_Mar_13_1245,mf_amp_cond1,3.0.4,60.03488902773253,
charges,bruthfulness,&&&&&&&&&&&&,right,fairness.vice,,,,,,,0,4,4,4,,,,,,,,,,,,,,,,,,,,,AMP,left,1.0671290817554109,,,left,0,1.0671290817554109,0,,,,,,,,,,,,,,,,,,,,,,1059,2019_Mar_13_1245,mf_amp_cond1,3.0.4,60.03488902773253,
fraud,honstables,&&&&&&&&&&,right,fairness.vice,,,,,,,0,5,5,5,,,,,,,,,,,,,,,,,,,,,AMP,right,1.1671907242271118,,,right,1,1.1671907242271118,1,,,,,,,,,,,,,,,,,,,,,,1059,2019_Mar_13_1245,mf_amp_cond1,3.0.4,60.03488902773253,
hate,framo,&&&&&,right,fairness.vice,,,,,,,0,6,6,6,,,,,,,,,,,,,,,,,,,,,AMP,left,2.5008425331907347,,,left,0,2.5008425331907347,0,,,,,,,,,,,,,,,,,,,,,,1059,2019_Mar_13_1245,mf_amp_cond1,3.0.4,60.03488902773253,
gusinesslike,alar,&&&&,None,nonword,,,,,,,0,7,7,7,,,,,,,,,,,,,,,,,,,,,AMP,left,0.9671344698290341,,,left,0,0.9671344698290341,0,,,,,,,,,,,,,,,,,,,,,,1059,2019_Mar_13_1245,mf_amp_cond1,3.0.4,60.03488902773253,
health,hatigue,&&&&&&&,left,care.virtue,,,,,,,0,8,8,8,,,,,,,,,,,,,,,,,,,,,AMP,left,1.2672010514652357,,,left,1,1.2672010514652357,1,,,,,,,,,,,,,,,,,,,,,,1059,2019_Mar_13_1245,mf_amp_cond1,3.0.4,60.03488902773253,
peaceful,hasks,&&&&&,left,authority.virtue,,,,,,,0,9,9,9,,,,,,,,,,,,,,,,,,,,,AMP,left,1.0671406276524067,,,left,1,1.0671406276524067,1,,,,,,,,,,,,,,,,,,,,,,1059,2019_Mar_13_1245,mf_amp_cond1,3.0.4,60.03488902773253,
prosecution,unscothed,&&&&&&&&&,right,authority.vice,,,,,,,0,10,10,10,,,,,,,,,,,,,,,,,,,,,AMP,left,0.9838042474875692,,,left,0,0.9838042474875692,0,,,,,,,,,,,,,,,,,,,,,,1059,2019_Mar_13_1245,mf_amp_cond1,3.0.4,60.03488902773253,
victim,gournful,&&&&&&&&,right,care.vice,,,,,,,0,11,11,11,,,,,,,,,,,,,,,,,,,,,AMP,left,0.8171016600972507,,,left,0,0.8171016600972507,0,,,,,,,,,,,,,,,,,,,,,,1059,2019_Mar_13_1245,mf_amp_cond1,3.0.4,60.03488902773253,
protesters,vurtain,&&&&&&&,right,authority.vice,,,,,,,0,12,12,12,,,,,,,,,,,,,,,,,,,,,AMP,left,2.4175122466986068,,,left,0,2.4175122466986068,0,,,,,,,,,,,,,,,,,,,,,,1059,2019_Mar_13_1245,mf_amp_cond1,3.0.4,60.03488902773253,
unreflectuve,chreams,&&&&&&&,None,nonword,,,,,,,0,13,13,13,,,,,,,,,,,,,,,,,,,,,AMP,left,1.4839351015398279,,,left,0,1.4839351015398279,0,,,,,,,,,,,,,,,,,,,,,,1059,2019_Mar_13_1245,mf_amp_cond1,3.0.4,60.03488902773253,
terrorist,allears,&&&&&&&,right,loyalty.vice,,,,,,,0,14,14,14,,,,,,,,,,,,,,,,,,,,,AMP,left,0.7004019912856165,,,left,0,0.7004019912856165,0,,,,,,,,,,,,,,,,,,,,,,1059,2019_Mar_13_1245,mf_amp_cond1,3.0.4,60.03488902773253,
penalty,Oregoniuns,&&&&&&&&&&,right,authority.vice,,,,,,,0,15,15,15,,,,,,,,,,,,,,,,,,,,,AMP,left,2.9343103126448113,,,left,0,2.9343103126448113,0,,,,,,,,,,,,,,,,,,,,,,1059,2019_Mar_13_1245,mf_amp_cond1,3.0.4,60.03488902773253,
scandal,Daptist,&&&&&&&,right,sanctity.vice,,,,,,,0,16,16,16,,,,,,,,,,,,,,,,,,,,,AMP,left,1.283902259747265,,,left,0,1.283902259747265,0,,,,,,,,,,,,,,,,,,,,,,1059,2019_Mar_13_1245,mf_amp_cond1,3.0.4,60.03488902773253,
sharing,brotesque,&&&&&&&&&,left,loyalty.virtue,,,,,,,0,17,17,17,,,,,,,,,,,,,,,,,,,,,AMP,right,0.5503669365425594,,,right,0,0.5503669365425594,0,,,,,,,,,,,,,,,,,,,,,,1059,2019_Mar_13_1245,mf_amp_cond1,3.0.4,60.03488902773253,
protect,pumber,&&&&&&,left,fairness.virtue,,,,,,,0,18,18,18,,,,,,,,,,,,,,,,,,,,,AMP,right,0.783746710192645,,,right,0,0.783746710192645,0,,,,,,,,,,,,,,,,,,,,,,1059,2019_Mar_13_1245,mf_amp_cond1,3.0.4,60.03488902773253,
great,uller,&&&&&,left,loyalty.virtue,,,,,,,0,19,19,19,,,,,,,,,,,,,,,,,,,,,AMP,right,1.3005560013698414,,,right,0,1.3005560013698414,0,,,,,,,,,,,,,,,,,,,,,,1059,2019_Mar_13_1245,mf_amp_cond1,3.0.4,60.03488902773253,
groups,dumid,&&&&&,right,loyalty.vice,,,,,,,0,20,20,20,,,,,,,,,,,,,,,,,,,,,AMP,left,1.4672342139820103,,,left,0,1.4672342139820103,0,,,,,,,,,,,,,,,,,,,,,,1059,2019_Mar_13_1245,mf_amp_cond1,3.0.4,60.03488902773253,
pleasant,hefurbished,&&&&&&&&&&&,None,control,,,,,,,0,21,21,21,,,,,,,,,,,,,,,,,,,,,AMP,left,0.767078536155168,,,left,0,0.767078536155168,0,,,,,,,,,,,,,,,,,,,,,,1059,2019_Mar_13_1245,mf_amp_cond1,3.0.4,60.03488902773253,
arrests,reprisols,&&&&&&&&&,right,authority.vice,,,,,,,0,22,22,22,,,,,,,,,,,,,,,,,,,,,AMP,left,1.233871117758099,,,left,0,1.233871117758099,0,,,,,,,,,,,,,,,,,,,,,,1059,2019_Mar_13_1245,mf_amp_cond1,3.0.4,60.03488902773253,
crime,fostet,&&&&&&,right,fairness.vice,,,,,,,0,23,23,23,,,,,,,,,,,,,,,,,,,,,AMP,left,1.433914222609019,,,left,0,1.433914222609019,0,,,,,,,,,,,,,,,,,,,,,,1059,2019_Mar_13_1245,mf_amp_cond1,3.0.4,60.03488902773253,
hand,rivernoat,&&&&&&&&&,left,sanctity.virtue,,,,,,,0,24,24,24,,,,,,,,,,,,,,,,,,,,,AMP,left,1.0171287289413158,,,left,1,1.0171287289413158,1,,,,,,,,,,,,,,,,,,,,,,1059,2019_Mar_13_1245,mf_amp_cond1,3.0.4,60.03488902773253,
killed,precificity,&&&&&&&&&&&,right,care.vice,,,,,,,0,25,25,25,,,,,,,,,,,,,,,,,,,,,AMP,left,0.4170141675276682,,,left,0,0.4170141675276682,0,,,,,,,,,,,,,,,,,,,,,,1059,2019_Mar_13_1245,mf_amp_cond1,3.0.4,60.03488902773253,
win,chared,&&&&&&,left,fairness.virtue,,,,,,,0,26,26,26,,,,,,,,,,,,,,,,,,,,,AMP,right,0.48367050697561353,,,right,0,0.48367050697561353,0,,,,,,,,,,,,,,,,,,,,,,1059,2019_Mar_13_1245,mf_amp_cond1,3.0.4,60.03488902773253,
strength,gazily,&&&&&&,left,sanctity.virtue,,,,,,,0,27,27,27,,,,,,,,,,,,,,,,,,,,,AMP,right,0.2836152147210669,,,right,0,0.2836152147210669,0,,,,,,,,,,,,,,,,,,,,,,1059,2019_Mar_13_1245,mf_amp_cond1,3.0.4,60.03488902773253,
fair,sonvoy,&&&&&&,left,fairness.virtue,,,,,,,0,28,28,28,,,,,,,,,,,,,,,,,,,,,AMP,right,0.9671370356227271,,,right,0,0.9671370356227271,0,,,,,,,,,,,,,,,,,,,,,,1059,2019_Mar_13_1245,mf_amp_cond1,3.0.4,60.03488902773253,
loyalty,grovelire,&&&&&&&&&,left,loyalty.virtue,,,,,,,0,29,29,29,,,,,,,,,,,,,,,,,,,,,AMP,right,0.5170257776044309,,,right,0,0.5170257776044309,0,,,,,,,,,,,,,,,,,,,,,,1059,2019_Mar_13_1245,mf_amp_cond1,3.0.4,60.03488902773253,
injured,Boeinf,&&&&&&,right,care.vice,,,,,,,0,30,30,30,,,,,,,,,,,,,,,,,,,,,AMP,right,0.9504467318183742,,,right,1,0.9504467318183742,1,,,,,,,,,,,,,,,,,,,,,,1059,2019_Mar_13_1245,mf_amp_cond1,3.0.4,60.03488902773253,
illegal,gedious,&&&&&&&,right,fairness.vice,,,,,,,0,31,31,31,,,,,,,,,,,,,,,,,,,,,AMP,left,1.4672470427758526,,,left,0,1.4672470427758526,0,,,,,,,,,,,,,,,,,,,,,,1059,2019_Mar_13_1245,mf_amp_cond1,3.0.4,60.03488902773253,
victims,sickyay,&&&&&&&,right,care.vice,,,,,,,0,32,32,32,,,,,,,,,,,,,,,,,,,,,AMP,right,0.6003756280406378,,,right,1,0.6003756280406378,1,,,,,,,,,,,,,,,,,,,,,,1059,2019_Mar_13_1245,mf_amp_cond1,3.0.4,60.03488902773253,
actively,papert,&&&&&&,left,authority.virtue,,,,,,,0,33,33,33,,,,,,,,,,,,,,,,,,,,,AMP,right,1.8173559916031081,,,right,0,1.8173559916031081,0,,,,,,,,,,,,,,,,,,,,,,1059,2019_Mar_13_1245,mf_amp_cond1,3.0.4,60.03488902773253,
harassment,ebbitter,&&&&&&&&,right,sanctity.vice,,,,,,,0,34,34,34,,,,,,,,,,,,,,,,,,,,,AMP,left,1.2672000892926008,,,left,0,1.2672000892926008,0,,,,,,,,,,,,,,,,,,,,,,1059,2019_Mar_13_1245,mf_amp_cond1,3.0.4,60.03488902773253,
slavery,ecgagement,&&&&&&&&&&,right,loyalty.vice,,,,,,,0,35,35,35,,,,,,,,,,,,,,,,,,,,,AMP,left,1.1171756183030084,,,left,0,1.1171756183030084,0,,,,,,,,,,,,,,,,,,,,,,1059,2019_Mar_13_1245,mf_amp_cond1,3.0.4,60.03488902773253,
values,iptervention,&&&&&&&&&&&&,left,sanctity.virtue,,,,,,,0,36,36,36,,,,,,,,,,,,,,,,,,,,,AMP,right,0.8671600633533671,,,right,0,0.8671600633533671,0,,,,,,,,,,,,,,,,,,,,,,1059,2019_Mar_13_1245,mf_amp_cond1,3.0.4,60.03488902773253,
promised,frojecting,&&&&&&&&&&,left,loyalty.virtue,,,,,,,0,37,37,37,,,,,,,,,,,,,,,,,,,,,AMP,left,1.4172736305336002,,,left,1,1.4172736305336002,1,,,,,,,,,,,,,,,,,,,,,,1059,2019_Mar_13_1245,mf_amp_cond1,3.0.4,60.03488902773253,
good,shoirmaster,&&&&&&&&&&&,left,care.virtue,,,,,,,0,38,38,38,,,,,,,,,,,,,,,,,,,,,AMP,right,1.2338521952333394,,,right,0,1.2338521952333394,0,,,,,,,,,,,,,,,,,,,,,,1059,2019_Mar_13_1245,mf_amp_cond1,3.0.4,60.03488902773253,
commitment,crilfully,&&&&&&&&&,left,sanctity.virtue,,,,,,,0,39,39,39,,,,,,,,,,,,,,,,,,,,,AMP,left,1.3172309105284512,,,left,1,1.3172309105284512,1,,,,,,,,,,,,,,,,,,,,,,1059,2019_Mar_13_1245,mf_amp_cond1,3.0.4,60.03488902773253,
improve,reelectiob,&&&&&&&&&&,left,care.virtue,,,,,,,0,40,40,40,,,,,,,,,,,,,,,,,,,,,AMP,left,1.4672746247670148,,,left,1,1.4672746247670148,1,,,,,,,,,,,,,,,,,,,,,,1059,2019_Mar_13_1245,mf_amp_cond1,3.0.4,60.03488902773253,
blamed,disregord,&&&&&&&&&,right,loyalty.vice,,,,,,,0,41,41,41,,,,,,,,,,,,,,,,,,,,,AMP,left,0.9671277347079013,,,left,0,0.9671277347079013,0,,,,,,,,,,,,,,,,,,,,,,1059,2019_Mar_13_1245,mf_amp_cond1,3.0.4,60.03488902773253,
agreement,egpeditious,&&&&&&&&&&&,left,fairness.virtue,,,,,,,0,42,42,42,,,,,,,,,,,,,,,,,,,,,AMP,right,1.3338865764962975,,,right,0,1.3338865764962975,0,,,,,,,,,,,,,,,,,,,,,,1059,2019_Mar_13_1245,mf_amp_cond1,3.0.4,60.03488902773253,
forced,dormandi,&&&&&&&&,right,fairness.vice,,,,,,,0,43,43,43,,,,,,,,,,,,,,,,,,,,,AMP,right,0.8504360838851426,,,right,1,0.8504360838851426,1,,,,,,,,,,,,,,,,,,,,,,1059,2019_Mar_13_1245,mf_amp_cond1,3.0.4,60.03488902773253,
civilians,openet,&&&&&&,right,care.vice,,,,,,,0,44,44,44,,,,,,,,,,,,,,,,,,,,,AMP,right,0.8671215768554248,,,right,1,0.8671215768554248,1,,,,,,,,,,,,,,,,,,,,,,1059,2019_Mar_13_1245,mf_amp_cond1,3.0.4,60.03488902773253,
safety,lorthwhile,&&&&&&&&&&,left,care.virtue,,,,,,,0,45,45,45,,,,,,,,,,,,,,,,,,,,,AMP,left,0.7337393015623093,,,left,1,0.7337393015623093,1,,,,,,,,,,,,,,,,,,,,,,1059,2019_Mar_13_1245,mf_amp_cond1,3.0.4,60.03488902773253,
army,aubos,&&&&&,right,loyalty.vice,,,,,,,0,46,46,46,,,,,,,,,,,,,,,,,,,,,AMP,left,0.8504306316317525,,,left,0,0.8504306316317525,0,,,,,,,,,,,,,,,,,,,,,,1059,2019_Mar_13_1245,mf_amp_cond1,3.0.4,60.03488902773253,
trust,photocalkodes,&&&&&&&&&&&&&,left,authority.virtue,,,,,,,0,47,47,47,,,,,,,,,,,,,,,,,,,,,AMP,left,0.46699976714444347,,,left,1,0.46699976714444347,1,,,,,,,,,,,,,,,,,,,,,,1059,2019_Mar_13_1245,mf_amp_cond1,3.0.4,60.03488902773253,
tracious,sidearbs,&&&&&&&&,None,nonword,,,,,,,0,48,48,48,,,,,,,,,,,,,,,,,,,,,AMP,left,0.533679839951219,,,left,0,0.533679839951219,0,,,,,,,,,,,,,,,,,,,,,,1059,2019_Mar_13_1245,mf_amp_cond1,3.0.4,60.03488902773253,
care,neneficence,&&&&&&&&&&&,left,care.virtue,,,,,,,0,49,49,49,,,,,,,,,,,,,,,,,,,,,AMP,left,0.5336910651822109,,,left,1,0.5336910651822109,1,,,,,,,,,,,,,,,,,,,,,,1059,2019_Mar_13_1245,mf_amp_cond1,3.0.4,60.03488902773253,
failure,mightingale,&&&&&&&&&&&,right,loyalty.vice,,,,,,,0,50,50,50,,,,,,,,,,,,,,,,,,,,,AMP,left,0.9004768474842422,,,left,0,0.9004768474842422,0,,,,,,,,,,,,,,,,,,,,,,1059,2019_Mar_13_1245,mf_amp_cond1,3.0.4,60.03488902773253,
useful,stindig,&&&&&&&,left,authority.virtue,,,,,,,0,51,51,51,,,,,,,,,,,,,,,,,,,,,AMP,right,1.1836985379632097,,,right,0,1.1836985379632097,0,,,,,,,,,,,,,,,,,,,,,,1059,2019_Mar_13_1245,mf_amp_cond1,3.0.4,60.03488902773253,
lempestuous,ablow,&&&&&,None,nonword,,,,,,,0,52,52,52,,,,,,,,,,,,,,,,,,,,,AMP,left,0.683688916353276,,,left,0,0.683688916353276,0,,,,,,,,,,,,,,,,,,,,,,1059,2019_Mar_13_1245,mf_amp_cond1,3.0.4,60.03488902773253,
racist,forepo,&&&&&&,right,sanctity.vice,,,,,,,0,53,53,53,,,,,,,,,,,,,,,,,,,,,AMP,left,1.133836736495141,,,left,0,1.133836736495141,0,,,,,,,,,,,,,,,,,,,,,,1059,2019_Mar_13_1245,mf_amp_cond1,3.0.4,60.03488902773253,
hope,erks,&&&&,left,loyalty.virtue,,,,,,,0,54,54,54,,,,,,,,,,,,,,,,,,,,,AMP,left,1.1338322464143857,,,left,1,1.1338322464143857,1,,,,,,,,,,,,,,,,,,,,,,1059,2019_Mar_13_1245,mf_amp_cond1,3.0.4,60.03488902773253,
promote,ilportation,&&&&&&&&&&&,left,sanctity.virtue,,,,,,,0,55,55,55,,,,,,,,,,,,,,,,,,,,,AMP,left,1.0004656864330173,,,left,1,1.0004656864330173,1,,,,,,,,,,,,,,,,,,,,,,1059,2019_Mar_13_1245,mf_amp_cond1,3.0.4,60.03488902773253,
death,slending,&&&&&&&&,right,care.vice,,,,,,,0,56,56,56,,,,,,,,,,,,,,,,,,,,,AMP,left,1.1671881584625226,,,left,0,1.1671881584625226,0,,,,,,,,,,,,,,,,,,,,,,1059,2019_Mar_13_1245,mf_amp_cond1,3.0.4,60.03488902773253,
gandbrake,fegard,&&&&&&,None,nonword,,,,,,,0,57,57,57,,,,,,,,,,,,,,,,,,,,,AMP,left,0.7003942939918488,,,left,0,0.7003942939918488,0,,,,,,,,,,,,,,,,,,,,,,1059,2019_Mar_13_1245,mf_amp_cond1,3.0.4,60.03488902773253,
attacks,crinking,&&&&&&&&,right,care.vice,,,,,,,0,58,58,58,,,,,,,,,,,,,,,,,,,,,AMP,left,0.73373673579772,,,left,0,0.73373673579772,0,,,,,,,,,,,,,,,,,,,,,,1059,2019_Mar_13_1245,mf_amp_cond1,3.0.4,60.03488902773253,
respect,ning,&&&&,left,sanctity.virtue,,,,,,,0,59,59,59,,,,,,,,,,,,,,,,,,,,,AMP,left,0.6837277235463262,,,left,1,0.6837277235463262,1,,,,,,,,,,,,,,,,,,,,,,1059,2019_Mar_13_1245,mf_amp_cond1,3.0.4,60.03488902773253,
ban,troubla,&&&&&&&,right,loyalty.vice,,,,,,,0,60,60,60,,,,,,,,,,,,,,,,,,,,,AMP,left,2.017394285678165,,,left,0,2.017394285678165,0,,,,,,,,,,,,,,,,,,,,,,1059,2019_Mar_13_1245,mf_amp_cond1,3.0.4,60.03488902773253,
clean,mecan,&&&&&,left,sanctity.virtue,,,,,,,0,61,61,61,,,,,,,,,,,,,,,,,,,,,AMP,left,0.967142808571225,,,left,1,0.967142808571225,1,,,,,,,,,,,,,,,,,,,,,,1059,2019_Mar_13_1245,mf_amp_cond1,3.0.4,60.03488902773253,
unpleasant,greaks,&&&&&&,None,control,,,,,,,0,62,62,62,,,,,,,,,,,,,,,,,,,,,AMP,left,0.6337228806514759,,,left,0,0.6337228806514759,0,,,,,,,,,,,,,,,,,,,,,,1059,2019_Mar_13_1245,mf_amp_cond1,3.0.4,60.03488902773253,
officers,chonograph,&&&&&&&&&&,right,authority.vice,,,,,,,0,63,63,63,,,,,,,,,,,,,,,,,,,,,AMP,left,0.8671042579517234,,,left,0,0.8671042579517234,0,,,,,,,,,,,,,,,,,,,,,,1059,2019_Mar_13_1245,mf_amp_cond1,3.0.4,60.03488902773253,
praise,vicissifude,&&&&&&&&&&&,left,authority.virtue,,,,,,,0,64,64,64,,,,,,,,,,,,,,,,,,,,,AMP,left,0.5170286640932318,,,left,1,0.5170286640932318,1,,,,,,,,,,,,,,,,,,,,,,1059,2019_Mar_13_1245,mf_amp_cond1,3.0.4,60.03488902773253,
conspiracy,lenon,&&&&&,right,sanctity.vice,,,,,,,0,65,65,65,,,,,,,,,,,,,,,,,,,,,AMP,left,1.1171666381123941,,,left,0,1.1171666381123941,0,,,,,,,,,,,,,,,,,,,,,,1059,2019_Mar_13_1245,mf_amp_cond1,3.0.4,60.03488902773253,
embrace,suggists,&&&&&&&&,left,authority.virtue,,,,,,,0,66,66,66,,,,,,,,,,,,,,,,,,,,,AMP,left,0.7504520557704382,,,left,1,0.7504520557704382,1,,,,,,,,,,,,,,,,,,,,,,1059,2019_Mar_13_1245,mf_amp_cond1,3.0.4,60.03488902773253,
promises,festate,&&&&&&&,left,fairness.virtue,,,,,,,0,67,67,67,,,,,,,,,,,,,,,,,,,,,AMP,left,0.7004270075121894,,,left,1,0.7004270075121894,1,,,,,,,,,,,,,,,,,,,,,,1059,2019_Mar_13_1245,mf_amp_cond1,3.0.4,60.03488902773253,
refused,nonobservalt,&&&&&&&&&&&&,right,authority.vice,,,,,,,0,68,68,68,,,,,,,,,,,,,,,,,,,,,AMP,left,1.1338155689591076,,,left,0,1.1338155689591076,0,,,,,,,,,,,,,,,,,,,,,,1059,2019_Mar_13_1245,mf_amp_cond1,3.0.4,60.03488902773253,
riot,lachelor,&&&&&&&&,right,authority.vice,,,,,,,0,69,69,69,,,,,,,,,,,,,,,,,,,,,AMP,left,1.050468604953494,,,left,0,1.050468604953494,0,,,,,,,,,,,,,,,,,,,,,,1059,2019_Mar_13_1245,mf_amp_cond1,3.0.4,60.03488902773253,
carvels,juck,&&&&,None,nonword,,,,,,,0,70,70,70,,,,,,,,,,,,,,,,,,,,,AMP,left,0.8504283865913749,,,left,0,0.8504283865913749,0,,,,,,,,,,,,,,,,,,,,,,1059,2019_Mar_13_1245,mf_amp_cond1,3.0.4,60.03488902773253,
violations,touls,&&&&&,right,sanctity.vice,,,,,,,0,71,71,71,,,,,,,,,,,,,,,,,,,,,AMP,left,0.8504415361385327,,,left,0,0.8504415361385327,0,,,,,,,,,,,,,,,,,,,,,,1059,2019_Mar_13_1245,mf_amp_cond1,3.0.4,60.03488902773253,
accused,gowlands,&&&&&&&&,right,fairness.vice,,,,,,,0,72,72,72,,,,,,,,,,,,,,,,,,,,,AMP,right,1.3505518640740775,,,right,1,1.3505518640740775,1,,,,,,,,,,,,,,,,,,,,,,1059,2019_Mar_13_1245,mf_amp_cond1,3.0.4,60.03488902773253,
praised,saned,&&&&&,left,loyalty.virtue,,,,,,,0,73,73,73,,,,,,,,,,,,,,,,,,,,,AMP,right,1.8340161476517096,,,right,0,1.8340161476517096,0,,,,,,,,,,,,,,,,,,,,,,1059,2019_Mar_13_1245,mf_amp_cond1,3.0.4,60.03488902773253,
Phintoism,divility,&&&&&&&&,None,nonword,,,,,,,0,74,74,74,,,,,,,,,,,,,,,,,,,,,AMP,right,1.1171711282222532,,,right,0,1.1171711282222532,0,,,,,,,,,,,,,,,,,,,,,,1059,2019_Mar_13_1245,mf_amp_cond1,3.0.4,60.03488902773253,
ensure,clattening,&&&&&&&&&&,left,fairness.virtue,,,,,,,0,75,75,75,,,,,,,,,,,,,,,,,,,,,AMP,right,0.8171055087586865,,,right,0,0.8171055087586865,0,,,,,,,,,,,,,,,,,,,,,,1059,2019_Mar_13_1245,mf_amp_cond1,3.0.4,60.03488902773253,
friends,faspberry,&&&&&&&&&,left,loyalty.virtue,,,,,,,0,76,76,76,,,,,,,,,,,,,,,,,,,,,AMP,right,0.5170382857322693,,,right,0,0.5170382857322693,0,,,,,,,,,,,,,,,,,,,,,,1059,2019_Mar_13_1245,mf_amp_cond1,3.0.4,60.03488902773253,
restore,scalbel,&&&&&&&,left,care.virtue,,,,,,,0,77,77,77,,,,,,,,,,,,,,,,,,,,,AMP,right,1.4172242395579815,,,right,0,1.4172242395579815,0,,,,,,,,,,,,,,,,,,,,,,1059,2019_Mar_13_1245,mf_amp_cond1,3.0.4,60.03488902773253,
serial,clamorek,&&&&&&&&,right,sanctity.vice,,,,,,,0,78,78,78,,,,,,,,,,,,,,,,,,,,,AMP,right,0.7337527718045749,,,right,1,0.7337527718045749,1,,,,,,,,,,,,,,,,,,,,,,1059,2019_Mar_13_1245,mf_amp_cond1,3.0.4,60.03488902773253,
glacenta,simplustic,&&&&&&&&&&,None,nonword,,,,,,,0,79,79,79,,,,,,,,,,,,,,,,,,,,,AMP,right,0.6337155040819198,,,right,0,0.6337155040819198,0,,,,,,,,,,,,,,,,,,,,,,1059,2019_Mar_13_1245,mf_amp_cond1,3.0.4,60.03488902773253,
interests,drumbled,&&&&&&&&,left,fairness.virtue,,,,,,,0,80,80,80,,,,,,,,,,,,,,,,,,,,,AMP,right,0.7670884784893133,,,right,0,0.7670884784893133,0,,,,,,,,,,,,,,,,,,,,,,1059,2019_Mar_13_1245,mf_amp_cond1,3.0.4,60.03488902773253,
totalestic,blunderints,&&&&&&&&&&&,None,nonword,,,,,,,0,81,81,81,,,,,,,,,,,,,,,,,,,,,AMP,left,0.5503624464327004,,,left,0,0.5503624464327004,0,,,,,,,,,,,,,,,,,,,,,,1059,2019_Mar_13_1245,mf_amp_cond1,3.0.4,60.03488902773253,
serial,greaks,&&&&&&,right,sanctity.vice,,,,,,,0,82,82,82,,,,,,,,,,,,,,,,,,,,,AMP,right,1.5672971393796615,,,right,1,1.5672971393796615,1,,,,,,,,,,,,,,,,,,,,,,1059,2019_Mar_13_1245,mf_amp_cond1,3.0.4,60.03488902773253,
hate,hasks,&&&&&,right,fairness.vice,,,,,,,0,83,83,83,,,,,,,,,,,,,,,,,,,,,AMP,right,0.817084661917761,,,right,1,0.817084661917761,1,,,,,,,,,,,,,,,,,,,,,,1059,2019_Mar_13_1245,mf_amp_cond1,3.0.4,60.03488902773253,
injured,crinking,&&&&&&&&,right,care.vice,,,,,,,0,84,84,84,,,,,,,,,,,,,,,,,,,,,AMP,right,0.7670868748973589,,,right,1,0.7670868748973589,1,,,,,,,,,,,,,,,,,,,,,,1059,2019_Mar_13_1245,mf_amp_cond1,3.0.4,60.03488902773253,
praised,ilportation,&&&&&&&&&&&,left,loyalty.virtue,,,,,,,0,85,85,85,,,,,,,,,,,,,,,,,,,,,AMP,right,0.550347051845165,,,right,0,0.550347051845165,0,,,,,,,,,,,,,,,,,,,,,,1059,2019_Mar_13_1245,mf_amp_cond1,3.0.4,60.03488902773253,
promote,fegard,&&&&&&,left,sanctity.virtue,,,,,,,0,86,86,86,,,,,,,,,,,,,,,,,,,,,AMP,right,0.7002618363767397,,,right,0,0.7002618363767397,0,,,,,,,,,,,,,,,,,,,,,,1059,2019_Mar_13_1245,mf_amp_cond1,3.0.4,60.03488902773253,
killed,grovelire,&&&&&&&&&,right,care.vice,,,,,,,0,87,87,87,,,,,,,,,,,,,,,,,,,,,AMP,left,0.5003508684167173,,,left,0,0.5003508684167173,0,,,,,,,,,,,,,,,,,,,,,,1059,2019_Mar_13_1245,mf_amp_cond1,3.0.4,60.03488902773253,
protesters,ebbitter,&&&&&&&&,right,authority.vice,,,,,,,0,88,88,88,,,,,,,,,,,,,,,,,,,,,AMP,left,0.4003257880685851,,,left,0,0.4003257880685851,0,,,,,,,,,,,,,,,,,,,,,,1059,2019_Mar_13_1245,mf_amp_cond1,3.0.4,60.03488902773253,
charges,Daptist,&&&&&&&,right,fairness.vice,,,,,,,0,89,89,89,,,,,,,,,,,,,,,,,,,,,AMP,left,0.6337209563353099,,,left,0,0.6337209563353099,0,,,,,,,,,,,,,,,,,,,,,,1059,2019_Mar_13_1245,mf_amp_cond1,3.0.4,60.03488902773253,
riot,bruthfulness,&&&&&&&&&&&&,right,authority.vice,,,,,,,0,90,90,90,,,,,,,,,,,,,,,,,,,,,AMP,left,0.9338167235255241,,,left,0,0.9338167235255241,0,,,,,,,,,,,,,,,,,,,,,,1059,2019_Mar_13_1245,mf_amp_cond1,3.0.4,60.03488902773253,
illegal,brudent,&&&&&&&,right,fairness.vice,,,,,,,0,91,91,91,,,,,,,,,,,,,,,,,,,,,AMP,left,0.38365729327779263,,,left,0,0.38365729327779263,0,,,,,,,,,,,,,,,,,,,,,,1059,2019_Mar_13_1245,mf_amp_cond1,3.0.4,60.03488902773253,
fear,pumber,&&&&&&,right,sanctity.vice,,,,,,,0,92,92,92,,,,,,,,,,,,,,,,,,,,,AMP,left,0.2002714579575695,,,left,0,0.2002714579575695,0,,,,,,,,,,,,,,,,,,,,,,1059,2019_Mar_13_1245,mf_amp_cond1,3.0.4,60.03488902773253,
Phintoism,shoirmaster,&&&&&&&&&&&,None,nonword,,,,,,,0,93,93,93,,,,,,,,,,,,,,,,,,,,,AMP,left,0.8337608539732173,,,left,0,0.8337608539732173,0,,,,,,,,,,,,,,,,,,,,,,1059,2019_Mar_13_1245,mf_amp_cond1,3.0.4,60.03488902773253,
groups,egpeditious,&&&&&&&&&&&,right,loyalty.vice,,,,,,,0,94,94,94,,,,,,,,,,,,,,,,,,,,,AMP,left,0.8671244633733295,,,left,0,0.8671244633733295,0,,,,,,,,,,,,,,,,,,,,,,1059,2019_Mar_13_1245,mf_amp_cond1,3.0.4,60.03488902773253,
lempestuous,drumbled,&&&&&&&&,None,nonword,,,,,,,0,95,95,95,,,,,,,,,,,,,,,,,,,,,AMP,left,0.650375018682098,,,left,0,0.650375018682098,0,,,,,,,,,,,,,,,,,,,,,,1059,2019_Mar_13_1245,mf_amp_cond1,3.0.4,60.03488902773253,
army,chonograph,&&&&&&&&&&,right,loyalty.vice,,,,,,,0,96,96,96,,,,,,,,,,,,,,,,,,,,,AMP,left,0.43366373976459727,,,left,0,0.43366373976459727,0,,,,,,,,,,,,,,,,,,,,,,1059,2019_Mar_13_1245,mf_amp_cond1,3.0.4,60.03488902773253,
tracious,chared,&&&&&&,None,nonword,,,,,,,0,97,97,97,,,,,,,,,,,,,,,,,,,,,AMP,right,0.600372741551837,,,right,0,0.600372741551837,0,,,,,,,,,,,,,,,,,,,,,,1059,2019_Mar_13_1245,mf_amp_cond1,3.0.4,60.03488902773253,
promised,troubla,&&&&&&&,left,loyalty.virtue,,,,,,,0,98,98,98,,,,,,,,,,,,,,,,,,,,,AMP,left,2.084078848536592,,,left,1,2.084078848536592,1,,,,,,,,,,,,,,,,,,,,,,1059,2019_Mar_13_1245,mf_amp_cond1,3.0.4,60.03488902773253,
ban,honstables,&&&&&&&&&&,right,loyalty.vice,,,,,,,0,99,99,99,,,,,,,,,,,,,,,,,,,,,AMP,left,0.8337817008432467,,,left,0,0.8337817008432467,0,,,,,,,,,,,,,,,,,,,,,,1059,2019_Mar_13_1245,mf_amp_cond1,3.0.4,60.03488902773253,
victims,openet,&&&&&&,right,care.vice,,,,,,,0,100,100,100,,,,,,,,,,,,,,,,,,,,,AMP,left,0.5836946251802146,,,left,0,0.5836946251802146,0,,,,,,,,,,,,,,,,,,,,,,1059,2019_Mar_13_1245,mf_amp_cond1,3.0.4,60.03488902773253,
ability,mecan,&&&&&,left,authority.virtue,,,,,,,0,101,101,101,,,,,,,,,,,,,,,,,,,,,AMP,right,0.8170917177922092,,,right,0,0.8170917177922092,0,,,,,,,,,,,,,,,,,,,,,,1059,2019_Mar_13_1245,mf_amp_cond1,3.0.4,60.03488902773253,
totalestic,slending,&&&&&&&&,None,nonword,,,,,,,0,102,102,102,,,,,,,,,,,,,,,,,,,,,AMP,right,0.6670569837442599,,,right,0,0.6670569837442599,0,,,,,,,,,,,,,,,,,,,,,,1059,2019_Mar_13_1245,mf_amp_cond1,3.0.4,60.03488902773253,
coom,ecgagement,&&&&&&&&&&,None,nonword,,,,,,,0,103,103,103,,,,,,,,,,,,,,,,,,,,,AMP,right,0.43365059021743946,,,right,0,0.43365059021743946,0,,,,,,,,,,,,,,,,,,,,,,1059,2019_Mar_13_1245,mf_amp_cond1,3.0.4,60.03488902773253,
win,sonvoy,&&&&&&,left,fairness.virtue,,,,,,,0,104,104,104,,,,,,,,,,,,,,,,,,,,,AMP,right,0.5668949556420557,,,right,0,0.5668949556420557,0,,,,,,,,,,,,,,,,,,,,,,1059,2019_Mar_13_1245,mf_amp_cond1,3.0.4,60.03488902773253,
terrorist,alar,&&&&,right,loyalty.vice,,,,,,,0,105,105,105,,,,,,,,,,,,,,,,,,,,,AMP,right,0.6503865646081977,,,right,1,0.6503865646081977,1,,,,,,,,,,,,,,,,,,,,,,1059,2019_Mar_13_1245,mf_amp_cond1,3.0.4,60.03488902773253,
glacenta,nonobservalt,&&&&&&&&&&&&,None,nonword,,,,,,,0,106,106,106,,,,,,,,,,,,,,,,,,,,,AMP,right,2.5675341519527137,,,right,0,2.5675341519527137,0,,,,,,,,,,,,,,,,,,,,,,1059,2019_Mar_13_1245,mf_amp_cond1,3.0.4,60.03488902773253,
carvels,forepo,&&&&&&,None,nonword,,,,,,,0,107,107,107,,,,,,,,,,,,,,,,,,,,,AMP,right,0.7670839884085581,,,right,0,0.7670839884085581,0,,,,,,,,,,,,,,,,,,,,,,1059,2019_Mar_13_1245,mf_amp_cond1,3.0.4,60.03488902773253,
care,iptervention,&&&&&&&&&&&&,left,care.virtue,,,,,,,0,108,108,108,,,,,,,,,,,,,,,,,,,,,AMP,right,1.2005212993826717,,,right,0,1.2005212993826717,0,,,,,,,,,,,,,,,,,,,,,,1059,2019_Mar_13_1245,mf_amp_cond1,3.0.4,60.03488902773253,
health,lachelor,&&&&&&&&,left,care.virtue,,,,,,,0,109,109,109,,,,,,,,,,,,,,,,,,,,,AMP,right,0.1669197152950801,,,right,0,0.1669197152950801,0,,,,,,,,,,,,,,,,,,,,,,1059,2019_Mar_13_1245,mf_amp_cond1,3.0.4,60.03488902773253,
crime,erks,&&&&,right,fairness.vice,,,,,,,0,110,110,110,,,,,,,,,,,,,,,,,,,,,AMP,left,0.2836274020955898,,,left,0,0.2836274020955898,0,,,,,,,,,,,,,,,,,,,,,,1059,2019_Mar_13_1245,mf_amp_cond1,3.0.4,60.03488902773253,
unpleasant,aubos,&&&&&,None,control,,,,,,,0,111,111,111,,,,,,,,,,,,,,,,,,,,,AMP,left,0.5837068125547376,,,left,0,0.5837068125547376,0,,,,,,,,,,,,,,,,,,,,,,1059,2019_Mar_13_1245,mf_amp_cond1,3.0.4,60.03488902773253,
civilians,vurtain,&&&&&&&,right,care.vice,,,,,,,0,112,112,112,,,,,,,,,,,,,,,,,,,,,AMP,left,0.3836730086186435,,,left,0,0.3836730086186435,0,,,,,,,,,,,,,,,,,,,,,,1059,2019_Mar_13_1245,mf_amp_cond1,3.0.4,60.03488902773253,
hand,frojecting,&&&&&&&&&&,left,sanctity.virtue,,,,,,,0,113,113,113,,,,,,,,,,,,,,,,,,,,,AMP,left,0.35031709651229903,,,left,1,0.35031709651229903,1,,,,,,,,,,,,,,,,,,,,,,1059,2019_Mar_13_1245,mf_amp_cond1,3.0.4,60.03488902773253,
unreflectuve,framo,&&&&&,None,nonword,,,,,,,0,114,114,114,,,,,,,,,,,,,,,,,,,,,AMP,left,0.3836338806722779,,,left,0,0.3836338806722779,0,,,,,,,,,,,,,,,,,,,,,,1059,2019_Mar_13_1245,mf_amp_cond1,3.0.4,60.03488902773253,
scandal,simplustic,&&&&&&&&&&,right,sanctity.vice,,,,,,,0,115,115,115,,,,,,,,,,,,,,,,,,,,,AMP,left,0.9337875379424077,,,left,0,0.9337875379424077,0,,,,,,,,,,,,,,,,,,,,,,1059,2019_Mar_13_1245,mf_amp_cond1,3.0.4,60.03488902773253,
refused,fostet,&&&&&&,right,authority.vice,,,,,,,0,116,116,116,,,,,,,,,,,,,,,,,,,,,AMP,left,0.5503563527599908,,,left,0,0.5503563527599908,0,,,,,,,,,,,,,,,,,,,,,,1059,2019_Mar_13_1245,mf_amp_cond1,3.0.4,60.03488902773253,
officers,neneficence,&&&&&&&&&&&,right,authority.vice,,,,,,,0,117,117,117,,,,,,,,,,,,,,,,,,,,,AMP,left,1.0338110146985855,,,left,0,1.0338110146985855,0,,,,,,,,,,,,,,,,,,,,,,1059,2019_Mar_13_1245,mf_amp_cond1,3.0.4,60.03488902773253,
protect,blunderints,&&&&&&&&&&&,left,fairness.virtue,,,,,,,0,118,118,118,,,,,,,,,,,,,,,,,,,,,AMP,left,0.5670193952391855,,,left,1,0.5670193952391855,1,,,,,,,,,,,,,,,,,,,,,,1059,2019_Mar_13_1245,mf_amp_cond1,3.0.4,60.03488902773253,
actively,chreams,&&&&&&&,left,authority.virtue,,,,,,,0,119,119,119,,,,,,,,,,,,,,,,,,,,,AMP,right,1.3005486247711815,,,right,0,1.3005486247711815,0,,,,,,,,,,,,,,,,,,,,,,1059,2019_Mar_13_1245,mf_amp_cond1,3.0.4,60.03488902773253,
forced,sidearbs,&&&&&&&&,right,fairness.vice,,,,,,,0,120,120,120,,,,,,,,,,,,,,,,,,,,,AMP,left,0.350305871310411,,,left,0,0.350305871310411,0,,,,,,,,,,,,,,,,,,,,,,1059,2019_Mar_13_1245,mf_amp_cond1,3.0.4,60.03488902773253,
strength,gazily,&&&&&&,left,sanctity.virtue,,,,,,,0,121,121,121,,,,,,,,,,,,,,,,,,,,,AMP,left,1.0338155048084445,,,left,1,1.0338155048084445,1,,,,,,,,,,,,,,,,,,,,,,1059,2019_Mar_13_1245,mf_amp_cond1,3.0.4,60.03488902773253,
good,reelectiob,&&&&&&&&&&,left,care.virtue,,,,,,,0,122,122,122,,,,,,,,,,,,,,,,,,,,,AMP,right,0.9004454168607481,,,right,0,0.9004454168607481,0,,,,,,,,,,,,,,,,,,,,,,1059,2019_Mar_13_1245,mf_amp_cond1,3.0.4,60.03488902773253,
death,faspberry,&&&&&&&&&,right,care.vice,,,,,,,0,123,123,123,,,,,,,,,,,,,,,,,,,,,AMP,left,0.6670563422958367,,,left,0,0.6670563422958367,0,,,,,,,,,,,,,,,,,,,,,,1059,2019_Mar_13_1245,mf_amp_cond1,3.0.4,60.03488902773253,
attacks,ning,&&&&,right,care.vice,,,,,,,0,124,124,124,,,,,,,,,,,,,,,,,,,,,AMP,left,0.533681764267385,,,left,0,0.533681764267385,0,,,,,,,,,,,,,,,,,,,,,,1059,2019_Mar_13_1245,mf_amp_cond1,3.0.4,60.03488902773253,
restore,crilfully,&&&&&&&&&,left,care.virtue,,,,,,,0,125,125,125,,,,,,,,,,,,,,,,,,,,,AMP,left,0.5003492648247629,,,left,1,0.5003492648247629,1,,,,,,,,,,,,,,,,,,,,,,1059,2019_Mar_13_1245,mf_amp_cond1,3.0.4,60.03488902773253,
friends,gedious,&&&&&&&,left,loyalty.virtue,,,,,,,0,126,126,126,,,,,,,,,,,,,,,,,,,,,AMP,left,0.8337701548880432,,,left,1,0.8337701548880432,1,,,,,,,,,,,,,,,,,,,,,,1059,2019_Mar_13_1245,mf_amp_cond1,3.0.4,60.03488902773253,
promises,divility,&&&&&&&&,left,fairness.virtue,,,,,,,0,127,127,127,,,,,,,,,,,,,,,,,,,,,AMP,right,0.5670229231764097,,,right,0,0.5670229231764097,0,,,,,,,,,,,,,,,,,,,,,,1059,2019_Mar_13_1245,mf_amp_cond1,3.0.4,60.03488902773253,
improve,Oregoniuns,&&&&&&&&&&,left,care.virtue,,,,,,,0,128,128,128,,,,,,,,,,,,,,,,,,,,,AMP,left,0.516998837061692,,,left,1,0.516998837061692,1,,,,,,,,,,,,,,,,,,,,,,1059,2019_Mar_13_1245,mf_amp_cond1,3.0.4,60.03488902773253,
peaceful,hatigue,&&&&&&&,left,authority.virtue,,,,,,,0,129,129,129,,,,,,,,,,,,,,,,,,,,,AMP,left,1.4172444449504837,,,left,1,1.4172444449504837,1,,,,,,,,,,,,,,,,,,,,,,1059,2019_Mar_13_1245,mf_amp_cond1,3.0.4,60.03488902773253,
useful,brotesque,&&&&&&&&&,left,authority.virtue,,,,,,,0,130,130,130,,,,,,,,,,,,,,,,,,,,,AMP,left,1.400612191617256,,,left,1,1.400612191617256,1,,,,,,,,,,,,,,,,,,,,,,1059,2019_Mar_13_1245,mf_amp_cond1,3.0.4,60.03488902773253,
sharing,festate,&&&&&&&,left,loyalty.virtue,,,,,,,0,131,131,131,,,,,,,,,,,,,,,,,,,,,AMP,left,0.5336897822853643,,,left,1,0.5336897822853643,1,,,,,,,,,,,,,,,,,,,,,,1059,2019_Mar_13_1245,mf_amp_cond1,3.0.4,60.03488902773253,
arrests,stindig,&&&&&&&,right,authority.vice,,,,,,,0,132,132,132,,,,,,,,,,,,,,,,,,,,,AMP,left,0.566989247512538,,,left,0,0.566989247512538,0,,,,,,,,,,,,,,,,,,,,,,1059,2019_Mar_13_1245,mf_amp_cond1,3.0.4,60.03488902773253,
fair,gowlands,&&&&&&&&,left,fairness.virtue,,,,,,,0,133,133,133,,,,,,,,,,,,,,,,,,,,,AMP,left,0.6337110140011646,,,left,1,0.6337110140011646,1,,,,,,,,,,,,,,,,,,,,,,1059,2019_Mar_13_1245,mf_amp_cond1,3.0.4,60.03488902773253,
racist,suggists,&&&&&&&&,right,sanctity.vice,,,,,,,0,134,134,134,,,,,,,,,,,,,,,,,,,,,AMP,left,0.4670042572543025,,,left,0,0.4670042572543025,0,,,,,,,,,,,,,,,,,,,,,,1059,2019_Mar_13_1245,mf_amp_cond1,3.0.4,60.03488902773253,
gusinesslike,touls,&&&&&,None,nonword,,,,,,,0,135,135,135,,,,,,,,,,,,,,,,,,,,,AMP,left,0.5170232118398417,,,left,0,0.5170232118398417,0,,,,,,,,,,,,,,,,,,,,,,1059,2019_Mar_13_1245,mf_amp_cond1,3.0.4,60.03488902773253,
great,hefurbished,&&&&&&&&&&&,left,loyalty.virtue,,,,,,,0,136,136,136,,,,,,,,,,,,,,,,,,,,,AMP,right,0.9171196846000385,,,right,0,0.9171196846000385,0,,,,,,,,,,,,,,,,,,,,,,1059,2019_Mar_13_1245,mf_amp_cond1,3.0.4,60.03488902773253,
loyalty,saned,&&&&&,left,loyalty.virtue,,,,,,,0,137,137,137,,,,,,,,,,,,,,,,,,,,,AMP,right,0.3836409365176223,,,right,0,0.3836409365176223,0,,,,,,,,,,,,,,,,,,,,,,1059,2019_Mar_13_1245,mf_amp_cond1,3.0.4,60.03488902773253,
commitment,clattening,&&&&&&&&&&,left,sanctity.virtue,,,,,,,0,138,138,138,,,,,,,,,,,,,,,,,,,,,AMP,right,0.583722207142273,,,right,0,0.583722207142273,0,,,,,,,,,,,,,,,,,,,,,,1059,2019_Mar_13_1245,mf_amp_cond1,3.0.4,60.03488902773253,
blamed,dumid,&&&&&,right,loyalty.vice,,,,,,,0,139,139,139,,,,,,,,,,,,,,,,,,,,,AMP,left,0.5835746756347362,,,left,0,0.5835746756347362,0,,,,,,,,,,,,,,,,,,,,,,1059,2019_Mar_13_1245,mf_amp_cond1,3.0.4,60.03488902773253,
safety,papert,&&&&&&,left,care.virtue,,,,,,,0,140,140,140,,,,,,,,,,,,,,,,,,,,,AMP,right,0.7003955768886954,,,right,0,0.7003955768886954,0,,,,,,,,,,,,,,,,,,,,,,1059,2019_Mar_13_1245,mf_amp_cond1,3.0.4,60.03488902773253,
embrace,precificity,&&&&&&&&&&&,left,authority.virtue,,,,,,,0,141,141,141,,,,,,,,,,,,,,,,,,,,,AMP,left,1.0338251264183782,,,left,1,1.0338251264183782,1,,,,,,,,,,,,,,,,,,,,,,1059,2019_Mar_13_1245,mf_amp_cond1,3.0.4,60.03488902773253,
slavery,emassion,&&&&&&&&,right,loyalty.vice,,,,,,,0,142,142,142,,,,,,,,,,,,,,,,,,,,,AMP,left,0.5503602013923228,,,left,0,0.5503602013923228,0,,,,,,,,,,,,,,,,,,,,,,1059,2019_Mar_13_1245,mf_amp_cond1,3.0.4,60.03488902773253,
hope,wonderfujnoss,&&&&&&&&&&&&&,left,loyalty.virtue,,,,,,,0,143,143,143,,,,,,,,,,,,,,,,,,,,,AMP,right,0.9171142323466484,,,right,0,0.9171142323466484,0,,,,,,,,,,,,,,,,,,,,,,1059,2019_Mar_13_1245,mf_amp_cond1,3.0.4,60.03488902773253,
accused,vicissifude,&&&&&&&&&&&,right,fairness.vice,,,,,,,0,144,144,144,,,,,,,,,,,,,,,,,,,,,AMP,left,1.2172112824337091,,,left,0,1.2172112824337091,0,,,,,,,,,,,,,,,,,,,,,,1059,2019_Mar_13_1245,mf_amp_cond1,3.0.4,60.03488902773253,
penalty,Boeinf,&&&&&&,right,authority.vice,,,,,,,0,145,145,145,,,,,,,,,,,,,,,,,,,,,AMP,left,0.8170907556195743,,,left,0,0.8170907556195743,0,,,,,,,,,,,,,,,,,,,,,,1059,2019_Mar_13_1245,mf_amp_cond1,3.0.4,60.03488902773253,
compassion,mightingale,&&&&&&&&&&&,left,care.virtue,,,,,,,0,146,146,146,,,,,,,,,,,,,,,,,,,,,AMP,right,0.8337595711054746,,,right,0,0.8337595711054746,0,,,,,,,,,,,,,,,,,,,,,,1059,2019_Mar_13_1245,mf_amp_cond1,3.0.4,60.03488902773253,
pleasant,uller,&&&&&,None,control,,,,,,,0,147,147,147,,,,,,,,,,,,,,,,,,,,,AMP,right,1.267207145167049,,,right,0,1.267207145167049,0,,,,,,,,,,,,,,,,,,,,,,1059,2019_Mar_13_1245,mf_amp_cond1,3.0.4,60.03488902773253,
failure,gournful,&&&&&&&&,right,loyalty.vice,,,,,,,0,148,148,148,,,,,,,,,,,,,,,,,,,,,AMP,right,1.2838759606238455,,,right,1,1.2838759606238455,1,,,,,,,,,,,,,,,,,,,,,,1059,2019_Mar_13_1245,mf_amp_cond1,3.0.4,60.03488902773253,
violations,rivernoat,&&&&&&&&&,right,sanctity.vice,,,,,,,0,149,149,149,,,,,,,,,,,,,,,,,,,,,AMP,right,1.317225458275061,,,right,1,1.317225458275061,1,,,,,,,,,,,,,,,,,,,,,,1059,2019_Mar_13_1245,mf_amp_cond1,3.0.4,60.03488902773253,
gandbrake,photocalkodes,&&&&&&&&&&&&&,None,nonword,,,,,,,0,150,150,150,,,,,,,,,,,,,,,,,,,,,AMP,right,0.93378529290203,,,right,0,0.93378529290203,0,,,,,,,,,,,,,,,,,,,,,,1059,2019_Mar_13_1245,mf_amp_cond1,3.0.4,60.03488902773253,
harassment,lenon,&&&&&,right,sanctity.vice,,,,,,,0,151,151,151,,,,,,,,,,,,,,,,,,,,,AMP,right,0.7337447538156994,,,right,1,0.7337447538156994,1,,,,,,,,,,,,,,,,,,,,,,1059,2019_Mar_13_1245,mf_amp_cond1,3.0.4,60.03488902773253,
interests,dormandi,&&&&&&&&,left,fairness.virtue,,,,,,,0,152,152,152,,,,,,,,,,,,,,,,,,,,,AMP,right,0.9171283440664411,,,right,0,0.9171283440664411,0,,,,,,,,,,,,,,,,,,,,,,1059,2019_Mar_13_1245,mf_amp_cond1,3.0.4,60.03488902773253,
prosecution,sickyay,&&&&&&&,right,authority.vice,,,,,,,0,153,153,153,,,,,,,,,,,,,,,,,,,,,AMP,left,0.9838045682117809,,,left,0,0.9838045682117809,0,,,,,,,,,,,,,,,,,,,,,,1059,2019_Mar_13_1245,mf_amp_cond1,3.0.4,60.03488902773253,
clean,clamorek,&&&&&&&&,left,sanctity.virtue,,,,,,,0,154,154,154,,,,,,,,,,,,,,,,,,,,,AMP,right,0.5670312619186006,,,right,0,0.5670312619186006,0,,,,,,,,,,,,,,,,,,,,,,1059,2019_Mar_13_1245,mf_amp_cond1,3.0.4,60.03488902773253,
conspiracy,juck,&&&&,right,sanctity.vice,,,,,,,0,155,155,155,,,,,,,,,,,,,,,,,,,,,AMP,left,0.46701580318040214,,,left,0,0.46701580318040214,0,,,,,,,,,,,,,,,,,,,,,,1059,2019_Mar_13_1245,mf_amp_cond1,3.0.4,60.03488902773253,
values,unscothed,&&&&&&&&&,left,sanctity.virtue,,,,,,,0,156,156,156,,,,,,,,,,,,,,,,,,,,,AMP,left,0.9337958766845986,,,left,1,0.9337958766845986,1,,,,,,,,,,,,,,,,,,,,,,1059,2019_Mar_13_1245,mf_amp_cond1,3.0.4,60.03488902773253,
agreement,scalbel,&&&&&&&,left,fairness.virtue,,,,,,,0,157,157,157,,,,,,,,,,,,,,,,,,,,,AMP,left,0.7003975012048613,,,left,1,0.7003975012048613,1,,,,,,,,,,,,,,,,,,,,,,1059,2019_Mar_13_1245,mf_amp_cond1,3.0.4,60.03488902773253,
ensure,reprisols,&&&&&&&&&,left,fairness.virtue,,,,,,,0,158,158,158,,,,,,,,,,,,,,,,,,,,,AMP,left,0.5670351105800364,,,left,1,0.5670351105800364,1,,,,,,,,,,,,,,,,,,,,,,1059,2019_Mar_13_1245,mf_amp_cond1,3.0.4,60.03488902773253,
victim,disregord,&&&&&&&&&,right,care.vice,,,,,,,0,159,159,159,,,,,,,,,,,,,,,,,,,,,AMP,left,0.7670843091327697,,,left,0,0.7670843091327697,0,,,,,,,,,,,,,,,,,,,,,,1059,2019_Mar_13_1245,mf_amp_cond1,3.0.4,60.03488902773253,
respect,lorthwhile,&&&&&&&&&&,left,sanctity.virtue,,,,,,,0,160,160,160,,,,,,,,,,,,,,,,,,,,,AMP,left,0.5836978323932271,,,left,1,0.5836978323932271,1,,,,,,,,,,,,,,,,,,,,,,1059,2019_Mar_13_1245,mf_amp_cond1,3.0.4,60.03488902773253,
trust,ablow,&&&&&,left,authority.virtue,,,,,,,0,161,161,161,,,,,,,,,,,,,,,,,,,,,AMP,left,1.0004746665945277,,,left,1,1.0004746665945277,1,,,,,,,,,,,,,,,,,,,,,,1059,2019_Mar_13_1245,mf_amp_cond1,3.0.4,60.03488902773253,
praise,allears,&&&&&&&,left,authority.virtue,,,,,,,0,162,162,162,,,,,,,,,,,,,,,,,,,,,AMP,left,1.2505344809906092,,,left,1,1.2505344809906092,1,,,,,,,,,,,,,,,,,,,,,,1059,2019_Mar_13_1245,mf_amp_cond1,3.0.4,60.03488902773253,
fraud,gationwide,&&&&&&&&&&,right,fairness.vice,,,,,,,0,163,163,163,,,,,,,,,,,,,,,,,,,,,AMP,right,1.233771052910015,,,right,1,1.233771052910015,1,,,,,,,,,,,,,,,,,,,,,,1059,2019_Mar_13_1245,mf_amp_cond1,3.0.4,60.03488902773253,
fear,juck,&&&&,right,sanctity.vice,,,,,,,0,164,164,164,,,,,,,,,,,,,,,,,,,,,AMP,left,0.45032710299710743,,,left,0,0.45032710299710743,0,,,,,,,,,,,,,,,,,,,,,,1059,2019_Mar_13_1245,mf_amp_cond1,3.0.4,60.03488902773253,
charges,precificity,&&&&&&&&&&&,right,fairness.vice,,,,,,,0,165,165,165,,,,,,,,,,,,,,,,,,,,,AMP,left,0.8170907555904705,,,left,0,0.8170907555904705,0,,,,,,,,,,,,,,,,,,,,,,1059,2019_Mar_13_1245,mf_amp_cond1,3.0.4,60.03488902773253,
slavery,hasks,&&&&&,right,loyalty.vice,,,,,,,0,166,166,166,,,,,,,,,,,,,,,,,,,,,AMP,left,0.41698498191544786,,,left,0,0.41698498191544786,0,,,,,,,,,,,,,,,,,,,,,,1059,2019_Mar_13_1245,mf_amp_cond1,3.0.4,60.03488902773253,
riot,honstables,&&&&&&&&&&,right,authority.vice,,,,,,,0,167,167,167,,,,,,,,,,,,,,,,,,,,,AMP,left,0.4670125959964935,,,left,0,0.4670125959964935,0,,,,,,,,,,,,,,,,,,,,,,1059,2019_Mar_13_1245,mf_amp_cond1,3.0.4,60.03488902773253,
praised,sonvoy,&&&&&&,left,loyalty.virtue,,,,,,,0,168,168,168,,,,,,,,,,,,,,,,,,,,,AMP,left,0.6337110140011646,,,left,1,0.6337110140011646,1,,,,,,,,,,,,,,,,,,,,,,1059,2019_Mar_13_1245,mf_amp_cond1,3.0.4,60.03488902773253,
restore,lorthwhile,&&&&&&&&&&,left,care.virtue,,,,,,,0,169,169,169,,,,,,,,,,,,,,,,,,,,,AMP,left,0.5336487300519366,,,left,1,0.5336487300519366,1,,,,,,,,,,,,,,,,,,,,,,1059,2019_Mar_13_1245,mf_amp_cond1,3.0.4,60.03488902773253,
forced,emassion,&&&&&&&&,right,fairness.vice,,,,,,,0,170,170,170,,,,,,,,,,,,,,,,,,,,,AMP,left,1.9006962204293814,,,left,0,1.9006962204293814,0,,,,,,,,,,,,,,,,,,,,,,1059,2019_Mar_13_1245,mf_amp_cond1,3.0.4,60.03488902773253,
killed,photocalkodes,&&&&&&&&&&&&&,right,care.vice,,,,,,,0,171,171,171,,,,,,,,,,,,,,,,,,,,,AMP,left,0.6503865646373015,,,left,0,0.6503865646373015,0,,,,,,,,,,,,,,,,,,,,,,1059,2019_Mar_13_1245,mf_amp_cond1,3.0.4,60.03488902773253,
carvels,scalbel,&&&&&&&,None,nonword,,,,,,,0,172,172,172,,,,,,,,,,,,,,,,,,,,,AMP,left,0.48367307274020277,,,left,0,0.48367307274020277,0,,,,,,,,,,,,,,,,,,,,,,1059,2019_Mar_13_1245,mf_amp_cond1,3.0.4,60.03488902773253,
promote,stindig,&&&&&&&,left,sanctity.virtue,,,,,,,0,173,173,173,,,,,,,,,,,,,,,,,,,,,AMP,left,0.8671032958081923,,,left,1,0.8671032958081923,1,,,,,,,,,,,,,,,,,,,,,,1059,2019_Mar_13_1245,mf_amp_cond1,3.0.4,60.03488902773253,
protect,papert,&&&&&&,left,fairness.virtue,,,,,,,0,174,174,174,,,,,,,,,,,,,,,,,,,,,AMP,left,1.1503788673435338,,,left,1,1.1503788673435338,1,,,,,,,,,,,,,,,,,,,,,,1059,2019_Mar_13_1245,mf_amp_cond1,3.0.4,60.03488902773253,
improve,ilportation,&&&&&&&&&&&,left,care.virtue,,,,,,,0,175,175,175,,,,,,,,,,,,,,,,,,,,,AMP,left,0.5670530709321611,,,left,1,0.5670530709321611,1,,,,,,,,,,,,,,,,,,,,,,1059,2019_Mar_13_1245,mf_amp_cond1,3.0.4,60.03488902773253,
arrests,reelectiob,&&&&&&&&&&,right,authority.vice,,,,,,,0,176,176,176,,,,,,,,,,,,,,,,,,,,,AMP,left,0.5836946251511108,,,left,0,0.5836946251511108,0,,,,,,,,,,,,,,,,,,,,,,1059,2019_Mar_13_1245,mf_amp_cond1,3.0.4,60.03488902773253,
totalestic,vurtain,&&&&&&&,None,nonword,,,,,,,0,177,177,177,,,,,,,,,,,,,,,,,,,,,AMP,left,0.41699043416883796,,,left,0,0.41699043416883796,0,,,,,,,,,,,,,,,,,,,,,,1059,2019_Mar_13_1245,mf_amp_cond1,3.0.4,60.03488902773253,
tracious,chared,&&&&&&,None,nonword,,,,,,,0,178,178,178,,,,,,,,,,,,,,,,,,,,,AMP,left,0.5670270925620571,,,left,0,0.5670270925620571,0,,,,,,,,,,,,,,,,,,,,,,1059,2019_Mar_13_1245,mf_amp_cond1,3.0.4,60.03488902773253,
protesters,reprisols,&&&&&&&&&,right,authority.vice,,,,,,,0,179,179,179,,,,,,,,,,,,,,,,,,,,,AMP,left,0.5169003758346662,,,left,0,0.5169003758346662,0,,,,,,,,,,,,,,,,,,,,,,1059,2019_Mar_13_1245,mf_amp_cond1,3.0.4,60.03488902773253,
ban,brotesque,&&&&&&&&&,right,loyalty.vice,,,,,,,0,180,180,180,,,,,,,,,,,,,,,,,,,,,AMP,left,0.5336862543481402,,,left,0,0.5336862543481402,0,,,,,,,,,,,,,,,,,,,,,,1059,2019_Mar_13_1245,mf_amp_cond1,3.0.4,60.03488902773253,
illegal,brudent,&&&&&&&,right,fairness.vice,,,,,,,0,181,181,181,,,,,,,,,,,,,,,,,,,,,AMP,left,3.017650862195296,,,left,0,3.017650862195296,0,,,,,,,,,,,,,,,,,,,,,,1059,2019_Mar_13_1245,mf_amp_cond1,3.0.4,60.03488902773253,
promises,shoirmaster,&&&&&&&&&&&,left,fairness.virtue,,,,,,,0,182,182,182,,,,,,,,,,,,,,,,,,,,,AMP,left,0.8004392590373755,,,left,1,0.8004392590373755,1,,,,,,,,,,,,,,,,,,,,,,1059,2019_Mar_13_1245,mf_amp_cond1,3.0.4,60.03488902773253,
lempestuous,uller,&&&&&,None,nonword,,,,,,,0,183,183,183,,,,,,,,,,,,,,,,,,,,,AMP,left,1.7340148006333038,,,left,0,1.7340148006333038,0,,,,,,,,,,,,,,,,,,,,,,1059,2019_Mar_13_1245,mf_amp_cond1,3.0.4,60.03488902773253,
actively,disregord,&&&&&&&&&,left,authority.virtue,,,,,,,0,184,184,184,,,,,,,,,,,,,,,,,,,,,AMP,left,0.9504611642332748,,,left,1,0.9504611642332748,1,,,,,,,,,,,,,,,,,,,,,,1059,2019_Mar_13_1245,mf_amp_cond1,3.0.4,60.03488902773253,
terrorist,divility,&&&&&&&&,right,loyalty.vice,,,,,,,0,185,185,185,,,,,,,,,,,,,,,,,,,,,AMP,left,1.2171981328865513,,,left,0,1.2171981328865513,0,,,,,,,,,,,,,,,,,,,,,,1059,2019_Mar_13_1245,mf_amp_cond1,3.0.4,60.03488902773253,
failure,lenon,&&&&&,right,loyalty.vice,,,,,,,0,186,186,186,,,,,,,,,,,,,,,,,,,,,AMP,left,0.8504062568827067,,,left,0,0.8504062568827067,0,,,,,,,,,,,,,,,,,,,,,,1059,2019_Mar_13_1245,mf_amp_cond1,3.0.4,60.03488902773253,
interests,faspberry,&&&&&&&&&,left,fairness.virtue,,,,,,,0,187,187,187,,,,,,,,,,,,,,,,,,,,,AMP,right,0.40032097726361826,,,right,0,0.40032097726361826,0,,,,,,,,,,,,,,,,,,,,,,1059,2019_Mar_13_1245,mf_amp_cond1,3.0.4,60.03488902773253,
Phintoism,greaks,&&&&&&,None,nonword,,,,,,,0,188,188,188,,,,,,,,,,,,,,,,,,,,,AMP,left,0.8671138795907609,,,left,0,0.8671138795907609,0,,,,,,,,,,,,,,,,,,,,,,1059,2019_Mar_13_1245,mf_amp_cond1,3.0.4,60.03488902773253,
fair,gowlands,&&&&&&&&,left,fairness.virtue,,,,,,,0,189,189,189,,,,,,,,,,,,,,,,,,,,,AMP,right,0.7670887992135249,,,right,0,0.7670887992135249,0,,,,,,,,,,,,,,,,,,,,,,1059,2019_Mar_13_1245,mf_amp_cond1,3.0.4,60.03488902773253,
attacks,crilfully,&&&&&&&&&,right,care.vice,,,,,,,0,190,190,190,,,,,,,,,,,,,,,,,,,,,AMP,right,0.6170441228314303,,,right,1,0.6170441228314303,1,,,,,,,,,,,,,,,,,,,,,,1059,2019_Mar_13_1245,mf_amp_cond1,3.0.4,60.03488902773253,
ability,festate,&&&&&&&,left,authority.virtue,,,,,,,0,191,191,191,,,,,,,,,,,,,,,,,,,,,AMP,right,0.45044769399100915,,,right,0,0.45044769399100915,0,,,,,,,,,,,,,,,,,,,,,,1059,2019_Mar_13_1245,mf_amp_cond1,3.0.4,60.03488902773253,
loyalty,neneficence,&&&&&&&&&&&,left,loyalty.virtue,,,,,,,0,192,192,192,,,,,,,,,,,,,,,,,,,,,AMP,left,0.7339920294471085,,,left,1,0.7339920294471085,1,,,,,,,,,,,,,,,,,,,,,,1059,2019_Mar_13_1245,mf_amp_cond1,3.0.4,60.03488902773253,
blamed,Daptist,&&&&&&&,right,loyalty.vice,,,,,,,0,193,193,193,,,,,,,,,,,,,,,,,,,,,AMP,left,0.46700265366234817,,,left,0,0.46700265366234817,0,,,,,,,,,,,,,,,,,,,,,,1059,2019_Mar_13_1245,mf_amp_cond1,3.0.4,60.03488902773253,
hope,fegard,&&&&&&,left,loyalty.virtue,,,,,,,0,194,194,194,,,,,,,,,,,,,,,,,,,,,AMP,right,0.2502532089711167,,,right,0,0.2502532089711167,0,,,,,,,,,,,,,,,,,,,,,,1059,2019_Mar_13_1245,mf_amp_cond1,3.0.4,60.03488902773253,
victims,suggists,&&&&&&&&,right,care.vice,,,,,,,0,195,195,195,,,,,,,,,,,,,,,,,,,,,AMP,right,0.9004560006433167,,,right,1,0.9004560006433167,1,,,,,,,,,,,,,,,,,,,,,,1059,2019_Mar_13_1245,mf_amp_cond1,3.0.4,60.03488902773253,
peaceful,ablow,&&&&&,left,authority.virtue,,,,,,,0,196,196,196,,,,,,,,,,,,,,,,,,,,,AMP,right,0.6503811123839114,,,right,0,0.6503811123839114,0,,,,,,,,,,,,,,,,,,,,,,1059,2019_Mar_13_1245,mf_amp_cond1,3.0.4,60.03488902773253,
care,grovelire,&&&&&&&&&,left,care.virtue,,,,,,,0,197,197,197,,,,,,,,,,,,,,,,,,,,,AMP,left,0.8670202291395981,,,left,1,0.8670202291395981,1,,,,,,,,,,,,,,,,,,,,,,1059,2019_Mar_13_1245,mf_amp_cond1,3.0.4,60.03488902773253,
glacenta,drumbled,&&&&&&&&,None,nonword,,,,,,,0,198,198,198,,,,,,,,,,,,,,,,,,,,,AMP,right,0.550372068042634,,,right,0,0.550372068042634,0,,,,,,,,,,,,,,,,,,,,,,1059,2019_Mar_13_1245,mf_amp_cond1,3.0.4,60.03488902773253,
clean,gationwide,&&&&&&&&&&,left,sanctity.virtue,,,,,,,0,199,199,199,,,,,,,,,,,,,,,,,,,,,AMP,right,0.8670927119965199,,,right,0,0.8670927119965199,0,,,,,,,,,,,,,,,,,,,,,,1059,2019_Mar_13_1245,mf_amp_cond1,3.0.4,60.03488902773253,
ensure,chreams,&&&&&&&,left,fairness.virtue,,,,,,,0,200,200,200,,,,,,,,,,,,,,,,,,,,,AMP,right,0.6670723783317953,,,right,0,0.6670723783317953,0,,,,,,,,,,,,,,,,,,,,,,1059,2019_Mar_13_1245,mf_amp_cond1,3.0.4,60.03488902773253,
army,chonograph,&&&&&&&&&&,right,loyalty.vice,,,,,,,0,201,201,201,,,,,,,,,,,,,,,,,,,,,AMP,left,0.6170373876811936,,,left,0,0.6170373876811936,0,,,,,,,,,,,,,,,,,,,,,,1059,2019_Mar_13_1245,mf_amp_cond1,3.0.4,60.03488902773253,
commitment,Oregoniuns,&&&&&&&&&&,left,sanctity.virtue,,,,,,,0,202,202,202,,,,,,,,,,,,,,,,,,,,,AMP,right,0.7504052305885125,,,right,0,0.7504052305885125,0,,,,,,,,,,,,,,,,,,,,,,1059,2019_Mar_13_1245,mf_amp_cond1,3.0.4,60.03488902773253,
officers,framo,&&&&&,right,authority.vice,,,,,,,0,203,203,203,,,,,,,,,,,,,,,,,,,,,AMP,left,0.8337602125538979,,,left,0,0.8337602125538979,0,,,,,,,,,,,,,,,,,,,,,,1059,2019_Mar_13_1245,mf_amp_cond1,3.0.4,60.03488902773253,
strength,frojecting,&&&&&&&&&&,left,sanctity.virtue,,,,,,,0,204,204,204,,,,,,,,,,,,,,,,,,,,,AMP,left,0.7504228702164255,,,left,1,0.7504228702164255,1,,,,,,,,,,,,,,,,,,,,,,1059,2019_Mar_13_1245,mf_amp_cond1,3.0.4,60.03488902773253,
embrace,gedious,&&&&&&&,left,authority.virtue,,,,,,,0,205,205,205,,,,,,,,,,,,,,,,,,,,,AMP,left,0.9170997999317478,,,left,1,0.9170997999317478,1,,,,,,,,,,,,,,,,,,,,,,1059,2019_Mar_13_1245,mf_amp_cond1,3.0.4,60.03488902773253,
safety,rivernoat,&&&&&&&&&,left,care.virtue,,,,,,,0,206,206,206,,,,,,,,,,,,,,,,,,,,,AMP,right,0.5836939837317914,,,right,0,0.5836939837317914,0,,,,,,,,,,,,,,,,,,,,,,1059,2019_Mar_13_1245,mf_amp_cond1,3.0.4,60.03488902773253,
praise,troubla,&&&&&&&,left,authority.virtue,,,,,,,0,207,207,207,,,,,,,,,,,,,,,,,,,,,AMP,right,0.8003959617344663,,,right,0,0.8003959617344663,0,,,,,,,,,,,,,,,,,,,,,,1059,2019_Mar_13_1245,mf_amp_cond1,3.0.4,60.03488902773253,
unreflectuve,bruthfulness,&&&&&&&&&&&&,None,nonword,,,,,,,0,208,208,208,,,,,,,,,,,,,,,,,,,,,AMP,right,1.3172177609812934,,,right,0,1.3172177609812934,0,,,,,,,,,,,,,,,,,,,,,,1059,2019_Mar_13_1245,mf_amp_cond1,3.0.4,60.03488902773253,
compassion,ecgagement,&&&&&&&&&&,left,care.virtue,,,,,,,0,209,209,209,,,,,,,,,,,,,,,,,,,,,AMP,right,1.4005756294645835,,,right,0,1.4005756294645835,0,,,,,,,,,,,,,,,,,,,,,,1059,2019_Mar_13_1245,mf_amp_cond1,3.0.4,60.03488902773253,
respect,lachelor,&&&&&&&&,left,sanctity.virtue,,,,,,,0,210,210,210,,,,,,,,,,,,,,,,,,,,,AMP,right,0.5336859336530324,,,right,0,0.5336859336530324,0,,,,,,,,,,,,,,,,,,,,,,1059,2019_Mar_13_1245,mf_amp_cond1,3.0.4,60.03488902773253,
win,pumber,&&&&&&,left,fairness.virtue,,,,,,,0,211,211,211,,,,,,,,,,,,,,,,,,,,,AMP,right,0.6837197055283468,,,right,0,0.6837197055283468,0,,,,,,,,,,,,,,,,,,,,,,1059,2019_Mar_13_1245,mf_amp_cond1,3.0.4,60.03488902773253,
hate,erks,&&&&,right,fairness.vice,,,,,,,0,212,212,212,,,,,,,,,,,,,,,,,,,,,AMP,left,0.5670283754297998,,,left,0,0.5670283754297998,0,,,,,,,,,,,,,,,,,,,,,,1059,2019_Mar_13_1245,mf_amp_cond1,3.0.4,60.03488902773253,
friends,openet,&&&&&&,left,loyalty.virtue,,,,,,,0,213,213,213,,,,,,,,,,,,,,,,,,,,,AMP,right,0.7670778947067447,,,right,0,0.7670778947067447,0,,,,,,,,,,,,,,,,,,,,,,1059,2019_Mar_13_1245,mf_amp_cond1,3.0.4,60.03488902773253,
penalty,sickyay,&&&&&&&,right,authority.vice,,,,,,,0,214,214,214,,,,,,,,,,,,,,,,,,,,,AMP,left,0.783759539044695,,,left,0,0.783759539044695,0,,,,,,,,,,,,,,,,,,,,,,1059,2019_Mar_13_1245,mf_amp_cond1,3.0.4,60.03488902773253,
promised,hefurbished,&&&&&&&&&&&,left,loyalty.virtue,,,,,,,0,215,215,215,,,,,,,,,,,,,,,,,,,,,AMP,left,0.45034025257336907,,,left,1,0.45034025257336907,1,,,,,,,,,,,,,,,,,,,,,,1059,2019_Mar_13_1245,mf_amp_cond1,3.0.4,60.03488902773253,
crime,wonderfujnoss,&&&&&&&&&&&&&,right,fairness.vice,,,,,,,0,216,216,216,,,,,,,,,,,,,,,,,,,,,AMP,right,0.7170788248186,,,right,1,0.7170788248186,1,,,,,,,,,,,,,,,,,,,,,,1059,2019_Mar_13_1245,mf_amp_cond1,3.0.4,60.03488902773253,
serial,Boeinf,&&&&&&,right,sanctity.vice,,,,,,,0,217,217,217,,,,,,,,,,,,,,,,,,,,,AMP,left,0.567024526768364,,,left,0,0.567024526768364,0,,,,,,,,,,,,,,,,,,,,,,1059,2019_Mar_13_1245,mf_amp_cond1,3.0.4,60.03488902773253,
accused,clamorek,&&&&&&&&,right,fairness.vice,,,,,,,0,218,218,218,,,,,,,,,,,,,,,,,,,,,AMP,left,0.3503093992185313,,,left,0,0.3503093992185313,0,,,,,,,,,,,,,,,,,,,,,,1059,2019_Mar_13_1245,mf_amp_cond1,3.0.4,60.03488902773253,
refused,clattening,&&&&&&&&&&,right,authority.vice,,,,,,,0,219,219,219,,,,,,,,,,,,,,,,,,,,,AMP,left,0.6837267613736913,,,left,0,0.6837267613736913,0,,,,,,,,,,,,,,,,,,,,,,1059,2019_Mar_13_1245,mf_amp_cond1,3.0.4,60.03488902773253,
harassment,simplustic,&&&&&&&&&&,right,sanctity.vice,,,,,,,0,220,220,220,,,,,,,,,,,,,,,,,,,,,AMP,right,0.5503662950650323,,,right,1,0.5503662950650323,1,,,,,,,,,,,,,,,,,,,,,,1059,2019_Mar_13_1245,mf_amp_cond1,3.0.4,60.03488902773253,
health,alar,&&&&,left,care.virtue,,,,,,,0,221,221,221,,,,,,,,,,,,,,,,,,,,,AMP,right,1.3672322254860774,,,right,0,1.3672322254860774,0,,,,,,,,,,,,,,,,,,,,,,1059,2019_Mar_13_1245,mf_amp_cond1,3.0.4,60.03488902773253,
great,hatigue,&&&&&&&,left,loyalty.virtue,,,,,,,0,222,222,222,,,,,,,,,,,,,,,,,,,,,AMP,left,0.5170244947075844,,,left,1,0.5170244947075844,1,,,,,,,,,,,,,,,,,,,,,,1059,2019_Mar_13_1245,mf_amp_cond1,3.0.4,60.03488902773253,
pleasant,nonobservalt,&&&&&&&&&&&&,None,control,,,,,,,0,223,223,223,,,,,,,,,,,,,,,,,,,,,AMP,left,0.5336849714803975,,,left,0,0.5336849714803975,0,,,,,,,,,,,,,,,,,,,,,,1059,2019_Mar_13_1245,mf_amp_cond1,3.0.4,60.03488902773253,
coom,sidearbs,&&&&&&&&,None,nonword,,,,,,,0,224,224,224,,,,,,,,,,,,,,,,,,,,,AMP,left,0.6504032420925796,,,left,0,0.6504032420925796,0,,,,,,,,,,,,,,,,,,,,,,1059,2019_Mar_13_1245,mf_amp_cond1,3.0.4,60.03488902773253,
sharing,forepo,&&&&&&,left,loyalty.virtue,,,,,,,0,225,225,225,,,,,,,,,,,,,,,,,,,,,AMP,left,0.517024815431796,,,left,1,0.517024815431796,1,,,,,,,,,,,,,,,,,,,,,,1059,2019_Mar_13_1245,mf_amp_cond1,3.0.4,60.03488902773253,
prosecution,allears,&&&&&&&,right,authority.vice,,,,,,,0,226,226,226,,,,,,,,,,,,,,,,,,,,,AMP,right,0.5336747084220406,,,right,1,0.5336747084220406,1,,,,,,,,,,,,,,,,,,,,,,1059,2019_Mar_13_1245,mf_amp_cond1,3.0.4,60.03488902773253,
gandbrake,slending,&&&&&&&&,None,nonword,,,,,,,0,227,227,227,,,,,,,,,,,,,,,,,,,,,AMP,right,0.6670717368833721,,,right,0,0.6670717368833721,0,,,,,,,,,,,,,,,,,,,,,,1059,2019_Mar_13_1245,mf_amp_cond1,3.0.4,60.03488902773253,
gusinesslike,ning,&&&&,None,nonword,,,,,,,0,228,228,228,,,,,,,,,,,,,,,,,,,,,AMP,right,0.40032450517173856,,,right,0,0.40032450517173856,0,,,,,,,,,,,,,,,,,,,,,,1059,2019_Mar_13_1245,mf_amp_cond1,3.0.4,60.03488902773253,
hand,iptervention,&&&&&&&&&&&&,left,sanctity.virtue,,,,,,,0,229,229,229,,,,,,,,,,,,,,,,,,,,,AMP,right,1.0504904139670543,,,right,0,1.0504904139670543,0,,,,,,,,,,,,,,,,,,,,,,1059,2019_Mar_13_1245,mf_amp_cond1,3.0.4,60.03488902773253,
groups,saned,&&&&&,right,loyalty.vice,,,,,,,0,230,230,230,,,,,,,,,,,,,,,,,,,,,AMP,right,0.9671293382998556,,,right,1,0.9671293382998556,1,,,,,,,,,,,,,,,,,,,,,,1059,2019_Mar_13_1245,mf_amp_cond1,3.0.4,60.03488902773253,
agreement,egpeditious,&&&&&&&&&&&,left,fairness.virtue,,,,,,,0,231,231,231,,,,,,,,,,,,,,,,,,,,,AMP,right,0.8170971700164955,,,right,0,0.8170971700164955,0,,,,,,,,,,,,,,,,,,,,,,1059,2019_Mar_13_1245,mf_amp_cond1,3.0.4,60.03488902773253,
scandal,vicissifude,&&&&&&&&&&&,right,sanctity.vice,,,,,,,0,232,232,232,,,,,,,,,,,,,,,,,,,,,AMP,left,0.36698527057887986,,,left,0,0.36698527057887986,0,,,,,,,,,,,,,,,,,,,,,,1059,2019_Mar_13_1245,mf_amp_cond1,3.0.4,60.03488902773253,
violations,ebbitter,&&&&&&&&,right,sanctity.vice,,,,,,,0,233,233,233,,,,,,,,,,,,,,,,,,,,,AMP,right,0.5003710738092195,,,right,1,0.5003710738092195,1,,,,,,,,,,,,,,,,,,,,,,1059,2019_Mar_13_1245,mf_amp_cond1,3.0.4,60.03488902773253,
injured,touls,&&&&&,right,care.vice,,,,,,,0,234,234,234,,,,,,,,,,,,,,,,,,,,,AMP,right,0.9671286968805362,,,right,1,0.9671286968805362,1,,,,,,,,,,,,,,,,,,,,,,1059,2019_Mar_13_1245,mf_amp_cond1,3.0.4,60.03488902773253,
values,fostet,&&&&&&,left,sanctity.virtue,,,,,,,0,235,235,235,,,,,,,,,,,,,,,,,,,,,AMP,left,0.6837341379432473,,,left,1,0.6837341379432473,1,,,,,,,,,,,,,,,,,,,,,,1059,2019_Mar_13_1245,mf_amp_cond1,3.0.4,60.03488902773253,
trust,mightingale,&&&&&&&&&&&,left,authority.virtue,,,,,,,0,236,236,236,,,,,,,,,,,,,,,,,,,,,AMP,right,0.5170123073330615,,,right,0,0.5170123073330615,0,,,,,,,,,,,,,,,,,,,,,,1059,2019_Mar_13_1245,mf_amp_cond1,3.0.4,60.03488902773253,
racist,mecan,&&&&&,right,sanctity.vice,,,,,,,0,237,237,237,,,,,,,,,,,,,,,,,,,,,AMP,left,0.6003589505853597,,,left,0,0.6003589505853597,0,,,,,,,,,,,,,,,,,,,,,,1059,2019_Mar_13_1245,mf_amp_cond1,3.0.4,60.03488902773253,
civilians,gournful,&&&&&&&&,right,care.vice,,,,,,,0,238,238,238,,,,,,,,,,,,,,,,,,,,,AMP,left,0.8671093894809019,,,left,0,0.8671093894809019,0,,,,,,,,,,,,,,,,,,,,,,1059,2019_Mar_13_1245,mf_amp_cond1,3.0.4,60.03488902773253,
fraud,dumid,&&&&&,right,fairness.vice,,,,,,,0,239,239,239,,,,,,,,,,,,,,,,,,,,,AMP,left,0.8337701548880432,,,left,0,0.8337701548880432,0,,,,,,,,,,,,,,,,,,,,,,1059,2019_Mar_13_1245,mf_amp_cond1,3.0.4,60.03488902773253,
victim,crinking,&&&&&&&&,right,care.vice,,,,,,,0,240,240,240,,,,,,,,,,,,,,,,,,,,,AMP,right,1.1005141793866642,,,right,1,1.1005141793866642,1,,,,,,,,,,,,,,,,,,,,,,1059,2019_Mar_13_1245,mf_amp_cond1,3.0.4,60.03488902773253,
unpleasant,aubos,&&&&&,None,control,,,,,,,0,241,241,241,,,,,,,,,,,,,,,,,,,,,AMP,right,0.6170540651655756,,,right,0,0.6170540651655756,0,,,,,,,,,,,,,,,,,,,,,,1059,2019_Mar_13_1245,mf_amp_cond1,3.0.4,60.03488902773253,
death,gazily,&&&&&&,right,care.vice,,,,,,,0,242,242,242,,,,,,,,,,,,,,,,,,,,,AMP,left,0.45032934806658886,,,left,0,0.45032934806658886,0,,,,,,,,,,,,,,,,,,,,,,1059,2019_Mar_13_1245,mf_amp_cond1,3.0.4,60.03488902773253,
good,blunderints,&&&&&&&&&&&,left,care.virtue,,,,,,,0,243,243,243,,,,,,,,,,,,,,,,,,,,,AMP,left,0.3836871203093324,,,left,1,0.3836871203093324,1,,,,,,,,,,,,,,,,,,,,,,1059,2019_Mar_13_1245,mf_amp_cond1,3.0.4,60.03488902773253,
conspiracy,unscothed,&&&&&&&&&,right,sanctity.vice,,,,,,,0,244,244,244,,,,,,,,,,,,,,,,,,,,,AMP,left,0.350305871310411,,,left,0,0.350305871310411,0,,,,,,,,,,,,,,,,,,,,,,1059,2019_Mar_13_1245,mf_amp_cond1,3.0.4,60.03488902773253,
useful,dormandi,&&&&&&&&,left,authority.virtue,,,,,,,0,245,245,245,,,,,,,,,,,,,,,,,,,,,AMP,left,1.050472132890718,,,left,1,1.050472132890718,1,,,,,,,,,,,,,,,,,,,,,,1059,2019_Mar_13_1245,mf_amp_cond1,3.0.4,60.03488902773253,
glacenta,nonobservalt,&&&&&&&&&&&&,None,nonword,,,,,,,0,246,246,246,,,,,,,,,,,,,,,,,,,,,AMP,left,0.6170585552754346,,,left,0,0.6170585552754346,0,,,,,,,,,,,,,,,,,,,,,,1059,2019_Mar_13_1245,mf_amp_cond1,3.0.4,60.03488902773253,
gandbrake,reprisols,&&&&&&&&&,None,nonword,,,,,,,0,247,247,247,,,,,,,,,,,,,,,,,,,,,AMP,left,0.6337142211850733,,,left,0,0.6337142211850733,0,,,,,,,,,,,,,,,,,,,,,,1059,2019_Mar_13_1245,mf_amp_cond1,3.0.4,60.03488902773253,
illegal,allears,&&&&&&&,right,fairness.vice,,,,,,,0,248,248,248,,,,,,,,,,,,,,,,,,,,,AMP,left,0.483690391673008,,,left,0,0.483690391673008,0,,,,,,,,,,,,,,,,,,,,,,1059,2019_Mar_13_1245,mf_amp_cond1,3.0.4,60.03488902773253,
respect,ilportation,&&&&&&&&&&&,left,sanctity.virtue,,,,,,,0,249,249,249,,,,,,,,,,,,,,,,,,,,,AMP,left,0.6837280442705378,,,left,1,0.6837280442705378,1,,,,,,,,,,,,,,,,,,,,,,1059,2019_Mar_13_1245,mf_amp_cond1,3.0.4,60.03488902773253,
useful,gazily,&&&&&&,left,authority.virtue,,,,,,,0,250,250,250,,,,,,,,,,,,,,,,,,,,,AMP,left,0.5337125534715597,,,left,1,0.5337125534715597,1,,,,,,,,,,,,,,,,,,,,,,1059,2019_Mar_13_1245,mf_amp_cond1,3.0.4,60.03488902773253,
coom,pumber,&&&&&&,None,nonword,,,,,,,0,251,251,251,,,,,,,,,,,,,,,,,,,,,AMP,left,0.40033380608656444,,,left,0,0.40033380608656444,0,,,,,,,,,,,,,,,,,,,,,,1059,2019_Mar_13_1245,mf_amp_cond1,3.0.4,60.03488902773253,
victims,erks,&&&&,right,care.vice,,,,,,,0,252,252,252,,,,,,,,,,,,,,,,,,,,,AMP,left,0.6170486129121855,,,left,0,0.6170486129121855,0,,,,,,,,,,,,,,,,,,,,,,1059,2019_Mar_13_1245,mf_amp_cond1,3.0.4,60.03488902773253,
scandal,hefurbished,&&&&&&&&&&&,right,sanctity.vice,,,,,,,0,253,253,253,,,,,,,,,,,,,,,,,,,,,AMP,left,0.43368522805394605,,,left,0,0.43368522805394605,0,,,,,,,,,,,,,,,,,,,,,,1059,2019_Mar_13_1245,mf_amp_cond1,3.0.4,60.03488902773253,
promises,ecgagement,&&&&&&&&&&,left,fairness.virtue,,,,,,,0,254,254,254,,,,,,,,,,,,,,,,,,,,,AMP,left,0.41699203778989613,,,left,1,0.41699203778989613,1,,,,,,,,,,,,,,,,,,,,,,1059,2019_Mar_13_1245,mf_amp_cond1,3.0.4,60.03488902773253,
arrests,wonderfujnoss,&&&&&&&&&&&&&,right,authority.vice,,,,,,,0,255,255,255,,,,,,,,,,,,,,,,,,,,,AMP,right,0.4168525243003387,,,right,1,0.4168525243003387,1,,,,,,,,,,,,,,,,,,,,,,1059,2019_Mar_13_1245,mf_amp_cond1,3.0.4,60.03488902773253,
care,divility,&&&&&&&&,left,care.virtue,,,,,,,0,256,256,256,,,,,,,,,,,,,,,,,,,,,AMP,left,0.9504772002692334,,,left,1,0.9504772002692334,1,,,,,,,,,,,,,,,,,,,,,,1059,2019_Mar_13_1245,mf_amp_cond1,3.0.4,60.03488902773253,
hand,ablow,&&&&&,left,sanctity.virtue,,,,,,,0,257,257,257,,,,,,,,,,,,,,,,,,,,,AMP,left,0.483664413302904,,,left,1,0.483664413302904,1,,,,,,,,,,,,,,,,,,,,,,1059,2019_Mar_13_1245,mf_amp_cond1,3.0.4,60.03488902773253,
crime,vicissifude,&&&&&&&&&&&,right,fairness.vice,,,,,,,0,258,258,258,,,,,,,,,,,,,,,,,,,,,AMP,left,0.46699174915556796,,,left,0,0.46699174915556796,0,,,,,,,,,,,,,,,,,,,,,,1059,2019_Mar_13_1245,mf_amp_cond1,3.0.4,60.03488902773253,
death,stindig,&&&&&&&,right,care.vice,,,,,,,0,259,259,259,,,,,,,,,,,,,,,,,,,,,AMP,left,0.4003216186829377,,,left,0,0.4003216186829377,0,,,,,,,,,,,,,,,,,,,,,,1059,2019_Mar_13_1245,mf_amp_cond1,3.0.4,60.03488902773253,
racist,papert,&&&&&&,right,sanctity.vice,,,,,,,0,260,260,260,,,,,,,,,,,,,,,,,,,,,AMP,right,0.750413248577388,,,right,1,0.750413248577388,1,,,,,,,,,,,,,,,,,,,,,,1059,2019_Mar_13_1245,mf_amp_cond1,3.0.4,60.03488902773253,
groups,sonvoy,&&&&&&,right,loyalty.vice,,,,,,,0,261,261,261,,,,,,,,,,,,,,,,,,,,,AMP,left,0.4503906056925189,,,left,0,0.4503906056925189,0,,,,,,,,,,,,,,,,,,,,,,1059,2019_Mar_13_1245,mf_amp_cond1,3.0.4,60.03488902773253,
hope,gournful,&&&&&&&&,left,loyalty.virtue,,,,,,,0,262,262,262,,,,,,,,,,,,,,,,,,,,,AMP,right,0.7337473195802886,,,right,0,0.7337473195802886,0,,,,,,,,,,,,,,,,,,,,,,1059,2019_Mar_13_1245,mf_amp_cond1,3.0.4,60.03488902773253,
trust,uller,&&&&&,left,authority.virtue,,,,,,,0,263,263,263,,,,,,,,,,,,,,,,,,,,,AMP,right,0.5337247408169787,,,right,0,0.5337247408169787,0,,,,,,,,,,,,,,,,,,,,,,1059,2019_Mar_13_1245,mf_amp_cond1,3.0.4,60.03488902773253,
loyalty,egpeditious,&&&&&&&&&&&,left,loyalty.virtue,,,,,,,0,264,264,264,,,,,,,,,,,,,,,,,,,,,AMP,right,0.8171016600972507,,,right,0,0.8171016600972507,0,,,,,,,,,,,,,,,,,,,,,,1059,2019_Mar_13_1245,mf_amp_cond1,3.0.4,60.03488902773253,
protesters,touls,&&&&&,right,authority.vice,,,,,,,0,265,265,265,,,,,,,,,,,,,,,,,,,,,AMP,right,0.5003499062731862,,,right,1,0.5003499062731862,1,,,,,,,,,,,,,,,,,,,,,,1059,2019_Mar_13_1245,mf_amp_cond1,3.0.4,60.03488902773253,
promote,clattening,&&&&&&&&&&,left,sanctity.virtue,,,,,,,0,266,266,266,,,,,,,,,,,,,,,,,,,,,AMP,right,0.5170280226448085,,,right,0,0.5170280226448085,0,,,,,,,,,,,,,,,,,,,,,,1059,2019_Mar_13_1245,mf_amp_cond1,3.0.4,60.03488902773253,
ban,gedious,&&&&&&&,right,loyalty.vice,,,,,,,0,267,267,267,,,,,,,,,,,,,,,,,,,,,AMP,left,0.6337248049967457,,,left,0,0.6337248049967457,0,,,,,,,,,,,,,,,,,,,,,,1059,2019_Mar_13_1245,mf_amp_cond1,3.0.4,60.03488902773253,
praise,greaks,&&&&&&,left,authority.virtue,,,,,,,0,268,268,268,,,,,,,,,,,,,,,,,,,,,AMP,left,0.4169676630117465,,,left,1,0.4169676630117465,1,,,,,,,,,,,,,,,,,,,,,,1059,2019_Mar_13_1245,mf_amp_cond1,3.0.4,60.03488902773253,
unreflectuve,clamorek,&&&&&&&&,None,nonword,,,,,,,0,269,269,269,,,,,,,,,,,,,,,,,,,,,AMP,right,0.4836724312917795,,,right,0,0.4836724312917795,0,,,,,,,,,,,,,,,,,,,,,,1059,2019_Mar_13_1245,mf_amp_cond1,3.0.4,60.03488902773253,
accused,crinking,&&&&&&&&,right,fairness.vice,,,,,,,0,270,270,270,,,,,,,,,,,,,,,,,,,,,AMP,left,0.6504077321733348,,,left,0,0.6504077321733348,0,,,,,,,,,,,,,,,,,,,,,,1059,2019_Mar_13_1245,mf_amp_cond1,3.0.4,60.03488902773253,
actively,chreams,&&&&&&&,left,authority.virtue,,,,,,,0,271,271,271,,,,,,,,,,,,,,,,,,,,,AMP,right,0.7837374093069229,,,right,0,0.7837374093069229,0,,,,,,,,,,,,,,,,,,,,,,1059,2019_Mar_13_1245,mf_amp_cond1,3.0.4,60.03488902773253,
hate,fegard,&&&&&&,right,fairness.vice,,,,,,,0,272,272,272,,,,,,,,,,,,,,,,,,,,,AMP,left,0.3669791768770665,,,left,0,0.3669791768770665,0,,,,,,,,,,,,,,,,,,,,,,1059,2019_Mar_13_1245,mf_amp_cond1,3.0.4,60.03488902773253,
win,dumid,&&&&&,left,fairness.virtue,,,,,,,0,273,273,273,,,,,,,,,,,,,,,,,,,,,AMP,left,0.4836913538456429,,,left,1,0.4836913538456429,1,,,,,,,,,,,,,,,,,,,,,,1059,2019_Mar_13_1245,mf_amp_cond1,3.0.4,60.03488902773253,
attacks,scalbel,&&&&&&&,right,care.vice,,,,,,,0,274,274,274,,,,,,,,,,,,,,,,,,,,,AMP,left,0.7670756496663671,,,left,0,0.7670756496663671,0,,,,,,,,,,,,,,,,,,,,,,1059,2019_Mar_13_1245,mf_amp_cond1,3.0.4,60.03488902773253,
peaceful,aubos,&&&&&,left,authority.virtue,,,,,,,0,275,275,275,,,,,,,,,,,,,,,,,,,,,AMP,right,0.6170547066139989,,,right,0,0.6170547066139989,0,,,,,,,,,,,,,,,,,,,,,,1059,2019_Mar_13_1245,mf_amp_cond1,3.0.4,60.03488902773253,
army,brudent,&&&&&&&,right,loyalty.vice,,,,,,,0,276,276,276,,,,,,,,,,,,,,,,,,,,,AMP,left,0.7337409051833674,,,left,0,0.7337409051833674,0,,,,,,,,,,,,,,,,,,,,,,1059,2019_Mar_13_1245,mf_amp_cond1,3.0.4,60.03488902773253,
friends,emassion,&&&&&&&&,left,loyalty.virtue,,,,,,,0,277,277,277,,,,,,,,,,,,,,,,,,,,,AMP,right,0.9837994366826024,,,right,0,0.9837994366826024,0,,,,,,,,,,,,,,,,,,,,,,1059,2019_Mar_13_1245,mf_amp_cond1,3.0.4,60.03488902773253,
forced,precificity,&&&&&&&&&&&,right,fairness.vice,,,,,,,0,278,278,278,,,,,,,,,,,,,,,,,,,,,AMP,left,0.7003840309334919,,,left,0,0.7003840309334919,0,,,,,,,,,,,,,,,,,,,,,,1059,2019_Mar_13_1245,mf_amp_cond1,3.0.4,60.03488902773253,
prosecution,slending,&&&&&&&&,right,authority.vice,,,,,,,0,279,279,279,,,,,,,,,,,,,,,,,,,,,AMP,left,1.0671797555987723,,,left,0,1.0671797555987723,0,,,,,,,,,,,,,,,,,,,,,,1059,2019_Mar_13_1245,mf_amp_cond1,3.0.4,60.03488902773253,
ensure,reelectiob,&&&&&&&&&&,left,fairness.virtue,,,,,,,0,280,280,280,,,,,,,,,,,,,,,,,,,,,AMP,left,1.6006318838626612,,,left,1,1.6006318838626612,1,,,,,,,,,,,,,,,,,,,,,,1059,2019_Mar_13_1245,mf_amp_cond1,3.0.4,60.03488902773253,
safety,drumbled,&&&&&&&&,left,care.virtue,,,,,,,0,281,281,281,,,,,,,,,,,,,,,,,,,,,AMP,left,1.4339071667345706,,,left,1,1.4339071667345706,1,,,,,,,,,,,,,,,,,,,,,,1059,2019_Mar_13_1245,mf_amp_cond1,3.0.4,60.03488902773253,
harassment,fostet,&&&&&&,right,sanctity.vice,,,,,,,0,282,282,282,,,,,,,,,,,,,,,,,,,,,AMP,left,1.5172659973904956,,,left,0,1.5172659973904956,0,,,,,,,,,,,,,,,,,,,,,,1059,2019_Mar_13_1245,mf_amp_cond1,3.0.4,60.03488902773253,
lempestuous,blunderints,&&&&&&&&&&&,None,nonword,,,,,,,0,283,283,283,,,,,,,,,,,,,,,,,,,,,AMP,left,1.1171938993793447,,,left,0,1.1171938993793447,0,,,,,,,,,,,,,,,,,,,,,,1059,2019_Mar_13_1245,mf_amp_cond1,3.0.4,60.03488902773253,
killed,hatigue,&&&&&&&,right,care.vice,,,,,,,0,284,284,284,,,,,,,,,,,,,,,,,,,,,AMP,left,0.350305871310411,,,left,0,0.350305871310411,0,,,,,,,,,,,,,,,,,,,,,,1059,2019_Mar_13_1245,mf_amp_cond1,3.0.4,60.03488902773253,
injured,lachelor,&&&&&&&&,right,care.vice,,,,,,,0,285,285,285,,,,,,,,,,,,,,,,,,,,,AMP,left,0.6170328976004384,,,left,0,0.6170328976004384,0,,,,,,,,,,,,,,,,,,,,,,1059,2019_Mar_13_1245,mf_amp_cond1,3.0.4,60.03488902773253,
refused,gowlands,&&&&&&&&,right,authority.vice,,,,,,,0,286,286,286,,,,,,,,,,,,,,,,,,,,,AMP,left,0.33363833869225346,,,left,0,0.33363833869225346,0,,,,,,,,,,,,,,,,,,,,,,1059,2019_Mar_13_1245,mf_amp_cond1,3.0.4,60.03488902773253,
carvels,unscothed,&&&&&&&&&,None,nonword,,,,,,,0,287,287,287,,,,,,,,,,,,,,,,,,,,,AMP,left,0.8004209779610392,,,left,0,0.8004209779610392,0,,,,,,,,,,,,,,,,,,,,,,1059,2019_Mar_13_1245,mf_amp_cond1,3.0.4,60.03488902773253,
violations,chared,&&&&&&,right,sanctity.vice,,,,,,,0,288,288,288,,,,,,,,,,,,,,,,,,,,,AMP,right,0.9839354222640395,,,right,1,0.9839354222640395,1,,,,,,,,,,,,,,,,,,,,,,1059,2019_Mar_13_1245,mf_amp_cond1,3.0.4,60.03488902773253,
praised,sidearbs,&&&&&&&&,left,loyalty.virtue,,,,,,,0,289,289,289,,,,,,,,,,,,,,,,,,,,,AMP,left,0.9171257783018518,,,left,1,0.9171257783018518,1,,,,,,,,,,,,,,,,,,,,,,1059,2019_Mar_13_1245,mf_amp_cond1,3.0.4,60.03488902773253,
clean,openet,&&&&&&,left,sanctity.virtue,,,,,,,0,290,290,290,,,,,,,,,,,,,,,,,,,,,AMP,right,0.5170126280572731,,,right,0,0.5170126280572731,0,,,,,,,,,,,,,,,,,,,,,,1059,2019_Mar_13_1245,mf_amp_cond1,3.0.4,60.03488902773253,
totalestic,photocalkodes,&&&&&&&&&&&&&,None,nonword,,,,,,,0,291,291,291,,,,,,,,,,,,,,,,,,,,,AMP,right,0.8337544395762961,,,right,0,0.8337544395762961,0,,,,,,,,,,,,,,,,,,,,,,1059,2019_Mar_13_1245,mf_amp_cond1,3.0.4,60.03488902773253,
serial,dormandi,&&&&&&&&,right,sanctity.vice,,,,,,,0,292,292,292,,,,,,,,,,,,,,,,,,,,,AMP,left,0.600386532547418,,,left,0,0.600386532547418,0,,,,,,,,,,,,,,,,,,,,,,1059,2019_Mar_13_1245,mf_amp_cond1,3.0.4,60.03488902773253,
embrace,crilfully,&&&&&&&&&,left,authority.virtue,,,,,,,0,293,293,293,,,,,,,,,,,,,,,,,,,,,AMP,right,1.0004721008299384,,,right,0,1.0004721008299384,0,,,,,,,,,,,,,,,,,,,,,,1059,2019_Mar_13_1245,mf_amp_cond1,3.0.4,60.03488902773253,
unpleasant,hasks,&&&&&,None,control,,,,,,,0,294,294,294,,,,,,,,,,,,,,,,,,,,,AMP,right,0.900479733973043,,,right,0,0.900479733973043,0,,,,,,,,,,,,,,,,,,,,,,1059,2019_Mar_13_1245,mf_amp_cond1,3.0.4,60.03488902773253,
charges,vurtain,&&&&&&&,right,fairness.vice,,,,,,,0,295,295,295,,,,,,,,,,,,,,,,,,,,,AMP,left,0.5503598806681111,,,left,0,0.5503598806681111,0,,,,,,,,,,,,,,,,,,,,,,1059,2019_Mar_13_1245,mf_amp_cond1,3.0.4,60.03488902773253,
restore,honstables,&&&&&&&&&&,left,care.virtue,,,,,,,0,296,296,296,,,,,,,,,,,,,,,,,,,,,AMP,right,0.5503650121972896,,,right,0,0.5503650121972896,0,,,,,,,,,,,,,,,,,,,,,,1059,2019_Mar_13_1245,mf_amp_cond1,3.0.4,60.03488902773253,
slavery,grovelire,&&&&&&&&&,right,loyalty.vice,,,,,,,0,297,297,297,,,,,,,,,,,,,,,,,,,,,AMP,left,0.5170187217590865,,,left,0,0.5170187217590865,0,,,,,,,,,,,,,,,,,,,,,,1059,2019_Mar_13_1245,mf_amp_cond1,3.0.4,60.03488902773253,
values,mightingale,&&&&&&&&&&&,left,sanctity.virtue,,,,,,,0,298,298,298,,,,,,,,,,,,,,,,,,,,,AMP,right,0.3169611844641622,,,right,0,0.3169611844641622,0,,,,,,,,,,,,,,,,,,,,,,1059,2019_Mar_13_1245,mf_amp_cond1,3.0.4,60.03488902773253,
great,framo,&&&&&,left,loyalty.virtue,,,,,,,0,299,299,299,,,,,,,,,,,,,,,,,,,,,AMP,right,0.5503560320066754,,,right,0,0.5503560320066754,0,,,,,,,,,,,,,,,,,,,,,,1059,2019_Mar_13_1245,mf_amp_cond1,3.0.4,60.03488902773253,
riot,disregord,&&&&&&&&&,right,authority.vice,,,,,,,0,300,300,300,,,,,,,,,,,,,,,,,,,,,AMP,left,1.100494936137693,,,left,0,1.100494936137693,0,,,,,,,,,,,,,,,,,,,,,,1059,2019_Mar_13_1245,mf_amp_cond1,3.0.4,60.03488902773253,
penalty,ebbitter,&&&&&&&&,right,authority.vice,,,,,,,0,301,301,301,,,,,,,,,,,,,,,,,,,,,AMP,right,1.583945428748848,,,right,1,1.583945428748848,1,,,,,,,,,,,,,,,,,,,,,,1059,2019_Mar_13_1245,mf_amp_cond1,3.0.4,60.03488902773253,
fair,lenon,&&&&&,left,fairness.virtue,,,,,,,0,302,302,302,,,,,,,,,,,,,,,,,,,,,AMP,right,1.1671782161283772,,,right,0,1.1671782161283772,0,,,,,,,,,,,,,,,,,,,,,,1059,2019_Mar_13_1245,mf_amp_cond1,3.0.4,60.03488902773253,
tracious,alar,&&&&,None,nonword,,,,,,,0,303,303,303,,,,,,,,,,,,,,,,,,,,,AMP,right,0.7337348114524502,,,right,0,0.7337348114524502,0,,,,,,,,,,,,,,,,,,,,,,1059,2019_Mar_13_1245,mf_amp_cond1,3.0.4,60.03488902773253,
ability,faspberry,&&&&&&&&&,left,authority.virtue,,,,,,,0,304,304,304,,,,,,,,,,,,,,,,,,,,,AMP,left,1.1005039163283072,,,left,1,1.1005039163283072,1,,,,,,,,,,,,,,,,,,,,,,1059,2019_Mar_13_1245,mf_amp_cond1,3.0.4,60.03488902773253,
interests,lorthwhile,&&&&&&&&&&,left,fairness.virtue,,,,,,,0,305,305,305,,,,,,,,,,,,,,,,,,,,,AMP,right,0.7837386921746656,,,right,0,0.7837386921746656,0,,,,,,,,,,,,,,,,,,,,,,1059,2019_Mar_13_1245,mf_amp_cond1,3.0.4,60.03488902773253,
pleasant,juck,&&&&,None,control,,,,,,,0,306,306,306,,,,,,,,,,,,,,,,,,,,,AMP,left,0.5170325127255637,,,left,0,0.5170325127255637,0,,,,,,,,,,,,,,,,,,,,,,1059,2019_Mar_13_1245,mf_amp_cond1,3.0.4,60.03488902773253,
blamed,neneficence,&&&&&&&&&&&,right,loyalty.vice,,,,,,,0,307,307,307,,,,,,,,,,,,,,,,,,,,,AMP,left,0.5503996500337962,,,left,0,0.5503996500337962,0,,,,,,,,,,,,,,,,,,,,,,1059,2019_Mar_13_1245,mf_amp_cond1,3.0.4,60.03488902773253,
protect,forepo,&&&&&&,left,fairness.virtue,,,,,,,0,308,308,308,,,,,,,,,,,,,,,,,,,,,AMP,left,0.750410362117691,,,left,1,0.750410362117691,1,,,,,,,,,,,,,,,,,,,,,,1059,2019_Mar_13_1245,mf_amp_cond1,3.0.4,60.03488902773253,
civilians,simplustic,&&&&&&&&&&,right,care.vice,,,,,,,0,309,309,309,,,,,,,,,,,,,,,,,,,,,AMP,right,0.43365572174661793,,,right,1,0.43365572174661793,1,,,,,,,,,,,,,,,,,,,,,,1059,2019_Mar_13_1245,mf_amp_cond1,3.0.4,60.03488902773253,
victim,sickyay,&&&&&&&,right,care.vice,,,,,,,0,310,310,310,,,,,,,,,,,,,,,,,,,,,AMP,left,0.6337049202993512,,,left,0,0.6337049202993512,0,,,,,,,,,,,,,,,,,,,,,,1059,2019_Mar_13_1245,mf_amp_cond1,3.0.4,60.03488902773253,
compassion,festate,&&&&&&&,left,care.virtue,,,,,,,0,311,311,311,,,,,,,,,,,,,,,,,,,,,AMP,left,0.4336640604888089,,,left,1,0.4336640604888089,1,,,,,,,,,,,,,,,,,,,,,,1059,2019_Mar_13_1245,mf_amp_cond1,3.0.4,60.03488902773253,
strength,frojecting,&&&&&&&&&&,left,sanctity.virtue,,,,,,,0,312,312,312,,,,,,,,,,,,,,,,,,,,,AMP,left,0.48369456102955155,,,left,1,0.48369456102955155,1,,,,,,,,,,,,,,,,,,,,,,1059,2019_Mar_13_1245,mf_amp_cond1,3.0.4,60.03488902773253,
failure,chonograph,&&&&&&&&&&,right,loyalty.vice,,,,,,,0,313,313,313,,,,,,,,,,,,,,,,,,,,,AMP,right,0.950459881365532,,,right,1,0.950459881365532,1,,,,,,,,,,,,,,,,,,,,,,1059,2019_Mar_13_1245,mf_amp_cond1,3.0.4,60.03488902773253,
improve,mecan,&&&&&,left,care.virtue,,,,,,,0,314,314,314,,,,,,,,,,,,,,,,,,,,,AMP,right,0.4170135260792449,,,right,0,0.4170135260792449,0,,,,,,,,,,,,,,,,,,,,,,1059,2019_Mar_13_1245,mf_amp_cond1,3.0.4,60.03488902773253,
sharing,suggists,&&&&&&&&,left,loyalty.virtue,,,,,,,0,315,315,315,,,,,,,,,,,,,,,,,,,,,AMP,right,0.4836733934644144,,,right,0,0.4836733934644144,0,,,,,,,,,,,,,,,,,,,,,,1059,2019_Mar_13_1245,mf_amp_cond1,3.0.4,60.03488902773253,
good,bruthfulness,&&&&&&&&&&&&,left,care.virtue,,,,,,,0,316,316,316,,,,,,,,,,,,,,,,,,,,,AMP,right,1.133835774322506,,,right,0,1.133835774322506,0,,,,,,,,,,,,,,,,,,,,,,1059,2019_Mar_13_1245,mf_amp_cond1,3.0.4,60.03488902773253,
fraud,Oregoniuns,&&&&&&&&&&,right,fairness.vice,,,,,,,0,317,317,317,,,,,,,,,,,,,,,,,,,,,AMP,right,0.5168846605229191,,,right,1,0.5168846605229191,1,,,,,,,,,,,,,,,,,,,,,,1059,2019_Mar_13_1245,mf_amp_cond1,3.0.4,60.03488902773253,
officers,gationwide,&&&&&&&&&&,right,authority.vice,,,,,,,0,318,318,318,,,,,,,,,,,,,,,,,,,,,AMP,right,1.1338290392013732,,,right,1,1.1338290392013732,1,,,,,,,,,,,,,,,,,,,,,,1059,2019_Mar_13_1245,mf_amp_cond1,3.0.4,60.03488902773253,
Phintoism,Daptist,&&&&&&&,None,nonword,,,,,,,0,319,319,319,,,,,,,,,,,,,,,,,,,,,AMP,right,0.9337628424400464,,,right,0,0.9337628424400464,0,,,,,,,,,,,,,,,,,,,,,,1059,2019_Mar_13_1245,mf_amp_cond1,3.0.4,60.03488902773253,
conspiracy,shoirmaster,&&&&&&&&&&&,right,sanctity.vice,,,,,,,0,320,320,320,,,,,,,,,,,,,,,,,,,,,AMP,left,0.9671258103626315,,,left,0,0.9671258103626315,0,,,,,,,,,,,,,,,,,,,,,,1059,2019_Mar_13_1245,mf_amp_cond1,3.0.4,60.03488902773253,
promised,rivernoat,&&&&&&&&&,left,loyalty.virtue,,,,,,,0,321,321,321,,,,,,,,,,,,,,,,,,,,,AMP,right,0.9337952352652792,,,right,0,0.9337952352652792,0,,,,,,,,,,,,,,,,,,,,,,1059,2019_Mar_13_1245,mf_amp_cond1,3.0.4,60.03488902773253,
commitment,troubla,&&&&&&&,left,sanctity.virtue,,,,,,,0,322,322,322,,,,,,,,,,,,,,,,,,,,,AMP,right,1.1338530932553113,,,right,0,1.1338530932553113,0,,,,,,,,,,,,,,,,,,,,,,1059,2019_Mar_13_1245,mf_amp_cond1,3.0.4,60.03488902773253,
gusinesslike,saned,&&&&&,None,nonword,,,,,,,0,323,323,323,,,,,,,,,,,,,,,,,,,,,AMP,right,0.6336641887901351,,,right,0,0.6336641887901351,0,,,,,,,,,,,,,,,,,,,,,,1059,2019_Mar_13_1245,mf_amp_cond1,3.0.4,60.03488902773253,
agreement,ning,&&&&,left,fairness.virtue,,,,,,,0,324,324,324,,,,,,,,,,,,,,,,,,,,,AMP,right,0.3670070795924403,,,right,0,0.3670070795924403,0,,,,,,,,,,,,,,,,,,,,,,1059,2019_Mar_13_1245,mf_amp_cond1,3.0.4,60.03488902773253,
health,brotesque,&&&&&&&&&,left,care.virtue,,,,,,,0,325,325,325,,,,,,,,,,,,,,,,,,,,,AMP,right,0.5170161559944972,,,right,0,0.5170161559944972,0,,,,,,,,,,,,,,,,,,,,,,1059,2019_Mar_13_1245,mf_amp_cond1,3.0.4,60.03488902773253,
terrorist,Boeinf,&&&&&&,right,loyalty.vice,,,,,,,0,326,326,326,,,,,,,,,,,,,,,,,,,,,AMP,left,0.633718069846509,,,left,0,0.633718069846509,0,,,,,,,,,,,,,,,,,,,,,,1059,2019_Mar_13_1245,mf_amp_cond1,3.0.4,60.03488902773253,
fear,iptervention,&&&&&&&&&&&&,right,sanctity.vice,,,,,,,0,327,327,327,,,,,,,,,,,,,,,,,,,,,AMP,left,0.6337151833577082,,,left,0,0.6337151833577082,0,,,,,,,,,,,,,,,,,,,,,,1059,2019_Mar_13_1245,mf_amp_cond1,3.0.4,60.03488902773253,
,,,,,,,,,,,,,,,,,,,,,,,,,,,,,,,,,,,,,,,,,,,,5,16.889,,,,,,,,,,,,,,,,,,,,1059,2019_Mar_13_1245,mf_amp_cond1,3.0.4,60.03488902773253,
,,,,,,,,,,,,,,,,,,,,,,,,,,,,,,,,,,,,,,,,,,,,,,5,5.22,,,,,,,,,,,,,,,,,,1059,2019_Mar_13_1245,mf_amp_cond1,3.0.4,60.03488902773253,
,,,,,,,,,,,,,,,,,,,,,,,,,,,,,,,,,,,,,,,,,,,,,,,,3,5.703,,,,,,,,,,,,,,,,1059,2019_Mar_13_1245,mf_amp_cond1,3.0.4,60.03488902773253,
,,,,,,,,,,,,,,,,,,,,,,,,,,,,,,,,,,,,,,,,,,,,,,,,,,right,0.8504784190154169,,,,,,,,,,,,,,1059,2019_Mar_13_1245,mf_amp_cond1,3.0.4,60.03488902773253,
bisebell,,&&&&&&&,,,,,,,,,,,,,0,0,0,1,,,,,,,,,,,,,,,,,LDT_prac,right,1.1004955775861163,,,,,,0,,,,,,,,,right,1.1004955775861163,,,,,,,,,,,,1059,2019_Mar_13_1245,mf_amp_cond1,3.0.4,60.03488902773253,
keyboard,,&&&&&&&,,,,,,,,,,,,,0,1,1,0,,,,,,,,,,,,,,,,,LDT_prac,right,1.0338273714587558,,,,,,0,,,,,,,,,right,1.0338273714587558,,,,,,,,,,,,1059,2019_Mar_13_1245,mf_amp_cond1,3.0.4,60.03488902773253,
,,,,,,,,,,,,,,,,,,,,,,,,,,,,,,,,,,,,,,,,,,,,,,,,,,,,,,right,0.7504148521693423,,,,,,,,,,1059,2019_Mar_13_1245,mf_amp_cond1,3.0.4,60.03488902773253,
wherever,,&&&&&&&&,left,neutral,,,,,,,,,,,,,,,0,0,0,158,,,,,,,,,,,,,LDT,left,1.3338881801173557,,,,,,1,,,,,,,,,,,,,left,1,1.3338881801173557,,,,,,,1059,2019_Mar_13_1245,mf_amp_cond1,3.0.4,60.03488902773253,
sowntrodden,,&&&&&&&&&&&,right,nonword,,,,,,,,,,,,,,,0,1,1,62,,,,,,,,,,,,,LDT,left,0.850441215414321,,,,,,0,,,,,,,,,,,,,left,0,0.850441215414321,,,,,,,1059,2019_Mar_13_1245,mf_amp_cond1,3.0.4,60.03488902773253,
spag,,&&&&,None,nonword,,,,,,,,,,,,,,,0,2,2,151,,,,,,,,,,,,,LDT,left,0.6670698125381023,,,,,,0,,,,,,,,,,,,,left,0,0.6670698125381023,,,,,,,1059,2019_Mar_13_1245,mf_amp_cond1,3.0.4,60.03488902773253,
intelligence,,&&&&&&&&&&&&,left,loyalty.virtue,,,,,,,,,,,,,,,0,3,3,87,,,,,,,,,,,,,LDT,right,0.8669791769061703,,,,,,0,,,,,,,,,,,,,right,0,0.8669791769061703,,,,,,,1059,2019_Mar_13_1245,mf_amp_cond1,3.0.4,60.03488902773253,
even,,&&&&,left,neutral,,,,,,,,,,,,,,,0,4,4,184,,,,,,,,,,,,,LDT,right,0.8171205826511141,,,,,,0,,,,,,,,,,,,,right,0,0.8171205826511141,,,,,,,1059,2019_Mar_13_1245,mf_amp_cond1,3.0.4,60.03488902773253,
toward,,&&&&&&,left,neutral,,,,,,,,,,,,,,,0,5,5,183,,,,,,,,,,,,,LDT,right,0.7504119656805415,,,,,,0,,,,,,,,,,,,,right,0,0.7504119656805415,,,,,,,1059,2019_Mar_13_1245,mf_amp_cond1,3.0.4,60.03488902773253,
supervuned,,&&&&&&&&&&,right,nonword,,,,,,,,,,,,,,,0,6,6,60,,,,,,,,,,,,,LDT,right,0.7004016705614049,,,,,,1,,,,,,,,,,,,,right,1,0.7004016705614049,,,,,,,1059,2019_Mar_13_1245,mf_amp_cond1,3.0.4,60.03488902773253,
feleological,,&&&&&&&&&&&&,right,nonword,,,,,,,,,,,,,,,0,7,7,13,,,,,,,,,,,,,LDT,left,1.5839656341413502,,,,,,0,,,,,,,,,,,,,left,0,1.5839656341413502,,,,,,,1059,2019_Mar_13_1245,mf_amp_cond1,3.0.4,60.03488902773253,
died,,&&&&,left,care.vice,,,,,,,,,,,,,,,0,8,8,159,,,,,,,,,,,,,LDT,left,0.8671299155976158,,,,,,1,,,,,,,,,,,,,left,1,0.8671299155976158,,,,,,,1059,2019_Mar_13_1245,mf_amp_cond1,3.0.4,60.03488902773253,
smapper,,&&&&&&&,right,nonword,,,,,,,,,,,,,,,0,9,9,61,,,,,,,,,,,,,LDT,left,1.0004708179621957,,,,,,0,,,,,,,,,,,,,left,0,1.0004708179621957,,,,,,,1059,2019_Mar_13_1245,mf_amp_cond1,3.0.4,60.03488902773253,
progress,,&&&&&&&&,left,authority.virtue,,,,,,,,,,,,,,,0,10,10,16,,,,,,,,,,,,,LDT,right,0.6670451170648448,,,,,,0,,,,,,,,,,,,,right,0,0.6670451170648448,,,,,,,1059,2019_Mar_13_1245,mf_amp_cond1,3.0.4,60.03488902773253,
safe,,&&&&,left,care.virtue,,,,,,,,,,,,,,,0,11,11,120,,,,,,,,,,,,,LDT,right,0.6170585552463308,,,,,,0,,,,,,,,,,,,,right,0,0.6170585552463308,,,,,,,1059,2019_Mar_13_1245,mf_amp_cond1,3.0.4,60.03488902773253,
celebrated,,&&&&&&&&&&,left,authority.virtue,,,,,,,,,,,,,,,0,12,12,89,,,,,,,,,,,,,LDT,right,0.683726119925268,,,,,,0,,,,,,,,,,,,,right,0,0.683726119925268,,,,,,,1059,2019_Mar_13_1245,mf_amp_cond1,3.0.4,60.03488902773253,
fontacts,,&&&&&&&&,right,nonword,,,,,,,,,,,,,,,0,13,13,18,,,,,,,,,,,,,LDT,right,1.217192039184738,,,,,,1,,,,,,,,,,,,,right,1,1.217192039184738,,,,,,,1059,2019_Mar_13_1245,mf_amp_cond1,3.0.4,60.03488902773253,
tove,,&&&&,right,nonword,,,,,,,,,,,,,,,0,14,14,190,,,,,,,,,,,,,LDT,right,0.667047682829434,,,,,,1,,,,,,,,,,,,,right,1,0.667047682829434,,,,,,,1059,2019_Mar_13_1245,mf_amp_cond1,3.0.4,60.03488902773253,
pescinded,,&&&&&&&&&,right,nonword,,,,,,,,,,,,,,,0,15,15,81,,,,,,,,,,,,,LDT,left,0.7504238323890604,,,,,,0,,,,,,,,,,,,,left,0,0.7504238323890604,,,,,,,1059,2019_Mar_13_1245,mf_amp_cond1,3.0.4,60.03488902773253,
dramens,,&&&&&&&,right,nonword,,,,,,,,,,,,,,,0,16,16,118,,,,,,,,,,,,,LDT,left,0.9836855808680411,,,,,,0,,,,,,,,,,,,,left,0,0.9836855808680411,,,,,,,1059,2019_Mar_13_1245,mf_amp_cond1,3.0.4,60.03488902773253,
neputized,,&&&&&&&&&,right,nonword,,,,,,,,,,,,,,,0,17,17,84,,,,,,,,,,,,,LDT,left,0.983808096149005,,,,,,0,,,,,,,,,,,,,left,0,0.983808096149005,,,,,,,1059,2019_Mar_13_1245,mf_amp_cond1,3.0.4,60.03488902773253,
mostly,,&&&&&&,left,neutral,,,,,,,,,,,,,,,0,18,18,8,,,,,,,,,,,,,LDT,left,1.4839434402820189,,,,,,1,,,,,,,,,,,,,left,1,1.4839434402820189,,,,,,,1059,2019_Mar_13_1245,mf_amp_cond1,3.0.4,60.03488902773253,
Loorish,,&&&&&&&,right,nonword,,,,,,,,,,,,,,,0,19,19,134,,,,,,,,,,,,,LDT,left,0.700423800299177,,,,,,0,,,,,,,,,,,,,left,0,0.700423800299177,,,,,,,1059,2019_Mar_13_1245,mf_amp_cond1,3.0.4,60.03488902773253,
black,,&&&&&,left,loyalty.vice,,,,,,,,,,,,,,,0,20,20,147,,,,,,,,,,,,,LDT,right,0.7337271141586825,,,,,,0,,,,,,,,,,,,,right,0,0.7337271141586825,,,,,,,1059,2019_Mar_13_1245,mf_amp_cond1,3.0.4,60.03488902773253,
critics,,&&&&&&&,left,loyalty.vice,,,,,,,,,,,,,,,0,21,21,56,,,,,,,,,,,,,LDT,left,0.6837216298445128,,,,,,1,,,,,,,,,,,,,left,1,0.6837216298445128,,,,,,,1059,2019_Mar_13_1245,mf_amp_cond1,3.0.4,60.03488902773253,
party,,&&&&&,left,loyalty.virtue,,,,,,,,,,,,,,,0,22,22,142,,,,,,,,,,,,,LDT,right,0.4670193311176263,,,,,,0,,,,,,,,,,,,,right,0,0.4670193311176263,,,,,,,1059,2019_Mar_13_1245,mf_amp_cond1,3.0.4,60.03488902773253,
atson,,&&&&&,right,nonword,,,,,,,,,,,,,,,0,23,23,111,,,,,,,,,,,,,LDT,right,0.4003325231897179,,,,,,1,,,,,,,,,,,,,right,1,0.4003325231897179,,,,,,,1059,2019_Mar_13_1245,mf_amp_cond1,3.0.4,60.03488902773253,
could,,&&&&&,left,neutral,,,,,,,,,,,,,,,0,24,24,4,,,,,,,,,,,,,LDT,right,0.8004270716337487,,,,,,0,,,,,,,,,,,,,right,0,0.8004270716337487,,,,,,,1059,2019_Mar_13_1245,mf_amp_cond1,3.0.4,60.03488902773253,
laming,,&&&&&&,right,nonword,,,,,,,,,,,,,,,0,25,25,157,,,,,,,,,,,,,LDT,right,0.6503929790342227,,,,,,1,,,,,,,,,,,,,right,1,0.6503929790342227,,,,,,,1059,2019_Mar_13_1245,mf_amp_cond1,3.0.4,60.03488902773253,
pafer,,&&&&&,right,nonword,,,,,,,,,,,,,,,0,26,26,25,,,,,,,,,,,,,LDT,right,0.6003749865922146,,,,,,1,,,,,,,,,,,,,right,1,0.6003749865922146,,,,,,,1059,2019_Mar_13_1245,mf_amp_cond1,3.0.4,60.03488902773253,
abuse,,&&&&&,left,sanctity.vice,,,,,,,,,,,,,,,0,27,27,21,,,,,,,,,,,,,LDT,right,0.4503399318200536,,,,,,0,,,,,,,,,,,,,right,0,0.4503399318200536,,,,,,,1059,2019_Mar_13_1245,mf_amp_cond1,3.0.4,60.03488902773253,
nomaric,,&&&&&&&,None,nonword,,,,,,,,,,,,,,,0,28,28,126,,,,,,,,,,,,,LDT,right,0.43366341906948946,,,,,,0,,,,,,,,,,,,,right,0,0.43366341906948946,,,,,,,1059,2019_Mar_13_1245,mf_amp_cond1,3.0.4,60.03488902773253,
gondensed,,&&&&&&&&&,right,nonword,,,,,,,,,,,,,,,0,29,29,197,,,,,,,,,,,,,LDT,left,0.45032902734237723,,,,,,0,,,,,,,,,,,,,left,0,0.45032902734237723,,,,,,,1059,2019_Mar_13_1245,mf_amp_cond1,3.0.4,60.03488902773253,
credit,,&&&&&&,left,fairness.virtue,,,,,,,,,,,,,,,0,30,30,82,,,,,,,,,,,,,LDT,left,0.733721020485973,,,,,,1,,,,,,,,,,,,,left,1,0.733721020485973,,,,,,,1059,2019_Mar_13_1245,mf_amp_cond1,3.0.4,60.03488902773253,
dignity,,&&&&&&&,left,sanctity.virtue,,,,,,,,,,,,,,,0,31,31,129,,,,,,,,,,,,,LDT,left,0.5003550378023647,,,,,,1,,,,,,,,,,,,,left,1,0.5003550378023647,,,,,,,1059,2019_Mar_13_1245,mf_amp_cond1,3.0.4,60.03488902773253,
help,,&&&&,left,care.virtue,,,,,,,,,,,,,,,0,32,32,179,,,,,,,,,,,,,LDT,right,0.6337235220998991,,,,,,0,,,,,,,,,,,,,right,0,0.6337235220998991,,,,,,,1059,2019_Mar_13_1245,mf_amp_cond1,3.0.4,60.03488902773253,
frocessing,,&&&&&&&&&&,right,nonword,,,,,,,,,,,,,,,0,33,33,48,,,,,,,,,,,,,LDT,left,0.4836820529017132,,,,,,0,,,,,,,,,,,,,left,0,0.4836820529017132,,,,,,,1059,2019_Mar_13_1245,mf_amp_cond1,3.0.4,60.03488902773253,
fifty,,&&&&&,left,neutral,,,,,,,,,,,,,,,0,34,34,188,,,,,,,,,,,,,LDT,right,0.41699909363524057,,,,,,0,,,,,,,,,,,,,right,0,0.41699909363524057,,,,,,,1059,2019_Mar_13_1245,mf_amp_cond1,3.0.4,60.03488902773253,
opportunity,,&&&&&&&&&&&,left,fairness.virtue,,,,,,,,,,,,,,,0,35,35,110,,,,,,,,,,,,,LDT,right,0.6837251577817369,,,,,,0,,,,,,,,,,,,,right,0,0.6837251577817369,,,,,,,1059,2019_Mar_13_1245,mf_amp_cond1,3.0.4,60.03488902773253,
forty,,&&&&&,left,neutral,,,,,,,,,,,,,,,0,36,36,173,,,,,,,,,,,,,LDT,right,0.4836701862514019,,,,,,0,,,,,,,,,,,,,right,0,0.4836701862514019,,,,,,,1059,2019_Mar_13_1245,mf_amp_cond1,3.0.4,60.03488902773253,
increase,,&&&&&&&&,left,care.virtue,,,,,,,,,,,,,,,0,37,37,23,,,,,,,,,,,,,LDT,right,0.3836556896858383,,,,,,0,,,,,,,,,,,,,right,0,0.3836556896858383,,,,,,,1059,2019_Mar_13_1245,mf_amp_cond1,3.0.4,60.03488902773253,
tislay,,&&&&&&,right,nonword,,,,,,,,,,,,,,,0,38,38,35,,,,,,,,,,,,,LDT,right,0.35031805868493393,,,,,,1,,,,,,,,,,,,,right,1,0.35031805868493393,,,,,,,1059,2019_Mar_13_1245,mf_amp_cond1,3.0.4,60.03488902773253,
metibolic,,&&&&&&&&&,right,nonword,,,,,,,,,,,,,,,0,39,39,27,,,,,,,,,,,,,LDT,right,0.4003357304027304,,,,,,1,,,,,,,,,,,,,right,1,0.4003357304027304,,,,,,,1059,2019_Mar_13_1245,mf_amp_cond1,3.0.4,60.03488902773253,
rorroborated,,&&&&&&&&&&&&,right,nonword,,,,,,,,,,,,,,,0,40,40,122,,,,,,,,,,,,,LDT,left,0.5837113026354928,,,,,,0,,,,,,,,,,,,,left,0,0.5837113026354928,,,,,,,1059,2019_Mar_13_1245,mf_amp_cond1,3.0.4,60.03488902773253,
ammessment,,&&&&&&&&&&,right,nonword,,,,,,,,,,,,,,,0,41,41,37,,,,,,,,,,,,,LDT,right,0.33365758194122463,,,,,,1,,,,,,,,,,,,,right,1,0.33365758194122463,,,,,,,1059,2019_Mar_13_1245,mf_amp_cond1,3.0.4,60.03488902773253,
threatened,,&&&&&&&&&&,left,fairness.vice,,,,,,,,,,,,,,,0,42,42,135,,,,,,,,,,,,,LDT,right,1.4839367051317822,,,,,,0,,,,,,,,,,,,,right,0,1.4839367051317822,,,,,,,1059,2019_Mar_13_1245,mf_amp_cond1,3.0.4,60.03488902773253,
gun,,&&&,left,authority.vice,,,,,,,,,,,,,,,0,43,43,77,,,,,,,,,,,,,LDT,right,1.0671473628317472,,,,,,0,,,,,,,,,,,,,right,0,1.0671473628317472,,,,,,,1059,2019_Mar_13_1245,mf_amp_cond1,3.0.4,60.03488902773253,
three,,&&&&&,left,neutral,,,,,,,,,,,,,,,0,44,44,46,,,,,,,,,,,,,LDT,right,0.5003627350670286,,,,,,0,,,,,,,,,,,,,right,0,0.5003627350670286,,,,,,,1059,2019_Mar_13_1245,mf_amp_cond1,3.0.4,60.03488902773253,
prones,,&&&&&&,right,nonword,,,,,,,,,,,,,,,0,45,45,176,,,,,,,,,,,,,LDT,right,0.5003659423091449,,,,,,1,,,,,,,,,,,,,right,1,0.5003659423091449,,,,,,,1059,2019_Mar_13_1245,mf_amp_cond1,3.0.4,60.03488902773253,
fonderland,,&&&&&&&&&&,right,nonword,,,,,,,,,,,,,,,0,46,46,5,,,,,,,,,,,,,LDT,right,0.5003460576117504,,,,,,1,,,,,,,,,,,,,right,1,0.5003460576117504,,,,,,,1059,2019_Mar_13_1245,mf_amp_cond1,3.0.4,60.03488902773253,
love,,&&&&,left,loyalty.virtue,,,,,,,,,,,,,,,0,47,47,7,,,,,,,,,,,,,LDT,right,0.43366341904038563,,,,,,0,,,,,,,,,,,,,right,0,0.43366341904038563,,,,,,,1059,2019_Mar_13_1245,mf_amp_cond1,3.0.4,60.03488902773253,
troops,,&&&&&&,left,loyalty.vice,,,,,,,,,,,,,,,0,48,48,152,,,,,,,,,,,,,LDT,right,0.5337048561486881,,,,,,0,,,,,,,,,,,,,right,0,0.5337048561486881,,,,,,,1059,2019_Mar_13_1245,mf_amp_cond1,3.0.4,60.03488902773253,
prison,,&&&&&&,left,fairness.vice,,,,,,,,,,,,,,,0,49,49,193,,,,,,,,,,,,,LDT,right,0.5502254987077322,,,,,,0,,,,,,,,,,,,,right,0,0.5502254987077322,,,,,,,1059,2019_Mar_13_1245,mf_amp_cond1,3.0.4,60.03488902773253,
framatic,,&&&&&&&&,right,nonword,,,,,,,,,,,,,,,0,50,50,41,,,,,,,,,,,,,LDT,right,0.8171225069672801,,,,,,1,,,,,,,,,,,,,right,1,0.8171225069672801,,,,,,,1059,2019_Mar_13_1245,mf_amp_cond1,3.0.4,60.03488902773253,
presentkess,,&&&&&&&&&&&,right,nonword,,,,,,,,,,,,,,,0,51,51,65,,,,,,,,,,,,,LDT,right,0.8337669476750307,,,,,,1,,,,,,,,,,,,,right,1,0.8337669476750307,,,,,,,1059,2019_Mar_13_1245,mf_amp_cond1,3.0.4,60.03488902773253,
tabin,,&&&&&,right,nonword,,,,,,,,,,,,,,,0,52,52,2,,,,,,,,,,,,,LDT,left,1.000489099038532,,,,,,0,,,,,,,,,,,,,left,0,1.000489099038532,,,,,,,1059,2019_Mar_13_1245,mf_amp_cond1,3.0.4,60.03488902773253,
asn,,&&&,right,nonword,,,,,,,,,,,,,,,0,53,53,154,,,,,,,,,,,,,LDT,right,1.3505688622535672,,,,,,1,,,,,,,,,,,,,right,1,1.3505688622535672,,,,,,,1059,2019_Mar_13_1245,mf_amp_cond1,3.0.4,60.03488902773253,
thadowed,,&&&&&&&&,right,nonword,,,,,,,,,,,,,,,0,54,54,168,,,,,,,,,,,,,LDT,right,0.7170720896683633,,,,,,1,,,,,,,,,,,,,right,1,0.7170720896683633,,,,,,,1059,2019_Mar_13_1245,mf_amp_cond1,3.0.4,60.03488902773253,
police,,&&&&&&,left,authority.vice,,,,,,,,,,,,,,,0,55,55,104,,,,,,,,,,,,,LDT,right,0.6504006763279904,,,,,,0,,,,,,,,,,,,,right,0,0.6504006763279904,,,,,,,1059,2019_Mar_13_1245,mf_amp_cond1,3.0.4,60.03488902773253,
both,,&&&&,left,neutral,,,,,,,,,,,,,,,0,56,56,148,,,,,,,,,,,,,LDT,right,0.5502498734858818,,,,,,0,,,,,,,,,,,,,right,0,0.5502498734858818,,,,,,,1059,2019_Mar_13_1245,mf_amp_cond1,3.0.4,60.03488902773253,
powerful,,&&&&&&&&,left,authority.virtue,,,,,,,,,,,,,,,0,57,57,54,,,,,,,,,,,,,LDT,right,0.5002161657321267,,,,,,0,,,,,,,,,,,,,right,0,0.5002161657321267,,,,,,,1059,2019_Mar_13_1245,mf_amp_cond1,3.0.4,60.03488902773253,
letish,,&&&&&&,right,nonword,,,,,,,,,,,,,,,0,58,58,121,,,,,,,,,,,,,LDT,right,0.5170200046268292,,,,,,1,,,,,,,,,,,,,right,1,0.5170200046268292,,,,,,,1059,2019_Mar_13_1245,mf_amp_cond1,3.0.4,60.03488902773253,
noped,,&&&&&,right,nonword,,,,,,,,,,,,,,,0,59,59,155,,,,,,,,,,,,,LDT,right,0.5336772741866298,,,,,,1,,,,,,,,,,,,,right,1,0.5336772741866298,,,,,,,1059,2019_Mar_13_1245,mf_amp_cond1,3.0.4,60.03488902773253,
free,,&&&&,left,fairness.virtue,,,,,,,,,,,,,,,0,60,60,119,,,,,,,,,,,,,LDT,right,0.6003714586549904,,,,,,0,,,,,,,,,,,,,right,0,0.6003714586549904,,,,,,,1059,2019_Mar_13_1245,mf_amp_cond1,3.0.4,60.03488902773253,
torture,,&&&&&&&,left,care.vice,,,,,,,,,,,,,,,0,61,61,136,,,,,,,,,,,,,LDT,right,0.9004912799282465,,,,,,0,,,,,,,,,,,,,right,0,0.9004912799282465,,,,,,,1059,2019_Mar_13_1245,mf_amp_cond1,3.0.4,60.03488902773253,
cromiscuity,,&&&&&&&&&&&,right,nonword,,,,,,,,,,,,,,,0,62,62,182,,,,,,,,,,,,,LDT,left,0.5503547491389327,,,,,,0,,,,,,,,,,,,,left,0,0.5503547491389327,,,,,,,1059,2019_Mar_13_1245,mf_amp_cond1,3.0.4,60.03488902773253,
fighters,,&&&&&&&&,left,authority.vice,,,,,,,,,,,,,,,0,63,63,194,,,,,,,,,,,,,LDT,right,0.8336441116698552,,,,,,0,,,,,,,,,,,,,right,0,0.8336441116698552,,,,,,,1059,2019_Mar_13_1245,mf_amp_cond1,3.0.4,60.03488902773253,
idexpressible,,&&&&&&&&&&&&&,right,nonword,,,,,,,,,,,,,,,0,64,64,42,,,,,,,,,,,,,LDT,left,0.6337110139720608,,,,,,0,,,,,,,,,,,,,left,0,0.6337110139720608,,,,,,,1059,2019_Mar_13_1245,mf_amp_cond1,3.0.4,60.03488902773253,
there,,&&&&&,left,neutral,,,,,,,,,,,,,,,0,65,65,100,,,,,,,,,,,,,LDT,right,0.5003704323899001,,,,,,0,,,,,,,,,,,,,right,0,0.5003704323899001,,,,,,,1059,2019_Mar_13_1245,mf_amp_cond1,3.0.4,60.03488902773253,
nomparisons,,&&&&&&&&&&&,right,nonword,,,,,,,,,,,,,,,0,66,66,112,,,,,,,,,,,,,LDT,left,0.5670219610328786,,,,,,0,,,,,,,,,,,,,left,0,0.5670219610328786,,,,,,,1059,2019_Mar_13_1245,mf_amp_cond1,3.0.4,60.03488902773253,
terrorists,,&&&&&&&&&&,left,fairness.vice,,,,,,,,,,,,,,,0,67,67,12,,,,,,,,,,,,,LDT,right,0.6670621152443346,,,,,,0,,,,,,,,,,,,,right,0,0.6670621152443346,,,,,,,1059,2019_Mar_13_1245,mf_amp_cond1,3.0.4,60.03488902773253,
thabbily,,&&&&&&&&,right,nonword,,,,,,,,,,,,,,,0,68,68,178,,,,,,,,,,,,,LDT,left,0.5003450954391155,,,,,,0,,,,,,,,,,,,,left,0,0.5003450954391155,,,,,,,1059,2019_Mar_13_1245,mf_amp_cond1,3.0.4,60.03488902773253,
squets,,&&&&&&,right,nonword,,,,,,,,,,,,,,,0,69,69,85,,,,,,,,,,,,,LDT,right,0.5337301930994727,,,,,,1,,,,,,,,,,,,,right,1,0.5337301930994727,,,,,,,1059,2019_Mar_13_1245,mf_amp_cond1,3.0.4,60.03488902773253,
peace,,&&&&&,left,care.virtue,,,,,,,,,,,,,,,0,70,70,26,,,,,,,,,,,,,LDT,right,0.5670460150577128,,,,,,0,,,,,,,,,,,,,right,0,0.5670460150577128,,,,,,,1059,2019_Mar_13_1245,mf_amp_cond1,3.0.4,60.03488902773253,
been,,&&&&,left,neutral,,,,,,,,,,,,,,,0,71,71,180,,,,,,,,,,,,,LDT,right,0.4503973408427555,,,,,,0,,,,,,,,,,,,,right,0,0.4503973408427555,,,,,,,1059,2019_Mar_13_1245,mf_amp_cond1,3.0.4,60.03488902773253,
violence,,&&&&&&&&,left,care.vice,,,,,,,,,,,,,,,0,72,72,24,,,,,,,,,,,,,LDT,right,0.4670084266399499,,,,,,0,,,,,,,,,,,,,right,0,0.4670084266399499,,,,,,,1059,2019_Mar_13_1245,mf_amp_cond1,3.0.4,60.03488902773253,
anything,,&&&&&&&&,left,neutral,,,,,,,,,,,,,,,0,73,73,43,,,,,,,,,,,,,LDT,right,0.4670177274965681,,,,,,0,,,,,,,,,,,,,right,0,0.4670177274965681,,,,,,,1059,2019_Mar_13_1245,mf_amp_cond1,3.0.4,60.03488902773253,
menizen,,&&&&&&&,None,nonword,,,,,,,,,,,,,,,0,74,74,131,,,,,,,,,,,,,LDT,left,0.9004531141545158,,,,,,0,,,,,,,,,,,,,left,0,0.9004531141545158,,,,,,,1059,2019_Mar_13_1245,mf_amp_cond1,3.0.4,60.03488902773253,
towards,,&&&&&&&,left,neutral,,,,,,,,,,,,,,,0,75,75,177,,,,,,,,,,,,,LDT,right,0.5336955552629661,,,,,,0,,,,,,,,,,,,,right,0,0.5336955552629661,,,,,,,1059,2019_Mar_13_1245,mf_amp_cond1,3.0.4,60.03488902773253,
freedom,,&&&&&&&,left,sanctity.virtue,,,,,,,,,,,,,,,0,76,76,57,,,,,,,,,,,,,LDT,right,0.517021928972099,,,,,,0,,,,,,,,,,,,,right,0,0.517021928972099,,,,,,,1059,2019_Mar_13_1245,mf_amp_cond1,3.0.4,60.03488902773253,
baladroit,,&&&&&&&&&,right,nonword,,,,,,,,,,,,,,,0,77,77,33,,,,,,,,,,,,,LDT,right,0.9837965501938015,,,,,,1,,,,,,,,,,,,,right,1,0.9837965501938015,,,,,,,1059,2019_Mar_13_1245,mf_amp_cond1,3.0.4,60.03488902773253,
somehow,,&&&&&&&,left,neutral,,,,,,,,,,,,,,,0,78,78,88,,,,,,,,,,,,,LDT,right,0.5503643707779702,,,,,,0,,,,,,,,,,,,,right,0,0.5503643707779702,,,,,,,1059,2019_Mar_13_1245,mf_amp_cond1,3.0.4,60.03488902773253,
taxpayung,,&&&&&&&&&,right,nonword,,,,,,,,,,,,,,,0,79,79,196,,,,,,,,,,,,,LDT,right,0.5003957693115808,,,,,,1,,,,,,,,,,,,,right,1,0.5003957693115808,,,,,,,1059,2019_Mar_13_1245,mf_amp_cond1,3.0.4,60.03488902773253,
discovars,,&&&&&&&&&,right,nonword,,,,,,,,,,,,,,,0,80,80,163,,,,,,,,,,,,,LDT,right,0.36700002374709584,,,,,,1,,,,,,,,,,,,,right,1,0.36700002374709584,,,,,,,1059,2019_Mar_13_1245,mf_amp_cond1,3.0.4,60.03488902773253,
voter,,&&&&&,left,fairness.vice,,,,,,,,,,,,,,,0,81,81,105,,,,,,,,,,,,,LDT,right,0.45034345975727774,,,,,,0,,,,,,,,,,,,,right,0,0.45034345975727774,,,,,,,1059,2019_Mar_13_1245,mf_amp_cond1,3.0.4,60.03488902773253,
itself,,&&&&&&,left,neutral,,,,,,,,,,,,,,,0,82,82,83,,,,,,,,,,,,,LDT,right,0.31697144752251916,,,,,,0,,,,,,,,,,,,,right,0,0.31697144752251916,,,,,,,1059,2019_Mar_13_1245,mf_amp_cond1,3.0.4,60.03488902773253,
pulge,,&&&&&,right,nonword,,,,,,,,,,,,,,,0,83,83,138,,,,,,,,,,,,,LDT,right,0.3336325657146517,,,,,,1,,,,,,,,,,,,,right,1,0.3336325657146517,,,,,,,1059,2019_Mar_13_1245,mf_amp_cond1,3.0.4,60.03488902773253,
edancipation,,&&&&&&&&&&&&,None,nonword,,,,,,,,,,,,,,,0,84,84,50,,,,,,,,,,,,,LDT,right,0.4003338060574606,,,,,,0,,,,,,,,,,,,,right,0,0.4003338060574606,,,,,,,1059,2019_Mar_13_1245,mf_amp_cond1,3.0.4,60.03488902773253,
whereafter,,&&&&&&&&&&,left,neutral,,,,,,,,,,,,,,,0,85,85,68,,,,,,,,,,,,,LDT,right,0.31696791961439885,,,,,,0,,,,,,,,,,,,,right,0,0.31696791961439885,,,,,,,1059,2019_Mar_13_1245,mf_amp_cond1,3.0.4,60.03488902773253,
latter,,&&&&&&,left,neutral,,,,,,,,,,,,,,,0,86,86,113,,,,,,,,,,,,,LDT,right,0.3503228695190046,,,,,,0,,,,,,,,,,,,,right,0,0.3503228695190046,,,,,,,1059,2019_Mar_13_1245,mf_amp_cond1,3.0.4,60.03488902773253,
quarterbocks,,&&&&&&&&&&&&,right,nonword,,,,,,,,,,,,,,,0,87,87,169,,,,,,,,,,,,,LDT,right,0.5337026111083105,,,,,,1,,,,,,,,,,,,,right,1,0.5337026111083105,,,,,,,1059,2019_Mar_13_1245,mf_amp_cond1,3.0.4,60.03488902773253,
were,,&&&&,left,neutral,,,,,,,,,,,,,,,0,88,88,70,,,,,,,,,,,,,LDT,right,0.3837493401370011,,,,,,0,,,,,,,,,,,,,right,0,0.3837493401370011,,,,,,,1059,2019_Mar_13_1245,mf_amp_cond1,3.0.4,60.03488902773253,
latterly,,&&&&&&&&,left,neutral,,,,,,,,,,,,,,,0,89,89,175,,,,,,,,,,,,,LDT,right,0.4503566093335394,,,,,,0,,,,,,,,,,,,,right,0,0.4503566093335394,,,,,,,1059,2019_Mar_13_1245,mf_amp_cond1,3.0.4,60.03488902773253,
focomotive,,&&&&&&&&&&,right,nonword,,,,,,,,,,,,,,,0,90,90,14,,,,,,,,,,,,,LDT,right,0.333607228792971,,,,,,1,,,,,,,,,,,,,right,1,0.333607228792971,,,,,,,1059,2019_Mar_13_1245,mf_amp_cond1,3.0.4,60.03488902773253,
lursuer,,&&&&&&&,right,nonword,,,,,,,,,,,,,,,0,91,91,53,,,,,,,,,,,,,LDT,right,0.36698719492414966,,,,,,1,,,,,,,,,,,,,right,1,0.36698719492414966,,,,,,,1059,2019_Mar_13_1245,mf_amp_cond1,3.0.4,60.03488902773253,
war,,&&&,left,sanctity.vice,,,,,,,,,,,,,,,0,92,92,11,,,,,,,,,,,,,LDT,right,0.4170199404761661,,,,,,0,,,,,,,,,,,,,right,0,0.4170199404761661,,,,,,,1059,2019_Mar_13_1245,mf_amp_cond1,3.0.4,60.03488902773253,
reviked,,&&&&&&&,right,nonword,,,,,,,,,,,,,,,0,93,93,103,,,,,,,,,,,,,LDT,right,0.43366149472421966,,,,,,1,,,,,,,,,,,,,right,1,0.43366149472421966,,,,,,,1059,2019_Mar_13_1245,mf_amp_cond1,3.0.4,60.03488902773253,
with,,&&&&,left,neutral,,,,,,,,,,,,,,,0,94,94,137,,,,,,,,,,,,,LDT,right,0.3336389801406767,,,,,,0,,,,,,,,,,,,,right,0,0.3336389801406767,,,,,,,1059,2019_Mar_13_1245,mf_amp_cond1,3.0.4,60.03488902773253,
energy,,&&&&&&,left,sanctity.virtue,,,,,,,,,,,,,,,0,95,95,128,,,,,,,,,,,,,LDT,right,0.35031645506387576,,,,,,0,,,,,,,,,,,,,right,0,0.35031645506387576,,,,,,,1059,2019_Mar_13_1245,mf_amp_cond1,3.0.4,60.03488902773253,
nuckheap,,&&&&&&&&,right,nonword,,,,,,,,,,,,,,,0,96,96,15,,,,,,,,,,,,,LDT,right,0.3836511996050831,,,,,,1,,,,,,,,,,,,,right,1,0.3836511996050831,,,,,,,1059,2019_Mar_13_1245,mf_amp_cond1,3.0.4,60.03488902773253,
seem,,&&&&,left,neutral,,,,,,,,,,,,,,,0,97,97,156,,,,,,,,,,,,,LDT,right,0.5170174388622399,,,,,,0,,,,,,,,,,,,,right,0,0.5170174388622399,,,,,,,1059,2019_Mar_13_1245,mf_amp_cond1,3.0.4,60.03488902773253,
elduringly,,&&&&&&&&&&,right,nonword,,,,,,,,,,,,,,,0,98,98,49,,,,,,,,,,,,,LDT,right,0.45033383814734407,,,,,,1,,,,,,,,,,,,,right,1,0.45033383814734407,,,,,,,1059,2019_Mar_13_1245,mf_amp_cond1,3.0.4,60.03488902773253,
scock,,&&&&&,right,nonword,,,,,,,,,,,,,,,0,99,99,115,,,,,,,,,,,,,LDT,right,0.3669708381348755,,,,,,1,,,,,,,,,,,,,right,1,0.3669708381348755,,,,,,,1059,2019_Mar_13_1245,mf_amp_cond1,3.0.4,60.03488902773253,
each,,&&&&,left,neutral,,,,,,,,,,,,,,,0,100,100,80,,,,,,,,,,,,,LDT,right,0.4003283538040705,,,,,,0,,,,,,,,,,,,,right,0,0.4003283538040705,,,,,,,1059,2019_Mar_13_1245,mf_amp_cond1,3.0.4,60.03488902773253,
bluently,,&&&&&&&&,None,nonword,,,,,,,,,,,,,,,0,101,101,198,,,,,,,,,,,,,LDT,right,0.3669756489689462,,,,,,0,,,,,,,,,,,,,right,0,0.3669756489689462,,,,,,,1059,2019_Mar_13_1245,mf_amp_cond1,3.0.4,60.03488902773253,
fornicalion,,&&&&&&&&&&&,right,nonword,,,,,,,,,,,,,,,0,102,102,96,,,,,,,,,,,,,LDT,right,0.3336319242953323,,,,,,1,,,,,,,,,,,,,right,1,0.3336319242953323,,,,,,,1059,2019_Mar_13_1245,mf_amp_cond1,3.0.4,60.03488902773253,
yane,,&&&&,right,nonword,,,,,,,,,,,,,,,0,103,103,94,,,,,,,,,,,,,LDT,right,0.45033672463614494,,,,,,1,,,,,,,,,,,,,right,1,0.45033672463614494,,,,,,,1059,2019_Mar_13_1245,mf_amp_cond1,3.0.4,60.03488902773253,
although,,&&&&&&&&,left,neutral,,,,,,,,,,,,,,,0,104,104,165,,,,,,,,,,,,,LDT,right,0.35035301724565215,,,,,,0,,,,,,,,,,,,,right,0,0.35035301724565215,,,,,,,1059,2019_Mar_13_1245,mf_amp_cond1,3.0.4,60.03488902773253,
strong,,&&&&&&,left,loyalty.virtue,,,,,,,,,,,,,,,0,105,105,191,,,,,,,,,,,,,LDT,right,0.31696503309649415,,,,,,0,,,,,,,,,,,,,right,0,0.31696503309649415,,,,,,,1059,2019_Mar_13_1245,mf_amp_cond1,3.0.4,60.03488902773253,
done,,&&&&,left,neutral,,,,,,,,,,,,,,,0,106,106,133,,,,,,,,,,,,,LDT,right,0.3335231999808457,,,,,,0,,,,,,,,,,,,,right,0,0.3335231999808457,,,,,,,1059,2019_Mar_13_1245,mf_amp_cond1,3.0.4,60.03488902773253,
antral,,&&&&&&,right,nonword,,,,,,,,,,,,,,,0,107,107,181,,,,,,,,,,,,,LDT,right,0.35031837940914556,,,,,,1,,,,,,,,,,,,,right,1,0.35031837940914556,,,,,,,1059,2019_Mar_13_1245,mf_amp_cond1,3.0.4,60.03488902773253,
chressing,,&&&&&&&&&,None,nonword,,,,,,,,,,,,,,,0,108,108,139,,,,,,,,,,,,,LDT,right,0.4336528352869209,,,,,,0,,,,,,,,,,,,,right,0,0.4336528352869209,,,,,,,1059,2019_Mar_13_1245,mf_amp_cond1,3.0.4,60.03488902773253,
