words,mask,corr_ans,category,nonwords,tweets,topic,LDT_pracloop.thisRepN,LDT_pracloop.thisTrialN,LDT_pracloop.thisN,LDT_pracloop.thisIndex,LDT_trials.thisRepN,LDT_trials.thisTrialN,LDT_trials.thisN,LDT_trials.thisIndex,AMP_pracloop.thisRepN,AMP_pracloop.thisTrialN,AMP_pracloop.thisN,AMP_pracloop.thisIndex,AMP_trials.thisRepN,AMP_trials.thisTrialN,AMP_trials.thisN,AMP_trials.thisIndex,tweet_loop.thisRepN,tweet_loop.thisTrialN,tweet_loop.thisN,tweet_loop.thisIndex,begin_key.keys,begin_key.rt,key_resp_AMP_instr1.keys,key_resp_AMP_instr1.rt,key_resp_LDT_instr.keys,key_resp_LDT_instr.rt,resp_LDT_prac.keys,resp_LDT_prac.rt,task,keypress,RT,corr,resp_LDT_ready.keys,resp_LDT_ready.rt,resp_LDT.keys,resp_LDT.corr,resp_LDT.rt,LDT_rating.response,LDT_rating.rt,resp_AMP_ready1.keys,resp_AMP_ready1.rt,resp_AMP_prac.keys,resp_AMP_prac.rt,resp_AMP_ready.keys,resp_AMP_ready.rt,resp_AMP.keys,resp_AMP.corr,resp_AMP.rt,AMP_nonword_rating.response,AMP_nonword_rating.rt,AMP_word_rating.response,AMP_word_rating.rt,AMP_random_rating.response,AMP_random_rating.rt,key_resp_LDT_instr_2.keys,key_resp_LDT_instr_2.rt,resp_tweets.keys,resp_tweets.rt,participant,date,expName,psychopyVersion,frameRate,
,,,,,,,,,,,,,,,,,,,,,,,,,,,right,486.5846190408047,,,,,,,,,,,,,,,,,,,,,,,,,,,,,,,,,,,,,1062,2019_Mar_13_1459,mf_amp_cond2,3.0.4,59.97695559595148,
,,,,,,,,,,,,,,,,,,,,,,,,,,,,,right,1.500644002982881,,,,,,,,,,,,,,,,,,,,,,,,,,,,,,,,,,,1062,2019_Mar_13_1459,mf_amp_cond2,3.0.4,59.97695559595148,
,,,,,,,,,,,,,,,,,,,,,,,,,,,,,,,right,1.01701893331483,,,,,,,,,,,,,,,,,,,,,,,,,,,,,,,,,1062,2019_Mar_13_1459,mf_amp_cond2,3.0.4,59.97695559595148,
bisebell,&&&&&&&,,,,,,0,0,0,1,,,,,,,,,,,,,,,,,,,,,,,right,4.301316421624506,LDT_prac,right,4.301316421624506,0,,,,,,,,,,,,,,,,,,,,,,,,,,,1062,2019_Mar_13_1459,mf_amp_cond2,3.0.4,59.97695559595148,
keyboard,&&&&&&&,,,,,,0,1,1,0,,,,,,,,,,,,,,,,,,,,,,,right,1.2172060405428056,LDT_prac,right,1.2172060405428056,0,,,,,,,,,,,,,,,,,,,,,,,,,,,1062,2019_Mar_13_1459,mf_amp_cond2,3.0.4,59.97695559595148,
,,,,,,,,,,,,,,,,,,,,,,,,,,,,,,,,,,,,,,,right,0.9171298377914354,,,,,,,,,,,,,,,,,,,,,,,,,1062,2019_Mar_13_1459,mf_amp_cond2,3.0.4,59.97695559595148,
scock,&&&&&,right,nonword,,,,,,,,0,0,0,60,,,,,,,,,,,,,,,,,,,,,LDT,right,1.26720703477622,1,,,right,1,1.26720703477622,,,,,,,,,,,,,,,,,,,,,,1062,2019_Mar_13_1459,mf_amp_cond2,3.0.4,59.97695559595148,
trust,&&&&&,left,authority.virtue,,,,,,,,0,1,1,38,,,,,,,,,,,,,,,,,,,,,LDT,right,0.5837194251071196,0,,,right,0,0.5837194251071196,,,,,,,,,,,,,,,,,,,,,,1062,2019_Mar_13_1459,mf_amp_cond2,3.0.4,59.97695559595148,
nackers,&&&&&&&,right,nonword,,,,,,,,0,2,2,182,,,,,,,,,,,,,,,,,,,,,LDT,left,0.6170594079885632,0,,,left,0,0.6170594079885632,,,,,,,,,,,,,,,,,,,,,,1062,2019_Mar_13_1459,mf_amp_cond2,3.0.4,59.97695559595148,
emassion,&&&&&&&&,right,nonword,,,,,,,,0,3,3,15,,,,,,,,,,,,,,,,,,,,,LDT,right,1.1504946443310473,1,,,right,1,1.1504946443310473,,,,,,,,,,,,,,,,,,,,,,1062,2019_Mar_13_1459,mf_amp_cond2,3.0.4,59.97695559595148,
strofe,&&&&&&,right,nonword,,,,,,,,0,4,4,131,,,,,,,,,,,,,,,,,,,,,LDT,right,0.7003984608163591,1,,,right,1,0.7003984608163591,,,,,,,,,,,,,,,,,,,,,,1062,2019_Mar_13_1459,mf_amp_cond2,3.0.4,59.97695559595148,
tomedians,&&&&&&&&&,right,nonword,,,,,,,,0,5,5,79,,,,,,,,,,,,,,,,,,,,,LDT,left,0.6837281486368738,0,,,left,0,0.6837281486368738,,,,,,,,,,,,,,,,,,,,,,1062,2019_Mar_13_1459,mf_amp_cond2,3.0.4,59.97695559595148,
fraud,&&&&&,left,fairness.vice,,,,,,,,0,6,6,85,,,,,,,,,,,,,,,,,,,,,LDT,right,0.7004180246440228,0,,,right,0,0.7004180246440228,,,,,,,,,,,,,,,,,,,,,,1062,2019_Mar_13_1459,mf_amp_cond2,3.0.4,59.97695559595148,
sowntrodden,&&&&&&&&&&&,right,nonword,,,,,,,,0,7,7,86,,,,,,,,,,,,,,,,,,,,,LDT,left,0.9838065964286216,0,,,left,0,0.9838065964286216,,,,,,,,,,,,,,,,,,,,,,1062,2019_Mar_13_1459,mf_amp_cond2,3.0.4,59.97695559595148,
penalty,&&&&&&&,left,authority.vice,,,,,,,,0,8,8,12,,,,,,,,,,,,,,,,,,,,,LDT,right,0.7004128931439482,0,,,right,0,0.7004128931439482,,,,,,,,,,,,,,,,,,,,,,1062,2019_Mar_13_1459,mf_amp_cond2,3.0.4,59.97695559595148,
fegard,&&&&&&,right,nonword,,,,,,,,0,9,9,1,,,,,,,,,,,,,,,,,,,,,LDT,left,0.9836699702718761,0,,,left,0,0.9836699702718761,,,,,,,,,,,,,,,,,,,,,,1062,2019_Mar_13_1459,mf_amp_cond2,3.0.4,59.97695559595148,
fifty,&&&&&,left,neutral,,,,,,,,0,10,10,175,,,,,,,,,,,,,,,,,,,,,LDT,right,0.583576063887449,0,,,right,0,0.583576063887449,,,,,,,,,,,,,,,,,,,,,,1062,2019_Mar_13_1459,mf_amp_cond2,3.0.4,59.97695559595148,
drumbled,&&&&&&&&,right,nonword,,,,,,,,0,11,11,123,,,,,,,,,,,,,,,,,,,,,LDT,right,1.7339946978900116,1,,,right,1,1.7339946978900116,,,,,,,,,,,,,,,,,,,,,,1062,2019_Mar_13_1459,mf_amp_cond2,3.0.4,59.97695559595148,
crime,&&&&&,left,fairness.vice,,,,,,,,0,12,12,71,,,,,,,,,,,,,,,,,,,,,LDT,right,0.4670237120008096,0,,,right,0,0.4670237120008096,,,,,,,,,,,,,,,,,,,,,,1062,2019_Mar_13_1459,mf_amp_cond2,3.0.4,59.97695559595148,
lachelor,&&&&&&&&,right,nonword,,,,,,,,0,13,13,26,,,,,,,,,,,,,,,,,,,,,LDT,left,0.6170648602128495,0,,,left,0,0.6170648602128495,,,,,,,,,,,,,,,,,,,,,,1062,2019_Mar_13_1459,mf_amp_cond2,3.0.4,59.97695559595148,
asn,&&&,right,nonword,,,,,,,,0,14,14,75,,,,,,,,,,,,,,,,,,,,,LDT,left,0.6170619737240486,0,,,left,0,0.6170619737240486,,,,,,,,,,,,,,,,,,,,,,1062,2019_Mar_13_1459,mf_amp_cond2,3.0.4,59.97695559595148,
either,&&&&&&,left,neutral,,,,,,,,0,15,15,73,,,,,,,,,,,,,,,,,,,,,LDT,right,0.5170282341423444,0,,,right,0,0.5170282341423444,,,,,,,,,,,,,,,,,,,,,,1062,2019_Mar_13_1459,mf_amp_cond2,3.0.4,59.97695559595148,
seem,&&&&,left,neutral,,,,,,,,0,16,16,8,,,,,,,,,,,,,,,,,,,,,LDT,right,0.583714293607045,0,,,right,0,0.583714293607045,,,,,,,,,,,,,,,,,,,,,,1062,2019_Mar_13_1459,mf_amp_cond2,3.0.4,59.97695559595148,
hereby,&&&&&&,left,neutral,,,,,,,,0,17,17,80,,,,,,,,,,,,,,,,,,,,,LDT,right,0.6670732309576124,0,,,right,0,0.6670732309576124,,,,,,,,,,,,,,,,,,,,,,1062,2019_Mar_13_1459,mf_amp_cond2,3.0.4,59.97695559595148,
sliptery,&&&&&&&&,right,nonword,,,,,,,,0,18,18,39,,,,,,,,,,,,,,,,,,,,,LDT,right,0.46702756063314155,1,,,right,1,0.46702756063314155,,,,,,,,,,,,,,,,,,,,,,1062,2019_Mar_13_1459,mf_amp_cond2,3.0.4,59.97695559595148,
gationwide,&&&&&&&&&&,right,nonword,,,,,,,,0,19,19,126,,,,,,,,,,,,,,,,,,,,,LDT,left,0.6670741931302473,0,,,left,0,0.6670741931302473,,,,,,,,,,,,,,,,,,,,,,1062,2019_Mar_13_1459,mf_amp_cond2,3.0.4,59.97695559595148,
towards,&&&&&&&,left,neutral,,,,,,,,0,20,20,95,,,,,,,,,,,,,,,,,,,,,LDT,right,0.48368408187525347,0,,,right,0,0.48368408187525347,,,,,,,,,,,,,,,,,,,,,,1062,2019_Mar_13_1459,mf_amp_cond2,3.0.4,59.97695559595148,
gournful,&&&&&&&&,right,nonword,,,,,,,,0,21,21,143,,,,,,,,,,,,,,,,,,,,,LDT,left,2.083945852413308,0,,,left,0,2.083945852413308,,,,,,,,,,,,,,,,,,,,,,1062,2019_Mar_13_1459,mf_amp_cond2,3.0.4,59.97695559595148,
else,&&&&,left,neutral,,,,,,,,0,22,22,34,,,,,,,,,,,,,,,,,,,,,LDT,right,0.9504881016619038,0,,,right,0,0.9504881016619038,,,,,,,,,,,,,,,,,,,,,,1062,2019_Mar_13_1459,mf_amp_cond2,3.0.4,59.97695559595148,
abointment,&&&&&&&&&&,right,nonword,,,,,,,,0,23,23,134,,,,,,,,,,,,,,,,,,,,,LDT,left,0.8671096004545689,0,,,left,0,0.8671096004545689,,,,,,,,,,,,,,,,,,,,,,1062,2019_Mar_13_1459,mf_amp_cond2,3.0.4,59.97695559595148,
reelectiob,&&&&&&&&&&,right,nonword,,,,,,,,0,24,24,102,,,,,,,,,,,,,,,,,,,,,LDT,left,0.9004627327958588,0,,,left,0,0.9004627327958588,,,,,,,,,,,,,,,,,,,,,,1062,2019_Mar_13_1459,mf_amp_cond2,3.0.4,59.97695559595148,
ban,&&&,left,loyalty.vice,,,,,,,,0,25,25,169,,,,,,,,,,,,,,,,,,,,,LDT,right,0.4670198633975815,0,,,right,0,0.4670198633975815,,,,,,,,,,,,,,,,,,,,,,1062,2019_Mar_13_1459,mf_amp_cond2,3.0.4,59.97695559595148,
honstables,&&&&&&&&&&,right,nonword,,,,,,,,0,26,26,13,,,,,,,,,,,,,,,,,,,,,LDT,right,0.5503781592997257,1,,,right,1,0.5503781592997257,,,,,,,,,,,,,,,,,,,,,,1062,2019_Mar_13_1459,mf_amp_cond2,3.0.4,59.97695559595148,
actively,&&&&&&&&,left,authority.virtue,,,,,,,,0,27,27,125,,,,,,,,,,,,,,,,,,,,,LDT,right,0.5670494336518459,0,,,right,0,0.5670494336518459,,,,,,,,,,,,,,,,,,,,,,1062,2019_Mar_13_1459,mf_amp_cond2,3.0.4,59.97695559595148,
stindig,&&&&&&&,right,nonword,,,,,,,,0,28,28,54,,,,,,,,,,,,,,,,,,,,,LDT,right,0.7171075799269602,1,,,right,1,0.7171075799269602,,,,,,,,,,,,,,,,,,,,,,1062,2019_Mar_13_1459,mf_amp_cond2,3.0.4,59.97695559595148,
with,&&&&,left,neutral,,,,,,,,0,29,29,7,,,,,,,,,,,,,,,,,,,,,LDT,right,0.6837412980967201,0,,,right,0,0.6837412980967201,,,,,,,,,,,,,,,,,,,,,,1062,2019_Mar_13_1459,mf_amp_cond2,3.0.4,59.97695559595148,
feleological,&&&&&&&&&&&&,right,nonword,,,,,,,,0,30,30,4,,,,,,,,,,,,,,,,,,,,,LDT,right,0.6670671373140067,1,,,right,1,0.6670671373140067,,,,,,,,,,,,,,,,,,,,,,1062,2019_Mar_13_1459,mf_amp_cond2,3.0.4,59.97695559595148,
faspberry,&&&&&&&&&,None,nonword,,,,,,,,0,31,31,41,,,,,,,,,,,,,,,,,,,,,LDT,right,0.45036558716674335,0,,,right,0,0.45036558716674335,,,,,,,,,,,,,,,,,,,,,,1062,2019_Mar_13_1459,mf_amp_cond2,3.0.4,59.97695559595148,
torture,&&&&&&&,left,care.vice,,,,,,,,0,32,32,156,,,,,,,,,,,,,,,,,,,,,LDT,right,0.5170449115103111,0,,,right,0,0.5170449115103111,,,,,,,,,,,,,,,,,,,,,,1062,2019_Mar_13_1459,mf_amp_cond2,3.0.4,59.97695559595148,
supervuned,&&&&&&&&&&,right,nonword,,,,,,,,0,33,33,61,,,,,,,,,,,,,,,,,,,,,LDT,right,2.034072824928444,1,,,right,1,2.034072824928444,,,,,,,,,,,,,,,,,,,,,,1062,2019_Mar_13_1459,mf_amp_cond2,3.0.4,59.97695559595148,
Cunday,&&&&&&,None,nonword,,,,,,,,0,34,34,171,,,,,,,,,,,,,,,,,,,,,LDT,left,0.6170536350691691,0,,,left,0,0.6170536350691691,,,,,,,,,,,,,,,,,,,,,,1062,2019_Mar_13_1459,mf_amp_cond2,3.0.4,59.97695559595148,
discovars,&&&&&&&&&,right,nonword,,,,,,,,0,35,35,198,,,,,,,,,,,,,,,,,,,,,LDT,right,0.6337258715357166,1,,,right,1,0.6337258715357166,,,,,,,,,,,,,,,,,,,,,,1062,2019_Mar_13_1459,mf_amp_cond2,3.0.4,59.97695559595148,
tove,&&&&,right,nonword,,,,,,,,0,36,36,181,,,,,,,,,,,,,,,,,,,,,LDT,right,0.5336889247409999,1,,,right,1,0.5336889247409999,,,,,,,,,,,,,,,,,,,,,,1062,2019_Mar_13_1459,mf_amp_cond2,3.0.4,59.97695559595148,
sexual,&&&&&&,left,sanctity.vice,,,,,,,,0,37,37,190,,,,,,,,,,,,,,,,,,,,,LDT,right,0.500372354319552,0,,,right,0,0.500372354319552,,,,,,,,,,,,,,,,,,,,,,1062,2019_Mar_13_1459,mf_amp_cond2,3.0.4,59.97695559595148,
gikely,&&&&&&,right,nonword,,,,,,,,0,38,38,118,,,,,,,,,,,,,,,,,,,,,LDT,left,0.6670629679574631,0,,,left,0,0.6670629679574631,,,,,,,,,,,,,,,,,,,,,,1062,2019_Mar_13_1459,mf_amp_cond2,3.0.4,59.97695559595148,
victim,&&&&&&,left,care.vice,,,,,,,,0,39,39,22,,,,,,,,,,,,,,,,,,,,,LDT,right,0.5170221404987387,0,,,right,0,0.5170221404987387,,,,,,,,,,,,,,,,,,,,,,1062,2019_Mar_13_1459,mf_amp_cond2,3.0.4,59.97695559595148,
tenuflect,&&&&&&&&&,right,nonword,,,,,,,,0,40,40,154,,,,,,,,,,,,,,,,,,,,,LDT,left,0.6337229850760195,0,,,left,0,0.6337229850760195,,,,,,,,,,,,,,,,,,,,,,1062,2019_Mar_13_1459,mf_amp_cond2,3.0.4,59.97695559595148,
anyhow,&&&&&&,left,neutral,,,,,,,,0,41,41,45,,,,,,,,,,,,,,,,,,,,,LDT,right,0.5503775178804062,0,,,right,0,0.5503775178804062,,,,,,,,,,,,,,,,,,,,,,1062,2019_Mar_13_1459,mf_amp_cond2,3.0.4,59.97695559595148,
couldnt,&&&&&&&,left,neutral,,,,,,,,0,42,42,88,,,,,,,,,,,,,,,,,,,,,LDT,right,0.6670536671299487,0,,,right,0,0.6670536671299487,,,,,,,,,,,,,,,,,,,,,,1062,2019_Mar_13_1459,mf_amp_cond2,3.0.4,59.97695559595148,
integrity,&&&&&&&&&,left,fairness.virtue,,,,,,,,0,43,43,107,,,,,,,,,,,,,,,,,,,,,LDT,right,1.1004936500976328,0,,,right,0,1.1004936500976328,,,,,,,,,,,,,,,,,,,,,,1062,2019_Mar_13_1459,mf_amp_cond2,3.0.4,59.97695559595148,
about,&&&&&,left,neutral,,,,,,,,0,44,44,83,,,,,,,,,,,,,,,,,,,,,LDT,right,0.5837011441180948,0,,,right,0,0.5837011441180948,,,,,,,,,,,,,,,,,,,,,,1062,2019_Mar_13_1459,mf_amp_cond2,3.0.4,59.97695559595148,
Oregoniuns,&&&&&&&&&&,right,nonword,,,,,,,,0,45,45,116,,,,,,,,,,,,,,,,,,,,,LDT,left,0.833778597676428,0,,,left,0,0.833778597676428,,,,,,,,,,,,,,,,,,,,,,1062,2019_Mar_13_1459,mf_amp_cond2,3.0.4,59.97695559595148,
violations,&&&&&&&&&&,left,sanctity.vice,,,,,,,,0,46,46,82,,,,,,,,,,,,,,,,,,,,,LDT,right,0.5171218839823268,0,,,right,0,0.5171218839823268,,,,,,,,,,,,,,,,,,,,,,1062,2019_Mar_13_1459,mf_amp_cond2,3.0.4,59.97695559595148,
godlaness,&&&&&&&&&,right,nonword,,,,,,,,0,47,47,179,,,,,,,,,,,,,,,,,,,,,LDT,right,0.5003649778082035,1,,,right,1,0.5003649778082035,,,,,,,,,,,,,,,,,,,,,,1062,2019_Mar_13_1459,mf_amp_cond2,3.0.4,59.97695559595148,
allears,&&&&&&&,right,nonword,,,,,,,,0,48,48,103,,,,,,,,,,,,,,,,,,,,,LDT,left,0.5503800836449955,0,,,left,0,0.5503800836449955,,,,,,,,,,,,,,,,,,,,,,1062,2019_Mar_13_1459,mf_amp_cond2,3.0.4,59.97695559595148,
menizen,&&&&&&&,None,nonword,,,,,,,,0,49,49,30,,,,,,,,,,,,,,,,,,,,,LDT,right,0.5670478300598916,0,,,right,0,0.5670478300598916,,,,,,,,,,,,,,,,,,,,,,1062,2019_Mar_13_1459,mf_amp_cond2,3.0.4,59.97695559595148,
pistraught,&&&&&&&&&&,right,nonword,,,,,,,,0,50,50,98,,,,,,,,,,,,,,,,,,,,,LDT,left,0.6337159292597789,0,,,left,0,0.6337159292597789,,,,,,,,,,,,,,,,,,,,,,1062,2019_Mar_13_1459,mf_amp_cond2,3.0.4,59.97695559595148,
fair,&&&&,left,fairness.virtue,,,,,,,,0,51,51,133,,,,,,,,,,,,,,,,,,,,,LDT,right,0.7837750377075281,0,,,right,0,0.7837750377075281,,,,,,,,,,,,,,,,,,,,,,1062,2019_Mar_13_1459,mf_amp_cond2,3.0.4,59.97695559595148,
whither,&&&&&&&,left,neutral,,,,,,,,0,52,52,43,,,,,,,,,,,,,,,,,,,,,LDT,right,0.5837091620778665,0,,,right,0,0.5837091620778665,,,,,,,,,,,,,,,,,,,,,,1062,2019_Mar_13_1459,mf_amp_cond2,3.0.4,59.97695559595148,
whereafter,&&&&&&&&&&,left,neutral,,,,,,,,0,53,53,167,,,,,,,,,,,,,,,,,,,,,LDT,right,0.5837178214860614,0,,,right,0,0.5837178214860614,,,,,,,,,,,,,,,,,,,,,,1062,2019_Mar_13_1459,mf_amp_cond2,3.0.4,59.97695559595148,
ugeasily,&&&&&&&&,right,nonword,,,,,,,,0,54,54,108,,,,,,,,,,,,,,,,,,,,,LDT,right,0.5337488991499413,1,,,right,1,0.5337488991499413,,,,,,,,,,,,,,,,,,,,,,1062,2019_Mar_13_1459,mf_amp_cond2,3.0.4,59.97695559595148,
wherever,&&&&&&&&,left,neutral,,,,,,,,0,55,55,110,,,,,,,,,,,,,,,,,,,,,LDT,left,0.7171492733468767,1,,,left,1,0.7171492733468767,,,,,,,,,,,,,,,,,,,,,,1062,2019_Mar_13_1459,mf_amp_cond2,3.0.4,59.97695559595148,
leact,&&&&&,right,nonword,,,,,,,,0,56,56,78,,,,,,,,,,,,,,,,,,,,,LDT,right,0.6170603701611981,1,,,right,1,0.6170603701611981,,,,,,,,,,,,,,,,,,,,,,1062,2019_Mar_13_1459,mf_amp_cond2,3.0.4,59.97695559595148,
embrace,&&&&&&&,left,authority.virtue,,,,,,,,0,57,57,162,,,,,,,,,,,,,,,,,,,,,LDT,right,0.6337364552600775,0,,,right,0,0.6337364552600775,,,,,,,,,,,,,,,,,,,,,,1062,2019_Mar_13_1459,mf_amp_cond2,3.0.4,59.97695559595148,
yane,&&&&,right,nonword,,,,,,,,0,58,58,170,,,,,,,,,,,,,,,,,,,,,LDT,right,0.7670973489875905,1,,,right,1,0.7670973489875905,,,,,,,,,,,,,,,,,,,,,,1062,2019_Mar_13_1459,mf_amp_cond2,3.0.4,59.97695559595148,
toward,&&&&&&,left,neutral,,,,,,,,0,59,59,196,,,,,,,,,,,,,,,,,,,,,LDT,right,0.5503348623169586,0,,,right,0,0.5503348623169586,,,,,,,,,,,,,,,,,,,,,,1062,2019_Mar_13_1459,mf_amp_cond2,3.0.4,59.97695559595148,
promises,&&&&&&&&,left,fairness.virtue,,,,,,,,0,60,60,166,,,,,,,,,,,,,,,,,,,,,LDT,right,0.6670716273656581,0,,,right,0,0.6670716273656581,,,,,,,,,,,,,,,,,,,,,,1062,2019_Mar_13_1459,mf_amp_cond2,3.0.4,59.97695559595148,
papert,&&&&&&,right,nonword,,,,,,,,0,61,61,20,,,,,,,,,,,,,,,,,,,,,LDT,left,0.6837470710161142,0,,,left,0,0.6837470710161142,,,,,,,,,,,,,,,,,,,,,,1062,2019_Mar_13_1459,mf_amp_cond2,3.0.4,59.97695559595148,
sidearbs,&&&&&&&&,right,nonword,,,,,,,,0,62,62,94,,,,,,,,,,,,,,,,,,,,,LDT,right,0.5670401327952277,1,,,right,1,0.5670401327952277,,,,,,,,,,,,,,,,,,,,,,1062,2019_Mar_13_1459,mf_amp_cond2,3.0.4,59.97695559595148,
blunderints,&&&&&&&&&&&,right,nonword,,,,,,,,0,63,63,129,,,,,,,,,,,,,,,,,,,,,LDT,right,0.6170584458450321,1,,,right,1,0.6170584458450321,,,,,,,,,,,,,,,,,,,,,,1062,2019_Mar_13_1459,mf_amp_cond2,3.0.4,59.97695559595148,
critics,&&&&&&&,left,loyalty.vice,,,,,,,,0,64,64,19,,,,,,,,,,,,,,,,,,,,,LDT,left,0.5170362521021161,1,,,left,1,0.5170362521021161,,,,,,,,,,,,,,,,,,,,,,1062,2019_Mar_13_1459,mf_amp_cond2,3.0.4,59.97695559595148,
safety,&&&&&&,left,care.virtue,,,,,,,,0,65,65,68,,,,,,,,,,,,,,,,,,,,,LDT,right,0.550374952115817,0,,,right,0,0.550374952115817,,,,,,,,,,,,,,,,,,,,,,1062,2019_Mar_13_1459,mf_amp_cond2,3.0.4,59.97695559595148,
pafer,&&&&&,right,nonword,,,,,,,,0,66,66,91,,,,,,,,,,,,,,,,,,,,,LDT,right,0.8337779562280048,1,,,right,1,0.8337779562280048,,,,,,,,,,,,,,,,,,,,,,1062,2019_Mar_13_1459,mf_amp_cond2,3.0.4,59.97695559595148,
health,&&&&&&,left,care.virtue,,,,,,,,0,67,67,178,,,,,,,,,,,,,,,,,,,,,LDT,right,0.6170934041729197,0,,,right,0,0.6170934041729197,,,,,,,,,,,,,,,,,,,,,,1062,2019_Mar_13_1459,mf_amp_cond2,3.0.4,59.97695559595148,
love,&&&&,left,loyalty.virtue,,,,,,,,0,68,68,10,,,,,,,,,,,,,,,,,,,,,LDT,right,0.9838402718596626,0,,,right,0,0.9838402718596626,,,,,,,,,,,,,,,,,,,,,,1062,2019_Mar_13_1459,mf_amp_cond2,3.0.4,59.97695559595148,
noped,&&&&&,right,nonword,,,,,,,,0,69,69,92,,,,,,,,,,,,,,,,,,,,,LDT,right,0.6670847768546082,1,,,right,1,0.6670847768546082,,,,,,,,,,,,,,,,,,,,,,1062,2019_Mar_13_1459,mf_amp_cond2,3.0.4,59.97695559595148,
erks,&&&&,right,nonword,,,,,,,,0,70,70,120,,,,,,,,,,,,,,,,,,,,,LDT,right,0.7004138552874792,1,,,right,1,0.7004138552874792,,,,,,,,,,,,,,,,,,,,,,1062,2019_Mar_13_1459,mf_amp_cond2,3.0.4,59.97695559595148,
lenon,&&&&&,right,nonword,,,,,,,,0,71,71,115,,,,,,,,,,,,,,,,,,,,,LDT,left,0.5837377060379367,0,,,left,0,0.5837377060379367,,,,,,,,,,,,,,,,,,,,,,1062,2019_Mar_13_1459,mf_amp_cond2,3.0.4,59.97695559595148,
sonvoy,&&&&&&,None,nonword,,,,,,,,0,72,72,105,,,,,,,,,,,,,,,,,,,,,LDT,right,1.0504839964560233,0,,,right,0,1.0504839964560233,,,,,,,,,,,,,,,,,,,,,,1062,2019_Mar_13_1459,mf_amp_cond2,3.0.4,59.97695559595148,
become,&&&&&&,left,neutral,,,,,,,,0,73,73,111,,,,,,,,,,,,,,,,,,,,,LDT,right,1.517287695518462,0,,,right,0,1.517287695518462,,,,,,,,,,,,,,,,,,,,,,1062,2019_Mar_13_1459,mf_amp_cond2,3.0.4,59.97695559595148,
bruthfulness,&&&&&&&&&&&&,right,nonword,,,,,,,,0,74,74,3,,,,,,,,,,,,,,,,,,,,,LDT,right,0.7837705476558767,1,,,right,1,0.7837705476558767,,,,,,,,,,,,,,,,,,,,,,1062,2019_Mar_13_1459,mf_amp_cond2,3.0.4,59.97695559595148,
give,&&&&,left,neutral,,,,,,,,0,75,75,148,,,,,,,,,,,,,,,,,,,,,LDT,left,1.0171536351263057,1,,,left,1,1.0171536351263057,,,,,,,,,,,,,,,,,,,,,,1062,2019_Mar_13_1459,mf_amp_cond2,3.0.4,59.97695559595148,
values,&&&&&&,left,sanctity.virtue,,,,,,,,0,76,76,121,,,,,,,,,,,,,,,,,,,,,LDT,right,0.7170796774153132,0,,,right,0,0.7170796774153132,,,,,,,,,,,,,,,,,,,,,,1062,2019_Mar_13_1459,mf_amp_cond2,3.0.4,59.97695559595148,
scalbel,&&&&&&&,right,nonword,,,,,,,,0,77,77,50,,,,,,,,,,,,,,,,,,,,,LDT,right,0.8503033035667613,1,,,right,1,0.8503033035667613,,,,,,,,,,,,,,,,,,,,,,1062,2019_Mar_13_1459,mf_amp_cond2,3.0.4,59.97695559595148,
esquisiteness,&&&&&&&&&&&&&,right,nonword,,,,,,,,0,78,78,149,,,,,,,,,,,,,,,,,,,,,LDT,left,0.5337315803044476,0,,,left,0,0.5337315803044476,,,,,,,,,,,,,,,,,,,,,,1062,2019_Mar_13_1459,mf_amp_cond2,3.0.4,59.97695559595148,
egpeditious,&&&&&&&&&&&,right,nonword,,,,,,,,0,79,79,66,,,,,,,,,,,,,,,,,,,,,LDT,left,1.1838666990806814,0,,,left,0,1.1838666990806814,,,,,,,,,,,,,,,,,,,,,,1062,2019_Mar_13_1459,mf_amp_cond2,3.0.4,59.97695559595148,
benefit,&&&&&&&,left,fairness.virtue,,,,,,,,0,80,80,106,,,,,,,,,,,,,,,,,,,,,LDT,right,0.3836660575179849,0,,,right,0,0.3836660575179849,,,,,,,,,,,,,,,,,,,,,,1062,2019_Mar_13_1459,mf_amp_cond2,3.0.4,59.97695559595148,
although,&&&&&&&&,left,neutral,,,,,,,,0,81,81,122,,,,,,,,,,,,,,,,,,,,,LDT,right,1.433925550954882,0,,,right,0,1.433925550954882,,,,,,,,,,,,,,,,,,,,,,1062,2019_Mar_13_1459,mf_amp_cond2,3.0.4,59.97695559595148,
latterly,&&&&&&&&,left,neutral,,,,,,,,0,82,82,180,,,,,,,,,,,,,,,,,,,,,LDT,left,0.7336912980827037,1,,,left,1,0.7336912980827037,,,,,,,,,,,,,,,,,,,,,,1062,2019_Mar_13_1459,mf_amp_cond2,3.0.4,59.97695559595148,
forty,&&&&&,left,neutral,,,,,,,,0,83,83,188,,,,,,,,,,,,,,,,,,,,,LDT,right,0.7170851296104956,0,,,right,0,0.7170851296104956,,,,,,,,,,,,,,,,,,,,,,1062,2019_Mar_13_1459,mf_amp_cond2,3.0.4,59.97695559595148,
wump,&&&&,right,nonword,,,,,,,,0,84,84,192,,,,,,,,,,,,,,,,,,,,,LDT,left,0.7004138553165831,0,,,left,0,0.7004138553165831,,,,,,,,,,,,,,,,,,,,,,1062,2019_Mar_13_1459,mf_amp_cond2,3.0.4,59.97695559595148,
hence,&&&&&,left,neutral,,,,,,,,0,85,85,51,,,,,,,,,,,,,,,,,,,,,LDT,right,0.6339356215030421,0,,,right,0,0.6339356215030421,,,,,,,,,,,,,,,,,,,,,,1062,2019_Mar_13_1459,mf_amp_cond2,3.0.4,59.97695559595148,
Boeinf,&&&&&&,right,nonword,,,,,,,,0,86,86,187,,,,,,,,,,,,,,,,,,,,,LDT,left,0.517022781947162,0,,,left,0,0.517022781947162,,,,,,,,,,,,,,,,,,,,,,1062,2019_Mar_13_1459,mf_amp_cond2,3.0.4,59.97695559595148,
fostet,&&&&&&,right,nonword,,,,,,,,0,87,87,124,,,,,,,,,,,,,,,,,,,,,LDT,right,0.5336959805572405,1,,,right,1,0.5336959805572405,,,,,,,,,,,,,,,,,,,,,,1062,2019_Mar_13_1459,mf_amp_cond2,3.0.4,59.97695559595148,
epigrach,&&&&&&&&,right,nonword,,,,,,,,0,88,88,161,,,,,,,,,,,,,,,,,,,,,LDT,left,0.5003919181472156,0,,,left,0,0.5003919181472156,,,,,,,,,,,,,,,,,,,,,,1062,2019_Mar_13_1459,mf_amp_cond2,3.0.4,59.97695559595148,
counpy's,&&&&&&&&,right,nonword,,,,,,,,0,89,89,5,,,,,,,,,,,,,,,,,,,,,LDT,left,1.3338969428441487,0,,,left,0,1.3338969428441487,,,,,,,,,,,,,,,,,,,,,,1062,2019_Mar_13_1459,mf_amp_cond2,3.0.4,59.97695559595148,
uller,&&&&&,right,nonword,,,,,,,,0,90,90,87,,,,,,,,,,,,,,,,,,,,,LDT,left,0.6503936179506127,0,,,left,0,0.6503936179506127,,,,,,,,,,,,,,,,,,,,,,1062,2019_Mar_13_1459,mf_amp_cond2,3.0.4,59.97695559595148,
focomotive,&&&&&&&&&&,right,nonword,,,,,,,,0,91,91,139,,,,,,,,,,,,,,,,,,,,,LDT,right,0.5837165386183187,1,,,right,1,0.5837165386183187,,,,,,,,,,,,,,,,,,,,,,1062,2019_Mar_13_1459,mf_amp_cond2,3.0.4,59.97695559595148,
less,&&&&,left,neutral,,,,,,,,0,92,92,17,,,,,,,,,,,,,,,,,,,,,LDT,right,0.517032403498888,0,,,right,0,0.517032403498888,,,,,,,,,,,,,,,,,,,,,,1062,2019_Mar_13_1459,mf_amp_cond2,3.0.4,59.97695559595148,
amount,&&&&&&,left,neutral,,,,,,,,0,93,93,57,,,,,,,,,,,,,,,,,,,,,LDT,right,0.4836933827318717,0,,,right,0,0.4836933827318717,,,,,,,,,,,,,,,,,,,,,,1062,2019_Mar_13_1459,mf_amp_cond2,3.0.4,59.97695559595148,
also,&&&&,left,neutral,,,,,,,,0,94,94,100,,,,,,,,,,,,,,,,,,,,,LDT,right,0.43369110563071445,0,,,right,0,0.43369110563071445,,,,,,,,,,,,,,,,,,,,,,1062,2019_Mar_13_1459,mf_amp_cond2,3.0.4,59.97695559595148,
frocessing,&&&&&&&&&&,right,nonword,,,,,,,,0,95,95,147,,,,,,,,,,,,,,,,,,,,,LDT,right,1.2838430300471373,1,,,right,1,1.2838430300471373,,,,,,,,,,,,,,,,,,,,,,1062,2019_Mar_13_1459,mf_amp_cond2,3.0.4,59.97695559595148,
were,&&&&,left,neutral,,,,,,,,0,96,96,6,,,,,,,,,,,,,,,,,,,,,LDT,right,0.5337145822413731,0,,,right,0,0.5337145822413731,,,,,,,,,,,,,,,,,,,,,,1062,2019_Mar_13_1459,mf_amp_cond2,3.0.4,59.97695559595148,
fifteen,&&&&&&&,left,neutral,,,,,,,,0,97,97,84,,,,,,,,,,,,,,,,,,,,,LDT,right,0.5337113750574645,0,,,right,0,0.5337113750574645,,,,,,,,,,,,,,,,,,,,,,1062,2019_Mar_13_1459,mf_amp_cond2,3.0.4,59.97695559595148,
nuckheap,&&&&&&&&,right,nonword,,,,,,,,0,98,98,46,,,,,,,,,,,,,,,,,,,,,LDT,left,0.6003432330617215,0,,,left,0,0.6003432330617215,,,,,,,,,,,,,,,,,,,,,,1062,2019_Mar_13_1459,mf_amp_cond2,3.0.4,59.97695559595148,
somehow,&&&&&&&,left,neutral,,,,,,,,0,99,99,18,,,,,,,,,,,,,,,,,,,,,LDT,right,0.6337274751276709,0,,,right,0,0.6337274751276709,,,,,,,,,,,,,,,,,,,,,,1062,2019_Mar_13_1459,mf_amp_cond2,3.0.4,59.97695559595148,
itself,&&&&&&,left,neutral,,,,,,,,0,100,100,119,,,,,,,,,,,,,,,,,,,,,LDT,right,0.6837659934244584,0,,,right,0,0.6837659934244584,,,,,,,,,,,,,,,,,,,,,,1062,2019_Mar_13_1459,mf_amp_cond2,3.0.4,59.97695559595148,
Loorish,&&&&&&&,right,nonword,,,,,,,,0,101,101,174,,,,,,,,,,,,,,,,,,,,,LDT,right,1.2005267482600175,1,,,right,1,1.2005267482600175,,,,,,,,,,,,,,,,,,,,,,1062,2019_Mar_13_1459,mf_amp_cond2,3.0.4,59.97695559595148,
lorthwhile,&&&&&&&&&&,right,nonword,,,,,,,,0,102,102,128,,,,,,,,,,,,,,,,,,,,,LDT,left,0.8337837291765027,0,,,left,0,0.8337837291765027,,,,,,,,,,,,,,,,,,,,,,1062,2019_Mar_13_1459,mf_amp_cond2,3.0.4,59.97695559595148,
galamitous,&&&&&&&&&&,right,nonword,,,,,,,,0,103,103,189,,,,,,,,,,,,,,,,,,,,,LDT,right,0.7338032288535032,1,,,right,1,0.7338032288535032,,,,,,,,,,,,,,,,,,,,,,1062,2019_Mar_13_1459,mf_amp_cond2,3.0.4,59.97695559595148,
gaultless,&&&&&&&&&,right,nonword,,,,,,,,0,104,104,56,,,,,,,,,,,,,,,,,,,,,LDT,left,1.150518056761939,0,,,left,0,1.150518056761939,,,,,,,,,,,,,,,,,,,,,,1062,2019_Mar_13_1459,mf_amp_cond2,3.0.4,59.97695559595148,
corruption,&&&&&&&&&&,left,sanctity.vice,,,,,,,,0,105,105,97,,,,,,,,,,,,,,,,,,,,,LDT,right,0.4336753904353827,0,,,right,0,0.4336753904353827,,,,,,,,,,,,,,,,,,,,,,1062,2019_Mar_13_1459,mf_amp_cond2,3.0.4,59.97695559595148,
support,&&&&&&&,left,loyalty.virtue,,,,,,,,0,106,106,47,,,,,,,,,,,,,,,,,,,,,LDT,right,0.7170889782428276,0,,,right,0,0.7170889782428276,,,,,,,,,,,,,,,,,,,,,,1062,2019_Mar_13_1459,mf_amp_cond2,3.0.4,59.97695559595148,
disregord,&&&&&&&&&,right,nonword,,,,,,,,0,107,107,36,,,,,,,,,,,,,,,,,,,,,LDT,right,0.750403945101425,1,,,right,1,0.750403945101425,,,,,,,,,,,,,,,,,,,,,,1062,2019_Mar_13_1459,mf_amp_cond2,3.0.4,59.97695559595148,
three,&&&&&,left,neutral,,,,,,,,0,108,108,136,,,,,,,,,,,,,,,,,,,,,LDT,right,0.6003794742864557,0,,,right,0,0.6003794742864557,,,,,,,,,,,,,,,,,,,,,,1062,2019_Mar_13_1459,mf_amp_cond2,3.0.4,59.97695559595148,
ilportation,&&&&&&&&&&&,right,nonword,,,,,,,,0,109,109,49,,,,,,,,,,,,,,,,,,,,,LDT,right,0.7004170624713879,1,,,right,1,0.7004170624713879,,,,,,,,,,,,,,,,,,,,,,1062,2019_Mar_13_1459,mf_amp_cond2,3.0.4,59.97695559595148,
taxpayung,&&&&&&&&&,right,nonword,,,,,,,,0,110,110,168,,,,,,,,,,,,,,,,,,,,,LDT,left,0.7336970710020978,0,,,left,0,0.7336970710020978,,,,,,,,,,,,,,,,,,,,,,1062,2019_Mar_13_1459,mf_amp_cond2,3.0.4,59.97695559595148,
shot,&&&&,left,care.vice,,,,,,,,0,111,111,28,,,,,,,,,,,,,,,,,,,,,LDT,left,1.567318195826374,1,,,left,1,1.567318195826374,,,,,,,,,,,,,,,,,,,,,,1062,2019_Mar_13_1459,mf_amp_cond2,3.0.4,59.97695559595148,
fontacts,&&&&&&&&,right,nonword,,,,,,,,0,112,112,104,,,,,,,,,,,,,,,,,,,,,LDT,right,0.5337046399654355,1,,,right,1,0.5337046399654355,,,,,,,,,,,,,,,,,,,,,,1062,2019_Mar_13_1459,mf_amp_cond2,3.0.4,59.97695559595148,
forced,&&&&&&,left,fairness.vice,,,,,,,,0,113,113,81,,,,,,,,,,,,,,,,,,,,,LDT,right,0.6170594079885632,0,,,right,0,0.6170594079885632,,,,,,,,,,,,,,,,,,,,,,1062,2019_Mar_13_1459,mf_amp_cond2,3.0.4,59.97695559595148,
further,&&&&&&&,left,neutral,,,,,,,,0,114,114,151,,,,,,,,,,,,,,,,,,,,,LDT,right,0.5837184629344847,0,,,right,0,0.5837184629344847,,,,,,,,,,,,,,,,,,,,,,1062,2019_Mar_13_1459,mf_amp_cond2,3.0.4,59.97695559595148,
chadows,&&&&&&&,right,nonword,,,,,,,,0,115,115,42,,,,,,,,,,,,,,,,,,,,,LDT,right,0.5003556769515853,1,,,right,1,0.5003556769515853,,,,,,,,,,,,,,,,,,,,,,1062,2019_Mar_13_1459,mf_amp_cond2,3.0.4,59.97695559595148,
party,&&&&&,left,loyalty.virtue,,,,,,,,0,116,116,159,,,,,,,,,,,,,,,,,,,,,LDT,right,0.5337126579252072,0,,,right,0,0.5337126579252072,,,,,,,,,,,,,,,,,,,,,,1062,2019_Mar_13_1459,mf_amp_cond2,3.0.4,59.97695559595148,
police,&&&&&&,left,authority.vice,,,,,,,,0,117,117,184,,,,,,,,,,,,,,,,,,,,,LDT,right,0.5170635131944437,0,,,right,0,0.5170635131944437,,,,,,,,,,,,,,,,,,,,,,1062,2019_Mar_13_1459,mf_amp_cond2,3.0.4,59.97695559595148,
died,&&&&,left,care.vice,,,,,,,,0,118,118,197,,,,,,,,,,,,,,,,,,,,,LDT,right,0.6172213708923664,0,,,right,0,0.6172213708923664,,,,,,,,,,,,,,,,,,,,,,1062,2019_Mar_13_1459,mf_amp_cond2,3.0.4,59.97695559595148,
coom,&&&&,right,nonword,,,,,,,,0,119,119,25,,,,,,,,,,,,,,,,,,,,,LDT,left,0.7003618988965172,0,,,left,0,0.7003618988965172,,,,,,,,,,,,,,,,,,,,,,1062,2019_Mar_13_1459,mf_amp_cond2,3.0.4,59.97695559595148,
growth,&&&&&&,left,care.virtue,,,,,,,,0,120,120,31,,,,,,,,,,,,,,,,,,,,,LDT,right,0.833761278889142,0,,,right,0,0.833761278889142,,,,,,,,,,,,,,,,,,,,,,1062,2019_Mar_13_1459,mf_amp_cond2,3.0.4,59.97695559595148,
faith,&&&&&,left,sanctity.virtue,,,,,,,,0,121,121,194,,,,,,,,,,,,,,,,,,,,,LDT,right,0.8004395769094117,0,,,right,0,0.8004395769094117,,,,,,,,,,,,,,,,,,,,,,1062,2019_Mar_13_1459,mf_amp_cond2,3.0.4,59.97695559595148,
gillipede,&&&&&&&&&,None,nonword,,,,,,,,0,122,122,40,,,,,,,,,,,,,,,,,,,,,LDT,left,1.167048535629874,0,,,left,0,1.167048535629874,,,,,,,,,,,,,,,,,,,,,,1062,2019_Mar_13_1459,mf_amp_cond2,3.0.4,59.97695559595148,
drug,&&&&,left,sanctity.vice,,,,,,,,0,123,123,23,,,,,,,,,,,,,,,,,,,,,LDT,right,1.3505614820751362,0,,,right,0,1.3505614820751362,,,,,,,,,,,,,,,,,,,,,,1062,2019_Mar_13_1459,mf_amp_cond2,3.0.4,59.97695559595148,
troops,&&&&&&,left,loyalty.vice,,,,,,,,0,124,124,157,,,,,,,,,,,,,,,,,,,,,LDT,right,1.3839133315777872,0,,,right,0,1.3839133315777872,,,,,,,,,,,,,,,,,,,,,,1062,2019_Mar_13_1459,mf_amp_cond2,3.0.4,59.97695559595148,
commitment,&&&&&&&&&&,left,sanctity.virtue,,,,,,,,0,125,125,55,,,,,,,,,,,,,,,,,,,,,LDT,left,0.6504157475428656,1,,,left,1,0.6504157475428656,,,,,,,,,,,,,,,,,,,,,,1062,2019_Mar_13_1459,mf_amp_cond2,3.0.4,59.97695559595148,
emports,&&&&&&&,right,nonword,,,,,,,,0,126,126,153,,,,,,,,,,,,,,,,,,,,,LDT,left,1.333895659976406,0,,,left,0,1.333895659976406,,,,,,,,,,,,,,,,,,,,,,1062,2019_Mar_13_1459,mf_amp_cond2,3.0.4,59.97695559595148,
baladroit,&&&&&&&&&,right,nonword,,,,,,,,0,127,127,130,,,,,,,,,,,,,,,,,,,,,LDT,left,0.5837514969462063,0,,,left,0,0.5837514969462063,,,,,,,,,,,,,,,,,,,,,,1062,2019_Mar_13_1459,mf_amp_cond2,3.0.4,59.97695559595148,
loyalty,&&&&&&&,left,loyalty.virtue,,,,,,,,0,128,128,127,,,,,,,,,,,,,,,,,,,,,LDT,right,0.45035179625847377,0,,,right,0,0.45035179625847377,,,,,,,,,,,,,,,,,,,,,,1062,2019_Mar_13_1459,mf_amp_cond2,3.0.4,59.97695559595148,
even,&&&&,left,neutral,,,,,,,,0,129,129,99,,,,,,,,,,,,,,,,,,,,,LDT,right,0.5670596966228914,0,,,right,0,0.5670596966228914,,,,,,,,,,,,,,,,,,,,,,1062,2019_Mar_13_1459,mf_amp_cond2,3.0.4,59.97695559595148,
amoungst,&&&&&&&&,left,neutral,,,,,,,,0,130,130,152,,,,,,,,,,,,,,,,,,,,,LDT,right,0.7337480652786326,0,,,right,0,0.7337480652786326,,,,,,,,,,,,,,,,,,,,,,1062,2019_Mar_13_1459,mf_amp_cond2,3.0.4,59.97695559595148,
thru,&&&&,left,neutral,,,,,,,,0,131,131,165,,,,,,,,,,,,,,,,,,,,,LDT,right,0.6003743427572772,0,,,right,0,0.6003743427572772,,,,,,,,,,,,,,,,,,,,,,1062,2019_Mar_13_1459,mf_amp_cond2,3.0.4,59.97695559595148,
quarterbocks,&&&&&&&&&&&&,right,nonword,,,,,,,,0,132,132,173,,,,,,,,,,,,,,,,,,,,,LDT,right,0.7837997330061626,1,,,right,1,0.7837997330061626,,,,,,,,,,,,,,,,,,,,,,1062,2019_Mar_13_1459,mf_amp_cond2,3.0.4,59.97695559595148,
gun,&&&,left,authority.vice,,,,,,,,0,133,133,160,,,,,,,,,,,,,,,,,,,,,LDT,right,0.5836985783826094,0,,,right,0,0.5836985783826094,,,,,,,,,,,,,,,,,,,,,,1062,2019_Mar_13_1459,mf_amp_cond2,3.0.4,59.97695559595148,
rebels,&&&&&&,left,authority.vice,,,,,,,,0,134,134,193,,,,,,,,,,,,,,,,,,,,,LDT,left,1.1338596112036612,1,,,left,1,1.1338596112036612,,,,,,,,,,,,,,,,,,,,,,1062,2019_Mar_13_1459,mf_amp_cond2,3.0.4,59.97695559595148,
voter,&&&&&,left,fairness.vice,,,,,,,,0,135,135,14,,,,,,,,,,,,,,,,,,,,,LDT,right,0.6003550996538252,0,,,right,0,0.6003550996538252,,,,,,,,,,,,,,,,,,,,,,1062,2019_Mar_13_1459,mf_amp_cond2,3.0.4,59.97695559595148,
brudent,&&&&&&&,right,nonword,,,,,,,,0,136,136,191,,,,,,,,,,,,,,,,,,,,,LDT,left,0.7504161323886365,0,,,left,0,0.7504161323886365,,,,,,,,,,,,,,,,,,,,,,1062,2019_Mar_13_1459,mf_amp_cond2,3.0.4,59.97695559595148,
crilfully,&&&&&&&&&,right,nonword,,,,,,,,0,137,137,163,,,,,,,,,,,,,,,,,,,,,LDT,right,0.5670600173762068,1,,,right,1,0.5670600173762068,,,,,,,,,,,,,,,,,,,,,,1062,2019_Mar_13_1459,mf_amp_cond2,3.0.4,59.97695559595148,
noone,&&&&&,left,neutral,,,,,,,,0,138,138,199,,,,,,,,,,,,,,,,,,,,,LDT,left,0.7337464616575744,1,,,left,1,0.7337464616575744,,,,,,,,,,,,,,,,,,,,,,1062,2019_Mar_13_1459,mf_amp_cond2,3.0.4,59.97695559595148,
done,&&&&,left,neutral,,,,,,,,0,139,139,140,,,,,,,,,,,,,,,,,,,,,LDT,right,1.3505659721267875,0,,,right,0,1.3505659721267875,,,,,,,,,,,,,,,,,,,,,,1062,2019_Mar_13_1459,mf_amp_cond2,3.0.4,59.97695559595148,
Daptist,&&&&&&&,right,nonword,,,,,,,,0,140,140,144,,,,,,,,,,,,,,,,,,,,,LDT,left,0.8004370112030301,0,,,left,0,0.8004370112030301,,,,,,,,,,,,,,,,,,,,,,1062,2019_Mar_13_1459,mf_amp_cond2,3.0.4,59.97695559595148,
halaise,&&&&&&&,None,nonword,,,,,,,,0,141,141,150,,,,,,,,,,,,,,,,,,,,,LDT,left,0.6837643898325041,0,,,left,0,0.6837643898325041,,,,,,,,,,,,,,,,,,,,,,1062,2019_Mar_13_1459,mf_amp_cond2,3.0.4,59.97695559595148,
bycled,&&&&&&,None,nonword,,,,,,,,0,142,142,76,,,,,,,,,,,,,,,,,,,,,LDT,right,1.9340297844901215,0,,,right,0,1.9340297844901215,,,,,,,,,,,,,,,,,,,,,,1062,2019_Mar_13_1459,mf_amp_cond2,3.0.4,59.97695559595148,
prosecution,&&&&&&&&&&&,left,authority.vice,,,,,,,,0,143,143,11,,,,,,,,,,,,,,,,,,,,,LDT,right,0.5337104129139334,0,,,right,0,0.5337104129139334,,,,,,,,,,,,,,,,,,,,,,1062,2019_Mar_13_1459,mf_amp_cond2,3.0.4,59.97695559595148,
could,&&&&&,left,neutral,,,,,,,,0,144,144,44,,,,,,,,,,,,,,,,,,,,,LDT,right,0.5004518925270531,0,,,right,0,0.5004518925270531,,,,,,,,,,,,,,,,,,,,,,1062,2019_Mar_13_1459,mf_amp_cond2,3.0.4,59.97695559595148,
eight,&&&&&,left,neutral,,,,,,,,0,145,145,59,,,,,,,,,,,,,,,,,,,,,LDT,right,0.5670481507841032,0,,,right,0,0.5670481507841032,,,,,,,,,,,,,,,,,,,,,,1062,2019_Mar_13_1459,mf_amp_cond2,3.0.4,59.97695559595148,
myself,&&&&&&,left,neutral,,,,,,,,0,146,146,145,,,,,,,,,,,,,,,,,,,,,LDT,right,0.6003746634814888,0,,,right,0,0.6003746634814888,,,,,,,,,,,,,,,,,,,,,,1062,2019_Mar_13_1459,mf_amp_cond2,3.0.4,59.97695559595148,
besides,&&&&&&&,left,neutral,,,,,,,,0,147,147,89,,,,,,,,,,,,,,,,,,,,,LDT,right,0.583710444974713,0,,,right,0,0.583710444974713,,,,,,,,,,,,,,,,,,,,,,1062,2019_Mar_13_1459,mf_amp_cond2,3.0.4,59.97695559595148,
least,&&&&&,left,neutral,,,,,,,,0,148,148,29,,,,,,,,,,,,,,,,,,,,,LDT,right,0.7337916830147151,0,,,right,0,0.7337916830147151,,,,,,,,,,,,,,,,,,,,,,1062,2019_Mar_13_1459,mf_amp_cond2,3.0.4,59.97695559595148,
strong,&&&&&&,left,loyalty.virtue,,,,,,,,0,149,149,67,,,,,,,,,,,,,,,,,,,,,LDT,right,0.5503919502079953,0,,,right,0,0.5503919502079953,,,,,,,,,,,,,,,,,,,,,,1062,2019_Mar_13_1459,mf_amp_cond2,3.0.4,59.97695559595148,
mih,&&&,right,nonword,,,,,,,,0,150,150,112,,,,,,,,,,,,,,,,,,,,,LDT,left,0.8337840498716105,0,,,left,0,0.8337840498716105,,,,,,,,,,,,,,,,,,,,,,1062,2019_Mar_13_1459,mf_amp_cond2,3.0.4,59.97695559595148,
credit,&&&&&&,left,fairness.virtue,,,,,,,,0,151,151,138,,,,,,,,,,,,,,,,,,,,,LDT,right,0.8169665278983302,0,,,right,0,0.8169665278983302,,,,,,,,,,,,,,,,,,,,,,1062,2019_Mar_13_1459,mf_amp_cond2,3.0.4,59.97695559595148,
therefore,&&&&&&&&&,left,neutral,,,,,,,,0,152,152,37,,,,,,,,,,,,,,,,,,,,,LDT,right,0.7337384437269066,0,,,right,0,0.7337384437269066,,,,,,,,,,,,,,,,,,,,,,1062,2019_Mar_13_1459,mf_amp_cond2,3.0.4,59.97695559595148,
cromiscuity,&&&&&&&&&&&,right,nonword,,,,,,,,0,153,153,21,,,,,,,,,,,,,,,,,,,,,LDT,left,0.5337097714655101,0,,,left,0,0.5337097714655101,,,,,,,,,,,,,,,,,,,,,,1062,2019_Mar_13_1459,mf_amp_cond2,3.0.4,59.97695559595148,
mecan,&&&&&,right,nonword,,,,,,,,0,154,154,155,,,,,,,,,,,,,,,,,,,,,LDT,left,1.0671671374002472,0,,,left,0,1.0671671374002472,,,,,,,,,,,,,,,,,,,,,,1062,2019_Mar_13_1459,mf_amp_cond2,3.0.4,59.97695559595148,
rivernoat,&&&&&&&&&,right,nonword,,,,,,,,0,155,155,164,,,,,,,,,,,,,,,,,,,,,LDT,left,0.7671117813442834,0,,,left,0,0.7671117813442834,,,,,,,,,,,,,,,,,,,,,,1062,2019_Mar_13_1459,mf_amp_cond2,3.0.4,59.97695559595148,
infet,&&&&&,right,nonword,,,,,,,,0,156,156,48,,,,,,,,,,,,,,,,,,,,,LDT,left,0.983738924813224,0,,,left,0,0.983738924813224,,,,,,,,,,,,,,,,,,,,,,1062,2019_Mar_13_1459,mf_amp_cond2,3.0.4,59.97695559595148,
fear,&&&&,left,sanctity.vice,,,,,,,,0,157,157,183,,,,,,,,,,,,,,,,,,,,,LDT,right,1.0838252622343134,0,,,right,0,1.0838252622343134,,,,,,,,,,,,,,,,,,,,,,1062,2019_Mar_13_1459,mf_amp_cond2,3.0.4,59.97695559595148,
both,&&&&,left,neutral,,,,,,,,0,158,158,135,,,,,,,,,,,,,,,,,,,,,LDT,right,0.6003852472058497,0,,,right,0,0.6003852472058497,,,,,,,,,,,,,,,,,,,,,,1062,2019_Mar_13_1459,mf_amp_cond2,3.0.4,59.97695559595148,
Lacedonia,&&&&&&&&&,right,nonword,,,,,,,,0,159,159,58,,,,,,,,,,,,,,,,,,,,,LDT,left,0.5670487922034226,0,,,left,0,0.5670487922034226,,,,,,,,,,,,,,,,,,,,,,1062,2019_Mar_13_1459,mf_amp_cond2,3.0.4,59.97695559595148,
been,&&&&,left,neutral,,,,,,,,0,160,160,16,,,,,,,,,,,,,,,,,,,,,LDT,right,1.1338554418471176,0,,,right,0,1.1338554418471176,,,,,,,,,,,,,,,,,,,,,,1062,2019_Mar_13_1459,mf_amp_cond2,3.0.4,59.97695559595148,
sickyay,&&&&&&&,right,nonword,,,,,,,,0,161,161,33,,,,,,,,,,,,,,,,,,,,,LDT,left,1.2672285229200497,0,,,left,0,1.2672285229200497,,,,,,,,,,,,,,,,,,,,,,1062,2019_Mar_13_1459,mf_amp_cond2,3.0.4,59.97695559595148,
peace,&&&&&,left,care.virtue,,,,,,,,0,162,162,96,,,,,,,,,,,,,,,,,,,,,LDT,right,0.5503739900013898,0,,,right,0,0.5503739900013898,,,,,,,,,,,,,,,,,,,,,,1062,2019_Mar_13_1459,mf_amp_cond2,3.0.4,59.97695559595148,
strength,&&&&&&&&,left,sanctity.virtue,,,,,,,,0,163,163,158,,,,,,,,,,,,,,,,,,,,,LDT,right,0.8837895341857802,0,,,right,0,0.8837895341857802,,,,,,,,,,,,,,,,,,,,,,1062,2019_Mar_13_1459,mf_amp_cond2,3.0.4,59.97695559595148,
anything,&&&&&&&&,left,neutral,,,,,,,,0,164,164,70,,,,,,,,,,,,,,,,,,,,,LDT,right,0.650395221542567,0,,,right,0,0.650395221542567,,,,,,,,,,,,,,,,,,,,,,1062,2019_Mar_13_1459,mf_amp_cond2,3.0.4,59.97695559595148,
each,&&&&,left,neutral,,,,,,,,0,165,165,101,,,,,,,,,,,,,,,,,,,,,LDT,right,0.4670224291330669,0,,,right,0,0.4670224291330669,,,,,,,,,,,,,,,,,,,,,,1062,2019_Mar_13_1459,mf_amp_cond2,3.0.4,59.97695559595148,
gusinesslike,&&&&&&&&&&&&,right,nonword,,,,,,,,0,166,166,65,,,,,,,,,,,,,,,,,,,,,LDT,left,0.7504199810209684,0,,,left,0,0.7504199810209684,,,,,,,,,,,,,,,,,,,,,,1062,2019_Mar_13_1459,mf_amp_cond2,3.0.4,59.97695559595148,
baklara,&&&&&&&,right,nonword,,,,,,,,0,167,167,77,,,,,,,,,,,,,,,,,,,,,LDT,left,0.6669356426864397,0,,,left,0,0.6669356426864397,,,,,,,,,,,,,,,,,,,,,,1062,2019_Mar_13_1459,mf_amp_cond2,3.0.4,59.97695559595148,
precificity,&&&&&&&&&&&,right,nonword,,,,,,,,0,168,168,62,,,,,,,,,,,,,,,,,,,,,LDT,left,0.8337753904925194,0,,,left,0,0.8337753904925194,,,,,,,,,,,,,,,,,,,,,,1062,2019_Mar_13_1459,mf_amp_cond2,3.0.4,59.97695559595148,
alar,&&&&,right,nonword,,,,,,,,0,169,169,53,,,,,,,,,,,,,,,,,,,,,LDT,left,1.000480757211335,0,,,left,0,1.000480757211335,,,,,,,,,,,,,,,,,,,,,,1062,2019_Mar_13_1459,mf_amp_cond2,3.0.4,59.97695559595148,
imebreaker,&&&&&&&&&&,right,nonword,,,,,,,,0,170,170,117,,,,,,,,,,,,,,,,,,,,,LDT,left,0.8171018711291254,0,,,left,0,0.8171018711291254,,,,,,,,,,,,,,,,,,,,,,1062,2019_Mar_13_1459,mf_amp_cond2,3.0.4,59.97695559595148,
help,&&&&,left,care.virtue,,,,,,,,0,171,171,109,,,,,,,,,,,,,,,,,,,,,LDT,right,0.6003807571541984,0,,,right,0,0.6003807571541984,,,,,,,,,,,,,,,,,,,,,,1062,2019_Mar_13_1459,mf_amp_cond2,3.0.4,59.97695559595148,
neutralust,&&&&&&&&&&,right,nonword,,,,,,,,0,172,172,90,,,,,,,,,,,,,,,,,,,,,LDT,right,1.250558531464776,1,,,right,1,1.250558531464776,,,,,,,,,,,,,,,,,,,,,,1062,2019_Mar_13_1459,mf_amp_cond2,3.0.4,59.97695559595148,
honored,&&&&&&&,left,authority.virtue,,,,,,,,0,173,173,63,,,,,,,,,,,,,,,,,,,,,LDT,right,0.4503594934940338,0,,,right,0,0.4503594934940338,,,,,,,,,,,,,,,,,,,,,,1062,2019_Mar_13_1459,mf_amp_cond2,3.0.4,59.97695559595148,
elsewhere,&&&&&&&&&,left,neutral,,,,,,,,0,174,174,132,,,,,,,,,,,,,,,,,,,,,LDT,right,0.4503290252177976,0,,,right,0,0.4503290252177976,,,,,,,,,,,,,,,,,,,,,,1062,2019_Mar_13_1459,mf_amp_cond2,3.0.4,59.97695559595148,
dignity,&&&&&&&,left,sanctity.virtue,,,,,,,,0,175,175,172,,,,,,,,,,,,,,,,,,,,,LDT,right,0.5336607015051413,0,,,right,0,0.5336607015051413,,,,,,,,,,,,,,,,,,,,,,1062,2019_Mar_13_1459,mf_amp_cond2,3.0.4,59.97695559595148,
bluently,&&&&&&&&,None,nonword,,,,,,,,0,176,176,114,,,,,,,,,,,,,,,,,,,,,LDT,left,0.7504443556244951,0,,,left,0,0.7504443556244951,,,,,,,,,,,,,,,,,,,,,,1062,2019_Mar_13_1459,mf_amp_cond2,3.0.4,59.97695559595148,
dormandi,&&&&&&&&,None,nonword,,,,,,,,0,177,177,177,,,,,,,,,,,,,,,,,,,,,LDT,left,1.3172757006250322,0,,,left,0,1.3172757006250322,,,,,,,,,,,,,,,,,,,,,,1062,2019_Mar_13_1459,mf_amp_cond2,3.0.4,59.97695559595148,
killed,&&&&&&,left,care.vice,,,,,,,,0,178,178,185,,,,,,,,,,,,,,,,,,,,,LDT,right,0.500372354319552,0,,,right,0,0.500372354319552,,,,,,,,,,,,,,,,,,,,,,1062,2019_Mar_13_1459,mf_amp_cond2,3.0.4,59.97695559595148,
iptervention,&&&&&&&&&&&&,right,nonword,,,,,,,,0,179,179,113,,,,,,,,,,,,,,,,,,,,,LDT,left,0.8337843705958221,0,,,left,0,0.8337843705958221,,,,,,,,,,,,,,,,,,,,,,1062,2019_Mar_13_1459,mf_amp_cond2,3.0.4,59.97695559595148,
presentkess,&&&&&&&&&&&,right,nonword,,,,,,,,0,180,180,0,,,,,,,,,,,,,,,,,,,,,LDT,right,0.6503926558070816,1,,,right,1,0.6503926558070816,,,,,,,,,,,,,,,,,,,,,,1062,2019_Mar_13_1459,mf_amp_cond2,3.0.4,59.97695559595148,
reprisols,&&&&&&&&&,right,nonword,,,,,,,,0,181,181,72,,,,,,,,,,,,,,,,,,,,,LDT,right,0.5503951573919039,1,,,right,1,0.5503951573919039,,,,,,,,,,,,,,,,,,,,,,1062,2019_Mar_13_1459,mf_amp_cond2,3.0.4,59.97695559595148,
troubla,&&&&&&&,right,nonword,,,,,,,,0,182,182,195,,,,,,,,,,,,,,,,,,,,,LDT,right,0.550373027799651,1,,,right,1,0.550373027799651,,,,,,,,,,,,,,,,,,,,,,1062,2019_Mar_13_1459,mf_amp_cond2,3.0.4,59.97695559595148,
everything,&&&&&&&&&&,left,neutral,,,,,,,,0,183,183,176,,,,,,,,,,,,,,,,,,,,,LDT,right,0.5170423457457218,0,,,right,0,0.5170423457457218,,,,,,,,,,,,,,,,,,,,,,1062,2019_Mar_13_1459,mf_amp_cond2,3.0.4,59.97695559595148,
latter,&&&&&&,left,neutral,,,,,,,,0,184,184,142,,,,,,,,,,,,,,,,,,,,,LDT,left,1.0671004278992768,1,,,left,1,1.0671004278992768,,,,,,,,,,,,,,,,,,,,,,1062,2019_Mar_13_1459,mf_amp_cond2,3.0.4,59.97695559595148,
powerful,&&&&&&&&,left,authority.virtue,,,,,,,,0,185,185,52,,,,,,,,,,,,,,,,,,,,,LDT,right,0.4337023308034986,0,,,right,0,0.4337023308034986,,,,,,,,,,,,,,,,,,,,,,1062,2019_Mar_13_1459,mf_amp_cond2,3.0.4,59.97695559595148,
chressing,&&&&&&&&&,None,nonword,,,,,,,,0,186,186,186,,,,,,,,,,,,,,,,,,,,,LDT,right,2.684320836648112,0,,,right,0,2.684320836648112,,,,,,,,,,,,,,,,,,,,,,1062,2019_Mar_13_1459,mf_amp_cond2,3.0.4,59.97695559595148,
prison,&&&&&&,left,fairness.vice,,,,,,,,0,187,187,24,,,,,,,,,,,,,,,,,,,,,LDT,right,0.4837087772320956,0,,,right,0,0.4837087772320956,,,,,,,,,,,,,,,,,,,,,,1062,2019_Mar_13_1459,mf_amp_cond2,3.0.4,59.97695559595148,
ejanulated,&&&&&&&&&&,right,nonword,,,,,,,,0,188,188,74,,,,,,,,,,,,,,,,,,,,,LDT,right,0.6004025659931358,1,,,right,1,0.6004025659931358,,,,,,,,,,,,,,,,,,,,,,1062,2019_Mar_13_1459,mf_amp_cond2,3.0.4,59.97695559595148,
there,&&&&&,left,neutral,,,,,,,,0,189,189,146,,,,,,,,,,,,,,,,,,,,,LDT,right,0.5503675756044686,0,,,right,0,0.5503675756044686,,,,,,,,,,,,,,,,,,,,,,1062,2019_Mar_13_1459,mf_amp_cond2,3.0.4,59.97695559595148,
synchronazers,&&&&&&&&&&&&&,right,nonword,,,,,,,,0,190,190,2,,,,,,,,,,,,,,,,,,,,,LDT,right,0.767100556200603,1,,,right,1,0.767100556200603,,,,,,,,,,,,,,,,,,,,,,1062,2019_Mar_13_1459,mf_amp_cond2,3.0.4,59.97695559595148,
fonderland,&&&&&&&&&&,right,nonword,,,,,,,,0,191,191,64,,,,,,,,,,,,,,,,,,,,,LDT,right,0.4503149136144202,1,,,right,1,0.4503149136144202,,,,,,,,,,,,,,,,,,,,,,1062,2019_Mar_13_1459,mf_amp_cond2,3.0.4,59.97695559595148,
sfumatoy,&&&&&&&&,None,nonword,,,,,,,,0,192,192,32,,,,,,,,,,,,,,,,,,,,,LDT,right,0.3503376205044333,0,,,right,0,0.3503376205044333,,,,,,,,,,,,,,,,,,,,,,1062,2019_Mar_13_1459,mf_amp_cond2,3.0.4,59.97695559595148,
neputized,&&&&&&&&&,right,nonword,,,,,,,,0,193,193,69,,,,,,,,,,,,,,,,,,,,,LDT,left,0.48368664766894653,0,,,left,0,0.48368664766894653,,,,,,,,,,,,,,,,,,,,,,1062,2019_Mar_13_1459,mf_amp_cond2,3.0.4,59.97695559595148,
black,&&&&&,left,loyalty.vice,,,,,,,,0,194,194,137,,,,,,,,,,,,,,,,,,,,,LDT,right,0.6170452963851858,0,,,right,0,0.6170452963851858,,,,,,,,,,,,,,,,,,,,,,1062,2019_Mar_13_1459,mf_amp_cond2,3.0.4,59.97695559595148,
front,&&&&&,left,neutral,,,,,,,,0,195,195,141,,,,,,,,,,,,,,,,,,,,,LDT,right,1.483935846015811,0,,,right,0,1.483935846015811,,,,,,,,,,,,,,,,,,,,,,1062,2019_Mar_13_1459,mf_amp_cond2,3.0.4,59.97695559595148,
men,&&&,left,loyalty.vice,,,,,,,,0,196,196,93,,,,,,,,,,,,,,,,,,,,,LDT,right,0.883767725317739,0,,,right,0,0.883767725317739,,,,,,,,,,,,,,,,,,,,,,1062,2019_Mar_13_1459,mf_amp_cond2,3.0.4,59.97695559595148,
mostly,&&&&&&,left,neutral,,,,,,,,0,197,197,27,,,,,,,,,,,,,,,,,,,,,LDT,right,0.5503454460413195,0,,,right,0,0.5503454460413195,,,,,,,,,,,,,,,,,,,,,,1062,2019_Mar_13_1459,mf_amp_cond2,3.0.4,59.97695559595148,
photocalkodes,&&&&&&&&&&&&&,right,nonword,,,,,,,,0,198,198,35,,,,,,,,,,,,,,,,,,,,,LDT,left,0.9669913194375113,0,,,left,0,0.9669913194375113,,,,,,,,,,,,,,,,,,,,,,1062,2019_Mar_13_1459,mf_amp_cond2,3.0.4,59.97695559595148,
pulge,&&&&&,right,nonword,,,,,,,,0,199,199,9,,,,,,,,,,,,,,,,,,,,,LDT,left,0.9337741717463359,0,,,left,0,0.9337741717463359,,,,,,,,,,,,,,,,,,,,,,1062,2019_Mar_13_1459,mf_amp_cond2,3.0.4,59.97695559595148,
,,,,,,,,,,,,,,,,,,,,,,,,,,,,,,,,,,,,,,,,,,,,6,16.256,,,,,,,,,,,,,,,,,,,,1062,2019_Mar_13_1459,mf_amp_cond2,3.0.4,59.97695559595148,
,,,,,,,,,,,,,,,,,,,,,,,,,,,,,,,,,,,,,,,,,,,,,,right,1.417254918080289,,,,,,,,,,,,,,,,,,1062,2019_Mar_13_1459,mf_amp_cond2,3.0.4,59.97695559595148,
car,&&&&&&&&,,,cemtuper,,,,,,,,,,,0,0,0,0,,,,,,,,,,,,,,,,,AMP_prac,left,3.2677121665910818,,,,,,,,,,,left,3.2677121665910818,,,,,,,,,,,,,,,,1062,2019_Mar_13_1459,mf_amp_cond2,3.0.4,59.97695559595148,
keyboard,&&&&,,,senk,,,,,,,,,,,0,1,1,2,,,,,,,,,,,,,,,,,AMP_prac,left,0.9005454782163724,,,,,,,,,,,left,0.9005454782163724,,,,,,,,,,,,,,,,1062,2019_Mar_13_1459,mf_amp_cond2,3.0.4,59.97695559595148,
scarf,&&&&&&&&,,,bisebell,,,,,,,,,,,0,2,2,3,,,,,,,,,,,,,,,,,AMP_prac,right,2.450834157061763,,,,,,,,,,,right,2.450834157061763,,,,,,,,,,,,,,,,1062,2019_Mar_13_1459,mf_amp_cond2,3.0.4,59.97695559595148,
banana,&&&&&&,,,kacket,,,,,,,,,,,0,3,3,1,,,,,,,,,,,,,,,,,AMP_prac,right,1.1671896518091671,,,,,,,,,,,right,1.1671896518091671,,,,,,,,,,,,,,,,1062,2019_Mar_13_1459,mf_amp_cond2,3.0.4,59.97695559595148,
,,,,,,,,,,,,,,,,,,,,,,,,,,,,,,,,,,,,,,,,,,,,,,,,,,right,0.8004427841224242,,,,,,,,,,,,,,1062,2019_Mar_13_1459,mf_amp_cond2,3.0.4,59.97695559595148,
great,&&&&&&&&&&,left,loyalty.virtue,simplustic,,,,,,,,,,,,,,,0,0,0,102,,,,,,,,,,,,,AMP,right,0.6170488242642023,0,,,,,,,,,,,,,,right,0,0.6170488242642023,,,,,,,,,,,1062,2019_Mar_13_1459,mf_amp_cond2,3.0.4,59.97695559595148,
respect,&&&&&,left,sanctity.virtue,aubos,,,,,,,,,,,,,,,0,1,1,122,,,,,,,,,,,,,AMP,right,0.8004386147658806,0,,,,,,,,,,,,,,right,0,0.8004386147658806,,,,,,,,,,,1062,2019_Mar_13_1459,mf_amp_cond2,3.0.4,59.97695559595148,
hate,&&&&&&&&,right,fairness.vice,tracious,,,,,,,,,,,,,,,0,2,2,26,,,,,,,,,,,,,AMP,left,0.26695655353250913,0,,,,,,,,,,,,,,left,0,0.26695655353250913,,,,,,,,,,,1062,2019_Mar_13_1459,mf_amp_cond2,3.0.4,59.97695559595148,
safe,&&&&&&&&&&&&,left,care.virtue,edancipation,,,,,,,,,,,,,,,0,3,3,127,,,,,,,,,,,,,AMP,right,0.18365213833749294,0,,,,,,,,,,,,,,right,0,0.18365213833749294,,,,,,,,,,,1062,2019_Mar_13_1459,mf_amp_cond2,3.0.4,59.97695559595148,
energy,&&&&&&&,left,sanctity.virtue,reviked,,,,,,,,,,,,,,,0,4,4,75,,,,,,,,,,,,,AMP,right,0.2503016358532477,0,,,,,,,,,,,,,,right,0,0.2503016358532477,,,,,,,,,,,1062,2019_Mar_13_1459,mf_amp_cond2,3.0.4,59.97695559595148,
illegal,&&&&&&&&,right,fairness.vice,thabbily,,,,,,,,,,,,,,,0,5,5,287,,,,,,,,,,,,,AMP,left,0.21696678444277495,0,,,,,,,,,,,,,,left,0,0.21696678444277495,,,,,,,,,,,1062,2019_Mar_13_1459,mf_amp_cond2,3.0.4,59.97695559595148,
intelligence,&&&&&,left,loyalty.virtue,hasks,,,,,,,,,,,,,,,0,6,6,72,,,,,,,,,,,,,AMP,right,0.10018672238220461,0,,,,,,,,,,,,,,right,0,0.10018672238220461,,,,,,,,,,,1062,2019_Mar_13_1459,mf_amp_cond2,3.0.4,59.97695559595148,
refused,&&&&&&&&&,right,authority.vice,gandbrake,,,,,,,,,,,,,,,0,7,7,179,,,,,,,,,,,,,AMP,right,0.5336979048734065,1,,,,,,,,,,,,,,right,1,0.5336979048734065,,,,,,,,,,,1062,2019_Mar_13_1459,mf_amp_cond2,3.0.4,59.97695559595148,
unpleasant,&&&&&&&&&&&&,None,control,edancipation,,,,,,,,,,,,,,,0,8,8,288,,,,,,,,,,,,,AMP,right,0.15028297001845203,0,,,,,,,,,,,,,,right,0,0.15028297001845203,,,,,,,,,,,1062,2019_Mar_13_1459,mf_amp_cond2,3.0.4,59.97695559595148,
promised,&&&&&&,left,loyalty.virtue,openet,,,,,,,,,,,,,,,0,9,9,252,,,,,,,,,,,,,AMP,right,0.13360656422446482,0,,,,,,,,,,,,,,right,0,0.13360656422446482,,,,,,,,,,,1062,2019_Mar_13_1459,mf_amp_cond2,3.0.4,59.97695559595148,
war,&&&&&&&,right,sanctity.vice,hatigue,,,,,,,,,,,,,,,0,10,10,170,,,,,,,,,,,,,AMP,left,1.0671571950952057,0,,,,,,,,,,,,,,left,0,1.0671571950952057,,,,,,,,,,,1062,2019_Mar_13_1459,mf_amp_cond2,3.0.4,59.97695559595148,
great,&&&&&&&,left,loyalty.virtue,lursuer,,,,,,,,,,,,,,,0,11,11,269,,,,,,,,,,,,,AMP,right,0.23363902093842626,0,,,,,,,,,,,,,,right,0,0.23363902093842626,,,,,,,,,,,1062,2019_Mar_13_1459,mf_amp_cond2,3.0.4,59.97695559595148,
riot,&&&&&&&&,right,authority.vice,pullness,,,,,,,,,,,,,,,0,12,12,280,,,,,,,,,,,,,AMP,right,0.9504669342422858,1,,,,,,,,,,,,,,right,1,0.9504669342422858,,,,,,,,,,,1062,2019_Mar_13_1459,mf_amp_cond2,3.0.4,59.97695559595148,
increase,&&&&&&,left,care.virtue,tislay,,,,,,,,,,,,,,,0,13,13,229,,,,,,,,,,,,,AMP,right,0.8171012297098059,0,,,,,,,,,,,,,,right,0,0.8171012297098059,,,,,,,,,,,1062,2019_Mar_13_1459,mf_amp_cond2,3.0.4,59.97695559595148,
praise,&&&&&,left,authority.virtue,touls,,,,,,,,,,,,,,,0,14,14,142,,,,,,,,,,,,,AMP,right,0.3003051958512515,0,,,,,,,,,,,,,,right,0,0.3003051958512515,,,,,,,,,,,1062,2019_Mar_13_1459,mf_amp_cond2,3.0.4,59.97695559595148,
ability,&&&&&,left,authority.virtue,atson,,,,,,,,,,,,,,,0,15,15,249,,,,,,,,,,,,,AMP,right,0.9171477980562486,0,,,,,,,,,,,,,,right,0,0.9171477980562486,,,,,,,,,,,1062,2019_Mar_13_1459,mf_amp_cond2,3.0.4,59.97695559595148,
protesters,&&&&&&&&&&,right,authority.vice,elduringly,,,,,,,,,,,,,,,0,16,16,177,,,,,,,,,,,,,AMP,right,0.6337117599032354,1,,,,,,,,,,,,,,right,1,0.6337117599032354,,,,,,,,,,,1062,2019_Mar_13_1459,mf_amp_cond2,3.0.4,59.97695559595148,
celebrated,&&&&&&&&&&&,left,authority.virtue,lempestuous,,,,,,,,,,,,,,,0,17,17,65,,,,,,,,,,,,,AMP,right,0.4170063611236401,0,,,,,,,,,,,,,,right,0,0.4170063611236401,,,,,,,,,,,1062,2019_Mar_13_1459,mf_amp_cond2,3.0.4,59.97695559595148,
nonobservalt,&&&&&&&,None,nonword,pharing,,,,,,,,,,,,,,,0,18,18,69,,,,,,,,,,,,,AMP,left,0.7170694144151639,0,,,,,,,,,,,,,,left,0,0.7170694144151639,,,,,,,,,,,1062,2019_Mar_13_1459,mf_amp_cond2,3.0.4,59.97695559595148,
nonobservalt,&&&&&,None,nonword,touls,,,,,,,,,,,,,,,0,19,19,181,,,,,,,,,,,,,AMP,left,0.3169793566339649,0,,,,,,,,,,,,,,left,0,0.3169793566339649,,,,,,,,,,,1062,2019_Mar_13_1459,mf_amp_cond2,3.0.4,59.97695559595148,
juck,&&&&&&&&&&&,None,nonword,lempestuous,,,,,,,,,,,,,,,0,20,20,119,,,,,,,,,,,,,AMP,left,0.2502932971692644,0,,,,,,,,,,,,,,left,0,0.2502932971692644,,,,,,,,,,,1062,2019_Mar_13_1459,mf_amp_cond2,3.0.4,59.97695559595148,
free,&&&&&&,left,fairness.virtue,forepo,,,,,,,,,,,,,,,0,21,21,254,,,,,,,,,,,,,AMP,right,1.1505116424232256,0,,,,,,,,,,,,,,right,0,1.1505116424232256,,,,,,,,,,,1062,2019_Mar_13_1459,mf_amp_cond2,3.0.4,59.97695559595148,
care,&&&&&&,left,care.virtue,sgrawl,,,,,,,,,,,,,,,0,22,22,190,,,,,,,,,,,,,AMP,right,0.9838194251351524,0,,,,,,,,,,,,,,right,0,0.9838194251351524,,,,,,,,,,,1062,2019_Mar_13_1459,mf_amp_cond2,3.0.4,59.97695559595148,
terrorists,&&&&&&&&&&&,right,fairness.vice,mightingale,,,,,,,,,,,,,,,0,23,23,171,,,,,,,,,,,,,AMP,left,0.2169568421668373,0,,,,,,,,,,,,,,left,0,0.2169568421668373,,,,,,,,,,,1062,2019_Mar_13_1459,mf_amp_cond2,3.0.4,59.97695559595148,
accused,&&&&&&&,right,fairness.vice,lursuer,,,,,,,,,,,,,,,0,24,24,3,,,,,,,,,,,,,AMP,left,0.9838037099398207,0,,,,,,,,,,,,,,left,0,0.9838037099398207,,,,,,,,,,,1062,2019_Mar_13_1459,mf_amp_cond2,3.0.4,59.97695559595148,
greaks,&&&&&&&&&,None,nonword,metibolic,,,,,,,,,,,,,,,0,25,25,129,,,,,,,,,,,,,AMP,left,1.7840155766461976,0,,,,,,,,,,,,,,left,0,1.7840155766461976,,,,,,,,,,,1062,2019_Mar_13_1459,mf_amp_cond2,3.0.4,59.97695559595148,
groups,&&&&&&&&,right,loyalty.vice,framatic,,,,,,,,,,,,,,,0,26,26,132,,,,,,,,,,,,,AMP,left,0.41701053048018366,0,,,,,,,,,,,,,,left,0,0.41701053048018366,,,,,,,,,,,1062,2019_Mar_13_1459,mf_amp_cond2,3.0.4,59.97695559595148,
officers,&&&&&&&,right,authority.vice,nomaric,,,,,,,,,,,,,,,0,27,27,104,,,,,,,,,,,,,AMP,left,0.26698124886024743,0,,,,,,,,,,,,,,left,0,0.26698124886024743,,,,,,,,,,,1062,2019_Mar_13_1459,mf_amp_cond2,3.0.4,59.97695559595148,
hope,&&&&&&&&&&,left,loyalty.virtue,totalestic,,,,,,,,,,,,,,,0,28,28,131,,,,,,,,,,,,,AMP,right,0.3169719801226165,0,,,,,,,,,,,,,,right,0,0.3169719801226165,,,,,,,,,,,1062,2019_Mar_13_1459,mf_amp_cond2,3.0.4,59.97695559595148,
suicide,&&&&&&&&&,right,care.vice,ittutable,,,,,,,,,,,,,,,0,29,29,232,,,,,,,,,,,,,AMP,left,0.21695363501203246,0,,,,,,,,,,,,,,left,0,0.21695363501203246,,,,,,,,,,,1062,2019_Mar_13_1459,mf_amp_cond2,3.0.4,59.97695559595148,
injured,&&&&&&&&&&&&,right,care.vice,rorroborated,,,,,,,,,,,,,,,0,30,30,85,,,,,,,,,,,,,AMP,left,0.3169944304099772,0,,,,,,,,,,,,,,left,0,0.3169944304099772,,,,,,,,,,,1062,2019_Mar_13_1459,mf_amp_cond2,3.0.4,59.97695559595148,
intelligence,&&&&&&,left,loyalty.virtue,erdest,,,,,,,,,,,,,,,0,31,31,316,,,,,,,,,,,,,AMP,right,0.15026821696665138,0,,,,,,,,,,,,,,right,0,0.15026821696665138,,,,,,,,,,,1062,2019_Mar_13_1459,mf_amp_cond2,3.0.4,59.97695559595148,
gazily,&&&&&&&&,None,nonword,crinking,,,,,,,,,,,,,,,0,32,32,321,,,,,,,,,,,,,AMP,left,0.16693692552507855,0,,,,,,,,,,,,,,left,0,0.16693692552507855,,,,,,,,,,,1062,2019_Mar_13_1459,mf_amp_cond2,3.0.4,59.97695559595148,
attacks,&&&&&&&&&&&,right,care.vice,mightingale,,,,,,,,,,,,,,,0,33,33,10,,,,,,,,,,,,,AMP,left,0.5837065963423811,0,,,,,,,,,,,,,,left,0,0.5837065963423811,,,,,,,,,,,1062,2019_Mar_13_1459,mf_amp_cond2,3.0.4,59.97695559595148,
conspiracy,&&&&&&&&,right,sanctity.vice,thadowed,,,,,,,,,,,,,,,0,34,34,11,,,,,,,,,,,,,AMP,left,1.3172381765616592,0,,,,,,,,,,,,,,left,0,1.3172381765616592,,,,,,,,,,,1062,2019_Mar_13_1459,mf_amp_cond2,3.0.4,59.97695559595148,
hefurbished,&&&&&&&&,None,nonword,glacenta,,,,,,,,,,,,,,,0,35,35,113,,,,,,,,,,,,,AMP,left,0.35031869809608907,0,,,,,,,,,,,,,,left,0,0.35031869809608907,,,,,,,,,,,1062,2019_Mar_13_1459,mf_amp_cond2,3.0.4,59.97695559595148,
opportunity,&&&&&&&&&,left,fairness.virtue,gondensed,,,,,,,,,,,,,,,0,36,36,5,,,,,,,,,,,,,AMP,right,0.06696476391516626,0,,,,,,,,,,,,,,right,0,0.06696476391516626,,,,,,,,,,,1062,2019_Mar_13_1459,mf_amp_cond2,3.0.4,59.97695559595148,
civilians,&&&&&,right,care.vice,touls,,,,,,,,,,,,,,,0,37,37,32,,,,,,,,,,,,,AMP,right,0.7004087237874046,1,,,,,,,,,,,,,,right,1,0.7004087237874046,,,,,,,,,,,1062,2019_Mar_13_1459,mf_amp_cond2,3.0.4,59.97695559595148,
vurtain,&&&&&&&&&&,None,nonword,ecgagement,,,,,,,,,,,,,,,0,38,38,107,,,,,,,,,,,,,AMP,right,0.5003688264114317,0,,,,,,,,,,,,,,right,0,0.5003688264114317,,,,,,,,,,,1062,2019_Mar_13_1459,mf_amp_cond2,3.0.4,59.97695559595148,
promote,&&&&&&&&&&&&,left,sanctity.virtue,edancipation,,,,,,,,,,,,,,,0,39,39,55,,,,,,,,,,,,,AMP,right,0.8004437462950591,0,,,,,,,,,,,,,,right,0,0.8004437462950591,,,,,,,,,,,1062,2019_Mar_13_1459,mf_amp_cond2,3.0.4,59.97695559595148,
hefurbished,&&&&&&&,None,nonword,smapper,,,,,,,,,,,,,,,0,40,40,289,,,,,,,,,,,,,AMP,left,0.36698836882715113,0,,,,,,,,,,,,,,left,0,0.36698836882715113,,,,,,,,,,,1062,2019_Mar_13_1459,mf_amp_cond2,3.0.4,59.97695559595148,
pleasant,&&&&&&&,None,control,hatigue,,,,,,,,,,,,,,,0,41,41,293,,,,,,,,,,,,,AMP,left,0.5503685377479997,0,,,,,,,,,,,,,,left,0,0.5503685377479997,,,,,,,,,,,1062,2019_Mar_13_1459,mf_amp_cond2,3.0.4,59.97695559595148,
army,&&&&&,right,loyalty.vice,tabin,,,,,,,,,,,,,,,0,42,42,138,,,,,,,,,,,,,AMP,left,1.5672732952516526,0,,,,,,,,,,,,,,left,0,1.5672732952516526,,,,,,,,,,,1062,2019_Mar_13_1459,mf_amp_cond2,3.0.4,59.97695559595148,
juck,&&&&&&&&&&,None,nonword,totalestic,,,,,,,,,,,,,,,0,43,43,166,,,,,,,,,,,,,AMP,left,0.5003598463081289,0,,,,,,,,,,,,,,left,0,0.5003598463081289,,,,,,,,,,,1062,2019_Mar_13_1459,mf_amp_cond2,3.0.4,59.97695559595148,
blamed,&&&&&&&&,right,loyalty.vice,proached,,,,,,,,,,,,,,,0,44,44,178,,,,,,,,,,,,,AMP,left,0.48369402418029495,0,,,,,,,,,,,,,,left,0,0.48369402418029495,,,,,,,,,,,1062,2019_Mar_13_1459,mf_amp_cond2,3.0.4,59.97695559595148,
terrorists,&&&&&&&,right,fairness.vice,nomaric,,,,,,,,,,,,,,,0,45,45,261,,,,,,,,,,,,,AMP,left,0.43368404981447384,0,,,,,,,,,,,,,,left,0,0.43368404981447384,,,,,,,,,,,1062,2019_Mar_13_1459,mf_amp_cond2,3.0.4,59.97695559595148,
rejected,&&&&&&&&&&,right,authority.vice,ammessment,,,,,,,,,,,,,,,0,46,46,271,,,,,,,,,,,,,AMP,left,0.150275272782892,0,,,,,,,,,,,,,,left,0,0.150275272782892,,,,,,,,,,,1062,2019_Mar_13_1459,mf_amp_cond2,3.0.4,59.97695559595148,
violence,&&&&&&,right,care.vice,forepo,,,,,,,,,,,,,,,0,47,47,126,,,,,,,,,,,,,AMP,left,0.21698089607525617,0,,,,,,,,,,,,,,left,0,0.21698089607525617,,,,,,,,,,,1062,2019_Mar_13_1459,mf_amp_cond2,3.0.4,59.97695559595148,
agreement,&&&&&&,left,fairness.virtue,antral,,,,,,,,,,,,,,,0,48,48,80,,,,,,,,,,,,,AMP,left,3.351039352826774,1,,,,,,,,,,,,,,left,1,3.351039352826774,,,,,,,,,,,1062,2019_Mar_13_1459,mf_amp_cond2,3.0.4,59.97695559595148,
serial,&&&&&&&,right,sanctity.vice,smapper,,,,,,,,,,,,,,,0,49,49,234,,,,,,,,,,,,,AMP,left,0.31698545027757064,0,,,,,,,,,,,,,,left,0,0.31698545027757064,,,,,,,,,,,1062,2019_Mar_13_1459,mf_amp_cond2,3.0.4,59.97695559595148,
ensure,&&&&&&&&,left,fairness.virtue,crinking,,,,,,,,,,,,,,,0,50,50,92,,,,,,,,,,,,,AMP,right,1.133838764479151,0,,,,,,,,,,,,,,right,0,1.133838764479151,,,,,,,,,,,1062,2019_Mar_13_1459,mf_amp_cond2,3.0.4,59.97695559595148,
suicide,&&&&,right,care.vice,spag,,,,,,,,,,,,,,,0,51,51,33,,,,,,,,,,,,,AMP,left,0.166984391893493,0,,,,,,,,,,,,,,left,0,0.166984391893493,,,,,,,,,,,1062,2019_Mar_13_1459,mf_amp_cond2,3.0.4,59.97695559595148,
fighters,&&&&&,right,authority.vice,dumid,,,,,,,,,,,,,,,0,52,52,301,,,,,,,,,,,,,AMP,right,0.9171304792398587,1,,,,,,,,,,,,,,right,1,0.9171304792398587,,,,,,,,,,,1062,2019_Mar_13_1459,mf_amp_cond2,3.0.4,59.97695559595148,
ensure,&&&&&&&,left,fairness.virtue,pharing,,,,,,,,,,,,,,,0,53,53,299,,,,,,,,,,,,,AMP,left,0.733743895922089,1,,,,,,,,,,,,,,left,1,0.733743895922089,,,,,,,,,,,1062,2019_Mar_13_1459,mf_amp_cond2,3.0.4,59.97695559595148,
abuse,&&&&&&&&&,right,sanctity.vice,pescinded,,,,,,,,,,,,,,,0,54,54,97,,,,,,,,,,,,,AMP,left,0.6003858886251692,0,,,,,,,,,,,,,,left,0,0.6003858886251692,,,,,,,,,,,1062,2019_Mar_13_1459,mf_amp_cond2,3.0.4,59.97695559595148,
protesters,&&&&&,right,authority.vice,atson,,,,,,,,,,,,,,,0,55,55,53,,,,,,,,,,,,,AMP,left,1.783941169938771,0,,,,,,,,,,,,,,left,0,1.783941169938771,,,,,,,,,,,1062,2019_Mar_13_1459,mf_amp_cond2,3.0.4,59.97695559595148,
attacks,&&&&&&&&,right,care.vice,pullness,,,,,,,,,,,,,,,0,56,56,241,,,,,,,,,,,,,AMP,left,0.7504126044805162,0,,,,,,,,,,,,,,left,0,0.7504126044805162,,,,,,,,,,,1062,2019_Mar_13_1459,mf_amp_cond2,3.0.4,59.97695559595148,
clean,&&&&&&&&&&&,left,sanctity.virtue,vicissifude,,,,,,,,,,,,,,,0,57,57,152,,,,,,,,,,,,,AMP,right,0.18362648083711974,0,,,,,,,,,,,,,,right,0,0.18362648083711974,,,,,,,,,,,1062,2019_Mar_13_1459,mf_amp_cond2,3.0.4,59.97695559595148,
hand,&&&&&&&&,left,sanctity.virtue,perified,,,,,,,,,,,,,,,0,58,58,256,,,,,,,,,,,,,AMP,left,2.2174420894589275,1,,,,,,,,,,,,,,left,1,2.2174420894589275,,,,,,,,,,,1062,2019_Mar_13_1459,mf_amp_cond2,3.0.4,59.97695559595148,
perfect,&&&&&&&&,left,sanctity.virtue,clamorek,,,,,,,,,,,,,,,0,59,59,148,,,,,,,,,,,,,AMP,right,0.333642292272998,0,,,,,,,,,,,,,,right,0,0.333642292272998,,,,,,,,,,,1062,2019_Mar_13_1459,mf_amp_cond2,3.0.4,59.97695559595148,
injured,&&&&&&,right,care.vice,sgrawl,,,,,,,,,,,,,,,0,60,60,270,,,,,,,,,,,,,AMP,left,0.25028175133047625,0,,,,,,,,,,,,,,left,0,0.25028175133047625,,,,,,,,,,,1062,2019_Mar_13_1459,mf_amp_cond2,3.0.4,59.97695559595148,
praised,&&&&&&&,left,loyalty.virtue,pharing,,,,,,,,,,,,,,,0,61,61,237,,,,,,,,,,,,,AMP,left,1.834015608736081,1,,,,,,,,,,,,,,left,1,1.834015608736081,,,,,,,,,,,1062,2019_Mar_13_1459,mf_amp_cond2,3.0.4,59.97695559595148,
agreement,&&&&&&&&&,left,fairness.virtue,brotesque,,,,,,,,,,,,,,,0,62,62,248,,,,,,,,,,,,,AMP,left,1.0505061260482762,1,,,,,,,,,,,,,,left,1,1.0505061260482762,,,,,,,,,,,1062,2019_Mar_13_1459,mf_amp_cond2,3.0.4,59.97695559595148,
encourage,&&&&&&&&&,left,authority.virtue,grovelire,,,,,,,,,,,,,,,0,63,63,312,,,,,,,,,,,,,AMP,left,0.38366541609866545,1,,,,,,,,,,,,,,left,1,0.38366541609866545,,,,,,,,,,,1062,2019_Mar_13_1459,mf_amp_cond2,3.0.4,59.97695559595148,
fighters,&&&&&,right,authority.vice,framo,,,,,,,,,,,,,,,0,64,64,66,,,,,,,,,,,,,AMP,left,0.7004327776958235,0,,,,,,,,,,,,,,left,0,0.7004327776958235,,,,,,,,,,,1062,2019_Mar_13_1459,mf_amp_cond2,3.0.4,59.97695559595148,
progress,&&&&,left,authority.virtue,spag,,,,,,,,,,,,,,,0,65,65,226,,,,,,,,,,,,,AMP,left,1.3672330771223642,1,,,,,,,,,,,,,,left,1,1.3672330771223642,,,,,,,,,,,1062,2019_Mar_13_1459,mf_amp_cond2,3.0.4,59.97695559595148,
slending,&&&&&&&&&&&&,None,nonword,unreflectuve,,,,,,,,,,,,,,,0,66,66,225,,,,,,,,,,,,,AMP,left,0.6502630854665767,0,,,,,,,,,,,,,,left,0,0.6502630854665767,,,,,,,,,,,1062,2019_Mar_13_1459,mf_amp_cond2,3.0.4,59.97695559595148,
racist,&&&&,right,sanctity.vice,ning,,,,,,,,,,,,,,,0,67,67,79,,,,,,,,,,,,,AMP,left,0.25029714580159634,0,,,,,,,,,,,,,,left,0,0.25029714580159634,,,,,,,,,,,1062,2019_Mar_13_1459,mf_amp_cond2,3.0.4,59.97695559595148,
interests,&&&&&&&&&&&&,left,fairness.virtue,edancipation,,,,,,,,,,,,,,,0,68,68,216,,,,,,,,,,,,,AMP,left,0.9671333977603354,1,,,,,,,,,,,,,,left,1,0.9671333977603354,,,,,,,,,,,1062,2019_Mar_13_1459,mf_amp_cond2,3.0.4,59.97695559595148,
letish,&&&&&,None,nonword,saned,,,,,,,,,,,,,,,0,69,69,204,,,,,,,,,,,,,AMP,left,0.4003235409327317,0,,,,,,,,,,,,,,left,0,0.4003235409327317,,,,,,,,,,,1062,2019_Mar_13_1459,mf_amp_cond2,3.0.4,59.97695559595148,
slavery,&&&&&&,right,loyalty.vice,chared,,,,,,,,,,,,,,,0,70,70,263,,,,,,,,,,,,,AMP,left,0.3002987814543303,0,,,,,,,,,,,,,,left,0,0.3002987814543303,,,,,,,,,,,1062,2019_Mar_13_1459,mf_amp_cond2,3.0.4,59.97695559595148,
victims,&&&&&,right,care.vice,tabin,,,,,,,,,,,,,,,0,71,71,49,,,,,,,,,,,,,AMP,left,0.3003135345352348,0,,,,,,,,,,,,,,left,0,0.3003135345352348,,,,,,,,,,,1062,2019_Mar_13_1459,mf_amp_cond2,3.0.4,59.97695559595148,
abuse,&&&&&&&&&&,right,sanctity.vice,clattening,,,,,,,,,,,,,,,0,72,72,16,,,,,,,,,,,,,AMP,left,0.4170063611527439,0,,,,,,,,,,,,,,left,0,0.4170063611527439,,,,,,,,,,,1062,2019_Mar_13_1459,mf_amp_cond2,3.0.4,59.97695559595148,
officers,&&&&&&&&,right,authority.vice,proached,,,,,,,,,,,,,,,0,73,73,7,,,,,,,,,,,,,AMP,left,0.41700219179620035,0,,,,,,,,,,,,,,left,0,0.41700219179620035,,,,,,,,,,,1062,2019_Mar_13_1459,mf_amp_cond2,3.0.4,59.97695559595148,
promised,&&&&&&&&&&,left,loyalty.virtue,frojecting,,,,,,,,,,,,,,,0,74,74,40,,,,,,,,,,,,,AMP,left,0.4503489097696729,1,,,,,,,,,,,,,,left,1,0.4503489097696729,,,,,,,,,,,1062,2019_Mar_13_1459,mf_amp_cond2,3.0.4,59.97695559595148,
victims,&&&&&&,right,care.vice,erdest,,,,,,,,,,,,,,,0,75,75,239,,,,,,,,,,,,,AMP,left,0.5003450932272244,0,,,,,,,,,,,,,,left,0,0.5003450932272244,,,,,,,,,,,1062,2019_Mar_13_1459,mf_amp_cond2,3.0.4,59.97695559595148,
blamed,&&&&&&&&&&,right,loyalty.vice,ammessment,,,,,,,,,,,,,,,0,76,76,39,,,,,,,,,,,,,AMP,left,0.31698224309366196,0,,,,,,,,,,,,,,left,0,0.31698224309366196,,,,,,,,,,,1062,2019_Mar_13_1459,mf_amp_cond2,3.0.4,59.97695559595148,
gazily,&&&&&&&&,None,nonword,glacenta,,,,,,,,,,,,,,,0,77,77,43,,,,,,,,,,,,,AMP,left,0.4836911377205979,0,,,,,,,,,,,,,,left,0,0.4836911377205979,,,,,,,,,,,1062,2019_Mar_13_1459,mf_amp_cond2,3.0.4,59.97695559595148,
refused,&&&&&&,right,authority.vice,openet,,,,,,,,,,,,,,,0,78,78,110,,,,,,,,,,,,,AMP,left,0.5003563183709048,0,,,,,,,,,,,,,,left,0,0.5003563183709048,,,,,,,,,,,1062,2019_Mar_13_1459,mf_amp_cond2,3.0.4,59.97695559595148,
idexpressible,&&&&&&&&,None,nonword,clamorek,,,,,,,,,,,,,,,0,79,79,219,,,,,,,,,,,,,AMP,left,1.1672297416662332,0,,,,,,,,,,,,,,left,0,1.1672297416662332,,,,,,,,,,,1062,2019_Mar_13_1459,mf_amp_cond2,3.0.4,59.97695559595148,
civilians,&&&&&&,right,care.vice,prones,,,,,,,,,,,,,,,0,80,80,292,,,,,,,,,,,,,AMP,left,0.4169851937040221,0,,,,,,,,,,,,,,left,0,0.4169851937040221,,,,,,,,,,,1062,2019_Mar_13_1459,mf_amp_cond2,3.0.4,59.97695559595148,
ability,&&&&&&,left,authority.virtue,pumber,,,,,,,,,,,,,,,0,81,81,203,,,,,,,,,,,,,AMP,left,0.4836722153122537,1,,,,,,,,,,,,,,left,1,0.4836722153122537,,,,,,,,,,,1062,2019_Mar_13_1459,mf_amp_cond2,3.0.4,59.97695559595148,
vurtain,&&&&&&&&&&&,None,nonword,nomparisons,,,,,,,,,,,,,,,0,82,82,14,,,,,,,,,,,,,AMP,left,0.4003581785655115,0,,,,,,,,,,,,,,left,0,0.4003581785655115,,,,,,,,,,,1062,2019_Mar_13_1459,mf_amp_cond2,3.0.4,59.97695559595148,
riot,&&&&&&&&&&&,right,authority.vice,fornicalion,,,,,,,,,,,,,,,0,83,83,144,,,,,,,,,,,,,AMP,left,0.4003360489732586,0,,,,,,,,,,,,,,left,0,0.4003360489732586,,,,,,,,,,,1062,2019_Mar_13_1459,mf_amp_cond2,3.0.4,59.97695559595148,
racist,&&&&&&,right,sanctity.vice,chared,,,,,,,,,,,,,,,0,84,84,243,,,,,,,,,,,,,AMP,left,0.43367795617086813,0,,,,,,,,,,,,,,left,0,0.43367795617086813,,,,,,,,,,,1062,2019_Mar_13_1459,mf_amp_cond2,3.0.4,59.97695559595148,
accused,&&&&&&&&,right,fairness.vice,crinking,,,,,,,,,,,,,,,0,85,85,187,,,,,,,,,,,,,AMP,left,0.4503498719423078,0,,,,,,,,,,,,,,left,0,0.4503498719423078,,,,,,,,,,,1062,2019_Mar_13_1459,mf_amp_cond2,3.0.4,59.97695559595148,
harassment,&&&&&&&,right,sanctity.vice,hatigue,,,,,,,,,,,,,,,0,86,86,93,,,,,,,,,,,,,AMP,left,0.28362109276349656,0,,,,,,,,,,,,,,left,0,0.28362109276349656,,,,,,,,,,,1062,2019_Mar_13_1459,mf_amp_cond2,3.0.4,59.97695559595148,
serial,&&&&&&,right,sanctity.vice,laming,,,,,,,,,,,,,,,0,87,87,282,,,,,,,,,,,,,AMP,left,0.4002613215125166,0,,,,,,,,,,,,,,left,0,0.4002613215125166,,,,,,,,,,,1062,2019_Mar_13_1459,mf_amp_cond2,3.0.4,59.97695559595148,
groups,&&&&&&&&&&&&&,right,loyalty.vice,wonderfujnoss,,,,,,,,,,,,,,,0,88,88,12,,,,,,,,,,,,,AMP,right,0.800435407581972,1,,,,,,,,,,,,,,right,1,0.800435407581972,,,,,,,,,,,1062,2019_Mar_13_1459,mf_amp_cond2,3.0.4,59.97695559595148,
scandal,&&&&&&&&&&&,right,sanctity.vice,lempestuous,,,,,,,,,,,,,,,0,89,89,172,,,,,,,,,,,,,AMP,left,0.7337294635945,0,,,,,,,,,,,,,,left,0,0.7337294635945,,,,,,,,,,,1062,2019_Mar_13_1459,mf_amp_cond2,3.0.4,59.97695559595148,
death,&&&&&&&,right,care.vice,gedious,,,,,,,,,,,,,,,0,90,90,63,,,,,,,,,,,,,AMP,left,0.4170050782558974,0,,,,,,,,,,,,,,left,0,0.4170050782558974,,,,,,,,,,,1062,2019_Mar_13_1459,mf_amp_cond2,3.0.4,59.97695559595148,
respect,&&&&&&,left,sanctity.virtue,antral,,,,,,,,,,,,,,,0,91,91,314,,,,,,,,,,,,,AMP,right,0.1836165385611821,0,,,,,,,,,,,,,,right,0,0.1836165385611821,,,,,,,,,,,1062,2019_Mar_13_1459,mf_amp_cond2,3.0.4,59.97695559595148,
celebrated,&&&&&&&&,left,authority.virtue,proached,,,,,,,,,,,,,,,0,92,92,272,,,,,,,,,,,,,AMP,left,0.8337773148086853,1,,,,,,,,,,,,,,left,1,0.8337773148086853,,,,,,,,,,,1062,2019_Mar_13_1459,mf_amp_cond2,3.0.4,59.97695559595148,
slavery,&&&&&&&&&&&&,right,loyalty.vice,rorroborated,,,,,,,,,,,,,,,0,93,93,38,,,,,,,,,,,,,AMP,left,0.5336921319540124,0,,,,,,,,,,,,,,left,0,0.5336921319540124,,,,,,,,,,,1062,2019_Mar_13_1459,mf_amp_cond2,3.0.4,59.97695559595148,
arrests,&&&&&&&&&&&,right,authority.vice,mightingale,,,,,,,,,,,,,,,0,94,94,291,,,,,,,,,,,,,AMP,left,0.7837464937474579,0,,,,,,,,,,,,,,left,0,0.7837464937474579,,,,,,,,,,,1062,2019_Mar_13_1459,mf_amp_cond2,3.0.4,59.97695559595148,
friends,&&&&&&&&&,left,loyalty.virtue,seachwear,,,,,,,,,,,,,,,0,95,95,62,,,,,,,,,,,,,AMP,right,0.6337297201680485,0,,,,,,,,,,,,,,right,0,0.6337297201680485,,,,,,,,,,,1062,2019_Mar_13_1459,mf_amp_cond2,3.0.4,59.97695559595148,
free,&&&&,left,fairness.virtue,ning,,,,,,,,,,,,,,,0,96,96,115,,,,,,,,,,,,,AMP,right,0.5503848944208585,0,,,,,,,,,,,,,,right,0,0.5503848944208585,,,,,,,,,,,1062,2019_Mar_13_1459,mf_amp_cond2,3.0.4,59.97695559595148,
letish,&&&&&&&&,None,nonword,proached,,,,,,,,,,,,,,,0,97,97,159,,,,,,,,,,,,,AMP,left,0.4336785976192914,0,,,,,,,,,,,,,,left,0,0.4336785976192914,,,,,,,,,,,1062,2019_Mar_13_1459,mf_amp_cond2,3.0.4,59.97695559595148,
terrorist,&&&&&&&&&&&,right,loyalty.vice,fornicalion,,,,,,,,,,,,,,,0,98,98,260,,,,,,,,,,,,,AMP,left,0.8170957774855196,0,,,,,,,,,,,,,,left,0,0.8170957774855196,,,,,,,,,,,1062,2019_Mar_13_1459,mf_amp_cond2,3.0.4,59.97695559595148,
arrests,&&&&&&,right,authority.vice,chared,,,,,,,,,,,,,,,0,99,99,160,,,,,,,,,,,,,AMP,left,1.0504811099963263,0,,,,,,,,,,,,,,left,0,1.0504811099963263,,,,,,,,,,,1062,2019_Mar_13_1459,mf_amp_cond2,3.0.4,59.97695559595148,
attacks,&&&&&&&&,right,care.vice,glacenta,,,,,,,,,,,,,,,0,100,100,246,,,,,,,,,,,,,AMP,left,0.36698997241910547,0,,,,,,,,,,,,,,left,0,0.36698997241910547,,,,,,,,,,,1062,2019_Mar_13_1459,mf_amp_cond2,3.0.4,59.97695559595148,
betrayal,&&&&&&&&,right,loyalty.vice,glacenta,,,,,,,,,,,,,,,0,101,101,197,,,,,,,,,,,,,AMP,left,0.3669832373270765,0,,,,,,,,,,,,,,left,0,0.3669832373270765,,,,,,,,,,,1062,2019_Mar_13_1459,mf_amp_cond2,3.0.4,59.97695559595148,
good,&&&&&&&&&&&,left,care.virtue,nomparisons,,,,,,,,,,,,,,,0,102,102,88,,,,,,,,,,,,,AMP,right,1.5673040842229966,0,,,,,,,,,,,,,,right,0,1.5673040842229966,,,,,,,,,,,1062,2019_Mar_13_1459,mf_amp_cond2,3.0.4,59.97695559595148,
energy,&&&&&&&&&&&,left,sanctity.virtue,neneficence,,,,,,,,,,,,,,,0,103,103,309,,,,,,,,,,,,,AMP,right,0.40034053902490996,0,,,,,,,,,,,,,,right,0,0.40034053902490996,,,,,,,,,,,1062,2019_Mar_13_1459,mf_amp_cond2,3.0.4,59.97695559595148,
letish,&&&&&&&&&,None,nonword,fangsters,,,,,,,,,,,,,,,0,104,104,15,,,,,,,,,,,,,AMP,left,0.3836618881614413,0,,,,,,,,,,,,,,left,0,0.3836618881614413,,,,,,,,,,,1062,2019_Mar_13_1459,mf_amp_cond2,3.0.4,59.97695559595148,
abuse,&&&&&&&,right,sanctity.vice,reviked,,,,,,,,,,,,,,,0,105,105,273,,,,,,,,,,,,,AMP,left,0.4336731453950051,0,,,,,,,,,,,,,,left,0,0.4336731453950051,,,,,,,,,,,1062,2019_Mar_13_1459,mf_amp_cond2,3.0.4,59.97695559595148,
increase,&&&&&&&&&&,left,care.virtue,simplustic,,,,,,,,,,,,,,,0,106,106,47,,,,,,,,,,,,,AMP,left,1.2005398977198638,1,,,,,,,,,,,,,,left,1,1.2005398977198638,,,,,,,,,,,1062,2019_Mar_13_1459,mf_amp_cond2,3.0.4,59.97695559595148,
perfect,&&&&&&&&,left,sanctity.virtue,framatic,,,,,,,,,,,,,,,0,107,107,315,,,,,,,,,,,,,AMP,left,0.6504224826348945,1,,,,,,,,,,,,,,left,1,0.6504224826348945,,,,,,,,,,,1062,2019_Mar_13_1459,mf_amp_cond2,3.0.4,59.97695559595148,
war,&&&&&&&&&&&,right,sanctity.vice,vicissifude,,,,,,,,,,,,,,,0,108,108,71,,,,,,,,,,,,,AMP,left,0.917132082831813,0,,,,,,,,,,,,,,left,0,0.917132082831813,,,,,,,,,,,1062,2019_Mar_13_1459,mf_amp_cond2,3.0.4,59.97695559595148,
clean,&&&&&&&,left,sanctity.virtue,chreams,,,,,,,,,,,,,,,0,109,109,182,,,,,,,,,,,,,AMP,right,2.434168655658141,0,,,,,,,,,,,,,,right,0,2.434168655658141,,,,,,,,,,,1062,2019_Mar_13_1459,mf_amp_cond2,3.0.4,59.97695559595148,
restore,&&&&&&&&,left,care.virtue,framatic,,,,,,,,,,,,,,,0,110,110,180,,,,,,,,,,,,,AMP,left,0.5168839107791428,1,,,,,,,,,,,,,,left,1,0.5168839107791428,,,,,,,,,,,1062,2019_Mar_13_1459,mf_amp_cond2,3.0.4,59.97695559595148,
care,&&&&&&&&,left,care.virtue,pullness,,,,,,,,,,,,,,,0,111,111,73,,,,,,,,,,,,,AMP,right,1.1838497009885032,0,,,,,,,,,,,,,,right,0,1.1838497009885032,,,,,,,,,,,1062,2019_Mar_13_1459,mf_amp_cond2,3.0.4,59.97695559595148,
increase,&&&&&&&&&,left,care.virtue,metibolic,,,,,,,,,,,,,,,0,112,112,311,,,,,,,,,,,,,AMP,right,1.7340161860338412,0,,,,,,,,,,,,,,right,0,1.7340161860338412,,,,,,,,,,,1062,2019_Mar_13_1459,mf_amp_cond2,3.0.4,59.97695559595148,
death,&&&&&&&&&&&,right,care.vice,mightingale,,,,,,,,,,,,,,,0,113,113,121,,,,,,,,,,,,,AMP,left,0.23361689134617336,0,,,,,,,,,,,,,,left,0,0.23361689134617336,,,,,,,,,,,1062,2019_Mar_13_1459,mf_amp_cond2,3.0.4,59.97695559595148,
unpleasant,&&&&&,None,control,ablow,,,,,,,,,,,,,,,0,114,114,145,,,,,,,,,,,,,AMP,left,0.45034474041312933,0,,,,,,,,,,,,,,left,0,0.45034474041312933,,,,,,,,,,,1062,2019_Mar_13_1459,mf_amp_cond2,3.0.4,59.97695559595148,
pleasant,&&&&&&&,None,control,hatigue,,,,,,,,,,,,,,,0,115,115,41,,,,,,,,,,,,,AMP,right,0.4170028332155198,0,,,,,,,,,,,,,,right,0,0.4170028332155198,,,,,,,,,,,1062,2019_Mar_13_1459,mf_amp_cond2,3.0.4,59.97695559595148,
interests,&&&&&&&&,left,fairness.virtue,thadowed,,,,,,,,,,,,,,,0,116,116,162,,,,,,,,,,,,,AMP,right,1.1503949008183554,0,,,,,,,,,,,,,,right,0,1.1503949008183554,,,,,,,,,,,1062,2019_Mar_13_1459,mf_amp_cond2,3.0.4,59.97695559595148,
peaceful,&&&&&&&&&,left,authority.virtue,grovelire,,,,,,,,,,,,,,,0,117,117,95,,,,,,,,,,,,,AMP,left,0.983820708031999,1,,,,,,,,,,,,,,left,1,0.983820708031999,,,,,,,,,,,1062,2019_Mar_13_1459,mf_amp_cond2,3.0.4,59.97695559595148,
care,&&&&&&&&&&&,left,care.virtue,shoirmaster,,,,,,,,,,,,,,,0,118,118,278,,,,,,,,,,,,,AMP,left,0.533725165965734,1,,,,,,,,,,,,,,left,1,0.533725165965734,,,,,,,,,,,1062,2019_Mar_13_1459,mf_amp_cond2,3.0.4,59.97695559595148,
illegal,&&&&&&,right,fairness.vice,tislay,,,,,,,,,,,,,,,0,119,119,64,,,,,,,,,,,,,AMP,left,0.5003531112160999,0,,,,,,,,,,,,,,left,0,0.5003531112160999,,,,,,,,,,,1062,2019_Mar_13_1459,mf_amp_cond2,3.0.4,59.97695559595148,
care,&&&&&&,left,care.virtue,pumber,,,,,,,,,,,,,,,0,120,120,99,,,,,,,,,,,,,AMP,right,0.7837545117072295,0,,,,,,,,,,,,,,right,0,0.7837545117072295,,,,,,,,,,,1062,2019_Mar_13_1459,mf_amp_cond2,3.0.4,59.97695559595148,
intelligence,&&&&&&&&&,left,loyalty.virtue,gandbrake,,,,,,,,,,,,,,,0,121,121,125,,,,,,,,,,,,,AMP,right,0.9004479797440581,0,,,,,,,,,,,,,,right,0,0.9004479797440581,,,,,,,,,,,1062,2019_Mar_13_1459,mf_amp_cond2,3.0.4,59.97695559595148,
groups,&&&&&,right,loyalty.vice,ablow,,,,,,,,,,,,,,,0,122,122,238,,,,,,,,,,,,,AMP,right,0.9337898869707715,1,,,,,,,,,,,,,,right,1,0.9337898869707715,,,,,,,,,,,1062,2019_Mar_13_1459,mf_amp_cond2,3.0.4,59.97695559595148,
progress,&&&&&&&&&&,left,authority.virtue,ammessment,,,,,,,,,,,,,,,0,123,123,135,,,,,,,,,,,,,AMP,right,0.7337066925538238,0,,,,,,,,,,,,,,right,0,0.7337066925538238,,,,,,,,,,,1062,2019_Mar_13_1459,mf_amp_cond2,3.0.4,59.97695559595148,
juck,&&&&&,None,nonword,hasks,,,,,,,,,,,,,,,0,124,124,286,,,,,,,,,,,,,AMP,left,0.20029102006810717,0,,,,,,,,,,,,,,left,0,0.20029102006810717,,,,,,,,,,,1062,2019_Mar_13_1459,mf_amp_cond2,3.0.4,59.97695559595148,
harassment,&&&&&&&,right,sanctity.vice,smapper,,,,,,,,,,,,,,,0,125,125,52,,,,,,,,,,,,,AMP,left,0.7170796774153132,0,,,,,,,,,,,,,,left,0,0.7170796774153132,,,,,,,,,,,1062,2019_Mar_13_1459,mf_amp_cond2,3.0.4,59.97695559595148,
unscothed,&&&&&&&&,None,nonword,hescribe,,,,,,,,,,,,,,,0,126,126,140,,,,,,,,,,,,,AMP,left,0.5503733485529665,0,,,,,,,,,,,,,,left,0,0.5503733485529665,,,,,,,,,,,1062,2019_Mar_13_1459,mf_amp_cond2,3.0.4,59.97695559595148,
clean,&&&&&&&&,left,sanctity.virtue,framatic,,,,,,,,,,,,,,,0,127,127,8,,,,,,,,,,,,,AMP,right,0.6170699917129241,0,,,,,,,,,,,,,,right,0,0.6170699917129241,,,,,,,,,,,1062,2019_Mar_13_1459,mf_amp_cond2,3.0.4,59.97695559595148,
charges,&&&&&,right,fairness.vice,viscs,,,,,,,,,,,,,,,0,128,128,91,,,,,,,,,,,,,AMP,left,0.2836380908556748,0,,,,,,,,,,,,,,left,0,0.2836380908556748,,,,,,,,,,,1062,2019_Mar_13_1459,mf_amp_cond2,3.0.4,59.97695559595148,
blamed,&&&&&&&&&&,right,loyalty.vice,chonograph,,,,,,,,,,,,,,,0,129,129,150,,,,,,,,,,,,,AMP,left,0.8337705797166564,0,,,,,,,,,,,,,,left,0,0.8337705797166564,,,,,,,,,,,1062,2019_Mar_13_1459,mf_amp_cond2,3.0.4,59.97695559595148,
peaceful,&&&&&&&&&&,left,authority.virtue,frojecting,,,,,,,,,,,,,,,0,130,130,230,,,,,,,,,,,,,AMP,right,0.6837348837289028,0,,,,,,,,,,,,,,right,0,0.6837348837289028,,,,,,,,,,,1062,2019_Mar_13_1459,mf_amp_cond2,3.0.4,59.97695559595148,
improve,&&&&&&&&&&&&,left,care.virtue,rorroborated,,,,,,,,,,,,,,,0,131,131,198,,,,,,,,,,,,,AMP,right,1.0004730599466711,0,,,,,,,,,,,,,,right,0,1.0004730599466711,,,,,,,,,,,1062,2019_Mar_13_1459,mf_amp_cond2,3.0.4,59.97695559595148,
failure,&&&&&&,right,loyalty.vice,tislay,,,,,,,,,,,,,,,0,132,132,281,,,,,,,,,,,,,AMP,left,0.33370130448020063,0,,,,,,,,,,,,,,left,0,0.33370130448020063,,,,,,,,,,,1062,2019_Mar_13_1459,mf_amp_cond2,3.0.4,59.97695559595148,
compassion,&&&&&&&&,left,care.virtue,perified,,,,,,,,,,,,,,,0,133,133,90,,,,,,,,,,,,,AMP,right,2.417502833530307,0,,,,,,,,,,,,,,right,0,2.417502833530307,,,,,,,,,,,1062,2019_Mar_13_1459,mf_amp_cond2,3.0.4,59.97695559595148,
failure,&&&&&&&&&&&,right,loyalty.vice,shoirmaster,,,,,,,,,,,,,,,0,134,134,116,,,,,,,,,,,,,AMP,left,0.7503949649690185,0,,,,,,,,,,,,,,left,0,0.7503949649690185,,,,,,,,,,,1062,2019_Mar_13_1459,mf_amp_cond2,3.0.4,59.97695559595148,
letish,&&&&&&,None,nonword,pumber,,,,,,,,,,,,,,,0,135,135,294,,,,,,,,,,,,,AMP,left,1.6339683348196559,0,,,,,,,,,,,,,,left,0,1.6339683348196559,,,,,,,,,,,1062,2019_Mar_13_1459,mf_amp_cond2,3.0.4,59.97695559595148,
terrorist,&&&&&&&&&&&,right,loyalty.vice,shoirmaster,,,,,,,,,,,,,,,0,136,136,78,,,,,,,,,,,,,AMP,left,0.9838136522157583,0,,,,,,,,,,,,,,left,0,0.9838136522157583,,,,,,,,,,,1062,2019_Mar_13_1459,mf_amp_cond2,3.0.4,59.97695559595148,
intelligence,&&&,left,loyalty.virtue,oam,,,,,,,,,,,,,,,0,137,137,224,,,,,,,,,,,,,AMP,right,1.433923626638716,0,,,,,,,,,,,,,,right,0,1.433923626638716,,,,,,,,,,,1062,2019_Mar_13_1459,mf_amp_cond2,3.0.4,59.97695559595148,
promote,&&&&&&,left,sanctity.virtue,antral,,,,,,,,,,,,,,,0,138,138,220,,,,,,,,,,,,,AMP,left,0.7838420679036062,1,,,,,,,,,,,,,,left,1,0.7838420679036062,,,,,,,,,,,1062,2019_Mar_13_1459,mf_amp_cond2,3.0.4,59.97695559595148,
threatened,&&&&&&&,right,fairness.vice,reviked,,,,,,,,,,,,,,,0,139,139,221,,,,,,,,,,,,,AMP,left,1.2005286725761835,0,,,,,,,,,,,,,,left,0,1.2005286725761835,,,,,,,,,,,1062,2019_Mar_13_1459,mf_amp_cond2,3.0.4,59.97695559595148,
arrests,&&&&&,right,authority.vice,aubos,,,,,,,,,,,,,,,0,140,140,56,,,,,,,,,,,,,AMP,left,0.4503360810340382,0,,,,,,,,,,,,,,left,0,0.4503360810340382,,,,,,,,,,,1062,2019_Mar_13_1459,mf_amp_cond2,3.0.4,59.97695559595148,
refused,&&&&&&&&,right,authority.vice,clamorek,,,,,,,,,,,,,,,0,141,141,21,,,,,,,,,,,,,AMP,left,0.4003418219217565,0,,,,,,,,,,,,,,left,0,0.4003418219217565,,,,,,,,,,,1062,2019_Mar_13_1459,mf_amp_cond2,3.0.4,59.97695559595148,
freedom,&&&&&&&,left,sanctity.virtue,lursuer,,,,,,,,,,,,,,,0,142,142,165,,,,,,,,,,,,,AMP,left,0.8337776355037931,1,,,,,,,,,,,,,,left,1,0.8337776355037931,,,,,,,,,,,1062,2019_Mar_13_1459,mf_amp_cond2,3.0.4,59.97695559595148,
agreement,&&&&&&&&&&,left,fairness.virtue,ammessment,,,,,,,,,,,,,,,0,143,143,202,,,,,,,,,,,,,AMP,right,0.933798867103178,0,,,,,,,,,,,,,,right,0,0.933798867103178,,,,,,,,,,,1062,2019_Mar_13_1459,mf_amp_cond2,3.0.4,59.97695559595148,
ability,&&&&&&&&,left,authority.virtue,pullness,,,,,,,,,,,,,,,0,144,144,143,,,,,,,,,,,,,AMP,right,0.6003929444414098,0,,,,,,,,,,,,,,right,0,0.6003929444414098,,,,,,,,,,,1062,2019_Mar_13_1459,mf_amp_cond2,3.0.4,59.97695559595148,
blamed,&&&&&&&,right,loyalty.vice,gedious,,,,,,,,,,,,,,,0,145,145,313,,,,,,,,,,,,,AMP,right,0.7004109688277822,1,,,,,,,,,,,,,,right,1,0.7004109688277822,,,,,,,,,,,1062,2019_Mar_13_1459,mf_amp_cond2,3.0.4,59.97695559595148,
restore,&&&&&&,left,care.virtue,sgrawl,,,,,,,,,,,,,,,0,146,146,108,,,,,,,,,,,,,AMP,left,0.5503383901959751,1,,,,,,,,,,,,,,left,1,0.5503383901959751,,,,,,,,,,,1062,2019_Mar_13_1459,mf_amp_cond2,3.0.4,59.97695559595148,
army,&&&&&&,right,loyalty.vice,pumber,,,,,,,,,,,,,,,0,147,147,31,,,,,,,,,,,,,AMP,left,1.8840255831019022,0,,,,,,,,,,,,,,left,0,1.8840255831019022,,,,,,,,,,,1062,2019_Mar_13_1459,mf_amp_cond2,3.0.4,59.97695559595148,
sharing,&&&&&,left,loyalty.virtue,framo,,,,,,,,,,,,,,,0,148,148,84,,,,,,,,,,,,,AMP,left,0.6170504278561566,1,,,,,,,,,,,,,,left,1,0.6170504278561566,,,,,,,,,,,1062,2019_Mar_13_1459,mf_amp_cond2,3.0.4,59.97695559595148,
hope,&&&&&&&,left,loyalty.virtue,dramens,,,,,,,,,,,,,,,0,149,149,175,,,,,,,,,,,,,AMP,right,0.4336811633547768,0,,,,,,,,,,,,,,right,0,0.4336811633547768,,,,,,,,,,,1062,2019_Mar_13_1459,mf_amp_cond2,3.0.4,59.97695559595148,
serial,&&&&&&&&&,right,sanctity.vice,seachwear,,,,,,,,,,,,,,,0,150,150,151,,,,,,,,,,,,,AMP,left,1.9840586812642869,0,,,,,,,,,,,,,,left,0,1.9840586812642869,,,,,,,,,,,1062,2019_Mar_13_1459,mf_amp_cond2,3.0.4,59.97695559595148,
protesters,&&&&&&&&&&,right,authority.vice,frojecting,,,,,,,,,,,,,,,0,151,151,304,,,,,,,,,,,,,AMP,left,0.7003955743275583,0,,,,,,,,,,,,,,left,0,0.7003955743275583,,,,,,,,,,,1062,2019_Mar_13_1459,mf_amp_cond2,3.0.4,59.97695559595148,
suicide,&&&&&&&&&,right,care.vice,seachwear,,,,,,,,,,,,,,,0,152,152,283,,,,,,,,,,,,,AMP,left,0.2336184949381277,0,,,,,,,,,,,,,,left,0,0.2336184949381277,,,,,,,,,,,1062,2019_Mar_13_1459,mf_amp_cond2,3.0.4,59.97695559595148,
restore,&&&&&,left,care.virtue,viscs,,,,,,,,,,,,,,,0,153,153,255,,,,,,,,,,,,,AMP,left,0.36698387874639593,1,,,,,,,,,,,,,,left,1,0.36698387874639593,,,,,,,,,,,1062,2019_Mar_13_1459,mf_amp_cond2,3.0.4,59.97695559595148,
interests,&&&&&&&&,left,fairness.virtue,gowlands,,,,,,,,,,,,,,,0,154,154,326,,,,,,,,,,,,,AMP,right,0.2836377701314632,0,,,,,,,,,,,,,,right,0,0.2836377701314632,,,,,,,,,,,1062,2019_Mar_13_1459,mf_amp_cond2,3.0.4,59.97695559595148,
slending,&&&&&&,None,nonword,openet,,,,,,,,,,,,,,,0,155,155,34,,,,,,,,,,,,,AMP,left,0.5503775178804062,0,,,,,,,,,,,,,,left,0,0.5503775178804062,,,,,,,,,,,1062,2019_Mar_13_1459,mf_amp_cond2,3.0.4,59.97695559595148,
threatened,&&&&&,right,fairness.vice,saned,,,,,,,,,,,,,,,0,156,156,57,,,,,,,,,,,,,AMP,left,0.4336773147515487,0,,,,,,,,,,,,,,left,0,0.4336773147515487,,,,,,,,,,,1062,2019_Mar_13_1459,mf_amp_cond2,3.0.4,59.97695559595148,
hope,&&&&&&&,left,loyalty.virtue,dramens,,,,,,,,,,,,,,,0,157,157,327,,,,,,,,,,,,,AMP,right,0.5670635452552233,0,,,,,,,,,,,,,,right,0,0.5670635452552233,,,,,,,,,,,1062,2019_Mar_13_1459,mf_amp_cond2,3.0.4,59.97695559595148,
sharing,&&&&&&&&,left,loyalty.virtue,divility,,,,,,,,,,,,,,,0,158,158,206,,,,,,,,,,,,,AMP,left,0.983812048623804,1,,,,,,,,,,,,,,left,1,0.983812048623804,,,,,,,,,,,1062,2019_Mar_13_1459,mf_amp_cond2,3.0.4,59.97695559595148,
idexpressible,&&&&&&&&,None,nonword,thabbily,,,,,,,,,,,,,,,0,159,159,111,,,,,,,,,,,,,AMP,left,1.0004842850903515,0,,,,,,,,,,,,,,left,0,1.0004842850903515,,,,,,,,,,,1062,2019_Mar_13_1459,mf_amp_cond2,3.0.4,59.97695559595148,
freedom,&&&&&,left,sanctity.virtue,hasks,,,,,,,,,,,,,,,0,160,160,120,,,,,,,,,,,,,AMP,left,0.4503643042698968,1,,,,,,,,,,,,,,left,1,0.4503643042698968,,,,,,,,,,,1062,2019_Mar_13_1459,mf_amp_cond2,3.0.4,59.97695559595148,
refused,&&&&&,right,authority.vice,tabin,,,,,,,,,,,,,,,0,161,161,257,,,,,,,,,,,,,AMP,left,1.1005007059138734,0,,,,,,,,,,,,,,left,0,1.1005007059138734,,,,,,,,,,,1062,2019_Mar_13_1459,mf_amp_cond2,3.0.4,59.97695559595148,
betrayal,&&&&&&,right,loyalty.vice,chared,,,,,,,,,,,,,,,0,162,162,28,,,,,,,,,,,,,AMP,left,1.900706158252433,0,,,,,,,,,,,,,,left,0,1.900706158252433,,,,,,,,,,,1062,2019_Mar_13_1459,mf_amp_cond2,3.0.4,59.97695559595148,
arrests,&&&&&&,right,authority.vice,laming,,,,,,,,,,,,,,,0,163,163,189,,,,,,,,,,,,,AMP,left,0.3336467823246494,0,,,,,,,,,,,,,,left,0,0.3336467823246494,,,,,,,,,,,1062,2019_Mar_13_1459,mf_amp_cond2,3.0.4,59.97695559595148,
greaks,&&&&&&&&&,None,nonword,pescinded,,,,,,,,,,,,,,,0,164,164,251,,,,,,,,,,,,,AMP,left,1.1338487067841925,0,,,,,,,,,,,,,,left,0,1.1338487067841925,,,,,,,,,,,1062,2019_Mar_13_1459,mf_amp_cond2,3.0.4,59.97695559595148,
lies,&&&&&&&&&&&,right,fairness.vice,shoirmaster,,,,,,,,,,,,,,,0,165,165,318,,,,,,,,,,,,,AMP,left,0.8337657689116895,0,,,,,,,,,,,,,,left,0,0.8337657689116895,,,,,,,,,,,1062,2019_Mar_13_1459,mf_amp_cond2,3.0.4,59.97695559595148,
officers,&&&&&&&&,right,authority.vice,tracious,,,,,,,,,,,,,,,0,166,166,319,,,,,,,,,,,,,AMP,left,0.667061043670401,0,,,,,,,,,,,,,,left,0,0.667061043670401,,,,,,,,,,,1062,2019_Mar_13_1459,mf_amp_cond2,3.0.4,59.97695559595148,
hope,&&&&&&&,left,loyalty.virtue,nomaric,,,,,,,,,,,,,,,0,167,167,67,,,,,,,,,,,,,AMP,left,0.8337859741877764,1,,,,,,,,,,,,,,left,1,0.8337859741877764,,,,,,,,,,,1062,2019_Mar_13_1459,mf_amp_cond2,3.0.4,59.97695559595148,
win,&&&&&&,left,fairness.virtue,forepo,,,,,,,,,,,,,,,0,168,168,244,,,,,,,,,,,,,AMP,left,0.533703998546116,1,,,,,,,,,,,,,,left,1,0.533703998546116,,,,,,,,,,,1062,2019_Mar_13_1459,mf_amp_cond2,3.0.4,59.97695559595148,
useful,&&&&&&&&&&&,left,authority.virtue,ronviolence,,,,,,,,,,,,,,,0,169,169,17,,,,,,,,,,,,,AMP,right,1.7506634064484388,0,,,,,,,,,,,,,,right,0,1.7506634064484388,,,,,,,,,,,1062,2019_Mar_13_1459,mf_amp_cond2,3.0.4,59.97695559595148,
racist,&&&&&&&&&,right,sanctity.vice,fangsters,,,,,,,,,,,,,,,0,170,170,296,,,,,,,,,,,,,AMP,left,0.9671600174333435,0,,,,,,,,,,,,,,left,0,0.9671600174333435,,,,,,,,,,,1062,2019_Mar_13_1459,mf_amp_cond2,3.0.4,59.97695559595148,
restore,&&&&&&&&&&,left,care.virtue,elduringly,,,,,,,,,,,,,,,0,171,171,77,,,,,,,,,,,,,AMP,left,0.8504508341720793,1,,,,,,,,,,,,,,left,1,0.8504508341720793,,,,,,,,,,,1062,2019_Mar_13_1459,mf_amp_cond2,3.0.4,59.97695559595148,
officers,&&&&&,right,authority.vice,viscs,,,,,,,,,,,,,,,0,172,172,205,,,,,,,,,,,,,AMP,left,0.36698259587865323,0,,,,,,,,,,,,,,left,0,0.36698259587865323,,,,,,,,,,,1062,2019_Mar_13_1459,mf_amp_cond2,3.0.4,59.97695559595148,
promised,&&&&&&&,left,loyalty.virtue,pharing,,,,,,,,,,,,,,,0,173,173,106,,,,,,,,,,,,,AMP,left,0.5837447618541773,1,,,,,,,,,,,,,,left,1,0.5837447618541773,,,,,,,,,,,1062,2019_Mar_13_1459,mf_amp_cond2,3.0.4,59.97695559595148,
opportunity,&&&&&,left,fairness.virtue,aubos,,,,,,,,,,,,,,,0,174,174,265,,,,,,,,,,,,,AMP,left,1.083838090969948,1,,,,,,,,,,,,,,left,1,1.083838090969948,,,,,,,,,,,1062,2019_Mar_13_1459,mf_amp_cond2,3.0.4,59.97695559595148,
ensure,&&&&&,left,fairness.virtue,tabin,,,,,,,,,,,,,,,0,175,175,184,,,,,,,,,,,,,AMP,left,0.3836596431210637,1,,,,,,,,,,,,,,left,1,0.3836596431210637,,,,,,,,,,,1062,2019_Mar_13_1459,mf_amp_cond2,3.0.4,59.97695559595148,
useful,&&&&&&&&&&&&&,left,authority.virtue,wonderfujnoss,,,,,,,,,,,,,,,0,176,176,284,,,,,,,,,,,,,AMP,right,2.567542698874604,0,,,,,,,,,,,,,,right,0,2.567542698874604,,,,,,,,,,,1062,2019_Mar_13_1459,mf_amp_cond2,3.0.4,59.97695559595148,
gazily,&&&&&&&&&,None,nonword,gondensed,,,,,,,,,,,,,,,0,177,177,86,,,,,,,,,,,,,AMP,left,0.40033829398453236,0,,,,,,,,,,,,,,left,0,0.40033829398453236,,,,,,,,,,,1062,2019_Mar_13_1459,mf_amp_cond2,3.0.4,59.97695559595148,
praised,&&&&,left,loyalty.virtue,ning,,,,,,,,,,,,,,,0,178,178,322,,,,,,,,,,,,,AMP,left,1.8340242681151722,1,,,,,,,,,,,,,,left,1,1.8340242681151722,,,,,,,,,,,1062,2019_Mar_13_1459,mf_amp_cond2,3.0.4,59.97695559595148,
encourage,&&&&&&&&&&,left,authority.virtue,chonograph,,,,,,,,,,,,,,,0,179,179,186,,,,,,,,,,,,,AMP,left,2.167422814265592,1,,,,,,,,,,,,,,left,1,2.167422814265592,,,,,,,,,,,1062,2019_Mar_13_1459,mf_amp_cond2,3.0.4,59.97695559595148,
protect,&&&&&&&&&&,left,fairness.virtue,totalestic,,,,,,,,,,,,,,,0,180,180,279,,,,,,,,,,,,,AMP,right,2.6675623268529307,0,,,,,,,,,,,,,,right,0,2.6675623268529307,,,,,,,,,,,1062,2019_Mar_13_1459,mf_amp_cond2,3.0.4,59.97695559595148,
great,&&&&&&,left,loyalty.virtue,squets,,,,,,,,,,,,,,,0,181,181,24,,,,,,,,,,,,,AMP,right,0.13360111200017855,0,,,,,,,,,,,,,,right,0,0.13360111200017855,,,,,,,,,,,1062,2019_Mar_13_1459,mf_amp_cond2,3.0.4,59.97695559595148,
threatened,&&&&&&&,right,fairness.vice,carvels,,,,,,,,,,,,,,,0,182,182,137,,,,,,,,,,,,,AMP,left,0.1502672548231203,0,,,,,,,,,,,,,,left,0,0.1502672548231203,,,,,,,,,,,1062,2019_Mar_13_1459,mf_amp_cond2,3.0.4,59.97695559595148,
idexpressible,&&&&&&&&&&&,None,nonword,nomparisons,,,,,,,,,,,,,,,0,183,183,247,,,,,,,,,,,,,AMP,right,0.3503052279120311,0,,,,,,,,,,,,,,right,0,0.3503052279120311,,,,,,,,,,,1062,2019_Mar_13_1459,mf_amp_cond2,3.0.4,59.97695559595148,
opportunity,&&&&,left,fairness.virtue,ning,,,,,,,,,,,,,,,0,184,184,174,,,,,,,,,,,,,AMP,right,0.33364389586495236,0,,,,,,,,,,,,,,right,0,0.33364389586495236,,,,,,,,,,,1062,2019_Mar_13_1459,mf_amp_cond2,3.0.4,59.97695559595148,
idexpressible,&&&&&&&,None,nonword,festate,,,,,,,,,,,,,,,0,185,185,61,,,,,,,,,,,,,AMP,right,0.26696393004385754,0,,,,,,,,,,,,,,right,0,0.26696393004385754,,,,,,,,,,,1062,2019_Mar_13_1459,mf_amp_cond2,3.0.4,59.97695559595148,
conspiracy,&&&&&&&&,right,sanctity.vice,tracious,,,,,,,,,,,,,,,0,186,186,212,,,,,,,,,,,,,AMP,left,0.16679933725390583,0,,,,,,,,,,,,,,left,0,0.16679933725390583,,,,,,,,,,,1062,2019_Mar_13_1459,mf_amp_cond2,3.0.4,59.97695559595148,
win,&&&&&&&&&,left,fairness.virtue,brotesque,,,,,,,,,,,,,,,0,187,187,139,,,,,,,,,,,,,AMP,left,0.4003299553296529,1,,,,,,,,,,,,,,left,1,0.4003299553296529,,,,,,,,,,,1062,2019_Mar_13_1459,mf_amp_cond2,3.0.4,59.97695559595148,
improve,&&&&&&&&&,left,care.virtue,pescinded,,,,,,,,,,,,,,,0,188,188,18,,,,,,,,,,,,,AMP,left,0.38365675666136667,1,,,,,,,,,,,,,,left,1,0.38365675666136667,,,,,,,,,,,1062,2019_Mar_13_1459,mf_amp_cond2,3.0.4,59.97695559595148,
hate,&&&&&,right,fairness.vice,dumid,,,,,,,,,,,,,,,0,189,189,222,,,,,,,,,,,,,AMP,right,0.5003524697676767,1,,,,,,,,,,,,,,right,1,0.5003524697676767,,,,,,,,,,,1062,2019_Mar_13_1459,mf_amp_cond2,3.0.4,59.97695559595148,
civilians,&&&&&&&,right,care.vice,dramens,,,,,,,,,,,,,,,0,190,190,87,,,,,,,,,,,,,AMP,right,0.3669787472754251,1,,,,,,,,,,,,,,right,1,0.3669787472754251,,,,,,,,,,,1062,2019_Mar_13_1459,mf_amp_cond2,3.0.4,59.97695559595148,
charges,&&&&&&&&,right,fairness.vice,clamorek,,,,,,,,,,,,,,,0,191,191,298,,,,,,,,,,,,,AMP,right,0.7670983111602254,1,,,,,,,,,,,,,,right,1,0.7670983111602254,,,,,,,,,,,1062,2019_Mar_13_1459,mf_amp_cond2,3.0.4,59.97695559595148,
violence,&&&&&&,right,care.vice,prones,,,,,,,,,,,,,,,0,192,192,192,,,,,,,,,,,,,AMP,left,0.43367122107883915,0,,,,,,,,,,,,,,left,0,0.43367122107883915,,,,,,,,,,,1062,2019_Mar_13_1459,mf_amp_cond2,3.0.4,59.97695559595148,
accused,&&&&&&&&&&,right,fairness.vice,elduringly,,,,,,,,,,,,,,,0,193,193,300,,,,,,,,,,,,,AMP,left,0.817087759525748,0,,,,,,,,,,,,,,left,0,0.817087759525748,,,,,,,,,,,1062,2019_Mar_13_1459,mf_amp_cond2,3.0.4,59.97695559595148,
unscothed,&&&&&&&&&&&,None,nonword,ronviolence,,,,,,,,,,,,,,,0,194,194,325,,,,,,,,,,,,,AMP,left,0.4003315588925034,0,,,,,,,,,,,,,,left,0,0.4003315588925034,,,,,,,,,,,1062,2019_Mar_13_1459,mf_amp_cond2,3.0.4,59.97695559595148,
ensure,&&&&&&&&&,left,fairness.virtue,gandbrake,,,,,,,,,,,,,,,0,195,195,23,,,,,,,,,,,,,AMP,left,0.4503835474024527,1,,,,,,,,,,,,,,left,1,0.4503835474024527,,,,,,,,,,,1062,2019_Mar_13_1459,mf_amp_cond2,3.0.4,59.97695559595148,
civilians,&&&&&&&&&&,right,care.vice,simplustic,,,,,,,,,,,,,,,0,196,196,207,,,,,,,,,,,,,AMP,left,0.9504547469259705,0,,,,,,,,,,,,,,left,0,0.9504547469259705,,,,,,,,,,,1062,2019_Mar_13_1459,mf_amp_cond2,3.0.4,59.97695559595148,
death,&&&&&&&&&,right,care.vice,seachwear,,,,,,,,,,,,,,,0,197,197,217,,,,,,,,,,,,,AMP,left,0.7504170945612714,0,,,,,,,,,,,,,,left,0,0.7504170945612714,,,,,,,,,,,1062,2019_Mar_13_1459,mf_amp_cond2,3.0.4,59.97695559595148,
safe,&&&&&&&,left,care.virtue,nomaric,,,,,,,,,,,,,,,0,198,198,168,,,,,,,,,,,,,AMP,left,0.7003984608163591,1,,,,,,,,,,,,,,left,1,0.7003984608163591,,,,,,,,,,,1062,2019_Mar_13_1459,mf_amp_cond2,3.0.4,59.97695559595148,
useful,&&&&&&&&&&&,left,authority.virtue,shoirmaster,,,,,,,,,,,,,,,0,199,199,196,,,,,,,,,,,,,AMP,left,0.6004144325852394,1,,,,,,,,,,,,,,left,1,0.6004144325852394,,,,,,,,,,,1062,2019_Mar_13_1459,mf_amp_cond2,3.0.4,59.97695559595148,
pleasant,&&&&&&&&&&&&,None,control,unreflectuve,,,,,,,,,,,,,,,0,200,200,128,,,,,,,,,,,,,AMP,left,0.5336998291895725,0,,,,,,,,,,,,,,left,0,0.5336998291895725,,,,,,,,,,,1062,2019_Mar_13_1459,mf_amp_cond2,3.0.4,59.97695559595148,
rejected,&&&&&&&&&,right,authority.vice,metibolic,,,,,,,,,,,,,,,0,201,201,48,,,,,,,,,,,,,AMP,right,3.7511826498957817,1,,,,,,,,,,,,,,right,1,3.7511826498957817,,,,,,,,,,,1062,2019_Mar_13_1459,mf_amp_cond2,3.0.4,59.97695559595148,
protect,&&&&&,left,fairness.virtue,framo,,,,,,,,,,,,,,,0,202,202,210,,,,,,,,,,,,,AMP,right,0.13360399845987558,0,,,,,,,,,,,,,,right,0,0.13360399845987558,,,,,,,,,,,1062,2019_Mar_13_1459,mf_amp_cond2,3.0.4,59.97695559595148,
hefurbished,&&&&&&&&&&,None,nonword,ecgagement,,,,,,,,,,,,,,,0,203,203,240,,,,,,,,,,,,,AMP,left,0.5503646891156677,0,,,,,,,,,,,,,,left,0,0.5503646891156677,,,,,,,,,,,1062,2019_Mar_13_1459,mf_amp_cond2,3.0.4,59.97695559595148,
peaceful,&&&&&&&&&&&,left,authority.virtue,shoirmaster,,,,,,,,,,,,,,,0,204,204,2,,,,,,,,,,,,,AMP,left,0.7004071201954503,1,,,,,,,,,,,,,,left,1,0.7004071201954503,,,,,,,,,,,1062,2019_Mar_13_1459,mf_amp_cond2,3.0.4,59.97695559595148,
celebrated,&&&&&&,left,authority.virtue,erdest,,,,,,,,,,,,,,,0,205,205,123,,,,,,,,,,,,,AMP,right,0.7504209431936033,0,,,,,,,,,,,,,,right,0,0.7504209431936033,,,,,,,,,,,1062,2019_Mar_13_1459,mf_amp_cond2,3.0.4,59.97695559595148,
protect,&&&&&&&&&&,left,fairness.virtue,elduringly,,,,,,,,,,,,,,,0,206,206,124,,,,,,,,,,,,,AMP,right,0.18361750070471317,0,,,,,,,,,,,,,,right,0,0.18361750070471317,,,,,,,,,,,1062,2019_Mar_13_1459,mf_amp_cond2,3.0.4,59.97695559595148,
rejected,&&&&&&&&&,right,authority.vice,pescinded,,,,,,,,,,,,,,,0,207,207,194,,,,,,,,,,,,,AMP,left,0.1336238830408547,0,,,,,,,,,,,,,,left,0,0.1336238830408547,,,,,,,,,,,1062,2019_Mar_13_1459,mf_amp_cond2,3.0.4,59.97695559595148,
injured,&&&&&&&&&&,right,care.vice,clattening,,,,,,,,,,,,,,,0,208,208,176,,,,,,,,,,,,,AMP,left,0.4836978728126269,0,,,,,,,,,,,,,,left,0,0.4836978728126269,,,,,,,,,,,1062,2019_Mar_13_1459,mf_amp_cond2,3.0.4,59.97695559595148,
victims,&&&&&&&,right,care.vice,lursuer,,,,,,,,,,,,,,,0,209,209,133,,,,,,,,,,,,,AMP,left,0.15028521505882964,0,,,,,,,,,,,,,,left,0,0.15028521505882964,,,,,,,,,,,1062,2019_Mar_13_1459,mf_amp_cond2,3.0.4,59.97695559595148,
promised,&&&&&,left,loyalty.virtue,hasks,,,,,,,,,,,,,,,0,210,210,201,,,,,,,,,,,,,AMP,right,0.0502540412126109,0,,,,,,,,,,,,,,right,0,0.0502540412126109,,,,,,,,,,,1062,2019_Mar_13_1459,mf_amp_cond2,3.0.4,59.97695559595148,
praised,&&&&&&&&,left,loyalty.virtue,suggists,,,,,,,,,,,,,,,0,211,211,82,,,,,,,,,,,,,AMP,right,0.3168581250065472,0,,,,,,,,,,,,,,right,0,0.3168581250065472,,,,,,,,,,,1062,2019_Mar_13_1459,mf_amp_cond2,3.0.4,59.97695559595148,
lies,&&&&&&&&,right,fairness.vice,divility,,,,,,,,,,,,,,,0,212,212,22,,,,,,,,,,,,,AMP,left,0.30031802458688617,0,,,,,,,,,,,,,,left,0,0.30031802458688617,,,,,,,,,,,1062,2019_Mar_13_1459,mf_amp_cond2,3.0.4,59.97695559595148,
good,&&&&&&,left,care.virtue,squets,,,,,,,,,,,,,,,0,213,213,274,,,,,,,,,,,,,AMP,right,0.26698413531994447,0,,,,,,,,,,,,,,right,0,0.26698413531994447,,,,,,,,,,,1062,2019_Mar_13_1459,mf_amp_cond2,3.0.4,59.97695559595148,
friends,&&&&&&,left,loyalty.virtue,squets,,,,,,,,,,,,,,,0,214,214,231,,,,,,,,,,,,,AMP,right,0.3336410094052553,0,,,,,,,,,,,,,,right,0,0.3336410094052553,,,,,,,,,,,1062,2019_Mar_13_1459,mf_amp_cond2,3.0.4,59.97695559595148,
threatened,&&&&&&&&&&,right,fairness.vice,simplustic,,,,,,,,,,,,,,,0,215,215,317,,,,,,,,,,,,,AMP,left,0.25030195657745935,0,,,,,,,,,,,,,,left,0,0.25030195657745935,,,,,,,,,,,1062,2019_Mar_13_1459,mf_amp_cond2,3.0.4,59.97695559595148,
vurtain,&&&&&&&&&&&&&,None,nonword,wonderfujnoss,,,,,,,,,,,,,,,0,216,216,236,,,,,,,,,,,,,AMP,right,0.4003376525652129,0,,,,,,,,,,,,,,right,0,0.4003376525652129,,,,,,,,,,,1062,2019_Mar_13_1459,mf_amp_cond2,3.0.4,59.97695559595148,
progress,&&&&&&&&&&,left,authority.virtue,ecgagement,,,,,,,,,,,,,,,0,217,217,6,,,,,,,,,,,,,AMP,left,0.35031773592345417,1,,,,,,,,,,,,,,left,1,0.35031773592345417,,,,,,,,,,,1062,2019_Mar_13_1459,mf_amp_cond2,3.0.4,59.97695559595148,
pleasant,&&&&&&&&,None,control,thadowed,,,,,,,,,,,,,,,0,218,218,218,,,,,,,,,,,,,AMP,right,0.13360912995995022,0,,,,,,,,,,,,,,right,0,0.13360912995995022,,,,,,,,,,,1062,2019_Mar_13_1459,mf_amp_cond2,3.0.4,59.97695559595148,
unpleasant,&&&&&&&,None,control,festate,,,,,,,,,,,,,,,0,219,219,173,,,,,,,,,,,,,AMP,right,0.7171412553580012,0,,,,,,,,,,,,,,right,0,0.7171412553580012,,,,,,,,,,,1062,2019_Mar_13_1459,mf_amp_cond2,3.0.4,59.97695559595148,
peaceful,&&&&&,left,authority.virtue,framo,,,,,,,,,,,,,,,0,220,220,295,,,,,,,,,,,,,AMP,right,0.9337918112869374,0,,,,,,,,,,,,,,right,0,0.9337918112869374,,,,,,,,,,,1062,2019_Mar_13_1459,mf_amp_cond2,3.0.4,59.97695559595148,
ability,&&&&&&&&&&,left,authority.virtue,chonograph,,,,,,,,,,,,,,,0,221,221,13,,,,,,,,,,,,,AMP,right,0.2669629679294303,0,,,,,,,,,,,,,,right,0,0.2669629679294303,,,,,,,,,,,1062,2019_Mar_13_1459,mf_amp_cond2,3.0.4,59.97695559595148,
slending,&&&&&&&,None,nonword,festate,,,,,,,,,,,,,,,0,222,222,98,,,,,,,,,,,,,AMP,right,0.4336660895787645,0,,,,,,,,,,,,,,right,0,0.4336660895787645,,,,,,,,,,,1062,2019_Mar_13_1459,mf_amp_cond2,3.0.4,59.97695559595148,
friends,&&&&&&,left,loyalty.virtue,laming,,,,,,,,,,,,,,,0,223,223,149,,,,,,,,,,,,,AMP,right,0.48369658991578035,0,,,,,,,,,,,,,,right,0,0.48369658991578035,,,,,,,,,,,1062,2019_Mar_13_1459,mf_amp_cond2,3.0.4,59.97695559595148,
scandal,&&&&&&&&&&&,right,sanctity.vice,shoirmaster,,,,,,,,,,,,,,,0,224,224,89,,,,,,,,,,,,,AMP,right,0.43364620505599305,1,,,,,,,,,,,,,,right,1,0.43364620505599305,,,,,,,,,,,1062,2019_Mar_13_1459,mf_amp_cond2,3.0.4,59.97695559595148,
useful,&&&&&&&,left,authority.virtue,reviked,,,,,,,,,,,,,,,0,225,225,112,,,,,,,,,,,,,AMP,right,0.6170520314481109,0,,,,,,,,,,,,,,right,0,0.6170520314481109,,,,,,,,,,,1062,2019_Mar_13_1459,mf_amp_cond2,3.0.4,59.97695559595148,
good,&&&&&&&&&&&,left,care.virtue,neneficence,,,,,,,,,,,,,,,0,226,226,36,,,,,,,,,,,,,AMP,right,0.46701922194915824,0,,,,,,,,,,,,,,right,0,0.46701922194915824,,,,,,,,,,,1062,2019_Mar_13_1459,mf_amp_cond2,3.0.4,59.97695559595148,
charges,&&&&&&&&&,right,fairness.vice,Phintoism,,,,,,,,,,,,,,,0,227,227,233,,,,,,,,,,,,,AMP,right,0.6670607229170855,1,,,,,,,,,,,,,,right,1,0.6670607229170855,,,,,,,,,,,1062,2019_Mar_13_1459,mf_amp_cond2,3.0.4,59.97695559595148,
safe,&&&&&&,left,care.virtue,laming,,,,,,,,,,,,,,,0,228,228,60,,,,,,,,,,,,,AMP,left,0.717079998110421,1,,,,,,,,,,,,,,left,1,0.717079998110421,,,,,,,,,,,1062,2019_Mar_13_1459,mf_amp_cond2,3.0.4,59.97695559595148,
clean,&&&&&&&&&,left,sanctity.virtue,refuejing,,,,,,,,,,,,,,,0,229,229,267,,,,,,,,,,,,,AMP,right,0.6170918005809654,0,,,,,,,,,,,,,,right,0,0.6170918005809654,,,,,,,,,,,1062,2019_Mar_13_1459,mf_amp_cond2,3.0.4,59.97695559595148,
sharing,&&&&,left,loyalty.virtue,spag,,,,,,,,,,,,,,,0,230,230,253,,,,,,,,,,,,,AMP,right,0.3836628503340762,0,,,,,,,,,,,,,,right,0,0.3836628503340762,,,,,,,,,,,1062,2019_Mar_13_1459,mf_amp_cond2,3.0.4,59.97695559595148,
terrorists,&&&&&&&&,right,fairness.vice,tracious,,,,,,,,,,,,,,,0,231,231,118,,,,,,,,,,,,,AMP,left,0.2502923349966295,0,,,,,,,,,,,,,,left,0,0.2502923349966295,,,,,,,,,,,1062,2019_Mar_13_1459,mf_amp_cond2,3.0.4,59.97695559595148,
betrayal,&&&&&&&&&,right,loyalty.vice,Phintoism,,,,,,,,,,,,,,,0,232,232,310,,,,,,,,,,,,,AMP,left,0.8170332373410929,0,,,,,,,,,,,,,,left,0,0.8170332373410929,,,,,,,,,,,1062,2019_Mar_13_1459,mf_amp_cond2,3.0.4,59.97695559595148,
energy,&&&&&&&&&&&,left,sanctity.virtue,shoirmaster,,,,,,,,,,,,,,,0,233,233,209,,,,,,,,,,,,,AMP,left,0.5337152236606926,1,,,,,,,,,,,,,,left,1,0.5337152236606926,,,,,,,,,,,1062,2019_Mar_13_1459,mf_amp_cond2,3.0.4,59.97695559595148,
conspiracy,&&&&&,right,sanctity.vice,dumid,,,,,,,,,,,,,,,0,234,234,158,,,,,,,,,,,,,AMP,left,1.4005874923605006,0,,,,,,,,,,,,,,left,0,1.4005874923605006,,,,,,,,,,,1062,2019_Mar_13_1459,mf_amp_cond2,3.0.4,59.97695559595148,
greaks,&&&&&&&&&&&,None,nonword,neneficence,,,,,,,,,,,,,,,0,235,235,242,,,,,,,,,,,,,AMP,left,0.6003955101768952,0,,,,,,,,,,,,,,left,0,0.6003955101768952,,,,,,,,,,,1062,2019_Mar_13_1459,mf_amp_cond2,3.0.4,59.97695559595148,
win,&&&&&&&,left,fairness.virtue,carvels,,,,,,,,,,,,,,,0,236,236,29,,,,,,,,,,,,,AMP,right,0.0669192218920216,0,,,,,,,,,,,,,,right,0,0.0669192218920216,,,,,,,,,,,1062,2019_Mar_13_1459,mf_amp_cond2,3.0.4,59.97695559595148,
rejected,&&&&&&,right,authority.vice,antral,,,,,,,,,,,,,,,0,237,237,157,,,,,,,,,,,,,AMP,left,0.6170494657126255,0,,,,,,,,,,,,,,left,0,0.6170494657126255,,,,,,,,,,,1062,2019_Mar_13_1459,mf_amp_cond2,3.0.4,59.97695559595148,
slavery,&&&&&&&,right,loyalty.vice,chreams,,,,,,,,,,,,,,,0,238,238,134,,,,,,,,,,,,,AMP,left,0.9171105946879834,0,,,,,,,,,,,,,,left,0,0.9171105946879834,,,,,,,,,,,1062,2019_Mar_13_1459,mf_amp_cond2,3.0.4,59.97695559595148,
betrayal,&&&&&&&&,right,loyalty.vice,gowlands,,,,,,,,,,,,,,,0,239,239,109,,,,,,,,,,,,,AMP,right,4.618022846727399,1,,,,,,,,,,,,,,right,1,4.618022846727399,,,,,,,,,,,1062,2019_Mar_13_1459,mf_amp_cond2,3.0.4,59.97695559595148,
increase,&&&&&&&,left,care.virtue,smapper,,,,,,,,,,,,,,,0,240,240,154,,,,,,,,,,,,,AMP,right,0.15027431063936092,0,,,,,,,,,,,,,,right,0,0.15027431063936092,,,,,,,,,,,1062,2019_Mar_13_1459,mf_amp_cond2,3.0.4,59.97695559595148,
serial,&&&&&&&&,right,sanctity.vice,thabbily,,,,,,,,,,,,,,,0,241,241,19,,,,,,,,,,,,,AMP,right,0.4170470924000256,1,,,,,,,,,,,,,,right,1,0.4170470924000256,,,,,,,,,,,1062,2019_Mar_13_1459,mf_amp_cond2,3.0.4,59.97695559595148,
compassion,&&&&&&&&&,left,care.virtue,ittutable,,,,,,,,,,,,,,,0,242,242,42,,,,,,,,,,,,,AMP,left,0.13359886695980094,1,,,,,,,,,,,,,,left,1,0.13359886695980094,,,,,,,,,,,1062,2019_Mar_13_1459,mf_amp_cond2,3.0.4,59.97695559595148,
