words,mask,corr_ans,category,nonwords,tweets,topic,LDT_pracloop.thisRepN,LDT_pracloop.thisTrialN,LDT_pracloop.thisN,LDT_pracloop.thisIndex,LDT_trials.thisRepN,LDT_trials.thisTrialN,LDT_trials.thisN,LDT_trials.thisIndex,AMP_pracloop.thisRepN,AMP_pracloop.thisTrialN,AMP_pracloop.thisN,AMP_pracloop.thisIndex,AMP_trials.thisRepN,AMP_trials.thisTrialN,AMP_trials.thisN,AMP_trials.thisIndex,tweet_loop.thisRepN,tweet_loop.thisTrialN,tweet_loop.thisN,tweet_loop.thisIndex,begin_key.keys,begin_key.rt,key_resp_AMP_instr1.keys,key_resp_AMP_instr1.rt,key_resp_LDT_instr.keys,key_resp_LDT_instr.rt,resp_LDT_prac.keys,resp_LDT_prac.rt,task,keypress,RT,corr,resp_LDT_ready.keys,resp_LDT_ready.rt,resp_LDT.keys,resp_LDT.corr,resp_LDT.rt,LDT_rating.response,LDT_rating.rt,resp_AMP_ready1.keys,resp_AMP_ready1.rt,resp_AMP_prac.keys,resp_AMP_prac.rt,resp_AMP_ready.keys,resp_AMP_ready.rt,resp_AMP.keys,resp_AMP.corr,resp_AMP.rt,AMP_nonword_rating.response,AMP_nonword_rating.rt,AMP_word_rating.response,AMP_word_rating.rt,AMP_random_rating.response,AMP_random_rating.rt,key_resp_LDT_instr_2.keys,key_resp_LDT_instr_2.rt,resp_tweets.keys,resp_tweets.rt,participant,date,expName,psychopyVersion,frameRate,
,,,,,,,,,,,,,,,,,,,,,,,,,,,right,420.5692770437163,,,,,,,,,,,,,,,,,,,,,,,,,,,,,,,,,,,,,1064,2019_Mar_13_1500,mf_amp_cond2,3.0.4,59.99859521893446,
,,,,,,,,,,,,,,,,,,,,,,,,,,,,,right,3.0511336173512973,,,,,,,,,,,,,,,,,,,,,,,,,,,,,,,,,,,1064,2019_Mar_13_1500,mf_amp_cond2,3.0.4,59.99859521893446,
,,,,,,,,,,,,,,,,,,,,,,,,,,,,,,,right,1.8007865032705013,,,,,,,,,,,,,,,,,,,,,,,,,,,,,,,,,1064,2019_Mar_13_1500,mf_amp_cond2,3.0.4,59.99859521893446,
keyboard,&&&&&&&,,,,,,0,0,0,0,,,,,,,,,,,,,,,,,,,,,,,left,1.200576615112368,LDT_prac,left,1.200576615112368,0,,,,,,,,,,,,,,,,,,,,,,,,,,,1064,2019_Mar_13_1500,mf_amp_cond2,3.0.4,59.99859521893446,
bisebell,&&&&&&&,,,,,,0,1,1,1,,,,,,,,,,,,,,,,,,,,,,,left,1.0338797460135538,LDT_prac,left,1.0338797460135538,0,,,,,,,,,,,,,,,,,,,,,,,,,,,1064,2019_Mar_13_1500,mf_amp_cond2,3.0.4,59.99859521893446,
,,,,,,,,,,,,,,,,,,,,,,,,,,,,,,,,,,,,,,,right,1.8174255280464422,,,,,,,,,,,,,,,,,,,,,,,,,1064,2019_Mar_13_1500,mf_amp_cond2,3.0.4,59.99859521893446,
seem,&&&&,left,neutral,,,,,,,,0,0,0,47,,,,,,,,,,,,,,,,,,,,,LDT,right,3.11781351963873,0,,,right,0,3.11781351963873,,,,,,,,,,,,,,,,,,,,,,1064,2019_Mar_13_1500,mf_amp_cond2,3.0.4,59.99859521893446,
were,&&&&,left,neutral,,,,,,,,0,1,1,46,,,,,,,,,,,,,,,,,,,,,LDT,right,1.4339591596799437,0,,,right,0,1.4339591596799437,,,,,,,,,,,,,,,,,,,,,,1064,2019_Mar_13_1500,mf_amp_cond2,3.0.4,59.99859521893446,
imebreaker,&&&&&&&&&&,right,nonword,,,,,,,,0,2,2,94,,,,,,,,,,,,,,,,,,,,,LDT,left,0.9838712626078632,0,,,left,0,0.9838712626078632,,,,,,,,,,,,,,,,,,,,,,1064,2019_Mar_13_1500,mf_amp_cond2,3.0.4,59.99859521893446,
elsewhere,&&&&&&&&&,left,neutral,,,,,,,,0,3,3,53,,,,,,,,,,,,,,,,,,,,,LDT,right,0.817128849303117,0,,,right,0,0.817128849303117,,,,,,,,,,,,,,,,,,,,,,1064,2019_Mar_13_1500,mf_amp_cond2,3.0.4,59.99859521893446,
hereby,&&&&&&,left,neutral,,,,,,,,0,4,4,199,,,,,,,,,,,,,,,,,,,,,LDT,right,1.1005423286987934,0,,,right,0,1.1005423286987934,,,,,,,,,,,,,,,,,,,,,,1064,2019_Mar_13_1500,mf_amp_cond2,3.0.4,59.99859521893446,
focomotive,&&&&&&&&&&,right,nonword,,,,,,,,0,5,5,74,,,,,,,,,,,,,,,,,,,,,LDT,right,1.0672270740324166,1,,,right,1,1.0672270740324166,,,,,,,,,,,,,,,,,,,,,,1064,2019_Mar_13_1500,mf_amp_cond2,3.0.4,59.99859521893446,
stindig,&&&&&&&,right,nonword,,,,,,,,0,6,6,123,,,,,,,,,,,,,,,,,,,,,LDT,right,0.6670944185461849,1,,,right,1,0.6670944185461849,,,,,,,,,,,,,,,,,,,,,,1064,2019_Mar_13_1500,mf_amp_cond2,3.0.4,59.99859521893446,
unscothed,&&&&&&&&&,right,nonword,,,,,,,,0,7,7,5,,,,,,,,,,,,,,,,,,,,,LDT,right,1.250603059597779,1,,,right,1,1.250603059597779,,,,,,,,,,,,,,,,,,,,,,1064,2019_Mar_13_1500,mf_amp_cond2,3.0.4,59.99859521893446,
godlaness,&&&&&&&&&,right,nonword,,,,,,,,0,8,8,55,,,,,,,,,,,,,,,,,,,,,LDT,right,0.8838267126993742,1,,,right,1,0.8838267126993742,,,,,,,,,,,,,,,,,,,,,,1064,2019_Mar_13_1500,mf_amp_cond2,3.0.4,59.99859521893446,
fornicalion,&&&&&&&&&&&,right,nonword,,,,,,,,0,9,9,64,,,,,,,,,,,,,,,,,,,,,LDT,right,2.084192605718272,1,,,right,1,2.084192605718272,,,,,,,,,,,,,,,,,,,,,,1064,2019_Mar_13_1500,mf_amp_cond2,3.0.4,59.99859521893446,
oam,&&&,right,nonword,,,,,,,,0,10,10,157,,,,,,,,,,,,,,,,,,,,,LDT,left,0.7504467019170988,0,,,left,0,0.7504467019170988,,,,,,,,,,,,,,,,,,,,,,1064,2019_Mar_13_1500,mf_amp_cond2,3.0.4,59.99859521893446,
groups,&&&&&&,left,loyalty.vice,,,,,,,,0,11,11,197,,,,,,,,,,,,,,,,,,,,,LDT,right,0.6670924941427074,0,,,right,0,0.6670924941427074,,,,,,,,,,,,,,,,,,,,,,1064,2019_Mar_13_1500,mf_amp_cond2,3.0.4,59.99859521893446,
army,&&&&,left,loyalty.vice,,,,,,,,0,12,12,149,,,,,,,,,,,,,,,,,,,,,LDT,right,0.6838024010648951,0,,,right,0,0.6838024010648951,,,,,,,,,,,,,,,,,,,,,,1064,2019_Mar_13_1500,mf_amp_cond2,3.0.4,59.99859521893446,
honstables,&&&&&&&&&&,right,nonword,,,,,,,,0,13,13,196,,,,,,,,,,,,,,,,,,,,,LDT,right,0.9170377288828604,1,,,right,1,0.9170377288828604,,,,,,,,,,,,,,,,,,,,,,1064,2019_Mar_13_1500,mf_amp_cond2,3.0.4,59.99859521893446,
protesters,&&&&&&&&&&,left,authority.vice,,,,,,,,0,14,14,138,,,,,,,,,,,,,,,,,,,,,LDT,right,0.7337810562457889,0,,,right,0,0.7337810562457889,,,,,,,,,,,,,,,,,,,,,,1064,2019_Mar_13_1500,mf_amp_cond2,3.0.4,59.99859521893446,
racist,&&&&&&,left,sanctity.vice,,,,,,,,0,15,15,130,,,,,,,,,,,,,,,,,,,,,LDT,right,1.5506882785703056,0,,,right,0,1.5506882785703056,,,,,,,,,,,,,,,,,,,,,,1064,2019_Mar_13_1500,mf_amp_cond2,3.0.4,59.99859521893446,
trust,&&&&&,left,authority.virtue,,,,,,,,0,16,16,76,,,,,,,,,,,,,,,,,,,,,LDT,right,1.7340770934824832,0,,,right,0,1.7340770934824832,,,,,,,,,,,,,,,,,,,,,,1064,2019_Mar_13_1500,mf_amp_cond2,3.0.4,59.99859521893446,
blamed,&&&&&&,left,loyalty.vice,,,,,,,,0,17,17,35,,,,,,,,,,,,,,,,,,,,,LDT,right,0.7837860115978401,0,,,right,0,0.7837860115978401,,,,,,,,,,,,,,,,,,,,,,1064,2019_Mar_13_1500,mf_amp_cond2,3.0.4,59.99859521893446,
strength,&&&&&&&&,left,sanctity.virtue,,,,,,,,0,18,18,184,,,,,,,,,,,,,,,,,,,,,LDT,right,0.8004840513458475,0,,,right,0,0.8004840513458475,,,,,,,,,,,,,,,,,,,,,,1064,2019_Mar_13_1500,mf_amp_cond2,3.0.4,59.99859521893446,
fighters,&&&&&&&&,left,authority.vice,,,,,,,,0,19,19,178,,,,,,,,,,,,,,,,,,,,,LDT,right,0.6504140191536862,0,,,right,0,0.6504140191536862,,,,,,,,,,,,,,,,,,,,,,1064,2019_Mar_13_1500,mf_amp_cond2,3.0.4,59.99859521893446,
hence,&&&&&,left,neutral,,,,,,,,0,20,20,118,,,,,,,,,,,,,,,,,,,,,LDT,right,0.46704701412818395,0,,,right,0,0.46704701412818395,,,,,,,,,,,,,,,,,,,,,,1064,2019_Mar_13_1500,mf_amp_cond2,3.0.4,59.99859521893446,
ebbitter,&&&&&&&&,right,nonword,,,,,,,,0,21,21,100,,,,,,,,,,,,,,,,,,,,,LDT,right,1.7340658678149339,1,,,right,1,1.7340658678149339,,,,,,,,,,,,,,,,,,,,,,1064,2019_Mar_13_1500,mf_amp_cond2,3.0.4,59.99859521893446,
fifty,&&&&&,left,neutral,,,,,,,,0,22,22,171,,,,,,,,,,,,,,,,,,,,,LDT,right,0.8004818062181585,0,,,right,0,0.8004818062181585,,,,,,,,,,,,,,,,,,,,,,1064,2019_Mar_13_1500,mf_amp_cond2,3.0.4,59.99859521893446,
ning,&&&&,right,nonword,,,,,,,,0,23,23,49,,,,,,,,,,,,,,,,,,,,,LDT,left,1.0005205508496147,0,,,left,0,1.0005205508496147,,,,,,,,,,,,,,,,,,,,,,1064,2019_Mar_13_1500,mf_amp_cond2,3.0.4,59.99859521893446,
wherever,&&&&&&&&,left,neutral,,,,,,,,0,24,24,73,,,,,,,,,,,,,,,,,,,,,LDT,right,0.7004382185114082,0,,,right,0,0.7004382185114082,,,,,,,,,,,,,,,,,,,,,,1064,2019_Mar_13_1500,mf_amp_cond2,3.0.4,59.99859521893446,
protect,&&&&&&&,left,fairness.virtue,,,,,,,,0,25,25,90,,,,,,,,,,,,,,,,,,,,,LDT,right,0.6670905697683338,0,,,right,0,0.6670905697683338,,,,,,,,,,,,,,,,,,,,,,1064,2019_Mar_13_1500,mf_amp_cond2,3.0.4,59.99859521893446,
Lacedonia,&&&&&&&&&,right,nonword,,,,,,,,0,26,26,12,,,,,,,,,,,,,,,,,,,,,LDT,left,0.6670982673531398,0,,,left,0,0.6670982673531398,,,,,,,,,,,,,,,,,,,,,,1064,2019_Mar_13_1500,mf_amp_cond2,3.0.4,59.99859521893446,
Cunday,&&&&&&,None,nonword,,,,,,,,0,27,27,66,,,,,,,,,,,,,,,,,,,,,LDT,left,0.867168123164447,0,,,left,0,0.867168123164447,,,,,,,,,,,,,,,,,,,,,,1064,2019_Mar_13_1500,mf_amp_cond2,3.0.4,59.99859521893446,
either,&&&&&&,left,neutral,,,,,,,,0,28,28,135,,,,,,,,,,,,,,,,,,,,,LDT,right,0.7837715785717592,0,,,right,0,0.7837715785717592,,,,,,,,,,,,,,,,,,,,,,1064,2019_Mar_13_1500,mf_amp_cond2,3.0.4,59.99859521893446,
abointment,&&&&&&&&&&,right,nonword,,,,,,,,0,29,29,8,,,,,,,,,,,,,,,,,,,,,LDT,left,0.45037174643948674,0,,,left,0,0.45037174643948674,,,,,,,,,,,,,,,,,,,,,,1064,2019_Mar_13_1500,mf_amp_cond2,3.0.4,59.99859521893446,
troops,&&&&&&,left,loyalty.vice,,,,,,,,0,30,30,62,,,,,,,,,,,,,,,,,,,,,LDT,right,1.1170960382733028,0,,,right,0,1.1170960382733028,,,,,,,,,,,,,,,,,,,,,,1064,2019_Mar_13_1500,mf_amp_cond2,3.0.4,59.99859521893446,
noone,&&&&&,left,neutral,,,,,,,,0,31,31,23,,,,,,,,,,,,,,,,,,,,,LDT,right,0.767164627177408,0,,,right,0,0.767164627177408,,,,,,,,,,,,,,,,,,,,,,1064,2019_Mar_13_1500,mf_amp_cond2,3.0.4,59.99859521893446,
with,&&&&,left,neutral,,,,,,,,0,32,32,120,,,,,,,,,,,,,,,,,,,,,LDT,right,0.7504441360360943,0,,,right,0,0.7504441360360943,,,,,,,,,,,,,,,,,,,,,,1064,2019_Mar_13_1500,mf_amp_cond2,3.0.4,59.99859521893446,
shot,&&&&,left,care.vice,,,,,,,,0,33,33,44,,,,,,,,,,,,,,,,,,,,,LDT,left,0.7004388599598315,1,,,left,1,0.7004388599598315,,,,,,,,,,,,,,,,,,,,,,1064,2019_Mar_13_1500,mf_amp_cond2,3.0.4,59.99859521893446,
vicissifude,&&&&&&&&&&&,right,nonword,,,,,,,,0,34,34,141,,,,,,,,,,,,,,,,,,,,,LDT,left,0.8338240025041159,0,,,left,0,0.8338240025041159,,,,,,,,,,,,,,,,,,,,,,1064,2019_Mar_13_1500,mf_amp_cond2,3.0.4,59.99859521893446,
support,&&&&&&&,left,loyalty.virtue,,,,,,,,0,35,35,164,,,,,,,,,,,,,,,,,,,,,LDT,right,0.5670713578001596,0,,,right,0,0.5670713578001596,,,,,,,,,,,,,,,,,,,,,,1064,2019_Mar_13_1500,mf_amp_cond2,3.0.4,59.99859521893446,
penalty,&&&&&&&,left,authority.vice,,,,,,,,0,36,36,27,,,,,,,,,,,,,,,,,,,,,LDT,right,0.7171234289417043,0,,,right,0,0.7171234289417043,,,,,,,,,,,,,,,,,,,,,,1064,2019_Mar_13_1500,mf_amp_cond2,3.0.4,59.99859521893446,
nomparisons,&&&&&&&&&&&,right,nonword,,,,,,,,0,37,37,136,,,,,,,,,,,,,,,,,,,,,LDT,right,1.2005952176696155,1,,,right,1,1.2005952176696155,,,,,,,,,,,,,,,,,,,,,,1064,2019_Mar_13_1500,mf_amp_cond2,3.0.4,59.99859521893446,
amoungst,&&&&&&&&,left,neutral,,,,,,,,0,38,38,32,,,,,,,,,,,,,,,,,,,,,LDT,right,1.0171945356123615,0,,,right,0,1.0171945356123615,,,,,,,,,,,,,,,,,,,,,,1064,2019_Mar_13_1500,mf_amp_cond2,3.0.4,59.99859521893446,
synchronazers,&&&&&&&&&&&&&,right,nonword,,,,,,,,0,39,39,54,,,,,,,,,,,,,,,,,,,,,LDT,right,0.7004343697044533,1,,,right,1,0.7004343697044533,,,,,,,,,,,,,,,,,,,,,,1064,2019_Mar_13_1500,mf_amp_cond2,3.0.4,59.99859521893446,
antral,&&&&&&,right,nonword,,,,,,,,0,40,40,109,,,,,,,,,,,,,,,,,,,,,LDT,left,1.0005163813184481,0,,,left,0,1.0005163813184481,,,,,,,,,,,,,,,,,,,,,,1064,2019_Mar_13_1500,mf_amp_cond2,3.0.4,59.99859521893446,
lempestuous,&&&&&&&&&&&,right,nonword,,,,,,,,0,41,41,190,,,,,,,,,,,,,,,,,,,,,LDT,right,1.7340350773592945,1,,,right,1,1.7340350773592945,,,,,,,,,,,,,,,,,,,,,,1064,2019_Mar_13_1500,mf_amp_cond2,3.0.4,59.99859521893446,
reviked,&&&&&&&,right,nonword,,,,,,,,0,42,42,192,,,,,,,,,,,,,,,,,,,,,LDT,left,0.6004039320687298,0,,,left,0,0.6004039320687298,,,,,,,,,,,,,,,,,,,,,,1064,2019_Mar_13_1500,mf_amp_cond2,3.0.4,59.99859521893446,
least,&&&&&,left,neutral,,,,,,,,0,43,43,129,,,,,,,,,,,,,,,,,,,,,LDT,right,1.0672087921993807,0,,,right,0,1.0672087921993807,,,,,,,,,,,,,,,,,,,,,,1064,2019_Mar_13_1500,mf_amp_cond2,3.0.4,59.99859521893446,
promote,&&&&&&&,left,sanctity.virtue,,,,,,,,0,44,44,159,,,,,,,,,,,,,,,,,,,,,LDT,left,0.9338284606928937,1,,,left,1,0.9338284606928937,,,,,,,,,,,,,,,,,,,,,,1064,2019_Mar_13_1500,mf_amp_cond2,3.0.4,59.99859521893446,
injured,&&&&&&&,left,care.vice,,,,,,,,0,45,45,111,,,,,,,,,,,,,,,,,,,,,LDT,right,0.7671380062529352,0,,,right,0,0.7671380062529352,,,,,,,,,,,,,,,,,,,,,,1064,2019_Mar_13_1500,mf_amp_cond2,3.0.4,59.99859521893446,
therefore,&&&&&&&&&,left,neutral,,,,,,,,0,46,46,182,,,,,,,,,,,,,,,,,,,,,LDT,right,1.2839452558837365,0,,,right,0,1.2839452558837365,,,,,,,,,,,,,,,,,,,,,,1064,2019_Mar_13_1500,mf_amp_cond2,3.0.4,59.99859521893446,
squets,&&&&&&,right,nonword,,,,,,,,0,47,47,24,,,,,,,,,,,,,,,,,,,,,LDT,left,0.800463845138438,0,,,left,0,0.800463845138438,,,,,,,,,,,,,,,,,,,,,,1064,2019_Mar_13_1500,mf_amp_cond2,3.0.4,59.99859521893446,
counpy's,&&&&&&&&,right,nonword,,,,,,,,0,48,48,57,,,,,,,,,,,,,,,,,,,,,LDT,left,1.1505832061811816,0,,,left,0,1.1505832061811816,,,,,,,,,,,,,,,,,,,,,,1064,2019_Mar_13_1500,mf_amp_cond2,3.0.4,59.99859521893446,
promised,&&&&&&&&,left,loyalty.virtue,,,,,,,,0,49,49,13,,,,,,,,,,,,,,,,,,,,,LDT,right,0.7004382185114082,0,,,right,0,0.7004382185114082,,,,,,,,,,,,,,,,,,,,,,1064,2019_Mar_13_1500,mf_amp_cond2,3.0.4,59.99859521893446,
amount,&&&&&&,left,neutral,,,,,,,,0,50,50,107,,,,,,,,,,,,,,,,,,,,,LDT,right,0.8671530486899428,0,,,right,0,0.8671530486899428,,,,,,,,,,,,,,,,,,,,,,1064,2019_Mar_13_1500,mf_amp_cond2,3.0.4,59.99859521893446,
dumid,&&&&&,right,nonword,,,,,,,,0,51,51,9,,,,,,,,,,,,,,,,,,,,,LDT,left,0.8004587133764289,0,,,left,0,0.8004587133764289,,,,,,,,,,,,,,,,,,,,,,1064,2019_Mar_13_1500,mf_amp_cond2,3.0.4,59.99859521893446,
smapper,&&&&&&&,right,nonword,,,,,,,,0,52,52,155,,,,,,,,,,,,,,,,,,,,,LDT,left,0.7671402514097281,0,,,left,0,0.7671402514097281,,,,,,,,,,,,,,,,,,,,,,1064,2019_Mar_13_1500,mf_amp_cond2,3.0.4,59.99859521893446,
slending,&&&&&&&&,right,nonword,,,,,,,,0,53,53,22,,,,,,,,,,,,,,,,,,,,,LDT,right,1.0005224752530921,1,,,right,1,1.0005224752530921,,,,,,,,,,,,,,,,,,,,,,1064,2019_Mar_13_1500,mf_amp_cond2,3.0.4,59.99859521893446,
uller,&&&&&,right,nonword,,,,,,,,0,54,54,106,,,,,,,,,,,,,,,,,,,,,LDT,left,0.5670739236811642,0,,,left,0,0.5670739236811642,,,,,,,,,,,,,,,,,,,,,,1064,2019_Mar_13_1500,mf_amp_cond2,3.0.4,59.99859521893446,
hescribe,&&&&&&&&,right,nonword,,,,,,,,0,55,55,148,,,,,,,,,,,,,,,,,,,,,LDT,right,0.7671158756420482,1,,,right,1,0.7671158756420482,,,,,,,,,,,,,,,,,,,,,,1064,2019_Mar_13_1500,mf_amp_cond2,3.0.4,59.99859521893446,
tenuflect,&&&&&&&&&,right,nonword,,,,,,,,0,56,56,63,,,,,,,,,,,,,,,,,,,,,LDT,left,0.6170791997283231,0,,,left,0,0.6170791997283231,,,,,,,,,,,,,,,,,,,,,,1064,2019_Mar_13_1500,mf_amp_cond2,3.0.4,59.99859521893446,
clamorek,&&&&&&&&,right,nonword,,,,,,,,0,57,57,41,,,,,,,,,,,,,,,,,,,,,LDT,right,0.8004670524678659,1,,,right,1,0.8004670524678659,,,,,,,,,,,,,,,,,,,,,,1064,2019_Mar_13_1500,mf_amp_cond2,3.0.4,59.99859521893446,
alar,&&&&,right,nonword,,,,,,,,0,58,58,113,,,,,,,,,,,,,,,,,,,,,LDT,left,0.7504354762204457,0,,,left,0,0.7504354762204457,,,,,,,,,,,,,,,,,,,,,,1064,2019_Mar_13_1500,mf_amp_cond2,3.0.4,59.99859521893446,
there,&&&&&,left,neutral,,,,,,,,0,59,59,177,,,,,,,,,,,,,,,,,,,,,LDT,right,0.6670947392995004,0,,,right,0,0.6670947392995004,,,,,,,,,,,,,,,,,,,,,,1064,2019_Mar_13_1500,mf_amp_cond2,3.0.4,59.99859521893446,
win,&&&,left,fairness.virtue,,,,,,,,0,60,60,195,,,,,,,,,,,,,,,,,,,,,LDT,right,0.6837886095163412,0,,,right,0,0.6837886095163412,,,,,,,,,,,,,,,,,,,,,,1064,2019_Mar_13_1500,mf_amp_cond2,3.0.4,59.99859521893446,
else,&&&&,left,neutral,,,,,,,,0,61,61,162,,,,,,,,,,,,,,,,,,,,,LDT,right,0.6004616641439497,0,,,right,0,0.6004616641439497,,,,,,,,,,,,,,,,,,,,,,1064,2019_Mar_13_1500,mf_amp_cond2,3.0.4,59.99859521893446,
baladroit,&&&&&&&&&,right,nonword,,,,,,,,0,62,62,163,,,,,,,,,,,,,,,,,,,,,LDT,left,0.6504380741971545,0,,,left,0,0.6504380741971545,,,,,,,,,,,,,,,,,,,,,,1064,2019_Mar_13_1500,mf_amp_cond2,3.0.4,59.99859521893446,
sliptery,&&&&&&&&,right,nonword,,,,,,,,0,63,63,191,,,,,,,,,,,,,,,,,,,,,LDT,left,0.8004753915593028,0,,,left,0,0.8004753915593028,,,,,,,,,,,,,,,,,,,,,,1064,2019_Mar_13_1500,mf_amp_cond2,3.0.4,59.99859521893446,
ittutable,&&&&&&&&&,right,nonword,,,,,,,,0,64,64,20,,,,,,,,,,,,,,,,,,,,,LDT,left,0.6837661581521388,0,,,left,0,0.6837661581521388,,,,,,,,,,,,,,,,,,,,,,1064,2019_Mar_13_1500,mf_amp_cond2,3.0.4,59.99859521893446,
gusinesslike,&&&&&&&&&&&&,right,nonword,,,,,,,,0,65,65,82,,,,,,,,,,,,,,,,,,,,,LDT,right,0.46703386402805336,1,,,right,1,0.46703386402805336,,,,,,,,,,,,,,,,,,,,,,1064,2019_Mar_13_1500,mf_amp_cond2,3.0.4,59.99859521893446,
thadowed,&&&&&&&&,right,nonword,,,,,,,,0,66,66,127,,,,,,,,,,,,,,,,,,,,,LDT,right,0.533726916386513,1,,,right,1,0.533726916386513,,,,,,,,,,,,,,,,,,,,,,1064,2019_Mar_13_1500,mf_amp_cond2,3.0.4,59.99859521893446,
framatic,&&&&&&&&,right,nonword,,,,,,,,0,67,67,167,,,,,,,,,,,,,,,,,,,,,LDT,right,0.833805079193553,1,,,right,1,0.833805079193553,,,,,,,,,,,,,,,,,,,,,,1064,2019_Mar_13_1500,mf_amp_cond2,3.0.4,59.99859521893446,
scock,&&&&&,right,nonword,,,,,,,,0,68,68,104,,,,,,,,,,,,,,,,,,,,,LDT,right,0.8004660902661271,1,,,right,1,0.8004660902661271,,,,,,,,,,,,,,,,,,,,,,1064,2019_Mar_13_1500,mf_amp_cond2,3.0.4,59.99859521893446,
less,&&&&,left,neutral,,,,,,,,0,69,69,34,,,,,,,,,,,,,,,,,,,,,LDT,left,0.6837738557660487,1,,,left,1,0.6837738557660487,,,,,,,,,,,,,,,,,,,,,,1064,2019_Mar_13_1500,mf_amp_cond2,3.0.4,59.99859521893446,
death,&&&&&,left,care.vice,,,,,,,,0,70,70,139,,,,,,,,,,,,,,,,,,,,,LDT,left,1.1005426493939012,1,,,left,1,1.1005426493939012,,,,,,,,,,,,,,,,,,,,,,1064,2019_Mar_13_1500,mf_amp_cond2,3.0.4,59.99859521893446,
good,&&&&,left,care.virtue,,,,,,,,0,71,71,29,,,,,,,,,,,,,,,,,,,,,LDT,right,0.6504153020796366,0,,,right,0,0.6504153020796366,,,,,,,,,,,,,,,,,,,,,,1064,2019_Mar_13_1500,mf_amp_cond2,3.0.4,59.99859521893446,
slavery,&&&&&&&,left,loyalty.vice,,,,,,,,0,72,72,16,,,,,,,,,,,,,,,,,,,,,LDT,left,0.6837658374279272,1,,,left,1,0.6837658374279272,,,,,,,,,,,,,,,,,,,,,,1064,2019_Mar_13_1500,mf_amp_cond2,3.0.4,59.99859521893446,
fifteen,&&&&&&&,left,neutral,,,,,,,,0,73,73,36,,,,,,,,,,,,,,,,,,,,,LDT,right,0.43369295066804625,0,,,right,0,0.43369295066804625,,,,,,,,,,,,,,,,,,,,,,1064,2019_Mar_13_1500,mf_amp_cond2,3.0.4,59.99859521893446,
somehow,&&&&&&&,left,neutral,,,,,,,,0,74,74,158,,,,,,,,,,,,,,,,,,,,,LDT,right,0.5670643016637769,0,,,right,0,0.5670643016637769,,,,,,,,,,,,,,,,,,,,,,1064,2019_Mar_13_1500,mf_amp_cond2,3.0.4,59.99859521893446,
drug,&&&&,left,sanctity.vice,,,,,,,,0,75,75,143,,,,,,,,,,,,,,,,,,,,,LDT,right,0.5503187932772562,0,,,right,0,0.5503187932772562,,,,,,,,,,,,,,,,,,,,,,1064,2019_Mar_13_1500,mf_amp_cond2,3.0.4,59.99859521893446,
could,&&&&&,left,neutral,,,,,,,,0,76,76,37,,,,,,,,,,,,,,,,,,,,,LDT,right,0.8836846276535653,0,,,right,0,0.8836846276535653,,,,,,,,,,,,,,,,,,,,,,1064,2019_Mar_13_1500,mf_amp_cond2,3.0.4,59.99859521893446,
gournful,&&&&&&&&,right,nonword,,,,,,,,0,77,77,119,,,,,,,,,,,,,,,,,,,,,LDT,right,0.600396875932347,1,,,right,1,0.600396875932347,,,,,,,,,,,,,,,,,,,,,,1064,2019_Mar_13_1500,mf_amp_cond2,3.0.4,59.99859521893446,
fangsters,&&&&&&&&&,right,nonword,,,,,,,,0,78,78,133,,,,,,,,,,,,,,,,,,,,,LDT,right,0.683773535041837,1,,,right,1,0.683773535041837,,,,,,,,,,,,,,,,,,,,,,1064,2019_Mar_13_1500,mf_amp_cond2,3.0.4,59.99859521893446,
esquisiteness,&&&&&&&&&&&&&,right,nonword,,,,,,,,0,79,79,96,,,,,,,,,,,,,,,,,,,,,LDT,left,0.9838555466558319,0,,,left,0,0.9838555466558319,,,,,,,,,,,,,,,,,,,,,,1064,2019_Mar_13_1500,mf_amp_cond2,3.0.4,59.99859521893446,
spag,&&&&,None,nonword,,,,,,,,0,80,80,7,,,,,,,,,,,,,,,,,,,,,LDT,left,0.9004724728583824,0,,,left,0,0.9004724728583824,,,,,,,,,,,,,,,,,,,,,,1064,2019_Mar_13_1500,mf_amp_cond2,3.0.4,59.99859521893446,
pistraught,&&&&&&&&&&,right,nonword,,,,,,,,0,81,81,137,,,,,,,,,,,,,,,,,,,,,LDT,left,1.5006605511298403,0,,,left,0,1.5006605511298403,,,,,,,,,,,,,,,,,,,,,,1064,2019_Mar_13_1500,mf_amp_cond2,3.0.4,59.99859521893446,
neputized,&&&&&&&&&,right,nonword,,,,,,,,0,82,82,181,,,,,,,,,,,,,,,,,,,,,LDT,left,0.7337752830644604,0,,,left,0,0.7337752830644604,,,,,,,,,,,,,,,,,,,,,,1064,2019_Mar_13_1500,mf_amp_cond2,3.0.4,59.99859521893446,
anyhow,&&&&&&,left,neutral,,,,,,,,0,83,83,77,,,,,,,,,,,,,,,,,,,,,LDT,right,0.45037238788791,0,,,right,0,0.45037238788791,,,,,,,,,,,,,,,,,,,,,,1064,2019_Mar_13_1500,mf_amp_cond2,3.0.4,59.99859521893446,
fraud,&&&&&,left,fairness.vice,,,,,,,,0,84,84,1,,,,,,,,,,,,,,,,,,,,,LDT,right,1.2839619340375066,0,,,right,0,1.2839619340375066,,,,,,,,,,,,,,,,,,,,,,1064,2019_Mar_13_1500,mf_amp_cond2,3.0.4,59.99859521893446,
hand,&&&&,left,sanctity.virtue,,,,,,,,0,85,85,114,,,,,,,,,,,,,,,,,,,,,LDT,right,1.0838728342205286,0,,,right,0,1.0838728342205286,,,,,,,,,,,,,,,,,,,,,,1064,2019_Mar_13_1500,mf_amp_cond2,3.0.4,59.99859521893446,
anything,&&&&&&&&,left,neutral,,,,,,,,0,86,86,59,,,,,,,,,,,,,,,,,,,,,LDT,right,1.2339326029468793,0,,,right,0,1.2339326029468793,,,,,,,,,,,,,,,,,,,,,,1064,2019_Mar_13_1500,mf_amp_cond2,3.0.4,59.99859521893446,
dormandi,&&&&&&&&,None,nonword,,,,,,,,0,87,87,97,,,,,,,,,,,,,,,,,,,,,LDT,left,0.9004519458976574,0,,,left,0,0.9004519458976574,,,,,,,,,,,,,,,,,,,,,,1064,2019_Mar_13_1500,mf_amp_cond2,3.0.4,59.99859521893446,
rorroborated,&&&&&&&&&&&&,right,nonword,,,,,,,,0,88,88,175,,,,,,,,,,,,,,,,,,,,,LDT,left,0.6669616347935516,0,,,left,0,0.6669616347935516,,,,,,,,,,,,,,,,,,,,,,1064,2019_Mar_13_1500,mf_amp_cond2,3.0.4,59.99859521893446,
supervuned,&&&&&&&&&&,right,nonword,,,,,,,,0,89,89,15,,,,,,,,,,,,,,,,,,,,,LDT,left,0.7171218252624385,0,,,left,0,0.7171218252624385,,,,,,,,,,,,,,,,,,,,,,1064,2019_Mar_13_1500,mf_amp_cond2,3.0.4,59.99859521893446,
halaise,&&&&&&&,None,nonword,,,,,,,,0,90,90,198,,,,,,,,,,,,,,,,,,,,,LDT,left,0.7837988409446552,0,,,left,0,0.7837988409446552,,,,,,,,,,,,,,,,,,,,,,1064,2019_Mar_13_1500,mf_amp_cond2,3.0.4,59.99859521893446,
victim,&&&&&&,left,care.vice,,,,,,,,0,91,91,10,,,,,,,,,,,,,,,,,,,,,LDT,right,0.8171182651130948,0,,,right,0,0.8171182651130948,,,,,,,,,,,,,,,,,,,,,,1064,2019_Mar_13_1500,mf_amp_cond2,3.0.4,59.99859521893446,
cromiscuity,&&&&&&&&&&&,right,nonword,,,,,,,,0,92,92,161,,,,,,,,,,,,,,,,,,,,,LDT,right,0.633788785955403,1,,,right,1,0.633788785955403,,,,,,,,,,,,,,,,,,,,,,1064,2019_Mar_13_1500,mf_amp_cond2,3.0.4,59.99859521893446,
blunderints,&&&&&&&&&&&,right,nonword,,,,,,,,0,93,93,180,,,,,,,,,,,,,,,,,,,,,LDT,right,0.7671238940092735,1,,,right,1,0.7671238940092735,,,,,,,,,,,,,,,,,,,,,,1064,2019_Mar_13_1500,mf_amp_cond2,3.0.4,59.99859521893446,
rivernoat,&&&&&&&&&,right,nonword,,,,,,,,0,94,94,48,,,,,,,,,,,,,,,,,,,,,LDT,left,1.3839785801246762,0,,,left,0,1.3839785801246762,,,,,,,,,,,,,,,,,,,,,,1064,2019_Mar_13_1500,mf_amp_cond2,3.0.4,59.99859521893446,
toward,&&&&&&,left,neutral,,,,,,,,0,95,95,28,,,,,,,,,,,,,,,,,,,,,LDT,right,1.7173992599418852,0,,,right,0,1.7173992599418852,,,,,,,,,,,,,,,,,,,,,,1064,2019_Mar_13_1500,mf_amp_cond2,3.0.4,59.99859521893446,
totalestic,&&&&&&&&&&,None,nonword,,,,,,,,0,96,96,154,,,,,,,,,,,,,,,,,,,,,LDT,left,1.0671831335057504,0,,,left,0,1.0671831335057504,,,,,,,,,,,,,,,,,,,,,,1064,2019_Mar_13_1500,mf_amp_cond2,3.0.4,59.99859521893446,
been,&&&&,left,neutral,,,,,,,,0,97,97,11,,,,,,,,,,,,,,,,,,,,,LDT,right,0.6337384307116736,0,,,right,0,0.6337384307116736,,,,,,,,,,,,,,,,,,,,,,1064,2019_Mar_13_1500,mf_amp_cond2,3.0.4,59.99859521893446,
gedious,&&&&&&&,right,nonword,,,,,,,,0,98,98,145,,,,,,,,,,,,,,,,,,,,,LDT,left,1.4005011785193346,0,,,left,0,1.4005011785193346,,,,,,,,,,,,,,,,,,,,,,1064,2019_Mar_13_1500,mf_amp_cond2,3.0.4,59.99859521893446,
gationwide,&&&&&&&&&&,right,nonword,,,,,,,,0,99,99,151,,,,,,,,,,,,,,,,,,,,,LDT,left,1.0005442851397675,0,,,left,0,1.0005442851397675,,,,,,,,,,,,,,,,,,,,,,1064,2019_Mar_13_1500,mf_amp_cond2,3.0.4,59.99859521893446,
Phintoism,&&&&&&&&&,right,nonword,,,,,,,,0,100,100,147,,,,,,,,,,,,,,,,,,,,,LDT,left,1.650794088607654,0,,,left,0,1.650794088607654,,,,,,,,,,,,,,,,,,,,,,1064,2019_Mar_13_1500,mf_amp_cond2,3.0.4,59.99859521893446,
encourage,&&&&&&&&&,left,authority.virtue,,,,,,,,0,101,101,99,,,,,,,,,,,,,,,,,,,,,LDT,right,0.9505133503989782,0,,,right,0,0.9505133503989782,,,,,,,,,,,,,,,,,,,,,,1064,2019_Mar_13_1500,mf_amp_cond2,3.0.4,59.99859521893446,
pescinded,&&&&&&&&&,right,nonword,,,,,,,,0,102,102,121,,,,,,,,,,,,,,,,,,,,,LDT,right,0.8671597841021139,1,,,right,1,0.8671597841021139,,,,,,,,,,,,,,,,,,,,,,1064,2019_Mar_13_1500,mf_amp_cond2,3.0.4,59.99859521893446,
refuejing,&&&&&&&&&,right,nonword,,,,,,,,0,103,103,6,,,,,,,,,,,,,,,,,,,,,LDT,left,1.05054058067617,0,,,left,0,1.05054058067617,,,,,,,,,,,,,,,,,,,,,,1064,2019_Mar_13_1500,mf_amp_cond2,3.0.4,59.99859521893446,
fegard,&&&&&&,right,nonword,,,,,,,,0,104,104,42,,,,,,,,,,,,,,,,,,,,,LDT,left,1.0505319208896253,0,,,left,0,1.0505319208896253,,,,,,,,,,,,,,,,,,,,,,1064,2019_Mar_13_1500,mf_amp_cond2,3.0.4,59.99859521893446,
care,&&&&,left,care.virtue,,,,,,,,0,105,105,105,,,,,,,,,,,,,,,,,,,,,LDT,right,0.6004395335330628,0,,,right,0,0.6004395335330628,,,,,,,,,,,,,,,,,,,,,,1064,2019_Mar_13_1500,mf_amp_cond2,3.0.4,59.99859521893446,
police,&&&&&&,left,authority.vice,,,,,,,,0,106,106,166,,,,,,,,,,,,,,,,,,,,,LDT,right,0.6671014747116715,0,,,right,0,0.6671014747116715,,,,,,,,,,,,,,,,,,,,,,1064,2019_Mar_13_1500,mf_amp_cond2,3.0.4,59.99859521893446,
taxpayung,&&&&&&&&&,right,nonword,,,,,,,,0,107,107,169,,,,,,,,,,,,,,,,,,,,,LDT,right,1.2839452558837365,1,,,right,1,1.2839452558837365,,,,,,,,,,,,,,,,,,,,,,1064,2019_Mar_13_1500,mf_amp_cond2,3.0.4,59.99859521893446,
emports,&&&&&&&,right,nonword,,,,,,,,0,108,108,179,,,,,,,,,,,,,,,,,,,,,LDT,right,0.8171785630693194,1,,,right,1,0.8171785630693194,,,,,,,,,,,,,,,,,,,,,,1064,2019_Mar_13_1500,mf_amp_cond2,3.0.4,59.99859521893446,
chressing,&&&&&&&&&,None,nonword,,,,,,,,0,109,109,68,,,,,,,,,,,,,,,,,,,,,LDT,right,0.8670215478632599,0,,,right,0,0.8670215478632599,,,,,,,,,,,,,,,,,,,,,,1064,2019_Mar_13_1500,mf_amp_cond2,3.0.4,59.99859521893446,
noped,&&&&&,right,nonword,,,,,,,,0,110,110,186,,,,,,,,,,,,,,,,,,,,,LDT,right,0.417024418420624,1,,,right,1,0.417024418420624,,,,,,,,,,,,,,,,,,,,,,1064,2019_Mar_13_1500,mf_amp_cond2,3.0.4,59.99859521893446,
lies,&&&&,left,fairness.vice,,,,,,,,0,111,111,110,,,,,,,,,,,,,,,,,,,,,LDT,left,0.5003975494473707,1,,,left,1,0.5003975494473707,,,,,,,,,,,,,,,,,,,,,,1064,2019_Mar_13_1500,mf_amp_cond2,3.0.4,59.99859521893446,
opportunity,&&&&&&&&&&&,left,fairness.virtue,,,,,,,,0,112,112,80,,,,,,,,,,,,,,,,,,,,,LDT,right,0.40034305679728277,0,,,right,0,0.40034305679728277,,,,,,,,,,,,,,,,,,,,,,1064,2019_Mar_13_1500,mf_amp_cond2,3.0.4,59.99859521893446,
gowlands,&&&&&&&&,right,nonword,,,,,,,,0,113,113,116,,,,,,,,,,,,,,,,,,,,,LDT,right,1.3339700967189856,1,,,right,1,1.3339700967189856,,,,,,,,,,,,,,,,,,,,,,1064,2019_Mar_13_1500,mf_amp_cond2,3.0.4,59.99859521893446,
galamitous,&&&&&&&&&&,right,nonword,,,,,,,,0,114,114,56,,,,,,,,,,,,,,,,,,,,,LDT,right,0.8171156992320903,1,,,right,1,0.8171156992320903,,,,,,,,,,,,,,,,,,,,,,1064,2019_Mar_13_1500,mf_amp_cond2,3.0.4,59.99859521893446,
party,&&&&&,left,loyalty.virtue,,,,,,,,0,115,115,160,,,,,,,,,,,,,,,,,,,,,LDT,right,0.6504236411710735,0,,,right,0,0.6504236411710735,,,,,,,,,,,,,,,,,,,,,,1064,2019_Mar_13_1500,mf_amp_cond2,3.0.4,59.99859521893446,
fontacts,&&&&&&&&,right,nonword,,,,,,,,0,116,116,60,,,,,,,,,,,,,,,,,,,,,LDT,right,0.6502943854429759,1,,,right,1,0.6502943854429759,,,,,,,,,,,,,,,,,,,,,,1064,2019_Mar_13_1500,mf_amp_cond2,3.0.4,59.99859521893446,
couldnt,&&&&&&&,left,neutral,,,,,,,,0,117,117,142,,,,,,,,,,,,,,,,,,,,,LDT,left,0.8004619207058568,1,,,left,1,0.8004619207058568,,,,,,,,,,,,,,,,,,,,,,1064,2019_Mar_13_1500,mf_amp_cond2,3.0.4,59.99859521893446,
illegal,&&&&&&&,left,fairness.vice,,,,,,,,0,118,118,19,,,,,,,,,,,,,,,,,,,,,LDT,right,0.7171134861710016,0,,,right,0,0.7171134861710016,,,,,,,,,,,,,,,,,,,,,,1064,2019_Mar_13_1500,mf_amp_cond2,3.0.4,59.99859521893446,
whereafter,&&&&&&&&&&,left,neutral,,,,,,,,0,119,119,173,,,,,,,,,,,,,,,,,,,,,LDT,right,0.4837190744583495,0,,,right,0,0.4837190744583495,,,,,,,,,,,,,,,,,,,,,,1064,2019_Mar_13_1500,mf_amp_cond2,3.0.4,59.99859521893446,
asn,&&&,right,nonword,,,,,,,,0,120,120,89,,,,,,,,,,,,,,,,,,,,,LDT,left,1.083886946493294,0,,,left,0,1.083886946493294,,,,,,,,,,,,,,,,,,,,,,1064,2019_Mar_13_1500,mf_amp_cond2,3.0.4,59.99859521893446,
divility,&&&&&&&&,right,nonword,,,,,,,,0,121,121,87,,,,,,,,,,,,,,,,,,,,,LDT,right,0.7336296699359082,1,,,right,1,0.7336296699359082,,,,,,,,,,,,,,,,,,,,,,1064,2019_Mar_13_1500,mf_amp_cond2,3.0.4,59.99859521893446,
frocessing,&&&&&&&&&&,right,nonword,,,,,,,,0,122,122,134,,,,,,,,,,,,,,,,,,,,,LDT,right,0.5003827957261819,1,,,right,1,0.5003827957261819,,,,,,,,,,,,,,,,,,,,,,1064,2019_Mar_13_1500,mf_amp_cond2,3.0.4,59.99859521893446,
praise,&&&&&&,left,authority.virtue,,,,,,,,0,123,123,168,,,,,,,,,,,,,,,,,,,,,LDT,right,0.9170768584008329,0,,,right,0,0.9170768584008329,,,,,,,,,,,,,,,,,,,,,,1064,2019_Mar_13_1500,mf_amp_cond2,3.0.4,59.99859521893446,
whither,&&&&&&&,left,neutral,,,,,,,,0,124,124,174,,,,,,,,,,,,,,,,,,,,,LDT,left,1.0005417192878667,1,,,left,1,1.0005417192878667,,,,,,,,,,,,,,,,,,,,,,1064,2019_Mar_13_1500,mf_amp_cond2,3.0.4,59.99859521893446,
glacenta,&&&&&&&&,right,nonword,,,,,,,,0,125,125,21,,,,,,,,,,,,,,,,,,,,,LDT,right,0.7004340489511378,1,,,right,1,0.7004340489511378,,,,,,,,,,,,,,,,,,,,,,1064,2019_Mar_13_1500,mf_amp_cond2,3.0.4,59.99859521893446,
forty,&&&&&,left,neutral,,,,,,,,0,126,126,131,,,,,,,,,,,,,,,,,,,,,LDT,right,0.9338602133502718,0,,,right,0,0.9338602133502718,,,,,,,,,,,,,,,,,,,,,,1064,2019_Mar_13_1500,mf_amp_cond2,3.0.4,59.99859521893446,
peace,&&&&&,left,care.virtue,,,,,,,,0,127,127,183,,,,,,,,,,,,,,,,,,,,,LDT,right,0.6504294143524021,0,,,right,0,0.6504294143524021,,,,,,,,,,,,,,,,,,,,,,1064,2019_Mar_13_1500,mf_amp_cond2,3.0.4,59.99859521893446,
openet,&&&&&&,None,nonword,,,,,,,,0,128,128,26,,,,,,,,,,,,,,,,,,,,,LDT,right,0.6170801619591657,0,,,right,0,0.6170801619591657,,,,,,,,,,,,,,,,,,,,,,1064,2019_Mar_13_1500,mf_amp_cond2,3.0.4,59.99859521893446,
both,&&&&,left,neutral,,,,,,,,0,129,129,4,,,,,,,,,,,,,,,,,,,,,LDT,right,0.8004651280643884,0,,,right,0,0.8004651280643884,,,,,,,,,,,,,,,,,,,,,,1064,2019_Mar_13_1500,mf_amp_cond2,3.0.4,59.99859521893446,
harassment,&&&&&&&&&&,left,sanctity.vice,,,,,,,,0,130,130,25,,,,,,,,,,,,,,,,,,,,,LDT,right,1.3339360989339184,0,,,right,0,1.3339360989339184,,,,,,,,,,,,,,,,,,,,,,1064,2019_Mar_13_1500,mf_amp_cond2,3.0.4,59.99859521893446,
tabin,&&&&&,right,nonword,,,,,,,,0,131,131,165,,,,,,,,,,,,,,,,,,,,,LDT,right,0.8671530486899428,1,,,right,1,0.8671530486899428,,,,,,,,,,,,,,,,,,,,,,1064,2019_Mar_13_1500,mf_amp_cond2,3.0.4,59.99859521893446,
help,&&&&,left,care.virtue,,,,,,,,0,132,132,71,,,,,,,,,,,,,,,,,,,,,LDT,right,0.5503938449837733,0,,,right,0,0.5503938449837733,,,,,,,,,,,,,,,,,,,,,,1064,2019_Mar_13_1500,mf_amp_cond2,3.0.4,59.99859521893446,
Daptist,&&&&&&&,right,nonword,,,,,,,,0,133,133,124,,,,,,,,,,,,,,,,,,,,,LDT,left,0.5837870379327796,0,,,left,0,0.5837870379327796,,,,,,,,,,,,,,,,,,,,,,1064,2019_Mar_13_1500,mf_amp_cond2,3.0.4,59.99859521893446,
hefurbished,&&&&&&&&&&&,right,nonword,,,,,,,,0,134,134,3,,,,,,,,,,,,,,,,,,,,,LDT,right,0.4337086666491814,1,,,right,1,0.4337086666491814,,,,,,,,,,,,,,,,,,,,,,1064,2019_Mar_13_1500,mf_amp_cond2,3.0.4,59.99859521893446,
accused,&&&&&&&,left,fairness.vice,,,,,,,,0,135,135,86,,,,,,,,,,,,,,,,,,,,,LDT,right,1.0672219422995113,0,,,right,0,1.0672219422995113,,,,,,,,,,,,,,,,,,,,,,1064,2019_Mar_13_1500,mf_amp_cond2,3.0.4,59.99859521893446,
celebrated,&&&&&&&&&&,left,authority.virtue,,,,,,,,0,136,136,122,,,,,,,,,,,,,,,,,,,,,LDT,right,0.850473611470079,0,,,right,0,0.850473611470079,,,,,,,,,,,,,,,,,,,,,,1064,2019_Mar_13_1500,mf_amp_cond2,3.0.4,59.99859521893446,
mostly,&&&&&&,left,neutral,,,,,,,,0,137,137,18,,,,,,,,,,,,,,,,,,,,,LDT,left,0.4003712813719176,1,,,left,1,0.4003712813719176,,,,,,,,,,,,,,,,,,,,,,1064,2019_Mar_13_1500,mf_amp_cond2,3.0.4,59.99859521893446,
feleological,&&&&&&&&&&&&,right,nonword,,,,,,,,0,138,138,188,,,,,,,,,,,,,,,,,,,,,LDT,left,0.2503143992216792,0,,,left,0,0.2503143992216792,,,,,,,,,,,,,,,,,,,,,,1064,2019_Mar_13_1500,mf_amp_cond2,3.0.4,59.99859521893446,
Oregoniuns,&&&&&&&&&&,right,nonword,,,,,,,,0,139,139,33,,,,,,,,,,,,,,,,,,,,,LDT,left,0.13360933540388942,0,,,left,0,0.13360933540388942,,,,,,,,,,,,,,,,,,,,,,1064,2019_Mar_13_1500,mf_amp_cond2,3.0.4,59.99859521893446,
dramens,&&&&&&&,right,nonword,,,,,,,,0,140,140,101,,,,,,,,,,,,,,,,,,,,,LDT,right,0.6504252448212355,1,,,right,1,0.6504252448212355,,,,,,,,,,,,,,,,,,,,,,1064,2019_Mar_13_1500,mf_amp_cond2,3.0.4,59.99859521893446,
each,&&&&,left,neutral,,,,,,,,0,141,141,88,,,,,,,,,,,,,,,,,,,,,LDT,right,0.6837680825556163,0,,,right,0,0.6837680825556163,,,,,,,,,,,,,,,,,,,,,,1064,2019_Mar_13_1500,mf_amp_cond2,3.0.4,59.99859521893446,
seachwear,&&&&&&&&&,right,nonword,,,,,,,,0,142,142,30,,,,,,,,,,,,,,,,,,,,,LDT,right,0.8171442445309367,1,,,right,1,0.8171442445309367,,,,,,,,,,,,,,,,,,,,,,1064,2019_Mar_13_1500,mf_amp_cond2,3.0.4,59.99859521893446,
towards,&&&&&&&,left,neutral,,,,,,,,0,143,143,65,,,,,,,,,,,,,,,,,,,,,LDT,left,0.35033104530884884,1,,,left,1,0.35033104530884884,,,,,,,,,,,,,,,,,,,,,,1064,2019_Mar_13_1500,mf_amp_cond2,3.0.4,59.99859521893446,
itself,&&&&&&,left,neutral,,,,,,,,0,144,144,103,,,,,,,,,,,,,,,,,,,,,LDT,right,0.5170599877892528,0,,,right,0,0.5170599877892528,,,,,,,,,,,,,,,,,,,,,,1064,2019_Mar_13_1500,mf_amp_cond2,3.0.4,59.99859521893446,
festate,&&&&&&&,right,nonword,,,,,,,,0,145,145,117,,,,,,,,,,,,,,,,,,,,,LDT,right,0.46702777009340934,1,,,right,1,0.46702777009340934,,,,,,,,,,,,,,,,,,,,,,1064,2019_Mar_13_1500,mf_amp_cond2,3.0.4,59.99859521893446,
tislay,&&&&&&,right,nonword,,,,,,,,0,146,146,126,,,,,,,,,,,,,,,,,,,,,LDT,right,1.0005205508496147,1,,,right,1,1.0005205508496147,,,,,,,,,,,,,,,,,,,,,,1064,2019_Mar_13_1500,mf_amp_cond2,3.0.4,59.99859521893446,
laming,&&&&&&,right,nonword,,,,,,,,0,147,147,156,,,,,,,,,,,,,,,,,,,,,LDT,right,0.600406818673946,1,,,right,1,0.600406818673946,,,,,,,,,,,,,,,,,,,,,,1064,2019_Mar_13_1500,mf_amp_cond2,3.0.4,59.99859521893446,
neneficence,&&&&&&&&&&&,right,nonword,,,,,,,,0,148,148,144,,,,,,,,,,,,,,,,,,,,,LDT,right,1.5173419127531815,1,,,right,1,1.5173419127531815,,,,,,,,,,,,,,,,,,,,,,1064,2019_Mar_13_1500,mf_amp_cond2,3.0.4,59.99859521893446,
intelligence,&&&&&&&&&&&&,left,loyalty.virtue,,,,,,,,0,149,149,176,,,,,,,,,,,,,,,,,,,,,LDT,right,0.8838068272161763,0,,,right,0,0.8838068272161763,,,,,,,,,,,,,,,,,,,,,,1064,2019_Mar_13_1500,mf_amp_cond2,3.0.4,59.99859521893446,
about,&&&&&,left,neutral,,,,,,,,0,150,150,98,,,,,,,,,,,,,,,,,,,,,LDT,right,0.3336628337856382,0,,,right,0,0.3336628337856382,,,,,,,,,,,,,,,,,,,,,,1064,2019_Mar_13_1500,mf_amp_cond2,3.0.4,59.99859521893446,
presentkess,&&&&&&&&&&&,right,nonword,,,,,,,,0,151,151,128,,,,,,,,,,,,,,,,,,,,,LDT,left,0.8171580361085944,0,,,left,0,0.8171580361085944,,,,,,,,,,,,,,,,,,,,,,1064,2019_Mar_13_1500,mf_amp_cond2,3.0.4,59.99859521893446,
eight,&&&&&,left,neutral,,,,,,,,0,152,152,125,,,,,,,,,,,,,,,,,,,,,LDT,right,0.7671389684546739,0,,,right,0,0.7671389684546739,,,,,,,,,,,,,,,,,,,,,,1064,2019_Mar_13_1500,mf_amp_cond2,3.0.4,59.99859521893446,
gandbrake,&&&&&&&&&,right,nonword,,,,,,,,0,153,153,52,,,,,,,,,,,,,,,,,,,,,LDT,right,0.5670588492066599,1,,,right,1,0.5670588492066599,,,,,,,,,,,,,,,,,,,,,,1064,2019_Mar_13_1500,mf_amp_cond2,3.0.4,59.99859521893446,
give,&&&&,left,neutral,,,,,,,,0,154,154,95,,,,,,,,,,,,,,,,,,,,,LDT,right,0.6504589218820911,0,,,right,0,0.6504589218820911,,,,,,,,,,,,,,,,,,,,,,1064,2019_Mar_13_1500,mf_amp_cond2,3.0.4,59.99859521893446,
also,&&&&,left,neutral,,,,,,,,0,155,155,92,,,,,,,,,,,,,,,,,,,,,LDT,right,0.5169108466070611,0,,,right,0,0.5169108466070611,,,,,,,,,,,,,,,,,,,,,,1064,2019_Mar_13_1500,mf_amp_cond2,3.0.4,59.99859521893446,
officers,&&&&&&&&,left,authority.vice,,,,,,,,0,156,156,79,,,,,,,,,,,,,,,,,,,,,LDT,left,2.0174841581610963,1,,,left,1,2.0174841581610963,,,,,,,,,,,,,,,,,,,,,,1064,2019_Mar_13_1500,mf_amp_cond2,3.0.4,59.99859521893446,
ability,&&&&&&&,left,authority.virtue,,,,,,,,0,157,157,93,,,,,,,,,,,,,,,,,,,,,LDT,right,0.6170599557226524,0,,,right,0,0.6170599557226524,,,,,,,,,,,,,,,,,,,,,,1064,2019_Mar_13_1500,mf_amp_cond2,3.0.4,59.99859521893446,
sidearbs,&&&&&&&&,right,nonword,,,,,,,,0,158,158,39,,,,,,,,,,,,,,,,,,,,,LDT,left,0.6504290936281905,0,,,left,0,0.6504290936281905,,,,,,,,,,,,,,,,,,,,,,1064,2019_Mar_13_1500,mf_amp_cond2,3.0.4,59.99859521893446,
scandal,&&&&&&&,left,sanctity.vice,,,,,,,,0,159,159,81,,,,,,,,,,,,,,,,,,,,,LDT,right,0.8004680146405008,0,,,right,0,0.8004680146405008,,,,,,,,,,,,,,,,,,,,,,1064,2019_Mar_13_1500,mf_amp_cond2,3.0.4,59.99859521893446,
chreams,&&&&&&&,right,nonword,,,,,,,,0,160,160,187,,,,,,,,,,,,,,,,,,,,,LDT,right,0.7170647346356418,1,,,right,1,0.7170647346356418,,,,,,,,,,,,,,,,,,,,,,1064,2019_Mar_13_1500,mf_amp_cond2,3.0.4,59.99859521893446,
sfumatoy,&&&&&&&&,None,nonword,,,,,,,,0,161,161,67,,,,,,,,,,,,,,,,,,,,,LDT,right,0.5169172612950206,0,,,right,0,0.5169172612950206,,,,,,,,,,,,,,,,,,,,,,1064,2019_Mar_13_1500,mf_amp_cond2,3.0.4,59.99859521893446,
done,&&&&,left,neutral,,,,,,,,0,162,162,115,,,,,,,,,,,,,,,,,,,,,LDT,right,0.9005042255157605,0,,,right,0,0.9005042255157605,,,,,,,,,,,,,,,,,,,,,,1064,2019_Mar_13_1500,mf_amp_cond2,3.0.4,59.99859521893446,
hatigue,&&&&&&&,right,nonword,,,,,,,,0,163,163,84,,,,,,,,,,,,,,,,,,,,,LDT,right,1.383962864172645,1,,,right,1,1.383962864172645,,,,,,,,,,,,,,,,,,,,,,1064,2019_Mar_13_1500,mf_amp_cond2,3.0.4,59.99859521893446,
benefit,&&&&&&&,left,fairness.virtue,,,,,,,,0,164,164,61,,,,,,,,,,,,,,,,,,,,,LDT,right,0.9338239704084117,0,,,right,0,0.9338239704084117,,,,,,,,,,,,,,,,,,,,,,1064,2019_Mar_13_1500,mf_amp_cond2,3.0.4,59.99859521893446,
voter,&&&&&,left,fairness.vice,,,,,,,,0,165,165,2,,,,,,,,,,,,,,,,,,,,,LDT,right,0.4670370713574812,0,,,right,0,0.4670370713574812,,,,,,,,,,,,,,,,,,,,,,1064,2019_Mar_13_1500,mf_amp_cond2,3.0.4,59.99859521893446,
brotesque,&&&&&&&&&,right,nonword,,,,,,,,0,166,166,45,,,,,,,,,,,,,,,,,,,,,LDT,right,0.5170494035701267,1,,,right,1,0.5170494035701267,,,,,,,,,,,,,,,,,,,,,,1064,2019_Mar_13_1500,mf_amp_cond2,3.0.4,59.99859521893446,
sgrawl,&&&&&&,right,nonword,,,,,,,,0,167,167,0,,,,,,,,,,,,,,,,,,,,,LDT,left,1.0838914367486723,0,,,left,0,1.0838914367486723,,,,,,,,,,,,,,,,,,,,,,1064,2019_Mar_13_1500,mf_amp_cond2,3.0.4,59.99859521893446,
strofe,&&&&&&,right,nonword,,,,,,,,0,168,168,75,,,,,,,,,,,,,,,,,,,,,LDT,right,0.38370531497639604,1,,,right,1,0.38370531497639604,,,,,,,,,,,,,,,,,,,,,,1064,2019_Mar_13_1500,mf_amp_cond2,3.0.4,59.99859521893446,
thru,&&&&,left,neutral,,,,,,,,0,169,169,83,,,,,,,,,,,,,,,,,,,,,LDT,right,0.5836080684966873,0,,,right,0,0.5836080684966873,,,,,,,,,,,,,,,,,,,,,,1064,2019_Mar_13_1500,mf_amp_cond2,3.0.4,59.99859521893446,
free,&&&&,left,fairness.virtue,,,,,,,,0,170,170,70,,,,,,,,,,,,,,,,,,,,,LDT,right,0.4003475470817648,0,,,right,0,0.4003475470817648,,,,,,,,,,,,,,,,,,,,,,1064,2019_Mar_13_1500,mf_amp_cond2,3.0.4,59.99859521893446,
fostet,&&&&&&,right,nonword,,,,,,,,0,171,171,17,,,,,,,,,,,,,,,,,,,,,LDT,right,0.86718704647501,1,,,right,1,0.86718704647501,,,,,,,,,,,,,,,,,,,,,,1064,2019_Mar_13_1500,mf_amp_cond2,3.0.4,59.99859521893446,
latterly,&&&&&&&&,left,neutral,,,,,,,,0,172,172,189,,,,,,,,,,,,,,,,,,,,,LDT,right,0.700423144036904,0,,,right,0,0.700423144036904,,,,,,,,,,,,,,,,,,,,,,1064,2019_Mar_13_1500,mf_amp_cond2,3.0.4,59.99859521893446,
clean,&&&&&,left,sanctity.virtue,,,,,,,,0,173,173,50,,,,,,,,,,,,,,,,,,,,,LDT,right,0.4670486178074498,0,,,right,0,0.4670486178074498,,,,,,,,,,,,,,,,,,,,,,1064,2019_Mar_13_1500,mf_amp_cond2,3.0.4,59.99859521893446,
epigrach,&&&&&&&&,right,nonword,,,,,,,,0,174,174,193,,,,,,,,,,,,,,,,,,,,,LDT,right,0.6337522222602274,1,,,right,1,0.6337522222602274,,,,,,,,,,,,,,,,,,,,,,1064,2019_Mar_13_1500,mf_amp_cond2,3.0.4,59.99859521893446,
pumber,&&&&&&,None,nonword,,,,,,,,0,175,175,31,,,,,,,,,,,,,,,,,,,,,LDT,right,0.7337752830353566,0,,,right,0,0.7337752830353566,,,,,,,,,,,,,,,,,,,,,,1064,2019_Mar_13_1500,mf_amp_cond2,3.0.4,59.99859521893446,
increase,&&&&&&&&,left,care.virtue,,,,,,,,0,176,176,112,,,,,,,,,,,,,,,,,,,,,LDT,right,1.2339281126623973,0,,,right,0,1.2339281126623973,,,,,,,,,,,,,,,,,,,,,,1064,2019_Mar_13_1500,mf_amp_cond2,3.0.4,59.99859521893446,
besides,&&&&&&&,left,neutral,,,,,,,,0,177,177,152,,,,,,,,,,,,,,,,,,,,,LDT,left,1.067210075125331,1,,,left,1,1.067210075125331,,,,,,,,,,,,,,,,,,,,,,1064,2019_Mar_13_1500,mf_amp_cond2,3.0.4,59.99859521893446,
shoirmaster,&&&&&&&&&&&,right,nonword,,,,,,,,0,178,178,170,,,,,,,,,,,,,,,,,,,,,LDT,right,1.1005474604025949,1,,,right,1,1.1005474604025949,,,,,,,,,,,,,,,,,,,,,,1064,2019_Mar_13_1500,mf_amp_cond2,3.0.4,59.99859521893446,
civilians,&&&&&&&&&,left,care.vice,,,,,,,,0,179,179,153,,,,,,,,,,,,,,,,,,,,,LDT,right,0.9004869058844633,0,,,right,0,0.9004869058844633,,,,,,,,,,,,,,,,,,,,,,1064,2019_Mar_13_1500,mf_amp_cond2,3.0.4,59.99859521893446,
even,&&&&,left,neutral,,,,,,,,0,180,180,185,,,,,,,,,,,,,,,,,,,,,LDT,right,1.7173873927968089,0,,,right,0,1.7173873927968089,,,,,,,,,,,,,,,,,,,,,,1064,2019_Mar_13_1500,mf_amp_cond2,3.0.4,59.99859521893446,
atson,&&&&&,right,nonword,,,,,,,,0,181,181,91,,,,,,,,,,,,,,,,,,,,,LDT,right,0.3670050300715957,1,,,right,1,0.3670050300715957,,,,,,,,,,,,,,,,,,,,,,1064,2019_Mar_13_1500,mf_amp_cond2,3.0.4,59.99859521893446,
fonderland,&&&&&&&&&&,right,nonword,,,,,,,,0,182,182,14,,,,,,,,,,,,,,,,,,,,,LDT,right,0.5504005803959444,1,,,right,1,0.5504005803959444,,,,,,,,,,,,,,,,,,,,,,1064,2019_Mar_13_1500,mf_amp_cond2,3.0.4,59.99859521893446,
latter,&&&&&&,left,neutral,,,,,,,,0,183,183,108,,,,,,,,,,,,,,,,,,,,,LDT,right,0.7503754990175366,0,,,right,0,0.7503754990175366,,,,,,,,,,,,,,,,,,,,,,1064,2019_Mar_13_1500,mf_amp_cond2,3.0.4,59.99859521893446,
become,&&&&&&,left,neutral,,,,,,,,0,184,184,51,,,,,,,,,,,,,,,,,,,,,LDT,right,2.467580073600402,0,,,right,0,2.467580073600402,,,,,,,,,,,,,,,,,,,,,,1064,2019_Mar_13_1500,mf_amp_cond2,3.0.4,59.99859521893446,
front,&&&&&,left,neutral,,,,,,,,0,185,185,58,,,,,,,,,,,,,,,,,,,,,LDT,right,0.5170433096354827,0,,,right,0,0.5170433096354827,,,,,,,,,,,,,,,,,,,,,,1064,2019_Mar_13_1500,mf_amp_cond2,3.0.4,59.99859521893446,
ecgagement,&&&&&&&&&&,None,nonword,,,,,,,,0,186,186,146,,,,,,,,,,,,,,,,,,,,,LDT,right,1.3339505319308955,0,,,right,0,1.3339505319308955,,,,,,,,,,,,,,,,,,,,,,1064,2019_Mar_13_1500,mf_amp_cond2,3.0.4,59.99859521893446,
although,&&&&&&&&,left,neutral,,,,,,,,0,187,187,150,,,,,,,,,,,,,,,,,,,,,LDT,right,0.6670985881064553,0,,,right,0,0.6670985881064553,,,,,,,,,,,,,,,,,,,,,,1064,2019_Mar_13_1500,mf_amp_cond2,3.0.4,59.99859521893446,
love,&&&&,left,loyalty.virtue,,,,,,,,0,188,188,38,,,,,,,,,,,,,,,,,,,,,LDT,right,0.9004859436827246,0,,,right,0,0.9004859436827246,,,,,,,,,,,,,,,,,,,,,,1064,2019_Mar_13_1500,mf_amp_cond2,3.0.4,59.99859521893446,
everything,&&&&&&&&&&,left,neutral,,,,,,,,0,189,189,194,,,,,,,,,,,,,,,,,,,,,LDT,right,0.7837872945237905,0,,,right,0,0.7837872945237905,,,,,,,,,,,,,,,,,,,,,,1064,2019_Mar_13_1500,mf_amp_cond2,3.0.4,59.99859521893446,
commitment,&&&&&&&&&&,left,sanctity.virtue,,,,,,,,0,190,190,172,,,,,,,,,,,,,,,,,,,,,LDT,left,1.400636848906288,1,,,left,1,1.400636848906288,,,,,,,,,,,,,,,,,,,,,,1064,2019_Mar_13_1500,mf_amp_cond2,3.0.4,59.99859521893446,
mightingale,&&&&&&&&&&&,right,nonword,,,,,,,,0,191,191,102,,,,,,,,,,,,,,,,,,,,,LDT,right,0.883807147940388,1,,,right,1,0.883807147940388,,,,,,,,,,,,,,,,,,,,,,1064,2019_Mar_13_1500,mf_amp_cond2,3.0.4,59.99859521893446,
three,&&&&&,left,neutral,,,,,,,,0,192,192,78,,,,,,,,,,,,,,,,,,,,,LDT,right,0.5170340083714109,0,,,right,0,0.5170340083714109,,,,,,,,,,,,,,,,,,,,,,1064,2019_Mar_13_1500,mf_amp_cond2,3.0.4,59.99859521893446,
fear,&&&&,left,sanctity.vice,,,,,,,,0,193,193,69,,,,,,,,,,,,,,,,,,,,,LDT,right,0.767106895102188,0,,,right,0,0.767106895102188,,,,,,,,,,,,,,,,,,,,,,1064,2019_Mar_13_1500,mf_amp_cond2,3.0.4,59.99859521893446,
further,&&&&&&&,left,neutral,,,,,,,,0,194,194,72,,,,,,,,,,,,,,,,,,,,,LDT,left,0.4836908498837147,1,,,left,1,0.4836908498837147,,,,,,,,,,,,,,,,,,,,,,1064,2019_Mar_13_1500,mf_amp_cond2,3.0.4,59.99859521893446,
nuckheap,&&&&&&&&,right,nonword,,,,,,,,0,195,195,40,,,,,,,,,,,,,,,,,,,,,LDT,left,0.6837738557660487,0,,,left,0,0.6837738557660487,,,,,,,,,,,,,,,,,,,,,,1064,2019_Mar_13_1500,mf_amp_cond2,3.0.4,59.99859521893446,
bycled,&&&&&&,None,nonword,,,,,,,,0,196,196,85,,,,,,,,,,,,,,,,,,,,,LDT,left,0.5670896396331955,0,,,left,0,0.5670896396331955,,,,,,,,,,,,,,,,,,,,,,1064,2019_Mar_13_1500,mf_amp_cond2,3.0.4,59.99859521893446,
proached,&&&&&&&&,right,nonword,,,,,,,,0,197,197,140,,,,,,,,,,,,,,,,,,,,,LDT,right,0.5337493677507155,1,,,right,1,0.5337493677507155,,,,,,,,,,,,,,,,,,,,,,1064,2019_Mar_13_1500,mf_amp_cond2,3.0.4,59.99859521893446,
myself,&&&&&&,left,neutral,,,,,,,,0,198,198,132,,,,,,,,,,,,,,,,,,,,,LDT,left,0.35032944165868685,1,,,left,1,0.35032944165868685,,,,,,,,,,,,,,,,,,,,,,1064,2019_Mar_13_1500,mf_amp_cond2,3.0.4,59.99859521893446,
ejanulated,&&&&&&&&&&,right,nonword,,,,,,,,0,199,199,43,,,,,,,,,,,,,,,,,,,,,LDT,right,0.4003395287145395,1,,,right,1,0.4003395287145395,,,,,,,,,,,,,,,,,,,,,,1064,2019_Mar_13_1500,mf_amp_cond2,3.0.4,59.99859521893446,
,,,,,,,,,,,,,,,,,,,,,,,,,,,,,,,,,,,,,,,,,,,,5,12.472,,,,,,,,,,,,,,,,,,,,1064,2019_Mar_13_1500,mf_amp_cond2,3.0.4,59.99859521893446,
,,,,,,,,,,,,,,,,,,,,,,,,,,,,,,,,,,,,,,,,,,,,,,right,2.5343051993113477,,,,,,,,,,,,,,,,,,1064,2019_Mar_13_1500,mf_amp_cond2,3.0.4,59.99859521893446,
banana,&&&&&&,,,kacket,,,,,,,,,,,0,0,0,1,,,,,,,,,,,,,,,,,AMP_prac,left,4.518209497502539,,,,,,,,,,,left,4.518209497502539,,,,,,,,,,,,,,,,1064,2019_Mar_13_1500,mf_amp_cond2,3.0.4,59.99859521893446,
car,&&&&&&&&,,,cemtuper,,,,,,,,,,,0,1,1,0,,,,,,,,,,,,,,,,,AMP_prac,left,1.3506347801885568,,,,,,,,,,,left,1.3506347801885568,,,,,,,,,,,,,,,,1064,2019_Mar_13_1500,mf_amp_cond2,3.0.4,59.99859521893446,
scarf,&&&&&&&&,,,bisebell,,,,,,,,,,,0,2,2,3,,,,,,,,,,,,,,,,,AMP_prac,right,5.035023161792196,,,,,,,,,,,right,5.035023161792196,,,,,,,,,,,,,,,,1064,2019_Mar_13_1500,mf_amp_cond2,3.0.4,59.99859521893446,
keyboard,&&&&,,,senk,,,,,,,,,,,0,3,3,2,,,,,,,,,,,,,,,,,AMP_prac,left,1.7840788414760027,,,,,,,,,,,left,1.7840788414760027,,,,,,,,,,,,,,,,1064,2019_Mar_13_1500,mf_amp_cond2,3.0.4,59.99859521893446,
,,,,,,,,,,,,,,,,,,,,,,,,,,,,,,,,,,,,,,,,,,,,,,,,,,right,0.9004913961398415,,,,,,,,,,,,,,1064,2019_Mar_13_1500,mf_amp_cond2,3.0.4,59.99859521893446,
ban,&&&&&&&&&&,right,loyalty.vice,ammessment,,,,,,,,,,,,,,,0,0,0,82,,,,,,,,,,,,,AMP,left,1.1005484226334374,0,,,,,,,,,,,,,,left,0,1.1005484226334374,,,,,,,,,,,1064,2019_Mar_13_1500,mf_amp_cond2,3.0.4,59.99859521893446,
attacks,&&&&&&,right,care.vice,prones,,,,,,,,,,,,,,,0,1,1,93,,,,,,,,,,,,,AMP,left,1.46731899632141,0,,,,,,,,,,,,,,left,0,1.46731899632141,,,,,,,,,,,1064,2019_Mar_13_1500,mf_amp_cond2,3.0.4,59.99859521893446,
embrace,&&&&&,left,authority.virtue,framo,,,,,,,,,,,,,,,0,2,2,182,,,,,,,,,,,,,AMP,left,0.9671677703445312,1,,,,,,,,,,,,,,left,1,0.9671677703445312,,,,,,,,,,,1064,2019_Mar_13_1500,mf_amp_cond2,3.0.4,59.99859521893446,
prison,&&&&&&&&&&&,right,fairness.vice,ronviolence,,,,,,,,,,,,,,,0,3,3,63,,,,,,,,,,,,,AMP,right,1.300567281752592,1,,,,,,,,,,,,,,right,1,1.300567281752592,,,,,,,,,,,1064,2019_Mar_13_1500,mf_amp_cond2,3.0.4,59.99859521893446,
sharing,&&&&&&&&,left,loyalty.virtue,emassion,,,,,,,,,,,,,,,0,4,4,229,,,,,,,,,,,,,AMP,right,0.517061270744307,0,,,,,,,,,,,,,,right,0,0.517061270744307,,,,,,,,,,,1064,2019_Mar_13_1500,mf_amp_cond2,3.0.4,59.99859521893446,
refused,&&&&&&,right,authority.vice,greaks,,,,,,,,,,,,,,,0,5,5,268,,,,,,,,,,,,,AMP,left,1.6506994721712545,0,,,,,,,,,,,,,,left,0,1.6506994721712545,,,,,,,,,,,1064,2019_Mar_13_1500,mf_amp_cond2,3.0.4,59.99859521893446,
unpleasant,&&&&&&&&&,None,control,metibolic,,,,,,,,,,,,,,,0,6,6,69,,,,,,,,,,,,,AMP,right,1.4840077348053455,0,,,,,,,,,,,,,,right,0,1.4840077348053455,,,,,,,,,,,1064,2019_Mar_13_1500,mf_amp_cond2,3.0.4,59.99859521893446,
safe,&&&&,left,care.virtue,coom,,,,,,,,,,,,,,,0,7,7,131,,,,,,,,,,,,,AMP,left,0.7837908226065338,1,,,,,,,,,,,,,,left,1,0.7837908226065338,,,,,,,,,,,1064,2019_Mar_13_1500,mf_amp_cond2,3.0.4,59.99859521893446,
sharing,&&&&&&&&&&,left,loyalty.virtue,neutralust,,,,,,,,,,,,,,,0,8,8,141,,,,,,,,,,,,,AMP,right,1.2839186349592637,0,,,,,,,,,,,,,,right,0,1.2839186349592637,,,,,,,,,,,1064,2019_Mar_13_1500,mf_amp_cond2,3.0.4,59.99859521893446,
useful,&&&&&&&&,left,authority.virtue,bluently,,,,,,,,,,,,,,,0,9,9,276,,,,,,,,,,,,,AMP,left,1.1338809968729038,1,,,,,,,,,,,,,,left,1,1.1338809968729038,,,,,,,,,,,1064,2019_Mar_13_1500,mf_amp_cond2,3.0.4,59.99859521893446,
lenon,&&&&&&&&&&&,None,nonword,shoirmaster,,,,,,,,,,,,,,,0,10,10,266,,,,,,,,,,,,,AMP,left,0.9171531930333003,0,,,,,,,,,,,,,,left,0,0.9171531930333003,,,,,,,,,,,1064,2019_Mar_13_1500,mf_amp_cond2,3.0.4,59.99859521893446,
honored,&&&,left,authority.virtue,mih,,,,,,,,,,,,,,,0,11,11,152,,,,,,,,,,,,,AMP,left,1.1672321736987215,1,,,,,,,,,,,,,,left,1,1.1672321736987215,,,,,,,,,,,1064,2019_Mar_13_1500,mf_amp_cond2,3.0.4,59.99859521893446,
useful,&&&&&&&&&,left,authority.virtue,discovars,,,,,,,,,,,,,,,0,12,12,8,,,,,,,,,,,,,AMP,right,1.467325731733581,0,,,,,,,,,,,,,,right,0,1.467325731733581,,,,,,,,,,,1064,2019_Mar_13_1500,mf_amp_cond2,3.0.4,59.99859521893446,
ugeasily,&&&&&,None,nonword,viscs,,,,,,,,,,,,,,,0,13,13,161,,,,,,,,,,,,,AMP,left,1.5006467595812865,0,,,,,,,,,,,,,,left,0,1.5006467595812865,,,,,,,,,,,1064,2019_Mar_13_1500,mf_amp_cond2,3.0.4,59.99859521893446,
values,&&&&,left,sanctity.virtue,tove,,,,,,,,,,,,,,,0,14,14,192,,,,,,,,,,,,,AMP,left,1.4339867427770514,1,,,,,,,,,,,,,,left,1,1.4339867427770514,,,,,,,,,,,1064,2019_Mar_13_1500,mf_amp_cond2,3.0.4,59.99859521893446,
gun,&&&&&&&&&&,right,authority.vice,frojecting,,,,,,,,,,,,,,,0,15,15,27,,,,,,,,,,,,,AMP,left,1.1839074413874187,0,,,,,,,,,,,,,,left,0,1.1839074413874187,,,,,,,,,,,1064,2019_Mar_13_1500,mf_amp_cond2,3.0.4,59.99859521893446,
charges,&&&&&&&&&,right,fairness.vice,crilfully,,,,,,,,,,,,,,,0,16,16,86,,,,,,,,,,,,,AMP,left,0.8504726492683403,0,,,,,,,,,,,,,,left,0,0.8504726492683403,,,,,,,,,,,1064,2019_Mar_13_1500,mf_amp_cond2,3.0.4,59.99859521893446,
honored,&&&&&&&&&&&,left,authority.virtue,sowntrodden,,,,,,,,,,,,,,,0,17,17,79,,,,,,,,,,,,,AMP,left,0.667105644242838,1,,,,,,,,,,,,,,left,1,0.667105644242838,,,,,,,,,,,1064,2019_Mar_13_1500,mf_amp_cond2,3.0.4,59.99859521893446,
victims,&&&&&&&&&&&,right,care.vice,egpeditious,,,,,,,,,,,,,,,0,18,18,272,,,,,,,,,,,,,AMP,left,0.5837498328182846,0,,,,,,,,,,,,,,left,0,0.5837498328182846,,,,,,,,,,,1064,2019_Mar_13_1500,mf_amp_cond2,3.0.4,59.99859521893446,
nonobservalt,&&&&&&&&&,None,nonword,reprisols,,,,,,,,,,,,,,,0,19,19,5,,,,,,,,,,,,,AMP,right,0.7004366148321424,0,,,,,,,,,,,,,,right,0,0.7004366148321424,,,,,,,,,,,1064,2019_Mar_13_1500,mf_amp_cond2,3.0.4,59.99859521893446,
rejected,&&&&&&&&&&,right,authority.vice,lorthwhile,,,,,,,,,,,,,,,0,20,20,309,,,,,,,,,,,,,AMP,left,0.3669925214489922,0,,,,,,,,,,,,,,left,0,0.3669925214489922,,,,,,,,,,,1064,2019_Mar_13_1500,mf_amp_cond2,3.0.4,59.99859521893446,
useful,&&&&&&,left,authority.virtue,gikely,,,,,,,,,,,,,,,0,21,21,228,,,,,,,,,,,,,AMP,left,0.3336634752631653,1,,,,,,,,,,,,,,left,1,0.3336634752631653,,,,,,,,,,,1064,2019_Mar_13_1500,mf_amp_cond2,3.0.4,59.99859521893446,
interests,&&&&&,left,fairness.virtue,aubos,,,,,,,,,,,,,,,0,22,22,29,,,,,,,,,,,,,AMP,right,0.9672017681587022,0,,,,,,,,,,,,,,right,0,0.9672017681587022,,,,,,,,,,,1064,2019_Mar_13_1500,mf_amp_cond2,3.0.4,59.99859521893446,
sharing,&&&&&&&&&&,left,loyalty.virtue,ammessment,,,,,,,,,,,,,,,0,23,23,50,,,,,,,,,,,,,AMP,right,1.200572124827886,0,,,,,,,,,,,,,,right,0,1.200572124827886,,,,,,,,,,,1064,2019_Mar_13_1500,mf_amp_cond2,3.0.4,59.99859521893446,
respect,&&&&&&&&,left,sanctity.virtue,tracious,,,,,,,,,,,,,,,0,24,24,186,,,,,,,,,,,,,AMP,right,1.584019890637137,0,,,,,,,,,,,,,,right,0,1.584019890637137,,,,,,,,,,,1064,2019_Mar_13_1500,mf_amp_cond2,3.0.4,59.99859521893446,
powerful,&&&&&&&,left,authority.virtue,baklara,,,,,,,,,,,,,,,0,25,25,294,,,,,,,,,,,,,AMP,left,0.6170833692885935,1,,,,,,,,,,,,,,left,1,0.6170833692885935,,,,,,,,,,,1064,2019_Mar_13_1500,mf_amp_cond2,3.0.4,59.99859521893446,
attacks,&&&&&&&&&&&,right,care.vice,shoirmaster,,,,,,,,,,,,,,,0,26,26,223,,,,,,,,,,,,,AMP,left,0.7337935648683924,0,,,,,,,,,,,,,,left,0,0.7337935648683924,,,,,,,,,,,1064,2019_Mar_13_1500,mf_amp_cond2,3.0.4,59.99859521893446,
interests,&&&&&&&&&&&,left,fairness.virtue,precificity,,,,,,,,,,,,,,,0,27,27,302,,,,,,,,,,,,,AMP,left,0.6337624857551418,1,,,,,,,,,,,,,,left,1,0.6337624857551418,,,,,,,,,,,1064,2019_Mar_13_1500,mf_amp_cond2,3.0.4,59.99859521893446,
serial,&&&&&&,right,sanctity.vice,sonvoy,,,,,,,,,,,,,,,0,28,28,197,,,,,,,,,,,,,AMP,right,2.600980290590087,1,,,,,,,,,,,,,,right,1,2.600980290590087,,,,,,,,,,,1064,2019_Mar_13_1500,mf_amp_cond2,3.0.4,59.99859521893446,
failure,&&&&&&&&&&&&,right,loyalty.vice,unreflectuve,,,,,,,,,,,,,,,0,29,29,166,,,,,,,,,,,,,AMP,left,1.067080819455441,0,,,,,,,,,,,,,,left,0,1.067080819455441,,,,,,,,,,,1064,2019_Mar_13_1500,mf_amp_cond2,3.0.4,59.99859521893446,
arrests,&&&&&&&,right,authority.vice,carvels,,,,,,,,,,,,,,,0,30,30,162,,,,,,,,,,,,,AMP,right,0.8838379383669235,1,,,,,,,,,,,,,,right,1,0.8838379383669235,,,,,,,,,,,1064,2019_Mar_13_1500,mf_amp_cond2,3.0.4,59.99859521893446,
values,&&&&&,left,sanctity.virtue,hasks,,,,,,,,,,,,,,,0,31,31,291,,,,,,,,,,,,,AMP,right,0.5503880717733409,0,,,,,,,,,,,,,,right,0,0.5503880717733409,,,,,,,,,,,1064,2019_Mar_13_1500,mf_amp_cond2,3.0.4,59.99859521893446,
freedom,&&&&,left,sanctity.virtue,juck,,,,,,,,,,,,,,,0,32,32,127,,,,,,,,,,,,,AMP,left,0.683773535041837,1,,,,,,,,,,,,,,left,1,0.683773535041837,,,,,,,,,,,1064,2019_Mar_13_1500,mf_amp_cond2,3.0.4,59.99859521893446,
great,&&&&&&&&,left,loyalty.virtue,thabbily,,,,,,,,,,,,,,,0,33,33,72,,,,,,,,,,,,,AMP,left,0.767123573255958,1,,,,,,,,,,,,,,left,1,0.767123573255958,,,,,,,,,,,1064,2019_Mar_13_1500,mf_amp_cond2,3.0.4,59.99859521893446,
killed,&&&&&&,right,care.vice,greaks,,,,,,,,,,,,,,,0,34,34,242,,,,,,,,,,,,,AMP,left,0.6337470905273221,0,,,,,,,,,,,,,,left,0,0.6337470905273221,,,,,,,,,,,1064,2019_Mar_13_1500,mf_amp_cond2,3.0.4,59.99859521893446,
killed,&&&&&&&&&,right,care.vice,gaultless,,,,,,,,,,,,,,,0,35,35,0,,,,,,,,,,,,,AMP,left,4.334825493599055,0,,,,,,,,,,,,,,left,0,4.334825493599055,,,,,,,,,,,1064,2019_Mar_13_1500,mf_amp_cond2,3.0.4,59.99859521893446,
victims,&&&&&&&&&&,right,care.vice,lorthwhile,,,,,,,,,,,,,,,0,36,36,85,,,,,,,,,,,,,AMP,left,0.517042347433744,0,,,,,,,,,,,,,,left,0,0.517042347433744,,,,,,,,,,,1064,2019_Mar_13_1500,mf_amp_cond2,3.0.4,59.99859521893446,
terrorist,&&&&&&&&&,right,loyalty.vice,grovelire,,,,,,,,,,,,,,,0,37,37,249,,,,,,,,,,,,,AMP,left,0.4837049621564802,0,,,,,,,,,,,,,,left,0,0.4837049621564802,,,,,,,,,,,1064,2019_Mar_13_1500,mf_amp_cond2,3.0.4,59.99859521893446,
suicide,&&&&&&,right,care.vice,sonvoy,,,,,,,,,,,,,,,0,38,38,36,,,,,,,,,,,,,AMP,left,0.6004020076652523,0,,,,,,,,,,,,,,left,0,0.6004020076652523,,,,,,,,,,,1064,2019_Mar_13_1500,mf_amp_cond2,3.0.4,59.99859521893446,
riot,&&&&&,right,authority.vice,infet,,,,,,,,,,,,,,,0,39,39,106,,,,,,,,,,,,,AMP,left,0.48370015117689036,0,,,,,,,,,,,,,,left,0,0.48370015117689036,,,,,,,,,,,1064,2019_Mar_13_1500,mf_amp_cond2,3.0.4,59.99859521893446,
violations,&&&&&&&,right,sanctity.vice,sickyay,,,,,,,,,,,,,,,0,40,40,122,,,,,,,,,,,,,AMP,left,1.0171788196603302,0,,,,,,,,,,,,,,left,0,1.0171788196603302,,,,,,,,,,,1064,2019_Mar_13_1500,mf_amp_cond2,3.0.4,59.99859521893446,
died,&&&&&&&&&,right,care.vice,gillipede,,,,,,,,,,,,,,,0,41,41,99,,,,,,,,,,,,,AMP,left,0.43366440539830364,0,,,,,,,,,,,,,,left,0,0.43366440539830364,,,,,,,,,,,1064,2019_Mar_13_1500,mf_amp_cond2,3.0.4,59.99859521893446,
progress,&&&&&&&&&&&&,left,authority.virtue,bruthfulness,,,,,,,,,,,,,,,0,42,42,108,,,,,,,,,,,,,AMP,left,0.4670415616419632,1,,,,,,,,,,,,,,left,1,0.4670415616419632,,,,,,,,,,,1064,2019_Mar_13_1500,mf_amp_cond2,3.0.4,59.99859521893446,
strong,&&&&&&&,left,loyalty.virtue,vurtain,,,,,,,,,,,,,,,0,43,43,211,,,,,,,,,,,,,AMP,left,0.5170394608285278,1,,,,,,,,,,,,,,left,1,0.5170394608285278,,,,,,,,,,,1064,2019_Mar_13_1500,mf_amp_cond2,3.0.4,59.99859521893446,
failure,&&&&&&&&&&&&&,right,loyalty.vice,photocalkodes,,,,,,,,,,,,,,,0,44,44,130,,,,,,,,,,,,,AMP,left,0.8671533694141544,0,,,,,,,,,,,,,,left,0,0.8671533694141544,,,,,,,,,,,1064,2019_Mar_13_1500,mf_amp_cond2,3.0.4,59.99859521893446,
prosecution,&&&&&&,right,authority.vice,chared,,,,,,,,,,,,,,,0,45,45,75,,,,,,,,,,,,,AMP,right,0.48372677207225934,1,,,,,,,,,,,,,,right,1,0.48372677207225934,,,,,,,,,,,1064,2019_Mar_13_1500,mf_amp_cond2,3.0.4,59.99859521893446,
abuse,&&&&&&&&&&&&,right,sanctity.vice,bruthfulness,,,,,,,,,,,,,,,0,46,46,312,,,,,,,,,,,,,AMP,left,0.6837587812915444,0,,,,,,,,,,,,,,left,0,0.6837587812915444,,,,,,,,,,,1064,2019_Mar_13_1500,mf_amp_cond2,3.0.4,59.99859521893446,
victims,&&&&&&&&,right,care.vice,bluently,,,,,,,,,,,,,,,0,47,47,23,,,,,,,,,,,,,AMP,left,0.8504867615411058,0,,,,,,,,,,,,,,left,0,0.8504867615411058,,,,,,,,,,,1064,2019_Mar_13_1500,mf_amp_cond2,3.0.4,59.99859521893446,
men,&&&&,right,loyalty.vice,juck,,,,,,,,,,,,,,,0,48,48,298,,,,,,,,,,,,,AMP,left,0.4670165443967562,0,,,,,,,,,,,,,,left,0,0.4670165443967562,,,,,,,,,,,1064,2019_Mar_13_1500,mf_amp_cond2,3.0.4,59.99859521893446,
interests,&&&&&,left,fairness.virtue,pafer,,,,,,,,,,,,,,,0,49,49,123,,,,,,,,,,,,,AMP,left,0.9838516978488769,1,,,,,,,,,,,,,,left,1,0.9838516978488769,,,,,,,,,,,1064,2019_Mar_13_1500,mf_amp_cond2,3.0.4,59.99859521893446,
gun,&&&&&&&,right,authority.vice,brudent,,,,,,,,,,,,,,,0,50,50,258,,,,,,,,,,,,,AMP,left,0.583732833940303,0,,,,,,,,,,,,,,left,0,0.583732833940303,,,,,,,,,,,1064,2019_Mar_13_1500,mf_amp_cond2,3.0.4,59.99859521893446,
friends,&&&&&&&&&&&&&,left,loyalty.virtue,idexpressible,,,,,,,,,,,,,,,0,51,51,270,,,,,,,,,,,,,AMP,left,0.5502559294982348,1,,,,,,,,,,,,,,left,1,0.5502559294982348,,,,,,,,,,,1064,2019_Mar_13_1500,mf_amp_cond2,3.0.4,59.99859521893446,
died,&&&&&&&&&&,right,care.vice,chonograph,,,,,,,,,,,,,,,0,52,52,37,,,,,,,,,,,,,AMP,right,0.650427169224713,1,,,,,,,,,,,,,,right,1,0.650427169224713,,,,,,,,,,,1064,2019_Mar_13_1500,mf_amp_cond2,3.0.4,59.99859521893446,
killed,&&&&&&&&&,right,care.vice,gaultless,,,,,,,,,,,,,,,0,53,53,278,,,,,,,,,,,,,AMP,left,0.5670466613082681,0,,,,,,,,,,,,,,left,0,0.5670466613082681,,,,,,,,,,,1064,2019_Mar_13_1500,mf_amp_cond2,3.0.4,59.99859521893446,
violence,&&&&&,right,care.vice,aubos,,,,,,,,,,,,,,,0,54,54,318,,,,,,,,,,,,,AMP,right,0.8171589982812293,1,,,,,,,,,,,,,,right,1,0.8171589982812293,,,,,,,,,,,1064,2019_Mar_13_1500,mf_amp_cond2,3.0.4,59.99859521893446,
progress,&&&&&&&&&&&,left,authority.virtue,egpeditious,,,,,,,,,,,,,,,0,55,55,64,,,,,,,,,,,,,AMP,left,0.7504637007950805,1,,,,,,,,,,,,,,left,1,0.7504637007950805,,,,,,,,,,,1064,2019_Mar_13_1500,mf_amp_cond2,3.0.4,59.99859521893446,
pharing,&&&&&&&&&&&&,None,nonword,iptervention,,,,,,,,,,,,,,,0,56,56,218,,,,,,,,,,,,,AMP,right,0.5170683268806897,0,,,,,,,,,,,,,,right,0,0.5170683268806897,,,,,,,,,,,1064,2019_Mar_13_1500,mf_amp_cond2,3.0.4,59.99859521893446,
torture,&&&&&&,right,care.vice,greaks,,,,,,,,,,,,,,,0,57,57,41,,,,,,,,,,,,,AMP,left,0.5670713578001596,0,,,,,,,,,,,,,,left,0,0.5670713578001596,,,,,,,,,,,1064,2019_Mar_13_1500,mf_amp_cond2,3.0.4,59.99859521893446,
peaceful,&&&&&&&&&&&&,left,authority.virtue,quarterbocks,,,,,,,,,,,,,,,0,58,58,45,,,,,,,,,,,,,AMP,right,0.6170775960781612,0,,,,,,,,,,,,,,right,0,0.6170775960781612,,,,,,,,,,,1064,2019_Mar_13_1500,mf_amp_cond2,3.0.4,59.99859521893446,
lursuer,&&&&&,None,nonword,infet,,,,,,,,,,,,,,,0,59,59,168,,,,,,,,,,,,,AMP,right,0.8338121353590395,0,,,,,,,,,,,,,,right,0,0.8338121353590395,,,,,,,,,,,1064,2019_Mar_13_1500,mf_amp_cond2,3.0.4,59.99859521893446,
pleasant,&&&&&&&&&&,None,control,chonograph,,,,,,,,,,,,,,,0,60,60,107,,,,,,,,,,,,,AMP,left,1.0005131739599165,0,,,,,,,,,,,,,,left,0,1.0005131739599165,,,,,,,,,,,1064,2019_Mar_13_1500,mf_amp_cond2,3.0.4,59.99859521893446,
pullness,&&&&,None,nonword,wump,,,,,,,,,,,,,,,0,61,61,15,,,,,,,,,,,,,AMP,left,0.5837248156021815,0,,,,,,,,,,,,,,left,0,0.5837248156021815,,,,,,,,,,,1064,2019_Mar_13_1500,mf_amp_cond2,3.0.4,59.99859521893446,
restore,&&&&&&,left,care.virtue,greaks,,,,,,,,,,,,,,,0,62,62,113,,,,,,,,,,,,,AMP,left,0.6337345819338225,1,,,,,,,,,,,,,,left,1,0.6337345819338225,,,,,,,,,,,1064,2019_Mar_13_1500,mf_amp_cond2,3.0.4,59.99859521893446,
corruption,&&&&&,right,sanctity.vice,hasks,,,,,,,,,,,,,,,0,63,63,194,,,,,,,,,,,,,AMP,left,1.1839042340579908,0,,,,,,,,,,,,,,left,0,1.1839042340579908,,,,,,,,,,,1064,2019_Mar_13_1500,mf_amp_cond2,3.0.4,59.99859521893446,
ban,&&&&&&&&,right,loyalty.vice,tracious,,,,,,,,,,,,,,,0,64,64,18,,,,,,,,,,,,,AMP,right,0.6170766338764224,1,,,,,,,,,,,,,,right,1,0.6170766338764224,,,,,,,,,,,1064,2019_Mar_13_1500,mf_amp_cond2,3.0.4,59.99859521893446,
peaceful,&&&&&&&&,left,authority.virtue,suggists,,,,,,,,,,,,,,,0,65,65,188,,,,,,,,,,,,,AMP,left,0.46702135540544987,1,,,,,,,,,,,,,,left,1,0.46702135540544987,,,,,,,,,,,1064,2019_Mar_13_1500,mf_amp_cond2,3.0.4,59.99859521893446,
gazily,&&&&&&&&&&,None,nonword,clattening,,,,,,,,,,,,,,,0,66,66,224,,,,,,,,,,,,,AMP,right,0.7004532929859124,0,,,,,,,,,,,,,,right,0,0.7004532929859124,,,,,,,,,,,1064,2019_Mar_13_1500,mf_amp_cond2,3.0.4,59.99859521893446,
threatened,&&&&&&&&&&,right,fairness.vice,frojecting,,,,,,,,,,,,,,,0,67,67,151,,,,,,,,,,,,,AMP,left,0.9005058291659225,0,,,,,,,,,,,,,,left,0,0.9005058291659225,,,,,,,,,,,1064,2019_Mar_13_1500,mf_amp_cond2,3.0.4,59.99859521893446,
critics,&&&&&&&&,right,loyalty.vice,crinking,,,,,,,,,,,,,,,0,68,68,105,,,,,,,,,,,,,AMP,left,0.5837180801900104,0,,,,,,,,,,,,,,left,0,0.5837180801900104,,,,,,,,,,,1064,2019_Mar_13_1500,mf_amp_cond2,3.0.4,59.99859521893446,
charges,&&&&&&&&&&,right,fairness.vice,simplustic,,,,,,,,,,,,,,,0,69,69,21,,,,,,,,,,,,,AMP,right,0.850512420234736,1,,,,,,,,,,,,,,right,1,0.850512420234736,,,,,,,,,,,1064,2019_Mar_13_1500,mf_amp_cond2,3.0.4,59.99859521893446,
ensure,&&&&&&&,left,fairness.virtue,chadows,,,,,,,,,,,,,,,0,70,70,43,,,,,,,,,,,,,AMP,left,0.48369694384746253,1,,,,,,,,,,,,,,left,1,0.48369694384746253,,,,,,,,,,,1064,2019_Mar_13_1500,mf_amp_cond2,3.0.4,59.99859521893446,
terrorists,&&&&&&&&&&&,right,fairness.vice,ronviolence,,,,,,,,,,,,,,,0,71,71,156,,,,,,,,,,,,,AMP,left,0.43368717745761387,0,,,,,,,,,,,,,,left,0,0.43368717745761387,,,,,,,,,,,1064,2019_Mar_13_1500,mf_amp_cond2,3.0.4,59.99859521893446,
nonobservalt,&&&&&&&,None,nonword,menizen,,,,,,,,,,,,,,,0,72,72,153,,,,,,,,,,,,,AMP,left,1.1672786800772883,0,,,,,,,,,,,,,,left,0,1.1672786800772883,,,,,,,,,,,1064,2019_Mar_13_1500,mf_amp_cond2,3.0.4,59.99859521893446,
actively,&&&&&&&&&&&,left,authority.virtue,ronviolence,,,,,,,,,,,,,,,0,73,73,203,,,,,,,,,,,,,AMP,right,0.8504800261289347,0,,,,,,,,,,,,,,right,0,0.8504800261289347,,,,,,,,,,,1064,2019_Mar_13_1500,mf_amp_cond2,3.0.4,59.99859521893446,
integrity,&&&&&&&,left,fairness.virtue,baklara,,,,,,,,,,,,,,,0,74,74,119,,,,,,,,,,,,,AMP,right,2.5508675687306095,0,,,,,,,,,,,,,,right,0,2.5508675687306095,,,,,,,,,,,1064,2019_Mar_13_1500,mf_amp_cond2,3.0.4,59.99859521893446,
corruption,&&&&&&&&&&&,right,sanctity.vice,precificity,,,,,,,,,,,,,,,0,75,75,83,,,,,,,,,,,,,AMP,left,0.31698179291561246,0,,,,,,,,,,,,,,left,0,0.31698179291561246,,,,,,,,,,,1064,2019_Mar_13_1500,mf_amp_cond2,3.0.4,59.99859521893446,
critics,&&&&&&&&&&&&&,right,loyalty.vice,idexpressible,,,,,,,,,,,,,,,0,76,76,185,,,,,,,,,,,,,AMP,right,1.5340386695752386,1,,,,,,,,,,,,,,right,1,1.5340386695752386,,,,,,,,,,,1064,2019_Mar_13_1500,mf_amp_cond2,3.0.4,59.99859521893446,
pullness,&&&&&&&&&&,None,nonword,reelectiob,,,,,,,,,,,,,,,0,77,77,245,,,,,,,,,,,,,AMP,right,0.9005388647492509,0,,,,,,,,,,,,,,right,0,0.9005388647492509,,,,,,,,,,,1064,2019_Mar_13_1500,mf_amp_cond2,3.0.4,59.99859521893446,
restore,&&&&&&&&&&&&&,left,care.virtue,photocalkodes,,,,,,,,,,,,,,,0,78,78,277,,,,,,,,,,,,,AMP,left,0.7671347989526112,1,,,,,,,,,,,,,,left,1,0.7671347989526112,,,,,,,,,,,1064,2019_Mar_13_1500,mf_amp_cond2,3.0.4,59.99859521893446,
torture,&&&&&&&,right,care.vice,troubla,,,,,,,,,,,,,,,0,79,79,320,,,,,,,,,,,,,AMP,right,0.5337067101499997,1,,,,,,,,,,,,,,right,1,0.5337067101499997,,,,,,,,,,,1064,2019_Mar_13_1500,mf_amp_cond2,3.0.4,59.99859521893446,
crime,&&&&&&&,right,fairness.vice,nomaric,,,,,,,,,,,,,,,0,80,80,196,,,,,,,,,,,,,AMP,left,0.6670815891993698,0,,,,,,,,,,,,,,left,0,0.6670815891993698,,,,,,,,,,,1064,2019_Mar_13_1500,mf_amp_cond2,3.0.4,59.99859521893446,
scalbel,&&&&&&&&&&&&,None,nonword,edancipation,,,,,,,,,,,,,,,0,81,81,147,,,,,,,,,,,,,AMP,right,0.6170731057936791,0,,,,,,,,,,,,,,right,0,0.6170731057936791,,,,,,,,,,,1064,2019_Mar_13_1500,mf_amp_cond2,3.0.4,59.99859521893446,
peaceful,&&&&&,left,authority.virtue,pafer,,,,,,,,,,,,,,,0,82,82,321,,,,,,,,,,,,,AMP,left,0.967181561893085,1,,,,,,,,,,,,,,left,1,0.967181561893085,,,,,,,,,,,1064,2019_Mar_13_1500,mf_amp_cond2,3.0.4,59.99859521893446,
strong,&&&&&&&&&&&,left,loyalty.virtue,ilportation,,,,,,,,,,,,,,,0,83,83,104,,,,,,,,,,,,,AMP,right,1.183908724313369,0,,,,,,,,,,,,,,right,0,1.183908724313369,,,,,,,,,,,1064,2019_Mar_13_1500,mf_amp_cond2,3.0.4,59.99859521893446,
peaceful,&&&&&&&&&&,left,authority.virtue,clattening,,,,,,,,,,,,,,,0,84,84,112,,,,,,,,,,,,,AMP,right,0.38368318433640525,0,,,,,,,,,,,,,,right,0,0.38368318433640525,,,,,,,,,,,1064,2019_Mar_13_1500,mf_amp_cond2,3.0.4,59.99859521893446,
respect,&&&&&&&&&&,left,sanctity.virtue,elduringly,,,,,,,,,,,,,,,0,85,85,315,,,,,,,,,,,,,AMP,right,0.2836521052522585,0,,,,,,,,,,,,,,right,0,0.2836521052522585,,,,,,,,,,,1064,2019_Mar_13_1500,mf_amp_cond2,3.0.4,59.99859521893446,
serial,&&&&,right,sanctity.vice,tove,,,,,,,,,,,,,,,0,86,86,12,,,,,,,,,,,,,AMP,left,0.46703386402805336,0,,,,,,,,,,,,,,left,0,0.46703386402805336,,,,,,,,,,,1064,2019_Mar_13_1500,mf_amp_cond2,3.0.4,59.99859521893446,
actively,&&&&&&&,left,authority.virtue,nackers,,,,,,,,,,,,,,,0,87,87,31,,,,,,,,,,,,,AMP,left,0.8338025133125484,1,,,,,,,,,,,,,,left,1,0.8338025133125484,,,,,,,,,,,1064,2019_Mar_13_1500,mf_amp_cond2,3.0.4,59.99859521893446,
ensure,&&&&,left,fairness.virtue,erks,,,,,,,,,,,,,,,0,88,88,299,,,,,,,,,,,,,AMP,right,0.4503832928312477,0,,,,,,,,,,,,,,right,0,0.4503832928312477,,,,,,,,,,,1064,2019_Mar_13_1500,mf_amp_cond2,3.0.4,59.99859521893446,
pulge,&&&&&,None,nonword,pafer,,,,,,,,,,,,,,,0,89,89,28,,,,,,,,,,,,,AMP,left,1.1005570824199822,0,,,,,,,,,,,,,,left,0,1.1005570824199822,,,,,,,,,,,1064,2019_Mar_13_1500,mf_amp_cond2,3.0.4,59.99859521893446,
faith,&&&&&&&&&,left,sanctity.virtue,gaultless,,,,,,,,,,,,,,,0,90,90,190,,,,,,,,,,,,,AMP,right,0.3336961900931783,0,,,,,,,,,,,,,,right,0,0.3336961900931783,,,,,,,,,,,1064,2019_Mar_13_1500,mf_amp_cond2,3.0.4,59.99859521893446,
prosecution,&&&&&&&&,right,authority.vice,tracious,,,,,,,,,,,,,,,0,91,91,316,,,,,,,,,,,,,AMP,right,0.8338037962676026,1,,,,,,,,,,,,,,right,1,0.8338037962676026,,,,,,,,,,,1064,2019_Mar_13_1500,mf_amp_cond2,3.0.4,59.99859521893446,
compassion,&&&&&&&&,left,care.virtue,tracious,,,,,,,,,,,,,,,0,92,92,135,,,,,,,,,,,,,AMP,right,0.43367947987280786,0,,,,,,,,,,,,,,right,0,0.43367947987280786,,,,,,,,,,,1064,2019_Mar_13_1500,mf_amp_cond2,3.0.4,59.99859521893446,
credit,&&&&&&&,left,fairness.virtue,carvels,,,,,,,,,,,,,,,0,93,93,259,,,,,,,,,,,,,AMP,right,0.3669960495317355,0,,,,,,,,,,,,,,right,0,0.3669960495317355,,,,,,,,,,,1064,2019_Mar_13_1500,mf_amp_cond2,3.0.4,59.99859521893446,
failure,&&&&&&,right,loyalty.vice,letish,,,,,,,,,,,,,,,0,94,94,65,,,,,,,,,,,,,AMP,left,0.35037466511130333,0,,,,,,,,,,,,,,left,0,0.35037466511130333,,,,,,,,,,,1064,2019_Mar_13_1500,mf_amp_cond2,3.0.4,59.99859521893446,
betrayal,&&&&&,right,loyalty.vice,touls,,,,,,,,,,,,,,,0,95,95,324,,,,,,,,,,,,,AMP,left,0.3670015019888524,0,,,,,,,,,,,,,,left,0,0.3670015019888524,,,,,,,,,,,1064,2019_Mar_13_1500,mf_amp_cond2,3.0.4,59.99859521893446,
promises,&&&&&,left,fairness.virtue,leact,,,,,,,,,,,,,,,0,96,96,111,,,,,,,,,,,,,AMP,right,1.217266636522254,0,,,,,,,,,,,,,,right,0,1.217266636522254,,,,,,,,,,,1064,2019_Mar_13_1500,mf_amp_cond2,3.0.4,59.99859521893446,
hate,&&&&&&&&,right,fairness.vice,drumbled,,,,,,,,,,,,,,,0,97,97,76,,,,,,,,,,,,,AMP,left,0.36700470934738405,0,,,,,,,,,,,,,,left,0,0.36700470934738405,,,,,,,,,,,1064,2019_Mar_13_1500,mf_amp_cond2,3.0.4,59.99859521893446,
perfect,&&&&&&&&&,left,sanctity.virtue,reprisols,,,,,,,,,,,,,,,0,98,98,226,,,,,,,,,,,,,AMP,right,0.3836732415948063,0,,,,,,,,,,,,,,right,0,0.3836732415948063,,,,,,,,,,,1064,2019_Mar_13_1500,mf_amp_cond2,3.0.4,59.99859521893446,
honored,&&&&&&&,left,authority.virtue,allears,,,,,,,,,,,,,,,0,99,99,193,,,,,,,,,,,,,AMP,right,0.45037238788791,0,,,,,,,,,,,,,,right,0,0.45037238788791,,,,,,,,,,,1064,2019_Mar_13_1500,mf_amp_cond2,3.0.4,59.99859521893446,
pulge,&&&&&&&&&&,None,nonword,simplustic,,,,,,,,,,,,,,,0,100,100,285,,,,,,,,,,,,,AMP,left,0.7671033670485485,0,,,,,,,,,,,,,,left,0,0.7671033670485485,,,,,,,,,,,1064,2019_Mar_13_1500,mf_amp_cond2,3.0.4,59.99859521893446,
scalbel,&&&&&&&&&&&&&,None,nonword,photocalkodes,,,,,,,,,,,,,,,0,101,101,61,,,,,,,,,,,,,AMP,right,0.6004135540861171,0,,,,,,,,,,,,,,right,0,0.6004135540861171,,,,,,,,,,,1064,2019_Mar_13_1500,mf_amp_cond2,3.0.4,59.99859521893446,
failure,&&&&&&&&&,right,loyalty.vice,faspberry,,,,,,,,,,,,,,,0,102,102,257,,,,,,,,,,,,,AMP,left,0.3503448368865065,0,,,,,,,,,,,,,,left,0,0.3503448368865065,,,,,,,,,,,1064,2019_Mar_13_1500,mf_amp_cond2,3.0.4,59.99859521893446,
powerful,&&&&&&&&,left,authority.virtue,bluently,,,,,,,,,,,,,,,0,103,103,129,,,,,,,,,,,,,AMP,right,0.4003119456465356,0,,,,,,,,,,,,,,right,0,0.4003119456465356,,,,,,,,,,,1064,2019_Mar_13_1500,mf_amp_cond2,3.0.4,59.99859521893446,
perfect,&&&&&&&,left,sanctity.virtue,sickyay,,,,,,,,,,,,,,,0,104,104,25,,,,,,,,,,,,,AMP,right,0.43367338593816385,0,,,,,,,,,,,,,,right,0,0.43367338593816385,,,,,,,,,,,1064,2019_Mar_13_1500,mf_amp_cond2,3.0.4,59.99859521893446,
ensure,&&&&&,left,fairness.virtue,touls,,,,,,,,,,,,,,,0,105,105,125,,,,,,,,,,,,,AMP,right,0.4670348262297921,0,,,,,,,,,,,,,,right,0,0.4670348262297921,,,,,,,,,,,1064,2019_Mar_13_1500,mf_amp_cond2,3.0.4,59.99859521893446,
praised,&&&&&&&,left,loyalty.virtue,brudent,,,,,,,,,,,,,,,0,106,106,170,,,,,,,,,,,,,AMP,right,0.3504025689617265,0,,,,,,,,,,,,,,right,0,0.3504025689617265,,,,,,,,,,,1064,2019_Mar_13_1500,mf_amp_cond2,3.0.4,59.99859521893446,
attacks,&&&&&&,right,care.vice,Boeinf,,,,,,,,,,,,,,,0,107,107,275,,,,,,,,,,,,,AMP,left,0.5170580633857753,0,,,,,,,,,,,,,,left,0,0.5170580633857753,,,,,,,,,,,1064,2019_Mar_13_1500,mf_amp_cond2,3.0.4,59.99859521893446,
loyalty,&&&&&,left,loyalty.virtue,mecan,,,,,,,,,,,,,,,0,108,108,323,,,,,,,,,,,,,AMP,right,0.36700695447507314,0,,,,,,,,,,,,,,right,0,0.36700695447507314,,,,,,,,,,,1064,2019_Mar_13_1500,mf_amp_cond2,3.0.4,59.99859521893446,
conspiracy,&&&&,right,sanctity.vice,tove,,,,,,,,,,,,,,,0,109,109,128,,,,,,,,,,,,,AMP,left,0.48370399995474145,0,,,,,,,,,,,,,,left,0,0.48370399995474145,,,,,,,,,,,1064,2019_Mar_13_1500,mf_amp_cond2,3.0.4,59.99859521893446,
unpleasant,&&&&&&&&&&&&,None,control,iptervention,,,,,,,,,,,,,,,0,110,110,94,,,,,,,,,,,,,AMP,left,1.1672424371936359,0,,,,,,,,,,,,,,left,0,1.1672424371936359,,,,,,,,,,,1064,2019_Mar_13_1500,mf_amp_cond2,3.0.4,59.99859521893446,
ban,&&&&&&,right,loyalty.vice,prones,,,,,,,,,,,,,,,0,111,111,232,,,,,,,,,,,,,AMP,left,1.8840999778185505,0,,,,,,,,,,,,,,left,0,1.8840999778185505,,,,,,,,,,,1064,2019_Mar_13_1500,mf_amp_cond2,3.0.4,59.99859521893446,
threatened,&&&&&&&&,right,fairness.vice,lachelor,,,,,,,,,,,,,,,0,112,112,198,,,,,,,,,,,,,AMP,left,0.4169747047126293,0,,,,,,,,,,,,,,left,0,0.4169747047126293,,,,,,,,,,,1064,2019_Mar_13_1500,mf_amp_cond2,3.0.4,59.99859521893446,
dignity,&&&&&&&,left,sanctity.virtue,nomaric,,,,,,,,,,,,,,,0,113,113,311,,,,,,,,,,,,,AMP,right,0.33365577764925547,0,,,,,,,,,,,,,,right,0,0.33365577764925547,,,,,,,,,,,1064,2019_Mar_13_1500,mf_amp_cond2,3.0.4,59.99859521893446,
rebels,&&&&&&&,right,authority.vice,menizen,,,,,,,,,,,,,,,0,114,114,306,,,,,,,,,,,,,AMP,right,0.8338034755142871,1,,,,,,,,,,,,,,right,1,0.8338034755142871,,,,,,,,,,,1064,2019_Mar_13_1500,mf_amp_cond2,3.0.4,59.99859521893446,
compassion,&&&&&,left,care.virtue,touls,,,,,,,,,,,,,,,0,115,115,178,,,,,,,,,,,,,AMP,right,0.8504688004613854,0,,,,,,,,,,,,,,right,0,0.8504688004613854,,,,,,,,,,,1064,2019_Mar_13_1500,mf_amp_cond2,3.0.4,59.99859521893446,
black,&&&&&&&,right,loyalty.vice,chadows,,,,,,,,,,,,,,,0,116,116,164,,,,,,,,,,,,,AMP,right,0.5670527552429121,1,,,,,,,,,,,,,,right,1,0.5670527552429121,,,,,,,,,,,1064,2019_Mar_13_1500,mf_amp_cond2,3.0.4,59.99859521893446,
black,&&&&&&&&&,right,loyalty.vice,grovelire,,,,,,,,,,,,,,,0,117,117,48,,,,,,,,,,,,,AMP,right,0.7171134862001054,1,,,,,,,,,,,,,,right,1,0.7171134862001054,,,,,,,,,,,1064,2019_Mar_13_1500,mf_amp_cond2,3.0.4,59.99859521893446,
threatened,&&&&&&,right,fairness.vice,gikely,,,,,,,,,,,,,,,0,118,118,11,,,,,,,,,,,,,AMP,left,3.1844879694399424,0,,,,,,,,,,,,,,left,0,3.1844879694399424,,,,,,,,,,,1064,2019_Mar_13_1500,mf_amp_cond2,3.0.4,59.99859521893446,
rebels,&&&&&&&&,right,authority.vice,lachelor,,,,,,,,,,,,,,,0,119,119,73,,,,,,,,,,,,,AMP,right,1.3172938668285497,1,,,,,,,,,,,,,,right,1,1.3172938668285497,,,,,,,,,,,1064,2019_Mar_13_1500,mf_amp_cond2,3.0.4,59.99859521893446,
hope,&&&&&&&,left,loyalty.virtue,Loorish,,,,,,,,,,,,,,,0,120,120,280,,,,,,,,,,,,,AMP,right,0.28364665276603773,0,,,,,,,,,,,,,,right,0,0.28364665276603773,,,,,,,,,,,1064,2019_Mar_13_1500,mf_amp_cond2,3.0.4,59.99859521893446,
sharing,&&&&&&&&&,left,loyalty.virtue,reprisols,,,,,,,,,,,,,,,0,121,121,305,,,,,,,,,,,,,AMP,right,0.48369662309414707,0,,,,,,,,,,,,,,right,0,0.48369662309414707,,,,,,,,,,,1064,2019_Mar_13_1500,mf_amp_cond2,3.0.4,59.99859521893446,
compassion,&&&&&&&&&&&&,left,care.virtue,bruthfulness,,,,,,,,,,,,,,,0,122,122,68,,,,,,,,,,,,,AMP,right,0.2669418776058592,0,,,,,,,,,,,,,,right,0,0.2669418776058592,,,,,,,,,,,1064,2019_Mar_13_1500,mf_amp_cond2,3.0.4,59.99859521893446,
forced,&&&&&&&&&&,right,fairness.vice,simplustic,,,,,,,,,,,,,,,0,123,123,115,,,,,,,,,,,,,AMP,right,0.8504870822944213,1,,,,,,,,,,,,,,right,1,0.8504870822944213,,,,,,,,,,,1064,2019_Mar_13_1500,mf_amp_cond2,3.0.4,59.99859521893446,
unpleasant,&&&&&&&,None,control,menizen,,,,,,,,,,,,,,,0,124,124,237,,,,,,,,,,,,,AMP,left,2.1508542262017727,0,,,,,,,,,,,,,,left,0,2.1508542262017727,,,,,,,,,,,1064,2019_Mar_13_1500,mf_amp_cond2,3.0.4,59.99859521893446,
war,&&&&&&&&&,right,sanctity.vice,gaultless,,,,,,,,,,,,,,,0,125,125,98,,,,,,,,,,,,,AMP,left,0.28363574782270007,0,,,,,,,,,,,,,,left,0,0.28363574782270007,,,,,,,,,,,1064,2019_Mar_13_1500,mf_amp_cond2,3.0.4,59.99859521893446,
improve,&&&&&,left,care.virtue,infet,,,,,,,,,,,,,,,0,126,126,54,,,,,,,,,,,,,AMP,right,0.4170051743858494,0,,,,,,,,,,,,,,right,0,0.4170051743858494,,,,,,,,,,,1064,2019_Mar_13_1500,mf_amp_cond2,3.0.4,59.99859521893446,
lursuer,&&&&&&&&&,None,nonword,disregord,,,,,,,,,,,,,,,0,127,127,89,,,,,,,,,,,,,AMP,right,0.6504310180316679,0,,,,,,,,,,,,,,right,0,0.6504310180316679,,,,,,,,,,,1064,2019_Mar_13_1500,mf_amp_cond2,3.0.4,59.99859521893446,
forced,&&&&&,right,fairness.vice,leact,,,,,,,,,,,,,,,0,128,128,250,,,,,,,,,,,,,AMP,left,0.38369505148148164,0,,,,,,,,,,,,,,left,0,0.38369505148148164,,,,,,,,,,,1064,2019_Mar_13_1500,mf_amp_cond2,3.0.4,59.99859521893446,
restore,&&&&&,left,care.virtue,framo,,,,,,,,,,,,,,,0,129,129,78,,,,,,,,,,,,,AMP,right,0.33367726678261533,0,,,,,,,,,,,,,,right,0,0.33367726678261533,,,,,,,,,,,1064,2019_Mar_13_1500,mf_amp_cond2,3.0.4,59.99859521893446,
critics,&&&&&&&&&,right,loyalty.vice,discovars,,,,,,,,,,,,,,,0,130,130,304,,,,,,,,,,,,,AMP,left,1.2339342065970413,0,,,,,,,,,,,,,,left,0,1.2339342065970413,,,,,,,,,,,1064,2019_Mar_13_1500,mf_amp_cond2,3.0.4,59.99859521893446,
forced,&&&&&&&&&&&&,right,fairness.vice,unreflectuve,,,,,,,,,,,,,,,0,131,131,67,,,,,,,,,,,,,AMP,left,1.6173871041100938,0,,,,,,,,,,,,,,left,0,1.6173871041100938,,,,,,,,,,,1064,2019_Mar_13_1500,mf_amp_cond2,3.0.4,59.99859521893446,
credit,&&&&&&,left,fairness.virtue,erdest,,,,,,,,,,,,,,,0,132,132,117,,,,,,,,,,,,,AMP,right,0.30033378759981133,0,,,,,,,,,,,,,,right,0,0.30033378759981133,,,,,,,,,,,1064,2019_Mar_13_1500,mf_amp_cond2,3.0.4,59.99859521893446,
suicide,&&&&&,right,care.vice,viscs,,,,,,,,,,,,,,,0,133,133,202,,,,,,,,,,,,,AMP,left,0.31699366006068885,0,,,,,,,,,,,,,,left,0,0.31699366006068885,,,,,,,,,,,1064,2019_Mar_13_1500,mf_amp_cond2,3.0.4,59.99859521893446,
friends,&&&&&&&&&,left,loyalty.virtue,tomedians,,,,,,,,,,,,,,,0,134,134,199,,,,,,,,,,,,,AMP,right,0.5337233883037698,0,,,,,,,,,,,,,,right,0,0.5337233883037698,,,,,,,,,,,1064,2019_Mar_13_1500,mf_amp_cond2,3.0.4,59.99859521893446,
progress,&&&&&&&&,left,authority.virtue,thabbily,,,,,,,,,,,,,,,0,135,135,213,,,,,,,,,,,,,AMP,right,0.3002956202835776,0,,,,,,,,,,,,,,right,0,0.3002956202835776,,,,,,,,,,,1064,2019_Mar_13_1500,mf_amp_cond2,3.0.4,59.99859521893446,
hope,&&&&&&&&&,left,loyalty.virtue,tomedians,,,,,,,,,,,,,,,0,136,136,133,,,,,,,,,,,,,AMP,right,0.3169837173190899,0,,,,,,,,,,,,,,right,0,0.3169837173190899,,,,,,,,,,,1064,2019_Mar_13_1500,mf_amp_cond2,3.0.4,59.99859521893446,
fair,&&&&&&&,left,fairness.virtue,nomaric,,,,,,,,,,,,,,,0,137,137,34,,,,,,,,,,,,,AMP,right,0.3836700342653785,0,,,,,,,,,,,,,,right,0,0.3836700342653785,,,,,,,,,,,1064,2019_Mar_13_1500,mf_amp_cond2,3.0.4,59.99859521893446,
prison,&&&&&,right,fairness.vice,viscs,,,,,,,,,,,,,,,0,138,138,251,,,,,,,,,,,,,AMP,left,0.4670341847813688,0,,,,,,,,,,,,,,left,0,0.4670341847813688,,,,,,,,,,,1064,2019_Mar_13_1500,mf_amp_cond2,3.0.4,59.99859521893446,
safety,&&&&&&&&&,left,care.virtue,crilfully,,,,,,,,,,,,,,,0,139,139,201,,,,,,,,,,,,,AMP,right,0.31698852832778357,0,,,,,,,,,,,,,,right,0,0.31698852832778357,,,,,,,,,,,1064,2019_Mar_13_1500,mf_amp_cond2,3.0.4,59.99859521893446,
embrace,&&&&,left,authority.virtue,erks,,,,,,,,,,,,,,,0,140,140,140,,,,,,,,,,,,,AMP,right,1.0171807440638077,0,,,,,,,,,,,,,,right,0,1.0171807440638077,,,,,,,,,,,1064,2019_Mar_13_1500,mf_amp_cond2,3.0.4,59.99859521893446,
papert,&&&&&,None,nonword,leact,,,,,,,,,,,,,,,0,141,141,169,,,,,,,,,,,,,AMP,left,0.6337528637377545,0,,,,,,,,,,,,,,left,0,0.6337528637377545,,,,,,,,,,,1064,2019_Mar_13_1500,mf_amp_cond2,3.0.4,59.99859521893446,
critics,&&&&&,right,loyalty.vice,leact,,,,,,,,,,,,,,,0,142,142,6,,,,,,,,,,,,,AMP,right,0.5170503657718655,1,,,,,,,,,,,,,,right,1,0.5170503657718655,,,,,,,,,,,1064,2019_Mar_13_1500,mf_amp_cond2,3.0.4,59.99859521893446,
credit,&&&&&&&,left,fairness.virtue,carvels,,,,,,,,,,,,,,,0,143,143,42,,,,,,,,,,,,,AMP,right,0.3670239533530548,0,,,,,,,,,,,,,,right,0,0.3670239533530548,,,,,,,,,,,1064,2019_Mar_13_1500,mf_amp_cond2,3.0.4,59.99859521893446,
health,&&&&&&&&,left,care.virtue,emassion,,,,,,,,,,,,,,,0,144,144,14,,,,,,,,,,,,,AMP,right,0.5837636243668385,0,,,,,,,,,,,,,,right,0,0.5837636243668385,,,,,,,,,,,1064,2019_Mar_13_1500,mf_amp_cond2,3.0.4,59.99859521893446,
energy,&&&&&&&&&&,left,sanctity.virtue,reelectiob,,,,,,,,,,,,,,,0,145,145,155,,,,,,,,,,,,,AMP,right,0.7171227874641772,0,,,,,,,,,,,,,,right,0,0.7171227874641772,,,,,,,,,,,1064,2019_Mar_13_1500,mf_amp_cond2,3.0.4,59.99859521893446,
great,&&&&&&,left,loyalty.virtue,chared,,,,,,,,,,,,,,,0,146,146,143,,,,,,,,,,,,,AMP,right,0.2503358884132467,0,,,,,,,,,,,,,,right,0,0.2503358884132467,,,,,,,,,,,1064,2019_Mar_13_1500,mf_amp_cond2,3.0.4,59.99859521893446,
lenon,&&&&&&,None,nonword,sonvoy,,,,,,,,,,,,,,,0,147,147,102,,,,,,,,,,,,,AMP,right,0.48371586709981784,0,,,,,,,,,,,,,,right,0,0.48371586709981784,,,,,,,,,,,1064,2019_Mar_13_1500,mf_amp_cond2,3.0.4,59.99859521893446,
loyalty,&&&&&&&,left,loyalty.virtue,menizen,,,,,,,,,,,,,,,0,148,148,71,,,,,,,,,,,,,AMP,right,0.5837780573929194,0,,,,,,,,,,,,,,right,0,0.5837780573929194,,,,,,,,,,,1064,2019_Mar_13_1500,mf_amp_cond2,3.0.4,59.99859521893446,
black,&&&&&,right,loyalty.vice,aubos,,,,,,,,,,,,,,,0,149,149,150,,,,,,,,,,,,,AMP,right,0.5503928827820346,1,,,,,,,,,,,,,,right,1,0.5503928827820346,,,,,,,,,,,1064,2019_Mar_13_1500,mf_amp_cond2,3.0.4,59.99859521893446,
victims,&&&&&&&,right,care.vice,sickyay,,,,,,,,,,,,,,,0,150,150,221,,,,,,,,,,,,,AMP,right,0.4170006841304712,1,,,,,,,,,,,,,,right,1,0.4170006841304712,,,,,,,,,,,1064,2019_Mar_13_1500,mf_amp_cond2,3.0.4,59.99859521893446,
fair,&&&&&&&&&&&&&,left,fairness.virtue,idexpressible,,,,,,,,,,,,,,,0,151,151,137,,,,,,,,,,,,,AMP,right,0.5337358969263732,0,,,,,,,,,,,,,,right,0,0.5337358969263732,,,,,,,,,,,1064,2019_Mar_13_1500,mf_amp_cond2,3.0.4,59.99859521893446,
faith,&&&&&&&,left,sanctity.virtue,troubla,,,,,,,,,,,,,,,0,152,152,33,,,,,,,,,,,,,AMP,right,0.5670598113792948,0,,,,,,,,,,,,,,right,0,0.5670598113792948,,,,,,,,,,,1064,2019_Mar_13_1500,mf_amp_cond2,3.0.4,59.99859521893446,
hope,&&&&,left,loyalty.virtue,yane,,,,,,,,,,,,,,,0,153,153,215,,,,,,,,,,,,,AMP,right,0.6504739963565953,0,,,,,,,,,,,,,,right,0,0.6504739963565953,,,,,,,,,,,1064,2019_Mar_13_1500,mf_amp_cond2,3.0.4,59.99859521893446,
forced,&&&&&&,right,fairness.vice,chared,,,,,,,,,,,,,,,0,154,154,222,,,,,,,,,,,,,AMP,right,1.0005587181658484,1,,,,,,,,,,,,,,right,1,1.0005587181658484,,,,,,,,,,,1064,2019_Mar_13_1500,mf_amp_cond2,3.0.4,59.99859521893446,
pleasant,&&&&&&&&&,None,control,disregord,,,,,,,,,,,,,,,0,155,155,236,,,,,,,,,,,,,AMP,right,0.3836969758849591,0,,,,,,,,,,,,,,right,0,0.3836969758849591,,,,,,,,,,,1064,2019_Mar_13_1500,mf_amp_cond2,3.0.4,59.99859521893446,
strong,&&&&&&&&,left,loyalty.virtue,drumbled,,,,,,,,,,,,,,,0,156,156,255,,,,,,,,,,,,,AMP,right,0.43369712022831663,0,,,,,,,,,,,,,,right,0,0.43369712022831663,,,,,,,,,,,1064,2019_Mar_13_1500,mf_amp_cond2,3.0.4,59.99859521893446,
abuse,&&&&&,right,sanctity.vice,mecan,,,,,,,,,,,,,,,0,157,157,59,,,,,,,,,,,,,AMP,left,0.5669363289198373,0,,,,,,,,,,,,,,left,0,0.5669363289198373,,,,,,,,,,,1064,2019_Mar_13_1500,mf_amp_cond2,3.0.4,59.99859521893446,
faith,&&&&&&&&&&&&,left,sanctity.virtue,unreflectuve,,,,,,,,,,,,,,,0,158,158,84,,,,,,,,,,,,,AMP,right,0.36699797393521294,0,,,,,,,,,,,,,,right,0,0.36699797393521294,,,,,,,,,,,1064,2019_Mar_13_1500,mf_amp_cond2,3.0.4,59.99859521893446,
nonobservalt,&&&&&&&&&&&,None,nonword,sowntrodden,,,,,,,,,,,,,,,0,159,159,260,,,,,,,,,,,,,AMP,left,1.6507219235354569,0,,,,,,,,,,,,,,left,0,1.6507219235354569,,,,,,,,,,,1064,2019_Mar_13_1500,mf_amp_cond2,3.0.4,59.99859521893446,
safety,&&&&&&&&,left,care.virtue,perified,,,,,,,,,,,,,,,0,160,160,154,,,,,,,,,,,,,AMP,right,0.2836248428793624,0,,,,,,,,,,,,,,right,0,0.2836248428793624,,,,,,,,,,,1064,2019_Mar_13_1500,mf_amp_cond2,3.0.4,59.99859521893446,
friends,&&&&&&&&&&&&&,left,loyalty.virtue,wonderfujnoss,,,,,,,,,,,,,,,0,161,161,55,,,,,,,,,,,,,AMP,right,0.3670483291207347,0,,,,,,,,,,,,,,right,0,0.3670483291207347,,,,,,,,,,,1064,2019_Mar_13_1500,mf_amp_cond2,3.0.4,59.99859521893446,
great,&&&&&&&&&&&&,left,loyalty.virtue,edancipation,,,,,,,,,,,,,,,0,162,162,287,,,,,,,,,,,,,AMP,right,0.30030588374938816,0,,,,,,,,,,,,,,right,0,0.30030588374938816,,,,,,,,,,,1064,2019_Mar_13_1500,mf_amp_cond2,3.0.4,59.99859521893446,
freedom,&&&&&&&&&&,left,sanctity.virtue,frojecting,,,,,,,,,,,,,,,0,163,163,325,,,,,,,,,,,,,AMP,right,0.6504079251899384,0,,,,,,,,,,,,,,right,0,0.6504079251899384,,,,,,,,,,,1064,2019_Mar_13_1500,mf_amp_cond2,3.0.4,59.99859521893446,
pulge,&&&&&,None,nonword,hasks,,,,,,,,,,,,,,,0,164,164,116,,,,,,,,,,,,,AMP,right,0.3503538173972629,0,,,,,,,,,,,,,,right,0,0.3503538173972629,,,,,,,,,,,1064,2019_Mar_13_1500,mf_amp_cond2,3.0.4,59.99859521893446,
serial,&&&&&&,right,sanctity.vice,Boeinf,,,,,,,,,,,,,,,0,165,165,120,,,,,,,,,,,,,AMP,right,0.5336149803188164,1,,,,,,,,,,,,,,right,1,0.5336149803188164,,,,,,,,,,,1064,2019_Mar_13_1500,mf_amp_cond2,3.0.4,59.99859521893446,
suicide,&&&&&&&,right,care.vice,nomaric,,,,,,,,,,,,,,,0,166,166,136,,,,,,,,,,,,,AMP,left,0.400325416441774,0,,,,,,,,,,,,,,left,0,0.400325416441774,,,,,,,,,,,1064,2019_Mar_13_1500,mf_amp_cond2,3.0.4,59.99859521893446,
ugeasily,&&&&&&&&&&&,None,nonword,ronviolence,,,,,,,,,,,,,,,0,167,167,319,,,,,,,,,,,,,AMP,left,0.567071037075948,0,,,,,,,,,,,,,,left,0,0.567071037075948,,,,,,,,,,,1064,2019_Mar_13_1500,mf_amp_cond2,3.0.4,59.99859521893446,
charges,&&&&&&&&&,right,fairness.vice,metibolic,,,,,,,,,,,,,,,0,168,168,273,,,,,,,,,,,,,AMP,left,0.35031981964129955,0,,,,,,,,,,,,,,left,0,0.35031981964129955,,,,,,,,,,,1064,2019_Mar_13_1500,mf_amp_cond2,3.0.4,59.99859521893446,
sexual,&&&&&&&&&&&&&,right,sanctity.vice,wonderfujnoss,,,,,,,,,,,,,,,0,169,169,254,,,,,,,,,,,,,AMP,right,0.8505027982464526,1,,,,,,,,,,,,,,right,1,0.8505027982464526,,,,,,,,,,,1064,2019_Mar_13_1500,mf_amp_cond2,3.0.4,59.99859521893446,
friends,&&&&&&,left,loyalty.virtue,gikely,,,,,,,,,,,,,,,0,170,170,100,,,,,,,,,,,,,AMP,right,0.8337826278293505,0,,,,,,,,,,,,,,right,0,0.8337826278293505,,,,,,,,,,,1064,2019_Mar_13_1500,mf_amp_cond2,3.0.4,59.99859521893446,
prison,&&&&&&&&&,right,fairness.vice,gondensed,,,,,,,,,,,,,,,0,171,171,96,,,,,,,,,,,,,AMP,left,0.5170843635569327,0,,,,,,,,,,,,,,left,0,0.5170843635569327,,,,,,,,,,,1064,2019_Mar_13_1500,mf_amp_cond2,3.0.4,59.99859521893446,
crime,&&&&&&&&&&&&,right,fairness.vice,quarterbocks,,,,,,,,,,,,,,,0,172,172,101,,,,,,,,,,,,,AMP,left,1.333954701491166,0,,,,,,,,,,,,,,left,0,1.333954701491166,,,,,,,,,,,1064,2019_Mar_13_1500,mf_amp_cond2,3.0.4,59.99859521893446,
abuse,&&&&&&&&&&&&&,right,sanctity.vice,wonderfujnoss,,,,,,,,,,,,,,,0,173,173,142,,,,,,,,,,,,,AMP,left,1.5506950139533728,0,,,,,,,,,,,,,,left,0,1.5506950139533728,,,,,,,,,,,1064,2019_Mar_13_1500,mf_amp_cond2,3.0.4,59.99859521893446,
refused,&&&&&&&&&,right,authority.vice,reprisols,,,,,,,,,,,,,,,0,174,174,109,,,,,,,,,,,,,AMP,left,0.7337865087029058,0,,,,,,,,,,,,,,left,0,0.7337865087029058,,,,,,,,,,,1064,2019_Mar_13_1500,mf_amp_cond2,3.0.4,59.99859521893446,
values,&&&&&&&&&&&&,left,sanctity.virtue,iptervention,,,,,,,,,,,,,,,0,175,175,47,,,,,,,,,,,,,AMP,right,0.8504668760579079,0,,,,,,,,,,,,,,right,0,0.8504668760579079,,,,,,,,,,,1064,2019_Mar_13_1500,mf_amp_cond2,3.0.4,59.99859521893446,
promises,&&&&&,left,fairness.virtue,saned,,,,,,,,,,,,,,,0,176,176,234,,,,,,,,,,,,,AMP,right,0.8338009096914902,0,,,,,,,,,,,,,,right,0,0.8338009096914902,,,,,,,,,,,1064,2019_Mar_13_1500,mf_amp_cond2,3.0.4,59.99859521893446,
pharing,&&&&&&&&&&,None,nonword,elduringly,,,,,,,,,,,,,,,0,177,177,90,,,,,,,,,,,,,AMP,right,0.7836496997624636,0,,,,,,,,,,,,,,right,0,0.7836496997624636,,,,,,,,,,,1064,2019_Mar_13_1500,mf_amp_cond2,3.0.4,59.99859521893446,
black,&&&&&,right,loyalty.vice,saned,,,,,,,,,,,,,,,0,178,178,296,,,,,,,,,,,,,AMP,right,0.3836597707704641,1,,,,,,,,,,,,,,right,1,0.3836597707704641,,,,,,,,,,,1064,2019_Mar_13_1500,mf_amp_cond2,3.0.4,59.99859521893446,
rebels,&&&&&&&&&,right,authority.vice,metibolic,,,,,,,,,,,,,,,0,179,179,110,,,,,,,,,,,,,AMP,right,2.167529493861366,1,,,,,,,,,,,,,,right,1,2.167529493861366,,,,,,,,,,,1064,2019_Mar_13_1500,mf_amp_cond2,3.0.4,59.99859521893446,
violence,&&&&&&&&&&&,right,care.vice,shoirmaster,,,,,,,,,,,,,,,0,180,180,146,,,,,,,,,,,,,AMP,left,2.0008047209412325,0,,,,,,,,,,,,,,left,0,2.0008047209412325,,,,,,,,,,,1064,2019_Mar_13_1500,mf_amp_cond2,3.0.4,59.99859521893446,
compassion,&&&&&,left,care.virtue,infet,,,,,,,,,,,,,,,0,181,181,289,,,,,,,,,,,,,AMP,right,0.25028777835541405,0,,,,,,,,,,,,,,right,0,0.25028777835541405,,,,,,,,,,,1064,2019_Mar_13_1500,mf_amp_cond2,3.0.4,59.99859521893446,
dignity,&&&&&&&&,left,sanctity.virtue,suggists,,,,,,,,,,,,,,,0,182,182,158,,,,,,,,,,,,,AMP,right,3.3011927125335205,0,,,,,,,,,,,,,,right,0,3.3011927125335205,,,,,,,,,,,1064,2019_Mar_13_1500,mf_amp_cond2,3.0.4,59.99859521893446,
lursuer,&&&&&&,None,nonword,Boeinf,,,,,,,,,,,,,,,0,183,183,44,,,,,,,,,,,,,AMP,right,0.4670441274938639,0,,,,,,,,,,,,,,right,0,0.4670441274938639,,,,,,,,,,,1064,2019_Mar_13_1500,mf_amp_cond2,3.0.4,59.99859521893446,
embrace,&&&&&&&&&,left,authority.virtue,tomedians,,,,,,,,,,,,,,,0,184,184,60,,,,,,,,,,,,,AMP,right,0.21682370326016098,0,,,,,,,,,,,,,,right,0,0.21682370326016098,,,,,,,,,,,1064,2019_Mar_13_1500,mf_amp_cond2,3.0.4,59.99859521893446,
riot,&&&&&&&&&&,right,authority.vice,elduringly,,,,,,,,,,,,,,,0,185,185,167,,,,,,,,,,,,,AMP,left,0.30033250467386097,0,,,,,,,,,,,,,,left,0,0.30033250467386097,,,,,,,,,,,1064,2019_Mar_13_1500,mf_amp_cond2,3.0.4,59.99859521893446,
promises,&&&&&&&&&&,left,fairness.virtue,neutralust,,,,,,,,,,,,,,,0,186,186,7,,,,,,,,,,,,,AMP,right,0.2169770139735192,0,,,,,,,,,,,,,,right,0,0.2169770139735192,,,,,,,,,,,1064,2019_Mar_13_1500,mf_amp_cond2,3.0.4,59.99859521893446,
health,&&&&&,left,care.virtue,ablow,,,,,,,,,,,,,,,0,187,187,283,,,,,,,,,,,,,AMP,right,0.2836543503799476,0,,,,,,,,,,,,,,right,0,0.2836543503799476,,,,,,,,,,,1064,2019_Mar_13_1500,mf_amp_cond2,3.0.4,59.99859521893446,
improve,&&&&&&&&,left,care.virtue,emassion,,,,,,,,,,,,,,,0,188,188,124,,,,,,,,,,,,,AMP,right,0.3669873897160869,0,,,,,,,,,,,,,,right,0,0.3669873897160869,,,,,,,,,,,1064,2019_Mar_13_1500,mf_amp_cond2,3.0.4,59.99859521893446,
war,&&&&&&&&&&&&,right,sanctity.vice,quarterbocks,,,,,,,,,,,,,,,0,189,189,284,,,,,,,,,,,,,AMP,left,0.48369341576471925,0,,,,,,,,,,,,,,left,0,0.48369341576471925,,,,,,,,,,,1064,2019_Mar_13_1500,mf_amp_cond2,3.0.4,59.99859521893446,
terrorist,&&&&&&&,right,loyalty.vice,allears,,,,,,,,,,,,,,,0,190,190,81,,,,,,,,,,,,,AMP,left,0.6004020076652523,0,,,,,,,,,,,,,,left,0,0.6004020076652523,,,,,,,,,,,1064,2019_Mar_13_1500,mf_amp_cond2,3.0.4,59.99859521893446,
rebels,&&&&&&&&&&,right,authority.vice,lorthwhile,,,,,,,,,,,,,,,0,191,191,204,,,,,,,,,,,,,AMP,left,0.8837920734367799,0,,,,,,,,,,,,,,left,0,0.8837920734367799,,,,,,,,,,,1064,2019_Mar_13_1500,mf_amp_cond2,3.0.4,59.99859521893446,
ban,&&&&&&&&&,right,loyalty.vice,gondensed,,,,,,,,,,,,,,,0,192,192,256,,,,,,,,,,,,,AMP,left,0.450376878172392,0,,,,,,,,,,,,,,left,0,0.450376878172392,,,,,,,,,,,1064,2019_Mar_13_1500,mf_amp_cond2,3.0.4,59.99859521893446,
terrorists,&&&&&&&&&,right,fairness.vice,tomedians,,,,,,,,,,,,,,,0,193,193,247,,,,,,,,,,,,,AMP,left,0.2669733095099218,0,,,,,,,,,,,,,,left,0,0.2669733095099218,,,,,,,,,,,1064,2019_Mar_13_1500,mf_amp_cond2,3.0.4,59.99859521893446,
actively,&&&&&&&&,left,authority.virtue,thabbily,,,,,,,,,,,,,,,0,194,194,297,,,,,,,,,,,,,AMP,right,0.35036440164549276,0,,,,,,,,,,,,,,right,0,0.35036440164549276,,,,,,,,,,,1064,2019_Mar_13_1500,mf_amp_cond2,3.0.4,59.99859521893446,
pulge,&&&&,None,nonword,juck,,,,,,,,,,,,,,,0,195,195,240,,,,,,,,,,,,,AMP,left,0.6170862558647059,0,,,,,,,,,,,,,,left,0,0.6170862558647059,,,,,,,,,,,1064,2019_Mar_13_1500,mf_amp_cond2,3.0.4,59.99859521893446,
energy,&&&&&&&&&,left,sanctity.virtue,crilfully,,,,,,,,,,,,,,,0,196,196,248,,,,,,,,,,,,,AMP,right,0.7671405721339397,0,,,,,,,,,,,,,,right,0,0.7671405721339397,,,,,,,,,,,1064,2019_Mar_13_1500,mf_amp_cond2,3.0.4,59.99859521893446,
praised,&&&&&&&&&&,left,loyalty.virtue,lorthwhile,,,,,,,,,,,,,,,0,197,197,70,,,,,,,,,,,,,AMP,right,0.41702056961366907,0,,,,,,,,,,,,,,right,0,0.41702056961366907,,,,,,,,,,,1064,2019_Mar_13_1500,mf_amp_cond2,3.0.4,59.99859521893446,
sexual,&&&&&,right,sanctity.vice,viscs,,,,,,,,,,,,,,,0,198,198,30,,,,,,,,,,,,,AMP,right,0.45037335008964874,1,,,,,,,,,,,,,,right,1,0.45037335008964874,,,,,,,,,,,1064,2019_Mar_13_1500,mf_amp_cond2,3.0.4,59.99859521893446,
conspiracy,&&&&&&&&&,right,sanctity.vice,gillipede,,,,,,,,,,,,,,,0,199,199,24,,,,,,,,,,,,,AMP,left,0.3670082374010235,0,,,,,,,,,,,,,,left,0,0.3670082374010235,,,,,,,,,,,1064,2019_Mar_13_1500,mf_amp_cond2,3.0.4,59.99859521893446,
arrests,&&&&,right,authority.vice,coom,,,,,,,,,,,,,,,0,200,200,171,,,,,,,,,,,,,AMP,right,0.30030043129227124,1,,,,,,,,,,,,,,right,1,0.30030043129227124,,,,,,,,,,,1064,2019_Mar_13_1500,mf_amp_cond2,3.0.4,59.99859521893446,
values,&&&&&&,left,sanctity.virtue,forepo,,,,,,,,,,,,,,,0,201,201,149,,,,,,,,,,,,,AMP,left,0.8004696183197666,1,,,,,,,,,,,,,,left,1,0.8004696183197666,,,,,,,,,,,1064,2019_Mar_13_1500,mf_amp_cond2,3.0.4,59.99859521893446,
promises,&&&&&&&&&&&&,left,fairness.virtue,unreflectuve,,,,,,,,,,,,,,,0,202,202,301,,,,,,,,,,,,,AMP,right,0.6837870058370754,0,,,,,,,,,,,,,,right,0,0.6837870058370754,,,,,,,,,,,1064,2019_Mar_13_1500,mf_amp_cond2,3.0.4,59.99859521893446,
loyalty,&&&&&&&,left,loyalty.virtue,brudent,,,,,,,,,,,,,,,0,203,203,134,,,,,,,,,,,,,AMP,right,1.4006779028277379,0,,,,,,,,,,,,,,right,0,1.4006779028277379,,,,,,,,,,,1064,2019_Mar_13_1500,mf_amp_cond2,3.0.4,59.99859521893446,
papert,&&&&&&&,None,nonword,chadows,,,,,,,,,,,,,,,0,204,204,138,,,,,,,,,,,,,AMP,right,1.5506930895789992,0,,,,,,,,,,,,,,right,0,1.5506930895789992,,,,,,,,,,,1064,2019_Mar_13_1500,mf_amp_cond2,3.0.4,59.99859521893446,
serial,&&&&&&,right,sanctity.vice,chared,,,,,,,,,,,,,,,0,205,205,303,,,,,,,,,,,,,AMP,left,0.4670280908467248,0,,,,,,,,,,,,,,left,0,0.4670280908467248,,,,,,,,,,,1064,2019_Mar_13_1500,mf_amp_cond2,3.0.4,59.99859521893446,
terrorist,&&&&&&&&&,right,loyalty.vice,metibolic,,,,,,,,,,,,,,,0,206,206,172,,,,,,,,,,,,,AMP,right,0.25030638091266155,1,,,,,,,,,,,,,,right,1,0.25030638091266155,,,,,,,,,,,1064,2019_Mar_13_1500,mf_amp_cond2,3.0.4,59.99859521893446,
men,&&&&&&&&,right,loyalty.vice,crinking,,,,,,,,,,,,,,,0,207,207,176,,,,,,,,,,,,,AMP,left,0.9505008417763747,0,,,,,,,,,,,,,,left,0,0.9505008417763747,,,,,,,,,,,1064,2019_Mar_13_1500,mf_amp_cond2,3.0.4,59.99859521893446,
terrorists,&&&&&&&&&&&,right,fairness.vice,ilportation,,,,,,,,,,,,,,,0,208,208,219,,,,,,,,,,,,,AMP,left,0.3003276936360635,0,,,,,,,,,,,,,,left,0,0.3003276936360635,,,,,,,,,,,1064,2019_Mar_13_1500,mf_amp_cond2,3.0.4,59.99859521893446,
honored,&&&&&&&&,left,authority.virtue,lachelor,,,,,,,,,,,,,,,0,209,209,282,,,,,,,,,,,,,AMP,right,0.28366140654543415,0,,,,,,,,,,,,,,right,0,0.28366140654543415,,,,,,,,,,,1064,2019_Mar_13_1500,mf_amp_cond2,3.0.4,59.99859521893446,
energy,&&&&&&&,left,sanctity.virtue,baklara,,,,,,,,,,,,,,,0,210,210,173,,,,,,,,,,,,,AMP,left,0.28364536984008737,1,,,,,,,,,,,,,,left,1,0.28364536984008737,,,,,,,,,,,1064,2019_Mar_13_1500,mf_amp_cond2,3.0.4,59.99859521893446,
gun,&&&&&,right,authority.vice,pafer,,,,,,,,,,,,,,,0,211,211,225,,,,,,,,,,,,,AMP,left,0.33365834353026,0,,,,,,,,,,,,,,left,0,0.33365834353026,,,,,,,,,,,1064,2019_Mar_13_1500,mf_amp_cond2,3.0.4,59.99859521893446,
threatened,&&&&&&,right,fairness.vice,prones,,,,,,,,,,,,,,,0,212,212,288,,,,,,,,,,,,,AMP,left,0.31698820760357194,0,,,,,,,,,,,,,,left,0,0.31698820760357194,,,,,,,,,,,1064,2019_Mar_13_1500,mf_amp_cond2,3.0.4,59.99859521893446,
violations,&&&&&&&&&&&&,right,sanctity.vice,quarterbocks,,,,,,,,,,,,,,,0,213,213,195,,,,,,,,,,,,,AMP,left,0.2503067016368732,0,,,,,,,,,,,,,,left,0,0.2503067016368732,,,,,,,,,,,1064,2019_Mar_13_1500,mf_amp_cond2,3.0.4,59.99859521893446,
prosecution,&&&&&&&,right,authority.vice,allears,,,,,,,,,,,,,,,0,214,214,132,,,,,,,,,,,,,AMP,left,0.25030926751787774,0,,,,,,,,,,,,,,left,0,0.25030926751787774,,,,,,,,,,,1064,2019_Mar_13_1500,mf_amp_cond2,3.0.4,59.99859521893446,
arrests,&&&,right,authority.vice,mih,,,,,,,,,,,,,,,0,215,215,322,,,,,,,,,,,,,AMP,left,0.21695039307815023,0,,,,,,,,,,,,,,left,0,0.21695039307815023,,,,,,,,,,,1064,2019_Mar_13_1500,mf_amp_cond2,3.0.4,59.99859521893446,
gazily,&&&&,None,nonword,coom,,,,,,,,,,,,,,,0,216,216,19,,,,,,,,,,,,,AMP,left,0.5837341168662533,0,,,,,,,,,,,,,,left,0,0.5837341168662533,,,,,,,,,,,1064,2019_Mar_13_1500,mf_amp_cond2,3.0.4,59.99859521893446,
improve,&&&&,left,care.virtue,yane,,,,,,,,,,,,,,,0,217,217,308,,,,,,,,,,,,,AMP,right,0.25030124917975627,0,,,,,,,,,,,,,,right,0,0.25030124917975627,,,,,,,,,,,1064,2019_Mar_13_1500,mf_amp_cond2,3.0.4,59.99859521893446,
riot,&&&&&&&&&&,right,authority.vice,neutralust,,,,,,,,,,,,,,,0,218,218,327,,,,,,,,,,,,,AMP,left,1.200603236007737,0,,,,,,,,,,,,,,left,0,1.200603236007737,,,,,,,,,,,1064,2019_Mar_13_1500,mf_amp_cond2,3.0.4,59.99859521893446,
prosecution,&&&&&&,right,authority.vice,erdest,,,,,,,,,,,,,,,0,219,219,209,,,,,,,,,,,,,AMP,left,0.833807324321242,0,,,,,,,,,,,,,,left,0,0.833807324321242,,,,,,,,,,,1064,2019_Mar_13_1500,mf_amp_cond2,3.0.4,59.99859521893446,
dignity,&&&&&&,left,sanctity.virtue,prones,,,,,,,,,,,,,,,0,220,220,2,,,,,,,,,,,,,AMP,right,0.45036565250484273,0,,,,,,,,,,,,,,right,0,0.45036565250484273,,,,,,,,,,,1064,2019_Mar_13_1500,mf_amp_cond2,3.0.4,59.99859521893446,
sexual,&&&&&&&,right,sanctity.vice,nackers,,,,,,,,,,,,,,,0,221,221,121,,,,,,,,,,,,,AMP,left,0.266976196115138,0,,,,,,,,,,,,,,left,0,0.266976196115138,,,,,,,,,,,1064,2019_Mar_13_1500,mf_amp_cond2,3.0.4,59.99859521893446,
hope,&&&&,left,loyalty.virtue,juck,,,,,,,,,,,,,,,0,222,222,1,,,,,,,,,,,,,AMP,right,0.46704637265065685,0,,,,,,,,,,,,,,right,0,0.46704637265065685,,,,,,,,,,,1064,2019_Mar_13_1500,mf_amp_cond2,3.0.4,59.99859521893446,
respect,&&&&&&&&&&&,left,sanctity.virtue,egpeditious,,,,,,,,,,,,,,,0,223,223,160,,,,,,,,,,,,,AMP,right,0.3670082374010235,0,,,,,,,,,,,,,,right,0,0.3670082374010235,,,,,,,,,,,1064,2019_Mar_13_1500,mf_amp_cond2,3.0.4,59.99859521893446,
gazily,&&&&&&,None,nonword,sonvoy,,,,,,,,,,,,,,,0,224,224,326,,,,,,,,,,,,,AMP,right,1.0005260033358354,0,,,,,,,,,,,,,,right,0,1.0005260033358354,,,,,,,,,,,1064,2019_Mar_13_1500,mf_amp_cond2,3.0.4,59.99859521893446,
betrayal,&&&&&&&,right,loyalty.vice,Loorish,,,,,,,,,,,,,,,0,225,225,4,,,,,,,,,,,,,AMP,left,0.3836716379446443,0,,,,,,,,,,,,,,left,0,0.3836716379446443,,,,,,,,,,,1064,2019_Mar_13_1500,mf_amp_cond2,3.0.4,59.99859521893446,
perfect,&&&&&,left,sanctity.virtue,mecan,,,,,,,,,,,,,,,0,226,226,97,,,,,,,,,,,,,AMP,left,2.4342667433375027,1,,,,,,,,,,,,,,left,1,2.4342667433375027,,,,,,,,,,,1064,2019_Mar_13_1500,mf_amp_cond2,3.0.4,59.99859521893446,
conspiracy,&&&&&&&&&,right,sanctity.vice,discovars,,,,,,,,,,,,,,,0,227,227,227,,,,,,,,,,,,,AMP,left,1.1171778253628872,0,,,,,,,,,,,,,,left,0,1.1171778253628872,,,,,,,,,,,1064,2019_Mar_13_1500,mf_amp_cond2,3.0.4,59.99859521893446,
rejected,&&&&&,right,authority.vice,saned,,,,,,,,,,,,,,,0,228,228,159,,,,,,,,,,,,,AMP,left,0.2169651468284428,0,,,,,,,,,,,,,,left,0,0.2169651468284428,,,,,,,,,,,1064,2019_Mar_13_1500,mf_amp_cond2,3.0.4,59.99859521893446,
betrayal,&&&&&&&&&&&,right,loyalty.vice,sowntrodden,,,,,,,,,,,,,,,0,229,229,87,,,,,,,,,,,,,AMP,left,0.21696578827686608,0,,,,,,,,,,,,,,left,0,0.21696578827686608,,,,,,,,,,,1064,2019_Mar_13_1500,mf_amp_cond2,3.0.4,59.99859521893446,
pharing,&&&&,None,nonword,tove,,,,,,,,,,,,,,,0,230,230,261,,,,,,,,,,,,,AMP,left,0.2669957608450204,0,,,,,,,,,,,,,,left,0,0.2669957608450204,,,,,,,,,,,1064,2019_Mar_13_1500,mf_amp_cond2,3.0.4,59.99859521893446,
violence,&&&&&&,right,care.vice,Boeinf,,,,,,,,,,,,,,,0,231,231,220,,,,,,,,,,,,,AMP,left,0.2503355676890351,0,,,,,,,,,,,,,,left,0,0.2503355676890351,,,,,,,,,,,1064,2019_Mar_13_1500,mf_amp_cond2,3.0.4,59.99859521893446,
freedom,&&&&&&&&&,left,sanctity.virtue,gillipede,,,,,,,,,,,,,,,0,232,232,187,,,,,,,,,,,,,AMP,right,0.3002965824853163,0,,,,,,,,,,,,,,right,0,0.3002965824853163,,,,,,,,,,,1064,2019_Mar_13_1500,mf_amp_cond2,3.0.4,59.99859521893446,
crime,&&&&&,right,fairness.vice,touls,,,,,,,,,,,,,,,0,233,233,38,,,,,,,,,,,,,AMP,left,0.2669880632602144,0,,,,,,,,,,,,,,left,0,0.2669880632602144,,,,,,,,,,,1064,2019_Mar_13_1500,mf_amp_cond2,3.0.4,59.99859521893446,
torture,&&&&&&&&&&,right,care.vice,frojecting,,,,,,,,,,,,,,,0,234,234,239,,,,,,,,,,,,,AMP,left,0.3672888794390019,0,,,,,,,,,,,,,,left,0,0.3672888794390019,,,,,,,,,,,1064,2019_Mar_13_1500,mf_amp_cond2,3.0.4,59.99859521893446,
hate,&&&&,right,fairness.vice,erks,,,,,,,,,,,,,,,0,235,235,183,,,,,,,,,,,,,AMP,left,0.9505027661507484,0,,,,,,,,,,,,,,left,0,0.9505027661507484,,,,,,,,,,,1064,2019_Mar_13_1500,mf_amp_cond2,3.0.4,59.99859521893446,
respect,&&&&&&&&&&,left,sanctity.virtue,clattening,,,,,,,,,,,,,,,0,236,236,3,,,,,,,,,,,,,AMP,left,0.9338300643721595,1,,,,,,,,,,,,,,left,1,0.9338300643721595,,,,,,,,,,,1064,2019_Mar_13_1500,mf_amp_cond2,3.0.4,59.99859521893446,
energy,&&&&&&&&,left,sanctity.virtue,suggists,,,,,,,,,,,,,,,0,237,237,49,,,,,,,,,,,,,AMP,right,0.8338403599336743,0,,,,,,,,,,,,,,right,0,0.8338403599336743,,,,,,,,,,,1064,2019_Mar_13_1500,mf_amp_cond2,3.0.4,59.99859521893446,
unpleasant,&&&&&&&,None,control,nackers,,,,,,,,,,,,,,,0,238,238,264,,,,,,,,,,,,,AMP,left,0.2502999662247021,0,,,,,,,,,,,,,,left,0,0.2502999662247021,,,,,,,,,,,1064,2019_Mar_13_1500,mf_amp_cond2,3.0.4,59.99859521893446,
progress,&&&&,left,authority.virtue,wump,,,,,,,,,,,,,,,0,239,239,300,,,,,,,,,,,,,AMP,right,1.9174559656530619,0,,,,,,,,,,,,,,right,0,1.9174559656530619,,,,,,,,,,,1064,2019_Mar_13_1500,mf_amp_cond2,3.0.4,59.99859521893446,
conspiracy,&&&&&&&&,right,sanctity.vice,crinking,,,,,,,,,,,,,,,0,240,240,314,,,,,,,,,,,,,AMP,right,0.6004109882051125,1,,,,,,,,,,,,,,right,1,0.6004109882051125,,,,,,,,,,,1064,2019_Mar_13_1500,mf_amp_cond2,3.0.4,59.99859521893446,
refused,&&&&&&&&&&&&&,right,authority.vice,idexpressible,,,,,,,,,,,,,,,0,241,241,66,,,,,,,,,,,,,AMP,left,0.6337679382122587,0,,,,,,,,,,,,,,left,0,0.6337679382122587,,,,,,,,,,,1064,2019_Mar_13_1500,mf_amp_cond2,3.0.4,59.99859521893446,
praised,&&&&&,left,loyalty.virtue,framo,,,,,,,,,,,,,,,0,242,242,126,,,,,,,,,,,,,AMP,right,0.23366703538340516,0,,,,,,,,,,,,,,right,0,0.23366703538340516,,,,,,,,,,,1064,2019_Mar_13_1500,mf_amp_cond2,3.0.4,59.99859521893446,
