words,nonwords,mask,corr_ans,category,tweets,topic,AMP_pracloop.thisRepN,AMP_pracloop.thisTrialN,AMP_pracloop.thisN,AMP_pracloop.thisIndex,AMP_trials.thisRepN,AMP_trials.thisTrialN,AMP_trials.thisN,AMP_trials.thisIndex,LDT_pracloop.thisRepN,LDT_pracloop.thisTrialN,LDT_pracloop.thisN,LDT_pracloop.thisIndex,LDT_trials.thisRepN,LDT_trials.thisTrialN,LDT_trials.thisN,LDT_trials.thisIndex,tweet_loop.thisRepN,tweet_loop.thisTrialN,tweet_loop.thisN,tweet_loop.thisIndex,begin_key.keys,begin_key.rt,key_resp_AMP_instr1.keys,key_resp_AMP_instr1.rt,resp_AMP_ready1.keys,resp_AMP_ready1.rt,resp_AMP_prac.keys,resp_AMP_prac.rt,task,keypress,RT,resp_AMP_ready.keys,resp_AMP_ready.rt,resp_AMP.keys,resp_AMP.corr,resp_AMP.rt,corr,AMP_nonword_rating.response,AMP_nonword_rating.rt,AMP_word_rating.response,AMP_word_rating.rt,AMP_random_rating.response,AMP_random_rating.rt,key_resp_LDT_instr.keys,key_resp_LDT_instr.rt,resp_LDT_prac.keys,resp_LDT_prac.rt,resp_LDT_ready.keys,resp_LDT_ready.rt,resp_LDT.keys,resp_LDT.corr,resp_LDT.rt,LDT_rating.response,LDT_rating.rt,key_resp_LDT_instr_2.keys,key_resp_LDT_instr_2.rt,resp_tweets.keys,resp_tweets.rt,participant,date,expName,psychopyVersion,frameRate,
,,,,,,,,,,,,,,,,,,,,,,,,,,,right,388.8934146074753,,,,,,,,,,,,,,,,,,,,,,,,,,,,,,,,,,,,,1065,2019_Mar_13_1501,mf_amp_cond1,3.0.4,60.00563874626387,
,,,,,,,,,,,,,,,,,,,,,,,,,,,,,right,4.768076210224535,,,,,,,,,,,,,,,,,,,,,,,,,,,,,,,,,,,1065,2019_Mar_13_1501,mf_amp_cond1,3.0.4,60.00563874626387,
,,,,,,,,,,,,,,,,,,,,,,,,,,,,,,,right,1.7506881799781695,,,,,,,,,,,,,,,,,,,,,,,,,,,,,,,,,1065,2019_Mar_13_1501,mf_amp_cond1,3.0.4,60.00563874626387,
scarf,bisebell,&&&&&&&&,,,,,0,0,0,3,,,,,,,,,,,,,,,,,,,,,,,right,4.45130880078068,AMP_prac,right,4.45130880078068,,,,,,,,,,,,,,,,,,,,,,,,,,,,1065,2019_Mar_13_1501,mf_amp_cond1,3.0.4,60.00563874626387,
keyboard,senk,&&&&,,,,,0,1,1,2,,,,,,,,,,,,,,,,,,,,,,,right,7.685426940966863,AMP_prac,right,7.685426940966863,,,,,,,,,,,,,,,,,,,,,,,,,,,,1065,2019_Mar_13_1501,mf_amp_cond1,3.0.4,60.00563874626387,
car,cemtuper,&&&&&&&&,,,,,0,2,2,0,,,,,,,,,,,,,,,,,,,,,,,left,1.267240580287762,AMP_prac,left,1.267240580287762,,,,,,,,,,,,,,,,,,,,,,,,,,,,1065,2019_Mar_13_1501,mf_amp_cond1,3.0.4,60.00563874626387,
banana,kacket,&&&&&&,,,,,0,3,3,1,,,,,,,,,,,,,,,,,,,,,,,right,2.8009177016210742,AMP_prac,right,2.8009177016210742,,,,,,,,,,,,,,,,,,,,,,,,,,,,1065,2019_Mar_13_1501,mf_amp_cond1,3.0.4,60.00563874626387,
,,,,,,,,,,,,,,,,,,,,,,,,,,,,,,,,,,,,,,right,2.7509126823570114,,,,,,,,,,,,,,,,,,,,,,,,,,1065,2019_Mar_13_1501,mf_amp_cond1,3.0.4,60.00563874626387,
gikely,gillipede,&&&&&&&&&,None,nonword,,,,,,,0,0,0,0,,,,,,,,,,,,,,,,,,,,,AMP,left,4.134578594588675,,,left,0,4.134578594588675,0,,,,,,,,,,,,,,,,,,,,,,1065,2019_Mar_13_1501,mf_amp_cond1,3.0.4,60.00563874626387,
intelligence,pafer,&&&&&,left,loyalty.virtue,,,,,,,0,1,1,1,,,,,,,,,,,,,,,,,,,,,AMP,right,1.2005280937592033,,,right,0,1.2005280937592033,0,,,,,,,,,,,,,,,,,,,,,,1065,2019_Mar_13_1501,mf_amp_cond1,3.0.4,60.00563874626387,
compassion,ilportation,&&&&&&&&&&&,left,care.virtue,,,,,,,0,2,2,2,,,,,,,,,,,,,,,,,,,,,AMP,right,2.8676045307074673,,,right,0,2.8676045307074673,0,,,,,,,,,,,,,,,,,,,,,,1065,2019_Mar_13_1501,mf_amp_cond1,3.0.4,60.00563874626387,
injured,tracious,&&&&&&&&,right,care.vice,,,,,,,0,3,3,3,,,,,,,,,,,,,,,,,,,,,AMP,right,1.1338560176372994,,,right,1,1.1338560176372994,1,,,,,,,,,,,,,,,,,,,,,,1065,2019_Mar_13_1501,mf_amp_cond1,3.0.4,60.00563874626387,
scandal,pumber,&&&&&&,right,sanctity.vice,,,,,,,0,4,4,4,,,,,,,,,,,,,,,,,,,,,AMP,left,3.1843796373868827,,,left,0,3.1843796373868827,0,,,,,,,,,,,,,,,,,,,,,,1065,2019_Mar_13_1501,mf_amp_cond1,3.0.4,60.00563874626387,
abuse,erdest,&&&&&&,right,sanctity.vice,,,,,,,0,5,5,5,,,,,,,,,,,,,,,,,,,,,AMP,left,2.0507378591573797,,,left,0,2.0507378591573797,0,,,,,,,,,,,,,,,,,,,,,,1065,2019_Mar_13_1501,mf_amp_cond1,3.0.4,60.00563874626387,
progress,smapper,&&&&&&&,left,authority.virtue,,,,,,,0,6,6,6,,,,,,,,,,,,,,,,,,,,,AMP,left,2.150759443436982,,,left,1,2.150759443436982,1,,,,,,,,,,,,,,,,,,,,,,1065,2019_Mar_13_1501,mf_amp_cond1,3.0.4,60.00563874626387,
failure,focomotive,&&&&&&&&&&,right,loyalty.vice,,,,,,,0,7,7,7,,,,,,,,,,,,,,,,,,,,,AMP,right,1.6506351653370075,,,right,1,1.6506351653370075,1,,,,,,,,,,,,,,,,,,,,,,1065,2019_Mar_13_1501,mf_amp_cond1,3.0.4,60.00563874626387,
benefit,festate,&&&&&&&,left,fairness.virtue,,,,,,,0,8,8,8,,,,,,,,,,,,,,,,,,,,,AMP,left,2.7675746077729855,,,left,1,2.7675746077729855,1,,,,,,,,,,,,,,,,,,,,,,1065,2019_Mar_13_1501,mf_amp_cond1,3.0.4,60.00563874626387,
terrorists,slending,&&&&&&&&,right,fairness.vice,,,,,,,0,9,9,9,,,,,,,,,,,,,,,,,,,,,AMP,left,5.351565599441528,,,left,0,5.351565599441528,0,,,,,,,,,,,,,,,,,,,,,,1065,2019_Mar_13_1501,mf_amp_cond1,3.0.4,60.00563874626387,
hope,Lacedonia,&&&&&&&&&,left,loyalty.virtue,,,,,,,0,10,10,10,,,,,,,,,,,,,,,,,,,,,AMP,left,2.4008166113926563,,,left,1,2.4008166113926563,1,,,,,,,,,,,,,,,,,,,,,,1065,2019_Mar_13_1501,mf_amp_cond1,3.0.4,60.00563874626387,
violence,tove,&&&&,right,care.vice,,,,,,,0,11,11,11,,,,,,,,,,,,,,,,,,,,,AMP,right,3.0009923005418386,,,right,1,3.0009923005418386,1,,,,,,,,,,,,,,,,,,,,,,1065,2019_Mar_13_1501,mf_amp_cond1,3.0.4,60.00563874626387,
help,presentkess,&&&&&&&&&&&,left,care.virtue,,,,,,,0,12,12,12,,,,,,,,,,,,,,,,,,,,,AMP,left,1.3338988655305002,,,left,1,1.3338988655305002,1,,,,,,,,,,,,,,,,,,,,,,1065,2019_Mar_13_1501,mf_amp_cond1,3.0.4,60.00563874626387,
threatened,grovelire,&&&&&&&&&,right,fairness.vice,,,,,,,0,13,13,13,,,,,,,,,,,,,,,,,,,,,AMP,left,1.1505205087887589,,,left,0,1.1505205087887589,0,,,,,,,,,,,,,,,,,,,,,,1065,2019_Mar_13_1501,mf_amp_cond1,3.0.4,60.00563874626387,
safety,allears,&&&&&&&,left,care.virtue,,,,,,,0,14,14,14,,,,,,,,,,,,,,,,,,,,,AMP,right,3.7011263925815,,,right,0,3.7011263925815,0,,,,,,,,,,,,,,,,,,,,,,1065,2019_Mar_13_1501,mf_amp_cond1,3.0.4,60.00563874626387,
clean,faspberry,&&&&&&&&&,left,sanctity.virtue,,,,,,,0,15,15,15,,,,,,,,,,,,,,,,,,,,,AMP,right,1.2005325838108547,,,right,0,1.2005325838108547,0,,,,,,,,,,,,,,,,,,,,,,1065,2019_Mar_13_1501,mf_amp_cond1,3.0.4,60.00563874626387,
improve,dumid,&&&&&,left,care.virtue,,,,,,,0,16,16,16,,,,,,,,,,,,,,,,,,,,,AMP,left,1.6840084066498093,,,left,1,1.6840084066498093,1,,,,,,,,,,,,,,,,,,,,,,1065,2019_Mar_13_1501,mf_amp_cond1,3.0.4,60.00563874626387,
groups,sidearbs,&&&&&&&&,right,loyalty.vice,,,,,,,0,17,17,17,,,,,,,,,,,,,,,,,,,,,AMP,right,3.651125221978873,,,right,1,3.651125221978873,1,,,,,,,,,,,,,,,,,,,,,,1065,2019_Mar_13_1501,mf_amp_cond1,3.0.4,60.00563874626387,
loyalty,metibolic,&&&&&&&&&,left,loyalty.virtue,,,,,,,0,18,18,18,,,,,,,,,,,,,,,,,,,,,AMP,left,2.4507533177675214,,,left,1,2.4507533177675214,1,,,,,,,,,,,,,,,,,,,,,,1065,2019_Mar_13_1501,mf_amp_cond1,3.0.4,60.00563874626387,
protesters,ugeasily,&&&&&&&&,right,authority.vice,,,,,,,0,19,19,19,,,,,,,,,,,,,,,,,,,,,AMP,left,3.7678225225245114,,,left,0,3.7678225225245114,0,,,,,,,,,,,,,,,,,,,,,,1065,2019_Mar_13_1501,mf_amp_cond1,3.0.4,60.00563874626387,
promote,vurtain,&&&&&&&,left,sanctity.virtue,,,,,,,0,20,20,20,,,,,,,,,,,,,,,,,,,,,AMP,right,1.0338328297657426,,,right,0,1.0338328297657426,0,,,,,,,,,,,,,,,,,,,,,,1065,2019_Mar_13_1501,mf_amp_cond1,3.0.4,60.00563874626387,
great,sonvoy,&&&&&&,left,loyalty.virtue,,,,,,,0,21,21,21,,,,,,,,,,,,,,,,,,,,,AMP,right,1.1505413554259576,,,right,0,1.1505413554259576,0,,,,,,,,,,,,,,,,,,,,,,1065,2019_Mar_13_1501,mf_amp_cond1,3.0.4,60.00563874626387,
fair,nuckheap,&&&&&&&&,left,fairness.virtue,,,,,,,0,22,22,22,,,,,,,,,,,,,,,,,,,,,AMP,left,3.567763638769975,,,left,1,3.567763638769975,1,,,,,,,,,,,,,,,,,,,,,,1065,2019_Mar_13_1501,mf_amp_cond1,3.0.4,60.00563874626387,
honored,Phintoism,&&&&&&&&&,left,authority.virtue,,,,,,,0,23,23,23,,,,,,,,,,,,,,,,,,,,,AMP,right,2.4508383079373743,,,right,0,2.4508383079373743,0,,,,,,,,,,,,,,,,,,,,,,1065,2019_Mar_13_1501,mf_amp_cond1,3.0.4,60.00563874626387,
values,discovars,&&&&&&&&&,left,sanctity.virtue,,,,,,,0,24,24,24,,,,,,,,,,,,,,,,,,,,,AMP,right,3.0509899432363454,,,right,0,3.0509899432363454,0,,,,,,,,,,,,,,,,,,,,,,1065,2019_Mar_13_1501,mf_amp_cond1,3.0.4,60.00563874626387,
attacks,ronviolence,&&&&&&&&&&&,right,care.vice,,,,,,,0,25,25,25,,,,,,,,,,,,,,,,,,,,,AMP,left,1.6839776177657768,,,left,0,1.6839776177657768,0,,,,,,,,,,,,,,,,,,,,,,1065,2019_Mar_13_1501,mf_amp_cond1,3.0.4,60.00563874626387,
police,neneficence,&&&&&&&&&&&,right,authority.vice,,,,,,,0,26,26,26,,,,,,,,,,,,,,,,,,,,,AMP,left,1.583958599192556,,,left,0,1.583958599192556,0,,,,,,,,,,,,,,,,,,,,,,1065,2019_Mar_13_1501,mf_amp_cond1,3.0.4,60.00563874626387,
baladroit,rorroborated,&&&&&&&&&&&&,None,nonword,,,,,,,0,27,27,27,,,,,,,,,,,,,,,,,,,,,AMP,left,2.1340721813612618,,,left,0,2.1340721813612618,0,,,,,,,,,,,,,,,,,,,,,,1065,2019_Mar_13_1501,mf_amp_cond1,3.0.4,60.00563874626387,
fighters,halaise,&&&&&&&,right,authority.vice,,,,,,,0,28,28,28,,,,,,,,,,,,,,,,,,,,,AMP,right,1.1838523774931673,,,right,1,1.1838523774931673,1,,,,,,,,,,,,,,,,,,,,,,1065,2019_Mar_13_1501,mf_amp_cond1,3.0.4,60.00563874626387,
respect,ejanulated,&&&&&&&&&&,left,sanctity.virtue,,,,,,,0,29,29,29,,,,,,,,,,,,,,,,,,,,,AMP,left,1.550605883821845,,,left,1,1.550605883821845,1,,,,,,,,,,,,,,,,,,,,,,1065,2019_Mar_13_1501,mf_amp_cond1,3.0.4,60.00563874626387,
pleasant,divility,&&&&&&&&,None,control,,,,,,,0,30,30,30,,,,,,,,,,,,,,,,,,,,,AMP,left,5.034785040596034,,,left,0,5.034785040596034,0,,,,,,,,,,,,,,,,,,,,,,1065,2019_Mar_13_1501,mf_amp_cond1,3.0.4,60.00563874626387,
strength,carvels,&&&&&&&,left,sanctity.virtue,,,,,,,0,31,31,31,,,,,,,,,,,,,,,,,,,,,AMP,left,1.6339873515535146,,,left,1,1.6339873515535146,1,,,,,,,,,,,,,,,,,,,,,,1065,2019_Mar_13_1501,mf_amp_cond1,3.0.4,60.00563874626387,
blamed,scalbel,&&&&&&&,right,loyalty.vice,,,,,,,0,32,32,32,,,,,,,,,,,,,,,,,,,,,AMP,right,0.7837615502357949,,,right,1,0.7837615502357949,1,,,,,,,,,,,,,,,,,,,,,,1065,2019_Mar_13_1501,mf_amp_cond1,3.0.4,60.00563874626387,
crime,pullness,&&&&&&&&,right,fairness.vice,,,,,,,0,33,33,33,,,,,,,,,,,,,,,,,,,,,AMP,left,3.4010635640006512,,,left,0,3.4010635640006512,0,,,,,,,,,,,,,,,,,,,,,,1065,2019_Mar_13_1501,mf_amp_cond1,3.0.4,60.00563874626387,
sharing,nomparisons,&&&&&&&&&&&,left,loyalty.virtue,,,,,,,0,34,34,34,,,,,,,,,,,,,,,,,,,,,AMP,right,3.000971453875536,,,right,0,3.000971453875536,0,,,,,,,,,,,,,,,,,,,,,,1065,2019_Mar_13_1501,mf_amp_cond1,3.0.4,60.00563874626387,
refused,lempestuous,&&&&&&&&&&&,right,authority.vice,,,,,,,0,35,35,35,,,,,,,,,,,,,,,,,,,,,AMP,right,0.76709224836668,,,right,1,0.76709224836668,1,,,,,,,,,,,,,,,,,,,,,,1065,2019_Mar_13_1501,mf_amp_cond1,3.0.4,60.00563874626387,
civilians,pharing,&&&&&&&,right,care.vice,,,,,,,0,36,36,36,,,,,,,,,,,,,,,,,,,,,AMP,right,0.7170910777058452,,,right,1,0.7170910777058452,1,,,,,,,,,,,,,,,,,,,,,,1065,2019_Mar_13_1501,mf_amp_cond1,3.0.4,60.00563874626387,
illegal,unreflectuve,&&&&&&&&&&&&,right,fairness.vice,,,,,,,0,37,37,37,,,,,,,,,,,,,,,,,,,,,AMP,left,0.5837340968137141,,,left,0,0.5837340968137141,0,,,,,,,,,,,,,,,,,,,,,,1065,2019_Mar_13_1501,mf_amp_cond1,3.0.4,60.00563874626387,
ability,iptervention,&&&&&&&&&&&&,left,authority.virtue,,,,,,,0,38,38,38,,,,,,,,,,,,,,,,,,,,,AMP,right,1.6339722777775023,,,right,0,1.6339722777775023,0,,,,,,,,,,,,,,,,,,,,,,1065,2019_Mar_13_1501,mf_amp_cond1,3.0.4,60.00563874626387,
hate,mecan,&&&&&,right,fairness.vice,,,,,,,0,39,39,39,,,,,,,,,,,,,,,,,,,,,AMP,right,0.8004343800421339,,,right,1,0.8004343800421339,1,,,,,,,,,,,,,,,,,,,,,,1065,2019_Mar_13_1501,mf_amp_cond1,3.0.4,60.00563874626387,
conspiracy,Daptist,&&&&&&&,right,sanctity.vice,,,,,,,0,40,40,40,,,,,,,,,,,,,,,,,,,,,AMP,left,1.2672267894377,,,left,0,1.2672267894377,0,,,,,,,,,,,,,,,,,,,,,,1065,2019_Mar_13_1501,mf_amp_cond1,3.0.4,60.00563874626387,
rebels,stindig,&&&&&&&,right,authority.vice,,,,,,,0,41,41,41,,,,,,,,,,,,,,,,,,,,,AMP,left,1.533971219410887,,,left,0,1.533971219410887,0,,,,,,,,,,,,,,,,,,,,,,1065,2019_Mar_13_1501,mf_amp_cond1,3.0.4,60.00563874626387,
nackers,pescinded,&&&&&&&&&,None,nonword,,,,,,,0,42,42,42,,,,,,,,,,,,,,,,,,,,,AMP,left,4.601365872484166,,,left,0,4.601365872484166,0,,,,,,,,,,,,,,,,,,,,,,1065,2019_Mar_13_1501,mf_amp_cond1,3.0.4,60.00563874626387,
officers,sickyay,&&&&&&&,right,authority.vice,,,,,,,0,43,43,43,,,,,,,,,,,,,,,,,,,,,AMP,right,1.784006257832516,,,right,1,1.784006257832516,1,,,,,,,,,,,,,,,,,,,,,,1065,2019_Mar_13_1501,mf_amp_cond1,3.0.4,60.00563874626387,
terrorist,tabin,&&&&&,right,loyalty.vice,,,,,,,0,44,44,44,,,,,,,,,,,,,,,,,,,,,AMP,right,3.3010532048356254,,,right,1,3.3010532048356254,1,,,,,,,,,,,,,,,,,,,,,,1065,2019_Mar_13_1501,mf_amp_cond1,3.0.4,60.00563874626387,
unpleasant,gazily,&&&&&&,None,control,,,,,,,0,45,45,45,,,,,,,,,,,,,,,,,,,,,AMP,right,0.9171313598635606,,,right,0,0.9171313598635606,0,,,,,,,,,,,,,,,,,,,,,,1065,2019_Mar_13_1501,mf_amp_cond1,3.0.4,60.00563874626387,
encourage,ebbitter,&&&&&&&&,left,authority.virtue,,,,,,,0,46,46,46,,,,,,,,,,,,,,,,,,,,,AMP,left,1.1671917349740397,,,left,1,1.1671917349740397,1,,,,,,,,,,,,,,,,,,,,,,1065,2019_Mar_13_1501,mf_amp_cond1,3.0.4,60.00563874626387,
freedom,coom,&&&&,left,sanctity.virtue,,,,,,,0,47,47,47,,,,,,,,,,,,,,,,,,,,,AMP,right,2.834247325285105,,,right,0,2.834247325285105,0,,,,,,,,,,,,,,,,,,,,,,1065,2019_Mar_13_1501,mf_amp_cond1,3.0.4,60.00563874626387,
victims,godlaness,&&&&&&&&&,right,care.vice,,,,,,,0,48,48,48,,,,,,,,,,,,,,,,,,,,,AMP,right,2.4007890296634287,,,right,1,2.4007890296634287,1,,,,,,,,,,,,,,,,,,,,,,1065,2019_Mar_13_1501,mf_amp_cond1,3.0.4,60.00563874626387,
health,taxpayung,&&&&&&&&&,left,care.virtue,,,,,,,0,49,49,49,,,,,,,,,,,,,,,,,,,,,AMP,left,0.9171550929895602,,,left,1,0.9171550929895602,1,,,,,,,,,,,,,,,,,,,,,,1065,2019_Mar_13_1501,mf_amp_cond1,3.0.4,60.00563874626387,
opportunity,ammessment,&&&&&&&&&&,left,fairness.virtue,,,,,,,0,50,50,50,,,,,,,,,,,,,,,,,,,,,AMP,left,2.0840841601602733,,,left,1,2.0840841601602733,1,,,,,,,,,,,,,,,,,,,,,,1065,2019_Mar_13_1501,mf_amp_cond1,3.0.4,60.00563874626387,
antral,gationwide,&&&&&&&&&&,None,nonword,,,,,,,0,51,51,51,,,,,,,,,,,,,,,,,,,,,AMP,left,1.0338498277706094,,,left,0,1.0338498277706094,0,,,,,,,,,,,,,,,,,,,,,,1065,2019_Mar_13_1501,mf_amp_cond1,3.0.4,60.00563874626387,
serial,sowntrodden,&&&&&&&&&&&,right,sanctity.vice,,,,,,,0,52,52,52,,,,,,,,,,,,,,,,,,,,,AMP,right,1.1005129238183144,,,right,1,1.1005129238183144,1,,,,,,,,,,,,,,,,,,,,,,1065,2019_Mar_13_1501,mf_amp_cond1,3.0.4,60.00563874626387,
victim,squets,&&&&&&,right,care.vice,,,,,,,0,53,53,53,,,,,,,,,,,,,,,,,,,,,AMP,left,1.4172405642457306,,,left,0,1.4172405642457306,0,,,,,,,,,,,,,,,,,,,,,,1065,2019_Mar_13_1501,mf_amp_cond1,3.0.4,60.00563874626387,
increase,ning,&&&&,left,care.virtue,,,,,,,0,54,54,54,,,,,,,,,,,,,,,,,,,,,AMP,right,1.0838384904200211,,,right,0,1.0838384904200211,0,,,,,,,,,,,,,,,,,,,,,,1065,2019_Mar_13_1501,mf_amp_cond1,3.0.4,60.00563874626387,
openet,chonograph,&&&&&&&&&&,None,nonword,,,,,,,0,55,55,55,,,,,,,,,,,,,,,,,,,,,AMP,left,1.2172038099961355,,,left,0,1.2172038099961355,0,,,,,,,,,,,,,,,,,,,,,,1065,2019_Mar_13_1501,mf_amp_cond1,3.0.4,60.00563874626387,
suicide,unscothed,&&&&&&&&&,right,care.vice,,,,,,,0,56,56,56,,,,,,,,,,,,,,,,,,,,,AMP,left,0.8171216421178542,,,left,0,0.8171216421178542,0,,,,,,,,,,,,,,,,,,,,,,1065,2019_Mar_13_1501,mf_amp_cond1,3.0.4,60.00563874626387,
commitment,lenon,&&&&&,left,sanctity.virtue,,,,,,,0,57,57,57,,,,,,,,,,,,,,,,,,,,,AMP,right,1.5006043924950063,,,right,0,1.5006043924950063,0,,,,,,,,,,,,,,,,,,,,,,1065,2019_Mar_13_1501,mf_amp_cond1,3.0.4,60.00563874626387,
seachwear,gusinesslike,&&&&&&&&&&&&,None,nonword,,,,,,,0,58,58,58,,,,,,,,,,,,,,,,,,,,,AMP,right,0.9004755281202961,,,right,0,0.9004755281202961,0,,,,,,,,,,,,,,,,,,,,,,1065,2019_Mar_13_1501,mf_amp_cond1,3.0.4,60.00563874626387,
credit,vicissifude,&&&&&&&&&&&,left,fairness.virtue,,,,,,,0,59,59,59,,,,,,,,,,,,,,,,,,,,,AMP,right,0.8671154362382367,,,right,0,0.8671154362382367,0,,,,,,,,,,,,,,,,,,,,,,1065,2019_Mar_13_1501,mf_amp_cond1,3.0.4,60.00563874626387,
sliptery,wonderfujnoss,&&&&&&&&&&&&&,None,nonword,,,,,,,0,60,60,60,,,,,,,,,,,,,,,,,,,,,AMP,right,0.5670452311460394,,,right,0,0.5670452311460394,0,,,,,,,,,,,,,,,,,,,,,,1065,2019_Mar_13_1501,mf_amp_cond1,3.0.4,60.00563874626387,
perified,hescribe,&&&&&&&&,None,nonword,,,,,,,0,61,61,61,,,,,,,,,,,,,,,,,,,,,AMP,left,1.4672616193420254,,,left,0,1.4672616193420254,0,,,,,,,,,,,,,,,,,,,,,,1065,2019_Mar_13_1501,mf_amp_cond1,3.0.4,60.00563874626387,
love,hasks,&&&&&,left,loyalty.virtue,,,,,,,0,62,62,62,,,,,,,,,,,,,,,,,,,,,AMP,left,0.8004369457776193,,,left,1,0.8004369457776193,1,,,,,,,,,,,,,,,,,,,,,,1065,2019_Mar_13_1501,mf_amp_cond1,3.0.4,60.00563874626387,
embrace,hefurbished,&&&&&&&&&&&,left,authority.virtue,,,,,,,0,63,63,63,,,,,,,,,,,,,,,,,,,,,AMP,right,1.68398050419637,,,right,0,1.68398050419637,0,,,,,,,,,,,,,,,,,,,,,,1065,2019_Mar_13_1501,mf_amp_cond1,3.0.4,60.00563874626387,
drug,oam,&&&,right,sanctity.vice,,,,,,,0,64,64,64,,,,,,,,,,,,,,,,,,,,,AMP,right,1.5506180710799526,,,right,1,1.5506180710799526,1,,,,,,,,,,,,,,,,,,,,,,1065,2019_Mar_13_1501,mf_amp_cond1,3.0.4,60.00563874626387,
safe,ecgagement,&&&&&&&&&&,left,care.virtue,,,,,,,0,65,65,65,,,,,,,,,,,,,,,,,,,,,AMP,left,3.3010227366467007,,,left,1,3.3010227366467007,1,,,,,,,,,,,,,,,,,,,,,,1065,2019_Mar_13_1501,mf_amp_cond1,3.0.4,60.00563874626387,
corruption,infet,&&&&&,right,sanctity.vice,,,,,,,0,66,66,66,,,,,,,,,,,,,,,,,,,,,AMP,left,0.7002633412776049,,,left,0,0.7002633412776049,0,,,,,,,,,,,,,,,,,,,,,,1065,2019_Mar_13_1501,mf_amp_cond1,3.0.4,60.00563874626387,
army,bycled,&&&&&&,right,loyalty.vice,,,,,,,0,67,67,67,,,,,,,,,,,,,,,,,,,,,AMP,right,0.617064361955272,,,right,1,0.617064361955272,1,,,,,,,,,,,,,,,,,,,,,,1065,2019_Mar_13_1501,mf_amp_cond1,3.0.4,60.00563874626387,
promises,prones,&&&&&&,left,fairness.virtue,,,,,,,0,68,68,68,,,,,,,,,,,,,,,,,,,,,AMP,left,1.8006669003516436,,,left,1,1.8006669003516436,1,,,,,,,,,,,,,,,,,,,,,,1065,2019_Mar_13_1501,mf_amp_cond1,3.0.4,60.00563874626387,
forced,ablow,&&&&&,right,fairness.vice,,,,,,,0,69,69,69,,,,,,,,,,,,,,,,,,,,,AMP,right,0.7837647574488074,,,right,1,0.7837647574488074,1,,,,,,,,,,,,,,,,,,,,,,1065,2019_Mar_13_1501,mf_amp_cond1,3.0.4,60.00563874626387,
violations,reelectiob,&&&&&&&&&&,right,sanctity.vice,,,,,,,0,70,70,70,,,,,,,,,,,,,,,,,,,,,AMP,right,0.9171425849781372,,,right,1,0.9171425849781372,1,,,,,,,,,,,,,,,,,,,,,,1065,2019_Mar_13_1501,mf_amp_cond1,3.0.4,60.00563874626387,
useful,tenuflect,&&&&&&&&&,left,authority.virtue,,,,,,,0,71,71,71,,,,,,,,,,,,,,,,,,,,,AMP,left,1.1005058680020738,,,left,1,1.1005058680020738,1,,,,,,,,,,,,,,,,,,,,,,1065,2019_Mar_13_1501,mf_amp_cond1,3.0.4,60.00563874626387,
betrayal,edancipation,&&&&&&&&&&&&,right,loyalty.vice,,,,,,,0,72,72,72,,,,,,,,,,,,,,,,,,,,,AMP,left,1.4839306005451363,,,left,0,1.4839306005451363,0,,,,,,,,,,,,,,,,,,,,,,1065,2019_Mar_13_1501,mf_amp_cond1,3.0.4,60.00563874626387,
strong,crinking,&&&&&&&&,left,loyalty.virtue,,,,,,,0,73,73,73,,,,,,,,,,,,,,,,,,,,,AMP,right,1.033828660438303,,,right,0,1.033828660438303,0,,,,,,,,,,,,,,,,,,,,,,1065,2019_Mar_13_1501,mf_amp_cond1,3.0.4,60.00563874626387,
actively,touls,&&&&&,left,authority.virtue,,,,,,,0,74,74,74,,,,,,,,,,,,,,,,,,,,,AMP,right,0.7839029867609497,,,right,0,0.7839029867609497,0,,,,,,,,,,,,,,,,,,,,,,1065,2019_Mar_13_1501,mf_amp_cond1,3.0.4,60.00563874626387,
riot,gournful,&&&&&&&&,right,authority.vice,,,,,,,0,75,75,75,,,,,,,,,,,,,,,,,,,,,AMP,right,0.8671151155140251,,,right,1,0.8671151155140251,1,,,,,,,,,,,,,,,,,,,,,,1065,2019_Mar_13_1501,mf_amp_cond1,3.0.4,60.00563874626387,
men,glacenta,&&&&&&&&,right,loyalty.vice,,,,,,,0,76,76,76,,,,,,,,,,,,,,,,,,,,,AMP,left,0.8504512658400927,,,left,0,0.8504512658400927,0,,,,,,,,,,,,,,,,,,,,,,1065,2019_Mar_13_1501,mf_amp_cond1,3.0.4,60.00563874626387,
brotesque,bluently,&&&&&&&&,None,nonword,,,,,,,0,77,77,77,,,,,,,,,,,,,,,,,,,,,AMP,right,0.8504541522706859,,,right,0,0.8504541522706859,0,,,,,,,,,,,,,,,,,,,,,,1065,2019_Mar_13_1501,mf_amp_cond1,3.0.4,60.00563874626387,
interests,chreams,&&&&&&&,left,fairness.virtue,,,,,,,0,78,78,78,,,,,,,,,,,,,,,,,,,,,AMP,right,0.9171262283925898,,,right,0,0.9171262283925898,0,,,,,,,,,,,,,,,,,,,,,,1065,2019_Mar_13_1501,mf_amp_cond1,3.0.4,60.00563874626387,
accused,gondensed,&&&&&&&&&,right,fairness.vice,,,,,,,0,79,79,79,,,,,,,,,,,,,,,,,,,,,AMP,right,0.6170621169148944,,,right,1,0.6170621169148944,1,,,,,,,,,,,,,,,,,,,,,,1065,2019_Mar_13_1501,mf_amp_cond1,3.0.4,60.00563874626387,
baklara,viscs,&&&&&,None,nonword,,,,,,,0,80,80,80,,,,,,,,,,,,,,,,,,,,,AMP,right,0.8004760733456351,,,right,0,0.8004760733456351,0,,,,,,,,,,,,,,,,,,,,,,1065,2019_Mar_13_1501,mf_amp_cond1,3.0.4,60.00563874626387,
ensure,menizen,&&&&&&&,left,fairness.virtue,,,,,,,0,81,81,81,,,,,,,,,,,,,,,,,,,,,AMP,right,0.8837885867396835,,,right,0,0.8837885867396835,0,,,,,,,,,,,,,,,,,,,,,,1065,2019_Mar_13_1501,mf_amp_cond1,3.0.4,60.00563874626387,
honored,erdest,&&&&&&,left,authority.virtue,,,,,,,0,82,82,82,,,,,,,,,,,,,,,,,,,,,AMP,left,0.9838120953354519,,,left,1,0.9838120953354519,1,,,,,,,,,,,,,,,,,,,,,,1065,2019_Mar_13_1501,mf_amp_cond1,3.0.4,60.00563874626387,
groups,nomparisons,&&&&&&&&&&&,right,loyalty.vice,,,,,,,0,83,83,83,,,,,,,,,,,,,,,,,,,,,AMP,right,1.033848224178655,,,right,1,1.033848224178655,1,,,,,,,,,,,,,,,,,,,,,,1065,2019_Mar_13_1501,mf_amp_cond1,3.0.4,60.00563874626387,
ability,pullness,&&&&&&&&,left,authority.virtue,,,,,,,0,84,84,84,,,,,,,,,,,,,,,,,,,,,AMP,left,0.7837602673680522,,,left,1,0.7837602673680522,1,,,,,,,,,,,,,,,,,,,,,,1065,2019_Mar_13_1501,mf_amp_cond1,3.0.4,60.00563874626387,
safe,squets,&&&&&&,left,care.virtue,,,,,,,0,85,85,85,,,,,,,,,,,,,,,,,,,,,AMP,right,0.48370962604531087,,,right,0,0.48370962604531087,0,,,,,,,,,,,,,,,,,,,,,,1065,2019_Mar_13_1501,mf_amp_cond1,3.0.4,60.00563874626387,
fair,infet,&&&&&,left,fairness.virtue,,,,,,,0,86,86,86,,,,,,,,,,,,,,,,,,,,,AMP,right,0.4670274954405613,,,right,0,0.4670274954405613,0,,,,,,,,,,,,,,,,,,,,,,1065,2019_Mar_13_1501,mf_amp_cond1,3.0.4,60.00563874626387,
blamed,gazily,&&&&&&,right,loyalty.vice,,,,,,,0,87,87,87,,,,,,,,,,,,,,,,,,,,,AMP,left,0.6504231709695887,,,left,0,0.6504231709695887,0,,,,,,,,,,,,,,,,,,,,,,1065,2019_Mar_13_1501,mf_amp_cond1,3.0.4,60.00563874626387,
hate,tenuflect,&&&&&&&&&,right,fairness.vice,,,,,,,0,88,88,88,,,,,,,,,,,,,,,,,,,,,AMP,right,0.6504655056924094,,,right,1,0.6504655056924094,1,,,,,,,,,,,,,,,,,,,,,,1065,2019_Mar_13_1501,mf_amp_cond1,3.0.4,60.00563874626387,
pleasant,ammessment,&&&&&&&&&&,None,control,,,,,,,0,89,89,89,,,,,,,,,,,,,,,,,,,,,AMP,right,0.36707903479691595,,,right,0,0.36707903479691595,0,,,,,,,,,,,,,,,,,,,,,,1065,2019_Mar_13_1501,mf_amp_cond1,3.0.4,60.00563874626387,
opportunity,tabin,&&&&&,left,fairness.virtue,,,,,,,0,90,90,90,,,,,,,,,,,,,,,,,,,,,AMP,left,0.43363789754221216,,,left,1,0.43363789754221216,1,,,,,,,,,,,,,,,,,,,,,,1065,2019_Mar_13_1501,mf_amp_cond1,3.0.4,60.00563874626387,
intelligence,hefurbished,&&&&&&&&&&&,left,loyalty.virtue,,,,,,,0,91,91,91,,,,,,,,,,,,,,,,,,,,,AMP,right,0.6503991171484813,,,right,0,0.6503991171484813,0,,,,,,,,,,,,,,,,,,,,,,1065,2019_Mar_13_1501,mf_amp_cond1,3.0.4,60.00563874626387,
improve,mecan,&&&&&,left,care.virtue,,,,,,,0,92,92,92,,,,,,,,,,,,,,,,,,,,,AMP,left,0.6170569854439236,,,left,1,0.6170569854439236,1,,,,,,,,,,,,,,,,,,,,,,1065,2019_Mar_13_1501,mf_amp_cond1,3.0.4,60.00563874626387,
baladroit,faspberry,&&&&&&&&&,None,nonword,,,,,,,0,93,93,93,,,,,,,,,,,,,,,,,,,,,AMP,right,0.9504738122632261,,,right,0,0.9504738122632261,0,,,,,,,,,,,,,,,,,,,,,,1065,2019_Mar_13_1501,mf_amp_cond1,3.0.4,60.00563874626387,
hope,menizen,&&&&&&&,left,loyalty.virtue,,,,,,,0,94,94,94,,,,,,,,,,,,,,,,,,,,,AMP,right,0.7336077180225402,,,right,0,0.7336077180225402,0,,,,,,,,,,,,,,,,,,,,,,1065,2019_Mar_13_1501,mf_amp_cond1,3.0.4,60.00563874626387,
police,ugeasily,&&&&&&&&,right,authority.vice,,,,,,,0,95,95,95,,,,,,,,,,,,,,,,,,,,,AMP,left,0.35034398577408865,,,left,0,0.35034398577408865,0,,,,,,,,,,,,,,,,,,,,,,1065,2019_Mar_13_1501,mf_amp_cond1,3.0.4,60.00563874626387,
respect,presentkess,&&&&&&&&&&&,left,sanctity.virtue,,,,,,,0,96,96,96,,,,,,,,,,,,,,,,,,,,,AMP,right,0.45036685292143375,,,right,0,0.45036685292143375,0,,,,,,,,,,,,,,,,,,,,,,1065,2019_Mar_13_1501,mf_amp_cond1,3.0.4,60.00563874626387,
violations,lempestuous,&&&&&&&&&&&,right,sanctity.vice,,,,,,,0,97,97,97,,,,,,,,,,,,,,,,,,,,,AMP,right,0.5002031746553257,,,right,1,0.5002031746553257,1,,,,,,,,,,,,,,,,,,,,,,1065,2019_Mar_13_1501,mf_amp_cond1,3.0.4,60.00563874626387,
conspiracy,taxpayung,&&&&&&&&&,right,sanctity.vice,,,,,,,0,98,98,98,,,,,,,,,,,,,,,,,,,,,AMP,left,0.2836282920616213,,,left,0,0.2836282920616213,0,,,,,,,,,,,,,,,,,,,,,,1065,2019_Mar_13_1501,mf_amp_cond1,3.0.4,60.00563874626387,
abuse,hasks,&&&&&,right,sanctity.vice,,,,,,,0,99,99,99,,,,,,,,,,,,,,,,,,,,,AMP,right,0.3835222306952346,,,right,1,0.3835222306952346,1,,,,,,,,,,,,,,,,,,,,,,1065,2019_Mar_13_1501,mf_amp_cond1,3.0.4,60.00563874626387,
injured,discovars,&&&&&&&&&,right,care.vice,,,,,,,0,100,100,100,,,,,,,,,,,,,,,,,,,,,AMP,left,0.43370107893133536,,,left,0,0.43370107893133536,0,,,,,,,,,,,,,,,,,,,,,,1065,2019_Mar_13_1501,mf_amp_cond1,3.0.4,60.00563874626387,
victims,oam,&&&,right,care.vice,,,,,,,0,101,101,101,,,,,,,,,,,,,,,,,,,,,AMP,right,0.3501733639277518,,,right,1,0.3501733639277518,1,,,,,,,,,,,,,,,,,,,,,,1065,2019_Mar_13_1501,mf_amp_cond1,3.0.4,60.00563874626387,
fighters,tracious,&&&&&&&&,right,authority.vice,,,,,,,0,102,102,102,,,,,,,,,,,,,,,,,,,,,AMP,left,0.4503549863875378,,,left,0,0.4503549863875378,0,,,,,,,,,,,,,,,,,,,,,,1065,2019_Mar_13_1501,mf_amp_cond1,3.0.4,60.00563874626387,
nackers,pharing,&&&&&&&,None,nonword,,,,,,,0,103,103,103,,,,,,,,,,,,,,,,,,,,,AMP,left,0.533727153291693,,,left,0,0.533727153291693,0,,,,,,,,,,,,,,,,,,,,,,1065,2019_Mar_13_1501,mf_amp_cond1,3.0.4,60.00563874626387,
embrace,lenon,&&&&&,left,authority.virtue,,,,,,,0,104,104,104,,,,,,,,,,,,,,,,,,,,,AMP,right,0.5336986093898304,,,right,0,0.5336986093898304,0,,,,,,,,,,,,,,,,,,,,,,1065,2019_Mar_13_1501,mf_amp_cond1,3.0.4,60.00563874626387,
threatened,gationwide,&&&&&&&&&&,right,fairness.vice,,,,,,,0,105,105,105,,,,,,,,,,,,,,,,,,,,,AMP,left,0.5837142123200465,,,left,0,0.5837142123200465,0,,,,,,,,,,,,,,,,,,,,,,1065,2019_Mar_13_1501,mf_amp_cond1,3.0.4,60.00563874626387,
actively,Lacedonia,&&&&&&&&&,left,authority.virtue,,,,,,,0,106,106,106,,,,,,,,,,,,,,,,,,,,,AMP,left,0.6837386830593459,,,left,1,0.6837386830593459,1,,,,,,,,,,,,,,,,,,,,,,1065,2019_Mar_13_1501,mf_amp_cond1,3.0.4,60.00563874626387,
violence,dumid,&&&&&,right,care.vice,,,,,,,0,107,107,107,,,,,,,,,,,,,,,,,,,,,AMP,right,0.4503427991003264,,,right,1,0.4503427991003264,1,,,,,,,,,,,,,,,,,,,,,,1065,2019_Mar_13_1501,mf_amp_cond1,3.0.4,60.00563874626387,
promises,gondensed,&&&&&&&&&,left,fairness.virtue,,,,,,,0,108,108,108,,,,,,,,,,,,,,,,,,,,,AMP,left,0.750421342876507,,,left,1,0.750421342876507,1,,,,,,,,,,,,,,,,,,,,,,1065,2019_Mar_13_1501,mf_amp_cond1,3.0.4,60.00563874626387,
openet,iptervention,&&&&&&&&&&&&,None,nonword,,,,,,,0,109,109,109,,,,,,,,,,,,,,,,,,,,,AMP,left,0.9671405484259594,,,left,0,0.9671405484259594,0,,,,,,,,,,,,,,,,,,,,,,1065,2019_Mar_13_1501,mf_amp_cond1,3.0.4,60.00563874626387,
encourage,vicissifude,&&&&&&&&&&&,left,authority.virtue,,,,,,,0,110,110,110,,,,,,,,,,,,,,,,,,,,,AMP,left,1.10054852347821,,,left,1,1.10054852347821,1,,,,,,,,,,,,,,,,,,,,,,1065,2019_Mar_13_1501,mf_amp_cond1,3.0.4,60.00563874626387,
love,pumber,&&&&&&,left,loyalty.virtue,,,,,,,0,111,111,111,,,,,,,,,,,,,,,,,,,,,AMP,right,1.4839450328436214,,,right,0,1.4839450328436214,0,,,,,,,,,,,,,,,,,,,,,,1065,2019_Mar_13_1501,mf_amp_cond1,3.0.4,60.00563874626387,
useful,chreams,&&&&&&&,left,authority.virtue,,,,,,,0,112,112,112,,,,,,,,,,,,,,,,,,,,,AMP,right,0.6337420025083702,,,right,0,0.6337420025083702,0,,,,,,,,,,,,,,,,,,,,,,1065,2019_Mar_13_1501,mf_amp_cond1,3.0.4,60.00563874626387,
antral,rorroborated,&&&&&&&&&&&&,None,nonword,,,,,,,0,113,113,113,,,,,,,,,,,,,,,,,,,,,AMP,left,0.43367927012150176,,,left,0,0.43367927012150176,0,,,,,,,,,,,,,,,,,,,,,,1065,2019_Mar_13_1501,mf_amp_cond1,3.0.4,60.00563874626387,
sharing,bluently,&&&&&&&&,left,loyalty.virtue,,,,,,,0,114,114,114,,,,,,,,,,,,,,,,,,,,,AMP,right,0.7337539652944542,,,right,0,0.7337539652944542,0,,,,,,,,,,,,,,,,,,,,,,1065,2019_Mar_13_1501,mf_amp_cond1,3.0.4,60.00563874626387,
sliptery,sickyay,&&&&&&&,None,nonword,,,,,,,0,115,115,115,,,,,,,,,,,,,,,,,,,,,AMP,right,0.500394001690438,,,right,0,0.500394001690438,0,,,,,,,,,,,,,,,,,,,,,,1065,2019_Mar_13_1501,mf_amp_cond1,3.0.4,60.00563874626387,
corruption,ronviolence,&&&&&&&&&&&,right,sanctity.vice,,,,,,,0,116,116,116,,,,,,,,,,,,,,,,,,,,,AMP,left,0.4670207603776362,,,left,0,0.4670207603776362,0,,,,,,,,,,,,,,,,,,,,,,1065,2019_Mar_13_1501,mf_amp_cond1,3.0.4,60.00563874626387,
attacks,scalbel,&&&&&&&,right,care.vice,,,,,,,0,117,117,117,,,,,,,,,,,,,,,,,,,,,AMP,left,0.9838114539452363,,,left,0,0.9838114539452363,0,,,,,,,,,,,,,,,,,,,,,,1065,2019_Mar_13_1501,mf_amp_cond1,3.0.4,60.00563874626387,
commitment,halaise,&&&&&&&,left,sanctity.virtue,,,,,,,0,118,118,118,,,,,,,,,,,,,,,,,,,,,AMP,right,0.283624764153501,,,right,0,0.283624764153501,0,,,,,,,,,,,,,,,,,,,,,,1065,2019_Mar_13_1501,mf_amp_cond1,3.0.4,60.00563874626387,
health,slending,&&&&&&&&,left,care.virtue,,,,,,,0,119,119,119,,,,,,,,,,,,,,,,,,,,,AMP,right,0.23363866726867855,,,right,0,0.23363866726867855,0,,,,,,,,,,,,,,,,,,,,,,1065,2019_Mar_13_1501,mf_amp_cond1,3.0.4,60.00563874626387,
loyalty,stindig,&&&&&&&,left,loyalty.virtue,,,,,,,0,120,120,120,,,,,,,,,,,,,,,,,,,,,AMP,left,0.6003995500796009,,,left,1,0.6003995500796009,1,,,,,,,,,,,,,,,,,,,,,,1065,2019_Mar_13_1501,mf_amp_cond1,3.0.4,60.00563874626387,
failure,divility,&&&&&&&&,right,loyalty.vice,,,,,,,0,121,121,121,,,,,,,,,,,,,,,,,,,,,AMP,left,0.6504032864468172,,,left,0,0.6504032864468172,0,,,,,,,,,,,,,,,,,,,,,,1065,2019_Mar_13_1501,mf_amp_cond1,3.0.4,60.00563874626387,
gikely,focomotive,&&&&&&&&&&,None,nonword,,,,,,,0,122,122,122,,,,,,,,,,,,,,,,,,,,,AMP,right,0.7337427401507739,,,right,0,0.7337427401507739,0,,,,,,,,,,,,,,,,,,,,,,1065,2019_Mar_13_1501,mf_amp_cond1,3.0.4,60.00563874626387,
scandal,touls,&&&&&,right,sanctity.vice,,,,,,,0,123,123,123,,,,,,,,,,,,,,,,,,,,,AMP,left,0.3836607807315886,,,left,0,0.3836607807315886,0,,,,,,,,,,,,,,,,,,,,,,1065,2019_Mar_13_1501,mf_amp_cond1,3.0.4,60.00563874626387,
increase,sidearbs,&&&&&&&&,left,care.virtue,,,,,,,0,124,124,124,,,,,,,,,,,,,,,,,,,,,AMP,right,0.6670716262015048,,,right,0,0.6670716262015048,0,,,,,,,,,,,,,,,,,,,,,,1065,2019_Mar_13_1501,mf_amp_cond1,3.0.4,60.00563874626387,
perified,coom,&&&&,None,nonword,,,,,,,0,125,125,125,,,,,,,,,,,,,,,,,,,,,AMP,right,0.41702311765402555,,,right,0,0.41702311765402555,0,,,,,,,,,,,,,,,,,,,,,,1065,2019_Mar_13_1501,mf_amp_cond1,3.0.4,60.00563874626387,
unpleasant,pescinded,&&&&&&&&&,None,control,,,,,,,0,126,126,126,,,,,,,,,,,,,,,,,,,,,AMP,right,0.3503157625964377,,,right,0,0.3503157625964377,0,,,,,,,,,,,,,,,,,,,,,,1065,2019_Mar_13_1501,mf_amp_cond1,3.0.4,60.00563874626387,
suicide,neneficence,&&&&&&&&&&&,right,care.vice,,,,,,,0,127,127,127,,,,,,,,,,,,,,,,,,,,,AMP,right,0.7004227380093653,,,right,1,0.7004227380093653,1,,,,,,,,,,,,,,,,,,,,,,1065,2019_Mar_13_1501,mf_amp_cond1,3.0.4,60.00563874626387,
riot,sowntrodden,&&&&&&&&&&&,right,authority.vice,,,,,,,0,128,128,128,,,,,,,,,,,,,,,,,,,,,AMP,left,0.4837179647292942,,,left,0,0.4837179647292942,0,,,,,,,,,,,,,,,,,,,,,,1065,2019_Mar_13_1501,mf_amp_cond1,3.0.4,60.00563874626387,
benefit,ebbitter,&&&&&&&&,left,fairness.virtue,,,,,,,0,129,129,129,,,,,,,,,,,,,,,,,,,,,AMP,right,1.1171774149406701,,,right,0,1.1171774149406701,0,,,,,,,,,,,,,,,,,,,,,,1065,2019_Mar_13_1501,mf_amp_cond1,3.0.4,60.00563874626387,
brotesque,metibolic,&&&&&&&&&,None,nonword,,,,,,,0,130,130,130,,,,,,,,,,,,,,,,,,,,,AMP,right,0.2835952581372112,,,right,0,0.2835952581372112,0,,,,,,,,,,,,,,,,,,,,,,1065,2019_Mar_13_1501,mf_amp_cond1,3.0.4,60.00563874626387,
clean,reelectiob,&&&&&&&&&&,left,sanctity.virtue,,,,,,,0,131,131,131,,,,,,,,,,,,,,,,,,,,,AMP,left,0.33369071973720565,,,left,1,0.33369071973720565,1,,,,,,,,,,,,,,,,,,,,,,1065,2019_Mar_13_1501,mf_amp_cond1,3.0.4,60.00563874626387,
great,unreflectuve,&&&&&&&&&&&&,left,loyalty.virtue,,,,,,,0,132,132,132,,,,,,,,,,,,,,,,,,,,,AMP,left,0.7170747211202979,,,left,1,0.7170747211202979,1,,,,,,,,,,,,,,,,,,,,,,1065,2019_Mar_13_1501,mf_amp_cond1,3.0.4,60.00563874626387,
illegal,pafer,&&&&&,right,fairness.vice,,,,,,,0,133,133,133,,,,,,,,,,,,,,,,,,,,,AMP,left,0.7670960969408043,,,left,0,0.7670960969408043,0,,,,,,,,,,,,,,,,,,,,,,1065,2019_Mar_13_1501,mf_amp_cond1,3.0.4,60.00563874626387,
drug,ejanulated,&&&&&&&&&&,right,sanctity.vice,,,,,,,0,134,134,134,,,,,,,,,,,,,,,,,,,,,AMP,left,0.8171242078533396,,,left,0,0.8171242078533396,0,,,,,,,,,,,,,,,,,,,,,,1065,2019_Mar_13_1501,mf_amp_cond1,3.0.4,60.00563874626387,
promote,prones,&&&&&&,left,sanctity.virtue,,,,,,,0,135,135,135,,,,,,,,,,,,,,,,,,,,,AMP,right,1.0338713158853352,,,right,0,1.0338713158853352,0,,,,,,,,,,,,,,,,,,,,,,1065,2019_Mar_13_1501,mf_amp_cond1,3.0.4,60.00563874626387,
compassion,smapper,&&&&&&&,left,care.virtue,,,,,,,0,136,136,136,,,,,,,,,,,,,,,,,,,,,AMP,right,0.91718459900585,,,right,0,0.91718459900585,0,,,,,,,,,,,,,,,,,,,,,,1065,2019_Mar_13_1501,mf_amp_cond1,3.0.4,60.00563874626387,
interests,nuckheap,&&&&&&&&,left,fairness.virtue,,,,,,,0,137,137,137,,,,,,,,,,,,,,,,,,,,,AMP,left,0.417002270987723,,,left,1,0.417002270987723,1,,,,,,,,,,,,,,,,,,,,,,1065,2019_Mar_13_1501,mf_amp_cond1,3.0.4,60.00563874626387,
terrorists,crinking,&&&&&&&&,right,fairness.vice,,,,,,,0,138,138,138,,,,,,,,,,,,,,,,,,,,,AMP,left,0.6003793448908255,,,left,0,0.6003793448908255,0,,,,,,,,,,,,,,,,,,,,,,1065,2019_Mar_13_1501,mf_amp_cond1,3.0.4,60.00563874626387,
seachwear,wonderfujnoss,&&&&&&&&&&&&&,None,nonword,,,,,,,0,139,139,139,,,,,,,,,,,,,,,,,,,,,AMP,right,0.6504132287227549,,,right,0,0.6504132287227549,0,,,,,,,,,,,,,,,,,,,,,,1065,2019_Mar_13_1501,mf_amp_cond1,3.0.4,60.00563874626387,
serial,allears,&&&&&&&,right,sanctity.vice,,,,,,,0,140,140,140,,,,,,,,,,,,,,,,,,,,,AMP,left,0.13357474823715165,,,left,0,0.13357474823715165,0,,,,,,,,,,,,,,,,,,,,,,1065,2019_Mar_13_1501,mf_amp_cond1,3.0.4,60.00563874626387,
victim,tove,&&&&,right,care.vice,,,,,,,0,141,141,141,,,,,,,,,,,,,,,,,,,,,AMP,right,0.00011834481847472489,,,right,1,0.00011834481847472489,1,,,,,,,,,,,,,,,,,,,,,,1065,2019_Mar_13_1501,mf_amp_cond1,3.0.4,60.00563874626387,
strong,Daptist,&&&&&&&,left,loyalty.virtue,,,,,,,0,142,142,142,,,,,,,,,,,,,,,,,,,,,AMP,left,0.8004330971743912,,,left,1,0.8004330971743912,1,,,,,,,,,,,,,,,,,,,,,,1065,2019_Mar_13_1501,mf_amp_cond1,3.0.4,60.00563874626387,
crime,sonvoy,&&&&&&,right,fairness.vice,,,,,,,0,143,143,143,,,,,,,,,,,,,,,,,,,,,AMP,right,0.9504840752342716,,,right,1,0.9504840752342716,1,,,,,,,,,,,,,,,,,,,,,,1065,2019_Mar_13_1501,mf_amp_cond1,3.0.4,60.00563874626387,
freedom,viscs,&&&&&,left,sanctity.virtue,,,,,,,0,144,144,144,,,,,,,,,,,,,,,,,,,,,AMP,left,0.6504167566017713,,,left,1,0.6504167566017713,1,,,,,,,,,,,,,,,,,,,,,,1065,2019_Mar_13_1501,mf_amp_cond1,3.0.4,60.00563874626387,
credit,Phintoism,&&&&&&&&&,left,fairness.virtue,,,,,,,0,145,145,145,,,,,,,,,,,,,,,,,,,,,AMP,right,0.5670384960831143,,,right,0,0.5670384960831143,0,,,,,,,,,,,,,,,,,,,,,,1065,2019_Mar_13_1501,mf_amp_cond1,3.0.4,60.00563874626387,
rebels,gillipede,&&&&&&&&&,right,authority.vice,,,,,,,0,146,146,146,,,,,,,,,,,,,,,,,,,,,AMP,left,0.6504311889002565,,,left,0,0.6504311889002565,0,,,,,,,,,,,,,,,,,,,,,,1065,2019_Mar_13_1501,mf_amp_cond1,3.0.4,60.00563874626387,
safety,gournful,&&&&&&&&,left,care.virtue,,,,,,,0,147,147,147,,,,,,,,,,,,,,,,,,,,,AMP,left,0.5170405326061882,,,left,1,0.5170405326061882,1,,,,,,,,,,,,,,,,,,,,,,1065,2019_Mar_13_1501,mf_amp_cond1,3.0.4,60.00563874626387,
accused,festate,&&&&&&&,right,fairness.vice,,,,,,,0,148,148,148,,,,,,,,,,,,,,,,,,,,,AMP,right,0.4837134746776428,,,right,1,0.4837134746776428,1,,,,,,,,,,,,,,,,,,,,,,1065,2019_Mar_13_1501,mf_amp_cond1,3.0.4,60.00563874626387,
values,edancipation,&&&&&&&&&&&&,left,sanctity.virtue,,,,,,,0,149,149,149,,,,,,,,,,,,,,,,,,,,,AMP,left,0.43360101501457393,,,left,1,0.43360101501457393,1,,,,,,,,,,,,,,,,,,,,,,1065,2019_Mar_13_1501,mf_amp_cond1,3.0.4,60.00563874626387,
men,gusinesslike,&&&&&&&&&&&&,right,loyalty.vice,,,,,,,0,150,150,150,,,,,,,,,,,,,,,,,,,,,AMP,right,0.6170438360131811,,,right,1,0.6170438360131811,1,,,,,,,,,,,,,,,,,,,,,,1065,2019_Mar_13_1501,mf_amp_cond1,3.0.4,60.00563874626387,
baklara,chonograph,&&&&&&&&&&,None,nonword,,,,,,,0,151,151,151,,,,,,,,,,,,,,,,,,,,,AMP,left,0.2003090435755439,,,left,0,0.2003090435755439,0,,,,,,,,,,,,,,,,,,,,,,1065,2019_Mar_13_1501,mf_amp_cond1,3.0.4,60.00563874626387,
army,ablow,&&&&&,right,loyalty.vice,,,,,,,0,152,152,152,,,,,,,,,,,,,,,,,,,,,AMP,left,0.7004057399462909,,,left,0,0.7004057399462909,0,,,,,,,,,,,,,,,,,,,,,,1065,2019_Mar_13_1501,mf_amp_cond1,3.0.4,60.00563874626387,
forced,glacenta,&&&&&&&&,right,fairness.vice,,,,,,,0,153,153,153,,,,,,,,,,,,,,,,,,,,,AMP,right,0.7670912861940451,,,right,1,0.7670912861940451,1,,,,,,,,,,,,,,,,,,,,,,1065,2019_Mar_13_1501,mf_amp_cond1,3.0.4,60.00563874626387,
civilians,ning,&&&&,right,care.vice,,,,,,,0,154,154,154,,,,,,,,,,,,,,,,,,,,,AMP,right,1.2171880948299076,,,right,1,1.2171880948299076,1,,,,,,,,,,,,,,,,,,,,,,1065,2019_Mar_13_1501,mf_amp_cond1,3.0.4,60.00563874626387,
ensure,godlaness,&&&&&&&&&,left,fairness.virtue,,,,,,,0,155,155,155,,,,,,,,,,,,,,,,,,,,,AMP,right,0.9171563758573029,,,right,0,0.9171563758573029,0,,,,,,,,,,,,,,,,,,,,,,1065,2019_Mar_13_1501,mf_amp_cond1,3.0.4,60.00563874626387,
refused,vurtain,&&&&&&&,right,authority.vice,,,,,,,0,156,156,156,,,,,,,,,,,,,,,,,,,,,AMP,left,0.38367713734623976,,,left,0,0.38367713734623976,0,,,,,,,,,,,,,,,,,,,,,,1065,2019_Mar_13_1501,mf_amp_cond1,3.0.4,60.00563874626387,
help,unscothed,&&&&&&&&&,left,care.virtue,,,,,,,0,157,157,157,,,,,,,,,,,,,,,,,,,,,AMP,left,0.8504416442883667,,,left,1,0.8504416442883667,1,,,,,,,,,,,,,,,,,,,,,,1065,2019_Mar_13_1501,mf_amp_cond1,3.0.4,60.00563874626387,
progress,ecgagement,&&&&&&&&&&,left,authority.virtue,,,,,,,0,158,158,158,,,,,,,,,,,,,,,,,,,,,AMP,left,0.6337250044743996,,,left,1,0.6337250044743996,1,,,,,,,,,,,,,,,,,,,,,,1065,2019_Mar_13_1501,mf_amp_cond1,3.0.4,60.00563874626387,
protesters,hescribe,&&&&&&&&,right,authority.vice,,,,,,,0,159,159,159,,,,,,,,,,,,,,,,,,,,,AMP,left,0.4670284576131962,,,left,0,0.4670284576131962,0,,,,,,,,,,,,,,,,,,,,,,1065,2019_Mar_13_1501,mf_amp_cond1,3.0.4,60.00563874626387,
betrayal,carvels,&&&&&&&,right,loyalty.vice,,,,,,,0,160,160,160,,,,,,,,,,,,,,,,,,,,,AMP,right,0.7670935312053189,,,right,1,0.7670935312053189,1,,,,,,,,,,,,,,,,,,,,,,1065,2019_Mar_13_1501,mf_amp_cond1,3.0.4,60.00563874626387,
strength,ilportation,&&&&&&&&&&&,left,sanctity.virtue,,,,,,,0,161,161,161,,,,,,,,,,,,,,,,,,,,,AMP,left,0.7671528640203178,,,left,1,0.7671528640203178,1,,,,,,,,,,,,,,,,,,,,,,1065,2019_Mar_13_1501,mf_amp_cond1,3.0.4,60.00563874626387,
terrorist,grovelire,&&&&&&&&&,right,loyalty.vice,,,,,,,0,162,162,162,,,,,,,,,,,,,,,,,,,,,AMP,left,0.4170622452220414,,,left,0,0.4170622452220414,0,,,,,,,,,,,,,,,,,,,,,,1065,2019_Mar_13_1501,mf_amp_cond1,3.0.4,60.00563874626387,
officers,bycled,&&&&&&,right,authority.vice,,,,,,,0,163,163,163,,,,,,,,,,,,,,,,,,,,,AMP,right,0.45035370349069126,,,right,1,0.45035370349069126,1,,,,,,,,,,,,,,,,,,,,,,1065,2019_Mar_13_1501,mf_amp_cond1,3.0.4,60.00563874626387,
freedom,tenuflect,&&&&&&&&&,left,sanctity.virtue,,,,,,,0,164,164,164,,,,,,,,,,,,,,,,,,,,,AMP,right,0.4837099467695225,,,right,0,0.4837099467695225,0,,,,,,,,,,,,,,,,,,,,,,1065,2019_Mar_13_1501,mf_amp_cond1,3.0.4,60.00563874626387,
illegal,ugeasily,&&&&&&&&,right,fairness.vice,,,,,,,0,165,165,165,,,,,,,,,,,,,,,,,,,,,AMP,left,0.6005220642546192,,,left,0,0.6005220642546192,0,,,,,,,,,,,,,,,,,,,,,,1065,2019_Mar_13_1501,mf_amp_cond1,3.0.4,60.00563874626387,
antral,edancipation,&&&&&&&&&&&&,None,nonword,,,,,,,0,166,166,166,,,,,,,,,,,,,,,,,,,,,AMP,right,0.4503504963067826,,,right,0,0.4503504963067826,0,,,,,,,,,,,,,,,,,,,,,,1065,2019_Mar_13_1501,mf_amp_cond1,3.0.4,60.00563874626387,
safe,ejanulated,&&&&&&&&&&,left,care.virtue,,,,,,,0,167,167,167,,,,,,,,,,,,,,,,,,,,,AMP,right,0.8337947926484048,,,right,0,0.8337947926484048,0,,,,,,,,,,,,,,,,,,,,,,1065,2019_Mar_13_1501,mf_amp_cond1,3.0.4,60.00563874626387,
victims,faspberry,&&&&&&&&&,right,care.vice,,,,,,,0,168,168,168,,,,,,,,,,,,,,,,,,,,,AMP,right,0.8503540883539245,,,right,1,0.8503540883539245,1,,,,,,,,,,,,,,,,,,,,,,1065,2019_Mar_13_1501,mf_amp_cond1,3.0.4,60.00563874626387,
clean,pharing,&&&&&&&,left,sanctity.virtue,,,,,,,0,169,169,169,,,,,,,,,,,,,,,,,,,,,AMP,left,0.5337005337059963,,,left,1,0.5337005337059963,1,,,,,,,,,,,,,,,,,,,,,,1065,2019_Mar_13_1501,mf_amp_cond1,3.0.4,60.00563874626387,
blamed,neneficence,&&&&&&&&&&&,right,loyalty.vice,,,,,,,0,170,170,170,,,,,,,,,,,,,,,,,,,,,AMP,right,0.3169537463982124,,,right,1,0.3169537463982124,1,,,,,,,,,,,,,,,,,,,,,,1065,2019_Mar_13_1501,mf_amp_cond1,3.0.4,60.00563874626387,
failure,ecgagement,&&&&&&&&&&,right,loyalty.vice,,,,,,,0,171,171,171,,,,,,,,,,,,,,,,,,,,,AMP,left,1.1005052265827544,,,left,0,1.1005052265827544,0,,,,,,,,,,,,,,,,,,,,,,1065,2019_Mar_13_1501,mf_amp_cond1,3.0.4,60.00563874626387,
violations,coom,&&&&,right,sanctity.vice,,,,,,,0,172,172,172,,,,,,,,,,,,,,,,,,,,,AMP,right,0.3836716851510573,,,right,1,0.3836716851510573,1,,,,,,,,,,,,,,,,,,,,,,1065,2019_Mar_13_1501,mf_amp_cond1,3.0.4,60.00563874626387,
intelligence,focomotive,&&&&&&&&&&,left,loyalty.virtue,,,,,,,0,173,173,173,,,,,,,,,,,,,,,,,,,,,AMP,right,0.5670388167782221,,,right,0,0.5670388167782221,0,,,,,,,,,,,,,,,,,,,,,,1065,2019_Mar_13_1501,mf_amp_cond1,3.0.4,60.00563874626387,
actively,glacenta,&&&&&&&&,left,authority.virtue,,,,,,,0,174,174,174,,,,,,,,,,,,,,,,,,,,,AMP,left,0.5670481176057365,,,left,1,0.5670481176057365,1,,,,,,,,,,,,,,,,,,,,,,1065,2019_Mar_13_1501,mf_amp_cond1,3.0.4,60.00563874626387,
strong,nuckheap,&&&&&&&&,left,loyalty.virtue,,,,,,,0,175,175,175,,,,,,,,,,,,,,,,,,,,,AMP,left,0.883798849710729,,,left,1,0.883798849710729,1,,,,,,,,,,,,,,,,,,,,,,1065,2019_Mar_13_1501,mf_amp_cond1,3.0.4,60.00563874626387,
increase,stindig,&&&&&&&,left,care.virtue,,,,,,,0,176,176,176,,,,,,,,,,,,,,,,,,,,,AMP,right,0.4336744593747426,,,right,0,0.4336744593747426,0,,,,,,,,,,,,,,,,,,,,,,1065,2019_Mar_13_1501,mf_amp_cond1,3.0.4,60.00563874626387,
rebels,divility,&&&&&&&&,right,authority.vice,,,,,,,0,177,177,177,,,,,,,,,,,,,,,,,,,,,AMP,right,0.6335992831154726,,,right,1,0.6335992831154726,1,,,,,,,,,,,,,,,,,,,,,,1065,2019_Mar_13_1501,mf_amp_cond1,3.0.4,60.00563874626387,
unpleasant,gournful,&&&&&&&&,None,control,,,,,,,0,178,178,178,,,,,,,,,,,,,,,,,,,,,AMP,left,0.5003622506337706,,,left,0,0.5003622506337706,0,,,,,,,,,,,,,,,,,,,,,,1065,2019_Mar_13_1501,mf_amp_cond1,3.0.4,60.00563874626387,
promote,gondensed,&&&&&&&&&,left,sanctity.virtue,,,,,,,0,179,179,179,,,,,,,,,,,,,,,,,,,,,AMP,right,0.45035017558257096,,,right,0,0.45035017558257096,0,,,,,,,,,,,,,,,,,,,,,,1065,2019_Mar_13_1501,mf_amp_cond1,3.0.4,60.00563874626387,
brotesque,slending,&&&&&&&&,None,nonword,,,,,,,0,180,180,180,,,,,,,,,,,,,,,,,,,,,AMP,left,0.5670481176057365,,,left,0,0.5670481176057365,0,,,,,,,,,,,,,,,,,,,,,,1065,2019_Mar_13_1501,mf_amp_cond1,3.0.4,60.00563874626387,
encourage,rorroborated,&&&&&&&&&&&&,left,authority.virtue,,,,,,,0,181,181,181,,,,,,,,,,,,,,,,,,,,,AMP,right,0.2336348186363466,,,right,0,0.2336348186363466,0,,,,,,,,,,,,,,,,,,,,,,1065,2019_Mar_13_1501,mf_amp_cond1,3.0.4,60.00563874626387,
fighters,taxpayung,&&&&&&&&&,right,authority.vice,,,,,,,0,182,182,182,,,,,,,,,,,,,,,,,,,,,AMP,left,0.650439527555136,,,left,0,0.650439527555136,0,,,,,,,,,,,,,,,,,,,,,,1065,2019_Mar_13_1501,mf_amp_cond1,3.0.4,60.00563874626387,
loyalty,ilportation,&&&&&&&&&&&,left,loyalty.virtue,,,,,,,0,183,183,183,,,,,,,,,,,,,,,,,,,,,AMP,left,0.41701574114267714,,,left,1,0.41701574114267714,1,,,,,,,,,,,,,,,,,,,,,,1065,2019_Mar_13_1501,mf_amp_cond1,3.0.4,60.00563874626387,
progress,godlaness,&&&&&&&&&,left,authority.virtue,,,,,,,0,184,184,184,,,,,,,,,,,,,,,,,,,,,AMP,left,0.4670188360614702,,,left,1,0.4670188360614702,1,,,,,,,,,,,,,,,,,,,,,,1065,2019_Mar_13_1501,mf_amp_cond1,3.0.4,60.00563874626387,
abuse,gazily,&&&&&&,right,sanctity.vice,,,,,,,0,185,185,185,,,,,,,,,,,,,,,,,,,,,AMP,left,0.9004819424590096,,,left,0,0.9004819424590096,0,,,,,,,,,,,,,,,,,,,,,,1065,2019_Mar_13_1501,mf_amp_cond1,3.0.4,60.00563874626387,
sliptery,iptervention,&&&&&&&&&&&&,None,nonword,,,,,,,0,186,186,186,,,,,,,,,,,,,,,,,,,,,AMP,right,0.5837135708716232,,,right,0,0.5837135708716232,0,,,,,,,,,,,,,,,,,,,,,,1065,2019_Mar_13_1501,mf_amp_cond1,3.0.4,60.00563874626387,
refused,pafer,&&&&&,right,authority.vice,,,,,,,0,187,187,187,,,,,,,,,,,,,,,,,,,,,AMP,right,0.7670858339988627,,,right,1,0.7670858339988627,1,,,,,,,,,,,,,,,,,,,,,,1065,2019_Mar_13_1501,mf_amp_cond1,3.0.4,60.00563874626387,
officers,tove,&&&&,right,authority.vice,,,,,,,0,188,188,188,,,,,,,,,,,,,,,,,,,,,AMP,right,0.5503724013397004,,,right,1,0.5503724013397004,1,,,,,,,,,,,,,,,,,,,,,,1065,2019_Mar_13_1501,mf_amp_cond1,3.0.4,60.00563874626387,
police,erdest,&&&&&&,right,authority.vice,,,,,,,0,189,189,189,,,,,,,,,,,,,,,,,,,,,AMP,left,0.46686617445084266,,,left,0,0.46686617445084266,0,,,,,,,,,,,,,,,,,,,,,,1065,2019_Mar_13_1501,mf_amp_cond1,3.0.4,60.00563874626387,
forced,chonograph,&&&&&&&&&&,right,fairness.vice,,,,,,,0,190,190,190,,,,,,,,,,,,,,,,,,,,,AMP,right,0.2836440071987454,,,right,1,0.2836440071987454,1,,,,,,,,,,,,,,,,,,,,,,1065,2019_Mar_13_1501,mf_amp_cond1,3.0.4,60.00563874626387,
terrorists,Lacedonia,&&&&&&&&&,right,fairness.vice,,,,,,,0,191,191,191,,,,,,,,,,,,,,,,,,,,,AMP,left,0.7170750418445095,,,left,0,0.7170750418445095,0,,,,,,,,,,,,,,,,,,,,,,1065,2019_Mar_13_1501,mf_amp_cond1,3.0.4,60.00563874626387,
accused,grovelire,&&&&&&&&&,right,fairness.vice,,,,,,,0,192,192,192,,,,,,,,,,,,,,,,,,,,,AMP,left,0.4670428898825776,,,left,0,0.4670428898825776,0,,,,,,,,,,,,,,,,,,,,,,1065,2019_Mar_13_1501,mf_amp_cond1,3.0.4,60.00563874626387,
baladroit,pullness,&&&&&&&&,None,nonword,,,,,,,0,193,193,193,,,,,,,,,,,,,,,,,,,,,AMP,left,0.6337359088647645,,,left,0,0.6337359088647645,0,,,,,,,,,,,,,,,,,,,,,,1065,2019_Mar_13_1501,mf_amp_cond1,3.0.4,60.00563874626387,
openet,wonderfujnoss,&&&&&&&&&&&&&,None,nonword,,,,,,,0,194,194,194,,,,,,,,,,,,,,,,,,,,,AMP,right,0.5003564776852727,,,right,0,0.5003564776852727,0,,,,,,,,,,,,,,,,,,,,,,1065,2019_Mar_13_1501,mf_amp_cond1,3.0.4,60.00563874626387,
groups,menizen,&&&&&&&,right,loyalty.vice,,,,,,,0,195,195,195,,,,,,,,,,,,,,,,,,,,,AMP,left,0.5670372131862678,,,left,0,0.5670372131862678,0,,,,,,,,,,,,,,,,,,,,,,1065,2019_Mar_13_1501,mf_amp_cond1,3.0.4,60.00563874626387,
commitment,discovars,&&&&&&&&&,left,sanctity.virtue,,,,,,,0,196,196,196,,,,,,,,,,,,,,,,,,,,,AMP,left,0.43366676213918254,,,left,1,0.43366676213918254,1,,,,,,,,,,,,,,,,,,,,,,1065,2019_Mar_13_1501,mf_amp_cond1,3.0.4,60.00563874626387,
nackers,unreflectuve,&&&&&&&&&&&&,None,nonword,,,,,,,0,197,197,197,,,,,,,,,,,,,,,,,,,,,AMP,right,0.3336525543418247,,,right,0,0.3336525543418247,0,,,,,,,,,,,,,,,,,,,,,,1065,2019_Mar_13_1501,mf_amp_cond1,3.0.4,60.00563874626387,
suicide,Phintoism,&&&&&&&&&,right,care.vice,,,,,,,0,198,198,198,,,,,,,,,,,,,,,,,,,,,AMP,left,0.3003133090969641,,,left,0,0.3003133090969641,0,,,,,,,,,,,,,,,,,,,,,,1065,2019_Mar_13_1501,mf_amp_cond1,3.0.4,60.00563874626387,
fair,vicissifude,&&&&&&&&&&&,left,fairness.virtue,,,,,,,0,199,199,199,,,,,,,,,,,,,,,,,,,,,AMP,left,0.4336821565811988,,,left,1,0.4336821565811988,1,,,,,,,,,,,,,,,,,,,,,,1065,2019_Mar_13_1501,mf_amp_cond1,3.0.4,60.00563874626387,
great,ebbitter,&&&&&&&&,left,loyalty.virtue,,,,,,,0,200,200,200,,,,,,,,,,,,,,,,,,,,,AMP,left,0.36699661033344455,,,left,1,0.36699661033344455,1,,,,,,,,,,,,,,,,,,,,,,1065,2019_Mar_13_1501,mf_amp_cond1,3.0.4,60.00563874626387,
terrorist,allears,&&&&&&&,right,loyalty.vice,,,,,,,0,201,201,201,,,,,,,,,,,,,,,,,,,,,AMP,left,0.0667772715096362,,,left,0,0.0667772715096362,0,,,,,,,,,,,,,,,,,,,,,,1065,2019_Mar_13_1501,mf_amp_cond1,3.0.4,60.00563874626387,
opportunity,ammessment,&&&&&&&&&&,left,fairness.virtue,,,,,,,0,202,202,202,,,,,,,,,,,,,,,,,,,,,AMP,right,3.751140391919762,,,right,0,3.751140391919762,0,,,,,,,,,,,,,,,,,,,,,,1065,2019_Mar_13_1501,mf_amp_cond1,3.0.4,60.00563874626387,
compassion,festate,&&&&&&&,left,care.virtue,,,,,,,0,203,203,203,,,,,,,,,,,,,,,,,,,,,AMP,left,0.7837811140343547,,,left,1,0.7837811140343547,1,,,,,,,,,,,,,,,,,,,,,,1065,2019_Mar_13_1501,mf_amp_cond1,3.0.4,60.00563874626387,
safety,touls,&&&&&,left,care.virtue,,,,,,,0,204,204,204,,,,,,,,,,,,,,,,,,,,,AMP,left,1.0171535856206901,,,left,1,1.0171535856206901,1,,,,,,,,,,,,,,,,,,,,,,1065,2019_Mar_13_1501,mf_amp_cond1,3.0.4,60.00563874626387,
improve,metibolic,&&&&&&&&&,left,care.virtue,,,,,,,0,205,205,205,,,,,,,,,,,,,,,,,,,,,AMP,left,0.9338006617617793,,,left,1,0.9338006617617793,1,,,,,,,,,,,,,,,,,,,,,,1065,2019_Mar_13_1501,mf_amp_cond1,3.0.4,60.00563874626387,
sharing,bluently,&&&&&&&&,left,loyalty.virtue,,,,,,,0,206,206,206,,,,,,,,,,,,,,,,,,,,,AMP,right,0.600385759229539,,,right,0,0.600385759229539,0,,,,,,,,,,,,,,,,,,,,,,1065,2019_Mar_13_1501,mf_amp_cond1,3.0.4,60.00563874626387,
riot,mecan,&&&&&,right,authority.vice,,,,,,,0,207,207,207,,,,,,,,,,,,,,,,,,,,,AMP,left,0.800452660972951,,,left,0,0.800452660972951,0,,,,,,,,,,,,,,,,,,,,,,1065,2019_Mar_13_1501,mf_amp_cond1,3.0.4,60.00563874626387,
useful,halaise,&&&&&&&,left,authority.virtue,,,,,,,0,208,208,208,,,,,,,,,,,,,,,,,,,,,AMP,left,0.13360072634532116,,,left,1,0.13360072634532116,1,,,,,,,,,,,,,,,,,,,,,,1065,2019_Mar_13_1501,mf_amp_cond1,3.0.4,60.00563874626387,
attacks,hasks,&&&&&,right,care.vice,,,,,,,0,209,209,209,,,,,,,,,,,,,,,,,,,,,AMP,left,0.4503537035197951,,,left,0,0.4503537035197951,0,,,,,,,,,,,,,,,,,,,,,,1065,2019_Mar_13_1501,mf_amp_cond1,3.0.4,60.00563874626387,
men,crinking,&&&&&&&&,right,loyalty.vice,,,,,,,0,210,210,210,,,,,,,,,,,,,,,,,,,,,AMP,left,0.5670394582266454,,,left,0,0.5670394582266454,0,,,,,,,,,,,,,,,,,,,,,,1065,2019_Mar_13_1501,mf_amp_cond1,3.0.4,60.00563874626387,
conspiracy,viscs,&&&&&,right,sanctity.vice,,,,,,,0,211,211,211,,,,,,,,,,,,,,,,,,,,,AMP,left,0.850452869432047,,,left,0,0.850452869432047,0,,,,,,,,,,,,,,,,,,,,,,1065,2019_Mar_13_1501,mf_amp_cond1,3.0.4,60.00563874626387,
victim,sowntrodden,&&&&&&&&&&&,right,care.vice,,,,,,,0,212,212,212,,,,,,,,,,,,,,,,,,,,,AMP,left,0.4503553070826456,,,left,0,0.4503553070826456,0,,,,,,,,,,,,,,,,,,,,,,1065,2019_Mar_13_1501,mf_amp_cond1,3.0.4,60.00563874626387,
credit,ning,&&&&,left,fairness.virtue,,,,,,,0,213,213,213,,,,,,,,,,,,,,,,,,,,,AMP,left,0.1669595353596378,,,left,1,0.1669595353596378,1,,,,,,,,,,,,,,,,,,,,,,1065,2019_Mar_13_1501,mf_amp_cond1,3.0.4,60.00563874626387,
drug,prones,&&&&&&,right,sanctity.vice,,,,,,,0,214,214,214,,,,,,,,,,,,,,,,,,,,,AMP,left,0.8004452844324987,,,left,0,0.8004452844324987,0,,,,,,,,,,,,,,,,,,,,,,1065,2019_Mar_13_1501,mf_amp_cond1,3.0.4,60.00563874626387,
violence,gationwide,&&&&&&&&&&,right,care.vice,,,,,,,0,215,215,215,,,,,,,,,,,,,,,,,,,,,AMP,left,0.48369198659202084,,,left,0,0.48369198659202084,0,,,,,,,,,,,,,,,,,,,,,,1065,2019_Mar_13_1501,mf_amp_cond1,3.0.4,60.00563874626387,
baklara,ronviolence,&&&&&&&&&&&,None,nonword,,,,,,,0,216,216,216,,,,,,,,,,,,,,,,,,,,,AMP,left,0.48369455232750624,,,left,0,0.48369455232750624,0,,,,,,,,,,,,,,,,,,,,,,1065,2019_Mar_13_1501,mf_amp_cond1,3.0.4,60.00563874626387,
ability,presentkess,&&&&&&&&&&&,left,authority.virtue,,,,,,,0,217,217,217,,,,,,,,,,,,,,,,,,,,,AMP,left,0.8671157569333445,,,left,1,0.8671157569333445,1,,,,,,,,,,,,,,,,,,,,,,1065,2019_Mar_13_1501,mf_amp_cond1,3.0.4,60.00563874626387,
protesters,chreams,&&&&&&&,right,authority.vice,,,,,,,0,218,218,218,,,,,,,,,,,,,,,,,,,,,AMP,left,1.0504950758768246,,,left,0,1.0504950758768246,0,,,,,,,,,,,,,,,,,,,,,,1065,2019_Mar_13_1501,mf_amp_cond1,3.0.4,60.00563874626387,
interests,bycled,&&&&&&,left,fairness.virtue,,,,,,,0,219,219,219,,,,,,,,,,,,,,,,,,,,,AMP,left,0.4670066488033626,,,left,1,0.4670066488033626,1,,,,,,,,,,,,,,,,,,,,,,1065,2019_Mar_13_1501,mf_amp_cond1,3.0.4,60.00563874626387,
scandal,carvels,&&&&&&&,right,sanctity.vice,,,,,,,0,220,220,220,,,,,,,,,,,,,,,,,,,,,AMP,left,0.9669859625282697,,,left,0,0.9669859625282697,0,,,,,,,,,,,,,,,,,,,,,,1065,2019_Mar_13_1501,mf_amp_cond1,3.0.4,60.00563874626387,
health,reelectiob,&&&&&&&&&&,left,care.virtue,,,,,,,0,221,221,221,,,,,,,,,,,,,,,,,,,,,AMP,left,0.8004292485420592,,,left,1,0.8004292485420592,1,,,,,,,,,,,,,,,,,,,,,,1065,2019_Mar_13_1501,mf_amp_cond1,3.0.4,60.00563874626387,
threatened,ablow,&&&&&,right,fairness.vice,,,,,,,0,222,222,222,,,,,,,,,,,,,,,,,,,,,AMP,left,1.2338683011184912,,,left,0,1.2338683011184912,0,,,,,,,,,,,,,,,,,,,,,,1065,2019_Mar_13_1501,mf_amp_cond1,3.0.4,60.00563874626387,
betrayal,dumid,&&&&&,right,loyalty.vice,,,,,,,0,223,223,223,,,,,,,,,,,,,,,,,,,,,AMP,left,0.3668548531131819,,,left,0,0.3668548531131819,0,,,,,,,,,,,,,,,,,,,,,,1065,2019_Mar_13_1501,mf_amp_cond1,3.0.4,60.00563874626387,
help,hescribe,&&&&&&&&,left,care.virtue,,,,,,,0,224,224,224,,,,,,,,,,,,,,,,,,,,,AMP,left,0.15028221553075127,,,left,1,0.15028221553075127,1,,,,,,,,,,,,,,,,,,,,,,1065,2019_Mar_13_1501,mf_amp_cond1,3.0.4,60.00563874626387,
ensure,oam,&&&,left,fairness.virtue,,,,,,,0,225,225,225,,,,,,,,,,,,,,,,,,,,,AMP,right,0.7337478716217447,,,right,0,0.7337478716217447,0,,,,,,,,,,,,,,,,,,,,,,1065,2019_Mar_13_1501,mf_amp_cond1,3.0.4,60.00563874626387,
respect,gusinesslike,&&&&&&&&&&&&,left,sanctity.virtue,,,,,,,0,226,226,226,,,,,,,,,,,,,,,,,,,,,AMP,right,0.7337623039493337,,,right,0,0.7337623039493337,0,,,,,,,,,,,,,,,,,,,,,,1065,2019_Mar_13_1501,mf_amp_cond1,3.0.4,60.00563874626387,
army,sidearbs,&&&&&&&&,right,loyalty.vice,,,,,,,0,227,227,227,,,,,,,,,,,,,,,,,,,,,AMP,right,0.9838181889790576,,,right,1,0.9838181889790576,1,,,,,,,,,,,,,,,,,,,,,,1065,2019_Mar_13_1501,mf_amp_cond1,3.0.4,60.00563874626387,
honored,lenon,&&&&&,left,authority.virtue,,,,,,,0,228,228,228,,,,,,,,,,,,,,,,,,,,,AMP,left,1.8340471974515822,,,left,1,1.8340471974515822,1,,,,,,,,,,,,,,,,,,,,,,1065,2019_Mar_13_1501,mf_amp_cond1,3.0.4,60.00563874626387,
hate,Daptist,&&&&&&&,right,fairness.vice,,,,,,,0,229,229,229,,,,,,,,,,,,,,,,,,,,,AMP,left,0.1502873470308259,,,left,0,0.1502873470308259,0,,,,,,,,,,,,,,,,,,,,,,1065,2019_Mar_13_1501,mf_amp_cond1,3.0.4,60.00563874626387,
values,tabin,&&&&&,left,sanctity.virtue,,,,,,,0,230,230,230,,,,,,,,,,,,,,,,,,,,,AMP,right,0.31698453534045257,,,right,0,0.31698453534045257,0,,,,,,,,,,,,,,,,,,,,,,1065,2019_Mar_13_1501,mf_amp_cond1,3.0.4,60.00563874626387,
serial,lempestuous,&&&&&&&&&&&,right,sanctity.vice,,,,,,,0,231,231,231,,,,,,,,,,,,,,,,,,,,,AMP,left,0.4336811944085639,,,left,0,0.4336811944085639,0,,,,,,,,,,,,,,,,,,,,,,1065,2019_Mar_13_1501,mf_amp_cond1,3.0.4,60.00563874626387,
pleasant,infet,&&&&&,None,control,,,,,,,0,232,232,232,,,,,,,,,,,,,,,,,,,,,AMP,right,0.5670487590250559,,,right,0,0.5670487590250559,0,,,,,,,,,,,,,,,,,,,,,,1065,2019_Mar_13_1501,mf_amp_cond1,3.0.4,60.00563874626387,
gikely,vurtain,&&&&&&&,None,nonword,,,,,,,0,233,233,233,,,,,,,,,,,,,,,,,,,,,AMP,left,0.3337436381552834,,,left,0,0.3337436381552834,0,,,,,,,,,,,,,,,,,,,,,,1065,2019_Mar_13_1501,mf_amp_cond1,3.0.4,60.00563874626387,
perified,sickyay,&&&&&&&,None,nonword,,,,,,,0,234,234,234,,,,,,,,,,,,,,,,,,,,,AMP,right,0.5670362510427367,,,right,0,0.5670362510427367,0,,,,,,,,,,,,,,,,,,,,,,1065,2019_Mar_13_1501,mf_amp_cond1,3.0.4,60.00563874626387,
embrace,hefurbished,&&&&&&&&&&&,left,authority.virtue,,,,,,,0,235,235,235,,,,,,,,,,,,,,,,,,,,,AMP,left,0.7004615448240656,,,left,1,0.7004615448240656,1,,,,,,,,,,,,,,,,,,,,,,1065,2019_Mar_13_1501,mf_amp_cond1,3.0.4,60.00563874626387,
hope,nomparisons,&&&&&&&&&&&,left,loyalty.virtue,,,,,,,0,236,236,236,,,,,,,,,,,,,,,,,,,,,AMP,left,0.6003812692069914,,,left,1,0.6003812692069914,1,,,,,,,,,,,,,,,,,,,,,,1065,2019_Mar_13_1501,mf_amp_cond1,3.0.4,60.00563874626387,
corruption,scalbel,&&&&&&&,right,sanctity.vice,,,,,,,0,237,237,237,,,,,,,,,,,,,,,,,,,,,AMP,left,0.7671005870215595,,,left,0,0.7671005870215595,0,,,,,,,,,,,,,,,,,,,,,,1065,2019_Mar_13_1501,mf_amp_cond1,3.0.4,60.00563874626387,
crime,gillipede,&&&&&&&&&,right,fairness.vice,,,,,,,0,238,238,238,,,,,,,,,,,,,,,,,,,,,AMP,left,0.3169957604550291,,,left,0,0.3169957604550291,0,,,,,,,,,,,,,,,,,,,,,,1065,2019_Mar_13_1501,mf_amp_cond1,3.0.4,60.00563874626387,
civilians,unscothed,&&&&&&&&&,right,care.vice,,,,,,,0,239,239,239,,,,,,,,,,,,,,,,,,,,,AMP,left,0.9671495285292622,,,left,0,0.9671495285292622,0,,,,,,,,,,,,,,,,,,,,,,1065,2019_Mar_13_1501,mf_amp_cond1,3.0.4,60.00563874626387,
promises,pescinded,&&&&&&&&&,left,fairness.virtue,,,,,,,0,240,240,240,,,,,,,,,,,,,,,,,,,,,AMP,right,0.3169915910984855,,,right,0,0.3169915910984855,0,,,,,,,,,,,,,,,,,,,,,,1065,2019_Mar_13_1501,mf_amp_cond1,3.0.4,60.00563874626387,
injured,tracious,&&&&&&&&,right,care.vice,,,,,,,0,241,241,241,,,,,,,,,,,,,,,,,,,,,AMP,left,1.9173648423457053,,,left,0,1.9173648423457053,0,,,,,,,,,,,,,,,,,,,,,,1065,2019_Mar_13_1501,mf_amp_cond1,3.0.4,60.00563874626387,
benefit,pumber,&&&&&&,left,fairness.virtue,,,,,,,0,242,242,242,,,,,,,,,,,,,,,,,,,,,AMP,right,0.3503266669868026,,,right,0,0.3503266669868026,0,,,,,,,,,,,,,,,,,,,,,,1065,2019_Mar_13_1501,mf_amp_cond1,3.0.4,60.00563874626387,
love,squets,&&&&&&,left,loyalty.virtue,,,,,,,0,243,243,243,,,,,,,,,,,,,,,,,,,,,AMP,left,0.36699308242532425,,,left,1,0.36699308242532425,1,,,,,,,,,,,,,,,,,,,,,,1065,2019_Mar_13_1501,mf_amp_cond1,3.0.4,60.00563874626387,
strength,smapper,&&&&&&&,left,sanctity.virtue,,,,,,,0,244,244,244,,,,,,,,,,,,,,,,,,,,,AMP,right,0.35032506339484826,,,right,0,0.35032506339484826,0,,,,,,,,,,,,,,,,,,,,,,1065,2019_Mar_13_1501,mf_amp_cond1,3.0.4,60.00563874626387,
seachwear,sonvoy,&&&&&&,None,nonword,,,,,,,0,245,245,245,,,,,,,,,,,,,,,,,,,,,AMP,right,0.500372513604816,,,right,0,0.500372513604816,0,,,,,,,,,,,,,,,,,,,,,,1065,2019_Mar_13_1501,mf_amp_cond1,3.0.4,60.00563874626387,
help,metibolic,&&&&&&&&&,left,care.virtue,,,,,,,0,246,246,246,,,,,,,,,,,,,,,,,,,,,AMP,right,0.28364080004394054,,,right,0,0.28364080004394054,0,,,,,,,,,,,,,,,,,,,,,,1065,2019_Mar_13_1501,mf_amp_cond1,3.0.4,60.00563874626387,
hate,vicissifude,&&&&&&&&&&&,right,fairness.vice,,,,,,,0,247,247,247,,,,,,,,,,,,,,,,,,,,,AMP,left,0.4670236468373332,,,left,0,0.4670236468373332,0,,,,,,,,,,,,,,,,,,,,,,1065,2019_Mar_13_1501,mf_amp_cond1,3.0.4,60.00563874626387,
failure,lempestuous,&&&&&&&&&&&,right,loyalty.vice,,,,,,,0,248,248,248,,,,,,,,,,,,,,,,,,,,,AMP,left,0.35033211921108887,,,left,0,0.35033211921108887,0,,,,,,,,,,,,,,,,,,,,,,1065,2019_Mar_13_1501,mf_amp_cond1,3.0.4,60.00563874626387,
groups,edancipation,&&&&&&&&&&&&,right,loyalty.vice,,,,,,,0,249,249,249,,,,,,,,,,,,,,,,,,,,,AMP,right,0.1669531210209243,,,right,1,0.1669531210209243,1,,,,,,,,,,,,,,,,,,,,,,1065,2019_Mar_13_1501,mf_amp_cond1,3.0.4,60.00563874626387,
strength,pharing,&&&&&&&,left,sanctity.virtue,,,,,,,0,250,250,250,,,,,,,,,,,,,,,,,,,,,AMP,left,0.4670194775098935,,,left,1,0.4670194775098935,1,,,,,,,,,,,,,,,,,,,,,,1065,2019_Mar_13_1501,mf_amp_cond1,3.0.4,60.00563874626387,
actively,unscothed,&&&&&&&&&,left,authority.virtue,,,,,,,0,251,251,251,,,,,,,,,,,,,,,,,,,,,AMP,left,0.13362349732778966,,,left,1,0.13362349732778966,1,,,,,,,,,,,,,,,,,,,,,,1065,2019_Mar_13_1501,mf_amp_cond1,3.0.4,60.00563874626387,
blamed,squets,&&&&&&,right,loyalty.vice,,,,,,,0,252,252,252,,,,,,,,,,,,,,,,,,,,,AMP,right,0.10025314247468486,,,right,1,0.10025314247468486,1,,,,,,,,,,,,,,,,,,,,,,1065,2019_Mar_13_1501,mf_amp_cond1,3.0.4,60.00563874626387,
openet,bycled,&&&&&&,None,nonword,,,,,,,0,253,253,253,,,,,,,,,,,,,,,,,,,,,AMP,right,0.5837090808199719,,,right,0,0.5837090808199719,0,,,,,,,,,,,,,,,,,,,,,,1065,2019_Mar_13_1501,mf_amp_cond1,3.0.4,60.00563874626387,
terrorists,ejanulated,&&&&&&&&&&,right,fairness.vice,,,,,,,0,254,254,254,,,,,,,,,,,,,,,,,,,,,AMP,left,0.366987309535034,,,left,0,0.366987309535034,0,,,,,,,,,,,,,,,,,,,,,,1065,2019_Mar_13_1501,mf_amp_cond1,3.0.4,60.00563874626387,
sharing,neneficence,&&&&&&&&&&&,left,loyalty.virtue,,,,,,,0,255,255,255,,,,,,,,,,,,,,,,,,,,,AMP,right,0.6170592304551974,,,right,0,0.6170592304551974,0,,,,,,,,,,,,,,,,,,,,,,1065,2019_Mar_13_1501,mf_amp_cond1,3.0.4,60.00563874626387,
embrace,tabin,&&&&&,left,authority.virtue,,,,,,,0,256,256,256,,,,,,,,,,,,,,,,,,,,,AMP,left,0.35036836031940766,,,left,1,0.35036836031940766,1,,,,,,,,,,,,,,,,,,,,,,1065,2019_Mar_13_1501,mf_amp_cond1,3.0.4,60.00563874626387,
values,gillipede,&&&&&&&&&,left,sanctity.virtue,,,,,,,0,257,257,257,,,,,,,,,,,,,,,,,,,,,AMP,left,0.2169578195316717,,,left,1,0.2169578195316717,1,,,,,,,,,,,,,,,,,,,,,,1065,2019_Mar_13_1501,mf_amp_cond1,3.0.4,60.00563874626387,
credit,sidearbs,&&&&&&&&,left,fairness.virtue,,,,,,,0,258,258,258,,,,,,,,,,,,,,,,,,,,,AMP,right,0.3336493471870199,,,right,0,0.3336493471870199,0,,,,,,,,,,,,,,,,,,,,,,1065,2019_Mar_13_1501,mf_amp_cond1,3.0.4,60.00563874626387,
police,ammessment,&&&&&&&&&&,right,authority.vice,,,,,,,0,259,259,259,,,,,,,,,,,,,,,,,,,,,AMP,left,0.5003497426514514,,,left,0,0.5003497426514514,0,,,,,,,,,,,,,,,,,,,,,,1065,2019_Mar_13_1501,mf_amp_cond1,3.0.4,60.00563874626387,
crime,smapper,&&&&&&&,right,fairness.vice,,,,,,,0,260,260,260,,,,,,,,,,,,,,,,,,,,,AMP,right,0.36700623188517056,,,right,1,0.36700623188517056,1,,,,,,,,,,,,,,,,,,,,,,1065,2019_Mar_13_1501,mf_amp_cond1,3.0.4,60.00563874626387,
victims,gournful,&&&&&&&&,right,care.vice,,,,,,,0,261,261,261,,,,,,,,,,,,,,,,,,,,,AMP,right,0.6337211558711715,,,right,1,0.6337211558711715,1,,,,,,,,,,,,,,,,,,,,,,1065,2019_Mar_13_1501,mf_amp_cond1,3.0.4,60.00563874626387,
intelligence,ning,&&&&,left,loyalty.virtue,,,,,,,0,262,262,262,,,,,,,,,,,,,,,,,,,,,AMP,left,0.6504090593662113,,,left,1,0.6504090593662113,1,,,,,,,,,,,,,,,,,,,,,,1065,2019_Mar_13_1501,mf_amp_cond1,3.0.4,60.00563874626387,
clean,nomparisons,&&&&&&&&&&&,left,sanctity.virtue,,,,,,,0,263,263,263,,,,,,,,,,,,,,,,,,,,,AMP,right,1.1672183545597363,,,right,0,1.1672183545597363,0,,,,,,,,,,,,,,,,,,,,,,1065,2019_Mar_13_1501,mf_amp_cond1,3.0.4,60.00563874626387,
injured,gazily,&&&&&&,right,care.vice,,,,,,,0,264,264,264,,,,,,,,,,,,,,,,,,,,,AMP,right,0.7004118335607927,,,right,1,0.7004118335607927,1,,,,,,,,,,,,,,,,,,,,,,1065,2019_Mar_13_1501,mf_amp_cond1,3.0.4,60.00563874626387,
safety,bluently,&&&&&&&&,left,care.virtue,,,,,,,0,265,265,265,,,,,,,,,,,,,,,,,,,,,AMP,right,0.10027463056030683,,,right,0,0.10027463056030683,0,,,,,,,,,,,,,,,,,,,,,,1065,2019_Mar_13_1501,mf_amp_cond1,3.0.4,60.00563874626387,
pleasant,touls,&&&&&,None,control,,,,,,,0,266,266,266,,,,,,,,,,,,,,,,,,,,,AMP,right,0.7669851286627818,,,right,0,0.7669851286627818,0,,,,,,,,,,,,,,,,,,,,,,1065,2019_Mar_13_1501,mf_amp_cond1,3.0.4,60.00563874626387,
riot,pescinded,&&&&&&&&&,right,authority.vice,,,,,,,0,267,267,267,,,,,,,,,,,,,,,,,,,,,AMP,right,0.5337156074529048,,,right,1,0.5337156074529048,1,,,,,,,,,,,,,,,,,,,,,,1065,2019_Mar_13_1501,mf_amp_cond1,3.0.4,60.00563874626387,
army,viscs,&&&&&,right,loyalty.vice,,,,,,,0,268,268,268,,,,,,,,,,,,,,,,,,,,,AMP,left,0.5170097437221557,,,left,0,0.5170097437221557,0,,,,,,,,,,,,,,,,,,,,,,1065,2019_Mar_13_1501,mf_amp_cond1,3.0.4,60.00563874626387,
threatened,discovars,&&&&&&&&&,right,fairness.vice,,,,,,,0,269,269,269,,,,,,,,,,,,,,,,,,,,,AMP,left,0.3836668743751943,,,left,0,0.3836668743751943,0,,,,,,,,,,,,,,,,,,,,,,1065,2019_Mar_13_1501,mf_amp_cond1,3.0.4,60.00563874626387,
respect,hefurbished,&&&&&&&&&&&,left,sanctity.virtue,,,,,,,0,270,270,270,,,,,,,,,,,,,,,,,,,,,AMP,left,0.5170504748821259,,,left,1,0.5170504748821259,1,,,,,,,,,,,,,,,,,,,,,,1065,2019_Mar_13_1501,mf_amp_cond1,3.0.4,60.00563874626387,
interests,sonvoy,&&&&&&,left,fairness.virtue,,,,,,,0,271,271,271,,,,,,,,,,,,,,,,,,,,,AMP,right,0.26695674515212886,,,right,0,0.26695674515212886,0,,,,,,,,,,,,,,,,,,,,,,1065,2019_Mar_13_1501,mf_amp_cond1,3.0.4,60.00563874626387,
unpleasant,allears,&&&&&&&,None,control,,,,,,,0,272,272,272,,,,,,,,,,,,,,,,,,,,,AMP,left,1.3339043177256826,,,left,0,1.3339043177256826,0,,,,,,,,,,,,,,,,,,,,,,1065,2019_Mar_13_1501,mf_amp_cond1,3.0.4,60.00563874626387,
conspiracy,divility,&&&&&&&&,right,sanctity.vice,,,,,,,0,273,273,273,,,,,,,,,,,,,,,,,,,,,AMP,right,0.16691271058516577,,,right,1,0.16691271058516577,1,,,,,,,,,,,,,,,,,,,,,,1065,2019_Mar_13_1501,mf_amp_cond1,3.0.4,60.00563874626387,
baladroit,ebbitter,&&&&&&&&,None,nonword,,,,,,,0,274,274,274,,,,,,,,,,,,,,,,,,,,,AMP,left,0.5337027787172701,,,left,0,0.5337027787172701,0,,,,,,,,,,,,,,,,,,,,,,1065,2019_Mar_13_1501,mf_amp_cond1,3.0.4,60.00563874626387,
antral,presentkess,&&&&&&&&&&&,None,nonword,,,,,,,0,275,275,275,,,,,,,,,,,,,,,,,,,,,AMP,left,0.3836687986913603,,,left,0,0.3836687986913603,0,,,,,,,,,,,,,,,,,,,,,,1065,2019_Mar_13_1501,mf_amp_cond1,3.0.4,60.00563874626387,
love,chonograph,&&&&&&&&&&,left,loyalty.virtue,,,,,,,0,276,276,276,,,,,,,,,,,,,,,,,,,,,AMP,right,0.5337149660044815,,,right,0,0.5337149660044815,0,,,,,,,,,,,,,,,,,,,,,,1065,2019_Mar_13_1501,mf_amp_cond1,3.0.4,60.00563874626387,
honored,gondensed,&&&&&&&&&,left,authority.virtue,,,,,,,0,277,277,277,,,,,,,,,,,,,,,,,,,,,AMP,left,0.2836478558019735,,,left,1,0.2836478558019735,1,,,,,,,,,,,,,,,,,,,,,,1065,2019_Mar_13_1501,mf_amp_cond1,3.0.4,60.00563874626387,
safe,hescribe,&&&&&&&&,left,care.virtue,,,,,,,0,278,278,278,,,,,,,,,,,,,,,,,,,,,AMP,right,0.467006328079151,,,right,0,0.467006328079151,0,,,,,,,,,,,,,,,,,,,,,,1065,2019_Mar_13_1501,mf_amp_cond1,3.0.4,60.00563874626387,
loyalty,scalbel,&&&&&&&,left,loyalty.virtue,,,,,,,0,279,279,279,,,,,,,,,,,,,,,,,,,,,AMP,left,0.4670124217227567,,,left,1,0.4670124217227567,1,,,,,,,,,,,,,,,,,,,,,,1065,2019_Mar_13_1501,mf_amp_cond1,3.0.4,60.00563874626387,
accused,mecan,&&&&&,right,fairness.vice,,,,,,,0,280,280,280,,,,,,,,,,,,,,,,,,,,,AMP,left,0.5337075894931331,,,left,0,0.5337075894931331,0,,,,,,,,,,,,,,,,,,,,,,1065,2019_Mar_13_1501,mf_amp_cond1,3.0.4,60.00563874626387,
increase,ilportation,&&&&&&&&&&&,left,care.virtue,,,,,,,0,281,281,281,,,,,,,,,,,,,,,,,,,,,AMP,left,0.7002614169905428,,,left,1,0.7002614169905428,1,,,,,,,,,,,,,,,,,,,,,,1065,2019_Mar_13_1501,mf_amp_cond1,3.0.4,60.00563874626387,
fair,oam,&&&,left,fairness.virtue,,,,,,,0,282,282,282,,,,,,,,,,,,,,,,,,,,,AMP,right,0.5504336584417615,,,right,0,0.5504336584417615,0,,,,,,,,,,,,,,,,,,,,,,1065,2019_Mar_13_1501,mf_amp_cond1,3.0.4,60.00563874626387,
strong,wonderfujnoss,&&&&&&&&&&&&&,left,loyalty.virtue,,,,,,,0,283,283,283,,,,,,,,,,,,,,,,,,,,,AMP,right,1.3339104113692883,,,right,0,1.3339104113692883,0,,,,,,,,,,,,,,,,,,,,,,1065,2019_Mar_13_1501,mf_amp_cond1,3.0.4,60.00563874626387,
fighters,ecgagement,&&&&&&&&&&,right,authority.vice,,,,,,,0,284,284,284,,,,,,,,,,,,,,,,,,,,,AMP,left,0.41701702401041985,,,left,0,0.41701702401041985,0,,,,,,,,,,,,,,,,,,,,,,1065,2019_Mar_13_1501,mf_amp_cond1,3.0.4,60.00563874626387,
rebels,pafer,&&&&&,right,authority.vice,,,,,,,0,285,285,285,,,,,,,,,,,,,,,,,,,,,AMP,right,0.367002062528627,,,right,1,0.367002062528627,1,,,,,,,,,,,,,,,,,,,,,,1065,2019_Mar_13_1501,mf_amp_cond1,3.0.4,60.00563874626387,
promote,infet,&&&&&,left,sanctity.virtue,,,,,,,0,286,286,286,,,,,,,,,,,,,,,,,,,,,AMP,right,0.7837541737535503,,,right,0,0.7837541737535503,0,,,,,,,,,,,,,,,,,,,,,,1065,2019_Mar_13_1501,mf_amp_cond1,3.0.4,60.00563874626387,
ability,ablow,&&&&&,left,authority.virtue,,,,,,,0,287,287,287,,,,,,,,,,,,,,,,,,,,,AMP,right,0.3336695523757953,,,right,0,0.3336695523757953,0,,,,,,,,,,,,,,,,,,,,,,1065,2019_Mar_13_1501,mf_amp_cond1,3.0.4,60.00563874626387,
compassion,crinking,&&&&&&&&,left,care.virtue,,,,,,,0,288,288,288,,,,,,,,,,,,,,,,,,,,,AMP,left,0.46700729022268206,,,left,1,0.46700729022268206,1,,,,,,,,,,,,,,,,,,,,,,1065,2019_Mar_13_1501,mf_amp_cond1,3.0.4,60.00563874626387,
serial,unreflectuve,&&&&&&&&&&&&,right,sanctity.vice,,,,,,,0,289,289,289,,,,,,,,,,,,,,,,,,,,,AMP,left,0.1169314244762063,,,left,0,0.1169314244762063,0,,,,,,,,,,,,,,,,,,,,,,1065,2019_Mar_13_1501,mf_amp_cond1,3.0.4,60.00563874626387,
useful,grovelire,&&&&&&&&&,left,authority.virtue,,,,,,,0,290,290,290,,,,,,,,,,,,,,,,,,,,,AMP,right,0.26697759176022373,,,right,0,0.26697759176022373,0,,,,,,,,,,,,,,,,,,,,,,1065,2019_Mar_13_1501,mf_amp_cond1,3.0.4,60.00563874626387,
sliptery,gusinesslike,&&&&&&&&&&&&,None,nonword,,,,,,,0,291,291,291,,,,,,,,,,,,,,,,,,,,,AMP,right,3.701121581834741,,,right,0,3.701121581834741,0,,,,,,,,,,,,,,,,,,,,,,1065,2019_Mar_13_1501,mf_amp_cond1,3.0.4,60.00563874626387,
baklara,Lacedonia,&&&&&&&&&,None,nonword,,,,,,,0,292,292,292,,,,,,,,,,,,,,,,,,,,,AMP,left,1.150530130311381,,,left,0,1.150530130311381,0,,,,,,,,,,,,,,,,,,,,,,1065,2019_Mar_13_1501,mf_amp_cond1,3.0.4,60.00563874626387,
violations,tracious,&&&&&&&&,right,sanctity.vice,,,,,,,0,293,293,293,,,,,,,,,,,,,,,,,,,,,AMP,right,0.6669067773036659,,,right,1,0.6669067773036659,1,,,,,,,,,,,,,,,,,,,,,,1065,2019_Mar_13_1501,mf_amp_cond1,3.0.4,60.00563874626387,
health,ugeasily,&&&&&&&&,left,care.virtue,,,,,,,0,294,294,294,,,,,,,,,,,,,,,,,,,,,AMP,left,0.3670360585965682,,,left,1,0.3670360585965682,1,,,,,,,,,,,,,,,,,,,,,,1065,2019_Mar_13_1501,mf_amp_cond1,3.0.4,60.00563874626387,
officers,sowntrodden,&&&&&&&&&&&,right,authority.vice,,,,,,,0,295,295,295,,,,,,,,,,,,,,,,,,,,,AMP,left,0.6170589097309858,,,left,0,0.6170589097309858,0,,,,,,,,,,,,,,,,,,,,,,1065,2019_Mar_13_1501,mf_amp_cond1,3.0.4,60.00563874626387,
violence,dumid,&&&&&,right,care.vice,,,,,,,0,296,296,296,,,,,,,,,,,,,,,,,,,,,AMP,left,0.41700740245869383,,,left,0,0.41700740245869383,0,,,,,,,,,,,,,,,,,,,,,,1065,2019_Mar_13_1501,mf_amp_cond1,3.0.4,60.00563874626387,
scandal,menizen,&&&&&&&,right,sanctity.vice,,,,,,,0,297,297,297,,,,,,,,,,,,,,,,,,,,,AMP,left,0.23362615928635933,,,left,0,0.23362615928635933,0,,,,,,,,,,,,,,,,,,,,,,1065,2019_Mar_13_1501,mf_amp_cond1,3.0.4,60.00563874626387,
drug,hasks,&&&&&,right,sanctity.vice,,,,,,,0,298,298,298,,,,,,,,,,,,,,,,,,,,,AMP,left,0.25030572412651964,,,left,0,0.25030572412651964,0,,,,,,,,,,,,,,,,,,,,,,1065,2019_Mar_13_1501,mf_amp_cond1,3.0.4,60.00563874626387,
freedom,rorroborated,&&&&&&&&&&&&,left,sanctity.virtue,,,,,,,0,299,299,299,,,,,,,,,,,,,,,,,,,,,AMP,left,0.3502830493962392,,,left,1,0.3502830493962392,1,,,,,,,,,,,,,,,,,,,,,,1065,2019_Mar_13_1501,mf_amp_cond1,3.0.4,60.00563874626387,
brotesque,chreams,&&&&&&&,None,nonword,,,,,,,0,300,300,300,,,,,,,,,,,,,,,,,,,,,AMP,left,0.617059551179409,,,left,0,0.617059551179409,0,,,,,,,,,,,,,,,,,,,,,,1065,2019_Mar_13_1501,mf_amp_cond1,3.0.4,60.00563874626387,
suicide,ronviolence,&&&&&&&&&&&,right,care.vice,,,,,,,0,301,301,301,,,,,,,,,,,,,,,,,,,,,AMP,left,0.46702140182605945,,,left,0,0.46702140182605945,0,,,,,,,,,,,,,,,,,,,,,,1065,2019_Mar_13_1501,mf_amp_cond1,3.0.4,60.00563874626387,
corruption,focomotive,&&&&&&&&&&,right,sanctity.vice,,,,,,,0,302,302,302,,,,,,,,,,,,,,,,,,,,,AMP,right,0.8337819639127702,,,right,1,0.8337819639127702,1,,,,,,,,,,,,,,,,,,,,,,1065,2019_Mar_13_1501,mf_amp_cond1,3.0.4,60.00563874626387,
civilians,faspberry,&&&&&&&&&,right,care.vice,,,,,,,0,303,303,303,,,,,,,,,,,,,,,,,,,,,AMP,left,1.0171955996192992,,,left,0,1.0171955996192992,0,,,,,,,,,,,,,,,,,,,,,,1065,2019_Mar_13_1501,mf_amp_cond1,3.0.4,60.00563874626387,
great,erdest,&&&&&&,left,loyalty.virtue,,,,,,,0,304,304,304,,,,,,,,,,,,,,,,,,,,,AMP,right,0.3503253841481637,,,right,0,0.3503253841481637,0,,,,,,,,,,,,,,,,,,,,,,1065,2019_Mar_13_1501,mf_amp_cond1,3.0.4,60.00563874626387,
betrayal,prones,&&&&&&,right,loyalty.vice,,,,,,,0,305,305,305,,,,,,,,,,,,,,,,,,,,,AMP,right,0.40033681772183627,,,right,1,0.40033681772183627,1,,,,,,,,,,,,,,,,,,,,,,1065,2019_Mar_13_1501,mf_amp_cond1,3.0.4,60.00563874626387,
gikely,festate,&&&&&&&,None,nonword,,,,,,,0,306,306,306,,,,,,,,,,,,,,,,,,,,,AMP,left,0.3836546871170867,,,left,0,0.3836546871170867,0,,,,,,,,,,,,,,,,,,,,,,1065,2019_Mar_13_1501,mf_amp_cond1,3.0.4,60.00563874626387,
commitment,vurtain,&&&&&&&,left,sanctity.virtue,,,,,,,0,307,307,307,,,,,,,,,,,,,,,,,,,,,AMP,left,0.5837174194748513,,,left,1,0.5837174194748513,1,,,,,,,,,,,,,,,,,,,,,,1065,2019_Mar_13_1501,mf_amp_cond1,3.0.4,60.00563874626387,
forced,coom,&&&&,right,fairness.vice,,,,,,,0,308,308,308,,,,,,,,,,,,,,,,,,,,,AMP,left,0.5170584928127937,,,left,0,0.5170584928127937,0,,,,,,,,,,,,,,,,,,,,,,1065,2019_Mar_13_1501,mf_amp_cond1,3.0.4,60.00563874626387,
ensure,Phintoism,&&&&&&&&&,left,fairness.virtue,,,,,,,0,309,309,309,,,,,,,,,,,,,,,,,,,,,AMP,left,0.5837158159120008,,,left,1,0.5837158159120008,1,,,,,,,,,,,,,,,,,,,,,,1065,2019_Mar_13_1501,mf_amp_cond1,3.0.4,60.00563874626387,
refused,sickyay,&&&&&&&,right,authority.vice,,,,,,,0,310,310,310,,,,,,,,,,,,,,,,,,,,,AMP,right,0.5170321939804126,,,right,1,0.5170321939804126,1,,,,,,,,,,,,,,,,,,,,,,1065,2019_Mar_13_1501,mf_amp_cond1,3.0.4,60.00563874626387,
men,stindig,&&&&&&&,right,loyalty.vice,,,,,,,0,311,311,311,,,,,,,,,,,,,,,,,,,,,AMP,left,0.617058589035878,,,left,0,0.617058589035878,0,,,,,,,,,,,,,,,,,,,,,,1065,2019_Mar_13_1501,mf_amp_cond1,3.0.4,60.00563874626387,
hope,nuckheap,&&&&&&&&,left,loyalty.virtue,,,,,,,0,312,312,312,,,,,,,,,,,,,,,,,,,,,AMP,right,0.2836805690312758,,,right,0,0.2836805690312758,0,,,,,,,,,,,,,,,,,,,,,,1065,2019_Mar_13_1501,mf_amp_cond1,3.0.4,60.00563874626387,
attacks,pumber,&&&&&&,right,care.vice,,,,,,,0,313,313,313,,,,,,,,,,,,,,,,,,,,,AMP,left,0.5170527198933996,,,left,0,0.5170527198933996,0,,,,,,,,,,,,,,,,,,,,,,1065,2019_Mar_13_1501,mf_amp_cond1,3.0.4,60.00563874626387,
encourage,taxpayung,&&&&&&&&&,left,authority.virtue,,,,,,,0,314,314,314,,,,,,,,,,,,,,,,,,,,,AMP,right,0.5503666284203064,,,right,0,0.5503666284203064,0,,,,,,,,,,,,,,,,,,,,,,1065,2019_Mar_13_1501,mf_amp_cond1,3.0.4,60.00563874626387,
progress,godlaness,&&&&&&&&&,left,authority.virtue,,,,,,,0,315,315,315,,,,,,,,,,,,,,,,,,,,,AMP,left,0.4169605777133256,,,left,1,0.4169605777133256,1,,,,,,,,,,,,,,,,,,,,,,1065,2019_Mar_13_1501,mf_amp_cond1,3.0.4,60.00563874626387,
opportunity,lenon,&&&&&,left,fairness.virtue,,,,,,,0,316,316,316,,,,,,,,,,,,,,,,,,,,,AMP,right,0.35033051561913453,,,right,0,0.35033051561913453,0,,,,,,,,,,,,,,,,,,,,,,1065,2019_Mar_13_1501,mf_amp_cond1,3.0.4,60.00563874626387,
victim,slending,&&&&&&&&,right,care.vice,,,,,,,0,317,317,317,,,,,,,,,,,,,,,,,,,,,AMP,left,0.6670713054772932,,,left,0,0.6670713054772932,0,,,,,,,,,,,,,,,,,,,,,,1065,2019_Mar_13_1501,mf_amp_cond1,3.0.4,60.00563874626387,
benefit,gationwide,&&&&&&&&&&,left,fairness.virtue,,,,,,,0,318,318,318,,,,,,,,,,,,,,,,,,,,,AMP,right,0.3836662329558749,,,right,0,0.3836662329558749,0,,,,,,,,,,,,,,,,,,,,,,1065,2019_Mar_13_1501,mf_amp_cond1,3.0.4,60.00563874626387,
promises,pullness,&&&&&&&&,left,fairness.virtue,,,,,,,0,319,319,319,,,,,,,,,,,,,,,,,,,,,AMP,left,0.7838234487862792,,,left,1,0.7838234487862792,1,,,,,,,,,,,,,,,,,,,,,,1065,2019_Mar_13_1501,mf_amp_cond1,3.0.4,60.00563874626387,
illegal,glacenta,&&&&&&&&,right,fairness.vice,,,,,,,0,320,320,320,,,,,,,,,,,,,,,,,,,,,AMP,left,0.5836792540794704,,,left,0,0.5836792540794704,0,,,,,,,,,,,,,,,,,,,,,,1065,2019_Mar_13_1501,mf_amp_cond1,3.0.4,60.00563874626387,
seachwear,halaise,&&&&&&&,None,nonword,,,,,,,0,321,321,321,,,,,,,,,,,,,,,,,,,,,AMP,left,0.6670674568740651,,,left,0,0.6670674568740651,0,,,,,,,,,,,,,,,,,,,,,,1065,2019_Mar_13_1501,mf_amp_cond1,3.0.4,60.00563874626387,
improve,carvels,&&&&&&&,left,care.virtue,,,,,,,0,322,322,322,,,,,,,,,,,,,,,,,,,,,AMP,left,0.4335400786367245,,,left,1,0.4335400786367245,1,,,,,,,,,,,,,,,,,,,,,,1065,2019_Mar_13_1501,mf_amp_cond1,3.0.4,60.00563874626387,
perified,tove,&&&&,None,nonword,,,,,,,0,323,323,323,,,,,,,,,,,,,,,,,,,,,AMP,right,0.5003593641740736,,,right,0,0.5003593641740736,0,,,,,,,,,,,,,,,,,,,,,,1065,2019_Mar_13_1501,mf_amp_cond1,3.0.4,60.00563874626387,
nackers,reelectiob,&&&&&&&&&&,None,nonword,,,,,,,0,324,324,324,,,,,,,,,,,,,,,,,,,,,AMP,left,0.5336950814817101,,,left,0,0.5336950814817101,0,,,,,,,,,,,,,,,,,,,,,,1065,2019_Mar_13_1501,mf_amp_cond1,3.0.4,60.00563874626387,
protesters,iptervention,&&&&&&&&&&&&,right,authority.vice,,,,,,,0,325,325,325,,,,,,,,,,,,,,,,,,,,,AMP,left,1.1004904735600576,,,left,0,1.1004904735600576,0,,,,,,,,,,,,,,,,,,,,,,1065,2019_Mar_13_1501,mf_amp_cond1,3.0.4,60.00563874626387,
abuse,Daptist,&&&&&&&,right,sanctity.vice,,,,,,,0,326,326,326,,,,,,,,,,,,,,,,,,,,,AMP,left,0.6503917406080291,,,left,0,0.6503917406080291,0,,,,,,,,,,,,,,,,,,,,,,1065,2019_Mar_13_1501,mf_amp_cond1,3.0.4,60.00563874626387,
terrorist,tenuflect,&&&&&&&&&,right,loyalty.vice,,,,,,,0,327,327,327,,,,,,,,,,,,,,,,,,,,,AMP,left,0.6504023243032862,,,left,0,0.6504023243032862,0,,,,,,,,,,,,,,,,,,,,,,1065,2019_Mar_13_1501,mf_amp_cond1,3.0.4,60.00563874626387,
,,,,,,,,,,,,,,,,,,,,,,,,,,,,,,,,,,,,,,,,,,,,6,6.153,,,,,,,,,,,,,,,,,,,,1065,2019_Mar_13_1501,mf_amp_cond1,3.0.4,60.00563874626387,
,,,,,,,,,,,,,,,,,,,,,,,,,,,,,,,,,,,,,,,,,,,,,,3,5.57,,,,,,,,,,,,,,,,,,1065,2019_Mar_13_1501,mf_amp_cond1,3.0.4,60.00563874626387,
,,,,,,,,,,,,,,,,,,,,,,,,,,,,,,,,,,,,,,,,,,,,,,,,1,5.22,,,,,,,,,,,,,,,,1065,2019_Mar_13_1501,mf_amp_cond1,3.0.4,60.00563874626387,
,,,,,,,,,,,,,,,,,,,,,,,,,,,,,,,,,,,,,,,,,,,,,,,,,,right,1.450598731811624,,,,,,,,,,,,,,1065,2019_Mar_13_1501,mf_amp_cond1,3.0.4,60.00563874626387,
keyboard,,&&&&&&&,,,,,,,,,,,,,0,0,0,0,,,,,,,,,,,,,,,,,LDT_prac,left,2.9842864368401933,,,,,,0,,,,,,,,,left,2.9842864368401933,,,,,,,,,,,,1065,2019_Mar_13_1501,mf_amp_cond1,3.0.4,60.00563874626387,
bisebell,,&&&&&&&,,,,,,,,,,,,,0,1,1,1,,,,,,,,,,,,,,,,,LDT_prac,right,1.1671872449223883,,,,,,0,,,,,,,,,right,1.1671872449223883,,,,,,,,,,,,1065,2019_Mar_13_1501,mf_amp_cond1,3.0.4,60.00563874626387,
,,,,,,,,,,,,,,,,,,,,,,,,,,,,,,,,,,,,,,,,,,,,,,,,,,,,,,right,2.5841933645424433,,,,,,,,,,1065,2019_Mar_13_1501,mf_amp_cond1,3.0.4,60.00563874626387,
anything,,&&&&&&&&,left,neutral,,,,,,,,,,,,,,,0,0,0,165,,,,,,,,,,,,,LDT,right,1.5506196747010108,,,,,,0,,,,,,,,,,,,,right,0,1.5506196747010108,,,,,,,1065,2019_Mar_13_1501,mf_amp_cond1,3.0.4,60.00563874626387,
blunderints,,&&&&&&&&&&&,right,nonword,,,,,,,,,,,,,,,0,1,1,157,,,,,,,,,,,,,LDT,left,2.567526307684602,,,,,,0,,,,,,,,,,,,,left,0,2.567526307684602,,,,,,,1065,2019_Mar_13_1501,mf_amp_cond1,3.0.4,60.00563874626387,
fostet,,&&&&&&,right,nonword,,,,,,,,,,,,,,,0,2,2,155,,,,,,,,,,,,,LDT,right,1.6172952786728274,,,,,,1,,,,,,,,,,,,,right,1,1.6172952786728274,,,,,,,1065,2019_Mar_13_1501,mf_amp_cond1,3.0.4,60.00563874626387,
towards,,&&&&&&&,left,neutral,,,,,,,,,,,,,,,0,3,3,49,,,,,,,,,,,,,LDT,right,0.7670883997343481,,,,,,0,,,,,,,,,,,,,right,0,0.7670883997343481,,,,,,,1065,2019_Mar_13_1501,mf_amp_cond1,3.0.4,60.00563874626387,
mostly,,&&&&&&,left,neutral,,,,,,,,,,,,,,,0,4,4,127,,,,,,,,,,,,,LDT,right,0.7004108714463655,,,,,,0,,,,,,,,,,,,,right,0,0.7004108714463655,,,,,,,1065,2019_Mar_13_1501,mf_amp_cond1,3.0.4,60.00563874626387,
less,,&&&&,left,neutral,,,,,,,,,,,,,,,0,5,5,110,,,,,,,,,,,,,LDT,right,0.7670839097118005,,,,,,0,,,,,,,,,,,,,right,0,0.7670839097118005,,,,,,,1065,2019_Mar_13_1501,mf_amp_cond1,3.0.4,60.00563874626387,
about,,&&&&&,left,neutral,,,,,,,,,,,,,,,0,6,6,188,,,,,,,,,,,,,LDT,right,0.7337558895815164,,,,,,0,,,,,,,,,,,,,right,0,0.7337558895815164,,,,,,,1065,2019_Mar_13_1501,mf_amp_cond1,3.0.4,60.00563874626387,
thabbily,,&&&&&&&&,right,nonword,,,,,,,,,,,,,,,0,7,7,1,,,,,,,,,,,,,LDT,left,1.2171913020138163,,,,,,0,,,,,,,,,,,,,left,0,1.2171913020138163,,,,,,,1065,2019_Mar_13_1501,mf_amp_cond1,3.0.4,60.00563874626387,
although,,&&&&&&&&,left,neutral,,,,,,,,,,,,,,,0,8,8,27,,,,,,,,,,,,,LDT,left,1.0838487533910666,,,,,,1,,,,,,,,,,,,,left,1,1.0838487533910666,,,,,,,1065,2019_Mar_13_1501,mf_amp_cond1,3.0.4,60.00563874626387,
hereby,,&&&&&&,left,neutral,,,,,,,,,,,,,,,0,9,9,69,,,,,,,,,,,,,LDT,right,0.6337250044743996,,,,,,0,,,,,,,,,,,,,right,0,0.6337250044743996,,,,,,,1065,2019_Mar_13_1501,mf_amp_cond1,3.0.4,60.00563874626387,
forepo,,&&&&&&,right,nonword,,,,,,,,,,,,,,,0,10,10,173,,,,,,,,,,,,,LDT,left,1.083845546207158,,,,,,0,,,,,,,,,,,,,left,0,1.083845546207158,,,,,,,1065,2019_Mar_13_1501,mf_amp_cond1,3.0.4,60.00563874626387,
totalestic,,&&&&&&&&&&,None,nonword,,,,,,,,,,,,,,,0,11,11,171,,,,,,,,,,,,,LDT,right,1.450603542587487,,,,,,0,,,,,,,,,,,,,right,0,1.450603542587487,,,,,,,1065,2019_Mar_13_1501,mf_amp_cond1,3.0.4,60.00563874626387,
fegard,,&&&&&&,right,nonword,,,,,,,,,,,,,,,0,12,12,123,,,,,,,,,,,,,LDT,right,0.6337355881696567,,,,,,1,,,,,,,,,,,,,right,1,0.6337355881696567,,,,,,,1065,2019_Mar_13_1501,mf_amp_cond1,3.0.4,60.00563874626387,
peaceful,,&&&&&&&&,left,authority.virtue,,,,,,,,,,,,,,,0,13,13,14,,,,,,,,,,,,,LDT,right,0.5837260788830463,,,,,,0,,,,,,,,,,,,,right,0,0.5837260788830463,,,,,,,1065,2019_Mar_13_1501,mf_amp_cond1,3.0.4,60.00563874626387,
hand,,&&&&,left,sanctity.virtue,,,,,,,,,,,,,,,0,14,14,81,,,,,,,,,,,,,LDT,left,1.017161603551358,,,,,,1,,,,,,,,,,,,,left,1,1.017161603551358,,,,,,,1065,2019_Mar_13_1501,mf_amp_cond1,3.0.4,60.00563874626387,
powerful,,&&&&&&&&,left,authority.virtue,,,,,,,,,,,,,,,0,15,15,31,,,,,,,,,,,,,LDT,right,0.6837579261336941,,,,,,0,,,,,,,,,,,,,right,0,0.6837579261336941,,,,,,,1065,2019_Mar_13_1501,mf_amp_cond1,3.0.4,60.00563874626387,
framo,,&&&&&,right,nonword,,,,,,,,,,,,,,,0,16,16,59,,,,,,,,,,,,,LDT,right,0.6002430398657452,,,,,,1,,,,,,,,,,,,,right,1,0.6002430398657452,,,,,,,1065,2019_Mar_13_1501,mf_amp_cond1,3.0.4,60.00563874626387,
latter,,&&&&&&,left,neutral,,,,,,,,,,,,,,,0,17,17,7,,,,,,,,,,,,,LDT,right,0.6003828727698419,,,,,,0,,,,,,,,,,,,,right,0,0.6003828727698419,,,,,,,1065,2019_Mar_13_1501,mf_amp_cond1,3.0.4,60.00563874626387,
disregord,,&&&&&&&&&,right,nonword,,,,,,,,,,,,,,,0,18,18,89,,,,,,,,,,,,,LDT,left,0.750427115795901,,,,,,0,,,,,,,,,,,,,left,0,0.750427115795901,,,,,,,1065,2019_Mar_13_1501,mf_amp_cond1,3.0.4,60.00563874626387,
gowlands,,&&&&&&&&,right,nonword,,,,,,,,,,,,,,,0,19,19,93,,,,,,,,,,,,,LDT,left,0.8671741275757086,,,,,,0,,,,,,,,,,,,,left,0,0.8671741275757086,,,,,,,1065,2019_Mar_13_1501,mf_amp_cond1,3.0.4,60.00563874626387,
also,,&&&&,left,neutral,,,,,,,,,,,,,,,0,20,20,11,,,,,,,,,,,,,LDT,right,1.9840491057257168,,,,,,0,,,,,,,,,,,,,right,0,1.9840491057257168,,,,,,,1065,2019_Mar_13_1501,mf_amp_cond1,3.0.4,60.00563874626387,
epigrach,,&&&&&&&&,right,nonword,,,,,,,,,,,,,,,0,21,21,56,,,,,,,,,,,,,LDT,left,1.917370935989311,,,,,,0,,,,,,,,,,,,,left,0,1.917370935989311,,,,,,,1065,2019_Mar_13_1501,mf_amp_cond1,3.0.4,60.00563874626387,
simplustic,,&&&&&&&&&&,right,nonword,,,,,,,,,,,,,,,0,22,22,50,,,,,,,,,,,,,LDT,left,1.167193338565994,,,,,,0,,,,,,,,,,,,,left,0,1.167193338565994,,,,,,,1065,2019_Mar_13_1501,mf_amp_cond1,3.0.4,60.00563874626387,
noone,,&&&&&,left,neutral,,,,,,,,,,,,,,,0,23,23,154,,,,,,,,,,,,,LDT,left,0.8004414358292706,,,,,,1,,,,,,,,,,,,,left,1,0.8004414358292706,,,,,,,1065,2019_Mar_13_1501,mf_amp_cond1,3.0.4,60.00563874626387,
papert,,&&&&&&,right,nonword,,,,,,,,,,,,,,,0,24,24,35,,,,,,,,,,,,,LDT,left,0.800438228645362,,,,,,0,,,,,,,,,,,,,left,0,0.800438228645362,,,,,,,1065,2019_Mar_13_1501,mf_amp_cond1,3.0.4,60.00563874626387,
bruthfulness,,&&&&&&&&&&&&,right,nonword,,,,,,,,,,,,,,,0,25,25,159,,,,,,,,,,,,,LDT,right,0.6337346259970218,,,,,,1,,,,,,,,,,,,,right,1,0.6337346259970218,,,,,,,1065,2019_Mar_13_1501,mf_amp_cond1,3.0.4,60.00563874626387,
gun,,&&&,left,authority.vice,,,,,,,,,,,,,,,0,26,26,148,,,,,,,,,,,,,LDT,right,4.0012119921448175,,,,,,0,,,,,,,,,,,,,right,0,4.0012119921448175,,,,,,,1065,2019_Mar_13_1501,mf_amp_cond1,3.0.4,60.00563874626387,
wump,,&&&&,right,nonword,,,,,,,,,,,,,,,0,27,27,39,,,,,,,,,,,,,LDT,right,1.1671824341465253,,,,,,1,,,,,,,,,,,,,right,1,1.1671824341465253,,,,,,,1065,2019_Mar_13_1501,mf_amp_cond1,3.0.4,60.00563874626387,
charges,,&&&&&&&,left,fairness.vice,,,,,,,,,,,,,,,0,28,28,34,,,,,,,,,,,,,LDT,right,0.7504251914797351,,,,,,0,,,,,,,,,,,,,right,0,0.7504251914797351,,,,,,,1065,2019_Mar_13_1501,mf_amp_cond1,3.0.4,60.00563874626387,
brudent,,&&&&&&&,right,nonword,,,,,,,,,,,,,,,0,29,29,179,,,,,,,,,,,,,LDT,right,0.8837844174413476,,,,,,1,,,,,,,,,,,,,right,1,0.8837844174413476,,,,,,,1065,2019_Mar_13_1501,mf_amp_cond1,3.0.4,60.00563874626387,
restore,,&&&&&&&,left,care.virtue,,,,,,,,,,,,,,,0,30,30,60,,,,,,,,,,,,,LDT,left,1.5006258805515245,,,,,,1,,,,,,,,,,,,,left,1,1.5006258805515245,,,,,,,1065,2019_Mar_13_1501,mf_amp_cond1,3.0.4,60.00563874626387,
faith,,&&&&&,left,sanctity.virtue,,,,,,,,,,,,,,,0,31,31,87,,,,,,,,,,,,,LDT,right,1.0338196803350002,,,,,,0,,,,,,,,,,,,,right,0,1.0338196803350002,,,,,,,1065,2019_Mar_13_1501,mf_amp_cond1,3.0.4,60.00563874626387,
shoirmaster,,&&&&&&&&&&&,right,nonword,,,,,,,,,,,,,,,0,32,32,80,,,,,,,,,,,,,LDT,left,0.9338327335426584,,,,,,0,,,,,,,,,,,,,left,0,0.9338327335426584,,,,,,,1065,2019_Mar_13_1501,mf_amp_cond1,3.0.4,60.00563874626387,
fifteen,,&&&&&&&,left,neutral,,,,,,,,,,,,,,,0,33,33,199,,,,,,,,,,,,,LDT,left,0.7671114914119244,,,,,,1,,,,,,,,,,,,,left,1,0.7671114914119244,,,,,,,1065,2019_Mar_13_1501,mf_amp_cond1,3.0.4,60.00563874626387,
besides,,&&&&&&&,left,neutral,,,,,,,,,,,,,,,0,34,34,195,,,,,,,,,,,,,LDT,left,0.6504045693145599,,,,,,1,,,,,,,,,,,,,left,1,0.6504045693145599,,,,,,,1065,2019_Mar_13_1501,mf_amp_cond1,3.0.4,60.00563874626387,
amoungst,,&&&&&&&&,left,neutral,,,,,,,,,,,,,,,0,35,35,67,,,,,,,,,,,,,LDT,left,0.7670807025278918,,,,,,1,,,,,,,,,,,,,left,1,0.7670807025278918,,,,,,,1065,2019_Mar_13_1501,mf_amp_cond1,3.0.4,60.00563874626387,
wherever,,&&&&&&&&,left,neutral,,,,,,,,,,,,,,,0,36,36,166,,,,,,,,,,,,,LDT,right,0.9504600214131642,,,,,,0,,,,,,,,,,,,,right,0,0.9504600214131642,,,,,,,1065,2019_Mar_13_1501,mf_amp_cond1,3.0.4,60.00563874626387,
were,,&&&&,left,neutral,,,,,,,,,,,,,,,0,37,37,88,,,,,,,,,,,,,LDT,right,0.7337517202540766,,,,,,0,,,,,,,,,,,,,right,0,0.7337517202540766,,,,,,,1065,2019_Mar_13_1501,mf_amp_cond1,3.0.4,60.00563874626387,
chared,,&&&&&&,right,nonword,,,,,,,,,,,,,,,0,38,38,99,,,,,,,,,,,,,LDT,right,0.8504660188336857,,,,,,1,,,,,,,,,,,,,right,1,0.8504660188336857,,,,,,,1065,2019_Mar_13_1501,mf_amp_cond1,3.0.4,60.00563874626387,
each,,&&&&,left,neutral,,,,,,,,,,,,,,,0,39,39,182,,,,,,,,,,,,,LDT,right,0.917084214364877,,,,,,0,,,,,,,,,,,,,right,0,0.917084214364877,,,,,,,1065,2019_Mar_13_1501,mf_amp_cond1,3.0.4,60.00563874626387,
agreement,,&&&&&&&&&,left,fairness.virtue,,,,,,,,,,,,,,,0,40,40,100,,,,,,,,,,,,,LDT,left,0.6670610425353516,,,,,,1,,,,,,,,,,,,,left,1,0.6670610425353516,,,,,,,1065,2019_Mar_13_1501,mf_amp_cond1,3.0.4,60.00563874626387,
friends,,&&&&&&&,left,loyalty.virtue,,,,,,,,,,,,,,,0,41,41,83,,,,,,,,,,,,,LDT,right,0.7837756618391722,,,,,,0,,,,,,,,,,,,,right,0,0.7837756618391722,,,,,,,1065,2019_Mar_13_1501,mf_amp_cond1,3.0.4,60.00563874626387,
galamitous,,&&&&&&&&&&,right,nonword,,,,,,,,,,,,,,,0,42,42,72,,,,,,,,,,,,,LDT,right,0.6337359088647645,,,,,,1,,,,,,,,,,,,,right,1,0.6337359088647645,,,,,,,1065,2019_Mar_13_1501,mf_amp_cond1,3.0.4,60.00563874626387,
front,,&&&&&,left,neutral,,,,,,,,,,,,,,,0,43,43,128,,,,,,,,,,,,,LDT,left,0.967142793466337,,,,,,1,,,,,,,,,,,,,left,1,0.967142793466337,,,,,,,1065,2019_Mar_13_1501,mf_amp_cond1,3.0.4,60.00563874626387,
tomedians,,&&&&&&&&&,right,nonword,,,,,,,,,,,,,,,0,44,44,139,,,,,,,,,,,,,LDT,right,1.1505092836450785,,,,,,1,,,,,,,,,,,,,right,1,1.1505092836450785,,,,,,,1065,2019_Mar_13_1501,mf_amp_cond1,3.0.4,60.00563874626387,
energy,,&&&&&&,left,sanctity.virtue,,,,,,,,,,,,,,,0,45,45,181,,,,,,,,,,,,,LDT,right,0.7837679646036122,,,,,,0,,,,,,,,,,,,,right,0,0.7837679646036122,,,,,,,1065,2019_Mar_13_1501,mf_amp_cond1,3.0.4,60.00563874626387,
crilfully,,&&&&&&&&&,right,nonword,,,,,,,,,,,,,,,0,46,46,74,,,,,,,,,,,,,LDT,right,0.6003751755633857,,,,,,1,,,,,,,,,,,,,right,1,0.6003751755633857,,,,,,,1065,2019_Mar_13_1501,mf_amp_cond1,3.0.4,60.00563874626387,
honstables,,&&&&&&&&&&,right,nonword,,,,,,,,,,,,,,,0,47,47,121,,,,,,,,,,,,,LDT,left,1.117174528480973,,,,,,0,,,,,,,,,,,,,left,0,1.117174528480973,,,,,,,1065,2019_Mar_13_1501,mf_amp_cond1,3.0.4,60.00563874626387,
with,,&&&&,left,neutral,,,,,,,,,,,,,,,0,48,48,115,,,,,,,,,,,,,LDT,left,1.4005763938184828,,,,,,1,,,,,,,,,,,,,left,1,1.4005763938184828,,,,,,,1065,2019_Mar_13_1501,mf_amp_cond1,3.0.4,60.00563874626387,
become,,&&&&&&,left,neutral,,,,,,,,,,,,,,,0,49,49,131,,,,,,,,,,,,,LDT,right,0.8504490207997151,,,,,,0,,,,,,,,,,,,,right,0,0.8504490207997151,,,,,,,1065,2019_Mar_13_1501,mf_amp_cond1,3.0.4,60.00563874626387,
celebrated,,&&&&&&&&&&,left,authority.virtue,,,,,,,,,,,,,,,0,50,50,23,,,,,,,,,,,,,LDT,right,0.6337217972904909,,,,,,0,,,,,,,,,,,,,right,0,0.6337217972904909,,,,,,,1065,2019_Mar_13_1501,mf_amp_cond1,3.0.4,60.00563874626387,
gedious,,&&&&&&&,right,nonword,,,,,,,,,,,,,,,0,51,51,190,,,,,,,,,,,,,LDT,left,0.7170808147639036,,,,,,0,,,,,,,,,,,,,left,0,0.7170808147639036,,,,,,,1065,2019_Mar_13_1501,mf_amp_cond1,3.0.4,60.00563874626387,
emassion,,&&&&&&&&,right,nonword,,,,,,,,,,,,,,,0,52,52,13,,,,,,,,,,,,,LDT,left,0.8004420772776939,,,,,,0,,,,,,,,,,,,,left,0,0.8004420772776939,,,,,,,1065,2019_Mar_13_1501,mf_amp_cond1,3.0.4,60.00563874626387,
greaks,,&&&&&&,right,nonword,,,,,,,,,,,,,,,0,53,53,84,,,,,,,,,,,,,LDT,right,1.0004708135675173,,,,,,1,,,,,,,,,,,,,right,1,1.0004708135675173,,,,,,,1065,2019_Mar_13_1501,mf_amp_cond1,3.0.4,60.00563874626387,
synchronazers,,&&&&&&&&&&&&&,right,nonword,,,,,,,,,,,,,,,0,54,54,70,,,,,,,,,,,,,LDT,left,0.9504686807922553,,,,,,0,,,,,,,,,,,,,left,0,0.9504686807922553,,,,,,,1065,2019_Mar_13_1501,mf_amp_cond1,3.0.4,60.00563874626387,
either,,&&&&&&,left,neutral,,,,,,,,,,,,,,,0,55,55,129,,,,,,,,,,,,,LDT,left,0.8671218506060541,,,,,,1,,,,,,,,,,,,,left,1,0.8671218506060541,,,,,,,1065,2019_Mar_13_1501,mf_amp_cond1,3.0.4,60.00563874626387,
done,,&&&&,left,neutral,,,,,,,,,,,,,,,0,56,56,98,,,,,,,,,,,,,LDT,left,0.8171290186292026,,,,,,1,,,,,,,,,,,,,left,1,0.8171290186292026,,,,,,,1065,2019_Mar_13_1501,mf_amp_cond1,3.0.4,60.00563874626387,
else,,&&&&,left,neutral,,,,,,,,,,,,,,,0,57,57,79,,,,,,,,,,,,,LDT,left,0.783751607988961,,,,,,1,,,,,,,,,,,,,left,1,0.783751607988961,,,,,,,1065,2019_Mar_13_1501,mf_amp_cond1,3.0.4,60.00563874626387,
elduringly,,&&&&&&&&&&,right,nonword,,,,,,,,,,,,,,,0,58,58,73,,,,,,,,,,,,,LDT,left,0.7670858339988627,,,,,,0,,,,,,,,,,,,,left,0,0.7670858339988627,,,,,,,1065,2019_Mar_13_1501,mf_amp_cond1,3.0.4,60.00563874626387,
latterly,,&&&&&&&&,left,neutral,,,,,,,,,,,,,,,0,59,59,142,,,,,,,,,,,,,LDT,left,1.2005213586671744,,,,,,1,,,,,,,,,,,,,left,1,1.2005213586671744,,,,,,,1065,2019_Mar_13_1501,mf_amp_cond1,3.0.4,60.00563874626387,
spag,,&&&&,None,nonword,,,,,,,,,,,,,,,0,60,60,48,,,,,,,,,,,,,LDT,right,0.6170502503518946,,,,,,0,,,,,,,,,,,,,right,0,0.6170502503518946,,,,,,,1065,2019_Mar_13_1501,mf_amp_cond1,3.0.4,60.00563874626387,
clattening,,&&&&&&&&&&,right,nonword,,,,,,,,,,,,,,,0,61,61,17,,,,,,,,,,,,,LDT,left,0.6004114166426007,,,,,,0,,,,,,,,,,,,,left,0,0.6004114166426007,,,,,,,1065,2019_Mar_13_1501,mf_amp_cond1,3.0.4,60.00563874626387,
mightingale,,&&&&&&&&&&&,right,nonword,,,,,,,,,,,,,,,0,62,62,52,,,,,,,,,,,,,LDT,right,0.6670680982933845,,,,,,1,,,,,,,,,,,,,right,1,0.6670680982933845,,,,,,,1065,2019_Mar_13_1501,mf_amp_cond1,3.0.4,60.00563874626387,
gandbrake,,&&&&&&&&&,right,nonword,,,,,,,,,,,,,,,0,63,63,20,,,,,,,,,,,,,LDT,right,0.7670855133037549,,,,,,1,,,,,,,,,,,,,right,1,0.7670855133037549,,,,,,,1065,2019_Mar_13_1501,mf_amp_cond1,3.0.4,60.00563874626387,
perfect,,&&&&&&&,left,sanctity.virtue,,,,,,,,,,,,,,,0,64,64,149,,,,,,,,,,,,,LDT,right,0.8171084927162156,,,,,,0,,,,,,,,,,,,,right,0,0.8171084927162156,,,,,,,1065,2019_Mar_13_1501,mf_amp_cond1,3.0.4,60.00563874626387,
care,,&&&&,left,care.virtue,,,,,,,,,,,,,,,0,65,65,24,,,,,,,,,,,,,LDT,left,0.6337339845777024,,,,,,1,,,,,,,,,,,,,left,1,0.6337339845777024,,,,,,,1065,2019_Mar_13_1501,mf_amp_cond1,3.0.4,60.00563874626387,
couldnt,,&&&&&&&,left,neutral,,,,,,,,,,,,,,,0,66,66,192,,,,,,,,,,,,,LDT,left,0.9838329420017544,,,,,,1,,,,,,,,,,,,,left,1,0.9838329420017544,,,,,,,1065,2019_Mar_13_1501,mf_amp_cond1,3.0.4,60.00563874626387,
praised,,&&&&&&&,left,loyalty.virtue,,,,,,,,,,,,,,,0,67,67,136,,,,,,,,,,,,,LDT,right,0.7004467918013688,,,,,,0,,,,,,,,,,,,,right,0,0.7004467918013688,,,,,,,1065,2019_Mar_13_1501,mf_amp_cond1,3.0.4,60.00563874626387,
dramens,,&&&&&&&,right,nonword,,,,,,,,,,,,,,,0,68,68,68,,,,,,,,,,,,,LDT,right,0.7170997370849364,,,,,,1,,,,,,,,,,,,,right,1,0.7170997370849364,,,,,,,1065,2019_Mar_13_1501,mf_amp_cond1,3.0.4,60.00563874626387,
scock,,&&&&&,right,nonword,,,,,,,,,,,,,,,0,69,69,55,,,,,,,,,,,,,LDT,right,0.7003986841591541,,,,,,1,,,,,,,,,,,,,right,1,0.7003986841591541,,,,,,,1065,2019_Mar_13_1501,mf_amp_cond1,3.0.4,60.00563874626387,
whereafter,,&&&&&&&&&&,left,neutral,,,,,,,,,,,,,,,0,70,70,116,,,,,,,,,,,,,LDT,left,0.5502431521308608,,,,,,1,,,,,,,,,,,,,left,1,0.5502431521308608,,,,,,,1065,2019_Mar_13_1501,mf_amp_cond1,3.0.4,60.00563874626387,
saned,,&&&&&,None,nonword,,,,,,,,,,,,,,,0,71,71,43,,,,,,,,,,,,,LDT,left,0.7170801733154804,,,,,,0,,,,,,,,,,,,,left,0,0.7170801733154804,,,,,,,1065,2019_Mar_13_1501,mf_amp_cond1,3.0.4,60.00563874626387,
rivernoat,,&&&&&&&&&,right,nonword,,,,,,,,,,,,,,,0,72,72,176,,,,,,,,,,,,,LDT,left,0.4337129454652313,,,,,,0,,,,,,,,,,,,,left,0,0.4337129454652313,,,,,,,1065,2019_Mar_13_1501,mf_amp_cond1,3.0.4,60.00563874626387,
party,,&&&&&,left,loyalty.virtue,,,,,,,,,,,,,,,0,73,73,194,,,,,,,,,,,,,LDT,left,0.500357119133696,,,,,,1,,,,,,,,,,,,,left,1,0.500357119133696,,,,,,,1065,2019_Mar_13_1501,mf_amp_cond1,3.0.4,60.00563874626387,
lachelor,,&&&&&&&&,right,nonword,,,,,,,,,,,,,,,0,74,74,133,,,,,,,,,,,,,LDT,left,0.4336799115408212,,,,,,0,,,,,,,,,,,,,left,0,0.4336799115408212,,,,,,,1065,2019_Mar_13_1501,mf_amp_cond1,3.0.4,60.00563874626387,
troubla,,&&&&&&&,right,nonword,,,,,,,,,,,,,,,0,75,75,150,,,,,,,,,,,,,LDT,right,0.45035851426655427,,,,,,1,,,,,,,,,,,,,right,1,0.45035851426655427,,,,,,,1065,2019_Mar_13_1501,mf_amp_cond1,3.0.4,60.00563874626387,
pulge,,&&&&&,right,nonword,,,,,,,,,,,,,,,0,76,76,122,,,,,,,,,,,,,LDT,right,0.5170376461464912,,,,,,1,,,,,,,,,,,,,right,1,0.5170376461464912,,,,,,,1065,2019_Mar_13_1501,mf_amp_cond1,3.0.4,60.00563874626387,
lies,,&&&&,left,fairness.vice,,,,,,,,,,,,,,,0,77,77,9,,,,,,,,,,,,,LDT,right,0.4336760629666969,,,,,,0,,,,,,,,,,,,,right,0,0.4336760629666969,,,,,,,1065,2019_Mar_13_1501,mf_amp_cond1,3.0.4,60.00563874626387,
been,,&&&&,left,neutral,,,,,,,,,,,,,,,0,78,78,16,,,,,,,,,,,,,LDT,left,0.41700868535554036,,,,,,1,,,,,,,,,,,,,left,1,0.41700868535554036,,,,,,,1065,2019_Mar_13_1501,mf_amp_cond1,3.0.4,60.00563874626387,
troops,,&&&&&&,left,loyalty.vice,,,,,,,,,,,,,,,0,79,79,135,,,,,,,,,,,,,LDT,left,0.9504654736374505,,,,,,1,,,,,,,,,,,,,left,1,0.9504654736374505,,,,,,,1065,2019_Mar_13_1501,mf_amp_cond1,3.0.4,60.00563874626387,
counpy's,,&&&&&&&&,right,nonword,,,,,,,,,,,,,,,0,80,80,146,,,,,,,,,,,,,LDT,right,0.5671488229418173,,,,,,1,,,,,,,,,,,,,right,1,0.5671488229418173,,,,,,,1065,2019_Mar_13_1501,mf_amp_cond1,3.0.4,60.00563874626387,
esquisiteness,,&&&&&&&&&&&&&,right,nonword,,,,,,,,,,,,,,,0,81,81,119,,,,,,,,,,,,,LDT,right,0.6670732297934592,,,,,,1,,,,,,,,,,,,,right,1,0.6670732297934592,,,,,,,1065,2019_Mar_13_1501,mf_amp_cond1,3.0.4,60.00563874626387,
prosecution,,&&&&&&&&&&&,left,authority.vice,,,,,,,,,,,,,,,0,82,82,94,,,,,,,,,,,,,LDT,left,0.650392702780664,,,,,,1,,,,,,,,,,,,,left,1,0.650392702780664,,,,,,,1065,2019_Mar_13_1501,mf_amp_cond1,3.0.4,60.00563874626387,
strofe,,&&&&&&,right,nonword,,,,,,,,,,,,,,,0,83,83,12,,,,,,,,,,,,,LDT,left,0.8169523031683639,,,,,,0,,,,,,,,,,,,,left,0,0.8169523031683639,,,,,,,1065,2019_Mar_13_1501,mf_amp_cond1,3.0.4,60.00563874626387,
dormandi,,&&&&&&&&,None,nonword,,,,,,,,,,,,,,,0,84,84,29,,,,,,,,,,,,,LDT,left,0.8004289278469514,,,,,,0,,,,,,,,,,,,,left,0,0.8004289278469514,,,,,,,1065,2019_Mar_13_1501,mf_amp_cond1,3.0.4,60.00563874626387,
harassment,,&&&&&&&&&&,left,sanctity.vice,,,,,,,,,,,,,,,0,85,85,138,,,,,,,,,,,,,LDT,right,1.4339323163731024,,,,,,0,,,,,,,,,,,,,right,0,1.4339323163731024,,,,,,,1065,2019_Mar_13_1501,mf_amp_cond1,3.0.4,60.00563874626387,
rejected,,&&&&&&&&,left,authority.vice,,,,,,,,,,,,,,,0,86,86,101,,,,,,,,,,,,,LDT,right,0.8337720216659363,,,,,,0,,,,,,,,,,,,,right,0,0.8337720216659363,,,,,,,1065,2019_Mar_13_1501,mf_amp_cond1,3.0.4,60.00563874626387,
Boeinf,,&&&&&&,right,nonword,,,,,,,,,,,,,,,0,87,87,132,,,,,,,,,,,,,LDT,left,0.7337558895815164,,,,,,0,,,,,,,,,,,,,left,0,0.7337558895815164,,,,,,,1065,2019_Mar_13_1501,mf_amp_cond1,3.0.4,60.00563874626387,
neputized,,&&&&&&&&&,right,nonword,,,,,,,,,,,,,,,0,88,88,71,,,,,,,,,,,,,LDT,left,0.9671739030745812,,,,,,0,,,,,,,,,,,,,left,0,0.9671739030745812,,,,,,,1065,2019_Mar_13_1501,mf_amp_cond1,3.0.4,60.00563874626387,
tislay,,&&&&&&,right,nonword,,,,,,,,,,,,,,,0,89,89,167,,,,,,,,,,,,,LDT,right,1.0005035267968196,,,,,,1,,,,,,,,,,,,,right,1,1.0005035267968196,,,,,,,1065,2019_Mar_13_1501,mf_amp_cond1,3.0.4,60.00563874626387,
protect,,&&&&&&&,left,fairness.virtue,,,,,,,,,,,,,,,0,90,90,77,,,,,,,,,,,,,LDT,left,1.3839686697465368,,,,,,1,,,,,,,,,,,,,left,1,1.3839686697465368,,,,,,,1065,2019_Mar_13_1501,mf_amp_cond1,3.0.4,60.00563874626387,
framatic,,&&&&&&&&,right,nonword,,,,,,,,,,,,,,,0,91,91,158,,,,,,,,,,,,,LDT,right,0.8504570387594867,,,,,,1,,,,,,,,,,,,,right,1,0.8504570387594867,,,,,,,1065,2019_Mar_13_1501,mf_amp_cond1,3.0.4,60.00563874626387,
pistraught,,&&&&&&&&&&,right,nonword,,,,,,,,,,,,,,,0,92,92,144,,,,,,,,,,,,,LDT,right,0.8337810017692391,,,,,,1,,,,,,,,,,,,,right,1,0.8337810017692391,,,,,,,1065,2019_Mar_13_1501,mf_amp_cond1,3.0.4,60.00563874626387,
drumbled,,&&&&&&&&,right,nonword,,,,,,,,,,,,,,,0,93,93,163,,,,,,,,,,,,,LDT,left,0.4836964766436722,,,,,,0,,,,,,,,,,,,,left,0,0.4836964766436722,,,,,,,1065,2019_Mar_13_1501,mf_amp_cond1,3.0.4,60.00563874626387,
ban,,&&&,left,loyalty.vice,,,,,,,,,,,,,,,0,94,94,134,,,,,,,,,,,,,LDT,left,0.6337208351469599,,,,,,1,,,,,,,,,,,,,left,1,0.6337208351469599,,,,,,,1065,2019_Mar_13_1501,mf_amp_cond1,3.0.4,60.00563874626387,
free,,&&&&,left,fairness.virtue,,,,,,,,,,,,,,,0,95,95,104,,,,,,,,,,,,,LDT,left,0.6504109836823773,,,,,,1,,,,,,,,,,,,,left,1,0.6504109836823773,,,,,,,1065,2019_Mar_13_1501,mf_amp_cond1,3.0.4,60.00563874626387,
support,,&&&&&&&,left,loyalty.virtue,,,,,,,,,,,,,,,0,96,96,3,,,,,,,,,,,,,LDT,right,1.0004769071820192,,,,,,0,,,,,,,,,,,,,right,0,1.0004769071820192,,,,,,,1065,2019_Mar_13_1501,mf_amp_cond1,3.0.4,60.00563874626387,
reviked,,&&&&&&&,right,nonword,,,,,,,,,,,,,,,0,97,97,120,,,,,,,,,,,,,LDT,left,1.033924234303413,,,,,,0,,,,,,,,,,,,,left,0,1.033924234303413,,,,,,,1065,2019_Mar_13_1501,mf_amp_cond1,3.0.4,60.00563874626387,
Cunday,,&&&&&&,None,nonword,,,,,,,,,,,,,,,0,98,98,96,,,,,,,,,,,,,LDT,right,0.6003979465167504,,,,,,0,,,,,,,,,,,,,right,0,0.6003979465167504,,,,,,,1065,2019_Mar_13_1501,mf_amp_cond1,3.0.4,60.00563874626387,
uller,,&&&&&,right,nonword,,,,,,,,,,,,,,,0,99,99,4,,,,,,,,,,,,,LDT,right,0.5670445896976162,,,,,,1,,,,,,,,,,,,,right,1,0.5670445896976162,,,,,,,1065,2019_Mar_13_1501,mf_amp_cond1,3.0.4,60.00563874626387,
anyhow,,&&&&&&,left,neutral,,,,,,,,,,,,,,,0,100,100,108,,,,,,,,,,,,,LDT,left,0.8504535108513664,,,,,,1,,,,,,,,,,,,,left,1,0.8504535108513664,,,,,,,1065,2019_Mar_13_1501,mf_amp_cond1,3.0.4,60.00563874626387,
juck,,&&&&,right,nonword,,,,,,,,,,,,,,,0,101,101,78,,,,,,,,,,,,,LDT,left,3.351076184248086,,,,,,0,,,,,,,,,,,,,left,0,3.351076184248086,,,,,,,1065,2019_Mar_13_1501,mf_amp_cond1,3.0.4,60.00563874626387,
both,,&&&&,left,neutral,,,,,,,,,,,,,,,0,102,102,126,,,,,,,,,,,,,LDT,right,0.6837560018175282,,,,,,0,,,,,,,,,,,,,right,0,0.6837560018175282,,,,,,,1065,2019_Mar_13_1501,mf_amp_cond1,3.0.4,60.00563874626387,
yane,,&&&&,right,nonword,,,,,,,,,,,,,,,0,103,103,75,,,,,,,,,,,,,LDT,left,0.7504200599796604,,,,,,0,,,,,,,,,,,,,left,0,0.7504200599796604,,,,,,,1065,2019_Mar_13_1501,mf_amp_cond1,3.0.4,60.00563874626387,
neutralust,,&&&&&&&&&&,right,nonword,,,,,,,,,,,,,,,0,104,104,185,,,,,,,,,,,,,LDT,right,1.9174280237348285,,,,,,1,,,,,,,,,,,,,right,1,1.9174280237348285,,,,,,,1065,2019_Mar_13_1501,mf_amp_cond1,3.0.4,60.00563874626387,
shoirmaster,,&&&&&&&&&&&,None,nonword,,,,,,,,,,,,,,,0,105,105,90,,,,,,,,,,,,,LDT,right,0.6504058521823026,,,,,,0,,,,,,,,,,,,,right,0,0.6504058521823026,,,,,,,1065,2019_Mar_13_1501,mf_amp_cond1,3.0.4,60.00563874626387,
Oregoniuns,,&&&&&&&&&&,right,nonword,,,,,,,,,,,,,,,0,106,106,117,,,,,,,,,,,,,LDT,left,0.6335816436621826,,,,,,0,,,,,,,,,,,,,left,0,0.6335816436621826,,,,,,,1065,2019_Mar_13_1501,mf_amp_cond1,3.0.4,60.00563874626387,
quarterbocks,,&&&&&&&&&&&&,right,nonword,,,,,,,,,,,,,,,0,107,107,184,,,,,,,,,,,,,LDT,left,0.5003625713579822,,,,,,0,,,,,,,,,,,,,left,0,0.5003625713579822,,,,,,,1065,2019_Mar_13_1501,mf_amp_cond1,3.0.4,60.00563874626387,
killed,,&&&&&&,left,care.vice,,,,,,,,,,,,,,,0,108,108,196,,,,,,,,,,,,,LDT,left,0.6004229624813888,,,,,,1,,,,,,,,,,,,,left,1,0.6004229624813888,,,,,,,1065,2019_Mar_13_1501,mf_amp_cond1,3.0.4,60.00563874626387,
