words,nonwords,mask,corr_ans,category,tweets,topic,AMP_pracloop.thisRepN,AMP_pracloop.thisTrialN,AMP_pracloop.thisN,AMP_pracloop.thisIndex,AMP_trials.thisRepN,AMP_trials.thisTrialN,AMP_trials.thisN,AMP_trials.thisIndex,LDT_pracloop.thisRepN,LDT_pracloop.thisTrialN,LDT_pracloop.thisN,LDT_pracloop.thisIndex,LDT_trials.thisRepN,LDT_trials.thisTrialN,LDT_trials.thisN,LDT_trials.thisIndex,tweet_loop.thisRepN,tweet_loop.thisTrialN,tweet_loop.thisN,tweet_loop.thisIndex,begin_key.keys,begin_key.rt,key_resp_AMP_instr1.keys,key_resp_AMP_instr1.rt,resp_AMP_ready1.keys,resp_AMP_ready1.rt,resp_AMP_prac.keys,resp_AMP_prac.rt,task,keypress,RT,resp_AMP_ready.keys,resp_AMP_ready.rt,resp_AMP.keys,resp_AMP.corr,resp_AMP.rt,corr,AMP_nonword_rating.response,AMP_nonword_rating.rt,AMP_word_rating.response,AMP_word_rating.rt,AMP_random_rating.response,AMP_random_rating.rt,key_resp_LDT_instr.keys,key_resp_LDT_instr.rt,resp_LDT_prac.keys,resp_LDT_prac.rt,resp_LDT_ready.keys,resp_LDT_ready.rt,resp_LDT.keys,resp_LDT.corr,resp_LDT.rt,LDT_rating.response,LDT_rating.rt,key_resp_LDT_instr_2.keys,key_resp_LDT_instr_2.rt,resp_tweets.keys,resp_tweets.rt,participant,date,expName,psychopyVersion,frameRate,
,,,,,,,,,,,,,,,,,,,,,,,,,,,right,814.8457349602853,,,,,,,,,,,,,,,,,,,,,,,,,,,,,,,,,,,,,1067,2019_Mar_14_1358,mf_amp_cond1,3.0.4,60.003002095685574,
,,,,,,,,,,,,,,,,,,,,,,,,,,,,,right,10.519547283528027,,,,,,,,,,,,,,,,,,,,,,,,,,,,,,,,,,,1067,2019_Mar_14_1358,mf_amp_cond1,3.0.4,60.003002095685574,
,,,,,,,,,,,,,,,,,,,,,,,,,,,,,,,right,1.3172434186512874,,,,,,,,,,,,,,,,,,,,,,,,,,,,,,,,,1067,2019_Mar_14_1358,mf_amp_cond1,3.0.4,60.003002095685574,
car,cemtuper,&&&&&&&&,,,,,0,0,0,0,,,,,,,,,,,,,,,,,,,,,,,right,3.8178293753196613,AMP_prac,right,3.8178293753196613,,,,,,,,,,,,,,,,,,,,,,,,,,,,1067,2019_Mar_14_1358,mf_amp_cond1,3.0.4,60.003002095685574,
banana,kacket,&&&&&&,,,,,0,1,1,1,,,,,,,,,,,,,,,,,,,,,,,right,1.2004007084078694,AMP_prac,right,1.2004007084078694,,,,,,,,,,,,,,,,,,,,,,,,,,,,1067,2019_Mar_14_1358,mf_amp_cond1,3.0.4,60.003002095685574,
keyboard,senk,&&&&,,,,,0,2,2,2,,,,,,,,,,,,,,,,,,,,,,,right,1.5506058734217731,AMP_prac,right,1.5506058734217731,,,,,,,,,,,,,,,,,,,,,,,,,,,,1067,2019_Mar_14_1358,mf_amp_cond1,3.0.4,60.003002095685574,
scarf,bisebell,&&&&&&&&,,,,,0,3,3,3,,,,,,,,,,,,,,,,,,,,,,,left,0.7837354849841631,AMP_prac,left,0.7837354849841631,,,,,,,,,,,,,,,,,,,,,,,,,,,,1067,2019_Mar_14_1358,mf_amp_cond1,3.0.4,60.003002095685574,
,,,,,,,,,,,,,,,,,,,,,,,,,,,,,,,,,,,,,,right,1.3672290182933011,,,,,,,,,,,,,,,,,,,,,,,,,,1067,2019_Mar_14_1358,mf_amp_cond1,3.0.4,60.003002095685574,
safety,tomedians,&&&&&&&&&,left,care.virtue,,,,,,,0,0,0,0,,,,,,,,,,,,,,,,,,,,,AMP,left,1.4172409170300853,,,left,1,1.4172409170300853,1,,,,,,,,,,,,,,,,,,,,,,1067,2019_Mar_14_1358,mf_amp_cond1,3.0.4,60.003002095685574,
died,emassion,&&&&&&&&,right,care.vice,,,,,,,0,1,1,1,,,,,,,,,,,,,,,,,,,,,AMP,right,0.6337171076895629,,,right,1,0.6337171076895629,1,,,,,,,,,,,,,,,,,,,,,,1067,2019_Mar_14_1358,mf_amp_cond1,3.0.4,60.003002095685574,
riot,menizen,&&&&&&&,right,authority.vice,,,,,,,0,2,2,2,,,,,,,,,,,,,,,,,,,,,AMP,left,0.683720988409732,,,left,0,0.683720988409732,0,,,,,,,,,,,,,,,,,,,,,,1067,2019_Mar_14_1358,mf_amp_cond1,3.0.4,60.003002095685574,
useful,godlaness,&&&&&&&&&,left,authority.virtue,,,,,,,0,3,3,3,,,,,,,,,,,,,,,,,,,,,AMP,right,1.8673627588136696,,,right,0,1.8673627588136696,0,,,,,,,,,,,,,,,,,,,,,,1067,2019_Mar_14_1358,mf_amp_cond1,3.0.4,60.003002095685574,
protect,reviked,&&&&&&&,left,fairness.virtue,,,,,,,0,4,4,4,,,,,,,,,,,,,,,,,,,,,AMP,left,0.8004530500215878,,,left,1,0.8004530500215878,1,,,,,,,,,,,,,,,,,,,,,,1067,2019_Mar_14_1358,mf_amp_cond1,3.0.4,60.003002095685574,
harassment,synchronazers,&&&&&&&&&&&&&,right,sanctity.vice,,,,,,,0,5,5,5,,,,,,,,,,,,,,,,,,,,,AMP,right,1.2338592510916442,,,right,1,1.2338592510916442,1,,,,,,,,,,,,,,,,,,,,,,1067,2019_Mar_14_1358,mf_amp_cond1,3.0.4,60.003002095685574,
ability,hasks,&&&&&,left,authority.virtue,,,,,,,0,6,6,6,,,,,,,,,,,,,,,,,,,,,AMP,left,1.050509977940692,,,left,1,1.050509977940692,1,,,,,,,,,,,,,,,,,,,,,,1067,2019_Mar_14_1358,mf_amp_cond1,3.0.4,60.003002095685574,
men,erdest,&&&&&&,right,loyalty.vice,,,,,,,0,7,7,7,,,,,,,,,,,,,,,,,,,,,AMP,left,0.9004531141656571,,,left,0,0.9004531141656571,0,,,,,,,,,,,,,,,,,,,,,,1067,2019_Mar_14_1358,mf_amp_cond1,3.0.4,60.003002095685574,
great,clattening,&&&&&&&&&&,left,loyalty.virtue,,,,,,,0,8,8,8,,,,,,,,,,,,,,,,,,,,,AMP,left,0.7504257566922661,,,left,1,0.7504257566922661,1,,,,,,,,,,,,,,,,,,,,,,1067,2019_Mar_14_1358,mf_amp_cond1,3.0.4,60.003002095685574,
serial,bluently,&&&&&&&&,right,sanctity.vice,,,,,,,0,9,9,9,,,,,,,,,,,,,,,,,,,,,AMP,right,0.8504277451604594,,,right,1,0.8504277451604594,1,,,,,,,,,,,,,,,,,,,,,,1067,2019_Mar_14_1358,mf_amp_cond1,3.0.4,60.003002095685574,
drumbled,unreflectuve,&&&&&&&&&&&&,None,nonword,,,,,,,0,10,10,10,,,,,,,,,,,,,,,,,,,,,AMP,left,0.7504254359716924,,,left,0,0.7504254359716924,0,,,,,,,,,,,,,,,,,,,,,,1067,2019_Mar_14_1358,mf_amp_cond1,3.0.4,60.003002095685574,
gun,iptervention,&&&&&&&&&&&&,right,authority.vice,,,,,,,0,11,11,11,,,,,,,,,,,,,,,,,,,,,AMP,left,1.3839036067606685,,,left,0,1.3839036067606685,0,,,,,,,,,,,,,,,,,,,,,,1067,2019_Mar_14_1358,mf_amp_cond1,3.0.4,60.003002095685574,
drug,proached,&&&&&&&&,right,sanctity.vice,,,,,,,0,12,12,12,,,,,,,,,,,,,,,,,,,,,AMP,right,0.9837901357868759,,,right,1,0.9837901357868759,1,,,,,,,,,,,,,,,,,,,,,,1067,2019_Mar_14_1358,mf_amp_cond1,3.0.4,60.003002095685574,
sexual,nuckheap,&&&&&&&&,right,sanctity.vice,,,,,,,0,13,13,13,,,,,,,,,,,,,,,,,,,,,AMP,right,0.7504106828207568,,,right,1,0.7504106828207568,1,,,,,,,,,,,,,,,,,,,,,,1067,2019_Mar_14_1358,mf_amp_cond1,3.0.4,60.003002095685574,
protesters,pulge,&&&&&,right,authority.vice,,,,,,,0,14,14,14,,,,,,,,,,,,,,,,,,,,,AMP,right,1.783994306566683,,,right,1,1.783994306566683,1,,,,,,,,,,,,,,,,,,,,,,1067,2019_Mar_14_1358,mf_amp_cond1,3.0.4,60.003002095685574,
agreement,shoirmaster,&&&&&&&&&&&,left,fairness.virtue,,,,,,,0,15,15,15,,,,,,,,,,,,,,,,,,,,,AMP,left,0.4669981635533986,,,left,1,0.4669981635533986,1,,,,,,,,,,,,,,,,,,,,,,1067,2019_Mar_14_1358,mf_amp_cond1,3.0.4,60.003002095685574,
fear,metibolic,&&&&&&&&&,right,sanctity.vice,,,,,,,0,16,16,16,,,,,,,,,,,,,,,,,,,,,AMP,right,0.7170717689477897,,,right,1,0.7170717689477897,1,,,,,,,,,,,,,,,,,,,,,,1067,2019_Mar_14_1358,mf_amp_cond1,3.0.4,60.003002095685574,
embrace,gandbrake,&&&&&&&&&,left,authority.virtue,,,,,,,0,17,17,17,,,,,,,,,,,,,,,,,,,,,AMP,left,0.6503859231847855,,,left,1,0.6503859231847855,1,,,,,,,,,,,,,,,,,,,,,,1067,2019_Mar_14_1358,mf_amp_cond1,3.0.4,60.003002095685574,
commitment,frocessing,&&&&&&&&&&,left,sanctity.virtue,,,,,,,0,18,18,18,,,,,,,,,,,,,,,,,,,,,AMP,left,1.183708480303494,,,left,1,1.183708480303494,1,,,,,,,,,,,,,,,,,,,,,,1067,2019_Mar_14_1358,mf_amp_cond1,3.0.4,60.003002095685574,
illegal,leact,&&&&&,right,fairness.vice,,,,,,,0,19,19,19,,,,,,,,,,,,,,,,,,,,,AMP,left,1.200518092173752,,,left,0,1.200518092173752,0,,,,,,,,,,,,,,,,,,,,,,1067,2019_Mar_14_1358,mf_amp_cond1,3.0.4,60.003002095685574,
strong,tabin,&&&&&,left,loyalty.virtue,,,,,,,0,20,20,20,,,,,,,,,,,,,,,,,,,,,AMP,right,0.6003704965205543,,,right,0,0.6003704965205543,0,,,,,,,,,,,,,,,,,,,,,,1067,2019_Mar_14_1358,mf_amp_cond1,3.0.4,60.003002095685574,
victim,stindig,&&&&&&&,right,care.vice,,,,,,,0,21,21,21,,,,,,,,,,,,,,,,,,,,,AMP,left,0.7003930111116006,,,left,0,0.7003930111116006,0,,,,,,,,,,,,,,,,,,,,,,1067,2019_Mar_14_1358,mf_amp_cond1,3.0.4,60.003002095685574,
promises,Oregoniuns,&&&&&&&&&&,left,fairness.virtue,,,,,,,0,22,22,22,,,,,,,,,,,,,,,,,,,,,AMP,right,0.7004061606594405,,,right,0,0.7004061606594405,0,,,,,,,,,,,,,,,,,,,,,,1067,2019_Mar_14_1358,mf_amp_cond1,3.0.4,60.003002095685574,
gusinesslike,saned,&&&&&,None,nonword,,,,,,,0,23,23,23,,,,,,,,,,,,,,,,,,,,,AMP,left,0.5003274558064277,,,left,0,0.5003274558064277,0,,,,,,,,,,,,,,,,,,,,,,1067,2019_Mar_14_1358,mf_amp_cond1,3.0.4,60.003002095685574,
violence,alar,&&&&,right,care.vice,,,,,,,0,24,24,24,,,,,,,,,,,,,,,,,,,,,AMP,right,0.7004007084078694,,,right,1,0.7004007084078694,1,,,,,,,,,,,,,,,,,,,,,,1067,2019_Mar_14_1358,mf_amp_cond1,3.0.4,60.003002095685574,
groups,hescribe,&&&&&&&&,right,loyalty.vice,,,,,,,0,25,25,25,,,,,,,,,,,,,,,,,,,,,AMP,left,1.5172627901799842,,,left,0,1.5172627901799842,0,,,,,,,,,,,,,,,,,,,,,,1067,2019_Mar_14_1358,mf_amp_cond1,3.0.4,60.003002095685574,
betrayal,bycled,&&&&&&,right,loyalty.vice,,,,,,,0,26,26,26,,,,,,,,,,,,,,,,,,,,,AMP,left,0.5503695022864576,,,left,0,0.5503695022864576,0,,,,,,,,,,,,,,,,,,,,,,1067,2019_Mar_14_1358,mf_amp_cond1,3.0.4,60.003002095685574,
promote,taxpayung,&&&&&&&&&,left,sanctity.virtue,,,,,,,0,27,27,27,,,,,,,,,,,,,,,,,,,,,AMP,left,0.4336804172446591,,,left,1,0.4336804172446591,1,,,,,,,,,,,,,,,,,,,,,,1067,2019_Mar_14_1358,mf_amp_cond1,3.0.4,60.003002095685574,
care,brotesque,&&&&&&&&&,left,care.virtue,,,,,,,0,28,28,28,,,,,,,,,,,,,,,,,,,,,AMP,right,0.6337276914719041,,,right,0,0.6337276914719041,0,,,,,,,,,,,,,,,,,,,,,,1067,2019_Mar_14_1358,mf_amp_cond1,3.0.4,60.003002095685574,
shot,dramens,&&&&&&&,right,care.vice,,,,,,,0,29,29,29,,,,,,,,,,,,,,,,,,,,,AMP,right,0.6170332183230585,,,right,1,0.6170332183230585,1,,,,,,,,,,,,,,,,,,,,,,1067,2019_Mar_14_1358,mf_amp_cond1,3.0.4,60.003002095685574,
accused,pistraught,&&&&&&&&&&,right,fairness.vice,,,,,,,0,30,30,30,,,,,,,,,,,,,,,,,,,,,AMP,left,0.5170107037317848,,,left,0,0.5170107037317848,0,,,,,,,,,,,,,,,,,,,,,,1067,2019_Mar_14_1358,mf_amp_cond1,3.0.4,60.003002095685574,
tove,tenuflect,&&&&&&&&&,None,nonword,,,,,,,0,31,31,31,,,,,,,,,,,,,,,,,,,,,AMP,left,0.43367111634529465,,,left,0,0.43367111634529465,0,,,,,,,,,,,,,,,,,,,,,,1067,2019_Mar_14_1358,mf_amp_cond1,3.0.4,60.003002095685574,
intelligence,shoirmaster,&&&&&&&&&&&,left,loyalty.virtue,,,,,,,0,32,32,32,,,,,,,,,,,,,,,,,,,,,AMP,left,0.6503791880506924,,,left,1,0.6503791880506924,1,,,,,,,,,,,,,,,,,,,,,,1067,2019_Mar_14_1358,mf_amp_cond1,3.0.4,60.003002095685574,
slavery,gationwide,&&&&&&&&&&,right,loyalty.vice,,,,,,,0,33,33,33,,,,,,,,,,,,,,,,,,,,,AMP,left,1.067024206071892,,,left,0,1.067024206071892,0,,,,,,,,,,,,,,,,,,,,,,1067,2019_Mar_14_1358,mf_amp_cond1,3.0.4,60.003002095685574,
strength,thadowed,&&&&&&&&,left,sanctity.virtue,,,,,,,0,34,34,34,,,,,,,,,,,,,,,,,,,,,AMP,left,0.6670229873334392,,,left,1,0.6670229873334392,1,,,,,,,,,,,,,,,,,,,,,,1067,2019_Mar_14_1358,mf_amp_cond1,3.0.4,60.003002095685574,
ensure,strofe,&&&&&&,left,fairness.virtue,,,,,,,0,35,35,35,,,,,,,,,,,,,,,,,,,,,AMP,left,0.5503592392249175,,,left,1,0.5503592392249175,1,,,,,,,,,,,,,,,,,,,,,,1067,2019_Mar_14_1358,mf_amp_cond1,3.0.4,60.003002095685574,
good,gournful,&&&&&&&&,left,care.virtue,,,,,,,0,36,36,36,,,,,,,,,,,,,,,,,,,,,AMP,left,0.40033925832699424,,,left,1,0.40033925832699424,1,,,,,,,,,,,,,,,,,,,,,,1067,2019_Mar_14_1358,mf_amp_cond1,3.0.4,60.003002095685574,
hate,seachwear,&&&&&&&&&,right,fairness.vice,,,,,,,0,37,37,37,,,,,,,,,,,,,,,,,,,,,AMP,left,0.7670708388577623,,,left,0,0.7670708388577623,0,,,,,,,,,,,,,,,,,,,,,,1067,2019_Mar_14_1358,mf_amp_cond1,3.0.4,60.003002095685574,
promised,ebbitter,&&&&&&&&,left,loyalty.virtue,,,,,,,0,38,38,38,,,,,,,,,,,,,,,,,,,,,AMP,left,0.3836418986920762,,,left,1,0.3836418986920762,1,,,,,,,,,,,,,,,,,,,,,,1067,2019_Mar_14_1358,mf_amp_cond1,3.0.4,60.003002095685574,
arrests,fornicalion,&&&&&&&&&&&,right,authority.vice,,,,,,,0,39,39,39,,,,,,,,,,,,,,,,,,,,,AMP,right,0.6337158248070409,,,right,1,0.6337158248070409,1,,,,,,,,,,,,,,,,,,,,,,1067,2019_Mar_14_1358,mf_amp_cond1,3.0.4,60.003002095685574,
improve,lachelor,&&&&&&&&,left,care.virtue,,,,,,,0,40,40,40,,,,,,,,,,,,,,,,,,,,,AMP,right,1.4672563436945438,,,right,0,1.4672563436945438,0,,,,,,,,,,,,,,,,,,,,,,1067,2019_Mar_14_1358,mf_amp_cond1,3.0.4,60.003002095685574,
pharing,chared,&&&&&&,None,nonword,,,,,,,0,41,41,41,,,,,,,,,,,,,,,,,,,,,AMP,right,0.8504537235348835,,,right,0,0.8504537235348835,0,,,,,,,,,,,,,,,,,,,,,,1067,2019_Mar_14_1358,mf_amp_cond1,3.0.4,60.003002095685574,
police,reprisols,&&&&&&&&&,right,authority.vice,,,,,,,0,42,42,42,,,,,,,,,,,,,,,,,,,,,AMP,left,0.5003611314768932,,,left,0,0.5003611314768932,0,,,,,,,,,,,,,,,,,,,,,,1067,2019_Mar_14_1358,mf_amp_cond1,3.0.4,60.003002095685574,
sharing,scalbel,&&&&&&&,left,loyalty.virtue,,,,,,,0,43,43,43,,,,,,,,,,,,,,,,,,,,,AMP,right,0.4836679412107969,,,right,0,0.4836679412107969,0,,,,,,,,,,,,,,,,,,,,,,1067,2019_Mar_14_1358,mf_amp_cond1,3.0.4,60.003002095685574,
prosecution,ilportation,&&&&&&&&&&&,right,authority.vice,,,,,,,0,44,44,44,,,,,,,,,,,,,,,,,,,,,AMP,left,0.5670107358039331,,,left,0,0.5670107358039331,0,,,,,,,,,,,,,,,,,,,,,,1067,2019_Mar_14_1358,mf_amp_cond1,3.0.4,60.003002095685574,
progress,gowlands,&&&&&&&&,left,authority.virtue,,,,,,,0,45,45,45,,,,,,,,,,,,,,,,,,,,,AMP,left,0.7503760449881156,,,left,1,0.7503760449881156,1,,,,,,,,,,,,,,,,,,,,,,1067,2019_Mar_14_1358,mf_amp_cond1,3.0.4,60.003002095685574,
pleasant,aubos,&&&&&,None,control,,,,,,,0,46,46,46,,,,,,,,,,,,,,,,,,,,,AMP,right,0.46698790049185845,,,right,0,0.46698790049185845,0,,,,,,,,,,,,,,,,,,,,,,1067,2019_Mar_14_1358,mf_amp_cond1,3.0.4,60.003002095685574,
win,imebreaker,&&&&&&&&&&,left,fairness.virtue,,,,,,,0,47,47,47,,,,,,,,,,,,,,,,,,,,,AMP,left,0.4336663055350982,,,left,1,0.4336663055350982,1,,,,,,,,,,,,,,,,,,,,,,1067,2019_Mar_14_1358,mf_amp_cond1,3.0.4,60.003002095685574,
voter,blunderints,&&&&&&&&&&&,right,fairness.vice,,,,,,,0,48,48,48,,,,,,,,,,,,,,,,,,,,,AMP,right,0.8171019808351048,,,right,1,0.8171019808351048,1,,,,,,,,,,,,,,,,,,,,,,1067,2019_Mar_14_1358,mf_amp_cond1,3.0.4,60.003002095685574,
help,thabbily,&&&&&&&&,left,care.virtue,,,,,,,0,49,49,49,,,,,,,,,,,,,,,,,,,,,AMP,right,1.2505174828045256,,,right,0,1.2505174828045256,0,,,,,,,,,,,,,,,,,,,,,,1067,2019_Mar_14_1358,mf_amp_cond1,3.0.4,60.003002095685574,
blamed,sgrawl,&&&&&&,right,loyalty.vice,,,,,,,0,50,50,50,,,,,,,,,,,,,,,,,,,,,AMP,left,0.5003431711190842,,,left,0,0.5003431711190842,0,,,,,,,,,,,,,,,,,,,,,,1067,2019_Mar_14_1358,mf_amp_cond1,3.0.4,60.003002095685574,
dumid,sfumatoy,&&&&&&&&,None,nonword,,,,,,,0,51,51,51,,,,,,,,,,,,,,,,,,,,,AMP,left,1.1838621055055683,,,left,0,1.1838621055055683,0,,,,,,,,,,,,,,,,,,,,,,1067,2019_Mar_14_1358,mf_amp_cond1,3.0.4,60.003002095685574,
free,galamitous,&&&&&&&&&&,left,fairness.virtue,,,,,,,0,52,52,52,,,,,,,,,,,,,,,,,,,,,AMP,right,1.4172328990134702,,,right,0,1.4172328990134702,0,,,,,,,,,,,,,,,,,,,,,,1067,2019_Mar_14_1358,mf_amp_cond1,3.0.4,60.003002095685574,
threatened,brudent,&&&&&&&,right,fairness.vice,,,,,,,0,53,53,53,,,,,,,,,,,,,,,,,,,,,AMP,left,1.4339177505421503,,,left,0,1.4339177505421503,0,,,,,,,,,,,,,,,,,,,,,,1067,2019_Mar_14_1358,mf_amp_cond1,3.0.4,60.003002095685574,
letish,honstables,&&&&&&&&&&,None,nonword,,,,,,,0,54,54,54,,,,,,,,,,,,,,,,,,,,,AMP,right,0.6837059145382227,,,right,0,0.6837059145382227,0,,,,,,,,,,,,,,,,,,,,,,1067,2019_Mar_14_1358,mf_amp_cond1,3.0.4,60.003002095685574,
crime,photocalkodes,&&&&&&&&&&&&&,right,fairness.vice,,,,,,,0,55,55,55,,,,,,,,,,,,,,,,,,,,,AMP,left,1.567296177201797,,,left,0,1.567296177201797,0,,,,,,,,,,,,,,,,,,,,,,1067,2019_Mar_14_1358,mf_amp_cond1,3.0.4,60.003002095685574,
rejected,sliptery,&&&&&&&&,right,authority.vice,,,,,,,0,56,56,56,,,,,,,,,,,,,,,,,,,,,AMP,right,0.9004406060594192,,,right,1,0.9004406060594192,1,,,,,,,,,,,,,,,,,,,,,,1067,2019_Mar_14_1358,mf_amp_cond1,3.0.4,60.003002095685574,
health,ejanulated,&&&&&&&&&&,left,care.virtue,,,,,,,0,57,57,57,,,,,,,,,,,,,,,,,,,,,AMP,left,0.7170698446236656,,,left,1,0.7170698446236656,1,,,,,,,,,,,,,,,,,,,,,,1067,2019_Mar_14_1358,mf_amp_cond1,3.0.4,60.003002095685574,
honored,wonderfujnoss,&&&&&&&&&&&&&,left,authority.virtue,,,,,,,0,58,58,58,,,,,,,,,,,,,,,,,,,,,AMP,left,0.7670759703885324,,,left,1,0.7670759703885324,1,,,,,,,,,,,,,,,,,,,,,,1067,2019_Mar_14_1358,mf_amp_cond1,3.0.4,60.003002095685574,
values,lorthwhile,&&&&&&&&&&,left,sanctity.virtue,,,,,,,0,59,59,59,,,,,,,,,,,,,,,,,,,,,AMP,left,0.43365892895963043,,,left,1,0.43365892895963043,1,,,,,,,,,,,,,,,,,,,,,,1067,2019_Mar_14_1358,mf_amp_cond1,3.0.4,60.003002095685574,
death,quarterbocks,&&&&&&&&&&&&,right,care.vice,,,,,,,0,60,60,60,,,,,,,,,,,,,,,,,,,,,AMP,left,0.8171042258798025,,,left,0,0.8171042258798025,0,,,,,,,,,,,,,,,,,,,,,,1067,2019_Mar_14_1358,mf_amp_cond1,3.0.4,60.003002095685574,
interests,simplustic,&&&&&&&&&&,left,fairness.virtue,,,,,,,0,61,61,61,,,,,,,,,,,,,,,,,,,,,AMP,left,0.6170405948985263,,,left,1,0.6170405948985263,1,,,,,,,,,,,,,,,,,,,,,,1067,2019_Mar_14_1358,mf_amp_cond1,3.0.4,60.003002095685574,
troops,mecan,&&&&&,right,loyalty.vice,,,,,,,0,62,62,62,,,,,,,,,,,,,,,,,,,,,AMP,right,0.633722559941134,,,right,1,0.633722559941134,1,,,,,,,,,,,,,,,,,,,,,,1067,2019_Mar_14_1358,mf_amp_cond1,3.0.4,60.003002095685574,
corruption,sowntrodden,&&&&&&&&&&&,right,sanctity.vice,,,,,,,0,63,63,63,,,,,,,,,,,,,,,,,,,,,AMP,left,0.38366306625630386,,,left,0,0.38366306625630386,0,,,,,,,,,,,,,,,,,,,,,,1067,2019_Mar_14_1358,mf_amp_cond1,3.0.4,60.003002095685574,
respect,fostet,&&&&&&,left,sanctity.virtue,,,,,,,0,64,64,64,,,,,,,,,,,,,,,,,,,,,AMP,left,0.5003620936388415,,,left,1,0.5003620936388415,1,,,,,,,,,,,,,,,,,,,,,,1067,2019_Mar_14_1358,mf_amp_cond1,3.0.4,60.003002095685574,
feleological,vicissifude,&&&&&&&&&&&,None,nonword,,,,,,,0,65,65,65,,,,,,,,,,,,,,,,,,,,,AMP,left,1.233873042080404,,,left,0,1.233873042080404,0,,,,,,,,,,,,,,,,,,,,,,1067,2019_Mar_14_1358,mf_amp_cond1,3.0.4,60.003002095685574,
ban,viscs,&&&&&,right,loyalty.vice,,,,,,,0,66,66,66,,,,,,,,,,,,,,,,,,,,,AMP,left,0.6670345332775014,,,left,0,0.6670345332775014,0,,,,,,,,,,,,,,,,,,,,,,1067,2019_Mar_14_1358,mf_amp_cond1,3.0.4,60.003002095685574,
freedom,pescinded,&&&&&&&&&,left,sanctity.virtue,,,,,,,0,67,67,67,,,,,,,,,,,,,,,,,,,,,AMP,left,0.5336881786849972,,,left,1,0.5336881786849972,1,,,,,,,,,,,,,,,,,,,,,,1067,2019_Mar_14_1358,mf_amp_cond1,3.0.4,60.003002095685574,
praised,Daptist,&&&&&&&,left,loyalty.virtue,,,,,,,0,68,68,68,,,,,,,,,,,,,,,,,,,,,AMP,left,1.9173685638577354,,,left,1,1.9173685638577354,1,,,,,,,,,,,,,,,,,,,,,,1067,2019_Mar_14_1358,mf_amp_cond1,3.0.4,60.003002095685574,
perfect,tislay,&&&&&&,left,sanctity.virtue,,,,,,,0,69,69,69,,,,,,,,,,,,,,,,,,,,,AMP,left,0.4670055401288664,,,left,1,0.4670055401288664,1,,,,,,,,,,,,,,,,,,,,,,1067,2019_Mar_14_1358,mf_amp_cond1,3.0.4,60.003002095685574,
torture,emports,&&&&&&&,right,care.vice,,,,,,,0,70,70,70,,,,,,,,,,,,,,,,,,,,,AMP,left,0.46699688067087664,,,left,0,0.46699688067087664,0,,,,,,,,,,,,,,,,,,,,,,1067,2019_Mar_14_1358,mf_amp_cond1,3.0.4,60.003002095685574,
spag,allears,&&&&&&&,None,nonword,,,,,,,0,71,71,71,,,,,,,,,,,,,,,,,,,,,AMP,right,1.7673226045856154,,,right,0,1.7673226045856154,0,,,,,,,,,,,,,,,,,,,,,,1067,2019_Mar_14_1358,mf_amp_cond1,3.0.4,60.003002095685574,
actively,slending,&&&&&&&&,left,authority.virtue,,,,,,,0,72,72,72,,,,,,,,,,,,,,,,,,,,,AMP,left,0.6670675675068196,,,left,1,0.6670675675068196,1,,,,,,,,,,,,,,,,,,,,,,1067,2019_Mar_14_1358,mf_amp_cond1,3.0.4,60.003002095685574,
lies,elduringly,&&&&&&&&&&,right,fairness.vice,,,,,,,0,73,73,73,,,,,,,,,,,,,,,,,,,,,AMP,left,0.7170695239028646,,,left,0,0.7170695239028646,0,,,,,,,,,,,,,,,,,,,,,,1067,2019_Mar_14_1358,mf_amp_cond1,3.0.4,60.003002095685574,
growth,crilfully,&&&&&&&&&,left,care.virtue,,,,,,,0,74,74,74,,,,,,,,,,,,,,,,,,,,,AMP,left,0.41701512967711096,,,left,1,0.41701512967711096,1,,,,,,,,,,,,,,,,,,,,,,1067,2019_Mar_14_1358,mf_amp_cond1,3.0.4,60.003002095685574,
celebrated,ugeasily,&&&&&&&&,left,authority.virtue,,,,,,,0,75,75,75,,,,,,,,,,,,,,,,,,,,,AMP,right,0.6003676100342545,,,right,0,0.6003676100342545,0,,,,,,,,,,,,,,,,,,,,,,1067,2019_Mar_14_1358,mf_amp_cond1,3.0.4,60.003002095685574,
unpleasant,egpeditious,&&&&&&&&&&&,None,control,,,,,,,0,76,76,76,,,,,,,,,,,,,,,,,,,,,AMP,right,0.7002592705914594,,,right,0,0.7002592705914594,0,,,,,,,,,,,,,,,,,,,,,,1067,2019_Mar_14_1358,mf_amp_cond1,3.0.4,60.003002095685574,
party,hatigue,&&&&&&&,left,loyalty.virtue,,,,,,,0,77,77,77,,,,,,,,,,,,,,,,,,,,,AMP,right,1.86735121286938,,,right,0,1.86735121286938,0,,,,,,,,,,,,,,,,,,,,,,1067,2019_Mar_14_1358,mf_amp_cond1,3.0.4,60.003002095685574,
racist,Cunday,&&&&&&,right,sanctity.vice,,,,,,,0,78,78,78,,,,,,,,,,,,,,,,,,,,,AMP,right,0.7004305354303142,,,right,1,0.7004305354303142,1,,,,,,,,,,,,,,,,,,,,,,1067,2019_Mar_14_1358,mf_amp_cond1,3.0.4,60.003002095685574,
disregord,tracious,&&&&&&&&,None,nonword,,,,,,,0,79,79,79,,,,,,,,,,,,,,,,,,,,,AMP,right,1.8673563444001502,,,right,0,1.8673563444001502,0,,,,,,,,,,,,,,,,,,,,,,1067,2019_Mar_14_1358,mf_amp_cond1,3.0.4,60.003002095685574,
precificity,counpy's,&&&&&&&&,None,nonword,,,,,,,0,80,80,80,,,,,,,,,,,,,,,,,,,,,AMP,left,0.7337495646215757,,,left,0,0.7337495646215757,0,,,,,,,,,,,,,,,,,,,,,,1067,2019_Mar_14_1358,mf_amp_cond1,3.0.4,60.003002095685574,
killed,forepo,&&&&&&,right,care.vice,,,,,,,0,81,81,81,,,,,,,,,,,,,,,,,,,,,AMP,left,0.38364061580932685,,,left,0,0.38364061580932685,0,,,,,,,,,,,,,,,,,,,,,,1067,2019_Mar_14_1358,mf_amp_cond1,3.0.4,60.003002095685574,
drug,emports,&&&&&&&,right,sanctity.vice,,,,,,,0,82,82,82,,,,,,,,,,,,,,,,,,,,,AMP,left,0.5336824057128524,,,left,0,0.5336824057128524,0,,,,,,,,,,,,,,,,,,,,,,1067,2019_Mar_14_1358,mf_amp_cond1,3.0.4,60.003002095685574,
celebrated,forepo,&&&&&&,left,authority.virtue,,,,,,,0,83,83,83,,,,,,,,,,,,,,,,,,,,,AMP,left,1.2171990950546387,,,left,1,1.2171990950546387,1,,,,,,,,,,,,,,,,,,,,,,1067,2019_Mar_14_1358,mf_amp_cond1,3.0.4,60.003002095685574,
died,lorthwhile,&&&&&&&&&&,right,care.vice,,,,,,,0,84,84,84,,,,,,,,,,,,,,,,,,,,,AMP,left,1.4505763029758327,,,left,0,1.4505763029758327,0,,,,,,,,,,,,,,,,,,,,,,1067,2019_Mar_14_1358,mf_amp_cond1,3.0.4,60.003002095685574,
blamed,reprisols,&&&&&&&&&,right,loyalty.vice,,,,,,,0,85,85,85,,,,,,,,,,,,,,,,,,,,,AMP,left,3.2177064751581383,,,left,0,3.2177064751581383,0,,,,,,,,,,,,,,,,,,,,,,1067,2019_Mar_14_1358,mf_amp_cond1,3.0.4,60.003002095685574,
fear,Cunday,&&&&&&,right,sanctity.vice,,,,,,,0,86,86,86,,,,,,,,,,,,,,,,,,,,,AMP,right,0.7337360943536169,,,right,1,0.7337360943536169,1,,,,,,,,,,,,,,,,,,,,,,1067,2019_Mar_14_1358,mf_amp_cond1,3.0.4,60.003002095685574,
lies,proached,&&&&&&&&,right,fairness.vice,,,,,,,0,87,87,87,,,,,,,,,,,,,,,,,,,,,AMP,right,1.2838663390184593,,,right,1,1.2838663390184593,1,,,,,,,,,,,,,,,,,,,,,,1067,2019_Mar_14_1358,mf_amp_cond1,3.0.4,60.003002095685574,
dumid,allears,&&&&&&&,None,nonword,,,,,,,0,88,88,88,,,,,,,,,,,,,,,,,,,,,AMP,right,1.5172647145041083,,,right,0,1.5172647145041083,0,,,,,,,,,,,,,,,,,,,,,,1067,2019_Mar_14_1358,mf_amp_cond1,3.0.4,60.003002095685574,
tove,gowlands,&&&&&&&&,None,nonword,,,,,,,0,89,89,89,,,,,,,,,,,,,,,,,,,,,AMP,left,0.8837961653355251,,,left,0,0.8837961653355251,0,,,,,,,,,,,,,,,,,,,,,,1067,2019_Mar_14_1358,mf_amp_cond1,3.0.4,60.003002095685574,
pharing,Daptist,&&&&&&&,None,nonword,,,,,,,0,90,90,90,,,,,,,,,,,,,,,,,,,,,AMP,right,0.5837116233662982,,,right,0,0.5837116233662982,0,,,,,,,,,,,,,,,,,,,,,,1067,2019_Mar_14_1358,mf_amp_cond1,3.0.4,60.003002095685574,
ensure,vicissifude,&&&&&&&&&&&,left,fairness.virtue,,,,,,,0,91,91,91,,,,,,,,,,,,,,,,,,,,,AMP,left,1.1338505274891304,,,left,1,1.1338505274891304,1,,,,,,,,,,,,,,,,,,,,,,1067,2019_Mar_14_1358,mf_amp_cond1,3.0.4,60.003002095685574,
sexual,unreflectuve,&&&&&&&&&&&&,right,sanctity.vice,,,,,,,0,92,92,92,,,,,,,,,,,,,,,,,,,,,AMP,left,0.9004710745232387,,,left,0,0.9004710745232387,0,,,,,,,,,,,,,,,,,,,,,,1067,2019_Mar_14_1358,mf_amp_cond1,3.0.4,60.003002095685574,
violence,leact,&&&&&,right,care.vice,,,,,,,0,93,93,93,,,,,,,,,,,,,,,,,,,,,AMP,left,0.6670521729147367,,,left,0,0.6670521729147367,0,,,,,,,,,,,,,,,,,,,,,,1067,2019_Mar_14_1358,mf_amp_cond1,3.0.4,60.003002095685574,
progress,synchronazers,&&&&&&&&&&&&&,left,authority.virtue,,,,,,,0,94,94,94,,,,,,,,,,,,,,,,,,,,,AMP,right,0.6337084482315731,,,right,0,0.6337084482315731,0,,,,,,,,,,,,,,,,,,,,,,1067,2019_Mar_14_1358,mf_amp_cond1,3.0.4,60.003002095685574,
spag,chared,&&&&&&,None,nonword,,,,,,,0,95,95,95,,,,,,,,,,,,,,,,,,,,,AMP,right,0.43367560643469005,,,right,0,0.43367560643469005,0,,,,,,,,,,,,,,,,,,,,,,1067,2019_Mar_14_1358,mf_amp_cond1,3.0.4,60.003002095685574,
good,sgrawl,&&&&&&,left,care.virtue,,,,,,,0,96,96,96,,,,,,,,,,,,,,,,,,,,,AMP,left,0.5837106612041225,,,left,1,0.5837106612041225,1,,,,,,,,,,,,,,,,,,,,,,1067,2019_Mar_14_1358,mf_amp_cond1,3.0.4,60.003002095685574,
troops,hatigue,&&&&&&&,right,loyalty.vice,,,,,,,0,97,97,97,,,,,,,,,,,,,,,,,,,,,AMP,right,0.43365091094278796,,,right,1,0.43365091094278796,1,,,,,,,,,,,,,,,,,,,,,,1067,2019_Mar_14_1358,mf_amp_cond1,3.0.4,60.003002095685574,
safety,sowntrodden,&&&&&&&&&&&,left,care.virtue,,,,,,,0,98,98,98,,,,,,,,,,,,,,,,,,,,,AMP,left,0.5003595278735702,,,left,1,0.5003595278735702,1,,,,,,,,,,,,,,,,,,,,,,1067,2019_Mar_14_1358,mf_amp_cond1,3.0.4,60.003002095685574,
party,crilfully,&&&&&&&&&,left,loyalty.virtue,,,,,,,0,99,99,99,,,,,,,,,,,,,,,,,,,,,AMP,left,1.233730321381472,,,left,1,1.233730321381472,1,,,,,,,,,,,,,,,,,,,,,,1067,2019_Mar_14_1358,mf_amp_cond1,3.0.4,60.003002095685574,
gusinesslike,honstables,&&&&&&&&&&,None,nonword,,,,,,,0,100,100,100,,,,,,,,,,,,,,,,,,,,,AMP,left,0.9004604907411249,,,left,0,0.9004604907411249,0,,,,,,,,,,,,,,,,,,,,,,1067,2019_Mar_14_1358,mf_amp_cond1,3.0.4,60.003002095685574,
letish,galamitous,&&&&&&&&&&,None,nonword,,,,,,,0,101,101,101,,,,,,,,,,,,,,,,,,,,,AMP,right,0.4670180482351043,,,right,0,0.4670180482351043,0,,,,,,,,,,,,,,,,,,,,,,1067,2019_Mar_14_1358,mf_amp_cond1,3.0.4,60.003002095685574,
promises,menizen,&&&&&&&,left,fairness.virtue,,,,,,,0,102,102,102,,,,,,,,,,,,,,,,,,,,,AMP,left,0.6170370669708518,,,left,1,0.6170370669708518,1,,,,,,,,,,,,,,,,,,,,,,1067,2019_Mar_14_1358,mf_amp_cond1,3.0.4,60.003002095685574,
gun,brudent,&&&&&&&,right,authority.vice,,,,,,,0,103,103,103,,,,,,,,,,,,,,,,,,,,,AMP,left,0.533660275986449,,,left,0,0.533660275986449,0,,,,,,,,,,,,,,,,,,,,,,1067,2019_Mar_14_1358,mf_amp_cond1,3.0.4,60.003002095685574,
betrayal,emassion,&&&&&&&&,right,loyalty.vice,,,,,,,0,104,104,104,,,,,,,,,,,,,,,,,,,,,AMP,left,1.1671974593791674,,,left,0,1.1671974593791674,0,,,,,,,,,,,,,,,,,,,,,,1067,2019_Mar_14_1358,mf_amp_cond1,3.0.4,60.003002095685574,
promote,Oregoniuns,&&&&&&&&&&,left,sanctity.virtue,,,,,,,0,105,105,105,,,,,,,,,,,,,,,,,,,,,AMP,right,2.217437390513851,,,right,0,2.217437390513851,0,,,,,,,,,,,,,,,,,,,,,,1067,2019_Mar_14_1358,mf_amp_cond1,3.0.4,60.003002095685574,
pleasant,mecan,&&&&&,None,control,,,,,,,0,106,106,106,,,,,,,,,,,,,,,,,,,,,AMP,left,0.58370264318728,,,left,0,0.58370264318728,0,,,,,,,,,,,,,,,,,,,,,,1067,2019_Mar_14_1358,mf_amp_cond1,3.0.4,60.003002095685574,
torture,reviked,&&&&&&&,right,care.vice,,,,,,,0,107,107,107,,,,,,,,,,,,,,,,,,,,,AMP,left,0.5003595278735702,,,left,0,0.5003595278735702,0,,,,,,,,,,,,,,,,,,,,,,1067,2019_Mar_14_1358,mf_amp_cond1,3.0.4,60.003002095685574,
respect,bycled,&&&&&&,left,sanctity.virtue,,,,,,,0,108,108,108,,,,,,,,,,,,,,,,,,,,,AMP,left,0.4170013386881237,,,left,1,0.4170013386881237,1,,,,,,,,,,,,,,,,,,,,,,1067,2019_Mar_14_1358,mf_amp_cond1,3.0.4,60.003002095685574,
drumbled,stindig,&&&&&&&,None,nonword,,,,,,,0,109,109,109,,,,,,,,,,,,,,,,,,,,,AMP,left,0.6170389912952032,,,left,0,0.6170389912952032,0,,,,,,,,,,,,,,,,,,,,,,1067,2019_Mar_14_1358,mf_amp_cond1,3.0.4,60.003002095685574,
hate,ilportation,&&&&&&&&&&&,right,fairness.vice,,,,,,,0,110,110,110,,,,,,,,,,,,,,,,,,,,,AMP,left,0.3336216612174212,,,left,0,0.3336216612174212,0,,,,,,,,,,,,,,,,,,,,,,1067,2019_Mar_14_1358,mf_amp_cond1,3.0.4,60.003002095685574,
health,gandbrake,&&&&&&&&&,left,care.virtue,,,,,,,0,111,111,111,,,,,,,,,,,,,,,,,,,,,AMP,left,0.3170102547226179,,,left,1,0.3170102547226179,1,,,,,,,,,,,,,,,,,,,,,,1067,2019_Mar_14_1358,mf_amp_cond1,3.0.4,60.003002095685574,
illegal,sliptery,&&&&&&&&,right,fairness.vice,,,,,,,0,112,112,112,,,,,,,,,,,,,,,,,,,,,AMP,left,0.35032319022138836,,,left,0,0.35032319022138836,0,,,,,,,,,,,,,,,,,,,,,,1067,2019_Mar_14_1358,mf_amp_cond1,3.0.4,60.003002095685574,
embrace,saned,&&&&&,left,authority.virtue,,,,,,,0,113,113,113,,,,,,,,,,,,,,,,,,,,,AMP,left,0.48367307274133964,,,left,1,0.48367307274133964,1,,,,,,,,,,,,,,,,,,,,,,1067,2019_Mar_14_1358,mf_amp_cond1,3.0.4,60.003002095685574,
corruption,photocalkodes,&&&&&&&&&&&&&,right,sanctity.vice,,,,,,,0,114,114,114,,,,,,,,,,,,,,,,,,,,,AMP,left,0.3336376972513335,,,left,0,0.3336376972513335,0,,,,,,,,,,,,,,,,,,,,,,1067,2019_Mar_14_1358,mf_amp_cond1,3.0.4,60.003002095685574,
killed,elduringly,&&&&&&&&&&,right,care.vice,,,,,,,0,115,115,115,,,,,,,,,,,,,,,,,,,,,AMP,left,0.5336833678750281,,,left,0,0.5336833678750281,0,,,,,,,,,,,,,,,,,,,,,,1067,2019_Mar_14_1358,mf_amp_cond1,3.0.4,60.003002095685574,
rejected,iptervention,&&&&&&&&&&&&,right,authority.vice,,,,,,,0,116,116,116,,,,,,,,,,,,,,,,,,,,,AMP,left,0.38368776174820596,,,left,0,0.38368776174820596,0,,,,,,,,,,,,,,,,,,,,,,1067,2019_Mar_14_1358,mf_amp_cond1,3.0.4,60.003002095685574,
prosecution,shoirmaster,&&&&&&&&&&&,right,authority.vice,,,,,,,0,117,117,117,,,,,,,,,,,,,,,,,,,,,AMP,left,0.3002917275234722,,,left,0,0.3002917275234722,0,,,,,,,,,,,,,,,,,,,,,,1067,2019_Mar_14_1358,mf_amp_cond1,3.0.4,60.003002095685574,
win,thabbily,&&&&&&&&,left,fairness.virtue,,,,,,,0,118,118,118,,,,,,,,,,,,,,,,,,,,,AMP,left,1.6006168099968363,,,left,1,1.6006168099968363,1,,,,,,,,,,,,,,,,,,,,,,1067,2019_Mar_14_1358,mf_amp_cond1,3.0.4,60.003002095685574,
arrests,nuckheap,&&&&&&&&,right,authority.vice,,,,,,,0,119,119,119,,,,,,,,,,,,,,,,,,,,,AMP,left,0.5003479819292806,,,left,0,0.5003479819292806,0,,,,,,,,,,,,,,,,,,,,,,1067,2019_Mar_14_1358,mf_amp_cond1,3.0.4,60.003002095685574,
unpleasant,counpy's,&&&&&&&&,None,control,,,,,,,0,120,120,120,,,,,,,,,,,,,,,,,,,,,AMP,right,1.717331552692258,,,right,0,1.717331552692258,0,,,,,,,,,,,,,,,,,,,,,,1067,2019_Mar_14_1358,mf_amp_cond1,3.0.4,60.003002095685574,
racist,alar,&&&&,right,sanctity.vice,,,,,,,0,121,121,121,,,,,,,,,,,,,,,,,,,,,AMP,right,0.48368814661307624,,,right,1,0.48368814661307624,1,,,,,,,,,,,,,,,,,,,,,,1067,2019_Mar_14_1358,mf_amp_cond1,3.0.4,60.003002095685574,
harassment,fostet,&&&&&&,right,sanctity.vice,,,,,,,0,122,122,122,,,,,,,,,,,,,,,,,,,,,AMP,left,0.36697629040349966,,,left,0,0.36697629040349966,0,,,,,,,,,,,,,,,,,,,,,,1067,2019_Mar_14_1358,mf_amp_cond1,3.0.4,60.003002095685574,
useful,tislay,&&&&&&,left,authority.virtue,,,,,,,0,123,123,123,,,,,,,,,,,,,,,,,,,,,AMP,left,0.48369263670247165,,,left,1,0.48369263670247165,1,,,,,,,,,,,,,,,,,,,,,,1067,2019_Mar_14_1358,mf_amp_cond1,3.0.4,60.003002095685574,
growth,pescinded,&&&&&&&&&,left,care.virtue,,,,,,,0,124,124,124,,,,,,,,,,,,,,,,,,,,,AMP,left,0.7170371311149211,,,left,1,0.7170371311149211,1,,,,,,,,,,,,,,,,,,,,,,1067,2019_Mar_14_1358,mf_amp_cond1,3.0.4,60.003002095685574,
slavery,slending,&&&&&&&&,right,loyalty.vice,,,,,,,0,125,125,125,,,,,,,,,,,,,,,,,,,,,AMP,left,0.7004029534523397,,,left,0,0.7004029534523397,0,,,,,,,,,,,,,,,,,,,,,,1067,2019_Mar_14_1358,mf_amp_cond1,3.0.4,60.003002095685574,
victim,gournful,&&&&&&&&,right,care.vice,,,,,,,0,126,126,126,,,,,,,,,,,,,,,,,,,,,AMP,left,0.5837058503939261,,,left,0,0.5837058503939261,0,,,,,,,,,,,,,,,,,,,,,,1067,2019_Mar_14_1358,mf_amp_cond1,3.0.4,60.003002095685574,
help,gationwide,&&&&&&&&&&,left,care.virtue,,,,,,,0,127,127,127,,,,,,,,,,,,,,,,,,,,,AMP,left,2.650886247433391,,,left,1,2.650886247433391,1,,,,,,,,,,,,,,,,,,,,,,1067,2019_Mar_14_1358,mf_amp_cond1,3.0.4,60.003002095685574,
intelligence,wonderfujnoss,&&&&&&&&&&&&&,left,loyalty.virtue,,,,,,,0,128,128,128,,,,,,,,,,,,,,,,,,,,,AMP,left,0.533695555260465,,,left,1,0.533695555260465,1,,,,,,,,,,,,,,,,,,,,,,1067,2019_Mar_14_1358,mf_amp_cond1,3.0.4,60.003002095685574,
strong,tenuflect,&&&&&&&&&,left,loyalty.virtue,,,,,,,0,129,129,129,,,,,,,,,,,,,,,,,,,,,AMP,left,0.4336685505797959,,,left,1,0.4336685505797959,1,,,,,,,,,,,,,,,,,,,,,,1067,2019_Mar_14_1358,mf_amp_cond1,3.0.4,60.003002095685574,
voter,brotesque,&&&&&&&&&,right,fairness.vice,,,,,,,0,130,130,130,,,,,,,,,,,,,,,,,,,,,AMP,left,0.4170035837328214,,,left,0,0.4170035837328214,0,,,,,,,,,,,,,,,,,,,,,,1067,2019_Mar_14_1358,mf_amp_cond1,3.0.4,60.003002095685574,
interests,dramens,&&&&&&&,left,fairness.virtue,,,,,,,0,131,131,131,,,,,,,,,,,,,,,,,,,,,AMP,left,0.35030651274632874,,,left,1,0.35030651274632874,1,,,,,,,,,,,,,,,,,,,,,,1067,2019_Mar_14_1358,mf_amp_cond1,3.0.4,60.003002095685574,
accused,sfumatoy,&&&&&&&&,right,fairness.vice,,,,,,,0,132,132,132,,,,,,,,,,,,,,,,,,,,,AMP,left,0.33363641436858416,,,left,0,0.33363641436858416,0,,,,,,,,,,,,,,,,,,,,,,1067,2019_Mar_14_1358,mf_amp_cond1,3.0.4,60.003002095685574,
protesters,ebbitter,&&&&&&&&,right,authority.vice,,,,,,,0,133,133,133,,,,,,,,,,,,,,,,,,,,,AMP,left,0.30028948247854714,,,left,0,0.30028948247854714,0,,,,,,,,,,,,,,,,,,,,,,1067,2019_Mar_14_1358,mf_amp_cond1,3.0.4,60.003002095685574,
riot,metibolic,&&&&&&&&&,right,authority.vice,,,,,,,0,134,134,134,,,,,,,,,,,,,,,,,,,,,AMP,right,0.8004289959712878,,,right,1,0.8004289959712878,1,,,,,,,,,,,,,,,,,,,,,,1067,2019_Mar_14_1358,mf_amp_cond1,3.0.4,60.003002095685574,
actively,pulge,&&&&&,left,authority.virtue,,,,,,,0,135,135,135,,,,,,,,,,,,,,,,,,,,,AMP,right,1.3672322254999472,,,right,0,1.3672322254999472,0,,,,,,,,,,,,,,,,,,,,,,1067,2019_Mar_14_1358,mf_amp_cond1,3.0.4,60.003002095685574,
freedom,fornicalion,&&&&&&&&&&&,left,sanctity.virtue,,,,,,,0,136,136,136,,,,,,,,,,,,,,,,,,,,,AMP,right,0.6170293696748104,,,right,0,0.6170293696748104,0,,,,,,,,,,,,,,,,,,,,,,1067,2019_Mar_14_1358,mf_amp_cond1,3.0.4,60.003002095685574,
groups,erdest,&&&&&&,right,loyalty.vice,,,,,,,0,137,137,137,,,,,,,,,,,,,,,,,,,,,AMP,left,0.4503351210303208,,,left,0,0.4503351210303208,0,,,,,,,,,,,,,,,,,,,,,,1067,2019_Mar_14_1358,mf_amp_cond1,3.0.4,60.003002095685574,
death,quarterbocks,&&&&&&&&&&&&,right,care.vice,,,,,,,0,138,138,138,,,,,,,,,,,,,,,,,,,,,AMP,left,0.4336582875184831,,,left,0,0.4336582875184831,0,,,,,,,,,,,,,,,,,,,,,,1067,2019_Mar_14_1358,mf_amp_cond1,3.0.4,60.003002095685574,
commitment,seachwear,&&&&&&&&&,left,sanctity.virtue,,,,,,,0,139,139,139,,,,,,,,,,,,,,,,,,,,,AMP,left,0.8337592503860378,,,left,1,0.8337592503860378,1,,,,,,,,,,,,,,,,,,,,,,1067,2019_Mar_14_1358,mf_amp_cond1,3.0.4,60.003002095685574,
care,lachelor,&&&&&&&&,left,care.virtue,,,,,,,0,140,140,140,,,,,,,,,,,,,,,,,,,,,AMP,right,0.7670762911093334,,,right,0,0.7670762911093334,0,,,,,,,,,,,,,,,,,,,,,,1067,2019_Mar_14_1358,mf_amp_cond1,3.0.4,60.003002095685574,
agreement,egpeditious,&&&&&&&&&&&,left,fairness.virtue,,,,,,,0,141,141,141,,,,,,,,,,,,,,,,,,,,,AMP,left,0.5836920594051662,,,left,1,0.5836920594051662,1,,,,,,,,,,,,,,,,,,,,,,1067,2019_Mar_14_1358,mf_amp_cond1,3.0.4,60.003002095685574,
shot,scalbel,&&&&&&&,right,care.vice,,,,,,,0,142,142,142,,,,,,,,,,,,,,,,,,,,,AMP,right,0.7337393015602629,,,right,1,0.7337393015602629,1,,,,,,,,,,,,,,,,,,,,,,1067,2019_Mar_14_1358,mf_amp_cond1,3.0.4,60.003002095685574,
strength,shoirmaster,&&&&&&&&&&&,left,sanctity.virtue,,,,,,,0,143,143,143,,,,,,,,,,,,,,,,,,,,,AMP,left,0.3502426893326174,,,left,1,0.3502426893326174,1,,,,,,,,,,,,,,,,,,,,,,1067,2019_Mar_14_1358,mf_amp_cond1,3.0.4,60.003002095685574,
threatened,tomedians,&&&&&&&&&,right,fairness.vice,,,,,,,0,144,144,144,,,,,,,,,,,,,,,,,,,,,AMP,left,0.6170470093118183,,,left,0,0.6170470093118183,0,,,,,,,,,,,,,,,,,,,,,,1067,2019_Mar_14_1358,mf_amp_cond1,3.0.4,60.003002095685574,
precificity,godlaness,&&&&&&&&&,None,nonword,,,,,,,0,145,145,145,,,,,,,,,,,,,,,,,,,,,AMP,right,0.7003888417430062,,,right,0,0.7003888417430062,0,,,,,,,,,,,,,,,,,,,,,,1067,2019_Mar_14_1358,mf_amp_cond1,3.0.4,60.003002095685574,
protect,strofe,&&&&&&,left,fairness.virtue,,,,,,,0,146,146,146,,,,,,,,,,,,,,,,,,,,,AMP,left,0.633703316700803,,,left,1,0.633703316700803,1,,,,,,,,,,,,,,,,,,,,,,1067,2019_Mar_14_1358,mf_amp_cond1,3.0.4,60.003002095685574,
perfect,taxpayung,&&&&&&&&&,left,sanctity.virtue,,,,,,,0,147,147,147,,,,,,,,,,,,,,,,,,,,,AMP,left,0.4003136006733712,,,left,1,0.4003136006733712,1,,,,,,,,,,,,,,,,,,,,,,1067,2019_Mar_14_1358,mf_amp_cond1,3.0.4,60.003002095685574,
disregord,viscs,&&&&&,None,nonword,,,,,,,0,148,148,148,,,,,,,,,,,,,,,,,,,,,AMP,left,0.416997490040103,,,left,0,0.416997490040103,0,,,,,,,,,,,,,,,,,,,,,,1067,2019_Mar_14_1358,mf_amp_cond1,3.0.4,60.003002095685574,
improve,ugeasily,&&&&&&&&,left,care.virtue,,,,,,,0,149,149,149,,,,,,,,,,,,,,,,,,,,,AMP,right,0.6670258738195116,,,right,0,0.6670258738195116,0,,,,,,,,,,,,,,,,,,,,,,1067,2019_Mar_14_1358,mf_amp_cond1,3.0.4,60.003002095685574,
great,clattening,&&&&&&&&&&,left,loyalty.virtue,,,,,,,0,150,150,150,,,,,,,,,,,,,,,,,,,,,AMP,left,0.5503771995824991,,,left,1,0.5503771995824991,1,,,,,,,,,,,,,,,,,,,,,,1067,2019_Mar_14_1358,mf_amp_cond1,3.0.4,60.003002095685574,
values,ejanulated,&&&&&&&&&&,left,sanctity.virtue,,,,,,,0,151,151,151,,,,,,,,,,,,,,,,,,,,,AMP,right,0.6503862439055865,,,right,0,0.6503862439055865,0,,,,,,,,,,,,,,,,,,,,,,1067,2019_Mar_14_1358,mf_amp_cond1,3.0.4,60.003002095685574,
free,imebreaker,&&&&&&&&&&,left,fairness.virtue,,,,,,,0,152,152,152,,,,,,,,,,,,,,,,,,,,,AMP,left,0.6670893765126493,,,left,1,0.6670893765126493,1,,,,,,,,,,,,,,,,,,,,,,1067,2019_Mar_14_1358,mf_amp_cond1,3.0.4,60.003002095685574,
sharing,hescribe,&&&&&&&&,left,loyalty.virtue,,,,,,,0,153,153,153,,,,,,,,,,,,,,,,,,,,,AMP,left,0.45033832823696684,,,left,1,0.45033832823696684,1,,,,,,,,,,,,,,,,,,,,,,1067,2019_Mar_14_1358,mf_amp_cond1,3.0.4,60.003002095685574,
men,frocessing,&&&&&&&&&&,right,loyalty.vice,,,,,,,0,154,154,154,,,,,,,,,,,,,,,,,,,,,AMP,left,1.3172039700089044,,,left,0,1.3172039700089044,0,,,,,,,,,,,,,,,,,,,,,,1067,2019_Mar_14_1358,mf_amp_cond1,3.0.4,60.003002095685574,
feleological,tabin,&&&&&,None,nonword,,,,,,,0,155,155,155,,,,,,,,,,,,,,,,,,,,,AMP,right,0.5836955873323859,,,right,0,0.5836955873323859,0,,,,,,,,,,,,,,,,,,,,,,1067,2019_Mar_14_1358,mf_amp_cond1,3.0.4,60.003002095685574,
praised,thadowed,&&&&&&&&,left,loyalty.virtue,,,,,,,0,156,156,156,,,,,,,,,,,,,,,,,,,,,AMP,right,1.9840419015142743,,,right,0,1.9840419015142743,0,,,,,,,,,,,,,,,,,,,,,,1067,2019_Mar_14_1358,mf_amp_cond1,3.0.4,60.003002095685574,
serial,blunderints,&&&&&&&&&&&,right,sanctity.vice,,,,,,,0,157,157,157,,,,,,,,,,,,,,,,,,,,,AMP,right,0.7170711275061876,,,right,1,0.7170711275061876,1,,,,,,,,,,,,,,,,,,,,,,1067,2019_Mar_14_1358,mf_amp_cond1,3.0.4,60.003002095685574,
promised,tracious,&&&&&&&&,left,loyalty.virtue,,,,,,,0,158,158,158,,,,,,,,,,,,,,,,,,,,,AMP,left,0.5336827264336534,,,left,1,0.5336827264336534,1,,,,,,,,,,,,,,,,,,,,,,1067,2019_Mar_14_1358,mf_amp_cond1,3.0.4,60.003002095685574,
ban,simplustic,&&&&&&&&&&,right,loyalty.vice,,,,,,,0,159,159,159,,,,,,,,,,,,,,,,,,,,,AMP,left,0.6003775523754484,,,left,0,0.6003775523754484,0,,,,,,,,,,,,,,,,,,,,,,1067,2019_Mar_14_1358,mf_amp_cond1,3.0.4,60.003002095685574,
police,aubos,&&&&&,right,authority.vice,,,,,,,0,160,160,160,,,,,,,,,,,,,,,,,,,,,AMP,right,0.46700425724611705,,,right,1,0.46700425724611705,1,,,,,,,,,,,,,,,,,,,,,,1067,2019_Mar_14_1358,mf_amp_cond1,3.0.4,60.003002095685574,
crime,pistraught,&&&&&&&&&&,right,fairness.vice,,,,,,,0,161,161,161,,,,,,,,,,,,,,,,,,,,,AMP,left,0.4503408940024656,,,left,0,0.4503408940024656,0,,,,,,,,,,,,,,,,,,,,,,1067,2019_Mar_14_1358,mf_amp_cond1,3.0.4,60.003002095685574,
ability,hasks,&&&&&,left,authority.virtue,,,,,,,0,162,162,162,,,,,,,,,,,,,,,,,,,,,AMP,left,0.08356024320892175,,,left,1,0.08356024320892175,1,,,,,,,,,,,,,,,,,,,,,,1067,2019_Mar_14_1358,mf_amp_cond1,3.0.4,60.003002095685574,
honored,bluently,&&&&&&&&,left,authority.virtue,,,,,,,0,163,163,163,,,,,,,,,,,,,,,,,,,,,AMP,right,0.9838080961444575,,,right,0,0.9838080961444575,0,,,,,,,,,,,,,,,,,,,,,,1067,2019_Mar_14_1358,mf_amp_cond1,3.0.4,60.003002095685574,
interests,hescribe,&&&&&&&&,left,fairness.virtue,,,,,,,0,164,164,164,,,,,,,,,,,,,,,,,,,,,AMP,left,0.4003145628353195,,,left,1,0.4003145628353195,1,,,,,,,,,,,,,,,,,,,,,,1067,2019_Mar_14_1358,mf_amp_cond1,3.0.4,60.003002095685574,
fear,taxpayung,&&&&&&&&&,right,sanctity.vice,,,,,,,0,165,165,165,,,,,,,,,,,,,,,,,,,,,AMP,left,0.5336734255340616,,,left,0,0.5336734255340616,0,,,,,,,,,,,,,,,,,,,,,,1067,2019_Mar_14_1358,mf_amp_cond1,3.0.4,60.003002095685574,
party,shoirmaster,&&&&&&&&&&&,left,loyalty.virtue,,,,,,,0,166,166,166,,,,,,,,,,,,,,,,,,,,,AMP,left,0.3502972118467369,,,left,1,0.3502972118467369,1,,,,,,,,,,,,,,,,,,,,,,1067,2019_Mar_14_1358,mf_amp_cond1,3.0.4,60.003002095685574,
arrests,ugeasily,&&&&&&&&,right,authority.vice,,,,,,,0,167,167,167,,,,,,,,,,,,,,,,,,,,,AMP,right,1.2838766020799994,,,right,1,1.2838766020799994,1,,,,,,,,,,,,,,,,,,,,,,1067,2019_Mar_14_1358,mf_amp_cond1,3.0.4,60.003002095685574,
betrayal,alar,&&&&,right,loyalty.vice,,,,,,,0,168,168,168,,,,,,,,,,,,,,,,,,,,,AMP,right,0.41699235850910554,,,right,1,0.41699235850910554,1,,,,,,,,,,,,,,,,,,,,,,1067,2019_Mar_14_1358,mf_amp_cond1,3.0.4,60.003002095685574,
improve,tracious,&&&&&&&&,left,care.virtue,,,,,,,0,169,169,169,,,,,,,,,,,,,,,,,,,,,AMP,left,0.6670592287694035,,,left,1,0.6670592287694035,1,,,,,,,,,,,,,,,,,,,,,,1067,2019_Mar_14_1358,mf_amp_cond1,3.0.4,60.003002095685574,
lies,hatigue,&&&&&&&,right,fairness.vice,,,,,,,0,170,170,170,,,,,,,,,,,,,,,,,,,,,AMP,left,1.7339997267458784,,,left,0,1.7339997267458784,0,,,,,,,,,,,,,,,,,,,,,,1067,2019_Mar_14_1358,mf_amp_cond1,3.0.4,60.003002095685574,
feleological,reviked,&&&&&&&,None,nonword,,,,,,,0,171,171,171,,,,,,,,,,,,,,,,,,,,,AMP,left,0.5336888201263719,,,left,0,0.5336888201263719,0,,,,,,,,,,,,,,,,,,,,,,1067,2019_Mar_14_1358,mf_amp_cond1,3.0.4,60.003002095685574,
blamed,synchronazers,&&&&&&&&&&&&&,right,loyalty.vice,,,,,,,0,172,172,172,,,,,,,,,,,,,,,,,,,,,AMP,right,0.5503441653534082,,,right,1,0.5503441653534082,1,,,,,,,,,,,,,,,,,,,,,,1067,2019_Mar_14_1358,mf_amp_cond1,3.0.4,60.003002095685574,
hate,tenuflect,&&&&&&&&&,right,fairness.vice,,,,,,,0,173,173,173,,,,,,,,,,,,,,,,,,,,,AMP,left,1.1505100420849885,,,left,0,1.1505100420849885,0,,,,,,,,,,,,,,,,,,,,,,1067,2019_Mar_14_1358,mf_amp_cond1,3.0.4,60.003002095685574,
violence,brudent,&&&&&&&,right,care.vice,,,,,,,0,174,174,174,,,,,,,,,,,,,,,,,,,,,AMP,left,0.5336907444502685,,,left,0,0.5336907444502685,0,,,,,,,,,,,,,,,,,,,,,,1067,2019_Mar_14_1358,mf_amp_cond1,3.0.4,60.003002095685574,
win,reprisols,&&&&&&&&&,left,fairness.virtue,,,,,,,0,175,175,175,,,,,,,,,,,,,,,,,,,,,AMP,left,0.817078568225952,,,left,1,0.817078568225952,1,,,,,,,,,,,,,,,,,,,,,,1067,2019_Mar_14_1358,mf_amp_cond1,3.0.4,60.003002095685574,
commitment,menizen,&&&&&&&,left,sanctity.virtue,,,,,,,0,176,176,176,,,,,,,,,,,,,,,,,,,,,AMP,left,0.4336833037307315,,,left,1,0.4336833037307315,1,,,,,,,,,,,,,,,,,,,,,,1067,2019_Mar_14_1358,mf_amp_cond1,3.0.4,60.003002095685574,
sharing,simplustic,&&&&&&&&&&,left,loyalty.virtue,,,,,,,0,177,177,177,,,,,,,,,,,,,,,,,,,,,AMP,left,0.7335920907717082,,,left,1,0.7335920907717082,1,,,,,,,,,,,,,,,,,,,,,,1067,2019_Mar_14_1358,mf_amp_cond1,3.0.4,60.003002095685574,
sexual,hasks,&&&&&,right,sanctity.vice,,,,,,,0,178,178,178,,,,,,,,,,,,,,,,,,,,,AMP,left,0.75039849543532,,,left,0,0.75039849543532,0,,,,,,,,,,,,,,,,,,,,,,1067,2019_Mar_14_1358,mf_amp_cond1,3.0.4,60.003002095685574,
illegal,ejanulated,&&&&&&&&&&,right,fairness.vice,,,,,,,0,179,179,179,,,,,,,,,,,,,,,,,,,,,AMP,right,3.501117390821719,,,right,1,3.501117390821719,1,,,,,,,,,,,,,,,,,,,,,,1067,2019_Mar_14_1358,mf_amp_cond1,3.0.4,60.003002095685574,
voter,forepo,&&&&&&,right,fairness.vice,,,,,,,0,180,180,180,,,,,,,,,,,,,,,,,,,,,AMP,left,0.3669804597723214,,,left,0,0.3669804597723214,0,,,,,,,,,,,,,,,,,,,,,,1067,2019_Mar_14_1358,mf_amp_cond1,3.0.4,60.003002095685574,
gusinesslike,viscs,&&&&&,None,nonword,,,,,,,0,181,181,181,,,,,,,,,,,,,,,,,,,,,AMP,left,0.2502743765348896,,,left,0,0.2502743765348896,0,,,,,,,,,,,,,,,,,,,,,,1067,2019_Mar_14_1358,mf_amp_cond1,3.0.4,60.003002095685574,
shot,nuckheap,&&&&&&&&,right,care.vice,,,,,,,0,182,182,182,,,,,,,,,,,,,,,,,,,,,AMP,left,0.41698883058188585,,,left,0,0.41698883058188585,0,,,,,,,,,,,,,,,,,,,,,,1067,2019_Mar_14_1358,mf_amp_cond1,3.0.4,60.003002095685574,
harassment,pulge,&&&&&,right,sanctity.vice,,,,,,,0,183,183,183,,,,,,,,,,,,,,,,,,,,,AMP,right,0.9671367148837362,,,right,1,0.9671367148837362,1,,,,,,,,,,,,,,,,,,,,,,1067,2019_Mar_14_1358,mf_amp_cond1,3.0.4,60.003002095685574,
died,pistraught,&&&&&&&&&&,right,care.vice,,,,,,,0,184,184,184,,,,,,,,,,,,,,,,,,,,,AMP,left,0.2669476821195076,,,left,0,0.2669476821195076,0,,,,,,,,,,,,,,,,,,,,,,1067,2019_Mar_14_1358,mf_amp_cond1,3.0.4,60.003002095685574,
health,fornicalion,&&&&&&&&&&&,left,care.virtue,,,,,,,0,185,185,185,,,,,,,,,,,,,,,,,,,,,AMP,right,0.9004566420931042,,,right,0,0.9004566420931042,0,,,,,,,,,,,,,,,,,,,,,,1067,2019_Mar_14_1358,mf_amp_cond1,3.0.4,60.003002095685574,
help,bycled,&&&&&&,left,care.virtue,,,,,,,0,186,186,186,,,,,,,,,,,,,,,,,,,,,AMP,left,0.5503541076941474,,,left,1,0.5503541076941474,1,,,,,,,,,,,,,,,,,,,,,,1067,2019_Mar_14_1358,mf_amp_cond1,3.0.4,60.003002095685574,
freedom,tabin,&&&&&,left,sanctity.virtue,,,,,,,0,187,187,187,,,,,,,,,,,,,,,,,,,,,AMP,left,0.5837071332766754,,,left,1,0.5837071332766754,1,,,,,,,,,,,,,,,,,,,,,,1067,2019_Mar_14_1358,mf_amp_cond1,3.0.4,60.003002095685574,
values,sgrawl,&&&&&&,left,sanctity.virtue,,,,,,,0,188,188,188,,,,,,,,,,,,,,,,,,,,,AMP,left,0.31695252500185234,,,left,1,0.31695252500185234,1,,,,,,,,,,,,,,,,,,,,,,1067,2019_Mar_14_1358,mf_amp_cond1,3.0.4,60.003002095685574,
rejected,shoirmaster,&&&&&&&&&&&,right,authority.vice,,,,,,,0,189,189,189,,,,,,,,,,,,,,,,,,,,,AMP,left,0.25028014950726174,,,left,0,0.25028014950726174,0,,,,,,,,,,,,,,,,,,,,,,1067,2019_Mar_14_1358,mf_amp_cond1,3.0.4,60.003002095685574,
death,brotesque,&&&&&&&&&,right,care.vice,,,,,,,0,190,190,190,,,,,,,,,,,,,,,,,,,,,AMP,left,0.5003380395883141,,,left,0,0.5003380395883141,0,,,,,,,,,,,,,,,,,,,,,,1067,2019_Mar_14_1358,mf_amp_cond1,3.0.4,60.003002095685574,
drug,sliptery,&&&&&&&&,right,sanctity.vice,,,,,,,0,191,191,191,,,,,,,,,,,,,,,,,,,,,AMP,right,0.7337319249847951,,,right,1,0.7337319249847951,1,,,,,,,,,,,,,,,,,,,,,,1067,2019_Mar_14_1358,mf_amp_cond1,3.0.4,60.003002095685574,
agreement,ilportation,&&&&&&&&&&&,left,fairness.virtue,,,,,,,0,192,192,192,,,,,,,,,,,,,,,,,,,,,AMP,left,0.7003901246255282,,,left,1,0.7003901246255282,1,,,,,,,,,,,,,,,,,,,,,,1067,2019_Mar_14_1358,mf_amp_cond1,3.0.4,60.003002095685574,
perfect,elduringly,&&&&&&&&&&,left,sanctity.virtue,,,,,,,0,193,193,193,,,,,,,,,,,,,,,,,,,,,AMP,left,0.30029557617126557,,,left,1,0.30029557617126557,1,,,,,,,,,,,,,,,,,,,,,,1067,2019_Mar_14_1358,mf_amp_cond1,3.0.4,60.003002095685574,
care,allears,&&&&&&&,left,care.virtue,,,,,,,0,194,194,194,,,,,,,,,,,,,,,,,,,,,AMP,right,1.4837856456972531,,,right,0,1.4837856456972531,0,,,,,,,,,,,,,,,,,,,,,,1067,2019_Mar_14_1358,mf_amp_cond1,3.0.4,60.003002095685574,
growth,unreflectuve,&&&&&&&&&&&&,left,care.virtue,,,,,,,0,195,195,195,,,,,,,,,,,,,,,,,,,,,AMP,right,0.967144091459204,,,right,0,0.967144091459204,0,,,,,,,,,,,,,,,,,,,,,,1067,2019_Mar_14_1358,mf_amp_cond1,3.0.4,60.003002095685574,
protesters,blunderints,&&&&&&&&&&&,right,authority.vice,,,,,,,0,196,196,196,,,,,,,,,,,,,,,,,,,,,AMP,left,0.8004392590326006,,,left,0,0.8004392590326006,0,,,,,,,,,,,,,,,,,,,,,,1067,2019_Mar_14_1358,mf_amp_cond1,3.0.4,60.003002095685574,
drumbled,wonderfujnoss,&&&&&&&&&&&&&,None,nonword,,,,,,,0,197,197,197,,,,,,,,,,,,,,,,,,,,,AMP,left,0.41697920896172036,,,left,0,0.41697920896172036,0,,,,,,,,,,,,,,,,,,,,,,1067,2019_Mar_14_1358,mf_amp_cond1,3.0.4,60.003002095685574,
riot,thabbily,&&&&&&&&,right,authority.vice,,,,,,,0,198,198,198,,,,,,,,,,,,,,,,,,,,,AMP,left,0.5503678986831346,,,left,0,0.5503678986831346,0,,,,,,,,,,,,,,,,,,,,,,1067,2019_Mar_14_1358,mf_amp_cond1,3.0.4,60.003002095685574,
police,Cunday,&&&&&&,right,authority.vice,,,,,,,0,199,199,199,,,,,,,,,,,,,,,,,,,,,AMP,right,1.9840630690787293,,,right,1,1.9840630690787293,1,,,,,,,,,,,,,,,,,,,,,,1067,2019_Mar_14_1358,mf_amp_cond1,3.0.4,60.003002095685574,
pleasant,proached,&&&&&&&&,None,control,,,,,,,0,200,200,200,,,,,,,,,,,,,,,,,,,,,AMP,left,0.9171123080404868,,,left,0,0.9171123080404868,0,,,,,,,,,,,,,,,,,,,,,,1067,2019_Mar_14_1358,mf_amp_cond1,3.0.4,60.003002095685574,
gun,bluently,&&&&&&&&,right,authority.vice,,,,,,,0,201,201,201,,,,,,,,,,,,,,,,,,,,,AMP,right,0.8837810914637885,,,right,1,0.8837810914637885,1,,,,,,,,,,,,,,,,,,,,,,1067,2019_Mar_14_1358,mf_amp_cond1,3.0.4,60.003002095685574,
actively,emports,&&&&&&&,left,authority.virtue,,,,,,,0,202,202,202,,,,,,,,,,,,,,,,,,,,,AMP,left,0.30029910409894,,,left,1,0.30029910409894,1,,,,,,,,,,,,,,,,,,,,,,1067,2019_Mar_14_1358,mf_amp_cond1,3.0.4,60.003002095685574,
praised,metibolic,&&&&&&&&&,left,loyalty.virtue,,,,,,,0,203,203,203,,,,,,,,,,,,,,,,,,,,,AMP,right,0.9171062143479958,,,right,0,0.9171062143479958,0,,,,,,,,,,,,,,,,,,,,,,1067,2019_Mar_14_1358,mf_amp_cond1,3.0.4,60.003002095685574,
slavery,honstables,&&&&&&&&&&,right,loyalty.vice,,,,,,,0,204,204,204,,,,,,,,,,,,,,,,,,,,,AMP,left,0.3336190954523772,,,left,0,0.3336190954523772,0,,,,,,,,,,,,,,,,,,,,,,1067,2019_Mar_14_1358,mf_amp_cond1,3.0.4,60.003002095685574,
disregord,sowntrodden,&&&&&&&&&&&,None,nonword,,,,,,,0,205,205,205,,,,,,,,,,,,,,,,,,,,,AMP,left,0.8670853354321935,,,left,0,0.8670853354321935,0,,,,,,,,,,,,,,,,,,,,,,1067,2019_Mar_14_1358,mf_amp_cond1,3.0.4,60.003002095685574,
progress,pescinded,&&&&&&&&&,left,authority.virtue,,,,,,,0,206,206,206,,,,,,,,,,,,,,,,,,,,,AMP,left,0.33363481076526114,,,left,1,0.33363481076526114,1,,,,,,,,,,,,,,,,,,,,,,1067,2019_Mar_14_1358,mf_amp_cond1,3.0.4,60.003002095685574,
precificity,Oregoniuns,&&&&&&&&&&,None,nonword,,,,,,,0,207,207,207,,,,,,,,,,,,,,,,,,,,,AMP,left,1.417243482795584,,,left,0,1.417243482795584,0,,,,,,,,,,,,,,,,,,,,,,1067,2019_Mar_14_1358,mf_amp_cond1,3.0.4,60.003002095685574,
intelligence,iptervention,&&&&&&&&&&&&,left,loyalty.virtue,,,,,,,0,208,208,208,,,,,,,,,,,,,,,,,,,,,AMP,left,0.5836984738186857,,,left,1,0.5836984738186857,1,,,,,,,,,,,,,,,,,,,,,,1067,2019_Mar_14_1358,mf_amp_cond1,3.0.4,60.003002095685574,
honored,stindig,&&&&&&&,left,authority.virtue,,,,,,,0,209,209,209,,,,,,,,,,,,,,,,,,,,,AMP,left,0.4003293159862551,,,left,1,0.4003293159862551,1,,,,,,,,,,,,,,,,,,,,,,1067,2019_Mar_14_1358,mf_amp_cond1,3.0.4,60.003002095685574,
killed,fostet,&&&&&&,right,care.vice,,,,,,,0,210,210,210,,,,,,,,,,,,,,,,,,,,,AMP,left,0.36697853544842474,,,left,0,0.36697853544842474,0,,,,,,,,,,,,,,,,,,,,,,1067,2019_Mar_14_1358,mf_amp_cond1,3.0.4,60.003002095685574,
respect,strofe,&&&&&&,left,sanctity.virtue,,,,,,,0,211,211,211,,,,,,,,,,,,,,,,,,,,,AMP,left,0.3669990615712777,,,left,1,0.3669990615712777,1,,,,,,,,,,,,,,,,,,,,,,1067,2019_Mar_14_1358,mf_amp_cond1,3.0.4,60.003002095685574,
unpleasant,aubos,&&&&&,None,control,,,,,,,0,212,212,212,,,,,,,,,,,,,,,,,,,,,AMP,right,0.3836402950885258,,,right,0,0.3836402950885258,0,,,,,,,,,,,,,,,,,,,,,,1067,2019_Mar_14_1358,mf_amp_cond1,3.0.4,60.003002095685574,
safety,tislay,&&&&&&,left,care.virtue,,,,,,,0,213,213,213,,,,,,,,,,,,,,,,,,,,,AMP,right,2.1507586006059682,,,right,0,2.1507586006059682,0,,,,,,,,,,,,,,,,,,,,,,1067,2019_Mar_14_1358,mf_amp_cond1,3.0.4,60.003002095685574,
groups,dramens,&&&&&&&,right,loyalty.vice,,,,,,,0,214,214,214,,,,,,,,,,,,,,,,,,,,,AMP,left,0.3336316035583877,,,left,0,0.3336316035583877,0,,,,,,,,,,,,,,,,,,,,,,1067,2019_Mar_14_1358,mf_amp_cond1,3.0.4,60.003002095685574,
victim,slending,&&&&&&&&,right,care.vice,,,,,,,0,215,215,215,,,,,,,,,,,,,,,,,,,,,AMP,left,0.4336534767082867,,,left,0,0.4336534767082867,0,,,,,,,,,,,,,,,,,,,,,,1067,2019_Mar_14_1358,mf_amp_cond1,3.0.4,60.003002095685574,
men,gournful,&&&&&&&&,right,loyalty.vice,,,,,,,0,216,216,216,,,,,,,,,,,,,,,,,,,,,AMP,left,1.433921599190171,,,left,0,1.433921599190171,0,,,,,,,,,,,,,,,,,,,,,,1067,2019_Mar_14_1358,mf_amp_cond1,3.0.4,60.003002095685574,
accused,counpy's,&&&&&&&&,right,fairness.vice,,,,,,,0,217,217,217,,,,,,,,,,,,,,,,,,,,,AMP,right,2.2840991822263277,,,right,1,2.2840991822263277,1,,,,,,,,,,,,,,,,,,,,,,1067,2019_Mar_14_1358,mf_amp_cond1,3.0.4,60.003002095685574,
ability,clattening,&&&&&&&&&&,left,authority.virtue,,,,,,,0,218,218,218,,,,,,,,,,,,,,,,,,,,,AMP,left,0.4503299894995507,,,left,1,0.4503299894995507,1,,,,,,,,,,,,,,,,,,,,,,1067,2019_Mar_14_1358,mf_amp_cond1,3.0.4,60.003002095685574,
dumid,saned,&&&&&,None,nonword,,,,,,,0,219,219,219,,,,,,,,,,,,,,,,,,,,,AMP,left,0.46687532753594496,,,left,0,0.46687532753594496,0,,,,,,,,,,,,,,,,,,,,,,1067,2019_Mar_14_1358,mf_amp_cond1,3.0.4,60.003002095685574,
letish,seachwear,&&&&&&&&&,None,nonword,,,,,,,0,220,220,220,,,,,,,,,,,,,,,,,,,,,AMP,right,1.9006949375525437,,,right,0,1.9006949375525437,0,,,,,,,,,,,,,,,,,,,,,,1067,2019_Mar_14_1358,mf_amp_cond1,3.0.4,60.003002095685574,
ban,scalbel,&&&&&&&,right,loyalty.vice,,,,,,,0,221,221,221,,,,,,,,,,,,,,,,,,,,,AMP,right,0.5336878579644235,,,right,1,0.5336878579644235,1,,,,,,,,,,,,,,,,,,,,,,1067,2019_Mar_14_1358,mf_amp_cond1,3.0.4,60.003002095685574,
strength,vicissifude,&&&&&&&&&&&,left,sanctity.virtue,,,,,,,0,222,222,222,,,,,,,,,,,,,,,,,,,,,AMP,left,0.31698459706899484,,,left,1,0.31698459706899484,1,,,,,,,,,,,,,,,,,,,,,,1067,2019_Mar_14_1358,mf_amp_cond1,3.0.4,60.003002095685574,
ensure,ebbitter,&&&&&&&&,left,fairness.virtue,,,,,,,0,223,223,223,,,,,,,,,,,,,,,,,,,,,AMP,left,0.4336656640939509,,,left,1,0.4336656640939509,1,,,,,,,,,,,,,,,,,,,,,,1067,2019_Mar_14_1358,mf_amp_cond1,3.0.4,60.003002095685574,
threatened,emassion,&&&&&&&&,right,fairness.vice,,,,,,,0,224,224,224,,,,,,,,,,,,,,,,,,,,,AMP,left,0.500352472018676,,,left,0,0.500352472018676,0,,,,,,,,,,,,,,,,,,,,,,1067,2019_Mar_14_1358,mf_amp_cond1,3.0.4,60.003002095685574,
promote,gowlands,&&&&&&&&,left,sanctity.virtue,,,,,,,0,225,225,225,,,,,,,,,,,,,,,,,,,,,AMP,left,0.36683773907338946,,,left,1,0.36683773907338946,1,,,,,,,,,,,,,,,,,,,,,,1067,2019_Mar_14_1358,mf_amp_cond1,3.0.4,60.003002095685574,
corruption,galamitous,&&&&&&&&&&,right,sanctity.vice,,,,,,,0,226,226,226,,,,,,,,,,,,,,,,,,,,,AMP,left,4.484693605920256,,,left,0,4.484693605920256,0,,,,,,,,,,,,,,,,,,,,,,1067,2019_Mar_14_1358,mf_amp_cond1,3.0.4,60.003002095685574,
serial,chared,&&&&&&,right,sanctity.vice,,,,,,,0,227,227,227,,,,,,,,,,,,,,,,,,,,,AMP,right,0.5835692233877126,,,right,1,0.5835692233877126,1,,,,,,,,,,,,,,,,,,,,,,1067,2019_Mar_14_1358,mf_amp_cond1,3.0.4,60.003002095685574,
celebrated,crilfully,&&&&&&&&&,left,authority.virtue,,,,,,,0,228,228,228,,,,,,,,,,,,,,,,,,,,,AMP,right,0.41699556571597896,,,right,0,0.41699556571597896,0,,,,,,,,,,,,,,,,,,,,,,1067,2019_Mar_14_1358,mf_amp_cond1,3.0.4,60.003002095685574,
torture,erdest,&&&&&&,right,care.vice,,,,,,,0,229,229,229,,,,,,,,,,,,,,,,,,,,,AMP,left,0.5503537869735737,,,left,0,0.5503537869735737,0,,,,,,,,,,,,,,,,,,,,,,1067,2019_Mar_14_1358,mf_amp_cond1,3.0.4,60.003002095685574,
free,photocalkodes,&&&&&&&&&&&&&,left,fairness.virtue,,,,,,,0,230,230,230,,,,,,,,,,,,,,,,,,,,,AMP,left,0.4003152042766942,,,left,1,0.4003152042766942,1,,,,,,,,,,,,,,,,,,,,,,1067,2019_Mar_14_1358,mf_amp_cond1,3.0.4,60.003002095685574,
racist,thadowed,&&&&&&&&,right,sanctity.vice,,,,,,,0,231,231,231,,,,,,,,,,,,,,,,,,,,,AMP,left,0.3669846291409158,,,left,0,0.3669846291409158,0,,,,,,,,,,,,,,,,,,,,,,1067,2019_Mar_14_1358,mf_amp_cond1,3.0.4,60.003002095685574,
promises,egpeditious,&&&&&&&&&&&,left,fairness.virtue,,,,,,,0,232,232,232,,,,,,,,,,,,,,,,,,,,,AMP,left,0.3670080417500685,,,left,1,0.3670080417500685,1,,,,,,,,,,,,,,,,,,,,,,1067,2019_Mar_14_1358,mf_amp_cond1,3.0.4,60.003002095685574,
crime,lachelor,&&&&&&&&,right,fairness.vice,,,,,,,0,233,233,233,,,,,,,,,,,,,,,,,,,,,AMP,right,0.48368750517170156,,,right,1,0.48368750517170156,1,,,,,,,,,,,,,,,,,,,,,,1067,2019_Mar_14_1358,mf_amp_cond1,3.0.4,60.003002095685574,
pharing,quarterbocks,&&&&&&&&&&&&,None,nonword,,,,,,,0,234,234,234,,,,,,,,,,,,,,,,,,,,,AMP,left,0.3669794976103731,,,left,0,0.3669794976103731,0,,,,,,,,,,,,,,,,,,,,,,1067,2019_Mar_14_1358,mf_amp_cond1,3.0.4,60.003002095685574,
useful,mecan,&&&&&,left,authority.virtue,,,,,,,0,235,235,235,,,,,,,,,,,,,,,,,,,,,AMP,left,0.3503154929253469,,,left,1,0.3503154929253469,1,,,,,,,,,,,,,,,,,,,,,,1067,2019_Mar_14_1358,mf_amp_cond1,3.0.4,60.003002095685574,
troops,gationwide,&&&&&&&&&&,right,loyalty.vice,,,,,,,0,236,236,236,,,,,,,,,,,,,,,,,,,,,AMP,left,0.6337315401199248,,,left,0,0.6337315401199248,0,,,,,,,,,,,,,,,,,,,,,,1067,2019_Mar_14_1358,mf_amp_cond1,3.0.4,60.003002095685574,
tove,gandbrake,&&&&&&&&&,None,nonword,,,,,,,0,237,237,237,,,,,,,,,,,,,,,,,,,,,AMP,left,0.31699133220308795,,,left,0,0.31699133220308795,0,,,,,,,,,,,,,,,,,,,,,,1067,2019_Mar_14_1358,mf_amp_cond1,3.0.4,60.003002095685574,
spag,imebreaker,&&&&&&&&&&,None,nonword,,,,,,,0,238,238,238,,,,,,,,,,,,,,,,,,,,,AMP,left,0.30028370950662975,,,left,0,0.30028370950662975,0,,,,,,,,,,,,,,,,,,,,,,1067,2019_Mar_14_1358,mf_amp_cond1,3.0.4,60.003002095685574,
prosecution,tomedians,&&&&&&&&&,right,authority.vice,,,,,,,0,239,239,239,,,,,,,,,,,,,,,,,,,,,AMP,left,0.43366470193200257,,,left,0,0.43366470193200257,0,,,,,,,,,,,,,,,,,,,,,,1067,2019_Mar_14_1358,mf_amp_cond1,3.0.4,60.003002095685574,
good,leact,&&&&&,left,care.virtue,,,,,,,0,240,240,240,,,,,,,,,,,,,,,,,,,,,AMP,left,0.7670811019193025,,,left,1,0.7670811019193025,1,,,,,,,,,,,,,,,,,,,,,,1067,2019_Mar_14_1358,mf_amp_cond1,3.0.4,60.003002095685574,
protect,Daptist,&&&&&&&,left,fairness.virtue,,,,,,,0,241,241,241,,,,,,,,,,,,,,,,,,,,,AMP,left,0.46700072931889736,,,left,1,0.46700072931889736,1,,,,,,,,,,,,,,,,,,,,,,1067,2019_Mar_14_1358,mf_amp_cond1,3.0.4,60.003002095685574,
promised,frocessing,&&&&&&&&&&,left,loyalty.virtue,,,,,,,0,242,242,242,,,,,,,,,,,,,,,,,,,,,AMP,left,0.45033993184051724,,,left,1,0.45033993184051724,1,,,,,,,,,,,,,,,,,,,,,,1067,2019_Mar_14_1358,mf_amp_cond1,3.0.4,60.003002095685574,
great,sfumatoy,&&&&&&&&,left,loyalty.virtue,,,,,,,0,243,243,243,,,,,,,,,,,,,,,,,,,,,AMP,left,0.3336412251785532,,,left,1,0.3336412251785532,1,,,,,,,,,,,,,,,,,,,,,,1067,2019_Mar_14_1358,mf_amp_cond1,3.0.4,60.003002095685574,
embrace,lorthwhile,&&&&&&&&&&,left,authority.virtue,,,,,,,0,244,244,244,,,,,,,,,,,,,,,,,,,,,AMP,left,0.3669721210349053,,,left,1,0.3669721210349053,1,,,,,,,,,,,,,,,,,,,,,,1067,2019_Mar_14_1358,mf_amp_cond1,3.0.4,60.003002095685574,
strong,godlaness,&&&&&&&&&,left,loyalty.virtue,,,,,,,0,245,245,245,,,,,,,,,,,,,,,,,,,,,AMP,right,0.6503798294920671,,,right,0,0.6503798294920671,0,,,,,,,,,,,,,,,,,,,,,,1067,2019_Mar_14_1358,mf_amp_cond1,3.0.4,60.003002095685574,
intelligence,vicissifude,&&&&&&&&&&&,left,loyalty.virtue,,,,,,,0,246,246,246,,,,,,,,,,,,,,,,,,,,,AMP,left,0.33362807563094066,,,left,1,0.33362807563094066,1,,,,,,,,,,,,,,,,,,,,,,1067,2019_Mar_14_1358,mf_amp_cond1,3.0.4,60.003002095685574,
lies,sowntrodden,&&&&&&&&&&&,right,fairness.vice,,,,,,,0,247,247,247,,,,,,,,,,,,,,,,,,,,,AMP,left,0.4169897927438342,,,left,0,0.4169897927438342,0,,,,,,,,,,,,,,,,,,,,,,1067,2019_Mar_14_1358,mf_amp_cond1,3.0.4,60.003002095685574,
spag,pistraught,&&&&&&&&&&,None,nonword,,,,,,,0,248,248,248,,,,,,,,,,,,,,,,,,,,,AMP,left,0.3503267181488354,,,left,0,0.3503267181488354,0,,,,,,,,,,,,,,,,,,,,,,1067,2019_Mar_14_1358,mf_amp_cond1,3.0.4,60.003002095685574,
died,emports,&&&&&&&,right,care.vice,,,,,,,0,249,249,249,,,,,,,,,,,,,,,,,,,,,AMP,left,0.4003264295001827,,,left,0,0.4003264295001827,0,,,,,,,,,,,,,,,,,,,,,,1067,2019_Mar_14_1358,mf_amp_cond1,3.0.4,60.003002095685574,
blamed,Daptist,&&&&&&&,right,loyalty.vice,,,,,,,0,250,250,250,,,,,,,,,,,,,,,,,,,,,AMP,left,1.4005628006357256,,,left,0,1.4005628006357256,0,,,,,,,,,,,,,,,,,,,,,,1067,2019_Mar_14_1358,mf_amp_cond1,3.0.4,60.003002095685574,
accused,hasks,&&&&&,right,fairness.vice,,,,,,,0,251,251,251,,,,,,,,,,,,,,,,,,,,,AMP,left,0.31698459706899484,,,left,0,0.31698459706899484,0,,,,,,,,,,,,,,,,,,,,,,1067,2019_Mar_14_1358,mf_amp_cond1,3.0.4,60.003002095685574,
care,iptervention,&&&&&&&&&&&&,left,care.virtue,,,,,,,0,252,252,252,,,,,,,,,,,,,,,,,,,,,AMP,left,1.3005386824409015,,,left,1,1.3005386824409015,1,,,,,,,,,,,,,,,,,,,,,,1067,2019_Mar_14_1358,mf_amp_cond1,3.0.4,60.003002095685574,
sharing,counpy's,&&&&&&&&,left,loyalty.virtue,,,,,,,0,253,253,253,,,,,,,,,,,,,,,,,,,,,AMP,right,0.45022639672242803,,,right,0,0.45022639672242803,0,,,,,,,,,,,,,,,,,,,,,,1067,2019_Mar_14_1358,mf_amp_cond1,3.0.4,60.003002095685574,
serial,fornicalion,&&&&&&&&&&&,right,sanctity.vice,,,,,,,0,254,254,254,,,,,,,,,,,,,,,,,,,,,AMP,right,0.5003438125604589,,,right,1,0.5003438125604589,1,,,,,,,,,,,,,,,,,,,,,,1067,2019_Mar_14_1358,mf_amp_cond1,3.0.4,60.003002095685574,
violence,ejanulated,&&&&&&&&&&,right,care.vice,,,,,,,0,255,255,255,,,,,,,,,,,,,,,,,,,,,AMP,right,0.3169871628342662,,,right,1,0.3169871628342662,1,,,,,,,,,,,,,,,,,,,,,,1067,2019_Mar_14_1358,mf_amp_cond1,3.0.4,60.003002095685574,
harassment,chared,&&&&&&,right,sanctity.vice,,,,,,,0,256,256,256,,,,,,,,,,,,,,,,,,,,,AMP,right,0.5336949138190903,,,right,1,0.5336949138190903,1,,,,,,,,,,,,,,,,,,,,,,1067,2019_Mar_14_1358,mf_amp_cond1,3.0.4,60.003002095685574,
praised,strofe,&&&&&&,left,loyalty.virtue,,,,,,,0,257,257,257,,,,,,,,,,,,,,,,,,,,,AMP,right,2.550868543652541,,,right,0,2.550868543652541,0,,,,,,,,,,,,,,,,,,,,,,1067,2019_Mar_14_1358,mf_amp_cond1,3.0.4,60.003002095685574,
disregord,wonderfujnoss,&&&&&&&&&&&&&,None,nonword,,,,,,,0,258,258,258,,,,,,,,,,,,,,,,,,,,,AMP,left,0.8502654605003954,,,left,0,0.8502654605003954,0,,,,,,,,,,,,,,,,,,,,,,1067,2019_Mar_14_1358,mf_amp_cond1,3.0.4,60.003002095685574,
protesters,reviked,&&&&&&&,right,authority.vice,,,,,,,0,259,259,259,,,,,,,,,,,,,,,,,,,,,AMP,left,0.6670553801211554,,,left,0,0.6670553801211554,0,,,,,,,,,,,,,,,,,,,,,,1067,2019_Mar_14_1358,mf_amp_cond1,3.0.4,60.003002095685574,
drumbled,galamitous,&&&&&&&&&&,None,nonword,,,,,,,0,260,260,260,,,,,,,,,,,,,,,,,,,,,AMP,left,1.7673723162897659,,,left,0,1.7673723162897659,0,,,,,,,,,,,,,,,,,,,,,,1067,2019_Mar_14_1358,mf_amp_cond1,3.0.4,60.003002095685574,
pharing,tislay,&&&&&&,None,nonword,,,,,,,0,261,261,261,,,,,,,,,,,,,,,,,,,,,AMP,right,0.6170479714737667,,,right,0,0.6170479714737667,0,,,,,,,,,,,,,,,,,,,,,,1067,2019_Mar_14_1358,mf_amp_cond1,3.0.4,60.003002095685574,
illegal,nuckheap,&&&&&&&&,right,fairness.vice,,,,,,,0,262,262,262,,,,,,,,,,,,,,,,,,,,,AMP,left,0.3336239062623463,,,left,0,0.3336239062623463,0,,,,,,,,,,,,,,,,,,,,,,1067,2019_Mar_14_1358,mf_amp_cond1,3.0.4,60.003002095685574,
feleological,alar,&&&&,None,nonword,,,,,,,0,263,263,263,,,,,,,,,,,,,,,,,,,,,AMP,right,0.5670354312956079,,,right,0,0.5670354312956079,0,,,,,,,,,,,,,,,,,,,,,,1067,2019_Mar_14_1358,mf_amp_cond1,3.0.4,60.003002095685574,
improve,saned,&&&&&,left,care.virtue,,,,,,,0,264,264,264,,,,,,,,,,,,,,,,,,,,,AMP,left,0.41698658553718815,,,left,1,0.41698658553718815,1,,,,,,,,,,,,,,,,,,,,,,1067,2019_Mar_14_1358,mf_amp_cond1,3.0.4,60.003002095685574,
help,pescinded,&&&&&&&&&,left,care.virtue,,,,,,,0,265,265,265,,,,,,,,,,,,,,,,,,,,,AMP,left,0.5837119440868719,,,left,1,0.5837119440868719,1,,,,,,,,,,,,,,,,,,,,,,1067,2019_Mar_14_1358,mf_amp_cond1,3.0.4,60.003002095685574,
precificity,Cunday,&&&&&&,None,nonword,,,,,,,0,266,266,266,,,,,,,,,,,,,,,,,,,,,AMP,right,0.3836274662617143,,,right,0,0.3836274662617143,0,,,,,,,,,,,,,,,,,,,,,,1067,2019_Mar_14_1358,mf_amp_cond1,3.0.4,60.003002095685574,
shot,ugeasily,&&&&&&&&,right,care.vice,,,,,,,0,267,267,267,,,,,,,,,,,,,,,,,,,,,AMP,right,0.8504383289425732,,,right,1,0.8504383289425732,1,,,,,,,,,,,,,,,,,,,,,,1067,2019_Mar_14_1358,mf_amp_cond1,3.0.4,60.003002095685574,
police,frocessing,&&&&&&&&&&,right,authority.vice,,,,,,,0,268,268,268,,,,,,,,,,,,,,,,,,,,,AMP,left,0.35030811634965175,,,left,0,0.35030811634965175,0,,,,,,,,,,,,,,,,,,,,,,1067,2019_Mar_14_1358,mf_amp_cond1,3.0.4,60.003002095685574,
perfect,erdest,&&&&&&,left,sanctity.virtue,,,,,,,0,269,269,269,,,,,,,,,,,,,,,,,,,,,AMP,right,1.967369878812633,,,right,0,1.967369878812633,0,,,,,,,,,,,,,,,,,,,,,,1067,2019_Mar_14_1358,mf_amp_cond1,3.0.4,60.003002095685574,
commitment,shoirmaster,&&&&&&&&&&&,left,sanctity.virtue,,,,,,,0,270,270,270,,,,,,,,,,,,,,,,,,,,,AMP,left,0.4003113556286735,,,left,1,0.4003113556286735,1,,,,,,,,,,,,,,,,,,,,,,1067,2019_Mar_14_1358,mf_amp_cond1,3.0.4,60.003002095685574,
betrayal,proached,&&&&&&&&,right,loyalty.vice,,,,,,,0,271,271,271,,,,,,,,,,,,,,,,,,,,,AMP,right,0.8671084273205452,,,right,1,0.8671084273205452,1,,,,,,,,,,,,,,,,,,,,,,1067,2019_Mar_14_1358,mf_amp_cond1,3.0.4,60.003002095685574,
good,unreflectuve,&&&&&&&&&&&&,left,care.virtue,,,,,,,0,272,272,272,,,,,,,,,,,,,,,,,,,,,AMP,right,0.9671104157887385,,,right,0,0.9671104157887385,0,,,,,,,,,,,,,,,,,,,,,,1067,2019_Mar_14_1358,mf_amp_cond1,3.0.4,60.003002095685574,
embrace,quarterbocks,&&&&&&&&&&&&,left,authority.virtue,,,,,,,0,273,273,273,,,,,,,,,,,,,,,,,,,,,AMP,left,0.4170039044533951,,,left,1,0.4170039044533951,1,,,,,,,,,,,,,,,,,,,,,,1067,2019_Mar_14_1358,mf_amp_cond1,3.0.4,60.003002095685574,
promises,mecan,&&&&&,left,fairness.virtue,,,,,,,0,274,274,274,,,,,,,,,,,,,,,,,,,,,AMP,left,0.43365091094301533,,,left,1,0.43365091094301533,1,,,,,,,,,,,,,,,,,,,,,,1067,2019_Mar_14_1358,mf_amp_cond1,3.0.4,60.003002095685574,
protect,brotesque,&&&&&&&&&,left,fairness.virtue,,,,,,,0,275,275,275,,,,,,,,,,,,,,,,,,,,,AMP,left,0.5670687862452723,,,left,1,0.5670687862452723,1,,,,,,,,,,,,,,,,,,,,,,1067,2019_Mar_14_1358,mf_amp_cond1,3.0.4,60.003002095685574,
freedom,elduringly,&&&&&&&&&&,left,sanctity.virtue,,,,,,,0,276,276,276,,,,,,,,,,,,,,,,,,,,,AMP,right,0.6170473300326194,,,right,0,0.6170473300326194,0,,,,,,,,,,,,,,,,,,,,,,1067,2019_Mar_14_1358,mf_amp_cond1,3.0.4,60.003002095685574,
dumid,tenuflect,&&&&&&&&&,None,nonword,,,,,,,0,277,277,277,,,,,,,,,,,,,,,,,,,,,AMP,left,0.36697244175547894,,,left,0,0.36697244175547894,0,,,,,,,,,,,,,,,,,,,,,,1067,2019_Mar_14_1358,mf_amp_cond1,3.0.4,60.003002095685574,
celebrated,lachelor,&&&&&&&&,left,authority.virtue,,,,,,,0,278,278,278,,,,,,,,,,,,,,,,,,,,,AMP,right,0.45032806517565405,,,right,0,0.45032806517565405,0,,,,,,,,,,,,,,,,,,,,,,1067,2019_Mar_14_1358,mf_amp_cond1,3.0.4,60.003002095685574,
hate,blunderints,&&&&&&&&&&&,right,fairness.vice,,,,,,,0,279,279,279,,,,,,,,,,,,,,,,,,,,,AMP,left,0.5003537549014254,,,left,0,0.5003537549014254,0,,,,,,,,,,,,,,,,,,,,,,1067,2019_Mar_14_1358,mf_amp_cond1,3.0.4,60.003002095685574,
slavery,synchronazers,&&&&&&&&&&&&&,right,loyalty.vice,,,,,,,0,280,280,280,,,,,,,,,,,,,,,,,,,,,AMP,left,0.5836917386845926,,,left,0,0.5836917386845926,0,,,,,,,,,,,,,,,,,,,,,,1067,2019_Mar_14_1358,mf_amp_cond1,3.0.4,60.003002095685574,
groups,ebbitter,&&&&&&&&,right,loyalty.vice,,,,,,,0,281,281,281,,,,,,,,,,,,,,,,,,,,,AMP,left,0.8337489873244976,,,left,0,0.8337489873244976,0,,,,,,,,,,,,,,,,,,,,,,1067,2019_Mar_14_1358,mf_amp_cond1,3.0.4,60.003002095685574,
strong,taxpayung,&&&&&&&&&,left,loyalty.virtue,,,,,,,0,282,282,282,,,,,,,,,,,,,,,,,,,,,AMP,left,0.4003171286005909,,,left,1,0.4003171286005909,1,,,,,,,,,,,,,,,,,,,,,,1067,2019_Mar_14_1358,mf_amp_cond1,3.0.4,60.003002095685574,
gusinesslike,reprisols,&&&&&&&&&,None,nonword,,,,,,,0,283,283,283,,,,,,,,,,,,,,,,,,,,,AMP,left,1.4505814345066028,,,left,0,1.4505814345066028,0,,,,,,,,,,,,,,,,,,,,,,1067,2019_Mar_14_1358,mf_amp_cond1,3.0.4,60.003002095685574,
safety,metibolic,&&&&&&&&&,left,care.virtue,,,,,,,0,284,284,284,,,,,,,,,,,,,,,,,,,,,AMP,right,0.5003502269742057,,,right,0,0.5003502269742057,0,,,,,,,,,,,,,,,,,,,,,,1067,2019_Mar_14_1358,mf_amp_cond1,3.0.4,60.003002095685574,
racist,slending,&&&&&&&&,right,sanctity.vice,,,,,,,0,285,285,285,,,,,,,,,,,,,,,,,,,,,AMP,left,0.36698527058251784,,,left,0,0.36698527058251784,0,,,,,,,,,,,,,,,,,,,,,,1067,2019_Mar_14_1358,mf_amp_cond1,3.0.4,60.003002095685574,
promised,Oregoniuns,&&&&&&&&&&,left,loyalty.virtue,,,,,,,0,286,286,286,,,,,,,,,,,,,,,,,,,,,AMP,left,0.5170020442735677,,,left,1,0.5170020442735677,1,,,,,,,,,,,,,,,,,,,,,,1067,2019_Mar_14_1358,mf_amp_cond1,3.0.4,60.003002095685574,
ban,clattening,&&&&&&&&&&,right,loyalty.vice,,,,,,,0,287,287,287,,,,,,,,,,,,,,,,,,,,,AMP,left,0.3836499167089187,,,left,0,0.3836499167089187,0,,,,,,,,,,,,,,,,,,,,,,1067,2019_Mar_14_1358,mf_amp_cond1,3.0.4,60.003002095685574,
riot,stindig,&&&&&&&,right,authority.vice,,,,,,,0,288,288,288,,,,,,,,,,,,,,,,,,,,,AMP,left,0.3169518835602503,,,left,0,0.3169518835602503,0,,,,,,,,,,,,,,,,,,,,,,1067,2019_Mar_14_1358,mf_amp_cond1,3.0.4,60.003002095685574,
drug,forepo,&&&&&&,right,sanctity.vice,,,,,,,0,289,289,289,,,,,,,,,,,,,,,,,,,,,AMP,left,0.6003692136378049,,,left,0,0.6003692136378049,0,,,,,,,,,,,,,,,,,,,,,,1067,2019_Mar_14_1358,mf_amp_cond1,3.0.4,60.003002095685574,
values,menizen,&&&&&&&,left,sanctity.virtue,,,,,,,0,290,290,290,,,,,,,,,,,,,,,,,,,,,AMP,left,0.31694899707440527,,,left,1,0.31694899707440527,1,,,,,,,,,,,,,,,,,,,,,,1067,2019_Mar_14_1358,mf_amp_cond1,3.0.4,60.003002095685574,
fear,emassion,&&&&&&&&,right,sanctity.vice,,,,,,,0,291,291,291,,,,,,,,,,,,,,,,,,,,,AMP,left,0.717051563545283,,,left,0,0.717051563545283,0,,,,,,,,,,,,,,,,,,,,,,1067,2019_Mar_14_1358,mf_amp_cond1,3.0.4,60.003002095685574,
voter,tracious,&&&&&&&&,right,fairness.vice,,,,,,,0,292,292,292,,,,,,,,,,,,,,,,,,,,,AMP,left,0.3336210197762739,,,left,0,0.3336210197762739,0,,,,,,,,,,,,,,,,,,,,,,1067,2019_Mar_14_1358,mf_amp_cond1,3.0.4,60.003002095685574,
growth,tabin,&&&&&,left,care.virtue,,,,,,,0,293,293,293,,,,,,,,,,,,,,,,,,,,,AMP,left,0.517004610038839,,,left,1,0.517004610038839,1,,,,,,,,,,,,,,,,,,,,,,1067,2019_Mar_14_1358,mf_amp_cond1,3.0.4,60.003002095685574,
unpleasant,sfumatoy,&&&&&&&&,None,control,,,,,,,0,294,294,294,,,,,,,,,,,,,,,,,,,,,AMP,left,0.5170091001282344,,,left,0,0.5170091001282344,0,,,,,,,,,,,,,,,,,,,,,,1067,2019_Mar_14_1358,mf_amp_cond1,3.0.4,60.003002095685574,
ensure,honstables,&&&&&&&&&&,left,fairness.virtue,,,,,,,0,295,295,295,,,,,,,,,,,,,,,,,,,,,AMP,left,0.483674034903288,,,left,1,0.483674034903288,1,,,,,,,,,,,,,,,,,,,,,,1067,2019_Mar_14_1358,mf_amp_cond1,3.0.4,60.003002095685574,
free,brudent,&&&&&&&,left,fairness.virtue,,,,,,,0,296,296,296,,,,,,,,,,,,,,,,,,,,,AMP,left,0.3169701646388603,,,left,1,0.3169701646388603,1,,,,,,,,,,,,,,,,,,,,,,1067,2019_Mar_14_1358,mf_amp_cond1,3.0.4,60.003002095685574,
troops,seachwear,&&&&&&&&&,right,loyalty.vice,,,,,,,0,297,297,297,,,,,,,,,,,,,,,,,,,,,AMP,left,0.667051210752561,,,left,0,0.667051210752561,0,,,,,,,,,,,,,,,,,,,,,,1067,2019_Mar_14_1358,mf_amp_cond1,3.0.4,60.003002095685574,
arrests,fostet,&&&&&&,right,authority.vice,,,,,,,0,298,298,298,,,,,,,,,,,,,,,,,,,,,AMP,left,0.43368458661370823,,,left,0,0.43368458661370823,0,,,,,,,,,,,,,,,,,,,,,,1067,2019_Mar_14_1358,mf_amp_cond1,3.0.4,60.003002095685574,
interests,gandbrake,&&&&&&&&&,left,fairness.virtue,,,,,,,0,299,299,299,,,,,,,,,,,,,,,,,,,,,AMP,left,0.5670299790442641,,,left,1,0.5670299790442641,1,,,,,,,,,,,,,,,,,,,,,,1067,2019_Mar_14_1358,mf_amp_cond1,3.0.4,60.003002095685574,
tove,scalbel,&&&&&&&,None,nonword,,,,,,,0,300,300,300,,,,,,,,,,,,,,,,,,,,,AMP,right,0.5170081379662861,,,right,0,0.5170081379662861,0,,,,,,,,,,,,,,,,,,,,,,1067,2019_Mar_14_1358,mf_amp_cond1,3.0.4,60.003002095685574,
corruption,egpeditious,&&&&&&&&&&&,right,sanctity.vice,,,,,,,0,301,301,301,,,,,,,,,,,,,,,,,,,,,AMP,left,0.4169830576097411,,,left,0,0.4169830576097411,0,,,,,,,,,,,,,,,,,,,,,,1067,2019_Mar_14_1358,mf_amp_cond1,3.0.4,60.003002095685574,
threatened,hescribe,&&&&&&&&,right,fairness.vice,,,,,,,0,302,302,302,,,,,,,,,,,,,,,,,,,,,AMP,left,0.7837556903864424,,,left,0,0.7837556903864424,0,,,,,,,,,,,,,,,,,,,,,,1067,2019_Mar_14_1358,mf_amp_cond1,3.0.4,60.003002095685574,
rejected,pulge,&&&&&,right,authority.vice,,,,,,,0,303,303,303,,,,,,,,,,,,,,,,,,,,,AMP,right,0.3669794976101457,,,right,1,0.3669794976101457,1,,,,,,,,,,,,,,,,,,,,,,1067,2019_Mar_14_1358,mf_amp_cond1,3.0.4,60.003002095685574,
progress,thabbily,&&&&&&&&,left,authority.virtue,,,,,,,0,304,304,304,,,,,,,,,,,,,,,,,,,,,AMP,right,0.3669724417557063,,,right,0,0.3669724417557063,0,,,,,,,,,,,,,,,,,,,,,,1067,2019_Mar_14_1358,mf_amp_cond1,3.0.4,60.003002095685574,
gun,shoirmaster,&&&&&&&&&&&,right,authority.vice,,,,,,,0,305,305,305,,,,,,,,,,,,,,,,,,,,,AMP,left,0.4169846612130641,,,left,0,0.4169846612130641,0,,,,,,,,,,,,,,,,,,,,,,1067,2019_Mar_14_1358,mf_amp_cond1,3.0.4,60.003002095685574,
health,dramens,&&&&&&&,left,care.virtue,,,,,,,0,306,306,306,,,,,,,,,,,,,,,,,,,,,AMP,left,0.36697853544842474,,,left,1,0.36697853544842474,1,,,,,,,,,,,,,,,,,,,,,,1067,2019_Mar_14_1358,mf_amp_cond1,3.0.4,60.003002095685574,
ability,thadowed,&&&&&&&&,left,authority.virtue,,,,,,,0,307,307,307,,,,,,,,,,,,,,,,,,,,,AMP,left,0.38362586265839127,,,left,1,0.38362586265839127,1,,,,,,,,,,,,,,,,,,,,,,1067,2019_Mar_14_1358,mf_amp_cond1,3.0.4,60.003002095685574,
promote,lorthwhile,&&&&&&&&&&,left,sanctity.virtue,,,,,,,0,308,308,308,,,,,,,,,,,,,,,,,,,,,AMP,left,0.40032578805880803,,,left,1,0.40032578805880803,1,,,,,,,,,,,,,,,,,,,,,,1067,2019_Mar_14_1358,mf_amp_cond1,3.0.4,60.003002095685574,
win,gowlands,&&&&&&&&,left,fairness.virtue,,,,,,,0,309,309,309,,,,,,,,,,,,,,,,,,,,,AMP,left,0.3002901239199218,,,left,1,0.3002901239199218,1,,,,,,,,,,,,,,,,,,,,,,1067,2019_Mar_14_1358,mf_amp_cond1,3.0.4,60.003002095685574,
useful,gournful,&&&&&&&&,left,authority.virtue,,,,,,,0,310,310,310,,,,,,,,,,,,,,,,,,,,,AMP,left,0.3169829934656718,,,left,1,0.3169829934656718,1,,,,,,,,,,,,,,,,,,,,,,1067,2019_Mar_14_1358,mf_amp_cond1,3.0.4,60.003002095685574,
great,godlaness,&&&&&&&&&,left,loyalty.virtue,,,,,,,0,311,311,311,,,,,,,,,,,,,,,,,,,,,AMP,left,0.4003158457180689,,,left,1,0.4003158457180689,1,,,,,,,,,,,,,,,,,,,,,,1067,2019_Mar_14_1358,mf_amp_cond1,3.0.4,60.003002095685574,
letish,bluently,&&&&&&&&,None,nonword,,,,,,,0,312,312,312,,,,,,,,,,,,,,,,,,,,,AMP,left,0.3836447851781486,,,left,0,0.3836447851781486,0,,,,,,,,,,,,,,,,,,,,,,1067,2019_Mar_14_1358,mf_amp_cond1,3.0.4,60.003002095685574,
agreement,viscs,&&&&&,left,fairness.virtue,,,,,,,0,313,313,313,,,,,,,,,,,,,,,,,,,,,AMP,left,0.4169875476991365,,,left,1,0.4169875476991365,1,,,,,,,,,,,,,,,,,,,,,,1067,2019_Mar_14_1358,mf_amp_cond1,3.0.4,60.003002095685574,
actively,crilfully,&&&&&&&&&,left,authority.virtue,,,,,,,0,314,314,314,,,,,,,,,,,,,,,,,,,,,AMP,right,0.6670650017415483,,,right,0,0.6670650017415483,0,,,,,,,,,,,,,,,,,,,,,,1067,2019_Mar_14_1358,mf_amp_cond1,3.0.4,60.003002095685574,
crime,bycled,&&&&&&,right,fairness.vice,,,,,,,0,315,315,315,,,,,,,,,,,,,,,,,,,,,AMP,left,0.40031777004196556,,,left,0,0.40031777004196556,0,,,,,,,,,,,,,,,,,,,,,,1067,2019_Mar_14_1358,mf_amp_cond1,3.0.4,60.003002095685574,
killed,simplustic,&&&&&&&&&&,right,care.vice,,,,,,,0,316,316,316,,,,,,,,,,,,,,,,,,,,,AMP,right,1.3505550712675358,,,right,1,1.3505550712675358,1,,,,,,,,,,,,,,,,,,,,,,1067,2019_Mar_14_1358,mf_amp_cond1,3.0.4,60.003002095685574,
honored,photocalkodes,&&&&&&&&&&&&&,left,authority.virtue,,,,,,,0,317,317,317,,,,,,,,,,,,,,,,,,,,,AMP,left,0.5837039260700294,,,left,1,0.5837039260700294,1,,,,,,,,,,,,,,,,,,,,,,1067,2019_Mar_14_1358,mf_amp_cond1,3.0.4,60.003002095685574,
pleasant,aubos,&&&&&,None,control,,,,,,,0,318,318,318,,,,,,,,,,,,,,,,,,,,,AMP,right,0.7003805030053627,,,right,0,0.7003805030053627,0,,,,,,,,,,,,,,,,,,,,,,1067,2019_Mar_14_1358,mf_amp_cond1,3.0.4,60.003002095685574,
death,leact,&&&&&,right,care.vice,,,,,,,0,319,319,319,,,,,,,,,,,,,,,,,,,,,AMP,left,0.5670354312953805,,,left,0,0.5670354312953805,0,,,,,,,,,,,,,,,,,,,,,,1067,2019_Mar_14_1358,mf_amp_cond1,3.0.4,60.003002095685574,
respect,tomedians,&&&&&&&&&,left,sanctity.virtue,,,,,,,0,320,320,320,,,,,,,,,,,,,,,,,,,,,AMP,left,0.567026130396016,,,left,1,0.567026130396016,1,,,,,,,,,,,,,,,,,,,,,,1067,2019_Mar_14_1358,mf_amp_cond1,3.0.4,60.003002095685574,
victim,sgrawl,&&&&&&,right,care.vice,,,,,,,0,321,321,321,,,,,,,,,,,,,,,,,,,,,AMP,left,0.5170325127373872,,,left,0,0.5170325127373872,0,,,,,,,,,,,,,,,,,,,,,,1067,2019_Mar_14_1358,mf_amp_cond1,3.0.4,60.003002095685574,
party,ilportation,&&&&&&&&&&&,left,loyalty.virtue,,,,,,,0,322,322,322,,,,,,,,,,,,,,,,,,,,,AMP,left,0.5003444540018336,,,left,1,0.5003444540018336,1,,,,,,,,,,,,,,,,,,,,,,1067,2019_Mar_14_1358,mf_amp_cond1,3.0.4,60.003002095685574,
torture,imebreaker,&&&&&&&&&&,right,care.vice,,,,,,,0,323,323,323,,,,,,,,,,,,,,,,,,,,,AMP,left,0.1836266965322011,,,left,0,0.1836266965322011,0,,,,,,,,,,,,,,,,,,,,,,1067,2019_Mar_14_1358,mf_amp_cond1,3.0.4,60.003002095685574,
sexual,sliptery,&&&&&&&&,right,sanctity.vice,,,,,,,0,324,324,324,,,,,,,,,,,,,,,,,,,,,AMP,right,1.600623865851503,,,right,1,1.600623865851503,1,,,,,,,,,,,,,,,,,,,,,,1067,2019_Mar_14_1358,mf_amp_cond1,3.0.4,60.003002095685574,
strength,hatigue,&&&&&&&,left,sanctity.virtue,,,,,,,0,325,325,325,,,,,,,,,,,,,,,,,,,,,AMP,left,0.500352472018676,,,left,1,0.500352472018676,1,,,,,,,,,,,,,,,,,,,,,,1067,2019_Mar_14_1358,mf_amp_cond1,3.0.4,60.003002095685574,
prosecution,gationwide,&&&&&&&&&&,right,authority.vice,,,,,,,0,326,326,326,,,,,,,,,,,,,,,,,,,,,AMP,left,0.5003710738178597,,,left,0,0.5003710738178597,0,,,,,,,,,,,,,,,,,,,,,,1067,2019_Mar_14_1358,mf_amp_cond1,3.0.4,60.003002095685574,
men,allears,&&&&&&&,right,loyalty.vice,,,,,,,0,327,327,327,,,,,,,,,,,,,,,,,,,,,AMP,left,0.4003225808519346,,,left,0,0.4003225808519346,0,,,,,,,,,,,,,,,,,,,,,,1067,2019_Mar_14_1358,mf_amp_cond1,3.0.4,60.003002095685574,
,,,,,,,,,,,,,,,,,,,,,,,,,,,,,,,,,,,,,,,,,,,,5,15.172,,,,,,,,,,,,,,,,,,,,1067,2019_Mar_14_1358,mf_amp_cond1,3.0.4,60.003002095685574,
,,,,,,,,,,,,,,,,,,,,,,,,,,,,,,,,,,,,,,,,,,,,,,1,5.27,,,,,,,,,,,,,,,,,,1067,2019_Mar_14_1358,mf_amp_cond1,3.0.4,60.003002095685574,
,,,,,,,,,,,,,,,,,,,,,,,,,,,,,,,,,,,,,,,,,,,,,,,,2,5.737,,,,,,,,,,,,,,,,1067,2019_Mar_14_1358,mf_amp_cond1,3.0.4,60.003002095685574,
,,,,,,,,,,,,,,,,,,,,,,,,,,,,,,,,,,,,,,,,,,,,,,,,,,right,1.5673147790009807,,,,,,,,,,,,,,1067,2019_Mar_14_1358,mf_amp_cond1,3.0.4,60.003002095685574,
bisebell,,&&&&&&&,,,,,,,,,,,,,0,0,0,1,,,,,,,,,,,,,,,,,LDT_prac,left,2.484166661855852,,,,,,0,,,,,,,,,left,2.484166661855852,,,,,,,,,,,,1067,2019_Mar_14_1358,mf_amp_cond1,3.0.4,60.003002095685574,
keyboard,,&&&&&&&,,,,,,,,,,,,,0,1,1,0,,,,,,,,,,,,,,,,,LDT_prac,left,3.1676862376834833,,,,,,0,,,,,,,,,left,3.1676862376834833,,,,,,,,,,,,1067,2019_Mar_14_1358,mf_amp_cond1,3.0.4,60.003002095685574,
,,,,,,,,,,,,,,,,,,,,,,,,,,,,,,,,,,,,,,,,,,,,,,,,,,,,,,right,1.5672993844086704,,,,,,,,,,1067,2019_Mar_14_1358,mf_amp_cond1,3.0.4,60.003002095685574,
fangsters,,&&&&&&&&&,right,nonword,,,,,,,,,,,,,,,0,0,0,48,,,,,,,,,,,,,LDT,left,1.1004763343423747,,,,,,0,,,,,,,,,,,,,left,0,1.1004763343423747,,,,,,,1067,2019_Mar_14_1358,mf_amp_cond1,3.0.4,60.003002095685574,
festate,,&&&&&&&,right,nonword,,,,,,,,,,,,,,,0,1,1,129,,,,,,,,,,,,,LDT,right,3.1843585811059256,,,,,,1,,,,,,,,,,,,,right,1,3.1843585811059256,,,,,,,1067,2019_Mar_14_1358,mf_amp_cond1,3.0.4,60.003002095685574,
critics,,&&&&&&&,left,loyalty.vice,,,,,,,,,,,,,,,0,2,2,89,,,,,,,,,,,,,LDT,right,0.6170534237253378,,,,,,0,,,,,,,,,,,,,right,0,0.6170534237253378,,,,,,,1067,2019_Mar_14_1358,mf_amp_cond1,3.0.4,60.003002095685574,
openet,,&&&&&&,None,nonword,,,,,,,,,,,,,,,0,3,3,94,,,,,,,,,,,,,LDT,left,0.8171000565109807,,,,,,0,,,,,,,,,,,,,left,0,0.8171000565109807,,,,,,,1067,2019_Mar_14_1358,mf_amp_cond1,3.0.4,60.003002095685574,
done,,&&&&,left,neutral,,,,,,,,,,,,,,,0,4,4,105,,,,,,,,,,,,,LDT,right,0.6170425192224229,,,,,,0,,,,,,,,,,,,,right,0,0.6170425192224229,,,,,,,1067,2019_Mar_14_1358,mf_amp_cond1,3.0.4,60.003002095685574,
integrity,,&&&&&&&&&,left,fairness.virtue,,,,,,,,,,,,,,,0,5,5,99,,,,,,,,,,,,,LDT,right,0.6837351001192928,,,,,,0,,,,,,,,,,,,,right,0,0.6837351001192928,,,,,,,1067,2019_Mar_14_1358,mf_amp_cond1,3.0.4,60.003002095685574,
somehow,,&&&&&&&,left,neutral,,,,,,,,,,,,,,,0,6,6,184,,,,,,,,,,,,,LDT,left,1.1338518103721071,,,,,,1,,,,,,,,,,,,,left,1,1.1338518103721071,,,,,,,1067,2019_Mar_14_1358,mf_amp_cond1,3.0.4,60.003002095685574,
abointment,,&&&&&&&&&&,right,nonword,,,,,,,,,,,,,,,0,7,7,62,,,,,,,,,,,,,LDT,right,1.3506002928820635,,,,,,1,,,,,,,,,,,,,right,1,1.3506002928820635,,,,,,,1067,2019_Mar_14_1358,mf_amp_cond1,3.0.4,60.003002095685574,
neneficence,,&&&&&&&&&&&,right,nonword,,,,,,,,,,,,,,,0,8,8,146,,,,,,,,,,,,,LDT,left,1.0504836788459215,,,,,,0,,,,,,,,,,,,,left,0,1.0504836788459215,,,,,,,1067,2019_Mar_14_1358,mf_amp_cond1,3.0.4,60.003002095685574,
faith,,&&&&&,left,sanctity.virtue,,,,,,,,,,,,,,,0,9,9,126,,,,,,,,,,,,,LDT,right,0.6003775523752211,,,,,,0,,,,,,,,,,,,,right,0,0.6003775523752211,,,,,,,1067,2019_Mar_14_1358,mf_amp_cond1,3.0.4,60.003002095685574,
coom,,&&&&,right,nonword,,,,,,,,,,,,,,,0,10,10,185,,,,,,,,,,,,,LDT,right,1.0338280128980841,,,,,,1,,,,,,,,,,,,,right,1,1.0338280128980841,,,,,,,1067,2019_Mar_14_1358,mf_amp_cond1,3.0.4,60.003002095685574,
smapper,,&&&&&&&,right,nonword,,,,,,,,,,,,,,,0,11,11,183,,,,,,,,,,,,,LDT,right,0.9338141577650276,,,,,,1,,,,,,,,,,,,,right,1,0.9338141577650276,,,,,,,1067,2019_Mar_14_1358,mf_amp_cond1,3.0.4,60.003002095685574,
sidearbs,,&&&&&&&&,right,nonword,,,,,,,,,,,,,,,0,12,12,70,,,,,,,,,,,,,LDT,left,0.7004035948939418,,,,,,0,,,,,,,,,,,,,left,0,0.7004035948939418,,,,,,,1067,2019_Mar_14_1358,mf_amp_cond1,3.0.4,60.003002095685574,
nackers,,&&&&&&&,right,nonword,,,,,,,,,,,,,,,0,13,13,72,,,,,,,,,,,,,LDT,right,1.867349288545256,,,,,,1,,,,,,,,,,,,,right,1,1.867349288545256,,,,,,,1067,2019_Mar_14_1358,mf_amp_cond1,3.0.4,60.003002095685574,
mostly,,&&&&&&,left,neutral,,,,,,,,,,,,,,,0,14,14,153,,,,,,,,,,,,,LDT,right,0.6337180698517386,,,,,,0,,,,,,,,,,,,,right,0,0.6337180698517386,,,,,,,1067,2019_Mar_14_1358,mf_amp_cond1,3.0.4,60.003002095685574,
pumber,,&&&&&&,None,nonword,,,,,,,,,,,,,,,0,15,15,187,,,,,,,,,,,,,LDT,right,0.7337469988563043,,,,,,0,,,,,,,,,,,,,right,0,0.7337469988563043,,,,,,,1067,2019_Mar_14_1358,mf_amp_cond1,3.0.4,60.003002095685574,
unscothed,,&&&&&&&&&,right,nonword,,,,,,,,,,,,,,,0,16,16,65,,,,,,,,,,,,,LDT,right,1.683988148729668,,,,,,1,,,,,,,,,,,,,right,1,1.683988148729668,,,,,,,1067,2019_Mar_14_1358,mf_amp_cond1,3.0.4,60.003002095685574,
pafer,,&&&&&,right,nonword,,,,,,,,,,,,,,,0,17,17,84,,,,,,,,,,,,,LDT,left,0.6837383073261663,,,,,,0,,,,,,,,,,,,,left,0,0.6837383073261663,,,,,,,1067,2019_Mar_14_1358,mf_amp_cond1,3.0.4,60.003002095685574,
sickyay,,&&&&&&&,right,nonword,,,,,,,,,,,,,,,0,18,18,17,,,,,,,,,,,,,LDT,left,0.6503888096708579,,,,,,0,,,,,,,,,,,,,left,0,0.6503888096708579,,,,,,,1067,2019_Mar_14_1358,mf_amp_cond1,3.0.4,60.003002095685574,
framatic,,&&&&&&&&,right,nonword,,,,,,,,,,,,,,,0,19,19,175,,,,,,,,,,,,,LDT,right,0.91712417470535,,,,,,1,,,,,,,,,,,,,right,1,0.91712417470535,,,,,,,1067,2019_Mar_14_1358,mf_amp_cond1,3.0.4,60.003002095685574,
wherever,,&&&&&&&&,left,neutral,,,,,,,,,,,,,,,0,20,20,114,,,,,,,,,,,,,LDT,right,0.6669710305845911,,,,,,0,,,,,,,,,,,,,right,0,0.6669710305845911,,,,,,,1067,2019_Mar_14_1358,mf_amp_cond1,3.0.4,60.003002095685574,
least,,&&&&&,left,neutral,,,,,,,,,,,,,,,0,21,21,199,,,,,,,,,,,,,LDT,right,0.8171048673211772,,,,,,0,,,,,,,,,,,,,right,0,0.8171048673211772,,,,,,,1067,2019_Mar_14_1358,mf_amp_cond1,3.0.4,60.003002095685574,
friends,,&&&&&&&,left,loyalty.virtue,,,,,,,,,,,,,,,0,22,22,116,,,,,,,,,,,,,LDT,right,0.5837106612043499,,,,,,0,,,,,,,,,,,,,right,0,0.5837106612043499,,,,,,,1067,2019_Mar_14_1358,mf_amp_cond1,3.0.4,60.003002095685574,
vurtain,,&&&&&&&,right,nonword,,,,,,,,,,,,,,,0,23,23,59,,,,,,,,,,,,,LDT,right,0.6670595494899771,,,,,,1,,,,,,,,,,,,,right,1,0.6670595494899771,,,,,,,1067,2019_Mar_14_1358,mf_amp_cond1,3.0.4,60.003002095685574,
Lacedonia,,&&&&&&&&&,right,nonword,,,,,,,,,,,,,,,0,24,24,80,,,,,,,,,,,,,LDT,left,0.9671373563251109,,,,,,0,,,,,,,,,,,,,left,0,0.9671373563251109,,,,,,,1067,2019_Mar_14_1358,mf_amp_cond1,3.0.4,60.003002095685574,
noone,,&&&&&,left,neutral,,,,,,,,,,,,,,,0,25,25,134,,,,,,,,,,,,,LDT,left,1.2005315624421655,,,,,,1,,,,,,,,,,,,,left,1,1.2005315624421655,,,,,,,1067,2019_Mar_14_1358,mf_amp_cond1,3.0.4,60.003002095685574,
peace,,&&&&&,left,care.virtue,,,,,,,,,,,,,,,0,26,26,96,,,,,,,,,,,,,LDT,right,0.5503669365209589,,,,,,0,,,,,,,,,,,,,right,0,0.5503669365209589,,,,,,,1067,2019_Mar_14_1358,mf_amp_cond1,3.0.4,60.003002095685574,
Loorish,,&&&&&&&,right,nonword,,,,,,,,,,,,,,,0,27,27,46,,,,,,,,,,,,,LDT,left,0.7837585768725148,,,,,,0,,,,,,,,,,,,,left,0,0.7837585768725148,,,,,,,1067,2019_Mar_14_1358,mf_amp_cond1,3.0.4,60.003002095685574,
besides,,&&&&&&&,left,neutral,,,,,,,,,,,,,,,0,28,28,22,,,,,,,,,,,,,LDT,right,0.7004026327319934,,,,,,0,,,,,,,,,,,,,right,0,0.7004026327319934,,,,,,,1067,2019_Mar_14_1358,mf_amp_cond1,3.0.4,60.003002095685574,
each,,&&&&,left,neutral,,,,,,,,,,,,,,,0,29,29,162,,,,,,,,,,,,,LDT,right,0.5170148731006066,,,,,,0,,,,,,,,,,,,,right,0,0.5170148731006066,,,,,,,1067,2019_Mar_14_1358,mf_amp_cond1,3.0.4,60.003002095685574,
lempestuous,,&&&&&&&&&&&,right,nonword,,,,,,,,,,,,,,,0,30,30,178,,,,,,,,,,,,,LDT,left,0.6503926583188786,,,,,,0,,,,,,,,,,,,,left,0,0.6503926583188786,,,,,,,1067,2019_Mar_14_1358,mf_amp_cond1,3.0.4,60.003002095685574,
loyalty,,&&&&&&&,left,loyalty.virtue,,,,,,,,,,,,,,,0,31,31,34,,,,,,,,,,,,,LDT,left,1.650702474488071,,,,,,1,,,,,,,,,,,,,left,1,1.650702474488071,,,,,,,1067,2019_Mar_14_1358,mf_amp_cond1,3.0.4,60.003002095685574,
fegard,,&&&&&&,right,nonword,,,,,,,,,,,,,,,0,32,32,145,,,,,,,,,,,,,LDT,left,0.7504122864240799,,,,,,0,,,,,,,,,,,,,left,0,0.7504122864240799,,,,,,,1067,2019_Mar_14_1358,mf_amp_cond1,3.0.4,60.003002095685574,
been,,&&&&,left,neutral,,,,,,,,,,,,,,,0,33,33,177,,,,,,,,,,,,,LDT,right,0.5503553905768968,,,,,,0,,,,,,,,,,,,,right,0,0.5503553905768968,,,,,,,1067,2019_Mar_14_1358,mf_amp_cond1,3.0.4,60.003002095685574,
civilians,,&&&&&&&&&,left,care.vice,,,,,,,,,,,,,,,0,34,34,30,,,,,,,,,,,,,LDT,right,0.583696228773988,,,,,,0,,,,,,,,,,,,,right,0,0.583696228773988,,,,,,,1067,2019_Mar_14_1358,mf_amp_cond1,3.0.4,60.003002095685574,
war,,&&&,left,sanctity.vice,,,,,,,,,,,,,,,0,35,35,123,,,,,,,,,,,,,LDT,right,1.2338768907284248,,,,,,0,,,,,,,,,,,,,right,0,1.2338768907284248,,,,,,,1067,2019_Mar_14_1358,mf_amp_cond1,3.0.4,60.003002095685574,
refuejing,,&&&&&&&&&,right,nonword,,,,,,,,,,,,,,,0,36,36,112,,,,,,,,,,,,,LDT,left,0.70039942552512,,,,,,0,,,,,,,,,,,,,left,0,0.70039942552512,,,,,,,1067,2019_Mar_14_1358,mf_amp_cond1,3.0.4,60.003002095685574,
antral,,&&&&&&,right,nonword,,,,,,,,,,,,,,,0,37,37,198,,,,,,,,,,,,,LDT,right,0.917119684616182,,,,,,1,,,,,,,,,,,,,right,1,0.917119684616182,,,,,,,1067,2019_Mar_14_1358,mf_amp_cond1,3.0.4,60.003002095685574,
ecgagement,,&&&&&&&&&&,None,nonword,,,,,,,,,,,,,,,0,38,38,195,,,,,,,,,,,,,LDT,right,0.6337809311035016,,,,,,0,,,,,,,,,,,,,right,0,0.6337809311035016,,,,,,,1067,2019_Mar_14_1358,mf_amp_cond1,3.0.4,60.003002095685574,
scandal,,&&&&&&&,left,sanctity.vice,,,,,,,,,,,,,,,0,39,39,171,,,,,,,,,,,,,LDT,right,0.5837045675111767,,,,,,0,,,,,,,,,,,,,right,0,0.5837045675111767,,,,,,,1067,2019_Mar_14_1358,mf_amp_cond1,3.0.4,60.003002095685574,
become,,&&&&&&,left,neutral,,,,,,,,,,,,,,,0,40,40,47,,,,,,,,,,,,,LDT,right,1.3338910665822823,,,,,,0,,,,,,,,,,,,,right,0,1.3338910665822823,,,,,,,1067,2019_Mar_14_1358,mf_amp_cond1,3.0.4,60.003002095685574,
dignity,,&&&&&&&,left,sanctity.virtue,,,,,,,,,,,,,,,0,41,41,143,,,,,,,,,,,,,LDT,right,0.6337090896729478,,,,,,0,,,,,,,,,,,,,right,0,0.6337090896729478,,,,,,,1067,2019_Mar_14_1358,mf_amp_cond1,3.0.4,60.003002095685574,
atson,,&&&&&,right,nonword,,,,,,,,,,,,,,,0,42,42,64,,,,,,,,,,,,,LDT,left,0.7504161350721006,,,,,,0,,,,,,,,,,,,,left,0,0.7504161350721006,,,,,,,1067,2019_Mar_14_1358,mf_amp_cond1,3.0.4,60.003002095685574,
terrorist,,&&&&&&&&&,left,loyalty.vice,,,,,,,,,,,,,,,0,43,43,122,,,,,,,,,,,,,LDT,right,0.5836314431981009,,,,,,0,,,,,,,,,,,,,right,0,0.5836314431981009,,,,,,,1067,2019_Mar_14_1358,mf_amp_cond1,3.0.4,60.003002095685574,
restore,,&&&&&&&,left,care.virtue,,,,,,,,,,,,,,,0,44,44,77,,,,,,,,,,,,,LDT,right,0.5336994039084857,,,,,,0,,,,,,,,,,,,,right,0,0.5336994039084857,,,,,,,1067,2019_Mar_14_1358,mf_amp_cond1,3.0.4,60.003002095685574,
failure,,&&&&&&&,left,loyalty.vice,,,,,,,,,,,,,,,0,45,45,107,,,,,,,,,,,,,LDT,right,0.6003871739953865,,,,,,0,,,,,,,,,,,,,right,0,0.6003871739953865,,,,,,,1067,2019_Mar_14_1358,mf_amp_cond1,3.0.4,60.003002095685574,
thru,,&&&&,left,neutral,,,,,,,,,,,,,,,0,46,46,76,,,,,,,,,,,,,LDT,right,0.6503817538161911,,,,,,0,,,,,,,,,,,,,right,0,0.6503817538161911,,,,,,,1067,2019_Mar_14_1358,mf_amp_cond1,3.0.4,60.003002095685574,
suggists,,&&&&&&&&,right,nonword,,,,,,,,,,,,,,,0,47,47,181,,,,,,,,,,,,,LDT,left,0.5503656536384369,,,,,,0,,,,,,,,,,,,,left,0,0.5503656536384369,,,,,,,1067,2019_Mar_14_1358,mf_amp_cond1,3.0.4,60.003002095685574,
juck,,&&&&,right,nonword,,,,,,,,,,,,,,,0,48,48,148,,,,,,,,,,,,,LDT,left,0.6003897397608853,,,,,,0,,,,,,,,,,,,,left,0,0.6003897397608853,,,,,,,1067,2019_Mar_14_1358,mf_amp_cond1,3.0.4,60.003002095685574,
forced,,&&&&&&,left,fairness.vice,,,,,,,,,,,,,,,0,49,49,81,,,,,,,,,,,,,LDT,left,0.8504482712835397,,,,,,1,,,,,,,,,,,,,left,1,0.8504482712835397,,,,,,,1067,2019_Mar_14_1358,mf_amp_cond1,3.0.4,60.003002095685574,
troubla,,&&&&&&&,right,nonword,,,,,,,,,,,,,,,0,50,50,197,,,,,,,,,,,,,LDT,left,1.0004833260529722,,,,,,0,,,,,,,,,,,,,left,0,1.0004833260529722,,,,,,,1067,2019_Mar_14_1358,mf_amp_cond1,3.0.4,60.003002095685574,
nomaric,,&&&&&&&,None,nonword,,,,,,,,,,,,,,,0,51,51,2,,,,,,,,,,,,,LDT,left,1.0004881368629412,,,,,,0,,,,,,,,,,,,,left,0,1.0004881368629412,,,,,,,1067,2019_Mar_14_1358,mf_amp_cond1,3.0.4,60.003002095685574,
although,,&&&&&&&&,left,neutral,,,,,,,,,,,,,,,0,52,52,161,,,,,,,,,,,,,LDT,right,0.5336894615675192,,,,,,0,,,,,,,,,,,,,right,0,0.5336894615675192,,,,,,,1067,2019_Mar_14_1358,mf_amp_cond1,3.0.4,60.003002095685574,
myself,,&&&&&&,left,neutral,,,,,,,,,,,,,,,0,53,53,188,,,,,,,,,,,,,LDT,right,0.56702292318937,,,,,,0,,,,,,,,,,,,,right,0,0.56702292318937,,,,,,,1067,2019_Mar_14_1358,mf_amp_cond1,3.0.4,60.003002095685574,
framo,,&&&&&,right,nonword,,,,,,,,,,,,,,,0,54,54,101,,,,,,,,,,,,,LDT,left,0.9171280233535981,,,,,,0,,,,,,,,,,,,,left,0,0.9171280233535981,,,,,,,1067,2019_Mar_14_1358,mf_amp_cond1,3.0.4,60.003002095685574,
therefore,,&&&&&&&&&,left,neutral,,,,,,,,,,,,,,,0,55,55,104,,,,,,,,,,,,,LDT,left,1.734018007824261,,,,,,1,,,,,,,,,,,,,left,1,1.734018007824261,,,,,,,1067,2019_Mar_14_1358,mf_amp_cond1,3.0.4,60.003002095685574,
erks,,&&&&,right,nonword,,,,,,,,,,,,,,,0,56,56,115,,,,,,,,,,,,,LDT,left,0.6837155361583882,,,,,,0,,,,,,,,,,,,,left,0,0.6837155361583882,,,,,,,1067,2019_Mar_14_1358,mf_amp_cond1,3.0.4,60.003002095685574,
increase,,&&&&&&&&,left,care.virtue,,,,,,,,,,,,,,,0,57,57,79,,,,,,,,,,,,,LDT,right,0.5837270179583811,,,,,,0,,,,,,,,,,,,,right,0,0.5837270179583811,,,,,,,1067,2019_Mar_14_1358,mf_amp_cond1,3.0.4,60.003002095685574,
ammessment,,&&&&&&&&&&,right,nonword,,,,,,,,,,,,,,,0,58,58,74,,,,,,,,,,,,,LDT,right,0.7336921556213838,,,,,,1,,,,,,,,,,,,,right,1,0.7336921556213838,,,,,,,1067,2019_Mar_14_1358,mf_amp_cond1,3.0.4,60.003002095685574,
energy,,&&&&&&,left,sanctity.virtue,,,,,,,,,,,,,,,0,59,59,102,,,,,,,,,,,,,LDT,right,0.6837270821024504,,,,,,0,,,,,,,,,,,,,right,0,0.6837270821024504,,,,,,,1067,2019_Mar_14_1358,mf_amp_cond1,3.0.4,60.003002095685574,
encourage,,&&&&&&&&&,left,authority.virtue,,,,,,,,,,,,,,,0,60,60,151,,,,,,,,,,,,,LDT,left,0.867119011102659,,,,,,1,,,,,,,,,,,,,left,1,0.867119011102659,,,,,,,1067,2019_Mar_14_1358,mf_amp_cond1,3.0.4,60.003002095685574,
uller,,&&&&&,right,nonword,,,,,,,,,,,,,,,0,61,61,133,,,,,,,,,,,,,LDT,left,0.8337688720062033,,,,,,0,,,,,,,,,,,,,left,0,0.8337688720062033,,,,,,,1067,2019_Mar_14_1358,mf_amp_cond1,3.0.4,60.003002095685574,
asn,,&&&,right,nonword,,,,,,,,,,,,,,,0,62,62,182,,,,,,,,,,,,,LDT,left,0.5169956298600482,,,,,,0,,,,,,,,,,,,,left,0,0.5169956298600482,,,,,,,1067,2019_Mar_14_1358,mf_amp_cond1,3.0.4,60.003002095685574,
prones,,&&&&&&,right,nonword,,,,,,,,,,,,,,,0,63,63,67,,,,,,,,,,,,,LDT,left,0.5003499062534047,,,,,,0,,,,,,,,,,,,,left,0,0.5003499062534047,,,,,,,1067,2019_Mar_14_1358,mf_amp_cond1,3.0.4,60.003002095685574,
hand,,&&&&,left,sanctity.virtue,,,,,,,,,,,,,,,0,64,64,140,,,,,,,,,,,,,LDT,right,0.5837247729136834,,,,,,0,,,,,,,,,,,,,right,0,0.5837247729136834,,,,,,,1067,2019_Mar_14_1358,mf_amp_cond1,3.0.4,60.003002095685574,
prison,,&&&&&&,left,fairness.vice,,,,,,,,,,,,,,,0,65,65,189,,,,,,,,,,,,,LDT,right,0.4336743235519407,,,,,,0,,,,,,,,,,,,,right,0,0.4336743235519407,,,,,,,1067,2019_Mar_14_1358,mf_amp_cond1,3.0.4,60.003002095685574,
fighters,,&&&&&&&&,left,authority.vice,,,,,,,,,,,,,,,0,66,66,138,,,,,,,,,,,,,LDT,right,0.5170155145419812,,,,,,0,,,,,,,,,,,,,right,0,0.5170155145419812,,,,,,,1067,2019_Mar_14_1358,mf_amp_cond1,3.0.4,60.003002095685574,
both,,&&&&,left,neutral,,,,,,,,,,,,,,,0,67,67,86,,,,,,,,,,,,,LDT,right,0.6837315721920731,,,,,,0,,,,,,,,,,,,,right,0,0.6837315721920731,,,,,,,1067,2019_Mar_14_1358,mf_amp_cond1,3.0.4,60.003002095685574,
benefit,,&&&&&&&,left,fairness.virtue,,,,,,,,,,,,,,,0,68,68,33,,,,,,,,,,,,,LDT,right,0.6170566309319838,,,,,,0,,,,,,,,,,,,,right,0,0.6170566309319838,,,,,,,1067,2019_Mar_14_1358,mf_amp_cond1,3.0.4,60.003002095685574,
rorroborated,,&&&&&&&&&&&&,right,nonword,,,,,,,,,,,,,,,0,69,69,163,,,,,,,,,,,,,LDT,left,0.867120935426783,,,,,,0,,,,,,,,,,,,,left,0,0.867120935426783,,,,,,,1067,2019_Mar_14_1358,mf_amp_cond1,3.0.4,60.003002095685574,
crinking,,&&&&&&&&,right,nonword,,,,,,,,,,,,,,,0,70,70,160,,,,,,,,,,,,,LDT,left,0.7504389062398786,,,,,,0,,,,,,,,,,,,,left,0,0.7504389062398786,,,,,,,1067,2019_Mar_14_1358,mf_amp_cond1,3.0.4,60.003002095685574,
were,,&&&&,left,neutral,,,,,,,,,,,,,,,0,71,71,157,,,,,,,,,,,,,LDT,right,0.8504453847974673,,,,,,0,,,,,,,,,,,,,right,0,0.8504453847974673,,,,,,,1067,2019_Mar_14_1358,mf_amp_cond1,3.0.4,60.003002095685574,
also,,&&&&,left,neutral,,,,,,,,,,,,,,,0,72,72,29,,,,,,,,,,,,,LDT,right,0.7337274348953997,,,,,,0,,,,,,,,,,,,,right,0,0.7337274348953997,,,,,,,1067,2019_Mar_14_1358,mf_amp_cond1,3.0.4,60.003002095685574,
chonograph,,&&&&&&&&&&,right,nonword,,,,,,,,,,,,,,,0,73,73,5,,,,,,,,,,,,,LDT,left,0.9004524727242824,,,,,,0,,,,,,,,,,,,,left,0,0.9004524727242824,,,,,,,1067,2019_Mar_14_1358,mf_amp_cond1,3.0.4,60.003002095685574,
edancipation,,&&&&&&&&&&&&,None,nonword,,,,,,,,,,,,,,,0,74,74,18,,,,,,,,,,,,,LDT,right,0.8838118806481816,,,,,,0,,,,,,,,,,,,,right,0,0.8838118806481816,,,,,,,1067,2019_Mar_14_1358,mf_amp_cond1,3.0.4,60.003002095685574,
rivernoat,,&&&&&&&&&,right,nonword,,,,,,,,,,,,,,,0,75,75,170,,,,,,,,,,,,,LDT,left,0.5837469026400868,,,,,,0,,,,,,,,,,,,,left,0,0.5837469026400868,,,,,,,1067,2019_Mar_14_1358,mf_amp_cond1,3.0.4,60.003002095685574,
officers,,&&&&&&&&,left,authority.vice,,,,,,,,,,,,,,,0,76,76,169,,,,,,,,,,,,,LDT,left,0.6003980784983014,,,,,,1,,,,,,,,,,,,,left,1,0.6003980784983014,,,,,,,1067,2019_Mar_14_1358,mf_amp_cond1,3.0.4,60.003002095685574,
touls,,&&&&&,right,nonword,,,,,,,,,,,,,,,0,77,77,131,,,,,,,,,,,,,LDT,left,3.6011155306421188,,,,,,0,,,,,,,,,,,,,left,0,3.6011155306421188,,,,,,,1067,2019_Mar_14_1358,mf_amp_cond1,3.0.4,60.003002095685574,
chadows,,&&&&&&&,right,nonword,,,,,,,,,,,,,,,0,78,78,63,,,,,,,,,,,,,LDT,left,0.9504871426288446,,,,,,0,,,,,,,,,,,,,left,0,0.9504871426288446,,,,,,,1067,2019_Mar_14_1358,mf_amp_cond1,3.0.4,60.003002095685574,
three,,&&&&&,left,neutral,,,,,,,,,,,,,,,0,79,79,39,,,,,,,,,,,,,LDT,right,0.517041813636979,,,,,,0,,,,,,,,,,,,,right,0,0.517041813636979,,,,,,,1067,2019_Mar_14_1358,mf_amp_cond1,3.0.4,60.003002095685574,
towards,,&&&&&&&,left,neutral,,,,,,,,,,,,,,,0,80,80,125,,,,,,,,,,,,,LDT,right,0.46701836895567794,,,,,,0,,,,,,,,,,,,,right,0,0.46701836895567794,,,,,,,1067,2019_Mar_14_1358,mf_amp_cond1,3.0.4,60.003002095685574,
abuse,,&&&&&,left,sanctity.vice,,,,,,,,,,,,,,,0,81,81,124,,,,,,,,,,,,,LDT,right,0.45033544175112183,,,,,,0,,,,,,,,,,,,,right,0,0.45033544175112183,,,,,,,1067,2019_Mar_14_1358,mf_amp_cond1,3.0.4,60.003002095685574,
there,,&&&&&,left,neutral,,,,,,,,,,,,,,,0,82,82,43,,,,,,,,,,,,,LDT,right,0.867122218309305,,,,,,0,,,,,,,,,,,,,right,0,0.867122218309305,,,,,,,1067,2019_Mar_14_1358,mf_amp_cond1,3.0.4,60.003002095685574,
refused,,&&&&&&&,left,authority.vice,,,,,,,,,,,,,,,0,83,83,103,,,,,,,,,,,,,LDT,right,0.7004061606592131,,,,,,0,,,,,,,,,,,,,right,0,0.7004061606592131,,,,,,,1067,2019_Mar_14_1358,mf_amp_cond1,3.0.4,60.003002095685574,
attacks,,&&&&&&&,left,care.vice,,,,,,,,,,,,,,,0,84,84,20,,,,,,,,,,,,,LDT,right,0.9004669051546443,,,,,,0,,,,,,,,,,,,,right,0,0.9004669051546443,,,,,,,1067,2019_Mar_14_1358,mf_amp_cond1,3.0.4,60.003002095685574,
noped,,&&&&&,right,nonword,,,,,,,,,,,,,,,0,85,85,193,,,,,,,,,,,,,LDT,left,1.0504900932592136,,,,,,0,,,,,,,,,,,,,left,0,1.0504900932592136,,,,,,,1067,2019_Mar_14_1358,mf_amp_cond1,3.0.4,60.003002095685574,
further,,&&&&&&&,left,neutral,,,,,,,,,,,,,,,0,86,86,15,,,,,,,,,,,,,LDT,right,0.6170531030045368,,,,,,0,,,,,,,,,,,,,right,0,0.6170531030045368,,,,,,,1067,2019_Mar_14_1358,mf_amp_cond1,3.0.4,60.003002095685574,
violations,,&&&&&&&&&&,left,sanctity.vice,,,,,,,,,,,,,,,0,87,87,156,,,,,,,,,,,,,LDT,right,0.7670676316508889,,,,,,0,,,,,,,,,,,,,right,0,0.7670676316508889,,,,,,,1067,2019_Mar_14_1358,mf_amp_cond1,3.0.4,60.003002095685574,
charges,,&&&&&&&,left,fairness.vice,,,,,,,,,,,,,,,0,88,88,93,,,,,,,,,,,,,LDT,left,0.6837578712870709,,,,,,1,,,,,,,,,,,,,left,1,0.6837578712870709,,,,,,,1067,2019_Mar_14_1358,mf_amp_cond1,3.0.4,60.003002095685574,
give,,&&&&,left,neutral,,,,,,,,,,,,,,,0,89,89,110,,,,,,,,,,,,,LDT,right,0.5003762053484024,,,,,,0,,,,,,,,,,,,,right,0,0.5003762053484024,,,,,,,1067,2019_Mar_14_1358,mf_amp_cond1,3.0.4,60.003002095685574,
chreams,,&&&&&&&,right,nonword,,,,,,,,,,,,,,,0,90,90,71,,,,,,,,,,,,,LDT,left,0.7837489552525767,,,,,,0,,,,,,,,,,,,,left,0,0.7837489552525767,,,,,,,1067,2019_Mar_14_1358,mf_amp_cond1,3.0.4,60.003002095685574,
everything,,&&&&&&&&&&,left,neutral,,,,,,,,,,,,,,,0,91,91,24,,,,,,,,,,,,,LDT,right,0.4836788457134844,,,,,,0,,,,,,,,,,,,,right,0,0.4836788457134844,,,,,,,1067,2019_Mar_14_1358,mf_amp_cond1,3.0.4,60.003002095685574,
fraud,,&&&&&,left,fairness.vice,,,,,,,,,,,,,,,0,92,92,90,,,,,,,,,,,,,LDT,right,0.6670585873280288,,,,,,0,,,,,,,,,,,,,right,0,0.6670585873280288,,,,,,,1067,2019_Mar_14_1358,mf_amp_cond1,3.0.4,60.003002095685574,
carvels,,&&&&&&&,None,nonword,,,,,,,,,,,,,,,0,93,93,50,,,,,,,,,,,,,LDT,left,0.6670726990378171,,,,,,0,,,,,,,,,,,,,left,0,0.6670726990378171,,,,,,,1067,2019_Mar_14_1358,mf_amp_cond1,3.0.4,60.003002095685574,
laming,,&&&&&&,right,nonword,,,,,,,,,,,,,,,0,94,94,31,,,,,,,,,,,,,LDT,right,0.7337376979567125,,,,,,1,,,,,,,,,,,,,right,1,0.7337376979567125,,,,,,,1067,2019_Mar_14_1358,mf_amp_cond1,3.0.4,60.003002095685574,
trust,,&&&&&,left,authority.virtue,,,,,,,,,,,,,,,0,95,95,192,,,,,,,,,,,,,LDT,right,0.6003563848109934,,,,,,0,,,,,,,,,,,,,right,0,0.6003563848109934,,,,,,,1067,2019_Mar_14_1358,mf_amp_cond1,3.0.4,60.003002095685574,
neputized,,&&&&&&&&&,right,nonword,,,,,,,,,,,,,,,0,96,96,85,,,,,,,,,,,,,LDT,right,1.150514532174384,,,,,,1,,,,,,,,,,,,,right,1,1.150514532174384,,,,,,,1067,2019_Mar_14_1358,mf_amp_cond1,3.0.4,60.003002095685574,
terrorists,,&&&&&&&&&&,left,fairness.vice,,,,,,,,,,,,,,,0,97,97,8,,,,,,,,,,,,,LDT,left,0.7337527718284491,,,,,,1,,,,,,,,,,,,,left,1,0.7337527718284491,,,,,,,1067,2019_Mar_14_1358,mf_amp_cond1,3.0.4,60.003002095685574,
credit,,&&&&&&,left,fairness.virtue,,,,,,,,,,,,,,,0,98,98,10,,,,,,,,,,,,,LDT,right,0.6337081275107721,,,,,,0,,,,,,,,,,,,,right,0,0.6337081275107721,,,,,,,1067,2019_Mar_14_1358,mf_amp_cond1,3.0.4,60.003002095685574,
ronviolence,,&&&&&&&&&&&,right,nonword,,,,,,,,,,,,,,,0,99,99,38,,,,,,,,,,,,,LDT,left,0.9671944446049565,,,,,,0,,,,,,,,,,,,,left,0,0.9671944446049565,,,,,,,1067,2019_Mar_14_1358,mf_amp_cond1,3.0.4,60.003002095685574,
neutralust,,&&&&&&&&&&,right,nonword,,,,,,,,,,,,,,,0,100,100,180,,,,,,,,,,,,,LDT,left,2.150756676281844,,,,,,0,,,,,,,,,,,,,left,0,2.150756676281844,,,,,,,1067,2019_Mar_14_1358,mf_amp_cond1,3.0.4,60.003002095685574,
victims,,&&&&&&&,left,care.vice,,,,,,,,,,,,,,,0,101,101,141,,,,,,,,,,,,,LDT,right,0.4836788457134844,,,,,,0,,,,,,,,,,,,,right,0,0.4836788457134844,,,,,,,1067,2019_Mar_14_1358,mf_amp_cond1,3.0.4,60.003002095685574,
safe,,&&&&,left,care.virtue,,,,,,,,,,,,,,,0,102,102,88,,,,,,,,,,,,,LDT,right,0.5503733509344784,,,,,,0,,,,,,,,,,,,,right,0,0.5503733509344784,,,,,,,1067,2019_Mar_14_1358,mf_amp_cond1,3.0.4,60.003002095685574,
else,,&&&&,left,neutral,,,,,,,,,,,,,,,0,103,103,150,,,,,,,,,,,,,LDT,right,0.6337478968741834,,,,,,0,,,,,,,,,,,,,right,0,0.6337478968741834,,,,,,,1067,2019_Mar_14_1358,mf_amp_cond1,3.0.4,60.003002095685574,
papert,,&&&&&&,right,nonword,,,,,,,,,,,,,,,0,104,104,168,,,,,,,,,,,,,LDT,left,0.8171006979523554,,,,,,0,,,,,,,,,,,,,left,0,0.8171006979523554,,,,,,,1067,2019_Mar_14_1358,mf_amp_cond1,3.0.4,60.003002095685574,
pullness,,&&&&&&&&,right,nonword,,,,,,,,,,,,,,,0,105,105,127,,,,,,,,,,,,,LDT,left,0.8004219401161663,,,,,,0,,,,,,,,,,,,,left,0,0.8004219401161663,,,,,,,1067,2019_Mar_14_1358,mf_amp_cond1,3.0.4,60.003002095685574,
amoungst,,&&&&&&&&,left,neutral,,,,,,,,,,,,,,,0,106,106,68,,,,,,,,,,,,,LDT,left,0.6337325022818732,,,,,,1,,,,,,,,,,,,,left,1,0.6337325022818732,,,,,,,1067,2019_Mar_14_1358,mf_amp_cond1,3.0.4,60.003002095685574,
