words,nonwords,mask,corr_ans,category,tweets,topic,AMP_pracloop.thisRepN,AMP_pracloop.thisTrialN,AMP_pracloop.thisN,AMP_pracloop.thisIndex,AMP_trials.thisRepN,AMP_trials.thisTrialN,AMP_trials.thisN,AMP_trials.thisIndex,LDT_pracloop.thisRepN,LDT_pracloop.thisTrialN,LDT_pracloop.thisN,LDT_pracloop.thisIndex,LDT_trials.thisRepN,LDT_trials.thisTrialN,LDT_trials.thisN,LDT_trials.thisIndex,tweet_loop.thisRepN,tweet_loop.thisTrialN,tweet_loop.thisN,tweet_loop.thisIndex,begin_key.keys,begin_key.rt,key_resp_AMP_instr1.keys,key_resp_AMP_instr1.rt,resp_AMP_ready1.keys,resp_AMP_ready1.rt,resp_AMP_prac.keys,resp_AMP_prac.rt,task,keypress,RT,resp_AMP_ready.keys,resp_AMP_ready.rt,resp_AMP.keys,resp_AMP.corr,resp_AMP.rt,corr,AMP_nonword_rating.response,AMP_nonword_rating.rt,AMP_word_rating.response,AMP_word_rating.rt,AMP_random_rating.response,AMP_random_rating.rt,key_resp_LDT_instr.keys,key_resp_LDT_instr.rt,resp_LDT_prac.keys,resp_LDT_prac.rt,resp_LDT_ready.keys,resp_LDT_ready.rt,resp_LDT.keys,resp_LDT.corr,resp_LDT.rt,LDT_rating.response,LDT_rating.rt,key_resp_LDT_instr_2.keys,key_resp_LDT_instr_2.rt,resp_tweets.keys,resp_tweets.rt,participant,date,expName,psychopyVersion,frameRate,
,,,,,,,,,,,,,,,,,,,,,,,,,,,right,558.176644707301,,,,,,,,,,,,,,,,,,,,,,,,,,,,,,,,,,,,,1069,2019_Mar_14_1402,mf_amp_cond1,3.0.4,60.034735994902476,
,,,,,,,,,,,,,,,,,,,,,,,,,,,,,right,1.2839499916608474,,,,,,,,,,,,,,,,,,,,,,,,,,,,,,,,,,,1069,2019_Mar_14_1402,mf_amp_cond1,3.0.4,60.034735994902476,
,,,,,,,,,,,,,,,,,,,,,,,,,,,,,,,right,1.884059681578492,,,,,,,,,,,,,,,,,,,,,,,,,,,,,,,,,1069,2019_Mar_14_1402,mf_amp_cond1,3.0.4,60.034735994902476,
keyboard,senk,&&&&,,,,,0,0,0,2,,,,,,,,,,,,,,,,,,,,,,,right,5.818599497094283,AMP_prac,right,5.818599497094283,,,,,,,,,,,,,,,,,,,,,,,,,,,,1069,2019_Mar_14_1402,mf_amp_cond1,3.0.4,60.034735994902476,
scarf,bisebell,&&&&&&&&,,,,,0,1,1,3,,,,,,,,,,,,,,,,,,,,,,,left,1.1005417142418992,AMP_prac,left,1.1005417142418992,,,,,,,,,,,,,,,,,,,,,,,,,,,,1069,2019_Mar_14_1402,mf_amp_cond1,3.0.4,60.034735994902476,
banana,kacket,&&&&&&,,,,,0,2,2,1,,,,,,,,,,,,,,,,,,,,,,,right,0.6170817991712738,AMP_prac,right,0.6170817991712738,,,,,,,,,,,,,,,,,,,,,,,,,,,,1069,2019_Mar_14_1402,mf_amp_cond1,3.0.4,60.034735994902476,
car,cemtuper,&&&&&&&&,,,,,0,3,3,0,,,,,,,,,,,,,,,,,,,,,,,right,0.7837864189768879,AMP_prac,right,0.7837864189768879,,,,,,,,,,,,,,,,,,,,,,,,,,,,1069,2019_Mar_14_1402,mf_amp_cond1,3.0.4,60.034735994902476,
,,,,,,,,,,,,,,,,,,,,,,,,,,,,,,,,,,,,,,right,0.6838579419347752,,,,,,,,,,,,,,,,,,,,,,,,,,1069,2019_Mar_14_1402,mf_amp_cond1,3.0.4,60.034735994902476,
help,menizen,&&&&&&&,left,care.virtue,,,,,,,0,0,0,0,,,,,,,,,,,,,,,,,,,,,AMP,right,0.683767495862412,,,right,0,0.683767495862412,0,,,,,,,,,,,,,,,,,,,,,,1069,2019_Mar_14_1402,mf_amp_cond1,3.0.4,60.034735994902476,
win,edancipation,&&&&&&&&&&&&,left,fairness.virtue,,,,,,,0,1,1,1,,,,,,,,,,,,,,,,,,,,,AMP,right,0.6336068097552925,,,right,0,0.6336068097552925,0,,,,,,,,,,,,,,,,,,,,,,1069,2019_Mar_14_1402,mf_amp_cond1,3.0.4,60.034735994902476,
party,nomaric,&&&&&&&,left,loyalty.virtue,,,,,,,0,2,2,2,,,,,,,,,,,,,,,,,,,,,AMP,right,0.38367223882892176,,,right,0,0.38367223882892176,0,,,,,,,,,,,,,,,,,,,,,,1069,2019_Mar_14_1402,mf_amp_cond1,3.0.4,60.034735994902476,
hope,lachelor,&&&&&&&&,left,loyalty.virtue,,,,,,,0,3,3,3,,,,,,,,,,,,,,,,,,,,,AMP,right,0.46703657613511496,,,right,0,0.46703657613511496,0,,,,,,,,,,,,,,,,,,,,,,1069,2019_Mar_14_1402,mf_amp_cond1,3.0.4,60.034735994902476,
praise,imebreaker,&&&&&&&&&&,left,authority.virtue,,,,,,,0,4,4,4,,,,,,,,,,,,,,,,,,,,,AMP,right,0.633756911747696,,,right,0,0.633756911747696,0,,,,,,,,,,,,,,,,,,,,,,1069,2019_Mar_14_1402,mf_amp_cond1,3.0.4,60.034735994902476,
sexual,gedious,&&&&&&&,right,sanctity.vice,,,,,,,0,5,5,5,,,,,,,,,,,,,,,,,,,,,AMP,right,0.633748572748118,,,right,1,0.633748572748118,1,,,,,,,,,,,,,,,,,,,,,,1069,2019_Mar_14_1402,mf_amp_cond1,3.0.4,60.034735994902476,
unpleasant,tomedians,&&&&&&&&&,None,control,,,,,,,0,6,6,6,,,,,,,,,,,,,,,,,,,,,AMP,right,0.800458644976743,,,right,0,0.800458644976743,0,,,,,,,,,,,,,,,,,,,,,,1069,2019_Mar_14_1402,mf_amp_cond1,3.0.4,60.034735994902476,
neneficence,suggists,&&&&&&&&,None,nonword,,,,,,,0,7,7,7,,,,,,,,,,,,,,,,,,,,,AMP,left,2.667645323104125,,,left,0,2.667645323104125,0,,,,,,,,,,,,,,,,,,,,,,1069,2019_Mar_14_1402,mf_amp_cond1,3.0.4,60.034735994902476,
killed,squets,&&&&&&,right,care.vice,,,,,,,0,8,8,8,,,,,,,,,,,,,,,,,,,,,AMP,left,0.4503694818272379,,,left,0,0.4503694818272379,0,,,,,,,,,,,,,,,,,,,,,,1069,2019_Mar_14_1402,mf_amp_cond1,3.0.4,60.034735994902476,
peaceful,chonograph,&&&&&&&&&&,left,authority.virtue,,,,,,,0,9,9,9,,,,,,,,,,,,,,,,,,,,,AMP,left,0.7004413255160671,,,left,1,0.7004413255160671,1,,,,,,,,,,,,,,,,,,,,,,1069,2019_Mar_14_1402,mf_amp_cond1,3.0.4,60.034735994902476,
threatened,fangsters,&&&&&&&&&,right,fairness.vice,,,,,,,0,10,10,10,,,,,,,,,,,,,,,,,,,,,AMP,left,0.48369180340478124,,,left,0,0.48369180340478124,0,,,,,,,,,,,,,,,,,,,,,,1069,2019_Mar_14_1402,mf_amp_cond1,3.0.4,60.034735994902476,
riot,atson,&&&&&,right,authority.vice,,,,,,,0,11,11,11,,,,,,,,,,,,,,,,,,,,,AMP,left,0.5337145752882861,,,left,0,0.5337145752882861,0,,,,,,,,,,,,,,,,,,,,,,1069,2019_Mar_14_1402,mf_amp_cond1,3.0.4,60.034735994902476,
improve,allears,&&&&&&&,left,care.virtue,,,,,,,0,12,12,12,,,,,,,,,,,,,,,,,,,,,AMP,right,0.4503547282129148,,,right,0,0.4503547282129148,0,,,,,,,,,,,,,,,,,,,,,,1069,2019_Mar_14_1402,mf_amp_cond1,3.0.4,60.034735994902476,
safe,thabbily,&&&&&&&&,left,care.virtue,,,,,,,0,13,13,13,,,,,,,,,,,,,,,,,,,,,AMP,left,2.200846087726177,,,left,1,2.200846087726177,1,,,,,,,,,,,,,,,,,,,,,,1069,2019_Mar_14_1402,mf_amp_cond1,3.0.4,60.034735994902476,
interests,cromiscuity,&&&&&&&&&&&,left,fairness.virtue,,,,,,,0,14,14,14,,,,,,,,,,,,,,,,,,,,,AMP,right,1.133879751626182,,,right,0,1.133879751626182,0,,,,,,,,,,,,,,,,,,,,,,1069,2019_Mar_14_1402,mf_amp_cond1,3.0.4,60.034735994902476,
Lacedonia,gusinesslike,&&&&&&&&&&&&,None,nonword,,,,,,,0,15,15,15,,,,,,,,,,,,,,,,,,,,,AMP,right,1.2505936726236087,,,right,0,1.2505936726236087,0,,,,,,,,,,,,,,,,,,,,,,1069,2019_Mar_14_1402,mf_amp_cond1,3.0.4,60.034735994902476,
shot,gournful,&&&&&&&&,right,care.vice,,,,,,,0,16,16,16,,,,,,,,,,,,,,,,,,,,,AMP,right,1.8174143969620218,,,right,1,1.8174143969620218,1,,,,,,,,,,,,,,,,,,,,,,1069,2019_Mar_14_1402,mf_amp_cond1,3.0.4,60.034735994902476,
betrayal,erks,&&&&,right,loyalty.vice,,,,,,,0,17,17,17,,,,,,,,,,,,,,,,,,,,,AMP,left,1.8007569245769446,,,left,0,1.8007569245769446,0,,,,,,,,,,,,,,,,,,,,,,1069,2019_Mar_14_1402,mf_amp_cond1,3.0.4,60.034735994902476,
papert,rivernoat,&&&&&&&&&,None,nonword,,,,,,,0,18,18,18,,,,,,,,,,,,,,,,,,,,,AMP,left,0.7671154759002548,,,left,0,0.7671154759002548,0,,,,,,,,,,,,,,,,,,,,,,1069,2019_Mar_14_1402,mf_amp_cond1,3.0.4,60.034735994902476,
safety,presentkess,&&&&&&&&&&&,left,care.virtue,,,,,,,0,19,19,19,,,,,,,,,,,,,,,,,,,,,AMP,right,1.35061612377649,,,right,0,1.35061612377649,0,,,,,,,,,,,,,,,,,,,,,,1069,2019_Mar_14_1402,mf_amp_cond1,3.0.4,60.034735994902476,
restore,laming,&&&&&&,left,care.virtue,,,,,,,0,20,20,20,,,,,,,,,,,,,,,,,,,,,AMP,left,1.4006421029673675,,,left,1,1.4006421029673675,1,,,,,,,,,,,,,,,,,,,,,,1069,2019_Mar_14_1402,mf_amp_cond1,3.0.4,60.034735994902476,
lies,taxpayung,&&&&&&&&&,right,fairness.vice,,,,,,,0,21,21,21,,,,,,,,,,,,,,,,,,,,,AMP,right,2.517617419528733,,,right,1,2.517617419528733,1,,,,,,,,,,,,,,,,,,,,,,1069,2019_Mar_14_1402,mf_amp_cond1,3.0.4,60.034735994902476,
promised,troubla,&&&&&&&,left,loyalty.virtue,,,,,,,0,22,22,22,,,,,,,,,,,,,,,,,,,,,AMP,left,1.8007517928849666,,,left,1,1.8007517928849666,1,,,,,,,,,,,,,,,,,,,,,,1069,2019_Mar_14_1402,mf_amp_cond1,3.0.4,60.034735994902476,
intelligence,hasks,&&&&&,left,loyalty.virtue,,,,,,,0,23,23,23,,,,,,,,,,,,,,,,,,,,,AMP,left,1.2505936726236087,,,left,1,1.2505936726236087,1,,,,,,,,,,,,,,,,,,,,,,1069,2019_Mar_14_1402,mf_amp_cond1,3.0.4,60.034735994902476,
trust,ecgagement,&&&&&&&&&&,left,authority.virtue,,,,,,,0,24,24,24,,,,,,,,,,,,,,,,,,,,,AMP,right,0.7837905884766769,,,right,0,0.7837905884766769,0,,,,,,,,,,,,,,,,,,,,,,1069,2019_Mar_14_1402,mf_amp_cond1,3.0.4,60.034735994902476,
torture,juck,&&&&,right,care.vice,,,,,,,0,25,25,25,,,,,,,,,,,,,,,,,,,,,AMP,left,2.300881047378425,,,left,0,2.300881047378425,0,,,,,,,,,,,,,,,,,,,,,,1069,2019_Mar_14_1402,mf_amp_cond1,3.0.4,60.034735994902476,
gun,baladroit,&&&&&&&&&,right,authority.vice,,,,,,,0,26,26,26,,,,,,,,,,,,,,,,,,,,,AMP,left,0.6671177210155292,,,left,0,0.6671177210155292,0,,,,,,,,,,,,,,,,,,,,,,1069,2019_Mar_14_1402,mf_amp_cond1,3.0.4,60.034735994902476,
blamed,galamitous,&&&&&&&&&&,right,loyalty.vice,,,,,,,0,27,27,27,,,,,,,,,,,,,,,,,,,,,AMP,right,2.284206255532581,,,right,1,2.284206255532581,1,,,,,,,,,,,,,,,,,,,,,,1069,2019_Mar_14_1402,mf_amp_cond1,3.0.4,60.034735994902476,
suicide,sidearbs,&&&&&&&&,right,care.vice,,,,,,,0,28,28,28,,,,,,,,,,,,,,,,,,,,,AMP,right,1.000500981436062,,,right,1,1.000500981436062,1,,,,,,,,,,,,,,,,,,,,,,1069,2019_Mar_14_1402,mf_amp_cond1,3.0.4,60.034735994902476,
ban,grovelire,&&&&&&&&&,right,loyalty.vice,,,,,,,0,29,29,29,,,,,,,,,,,,,,,,,,,,,AMP,right,0.9004640973994356,,,right,1,0.9004640973994356,1,,,,,,,,,,,,,,,,,,,,,,1069,2019_Mar_14_1402,mf_amp_cond1,3.0.4,60.034735994902476,
pleasant,ejanulated,&&&&&&&&&&,None,control,,,,,,,0,30,30,30,,,,,,,,,,,,,,,,,,,,,AMP,left,0.7504451742850051,,,left,0,0.7504451742850051,0,,,,,,,,,,,,,,,,,,,,,,1069,2019_Mar_14_1402,mf_amp_cond1,3.0.4,60.034735994902476,
ensure,scock,&&&&&,left,fairness.virtue,,,,,,,0,31,31,31,,,,,,,,,,,,,,,,,,,,,AMP,left,0.6837575532092615,,,left,1,0.6837575532092615,1,,,,,,,,,,,,,,,,,,,,,,1069,2019_Mar_14_1402,mf_amp_cond1,3.0.4,60.034735994902476,
agreement,disregord,&&&&&&&&&,left,fairness.virtue,,,,,,,0,32,32,32,,,,,,,,,,,,,,,,,,,,,AMP,left,0.7004480608618451,,,left,1,0.7004480608618451,1,,,,,,,,,,,,,,,,,,,,,,1069,2019_Mar_14_1402,mf_amp_cond1,3.0.4,60.034735994902476,
praised,Phintoism,&&&&&&&&&,left,loyalty.virtue,,,,,,,0,33,33,33,,,,,,,,,,,,,,,,,,,,,AMP,right,0.4837011045967756,,,right,0,0.4837011045967756,0,,,,,,,,,,,,,,,,,,,,,,1069,2019_Mar_14_1402,mf_amp_cond1,3.0.4,60.034735994902476,
protesters,honstables,&&&&&&&&&&,right,authority.vice,,,,,,,0,34,34,34,,,,,,,,,,,,,,,,,,,,,AMP,left,0.5670680077487305,,,left,0,0.5670680077487305,0,,,,,,,,,,,,,,,,,,,,,,1069,2019_Mar_14_1402,mf_amp_cond1,3.0.4,60.034735994902476,
encourage,esquisiteness,&&&&&&&&&&&&&,left,authority.virtue,,,,,,,0,35,35,35,,,,,,,,,,,,,,,,,,,,,AMP,right,0.9338287554364797,,,right,0,0.9338287554364797,0,,,,,,,,,,,,,,,,,,,,,,1069,2019_Mar_14_1402,mf_amp_cond1,3.0.4,60.034735994902476,
growth,mih,&&&,left,care.virtue,,,,,,,0,36,36,36,,,,,,,,,,,,,,,,,,,,,AMP,right,0.3503463892132004,,,right,0,0.3503463892132004,0,,,,,,,,,,,,,,,,,,,,,,1069,2019_Mar_14_1402,mf_amp_cond1,3.0.4,60.034735994902476,
war,elduringly,&&&&&&&&&&,right,sanctity.vice,,,,,,,0,37,37,37,,,,,,,,,,,,,,,,,,,,,AMP,right,0.5504092524408861,,,right,1,0.5504092524408861,1,,,,,,,,,,,,,,,,,,,,,,1069,2019_Mar_14_1402,mf_amp_cond1,3.0.4,60.034735994902476,
terrorist,ning,&&&&,right,loyalty.vice,,,,,,,0,38,38,38,,,,,,,,,,,,,,,,,,,,,AMP,left,0.4503624257508818,,,left,0,0.4503624257508818,0,,,,,,,,,,,,,,,,,,,,,,1069,2019_Mar_14_1402,mf_amp_cond1,3.0.4,60.034735994902476,
fair,chared,&&&&&&,left,fairness.virtue,,,,,,,0,39,39,39,,,,,,,,,,,,,,,,,,,,,AMP,right,0.7337870604385444,,,right,0,0.7337870604385444,0,,,,,,,,,,,,,,,,,,,,,,1069,2019_Mar_14_1402,mf_amp_cond1,3.0.4,60.034735994902476,
racist,chreams,&&&&&&&,right,sanctity.vice,,,,,,,0,40,40,40,,,,,,,,,,,,,,,,,,,,,AMP,left,0.5837315740182021,,,left,0,0.5837315740182021,0,,,,,,,,,,,,,,,,,,,,,,1069,2019_Mar_14_1402,mf_amp_cond1,3.0.4,60.034735994902476,
framo,baklara,&&&&&&&,None,nonword,,,,,,,0,41,41,41,,,,,,,,,,,,,,,,,,,,,AMP,right,1.2337723068237665,,,right,0,1.2337723068237665,0,,,,,,,,,,,,,,,,,,,,,,1069,2019_Mar_14_1402,mf_amp_cond1,3.0.4,60.034735994902476,
commitment,frojecting,&&&&&&&&&&,left,sanctity.virtue,,,,,,,0,42,42,42,,,,,,,,,,,,,,,,,,,,,AMP,left,0.6337386300947401,,,left,1,0.6337386300947401,1,,,,,,,,,,,,,,,,,,,,,,1069,2019_Mar_14_1402,mf_amp_cond1,3.0.4,60.034735994902476,
wonderfujnoss,dormandi,&&&&&&&&,None,nonword,,,,,,,0,43,43,43,,,,,,,,,,,,,,,,,,,,,AMP,left,1.0672081670879834,,,left,0,1.0672081670879834,0,,,,,,,,,,,,,,,,,,,,,,1069,2019_Mar_14_1402,mf_amp_cond1,3.0.4,60.034735994902476,
drug,mightingale,&&&&&&&&&&&,right,sanctity.vice,,,,,,,0,44,44,44,,,,,,,,,,,,,,,,,,,,,AMP,left,0.45038615982639385,,,left,0,0.45038615982639385,0,,,,,,,,,,,,,,,,,,,,,,1069,2019_Mar_14_1402,mf_amp_cond1,3.0.4,60.034735994902476,
crime,tislay,&&&&&&,right,fairness.vice,,,,,,,0,45,45,45,,,,,,,,,,,,,,,,,,,,,AMP,left,0.3670179737514445,,,left,0,0.3670179737514445,0,,,,,,,,,,,,,,,,,,,,,,1069,2019_Mar_14_1402,mf_amp_cond1,3.0.4,60.034735994902476,
dignity,mecan,&&&&&,left,sanctity.virtue,,,,,,,0,46,46,46,,,,,,,,,,,,,,,,,,,,,AMP,right,2.8510064531026273,,,right,0,2.8510064531026273,0,,,,,,,,,,,,,,,,,,,,,,1069,2019_Mar_14_1402,mf_amp_cond1,3.0.4,60.034735994902476,
freedom,lenon,&&&&&,left,sanctity.virtue,,,,,,,0,47,47,47,,,,,,,,,,,,,,,,,,,,,AMP,right,0.9338399810128521,,,right,0,0.9338399810128521,0,,,,,,,,,,,,,,,,,,,,,,1069,2019_Mar_14_1402,mf_amp_cond1,3.0.4,60.034735994902476,
progress,reprisols,&&&&&&&&&,left,authority.virtue,,,,,,,0,48,48,48,,,,,,,,,,,,,,,,,,,,,AMP,left,0.5170567821724035,,,left,1,0.5170567821724035,1,,,,,,,,,,,,,,,,,,,,,,1069,2019_Mar_14_1402,mf_amp_cond1,3.0.4,60.034735994902476,
faith,gikely,&&&&&&,left,sanctity.virtue,,,,,,,0,49,49,49,,,,,,,,,,,,,,,,,,,,,AMP,left,0.5337222728264805,,,left,1,0.5337222728264805,1,,,,,,,,,,,,,,,,,,,,,,1069,2019_Mar_14_1402,mf_amp_cond1,3.0.4,60.034735994902476,
rebels,rorroborated,&&&&&&&&&&&&,right,authority.vice,,,,,,,0,50,50,50,,,,,,,,,,,,,,,,,,,,,AMP,left,0.4337440825174781,,,left,0,0.4337440825174781,0,,,,,,,,,,,,,,,,,,,,,,1069,2019_Mar_14_1402,mf_amp_cond1,3.0.4,60.034735994902476,
rejected,infet,&&&&&,right,authority.vice,,,,,,,0,51,51,51,,,,,,,,,,,,,,,,,,,,,AMP,left,1.0338605077809007,,,left,0,1.0338605077809007,0,,,,,,,,,,,,,,,,,,,,,,1069,2019_Mar_14_1402,mf_amp_cond1,3.0.4,60.034735994902476,
serial,fonderland,&&&&&&&&&&,right,sanctity.vice,,,,,,,0,52,52,52,,,,,,,,,,,,,,,,,,,,,AMP,right,1.6673771921948628,,,right,1,1.6673771921948628,1,,,,,,,,,,,,,,,,,,,,,,1069,2019_Mar_14_1402,mf_amp_cond1,3.0.4,60.034735994902476,
men,gondensed,&&&&&&&&&,right,loyalty.vice,,,,,,,0,53,53,53,,,,,,,,,,,,,,,,,,,,,AMP,right,2.5509484008364325,,,right,1,2.5509484008364325,1,,,,,,,,,,,,,,,,,,,,,,1069,2019_Mar_14_1402,mf_amp_cond1,3.0.4,60.034735994902476,
illegal,ablow,&&&&&,right,fairness.vice,,,,,,,0,54,54,54,,,,,,,,,,,,,,,,,,,,,AMP,left,1.1672347877404263,,,left,0,1.1672347877404263,0,,,,,,,,,,,,,,,,,,,,,,1069,2019_Mar_14_1402,mf_amp_cond1,3.0.4,60.034735994902476,
respect,clamorek,&&&&&&&&,left,sanctity.virtue,,,,,,,0,55,55,55,,,,,,,,,,,,,,,,,,,,,AMP,left,0.5335907732178384,,,left,1,0.5335907732178384,1,,,,,,,,,,,,,,,,,,,,,,1069,2019_Mar_14_1402,mf_amp_cond1,3.0.4,60.034735994902476,
civilians,focomotive,&&&&&&&&&&,right,care.vice,,,,,,,0,56,56,56,,,,,,,,,,,,,,,,,,,,,AMP,left,1.0672225999717284,,,left,0,1.0672225999717284,0,,,,,,,,,,,,,,,,,,,,,,1069,2019_Mar_14_1402,mf_amp_cond1,3.0.4,60.034735994902476,
celebrated,framatic,&&&&&&&&,left,authority.virtue,,,,,,,0,57,57,57,,,,,,,,,,,,,,,,,,,,,AMP,right,3.868007748855007,,,right,0,3.868007748855007,0,,,,,,,,,,,,,,,,,,,,,,1069,2019_Mar_14_1402,mf_amp_cond1,3.0.4,60.034735994902476,
army,neputized,&&&&&&&&&,right,loyalty.vice,,,,,,,0,58,58,58,,,,,,,,,,,,,,,,,,,,,AMP,left,0.7004381182084671,,,left,0,0.7004381182084671,0,,,,,,,,,,,,,,,,,,,,,,1069,2019_Mar_14_1402,mf_amp_cond1,3.0.4,60.034735994902476,
refused,stindig,&&&&&&&,right,authority.vice,,,,,,,0,59,59,59,,,,,,,,,,,,,,,,,,,,,AMP,left,1.2005391483958192,,,left,0,1.2005391483958192,0,,,,,,,,,,,,,,,,,,,,,,1069,2019_Mar_14_1402,mf_amp_cond1,3.0.4,60.034735994902476,
embrace,sfumatoy,&&&&&&&&,left,authority.virtue,,,,,,,0,60,60,60,,,,,,,,,,,,,,,,,,,,,AMP,left,0.917166792820808,,,left,1,0.917166792820808,1,,,,,,,,,,,,,,,,,,,,,,1069,2019_Mar_14_1402,mf_amp_cond1,3.0.4,60.034735994902476,
loyalty,ugeasily,&&&&&&&&,left,loyalty.virtue,,,,,,,0,61,61,61,,,,,,,,,,,,,,,,,,,,,AMP,left,0.750300203984807,,,left,1,0.750300203984807,1,,,,,,,,,,,,,,,,,,,,,,1069,2019_Mar_14_1402,mf_amp_cond1,3.0.4,60.034735994902476,
prison,leact,&&&&&,right,fairness.vice,,,,,,,0,62,62,62,,,,,,,,,,,,,,,,,,,,,AMP,right,1.3506158030456845,,,right,1,1.3506158030456845,1,,,,,,,,,,,,,,,,,,,,,,1069,2019_Mar_14_1402,mf_amp_cond1,3.0.4,60.034735994902476,
discovars,perified,&&&&&&&&,None,nonword,,,,,,,0,63,63,63,,,,,,,,,,,,,,,,,,,,,AMP,right,0.6337514593249125,,,right,0,0.6337514593249125,0,,,,,,,,,,,,,,,,,,,,,,1069,2019_Mar_14_1402,mf_amp_cond1,3.0.4,60.034735994902476,
protect,scalbel,&&&&&&&,left,fairness.virtue,,,,,,,0,64,64,64,,,,,,,,,,,,,,,,,,,,,AMP,left,0.5337219520956751,,,left,1,0.5337219520956751,1,,,,,,,,,,,,,,,,,,,,,,1069,2019_Mar_14_1402,mf_amp_cond1,3.0.4,60.034735994902476,
slavery,gationwide,&&&&&&&&&&,right,loyalty.vice,,,,,,,0,65,65,65,,,,,,,,,,,,,,,,,,,,,AMP,left,0.850478209552648,,,left,0,0.850478209552648,0,,,,,,,,,,,,,,,,,,,,,,1069,2019_Mar_14_1402,mf_amp_cond1,3.0.4,60.034735994902476,
died,uller,&&&&&,right,care.vice,,,,,,,0,66,66,66,,,,,,,,,,,,,,,,,,,,,AMP,left,0.5835920561407875,,,left,0,0.5835920561407875,0,,,,,,,,,,,,,,,,,,,,,,1069,2019_Mar_14_1402,mf_amp_cond1,3.0.4,60.034735994902476,
gaultless,yane,&&&&,None,nonword,,,,,,,0,67,67,67,,,,,,,,,,,,,,,,,,,,,AMP,right,0.6670911003632227,,,right,0,0.6670911003632227,0,,,,,,,,,,,,,,,,,,,,,,1069,2019_Mar_14_1402,mf_amp_cond1,3.0.4,60.034735994902476,
love,hescribe,&&&&&&&&,left,loyalty.virtue,,,,,,,0,68,68,68,,,,,,,,,,,,,,,,,,,,,AMP,right,0.8671510770138866,,,right,0,0.8671510770138866,0,,,,,,,,,,,,,,,,,,,,,,1069,2019_Mar_14_1402,mf_amp_cond1,3.0.4,60.034735994902476,
violations,sgrawl,&&&&&&,right,sanctity.vice,,,,,,,0,69,69,69,,,,,,,,,,,,,,,,,,,,,AMP,left,3.0344156927142194,,,left,0,3.0344156927142194,0,,,,,,,,,,,,,,,,,,,,,,1069,2019_Mar_14_1402,mf_amp_cond1,3.0.4,60.034735994902476,
abuse,ittutable,&&&&&&&&&,right,sanctity.vice,,,,,,,0,70,70,70,,,,,,,,,,,,,,,,,,,,,AMP,left,1.01719116835784,,,left,0,1.01719116835784,0,,,,,,,,,,,,,,,,,,,,,,1069,2019_Mar_14_1402,mf_amp_cond1,3.0.4,60.034735994902476,
touls,crinking,&&&&&&&&,None,nonword,,,,,,,0,71,71,71,,,,,,,,,,,,,,,,,,,,,AMP,left,1.0672341462789063,,,left,0,1.0672341462789063,0,,,,,,,,,,,,,,,,,,,,,,1069,2019_Mar_14_1402,mf_amp_cond1,3.0.4,60.034735994902476,
fraud,pescinded,&&&&&&&&&,right,fairness.vice,,,,,,,0,72,72,72,,,,,,,,,,,,,,,,,,,,,AMP,left,1.183912786893643,,,left,0,1.183912786893643,0,,,,,,,,,,,,,,,,,,,,,,1069,2019_Mar_14_1402,mf_amp_cond1,3.0.4,60.034735994902476,
increase,fegard,&&&&&&,left,care.virtue,,,,,,,0,73,73,73,,,,,,,,,,,,,,,,,,,,,AMP,left,0.8504794924756425,,,left,1,0.8504794924756425,1,,,,,,,,,,,,,,,,,,,,,,1069,2019_Mar_14_1402,mf_amp_cond1,3.0.4,60.034735994902476,
benefit,fostet,&&&&&&,left,fairness.virtue,,,,,,,0,74,74,74,,,,,,,,,,,,,,,,,,,,,AMP,left,0.6671000808241843,,,left,1,0.6671000808241843,1,,,,,,,,,,,,,,,,,,,,,,1069,2019_Mar_14_1402,mf_amp_cond1,3.0.4,60.034735994902476,
values,idexpressible,&&&&&&&&&&&&&,left,sanctity.virtue,,,,,,,0,75,75,75,,,,,,,,,,,,,,,,,,,,,AMP,left,1.0838733370110276,,,left,1,1.0838733370110276,1,,,,,,,,,,,,,,,,,,,,,,1069,2019_Mar_14_1402,mf_amp_cond1,3.0.4,60.034735994902476,
arrests,tabin,&&&&&,right,authority.vice,,,,,,,0,76,76,76,,,,,,,,,,,,,,,,,,,,,AMP,right,0.9505125277432853,,,right,1,0.9505125277432853,1,,,,,,,,,,,,,,,,,,,,,,1069,2019_Mar_14_1402,mf_amp_cond1,3.0.4,60.034735994902476,
terrorists,carvels,&&&&&&&,right,fairness.vice,,,,,,,0,77,77,77,,,,,,,,,,,,,,,,,,,,,AMP,right,0.7837812872849099,,,right,1,0.7837812872849099,1,,,,,,,,,,,,,,,,,,,,,,1069,2019_Mar_14_1402,mf_amp_cond1,3.0.4,60.034735994902476,
energy,hefurbished,&&&&&&&&&&&,left,sanctity.virtue,,,,,,,0,78,78,78,,,,,,,,,,,,,,,,,,,,,AMP,left,0.8504936046288094,,,left,1,0.8504936046288094,1,,,,,,,,,,,,,,,,,,,,,,1069,2019_Mar_14_1402,mf_amp_cond1,3.0.4,60.034735994902476,
victim,brudent,&&&&&&&,right,care.vice,,,,,,,0,79,79,79,,,,,,,,,,,,,,,,,,,,,AMP,right,0.9838361322435958,,,right,1,0.9838361322435958,1,,,,,,,,,,,,,,,,,,,,,,1069,2019_Mar_14_1402,mf_amp_cond1,3.0.4,60.034735994902476,
asn,spag,&&&&,None,nonword,,,,,,,0,80,80,80,,,,,,,,,,,,,,,,,,,,,AMP,left,0.9671802635123186,,,left,0,0.9671802635123186,0,,,,,,,,,,,,,,,,,,,,,,1069,2019_Mar_14_1402,mf_amp_cond1,3.0.4,60.034735994902476,
dramens,seachwear,&&&&&&&&&,None,nonword,,,,,,,0,81,81,81,,,,,,,,,,,,,,,,,,,,,AMP,right,1.1839099003168485,,,right,0,1.1839099003168485,0,,,,,,,,,,,,,,,,,,,,,,1069,2019_Mar_14_1402,mf_amp_cond1,3.0.4,60.034735994902476,
betrayal,chreams,&&&&&&&,right,loyalty.vice,,,,,,,0,82,82,82,,,,,,,,,,,,,,,,,,,,,AMP,right,0.7671497940907557,,,right,1,0.7671497940907557,1,,,,,,,,,,,,,,,,,,,,,,1069,2019_Mar_14_1402,mf_amp_cond1,3.0.4,60.034735994902476,
rebels,gationwide,&&&&&&&&&&,right,authority.vice,,,,,,,0,83,83,83,,,,,,,,,,,,,,,,,,,,,AMP,right,1.1005622410100386,,,right,1,1.1005622410100386,1,,,,,,,,,,,,,,,,,,,,,,1069,2019_Mar_14_1402,mf_amp_cond1,3.0.4,60.034735994902476,
protect,baladroit,&&&&&&&&&,left,fairness.virtue,,,,,,,0,84,84,84,,,,,,,,,,,,,,,,,,,,,AMP,right,0.9505080375126909,,,right,0,0.9505080375126909,0,,,,,,,,,,,,,,,,,,,,,,1069,2019_Mar_14_1402,mf_amp_cond1,3.0.4,60.034735994902476,
fair,stindig,&&&&&&&,left,fairness.virtue,,,,,,,0,85,85,85,,,,,,,,,,,,,,,,,,,,,AMP,left,1.5340048366197152,,,left,1,1.5340048366197152,1,,,,,,,,,,,,,,,,,,,,,,1069,2019_Mar_14_1402,mf_amp_cond1,3.0.4,60.034735994902476,
rejected,suggists,&&&&&&&&,right,authority.vice,,,,,,,0,86,86,86,,,,,,,,,,,,,,,,,,,,,AMP,right,1.0838730162802221,,,right,1,1.0838730162802221,1,,,,,,,,,,,,,,,,,,,,,,1069,2019_Mar_14_1402,mf_amp_cond1,3.0.4,60.034735994902476,
protesters,lenon,&&&&&,right,authority.vice,,,,,,,0,87,87,87,,,,,,,,,,,,,,,,,,,,,AMP,right,1.183904447894065,,,right,1,1.183904447894065,1,,,,,,,,,,,,,,,,,,,,,,1069,2019_Mar_14_1402,mf_amp_cond1,3.0.4,60.034735994902476,
benefit,cromiscuity,&&&&&&&&&&&,left,fairness.virtue,,,,,,,0,88,88,88,,,,,,,,,,,,,,,,,,,,,AMP,right,6.652107201046874,,,right,0,6.652107201046874,0,,,,,,,,,,,,,,,,,,,,,,1069,2019_Mar_14_1402,mf_amp_cond1,3.0.4,60.034735994902476,
respect,gikely,&&&&&&,left,sanctity.virtue,,,,,,,0,89,89,89,,,,,,,,,,,,,,,,,,,,,AMP,left,1.6006947028108698,,,left,1,1.6006947028108698,1,,,,,,,,,,,,,,,,,,,,,,1069,2019_Mar_14_1402,mf_amp_cond1,3.0.4,60.034735994902476,
loyalty,allears,&&&&&&&,left,loyalty.virtue,,,,,,,0,90,90,90,,,,,,,,,,,,,,,,,,,,,AMP,right,1.150564486125404,,,right,0,1.150564486125404,0,,,,,,,,,,,,,,,,,,,,,,1069,2019_Mar_14_1402,mf_amp_cond1,3.0.4,60.034735994902476,
prison,ejanulated,&&&&&&&&&&,right,fairness.vice,,,,,,,0,91,91,91,,,,,,,,,,,,,,,,,,,,,AMP,left,1.067218751202745,,,left,0,1.067218751202745,0,,,,,,,,,,,,,,,,,,,,,,1069,2019_Mar_14_1402,mf_amp_cond1,3.0.4,60.034735994902476,
touls,gedious,&&&&&&&,None,nonword,,,,,,,0,92,92,92,,,,,,,,,,,,,,,,,,,,,AMP,right,0.8004666632455155,,,right,0,0.8004666632455155,0,,,,,,,,,,,,,,,,,,,,,,1069,2019_Mar_14_1402,mf_amp_cond1,3.0.4,60.034735994902476,
win,esquisiteness,&&&&&&&&&&&&&,left,fairness.virtue,,,,,,,0,93,93,93,,,,,,,,,,,,,,,,,,,,,AMP,right,0.683748893478878,,,right,0,0.683748893478878,0,,,,,,,,,,,,,,,,,,,,,,1069,2019_Mar_14_1402,mf_amp_cond1,3.0.4,60.034735994902476,
sexual,crinking,&&&&&&&&,right,sanctity.vice,,,,,,,0,94,94,94,,,,,,,,,,,,,,,,,,,,,AMP,right,1.3672848217379396,,,right,1,1.3672848217379396,1,,,,,,,,,,,,,,,,,,,,,,1069,2019_Mar_14_1402,mf_amp_cond1,3.0.4,60.034735994902476,
army,ugeasily,&&&&&&&&,right,loyalty.vice,,,,,,,0,95,95,95,,,,,,,,,,,,,,,,,,,,,AMP,left,0.567056782172358,,,left,0,0.567056782172358,0,,,,,,,,,,,,,,,,,,,,,,1069,2019_Mar_14_1402,mf_amp_cond1,3.0.4,60.034735994902476,
agreement,squets,&&&&&&,left,fairness.virtue,,,,,,,0,96,96,96,,,,,,,,,,,,,,,,,,,,,AMP,right,0.5836975765585066,,,right,0,0.5836975765585066,0,,,,,,,,,,,,,,,,,,,,,,1069,2019_Mar_14_1402,mf_amp_cond1,3.0.4,60.034735994902476,
men,menizen,&&&&&&&,right,loyalty.vice,,,,,,,0,97,97,97,,,,,,,,,,,,,,,,,,,,,AMP,left,1.3006007287001466,,,left,0,1.3006007287001466,0,,,,,,,,,,,,,,,,,,,,,,1069,2019_Mar_14_1402,mf_amp_cond1,3.0.4,60.034735994902476,
refused,idexpressible,&&&&&&&&&&&&&,right,authority.vice,,,,,,,0,98,98,98,,,,,,,,,,,,,,,,,,,,,AMP,right,0.7171270222074781,,,right,1,0.7171270222074781,1,,,,,,,,,,,,,,,,,,,,,,1069,2019_Mar_14_1402,mf_amp_cond1,3.0.4,60.034735994902476,
illegal,hefurbished,&&&&&&&&&&&,right,fairness.vice,,,,,,,0,99,99,99,,,,,,,,,,,,,,,,,,,,,AMP,left,1.917446790768281,,,left,0,1.917446790768281,0,,,,,,,,,,,,,,,,,,,,,,1069,2019_Mar_14_1402,mf_amp_cond1,3.0.4,60.034735994902476,
trust,dormandi,&&&&&&&&,left,authority.virtue,,,,,,,0,100,100,100,,,,,,,,,,,,,,,,,,,,,AMP,right,0.7004467779388506,,,right,0,0.7004467779388506,0,,,,,,,,,,,,,,,,,,,,,,1069,2019_Mar_14_1402,mf_amp_cond1,3.0.4,60.034735994902476,
growth,juck,&&&&,left,care.virtue,,,,,,,0,101,101,101,,,,,,,,,,,,,,,,,,,,,AMP,left,2.0841526934968897,,,left,1,2.0841526934968897,1,,,,,,,,,,,,,,,,,,,,,,1069,2019_Mar_14_1402,mf_amp_cond1,3.0.4,60.034735994902476,
party,clamorek,&&&&&&&&,left,loyalty.virtue,,,,,,,0,102,102,102,,,,,,,,,,,,,,,,,,,,,AMP,right,0.8004855863600824,,,right,0,0.8004855863600824,0,,,,,,,,,,,,,,,,,,,,,,1069,2019_Mar_14_1402,mf_amp_cond1,3.0.4,60.034735994902476,
encourage,taxpayung,&&&&&&&&&,left,authority.virtue,,,,,,,0,103,103,103,,,,,,,,,,,,,,,,,,,,,AMP,right,1.5840173451190367,,,right,0,1.5840173451190367,0,,,,,,,,,,,,,,,,,,,,,,1069,2019_Mar_14_1402,mf_amp_cond1,3.0.4,60.034735994902476,
torture,neputized,&&&&&&&&&,right,care.vice,,,,,,,0,104,104,104,,,,,,,,,,,,,,,,,,,,,AMP,left,1.3006065018537356,,,left,0,1.3006065018537356,0,,,,,,,,,,,,,,,,,,,,,,1069,2019_Mar_14_1402,mf_amp_cond1,3.0.4,60.034735994902476,
dignity,ablow,&&&&&,left,sanctity.virtue,,,,,,,0,105,105,105,,,,,,,,,,,,,,,,,,,,,AMP,right,0.9838419053971847,,,right,0,0.9838419053971847,0,,,,,,,,,,,,,,,,,,,,,,1069,2019_Mar_14_1402,mf_amp_cond1,3.0.4,60.034735994902476,
papert,mecan,&&&&&,None,nonword,,,,,,,0,106,106,106,,,,,,,,,,,,,,,,,,,,,AMP,right,1.2339118247014085,,,right,0,1.2339118247014085,0,,,,,,,,,,,,,,,,,,,,,,1069,2019_Mar_14_1402,mf_amp_cond1,3.0.4,60.034735994902476,
violations,rivernoat,&&&&&&&&&,right,sanctity.vice,,,,,,,0,107,107,107,,,,,,,,,,,,,,,,,,,,,AMP,right,1.567346081311598,,,right,1,1.567346081311598,1,,,,,,,,,,,,,,,,,,,,,,1069,2019_Mar_14_1402,mf_amp_cond1,3.0.4,60.034735994902476,
Lacedonia,framatic,&&&&&&&&,None,nonword,,,,,,,0,108,108,108,,,,,,,,,,,,,,,,,,,,,AMP,right,0.8171157966312421,,,right,0,0.8171157966312421,0,,,,,,,,,,,,,,,,,,,,,,1069,2019_Mar_14_1402,mf_amp_cond1,3.0.4,60.034735994902476,
gun,elduringly,&&&&&&&&&&,right,authority.vice,,,,,,,0,109,109,109,,,,,,,,,,,,,,,,,,,,,AMP,left,0.9171558879752411,,,left,0,0.9171558879752411,0,,,,,,,,,,,,,,,,,,,,,,1069,2019_Mar_14_1402,mf_amp_cond1,3.0.4,60.034735994902476,
freedom,fostet,&&&&&&,left,sanctity.virtue,,,,,,,0,110,110,110,,,,,,,,,,,,,,,,,,,,,AMP,left,0.5003791037499923,,,left,1,0.5003791037499923,1,,,,,,,,,,,,,,,,,,,,,,1069,2019_Mar_14_1402,mf_amp_cond1,3.0.4,60.034735994902476,
pleasant,ittutable,&&&&&&&&&,None,control,,,,,,,0,111,111,111,,,,,,,,,,,,,,,,,,,,,AMP,left,0.6171250978229637,,,left,0,0.6171250978229637,0,,,,,,,,,,,,,,,,,,,,,,1069,2019_Mar_14_1402,mf_amp_cond1,3.0.4,60.034735994902476,
safe,presentkess,&&&&&&&&&&&,left,care.virtue,,,,,,,0,112,112,112,,,,,,,,,,,,,,,,,,,,,AMP,right,0.4003479928667275,,,right,0,0.4003479928667275,0,,,,,,,,,,,,,,,,,,,,,,1069,2019_Mar_14_1402,mf_amp_cond1,3.0.4,60.034735994902476,
interests,reprisols,&&&&&&&&&,left,fairness.virtue,,,,,,,0,113,113,113,,,,,,,,,,,,,,,,,,,,,AMP,right,1.0672068841647615,,,right,0,1.0672068841647615,0,,,,,,,,,,,,,,,,,,,,,,1069,2019_Mar_14_1402,mf_amp_cond1,3.0.4,60.034735994902476,
serial,erks,&&&&,right,sanctity.vice,,,,,,,0,114,114,114,,,,,,,,,,,,,,,,,,,,,AMP,right,1.5340202316958766,,,right,1,1.5340202316958766,1,,,,,,,,,,,,,,,,,,,,,,1069,2019_Mar_14_1402,mf_amp_cond1,3.0.4,60.034735994902476,
drug,pescinded,&&&&&&&&&,right,sanctity.vice,,,,,,,0,115,115,115,,,,,,,,,,,,,,,,,,,,,AMP,right,1.467319139928577,,,right,1,1.467319139928577,1,,,,,,,,,,,,,,,,,,,,,,1069,2019_Mar_14_1402,mf_amp_cond1,3.0.4,60.034735994902476,
safety,hasks,&&&&&,left,care.virtue,,,,,,,0,116,116,116,,,,,,,,,,,,,,,,,,,,,AMP,right,0.8838335663976977,,,right,0,0.8838335663976977,0,,,,,,,,,,,,,,,,,,,,,,1069,2019_Mar_14_1402,mf_amp_cond1,3.0.4,60.034735994902476,
commitment,fangsters,&&&&&&&&&,left,sanctity.virtue,,,,,,,0,117,117,117,,,,,,,,,,,,,,,,,,,,,AMP,left,0.9338342078592632,,,left,1,0.9338342078592632,1,,,,,,,,,,,,,,,,,,,,,,1069,2019_Mar_14_1402,mf_amp_cond1,3.0.4,60.034735994902476,
restore,chared,&&&&&&,left,care.virtue,,,,,,,0,118,118,118,,,,,,,,,,,,,,,,,,,,,AMP,right,1.3172793693152016,,,right,0,1.3172793693152016,0,,,,,,,,,,,,,,,,,,,,,,1069,2019_Mar_14_1402,mf_amp_cond1,3.0.4,60.034735994902476,
promised,focomotive,&&&&&&&&&&,left,loyalty.virtue,,,,,,,0,119,119,119,,,,,,,,,,,,,,,,,,,,,AMP,right,2.0174788638435075,,,right,0,2.0174788638435075,0,,,,,,,,,,,,,,,,,,,,,,1069,2019_Mar_14_1402,mf_amp_cond1,3.0.4,60.034735994902476,
faith,tabin,&&&&&,left,sanctity.virtue,,,,,,,0,120,120,120,,,,,,,,,,,,,,,,,,,,,AMP,left,1.1172094500109324,,,left,1,1.1172094500109324,1,,,,,,,,,,,,,,,,,,,,,,1069,2019_Mar_14_1402,mf_amp_cond1,3.0.4,60.034735994902476,
ban,troubla,&&&&&&&,right,loyalty.vice,,,,,,,0,121,121,121,,,,,,,,,,,,,,,,,,,,,AMP,left,2.0674801467664565,,,left,0,2.0674801467664565,0,,,,,,,,,,,,,,,,,,,,,,1069,2019_Mar_14_1402,mf_amp_cond1,3.0.4,60.034735994902476,
framo,gondensed,&&&&&&&&&,None,nonword,,,,,,,0,122,122,122,,,,,,,,,,,,,,,,,,,,,AMP,right,1.233915673470392,,,right,0,1.233915673470392,0,,,,,,,,,,,,,,,,,,,,,,1069,2019_Mar_14_1402,mf_amp_cond1,3.0.4,60.034735994902476,
threatened,mih,&&&,right,fairness.vice,,,,,,,0,123,123,123,,,,,,,,,,,,,,,,,,,,,AMP,right,1.067212015856967,,,right,1,1.067212015856967,1,,,,,,,,,,,,,,,,,,,,,,1069,2019_Mar_14_1402,mf_amp_cond1,3.0.4,60.034735994902476,
racist,sidearbs,&&&&&&&&,right,sanctity.vice,,,,,,,0,124,124,124,,,,,,,,,,,,,,,,,,,,,AMP,right,1.4006202932762335,,,right,1,1.4006202932762335,1,,,,,,,,,,,,,,,,,,,,,,1069,2019_Mar_14_1402,mf_amp_cond1,3.0.4,60.034735994902476,
gaultless,frojecting,&&&&&&&&&&,None,nonword,,,,,,,0,125,125,125,,,,,,,,,,,,,,,,,,,,,AMP,left,2.534283230913161,,,left,0,2.534283230913161,0,,,,,,,,,,,,,,,,,,,,,,1069,2019_Mar_14_1402,mf_amp_cond1,3.0.4,60.034735994902476,
energy,imebreaker,&&&&&&&&&&,left,sanctity.virtue,,,,,,,0,126,126,126,,,,,,,,,,,,,,,,,,,,,AMP,left,0.6337408752099236,,,left,1,0.6337408752099236,1,,,,,,,,,,,,,,,,,,,,,,1069,2019_Mar_14_1402,mf_amp_cond1,3.0.4,60.034735994902476,
lies,ning,&&&&,right,fairness.vice,,,,,,,0,127,127,127,,,,,,,,,,,,,,,,,,,,,AMP,right,2.6009721349121264,,,right,1,2.6009721349121264,1,,,,,,,,,,,,,,,,,,,,,,1069,2019_Mar_14_1402,mf_amp_cond1,3.0.4,60.034735994902476,
asn,tomedians,&&&&&&&&&,None,nonword,,,,,,,0,128,128,128,,,,,,,,,,,,,,,,,,,,,AMP,left,0.6670875723248173,,,left,0,0.6670875723248173,0,,,,,,,,,,,,,,,,,,,,,,1069,2019_Mar_14_1402,mf_amp_cond1,3.0.4,60.034735994902476,
celebrated,hescribe,&&&&&&&&,left,authority.virtue,,,,,,,0,129,129,129,,,,,,,,,,,,,,,,,,,,,AMP,left,0.6670811577096174,,,left,1,0.6670811577096174,1,,,,,,,,,,,,,,,,,,,,,,1069,2019_Mar_14_1402,mf_amp_cond1,3.0.4,60.034735994902476,
war,ecgagement,&&&&&&&&&&,right,sanctity.vice,,,,,,,0,130,130,130,,,,,,,,,,,,,,,,,,,,,AMP,right,0.9838534517043627,,,right,1,0.9838534517043627,1,,,,,,,,,,,,,,,,,,,,,,1069,2019_Mar_14_1402,mf_amp_cond1,3.0.4,60.034735994902476,
hope,gournful,&&&&&&&&,left,loyalty.virtue,,,,,,,0,131,131,131,,,,,,,,,,,,,,,,,,,,,AMP,left,1.6840208731573512,,,left,1,1.6840208731573512,1,,,,,,,,,,,,,,,,,,,,,,1069,2019_Mar_14_1402,mf_amp_cond1,3.0.4,60.034735994902476,
peaceful,laming,&&&&&&,left,authority.virtue,,,,,,,0,132,132,132,,,,,,,,,,,,,,,,,,,,,AMP,left,0.6671016844779842,,,left,1,0.6671016844779842,1,,,,,,,,,,,,,,,,,,,,,,1069,2019_Mar_14_1402,mf_amp_cond1,3.0.4,60.034735994902476,
arrests,gusinesslike,&&&&&&&&&&&&,right,authority.vice,,,,,,,0,133,133,133,,,,,,,,,,,,,,,,,,,,,AMP,right,1.684039796271918,,,right,1,1.684039796271918,1,,,,,,,,,,,,,,,,,,,,,,1069,2019_Mar_14_1402,mf_amp_cond1,3.0.4,60.034735994902476,
wonderfujnoss,mightingale,&&&&&&&&&&&,None,nonword,,,,,,,0,134,134,134,,,,,,,,,,,,,,,,,,,,,AMP,left,1.1672341462788154,,,left,0,1.1672341462788154,0,,,,,,,,,,,,,,,,,,,,,,1069,2019_Mar_14_1402,mf_amp_cond1,3.0.4,60.034735994902476,
embrace,scalbel,&&&&&&&,left,authority.virtue,,,,,,,0,135,135,135,,,,,,,,,,,,,,,,,,,,,AMP,left,0.6504147048635787,,,left,1,0.6504147048635787,1,,,,,,,,,,,,,,,,,,,,,,1069,2019_Mar_14_1402,mf_amp_cond1,3.0.4,60.034735994902476,
help,infet,&&&&&,left,care.virtue,,,,,,,0,136,136,136,,,,,,,,,,,,,,,,,,,,,AMP,left,0.683715216749988,,,left,1,0.683715216749988,1,,,,,,,,,,,,,,,,,,,,,,1069,2019_Mar_14_1402,mf_amp_cond1,3.0.4,60.034735994902476,
terrorist,chonograph,&&&&&&&&&&,right,loyalty.vice,,,,,,,0,137,137,137,,,,,,,,,,,,,,,,,,,,,AMP,right,1.1171770562048096,,,right,1,1.1171770562048096,1,,,,,,,,,,,,,,,,,,,,,,1069,2019_Mar_14_1402,mf_amp_cond1,3.0.4,60.034735994902476,
increase,perified,&&&&&&&&,left,care.virtue,,,,,,,0,138,138,138,,,,,,,,,,,,,,,,,,,,,AMP,right,0.7171016844779388,,,right,0,0.7171016844779388,0,,,,,,,,,,,,,,,,,,,,,,1069,2019_Mar_14_1402,mf_amp_cond1,3.0.4,60.034735994902476,
praised,seachwear,&&&&&&&&&,left,loyalty.virtue,,,,,,,0,139,139,139,,,,,,,,,,,,,,,,,,,,,AMP,right,1.1005474873954881,,,right,0,1.1005474873954881,0,,,,,,,,,,,,,,,,,,,,,,1069,2019_Mar_14_1402,mf_amp_cond1,3.0.4,60.034735994902476,
suicide,leact,&&&&&,right,care.vice,,,,,,,0,140,140,140,,,,,,,,,,,,,,,,,,,,,AMP,right,1.0505837299701852,,,right,1,1.0505837299701852,1,,,,,,,,,,,,,,,,,,,,,,1069,2019_Mar_14_1402,mf_amp_cond1,3.0.4,60.034735994902476,
blamed,nomaric,&&&&&&&,right,loyalty.vice,,,,,,,0,141,141,141,,,,,,,,,,,,,,,,,,,,,AMP,right,0.8671526806676866,,,right,1,0.8671526806676866,1,,,,,,,,,,,,,,,,,,,,,,1069,2019_Mar_14_1402,mf_amp_cond1,3.0.4,60.034735994902476,
ensure,Phintoism,&&&&&&&&&,left,fairness.virtue,,,,,,,0,142,142,142,,,,,,,,,,,,,,,,,,,,,AMP,right,1.1338726955495986,,,right,0,1.1338726955495986,0,,,,,,,,,,,,,,,,,,,,,,1069,2019_Mar_14_1402,mf_amp_cond1,3.0.4,60.034735994902476,
unpleasant,rorroborated,&&&&&&&&&&&&,None,control,,,,,,,0,143,143,143,,,,,,,,,,,,,,,,,,,,,AMP,left,1.033880072356851,,,left,0,1.033880072356851,0,,,,,,,,,,,,,,,,,,,,,,1069,2019_Mar_14_1402,mf_amp_cond1,3.0.4,60.034735994902476,
shot,edancipation,&&&&&&&&&&&&,right,care.vice,,,,,,,0,144,144,144,,,,,,,,,,,,,,,,,,,,,AMP,left,1.2004304206705,,,left,0,1.2004304206705,0,,,,,,,,,,,,,,,,,,,,,,1069,2019_Mar_14_1402,mf_amp_cond1,3.0.4,60.034735994902476,
civilians,spag,&&&&,right,care.vice,,,,,,,0,145,145,145,,,,,,,,,,,,,,,,,,,,,AMP,left,1.8174179250004272,,,left,0,1.8174179250004272,0,,,,,,,,,,,,,,,,,,,,,,1069,2019_Mar_14_1402,mf_amp_cond1,3.0.4,60.034735994902476,
discovars,lachelor,&&&&&&&&,None,nonword,,,,,,,0,146,146,146,,,,,,,,,,,,,,,,,,,,,AMP,left,0.750463455937961,,,left,0,0.750463455937961,0,,,,,,,,,,,,,,,,,,,,,,1069,2019_Mar_14_1402,mf_amp_cond1,3.0.4,60.034735994902476,
victim,carvels,&&&&&&&,right,care.vice,,,,,,,0,147,147,147,,,,,,,,,,,,,,,,,,,,,AMP,left,3.351171629440387,,,left,0,3.351171629440387,0,,,,,,,,,,,,,,,,,,,,,,1069,2019_Mar_14_1402,mf_amp_cond1,3.0.4,60.034735994902476,
improve,fegard,&&&&&&,left,care.virtue,,,,,,,0,148,148,148,,,,,,,,,,,,,,,,,,,,,AMP,left,0.7837880226309153,,,left,1,0.7837880226309153,1,,,,,,,,,,,,,,,,,,,,,,1069,2019_Mar_14_1402,mf_amp_cond1,3.0.4,60.034735994902476,
fraud,scock,&&&&&,right,fairness.vice,,,,,,,0,149,149,149,,,,,,,,,,,,,,,,,,,,,AMP,right,1.067200469549789,,,right,1,1.067200469549789,1,,,,,,,,,,,,,,,,,,,,,,1069,2019_Mar_14_1402,mf_amp_cond1,3.0.4,60.034735994902476,
praise,disregord,&&&&&&&&&,left,authority.virtue,,,,,,,0,150,150,150,,,,,,,,,,,,,,,,,,,,,AMP,left,0.85047307786067,,,left,1,0.85047307786067,1,,,,,,,,,,,,,,,,,,,,,,1069,2019_Mar_14_1402,mf_amp_cond1,3.0.4,60.034735994902476,
dramens,tislay,&&&&&&,None,nonword,,,,,,,0,151,151,151,,,,,,,,,,,,,,,,,,,,,AMP,left,0.6337934750536078,,,left,0,0.6337934750536078,0,,,,,,,,,,,,,,,,,,,,,,1069,2019_Mar_14_1402,mf_amp_cond1,3.0.4,60.034735994902476,
riot,sgrawl,&&&&&&,right,authority.vice,,,,,,,0,152,152,152,,,,,,,,,,,,,,,,,,,,,AMP,left,0.8671571708980537,,,left,0,0.8671571708980537,0,,,,,,,,,,,,,,,,,,,,,,1069,2019_Mar_14_1402,mf_amp_cond1,3.0.4,60.034735994902476,
love,sfumatoy,&&&&&&&&,left,loyalty.virtue,,,,,,,0,153,153,153,,,,,,,,,,,,,,,,,,,,,AMP,left,1.0505362618189338,,,left,1,1.0505362618189338,1,,,,,,,,,,,,,,,,,,,,,,1069,2019_Mar_14_1402,mf_amp_cond1,3.0.4,60.034735994902476,
values,fonderland,&&&&&&&&&&,left,sanctity.virtue,,,,,,,0,154,154,154,,,,,,,,,,,,,,,,,,,,,AMP,left,1.4006344054294004,,,left,1,1.4006344054294004,1,,,,,,,,,,,,,,,,,,,,,,1069,2019_Mar_14_1402,mf_amp_cond1,3.0.4,60.034735994902476,
slavery,honstables,&&&&&&&&&&,right,loyalty.vice,,,,,,,0,155,155,155,,,,,,,,,,,,,,,,,,,,,AMP,right,0.5670737809023194,,,right,1,0.5670737809023194,1,,,,,,,,,,,,,,,,,,,,,,1069,2019_Mar_14_1402,mf_amp_cond1,3.0.4,60.034735994902476,
killed,baklara,&&&&&&&,right,care.vice,,,,,,,0,156,156,156,,,,,,,,,,,,,,,,,,,,,AMP,left,0.7504461364771942,,,left,0,0.7504461364771942,0,,,,,,,,,,,,,,,,,,,,,,1069,2019_Mar_14_1402,mf_amp_cond1,3.0.4,60.034735994902476,
intelligence,brudent,&&&&&&&,left,loyalty.virtue,,,,,,,0,157,157,157,,,,,,,,,,,,,,,,,,,,,AMP,right,1.0338601870500952,,,right,0,1.0338601870500952,0,,,,,,,,,,,,,,,,,,,,,,1069,2019_Mar_14_1402,mf_amp_cond1,3.0.4,60.034735994902476,
abuse,yane,&&&&,right,sanctity.vice,,,,,,,0,158,158,158,,,,,,,,,,,,,,,,,,,,,AMP,right,1.1005365825496938,,,right,1,1.1005365825496938,1,,,,,,,,,,,,,,,,,,,,,,1069,2019_Mar_14_1402,mf_amp_cond1,3.0.4,60.034735994902476,
died,thabbily,&&&&&&&&,right,care.vice,,,,,,,0,159,159,159,,,,,,,,,,,,,,,,,,,,,AMP,left,0.6171674342822371,,,left,0,0.6171674342822371,0,,,,,,,,,,,,,,,,,,,,,,1069,2019_Mar_14_1402,mf_amp_cond1,3.0.4,60.034735994902476,
neneficence,galamitous,&&&&&&&&&&,None,nonword,,,,,,,0,160,160,160,,,,,,,,,,,,,,,,,,,,,AMP,right,0.6503996305179953,,,right,0,0.6503996305179953,0,,,,,,,,,,,,,,,,,,,,,,1069,2019_Mar_14_1402,mf_amp_cond1,3.0.4,60.034735994902476,
terrorists,uller,&&&&&,right,fairness.vice,,,,,,,0,161,161,161,,,,,,,,,,,,,,,,,,,,,AMP,left,0.7837912299382879,,,left,0,0.7837912299382879,0,,,,,,,,,,,,,,,,,,,,,,1069,2019_Mar_14_1402,mf_amp_cond1,3.0.4,60.034735994902476,
crime,grovelire,&&&&&&&&&,right,fairness.vice,,,,,,,0,162,162,162,,,,,,,,,,,,,,,,,,,,,AMP,left,0.6504236853247676,,,left,0,0.6504236853247676,0,,,,,,,,,,,,,,,,,,,,,,1069,2019_Mar_14_1402,mf_amp_cond1,3.0.4,60.034735994902476,
progress,atson,&&&&&,left,authority.virtue,,,,,,,0,163,163,163,,,,,,,,,,,,,,,,,,,,,AMP,right,0.7504358730932381,,,right,0,0.7504358730932381,0,,,,,,,,,,,,,,,,,,,,,,1069,2019_Mar_14_1402,mf_amp_cond1,3.0.4,60.034735994902476,
ensure,ejanulated,&&&&&&&&&&,left,fairness.virtue,,,,,,,0,164,164,164,,,,,,,,,,,,,,,,,,,,,AMP,right,0.16696505317713672,,,right,0,0.16696505317713672,0,,,,,,,,,,,,,,,,,,,,,,1069,2019_Mar_14_1402,mf_amp_cond1,3.0.4,60.034735994902476,
respect,carvels,&&&&&&&,left,sanctity.virtue,,,,,,,0,165,165,165,,,,,,,,,,,,,,,,,,,,,AMP,right,2.0174734114204966,,,right,0,2.0174734114204966,0,,,,,,,,,,,,,,,,,,,,,,1069,2019_Mar_14_1402,mf_amp_cond1,3.0.4,60.034735994902476,
terrorists,fegard,&&&&&&,right,fairness.vice,,,,,,,0,166,166,166,,,,,,,,,,,,,,,,,,,,,AMP,right,2.0341559008043077,,,right,1,2.0341559008043077,1,,,,,,,,,,,,,,,,,,,,,,1069,2019_Mar_14_1402,mf_amp_cond1,3.0.4,60.034735994902476,
dramens,idexpressible,&&&&&&&&&&&&&,None,nonword,,,,,,,0,167,167,167,,,,,,,,,,,,,,,,,,,,,AMP,left,0.9004887936675914,,,left,0,0.9004887936675914,0,,,,,,,,,,,,,,,,,,,,,,1069,2019_Mar_14_1402,mf_amp_cond1,3.0.4,60.034735994902476,
war,presentkess,&&&&&&&&&&&,right,sanctity.vice,,,,,,,0,168,168,168,,,,,,,,,,,,,,,,,,,,,AMP,left,2.00079380861348,,,left,0,2.00079380861348,0,,,,,,,,,,,,,,,,,,,,,,1069,2019_Mar_14_1402,mf_amp_cond1,3.0.4,60.034735994902476,
violations,imebreaker,&&&&&&&&&&,right,sanctity.vice,,,,,,,0,169,169,169,,,,,,,,,,,,,,,,,,,,,AMP,left,0.5003768586348087,,,left,0,0.5003768586348087,0,,,,,,,,,,,,,,,,,,,,,,1069,2019_Mar_14_1402,mf_amp_cond1,3.0.4,60.034735994902476,
interests,laming,&&&&&&,left,fairness.virtue,,,,,,,0,170,170,170,,,,,,,,,,,,,,,,,,,,,AMP,left,1.0337213106340641,,,left,1,1.0337213106340641,1,,,,,,,,,,,,,,,,,,,,,,1069,2019_Mar_14_1402,mf_amp_cond1,3.0.4,60.034735994902476,
growth,sgrawl,&&&&&&,left,care.virtue,,,,,,,0,171,171,171,,,,,,,,,,,,,,,,,,,,,AMP,left,1.3339541611608183,,,left,1,1.3339541611608183,1,,,,,,,,,,,,,,,,,,,,,,1069,2019_Mar_14_1402,mf_amp_cond1,3.0.4,60.034735994902476,
embrace,thabbily,&&&&&&&&,left,authority.virtue,,,,,,,0,172,172,172,,,,,,,,,,,,,,,,,,,,,AMP,left,1.0671950171270055,,,left,1,1.0671950171270055,1,,,,,,,,,,,,,,,,,,,,,,1069,2019_Mar_14_1402,mf_amp_cond1,3.0.4,60.034735994902476,
gaultless,neputized,&&&&&&&&&,None,nonword,,,,,,,0,173,173,173,,,,,,,,,,,,,,,,,,,,,AMP,left,1.1338742992031712,,,left,0,1.1338742992031712,0,,,,,,,,,,,,,,,,,,,,,,1069,2019_Mar_14_1402,mf_amp_cond1,3.0.4,60.034735994902476,
neneficence,seachwear,&&&&&&&&&,None,nonword,,,,,,,0,174,174,174,,,,,,,,,,,,,,,,,,,,,AMP,right,0.6337597983244905,,,right,0,0.6337597983244905,0,,,,,,,,,,,,,,,,,,,,,,1069,2019_Mar_14_1402,mf_amp_cond1,3.0.4,60.034735994902476,
abuse,rorroborated,&&&&&&&&&&&&,right,sanctity.vice,,,,,,,0,175,175,175,,,,,,,,,,,,,,,,,,,,,AMP,right,1.9674576956138026,,,right,1,1.9674576956138026,1,,,,,,,,,,,,,,,,,,,,,,1069,2019_Mar_14_1402,mf_amp_cond1,3.0.4,60.034735994902476,
peaceful,hescribe,&&&&&&&&,left,authority.virtue,,,,,,,0,176,176,176,,,,,,,,,,,,,,,,,,,,,AMP,right,1.4173002168140556,,,right,0,1.4173002168140556,0,,,,,,,,,,,,,,,,,,,,,,1069,2019_Mar_14_1402,mf_amp_cond1,3.0.4,60.034735994902476,
illegal,ablow,&&&&&,right,fairness.vice,,,,,,,0,177,177,177,,,,,,,,,,,,,,,,,,,,,AMP,left,1.9507829037679585,,,left,0,1.9507829037679585,0,,,,,,,,,,,,,,,,,,,,,,1069,2019_Mar_14_1402,mf_amp_cond1,3.0.4,60.034735994902476,
pleasant,esquisiteness,&&&&&&&&&&&&&,None,control,,,,,,,0,178,178,178,,,,,,,,,,,,,,,,,,,,,AMP,left,1.5340051573505207,,,left,0,1.5340051573505207,0,,,,,,,,,,,,,,,,,,,,,,1069,2019_Mar_14_1402,mf_amp_cond1,3.0.4,60.034735994902476,
slavery,rivernoat,&&&&&&&&&,right,loyalty.vice,,,,,,,0,179,179,179,,,,,,,,,,,,,,,,,,,,,AMP,left,2.0674843162662455,,,left,0,2.0674843162662455,0,,,,,,,,,,,,,,,,,,,,,,1069,2019_Mar_14_1402,mf_amp_cond1,3.0.4,60.034735994902476,
rebels,baklara,&&&&&&&,right,authority.vice,,,,,,,0,180,180,180,,,,,,,,,,,,,,,,,,,,,AMP,left,0.7504563998613776,,,left,0,0.7504563998613776,0,,,,,,,,,,,,,,,,,,,,,,1069,2019_Mar_14_1402,mf_amp_cond1,3.0.4,60.034735994902476,
progress,nomaric,&&&&&&&,left,authority.virtue,,,,,,,0,181,181,181,,,,,,,,,,,,,,,,,,,,,AMP,right,0.4336985387506047,,,right,0,0.4336985387506047,0,,,,,,,,,,,,,,,,,,,,,,1069,2019_Mar_14_1402,mf_amp_cond1,3.0.4,60.034735994902476,
blamed,scock,&&&&&,right,loyalty.vice,,,,,,,0,182,182,182,,,,,,,,,,,,,,,,,,,,,AMP,right,0.6504175914401458,,,right,1,0.6504175914401458,1,,,,,,,,,,,,,,,,,,,,,,1069,2019_Mar_14_1402,mf_amp_cond1,3.0.4,60.034735994902476,
agreement,scalbel,&&&&&&&,left,fairness.virtue,,,,,,,0,183,183,183,,,,,,,,,,,,,,,,,,,,,AMP,left,0.73377936290035,,,left,1,0.73377936290035,1,,,,,,,,,,,,,,,,,,,,,,1069,2019_Mar_14_1402,mf_amp_cond1,3.0.4,60.034735994902476,
unpleasant,tabin,&&&&&,None,control,,,,,,,0,184,184,184,,,,,,,,,,,,,,,,,,,,,AMP,left,0.9505038680129019,,,left,0,0.9505038680129019,0,,,,,,,,,,,,,,,,,,,,,,1069,2019_Mar_14_1402,mf_amp_cond1,3.0.4,60.034735994902476,
promised,lachelor,&&&&&&&&,left,loyalty.virtue,,,,,,,0,185,185,185,,,,,,,,,,,,,,,,,,,,,AMP,left,0.46704587732688196,,,left,1,0.46704587732688196,1,,,,,,,,,,,,,,,,,,,,,,1069,2019_Mar_14_1402,mf_amp_cond1,3.0.4,60.034735994902476,
killed,gusinesslike,&&&&&&&&&&&&,right,care.vice,,,,,,,0,186,186,186,,,,,,,,,,,,,,,,,,,,,AMP,right,1.0005240740501904,,,right,1,1.0005240740501904,1,,,,,,,,,,,,,,,,,,,,,,1069,2019_Mar_14_1402,mf_amp_cond1,3.0.4,60.034735994902476,
improve,infet,&&&&&,left,care.virtue,,,,,,,0,187,187,187,,,,,,,,,,,,,,,,,,,,,AMP,right,1.2005622410099477,,,right,0,1.2005622410099477,0,,,,,,,,,,,,,,,,,,,,,,1069,2019_Mar_14_1402,mf_amp_cond1,3.0.4,60.034735994902476,
dignity,edancipation,&&&&&&&&&&&&,left,sanctity.virtue,,,,,,,0,188,188,188,,,,,,,,,,,,,,,,,,,,,AMP,right,1.0005224703966178,,,right,0,1.0005224703966178,0,,,,,,,,,,,,,,,,,,,,,,1069,2019_Mar_14_1402,mf_amp_cond1,3.0.4,60.034735994902476,
values,frojecting,&&&&&&&&&&,left,sanctity.virtue,,,,,,,0,189,189,189,,,,,,,,,,,,,,,,,,,,,AMP,left,0.5503932159031137,,,left,1,0.5503932159031137,1,,,,,,,,,,,,,,,,,,,,,,1069,2019_Mar_14_1402,mf_amp_cond1,3.0.4,60.034735994902476,
crime,cromiscuity,&&&&&&&&&&&,right,fairness.vice,,,,,,,0,190,190,190,,,,,,,,,,,,,,,,,,,,,AMP,right,2.7177004887935254,,,right,1,2.7177004887935254,1,,,,,,,,,,,,,,,,,,,,,,1069,2019_Mar_14_1402,mf_amp_cond1,3.0.4,60.034735994902476,
sexual,elduringly,&&&&&&&&&&,right,sanctity.vice,,,,,,,0,191,191,191,,,,,,,,,,,,,,,,,,,,,AMP,right,1.1172354292018554,,,right,1,1.1172354292018554,1,,,,,,,,,,,,,,,,,,,,,,1069,2019_Mar_14_1402,mf_amp_cond1,3.0.4,60.034735994902476,
discovars,juck,&&&&,None,nonword,,,,,,,0,192,192,192,,,,,,,,,,,,,,,,,,,,,AMP,left,0.6004073280562352,,,left,0,0.6004073280562352,0,,,,,,,,,,,,,,,,,,,,,,1069,2019_Mar_14_1402,mf_amp_cond1,3.0.4,60.034735994902476,
betrayal,troubla,&&&&&&&,right,loyalty.vice,,,,,,,0,193,193,193,,,,,,,,,,,,,,,,,,,,,AMP,left,1.5673454398502145,,,left,0,1.5673454398502145,0,,,,,,,,,,,,,,,,,,,,,,1069,2019_Mar_14_1402,mf_amp_cond1,3.0.4,60.034735994902476,
men,Phintoism,&&&&&&&&&,right,loyalty.vice,,,,,,,0,194,194,194,,,,,,,,,,,,,,,,,,,,,AMP,right,0.8838611492424207,,,right,1,0.8838611492424207,1,,,,,,,,,,,,,,,,,,,,,,1069,2019_Mar_14_1402,mf_amp_cond1,3.0.4,60.034735994902476,
touls,allears,&&&&&&&,None,nonword,,,,,,,0,195,195,195,,,,,,,,,,,,,,,,,,,,,AMP,right,1.617350250811569,,,right,0,1.617350250811569,0,,,,,,,,,,,,,,,,,,,,,,1069,2019_Mar_14_1402,mf_amp_cond1,3.0.4,60.034735994902476,
praise,gikely,&&&&&&,left,authority.virtue,,,,,,,0,196,196,196,,,,,,,,,,,,,,,,,,,,,AMP,right,1.8674217737693652,,,right,0,1.8674217737693652,0,,,,,,,,,,,,,,,,,,,,,,1069,2019_Mar_14_1402,mf_amp_cond1,3.0.4,60.034735994902476,
prison,lenon,&&&&&,right,fairness.vice,,,,,,,0,197,197,197,,,,,,,,,,,,,,,,,,,,,AMP,right,0.6003938573646792,,,right,1,0.6003938573646792,1,,,,,,,,,,,,,,,,,,,,,,1069,2019_Mar_14_1402,mf_amp_cond1,3.0.4,60.034735994902476,
loyalty,gondensed,&&&&&&&&&,left,loyalty.virtue,,,,,,,0,198,198,198,,,,,,,,,,,,,,,,,,,,,AMP,right,0.5837241972110405,,,right,0,0.5837241972110405,0,,,,,,,,,,,,,,,,,,,,,,1069,2019_Mar_14_1402,mf_amp_cond1,3.0.4,60.034735994902476,
protect,mih,&&&,left,fairness.virtue,,,,,,,0,199,199,199,,,,,,,,,,,,,,,,,,,,,AMP,right,0.46704074563467657,,,right,0,0.46704074563467657,0,,,,,,,,,,,,,,,,,,,,,,1069,2019_Mar_14_1402,mf_amp_cond1,3.0.4,60.034735994902476,
help,menizen,&&&&&&&,left,care.virtue,,,,,,,0,200,200,200,,,,,,,,,,,,,,,,,,,,,AMP,right,0.533738630094831,,,right,0,0.533738630094831,0,,,,,,,,,,,,,,,,,,,,,,1069,2019_Mar_14_1402,mf_amp_cond1,3.0.4,60.034735994902476,
riot,dormandi,&&&&&&&&,right,authority.vice,,,,,,,0,201,201,201,,,,,,,,,,,,,,,,,,,,,AMP,right,0.9004766058988025,,,right,1,0.9004766058988025,1,,,,,,,,,,,,,,,,,,,,,,1069,2019_Mar_14_1402,mf_amp_cond1,3.0.4,60.034735994902476,
serial,gationwide,&&&&&&&&&&,right,sanctity.vice,,,,,,,0,202,202,202,,,,,,,,,,,,,,,,,,,,,AMP,right,0.5504172707096586,,,right,1,0.5504172707096586,1,,,,,,,,,,,,,,,,,,,,,,1069,2019_Mar_14_1402,mf_amp_cond1,3.0.4,60.034735994902476,
papert,ecgagement,&&&&&&&&&&,None,nonword,,,,,,,0,203,203,203,,,,,,,,,,,,,,,,,,,,,AMP,right,0.46703304809670954,,,right,0,0.46703304809670954,0,,,,,,,,,,,,,,,,,,,,,,1069,2019_Mar_14_1402,mf_amp_cond1,3.0.4,60.034735994902476,
suicide,baladroit,&&&&&&&&&,right,care.vice,,,,,,,0,204,204,204,,,,,,,,,,,,,,,,,,,,,AMP,right,1.1005381862034938,,,right,1,1.1005381862034938,1,,,,,,,,,,,,,,,,,,,,,,1069,2019_Mar_14_1402,mf_amp_cond1,3.0.4,60.034735994902476,
Lacedonia,brudent,&&&&&&&,None,nonword,,,,,,,0,205,205,205,,,,,,,,,,,,,,,,,,,,,AMP,right,0.6504204780171676,,,right,0,0.6504204780171676,0,,,,,,,,,,,,,,,,,,,,,,1069,2019_Mar_14_1402,mf_amp_cond1,3.0.4,60.034735994902476,
party,clamorek,&&&&&&&&,left,loyalty.virtue,,,,,,,0,206,206,206,,,,,,,,,,,,,,,,,,,,,AMP,left,0.5503842354419248,,,left,1,0.5503842354419248,1,,,,,,,,,,,,,,,,,,,,,,1069,2019_Mar_14_1402,mf_amp_cond1,3.0.4,60.034735994902476,
asn,focomotive,&&&&&&&&&&,None,nonword,,,,,,,0,207,207,207,,,,,,,,,,,,,,,,,,,,,AMP,left,1.1338893735487545,,,left,0,1.1338893735487545,0,,,,,,,,,,,,,,,,,,,,,,1069,2019_Mar_14_1402,mf_amp_cond1,3.0.4,60.034735994902476,
threatened,pescinded,&&&&&&&&&,right,fairness.vice,,,,,,,0,208,208,208,,,,,,,,,,,,,,,,,,,,,AMP,left,0.4503614635586928,,,left,0,0.4503614635586928,0,,,,,,,,,,,,,,,,,,,,,,1069,2019_Mar_14_1402,mf_amp_cond1,3.0.4,60.034735994902476,
lies,reprisols,&&&&&&&&&,right,fairness.vice,,,,,,,0,209,209,209,,,,,,,,,,,,,,,,,,,,,AMP,right,1.2339301063543644,,,right,1,1.2339301063543644,1,,,,,,,,,,,,,,,,,,,,,,1069,2019_Mar_14_1402,mf_amp_cond1,3.0.4,60.034735994902476,
trust,stindig,&&&&&&&,left,authority.virtue,,,,,,,0,210,210,210,,,,,,,,,,,,,,,,,,,,,AMP,right,0.917199507357509,,,right,0,0.917199507357509,0,,,,,,,,,,,,,,,,,,,,,,1069,2019_Mar_14_1402,mf_amp_cond1,3.0.4,60.034735994902476,
freedom,yane,&&&&,left,sanctity.virtue,,,,,,,0,211,211,211,,,,,,,,,,,,,,,,,,,,,AMP,right,0.45037493425024877,,,right,0,0.45037493425024877,0,,,,,,,,,,,,,,,,,,,,,,1069,2019_Mar_14_1402,mf_amp_cond1,3.0.4,60.034735994902476,
racist,chonograph,&&&&&&&&&&,right,sanctity.vice,,,,,,,0,212,212,212,,,,,,,,,,,,,,,,,,,,,AMP,right,0.6670907796324173,,,right,1,0.6670907796324173,1,,,,,,,,,,,,,,,,,,,,,,1069,2019_Mar_14_1402,mf_amp_cond1,3.0.4,60.034735994902476,
increase,honstables,&&&&&&&&&&,left,care.virtue,,,,,,,0,213,213,213,,,,,,,,,,,,,,,,,,,,,AMP,left,0.9004932838979585,,,left,1,0.9004932838979585,1,,,,,,,,,,,,,,,,,,,,,,1069,2019_Mar_14_1402,mf_amp_cond1,3.0.4,60.034735994902476,
fraud,disregord,&&&&&&&&&,right,fairness.vice,,,,,,,0,214,214,214,,,,,,,,,,,,,,,,,,,,,AMP,left,0.38368186075149424,,,left,0,0.38368186075149424,0,,,,,,,,,,,,,,,,,,,,,,1069,2019_Mar_14_1402,mf_amp_cond1,3.0.4,60.034735994902476,
safe,suggists,&&&&&&&&,left,care.virtue,,,,,,,0,215,215,215,,,,,,,,,,,,,,,,,,,,,AMP,right,0.5503855183651467,,,right,0,0.5503855183651467,0,,,,,,,,,,,,,,,,,,,,,,1069,2019_Mar_14_1402,mf_amp_cond1,3.0.4,60.034735994902476,
fair,sidearbs,&&&&&&&&,left,fairness.virtue,,,,,,,0,216,216,216,,,,,,,,,,,,,,,,,,,,,AMP,right,0.9505596751637313,,,right,0,0.9505596751637313,0,,,,,,,,,,,,,,,,,,,,,,1069,2019_Mar_14_1402,mf_amp_cond1,3.0.4,60.034735994902476,
army,spag,&&&&,right,loyalty.vice,,,,,,,0,217,217,217,,,,,,,,,,,,,,,,,,,,,AMP,right,0.7504403633238326,,,right,1,0.7504403633238326,1,,,,,,,,,,,,,,,,,,,,,,1069,2019_Mar_14_1402,mf_amp_cond1,3.0.4,60.034735994902476,
faith,leact,&&&&&,left,sanctity.virtue,,,,,,,0,218,218,218,,,,,,,,,,,,,,,,,,,,,AMP,right,0.5337363849796475,,,right,0,0.5337363849796475,0,,,,,,,,,,,,,,,,,,,,,,1069,2019_Mar_14_1402,mf_amp_cond1,3.0.4,60.034735994902476,
love,chreams,&&&&&&&,left,loyalty.virtue,,,,,,,0,219,219,219,,,,,,,,,,,,,,,,,,,,,AMP,right,0.8504772473602316,,,right,0,0.8504772473602316,0,,,,,,,,,,,,,,,,,,,,,,1069,2019_Mar_14_1402,mf_amp_cond1,3.0.4,60.034735994902476,
encourage,tomedians,&&&&&&&&&,left,authority.virtue,,,,,,,0,220,220,220,,,,,,,,,,,,,,,,,,,,,AMP,left,0.7836501084068459,,,left,1,0.7836501084068459,1,,,,,,,,,,,,,,,,,,,,,,1069,2019_Mar_14_1402,mf_amp_cond1,3.0.4,60.034735994902476,
praised,fonderland,&&&&&&&&&&,left,loyalty.virtue,,,,,,,0,221,221,221,,,,,,,,,,,,,,,,,,,,,AMP,right,2.1008290889963064,,,right,0,2.1008290889963064,0,,,,,,,,,,,,,,,,,,,,,,1069,2019_Mar_14_1402,mf_amp_cond1,3.0.4,60.034735994902476,
drug,hasks,&&&&&,right,sanctity.vice,,,,,,,0,222,222,222,,,,,,,,,,,,,,,,,,,,,AMP,left,0.6170308029816169,,,left,0,0.6170308029816169,0,,,,,,,,,,,,,,,,,,,,,,1069,2019_Mar_14_1402,mf_amp_cond1,3.0.4,60.034735994902476,
arrests,mightingale,&&&&&&&&&&&,right,authority.vice,,,,,,,0,223,223,223,,,,,,,,,,,,,,,,,,,,,AMP,right,1.4339769330442778,,,right,1,1.4339769330442778,1,,,,,,,,,,,,,,,,,,,,,,1069,2019_Mar_14_1402,mf_amp_cond1,3.0.4,60.034735994902476,
restore,ning,&&&&,left,care.virtue,,,,,,,0,224,224,224,,,,,,,,,,,,,,,,,,,,,AMP,right,0.6337764763236464,,,right,0,0.6337764763236464,0,,,,,,,,,,,,,,,,,,,,,,1069,2019_Mar_14_1402,mf_amp_cond1,3.0.4,60.034735994902476,
benefit,framatic,&&&&&&&&,left,fairness.virtue,,,,,,,0,225,225,225,,,,,,,,,,,,,,,,,,,,,AMP,left,0.5502540187562772,,,left,1,0.5502540187562772,1,,,,,,,,,,,,,,,,,,,,,,1069,2019_Mar_14_1402,mf_amp_cond1,3.0.4,60.034735994902476,
energy,erks,&&&&,left,sanctity.virtue,,,,,,,0,226,226,226,,,,,,,,,,,,,,,,,,,,,AMP,left,0.6004092524406133,,,left,1,0.6004092524406133,1,,,,,,,,,,,,,,,,,,,,,,1069,2019_Mar_14_1402,mf_amp_cond1,3.0.4,60.034735994902476,
died,crinking,&&&&&&&&,right,care.vice,,,,,,,0,227,227,227,,,,,,,,,,,,,,,,,,,,,AMP,right,1.3672479377012223,,,right,1,1.3672479377012223,1,,,,,,,,,,,,,,,,,,,,,,1069,2019_Mar_14_1402,mf_amp_cond1,3.0.4,60.034735994902476,
win,grovelire,&&&&&&&&&,left,fairness.virtue,,,,,,,0,228,228,228,,,,,,,,,,,,,,,,,,,,,AMP,right,0.6003983475950463,,,right,0,0.6003983475950463,0,,,,,,,,,,,,,,,,,,,,,,1069,2019_Mar_14_1402,mf_amp_cond1,3.0.4,60.034735994902476,
intelligence,hefurbished,&&&&&&&&&&&,left,loyalty.virtue,,,,,,,0,229,229,229,,,,,,,,,,,,,,,,,,,,,AMP,left,1.333949029468613,,,left,1,1.333949029468613,1,,,,,,,,,,,,,,,,,,,,,,1069,2019_Mar_14_1402,mf_amp_cond1,3.0.4,60.034735994902476,
safety,gedious,&&&&&&&,left,care.virtue,,,,,,,0,230,230,230,,,,,,,,,,,,,,,,,,,,,AMP,right,0.6504124597483951,,,right,0,0.6504124597483951,0,,,,,,,,,,,,,,,,,,,,,,1069,2019_Mar_14_1402,mf_amp_cond1,3.0.4,60.034735994902476,
victim,sfumatoy,&&&&&&&&,right,care.vice,,,,,,,0,231,231,231,,,,,,,,,,,,,,,,,,,,,AMP,left,0.7838047006298439,,,left,0,0.7838047006298439,0,,,,,,,,,,,,,,,,,,,,,,1069,2019_Mar_14_1402,mf_amp_cond1,3.0.4,60.034735994902476,
celebrated,uller,&&&&&,left,authority.virtue,,,,,,,0,232,232,232,,,,,,,,,,,,,,,,,,,,,AMP,left,0.5170407456348585,,,left,1,0.5170407456348585,1,,,,,,,,,,,,,,,,,,,,,,1069,2019_Mar_14_1402,mf_amp_cond1,3.0.4,60.034735994902476,
civilians,squets,&&&&&&,right,care.vice,,,,,,,0,233,233,233,,,,,,,,,,,,,,,,,,,,,AMP,left,0.6837437617869,,,left,0,0.6837437617869,0,,,,,,,,,,,,,,,,,,,,,,1069,2019_Mar_14_1402,mf_amp_cond1,3.0.4,60.034735994902476,
refused,tislay,&&&&&&,right,authority.vice,,,,,,,0,234,234,234,,,,,,,,,,,,,,,,,,,,,AMP,right,0.750456720592183,,,right,1,0.750456720592183,1,,,,,,,,,,,,,,,,,,,,,,1069,2019_Mar_14_1402,mf_amp_cond1,3.0.4,60.034735994902476,
ban,perified,&&&&&&&&,right,loyalty.vice,,,,,,,0,235,235,235,,,,,,,,,,,,,,,,,,,,,AMP,left,0.5837351020566075,,,left,0,0.5837351020566075,0,,,,,,,,,,,,,,,,,,,,,,1069,2019_Mar_14_1402,mf_amp_cond1,3.0.4,60.034735994902476,
wonderfujnoss,ittutable,&&&&&&&&&,None,nonword,,,,,,,0,236,236,236,,,,,,,,,,,,,,,,,,,,,AMP,left,1.517385851924928,,,left,0,1.517385851924928,0,,,,,,,,,,,,,,,,,,,,,,1069,2019_Mar_14_1402,mf_amp_cond1,3.0.4,60.034735994902476,
rejected,atson,&&&&&,right,authority.vice,,,,,,,0,237,237,237,,,,,,,,,,,,,,,,,,,,,AMP,left,3.284482404710843,,,left,0,3.284482404710843,0,,,,,,,,,,,,,,,,,,,,,,1069,2019_Mar_14_1402,mf_amp_cond1,3.0.4,60.034735994902476,
hope,gournful,&&&&&&&&,left,loyalty.virtue,,,,,,,0,238,238,238,,,,,,,,,,,,,,,,,,,,,AMP,left,1.0171946963962455,,,left,1,1.0171946963962455,1,,,,,,,,,,,,,,,,,,,,,,1069,2019_Mar_14_1402,mf_amp_cond1,3.0.4,60.034735994902476,
shot,galamitous,&&&&&&&&&&,right,care.vice,,,,,,,0,239,239,239,,,,,,,,,,,,,,,,,,,,,AMP,left,0.5003733305964033,,,left,0,0.5003733305964033,0,,,,,,,,,,,,,,,,,,,,,,1069,2019_Mar_14_1402,mf_amp_cond1,3.0.4,60.034735994902476,
gun,mecan,&&&&&,right,authority.vice,,,,,,,0,240,240,240,,,,,,,,,,,,,,,,,,,,,AMP,right,1.2005789190091036,,,right,1,1.2005789190091036,1,,,,,,,,,,,,,,,,,,,,,,1069,2019_Mar_14_1402,mf_amp_cond1,3.0.4,60.034735994902476,
framo,taxpayung,&&&&&&&&&,None,nonword,,,,,,,0,241,241,241,,,,,,,,,,,,,,,,,,,,,AMP,left,0.6170712150565123,,,left,0,0.6170712150565123,0,,,,,,,,,,,,,,,,,,,,,,1069,2019_Mar_14_1402,mf_amp_cond1,3.0.4,60.034735994902476,
terrorist,fostet,&&&&&&,right,loyalty.vice,,,,,,,0,242,242,242,,,,,,,,,,,,,,,,,,,,,AMP,left,1.6840404377333016,,,left,0,1.6840404377333016,0,,,,,,,,,,,,,,,,,,,,,,1069,2019_Mar_14_1402,mf_amp_cond1,3.0.4,60.034735994902476,
commitment,chared,&&&&&&,left,sanctity.virtue,,,,,,,0,243,243,243,,,,,,,,,,,,,,,,,,,,,AMP,right,0.5837444032483745,,,right,0,0.5837444032483745,0,,,,,,,,,,,,,,,,,,,,,,1069,2019_Mar_14_1402,mf_amp_cond1,3.0.4,60.034735994902476,
protesters,ugeasily,&&&&&&&&,right,authority.vice,,,,,,,0,244,244,244,,,,,,,,,,,,,,,,,,,,,AMP,left,0.7171032881315114,,,left,0,0.7171032881315114,0,,,,,,,,,,,,,,,,,,,,,,1069,2019_Mar_14_1402,mf_amp_cond1,3.0.4,60.034735994902476,
torture,fangsters,&&&&&&&&&,right,care.vice,,,,,,,0,245,245,245,,,,,,,,,,,,,,,,,,,,,AMP,right,1.0671606989365046,,,right,1,1.0671606989365046,1,,,,,,,,,,,,,,,,,,,,,,1069,2019_Mar_14_1402,mf_amp_cond1,3.0.4,60.034735994902476,
protect,hescribe,&&&&&&&&,left,fairness.virtue,,,,,,,0,246,246,246,,,,,,,,,,,,,,,,,,,,,AMP,left,1.0672149024337614,,,left,1,1.0672149024337614,1,,,,,,,,,,,,,,,,,,,,,,1069,2019_Mar_14_1402,mf_amp_cond1,3.0.4,60.034735994902476,
growth,thabbily,&&&&&&&&,left,care.virtue,,,,,,,0,247,247,247,,,,,,,,,,,,,,,,,,,,,AMP,left,0.7337771177851664,,,left,1,0.7337771177851664,1,,,,,,,,,,,,,,,,,,,,,,1069,2019_Mar_14_1402,mf_amp_cond1,3.0.4,60.034735994902476,
Lacedonia,honstables,&&&&&&&&&&,None,nonword,,,,,,,0,248,248,248,,,,,,,,,,,,,,,,,,,,,AMP,right,0.5837007838661066,,,right,0,0.5837007838661066,0,,,,,,,,,,,,,,,,,,,,,,1069,2019_Mar_14_1402,mf_amp_cond1,3.0.4,60.034735994902476,
loyalty,erks,&&&&,left,loyalty.virtue,,,,,,,0,249,249,249,,,,,,,,,,,,,,,,,,,,,AMP,left,1.7007258136939072,,,left,1,1.7007258136939072,1,,,,,,,,,,,,,,,,,,,,,,1069,2019_Mar_14_1402,mf_amp_cond1,3.0.4,60.034735994902476,
killed,infet,&&&&&,right,care.vice,,,,,,,0,250,250,250,,,,,,,,,,,,,,,,,,,,,AMP,left,0.7504547962075776,,,left,0,0.7504547962075776,0,,,,,,,,,,,,,,,,,,,,,,1069,2019_Mar_14_1402,mf_amp_cond1,3.0.4,60.034735994902476,
promised,atson,&&&&&,left,loyalty.virtue,,,,,,,0,251,251,251,,,,,,,,,,,,,,,,,,,,,AMP,right,1.9341440337666427,,,right,0,1.9341440337666427,0,,,,,,,,,,,,,,,,,,,,,,1069,2019_Mar_14_1402,mf_amp_cond1,3.0.4,60.034735994902476,
safety,taxpayung,&&&&&&&&&,left,care.virtue,,,,,,,0,252,252,252,,,,,,,,,,,,,,,,,,,,,AMP,left,1.1005535812796552,,,left,1,1.1005535812796552,1,,,,,,,,,,,,,,,,,,,,,,1069,2019_Mar_14_1402,mf_amp_cond1,3.0.4,60.034735994902476,
threatened,allears,&&&&&&&,right,fairness.vice,,,,,,,0,253,253,253,,,,,,,,,,,,,,,,,,,,,AMP,right,1.0338364529743558,,,right,1,1.0338364529743558,1,,,,,,,,,,,,,,,,,,,,,,1069,2019_Mar_14_1402,mf_amp_cond1,3.0.4,60.034735994902476,
drug,neputized,&&&&&&&&&,right,sanctity.vice,,,,,,,0,254,254,254,,,,,,,,,,,,,,,,,,,,,AMP,right,1.1005462044722663,,,right,1,1.1005462044722663,1,,,,,,,,,,,,,,,,,,,,,,1069,2019_Mar_14_1402,mf_amp_cond1,3.0.4,60.034735994902476,
safe,mightingale,&&&&&&&&&&&,left,care.virtue,,,,,,,0,255,255,255,,,,,,,,,,,,,,,,,,,,,AMP,right,0.7171411343604177,,,right,0,0.7171411343604177,0,,,,,,,,,,,,,,,,,,,,,,1069,2019_Mar_14_1402,mf_amp_cond1,3.0.4,60.034735994902476,
civilians,yane,&&&&,right,care.vice,,,,,,,0,256,256,256,,,,,,,,,,,,,,,,,,,,,AMP,right,0.43370334971200464,,,right,1,0.43370334971200464,1,,,,,,,,,,,,,,,,,,,,,,1069,2019_Mar_14_1402,mf_amp_cond1,3.0.4,60.034735994902476,
gun,chreams,&&&&&&&,right,authority.vice,,,,,,,0,257,257,257,,,,,,,,,,,,,,,,,,,,,AMP,right,0.6837604397860559,,,right,1,0.6837604397860559,1,,,,,,,,,,,,,,,,,,,,,,1069,2019_Mar_14_1402,mf_amp_cond1,3.0.4,60.034735994902476,
arrests,leact,&&&&&,right,authority.vice,,,,,,,0,258,258,258,,,,,,,,,,,,,,,,,,,,,AMP,right,0.4837039911735701,,,right,1,0.4837039911735701,1,,,,,,,,,,,,,,,,,,,,,,1069,2019_Mar_14_1402,mf_amp_cond1,3.0.4,60.034735994902476,
crime,troubla,&&&&&&&,right,fairness.vice,,,,,,,0,259,259,259,,,,,,,,,,,,,,,,,,,,,AMP,left,0.5170465187884474,,,left,0,0.5170465187884474,0,,,,,,,,,,,,,,,,,,,,,,1069,2019_Mar_14_1402,mf_amp_cond1,3.0.4,60.034735994902476,
win,lenon,&&&&&,left,fairness.virtue,,,,,,,0,260,260,260,,,,,,,,,,,,,,,,,,,,,AMP,right,0.45036210502007634,,,right,0,0.45036210502007634,0,,,,,,,,,,,,,,,,,,,,,,1069,2019_Mar_14_1402,mf_amp_cond1,3.0.4,60.034735994902476,
neneficence,sgrawl,&&&&&&,None,nonword,,,,,,,0,261,261,261,,,,,,,,,,,,,,,,,,,,,AMP,right,1.2671244563614437,,,right,0,1.2671244563614437,0,,,,,,,,,,,,,,,,,,,,,,1069,2019_Mar_14_1402,mf_amp_cond1,3.0.4,60.034735994902476,
torture,frojecting,&&&&&&&&&&,right,care.vice,,,,,,,0,262,262,262,,,,,,,,,,,,,,,,,,,,,AMP,left,0.45037397205783236,,,left,0,0.45037397205783236,0,,,,,,,,,,,,,,,,,,,,,,1069,2019_Mar_14_1402,mf_amp_cond1,3.0.4,60.034735994902476,
betrayal,rivernoat,&&&&&&&&&,right,loyalty.vice,,,,,,,0,263,263,263,,,,,,,,,,,,,,,,,,,,,AMP,right,0.567067687017925,,,right,1,0.567067687017925,1,,,,,,,,,,,,,,,,,,,,,,1069,2019_Mar_14_1402,mf_amp_cond1,3.0.4,60.034735994902476,
army,baladroit,&&&&&&&&&,right,loyalty.vice,,,,,,,0,264,264,264,,,,,,,,,,,,,,,,,,,,,AMP,right,0.9171658306283916,,,right,1,0.9171658306283916,1,,,,,,,,,,,,,,,,,,,,,,1069,2019_Mar_14_1402,mf_amp_cond1,3.0.4,60.034735994902476,
encourage,brudent,&&&&&&&,left,authority.virtue,,,,,,,0,265,265,265,,,,,,,,,,,,,,,,,,,,,AMP,right,0.5837402337485855,,,right,0,0.5837402337485855,0,,,,,,,,,,,,,,,,,,,,,,1069,2019_Mar_14_1402,mf_amp_cond1,3.0.4,60.034735994902476,
trust,esquisiteness,&&&&&&&&&&&&&,left,authority.virtue,,,,,,,0,266,266,266,,,,,,,,,,,,,,,,,,,,,AMP,right,0.8171238148997872,,,right,0,0.8171238148997872,0,,,,,,,,,,,,,,,,,,,,,,1069,2019_Mar_14_1402,mf_amp_cond1,3.0.4,60.034735994902476,
touls,gikely,&&&&&&,None,nonword,,,,,,,0,267,267,267,,,,,,,,,,,,,,,,,,,,,AMP,right,0.7171007222857497,,,right,0,0.7171007222857497,0,,,,,,,,,,,,,,,,,,,,,,1069,2019_Mar_14_1402,mf_amp_cond1,3.0.4,60.034735994902476,
papert,fegard,&&&&&&,None,nonword,,,,,,,0,268,268,268,,,,,,,,,,,,,,,,,,,,,AMP,left,0.38368089855907783,,,left,0,0.38368089855907783,0,,,,,,,,,,,,,,,,,,,,,,1069,2019_Mar_14_1402,mf_amp_cond1,3.0.4,60.034735994902476,
illegal,hasks,&&&&&,right,fairness.vice,,,,,,,0,269,269,269,,,,,,,,,,,,,,,,,,,,,AMP,right,0.4503637086738763,,,right,1,0.4503637086738763,1,,,,,,,,,,,,,,,,,,,,,,1069,2019_Mar_14_1402,mf_amp_cond1,3.0.4,60.034735994902476,
progress,squets,&&&&&&,left,authority.virtue,,,,,,,0,270,270,270,,,,,,,,,,,,,,,,,,,,,AMP,right,0.8671767354740041,,,right,0,0.8671767354740041,0,,,,,,,,,,,,,,,,,,,,,,1069,2019_Mar_14_1402,mf_amp_cond1,3.0.4,60.034735994902476,
fraud,rorroborated,&&&&&&&&&&&&,right,fairness.vice,,,,,,,0,271,271,271,,,,,,,,,,,,,,,,,,,,,AMP,left,0.7004304206705001,,,left,0,0.7004304206705001,0,,,,,,,,,,,,,,,,,,,,,,1069,2019_Mar_14_1402,mf_amp_cond1,3.0.4,60.034735994902476,
benefit,framatic,&&&&&&&&,left,fairness.virtue,,,,,,,0,272,272,272,,,,,,,,,,,,,,,,,,,,,AMP,left,0.5335798683720441,,,left,1,0.5335798683720441,1,,,,,,,,,,,,,,,,,,,,,,1069,2019_Mar_14_1402,mf_amp_cond1,3.0.4,60.034735994902476,
discovars,uller,&&&&&,None,nonword,,,,,,,0,273,273,273,,,,,,,,,,,,,,,,,,,,,AMP,right,1.3839673111217508,,,right,0,1.3839673111217508,0,,,,,,,,,,,,,,,,,,,,,,1069,2019_Mar_14_1402,mf_amp_cond1,3.0.4,60.034735994902476,
gaultless,chared,&&&&&&,None,nonword,,,,,,,0,274,274,274,,,,,,,,,,,,,,,,,,,,,AMP,right,0.5837822494772809,,,right,0,0.5837822494772809,0,,,,,,,,,,,,,,,,,,,,,,1069,2019_Mar_14_1402,mf_amp_cond1,3.0.4,60.034735994902476,
war,galamitous,&&&&&&&&&&,right,sanctity.vice,,,,,,,0,275,275,275,,,,,,,,,,,,,,,,,,,,,AMP,right,0.6337055948272337,,,right,1,0.6337055948272337,1,,,,,,,,,,,,,,,,,,,,,,1069,2019_Mar_14_1402,mf_amp_cond1,3.0.4,60.034735994902476,
agreement,chonograph,&&&&&&&&&&,left,fairness.virtue,,,,,,,0,276,276,276,,,,,,,,,,,,,,,,,,,,,AMP,right,0.3836651827523383,,,right,0,0.3836651827523383,0,,,,,,,,,,,,,,,,,,,,,,1069,2019_Mar_14_1402,mf_amp_cond1,3.0.4,60.034735994902476,
energy,baklara,&&&&&&&,left,sanctity.virtue,,,,,,,0,277,277,277,,,,,,,,,,,,,,,,,,,,,AMP,right,0.3503274660988609,,,right,0,0.3503274660988609,0,,,,,,,,,,,,,,,,,,,,,,1069,2019_Mar_14_1402,mf_amp_cond1,3.0.4,60.034735994902476,
respect,mih,&&&,left,sanctity.virtue,,,,,,,0,278,278,278,,,,,,,,,,,,,,,,,,,,,AMP,right,0.7004387596698507,,,right,0,0.7004387596698507,0,,,,,,,,,,,,,,,,,,,,,,1069,2019_Mar_14_1402,mf_amp_cond1,3.0.4,60.034735994902476,
praise,tomedians,&&&&&&&&&,left,authority.virtue,,,,,,,0,279,279,279,,,,,,,,,,,,,,,,,,,,,AMP,right,1.233923050277781,,,right,0,1.233923050277781,0,,,,,,,,,,,,,,,,,,,,,,1069,2019_Mar_14_1402,mf_amp_cond1,3.0.4,60.034735994902476,
pleasant,ittutable,&&&&&&&&&,None,control,,,,,,,0,280,280,280,,,,,,,,,,,,,,,,,,,,,AMP,right,0.8838216993599417,,,right,0,0.8838216993599417,0,,,,,,,,,,,,,,,,,,,,,,1069,2019_Mar_14_1402,mf_amp_cond1,3.0.4,60.034735994902476,
suicide,disregord,&&&&&&&&&,right,care.vice,,,,,,,0,281,281,281,,,,,,,,,,,,,,,,,,,,,AMP,right,0.7504525510923941,,,right,1,0.7504525510923941,1,,,,,,,,,,,,,,,,,,,,,,1069,2019_Mar_14_1402,mf_amp_cond1,3.0.4,60.034735994902476,
dramens,mecan,&&&&&,None,nonword,,,,,,,0,282,282,282,,,,,,,,,,,,,,,,,,,,,AMP,right,1.2672537108546749,,,right,0,1.2672537108546749,0,,,,,,,,,,,,,,,,,,,,,,1069,2019_Mar_14_1402,mf_amp_cond1,3.0.4,60.034735994902476,
racist,gusinesslike,&&&&&&&&&&&&,right,sanctity.vice,,,,,,,0,283,283,283,,,,,,,,,,,,,,,,,,,,,AMP,right,1.1172322218942554,,,right,1,1.1172322218942554,1,,,,,,,,,,,,,,,,,,,,,,1069,2019_Mar_14_1402,mf_amp_cond1,3.0.4,60.034735994902476,
abuse,gationwide,&&&&&&&&&&,right,sanctity.vice,,,,,,,0,284,284,284,,,,,,,,,,,,,,,,,,,,,AMP,right,3.9180353316996843,,,right,1,3.9180353316996843,1,,,,,,,,,,,,,,,,,,,,,,1069,2019_Mar_14_1402,mf_amp_cond1,3.0.4,60.034735994902476,
slavery,fangsters,&&&&&&&&&,right,loyalty.vice,,,,,,,0,285,285,285,,,,,,,,,,,,,,,,,,,,,AMP,right,8.085857056718169,,,right,1,8.085857056718169,1,,,,,,,,,,,,,,,,,,,,,,1069,2019_Mar_14_1402,mf_amp_cond1,3.0.4,60.034735994902476,
intelligence,dormandi,&&&&&&&&,left,loyalty.virtue,,,,,,,0,286,286,286,,,,,,,,,,,,,,,,,,,,,AMP,right,1.4006744967734903,,,right,0,1.4006744967734903,0,,,,,,,,,,,,,,,,,,,,,,1069,2019_Mar_14_1402,mf_amp_cond1,3.0.4,60.034735994902476,
serial,scalbel,&&&&&&&,right,sanctity.vice,,,,,,,0,287,287,287,,,,,,,,,,,,,,,,,,,,,AMP,left,2.6676482096809195,,,left,0,2.6676482096809195,0,,,,,,,,,,,,,,,,,,,,,,1069,2019_Mar_14_1402,mf_amp_cond1,3.0.4,60.034735994902476,
wonderfujnoss,tabin,&&&&&,None,nonword,,,,,,,0,288,288,288,,,,,,,,,,,,,,,,,,,,,AMP,left,0.9671770562047186,,,left,0,0.9671770562047186,0,,,,,,,,,,,,,,,,,,,,,,1069,2019_Mar_14_1402,mf_amp_cond1,3.0.4,60.034735994902476,
interests,spag,&&&&,left,fairness.virtue,,,,,,,0,289,289,289,,,,,,,,,,,,,,,,,,,,,AMP,right,0.48371425455752615,,,right,0,0.48371425455752615,0,,,,,,,,,,,,,,,,,,,,,,1069,2019_Mar_14_1402,mf_amp_cond1,3.0.4,60.034735994902476,
lies,juck,&&&&,right,fairness.vice,,,,,,,0,290,290,290,,,,,,,,,,,,,,,,,,,,,AMP,left,0.5670583858263853,,,left,0,0.5670583858263853,0,,,,,,,,,,,,,,,,,,,,,,1069,2019_Mar_14_1402,mf_amp_cond1,3.0.4,60.034735994902476,
asn,sfumatoy,&&&&&&&&,None,nonword,,,,,,,0,291,291,291,,,,,,,,,,,,,,,,,,,,,AMP,right,1.083853451704499,,,right,0,1.083853451704499,0,,,,,,,,,,,,,,,,,,,,,,1069,2019_Mar_14_1402,mf_amp_cond1,3.0.4,60.034735994902476,
violations,idexpressible,&&&&&&&&&&&&&,right,sanctity.vice,,,,,,,0,292,292,292,,,,,,,,,,,,,,,,,,,,,AMP,right,0.8171311917071762,,,right,1,0.8171311917071762,1,,,,,,,,,,,,,,,,,,,,,,1069,2019_Mar_14_1402,mf_amp_cond1,3.0.4,60.034735994902476,
commitment,carvels,&&&&&&&,left,sanctity.virtue,,,,,,,0,293,293,293,,,,,,,,,,,,,,,,,,,,,AMP,right,0.5004224024014547,,,right,0,0.5004224024014547,0,,,,,,,,,,,,,,,,,,,,,,1069,2019_Mar_14_1402,mf_amp_cond1,3.0.4,60.034735994902476,
party,crinking,&&&&&&&&,left,loyalty.virtue,,,,,,,0,294,294,294,,,,,,,,,,,,,,,,,,,,,AMP,left,1.1672405608940153,,,left,1,1.1672405608940153,1,,,,,,,,,,,,,,,,,,,,,,1069,2019_Mar_14_1402,mf_amp_cond1,3.0.4,60.034735994902476,
unpleasant,Phintoism,&&&&&&&&&,None,control,,,,,,,0,295,295,295,,,,,,,,,,,,,,,,,,,,,AMP,right,0.517043632211653,,,right,0,0.517043632211653,0,,,,,,,,,,,,,,,,,,,,,,1069,2019_Mar_14_1402,mf_amp_cond1,3.0.4,60.034735994902476,
victim,tislay,&&&&&&,right,care.vice,,,,,,,0,296,296,296,,,,,,,,,,,,,,,,,,,,,AMP,right,1.0838649980114496,,,right,1,1.0838649980114496,1,,,,,,,,,,,,,,,,,,,,,,1069,2019_Mar_14_1402,mf_amp_cond1,3.0.4,60.034735994902476,
shot,focomotive,&&&&&&&&&&,right,care.vice,,,,,,,0,297,297,297,,,,,,,,,,,,,,,,,,,,,AMP,left,0.9004823790523915,,,left,0,0.9004823790523915,0,,,,,,,,,,,,,,,,,,,,,,1069,2019_Mar_14_1402,mf_amp_cond1,3.0.4,60.034735994902476,
restore,ecgagement,&&&&&&&&&&,left,care.virtue,,,,,,,0,298,298,298,,,,,,,,,,,,,,,,,,,,,AMP,right,0.4336520327915423,,,right,0,0.4336520327915423,0,,,,,,,,,,,,,,,,,,,,,,1069,2019_Mar_14_1402,mf_amp_cond1,3.0.4,60.034735994902476,
sexual,hefurbished,&&&&&&&&&&&,right,sanctity.vice,,,,,,,0,299,299,299,,,,,,,,,,,,,,,,,,,,,AMP,right,1.5506648748507814,,,right,1,1.5506648748507814,1,,,,,,,,,,,,,,,,,,,,,,1069,2019_Mar_14_1402,mf_amp_cond1,3.0.4,60.034735994902476,
love,edancipation,&&&&&&&&&&&&,left,loyalty.virtue,,,,,,,0,300,300,300,,,,,,,,,,,,,,,,,,,,,AMP,right,0.6004082902484242,,,right,0,0.6004082902484242,0,,,,,,,,,,,,,,,,,,,,,,1069,2019_Mar_14_1402,mf_amp_cond1,3.0.4,60.034735994902476,
riot,gedious,&&&&&&&,right,authority.vice,,,,,,,0,301,301,301,,,,,,,,,,,,,,,,,,,,,AMP,right,0.7837931543226659,,,right,1,0.7837931543226659,1,,,,,,,,,,,,,,,,,,,,,,1069,2019_Mar_14_1402,mf_amp_cond1,3.0.4,60.034735994902476,
freedom,scock,&&&&&,left,sanctity.virtue,,,,,,,0,302,302,302,,,,,,,,,,,,,,,,,,,,,AMP,right,1.0005083582434509,,,right,0,1.0005083582434509,0,,,,,,,,,,,,,,,,,,,,,,1069,2019_Mar_14_1402,mf_amp_cond1,3.0.4,60.034735994902476,
blamed,perified,&&&&&&&&,right,loyalty.vice,,,,,,,0,303,303,303,,,,,,,,,,,,,,,,,,,,,AMP,right,0.40036018063551637,,,right,1,0.40036018063551637,1,,,,,,,,,,,,,,,,,,,,,,1069,2019_Mar_14_1402,mf_amp_cond1,3.0.4,60.034735994902476,
embrace,stindig,&&&&&&&,left,authority.virtue,,,,,,,0,304,304,304,,,,,,,,,,,,,,,,,,,,,AMP,right,0.5003813488651758,,,right,0,0.5003813488651758,0,,,,,,,,,,,,,,,,,,,,,,1069,2019_Mar_14_1402,mf_amp_cond1,3.0.4,60.034735994902476,
rebels,ugeasily,&&&&&&&&,right,authority.vice,,,,,,,0,305,305,305,,,,,,,,,,,,,,,,,,,,,AMP,left,0.8004416462467816,,,left,0,0.8004416462467816,0,,,,,,,,,,,,,,,,,,,,,,1069,2019_Mar_14_1402,mf_amp_cond1,3.0.4,60.034735994902476,
fair,cromiscuity,&&&&&&&&&&&,left,fairness.virtue,,,,,,,0,306,306,306,,,,,,,,,,,,,,,,,,,,,AMP,right,0.4336943692510431,,,right,0,0.4336943692510431,0,,,,,,,,,,,,,,,,,,,,,,1069,2019_Mar_14_1402,mf_amp_cond1,3.0.4,60.034735994902476,
ensure,fostet,&&&&&&,left,fairness.virtue,,,,,,,0,307,307,307,,,,,,,,,,,,,,,,,,,,,AMP,right,0.8838008518609968,,,right,0,0.8838008518609968,0,,,,,,,,,,,,,,,,,,,,,,1069,2019_Mar_14_1402,mf_amp_cond1,3.0.4,60.034735994902476,
celebrated,presentkess,&&&&&&&&&&&,left,authority.virtue,,,,,,,0,308,308,308,,,,,,,,,,,,,,,,,,,,,AMP,right,0.8671411343605087,,,right,0,0.8671411343605087,0,,,,,,,,,,,,,,,,,,,,,,1069,2019_Mar_14_1402,mf_amp_cond1,3.0.4,60.034735994902476,
faith,gournful,&&&&&&&&,left,sanctity.virtue,,,,,,,0,309,309,309,,,,,,,,,,,,,,,,,,,,,AMP,right,0.5337309325566366,,,right,0,0.5337309325566366,0,,,,,,,,,,,,,,,,,,,,,,1069,2019_Mar_14_1402,mf_amp_cond1,3.0.4,60.034735994902476,
rejected,ning,&&&&,right,authority.vice,,,,,,,0,310,310,310,,,,,,,,,,,,,,,,,,,,,AMP,right,0.7171125893235057,,,right,1,0.7171125893235057,1,,,,,,,,,,,,,,,,,,,,,,1069,2019_Mar_14_1402,mf_amp_cond1,3.0.4,60.034735994902476,
men,pescinded,&&&&&&&&&,right,loyalty.vice,,,,,,,0,311,311,311,,,,,,,,,,,,,,,,,,,,,AMP,right,0.6170721772487013,,,right,1,0.6170721772487013,1,,,,,,,,,,,,,,,,,,,,,,1069,2019_Mar_14_1402,mf_amp_cond1,3.0.4,60.034735994902476,
hope,grovelire,&&&&&&&&&,left,loyalty.virtue,,,,,,,0,312,312,312,,,,,,,,,,,,,,,,,,,,,AMP,right,0.5837360642487965,,,right,0,0.5837360642487965,0,,,,,,,,,,,,,,,,,,,,,,1069,2019_Mar_14_1402,mf_amp_cond1,3.0.4,60.034735994902476,
framo,imebreaker,&&&&&&&&&&,None,nonword,,,,,,,0,313,313,313,,,,,,,,,,,,,,,,,,,,,AMP,left,0.6504131012097787,,,left,0,0.6504131012097787,0,,,,,,,,,,,,,,,,,,,,,,1069,2019_Mar_14_1402,mf_amp_cond1,3.0.4,60.034735994902476,
praised,ejanulated,&&&&&&&&&&,left,loyalty.virtue,,,,,,,0,314,314,314,,,,,,,,,,,,,,,,,,,,,AMP,left,0.6170811577096629,,,left,1,0.6170811577096629,1,,,,,,,,,,,,,,,,,,,,,,1069,2019_Mar_14_1402,mf_amp_cond1,3.0.4,60.034735994902476,
died,seachwear,&&&&&&&&&,right,care.vice,,,,,,,0,315,315,315,,,,,,,,,,,,,,,,,,,,,AMP,right,0.43366037179112027,,,right,1,0.43366037179112027,1,,,,,,,,,,,,,,,,,,,,,,1069,2019_Mar_14_1402,mf_amp_cond1,3.0.4,60.034735994902476,
help,clamorek,&&&&&&&&,left,care.virtue,,,,,,,0,316,316,316,,,,,,,,,,,,,,,,,,,,,AMP,right,0.6504150255943841,,,right,0,0.6504150255943841,0,,,,,,,,,,,,,,,,,,,,,,1069,2019_Mar_14_1402,mf_amp_cond1,3.0.4,60.034735994902476,
prison,reprisols,&&&&&&&&&,right,fairness.vice,,,,,,,0,317,317,317,,,,,,,,,,,,,,,,,,,,,AMP,right,0.6004038000178298,,,right,1,0.6004038000178298,1,,,,,,,,,,,,,,,,,,,,,,1069,2019_Mar_14_1402,mf_amp_cond1,3.0.4,60.034735994902476,
peaceful,gondensed,&&&&&&&&&,left,authority.virtue,,,,,,,0,318,318,318,,,,,,,,,,,,,,,,,,,,,AMP,right,0.8171456245911486,,,right,0,0.8171456245911486,0,,,,,,,,,,,,,,,,,,,,,,1069,2019_Mar_14_1402,mf_amp_cond1,3.0.4,60.034735994902476,
increase,fonderland,&&&&&&&&&&,left,care.virtue,,,,,,,0,319,319,319,,,,,,,,,,,,,,,,,,,,,AMP,right,0.6337411959409565,,,right,0,0.6337411959409565,0,,,,,,,,,,,,,,,,,,,,,,1069,2019_Mar_14_1402,mf_amp_cond1,3.0.4,60.034735994902476,
values,laming,&&&&&&,left,sanctity.virtue,,,,,,,0,320,320,320,,,,,,,,,,,,,,,,,,,,,AMP,left,0.5337168204034697,,,left,1,0.5337168204034697,1,,,,,,,,,,,,,,,,,,,,,,1069,2019_Mar_14_1402,mf_amp_cond1,3.0.4,60.034735994902476,
refused,menizen,&&&&&&&,right,authority.vice,,,,,,,0,321,321,321,,,,,,,,,,,,,,,,,,,,,AMP,right,0.5003752549810088,,,right,1,0.5003752549810088,1,,,,,,,,,,,,,,,,,,,,,,1069,2019_Mar_14_1402,mf_amp_cond1,3.0.4,60.034735994902476,
ban,elduringly,&&&&&&&&&&,right,loyalty.vice,,,,,,,0,322,322,322,,,,,,,,,,,,,,,,,,,,,AMP,right,0.7337707031699665,,,right,1,0.7337707031699665,1,,,,,,,,,,,,,,,,,,,,,,1069,2019_Mar_14_1402,mf_amp_cond1,3.0.4,60.034735994902476,
dignity,suggists,&&&&&&&&,left,sanctity.virtue,,,,,,,0,323,323,323,,,,,,,,,,,,,,,,,,,,,AMP,right,0.5003733305964033,,,right,0,0.5003733305964033,0,,,,,,,,,,,,,,,,,,,,,,1069,2019_Mar_14_1402,mf_amp_cond1,3.0.4,60.034735994902476,
improve,ablow,&&&&&,left,care.virtue,,,,,,,0,324,324,324,,,,,,,,,,,,,,,,,,,,,AMP,right,0.6671696793976025,,,right,0,0.6671696793976025,0,,,,,,,,,,,,,,,,,,,,,,1069,2019_Mar_14_1402,mf_amp_cond1,3.0.4,60.034735994902476,
terrorists,sidearbs,&&&&&&&&,right,fairness.vice,,,,,,,0,325,325,325,,,,,,,,,,,,,,,,,,,,,AMP,right,0.6170724979792794,,,right,1,0.6170724979792794,1,,,,,,,,,,,,,,,,,,,,,,1069,2019_Mar_14_1402,mf_amp_cond1,3.0.4,60.034735994902476,
protesters,nomaric,&&&&&&&,right,authority.vice,,,,,,,0,326,326,326,,,,,,,,,,,,,,,,,,,,,AMP,right,0.5170532541342254,,,right,1,0.5170532541342254,1,,,,,,,,,,,,,,,,,,,,,,1069,2019_Mar_14_1402,mf_amp_cond1,3.0.4,60.034735994902476,
terrorist,lachelor,&&&&&&&&,right,loyalty.vice,,,,,,,0,327,327,327,,,,,,,,,,,,,,,,,,,,,AMP,right,0.583721310634246,,,right,1,0.583721310634246,1,,,,,,,,,,,,,,,,,,,,,,1069,2019_Mar_14_1402,mf_amp_cond1,3.0.4,60.034735994902476,
,,,,,,,,,,,,,,,,,,,,,,,,,,,,,,,,,,,,,,,,,,,,4,14.406,,,,,,,,,,,,,,,,,,,,1069,2019_Mar_14_1402,mf_amp_cond1,3.0.4,60.034735994902476,
,,,,,,,,,,,,,,,,,,,,,,,,,,,,,,,,,,,,,,,,,,,,,,2,12.122,,,,,,,,,,,,,,,,,,1069,2019_Mar_14_1402,mf_amp_cond1,3.0.4,60.034735994902476,
,,,,,,,,,,,,,,,,,,,,,,,,,,,,,,,,,,,,,,,,,,,,,,,,4,5.887,,,,,,,,,,,,,,,,1069,2019_Mar_14_1402,mf_amp_cond1,3.0.4,60.034735994902476,
,,,,,,,,,,,,,,,,,,,,,,,,,,,,,,,,,,,,,,,,,,,,,,,,,,right,3.0844679718270527,,,,,,,,,,,,,,1069,2019_Mar_14_1402,mf_amp_cond1,3.0.4,60.034735994902476,
bisebell,,&&&&&&&,,,,,,,,,,,,,0,0,0,1,,,,,,,,,,,,,,,,,LDT_prac,left,2.901059373676844,,,,,,0,,,,,,,,,left,2.901059373676844,,,,,,,,,,,,1069,2019_Mar_14_1402,mf_amp_cond1,3.0.4,60.034735994902476,
keyboard,,&&&&&&&,,,,,,,,,,,,,0,1,1,0,,,,,,,,,,,,,,,,,LDT_prac,right,1.2672620498544802,,,,,,0,,,,,,,,,right,1.2672620498544802,,,,,,,,,,,,1069,2019_Mar_14_1402,mf_amp_cond1,3.0.4,60.034735994902476,
,,,,,,,,,,,,,,,,,,,,,,,,,,,,,,,,,,,,,,,,,,,,,,,,,,,,,,right,1.8341183753061614,,,,,,,,,,1069,2019_Mar_14_1402,mf_amp_cond1,3.0.4,60.034735994902476,
Boeinf,,&&&&&&,right,nonword,,,,,,,,,,,,,,,0,0,0,98,,,,,,,,,,,,,LDT,right,2.43425789318394,,,,,,1,,,,,,,,,,,,,right,1,2.43425789318394,,,,,,,1069,2019_Mar_14_1402,mf_amp_cond1,3.0.4,60.034735994902476,
groups,,&&&&&&,left,loyalty.vice,,,,,,,,,,,,,,,0,1,1,5,,,,,,,,,,,,,LDT,right,1.217305989967599,,,,,,0,,,,,,,,,,,,,right,0,1.217305989967599,,,,,,,1069,2019_Mar_14_1402,mf_amp_cond1,3.0.4,60.034735994902476,
great,,&&&&&,left,loyalty.virtue,,,,,,,,,,,,,,,0,2,2,6,,,,,,,,,,,,,LDT,right,0.7001882689521608,,,,,,0,,,,,,,,,,,,,right,0,0.7001882689521608,,,,,,,1069,2019_Mar_14_1402,mf_amp_cond1,3.0.4,60.034735994902476,
strong,,&&&&&&,left,loyalty.virtue,,,,,,,,,,,,,,,0,3,3,161,,,,,,,,,,,,,LDT,right,0.7337998896684894,,,,,,0,,,,,,,,,,,,,right,0,0.7337998896684894,,,,,,,1069,2019_Mar_14_1402,mf_amp_cond1,3.0.4,60.034735994902476,
Cunday,,&&&&&&,None,nonword,,,,,,,,,,,,,,,0,4,4,140,,,,,,,,,,,,,LDT,left,1.033873337011073,,,,,,0,,,,,,,,,,,,,left,0,1.033873337011073,,,,,,,1069,2019_Mar_14_1402,mf_amp_cond1,3.0.4,60.034735994902476,
ammessment,,&&&&&&&&&&,right,nonword,,,,,,,,,,,,,,,0,5,5,36,,,,,,,,,,,,,LDT,right,1.267357627618594,,,,,,1,,,,,,,,,,,,,right,1,1.267357627618594,,,,,,,1069,2019_Mar_14_1402,mf_amp_cond1,3.0.4,60.034735994902476,
ability,,&&&&&&&,left,authority.virtue,,,,,,,,,,,,,,,0,6,6,175,,,,,,,,,,,,,LDT,right,0.7337790421697719,,,,,,0,,,,,,,,,,,,,right,0,0.7337790421697719,,,,,,,1069,2019_Mar_14_1402,mf_amp_cond1,3.0.4,60.034735994902476,
hereby,,&&&&&&,left,neutral,,,,,,,,,,,,,,,0,7,7,104,,,,,,,,,,,,,LDT,right,1.3005866165469797,,,,,,0,,,,,,,,,,,,,right,0,1.3005866165469797,,,,,,,1069,2019_Mar_14_1402,mf_amp_cond1,3.0.4,60.034735994902476,
iptervention,,&&&&&&&&&&&&,right,nonword,,,,,,,,,,,,,,,0,8,8,145,,,,,,,,,,,,,LDT,left,1.417311442390428,,,,,,0,,,,,,,,,,,,,left,0,1.417311442390428,,,,,,,1069,2019_Mar_14_1402,mf_amp_cond1,3.0.4,60.034735994902476,
lorthwhile,,&&&&&&&&&&,right,nonword,,,,,,,,,,,,,,,0,9,9,68,,,,,,,,,,,,,LDT,left,1.4840199109651167,,,,,,0,,,,,,,,,,,,,left,0,1.4840199109651167,,,,,,,1069,2019_Mar_14_1402,mf_amp_cond1,3.0.4,60.034735994902476,
there,,&&&&&,left,neutral,,,,,,,,,,,,,,,0,10,10,166,,,,,,,,,,,,,LDT,right,0.7171276636688617,,,,,,0,,,,,,,,,,,,,right,0,0.7171276636688617,,,,,,,1069,2019_Mar_14_1402,mf_amp_cond1,3.0.4,60.034735994902476,
glacenta,,&&&&&&&&,right,nonword,,,,,,,,,,,,,,,0,11,11,167,,,,,,,,,,,,,LDT,left,0.9004964912055584,,,,,,0,,,,,,,,,,,,,left,0,0.9004964912055584,,,,,,,1069,2019_Mar_14_1402,mf_amp_cond1,3.0.4,60.034735994902476,
pafer,,&&&&&,right,nonword,,,,,,,,,,,,,,,0,12,12,194,,,,,,,,,,,,,LDT,left,2.117508691803323,,,,,,0,,,,,,,,,,,,,left,0,2.117508691803323,,,,,,,1069,2019_Mar_14_1402,mf_amp_cond1,3.0.4,60.034735994902476,
forced,,&&&&&&,left,fairness.vice,,,,,,,,,,,,,,,0,13,13,33,,,,,,,,,,,,,LDT,right,0.9505131692046689,,,,,,0,,,,,,,,,,,,,right,0,0.9505131692046689,,,,,,,1069,2019_Mar_14_1402,mf_amp_cond1,3.0.4,60.034735994902476,
each,,&&&&,left,neutral,,,,,,,,,,,,,,,0,14,14,17,,,,,,,,,,,,,LDT,right,0.9337052740966101,,,,,,0,,,,,,,,,,,,,right,0,0.9337052740966101,,,,,,,1069,2019_Mar_14_1402,mf_amp_cond1,3.0.4,60.034735994902476,
ronviolence,,&&&&&&&&&&&,right,nonword,,,,,,,,,,,,,,,0,15,15,63,,,,,,,,,,,,,LDT,right,1.3506174066992571,,,,,,1,,,,,,,,,,,,,right,1,1.3506174066992571,,,,,,,1069,2019_Mar_14_1402,mf_amp_cond1,3.0.4,60.034735994902476,
noone,,&&&&&,left,neutral,,,,,,,,,,,,,,,0,16,16,149,,,,,,,,,,,,,LDT,right,0.9171728867049751,,,,,,0,,,,,,,,,,,,,right,0,0.9171728867049751,,,,,,,1069,2019_Mar_14_1402,mf_amp_cond1,3.0.4,60.034735994902476,
pumber,,&&&&&&,None,nonword,,,,,,,,,,,,,,,0,17,17,189,,,,,,,,,,,,,LDT,right,0.7004390804008835,,,,,,0,,,,,,,,,,,,,right,0,0.7004390804008835,,,,,,,1069,2019_Mar_14_1402,mf_amp_cond1,3.0.4,60.034735994902476,
honored,,&&&&&&&,left,authority.virtue,,,,,,,,,,,,,,,0,18,18,132,,,,,,,,,,,,,LDT,left,2.234213632339788,,,,,,1,,,,,,,,,,,,,left,1,2.234213632339788,,,,,,,1069,2019_Mar_14_1402,mf_amp_cond1,3.0.4,60.034735994902476,
nomparisons,,&&&&&&&&&&&,right,nonword,,,,,,,,,,,,,,,0,19,19,1,,,,,,,,,,,,,LDT,left,1.1005580715102496,,,,,,0,,,,,,,,,,,,,left,0,1.1005580715102496,,,,,,,1069,2019_Mar_14_1402,mf_amp_cond1,3.0.4,60.034735994902476,
quarterbocks,,&&&&&&&&&&&&,right,nonword,,,,,,,,,,,,,,,0,20,20,199,,,,,,,,,,,,,LDT,left,0.8170978357088643,,,,,,0,,,,,,,,,,,,,left,0,0.8170978357088643,,,,,,,1069,2019_Mar_14_1402,mf_amp_cond1,3.0.4,60.034735994902476,
opportunity,,&&&&&&&&&&&,left,fairness.virtue,,,,,,,,,,,,,,,0,21,21,88,,,,,,,,,,,,,LDT,left,1.36730438631389,,,,,,1,,,,,,,,,,,,,left,1,1.36730438631389,,,,,,,1069,2019_Mar_14_1402,mf_amp_cond1,3.0.4,60.034735994902476,
thadowed,,&&&&&&&&,right,nonword,,,,,,,,,,,,,,,0,22,22,9,,,,,,,,,,,,,LDT,right,1.4006385749291894,,,,,,1,,,,,,,,,,,,,right,1,1.4006385749291894,,,,,,,1069,2019_Mar_14_1402,mf_amp_cond1,3.0.4,60.034735994902476,
sowntrodden,,&&&&&&&&&&&,right,nonword,,,,,,,,,,,,,,,0,23,23,133,,,,,,,,,,,,,LDT,left,1.684049097463685,,,,,,0,,,,,,,,,,,,,left,0,1.684049097463685,,,,,,,1069,2019_Mar_14_1402,mf_amp_cond1,3.0.4,60.034735994902476,
faspberry,,&&&&&&&&&,None,nonword,,,,,,,,,,,,,,,0,24,24,185,,,,,,,,,,,,,LDT,left,1.4006459517365784,,,,,,0,,,,,,,,,,,,,left,0,1.4006459517365784,,,,,,,1069,2019_Mar_14_1402,mf_amp_cond1,3.0.4,60.034735994902476,
amount,,&&&&&&,left,neutral,,,,,,,,,,,,,,,0,25,25,29,,,,,,,,,,,,,LDT,right,0.7171161173619112,,,,,,0,,,,,,,,,,,,,right,0,0.7171161173619112,,,,,,,1069,2019_Mar_14_1402,mf_amp_cond1,3.0.4,60.034735994902476,
actively,,&&&&&&&&,left,authority.virtue,,,,,,,,,,,,,,,0,26,26,7,,,,,,,,,,,,,LDT,left,1.2505991250466195,,,,,,1,,,,,,,,,,,,,left,1,1.2505991250466195,,,,,,,1069,2019_Mar_14_1402,mf_amp_cond1,3.0.4,60.034735994902476,
gazily,,&&&&&&,right,nonword,,,,,,,,,,,,,,,0,27,27,46,,,,,,,,,,,,,LDT,left,0.9004612108226411,,,,,,0,,,,,,,,,,,,,left,0,0.9004612108226411,,,,,,,1069,2019_Mar_14_1402,mf_amp_cond1,3.0.4,60.034735994902476,
lursuer,,&&&&&&&,right,nonword,,,,,,,,,,,,,,,0,28,28,31,,,,,,,,,,,,,LDT,left,1.017207846356996,,,,,,0,,,,,,,,,,,,,left,0,1.017207846356996,,,,,,,1069,2019_Mar_14_1402,mf_amp_cond1,3.0.4,60.034735994902476,
sickyay,,&&&&&&&,right,nonword,,,,,,,,,,,,,,,0,29,29,20,,,,,,,,,,,,,LDT,left,0.9338553760887862,,,,,,0,,,,,,,,,,,,,left,0,0.9338553760887862,,,,,,,1069,2019_Mar_14_1402,mf_amp_cond1,3.0.4,60.034735994902476,
supervuned,,&&&&&&&&&&,right,nonword,,,,,,,,,,,,,,,0,30,30,160,,,,,,,,,,,,,LDT,right,0.6337482520175399,,,,,,1,,,,,,,,,,,,,right,1,0.6337482520175399,,,,,,,1069,2019_Mar_14_1402,mf_amp_cond1,3.0.4,60.034735994902476,
conspiracy,,&&&&&&&&&&,left,sanctity.vice,,,,,,,,,,,,,,,0,31,31,168,,,,,,,,,,,,,LDT,right,1.0505327337807557,,,,,,0,,,,,,,,,,,,,right,0,1.0505327337807557,,,,,,,1069,2019_Mar_14_1402,mf_amp_cond1,3.0.4,60.034735994902476,
godlaness,,&&&&&&&&&,right,nonword,,,,,,,,,,,,,,,0,32,32,39,,,,,,,,,,,,,LDT,left,0.8838242652057033,,,,,,0,,,,,,,,,,,,,left,0,0.8838242652057033,,,,,,,1069,2019_Mar_14_1402,mf_amp_cond1,3.0.4,60.034735994902476,
chadows,,&&&&&&&,right,nonword,,,,,,,,,,,,,,,0,33,33,121,,,,,,,,,,,,,LDT,right,0.9671799427817405,,,,,,1,,,,,,,,,,,,,right,1,0.9671799427817405,,,,,,,1069,2019_Mar_14_1402,mf_amp_cond1,3.0.4,60.034735994902476,
antral,,&&&&&&,right,nonword,,,,,,,,,,,,,,,0,34,34,192,,,,,,,,,,,,,LDT,left,0.6337572324785015,,,,,,0,,,,,,,,,,,,,left,0,0.6337572324785015,,,,,,,1069,2019_Mar_14_1402,mf_amp_cond1,3.0.4,60.034735994902476,
integrity,,&&&&&&&&&,left,fairness.virtue,,,,,,,,,,,,,,,0,35,35,102,,,,,,,,,,,,,LDT,right,0.5170567821724035,,,,,,0,,,,,,,,,,,,,right,0,0.5170567821724035,,,,,,,1069,2019_Mar_14_1402,mf_amp_cond1,3.0.4,60.034735994902476,
Daptist,,&&&&&&&,right,nonword,,,,,,,,,,,,,,,0,36,36,16,,,,,,,,,,,,,LDT,right,0.7671372855916161,,,,,,1,,,,,,,,,,,,,right,1,0.7671372855916161,,,,,,,1069,2019_Mar_14_1402,mf_amp_cond1,3.0.4,60.034735994902476,
black,,&&&&&,left,loyalty.vice,,,,,,,,,,,,,,,0,37,37,123,,,,,,,,,,,,,LDT,right,0.7004361938240891,,,,,,0,,,,,,,,,,,,,right,0,0.7004361938240891,,,,,,,1069,2019_Mar_14_1402,mf_amp_cond1,3.0.4,60.034735994902476,
officers,,&&&&&&&&,left,authority.vice,,,,,,,,,,,,,,,0,38,38,69,,,,,,,,,,,,,LDT,right,1.2005895031238651,,,,,,0,,,,,,,,,,,,,right,0,1.2005895031238651,,,,,,,1069,2019_Mar_14_1402,mf_amp_cond1,3.0.4,60.034735994902476,
viscs,,&&&&&,None,nonword,,,,,,,,,,,,,,,0,39,39,75,,,,,,,,,,,,,LDT,right,0.6504201572863622,,,,,,0,,,,,,,,,,,,,right,0,0.6504201572863622,,,,,,,1069,2019_Mar_14_1402,mf_amp_cond1,3.0.4,60.034735994902476,
been,,&&&&,left,neutral,,,,,,,,,,,,,,,0,40,40,66,,,,,,,,,,,,,LDT,right,0.5337145752882861,,,,,,0,,,,,,,,,,,,,right,0,0.5337145752882861,,,,,,,1069,2019_Mar_14_1402,mf_amp_cond1,3.0.4,60.034735994902476,
elsewhere,,&&&&&&&&&,left,neutral,,,,,,,,,,,,,,,0,41,41,106,,,,,,,,,,,,,LDT,right,0.9338438297816083,,,,,,0,,,,,,,,,,,,,right,0,0.9338438297816083,,,,,,,1069,2019_Mar_14_1402,mf_amp_cond1,3.0.4,60.034735994902476,
nonobservalt,,&&&&&&&&&&&&,right,nonword,,,,,,,,,,,,,,,0,42,42,35,,,,,,,,,,,,,LDT,left,0.6004204780169857,,,,,,0,,,,,,,,,,,,,left,0,0.6004204780169857,,,,,,,1069,2019_Mar_14_1402,mf_amp_cond1,3.0.4,60.034735994902476,
nackers,,&&&&&&&,right,nonword,,,,,,,,,,,,,,,0,43,43,58,,,,,,,,,,,,,LDT,right,0.6170789125944793,,,,,,1,,,,,,,,,,,,,right,1,0.6170789125944793,,,,,,,1069,2019_Mar_14_1402,mf_amp_cond1,3.0.4,60.034735994902476,
thru,,&&&&,left,neutral,,,,,,,,,,,,,,,0,44,44,99,,,,,,,,,,,,,LDT,left,1.4506491590441328,,,,,,1,,,,,,,,,,,,,left,1,1.4506491590441328,,,,,,,1069,2019_Mar_14_1402,mf_amp_cond1,3.0.4,60.034735994902476,
care,,&&&&,left,care.virtue,,,,,,,,,,,,,,,0,45,45,193,,,,,,,,,,,,,LDT,right,0.58374472397918,,,,,,0,,,,,,,,,,,,,right,0,0.58374472397918,,,,,,,1069,2019_Mar_14_1402,mf_amp_cond1,3.0.4,60.034735994902476,
toward,,&&&&&&,left,neutral,,,,,,,,,,,,,,,0,46,46,59,,,,,,,,,,,,,LDT,right,0.7671687172050952,,,,,,0,,,,,,,,,,,,,right,0,0.7671687172050952,,,,,,,1069,2019_Mar_14_1402,mf_amp_cond1,3.0.4,60.034735994902476,
hate,,&&&&,left,fairness.vice,,,,,,,,,,,,,,,0,47,47,136,,,,,,,,,,,,,LDT,right,0.5670590272877689,,,,,,0,,,,,,,,,,,,,right,0,0.5670590272877689,,,,,,,1069,2019_Mar_14_1402,mf_amp_cond1,3.0.4,60.034735994902476,
accused,,&&&&&&&,left,fairness.vice,,,,,,,,,,,,,,,0,48,48,11,,,,,,,,,,,,,LDT,right,0.8171180417461983,,,,,,0,,,,,,,,,,,,,right,0,0.8171180417461983,,,,,,,1069,2019_Mar_14_1402,mf_amp_cond1,3.0.4,60.034735994902476,
aubos,,&&&&&,right,nonword,,,,,,,,,,,,,,,0,49,49,151,,,,,,,,,,,,,LDT,left,0.8671613403978427,,,,,,0,,,,,,,,,,,,,left,0,0.8671613403978427,,,,,,,1069,2019_Mar_14_1402,mf_amp_cond1,3.0.4,60.034735994902476,
violence,,&&&&&&&&,left,care.vice,,,,,,,,,,,,,,,0,50,50,82,,,,,,,,,,,,,LDT,right,0.7171045710547332,,,,,,0,,,,,,,,,,,,,right,0,0.7171045710547332,,,,,,,1069,2019_Mar_14_1402,mf_amp_cond1,3.0.4,60.034735994902476,
clattening,,&&&&&&&&&&,right,nonword,,,,,,,,,,,,,,,0,51,51,37,,,,,,,,,,,,,LDT,right,0.8671408136299306,,,,,,1,,,,,,,,,,,,,right,1,0.8671408136299306,,,,,,,1069,2019_Mar_14_1402,mf_amp_cond1,3.0.4,60.034735994902476,
abointment,,&&&&&&&&&&,right,nonword,,,,,,,,,,,,,,,0,52,52,3,,,,,,,,,,,,,LDT,left,0.7004483815926505,,,,,,0,,,,,,,,,,,,,left,0,0.7004483815926505,,,,,,,1069,2019_Mar_14_1402,mf_amp_cond1,3.0.4,60.034735994902476,
simplustic,,&&&&&&&&&&,right,nonword,,,,,,,,,,,,,,,0,53,53,97,,,,,,,,,,,,,LDT,right,0.5504034792872972,,,,,,1,,,,,,,,,,,,,right,1,0.5504034792872972,,,,,,,1069,2019_Mar_14_1402,mf_amp_cond1,3.0.4,60.034735994902476,
promote,,&&&&&&&,left,sanctity.virtue,,,,,,,,,,,,,,,0,54,54,186,,,,,,,,,,,,,LDT,right,1.3339474258150403,,,,,,0,,,,,,,,,,,,,right,0,1.3339474258150403,,,,,,,1069,2019_Mar_14_1402,mf_amp_cond1,3.0.4,60.034735994902476,
attacks,,&&&&&&&,left,care.vice,,,,,,,,,,,,,,,0,55,55,127,,,,,,,,,,,,,LDT,right,1.33395993431418,,,,,,0,,,,,,,,,,,,,right,0,1.33395993431418,,,,,,,1069,2019_Mar_14_1402,mf_amp_cond1,3.0.4,60.034735994902476,
health,,&&&&&&,left,care.virtue,,,,,,,,,,,,,,,0,56,56,141,,,,,,,,,,,,,LDT,right,0.7671209283230382,,,,,,0,,,,,,,,,,,,,right,0,0.7671209283230382,,,,,,,1069,2019_Mar_14_1402,mf_amp_cond1,3.0.4,60.034735994902476,
epigrach,,&&&&&&&&,right,nonword,,,,,,,,,,,,,,,0,57,57,195,,,,,,,,,,,,,LDT,left,0.7337700617088103,,,,,,0,,,,,,,,,,,,,left,0,0.7337700617088103,,,,,,,1069,2019_Mar_14_1402,mf_amp_cond1,3.0.4,60.034735994902476,
fighters,,&&&&&&&&,left,authority.vice,,,,,,,,,,,,,,,0,58,58,52,,,,,,,,,,,,,LDT,right,0.9505089997051073,,,,,,0,,,,,,,,,,,,,right,0,0.9505089997051073,,,,,,,1069,2019_Mar_14_1402,mf_amp_cond1,3.0.4,60.034735994902476,
saned,,&&&&&,None,nonword,,,,,,,,,,,,,,,0,59,59,179,,,,,,,,,,,,,LDT,right,0.6504172707095677,,,,,,0,,,,,,,,,,,,,right,0,0.6504172707095677,,,,,,,1069,2019_Mar_14_1402,mf_amp_cond1,3.0.4,60.034735994902476,
tracious,,&&&&&&&&,right,nonword,,,,,,,,,,,,,,,0,60,60,15,,,,,,,,,,,,,LDT,left,1.0005173387046398,,,,,,0,,,,,,,,,,,,,left,0,1.0005173387046398,,,,,,,1069,2019_Mar_14_1402,mf_amp_cond1,3.0.4,60.034735994902476,
precificity,,&&&&&&&&&&&,right,nonword,,,,,,,,,,,,,,,0,61,61,107,,,,,,,,,,,,,LDT,right,1.0338550553581172,,,,,,1,,,,,,,,,,,,,right,1,1.0338550553581172,,,,,,,1069,2019_Mar_14_1402,mf_amp_cond1,3.0.4,60.034735994902476,
critics,,&&&&&&&,left,loyalty.vice,,,,,,,,,,,,,,,0,62,62,22,,,,,,,,,,,,,LDT,right,1.7507357563472397,,,,,,0,,,,,,,,,,,,,right,0,1.7507357563472397,,,,,,,1069,2019_Mar_14_1402,mf_amp_cond1,3.0.4,60.034735994902476,
powerful,,&&&&&&&&,left,authority.virtue,,,,,,,,,,,,,,,0,63,63,41,,,,,,,,,,,,,LDT,right,0.9338358115130632,,,,,,0,,,,,,,,,,,,,right,0,0.9338358115130632,,,,,,,1069,2019_Mar_14_1402,mf_amp_cond1,3.0.4,60.034735994902476,
sliptery,,&&&&&&&&,right,nonword,,,,,,,,,,,,,,,0,64,64,197,,,,,,,,,,,,,LDT,right,1.5506911747725098,,,,,,1,,,,,,,,,,,,,right,1,1.5506911747725098,,,,,,,1069,2019_Mar_14_1402,mf_amp_cond1,3.0.4,60.034735994902476,
become,,&&&&&&,left,neutral,,,,,,,,,,,,,,,0,65,65,181,,,,,,,,,,,,,LDT,right,0.6170869308632518,,,,,,0,,,,,,,,,,,,,right,0,0.6170869308632518,,,,,,,1069,2019_Mar_14_1402,mf_amp_cond1,3.0.4,60.034735994902476,
bycled,,&&&&&&,None,nonword,,,,,,,,,,,,,,,0,66,66,108,,,,,,,,,,,,,LDT,left,0.6670891759786173,,,,,,0,,,,,,,,,,,,,left,0,0.6670891759786173,,,,,,,1069,2019_Mar_14_1402,mf_amp_cond1,3.0.4,60.034735994902476,
useful,,&&&&&&,left,authority.virtue,,,,,,,,,,,,,,,0,67,67,40,,,,,,,,,,,,,LDT,right,0.6004054036718571,,,,,,0,,,,,,,,,,,,,right,0,0.6004054036718571,,,,,,,1069,2019_Mar_14_1402,mf_amp_cond1,3.0.4,60.034735994902476,
Oregoniuns,,&&&&&&&&&&,right,nonword,,,,,,,,,,,,,,,0,68,68,78,,,,,,,,,,,,,LDT,right,0.6337556288247015,,,,,,1,,,,,,,,,,,,,right,1,0.6337556288247015,,,,,,,1069,2019_Mar_14_1402,mf_amp_cond1,3.0.4,60.034735994902476,
emports,,&&&&&&&,right,nonword,,,,,,,,,,,,,,,0,69,69,163,,,,,,,,,,,,,LDT,right,0.5670680077489578,,,,,,1,,,,,,,,,,,,,right,1,0.5670680077489578,,,,,,,1069,2019_Mar_14_1402,mf_amp_cond1,3.0.4,60.034735994902476,
ebbitter,,&&&&&&&&,right,nonword,,,,,,,,,,,,,,,0,70,70,162,,,,,,,,,,,,,LDT,right,0.5170484431728255,,,,,,1,,,,,,,,,,,,,right,1,0.5170484431728255,,,,,,,1069,2019_Mar_14_1402,mf_amp_cond1,3.0.4,60.034735994902476,
friends,,&&&&&&&,left,loyalty.virtue,,,,,,,,,,,,,,,0,71,71,119,,,,,,,,,,,,,LDT,right,0.6504227231323512,,,,,,0,,,,,,,,,,,,,right,0,0.6504227231323512,,,,,,,1069,2019_Mar_14_1402,mf_amp_cond1,3.0.4,60.034735994902476,
openet,,&&&&&&,None,nonword,,,,,,,,,,,,,,,0,72,72,73,,,,,,,,,,,,,LDT,right,0.5503941780953028,,,,,,0,,,,,,,,,,,,,right,0,0.5503941780953028,,,,,,,1069,2019_Mar_14_1402,mf_amp_cond1,3.0.4,60.034735994902476,
bruthfulness,,&&&&&&&&&&&&,right,nonword,,,,,,,,,,,,,,,0,73,73,170,,,,,,,,,,,,,LDT,right,1.7007251722325236,,,,,,1,,,,,,,,,,,,,right,1,1.7007251722325236,,,,,,,1069,2019_Mar_14_1402,mf_amp_cond1,3.0.4,60.034735994902476,
couldnt,,&&&&&&&,left,neutral,,,,,,,,,,,,,,,0,74,74,118,,,,,,,,,,,,,LDT,left,1.1839025235094596,,,,,,1,,,,,,,,,,,,,left,1,1.1839025235094596,,,,,,,1069,2019_Mar_14_1402,mf_amp_cond1,3.0.4,60.034735994902476,
corruption,,&&&&&&&&&&,left,sanctity.vice,,,,,,,,,,,,,,,0,75,75,89,,,,,,,,,,,,,LDT,left,1.0005304886653903,,,,,,1,,,,,,,,,,,,,left,1,1.0005304886653903,,,,,,,1069,2019_Mar_14_1402,mf_amp_cond1,3.0.4,60.034735994902476,
harassment,,&&&&&&&&&&,left,sanctity.vice,,,,,,,,,,,,,,,0,76,76,172,,,,,,,,,,,,,LDT,right,1.1005567885870278,,,,,,0,,,,,,,,,,,,,right,0,1.1005567885870278,,,,,,,1069,2019_Mar_14_1402,mf_amp_cond1,3.0.4,60.034735994902476,
forty,,&&&&&,left,neutral,,,,,,,,,,,,,,,0,77,77,70,,,,,,,,,,,,,LDT,right,0.9171930927423091,,,,,,0,,,,,,,,,,,,,right,0,0.9171930927423091,,,,,,,1069,2019_Mar_14_1402,mf_amp_cond1,3.0.4,60.034735994902476,
chressing,,&&&&&&&&&,None,nonword,,,,,,,,,,,,,,,0,78,78,122,,,,,,,,,,,,,LDT,right,0.9171606989364136,,,,,,0,,,,,,,,,,,,,right,0,0.9171606989364136,,,,,,,1069,2019_Mar_14_1402,mf_amp_cond1,3.0.4,60.034735994902476,
towards,,&&&&&&&,left,neutral,,,,,,,,,,,,,,,0,79,79,103,,,,,,,,,,,,,LDT,right,0.6337787214390573,,,,,,0,,,,,,,,,,,,,right,0,0.6337787214390573,,,,,,,1069,2019_Mar_14_1402,mf_amp_cond1,3.0.4,60.034735994902476,
latterly,,&&&&&&&&,left,neutral,,,,,,,,,,,,,,,0,80,80,60,,,,,,,,,,,,,LDT,right,0.6170837235558793,,,,,,0,,,,,,,,,,,,,right,0,0.6170837235558793,,,,,,,1069,2019_Mar_14_1402,mf_amp_cond1,3.0.4,60.034735994902476,
compassion,,&&&&&&&&&&,left,care.virtue,,,,,,,,,,,,,,,0,81,81,30,,,,,,,,,,,,,LDT,right,0.8337735897468974,,,,,,0,,,,,,,,,,,,,right,0,0.8337735897468974,,,,,,,1069,2019_Mar_14_1402,mf_amp_cond1,3.0.4,60.034735994902476,
vurtain,,&&&&&&&,right,nonword,,,,,,,,,,,,,,,0,82,82,62,,,,,,,,,,,,,LDT,right,0.6670984771703843,,,,,,1,,,,,,,,,,,,,right,1,0.6670984771703843,,,,,,,1069,2019_Mar_14_1402,mf_amp_cond1,3.0.4,60.034735994902476,
prosecution,,&&&&&&&&&&&,left,authority.vice,,,,,,,,,,,,,,,0,83,83,0,,,,,,,,,,,,,LDT,right,1.1005449215492717,,,,,,0,,,,,,,,,,,,,right,0,1.1005449215492717,,,,,,,1069,2019_Mar_14_1402,mf_amp_cond1,3.0.4,60.034735994902476,
drumbled,,&&&&&&&&,right,nonword,,,,,,,,,,,,,,,0,84,84,157,,,,,,,,,,,,,LDT,right,0.6670975149779679,,,,,,1,,,,,,,,,,,,,right,1,0.6670975149779679,,,,,,,1069,2019_Mar_14_1402,mf_amp_cond1,3.0.4,60.034735994902476,
forepo,,&&&&&&,right,nonword,,,,,,,,,,,,,,,0,85,85,18,,,,,,,,,,,,,LDT,right,0.6503954610182063,,,,,,1,,,,,,,,,,,,,right,1,0.6503954610182063,,,,,,,1069,2019_Mar_14_1402,mf_amp_cond1,3.0.4,60.034735994902476,
besides,,&&&&&&&,left,neutral,,,,,,,,,,,,,,,0,86,86,150,,,,,,,,,,,,,LDT,right,0.6504217609401621,,,,,,0,,,,,,,,,,,,,right,0,0.6504217609401621,,,,,,,1069,2019_Mar_14_1402,mf_amp_cond1,3.0.4,60.034735994902476,
brotesque,,&&&&&&&&&,right,nonword,,,,,,,,,,,,,,,0,87,87,10,,,,,,,,,,,,,LDT,right,0.7671241356304108,,,,,,1,,,,,,,,,,,,,right,1,0.7671241356304108,,,,,,,1069,2019_Mar_14_1402,mf_amp_cond1,3.0.4,60.034735994902476,
eight,,&&&&&,left,neutral,,,,,,,,,,,,,,,0,88,88,134,,,,,,,,,,,,,LDT,right,0.8003271453678735,,,,,,0,,,,,,,,,,,,,right,0,0.8003271453678735,,,,,,,1069,2019_Mar_14_1402,mf_amp_cond1,3.0.4,60.034735994902476,
anyhow,,&&&&&&,left,neutral,,,,,,,,,,,,,,,0,89,89,42,,,,,,,,,,,,,LDT,right,1.1672335048174318,,,,,,0,,,,,,,,,,,,,right,0,1.1672335048174318,,,,,,,1069,2019_Mar_14_1402,mf_amp_cond1,3.0.4,60.034735994902476,
neutralust,,&&&&&&&&&&,right,nonword,,,,,,,,,,,,,,,0,90,90,111,,,,,,,,,,,,,LDT,right,0.7671250978230546,,,,,,1,,,,,,,,,,,,,right,1,0.7671250978230546,,,,,,,1069,2019_Mar_14_1402,mf_amp_cond1,3.0.4,60.034735994902476,
were,,&&&&,left,neutral,,,,,,,,,,,,,,,0,91,91,183,,,,,,,,,,,,,LDT,right,0.5504047622100643,,,,,,0,,,,,,,,,,,,,right,0,0.5504047622100643,,,,,,,1069,2019_Mar_14_1402,mf_amp_cond1,3.0.4,60.034735994902476,
either,,&&&&&&,left,neutral,,,,,,,,,,,,,,,0,92,92,65,,,,,,,,,,,,,LDT,right,0.6004041207488626,,,,,,0,,,,,,,,,,,,,right,0,0.6004041207488626,,,,,,,1069,2019_Mar_14_1402,mf_amp_cond1,3.0.4,60.034735994902476,
scandal,,&&&&&&&,left,sanctity.vice,,,,,,,,,,,,,,,0,93,93,169,,,,,,,,,,,,,LDT,right,0.6504172707095677,,,,,,0,,,,,,,,,,,,,right,0,0.6504172707095677,,,,,,,1069,2019_Mar_14_1402,mf_amp_cond1,3.0.4,60.034735994902476,
lempestuous,,&&&&&&&&&&&,right,nonword,,,,,,,,,,,,,,,0,94,94,139,,,,,,,,,,,,,LDT,right,0.7504509474385941,,,,,,1,,,,,,,,,,,,,right,1,0.7504509474385941,,,,,,,1069,2019_Mar_14_1402,mf_amp_cond1,3.0.4,60.034735994902476,
with,,&&&&,left,neutral,,,,,,,,,,,,,,,0,95,95,83,,,,,,,,,,,,,LDT,right,0.7004297792088892,,,,,,0,,,,,,,,,,,,,right,0,0.7004297792088892,,,,,,,1069,2019_Mar_14_1402,mf_amp_cond1,3.0.4,60.034735994902476,
seem,,&&&&,left,neutral,,,,,,,,,,,,,,,0,96,96,171,,,,,,,,,,,,,LDT,right,0.6004041207486353,,,,,,0,,,,,,,,,,,,,right,0,0.6004041207486353,,,,,,,1069,2019_Mar_14_1402,mf_amp_cond1,3.0.4,60.034735994902476,
festate,,&&&&&&&,right,nonword,,,,,,,,,,,,,,,0,97,97,178,,,,,,,,,,,,,LDT,right,0.6170875723246354,,,,,,1,,,,,,,,,,,,,right,1,0.6170875723246354,,,,,,,1069,2019_Mar_14_1402,mf_amp_cond1,3.0.4,60.034735994902476,
pulge,,&&&&&,right,nonword,,,,,,,,,,,,,,,0,98,98,101,,,,,,,,,,,,,LDT,right,0.5336622961754074,,,,,,1,,,,,,,,,,,,,right,1,0.5336622961754074,,,,,,,1069,2019_Mar_14_1402,mf_amp_cond1,3.0.4,60.034735994902476,
credit,,&&&&&&,left,fairness.virtue,,,,,,,,,,,,,,,0,99,99,148,,,,,,,,,,,,,LDT,right,0.7504503059772105,,,,,,0,,,,,,,,,,,,,right,0,0.7504503059772105,,,,,,,1069,2019_Mar_14_1402,mf_amp_cond1,3.0.4,60.034735994902476,
else,,&&&&,left,neutral,,,,,,,,,,,,,,,0,100,100,196,,,,,,,,,,,,,LDT,right,0.6504153463249622,,,,,,0,,,,,,,,,,,,,right,0,0.6504153463249622,,,,,,,1069,2019_Mar_14_1402,mf_amp_cond1,3.0.4,60.034735994902476,
peace,,&&&&&,left,care.virtue,,,,,,,,,,,,,,,0,101,101,184,,,,,,,,,,,,,LDT,right,0.7171206075922782,,,,,,0,,,,,,,,,,,,,right,0,0.7171206075922782,,,,,,,1069,2019_Mar_14_1402,mf_amp_cond1,3.0.4,60.034735994902476,
injured,,&&&&&&&,left,care.vice,,,,,,,,,,,,,,,0,102,102,109,,,,,,,,,,,,,LDT,right,0.5670510090189964,,,,,,0,,,,,,,,,,,,,right,0,0.5670510090189964,,,,,,,1069,2019_Mar_14_1402,mf_amp_cond1,3.0.4,60.034735994902476,
nuckheap,,&&&&&&&&,right,nonword,,,,,,,,,,,,,,,0,103,103,50,,,,,,,,,,,,,LDT,right,0.7171132307851167,,,,,,1,,,,,,,,,,,,,right,1,0.7171132307851167,,,,,,,1069,2019_Mar_14_1402,mf_amp_cond1,3.0.4,60.034735994902476,
although,,&&&&&&&&,left,neutral,,,,,,,,,,,,,,,0,104,104,26,,,,,,,,,,,,,LDT,right,0.48373927155626006,,,,,,0,,,,,,,,,,,,,right,0,0.48373927155626006,,,,,,,1069,2019_Mar_14_1402,mf_amp_cond1,3.0.4,60.034735994902476,
done,,&&&&,left,neutral,,,,,,,,,,,,,,,0,105,105,77,,,,,,,,,,,,,LDT,right,0.7171141929773057,,,,,,0,,,,,,,,,,,,,right,0,0.7171141929773057,,,,,,,1069,2019_Mar_14_1402,mf_amp_cond1,3.0.4,60.034735994902476,
vicissifude,,&&&&&&&&&&&,right,nonword,,,,,,,,,,,,,,,0,106,106,116,,,,,,,,,,,,,LDT,right,0.7504528718231995,,,,,,1,,,,,,,,,,,,,right,1,0.7504528718231995,,,,,,,1069,2019_Mar_14_1402,mf_amp_cond1,3.0.4,60.034735994902476,
front,,&&&&&,left,neutral,,,,,,,,,,,,,,,0,107,107,91,,,,,,,,,,,,,LDT,right,0.8004733985912935,,,,,,0,,,,,,,,,,,,,right,0,0.8004733985912935,,,,,,,1069,2019_Mar_14_1402,mf_amp_cond1,3.0.4,60.034735994902476,
