words,nonwords,mask,corr_ans,category,tweets,topic,AMP_pracloop.thisRepN,AMP_pracloop.thisTrialN,AMP_pracloop.thisN,AMP_pracloop.thisIndex,AMP_trials.thisRepN,AMP_trials.thisTrialN,AMP_trials.thisN,AMP_trials.thisIndex,LDT_pracloop.thisRepN,LDT_pracloop.thisTrialN,LDT_pracloop.thisN,LDT_pracloop.thisIndex,LDT_trials.thisRepN,LDT_trials.thisTrialN,LDT_trials.thisN,LDT_trials.thisIndex,tweet_loop.thisRepN,tweet_loop.thisTrialN,tweet_loop.thisN,tweet_loop.thisIndex,begin_key.keys,begin_key.rt,key_resp_AMP_instr1.keys,key_resp_AMP_instr1.rt,resp_AMP_ready1.keys,resp_AMP_ready1.rt,resp_AMP_prac.keys,resp_AMP_prac.rt,task,keypress,RT,resp_AMP_ready.keys,resp_AMP_ready.rt,resp_AMP.keys,resp_AMP.corr,resp_AMP.rt,corr,AMP_nonword_rating.response,AMP_nonword_rating.rt,AMP_word_rating.response,AMP_word_rating.rt,AMP_random_rating.response,AMP_random_rating.rt,key_resp_LDT_instr.keys,key_resp_LDT_instr.rt,resp_LDT_prac.keys,resp_LDT_prac.rt,resp_LDT_ready.keys,resp_LDT_ready.rt,resp_LDT.keys,resp_LDT.corr,resp_LDT.rt,LDT_rating.response,LDT_rating.rt,key_resp_LDT_instr_2.keys,key_resp_LDT_instr_2.rt,resp_tweets.keys,resp_tweets.rt,participant,date,expName,psychopyVersion,frameRate,
,,,,,,,,,,,,,,,,,,,,,,,,,,,right,541.9039111929028,,,,,,,,,,,,,,,,,,,,,,,,,,,,,,,,,,,,,1071,2019_Mar_14_1403,mf_amp_cond1,3.0.4,59.987321266414924,
,,,,,,,,,,,,,,,,,,,,,,,,,,,,,right,0.5003702754597725,,,,,,,,,,,,,,,,,,,,,,,,,,,,,,,,,,,1071,2019_Mar_14_1403,mf_amp_cond1,3.0.4,59.987321266414924,
,,,,,,,,,,,,,,,,,,,,,,,,,,,,,,,right,1.650661701009085,,,,,,,,,,,,,,,,,,,,,,,,,,,,,,,,,1071,2019_Mar_14_1403,mf_amp_cond1,3.0.4,59.987321266414924,
keyboard,senk,&&&&,,,,,0,0,0,2,,,,,,,,,,,,,,,,,,,,,,,right,4.4180549457350935,AMP_prac,right,4.4180549457350935,,,,,,,,,,,,,,,,,,,,,,,,,,,,1071,2019_Mar_14_1403,mf_amp_cond1,3.0.4,59.987321266414924,
car,cemtuper,&&&&&&&&,,,,,0,1,1,0,,,,,,,,,,,,,,,,,,,,,,,right,6.935230499280124,AMP_prac,right,6.935230499280124,,,,,,,,,,,,,,,,,,,,,,,,,,,,1071,2019_Mar_14_1403,mf_amp_cond1,3.0.4,59.987321266414924,
scarf,bisebell,&&&&&&&&,,,,,0,2,2,3,,,,,,,,,,,,,,,,,,,,,,,right,4.0346314195646755,AMP_prac,right,4.0346314195646755,,,,,,,,,,,,,,,,,,,,,,,,,,,,1071,2019_Mar_14_1403,mf_amp_cond1,3.0.4,59.987321266414924,
banana,kacket,&&&&&&,,,,,0,3,3,1,,,,,,,,,,,,,,,,,,,,,,,right,1.7507005406439475,AMP_prac,right,1.7507005406439475,,,,,,,,,,,,,,,,,,,,,,,,,,,,1071,2019_Mar_14_1403,mf_amp_cond1,3.0.4,59.987321266414924,
,,,,,,,,,,,,,,,,,,,,,,,,,,,,,,,,,,,,,,right,1.033833459110383,,,,,,,,,,,,,,,,,,,,,,,,,,1071,2019_Mar_14_1403,mf_amp_cond1,3.0.4,59.987321266414924,
drug,imebreaker,&&&&&&&&&&,right,sanctity.vice,,,,,,,0,0,0,0,,,,,,,,,,,,,,,,,,,,,AMP,right,4.401393031123916,,,right,1,4.401393031123916,1,,,,,,,,,,,,,,,,,,,,,,1071,2019_Mar_14_1403,mf_amp_cond1,3.0.4,59.987321266414924,
encourage,chressing,&&&&&&&&&,left,authority.virtue,,,,,,,0,1,1,1,,,,,,,,,,,,,,,,,,,,,AMP,right,2.284205418369538,,,right,0,2.284205418369538,0,,,,,,,,,,,,,,,,,,,,,,1071,2019_Mar_14_1403,mf_amp_cond1,3.0.4,59.987321266414924,
perfect,bycled,&&&&&&,left,sanctity.virtue,,,,,,,0,2,2,2,,,,,,,,,,,,,,,,,,,,,AMP,right,7.002054876458942,,,right,0,7.002054876458942,0,,,,,,,,,,,,,,,,,,,,,,1071,2019_Mar_14_1403,mf_amp_cond1,3.0.4,59.987321266414924,
suicide,nomparisons,&&&&&&&&&&&,right,care.vice,,,,,,,0,3,3,3,,,,,,,,,,,,,,,,,,,,,AMP,left,1.3172505387356068,,,left,0,1.3172505387356068,0,,,,,,,,,,,,,,,,,,,,,,1071,2019_Mar_14_1403,mf_amp_cond1,3.0.4,59.987321266414924,
interests,drumbled,&&&&&&&&,left,fairness.virtue,,,,,,,0,4,4,4,,,,,,,,,,,,,,,,,,,,,AMP,right,2.117511864369817,,,right,0,2.117511864369817,0,,,,,,,,,,,,,,,,,,,,,,1071,2019_Mar_14_1403,mf_amp_cond1,3.0.4,59.987321266414924,
embrace,synchronazers,&&&&&&&&&&&&&,left,authority.virtue,,,,,,,0,5,5,5,,,,,,,,,,,,,,,,,,,,,AMP,right,1.1338806375599688,,,right,0,1.1338806375599688,0,,,,,,,,,,,,,,,,,,,,,,1071,2019_Mar_14_1403,mf_amp_cond1,3.0.4,59.987321266414924,
attacks,ejanulated,&&&&&&&&&&,right,care.vice,,,,,,,0,6,6,6,,,,,,,,,,,,,,,,,,,,,AMP,left,1.2005513881078969,,,left,0,1.2005513881078969,0,,,,,,,,,,,,,,,,,,,,,,1071,2019_Mar_14_1403,mf_amp_cond1,3.0.4,59.987321266414924,
leact,Lacedonia,&&&&&&&&&,None,nonword,,,,,,,0,7,7,7,,,,,,,,,,,,,,,,,,,,,AMP,left,1.2838821289251428,,,left,0,1.2838821289251428,0,,,,,,,,,,,,,,,,,,,,,,1071,2019_Mar_14_1403,mf_amp_cond1,3.0.4,59.987321266414924,
integrity,gondensed,&&&&&&&&&,left,fairness.virtue,,,,,,,0,8,8,8,,,,,,,,,,,,,,,,,,,,,AMP,right,1.717348487739855,,,right,0,1.717348487739855,0,,,,,,,,,,,,,,,,,,,,,,1071,2019_Mar_14_1403,mf_amp_cond1,3.0.4,59.987321266414924,
racist,abointment,&&&&&&&&&&,right,sanctity.vice,,,,,,,0,9,9,9,,,,,,,,,,,,,,,,,,,,,AMP,left,0.7004110715088245,,,left,0,0.7004110715088245,0,,,,,,,,,,,,,,,,,,,,,,1071,2019_Mar_14_1403,mf_amp_cond1,3.0.4,59.987321266414924,
sliptery,baklara,&&&&&&&,None,nonword,,,,,,,0,10,10,10,,,,,,,,,,,,,,,,,,,,,AMP,left,0.4668889709228097,,,left,0,0.4668889709228097,0,,,,,,,,,,,,,,,,,,,,,,1071,2019_Mar_14_1403,mf_amp_cond1,3.0.4,59.987321266414924,
corruption,photocalkodes,&&&&&&&&&&&&&,right,sanctity.vice,,,,,,,0,11,11,11,,,,,,,,,,,,,,,,,,,,,AMP,right,0.41700489648792427,,,right,1,0.41700489648792427,1,,,,,,,,,,,,,,,,,,,,,,1071,2019_Mar_14_1403,mf_amp_cond1,3.0.4,59.987321266414924,
win,proached,&&&&&&&&,left,fairness.virtue,,,,,,,0,12,12,12,,,,,,,,,,,,,,,,,,,,,AMP,left,0.5837099965394827,,,left,1,0.5837099965394827,1,,,,,,,,,,,,,,,,,,,,,,1071,2019_Mar_14_1403,mf_amp_cond1,3.0.4,59.987321266414924,
accused,chonograph,&&&&&&&&&&,right,fairness.vice,,,,,,,0,13,13,13,,,,,,,,,,,,,,,,,,,,,AMP,left,0.6504198753732453,,,left,0,0.6504198753732453,0,,,,,,,,,,,,,,,,,,,,,,1071,2019_Mar_14_1403,mf_amp_cond1,3.0.4,59.987321266414924,
crime,feleological,&&&&&&&&&&&&,right,fairness.vice,,,,,,,0,14,14,14,,,,,,,,,,,,,,,,,,,,,AMP,left,0.7004469925582271,,,left,0,0.7004469925582271,0,,,,,,,,,,,,,,,,,,,,,,1071,2019_Mar_14_1403,mf_amp_cond1,3.0.4,59.987321266414924,
good,wonderfujnoss,&&&&&&&&&&&&&,left,care.virtue,,,,,,,0,15,15,15,,,,,,,,,,,,,,,,,,,,,AMP,right,0.2836348509870277,,,right,0,0.2836348509870277,0,,,,,,,,,,,,,,,,,,,,,,1071,2019_Mar_14_1403,mf_amp_cond1,3.0.4,59.987321266414924,
friends,gationwide,&&&&&&&&&&,left,loyalty.virtue,,,,,,,0,16,16,16,,,,,,,,,,,,,,,,,,,,,AMP,right,0.65039133096775,,,right,0,0.65039133096775,0,,,,,,,,,,,,,,,,,,,,,,1071,2019_Mar_14_1403,mf_amp_cond1,3.0.4,59.987321266414924,
safety,erks,&&&&,left,care.virtue,,,,,,,0,17,17,17,,,,,,,,,,,,,,,,,,,,,AMP,left,0.46702784426543076,,,left,1,0.46702784426543076,1,,,,,,,,,,,,,,,,,,,,,,1071,2019_Mar_14_1403,mf_amp_cond1,3.0.4,59.987321266414924,
serial,thadowed,&&&&&&&&,right,sanctity.vice,,,,,,,0,18,18,18,,,,,,,,,,,,,,,,,,,,,AMP,left,0.4170129145795727,,,left,0,0.4170129145795727,0,,,,,,,,,,,,,,,,,,,,,,1071,2019_Mar_14_1403,mf_amp_cond1,3.0.4,59.987321266414924,
health,gedious,&&&&&&&,left,care.virtue,,,,,,,0,19,19,19,,,,,,,,,,,,,,,,,,,,,AMP,right,0.8338070956260708,,,right,0,0.8338070956260708,0,,,,,,,,,,,,,,,,,,,,,,1071,2019_Mar_14_1403,mf_amp_cond1,3.0.4,59.987321266414924,
fontacts,frojecting,&&&&&&&&&&,None,nonword,,,,,,,0,20,20,20,,,,,,,,,,,,,,,,,,,,,AMP,left,0.7171133973006363,,,left,0,0.7171133973006363,0,,,,,,,,,,,,,,,,,,,,,,1071,2019_Mar_14_1403,mf_amp_cond1,3.0.4,59.987321266414924,
fair,gournful,&&&&&&&&,left,fairness.virtue,,,,,,,0,21,21,21,,,,,,,,,,,,,,,,,,,,,AMP,left,0.35066577419979694,,,left,1,0.35066577419979694,1,,,,,,,,,,,,,,,,,,,,,,1071,2019_Mar_14_1403,mf_amp_cond1,3.0.4,59.987321266414924,
police,fegard,&&&&&&,right,authority.vice,,,,,,,0,22,22,22,,,,,,,,,,,,,,,,,,,,,AMP,left,0.5837266741693838,,,left,0,0.5837266741693838,0,,,,,,,,,,,,,,,,,,,,,,1071,2019_Mar_14_1403,mf_amp_cond1,3.0.4,59.987321266414924,
honored,aubos,&&&&&,left,authority.virtue,,,,,,,0,23,23,23,,,,,,,,,,,,,,,,,,,,,AMP,left,0.36697168555360804,,,left,1,0.36697168555360804,1,,,,,,,,,,,,,,,,,,,,,,1071,2019_Mar_14_1403,mf_amp_cond1,3.0.4,59.987321266414924,
pulge,lachelor,&&&&&&&&,None,nonword,,,,,,,0,24,24,24,,,,,,,,,,,,,,,,,,,,,AMP,left,0.4003481134552658,,,left,0,0.4003481134552658,0,,,,,,,,,,,,,,,,,,,,,,1071,2019_Mar_14_1403,mf_amp_cond1,3.0.4,59.987321266414924,
terrorist,ugeasily,&&&&&&&&,right,loyalty.vice,,,,,,,0,25,25,25,,,,,,,,,,,,,,,,,,,,,AMP,left,0.4670243163052419,,,left,0,0.4670243163052419,0,,,,,,,,,,,,,,,,,,,,,,1071,2019_Mar_14_1403,mf_amp_cond1,3.0.4,59.987321266414924,
pharing,disregord,&&&&&&&&&,None,nonword,,,,,,,0,26,26,26,,,,,,,,,,,,,,,,,,,,,AMP,left,0.4503511763662118,,,left,0,0.4503511763662118,0,,,,,,,,,,,,,,,,,,,,,,1071,2019_Mar_14_1403,mf_amp_cond1,3.0.4,59.987321266414924,
commitment,ittutable,&&&&&&&&&,left,sanctity.virtue,,,,,,,0,27,27,27,,,,,,,,,,,,,,,,,,,,,AMP,left,0.5170418117809277,,,left,1,0.5170418117809277,1,,,,,,,,,,,,,,,,,,,,,,1071,2019_Mar_14_1403,mf_amp_cond1,3.0.4,59.987321266414924,
clean,hasks,&&&&&,left,sanctity.virtue,,,,,,,0,28,28,28,,,,,,,,,,,,,,,,,,,,,AMP,right,0.18363546036198386,,,right,0,0.18363546036198386,0,,,,,,,,,,,,,,,,,,,,,,1071,2019_Mar_14_1403,mf_amp_cond1,3.0.4,59.987321266414924,
officers,elduringly,&&&&&&&&&&,right,authority.vice,,,,,,,0,29,29,29,,,,,,,,,,,,,,,,,,,,,AMP,left,1.1171933857801832,,,left,0,1.1171933857801832,0,,,,,,,,,,,,,,,,,,,,,,1071,2019_Mar_14_1403,mf_amp_cond1,3.0.4,59.987321266414924,
support,squets,&&&&&&,left,loyalty.virtue,,,,,,,0,30,30,30,,,,,,,,,,,,,,,,,,,,,AMP,right,2.417529921111509,,,right,0,2.417529921111509,0,,,,,,,,,,,,,,,,,,,,,,1071,2019_Mar_14_1403,mf_amp_cond1,3.0.4,59.987321266414924,
restore,nomaric,&&&&&&&,left,care.virtue,,,,,,,0,31,31,31,,,,,,,,,,,,,,,,,,,,,AMP,left,0.6003914752936907,,,left,1,0.6003914752936907,1,,,,,,,,,,,,,,,,,,,,,,1071,2019_Mar_14_1403,mf_amp_cond1,3.0.4,59.987321266414924,
freedom,dormandi,&&&&&&&&,left,sanctity.virtue,,,,,,,0,32,32,32,,,,,,,,,,,,,,,,,,,,,AMP,left,0.36700022995887593,,,left,1,0.36700022995887593,1,,,,,,,,,,,,,,,,,,,,,,1071,2019_Mar_14_1403,mf_amp_cond1,3.0.4,59.987321266414924,
free,vurtain,&&&&&&&,left,fairness.virtue,,,,,,,0,33,33,33,,,,,,,,,,,,,,,,,,,,,AMP,left,0.2836348509870277,,,left,1,0.2836348509870277,1,,,,,,,,,,,,,,,,,,,,,,1071,2019_Mar_14_1403,mf_amp_cond1,3.0.4,59.987321266414924,
values,supervuned,&&&&&&&&&&,left,sanctity.virtue,,,,,,,0,34,34,34,,,,,,,,,,,,,,,,,,,,,AMP,left,0.7504413959304657,,,left,1,0.7504413959304657,1,,,,,,,,,,,,,,,,,,,,,,1071,2019_Mar_14_1403,mf_amp_cond1,3.0.4,59.987321266414924,
men,chared,&&&&&&,right,loyalty.vice,,,,,,,0,35,35,35,,,,,,,,,,,,,,,,,,,,,AMP,left,0.4170100280666702,,,left,0,0.4170100280666702,0,,,,,,,,,,,,,,,,,,,,,,1071,2019_Mar_14_1403,mf_amp_cond1,3.0.4,59.987321266414924,
protesters,letish,&&&&&&,right,authority.vice,,,,,,,0,36,36,36,,,,,,,,,,,,,,,,,,,,,AMP,left,0.3170186555330474,,,left,0,0.3170186555330474,0,,,,,,,,,,,,,,,,,,,,,,1071,2019_Mar_14_1403,mf_amp_cond1,3.0.4,59.987321266414924,
groups,sowntrodden,&&&&&&&&&&&,right,loyalty.vice,,,,,,,0,37,37,37,,,,,,,,,,,,,,,,,,,,,AMP,right,0.5170453397411165,,,right,1,0.5170453397411165,1,,,,,,,,,,,,,,,,,,,,,,1071,2019_Mar_14_1403,mf_amp_cond1,3.0.4,59.987321266414924,
loyalty,simplustic,&&&&&&&&&&,left,loyalty.virtue,,,,,,,0,38,38,38,,,,,,,,,,,,,,,,,,,,,AMP,right,0.2002851874742646,,,right,0,0.2002851874742646,0,,,,,,,,,,,,,,,,,,,,,,1071,2019_Mar_14_1403,mf_amp_cond1,3.0.4,59.987321266414924,
pleasant,ning,&&&&,None,control,,,,,,,0,39,39,39,,,,,,,,,,,,,,,,,,,,,AMP,right,0.1502914255493124,,,right,0,0.1502914255493124,0,,,,,,,,,,,,,,,,,,,,,,1071,2019_Mar_14_1403,mf_amp_cond1,3.0.4,59.987321266414924,
ablow,hescribe,&&&&&&&&,None,nonword,,,,,,,0,40,40,40,,,,,,,,,,,,,,,,,,,,,AMP,left,0.08360495954229918,,,left,0,0.08360495954229918,0,,,,,,,,,,,,,,,,,,,,,,1071,2019_Mar_14_1403,mf_amp_cond1,3.0.4,59.987321266414924,
unpleasant,papert,&&&&&&,None,control,,,,,,,0,41,41,41,,,,,,,,,,,,,,,,,,,,,AMP,left,0.11694482494749536,,,left,0,0.11694482494749536,0,,,,,,,,,,,,,,,,,,,,,,1071,2019_Mar_14_1403,mf_amp_cond1,3.0.4,59.987321266414924,
war,frocessing,&&&&&&&&&&,right,sanctity.vice,,,,,,,0,42,42,42,,,,,,,,,,,,,,,,,,,,,AMP,left,1.083848068072939,,,left,0,1.083848068072939,0,,,,,,,,,,,,,,,,,,,,,,1071,2019_Mar_14_1403,mf_amp_cond1,3.0.4,59.987321266414924,
chadows,gowlands,&&&&&&&&,None,nonword,,,,,,,0,43,43,43,,,,,,,,,,,,,,,,,,,,,AMP,left,0.2836431898019782,,,left,0,0.2836431898019782,0,,,,,,,,,,,,,,,,,,,,,,1071,2019_Mar_14_1403,mf_amp_cond1,3.0.4,59.987321266414924,
scock,unscothed,&&&&&&&&&,None,nonword,,,,,,,0,44,44,44,,,,,,,,,,,,,,,,,,,,,AMP,left,0.1669488500292573,,,left,0,0.1669488500292573,0,,,,,,,,,,,,,,,,,,,,,,1071,2019_Mar_14_1403,mf_amp_cond1,3.0.4,59.987321266414924,
sexual,fonderland,&&&&&&&&&&,right,sanctity.vice,,,,,,,0,45,45,45,,,,,,,,,,,,,,,,,,,,,AMP,right,0.3169853002727905,,,right,1,0.3169853002727905,1,,,,,,,,,,,,,,,,,,,,,,1071,2019_Mar_14_1403,mf_amp_cond1,3.0.4,59.987321266414924,
improve,uller,&&&&&,left,care.virtue,,,,,,,0,46,46,46,,,,,,,,,,,,,,,,,,,,,AMP,right,0.3336937198139367,,,right,0,0.3336937198139367,0,,,,,,,,,,,,,,,,,,,,,,1071,2019_Mar_14_1403,mf_amp_cond1,3.0.4,59.987321266414924,
lenon,gikely,&&&&&&,None,nonword,,,,,,,0,47,47,47,,,,,,,,,,,,,,,,,,,,,AMP,left,1.2839485187216724,,,left,0,1.2839485187216724,0,,,,,,,,,,,,,,,,,,,,,,1071,2019_Mar_14_1403,mf_amp_cond1,3.0.4,59.987321266414924,
strong,pescinded,&&&&&&&&&,left,loyalty.virtue,,,,,,,0,48,48,48,,,,,,,,,,,,,,,,,,,,,AMP,right,0.2669722949285642,,,right,0,0.2669722949285642,0,,,,,,,,,,,,,,,,,,,,,,1071,2019_Mar_14_1403,mf_amp_cond1,3.0.4,59.987321266414924,
dignity,pafer,&&&&&,left,sanctity.virtue,,,,,,,0,49,49,49,,,,,,,,,,,,,,,,,,,,,AMP,right,0.2669504857199172,,,right,0,0.2669504857199172,0,,,,,,,,,,,,,,,,,,,,,,1071,2019_Mar_14_1403,mf_amp_cond1,3.0.4,59.987321266414924,
hope,Daptist,&&&&&&&,left,loyalty.virtue,,,,,,,0,50,50,50,,,,,,,,,,,,,,,,,,,,,AMP,right,0.3836762564108085,,,right,0,0.3836762564108085,0,,,,,,,,,,,,,,,,,,,,,,1071,2019_Mar_14_1403,mf_amp_cond1,3.0.4,59.987321266414924,
protect,framatic,&&&&&&&&,left,fairness.virtue,,,,,,,0,51,51,51,,,,,,,,,,,,,,,,,,,,,AMP,right,0.3669893253545524,,,right,0,0.3669893253545524,0,,,,,,,,,,,,,,,,,,,,,,1071,2019_Mar_14_1403,mf_amp_cond1,3.0.4,59.987321266414924,
rejected,galamitous,&&&&&&&&&&,right,authority.vice,,,,,,,0,52,52,52,,,,,,,,,,,,,,,,,,,,,AMP,left,0.13361411620280705,,,left,0,0.13361411620280705,0,,,,,,,,,,,,,,,,,,,,,,1071,2019_Mar_14_1403,mf_amp_cond1,3.0.4,59.987321266414924,
gandbrake,laming,&&&&&&,None,nonword,,,,,,,0,53,53,53,,,,,,,,,,,,,,,,,,,,,AMP,left,0.8671408672817051,,,left,0,0.8671408672817051,0,,,,,,,,,,,,,,,,,,,,,,1071,2019_Mar_14_1403,mf_amp_cond1,3.0.4,59.987321266414924,
powerful,nackers,&&&&&&&,left,authority.virtue,,,,,,,0,54,54,54,,,,,,,,,,,,,,,,,,,,,AMP,right,0.31699267691669775,,,right,0,0.31699267691669775,0,,,,,,,,,,,,,,,,,,,,,,1071,2019_Mar_14_1403,mf_amp_cond1,3.0.4,59.987321266414924,
killed,divility,&&&&&&&&,right,care.vice,,,,,,,0,55,55,55,,,,,,,,,,,,,,,,,,,,,AMP,left,1.6673428590397634,,,left,0,1.6673428590397634,0,,,,,,,,,,,,,,,,,,,,,,1071,2019_Mar_14_1403,mf_amp_cond1,3.0.4,59.987321266414924,
critics,precificity,&&&&&&&&&&&,right,loyalty.vice,,,,,,,0,56,56,56,,,,,,,,,,,,,,,,,,,,,AMP,left,0.8004588914056967,,,left,0,0.8004588914056967,0,,,,,,,,,,,,,,,,,,,,,,1071,2019_Mar_14_1403,mf_amp_cond1,3.0.4,59.987321266414924,
fraud,nuckheap,&&&&&&&&,right,fairness.vice,,,,,,,0,57,57,57,,,,,,,,,,,,,,,,,,,,,AMP,left,0.6671039199165989,,,left,0,0.6671039199165989,0,,,,,,,,,,,,,,,,,,,,,,1071,2019_Mar_14_1403,mf_amp_cond1,3.0.4,59.987321266414924,
praise,bluently,&&&&&&&&,left,authority.virtue,,,,,,,0,58,58,58,,,,,,,,,,,,,,,,,,,,,AMP,right,0.2669629939425704,,,right,0,0.2669629939425704,0,,,,,,,,,,,,,,,,,,,,,,1071,2019_Mar_14_1403,mf_amp_cond1,3.0.4,59.987321266414924,
illegal,emports,&&&&&&&,right,fairness.vice,,,,,,,0,59,59,59,,,,,,,,,,,,,,,,,,,,,AMP,left,0.31699075257483855,,,left,0,0.31699075257483855,0,,,,,,,,,,,,,,,,,,,,,,1071,2019_Mar_14_1403,mf_amp_cond1,3.0.4,59.987321266414924,
failure,hefurbished,&&&&&&&&&&&,right,loyalty.vice,,,,,,,0,60,60,60,,,,,,,,,,,,,,,,,,,,,AMP,right,0.33367447639443526,,,right,1,0.33367447639443526,1,,,,,,,,,,,,,,,,,,,,,,1071,2019_Mar_14_1403,mf_amp_cond1,3.0.4,59.987321266414924,
charges,tabin,&&&&&,right,fairness.vice,,,,,,,0,61,61,61,,,,,,,,,,,,,,,,,,,,,AMP,left,0.9671835556002861,,,left,0,0.9671835556002861,0,,,,,,,,,,,,,,,,,,,,,,1071,2019_Mar_14_1403,mf_amp_cond1,3.0.4,59.987321266414924,
gun,faspberry,&&&&&&&&&,right,authority.vice,,,,,,,0,62,62,62,,,,,,,,,,,,,,,,,,,,,AMP,left,0.8671325284667546,,,left,0,0.8671325284667546,0,,,,,,,,,,,,,,,,,,,,,,1071,2019_Mar_14_1403,mf_amp_cond1,3.0.4,59.987321266414924,
lies,pullness,&&&&&&&&,right,fairness.vice,,,,,,,0,63,63,63,,,,,,,,,,,,,,,,,,,,,AMP,left,0.3503437676499743,,,left,0,0.3503437676499743,0,,,,,,,,,,,,,,,,,,,,,,1071,2019_Mar_14_1403,mf_amp_cond1,3.0.4,59.987321266414924,
care,lorthwhile,&&&&&&&&&&,left,care.virtue,,,,,,,0,64,64,64,,,,,,,,,,,,,,,,,,,,,AMP,right,0.2503062109096845,,,right,0,0.2503062109096845,0,,,,,,,,,,,,,,,,,,,,,,1071,2019_Mar_14_1403,mf_amp_cond1,3.0.4,59.987321266414924,
celebrated,chreams,&&&&&&&,left,authority.virtue,,,,,,,0,65,65,65,,,,,,,,,,,,,,,,,,,,,AMP,right,0.3003240271088998,,,right,0,0.3003240271088998,0,,,,,,,,,,,,,,,,,,,,,,1071,2019_Mar_14_1403,mf_amp_cond1,3.0.4,59.987321266414924,
help,tracious,&&&&&&&&,left,care.virtue,,,,,,,0,66,66,66,,,,,,,,,,,,,,,,,,,,,AMP,right,0.6337476976050311,,,right,0,0.6337476976050311,0,,,,,,,,,,,,,,,,,,,,,,1071,2019_Mar_14_1403,mf_amp_cond1,3.0.4,59.987321266414924,
violence,viscs,&&&&&,right,care.vice,,,,,,,0,67,67,67,,,,,,,,,,,,,,,,,,,,,AMP,left,0.2501484148713189,,,left,0,0.2501484148713189,0,,,,,,,,,,,,,,,,,,,,,,1071,2019_Mar_14_1403,mf_amp_cond1,3.0.4,59.987321266414924,
harassment,menizen,&&&&&&&,right,sanctity.vice,,,,,,,0,68,68,68,,,,,,,,,,,,,,,,,,,,,AMP,left,0.3503344666637531,,,left,0,0.3503344666637531,0,,,,,,,,,,,,,,,,,,,,,,1071,2019_Mar_14_1403,mf_amp_cond1,3.0.4,59.987321266414924,
victims,yane,&&&&,right,care.vice,,,,,,,0,69,69,69,,,,,,,,,,,,,,,,,,,,,AMP,left,0.867030538344352,,,left,0,0.867030538344352,0,,,,,,,,,,,,,,,,,,,,,,1071,2019_Mar_14_1403,mf_amp_cond1,3.0.4,59.987321266414924,
torture,taxpayung,&&&&&&&&&,right,care.vice,,,,,,,0,70,70,70,,,,,,,,,,,,,,,,,,,,,AMP,left,0.23362697722131998,,,left,0,0.23362697722131998,0,,,,,,,,,,,,,,,,,,,,,,1071,2019_Mar_14_1403,mf_amp_cond1,3.0.4,59.987321266414924,
promises,grovelire,&&&&&&&&&,left,fairness.virtue,,,,,,,0,71,71,71,,,,,,,,,,,,,,,,,,,,,AMP,right,2.017428444147072,,,right,0,2.017428444147072,0,,,,,,,,,,,,,,,,,,,,,,1071,2019_Mar_14_1403,mf_amp_cond1,3.0.4,59.987321266414924,
praised,troubla,&&&&&&&,left,loyalty.virtue,,,,,,,0,72,72,72,,,,,,,,,,,,,,,,,,,,,AMP,right,0.266979350848942,,,right,0,0.266979350848942,0,,,,,,,,,,,,,,,,,,,,,,1071,2019_Mar_14_1403,mf_amp_cond1,3.0.4,59.987321266414924,
blamed,ebbitter,&&&&&&&&,right,loyalty.vice,,,,,,,0,73,73,73,,,,,,,,,,,,,,,,,,,,,AMP,left,1.217204322456837,,,left,0,1.217204322456837,0,,,,,,,,,,,,,,,,,,,,,,1071,2019_Mar_14_1403,mf_amp_cond1,3.0.4,59.987321266414924,
energy,greaks,&&&&&&,left,sanctity.virtue,,,,,,,0,74,74,74,,,,,,,,,,,,,,,,,,,,,AMP,right,0.4836878345347486,,,right,0,0.4836878345347486,0,,,,,,,,,,,,,,,,,,,,,,1071,2019_Mar_14_1403,mf_amp_cond1,3.0.4,59.987321266414924,
arrests,perified,&&&&&&&&,right,authority.vice,,,,,,,0,75,75,75,,,,,,,,,,,,,,,,,,,,,AMP,left,0.20027973517198916,,,left,0,0.20027973517198916,0,,,,,,,,,,,,,,,,,,,,,,1071,2019_Mar_14_1403,mf_amp_cond1,3.0.4,59.987321266414924,
fighters,Oregoniuns,&&&&&&&&&&,right,authority.vice,,,,,,,0,76,76,76,,,,,,,,,,,,,,,,,,,,,AMP,left,1.0838679529394994,,,left,0,1.0838679529394994,0,,,,,,,,,,,,,,,,,,,,,,1071,2019_Mar_14_1403,mf_amp_cond1,3.0.4,59.987321266414924,
love,lempestuous,&&&&&&&&&&&,left,loyalty.virtue,,,,,,,0,77,77,77,,,,,,,,,,,,,,,,,,,,,AMP,right,0.18361846200832588,,,right,0,0.18361846200832588,0,,,,,,,,,,,,,,,,,,,,,,1071,2019_Mar_14_1403,mf_amp_cond1,3.0.4,59.987321266414924,
peaceful,refuejing,&&&&&&&&&,left,authority.virtue,,,,,,,0,78,78,78,,,,,,,,,,,,,,,,,,,,,AMP,right,0.33366068527743664,,,right,0,0.33366068527743664,0,,,,,,,,,,,,,,,,,,,,,,1071,2019_Mar_14_1403,mf_amp_cond1,3.0.4,59.987321266414924,
terrorists,baladroit,&&&&&&&&&,right,fairness.vice,,,,,,,0,79,79,79,,,,,,,,,,,,,,,,,,,,,AMP,left,0.5337127066543417,,,left,0,0.5337127066543417,0,,,,,,,,,,,,,,,,,,,,,,1071,2019_Mar_14_1403,mf_amp_cond1,3.0.4,59.987321266414924,
betrayal,wump,&&&&,right,loyalty.vice,,,,,,,0,80,80,80,,,,,,,,,,,,,,,,,,,,,AMP,left,1.9340832707655409,,,left,0,1.9340832707655409,0,,,,,,,,,,,,,,,,,,,,,,1071,2019_Mar_14_1403,mf_amp_cond1,3.0.4,59.987321266414924,
victim,ammessment,&&&&&&&&&&,right,care.vice,,,,,,,0,81,81,81,,,,,,,,,,,,,,,,,,,,,AMP,left,0.9171541933496883,,,left,0,0.9171541933496883,0,,,,,,,,,,,,,,,,,,,,,,1071,2019_Mar_14_1403,mf_amp_cond1,3.0.4,59.987321266414924,
love,tracious,&&&&&&&&,left,loyalty.virtue,,,,,,,0,82,82,82,,,,,,,,,,,,,,,,,,,,,AMP,right,0.11695765389367807,,,right,0,0.11695765389367807,0,,,,,,,,,,,,,,,,,,,,,,1071,2019_Mar_14_1403,mf_amp_cond1,3.0.4,59.987321266414924,
hope,perified,&&&&&&&&,left,loyalty.virtue,,,,,,,0,83,83,83,,,,,,,,,,,,,,,,,,,,,AMP,right,0.13362854876709207,,,right,0,0.13362854876709207,0,,,,,,,,,,,,,,,,,,,,,,1071,2019_Mar_14_1403,mf_amp_cond1,3.0.4,59.987321266414924,
serial,abointment,&&&&&&&&&&,right,sanctity.vice,,,,,,,0,84,84,84,,,,,,,,,,,,,,,,,,,,,AMP,left,0.46702335413442597,,,left,0,0.46702335413442597,0,,,,,,,,,,,,,,,,,,,,,,1071,2019_Mar_14_1403,mf_amp_cond1,3.0.4,59.987321266414924,
corruption,nomaric,&&&&&&&,right,sanctity.vice,,,,,,,0,85,85,85,,,,,,,,,,,,,,,,,,,,,AMP,left,0.35033125942709376,,,left,0,0.35033125942709376,0,,,,,,,,,,,,,,,,,,,,,,1071,2019_Mar_14_1403,mf_amp_cond1,3.0.4,59.987321266414924,
strong,nackers,&&&&&&&,left,loyalty.virtue,,,,,,,0,86,86,86,,,,,,,,,,,,,,,,,,,,,AMP,right,0.2669623524950566,,,right,0,0.2669623524950566,0,,,,,,,,,,,,,,,,,,,,,,1071,2019_Mar_14_1403,mf_amp_cond1,3.0.4,59.987321266414924,
charges,gournful,&&&&&&&&,right,fairness.vice,,,,,,,0,87,87,87,,,,,,,,,,,,,,,,,,,,,AMP,left,0.8836607013136017,,,left,0,0.8836607013136017,0,,,,,,,,,,,,,,,,,,,,,,1071,2019_Mar_14_1403,mf_amp_cond1,3.0.4,59.987321266414924,
pleasant,gedious,&&&&&&&,None,control,,,,,,,0,88,88,88,,,,,,,,,,,,,,,,,,,,,AMP,left,0.6337326235932323,,,left,0,0.6337326235932323,0,,,,,,,,,,,,,,,,,,,,,,1071,2019_Mar_14_1403,mf_amp_cond1,3.0.4,59.987321266414924,
protesters,bycled,&&&&&&,right,authority.vice,,,,,,,0,89,89,89,,,,,,,,,,,,,,,,,,,,,AMP,left,0.8838287605090045,,,left,0,0.8838287605090045,0,,,,,,,,,,,,,,,,,,,,,,1071,2019_Mar_14_1403,mf_amp_cond1,3.0.4,59.987321266414924,
praise,dormandi,&&&&&&&&,left,authority.virtue,,,,,,,0,90,90,90,,,,,,,,,,,,,,,,,,,,,AMP,right,1.167200297375075,,,right,0,1.167200297375075,0,,,,,,,,,,,,,,,,,,,,,,1071,2019_Mar_14_1403,mf_amp_cond1,3.0.4,59.987321266414924,
gandbrake,thadowed,&&&&&&&&,None,nonword,,,,,,,0,91,91,91,,,,,,,,,,,,,,,,,,,,,AMP,right,0.4503617602470058,,,right,0,0.4503617602470058,0,,,,,,,,,,,,,,,,,,,,,,1071,2019_Mar_14_1403,mf_amp_cond1,3.0.4,59.987321266414924,
interests,taxpayung,&&&&&&&&&,left,fairness.virtue,,,,,,,0,92,92,92,,,,,,,,,,,,,,,,,,,,,AMP,left,1.200558444028502,,,left,1,1.200558444028502,1,,,,,,,,,,,,,,,,,,,,,,1071,2019_Mar_14_1403,mf_amp_cond1,3.0.4,59.987321266414924,
freedom,aubos,&&&&&,left,sanctity.virtue,,,,,,,0,93,93,93,,,,,,,,,,,,,,,,,,,,,AMP,left,0.4670182225559074,,,left,1,0.4670182225559074,1,,,,,,,,,,,,,,,,,,,,,,1071,2019_Mar_14_1403,mf_amp_cond1,3.0.4,59.987321266414924,
fighters,unscothed,&&&&&&&&&,right,authority.vice,,,,,,,0,94,94,94,,,,,,,,,,,,,,,,,,,,,AMP,left,2.000757228549901,,,left,0,2.000757228549901,0,,,,,,,,,,,,,,,,,,,,,,1071,2019_Mar_14_1403,mf_amp_cond1,3.0.4,59.987321266414924,
men,simplustic,&&&&&&&&&&,right,loyalty.vice,,,,,,,0,95,95,95,,,,,,,,,,,,,,,,,,,,,AMP,left,0.48371349242711403,,,left,0,0.48371349242711403,0,,,,,,,,,,,,,,,,,,,,,,1071,2019_Mar_14_1403,mf_amp_cond1,3.0.4,59.987321266414924,
lies,galamitous,&&&&&&&&&&,right,fairness.vice,,,,,,,0,96,96,96,,,,,,,,,,,,,,,,,,,,,AMP,left,1.3839296280984854,,,left,0,1.3839296280984854,0,,,,,,,,,,,,,,,,,,,,,,1071,2019_Mar_14_1403,mf_amp_cond1,3.0.4,59.987321266414924,
chadows,squets,&&&&&&,None,nonword,,,,,,,0,97,97,97,,,,,,,,,,,,,,,,,,,,,AMP,left,0.26698287880913085,,,left,0,0.26698287880913085,0,,,,,,,,,,,,,,,,,,,,,,1071,2019_Mar_14_1403,mf_amp_cond1,3.0.4,59.987321266414924,
fraud,lempestuous,&&&&&&&&&&&,right,fairness.vice,,,,,,,0,98,98,98,,,,,,,,,,,,,,,,,,,,,AMP,left,0.36698291088146107,,,left,0,0.36698291088146107,0,,,,,,,,,,,,,,,,,,,,,,1071,2019_Mar_14_1403,mf_amp_cond1,3.0.4,59.987321266414924,
commitment,yane,&&&&,left,sanctity.virtue,,,,,,,0,99,99,99,,,,,,,,,,,,,,,,,,,,,AMP,right,0.2669722949285642,,,right,0,0.2669722949285642,0,,,,,,,,,,,,,,,,,,,,,,1071,2019_Mar_14_1403,mf_amp_cond1,3.0.4,59.987321266414924,
attacks,gikely,&&&&&&,right,care.vice,,,,,,,0,100,100,100,,,,,,,,,,,,,,,,,,,,,AMP,left,0.2669745399941803,,,left,0,0.2669745399941803,0,,,,,,,,,,,,,,,,,,,,,,1071,2019_Mar_14_1403,mf_amp_cond1,3.0.4,59.987321266414924,
free,lorthwhile,&&&&&&&&&&,left,fairness.virtue,,,,,,,0,101,101,101,,,,,,,,,,,,,,,,,,,,,AMP,right,1.4172743043584433,,,right,0,1.4172743043584433,0,,,,,,,,,,,,,,,,,,,,,,1071,2019_Mar_14_1403,mf_amp_cond1,3.0.4,59.987321266414924,
win,wonderfujnoss,&&&&&&&&&&&&&,left,fairness.virtue,,,,,,,0,102,102,102,,,,,,,,,,,,,,,,,,,,,AMP,right,0.11694418350020896,,,right,0,0.11694418350020896,0,,,,,,,,,,,,,,,,,,,,,,1071,2019_Mar_14_1403,mf_amp_cond1,3.0.4,59.987321266414924,
loyalty,erks,&&&&,left,loyalty.virtue,,,,,,,0,103,103,103,,,,,,,,,,,,,,,,,,,,,AMP,right,0.36699541910411426,,,right,0,0.36699541910411426,0,,,,,,,,,,,,,,,,,,,,,,1071,2019_Mar_14_1403,mf_amp_cond1,3.0.4,59.987321266414924,
dignity,gondensed,&&&&&&&&&,left,sanctity.virtue,,,,,,,0,104,104,104,,,,,,,,,,,,,,,,,,,,,AMP,right,1.3339243201221507,,,right,0,1.3339243201221507,0,,,,,,,,,,,,,,,,,,,,,,1071,2019_Mar_14_1403,mf_amp_cond1,3.0.4,59.987321266414924,
victim,imebreaker,&&&&&&&&&&,right,care.vice,,,,,,,0,105,105,105,,,,,,,,,,,,,,,,,,,,,AMP,left,0.25029819281849086,,,left,0,0.25029819281849086,0,,,,,,,,,,,,,,,,,,,,,,1071,2019_Mar_14_1403,mf_amp_cond1,3.0.4,59.987321266414924,
fontacts,chonograph,&&&&&&&&&&,None,nonword,,,,,,,0,106,106,106,,,,,,,,,,,,,,,,,,,,,AMP,left,0.18362712154680594,,,left,0,0.18362712154680594,0,,,,,,,,,,,,,,,,,,,,,,1071,2019_Mar_14_1403,mf_amp_cond1,3.0.4,59.987321266414924,
killed,hefurbished,&&&&&&&&&&&,right,care.vice,,,,,,,0,107,107,107,,,,,,,,,,,,,,,,,,,,,AMP,left,0.6170671810218664,,,left,0,0.6170671810218664,0,,,,,,,,,,,,,,,,,,,,,,1071,2019_Mar_14_1403,mf_amp_cond1,3.0.4,59.987321266414924,
unpleasant,fegard,&&&&&&,None,control,,,,,,,0,108,108,108,,,,,,,,,,,,,,,,,,,,,AMP,left,0.1669632825937697,,,left,0,0.1669632825937697,0,,,,,,,,,,,,,,,,,,,,,,1071,2019_Mar_14_1403,mf_amp_cond1,3.0.4,59.987321266414924,
police,chressing,&&&&&&&&&,right,authority.vice,,,,,,,0,109,109,109,,,,,,,,,,,,,,,,,,,,,AMP,left,1.1005221701832397,,,left,0,1.1005221701832397,0,,,,,,,,,,,,,,,,,,,,,,1071,2019_Mar_14_1403,mf_amp_cond1,3.0.4,59.987321266414924,
clean,proached,&&&&&&&&,left,sanctity.virtue,,,,,,,0,110,110,110,,,,,,,,,,,,,,,,,,,,,AMP,right,0.3003044629658689,,,right,0,0.3003044629658689,0,,,,,,,,,,,,,,,,,,,,,,1071,2019_Mar_14_1403,mf_amp_cond1,3.0.4,59.987321266414924,
sexual,tabin,&&&&&,right,sanctity.vice,,,,,,,0,111,111,111,,,,,,,,,,,,,,,,,,,,,AMP,right,0.13362983166189224,,,right,1,0.13362983166189224,1,,,,,,,,,,,,,,,,,,,,,,1071,2019_Mar_14_1403,mf_amp_cond1,3.0.4,59.987321266414924,
scock,hasks,&&&&&,None,nonword,,,,,,,0,112,112,112,,,,,,,,,,,,,,,,,,,,,AMP,left,0.36698419377603386,,,left,0,0.36698419377603386,0,,,,,,,,,,,,,,,,,,,,,,1071,2019_Mar_14_1403,mf_amp_cond1,3.0.4,59.987321266414924,
protect,gationwide,&&&&&&&&&&,left,fairness.virtue,,,,,,,0,113,113,113,,,,,,,,,,,,,,,,,,,,,AMP,right,0.20024221050425695,,,right,0,0.20024221050425695,0,,,,,,,,,,,,,,,,,,,,,,1071,2019_Mar_14_1403,mf_amp_cond1,3.0.4,59.987321266414924,
good,greaks,&&&&&&,left,care.virtue,,,,,,,0,114,114,114,,,,,,,,,,,,,,,,,,,,,AMP,right,0.21695768596600828,,,right,0,0.21695768596600828,0,,,,,,,,,,,,,,,,,,,,,,1071,2019_Mar_14_1403,mf_amp_cond1,3.0.4,59.987321266414924,
improve,grovelire,&&&&&&&&&,left,care.virtue,,,,,,,0,115,115,115,,,,,,,,,,,,,,,,,,,,,AMP,right,0.18362391431037395,,,right,0,0.18362391431037395,0,,,,,,,,,,,,,,,,,,,,,,1071,2019_Mar_14_1403,mf_amp_cond1,3.0.4,59.987321266414924,
praised,feleological,&&&&&&&&&&&&,left,loyalty.virtue,,,,,,,0,116,116,116,,,,,,,,,,,,,,,,,,,,,AMP,right,0.18362519720494674,,,right,0,0.18362519720494674,0,,,,,,,,,,,,,,,,,,,,,,1071,2019_Mar_14_1403,mf_amp_cond1,3.0.4,59.987321266414924,
harassment,ittutable,&&&&&&&&&,right,sanctity.vice,,,,,,,0,117,117,117,,,,,,,,,,,,,,,,,,,,,AMP,left,0.35036814264753957,,,left,0,0.35036814264753957,0,,,,,,,,,,,,,,,,,,,,,,1071,2019_Mar_14_1403,mf_amp_cond1,3.0.4,59.987321266414924,
support,ning,&&&&,left,loyalty.virtue,,,,,,,0,118,118,118,,,,,,,,,,,,,,,,,,,,,AMP,right,0.10026302546953048,,,right,0,0.10026302546953048,0,,,,,,,,,,,,,,,,,,,,,,1071,2019_Mar_14_1403,mf_amp_cond1,3.0.4,59.987321266414924,
friends,fonderland,&&&&&&&&&&,left,loyalty.virtue,,,,,,,0,119,119,119,,,,,,,,,,,,,,,,,,,,,AMP,left,0.7837584899559715,,,left,1,0.7837584899559715,1,,,,,,,,,,,,,,,,,,,,,,1071,2019_Mar_14_1403,mf_amp_cond1,3.0.4,59.987321266414924,
torture,ebbitter,&&&&&&&&,right,care.vice,,,,,,,0,120,120,120,,,,,,,,,,,,,,,,,,,,,AMP,left,0.917150023942213,,,left,0,0.917150023942213,0,,,,,,,,,,,,,,,,,,,,,,1071,2019_Mar_14_1403,mf_amp_cond1,3.0.4,59.987321266414924,
gun,bluently,&&&&&&&&,right,authority.vice,,,,,,,0,121,121,121,,,,,,,,,,,,,,,,,,,,,AMP,left,0.9338039204617417,,,left,0,0.9338039204617417,0,,,,,,,,,,,,,,,,,,,,,,1071,2019_Mar_14_1403,mf_amp_cond1,3.0.4,59.987321266414924,
powerful,Daptist,&&&&&&&,left,authority.virtue,,,,,,,0,122,122,122,,,,,,,,,,,,,,,,,,,,,AMP,right,0.41699302971278485,,,right,0,0.41699302971278485,0,,,,,,,,,,,,,,,,,,,,,,1071,2019_Mar_14_1403,mf_amp_cond1,3.0.4,59.987321266414924,
arrests,refuejing,&&&&&&&&&,right,authority.vice,,,,,,,0,123,123,123,,,,,,,,,,,,,,,,,,,,,AMP,left,0.20030282727520898,,,left,0,0.20030282727520898,0,,,,,,,,,,,,,,,,,,,,,,1071,2019_Mar_14_1403,mf_amp_cond1,3.0.4,59.987321266414924,
crime,menizen,&&&&&&&,right,fairness.vice,,,,,,,0,124,124,124,,,,,,,,,,,,,,,,,,,,,AMP,left,0.1335830060081662,,,left,0,0.1335830060081662,0,,,,,,,,,,,,,,,,,,,,,,1071,2019_Mar_14_1403,mf_amp_cond1,3.0.4,59.987321266414924,
blamed,frojecting,&&&&&&&&&&,right,loyalty.vice,,,,,,,0,125,125,125,,,,,,,,,,,,,,,,,,,,,AMP,left,0.6003808914128967,,,left,0,0.6003808914128967,0,,,,,,,,,,,,,,,,,,,,,,1071,2019_Mar_14_1403,mf_amp_cond1,3.0.4,59.987321266414924,
war,lachelor,&&&&&&&&,right,sanctity.vice,,,,,,,0,126,126,126,,,,,,,,,,,,,,,,,,,,,AMP,left,0.2503049280151117,,,left,0,0.2503049280151117,0,,,,,,,,,,,,,,,,,,,,,,1071,2019_Mar_14_1403,mf_amp_cond1,3.0.4,59.987321266414924,
ablow,disregord,&&&&&&&&&,None,nonword,,,,,,,0,127,127,127,,,,,,,,,,,,,,,,,,,,,AMP,left,0.25030043788410694,,,left,0,0.25030043788410694,0,,,,,,,,,,,,,,,,,,,,,,1071,2019_Mar_14_1403,mf_amp_cond1,3.0.4,59.987321266414924,
failure,baklara,&&&&&&&,right,loyalty.vice,,,,,,,0,128,128,128,,,,,,,,,,,,,,,,,,,,,AMP,left,0.21694742280919854,,,left,0,0.21694742280919854,0,,,,,,,,,,,,,,,,,,,,,,1071,2019_Mar_14_1403,mf_amp_cond1,3.0.4,59.987321266414924,
perfect,precificity,&&&&&&&&&&&,left,sanctity.virtue,,,,,,,0,129,129,129,,,,,,,,,,,,,,,,,,,,,AMP,right,0.11693359961964234,,,right,0,0.11693359961964234,0,,,,,,,,,,,,,,,,,,,,,,1071,2019_Mar_14_1403,mf_amp_cond1,3.0.4,59.987321266414924,
betrayal,photocalkodes,&&&&&&&&&&&&&,right,loyalty.vice,,,,,,,0,130,130,130,,,,,,,,,,,,,,,,,,,,,AMP,left,0.16697065923790433,,,left,0,0.16697065923790433,0,,,,,,,,,,,,,,,,,,,,,,1071,2019_Mar_14_1403,mf_amp_cond1,3.0.4,59.987321266414924,
pharing,sowntrodden,&&&&&&&&&&&,None,nonword,,,,,,,0,131,131,131,,,,,,,,,,,,,,,,,,,,,AMP,left,0.23364718281140995,,,left,0,0.23364718281140995,0,,,,,,,,,,,,,,,,,,,,,,1071,2019_Mar_14_1403,mf_amp_cond1,3.0.4,59.987321266414924,
help,drumbled,&&&&&&&&,left,care.virtue,,,,,,,0,132,132,132,,,,,,,,,,,,,,,,,,,,,AMP,right,0.46701437387196165,,,right,0,0.46701437387196165,0,,,,,,,,,,,,,,,,,,,,,,1071,2019_Mar_14_1403,mf_amp_cond1,3.0.4,59.987321266414924,
fair,synchronazers,&&&&&&&&&&&&&,left,fairness.virtue,,,,,,,0,133,133,133,,,,,,,,,,,,,,,,,,,,,AMP,right,0.11695156014411623,,,right,0,0.11695156014411623,0,,,,,,,,,,,,,,,,,,,,,,1071,2019_Mar_14_1403,mf_amp_cond1,3.0.4,59.987321266414924,
illegal,chared,&&&&&&,right,fairness.vice,,,,,,,0,134,134,134,,,,,,,,,,,,,,,,,,,,,AMP,left,0.1335971178489217,,,left,0,0.1335971178489217,0,,,,,,,,,,,,,,,,,,,,,,1071,2019_Mar_14_1403,mf_amp_cond1,3.0.4,59.987321266414924,
restore,hescribe,&&&&&&&&,left,care.virtue,,,,,,,0,135,135,135,,,,,,,,,,,,,,,,,,,,,AMP,right,0.4003449062188338,,,right,0,0.4003449062188338,0,,,,,,,,,,,,,,,,,,,,,,1071,2019_Mar_14_1403,mf_amp_cond1,3.0.4,59.987321266414924,
sliptery,ugeasily,&&&&&&&&,None,nonword,,,,,,,0,136,136,136,,,,,,,,,,,,,,,,,,,,,AMP,left,0.3170225042167658,,,left,0,0.3170225042167658,0,,,,,,,,,,,,,,,,,,,,,,1071,2019_Mar_14_1403,mf_amp_cond1,3.0.4,59.987321266414924,
victims,pescinded,&&&&&&&&&,right,care.vice,,,,,,,0,137,137,137,,,,,,,,,,,,,,,,,,,,,AMP,right,0.26697614361251,,,right,1,0.26697614361251,1,,,,,,,,,,,,,,,,,,,,,,1071,2019_Mar_14_1403,mf_amp_cond1,3.0.4,59.987321266414924,
safety,wump,&&&&,left,care.virtue,,,,,,,0,138,138,138,,,,,,,,,,,,,,,,,,,,,AMP,left,0.7504343400100879,,,left,1,0.7504343400100879,1,,,,,,,,,,,,,,,,,,,,,,1071,2019_Mar_14_1403,mf_amp_cond1,3.0.4,59.987321266414924,
care,letish,&&&&&&,left,care.virtue,,,,,,,0,139,139,139,,,,,,,,,,,,,,,,,,,,,AMP,left,0.35034120186060136,,,left,1,0.35034120186060136,1,,,,,,,,,,,,,,,,,,,,,,1071,2019_Mar_14_1403,mf_amp_cond1,3.0.4,59.987321266414924,
terrorists,nomparisons,&&&&&&&&&&&,right,fairness.vice,,,,,,,0,140,140,140,,,,,,,,,,,,,,,,,,,,,AMP,left,0.26696908769190486,,,left,0,0.26696908769190486,0,,,,,,,,,,,,,,,,,,,,,,1071,2019_Mar_14_1403,mf_amp_cond1,3.0.4,59.987321266414924,
violence,supervuned,&&&&&&&&&&,right,care.vice,,,,,,,0,141,141,141,,,,,,,,,,,,,,,,,,,,,AMP,left,0.20029512990754483,,,left,0,0.20029512990754483,0,,,,,,,,,,,,,,,,,,,,,,1071,2019_Mar_14_1403,mf_amp_cond1,3.0.4,59.987321266414924,
accused,ammessment,&&&&&&&&&&,right,fairness.vice,,,,,,,0,142,142,142,,,,,,,,,,,,,,,,,,,,,AMP,left,1.5339936605762432,,,left,0,1.5339936605762432,0,,,,,,,,,,,,,,,,,,,,,,1071,2019_Mar_14_1403,mf_amp_cond1,3.0.4,59.987321266414924,
energy,uller,&&&&&,left,sanctity.virtue,,,,,,,0,143,143,143,,,,,,,,,,,,,,,,,,,,,AMP,right,0.2669748607177098,,,right,0,0.2669748607177098,0,,,,,,,,,,,,,,,,,,,,,,1071,2019_Mar_14_1403,mf_amp_cond1,3.0.4,59.987321266414924,
rejected,troubla,&&&&&&&,right,authority.vice,,,,,,,0,144,144,144,,,,,,,,,,,,,,,,,,,,,AMP,left,0.5503884123825173,,,left,0,0.5503884123825173,0,,,,,,,,,,,,,,,,,,,,,,1071,2019_Mar_14_1403,mf_amp_cond1,3.0.4,59.987321266414924,
celebrated,ejanulated,&&&&&&&&&&,left,authority.virtue,,,,,,,0,145,145,145,,,,,,,,,,,,,,,,,,,,,AMP,right,1.1839160935603559,,,right,0,1.1839160935603559,0,,,,,,,,,,,,,,,,,,,,,,1071,2019_Mar_14_1403,mf_amp_cond1,3.0.4,59.987321266414924,
terrorist,frocessing,&&&&&&&&&&,right,loyalty.vice,,,,,,,0,146,146,146,,,,,,,,,,,,,,,,,,,,,AMP,left,0.1502952742330308,,,left,0,0.1502952742330308,0,,,,,,,,,,,,,,,,,,,,,,1071,2019_Mar_14_1403,mf_amp_cond1,3.0.4,59.987321266414924,
leact,framatic,&&&&&&&&,None,nonword,,,,,,,0,147,147,147,,,,,,,,,,,,,,,,,,,,,AMP,left,0.4170129145793453,,,left,0,0.4170129145793453,0,,,,,,,,,,,,,,,,,,,,,,1071,2019_Mar_14_1403,mf_amp_cond1,3.0.4,59.987321266414924,
values,emports,&&&&&&&,left,sanctity.virtue,,,,,,,0,148,148,148,,,,,,,,,,,,,,,,,,,,,AMP,right,0.33361450107122437,,,right,0,0.33361450107122437,0,,,,,,,,,,,,,,,,,,,,,,1071,2019_Mar_14_1403,mf_amp_cond1,3.0.4,59.987321266414924,
promises,viscs,&&&&&,left,fairness.virtue,,,,,,,0,149,149,149,,,,,,,,,,,,,,,,,,,,,AMP,right,0.20031822201076466,,,right,0,0.20031822201076466,0,,,,,,,,,,,,,,,,,,,,,,1071,2019_Mar_14_1403,mf_amp_cond1,3.0.4,59.987321266414924,
groups,faspberry,&&&&&&&&&,right,loyalty.vice,,,,,,,0,150,150,150,,,,,,,,,,,,,,,,,,,,,AMP,right,0.2503232092635699,,,right,1,0.2503232092635699,1,,,,,,,,,,,,,,,,,,,,,,1071,2019_Mar_14_1403,mf_amp_cond1,3.0.4,59.987321266414924,
integrity,divility,&&&&&&&&,left,fairness.virtue,,,,,,,0,151,151,151,,,,,,,,,,,,,,,,,,,,,AMP,right,0.3503251656777593,,,right,0,0.3503251656777593,0,,,,,,,,,,,,,,,,,,,,,,1071,2019_Mar_14_1403,mf_amp_cond1,3.0.4,59.987321266414924,
racist,laming,&&&&&&,right,sanctity.vice,,,,,,,0,152,152,152,,,,,,,,,,,,,,,,,,,,,AMP,left,0.18362583865223314,,,left,0,0.18362583865223314,0,,,,,,,,,,,,,,,,,,,,,,1071,2019_Mar_14_1403,mf_amp_cond1,3.0.4,59.987321266414924,
suicide,baladroit,&&&&&&&&&,right,care.vice,,,,,,,0,153,153,153,,,,,,,,,,,,,,,,,,,,,AMP,left,0.18361461332438012,,,left,0,0.18361461332438012,0,,,,,,,,,,,,,,,,,,,,,,1071,2019_Mar_14_1403,mf_amp_cond1,3.0.4,59.987321266414924,
encourage,vurtain,&&&&&&&,left,authority.virtue,,,,,,,0,154,154,154,,,,,,,,,,,,,,,,,,,,,AMP,right,0.25028792966145375,,,right,0,0.25028792966145375,0,,,,,,,,,,,,,,,,,,,,,,1071,2019_Mar_14_1403,mf_amp_cond1,3.0.4,59.987321266414924,
health,pafer,&&&&&,left,care.virtue,,,,,,,0,155,155,155,,,,,,,,,,,,,,,,,,,,,AMP,left,0.20014984209160502,,,left,1,0.20014984209160502,1,,,,,,,,,,,,,,,,,,,,,,1071,2019_Mar_14_1403,mf_amp_cond1,3.0.4,59.987321266414924,
peaceful,elduringly,&&&&&&&&&&,left,authority.virtue,,,,,,,0,156,156,156,,,,,,,,,,,,,,,,,,,,,AMP,right,0.317049445003704,,,right,0,0.317049445003704,0,,,,,,,,,,,,,,,,,,,,,,1071,2019_Mar_14_1403,mf_amp_cond1,3.0.4,59.987321266414924,
lenon,Oregoniuns,&&&&&&&&&&,None,nonword,,,,,,,0,157,157,157,,,,,,,,,,,,,,,,,,,,,AMP,left,0.31683969173332116,,,left,0,0.31683969173332116,0,,,,,,,,,,,,,,,,,,,,,,1071,2019_Mar_14_1403,mf_amp_cond1,3.0.4,59.987321266414924,
embrace,pullness,&&&&&&&&,left,authority.virtue,,,,,,,0,158,158,158,,,,,,,,,,,,,,,,,,,,,AMP,right,0.350320996270284,,,right,0,0.350320996270284,0,,,,,,,,,,,,,,,,,,,,,,1071,2019_Mar_14_1403,mf_amp_cond1,3.0.4,59.987321266414924,
honored,Lacedonia,&&&&&&&&&,left,authority.virtue,,,,,,,0,159,159,159,,,,,,,,,,,,,,,,,,,,,AMP,right,1.3506112511784067,,,right,0,1.3506112511784067,0,,,,,,,,,,,,,,,,,,,,,,1071,2019_Mar_14_1403,mf_amp_cond1,3.0.4,59.987321266414924,
pulge,papert,&&&&&&,None,nonword,,,,,,,0,160,160,160,,,,,,,,,,,,,,,,,,,,,AMP,left,0.43368637524213227,,,left,0,0.43368637524213227,0,,,,,,,,,,,,,,,,,,,,,,1071,2019_Mar_14_1403,mf_amp_cond1,3.0.4,59.987321266414924,
officers,chreams,&&&&&&&,right,authority.vice,,,,,,,0,161,161,161,,,,,,,,,,,,,,,,,,,,,AMP,left,0.9671582184314502,,,left,0,0.9671582184314502,0,,,,,,,,,,,,,,,,,,,,,,1071,2019_Mar_14_1403,mf_amp_cond1,3.0.4,59.987321266414924,
critics,gowlands,&&&&&&&&,right,loyalty.vice,,,,,,,0,162,162,162,,,,,,,,,,,,,,,,,,,,,AMP,left,1.317260481168887,,,left,0,1.317260481168887,0,,,,,,,,,,,,,,,,,,,,,,1071,2019_Mar_14_1403,mf_amp_cond1,3.0.4,59.987321266414924,
drug,nuckheap,&&&&&&&&,right,sanctity.vice,,,,,,,0,163,163,163,,,,,,,,,,,,,,,,,,,,,AMP,left,0.5337136688251576,,,left,0,0.5337136688251576,0,,,,,,,,,,,,,,,,,,,,,,1071,2019_Mar_14_1403,mf_amp_cond1,3.0.4,59.987321266414924,
scock,troubla,&&&&&&&,None,nonword,,,,,,,0,164,164,164,,,,,,,,,,,,,,,,,,,,,AMP,left,0.3336350273850712,,,left,0,0.3336350273850712,0,,,,,,,,,,,,,,,,,,,,,,1071,2019_Mar_14_1403,mf_amp_cond1,3.0.4,59.987321266414924,
loyalty,emports,&&&&&&&,left,loyalty.virtue,,,,,,,0,165,165,165,,,,,,,,,,,,,,,,,,,,,AMP,right,0.3170080716522534,,,right,0,0.3170080716522534,0,,,,,,,,,,,,,,,,,,,,,,1071,2019_Mar_14_1403,mf_amp_cond1,3.0.4,59.987321266414924,
victim,aubos,&&&&&,right,care.vice,,,,,,,0,166,166,166,,,,,,,,,,,,,,,,,,,,,AMP,left,0.35032997653252096,,,left,0,0.35032997653252096,0,,,,,,,,,,,,,,,,,,,,,,1071,2019_Mar_14_1403,mf_amp_cond1,3.0.4,59.987321266414924,
honored,thadowed,&&&&&&&&,left,authority.virtue,,,,,,,0,167,167,167,,,,,,,,,,,,,,,,,,,,,AMP,right,0.3336635717903391,,,right,0,0.3336635717903391,0,,,,,,,,,,,,,,,,,,,,,,1071,2019_Mar_14_1403,mf_amp_cond1,3.0.4,59.987321266414924,
unpleasant,papert,&&&&&&,None,control,,,,,,,0,168,168,168,,,,,,,,,,,,,,,,,,,,,AMP,left,0.43370561866140633,,,left,0,0.43370561866140633,0,,,,,,,,,,,,,,,,,,,,,,1071,2019_Mar_14_1403,mf_amp_cond1,3.0.4,59.987321266414924,
energy,ittutable,&&&&&&&&&,left,sanctity.virtue,,,,,,,0,169,169,169,,,,,,,,,,,,,,,,,,,,,AMP,right,0.9338061655273577,,,right,0,0.9338061655273577,0,,,,,,,,,,,,,,,,,,,,,,1071,2019_Mar_14_1403,mf_amp_cond1,3.0.4,59.987321266414924,
terrorists,chonograph,&&&&&&&&&&,right,fairness.vice,,,,,,,0,170,170,170,,,,,,,,,,,,,,,,,,,,,AMP,left,1.0338203094406708,,,left,0,1.0338203094406708,0,,,,,,,,,,,,,,,,,,,,,,1071,2019_Mar_14_1403,mf_amp_cond1,3.0.4,59.987321266414924,
strong,photocalkodes,&&&&&&&&&&&&&,left,loyalty.virtue,,,,,,,0,171,171,171,,,,,,,,,,,,,,,,,,,,,AMP,right,5.501686846064558,,,right,0,5.501686846064558,0,,,,,,,,,,,,,,,,,,,,,,1071,2019_Mar_14_1403,mf_amp_cond1,3.0.4,59.987321266414924,
rejected,tracious,&&&&&&&&,right,authority.vice,,,,,,,0,172,172,172,,,,,,,,,,,,,,,,,,,,,AMP,left,0.2503097388698734,,,left,0,0.2503097388698734,0,,,,,,,,,,,,,,,,,,,,,,1071,2019_Mar_14_1403,mf_amp_cond1,3.0.4,59.987321266414924,
values,greaks,&&&&&&,left,sanctity.virtue,,,,,,,0,173,173,173,,,,,,,,,,,,,,,,,,,,,AMP,left,4.201324973564397,,,left,1,4.201324973564397,1,,,,,,,,,,,,,,,,,,,,,,1071,2019_Mar_14_1403,mf_amp_cond1,3.0.4,59.987321266414924,
lies,ning,&&&&,right,fairness.vice,,,,,,,0,174,174,174,,,,,,,,,,,,,,,,,,,,,AMP,left,1.6006563930327502,,,left,0,1.6006563930327502,0,,,,,,,,,,,,,,,,,,,,,,1071,2019_Mar_14_1403,mf_amp_cond1,3.0.4,59.987321266414924,
hope,gournful,&&&&&&&&,left,loyalty.virtue,,,,,,,0,175,175,175,,,,,,,,,,,,,,,,,,,,,AMP,right,0.23365231439015588,,,right,0,0.23365231439015588,0,,,,,,,,,,,,,,,,,,,,,,1071,2019_Mar_14_1403,mf_amp_cond1,3.0.4,59.987321266414924,
praised,gedious,&&&&&&&,left,loyalty.virtue,,,,,,,0,176,176,176,,,,,,,,,,,,,,,,,,,,,AMP,right,0.300342308357358,,,right,0,0.300342308357358,0,,,,,,,,,,,,,,,,,,,,,,1071,2019_Mar_14_1403,mf_amp_cond1,3.0.4,59.987321266414924,
violence,elduringly,&&&&&&&&&&,right,care.vice,,,,,,,0,177,177,177,,,,,,,,,,,,,,,,,,,,,AMP,left,0.31699203546941135,,,left,0,0.31699203546941135,0,,,,,,,,,,,,,,,,,,,,,,1071,2019_Mar_14_1403,mf_amp_cond1,3.0.4,59.987321266414924,
restore,hescribe,&&&&&&&&,left,care.virtue,,,,,,,0,178,178,178,,,,,,,,,,,,,,,,,,,,,AMP,right,1.0505271253634874,,,right,0,1.0505271253634874,0,,,,,,,,,,,,,,,,,,,,,,1071,2019_Mar_14_1403,mf_amp_cond1,3.0.4,59.987321266414924,
perfect,ammessment,&&&&&&&&&&,left,sanctity.virtue,,,,,,,0,179,179,179,,,,,,,,,,,,,,,,,,,,,AMP,right,0.3503354288347964,,,right,0,0.3503354288347964,0,,,,,,,,,,,,,,,,,,,,,,1071,2019_Mar_14_1403,mf_amp_cond1,3.0.4,59.987321266414924,
critics,proached,&&&&&&&&,right,loyalty.vice,,,,,,,0,180,180,180,,,,,,,,,,,,,,,,,,,,,AMP,left,0.40033720885116963,,,left,0,0.40033720885116963,0,,,,,,,,,,,,,,,,,,,,,,1071,2019_Mar_14_1403,mf_amp_cond1,3.0.4,59.987321266414924,
powerful,grovelire,&&&&&&&&&,left,authority.virtue,,,,,,,0,181,181,181,,,,,,,,,,,,,,,,,,,,,AMP,right,0.5670939454107611,,,right,0,0.5670939454107611,0,,,,,,,,,,,,,,,,,,,,,,1071,2019_Mar_14_1403,mf_amp_cond1,3.0.4,59.987321266414924,
fighters,pafer,&&&&&,right,authority.vice,,,,,,,0,182,182,182,,,,,,,,,,,,,,,,,,,,,AMP,left,0.28363645460535736,,,left,0,0.28363645460535736,0,,,,,,,,,,,,,,,,,,,,,,1071,2019_Mar_14_1403,mf_amp_cond1,3.0.4,59.987321266414924,
promises,simplustic,&&&&&&&&&&,left,fairness.virtue,,,,,,,0,183,183,183,,,,,,,,,,,,,,,,,,,,,AMP,right,0.31699107329836806,,,right,0,0.31699107329836806,0,,,,,,,,,,,,,,,,,,,,,,1071,2019_Mar_14_1403,mf_amp_cond1,3.0.4,59.987321266414924,
suicide,nackers,&&&&&&&,right,care.vice,,,,,,,0,184,184,184,,,,,,,,,,,,,,,,,,,,,AMP,left,1.6840124710186046,,,left,0,1.6840124710186046,0,,,,,,,,,,,,,,,,,,,,,,1071,2019_Mar_14_1403,mf_amp_cond1,3.0.4,59.987321266414924,
war,sowntrodden,&&&&&&&&&&&,right,sanctity.vice,,,,,,,0,185,185,185,,,,,,,,,,,,,,,,,,,,,AMP,left,0.6670776205767197,,,left,0,0.6670776205767197,0,,,,,,,,,,,,,,,,,,,,,,1071,2019_Mar_14_1403,mf_amp_cond1,3.0.4,59.987321266414924,
encourage,synchronazers,&&&&&&&&&&&&&,left,authority.virtue,,,,,,,0,186,186,186,,,,,,,,,,,,,,,,,,,,,AMP,right,0.30032402710867245,,,right,0,0.30032402710867245,0,,,,,,,,,,,,,,,,,,,,,,1071,2019_Mar_14_1403,mf_amp_cond1,3.0.4,59.987321266414924,
protesters,precificity,&&&&&&&&&&&,right,authority.vice,,,,,,,0,187,187,187,,,,,,,,,,,,,,,,,,,,,AMP,left,0.5837231462094223,,,left,0,0.5837231462094223,0,,,,,,,,,,,,,,,,,,,,,,1071,2019_Mar_14_1403,mf_amp_cond1,3.0.4,59.987321266414924,
attacks,letish,&&&&&&,right,care.vice,,,,,,,0,188,188,188,,,,,,,,,,,,,,,,,,,,,AMP,left,0.3836762564108085,,,left,0,0.3836762564108085,0,,,,,,,,,,,,,,,,,,,,,,1071,2019_Mar_14_1403,mf_amp_cond1,3.0.4,59.987321266414924,
lenon,gowlands,&&&&&&&&,None,nonword,,,,,,,0,189,189,189,,,,,,,,,,,,,,,,,,,,,AMP,left,0.40037858220239286,,,left,0,0.40037858220239286,0,,,,,,,,,,,,,,,,,,,,,,1071,2019_Mar_14_1403,mf_amp_cond1,3.0.4,59.987321266414924,
fraud,dormandi,&&&&&&&&,right,fairness.vice,,,,,,,0,190,190,190,,,,,,,,,,,,,,,,,,,,,AMP,left,0.36697232700066706,,,left,0,0.36697232700066706,0,,,,,,,,,,,,,,,,,,,,,,1071,2019_Mar_14_1403,mf_amp_cond1,3.0.4,59.987321266414924,
police,bluently,&&&&&&&&,right,authority.vice,,,,,,,0,191,191,191,,,,,,,,,,,,,,,,,,,,,AMP,left,0.2503078145280142,,,left,0,0.2503078145280142,0,,,,,,,,,,,,,,,,,,,,,,1071,2019_Mar_14_1403,mf_amp_cond1,3.0.4,59.987321266414924,
leact,wonderfujnoss,&&&&&&&&&&&&&,None,nonword,,,,,,,0,192,192,192,,,,,,,,,,,,,,,,,,,,,AMP,right,3.0010045064882434,,,right,0,3.0010045064882434,0,,,,,,,,,,,,,,,,,,,,,,1071,2019_Mar_14_1403,mf_amp_cond1,3.0.4,59.987321266414924,
killed,unscothed,&&&&&&&&&,right,care.vice,,,,,,,0,193,193,193,,,,,,,,,,,,,,,,,,,,,AMP,left,0.3336555536989181,,,left,0,0.3336555536989181,0,,,,,,,,,,,,,,,,,,,,,,1071,2019_Mar_14_1403,mf_amp_cond1,3.0.4,59.987321266414924,
serial,pullness,&&&&&&&&,right,sanctity.vice,,,,,,,0,194,194,194,,,,,,,,,,,,,,,,,,,,,AMP,left,0.3003176126358085,,,left,0,0.3003176126358085,0,,,,,,,,,,,,,,,,,,,,,,1071,2019_Mar_14_1403,mf_amp_cond1,3.0.4,59.987321266414924,
pleasant,pescinded,&&&&&&&&&,None,control,,,,,,,0,195,195,195,,,,,,,,,,,,,,,,,,,,,AMP,right,0.20029609207858812,,,right,0,0.20029609207858812,0,,,,,,,,,,,,,,,,,,,,,,1071,2019_Mar_14_1403,mf_amp_cond1,3.0.4,59.987321266414924,
interests,frojecting,&&&&&&&&&&,left,fairness.virtue,,,,,,,0,196,196,196,,,,,,,,,,,,,,,,,,,,,AMP,left,0.967154690471034,,,left,1,0.967154690471034,1,,,,,,,,,,,,,,,,,,,,,,1071,2019_Mar_14_1403,mf_amp_cond1,3.0.4,59.987321266414924,
freedom,viscs,&&&&&,left,sanctity.virtue,,,,,,,0,197,197,197,,,,,,,,,,,,,,,,,,,,,AMP,left,0.6503637487335254,,,left,1,0.6503637487335254,1,,,,,,,,,,,,,,,,,,,,,,1071,2019_Mar_14_1403,mf_amp_cond1,3.0.4,59.987321266414924,
illegal,fonderland,&&&&&&&&&&,right,fairness.vice,,,,,,,0,198,198,198,,,,,,,,,,,,,,,,,,,,,AMP,left,0.4336799607690409,,,left,0,0.4336799607690409,0,,,,,,,,,,,,,,,,,,,,,,1071,2019_Mar_14_1403,mf_amp_cond1,3.0.4,59.987321266414924,
men,gondensed,&&&&&&&&&,right,loyalty.vice,,,,,,,0,199,199,199,,,,,,,,,,,,,,,,,,,,,AMP,right,1.9340800635288815,,,right,1,1.9340800635288815,1,,,,,,,,,,,,,,,,,,,,,,1071,2019_Mar_14_1403,mf_amp_cond1,3.0.4,59.987321266414924,
gun,gationwide,&&&&&&&&&&,right,authority.vice,,,,,,,0,200,200,200,,,,,,,,,,,,,,,,,,,,,AMP,right,0.4172252336393285,,,right,1,0.4172252336393285,1,,,,,,,,,,,,,,,,,,,,,,1071,2019_Mar_14_1403,mf_amp_cond1,3.0.4,59.987321266414924,
groups,taxpayung,&&&&&&&&&,right,loyalty.vice,,,,,,,0,201,201,201,,,,,,,,,,,,,,,,,,,,,AMP,left,0.63371819102872,,,left,0,0.63371819102872,0,,,,,,,,,,,,,,,,,,,,,,1071,2019_Mar_14_1403,mf_amp_cond1,3.0.4,59.987321266414924,
gandbrake,Oregoniuns,&&&&&&&&&&,None,nonword,,,,,,,0,202,202,202,,,,,,,,,,,,,,,,,,,,,AMP,left,0.3003169711882947,,,left,0,0.3003169711882947,0,,,,,,,,,,,,,,,,,,,,,,1071,2019_Mar_14_1403,mf_amp_cond1,3.0.4,59.987321266414924,
celebrated,ebbitter,&&&&&&&&,left,authority.virtue,,,,,,,0,203,203,203,,,,,,,,,,,,,,,,,,,,,AMP,right,0.21696345899181324,,,right,0,0.21696345899181324,0,,,,,,,,,,,,,,,,,,,,,,1071,2019_Mar_14_1403,mf_amp_cond1,3.0.4,59.987321266414924,
clean,chressing,&&&&&&&&&,left,sanctity.virtue,,,,,,,0,204,204,204,,,,,,,,,,,,,,,,,,,,,AMP,right,0.23363050518150885,,,right,0,0.23363050518150885,0,,,,,,,,,,,,,,,,,,,,,,1071,2019_Mar_14_1403,mf_amp_cond1,3.0.4,59.987321266414924,
win,Daptist,&&&&&&&,left,fairness.virtue,,,,,,,0,205,205,205,,,,,,,,,,,,,,,,,,,,,AMP,right,0.11693392034317185,,,right,0,0.11693392034317185,0,,,,,,,,,,,,,,,,,,,,,,1071,2019_Mar_14_1403,mf_amp_cond1,3.0.4,59.987321266414924,
torture,nomparisons,&&&&&&&&&&&,right,care.vice,,,,,,,0,206,206,206,,,,,,,,,,,,,,,,,,,,,AMP,left,0.20029480918378795,,,left,0,0.20029480918378795,0,,,,,,,,,,,,,,,,,,,,,,1071,2019_Mar_14_1403,mf_amp_cond1,3.0.4,59.987321266414924,
ablow,nomaric,&&&&&&&,None,nonword,,,,,,,0,207,207,207,,,,,,,,,,,,,,,,,,,,,AMP,left,0.36699702272221657,,,left,0,0.36699702272221657,0,,,,,,,,,,,,,,,,,,,,,,1071,2019_Mar_14_1403,mf_amp_cond1,3.0.4,59.987321266414924,
charges,vurtain,&&&&&&&,right,fairness.vice,,,,,,,0,208,208,208,,,,,,,,,,,,,,,,,,,,,AMP,left,0.2836486421040263,,,left,0,0.2836486421040263,0,,,,,,,,,,,,,,,,,,,,,,1071,2019_Mar_14_1403,mf_amp_cond1,3.0.4,59.987321266414924,
praise,galamitous,&&&&&&&&&&,left,authority.virtue,,,,,,,0,209,209,209,,,,,,,,,,,,,,,,,,,,,AMP,left,0.26697165348105045,,,left,1,0.26697165348105045,1,,,,,,,,,,,,,,,,,,,,,,1071,2019_Mar_14_1403,mf_amp_cond1,3.0.4,59.987321266414924,
help,wump,&&&&,left,care.virtue,,,,,,,0,210,210,210,,,,,,,,,,,,,,,,,,,,,AMP,right,0.26697004986294814,,,right,0,0.26697004986294814,0,,,,,,,,,,,,,,,,,,,,,,1071,2019_Mar_14_1403,mf_amp_cond1,3.0.4,59.987321266414924,
drug,abointment,&&&&&&&&&&,right,sanctity.vice,,,,,,,0,211,211,211,,,,,,,,,,,,,,,,,,,,,AMP,left,0.5003561636192444,,,left,0,0.5003561636192444,0,,,,,,,,,,,,,,,,,,,,,,1071,2019_Mar_14_1403,mf_amp_cond1,3.0.4,59.987321266414924,
improve,uller,&&&&&,left,care.virtue,,,,,,,0,212,212,212,,,,,,,,,,,,,,,,,,,,,AMP,right,0.6670734511692444,,,right,0,0.6670734511692444,0,,,,,,,,,,,,,,,,,,,,,,1071,2019_Mar_14_1403,mf_amp_cond1,3.0.4,59.987321266414924,
safety,imebreaker,&&&&&&&&&&,left,care.virtue,,,,,,,0,213,213,213,,,,,,,,,,,,,,,,,,,,,AMP,left,0.9504956623729868,,,left,1,0.9504956623729868,1,,,,,,,,,,,,,,,,,,,,,,1071,2019_Mar_14_1403,mf_amp_cond1,3.0.4,59.987321266414924,
care,gikely,&&&&&&,left,care.virtue,,,,,,,0,214,214,214,,,,,,,,,,,,,,,,,,,,,AMP,right,0.3003269136218023,,,right,0,0.3003269136218023,0,,,,,,,,,,,,,,,,,,,,,,1071,2019_Mar_14_1403,mf_amp_cond1,3.0.4,59.987321266414924,
harassment,framatic,&&&&&&&&,right,sanctity.vice,,,,,,,0,215,215,215,,,,,,,,,,,,,,,,,,,,,AMP,left,0.28365569802440405,,,left,0,0.28365569802440405,0,,,,,,,,,,,,,,,,,,,,,,1071,2019_Mar_14_1403,mf_amp_cond1,3.0.4,59.987321266414924,
arrests,squets,&&&&&&,right,authority.vice,,,,,,,0,216,216,216,,,,,,,,,,,,,,,,,,,,,AMP,left,0.5003635402631517,,,left,0,0.5003635402631517,0,,,,,,,,,,,,,,,,,,,,,,1071,2019_Mar_14_1403,mf_amp_cond1,3.0.4,59.987321266414924,
failure,lempestuous,&&&&&&&&&&&,right,loyalty.vice,,,,,,,0,217,217,217,,,,,,,,,,,,,,,,,,,,,AMP,left,0.33364657343645376,,,left,0,0.33364657343645376,0,,,,,,,,,,,,,,,,,,,,,,1071,2019_Mar_14_1403,mf_amp_cond1,3.0.4,59.987321266414924,
free,perified,&&&&&&&&,left,fairness.virtue,,,,,,,0,218,218,218,,,,,,,,,,,,,,,,,,,,,AMP,right,0.3503505028465952,,,right,0,0.3503505028465952,0,,,,,,,,,,,,,,,,,,,,,,1071,2019_Mar_14_1403,mf_amp_cond1,3.0.4,59.987321266414924,
accused,fegard,&&&&&&,right,fairness.vice,,,,,,,0,219,219,219,,,,,,,,,,,,,,,,,,,,,AMP,left,0.3002983692165344,,,left,0,0.3002983692165344,0,,,,,,,,,,,,,,,,,,,,,,1071,2019_Mar_14_1403,mf_amp_cond1,3.0.4,59.987321266414924,
sexual,ejanulated,&&&&&&&&&&,right,sanctity.vice,,,,,,,0,220,220,220,,,,,,,,,,,,,,,,,,,,,AMP,right,0.3670149832471452,,,right,1,0.3670149832471452,1,,,,,,,,,,,,,,,,,,,,,,1071,2019_Mar_14_1403,mf_amp_cond1,3.0.4,59.987321266414924,
love,supervuned,&&&&&&&&&&,left,loyalty.virtue,,,,,,,0,221,221,221,,,,,,,,,,,,,,,,,,,,,AMP,right,0.35033158015085064,,,right,0,0.35033158015085064,0,,,,,,,,,,,,,,,,,,,,,,1071,2019_Mar_14_1403,mf_amp_cond1,3.0.4,59.987321266414924,
good,bycled,&&&&&&,left,care.virtue,,,,,,,0,222,222,222,,,,,,,,,,,,,,,,,,,,,AMP,right,0.28363805822345967,,,right,0,0.28363805822345967,0,,,,,,,,,,,,,,,,,,,,,,1071,2019_Mar_14_1403,mf_amp_cond1,3.0.4,59.987321266414924,
integrity,chared,&&&&&&,left,fairness.virtue,,,,,,,0,223,223,223,,,,,,,,,,,,,,,,,,,,,AMP,right,0.30032114059599735,,,right,0,0.30032114059599735,0,,,,,,,,,,,,,,,,,,,,,,1071,2019_Mar_14_1403,mf_amp_cond1,3.0.4,59.987321266414924,
commitment,disregord,&&&&&&&&&,left,sanctity.virtue,,,,,,,0,224,224,224,,,,,,,,,,,,,,,,,,,,,AMP,right,0.33365972310639336,,,right,0,0.33365972310639336,0,,,,,,,,,,,,,,,,,,,,,,1071,2019_Mar_14_1403,mf_amp_cond1,3.0.4,59.987321266414924,
dignity,baladroit,&&&&&&&&&,left,sanctity.virtue,,,,,,,0,225,225,225,,,,,,,,,,,,,,,,,,,,,AMP,right,0.30032370638514294,,,right,0,0.30032370638514294,0,,,,,,,,,,,,,,,,,,,,,,1071,2019_Mar_14_1403,mf_amp_cond1,3.0.4,59.987321266414924,
fair,nuckheap,&&&&&&&&,left,fairness.virtue,,,,,,,0,226,226,226,,,,,,,,,,,,,,,,,,,,,AMP,right,0.16697450792162272,,,right,0,0.16697450792162272,0,,,,,,,,,,,,,,,,,,,,,,1071,2019_Mar_14_1403,mf_amp_cond1,3.0.4,59.987321266414924,
blamed,tabin,&&&&&,right,loyalty.vice,,,,,,,0,227,227,227,,,,,,,,,,,,,,,,,,,,,AMP,left,0.20029641280211763,,,left,0,0.20029641280211763,0,,,,,,,,,,,,,,,,,,,,,,1071,2019_Mar_14_1403,mf_amp_cond1,3.0.4,59.987321266414924,
betrayal,chreams,&&&&&&&,right,loyalty.vice,,,,,,,0,228,228,228,,,,,,,,,,,,,,,,,,,,,AMP,left,0.5503723761999026,,,left,0,0.5503723761999026,0,,,,,,,,,,,,,,,,,,,,,,1071,2019_Mar_14_1403,mf_amp_cond1,3.0.4,59.987321266414924,
pharing,lorthwhile,&&&&&&&&&&,None,nonword,,,,,,,0,229,229,229,,,,,,,,,,,,,,,,,,,,,AMP,left,0.16695045364758698,,,left,0,0.16695045364758698,0,,,,,,,,,,,,,,,,,,,,,,1071,2019_Mar_14_1403,mf_amp_cond1,3.0.4,59.987321266414924,
corruption,drumbled,&&&&&&&&,right,sanctity.vice,,,,,,,0,230,230,230,,,,,,,,,,,,,,,,,,,,,AMP,left,0.266979350848942,,,left,0,0.266979350848942,0,,,,,,,,,,,,,,,,,,,,,,1071,2019_Mar_14_1403,mf_amp_cond1,3.0.4,59.987321266414924,
terrorist,erks,&&&&,right,loyalty.vice,,,,,,,0,231,231,231,,,,,,,,,,,,,,,,,,,,,AMP,left,0.25029306123974493,,,left,0,0.25029306123974493,0,,,,,,,,,,,,,,,,,,,,,,1071,2019_Mar_14_1403,mf_amp_cond1,3.0.4,59.987321266414924,
protect,faspberry,&&&&&&&&&,left,fairness.virtue,,,,,,,0,232,232,232,,,,,,,,,,,,,,,,,,,,,AMP,right,0.300315367569965,,,right,0,0.300315367569965,0,,,,,,,,,,,,,,,,,,,,,,1071,2019_Mar_14_1403,mf_amp_cond1,3.0.4,59.987321266414924,
friends,yane,&&&&,left,loyalty.virtue,,,,,,,0,233,233,233,,,,,,,,,,,,,,,,,,,,,AMP,right,0.2002877532634102,,,right,0,0.2002877532634102,0,,,,,,,,,,,,,,,,,,,,,,1071,2019_Mar_14_1403,mf_amp_cond1,3.0.4,59.987321266414924,
racist,refuejing,&&&&&&&&&,right,sanctity.vice,,,,,,,0,234,234,234,,,,,,,,,,,,,,,,,,,,,AMP,left,0.3169827344836449,,,left,0,0.3169827344836449,0,,,,,,,,,,,,,,,,,,,,,,1071,2019_Mar_14_1403,mf_amp_cond1,3.0.4,59.987321266414924,
victims,menizen,&&&&&&&,right,care.vice,,,,,,,0,235,235,235,,,,,,,,,,,,,,,,,,,,,AMP,right,0.3003169711885221,,,right,1,0.3003169711885221,1,,,,,,,,,,,,,,,,,,,,,,1071,2019_Mar_14_1403,mf_amp_cond1,3.0.4,59.987321266414924,
chadows,lachelor,&&&&&&&&,None,nonword,,,,,,,0,236,236,236,,,,,,,,,,,,,,,,,,,,,AMP,left,0.5503823186331829,,,left,0,0.5503823186331829,0,,,,,,,,,,,,,,,,,,,,,,1071,2019_Mar_14_1403,mf_amp_cond1,3.0.4,59.987321266414924,
peaceful,laming,&&&&&&,left,authority.virtue,,,,,,,0,237,237,237,,,,,,,,,,,,,,,,,,,,,AMP,right,0.18358189951140957,,,right,0,0.18358189951140957,0,,,,,,,,,,,,,,,,,,,,,,1071,2019_Mar_14_1403,mf_amp_cond1,3.0.4,59.987321266414924,
health,frocessing,&&&&&&&&&&,left,care.virtue,,,,,,,0,238,238,238,,,,,,,,,,,,,,,,,,,,,AMP,right,0.43367835715071124,,,right,0,0.43367835715071124,0,,,,,,,,,,,,,,,,,,,,,,1071,2019_Mar_14_1403,mf_amp_cond1,3.0.4,59.987321266414924,
crime,Lacedonia,&&&&&&&&&,right,fairness.vice,,,,,,,0,239,239,239,,,,,,,,,,,,,,,,,,,,,AMP,left,0.21695993103162436,,,left,0,0.21695993103162436,0,,,,,,,,,,,,,,,,,,,,,,1071,2019_Mar_14_1403,mf_amp_cond1,3.0.4,59.987321266414924,
support,ugeasily,&&&&&&&&,left,loyalty.virtue,,,,,,,0,240,240,240,,,,,,,,,,,,,,,,,,,,,AMP,right,0.43368829958421884,,,right,0,0.43368829958421884,0,,,,,,,,,,,,,,,,,,,,,,1071,2019_Mar_14_1403,mf_amp_cond1,3.0.4,59.987321266414924,
embrace,divility,&&&&&&&&,left,authority.virtue,,,,,,,0,241,241,241,,,,,,,,,,,,,,,,,,,,,AMP,right,0.23363339169441133,,,right,0,0.23363339169441133,0,,,,,,,,,,,,,,,,,,,,,,1071,2019_Mar_14_1403,mf_amp_cond1,3.0.4,59.987321266414924,
sliptery,feleological,&&&&&&&&&&&&,None,nonword,,,,,,,0,242,242,242,,,,,,,,,,,,,,,,,,,,,AMP,right,0.1169268644227941,,,right,0,0.1169268644227941,0,,,,,,,,,,,,,,,,,,,,,,1071,2019_Mar_14_1403,mf_amp_cond1,3.0.4,59.987321266414924,
pulge,hasks,&&&&&,None,nonword,,,,,,,0,243,243,243,,,,,,,,,,,,,,,,,,,,,AMP,left,0.18365053437378265,,,left,0,0.18365053437378265,0,,,,,,,,,,,,,,,,,,,,,,1071,2019_Mar_14_1403,mf_amp_cond1,3.0.4,59.987321266414924,
fontacts,baklara,&&&&&&&,None,nonword,,,,,,,0,244,244,244,,,,,,,,,,,,,,,,,,,,,AMP,left,0.3670037579190648,,,left,0,0.3670037579190648,0,,,,,,,,,,,,,,,,,,,,,,1071,2019_Mar_14_1403,mf_amp_cond1,3.0.4,59.987321266414924,
officers,hefurbished,&&&&&&&&&&&,right,authority.vice,,,,,,,0,245,245,245,,,,,,,,,,,,,,,,,,,,,AMP,right,0.5170469433592189,,,right,1,0.5170469433592189,1,,,,,,,,,,,,,,,,,,,,,,1071,2019_Mar_14_1403,mf_amp_cond1,3.0.4,59.987321266414924,
arrests,Daptist,&&&&&&&,right,authority.vice,,,,,,,0,246,246,246,,,,,,,,,,,,,,,,,,,,,AMP,left,0.40033464306179667,,,left,0,0.40033464306179667,0,,,,,,,,,,,,,,,,,,,,,,1071,2019_Mar_14_1403,mf_amp_cond1,3.0.4,59.987321266414924,
sexual,frocessing,&&&&&&&&&&,right,sanctity.vice,,,,,,,0,247,247,247,,,,,,,,,,,,,,,,,,,,,AMP,left,0.4004671019313264,,,left,0,0.4004671019313264,0,,,,,,,,,,,,,,,,,,,,,,1071,2019_Mar_14_1403,mf_amp_cond1,3.0.4,59.987321266414924,
fraud,hasks,&&&&&,right,fairness.vice,,,,,,,0,248,248,248,,,,,,,,,,,,,,,,,,,,,AMP,left,0.6337303785276163,,,left,0,0.6337303785276163,0,,,,,,,,,,,,,,,,,,,,,,1071,2019_Mar_14_1403,mf_amp_cond1,3.0.4,59.987321266414924,
integrity,yane,&&&&,left,fairness.virtue,,,,,,,0,249,249,249,,,,,,,,,,,,,,,,,,,,,AMP,right,0.25030043788410694,,,right,0,0.25030043788410694,0,,,,,,,,,,,,,,,,,,,,,,1071,2019_Mar_14_1403,mf_amp_cond1,3.0.4,59.987321266414924,
terrorists,gowlands,&&&&&&&&,right,fairness.vice,,,,,,,0,250,250,250,,,,,,,,,,,,,,,,,,,,,AMP,left,0.28363902039450295,,,left,0,0.28363902039450295,0,,,,,,,,,,,,,,,,,,,,,,1071,2019_Mar_14_1403,mf_amp_cond1,3.0.4,59.987321266414924,
win,laming,&&&&&&,left,fairness.virtue,,,,,,,0,251,251,251,,,,,,,,,,,,,,,,,,,,,AMP,left,1.1338639599300677,,,left,1,1.1338639599300677,1,,,,,,,,,,,,,,,,,,,,,,1071,2019_Mar_14_1403,mf_amp_cond1,3.0.4,59.987321266414924,
friends,simplustic,&&&&&&&&&&,left,loyalty.virtue,,,,,,,0,252,252,252,,,,,,,,,,,,,,,,,,,,,AMP,left,0.43368348872945717,,,left,1,0.43368348872945717,1,,,,,,,,,,,,,,,,,,,,,,1071,2019_Mar_14_1403,mf_amp_cond1,3.0.4,59.987321266414924,
victims,tracious,&&&&&&&&,right,care.vice,,,,,,,0,253,253,253,,,,,,,,,,,,,,,,,,,,,AMP,left,0.33366068527743664,,,left,0,0.33366068527743664,0,,,,,,,,,,,,,,,,,,,,,,1071,2019_Mar_14_1403,mf_amp_cond1,3.0.4,59.987321266414924,
torture,tabin,&&&&&,right,care.vice,,,,,,,0,254,254,254,,,,,,,,,,,,,,,,,,,,,AMP,left,0.38370415936879,,,left,0,0.38370415936879,0,,,,,,,,,,,,,,,,,,,,,,1071,2019_Mar_14_1403,mf_amp_cond1,3.0.4,59.987321266414924,
peaceful,chonograph,&&&&&&&&&&,left,authority.virtue,,,,,,,0,255,255,255,,,,,,,,,,,,,,,,,,,,,AMP,left,0.33364432837106506,,,left,1,0.33364432837106506,1,,,,,,,,,,,,,,,,,,,,,,1071,2019_Mar_14_1403,mf_amp_cond1,3.0.4,59.987321266414924,
harassment,sowntrodden,&&&&&&&&&&&,right,sanctity.vice,,,,,,,0,256,256,256,,,,,,,,,,,,,,,,,,,,,AMP,left,0.3169875453381792,,,left,0,0.3169875453381792,0,,,,,,,,,,,,,,,,,,,,,,1071,2019_Mar_14_1403,mf_amp_cond1,3.0.4,59.987321266414924,
crime,refuejing,&&&&&&&&&,right,fairness.vice,,,,,,,0,257,257,257,,,,,,,,,,,,,,,,,,,,,AMP,left,0.21696377971534275,,,left,0,0.21696377971534275,0,,,,,,,,,,,,,,,,,,,,,,1071,2019_Mar_14_1403,mf_amp_cond1,3.0.4,59.987321266414924,
betrayal,gondensed,&&&&&&&&&,right,loyalty.vice,,,,,,,0,258,258,258,,,,,,,,,,,,,,,,,,,,,AMP,left,0.1169268644227941,,,left,0,0.1169268644227941,0,,,,,,,,,,,,,,,,,,,,,,1071,2019_Mar_14_1403,mf_amp_cond1,3.0.4,59.987321266414924,
gun,framatic,&&&&&&&&,right,authority.vice,,,,,,,0,259,259,259,,,,,,,,,,,,,,,,,,,,,AMP,left,0.8671386222160891,,,left,0,0.8671386222160891,0,,,,,,,,,,,,,,,,,,,,,,1071,2019_Mar_14_1403,mf_amp_cond1,3.0.4,59.987321266414924,
safety,emports,&&&&&&&,left,care.virtue,,,,,,,0,260,260,260,,,,,,,,,,,,,,,,,,,,,AMP,right,0.45038389017918234,,,right,0,0.45038389017918234,0,,,,,,,,,,,,,,,,,,,,,,1071,2019_Mar_14_1403,mf_amp_cond1,3.0.4,59.987321266414924,
terrorist,vurtain,&&&&&&&,right,loyalty.vice,,,,,,,0,261,261,261,,,,,,,,,,,,,,,,,,,,,AMP,left,0.1336218135704712,,,left,0,0.1336218135704712,0,,,,,,,,,,,,,,,,,,,,,,1071,2019_Mar_14_1403,mf_amp_cond1,3.0.4,59.987321266414924,
unpleasant,Oregoniuns,&&&&&&&&&&,None,control,,,,,,,0,262,262,262,,,,,,,,,,,,,,,,,,,,,AMP,left,0.116931033830042,,,left,0,0.116931033830042,0,,,,,,,,,,,,,,,,,,,,,,1071,2019_Mar_14_1403,mf_amp_cond1,3.0.4,59.987321266414924,
failure,fonderland,&&&&&&&&&&,right,loyalty.vice,,,,,,,0,263,263,263,,,,,,,,,,,,,,,,,,,,,AMP,left,0.06692027355165919,,,left,0,0.06692027355165919,0,,,,,,,,,,,,,,,,,,,,,,1071,2019_Mar_14_1403,mf_amp_cond1,3.0.4,59.987321266414924,
violence,greaks,&&&&&&,right,care.vice,,,,,,,0,264,264,264,,,,,,,,,,,,,,,,,,,,,AMP,left,0.016905023141816855,,,left,0,0.016905023141816855,0,,,,,,,,,,,,,,,,,,,,,,1071,2019_Mar_14_1403,mf_amp_cond1,3.0.4,59.987321266414924,
scock,chreams,&&&&&&&,None,nonword,,,,,,,0,265,265,265,,,,,,,,,,,,,,,,,,,,,AMP,left,0.08360656316062887,,,left,0,0.08360656316062887,0,,,,,,,,,,,,,,,,,,,,,,1071,2019_Mar_14_1403,mf_amp_cond1,3.0.4,59.987321266414924,
pleasant,feleological,&&&&&&&&&&&&,None,control,,,,,,,0,266,266,266,,,,,,,,,,,,,,,,,,,,,AMP,right,0.08359084770154368,,,right,0,0.08359084770154368,0,,,,,,,,,,,,,,,,,,,,,,1071,2019_Mar_14_1403,mf_amp_cond1,3.0.4,59.987321266414924,
loyalty,menizen,&&&&&&&,left,loyalty.virtue,,,,,,,0,267,267,267,,,,,,,,,,,,,,,,,,,,,AMP,right,0.6004001348321708,,,right,0,0.6004001348321708,0,,,,,,,,,,,,,,,,,,,,,,1071,2019_Mar_14_1403,mf_amp_cond1,3.0.4,59.987321266414924,
health,fegard,&&&&&&,left,care.virtue,,,,,,,0,268,268,268,,,,,,,,,,,,,,,,,,,,,AMP,left,0.7170922295392756,,,left,1,0.7170922295392756,1,,,,,,,,,,,,,,,,,,,,,,1071,2019_Mar_14_1403,mf_amp_cond1,3.0.4,59.987321266414924,
embrace,supervuned,&&&&&&&&&&,left,authority.virtue,,,,,,,0,269,269,269,,,,,,,,,,,,,,,,,,,,,AMP,left,0.933779545463949,,,left,1,0.933779545463949,1,,,,,,,,,,,,,,,,,,,,,,1071,2019_Mar_14_1403,mf_amp_cond1,3.0.4,59.987321266414924,
accused,lorthwhile,&&&&&&&&&&,right,fairness.vice,,,,,,,0,270,270,270,,,,,,,,,,,,,,,,,,,,,AMP,left,0.200289036157983,,,left,0,0.200289036157983,0,,,,,,,,,,,,,,,,,,,,,,1071,2019_Mar_14_1403,mf_amp_cond1,3.0.4,59.987321266414924,
chadows,viscs,&&&&&,None,nonword,,,,,,,0,271,271,271,,,,,,,,,,,,,,,,,,,,,AMP,left,0.3169869038908928,,,left,0,0.3169869038908928,0,,,,,,,,,,,,,,,,,,,,,,1071,2019_Mar_14_1403,mf_amp_cond1,3.0.4,59.987321266414924,
gandbrake,disregord,&&&&&&&&&,None,nonword,,,,,,,0,272,272,272,,,,,,,,,,,,,,,,,,,,,AMP,right,0.18347766432361823,,,right,0,0.18347766432361823,0,,,,,,,,,,,,,,,,,,,,,,1071,2019_Mar_14_1403,mf_amp_cond1,3.0.4,59.987321266414924,
care,elduringly,&&&&&&&&&&,left,care.virtue,,,,,,,0,273,273,273,,,,,,,,,,,,,,,,,,,,,AMP,right,0.3169820930361311,,,right,0,0.3169820930361311,0,,,,,,,,,,,,,,,,,,,,,,1071,2019_Mar_14_1403,mf_amp_cond1,3.0.4,59.987321266414924,
energy,nomaric,&&&&&&&,left,sanctity.virtue,,,,,,,0,274,274,274,,,,,,,,,,,,,,,,,,,,,AMP,right,0.10026366691681687,,,right,0,0.10026366691681687,0,,,,,,,,,,,,,,,,,,,,,,1071,2019_Mar_14_1403,mf_amp_cond1,3.0.4,59.987321266414924,
groups,aubos,&&&&&,right,loyalty.vice,,,,,,,0,275,275,275,,,,,,,,,,,,,,,,,,,,,AMP,right,0.23363595748355692,,,right,1,0.23363595748355692,1,,,,,,,,,,,,,,,,,,,,,,1071,2019_Mar_14_1403,mf_amp_cond1,3.0.4,59.987321266414924,
clean,photocalkodes,&&&&&&&&&&&&&,left,sanctity.virtue,,,,,,,0,276,276,276,,,,,,,,,,,,,,,,,,,,,AMP,right,0.0169258701794206,,,right,0,0.0169258701794206,0,,,,,,,,,,,,,,,,,,,,,,1071,2019_Mar_14_1403,mf_amp_cond1,3.0.4,59.987321266414924,
love,grovelire,&&&&&&&&&,left,loyalty.virtue,,,,,,,0,277,277,277,,,,,,,,,,,,,,,,,,,,,AMP,right,0.01690245735244389,,,right,0,0.01690245735244389,0,,,,,,,,,,,,,,,,,,,,,,1071,2019_Mar_14_1403,mf_amp_cond1,3.0.4,59.987321266414924,
help,gationwide,&&&&&&&&&&,left,care.virtue,,,,,,,0,278,278,278,,,,,,,,,,,,,,,,,,,,,AMP,right,0.016913361956767403,,,right,0,0.016913361956767403,0,,,,,,,,,,,,,,,,,,,,,,1071,2019_Mar_14_1403,mf_amp_cond1,3.0.4,59.987321266414924,
values,wump,&&&&,left,sanctity.virtue,,,,,,,0,279,279,279,,,,,,,,,,,,,,,,,,,,,AMP,right,1.0838413328763181,,,right,0,1.0838413328763181,0,,,,,,,,,,,,,,,,,,,,,,1071,2019_Mar_14_1403,mf_amp_cond1,3.0.4,59.987321266414924,
illegal,gournful,&&&&&&&&,right,fairness.vice,,,,,,,0,280,280,280,,,,,,,,,,,,,,,,,,,,,AMP,left,1.1339111063073233,,,left,0,1.1339111063073233,0,,,,,,,,,,,,,,,,,,,,,,1071,2019_Mar_14_1403,mf_amp_cond1,3.0.4,59.987321266414924,
restore,uller,&&&&&,left,care.virtue,,,,,,,0,281,281,281,,,,,,,,,,,,,,,,,,,,,AMP,left,0.5837247498275246,,,left,1,0.5837247498275246,1,,,,,,,,,,,,,,,,,,,,,,1071,2019_Mar_14_1403,mf_amp_cond1,3.0.4,59.987321266414924,
fighters,troubla,&&&&&&&,right,authority.vice,,,,,,,0,282,282,282,,,,,,,,,,,,,,,,,,,,,AMP,left,0.6670772998531902,,,left,0,0.6670772998531902,0,,,,,,,,,,,,,,,,,,,,,,1071,2019_Mar_14_1403,mf_amp_cond1,3.0.4,59.987321266414924,
charges,erks,&&&&,right,fairness.vice,,,,,,,0,283,283,283,,,,,,,,,,,,,,,,,,,,,AMP,right,0.01684087841067594,,,right,1,0.01684087841067594,1,,,,,,,,,,,,,,,,,,,,,,1071,2019_Mar_14_1403,mf_amp_cond1,3.0.4,59.987321266414924,
fontacts,pescinded,&&&&&&&&&,None,nonword,,,,,,,0,284,284,284,,,,,,,,,,,,,,,,,,,,,AMP,left,0.283504637183114,,,left,0,0.283504637183114,0,,,,,,,,,,,,,,,,,,,,,,1071,2019_Mar_14_1403,mf_amp_cond1,3.0.4,59.987321266414924,
killed,squets,&&&&&&,right,care.vice,,,,,,,0,285,285,285,,,,,,,,,,,,,,,,,,,,,AMP,left,0.08363959769690155,,,left,0,0.08363959769690155,0,,,,,,,,,,,,,,,,,,,,,,1071,2019_Mar_14_1403,mf_amp_cond1,3.0.4,59.987321266414924,
victim,bycled,&&&&&&,right,care.vice,,,,,,,0,286,286,286,,,,,,,,,,,,,,,,,,,,,AMP,left,1.3839305902693013,,,left,0,1.3839305902693013,0,,,,,,,,,,,,,,,,,,,,,,1071,2019_Mar_14_1403,mf_amp_cond1,3.0.4,59.987321266414924,
drug,frojecting,&&&&&&&&&&,right,sanctity.vice,,,,,,,0,287,287,287,,,,,,,,,,,,,,,,,,,,,AMP,left,0.2002851874742646,,,left,0,0.2002851874742646,0,,,,,,,,,,,,,,,,,,,,,,1071,2019_Mar_14_1403,mf_amp_cond1,3.0.4,59.987321266414924,
corruption,taxpayung,&&&&&&&&&,right,sanctity.vice,,,,,,,0,288,288,288,,,,,,,,,,,,,,,,,,,,,AMP,right,0.5670551378486834,,,right,1,0.5670551378486834,1,,,,,,,,,,,,,,,,,,,,,,1071,2019_Mar_14_1403,mf_amp_cond1,3.0.4,59.987321266414924,
free,ebbitter,&&&&&&&&,left,fairness.virtue,,,,,,,0,289,289,289,,,,,,,,,,,,,,,,,,,,,AMP,right,0.01691528629885397,,,right,0,0.01691528629885397,0,,,,,,,,,,,,,,,,,,,,,,1071,2019_Mar_14_1403,mf_amp_cond1,3.0.4,59.987321266414924,
good,baladroit,&&&&&&&&&,left,care.virtue,,,,,,,0,290,290,290,,,,,,,,,,,,,,,,,,,,,AMP,right,0.016912720509481005,,,right,0,0.016912720509481005,0,,,,,,,,,,,,,,,,,,,,,,1071,2019_Mar_14_1403,mf_amp_cond1,3.0.4,59.987321266414924,
improve,pafer,&&&&&,left,care.virtue,,,,,,,0,291,291,291,,,,,,,,,,,,,,,,,,,,,AMP,right,0.2836582638140044,,,right,0,0.2836582638140044,0,,,,,,,,,,,,,,,,,,,,,,1071,2019_Mar_14_1403,mf_amp_cond1,3.0.4,59.987321266414924,
serial,nomparisons,&&&&&&&&&&&,right,sanctity.vice,,,,,,,0,292,292,292,,,,,,,,,,,,,,,,,,,,,AMP,right,0.033608311104671884,,,right,1,0.033608311104671884,1,,,,,,,,,,,,,,,,,,,,,,1071,2019_Mar_14_1403,mf_amp_cond1,3.0.4,59.987321266414924,
strong,Lacedonia,&&&&&&&&&,left,loyalty.virtue,,,,,,,0,293,293,293,,,,,,,,,,,,,,,,,,,,,AMP,right,0.016921059324658927,,,right,0,0.016921059324658927,0,,,,,,,,,,,,,,,,,,,,,,1071,2019_Mar_14_1403,mf_amp_cond1,3.0.4,59.987321266414924,
sliptery,wonderfujnoss,&&&&&&&&&&&&&,None,nonword,,,,,,,0,294,294,294,,,,,,,,,,,,,,,,,,,,,AMP,right,0.01690534386557374,,,right,0,0.01690534386557374,0,,,,,,,,,,,,,,,,,,,,,,1071,2019_Mar_14_1403,mf_amp_cond1,3.0.4,59.987321266414924,
support,nackers,&&&&&&&,left,loyalty.virtue,,,,,,,0,295,295,295,,,,,,,,,,,,,,,,,,,,,AMP,right,0.5003638609869085,,,right,0,0.5003638609869085,0,,,,,,,,,,,,,,,,,,,,,,1071,2019_Mar_14_1403,mf_amp_cond1,3.0.4,59.987321266414924,
commitment,lachelor,&&&&&&&&,left,sanctity.virtue,,,,,,,0,296,296,296,,,,,,,,,,,,,,,,,,,,,AMP,left,0.050253548085493094,,,left,1,0.050253548085493094,1,,,,,,,,,,,,,,,,,,,,,,1071,2019_Mar_14_1403,mf_amp_cond1,3.0.4,59.987321266414924,
suicide,galamitous,&&&&&&&&&&,right,care.vice,,,,,,,0,297,297,297,,,,,,,,,,,,,,,,,,,,,AMP,left,0.10027393007385399,,,left,0,0.10027393007385399,0,,,,,,,,,,,,,,,,,,,,,,1071,2019_Mar_14_1403,mf_amp_cond1,3.0.4,59.987321266414924,
fair,hefurbished,&&&&&&&&&&&,left,fairness.virtue,,,,,,,0,298,298,298,,,,,,,,,,,,,,,,,,,,,AMP,right,0.03358233248854958,,,right,0,0.03358233248854958,0,,,,,,,,,,,,,,,,,,,,,,1071,2019_Mar_14_1403,mf_amp_cond1,3.0.4,59.987321266414924,
praised,gikely,&&&&&&,left,loyalty.virtue,,,,,,,0,299,299,299,,,,,,,,,,,,,,,,,,,,,AMP,left,0.00025882398972498777,,,left,1,0.00025882398972498777,1,,,,,,,,,,,,,,,,,,,,,,1071,2019_Mar_14_1403,mf_amp_cond1,3.0.4,59.987321266414924,
promises,ejanulated,&&&&&&&&&&,left,fairness.virtue,,,,,,,0,300,300,300,,,,,,,,,,,,,,,,,,,,,AMP,right,0.01692843596856619,,,right,0,0.01692843596856619,0,,,,,,,,,,,,,,,,,,,,,,1071,2019_Mar_14_1403,mf_amp_cond1,3.0.4,59.987321266414924,
encourage,unscothed,&&&&&&&&&,left,authority.virtue,,,,,,,0,301,301,301,,,,,,,,,,,,,,,,,,,,,AMP,left,0.23364140978583237,,,left,1,0.23364140978583237,1,,,,,,,,,,,,,,,,,,,,,,1071,2019_Mar_14_1403,mf_amp_cond1,3.0.4,59.987321266414924,
attacks,ammessment,&&&&&&&&&&,right,care.vice,,,,,,,0,302,302,302,,,,,,,,,,,,,,,,,,,,,AMP,right,0.5670503269936944,,,right,1,0.5670503269936944,1,,,,,,,,,,,,,,,,,,,,,,1071,2019_Mar_14_1403,mf_amp_cond1,3.0.4,59.987321266414924,
honored,abointment,&&&&&&&&&&,left,authority.virtue,,,,,,,0,303,303,303,,,,,,,,,,,,,,,,,,,,,AMP,left,0.11694578711853865,,,left,1,0.11694578711853865,1,,,,,,,,,,,,,,,,,,,,,,1071,2019_Mar_14_1403,mf_amp_cond1,3.0.4,59.987321266414924,
dignity,imebreaker,&&&&&&&&&&,left,sanctity.virtue,,,,,,,0,304,304,304,,,,,,,,,,,,,,,,,,,,,AMP,left,0.5003731619729024,,,left,1,0.5003731619729024,1,,,,,,,,,,,,,,,,,,,,,,1071,2019_Mar_14_1403,mf_amp_cond1,3.0.4,59.987321266414924,
rejected,synchronazers,&&&&&&&&&&&&&,right,authority.vice,,,,,,,0,305,305,305,,,,,,,,,,,,,,,,,,,,,AMP,left,0.45037138195652915,,,left,0,0.45037138195652915,0,,,,,,,,,,,,,,,,,,,,,,1071,2019_Mar_14_1403,mf_amp_cond1,3.0.4,59.987321266414924,
ablow,ugeasily,&&&&&&&&,None,nonword,,,,,,,0,306,306,306,,,,,,,,,,,,,,,,,,,,,AMP,left,0.38367176627957633,,,left,0,0.38367176627957633,0,,,,,,,,,,,,,,,,,,,,,,1071,2019_Mar_14_1403,mf_amp_cond1,3.0.4,59.987321266414924,
interests,divility,&&&&&&&&,left,fairness.virtue,,,,,,,0,307,307,307,,,,,,,,,,,,,,,,,,,,,AMP,left,0.08361426052829302,,,left,1,0.08361426052829302,1,,,,,,,,,,,,,,,,,,,,,,1071,2019_Mar_14_1403,mf_amp_cond1,3.0.4,59.987321266414924,
lenon,precificity,&&&&&&&&&&&,None,nonword,,,,,,,0,308,308,308,,,,,,,,,,,,,,,,,,,,,AMP,right,0.3169933183642115,,,right,0,0.3169933183642115,0,,,,,,,,,,,,,,,,,,,,,,1071,2019_Mar_14_1403,mf_amp_cond1,3.0.4,59.987321266414924,
men,papert,&&&&&&,right,loyalty.vice,,,,,,,0,309,309,309,,,,,,,,,,,,,,,,,,,,,AMP,left,0.2670149511745876,,,left,0,0.2670149511745876,0,,,,,,,,,,,,,,,,,,,,,,1071,2019_Mar_14_1403,mf_amp_cond1,3.0.4,59.987321266414924,
blamed,proached,&&&&&&&&,right,loyalty.vice,,,,,,,0,310,310,310,,,,,,,,,,,,,,,,,,,,,AMP,right,0.3503248449542298,,,right,1,0.3503248449542298,1,,,,,,,,,,,,,,,,,,,,,,1071,2019_Mar_14_1403,mf_amp_cond1,3.0.4,59.987321266414924,
pulge,hescribe,&&&&&&&&,None,nonword,,,,,,,0,311,311,311,,,,,,,,,,,,,,,,,,,,,AMP,right,0.3336517050151997,,,right,0,0.3336517050151997,0,,,,,,,,,,,,,,,,,,,,,,1071,2019_Mar_14_1403,mf_amp_cond1,3.0.4,59.987321266414924,
freedom,faspberry,&&&&&&&&&,left,sanctity.virtue,,,,,,,0,312,312,312,,,,,,,,,,,,,,,,,,,,,AMP,right,0.2669854445985038,,,right,0,0.2669854445985038,0,,,,,,,,,,,,,,,,,,,,,,1071,2019_Mar_14_1403,mf_amp_cond1,3.0.4,59.987321266414924,
praise,thadowed,&&&&&&&&,left,authority.virtue,,,,,,,0,313,313,313,,,,,,,,,,,,,,,,,,,,,AMP,right,0.5170491884248349,,,right,0,0.5170491884248349,0,,,,,,,,,,,,,,,,,,,,,,1071,2019_Mar_14_1403,mf_amp_cond1,3.0.4,59.987321266414924,
leact,dormandi,&&&&&&&&,None,nonword,,,,,,,0,314,314,314,,,,,,,,,,,,,,,,,,,,,AMP,left,0.4503794000477228,,,left,0,0.4503794000477228,0,,,,,,,,,,,,,,,,,,,,,,1071,2019_Mar_14_1403,mf_amp_cond1,3.0.4,59.987321266414924,
officers,ning,&&&&,right,authority.vice,,,,,,,0,315,315,315,,,,,,,,,,,,,,,,,,,,,AMP,right,0.016896684326638933,,,right,1,0.016896684326638933,1,,,,,,,,,,,,,,,,,,,,,,1071,2019_Mar_14_1403,mf_amp_cond1,3.0.4,59.987321266414924,
celebrated,ittutable,&&&&&&&&&,left,authority.virtue,,,,,,,0,316,316,316,,,,,,,,,,,,,,,,,,,,,AMP,left,0.7504353021811312,,,left,1,0.7504353021811312,1,,,,,,,,,,,,,,,,,,,,,,1071,2019_Mar_14_1403,mf_amp_cond1,3.0.4,59.987321266414924,
protesters,letish,&&&&&&,right,authority.vice,,,,,,,0,317,317,317,,,,,,,,,,,,,,,,,,,,,AMP,left,0.533705330010207,,,left,0,0.533705330010207,0,,,,,,,,,,,,,,,,,,,,,,1071,2019_Mar_14_1403,mf_amp_cond1,3.0.4,59.987321266414924,
war,baklara,&&&&&&&,right,sanctity.vice,,,,,,,0,318,318,318,,,,,,,,,,,,,,,,,,,,,AMP,left,0.4170141974739181,,,left,0,0.4170141974739181,0,,,,,,,,,,,,,,,,,,,,,,1071,2019_Mar_14_1403,mf_amp_cond1,3.0.4,59.987321266414924,
pharing,chared,&&&&&&,None,nonword,,,,,,,0,319,319,319,,,,,,,,,,,,,,,,,,,,,AMP,left,0.3503479370572222,,,left,0,0.3503479370572222,0,,,,,,,,,,,,,,,,,,,,,,1071,2019_Mar_14_1403,mf_amp_cond1,3.0.4,59.987321266414924,
lies,lempestuous,&&&&&&&&&&&,right,fairness.vice,,,,,,,0,320,320,320,,,,,,,,,,,,,,,,,,,,,AMP,left,0.5170408496098844,,,left,0,0.5170408496098844,0,,,,,,,,,,,,,,,,,,,,,,1071,2019_Mar_14_1403,mf_amp_cond1,3.0.4,59.987321266414924,
racist,perified,&&&&&&&&,right,sanctity.vice,,,,,,,0,321,321,321,,,,,,,,,,,,,,,,,,,,,AMP,left,0.30031183960977614,,,left,0,0.30031183960977614,0,,,,,,,,,,,,,,,,,,,,,,1071,2019_Mar_14_1403,mf_amp_cond1,3.0.4,59.987321266414924,
protect,nuckheap,&&&&&&&&,left,fairness.virtue,,,,,,,0,322,322,322,,,,,,,,,,,,,,,,,,,,,AMP,left,0.36698419377603386,,,left,1,0.36698419377603386,1,,,,,,,,,,,,,,,,,,,,,,1071,2019_Mar_14_1403,mf_amp_cond1,3.0.4,59.987321266414924,
perfect,chressing,&&&&&&&&&,left,sanctity.virtue,,,,,,,0,323,323,323,,,,,,,,,,,,,,,,,,,,,AMP,right,0.2836409447365895,,,right,0,0.2836409447365895,0,,,,,,,,,,,,,,,,,,,,,,1071,2019_Mar_14_1403,mf_amp_cond1,3.0.4,59.987321266414924,
critics,gedious,&&&&&&&,right,loyalty.vice,,,,,,,0,324,324,324,,,,,,,,,,,,,,,,,,,,,AMP,left,0.3003012557292095,,,left,0,0.3003012557292095,0,,,,,,,,,,,,,,,,,,,,,,1071,2019_Mar_14_1403,mf_amp_cond1,3.0.4,59.987321266414924,
hope,drumbled,&&&&&&&&,left,loyalty.virtue,,,,,,,0,325,325,325,,,,,,,,,,,,,,,,,,,,,AMP,left,0.3336895504064614,,,left,1,0.3336895504064614,1,,,,,,,,,,,,,,,,,,,,,,1071,2019_Mar_14_1403,mf_amp_cond1,3.0.4,59.987321266414924,
police,bluently,&&&&&&&&,right,authority.vice,,,,,,,0,326,326,326,,,,,,,,,,,,,,,,,,,,,AMP,right,0.0002556167532929976,,,right,1,0.0002556167532929976,1,,,,,,,,,,,,,,,,,,,,,,1071,2019_Mar_14_1403,mf_amp_cond1,3.0.4,59.987321266414924,
powerful,pullness,&&&&&&&&,left,authority.virtue,,,,,,,0,327,327,327,,,,,,,,,,,,,,,,,,,,,AMP,right,0.08358699901759792,,,right,0,0.08358699901759792,0,,,,,,,,,,,,,,,,,,,,,,1071,2019_Mar_14_1403,mf_amp_cond1,3.0.4,59.987321266414924,
,,,,,,,,,,,,,,,,,,,,,,,,,,,,,,,,,,,,,,,,,,,,2,8.704,,,,,,,,,,,,,,,,,,,,1071,2019_Mar_14_1403,mf_amp_cond1,3.0.4,59.987321266414924,
,,,,,,,,,,,,,,,,,,,,,,,,,,,,,,,,,,,,,,,,,,,,,,6,3.82,,,,,,,,,,,,,,,,,,1071,2019_Mar_14_1403,mf_amp_cond1,3.0.4,59.987321266414924,
,,,,,,,,,,,,,,,,,,,,,,,,,,,,,,,,,,,,,,,,,,,,,,,,4,4.036,,,,,,,,,,,,,,,,1071,2019_Mar_14_1403,mf_amp_cond1,3.0.4,59.987321266414924,
,,,,,,,,,,,,,,,,,,,,,,,,,,,,,,,,,,,,,,,,,,,,,,,,,,right,1.100523773801342,,,,,,,,,,,,,,1071,2019_Mar_14_1403,mf_amp_cond1,3.0.4,59.987321266414924,
keyboard,,&&&&&&&,,,,,,,,,,,,,0,0,0,0,,,,,,,,,,,,,,,,,LDT_prac,right,3.0510313029494682,,,,,,0,,,,,,,,,right,3.0510313029494682,,,,,,,,,,,,1071,2019_Mar_14_1403,mf_amp_cond1,3.0.4,59.987321266414924,
bisebell,,&&&&&&&,,,,,,,,,,,,,0,1,1,1,,,,,,,,,,,,,,,,,LDT_prac,left,2.4842163871187495,,,,,,0,,,,,,,,,left,2.4842163871187495,,,,,,,,,,,,1071,2019_Mar_14_1403,mf_amp_cond1,3.0.4,59.987321266414924,
,,,,,,,,,,,,,,,,,,,,,,,,,,,,,,,,,,,,,,,,,,,,,,,,,,,,,,right,0.8171188816750146,,,,,,,,,,1071,2019_Mar_14_1403,mf_amp_cond1,3.0.4,59.987321266414924,
thabbily,,&&&&&&&&,right,nonword,,,,,,,,,,,,,,,0,0,0,165,,,,,,,,,,,,,LDT,left,1.433948085744987,,,,,,0,,,,,,,,,,,,,left,0,1.433948085744987,,,,,,,1071,2019_Mar_14_1403,mf_amp_cond1,3.0.4,59.987321266414924,
progress,,&&&&&&&&,left,authority.virtue,,,,,,,,,,,,,,,0,1,1,101,,,,,,,,,,,,,LDT,right,1.0003348354960053,,,,,,0,,,,,,,,,,,,,right,0,1.0003348354960053,,,,,,,1071,2019_Mar_14_1403,mf_amp_cond1,3.0.4,59.987321266414924,
party,,&&&&&,left,loyalty.virtue,,,,,,,,,,,,,,,0,2,2,97,,,,,,,,,,,,,LDT,right,0.7004354465068445,,,,,,0,,,,,,,,,,,,,right,0,0.7004354465068445,,,,,,,1071,2019_Mar_14_1403,mf_amp_cond1,3.0.4,59.987321266414924,
faith,,&&&&&,left,sanctity.virtue,,,,,,,,,,,,,,,0,3,3,60,,,,,,,,,,,,,LDT,right,0.6170610872723046,,,,,,0,,,,,,,,,,,,,right,0,0.6170610872723046,,,,,,,1071,2019_Mar_14_1403,mf_amp_cond1,3.0.4,59.987321266414924,
rorroborated,,&&&&&&&&&&&&,right,nonword,,,,,,,,,,,,,,,0,4,4,122,,,,,,,,,,,,,LDT,left,1.1005224909065419,,,,,,0,,,,,,,,,,,,,left,0,1.1005224909065419,,,,,,,1071,2019_Mar_14_1403,mf_amp_cond1,3.0.4,59.987321266414924,
also,,&&&&,left,neutral,,,,,,,,,,,,,,,0,5,5,47,,,,,,,,,,,,,LDT,right,0.5337024434973046,,,,,,0,,,,,,,,,,,,,right,0,0.5337024434973046,,,,,,,1071,2019_Mar_14_1403,mf_amp_cond1,3.0.4,59.987321266414924,
refused,,&&&&&&&,left,authority.vice,,,,,,,,,,,,,,,0,6,6,110,,,,,,,,,,,,,LDT,right,0.6337499426706472,,,,,,0,,,,,,,,,,,,,right,0,0.6337499426706472,,,,,,,1071,2019_Mar_14_1403,mf_amp_cond1,3.0.4,59.987321266414924,
injured,,&&&&&&&,left,care.vice,,,,,,,,,,,,,,,0,7,7,40,,,,,,,,,,,,,LDT,right,0.5003667474995837,,,,,,0,,,,,,,,,,,,,right,0,0.5003667474995837,,,,,,,1071,2019_Mar_14_1403,mf_amp_cond1,3.0.4,59.987321266414924,
ilportation,,&&&&&&&&&&&,right,nonword,,,,,,,,,,,,,,,0,8,8,20,,,,,,,,,,,,,LDT,right,1.5006412869486212,,,,,,1,,,,,,,,,,,,,right,1,1.5006412869486212,,,,,,,1071,2019_Mar_14_1403,mf_amp_cond1,3.0.4,59.987321266414924,
been,,&&&&,left,neutral,,,,,,,,,,,,,,,0,9,9,155,,,,,,,,,,,,,LDT,right,0.5337094994179097,,,,,,0,,,,,,,,,,,,,right,0,0.5337094994179097,,,,,,,1071,2019_Mar_14_1403,mf_amp_cond1,3.0.4,59.987321266414924,
tenuflect,,&&&&&&&&&,right,nonword,,,,,,,,,,,,,,,0,10,10,161,,,,,,,,,,,,,LDT,left,0.6670869215629409,,,,,,0,,,,,,,,,,,,,left,0,0.6670869215629409,,,,,,,1071,2019_Mar_14_1403,mf_amp_cond1,3.0.4,59.987321266414924,
unreflectuve,,&&&&&&&&&&&&,right,nonword,,,,,,,,,,,,,,,0,11,11,132,,,,,,,,,,,,,LDT,left,0.6337348686588484,,,,,,0,,,,,,,,,,,,,left,0,0.6337348686588484,,,,,,,1071,2019_Mar_14_1403,mf_amp_cond1,3.0.4,59.987321266414924,
peace,,&&&&&,left,care.virtue,,,,,,,,,,,,,,,0,12,12,0,,,,,,,,,,,,,LDT,right,0.4670320136731334,,,,,,0,,,,,,,,,,,,,right,0,0.4670320136731334,,,,,,,1071,2019_Mar_14_1403,mf_amp_cond1,3.0.4,59.987321266414924,
clattening,,&&&&&&&&&&,right,nonword,,,,,,,,,,,,,,,0,13,13,70,,,,,,,,,,,,,LDT,left,1.2672548524687954,,,,,,0,,,,,,,,,,,,,left,0,1.2672548524687954,,,,,,,1071,2019_Mar_14_1403,mf_amp_cond1,3.0.4,59.987321266414924,
either,,&&&&&&,left,neutral,,,,,,,,,,,,,,,0,14,14,84,,,,,,,,,,,,,LDT,right,0.5003930468394628,,,,,,0,,,,,,,,,,,,,right,0,0.5003930468394628,,,,,,,1071,2019_Mar_14_1403,mf_amp_cond1,3.0.4,59.987321266414924,
death,,&&&&&,left,care.vice,,,,,,,,,,,,,,,0,15,15,57,,,,,,,,,,,,,LDT,right,0.567060269427202,,,,,,0,,,,,,,,,,,,,right,0,0.567060269427202,,,,,,,1071,2019_Mar_14_1403,mf_amp_cond1,3.0.4,59.987321266414924,
alar,,&&&&,right,nonword,,,,,,,,,,,,,,,0,16,16,11,,,,,,,,,,,,,LDT,left,0.6671045613638853,,,,,,0,,,,,,,,,,,,,left,0,0.6671045613638853,,,,,,,1071,2019_Mar_14_1403,mf_amp_cond1,3.0.4,59.987321266414924,
strength,,&&&&&&&&,left,sanctity.virtue,,,,,,,,,,,,,,,0,17,17,23,,,,,,,,,,,,,LDT,right,0.5670323664689931,,,,,,0,,,,,,,,,,,,,right,0,0.5670323664689931,,,,,,,1071,2019_Mar_14_1403,mf_amp_cond1,3.0.4,59.987321266414924,
clamorek,,&&&&&&&&,right,nonword,,,,,,,,,,,,,,,0,18,18,45,,,,,,,,,,,,,LDT,left,0.7004341636120444,,,,,,0,,,,,,,,,,,,,left,0,0.7004341636120444,,,,,,,1071,2019_Mar_14_1403,mf_amp_cond1,3.0.4,59.987321266414924,
thru,,&&&&,left,neutral,,,,,,,,,,,,,,,0,19,19,105,,,,,,,,,,,,,LDT,right,0.5337059714574934,,,,,,0,,,,,,,,,,,,,right,0,0.5337059714574934,,,,,,,1071,2019_Mar_14_1403,mf_amp_cond1,3.0.4,59.987321266414924,
gazily,,&&&&&&,right,nonword,,,,,,,,,,,,,,,0,20,20,123,,,,,,,,,,,,,LDT,left,0.8837944430777043,,,,,,0,,,,,,,,,,,,,left,0,0.8837944430777043,,,,,,,1071,2019_Mar_14_1403,mf_amp_cond1,3.0.4,59.987321266414924,
nonobservalt,,&&&&&&&&&&&&,right,nonword,,,,,,,,,,,,,,,0,21,21,169,,,,,,,,,,,,,LDT,left,0.7337672938203923,,,,,,0,,,,,,,,,,,,,left,0,0.7337672938203923,,,,,,,1071,2019_Mar_14_1403,mf_amp_cond1,3.0.4,59.987321266414924,
spag,,&&&&,None,nonword,,,,,,,,,,,,,,,0,22,22,133,,,,,,,,,,,,,LDT,left,0.9338324648672369,,,,,,0,,,,,,,,,,,,,left,0,0.9338324648672369,,,,,,,1071,2019_Mar_14_1403,mf_amp_cond1,3.0.4,59.987321266414924,
toward,,&&&&&&,left,neutral,,,,,,,,,,,,,,,0,23,23,196,,,,,,,,,,,,,LDT,right,0.5170289828345176,,,,,,0,,,,,,,,,,,,,right,0,0.5170289828345176,,,,,,,1071,2019_Mar_14_1403,mf_amp_cond1,3.0.4,59.987321266414924,
bruthfulness,,&&&&&&&&&&&&,right,nonword,,,,,,,,,,,,,,,0,24,24,198,,,,,,,,,,,,,LDT,left,0.7504401130356655,,,,,,0,,,,,,,,,,,,,left,0,0.7504401130356655,,,,,,,1071,2019_Mar_14_1403,mf_amp_cond1,3.0.4,59.987321266414924,
framo,,&&&&&,right,nonword,,,,,,,,,,,,,,,0,25,25,166,,,,,,,,,,,,,LDT,left,0.7505084271742817,,,,,,0,,,,,,,,,,,,,left,0,0.7505084271742817,,,,,,,1071,2019_Mar_14_1403,mf_amp_cond1,3.0.4,59.987321266414924,
festate,,&&&&&&&,right,nonword,,,,,,,,,,,,,,,0,26,26,129,,,,,,,,,,,,,LDT,left,1.0171789211433406,,,,,,0,,,,,,,,,,,,,left,0,1.0171789211433406,,,,,,,1071,2019_Mar_14_1403,mf_amp_cond1,3.0.4,59.987321266414924,
gillipede,,&&&&&&&&&,None,nonword,,,,,,,,,,,,,,,0,27,27,144,,,,,,,,,,,,,LDT,left,0.6170565971412998,,,,,,0,,,,,,,,,,,,,left,0,0.6170565971412998,,,,,,,1071,2019_Mar_14_1403,mf_amp_cond1,3.0.4,59.987321266414924,
godlaness,,&&&&&&&&&,right,nonword,,,,,,,,,,,,,,,0,28,28,85,,,,,,,,,,,,,LDT,left,0.6837427424245561,,,,,,0,,,,,,,,,,,,,left,0,0.6837427424245561,,,,,,,1071,2019_Mar_14_1403,mf_amp_cond1,3.0.4,59.987321266414924,
promote,,&&&&&&&,left,sanctity.virtue,,,,,,,,,,,,,,,0,29,29,89,,,,,,,,,,,,,LDT,left,1.3006296767523509,,,,,,1,,,,,,,,,,,,,left,1,1.3006296767523509,,,,,,,1071,2019_Mar_14_1403,mf_amp_cond1,3.0.4,59.987321266414924,
useful,,&&&&&&,left,authority.virtue,,,,,,,,,,,,,,,0,30,30,113,,,,,,,,,,,,,LDT,right,0.4502443753890475,,,,,,0,,,,,,,,,,,,,right,0,0.4502443753890475,,,,,,,1071,2019_Mar_14_1403,mf_amp_cond1,3.0.4,59.987321266414924,
neutralust,,&&&&&&&&&&,right,nonword,,,,,,,,,,,,,,,0,31,31,5,,,,,,,,,,,,,LDT,left,0.5503941854083223,,,,,,0,,,,,,,,,,,,,left,0,0.5503941854083223,,,,,,,1071,2019_Mar_14_1403,mf_amp_cond1,3.0.4,59.987321266414924,
iptervention,,&&&&&&&&&&&&,right,nonword,,,,,,,,,,,,,,,0,32,32,184,,,,,,,,,,,,,LDT,left,0.5503752627128051,,,,,,0,,,,,,,,,,,,,left,0,0.5503752627128051,,,,,,,1071,2019_Mar_14_1403,mf_amp_cond1,3.0.4,59.987321266414924,
pumber,,&&&&&&,None,nonword,,,,,,,,,,,,,,,0,33,33,96,,,,,,,,,,,,,LDT,left,0.5503743005417618,,,,,,0,,,,,,,,,,,,,left,0,0.5503743005417618,,,,,,,1071,2019_Mar_14_1403,mf_amp_cond1,3.0.4,59.987321266414924,
front,,&&&&&,left,neutral,,,,,,,,,,,,,,,0,34,34,32,,,,,,,,,,,,,LDT,right,0.45034604478769324,,,,,,0,,,,,,,,,,,,,right,0,0.45034604478769324,,,,,,,1071,2019_Mar_14_1403,mf_amp_cond1,3.0.4,59.987321266414924,
about,,&&&&&,left,neutral,,,,,,,,,,,,,,,0,35,35,48,,,,,,,,,,,,,LDT,right,0.5003677096706269,,,,,,0,,,,,,,,,,,,,right,0,0.5003677096706269,,,,,,,1071,2019_Mar_14_1403,mf_amp_cond1,3.0.4,59.987321266414924,
noped,,&&&&&,right,nonword,,,,,,,,,,,,,,,0,36,36,187,,,,,,,,,,,,,LDT,left,0.6170456925369763,,,,,,0,,,,,,,,,,,,,left,0,0.6170456925369763,,,,,,,1071,2019_Mar_14_1403,mf_amp_cond1,3.0.4,59.987321266414924,
dumid,,&&&&&,right,nonword,,,,,,,,,,,,,,,0,37,37,120,,,,,,,,,,,,,LDT,left,0.5503816771858965,,,,,,0,,,,,,,,,,,,,left,0,0.5503816771858965,,,,,,,1071,2019_Mar_14_1403,mf_amp_cond1,3.0.4,59.987321266414924,
fifteen,,&&&&&&&,left,neutral,,,,,,,,,,,,,,,0,38,38,92,,,,,,,,,,,,,LDT,left,0.6003950032538796,,,,,,1,,,,,,,,,,,,,left,1,0.6003950032538796,,,,,,,1071,2019_Mar_14_1403,mf_amp_cond1,3.0.4,59.987321266414924,
gusinesslike,,&&&&&&&&&&&&,right,nonword,,,,,,,,,,,,,,,0,39,39,25,,,,,,,,,,,,,LDT,left,0.4170097073429133,,,,,,0,,,,,,,,,,,,,left,0,0.4170097073429133,,,,,,,1071,2019_Mar_14_1403,mf_amp_cond1,3.0.4,59.987321266414924,
tomedians,,&&&&&&&&&,right,nonword,,,,,,,,,,,,,,,0,40,40,4,,,,,,,,,,,,,LDT,left,0.3669880424599796,,,,,,0,,,,,,,,,,,,,left,0,0.3669880424599796,,,,,,,1071,2019_Mar_14_1403,mf_amp_cond1,3.0.4,59.987321266414924,
saned,,&&&&&,None,nonword,,,,,,,,,,,,,,,0,41,41,88,,,,,,,,,,,,,LDT,left,0.43369182754418034,,,,,,0,,,,,,,,,,,,,left,0,0.43369182754418034,,,,,,,1071,2019_Mar_14_1403,mf_amp_cond1,3.0.4,59.987321266414924,
sharing,,&&&&&&&,left,loyalty.virtue,,,,,,,,,,,,,,,0,42,42,28,,,,,,,,,,,,,LDT,right,0.4670304100548037,,,,,,0,,,,,,,,,,,,,right,0,0.4670304100548037,,,,,,,1071,2019_Mar_14_1403,mf_amp_cond1,3.0.4,59.987321266414924,
totalestic,,&&&&&&&&&&,None,nonword,,,,,,,,,,,,,,,0,43,43,33,,,,,,,,,,,,,LDT,left,0.450353100708071,,,,,,0,,,,,,,,,,,,,left,0,0.450353100708071,,,,,,,1071,2019_Mar_14_1403,mf_amp_cond1,3.0.4,59.987321266414924,
prosecution,,&&&&&&&&&&&,left,authority.vice,,,,,,,,,,,,,,,0,44,44,143,,,,,,,,,,,,,LDT,right,0.5003693132889566,,,,,,0,,,,,,,,,,,,,right,0,0.5003693132889566,,,,,,,1071,2019_Mar_14_1403,mf_amp_cond1,3.0.4,59.987321266414924,
infet,,&&&&&,right,nonword,,,,,,,,,,,,,,,0,45,45,83,,,,,,,,,,,,,LDT,left,0.5337098201414392,,,,,,0,,,,,,,,,,,,,left,0,0.5337098201414392,,,,,,,1071,2019_Mar_14_1403,mf_amp_cond1,3.0.4,59.987321266414924,
civilians,,&&&&&&&&&,left,care.vice,,,,,,,,,,,,,,,0,46,46,55,,,,,,,,,,,,,LDT,right,0.6504131401766244,,,,,,0,,,,,,,,,,,,,right,0,0.6504131401766244,,,,,,,1071,2019_Mar_14_1403,mf_amp_cond1,3.0.4,59.987321266414924,
egpeditious,,&&&&&&&&&&&,right,nonword,,,,,,,,,,,,,,,0,47,47,10,,,,,,,,,,,,,LDT,left,0.7170976818415511,,,,,,0,,,,,,,,,,,,,left,0,0.7170976818415511,,,,,,,1071,2019_Mar_14_1403,mf_amp_cond1,3.0.4,59.987321266414924,
strofe,,&&&&&&,right,nonword,,,,,,,,,,,,,,,0,48,48,37,,,,,,,,,,,,,LDT,left,0.450366891825297,,,,,,0,,,,,,,,,,,,,left,0,0.450366891825297,,,,,,,1071,2019_Mar_14_1403,mf_amp_cond1,3.0.4,59.987321266414924,
less,,&&&&,left,neutral,,,,,,,,,,,,,,,0,49,49,192,,,,,,,,,,,,,LDT,left,0.4836929661132672,,,,,,1,,,,,,,,,,,,,left,1,0.4836929661132672,,,,,,,1071,2019_Mar_14_1403,mf_amp_cond1,3.0.4,59.987321266414924,
whither,,&&&&&&&,left,neutral,,,,,,,,,,,,,,,0,50,50,177,,,,,,,,,,,,,LDT,left,1.4006117482999798,,,,,,1,,,,,,,,,,,,,left,1,1.4006117482999798,,,,,,,1071,2019_Mar_14_1403,mf_amp_cond1,3.0.4,59.987321266414924,
respect,,&&&&&&&,left,sanctity.virtue,,,,,,,,,,,,,,,0,51,51,107,,,,,,,,,,,,,LDT,right,0.8837986124851795,,,,,,0,,,,,,,,,,,,,right,0,0.8837986124851795,,,,,,,1071,2019_Mar_14_1403,mf_amp_cond1,3.0.4,59.987321266414924,
glacenta,,&&&&&&&&,right,nonword,,,,,,,,,,,,,,,0,52,52,17,,,,,,,,,,,,,LDT,left,0.750428566984283,,,,,,0,,,,,,,,,,,,,left,0,0.750428566984283,,,,,,,1071,2019_Mar_14_1403,mf_amp_cond1,3.0.4,59.987321266414924,
ability,,&&&&&&&,left,authority.virtue,,,,,,,,,,,,,,,0,53,53,136,,,,,,,,,,,,,LDT,right,0.6004039835161166,,,,,,0,,,,,,,,,,,,,right,0,0.6004039835161166,,,,,,,1071,2019_Mar_14_1403,mf_amp_cond1,3.0.4,59.987321266414924,
brudent,,&&&&&&&,right,nonword,,,,,,,,,,,,,,,0,54,54,6,,,,,,,,,,,,,LDT,left,0.8671302834011385,,,,,,0,,,,,,,,,,,,,left,0,0.8671302834011385,,,,,,,1071,2019_Mar_14_1403,mf_amp_cond1,3.0.4,59.987321266414924,
sidearbs,,&&&&&&&&,right,nonword,,,,,,,,,,,,,,,0,55,55,193,,,,,,,,,,,,,LDT,left,0.5170806193430053,,,,,,0,,,,,,,,,,,,,left,0,0.5170806193430053,,,,,,,1071,2019_Mar_14_1403,mf_amp_cond1,3.0.4,59.987321266414924,
threatened,,&&&&&&&&&&,left,fairness.vice,,,,,,,,,,,,,,,0,56,56,156,,,,,,,,,,,,,LDT,left,0.7170967196705078,,,,,,1,,,,,,,,,,,,,left,1,0.7170967196705078,,,,,,,1071,2019_Mar_14_1403,mf_amp_cond1,3.0.4,59.987321266414924,
emassion,,&&&&&&&&,right,nonword,,,,,,,,,,,,,,,0,57,57,153,,,,,,,,,,,,,LDT,left,0.6504160266892995,,,,,,0,,,,,,,,,,,,,left,0,0.6504160266892995,,,,,,,1071,2019_Mar_14_1403,mf_amp_cond1,3.0.4,59.987321266414924,
noone,,&&&&&,left,neutral,,,,,,,,,,,,,,,0,58,58,173,,,,,,,,,,,,,LDT,left,0.45036849544362667,,,,,,1,,,,,,,,,,,,,left,1,0.45036849544362667,,,,,,,1071,2019_Mar_14_1403,mf_amp_cond1,3.0.4,59.987321266414924,
edancipation,,&&&&&&&&&&&&,None,nonword,,,,,,,,,,,,,,,0,59,59,108,,,,,,,,,,,,,LDT,left,0.6337435281973285,,,,,,0,,,,,,,,,,,,,left,0,0.6337435281973285,,,,,,,1071,2019_Mar_14_1403,mf_amp_cond1,3.0.4,59.987321266414924,
ronviolence,,&&&&&&&&&&&,right,nonword,,,,,,,,,,,,,,,0,60,60,65,,,,,,,,,,,,,LDT,left,0.41703247872237625,,,,,,0,,,,,,,,,,,,,left,0,0.41703247872237625,,,,,,,1071,2019_Mar_14_1403,mf_amp_cond1,3.0.4,59.987321266414924,
least,,&&&&&,left,neutral,,,,,,,,,,,,,,,0,61,61,63,,,,,,,,,,,,,LDT,left,0.5837099965392554,,,,,,1,,,,,,,,,,,,,left,1,0.5837099965392554,,,,,,,1071,2019_Mar_14_1403,mf_amp_cond1,3.0.4,59.987321266414924,
conspiracy,,&&&&&&&&&&,left,sanctity.vice,,,,,,,,,,,,,,,0,62,62,151,,,,,,,,,,,,,LDT,left,0.3503363910058397,,,,,,1,,,,,,,,,,,,,left,1,0.3503363910058397,,,,,,,1071,2019_Mar_14_1403,mf_amp_cond1,3.0.4,59.987321266414924,
juck,,&&&&,right,nonword,,,,,,,,,,,,,,,0,63,63,181,,,,,,,,,,,,,LDT,left,0.6670792241952768,,,,,,0,,,,,,,,,,,,,left,0,0.6670792241952768,,,,,,,1071,2019_Mar_14_1403,mf_amp_cond1,3.0.4,59.987321266414924,
openet,,&&&&&&,None,nonword,,,,,,,,,,,,,,,0,64,64,74,,,,,,,,,,,,,LDT,left,0.38367882220018146,,,,,,0,,,,,,,,,,,,,left,0,0.38367882220018146,,,,,,,1071,2019_Mar_14_1403,mf_amp_cond1,3.0.4,59.987321266414924,
cromiscuity,,&&&&&&&&&&&,right,nonword,,,,,,,,,,,,,,,0,65,65,138,,,,,,,,,,,,,LDT,left,0.4003449062188338,,,,,,0,,,,,,,,,,,,,left,0,0.4003449062188338,,,,,,,1071,2019_Mar_14_1403,mf_amp_cond1,3.0.4,59.987321266414924,
give,,&&&&,left,neutral,,,,,,,,,,,,,,,0,66,66,148,,,,,,,,,,,,,LDT,right,0.8504638786587293,,,,,,0,,,,,,,,,,,,,right,0,0.8504638786587293,,,,,,,1071,2019_Mar_14_1403,mf_amp_cond1,3.0.4,59.987321266414924,
there,,&&&&&,left,neutral,,,,,,,,,,,,,,,0,67,67,98,,,,,,,,,,,,,LDT,right,0.5503874502117014,,,,,,0,,,,,,,,,,,,,right,0,0.5503874502117014,,,,,,,1071,2019_Mar_14_1403,mf_amp_cond1,3.0.4,59.987321266414924,
fornicalion,,&&&&&&&&&&&,right,nonword,,,,,,,,,,,,,,,0,68,68,117,,,,,,,,,,,,,LDT,left,0.4503777964296205,,,,,,0,,,,,,,,,,,,,left,0,0.4503777964296205,,,,,,,1071,2019_Mar_14_1403,mf_amp_cond1,3.0.4,59.987321266414924,
done,,&&&&,left,neutral,,,,,,,,,,,,,,,0,69,69,16,,,,,,,,,,,,,LDT,right,0.5170363594786522,,,,,,0,,,,,,,,,,,,,right,0,0.5170363594786522,,,,,,,1071,2019_Mar_14_1403,mf_amp_cond1,3.0.4,59.987321266414924,
hereby,,&&&&&&,left,neutral,,,,,,,,,,,,,,,0,70,70,49,,,,,,,,,,,,,LDT,left,0.5170463019119325,,,,,,1,,,,,,,,,,,,,left,1,0.5170463019119325,,,,,,,1071,2019_Mar_14_1403,mf_amp_cond1,3.0.4,59.987321266414924,
brotesque,,&&&&&&&&&,right,nonword,,,,,,,,,,,,,,,0,71,71,185,,,,,,,,,,,,,LDT,left,0.35034665416264943,,,,,,0,,,,,,,,,,,,,left,0,0.35034665416264943,,,,,,,1071,2019_Mar_14_1403,mf_amp_cond1,3.0.4,59.987321266414924,
hatigue,,&&&&&&&,right,nonword,,,,,,,,,,,,,,,0,72,72,149,,,,,,,,,,,,,LDT,left,0.3836708041087604,,,,,,0,,,,,,,,,,,,,left,0,0.3836708041087604,,,,,,,1071,2019_Mar_14_1403,mf_amp_cond1,3.0.4,59.987321266414924,
prones,,&&&&&&,right,nonword,,,,,,,,,,,,,,,0,73,73,8,,,,,,,,,,,,,LDT,left,0.40034009536384474,,,,,,0,,,,,,,,,,,,,left,0,0.40034009536384474,,,,,,,1071,2019_Mar_14_1403,mf_amp_cond1,3.0.4,59.987321266414924,
esquisiteness,,&&&&&&&&&&&&&,right,nonword,,,,,,,,,,,,,,,0,74,74,118,,,,,,,,,,,,,LDT,left,0.43367482919052236,,,,,,0,,,,,,,,,,,,,left,0,0.43367482919052236,,,,,,,1071,2019_Mar_14_1403,mf_amp_cond1,3.0.4,59.987321266414924,
Boeinf,,&&&&&&,right,nonword,,,,,,,,,,,,,,,0,75,75,68,,,,,,,,,,,,,LDT,left,0.38353161004238245,,,,,,0,,,,,,,,,,,,,left,0,0.38353161004238245,,,,,,,1071,2019_Mar_14_1403,mf_amp_cond1,3.0.4,59.987321266414924,
both,,&&&&,left,neutral,,,,,,,,,,,,,,,0,76,76,126,,,,,,,,,,,,,LDT,right,0.767104272712686,,,,,,0,,,,,,,,,,,,,right,0,0.767104272712686,,,,,,,1071,2019_Mar_14_1403,mf_amp_cond1,3.0.4,59.987321266414924,
anything,,&&&&&&&&,left,neutral,,,,,,,,,,,,,,,0,77,77,189,,,,,,,,,,,,,LDT,right,0.5503422281763051,,,,,,0,,,,,,,,,,,,,right,0,0.5503422281763051,,,,,,,1071,2019_Mar_14_1403,mf_amp_cond1,3.0.4,59.987321266414924,
therefore,,&&&&&&&&&,left,neutral,,,,,,,,,,,,,,,0,78,78,121,,,,,,,,,,,,,LDT,left,0.4170251020782416,,,,,,1,,,,,,,,,,,,,left,1,0.4170251020782416,,,,,,,1071,2019_Mar_14_1403,mf_amp_cond1,3.0.4,59.987321266414924,
slavery,,&&&&&&&,left,loyalty.vice,,,,,,,,,,,,,,,0,79,79,172,,,,,,,,,,,,,LDT,right,0.9004762425556692,,,,,,0,,,,,,,,,,,,,right,0,0.9004762425556692,,,,,,,1071,2019_Mar_14_1403,mf_amp_cond1,3.0.4,59.987321266414924,
rebels,,&&&&&&,left,authority.vice,,,,,,,,,,,,,,,0,80,80,157,,,,,,,,,,,,,LDT,right,0.5670474404807919,,,,,,0,,,,,,,,,,,,,right,0,0.5670474404807919,,,,,,,1071,2019_Mar_14_1403,mf_amp_cond1,3.0.4,59.987321266414924,
growth,,&&&&&&,left,care.virtue,,,,,,,,,,,,,,,0,81,81,34,,,,,,,,,,,,,LDT,right,0.5337130273780986,,,,,,0,,,,,,,,,,,,,right,0,0.5337130273780986,,,,,,,1071,2019_Mar_14_1403,mf_amp_cond1,3.0.4,59.987321266414924,
wherever,,&&&&&&&&,left,neutral,,,,,,,,,,,,,,,0,82,82,58,,,,,,,,,,,,,LDT,left,0.43368797886046195,,,,,,1,,,,,,,,,,,,,left,1,0.43368797886046195,,,,,,,1071,2019_Mar_14_1403,mf_amp_cond1,3.0.4,59.987321266414924,
mih,,&&&,right,nonword,,,,,,,,,,,,,,,0,83,83,24,,,,,,,,,,,,,LDT,left,0.45033097077589446,,,,,,0,,,,,,,,,,,,,left,0,0.45033097077589446,,,,,,,1071,2019_Mar_14_1403,mf_amp_cond1,3.0.4,59.987321266414924,
penalty,,&&&&&&&,left,authority.vice,,,,,,,,,,,,,,,0,84,84,19,,,,,,,,,,,,,LDT,right,0.6504121780055812,,,,,,0,,,,,,,,,,,,,right,0,0.6504121780055812,,,,,,,1071,2019_Mar_14_1403,mf_amp_cond1,3.0.4,59.987321266414924,
shoirmaster,,&&&&&&&&&&&,None,nonword,,,,,,,,,,,,,,,0,85,85,90,,,,,,,,,,,,,LDT,left,0.41700810372458363,,,,,,0,,,,,,,,,,,,,left,0,0.41700810372458363,,,,,,,1071,2019_Mar_14_1403,mf_amp_cond1,3.0.4,59.987321266414924,
sonvoy,,&&&&&&,None,nonword,,,,,,,,,,,,,,,0,86,86,142,,,,,,,,,,,,,LDT,left,0.36699670199868706,,,,,,0,,,,,,,,,,,,,left,0,0.36699670199868706,,,,,,,1071,2019_Mar_14_1403,mf_amp_cond1,3.0.4,59.987321266414924,
Phintoism,,&&&&&&&&&,right,nonword,,,,,,,,,,,,,,,0,87,87,81,,,,,,,,,,,,,LDT,left,0.41698148366117493,,,,,,0,,,,,,,,,,,,,left,0,0.41698148366117493,,,,,,,1071,2019_Mar_14_1403,mf_amp_cond1,3.0.4,59.987321266414924,
although,,&&&&&&&&,left,neutral,,,,,,,,,,,,,,,0,88,88,103,,,,,,,,,,,,,LDT,left,0.6170768027316171,,,,,,1,,,,,,,,,,,,,left,1,0.6170768027316171,,,,,,,1071,2019_Mar_14_1403,mf_amp_cond1,3.0.4,59.987321266414924,
neputized,,&&&&&&&&&,right,nonword,,,,,,,,,,,,,,,0,89,89,78,,,,,,,,,,,,,LDT,left,0.383662144570053,,,,,,0,,,,,,,,,,,,,left,0,0.383662144570053,,,,,,,1071,2019_Mar_14_1403,mf_amp_cond1,3.0.4,59.987321266414924,
whereafter,,&&&&&&&&&&,left,neutral,,,,,,,,,,,,,,,0,90,90,183,,,,,,,,,,,,,LDT,right,0.48369809769178573,,,,,,0,,,,,,,,,,,,,right,0,0.48369809769178573,,,,,,,1071,2019_Mar_14_1403,mf_amp_cond1,3.0.4,59.987321266414924,
ban,,&&&,left,loyalty.vice,,,,,,,,,,,,,,,0,91,91,21,,,,,,,,,,,,,LDT,right,1.2338874048293746,,,,,,0,,,,,,,,,,,,,right,0,1.2338874048293746,,,,,,,1071,2019_Mar_14_1403,mf_amp_cond1,3.0.4,59.987321266414924,
besides,,&&&&&&&,left,neutral,,,,,,,,,,,,,,,0,92,92,127,,,,,,,,,,,,,LDT,right,0.5670686082421525,,,,,,0,,,,,,,,,,,,,right,0,0.5670686082421525,,,,,,,1071,2019_Mar_14_1403,mf_amp_cond1,3.0.4,59.987321266414924,
seem,,&&&&,left,neutral,,,,,,,,,,,,,,,0,93,93,69,,,,,,,,,,,,,LDT,right,0.633734227211562,,,,,,0,,,,,,,,,,,,,right,0,0.633734227211562,,,,,,,1071,2019_Mar_14_1403,mf_amp_cond1,3.0.4,59.987321266414924,
tove,,&&&&,right,nonword,,,,,,,,,,,,,,,0,94,94,119,,,,,,,,,,,,,LDT,right,0.40033432233826716,,,,,,1,,,,,,,,,,,,,right,1,0.40033432233826716,,,,,,,1071,2019_Mar_14_1403,mf_amp_cond1,3.0.4,59.987321266414924,
everything,,&&&&&&&&&&,left,neutral,,,,,,,,,,,,,,,0,95,95,42,,,,,,,,,,,,,LDT,left,0.5837388616685075,,,,,,1,,,,,,,,,,,,,left,1,0.5837388616685075,,,,,,,1071,2019_Mar_14_1403,mf_amp_cond1,3.0.4,59.987321266414924,
erdest,,&&&&&&,right,nonword,,,,,,,,,,,,,,,0,96,96,91,,,,,,,,,,,,,LDT,left,0.38366374818838267,,,,,,0,,,,,,,,,,,,,left,0,0.38366374818838267,,,,,,,1071,2019_Mar_14_1403,mf_amp_cond1,3.0.4,59.987321266414924,
reelectiob,,&&&&&&&&&&,right,nonword,,,,,,,,,,,,,,,0,97,97,30,,,,,,,,,,,,,LDT,left,0.3336828152096132,,,,,,0,,,,,,,,,,,,,left,0,0.3336828152096132,,,,,,,1071,2019_Mar_14_1403,mf_amp_cond1,3.0.4,59.987321266414924,
towards,,&&&&&&&,left,neutral,,,,,,,,,,,,,,,0,98,98,18,,,,,,,,,,,,,LDT,left,0.35034472982079023,,,,,,1,,,,,,,,,,,,,left,1,0.35034472982079023,,,,,,,1071,2019_Mar_14_1403,mf_amp_cond1,3.0.4,59.987321266414924,
amoungst,,&&&&&&&&,left,neutral,,,,,,,,,,,,,,,0,99,99,128,,,,,,,,,,,,,LDT,left,0.3503383153476989,,,,,,1,,,,,,,,,,,,,left,1,0.3503383153476989,,,,,,,1071,2019_Mar_14_1403,mf_amp_cond1,3.0.4,59.987321266414924,
eight,,&&&&&,left,neutral,,,,,,,,,,,,,,,0,100,100,39,,,,,,,,,,,,,LDT,right,0.5170414910571708,,,,,,0,,,,,,,,,,,,,right,0,0.5170414910571708,,,,,,,1071,2019_Mar_14_1403,mf_amp_cond1,3.0.4,59.987321266414924,
antral,,&&&&&&,right,nonword,,,,,,,,,,,,,,,0,101,101,160,,,,,,,,,,,,,LDT,left,0.516931803567104,,,,,,0,,,,,,,,,,,,,left,0,0.516931803567104,,,,,,,1071,2019_Mar_14_1403,mf_amp_cond1,3.0.4,59.987321266414924,
forepo,,&&&&&&,right,nonword,,,,,,,,,,,,,,,0,102,102,36,,,,,,,,,,,,,LDT,left,0.4003404160876016,,,,,,0,,,,,,,,,,,,,left,0,0.4003404160876016,,,,,,,1071,2019_Mar_14_1403,mf_amp_cond1,3.0.4,59.987321266414924,
itself,,&&&&&&,left,neutral,,,,,,,,,,,,,,,0,103,103,131,,,,,,,,,,,,,LDT,right,0.5170309071766042,,,,,,0,,,,,,,,,,,,,right,0,0.5170309071766042,,,,,,,1071,2019_Mar_14_1403,mf_amp_cond1,3.0.4,59.987321266414924,
ensure,,&&&&&&,left,fairness.virtue,,,,,,,,,,,,,,,0,104,104,182,,,,,,,,,,,,,LDT,right,0.5504054107361753,,,,,,0,,,,,,,,,,,,,right,0,0.5504054107361753,,,,,,,1071,2019_Mar_14_1403,mf_amp_cond1,3.0.4,59.987321266414924,
voter,,&&&&&,left,fairness.vice,,,,,,,,,,,,,,,0,105,105,194,,,,,,,,,,,,,LDT,right,0.6504031977431168,,,,,,0,,,,,,,,,,,,,right,0,0.6504031977431168,,,,,,,1071,2019_Mar_14_1403,mf_amp_cond1,3.0.4,59.987321266414924,
