words,nonwords,mask,corr_ans,category,tweets,topic,AMP_pracloop.thisRepN,AMP_pracloop.thisTrialN,AMP_pracloop.thisN,AMP_pracloop.thisIndex,AMP_trials.thisRepN,AMP_trials.thisTrialN,AMP_trials.thisN,AMP_trials.thisIndex,LDT_pracloop.thisRepN,LDT_pracloop.thisTrialN,LDT_pracloop.thisN,LDT_pracloop.thisIndex,LDT_trials.thisRepN,LDT_trials.thisTrialN,LDT_trials.thisN,LDT_trials.thisIndex,tweet_loop.thisRepN,tweet_loop.thisTrialN,tweet_loop.thisN,tweet_loop.thisIndex,begin_key.keys,begin_key.rt,key_resp_AMP_instr1.keys,key_resp_AMP_instr1.rt,resp_AMP_ready1.keys,resp_AMP_ready1.rt,resp_AMP_prac.keys,resp_AMP_prac.rt,task,keypress,RT,resp_AMP_ready.keys,resp_AMP_ready.rt,resp_AMP.keys,resp_AMP.corr,resp_AMP.rt,corr,AMP_nonword_rating.response,AMP_nonword_rating.rt,AMP_word_rating.response,AMP_word_rating.rt,AMP_random_rating.response,AMP_random_rating.rt,key_resp_LDT_instr.keys,key_resp_LDT_instr.rt,resp_LDT_prac.keys,resp_LDT_prac.rt,resp_LDT_ready.keys,resp_LDT_ready.rt,resp_LDT.keys,resp_LDT.corr,resp_LDT.rt,LDT_rating.response,LDT_rating.rt,key_resp_LDT_instr_2.keys,key_resp_LDT_instr_2.rt,resp_tweets.keys,resp_tweets.rt,participant,date,expName,psychopyVersion,frameRate,
,,,,,,,,,,,,,,,,,,,,,,,,,,,right,469.0639419909826,,,,,,,,,,,,,,,,,,,,,,,,,,,,,,,,,,,,,1073,2019_Mar_14_1403,mf_amp_cond1,3.0.4,59.947089641886585,
,,,,,,,,,,,,,,,,,,,,,,,,,,,,,right,4.317820922271267,,,,,,,,,,,,,,,,,,,,,,,,,,,,,,,,,,,1073,2019_Mar_14_1403,mf_amp_cond1,3.0.4,59.947089641886585,
,,,,,,,,,,,,,,,,,,,,,,,,,,,,,,,right,1.5339871930643767,,,,,,,,,,,,,,,,,,,,,,,,,,,,,,,,,1073,2019_Mar_14_1403,mf_amp_cond1,3.0.4,59.947089641886585,
scarf,bisebell,&&&&&&&&,,,,,0,0,0,3,,,,,,,,,,,,,,,,,,,,,,,right,1.8006599106222438,AMP_prac,right,1.8006599106222438,,,,,,,,,,,,,,,,,,,,,,,,,,,,1073,2019_Mar_14_1403,mf_amp_cond1,3.0.4,59.947089641886585,
car,cemtuper,&&&&&&&&,,,,,0,1,1,0,,,,,,,,,,,,,,,,,,,,,,,right,1.000488454450533,AMP_prac,right,1.000488454450533,,,,,,,,,,,,,,,,,,,,,,,,,,,,1073,2019_Mar_14_1403,mf_amp_cond1,3.0.4,59.947089641886585,
keyboard,senk,&&&&,,,,,0,2,2,2,,,,,,,,,,,,,,,,,,,,,,,right,0.5670523201104061,AMP_prac,right,0.5670523201104061,,,,,,,,,,,,,,,,,,,,,,,,,,,,1073,2019_Mar_14_1403,mf_amp_cond1,3.0.4,59.947089641886585,
banana,kacket,&&&&&&,,,,,0,3,3,1,,,,,,,,,,,,,,,,,,,,,,,right,0.8504495512827361,AMP_prac,right,0.8504495512827361,,,,,,,,,,,,,,,,,,,,,,,,,,,,1073,2019_Mar_14_1403,mf_amp_cond1,3.0.4,59.947089641886585,
,,,,,,,,,,,,,,,,,,,,,,,,,,,,,,,,,,,,,,right,1.4672645716898387,,,,,,,,,,,,,,,,,,,,,,,,,,1073,2019_Mar_14_1403,mf_amp_cond1,3.0.4,59.947089641886585,
conspiracy,honstables,&&&&&&&&&&,right,sanctity.vice,,,,,,,0,0,0,0,,,,,,,,,,,,,,,,,,,,,AMP,right,0.583723273716032,,,right,1,0.583723273716032,1,,,,,,,,,,,,,,,,,,,,,,1073,2019_Mar_14_1403,mf_amp_cond1,3.0.4,59.947089641886585,
strong,infet,&&&&&,left,loyalty.virtue,,,,,,,0,1,1,1,,,,,,,,,,,,,,,,,,,,,AMP,right,0.6837368080414308,,,right,0,0.6837368080414308,0,,,,,,,,,,,,,,,,,,,,,,1073,2019_Mar_14_1403,mf_amp_cond1,3.0.4,59.947089641886585,
praise,leact,&&&&&,left,authority.virtue,,,,,,,0,2,2,2,,,,,,,,,,,,,,,,,,,,,AMP,right,1.4505830343700836,,,right,0,1.4505830343700836,0,,,,,,,,,,,,,,,,,,,,,,1073,2019_Mar_14_1403,mf_amp_cond1,3.0.4,59.947089641886585,
good,idexpressible,&&&&&&&&&&&&&,left,care.virtue,,,,,,,0,3,3,3,,,,,,,,,,,,,,,,,,,,,AMP,right,0.41700700257024437,,,right,0,0.41700700257024437,0,,,,,,,,,,,,,,,,,,,,,,1073,2019_Mar_14_1403,mf_amp_cond1,3.0.4,59.947089641886585,
refused,carvels,&&&&&&&,right,authority.vice,,,,,,,0,4,4,4,,,,,,,,,,,,,,,,,,,,,AMP,left,0.5503476910505469,,,left,0,0.5503476910505469,0,,,,,,,,,,,,,,,,,,,,,,1073,2019_Mar_14_1403,mf_amp_cond1,3.0.4,59.947089641886585,
sliptery,gaultless,&&&&&&&&&,None,nonword,,,,,,,0,5,5,5,,,,,,,,,,,,,,,,,,,,,AMP,left,0.40034951914663,,,left,0,0.40034951914663,0,,,,,,,,,,,,,,,,,,,,,,1073,2019_Mar_14_1403,mf_amp_cond1,3.0.4,59.947089641886585,
party,sickyay,&&&&&&&,left,loyalty.virtue,,,,,,,0,6,6,6,,,,,,,,,,,,,,,,,,,,,AMP,right,0.48369626920862174,,,right,0,0.48369626920862174,0,,,,,,,,,,,,,,,,,,,,,,1073,2019_Mar_14_1403,mf_amp_cond1,3.0.4,59.947089641886585,
growth,iptervention,&&&&&&&&&&&&,left,care.virtue,,,,,,,0,7,7,7,,,,,,,,,,,,,,,,,,,,,AMP,right,0.8004293139379115,,,right,0,0.8004293139379115,0,,,,,,,,,,,,,,,,,,,,,,1073,2019_Mar_14_1403,mf_amp_cond1,3.0.4,59.947089641886585,
restore,gedious,&&&&&&&,left,care.virtue,,,,,,,0,8,8,8,,,,,,,,,,,,,,,,,,,,,AMP,right,0.33367115694113636,,,right,0,0.33367115694113636,0,,,,,,,,,,,,,,,,,,,,,,1073,2019_Mar_14_1403,mf_amp_cond1,3.0.4,59.947089641886585,
groups,smapper,&&&&&&&,right,loyalty.vice,,,,,,,0,9,9,9,,,,,,,,,,,,,,,,,,,,,AMP,left,0.5670539237034973,,,left,0,0.5670539237034973,0,,,,,,,,,,,,,,,,,,,,,,1073,2019_Mar_14_1403,mf_amp_cond1,3.0.4,59.947089641886585,
peace,Oregoniuns,&&&&&&&&&&,left,care.virtue,,,,,,,0,10,10,10,,,,,,,,,,,,,,,,,,,,,AMP,right,0.5670651488551357,,,right,0,0.5670651488551357,0,,,,,,,,,,,,,,,,,,,,,,1073,2019_Mar_14_1403,mf_amp_cond1,3.0.4,59.947089641886585,
hope,Lacedonia,&&&&&&&&&,left,loyalty.virtue,,,,,,,0,11,11,11,,,,,,,,,,,,,,,,,,,,,AMP,right,0.6337159292597789,,,right,0,0.6337159292597789,0,,,,,,,,,,,,,,,,,,,,,,1073,2019_Mar_14_1403,mf_amp_cond1,3.0.4,59.947089641886585,
values,neutralust,&&&&&&&&&&,left,sanctity.virtue,,,,,,,0,12,12,12,,,,,,,,,,,,,,,,,,,,,AMP,right,0.5503736692583061,,,right,0,0.5503736692583061,0,,,,,,,,,,,,,,,,,,,,,,1073,2019_Mar_14_1403,mf_amp_cond1,3.0.4,59.947089641886585,
neputized,lachelor,&&&&&&&&,None,nonword,,,,,,,0,13,13,13,,,,,,,,,,,,,,,,,,,,,AMP,right,0.5003572805369458,,,right,0,0.5003572805369458,0,,,,,,,,,,,,,,,,,,,,,,1073,2019_Mar_14_1403,mf_amp_cond1,3.0.4,59.947089641886585,
prosecution,pharing,&&&&&&&,right,authority.vice,,,,,,,0,14,14,14,,,,,,,,,,,,,,,,,,,,,AMP,right,0.5670606587943894,,,right,1,0.5670606587943894,1,,,,,,,,,,,,,,,,,,,,,,1073,2019_Mar_14_1403,mf_amp_cond1,3.0.4,59.947089641886585,
safety,pafer,&&&&&,left,care.virtue,,,,,,,0,15,15,15,,,,,,,,,,,,,,,,,,,,,AMP,right,0.300314496673991,,,right,0,0.300314496673991,0,,,,,,,,,,,,,,,,,,,,,,1073,2019_Mar_14_1403,mf_amp_cond1,3.0.4,59.947089641886585,
ban,clattening,&&&&&&&&&&,right,loyalty.vice,,,,,,,0,16,16,16,,,,,,,,,,,,,,,,,,,,,AMP,right,0.550379442193389,,,right,1,0.550379442193389,1,,,,,,,,,,,,,,,,,,,,,,1073,2019_Mar_14_1403,mf_amp_cond1,3.0.4,59.947089641886585,
agreement,gazily,&&&&&&,left,fairness.virtue,,,,,,,0,17,17,17,,,,,,,,,,,,,,,,,,,,,AMP,right,0.2669677786836928,,,right,0,0.2669677786836928,0,,,,,,,,,,,,,,,,,,,,,,1073,2019_Mar_14_1403,mf_amp_cond1,3.0.4,59.947089641886585,
ilportation,epigrach,&&&&&&&&,None,nonword,,,,,,,0,18,18,18,,,,,,,,,,,,,,,,,,,,,AMP,left,0.3836702268570207,,,left,0,0.3836702268570207,0,,,,,,,,,,,,,,,,,,,,,,1073,2019_Mar_14_1403,mf_amp_cond1,3.0.4,59.947089641886585,
ability,galamitous,&&&&&&&&&&,left,authority.virtue,,,,,,,0,19,19,19,,,,,,,,,,,,,,,,,,,,,AMP,right,0.4169944945442694,,,right,0,0.4169944945442694,0,,,,,,,,,,,,,,,,,,,,,,1073,2019_Mar_14_1403,mf_amp_cond1,3.0.4,59.947089641886585,
hand,tislay,&&&&&&,left,sanctity.virtue,,,,,,,0,20,20,20,,,,,,,,,,,,,,,,,,,,,AMP,right,0.41699834316773376,,,right,0,0.41699834316773376,0,,,,,,,,,,,,,,,,,,,,,,1073,2019_Mar_14_1403,mf_amp_cond1,3.0.4,59.947089641886585,
ensure,ejanulated,&&&&&&&&&&,left,fairness.virtue,,,,,,,0,21,21,21,,,,,,,,,,,,,,,,,,,,,AMP,left,0.5337107336183635,,,left,1,0.5337107336183635,1,,,,,,,,,,,,,,,,,,,,,,1073,2019_Mar_14_1403,mf_amp_cond1,3.0.4,59.947089641886585,
useful,baklara,&&&&&&&,left,authority.virtue,,,,,,,0,22,22,22,,,,,,,,,,,,,,,,,,,,,AMP,right,0.33364549945190447,,,right,0,0.33364549945190447,0,,,,,,,,,,,,,,,,,,,,,,1073,2019_Mar_14_1403,mf_amp_cond1,3.0.4,59.947089641886585,
win,fangsters,&&&&&&&&&,left,fairness.virtue,,,,,,,0,23,23,23,,,,,,,,,,,,,,,,,,,,,AMP,right,0.300314496673991,,,right,0,0.300314496673991,0,,,,,,,,,,,,,,,,,,,,,,1073,2019_Mar_14_1403,mf_amp_cond1,3.0.4,59.947089641886585,
safe,framo,&&&&&,left,care.virtue,,,,,,,0,24,24,24,,,,,,,,,,,,,,,,,,,,,AMP,right,0.4003360489646184,,,right,0,0.4003360489646184,0,,,,,,,,,,,,,,,,,,,,,,1073,2019_Mar_14_1403,mf_amp_cond1,3.0.4,59.947089641886585,
papert,juck,&&&&,None,nonword,,,,,,,0,25,25,25,,,,,,,,,,,,,,,,,,,,,AMP,left,0.6671078685747034,,,left,0,0.6671078685747034,0,,,,,,,,,,,,,,,,,,,,,,1073,2019_Mar_14_1403,mf_amp_cond1,3.0.4,59.947089641886585,
serial,clamorek,&&&&&&&&,right,sanctity.vice,,,,,,,0,26,26,26,,,,,,,,,,,,,,,,,,,,,AMP,left,0.45034923049979625,,,left,0,0.45034923049979625,0,,,,,,,,,,,,,,,,,,,,,,1073,2019_Mar_14_1403,mf_amp_cond1,3.0.4,59.947089641886585,
critics,aubos,&&&&&,right,loyalty.vice,,,,,,,0,27,27,27,,,,,,,,,,,,,,,,,,,,,AMP,left,0.7170719801615633,,,left,0,0.7170719801615633,0,,,,,,,,,,,,,,,,,,,,,,1073,2019_Mar_14_1403,mf_amp_cond1,3.0.4,59.947089641886585,
attacks,Boeinf,&&&&&&,right,care.vice,,,,,,,0,28,28,28,,,,,,,,,,,,,,,,,,,,,AMP,left,0.2669636093414738,,,left,0,0.2669636093414738,0,,,,,,,,,,,,,,,,,,,,,,1073,2019_Mar_14_1403,mf_amp_cond1,3.0.4,59.947089641886585,
accused,nackers,&&&&&&&,right,fairness.vice,,,,,,,0,29,29,29,,,,,,,,,,,,,,,,,,,,,AMP,left,0.23362362644252244,,,left,0,0.23362362644252244,0,,,,,,,,,,,,,,,,,,,,,,1073,2019_Mar_14_1403,mf_amp_cond1,3.0.4,59.947089641886585,
racist,counpy's,&&&&&&&&,right,sanctity.vice,,,,,,,0,30,30,30,,,,,,,,,,,,,,,,,,,,,AMP,left,0.2836403358821826,,,left,0,0.2836403358821826,0,,,,,,,,,,,,,,,,,,,,,,1073,2019_Mar_14_1403,mf_amp_cond1,3.0.4,59.947089641886585,
victims,suggists,&&&&&&&&,right,care.vice,,,,,,,0,31,31,31,,,,,,,,,,,,,,,,,,,,,AMP,left,0.2503311419700367,,,left,0,0.2503311419700367,0,,,,,,,,,,,,,,,,,,,,,,1073,2019_Mar_14_1403,mf_amp_cond1,3.0.4,59.947089641886585,
pleasant,brudent,&&&&&&&,None,control,,,,,,,0,32,32,32,,,,,,,,,,,,,,,,,,,,,AMP,right,1.033814967168155,,,right,0,1.033814967168155,0,,,,,,,,,,,,,,,,,,,,,,1073,2019_Mar_14_1403,mf_amp_cond1,3.0.4,59.947089641886585,
credit,fostet,&&&&&&,left,fairness.virtue,,,,,,,0,33,33,33,,,,,,,,,,,,,,,,,,,,,AMP,right,0.46703557859882494,,,right,0,0.46703557859882494,0,,,,,,,,,,,,,,,,,,,,,,1073,2019_Mar_14_1403,mf_amp_cond1,3.0.4,59.947089641886585,
freedom,alar,&&&&,left,sanctity.virtue,,,,,,,0,34,34,34,,,,,,,,,,,,,,,,,,,,,AMP,right,0.1502730277570663,,,right,0,0.1502730277570663,0,,,,,,,,,,,,,,,,,,,,,,1073,2019_Mar_14_1403,mf_amp_cond1,3.0.4,59.947089641886585,
brotesque,ronviolence,&&&&&&&&&&&,None,nonword,,,,,,,0,35,35,35,,,,,,,,,,,,,,,,,,,,,AMP,left,0.633722664350671,,,left,0,0.633722664350671,0,,,,,,,,,,,,,,,,,,,,,,1073,2019_Mar_14_1403,mf_amp_cond1,3.0.4,59.947089641886585,
protesters,godlaness,&&&&&&&&&,right,authority.vice,,,,,,,0,36,36,36,,,,,,,,,,,,,,,,,,,,,AMP,right,0.5003797308399953,,,right,1,0.5003797308399953,1,,,,,,,,,,,,,,,,,,,,,,1073,2019_Mar_14_1403,mf_amp_cond1,3.0.4,59.947089641886585,
forced,gowlands,&&&&&&&&,right,fairness.vice,,,,,,,0,37,37,37,,,,,,,,,,,,,,,,,,,,,AMP,left,0.45036141780701655,,,left,0,0.45036141780701655,0,,,,,,,,,,,,,,,,,,,,,,1073,2019_Mar_14_1403,mf_amp_cond1,3.0.4,59.947089641886585,
praised,rivernoat,&&&&&&&&&,left,loyalty.virtue,,,,,,,0,38,38,38,,,,,,,,,,,,,,,,,,,,,AMP,right,0.3336589696336887,,,right,0,0.3336589696336887,0,,,,,,,,,,,,,,,,,,,,,,1073,2019_Mar_14_1403,mf_amp_cond1,3.0.4,59.947089641886585,
trust,asn,&&&,left,authority.virtue,,,,,,,0,39,39,39,,,,,,,,,,,,,,,,,,,,,AMP,right,0.4003559335189948,,,right,0,0.4003559335189948,0,,,,,,,,,,,,,,,,,,,,,,1073,2019_Mar_14_1403,mf_amp_cond1,3.0.4,59.947089641886585,
ablow,reelectiob,&&&&&&&&&&,None,nonword,,,,,,,0,40,40,40,,,,,,,,,,,,,,,,,,,,,AMP,right,0.5337043192457713,,,right,0,0.5337043192457713,0,,,,,,,,,,,,,,,,,,,,,,1073,2019_Mar_14_1403,mf_amp_cond1,3.0.4,59.947089641886585,
chadows,frojecting,&&&&&&&&&&,None,nonword,,,,,,,0,41,41,41,,,,,,,,,,,,,,,,,,,,,AMP,left,0.6337290787228085,,,left,0,0.6337290787228085,0,,,,,,,,,,,,,,,,,,,,,,1073,2019_Mar_14_1403,mf_amp_cond1,3.0.4,59.947089641886585,
rejected,feleological,&&&&&&&&&&&&,right,authority.vice,,,,,,,0,42,42,42,,,,,,,,,,,,,,,,,,,,,AMP,left,0.30031738314141876,,,left,0,0.30031738314141876,0,,,,,,,,,,,,,,,,,,,,,,1073,2019_Mar_14_1403,mf_amp_cond1,3.0.4,59.947089641886585,
respect,vurtain,&&&&&&&,left,sanctity.virtue,,,,,,,0,43,43,43,,,,,,,,,,,,,,,,,,,,,AMP,right,0.2169622943952163,,,right,0,0.2169622943952163,0,,,,,,,,,,,,,,,,,,,,,,1073,2019_Mar_14_1403,mf_amp_cond1,3.0.4,59.947089641886585,
benefit,fegard,&&&&&&,left,fairness.virtue,,,,,,,0,44,44,44,,,,,,,,,,,,,,,,,,,,,AMP,right,0.25015378457578663,,,right,0,0.25015378457578663,0,,,,,,,,,,,,,,,,,,,,,,1073,2019_Mar_14_1403,mf_amp_cond1,3.0.4,59.947089641886585,
interests,framatic,&&&&&&&&,left,fairness.virtue,,,,,,,0,45,45,45,,,,,,,,,,,,,,,,,,,,,AMP,right,0.333643575140286,,,right,0,0.333643575140286,0,,,,,,,,,,,,,,,,,,,,,,1073,2019_Mar_14_1403,mf_amp_cond1,3.0.4,59.947089641886585,
tabin,chonograph,&&&&&&&&&&,None,nonword,,,,,,,0,46,46,46,,,,,,,,,,,,,,,,,,,,,AMP,left,0.3169620378205309,,,left,0,0.3169620378205309,0,,,,,,,,,,,,,,,,,,,,,,1073,2019_Mar_14_1403,mf_amp_cond1,3.0.4,59.947089641886585,
care,spag,&&&&,left,care.virtue,,,,,,,0,47,47,47,,,,,,,,,,,,,,,,,,,,,AMP,right,0.20028524713620754,,,right,0,0.20028524713620754,0,,,,,,,,,,,,,,,,,,,,,,1073,2019_Mar_14_1403,mf_amp_cond1,3.0.4,59.947089641886585,
injured,gikely,&&&&&&,right,care.vice,,,,,,,0,48,48,48,,,,,,,,,,,,,,,,,,,,,AMP,left,0.1335988669652579,,,left,0,0.1335988669652579,0,,,,,,,,,,,,,,,,,,,,,,1073,2019_Mar_14_1403,mf_amp_cond1,3.0.4,59.947089641886585,
fraud,gationwide,&&&&&&&&&&,right,fairness.vice,,,,,,,0,49,49,49,,,,,,,,,,,,,,,,,,,,,AMP,left,0.1669526407649755,,,left,0,0.1669526407649755,0,,,,,,,,,,,,,,,,,,,,,,1073,2019_Mar_14_1403,mf_amp_cond1,3.0.4,59.947089641886585,
army,wonderfujnoss,&&&&&&&&&&&&&,right,loyalty.vice,,,,,,,0,50,50,50,,,,,,,,,,,,,,,,,,,,,AMP,right,0.31701623926619504,,,right,1,0.31701623926619504,1,,,,,,,,,,,,,,,,,,,,,,1073,2019_Mar_14_1403,mf_amp_cond1,3.0.4,59.947089641886585,
black,disregord,&&&&&&&&&,right,loyalty.vice,,,,,,,0,51,51,51,,,,,,,,,,,,,,,,,,,,,AMP,left,0.4336632031195222,,,left,0,0.4336632031195222,0,,,,,,,,,,,,,,,,,,,,,,1073,2019_Mar_14_1403,mf_amp_cond1,3.0.4,59.947089641886585,
suicide,focomotive,&&&&&&&&&&,right,care.vice,,,,,,,0,52,52,52,,,,,,,,,,,,,,,,,,,,,AMP,left,0.4503453818763319,,,left,0,0.4503453818763319,0,,,,,,,,,,,,,,,,,,,,,,1073,2019_Mar_14_1403,mf_amp_cond1,3.0.4,59.947089641886585,
support,erks,&&&&,left,loyalty.virtue,,,,,,,0,53,53,53,,,,,,,,,,,,,,,,,,,,,AMP,right,0.38366926470121143,,,right,0,0.38366926470121143,0,,,,,,,,,,,,,,,,,,,,,,1073,2019_Mar_14_1403,mf_amp_cond1,3.0.4,59.947089641886585,
war,divility,&&&&&&&&,right,sanctity.vice,,,,,,,0,54,54,54,,,,,,,,,,,,,,,,,,,,,AMP,left,0.5670500750800329,,,left,0,0.5670500750800329,0,,,,,,,,,,,,,,,,,,,,,,1073,2019_Mar_14_1403,mf_amp_cond1,3.0.4,59.947089641886585,
slavery,antral,&&&&&&,right,loyalty.vice,,,,,,,0,55,55,55,,,,,,,,,,,,,,,,,,,,,AMP,right,0.5837290466511149,,,right,1,0.5837290466511149,1,,,,,,,,,,,,,,,,,,,,,,1073,2019_Mar_14_1403,mf_amp_cond1,3.0.4,59.947089641886585,
protect,sidearbs,&&&&&&&&,left,fairness.virtue,,,,,,,0,56,56,56,,,,,,,,,,,,,,,,,,,,,AMP,right,0.750424150368417,,,right,0,0.750424150368417,0,,,,,,,,,,,,,,,,,,,,,,1073,2019_Mar_14_1403,mf_amp_cond1,3.0.4,59.947089641886585,
strength,rorroborated,&&&&&&&&&&&&,left,sanctity.virtue,,,,,,,0,57,57,57,,,,,,,,,,,,,,,,,,,,,AMP,right,0.5837085206596839,,,right,0,0.5837085206596839,0,,,,,,,,,,,,,,,,,,,,,,1073,2019_Mar_14_1403,mf_amp_cond1,3.0.4,59.947089641886585,
voter,lenon,&&&&&,right,fairness.vice,,,,,,,0,58,58,58,,,,,,,,,,,,,,,,,,,,,AMP,right,0.3669973489400036,,,right,1,0.3669973489400036,1,,,,,,,,,,,,,,,,,,,,,,1073,2019_Mar_14_1403,mf_amp_cond1,3.0.4,59.947089641886585,
perfect,emports,&&&&&&&,left,sanctity.virtue,,,,,,,0,59,59,59,,,,,,,,,,,,,,,,,,,,,AMP,right,0.2836445052241743,,,right,0,0.2836445052241743,0,,,,,,,,,,,,,,,,,,,,,,1073,2019_Mar_14_1403,mf_amp_cond1,3.0.4,59.947089641886585,
gun,photocalkodes,&&&&&&&&&&&&&,right,authority.vice,,,,,,,0,60,60,60,,,,,,,,,,,,,,,,,,,,,AMP,left,0.18359184322775945,,,left,0,0.18359184322775945,0,,,,,,,,,,,,,,,,,,,,,,1073,2019_Mar_14_1403,mf_amp_cond1,3.0.4,59.947089641886585,
crime,chreams,&&&&&&&,right,fairness.vice,,,,,,,0,61,61,61,,,,,,,,,,,,,,,,,,,,,AMP,left,0.08359819345628239,,,left,0,0.08359819345628239,0,,,,,,,,,,,,,,,,,,,,,,1073,2019_Mar_14_1403,mf_amp_cond1,3.0.4,59.947089641886585,
violence,vicissifude,&&&&&&&&&&&,right,care.vice,,,,,,,0,62,62,62,,,,,,,,,,,,,,,,,,,,,AMP,left,0.10029769101834063,,,left,0,0.10029769101834063,0,,,,,,,,,,,,,,,,,,,,,,1073,2019_Mar_14_1403,mf_amp_cond1,3.0.4,59.947089641886585,
shot,sonvoy,&&&&&&,right,care.vice,,,,,,,0,63,63,63,,,,,,,,,,,,,,,,,,,,,AMP,left,0.1669475092671746,,,left,0,0.1669475092671746,0,,,,,,,,,,,,,,,,,,,,,,1073,2019_Mar_14_1403,mf_amp_cond1,3.0.4,59.947089641886585,
drug,lempestuous,&&&&&&&&&&&,right,sanctity.vice,,,,,,,0,64,64,64,,,,,,,,,,,,,,,,,,,,,AMP,left,0.23362555075414093,,,left,0,0.23362555075414093,0,,,,,,,,,,,,,,,,,,,,,,1073,2019_Mar_14_1403,mf_amp_cond1,3.0.4,59.947089641886585,
loyalty,blunderints,&&&&&&&&&&&,left,loyalty.virtue,,,,,,,0,65,65,65,,,,,,,,,,,,,,,,,,,,,AMP,right,0.20032982702355184,,,right,0,0.20032982702355184,0,,,,,,,,,,,,,,,,,,,,,,1073,2019_Mar_14_1403,mf_amp_cond1,3.0.4,59.947089641886585,
fighters,shoirmaster,&&&&&&&&&&&,right,authority.vice,,,,,,,0,66,66,66,,,,,,,,,,,,,,,,,,,,,AMP,left,0.3670121019963517,,,left,0,0.3670121019963517,0,,,,,,,,,,,,,,,,,,,,,,1073,2019_Mar_14_1403,mf_amp_cond1,3.0.4,59.947089641886585,
civilians,Cunday,&&&&&&,right,care.vice,,,,,,,0,67,67,67,,,,,,,,,,,,,,,,,,,,,AMP,right,0.3336483859195596,,,right,1,0.3336483859195596,1,,,,,,,,,,,,,,,,,,,,,,1073,2019_Mar_14_1403,mf_amp_cond1,3.0.4,59.947089641886585,
unpleasant,grovelire,&&&&&&&&&,None,control,,,,,,,0,68,68,68,,,,,,,,,,,,,,,,,,,,,AMP,left,0.316993147526091,,,left,0,0.316993147526091,0,,,,,,,,,,,,,,,,,,,,,,1073,2019_Mar_14_1403,mf_amp_cond1,3.0.4,59.947089641886585,
energy,erdest,&&&&&&,left,sanctity.virtue,,,,,,,0,69,69,69,,,,,,,,,,,,,,,,,,,,,AMP,right,0.7503818155109911,,,right,0,0.7503818155109911,0,,,,,,,,,,,,,,,,,,,,,,1073,2019_Mar_14_1403,mf_amp_cond1,3.0.4,59.947089641886585,
penalty,unreflectuve,&&&&&&&&&&&&,right,authority.vice,,,,,,,0,70,70,70,,,,,,,,,,,,,,,,,,,,,AMP,right,0.9171214991156376,,,right,1,0.9171214991156376,1,,,,,,,,,,,,,,,,,,,,,,1073,2019_Mar_14_1403,mf_amp_cond1,3.0.4,59.947089641886585,
charges,scock,&&&&&,right,fairness.vice,,,,,,,0,71,71,71,,,,,,,,,,,,,,,,,,,,,AMP,right,0.9838075585680599,,,right,1,0.9838075585680599,1,,,,,,,,,,,,,,,,,,,,,,1073,2019_Mar_14_1403,mf_amp_cond1,3.0.4,59.947089641886585,
fear,mightingale,&&&&&&&&&&&,right,sanctity.vice,,,,,,,0,72,72,72,,,,,,,,,,,,,,,,,,,,,AMP,left,0.03360233072612573,,,left,0,0.03360233072612573,0,,,,,,,,,,,,,,,,,,,,,,1073,2019_Mar_14_1403,mf_amp_cond1,3.0.4,59.947089641886585,
friends,lorthwhile,&&&&&&&&&&,left,loyalty.virtue,,,,,,,0,73,73,73,,,,,,,,,,,,,,,,,,,,,AMP,right,0.15027431063140284,,,right,0,0.15027431063140284,0,,,,,,,,,,,,,,,,,,,,,,1073,2019_Mar_14_1403,mf_amp_cond1,3.0.4,59.947089641886585,
totalestic,Daptist,&&&&&&&,None,nonword,,,,,,,0,74,74,74,,,,,,,,,,,,,,,,,,,,,AMP,left,0.9171404215142047,,,left,0,0.9171404215142047,0,,,,,,,,,,,,,,,,,,,,,,1073,2019_Mar_14_1403,mf_amp_cond1,3.0.4,59.947089641886585,
troops,pullness,&&&&&&&&,right,loyalty.vice,,,,,,,0,75,75,75,,,,,,,,,,,,,,,,,,,,,AMP,right,0.5503762350072066,,,right,1,0.5503762350072066,1,,,,,,,,,,,,,,,,,,,,,,1073,2019_Mar_14_1403,mf_amp_cond1,3.0.4,59.947089641886585,
honored,stindig,&&&&&&&,left,authority.virtue,,,,,,,0,76,76,76,,,,,,,,,,,,,,,,,,,,,AMP,right,0.28364129803821925,,,right,0,0.28364129803821925,0,,,,,,,,,,,,,,,,,,,,,,1073,2019_Mar_14_1403,mf_amp_cond1,3.0.4,59.947089641886585,
refuejing,strofe,&&&&&&,None,nonword,,,,,,,0,77,77,77,,,,,,,,,,,,,,,,,,,,,AMP,left,0.5503717449464602,,,left,0,0.5503717449464602,0,,,,,,,,,,,,,,,,,,,,,,1073,2019_Mar_14_1403,mf_amp_cond1,3.0.4,59.947089641886585,
encourage,coom,&&&&,left,authority.virtue,,,,,,,0,78,78,78,,,,,,,,,,,,,,,,,,,,,AMP,right,0.3836577188310457,,,right,0,0.3836577188310457,0,,,,,,,,,,,,,,,,,,,,,,1073,2019_Mar_14_1403,mf_amp_cond1,3.0.4,59.947089641886585,
celebrated,squets,&&&&&&,left,authority.virtue,,,,,,,0,79,79,79,,,,,,,,,,,,,,,,,,,,,AMP,right,0.33366121466406184,,,right,0,0.33366121466406184,0,,,,,,,,,,,,,,,,,,,,,,1073,2019_Mar_14_1403,mf_amp_cond1,3.0.4,59.947089641886585,
prison,pulge,&&&&&,right,fairness.vice,,,,,,,0,80,80,80,,,,,,,,,,,,,,,,,,,,,AMP,left,0.18361557640514548,,,left,0,0.18361557640514548,0,,,,,,,,,,,,,,,,,,,,,,1073,2019_Mar_14_1403,mf_amp_cond1,3.0.4,59.947089641886585,
abuse,sgrawl,&&&&&&,right,sanctity.vice,,,,,,,0,81,81,81,,,,,,,,,,,,,,,,,,,,,AMP,left,0.28363488366562706,,,left,0,0.28363488366562706,0,,,,,,,,,,,,,,,,,,,,,,1073,2019_Mar_14_1403,mf_amp_cond1,3.0.4,59.947089641886585,
freedom,chreams,&&&&&&&,left,sanctity.virtue,,,,,,,0,82,82,82,,,,,,,,,,,,,,,,,,,,,AMP,right,0.150288422250469,,,right,0,0.150288422250469,0,,,,,,,,,,,,,,,,,,,,,,1073,2019_Mar_14_1403,mf_amp_cond1,3.0.4,59.947089641886585,
serial,galamitous,&&&&&&&&&&,right,sanctity.vice,,,,,,,0,83,83,83,,,,,,,,,,,,,,,,,,,,,AMP,left,0.13359822552797596,,,left,0,0.13359822552797596,0,,,,,,,,,,,,,,,,,,,,,,1073,2019_Mar_14_1403,mf_amp_cond1,3.0.4,59.947089641886585,
charges,wonderfujnoss,&&&&&&&&&&&&&,right,fairness.vice,,,,,,,0,84,84,84,,,,,,,,,,,,,,,,,,,,,AMP,left,0.9337924527212635,,,left,0,0.9337924527212635,0,,,,,,,,,,,,,,,,,,,,,,1073,2019_Mar_14_1403,mf_amp_cond1,3.0.4,59.947089641886585,
perfect,juck,&&&&,left,sanctity.virtue,,,,,,,0,85,85,85,,,,,,,,,,,,,,,,,,,,,AMP,right,1.2005196924437769,,,right,0,1.2005196924437769,0,,,,,,,,,,,,,,,,,,,,,,1073,2019_Mar_14_1403,mf_amp_cond1,3.0.4,59.947089641886585,
loyalty,counpy's,&&&&&&&&,left,loyalty.virtue,,,,,,,0,86,86,86,,,,,,,,,,,,,,,,,,,,,AMP,right,0.23366916848567598,,,right,0,0.23366916848567598,0,,,,,,,,,,,,,,,,,,,,,,1073,2019_Mar_14_1403,mf_amp_cond1,3.0.4,59.947089641886585,
safety,aubos,&&&&&,left,care.virtue,,,,,,,0,87,87,87,,,,,,,,,,,,,,,,,,,,,AMP,right,0.5671347447946573,,,right,0,0.5671347447946573,0,,,,,,,,,,,,,,,,,,,,,,1073,2019_Mar_14_1403,mf_amp_cond1,3.0.4,59.947089641886585,
fraud,vurtain,&&&&&&&,right,fairness.vice,,,,,,,0,88,88,88,,,,,,,,,,,,,,,,,,,,,AMP,left,0.25029329717335713,,,left,0,0.25029329717335713,0,,,,,,,,,,,,,,,,,,,,,,1073,2019_Mar_14_1403,mf_amp_cond1,3.0.4,59.947089641886585,
prosecution,divility,&&&&&&&&,right,authority.vice,,,,,,,0,89,89,89,,,,,,,,,,,,,,,,,,,,,AMP,right,0.4836834404638921,,,right,1,0.4836834404638921,1,,,,,,,,,,,,,,,,,,,,,,1073,2019_Mar_14_1403,mf_amp_cond1,3.0.4,59.947089641886585,
growth,gedious,&&&&&&&,left,care.virtue,,,,,,,0,90,90,90,,,,,,,,,,,,,,,,,,,,,AMP,right,0.3003456063795511,,,right,0,0.3003456063795511,0,,,,,,,,,,,,,,,,,,,,,,1073,2019_Mar_14_1403,mf_amp_cond1,3.0.4,59.947089641886585,
slavery,sickyay,&&&&&&&,right,loyalty.vice,,,,,,,0,91,91,91,,,,,,,,,,,,,,,,,,,,,AMP,left,0.10025728047298799,,,left,0,0.10025728047298799,0,,,,,,,,,,,,,,,,,,,,,,1073,2019_Mar_14_1403,mf_amp_cond1,3.0.4,59.947089641886585,
groups,disregord,&&&&&&&&&,right,loyalty.vice,,,,,,,0,92,92,92,,,,,,,,,,,,,,,,,,,,,AMP,left,0.8171092476645754,,,left,0,0.8171092476645754,0,,,,,,,,,,,,,,,,,,,,,,1073,2019_Mar_14_1403,mf_amp_cond1,3.0.4,59.947089641886585,
hand,iptervention,&&&&&&&&&&&&,left,sanctity.virtue,,,,,,,0,93,93,93,,,,,,,,,,,,,,,,,,,,,AMP,right,0.3503222259926133,,,right,0,0.3503222259926133,0,,,,,,,,,,,,,,,,,,,,,,1073,2019_Mar_14_1403,mf_amp_cond1,3.0.4,59.947089641886585,
party,infet,&&&&&,left,loyalty.virtue,,,,,,,0,94,94,94,,,,,,,,,,,,,,,,,,,,,AMP,right,0.45034089181581294,,,right,0,0.45034089181581294,0,,,,,,,,,,,,,,,,,,,,,,1073,2019_Mar_14_1403,mf_amp_cond1,3.0.4,59.947089641886585,
prison,feleological,&&&&&&&&&&&&,right,fairness.vice,,,,,,,0,95,95,95,,,,,,,,,,,,,,,,,,,,,AMP,left,0.1669321147737719,,,left,0,0.1669321147737719,0,,,,,,,,,,,,,,,,,,,,,,1073,2019_Mar_14_1403,mf_amp_cond1,3.0.4,59.947089641886585,
praise,neutralust,&&&&&&&&&&,left,authority.virtue,,,,,,,0,96,96,96,,,,,,,,,,,,,,,,,,,,,AMP,right,0.7837195533800241,,,right,0,0.7837195533800241,0,,,,,,,,,,,,,,,,,,,,,,1073,2019_Mar_14_1403,mf_amp_cond1,3.0.4,59.947089641886585,
conspiracy,lachelor,&&&&&&&&,right,sanctity.vice,,,,,,,0,97,97,97,,,,,,,,,,,,,,,,,,,,,AMP,right,0.6336033570257769,,,right,1,0.6336033570257769,1,,,,,,,,,,,,,,,,,,,,,,1073,2019_Mar_14_1403,mf_amp_cond1,3.0.4,59.947089641886585,
ban,alar,&&&&,right,loyalty.vice,,,,,,,0,98,98,98,,,,,,,,,,,,,,,,,,,,,AMP,left,0.3003119309248632,,,left,0,0.3003119309248632,0,,,,,,,,,,,,,,,,,,,,,,1073,2019_Mar_14_1403,mf_amp_cond1,3.0.4,59.947089641886585,
trust,lempestuous,&&&&&&&&&&&,left,authority.virtue,,,,,,,0,99,99,99,,,,,,,,,,,,,,,,,,,,,AMP,right,0.16694398136223754,,,right,0,0.16694398136223754,0,,,,,,,,,,,,,,,,,,,,,,1073,2019_Mar_14_1403,mf_amp_cond1,3.0.4,59.947089641886585,
gun,erdest,&&&&&&,right,authority.vice,,,,,,,0,100,100,100,,,,,,,,,,,,,,,,,,,,,AMP,left,0.10026497771968934,,,left,0,0.10026497771968934,0,,,,,,,,,,,,,,,,,,,,,,1073,2019_Mar_14_1403,mf_amp_cond1,3.0.4,59.947089641886585,
fear,pulge,&&&&&,right,sanctity.vice,,,,,,,0,101,101,101,,,,,,,,,,,,,,,,,,,,,AMP,left,0.1169298376714778,,,left,0,0.1169298376714778,0,,,,,,,,,,,,,,,,,,,,,,1073,2019_Mar_14_1403,mf_amp_cond1,3.0.4,59.947089641886585,
racist,gowlands,&&&&&&&&,right,sanctity.vice,,,,,,,0,102,102,102,,,,,,,,,,,,,,,,,,,,,AMP,left,0.1002604876591704,,,left,0,0.1002604876591704,0,,,,,,,,,,,,,,,,,,,,,,1073,2019_Mar_14_1403,mf_amp_cond1,3.0.4,59.947089641886585,
brotesque,sidearbs,&&&&&&&&,None,nonword,,,,,,,0,103,103,103,,,,,,,,,,,,,,,,,,,,,AMP,left,0.6669051744099761,,,left,0,0.6669051744099761,0,,,,,,,,,,,,,,,,,,,,,,1073,2019_Mar_14_1403,mf_amp_cond1,3.0.4,59.947089641886585,
victims,lorthwhile,&&&&&&&&&&,right,care.vice,,,,,,,0,104,104,104,,,,,,,,,,,,,,,,,,,,,AMP,left,0.13362035511249815,,,left,0,0.13362035511249815,0,,,,,,,,,,,,,,,,,,,,,,1073,2019_Mar_14_1403,mf_amp_cond1,3.0.4,59.947089641886585,
ablow,reelectiob,&&&&&&&&&&,None,nonword,,,,,,,0,105,105,105,,,,,,,,,,,,,,,,,,,,,AMP,right,0.4836802332779371,,,right,0,0.4836802332779371,0,,,,,,,,,,,,,,,,,,,,,,1073,2019_Mar_14_1403,mf_amp_cond1,3.0.4,59.947089641886585,
papert,scock,&&&&&,None,nonword,,,,,,,0,106,106,106,,,,,,,,,,,,,,,,,,,,,AMP,right,0.5670369256170034,,,right,0,0.5670369256170034,0,,,,,,,,,,,,,,,,,,,,,,1073,2019_Mar_14_1403,mf_amp_cond1,3.0.4,59.947089641886585,
shot,framo,&&&&&,right,care.vice,,,,,,,0,107,107,107,,,,,,,,,,,,,,,,,,,,,AMP,left,0.1336245244544898,,,left,0,0.1336245244544898,0,,,,,,,,,,,,,,,,,,,,,,1073,2019_Mar_14_1403,mf_amp_cond1,3.0.4,59.947089641886585,
unpleasant,brudent,&&&&&&&,None,control,,,,,,,0,108,108,108,,,,,,,,,,,,,,,,,,,,,AMP,left,0.21695940792778856,,,left,0,0.21695940792778856,0,,,,,,,,,,,,,,,,,,,,,,1073,2019_Mar_14_1403,mf_amp_cond1,3.0.4,59.947089641886585,
sliptery,tislay,&&&&&&,None,nonword,,,,,,,0,109,109,109,,,,,,,,,,,,,,,,,,,,,AMP,right,1.0004583069007822,,,right,0,1.0004583069007822,0,,,,,,,,,,,,,,,,,,,,,,1073,2019_Mar_14_1403,mf_amp_cond1,3.0.4,59.947089641886585,
safe,clamorek,&&&&&&&&,left,care.virtue,,,,,,,0,110,110,110,,,,,,,,,,,,,,,,,,,,,AMP,right,0.8504245352305588,,,right,0,0.8504245352305588,0,,,,,,,,,,,,,,,,,,,,,,1073,2019_Mar_14_1403,mf_amp_cond1,3.0.4,59.947089641886585,
black,rorroborated,&&&&&&&&&&&&,right,loyalty.vice,,,,,,,0,111,111,111,,,,,,,,,,,,,,,,,,,,,AMP,left,0.28364161875674654,,,left,0,0.28364161875674654,0,,,,,,,,,,,,,,,,,,,,,,1073,2019_Mar_14_1403,mf_amp_cond1,3.0.4,59.947089641886585,
credit,Lacedonia,&&&&&&&&&,left,fairness.virtue,,,,,,,0,112,112,112,,,,,,,,,,,,,,,,,,,,,AMP,right,0.6003852472001654,,,right,0,0.6003852472001654,0,,,,,,,,,,,,,,,,,,,,,,1073,2019_Mar_14_1403,mf_amp_cond1,3.0.4,59.947089641886585,
peace,grovelire,&&&&&&&&&,left,care.virtue,,,,,,,0,113,113,113,,,,,,,,,,,,,,,,,,,,,AMP,right,0.36701370558921553,,,right,0,0.36701370558921553,0,,,,,,,,,,,,,,,,,,,,,,1073,2019_Mar_14_1403,mf_amp_cond1,3.0.4,59.947089641886585,
friends,fegard,&&&&&&,left,loyalty.virtue,,,,,,,0,114,114,114,,,,,,,,,,,,,,,,,,,,,AMP,right,0.26696553365331965,,,right,0,0.26696553365331965,0,,,,,,,,,,,,,,,,,,,,,,1073,2019_Mar_14_1403,mf_amp_cond1,3.0.4,59.947089641886585,
protect,leact,&&&&&,left,fairness.virtue,,,,,,,0,115,115,115,,,,,,,,,,,,,,,,,,,,,AMP,right,0.41699064592080504,,,right,0,0.41699064592080504,0,,,,,,,,,,,,,,,,,,,,,,1073,2019_Mar_14_1403,mf_amp_cond1,3.0.4,59.947089641886585,
ensure,fostet,&&&&&&,left,fairness.virtue,,,,,,,0,116,116,116,,,,,,,,,,,,,,,,,,,,,AMP,right,0.4170137376611365,,,right,0,0.4170137376611365,0,,,,,,,,,,,,,,,,,,,,,,1073,2019_Mar_14_1403,mf_amp_cond1,3.0.4,59.947089641886585,
win,sonvoy,&&&&&&,left,fairness.virtue,,,,,,,0,117,117,117,,,,,,,,,,,,,,,,,,,,,AMP,right,0.1502855357828139,,,right,0,0.1502855357828139,0,,,,,,,,,,,,,,,,,,,,,,1073,2019_Mar_14_1403,mf_amp_cond1,3.0.4,59.947089641886585,
drug,vicissifude,&&&&&&&&&&&,right,sanctity.vice,,,,,,,0,118,118,118,,,,,,,,,,,,,,,,,,,,,AMP,left,0.25031221957146954,,,left,0,0.25031221957146954,0,,,,,,,,,,,,,,,,,,,,,,1073,2019_Mar_14_1403,mf_amp_cond1,3.0.4,59.947089641886585,
injured,godlaness,&&&&&&&&&,right,care.vice,,,,,,,0,119,119,119,,,,,,,,,,,,,,,,,,,,,AMP,left,0.5170247062378621,,,left,0,0.5170247062378621,0,,,,,,,,,,,,,,,,,,,,,,1073,2019_Mar_14_1403,mf_amp_cond1,3.0.4,59.947089641886585,
attacks,photocalkodes,&&&&&&&&&&&&&,right,care.vice,,,,,,,0,120,120,120,,,,,,,,,,,,,,,,,,,,,AMP,left,0.20028203995002514,,,left,0,0.20028203995002514,0,,,,,,,,,,,,,,,,,,,,,,1073,2019_Mar_14_1403,mf_amp_cond1,3.0.4,59.947089641886585,
good,antral,&&&&&&,left,care.virtue,,,,,,,0,121,121,121,,,,,,,,,,,,,,,,,,,,,AMP,right,0.38366894398268414,,,right,0,0.38366894398268414,0,,,,,,,,,,,,,,,,,,,,,,1073,2019_Mar_14_1403,mf_amp_cond1,3.0.4,59.947089641886585,
crime,honstables,&&&&&&&&&&,right,fairness.vice,,,,,,,0,122,122,122,,,,,,,,,,,,,,,,,,,,,AMP,left,0.2502955422037303,,,left,0,0.2502955422037303,0,,,,,,,,,,,,,,,,,,,,,,1073,2019_Mar_14_1403,mf_amp_cond1,3.0.4,59.947089641886585,
refused,strofe,&&&&&&,right,authority.vice,,,,,,,0,123,123,123,,,,,,,,,,,,,,,,,,,,,AMP,left,0.4003421426184559,,,left,0,0.4003421426184559,0,,,,,,,,,,,,,,,,,,,,,,1073,2019_Mar_14_1403,mf_amp_cond1,3.0.4,59.947089641886585,
respect,erks,&&&&,left,sanctity.virtue,,,,,,,0,124,124,124,,,,,,,,,,,,,,,,,,,,,AMP,right,0.2502958629222576,,,right,0,0.2502958629222576,0,,,,,,,,,,,,,,,,,,,,,,1073,2019_Mar_14_1403,mf_amp_cond1,3.0.4,59.947089641886585,
pleasant,suggists,&&&&&&&&,None,control,,,,,,,0,125,125,125,,,,,,,,,,,,,,,,,,,,,AMP,right,0.7504251125242263,,,right,0,0.7504251125242263,0,,,,,,,,,,,,,,,,,,,,,,1073,2019_Mar_14_1403,mf_amp_cond1,3.0.4,59.947089641886585,
forced,idexpressible,&&&&&&&&&&&&&,right,fairness.vice,,,,,,,0,126,126,126,,,,,,,,,,,,,,,,,,,,,AMP,left,0.6670697030592692,,,left,0,0.6670697030592692,0,,,,,,,,,,,,,,,,,,,,,,1073,2019_Mar_14_1403,mf_amp_cond1,3.0.4,59.947089641886585,
ilportation,smapper,&&&&&&&,None,nonword,,,,,,,0,127,127,127,,,,,,,,,,,,,,,,,,,,,AMP,left,0.5503739899768334,,,left,0,0.5503739899768334,0,,,,,,,,,,,,,,,,,,,,,,1073,2019_Mar_14_1403,mf_amp_cond1,3.0.4,59.947089641886585,
benefit,clattening,&&&&&&&&&&,left,fairness.virtue,,,,,,,0,128,128,128,,,,,,,,,,,,,,,,,,,,,AMP,right,0.31698673315372616,,,right,0,0.31698673315372616,0,,,,,,,,,,,,,,,,,,,,,,1073,2019_Mar_14_1403,mf_amp_cond1,3.0.4,59.947089641886585,
values,emports,&&&&&&&,left,sanctity.virtue,,,,,,,0,129,129,129,,,,,,,,,,,,,,,,,,,,,AMP,right,0.2836390530076187,,,right,0,0.2836390530076187,0,,,,,,,,,,,,,,,,,,,,,,1073,2019_Mar_14_1403,mf_amp_cond1,3.0.4,59.947089641886585,
interests,unreflectuve,&&&&&&&&&&&&,left,fairness.virtue,,,,,,,0,130,130,130,,,,,,,,,,,,,,,,,,,,,AMP,right,0.5170468358223843,,,right,0,0.5170468358223843,0,,,,,,,,,,,,,,,,,,,,,,1073,2019_Mar_14_1403,mf_amp_cond1,3.0.4,59.947089641886585,
war,gikely,&&&&&&,right,sanctity.vice,,,,,,,0,131,131,131,,,,,,,,,,,,,,,,,,,,,AMP,left,0.16699112699870966,,,left,0,0.16699112699870966,0,,,,,,,,,,,,,,,,,,,,,,1073,2019_Mar_14_1403,mf_amp_cond1,3.0.4,59.947089641886585,
penalty,baklara,&&&&&&&,right,authority.vice,,,,,,,0,132,132,132,,,,,,,,,,,,,,,,,,,,,AMP,right,0.5170301584544177,,,right,1,0.5170301584544177,1,,,,,,,,,,,,,,,,,,,,,,1073,2019_Mar_14_1403,mf_amp_cond1,3.0.4,59.947089641886585,
care,framatic,&&&&&&&&,left,care.virtue,,,,,,,0,133,133,133,,,,,,,,,,,,,,,,,,,,,AMP,right,0.18358029735736636,,,right,0,0.18358029735736636,0,,,,,,,,,,,,,,,,,,,,,,1073,2019_Mar_14_1403,mf_amp_cond1,3.0.4,59.947089641886585,
tabin,rivernoat,&&&&&&&&&,None,nonword,,,,,,,0,134,134,134,,,,,,,,,,,,,,,,,,,,,AMP,right,0.5670558480151158,,,right,0,0.5670558480151158,0,,,,,,,,,,,,,,,,,,,,,,1073,2019_Mar_14_1403,mf_amp_cond1,3.0.4,59.947089641886585,
chadows,ronviolence,&&&&&&&&&&&,None,nonword,,,,,,,0,135,135,135,,,,,,,,,,,,,,,,,,,,,AMP,left,0.6335831517531005,,,left,0,0.6335831517531005,0,,,,,,,,,,,,,,,,,,,,,,1073,2019_Mar_14_1403,mf_amp_cond1,3.0.4,59.947089641886585,
hope,pharing,&&&&&&&,left,loyalty.virtue,,,,,,,0,136,136,136,,,,,,,,,,,,,,,,,,,,,AMP,right,0.3503466006072813,,,right,0,0.3503466006072813,0,,,,,,,,,,,,,,,,,,,,,,1073,2019_Mar_14_1403,mf_amp_cond1,3.0.4,59.947089641886585,
energy,stindig,&&&&&&&,left,sanctity.virtue,,,,,,,0,137,137,137,,,,,,,,,,,,,,,,,,,,,AMP,right,0.3669864445071198,,,right,0,0.3669864445071198,0,,,,,,,,,,,,,,,,,,,,,,1073,2019_Mar_14_1403,mf_amp_cond1,3.0.4,59.947089641886585,
abuse,Oregoniuns,&&&&&&&&&&,right,sanctity.vice,,,,,,,0,138,138,138,,,,,,,,,,,,,,,,,,,,,AMP,left,0.08359883489356434,,,left,0,0.08359883489356434,0,,,,,,,,,,,,,,,,,,,,,,1073,2019_Mar_14_1403,mf_amp_cond1,3.0.4,59.947089641886585,
violence,ejanulated,&&&&&&&&&&,right,care.vice,,,,,,,0,139,139,139,,,,,,,,,,,,,,,,,,,,,AMP,left,0.050266869959386895,,,left,0,0.050266869959386895,0,,,,,,,,,,,,,,,,,,,,,,1073,2019_Mar_14_1403,mf_amp_cond1,3.0.4,59.947089641886585,
strength,blunderints,&&&&&&&&&&&,left,sanctity.virtue,,,,,,,0,140,140,140,,,,,,,,,,,,,,,,,,,,,AMP,right,0.8504434576288986,,,right,0,0.8504434576288986,0,,,,,,,,,,,,,,,,,,,,,,1073,2019_Mar_14_1403,mf_amp_cond1,3.0.4,59.947089641886585,
critics,lenon,&&&&&,right,loyalty.vice,,,,,,,0,141,141,141,,,,,,,,,,,,,,,,,,,,,AMP,right,0.4501673830452546,,,right,1,0.4501673830452546,1,,,,,,,,,,,,,,,,,,,,,,1073,2019_Mar_14_1403,mf_amp_cond1,3.0.4,59.947089641886585,
suicide,asn,&&&,right,care.vice,,,,,,,0,142,142,142,,,,,,,,,,,,,,,,,,,,,AMP,left,0.4170041161028166,,,left,0,0.4170041161028166,0,,,,,,,,,,,,,,,,,,,,,,1073,2019_Mar_14_1403,mf_amp_cond1,3.0.4,59.947089641886585,
celebrated,frojecting,&&&&&&&&&&,left,authority.virtue,,,,,,,0,143,143,143,,,,,,,,,,,,,,,,,,,,,AMP,left,0.5336793031940488,,,left,1,0.5336793031940488,1,,,,,,,,,,,,,,,,,,,,,,1073,2019_Mar_14_1403,mf_amp_cond1,3.0.4,59.947089641886585,
rejected,pullness,&&&&&&&&,right,authority.vice,,,,,,,0,144,144,144,,,,,,,,,,,,,,,,,,,,,AMP,left,0.5670359634611941,,,left,0,0.5670359634611941,0,,,,,,,,,,,,,,,,,,,,,,1073,2019_Mar_14_1403,mf_amp_cond1,3.0.4,59.947089641886585,
accused,sgrawl,&&&&&&,right,fairness.vice,,,,,,,0,145,145,145,,,,,,,,,,,,,,,,,,,,,AMP,left,0.45034570259508655,,,left,0,0.45034570259508655,0,,,,,,,,,,,,,,,,,,,,,,1073,2019_Mar_14_1403,mf_amp_cond1,3.0.4,59.947089641886585,
troops,carvels,&&&&&&&,right,loyalty.vice,,,,,,,0,146,146,146,,,,,,,,,,,,,,,,,,,,,AMP,left,0.40035657495604937,,,left,0,0.40035657495604937,0,,,,,,,,,,,,,,,,,,,,,,1073,2019_Mar_14_1403,mf_amp_cond1,3.0.4,59.947089641886585,
fighters,focomotive,&&&&&&&&&&,right,authority.vice,,,,,,,0,147,147,147,,,,,,,,,,,,,,,,,,,,,AMP,left,0.5170282341425718,,,left,0,0.5170282341425718,0,,,,,,,,,,,,,,,,,,,,,,1073,2019_Mar_14_1403,mf_amp_cond1,3.0.4,59.947089641886585,
honored,nackers,&&&&&&&,left,authority.virtue,,,,,,,0,148,148,148,,,,,,,,,,,,,,,,,,,,,AMP,right,0.4668678427631221,,,right,0,0.4668678427631221,0,,,,,,,,,,,,,,,,,,,,,,1073,2019_Mar_14_1403,mf_amp_cond1,3.0.4,59.947089641886585,
protesters,gaultless,&&&&&&&&&,right,authority.vice,,,,,,,0,149,149,149,,,,,,,,,,,,,,,,,,,,,AMP,right,0.40033187962262673,,,right,1,0.40033187962262673,1,,,,,,,,,,,,,,,,,,,,,,1073,2019_Mar_14_1403,mf_amp_cond1,3.0.4,59.947089641886585,
refuejing,Cunday,&&&&&&,None,nonword,,,,,,,0,150,150,150,,,,,,,,,,,,,,,,,,,,,AMP,right,0.63372715441119,,,right,0,0.63372715441119,0,,,,,,,,,,,,,,,,,,,,,,1073,2019_Mar_14_1403,mf_amp_cond1,3.0.4,59.947089641886585,
encourage,chonograph,&&&&&&&&&&,left,authority.virtue,,,,,,,0,151,151,151,,,,,,,,,,,,,,,,,,,,,AMP,right,0.3003289290113571,,,right,0,0.3003289290113571,0,,,,,,,,,,,,,,,,,,,,,,1073,2019_Mar_14_1403,mf_amp_cond1,3.0.4,59.947089641886585,
praised,gationwide,&&&&&&&&&&,left,loyalty.virtue,,,,,,,0,152,152,152,,,,,,,,,,,,,,,,,,,,,AMP,right,0.56705360298497,,,right,0,0.56705360298497,0,,,,,,,,,,,,,,,,,,,,,,1073,2019_Mar_14_1403,mf_amp_cond1,3.0.4,59.947089641886585,
army,fangsters,&&&&&&&&&,right,loyalty.vice,,,,,,,0,153,153,153,,,,,,,,,,,,,,,,,,,,,AMP,left,0.4003405390253647,,,left,0,0.4003405390253647,0,,,,,,,,,,,,,,,,,,,,,,1073,2019_Mar_14_1403,mf_amp_cond1,3.0.4,59.947089641886585,
neputized,Daptist,&&&&&&&,None,nonword,,,,,,,0,154,154,154,,,,,,,,,,,,,,,,,,,,,AMP,right,0.5170170089911608,,,right,0,0.5170170089911608,0,,,,,,,,,,,,,,,,,,,,,,1073,2019_Mar_14_1403,mf_amp_cond1,3.0.4,59.947089641886585,
voter,shoirmaster,&&&&&&&&&&&,right,fairness.vice,,,,,,,0,155,155,155,,,,,,,,,,,,,,,,,,,,,AMP,right,0.2836422601940285,,,right,1,0.2836422601940285,1,,,,,,,,,,,,,,,,,,,,,,1073,2019_Mar_14_1403,mf_amp_cond1,3.0.4,59.947089641886585,
agreement,squets,&&&&&&,left,fairness.virtue,,,,,,,0,156,156,156,,,,,,,,,,,,,,,,,,,,,AMP,right,0.3837026194371447,,,right,0,0.3837026194371447,0,,,,,,,,,,,,,,,,,,,,,,1073,2019_Mar_14_1403,mf_amp_cond1,3.0.4,59.947089641886585,
useful,Boeinf,&&&&&&,left,authority.virtue,,,,,,,0,157,157,157,,,,,,,,,,,,,,,,,,,,,AMP,right,0.4670265984775597,,,right,0,0.4670265984775597,0,,,,,,,,,,,,,,,,,,,,,,1073,2019_Mar_14_1403,mf_amp_cond1,3.0.4,59.947089641886585,
strong,pafer,&&&&&,left,loyalty.virtue,,,,,,,0,158,158,158,,,,,,,,,,,,,,,,,,,,,AMP,right,0.2503009944200585,,,right,0,0.2503009944200585,0,,,,,,,,,,,,,,,,,,,,,,1073,2019_Mar_14_1403,mf_amp_cond1,3.0.4,59.947089641886585,
civilians,epigrach,&&&&&&&&,right,care.vice,,,,,,,0,159,159,159,,,,,,,,,,,,,,,,,,,,,AMP,right,0.517022461207489,,,right,1,0.517022461207489,1,,,,,,,,,,,,,,,,,,,,,,1073,2019_Mar_14_1403,mf_amp_cond1,3.0.4,59.947089641886585,
restore,mightingale,&&&&&&&&&&&,left,care.virtue,,,,,,,0,160,160,160,,,,,,,,,,,,,,,,,,,,,AMP,right,0.41699706029316985,,,right,0,0.41699706029316985,0,,,,,,,,,,,,,,,,,,,,,,1073,2019_Mar_14_1403,mf_amp_cond1,3.0.4,59.947089641886585,
support,coom,&&&&,left,loyalty.virtue,,,,,,,0,161,161,161,,,,,,,,,,,,,,,,,,,,,AMP,right,0.06695706668187995,,,right,0,0.06695706668187995,0,,,,,,,,,,,,,,,,,,,,,,1073,2019_Mar_14_1403,mf_amp_cond1,3.0.4,59.947089641886585,
totalestic,gazily,&&&&&&,None,nonword,,,,,,,0,162,162,162,,,,,,,,,,,,,,,,,,,,,AMP,right,0.3503196602434855,,,right,0,0.3503196602434855,0,,,,,,,,,,,,,,,,,,,,,,1073,2019_Mar_14_1403,mf_amp_cond1,3.0.4,59.947089641886585,
ability,spag,&&&&,left,authority.virtue,,,,,,,0,163,163,163,,,,,,,,,,,,,,,,,,,,,AMP,right,0.1669394913017186,,,right,0,0.1669394913017186,0,,,,,,,,,,,,,,,,,,,,,,1073,2019_Mar_14_1403,mf_amp_cond1,3.0.4,59.947089641886585,
ability,rorroborated,&&&&&&&&&&&&,left,authority.virtue,,,,,,,0,164,164,164,,,,,,,,,,,,,,,,,,,,,AMP,right,0.4170272078429207,,,right,0,0.4170272078429207,0,,,,,,,,,,,,,,,,,,,,,,1073,2019_Mar_14_1403,mf_amp_cond1,3.0.4,59.947089641886585,
army,iptervention,&&&&&&&&&&&&,right,loyalty.vice,,,,,,,0,165,165,165,,,,,,,,,,,,,,,,,,,,,AMP,right,0.46704359656428096,,,right,1,0.46704359656428096,1,,,,,,,,,,,,,,,,,,,,,,1073,2019_Mar_14_1403,mf_amp_cond1,3.0.4,59.947089641886585,
pleasant,gaultless,&&&&&&&&&,None,control,,,,,,,0,166,166,166,,,,,,,,,,,,,,,,,,,,,AMP,right,0.43352850130099796,,,right,0,0.43352850130099796,0,,,,,,,,,,,,,,,,,,,,,,1073,2019_Mar_14_1403,mf_amp_cond1,3.0.4,59.947089641886585,
agreement,coom,&&&&,left,fairness.virtue,,,,,,,0,167,167,167,,,,,,,,,,,,,,,,,,,,,AMP,right,0.38366028458017354,,,right,0,0.38366028458017354,0,,,,,,,,,,,,,,,,,,,,,,1073,2019_Mar_14_1403,mf_amp_cond1,3.0.4,59.947089641886585,
safety,antral,&&&&&&,left,care.virtue,,,,,,,0,168,168,168,,,,,,,,,,,,,,,,,,,,,AMP,right,0.20029551013180935,,,right,0,0.20029551013180935,0,,,,,,,,,,,,,,,,,,,,,,1073,2019_Mar_14_1403,mf_amp_cond1,3.0.4,59.947089641886585,
chadows,lachelor,&&&&&&&&,None,nonword,,,,,,,0,169,169,169,,,,,,,,,,,,,,,,,,,,,AMP,right,0.4503511548116421,,,right,0,0.4503511548116421,0,,,,,,,,,,,,,,,,,,,,,,1073,2019_Mar_14_1403,mf_amp_cond1,3.0.4,59.947089641886585,
shot,fangsters,&&&&&&&&&,right,care.vice,,,,,,,0,170,170,170,,,,,,,,,,,,,,,,,,,,,AMP,left,0.25037443898304446,,,left,0,0.25037443898304446,0,,,,,,,,,,,,,,,,,,,,,,1073,2019_Mar_14_1403,mf_amp_cond1,3.0.4,59.947089641886585,
attacks,squets,&&&&&&,right,care.vice,,,,,,,0,171,171,171,,,,,,,,,,,,,,,,,,,,,AMP,left,0.3169742251277512,,,left,0,0.3169742251277512,0,,,,,,,,,,,,,,,,,,,,,,1073,2019_Mar_14_1403,mf_amp_cond1,3.0.4,59.947089641886585,
war,ronviolence,&&&&&&&&&&&,right,sanctity.vice,,,,,,,0,172,172,172,,,,,,,,,,,,,,,,,,,,,AMP,left,0.15028810153171435,,,left,0,0.15028810153171435,0,,,,,,,,,,,,,,,,,,,,,,1073,2019_Mar_14_1403,mf_amp_cond1,3.0.4,59.947089641886585,
penalty,alar,&&&&,right,authority.vice,,,,,,,0,173,173,173,,,,,,,,,,,,,,,,,,,,,AMP,left,1.0171356748785456,,,left,0,1.0171356748785456,0,,,,,,,,,,,,,,,,,,,,,,1073,2019_Mar_14_1403,mf_amp_cond1,3.0.4,59.947089641886585,
slavery,feleological,&&&&&&&&&&&&,right,loyalty.vice,,,,,,,0,174,174,174,,,,,,,,,,,,,,,,,,,,,AMP,left,0.46703878578500735,,,left,0,0.46703878578500735,0,,,,,,,,,,,,,,,,,,,,,,1073,2019_Mar_14_1403,mf_amp_cond1,3.0.4,59.947089641886585,
forced,infet,&&&&&,right,fairness.vice,,,,,,,0,175,175,175,,,,,,,,,,,,,,,,,,,,,AMP,right,0.5503704620721237,,,right,1,0.5503704620721237,1,,,,,,,,,,,,,,,,,,,,,,1073,2019_Mar_14_1403,mf_amp_cond1,3.0.4,59.947089641886585,
care,reelectiob,&&&&&&&&&&,left,care.virtue,,,,,,,0,176,176,176,,,,,,,,,,,,,,,,,,,,,AMP,right,0.10025984622188844,,,right,0,0.10025984622188844,0,,,,,,,,,,,,,,,,,,,,,,1073,2019_Mar_14_1403,mf_amp_cond1,3.0.4,59.947089641886585,
critics,framatic,&&&&&&&&,right,loyalty.vice,,,,,,,0,177,177,177,,,,,,,,,,,,,,,,,,,,,AMP,right,0.6504112574800729,,,right,1,0.6504112574800729,1,,,,,,,,,,,,,,,,,,,,,,1073,2019_Mar_14_1403,mf_amp_cond1,3.0.4,59.947089641886585,
hand,wonderfujnoss,&&&&&&&&&&&&&,left,sanctity.virtue,,,,,,,0,178,178,178,,,,,,,,,,,,,,,,,,,,,AMP,right,0.6669298697433987,,,right,0,0.6669298697433987,0,,,,,,,,,,,,,,,,,,,,,,1073,2019_Mar_14_1403,mf_amp_cond1,3.0.4,59.947089641886585,
perfect,mightingale,&&&&&&&&&&&,left,sanctity.virtue,,,,,,,0,179,179,179,,,,,,,,,,,,,,,,,,,,,AMP,right,0.26698413533290477,,,right,0,0.26698413533290477,0,,,,,,,,,,,,,,,,,,,,,,1073,2019_Mar_14_1403,mf_amp_cond1,3.0.4,59.947089641886585,
strong,clattening,&&&&&&&&&&,left,loyalty.virtue,,,,,,,0,180,180,180,,,,,,,,,,,,,,,,,,,,,AMP,right,0.9838332160570644,,,right,0,0.9838332160570644,0,,,,,,,,,,,,,,,,,,,,,,1073,2019_Mar_14_1403,mf_amp_cond1,3.0.4,59.947089641886585,
unpleasant,blunderints,&&&&&&&&&&&,None,control,,,,,,,0,181,181,181,,,,,,,,,,,,,,,,,,,,,AMP,left,0.23363228584503304,,,left,0,0.23363228584503304,0,,,,,,,,,,,,,,,,,,,,,,1073,2019_Mar_14_1403,mf_amp_cond1,3.0.4,59.947089641886585,
injured,fostet,&&&&&&,right,care.vice,,,,,,,0,182,182,182,,,,,,,,,,,,,,,,,,,,,AMP,left,0.10026144981497964,,,left,0,0.10026144981497964,0,,,,,,,,,,,,,,,,,,,,,,1073,2019_Mar_14_1403,mf_amp_cond1,3.0.4,59.947089641886585,
violence,gationwide,&&&&&&&&&&,right,care.vice,,,,,,,0,183,183,183,,,,,,,,,,,,,,,,,,,,,AMP,left,0.233616249914121,,,left,0,0.233616249914121,0,,,,,,,,,,,,,,,,,,,,,,1073,2019_Mar_14_1403,mf_amp_cond1,3.0.4,59.947089641886585,
good,gikely,&&&&&&,left,care.virtue,,,,,,,0,184,184,184,,,,,,,,,,,,,,,,,,,,,AMP,right,0.20027851204508806,,,right,0,0.20027851204508806,0,,,,,,,,,,,,,,,,,,,,,,1073,2019_Mar_14_1403,mf_amp_cond1,3.0.4,59.947089641886585,
friends,Cunday,&&&&&&,left,loyalty.virtue,,,,,,,0,185,185,185,,,,,,,,,,,,,,,,,,,,,AMP,right,0.18361653856095472,,,right,0,0.18361653856095472,0,,,,,,,,,,,,,,,,,,,,,,1073,2019_Mar_14_1403,mf_amp_cond1,3.0.4,59.947089641886585,
win,Lacedonia,&&&&&&&&&,left,fairness.virtue,,,,,,,0,186,186,186,,,,,,,,,,,,,,,,,,,,,AMP,right,1.2171640264041343,,,right,0,1.2171640264041343,0,,,,,,,,,,,,,,,,,,,,,,1073,2019_Mar_14_1403,mf_amp_cond1,3.0.4,59.947089641886585,
safe,unreflectuve,&&&&&&&&&&&&,left,care.virtue,,,,,,,0,187,187,187,,,,,,,,,,,,,,,,,,,,,AMP,right,0.08359081692810832,,,right,0,0.08359081692810832,0,,,,,,,,,,,,,,,,,,,,,,1073,2019_Mar_14_1403,mf_amp_cond1,3.0.4,59.947089641886585,
civilians,vicissifude,&&&&&&&&&&&,right,care.vice,,,,,,,0,188,188,188,,,,,,,,,,,,,,,,,,,,,AMP,right,0.1002726749663907,,,right,1,0.1002726749663907,1,,,,,,,,,,,,,,,,,,,,,,1073,2019_Mar_14_1403,mf_amp_cond1,3.0.4,59.947089641886585,
crime,fegard,&&&&&&,right,fairness.vice,,,,,,,0,189,189,189,,,,,,,,,,,,,,,,,,,,,AMP,left,0.06692274979013746,,,left,0,0.06692274979013746,0,,,,,,,,,,,,,,,,,,,,,,1073,2019_Mar_14_1403,mf_amp_cond1,3.0.4,59.947089641886585,
refused,gedious,&&&&&&&,right,authority.vice,,,,,,,0,190,190,190,,,,,,,,,,,,,,,,,,,,,AMP,left,0.33364389585881327,,,left,0,0.33364389585881327,0,,,,,,,,,,,,,,,,,,,,,,1073,2019_Mar_14_1403,mf_amp_cond1,3.0.4,59.947089641886585,
drug,baklara,&&&&&&&,right,sanctity.vice,,,,,,,0,191,191,191,,,,,,,,,,,,,,,,,,,,,AMP,left,0.4336683346173231,,,left,0,0.4336683346173231,0,,,,,,,,,,,,,,,,,,,,,,1073,2019_Mar_14_1403,mf_amp_cond1,3.0.4,59.947089641886585,
protesters,chreams,&&&&&&&,right,authority.vice,,,,,,,0,192,192,192,,,,,,,,,,,,,,,,,,,,,AMP,right,0.550370141353369,,,right,1,0.550370141353369,1,,,,,,,,,,,,,,,,,,,,,,1073,2019_Mar_14_1403,mf_amp_cond1,3.0.4,59.947089641886585,
ilportation,juck,&&&&,None,nonword,,,,,,,0,193,193,193,,,,,,,,,,,,,,,,,,,,,AMP,left,0.4836635559097431,,,left,0,0.4836635559097431,0,,,,,,,,,,,,,,,,,,,,,,1073,2019_Mar_14_1403,mf_amp_cond1,3.0.4,59.947089641886585,
victims,strofe,&&&&&&,right,care.vice,,,,,,,0,194,194,194,,,,,,,,,,,,,,,,,,,,,AMP,left,0.4836818368710283,,,left,0,0.4836818368710283,0,,,,,,,,,,,,,,,,,,,,,,1073,2019_Mar_14_1403,mf_amp_cond1,3.0.4,59.947089641886585,
groups,sonvoy,&&&&&&,right,loyalty.vice,,,,,,,0,195,195,195,,,,,,,,,,,,,,,,,,,,,AMP,right,0.2836352043843817,,,right,1,0.2836352043843817,1,,,,,,,,,,,,,,,,,,,,,,1073,2019_Mar_14_1403,mf_amp_cond1,3.0.4,59.947089641886585,
values,focomotive,&&&&&&&&&&,left,sanctity.virtue,,,,,,,0,196,196,196,,,,,,,,,,,,,,,,,,,,,AMP,right,0.6003855679189201,,,right,0,0.6003855679189201,0,,,,,,,,,,,,,,,,,,,,,,1073,2019_Mar_14_1403,mf_amp_cond1,3.0.4,59.947089641886585,
fear,galamitous,&&&&&&&&&&,right,sanctity.vice,,,,,,,0,197,197,197,,,,,,,,,,,,,,,,,,,,,AMP,left,0.6003846057631108,,,left,0,0.6003846057631108,0,,,,,,,,,,,,,,,,,,,,,,1073,2019_Mar_14_1403,mf_amp_cond1,3.0.4,59.947089641886585,
growth,grovelire,&&&&&&&&&,left,care.virtue,,,,,,,0,198,198,198,,,,,,,,,,,,,,,,,,,,,AMP,right,0.46703205069411524,,,right,0,0.46703205069411524,0,,,,,,,,,,,,,,,,,,,,,,1073,2019_Mar_14_1403,mf_amp_cond1,3.0.4,59.947089641886585,
black,pulge,&&&&&,right,loyalty.vice,,,,,,,0,199,199,199,,,,,,,,,,,,,,,,,,,,,AMP,left,0.4003203337526884,,,left,0,0.4003203337526884,0,,,,,,,,,,,,,,,,,,,,,,1073,2019_Mar_14_1403,mf_amp_cond1,3.0.4,59.947089641886585,
brotesque,emports,&&&&&&&,None,nonword,,,,,,,0,200,200,200,,,,,,,,,,,,,,,,,,,,,AMP,right,0.4169928909511782,,,right,0,0.4169928909511782,0,,,,,,,,,,,,,,,,,,,,,,1073,2019_Mar_14_1403,mf_amp_cond1,3.0.4,59.947089641886585,
benefit,lenon,&&&&&,left,fairness.virtue,,,,,,,0,201,201,201,,,,,,,,,,,,,,,,,,,,,AMP,right,0.3336483859193322,,,right,0,0.3336483859193322,0,,,,,,,,,,,,,,,,,,,,,,1073,2019_Mar_14_1403,mf_amp_cond1,3.0.4,59.947089641886585,
prison,disregord,&&&&&&&&&,right,fairness.vice,,,,,,,0,202,202,202,,,,,,,,,,,,,,,,,,,,,AMP,left,0.3336317085513656,,,left,0,0.3336317085513656,0,,,,,,,,,,,,,,,,,,,,,,1073,2019_Mar_14_1403,mf_amp_cond1,3.0.4,59.947089641886585,
fighters,pafer,&&&&&,right,authority.vice,,,,,,,0,203,203,203,,,,,,,,,,,,,,,,,,,,,AMP,left,0.3336522345427966,,,left,0,0.3336522345427966,0,,,,,,,,,,,,,,,,,,,,,,1073,2019_Mar_14_1403,mf_amp_cond1,3.0.4,59.947089641886585,
honored,epigrach,&&&&&&&&,left,authority.virtue,,,,,,,0,204,204,204,,,,,,,,,,,,,,,,,,,,,AMP,right,0.41700219179097076,,,right,0,0.41700219179097076,0,,,,,,,,,,,,,,,,,,,,,,1073,2019_Mar_14_1403,mf_amp_cond1,3.0.4,59.947089641886585,
interests,gowlands,&&&&&&&&,left,fairness.virtue,,,,,,,0,205,205,205,,,,,,,,,,,,,,,,,,,,,AMP,right,0.38366734038959294,,,right,0,0.38366734038959294,0,,,,,,,,,,,,,,,,,,,,,,1073,2019_Mar_14_1403,mf_amp_cond1,3.0.4,59.947089641886585,
respect,neutralust,&&&&&&&&&&,left,sanctity.virtue,,,,,,,0,206,206,206,,,,,,,,,,,,,,,,,,,,,AMP,right,0.20030577312741116,,,right,0,0.20030577312741116,0,,,,,,,,,,,,,,,,,,,,,,1073,2019_Mar_14_1403,mf_amp_cond1,3.0.4,59.947089641886585,
rejected,vurtain,&&&&&&&,right,authority.vice,,,,,,,0,207,207,207,,,,,,,,,,,,,,,,,,,,,AMP,left,0.21697961320046488,,,left,0,0.21697961320046488,0,,,,,,,,,,,,,,,,,,,,,,1073,2019_Mar_14_1403,mf_amp_cond1,3.0.4,59.947089641886585,
suicide,brudent,&&&&&&&,right,care.vice,,,,,,,0,208,208,208,,,,,,,,,,,,,,,,,,,,,AMP,left,0.3336519138242693,,,left,0,0.3336519138242693,0,,,,,,,,,,,,,,,,,,,,,,1073,2019_Mar_14_1403,mf_amp_cond1,3.0.4,59.947089641886585,
ban,gazily,&&&&&&,right,loyalty.vice,,,,,,,0,209,209,209,,,,,,,,,,,,,,,,,,,,,AMP,left,0.3503254331787957,,,left,0,0.3503254331787957,0,,,,,,,,,,,,,,,,,,,,,,1073,2019_Mar_14_1403,mf_amp_cond1,3.0.4,59.947089641886585,
refuejing,erdest,&&&&&&,None,nonword,,,,,,,0,210,210,210,,,,,,,,,,,,,,,,,,,,,AMP,left,0.467019221949613,,,left,0,0.467019221949613,0,,,,,,,,,,,,,,,,,,,,,,1073,2019_Mar_14_1403,mf_amp_cond1,3.0.4,59.947089641886585,
sliptery,sickyay,&&&&&&&,None,nonword,,,,,,,0,211,211,211,,,,,,,,,,,,,,,,,,,,,AMP,left,0.5670561687338704,,,left,0,0.5670561687338704,0,,,,,,,,,,,,,,,,,,,,,,1073,2019_Mar_14_1403,mf_amp_cond1,3.0.4,59.947089641886585,
fraud,shoirmaster,&&&&&&&&&&&,right,fairness.vice,,,,,,,0,212,212,212,,,,,,,,,,,,,,,,,,,,,AMP,left,0.9838107657542423,,,left,0,0.9838107657542423,0,,,,,,,,,,,,,,,,,,,,,,1073,2019_Mar_14_1403,mf_amp_cond1,3.0.4,59.947089641886585,
ablow,sidearbs,&&&&&&&&,None,nonword,,,,,,,0,213,213,213,,,,,,,,,,,,,,,,,,,,,AMP,right,0.41699994676082497,,,right,0,0.41699994676082497,0,,,,,,,,,,,,,,,,,,,,,,1073,2019_Mar_14_1403,mf_amp_cond1,3.0.4,59.947089641886585,
ensure,pullness,&&&&&&&&,left,fairness.virtue,,,,,,,0,214,214,214,,,,,,,,,,,,,,,,,,,,,AMP,left,0.5670446228637047,,,left,1,0.5670446228637047,1,,,,,,,,,,,,,,,,,,,,,,1073,2019_Mar_14_1403,mf_amp_cond1,3.0.4,59.947089641886585,
hope,asn,&&&,left,loyalty.virtue,,,,,,,0,215,215,215,,,,,,,,,,,,,,,,,,,,,AMP,right,0.15027014128941119,,,right,0,0.15027014128941119,0,,,,,,,,,,,,,,,,,,,,,,1073,2019_Mar_14_1403,mf_amp_cond1,3.0.4,59.947089641886585,
accused,Boeinf,&&&&&&,right,fairness.vice,,,,,,,0,216,216,216,,,,,,,,,,,,,,,,,,,,,AMP,left,0.41701598269150963,,,left,0,0.41701598269150963,0,,,,,,,,,,,,,,,,,,,,,,1073,2019_Mar_14_1403,mf_amp_cond1,3.0.4,59.947089641886585,
papert,sgrawl,&&&&&&,None,nonword,,,,,,,0,217,217,217,,,,,,,,,,,,,,,,,,,,,AMP,right,0.3503042657498554,,,right,0,0.3503042657498554,0,,,,,,,,,,,,,,,,,,,,,,1073,2019_Mar_14_1403,mf_amp_cond1,3.0.4,59.947089641886585,
praised,honstables,&&&&&&&&&&,left,loyalty.virtue,,,,,,,0,218,218,218,,,,,,,,,,,,,,,,,,,,,AMP,right,0.7004061580539656,,,right,0,0.7004061580539656,0,,,,,,,,,,,,,,,,,,,,,,1073,2019_Mar_14_1403,mf_amp_cond1,3.0.4,59.947089641886585,
voter,leact,&&&&&,right,fairness.vice,,,,,,,0,219,219,219,,,,,,,,,,,,,,,,,,,,,AMP,right,0.33365800747787944,,,right,1,0.33365800747787944,1,,,,,,,,,,,,,,,,,,,,,,1073,2019_Mar_14_1403,mf_amp_cond1,3.0.4,59.947089641886585,
support,tislay,&&&&&&,left,loyalty.virtue,,,,,,,0,220,220,220,,,,,,,,,,,,,,,,,,,,,AMP,right,0.3669915760049207,,,right,0,0.3669915760049207,0,,,,,,,,,,,,,,,,,,,,,,1073,2019_Mar_14_1403,mf_amp_cond1,3.0.4,59.947089641886585,
praise,lempestuous,&&&&&&&&&&&,left,authority.virtue,,,,,,,0,221,221,221,,,,,,,,,,,,,,,,,,,,,AMP,right,0.5503768764444885,,,right,0,0.5503768764444885,0,,,,,,,,,,,,,,,,,,,,,,1073,2019_Mar_14_1403,mf_amp_cond1,3.0.4,59.947089641886585,
energy,suggists,&&&&&&&&,left,sanctity.virtue,,,,,,,0,222,222,222,,,,,,,,,,,,,,,,,,,,,AMP,right,0.4003665172331239,,,right,0,0.4003665172331239,0,,,,,,,,,,,,,,,,,,,,,,1073,2019_Mar_14_1403,mf_amp_cond1,3.0.4,59.947089641886585,
neputized,frojecting,&&&&&&&&&&,None,nonword,,,,,,,0,223,223,223,,,,,,,,,,,,,,,,,,,,,AMP,right,0.4170079647260536,,,right,0,0.4170079647260536,0,,,,,,,,,,,,,,,,,,,,,,1073,2019_Mar_14_1403,mf_amp_cond1,3.0.4,59.947089641886585,
restore,ejanulated,&&&&&&&&&&,left,care.virtue,,,,,,,0,224,224,224,,,,,,,,,,,,,,,,,,,,,AMP,right,0.617052993619609,,,right,0,0.617052993619609,0,,,,,,,,,,,,,,,,,,,,,,1073,2019_Mar_14_1403,mf_amp_cond1,3.0.4,59.947089641886585,
abuse,smapper,&&&&&&&,right,sanctity.vice,,,,,,,0,225,225,225,,,,,,,,,,,,,,,,,,,,,AMP,left,0.3169751872837878,,,left,0,0.3169751872837878,0,,,,,,,,,,,,,,,,,,,,,,1073,2019_Mar_14_1403,mf_amp_cond1,3.0.4,59.947089641886585,
gun,photocalkodes,&&&&&&&&&&&&&,right,authority.vice,,,,,,,0,226,226,226,,,,,,,,,,,,,,,,,,,,,AMP,left,0.4003376525577096,,,left,0,0.4003376525577096,0,,,,,,,,,,,,,,,,,,,,,,1073,2019_Mar_14_1403,mf_amp_cond1,3.0.4,59.947089641886585,
loyalty,Daptist,&&&&&&&,left,loyalty.virtue,,,,,,,0,227,227,227,,,,,,,,,,,,,,,,,,,,,AMP,left,0.46704231368971705,,,left,1,0.46704231368971705,1,,,,,,,,,,,,,,,,,,,,,,1073,2019_Mar_14_1403,mf_amp_cond1,3.0.4,59.947089641886585,
peace,lorthwhile,&&&&&&&&&&,left,care.virtue,,,,,,,0,228,228,228,,,,,,,,,,,,,,,,,,,,,AMP,right,0.33365640388478823,,,right,0,0.33365640388478823,0,,,,,,,,,,,,,,,,,,,,,,1073,2019_Mar_14_1403,mf_amp_cond1,3.0.4,59.947089641886585,
tabin,stindig,&&&&&&&,None,nonword,,,,,,,0,229,229,229,,,,,,,,,,,,,,,,,,,,,AMP,right,0.40035336776986696,,,right,0,0.40035336776986696,0,,,,,,,,,,,,,,,,,,,,,,1073,2019_Mar_14_1403,mf_amp_cond1,3.0.4,59.947089641886585,
credit,carvels,&&&&&&&,left,fairness.virtue,,,,,,,0,230,230,230,,,,,,,,,,,,,,,,,,,,,AMP,right,0.28364675025454744,,,right,0,0.28364675025454744,0,,,,,,,,,,,,,,,,,,,,,,1073,2019_Mar_14_1403,mf_amp_cond1,3.0.4,59.947089641886585,
troops,scock,&&&&&,right,loyalty.vice,,,,,,,0,231,231,231,,,,,,,,,,,,,,,,,,,,,AMP,left,0.26696745796493815,,,left,0,0.26696745796493815,0,,,,,,,,,,,,,,,,,,,,,,1073,2019_Mar_14_1403,mf_amp_cond1,3.0.4,59.947089641886585,
useful,aubos,&&&&&,left,authority.virtue,,,,,,,0,232,232,232,,,,,,,,,,,,,,,,,,,,,AMP,left,0.6337537740562311,,,left,1,0.6337537740562311,1,,,,,,,,,,,,,,,,,,,,,,1073,2019_Mar_14_1403,mf_amp_cond1,3.0.4,59.947089641886585,
charges,framo,&&&&&,right,fairness.vice,,,,,,,0,233,233,233,,,,,,,,,,,,,,,,,,,,,AMP,left,0.4503466647508958,,,left,0,0.4503466647508958,0,,,,,,,,,,,,,,,,,,,,,,1073,2019_Mar_14_1403,mf_amp_cond1,3.0.4,59.947089641886585,
freedom,erks,&&&&,left,sanctity.virtue,,,,,,,0,234,234,234,,,,,,,,,,,,,,,,,,,,,AMP,right,0.3503161323387758,,,right,0,0.3503161323387758,0,,,,,,,,,,,,,,,,,,,,,,1073,2019_Mar_14_1403,mf_amp_cond1,3.0.4,59.947089641886585,
encourage,counpy's,&&&&&&&&,left,authority.virtue,,,,,,,0,235,235,235,,,,,,,,,,,,,,,,,,,,,AMP,right,0.3669790679787184,,,right,0,0.3669790679787184,0,,,,,,,,,,,,,,,,,,,,,,1073,2019_Mar_14_1403,mf_amp_cond1,3.0.4,59.947089641886585,
serial,divility,&&&&&&&&,right,sanctity.vice,,,,,,,0,236,236,236,,,,,,,,,,,,,,,,,,,,,AMP,left,0.2503009944200585,,,left,0,0.2503009944200585,0,,,,,,,,,,,,,,,,,,,,,,1073,2019_Mar_14_1403,mf_amp_cond1,3.0.4,59.947089641886585,
conspiracy,clamorek,&&&&&&&&,right,sanctity.vice,,,,,,,0,237,237,237,,,,,,,,,,,,,,,,,,,,,AMP,left,0.41700539897715316,,,left,0,0.41700539897715316,0,,,,,,,,,,,,,,,,,,,,,,1073,2019_Mar_14_1403,mf_amp_cond1,3.0.4,59.947089641886585,
trust,idexpressible,&&&&&&&&&&&&&,left,authority.virtue,,,,,,,0,238,238,238,,,,,,,,,,,,,,,,,,,,,AMP,right,0.15024384236289734,,,right,0,0.15024384236289734,0,,,,,,,,,,,,,,,,,,,,,,1073,2019_Mar_14_1403,mf_amp_cond1,3.0.4,59.947089641886585,
celebrated,pharing,&&&&&&&,left,authority.virtue,,,,,,,0,239,239,239,,,,,,,,,,,,,,,,,,,,,AMP,right,0.7504119630609694,,,right,0,0.7504119630609694,0,,,,,,,,,,,,,,,,,,,,,,1073,2019_Mar_14_1403,mf_amp_cond1,3.0.4,59.947089641886585,
prosecution,nackers,&&&&&&&,right,authority.vice,,,,,,,0,240,240,240,,,,,,,,,,,,,,,,,,,,,AMP,left,0.38368562135065076,,,left,0,0.38368562135065076,0,,,,,,,,,,,,,,,,,,,,,,1073,2019_Mar_14_1403,mf_amp_cond1,3.0.4,59.947089641886585,
protect,spag,&&&&,left,fairness.virtue,,,,,,,0,241,241,241,,,,,,,,,,,,,,,,,,,,,AMP,right,0.7504180567145795,,,right,0,0.7504180567145795,0,,,,,,,,,,,,,,,,,,,,,,1073,2019_Mar_14_1403,mf_amp_cond1,3.0.4,59.947089641886585,
totalestic,chonograph,&&&&&&&&&&,None,nonword,,,,,,,0,242,242,242,,,,,,,,,,,,,,,,,,,,,AMP,left,0.43367474898946057,,,left,0,0.43367474898946057,0,,,,,,,,,,,,,,,,,,,,,,1073,2019_Mar_14_1403,mf_amp_cond1,3.0.4,59.947089641886585,
party,rivernoat,&&&&&&&&&,left,loyalty.virtue,,,,,,,0,243,243,243,,,,,,,,,,,,,,,,,,,,,AMP,right,0.45034281612743143,,,right,0,0.45034281612743143,0,,,,,,,,,,,,,,,,,,,,,,1073,2019_Mar_14_1403,mf_amp_cond1,3.0.4,59.947089641886585,
racist,godlaness,&&&&&&&&&,right,sanctity.vice,,,,,,,0,244,244,244,,,,,,,,,,,,,,,,,,,,,AMP,left,0.40033957686955546,,,left,0,0.40033957686955546,0,,,,,,,,,,,,,,,,,,,,,,1073,2019_Mar_14_1403,mf_amp_cond1,3.0.4,59.947089641886585,
strength,Oregoniuns,&&&&&&&&&&,left,sanctity.virtue,,,,,,,0,245,245,245,,,,,,,,,,,,,,,,,,,,,AMP,left,0.5837123692831483,,,left,1,0.5837123692831483,1,,,,,,,,,,,,,,,,,,,,,,1073,2019_Mar_14_1403,mf_amp_cond1,3.0.4,59.947089641886585,
trust,gaultless,&&&&&&&&&,left,authority.virtue,,,,,,,0,246,246,246,,,,,,,,,,,,,,,,,,,,,AMP,right,0.35032960252056,,,right,0,0.35032960252056,0,,,,,,,,,,,,,,,,,,,,,,1073,2019_Mar_14_1403,mf_amp_cond1,3.0.4,59.947089641886585,
army,Cunday,&&&&&&,right,loyalty.vice,,,,,,,0,247,247,247,,,,,,,,,,,,,,,,,,,,,AMP,right,0.5170394592939829,,,right,1,0.5170394592939829,1,,,,,,,,,,,,,,,,,,,,,,1073,2019_Mar_14_1403,mf_amp_cond1,3.0.4,59.947089641886585,
papert,ronviolence,&&&&&&&&&&&,None,nonword,,,,,,,0,248,248,248,,,,,,,,,,,,,,,,,,,,,AMP,right,0.3336506309497054,,,right,0,0.3336506309497054,0,,,,,,,,,,,,,,,,,,,,,,1073,2019_Mar_14_1403,mf_amp_cond1,3.0.4,59.947089641886585,
voter,framo,&&&&&,right,fairness.vice,,,,,,,0,249,249,249,,,,,,,,,,,,,,,,,,,,,AMP,right,0.6170725574552307,,,right,1,0.6170725574552307,1,,,,,,,,,,,,,,,,,,,,,,1073,2019_Mar_14_1403,mf_amp_cond1,3.0.4,59.947089641886585,
fighters,baklara,&&&&&&&,right,authority.vice,,,,,,,0,250,250,250,,,,,,,,,,,,,,,,,,,,,AMP,left,0.35032350886694985,,,left,0,0.35032350886694985,0,,,,,,,,,,,,,,,,,,,,,,1073,2019_Mar_14_1403,mf_amp_cond1,3.0.4,59.947089641886585,
charges,framatic,&&&&&&&&,right,fairness.vice,,,,,,,0,251,251,251,,,,,,,,,,,,,,,,,,,,,AMP,left,0.8004524056782429,,,left,0,0.8004524056782429,0,,,,,,,,,,,,,,,,,,,,,,1073,2019_Mar_14_1403,mf_amp_cond1,3.0.4,59.947089641886585,
black,pullness,&&&&&&&&,right,loyalty.vice,,,,,,,0,252,252,252,,,,,,,,,,,,,,,,,,,,,AMP,left,0.6337383795628284,,,left,0,0.6337383795628284,0,,,,,,,,,,,,,,,,,,,,,,1073,2019_Mar_14_1403,mf_amp_cond1,3.0.4,59.947089641886585,
unpleasant,godlaness,&&&&&&&&&,None,control,,,,,,,0,253,253,253,,,,,,,,,,,,,,,,,,,,,AMP,left,0.7004106481144845,,,left,0,0.7004106481144845,0,,,,,,,,,,,,,,,,,,,,,,1073,2019_Mar_14_1403,mf_amp_cond1,3.0.4,59.947089641886585,
injured,feleological,&&&&&&&&&&&&,right,care.vice,,,,,,,0,254,254,254,,,,,,,,,,,,,,,,,,,,,AMP,left,0.2836820293020992,,,left,0,0.2836820293020992,0,,,,,,,,,,,,,,,,,,,,,,1073,2019_Mar_14_1403,mf_amp_cond1,3.0.4,59.947089641886585,
refuejing,nackers,&&&&&&&,None,nonword,,,,,,,0,255,255,255,,,,,,,,,,,,,,,,,,,,,AMP,left,0.4003254652504893,,,left,0,0.4003254652504893,0,,,,,,,,,,,,,,,,,,,,,,1073,2019_Mar_14_1403,mf_amp_cond1,3.0.4,59.947089641886585,
rejected,vicissifude,&&&&&&&&&&&,right,authority.vice,,,,,,,0,256,256,256,,,,,,,,,,,,,,,,,,,,,AMP,left,0.4670192219493856,,,left,0,0.4670192219493856,0,,,,,,,,,,,,,,,,,,,,,,1073,2019_Mar_14_1403,mf_amp_cond1,3.0.4,59.947089641886585,
growth,erdest,&&&&&&,left,care.virtue,,,,,,,0,257,257,257,,,,,,,,,,,,,,,,,,,,,AMP,right,0.4336737868336513,,,right,0,0.4336737868336513,0,,,,,,,,,,,,,,,,,,,,,,1073,2019_Mar_14_1403,mf_amp_cond1,3.0.4,59.947089641886585,
sliptery,unreflectuve,&&&&&&&&&&&&,None,nonword,,,,,,,0,258,258,258,,,,,,,,,,,,,,,,,,,,,AMP,left,0.38365162517743556,,,left,0,0.38365162517743556,0,,,,,,,,,,,,,,,,,,,,,,1073,2019_Mar_14_1403,mf_amp_cond1,3.0.4,59.947089641886585,
safe,squets,&&&&&&,left,care.virtue,,,,,,,0,259,259,259,,,,,,,,,,,,,,,,,,,,,AMP,right,0.41702303850092903,,,right,0,0.41702303850092903,0,,,,,,,,,,,,,,,,,,,,,,1073,2019_Mar_14_1403,mf_amp_cond1,3.0.4,59.947089641886585,
loyalty,divility,&&&&&&&&,left,loyalty.virtue,,,,,,,0,260,260,260,,,,,,,,,,,,,,,,,,,,,AMP,right,0.45034025037875836,,,right,0,0.45034025037875836,0,,,,,,,,,,,,,,,,,,,,,,1073,2019_Mar_14_1403,mf_amp_cond1,3.0.4,59.947089641886585,
abuse,sickyay,&&&&&&&,right,sanctity.vice,,,,,,,0,261,261,261,,,,,,,,,,,,,,,,,,,,,AMP,left,0.23362811650304138,,,left,0,0.23362811650304138,0,,,,,,,,,,,,,,,,,,,,,,1073,2019_Mar_14_1403,mf_amp_cond1,3.0.4,59.947089641886585,
celebrated,pulge,&&&&&,left,authority.virtue,,,,,,,0,262,262,262,,,,,,,,,,,,,,,,,,,,,AMP,right,0.38367279260592113,,,right,0,0.38367279260592113,0,,,,,,,,,,,,,,,,,,,,,,1073,2019_Mar_14_1403,mf_amp_cond1,3.0.4,59.947089641886585,
tabin,chreams,&&&&&&&,None,nonword,,,,,,,0,263,263,263,,,,,,,,,,,,,,,,,,,,,AMP,right,0.7004135345821396,,,right,0,0.7004135345821396,0,,,,,,,,,,,,,,,,,,,,,,1073,2019_Mar_14_1403,mf_amp_cond1,3.0.4,59.947089641886585,
violence,counpy's,&&&&&&&&,right,care.vice,,,,,,,0,264,264,264,,,,,,,,,,,,,,,,,,,,,AMP,left,0.4336808426432981,,,left,0,0.4336808426432981,0,,,,,,,,,,,,,,,,,,,,,,1073,2019_Mar_14_1403,mf_amp_cond1,3.0.4,59.947089641886585,
ban,coom,&&&&,right,loyalty.vice,,,,,,,0,265,265,265,,,,,,,,,,,,,,,,,,,,,AMP,right,0.5837011441315099,,,right,1,0.5837011441315099,1,,,,,,,,,,,,,,,,,,,,,,1073,2019_Mar_14_1403,mf_amp_cond1,3.0.4,59.947089641886585,
protesters,Lacedonia,&&&&&&&&&,right,authority.vice,,,,,,,0,266,266,266,,,,,,,,,,,,,,,,,,,,,AMP,left,0.5503765557259612,,,left,0,0.5503765557259612,0,,,,,,,,,,,,,,,,,,,,,,1073,2019_Mar_14_1403,mf_amp_cond1,3.0.4,59.947089641886585,
friends,sgrawl,&&&&&&,left,loyalty.virtue,,,,,,,0,267,267,267,,,,,,,,,,,,,,,,,,,,,AMP,right,0.6003804364211192,,,right,0,0.6003804364211192,0,,,,,,,,,,,,,,,,,,,,,,1073,2019_Mar_14_1403,mf_amp_cond1,3.0.4,59.947089641886585,
totalestic,Daptist,&&&&&&&,None,nonword,,,,,,,0,268,268,268,,,,,,,,,,,,,,,,,,,,,AMP,right,0.61706421877102,,,right,0,0.61706421877102,0,,,,,,,,,,,,,,,,,,,,,,1073,2019_Mar_14_1403,mf_amp_cond1,3.0.4,59.947089641886585,
critics,Boeinf,&&&&&&,right,loyalty.vice,,,,,,,0,269,269,269,,,,,,,,,,,,,,,,,,,,,AMP,right,0.5003325852035232,,,right,1,0.5003325852035232,1,,,,,,,,,,,,,,,,,,,,,,1073,2019_Mar_14_1403,mf_amp_cond1,3.0.4,59.947089641886585,
racist,fegard,&&&&&&,right,sanctity.vice,,,,,,,0,270,270,270,,,,,,,,,,,,,,,,,,,,,AMP,left,0.3169838466862984,,,left,0,0.3169838466862984,0,,,,,,,,,,,,,,,,,,,,,,1073,2019_Mar_14_1403,mf_amp_cond1,3.0.4,59.947089641886585,
restore,scock,&&&&&,left,care.virtue,,,,,,,0,271,271,271,,,,,,,,,,,,,,,,,,,,,AMP,left,0.40032610668777124,,,left,1,0.40032610668777124,1,,,,,,,,,,,,,,,,,,,,,,1073,2019_Mar_14_1403,mf_amp_cond1,3.0.4,59.947089641886585,
fear,galamitous,&&&&&&&&&&,right,sanctity.vice,,,,,,,0,272,272,272,,,,,,,,,,,,,,,,,,,,,AMP,left,0.5003903145543518,,,left,0,0.5003903145543518,0,,,,,,,,,,,,,,,,,,,,,,1073,2019_Mar_14_1403,mf_amp_cond1,3.0.4,59.947089641886585,
strong,spag,&&&&,left,loyalty.virtue,,,,,,,0,273,273,273,,,,,,,,,,,,,,,,,,,,,AMP,right,0.3170082213009664,,,right,0,0.3170082213009664,0,,,,,,,,,,,,,,,,,,,,,,1073,2019_Mar_14_1403,mf_amp_cond1,3.0.4,59.947089641886585,
good,suggists,&&&&&&&&,left,care.virtue,,,,,,,0,274,274,274,,,,,,,,,,,,,,,,,,,,,AMP,right,0.21697255739104548,,,right,0,0.21697255739104548,0,,,,,,,,,,,,,,,,,,,,,,1073,2019_Mar_14_1403,mf_amp_cond1,3.0.4,59.947089641886585,
war,chonograph,&&&&&&&&&&,right,sanctity.vice,,,,,,,0,275,275,275,,,,,,,,,,,,,,,,,,,,,AMP,left,0.6837486746303512,,,left,0,0.6837486746303512,0,,,,,,,,,,,,,,,,,,,,,,1073,2019_Mar_14_1403,mf_amp_cond1,3.0.4,59.947089641886585,
respect,sidearbs,&&&&&&&&,left,sanctity.virtue,,,,,,,0,276,276,276,,,,,,,,,,,,,,,,,,,,,AMP,right,0.33363908507953965,,,right,0,0.33363908507953965,0,,,,,,,,,,,,,,,,,,,,,,1073,2019_Mar_14_1403,mf_amp_cond1,3.0.4,59.947089641886585,
shot,reelectiob,&&&&&&&&&&,right,care.vice,,,,,,,0,277,277,277,,,,,,,,,,,,,,,,,,,,,AMP,left,0.18361044490734457,,,left,0,0.18361044490734457,0,,,,,,,,,,,,,,,,,,,,,,1073,2019_Mar_14_1403,mf_amp_cond1,3.0.4,59.947089641886585,
protect,gikely,&&&&&&,left,fairness.virtue,,,,,,,0,278,278,278,,,,,,,,,,,,,,,,,,,,,AMP,right,0.4836831197453648,,,right,0,0.4836831197453648,0,,,,,,,,,,,,,,,,,,,,,,1073,2019_Mar_14_1403,mf_amp_cond1,3.0.4,59.947089641886585,
energy,epigrach,&&&&&&&&,left,sanctity.virtue,,,,,,,0,279,279,279,,,,,,,,,,,,,,,,,,,,,AMP,left,0.5670552065780612,,,left,1,0.5670552065780612,1,,,,,,,,,,,,,,,,,,,,,,1073,2019_Mar_14_1403,mf_amp_cond1,3.0.4,59.947089641886585,
ablow,juck,&&&&,None,nonword,,,,,,,0,280,280,280,,,,,,,,,,,,,,,,,,,,,AMP,left,0.5170182918654973,,,left,0,0.5170182918654973,0,,,,,,,,,,,,,,,,,,,,,,1073,2019_Mar_14_1403,mf_amp_cond1,3.0.4,59.947089641886585,
useful,fangsters,&&&&&&&&&,left,authority.virtue,,,,,,,0,281,281,281,,,,,,,,,,,,,,,,,,,,,AMP,right,0.21697319882832744,,,right,0,0.21697319882832744,0,,,,,,,,,,,,,,,,,,,,,,1073,2019_Mar_14_1403,mf_amp_cond1,3.0.4,59.947089641886585,
encourage,smapper,&&&&&&&,left,authority.virtue,,,,,,,0,282,282,282,,,,,,,,,,,,,,,,,,,,,AMP,right,0.5170263098309533,,,right,0,0.5170263098309533,0,,,,,,,,,,,,,,,,,,,,,,1073,2019_Mar_14_1403,mf_amp_cond1,3.0.4,59.947089641886585,
values,pafer,&&&&&,left,sanctity.virtue,,,,,,,0,283,283,283,,,,,,,,,,,,,,,,,,,,,AMP,right,0.2002810777942159,,,right,0,0.2002810777942159,0,,,,,,,,,,,,,,,,,,,,,,1073,2019_Mar_14_1403,mf_amp_cond1,3.0.4,59.947089641886585,
praised,frojecting,&&&&&&&&&&,left,loyalty.virtue,,,,,,,0,284,284,284,,,,,,,,,,,,,,,,,,,,,AMP,right,0.5003553562253273,,,right,0,0.5003553562253273,0,,,,,,,,,,,,,,,,,,,,,,1073,2019_Mar_14_1403,mf_amp_cond1,3.0.4,59.947089641886585,
hand,erks,&&&&,left,sanctity.virtue,,,,,,,0,285,285,285,,,,,,,,,,,,,,,,,,,,,AMP,right,0.23362555075414093,,,right,0,0.23362555075414093,0,,,,,,,,,,,,,,,,,,,,,,1073,2019_Mar_14_1403,mf_amp_cond1,3.0.4,59.947089641886585,
strength,gowlands,&&&&&&&&,left,sanctity.virtue,,,,,,,0,286,286,286,,,,,,,,,,,,,,,,,,,,,AMP,right,0.45035949349562543,,,right,0,0.45035949349562543,0,,,,,,,,,,,,,,,,,,,,,,1073,2019_Mar_14_1403,mf_amp_cond1,3.0.4,59.947089641886585,
prison,gationwide,&&&&&&&&&&,right,fairness.vice,,,,,,,0,287,287,287,,,,,,,,,,,,,,,,,,,,,AMP,left,0.25032376544186263,,,left,0,0.25032376544186263,0,,,,,,,,,,,,,,,,,,,,,,1073,2019_Mar_14_1403,mf_amp_cond1,3.0.4,59.947089641886585,
serial,alar,&&&&,right,sanctity.vice,,,,,,,0,288,288,288,,,,,,,,,,,,,,,,,,,,,AMP,left,0.3169761494393697,,,left,0,0.3169761494393697,0,,,,,,,,,,,,,,,,,,,,,,1073,2019_Mar_14_1403,mf_amp_cond1,3.0.4,59.947089641886585,
fraud,rorroborated,&&&&&&&&&&&&,right,fairness.vice,,,,,,,0,289,289,289,,,,,,,,,,,,,,,,,,,,,AMP,left,0.36699253816072996,,,left,0,0.36699253816072996,0,,,,,,,,,,,,,,,,,,,,,,1073,2019_Mar_14_1403,mf_amp_cond1,3.0.4,59.947089641886585,
crime,photocalkodes,&&&&&&&&&&&&&,right,fairness.vice,,,,,,,0,290,290,290,,,,,,,,,,,,,,,,,,,,,AMP,left,0.16695456507682138,,,left,0,0.16695456507682138,0,,,,,,,,,,,,,,,,,,,,,,1073,2019_Mar_14_1403,mf_amp_cond1,3.0.4,59.947089641886585,
civilians,Oregoniuns,&&&&&&&&&&,right,care.vice,,,,,,,0,291,291,291,,,,,,,,,,,,,,,,,,,,,AMP,right,0.3836609260172281,,,right,1,0.3836609260172281,1,,,,,,,,,,,,,,,,,,,,,,1073,2019_Mar_14_1403,mf_amp_cond1,3.0.4,59.947089641886585,
credit,clamorek,&&&&&&&&,left,fairness.virtue,,,,,,,0,292,292,292,,,,,,,,,,,,,,,,,,,,,AMP,left,0.40031584369194206,,,left,1,0.40031584369194206,1,,,,,,,,,,,,,,,,,,,,,,1073,2019_Mar_14_1403,mf_amp_cond1,3.0.4,59.947089641886585,
care,leact,&&&&&,left,care.virtue,,,,,,,0,293,293,293,,,,,,,,,,,,,,,,,,,,,AMP,left,0.45034730618817775,,,left,1,0.45034730618817775,1,,,,,,,,,,,,,,,,,,,,,,1073,2019_Mar_14_1403,mf_amp_cond1,3.0.4,59.947089641886585,
freedom,vurtain,&&&&&&&,left,sanctity.virtue,,,,,,,0,294,294,294,,,,,,,,,,,,,,,,,,,,,AMP,right,0.7504456385156573,,,right,0,0.7504456385156573,0,,,,,,,,,,,,,,,,,,,,,,1073,2019_Mar_14_1403,mf_amp_cond1,3.0.4,59.947089641886585,
accused,ejanulated,&&&&&&&&&&,right,fairness.vice,,,,,,,0,295,295,295,,,,,,,,,,,,,,,,,,,,,AMP,right,0.8004370111848402,,,right,1,0.8004370111848402,1,,,,,,,,,,,,,,,,,,,,,,1073,2019_Mar_14_1403,mf_amp_cond1,3.0.4,59.947089641886585,
peace,idexpressible,&&&&&&&&&&&&&,left,care.virtue,,,,,,,0,296,296,296,,,,,,,,,,,,,,,,,,,,,AMP,right,0.5170288755796264,,,right,0,0.5170288755796264,0,,,,,,,,,,,,,,,,,,,,,,1073,2019_Mar_14_1403,mf_amp_cond1,3.0.4,59.947089641886585,
interests,focomotive,&&&&&&&&&&,left,fairness.virtue,,,,,,,0,297,297,297,,,,,,,,,,,,,,,,,,,,,AMP,left,0.5503650098557955,,,left,1,0.5503650098557955,1,,,,,,,,,,,,,,,,,,,,,,1073,2019_Mar_14_1403,mf_amp_cond1,3.0.4,59.947089641886585,
agreement,shoirmaster,&&&&&&&&&&&,left,fairness.virtue,,,,,,,0,298,298,298,,,,,,,,,,,,,,,,,,,,,AMP,left,0.6004118668454339,,,left,1,0.6004118668454339,1,,,,,,,,,,,,,,,,,,,,,,1073,2019_Mar_14_1403,mf_amp_cond1,3.0.4,59.947089641886585,
penalty,grovelire,&&&&&&&&&,right,authority.vice,,,,,,,0,299,299,299,,,,,,,,,,,,,,,,,,,,,AMP,left,0.1669407741762825,,,left,0,0.1669407741762825,0,,,,,,,,,,,,,,,,,,,,,,1073,2019_Mar_14_1403,mf_amp_cond1,3.0.4,59.947089641886585,
benefit,honstables,&&&&&&&&&&,left,fairness.virtue,,,,,,,0,300,300,300,,,,,,,,,,,,,,,,,,,,,AMP,right,0.15027944212920374,,,right,0,0.15027944212920374,0,,,,,,,,,,,,,,,,,,,,,,1073,2019_Mar_14_1403,mf_amp_cond1,3.0.4,59.947089641886585,
pleasant,aubos,&&&&&,None,control,,,,,,,0,301,301,301,,,,,,,,,,,,,,,,,,,,,AMP,right,0.3169892989026266,,,right,0,0.3169892989026266,0,,,,,,,,,,,,,,,,,,,,,,1073,2019_Mar_14_1403,mf_amp_cond1,3.0.4,59.947089641886585,
neputized,disregord,&&&&&&&&&,None,nonword,,,,,,,0,302,302,302,,,,,,,,,,,,,,,,,,,,,AMP,left,0.30032251463921966,,,left,0,0.30032251463921966,0,,,,,,,,,,,,,,,,,,,,,,1073,2019_Mar_14_1403,mf_amp_cond1,3.0.4,59.947089641886585,
refused,lachelor,&&&&&&&&,right,authority.vice,,,,,,,0,303,303,303,,,,,,,,,,,,,,,,,,,,,AMP,left,0.3503106801224476,,,left,0,0.3503106801224476,0,,,,,,,,,,,,,,,,,,,,,,1073,2019_Mar_14_1403,mf_amp_cond1,3.0.4,59.947089641886585,
troops,infet,&&&&&,right,loyalty.vice,,,,,,,0,304,304,304,,,,,,,,,,,,,,,,,,,,,AMP,right,0.2836319971981993,,,right,1,0.2836319971981993,1,,,,,,,,,,,,,,,,,,,,,,1073,2019_Mar_14_1403,mf_amp_cond1,3.0.4,59.947089641886585,
victims,lempestuous,&&&&&&&&&&&,right,care.vice,,,,,,,0,305,305,305,,,,,,,,,,,,,,,,,,,,,AMP,left,0.28362782785620766,,,left,0,0.28362782785620766,0,,,,,,,,,,,,,,,,,,,,,,1073,2019_Mar_14_1403,mf_amp_cond1,3.0.4,59.947089641886585,
attacks,strofe,&&&&&&,right,care.vice,,,,,,,0,306,306,306,,,,,,,,,,,,,,,,,,,,,AMP,right,0.7004074409285295,,,right,1,0.7004074409285295,1,,,,,,,,,,,,,,,,,,,,,,1073,2019_Mar_14_1403,mf_amp_cond1,3.0.4,59.947089641886585,
party,mightingale,&&&&&&&&&&&,left,loyalty.virtue,,,,,,,0,307,307,307,,,,,,,,,,,,,,,,,,,,,AMP,right,0.4836837611826468,,,right,0,0.4836837611826468,0,,,,,,,,,,,,,,,,,,,,,,1073,2019_Mar_14_1403,mf_amp_cond1,3.0.4,59.947089641886585,
ability,stindig,&&&&&&&,left,authority.virtue,,,,,,,0,308,308,308,,,,,,,,,,,,,,,,,,,,,AMP,left,0.45034570259508655,,,left,1,0.45034570259508655,1,,,,,,,,,,,,,,,,,,,,,,1073,2019_Mar_14_1403,mf_amp_cond1,3.0.4,59.947089641886585,
win,gedious,&&&&&&&,left,fairness.virtue,,,,,,,0,309,309,309,,,,,,,,,,,,,,,,,,,,,AMP,right,0.36698933097454756,,,right,0,0.36698933097454756,0,,,,,,,,,,,,,,,,,,,,,,1073,2019_Mar_14_1403,mf_amp_cond1,3.0.4,59.947089641886585,
ilportation,neutralust,&&&&&&&&&&,None,nonword,,,,,,,0,310,310,310,,,,,,,,,,,,,,,,,,,,,AMP,left,0.5170375349823644,,,left,0,0.5170375349823644,0,,,,,,,,,,,,,,,,,,,,,,1073,2019_Mar_14_1403,mf_amp_cond1,3.0.4,59.947089641886585,
brotesque,lenon,&&&&&,None,nonword,,,,,,,0,311,311,311,,,,,,,,,,,,,,,,,,,,,AMP,left,0.6170568422430733,,,left,0,0.6170568422430733,0,,,,,,,,,,,,,,,,,,,,,,1073,2019_Mar_14_1403,mf_amp_cond1,3.0.4,59.947089641886585,
forced,asn,&&&,right,fairness.vice,,,,,,,0,312,312,312,,,,,,,,,,,,,,,,,,,,,AMP,left,0.3670294208013729,,,left,0,0.3670294208013729,0,,,,,,,,,,,,,,,,,,,,,,1073,2019_Mar_14_1403,mf_amp_cond1,3.0.4,59.947089641886585,
perfect,tislay,&&&&&&,left,sanctity.virtue,,,,,,,0,313,313,313,,,,,,,,,,,,,,,,,,,,,AMP,right,0.2669716273071572,,,right,0,0.2669716273071572,0,,,,,,,,,,,,,,,,,,,,,,1073,2019_Mar_14_1403,mf_amp_cond1,3.0.4,59.947089641886585,
hope,brudent,&&&&&&&,left,loyalty.virtue,,,,,,,0,314,314,314,,,,,,,,,,,,,,,,,,,,,AMP,right,0.033434594890877634,,,right,0,0.033434594890877634,0,,,,,,,,,,,,,,,,,,,,,,1073,2019_Mar_14_1403,mf_amp_cond1,3.0.4,59.947089641886585,
conspiracy,fostet,&&&&&&,right,sanctity.vice,,,,,,,0,315,315,315,,,,,,,,,,,,,,,,,,,,,AMP,left,0.41700860616333557,,,left,0,0.41700860616333557,0,,,,,,,,,,,,,,,,,,,,,,1073,2019_Mar_14_1403,mf_amp_cond1,3.0.4,59.947089641886585,
prosecution,pharing,&&&&&&&,right,authority.vice,,,,,,,0,316,316,316,,,,,,,,,,,,,,,,,,,,,AMP,right,0.48354970080163184,,,right,1,0.48354970080163184,1,,,,,,,,,,,,,,,,,,,,,,1073,2019_Mar_14_1403,mf_amp_cond1,3.0.4,59.947089641886585,
chadows,wonderfujnoss,&&&&&&&&&&&&&,None,nonword,,,,,,,0,317,317,317,,,,,,,,,,,,,,,,,,,,,AMP,left,0.4503360810365393,,,left,0,0.4503360810365393,0,,,,,,,,,,,,,,,,,,,,,,1073,2019_Mar_14_1403,mf_amp_cond1,3.0.4,59.947089641886585,
gun,clattening,&&&&&&&&&&,right,authority.vice,,,,,,,0,318,318,318,,,,,,,,,,,,,,,,,,,,,AMP,left,0.30031417595523635,,,left,0,0.30031417595523635,0,,,,,,,,,,,,,,,,,,,,,,1073,2019_Mar_14_1403,mf_amp_cond1,3.0.4,59.947089641886585,
honored,iptervention,&&&&&&&&&&&&,left,authority.virtue,,,,,,,0,319,319,319,,,,,,,,,,,,,,,,,,,,,AMP,right,0.4836908169920662,,,right,0,0.4836908169920662,0,,,,,,,,,,,,,,,,,,,,,,1073,2019_Mar_14_1403,mf_amp_cond1,3.0.4,59.947089641886585,
groups,sonvoy,&&&&&&,right,loyalty.vice,,,,,,,0,320,320,320,,,,,,,,,,,,,,,,,,,,,AMP,right,0.6670873425832724,,,right,1,0.6670873425832724,1,,,,,,,,,,,,,,,,,,,,,,1073,2019_Mar_14_1403,mf_amp_cond1,3.0.4,59.947089641886585,
slavery,lorthwhile,&&&&&&&&&&,right,loyalty.vice,,,,,,,0,321,321,321,,,,,,,,,,,,,,,,,,,,,AMP,left,0.40034310477426516,,,left,0,0.40034310477426516,0,,,,,,,,,,,,,,,,,,,,,,1073,2019_Mar_14_1403,mf_amp_cond1,3.0.4,59.947089641886585,
praise,blunderints,&&&&&&&&&&&,left,authority.virtue,,,,,,,0,322,322,322,,,,,,,,,,,,,,,,,,,,,AMP,left,0.8004382940591768,,,left,1,0.8004382940591768,1,,,,,,,,,,,,,,,,,,,,,,1073,2019_Mar_14_1403,mf_amp_cond1,3.0.4,59.947089641886585,
support,rivernoat,&&&&&&&&&,left,loyalty.virtue,,,,,,,0,323,323,323,,,,,,,,,,,,,,,,,,,,,AMP,right,0.3336894379021942,,,right,0,0.3336894379021942,0,,,,,,,,,,,,,,,,,,,,,,1073,2019_Mar_14_1403,mf_amp_cond1,3.0.4,59.947089641886585,
suicide,gazily,&&&&&&,right,care.vice,,,,,,,0,324,324,324,,,,,,,,,,,,,,,,,,,,,AMP,left,0.3169963547122734,,,left,0,0.3169963547122734,0,,,,,,,,,,,,,,,,,,,,,,1073,2019_Mar_14_1403,mf_amp_cond1,3.0.4,59.947089641886585,
safety,emports,&&&&&&&,left,care.virtue,,,,,,,0,325,325,325,,,,,,,,,,,,,,,,,,,,,AMP,right,0.36700664977956876,,,right,0,0.36700664977956876,0,,,,,,,,,,,,,,,,,,,,,,1073,2019_Mar_14_1403,mf_amp_cond1,3.0.4,59.947089641886585,
ensure,antral,&&&&&&,left,fairness.virtue,,,,,,,0,326,326,326,,,,,,,,,,,,,,,,,,,,,AMP,left,0.8671079968621598,,,left,1,0.8671079968621598,1,,,,,,,,,,,,,,,,,,,,,,1073,2019_Mar_14_1403,mf_amp_cond1,3.0.4,59.947089641886585,
drug,carvels,&&&&&&&,right,sanctity.vice,,,,,,,0,327,327,327,,,,,,,,,,,,,,,,,,,,,AMP,left,0.35034050695344376,,,left,0,0.35034050695344376,0,,,,,,,,,,,,,,,,,,,,,,1073,2019_Mar_14_1403,mf_amp_cond1,3.0.4,59.947089641886585,
,,,,,,,,,,,,,,,,,,,,,,,,,,,,,,,,,,,,,,,,,,,,4,7.454,,,,,,,,,,,,,,,,,,,,1073,2019_Mar_14_1403,mf_amp_cond1,3.0.4,59.947089641886585,
,,,,,,,,,,,,,,,,,,,,,,,,,,,,,,,,,,,,,,,,,,,,,,6,10.86,,,,,,,,,,,,,,,,,,1073,2019_Mar_14_1403,mf_amp_cond1,3.0.4,59.947089641886585,
,,,,,,,,,,,,,,,,,,,,,,,,,,,,,,,,,,,,,,,,,,,,,,,,4,4.286,,,,,,,,,,,,,,,,1073,2019_Mar_14_1403,mf_amp_cond1,3.0.4,59.947089641886585,
,,,,,,,,,,,,,,,,,,,,,,,,,,,,,,,,,,,,,,,,,,,,,,,,,,right,1.200562027300748,,,,,,,,,,,,,,1073,2019_Mar_14_1403,mf_amp_cond1,3.0.4,59.947089641886585,
bisebell,,&&&&&&&,,,,,,,,,,,,,0,0,0,1,,,,,,,,,,,,,,,,,LDT_prac,right,0.850434156789106,,,,,,0,,,,,,,,,right,0.850434156789106,,,,,,,,,,,,1073,2019_Mar_14_1403,mf_amp_cond1,3.0.4,59.947089641886585,
keyboard,,&&&&&&&,,,,,,,,,,,,,0,1,1,0,,,,,,,,,,,,,,,,,LDT_prac,right,0.667080286773853,,,,,,0,,,,,,,,,right,0.667080286773853,,,,,,,,,,,,1073,2019_Mar_14_1403,mf_amp_cond1,3.0.4,59.947089641886585,
,,,,,,,,,,,,,,,,,,,,,,,,,,,,,,,,,,,,,,,,,,,,,,,,,,,,,,right,0.9837950505420849,,,,,,,,,,1073,2019_Mar_14_1403,mf_amp_cond1,3.0.4,59.947089641886585,
violations,,&&&&&&&&&&,left,sanctity.vice,,,,,,,,,,,,,,,0,0,0,171,,,,,,,,,,,,,LDT,left,1.2505550035632496,,,,,,1,,,,,,,,,,,,,left,1,1.2505550035632496,,,,,,,1073,2019_Mar_14_1403,mf_amp_cond1,3.0.4,59.947089641886585,
troubla,,&&&&&&&,right,nonword,,,,,,,,,,,,,,,0,1,1,112,,,,,,,,,,,,,LDT,left,0.9171388179208861,,,,,,0,,,,,,,,,,,,,left,0,0.9171388179208861,,,,,,,1073,2019_Mar_14_1403,mf_amp_cond1,3.0.4,59.947089641886585,
Loorish,,&&&&&&&,right,nonword,,,,,,,,,,,,,,,0,2,2,38,,,,,,,,,,,,,LDT,left,0.6170629358966835,,,,,,0,,,,,,,,,,,,,left,0,0.6170629358966835,,,,,,,1073,2019_Mar_14_1403,mf_amp_cond1,3.0.4,59.947089641886585,
dramens,,&&&&&&&,right,nonword,,,,,,,,,,,,,,,0,3,3,111,,,,,,,,,,,,,LDT,right,0.6170372784074516,,,,,,1,,,,,,,,,,,,,right,1,0.6170372784074516,,,,,,,1073,2019_Mar_14_1403,mf_amp_cond1,3.0.4,59.947089641886585,
gusinesslike,,&&&&&&&&&&&&,right,nonword,,,,,,,,,,,,,,,0,4,4,27,,,,,,,,,,,,,LDT,left,0.533756917098799,,,,,,0,,,,,,,,,,,,,left,0,0.533756917098799,,,,,,,1073,2019_Mar_14_1403,mf_amp_cond1,3.0.4,59.947089641886585,
health,,&&&&&&,left,care.virtue,,,,,,,,,,,,,,,0,5,5,188,,,,,,,,,,,,,LDT,right,0.5003617705976922,,,,,,0,,,,,,,,,,,,,right,0,0.5003617705976922,,,,,,,1073,2019_Mar_14_1403,mf_amp_cond1,3.0.4,59.947089641886585,
compassion,,&&&&&&&&&&,left,care.virtue,,,,,,,,,,,,,,,0,6,6,92,,,,,,,,,,,,,LDT,left,0.9838203873127895,,,,,,1,,,,,,,,,,,,,left,1,0.9838203873127895,,,,,,,1073,2019_Mar_14_1403,mf_amp_cond1,3.0.4,59.947089641886585,
with,,&&&&,left,neutral,,,,,,,,,,,,,,,0,7,7,2,,,,,,,,,,,,,LDT,right,0.5003717128747667,,,,,,0,,,,,,,,,,,,,right,0,0.5003717128747667,,,,,,,1073,2019_Mar_14_1403,mf_amp_cond1,3.0.4,59.947089641886585,
taxpayung,,&&&&&&&&&,right,nonword,,,,,,,,,,,,,,,0,8,8,168,,,,,,,,,,,,,LDT,left,0.5503804043491982,,,,,,0,,,,,,,,,,,,,left,0,0.5503804043491982,,,,,,,1073,2019_Mar_14_1403,mf_amp_cond1,3.0.4,59.947089641886585,
love,,&&&&,left,loyalty.virtue,,,,,,,,,,,,,,,0,9,9,15,,,,,,,,,,,,,LDT,right,0.500351507601863,,,,,,0,,,,,,,,,,,,,right,0,0.500351507601863,,,,,,,1073,2019_Mar_14_1403,mf_amp_cond1,3.0.4,59.947089641886585,
latter,,&&&&&&,left,neutral,,,,,,,,,,,,,,,0,10,10,65,,,,,,,,,,,,,LDT,left,1.0171497864976118,,,,,,1,,,,,,,,,,,,,left,1,1.0171497864976118,,,,,,,1073,2019_Mar_14_1403,mf_amp_cond1,3.0.4,59.947089641886585,
faith,,&&&&&,left,sanctity.virtue,,,,,,,,,,,,,,,0,11,11,31,,,,,,,,,,,,,LDT,right,0.667071627371115,,,,,,0,,,,,,,,,,,,,right,0,0.667071627371115,,,,,,,1073,2019_Mar_14_1403,mf_amp_cond1,3.0.4,59.947089641886585,
mostly,,&&&&&&,left,neutral,,,,,,,,,,,,,,,0,12,12,83,,,,,,,,,,,,,LDT,left,0.6670895876136456,,,,,,1,,,,,,,,,,,,,left,1,0.6670895876136456,,,,,,,1073,2019_Mar_14_1403,mf_amp_cond1,3.0.4,59.947089641886585,
drumbled,,&&&&&&&&,right,nonword,,,,,,,,,,,,,,,0,13,13,16,,,,,,,,,,,,,LDT,left,0.9338142615872584,,,,,,0,,,,,,,,,,,,,left,0,0.9338142615872584,,,,,,,1073,2019_Mar_14_1403,mf_amp_cond1,3.0.4,59.947089641886585,
powerful,,&&&&&&&&,left,authority.virtue,,,,,,,,,,,,,,,0,14,14,55,,,,,,,,,,,,,LDT,right,0.6170622944594015,,,,,,0,,,,,,,,,,,,,right,0,0.6170622944594015,,,,,,,1073,2019_Mar_14_1403,mf_amp_cond1,3.0.4,59.947089641886585,
victim,,&&&&&&,left,care.vice,,,,,,,,,,,,,,,0,15,15,145,,,,,,,,,,,,,LDT,right,0.6170645394897747,,,,,,0,,,,,,,,,,,,,right,0,0.6170645394897747,,,,,,,1073,2019_Mar_14_1403,mf_amp_cond1,3.0.4,59.947089641886585,
metibolic,,&&&&&&&&&,right,nonword,,,,,,,,,,,,,,,0,16,16,90,,,,,,,,,,,,,LDT,left,0.900462412098932,,,,,,0,,,,,,,,,,,,,left,0,0.900462412098932,,,,,,,1073,2019_Mar_14_1403,mf_amp_cond1,3.0.4,59.947089641886585,
slending,,&&&&&&&&,right,nonword,,,,,,,,,,,,,,,0,17,17,136,,,,,,,,,,,,,LDT,left,0.6670873425832724,,,,,,0,,,,,,,,,,,,,left,0,0.6670873425832724,,,,,,,1073,2019_Mar_14_1403,mf_amp_cond1,3.0.4,59.947089641886585,
latterly,,&&&&&&&&,left,neutral,,,,,,,,,,,,,,,0,18,18,69,,,,,,,,,,,,,LDT,left,0.9004691471898241,,,,,,1,,,,,,,,,,,,,left,1,0.9004691471898241,,,,,,,1073,2019_Mar_14_1403,mf_amp_cond1,3.0.4,59.947089641886585,
died,,&&&&,left,care.vice,,,,,,,,,,,,,,,0,19,19,84,,,,,,,,,,,,,LDT,right,0.7170703765684721,,,,,,0,,,,,,,,,,,,,right,0,0.7170703765684721,,,,,,,1073,2019_Mar_14_1403,mf_amp_cond1,3.0.4,59.947089641886585,
illegal,,&&&&&&&,left,fairness.vice,,,,,,,,,,,,,,,0,20,20,173,,,,,,,,,,,,,LDT,right,0.583712048564621,,,,,,0,,,,,,,,,,,,,right,0,0.583712048564621,,,,,,,1073,2019_Mar_14_1403,mf_amp_cond1,3.0.4,59.947089641886585,
scalbel,,&&&&&&&,right,nonword,,,,,,,,,,,,,,,0,21,21,5,,,,,,,,,,,,,LDT,right,0.7837727926701064,,,,,,1,,,,,,,,,,,,,right,1,0.7837727926701064,,,,,,,1073,2019_Mar_14_1403,mf_amp_cond1,3.0.4,59.947089641886585,
increase,,&&&&&&&&,left,care.virtue,,,,,,,,,,,,,,,0,22,22,199,,,,,,,,,,,,,LDT,right,0.6837499575049151,,,,,,0,,,,,,,,,,,,,right,0,0.6837499575049151,,,,,,,1073,2019_Mar_14_1403,mf_amp_cond1,3.0.4,59.947089641886585,
hatigue,,&&&&&&&,right,nonword,,,,,,,,,,,,,,,0,23,23,196,,,,,,,,,,,,,LDT,left,0.9171285549255117,,,,,,0,,,,,,,,,,,,,left,0,0.9171285549255117,,,,,,,1073,2019_Mar_14_1403,mf_amp_cond1,3.0.4,59.947089641886585,
everything,,&&&&&&&&&&,left,neutral,,,,,,,,,,,,,,,0,24,24,33,,,,,,,,,,,,,LDT,right,0.550282264453017,,,,,,0,,,,,,,,,,,,,right,0,0.550282264453017,,,,,,,1073,2019_Mar_14_1403,mf_amp_cond1,3.0.4,59.947089641886585,
amount,,&&&&&&,left,neutral,,,,,,,,,,,,,,,0,25,25,49,,,,,,,,,,,,,LDT,right,0.6503836756789951,,,,,,0,,,,,,,,,,,,,right,0,0.6503836756789951,,,,,,,1073,2019_Mar_14_1403,mf_amp_cond1,3.0.4,59.947089641886585,
officers,,&&&&&&&&,left,authority.vice,,,,,,,,,,,,,,,0,26,26,114,,,,,,,,,,,,,LDT,right,0.5837126900016756,,,,,,0,,,,,,,,,,,,,right,0,0.5837126900016756,,,,,,,1073,2019_Mar_14_1403,mf_amp_cond1,3.0.4,59.947089641886585,
abointment,,&&&&&&&&&&,right,nonword,,,,,,,,,,,,,,,0,27,27,25,,,,,,,,,,,,,LDT,right,0.700412893145085,,,,,,1,,,,,,,,,,,,,right,1,0.700412893145085,,,,,,,1073,2019_Mar_14_1403,mf_amp_cond1,3.0.4,59.947089641886585,
forty,,&&&&&,left,neutral,,,,,,,,,,,,,,,0,28,28,89,,,,,,,,,,,,,LDT,left,0.5670398120844311,,,,,,1,,,,,,,,,,,,,left,1,0.5670398120844311,,,,,,,1073,2019_Mar_14_1403,mf_amp_cond1,3.0.4,59.947089641886585,
death,,&&&&&,left,care.vice,,,,,,,,,,,,,,,0,29,29,197,,,,,,,,,,,,,LDT,right,0.5670519993918788,,,,,,0,,,,,,,,,,,,,right,0,0.5670519993918788,,,,,,,1073,2019_Mar_14_1403,mf_amp_cond1,3.0.4,59.947089641886585,
progress,,&&&&&&&&,left,authority.virtue,,,,,,,,,,,,,,,0,30,30,6,,,,,,,,,,,,,LDT,right,0.7836175648603785,,,,,,0,,,,,,,,,,,,,right,0,0.7836175648603785,,,,,,,1073,2019_Mar_14_1403,mf_amp_cond1,3.0.4,59.947089641886585,
imebreaker,,&&&&&&&&&&,right,nonword,,,,,,,,,,,,,,,0,31,31,153,,,,,,,,,,,,,LDT,left,0.8337680139627537,,,,,,0,,,,,,,,,,,,,left,0,0.8337680139627537,,,,,,,1073,2019_Mar_14_1403,mf_amp_cond1,3.0.4,59.947089641886585,
rebels,,&&&&&&,left,authority.vice,,,,,,,,,,,,,,,0,32,32,103,,,,,,,,,,,,,LDT,right,0.5503723863839696,,,,,,0,,,,,,,,,,,,,right,0,0.5503723863839696,,,,,,,1073,2019_Mar_14_1403,mf_amp_cond1,3.0.4,59.947089641886585,
somehow,,&&&&&&&,left,neutral,,,,,,,,,,,,,,,0,33,33,7,,,,,,,,,,,,,LDT,right,0.5336979048736339,,,,,,0,,,,,,,,,,,,,right,0,0.5336979048736339,,,,,,,1073,2019_Mar_14_1403,mf_amp_cond1,3.0.4,59.947089641886585,
peaceful,,&&&&&&&&,left,authority.virtue,,,,,,,,,,,,,,,0,34,34,127,,,,,,,,,,,,,LDT,right,0.5003438103551616,,,,,,0,,,,,,,,,,,,,right,0,0.5003438103551616,,,,,,,1073,2019_Mar_14_1403,mf_amp_cond1,3.0.4,59.947089641886585,
quarterbocks,,&&&&&&&&&&&&,right,nonword,,,,,,,,,,,,,,,0,35,35,150,,,,,,,,,,,,,LDT,left,0.567041736396277,,,,,,0,,,,,,,,,,,,,left,0,0.567041736396277,,,,,,,1073,2019_Mar_14_1403,mf_amp_cond1,3.0.4,59.947089641886585,
toward,,&&&&&&,left,neutral,,,,,,,,,,,,,,,0,36,36,151,,,,,,,,,,,,,LDT,right,0.5836815802958881,,,,,,0,,,,,,,,,,,,,right,0,0.5836815802958881,,,,,,,1073,2019_Mar_14_1403,mf_amp_cond1,3.0.4,59.947089641886585,
embrace,,&&&&&&&,left,authority.virtue,,,,,,,,,,,,,,,0,37,37,175,,,,,,,,,,,,,LDT,right,0.6337245886622895,,,,,,0,,,,,,,,,,,,,right,0,0.6337245886622895,,,,,,,1073,2019_Mar_14_1403,mf_amp_cond1,3.0.4,59.947089641886585,
promised,,&&&&&&&&,left,loyalty.virtue,,,,,,,,,,,,,,,0,38,38,99,,,,,,,,,,,,,LDT,right,0.500399936112899,,,,,,0,,,,,,,,,,,,,right,0,0.500399936112899,,,,,,,1073,2019_Mar_14_1403,mf_amp_cond1,3.0.4,59.947089641886585,
scandal,,&&&&&&&,left,sanctity.vice,,,,,,,,,,,,,,,0,39,39,71,,,,,,,,,,,,,LDT,right,0.5837752301315504,,,,,,0,,,,,,,,,,,,,right,0,0.5837752301315504,,,,,,,1073,2019_Mar_14_1403,mf_amp_cond1,3.0.4,59.947089641886585,
supervuned,,&&&&&&&&&&,right,nonword,,,,,,,,,,,,,,,0,40,40,17,,,,,,,,,,,,,LDT,left,0.5336866797219955,,,,,,0,,,,,,,,,,,,,left,0,0.5336866797219955,,,,,,,1073,2019_Mar_14_1403,mf_amp_cond1,3.0.4,59.947089641886585,
riot,,&&&&,left,authority.vice,,,,,,,,,,,,,,,0,41,41,14,,,,,,,,,,,,,LDT,right,1.1005244390792086,,,,,,0,,,,,,,,,,,,,right,0,1.1005244390792086,,,,,,,1073,2019_Mar_14_1403,mf_amp_cond1,3.0.4,59.947089641886585,
openet,,&&&&&&,None,nonword,,,,,,,,,,,,,,,0,42,42,64,,,,,,,,,,,,,LDT,left,0.767098311159998,,,,,,0,,,,,,,,,,,,,left,0,0.767098311159998,,,,,,,1073,2019_Mar_14_1403,mf_amp_cond1,3.0.4,59.947089641886585,
reviked,,&&&&&&&,right,nonword,,,,,,,,,,,,,,,0,43,43,165,,,,,,,,,,,,,LDT,left,0.567049112924451,,,,,,0,,,,,,,,,,,,,left,0,0.567049112924451,,,,,,,1073,2019_Mar_14_1403,mf_amp_cond1,3.0.4,59.947089641886585,
actively,,&&&&&&&&,left,authority.virtue,,,,,,,,,,,,,,,0,44,44,183,,,,,,,,,,,,,LDT,right,0.46701152470268426,,,,,,0,,,,,,,,,,,,,right,0,0.46701152470268426,,,,,,,1073,2019_Mar_14_1403,mf_amp_cond1,3.0.4,59.947089641886585,
edancipation,,&&&&&&&&&&&&,None,nonword,,,,,,,,,,,,,,,0,45,45,137,,,,,,,,,,,,,LDT,right,0.5003598462860737,,,,,,0,,,,,,,,,,,,,right,0,0.5003598462860737,,,,,,,1073,2019_Mar_14_1403,mf_amp_cond1,3.0.4,59.947089641886585,
crilfully,,&&&&&&&&&,right,nonword,,,,,,,,,,,,,,,0,46,46,34,,,,,,,,,,,,,LDT,right,0.8004424634011684,,,,,,1,,,,,,,,,,,,,right,1,0.8004424634011684,,,,,,,1073,2019_Mar_14_1403,mf_amp_cond1,3.0.4,59.947089641886585,
promote,,&&&&&&&,left,sanctity.virtue,,,,,,,,,,,,,,,0,47,47,169,,,,,,,,,,,,,LDT,right,0.5503826493795714,,,,,,0,,,,,,,,,,,,,right,0,0.5503826493795714,,,,,,,1073,2019_Mar_14_1403,mf_amp_cond1,3.0.4,59.947089641886585,
festate,,&&&&&&&,right,nonword,,,,,,,,,,,,,,,0,48,48,4,,,,,,,,,,,,,LDT,right,0.5504131176478495,,,,,,1,,,,,,,,,,,,,right,1,0.5504131176478495,,,,,,,1073,2019_Mar_14_1403,mf_amp_cond1,3.0.4,59.947089641886585,
seachwear,,&&&&&&&&&,right,nonword,,,,,,,,,,,,,,,0,49,49,26,,,,,,,,,,,,,LDT,right,0.4670221084170407,,,,,,1,,,,,,,,,,,,,right,1,0.4670221084170407,,,,,,,1073,2019_Mar_14_1403,mf_amp_cond1,3.0.4,59.947089641886585,
men,,&&&,left,loyalty.vice,,,,,,,,,,,,,,,0,50,50,160,,,,,,,,,,,,,LDT,right,0.5837210286858863,,,,,,0,,,,,,,,,,,,,right,0,0.5837210286858863,,,,,,,1073,2019_Mar_14_1403,mf_amp_cond1,3.0.4,59.947089641886585,
integrity,,&&&&&&&&&,left,fairness.virtue,,,,,,,,,,,,,,,0,51,51,56,,,,,,,,,,,,,LDT,right,0.5670507165175422,,,,,,0,,,,,,,,,,,,,right,0,0.5670507165175422,,,,,,,1073,2019_Mar_14_1403,mf_amp_cond1,3.0.4,59.947089641886585,
fonderland,,&&&&&&&&&&,right,nonword,,,,,,,,,,,,,,,0,52,52,167,,,,,,,,,,,,,LDT,left,0.41700058819787955,,,,,,0,,,,,,,,,,,,,left,0,0.41700058819787955,,,,,,,1073,2019_Mar_14_1403,mf_amp_cond1,3.0.4,59.947089641886585,
fifteen,,&&&&&&&,left,neutral,,,,,,,,,,,,,,,0,53,53,134,,,,,,,,,,,,,LDT,left,0.6170754439226585,,,,,,1,,,,,,,,,,,,,left,1,0.6170754439226585,,,,,,,1073,2019_Mar_14_1403,mf_amp_cond1,3.0.4,59.947089641886585,
elduringly,,&&&&&&&&&&,right,nonword,,,,,,,,,,,,,,,0,54,54,116,,,,,,,,,,,,,LDT,right,0.533707847150481,,,,,,1,,,,,,,,,,,,,right,1,0.533707847150481,,,,,,,1073,2019_Mar_14_1403,mf_amp_cond1,3.0.4,59.947089641886585,
faspberry,,&&&&&&&&&,None,nonword,,,,,,,,,,,,,,,0,55,55,159,,,,,,,,,,,,,LDT,right,0.6003839643258289,,,,,,0,,,,,,,,,,,,,right,0,0.6003839643258289,,,,,,,1073,2019_Mar_14_1403,mf_amp_cond1,3.0.4,59.947089641886585,
dignity,,&&&&&&&,left,sanctity.virtue,,,,,,,,,,,,,,,0,56,56,94,,,,,,,,,,,,,LDT,left,0.6670799660553257,,,,,,1,,,,,,,,,,,,,left,1,0.6670799660553257,,,,,,,1073,2019_Mar_14_1403,mf_amp_cond1,3.0.4,59.947089641886585,
could,,&&&&&,left,neutral,,,,,,,,,,,,,,,0,57,57,82,,,,,,,,,,,,,LDT,right,0.5836995405384187,,,,,,0,,,,,,,,,,,,,right,0,0.5836995405384187,,,,,,,1073,2019_Mar_14_1403,mf_amp_cond1,3.0.4,59.947089641886585,
done,,&&&&,left,neutral,,,,,,,,,,,,,,,0,58,58,59,,,,,,,,,,,,,LDT,right,0.6004118668452065,,,,,,0,,,,,,,,,,,,,right,0,0.6004118668452065,,,,,,,1073,2019_Mar_14_1403,mf_amp_cond1,3.0.4,59.947089641886585,
although,,&&&&&&&&,left,neutral,,,,,,,,,,,,,,,0,59,59,28,,,,,,,,,,,,,LDT,right,0.6170545972127002,,,,,,0,,,,,,,,,,,,,right,0,0.6170545972127002,,,,,,,1073,2019_Mar_14_1403,mf_amp_cond1,3.0.4,59.947089641886585,
anyhow,,&&&&&&,left,neutral,,,,,,,,,,,,,,,0,60,60,35,,,,,,,,,,,,,LDT,right,0.4670089589537838,,,,,,0,,,,,,,,,,,,,right,0,0.4670089589537838,,,,,,,1073,2019_Mar_14_1403,mf_amp_cond1,3.0.4,59.947089641886585,
great,,&&&&&,left,loyalty.virtue,,,,,,,,,,,,,,,0,61,61,85,,,,,,,,,,,,,LDT,right,0.5170275927052899,,,,,,0,,,,,,,,,,,,,right,0,0.5170275927052899,,,,,,,1073,2019_Mar_14_1403,mf_amp_cond1,3.0.4,59.947089641886585,
fifty,,&&&&&,left,neutral,,,,,,,,,,,,,,,0,62,62,61,,,,,,,,,,,,,LDT,left,0.5670436607078955,,,,,,1,,,,,,,,,,,,,left,1,0.5670436607078955,,,,,,,1073,2019_Mar_14_1403,mf_amp_cond1,3.0.4,59.947089641886585,
proached,,&&&&&&&&,right,nonword,,,,,,,,,,,,,,,0,63,63,122,,,,,,,,,,,,,LDT,right,0.5003630534720287,,,,,,1,,,,,,,,,,,,,right,1,0.5003630534720287,,,,,,,1073,2019_Mar_14_1403,mf_amp_cond1,3.0.4,59.947089641886585,
yane,,&&&&,right,nonword,,,,,,,,,,,,,,,0,64,64,62,,,,,,,,,,,,,LDT,left,0.633747038965339,,,,,,0,,,,,,,,,,,,,left,0,0.633747038965339,,,,,,,1073,2019_Mar_14_1403,mf_amp_cond1,3.0.4,59.947089641886585,
sfumatoy,,&&&&&&&&,None,nonword,,,,,,,,,,,,,,,0,65,65,73,,,,,,,,,,,,,LDT,left,0.6003762670791275,,,,,,0,,,,,,,,,,,,,left,0,0.6003762670791275,,,,,,,1073,2019_Mar_14_1403,mf_amp_cond1,3.0.4,59.947089641886585,
baladroit,,&&&&&&&&&,right,nonword,,,,,,,,,,,,,,,0,66,66,80,,,,,,,,,,,,,LDT,left,0.6670706652153058,,,,,,0,,,,,,,,,,,,,left,0,0.6670706652153058,,,,,,,1073,2019_Mar_14_1403,mf_amp_cond1,3.0.4,59.947089641886585,
laming,,&&&&&&,right,nonword,,,,,,,,,,,,,,,0,67,67,189,,,,,,,,,,,,,LDT,left,0.5837001819757006,,,,,,0,,,,,,,,,,,,,left,0,0.5837001819757006,,,,,,,1073,2019_Mar_14_1403,mf_amp_cond1,3.0.4,59.947089641886585,
terrorists,,&&&&&&&&&&,left,fairness.vice,,,,,,,,,,,,,,,0,68,68,141,,,,,,,,,,,,,LDT,right,0.5335648066484282,,,,,,0,,,,,,,,,,,,,right,0,0.5335648066484282,,,,,,,1073,2019_Mar_14_1403,mf_amp_cond1,3.0.4,59.947089641886585,
precificity,,&&&&&&&&&&&,right,nonword,,,,,,,,,,,,,,,0,69,69,53,,,,,,,,,,,,,LDT,right,0.6170533143381363,,,,,,1,,,,,,,,,,,,,right,1,0.6170533143381363,,,,,,,1073,2019_Mar_14_1403,mf_amp_cond1,3.0.4,59.947089641886585,
fontacts,,&&&&&&&&,right,nonword,,,,,,,,,,,,,,,0,70,70,149,,,,,,,,,,,,,LDT,left,0.6004147533128616,,,,,,0,,,,,,,,,,,,,left,0,0.6004147533128616,,,,,,,1073,2019_Mar_14_1403,mf_amp_cond1,3.0.4,59.947089641886585,
unscothed,,&&&&&&&&&,right,nonword,,,,,,,,,,,,,,,0,71,71,54,,,,,,,,,,,,,LDT,right,0.5003656192209291,,,,,,1,,,,,,,,,,,,,right,1,0.5003656192209291,,,,,,,1073,2019_Mar_14_1403,mf_amp_cond1,3.0.4,59.947089641886585,
cromiscuity,,&&&&&&&&&&&,right,nonword,,,,,,,,,,,,,,,0,72,72,147,,,,,,,,,,,,,LDT,right,0.4670195426681403,,,,,,1,,,,,,,,,,,,,right,1,0.4670195426681403,,,,,,,1073,2019_Mar_14_1403,mf_amp_cond1,3.0.4,59.947089641886585,
also,,&&&&,left,neutral,,,,,,,,,,,,,,,0,73,73,19,,,,,,,,,,,,,LDT,left,0.4169925702326509,,,,,,1,,,,,,,,,,,,,left,1,0.4169925702326509,,,,,,,1073,2019_Mar_14_1403,mf_amp_cond1,3.0.4,59.947089641886585,
whereafter,,&&&&&&&&&&,left,neutral,,,,,,,,,,,,,,,0,74,74,125,,,,,,,,,,,,,LDT,right,0.4336959164181735,,,,,,0,,,,,,,,,,,,,right,0,0.4336959164181735,,,,,,,1073,2019_Mar_14_1403,mf_amp_cond1,3.0.4,59.947089641886585,
nomaric,,&&&&&&&,None,nonword,,,,,,,,,,,,,,,0,75,75,98,,,,,,,,,,,,,LDT,right,0.38369780865809844,,,,,,0,,,,,,,,,,,,,right,0,0.38369780865809844,,,,,,,1073,2019_Mar_14_1403,mf_amp_cond1,3.0.4,59.947089641886585,
nuckheap,,&&&&&&&&,right,nonword,,,,,,,,,,,,,,,0,76,76,129,,,,,,,,,,,,,LDT,left,0.5670385292100946,,,,,,0,,,,,,,,,,,,,left,0,0.5670385292100946,,,,,,,1073,2019_Mar_14_1403,mf_amp_cond1,3.0.4,59.947089641886585,
both,,&&&&,left,neutral,,,,,,,,,,,,,,,0,77,77,130,,,,,,,,,,,,,LDT,right,0.6669244175268432,,,,,,0,,,,,,,,,,,,,right,0,0.6669244175268432,,,,,,,1073,2019_Mar_14_1403,mf_amp_cond1,3.0.4,59.947089641886585,
emassion,,&&&&&&&&,right,nonword,,,,,,,,,,,,,,,0,78,78,195,,,,,,,,,,,,,LDT,left,0.6670087665224855,,,,,,0,,,,,,,,,,,,,left,0,0.6670087665224855,,,,,,,1073,2019_Mar_14_1403,mf_amp_cond1,3.0.4,59.947089641886585,
mih,,&&&,right,nonword,,,,,,,,,,,,,,,0,79,79,18,,,,,,,,,,,,,LDT,right,0.5503736692583061,,,,,,1,,,,,,,,,,,,,right,1,0.5503736692583061,,,,,,,1073,2019_Mar_14_1403,mf_amp_cond1,3.0.4,59.947089641886585,
blamed,,&&&&&&,left,loyalty.vice,,,,,,,,,,,,,,,0,80,80,154,,,,,,,,,,,,,LDT,right,0.48369723136465836,,,,,,0,,,,,,,,,,,,,right,0,0.48369723136465836,,,,,,,1073,2019_Mar_14_1403,mf_amp_cond1,3.0.4,59.947089641886585,
promises,,&&&&&&&&,left,fairness.virtue,,,,,,,,,,,,,,,0,81,81,119,,,,,,,,,,,,,LDT,right,0.5003620913162194,,,,,,0,,,,,,,,,,,,,right,0,0.5003620913162194,,,,,,,1073,2019_Mar_14_1403,mf_amp_cond1,3.0.4,59.947089641886585,
nonobservalt,,&&&&&&&&&&&&,right,nonword,,,,,,,,,,,,,,,0,82,82,45,,,,,,,,,,,,,LDT,left,0.7337618561653017,,,,,,0,,,,,,,,,,,,,left,0,0.7337618561653017,,,,,,,1073,2019_Mar_14_1403,mf_amp_cond1,3.0.4,59.947089641886585,
were,,&&&&,left,neutral,,,,,,,,,,,,,,,0,83,83,105,,,,,,,,,,,,,LDT,right,0.5336687194796923,,,,,,0,,,,,,,,,,,,,right,0,0.5336687194796923,,,,,,,1073,2019_Mar_14_1403,mf_amp_cond1,3.0.4,59.947089641886585,
perified,,&&&&&&&&,right,nonword,,,,,,,,,,,,,,,0,84,84,146,,,,,,,,,,,,,LDT,right,0.5336950184059788,,,,,,1,,,,,,,,,,,,,right,1,0.5336950184059788,,,,,,,1073,2019_Mar_14_1403,mf_amp_cond1,3.0.4,59.947089641886585,
tracious,,&&&&&&&&,right,nonword,,,,,,,,,,,,,,,0,85,85,66,,,,,,,,,,,,,LDT,left,0.4670317299753606,,,,,,0,,,,,,,,,,,,,left,0,0.4670317299753606,,,,,,,1073,2019_Mar_14_1403,mf_amp_cond1,3.0.4,59.947089641886585,
forepo,,&&&&&&,right,nonword,,,,,,,,,,,,,,,0,86,86,22,,,,,,,,,,,,,LDT,right,0.5503820079422894,,,,,,1,,,,,,,,,,,,,right,1,0.5503820079422894,,,,,,,1073,2019_Mar_14_1403,mf_amp_cond1,3.0.4,59.947089641886585,
commitment,,&&&&&&&&&&,left,sanctity.virtue,,,,,,,,,,,,,,,0,87,87,131,,,,,,,,,,,,,LDT,right,0.5003636949093107,,,,,,0,,,,,,,,,,,,,right,0,0.5003636949093107,,,,,,,1073,2019_Mar_14_1403,mf_amp_cond1,3.0.4,59.947089641886585,
esquisiteness,,&&&&&&&&&&&&&,right,nonword,,,,,,,,,,,,,,,0,88,88,135,,,,,,,,,,,,,LDT,right,0.5503765557259612,,,,,,1,,,,,,,,,,,,,right,1,0.5503765557259612,,,,,,,1073,2019_Mar_14_1403,mf_amp_cond1,3.0.4,59.947089641886585,
halaise,,&&&&&&&,None,nonword,,,,,,,,,,,,,,,0,89,89,10,,,,,,,,,,,,,LDT,left,0.7171043727419146,,,,,,0,,,,,,,,,,,,,left,0,0.7171043727419146,,,,,,,1073,2019_Mar_14_1403,mf_amp_cond1,3.0.4,59.947089641886585,
sowntrodden,,&&&&&&&&&&&,right,nonword,,,,,,,,,,,,,,,0,90,90,124,,,,,,,,,,,,,LDT,left,0.5337078471507084,,,,,,0,,,,,,,,,,,,,left,0,0.5337078471507084,,,,,,,1073,2019_Mar_14_1403,mf_amp_cond1,3.0.4,59.947089641886585,
gondensed,,&&&&&&&&&,right,nonword,,,,,,,,,,,,,,,0,91,91,170,,,,,,,,,,,,,LDT,left,0.6170478621218081,,,,,,0,,,,,,,,,,,,,left,0,0.6170478621218081,,,,,,,1073,2019_Mar_14_1403,mf_amp_cond1,3.0.4,59.947089641886585,
greaks,,&&&&&&,right,nonword,,,,,,,,,,,,,,,0,92,92,140,,,,,,,,,,,,,LDT,right,0.6337367759695098,,,,,,1,,,,,,,,,,,,,right,1,0.6337367759695098,,,,,,,1073,2019_Mar_14_1403,mf_amp_cond1,3.0.4,59.947089641886585,
viscs,,&&&&&,None,nonword,,,,,,,,,,,,,,,0,93,93,120,,,,,,,,,,,,,LDT,right,0.5837415546770899,,,,,,0,,,,,,,,,,,,,right,0,0.5837415546770899,,,,,,,1073,2019_Mar_14_1403,mf_amp_cond1,3.0.4,59.947089641886585,
free,,&&&&,left,fairness.virtue,,,,,,,,,,,,,,,0,94,94,81,,,,,,,,,,,,,LDT,right,0.41700315394678,,,,,,0,,,,,,,,,,,,,right,0,0.41700315394678,,,,,,,1073,2019_Mar_14_1403,mf_amp_cond1,3.0.4,59.947089641886585,
touls,,&&&&&,right,nonword,,,,,,,,,,,,,,,0,95,95,142,,,,,,,,,,,,,LDT,left,0.6170680673944844,,,,,,0,,,,,,,,,,,,,left,0,0.6170680673944844,,,,,,,1073,2019_Mar_14_1403,mf_amp_cond1,3.0.4,59.947089641886585,
betrayal,,&&&&&&&&,left,loyalty.vice,,,,,,,,,,,,,,,0,96,96,186,,,,,,,,,,,,,LDT,right,0.5337184308648375,,,,,,0,,,,,,,,,,,,,right,0,0.5337184308648375,,,,,,,1073,2019_Mar_14_1403,mf_amp_cond1,3.0.4,59.947089641886585,
tomedians,,&&&&&&&&&,right,nonword,,,,,,,,,,,,,,,0,97,97,1,,,,,,,,,,,,,LDT,left,0.783764453986123,,,,,,0,,,,,,,,,,,,,left,0,0.783764453986123,,,,,,,1073,2019_Mar_14_1403,mf_amp_cond1,3.0.4,59.947089641886585,
arrests,,&&&&&&&,left,authority.vice,,,,,,,,,,,,,,,0,98,98,192,,,,,,,,,,,,,LDT,right,0.5670574516084343,,,,,,0,,,,,,,,,,,,,right,0,0.5670574516084343,,,,,,,1073,2019_Mar_14_1403,mf_amp_cond1,3.0.4,59.947089641886585,
ecgagement,,&&&&&&&&&&,None,nonword,,,,,,,,,,,,,,,0,99,99,57,,,,,,,,,,,,,LDT,left,0.4336657688681953,,,,,,0,,,,,,,,,,,,,left,0,0.4336657688681953,,,,,,,1073,2019_Mar_14_1403,mf_amp_cond1,3.0.4,59.947089641886585,
less,,&&&&,left,neutral,,,,,,,,,,,,,,,0,100,100,148,,,,,,,,,,,,,LDT,right,0.5337072057134264,,,,,,0,,,,,,,,,,,,,right,0,0.5337072057134264,,,,,,,1073,2019_Mar_14_1403,mf_amp_cond1,3.0.4,59.947089641886585,
allears,,&&&&&&&,right,nonword,,,,,,,,,,,,,,,0,101,101,24,,,,,,,,,,,,,LDT,left,0.46702178769851344,,,,,,0,,,,,,,,,,,,,left,0,0.46702178769851344,,,,,,,1073,2019_Mar_14_1403,mf_amp_cond1,3.0.4,59.947089641886585,
three,,&&&&&,left,neutral,,,,,,,,,,,,,,,0,102,102,63,,,,,,,,,,,,,LDT,right,0.43367827689439764,,,,,,0,,,,,,,,,,,,,right,0,0.43367827689439764,,,,,,,1073,2019_Mar_14_1403,mf_amp_cond1,3.0.4,59.947089641886585,
hescribe,,&&&&&&&&,right,nonword,,,,,,,,,,,,,,,0,103,103,44,,,,,,,,,,,,,LDT,right,0.30031577954832755,,,,,,1,,,,,,,,,,,,,right,1,0.30031577954832755,,,,,,,1073,2019_Mar_14_1403,mf_amp_cond1,3.0.4,59.947089641886585,
lies,,&&&&,left,fairness.vice,,,,,,,,,,,,,,,0,104,104,104,,,,,,,,,,,,,LDT,right,0.4836940241782486,,,,,,0,,,,,,,,,,,,,right,0,0.4836940241782486,,,,,,,1073,2019_Mar_14_1403,mf_amp_cond1,3.0.4,59.947089641886585,
ittutable,,&&&&&&&&&,right,nonword,,,,,,,,,,,,,,,0,105,105,30,,,,,,,,,,,,,LDT,left,0.5003624120347467,,,,,,0,,,,,,,,,,,,,left,0,0.5003624120347467,,,,,,,1073,2019_Mar_14_1403,mf_amp_cond1,3.0.4,59.947089641886585,
