words,nonwords,mask,corr_ans,category,tweets,topic,AMP_pracloop.thisRepN,AMP_pracloop.thisTrialN,AMP_pracloop.thisN,AMP_pracloop.thisIndex,AMP_trials.thisRepN,AMP_trials.thisTrialN,AMP_trials.thisN,AMP_trials.thisIndex,LDT_pracloop.thisRepN,LDT_pracloop.thisTrialN,LDT_pracloop.thisN,LDT_pracloop.thisIndex,LDT_trials.thisRepN,LDT_trials.thisTrialN,LDT_trials.thisN,LDT_trials.thisIndex,tweet_loop.thisRepN,tweet_loop.thisTrialN,tweet_loop.thisN,tweet_loop.thisIndex,begin_key.keys,begin_key.rt,key_resp_AMP_instr1.keys,key_resp_AMP_instr1.rt,resp_AMP_ready1.keys,resp_AMP_ready1.rt,resp_AMP_prac.keys,resp_AMP_prac.rt,task,keypress,RT,resp_AMP_ready.keys,resp_AMP_ready.rt,resp_AMP.keys,resp_AMP.corr,resp_AMP.rt,corr,AMP_nonword_rating.response,AMP_nonword_rating.rt,AMP_word_rating.response,AMP_word_rating.rt,AMP_random_rating.response,AMP_random_rating.rt,key_resp_LDT_instr.keys,key_resp_LDT_instr.rt,resp_LDT_prac.keys,resp_LDT_prac.rt,resp_LDT_ready.keys,resp_LDT_ready.rt,resp_LDT.keys,resp_LDT.corr,resp_LDT.rt,LDT_rating.response,LDT_rating.rt,key_resp_LDT_instr_2.keys,key_resp_LDT_instr_2.rt,resp_tweets.keys,resp_tweets.rt,participant,date,expName,psychopyVersion,frameRate,
,,,,,,,,,,,,,,,,,,,,,,,,,,,right,392.2386544186447,,,,,,,,,,,,,,,,,,,,,,,,,,,,,,,,,,,,,1075,2019_Mar_14_1404,mf_amp_cond1,3.0.4,60.003848874556745,
,,,,,,,,,,,,,,,,,,,,,,,,,,,,,right,3.0009583072096575,,,,,,,,,,,,,,,,,,,,,,,,,,,,,,,,,,,1075,2019_Mar_14_1404,mf_amp_cond1,3.0.4,60.003848874556745,
,,,,,,,,,,,,,,,,,,,,,,,,,,,,,,,right,1.233875390549656,,,,,,,,,,,,,,,,,,,,,,,,,,,,,,,,,1075,2019_Mar_14_1404,mf_amp_cond1,3.0.4,60.003848874556745,
banana,kacket,&&&&&&,,,,,0,0,0,1,,,,,,,,,,,,,,,,,,,,,,,left,2.0507457028434146,AMP_prac,left,2.0507457028434146,,,,,,,,,,,,,,,,,,,,,,,,,,,,1075,2019_Mar_14_1404,mf_amp_cond1,3.0.4,60.003848874556745,
scarf,bisebell,&&&&&&&&,,,,,0,1,1,3,,,,,,,,,,,,,,,,,,,,,,,left,1.150546921446221,AMP_prac,left,1.150546921446221,,,,,,,,,,,,,,,,,,,,,,,,,,,,1075,2019_Mar_14_1404,mf_amp_cond1,3.0.4,60.003848874556745,
keyboard,senk,&&&&,,,,,0,2,2,2,,,,,,,,,,,,,,,,,,,,,,,left,2.567513834190322,AMP_prac,left,2.567513834190322,,,,,,,,,,,,,,,,,,,,,,,,,,,,1075,2019_Mar_14_1404,mf_amp_cond1,3.0.4,60.003848874556745,
car,cemtuper,&&&&&&&&,,,,,0,3,3,0,,,,,,,,,,,,,,,,,,,,,,,left,0.8504360810911749,AMP_prac,left,0.8504360810911749,,,,,,,,,,,,,,,,,,,,,,,,,,,,1075,2019_Mar_14_1404,mf_amp_cond1,3.0.4,60.003848874556745,
,,,,,,,,,,,,,,,,,,,,,,,,,,,,,,,,,,,,,,right,1.0338332481333055,,,,,,,,,,,,,,,,,,,,,,,,,,1075,2019_Mar_14_1404,mf_amp_cond1,3.0.4,60.003848874556745,
good,pistraught,&&&&&&&&&&,left,care.virtue,,,,,,,0,0,0,0,,,,,,,,,,,,,,,,,,,,,AMP,left,0.5170676825509872,,,left,1,0.5170676825509872,1,,,,,,,,,,,,,,,,,,,,,,1075,2019_Mar_14_1404,mf_amp_cond1,3.0.4,60.003848874556745,
fair,taxpayung,&&&&&&&&&,left,fairness.virtue,,,,,,,0,1,1,1,,,,,,,,,,,,,,,,,,,,,AMP,left,3.8011538172722794,,,left,1,3.8011538172722794,1,,,,,,,,,,,,,,,,,,,,,,1075,2019_Mar_14_1404,mf_amp_cond1,3.0.4,60.003848874556745,
accused,divility,&&&&&&&&,right,fairness.vice,,,,,,,0,2,2,2,,,,,,,,,,,,,,,,,,,,,AMP,right,1.267211845552083,,,right,1,1.267211845552083,1,,,,,,,,,,,,,,,,,,,,,,1075,2019_Mar_14_1404,mf_amp_cond1,3.0.4,60.003848874556745,
Lacedonia,reelectiob,&&&&&&&&&&,None,nonword,,,,,,,0,3,3,3,,,,,,,,,,,,,,,,,,,,,AMP,left,0.41692393642733805,,,left,0,0.41692393642733805,0,,,,,,,,,,,,,,,,,,,,,,1075,2019_Mar_14_1404,mf_amp_cond1,3.0.4,60.003848874556745,
love,disregord,&&&&&&&&&,left,loyalty.virtue,,,,,,,0,4,4,4,,,,,,,,,,,,,,,,,,,,,AMP,left,0.8837882512889337,,,left,1,0.8837882512889337,1,,,,,,,,,,,,,,,,,,,,,,1075,2019_Mar_14_1404,mf_amp_cond1,3.0.4,60.003848874556745,
commitment,edancipation,&&&&&&&&&&&&,left,sanctity.virtue,,,,,,,0,5,5,5,,,,,,,,,,,,,,,,,,,,,AMP,left,0.7169433720118832,,,left,1,0.7169433720118832,1,,,,,,,,,,,,,,,,,,,,,,1075,2019_Mar_14_1404,mf_amp_cond1,3.0.4,60.003848874556745,
gun,tislay,&&&&&&,right,authority.vice,,,,,,,0,6,6,6,,,,,,,,,,,,,,,,,,,,,AMP,left,0.733750631014118,,,left,0,0.733750631014118,0,,,,,,,,,,,,,,,,,,,,,,1075,2019_Mar_14_1404,mf_amp_cond1,3.0.4,60.003848874556745,
serial,spag,&&&&,right,sanctity.vice,,,,,,,0,7,7,7,,,,,,,,,,,,,,,,,,,,,AMP,right,0.6170552386611234,,,right,1,0.6170552386611234,1,,,,,,,,,,,,,,,,,,,,,,1075,2019_Mar_14_1404,mf_amp_cond1,3.0.4,60.003848874556745,
actively,honstables,&&&&&&&&&&,left,authority.virtue,,,,,,,0,8,8,8,,,,,,,,,,,,,,,,,,,,,AMP,right,1.3672542445419822,,,right,0,1.3672542445419822,0,,,,,,,,,,,,,,,,,,,,,,1075,2019_Mar_14_1404,mf_amp_cond1,3.0.4,60.003848874556745,
trust,fangsters,&&&&&&&&&,left,authority.virtue,,,,,,,0,9,9,9,,,,,,,,,,,,,,,,,,,,,AMP,right,0.7504170945612714,,,right,0,0.7504170945612714,0,,,,,,,,,,,,,,,,,,,,,,1075,2019_Mar_14_1404,mf_amp_cond1,3.0.4,60.003848874556745,
death,lursuer,&&&&&&&,right,care.vice,,,,,,,0,10,10,10,,,,,,,,,,,,,,,,,,,,,AMP,left,0.4670221084088553,,,left,0,0.4670221084088553,0,,,,,,,,,,,,,,,,,,,,,,1075,2019_Mar_14_1404,mf_amp_cond1,3.0.4,60.003848874556745,
great,pullness,&&&&&&&&,left,loyalty.virtue,,,,,,,0,11,11,11,,,,,,,,,,,,,,,,,,,,,AMP,right,0.6504029187781271,,,right,0,0.6504029187781271,0,,,,,,,,,,,,,,,,,,,,,,1075,2019_Mar_14_1404,mf_amp_cond1,3.0.4,60.003848874556745,
scandal,scock,&&&&&,right,sanctity.vice,,,,,,,0,12,12,12,,,,,,,,,,,,,,,,,,,,,AMP,left,0.7170921854267363,,,left,0,0.7170921854267363,0,,,,,,,,,,,,,,,,,,,,,,1075,2019_Mar_14_1404,mf_amp_cond1,3.0.4,60.003848874556745,
quarterbocks,ittutable,&&&&&&&&&,None,nonword,,,,,,,0,13,13,13,,,,,,,,,,,,,,,,,,,,,AMP,left,0.8336413301003631,,,left,0,0.8336413301003631,0,,,,,,,,,,,,,,,,,,,,,,1075,2019_Mar_14_1404,mf_amp_cond1,3.0.4,60.003848874556745,
injured,reviked,&&&&&&&,right,care.vice,,,,,,,0,14,14,14,,,,,,,,,,,,,,,,,,,,,AMP,right,0.3336323499970604,,,right,1,0.3336323499970604,1,,,,,,,,,,,,,,,,,,,,,,1075,2019_Mar_14_1404,mf_amp_cond1,3.0.4,60.003848874556745,
benefit,refuejing,&&&&&&&&&,left,fairness.virtue,,,,,,,0,15,15,15,,,,,,,,,,,,,,,,,,,,,AMP,right,0.4336744282627478,,,right,0,0.4336744282627478,0,,,,,,,,,,,,,,,,,,,,,,1075,2019_Mar_14_1404,mf_amp_cond1,3.0.4,60.003848874556745,
officers,tenuflect,&&&&&&&&&,right,authority.vice,,,,,,,0,16,16,16,,,,,,,,,,,,,,,,,,,,,AMP,left,0.6670976055902429,,,left,0,0.6670976055902429,0,,,,,,,,,,,,,,,,,,,,,,1075,2019_Mar_14_1404,mf_amp_cond1,3.0.4,60.003848874556745,
penalty,rivernoat,&&&&&&&&&,right,authority.vice,,,,,,,0,17,17,17,,,,,,,,,,,,,,,,,,,,,AMP,left,1.150519981078105,,,left,0,1.150519981078105,0,,,,,,,,,,,,,,,,,,,,,,1075,2019_Mar_14_1404,mf_amp_cond1,3.0.4,60.003848874556745,
sexual,pescinded,&&&&&&&&&,right,sanctity.vice,,,,,,,0,18,18,18,,,,,,,,,,,,,,,,,,,,,AMP,right,0.5670487922325265,,,right,1,0.5670487922325265,1,,,,,,,,,,,,,,,,,,,,,,1075,2019_Mar_14_1404,mf_amp_cond1,3.0.4,60.003848874556745,
perfect,perified,&&&&&&&&,left,sanctity.virtue,,,,,,,0,19,19,19,,,,,,,,,,,,,,,,,,,,,AMP,right,0.40030012850183994,,,right,0,0.40030012850183994,0,,,,,,,,,,,,,,,,,,,,,,1075,2019_Mar_14_1404,mf_amp_cond1,3.0.4,60.003848874556745,
carvels,sowntrodden,&&&&&&&&&&&,None,nonword,,,,,,,0,20,20,20,,,,,,,,,,,,,,,,,,,,,AMP,right,2.2507920146163087,,,right,0,2.2507920146163087,0,,,,,,,,,,,,,,,,,,,,,,1075,2019_Mar_14_1404,mf_amp_cond1,3.0.4,60.003848874556745,
respect,Loorish,&&&&&&&,left,sanctity.virtue,,,,,,,0,21,21,21,,,,,,,,,,,,,,,,,,,,,AMP,left,0.9338017535628751,,,left,1,0.9338017535628751,1,,,,,,,,,,,,,,,,,,,,,,1075,2019_Mar_14_1404,mf_amp_cond1,3.0.4,60.003848874556745,
support,nackers,&&&&&&&,left,loyalty.virtue,,,,,,,0,22,22,22,,,,,,,,,,,,,,,,,,,,,AMP,left,0.3836814520182088,,,left,1,0.3836814520182088,1,,,,,,,,,,,,,,,,,,,,,,1075,2019_Mar_14_1404,mf_amp_cond1,3.0.4,60.003848874556745,
health,laming,&&&&&&,left,care.virtue,,,,,,,0,23,23,23,,,,,,,,,,,,,,,,,,,,,AMP,left,0.6337335688003805,,,left,1,0.6337335688003805,1,,,,,,,,,,,,,,,,,,,,,,1075,2019_Mar_14_1404,mf_amp_cond1,3.0.4,60.003848874556745,
integrity,unscothed,&&&&&&&&&,left,fairness.virtue,,,,,,,0,24,24,24,,,,,,,,,,,,,,,,,,,,,AMP,right,0.6671097929065581,,,right,0,0.6671097929065581,0,,,,,,,,,,,,,,,,,,,,,,1075,2019_Mar_14_1404,mf_amp_cond1,3.0.4,60.003848874556745,
men,rorroborated,&&&&&&&&&&&&,right,loyalty.vice,,,,,,,0,25,25,25,,,,,,,,,,,,,,,,,,,,,AMP,right,0.6170728781726211,,,right,1,0.6170728781726211,1,,,,,,,,,,,,,,,,,,,,,,1075,2019_Mar_14_1404,mf_amp_cond1,3.0.4,60.003848874556745,
abuse,papert,&&&&&&,right,sanctity.vice,,,,,,,0,26,26,26,,,,,,,,,,,,,,,,,,,,,AMP,left,0.6670655337220524,,,left,0,0.6670655337220524,0,,,,,,,,,,,,,,,,,,,,,,1075,2019_Mar_14_1404,mf_amp_cond1,3.0.4,60.003848874556745,
pleasant,focomotive,&&&&&&&&&&,None,control,,,,,,,0,27,27,27,,,,,,,,,,,,,,,,,,,,,AMP,right,0.4670012617134489,,,right,0,0.4670012617134489,0,,,,,,,,,,,,,,,,,,,,,,1075,2019_Mar_14_1404,mf_amp_cond1,3.0.4,60.003848874556745,
feleological,dramens,&&&&&&&,None,nonword,,,,,,,0,28,28,28,,,,,,,,,,,,,,,,,,,,,AMP,left,0.6337457561166957,,,left,0,0.6337457561166957,0,,,,,,,,,,,,,,,,,,,,,,1075,2019_Mar_14_1404,mf_amp_cond1,3.0.4,60.003848874556745,
energy,saned,&&&&&,left,sanctity.virtue,,,,,,,0,29,29,29,,,,,,,,,,,,,,,,,,,,,AMP,right,0.7670947832521051,,,right,0,0.7670947832521051,0,,,,,,,,,,,,,,,,,,,,,,1075,2019_Mar_14_1404,mf_amp_cond1,3.0.4,60.003848874556745,
sfumatoy,seachwear,&&&&&&&&&,None,nonword,,,,,,,0,30,30,30,,,,,,,,,,,,,,,,,,,,,AMP,right,0.6337326066277456,,,right,0,0.6337326066277456,0,,,,,,,,,,,,,,,,,,,,,,1075,2019_Mar_14_1404,mf_amp_cond1,3.0.4,60.003848874556745,
fraud,tove,&&&&,right,fairness.vice,,,,,,,0,31,31,31,,,,,,,,,,,,,,,,,,,,,AMP,left,0.5170051424065605,,,left,0,0.5170051424065605,0,,,,,,,,,,,,,,,,,,,,,,1075,2019_Mar_14_1404,mf_amp_cond1,3.0.4,60.003848874556745,
shoirmaster,clamorek,&&&&&&&&,None,nonword,,,,,,,0,32,32,32,,,,,,,,,,,,,,,,,,,,,AMP,left,0.500354073359631,,,left,0,0.500354073359631,0,,,,,,,,,,,,,,,,,,,,,,1075,2019_Mar_14_1404,mf_amp_cond1,3.0.4,60.003848874556745,
voter,iptervention,&&&&&&&&&&&&,right,fairness.vice,,,,,,,0,33,33,33,,,,,,,,,,,,,,,,,,,,,AMP,right,0.7337477445544209,,,right,1,0.7337477445544209,1,,,,,,,,,,,,,,,,,,,,,,1075,2019_Mar_14_1404,mf_amp_cond1,3.0.4,60.003848874556745,
arrests,ning,&&&&,right,authority.vice,,,,,,,0,34,34,34,,,,,,,,,,,,,,,,,,,,,AMP,right,0.4670198633975815,,,right,1,0.4670198633975815,1,,,,,,,,,,,,,,,,,,,,,,1075,2019_Mar_14_1404,mf_amp_cond1,3.0.4,60.003848874556745,
values,openet,&&&&&&,left,sanctity.virtue,,,,,,,0,35,35,35,,,,,,,,,,,,,,,,,,,,,AMP,right,1.1672149885853287,,,right,0,1.1672149885853287,0,,,,,,,,,,,,,,,,,,,,,,1075,2019_Mar_14_1404,mf_amp_cond1,3.0.4,60.003848874556745,
shot,ammessment,&&&&&&&&&&,right,care.vice,,,,,,,0,36,36,36,,,,,,,,,,,,,,,,,,,,,AMP,left,0.9004656192846596,,,left,0,0.9004656192846596,0,,,,,,,,,,,,,,,,,,,,,,1075,2019_Mar_14_1404,mf_amp_cond1,3.0.4,60.003848874556745,
threatened,letish,&&&&&&,right,fairness.vice,,,,,,,0,37,37,37,,,,,,,,,,,,,,,,,,,,,AMP,right,0.9004511869570706,,,right,1,0.9004511869570706,1,,,,,,,,,,,,,,,,,,,,,,1075,2019_Mar_14_1404,mf_amp_cond1,3.0.4,60.003848874556745,
victims,gazily,&&&&&&,right,care.vice,,,,,,,0,38,38,38,,,,,,,,,,,,,,,,,,,,,AMP,left,1.0171876313106623,,,left,0,1.0171876313106623,0,,,,,,,,,,,,,,,,,,,,,,1075,2019_Mar_14_1404,mf_amp_cond1,3.0.4,60.003848874556745,
help,Cunday,&&&&&&,left,care.virtue,,,,,,,0,39,39,39,,,,,,,,,,,,,,,,,,,,,AMP,right,0.483694986323826,,,right,0,0.483694986323826,0,,,,,,,,,,,,,,,,,,,,,,1075,2019_Mar_14_1404,mf_amp_cond1,3.0.4,60.003848874556745,
interests,Phintoism,&&&&&&&&&,left,fairness.virtue,,,,,,,0,40,40,40,,,,,,,,,,,,,,,,,,,,,AMP,left,0.48369145844480954,,,left,1,0.48369145844480954,1,,,,,,,,,,,,,,,,,,,,,,1075,2019_Mar_14_1404,mf_amp_cond1,3.0.4,60.003848874556745,
terrorist,noped,&&&&&,right,loyalty.vice,,,,,,,0,41,41,41,,,,,,,,,,,,,,,,,,,,,AMP,left,0.5670372463355307,,,left,0,0.5670372463355307,0,,,,,,,,,,,,,,,,,,,,,,1075,2019_Mar_14_1404,mf_amp_cond1,3.0.4,60.003848874556745,
promote,godlaness,&&&&&&&&&,left,sanctity.virtue,,,,,,,0,42,42,42,,,,,,,,,,,,,,,,,,,,,AMP,right,1.083840015315218,,,right,0,1.083840015315218,0,,,,,,,,,,,,,,,,,,,,,,1075,2019_Mar_14_1404,mf_amp_cond1,3.0.4,60.003848874556745,
compassion,frocessing,&&&&&&&&&&,left,care.virtue,,,,,,,0,43,43,43,,,,,,,,,,,,,,,,,,,,,AMP,right,0.7670562970160972,,,right,0,0.7670562970160972,0,,,,,,,,,,,,,,,,,,,,,,1075,2019_Mar_14_1404,mf_amp_cond1,3.0.4,60.003848874556745,
troops,gikely,&&&&&&,right,loyalty.vice,,,,,,,0,44,44,44,,,,,,,,,,,,,,,,,,,,,AMP,right,1.0838461089588236,,,right,1,1.0838461089588236,1,,,,,,,,,,,,,,,,,,,,,,1075,2019_Mar_14_1404,mf_amp_cond1,3.0.4,60.003848874556745,
sharing,epigrach,&&&&&&&&,left,loyalty.virtue,,,,,,,0,45,45,45,,,,,,,,,,,,,,,,,,,,,AMP,right,0.36700376332737505,,,right,0,0.36700376332737505,0,,,,,,,,,,,,,,,,,,,,,,1075,2019_Mar_14_1404,mf_amp_cond1,3.0.4,60.003848874556745,
peaceful,lachelor,&&&&&&&&,left,authority.virtue,,,,,,,0,46,46,46,,,,,,,,,,,,,,,,,,,,,AMP,right,0.9003960233239923,,,right,0,0.9003960233239923,0,,,,,,,,,,,,,,,,,,,,,,1075,2019_Mar_14_1404,mf_amp_cond1,3.0.4,60.003848874556745,
peace,brudent,&&&&&&&,left,care.virtue,,,,,,,0,47,47,47,,,,,,,,,,,,,,,,,,,,,AMP,left,0.5170330449182075,,,left,1,0.5170330449182075,1,,,,,,,,,,,,,,,,,,,,,,1075,2019_Mar_14_1404,mf_amp_cond1,3.0.4,60.003848874556745,
embrace,chreams,&&&&&&&,left,authority.virtue,,,,,,,0,48,48,48,,,,,,,,,,,,,,,,,,,,,AMP,right,0.4336878984468058,,,right,0,0.4336878984468058,0,,,,,,,,,,,,,,,,,,,,,,1075,2019_Mar_14_1404,mf_amp_cond1,3.0.4,60.003848874556745,
intelligence,idexpressible,&&&&&&&&&&&&&,left,loyalty.virtue,,,,,,,0,49,49,49,,,,,,,,,,,,,,,,,,,,,AMP,right,1.0171674260054715,,,right,0,1.0171674260054715,0,,,,,,,,,,,,,,,,,,,,,,1075,2019_Mar_14_1404,mf_amp_cond1,3.0.4,60.003848874556745,
army,strofe,&&&&&&,right,loyalty.vice,,,,,,,0,50,50,50,,,,,,,,,,,,,,,,,,,,,AMP,right,0.46702980567351915,,,right,1,0.46702980567351915,1,,,,,,,,,,,,,,,,,,,,,,1075,2019_Mar_14_1404,mf_amp_cond1,3.0.4,60.003848874556745,
unpleasant,bycled,&&&&&&,None,control,,,,,,,0,51,51,51,,,,,,,,,,,,,,,,,,,,,AMP,right,0.6002697884978261,,,right,0,0.6002697884978261,0,,,,,,,,,,,,,,,,,,,,,,1075,2019_Mar_14_1404,mf_amp_cond1,3.0.4,60.003848874556745,
friends,Daptist,&&&&&&&,left,loyalty.virtue,,,,,,,0,52,52,52,,,,,,,,,,,,,,,,,,,,,AMP,right,0.6670680994575378,,,right,0,0.6670680994575378,0,,,,,,,,,,,,,,,,,,,,,,1075,2019_Mar_14_1404,mf_amp_cond1,3.0.4,60.003848874556745,
freedom,presentkess,&&&&&&&&&&&,left,sanctity.virtue,,,,,,,0,53,53,53,,,,,,,,,,,,,,,,,,,,,AMP,left,0.2836473916831892,,,left,1,0.2836473916831892,1,,,,,,,,,,,,,,,,,,,,,,1075,2019_Mar_14_1404,mf_amp_cond1,3.0.4,60.003848874556745,
riot,bluently,&&&&&&&&,right,authority.vice,,,,,,,0,54,54,54,,,,,,,,,,,,,,,,,,,,,AMP,right,0.5003614498709794,,,right,1,0.5003614498709794,1,,,,,,,,,,,,,,,,,,,,,,1075,2019_Mar_14_1404,mf_amp_cond1,3.0.4,60.003848874556745,
prosecution,photocalkodes,&&&&&&&&&&&&&,right,authority.vice,,,,,,,0,55,55,55,,,,,,,,,,,,,,,,,,,,,AMP,right,0.4503309495339636,,,right,1,0.4503309495339636,1,,,,,,,,,,,,,,,,,,,,,,1075,2019_Mar_14_1404,mf_amp_cond1,3.0.4,60.003848874556745,
racist,nomaric,&&&&&&&,right,sanctity.vice,,,,,,,0,56,56,56,,,,,,,,,,,,,,,,,,,,,AMP,right,0.15027431063936092,,,right,1,0.15027431063936092,1,,,,,,,,,,,,,,,,,,,,,,1075,2019_Mar_14_1404,mf_amp_cond1,3.0.4,60.003848874556745,
clattening,coom,&&&&,None,nonword,,,,,,,0,57,57,57,,,,,,,,,,,,,,,,,,,,,AMP,right,0.03357506965403445,,,right,0,0.03357506965403445,0,,,,,,,,,,,,,,,,,,,,,,1075,2019_Mar_14_1404,mf_amp_cond1,3.0.4,60.003848874556745,
lies,menizen,&&&&&&&,right,fairness.vice,,,,,,,0,58,58,58,,,,,,,,,,,,,,,,,,,,,AMP,left,0.6003842850332148,,,left,0,0.6003842850332148,0,,,,,,,,,,,,,,,,,,,,,,1075,2019_Mar_14_1404,mf_amp_cond1,3.0.4,60.003848874556745,
blamed,gedious,&&&&&&&,right,loyalty.vice,,,,,,,0,59,59,59,,,,,,,,,,,,,,,,,,,,,AMP,left,0.35032447104458697,,,left,0,0.35032447104458697,0,,,,,,,,,,,,,,,,,,,,,,1075,2019_Mar_14_1404,mf_amp_cond1,3.0.4,60.003848874556745,
free,lenon,&&&&&,left,fairness.virtue,,,,,,,0,60,60,60,,,,,,,,,,,,,,,,,,,,,AMP,right,0.6337124013516586,,,right,0,0.6337124013516586,0,,,,,,,,,,,,,,,,,,,,,,1075,2019_Mar_14_1404,mf_amp_cond1,3.0.4,60.003848874556745,
safe,proached,&&&&&&&&,left,care.virtue,,,,,,,0,61,61,61,,,,,,,,,,,,,,,,,,,,,AMP,right,0.3836641332018189,,,right,0,0.3836641332018189,0,,,,,,,,,,,,,,,,,,,,,,1075,2019_Mar_14_1404,mf_amp_cond1,3.0.4,60.003848874556745,
loyalty,erks,&&&&,left,loyalty.virtue,,,,,,,0,62,62,62,,,,,,,,,,,,,,,,,,,,,AMP,right,0.18361140706110746,,,right,0,0.18361140706110746,0,,,,,,,,,,,,,,,,,,,,,,1075,2019_Mar_14_1404,mf_amp_cond1,3.0.4,60.003848874556745,
gowlands,imebreaker,&&&&&&&&&&,None,nonword,,,,,,,0,63,63,63,,,,,,,,,,,,,,,,,,,,,AMP,left,0.18361685928539373,,,left,0,0.18361685928539373,0,,,,,,,,,,,,,,,,,,,,,,1075,2019_Mar_14_1404,mf_amp_cond1,3.0.4,60.003848874556745,
promises,hefurbished,&&&&&&&&&&&,left,fairness.virtue,,,,,,,0,64,64,64,,,,,,,,,,,,,,,,,,,,,AMP,right,0.31698448810493574,,,right,0,0.31698448810493574,0,,,,,,,,,,,,,,,,,,,,,,1075,2019_Mar_14_1404,mf_amp_cond1,3.0.4,60.003848874556745,
civilians,fegard,&&&&&&,right,care.vice,,,,,,,0,65,65,65,,,,,,,,,,,,,,,,,,,,,AMP,right,0.5503637269721366,,,right,1,0.5503637269721366,1,,,,,,,,,,,,,,,,,,,,,,1075,2019_Mar_14_1404,mf_amp_cond1,3.0.4,60.003848874556745,
drug,tracious,&&&&&&&&,right,sanctity.vice,,,,,,,0,66,66,66,,,,,,,,,,,,,,,,,,,,,AMP,left,1.000481719354866,,,left,0,1.000481719354866,0,,,,,,,,,,,,,,,,,,,,,,1075,2019_Mar_14_1404,mf_amp_cond1,3.0.4,60.003848874556745,
celebrated,chared,&&&&&&,left,authority.virtue,,,,,,,0,67,67,67,,,,,,,,,,,,,,,,,,,,,AMP,right,0.4170499788597226,,,right,0,0.4170499788597226,0,,,,,,,,,,,,,,,,,,,,,,1075,2019_Mar_14_1404,mf_amp_cond1,3.0.4,60.003848874556745,
powerful,framatic,&&&&&&&&,left,authority.virtue,,,,,,,0,68,68,68,,,,,,,,,,,,,,,,,,,,,AMP,right,0.3669784265512135,,,right,0,0.3669784265512135,0,,,,,,,,,,,,,,,,,,,,,,1075,2019_Mar_14_1404,mf_amp_cond1,3.0.4,60.003848874556745,
hate,squets,&&&&&&,right,fairness.vice,,,,,,,0,69,69,69,,,,,,,,,,,,,,,,,,,,,AMP,right,0.45052787076565437,,,right,1,0.45052787076565437,1,,,,,,,,,,,,,,,,,,,,,,1075,2019_Mar_14_1404,mf_amp_cond1,3.0.4,60.003848874556745,
black,crinking,&&&&&&&&,right,loyalty.vice,,,,,,,0,70,70,70,,,,,,,,,,,,,,,,,,,,,AMP,right,1.067155912227463,,,right,1,1.067155912227463,1,,,,,,,,,,,,,,,,,,,,,,1075,2019_Mar_14_1404,mf_amp_cond1,3.0.4,60.003848874556745,
ability,smapper,&&&&&&&,left,authority.virtue,,,,,,,0,71,71,71,,,,,,,,,,,,,,,,,,,,,AMP,left,0.36700504619511776,,,left,1,0.36700504619511776,1,,,,,,,,,,,,,,,,,,,,,,1075,2019_Mar_14_1404,mf_amp_cond1,3.0.4,60.003848874556745,
violations,pumber,&&&&&&,right,sanctity.vice,,,,,,,0,72,72,72,,,,,,,,,,,,,,,,,,,,,AMP,right,0.6837358458724339,,,right,1,0.6837358458724339,1,,,,,,,,,,,,,,,,,,,,,,1075,2019_Mar_14_1404,mf_amp_cond1,3.0.4,60.003848874556745,
care,alar,&&&&,left,care.virtue,,,,,,,0,73,73,73,,,,,,,,,,,,,,,,,,,,,AMP,right,0.3669944624998607,,,right,0,0.3669944624998607,0,,,,,,,,,,,,,,,,,,,,,,1075,2019_Mar_14_1404,mf_amp_cond1,3.0.4,60.003848874556745,
uller,shoirmaster,&&&&&&&&&&&,None,nonword,,,,,,,0,74,74,74,,,,,,,,,,,,,,,,,,,,,AMP,left,0.6837406566482969,,,left,0,0.6837406566482969,0,,,,,,,,,,,,,,,,,,,,,,1075,2019_Mar_14_1404,mf_amp_cond1,3.0.4,60.003848874556745,
failure,nuckheap,&&&&&&&&,right,loyalty.vice,,,,,,,0,75,75,75,,,,,,,,,,,,,,,,,,,,,AMP,right,0.31700565555365756,,,right,1,0.31700565555365756,1,,,,,,,,,,,,,,,,,,,,,,1075,2019_Mar_14_1404,mf_amp_cond1,3.0.4,60.003848874556745,
prison,halaise,&&&&&&&,right,fairness.vice,,,,,,,0,76,76,76,,,,,,,,,,,,,,,,,,,,,AMP,right,0.6337245886679739,,,right,1,0.6337245886679739,1,,,,,,,,,,,,,,,,,,,,,,1075,2019_Mar_14_1404,mf_amp_cond1,3.0.4,60.003848874556745,
torture,ablow,&&&&&,right,care.vice,,,,,,,0,77,77,77,,,,,,,,,,,,,,,,,,,,,AMP,right,0.9338075264822692,,,right,1,0.9338075264822692,1,,,,,,,,,,,,,,,,,,,,,,1075,2019_Mar_14_1404,mf_amp_cond1,3.0.4,60.003848874556745,
victim,chonograph,&&&&&&&&&&,right,care.vice,,,,,,,0,78,78,78,,,,,,,,,,,,,,,,,,,,,AMP,right,0.817113737721229,,,right,1,0.817113737721229,1,,,,,,,,,,,,,,,,,,,,,,1075,2019_Mar_14_1404,mf_amp_cond1,3.0.4,60.003848874556745,
egpeditious,leact,&&&&&,None,nonword,,,,,,,0,79,79,79,,,,,,,,,,,,,,,,,,,,,AMP,right,0.6670770795899443,,,right,0,0.6670770795899443,0,,,,,,,,,,,,,,,,,,,,,,1075,2019_Mar_14_1404,mf_amp_cond1,3.0.4,60.003848874556745,
fighters,ilportation,&&&&&&&&&&&,right,authority.vice,,,,,,,0,80,80,80,,,,,,,,,,,,,,,,,,,,,AMP,right,0.4670063931844197,,,right,1,0.4670063931844197,1,,,,,,,,,,,,,,,,,,,,,,1075,2019_Mar_14_1404,mf_amp_cond1,3.0.4,60.003848874556745,
agreement,metibolic,&&&&&&&&&,left,fairness.virtue,,,,,,,0,81,81,81,,,,,,,,,,,,,,,,,,,,,AMP,right,0.36699799037887715,,,right,0,0.36699799037887715,0,,,,,,,,,,,,,,,,,,,,,,1075,2019_Mar_14_1404,mf_amp_cond1,3.0.4,60.003848874556745,
intelligence,chonograph,&&&&&&&&&&,left,loyalty.virtue,,,,,,,0,82,82,82,,,,,,,,,,,,,,,,,,,,,AMP,right,0.2169590872072149,,,right,0,0.2169590872072149,0,,,,,,,,,,,,,,,,,,,,,,1075,2019_Mar_14_1404,mf_amp_cond1,3.0.4,60.003848874556745,
good,nomaric,&&&&&&&,left,care.virtue,,,,,,,0,83,83,83,,,,,,,,,,,,,,,,,,,,,AMP,right,0.5503749521449208,,,right,0,0.5503749521449208,0,,,,,,,,,,,,,,,,,,,,,,1075,2019_Mar_14_1404,mf_amp_cond1,3.0.4,60.003848874556745,
serial,tislay,&&&&&&,right,sanctity.vice,,,,,,,0,84,84,84,,,,,,,,,,,,,,,,,,,,,AMP,left,0.38368465917301364,,,left,0,0.38368465917301364,0,,,,,,,,,,,,,,,,,,,,,,1075,2019_Mar_14_1404,mf_amp_cond1,3.0.4,60.003848874556745,
arrests,fangsters,&&&&&&&&&,right,authority.vice,,,,,,,0,85,85,85,,,,,,,,,,,,,,,,,,,,,AMP,left,0.36697201218339615,,,left,0,0.36697201218339615,0,,,,,,,,,,,,,,,,,,,,,,1075,2019_Mar_14_1404,mf_amp_cond1,3.0.4,60.003848874556745,
values,coom,&&&&,left,sanctity.virtue,,,,,,,0,86,86,86,,,,,,,,,,,,,,,,,,,,,AMP,left,0.8837856855534483,,,left,1,0.8837856855534483,1,,,,,,,,,,,,,,,,,,,,,,1075,2019_Mar_14_1404,mf_amp_cond1,3.0.4,60.003848874556745,
great,halaise,&&&&&&&,left,loyalty.virtue,,,,,,,0,87,87,87,,,,,,,,,,,,,,,,,,,,,AMP,left,0.3503100386878941,,,left,1,0.3503100386878941,1,,,,,,,,,,,,,,,,,,,,,,1075,2019_Mar_14_1404,mf_amp_cond1,3.0.4,60.003848874556745,
clattening,letish,&&&&&&,None,nonword,,,,,,,0,88,88,88,,,,,,,,,,,,,,,,,,,,,AMP,right,0.3669935003272258,,,right,0,0.3669935003272258,0,,,,,,,,,,,,,,,,,,,,,,1075,2019_Mar_14_1404,mf_amp_cond1,3.0.4,60.003848874556745,
energy,framatic,&&&&&&&&,left,sanctity.virtue,,,,,,,0,89,89,89,,,,,,,,,,,,,,,,,,,,,AMP,right,0.7004051959083881,,,right,0,0.7004051959083881,0,,,,,,,,,,,,,,,,,,,,,,1075,2019_Mar_14_1404,mf_amp_cond1,3.0.4,60.003848874556745,
terrorist,squets,&&&&&&,right,loyalty.vice,,,,,,,0,90,90,90,,,,,,,,,,,,,,,,,,,,,AMP,left,0.2669629679003265,,,left,0,0.2669629679003265,0,,,,,,,,,,,,,,,,,,,,,,1075,2019_Mar_14_1404,mf_amp_cond1,3.0.4,60.003848874556745,
peace,epigrach,&&&&&&&&,left,care.virtue,,,,,,,0,91,91,91,,,,,,,,,,,,,,,,,,,,,AMP,left,1.0838243000907823,,,left,1,1.0838243000907823,1,,,,,,,,,,,,,,,,,,,,,,1075,2019_Mar_14_1404,mf_amp_cond1,3.0.4,60.003848874556745,
egpeditious,spag,&&&&,None,nonword,,,,,,,0,92,92,92,,,,,,,,,,,,,,,,,,,,,AMP,left,1.2005835154559463,,,left,0,1.2005835154559463,0,,,,,,,,,,,,,,,,,,,,,,1075,2019_Mar_14_1404,mf_amp_cond1,3.0.4,60.003848874556745,
sfumatoy,edancipation,&&&&&&&&&&&&,None,nonword,,,,,,,0,93,93,93,,,,,,,,,,,,,,,,,,,,,AMP,left,0.9504688585584518,,,left,0,0.9504688585584518,0,,,,,,,,,,,,,,,,,,,,,,1075,2019_Mar_14_1404,mf_amp_cond1,3.0.4,60.003848874556745,
care,saned,&&&&&,left,care.virtue,,,,,,,0,94,94,94,,,,,,,,,,,,,,,,,,,,,AMP,right,0.25029361789347604,,,right,0,0.25029361789347604,0,,,,,,,,,,,,,,,,,,,,,,1075,2019_Mar_14_1404,mf_amp_cond1,3.0.4,60.003848874556745,
peaceful,smapper,&&&&&&&,left,authority.virtue,,,,,,,0,95,95,95,,,,,,,,,,,,,,,,,,,,,AMP,right,0.33365576242795214,,,right,0,0.33365576242795214,0,,,,,,,,,,,,,,,,,,,,,,1075,2019_Mar_14_1404,mf_amp_cond1,3.0.4,60.003848874556745,
friends,lenon,&&&&&,left,loyalty.virtue,,,,,,,0,96,96,96,,,,,,,,,,,,,,,,,,,,,AMP,right,1.3672317942546215,,,right,0,1.3672317942546215,0,,,,,,,,,,,,,,,,,,,,,,1075,2019_Mar_14_1404,mf_amp_cond1,3.0.4,60.003848874556745,
prosecution,taxpayung,&&&&&&&&&,right,authority.vice,,,,,,,0,97,97,97,,,,,,,,,,,,,,,,,,,,,AMP,left,0.5670494336227421,,,left,0,0.5670494336227421,0,,,,,,,,,,,,,,,,,,,,,,1075,2019_Mar_14_1404,mf_amp_cond1,3.0.4,60.003848874556745,
scandal,Daptist,&&&&&&&,right,sanctity.vice,,,,,,,0,98,98,98,,,,,,,,,,,,,,,,,,,,,AMP,left,7.00196343936841,,,left,0,7.00196343936841,0,,,,,,,,,,,,,,,,,,,,,,1075,2019_Mar_14_1404,mf_amp_cond1,3.0.4,60.003848874556745,
threatened,clamorek,&&&&&&&&,right,fairness.vice,,,,,,,0,99,99,99,,,,,,,,,,,,,,,,,,,,,AMP,left,0.5837091621069703,,,left,0,0.5837091621069703,0,,,,,,,,,,,,,,,,,,,,,,1075,2019_Mar_14_1404,mf_amp_cond1,3.0.4,60.003848874556745,
riot,imebreaker,&&&&&&&&&&,right,authority.vice,,,,,,,0,100,100,100,,,,,,,,,,,,,,,,,,,,,AMP,left,0.45030272629810497,,,left,0,0.45030272629810497,0,,,,,,,,,,,,,,,,,,,,,,1075,2019_Mar_14_1404,mf_amp_cond1,3.0.4,60.003848874556745,
voter,nuckheap,&&&&&&&&,right,fairness.vice,,,,,,,0,101,101,101,,,,,,,,,,,,,,,,,,,,,AMP,left,0.33364133012946695,,,left,0,0.33364133012946695,0,,,,,,,,,,,,,,,,,,,,,,1075,2019_Mar_14_1404,mf_amp_cond1,3.0.4,60.003848874556745,
quarterbocks,ablow,&&&&&,None,nonword,,,,,,,0,102,102,102,,,,,,,,,,,,,,,,,,,,,AMP,right,0.3170223329216242,,,right,0,0.3170223329216242,0,,,,,,,,,,,,,,,,,,,,,,1075,2019_Mar_14_1404,mf_amp_cond1,3.0.4,60.003848874556745,
injured,reviked,&&&&&&&,right,care.vice,,,,,,,0,103,103,103,,,,,,,,,,,,,,,,,,,,,AMP,left,0.41701149262371473,,,left,0,0.41701149262371473,0,,,,,,,,,,,,,,,,,,,,,,1075,2019_Mar_14_1404,mf_amp_cond1,3.0.4,60.003848874556745,
integrity,noped,&&&&&,left,fairness.virtue,,,,,,,0,104,104,104,,,,,,,,,,,,,,,,,,,,,AMP,right,0.5169891064579133,,,right,0,0.5169891064579133,0,,,,,,,,,,,,,,,,,,,,,,1075,2019_Mar_14_1404,mf_amp_cond1,3.0.4,60.003848874556745,
hate,proached,&&&&&&&&,right,fairness.vice,,,,,,,0,105,105,105,,,,,,,,,,,,,,,,,,,,,AMP,right,1.217218227830017,,,right,1,1.217218227830017,1,,,,,,,,,,,,,,,,,,,,,,1075,2019_Mar_14_1404,mf_amp_cond1,3.0.4,60.003848874556745,
promote,nackers,&&&&&&&,left,sanctity.virtue,,,,,,,0,106,106,106,,,,,,,,,,,,,,,,,,,,,AMP,right,0.46706893332884647,,,right,0,0.46706893332884647,0,,,,,,,,,,,,,,,,,,,,,,1075,2019_Mar_14_1404,mf_amp_cond1,3.0.4,60.003848874556745,
black,bycled,&&&&&&,right,loyalty.vice,,,,,,,0,107,107,107,,,,,,,,,,,,,,,,,,,,,AMP,right,0.7504658437974285,,,right,1,0.7504658437974285,1,,,,,,,,,,,,,,,,,,,,,,1075,2019_Mar_14_1404,mf_amp_cond1,3.0.4,60.003848874556745,
carvels,laming,&&&&&&,None,nonword,,,,,,,0,108,108,108,,,,,,,,,,,,,,,,,,,,,AMP,left,0.7504315268888604,,,left,0,0.7504315268888604,0,,,,,,,,,,,,,,,,,,,,,,1075,2019_Mar_14_1404,mf_amp_cond1,3.0.4,60.003848874556745,
respect,lachelor,&&&&&&&&,left,sanctity.virtue,,,,,,,0,109,109,109,,,,,,,,,,,,,,,,,,,,,AMP,left,0.5170253476826474,,,left,1,0.5170253476826474,1,,,,,,,,,,,,,,,,,,,,,,1075,2019_Mar_14_1404,mf_amp_cond1,3.0.4,60.003848874556745,
embrace,photocalkodes,&&&&&&&&&&&&&,left,authority.virtue,,,,,,,0,110,110,110,,,,,,,,,,,,,,,,,,,,,AMP,left,0.5670568101631943,,,left,1,0.5670568101631943,1,,,,,,,,,,,,,,,,,,,,,,1075,2019_Mar_14_1404,mf_amp_cond1,3.0.4,60.003848874556745,
uller,dramens,&&&&&&&,None,nonword,,,,,,,0,111,111,111,,,,,,,,,,,,,,,,,,,,,AMP,left,0.5503566711849999,,,left,0,0.5503566711849999,0,,,,,,,,,,,,,,,,,,,,,,1075,2019_Mar_14_1404,mf_amp_cond1,3.0.4,60.003848874556745,
drug,tenuflect,&&&&&&&&&,right,sanctity.vice,,,,,,,0,112,112,112,,,,,,,,,,,,,,,,,,,,,AMP,left,0.3336365193245001,,,left,0,0.3336365193245001,0,,,,,,,,,,,,,,,,,,,,,,1075,2019_Mar_14_1404,mf_amp_cond1,3.0.4,60.003848874556745,
officers,Cunday,&&&&&&,right,authority.vice,,,,,,,0,113,113,113,,,,,,,,,,,,,,,,,,,,,AMP,right,0.2502955421805382,,,right,1,0.2502955421805382,1,,,,,,,,,,,,,,,,,,,,,,1075,2019_Mar_14_1404,mf_amp_cond1,3.0.4,60.003848874556745,
men,ammessment,&&&&&&&&&&,right,loyalty.vice,,,,,,,0,114,114,114,,,,,,,,,,,,,,,,,,,,,AMP,right,0.3336410094052553,,,right,1,0.3336410094052553,1,,,,,,,,,,,,,,,,,,,,,,1075,2019_Mar_14_1404,mf_amp_cond1,3.0.4,60.003848874556745,
victim,ning,&&&&,right,care.vice,,,,,,,0,115,115,115,,,,,,,,,,,,,,,,,,,,,AMP,right,0.6504009944910649,,,right,1,0.6504009944910649,1,,,,,,,,,,,,,,,,,,,,,,1075,2019_Mar_14_1404,mf_amp_cond1,3.0.4,60.003848874556745,
troops,rivernoat,&&&&&&&&&,right,loyalty.vice,,,,,,,0,116,116,116,,,,,,,,,,,,,,,,,,,,,AMP,right,0.4336856534064282,,,right,1,0.4336856534064282,1,,,,,,,,,,,,,,,,,,,,,,1075,2019_Mar_14_1404,mf_amp_cond1,3.0.4,60.003848874556745,
interests,alar,&&&&,left,fairness.virtue,,,,,,,0,117,117,117,,,,,,,,,,,,,,,,,,,,,AMP,right,2.3674591837334447,,,right,0,2.3674591837334447,0,,,,,,,,,,,,,,,,,,,,,,1075,2019_Mar_14_1404,mf_amp_cond1,3.0.4,60.003848874556745,
penalty,reelectiob,&&&&&&&&&&,right,authority.vice,,,,,,,0,118,118,118,,,,,,,,,,,,,,,,,,,,,AMP,left,0.5670443021517713,,,left,0,0.5670443021517713,0,,,,,,,,,,,,,,,,,,,,,,1075,2019_Mar_14_1404,mf_amp_cond1,3.0.4,60.003848874556745,
abuse,tracious,&&&&&&&&,right,sanctity.vice,,,,,,,0,119,119,119,,,,,,,,,,,,,,,,,,,,,AMP,right,0.2836435430799611,,,right,1,0.2836435430799611,1,,,,,,,,,,,,,,,,,,,,,,1075,2019_Mar_14_1404,mf_amp_cond1,3.0.4,60.003848874556745,
fighters,pullness,&&&&&&&&,right,authority.vice,,,,,,,0,120,120,120,,,,,,,,,,,,,,,,,,,,,AMP,right,0.4337023307743948,,,right,1,0.4337023307743948,1,,,,,,,,,,,,,,,,,,,,,,1075,2019_Mar_14_1404,mf_amp_cond1,3.0.4,60.003848874556745,
pleasant,chared,&&&&&&,None,control,,,,,,,0,121,121,121,,,,,,,,,,,,,,,,,,,,,AMP,right,0.36698195443022996,,,right,0,0.36698195443022996,0,,,,,,,,,,,,,,,,,,,,,,1075,2019_Mar_14_1404,mf_amp_cond1,3.0.4,60.003848874556745,
prison,rorroborated,&&&&&&&&&&&&,right,fairness.vice,,,,,,,0,122,122,122,,,,,,,,,,,,,,,,,,,,,AMP,left,0.5003576012677513,,,left,0,0.5003576012677513,0,,,,,,,,,,,,,,,,,,,,,,1075,2019_Mar_14_1404,mf_amp_cond1,3.0.4,60.003848874556745,
Lacedonia,shoirmaster,&&&&&&&&&&&,None,nonword,,,,,,,0,123,123,123,,,,,,,,,,,,,,,,,,,,,AMP,left,0.633726512955036,,,left,0,0.633726512955036,0,,,,,,,,,,,,,,,,,,,,,,1075,2019_Mar_14_1404,mf_amp_cond1,3.0.4,60.003848874556745,
help,ilportation,&&&&&&&&&&&,left,care.virtue,,,,,,,0,124,124,124,,,,,,,,,,,,,,,,,,,,,AMP,left,0.3836920357425697,,,left,1,0.3836920357425697,1,,,,,,,,,,,,,,,,,,,,,,1075,2019_Mar_14_1404,mf_amp_cond1,3.0.4,60.003848874556745,
actively,tove,&&&&,left,authority.virtue,,,,,,,0,125,125,125,,,,,,,,,,,,,,,,,,,,,AMP,right,0.6503984287264757,,,right,0,0.6503984287264757,0,,,,,,,,,,,,,,,,,,,,,,1075,2019_Mar_14_1404,mf_amp_cond1,3.0.4,60.003848874556745,
army,honstables,&&&&&&&&&&,right,loyalty.vice,,,,,,,0,126,126,126,,,,,,,,,,,,,,,,,,,,,AMP,left,0.7171062970592175,,,left,0,0.7171062970592175,0,,,,,,,,,,,,,,,,,,,,,,1075,2019_Mar_14_1404,mf_amp_cond1,3.0.4,60.003848874556745,
fair,gikely,&&&&&&,left,fairness.virtue,,,,,,,0,127,127,127,,,,,,,,,,,,,,,,,,,,,AMP,left,0.4836584244039841,,,left,1,0.4836584244039841,1,,,,,,,,,,,,,,,,,,,,,,1075,2019_Mar_14_1404,mf_amp_cond1,3.0.4,60.003848874556745,
loyalty,bluently,&&&&&&&&,left,loyalty.virtue,,,,,,,0,128,128,128,,,,,,,,,,,,,,,,,,,,,AMP,left,0.6003672869701404,,,left,1,0.6003672869701404,1,,,,,,,,,,,,,,,,,,,,,,1075,2019_Mar_14_1404,mf_amp_cond1,3.0.4,60.003848874556745,
benefit,Loorish,&&&&&&&,left,fairness.virtue,,,,,,,0,129,129,129,,,,,,,,,,,,,,,,,,,,,AMP,right,0.166969959565904,,,right,0,0.166969959565904,0,,,,,,,,,,,,,,,,,,,,,,1075,2019_Mar_14_1404,mf_amp_cond1,3.0.4,60.003848874556745,
trust,Phintoism,&&&&&&&&&,left,authority.virtue,,,,,,,0,130,130,130,,,,,,,,,,,,,,,,,,,,,AMP,left,0.4170018710719887,,,left,1,0.4170018710719887,1,,,,,,,,,,,,,,,,,,,,,,1075,2019_Mar_14_1404,mf_amp_cond1,3.0.4,60.003848874556745,
safe,openet,&&&&&&,left,care.virtue,,,,,,,0,131,131,131,,,,,,,,,,,,,,,,,,,,,AMP,right,0.4002763953176327,,,right,0,0.4002763953176327,0,,,,,,,,,,,,,,,,,,,,,,1075,2019_Mar_14_1404,mf_amp_cond1,3.0.4,60.003848874556745,
racist,brudent,&&&&&&&,right,sanctity.vice,,,,,,,0,132,132,132,,,,,,,,,,,,,,,,,,,,,AMP,left,4.517991352127865,,,left,0,4.517991352127865,0,,,,,,,,,,,,,,,,,,,,,,1075,2019_Mar_14_1404,mf_amp_cond1,3.0.4,60.003848874556745,
torture,gedious,&&&&&&&,right,care.vice,,,,,,,0,133,133,133,,,,,,,,,,,,,,,,,,,,,AMP,left,0.43368501198710874,,,left,0,0.43368501198710874,0,,,,,,,,,,,,,,,,,,,,,,1075,2019_Mar_14_1404,mf_amp_cond1,3.0.4,60.003848874556745,
celebrated,frocessing,&&&&&&&&&&,left,authority.virtue,,,,,,,0,134,134,134,,,,,,,,,,,,,,,,,,,,,AMP,right,0.3503132458718028,,,right,0,0.3503132458718028,0,,,,,,,,,,,,,,,,,,,,,,1075,2019_Mar_14_1404,mf_amp_cond1,3.0.4,60.003848874556745,
accused,strofe,&&&&&&,right,fairness.vice,,,,,,,0,135,135,135,,,,,,,,,,,,,,,,,,,,,AMP,right,0.5337312596093398,,,right,1,0.5337312596093398,1,,,,,,,,,,,,,,,,,,,,,,1075,2019_Mar_14_1404,mf_amp_cond1,3.0.4,60.003848874556745,
victims,crinking,&&&&&&&&,right,care.vice,,,,,,,0,136,136,136,,,,,,,,,,,,,,,,,,,,,AMP,right,0.4503184414934367,,,right,1,0.4503184414934367,1,,,,,,,,,,,,,,,,,,,,,,1075,2019_Mar_14_1404,mf_amp_cond1,3.0.4,60.003848874556745,
feleological,unscothed,&&&&&&&&&,None,nonword,,,,,,,0,137,137,137,,,,,,,,,,,,,,,,,,,,,AMP,left,0.30030583729967475,,,left,0,0.30030583729967475,0,,,,,,,,,,,,,,,,,,,,,,1075,2019_Mar_14_1404,mf_amp_cond1,3.0.4,60.003848874556745,
lies,disregord,&&&&&&&&&,right,fairness.vice,,,,,,,0,138,138,138,,,,,,,,,,,,,,,,,,,,,AMP,left,1.267211845552083,,,left,0,1.267211845552083,0,,,,,,,,,,,,,,,,,,,,,,1075,2019_Mar_14_1404,mf_amp_cond1,3.0.4,60.003848874556745,
fraud,chreams,&&&&&&&,right,fairness.vice,,,,,,,0,139,139,139,,,,,,,,,,,,,,,,,,,,,AMP,right,1.150516132474877,,,right,1,1.150516132474877,1,,,,,,,,,,,,,,,,,,,,,,1075,2019_Mar_14_1404,mf_amp_cond1,3.0.4,60.003848874556745,
ability,fegard,&&&&&&,left,authority.virtue,,,,,,,0,140,140,140,,,,,,,,,,,,,,,,,,,,,AMP,left,0.9838114071753807,,,left,1,0.9838114071753807,1,,,,,,,,,,,,,,,,,,,,,,1075,2019_Mar_14_1404,mf_amp_cond1,3.0.4,60.003848874556745,
agreement,erks,&&&&,left,fairness.virtue,,,,,,,0,141,141,141,,,,,,,,,,,,,,,,,,,,,AMP,right,0.8838562436576467,,,right,0,0.8838562436576467,0,,,,,,,,,,,,,,,,,,,,,,1075,2019_Mar_14_1404,mf_amp_cond1,3.0.4,60.003848874556745,
sexual,iptervention,&&&&&&&&&&&&,right,sanctity.vice,,,,,,,0,142,142,142,,,,,,,,,,,,,,,,,,,,,AMP,right,1.6006168060412165,,,right,1,1.6006168060412165,1,,,,,,,,,,,,,,,,,,,,,,1075,2019_Mar_14_1404,mf_amp_cond1,3.0.4,60.003848874556745,
shoirmaster,papert,&&&&&&,None,nonword,,,,,,,0,143,143,143,,,,,,,,,,,,,,,,,,,,,AMP,right,1.6339619204227347,,,right,0,1.6339619204227347,0,,,,,,,,,,,,,,,,,,,,,,1075,2019_Mar_14_1404,mf_amp_cond1,3.0.4,60.003848874556745,
perfect,gazily,&&&&&&,left,sanctity.virtue,,,,,,,0,144,144,144,,,,,,,,,,,,,,,,,,,,,AMP,right,0.6337236265244428,,,right,0,0.6337236265244428,0,,,,,,,,,,,,,,,,,,,,,,1075,2019_Mar_14_1404,mf_amp_cond1,3.0.4,60.003848874556745,
violations,seachwear,&&&&&&&&&,right,sanctity.vice,,,,,,,0,145,145,145,,,,,,,,,,,,,,,,,,,,,AMP,right,0.3169780737662222,,,right,1,0.3169780737662222,1,,,,,,,,,,,,,,,,,,,,,,1075,2019_Mar_14_1404,mf_amp_cond1,3.0.4,60.003848874556745,
gun,hefurbished,&&&&&&&&&&&,right,authority.vice,,,,,,,0,146,146,146,,,,,,,,,,,,,,,,,,,,,AMP,left,0.35018014765228145,,,left,0,0.35018014765228145,0,,,,,,,,,,,,,,,,,,,,,,1075,2019_Mar_14_1404,mf_amp_cond1,3.0.4,60.003848874556745,
civilians,pistraught,&&&&&&&&&&,right,care.vice,,,,,,,0,147,147,147,,,,,,,,,,,,,,,,,,,,,AMP,right,0.4670083175005857,,,right,1,0.4670083175005857,1,,,,,,,,,,,,,,,,,,,,,,1075,2019_Mar_14_1404,mf_amp_cond1,3.0.4,60.003848874556745,
gowlands,refuejing,&&&&&&&&&,None,nonword,,,,,,,0,148,148,148,,,,,,,,,,,,,,,,,,,,,AMP,right,0.8838030043698382,,,right,0,0.8838030043698382,0,,,,,,,,,,,,,,,,,,,,,,1075,2019_Mar_14_1404,mf_amp_cond1,3.0.4,60.003848874556745,
powerful,pumber,&&&&&&,left,authority.virtue,,,,,,,0,149,149,149,,,,,,,,,,,,,,,,,,,,,AMP,right,0.9171250270155724,,,right,0,0.9171250270155724,0,,,,,,,,,,,,,,,,,,,,,,1075,2019_Mar_14_1404,mf_amp_cond1,3.0.4,60.003848874556745,
shot,focomotive,&&&&&&&&&&,right,care.vice,,,,,,,0,150,150,150,,,,,,,,,,,,,,,,,,,,,AMP,left,0.7504199810209684,,,left,0,0.7504199810209684,0,,,,,,,,,,,,,,,,,,,,,,1075,2019_Mar_14_1404,mf_amp_cond1,3.0.4,60.003848874556745,
death,metibolic,&&&&&&&&&,right,care.vice,,,,,,,0,151,151,151,,,,,,,,,,,,,,,,,,,,,AMP,left,4.968166111735627,,,left,0,4.968166111735627,0,,,,,,,,,,,,,,,,,,,,,,1075,2019_Mar_14_1404,mf_amp_cond1,3.0.4,60.003848874556745,
commitment,pescinded,&&&&&&&&&,left,sanctity.virtue,,,,,,,0,152,152,152,,,,,,,,,,,,,,,,,,,,,AMP,left,0.8504450612235814,,,left,1,0.8504450612235814,1,,,,,,,,,,,,,,,,,,,,,,1075,2019_Mar_14_1404,mf_amp_cond1,3.0.4,60.003848874556745,
support,lursuer,&&&&&&&,left,loyalty.virtue,,,,,,,0,153,153,153,,,,,,,,,,,,,,,,,,,,,AMP,right,0.5837126900150906,,,right,0,0.5837126900150906,0,,,,,,,,,,,,,,,,,,,,,,1075,2019_Mar_14_1404,mf_amp_cond1,3.0.4,60.003848874556745,
unpleasant,idexpressible,&&&&&&&&&&&&&,None,control,,,,,,,0,154,154,154,,,,,,,,,,,,,,,,,,,,,AMP,left,0.6170748024887871,,,left,0,0.6170748024887871,0,,,,,,,,,,,,,,,,,,,,,,1075,2019_Mar_14_1404,mf_amp_cond1,3.0.4,60.003848874556745,
freedom,presentkess,&&&&&&&&&&&,left,sanctity.virtue,,,,,,,0,155,155,155,,,,,,,,,,,,,,,,,,,,,AMP,right,0.45034666475839913,,,right,0,0.45034666475839913,0,,,,,,,,,,,,,,,,,,,,,,1075,2019_Mar_14_1404,mf_amp_cond1,3.0.4,60.003848874556745,
free,sowntrodden,&&&&&&&&&&&,left,fairness.virtue,,,,,,,0,156,156,156,,,,,,,,,,,,,,,,,,,,,AMP,left,0.500356959819328,,,left,1,0.500356959819328,1,,,,,,,,,,,,,,,,,,,,,,1075,2019_Mar_14_1404,mf_amp_cond1,3.0.4,60.003848874556745,
promises,scock,&&&&&,left,fairness.virtue,,,,,,,0,157,157,157,,,,,,,,,,,,,,,,,,,,,AMP,left,1.06715879868716,,,left,1,1.06715879868716,1,,,,,,,,,,,,,,,,,,,,,,1075,2019_Mar_14_1404,mf_amp_cond1,3.0.4,60.003848874556745,
compassion,ittutable,&&&&&&&&&,left,care.virtue,,,,,,,0,158,158,158,,,,,,,,,,,,,,,,,,,,,AMP,left,0.6003820399928372,,,left,1,0.6003820399928372,1,,,,,,,,,,,,,,,,,,,,,,1075,2019_Mar_14_1404,mf_amp_cond1,3.0.4,60.003848874556745,
health,godlaness,&&&&&&&&&,left,care.virtue,,,,,,,0,159,159,159,,,,,,,,,,,,,,,,,,,,,AMP,right,0.6504109367670026,,,right,0,0.6504109367670026,0,,,,,,,,,,,,,,,,,,,,,,1075,2019_Mar_14_1404,mf_amp_cond1,3.0.4,60.003848874556745,
love,perified,&&&&&&&&,left,loyalty.virtue,,,,,,,0,160,160,160,,,,,,,,,,,,,,,,,,,,,AMP,right,6.0850478415959515,,,right,0,6.0850478415959515,0,,,,,,,,,,,,,,,,,,,,,,1075,2019_Mar_14_1404,mf_amp_cond1,3.0.4,60.003848874556745,
blamed,menizen,&&&&&&&,right,loyalty.vice,,,,,,,0,161,161,161,,,,,,,,,,,,,,,,,,,,,AMP,left,0.5670677146117669,,,left,0,0.5670677146117669,0,,,,,,,,,,,,,,,,,,,,,,1075,2019_Mar_14_1404,mf_amp_cond1,3.0.4,60.003848874556745,
failure,leact,&&&&&,right,loyalty.vice,,,,,,,0,162,162,162,,,,,,,,,,,,,,,,,,,,,AMP,right,1.1505154910555575,,,right,1,1.1505154910555575,1,,,,,,,,,,,,,,,,,,,,,,1075,2019_Mar_14_1404,mf_amp_cond1,3.0.4,60.003848874556745,
sharing,divility,&&&&&&&&,left,loyalty.virtue,,,,,,,0,163,163,163,,,,,,,,,,,,,,,,,,,,,AMP,right,0.8838119844731409,,,right,0,0.8838119844731409,0,,,,,,,,,,,,,,,,,,,,,,1075,2019_Mar_14_1404,mf_amp_cond1,3.0.4,60.003848874556745,
care,ning,&&&&,left,care.virtue,,,,,,,0,164,164,164,,,,,,,,,,,,,,,,,,,,,AMP,right,0.5670555272954516,,,right,0,0.5670555272954516,0,,,,,,,,,,,,,,,,,,,,,,1075,2019_Mar_14_1404,mf_amp_cond1,3.0.4,60.003848874556745,
perfect,tislay,&&&&&&,left,sanctity.virtue,,,,,,,0,165,165,165,,,,,,,,,,,,,,,,,,,,,AMP,right,1.3339020743442234,,,right,0,1.3339020743442234,0,,,,,,,,,,,,,,,,,,,,,,1075,2019_Mar_14_1404,mf_amp_cond1,3.0.4,60.003848874556745,
egpeditious,nomaric,&&&&&&&,None,nonword,,,,,,,0,166,166,166,,,,,,,,,,,,,,,,,,,,,AMP,right,0.2336281164898537,,,right,0,0.2336281164898537,0,,,,,,,,,,,,,,,,,,,,,,1075,2019_Mar_14_1404,mf_amp_cond1,3.0.4,60.003848874556745,
help,idexpressible,&&&&&&&&&&&&&,left,care.virtue,,,,,,,0,167,167,167,,,,,,,,,,,,,,,,,,,,,AMP,left,0.41700122962356545,,,left,1,0.41700122962356545,1,,,,,,,,,,,,,,,,,,,,,,1075,2019_Mar_14_1404,mf_amp_cond1,3.0.4,60.003848874556745,
penalty,ammessment,&&&&&&&&&&,right,authority.vice,,,,,,,0,168,168,168,,,,,,,,,,,,,,,,,,,,,AMP,right,0.2836371286830399,,,right,1,0.2836371286830399,1,,,,,,,,,,,,,,,,,,,,,,1075,2019_Mar_14_1404,mf_amp_cond1,3.0.4,60.003848874556745,
fighters,chonograph,&&&&&&&&&&,right,authority.vice,,,,,,,0,169,169,169,,,,,,,,,,,,,,,,,,,,,AMP,right,0.3169873745937366,,,right,1,0.3169873745937366,1,,,,,,,,,,,,,,,,,,,,,,1075,2019_Mar_14_1404,mf_amp_cond1,3.0.4,60.003848874556745,
troops,coom,&&&&,right,loyalty.vice,,,,,,,0,170,170,170,,,,,,,,,,,,,,,,,,,,,AMP,right,0.2002817192405928,,,right,1,0.2002817192405928,1,,,,,,,,,,,,,,,,,,,,,,1075,2019_Mar_14_1404,mf_amp_cond1,3.0.4,60.003848874556745,
sharing,bycled,&&&&&&,left,loyalty.virtue,,,,,,,0,171,171,171,,,,,,,,,,,,,,,,,,,,,AMP,right,0.10031244409037754,,,right,0,0.10031244409037754,0,,,,,,,,,,,,,,,,,,,,,,1075,2019_Mar_14_1404,mf_amp_cond1,3.0.4,60.003848874556745,
great,godlaness,&&&&&&&&&,left,loyalty.virtue,,,,,,,0,172,172,172,,,,,,,,,,,,,,,,,,,,,AMP,right,0.6337326066277456,,,right,0,0.6337326066277456,0,,,,,,,,,,,,,,,,,,,,,,1075,2019_Mar_14_1404,mf_amp_cond1,3.0.4,60.003848874556745,
prosecution,tracious,&&&&&&&&,right,authority.vice,,,,,,,0,173,173,173,,,,,,,,,,,,,,,,,,,,,AMP,right,1.3172391387051903,,,right,1,1.3172391387051903,1,,,,,,,,,,,,,,,,,,,,,,1075,2019_Mar_14_1404,mf_amp_cond1,3.0.4,60.003848874556745,
embrace,Phintoism,&&&&&&&&&,left,authority.virtue,,,,,,,0,174,174,174,,,,,,,,,,,,,,,,,,,,,AMP,right,0.28365027814288624,,,right,0,0.28365027814288624,0,,,,,,,,,,,,,,,,,,,,,,1075,2019_Mar_14_1404,mf_amp_cond1,3.0.4,60.003848874556745,
torture,noped,&&&&&,right,care.vice,,,,,,,0,175,175,175,,,,,,,,,,,,,,,,,,,,,AMP,right,0.3503148494637571,,,right,1,0.3503148494637571,1,,,,,,,,,,,,,,,,,,,,,,1075,2019_Mar_14_1404,mf_amp_cond1,3.0.4,60.003848874556745,
shot,ablow,&&&&&,right,care.vice,,,,,,,0,176,176,176,,,,,,,,,,,,,,,,,,,,,AMP,right,0.1837358459015377,,,right,1,0.1837358459015377,1,,,,,,,,,,,,,,,,,,,,,,1075,2019_Mar_14_1404,mf_amp_cond1,3.0.4,60.003848874556745,
peaceful,gikely,&&&&&&,left,authority.virtue,,,,,,,0,177,177,177,,,,,,,,,,,,,,,,,,,,,AMP,right,0.2169703123799991,,,right,0,0.2169703123799991,0,,,,,,,,,,,,,,,,,,,,,,1075,2019_Mar_14_1404,mf_amp_cond1,3.0.4,60.003848874556745,
Lacedonia,chreams,&&&&&&&,None,nonword,,,,,,,0,178,178,178,,,,,,,,,,,,,,,,,,,,,AMP,left,0.46700543104088865,,,left,0,0.46700543104088865,0,,,,,,,,,,,,,,,,,,,,,,1075,2019_Mar_14_1404,mf_amp_cond1,3.0.4,60.003848874556745,
men,refuejing,&&&&&&&&&,right,loyalty.vice,,,,,,,0,179,179,179,,,,,,,,,,,,,,,,,,,,,AMP,left,0.4003331624844577,,,left,0,0.4003331624844577,0,,,,,,,,,,,,,,,,,,,,,,1075,2019_Mar_14_1404,mf_amp_cond1,3.0.4,60.003848874556745,
ability,squets,&&&&&&,left,authority.virtue,,,,,,,0,180,180,180,,,,,,,,,,,,,,,,,,,,,AMP,left,1.1671803509816527,,,left,1,1.1671803509816527,1,,,,,,,,,,,,,,,,,,,,,,1075,2019_Mar_14_1404,mf_amp_cond1,3.0.4,60.003848874556745,
free,edancipation,&&&&&&&&&&&&,left,fairness.virtue,,,,,,,0,181,181,181,,,,,,,,,,,,,,,,,,,,,AMP,left,0.5003316230431665,,,left,1,0.5003316230431665,1,,,,,,,,,,,,,,,,,,,,,,1075,2019_Mar_14_1404,mf_amp_cond1,3.0.4,60.003848874556745,
safe,alar,&&&&,left,care.virtue,,,,,,,0,182,182,182,,,,,,,,,,,,,,,,,,,,,AMP,right,0.26696617508423515,,,right,0,0.26696617508423515,0,,,,,,,,,,,,,,,,,,,,,,1075,2019_Mar_14_1404,mf_amp_cond1,3.0.4,60.003848874556745,
gowlands,lursuer,&&&&&&&,None,nonword,,,,,,,0,183,183,183,,,,,,,,,,,,,,,,,,,,,AMP,right,0.8337702589924447,,,right,0,0.8337702589924447,0,,,,,,,,,,,,,,,,,,,,,,1075,2019_Mar_14_1404,mf_amp_cond1,3.0.4,60.003848874556745,
blamed,spag,&&&&,right,loyalty.vice,,,,,,,0,184,184,184,,,,,,,,,,,,,,,,,,,,,AMP,left,0.6003765877976548,,,left,0,0.6003765877976548,0,,,,,,,,,,,,,,,,,,,,,,1075,2019_Mar_14_1404,mf_amp_cond1,3.0.4,60.003848874556745,
serial,lenon,&&&&&,right,sanctity.vice,,,,,,,0,185,185,185,,,,,,,,,,,,,,,,,,,,,AMP,right,0.7170755080587696,,,right,1,0.7170755080587696,1,,,,,,,,,,,,,,,,,,,,,,1075,2019_Mar_14_1404,mf_amp_cond1,3.0.4,60.003848874556745,
actively,menizen,&&&&&&&,left,authority.virtue,,,,,,,0,186,186,186,,,,,,,,,,,,,,,,,,,,,AMP,left,0.5503804043401033,,,left,1,0.5503804043401033,1,,,,,,,,,,,,,,,,,,,,,,1075,2019_Mar_14_1404,mf_amp_cond1,3.0.4,60.003848874556745,
pleasant,honstables,&&&&&&&&&&,None,control,,,,,,,0,187,187,187,,,,,,,,,,,,,,,,,,,,,AMP,left,0.3503170944750309,,,left,0,0.3503170944750309,0,,,,,,,,,,,,,,,,,,,,,,1075,2019_Mar_14_1404,mf_amp_cond1,3.0.4,60.003848874556745,
shoirmaster,halaise,&&&&&&&,None,nonword,,,,,,,0,188,188,188,,,,,,,,,,,,,,,,,,,,,AMP,left,0.333675005560508,,,left,0,0.333675005560508,0,,,,,,,,,,,,,,,,,,,,,,1075,2019_Mar_14_1404,mf_amp_cond1,3.0.4,60.003848874556745,
racist,letish,&&&&&&,right,sanctity.vice,,,,,,,0,189,189,189,,,,,,,,,,,,,,,,,,,,,AMP,left,0.5170477979991119,,,left,0,0.5170477979991119,0,,,,,,,,,,,,,,,,,,,,,,1075,2019_Mar_14_1404,mf_amp_cond1,3.0.4,60.003848874556745,
victim,hefurbished,&&&&&&&&&&&,right,care.vice,,,,,,,0,190,190,190,,,,,,,,,,,,,,,,,,,,,AMP,left,0.6003791535331402,,,left,0,0.6003791535331402,0,,,,,,,,,,,,,,,,,,,,,,1075,2019_Mar_14_1404,mf_amp_cond1,3.0.4,60.003848874556745,
fair,papert,&&&&&&,left,fairness.virtue,,,,,,,0,191,191,191,,,,,,,,,,,,,,,,,,,,,AMP,right,0.06693942716810852,,,right,0,0.06693942716810852,0,,,,,,,,,,,,,,,,,,,,,,1075,2019_Mar_14_1404,mf_amp_cond1,3.0.4,60.003848874556745,
respect,dramens,&&&&&&&,left,sanctity.virtue,,,,,,,0,192,192,192,,,,,,,,,,,,,,,,,,,,,AMP,right,0.13361265786807053,,,right,0,0.13361265786807053,0,,,,,,,,,,,,,,,,,,,,,,1075,2019_Mar_14_1404,mf_amp_cond1,3.0.4,60.003848874556745,
threatened,brudent,&&&&&&&,right,fairness.vice,,,,,,,0,193,193,193,,,,,,,,,,,,,,,,,,,,,AMP,right,0.4170098890608642,,,right,1,0.4170098890608642,1,,,,,,,,,,,,,,,,,,,,,,1075,2019_Mar_14_1404,mf_amp_cond1,3.0.4,60.003848874556745,
abuse,scock,&&&&&,right,sanctity.vice,,,,,,,0,194,194,194,,,,,,,,,,,,,,,,,,,,,AMP,right,0.9671410950249992,,,right,1,0.9671410950249992,1,,,,,,,,,,,,,,,,,,,,,,1075,2019_Mar_14_1404,mf_amp_cond1,3.0.4,60.003848874556745,
arrests,smapper,&&&&&&&,right,authority.vice,,,,,,,0,195,195,195,,,,,,,,,,,,,,,,,,,,,AMP,left,0.5670487922034226,,,left,0,0.5670487922034226,0,,,,,,,,,,,,,,,,,,,,,,1075,2019_Mar_14_1404,mf_amp_cond1,3.0.4,60.003848874556745,
officers,bluently,&&&&&&&&,right,authority.vice,,,,,,,0,196,196,196,,,,,,,,,,,,,,,,,,,,,AMP,right,0.5003547147789504,,,right,1,0.5003547147789504,1,,,,,,,,,,,,,,,,,,,,,,1075,2019_Mar_14_1404,mf_amp_cond1,3.0.4,60.003848874556745,
hate,tove,&&&&,right,fairness.vice,,,,,,,0,197,197,197,,,,,,,,,,,,,,,,,,,,,AMP,left,1.000480757211335,,,left,0,1.000480757211335,0,,,,,,,,,,,,,,,,,,,,,,1075,2019_Mar_14_1404,mf_amp_cond1,3.0.4,60.003848874556745,
promises,iptervention,&&&&&&&&&&&&,left,fairness.virtue,,,,,,,0,198,198,198,,,,,,,,,,,,,,,,,,,,,AMP,right,0.8169652450305875,,,right,0,0.8169652450305875,0,,,,,,,,,,,,,,,,,,,,,,1075,2019_Mar_14_1404,mf_amp_cond1,3.0.4,60.003848874556745,
lies,tenuflect,&&&&&&&&&,right,fairness.vice,,,,,,,0,199,199,199,,,,,,,,,,,,,,,,,,,,,AMP,right,1.3505640478397254,,,right,1,1.3505640478397254,1,,,,,,,,,,,,,,,,,,,,,,1075,2019_Mar_14_1404,mf_amp_cond1,3.0.4,60.003848874556745,
civilians,Loorish,&&&&&&&,right,care.vice,,,,,,,0,200,200,200,,,,,,,,,,,,,,,,,,,,,AMP,left,0.5504179284325801,,,left,0,0.5504179284325801,0,,,,,,,,,,,,,,,,,,,,,,1075,2019_Mar_14_1404,mf_amp_cond1,3.0.4,60.003848874556745,
freedom,proached,&&&&&&&&,left,sanctity.virtue,,,,,,,0,201,201,201,,,,,,,,,,,,,,,,,,,,,AMP,left,1.3338927734876052,,,left,1,1.3338927734876052,1,,,,,,,,,,,,,,,,,,,,,,1075,2019_Mar_14_1404,mf_amp_cond1,3.0.4,60.003848874556745,
violations,framatic,&&&&&&&&,right,sanctity.vice,,,,,,,0,202,202,202,,,,,,,,,,,,,,,,,,,,,AMP,right,0.5003601670032367,,,right,1,0.5003601670032367,1,,,,,,,,,,,,,,,,,,,,,,1075,2019_Mar_14_1404,mf_amp_cond1,3.0.4,60.003848874556745,
terrorist,fegard,&&&&&&,right,loyalty.vice,,,,,,,0,203,203,203,,,,,,,,,,,,,,,,,,,,,AMP,left,0.7837529081152752,,,left,0,0.7837529081152752,0,,,,,,,,,,,,,,,,,,,,,,1075,2019_Mar_14_1404,mf_amp_cond1,3.0.4,60.003848874556745,
uller,clamorek,&&&&&&&&,None,nonword,,,,,,,0,204,204,204,,,,,,,,,,,,,,,,,,,,,AMP,right,0.6670806074980646,,,right,0,0.6670806074980646,0,,,,,,,,,,,,,,,,,,,,,,1075,2019_Mar_14_1404,mf_amp_cond1,3.0.4,60.003848874556745,
black,ilportation,&&&&&&&&&&&,right,loyalty.vice,,,,,,,0,205,205,205,,,,,,,,,,,,,,,,,,,,,AMP,left,0.3503270367800724,,,left,0,0.3503270367800724,0,,,,,,,,,,,,,,,,,,,,,,1075,2019_Mar_14_1404,mf_amp_cond1,3.0.4,60.003848874556745,
trust,chared,&&&&&&,left,authority.virtue,,,,,,,0,206,206,206,,,,,,,,,,,,,,,,,,,,,AMP,left,0.4503498719423078,,,left,1,0.4503498719423078,1,,,,,,,,,,,,,,,,,,,,,,1075,2019_Mar_14_1404,mf_amp_cond1,3.0.4,60.003848874556745,
feleological,metibolic,&&&&&&&&&,None,nonword,,,,,,,0,207,207,207,,,,,,,,,,,,,,,,,,,,,AMP,right,0.3503158116072882,,,right,0,0.3503158116072882,0,,,,,,,,,,,,,,,,,,,,,,1075,2019_Mar_14_1404,mf_amp_cond1,3.0.4,60.003848874556745,
quarterbocks,presentkess,&&&&&&&&&&&,None,nonword,,,,,,,0,208,208,208,,,,,,,,,,,,,,,,,,,,,AMP,right,0.7004000644083135,,,right,0,0.7004000644083135,0,,,,,,,,,,,,,,,,,,,,,,1075,2019_Mar_14_1404,mf_amp_cond1,3.0.4,60.003848874556745,
unpleasant,Cunday,&&&&&&,None,control,,,,,,,0,209,209,209,,,,,,,,,,,,,,,,,,,,,AMP,left,0.5170320827455726,,,left,0,0.5170320827455726,0,,,,,,,,,,,,,,,,,,,,,,1075,2019_Mar_14_1404,mf_amp_cond1,3.0.4,60.003848874556745,
drug,gedious,&&&&&&&,right,sanctity.vice,,,,,,,0,210,210,210,,,,,,,,,,,,,,,,,,,,,AMP,left,0.46701024181675166,,,left,0,0.46701024181675166,0,,,,,,,,,,,,,,,,,,,,,,1075,2019_Mar_14_1404,mf_amp_cond1,3.0.4,60.003848874556745,
support,seachwear,&&&&&&&&&,left,loyalty.virtue,,,,,,,0,211,211,211,,,,,,,,,,,,,,,,,,,,,AMP,right,0.25028784494497813,,,right,0,0.25028784494497813,0,,,,,,,,,,,,,,,,,,,,,,1075,2019_Mar_14_1404,mf_amp_cond1,3.0.4,60.003848874556745,
health,frocessing,&&&&&&&&&&,left,care.virtue,,,,,,,0,212,212,212,,,,,,,,,,,,,,,,,,,,,AMP,right,0.45034730617771856,,,right,0,0.45034730617771856,0,,,,,,,,,,,,,,,,,,,,,,1075,2019_Mar_14_1404,mf_amp_cond1,3.0.4,60.003848874556745,
interests,crinking,&&&&&&&&,left,fairness.virtue,,,,,,,0,213,213,213,,,,,,,,,,,,,,,,,,,,,AMP,right,0.5671036351122893,,,right,0,0.5671036351122893,0,,,,,,,,,,,,,,,,,,,,,,1075,2019_Mar_14_1404,mf_amp_cond1,3.0.4,60.003848874556745,
values,rivernoat,&&&&&&&&&,left,sanctity.virtue,,,,,,,0,214,214,214,,,,,,,,,,,,,,,,,,,,,AMP,right,0.33365383814089,,,right,0,0.33365383814089,0,,,,,,,,,,,,,,,,,,,,,,1075,2019_Mar_14_1404,mf_amp_cond1,3.0.4,60.003848874556745,
carvels,perified,&&&&&&&&,None,nonword,,,,,,,0,215,215,215,,,,,,,,,,,,,,,,,,,,,AMP,right,0.9004569598764647,,,right,0,0.9004569598764647,0,,,,,,,,,,,,,,,,,,,,,,1075,2019_Mar_14_1404,mf_amp_cond1,3.0.4,60.003848874556745,
riot,strofe,&&&&&&,right,authority.vice,,,,,,,0,216,216,216,,,,,,,,,,,,,,,,,,,,,AMP,right,1.133839726622682,,,right,1,1.133839726622682,1,,,,,,,,,,,,,,,,,,,,,,1075,2019_Mar_14_1404,mf_amp_cond1,3.0.4,60.003848874556745,
integrity,laming,&&&&&&,left,fairness.virtue,,,,,,,0,217,217,217,,,,,,,,,,,,,,,,,,,,,AMP,right,0.2336233057139907,,,right,0,0.2336233057139907,0,,,,,,,,,,,,,,,,,,,,,,1075,2019_Mar_14_1404,mf_amp_cond1,3.0.4,60.003848874556745,
death,epigrach,&&&&&&&&,right,care.vice,,,,,,,0,218,218,218,,,,,,,,,,,,,,,,,,,,,AMP,left,0.43368276694673114,,,left,0,0.43368276694673114,0,,,,,,,,,,,,,,,,,,,,,,1075,2019_Mar_14_1404,mf_amp_cond1,3.0.4,60.003848874556745,
loyalty,focomotive,&&&&&&&&&&,left,loyalty.virtue,,,,,,,0,219,219,219,,,,,,,,,,,,,,,,,,,,,AMP,left,0.30030744086252525,,,left,1,0.30030744086252525,1,,,,,,,,,,,,,,,,,,,,,,1075,2019_Mar_14_1404,mf_amp_cond1,3.0.4,60.003848874556745,
sfumatoy,openet,&&&&&&,None,nonword,,,,,,,0,220,220,220,,,,,,,,,,,,,,,,,,,,,AMP,right,0.46700062026502565,,,right,0,0.46700062026502565,0,,,,,,,,,,,,,,,,,,,,,,1075,2019_Mar_14_1404,mf_amp_cond1,3.0.4,60.003848874556745,
army,fangsters,&&&&&&&&&,right,loyalty.vice,,,,,,,0,221,221,221,,,,,,,,,,,,,,,,,,,,,AMP,left,0.31698512958246283,,,left,0,0.31698512958246283,0,,,,,,,,,,,,,,,,,,,,,,1075,2019_Mar_14_1404,mf_amp_cond1,3.0.4,60.003848874556745,
good,reviked,&&&&&&&,left,care.virtue,,,,,,,0,222,222,222,,,,,,,,,,,,,,,,,,,,,AMP,right,0.4670198633975815,,,right,0,0.4670198633975815,0,,,,,,,,,,,,,,,,,,,,,,1075,2019_Mar_14_1404,mf_amp_cond1,3.0.4,60.003848874556745,
sexual,ittutable,&&&&&&&&&,right,sanctity.vice,,,,,,,0,223,223,223,,,,,,,,,,,,,,,,,,,,,AMP,left,0.6337319651793223,,,left,0,0.6337319651793223,0,,,,,,,,,,,,,,,,,,,,,,1075,2019_Mar_14_1404,mf_amp_cond1,3.0.4,60.003848874556745,
celebrated,imebreaker,&&&&&&&&&&,left,authority.virtue,,,,,,,0,224,224,224,,,,,,,,,,,,,,,,,,,,,AMP,right,0.40036266861716285,,,right,0,0.40036266861716285,0,,,,,,,,,,,,,,,,,,,,,,1075,2019_Mar_14_1404,mf_amp_cond1,3.0.4,60.003848874556745,
voter,Daptist,&&&&&&&,right,fairness.vice,,,,,,,0,225,225,225,,,,,,,,,,,,,,,,,,,,,AMP,left,0.600387812970439,,,left,0,0.600387812970439,0,,,,,,,,,,,,,,,,,,,,,,1075,2019_Mar_14_1404,mf_amp_cond1,3.0.4,60.003848874556745,
prison,divility,&&&&&&&&,right,fairness.vice,,,,,,,0,226,226,226,,,,,,,,,,,,,,,,,,,,,AMP,right,0.16694622638169676,,,right,1,0.16694622638169676,1,,,,,,,,,,,,,,,,,,,,,,1075,2019_Mar_14_1404,mf_amp_cond1,3.0.4,60.003848874556745,
energy,lachelor,&&&&&&&&,left,sanctity.virtue,,,,,,,0,227,227,227,,,,,,,,,,,,,,,,,,,,,AMP,right,0.4169720442441758,,,right,0,0.4169720442441758,0,,,,,,,,,,,,,,,,,,,,,,1075,2019_Mar_14_1404,mf_amp_cond1,3.0.4,60.003848874556745,
victims,sowntrodden,&&&&&&&&&&&,right,care.vice,,,,,,,0,228,228,228,,,,,,,,,,,,,,,,,,,,,AMP,right,0.38370807166211307,,,right,1,0.38370807166211307,1,,,,,,,,,,,,,,,,,,,,,,1075,2019_Mar_14_1404,mf_amp_cond1,3.0.4,60.003848874556745,
scandal,unscothed,&&&&&&&&&,right,sanctity.vice,,,,,,,0,229,229,229,,,,,,,,,,,,,,,,,,,,,AMP,right,0.3003276461386122,,,right,1,0.3003276461386122,1,,,,,,,,,,,,,,,,,,,,,,1075,2019_Mar_14_1404,mf_amp_cond1,3.0.4,60.003848874556745,
powerful,photocalkodes,&&&&&&&&&&&&&,left,authority.virtue,,,,,,,0,230,230,230,,,,,,,,,,,,,,,,,,,,,AMP,left,0.60041379116592,,,left,1,0.60041379116592,1,,,,,,,,,,,,,,,,,,,,,,1075,2019_Mar_14_1404,mf_amp_cond1,3.0.4,60.003848874556745,
fraud,erks,&&&&,right,fairness.vice,,,,,,,0,231,231,231,,,,,,,,,,,,,,,,,,,,,AMP,right,0.33365223454893567,,,right,1,0.33365223454893567,1,,,,,,,,,,,,,,,,,,,,,,1075,2019_Mar_14_1404,mf_amp_cond1,3.0.4,60.003848874556745,
injured,saned,&&&&&,right,care.vice,,,,,,,0,232,232,232,,,,,,,,,,,,,,,,,,,,,AMP,left,0.5337017535057385,,,left,0,0.5337017535057385,0,,,,,,,,,,,,,,,,,,,,,,1075,2019_Mar_14_1404,mf_amp_cond1,3.0.4,60.003848874556745,
commitment,disregord,&&&&&&&&&,left,sanctity.virtue,,,,,,,0,233,233,233,,,,,,,,,,,,,,,,,,,,,AMP,left,0.8837744604097679,,,left,1,0.8837744604097679,1,,,,,,,,,,,,,,,,,,,,,,1075,2019_Mar_14_1404,mf_amp_cond1,3.0.4,60.003848874556745,
agreement,reelectiob,&&&&&&&&&&,left,fairness.virtue,,,,,,,0,234,234,234,,,,,,,,,,,,,,,,,,,,,AMP,left,0.5337174687010702,,,left,1,0.5337174687010702,1,,,,,,,,,,,,,,,,,,,,,,1075,2019_Mar_14_1404,mf_amp_cond1,3.0.4,60.003848874556745,
failure,shoirmaster,&&&&&&&&&&&,right,loyalty.vice,,,,,,,0,235,235,235,,,,,,,,,,,,,,,,,,,,,AMP,right,0.25029458006611094,,,right,1,0.25029458006611094,1,,,,,,,,,,,,,,,,,,,,,,1075,2019_Mar_14_1404,mf_amp_cond1,3.0.4,60.003848874556745,
accused,pescinded,&&&&&&&&&,right,fairness.vice,,,,,,,0,236,236,236,,,,,,,,,,,,,,,,,,,,,AMP,left,0.6170632566208951,,,left,0,0.6170632566208951,0,,,,,,,,,,,,,,,,,,,,,,1075,2019_Mar_14_1404,mf_amp_cond1,3.0.4,60.003848874556745,
peace,nuckheap,&&&&&&&&,left,care.virtue,,,,,,,0,237,237,237,,,,,,,,,,,,,,,,,,,,,AMP,left,0.46700863825390115,,,left,1,0.46700863825390115,1,,,,,,,,,,,,,,,,,,,,,,1075,2019_Mar_14_1404,mf_amp_cond1,3.0.4,60.003848874556745,
gun,leact,&&&&&,right,authority.vice,,,,,,,0,238,238,238,,,,,,,,,,,,,,,,,,,,,AMP,left,0.6170696709887125,,,left,0,0.6170696709887125,0,,,,,,,,,,,,,,,,,,,,,,1075,2019_Mar_14_1404,mf_amp_cond1,3.0.4,60.003848874556745,
intelligence,nackers,&&&&&&&,left,loyalty.virtue,,,,,,,0,239,239,239,,,,,,,,,,,,,,,,,,,,,AMP,right,0.2503003529564012,,,right,0,0.2503003529564012,0,,,,,,,,,,,,,,,,,,,,,,1075,2019_Mar_14_1404,mf_amp_cond1,3.0.4,60.003848874556745,
friends,pullness,&&&&&&&&,left,loyalty.virtue,,,,,,,0,240,240,240,,,,,,,,,,,,,,,,,,,,,AMP,left,0.20032501622335985,,,left,1,0.20032501622335985,1,,,,,,,,,,,,,,,,,,,,,,1075,2019_Mar_14_1404,mf_amp_cond1,3.0.4,60.003848874556745,
clattening,taxpayung,&&&&&&&&&,None,nonword,,,,,,,0,241,241,241,,,,,,,,,,,,,,,,,,,,,AMP,left,1.0504599425767083,,,left,0,1.0504599425767083,0,,,,,,,,,,,,,,,,,,,,,,1075,2019_Mar_14_1404,mf_amp_cond1,3.0.4,60.003848874556745,
benefit,pistraught,&&&&&&&&&&,left,fairness.virtue,,,,,,,0,242,242,242,,,,,,,,,,,,,,,,,,,,,AMP,left,0.9504691792535596,,,left,1,0.9504691792535596,1,,,,,,,,,,,,,,,,,,,,,,1075,2019_Mar_14_1404,mf_amp_cond1,3.0.4,60.003848874556745,
love,pumber,&&&&&&,left,loyalty.virtue,,,,,,,0,243,243,243,,,,,,,,,,,,,,,,,,,,,AMP,right,0.5670459057437256,,,right,0,0.5670459057437256,0,,,,,,,,,,,,,,,,,,,,,,1075,2019_Mar_14_1404,mf_amp_cond1,3.0.4,60.003848874556745,
promote,gazily,&&&&&&,left,sanctity.virtue,,,,,,,0,244,244,244,,,,,,,,,,,,,,,,,,,,,AMP,right,0.43367923906771466,,,right,0,0.43367923906771466,0,,,,,,,,,,,,,,,,,,,,,,1075,2019_Mar_14_1404,mf_amp_cond1,3.0.4,60.003848874556745,
compassion,rorroborated,&&&&&&&&&&&&,left,care.virtue,,,,,,,0,245,245,245,,,,,,,,,,,,,,,,,,,,,AMP,right,0.45038771675899625,,,right,0,0.45038771675899625,0,,,,,,,,,,,,,,,,,,,,,,1075,2019_Mar_14_1404,mf_amp_cond1,3.0.4,60.003848874556745,
clattening,squets,&&&&&&,None,nonword,,,,,,,0,246,246,246,,,,,,,,,,,,,,,,,,,,,AMP,left,0.6003935858607292,,,left,0,0.6003935858607292,0,,,,,,,,,,,,,,,,,,,,,,1075,2019_Mar_14_1404,mf_amp_cond1,3.0.4,60.003848874556745,
care,Cunday,&&&&&&,left,care.virtue,,,,,,,0,247,247,247,,,,,,,,,,,,,,,,,,,,,AMP,left,0.583720066526439,,,left,1,0.583720066526439,1,,,,,,,,,,,,,,,,,,,,,,1075,2019_Mar_14_1404,mf_amp_cond1,3.0.4,60.003848874556745,
prosecution,idexpressible,&&&&&&&&&&&&&,right,authority.vice,,,,,,,0,248,248,248,,,,,,,,,,,,,,,,,,,,,AMP,left,1.0504936180368531,,,left,0,1.0504936180368531,0,,,,,,,,,,,,,,,,,,,,,,1075,2019_Mar_14_1404,mf_amp_cond1,3.0.4,60.003848874556745,
energy,fegard,&&&&&&,left,sanctity.virtue,,,,,,,0,249,249,249,,,,,,,,,,,,,,,,,,,,,AMP,right,0.9171109153830912,,,right,0,0.9171109153830912,0,,,,,,,,,,,,,,,,,,,,,,1075,2019_Mar_14_1404,mf_amp_cond1,3.0.4,60.003848874556745,
serial,focomotive,&&&&&&&&&&,right,sanctity.vice,,,,,,,0,250,250,250,,,,,,,,,,,,,,,,,,,,,AMP,right,0.2336242678866256,,,right,1,0.2336242678866256,1,,,,,,,,,,,,,,,,,,,,,,1075,2019_Mar_14_1404,mf_amp_cond1,3.0.4,60.003848874556745,
celebrated,laming,&&&&&&,left,authority.virtue,,,,,,,0,251,251,251,,,,,,,,,,,,,,,,,,,,,AMP,left,0.16692954901373014,,,left,1,0.16692954901373014,1,,,,,,,,,,,,,,,,,,,,,,1075,2019_Mar_14_1404,mf_amp_cond1,3.0.4,60.003848874556745,
promote,perified,&&&&&&&&,left,sanctity.virtue,,,,,,,0,252,252,252,,,,,,,,,,,,,,,,,,,,,AMP,right,0.4336686553142499,,,right,0,0.4336686553142499,0,,,,,,,,,,,,,,,,,,,,,,1075,2019_Mar_14_1404,mf_amp_cond1,3.0.4,60.003848874556745,
perfect,dramens,&&&&&&&,left,sanctity.virtue,,,,,,,0,253,253,253,,,,,,,,,,,,,,,,,,,,,AMP,left,0.5337078471493442,,,left,1,0.5337078471493442,1,,,,,,,,,,,,,,,,,,,,,,1075,2019_Mar_14_1404,mf_amp_cond1,3.0.4,60.003848874556745,
sfumatoy,scock,&&&&&,None,nonword,,,,,,,0,254,254,254,,,,,,,,,,,,,,,,,,,,,AMP,right,0.33368238210096024,,,right,0,0.33368238210096024,0,,,,,,,,,,,,,,,,,,,,,,1075,2019_Mar_14_1404,mf_amp_cond1,3.0.4,60.003848874556745,
racist,bycled,&&&&&&,right,sanctity.vice,,,,,,,0,255,255,255,,,,,,,,,,,,,,,,,,,,,AMP,right,0.3669867652351968,,,right,1,0.3669867652351968,1,,,,,,,,,,,,,,,,,,,,,,1075,2019_Mar_14_1404,mf_amp_cond1,3.0.4,60.003848874556745,
sexual,presentkess,&&&&&&&&&&&,right,sanctity.vice,,,,,,,0,256,256,256,,,,,,,,,,,,,,,,,,,,,AMP,left,0.5170333656424191,,,left,0,0.5170333656424191,0,,,,,,,,,,,,,,,,,,,,,,1075,2019_Mar_14_1404,mf_amp_cond1,3.0.4,60.003848874556745,
civilians,saned,&&&&&,right,care.vice,,,,,,,0,257,257,257,,,,,,,,,,,,,,,,,,,,,AMP,left,0.4837049286288675,,,left,0,0.4837049286288675,0,,,,,,,,,,,,,,,,,,,,,,1075,2019_Mar_14_1404,mf_amp_cond1,3.0.4,60.003848874556745,
loyalty,ittutable,&&&&&&&&&,left,loyalty.virtue,,,,,,,0,258,258,258,,,,,,,,,,,,,,,,,,,,,AMP,right,0.16693949128966779,,,right,0,0.16693949128966779,0,,,,,,,,,,,,,,,,,,,,,,1075,2019_Mar_14_1404,mf_amp_cond1,3.0.4,60.003848874556745,
safe,refuejing,&&&&&&&&&,left,care.virtue,,,,,,,0,259,259,259,,,,,,,,,,,,,,,,,,,,,AMP,left,0.4170223970722873,,,left,1,0.4170223970722873,1,,,,,,,,,,,,,,,,,,,,,,1075,2019_Mar_14_1404,mf_amp_cond1,3.0.4,60.003848874556745,
shot,shoirmaster,&&&&&&&&&&&,right,care.vice,,,,,,,0,260,260,260,,,,,,,,,,,,,,,,,,,,,AMP,left,0.3669841994997114,,,left,0,0.3669841994997114,0,,,,,,,,,,,,,,,,,,,,,,1075,2019_Mar_14_1404,mf_amp_cond1,3.0.4,60.003848874556745,
failure,tislay,&&&&&&,right,loyalty.vice,,,,,,,0,261,261,261,,,,,,,,,,,,,,,,,,,,,AMP,right,0.36697714365436696,,,right,1,0.36697714365436696,1,,,,,,,,,,,,,,,,,,,,,,1075,2019_Mar_14_1404,mf_amp_cond1,3.0.4,60.003848874556745,
support,strofe,&&&&&&,left,loyalty.virtue,,,,,,,0,262,262,262,,,,,,,,,,,,,,,,,,,,,AMP,left,0.35032703675096855,,,left,1,0.35032703675096855,1,,,,,,,,,,,,,,,,,,,,,,1075,2019_Mar_14_1404,mf_amp_cond1,3.0.4,60.003848874556745,
Lacedonia,crinking,&&&&&&&&,None,nonword,,,,,,,0,263,263,263,,,,,,,,,,,,,,,,,,,,,AMP,left,0.4836876098124776,,,left,0,0.4836876098124776,0,,,,,,,,,,,,,,,,,,,,,,1075,2019_Mar_14_1404,mf_amp_cond1,3.0.4,60.003848874556745,
army,bluently,&&&&&&&&,right,loyalty.vice,,,,,,,0,264,264,264,,,,,,,,,,,,,,,,,,,,,AMP,left,0.08358632685849443,,,left,0,0.08358632685849443,0,,,,,,,,,,,,,,,,,,,,,,1075,2019_Mar_14_1404,mf_amp_cond1,3.0.4,60.003848874556745,
actively,tove,&&&&,left,authority.virtue,,,,,,,0,265,265,265,,,,,,,,,,,,,,,,,,,,,AMP,left,0.05024377821246162,,,left,1,0.05024377821246162,1,,,,,,,,,,,,,,,,,,,,,,1075,2019_Mar_14_1404,mf_amp_cond1,3.0.4,60.003848874556745,
fraud,tenuflect,&&&&&&&&&,right,fairness.vice,,,,,,,0,266,266,266,,,,,,,,,,,,,,,,,,,,,AMP,right,0.9504675756616052,,,right,1,0.9504675756616052,1,,,,,,,,,,,,,,,,,,,,,,1075,2019_Mar_14_1404,mf_amp_cond1,3.0.4,60.003848874556745,
peace,pullness,&&&&&&&&,left,care.virtue,,,,,,,0,267,267,267,,,,,,,,,,,,,,,,,,,,,AMP,right,0.4336458843026776,,,right,0,0.4336458843026776,0,,,,,,,,,,,,,,,,,,,,,,1075,2019_Mar_14_1404,mf_amp_cond1,3.0.4,60.003848874556745,
drug,pumber,&&&&&&,right,sanctity.vice,,,,,,,0,268,268,268,,,,,,,,,,,,,,,,,,,,,AMP,left,0.7671432117640506,,,left,0,0.7671432117640506,0,,,,,,,,,,,,,,,,,,,,,,1075,2019_Mar_14_1404,mf_amp_cond1,3.0.4,60.003848874556745,
health,reviked,&&&&&&&,left,care.virtue,,,,,,,0,269,269,269,,,,,,,,,,,,,,,,,,,,,AMP,left,0.6337290787196252,,,left,1,0.6337290787196252,1,,,,,,,,,,,,,,,,,,,,,,1075,2019_Mar_14_1404,mf_amp_cond1,3.0.4,60.003848874556745,
voter,edancipation,&&&&&&&&&&&&,right,fairness.vice,,,,,,,0,270,270,270,,,,,,,,,,,,,,,,,,,,,AMP,right,0.00024887765175662935,,,right,1,0.00024887765175662935,1,,,,,,,,,,,,,,,,,,,,,,1075,2019_Mar_14_1404,mf_amp_cond1,3.0.4,60.003848874556745,
carvels,frocessing,&&&&&&&&&&,None,nonword,,,,,,,0,271,271,271,,,,,,,,,,,,,,,,,,,,,AMP,right,0.03357218319433741,,,right,0,0.03357218319433741,0,,,,,,,,,,,,,,,,,,,,,,1075,2019_Mar_14_1404,mf_amp_cond1,3.0.4,60.003848874556745,
unpleasant,ning,&&&&,None,control,,,,,,,0,272,272,272,,,,,,,,,,,,,,,,,,,,,AMP,right,0.050253399764187634,,,right,0,0.050253399764187634,0,,,,,,,,,,,,,,,,,,,,,,1075,2019_Mar_14_1404,mf_amp_cond1,3.0.4,60.003848874556745,
hate,chonograph,&&&&&&&&&&,right,fairness.vice,,,,,,,0,273,273,273,,,,,,,,,,,,,,,,,,,,,AMP,right,0.45035628631012514,,,right,1,0.45035628631012514,1,,,,,,,,,,,,,,,,,,,,,,1075,2019_Mar_14_1404,mf_amp_cond1,3.0.4,60.003848874556745,
quarterbocks,gedious,&&&&&&&,None,nonword,,,,,,,0,274,274,274,,,,,,,,,,,,,,,,,,,,,AMP,left,0.20020699180895463,,,left,0,0.20020699180895463,0,,,,,,,,,,,,,,,,,,,,,,1075,2019_Mar_14_1404,mf_amp_cond1,3.0.4,60.003848874556745,
commitment,nuckheap,&&&&&&&&,left,sanctity.virtue,,,,,,,0,275,275,275,,,,,,,,,,,,,,,,,,,,,AMP,right,0.4836866476398427,,,right,0,0.4836866476398427,0,,,,,,,,,,,,,,,,,,,,,,1075,2019_Mar_14_1404,mf_amp_cond1,3.0.4,60.003848874556745,
respect,framatic,&&&&&&&&,left,sanctity.virtue,,,,,,,0,276,276,276,,,,,,,,,,,,,,,,,,,,,AMP,left,0.15027912141522393,,,left,1,0.15027912141522393,1,,,,,,,,,,,,,,,,,,,,,,1075,2019_Mar_14_1404,mf_amp_cond1,3.0.4,60.003848874556745,
prison,openet,&&&&&&,right,fairness.vice,,,,,,,0,277,277,277,,,,,,,,,,,,,,,,,,,,,AMP,left,0.10026369485422038,,,left,0,0.10026369485422038,0,,,,,,,,,,,,,,,,,,,,,,1075,2019_Mar_14_1404,mf_amp_cond1,3.0.4,60.003848874556745,
victim,rivernoat,&&&&&&&&&,right,care.vice,,,,,,,0,278,278,278,,,,,,,,,,,,,,,,,,,,,AMP,right,0.5170279134181328,,,right,1,0.5170279134181328,1,,,,,,,,,,,,,,,,,,,,,,1075,2019_Mar_14_1404,mf_amp_cond1,3.0.4,60.003848874556745,
freedom,lachelor,&&&&&&&&,left,sanctity.virtue,,,,,,,0,279,279,279,,,,,,,,,,,,,,,,,,,,,AMP,right,0.4170098890317604,,,right,0,0.4170098890317604,0,,,,,,,,,,,,,,,,,,,,,,1075,2019_Mar_14_1404,mf_amp_cond1,3.0.4,60.003848874556745,
blamed,honstables,&&&&&&&&&&,right,loyalty.vice,,,,,,,0,280,280,280,,,,,,,,,,,,,,,,,,,,,AMP,right,0.1334692966483999,,,right,1,0.1334692966483999,1,,,,,,,,,,,,,,,,,,,,,,1075,2019_Mar_14_1404,mf_amp_cond1,3.0.4,60.003848874556745,
promises,fangsters,&&&&&&&&&,left,fairness.virtue,,,,,,,0,281,281,281,,,,,,,,,,,,,,,,,,,,,AMP,right,0.016903795301914215,,,right,0,0.016903795301914215,0,,,,,,,,,,,,,,,,,,,,,,1075,2019_Mar_14_1404,mf_amp_cond1,3.0.4,60.003848874556745,
agreement,nomaric,&&&&&&&,left,fairness.virtue,,,,,,,0,282,282,282,,,,,,,,,,,,,,,,,,,,,AMP,right,0.6837182063609362,,,right,0,0.6837182063609362,0,,,,,,,,,,,,,,,,,,,,,,1075,2019_Mar_14_1404,mf_amp_cond1,3.0.4,60.003848874556745,
benefit,ablow,&&&&&,left,fairness.virtue,,,,,,,0,283,283,283,,,,,,,,,,,,,,,,,,,,,AMP,right,0.016903474577702582,,,right,0,0.016903474577702582,0,,,,,,,,,,,,,,,,,,,,,,1075,2019_Mar_14_1404,mf_amp_cond1,3.0.4,60.003848874556745,
values,Loorish,&&&&&&&,left,sanctity.virtue,,,,,,,0,284,284,284,,,,,,,,,,,,,,,,,,,,,AMP,left,1.3839072379050776,,,left,1,1.3839072379050776,1,,,,,,,,,,,,,,,,,,,,,,1075,2019_Mar_14_1404,mf_amp_cond1,3.0.4,60.003848874556745,
torture,Phintoism,&&&&&&&&&,right,care.vice,,,,,,,0,285,285,285,,,,,,,,,,,,,,,,,,,,,AMP,left,0.5170593438670039,,,left,0,0.5170593438670039,0,,,,,,,,,,,,,,,,,,,,,,1075,2019_Mar_14_1404,mf_amp_cond1,3.0.4,60.003848874556745,
abuse,tracious,&&&&&&&&,right,sanctity.vice,,,,,,,0,286,286,286,,,,,,,,,,,,,,,,,,,,,AMP,left,1.0671594401355833,,,left,0,1.0671594401355833,0,,,,,,,,,,,,,,,,,,,,,,1075,2019_Mar_14_1404,mf_amp_cond1,3.0.4,60.003848874556745,
compassion,chreams,&&&&&&&,left,care.virtue,,,,,,,0,287,287,287,,,,,,,,,,,,,,,,,,,,,AMP,right,0.23362266426556744,,,right,0,0.23362266426556744,0,,,,,,,,,,,,,,,,,,,,,,1075,2019_Mar_14_1404,mf_amp_cond1,3.0.4,60.003848874556745,
fair,gikely,&&&&&&,left,fairness.virtue,,,,,,,0,288,288,288,,,,,,,,,,,,,,,,,,,,,AMP,right,0.25034140498610213,,,right,0,0.25034140498610213,0,,,,,,,,,,,,,,,,,,,,,,1075,2019_Mar_14_1404,mf_amp_cond1,3.0.4,60.003848874556745,
embrace,reelectiob,&&&&&&&&&&,left,authority.virtue,,,,,,,0,289,289,289,,,,,,,,,,,,,,,,,,,,,AMP,left,0.4170307357562706,,,left,1,0.4170307357562706,1,,,,,,,,,,,,,,,,,,,,,,1075,2019_Mar_14_1404,mf_amp_cond1,3.0.4,60.003848874556745,
gowlands,leact,&&&&&,None,nonword,,,,,,,0,290,290,290,,,,,,,,,,,,,,,,,,,,,AMP,left,0.13358828323544003,,,left,0,0.13358828323544003,0,,,,,,,,,,,,,,,,,,,,,,1075,2019_Mar_14_1404,mf_amp_cond1,3.0.4,60.003848874556745,
black,letish,&&&&&&,right,loyalty.vice,,,,,,,0,291,291,291,,,,,,,,,,,,,,,,,,,,,AMP,left,0.15015596547164023,,,left,0,0.15015596547164023,0,,,,,,,,,,,,,,,,,,,,,,1075,2019_Mar_14_1404,mf_amp_cond1,3.0.4,60.003848874556745,
free,lenon,&&&&&,left,fairness.virtue,,,,,,,0,292,292,292,,,,,,,,,,,,,,,,,,,,,AMP,right,0.3003032715350855,,,right,0,0.3003032715350855,0,,,,,,,,,,,,,,,,,,,,,,1075,2019_Mar_14_1404,mf_amp_cond1,3.0.4,60.003848874556745,
help,pescinded,&&&&&&&&&,left,care.virtue,,,,,,,0,293,293,293,,,,,,,,,,,,,,,,,,,,,AMP,right,0.15027976283454336,,,right,0,0.15027976283454336,0,,,,,,,,,,,,,,,,,,,,,,1075,2019_Mar_14_1404,mf_amp_cond1,3.0.4,60.003848874556745,
interests,epigrach,&&&&&&&&,left,fairness.virtue,,,,,,,0,294,294,294,,,,,,,,,,,,,,,,,,,,,AMP,right,0.18361621783697046,,,right,0,0.18361621783697046,0,,,,,,,,,,,,,,,,,,,,,,1075,2019_Mar_14_1404,mf_amp_cond1,3.0.4,60.003848874556745,
great,alar,&&&&,left,loyalty.virtue,,,,,,,0,295,295,295,,,,,,,,,,,,,,,,,,,,,AMP,right,0.40034887770889327,,,right,0,0.40034887770889327,0,,,,,,,,,,,,,,,,,,,,,,1075,2019_Mar_14_1404,mf_amp_cond1,3.0.4,60.003848874556745,
gun,smapper,&&&&&&&,right,authority.vice,,,,,,,0,296,296,296,,,,,,,,,,,,,,,,,,,,,AMP,right,0.3336910415091552,,,right,1,0.3336910415091552,1,,,,,,,,,,,,,,,,,,,,,,1075,2019_Mar_14_1404,mf_amp_cond1,3.0.4,60.003848874556745,
fighters,sowntrodden,&&&&&&&&&&&,right,authority.vice,,,,,,,0,297,297,297,,,,,,,,,,,,,,,,,,,,,AMP,right,0.2502968250773847,,,right,1,0.2502968250773847,1,,,,,,,,,,,,,,,,,,,,,,1075,2019_Mar_14_1404,mf_amp_cond1,3.0.4,60.003848874556745,
threatened,photocalkodes,&&&&&&&&&&&&&,right,fairness.vice,,,,,,,0,298,298,298,,,,,,,,,,,,,,,,,,,,,AMP,left,0.45035019266651943,,,left,0,0.45035019266651943,0,,,,,,,,,,,,,,,,,,,,,,1075,2019_Mar_14_1404,mf_amp_cond1,3.0.4,60.003848874556745,
friends,ammessment,&&&&&&&&&&,left,loyalty.virtue,,,,,,,0,299,299,299,,,,,,,,,,,,,,,,,,,,,AMP,right,0.3169790359097533,,,right,0,0.3169790359097533,0,,,,,,,,,,,,,,,,,,,,,,1075,2019_Mar_14_1404,mf_amp_cond1,3.0.4,60.003848874556745,
sharing,metibolic,&&&&&&&&&,left,loyalty.virtue,,,,,,,0,300,300,300,,,,,,,,,,,,,,,,,,,,,AMP,right,0.5170003316306975,,,right,0,0.5170003316306975,0,,,,,,,,,,,,,,,,,,,,,,1075,2019_Mar_14_1404,mf_amp_cond1,3.0.4,60.003848874556745,
men,lursuer,&&&&&&&,right,loyalty.vice,,,,,,,0,301,301,301,,,,,,,,,,,,,,,,,,,,,AMP,right,0.46699709235690534,,,right,1,0.46699709235690534,1,,,,,,,,,,,,,,,,,,,,,,1075,2019_Mar_14_1404,mf_amp_cond1,3.0.4,60.003848874556745,
love,taxpayung,&&&&&&&&&,left,loyalty.virtue,,,,,,,0,302,302,302,,,,,,,,,,,,,,,,,,,,,AMP,right,0.6003868507978041,,,right,0,0.6003868507978041,0,,,,,,,,,,,,,,,,,,,,,,1075,2019_Mar_14_1404,mf_amp_cond1,3.0.4,60.003848874556745,
intelligence,halaise,&&&&&&&,left,loyalty.virtue,,,,,,,0,303,303,303,,,,,,,,,,,,,,,,,,,,,AMP,right,0.3336307463760022,,,right,0,0.3336307463760022,0,,,,,,,,,,,,,,,,,,,,,,1075,2019_Mar_14_1404,mf_amp_cond1,3.0.4,60.003848874556745,
good,imebreaker,&&&&&&&&&&,left,care.virtue,,,,,,,0,304,304,304,,,,,,,,,,,,,,,,,,,,,AMP,left,0.3003276461386122,,,left,1,0.3003276461386122,1,,,,,,,,,,,,,,,,,,,,,,1075,2019_Mar_14_1404,mf_amp_cond1,3.0.4,60.003848874556745,
ability,unscothed,&&&&&&&&&,left,authority.virtue,,,,,,,0,305,305,305,,,,,,,,,,,,,,,,,,,,,AMP,left,0.016907964658457786,,,left,1,0.016907964658457786,1,,,,,,,,,,,,,,,,,,,,,,1075,2019_Mar_14_1404,mf_amp_cond1,3.0.4,60.003848874556745,
integrity,rorroborated,&&&&&&&&&&&&,left,fairness.virtue,,,,,,,0,306,306,306,,,,,,,,,,,,,,,,,,,,,AMP,right,0.5170433079183567,,,right,0,0.5170433079183567,0,,,,,,,,,,,,,,,,,,,,,,1075,2019_Mar_14_1404,mf_amp_cond1,3.0.4,60.003848874556745,
peaceful,papert,&&&&&&,left,authority.virtue,,,,,,,0,307,307,307,,,,,,,,,,,,,,,,,,,,,AMP,left,1.3338876420166343,,,left,1,1.3338876420166343,1,,,,,,,,,,,,,,,,,,,,,,1075,2019_Mar_14_1404,mf_amp_cond1,3.0.4,60.003848874556745,
injured,divility,&&&&&&&&,right,care.vice,,,,,,,0,308,308,308,,,,,,,,,,,,,,,,,,,,,AMP,left,0.6336973275756463,,,left,0,0.6336973275756463,0,,,,,,,,,,,,,,,,,,,,,,1075,2019_Mar_14_1404,mf_amp_cond1,3.0.4,60.003848874556745,
arrests,proached,&&&&&&&&,right,authority.vice,,,,,,,0,309,309,309,,,,,,,,,,,,,,,,,,,,,AMP,left,0.400322258064989,,,left,0,0.400322258064989,0,,,,,,,,,,,,,,,,,,,,,,1075,2019_Mar_14_1404,mf_amp_cond1,3.0.4,60.003848874556745,
accused,hefurbished,&&&&&&&&&&&,right,fairness.vice,,,,,,,0,310,310,310,,,,,,,,,,,,,,,,,,,,,AMP,right,0.16693981204298325,,,right,1,0.16693981204298325,1,,,,,,,,,,,,,,,,,,,,,,1075,2019_Mar_14_1404,mf_amp_cond1,3.0.4,60.003848874556745,
scandal,erks,&&&&,right,sanctity.vice,,,,,,,0,311,311,311,,,,,,,,,,,,,,,,,,,,,AMP,right,0.5336892454943154,,,right,1,0.5336892454943154,1,,,,,,,,,,,,,,,,,,,,,,1075,2019_Mar_14_1404,mf_amp_cond1,3.0.4,60.003848874556745,
death,pistraught,&&&&&&&&&&,right,care.vice,,,,,,,0,312,312,312,,,,,,,,,,,,,,,,,,,,,AMP,right,0.5670725253876299,,,right,1,0.5670725253876299,1,,,,,,,,,,,,,,,,,,,,,,1075,2019_Mar_14_1404,mf_amp_cond1,3.0.4,60.003848874556745,
uller,chared,&&&&&&,None,nonword,,,,,,,0,313,313,313,,,,,,,,,,,,,,,,,,,,,AMP,right,0.4336705796595197,,,right,0,0.4336705796595197,0,,,,,,,,,,,,,,,,,,,,,,1075,2019_Mar_14_1404,mf_amp_cond1,3.0.4,60.003848874556745,
pleasant,brudent,&&&&&&&,None,control,,,,,,,0,314,314,314,,,,,,,,,,,,,,,,,,,,,AMP,right,0.4670362200413365,,,right,0,0.4670362200413365,0,,,,,,,,,,,,,,,,,,,,,,1075,2019_Mar_14_1404,mf_amp_cond1,3.0.4,60.003848874556745,
shoirmaster,nackers,&&&&&&&,None,nonword,,,,,,,0,315,315,315,,,,,,,,,,,,,,,,,,,,,AMP,right,0.016918227658607066,,,right,0,0.016918227658607066,0,,,,,,,,,,,,,,,,,,,,,,1075,2019_Mar_14_1404,mf_amp_cond1,3.0.4,60.003848874556745,
egpeditious,spag,&&&&,None,nonword,,,,,,,0,316,316,316,,,,,,,,,,,,,,,,,,,,,AMP,right,0.13360784709220752,,,right,0,0.13360784709220752,0,,,,,,,,,,,,,,,,,,,,,,1075,2019_Mar_14_1404,mf_amp_cond1,3.0.4,60.003848874556745,
terrorist,Daptist,&&&&&&&,right,loyalty.vice,,,,,,,0,317,317,317,,,,,,,,,,,,,,,,,,,,,AMP,right,0.06692242907593027,,,right,1,0.06692242907593027,1,,,,,,,,,,,,,,,,,,,,,,1075,2019_Mar_14_1404,mf_amp_cond1,3.0.4,60.003848874556745,
lies,iptervention,&&&&&&&&&&&&,right,fairness.vice,,,,,,,0,318,318,318,,,,,,,,,,,,,,,,,,,,,AMP,left,0.016909888974623755,,,left,0,0.016909888974623755,0,,,,,,,,,,,,,,,,,,,,,,1075,2019_Mar_14_1404,mf_amp_cond1,3.0.4,60.003848874556745,
troops,godlaness,&&&&&&&&&,right,loyalty.vice,,,,,,,0,319,319,319,,,,,,,,,,,,,,,,,,,,,AMP,left,0.0836113429395482,,,left,0,0.0836113429395482,0,,,,,,,,,,,,,,,,,,,,,,1075,2019_Mar_14_1404,mf_amp_cond1,3.0.4,60.003848874556745,
feleological,ilportation,&&&&&&&&&&&,None,nonword,,,,,,,0,320,320,320,,,,,,,,,,,,,,,,,,,,,AMP,left,0.20026023106765933,,,left,0,0.20026023106765933,0,,,,,,,,,,,,,,,,,,,,,,1075,2019_Mar_14_1404,mf_amp_cond1,3.0.4,60.003848874556745,
victims,gazily,&&&&&&,right,care.vice,,,,,,,0,321,321,321,,,,,,,,,,,,,,,,,,,,,AMP,left,0.0835892133472953,,,left,0,0.0835892133472953,0,,,,,,,,,,,,,,,,,,,,,,1075,2019_Mar_14_1404,mf_amp_cond1,3.0.4,60.003848874556745,
powerful,seachwear,&&&&&&&&&,left,authority.virtue,,,,,,,0,322,322,322,,,,,,,,,,,,,,,,,,,,,AMP,left,0.01692079339409247,,,left,1,0.01692079339409247,1,,,,,,,,,,,,,,,,,,,,,,1075,2019_Mar_14_1404,mf_amp_cond1,3.0.4,60.003848874556745,
officers,clamorek,&&&&&&&&,right,authority.vice,,,,,,,0,323,323,323,,,,,,,,,,,,,,,,,,,,,AMP,left,0.4336619202513248,,,left,0,0.4336619202513248,0,,,,,,,,,,,,,,,,,,,,,,1075,2019_Mar_14_1404,mf_amp_cond1,3.0.4,60.003848874556745,
violations,menizen,&&&&&&&,right,sanctity.vice,,,,,,,0,324,324,324,,,,,,,,,,,,,,,,,,,,,AMP,right,6.101727775327163,,,right,1,6.101727775327163,1,,,,,,,,,,,,,,,,,,,,,,1075,2019_Mar_14_1404,mf_amp_cond1,3.0.4,60.003848874556745,
trust,noped,&&&&&,left,authority.virtue,,,,,,,0,325,325,325,,,,,,,,,,,,,,,,,,,,,AMP,right,0.5502347981091589,,,right,0,0.5502347981091589,0,,,,,,,,,,,,,,,,,,,,,,1075,2019_Mar_14_1404,mf_amp_cond1,3.0.4,60.003848874556745,
riot,coom,&&&&,right,authority.vice,,,,,,,0,326,326,326,,,,,,,,,,,,,,,,,,,,,AMP,right,0.13359630122431554,,,right,1,0.13359630122431554,1,,,,,,,,,,,,,,,,,,,,,,1075,2019_Mar_14_1404,mf_amp_cond1,3.0.4,60.003848874556745,
penalty,disregord,&&&&&&&&&,right,authority.vice,,,,,,,0,327,327,327,,,,,,,,,,,,,,,,,,,,,AMP,right,0.15029964741552249,,,right,1,0.15029964741552249,1,,,,,,,,,,,,,,,,,,,,,,1075,2019_Mar_14_1404,mf_amp_cond1,3.0.4,60.003848874556745,
,,,,,,,,,,,,,,,,,,,,,,,,,,,,,,,,,,,,,,,,,,,,6,8.804,,,,,,,,,,,,,,,,,,,,1075,2019_Mar_14_1404,mf_amp_cond1,3.0.4,60.003848874556745,
,,,,,,,,,,,,,,,,,,,,,,,,,,,,,,,,,,,,,,,,,,,,,,2,10.38,,,,,,,,,,,,,,,,,,1075,2019_Mar_14_1404,mf_amp_cond1,3.0.4,60.003848874556745,
,,,,,,,,,,,,,,,,,,,,,,,,,,,,,,,,,,,,,,,,,,,,,,,,2,4.753,,,,,,,,,,,,,,,,1075,2019_Mar_14_1404,mf_amp_cond1,3.0.4,60.003848874556745,
,,,,,,,,,,,,,,,,,,,,,,,,,,,,,,,,,,,,,,,,,,,,,,,,,,right,1.000501924630953,,,,,,,,,,,,,,1075,2019_Mar_14_1404,mf_amp_cond1,3.0.4,60.003848874556745,
keyboard,,&&&&&&&,,,,,,,,,,,,,0,0,0,0,,,,,,,,,,,,,,,,,LDT_prac,left,1.6339378665434197,,,,,,0,,,,,,,,,left,1.6339378665434197,,,,,,,,,,,,1075,2019_Mar_14_1404,mf_amp_cond1,3.0.4,60.003848874556745,
bisebell,,&&&&&&&,,,,,,,,,,,,,0,1,1,1,,,,,,,,,,,,,,,,,LDT_prac,right,1.3005691472790204,,,,,,0,,,,,,,,,right,1.3005691472790204,,,,,,,,,,,,1075,2019_Mar_14_1404,mf_amp_cond1,3.0.4,60.003848874556745,
,,,,,,,,,,,,,,,,,,,,,,,,,,,,,,,,,,,,,,,,,,,,,,,,,,,,,,right,0.7670546934241429,,,,,,,,,,1075,2019_Mar_14_1404,mf_amp_cond1,3.0.4,60.003848874556745,
dignity,,&&&&&&&,left,sanctity.virtue,,,,,,,,,,,,,,,0,0,0,131,,,,,,,,,,,,,LDT,right,1.1171873747080099,,,,,,0,,,,,,,,,,,,,right,0,1.1171873747080099,,,,,,,1075,2019_Mar_14_1404,mf_amp_cond1,3.0.4,60.003848874556745,
encourage,,&&&&&&&&&,left,authority.virtue,,,,,,,,,,,,,,,0,1,1,77,,,,,,,,,,,,,LDT,right,0.5503746314207092,,,,,,0,,,,,,,,,,,,,right,0,0.5503746314207092,,,,,,,1075,2019_Mar_14_1404,mf_amp_cond1,3.0.4,60.003848874556745,
festate,,&&&&&&&,right,nonword,,,,,,,,,,,,,,,0,2,2,119,,,,,,,,,,,,,LDT,left,0.48369049627217464,,,,,,0,,,,,,,,,,,,,left,0,0.48369049627217464,,,,,,,1075,2019_Mar_14_1404,mf_amp_cond1,3.0.4,60.003848874556745,
refused,,&&&&&&&,left,authority.vice,,,,,,,,,,,,,,,0,3,3,36,,,,,,,,,,,,,LDT,right,1.3505707829317544,,,,,,0,,,,,,,,,,,,,right,0,1.3505707829317544,,,,,,,1075,2019_Mar_14_1404,mf_amp_cond1,3.0.4,60.003848874556745,
drumbled,,&&&&&&&&,right,nonword,,,,,,,,,,,,,,,0,4,4,199,,,,,,,,,,,,,LDT,left,0.7004263632989023,,,,,,0,,,,,,,,,,,,,left,0,0.7004263632989023,,,,,,,1075,2019_Mar_14_1404,mf_amp_cond1,3.0.4,60.003848874556745,
frojecting,,&&&&&&&&&&,right,nonword,,,,,,,,,,,,,,,0,5,5,60,,,,,,,,,,,,,LDT,right,0.6670921533659566,,,,,,1,,,,,,,,,,,,,right,1,0.6670921533659566,,,,,,,1075,2019_Mar_14_1404,mf_amp_cond1,3.0.4,60.003848874556745,
also,,&&&&,left,neutral,,,,,,,,,,,,,,,0,6,6,92,,,,,,,,,,,,,LDT,right,0.5337072057009209,,,,,,0,,,,,,,,,,,,,right,0,0.5337072057009209,,,,,,,1075,2019_Mar_14_1404,mf_amp_cond1,3.0.4,60.003848874556745,
forty,,&&&&&,left,neutral,,,,,,,,,,,,,,,0,7,7,160,,,,,,,,,,,,,LDT,left,0.9003293138812296,,,,,,1,,,,,,,,,,,,,left,1,0.9003293138812296,,,,,,,1075,2019_Mar_14_1404,mf_amp_cond1,3.0.4,60.003848874556745,
pulge,,&&&&&,right,nonword,,,,,,,,,,,,,,,0,8,8,195,,,,,,,,,,,,,LDT,right,0.7504324890614953,,,,,,1,,,,,,,,,,,,,right,1,0.7504324890614953,,,,,,,1075,2019_Mar_14_1404,mf_amp_cond1,3.0.4,60.003848874556745,
mih,,&&&,right,nonword,,,,,,,,,,,,,,,0,9,9,76,,,,,,,,,,,,,LDT,right,0.7170889782719314,,,,,,1,,,,,,,,,,,,,right,1,0.7170889782719314,,,,,,,1075,2019_Mar_14_1404,mf_amp_cond1,3.0.4,60.003848874556745,
crilfully,,&&&&&&&&&,right,nonword,,,,,,,,,,,,,,,0,10,10,108,,,,,,,,,,,,,LDT,right,0.6337354930874426,,,,,,1,,,,,,,,,,,,,right,1,0.6337354930874426,,,,,,,1075,2019_Mar_14_1404,mf_amp_cond1,3.0.4,60.003848874556745,
each,,&&&&,left,neutral,,,,,,,,,,,,,,,0,11,11,137,,,,,,,,,,,,,LDT,right,0.5670459057437256,,,,,,0,,,,,,,,,,,,,right,0,0.5670459057437256,,,,,,,1075,2019_Mar_14_1404,mf_amp_cond1,3.0.4,60.003848874556745,
both,,&&&&,left,neutral,,,,,,,,,,,,,,,0,12,12,159,,,,,,,,,,,,,LDT,right,0.5669201840646565,,,,,,0,,,,,,,,,,,,,right,0,0.5669201840646565,,,,,,,1075,2019_Mar_14_1404,mf_amp_cond1,3.0.4,60.003848874556745,
latterly,,&&&&&&&&,left,neutral,,,,,,,,,,,,,,,0,13,13,132,,,,,,,,,,,,,LDT,left,0.6337608298636042,,,,,,1,,,,,,,,,,,,,left,1,0.6337608298636042,,,,,,,1075,2019_Mar_14_1404,mf_amp_cond1,3.0.4,60.003848874556745,
praise,,&&&&&&,left,authority.virtue,,,,,,,,,,,,,,,0,14,14,155,,,,,,,,,,,,,LDT,right,0.7004122517246287,,,,,,0,,,,,,,,,,,,,right,0,0.7004122517246287,,,,,,,1075,2019_Mar_14_1404,mf_amp_cond1,3.0.4,60.003848874556745,
progress,,&&&&&&&&,left,authority.virtue,,,,,,,,,,,,,,,0,15,15,178,,,,,,,,,,,,,LDT,right,0.5336683987698052,,,,,,0,,,,,,,,,,,,,right,0,0.5336683987698052,,,,,,,1075,2019_Mar_14_1404,mf_amp_cond1,3.0.4,60.003848874556745,
baladroit,,&&&&&&&&&,right,nonword,,,,,,,,,,,,,,,0,16,16,40,,,,,,,,,,,,,LDT,left,0.6337428696278948,,,,,,0,,,,,,,,,,,,,left,0,0.6337428696278948,,,,,,,1075,2019_Mar_14_1404,mf_amp_cond1,3.0.4,60.003848874556745,
conspiracy,,&&&&&&&&&&,left,sanctity.vice,,,,,,,,,,,,,,,0,17,17,56,,,,,,,,,,,,,LDT,right,0.5837213494232856,,,,,,0,,,,,,,,,,,,,right,0,0.5837213494232856,,,,,,,1075,2019_Mar_14_1404,mf_amp_cond1,3.0.4,60.003848874556745,
viscs,,&&&&&,None,nonword,,,,,,,,,,,,,,,0,18,18,111,,,,,,,,,,,,,LDT,left,1.067193436290836,,,,,,0,,,,,,,,,,,,,left,0,1.067193436290836,,,,,,,1075,2019_Mar_14_1404,mf_amp_cond1,3.0.4,60.003848874556745,
with,,&&&&,left,neutral,,,,,,,,,,,,,,,0,19,19,123,,,,,,,,,,,,,LDT,right,2.2007849267392885,,,,,,0,,,,,,,,,,,,,right,0,2.2007849267392885,,,,,,,1075,2019_Mar_14_1404,mf_amp_cond1,3.0.4,60.003848874556745,
else,,&&&&,left,neutral,,,,,,,,,,,,,,,0,20,20,172,,,,,,,,,,,,,LDT,right,0.5337113750574645,,,,,,0,,,,,,,,,,,,,right,0,0.5337113750574645,,,,,,,1075,2019_Mar_14_1404,mf_amp_cond1,3.0.4,60.003848874556745,
either,,&&&&&&,left,neutral,,,,,,,,,,,,,,,0,21,21,161,,,,,,,,,,,,,LDT,right,0.5837235944345593,,,,,,0,,,,,,,,,,,,,right,0,0.5837235944345593,,,,,,,1075,2019_Mar_14_1404,mf_amp_cond1,3.0.4,60.003848874556745,
sickyay,,&&&&&&&,right,nonword,,,,,,,,,,,,,,,0,22,22,5,,,,,,,,,,,,,LDT,left,1.033808873500675,,,,,,0,,,,,,,,,,,,,left,0,1.033808873500675,,,,,,,1075,2019_Mar_14_1404,mf_amp_cond1,3.0.4,60.003848874556745,
latter,,&&&&&&,left,neutral,,,,,,,,,,,,,,,0,23,23,14,,,,,,,,,,,,,LDT,right,1.1005080824252218,,,,,,0,,,,,,,,,,,,,right,0,1.1005080824252218,,,,,,,1075,2019_Mar_14_1404,mf_amp_cond1,3.0.4,60.003848874556745,
hope,,&&&&,left,loyalty.virtue,,,,,,,,,,,,,,,0,24,24,175,,,,,,,,,,,,,LDT,right,0.6003599104296882,,,,,,0,,,,,,,,,,,,,right,0,0.6003599104296882,,,,,,,1075,2019_Mar_14_1404,mf_amp_cond1,3.0.4,60.003848874556745,
blunderints,,&&&&&&&&&&&,right,nonword,,,,,,,,,,,,,,,0,25,25,186,,,,,,,,,,,,,LDT,left,0.7836149991198909,,,,,,0,,,,,,,,,,,,,left,0,0.7836149991198909,,,,,,,1075,2019_Mar_14_1404,mf_amp_cond1,3.0.4,60.003848874556745,
promised,,&&&&&&&&,left,loyalty.virtue,,,,,,,,,,,,,,,0,26,26,78,,,,,,,,,,,,,LDT,right,0.4503476269019302,,,,,,0,,,,,,,,,,,,,right,0,0.4503476269019302,,,,,,,1075,2019_Mar_14_1404,mf_amp_cond1,3.0.4,60.003848874556745,
vicissifude,,&&&&&&&&&&&,right,nonword,,,,,,,,,,,,,,,0,27,27,187,,,,,,,,,,,,,LDT,right,0.7004007058276329,,,,,,1,,,,,,,,,,,,,right,1,0.7004007058276329,,,,,,,1075,2019_Mar_14_1404,mf_amp_cond1,3.0.4,60.003848874556745,
gandbrake,,&&&&&&&&&,right,nonword,,,,,,,,,,,,,,,0,28,28,72,,,,,,,,,,,,,LDT,right,0.5670494336227421,,,,,,1,,,,,,,,,,,,,right,1,0.5670494336227421,,,,,,,1075,2019_Mar_14_1404,mf_amp_cond1,3.0.4,60.003848874556745,
violence,,&&&&&&&&,left,care.vice,,,,,,,,,,,,,,,0,29,29,25,,,,,,,,,,,,,LDT,right,0.500367543543689,,,,,,0,,,,,,,,,,,,,right,0,0.500367543543689,,,,,,,1075,2019_Mar_14_1404,mf_amp_cond1,3.0.4,60.003848874556745,
chadows,,&&&&&&&,right,nonword,,,,,,,,,,,,,,,0,30,30,104,,,,,,,,,,,,,LDT,right,0.7170953926397488,,,,,,1,,,,,,,,,,,,,right,1,0.7170953926397488,,,,,,,1075,2019_Mar_14_1404,mf_amp_cond1,3.0.4,60.003848874556745,
mightingale,,&&&&&&&&&&&,right,nonword,,,,,,,,,,,,,,,0,31,31,142,,,,,,,,,,,,,LDT,left,1.3505925917997956,,,,,,0,,,,,,,,,,,,,left,0,1.3505925917997956,,,,,,,1075,2019_Mar_14_1404,mf_amp_cond1,3.0.4,60.003848874556745,
killed,,&&&&&&,left,care.vice,,,,,,,,,,,,,,,0,32,32,173,,,,,,,,,,,,,LDT,right,0.4670230705814902,,,,,,0,,,,,,,,,,,,,right,0,0.4670230705814902,,,,,,,1075,2019_Mar_14_1404,mf_amp_cond1,3.0.4,60.003848874556745,
amoungst,,&&&&&&&&,left,neutral,,,,,,,,,,,,,,,0,33,33,38,,,,,,,,,,,,,LDT,right,0.5503868187079206,,,,,,0,,,,,,,,,,,,,right,0,0.5503868187079206,,,,,,,1075,2019_Mar_14_1404,mf_amp_cond1,3.0.4,60.003848874556745,
ebbitter,,&&&&&&&&,right,nonword,,,,,,,,,,,,,,,0,34,34,105,,,,,,,,,,,,,LDT,left,0.9004678643250372,,,,,,0,,,,,,,,,,,,,left,0,0.9004678643250372,,,,,,,1075,2019_Mar_14_1404,mf_amp_cond1,3.0.4,60.003848874556745,
could,,&&&&&,left,neutral,,,,,,,,,,,,,,,0,35,35,158,,,,,,,,,,,,,LDT,right,0.41701566195115447,,,,,,0,,,,,,,,,,,,,right,0,0.41701566195115447,,,,,,,1075,2019_Mar_14_1404,mf_amp_cond1,3.0.4,60.003848874556745,
done,,&&&&,left,neutral,,,,,,,,,,,,,,,0,36,36,182,,,,,,,,,,,,,LDT,right,0.5503457667655312,,,,,,0,,,,,,,,,,,,,right,0,0.5503457667655312,,,,,,,1075,2019_Mar_14_1404,mf_amp_cond1,3.0.4,60.003848874556745,
thru,,&&&&,left,neutral,,,,,,,,,,,,,,,0,37,37,20,,,,,,,,,,,,,LDT,right,0.5503804043401033,,,,,,0,,,,,,,,,,,,,right,0,0.5503804043401033,,,,,,,1075,2019_Mar_14_1404,mf_amp_cond1,3.0.4,60.003848874556745,
sliptery,,&&&&&&&&,right,nonword,,,,,,,,,,,,,,,0,38,38,49,,,,,,,,,,,,,LDT,right,0.5670234554272611,,,,,,1,,,,,,,,,,,,,right,1,0.5670234554272611,,,,,,,1075,2019_Mar_14_1404,mf_amp_cond1,3.0.4,60.003848874556745,
whereafter,,&&&&&&&&&&,left,neutral,,,,,,,,,,,,,,,0,39,39,9,,,,,,,,,,,,,LDT,right,0.517041062907083,,,,,,0,,,,,,,,,,,,,right,0,0.517041062907083,,,,,,,1075,2019_Mar_14_1404,mf_amp_cond1,3.0.4,60.003848874556745,
corruption,,&&&&&&&&&&,left,sanctity.vice,,,,,,,,,,,,,,,0,40,40,86,,,,,,,,,,,,,LDT,right,0.5337145822413731,,,,,,0,,,,,,,,,,,,,right,0,0.5337145822413731,,,,,,,1075,2019_Mar_14_1404,mf_amp_cond1,3.0.4,60.003848874556745,
couldnt,,&&&&&&&,left,neutral,,,,,,,,,,,,,,,0,41,41,51,,,,,,,,,,,,,LDT,right,0.5003643363597803,,,,,,0,,,,,,,,,,,,,right,0,0.5003643363597803,,,,,,,1075,2019_Mar_14_1404,mf_amp_cond1,3.0.4,60.003848874556745,
been,,&&&&,left,neutral,,,,,,,,,,,,,,,0,42,42,145,,,,,,,,,,,,,LDT,right,0.4669919608568307,,,,,,0,,,,,,,,,,,,,right,0,0.4669919608568307,,,,,,,1075,2019_Mar_14_1404,mf_amp_cond1,3.0.4,60.003848874556745,
anyhow,,&&&&&&,left,neutral,,,,,,,,,,,,,,,0,43,43,126,,,,,,,,,,,,,LDT,right,0.5170333656424191,,,,,,0,,,,,,,,,,,,,right,0,0.5170333656424191,,,,,,,1075,2019_Mar_14_1404,mf_amp_cond1,3.0.4,60.003848874556745,
gondensed,,&&&&&&&&&,right,nonword,,,,,,,,,,,,,,,0,44,44,98,,,,,,,,,,,,,LDT,right,0.6837429016886745,,,,,,1,,,,,,,,,,,,,right,1,0.6837429016886745,,,,,,,1075,2019_Mar_14_1404,mf_amp_cond1,3.0.4,60.003848874556745,
itself,,&&&&&&,left,neutral,,,,,,,,,,,,,,,0,45,45,115,,,,,,,,,,,,,LDT,right,0.5503823286562692,,,,,,0,,,,,,,,,,,,,right,0,0.5503823286562692,,,,,,,1075,2019_Mar_14_1404,mf_amp_cond1,3.0.4,60.003848874556745,
prones,,&&&&&&,right,nonword,,,,,,,,,,,,,,,0,46,46,100,,,,,,,,,,,,,LDT,right,0.5170497222861741,,,,,,1,,,,,,,,,,,,,right,1,0.5170497222861741,,,,,,,1075,2019_Mar_14_1404,mf_amp_cond1,3.0.4,60.003848874556745,
noone,,&&&&&,left,neutral,,,,,,,,,,,,,,,0,47,47,27,,,,,,,,,,,,,LDT,right,0.4503553241665941,,,,,,0,,,,,,,,,,,,,right,0,0.4503553241665941,,,,,,,1075,2019_Mar_14_1404,mf_amp_cond1,3.0.4,60.003848874556745,
harassment,,&&&&&&&&&&,left,sanctity.vice,,,,,,,,,,,,,,,0,48,48,19,,,,,,,,,,,,,LDT,right,1.2672548218688462,,,,,,0,,,,,,,,,,,,,right,0,1.2672548218688462,,,,,,,1075,2019_Mar_14_1404,mf_amp_cond1,3.0.4,60.003848874556745,
ronviolence,,&&&&&&&&&&&,right,nonword,,,,,,,,,,,,,,,0,49,49,83,,,,,,,,,,,,,LDT,right,1.4505961838294752,,,,,,1,,,,,,,,,,,,,right,1,1.4505961838294752,,,,,,,1075,2019_Mar_14_1404,mf_amp_cond1,3.0.4,60.003848874556745,
bruthfulness,,&&&&&&&&&&&&,right,nonword,,,,,,,,,,,,,,,0,50,50,89,,,,,,,,,,,,,LDT,right,0.9838184629916213,,,,,,1,,,,,,,,,,,,,right,1,0.9838184629916213,,,,,,,1075,2019_Mar_14_1404,mf_amp_cond1,3.0.4,60.003848874556745,
fonderland,,&&&&&&&&&&,right,nonword,,,,,,,,,,,,,,,0,51,51,116,,,,,,,,,,,,,LDT,right,0.8504460233671125,,,,,,1,,,,,,,,,,,,,right,1,0.8504460233671125,,,,,,,1075,2019_Mar_14_1404,mf_amp_cond1,3.0.4,60.003848874556745,
win,,&&&,left,fairness.virtue,,,,,,,,,,,,,,,0,52,52,74,,,,,,,,,,,,,LDT,left,0.7004273254715372,,,,,,1,,,,,,,,,,,,,left,1,0.7004273254715372,,,,,,,1075,2019_Mar_14_1404,mf_amp_cond1,3.0.4,60.003848874556745,
hasks,,&&&&&,right,nonword,,,,,,,,,,,,,,,0,53,53,68,,,,,,,,,,,,,LDT,right,0.9338142615742981,,,,,,1,,,,,,,,,,,,,right,1,0.9338142615742981,,,,,,,1075,2019_Mar_14_1404,mf_amp_cond1,3.0.4,60.003848874556745,
become,,&&&&&&,left,neutral,,,,,,,,,,,,,,,0,54,54,146,,,,,,,,,,,,,LDT,right,0.5837293673539534,,,,,,0,,,,,,,,,,,,,right,0,0.5837293673539534,,,,,,,1075,2019_Mar_14_1404,mf_amp_cond1,3.0.4,60.003848874556745,
amount,,&&&&&&,left,neutral,,,,,,,,,,,,,,,0,55,55,15,,,,,,,,,,,,,LDT,right,0.5003505454515107,,,,,,0,,,,,,,,,,,,,right,0,0.5003505454515107,,,,,,,1075,2019_Mar_14_1404,mf_amp_cond1,3.0.4,60.003848874556745,
three,,&&&&&,left,neutral,,,,,,,,,,,,,,,0,56,56,147,,,,,,,,,,,,,LDT,right,0.5170247062342241,,,,,,0,,,,,,,,,,,,,right,0,0.5170247062342241,,,,,,,1075,2019_Mar_14_1404,mf_amp_cond1,3.0.4,60.003848874556745,
rebels,,&&&&&&,left,authority.vice,,,,,,,,,,,,,,,0,57,57,85,,,,,,,,,,,,,LDT,right,1.01715523871826,,,,,,0,,,,,,,,,,,,,right,0,1.01715523871826,,,,,,,1075,2019_Mar_14_1404,mf_amp_cond1,3.0.4,60.003848874556745,
tabin,,&&&&&,right,nonword,,,,,,,,,,,,,,,0,58,58,170,,,,,,,,,,,,,LDT,left,0.5670510372146964,,,,,,0,,,,,,,,,,,,,left,0,0.5670510372146964,,,,,,,1075,2019_Mar_14_1404,mf_amp_cond1,3.0.4,60.003848874556745,
improve,,&&&&&&&,left,care.virtue,,,,,,,,,,,,,,,0,59,59,90,,,,,,,,,,,,,LDT,right,0.6337233057711273,,,,,,0,,,,,,,,,,,,,right,0,0.6337233057711273,,,,,,,1075,2019_Mar_14_1404,mf_amp_cond1,3.0.4,60.003848874556745,
hatigue,,&&&&&&&,right,nonword,,,,,,,,,,,,,,,0,60,60,171,,,,,,,,,,,,,LDT,left,0.8671310885983985,,,,,,0,,,,,,,,,,,,,left,0,0.8671310885983985,,,,,,,1075,2019_Mar_14_1404,mf_amp_cond1,3.0.4,60.003848874556745,
praised,,&&&&&&&,left,loyalty.virtue,,,,,,,,,,,,,,,0,61,61,55,,,,,,,,,,,,,LDT,right,0.7670983111602254,,,,,,0,,,,,,,,,,,,,right,0,0.7670983111602254,,,,,,,1075,2019_Mar_14_1404,mf_amp_cond1,3.0.4,60.003848874556745,
counpy's,,&&&&&&&&,right,nonword,,,,,,,,,,,,,,,0,62,62,110,,,,,,,,,,,,,LDT,right,0.5837479690671898,,,,,,1,,,,,,,,,,,,,right,1,0.5837479690671898,,,,,,,1075,2019_Mar_14_1404,mf_amp_cond1,3.0.4,60.003848874556745,
sonvoy,,&&&&&&,None,nonword,,,,,,,,,,,,,,,0,63,63,128,,,,,,,,,,,,,LDT,left,0.6670652129978407,,,,,,0,,,,,,,,,,,,,left,0,0.6670652129978407,,,,,,,1075,2019_Mar_14_1404,mf_amp_cond1,3.0.4,60.003848874556745,
glacenta,,&&&&&&&&,right,nonword,,,,,,,,,,,,,,,0,64,64,129,,,,,,,,,,,,,LDT,left,0.6170465792529285,,,,,,0,,,,,,,,,,,,,left,0,0.6170465792529285,,,,,,,1075,2019_Mar_14_1404,mf_amp_cond1,3.0.4,60.003848874556745,
hescribe,,&&&&&&&&,right,nonword,,,,,,,,,,,,,,,0,65,65,143,,,,,,,,,,,,,LDT,left,0.9838181422674097,,,,,,0,,,,,,,,,,,,,left,0,0.9838181422674097,,,,,,,1075,2019_Mar_14_1404,mf_amp_cond1,3.0.4,60.003848874556745,
party,,&&&&&,left,loyalty.virtue,,,,,,,,,,,,,,,0,66,66,185,,,,,,,,,,,,,LDT,right,0.5337360703852028,,,,,,0,,,,,,,,,,,,,right,0,0.5337360703852028,,,,,,,1075,2019_Mar_14_1404,mf_amp_cond1,3.0.4,60.003848874556745,
honored,,&&&&&&&,left,authority.virtue,,,,,,,,,,,,,,,0,67,67,190,,,,,,,,,,,,,LDT,right,0.8504501927236561,,,,,,0,,,,,,,,,,,,,right,0,0.8504501927236561,,,,,,,1075,2019_Mar_14_1404,mf_amp_cond1,3.0.4,60.003848874556745,
toward,,&&&&&&,left,neutral,,,,,,,,,,,,,,,0,68,68,0,,,,,,,,,,,,,LDT,right,0.5670847127039451,,,,,,0,,,,,,,,,,,,,right,0,0.5670847127039451,,,,,,,1075,2019_Mar_14_1404,mf_amp_cond1,3.0.4,60.003848874556745,
strength,,&&&&&&&&,left,sanctity.virtue,,,,,,,,,,,,,,,0,69,69,50,,,,,,,,,,,,,LDT,right,0.7337907208129764,,,,,,0,,,,,,,,,,,,,right,0,0.7337907208129764,,,,,,,1075,2019_Mar_14_1404,mf_amp_cond1,3.0.4,60.003848874556745,
neutralust,,&&&&&&&&&&,right,nonword,,,,,,,,,,,,,,,0,70,70,88,,,,,,,,,,,,,LDT,right,1.7173333658429328,,,,,,1,,,,,,,,,,,,,right,1,1.7173333658429328,,,,,,,1075,2019_Mar_14_1404,mf_amp_cond1,3.0.4,60.003848874556745,
grovelire,,&&&&&&&&&,right,nonword,,,,,,,,,,,,,,,0,71,71,162,,,,,,,,,,,,,LDT,left,0.867125636403216,,,,,,0,,,,,,,,,,,,,left,0,0.867125636403216,,,,,,,1075,2019_Mar_14_1404,mf_amp_cond1,3.0.4,60.003848874556745,
dormandi,,&&&&&&&&,None,nonword,,,,,,,,,,,,,,,0,72,72,120,,,,,,,,,,,,,LDT,left,0.7671271758154035,,,,,,0,,,,,,,,,,,,,left,0,0.7671271758154035,,,,,,,1075,2019_Mar_14_1404,mf_amp_cond1,3.0.4,60.003848874556745,
Oregoniuns,,&&&&&&&&&&,right,nonword,,,,,,,,,,,,,,,0,73,73,101,,,,,,,,,,,,,LDT,right,0.5836924847098999,,,,,,1,,,,,,,,,,,,,right,1,0.5836924847098999,,,,,,,1075,2019_Mar_14_1404,mf_amp_cond1,3.0.4,60.003848874556745,
yane,,&&&&,right,nonword,,,,,,,,,,,,,,,0,74,74,107,,,,,,,,,,,,,LDT,right,1.3338902077521197,,,,,,1,,,,,,,,,,,,,right,1,1.3338902077521197,,,,,,,1075,2019_Mar_14_1404,mf_amp_cond1,3.0.4,60.003848874556745,
supervuned,,&&&&&&&&&&,right,nonword,,,,,,,,,,,,,,,0,75,75,67,,,,,,,,,,,,,LDT,right,0.46704006867366843,,,,,,1,,,,,,,,,,,,,right,1,0.46704006867366843,,,,,,,1075,2019_Mar_14_1404,mf_amp_cond1,3.0.4,60.003848874556745,
somehow,,&&&&&&&,left,neutral,,,,,,,,,,,,,,,0,76,76,151,,,,,,,,,,,,,LDT,right,0.8004421427031048,,,,,,0,,,,,,,,,,,,,right,0,0.8004421427031048,,,,,,,1075,2019_Mar_14_1404,mf_amp_cond1,3.0.4,60.003848874556745,
framo,,&&&&&,right,nonword,,,,,,,,,,,,,,,0,77,77,112,,,,,,,,,,,,,LDT,left,0.6837486746080685,,,,,,0,,,,,,,,,,,,,left,0,0.6837486746080685,,,,,,,1075,2019_Mar_14_1404,mf_amp_cond1,3.0.4,60.003848874556745,
pharing,,&&&&&&&,right,nonword,,,,,,,,,,,,,,,0,78,78,103,,,,,,,,,,,,,LDT,right,0.4003524056170136,,,,,,1,,,,,,,,,,,,,right,1,0.4003524056170136,,,,,,,1075,2019_Mar_14_1404,mf_amp_cond1,3.0.4,60.003848874556745,
ban,,&&&,left,loyalty.vice,,,,,,,,,,,,,,,0,79,79,167,,,,,,,,,,,,,LDT,right,0.8671237120579462,,,,,,0,,,,,,,,,,,,,right,0,0.8671237120579462,,,,,,,1075,2019_Mar_14_1404,mf_amp_cond1,3.0.4,60.003848874556745,
eight,,&&&&&,left,neutral,,,,,,,,,,,,,,,0,80,80,106,,,,,,,,,,,,,LDT,left,1.5172892991104163,,,,,,1,,,,,,,,,,,,,left,1,1.5172892991104163,,,,,,,1075,2019_Mar_14_1404,mf_amp_cond1,3.0.4,60.003848874556745,
slavery,,&&&&&&&,left,loyalty.vice,,,,,,,,,,,,,,,0,81,81,24,,,,,,,,,,,,,LDT,right,0.6170610115805175,,,,,,0,,,,,,,,,,,,,right,0,0.6170610115805175,,,,,,,1075,2019_Mar_14_1404,mf_amp_cond1,3.0.4,60.003848874556745,
nonobservalt,,&&&&&&&&&&&&,right,nonword,,,,,,,,,,,,,,,0,82,82,28,,,,,,,,,,,,,LDT,left,7.185353550565196,,,,,,0,,,,,,,,,,,,,left,0,7.185353550565196,,,,,,,1075,2019_Mar_14_1404,mf_amp_cond1,3.0.4,60.003848874556745,
critics,,&&&&&&&,left,loyalty.vice,,,,,,,,,,,,,,,0,83,83,102,,,,,,,,,,,,,LDT,right,0.5170356106536929,,,,,,0,,,,,,,,,,,,,right,0,0.5170356106536929,,,,,,,1075,2019_Mar_14_1404,mf_amp_cond1,3.0.4,60.003848874556745,
betrayal,,&&&&&&&&,left,loyalty.vice,,,,,,,,,,,,,,,0,84,84,174,,,,,,,,,,,,,LDT,right,0.5502347981091589,,,,,,0,,,,,,,,,,,,,right,0,0.5502347981091589,,,,,,,1075,2019_Mar_14_1404,mf_amp_cond1,3.0.4,60.003848874556745,
unreflectuve,,&&&&&&&&&&&&,right,nonword,,,,,,,,,,,,,,,0,85,85,53,,,,,,,,,,,,,LDT,right,0.5503711035125889,,,,,,1,,,,,,,,,,,,,right,1,0.5503711035125889,,,,,,,1075,2019_Mar_14_1404,mf_amp_cond1,3.0.4,60.003848874556745,
neputized,,&&&&&&&&&,right,nonword,,,,,,,,,,,,,,,0,86,86,124,,,,,,,,,,,,,LDT,right,1.1171973169839475,,,,,,1,,,,,,,,,,,,,right,1,1.1171973169839475,,,,,,,1075,2019_Mar_14_1404,mf_amp_cond1,3.0.4,60.003848874556745,
atson,,&&&&&,right,nonword,,,,,,,,,,,,,,,0,87,87,12,,,,,,,,,,,,,LDT,right,2.7342214459204115,,,,,,1,,,,,,,,,,,,,right,1,2.7342214459204115,,,,,,,1075,2019_Mar_14_1404,mf_amp_cond1,3.0.4,60.003848874556745,
gournful,,&&&&&&&&,right,nonword,,,,,,,,,,,,,,,0,88,88,39,,,,,,,,,,,,,LDT,left,0.8337744283489883,,,,,,0,,,,,,,,,,,,,left,0,0.8337744283489883,,,,,,,1075,2019_Mar_14_1404,mf_amp_cond1,3.0.4,60.003848874556745,
useful,,&&&&&&,left,authority.virtue,,,,,,,,,,,,,,,0,89,89,93,,,,,,,,,,,,,LDT,right,0.6003769085218664,,,,,,0,,,,,,,,,,,,,right,0,0.6003769085218664,,,,,,,1075,2019_Mar_14_1404,mf_amp_cond1,3.0.4,60.003848874556745,
clean,,&&&&&,left,sanctity.virtue,,,,,,,,,,,,,,,0,90,90,194,,,,,,,,,,,,,LDT,right,0.4836972313642036,,,,,,0,,,,,,,,,,,,,right,0,0.4836972313642036,,,,,,,1075,2019_Mar_14_1404,mf_amp_cond1,3.0.4,60.003848874556745,
suicide,,&&&&&&&,left,care.vice,,,,,,,,,,,,,,,0,91,91,41,,,,,,,,,,,,,LDT,right,0.5003694678307511,,,,,,0,,,,,,,,,,,,,right,0,0.5003694678307511,,,,,,,1075,2019_Mar_14_1404,mf_amp_cond1,3.0.4,60.003848874556745,
about,,&&&&&,left,neutral,,,,,,,,,,,,,,,0,92,92,80,,,,,,,,,,,,,LDT,right,0.4837260960484855,,,,,,0,,,,,,,,,,,,,right,0,0.4837260960484855,,,,,,,1075,2019_Mar_14_1404,mf_amp_cond1,3.0.4,60.003848874556745,
faith,,&&&&&,left,sanctity.virtue,,,,,,,,,,,,,,,0,93,93,42,,,,,,,,,,,,,LDT,right,0.4503617385053076,,,,,,0,,,,,,,,,,,,,right,0,0.4503617385053076,,,,,,,1075,2019_Mar_14_1404,mf_amp_cond1,3.0.4,60.003848874556745,
gillipede,,&&&&&&&&&,None,nonword,,,,,,,,,,,,,,,0,94,94,6,,,,,,,,,,,,,LDT,left,0.7337827028823085,,,,,,0,,,,,,,,,,,,,left,0,0.7337827028823085,,,,,,,1075,2019_Mar_14_1404,mf_amp_cond1,3.0.4,60.003848874556745,
ejanulated,,&&&&&&&&&&,right,nonword,,,,,,,,,,,,,,,0,95,95,3,,,,,,,,,,,,,LDT,left,0.8671035068109632,,,,,,0,,,,,,,,,,,,,left,0,0.8671035068109632,,,,,,,1075,2019_Mar_14_1404,mf_amp_cond1,3.0.4,60.003848874556745,
Boeinf,,&&&&&&,right,nonword,,,,,,,,,,,,,,,0,96,96,46,,,,,,,,,,,,,LDT,left,1.0672024164232425,,,,,,0,,,,,,,,,,,,,left,0,1.0672024164232425,,,,,,,1075,2019_Mar_14_1404,mf_amp_cond1,3.0.4,60.003848874556745,
simplustic,,&&&&&&&&&&,right,nonword,,,,,,,,,,,,,,,0,97,97,198,,,,,,,,,,,,,LDT,right,0.45037520871846937,,,,,,1,,,,,,,,,,,,,right,1,0.45037520871846937,,,,,,,1075,2019_Mar_14_1404,mf_amp_cond1,3.0.4,60.003848874556745,
safety,,&&&&&&,left,care.virtue,,,,,,,,,,,,,,,0,98,98,181,,,,,,,,,,,,,LDT,right,0.43367923903861083,,,,,,0,,,,,,,,,,,,,right,0,0.43367923903861083,,,,,,,1075,2019_Mar_14_1404,mf_amp_cond1,3.0.4,60.003848874556745,
brotesque,,&&&&&&&&&,right,nonword,,,,,,,,,,,,,,,0,99,99,57,,,,,,,,,,,,,LDT,left,0.733750631014118,,,,,,0,,,,,,,,,,,,,left,0,0.733750631014118,,,,,,,1075,2019_Mar_14_1404,mf_amp_cond1,3.0.4,60.003848874556745,
tomedians,,&&&&&&&&&,right,nonword,,,,,,,,,,,,,,,0,100,100,138,,,,,,,,,,,,,LDT,left,0.9338136201549787,,,,,,0,,,,,,,,,,,,,left,0,0.9338136201549787,,,,,,,1075,2019_Mar_14_1404,mf_amp_cond1,3.0.4,60.003848874556745,
fifty,,&&&&&,left,neutral,,,,,,,,,,,,,,,0,101,101,23,,,,,,,,,,,,,LDT,right,0.5837203872506507,,,,,,0,,,,,,,,,,,,,right,0,0.5837203872506507,,,,,,,1075,2019_Mar_14_1404,mf_amp_cond1,3.0.4,60.003848874556745,
emassion,,&&&&&&&&,right,nonword,,,,,,,,,,,,,,,0,102,102,148,,,,,,,,,,,,,LDT,right,1.0004785121709574,,,,,,1,,,,,,,,,,,,,right,1,1.0004785121709574,,,,,,,1075,2019_Mar_14_1404,mf_amp_cond1,3.0.4,60.003848874556745,
protesters,,&&&&&&&&&&,left,authority.vice,,,,,,,,,,,,,,,0,103,103,18,,,,,,,,,,,,,LDT,right,0.5170500430103857,,,,,,0,,,,,,,,,,,,,right,0,0.5170500430103857,,,,,,,1075,2019_Mar_14_1404,mf_amp_cond1,3.0.4,60.003848874556745,
fear,,&&&&,left,sanctity.vice,,,,,,,,,,,,,,,0,104,104,197,,,,,,,,,,,,,LDT,right,0.5170413836021908,,,,,,0,,,,,,,,,,,,,right,0,0.5170413836021908,,,,,,,1075,2019_Mar_14_1404,mf_amp_cond1,3.0.4,60.003848874556745,
vurtain,,&&&&&&&,right,nonword,,,,,,,,,,,,,,,0,105,105,179,,,,,,,,,,,,,LDT,right,0.8005447726463899,,,,,,1,,,,,,,,,,,,,right,1,0.8005447726463899,,,,,,,1075,2019_Mar_14_1404,mf_amp_cond1,3.0.4,60.003848874556745,
anything,,&&&&&&&&,left,neutral,,,,,,,,,,,,,,,0,106,106,140,,,,,,,,,,,,,LDT,right,0.617078651121119,,,,,,0,,,,,,,,,,,,,right,0,0.617078651121119,,,,,,,1075,2019_Mar_14_1404,mf_amp_cond1,3.0.4,60.003848874556745,
