words,mask,corr_ans,category,nonwords,tweets,topic,LDT_pracloop.thisRepN,LDT_pracloop.thisTrialN,LDT_pracloop.thisN,LDT_pracloop.thisIndex,LDT_trials.thisRepN,LDT_trials.thisTrialN,LDT_trials.thisN,LDT_trials.thisIndex,AMP_pracloop.thisRepN,AMP_pracloop.thisTrialN,AMP_pracloop.thisN,AMP_pracloop.thisIndex,AMP_trials.thisRepN,AMP_trials.thisTrialN,AMP_trials.thisN,AMP_trials.thisIndex,tweet_loop.thisRepN,tweet_loop.thisTrialN,tweet_loop.thisN,tweet_loop.thisIndex,begin_key.keys,begin_key.rt,key_resp_AMP_instr1.keys,key_resp_AMP_instr1.rt,key_resp_LDT_instr.keys,key_resp_LDT_instr.rt,resp_LDT_prac.keys,resp_LDT_prac.rt,task,keypress,RT,corr,resp_LDT_ready.keys,resp_LDT_ready.rt,resp_LDT.keys,resp_LDT.corr,resp_LDT.rt,LDT_rating.response,LDT_rating.rt,resp_AMP_ready1.keys,resp_AMP_ready1.rt,resp_AMP_prac.keys,resp_AMP_prac.rt,resp_AMP_ready.keys,resp_AMP_ready.rt,resp_AMP.keys,resp_AMP.corr,resp_AMP.rt,AMP_nonword_rating.response,AMP_nonword_rating.rt,AMP_word_rating.response,AMP_word_rating.rt,AMP_random_rating.response,AMP_random_rating.rt,key_resp_LDT_instr_2.keys,key_resp_LDT_instr_2.rt,resp_tweets.keys,resp_tweets.rt,participant,date,expName,psychopyVersion,frameRate,
,,,,,,,,,,,,,,,,,,,,,,,,,,,right,1965.3890755483153,,,,,,,,,,,,,,,,,,,,,,,,,,,,,,,,,,,,,1076,2019_Mar_15_1435,mf_amp_cond2,3.0.4,59.97749385009644,
,,,,,,,,,,,,,,,,,,,,,,,,,,,,,right,2.3175102582463296,,,,,,,,,,,,,,,,,,,,,,,,,,,,,,,,,,,1076,2019_Mar_15_1435,mf_amp_cond2,3.0.4,59.97749385009644,
,,,,,,,,,,,,,,,,,,,,,,,,,,,,,,,right,1.9674612842063652,,,,,,,,,,,,,,,,,,,,,,,,,,,,,,,,,1076,2019_Mar_15_1435,mf_amp_cond2,3.0.4,59.97749385009644,
keyboard,&&&&&&&,,,,,,0,0,0,0,,,,,,,,,,,,,,,,,,,,,,,left,3.0508755995106185,LDT_prac,left,3.0508755995106185,0,,,,,,,,,,,,,,,,,,,,,,,,,,,1076,2019_Mar_15_1435,mf_amp_cond2,3.0.4,59.97749385009644,
bisebell,&&&&&&&,,,,,,0,1,1,1,,,,,,,,,,,,,,,,,,,,,,,right,1.3339090269437293,LDT_prac,right,1.3339090269437293,0,,,,,,,,,,,,,,,,,,,,,,,,,,,1076,2019_Mar_15_1435,mf_amp_cond2,3.0.4,59.97749385009644,
,,,,,,,,,,,,,,,,,,,,,,,,,,,,,,,,,,,,,,,right,1.150536341170664,,,,,,,,,,,,,,,,,,,,,,,,,1076,2019_Mar_15_1435,mf_amp_cond2,3.0.4,59.97749385009644,
sickyay,&&&&&&&,right,nonword,,,,,,,,0,0,0,129,,,,,,,,,,,,,,,,,,,,,LDT,right,1.367271353417891,1,,,right,1,1.367271353417891,,,,,,,,,,,,,,,,,,,,,,1076,2019_Mar_15_1435,mf_amp_cond2,3.0.4,59.97749385009644,
arrests,&&&&&&&,left,authority.vice,,,,,,,,0,1,1,64,,,,,,,,,,,,,,,,,,,,,LDT,right,1.3005733202735428,0,,,right,0,1.3005733202735428,,,,,,,,,,,,,,,,,,,,,,1076,2019_Mar_15_1435,mf_amp_cond2,3.0.4,59.97749385009644,
whither,&&&&&&&,left,neutral,,,,,,,,0,2,2,16,,,,,,,,,,,,,,,,,,,,,LDT,right,1.8840601184492698,0,,,right,0,1.8840601184492698,,,,,,,,,,,,,,,,,,,,,,1076,2019_Mar_15_1435,mf_amp_cond2,3.0.4,59.97749385009644,
couldnt,&&&&&&&,left,neutral,,,,,,,,0,3,3,0,,,,,,,,,,,,,,,,,,,,,LDT,right,1.0671973952412372,0,,,right,0,1.0671973952412372,,,,,,,,,,,,,,,,,,,,,,1076,2019_Mar_15_1435,mf_amp_cond2,3.0.4,59.97749385009644,
faith,&&&&&,left,sanctity.virtue,,,,,,,,0,4,4,172,,,,,,,,,,,,,,,,,,,,,LDT,right,0.7671115703851683,0,,,right,0,0.7671115703851683,,,,,,,,,,,,,,,,,,,,,,1076,2019_Mar_15_1435,mf_amp_cond2,3.0.4,59.97749385009644,
terrorist,&&&&&&&&&,left,loyalty.vice,,,,,,,,0,5,5,77,,,,,,,,,,,,,,,,,,,,,LDT,right,0.9338350046164123,0,,,right,0,0.9338350046164123,,,,,,,,,,,,,,,,,,,,,,1076,2019_Mar_15_1435,mf_amp_cond2,3.0.4,59.97749385009644,
amount,&&&&&&,left,neutral,,,,,,,,0,6,6,176,,,,,,,,,,,,,,,,,,,,,LDT,right,1.3005540770245716,0,,,right,0,1.3005540770245716,,,,,,,,,,,,,,,,,,,,,,1076,2019_Mar_15_1435,mf_amp_cond2,3.0.4,59.97749385009644,
dramens,&&&&&&&,right,nonword,,,,,,,,0,7,7,20,,,,,,,,,,,,,,,,,,,,,LDT,left,0.8504857955995249,0,,,left,0,0.8504857955995249,,,,,,,,,,,,,,,,,,,,,,1076,2019_Mar_15_1435,mf_amp_cond2,3.0.4,59.97749385009644,
ablow,&&&&&,right,nonword,,,,,,,,0,8,8,130,,,,,,,,,,,,,,,,,,,,,LDT,left,0.8837916752527235,0,,,left,0,0.8837916752527235,,,,,,,,,,,,,,,,,,,,,,1076,2019_Mar_15_1435,mf_amp_cond2,3.0.4,59.97749385009644,
three,&&&&&,left,neutral,,,,,,,,0,9,9,191,,,,,,,,,,,,,,,,,,,,,LDT,right,0.7004273282218492,0,,,right,0,0.7004273282218492,,,,,,,,,,,,,,,,,,,,,,1076,2019_Mar_15_1435,mf_amp_cond2,3.0.4,59.97749385009644,
amoungst,&&&&&&&&,left,neutral,,,,,,,,0,10,10,144,,,,,,,,,,,,,,,,,,,,,LDT,right,0.6670999602938537,0,,,right,0,0.6670999602938537,,,,,,,,,,,,,,,,,,,,,,1076,2019_Mar_15_1435,mf_amp_cond2,3.0.4,59.97749385009644,
frocessing,&&&&&&&&&&,right,nonword,,,,,,,,0,11,11,196,,,,,,,,,,,,,,,,,,,,,LDT,left,0.8004950644244673,0,,,left,0,0.8004950644244673,,,,,,,,,,,,,,,,,,,,,,1076,2019_Mar_15_1435,mf_amp_cond2,3.0.4,59.97749385009644,
neneficence,&&&&&&&&&&&,right,nonword,,,,,,,,0,12,12,47,,,,,,,,,,,,,,,,,,,,,LDT,left,1.0505179959582165,0,,,left,0,1.0505179959582165,,,,,,,,,,,,,,,,,,,,,,1076,2019_Mar_15_1435,mf_amp_cond2,3.0.4,59.97749385009644,
fornicalion,&&&&&&&&&&&,right,nonword,,,,,,,,0,13,13,38,,,,,,,,,,,,,,,,,,,,,LDT,left,0.7337768258730648,0,,,left,0,0.7337768258730648,,,,,,,,,,,,,,,,,,,,,,1076,2019_Mar_15_1435,mf_amp_cond2,3.0.4,59.97749385009644,
praised,&&&&&&&,left,loyalty.virtue,,,,,,,,0,14,14,97,,,,,,,,,,,,,,,,,,,,,LDT,right,0.5837780125439167,0,,,right,0,0.5837780125439167,,,,,,,,,,,,,,,,,,,,,,1076,2019_Mar_15_1435,mf_amp_cond2,3.0.4,59.97749385009644,
supervuned,&&&&&&&&&&,right,nonword,,,,,,,,0,15,15,192,,,,,,,,,,,,,,,,,,,,,LDT,left,1.0838655692787142,0,,,left,0,1.0838655692787142,,,,,,,,,,,,,,,,,,,,,,1076,2019_Mar_15_1435,mf_amp_cond2,3.0.4,59.97749385009644,
gondensed,&&&&&&&&&,right,nonword,,,,,,,,0,16,16,142,,,,,,,,,,,,,,,,,,,,,LDT,left,1.0005349620769266,0,,,left,0,1.0005349620769266,,,,,,,,,,,,,,,,,,,,,,1076,2019_Mar_15_1435,mf_amp_cond2,3.0.4,59.97749385009644,
alar,&&&&,right,nonword,,,,,,,,0,17,17,19,,,,,,,,,,,,,,,,,,,,,LDT,left,1.1005497793812538,0,,,left,0,1.1005497793812538,,,,,,,,,,,,,,,,,,,,,,1076,2019_Mar_15_1435,mf_amp_cond2,3.0.4,59.97749385009644,
integrity,&&&&&&&&&,left,fairness.virtue,,,,,,,,0,18,18,170,,,,,,,,,,,,,,,,,,,,,LDT,right,0.5337199300411157,0,,,right,0,0.5337199300411157,,,,,,,,,,,,,,,,,,,,,,1076,2019_Mar_15_1435,mf_amp_cond2,3.0.4,59.97749385009644,
besides,&&&&&&&,left,neutral,,,,,,,,0,19,19,115,,,,,,,,,,,,,,,,,,,,,LDT,right,0.5837299044505926,0,,,right,0,0.5837299044505926,,,,,,,,,,,,,,,,,,,,,,1076,2019_Mar_15_1435,mf_amp_cond2,3.0.4,59.97749385009644,
synchronazers,&&&&&&&&&&&&&,right,nonword,,,,,,,,0,20,20,83,,,,,,,,,,,,,,,,,,,,,LDT,left,0.7172959526942577,0,,,left,0,0.7172959526942577,,,,,,,,,,,,,,,,,,,,,,1076,2019_Mar_15_1435,mf_amp_cond2,3.0.4,59.97749385009644,
loyalty,&&&&&&&,left,loyalty.virtue,,,,,,,,0,21,21,67,,,,,,,,,,,,,,,,,,,,,LDT,right,0.6170688183192397,0,,,right,0,0.6170688183192397,,,,,,,,,,,,,,,,,,,,,,1076,2019_Mar_15_1435,mf_amp_cond2,3.0.4,59.97749385009644,
scock,&&&&&,right,nonword,,,,,,,,0,22,22,149,,,,,,,,,,,,,,,,,,,,,LDT,right,1.6506694402487483,1,,,right,1,1.6506694402487483,,,,,,,,,,,,,,,,,,,,,,1076,2019_Mar_15_1435,mf_amp_cond2,3.0.4,59.97749385009644,
infet,&&&&&,right,nonword,,,,,,,,0,23,23,128,,,,,,,,,,,,,,,,,,,,,LDT,left,0.6337639329140075,0,,,left,0,0.6337639329140075,,,,,,,,,,,,,,,,,,,,,,1076,2019_Mar_15_1435,mf_amp_cond2,3.0.4,59.97749385009644,
ugeasily,&&&&&&&&,right,nonword,,,,,,,,0,24,24,49,,,,,,,,,,,,,,,,,,,,,LDT,left,0.8171180168719729,0,,,left,0,0.8171180168719729,,,,,,,,,,,,,,,,,,,,,,1076,2019_Mar_15_1435,mf_amp_cond2,3.0.4,59.97749385009644,
coom,&&&&,right,nonword,,,,,,,,0,25,25,137,,,,,,,,,,,,,,,,,,,,,LDT,left,0.8004488806473091,0,,,left,0,0.8004488806473091,,,,,,,,,,,,,,,,,,,,,,1076,2019_Mar_15_1435,mf_amp_cond2,3.0.4,59.97749385009644,
fighters,&&&&&&&&,left,authority.vice,,,,,,,,0,26,26,42,,,,,,,,,,,,,,,,,,,,,LDT,right,0.617070421911194,0,,,right,0,0.617070421911194,,,,,,,,,,,,,,,,,,,,,,1076,2019_Mar_15_1435,mf_amp_cond2,3.0.4,59.97749385009644,
could,&&&&&,left,neutral,,,,,,,,0,27,27,2,,,,,,,,,,,,,,,,,,,,,LDT,right,1.017170101913507,0,,,right,0,1.017170101913507,,,,,,,,,,,,,,,,,,,,,,1076,2019_Mar_15_1435,mf_amp_cond2,3.0.4,59.97749385009644,
strong,&&&&&&,left,loyalty.virtue,,,,,,,,0,28,28,164,,,,,,,,,,,,,,,,,,,,,LDT,right,0.6337469347199658,0,,,right,0,0.6337469347199658,,,,,,,,,,,,,,,,,,,,,,1076,2019_Mar_15_1435,mf_amp_cond2,3.0.4,59.97749385009644,
pulge,&&&&&,right,nonword,,,,,,,,0,29,29,185,,,,,,,,,,,,,,,,,,,,,LDT,right,0.75043537831516,1,,,right,1,0.75043537831516,,,,,,,,,,,,,,,,,,,,,,1076,2019_Mar_15_1435,mf_amp_cond2,3.0.4,59.97749385009644,
wherever,&&&&&&&&,left,neutral,,,,,,,,0,30,30,57,,,,,,,,,,,,,,,,,,,,,LDT,right,0.5670658997551072,0,,,right,0,0.5670658997551072,,,,,,,,,,,,,,,,,,,,,,1076,2019_Mar_15_1435,mf_amp_cond2,3.0.4,59.97749385009644,
grovelire,&&&&&&&&&,right,nonword,,,,,,,,0,31,31,190,,,,,,,,,,,,,,,,,,,,,LDT,left,0.5837302251602523,0,,,left,0,0.5837302251602523,,,,,,,,,,,,,,,,,,,,,,1076,2019_Mar_15_1435,mf_amp_cond2,3.0.4,59.97749385009644,
forepo,&&&&&&,right,nonword,,,,,,,,0,32,32,109,,,,,,,,,,,,,,,,,,,,,LDT,left,0.8004578608379234,0,,,left,0,0.8004578608379234,,,,,,,,,,,,,,,,,,,,,,1076,2019_Mar_15_1435,mf_amp_cond2,3.0.4,59.97749385009644,
free,&&&&,left,fairness.virtue,,,,,,,,0,33,33,81,,,,,,,,,,,,,,,,,,,,,LDT,right,0.5670752006553812,0,,,right,0,0.5670752006553812,,,,,,,,,,,,,,,,,,,,,,1076,2019_Mar_15_1435,mf_amp_cond2,3.0.4,59.97749385009644,
pistraught,&&&&&&&&&&,right,nonword,,,,,,,,0,34,34,100,,,,,,,,,,,,,,,,,,,,,LDT,left,0.7504655260563595,0,,,left,0,0.7504655260563595,,,,,,,,,,,,,,,,,,,,,,1076,2019_Mar_15_1435,mf_amp_cond2,3.0.4,59.97749385009644,
viscs,&&&&&,None,nonword,,,,,,,,0,35,35,68,,,,,,,,,,,,,,,,,,,,,LDT,left,0.6837511361518409,0,,,left,0,0.6837511361518409,,,,,,,,,,,,,,,,,,,,,,1076,2019_Mar_15_1435,mf_amp_cond2,3.0.4,59.97749385009644,
ittutable,&&&&&&&&&,right,nonword,,,,,,,,0,36,36,17,,,,,,,,,,,,,,,,,,,,,LDT,left,0.8504790604783921,0,,,left,0,0.8504790604783921,,,,,,,,,,,,,,,,,,,,,,1076,2019_Mar_15_1435,mf_amp_cond2,3.0.4,59.97749385009644,
galamitous,&&&&&&&&&&,right,nonword,,,,,,,,0,37,37,18,,,,,,,,,,,,,,,,,,,,,LDT,left,1.6339910031383624,0,,,left,0,1.6339910031383624,,,,,,,,,,,,,,,,,,,,,,1076,2019_Mar_15_1435,mf_amp_cond2,3.0.4,59.97749385009644,
ronviolence,&&&&&&&&&&&,right,nonword,,,,,,,,0,38,38,186,,,,,,,,,,,,,,,,,,,,,LDT,left,0.6504131844412768,0,,,left,0,0.6504131844412768,,,,,,,,,,,,,,,,,,,,,,1076,2019_Mar_15_1435,mf_amp_cond2,3.0.4,59.97749385009644,
gillipede,&&&&&&&&&,None,nonword,,,,,,,,0,39,39,103,,,,,,,,,,,,,,,,,,,,,LDT,left,0.6837729451654013,0,,,left,0,0.6837729451654013,,,,,,,,,,,,,,,,,,,,,,1076,2019_Mar_15_1435,mf_amp_cond2,3.0.4,59.97749385009644,
touls,&&&&&,right,nonword,,,,,,,,0,40,40,153,,,,,,,,,,,,,,,,,,,,,LDT,left,0.8838234266004292,0,,,left,0,0.8838234266004292,,,,,,,,,,,,,,,,,,,,,,1076,2019_Mar_15_1435,mf_amp_cond2,3.0.4,59.97749385009644,
both,&&&&,left,neutral,,,,,,,,0,41,41,151,,,,,,,,,,,,,,,,,,,,,LDT,right,0.48369680606992915,0,,,right,0,0.48369680606992915,,,,,,,,,,,,,,,,,,,,,,1076,2019_Mar_15_1435,mf_amp_cond2,3.0.4,59.97749385009644,
quarterbocks,&&&&&&&&&&&&,right,nonword,,,,,,,,0,42,42,104,,,,,,,,,,,,,,,,,,,,,LDT,left,1.0503816896671196,0,,,left,0,1.0503816896671196,,,,,,,,,,,,,,,,,,,,,,1076,2019_Mar_15_1435,mf_amp_cond2,3.0.4,59.97749385009644,
baladroit,&&&&&&&&&,right,nonword,,,,,,,,0,43,43,98,,,,,,,,,,,,,,,,,,,,,LDT,left,0.6170559894962935,0,,,left,0,0.6170559894962935,,,,,,,,,,,,,,,,,,,,,,1076,2019_Mar_15_1435,mf_amp_cond2,3.0.4,59.97749385009644,
neputized,&&&&&&&&&,right,nonword,,,,,,,,0,44,44,5,,,,,,,,,,,,,,,,,,,,,LDT,left,0.6002960893238196,0,,,left,0,0.6002960893238196,,,,,,,,,,,,,,,,,,,,,,1076,2019_Mar_15_1435,mf_amp_cond2,3.0.4,59.97749385009644,
myself,&&&&&&,left,neutral,,,,,,,,0,45,45,184,,,,,,,,,,,,,,,,,,,,,LDT,right,0.5503839347220492,0,,,right,0,0.5503839347220492,,,,,,,,,,,,,,,,,,,,,,1076,2019_Mar_15_1435,mf_amp_cond2,3.0.4,59.97749385009644,
least,&&&&&,left,neutral,,,,,,,,0,46,46,99,,,,,,,,,,,,,,,,,,,,,LDT,right,0.7671144568594173,0,,,right,0,0.7671144568594173,,,,,,,,,,,,,,,,,,,,,,1076,2019_Mar_15_1435,mf_amp_cond2,3.0.4,59.97749385009644,
itself,&&&&&&,left,neutral,,,,,,,,0,47,47,23,,,,,,,,,,,,,,,,,,,,,LDT,right,0.5003784503787756,0,,,right,0,0.5003784503787756,,,,,,,,,,,,,,,,,,,,,,1076,2019_Mar_15_1435,mf_amp_cond2,3.0.4,59.97749385009644,
nuckheap,&&&&&&&&,right,nonword,,,,,,,,0,48,48,122,,,,,,,,,,,,,,,,,,,,,LDT,left,0.6004000028187875,0,,,left,0,0.6004000028187875,,,,,,,,,,,,,,,,,,,,,,1076,2019_Mar_15_1435,mf_amp_cond2,3.0.4,59.97749385009644,
about,&&&&&,left,neutral,,,,,,,,0,49,49,74,,,,,,,,,,,,,,,,,,,,,LDT,right,0.7337758637149818,0,,,right,0,0.7337758637149818,,,,,,,,,,,,,,,,,,,,,,1076,2019_Mar_15_1435,mf_amp_cond2,3.0.4,59.97749385009644,
restore,&&&&&&&,left,care.virtue,,,,,,,,0,50,50,28,,,,,,,,,,,,,,,,,,,,,LDT,right,0.7504703368758783,0,,,right,0,0.7504703368758783,,,,,,,,,,,,,,,,,,,,,,1076,2019_Mar_15_1435,mf_amp_cond2,3.0.4,59.97749385009644,
dignity,&&&&&&&,left,sanctity.virtue,,,,,,,,0,51,51,161,,,,,,,,,,,,,,,,,,,,,LDT,left,1.5339713750290684,1,,,left,1,1.5339713750290684,,,,,,,,,,,,,,,,,,,,,,1076,2019_Mar_15_1435,mf_amp_cond2,3.0.4,59.97749385009644,
latterly,&&&&&&&&,left,neutral,,,,,,,,0,52,52,141,,,,,,,,,,,,,,,,,,,,,LDT,left,1.0505186373920878,1,,,left,1,1.0505186373920878,,,,,,,,,,,,,,,,,,,,,,1076,2019_Mar_15_1435,mf_amp_cond2,3.0.4,59.97749385009644,
egpeditious,&&&&&&&&&&&,right,nonword,,,,,,,,0,53,53,150,,,,,,,,,,,,,,,,,,,,,LDT,left,0.5670681448100368,0,,,left,0,0.5670681448100368,,,,,,,,,,,,,,,,,,,,,,1076,2019_Mar_15_1435,mf_amp_cond2,3.0.4,59.97749385009644,
latter,&&&&&&,left,neutral,,,,,,,,0,54,54,26,,,,,,,,,,,,,,,,,,,,,LDT,right,0.517057208227925,0,,,right,0,0.517057208227925,,,,,,,,,,,,,,,,,,,,,,1076,2019_Mar_15_1435,mf_amp_cond2,3.0.4,59.97749385009644,
Lacedonia,&&&&&&&&&,right,nonword,,,,,,,,0,55,55,118,,,,,,,,,,,,,,,,,,,,,LDT,left,0.6837694172427291,0,,,left,0,0.6837694172427291,,,,,,,,,,,,,,,,,,,,,,1076,2019_Mar_15_1435,mf_amp_cond2,3.0.4,59.97749385009644,
chared,&&&&&&,right,nonword,,,,,,,,0,56,56,152,,,,,,,,,,,,,,,,,,,,,LDT,left,1.0171765163249802,0,,,left,0,1.0171765163249802,,,,,,,,,,,,,,,,,,,,,,1076,2019_Mar_15_1435,mf_amp_cond2,3.0.4,59.97749385009644,
been,&&&&,left,neutral,,,,,,,,0,57,57,182,,,,,,,,,,,,,,,,,,,,,LDT,right,0.4836268889630446,0,,,right,0,0.4836268889630446,,,,,,,,,,,,,,,,,,,,,,1076,2019_Mar_15_1435,mf_amp_cond2,3.0.4,59.97749385009644,
violations,&&&&&&&&&&,left,sanctity.vice,,,,,,,,0,58,58,61,,,,,,,,,,,,,,,,,,,,,LDT,right,0.5003906377824023,0,,,right,0,0.5003906377824023,,,,,,,,,,,,,,,,,,,,,,1076,2019_Mar_15_1435,mf_amp_cond2,3.0.4,59.97749385009644,
focomotive,&&&&&&&&&&,right,nonword,,,,,,,,0,59,59,158,,,,,,,,,,,,,,,,,,,,,LDT,left,0.6337334644485964,0,,,left,0,0.6337334644485964,,,,,,,,,,,,,,,,,,,,,,1076,2019_Mar_15_1435,mf_amp_cond2,3.0.4,59.97749385009644,
therefore,&&&&&&&&&,left,neutral,,,,,,,,0,60,60,33,,,,,,,,,,,,,,,,,,,,,LDT,right,1.4506221660412848,0,,,right,0,1.4506221660412848,,,,,,,,,,,,,,,,,,,,,,1076,2019_Mar_15_1435,mf_amp_cond2,3.0.4,59.97749385009644,
either,&&&&&&,left,neutral,,,,,,,,0,61,61,9,,,,,,,,,,,,,,,,,,,,,LDT,right,1.6506627051276155,0,,,right,0,1.6506627051276155,,,,,,,,,,,,,,,,,,,,,,1076,2019_Mar_15_1435,mf_amp_cond2,3.0.4,59.97749385009644,
eight,&&&&&,left,neutral,,,,,,,,0,62,62,146,,,,,,,,,,,,,,,,,,,,,LDT,right,0.4837019375991076,0,,,right,0,0.4837019375991076,,,,,,,,,,,,,,,,,,,,,,1076,2019_Mar_15_1435,mf_amp_cond2,3.0.4,59.97749385009644,
toward,&&&&&&,left,neutral,,,,,,,,0,63,63,154,,,,,,,,,,,,,,,,,,,,,LDT,right,0.48374042408249807,0,,,right,0,0.48374042408249807,,,,,,,,,,,,,,,,,,,,,,1076,2019_Mar_15_1435,mf_amp_cond2,3.0.4,59.97749385009644,
chadows,&&&&&&&,right,nonword,,,,,,,,0,64,64,126,,,,,,,,,,,,,,,,,,,,,LDT,left,0.6337539905798621,0,,,left,0,0.6337539905798621,,,,,,,,,,,,,,,,,,,,,,1076,2019_Mar_15_1435,mf_amp_cond2,3.0.4,59.97749385009644,
done,&&&&,left,neutral,,,,,,,,0,65,65,193,,,,,,,,,,,,,,,,,,,,,LDT,right,0.9338208928966196,0,,,right,0,0.9338208928966196,,,,,,,,,,,,,,,,,,,,,,1076,2019_Mar_15_1435,mf_amp_cond2,3.0.4,59.97749385009644,
become,&&&&&&,left,neutral,,,,,,,,0,66,66,25,,,,,,,,,,,,,,,,,,,,,LDT,right,0.5837648629967589,0,,,right,0,0.5837648629967589,,,,,,,,,,,,,,,,,,,,,,1076,2019_Mar_15_1435,mf_amp_cond2,3.0.4,59.97749385009644,
conspiracy,&&&&&&&&&&,left,sanctity.vice,,,,,,,,0,67,67,6,,,,,,,,,,,,,,,,,,,,,LDT,right,0.8171536168665625,0,,,right,0,0.8171536168665625,,,,,,,,,,,,,,,,,,,,,,1076,2019_Mar_15_1435,mf_amp_cond2,3.0.4,59.97749385009644,
ban,&&&,left,loyalty.vice,,,,,,,,0,68,68,156,,,,,,,,,,,,,,,,,,,,,LDT,left,0.7337688078550855,1,,,left,1,0.7337688078550855,,,,,,,,,,,,,,,,,,,,,,1076,2019_Mar_15_1435,mf_amp_cond2,3.0.4,59.97749385009644,
war,&&&,left,sanctity.vice,,,,,,,,0,69,69,116,,,,,,,,,,,,,,,,,,,,,LDT,right,0.6504160709300777,0,,,right,0,0.6504160709300777,,,,,,,,,,,,,,,,,,,,,,1076,2019_Mar_15_1435,mf_amp_cond2,3.0.4,59.97749385009644,
aubos,&&&&&,right,nonword,,,,,,,,0,70,70,139,,,,,,,,,,,,,,,,,,,,,LDT,left,0.7004587588453433,0,,,left,0,0.7004587588453433,,,,,,,,,,,,,,,,,,,,,,1076,2019_Mar_15_1435,mf_amp_cond2,3.0.4,59.97749385009644,
mih,&&&,right,nonword,,,,,,,,0,71,71,132,,,,,,,,,,,,,,,,,,,,,LDT,right,0.9671626932686195,1,,,right,1,0.9671626932686195,,,,,,,,,,,,,,,,,,,,,,1076,2019_Mar_15_1435,mf_amp_cond2,3.0.4,59.97749385009644,
front,&&&&&,left,neutral,,,,,,,,0,72,72,34,,,,,,,,,,,,,,,,,,,,,LDT,right,0.5337135156150907,0,,,right,0,0.5337135156150907,,,,,,,,,,,,,,,,,,,,,,1076,2019_Mar_15_1435,mf_amp_cond2,3.0.4,59.97749385009644,
gikely,&&&&&&,right,nonword,,,,,,,,0,73,73,145,,,,,,,,,,,,,,,,,,,,,LDT,left,0.9004739610099932,0,,,left,0,0.9004739610099932,,,,,,,,,,,,,,,,,,,,,,1076,2019_Mar_15_1435,mf_amp_cond2,3.0.4,59.97749385009644,
gandbrake,&&&&&&&&&,right,nonword,,,,,,,,0,74,74,66,,,,,,,,,,,,,,,,,,,,,LDT,left,0.9671607689233497,0,,,left,0,0.9671607689233497,,,,,,,,,,,,,,,,,,,,,,1076,2019_Mar_15_1435,mf_amp_cond2,3.0.4,59.97749385009644,
squets,&&&&&&,right,nonword,,,,,,,,0,75,75,50,,,,,,,,,,,,,,,,,,,,,LDT,left,0.7504283224552637,0,,,left,0,0.7504283224552637,,,,,,,,,,,,,,,,,,,,,,1076,2019_Mar_15_1435,mf_amp_cond2,3.0.4,59.97749385009644,
fangsters,&&&&&&&&&,right,nonword,,,,,,,,0,76,76,179,,,,,,,,,,,,,,,,,,,,,LDT,left,0.6837440803064965,0,,,left,0,0.6837440803064965,,,,,,,,,,,,,,,,,,,,,,1076,2019_Mar_15_1435,mf_amp_cond2,3.0.4,59.97749385009644,
anyhow,&&&&&&,left,neutral,,,,,,,,0,77,77,13,,,,,,,,,,,,,,,,,,,,,LDT,right,1.1838893667591037,0,,,right,0,1.1838893667591037,,,,,,,,,,,,,,,,,,,,,,1076,2019_Mar_15_1435,mf_amp_cond2,3.0.4,59.97749385009644,
give,&&&&,left,neutral,,,,,,,,0,78,78,87,,,,,,,,,,,,,,,,,,,,,LDT,right,0.633750462642638,0,,,right,0,0.633750462642638,,,,,,,,,,,,,,,,,,,,,,1076,2019_Mar_15_1435,mf_amp_cond2,3.0.4,59.97749385009644,
disregord,&&&&&&&&&,right,nonword,,,,,,,,0,79,79,148,,,,,,,,,,,,,,,,,,,,,LDT,left,0.6337280121952062,0,,,left,0,0.6337280121952062,,,,,,,,,,,,,,,,,,,,,,1076,2019_Mar_15_1435,mf_amp_cond2,3.0.4,59.97749385009644,
sharing,&&&&&&&,left,loyalty.virtue,,,,,,,,0,80,80,114,,,,,,,,,,,,,,,,,,,,,LDT,right,0.5337125534570077,0,,,right,0,0.5337125534570077,,,,,,,,,,,,,,,,,,,,,,1076,2019_Mar_15_1435,mf_amp_cond2,3.0.4,59.97749385009644,
menizen,&&&&&&&,None,nonword,,,,,,,,0,81,81,110,,,,,,,,,,,,,,,,,,,,,LDT,left,1.0338501426158473,0,,,left,0,1.0338501426158473,,,,,,,,,,,,,,,,,,,,,,1076,2019_Mar_15_1435,mf_amp_cond2,3.0.4,59.97749385009644,
powerful,&&&&&&&&,left,authority.virtue,,,,,,,,0,82,82,171,,,,,,,,,,,,,,,,,,,,,LDT,right,0.6171473948779749,0,,,right,0,0.6171473948779749,,,,,,,,,,,,,,,,,,,,,,1076,2019_Mar_15_1435,mf_amp_cond2,3.0.4,59.97749385009644,
safety,&&&&&&,left,care.virtue,,,,,,,,0,83,83,65,,,,,,,,,,,,,,,,,,,,,LDT,left,0.5337164021038916,1,,,left,1,0.5337164021038916,,,,,,,,,,,,,,,,,,,,,,1076,2019_Mar_15_1435,mf_amp_cond2,3.0.4,59.97749385009644,
yane,&&&&,right,nonword,,,,,,,,0,84,84,147,,,,,,,,,,,,,,,,,,,,,LDT,left,0.7837774993968196,0,,,left,0,0.7837774993968196,,,,,,,,,,,,,,,,,,,,,,1076,2019_Mar_15_1435,mf_amp_cond2,3.0.4,59.97749385009644,
everything,&&&&&&&&&&,left,neutral,,,,,,,,0,85,85,54,,,,,,,,,,,,,,,,,,,,,LDT,right,0.5003640179638751,0,,,right,0,0.5003640179638751,,,,,,,,,,,,,,,,,,,,,,1076,2019_Mar_15_1435,mf_amp_cond2,3.0.4,59.97749385009644,
pafer,&&&&&,right,nonword,,,,,,,,0,86,86,101,,,,,,,,,,,,,,,,,,,,,LDT,left,0.5837594107433688,0,,,left,0,0.5837594107433688,,,,,,,,,,,,,,,,,,,,,,1076,2019_Mar_15_1435,mf_amp_cond2,3.0.4,59.97749385009644,
greaks,&&&&&&,right,nonword,,,,,,,,0,87,87,178,,,,,,,,,,,,,,,,,,,,,LDT,left,0.9504961228085449,0,,,left,0,0.9504961228085449,,,,,,,,,,,,,,,,,,,,,,1076,2019_Mar_15_1435,mf_amp_cond2,3.0.4,59.97749385009644,
erks,&&&&,right,nonword,,,,,,,,0,88,88,177,,,,,,,,,,,,,,,,,,,,,LDT,left,0.6004214911081363,0,,,left,0,0.6004214911081363,,,,,,,,,,,,,,,,,,,,,,1076,2019_Mar_15_1435,mf_amp_cond2,3.0.4,59.97749385009644,
sgrawl,&&&&&&,right,nonword,,,,,,,,0,89,89,10,,,,,,,,,,,,,,,,,,,,,LDT,left,0.6837338172481395,0,,,left,0,0.6837338172481395,,,,,,,,,,,,,,,,,,,,,,1076,2019_Mar_15_1435,mf_amp_cond2,3.0.4,59.97749385009644,
gaultless,&&&&&&&&&,right,nonword,,,,,,,,0,90,90,90,,,,,,,,,,,,,,,,,,,,,LDT,left,2.9009749266988365,0,,,left,0,2.9009749266988365,,,,,,,,,,,,,,,,,,,,,,1076,2019_Mar_15_1435,mf_amp_cond2,3.0.4,59.97749385009644,
each,&&&&,left,neutral,,,,,,,,0,91,91,53,,,,,,,,,,,,,,,,,,,,,LDT,right,0.5337103084166301,0,,,right,0,0.5337103084166301,,,,,,,,,,,,,,,,,,,,,,1076,2019_Mar_15_1435,mf_amp_cond2,3.0.4,59.97749385009644,
feleological,&&&&&&&&&&&&,right,nonword,,,,,,,,0,92,92,166,,,,,,,,,,,,,,,,,,,,,LDT,left,0.6336991473363014,0,,,left,0,0.6336991473363014,,,,,,,,,,,,,,,,,,,,,,1076,2019_Mar_15_1435,mf_amp_cond2,3.0.4,59.97749385009644,
promote,&&&&&&&,left,sanctity.virtue,,,,,,,,0,93,93,82,,,,,,,,,,,,,,,,,,,,,LDT,right,0.5670806529087713,0,,,right,0,0.5670806529087713,,,,,,,,,,,,,,,,,,,,,,1076,2019_Mar_15_1435,mf_amp_cond2,3.0.4,59.97749385009644,
papert,&&&&&&,right,nonword,,,,,,,,0,94,94,71,,,,,,,,,,,,,,,,,,,,,LDT,left,0.6337485383119201,0,,,left,0,0.6337485383119201,,,,,,,,,,,,,,,,,,,,,,1076,2019_Mar_15_1435,mf_amp_cond2,3.0.4,59.97749385009644,
leact,&&&&&,right,nonword,,,,,,,,0,95,95,189,,,,,,,,,,,,,,,,,,,,,LDT,left,0.7836376651830506,0,,,left,0,0.7836376651830506,,,,,,,,,,,,,,,,,,,,,,1076,2019_Mar_15_1435,mf_amp_cond2,3.0.4,59.97749385009644,
somehow,&&&&&&&,left,neutral,,,,,,,,0,96,96,40,,,,,,,,,,,,,,,,,,,,,LDT,right,0.4837176529254066,0,,,right,0,0.4837176529254066,,,,,,,,,,,,,,,,,,,,,,1076,2019_Mar_15_1435,mf_amp_cond2,3.0.4,59.97749385009644,
antral,&&&&&&,right,nonword,,,,,,,,0,97,97,69,,,,,,,,,,,,,,,,,,,,,LDT,left,0.5837052089482313,0,,,left,0,0.5837052089482313,,,,,,,,,,,,,,,,,,,,,,1076,2019_Mar_15_1435,mf_amp_cond2,3.0.4,59.97749385009644,
trust,&&&&&,left,authority.virtue,,,,,,,,0,98,98,165,,,,,,,,,,,,,,,,,,,,,LDT,right,0.4170071116532199,0,,,right,0,0.4170071116532199,,,,,,,,,,,,,,,,,,,,,,1076,2019_Mar_15_1435,mf_amp_cond2,3.0.4,59.97749385009644,
vurtain,&&&&&&&,right,nonword,,,,,,,,0,99,99,86,,,,,,,,,,,,,,,,,,,,,LDT,left,0.6170636867900612,0,,,left,0,0.6170636867900612,,,,,,,,,,,,,,,,,,,,,,1076,2019_Mar_15_1435,mf_amp_cond2,3.0.4,59.97749385009644,
taxpayung,&&&&&&&&&,right,nonword,,,,,,,,0,100,100,73,,,,,,,,,,,,,,,,,,,,,LDT,left,0.5503932356223231,0,,,left,0,0.5503932356223231,,,,,,,,,,,,,,,,,,,,,,1076,2019_Mar_15_1435,mf_amp_cond2,3.0.4,59.97749385009644,
perified,&&&&&&&&,right,nonword,,,,,,,,0,101,101,92,,,,,,,,,,,,,,,,,,,,,LDT,left,0.5837244521826506,0,,,left,0,0.5837244521826506,,,,,,,,,,,,,,,,,,,,,,1076,2019_Mar_15_1435,mf_amp_cond2,3.0.4,59.97749385009644,
wonderfujnoss,&&&&&&&&&&&&&,right,nonword,,,,,,,,0,102,102,163,,,,,,,,,,,,,,,,,,,,,LDT,left,0.45035885435936507,0,,,left,0,0.45035885435936507,,,,,,,,,,,,,,,,,,,,,,1076,2019_Mar_15_1435,mf_amp_cond2,3.0.4,59.97749385009644,
slavery,&&&&&&&,left,loyalty.vice,,,,,,,,0,103,103,36,,,,,,,,,,,,,,,,,,,,,LDT,right,0.5003717152576428,0,,,right,0,0.5003717152576428,,,,,,,,,,,,,,,,,,,,,,1076,2019_Mar_15_1435,mf_amp_cond2,3.0.4,59.97749385009644,
with,&&&&,left,neutral,,,,,,,,0,104,104,102,,,,,,,,,,,,,,,,,,,,,LDT,right,0.8504822676623007,0,,,right,0,0.8504822676623007,,,,,,,,,,,,,,,,,,,,,,1076,2019_Mar_15_1435,mf_amp_cond2,3.0.4,59.97749385009644,
rebels,&&&&&&,left,authority.vice,,,,,,,,0,105,105,169,,,,,,,,,,,,,,,,,,,,,LDT,right,0.5670941231801407,0,,,right,0,0.5670941231801407,,,,,,,,,,,,,,,,,,,,,,1076,2019_Mar_15_1435,mf_amp_cond2,3.0.4,59.97749385009644,
sfumatoy,&&&&&&&&,None,nonword,,,,,,,,0,106,106,198,,,,,,,,,,,,,,,,,,,,,LDT,left,0.7170932572335005,0,,,left,0,0.7170932572335005,,,,,,,,,,,,,,,,,,,,,,1076,2019_Mar_15_1435,mf_amp_cond2,3.0.4,59.97749385009644,
noone,&&&&&,left,neutral,,,,,,,,0,107,107,134,,,,,,,,,,,,,,,,,,,,,LDT,right,0.5003774882352445,0,,,right,0,0.5003774882352445,,,,,,,,,,,,,,,,,,,,,,1076,2019_Mar_15_1435,mf_amp_cond2,3.0.4,59.97749385009644,
prison,&&&&&&,left,fairness.vice,,,,,,,,0,108,108,174,,,,,,,,,,,,,,,,,,,,,LDT,right,1.2839529336051783,0,,,right,0,1.2839529336051783,,,,,,,,,,,,,,,,,,,,,,1076,2019_Mar_15_1435,mf_amp_cond2,3.0.4,59.97749385009644,
abuse,&&&&&,left,sanctity.vice,,,,,,,,0,109,109,44,,,,,,,,,,,,,,,,,,,,,LDT,right,0.48370642769441474,0,,,right,0,0.48370642769441474,,,,,,,,,,,,,,,,,,,,,,1076,2019_Mar_15_1435,mf_amp_cond2,3.0.4,59.97749385009644,
emassion,&&&&&&&&,right,nonword,,,,,,,,0,110,110,175,,,,,,,,,,,,,,,,,,,,,LDT,right,0.6004744100209791,1,,,right,1,0.6004744100209791,,,,,,,,,,,,,,,,,,,,,,1076,2019_Mar_15_1435,mf_amp_cond2,3.0.4,59.97749385009644,
juck,&&&&,right,nonword,,,,,,,,0,111,111,125,,,,,,,,,,,,,,,,,,,,,LDT,left,0.5837257350649452,0,,,left,0,0.5837257350649452,,,,,,,,,,,,,,,,,,,,,,1076,2019_Mar_15_1435,mf_amp_cond2,3.0.4,59.97749385009644,
tenuflect,&&&&&&&&&,right,nonword,,,,,,,,0,112,112,46,,,,,,,,,,,,,,,,,,,,,LDT,left,0.567061409674352,0,,,left,0,0.567061409674352,,,,,,,,,,,,,,,,,,,,,,1076,2019_Mar_15_1435,mf_amp_cond2,3.0.4,59.97749385009644,
fonderland,&&&&&&&&&&,right,nonword,,,,,,,,0,113,113,181,,,,,,,,,,,,,,,,,,,,,LDT,left,0.5170382857031655,0,,,left,0,0.5170382857031655,,,,,,,,,,,,,,,,,,,,,,1076,2019_Mar_15_1435,mf_amp_cond2,3.0.4,59.97749385009644,
divility,&&&&&&&&,right,nonword,,,,,,,,0,114,114,120,,,,,,,,,,,,,,,,,,,,,LDT,left,0.7671356244245544,0,,,left,0,0.7671356244245544,,,,,,,,,,,,,,,,,,,,,,1076,2019_Mar_15_1435,mf_amp_cond2,3.0.4,59.97749385009644,
shoirmaster,&&&&&&&&&&&,None,nonword,,,,,,,,0,115,115,55,,,,,,,,,,,,,,,,,,,,,LDT,left,0.4838308673060965,0,,,left,0,0.4838308673060965,,,,,,,,,,,,,,,,,,,,,,1076,2019_Mar_15_1435,mf_amp_cond2,3.0.4,59.97749385009644,
further,&&&&&&&,left,neutral,,,,,,,,0,116,116,48,,,,,,,,,,,,,,,,,,,,,LDT,right,0.6004137938143685,0,,,right,0,0.6004137938143685,,,,,,,,,,,,,,,,,,,,,,1076,2019_Mar_15_1435,mf_amp_cond2,3.0.4,59.97749385009644,
less,&&&&,left,neutral,,,,,,,,0,117,117,160,,,,,,,,,,,,,,,,,,,,,LDT,right,0.6003971163445385,0,,,right,0,0.6003971163445385,,,,,,,,,,,,,,,,,,,,,,1076,2019_Mar_15_1435,mf_amp_cond2,3.0.4,59.97749385009644,
laming,&&&&&&,right,nonword,,,,,,,,0,118,118,88,,,,,,,,,,,,,,,,,,,,,LDT,left,0.6504106186766876,0,,,left,0,0.6504106186766876,,,,,,,,,,,,,,,,,,,,,,1076,2019_Mar_15_1435,mf_amp_cond2,3.0.4,59.97749385009644,
good,&&&&,left,care.virtue,,,,,,,,0,119,119,12,,,,,,,,,,,,,,,,,,,,,LDT,right,0.5003778089594562,0,,,right,0,0.5003778089594562,,,,,,,,,,,,,,,,,,,,,,1076,2019_Mar_15_1435,mf_amp_cond2,3.0.4,59.97749385009644,
unscothed,&&&&&&&&&,right,nonword,,,,,,,,0,120,120,180,,,,,,,,,,,,,,,,,,,,,LDT,left,0.6670839242724469,0,,,left,0,0.6670839242724469,,,,,,,,,,,,,,,,,,,,,,1076,2019_Mar_15_1435,mf_amp_cond2,3.0.4,59.97749385009644,
hasks,&&&&&,right,nonword,,,,,,,,0,121,121,39,,,,,,,,,,,,,,,,,,,,,LDT,left,1.2505671944963979,0,,,left,0,1.2505671944963979,,,,,,,,,,,,,,,,,,,,,,1076,2019_Mar_15_1435,mf_amp_cond2,3.0.4,59.97749385009644,
brotesque,&&&&&&&&&,right,nonword,,,,,,,,0,122,122,133,,,,,,,,,,,,,,,,,,,,,LDT,left,0.500365942280041,0,,,left,0,0.500365942280041,,,,,,,,,,,,,,,,,,,,,,1076,2019_Mar_15_1435,mf_amp_cond2,3.0.4,59.97749385009644,
even,&&&&,left,neutral,,,,,,,,0,123,123,195,,,,,,,,,,,,,,,,,,,,,LDT,right,0.5003989765245933,0,,,right,0,0.5003989765245933,,,,,,,,,,,,,,,,,,,,,,1076,2019_Mar_15_1435,mf_amp_cond2,3.0.4,59.97749385009644,
fifteen,&&&&&&&,left,neutral,,,,,,,,0,124,124,15,,,,,,,,,,,,,,,,,,,,,LDT,right,0.8337938882177696,0,,,right,0,0.8337938882177696,,,,,,,,,,,,,,,,,,,,,,1076,2019_Mar_15_1435,mf_amp_cond2,3.0.4,59.97749385009644,
whereafter,&&&&&&&&&&,left,neutral,,,,,,,,0,125,125,113,,,,,,,,,,,,,,,,,,,,,LDT,right,0.8171276384819066,0,,,right,0,0.8171276384819066,,,,,,,,,,,,,,,,,,,,,,1076,2019_Mar_15_1435,mf_amp_cond2,3.0.4,59.97749385009644,
idexpressible,&&&&&&&&&&&&&,right,nonword,,,,,,,,0,126,126,75,,,,,,,,,,,,,,,,,,,,,LDT,left,0.5670511466159951,0,,,left,0,0.5670511466159951,,,,,,,,,,,,,,,,,,,,,,1076,2019_Mar_15_1435,mf_amp_cond2,3.0.4,59.97749385009644,
lursuer,&&&&&&&,right,nonword,,,,,,,,0,127,127,111,,,,,,,,,,,,,,,,,,,,,LDT,left,0.6837421559757786,0,,,left,0,0.6837421559757786,,,,,,,,,,,,,,,,,,,,,,1076,2019_Mar_15_1435,mf_amp_cond2,3.0.4,59.97749385009644,
faspberry,&&&&&&&&&,None,nonword,,,,,,,,0,128,128,140,,,,,,,,,,,,,,,,,,,,,LDT,left,0.7004613246244844,0,,,left,0,0.7004613246244844,,,,,,,,,,,,,,,,,,,,,,1076,2019_Mar_15_1435,mf_amp_cond2,3.0.4,59.97749385009644,
critics,&&&&&&&,left,loyalty.vice,,,,,,,,0,129,129,188,,,,,,,,,,,,,,,,,,,,,LDT,right,0.5670614096598001,0,,,right,0,0.5670614096598001,,,,,,,,,,,,,,,,,,,,,,1076,2019_Mar_15_1435,mf_amp_cond2,3.0.4,59.97749385009644,
commitment,&&&&&&&&&&,left,sanctity.virtue,,,,,,,,0,130,130,11,,,,,,,,,,,,,,,,,,,,,LDT,left,1.7340164042252582,1,,,left,1,1.7340164042252582,,,,,,,,,,,,,,,,,,,,,,1076,2019_Mar_15_1435,mf_amp_cond2,3.0.4,59.97749385009644,
penalty,&&&&&&&,left,authority.vice,,,,,,,,0,131,131,167,,,,,,,,,,,,,,,,,,,,,LDT,left,1.0005041728873039,1,,,left,1,1.0005041728873039,,,,,,,,,,,,,,,,,,,,,,1076,2019_Mar_15_1435,mf_amp_cond2,3.0.4,59.97749385009644,
seachwear,&&&&&&&&&,right,nonword,,,,,,,,0,132,132,78,,,,,,,,,,,,,,,,,,,,,LDT,left,0.5003787711175391,0,,,left,0,0.5003787711175391,,,,,,,,,,,,,,,,,,,,,,1076,2019_Mar_15_1435,mf_amp_cond2,3.0.4,59.97749385009644,
charges,&&&&&&&,left,fairness.vice,,,,,,,,0,133,133,41,,,,,,,,,,,,,,,,,,,,,LDT,left,0.6337424446246587,1,,,left,1,0.6337424446246587,,,,,,,,,,,,,,,,,,,,,,1076,2019_Mar_15_1435,mf_amp_cond2,3.0.4,59.97749385009644,
also,&&&&,left,neutral,,,,,,,,0,134,134,85,,,,,,,,,,,,,,,,,,,,,LDT,right,0.9671620518201962,0,,,right,0,0.9671620518201962,,,,,,,,,,,,,,,,,,,,,,1076,2019_Mar_15_1435,mf_amp_cond2,3.0.4,59.97749385009644,
lies,&&&&,left,fairness.vice,,,,,,,,0,135,135,45,,,,,,,,,,,,,,,,,,,,,LDT,right,0.6837553055229364,0,,,right,0,0.6837553055229364,,,,,,,,,,,,,,,,,,,,,,1076,2019_Mar_15_1435,mf_amp_cond2,3.0.4,59.97749385009644,
anything,&&&&&&&&,left,neutral,,,,,,,,0,136,136,91,,,,,,,,,,,,,,,,,,,,,LDT,right,0.6170736291242065,0,,,right,0,0.6170736291242065,,,,,,,,,,,,,,,,,,,,,,1076,2019_Mar_15_1435,mf_amp_cond2,3.0.4,59.97749385009644,
fifty,&&&&&,left,neutral,,,,,,,,0,137,137,143,,,,,,,,,,,,,,,,,,,,,LDT,right,0.6170652903820155,0,,,right,0,0.6170652903820155,,,,,,,,,,,,,,,,,,,,,,1076,2019_Mar_15_1435,mf_amp_cond2,3.0.4,59.97749385009644,
credit,&&&&&&,left,fairness.virtue,,,,,,,,0,138,138,56,,,,,,,,,,,,,,,,,,,,,LDT,right,0.5837642215628875,0,,,right,0,0.5837642215628875,,,,,,,,,,,,,,,,,,,,,,1076,2019_Mar_15_1435,mf_amp_cond2,3.0.4,59.97749385009644,
glacenta,&&&&&&&&,right,nonword,,,,,,,,0,139,139,22,,,,,,,,,,,,,,,,,,,,,LDT,right,0.4170436738204444,1,,,right,1,0.4170436738204444,,,,,,,,,,,,,,,,,,,,,,1076,2019_Mar_15_1435,mf_amp_cond2,3.0.4,59.97749385009644,
there,&&&&&,left,neutral,,,,,,,,0,140,140,37,,,,,,,,,,,,,,,,,,,,,LDT,right,0.6837613992247498,0,,,right,0,0.6837613992247498,,,,,,,,,,,,,,,,,,,,,,1076,2019_Mar_15_1435,mf_amp_cond2,3.0.4,59.97749385009644,
forty,&&&&&,left,neutral,,,,,,,,0,141,141,183,,,,,,,,,,,,,,,,,,,,,LDT,left,0.7170993509353139,1,,,left,1,0.7170993509353139,,,,,,,,,,,,,,,,,,,,,,1076,2019_Mar_15_1435,mf_amp_cond2,3.0.4,59.97749385009644,
Oregoniuns,&&&&&&&&&&,right,nonword,,,,,,,,0,142,142,96,,,,,,,,,,,,,,,,,,,,,LDT,left,0.5670598060678458,0,,,left,0,0.5670598060678458,,,,,,,,,,,,,,,,,,,,,,1076,2019_Mar_15_1435,mf_amp_cond2,3.0.4,59.97749385009644,
killed,&&&&&&,left,care.vice,,,,,,,,0,143,143,35,,,,,,,,,,,,,,,,,,,,,LDT,right,0.5504423058882821,0,,,right,0,0.5504423058882821,,,,,,,,,,,,,,,,,,,,,,1076,2019_Mar_15_1435,mf_amp_cond2,3.0.4,59.97749385009644,
ability,&&&&&&&,left,authority.virtue,,,,,,,,0,144,144,43,,,,,,,,,,,,,,,,,,,,,LDT,right,0.5337186471442692,0,,,right,0,0.5337186471442692,,,,,,,,,,,,,,,,,,,,,,1076,2019_Mar_15_1435,mf_amp_cond2,3.0.4,59.97749385009644,
hope,&&&&,left,loyalty.virtue,,,,,,,,0,145,145,94,,,,,,,,,,,,,,,,,,,,,LDT,right,0.550239610412973,0,,,right,0,0.550239610412973,,,,,,,,,,,,,,,,,,,,,,1076,2019_Mar_15_1435,mf_amp_cond2,3.0.4,59.97749385009644,
chonograph,&&&&&&&&&&,right,nonword,,,,,,,,0,146,146,27,,,,,,,,,,,,,,,,,,,,,LDT,left,0.6003929469588911,0,,,left,0,0.6003929469588911,,,,,,,,,,,,,,,,,,,,,,1076,2019_Mar_15_1435,mf_amp_cond2,3.0.4,59.97749385009644,
gedious,&&&&&&&,right,nonword,,,,,,,,0,147,147,159,,,,,,,,,,,,,,,,,,,,,LDT,left,0.7004295732767787,0,,,left,0,0.7004295732767787,,,,,,,,,,,,,,,,,,,,,,1076,2019_Mar_15_1435,mf_amp_cond2,3.0.4,59.97749385009644,
voter,&&&&&,left,fairness.vice,,,,,,,,0,148,148,24,,,,,,,,,,,,,,,,,,,,,LDT,right,0.5003842233563773,0,,,right,0,0.5003842233563773,,,,,,,,,,,,,,,,,,,,,,1076,2019_Mar_15_1435,mf_amp_cond2,3.0.4,59.97749385009644,
were,&&&&,left,neutral,,,,,,,,0,149,149,138,,,,,,,,,,,,,,,,,,,,,LDT,right,0.4170199404761661,0,,,right,0,0.4170199404761661,,,,,,,,,,,,,,,,,,,,,,1076,2019_Mar_15_1435,mf_amp_cond2,3.0.4,59.97749385009644,
ensure,&&&&&&,left,fairness.virtue,,,,,,,,0,150,150,131,,,,,,,,,,,,,,,,,,,,,LDT,right,0.4837070691282861,0,,,right,0,0.4837070691282861,,,,,,,,,,,,,,,,,,,,,,1076,2019_Mar_15_1435,mf_amp_cond2,3.0.4,59.97749385009644,
nackers,&&&&&&&,right,nonword,,,,,,,,0,151,151,119,,,,,,,,,,,,,,,,,,,,,LDT,left,2.334181639511371,0,,,left,0,2.334181639511371,,,,,,,,,,,,,,,,,,,,,,1076,2019_Mar_15_1435,mf_amp_cond2,3.0.4,59.97749385009644,
torture,&&&&&&&,left,care.vice,,,,,,,,0,152,152,89,,,,,,,,,,,,,,,,,,,,,LDT,right,1.033821598495706,0,,,right,0,1.033821598495706,,,,,,,,,,,,,,,,,,,,,,1076,2019_Mar_15_1435,mf_amp_cond2,3.0.4,59.97749385009644,
although,&&&&&&&&,left,neutral,,,,,,,,0,153,153,84,,,,,,,,,,,,,,,,,,,,,LDT,right,0.6837469667807454,0,,,right,0,0.6837469667807454,,,,,,,,,,,,,,,,,,,,,,1076,2019_Mar_15_1435,mf_amp_cond2,3.0.4,59.97749385009644,
else,&&&&,left,neutral,,,,,,,,0,154,154,63,,,,,,,,,,,,,,,,,,,,,LDT,right,0.4837073898524977,0,,,right,0,0.4837073898524977,,,,,,,,,,,,,,,,,,,,,,1076,2019_Mar_15_1435,mf_amp_cond2,3.0.4,59.97749385009644,
fear,&&&&,left,sanctity.vice,,,,,,,,0,155,155,70,,,,,,,,,,,,,,,,,,,,,LDT,right,0.5503816896671196,0,,,right,0,0.5503816896671196,,,,,,,,,,,,,,,,,,,,,,1076,2019_Mar_15_1435,mf_amp_cond2,3.0.4,59.97749385009644,
suicide,&&&&&&&,left,care.vice,,,,,,,,0,156,156,106,,,,,,,,,,,,,,,,,,,,,LDT,right,0.7504315296682762,0,,,right,0,0.7504315296682762,,,,,,,,,,,,,,,,,,,,,,1076,2019_Mar_15_1435,mf_amp_cond2,3.0.4,59.97749385009644,
tomedians,&&&&&&&&&,right,nonword,,,,,,,,0,157,157,62,,,,,,,,,,,,,,,,,,,,,LDT,left,0.5503890662512276,0,,,left,0,0.5503890662512276,,,,,,,,,,,,,,,,,,,,,,1076,2019_Mar_15_1435,mf_amp_cond2,3.0.4,59.97749385009644,
smapper,&&&&&&&,right,nonword,,,,,,,,0,158,158,162,,,,,,,,,,,,,,,,,,,,,LDT,left,0.5503832932736259,0,,,left,0,0.5503832932736259,,,,,,,,,,,,,,,,,,,,,,1076,2019_Mar_15_1435,mf_amp_cond2,3.0.4,59.97749385009644,
carvels,&&&&&&&,None,nonword,,,,,,,,0,159,159,93,,,,,,,,,,,,,,,,,,,,,LDT,left,0.6171752975787967,0,,,left,0,0.6171752975787967,,,,,,,,,,,,,,,,,,,,,,1076,2019_Mar_15_1435,mf_amp_cond2,3.0.4,59.97749385009644,
presentkess,&&&&&&&&&&&,right,nonword,,,,,,,,0,160,160,136,,,,,,,,,,,,,,,,,,,,,LDT,left,0.5337186471442692,0,,,left,0,0.5337186471442692,,,,,,,,,,,,,,,,,,,,,,1076,2019_Mar_15_1435,mf_amp_cond2,3.0.4,59.97749385009644,
seem,&&&&,left,neutral,,,,,,,,0,161,161,117,,,,,,,,,,,,,,,,,,,,,LDT,right,0.450402472371934,0,,,right,0,0.450402472371934,,,,,,,,,,,,,,,,,,,,,,1076,2019_Mar_15_1435,mf_amp_cond2,3.0.4,59.97749385009644,
Loorish,&&&&&&&,right,nonword,,,,,,,,0,162,162,187,,,,,,,,,,,,,,,,,,,,,LDT,left,0.5837683909194311,0,,,left,0,0.5837683909194311,,,,,,,,,,,,,,,,,,,,,,1076,2019_Mar_15_1435,mf_amp_cond2,3.0.4,59.97749385009644,
interests,&&&&&&&&&,left,fairness.virtue,,,,,,,,0,163,163,30,,,,,,,,,,,,,,,,,,,,,LDT,right,0.5337375696690287,0,,,right,0,0.5337375696690287,,,,,,,,,,,,,,,,,,,,,,1076,2019_Mar_15_1435,mf_amp_cond2,3.0.4,59.97749385009644,
counpy's,&&&&&&&&,right,nonword,,,,,,,,0,164,164,7,,,,,,,,,,,,,,,,,,,,,LDT,left,1.4839559483662015,0,,,left,0,1.4839559483662015,,,,,,,,,,,,,,,,,,,,,,1076,2019_Mar_15_1435,mf_amp_cond2,3.0.4,59.97749385009644,
actively,&&&&&&&&,left,authority.virtue,,,,,,,,0,165,165,72,,,,,,,,,,,,,,,,,,,,,LDT,right,0.5170443794049788,0,,,right,0,0.5170443794049788,,,,,,,,,,,,,,,,,,,,,,1076,2019_Mar_15_1435,mf_amp_cond2,3.0.4,59.97749385009644,
celebrated,&&&&&&&&&&,left,authority.virtue,,,,,,,,0,166,166,107,,,,,,,,,,,,,,,,,,,,,LDT,right,0.6837322136416333,0,,,right,0,0.6837322136416333,,,,,,,,,,,,,,,,,,,,,,1076,2019_Mar_15_1435,mf_amp_cond2,3.0.4,59.97749385009644,
clean,&&&&&,left,sanctity.virtue,,,,,,,,0,167,167,32,,,,,,,,,,,,,,,,,,,,,LDT,right,0.833791643177392,0,,,right,0,0.833791643177392,,,,,,,,,,,,,,,,,,,,,,1076,2019_Mar_15_1435,mf_amp_cond2,3.0.4,59.97749385009644,
sonvoy,&&&&&&,None,nonword,,,,,,,,0,168,168,1,,,,,,,,,,,,,,,,,,,,,LDT,left,0.6337267292983597,0,,,left,0,0.6337267292983597,,,,,,,,,,,,,,,,,,,,,,1076,2019_Mar_15_1435,mf_amp_cond2,3.0.4,59.97749385009644,
death,&&&&&,left,care.vice,,,,,,,,0,169,169,8,,,,,,,,,,,,,,,,,,,,,LDT,right,0.5670543538144557,0,,,right,0,0.5670543538144557,,,,,,,,,,,,,,,,,,,,,,1076,2019_Mar_15_1435,mf_amp_cond2,3.0.4,59.97749385009644,
epigrach,&&&&&&&&,right,nonword,,,,,,,,0,170,170,127,,,,,,,,,,,,,,,,,,,,,LDT,left,0.9671533923683455,0,,,left,0,0.9671533923683455,,,,,,,,,,,,,,,,,,,,,,1076,2019_Mar_15_1435,mf_amp_cond2,3.0.4,59.97749385009644,
tove,&&&&,right,nonword,,,,,,,,0,171,171,79,,,,,,,,,,,,,,,,,,,,,LDT,left,0.7170749761571642,0,,,left,0,0.7170749761571642,,,,,,,,,,,,,,,,,,,,,,1076,2019_Mar_15_1435,mf_amp_cond2,3.0.4,59.97749385009644,
sliptery,&&&&&&&&,right,nonword,,,,,,,,0,172,172,199,,,,,,,,,,,,,,,,,,,,,LDT,right,0.6004237361630658,1,,,right,1,0.6004237361630658,,,,,,,,,,,,,,,,,,,,,,1076,2019_Mar_15_1435,mf_amp_cond2,3.0.4,59.97749385009644,
accused,&&&&&&&,left,fairness.vice,,,,,,,,0,173,173,121,,,,,,,,,,,,,,,,,,,,,LDT,right,0.6671054125472438,0,,,right,0,0.6671054125472438,,,,,,,,,,,,,,,,,,,,,,1076,2019_Mar_15_1435,mf_amp_cond2,3.0.4,59.97749385009644,
improve,&&&&&&&,left,care.virtue,,,,,,,,0,174,174,14,,,,,,,,,,,,,,,,,,,,,LDT,right,0.6837514568760525,0,,,right,0,0.6837514568760525,,,,,,,,,,,,,,,,,,,,,,1076,2019_Mar_15_1435,mf_amp_cond2,3.0.4,59.97749385009644,
wump,&&&&,right,nonword,,,,,,,,0,175,175,95,,,,,,,,,,,,,,,,,,,,,LDT,left,0.5837228485906962,0,,,left,0,0.5837228485906962,,,,,,,,,,,,,,,,,,,,,,1076,2019_Mar_15_1435,mf_amp_cond2,3.0.4,59.97749385009644,
totalestic,&&&&&&&&&&,None,nonword,,,,,,,,0,176,176,52,,,,,,,,,,,,,,,,,,,,,LDT,left,2.0340945317730075,0,,,left,0,2.0340945317730075,,,,,,,,,,,,,,,,,,,,,,1076,2019_Mar_15_1435,mf_amp_cond2,3.0.4,59.97749385009644,
spag,&&&&,None,nonword,,,,,,,,0,177,177,155,,,,,,,,,,,,,,,,,,,,,LDT,left,0.5837061711063143,0,,,left,0,0.5837061711063143,,,,,,,,,,,,,,,,,,,,,,1076,2019_Mar_15_1435,mf_amp_cond2,3.0.4,59.97749385009644,
neutralust,&&&&&&&&&&,right,nonword,,,,,,,,0,178,178,124,,,,,,,,,,,,,,,,,,,,,LDT,left,0.6504462186712772,0,,,left,0,0.6504462186712772,,,,,,,,,,,,,,,,,,,,,,1076,2019_Mar_15_1435,mf_amp_cond2,3.0.4,59.97749385009644,
prosecution,&&&&&&&&&&&,left,authority.vice,,,,,,,,0,179,179,60,,,,,,,,,,,,,,,,,,,,,LDT,right,0.5837385639169952,0,,,right,0,0.5837385639169952,,,,,,,,,,,,,,,,,,,,,,1076,2019_Mar_15_1435,mf_amp_cond2,3.0.4,59.97749385009644,
hatigue,&&&&&&&,right,nonword,,,,,,,,0,180,180,21,,,,,,,,,,,,,,,,,,,,,LDT,left,0.6504189574188786,0,,,left,0,0.6504189574188786,,,,,,,,,,,,,,,,,,,,,,1076,2019_Mar_15_1435,mf_amp_cond2,3.0.4,59.97749385009644,
elsewhere,&&&&&&&&&,left,neutral,,,,,,,,0,181,181,197,,,,,,,,,,,,,,,,,,,,,LDT,right,0.5337115912989248,0,,,right,0,0.5337115912989248,,,,,,,,,,,,,,,,,,,,,,1076,2019_Mar_15_1435,mf_amp_cond2,3.0.4,59.97749385009644,
metibolic,&&&&&&&&&,right,nonword,,,,,,,,0,182,182,51,,,,,,,,,,,,,,,,,,,,,LDT,left,1.050507412175648,0,,,left,0,1.050507412175648,,,,,,,,,,,,,,,,,,,,,,1076,2019_Mar_15_1435,mf_amp_cond2,3.0.4,59.97749385009644,
clamorek,&&&&&&&&,right,nonword,,,,,,,,0,183,183,112,,,,,,,,,,,,,,,,,,,,,LDT,left,0.6004048136237543,0,,,left,0,0.6004048136237543,,,,,,,,,,,,,,,,,,,,,,1076,2019_Mar_15_1435,mf_amp_cond2,3.0.4,59.97749385009644,
dumid,&&&&&,right,nonword,,,,,,,,0,184,184,76,,,,,,,,,,,,,,,,,,,,,LDT,left,0.600404172189883,0,,,left,0,0.600404172189883,,,,,,,,,,,,,,,,,,,,,,1076,2019_Mar_15_1435,mf_amp_cond2,3.0.4,59.97749385009644,
ebbitter,&&&&&&&&,right,nonword,,,,,,,,0,185,185,194,,,,,,,,,,,,,,,,,,,,,LDT,left,0.483708031300921,0,,,left,0,0.483708031300921,,,,,,,,,,,,,,,,,,,,,,1076,2019_Mar_15_1435,mf_amp_cond2,3.0.4,59.97749385009644,
groups,&&&&&&,left,loyalty.vice,,,,,,,,0,186,186,168,,,,,,,,,,,,,,,,,,,,,LDT,right,0.6170710633596173,0,,,right,0,0.6170710633596173,,,,,,,,,,,,,,,,,,,,,,1076,2019_Mar_15_1435,mf_amp_cond2,3.0.4,59.97749385009644,
ejanulated,&&&&&&&&&&,right,nonword,,,,,,,,0,187,187,80,,,,,,,,,,,,,,,,,,,,,LDT,left,0.6170691390434513,0,,,left,0,0.6170691390434513,,,,,,,,,,,,,,,,,,,,,,1076,2019_Mar_15_1435,mf_amp_cond2,3.0.4,59.97749385009644,
towards,&&&&&&&,left,neutral,,,,,,,,0,188,188,135,,,,,,,,,,,,,,,,,,,,,LDT,right,0.8337871530820848,0,,,right,0,0.8337871530820848,,,,,,,,,,,,,,,,,,,,,,1076,2019_Mar_15_1435,mf_amp_cond2,3.0.4,59.97749385009644,
framatic,&&&&&&&&,right,nonword,,,,,,,,0,189,189,105,,,,,,,,,,,,,,,,,,,,,LDT,left,0.6170688183192397,0,,,left,0,0.6170688183192397,,,,,,,,,,,,,,,,,,,,,,1076,2019_Mar_15_1435,mf_amp_cond2,3.0.4,59.97749385009644,
framo,&&&&&,right,nonword,,,,,,,,0,190,190,157,,,,,,,,,,,,,,,,,,,,,LDT,left,0.6170633660658496,0,,,left,0,0.6170633660658496,,,,,,,,,,,,,,,,,,,,,,1076,2019_Mar_15_1435,mf_amp_cond2,3.0.4,59.97749385009644,
safe,&&&&,left,care.virtue,,,,,,,,0,191,191,29,,,,,,,,,,,,,,,,,,,,,LDT,right,0.6337520662345923,0,,,right,0,0.6337520662345923,,,,,,,,,,,,,,,,,,,,,,1076,2019_Mar_15_1435,mf_amp_cond2,3.0.4,59.97749385009644,
fegard,&&&&&&,right,nonword,,,,,,,,0,192,192,4,,,,,,,,,,,,,,,,,,,,,LDT,left,0.6170652903965674,0,,,left,0,0.6170652903965674,,,,,,,,,,,,,,,,,,,,,,1076,2019_Mar_15_1435,mf_amp_cond2,3.0.4,59.97749385009644,
hence,&&&&&,left,neutral,,,,,,,,0,193,193,59,,,,,,,,,,,,,,,,,,,,,LDT,left,2.1174831894313684,1,,,left,1,2.1174831894313684,,,,,,,,,,,,,,,,,,,,,,1076,2019_Mar_15_1435,mf_amp_cond2,3.0.4,59.97749385009644,
hereby,&&&&&&,left,neutral,,,,,,,,0,194,194,31,,,,,,,,,,,,,,,,,,,,,LDT,right,1.5006199530616868,0,,,right,0,1.5006199530616868,,,,,,,,,,,,,,,,,,,,,,1076,2019_Mar_15_1435,mf_amp_cond2,3.0.4,59.97749385009644,
photocalkodes,&&&&&&&&&&&&&,right,nonword,,,,,,,,0,195,195,173,,,,,,,,,,,,,,,,,,,,,LDT,left,0.516906148797716,0,,,left,0,0.516906148797716,,,,,,,,,,,,,,,,,,,,,,1076,2019_Mar_15_1435,mf_amp_cond2,3.0.4,59.97749385009644,
civilians,&&&&&&&&&,left,care.vice,,,,,,,,0,196,196,123,,,,,,,,,,,,,,,,,,,,,LDT,right,0.600394871289609,0,,,right,0,0.600394871289609,,,,,,,,,,,,,,,,,,,,,,1076,2019_Mar_15_1435,mf_amp_cond2,3.0.4,59.97749385009644,
sowntrodden,&&&&&&&&&&&,right,nonword,,,,,,,,0,197,197,58,,,,,,,,,,,,,,,,,,,,,LDT,left,0.6004211703984765,0,,,left,0,0.6004211703984765,,,,,,,,,,,,,,,,,,,,,,1076,2019_Mar_15_1435,mf_amp_cond2,3.0.4,59.97749385009644,
mostly,&&&&&&,left,neutral,,,,,,,,0,198,198,108,,,,,,,,,,,,,,,,,,,,,LDT,right,0.8838064284063876,0,,,right,0,0.8838064284063876,,,,,,,,,,,,,,,,,,,,,,1076,2019_Mar_15_1435,mf_amp_cond2,3.0.4,59.97749385009644,
thru,&&&&,left,neutral,,,,,,,,0,199,199,3,,,,,,,,,,,,,,,,,,,,,LDT,right,0.6170726669661235,0,,,right,0,0.6170726669661235,,,,,,,,,,,,,,,,,,,,,,1076,2019_Mar_15_1435,mf_amp_cond2,3.0.4,59.97749385009644,
,,,,,,,,,,,,,,,,,,,,,,,,,,,,,,,,,,,,,,,,,,,,4,9.288,,,,,,,,,,,,,,,,,,,,1076,2019_Mar_15_1435,mf_amp_cond2,3.0.4,59.97749385009644,
,,,,,,,,,,,,,,,,,,,,,,,,,,,,,,,,,,,,,,,,,,,,,,right,0.9171738864097279,,,,,,,,,,,,,,,,,,1076,2019_Mar_15_1435,mf_amp_cond2,3.0.4,59.97749385009644,
scarf,&&&&&&&&,,,bisebell,,,,,,,,,,,0,0,0,3,,,,,,,,,,,,,,,,,AMP_prac,left,1.1005090478574857,,,,,,,,,,,left,1.1005090478574857,,,,,,,,,,,,,,,,1076,2019_Mar_15_1435,mf_amp_cond2,3.0.4,59.97749385009644,
banana,&&&&&&,,,kacket,,,,,,,,,,,0,1,1,1,,,,,,,,,,,,,,,,,AMP_prac,left,0.35033794336777646,,,,,,,,,,,left,0.35033794336777646,,,,,,,,,,,,,,,,1076,2019_Mar_15_1435,mf_amp_cond2,3.0.4,59.97749385009644,
car,&&&&&&&&,,,cemtuper,,,,,,,,,,,0,2,2,0,,,,,,,,,,,,,,,,,AMP_prac,left,0.3169903700327268,,,,,,,,,,,left,0.3169903700327268,,,,,,,,,,,,,,,,1076,2019_Mar_15_1435,mf_amp_cond2,3.0.4,59.97749385009644,
keyboard,&&&&,,,senk,,,,,,,,,,,0,3,3,2,,,,,,,,,,,,,,,,,AMP_prac,left,0.5670472979691112,,,,,,,,,,,left,0.5670472979691112,,,,,,,,,,,,,,,,1076,2019_Mar_15_1435,mf_amp_cond2,3.0.4,59.97749385009644,
,,,,,,,,,,,,,,,,,,,,,,,,,,,,,,,,,,,,,,,,,,,,,,,,,,right,1.0671983573847683,,,,,,,,,,,,,,1076,2019_Mar_15_1435,mf_amp_cond2,3.0.4,59.97749385009644,
men,&&&&&&&&&&&,right,loyalty.vice,lempestuous,,,,,,,,,,,,,,,0,0,0,33,,,,,,,,,,,,,AMP,left,0.6170591966947541,0,,,,,,,,,,,,,,left,0,0.6170591966947541,,,,,,,,,,,1076,2019_Mar_15_1435,mf_amp_cond2,3.0.4,59.97749385009644,
progress,&&&&&&&&,left,authority.virtue,crinking,,,,,,,,,,,,,,,0,1,1,246,,,,,,,,,,,,,AMP,left,0.4170109603146557,1,,,,,,,,,,,,,,left,1,0.4170109603146557,,,,,,,,,,,1076,2019_Mar_15_1435,mf_amp_cond2,3.0.4,59.97749385009644,
benefit,&&&&&&&&,left,fairness.virtue,pullness,,,,,,,,,,,,,,,0,2,2,135,,,,,,,,,,,,,AMP,left,1.0005118701810716,1,,,,,,,,,,,,,,left,1,1.0005118701810716,,,,,,,,,,,1076,2019_Mar_15_1435,mf_amp_cond2,3.0.4,59.97749385009644,
protesters,&&&&&&,right,authority.vice,letish,,,,,,,,,,,,,,,0,3,3,122,,,,,,,,,,,,,AMP,left,0.5003515098505886,0,,,,,,,,,,,,,,left,0,0.5003515098505886,,,,,,,,,,,1076,2019_Mar_15_1435,mf_amp_cond2,3.0.4,59.97749385009644,
cromiscuity,&&&&&&&&,None,nonword,proached,,,,,,,,,,,,,,,0,4,4,90,,,,,,,,,,,,,AMP,left,1.2338881159521407,0,,,,,,,,,,,,,,left,0,1.2338881159521407,,,,,,,,,,,1076,2019_Mar_15_1435,mf_amp_cond2,3.0.4,59.97749385009644,
troops,&&&&&&&&,right,loyalty.vice,proached,,,,,,,,,,,,,,,0,5,5,184,,,,,,,,,,,,,AMP,left,0.4170334107475355,0,,,,,,,,,,,,,,left,0,0.4170334107475355,,,,,,,,,,,1076,2019_Mar_15_1435,mf_amp_cond2,3.0.4,59.97749385009644,
embrace,&&&&&&&&,left,authority.virtue,gowlands,,,,,,,,,,,,,,,0,6,6,144,,,,,,,,,,,,,AMP,right,0.45035564714635257,0,,,,,,,,,,,,,,right,0,0.45035564714635257,,,,,,,,,,,1076,2019_Mar_15_1435,mf_amp_cond2,3.0.4,59.97749385009644,
help,&&&&&&&&&,left,care.virtue,chressing,,,,,,,,,,,,,,,0,7,7,217,,,,,,,,,,,,,AMP,left,0.3503687325573992,1,,,,,,,,,,,,,,left,1,0.3503687325573992,,,,,,,,,,,1076,2019_Mar_15_1435,mf_amp_cond2,3.0.4,59.97749385009644,
refused,&&&&&&&&&,right,authority.vice,godlaness,,,,,,,,,,,,,,,0,8,8,305,,,,,,,,,,,,,AMP,left,0.6504045249894261,0,,,,,,,,,,,,,,left,0,0.6504045249894261,,,,,,,,,,,1076,2019_Mar_15_1435,mf_amp_cond2,3.0.4,59.97749385009644,
encourage,&&&&&&,left,authority.virtue,prones,,,,,,,,,,,,,,,0,9,9,116,,,,,,,,,,,,,AMP,left,0.3670250399445649,1,,,,,,,,,,,,,,left,1,0.3670250399445649,,,,,,,,,,,1076,2019_Mar_15_1435,mf_amp_cond2,3.0.4,59.97749385009644,
blamed,&&&&&,right,loyalty.vice,noped,,,,,,,,,,,,,,,0,10,10,57,,,,,,,,,,,,,AMP,left,0.4503424976137467,0,,,,,,,,,,,,,,left,0,0.4503424976137467,,,,,,,,,,,1076,2019_Mar_15_1435,mf_amp_cond2,3.0.4,59.97749385009644,
opportunity,&&&&&&,left,fairness.virtue,tislay,,,,,,,,,,,,,,,0,11,11,250,,,,,,,,,,,,,AMP,left,0.3836698013910791,1,,,,,,,,,,,,,,left,1,0.3836698013910791,,,,,,,,,,,1076,2019_Mar_15_1435,mf_amp_cond2,3.0.4,59.97749385009644,
atson,&&&&&&&,None,nonword,stindig,,,,,,,,,,,,,,,0,12,12,22,,,,,,,,,,,,,AMP,left,0.717090050020488,0,,,,,,,,,,,,,,left,0,0.717090050020488,,,,,,,,,,,1076,2019_Mar_15_1435,mf_amp_cond2,3.0.4,59.97749385009644,
praise,&&&&&&,left,authority.virtue,Cunday,,,,,,,,,,,,,,,0,13,13,307,,,,,,,,,,,,,AMP,left,0.9171299476729473,1,,,,,,,,,,,,,,left,1,0.9171299476729473,,,,,,,,,,,1076,2019_Mar_15_1435,mf_amp_cond2,3.0.4,59.97749385009644,
peace,&&&&&&,left,care.virtue,tislay,,,,,,,,,,,,,,,0,14,14,72,,,,,,,,,,,,,AMP,left,0.3836653113103239,1,,,,,,,,,,,,,,left,1,0.3836653113103239,,,,,,,,,,,1076,2019_Mar_15_1435,mf_amp_cond2,3.0.4,59.97749385009644,
freedom,&&&&&&&&&&&&,left,sanctity.virtue,rorroborated,,,,,,,,,,,,,,,0,15,15,134,,,,,,,,,,,,,AMP,left,0.4336784929182613,1,,,,,,,,,,,,,,left,1,0.4336784929182613,,,,,,,,,,,1076,2019_Mar_15_1435,mf_amp_cond2,3.0.4,59.97749385009644,
shot,&&&&&&&&,right,care.vice,suggists,,,,,,,,,,,,,,,0,16,16,35,,,,,,,,,,,,,AMP,left,0.7004106507520191,0,,,,,,,,,,,,,,left,0,0.7004106507520191,,,,,,,,,,,1076,2019_Mar_15_1435,mf_amp_cond2,3.0.4,59.97749385009644,
men,&&&&&&&&&,right,loyalty.vice,pescinded,,,,,,,,,,,,,,,0,17,17,174,,,,,,,,,,,,,AMP,left,0.5503958013869124,0,,,,,,,,,,,,,,left,0,0.5503958013869124,,,,,,,,,,,1076,2019_Mar_15_1435,mf_amp_cond2,3.0.4,59.97749385009644,
respect,&&&&&&,left,sanctity.virtue,strofe,,,,,,,,,,,,,,,0,18,18,191,,,,,,,,,,,,,AMP,right,0.5503717473329743,0,,,,,,,,,,,,,,right,0,0.5503717473329743,,,,,,,,,,,1076,2019_Mar_15_1435,mf_amp_cond2,3.0.4,59.97749385009644,
intelligence,&&&&&&&&&&&&&,left,loyalty.virtue,esquisiteness,,,,,,,,,,,,,,,0,19,19,103,,,,,,,,,,,,,AMP,right,0.7504199837276246,0,,,,,,,,,,,,,,right,0,0.7504199837276246,,,,,,,,,,,1076,2019_Mar_15_1435,mf_amp_cond2,3.0.4,59.97749385009644,
riot,&&&&&&&&&&,right,authority.vice,ecgagement,,,,,,,,,,,,,,,0,20,20,277,,,,,,,,,,,,,AMP,left,0.6002386803302215,0,,,,,,,,,,,,,,left,0,0.6002386803302215,,,,,,,,,,,1076,2019_Mar_15_1435,mf_amp_cond2,3.0.4,59.97749385009644,
police,&&&&&&&,right,authority.vice,halaise,,,,,,,,,,,,,,,0,21,21,275,,,,,,,,,,,,,AMP,left,0.4836887880519498,0,,,,,,,,,,,,,,left,0,0.4836887880519498,,,,,,,,,,,1076,2019_Mar_15_1435,mf_amp_cond2,3.0.4,59.97749385009644,
police,&&&&&&&&&&,right,authority.vice,ammessment,,,,,,,,,,,,,,,0,22,22,127,,,,,,,,,,,,,AMP,left,0.4170080738258548,0,,,,,,,,,,,,,,left,0,0.4170080738258548,,,,,,,,,,,1076,2019_Mar_15_1435,mf_amp_cond2,3.0.4,59.97749385009644,
support,&&&&&&&,left,loyalty.virtue,reviked,,,,,,,,,,,,,,,0,23,23,2,,,,,,,,,,,,,AMP,right,0.500399297234253,0,,,,,,,,,,,,,,right,0,0.500399297234253,,,,,,,,,,,1076,2019_Mar_15_1435,mf_amp_cond2,3.0.4,59.97749385009644,
care,&&&&&&&&&&,left,care.virtue,honstables,,,,,,,,,,,,,,,0,24,24,249,,,,,,,,,,,,,AMP,left,0.5503765581524931,1,,,,,,,,,,,,,,left,1,0.5503765581524931,,,,,,,,,,,1076,2019_Mar_15_1435,mf_amp_cond2,3.0.4,59.97749385009644,
injured,&&&&&&&&,right,care.vice,drumbled,,,,,,,,,,,,,,,0,25,25,30,,,,,,,,,,,,,AMP,left,0.6337251257064054,0,,,,,,,,,,,,,,left,0,0.6337251257064054,,,,,,,,,,,1076,2019_Mar_15_1435,mf_amp_cond2,3.0.4,59.97749385009644,
hate,&&&&&,right,fairness.vice,uller,,,,,,,,,,,,,,,0,26,26,324,,,,,,,,,,,,,AMP,left,0.31702244211919606,0,,,,,,,,,,,,,,left,0,0.31702244211919606,,,,,,,,,,,1076,2019_Mar_15_1435,mf_amp_cond2,3.0.4,59.97749385009644,
corruption,&&&&&&&&,right,sanctity.vice,sidearbs,,,,,,,,,,,,,,,0,27,27,163,,,,,,,,,,,,,AMP,left,0.6336619437352056,0,,,,,,,,,,,,,,left,0,0.6336619437352056,,,,,,,,,,,1076,2019_Mar_15_1435,mf_amp_cond2,3.0.4,59.97749385009644,
opportunity,&&&&&&&&&,left,fairness.virtue,crilfully,,,,,,,,,,,,,,,0,28,28,141,,,,,,,,,,,,,AMP,left,0.3169829934631707,1,,,,,,,,,,,,,,left,1,0.3169829934631707,,,,,,,,,,,1076,2019_Mar_15_1435,mf_amp_cond2,3.0.4,59.97749385009644,
violence,&&&&,right,care.vice,ning,,,,,,,,,,,,,,,0,29,29,270,,,,,,,,,,,,,AMP,left,0.2503054864500882,0,,,,,,,,,,,,,,left,0,0.2503054864500882,,,,,,,,,,,1076,2019_Mar_15_1435,mf_amp_cond2,3.0.4,59.97749385009644,
peace,&&&&&&&&,left,care.virtue,dormandi,,,,,,,,,,,,,,,0,30,30,98,,,,,,,,,,,,,AMP,left,0.30031097076425795,1,,,,,,,,,,,,,,left,1,0.30031097076425795,,,,,,,,,,,1076,2019_Mar_15_1435,mf_amp_cond2,3.0.4,59.97749385009644,
health,&&&&&&&&&&,left,care.virtue,clattening,,,,,,,,,,,,,,,0,31,31,221,,,,,,,,,,,,,AMP,right,0.3669977786776144,0,,,,,,,,,,,,,,right,0,0.3669977786776144,,,,,,,,,,,1076,2019_Mar_15_1435,mf_amp_cond2,3.0.4,59.97749385009644,
baklara,&&&&&&,None,nonword,Cunday,,,,,,,,,,,,,,,0,32,32,110,,,,,,,,,,,,,AMP,left,0.26698809291701764,0,,,,,,,,,,,,,,left,0,0.26698809291701764,,,,,,,,,,,1076,2019_Mar_15_1435,mf_amp_cond2,3.0.4,59.97749385009644,
forced,&&&&&&&&,right,fairness.vice,drumbled,,,,,,,,,,,,,,,0,33,33,219,,,,,,,,,,,,,AMP,left,0.4170186576084234,0,,,,,,,,,,,,,,left,0,0.4170186576084234,,,,,,,,,,,1076,2019_Mar_15_1435,mf_amp_cond2,3.0.4,59.97749385009644,
win,&&&&&&&,left,fairness.virtue,nomaric,,,,,,,,,,,,,,,0,34,34,165,,,,,,,,,,,,,AMP,left,0.38367268787987996,1,,,,,,,,,,,,,,left,1,0.38367268787987996,,,,,,,,,,,1076,2019_Mar_15_1435,mf_amp_cond2,3.0.4,59.97749385009644,
health,&&&&&&&&&,left,care.virtue,discovars,,,,,,,,,,,,,,,0,35,35,53,,,,,,,,,,,,,AMP,right,0.5337218543572817,0,,,,,,,,,,,,,,right,0,0.5337218543572817,,,,,,,,,,,1076,2019_Mar_15_1435,mf_amp_cond2,3.0.4,59.97749385009644,
win,&&&&&&&&,left,fairness.virtue,gournful,,,,,,,,,,,,,,,0,36,36,267,,,,,,,,,,,,,AMP,left,0.36700258949713316,1,,,,,,,,,,,,,,left,1,0.36700258949713316,,,,,,,,,,,1076,2019_Mar_15_1435,mf_amp_cond2,3.0.4,59.97749385009644,
slending,&&&&&&&&,None,nonword,tracious,,,,,,,,,,,,,,,0,37,37,260,,,,,,,,,,,,,AMP,left,0.35028117580804974,0,,,,,,,,,,,,,,left,0,0.35028117580804974,,,,,,,,,,,1076,2019_Mar_15_1435,mf_amp_cond2,3.0.4,59.97749385009644,
encourage,&&&&&,left,authority.virtue,lenon,,,,,,,,,,,,,,,0,38,38,17,,,,,,,,,,,,,AMP,left,0.3336527711217059,1,,,,,,,,,,,,,,left,1,0.3336527711217059,,,,,,,,,,,1076,2019_Mar_15_1435,mf_amp_cond2,3.0.4,59.97749385009644,
scalbel,&&&&&&&&&&,None,nonword,simplustic,,,,,,,,,,,,,,,0,39,39,257,,,,,,,,,,,,,AMP,right,0.4837231051787967,0,,,,,,,,,,,,,,right,0,0.4837231051787967,,,,,,,,,,,1076,2019_Mar_15_1435,mf_amp_cond2,3.0.4,59.97749385009644,
unpleasant,&&&&&,None,control,tabin,,,,,,,,,,,,,,,0,40,40,309,,,,,,,,,,,,,AMP,left,1.2172096788417548,0,,,,,,,,,,,,,,left,0,1.2172096788417548,,,,,,,,,,,1076,2019_Mar_15_1435,mf_amp_cond2,3.0.4,59.97749385009644,
slending,&&&&&&&&&&,None,nonword,lorthwhile,,,,,,,,,,,,,,,0,41,41,50,,,,,,,,,,,,,AMP,left,0.38370540138566867,0,,,,,,,,,,,,,,left,0,0.38370540138566867,,,,,,,,,,,1076,2019_Mar_15_1435,mf_amp_cond2,3.0.4,59.97749385009644,
black,&&&&&&&&,right,loyalty.vice,fontacts,,,,,,,,,,,,,,,0,42,42,192,,,,,,,,,,,,,AMP,left,0.41697183238284197,0,,,,,,,,,,,,,,left,0,0.41697183238284197,,,,,,,,,,,1076,2019_Mar_15_1435,mf_amp_cond2,3.0.4,59.97749385009644,
drug,&&&&&&&,right,sanctity.vice,stindig,,,,,,,,,,,,,,,0,43,43,262,,,,,,,,,,,,,AMP,left,0.35032607670291327,0,,,,,,,,,,,,,,left,0,0.35032607670291327,,,,,,,,,,,1076,2019_Mar_15_1435,mf_amp_cond2,3.0.4,59.97749385009644,
racist,&&&&&&&&&,right,sanctity.vice,rivernoat,,,,,,,,,,,,,,,0,44,44,187,,,,,,,,,,,,,AMP,left,0.6504115808347706,0,,,,,,,,,,,,,,left,0,0.6504115808347706,,,,,,,,,,,1076,2019_Mar_15_1435,mf_amp_cond2,3.0.4,59.97749385009644,
injured,&&&&&&&&,right,care.vice,crinking,,,,,,,,,,,,,,,0,45,45,95,,,,,,,,,,,,,AMP,left,0.717087163546239,0,,,,,,,,,,,,,,left,0,0.717087163546239,,,,,,,,,,,1076,2019_Mar_15_1435,mf_amp_cond2,3.0.4,59.97749385009644,
gusinesslike,&&&&&&&&&,None,nonword,crilfully,,,,,,,,,,,,,,,0,46,46,225,,,,,,,,,,,,,AMP,left,0.3836765365267638,0,,,,,,,,,,,,,,left,0,0.3836765365267638,,,,,,,,,,,1076,2019_Mar_15_1435,mf_amp_cond2,3.0.4,59.97749385009644,
victims,&&&&&&&&&&,right,care.vice,elduringly,,,,,,,,,,,,,,,0,47,47,131,,,,,,,,,,,,,AMP,right,0.7170996716449736,1,,,,,,,,,,,,,,right,1,0.7170996716449736,,,,,,,,,,,1076,2019_Mar_15_1435,mf_amp_cond2,3.0.4,59.97749385009644,
honored,&&&&&&&&&&,left,authority.virtue,lorthwhile,,,,,,,,,,,,,,,0,48,48,89,,,,,,,,,,,,,AMP,left,0.4336836244474398,1,,,,,,,,,,,,,,left,1,0.4336836244474398,,,,,,,,,,,1076,2019_Mar_15_1435,mf_amp_cond2,3.0.4,59.97749385009644,
health,&&&&&&&&&,left,care.virtue,rivernoat,,,,,,,,,,,,,,,0,49,49,97,,,,,,,,,,,,,AMP,left,0.7337534132675501,1,,,,,,,,,,,,,,left,1,0.7337534132675501,,,,,,,,,,,1076,2019_Mar_15_1435,mf_amp_cond2,3.0.4,59.97749385009644,
sexual,&&&&&&&&&&&,right,sanctity.vice,precificity,,,,,,,,,,,,,,,0,50,50,300,,,,,,,,,,,,,AMP,right,0.600454204613925,1,,,,,,,,,,,,,,right,1,0.600454204613925,,,,,,,,,,,1076,2019_Mar_15_1435,mf_amp_cond2,3.0.4,59.97749385009644,
care,&&&&&&&&&&&,left,care.virtue,mightingale,,,,,,,,,,,,,,,0,51,51,5,,,,,,,,,,,,,AMP,left,0.5003614521992858,1,,,,,,,,,,,,,,left,1,0.5003614521992858,,,,,,,,,,,1076,2019_Mar_15_1435,mf_amp_cond2,3.0.4,59.97749385009644,
blamed,&&&&&&&&&,right,loyalty.vice,reprisols,,,,,,,,,,,,,,,0,52,52,292,,,,,,,,,,,,,AMP,left,0.5003685080591822,0,,,,,,,,,,,,,,left,0,0.5003685080591822,,,,,,,,,,,1076,2019_Mar_15_1435,mf_amp_cond2,3.0.4,59.97749385009644,
illegal,&&&&&&&&&&&,right,fairness.vice,mightingale,,,,,,,,,,,,,,,0,53,53,244,,,,,,,,,,,,,AMP,left,4.367995861422969,0,,,,,,,,,,,,,,left,0,4.367995861422969,,,,,,,,,,,1076,2019_Mar_15_1435,mf_amp_cond2,3.0.4,59.97749385009644,
troops,&&&&&&&&&,right,loyalty.vice,chressing,,,,,,,,,,,,,,,0,54,54,54,,,,,,,,,,,,,AMP,left,0.4670350464293733,0,,,,,,,,,,,,,,left,0,0.4670350464293733,,,,,,,,,,,1076,2019_Mar_15_1435,mf_amp_cond2,3.0.4,59.97749385009644,
progress,&&&&&&&&&,left,authority.virtue,refuejing,,,,,,,,,,,,,,,0,55,55,215,,,,,,,,,,,,,AMP,left,0.23363057724782266,1,,,,,,,,,,,,,,left,1,0.23363057724782266,,,,,,,,,,,1076,2019_Mar_15_1435,mf_amp_cond2,3.0.4,59.97749385009644,
frojecting,&&&&&&&&&&,None,nonword,simplustic,,,,,,,,,,,,,,,0,56,56,164,,,,,,,,,,,,,AMP,left,0.5170132694911445,0,,,,,,,,,,,,,,left,0,0.5170132694911445,,,,,,,,,,,1076,2019_Mar_15_1435,mf_amp_cond2,3.0.4,59.97749385009644,
pleasant,&&&&&&,None,control,openet,,,,,,,,,,,,,,,0,57,57,222,,,,,,,,,,,,,AMP,left,0.48369456102955155,0,,,,,,,,,,,,,,left,0,0.48369456102955155,,,,,,,,,,,1076,2019_Mar_15_1435,mf_amp_cond2,3.0.4,59.97749385009644,
allears,&&&&&&,None,nonword,Boeinf,,,,,,,,,,,,,,,0,58,58,289,,,,,,,,,,,,,AMP,left,0.20029005977266934,0,,,,,,,,,,,,,,left,0,0.20029005977266934,,,,,,,,,,,1076,2019_Mar_15_1435,mf_amp_cond2,3.0.4,59.97749385009644,
increase,&&&&&&&&,left,care.virtue,crinking,,,,,,,,,,,,,,,0,59,59,232,,,,,,,,,,,,,AMP,left,0.3503523758117808,1,,,,,,,,,,,,,,left,1,0.3503523758117808,,,,,,,,,,,1076,2019_Mar_15_1435,mf_amp_cond2,3.0.4,59.97749385009644,
sexual,&&&&&&&,right,sanctity.vice,halaise,,,,,,,,,,,,,,,0,60,60,208,,,,,,,,,,,,,AMP,left,0.5670412042672979,0,,,,,,,,,,,,,,left,0,0.5670412042672979,,,,,,,,,,,1076,2019_Mar_15_1435,mf_amp_cond2,3.0.4,59.97749385009644,
embrace,&&&&&&&&&&&,left,authority.virtue,precificity,,,,,,,,,,,,,,,0,61,61,204,,,,,,,,,,,,,AMP,left,0.38367910229135305,1,,,,,,,,,,,,,,left,1,0.38367910229135305,,,,,,,,,,,1076,2019_Mar_15_1435,mf_amp_cond2,3.0.4,59.97749385009644,
threatened,&&&&&&&&,right,fairness.vice,dormandi,,,,,,,,,,,,,,,0,62,62,202,,,,,,,,,,,,,AMP,left,0.23362704931059852,0,,,,,,,,,,,,,,left,0,0.23362704931059852,,,,,,,,,,,1076,2019_Mar_15_1435,mf_amp_cond2,3.0.4,59.97749385009644,
frojecting,&&&&&&,None,nonword,pumber,,,,,,,,,,,,,,,0,63,63,99,,,,,,,,,,,,,AMP,left,0.4670369707600912,0,,,,,,,,,,,,,,left,0,0.4670369707600912,,,,,,,,,,,1076,2019_Mar_15_1435,mf_amp_cond2,3.0.4,59.97749385009644,
praise,&&&&&&&&&&,left,authority.virtue,reelectiob,,,,,,,,,,,,,,,0,64,64,100,,,,,,,,,,,,,AMP,left,0.41698915130109526,1,,,,,,,,,,,,,,left,1,0.41698915130109526,,,,,,,,,,,1076,2019_Mar_15_1435,mf_amp_cond2,3.0.4,59.97749385009644,
pleasant,&&&&&&,None,control,prones,,,,,,,,,,,,,,,0,65,65,319,,,,,,,,,,,,,AMP,left,0.6337270500371233,0,,,,,,,,,,,,,,left,0,0.6337270500371233,,,,,,,,,,,1076,2019_Mar_15_1435,mf_amp_cond2,3.0.4,59.97749385009644,
officers,&&&&&&,right,authority.vice,prones,,,,,,,,,,,,,,,0,66,66,231,,,,,,,,,,,,,AMP,left,0.5170806208334398,0,,,,,,,,,,,,,,left,0,0.5170806208334398,,,,,,,,,,,1076,2019_Mar_15_1435,mf_amp_cond2,3.0.4,59.97749385009644,
promises,&&&&&&&,left,fairness.virtue,nomaric,,,,,,,,,,,,,,,0,67,67,38,,,,,,,,,,,,,AMP,right,0.5670360727381194,0,,,,,,,,,,,,,,right,0,0.5670360727381194,,,,,,,,,,,1076,2019_Mar_15_1435,mf_amp_cond2,3.0.4,59.97749385009644,
great,&&&&&&&,left,loyalty.virtue,halaise,,,,,,,,,,,,,,,0,68,68,86,,,,,,,,,,,,,AMP,right,0.4836971267941408,0,,,,,,,,,,,,,,right,0,0.4836971267941408,,,,,,,,,,,1076,2019_Mar_15_1435,mf_amp_cond2,3.0.4,59.97749385009644,
scalbel,&&&&&&&&&&,None,nonword,elduringly,,,,,,,,,,,,,,,0,69,69,237,,,,,,,,,,,,,AMP,right,0.4503428183234064,0,,,,,,,,,,,,,,right,0,0.4503428183234064,,,,,,,,,,,1076,2019_Mar_15_1435,mf_amp_cond2,3.0.4,59.97749385009644,
strength,&&&&&&,left,sanctity.virtue,pumber,,,,,,,,,,,,,,,0,70,70,11,,,,,,,,,,,,,AMP,left,0.300302632022067,1,,,,,,,,,,,,,,left,1,0.300302632022067,,,,,,,,,,,1076,2019_Mar_15_1435,mf_amp_cond2,3.0.4,59.97749385009644,
troops,&&&&&&&&,right,loyalty.vice,suggists,,,,,,,,,,,,,,,0,71,71,146,,,,,,,,,,,,,AMP,left,0.31699004930851515,0,,,,,,,,,,,,,,left,0,0.31699004930851515,,,,,,,,,,,1076,2019_Mar_15_1435,mf_amp_cond2,3.0.4,59.97749385009644,
party,&&&&&&,left,loyalty.virtue,fostet,,,,,,,,,,,,,,,0,72,72,233,,,,,,,,,,,,,AMP,right,0.2502990720386151,0,,,,,,,,,,,,,,right,0,0.2502990720386151,,,,,,,,,,,1076,2019_Mar_15_1435,mf_amp_cond2,3.0.4,59.97749385009644,
serial,&&&&&&&&&&,right,sanctity.vice,abointment,,,,,,,,,,,,,,,0,73,73,40,,,,,,,,,,,,,AMP,left,0.3336585440993076,0,,,,,,,,,,,,,,left,0,0.3336585440993076,,,,,,,,,,,1076,2019_Mar_15_1435,mf_amp_cond2,3.0.4,59.97749385009644,
fraud,&&&&&&&&&&&&,right,fairness.vice,bruthfulness,,,,,,,,,,,,,,,0,74,74,129,,,,,,,,,,,,,AMP,left,0.4503437804814894,0,,,,,,,,,,,,,,left,0,0.4503437804814894,,,,,,,,,,,1076,2019_Mar_15_1435,mf_amp_cond2,3.0.4,59.97749385009644,
respect,&&&&&&&&,left,sanctity.virtue,hescribe,,,,,,,,,,,,,,,0,75,75,113,,,,,,,,,,,,,AMP,left,0.4503354417538503,1,,,,,,,,,,,,,,left,1,0.4503354417538503,,,,,,,,,,,1076,2019_Mar_15_1435,mf_amp_cond2,3.0.4,59.97749385009644,
friends,&&&&&&&&,left,loyalty.virtue,thabbily,,,,,,,,,,,,,,,0,76,76,286,,,,,,,,,,,,,AMP,left,0.45035885435936507,1,,,,,,,,,,,,,,left,1,0.45035885435936507,,,,,,,,,,,1076,2019_Mar_15_1435,mf_amp_cond2,3.0.4,59.97749385009644,
love,&&&&&&&&&&&,left,loyalty.virtue,ilportation,,,,,,,,,,,,,,,0,77,77,101,,,,,,,,,,,,,AMP,left,0.46703536715358496,1,,,,,,,,,,,,,,left,1,0.46703536715358496,,,,,,,,,,,1076,2019_Mar_15_1435,mf_amp_cond2,3.0.4,59.97749385009644,
victim,&&&&&&&&&&,right,care.vice,gationwide,,,,,,,,,,,,,,,0,78,78,299,,,,,,,,,,,,,AMP,left,0.30030680139316246,0,,,,,,,,,,,,,,left,0,0.30030680139316246,,,,,,,,,,,1076,2019_Mar_15_1435,mf_amp_cond2,3.0.4,59.97749385009644,
agreement,&&&&&&&,left,fairness.virtue,stindig,,,,,,,,,,,,,,,0,79,79,148,,,,,,,,,,,,,AMP,left,0.31698427636001725,1,,,,,,,,,,,,,,left,1,0.31698427636001725,,,,,,,,,,,1076,2019_Mar_15_1435,mf_amp_cond2,3.0.4,59.97749385009644,
riot,&&&&&&,right,authority.vice,openet,,,,,,,,,,,,,,,0,80,80,69,,,,,,,,,,,,,AMP,left,0.0502485905890353,0,,,,,,,,,,,,,,left,0,0.0502485905890353,,,,,,,,,,,1076,2019_Mar_15_1435,mf_amp_cond2,3.0.4,59.97749385009644,
honored,&&&&&&&&&,left,authority.virtue,refuejing,,,,,,,,,,,,,,,0,81,81,45,,,,,,,,,,,,,AMP,left,0.050261419426533394,1,,,,,,,,,,,,,,left,1,0.050261419426533394,,,,,,,,,,,1076,2019_Mar_15_1435,mf_amp_cond2,3.0.4,59.97749385009644,
failure,&&&&&&&&&,right,loyalty.vice,pescinded,,,,,,,,,,,,,,,0,82,82,322,,,,,,,,,,,,,AMP,left,0.3836598590569338,0,,,,,,,,,,,,,,left,0,0.3836598590569338,,,,,,,,,,,1076,2019_Mar_15_1435,mf_amp_cond2,3.0.4,59.97749385009644,
crime,&&&&&&&&,right,fairness.vice,fontacts,,,,,,,,,,,,,,,0,83,83,326,,,,,,,,,,,,,AMP,left,0.5670655790308956,0,,,,,,,,,,,,,,left,0,0.5670655790308956,,,,,,,,,,,1076,2019_Mar_15_1435,mf_amp_cond2,3.0.4,59.97749385009644,
intelligence,&&&&&&&&&,left,loyalty.virtue,discovars,,,,,,,,,,,,,,,0,84,84,239,,,,,,,,,,,,,AMP,left,0.5503829725494143,1,,,,,,,,,,,,,,left,1,0.5503829725494143,,,,,,,,,,,1076,2019_Mar_15_1435,mf_amp_cond2,3.0.4,59.97749385009644,
cromiscuity,&&&&&&&,None,nonword,brudent,,,,,,,,,,,,,,,0,85,85,43,,,,,,,,,,,,,AMP,left,0.4836919952649623,0,,,,,,,,,,,,,,left,0,0.4836919952649623,,,,,,,,,,,1076,2019_Mar_15_1435,mf_amp_cond2,3.0.4,59.97749385009644,
benefit,&&&&&&&&&&&,left,fairness.virtue,lempestuous,,,,,,,,,,,,,,,0,86,86,189,,,,,,,,,,,,,AMP,right,0.7504238323599566,0,,,,,,,,,,,,,,right,0,0.7504238323599566,,,,,,,,,,,1076,2019_Mar_15_1435,mf_amp_cond2,3.0.4,59.97749385009644,
chreams,&&&&&&&&&&&&,None,nonword,rorroborated,,,,,,,,,,,,,,,0,87,87,77,,,,,,,,,,,,,AMP,left,0.28365722914168146,0,,,,,,,,,,,,,,left,0,0.28365722914168146,,,,,,,,,,,1076,2019_Mar_15_1435,mf_amp_cond2,3.0.4,59.97749385009644,
black,&&&&&&&&,right,loyalty.vice,drumbled,,,,,,,,,,,,,,,0,88,88,266,,,,,,,,,,,,,AMP,left,0.40033925833995454,0,,,,,,,,,,,,,,left,0,0.40033925833995454,,,,,,,,,,,1076,2019_Mar_15_1435,mf_amp_cond2,3.0.4,59.97749385009644,
love,&&&&&&&&,left,loyalty.virtue,proached,,,,,,,,,,,,,,,0,89,89,48,,,,,,,,,,,,,AMP,left,0.600386532547418,1,,,,,,,,,,,,,,left,1,0.600386532547418,,,,,,,,,,,1076,2019_Mar_15_1435,mf_amp_cond2,3.0.4,59.97749385009644,
support,&&&&&&&&&,left,loyalty.virtue,crilfully,,,,,,,,,,,,,,,0,90,90,282,,,,,,,,,,,,,AMP,right,0.4669904662587214,0,,,,,,,,,,,,,,right,0,0.4669904662587214,,,,,,,,,,,1076,2019_Mar_15_1435,mf_amp_cond2,3.0.4,59.97749385009644,
allears,&&&&&&&&&&&,None,nonword,nomparisons,,,,,,,,,,,,,,,0,91,91,157,,,,,,,,,,,,,AMP,left,0.3503241523721954,0,,,,,,,,,,,,,,left,0,0.3503241523721954,,,,,,,,,,,1076,2019_Mar_15_1435,mf_amp_cond2,3.0.4,59.97749385009644,
slending,&&&&&&,None,nonword,gazily,,,,,,,,,,,,,,,0,92,92,158,,,,,,,,,,,,,AMP,right,0.4837157285946887,0,,,,,,,,,,,,,,right,0,0.4837157285946887,,,,,,,,,,,1076,2019_Mar_15_1435,mf_amp_cond2,3.0.4,59.97749385009644,
peaceful,&&&&&&&,left,authority.virtue,festate,,,,,,,,,,,,,,,0,93,93,179,,,,,,,,,,,,,AMP,left,0.3169618259125855,1,,,,,,,,,,,,,,left,1,0.3169618259125855,,,,,,,,,,,1076,2019_Mar_15_1435,mf_amp_cond2,3.0.4,59.97749385009644,
useful,&&&&&&&&,left,authority.virtue,pullness,,,,,,,,,,,,,,,0,94,94,61,,,,,,,,,,,,,AMP,left,0.33366976931574754,1,,,,,,,,,,,,,,left,1,0.33366976931574754,,,,,,,,,,,1076,2019_Mar_15_1435,mf_amp_cond2,3.0.4,59.97749385009644,
values,&&&&&,left,sanctity.virtue,lenon,,,,,,,,,,,,,,,0,95,95,280,,,,,,,,,,,,,AMP,left,0.3336607891396852,1,,,,,,,,,,,,,,left,1,0.3336607891396852,,,,,,,,,,,1076,2019_Mar_15_1435,mf_amp_cond2,3.0.4,59.97749385009644,
strength,&&&&&&&&,left,sanctity.virtue,bluently,,,,,,,,,,,,,,,0,96,96,188,,,,,,,,,,,,,AMP,left,0.2502949026529677,1,,,,,,,,,,,,,,left,1,0.2502949026529677,,,,,,,,,,,1076,2019_Mar_15_1435,mf_amp_cond2,3.0.4,59.97749385009644,
scandal,&&&&&&&&&&&&,right,sanctity.vice,bruthfulness,,,,,,,,,,,,,,,0,97,97,210,,,,,,,,,,,,,AMP,left,0.350331849680515,0,,,,,,,,,,,,,,left,0,0.350331849680515,,,,,,,,,,,1076,2019_Mar_15_1435,mf_amp_cond2,3.0.4,59.97749385009644,
great,&&&&&&&&&&&&&,left,loyalty.virtue,esquisiteness,,,,,,,,,,,,,,,0,98,98,9,,,,,,,,,,,,,AMP,right,0.5837151512969285,0,,,,,,,,,,,,,,right,0,0.5837151512969285,,,,,,,,,,,1076,2019_Mar_15_1435,mf_amp_cond2,3.0.4,59.97749385009644,
injured,&&&&&&&&&&&&,right,care.vice,nonobservalt,,,,,,,,,,,,,,,0,99,99,234,,,,,,,,,,,,,AMP,left,0.3670272849849425,0,,,,,,,,,,,,,,left,0,0.3670272849849425,,,,,,,,,,,1076,2019_Mar_15_1435,mf_amp_cond2,3.0.4,59.97749385009644,
praise,&&&&&&&&,left,authority.virtue,gournful,,,,,,,,,,,,,,,0,100,100,171,,,,,,,,,,,,,AMP,left,0.383664349137689,1,,,,,,,,,,,,,,left,1,0.383664349137689,,,,,,,,,,,1076,2019_Mar_15_1435,mf_amp_cond2,3.0.4,59.97749385009644,
slending,&&&&&,None,nonword,noped,,,,,,,,,,,,,,,0,101,101,199,,,,,,,,,,,,,AMP,left,0.4170321278652409,0,,,,,,,,,,,,,,left,0,0.4170321278652409,,,,,,,,,,,1076,2019_Mar_15_1435,mf_amp_cond2,3.0.4,59.97749385009644,
victim,&&&&&&,right,care.vice,bycled,,,,,,,,,,,,,,,0,102,102,161,,,,,,,,,,,,,AMP,left,0.4170006972417468,0,,,,,,,,,,,,,,left,0,0.4170006972417468,,,,,,,,,,,1076,2019_Mar_15_1435,mf_amp_cond2,3.0.4,59.97749385009644,
peace,&&&&&&,left,care.virtue,bycled,,,,,,,,,,,,,,,0,103,103,224,,,,,,,,,,,,,AMP,left,0.31698684211005457,1,,,,,,,,,,,,,,left,1,0.31698684211005457,,,,,,,,,,,1076,2019_Mar_15_1435,mf_amp_cond2,3.0.4,59.97749385009644,
army,&&&&&&&&&&&&,right,loyalty.vice,edancipation,,,,,,,,,,,,,,,0,104,104,106,,,,,,,,,,,,,AMP,right,0.6170636867900612,1,,,,,,,,,,,,,,right,1,0.6170636867900612,,,,,,,,,,,1076,2019_Mar_15_1435,mf_amp_cond2,3.0.4,59.97749385009644,
riot,&&&&&,right,authority.vice,lenon,,,,,,,,,,,,,,,0,105,105,213,,,,,,,,,,,,,AMP,left,0.2003224525542464,0,,,,,,,,,,,,,,left,0,0.2003224525542464,,,,,,,,,,,1076,2019_Mar_15_1435,mf_amp_cond2,3.0.4,59.97749385009644,
peaceful,&&&&&&&,left,authority.virtue,pharing,,,,,,,,,,,,,,,0,106,106,26,,,,,,,,,,,,,AMP,left,0.4170067909435602,1,,,,,,,,,,,,,,left,1,0.4170067909435602,,,,,,,,,,,1076,2019_Mar_15_1435,mf_amp_cond2,3.0.4,59.97749385009644,
agreement,&&&&&&&&&&&,left,fairness.virtue,ilportation,,,,,,,,,,,,,,,0,107,107,220,,,,,,,,,,,,,AMP,left,0.4003652366955066,1,,,,,,,,,,,,,,left,1,0.4003652366955066,,,,,,,,,,,1076,2019_Mar_15_1435,mf_amp_cond2,3.0.4,59.97749385009644,
forced,&&&&&&&&&&&&,right,fairness.vice,rorroborated,,,,,,,,,,,,,,,0,108,108,301,,,,,,,,,,,,,AMP,left,0.2836469660833245,0,,,,,,,,,,,,,,left,0,0.2836469660833245,,,,,,,,,,,1076,2019_Mar_15_1435,mf_amp_cond2,3.0.4,59.97749385009644,
illegal,&&&&,right,fairness.vice,ning,,,,,,,,,,,,,,,0,109,109,85,,,,,,,,,,,,,AMP,left,0.4503569300431991,0,,,,,,,,,,,,,,left,0,0.4503569300431991,,,,,,,,,,,1076,2019_Mar_15_1435,mf_amp_cond2,3.0.4,59.97749385009644,
threatened,&&&,right,fairness.vice,oam,,,,,,,,,,,,,,,0,110,110,296,,,,,,,,,,,,,AMP,left,0.4336855487781577,0,,,,,,,,,,,,,,left,0,0.4336855487781577,,,,,,,,,,,1076,2019_Mar_15_1435,mf_amp_cond2,3.0.4,59.97749385009644,
compassion,&&&&&&&&&&,left,care.virtue,honstables,,,,,,,,,,,,,,,0,111,111,64,,,,,,,,,,,,,AMP,left,0.35018880826828536,1,,,,,,,,,,,,,,left,1,0.35018880826828536,,,,,,,,,,,1076,2019_Mar_15_1435,mf_amp_cond2,3.0.4,59.97749385009644,
gusinesslike,&&&&&&&&,None,nonword,sidearbs,,,,,,,,,,,,,,,0,112,112,0,,,,,,,,,,,,,AMP,left,0.28364311742188875,0,,,,,,,,,,,,,,left,0,0.28364311742188875,,,,,,,,,,,1076,2019_Mar_15_1435,mf_amp_cond2,3.0.4,59.97749385009644,
freedom,&&&&&&&&&&,left,sanctity.virtue,lorthwhile,,,,,,,,,,,,,,,0,113,113,308,,,,,,,,,,,,,AMP,left,0.3503251145448303,1,,,,,,,,,,,,,,left,1,0.3503251145448303,,,,,,,,,,,1076,2019_Mar_15_1435,mf_amp_cond2,3.0.4,59.97749385009644,
friends,&&&&&&,left,loyalty.virtue,fostet,,,,,,,,,,,,,,,0,114,114,109,,,,,,,,,,,,,AMP,left,0.33368259815324564,1,,,,,,,,,,,,,,left,1,0.33368259815324564,,,,,,,,,,,1076,2019_Mar_15_1435,mf_amp_cond2,3.0.4,59.97749385009644,
allears,&&&&&&&&,None,nonword,pullness,,,,,,,,,,,,,,,0,115,115,209,,,,,,,,,,,,,AMP,left,0.3169772205001209,0,,,,,,,,,,,,,,left,0,0.3169772205001209,,,,,,,,,,,1076,2019_Mar_15_1435,mf_amp_cond2,3.0.4,59.97749385009644,
crime,&&&&&&,right,fairness.vice,letish,,,,,,,,,,,,,,,0,116,116,195,,,,,,,,,,,,,AMP,left,0.46702093472413253,0,,,,,,,,,,,,,,left,0,0.46702093472413253,,,,,,,,,,,1076,2019_Mar_15_1435,mf_amp_cond2,3.0.4,59.97749385009644,
fraud,&&&&&&&&&,right,fairness.vice,reprisols,,,,,,,,,,,,,,,0,117,117,180,,,,,,,,,,,,,AMP,left,0.4836875051696552,0,,,,,,,,,,,,,,left,0,0.4836875051696552,,,,,,,,,,,1076,2019_Mar_15_1435,mf_amp_cond2,3.0.4,59.97749385009644,
refused,&&&&&,right,authority.vice,saned,,,,,,,,,,,,,,,0,118,118,67,,,,,,,,,,,,,AMP,left,0.3669737246382283,0,,,,,,,,,,,,,,left,0,0.3669737246382283,,,,,,,,,,,1076,2019_Mar_15_1435,mf_amp_cond2,3.0.4,59.97749385009644,
useful,&&&&&,left,authority.virtue,noped,,,,,,,,,,,,,,,0,119,119,128,,,,,,,,,,,,,AMP,left,0.40034952138375957,1,,,,,,,,,,,,,,left,1,0.40034952138375957,,,,,,,,,,,1076,2019_Mar_15_1435,mf_amp_cond2,3.0.4,59.97749385009644,
racist,&&&&&&&,right,sanctity.vice,festate,,,,,,,,,,,,,,,0,120,120,118,,,,,,,,,,,,,AMP,left,0.4003431069722865,0,,,,,,,,,,,,,,left,0,0.4003431069722865,,,,,,,,,,,1076,2019_Mar_15_1435,mf_amp_cond2,3.0.4,59.97749385009644,
hand,&&&&&&&&&&&,left,sanctity.virtue,vicissifude,,,,,,,,,,,,,,,0,121,121,311,,,,,,,,,,,,,AMP,left,0.4336858695023693,1,,,,,,,,,,,,,,left,1,0.4336858695023693,,,,,,,,,,,1076,2019_Mar_15_1435,mf_amp_cond2,3.0.4,59.97749385009644,
love,&&&&&&&&&&&,left,loyalty.virtue,lempestuous,,,,,,,,,,,,,,,0,122,122,251,,,,,,,,,,,,,AMP,right,0.617051820125198,0,,,,,,,,,,,,,,right,0,0.617051820125198,,,,,,,,,,,1076,2019_Mar_15_1435,mf_amp_cond2,3.0.4,59.97749385009644,
serial,&&&&&&&&&,right,sanctity.vice,chressing,,,,,,,,,,,,,,,0,123,123,125,,,,,,,,,,,,,AMP,left,0.30031995094032027,0,,,,,,,,,,,,,,left,0,0.30031995094032027,,,,,,,,,,,1076,2019_Mar_15_1435,mf_amp_cond2,3.0.4,59.97749385009644,
rejected,&&&,right,authority.vice,asn,,,,,,,,,,,,,,,0,124,124,133,,,,,,,,,,,,,AMP,left,0.4336817001167219,0,,,,,,,,,,,,,,left,0,0.4336817001167219,,,,,,,,,,,1076,2019_Mar_15_1435,mf_amp_cond2,3.0.4,59.97749385009644,
promised,&&&&&&&,left,loyalty.virtue,troubla,,,,,,,,,,,,,,,0,125,125,294,,,,,,,,,,,,,AMP,left,0.3336444323940668,1,,,,,,,,,,,,,,left,1,0.3336444323940668,,,,,,,,,,,1076,2019_Mar_15_1435,mf_amp_cond2,3.0.4,59.97749385009644,
intelligence,&&&&&&,left,loyalty.virtue,pumber,,,,,,,,,,,,,,,0,126,126,281,,,,,,,,,,,,,AMP,left,0.4003376547188964,1,,,,,,,,,,,,,,left,1,0.4003376547188964,,,,,,,,,,,1076,2019_Mar_15_1435,mf_amp_cond2,3.0.4,59.97749385009644,
party,&&&&&&&&,left,loyalty.virtue,dormandi,,,,,,,,,,,,,,,0,127,127,10,,,,,,,,,,,,,AMP,left,0.350324473096407,1,,,,,,,,,,,,,,left,1,0.350324473096407,,,,,,,,,,,1076,2019_Mar_15_1435,mf_amp_cond2,3.0.4,59.97749385009644,
racist,&&&&&&&&&,right,sanctity.vice,godlaness,,,,,,,,,,,,,,,0,128,128,66,,,,,,,,,,,,,AMP,left,0.20028621112578548,0,,,,,,,,,,,,,,left,0,0.20028621112578548,,,,,,,,,,,1076,2019_Mar_15_1435,mf_amp_cond2,3.0.4,59.97749385009644,
protesters,&&&&&&&&&&&&,right,authority.vice,edancipation,,,,,,,,,,,,,,,0,129,129,228,,,,,,,,,,,,,AMP,left,0.31698331418738235,0,,,,,,,,,,,,,,left,0,0.31698331418738235,,,,,,,,,,,1076,2019_Mar_15_1435,mf_amp_cond2,3.0.4,59.97749385009644,
illegal,&&&&&&&&,right,fairness.vice,gowlands,,,,,,,,,,,,,,,0,130,130,304,,,,,,,,,,,,,AMP,left,0.38369128968042787,0,,,,,,,,,,,,,,left,0,0.38369128968042787,,,,,,,,,,,1076,2019_Mar_15_1435,mf_amp_cond2,3.0.4,59.97749385009644,
intelligence,&&&&&&&,left,loyalty.virtue,Daptist,,,,,,,,,,,,,,,0,131,131,42,,,,,,,,,,,,,AMP,left,0.3836669149022782,1,,,,,,,,,,,,,,left,1,0.3836669149022782,,,,,,,,,,,1076,2019_Mar_15_1435,mf_amp_cond2,3.0.4,59.97749385009644,
fair,&&&&&&,left,fairness.virtue,fostet,,,,,,,,,,,,,,,0,132,132,34,,,,,,,,,,,,,AMP,left,0.5337138363247504,1,,,,,,,,,,,,,,left,1,0.5337138363247504,,,,,,,,,,,1076,2019_Mar_15_1435,mf_amp_cond2,3.0.4,59.97749385009644,
failure,&&&&&&&&&&,right,loyalty.vice,gationwide,,,,,,,,,,,,,,,0,133,133,197,,,,,,,,,,,,,AMP,left,0.48368814661807846,0,,,,,,,,,,,,,,left,0,0.48368814661807846,,,,,,,,,,,1076,2019_Mar_15_1435,mf_amp_cond2,3.0.4,59.97749385009644,
corruption,&&&&&&&&&&,right,sanctity.vice,reelectiob,,,,,,,,,,,,,,,0,134,134,218,,,,,,,,,,,,,AMP,left,0.30017177798436023,0,,,,,,,,,,,,,,left,0,0.30017177798436023,,,,,,,,,,,1076,2019_Mar_15_1435,mf_amp_cond2,3.0.4,59.97749385009644,
respect,&&&&&&&&,left,sanctity.virtue,suggists,,,,,,,,,,,,,,,0,135,135,312,,,,,,,,,,,,,AMP,left,0.2669399848236935,1,,,,,,,,,,,,,,left,1,0.2669399848236935,,,,,,,,,,,1076,2019_Mar_15_1435,mf_amp_cond2,3.0.4,59.97749385009644,
chreams,&&&&&&&,None,nonword,reviked,,,,,,,,,,,,,,,0,136,136,120,,,,,,,,,,,,,AMP,left,0.3669984201405896,0,,,,,,,,,,,,,,left,0,0.3669984201405896,,,,,,,,,,,1076,2019_Mar_15_1435,mf_amp_cond2,3.0.4,59.97749385009644,
injured,&&&&&&&&&,right,care.vice,Phintoism,,,,,,,,,,,,,,,0,137,137,261,,,,,,,,,,,,,AMP,left,0.283644721028395,0,,,,,,,,,,,,,,left,0,0.283644721028395,,,,,,,,,,,1076,2019_Mar_15_1435,mf_amp_cond2,3.0.4,59.97749385009644,
men,&&&&&&&&&&&,right,loyalty.vice,blunderints,,,,,,,,,,,,,,,0,138,138,91,,,,,,,,,,,,,AMP,left,0.3170067267928971,0,,,,,,,,,,,,,,left,0,0.3170067267928971,,,,,,,,,,,1076,2019_Mar_15_1435,mf_amp_cond2,3.0.4,59.97749385009644,
gun,&&&&&&&&&&,right,authority.vice,lorthwhile,,,,,,,,,,,,,,,0,139,139,170,,,,,,,,,,,,,AMP,left,0.2836395894992165,0,,,,,,,,,,,,,,left,0,0.2836395894992165,,,,,,,,,,,1076,2019_Mar_15_1435,mf_amp_cond2,3.0.4,59.97749385009644,
hate,&&&&&&&&,right,fairness.vice,gournful,,,,,,,,,,,,,,,0,140,140,93,,,,,,,,,,,,,AMP,left,0.3502776478853775,0,,,,,,,,,,,,,,left,0,0.3502776478853775,,,,,,,,,,,1076,2019_Mar_15_1435,mf_amp_cond2,3.0.4,59.97749385009644,
fair,&&&&&,left,fairness.virtue,saned,,,,,,,,,,,,,,,0,141,141,313,,,,,,,,,,,,,AMP,left,0.7170980680384673,1,,,,,,,,,,,,,,left,1,0.7170980680384673,,,,,,,,,,,1076,2019_Mar_15_1435,mf_amp_cond2,3.0.4,59.97749385009644,
harassment,&&&&&&&&,right,sanctity.vice,fontacts,,,,,,,,,,,,,,,0,142,142,24,,,,,,,,,,,,,AMP,left,0.4168663152959198,0,,,,,,,,,,,,,,left,0,0.4168663152959198,,,,,,,,,,,1076,2019_Mar_15_1435,mf_amp_cond2,3.0.4,59.97749385009644,
pleasant,&&&&&&&&,None,control,lachelor,,,,,,,,,,,,,,,0,143,143,105,,,,,,,,,,,,,AMP,left,0.3336575819266727,0,,,,,,,,,,,,,,left,0,0.3336575819266727,,,,,,,,,,,1076,2019_Mar_15_1435,mf_amp_cond2,3.0.4,59.97749385009644,
victim,&&&,right,care.vice,asn,,,,,,,,,,,,,,,0,144,144,79,,,,,,,,,,,,,AMP,left,0.6837447217403678,0,,,,,,,,,,,,,,left,0,0.6837447217403678,,,,,,,,,,,1076,2019_Mar_15_1435,mf_amp_cond2,3.0.4,59.97749385009644,
hefurbished,&&&&&&&&&&,None,nonword,abointment,,,,,,,,,,,,,,,0,145,145,115,,,,,,,,,,,,,AMP,right,0.3003212338226149,0,,,,,,,,,,,,,,right,0,0.3003212338226149,,,,,,,,,,,1076,2019_Mar_15_1435,mf_amp_cond2,3.0.4,59.97749385009644,
black,&&&&&&&&&&&&,right,loyalty.vice,unreflectuve,,,,,,,,,,,,,,,0,146,146,138,,,,,,,,,,,,,AMP,right,0.20014733908465132,1,,,,,,,,,,,,,,right,1,0.20014733908465132,,,,,,,,,,,1076,2019_Mar_15_1435,mf_amp_cond2,3.0.4,59.97749385009644,
army,&&&&&&,right,loyalty.vice,pumber,,,,,,,,,,,,,,,0,147,147,245,,,,,,,,,,,,,AMP,left,0.33365245041204616,0,,,,,,,,,,,,,,left,0,0.33365245041204616,,,,,,,,,,,1076,2019_Mar_15_1435,mf_amp_cond2,3.0.4,59.97749385009644,
shot,&&&&&,right,care.vice,saned,,,,,,,,,,,,,,,0,148,148,181,,,,,,,,,,,,,AMP,left,0.2836434381606523,0,,,,,,,,,,,,,,left,0,0.2836434381606523,,,,,,,,,,,1076,2019_Mar_15_1435,mf_amp_cond2,3.0.4,59.97749385009644,
forced,&&&,right,fairness.vice,oam,,,,,,,,,,,,,,,0,149,149,92,,,,,,,,,,,,,AMP,left,0.3670038723794278,0,,,,,,,,,,,,,,left,0,0.3670038723794278,,,,,,,,,,,1076,2019_Mar_15_1435,mf_amp_cond2,3.0.4,59.97749385009644,
growth,&&&&&&&&&&,left,care.virtue,abointment,,,,,,,,,,,,,,,0,150,150,223,,,,,,,,,,,,,AMP,left,0.3003167437418597,1,,,,,,,,,,,,,,left,1,0.3003167437418597,,,,,,,,,,,1076,2019_Mar_15_1435,mf_amp_cond2,3.0.4,59.97749385009644,
rejected,&&&,right,authority.vice,asn,,,,,,,,,,,,,,,0,151,151,271,,,,,,,,,,,,,AMP,left,0.41700069725629874,0,,,,,,,,,,,,,,left,0,0.41700069725629874,,,,,,,,,,,1076,2019_Mar_15_1435,mf_amp_cond2,3.0.4,59.97749385009644,
promised,&&&&&&&&&&&,left,loyalty.virtue,precificity,,,,,,,,,,,,,,,0,152,152,27,,,,,,,,,,,,,AMP,right,0.6503900925599737,0,,,,,,,,,,,,,,right,0,0.6503900925599737,,,,,,,,,,,1076,2019_Mar_15_1435,mf_amp_cond2,3.0.4,59.97749385009644,
rejected,&&&&&&,right,authority.vice,Cunday,,,,,,,,,,,,,,,0,153,153,23,,,,,,,,,,,,,AMP,left,0.5003540756151779,0,,,,,,,,,,,,,,left,0,0.5003540756151779,,,,,,,,,,,1076,2019_Mar_15_1435,mf_amp_cond2,3.0.4,59.97749385009644,
unpleasant,&&&&&&,None,control,letish,,,,,,,,,,,,,,,0,154,154,71,,,,,,,,,,,,,AMP,left,0.4003520871483488,0,,,,,,,,,,,,,,left,0,0.4003520871483488,,,,,,,,,,,1076,2019_Mar_15_1435,mf_amp_cond2,3.0.4,59.97749385009644,
terrorists,&&&,right,fairness.vice,oam,,,,,,,,,,,,,,,0,155,155,182,,,,,,,,,,,,,AMP,left,0.333658223375096,0,,,,,,,,,,,,,,left,0,0.333658223375096,,,,,,,,,,,1076,2019_Mar_15_1435,mf_amp_cond2,3.0.4,59.97749385009644,
compassion,&&&&&&&,left,care.virtue,Daptist,,,,,,,,,,,,,,,0,156,156,287,,,,,,,,,,,,,AMP,left,0.4503877192182699,1,,,,,,,,,,,,,,left,1,0.4503877192182699,,,,,,,,,,,1076,2019_Mar_15_1435,mf_amp_cond2,3.0.4,59.97749385009644,
energy,&&&&&&&,left,sanctity.virtue,pharing,,,,,,,,,,,,,,,0,157,157,211,,,,,,,,,,,,,AMP,right,0.3336505260813283,0,,,,,,,,,,,,,,right,0,0.3336505260813283,,,,,,,,,,,1076,2019_Mar_15_1435,mf_amp_cond2,3.0.4,59.97749385009644,
scalbel,&&&&&&&&&,None,nonword,pescinded,,,,,,,,,,,,,,,0,158,158,62,,,,,,,,,,,,,AMP,left,0.31698203130508773,0,,,,,,,,,,,,,,left,0,0.31698203130508773,,,,,,,,,,,1076,2019_Mar_15_1435,mf_amp_cond2,3.0.4,59.97749385009644,
attacks,&&&&&&,right,care.vice,strofe,,,,,,,,,,,,,,,0,159,159,298,,,,,,,,,,,,,AMP,left,0.4836916745407507,0,,,,,,,,,,,,,,left,0,0.4836916745407507,,,,,,,,,,,1076,2019_Mar_15_1435,mf_amp_cond2,3.0.4,59.97749385009644,
hefurbished,&&&&&&&&&&&&,None,nonword,iptervention,,,,,,,,,,,,,,,0,160,160,295,,,,,,,,,,,,,AMP,left,0.7170932572335005,0,,,,,,,,,,,,,,left,0,0.7170932572335005,,,,,,,,,,,1076,2019_Mar_15_1435,mf_amp_cond2,3.0.4,59.97749385009644,
drug,&&&&&&&&&,right,sanctity.vice,reprisols,,,,,,,,,,,,,,,0,161,161,145,,,,,,,,,,,,,AMP,right,0.6336770176130813,1,,,,,,,,,,,,,,right,1,0.6336770176130813,,,,,,,,,,,1076,2019_Mar_15_1435,mf_amp_cond2,3.0.4,59.97749385009644,
values,&&&,left,sanctity.virtue,asn,,,,,,,,,,,,,,,0,162,162,177,,,,,,,,,,,,,AMP,left,0.30031738517573103,1,,,,,,,,,,,,,,left,1,0.30031738517573103,,,,,,,,,,,1076,2019_Mar_15_1435,mf_amp_cond2,3.0.4,59.97749385009644,
betrayal,&&&&&&&&&&,right,loyalty.vice,imebreaker,,,,,,,,,,,,,,,0,163,163,303,,,,,,,,,,,,,AMP,right,0.3835254770820029,1,,,,,,,,,,,,,,right,1,0.3835254770820029,,,,,,,,,,,1076,2019_Mar_15_1435,mf_amp_cond2,3.0.4,59.97749385009644,
attacks,&&&&&&&&&&,right,care.vice,ammessment,,,,,,,,,,,,,,,0,164,164,4,,,,,,,,,,,,,AMP,right,0.40034567275142763,1,,,,,,,,,,,,,,right,1,0.40034567275142763,,,,,,,,,,,1076,2019_Mar_15_1435,mf_amp_cond2,3.0.4,59.97749385009644,
party,&&&&&&&&,left,loyalty.virtue,bluently,,,,,,,,,,,,,,,0,165,165,278,,,,,,,,,,,,,AMP,right,0.4336877938185353,0,,,,,,,,,,,,,,right,0,0.4336877938185353,,,,,,,,,,,1076,2019_Mar_15_1435,mf_amp_cond2,3.0.4,59.97749385009644,
victims,&&&&&&&&&&,right,care.vice,simplustic,,,,,,,,,,,,,,,0,166,166,21,,,,,,,,,,,,,AMP,right,0.4836887880519498,1,,,,,,,,,,,,,,right,1,0.4836887880519498,,,,,,,,,,,1076,2019_Mar_15_1435,mf_amp_cond2,3.0.4,59.97749385009644,
win,&&&&&,left,fairness.virtue,mecan,,,,,,,,,,,,,,,0,167,167,59,,,,,,,,,,,,,AMP,left,0.25029522337717935,1,,,,,,,,,,,,,,left,1,0.25029522337717935,,,,,,,,,,,1076,2019_Mar_15_1435,mf_amp_cond2,3.0.4,59.97749385009644,
frojecting,&&&&&&&&&&,None,nonword,elduringly,,,,,,,,,,,,,,,0,168,168,255,,,,,,,,,,,,,AMP,left,0.6337565563444514,0,,,,,,,,,,,,,,left,0,0.6337565563444514,,,,,,,,,,,1076,2019_Mar_15_1435,mf_amp_cond2,3.0.4,59.97749385009644,
increase,&&&&&&&&&&&&,left,care.virtue,unreflectuve,,,,,,,,,,,,,,,0,169,169,18,,,,,,,,,,,,,AMP,right,0.7004109714616789,0,,,,,,,,,,,,,,right,0,0.7004109714616789,,,,,,,,,,,1076,2019_Mar_15_1435,mf_amp_cond2,3.0.4,59.97749385009644,
refused,&&&&&&&&&&,right,authority.vice,honstables,,,,,,,,,,,,,,,0,170,170,111,,,,,,,,,,,,,AMP,left,0.35032158662215807,0,,,,,,,,,,,,,,left,0,0.35032158662215807,,,,,,,,,,,1076,2019_Mar_15_1435,mf_amp_cond2,3.0.4,59.97749385009644,
gun,&&&&&&&&,right,authority.vice,hescribe,,,,,,,,,,,,,,,0,171,171,276,,,,,,,,,,,,,AMP,left,0.4836952024779748,0,,,,,,,,,,,,,,left,0,0.4836952024779748,,,,,,,,,,,1076,2019_Mar_15_1435,mf_amp_cond2,3.0.4,59.97749385009644,
hand,&&&&&&&&,left,sanctity.virtue,thabbily,,,,,,,,,,,,,,,0,172,172,52,,,,,,,,,,,,,AMP,left,0.3336790702160215,1,,,,,,,,,,,,,,left,1,0.3336790702160215,,,,,,,,,,,1076,2019_Mar_15_1435,mf_amp_cond2,3.0.4,59.97749385009644,
friends,&&&&&&&&,left,loyalty.virtue,hescribe,,,,,,,,,,,,,,,0,173,173,227,,,,,,,,,,,,,AMP,left,0.4837105970509583,1,,,,,,,,,,,,,,left,1,0.4837105970509583,,,,,,,,,,,1076,2019_Mar_15_1435,mf_amp_cond2,3.0.4,59.97749385009644,
perfect,&&&&&&&&&&&,left,sanctity.virtue,precificity,,,,,,,,,,,,,,,0,174,174,155,,,,,,,,,,,,,AMP,right,0.31698235202929936,0,,,,,,,,,,,,,,right,0,0.31698235202929936,,,,,,,,,,,1076,2019_Mar_15_1435,mf_amp_cond2,3.0.4,59.97749385009644,
officers,&&&&&&&&&&&&,right,authority.vice,iptervention,,,,,,,,,,,,,,,0,175,175,55,,,,,,,,,,,,,AMP,left,0.4003488799498882,0,,,,,,,,,,,,,,left,0,0.4003488799498882,,,,,,,,,,,1076,2019_Mar_15_1435,mf_amp_cond2,3.0.4,59.97749385009644,
health,&&&&&&&&&&&,left,care.virtue,nomparisons,,,,,,,,,,,,,,,0,176,176,318,,,,,,,,,,,,,AMP,right,0.4503636651788838,0,,,,,,,,,,,,,,right,0,0.4503636651788838,,,,,,,,,,,1076,2019_Mar_15_1435,mf_amp_cond2,3.0.4,59.97749385009644,
harassment,&&&&&&,right,sanctity.vice,openet,,,,,,,,,,,,,,,0,177,177,272,,,,,,,,,,,,,AMP,left,0.4503450633783359,0,,,,,,,,,,,,,,left,0,0.4503450633783359,,,,,,,,,,,1076,2019_Mar_15_1435,mf_amp_cond2,3.0.4,59.97749385009644,
peaceful,&&&&&&&&&,left,authority.virtue,pescinded,,,,,,,,,,,,,,,0,178,178,142,,,,,,,,,,,,,AMP,right,0.5503409581433516,0,,,,,,,,,,,,,,right,0,0.5503409581433516,,,,,,,,,,,1076,2019_Mar_15_1435,mf_amp_cond2,3.0.4,59.97749385009644,
troops,&&&&&&&,right,loyalty.vice,pharing,,,,,,,,,,,,,,,0,179,179,284,,,,,,,,,,,,,AMP,left,0.2503000341966981,0,,,,,,,,,,,,,,left,0,0.2503000341966981,,,,,,,,,,,1076,2019_Mar_15_1435,mf_amp_cond2,3.0.4,59.97749385009644,
sexual,&&&&&&&&&&,right,sanctity.vice,gationwide,,,,,,,,,,,,,,,0,180,180,14,,,,,,,,,,,,,AMP,left,0.50038165760634,0,,,,,,,,,,,,,,left,0,0.50038165760634,,,,,,,,,,,1076,2019_Mar_15_1435,mf_amp_cond2,3.0.4,59.97749385009644,
baklara,&&&&&&,None,nonword,bycled,,,,,,,,,,,,,,,0,181,181,1,,,,,,,,,,,,,AMP,left,0.5003608107508626,0,,,,,,,,,,,,,,left,0,0.5003608107508626,,,,,,,,,,,1076,2019_Mar_15_1435,mf_amp_cond2,3.0.4,59.97749385009644,
cromiscuity,&&&&&&&&,None,nonword,lachelor,,,,,,,,,,,,,,,0,182,182,283,,,,,,,,,,,,,AMP,left,0.4835887232038658,0,,,,,,,,,,,,,,left,0,0.4835887232038658,,,,,,,,,,,1076,2019_Mar_15_1435,mf_amp_cond2,3.0.4,59.97749385009644,
died,&&&&&&,right,care.vice,erdest,,,,,,,,,,,,,,,0,183,183,264,,,,,,,,,,,,,AMP,left,0.40034278626262676,0,,,,,,,,,,,,,,left,0,0.40034278626262676,,,,,,,,,,,1076,2019_Mar_15_1435,mf_amp_cond2,3.0.4,59.97749385009644,
failure,&&&&&&&&&&&&,right,loyalty.vice,nonobservalt,,,,,,,,,,,,,,,0,184,184,81,,,,,,,,,,,,,AMP,left,0.31698459706967697,0,,,,,,,,,,,,,,left,0,0.31698459706967697,,,,,,,,,,,1076,2019_Mar_15_1435,mf_amp_cond2,3.0.4,59.97749385009644,
protesters,&&&&&&&,right,authority.vice,nomaric,,,,,,,,,,,,,,,0,185,185,259,,,,,,,,,,,,,AMP,right,0.36700034445675556,1,,,,,,,,,,,,,,right,1,0.36700034445675556,,,,,,,,,,,1076,2019_Mar_15_1435,mf_amp_cond2,3.0.4,59.97749385009644,
compassion,&&&&&,left,care.virtue,mecan,,,,,,,,,,,,,,,0,186,186,200,,,,,,,,,,,,,AMP,left,0.4503492327348795,1,,,,,,,,,,,,,,left,1,0.4503492327348795,,,,,,,,,,,1076,2019_Mar_15_1435,mf_amp_cond2,3.0.4,59.97749385009644,
honored,&&&&&&&&&&,left,authority.virtue,reelectiob,,,,,,,,,,,,,,,0,187,187,253,,,,,,,,,,,,,AMP,left,0.2503003549063578,1,,,,,,,,,,,,,,left,1,0.2503003549063578,,,,,,,,,,,1076,2019_Mar_15_1435,mf_amp_cond2,3.0.4,59.97749385009644,
progress,&&&&&&&,left,authority.virtue,emports,,,,,,,,,,,,,,,0,188,188,102,,,,,,,,,,,,,AMP,left,0.21695695095695555,1,,,,,,,,,,,,,,left,1,0.21695695095695555,,,,,,,,,,,1076,2019_Mar_15_1435,mf_amp_cond2,3.0.4,59.97749385009644,
corruption,&&&&&&,right,sanctity.vice,bycled,,,,,,,,,,,,,,,0,189,189,315,,,,,,,,,,,,,AMP,left,0.26697173617139924,0,,,,,,,,,,,,,,left,0,0.26697173617139924,,,,,,,,,,,1076,2019_Mar_15_1435,mf_amp_cond2,3.0.4,59.97749385009644,
racist,&&&&&&&,right,sanctity.vice,reviked,,,,,,,,,,,,,,,0,190,190,288,,,,,,,,,,,,,AMP,left,0.41702603417797945,0,,,,,,,,,,,,,,left,0,0.41702603417797945,,,,,,,,,,,1076,2019_Mar_15_1435,mf_amp_cond2,3.0.4,59.97749385009644,
illegal,&&&&&&&&&&,right,fairness.vice,ecgagement,,,,,,,,,,,,,,,0,191,191,70,,,,,,,,,,,,,AMP,left,0.517058170386008,0,,,,,,,,,,,,,,left,0,0.517058170386008,,,,,,,,,,,1076,2019_Mar_15_1435,mf_amp_cond2,3.0.4,59.97749385009644,
officers,&&&&&,right,authority.vice,tabin,,,,,,,,,,,,,,,0,192,192,130,,,,,,,,,,,,,AMP,left,1.9840643519710284,0,,,,,,,,,,,,,,left,0,1.9840643519710284,,,,,,,,,,,1076,2019_Mar_15_1435,mf_amp_cond2,3.0.4,59.97749385009644,
agreement,&&&&&&&,left,fairness.virtue,emports,,,,,,,,,,,,,,,0,193,193,293,,,,,,,,,,,,,AMP,right,0.800469406764023,0,,,,,,,,,,,,,,right,0,0.800469406764023,,,,,,,,,,,1076,2019_Mar_15_1435,mf_amp_cond2,3.0.4,59.97749385009644,
gun,&&&&&&,right,authority.vice,erdest,,,,,,,,,,,,,,,0,194,194,96,,,,,,,,,,,,,AMP,left,0.383662424821523,0,,,,,,,,,,,,,,left,0,0.383662424821523,,,,,,,,,,,1076,2019_Mar_15_1435,mf_amp_cond2,3.0.4,59.97749385009644,
drug,&&&&&&&&&&,right,sanctity.vice,ammessment,,,,,,,,,,,,,,,0,195,195,172,,,,,,,,,,,,,AMP,right,0.38366274554573465,1,,,,,,,,,,,,,,right,1,0.38366274554573465,,,,,,,,,,,1076,2019_Mar_15_1435,mf_amp_cond2,3.0.4,59.97749385009644,
benefit,&&&&&&&&&,left,fairness.virtue,discovars,,,,,,,,,,,,,,,0,196,196,321,,,,,,,,,,,,,AMP,left,2.134106141864322,1,,,,,,,,,,,,,,left,1,2.134106141864322,,,,,,,,,,,1076,2019_Mar_15_1435,mf_amp_cond2,3.0.4,59.97749385009644,
violence,&&&&&&&&&,right,care.vice,crilfully,,,,,,,,,,,,,,,0,197,197,32,,,,,,,,,,,,,AMP,left,0.6170627246319782,0,,,,,,,,,,,,,,left,0,0.6170627246319782,,,,,,,,,,,1076,2019_Mar_15_1435,mf_amp_cond2,3.0.4,59.97749385009644,
strength,&&&&&&&&&,left,sanctity.virtue,refuejing,,,,,,,,,,,,,,,0,198,198,273,,,,,,,,,,,,,AMP,left,0.45035628859477583,1,,,,,,,,,,,,,,left,1,0.45035628859477583,,,,,,,,,,,1076,2019_Mar_15_1435,mf_amp_cond2,3.0.4,59.97749385009644,
energy,&&&&&&&&,left,sanctity.virtue,gowlands,,,,,,,,,,,,,,,0,199,199,73,,,,,,,,,,,,,AMP,left,0.4003344475204358,1,,,,,,,,,,,,,,left,1,0.4003344475204358,,,,,,,,,,,1076,2019_Mar_15_1435,mf_amp_cond2,3.0.4,59.97749385009644,
increase,&&&&&&&&&&,left,care.virtue,abointment,,,,,,,,,,,,,,,0,200,200,306,,,,,,,,,,,,,AMP,right,0.48368590156314895,0,,,,,,,,,,,,,,right,0,0.48368590156314895,,,,,,,,,,,1076,2019_Mar_15_1435,mf_amp_cond2,3.0.4,59.97749385009644,
party,&&&&&&&&&,left,loyalty.virtue,discovars,,,,,,,,,,,,,,,0,201,201,82,,,,,,,,,,,,,AMP,left,0.5003646594122984,1,,,,,,,,,,,,,,left,1,0.5003646594122984,,,,,,,,,,,1076,2019_Mar_15_1435,mf_amp_cond2,3.0.4,59.97749385009644,
black,&&&&&&&&,right,loyalty.vice,bluently,,,,,,,,,,,,,,,0,202,202,75,,,,,,,,,,,,,AMP,left,0.4837221430061618,0,,,,,,,,,,,,,,left,0,0.4837221430061618,,,,,,,,,,,1076,2019_Mar_15_1435,mf_amp_cond2,3.0.4,59.97749385009644,
threatened,&&&&&&&&&&&&,right,fairness.vice,nonobservalt,,,,,,,,,,,,,,,0,203,203,153,,,,,,,,,,,,,AMP,left,0.48369007093424443,0,,,,,,,,,,,,,,left,0,0.48369007093424443,,,,,,,,,,,1076,2019_Mar_15_1435,mf_amp_cond2,3.0.4,59.97749385009644,
betrayal,&&&&&&&&&&,right,loyalty.vice,clattening,,,,,,,,,,,,,,,0,204,204,121,,,,,,,,,,,,,AMP,left,0.45029438950587064,0,,,,,,,,,,,,,,left,0,0.45029438950587064,,,,,,,,,,,1076,2019_Mar_15_1435,mf_amp_cond2,3.0.4,59.97749385009644,
promises,&&&&&&&&,left,fairness.virtue,bluently,,,,,,,,,,,,,,,0,205,205,84,,,,,,,,,,,,,AMP,left,0.8004370139824459,1,,,,,,,,,,,,,,left,1,0.8004370139824459,,,,,,,,,,,1076,2019_Mar_15_1435,mf_amp_cond2,3.0.4,59.97749385009644,
attacks,&&&&&,right,care.vice,uller,,,,,,,,,,,,,,,0,206,206,206,,,,,,,,,,,,,AMP,left,0.3836659527296433,0,,,,,,,,,,,,,,left,0,0.3836659527296433,,,,,,,,,,,1076,2019_Mar_15_1435,mf_amp_cond2,3.0.4,59.97749385009644,
blamed,&&&&&&&&&&&,right,loyalty.vice,blunderints,,,,,,,,,,,,,,,0,207,207,201,,,,,,,,,,,,,AMP,left,0.183582437079167,0,,,,,,,,,,,,,,left,0,0.183582437079167,,,,,,,,,,,1076,2019_Mar_15_1435,mf_amp_cond2,3.0.4,59.97749385009644,
support,&&&&&,left,loyalty.virtue,lenon,,,,,,,,,,,,,,,0,208,208,114,,,,,,,,,,,,,AMP,left,0.3003379112924449,1,,,,,,,,,,,,,,left,1,0.3003379112924449,,,,,,,,,,,1076,2019_Mar_15_1435,mf_amp_cond2,3.0.4,59.97749385009644,
died,&&&&&&&&&&&,right,care.vice,vicissifude,,,,,,,,,,,,,,,0,209,209,216,,,,,,,,,,,,,AMP,left,0.38368038515909575,0,,,,,,,,,,,,,,left,0,0.38368038515909575,,,,,,,,,,,1076,2019_Mar_15_1435,mf_amp_cond2,3.0.4,59.97749385009644,
failure,&&&&&&&&&&&&,right,loyalty.vice,iptervention,,,,,,,,,,,,,,,0,210,210,123,,,,,,,,,,,,,AMP,left,0.3503177379752742,0,,,,,,,,,,,,,,left,0,0.3503177379752742,,,,,,,,,,,1076,2019_Mar_15_1435,mf_amp_cond2,3.0.4,59.97749385009644,
victim,&&&&&&&,right,care.vice,Daptist,,,,,,,,,,,,,,,0,211,211,168,,,,,,,,,,,,,AMP,left,0.4170154503954109,0,,,,,,,,,,,,,,left,0,0.4170154503954109,,,,,,,,,,,1076,2019_Mar_15_1435,mf_amp_cond2,3.0.4,59.97749385009644,
officers,&&&&&&&&&&,right,authority.vice,ammessment,,,,,,,,,,,,,,,0,212,212,310,,,,,,,,,,,,,AMP,right,0.4670305563486181,1,,,,,,,,,,,,,,right,1,0.4670305563486181,,,,,,,,,,,1076,2019_Mar_15_1435,mf_amp_cond2,3.0.4,59.97749385009644,
fraud,&&&&&&&&&&&,right,fairness.vice,shoirmaster,,,,,,,,,,,,,,,0,213,213,76,,,,,,,,,,,,,AMP,left,0.2836347786796978,0,,,,,,,,,,,,,,left,0,0.2836347786796978,,,,,,,,,,,1076,2019_Mar_15_1435,mf_amp_cond2,3.0.4,59.97749385009644,
died,&&&&&&&&&,right,care.vice,godlaness,,,,,,,,,,,,,,,0,214,214,154,,,,,,,,,,,,,AMP,left,0.26698135779588483,0,,,,,,,,,,,,,,left,0,0.26698135779588483,,,,,,,,,,,1076,2019_Mar_15_1435,mf_amp_cond2,3.0.4,59.97749385009644,
drug,&&&&&&&&,right,sanctity.vice,hescribe,,,,,,,,,,,,,,,0,215,215,65,,,,,,,,,,,,,AMP,left,0.383664349137689,0,,,,,,,,,,,,,,left,0,0.383664349137689,,,,,,,,,,,1076,2019_Mar_15_1435,mf_amp_cond2,3.0.4,59.97749385009644,
atson,&&&&&&,None,nonword,Cunday,,,,,,,,,,,,,,,0,216,216,190,,,,,,,,,,,,,AMP,left,0.21695823383925017,0,,,,,,,,,,,,,,left,0,0.21695823383925017,,,,,,,,,,,1076,2019_Mar_15_1435,mf_amp_cond2,3.0.4,59.97749385009644,
victims,&&&&&&&&&,right,care.vice,chressing,,,,,,,,,,,,,,,0,217,217,290,,,,,,,,,,,,,AMP,left,0.28363991022342816,0,,,,,,,,,,,,,,left,0,0.28363991022342816,,,,,,,,,,,1076,2019_Mar_15_1435,mf_amp_cond2,3.0.4,59.97749385009644,
violence,&&&&&&&&,right,care.vice,suggists,,,,,,,,,,,,,,,0,218,218,235,,,,,,,,,,,,,AMP,left,0.4836910330923274,0,,,,,,,,,,,,,,left,0,0.4836910330923274,,,,,,,,,,,1076,2019_Mar_15_1435,mf_amp_cond2,3.0.4,59.97749385009644,
serial,&&&&&&&&&&&&&,right,sanctity.vice,esquisiteness,,,,,,,,,,,,,,,0,219,219,238,,,,,,,,,,,,,AMP,right,0.38365953833272215,1,,,,,,,,,,,,,,right,1,0.38365953833272215,,,,,,,,,,,1076,2019_Mar_15_1435,mf_amp_cond2,3.0.4,59.97749385009644,
help,&&&&&&&&&,left,care.virtue,refuejing,,,,,,,,,,,,,,,0,220,220,143,,,,,,,,,,,,,AMP,left,0.30031000859162305,1,,,,,,,,,,,,,,left,1,0.30031000859162305,,,,,,,,,,,1076,2019_Mar_15_1435,mf_amp_cond2,3.0.4,59.97749385009644,
hand,&&&&&&&&,left,sanctity.virtue,thadowed,,,,,,,,,,,,,,,0,221,221,136,,,,,,,,,,,,,AMP,left,0.5170347577804932,1,,,,,,,,,,,,,,left,1,0.5170347577804932,,,,,,,,,,,1076,2019_Mar_15_1435,mf_amp_cond2,3.0.4,59.97749385009644,
victims,&&&&&&&&&,right,care.vice,Phintoism,,,,,,,,,,,,,,,0,222,222,166,,,,,,,,,,,,,AMP,left,0.3336604684154736,0,,,,,,,,,,,,,,left,0,0.3336604684154736,,,,,,,,,,,1076,2019_Mar_15_1435,mf_amp_cond2,3.0.4,59.97749385009644,
rejected,&&&&&&&&&&&&,right,authority.vice,unreflectuve,,,,,,,,,,,,,,,0,223,223,176,,,,,,,,,,,,,AMP,right,0.43369388750579674,1,,,,,,,,,,,,,,right,1,0.43369388750579674,,,,,,,,,,,1076,2019_Mar_15_1435,mf_amp_cond2,3.0.4,59.97749385009644,
refused,&&&&&&,right,authority.vice,Boeinf,,,,,,,,,,,,,,,0,224,224,196,,,,,,,,,,,,,AMP,left,0.2503340305702295,0,,,,,,,,,,,,,,left,0,0.2503340305702295,,,,,,,,,,,1076,2019_Mar_15_1435,mf_amp_cond2,3.0.4,59.97749385009644,
freedom,&&&&&&&&,left,sanctity.virtue,tracious,,,,,,,,,,,,,,,0,225,225,47,,,,,,,,,,,,,AMP,right,0.33366014770581387,0,,,,,,,,,,,,,,right,0,0.33366014770581387,,,,,,,,,,,1076,2019_Mar_15_1435,mf_amp_cond2,3.0.4,59.97749385009644,
strength,&&&&&,left,sanctity.virtue,uller,,,,,,,,,,,,,,,0,226,226,140,,,,,,,,,,,,,AMP,left,0.3670269642607309,1,,,,,,,,,,,,,,left,1,0.3670269642607309,,,,,,,,,,,1076,2019_Mar_15_1435,mf_amp_cond2,3.0.4,59.97749385009644,
growth,&&&&&&,left,care.virtue,prones,,,,,,,,,,,,,,,0,227,227,29,,,,,,,,,,,,,AMP,right,0.4503485913010081,0,,,,,,,,,,,,,,right,0,0.4503485913010081,,,,,,,,,,,1076,2019_Mar_15_1435,mf_amp_cond2,3.0.4,59.97749385009644,
respect,&&&&&&&&&&,left,sanctity.virtue,elduringly,,,,,,,,,,,,,,,0,228,228,25,,,,,,,,,,,,,AMP,left,0.7671054766979069,1,,,,,,,,,,,,,,left,1,0.7671054766979069,,,,,,,,,,,1076,2019_Mar_15_1435,mf_amp_cond2,3.0.4,59.97749385009644,
energy,&&&&&&,left,sanctity.virtue,openet,,,,,,,,,,,,,,,0,229,229,159,,,,,,,,,,,,,AMP,right,0.3169765790516976,0,,,,,,,,,,,,,,right,0,0.3169765790516976,,,,,,,,,,,1076,2019_Mar_15_1435,mf_amp_cond2,3.0.4,59.97749385009644,
hate,&&&&&&&,right,fairness.vice,emports,,,,,,,,,,,,,,,0,230,230,60,,,,,,,,,,,,,AMP,left,0.1169344363588607,0,,,,,,,,,,,,,,left,0,0.1169344363588607,,,,,,,,,,,1076,2019_Mar_15_1435,mf_amp_cond2,3.0.4,59.97749385009644,
agreement,&&&&&&&&&&,left,fairness.virtue,reelectiob,,,,,,,,,,,,,,,0,231,231,51,,,,,,,,,,,,,AMP,right,0.3503360190370586,0,,,,,,,,,,,,,,right,0,0.3503360190370586,,,,,,,,,,,1076,2019_Mar_15_1435,mf_amp_cond2,3.0.4,59.97749385009644,
hand,&&&&&&&&,left,sanctity.virtue,gowlands,,,,,,,,,,,,,,,0,232,232,169,,,,,,,,,,,,,AMP,left,0.36699393004528247,1,,,,,,,,,,,,,,left,1,0.36699393004528247,,,,,,,,,,,1076,2019_Mar_15_1435,mf_amp_cond2,3.0.4,59.97749385009644,
betrayal,&&&&&&,right,loyalty.vice,gazily,,,,,,,,,,,,,,,0,233,233,241,,,,,,,,,,,,,AMP,right,0.9171334756101714,1,,,,,,,,,,,,,,right,1,0.9171334756101714,,,,,,,,,,,1076,2019_Mar_15_1435,mf_amp_cond2,3.0.4,59.97749385009644,
peaceful,&&&&&&&,left,authority.virtue,festate,,,,,,,,,,,,,,,0,234,234,258,,,,,,,,,,,,,AMP,left,0.567038317778497,1,,,,,,,,,,,,,,left,1,0.567038317778497,,,,,,,,,,,1076,2019_Mar_15_1435,mf_amp_cond2,3.0.4,59.97749385009644,
police,&&&&&&&&,right,authority.vice,lachelor,,,,,,,,,,,,,,,0,235,235,3,,,,,,,,,,,,,AMP,left,0.8671247840684373,0,,,,,,,,,,,,,,left,0,0.8671247840684373,,,,,,,,,,,1076,2019_Mar_15_1435,mf_amp_cond2,3.0.4,59.97749385009644,
army,&&&&&,right,loyalty.vice,uller,,,,,,,,,,,,,,,0,236,236,74,,,,,,,,,,,,,AMP,left,0.4336707956244936,0,,,,,,,,,,,,,,left,0,0.4336707956244936,,,,,,,,,,,1076,2019_Mar_15_1435,mf_amp_cond2,3.0.4,59.97749385009644,
protect,&&&&&&&&&,left,fairness.virtue,reprisols,,,,,,,,,,,,,,,0,237,237,28,,,,,,,,,,,,,AMP,right,0.4336730406648712,0,,,,,,,,,,,,,,right,0,0.4336730406648712,,,,,,,,,,,1076,2019_Mar_15_1435,mf_amp_cond2,3.0.4,59.97749385009644,
men,&&&&&&&&&&,right,loyalty.vice,clattening,,,,,,,,,,,,,,,0,238,238,317,,,,,,,,,,,,,AMP,left,0.31699646373454016,0,,,,,,,,,,,,,,left,0,0.31699646373454016,,,,,,,,,,,1076,2019_Mar_15_1435,mf_amp_cond2,3.0.4,59.97749385009644,
values,&&&&&&&&&&,left,sanctity.virtue,imebreaker,,,,,,,,,,,,,,,0,239,239,8,,,,,,,,,,,,,AMP,right,0.8838333689345745,0,,,,,,,,,,,,,,right,0,0.8838333689345745,,,,,,,,,,,1076,2019_Mar_15_1435,mf_amp_cond2,3.0.4,59.97749385009644,
energy,&&&&&&&&,left,sanctity.virtue,sidearbs,,,,,,,,,,,,,,,0,240,240,327,,,,,,,,,,,,,AMP,left,0.6670694918284426,1,,,,,,,,,,,,,,left,1,0.6670694918284426,,,,,,,,,,,1076,2019_Mar_15_1435,mf_amp_cond2,3.0.4,59.97749385009644,
pleasant,&&&&&&,None,control,gazily,,,,,,,,,,,,,,,0,241,241,20,,,,,,,,,,,,,AMP,right,1.1672045152372448,0,,,,,,,,,,,,,,right,0,1.1672045152372448,,,,,,,,,,,1076,2019_Mar_15_1435,mf_amp_cond2,3.0.4,59.97749385009644,
crime,&&&&&&&&,right,fairness.vice,tracious,,,,,,,,,,,,,,,0,242,242,151,,,,,,,,,,,,,AMP,right,0.5670553159725387,1,,,,,,,,,,,,,,right,1,0.5670553159725387,,,,,,,,,,,1076,2019_Mar_15_1435,mf_amp_cond2,3.0.4,59.97749385009644,
forced,&&&,right,fairness.vice,oam,,,,,,,,,,,,,,,0,243,243,46,,,,,,,,,,,,,AMP,left,0.617050857967115,0,,,,,,,,,,,,,,left,0,0.617050857967115,,,,,,,,,,,1076,2019_Mar_15_1435,mf_amp_cond2,3.0.4,59.97749385009644,
