words,nonwords,mask,corr_ans,category,tweets,topic,AMP_pracloop.thisRepN,AMP_pracloop.thisTrialN,AMP_pracloop.thisN,AMP_pracloop.thisIndex,AMP_trials.thisRepN,AMP_trials.thisTrialN,AMP_trials.thisN,AMP_trials.thisIndex,LDT_pracloop.thisRepN,LDT_pracloop.thisTrialN,LDT_pracloop.thisN,LDT_pracloop.thisIndex,LDT_trials.thisRepN,LDT_trials.thisTrialN,LDT_trials.thisN,LDT_trials.thisIndex,tweet_loop.thisRepN,tweet_loop.thisTrialN,tweet_loop.thisN,tweet_loop.thisIndex,begin_key.keys,begin_key.rt,key_resp_AMP_instr1.keys,key_resp_AMP_instr1.rt,resp_AMP_ready1.keys,resp_AMP_ready1.rt,resp_AMP_prac.keys,resp_AMP_prac.rt,task,keypress,RT,resp_AMP_ready.keys,resp_AMP_ready.rt,resp_AMP.keys,resp_AMP.corr,resp_AMP.rt,corr,AMP_nonword_rating.response,AMP_nonword_rating.rt,AMP_word_rating.response,AMP_word_rating.rt,AMP_random_rating.response,AMP_random_rating.rt,key_resp_LDT_instr.keys,key_resp_LDT_instr.rt,resp_LDT_prac.keys,resp_LDT_prac.rt,resp_LDT_ready.keys,resp_LDT_ready.rt,resp_LDT.keys,resp_LDT.corr,resp_LDT.rt,LDT_rating.response,LDT_rating.rt,key_resp_LDT_instr_2.keys,key_resp_LDT_instr_2.rt,resp_tweets.keys,resp_tweets.rt,participant,date,expName,psychopyVersion,frameRate,
,,,,,,,,,,,,,,,,,,,,,,,,,,,right,1796.3044546961319,,,,,,,,,,,,,,,,,,,,,,,,,,,,,,,,,,,,,1079,2019_Mar_15_1437,mf_amp_cond1,3.0.4,59.998768454783615,
,,,,,,,,,,,,,,,,,,,,,,,,,,,,,right,2.1007928881881526,,,,,,,,,,,,,,,,,,,,,,,,,,,,,,,,,,,1079,2019_Mar_15_1437,mf_amp_cond1,3.0.4,59.998768454783615,
,,,,,,,,,,,,,,,,,,,,,,,,,,,,,,,right,0.016926087759202346,,,,,,,,,,,,,,,,,,,,,,,,,,,,,,,,,1079,2019_Mar_15_1437,mf_amp_cond1,3.0.4,59.998768454783615,
car,cemtuper,&&&&&&&&,,,,,0,0,0,0,,,,,,,,,,,,,,,,,,,,,,,right,5.618344703994808,AMP_prac,right,5.618344703994808,,,,,,,,,,,,,,,,,,,,,,,,,,,,1079,2019_Mar_15_1437,mf_amp_cond1,3.0.4,59.998768454783615,
keyboard,senk,&&&&,,,,,0,1,1,2,,,,,,,,,,,,,,,,,,,,,,,left,3.034338389610639,AMP_prac,left,3.034338389610639,,,,,,,,,,,,,,,,,,,,,,,,,,,,1079,2019_Mar_15_1437,mf_amp_cond1,3.0.4,59.998768454783615,
scarf,bisebell,&&&&&&&&,,,,,0,2,2,3,,,,,,,,,,,,,,,,,,,,,,,left,1.2672291697672335,AMP_prac,left,1.2672291697672335,,,,,,,,,,,,,,,,,,,,,,,,,,,,1079,2019_Mar_15_1437,mf_amp_cond1,3.0.4,59.998768454783615,
banana,kacket,&&&&&&,,,,,0,3,3,1,,,,,,,,,,,,,,,,,,,,,,,left,1.7840215165779227,AMP_prac,left,1.7840215165779227,,,,,,,,,,,,,,,,,,,,,,,,,,,,1079,2019_Mar_15_1437,mf_amp_cond1,3.0.4,59.998768454783615,
,,,,,,,,,,,,,,,,,,,,,,,,,,,,,,,,,,,,,,right,2.5008810225117486,,,,,,,,,,,,,,,,,,,,,,,,,,1079,2019_Mar_15_1437,mf_amp_cond1,3.0.4,59.998768454783615,
laming,vicissifude,&&&&&&&&&&&,None,nonword,,,,,,,0,0,0,0,,,,,,,,,,,,,,,,,,,,,AMP,left,1.517284333895077,,,left,0,1.517284333895077,0,,,,,,,,,,,,,,,,,,,,,,1079,2019_Mar_15_1437,mf_amp_cond1,3.0.4,59.998768454783615,
fair,atson,&&&&&,left,fairness.virtue,,,,,,,0,1,1,1,,,,,,,,,,,,,,,,,,,,,AMP,left,2.167444309889106,,,left,1,2.167444309889106,1,,,,,,,,,,,,,,,,,,,,,,1079,2019_Mar_15_1437,mf_amp_cond1,3.0.4,59.998768454783615,
care,halaise,&&&&&&&,left,care.virtue,,,,,,,0,2,2,2,,,,,,,,,,,,,,,,,,,,,AMP,right,1.350566779379733,,,right,0,1.350566779379733,0,,,,,,,,,,,,,,,,,,,,,,1079,2019_Mar_15_1437,mf_amp_cond1,3.0.4,59.998768454783615,
Phintoism,ebbitter,&&&&&&&&,None,nonword,,,,,,,0,3,3,3,,,,,,,,,,,,,,,,,,,,,AMP,left,0.7838040672650095,,,left,0,0.7838040672650095,0,,,,,,,,,,,,,,,,,,,,,,1079,2019_Mar_15_1437,mf_amp_cond1,3.0.4,59.998768454783615,
great,esquisiteness,&&&&&&&&&&&&&,left,loyalty.virtue,,,,,,,0,4,4,4,,,,,,,,,,,,,,,,,,,,,AMP,left,4.568079595424933,,,left,1,4.568079595424933,1,,,,,,,,,,,,,,,,,,,,,,1079,2019_Mar_15_1437,mf_amp_cond1,3.0.4,59.998768454783615,
progress,coom,&&&&,left,authority.virtue,,,,,,,0,5,5,5,,,,,,,,,,,,,,,,,,,,,AMP,right,3.8512155993812485,,,right,0,3.8512155993812485,0,,,,,,,,,,,,,,,,,,,,,,1079,2019_Mar_15_1437,mf_amp_cond1,3.0.4,59.998768454783615,
elduringly,rivernoat,&&&&&&&&&,None,nonword,,,,,,,0,6,6,6,,,,,,,,,,,,,,,,,,,,,AMP,left,0.8171010735240998,,,left,0,0.8171010735240998,0,,,,,,,,,,,,,,,,,,,,,,1079,2019_Mar_15_1437,mf_amp_cond1,3.0.4,59.998768454783615,
friends,papert,&&&&&&,left,loyalty.virtue,,,,,,,0,7,7,7,,,,,,,,,,,,,,,,,,,,,AMP,right,0.8837896989280125,,,right,0,0.8837896989280125,0,,,,,,,,,,,,,,,,,,,,,,1079,2019_Mar_15_1437,mf_amp_cond1,3.0.4,59.998768454783615,
safety,nonobservalt,&&&&&&&&&&&&,left,care.virtue,,,,,,,0,8,8,8,,,,,,,,,,,,,,,,,,,,,AMP,left,1.2005270740337437,,,left,1,1.2005270740337437,1,,,,,,,,,,,,,,,,,,,,,,1079,2019_Mar_15_1437,mf_amp_cond1,3.0.4,59.998768454783615,
focomotive,gazily,&&&&&&,None,nonword,,,,,,,0,9,9,9,,,,,,,,,,,,,,,,,,,,,AMP,right,0.6337348555243807,,,right,0,0.6337348555243807,0,,,,,,,,,,,,,,,,,,,,,,1079,2019_Mar_15_1437,mf_amp_cond1,3.0.4,59.998768454783615,
black,pistraught,&&&&&&&&&&,right,loyalty.vice,,,,,,,0,10,10,10,,,,,,,,,,,,,,,,,,,,,AMP,left,3.3010771759145427,,,left,0,3.3010771759145427,0,,,,,,,,,,,,,,,,,,,,,,1079,2019_Mar_15_1437,mf_amp_cond1,3.0.4,59.998768454783615,
carvels,fornicalion,&&&&&&&&&&&,None,nonword,,,,,,,0,11,11,11,,,,,,,,,,,,,,,,,,,,,AMP,left,2.10080443417246,,,left,0,2.10080443417246,0,,,,,,,,,,,,,,,,,,,,,,1079,2019_Mar_15_1437,mf_amp_cond1,3.0.4,59.998768454783615,
sexual,frojecting,&&&&&&&&&&,right,sanctity.vice,,,,,,,0,12,12,12,,,,,,,,,,,,,,,,,,,,,AMP,left,0.9671494383510435,,,left,0,0.9671494383510435,0,,,,,,,,,,,,,,,,,,,,,,1079,2019_Mar_15_1437,mf_amp_cond1,3.0.4,59.998768454783615,
failure,uller,&&&&&,right,loyalty.vice,,,,,,,0,13,13,13,,,,,,,,,,,,,,,,,,,,,AMP,right,1.9007318227668293,,,right,1,1.9007318227668293,1,,,,,,,,,,,,,,,,,,,,,,1079,2019_Mar_15_1437,mf_amp_cond1,3.0.4,59.998768454783615,
rebels,strofe,&&&&&&,right,authority.vice,,,,,,,0,14,14,14,,,,,,,,,,,,,,,,,,,,,AMP,right,0.7002823633811204,,,right,1,0.7002823633811204,1,,,,,,,,,,,,,,,,,,,,,,1079,2019_Mar_15_1437,mf_amp_cond1,3.0.4,59.998768454783615,
accused,reviked,&&&&&&&,right,fairness.vice,,,,,,,0,15,15,15,,,,,,,,,,,,,,,,,,,,,AMP,right,1.7173672083881684,,,right,1,1.7173672083881684,1,,,,,,,,,,,,,,,,,,,,,,1079,2019_Mar_15_1437,mf_amp_cond1,3.0.4,59.998768454783615,
arrests,rorroborated,&&&&&&&&&&&&,right,authority.vice,,,,,,,0,16,16,16,,,,,,,,,,,,,,,,,,,,,AMP,left,0.7503713957266882,,,left,0,0.7503713957266882,0,,,,,,,,,,,,,,,,,,,,,,1079,2019_Mar_15_1437,mf_amp_cond1,3.0.4,59.998768454783615,
strength,tomedians,&&&&&&&&&,left,sanctity.virtue,,,,,,,0,17,17,17,,,,,,,,,,,,,,,,,,,,,AMP,left,0.8171106951776892,,,left,1,0.8171106951776892,1,,,,,,,,,,,,,,,,,,,,,,1079,2019_Mar_15_1437,mf_amp_cond1,3.0.4,59.998768454783615,
hand,reelectiob,&&&&&&&&&&,left,sanctity.virtue,,,,,,,0,18,18,18,,,,,,,,,,,,,,,,,,,,,AMP,left,0.9671475140203256,,,left,1,0.9671475140203256,1,,,,,,,,,,,,,,,,,,,,,,1079,2019_Mar_15_1437,mf_amp_cond1,3.0.4,59.998768454783615,
protect,emports,&&&&&&&,left,fairness.virtue,,,,,,,0,19,19,19,,,,,,,,,,,,,,,,,,,,,AMP,right,1.8507290645648027,,,right,0,1.8507290645648027,0,,,,,,,,,,,,,,,,,,,,,,1079,2019_Mar_15_1437,mf_amp_cond1,3.0.4,59.998768454783615,
fear,nomparisons,&&&&&&&&&&&,right,sanctity.vice,,,,,,,0,20,20,20,,,,,,,,,,,,,,,,,,,,,AMP,left,3.2343843811104307,,,left,0,3.2343843811104307,0,,,,,,,,,,,,,,,,,,,,,,1079,2019_Mar_15_1437,mf_amp_cond1,3.0.4,59.998768454783615,
shot,yane,&&&&,right,care.vice,,,,,,,0,21,21,21,,,,,,,,,,,,,,,,,,,,,AMP,right,0.5003723578993231,,,right,1,0.5003723578993231,1,,,,,,,,,,,,,,,,,,,,,,1079,2019_Mar_15_1437,mf_amp_cond1,3.0.4,59.998768454783615,
useful,mih,&&&,left,authority.virtue,,,,,,,0,22,22,22,,,,,,,,,,,,,,,,,,,,,AMP,right,1.6340100347442785,,,right,0,1.6340100347442785,0,,,,,,,,,,,,,,,,,,,,,,1079,2019_Mar_15_1437,mf_amp_cond1,3.0.4,59.998768454783615,
pleasant,perified,&&&&&&&&,None,control,,,,,,,0,23,23,23,,,,,,,,,,,,,,,,,,,,,AMP,right,0.6837453110492788,,,right,0,0.6837453110492788,0,,,,,,,,,,,,,,,,,,,,,,1079,2019_Mar_15_1437,mf_amp_cond1,3.0.4,59.998768454783615,
protesters,nomaric,&&&&&&&,right,authority.vice,,,,,,,0,24,24,24,,,,,,,,,,,,,,,,,,,,,AMP,left,0.6003958347282605,,,left,0,0.6003958347282605,0,,,,,,,,,,,,,,,,,,,,,,1079,2019_Mar_15_1437,mf_amp_cond1,3.0.4,59.998768454783615,
fighters,prones,&&&&&&,right,authority.vice,,,,,,,0,25,25,25,,,,,,,,,,,,,,,,,,,,,AMP,right,1.2505497169913724,,,right,1,1.2505497169913724,1,,,,,,,,,,,,,,,,,,,,,,1079,2019_Mar_15_1437,mf_amp_cond1,3.0.4,59.998768454783615,
died,baklara,&&&&&&&,right,care.vice,,,,,,,0,26,26,26,,,,,,,,,,,,,,,,,,,,,AMP,left,0.9171223052835558,,,left,0,0.9171223052835558,0,,,,,,,,,,,,,,,,,,,,,,1079,2019_Mar_15_1437,mf_amp_cond1,3.0.4,59.998768454783615,
illegal,Boeinf,&&&&&&,right,fairness.vice,,,,,,,0,27,27,27,,,,,,,,,,,,,,,,,,,,,AMP,right,0.833780526285409,,,right,1,0.833780526285409,1,,,,,,,,,,,,,,,,,,,,,,1079,2019_Mar_15_1437,mf_amp_cond1,3.0.4,59.998768454783615,
credit,allears,&&&&&&&,left,fairness.virtue,,,,,,,0,28,28,28,,,,,,,,,,,,,,,,,,,,,AMP,left,0.8504503574076807,,,left,1,0.8504503574076807,1,,,,,,,,,,,,,,,,,,,,,,1079,2019_Mar_15_1437,mf_amp_cond1,3.0.4,59.998768454783615,
praise,precificity,&&&&&&&&&&&,left,authority.virtue,,,,,,,0,29,29,29,,,,,,,,,,,,,,,,,,,,,AMP,right,0.3503477264603134,,,right,0,0.3503477264603134,0,,,,,,,,,,,,,,,,,,,,,,1079,2019_Mar_15_1437,mf_amp_cond1,3.0.4,59.998768454783615,
harassment,feleological,&&&&&&&&&&&&,right,sanctity.vice,,,,,,,0,30,30,30,,,,,,,,,,,,,,,,,,,,,AMP,left,0.5504241865128279,,,left,0,0.5504241865128279,0,,,,,,,,,,,,,,,,,,,,,,1079,2019_Mar_15_1437,mf_amp_cond1,3.0.4,59.998768454783615,
interests,seachwear,&&&&&&&&&,left,fairness.virtue,,,,,,,0,31,31,31,,,,,,,,,,,,,,,,,,,,,AMP,right,0.517012041178532,,,right,0,0.517012041178532,0,,,,,,,,,,,,,,,,,,,,,,1079,2019_Mar_15_1437,mf_amp_cond1,3.0.4,59.998768454783615,
hate,infet,&&&&&,right,fairness.vice,,,,,,,0,32,32,32,,,,,,,,,,,,,,,,,,,,,AMP,right,1.3839141389471479,,,right,1,1.3839141389471479,1,,,,,,,,,,,,,,,,,,,,,,1079,2019_Mar_15_1437,mf_amp_cond1,3.0.4,59.998768454783615,
unreflectuve,stindig,&&&&&&&,None,nonword,,,,,,,0,33,33,33,,,,,,,,,,,,,,,,,,,,,AMP,left,0.8838262612116523,,,left,0,0.8838262612116523,0,,,,,,,,,,,,,,,,,,,,,,1079,2019_Mar_15_1437,mf_amp_cond1,3.0.4,59.998768454783615,
intelligence,antral,&&&&&&,left,loyalty.virtue,,,,,,,0,34,34,34,,,,,,,,,,,,,,,,,,,,,AMP,left,0.7670976738736499,,,left,1,0.7670976738736499,1,,,,,,,,,,,,,,,,,,,,,,1079,2019_Mar_15_1437,mf_amp_cond1,3.0.4,59.998768454783615,
health,fonderland,&&&&&&&&&&,left,care.virtue,,,,,,,0,35,35,35,,,,,,,,,,,,,,,,,,,,,AMP,left,0.750449010374723,,,left,1,0.750449010374723,1,,,,,,,,,,,,,,,,,,,,,,1079,2019_Mar_15_1437,mf_amp_cond1,3.0.4,59.998768454783615,
gun,bycled,&&&&&&,right,authority.vice,,,,,,,0,36,36,36,,,,,,,,,,,,,,,,,,,,,AMP,right,0.40033156209392473,,,right,1,0.40033156209392473,1,,,,,,,,,,,,,,,,,,,,,,1079,2019_Mar_15_1437,mf_amp_cond1,3.0.4,59.998768454783615,
faith,emassion,&&&&&&&&,left,sanctity.virtue,,,,,,,0,37,37,37,,,,,,,,,,,,,,,,,,,,,AMP,right,0.43367763876449317,,,right,0,0.43367763876449317,0,,,,,,,,,,,,,,,,,,,,,,1079,2019_Mar_15_1437,mf_amp_cond1,3.0.4,59.998768454783615,
men,clamorek,&&&&&&&&,right,loyalty.vice,,,,,,,0,38,38,38,,,,,,,,,,,,,,,,,,,,,AMP,left,0.450350997823989,,,left,0,0.450350997823989,0,,,,,,,,,,,,,,,,,,,,,,1079,2019_Mar_15_1437,mf_amp_cond1,3.0.4,59.998768454783615,
corruption,smapper,&&&&&&&,right,sanctity.vice,,,,,,,0,39,39,39,,,,,,,,,,,,,,,,,,,,,AMP,right,0.5837208720622584,,,right,1,0.5837208720622584,1,,,,,,,,,,,,,,,,,,,,,,1079,2019_Mar_15_1437,mf_amp_cond1,3.0.4,59.998768454783615,
violence,glacenta,&&&&&&&&,right,care.vice,,,,,,,0,40,40,40,,,,,,,,,,,,,,,,,,,,,AMP,right,0.7170763137983158,,,right,1,0.7170763137983158,1,,,,,,,,,,,,,,,,,,,,,,1079,2019_Mar_15_1437,mf_amp_cond1,3.0.4,59.998768454783615,
growth,proached,&&&&&&&&,left,care.virtue,,,,,,,0,41,41,41,,,,,,,,,,,,,,,,,,,,,AMP,left,1.017170477687614,,,left,1,1.017170477687614,1,,,,,,,,,,,,,,,,,,,,,,1079,2019_Mar_15_1437,mf_amp_cond1,3.0.4,59.998768454783615,
praised,gournful,&&&&&&&&,left,loyalty.virtue,,,,,,,0,42,42,42,,,,,,,,,,,,,,,,,,,,,AMP,left,0.5170380196213955,,,left,1,0.5170380196213955,1,,,,,,,,,,,,,,,,,,,,,,1079,2019_Mar_15_1437,mf_amp_cond1,3.0.4,59.998768454783615,
loyalty,tove,&&&&,left,loyalty.virtue,,,,,,,0,43,43,43,,,,,,,,,,,,,,,,,,,,,AMP,right,0.4170299374527531,,,right,0,0.4170299374527531,0,,,,,,,,,,,,,,,,,,,,,,1079,2019_Mar_15_1437,mf_amp_cond1,3.0.4,59.998768454783615,
safe,touls,&&&&&,left,care.virtue,,,,,,,0,44,44,44,,,,,,,,,,,,,,,,,,,,,AMP,right,0.48369611233647447,,,right,0,0.48369611233647447,0,,,,,,,,,,,,,,,,,,,,,,1079,2019_Mar_15_1437,mf_amp_cond1,3.0.4,59.998768454783615,
brudent,egpeditious,&&&&&&&&&&&,None,nonword,,,,,,,0,45,45,45,,,,,,,,,,,,,,,,,,,,,AMP,left,0.5337232454039622,,,left,0,0.5337232454039622,0,,,,,,,,,,,,,,,,,,,,,,1079,2019_Mar_15_1437,mf_amp_cond1,3.0.4,59.998768454783615,
sowntrodden,ning,&&&&,None,nonword,,,,,,,0,46,46,46,,,,,,,,,,,,,,,,,,,,,AMP,right,0.4503625438082963,,,right,0,0.4503625438082963,0,,,,,,,,,,,,,,,,,,,,,,1079,2019_Mar_15_1437,mf_amp_cond1,3.0.4,59.998768454783615,
perfect,letish,&&&&&&,left,sanctity.virtue,,,,,,,0,47,47,47,,,,,,,,,,,,,,,,,,,,,AMP,right,0.8671169813169399,,,right,0,0.8671169813169399,0,,,,,,,,,,,,,,,,,,,,,,1079,2019_Mar_15_1437,mf_amp_cond1,3.0.4,59.998768454783615,
party,asn,&&&,left,loyalty.virtue,,,,,,,0,48,48,48,,,,,,,,,,,,,,,,,,,,,AMP,right,0.6504274578765035,,,right,0,0.6504274578765035,0,,,,,,,,,,,,,,,,,,,,,,1079,2019_Mar_15_1437,mf_amp_cond1,3.0.4,59.998768454783615,
powerful,scock,&&&&&,left,authority.virtue,,,,,,,0,49,49,49,,,,,,,,,,,,,,,,,,,,,AMP,right,0.31702121380658355,,,right,0,0.31702121380658355,0,,,,,,,,,,,,,,,,,,,,,,1079,2019_Mar_15_1437,mf_amp_cond1,3.0.4,59.998768454783615,
pescinded,thabbily,&&&&&&&&,None,nonword,,,,,,,0,50,50,50,,,,,,,,,,,,,,,,,,,,,AMP,left,0.366877402208047,,,left,0,0.366877402208047,0,,,,,,,,,,,,,,,,,,,,,,1079,2019_Mar_15_1437,mf_amp_cond1,3.0.4,59.998768454783615,
attacks,gikely,&&&&&&,right,care.vice,,,,,,,0,51,51,51,,,,,,,,,,,,,,,,,,,,,AMP,right,0.4170219194056699,,,right,1,0.4170219194056699,1,,,,,,,,,,,,,,,,,,,,,,1079,2019_Mar_15_1437,mf_amp_cond1,3.0.4,59.998768454783615,
terrorists,pullness,&&&&&&&&,right,fairness.vice,,,,,,,0,52,52,52,,,,,,,,,,,,,,,,,,,,,AMP,right,0.41704116271284875,,,right,1,0.41704116271284875,1,,,,,,,,,,,,,,,,,,,,,,1079,2019_Mar_15_1437,mf_amp_cond1,3.0.4,59.998768454783615,
army,hefurbished,&&&&&&&&&&&,right,loyalty.vice,,,,,,,0,53,53,53,,,,,,,,,,,,,,,,,,,,,AMP,left,0.450408407006762,,,left,0,0.450408407006762,0,,,,,,,,,,,,,,,,,,,,,,1079,2019_Mar_15_1437,mf_amp_cond1,3.0.4,59.998768454783615,
compassion,neneficence,&&&&&&&&&&&,left,care.virtue,,,,,,,0,54,54,54,,,,,,,,,,,,,,,,,,,,,AMP,left,1.1338570504885865,,,left,1,1.1338570504885865,1,,,,,,,,,,,,,,,,,,,,,,1079,2019_Mar_15_1437,mf_amp_cond1,3.0.4,59.998768454783615,
threatened,pafer,&&&&&,right,fairness.vice,,,,,,,0,55,55,55,,,,,,,,,,,,,,,,,,,,,AMP,left,1.100535669393139,,,left,0,1.100535669393139,0,,,,,,,,,,,,,,,,,,,,,,1079,2019_Mar_15_1437,mf_amp_cond1,3.0.4,59.998768454783615,
commitment,suggists,&&&&&&&&,left,sanctity.virtue,,,,,,,0,56,56,56,,,,,,,,,,,,,,,,,,,,,AMP,right,0.35030699480557814,,,right,0,0.35030699480557814,0,,,,,,,,,,,,,,,,,,,,,,1079,2019_Mar_15_1437,mf_amp_cond1,3.0.4,59.998768454783615,
prosecution,nackers,&&&&&&&,right,authority.vice,,,,,,,0,57,57,57,,,,,,,,,,,,,,,,,,,,,AMP,right,0.3503243137820391,,,right,1,0.3503243137820391,1,,,,,,,,,,,,,,,,,,,,,,1079,2019_Mar_15_1437,mf_amp_cond1,3.0.4,59.998768454783615,
war,chreams,&&&&&&&,right,sanctity.vice,,,,,,,0,58,58,58,,,,,,,,,,,,,,,,,,,,,AMP,right,0.9338136247679358,,,right,1,0.9338136247679358,1,,,,,,,,,,,,,,,,,,,,,,1079,2019_Mar_15_1437,mf_amp_cond1,3.0.4,59.998768454783615,
trust,framatic,&&&&&&&&,left,authority.virtue,,,,,,,0,59,59,59,,,,,,,,,,,,,,,,,,,,,AMP,right,0.6002550378907472,,,right,0,0.6002550378907472,0,,,,,,,,,,,,,,,,,,,,,,1079,2019_Mar_15_1437,mf_amp_cond1,3.0.4,59.998768454783615,
peaceful,fangsters,&&&&&&&&&,left,authority.virtue,,,,,,,0,60,60,60,,,,,,,,,,,,,,,,,,,,,AMP,right,1.0836987422662787,,,right,0,1.0836987422662787,0,,,,,,,,,,,,,,,,,,,,,,1079,2019_Mar_15_1437,mf_amp_cond1,3.0.4,59.998768454783615,
scandal,scalbel,&&&&&&&,right,sanctity.vice,,,,,,,0,61,61,61,,,,,,,,,,,,,,,,,,,,,AMP,left,0.3669816367473686,,,left,0,0.3669816367473686,0,,,,,,,,,,,,,,,,,,,,,,1079,2019_Mar_15_1437,mf_amp_cond1,3.0.4,59.998768454783615,
victims,ejanulated,&&&&&&&&&&,right,care.vice,,,,,,,0,62,62,62,,,,,,,,,,,,,,,,,,,,,AMP,right,0.7170965192635776,,,right,1,0.7170965192635776,1,,,,,,,,,,,,,,,,,,,,,,1079,2019_Mar_15_1437,mf_amp_cond1,3.0.4,59.998768454783615,
officers,troubla,&&&&&&&,right,authority.vice,,,,,,,0,63,63,63,,,,,,,,,,,,,,,,,,,,,AMP,left,0.46700928297650535,,,left,0,0.46700928297650535,0,,,,,,,,,,,,,,,,,,,,,,1079,2019_Mar_15_1437,mf_amp_cond1,3.0.4,59.998768454783615,
ban,erdest,&&&&&&,right,loyalty.vice,,,,,,,0,64,64,64,,,,,,,,,,,,,,,,,,,,,AMP,right,0.8171139023907017,,,right,1,0.8171139023907017,1,,,,,,,,,,,,,,,,,,,,,,1079,2019_Mar_15_1437,mf_amp_cond1,3.0.4,59.998768454783615,
unpleasant,Cunday,&&&&&&,None,control,,,,,,,0,65,65,65,,,,,,,,,,,,,,,,,,,,,AMP,right,0.40032514766789973,,,right,0,0.40032514766789973,0,,,,,,,,,,,,,,,,,,,,,,1079,2019_Mar_15_1437,mf_amp_cond1,3.0.4,59.998768454783615,
opportunity,fostet,&&&&&&,left,fairness.virtue,,,,,,,0,66,66,66,,,,,,,,,,,,,,,,,,,,,AMP,right,0.3670348765590461,,,right,0,0.3670348765590461,0,,,,,,,,,,,,,,,,,,,,,,1079,2019_Mar_15_1437,mf_amp_cond1,3.0.4,59.998768454783615,
dignity,nuckheap,&&&&&&&&,left,sanctity.virtue,,,,,,,0,67,67,67,,,,,,,,,,,,,,,,,,,,,AMP,left,0.9171473215974402,,,left,1,0.9171473215974402,1,,,,,,,,,,,,,,,,,,,,,,1079,2019_Mar_15_1437,mf_amp_cond1,3.0.4,59.998768454783615,
benefit,shoirmaster,&&&&&&&&&&&,left,fairness.virtue,,,,,,,0,68,68,68,,,,,,,,,,,,,,,,,,,,,AMP,left,0.4670195460639661,,,left,1,0.4670195460639661,1,,,,,,,,,,,,,,,,,,,,,,1079,2019_Mar_15_1437,mf_amp_cond1,3.0.4,59.998768454783615,
lies,Lacedonia,&&&&&&&&&,right,fairness.vice,,,,,,,0,69,69,69,,,,,,,,,,,,,,,,,,,,,AMP,left,0.6170624586375197,,,left,0,0.6170624586375197,0,,,,,,,,,,,,,,,,,,,,,,1079,2019_Mar_15_1437,mf_amp_cond1,3.0.4,59.998768454783615,
love,bluently,&&&&&&&&,left,loyalty.virtue,,,,,,,0,70,70,70,,,,,,,,,,,,,,,,,,,,,AMP,right,0.4503740897926036,,,right,0,0.4503740897926036,0,,,,,,,,,,,,,,,,,,,,,,1079,2019_Mar_15_1437,mf_amp_cond1,3.0.4,59.998768454783615,
blamed,tabin,&&&&&,right,loyalty.vice,,,,,,,0,71,71,71,,,,,,,,,,,,,,,,,,,,,AMP,right,0.5670443057751982,,,right,1,0.5670443057751982,1,,,,,,,,,,,,,,,,,,,,,,1079,2019_Mar_15_1437,mf_amp_cond1,3.0.4,59.998768454783615,
conspiracy,totalestic,&&&&&&&&&&,right,sanctity.vice,,,,,,,0,72,72,72,,,,,,,,,,,,,,,,,,,,,AMP,left,0.4670163388509536,,,left,0,0.4670163388509536,0,,,,,,,,,,,,,,,,,,,,,,1079,2019_Mar_15_1437,mf_amp_cond1,3.0.4,59.998768454783615,
voter,simplustic,&&&&&&&&&&,right,fairness.vice,,,,,,,0,73,73,73,,,,,,,,,,,,,,,,,,,,,AMP,left,0.8837999620300252,,,left,0,0.8837999620300252,0,,,,,,,,,,,,,,,,,,,,,,1079,2019_Mar_15_1437,mf_amp_cond1,3.0.4,59.998768454783615,
ability,alar,&&&&,left,authority.virtue,,,,,,,0,74,74,74,,,,,,,,,,,,,,,,,,,,,AMP,left,0.6505057139729615,,,left,1,0.6505057139729615,1,,,,,,,,,,,,,,,,,,,,,,1079,2019_Mar_15_1437,mf_amp_cond1,3.0.4,59.998768454783615,
improve,taxpayung,&&&&&&&&&,left,care.virtue,,,,,,,0,75,75,75,,,,,,,,,,,,,,,,,,,,,AMP,left,0.5837086846295279,,,left,1,0.5837086846295279,1,,,,,,,,,,,,,,,,,,,,,,1079,2019_Mar_15_1437,mf_amp_cond1,3.0.4,59.998768454783615,
death,godlaness,&&&&&&&&&,right,care.vice,,,,,,,0,76,76,76,,,,,,,,,,,,,,,,,,,,,AMP,right,0.4503487527836114,,,right,1,0.4503487527836114,1,,,,,,,,,,,,,,,,,,,,,,1079,2019_Mar_15_1437,mf_amp_cond1,3.0.4,59.998768454783615,
freedom,quarterbocks,&&&&&&&&&&&&,left,sanctity.virtue,,,,,,,0,77,77,77,,,,,,,,,,,,,,,,,,,,,AMP,right,0.3835600621823687,,,right,0,0.3835600621823687,0,,,,,,,,,,,,,,,,,,,,,,1079,2019_Mar_15_1437,mf_amp_cond1,3.0.4,59.998768454783615,
torture,fegard,&&&&&&,right,care.vice,,,,,,,0,78,78,78,,,,,,,,,,,,,,,,,,,,,AMP,left,0.6837440281524323,,,left,0,0.6837440281524323,0,,,,,,,,,,,,,,,,,,,,,,1079,2019_Mar_15_1437,mf_amp_cond1,3.0.4,59.998768454783615,
ensure,erks,&&&&,left,fairness.virtue,,,,,,,0,79,79,79,,,,,,,,,,,,,,,,,,,,,AMP,right,0.33365095472254325,,,right,0,0.33365095472254325,0,,,,,,,,,,,,,,,,,,,,,,1079,2019_Mar_15_1437,mf_amp_cond1,3.0.4,59.998768454783615,
gationwide,divility,&&&&&&&&,None,nonword,,,,,,,0,80,80,80,,,,,,,,,,,,,,,,,,,,,AMP,right,0.5503808890935034,,,right,0,0.5503808890935034,0,,,,,,,,,,,,,,,,,,,,,,1079,2019_Mar_15_1437,mf_amp_cond1,3.0.4,59.998768454783615,
troops,Oregoniuns,&&&&&&&&&&,right,loyalty.vice,,,,,,,0,81,81,81,,,,,,,,,,,,,,,,,,,,,AMP,right,0.11692935912287794,,,right,1,0.11692935912287794,1,,,,,,,,,,,,,,,,,,,,,,1079,2019_Mar_15_1437,mf_amp_cond1,3.0.4,59.998768454783615,
laming,baklara,&&&&&&&,None,nonword,,,,,,,0,82,82,82,,,,,,,,,,,,,,,,,,,,,AMP,left,0.750403467900469,,,left,0,0.750403467900469,0,,,,,,,,,,,,,,,,,,,,,,1079,2019_Mar_15_1437,mf_amp_cond1,3.0.4,59.998768454783615,
brudent,Oregoniuns,&&&&&&&&&&,None,nonword,,,,,,,0,83,83,83,,,,,,,,,,,,,,,,,,,,,AMP,right,0.5003608119150158,,,right,0,0.5003608119150158,0,,,,,,,,,,,,,,,,,,,,,,1079,2019_Mar_15_1437,mf_amp_cond1,3.0.4,59.998768454783615,
protesters,reelectiob,&&&&&&&&&&,right,authority.vice,,,,,,,0,84,84,84,,,,,,,,,,,,,,,,,,,,,AMP,left,0.5170941459364258,,,left,0,0.5170941459364258,0,,,,,,,,,,,,,,,,,,,,,,1079,2019_Mar_15_1437,mf_amp_cond1,3.0.4,59.998768454783615,
perfect,mih,&&&,left,sanctity.virtue,,,,,,,0,85,85,85,,,,,,,,,,,,,,,,,,,,,AMP,right,0.3668652147753164,,,right,0,0.3668652147753164,0,,,,,,,,,,,,,,,,,,,,,,1079,2019_Mar_15_1437,mf_amp_cond1,3.0.4,59.998768454783615,
Phintoism,halaise,&&&&&&&,None,nonword,,,,,,,0,86,86,86,,,,,,,,,,,,,,,,,,,,,AMP,left,0.6504056488047354,,,left,0,0.6504056488047354,0,,,,,,,,,,,,,,,,,,,,,,1079,2019_Mar_15_1437,mf_amp_cond1,3.0.4,59.998768454783615,
unreflectuve,emports,&&&&&&&,None,nonword,,,,,,,0,87,87,87,,,,,,,,,,,,,,,,,,,,,AMP,right,0.7671105027402518,,,right,0,0.7671105027402518,0,,,,,,,,,,,,,,,,,,,,,,1079,2019_Mar_15_1437,mf_amp_cond1,3.0.4,59.998768454783615,
failure,glacenta,&&&&&&&&,right,loyalty.vice,,,,,,,0,88,88,88,,,,,,,,,,,,,,,,,,,,,AMP,right,0.633729082532227,,,right,1,0.633729082532227,1,,,,,,,,,,,,,,,,,,,,,,1079,2019_Mar_15_1437,mf_amp_cond1,3.0.4,59.998768454783615,
scandal,infet,&&&&&,right,sanctity.vice,,,,,,,0,89,89,89,,,,,,,,,,,,,,,,,,,,,AMP,right,0.6504027623159345,,,right,1,0.6504027623159345,1,,,,,,,,,,,,,,,,,,,,,,1079,2019_Mar_15_1437,mf_amp_cond1,3.0.4,59.998768454783615,
pleasant,simplustic,&&&&&&&&&&,None,control,,,,,,,0,90,90,90,,,,,,,,,,,,,,,,,,,,,AMP,right,0.9171245503530372,,,right,0,0.9171245503530372,0,,,,,,,,,,,,,,,,,,,,,,1079,2019_Mar_15_1437,mf_amp_cond1,3.0.4,59.998768454783615,
attacks,nomaric,&&&&&&&,right,care.vice,,,,,,,0,91,91,91,,,,,,,,,,,,,,,,,,,,,AMP,left,0.5670433436171152,,,left,0,0.5670433436171152,0,,,,,,,,,,,,,,,,,,,,,,1079,2019_Mar_15_1437,mf_amp_cond1,3.0.4,59.998768454783615,
black,pullness,&&&&&&&&,right,loyalty.vice,,,,,,,0,92,92,92,,,,,,,,,,,,,,,,,,,,,AMP,right,0.6503854433394736,,,right,1,0.6503854433394736,1,,,,,,,,,,,,,,,,,,,,,,1079,2019_Mar_15_1437,mf_amp_cond1,3.0.4,59.998768454783615,
love,erdest,&&&&&&,left,loyalty.virtue,,,,,,,0,93,93,93,,,,,,,,,,,,,,,,,,,,,AMP,right,0.38366301385394763,,,right,0,0.38366301385394763,0,,,,,,,,,,,,,,,,,,,,,,1079,2019_Mar_15_1437,mf_amp_cond1,3.0.4,59.998768454783615,
opportunity,prones,&&&&&&,left,fairness.virtue,,,,,,,0,94,94,94,,,,,,,,,,,,,,,,,,,,,AMP,left,0.6504139875760302,,,left,1,0.6504139875760302,1,,,,,,,,,,,,,,,,,,,,,,1079,2019_Mar_15_1437,mf_amp_cond1,3.0.4,59.998768454783615,
trust,godlaness,&&&&&&&&&,left,authority.virtue,,,,,,,0,95,95,95,,,,,,,,,,,,,,,,,,,,,AMP,right,0.7171038958622376,,,right,0,0.7171038958622376,0,,,,,,,,,,,,,,,,,,,,,,1079,2019_Mar_15_1437,mf_amp_cond1,3.0.4,59.998768454783615,
fighters,clamorek,&&&&&&&&,right,authority.vice,,,,,,,0,96,96,96,,,,,,,,,,,,,,,,,,,,,AMP,left,0.3836540336487815,,,left,0,0.3836540336487815,0,,,,,,,,,,,,,,,,,,,,,,1079,2019_Mar_15_1437,mf_amp_cond1,3.0.4,59.998768454783615,
freedom,atson,&&&&&,left,sanctity.virtue,,,,,,,0,97,97,97,,,,,,,,,,,,,,,,,,,,,AMP,left,0.6003830058471067,,,left,1,0.6003830058471067,1,,,,,,,,,,,,,,,,,,,,,,1079,2019_Mar_15_1437,mf_amp_cond1,3.0.4,59.998768454783615,
loyalty,erks,&&&&,left,loyalty.virtue,,,,,,,0,98,98,98,,,,,,,,,,,,,,,,,,,,,AMP,left,0.8504708835971542,,,left,1,0.8504708835971542,1,,,,,,,,,,,,,,,,,,,,,,1079,2019_Mar_15_1437,mf_amp_cond1,3.0.4,59.998768454783615,
ban,stindig,&&&&&&&,right,loyalty.vice,,,,,,,0,99,99,99,,,,,,,,,,,,,,,,,,,,,AMP,left,1.8507303474470973,,,left,0,1.8507303474470973,0,,,,,,,,,,,,,,,,,,,,,,1079,2019_Mar_15_1437,mf_amp_cond1,3.0.4,59.998768454783615,
men,coom,&&&&,right,loyalty.vice,,,,,,,0,100,100,100,,,,,,,,,,,,,,,,,,,,,AMP,right,0.3836719940591138,,,right,1,0.3836719940591138,1,,,,,,,,,,,,,,,,,,,,,,1079,2019_Mar_15_1437,mf_amp_cond1,3.0.4,59.998768454783615,
arrests,bycled,&&&&&&,right,authority.vice,,,,,,,0,101,101,101,,,,,,,,,,,,,,,,,,,,,AMP,right,0.5503561935183825,,,right,1,0.5503561935183825,1,,,,,,,,,,,,,,,,,,,,,,1079,2019_Mar_15_1437,mf_amp_cond1,3.0.4,59.998768454783615,
prosecution,strofe,&&&&&&,right,authority.vice,,,,,,,0,102,102,102,,,,,,,,,,,,,,,,,,,,,AMP,right,0.35033104893227573,,,right,1,0.35033104893227573,1,,,,,,,,,,,,,,,,,,,,,,1079,2019_Mar_15_1437,mf_amp_cond1,3.0.4,59.998768454783615,
interests,rivernoat,&&&&&&&&&,left,fairness.virtue,,,,,,,0,103,103,103,,,,,,,,,,,,,,,,,,,,,AMP,left,0.5002360511716688,,,left,1,0.5002360511716688,1,,,,,,,,,,,,,,,,,,,,,,1079,2019_Mar_15_1437,mf_amp_cond1,3.0.4,59.998768454783615,
great,uller,&&&&&,left,loyalty.virtue,,,,,,,0,104,104,104,,,,,,,,,,,,,,,,,,,,,AMP,right,0.3669947863527341,,,right,0,0.3669947863527341,0,,,,,,,,,,,,,,,,,,,,,,1079,2019_Mar_15_1437,mf_amp_cond1,3.0.4,59.998768454783615,
faith,suggists,&&&&&&&&,left,sanctity.virtue,,,,,,,0,105,105,105,,,,,,,,,,,,,,,,,,,,,AMP,left,1.0004833276034333,,,left,1,1.0004833276034333,1,,,,,,,,,,,,,,,,,,,,,,1079,2019_Mar_15_1437,mf_amp_cond1,3.0.4,59.998768454783615,
intelligence,totalestic,&&&&&&&&&&,left,loyalty.virtue,,,,,,,0,106,106,106,,,,,,,,,,,,,,,,,,,,,AMP,left,0.817110053714714,,,left,1,0.817110053714714,1,,,,,,,,,,,,,,,,,,,,,,1079,2019_Mar_15_1437,mf_amp_cond1,3.0.4,59.998768454783615,
carvels,fonderland,&&&&&&&&&&,None,nonword,,,,,,,0,107,107,107,,,,,,,,,,,,,,,,,,,,,AMP,left,1.0671697079669684,,,left,0,1.0671697079669684,0,,,,,,,,,,,,,,,,,,,,,,1079,2019_Mar_15_1437,mf_amp_cond1,3.0.4,59.998768454783615,
focomotive,frojecting,&&&&&&&&&&,None,nonword,,,,,,,0,108,108,108,,,,,,,,,,,,,,,,,,,,,AMP,left,0.38363703541108407,,,left,0,0.38363703541108407,0,,,,,,,,,,,,,,,,,,,,,,1079,2019_Mar_15_1437,mf_amp_cond1,3.0.4,59.998768454783615,
safe,fangsters,&&&&&&&&&,left,care.virtue,,,,,,,0,109,109,109,,,,,,,,,,,,,,,,,,,,,AMP,right,0.4003363729279954,,,right,0,0.4003363729279954,0,,,,,,,,,,,,,,,,,,,,,,1079,2019_Mar_15_1437,mf_amp_cond1,3.0.4,59.998768454783615,
terrorists,perified,&&&&&&&&,right,fairness.vice,,,,,,,0,110,110,110,,,,,,,,,,,,,,,,,,,,,AMP,left,0.8838006034638966,,,left,0,0.8838006034638966,0,,,,,,,,,,,,,,,,,,,,,,1079,2019_Mar_15_1437,mf_amp_cond1,3.0.4,59.998768454783615,
health,pistraught,&&&&&&&&&&,left,care.virtue,,,,,,,0,111,111,111,,,,,,,,,,,,,,,,,,,,,AMP,left,0.3836540336487815,,,left,1,0.3836540336487815,1,,,,,,,,,,,,,,,,,,,,,,1079,2019_Mar_15_1437,mf_amp_cond1,3.0.4,59.998768454783615,
growth,feleological,&&&&&&&&&&&&,left,care.virtue,,,,,,,0,112,112,112,,,,,,,,,,,,,,,,,,,,,AMP,left,0.433685015377705,,,left,1,0.433685015377705,1,,,,,,,,,,,,,,,,,,,,,,1079,2019_Mar_15_1437,mf_amp_cond1,3.0.4,59.998768454783615,
fear,Cunday,&&&&&&,right,sanctity.vice,,,,,,,0,113,113,113,,,,,,,,,,,,,,,,,,,,,AMP,right,0.333654803383979,,,right,1,0.333654803383979,1,,,,,,,,,,,,,,,,,,,,,,1079,2019_Mar_15_1437,mf_amp_cond1,3.0.4,59.998768454783615,
elduringly,seachwear,&&&&&&&&&,None,nonword,,,,,,,0,114,114,114,,,,,,,,,,,,,,,,,,,,,AMP,right,0.8004366946697701,,,right,0,0.8004366946697701,0,,,,,,,,,,,,,,,,,,,,,,1079,2019_Mar_15_1437,mf_amp_cond1,3.0.4,59.998768454783615,
voter,touls,&&&&&,right,fairness.vice,,,,,,,0,115,115,115,,,,,,,,,,,,,,,,,,,,,AMP,right,0.5003620947973104,,,right,1,0.5003620947973104,1,,,,,,,,,,,,,,,,,,,,,,1079,2019_Mar_15_1437,mf_amp_cond1,3.0.4,59.998768454783615,
fair,smapper,&&&&&&&,left,fairness.virtue,,,,,,,0,116,116,116,,,,,,,,,,,,,,,,,,,,,AMP,right,0.7169515530695207,,,right,0,0.7169515530695207,0,,,,,,,,,,,,,,,,,,,,,,1079,2019_Mar_15_1437,mf_amp_cond1,3.0.4,59.998768454783615,
harassment,letish,&&&&&&,right,sanctity.vice,,,,,,,0,117,117,117,,,,,,,,,,,,,,,,,,,,,AMP,left,0.7671063333546044,,,left,0,0.7671063333546044,0,,,,,,,,,,,,,,,,,,,,,,1079,2019_Mar_15_1437,mf_amp_cond1,3.0.4,59.998768454783615,
rebels,esquisiteness,&&&&&&&&&&&&&,right,authority.vice,,,,,,,0,118,118,118,,,,,,,,,,,,,,,,,,,,,AMP,right,0.45034907350782305,,,right,1,0.45034907350782305,1,,,,,,,,,,,,,,,,,,,,,,1079,2019_Mar_15_1437,mf_amp_cond1,3.0.4,59.998768454783615,
praise,fegard,&&&&&&,left,authority.virtue,,,,,,,0,119,119,119,,,,,,,,,,,,,,,,,,,,,AMP,left,1.0004996844072593,,,left,1,1.0004996844072593,1,,,,,,,,,,,,,,,,,,,,,,1079,2019_Mar_15_1437,mf_amp_cond1,3.0.4,59.998768454783615,
army,bluently,&&&&&&&&,right,loyalty.vice,,,,,,,0,120,120,120,,,,,,,,,,,,,,,,,,,,,AMP,right,0.3836678246880183,,,right,1,0.3836678246880183,1,,,,,,,,,,,,,,,,,,,,,,1079,2019_Mar_15_1437,mf_amp_cond1,3.0.4,59.998768454783615,
hate,troubla,&&&&&&&,right,fairness.vice,,,,,,,0,121,121,121,,,,,,,,,,,,,,,,,,,,,AMP,right,0.6837411416781833,,,right,1,0.6837411416781833,1,,,,,,,,,,,,,,,,,,,,,,1079,2019_Mar_15_1437,mf_amp_cond1,3.0.4,59.998768454783615,
illegal,nonobservalt,&&&&&&&&&&&&,right,fairness.vice,,,,,,,0,122,122,122,,,,,,,,,,,,,,,,,,,,,AMP,left,1.3839183083327953,,,left,0,1.3839183083327953,0,,,,,,,,,,,,,,,,,,,,,,1079,2019_Mar_15_1437,mf_amp_cond1,3.0.4,59.998768454783615,
died,tabin,&&&&&,right,care.vice,,,,,,,0,123,123,123,,,,,,,,,,,,,,,,,,,,,AMP,right,0.4836996402882505,,,right,1,0.4836996402882505,1,,,,,,,,,,,,,,,,,,,,,,1079,2019_Mar_15_1437,mf_amp_cond1,3.0.4,59.998768454783615,
sowntrodden,ejanulated,&&&&&&&&&&,None,nonword,,,,,,,0,124,124,124,,,,,,,,,,,,,,,,,,,,,AMP,left,0.5670558517595055,,,left,0,0.5670558517595055,0,,,,,,,,,,,,,,,,,,,,,,1079,2019_Mar_15_1437,mf_amp_cond1,3.0.4,59.998768454783615,
benefit,tove,&&&&,left,fairness.virtue,,,,,,,0,125,125,125,,,,,,,,,,,,,,,,,,,,,AMP,right,0.3169840100890724,,,right,0,0.3169840100890724,0,,,,,,,,,,,,,,,,,,,,,,1079,2019_Mar_15_1437,mf_amp_cond1,3.0.4,59.998768454783615,
compassion,taxpayung,&&&&&&&&&,left,care.virtue,,,,,,,0,126,126,126,,,,,,,,,,,,,,,,,,,,,AMP,left,0.6335841163236182,,,left,1,0.6335841163236182,1,,,,,,,,,,,,,,,,,,,,,,1079,2019_Mar_15_1437,mf_amp_cond1,3.0.4,59.998768454783615,
ensure,neneficence,&&&&&&&&&&&,left,fairness.virtue,,,,,,,0,127,127,127,,,,,,,,,,,,,,,,,,,,,AMP,left,1.5339570515207015,,,left,1,1.5339570515207015,1,,,,,,,,,,,,,,,,,,,,,,1079,2019_Mar_15_1437,mf_amp_cond1,3.0.4,59.998768454783615,
hand,proached,&&&&&&&&,left,sanctity.virtue,,,,,,,0,128,128,128,,,,,,,,,,,,,,,,,,,,,AMP,left,0.4836932258476736,,,left,1,0.4836932258476736,1,,,,,,,,,,,,,,,,,,,,,,1079,2019_Mar_15_1437,mf_amp_cond1,3.0.4,59.998768454783615,
unpleasant,gazily,&&&&&&,None,control,,,,,,,0,129,129,129,,,,,,,,,,,,,,,,,,,,,AMP,right,0.36700055934488773,,,right,0,0.36700055934488773,0,,,,,,,,,,,,,,,,,,,,,,1079,2019_Mar_15_1437,mf_amp_cond1,3.0.4,59.998768454783615,
dignity,fostet,&&&&&&,left,sanctity.virtue,,,,,,,0,130,130,130,,,,,,,,,,,,,,,,,,,,,AMP,right,0.3503304074984044,,,right,0,0.3503304074984044,0,,,,,,,,,,,,,,,,,,,,,,1079,2019_Mar_15_1437,mf_amp_cond1,3.0.4,59.998768454783615,
conspiracy,precificity,&&&&&&&&&&&,right,sanctity.vice,,,,,,,0,131,131,131,,,,,,,,,,,,,,,,,,,,,AMP,left,0.3336544826743193,,,left,0,0.3336544826743193,0,,,,,,,,,,,,,,,,,,,,,,1079,2019_Mar_15_1437,mf_amp_cond1,3.0.4,59.998768454783615,
troops,nuckheap,&&&&&&&&,right,loyalty.vice,,,,,,,0,132,132,132,,,,,,,,,,,,,,,,,,,,,AMP,right,0.5670494373189285,,,right,1,0.5670494373189285,1,,,,,,,,,,,,,,,,,,,,,,1079,2019_Mar_15_1437,mf_amp_cond1,3.0.4,59.998768454783615,
victims,gikely,&&&&&&,right,care.vice,,,,,,,0,133,133,133,,,,,,,,,,,,,,,,,,,,,AMP,right,0.350359913893044,,,right,1,0.350359913893044,1,,,,,,,,,,,,,,,,,,,,,,1079,2019_Mar_15_1437,mf_amp_cond1,3.0.4,59.998768454783615,
death,rorroborated,&&&&&&&&&&&&,right,care.vice,,,,,,,0,134,134,134,,,,,,,,,,,,,,,,,,,,,AMP,right,0.8504141158628045,,,right,1,0.8504141158628045,1,,,,,,,,,,,,,,,,,,,,,,1079,2019_Mar_15_1437,mf_amp_cond1,3.0.4,59.998768454783615,
care,tomedians,&&&&&&&&&,left,care.virtue,,,,,,,0,135,135,135,,,,,,,,,,,,,,,,,,,,,AMP,left,0.9337693651759764,,,left,1,0.9337693651759764,1,,,,,,,,,,,,,,,,,,,,,,1079,2019_Mar_15_1437,mf_amp_cond1,3.0.4,59.998768454783615,
ability,yane,&&&&,left,authority.virtue,,,,,,,0,136,136,136,,,,,,,,,,,,,,,,,,,,,AMP,right,0.40033476930693723,,,right,0,0.40033476930693723,0,,,,,,,,,,,,,,,,,,,,,,1079,2019_Mar_15_1437,mf_amp_cond1,3.0.4,59.998768454783615,
pescinded,framatic,&&&&&&&&,None,nonword,,,,,,,0,137,137,137,,,,,,,,,,,,,,,,,,,,,AMP,left,0.4003382972587133,,,left,0,0.4003382972587133,0,,,,,,,,,,,,,,,,,,,,,,1079,2019_Mar_15_1437,mf_amp_cond1,3.0.4,59.998768454783615,
sexual,quarterbocks,&&&&&&&&&&&&,right,sanctity.vice,,,,,,,0,138,138,138,,,,,,,,,,,,,,,,,,,,,AMP,right,0.28364210280415136,,,right,1,0.28364210280415136,1,,,,,,,,,,,,,,,,,,,,,,1079,2019_Mar_15_1437,mf_amp_cond1,3.0.4,59.998768454783615,
gun,ebbitter,&&&&&&&&,right,authority.vice,,,,,,,0,139,139,139,,,,,,,,,,,,,,,,,,,,,AMP,left,0.8504516403045272,,,left,0,0.8504516403045272,0,,,,,,,,,,,,,,,,,,,,,,1079,2019_Mar_15_1437,mf_amp_cond1,3.0.4,59.998768454783615,
officers,alar,&&&&,right,authority.vice,,,,,,,0,140,140,140,,,,,,,,,,,,,,,,,,,,,AMP,left,1.1171929923584685,,,left,0,1.1171929923584685,0,,,,,,,,,,,,,,,,,,,,,,1079,2019_Mar_15_1437,mf_amp_cond1,3.0.4,59.998768454783615,
accused,gournful,&&&&&&&&,right,fairness.vice,,,,,,,0,141,141,141,,,,,,,,,,,,,,,,,,,,,AMP,right,1.1171881815389497,,,right,1,1.1171881815389497,1,,,,,,,,,,,,,,,,,,,,,,1079,2019_Mar_15_1437,mf_amp_cond1,3.0.4,59.998768454783615,
safety,ning,&&&&,left,care.virtue,,,,,,,0,142,142,142,,,,,,,,,,,,,,,,,,,,,AMP,right,0.3669886926363688,,,right,0,0.3669886926363688,0,,,,,,,,,,,,,,,,,,,,,,1079,2019_Mar_15_1437,mf_amp_cond1,3.0.4,59.998768454783615,
strength,nackers,&&&&&&&,left,sanctity.virtue,,,,,,,0,143,143,143,,,,,,,,,,,,,,,,,,,,,AMP,right,0.3836626931442879,,,right,0,0.3836626931442879,0,,,,,,,,,,,,,,,,,,,,,,1079,2019_Mar_15_1437,mf_amp_cond1,3.0.4,59.998768454783615,
useful,scalbel,&&&&&&&,left,authority.virtue,,,,,,,0,144,144,144,,,,,,,,,,,,,,,,,,,,,AMP,left,0.6170903614256531,,,left,1,0.6170903614256531,1,,,,,,,,,,,,,,,,,,,,,,1079,2019_Mar_15_1437,mf_amp_cond1,3.0.4,59.998768454783615,
party,pafer,&&&&&,left,loyalty.virtue,,,,,,,0,145,145,145,,,,,,,,,,,,,,,,,,,,,AMP,left,0.5503946801327402,,,left,1,0.5503946801327402,1,,,,,,,,,,,,,,,,,,,,,,1079,2019_Mar_15_1437,mf_amp_cond1,3.0.4,59.998768454783615,
torture,Lacedonia,&&&&&&&&&,right,care.vice,,,,,,,0,146,146,146,,,,,,,,,,,,,,,,,,,,,AMP,left,0.7337615395663306,,,left,0,0.7337615395663306,0,,,,,,,,,,,,,,,,,,,,,,1079,2019_Mar_15_1437,mf_amp_cond1,3.0.4,59.998768454783615,
violence,asn,&&&,right,care.vice,,,,,,,0,147,147,147,,,,,,,,,,,,,,,,,,,,,AMP,right,0.1669452669157181,,,right,1,0.1669452669157181,1,,,,,,,,,,,,,,,,,,,,,,1079,2019_Mar_15_1437,mf_amp_cond1,3.0.4,59.998768454783615,
blamed,papert,&&&&&&,right,loyalty.vice,,,,,,,0,148,148,148,,,,,,,,,,,,,,,,,,,,,AMP,left,0.5837115711183287,,,left,0,0.5837115711183287,0,,,,,,,,,,,,,,,,,,,,,,1079,2019_Mar_15_1437,mf_amp_cond1,3.0.4,59.998768454783615,
friends,chreams,&&&&&&&,left,loyalty.virtue,,,,,,,0,149,149,149,,,,,,,,,,,,,,,,,,,,,AMP,right,0.4003469567396678,,,right,0,0.4003469567396678,0,,,,,,,,,,,,,,,,,,,,,,1079,2019_Mar_15_1437,mf_amp_cond1,3.0.4,59.998768454783615,
protect,thabbily,&&&&&&&&,left,fairness.virtue,,,,,,,0,150,150,150,,,,,,,,,,,,,,,,,,,,,AMP,right,1.150614438636694,,,right,0,1.150614438636694,0,,,,,,,,,,,,,,,,,,,,,,1079,2019_Mar_15_1437,mf_amp_cond1,3.0.4,59.998768454783615,
powerful,nomparisons,&&&&&&&&&&&,left,authority.virtue,,,,,,,0,151,151,151,,,,,,,,,,,,,,,,,,,,,AMP,left,0.4336789216613397,,,left,1,0.4336789216613397,1,,,,,,,,,,,,,,,,,,,,,,1079,2019_Mar_15_1437,mf_amp_cond1,3.0.4,59.998768454783615,
commitment,divility,&&&&&&&&,left,sanctity.virtue,,,,,,,0,152,152,152,,,,,,,,,,,,,,,,,,,,,AMP,right,0.35032174801744986,,,right,0,0.35032174801744986,0,,,,,,,,,,,,,,,,,,,,,,1079,2019_Mar_15_1437,mf_amp_cond1,3.0.4,59.998768454783615,
peaceful,shoirmaster,&&&&&&&&&&&,left,authority.virtue,,,,,,,0,153,153,153,,,,,,,,,,,,,,,,,,,,,AMP,right,0.4170020346500678,,,right,0,0.4170020346500678,0,,,,,,,,,,,,,,,,,,,,,,1079,2019_Mar_15_1437,mf_amp_cond1,3.0.4,59.998768454783615,
corruption,Boeinf,&&&&&&,right,sanctity.vice,,,,,,,0,154,154,154,,,,,,,,,,,,,,,,,,,,,AMP,right,0.6837449903250672,,,right,1,0.6837449903250672,1,,,,,,,,,,,,,,,,,,,,,,1079,2019_Mar_15_1437,mf_amp_cond1,3.0.4,59.998768454783615,
progress,scock,&&&&&,left,authority.virtue,,,,,,,0,155,155,155,,,,,,,,,,,,,,,,,,,,,AMP,right,0.6170618171890965,,,right,0,0.6170618171890965,0,,,,,,,,,,,,,,,,,,,,,,1079,2019_Mar_15_1437,mf_amp_cond1,3.0.4,59.998768454783615,
gationwide,emassion,&&&&&&&&,None,nonword,,,,,,,0,156,156,156,,,,,,,,,,,,,,,,,,,,,AMP,left,0.6003839680197416,,,left,0,0.6003839680197416,0,,,,,,,,,,,,,,,,,,,,,,1079,2019_Mar_15_1437,mf_amp_cond1,3.0.4,59.998768454783615,
lies,antral,&&&&&&,right,fairness.vice,,,,,,,0,157,157,157,,,,,,,,,,,,,,,,,,,,,AMP,left,0.9505081514653284,,,left,0,0.9505081514653284,0,,,,,,,,,,,,,,,,,,,,,,1079,2019_Mar_15_1437,mf_amp_cond1,3.0.4,59.998768454783615,
credit,hefurbished,&&&&&&&&&&&,left,fairness.virtue,,,,,,,0,158,158,158,,,,,,,,,,,,,,,,,,,,,AMP,left,0.48371471419523004,,,left,1,0.48371471419523004,1,,,,,,,,,,,,,,,,,,,,,,1079,2019_Mar_15_1437,mf_amp_cond1,3.0.4,59.998768454783615,
threatened,fornicalion,&&&&&&&&&&&,right,fairness.vice,,,,,,,0,159,159,159,,,,,,,,,,,,,,,,,,,,,AMP,left,0.417019995074952,,,left,0,0.417019995074952,0,,,,,,,,,,,,,,,,,,,,,,1079,2019_Mar_15_1437,mf_amp_cond1,3.0.4,59.998768454783615,
praised,allears,&&&&&&&,left,loyalty.virtue,,,,,,,0,160,160,160,,,,,,,,,,,,,,,,,,,,,AMP,right,0.5170364160294412,,,right,0,0.5170364160294412,0,,,,,,,,,,,,,,,,,,,,,,1079,2019_Mar_15_1437,mf_amp_cond1,3.0.4,59.998768454783615,
shot,vicissifude,&&&&&&&&&&&,right,care.vice,,,,,,,0,161,161,161,,,,,,,,,,,,,,,,,,,,,AMP,left,0.38366429675079416,,,left,0,0.38366429675079416,0,,,,,,,,,,,,,,,,,,,,,,1079,2019_Mar_15_1437,mf_amp_cond1,3.0.4,59.998768454783615,
improve,egpeditious,&&&&&&&&&&&,left,care.virtue,,,,,,,0,162,162,162,,,,,,,,,,,,,,,,,,,,,AMP,left,0.3336695565812988,,,left,1,0.3336695565812988,1,,,,,,,,,,,,,,,,,,,,,,1079,2019_Mar_15_1437,mf_amp_cond1,3.0.4,59.998768454783615,
war,reviked,&&&&&&&,right,sanctity.vice,,,,,,,0,163,163,163,,,,,,,,,,,,,,,,,,,,,AMP,right,0.5837535856699105,,,right,1,0.5837535856699105,1,,,,,,,,,,,,,,,,,,,,,,1079,2019_Mar_15_1437,mf_amp_cond1,3.0.4,59.998768454783615,
party,emports,&&&&&&&,left,loyalty.virtue,,,,,,,0,164,164,164,,,,,,,,,,,,,,,,,,,,,AMP,right,0.3836700697429478,,,right,0,0.3836700697429478,0,,,,,,,,,,,,,,,,,,,,,,1079,2019_Mar_15_1437,mf_amp_cond1,3.0.4,59.998768454783615,
victims,smapper,&&&&&&&,right,care.vice,,,,,,,0,165,165,165,,,,,,,,,,,,,,,,,,,,,AMP,right,1.4339415927388472,,,right,1,1.4339415927388472,1,,,,,,,,,,,,,,,,,,,,,,1079,2019_Mar_15_1437,mf_amp_cond1,3.0.4,59.998768454783615,
ban,vicissifude,&&&&&&&&&&&,right,loyalty.vice,,,,,,,0,166,166,166,,,,,,,,,,,,,,,,,,,,,AMP,left,0.466986832456314,,,left,0,0.466986832456314,0,,,,,,,,,,,,,,,,,,,,,,1079,2019_Mar_15_1437,mf_amp_cond1,3.0.4,59.998768454783615,
unreflectuve,nackers,&&&&&&&,None,nonword,,,,,,,0,167,167,167,,,,,,,,,,,,,,,,,,,,,AMP,right,0.5003646605764516,,,right,0,0.5003646605764516,0,,,,,,,,,,,,,,,,,,,,,,1079,2019_Mar_15_1437,mf_amp_cond1,3.0.4,59.998768454783615,
growth,Lacedonia,&&&&&&&&&,left,care.virtue,,,,,,,0,168,168,168,,,,,,,,,,,,,,,,,,,,,AMP,left,0.4003248269436881,,,left,1,0.4003248269436881,1,,,,,,,,,,,,,,,,,,,,,,1079,2019_Mar_15_1437,mf_amp_cond1,3.0.4,59.998768454783615,
unpleasant,stindig,&&&&&&&,None,control,,,,,,,0,169,169,169,,,,,,,,,,,,,,,,,,,,,AMP,left,0.5670449472236214,,,left,0,0.5670449472236214,0,,,,,,,,,,,,,,,,,,,,,,1079,2019_Mar_15_1437,mf_amp_cond1,3.0.4,59.998768454783615,
blamed,infet,&&&&&,right,loyalty.vice,,,,,,,0,170,170,170,,,,,,,,,,,,,,,,,,,,,AMP,right,0.5336908525059698,,,right,1,0.5336908525059698,1,,,,,,,,,,,,,,,,,,,,,,1079,2019_Mar_15_1437,mf_amp_cond1,3.0.4,59.998768454783615,
protect,reviked,&&&&&&&,left,fairness.virtue,,,,,,,0,171,171,171,,,,,,,,,,,,,,,,,,,,,AMP,left,0.6837732138374122,,,left,1,0.6837732138374122,1,,,,,,,,,,,,,,,,,,,,,,1079,2019_Mar_15_1437,mf_amp_cond1,3.0.4,59.998768454783615,
officers,yane,&&&&,right,authority.vice,,,,,,,0,172,172,172,,,,,,,,,,,,,,,,,,,,,AMP,right,0.26697098879958503,,,right,1,0.26697098879958503,1,,,,,,,,,,,,,,,,,,,,,,1079,2019_Mar_15_1437,mf_amp_cond1,3.0.4,59.998768454783615,
ability,rivernoat,&&&&&&&&&,left,authority.virtue,,,,,,,0,173,173,173,,,,,,,,,,,,,,,,,,,,,AMP,left,0.5503860206372337,,,left,1,0.5503860206372337,1,,,,,,,,,,,,,,,,,,,,,,1079,2019_Mar_15_1437,mf_amp_cond1,3.0.4,59.998768454783615,
improve,strofe,&&&&&&,left,care.virtue,,,,,,,0,174,174,174,,,,,,,,,,,,,,,,,,,,,AMP,right,0.3503576688381145,,,right,0,0.3503576688381145,0,,,,,,,,,,,,,,,,,,,,,,1079,2019_Mar_15_1437,mf_amp_cond1,3.0.4,59.998768454783615,
scandal,mih,&&&,right,sanctity.vice,,,,,,,0,175,175,175,,,,,,,,,,,,,,,,,,,,,AMP,right,0.5837215134961298,,,right,1,0.5837215134961298,1,,,,,,,,,,,,,,,,,,,,,,1079,2019_Mar_15_1437,mf_amp_cond1,3.0.4,59.998768454783615,
safety,pullness,&&&&&&&&,left,care.virtue,,,,,,,0,176,176,176,,,,,,,,,,,,,,,,,,,,,AMP,right,0.6336806535546202,,,right,0,0.6336806535546202,0,,,,,,,,,,,,,,,,,,,,,,1079,2019_Mar_15_1437,mf_amp_cond1,3.0.4,59.998768454783615,
focomotive,antral,&&&&&&,None,nonword,,,,,,,0,177,177,177,,,,,,,,,,,,,,,,,,,,,AMP,left,0.6170752874895697,,,left,0,0.6170752874895697,0,,,,,,,,,,,,,,,,,,,,,,1079,2019_Mar_15_1437,mf_amp_cond1,3.0.4,59.998768454783615,
sexual,baklara,&&&&&&&,right,sanctity.vice,,,,,,,0,178,178,178,,,,,,,,,,,,,,,,,,,,,AMP,left,0.5336988705385011,,,left,0,0.5336988705385011,0,,,,,,,,,,,,,,,,,,,,,,1079,2019_Mar_15_1437,mf_amp_cond1,3.0.4,59.998768454783615,
torture,egpeditious,&&&&&&&&&&&,right,care.vice,,,,,,,0,179,179,179,,,,,,,,,,,,,,,,,,,,,AMP,left,0.4503551672096364,,,left,0,0.4503551672096364,0,,,,,,,,,,,,,,,,,,,,,,1079,2019_Mar_15_1437,mf_amp_cond1,3.0.4,59.998768454783615,
violence,chreams,&&&&&&&,right,care.vice,,,,,,,0,180,180,180,,,,,,,,,,,,,,,,,,,,,AMP,right,0.4503641474293545,,,right,1,0.4503641474293545,1,,,,,,,,,,,,,,,,,,,,,,1079,2019_Mar_15_1437,mf_amp_cond1,3.0.4,59.998768454783615,
attacks,gournful,&&&&&&&&,right,care.vice,,,,,,,0,181,181,181,,,,,,,,,,,,,,,,,,,,,AMP,right,0.6170611757406732,,,right,1,0.6170611757406732,1,,,,,,,,,,,,,,,,,,,,,,1079,2019_Mar_15_1437,mf_amp_cond1,3.0.4,59.998768454783615,
black,alar,&&&&,right,loyalty.vice,,,,,,,0,182,182,182,,,,,,,,,,,,,,,,,,,,,AMP,right,0.5337392814835766,,,right,1,0.5337392814835766,1,,,,,,,,,,,,,,,,,,,,,,1079,2019_Mar_15_1437,mf_amp_cond1,3.0.4,59.998768454783615,
corruption,bycled,&&&&&&,right,sanctity.vice,,,,,,,0,183,183,183,,,,,,,,,,,,,,,,,,,,,AMP,right,0.8171225618716562,,,right,1,0.8171225618716562,1,,,,,,,,,,,,,,,,,,,,,,1079,2019_Mar_15_1437,mf_amp_cond1,3.0.4,59.998768454783615,
died,nomparisons,&&&&&&&&&&&,right,care.vice,,,,,,,0,184,184,184,,,,,,,,,,,,,,,,,,,,,AMP,left,0.4335458221466979,,,left,0,0.4335458221466979,0,,,,,,,,,,,,,,,,,,,,,,1079,2019_Mar_15_1437,mf_amp_cond1,3.0.4,59.998768454783615,
prosecution,emassion,&&&&&&&&,right,authority.vice,,,,,,,0,185,185,185,,,,,,,,,,,,,,,,,,,,,AMP,right,0.4670400722534396,,,right,1,0.4670400722534396,1,,,,,,,,,,,,,,,,,,,,,,1079,2019_Mar_15_1437,mf_amp_cond1,3.0.4,59.998768454783615,
safe,scock,&&&&&,left,care.virtue,,,,,,,0,186,186,186,,,,,,,,,,,,,,,,,,,,,AMP,right,0.3836687868461013,,,right,0,0.3836687868461013,0,,,,,,,,,,,,,,,,,,,,,,1079,2019_Mar_15_1437,mf_amp_cond1,3.0.4,59.998768454783615,
gun,neneficence,&&&&&&&&&&&,right,authority.vice,,,,,,,0,187,187,187,,,,,,,,,,,,,,,,,,,,,AMP,left,0.8003023122728337,,,left,0,0.8003023122728337,0,,,,,,,,,,,,,,,,,,,,,,1079,2019_Mar_15_1437,mf_amp_cond1,3.0.4,59.998768454783615,
brudent,allears,&&&&&&&,None,nonword,,,,,,,0,188,188,188,,,,,,,,,,,,,,,,,,,,,AMP,left,0.8171033185790293,,,left,0,0.8171033185790293,0,,,,,,,,,,,,,,,,,,,,,,1079,2019_Mar_15_1437,mf_amp_cond1,3.0.4,59.998768454783615,
carvels,taxpayung,&&&&&&&&&,None,nonword,,,,,,,0,189,189,189,,,,,,,,,,,,,,,,,,,,,AMP,left,1.2005427894036984,,,left,0,1.2005427894036984,0,,,,,,,,,,,,,,,,,,,,,,1079,2019_Mar_15_1437,mf_amp_cond1,3.0.4,59.998768454783615,
fair,simplustic,&&&&&&&&&&,left,fairness.virtue,,,,,,,0,190,190,190,,,,,,,,,,,,,,,,,,,,,AMP,right,0.5003582461358747,,,right,0,0.5003582461358747,0,,,,,,,,,,,,,,,,,,,,,,1079,2019_Mar_15_1437,mf_amp_cond1,3.0.4,59.998768454783615,
strength,thabbily,&&&&&&&&,left,sanctity.virtue,,,,,,,0,191,191,191,,,,,,,,,,,,,,,,,,,,,AMP,right,0.5170646395272342,,,right,0,0.5170646395272342,0,,,,,,,,,,,,,,,,,,,,,,1079,2019_Mar_15_1437,mf_amp_cond1,3.0.4,59.998768454783615,
fighters,totalestic,&&&&&&&&&&,right,authority.vice,,,,,,,0,192,192,192,,,,,,,,,,,,,,,,,,,,,AMP,left,0.38367391838983167,,,left,0,0.38367391838983167,0,,,,,,,,,,,,,,,,,,,,,,1079,2019_Mar_15_1437,mf_amp_cond1,3.0.4,59.998768454783615,
death,Boeinf,&&&&&&,right,care.vice,,,,,,,0,193,193,193,,,,,,,,,,,,,,,,,,,,,AMP,left,0.45036382669059094,,,left,0,0.45036382669059094,0,,,,,,,,,,,,,,,,,,,,,,1079,2019_Mar_15_1437,mf_amp_cond1,3.0.4,59.998768454783615,
credit,letish,&&&&&&,left,fairness.virtue,,,,,,,0,194,194,194,,,,,,,,,,,,,,,,,,,,,AMP,right,0.816967974009458,,,right,0,0.816967974009458,0,,,,,,,,,,,,,,,,,,,,,,1079,2019_Mar_15_1437,mf_amp_cond1,3.0.4,59.998768454783615,
sowntrodden,reelectiob,&&&&&&&&&&,None,nonword,,,,,,,0,195,195,195,,,,,,,,,,,,,,,,,,,,,AMP,left,0.25029955407080706,,,left,0,0.25029955407080706,0,,,,,,,,,,,,,,,,,,,,,,1079,2019_Mar_15_1437,mf_amp_cond1,3.0.4,59.998768454783615,
army,pistraught,&&&&&&&&&&,right,loyalty.vice,,,,,,,0,196,196,196,,,,,,,,,,,,,,,,,,,,,AMP,right,0.8504872404009802,,,right,1,0.8504872404009802,1,,,,,,,,,,,,,,,,,,,,,,1079,2019_Mar_15_1437,mf_amp_cond1,3.0.4,59.998768454783615,
arrests,fostet,&&&&&&,right,authority.vice,,,,,,,0,197,197,197,,,,,,,,,,,,,,,,,,,,,AMP,right,1.1005266891879728,,,right,1,1.1005266891879728,1,,,,,,,,,,,,,,,,,,,,,,1079,2019_Mar_15_1437,mf_amp_cond1,3.0.4,59.998768454783615,
pleasant,uller,&&&&&,None,control,,,,,,,0,198,198,198,,,,,,,,,,,,,,,,,,,,,AMP,right,0.45035324287891854,,,right,0,0.45035324287891854,0,,,,,,,,,,,,,,,,,,,,,,1079,2019_Mar_15_1437,mf_amp_cond1,3.0.4,59.998768454783615,
fear,prones,&&&&&&,right,sanctity.vice,,,,,,,0,199,199,199,,,,,,,,,,,,,,,,,,,,,AMP,right,0.45034586628025863,,,right,1,0.45034586628025863,1,,,,,,,,,,,,,,,,,,,,,,1079,2019_Mar_15_1437,mf_amp_cond1,3.0.4,59.998768454783615,
useful,divility,&&&&&&&&,left,authority.virtue,,,,,,,0,200,200,200,,,,,,,,,,,,,,,,,,,,,AMP,right,0.30031033031991683,,,right,0,0.30031033031991683,0,,,,,,,,,,,,,,,,,,,,,,1079,2019_Mar_15_1437,mf_amp_cond1,3.0.4,59.998768454783615,
commitment,asn,&&&,left,sanctity.virtue,,,,,,,0,201,201,201,,,,,,,,,,,,,,,,,,,,,AMP,left,0.633735496958252,,,left,1,0.633735496958252,1,,,,,,,,,,,,,,,,,,,,,,1079,2019_Mar_15_1437,mf_amp_cond1,3.0.4,59.998768454783615,
dignity,touls,&&&&&,left,sanctity.virtue,,,,,,,0,202,202,202,,,,,,,,,,,,,,,,,,,,,AMP,right,0.6337566645961488,,,right,0,0.6337566645961488,0,,,,,,,,,,,,,,,,,,,,,,1079,2019_Mar_15_1437,mf_amp_cond1,3.0.4,59.998768454783615,
harassment,tove,&&&&,right,sanctity.vice,,,,,,,0,203,203,203,,,,,,,,,,,,,,,,,,,,,AMP,right,1.4172162767499685,,,right,1,1.4172162767499685,1,,,,,,,,,,,,,,,,,,,,,,1079,2019_Mar_15_1437,mf_amp_cond1,3.0.4,59.998768454783615,
interests,papert,&&&&&&,left,fairness.virtue,,,,,,,0,204,204,204,,,,,,,,,,,,,,,,,,,,,AMP,left,0.6170990209066076,,,left,1,0.6170990209066076,1,,,,,,,,,,,,,,,,,,,,,,1079,2019_Mar_15_1437,mf_amp_cond1,3.0.4,59.998768454783615,
rebels,feleological,&&&&&&&&&&&&,right,authority.vice,,,,,,,0,205,205,205,,,,,,,,,,,,,,,,,,,,,AMP,left,0.90048518779804,,,left,0,0.90048518779804,0,,,,,,,,,,,,,,,,,,,,,,1079,2019_Mar_15_1437,mf_amp_cond1,3.0.4,59.998768454783615,
praise,proached,&&&&&&&&,left,authority.virtue,,,,,,,0,206,206,206,,,,,,,,,,,,,,,,,,,,,AMP,left,0.6670655375492061,,,left,1,0.6670655375492061,1,,,,,,,,,,,,,,,,,,,,,,1079,2019_Mar_15_1437,mf_amp_cond1,3.0.4,59.998768454783615,
accused,troubla,&&&&&&&,right,fairness.vice,,,,,,,0,207,207,207,,,,,,,,,,,,,,,,,,,,,AMP,right,0.5003640191280283,,,right,1,0.5003640191280283,1,,,,,,,,,,,,,,,,,,,,,,1079,2019_Mar_15_1437,mf_amp_cond1,3.0.4,59.998768454783615,
voter,Cunday,&&&&&&,right,fairness.vice,,,,,,,0,208,208,208,,,,,,,,,,,,,,,,,,,,,AMP,right,0.21695283595181536,,,right,1,0.21695283595181536,1,,,,,,,,,,,,,,,,,,,,,,1079,2019_Mar_15_1437,mf_amp_cond1,3.0.4,59.998768454783615,
pescinded,gazily,&&&&&&,None,nonword,,,,,,,0,209,209,209,,,,,,,,,,,,,,,,,,,,,AMP,right,0.30031033031991683,,,right,0,0.30031033031991683,0,,,,,,,,,,,,,,,,,,,,,,1079,2019_Mar_15_1437,mf_amp_cond1,3.0.4,59.998768454783615,
laming,bluently,&&&&&&&&,None,nonword,,,,,,,0,210,210,210,,,,,,,,,,,,,,,,,,,,,AMP,right,0.45035548793384805,,,right,0,0.45035548793384805,0,,,,,,,,,,,,,,,,,,,,,,1079,2019_Mar_15_1437,mf_amp_cond1,3.0.4,59.998768454783615,
freedom,ejanulated,&&&&&&&&&&,left,sanctity.virtue,,,,,,,0,211,211,211,,,,,,,,,,,,,,,,,,,,,AMP,left,0.5837237585510593,,,left,1,0.5837237585510593,1,,,,,,,,,,,,,,,,,,,,,,1079,2019_Mar_15_1437,mf_amp_cond1,3.0.4,59.998768454783615,
progress,ning,&&&&,left,authority.virtue,,,,,,,0,212,212,212,,,,,,,,,,,,,,,,,,,,,AMP,right,0.26700690963480156,,,right,0,0.26700690963480156,0,,,,,,,,,,,,,,,,,,,,,,1079,2019_Mar_15_1437,mf_amp_cond1,3.0.4,59.998768454783615,
conspiracy,seachwear,&&&&&&&&&,right,sanctity.vice,,,,,,,0,213,213,213,,,,,,,,,,,,,,,,,,,,,AMP,right,0.5503731917706318,,,right,1,0.5503731917706318,1,,,,,,,,,,,,,,,,,,,,,,1079,2019_Mar_15_1437,mf_amp_cond1,3.0.4,59.998768454783615,
Phintoism,esquisiteness,&&&&&&&&&&&&&,None,nonword,,,,,,,0,214,214,214,,,,,,,,,,,,,,,,,,,,,AMP,left,0.33365833132120315,,,left,0,0.33365833132120315,0,,,,,,,,,,,,,,,,,,,,,,1079,2019_Mar_15_1437,mf_amp_cond1,3.0.4,59.998768454783615,
faith,framatic,&&&&&&&&,left,sanctity.virtue,,,,,,,0,215,215,215,,,,,,,,,,,,,,,,,,,,,AMP,right,0.3836415255063912,,,right,0,0.3836415255063912,0,,,,,,,,,,,,,,,,,,,,,,1079,2019_Mar_15_1437,mf_amp_cond1,3.0.4,59.998768454783615,
powerful,shoirmaster,&&&&&&&&&&&,left,authority.virtue,,,,,,,0,216,216,216,,,,,,,,,,,,,,,,,,,,,AMP,right,0.5170354538568063,,,right,0,0.5170354538568063,0,,,,,,,,,,,,,,,,,,,,,,1079,2019_Mar_15_1437,mf_amp_cond1,3.0.4,59.998768454783615,
troops,suggists,&&&&&&&&,right,loyalty.vice,,,,,,,0,217,217,217,,,,,,,,,,,,,,,,,,,,,AMP,left,0.9004749246960273,,,left,0,0.9004749246960273,0,,,,,,,,,,,,,,,,,,,,,,1079,2019_Mar_15_1437,mf_amp_cond1,3.0.4,59.998768454783615,
praised,fegard,&&&&&&,left,loyalty.virtue,,,,,,,0,218,218,218,,,,,,,,,,,,,,,,,,,,,AMP,left,0.5503542691876646,,,left,1,0.5503542691876646,1,,,,,,,,,,,,,,,,,,,,,,1079,2019_Mar_15_1437,mf_amp_cond1,3.0.4,59.998768454783615,
trust,quarterbocks,&&&&&&&&&&&&,left,authority.virtue,,,,,,,0,219,219,219,,,,,,,,,,,,,,,,,,,,,AMP,left,0.4670192253397545,,,left,1,0.4670192253397545,1,,,,,,,,,,,,,,,,,,,,,,1079,2019_Mar_15_1437,mf_amp_cond1,3.0.4,59.998768454783615,
intelligence,halaise,&&&&&&&,left,loyalty.virtue,,,,,,,0,220,220,220,,,,,,,,,,,,,,,,,,,,,AMP,left,2.0340693041071063,,,left,1,2.0340693041071063,1,,,,,,,,,,,,,,,,,,,,,,1079,2019_Mar_15_1437,mf_amp_cond1,3.0.4,59.998768454783615,
hate,fonderland,&&&&&&&&&&,right,fairness.vice,,,,,,,0,221,221,221,,,,,,,,,,,,,,,,,,,,,AMP,right,0.4336728279449744,,,right,1,0.4336728279449744,1,,,,,,,,,,,,,,,,,,,,,,1079,2019_Mar_15_1437,mf_amp_cond1,3.0.4,59.998768454783615,
ensure,atson,&&&&&,left,fairness.virtue,,,,,,,0,222,222,222,,,,,,,,,,,,,,,,,,,,,AMP,left,0.3669983142754063,,,left,1,0.3669983142754063,1,,,,,,,,,,,,,,,,,,,,,,1079,2019_Mar_15_1437,mf_amp_cond1,3.0.4,59.998768454783615,
compassion,perified,&&&&&&&&,left,care.virtue,,,,,,,0,223,223,223,,,,,,,,,,,,,,,,,,,,,AMP,right,0.18370073073310778,,,right,0,0.18370073073310778,0,,,,,,,,,,,,,,,,,,,,,,1079,2019_Mar_15_1437,mf_amp_cond1,3.0.4,59.998768454783615,
loyalty,pafer,&&&&&,left,loyalty.virtue,,,,,,,0,224,224,224,,,,,,,,,,,,,,,,,,,,,AMP,right,0.41700973198749125,,,right,0,0.41700973198749125,0,,,,,,,,,,,,,,,,,,,,,,1079,2019_Mar_15_1437,mf_amp_cond1,3.0.4,59.998768454783615,
health,clamorek,&&&&&&&&,left,care.virtue,,,,,,,0,225,225,225,,,,,,,,,,,,,,,,,,,,,AMP,left,0.21695379810989834,,,left,1,0.21695379810989834,1,,,,,,,,,,,,,,,,,,,,,,1079,2019_Mar_15_1437,mf_amp_cond1,3.0.4,59.998768454783615,
care,nuckheap,&&&&&&&&,left,care.virtue,,,,,,,0,226,226,226,,,,,,,,,,,,,,,,,,,,,AMP,right,0.3169913867022842,,,right,0,0.3169913867022842,0,,,,,,,,,,,,,,,,,,,,,,1079,2019_Mar_15_1437,mf_amp_cond1,3.0.4,59.998768454783615,
great,tabin,&&&&&,left,loyalty.virtue,,,,,,,0,227,227,227,,,,,,,,,,,,,,,,,,,,,AMP,left,0.33364870968216565,,,left,1,0.33364870968216565,1,,,,,,,,,,,,,,,,,,,,,,1079,2019_Mar_15_1437,mf_amp_cond1,3.0.4,59.998768454783615,
failure,erks,&&&&,right,loyalty.vice,,,,,,,0,228,228,228,,,,,,,,,,,,,,,,,,,,,AMP,right,0.5003848660417134,,,right,1,0.5003848660417134,1,,,,,,,,,,,,,,,,,,,,,,1079,2019_Mar_15_1437,mf_amp_cond1,3.0.4,59.998768454783615,
shot,nonobservalt,&&&&&&&&&&&&,right,care.vice,,,,,,,0,229,229,229,,,,,,,,,,,,,,,,,,,,,AMP,right,0.5837474919680972,,,right,1,0.5837474919680972,1,,,,,,,,,,,,,,,,,,,,,,1079,2019_Mar_15_1437,mf_amp_cond1,3.0.4,59.998768454783615,
lies,frojecting,&&&&&&&&&&,right,fairness.vice,,,,,,,0,230,230,230,,,,,,,,,,,,,,,,,,,,,AMP,left,0.6170663072844036,,,left,0,0.6170663072844036,0,,,,,,,,,,,,,,,,,,,,,,1079,2019_Mar_15_1437,mf_amp_cond1,3.0.4,59.998768454783615,
hand,scalbel,&&&&&&&,left,sanctity.virtue,,,,,,,0,231,231,231,,,,,,,,,,,,,,,,,,,,,AMP,left,0.6002511892293114,,,left,1,0.6002511892293114,1,,,,,,,,,,,,,,,,,,,,,,1079,2019_Mar_15_1437,mf_amp_cond1,3.0.4,59.998768454783615,
war,godlaness,&&&&&&&&&,right,sanctity.vice,,,,,,,0,232,232,232,,,,,,,,,,,,,,,,,,,,,AMP,right,0.1670228815783048,,,right,1,0.1670228815783048,1,,,,,,,,,,,,,,,,,,,,,,1079,2019_Mar_15_1437,mf_amp_cond1,3.0.4,59.998768454783615,
perfect,rorroborated,&&&&&&&&&&&&,left,sanctity.virtue,,,,,,,0,233,233,233,,,,,,,,,,,,,,,,,,,,,AMP,left,0.2836337640474085,,,left,1,0.2836337640474085,1,,,,,,,,,,,,,,,,,,,,,,1079,2019_Mar_15_1437,mf_amp_cond1,3.0.4,59.998768454783615,
men,precificity,&&&&&&&&&&&,right,loyalty.vice,,,,,,,0,234,234,234,,,,,,,,,,,,,,,,,,,,,AMP,right,0.5670750950521324,,,right,1,0.5670750950521324,1,,,,,,,,,,,,,,,,,,,,,,1079,2019_Mar_15_1437,mf_amp_cond1,3.0.4,59.998768454783615,
love,fangsters,&&&&&&&&&,left,loyalty.virtue,,,,,,,0,235,235,235,,,,,,,,,,,,,,,,,,,,,AMP,right,0.5003511902614264,,,right,0,0.5003511902614264,0,,,,,,,,,,,,,,,,,,,,,,1079,2019_Mar_15_1437,mf_amp_cond1,3.0.4,59.998768454783615,
terrorists,coom,&&&&,right,fairness.vice,,,,,,,0,236,236,236,,,,,,,,,,,,,,,,,,,,,AMP,left,0.517028397982358,,,left,0,0.517028397982358,0,,,,,,,,,,,,,,,,,,,,,,1079,2019_Mar_15_1437,mf_amp_cond1,3.0.4,59.998768454783615,
elduringly,hefurbished,&&&&&&&&&&&,None,nonword,,,,,,,0,237,237,237,,,,,,,,,,,,,,,,,,,,,AMP,left,0.6504037244740175,,,left,0,0.6504037244740175,0,,,,,,,,,,,,,,,,,,,,,,1079,2019_Mar_15_1437,mf_amp_cond1,3.0.4,59.998768454783615,
threatened,tomedians,&&&&&&&&&,right,fairness.vice,,,,,,,0,238,238,238,,,,,,,,,,,,,,,,,,,,,AMP,left,0.5170409061247483,,,left,0,0.5170409061247483,0,,,,,,,,,,,,,,,,,,,,,,1079,2019_Mar_15_1437,mf_amp_cond1,3.0.4,59.998768454783615,
peaceful,nomaric,&&&&&&&,left,authority.virtue,,,,,,,0,239,239,239,,,,,,,,,,,,,,,,,,,,,AMP,right,0.23362587428709958,,,right,0,0.23362587428709958,0,,,,,,,,,,,,,,,,,,,,,,1079,2019_Mar_15_1437,mf_amp_cond1,3.0.4,59.998768454783615,
opportunity,fornicalion,&&&&&&&&&&&,left,fairness.virtue,,,,,,,0,240,240,240,,,,,,,,,,,,,,,,,,,,,AMP,left,0.3836533922149101,,,left,1,0.3836533922149101,1,,,,,,,,,,,,,,,,,,,,,,1079,2019_Mar_15_1437,mf_amp_cond1,3.0.4,59.998768454783615,
protesters,ebbitter,&&&&&&&&,right,authority.vice,,,,,,,0,241,241,241,,,,,,,,,,,,,,,,,,,,,AMP,right,0.5170466791169019,,,right,1,0.5170466791169019,1,,,,,,,,,,,,,,,,,,,,,,1079,2019_Mar_15_1437,mf_amp_cond1,3.0.4,59.998768454783615,
benefit,gikely,&&&&&&,left,fairness.virtue,,,,,,,0,242,242,242,,,,,,,,,,,,,,,,,,,,,AMP,right,0.5003316262445878,,,right,0,0.5003316262445878,0,,,,,,,,,,,,,,,,,,,,,,1079,2019_Mar_15_1437,mf_amp_cond1,3.0.4,59.998768454783615,
friends,erdest,&&&&&&,left,loyalty.virtue,,,,,,,0,243,243,243,,,,,,,,,,,,,,,,,,,,,AMP,left,0.21696758914913516,,,left,1,0.21696758914913516,1,,,,,,,,,,,,,,,,,,,,,,1079,2019_Mar_15_1437,mf_amp_cond1,3.0.4,59.998768454783615,
illegal,Oregoniuns,&&&&&&&&&&,right,fairness.vice,,,,,,,0,244,244,244,,,,,,,,,,,,,,,,,,,,,AMP,right,0.7170894634036813,,,right,1,0.7170894634036813,1,,,,,,,,,,,,,,,,,,,,,,1079,2019_Mar_15_1437,mf_amp_cond1,3.0.4,59.998768454783615,
gationwide,glacenta,&&&&&&&&,None,nonword,,,,,,,0,245,245,245,,,,,,,,,,,,,,,,,,,,,AMP,right,0.7504272013029549,,,right,0,0.7504272013029549,0,,,,,,,,,,,,,,,,,,,,,,1079,2019_Mar_15_1437,mf_amp_cond1,3.0.4,59.998768454783615,
progress,smapper,&&&&&&&,left,authority.virtue,,,,,,,0,246,246,246,,,,,,,,,,,,,,,,,,,,,AMP,right,0.3169827272067778,,,right,0,0.3169827272067778,0,,,,,,,,,,,,,,,,,,,,,,1079,2019_Mar_15_1437,mf_amp_cond1,3.0.4,59.998768454783615,
rebels,shoirmaster,&&&&&&&&&&&,right,authority.vice,,,,,,,0,247,247,247,,,,,,,,,,,,,,,,,,,,,AMP,right,0.7671817029622616,,,right,1,0.7671817029622616,1,,,,,,,,,,,,,,,,,,,,,,1079,2019_Mar_15_1437,mf_amp_cond1,3.0.4,59.998768454783615,
focomotive,ejanulated,&&&&&&&&&&,None,nonword,,,,,,,0,248,248,248,,,,,,,,,,,,,,,,,,,,,AMP,left,0.4170049211534206,,,left,0,0.4170049211534206,0,,,,,,,,,,,,,,,,,,,,,,1079,2019_Mar_15_1437,mf_amp_cond1,3.0.4,59.998768454783615,
dignity,halaise,&&&&&&&,left,sanctity.virtue,,,,,,,0,249,249,249,,,,,,,,,,,,,,,,,,,,,AMP,right,0.4336840532050701,,,right,0,0.4336840532050701,0,,,,,,,,,,,,,,,,,,,,,,1079,2019_Mar_15_1437,mf_amp_cond1,3.0.4,59.998768454783615,
died,simplustic,&&&&&&&&&&,right,care.vice,,,,,,,0,250,250,250,,,,,,,,,,,,,,,,,,,,,AMP,left,0.35032463450625073,,,left,0,0.35032463450625073,0,,,,,,,,,,,,,,,,,,,,,,1079,2019_Mar_15_1437,mf_amp_cond1,3.0.4,59.998768454783615,
laming,esquisiteness,&&&&&&&&&&&&&,None,nonword,,,,,,,0,251,251,251,,,,,,,,,,,,,,,,,,,,,AMP,right,1.0338678908883594,,,right,0,1.0338678908883594,0,,,,,,,,,,,,,,,,,,,,,,1079,2019_Mar_15_1437,mf_amp_cond1,3.0.4,59.998768454783615,
compassion,Lacedonia,&&&&&&&&&,left,care.virtue,,,,,,,0,252,252,252,,,,,,,,,,,,,,,,,,,,,AMP,right,0.3670255756442202,,,right,0,0.3670255756442202,0,,,,,,,,,,,,,,,,,,,,,,1079,2019_Mar_15_1437,mf_amp_cond1,3.0.4,59.998768454783615,
praised,quarterbocks,&&&&&&&&&&&&,left,loyalty.virtue,,,,,,,0,253,253,253,,,,,,,,,,,,,,,,,,,,,AMP,left,0.41701293918595184,,,left,1,0.41701293918595184,1,,,,,,,,,,,,,,,,,,,,,,1079,2019_Mar_15_1437,mf_amp_cond1,3.0.4,59.998768454783615,
hate,scock,&&&&&,right,fairness.vice,,,,,,,0,254,254,254,,,,,,,,,,,,,,,,,,,,,AMP,left,0.41701197704242077,,,left,0,0.41701197704242077,0,,,,,,,,,,,,,,,,,,,,,,1079,2019_Mar_15_1437,mf_amp_cond1,3.0.4,59.998768454783615,
interests,mih,&&&,left,fairness.virtue,,,,,,,0,255,255,255,,,,,,,,,,,,,,,,,,,,,AMP,right,0.1502786430210108,,,right,0,0.1502786430210108,0,,,,,,,,,,,,,,,,,,,,,,1079,2019_Mar_15_1437,mf_amp_cond1,3.0.4,59.998768454783615,
shot,nackers,&&&&&&&,right,care.vice,,,,,,,0,256,256,256,,,,,,,,,,,,,,,,,,,,,AMP,right,0.3002946149499621,,,right,1,0.3002946149499621,1,,,,,,,,,,,,,,,,,,,,,,1079,2019_Mar_15_1437,mf_amp_cond1,3.0.4,59.998768454783615,
arrests,hefurbished,&&&&&&&&&&&,right,authority.vice,,,,,,,0,257,257,257,,,,,,,,,,,,,,,,,,,,,AMP,left,0.2669729131303029,,,left,0,0.2669729131303029,0,,,,,,,,,,,,,,,,,,,,,,1079,2019_Mar_15_1437,mf_amp_cond1,3.0.4,59.998768454783615,
sowntrodden,neneficence,&&&&&&&&&&&,None,nonword,,,,,,,0,258,258,258,,,,,,,,,,,,,,,,,,,,,AMP,right,0.40034118374751415,,,right,0,0.40034118374751415,0,,,,,,,,,,,,,,,,,,,,,,1079,2019_Mar_15_1437,mf_amp_cond1,3.0.4,59.998768454783615,
violence,chreams,&&&&&&&,right,care.vice,,,,,,,0,259,259,259,,,,,,,,,,,,,,,,,,,,,AMP,left,0.45032918875222094,,,left,0,0.45032918875222094,0,,,,,,,,,,,,,,,,,,,,,,1079,2019_Mar_15_1437,mf_amp_cond1,3.0.4,59.998768454783615,
Phintoism,perified,&&&&&&&&,None,nonword,,,,,,,0,260,260,260,,,,,,,,,,,,,,,,,,,,,AMP,left,0.4170029968227027,,,left,0,0.4170029968227027,0,,,,,,,,,,,,,,,,,,,,,,1079,2019_Mar_15_1437,mf_amp_cond1,3.0.4,59.998768454783615,
great,stindig,&&&&&&&,left,loyalty.virtue,,,,,,,0,261,261,261,,,,,,,,,,,,,,,,,,,,,AMP,right,0.30030519877618644,,,right,0,0.30030519877618644,0,,,,,,,,,,,,,,,,,,,,,,1079,2019_Mar_15_1437,mf_amp_cond1,3.0.4,59.998768454783615,
loyalty,emports,&&&&&&&,left,loyalty.virtue,,,,,,,0,262,262,262,,,,,,,,,,,,,,,,,,,,,AMP,left,0.16704340776777826,,,left,1,0.16704340776777826,1,,,,,,,,,,,,,,,,,,,,,,1079,2019_Mar_15_1437,mf_amp_cond1,3.0.4,59.998768454783615,
gationwide,fostet,&&&&&&,None,nonword,,,,,,,0,263,263,263,,,,,,,,,,,,,,,,,,,,,AMP,right,0.8004363739455584,,,right,0,0.8004363739455584,0,,,,,,,,,,,,,,,,,,,,,,1079,2019_Mar_15_1437,mf_amp_cond1,3.0.4,59.998768454783615,
victims,alar,&&&&,right,care.vice,,,,,,,0,264,264,264,,,,,,,,,,,,,,,,,,,,,AMP,left,0.4503497149416944,,,left,0,0.4503497149416944,0,,,,,,,,,,,,,,,,,,,,,,1079,2019_Mar_15_1437,mf_amp_cond1,3.0.4,59.998768454783615,
friends,baklara,&&&&&&&,left,loyalty.virtue,,,,,,,0,265,265,265,,,,,,,,,,,,,,,,,,,,,AMP,right,0.3503265588369686,,,right,0,0.3503265588369686,0,,,,,,,,,,,,,,,,,,,,,,1079,2019_Mar_15_1437,mf_amp_cond1,3.0.4,59.998768454783615,
gun,coom,&&&&,right,authority.vice,,,,,,,0,266,266,266,,,,,,,,,,,,,,,,,,,,,AMP,right,0.30031033031991683,,,right,1,0.30031033031991683,1,,,,,,,,,,,,,,,,,,,,,,1079,2019_Mar_15_1437,mf_amp_cond1,3.0.4,59.998768454783615,
party,fegard,&&&&&&,left,loyalty.virtue,,,,,,,0,267,267,267,,,,,,,,,,,,,,,,,,,,,AMP,left,0.4003719730244484,,,left,1,0.4003719730244484,1,,,,,,,,,,,,,,,,,,,,,,1079,2019_Mar_15_1437,mf_amp_cond1,3.0.4,59.998768454783615,
opportunity,fangsters,&&&&&&&&&,left,fairness.virtue,,,,,,,0,268,268,268,,,,,,,,,,,,,,,,,,,,,AMP,left,0.7504191832558718,,,left,1,0.7504191832558718,1,,,,,,,,,,,,,,,,,,,,,,1079,2019_Mar_15_1437,mf_amp_cond1,3.0.4,59.998768454783615,
unpleasant,Boeinf,&&&&&&,None,control,,,,,,,0,269,269,269,,,,,,,,,,,,,,,,,,,,,AMP,right,0.2502934603544418,,,right,0,0.2502934603544418,0,,,,,,,,,,,,,,,,,,,,,,1079,2019_Mar_15_1437,mf_amp_cond1,3.0.4,59.998768454783615,
intelligence,glacenta,&&&&&&&&,left,loyalty.virtue,,,,,,,0,270,270,270,,,,,,,,,,,,,,,,,,,,,AMP,right,0.28362606672453694,,,right,0,0.28362606672453694,0,,,,,,,,,,,,,,,,,,,,,,1079,2019_Mar_15_1437,mf_amp_cond1,3.0.4,59.998768454783615,
benefit,asn,&&&,left,fairness.virtue,,,,,,,0,271,271,271,,,,,,,,,,,,,,,,,,,,,AMP,left,0.16694462548184674,,,left,1,0.16694462548184674,1,,,,,,,,,,,,,,,,,,,,,,1079,2019_Mar_15_1437,mf_amp_cond1,3.0.4,59.998768454783615,
trust,Cunday,&&&&&&,left,authority.virtue,,,,,,,0,272,272,272,,,,,,,,,,,,,,,,,,,,,AMP,right,0.7504628014139598,,,right,0,0.7504628014139598,0,,,,,,,,,,,,,,,,,,,,,,1079,2019_Mar_15_1437,mf_amp_cond1,3.0.4,59.998768454783615,
fear,suggists,&&&&&&&&,right,sanctity.vice,,,,,,,0,273,273,273,,,,,,,,,,,,,,,,,,,,,AMP,left,0.3336576898873318,,,left,0,0.3336576898873318,0,,,,,,,,,,,,,,,,,,,,,,1079,2019_Mar_15_1437,mf_amp_cond1,3.0.4,59.998768454783615,
care,clamorek,&&&&&&&&,left,care.virtue,,,,,,,0,274,274,274,,,,,,,,,,,,,,,,,,,,,AMP,right,0.45032277432619594,,,right,0,0.45032277432619594,0,,,,,,,,,,,,,,,,,,,,,,1079,2019_Mar_15_1437,mf_amp_cond1,3.0.4,59.998768454783615,
hand,gikely,&&&&&&,left,sanctity.virtue,,,,,,,0,275,275,275,,,,,,,,,,,,,,,,,,,,,AMP,right,0.6170589306857437,,,right,0,0.6170589306857437,0,,,,,,,,,,,,,,,,,,,,,,1079,2019_Mar_15_1437,mf_amp_cond1,3.0.4,59.998768454783615,
growth,troubla,&&&&&&&,left,care.virtue,,,,,,,0,276,276,276,,,,,,,,,,,,,,,,,,,,,AMP,left,0.45035452576121315,,,left,1,0.45035452576121315,1,,,,,,,,,,,,,,,,,,,,,,1079,2019_Mar_15_1437,mf_amp_cond1,3.0.4,59.998768454783615,
accused,erdest,&&&&&&,right,fairness.vice,,,,,,,0,277,277,277,,,,,,,,,,,,,,,,,,,,,AMP,right,0.65042874077335,,,right,1,0.65042874077335,1,,,,,,,,,,,,,,,,,,,,,,1079,2019_Mar_15_1437,mf_amp_cond1,3.0.4,59.998768454783615,
men,nuckheap,&&&&&&&&,right,loyalty.vice,,,,,,,0,278,278,278,,,,,,,,,,,,,,,,,,,,,AMP,right,0.45035452576121315,,,right,1,0.45035452576121315,1,,,,,,,,,,,,,,,,,,,,,,1079,2019_Mar_15_1437,mf_amp_cond1,3.0.4,59.998768454783615,
love,frojecting,&&&&&&&&&&,left,loyalty.virtue,,,,,,,0,279,279,279,,,,,,,,,,,,,,,,,,,,,AMP,left,0.6337043869716581,,,left,1,0.6337043869716581,1,,,,,,,,,,,,,,,,,,,,,,1079,2019_Mar_15_1437,mf_amp_cond1,3.0.4,59.998768454783615,
protesters,nomparisons,&&&&&&&&&&&,right,authority.vice,,,,,,,0,280,280,280,,,,,,,,,,,,,,,,,,,,,AMP,left,0.4003594648820581,,,left,0,0.4003594648820581,0,,,,,,,,,,,,,,,,,,,,,,1079,2019_Mar_15_1437,mf_amp_cond1,3.0.4,59.998768454783615,
army,infet,&&&&&,right,loyalty.vice,,,,,,,0,281,281,281,,,,,,,,,,,,,,,,,,,,,AMP,left,0.3836636553023709,,,left,0,0.3836636553023709,0,,,,,,,,,,,,,,,,,,,,,,1079,2019_Mar_15_1437,mf_amp_cond1,3.0.4,59.998768454783615,
ability,tabin,&&&&&,left,authority.virtue,,,,,,,0,282,282,282,,,,,,,,,,,,,,,,,,,,,AMP,left,0.5003864696482196,,,left,1,0.5003864696482196,1,,,,,,,,,,,,,,,,,,,,,,1079,2019_Mar_15_1437,mf_amp_cond1,3.0.4,59.998768454783615,
torture,nonobservalt,&&&&&&&&&&&&,right,care.vice,,,,,,,0,283,283,283,,,,,,,,,,,,,,,,,,,,,AMP,right,0.333614713177667,,,right,1,0.333614713177667,1,,,,,,,,,,,,,,,,,,,,,,1079,2019_Mar_15_1437,mf_amp_cond1,3.0.4,59.998768454783615,
strength,reviked,&&&&&&&,left,sanctity.virtue,,,,,,,0,284,284,284,,,,,,,,,,,,,,,,,,,,,AMP,left,0.6837228605290875,,,left,1,0.6837228605290875,1,,,,,,,,,,,,,,,,,,,,,,1079,2019_Mar_15_1437,mf_amp_cond1,3.0.4,59.998768454783615,
death,taxpayung,&&&&&&&&&,right,care.vice,,,,,,,0,285,285,285,,,,,,,,,,,,,,,,,,,,,AMP,left,0.9338149076502305,,,left,0,0.9338149076502305,0,,,,,,,,,,,,,,,,,,,,,,1079,2019_Mar_15_1437,mf_amp_cond1,3.0.4,59.998768454783615,
prosecution,strofe,&&&&&&,right,authority.vice,,,,,,,0,286,286,286,,,,,,,,,,,,,,,,,,,,,AMP,right,0.5503735124948435,,,right,1,0.5503735124948435,1,,,,,,,,,,,,,,,,,,,,,,1079,2019_Mar_15_1437,mf_amp_cond1,3.0.4,59.998768454783615,
terrorists,touls,&&&&&,right,fairness.vice,,,,,,,0,287,287,287,,,,,,,,,,,,,,,,,,,,,AMP,left,0.4337052208429668,,,left,0,0.4337052208429668,0,,,,,,,,,,,,,,,,,,,,,,1079,2019_Mar_15_1437,mf_amp_cond1,3.0.4,59.998768454783615,
officers,reelectiob,&&&&&&&&&&,right,authority.vice,,,,,,,0,288,288,288,,,,,,,,,,,,,,,,,,,,,AMP,right,0.1836170223687077,,,right,1,0.1836170223687077,1,,,,,,,,,,,,,,,,,,,,,,1079,2019_Mar_15_1437,mf_amp_cond1,3.0.4,59.998768454783615,
sexual,gazily,&&&&&&,right,sanctity.vice,,,,,,,0,289,289,289,,,,,,,,,,,,,,,,,,,,,AMP,right,0.36700280438526534,,,right,1,0.36700280438526534,1,,,,,,,,,,,,,,,,,,,,,,1079,2019_Mar_15_1437,mf_amp_cond1,3.0.4,59.998768454783615,
improve,godlaness,&&&&&&&&&,left,care.virtue,,,,,,,0,290,290,290,,,,,,,,,,,,,,,,,,,,,AMP,left,0.43366448918823153,,,left,1,0.43366448918823153,1,,,,,,,,,,,,,,,,,,,,,,1079,2019_Mar_15_1437,mf_amp_cond1,3.0.4,59.998768454783615,
corruption,totalestic,&&&&&&&&&&,right,sanctity.vice,,,,,,,0,291,291,291,,,,,,,,,,,,,,,,,,,,,AMP,left,0.8171103744534776,,,left,0,0.8171103744534776,0,,,,,,,,,,,,,,,,,,,,,,1079,2019_Mar_15_1437,mf_amp_cond1,3.0.4,59.998768454783615,
health,ebbitter,&&&&&&&&,left,care.virtue,,,,,,,0,292,292,292,,,,,,,,,,,,,,,,,,,,,AMP,left,0.5837125332909636,,,left,1,0.5837125332909636,1,,,,,,,,,,,,,,,,,,,,,,1079,2019_Mar_15_1437,mf_amp_cond1,3.0.4,59.998768454783615,
carvels,precificity,&&&&&&&&&&&,None,nonword,,,,,,,0,293,293,293,,,,,,,,,,,,,,,,,,,,,AMP,right,0.5170537349913502,,,right,0,0.5170537349913502,0,,,,,,,,,,,,,,,,,,,,,,1079,2019_Mar_15_1437,mf_amp_cond1,3.0.4,59.998768454783615,
lies,gournful,&&&&&&&&,right,fairness.vice,,,,,,,0,294,294,294,,,,,,,,,,,,,,,,,,,,,AMP,left,0.4170209572475869,,,left,0,0.4170209572475869,0,,,,,,,,,,,,,,,,,,,,,,1079,2019_Mar_15_1437,mf_amp_cond1,3.0.4,59.998768454783615,
protect,prones,&&&&&&,left,fairness.virtue,,,,,,,0,295,295,295,,,,,,,,,,,,,,,,,,,,,AMP,right,0.40033188281813636,,,right,0,0.40033188281813636,0,,,,,,,,,,,,,,,,,,,,,,1079,2019_Mar_15_1437,mf_amp_cond1,3.0.4,59.998768454783615,
brudent,fornicalion,&&&&&&&&&&&,None,nonword,,,,,,,0,296,296,296,,,,,,,,,,,,,,,,,,,,,AMP,left,0.46701120730722323,,,left,0,0.46701120730722323,0,,,,,,,,,,,,,,,,,,,,,,1079,2019_Mar_15_1437,mf_amp_cond1,3.0.4,59.998768454783615,
pleasant,erks,&&&&,None,control,,,,,,,0,297,297,297,,,,,,,,,,,,,,,,,,,,,AMP,right,0.15025170239096042,,,right,0,0.15025170239096042,0,,,,,,,,,,,,,,,,,,,,,,1079,2019_Mar_15_1437,mf_amp_cond1,3.0.4,59.998768454783615,
harassment,pafer,&&&&&,right,sanctity.vice,,,,,,,0,298,298,298,,,,,,,,,,,,,,,,,,,,,AMP,left,0.45035035639011767,,,left,0,0.45035035639011767,0,,,,,,,,,,,,,,,,,,,,,,1079,2019_Mar_15_1437,mf_amp_cond1,3.0.4,59.998768454783615,
faith,tove,&&&&,left,sanctity.virtue,,,,,,,0,299,299,299,,,,,,,,,,,,,,,,,,,,,AMP,left,0.9171325684001204,,,left,1,0.9171325684001204,1,,,,,,,,,,,,,,,,,,,,,,1079,2019_Mar_15_1437,mf_amp_cond1,3.0.4,59.998768454783615,
credit,atson,&&&&&,left,fairness.virtue,,,,,,,0,300,300,300,,,,,,,,,,,,,,,,,,,,,AMP,right,0.8504551682417514,,,right,0,0.8504551682417514,0,,,,,,,,,,,,,,,,,,,,,,1079,2019_Mar_15_1437,mf_amp_cond1,3.0.4,59.998768454783615,
fighters,framatic,&&&&&&&&,right,authority.vice,,,,,,,0,301,301,301,,,,,,,,,,,,,,,,,,,,,AMP,right,0.7171369301941013,,,right,1,0.7171369301941013,1,,,,,,,,,,,,,,,,,,,,,,1079,2019_Mar_15_1437,mf_amp_cond1,3.0.4,59.998768454783615,
ban,papert,&&&&&&,right,loyalty.vice,,,,,,,0,302,302,302,,,,,,,,,,,,,,,,,,,,,AMP,left,0.5170296808792045,,,left,0,0.5170296808792045,0,,,,,,,,,,,,,,,,,,,,,,1079,2019_Mar_15_1437,mf_amp_cond1,3.0.4,59.998768454783615,
praise,Oregoniuns,&&&&&&&&&&,left,authority.virtue,,,,,,,0,303,303,303,,,,,,,,,,,,,,,,,,,,,AMP,right,0.3503243137820391,,,right,0,0.3503243137820391,0,,,,,,,,,,,,,,,,,,,,,,1079,2019_Mar_15_1437,mf_amp_cond1,3.0.4,59.998768454783615,
fair,scalbel,&&&&&&&,left,fairness.virtue,,,,,,,0,304,304,304,,,,,,,,,,,,,,,,,,,,,AMP,right,0.3669970313931117,,,right,0,0.3669970313931117,0,,,,,,,,,,,,,,,,,,,,,,1079,2019_Mar_15_1437,mf_amp_cond1,3.0.4,59.998768454783615,
freedom,bluently,&&&&&&&&,left,sanctity.virtue,,,,,,,0,305,305,305,,,,,,,,,,,,,,,,,,,,,AMP,right,0.26698413837584667,,,right,0,0.26698413837584667,0,,,,,,,,,,,,,,,,,,,,,,1079,2019_Mar_15_1437,mf_amp_cond1,3.0.4,59.998768454783615,
voter,feleological,&&&&&&&&&&&&,right,fairness.vice,,,,,,,0,306,306,306,,,,,,,,,,,,,,,,,,,,,AMP,left,0.4836903393443208,,,left,0,0.4836903393443208,0,,,,,,,,,,,,,,,,,,,,,,1079,2019_Mar_15_1437,mf_amp_cond1,3.0.4,59.998768454783615,
safety,letish,&&&&&&,left,care.virtue,,,,,,,0,307,307,307,,,,,,,,,,,,,,,,,,,,,AMP,right,0.21695892965362873,,,right,0,0.21695892965362873,0,,,,,,,,,,,,,,,,,,,,,,1079,2019_Mar_15_1437,mf_amp_cond1,3.0.4,59.998768454783615,
war,rivernoat,&&&&&&&&&,right,sanctity.vice,,,,,,,0,308,308,308,,,,,,,,,,,,,,,,,,,,,AMP,left,0.41701197702786885,,,left,0,0.41701197702786885,0,,,,,,,,,,,,,,,,,,,,,,1079,2019_Mar_15_1437,mf_amp_cond1,3.0.4,59.998768454783615,
illegal,emassion,&&&&&&&&,right,fairness.vice,,,,,,,0,309,309,309,,,,,,,,,,,,,,,,,,,,,AMP,right,0.6670802907465259,,,right,1,0.6670802907465259,1,,,,,,,,,,,,,,,,,,,,,,1079,2019_Mar_15_1437,mf_amp_cond1,3.0.4,59.998768454783615,
useful,vicissifude,&&&&&&&&&&&,left,authority.virtue,,,,,,,0,310,310,310,,,,,,,,,,,,,,,,,,,,,AMP,left,0.18359842050995212,,,left,1,0.18359842050995212,1,,,,,,,,,,,,,,,,,,,,,,1079,2019_Mar_15_1437,mf_amp_cond1,3.0.4,59.998768454783615,
attacks,proached,&&&&&&&&,right,care.vice,,,,,,,0,311,311,311,,,,,,,,,,,,,,,,,,,,,AMP,left,0.9836755861615529,,,left,0,0.9836755861615529,0,,,,,,,,,,,,,,,,,,,,,,1079,2019_Mar_15_1437,mf_amp_cond1,3.0.4,59.998768454783615,
conspiracy,divility,&&&&&&&&,right,sanctity.vice,,,,,,,0,312,312,312,,,,,,,,,,,,,,,,,,,,,AMP,right,0.45036703390360344,,,right,1,0.45036703390360344,1,,,,,,,,,,,,,,,,,,,,,,1079,2019_Mar_15_1437,mf_amp_cond1,3.0.4,59.998768454783615,
blamed,tomedians,&&&&&&&&&,right,loyalty.vice,,,,,,,0,313,313,313,,,,,,,,,,,,,,,,,,,,,AMP,left,0.733753842258011,,,left,0,0.733753842258011,0,,,,,,,,,,,,,,,,,,,,,,1079,2019_Mar_15_1437,mf_amp_cond1,3.0.4,59.998768454783615,
peaceful,allears,&&&&&&&,left,authority.virtue,,,,,,,0,314,314,314,,,,,,,,,,,,,,,,,,,,,AMP,left,0.6004314348247135,,,left,1,0.6004314348247135,1,,,,,,,,,,,,,,,,,,,,,,1079,2019_Mar_15_1437,mf_amp_cond1,3.0.4,59.998768454783615,
unreflectuve,antral,&&&&&&,None,nonword,,,,,,,0,315,315,315,,,,,,,,,,,,,,,,,,,,,AMP,left,0.4336766766064102,,,left,0,0.4336766766064102,0,,,,,,,,,,,,,,,,,,,,,,1079,2019_Mar_15_1437,mf_amp_cond1,3.0.4,59.998768454783615,
perfect,fonderland,&&&&&&&&&&,left,sanctity.virtue,,,,,,,0,316,316,316,,,,,,,,,,,,,,,,,,,,,AMP,left,0.6670879880693974,,,left,1,0.6670879880693974,1,,,,,,,,,,,,,,,,,,,,,,1079,2019_Mar_15_1437,mf_amp_cond1,3.0.4,59.998768454783615,
scandal,egpeditious,&&&&&&&&&&&,right,sanctity.vice,,,,,,,0,317,317,317,,,,,,,,,,,,,,,,,,,,,AMP,left,0.3670233305892907,,,left,0,0.3670233305892907,0,,,,,,,,,,,,,,,,,,,,,,1079,2019_Mar_15_1437,mf_amp_cond1,3.0.4,59.998768454783615,
black,uller,&&&&&,right,loyalty.vice,,,,,,,0,318,318,318,,,,,,,,,,,,,,,,,,,,,AMP,right,0.4836900186201092,,,right,1,0.4836900186201092,1,,,,,,,,,,,,,,,,,,,,,,1079,2019_Mar_15_1437,mf_amp_cond1,3.0.4,59.998768454783615,
pescinded,nomaric,&&&&&&&,None,nonword,,,,,,,0,319,319,319,,,,,,,,,,,,,,,,,,,,,AMP,left,0.5170319259195821,,,left,0,0.5170319259195821,0,,,,,,,,,,,,,,,,,,,,,,1079,2019_Mar_15_1437,mf_amp_cond1,3.0.4,59.998768454783615,
elduringly,yane,&&&&,None,nonword,,,,,,,0,320,320,320,,,,,,,,,,,,,,,,,,,,,AMP,right,0.5168985056952806,,,right,0,0.5168985056952806,0,,,,,,,,,,,,,,,,,,,,,,1079,2019_Mar_15_1437,mf_amp_cond1,3.0.4,59.998768454783615,
commitment,thabbily,&&&&&&&&,left,sanctity.virtue,,,,,,,0,321,321,321,,,,,,,,,,,,,,,,,,,,,AMP,right,0.5003601704665925,,,right,0,0.5003601704665925,0,,,,,,,,,,,,,,,,,,,,,,1079,2019_Mar_15_1437,mf_amp_cond1,3.0.4,59.998768454783615,
failure,seachwear,&&&&&&&&&,right,loyalty.vice,,,,,,,0,322,322,322,,,,,,,,,,,,,,,,,,,,,AMP,left,0.2669716302334564,,,left,0,0.2669716302334564,0,,,,,,,,,,,,,,,,,,,,,,1079,2019_Mar_15_1437,mf_amp_cond1,3.0.4,59.998768454783615,
safe,ning,&&&&,left,care.virtue,,,,,,,0,323,323,323,,,,,,,,,,,,,,,,,,,,,AMP,left,1.2172116583533352,,,left,1,1.2172116583533352,1,,,,,,,,,,,,,,,,,,,,,,1079,2019_Mar_15_1437,mf_amp_cond1,3.0.4,59.998768454783615,
threatened,pistraught,&&&&&&&&&&,right,fairness.vice,,,,,,,0,324,324,324,,,,,,,,,,,,,,,,,,,,,AMP,left,0.6337306861387333,,,left,0,0.6337306861387333,0,,,,,,,,,,,,,,,,,,,,,,1079,2019_Mar_15_1437,mf_amp_cond1,3.0.4,59.998768454783615,
troops,bycled,&&&&&&,right,loyalty.vice,,,,,,,0,325,325,325,,,,,,,,,,,,,,,,,,,,,AMP,right,0.4503561293677194,,,right,1,0.4503561293677194,1,,,,,,,,,,,,,,,,,,,,,,1079,2019_Mar_15_1437,mf_amp_cond1,3.0.4,59.998768454783615,
ensure,pullness,&&&&&&&&,left,fairness.virtue,,,,,,,0,326,326,326,,,,,,,,,,,,,,,,,,,,,AMP,right,0.6504024415917229,,,right,0,0.6504024415917229,0,,,,,,,,,,,,,,,,,,,,,,1079,2019_Mar_15_1437,mf_amp_cond1,3.0.4,59.998768454783615,
powerful,rorroborated,&&&&&&&&&&&&,left,authority.virtue,,,,,,,0,327,327,327,,,,,,,,,,,,,,,,,,,,,AMP,left,0.6170624586375197,,,left,1,0.6170624586375197,1,,,,,,,,,,,,,,,,,,,,,,1079,2019_Mar_15_1437,mf_amp_cond1,3.0.4,59.998768454783615,
,,,,,,,,,,,,,,,,,,,,,,,,,,,,,,,,,,,,,,,,,,,,5,17.04,,,,,,,,,,,,,,,,,,,,1079,2019_Mar_15_1437,mf_amp_cond1,3.0.4,59.998768454783615,
,,,,,,,,,,,,,,,,,,,,,,,,,,,,,,,,,,,,,,,,,,,,,,3,11.321,,,,,,,,,,,,,,,,,,1079,2019_Mar_15_1437,mf_amp_cond1,3.0.4,59.998768454783615,
,,,,,,,,,,,,,,,,,,,,,,,,,,,,,,,,,,,,,,,,,,,,,,,,4,5.553,,,,,,,,,,,,,,,,1079,2019_Mar_15_1437,mf_amp_cond1,3.0.4,59.998768454783615,
,,,,,,,,,,,,,,,,,,,,,,,,,,,,,,,,,,,,,,,,,,,,,,,,,,right,1.1338814253394958,,,,,,,,,,,,,,1079,2019_Mar_15_1437,mf_amp_cond1,3.0.4,59.998768454783615,
keyboard,,&&&&&&&,,,,,,,,,,,,,0,0,0,0,,,,,,,,,,,,,,,,,LDT_prac,left,2.7676236574625364,,,,,,0,,,,,,,,,left,2.7676236574625364,,,,,,,,,,,,1079,2019_Mar_15_1437,mf_amp_cond1,3.0.4,59.998768454783615,
bisebell,,&&&&&&&,,,,,,,,,,,,,0,1,1,1,,,,,,,,,,,,,,,,,LDT_prac,right,0.7671053711965214,,,,,,0,,,,,,,,,right,0.7671053711965214,,,,,,,,,,,,1079,2019_Mar_15_1437,mf_amp_cond1,3.0.4,59.998768454783615,
,,,,,,,,,,,,,,,,,,,,,,,,,,,,,,,,,,,,,,,,,,,,,,,,,,,,,,right,0.7004260467074346,,,,,,,,,,1079,2019_Mar_15_1437,mf_amp_cond1,3.0.4,59.998768454783615,
openet,,&&&&&&,None,nonword,,,,,,,,,,,,,,,0,0,0,66,,,,,,,,,,,,,LDT,left,0.9671548906189855,,,,,,0,,,,,,,,,,,,,left,0,0.9671548906189855,,,,,,,1079,2019_Mar_15_1437,mf_amp_cond1,3.0.4,59.998768454783615,
betrayal,,&&&&&&&&,left,loyalty.vice,,,,,,,,,,,,,,,0,1,1,54,,,,,,,,,,,,,LDT,left,1.0838558958930662,,,,,,1,,,,,,,,,,,,,left,1,1.0838558958930662,,,,,,,1079,2019_Mar_15_1437,mf_amp_cond1,3.0.4,59.998768454783615,
mecan,,&&&&&,right,nonword,,,,,,,,,,,,,,,0,2,2,100,,,,,,,,,,,,,LDT,right,0.4837089412030764,,,,,,1,,,,,,,,,,,,,right,1,0.4837089412030764,,,,,,,1079,2019_Mar_15_1437,mf_amp_cond1,3.0.4,59.998768454783615,
groups,,&&&&&&,left,loyalty.vice,,,,,,,,,,,,,,,0,3,3,68,,,,,,,,,,,,,LDT,right,0.5503786440385738,,,,,,0,,,,,,,,,,,,,right,0,0.5503786440385738,,,,,,,1079,2019_Mar_15_1437,mf_amp_cond1,3.0.4,59.998768454783615,
ugeasily,,&&&&&&&&,right,nonword,,,,,,,,,,,,,,,0,4,4,141,,,,,,,,,,,,,LDT,left,0.61705315769359,,,,,,0,,,,,,,,,,,,,left,0,0.61705315769359,,,,,,,1079,2019_Mar_15_1437,mf_amp_cond1,3.0.4,59.998768454783615,
vurtain,,&&&&&&&,right,nonword,,,,,,,,,,,,,,,0,5,5,51,,,,,,,,,,,,,LDT,right,0.3836707111913711,,,,,,1,,,,,,,,,,,,,right,1,0.3836707111913711,,,,,,,1079,2019_Mar_15_1437,mf_amp_cond1,3.0.4,59.998768454783615,
forty,,&&&&&,left,neutral,,,,,,,,,,,,,,,0,6,6,179,,,,,,,,,,,,,LDT,right,0.4336798838194227,,,,,,0,,,,,,,,,,,,,right,0,0.4336798838194227,,,,,,,1079,2019_Mar_15_1437,mf_amp_cond1,3.0.4,59.998768454783615,
ittutable,,&&&&&&&&&,right,nonword,,,,,,,,,,,,,,,0,7,7,170,,,,,,,,,,,,,LDT,left,0.5003880732547259,,,,,,0,,,,,,,,,,,,,left,0,0.5003880732547259,,,,,,,1079,2019_Mar_15_1437,mf_amp_cond1,3.0.4,59.998768454783615,
dormandi,,&&&&&&&&,None,nonword,,,,,,,,,,,,,,,0,8,8,76,,,,,,,,,,,,,LDT,left,0.6837536498060217,,,,,,0,,,,,,,,,,,,,left,0,0.6837536498060217,,,,,,,1079,2019_Mar_15_1437,mf_amp_cond1,3.0.4,59.998768454783615,
leact,,&&&&&,right,nonword,,,,,,,,,,,,,,,0,9,9,157,,,,,,,,,,,,,LDT,right,0.5837183062831173,,,,,,1,,,,,,,,,,,,,right,1,0.5837183062831173,,,,,,,1079,2019_Mar_15_1437,mf_amp_cond1,3.0.4,59.998768454783615,
pharing,,&&&&&&&,right,nonword,,,,,,,,,,,,,,,0,10,10,0,,,,,,,,,,,,,LDT,left,0.6003942311217543,,,,,,0,,,,,,,,,,,,,left,0,0.6003942311217543,,,,,,,1079,2019_Mar_15_1437,mf_amp_cond1,3.0.4,59.998768454783615,
support,,&&&&&&&,left,loyalty.virtue,,,,,,,,,,,,,,,0,11,11,82,,,,,,,,,,,,,LDT,right,0.48372080791159533,,,,,,0,,,,,,,,,,,,,right,0,0.48372080791159533,,,,,,,1079,2019_Mar_15_1437,mf_amp_cond1,3.0.4,59.998768454783615,
photocalkodes,,&&&&&&&&&&&&&,right,nonword,,,,,,,,,,,,,,,0,12,12,34,,,,,,,,,,,,,LDT,left,0.5170412268489599,,,,,,0,,,,,,,,,,,,,left,0,0.5170412268489599,,,,,,,1079,2019_Mar_15_1437,mf_amp_cond1,3.0.4,59.998768454783615,
disregord,,&&&&&&&&&,right,nonword,,,,,,,,,,,,,,,0,13,13,98,,,,,,,,,,,,,LDT,left,0.8672285924694734,,,,,,0,,,,,,,,,,,,,left,0,0.8672285924694734,,,,,,,1079,2019_Mar_15_1437,mf_amp_cond1,3.0.4,59.998768454783615,
cromiscuity,,&&&&&&&&&&&,right,nonword,,,,,,,,,,,,,,,0,14,14,25,,,,,,,,,,,,,LDT,right,0.8838009242026601,,,,,,1,,,,,,,,,,,,,right,1,0.8838009242026601,,,,,,,1079,2019_Mar_15_1437,mf_amp_cond1,3.0.4,59.998768454783615,
respect,,&&&&&&&,left,sanctity.virtue,,,,,,,,,,,,,,,0,15,15,52,,,,,,,,,,,,,LDT,right,0.5170418682828313,,,,,,0,,,,,,,,,,,,,right,0,0.5170418682828313,,,,,,,1079,2019_Mar_15_1437,mf_amp_cond1,3.0.4,59.998768454783615,
whereafter,,&&&&&&&&&&,left,neutral,,,,,,,,,,,,,,,0,16,16,1,,,,,,,,,,,,,LDT,left,0.6670790078642312,,,,,,1,,,,,,,,,,,,,left,1,0.6670790078642312,,,,,,,1079,2019_Mar_15_1437,mf_amp_cond1,3.0.4,59.998768454783615,
clattening,,&&&&&&&&&&,right,nonword,,,,,,,,,,,,,,,0,17,17,79,,,,,,,,,,,,,LDT,left,1.0338188204623293,,,,,,0,,,,,,,,,,,,,left,0,1.0338188204623293,,,,,,,1079,2019_Mar_15_1437,mf_amp_cond1,3.0.4,59.998768454783615,
ablow,,&&&&&,right,nonword,,,,,,,,,,,,,,,0,18,18,159,,,,,,,,,,,,,LDT,right,0.7504611978074536,,,,,,1,,,,,,,,,,,,,right,1,0.7504611978074536,,,,,,,1079,2019_Mar_15_1437,mf_amp_cond1,3.0.4,59.998768454783615,
towards,,&&&&&&&,left,neutral,,,,,,,,,,,,,,,0,19,19,49,,,,,,,,,,,,,LDT,left,0.9004704345861683,,,,,,1,,,,,,,,,,,,,left,1,0.9004704345861683,,,,,,,1079,2019_Mar_15_1437,mf_amp_cond1,3.0.4,59.998768454783615,
embrace,,&&&&&&&,left,authority.virtue,,,,,,,,,,,,,,,0,20,20,133,,,,,,,,,,,,,LDT,right,0.9838247217412572,,,,,,0,,,,,,,,,,,,,right,0,0.9838247217412572,,,,,,,1079,2019_Mar_15_1437,mf_amp_cond1,3.0.4,59.998768454783615,
least,,&&&&&,left,neutral,,,,,,,,,,,,,,,0,21,21,135,,,,,,,,,,,,,LDT,left,0.5837311351497192,,,,,,1,,,,,,,,,,,,,left,1,0.5837311351497192,,,,,,,1079,2019_Mar_15_1437,mf_amp_cond1,3.0.4,59.998768454783615,
gandbrake,,&&&&&&&&&,right,nonword,,,,,,,,,,,,,,,0,22,22,117,,,,,,,,,,,,,LDT,left,0.5337485823984025,,,,,,0,,,,,,,,,,,,,left,0,0.5337485823984025,,,,,,,1079,2019_Mar_15_1437,mf_amp_cond1,3.0.4,59.998768454783615,
eight,,&&&&&,left,neutral,,,,,,,,,,,,,,,0,23,23,88,,,,,,,,,,,,,LDT,left,0.7836408199218567,,,,,,1,,,,,,,,,,,,,left,1,0.7836408199218567,,,,,,,1079,2019_Mar_15_1437,mf_amp_cond1,3.0.4,59.998768454783615,
promises,,&&&&&&&&,left,fairness.virtue,,,,,,,,,,,,,,,0,24,24,57,,,,,,,,,,,,,LDT,right,0.6337326104694512,,,,,,0,,,,,,,,,,,,,right,0,0.6337326104694512,,,,,,,1079,2019_Mar_15_1437,mf_amp_cond1,3.0.4,59.998768454783615,
grovelire,,&&&&&&&&&,right,nonword,,,,,,,,,,,,,,,0,25,25,97,,,,,,,,,,,,,LDT,left,0.7004363098094473,,,,,,0,,,,,,,,,,,,,left,0,0.7004363098094473,,,,,,,1079,2019_Mar_15_1437,mf_amp_cond1,3.0.4,59.998768454783615,
gillipede,,&&&&&&&&&,None,nonword,,,,,,,,,,,,,,,0,26,26,197,,,,,,,,,,,,,LDT,left,0.7504368229565443,,,,,,0,,,,,,,,,,,,,left,0,0.7504368229565443,,,,,,,1079,2019_Mar_15_1437,mf_amp_cond1,3.0.4,59.998768454783615,
idexpressible,,&&&&&&&&&&&&&,right,nonword,,,,,,,,,,,,,,,0,27,27,81,,,,,,,,,,,,,LDT,left,0.9338136247824878,,,,,,0,,,,,,,,,,,,,left,0,0.9338136247824878,,,,,,,1079,2019_Mar_15_1437,mf_amp_cond1,3.0.4,59.998768454783615,
sgrawl,,&&&&&&,right,nonword,,,,,,,,,,,,,,,0,28,28,70,,,,,,,,,,,,,LDT,left,0.7504146931605646,,,,,,0,,,,,,,,,,,,,left,0,0.7504146931605646,,,,,,,1079,2019_Mar_15_1437,mf_amp_cond1,3.0.4,59.998768454783615,
tislay,,&&&&&&,right,nonword,,,,,,,,,,,,,,,0,29,29,63,,,,,,,,,,,,,LDT,left,0.9336837324954104,,,,,,0,,,,,,,,,,,,,left,0,0.9336837324954104,,,,,,,1079,2019_Mar_15_1437,mf_amp_cond1,3.0.4,59.998768454783615,
brotesque,,&&&&&&&&&,right,nonword,,,,,,,,,,,,,,,0,30,30,190,,,,,,,,,,,,,LDT,left,1.0170280772581464,,,,,,0,,,,,,,,,,,,,left,0,1.0170280772581464,,,,,,,1079,2019_Mar_15_1437,mf_amp_cond1,3.0.4,59.998768454783615,
celebrated,,&&&&&&&&&&,left,authority.virtue,,,,,,,,,,,,,,,0,31,31,18,,,,,,,,,,,,,LDT,left,0.8837977169750957,,,,,,1,,,,,,,,,,,,,left,1,0.8837977169750957,,,,,,,1079,2019_Mar_15_1437,mf_amp_cond1,3.0.4,59.998768454783615,
give,,&&&&,left,neutral,,,,,,,,,,,,,,,0,32,32,32,,,,,,,,,,,,,LDT,right,0.6004121915320866,,,,,,0,,,,,,,,,,,,,right,0,0.6004121915320866,,,,,,,1079,2019_Mar_15_1437,mf_amp_cond1,3.0.4,59.998768454783615,
myself,,&&&&&&,left,neutral,,,,,,,,,,,,,,,0,33,33,182,,,,,,,,,,,,,LDT,right,0.40034535313316155,,,,,,0,,,,,,,,,,,,,right,0,0.40034535313316155,,,,,,,1079,2019_Mar_15_1437,mf_amp_cond1,3.0.4,59.998768454783615,
refuejing,,&&&&&&&&&,right,nonword,,,,,,,,,,,,,,,0,34,34,184,,,,,,,,,,,,,LDT,left,0.48369482945417985,,,,,,0,,,,,,,,,,,,,left,0,0.48369482945417985,,,,,,,1079,2019_Mar_15_1437,mf_amp_cond1,3.0.4,59.998768454783615,
sidearbs,,&&&&&&&&,right,nonword,,,,,,,,,,,,,,,0,35,35,137,,,,,,,,,,,,,LDT,left,0.5170482827234082,,,,,,0,,,,,,,,,,,,,left,0,0.5170482827234082,,,,,,,1079,2019_Mar_15_1437,mf_amp_cond1,3.0.4,59.998768454783615,
wonderfujnoss,,&&&&&&&&&&&&&,right,nonword,,,,,,,,,,,,,,,0,36,36,109,,,,,,,,,,,,,LDT,left,0.40034727746387944,,,,,,0,,,,,,,,,,,,,left,0,0.40034727746387944,,,,,,,1079,2019_Mar_15_1437,mf_amp_cond1,3.0.4,59.998768454783615,
strong,,&&&&&&,left,loyalty.virtue,,,,,,,,,,,,,,,0,37,37,167,,,,,,,,,,,,,LDT,left,0.6170364801655523,,,,,,1,,,,,,,,,,,,,left,1,0.6170364801655523,,,,,,,1079,2019_Mar_15_1437,mf_amp_cond1,3.0.4,59.998768454783615,
police,,&&&&&&,left,authority.vice,,,,,,,,,,,,,,,0,38,38,153,,,,,,,,,,,,,LDT,left,0.7171237806178397,,,,,,1,,,,,,,,,,,,,left,1,0.7171237806178397,,,,,,,1079,2019_Mar_15_1437,mf_amp_cond1,3.0.4,59.998768454783615,
galamitous,,&&&&&&&&&&,right,nonword,,,,,,,,,,,,,,,0,39,39,166,,,,,,,,,,,,,LDT,left,1.08385429228656,,,,,,0,,,,,,,,,,,,,left,0,1.08385429228656,,,,,,,1079,2019_Mar_15_1437,mf_amp_cond1,3.0.4,59.998768454783615,
even,,&&&&,left,neutral,,,,,,,,,,,,,,,0,40,40,120,,,,,,,,,,,,,LDT,left,0.8504651106050005,,,,,,1,,,,,,,,,,,,,left,1,0.8504651106050005,,,,,,,1079,2019_Mar_15_1437,mf_amp_cond1,3.0.4,59.998768454783615,
mightingale,,&&&&&&&&&&&,right,nonword,,,,,,,,,,,,,,,0,41,41,105,,,,,,,,,,,,,LDT,left,0.4670484110247344,,,,,,0,,,,,,,,,,,,,left,0,0.4670484110247344,,,,,,,1079,2019_Mar_15_1437,mf_amp_cond1,3.0.4,59.998768454783615,
free,,&&&&,left,fairness.virtue,,,,,,,,,,,,,,,0,42,42,111,,,,,,,,,,,,,LDT,right,0.4670246776076965,,,,,,0,,,,,,,,,,,,,right,0,0.4670246776076965,,,,,,,1079,2019_Mar_15_1437,mf_amp_cond1,3.0.4,59.998768454783615,
chared,,&&&&&&,right,nonword,,,,,,,,,,,,,,,0,43,43,128,,,,,,,,,,,,,LDT,right,0.6337383834616048,,,,,,1,,,,,,,,,,,,,right,1,0.6337383834616048,,,,,,,1079,2019_Mar_15_1437,mf_amp_cond1,3.0.4,59.998768454783615,
slavery,,&&&&&&&,left,loyalty.vice,,,,,,,,,,,,,,,0,44,44,59,,,,,,,,,,,,,LDT,left,0.6003993626509327,,,,,,1,,,,,,,,,,,,,left,1,0.6003993626509327,,,,,,,1079,2019_Mar_15_1437,mf_amp_cond1,3.0.4,59.998768454783615,
faspberry,,&&&&&&&&&,None,nonword,,,,,,,,,,,,,,,0,45,45,35,,,,,,,,,,,,,LDT,left,0.6837607056950219,,,,,,0,,,,,,,,,,,,,left,0,0.6837607056950219,,,,,,,1079,2019_Mar_15_1437,mf_amp_cond1,3.0.4,59.998768454783615,
thru,,&&&&,left,neutral,,,,,,,,,,,,,,,0,46,46,132,,,,,,,,,,,,,LDT,right,0.4003482396219624,,,,,,0,,,,,,,,,,,,,right,0,0.4003482396219624,,,,,,,1079,2019_Mar_15_1437,mf_amp_cond1,3.0.4,59.998768454783615,
synchronazers,,&&&&&&&&&&&&&,right,nonword,,,,,,,,,,,,,,,0,47,47,93,,,,,,,,,,,,,LDT,left,0.5170389817940304,,,,,,0,,,,,,,,,,,,,left,0,0.5170389817940304,,,,,,,1079,2019_Mar_15_1437,mf_amp_cond1,3.0.4,59.998768454783615,
forepo,,&&&&&&,right,nonword,,,,,,,,,,,,,,,0,48,48,14,,,,,,,,,,,,,LDT,left,0.7004218773217872,,,,,,0,,,,,,,,,,,,,left,0,0.7004218773217872,,,,,,,1079,2019_Mar_15_1437,mf_amp_cond1,3.0.4,59.998768454783615,
victim,,&&&&&&,left,care.vice,,,,,,,,,,,,,,,0,49,49,72,,,,,,,,,,,,,LDT,right,0.41702127795724664,,,,,,0,,,,,,,,,,,,,right,0,0.41702127795724664,,,,,,,1079,2019_Mar_15_1437,mf_amp_cond1,3.0.4,59.998768454783615,
abuse,,&&&&&,left,sanctity.vice,,,,,,,,,,,,,,,0,50,50,146,,,,,,,,,,,,,LDT,right,0.5003736407816177,,,,,,0,,,,,,,,,,,,,right,0,0.5003736407816177,,,,,,,1079,2019_Mar_15_1437,mf_amp_cond1,3.0.4,59.998768454783615,
bruthfulness,,&&&&&&&&&&&&,right,nonword,,,,,,,,,,,,,,,0,51,51,131,,,,,,,,,,,,,LDT,left,0.3170218552550068,,,,,,0,,,,,,,,,,,,,left,0,0.3170218552550068,,,,,,,1079,2019_Mar_15_1437,mf_amp_cond1,3.0.4,59.998768454783615,
besides,,&&&&&&&,left,neutral,,,,,,,,,,,,,,,0,52,52,173,,,,,,,,,,,,,LDT,left,0.767113068519393,,,,,,1,,,,,,,,,,,,,left,1,0.767113068519393,,,,,,,1079,2019_Mar_15_1437,mf_amp_cond1,3.0.4,59.998768454783615,
sickyay,,&&&&&&&,right,nonword,,,,,,,,,,,,,,,0,53,53,145,,,,,,,,,,,,,LDT,right,0.9838247217412572,,,,,,1,,,,,,,,,,,,,right,1,0.9838247217412572,,,,,,,1079,2019_Mar_15_1437,mf_amp_cond1,3.0.4,59.998768454783615,
menizen,,&&&&&&&,None,nonword,,,,,,,,,,,,,,,0,54,54,191,,,,,,,,,,,,,LDT,left,0.7504323328612372,,,,,,0,,,,,,,,,,,,,left,0,0.7504323328612372,,,,,,,1079,2019_Mar_15_1437,mf_amp_cond1,3.0.4,59.998768454783615,
each,,&&&&,left,neutral,,,,,,,,,,,,,,,0,55,55,41,,,,,,,,,,,,,LDT,right,0.4837060546997236,,,,,,0,,,,,,,,,,,,,right,0,0.4837060546997236,,,,,,,1079,2019_Mar_15_1437,mf_amp_cond1,3.0.4,59.998768454783615,
sliptery,,&&&&&&&&,right,nonword,,,,,,,,,,,,,,,0,56,56,64,,,,,,,,,,,,,LDT,right,0.7671217280003475,,,,,,1,,,,,,,,,,,,,right,1,0.7671217280003475,,,,,,,1079,2019_Mar_15_1437,mf_amp_cond1,3.0.4,59.998768454783615,
counpy's,,&&&&&&&&,right,nonword,,,,,,,,,,,,,,,0,57,57,183,,,,,,,,,,,,,LDT,left,0.5170316051953705,,,,,,0,,,,,,,,,,,,,left,0,0.5170316051953705,,,,,,,1079,2019_Mar_15_1437,mf_amp_cond1,3.0.4,59.998768454783615,
amoungst,,&&&&&&&&,left,neutral,,,,,,,,,,,,,,,0,58,58,77,,,,,,,,,,,,,LDT,left,0.6670802907610778,,,,,,1,,,,,,,,,,,,,left,1,0.6670802907610778,,,,,,,1079,2019_Mar_15_1437,mf_amp_cond1,3.0.4,59.998768454783615,
sonvoy,,&&&&&&,None,nonword,,,,,,,,,,,,,,,0,59,59,162,,,,,,,,,,,,,LDT,left,0.6670700276590651,,,,,,0,,,,,,,,,,,,,left,0,0.6670700276590651,,,,,,,1079,2019_Mar_15_1437,mf_amp_cond1,3.0.4,59.998768454783615,
discovars,,&&&&&&&&&,right,nonword,,,,,,,,,,,,,,,0,60,60,42,,,,,,,,,,,,,LDT,left,0.6837594228127273,,,,,,0,,,,,,,,,,,,,left,0,0.6837594228127273,,,,,,,1079,2019_Mar_15_1437,mf_amp_cond1,3.0.4,59.998768454783615,
violations,,&&&&&&&&&&,left,sanctity.vice,,,,,,,,,,,,,,,0,61,61,124,,,,,,,,,,,,,LDT,right,0.6337476843909826,,,,,,0,,,,,,,,,,,,,right,0,0.6337476843909826,,,,,,,1079,2019_Mar_15_1437,mf_amp_cond1,3.0.4,59.998768454783615,
values,,&&&&&&,left,sanctity.virtue,,,,,,,,,,,,,,,0,62,62,40,,,,,,,,,,,,,LDT,right,0.4003556162206223,,,,,,0,,,,,,,,,,,,,right,0,0.4003556162206223,,,,,,,1079,2019_Mar_15_1437,mf_amp_cond1,3.0.4,59.998768454783615,
chressing,,&&&&&&&&&,None,nonword,,,,,,,,,,,,,,,0,63,63,84,,,,,,,,,,,,,LDT,left,0.4170376347610727,,,,,,0,,,,,,,,,,,,,left,0,0.4170376347610727,,,,,,,1079,2019_Mar_15_1437,mf_amp_cond1,3.0.4,59.998768454783615,
lachelor,,&&&&&&&&,right,nonword,,,,,,,,,,,,,,,0,64,64,148,,,,,,,,,,,,,LDT,left,0.6170624586229678,,,,,,0,,,,,,,,,,,,,left,0,0.6170624586229678,,,,,,,1079,2019_Mar_15_1437,mf_amp_cond1,3.0.4,59.998768454783615,
baladroit,,&&&&&&&&&,right,nonword,,,,,,,,,,,,,,,0,65,65,4,,,,,,,,,,,,,LDT,left,0.7336294022243237,,,,,,0,,,,,,,,,,,,,left,0,0.7336294022243237,,,,,,,1079,2019_Mar_15_1437,mf_amp_cond1,3.0.4,59.998768454783615,
Daptist,,&&&&&&&,right,nonword,,,,,,,,,,,,,,,0,66,66,46,,,,,,,,,,,,,LDT,left,0.6504085353080882,,,,,,0,,,,,,,,,,,,,left,0,0.6504085353080882,,,,,,,1079,2019_Mar_15_1437,mf_amp_cond1,3.0.4,59.998768454783615,
agreement,,&&&&&&&&&,left,fairness.virtue,,,,,,,,,,,,,,,0,67,67,116,,,,,,,,,,,,,LDT,left,0.3836816157127032,,,,,,1,,,,,,,,,,,,,left,1,0.3836816157127032,,,,,,,1079,2019_Mar_15_1437,mf_amp_cond1,3.0.4,59.998768454783615,
epigrach,,&&&&&&&&,right,nonword,,,,,,,,,,,,,,,0,68,68,11,,,,,,,,,,,,,LDT,left,0.450338168971939,,,,,,0,,,,,,,,,,,,,left,0,0.450338168971939,,,,,,,1079,2019_Mar_15_1437,mf_amp_cond1,3.0.4,59.998768454783615,
gusinesslike,,&&&&&&&&&&&&,right,nonword,,,,,,,,,,,,,,,0,69,69,101,,,,,,,,,,,,,LDT,left,0.4503433005011175,,,,,,0,,,,,,,,,,,,,left,0,0.4503433005011175,,,,,,,1079,2019_Mar_15_1437,mf_amp_cond1,3.0.4,59.998768454783615,
prison,,&&&&&&,left,fairness.vice,,,,,,,,,,,,,,,0,70,70,29,,,,,,,,,,,,,LDT,left,0.5503860206372337,,,,,,1,,,,,,,,,,,,,left,1,0.5503860206372337,,,,,,,1079,2019_Mar_15_1437,mf_amp_cond1,3.0.4,59.998768454783615,
dumid,,&&&&&,right,nonword,,,,,,,,,,,,,,,0,71,71,164,,,,,,,,,,,,,LDT,left,0.40033925941679627,,,,,,0,,,,,,,,,,,,,left,0,0.40033925941679627,,,,,,,1079,2019_Mar_15_1437,mf_amp_cond1,3.0.4,59.998768454783615,
penalty,,&&&&&&&,left,authority.vice,,,,,,,,,,,,,,,0,72,72,89,,,,,,,,,,,,,LDT,left,0.767136801907327,,,,,,1,,,,,,,,,,,,,left,1,0.767136801907327,,,,,,,1079,2019_Mar_15_1437,mf_amp_cond1,3.0.4,59.998768454783615,
wherever,,&&&&&&&&,left,neutral,,,,,,,,,,,,,,,0,73,73,43,,,,,,,,,,,,,LDT,right,0.7170923498924822,,,,,,0,,,,,,,,,,,,,right,0,0.7170923498924822,,,,,,,1079,2019_Mar_15_1437,mf_amp_cond1,3.0.4,59.998768454783615,
latterly,,&&&&&&&&,left,neutral,,,,,,,,,,,,,,,0,74,74,55,,,,,,,,,,,,,LDT,left,0.467026922662626,,,,,,1,,,,,,,,,,,,,left,1,0.467026922662626,,,,,,,1079,2019_Mar_15_1437,mf_amp_cond1,3.0.4,59.998768454783615,
front,,&&&&&,left,neutral,,,,,,,,,,,,,,,0,75,75,165,,,,,,,,,,,,,LDT,left,0.5337120201293146,,,,,,1,,,,,,,,,,,,,left,1,0.5337120201293146,,,,,,,1079,2019_Mar_15_1437,mf_amp_cond1,3.0.4,59.998768454783615,
supervuned,,&&&&&&&&&&,right,nonword,,,,,,,,,,,,,,,0,76,76,91,,,,,,,,,,,,,LDT,left,0.5170800341729773,,,,,,0,,,,,,,,,,,,,left,0,0.5170800341729773,,,,,,,1079,2019_Mar_15_1437,mf_amp_cond1,3.0.4,59.998768454783615,
rejected,,&&&&&&&&,left,authority.vice,,,,,,,,,,,,,,,0,77,77,16,,,,,,,,,,,,,LDT,left,0.48368135913915467,,,,,,1,,,,,,,,,,,,,left,1,0.48368135913915467,,,,,,,1079,2019_Mar_15_1437,mf_amp_cond1,3.0.4,59.998768454783615,
terrorist,,&&&&&&&&&,left,loyalty.vice,,,,,,,,,,,,,,,0,78,78,73,,,,,,,,,,,,,LDT,left,0.4503789006121224,,,,,,1,,,,,,,,,,,,,left,1,0.4503789006121224,,,,,,,1079,2019_Mar_15_1437,mf_amp_cond1,3.0.4,59.998768454783615,
become,,&&&&&&,left,neutral,,,,,,,,,,,,,,,0,79,79,115,,,,,,,,,,,,,LDT,left,0.40034342880244367,,,,,,1,,,,,,,,,,,,,left,1,0.40034342880244367,,,,,,,1079,2019_Mar_15_1437,mf_amp_cond1,3.0.4,59.998768454783615,
saned,,&&&&&,None,nonword,,,,,,,,,,,,,,,0,80,80,83,,,,,,,,,,,,,LDT,left,0.5337126615777379,,,,,,0,,,,,,,,,,,,,left,0,0.5337126615777379,,,,,,,1079,2019_Mar_15_1437,mf_amp_cond1,3.0.4,59.998768454783615,
crime,,&&&&&,left,fairness.vice,,,,,,,,,,,,,,,0,81,81,188,,,,,,,,,,,,,LDT,left,0.4336882225907175,,,,,,1,,,,,,,,,,,,,left,1,0.4336882225907175,,,,,,,1079,2019_Mar_15_1437,mf_amp_cond1,3.0.4,59.998768454783615,
drumbled,,&&&&&&&&,right,nonword,,,,,,,,,,,,,,,0,82,82,163,,,,,,,,,,,,,LDT,left,0.467028846978792,,,,,,0,,,,,,,,,,,,,left,0,0.467028846978792,,,,,,,1079,2019_Mar_15_1437,mf_amp_cond1,3.0.4,59.998768454783615,
somehow,,&&&&&&&,left,neutral,,,,,,,,,,,,,,,0,83,83,114,,,,,,,,,,,,,LDT,left,0.4003459945670329,,,,,,1,,,,,,,,,,,,,left,1,0.4003459945670329,,,,,,,1079,2019_Mar_15_1437,mf_amp_cond1,3.0.4,59.998768454783615,
lempestuous,,&&&&&&&&&&&,right,nonword,,,,,,,,,,,,,,,0,84,84,172,,,,,,,,,,,,,LDT,left,1.3339040041464614,,,,,,0,,,,,,,,,,,,,left,0,1.3339040041464614,,,,,,,1079,2019_Mar_15_1437,mf_amp_cond1,3.0.4,59.998768454783615,
crilfully,,&&&&&&&&&,right,nonword,,,,,,,,,,,,,,,0,85,85,196,,,,,,,,,,,,,LDT,left,0.4837121484306408,,,,,,0,,,,,,,,,,,,,left,0,0.4837121484306408,,,,,,,1079,2019_Mar_15_1437,mf_amp_cond1,3.0.4,59.998768454783615,
seem,,&&&&,left,neutral,,,,,,,,,,,,,,,0,86,86,9,,,,,,,,,,,,,LDT,left,0.46703045059985016,,,,,,1,,,,,,,,,,,,,left,1,0.46703045059985016,,,,,,,1079,2019_Mar_15_1437,mf_amp_cond1,3.0.4,59.998768454783615,
hence,,&&&&&,left,neutral,,,,,,,,,,,,,,,0,87,87,67,,,,,,,,,,,,,LDT,left,0.43366801711090375,,,,,,1,,,,,,,,,,,,,left,1,0.43366801711090375,,,,,,,1079,2019_Mar_15_1437,mf_amp_cond1,3.0.4,59.998768454783615,
fraud,,&&&&&,left,fairness.vice,,,,,,,,,,,,,,,0,88,88,155,,,,,,,,,,,,,LDT,left,0.4336840532050701,,,,,,1,,,,,,,,,,,,,left,1,0.4336840532050701,,,,,,,1079,2019_Mar_15_1437,mf_amp_cond1,3.0.4,59.998768454783615,
neputized,,&&&&&&&&&,right,nonword,,,,,,,,,,,,,,,0,89,89,20,,,,,,,,,,,,,LDT,left,0.41701582570385654,,,,,,0,,,,,,,,,,,,,left,0,0.41701582570385654,,,,,,,1079,2019_Mar_15_1437,mf_amp_cond1,3.0.4,59.998768454783615,
integrity,,&&&&&&&&&,left,fairness.virtue,,,,,,,,,,,,,,,0,90,90,75,,,,,,,,,,,,,LDT,left,0.45036607174552046,,,,,,1,,,,,,,,,,,,,left,1,0.45036607174552046,,,,,,,1079,2019_Mar_15_1437,mf_amp_cond1,3.0.4,59.998768454783615,
metibolic,,&&&&&&&&&,right,nonword,,,,,,,,,,,,,,,0,91,91,113,,,,,,,,,,,,,LDT,left,0.4003456738573732,,,,,,0,,,,,,,,,,,,,left,0,0.4003456738573732,,,,,,,1079,2019_Mar_15_1437,mf_amp_cond1,3.0.4,59.998768454783615,
pulge,,&&&&&,right,nonword,,,,,,,,,,,,,,,0,92,92,150,,,,,,,,,,,,,LDT,left,0.45036799609079026,,,,,,0,,,,,,,,,,,,,left,0,0.45036799609079026,,,,,,,1079,2019_Mar_15_1437,mf_amp_cond1,3.0.4,59.998768454783615,
hereby,,&&&&&&,left,neutral,,,,,,,,,,,,,,,0,93,93,168,,,,,,,,,,,,,LDT,left,0.3003465718647931,,,,,,1,,,,,,,,,,,,,left,1,0.3003465718647931,,,,,,,1079,2019_Mar_15_1437,mf_amp_cond1,3.0.4,59.998768454783615,
promised,,&&&&&&&&,left,loyalty.virtue,,,,,,,,,,,,,,,0,94,94,194,,,,,,,,,,,,,LDT,left,0.5003681885136757,,,,,,1,,,,,,,,,,,,,left,1,0.5003681885136757,,,,,,,1079,2019_Mar_15_1437,mf_amp_cond1,3.0.4,59.998768454783615,
anyhow,,&&&&&&,left,neutral,,,,,,,,,,,,,,,0,95,95,33,,,,,,,,,,,,,LDT,left,1.8673915191029664,,,,,,1,,,,,,,,,,,,,left,1,1.8673915191029664,,,,,,,1079,2019_Mar_15_1437,mf_amp_cond1,3.0.4,59.998768454783615,
forced,,&&&&&&,left,fairness.vice,,,,,,,,,,,,,,,0,96,96,104,,,,,,,,,,,,,LDT,left,0.5837205513380468,,,,,,1,,,,,,,,,,,,,left,1,0.5837205513380468,,,,,,,1079,2019_Mar_15_1437,mf_amp_cond1,3.0.4,59.998768454783615,
framo,,&&&&&,right,nonword,,,,,,,,,,,,,,,0,97,97,62,,,,,,,,,,,,,LDT,left,0.5170425097312545,,,,,,0,,,,,,,,,,,,,left,0,0.5170425097312545,,,,,,,1079,2019_Mar_15_1437,mf_amp_cond1,3.0.4,59.998768454783615,
although,,&&&&&&&&,left,neutral,,,,,,,,,,,,,,,0,98,98,8,,,,,,,,,,,,,LDT,left,0.43369624063780066,,,,,,1,,,,,,,,,,,,,left,1,0.43369624063780066,,,,,,,1079,2019_Mar_15_1437,mf_amp_cond1,3.0.4,59.998768454783615,
spag,,&&&&,None,nonword,,,,,,,,,,,,,,,0,99,99,130,,,,,,,,,,,,,LDT,right,0.517039302518242,,,,,,0,,,,,,,,,,,,,right,0,0.517039302518242,,,,,,,1079,2019_Mar_15_1437,mf_amp_cond1,3.0.4,59.998768454783615,
squets,,&&&&&&,right,nonword,,,,,,,,,,,,,,,0,100,100,13,,,,,,,,,,,,,LDT,left,0.5503796062112087,,,,,,0,,,,,,,,,,,,,left,0,0.5503796062112087,,,,,,,1079,2019_Mar_15_1437,mf_amp_cond1,3.0.4,59.998768454783615,
lenon,,&&&&&,right,nonword,,,,,,,,,,,,,,,0,101,101,102,,,,,,,,,,,,,LDT,left,0.6004019284300739,,,,,,0,,,,,,,,,,,,,left,0,0.6004019284300739,,,,,,,1079,2019_Mar_15_1437,mf_amp_cond1,3.0.4,59.998768454783615,
oam,,&&&,right,nonword,,,,,,,,,,,,,,,0,102,102,195,,,,,,,,,,,,,LDT,left,0.5003669056168292,,,,,,0,,,,,,,,,,,,,left,0,0.5003669056168292,,,,,,,1079,2019_Mar_15_1437,mf_amp_cond1,3.0.4,59.998768454783615,
mostly,,&&&&&&,left,neutral,,,,,,,,,,,,,,,0,103,103,178,,,,,,,,,,,,,LDT,left,0.5170293601549929,,,,,,1,,,,,,,,,,,,,left,1,0.5170293601549929,,,,,,,1079,2019_Mar_15_1437,mf_amp_cond1,3.0.4,59.998768454783615,
tracious,,&&&&&&&&,right,nonword,,,,,,,,,,,,,,,0,104,104,193,,,,,,,,,,,,,LDT,left,0.550393076511682,,,,,,0,,,,,,,,,,,,,left,0,0.550393076511682,,,,,,,1079,2019_Mar_15_1437,mf_amp_cond1,3.0.4,59.998768454783615,
juck,,&&&&,right,nonword,,,,,,,,,,,,,,,0,105,105,3,,,,,,,,,,,,,LDT,right,0.6003903824457666,,,,,,1,,,,,,,,,,,,,right,1,0.6003903824457666,,,,,,,1079,2019_Mar_15_1437,mf_amp_cond1,3.0.4,59.998768454783615,
pumber,,&&&&&&,None,nonword,,,,,,,,,,,,,,,0,106,106,106,,,,,,,,,,,,,LDT,left,0.48364126891829073,,,,,,0,,,,,,,,,,,,,left,0,0.48364126891829073,,,,,,,1079,2019_Mar_15_1437,mf_amp_cond1,3.0.4,59.998768454783615,
thadowed,,&&&&&&&&,right,nonword,,,,,,,,,,,,,,,0,107,107,149,,,,,,,,,,,,,LDT,left,0.6004147572966758,,,,,,0,,,,,,,,,,,,,left,0,0.6004147572966758,,,,,,,1079,2019_Mar_15_1437,mf_amp_cond1,3.0.4,59.998768454783615,
