words,masks,symbols,category,corr_ans,mask,logo_trials.thisRepN,logo_trials.thisTrialN,logo_trials.thisN,logo_trials.thisIndex,index,symbol,AMP_pracs.thisRepN,AMP_pracs.thisTrialN,AMP_pracs.thisN,AMP_pracs.thisIndex,AMP_trials.thisRepN,AMP_trials.thisTrialN,AMP_trials.thisN,AMP_trials.thisIndex,LDT_pracs.thisRepN,LDT_pracs.thisTrialN,LDT_pracs.thisN,LDT_pracs.thisIndex,LDT_trials.thisRepN,LDT_trials.thisTrialN,LDT_trials.thisN,LDT_trials.thisIndex,trials.thisRepN,trials.thisTrialN,trials.thisN,trials.thisIndex,begin_key.keys,begin_key.rt,key_resp_AMP_instr1.keys,exp_time,resp_logo_rate.keys,keypress_logo_prac.keys,keypress_logo_prac.rt,resp_logo_ready_2.keys,keypress_logo_trial.keys,keypress_logo_trial.rt,symbol_index,resp_AMP_ready1.keys,resp_AMP.keys,resp_AMP.rt,task,keypress,RT,prime_dur,resp_AMP_ready.keys,resp_AMP_trials.keys,AMP_nonword_rating.response,AMP_nonword_rating.rt,AMP_word_rating.response,AMP_word_rating.rt,AMP_random_rating.response,AMP_random_rating.rt,key_resp_LDT_instr.keys,resp_LDT_prac.keys,resp_LDT_prac.rt,corr,resp_LDT_ready.keys,resp_LDT.keys,resp_LDT.corr,resp_LDT.rt,LDT_rating.response,LDT_rating.rt,key_resp_instr_memtask.keys,key_resp_instr_memtask.rt,resp_memtask.keys,resp_memtask.corr,resp_memtask.rt,participant,date,expName,psychopyVersion,frameRate,
,,,,,,,,,,,,,,,,,,,,,,,,,,,,,,,,right,0.5297120489994995,,,,,,,,,,,,,,,,,,,,,,,,,,,,,,,,,,,,,,,,999,2019_Apr_10_1516,mf_amp_cond1,3.0.7,58.93308705923483,
,,,,,,,,,,,,,,,,,,,,,,,,,,,,,,,,,,None,,,,,,,,,,,,,,,,,,,,,,,,,,,,,,,,,,,,,,,999,2019_Apr_10_1516,mf_amp_cond1,3.0.7,58.93308705923483,
,,,,,,,,,,,,,,,,,,,,,,,,,,,,,,,,,,,0.8861804859989206,None,,,,,,,,,,,,,,,,,,,,,,,,,,,,,,,,,,,,,999,2019_Apr_10_1516,mf_amp_cond1,3.0.7,58.93308705923483,
,,,,,,,,,,,,,,,,,,,,,,,,,,,,,,,,,,,1.1804786720022094,,right,1.3998680769946077,,,,,,,,,,,,,,,,,,,,,,,,,,,,,,,,,,,999,2019_Apr_10_1516,mf_amp_cond1,3.0.7,58.93308705923483,
,,,,,,,,,,,,,,,,,,,,,,,,,,,,,,,,,,,,,,,None,,,,,,,,,,,,,,,,,,,,,,,,,,,,,,,,,,999,2019_Apr_10_1516,mf_amp_cond1,3.0.7,58.93308705923483,
,,,,,,,,,,,,,,,,,,,,,,,,,,,,,,,,,,,3.365920272997755,,,,,None,1.3601106079950114,38,None,,,,,,,,,,,,,,,,,,,,,,,,,,,,,,999,2019_Apr_10_1516,mf_amp_cond1,3.0.7,58.93308705923483,
scarf,&&&&&,images/symbols/symbol_54.png,,,,,,,,,,0,0,0,3,,,,,,,,,,,,,,,,,,,,12.41063291500177,,,,,,,,,right,0.6936161019984866,AMP_prac,right,0.6936161019984866,1,,,,,,,,,,,,,,,,,,,,,,,,999,2019_Apr_10_1516,mf_amp_cond1,3.0.7,58.93308705923483,
car,&&&,images/symbols/symbol_9.png,,,,,,,,,,0,1,1,0,,,,,,,,,,,,,,,,,,,,13.594261330996233,,,,,,,,,left,0.9431682110007387,AMP_prac,left,0.9431682110007387,1,,,,,,,,,,,,,,,,,,,,,,,,999,2019_Apr_10_1516,mf_amp_cond1,3.0.7,58.93308705923483,
banana,&&&&&&,images/symbols/symbol_68.png,,,,,,,,,,0,2,2,1,,,,,,,,,,,,,,,,,,,,14.710580933999154,,,,,,,,,right,0.8776584009974613,AMP_prac,right,0.8776584009974613,1,,,,,,,,,,,,,,,,,,,,,,,,999,2019_Apr_10_1516,mf_amp_cond1,3.0.7,58.93308705923483,
keyboard,&&&&&&&&,images/symbols/symbol_40.png,,,,,,,,,,0,3,3,2,,,,,,,,,,,,,,,,,,,,15.979212903999723,,,,,,,,,left,1.0249392049954622,AMP_prac,left,1.0249392049954622,1,,,,,,,,,,,,,,,,,,,,,,,,999,2019_Apr_10_1516,mf_amp_cond1,3.0.7,58.93308705923483,
,,,,,,,,,,,,,,,,,,,,,,,,,,,,,,,,,,,,,,,,,,,,,,,,,,None,,,,,,,,,,,,,,,,,,,,,,,999,2019_Apr_10_1516,mf_amp_cond1,3.0.7,58.93308705923483,
rhuissed,&&&&&&&&,images/symbols/symbol_13.png,nonword,None,,,,,,,,,,,,0,0,0,0,,,,,,,,,,,,,,,,20.41453845799697,,,,,,,,,,,AMP_prac,left,1.0249392049954622,1,,None,,,,,,,,,,,,,,,,,,,,,,999,2019_Apr_10_1516,mf_amp_cond1,3.0.7,58.93308705923483,
,,,,,,,,,,,,,,,,,,,,,,,,,,,,,,,,,,,,,,,,,,,,,,,,,,,,4,27.463,,,,,,,,,,,,,,,,,,,,999,2019_Apr_10_1516,mf_amp_cond1,3.0.7,58.93308705923483,
,,,,,,,,,,,,,,,,,,,,,,,,,,,,,,,,,,,,,,,,,,,,,,,,,,,,,,4,27.414,,,,,,,,,,,,,,,,,,999,2019_Apr_10_1516,mf_amp_cond1,3.0.7,58.93308705923483,
,,,,,,,,,,,,,,,,,,,,,,,,,,,,,,,,,,,,,,,,,,,,,,,,,,,,,,,,4,27.386,,,,,,,,,,,,,,,,999,2019_Apr_10_1516,mf_amp_cond1,3.0.7,58.93308705923483,
,,,,,,,,,,,,,,,,,,,,,,,,,,,,,,,,,,,,,,,,,,,,,,,,,,,,,,,,,,None,,,,,,,,,,,,,,,999,2019_Apr_10_1516,mf_amp_cond1,3.0.7,58.93308705923483,
bisebell,,,,,&&&&&&&,,,,,,,,,,,,,,,0,0,0,1,,,,,,,,,,,,30.834397594997426,,,,,,,,,,,LDT_prac,right,0.6870570230021258,,,,,,,,,,,right,0.6870570230021258,0,,,,,,,,,,,,999,2019_Apr_10_1516,mf_amp_cond1,3.0.7,58.93308705923483,
keyboard,,,,,&&&&&&&,,,,,,,,,,,,,,,0,1,1,0,,,,,,,,,,,,32.70017062500119,,,,,,,,,,,LDT_prac,left,0.6040737580042332,,,,,,,,,,,left,0.6040737580042332,0,,,,,,,,,,,,999,2019_Apr_10_1516,mf_amp_cond1,3.0.7,58.93308705923483,
,,,,,,,,,,,,,,,,,,,,,,,,,,,,,,,,,,,,,,,,,,,,,,,,,,,,,,,,,,,,,,None,,,,,,,,,,,999,2019_Apr_10_1516,mf_amp_cond1,3.0.7,58.93308705923483,
doars,,,nonword,left,&&&&&,,,,,,,,,,,,,,,,,,,0,0,0,161,,,,,,,,,,,,,,,,,,,LDT,right,0.549459712994576,,,,,,,,,,,,,0,,right,0,0.549459712994576,,,,,,,,999,2019_Apr_10_1516,mf_amp_cond1,3.0.7,58.93308705923483,
laudd,,,nonword,left,&&&&&,,,,,,,,,,,,,,,,,,,0,1,1,158,,,,,,,,,,,,,,,,,,,LDT,left,0.4525264039984904,,,,,,,,,,,,,1,,left,1,0.4525264039984904,,,,,,,,999,2019_Apr_10_1516,mf_amp_cond1,3.0.7,58.93308705923483,
yakks,,,nonword,left,&&&&&,,,,,,,,,,,,,,,,,,,0,2,2,124,,,,,,,,,,,,,,,,,,,LDT,right,0.40581860699603567,,,,,,,,,,,,,0,,right,0,0.40581860699603567,,,,,,,,999,2019_Apr_10_1516,mf_amp_cond1,3.0.7,58.93308705923483,
civilians,,,care.vice,left,&&&&&&&&&,,,,,,,,,,,,,,,,,,,0,3,3,6,,,,,,,,,,,,,,,,,,,LDT,right,1.6160600630028057,,,,,,,,,,,,,0,,right,0,1.6160600630028057,,,,,,,,999,2019_Apr_10_1516,mf_amp_cond1,3.0.7,58.93308705923483,
dignity,,,sanctity.virtue,left,&&&&&&&,,,,,,,,,,,,,,,,,,,0,4,4,42,,,,,,,,,,,,,,,,,,,LDT,left,1.0375712439999916,,,,,,,,,,,,,1,,left,1,1.0375712439999916,,,,,,,,999,2019_Apr_10_1516,mf_amp_cond1,3.0.7,58.93308705923483,
also,,,neutral,left,&&&&,,,,,,,,,,,,,,,,,,,0,5,5,55,,,,,,,,,,,,,,,,,,,LDT,right,0.8530475719962851,,,,,,,,,,,,,0,,right,0,0.8530475719962851,,,,,,,,999,2019_Apr_10_1516,mf_amp_cond1,3.0.7,58.93308705923483,
least,,,neutral,left,&&&&&,,,,,,,,,,,,,,,,,,,0,6,6,89,,,,,,,,,,,,,,,,,,,LDT,left,0.4682205700009945,,,,,,,,,,,,,1,,left,1,0.4682205700009945,,,,,,,,999,2019_Apr_10_1516,mf_amp_cond1,3.0.7,58.93308705923483,
treas,,,nonword,left,&&&&&,,,,,,,,,,,,,,,,,,,0,7,7,166,,,,,,,,,,,,,,,,,,,LDT,left,0.5350066989994957,,,,,,,,,,,,,1,,left,1,0.5350066989994957,,,,,,,,999,2019_Apr_10_1516,mf_amp_cond1,3.0.7,58.93308705923483,
amount,,,neutral,left,&&&&&&,,,,,,,,,,,,,,,,,,,0,8,8,63,,,,,,,,,,,,,,,,,,,LDT,right,0.5853922239984968,,,,,,,,,,,,,0,,right,0,0.5853922239984968,,,,,,,,999,2019_Apr_10_1516,mf_amp_cond1,3.0.7,58.93308705923483,
amoungst,,,neutral,left,&&&&&&&&,,,,,,,,,,,,,,,,,,,0,9,9,65,,,,,,,,,,,,,,,,,,,LDT,left,0.4356870580013492,,,,,,,,,,,,,1,,left,1,0.4356870580013492,,,,,,,,999,2019_Apr_10_1516,mf_amp_cond1,3.0.7,58.93308705923483,
coacs,,,nonword,left,&&&&&,,,,,,,,,,,,,,,,,,,0,10,10,175,,,,,,,,,,,,,,,,,,,LDT,right,0.5153564190040925,,,,,,,,,,,,,0,,right,0,0.5153564190040925,,,,,,,,999,2019_Apr_10_1516,mf_amp_cond1,3.0.7,58.93308705923483,
jipte,,,nonword,left,&&&&&,,,,,,,,,,,,,,,,,,,0,11,11,185,,,,,,,,,,,,,,,,,,,LDT,None,[],,,,,,,,,,,,,0,,None,0,,,,,,,,,999,2019_Apr_10_1516,mf_amp_cond1,3.0.7,58.93308705923483,
,,,,,,,,,,,,,,,,,,,,,,,,,,,,,,,,,,,,,,,,,,,,,,,,,,,,,,,,,,,,,,,,,,4,64.383,,,,,,999,2019_Apr_10_1516,mf_amp_cond1,3.0.7,58.93308705923483,
,,,,,,,,,,,,,,,,,,,,,,,,,,,,,,,,,,,,,,,,,,,,,,,,,,,,,,,,,,,,,,,,,,,,right,1.7013228599971626,,,,999,2019_Apr_10_1516,mf_amp_cond1,3.0.7,58.93308705923483,
agents,,,authority.vice,left,,,,,,,,,,,,,,,,,,,,,,,,0,0,0,25,,,,,,,,,,,,,,,,,,,,,,,,,,,,,,,,,,,,,,,left,1,2.1671230260035372,999,2019_Apr_10_1516,mf_amp_cond1,3.0.7,58.93308705923483,
agents,,,authority.vice,left,,,,,,,,,,,,,,,,,,,,,,,,0,0,0,25,,,,,,,,,,,,,,,LDT,None,[],,,,,,,,,,,,,0,,,,,,,,,,,,999,2019_Apr_10_1516,mf_amp_cond1,3.0.7,58.93308705923483,
build,,,authority.virtue,left,,,,,,,,,,,,,,,,,,,,,,,,0,1,1,58,,,,,,,,,,,,,,,,,,,,,,,,,,,,,,,,,,,,,,,right,0,1.4646007179981098,999,2019_Apr_10_1516,mf_amp_cond1,3.0.7,58.93308705923483,
build,,,authority.virtue,left,,,,,,,,,,,,,,,,,,,,,,,,0,1,1,58,,,,,,,,,,,,,,,LDT,None,[],,,,,,,,,,,,,0,,,,,,,,,,,,999,2019_Apr_10_1516,mf_amp_cond1,3.0.7,58.93308705923483,
peace,,,care.virtue,right,,,,,,,,,,,,,,,,,,,,,,,,0,2,2,21,,,,,,,,,,,,,,,,,,,,,,,,,,,,,,,,,,,,,,,left,0,1.2164330859959591,999,2019_Apr_10_1516,mf_amp_cond1,3.0.7,58.93308705923483,
peace,,,care.virtue,right,,,,,,,,,,,,,,,,,,,,,,,,0,2,2,21,,,,,,,,,,,,,,,LDT,None,[],,,,,,,,,,,,,0,,,,,,,,,,,,999,2019_Apr_10_1516,mf_amp_cond1,3.0.7,58.93308705923483,
prinse,,,nonword,right,,,,,,,,,,,,,,,,,,,,,,,,0,3,3,74,,,,,,,,,,,,,,,,,,,,,,,,,,,,,,,,,,,,,,,left,0,1.986578816002293,999,2019_Apr_10_1516,mf_amp_cond1,3.0.7,58.93308705923483,
prinse,,,nonword,right,,,,,,,,,,,,,,,,,,,,,,,,0,3,3,74,,,,,,,,,,,,,,,LDT,None,[],,,,,,,,,,,,,0,,,,,,,,,,,,999,2019_Apr_10_1516,mf_amp_cond1,3.0.7,58.93308705923483,
encourage,,,authority.virtue,right,,,,,,,,,,,,,,,,,,,,,,,,0,4,4,91,,,,,,,,,,,,,,,,,,,,,,,,,,,,,,,,,,,,,,,right,1,1.1859541770027135,999,2019_Apr_10_1516,mf_amp_cond1,3.0.7,58.93308705923483,
encourage,,,authority.virtue,right,,,,,,,,,,,,,,,,,,,,,,,,0,4,4,91,,,,,,,,,,,,,,,LDT,None,[],,,,,,,,,,,,,0,,,,,,,,,,,,999,2019_Apr_10_1516,mf_amp_cond1,3.0.7,58.93308705923483,
actively,,,authority.virtue,right,,,,,,,,,,,,,,,,,,,,,,,,0,5,5,80,,,,,,,,,,,,,,,,,,,,,,,,,,,,,,,,,,,,,,,left,0,1.6696741199993994,999,2019_Apr_10_1516,mf_amp_cond1,3.0.7,58.93308705923483,
actively,,,authority.virtue,right,,,,,,,,,,,,,,,,,,,,,,,,0,5,5,80,,,,,,,,,,,,,,,LDT,None,[],,,,,,,,,,,,,0,,,,,,,,,,,,999,2019_Apr_10_1516,mf_amp_cond1,3.0.7,58.93308705923483,
lies,,,fairness.vice,right,,,,,,,,,,,,,,,,,,,,,,,,0,6,6,93,,,,,,,,,,,,,,,,,,,,,,,,,,,,,,,,,,,,,,,right,1,8.486658164998516,999,2019_Apr_10_1516,mf_amp_cond1,3.0.7,58.93308705923483,
lies,,,fairness.vice,right,,,,,,,,,,,,,,,,,,,,,,,,0,6,6,93,,,,,,,,,,,,,,,LDT,None,[],,,,,,,,,,,,,0,,,,,,,,,,,,999,2019_Apr_10_1516,mf_amp_cond1,3.0.7,58.93308705923483,
sypht,,,nonword,left,,,,,,,,,,,,,,,,,,,,,,,,0,7,7,95,,,,,,,,,,,,,,,,,,,,,,,,,,,,,,,,,,,,,,,left,1,1.0186453479982447,999,2019_Apr_10_1516,mf_amp_cond1,3.0.7,58.93308705923483,
sypht,,,nonword,left,,,,,,,,,,,,,,,,,,,,,,,,0,7,7,95,,,,,,,,,,,,,,,LDT,None,[],,,,,,,,,,,,,0,,,,,,,,,,,,999,2019_Apr_10_1516,mf_amp_cond1,3.0.7,58.93308705923483,
true,,,fairness.virtue,left,,,,,,,,,,,,,,,,,,,,,,,,0,8,8,96,,,,,,,,,,,,,,,,,,,,,,,,,,,,,,,,,,,,,,,right,0,0.9357348439953057,999,2019_Apr_10_1516,mf_amp_cond1,3.0.7,58.93308705923483,
true,,,fairness.virtue,left,,,,,,,,,,,,,,,,,,,,,,,,0,8,8,96,,,,,,,,,,,,,,,LDT,None,[],,,,,,,,,,,,,0,,,,,,,,,,,,999,2019_Apr_10_1516,mf_amp_cond1,3.0.7,58.93308705923483,
sharing,,,loyalty.virtue,right,,,,,,,,,,,,,,,,,,,,,,,,0,9,9,59,,,,,,,,,,,,,,,,,,,,,,,,,,,,,,,,,,,,,,,right,1,0.9144822169982945,999,2019_Apr_10_1516,mf_amp_cond1,3.0.7,58.93308705923483,
sharing,,,loyalty.virtue,right,,,,,,,,,,,,,,,,,,,,,,,,0,9,9,59,,,,,,,,,,,,,,,LDT,None,[],,,,,,,,,,,,,0,,,,,,,,,,,,999,2019_Apr_10_1516,mf_amp_cond1,3.0.7,58.93308705923483,
sloaze,,,nonword,left,,,,,,,,,,,,,,,,,,,,,,,,0,10,10,20,,,,,,,,,,,,,,,,,,,,,,,,,,,,,,,,,,,,,,,left,1,0.8725937290000729,999,2019_Apr_10_1516,mf_amp_cond1,3.0.7,58.93308705923483,
sloaze,,,nonword,left,,,,,,,,,,,,,,,,,,,,,,,,0,10,10,20,,,,,,,,,,,,,,,LDT,None,[],,,,,,,,,,,,,0,,,,,,,,,,,,999,2019_Apr_10_1516,mf_amp_cond1,3.0.7,58.93308705923483,
rejected,,,authority.vice,right,,,,,,,,,,,,,,,,,,,,,,,,0,11,11,34,,,,,,,,,,,,,,,,,,,,,,,,,,,,,,,,,,,,,,,right,1,0.9182572439967771,999,2019_Apr_10_1516,mf_amp_cond1,3.0.7,58.93308705923483,
rejected,,,authority.vice,right,,,,,,,,,,,,,,,,,,,,,,,,0,11,11,34,,,,,,,,,,,,,,,LDT,None,[],,,,,,,,,,,,,0,,,,,,,,,,,,999,2019_Apr_10_1516,mf_amp_cond1,3.0.7,58.93308705923483,
combat,,,authority.vice,left,,,,,,,,,,,,,,,,,,,,,,,,0,12,12,7,,,,,,,,,,,,,,,,,,,,,,,,,,,,,,,,,,,,,,,left,1,0.8520082760005607,999,2019_Apr_10_1516,mf_amp_cond1,3.0.7,58.93308705923483,
combat,,,authority.vice,left,,,,,,,,,,,,,,,,,,,,,,,,0,12,12,7,,,,,,,,,,,,,,,LDT,None,[],,,,,,,,,,,,,0,,,,,,,,,,,,999,2019_Apr_10_1516,mf_amp_cond1,3.0.7,58.93308705923483,
unpleasant,,,control,right,,,,,,,,,,,,,,,,,,,,,,,,0,13,13,61,,,,,,,,,,,,,,,,,,,,,,,,,,,,,,,,,,,,,,,right,1,0.7793556410033489,999,2019_Apr_10_1516,mf_amp_cond1,3.0.7,58.93308705923483,
unpleasant,,,control,right,,,,,,,,,,,,,,,,,,,,,,,,0,13,13,61,,,,,,,,,,,,,,,LDT,None,[],,,,,,,,,,,,,0,,,,,,,,,,,,999,2019_Apr_10_1516,mf_amp_cond1,3.0.7,58.93308705923483,
poor,,,fairness.vice,left,,,,,,,,,,,,,,,,,,,,,,,,0,14,14,83,,,,,,,,,,,,,,,,,,,,,,,,,,,,,,,,,,,,,,,right,0,1.1215878000002704,999,2019_Apr_10_1516,mf_amp_cond1,3.0.7,58.93308705923483,
poor,,,fairness.vice,left,,,,,,,,,,,,,,,,,,,,,,,,0,14,14,83,,,,,,,,,,,,,,,LDT,None,[],,,,,,,,,,,,,0,,,,,,,,,,,,999,2019_Apr_10_1516,mf_amp_cond1,3.0.7,58.93308705923483,
death,,,care.vice,right,,,,,,,,,,,,,,,,,,,,,,,,0,15,15,23,,,,,,,,,,,,,,,,,,,,,,,,,,,,,,,,,,,,,,,left,0,0.9506565240008058,999,2019_Apr_10_1516,mf_amp_cond1,3.0.7,58.93308705923483,
death,,,care.vice,right,,,,,,,,,,,,,,,,,,,,,,,,0,15,15,23,,,,,,,,,,,,,,,LDT,None,[],,,,,,,,,,,,,0,,,,,,,,,,,,999,2019_Apr_10_1516,mf_amp_cond1,3.0.7,58.93308705923483,
