words,masks,symbols,conditionfile,category,corr_ans,mask,logo_trials.thisRepN,logo_trials.thisTrialN,logo_trials.thisN,logo_trials.thisIndex,index,symbol,AMP_pracs.thisRepN,AMP_pracs.thisTrialN,AMP_pracs.thisN,AMP_pracs.thisIndex,trials_loop.thisRepN,trials_loop.thisTrialN,trials_loop.thisN,trials_loop.thisIndex,AMP_trials.thisRepN,AMP_trials.thisTrialN,AMP_trials.thisN,AMP_trials.thisIndex,LDT_pracs.thisRepN,LDT_pracs.thisTrialN,LDT_pracs.thisN,LDT_pracs.thisIndex,LDT_trials.thisRepN,LDT_trials.thisTrialN,LDT_trials.thisN,LDT_trials.thisIndex,trials.thisRepN,trials.thisTrialN,trials.thisN,trials.thisIndex,begin_key.keys,begin_key.rt,key_resp_instr.keys,exp_time,resp_sym_rate.keys,sym_resp_1.keys,sym_resp_1.rt,sym_resp_2.keys,sym_resp_trial.keys,symbol_index,resp_AMP_ready1.keys,resp_AMP.keys,task,keypress,RT,prime_dur,resp_AMP_ready.keys,resp_AMP_trials.keys,rest_key_resp.keys,rest_key_resp.rt,AMP_nonword_rating.response,AMP_nonword_rating.rt,AMP_word_rating.response,AMP_word_rating.rt,AMP_random_rating.response,AMP_random_rating.rt,key_resp_LDT_instr.keys,resp_LDT_prac.keys,corr,resp_LDT_ready.keys,resp_LDT_trial.keys,LDT_rating.response,LDT_rating.rt,key_resp_instr_memtask.keys,resp_memtask.keys,resp_memtask.corr,resp_memtask.rt,participant ID,date,expName,psychopyVersion,frameRate,
,,,,,,,,,,,,,,,,,,,,,,,,,,,,,,,,,,,,,right,0.4367096460046014,,,,,,,,,,,,,,,,,,,,,,,,,,,,,,,,,,,,999,2019_Apr_13_1020,mf_amp_cond1,3.0.7,60.21884104803798,
,,,,,,,,,,,,,,,,,,,,,,,,,,,,,,,,,,,,,,,None,,,,,,,,,,,,,,,,,,,,,,,,,,,,,,,,,,,999,2019_Apr_13_1020,mf_amp_cond1,3.0.7,60.21884104803798,
,,,,,,,,,,,,,,,,,,,,,,,,,,,,,,,,,,,,,,,,0.7893050269995001,None,,,,,,,,,,,,,,,,,,,,,,,,,,,,,,,,,999,2019_Apr_13_1020,mf_amp_cond1,3.0.7,60.21884104803798,
,,,,,,,,,,,,,,,,,,,,,,,,,,,,,,,,,,,,,,,,1.369247059999907,,right,0.5360503940028138,,,,,,,,,,,,,,,,,,,,,,,,,,,,,,,999,2019_Apr_13_1020,mf_amp_cond1,3.0.7,60.21884104803798,
,,,,,,,,,,,,,,,,,,,,,,,,,,,,,,,,,,,,,,,,,,,,None,,,,,,,,,,,,,,,,,,,,,,,,,,,,,,999,2019_Apr_13_1020,mf_amp_cond1,3.0.7,60.21884104803798,
,,,,,,,,,,,,,,,,,,,,,,,,,,,,,,,,,,,,,,,,2.3023741920042085,,,,,None,39,None,,,,,,,,,,,,,,,,,,,,,,,,,,,999,2019_Apr_13_1020,mf_amp_cond1,3.0.7,60.21884104803798,
banana,&&&&&&,images/symbols/symbol_68.png,,,,,,,,,,,0,0,0,1,,,,,,,,,,,,,,,,,,,,,,,,3.834027192002395,,,,,,,,None,AMP_prac,None,[],6,,,,,,,,,,,,,,,,,,,,,,999,2019_Apr_13_1020,mf_amp_cond1,3.0.7,60.21884104803798,
,,,,,,,,,,,,,,,,,,,,,,,,,,,,,,,,,,,,,,,,,,,,,,,,,,,,,None,,,,,,,,,,,,,,,,,,,,,999,2019_Apr_13_1020,mf_amp_cond1,3.0.7,60.21884104803798,
civilians,&&&&&&&&&,images/symbols/symbol_37.png,condition_files/AMP_rep2.csv,care.vice,right,,,,,,,,,,,,0,0,0,1,0,0,0,0,,,,,,,,,,,,,,,,5.453085164001095,,,,,,,,,AMP_prac,None,[],6,,None,,,,,,,,,,,,,,,,,,,,999,2019_Apr_13_1020,mf_amp_cond1,3.0.7,60.21884104803798,
,,,condition_files/AMP_rep2.csv,,,,,,,,,,,,,,0,0,0,1,,,,,,,,,,,,,,,,,,,,,,,,,,,,,,,,,,,right,0.8512599569949089,,,,,,,,,,,,,,,,,,999,2019_Apr_13_1020,mf_amp_cond1,3.0.7,60.21884104803798,
civilians,&&&&&&&&&,images/symbols/symbol_37.png,condition_files/AMP_rep3.csv,care.vice,right,,,,,,,,,,,,0,1,1,2,0,0,0,0,,,,,,,,,,,,,,,,6.736162396999134,,,,,,,,,AMP_prac,None,[],6,,None,,,,,,,,,,,,,,,,,,,,999,2019_Apr_13_1020,mf_amp_cond1,3.0.7,60.21884104803798,
,,,condition_files/AMP_rep3.csv,,,,,,,,,,,,,,0,1,1,2,,,,,,,,,,,,,,,,,,,,,,,,,,,,,,,,,,,right,0.3519870180025464,,,,,,,,,,,,,,,,,,999,2019_Apr_13_1020,mf_amp_cond1,3.0.7,60.21884104803798,
civilians,&&&&&&&&&,images/symbols/symbol_37.png,condition_files/AMP_rep4.csv,care.vice,right,,,,,,,,,,,,0,2,2,3,0,0,0,0,,,,,,,,,,,,,,,,7.452101016002416,,,,,,,,,AMP_prac,None,[],6,,None,,,,,,,,,,,,,,,,,,,,999,2019_Apr_13_1020,mf_amp_cond1,3.0.7,60.21884104803798,
,,,condition_files/AMP_rep4.csv,,,,,,,,,,,,,,0,2,2,3,,,,,,,,,,,,,,,,,,,,,,,,,,,,,,,,,,,right,0.3684707719949074,,,,,,,,,,,,,,,,,,999,2019_Apr_13_1020,mf_amp_cond1,3.0.7,60.21884104803798,
civilians,&&&&&&&&&,images/symbols/symbol_37.png,condition_files/AMP_rep1.csv,care.vice,right,,,,,,,,,,,,0,3,3,0,0,0,0,0,,,,,,,,,,,,,,,,8.169127303997811,,,,,,,,,AMP_prac,None,[],6,,None,,,,,,,,,,,,,,,,,,,,999,2019_Apr_13_1020,mf_amp_cond1,3.0.7,60.21884104803798,
,,,condition_files/AMP_rep1.csv,,,,,,,,,,,,,,0,3,3,0,,,,,,,,,,,,,,,,,,,,,,,,,,,,,,,,,,,right,0.43408181599806994,,,,,,,,,,,,,,,,,,999,2019_Apr_13_1020,mf_amp_cond1,3.0.7,60.21884104803798,
,,,,,,,,,,,,,,,,,,,,,,,,,,,,,,,,,,,,,,,,,,,,,,,,,,,,,,,,,4,10.05,,,,,,,,,,,,,,,,999,2019_Apr_13_1020,mf_amp_cond1,3.0.7,60.21884104803798,
,,,,,,,,,,,,,,,,,,,,,,,,,,,,,,,,,,,,,,,,,,,,,,,,,,,,,,,,,,,4,10.009,,,,,,,,,,,,,,999,2019_Apr_13_1020,mf_amp_cond1,3.0.7,60.21884104803798,
,,,,,,,,,,,,,,,,,,,,,,,,,,,,,,,,,,,,,,,,,,,,,,,,,,,,,,,,,,,,,4,9.98,,,,,,,,,,,,999,2019_Apr_13_1020,mf_amp_cond1,3.0.7,60.21884104803798,
,,,,,,,,,,,,,,,,,,,,,,,,,,,,,,,,,,,,,,,,,,,,,,,,,,,,,,,,,,,,,,,None,,,,,,,,,,,999,2019_Apr_13_1020,mf_amp_cond1,3.0.7,60.21884104803798,
bisebell,,,,,,&&&&&&&,,,,,,,,,,,,,,,,,,,0,0,0,1,,,,,,,,,,,,10.690483512000355,,,,,,,,,LDT_prac,None,[],,,,,,,,,,,,,None,0,,,,,,,,,999,2019_Apr_13_1020,mf_amp_cond1,3.0.7,60.21884104803798,
,,,,,,,,,,,,,,,,,,,,,,,,,,,,,,,,,,,,,,,,,,,,,,,,,,,,,,,,,,,,,,,,,,None,,,,,,,,999,2019_Apr_13_1020,mf_amp_cond1,3.0.7,60.21884104803798,
either,,,,neutral,left,&&&&&&,,,,,,,,,,,,,,,,,,,,,,,0,0,0,57,,,,,,,,14.304740346000472,,,,,,,,,LDT_prac,None,[],,,,,,,,,,,,,,0,,None,,,,,,,999,2019_Apr_13_1020,mf_amp_cond1,3.0.7,60.21884104803798,
,,,,,,,,,,,,,,,,,,,,,,,,,,,,,,,,,,,,,,,,,,,,,,,,,,,,,,,,,,,,,,,,,,,,4,15.537,,,,,999,2019_Apr_13_1020,mf_amp_cond1,3.0.7,60.21884104803798,
,,,,,,,,,,,,,,,,,,,,,,,,,,,,,,,,,,,,,,,,,,,,,,,,,,,,,,,,,,,,,,,,,,,,,,None,,,,999,2019_Apr_13_1020,mf_amp_cond1,3.0.7,60.21884104803798,
want,,,,loyalty.virtue,left,,,,,,,,,,,,,,,,,,,,,,,,,,,,0,0,0,12,,,,,,,,,,,,,mem,left,1.2516971990044112,,,,,,,,,,,,,,1,,,,,,left,1,1.2516971990044112,999,2019_Apr_13_1020,mf_amp_cond1,3.0.7,60.21884104803798,
trust,,,,authority.virtue,right,,,,,,,,,,,,,,,,,,,,,,,,,,,,0,1,1,90,,,,,,,,,,,,,mem,right,0.949611512995034,,,,,,,,,,,,,,1,,,,,,right,1,0.949611512995034,999,2019_Apr_13_1020,mf_amp_cond1,3.0.7,60.21884104803798,
phlaizz,,,,nonword,left,,,,,,,,,,,,,,,,,,,,,,,,,,,,0,2,2,89,,,,,,,,,,,,,mem,right,0.5190901949972613,,,,,,,,,,,,,,0,,,,,,right,0,0.5190901949972613,999,2019_Apr_13_1020,mf_amp_cond1,3.0.7,60.21884104803798,
approval,,,,fairness.virtue,left,,,,,,,,,,,,,,,,,,,,,,,,,,,,0,3,3,88,,,,,,,,,,,,,mem,left,0.9525556740045431,,,,,,,,,,,,,,1,,,,,,left,1,0.9525556740045431,999,2019_Apr_13_1020,mf_amp_cond1,3.0.7,60.21884104803798,
unpleasant,,,,control,right,,,,,,,,,,,,,,,,,,,,,,,,,,,,0,4,4,79,,,,,,,,,,,,,mem,left,0.7689321230063797,,,,,,,,,,,,,,0,,,,,,left,0,0.7689321230063797,999,2019_Apr_13_1020,mf_amp_cond1,3.0.7,60.21884104803798,
restore,,,,care.virtue,right,,,,,,,,,,,,,,,,,,,,,,,,,,,,0,5,5,46,,,,,,,,,,,,,mem,right,0.5522317349968944,,,,,,,,,,,,,,1,,,,,,right,1,0.5522317349968944,999,2019_Apr_13_1020,mf_amp_cond1,3.0.7,60.21884104803798,
pleasant,,,,control,right,,,,,,,,,,,,,,,,,,,,,,,,,,,,0,6,6,98,,,,,,,,,,,,,mem,right,0.8695924390049186,,,,,,,,,,,,,,1,,,,,,right,1,0.8695924390049186,999,2019_Apr_13_1020,mf_amp_cond1,3.0.7,60.21884104803798,
immigrants,,,,fairness.vice,left,,,,,,,,,,,,,,,,,,,,,,,,,,,,0,7,7,97,,,,,,,,,,,,,mem,left,0.6347629569936544,,,,,,,,,,,,,,1,,,,,,left,1,0.6347629569936544,999,2019_Apr_13_1020,mf_amp_cond1,3.0.7,60.21884104803798,
heroin,,,,sanctity.vice,left,,,,,,,,,,,,,,,,,,,,,,,,,,,,0,8,8,9,,,,,,,,,,,,,mem,left,0.5024402679991908,,,,,,,,,,,,,,1,,,,,,left,1,0.5024402679991908,999,2019_Apr_13_1020,mf_amp_cond1,3.0.7,60.21884104803798,
peizz,,,,nonword,right,,,,,,,,,,,,,,,,,,,,,,,,,,,,0,9,9,8,,,,,,,,,,,,,mem,right,0.45054556299874093,,,,,,,,,,,,,,1,,,,,,right,1,0.45054556299874093,999,2019_Apr_13_1020,mf_amp_cond1,3.0.7,60.21884104803798,
scylde,,,,nonword,left,,,,,,,,,,,,,,,,,,,,,,,,,,,,0,10,10,68,,,,,,,,,,,,,mem,right,0.3857062520037289,,,,,,,,,,,,,,0,,,,,,right,0,0.3857062520037289,999,2019_Apr_13_1020,mf_amp_cond1,3.0.7,60.21884104803798,
bureaus,,,,fairness.virtue,left,,,,,,,,,,,,,,,,,,,,,,,,,,,,0,11,11,21,,,,,,,,,,,,,mem,left,0.5187794769954053,,,,,,,,,,,,,,1,,,,,,left,1,0.5187794769954053,999,2019_Apr_13_1020,mf_amp_cond1,3.0.7,60.21884104803798,
honored,,,,authority.virtue,right,,,,,,,,,,,,,,,,,,,,,,,,,,,,0,12,12,30,,,,,,,,,,,,,mem,left,0.4021256740015815,,,,,,,,,,,,,,0,,,,,,left,0,0.4021256740015815,999,2019_Apr_13_1020,mf_amp_cond1,3.0.7,60.21884104803798,
protesters,,,,authority.vice,right,,,,,,,,,,,,,,,,,,,,,,,,,,,,0,13,13,10,,,,,,,,,,,,,mem,left,0.08582408399524866,,,,,,,,,,,,,,0,,,,,,left,0,0.08582408399524866,999,2019_Apr_13_1020,mf_amp_cond1,3.0.7,60.21884104803798,
assault,,,,care.vice,left,,,,,,,,,,,,,,,,,,,,,,,,,,,,0,14,14,52,,,,,,,,,,,,,mem,left,0.08570031999988714,,,,,,,,,,,,,,1,,,,,,left,1,0.08570031999988714,999,2019_Apr_13_1020,mf_amp_cond1,3.0.7,60.21884104803798,
sypht,,,,nonword,left,,,,,,,,,,,,,,,,,,,,,,,,,,,,0,15,15,34,,,,,,,,,,,,,mem,right,0.3669933669953025,,,,,,,,,,,,,,0,,,,,,right,0,0.3669933669953025,999,2019_Apr_13_1020,mf_amp_cond1,3.0.7,60.21884104803798,
suspects,,,,care.vice,left,,,,,,,,,,,,,,,,,,,,,,,,,,,,0,16,16,0,,,,,,,,,,,,,mem,right,0.07009008399472805,,,,,,,,,,,,,,0,,,,,,right,0,0.07009008399472805,999,2019_Apr_13_1020,mf_amp_cond1,3.0.7,60.21884104803798,
weild,,,,nonword,left,,,,,,,,,,,,,,,,,,,,,,,,,,,,0,17,17,82,,,,,,,,,,,,,mem,right,0.0695373619964812,,,,,,,,,,,,,,0,,,,,,right,0,0.0695373619964812,999,2019_Apr_13_1020,mf_amp_cond1,3.0.7,60.21884104803798,
commitment,,,,sanctity.virtue,right,,,,,,,,,,,,,,,,,,,,,,,,,,,,0,18,18,48,,,,,,,,,,,,,mem,right,0.33387345699884463,,,,,,,,,,,,,,1,,,,,,right,1,0.33387345699884463,999,2019_Apr_13_1020,mf_amp_cond1,3.0.7,60.21884104803798,
wounded,,,,care.vice,left,,,,,,,,,,,,,,,,,,,,,,,,,,,,0,19,19,57,,,,,,,,,,,,,mem,left,0.3354682839999441,,,,,,,,,,,,,,1,,,,,,left,1,0.3354682839999441,999,2019_Apr_13_1020,mf_amp_cond1,3.0.7,60.21884104803798,
combat,,,,authority.vice,left,,,,,,,,,,,,,,,,,,,,,,,,,,,,0,20,20,43,,,,,,,,,,,,,mem,right,0.3687783230052446,,,,,,,,,,,,,,0,,,,,,right,0,0.3687783230052446,999,2019_Apr_13_1020,mf_amp_cond1,3.0.7,60.21884104803798,
crisis,,,,fairness.vice,left,,,,,,,,,,,,,,,,,,,,,,,,,,,,0,21,21,33,,,,,,,,,,,,,mem,right,0.13496600299549755,,,,,,,,,,,,,,0,,,,,,right,0,0.13496600299549755,999,2019_Apr_13_1020,mf_amp_cond1,3.0.7,60.21884104803798,
safety,,,,care.virtue,right,,,,,,,,,,,,,,,,,,,,,,,,,,,,0,22,22,60,,,,,,,,,,,,,mem,right,0.07001502100320067,,,,,,,,,,,,,,1,,,,,,right,1,0.07001502100320067,999,2019_Apr_13_1020,mf_amp_cond1,3.0.7,60.21884104803798,
diet,,,,sanctity.virtue,left,,,,,,,,,,,,,,,,,,,,,,,,,,,,0,23,23,15,,,,,,,,,,,,,mem,left,0.3330561359980493,,,,,,,,,,,,,,1,,,,,,left,1,0.3330561359980493,999,2019_Apr_13_1020,mf_amp_cond1,3.0.7,60.21884104803798,
bomb,,,,care.vice,left,,,,,,,,,,,,,,,,,,,,,,,,,,,,0,24,24,71,,,,,,,,,,,,,mem,left,0.0693240379987401,,,,,,,,,,,,,,1,,,,,,left,1,0.0693240379987401,999,2019_Apr_13_1020,mf_amp_cond1,3.0.7,60.21884104803798,
racist,,,,sanctity.vice,right,,,,,,,,,,,,,,,,,,,,,,,,,,,,0,25,25,7,,,,,,,,,,,,,mem,left,0.08415387500281213,,,,,,,,,,,,,,0,,,,,,left,0,0.08415387500281213,999,2019_Apr_13_1020,mf_amp_cond1,3.0.7,60.21884104803798,
enemies,,,,sanctity.vice,left,,,,,,,,,,,,,,,,,,,,,,,,,,,,0,26,26,41,,,,,,,,,,,,,mem,left,0.31911005599977216,,,,,,,,,,,,,,1,,,,,,left,1,0.31911005599977216,999,2019_Apr_13_1020,mf_amp_cond1,3.0.7,60.21884104803798,
impressed,,,,care.virtue,left,,,,,,,,,,,,,,,,,,,,,,,,,,,,0,27,27,5,,,,,,,,,,,,,mem,left,0.06931203200656455,,,,,,,,,,,,,,1,,,,,,left,1,0.06931203200656455,999,2019_Apr_13_1020,mf_amp_cond1,3.0.7,60.21884104803798,
agents,,,,authority.vice,left,,,,,,,,,,,,,,,,,,,,,,,,,,,,0,28,28,35,,,,,,,,,,,,,mem,right,0.25238019400421763,,,,,,,,,,,,,,0,,,,,,right,0,0.25238019400421763,999,2019_Apr_13_1020,mf_amp_cond1,3.0.7,60.21884104803798,
treat,,,,fairness.virtue,left,,,,,,,,,,,,,,,,,,,,,,,,,,,,0,29,29,95,,,,,,,,,,,,,mem,right,0.06939483700261917,,,,,,,,,,,,,,0,,,,,,right,0,0.06939483700261917,999,2019_Apr_13_1020,mf_amp_cond1,3.0.7,60.21884104803798,
enjoy,,,,care.virtue,left,,,,,,,,,,,,,,,,,,,,,,,,,,,,0,30,30,24,,,,,,,,,,,,,mem,right,0.08604408799874363,,,,,,,,,,,,,,0,,,,,,right,0,0.08604408799874363,999,2019_Apr_13_1020,mf_amp_cond1,3.0.7,60.21884104803798,
growth,,,,care.virtue,right,,,,,,,,,,,,,,,,,,,,,,,,,,,,0,31,31,17,,,,,,,,,,,,,mem,right,0.052520051001920365,,,,,,,,,,,,,,1,,,,,,right,1,0.052520051001920365,999,2019_Apr_13_1020,mf_amp_cond1,3.0.7,60.21884104803798,
promote,,,,sanctity.virtue,right,,,,,,,,,,,,,,,,,,,,,,,,,,,,0,32,32,66,,,,,,,,,,,,,mem,left,0.2860436849950929,,,,,,,,,,,,,,0,,,,,,left,0,0.2860436849950929,999,2019_Apr_13_1020,mf_amp_cond1,3.0.7,60.21884104803798,
hunger,,,,sanctity.vice,left,,,,,,,,,,,,,,,,,,,,,,,,,,,,0,33,33,77,,,,,,,,,,,,,mem,left,0.06844578600430395,,,,,,,,,,,,,,1,,,,,,left,1,0.06844578600430395,999,2019_Apr_13_1020,mf_amp_cond1,3.0.7,60.21884104803798,
officers,,,,authority.vice,right,,,,,,,,,,,,,,,,,,,,,,,,,,,,0,34,34,92,,,,,,,,,,,,,mem,left,0.08488116700027604,,,,,,,,,,,,,,0,,,,,,left,0,0.08488116700027604,999,2019_Apr_13_1020,mf_amp_cond1,3.0.7,60.21884104803798,
interests,,,,fairness.virtue,right,,,,,,,,,,,,,,,,,,,,,,,,,,,,0,35,35,1,,,,,,,,,,,,,mem,right,0.28649116700398736,,,,,,,,,,,,,,1,,,,,,right,1,0.28649116700398736,999,2019_Apr_13_1020,mf_amp_cond1,3.0.7,60.21884104803798,
civilians,,,,care.vice,right,,,,,,,,,,,,,,,,,,,,,,,,,,,,0,36,36,2,,,,,,,,,,,,,mem,right,0.08565010999882361,,,,,,,,,,,,,,1,,,,,,right,1,0.08565010999882361,999,2019_Apr_13_1020,mf_amp_cond1,3.0.7,60.21884104803798,
integrity,,,,fairness.virtue,right,,,,,,,,,,,,,,,,,,,,,,,,,,,,0,37,37,49,,,,,,,,,,,,,mem,right,0.05167315900325775,,,,,,,,,,,,,,1,,,,,,right,1,0.05167315900325775,999,2019_Apr_13_1020,mf_amp_cond1,3.0.7,60.21884104803798,
lies,,,,fairness.vice,right,,,,,,,,,,,,,,,,,,,,,,,,,,,,0,38,38,45,,,,,,,,,,,,,mem,left,0.2801763900060905,,,,,,,,,,,,,,0,,,,,,left,0,0.2801763900060905,999,2019_Apr_13_1020,mf_amp_cond1,3.0.7,60.21884104803798,
ban,,,,loyalty.vice,right,,,,,,,,,,,,,,,,,,,,,,,,,,,,0,39,39,64,,,,,,,,,,,,,mem,left,0.08552807399973972,,,,,,,,,,,,,,0,,,,,,left,0,0.08552807399973972,999,2019_Apr_13_1020,mf_amp_cond1,3.0.7,60.21884104803798,
queighld,,,,nonword,left,,,,,,,,,,,,,,,,,,,,,,,,,,,,0,40,40,38,,,,,,,,,,,,,mem,left,0.03418706700176699,,,,,,,,,,,,,,1,,,,,,left,1,0.03418706700176699,999,2019_Apr_13_1020,mf_amp_cond1,3.0.7,60.21884104803798,
kind,,,,sanctity.virtue,left,,,,,,,,,,,,,,,,,,,,,,,,,,,,0,41,41,4,,,,,,,,,,,,,mem,left,0.0851669440016849,,,,,,,,,,,,,,1,,,,,,left,1,0.0851669440016849,999,2019_Apr_13_1020,mf_amp_cond1,3.0.7,60.21884104803798,
gang,,,,sanctity.vice,left,,,,,,,,,,,,,,,,,,,,,,,,,,,,0,42,42,42,,,,,,,,,,,,,mem,left,0.034079401004419196,,,,,,,,,,,,,,1,,,,,,left,1,0.034079401004419196,999,2019_Apr_13_1020,mf_amp_cond1,3.0.7,60.21884104803798,
encourage,,,,authority.virtue,right,,,,,,,,,,,,,,,,,,,,,,,,,,,,0,43,43,99,,,,,,,,,,,,,mem,left,0.034864016000938136,,,,,,,,,,,,,,0,,,,,,left,0,0.034864016000938136,999,2019_Apr_13_1020,mf_amp_cond1,3.0.7,60.21884104803798,
hostility,,,,loyalty.vice,left,,,,,,,,,,,,,,,,,,,,,,,,,,,,0,44,44,29,,,,,,,,,,,,,mem,left,0.06903164100367576,,,,,,,,,,,,,,1,,,,,,left,1,0.06903164100367576,999,2019_Apr_13_1020,mf_amp_cond1,3.0.7,60.21884104803798,
police,,,,authority.vice,right,,,,,,,,,,,,,,,,,,,,,,,,,,,,0,45,45,40,,,,,,,,,,,,,mem,right,0.31900855700223474,,,,,,,,,,,,,,1,,,,,,right,1,0.31900855700223474,999,2019_Apr_13_1020,mf_amp_cond1,3.0.7,60.21884104803798,
great,,,,loyalty.virtue,right,,,,,,,,,,,,,,,,,,,,,,,,,,,,0,46,46,55,,,,,,,,,,,,,mem,right,0.052124748995993286,,,,,,,,,,,,,,1,,,,,,right,1,0.052124748995993286,999,2019_Apr_13_1020,mf_amp_cond1,3.0.7,60.21884104803798,
generosity,,,,sanctity.virtue,left,,,,,,,,,,,,,,,,,,,,,,,,,,,,0,47,47,6,,,,,,,,,,,,,mem,right,0.05309552999824518,,,,,,,,,,,,,,0,,,,,,right,0,0.05309552999824518,999,2019_Apr_13_1020,mf_amp_cond1,3.0.7,60.21884104803798,
