words,masks,symbols,category,corr_ans,mask,logo_trials.thisRepN,logo_trials.thisTrialN,logo_trials.thisN,logo_trials.thisIndex,AMP_pracs.thisRepN,AMP_pracs.thisTrialN,AMP_pracs.thisN,AMP_pracs.thisIndex,AMP_trials.thisRepN,AMP_trials.thisTrialN,AMP_trials.thisN,AMP_trials.thisIndex,LDT_pracs.thisRepN,LDT_pracs.thisTrialN,LDT_pracs.thisN,LDT_pracs.thisIndex,LDT_trials.thisRepN,LDT_trials.thisTrialN,LDT_trials.thisN,LDT_trials.thisIndex,trials.thisRepN,trials.thisTrialN,trials.thisN,trials.thisIndex,begin_key.keys,begin_key.rt,key_resp_AMP_instr1.keys,key_resp_AMP_instr1.rt,exp_time,resp_logo_rate.keys,resp_logo_rate.rt,keypress_logo_prac.keys,keypress_logo_prac.rt,resp_logo_ready_2.keys,resp_logo_ready_2.rt,keypress_logo_trial.keys,keypress_logo_trial.rt,symbol_index,resp_AMP_ready1.keys,resp_AMP_ready1.rt,resp_AMP.keys,resp_AMP.rt,task,keypress,RT,prime_dur,resp_AMP_ready.keys,resp_AMP_ready.rt,resp_AMP_trials.keys,resp_AMP_trials.rt,AMP_nonword_rating.response,AMP_nonword_rating.rt,AMP_word_rating.response,AMP_word_rating.rt,AMP_random_rating.response,AMP_random_rating.rt,key_resp_LDT_instr.keys,key_resp_LDT_instr.rt,resp_LDT_prac.keys,resp_LDT_prac.rt,corr,resp_LDT_ready.keys,resp_LDT_ready.rt,LDT_rating.response,LDT_rating.rt,key_resp_instr_memtask.keys,key_resp_instr_memtask.rt,resp_memtask.keys,resp_memtask.corr,resp_memtask.rt,participant,date,expName,psychopyVersion,frameRate,
,,,,,,,,,,,,,,,,,,,,,,,,,,,,,,right,3.4276947759935865,,,,,,,,,,,,,,,,,,,,,,,,,,,,,,,,,,,,,,,,,,,,,999,2019_Apr_10_1523,mf_amp_cond1,3.0.7,60.34806895402261,
,,,,,,,,,,,,,,,,,,,,,,,,,,,,,,,,right,0.4686147210013587,,,,,,,,,,,,,,,,,,,,,,,,,,,,,,,,,,,,,,,,,,,999,2019_Apr_10_1523,mf_amp_cond1,3.0.7,60.34806895402261,
,,,,,,,,,,,,,,,,,,,,,,,,,,,,,,,,,,41.975557514000684,right,1.184884251000767,,,,,,,,,,,,,,,,,,,,,,,,,,,,,,,,,,,,,,,,999,2019_Apr_10_1523,mf_amp_cond1,3.0.7,60.34806895402261,
,,,,,,,,,,,,,,,,,,,,,,,,,,,,,,,,,,105.19395708799857,,,left,1.7634795309932088,,,,,,,,,,,,,,,,,,,,,,,,,,,,,,,,,,,,,,999,2019_Apr_10_1523,mf_amp_cond1,3.0.7,60.34806895402261,
,,,,,,,,,,,,,,,,,,,,,,,,,,,,,,,,,,,,,,,right,1.8853484349965584,,,,,,,,,,,,,,,,,,,,,,,,,,,,,,,,,,,,999,2019_Apr_10_1523,mf_amp_cond1,3.0.7,60.34806895402261,
,,,,,,,,,,,,,,,,,,,,,,,,,,,,,,,,,,124.8910798270008,,,,,,,right,1.1491416979988571,0,right,8.169641410997428,,,,,,,,,,,,,,,,,,,,,,,,,,,,,,,999,2019_Apr_10_1523,mf_amp_cond1,3.0.7,60.34806895402261,
car,&&&,images/symbols/symbol_9.png,,,,,,,,0,0,0,0,,,,,,,,,,,,,,,,,,,,,312.2099111560019,,,,,,,,,,,,left,0.9712795989980805,AMP_prac,left,0.9712795989980805,1,,,,,,,,,,,,,,,,,,,,,,,,,999,2019_Apr_10_1523,mf_amp_cond1,3.0.7,60.34806895402261,
scarf,&&&&&,images/symbols/symbol_54.png,,,,,,,,0,1,1,3,,,,,,,,,,,,,,,,,,,,,313.74029167400295,,,,,,,,,,,,left,1.2697701079960098,AMP_prac,left,1.2697701079960098,1,,,,,,,,,,,,,,,,,,,,,,,,,999,2019_Apr_10_1523,mf_amp_cond1,3.0.7,60.34806895402261,
keyboard,&&&&&&&&,images/symbols/symbol_40.png,,,,,,,,0,2,2,2,,,,,,,,,,,,,,,,,,,,,315.0545331579997,,,,,,,,,,,,left,1.0503086799944867,AMP_prac,left,1.0503086799944867,1,,,,,,,,,,,,,,,,,,,,,,,,,999,2019_Apr_10_1523,mf_amp_cond1,3.0.7,60.34806895402261,
banana,&&&&&&,images/symbols/symbol_68.png,,,,,,,,0,3,3,1,,,,,,,,,,,,,,,,,,,,,316.3033632439983,,,,,,,,,,,,right,0.9793298340009642,AMP_prac,right,0.9793298340009642,1,,,,,,,,,,,,,,,,,,,,,,,,,999,2019_Apr_10_1523,mf_amp_cond1,3.0.7,60.34806895402261,
,,,,,,,,,,,,,,,,,,,,,,,,,,,,,,,,,,,,,,,,,,,,,,,,,,,,right,1.2526709340017987,,,,,,,,,,,,,,,,,,,,,,,999,2019_Apr_10_1523,mf_amp_cond1,3.0.7,60.34806895402261,
slavery,&&&&&&&,images/symbols/symbol_33.png,loyalty.vice,right,,,,,,,,,,0,0,0,0,,,,,,,,,,,,,,,,,338.52394669599744,,,,,,,,,,,,,,AMP_prac,right,0.9793298340009642,1,,,left,0.652720053003577,,,,,,,,,,,,,,,,,,,,,999,2019_Apr_10_1523,mf_amp_cond1,3.0.7,60.34806895402261,
faith,&&&&&,images/symbols/symbol_21.png,sanctity.virtue,left,,,,,,,,,,0,1,1,1,,,,,,,,,,,,,,,,,339.8248809689976,,,,,,,,,,,,,,AMP_prac,right,0.9793298340009642,1,,,right,1.0372983589986688,,,,,,,,,,,,,,,,,,,,,999,2019_Apr_10_1523,mf_amp_cond1,3.0.7,60.34806895402261,
black,&&&&&,images/symbols/symbol_69.png,loyalty.vice,right,,,,,,,,,,0,2,2,2,,,,,,,,,,,,,,,,,341.0535772229996,,,,,,,,,,,,,,AMP_prac,right,0.9793298340009642,1,,,left,0.9655866239991155,,,,,,,,,,,,,,,,,,,,,999,2019_Apr_10_1523,mf_amp_cond1,3.0.7,60.34806895402261,
integrity,&&&&&&&&&,images/symbols/symbol_64.png,fairness.virtue,left,,,,,,,,,,0,3,3,3,,,,,,,,,,,,,,,,,342.44192755199765,,,,,,,,,,,,,,AMP_prac,right,0.9793298340009642,1,,,right,1.120412160998967,,,,,,,,,,,,,,,,,,,,,999,2019_Apr_10_1523,mf_amp_cond1,3.0.7,60.34806895402261,
blamed,&&&&&&,images/symbols/symbol_72.png,loyalty.vice,right,,,,,,,,,,0,4,4,4,,,,,,,,,,,,,,,,,343.693925794003,,,,,,,,,,,,,,AMP_prac,right,0.9793298340009642,1,,,right,0.9894801949994871,,,,,,,,,,,,,,,,,,,,,999,2019_Apr_10_1523,mf_amp_cond1,3.0.7,60.34806895402261,
fear,&&&&,images/symbols/symbol_73.png,sanctity.vice,right,,,,,,,,,,0,5,5,5,,,,,,,,,,,,,,,,,344.95783429699804,,,,,,,,,,,,,,AMP_prac,right,0.9793298340009642,1,,,left,1.0044797279988416,,,,,,,,,,,,,,,,,,,,,999,2019_Apr_10_1523,mf_amp_cond1,3.0.7,60.34806895402261,
drug,&&&&,images/symbols/symbol_55.png,sanctity.vice,right,,,,,,,,,,0,6,6,6,,,,,,,,,,,,,,,,,346.2084600629969,,,,,,,,,,,,,,AMP_prac,right,0.9793298340009642,1,,,right,0.9870320049958536,,,,,,,,,,,,,,,,,,,,,999,2019_Apr_10_1523,mf_amp_cond1,3.0.7,60.34806895402261,
unpleasant,&&&&&&&&&,images/symbols/symbol_29.png,control,left,,,,,,,,,,0,7,7,7,,,,,,,,,,,,,,,,,347.45715049299906,,,,,,,,,,,,,,AMP_prac,right,0.9793298340009642,1,,,left,0.9866749700013315,,,,,,,,,,,,,,,,,,,,,999,2019_Apr_10_1523,mf_amp_cond1,3.0.7,60.34806895402261,
forced,&&&&&&,images/symbols/symbol_63.png,fairness.vice,right,,,,,,,,,,0,8,8,8,,,,,,,,,,,,,,,,,348.68961807800224,,,,,,,,,,,,,,AMP_prac,right,0.9793298340009642,1,,,right,0.9687286129992572,,,,,,,,,,,,,,,,,,,,,999,2019_Apr_10_1523,mf_amp_cond1,3.0.7,60.34806895402261,
pleasant,&&&&&&&,images/symbols/symbol_58.png,control,right,,,,,,,,,,0,9,9,9,,,,,,,,,,,,,,,,,350.0209500540004,,,,,,,,,,,,,,AMP_prac,right,0.9793298340009642,1,,,left,1.066754725005012,,,,,,,,,,,,,,,,,,,,,999,2019_Apr_10_1523,mf_amp_cond1,3.0.7,60.34806895402261,
riot,&&&&,images/symbols/symbol_23.png,authority.vice,right,,,,,,,,,,0,10,10,10,,,,,,,,,,,,,,,,,351.4877329919982,,,,,,,,,,,,,,AMP_prac,right,0.9793298340009642,1,,,right,1.2003857450035866,,,,,,,,,,,,,,,,,,,,,999,2019_Apr_10_1523,mf_amp_cond1,3.0.7,60.34806895402261,
protesters,&&&&&&&&&&,images/symbols/symbol_4.png,authority.vice,right,,,,,,,,,,0,11,11,11,,,,,,,,,,,,,,,,,352.8061878640001,,,,,,,,,,,,,,AMP_prac,right,0.9793298340009642,1,,,left,1.0521050399984233,,,,,,,,,,,,,,,,,,,,,999,2019_Apr_10_1523,mf_amp_cond1,3.0.7,60.34806895402261,
useful,&&&&&&,images/symbols/symbol_15.png,authority.virtue,left,,,,,,,,,,0,12,12,12,,,,,,,,,,,,,,,,,354.1758186599982,,,,,,,,,,,,,,AMP_prac,right,0.9793298340009642,1,,,left,1.1046475030016154,,,,,,,,,,,,,,,,,,,,,999,2019_Apr_10_1523,mf_amp_cond1,3.0.7,60.34806895402261,
prison,&&&&&&,images/symbols/symbol_40.png,fairness.vice,right,,,,,,,,,,0,13,13,13,,,,,,,,,,,,,,,,,355.72402605899697,,,,,,,,,,,,,,AMP_prac,right,0.9793298340009642,1,,,right,1.2861430249977275,,,,,,,,,,,,,,,,,,,,,999,2019_Apr_10_1523,mf_amp_cond1,3.0.7,60.34806895402261,
men,&&&,images/symbols/symbol_48.png,loyalty.vice,right,,,,,,,,,,0,14,14,14,,,,,,,,,,,,,,,,,357.1374099329987,,,,,,,,,,,,,,AMP_prac,right,0.9793298340009642,1,,,left,1.150370337003551,,,,,,,,,,,,,,,,,,,,,999,2019_Apr_10_1523,mf_amp_cond1,3.0.7,60.34806895402261,
terrorists,&&&&&&&&&&,images/symbols/symbol_61.png,fairness.vice,right,,,,,,,,,,0,15,15,15,,,,,,,,,,,,,,,,,358.56831172700186,,,,,,,,,,,,,,AMP_prac,right,0.9793298340009642,1,,,left,1.164565129998664,,,,,,,,,,,,,,,,,,,,,999,2019_Apr_10_1523,mf_amp_cond1,3.0.7,60.34806895402261,
hate,&&&&,images/symbols/symbol_53.png,fairness.vice,right,,,,,,,,,,0,16,16,16,,,,,,,,,,,,,,,,,360.2874969300028,,,,,,,,,,,,,,AMP_prac,right,0.9793298340009642,1,,,left,1.4667423349965247,,,,,,,,,,,,,,,,,,,,,999,2019_Apr_10_1523,mf_amp_cond1,3.0.7,60.34806895402261,
failure,&&&&&&&,images/symbols/symbol_76.png,loyalty.vice,right,,,,,,,,,,0,17,17,17,,,,,,,,,,,,,,,,,361.62022586799867,,,,,,,,,,,,,,AMP_prac,right,0.9793298340009642,1,,,right,1.0644017590020667,,,,,,,,,,,,,,,,,,,,,999,2019_Apr_10_1523,mf_amp_cond1,3.0.7,60.34806895402261,
good,&&&&,images/symbols/symbol_70.png,care.virtue,left,,,,,,,,,,0,18,18,18,,,,,,,,,,,,,,,,,363.02447226799995,,,,,,,,,,,,,,AMP_prac,right,0.9793298340009642,1,,,left,1.1370949859992834,,,,,,,,,,,,,,,,,,,,,999,2019_Apr_10_1523,mf_amp_cond1,3.0.7,60.34806895402261,
promises,&&&&&&&&,images/symbols/symbol_75.png,fairness.virtue,left,,,,,,,,,,0,19,19,19,,,,,,,,,,,,,,,,,364.6904457280034,,,,,,,,,,,,,,AMP_prac,right,0.9793298340009642,1,,,left,1.4034467189994757,,,,,,,,,,,,,,,,,,,,,999,2019_Apr_10_1523,mf_amp_cond1,3.0.7,60.34806895402261,
peaceful,&&&&&&&&,images/symbols/symbol_50.png,authority.virtue,left,,,,,,,,,,0,20,20,20,,,,,,,,,,,,,,,,,366.1926923220017,,,,,,,,,,,,,,AMP_prac,right,0.9793298340009642,1,,,left,1.2390687939987401,,,,,,,,,,,,,,,,,,,,,999,2019_Apr_10_1523,mf_amp_cond1,3.0.7,60.34806895402261,
trust,&&&&&,images/symbols/symbol_42.png,authority.virtue,left,,,,,,,,,,0,21,21,21,,,,,,,,,,,,,,,,,367.40604651699687,,,,,,,,,,,,,,AMP_prac,right,0.9793298340009642,1,,,right,0.9520890889980365,,,,,,,,,,,,,,,,,,,,,999,2019_Apr_10_1523,mf_amp_cond1,3.0.7,60.34806895402261,
critics,&&&&&&&,images/symbols/symbol_37.png,loyalty.vice,right,,,,,,,,,,0,22,22,22,,,,,,,,,,,,,,,,,369.5201407220011,,,,,,,,,,,,,,AMP_prac,right,0.9793298340009642,1,,,left,1.8487928839967935,,,,,,,,,,,,,,,,,,,,,999,2019_Apr_10_1523,mf_amp_cond1,3.0.7,60.34806895402261,
interests,&&&&&&&&&,images/symbols/symbol_82.png,fairness.virtue,left,,,,,,,,,,0,23,23,23,,,,,,,,,,,,,,,,,371.03760154500196,,,,,,,,,,,,,,AMP_prac,right,0.9793298340009642,1,,,right,1.2500362689970643,,,,,,,,,,,,,,,,,,,,,999,2019_Apr_10_1523,mf_amp_cond1,3.0.7,60.34806895402261,
beest,&&&&&,images/symbols/symbol_79.png,nonword,None,,,,,,,,,,0,24,24,24,,,,,,,,,,,,,,,,,372.6036149499996,,,,,,,,,,,,,,AMP_prac,right,0.9793298340009642,1,,,right,1.2995713420023094,,,,,,,,,,,,,,,,,,,,,999,2019_Apr_10_1523,mf_amp_cond1,3.0.7,60.34806895402261,
voter,&&&&&,images/symbols/symbol_54.png,fairness.vice,right,,,,,,,,,,0,25,25,25,,,,,,,,,,,,,,,,,373.95532907800225,,,,,,,,,,,,,,AMP_prac,right,0.9793298340009642,1,,,left,1.099989287002245,,,,,,,,,,,,,,,,,,,,,999,2019_Apr_10_1523,mf_amp_cond1,3.0.7,60.34806895402261,
honored,&&&&&&&,images/symbols/symbol_26.png,authority.virtue,left,,,,,,,,,,0,26,26,26,,,,,,,,,,,,,,,,,375.8048655390012,,,,,,,,,,,,,,AMP_prac,right,0.9793298340009642,1,,,right,1.583747714998026,,,,,,,,,,,,,,,,,,,,,999,2019_Apr_10_1523,mf_amp_cond1,3.0.7,60.34806895402261,
promote,&&&&&&&,images/symbols/symbol_30.png,sanctity.virtue,left,,,,,,,,,,0,27,27,27,,,,,,,,,,,,,,,,,377.2363206930022,,,,,,,,,,,,,,AMP_prac,right,0.9793298340009642,1,,,right,1.1825061550043756,,,,,,,,,,,,,,,,,,,,,999,2019_Apr_10_1523,mf_amp_cond1,3.0.7,60.34806895402261,
torture,&&&&&&&,images/symbols/symbol_60.png,care.vice,right,,,,,,,,,,0,28,28,28,,,,,,,,,,,,,,,,,378.6211527639971,,,,,,,,,,,,,,AMP_prac,right,0.9793298340009642,1,,,left,1.1335195540013956,,,,,,,,,,,,,,,,,,,,,999,2019_Apr_10_1523,mf_amp_cond1,3.0.7,60.34806895402261,
win,&&&,images/symbols/symbol_28.png,fairness.virtue,left,,,,,,,,,,0,29,29,29,,,,,,,,,,,,,,,,,380.00338853299763,,,,,,,,,,,,,,AMP_prac,right,0.9793298340009642,1,,,left,1.1159362239995971,,,,,,,,,,,,,,,,,,,,,999,2019_Apr_10_1523,mf_amp_cond1,3.0.7,60.34806895402261,
great,&&&&&,images/symbols/symbol_45.png,loyalty.virtue,left,,,,,,,,,,0,30,30,30,,,,,,,,,,,,,,,,,381.45584126700123,,,,,,,,,,,,,,AMP_prac,right,0.9793298340009642,1,,,right,1.1855002709999098,,,,,,,,,,,,,,,,,,,,,999,2019_Apr_10_1523,mf_amp_cond1,3.0.7,60.34806895402261,
restore,&&&&&&&,images/symbols/symbol_18.png,care.virtue,left,,,,,,,,,,0,31,31,31,,,,,,,,,,,,,,,,,382.89058320500044,,,,,,,,,,,,,,AMP_prac,right,0.9793298340009642,1,,,left,1.1670438579967595,,,,,,,,,,,,,,,,,,,,,999,2019_Apr_10_1523,mf_amp_cond1,3.0.7,60.34806895402261,
death,&&&&&,images/symbols/symbol_56.png,care.vice,right,,,,,,,,,,0,32,32,32,,,,,,,,,,,,,,,,,384.4531705050031,,,,,,,,,,,,,,AMP_prac,right,0.9793298340009642,1,,,left,1.2991270409984281,,,,,,,,,,,,,,,,,,,,,999,2019_Apr_10_1523,mf_amp_cond1,3.0.7,60.34806895402261,
fighters,&&&&&&&&,images/symbols/symbol_44.png,authority.vice,right,,,,,,,,,,0,33,33,33,,,,,,,,,,,,,,,,,385.9027849920021,,,,,,,,,,,,,,AMP_prac,right,0.9793298340009642,1,,,right,1.1825730560012744,,,,,,,,,,,,,,,,,,,,,999,2019_Apr_10_1523,mf_amp_cond1,3.0.7,60.34806895402261,
suicide,&&&&&&&,images/symbols/symbol_5.png,care.vice,right,,,,,,,,,,0,34,34,34,,,,,,,,,,,,,,,,,387.35647739699925,,,,,,,,,,,,,,AMP_prac,right,0.9793298340009642,1,,,right,1.1861529919988243,,,,,,,,,,,,,,,,,,,,,999,2019_Apr_10_1523,mf_amp_cond1,3.0.7,60.34806895402261,
attacks,&&&&&&&,images/symbols/symbol_47.png,care.vice,right,,,,,,,,,,0,35,35,35,,,,,,,,,,,,,,,,,388.7379077700025,,,,,,,,,,,,,,AMP_prac,right,0.9793298340009642,1,,,right,1.1320915109972702,,,,,,,,,,,,,,,,,,,,,999,2019_Apr_10_1523,mf_amp_cond1,3.0.7,60.34806895402261,
peace,&&&&&,images/symbols/symbol_77.png,care.virtue,left,,,,,,,,,,0,36,36,36,,,,,,,,,,,,,,,,,390.5526088159968,,,,,,,,,,,,,,AMP_prac,right,0.9793298340009642,1,,,right,1.549124737000966,,,,,,,,,,,,,,,,,,,,,999,2019_Apr_10_1523,mf_amp_cond1,3.0.7,60.34806895402261,
encourage,&&&&&&&&&,images/symbols/symbol_34.png,authority.virtue,left,,,,,,,,,,0,37,37,37,,,,,,,,,,,,,,,,,391.9711443030028,,,,,,,,,,,,,,AMP_prac,right,0.9793298340009642,1,,,left,1.15154226100276,,,,,,,,,,,,,,,,,,,,,999,2019_Apr_10_1523,mf_amp_cond1,3.0.7,60.34806895402261,
knapps,&&&&&&,images/symbols/symbol_57.png,nonword,None,,,,,,,,,,0,38,38,38,,,,,,,,,,,,,,,,,393.3535365819989,,,,,,,,,,,,,,AMP_prac,right,0.9793298340009642,1,,,left,1.116286587996001,,,,,,,,,,,,,,,,,,,,,999,2019_Apr_10_1523,mf_amp_cond1,3.0.7,60.34806895402261,
fraud,&&&&&,images/symbols/symbol_9.png,fairness.vice,right,,,,,,,,,,0,39,39,39,,,,,,,,,,,,,,,,,394.9026105130033,,,,,,,,,,,,,,AMP_prac,right,0.9793298340009642,1,,,right,1.2827975020045415,,,,,,,,,,,,,,,,,,,,,999,2019_Apr_10_1523,mf_amp_cond1,3.0.7,60.34806895402261,
twild,&&&&&,images/symbols/symbol_80.png,nonword,None,,,,,,,,,,0,40,40,40,,,,,,,,,,,,,,,,,396.3682720490033,,,,,,,,,,,,,,AMP_prac,right,0.9793298340009642,1,,,right,1.2155722979950951,,,,,,,,,,,,,,,,,,,,,999,2019_Apr_10_1523,mf_amp_cond1,3.0.7,60.34806895402261,
praised,&&&&&&&,images/symbols/symbol_2.png,loyalty.virtue,left,,,,,,,,,,0,41,41,41,,,,,,,,,,,,,,,,,397.80304010299733,,,,,,,,,,,,,,AMP_prac,right,0.9793298340009642,1,,,left,1.1652613679980277,,,,,,,,,,,,,,,,,,,,,999,2019_Apr_10_1523,mf_amp_cond1,3.0.7,60.34806895402261,
prosecution,&&&&&&&&&&&,images/symbols/symbol_27.png,authority.vice,right,,,,,,,,,,0,42,42,42,,,,,,,,,,,,,,,,,399.40216615900135,,,,,,,,,,,,,,AMP_prac,right,0.9793298340009642,1,,,left,1.3451507500067237,,,,,,,,,,,,,,,,,,,,,999,2019_Apr_10_1523,mf_amp_cond1,3.0.7,60.34806895402261,
love,&&&&,images/symbols/symbol_66.png,loyalty.virtue,left,,,,,,,,,,0,43,43,43,,,,,,,,,,,,,,,,,401.02109968700097,,,,,,,,,,,,,,AMP_prac,right,0.9793298340009642,1,,,right,1.3676542019966291,,,,,,,,,,,,,,,,,,,,,999,2019_Apr_10_1523,mf_amp_cond1,3.0.7,60.34806895402261,
improve,&&&&&&&,images/symbols/symbol_68.png,care.virtue,left,,,,,,,,,,0,44,44,44,,,,,,,,,,,,,,,,,402.55284783800016,,,,,,,,,,,,,,AMP_prac,right,0.9793298340009642,1,,,left,1.2660878530004993,,,,,,,,,,,,,,,,,,,,,999,2019_Apr_10_1523,mf_amp_cond1,3.0.7,60.34806895402261,
credit,&&&&&&,images/symbols/symbol_7.png,fairness.virtue,left,,,,,,,,,,0,45,45,45,,,,,,,,,,,,,,,,,404.20290906199807,,,,,,,,,,,,,,AMP_prac,right,0.9793298340009642,1,,,right,1.381646356996498,,,,,,,,,,,,,,,,,,,,,999,2019_Apr_10_1523,mf_amp_cond1,3.0.7,60.34806895402261,
refused,&&&&&&&,images/symbols/symbol_22.png,authority.vice,right,,,,,,,,,,0,46,46,46,,,,,,,,,,,,,,,,,405.7021562930022,,,,,,,,,,,,,,AMP_prac,right,0.9793298340009642,1,,,left,1.2314139529989916,,,,,,,,,,,,,,,,,,,,,999,2019_Apr_10_1523,mf_amp_cond1,3.0.7,60.34806895402261,
killed,&&&&&&,images/symbols/symbol_51.png,care.vice,right,,,,,,,,,,0,47,47,47,,,,,,,,,,,,,,,,,407.70191093500034,,,,,,,,,,,,,,AMP_prac,right,0.9793298340009642,1,,,left,1.7300084399976186,,,,,,,,,,,,,,,,,,,,,999,2019_Apr_10_1523,mf_amp_cond1,3.0.7,60.34806895402261,
illegal,&&&&&&&,images/symbols/symbol_17.png,fairness.vice,right,,,,,,,,,,0,48,48,48,,,,,,,,,,,,,,,,,409.6198885199992,,,,,,,,,,,,,,AMP_prac,right,0.9793298340009642,1,,,right,1.650218506998499,,,,,,,,,,,,,,,,,,,,,999,2019_Apr_10_1523,mf_amp_cond1,3.0.7,60.34806895402261,
skard,&&&&&,images/symbols/symbol_11.png,nonword,None,,,,,,,,,,0,49,49,49,,,,,,,,,,,,,,,,,411.16943300399726,,,,,,,,,,,,,,AMP_prac,right,0.9793298340009642,1,,,left,1.2832496849950985,,,,,,,,,,,,,,,,,,,,,999,2019_Apr_10_1523,mf_amp_cond1,3.0.7,60.34806895402261,
perfect,&&&&&&&,images/symbols/symbol_59.png,sanctity.virtue,left,,,,,,,,,,0,50,50,50,,,,,,,,,,,,,,,,,412.6388103279969,,,,,,,,,,,,,,AMP_prac,right,0.9793298340009642,1,,,left,1.2019614309974713,,,,,,,,,,,,,,,,,,,,,999,2019_Apr_10_1523,mf_amp_cond1,3.0.7,60.34806895402261,
stryct,&&&&&&,images/symbols/symbol_20.png,nonword,None,,,,,,,,,,0,51,51,51,,,,,,,,,,,,,,,,,414.20283711900265,,,,,,,,,,,,,,AMP_prac,right,0.9793298340009642,1,,,right,1.2982560229938827,,,,,,,,,,,,,,,,,,,,,999,2019_Apr_10_1523,mf_amp_cond1,3.0.7,60.34806895402261,
serial,&&&&&&,images/symbols/symbol_81.png,sanctity.vice,right,,,,,,,,,,0,52,52,52,,,,,,,,,,,,,,,,,415.819969639997,,,,,,,,,,,,,,AMP_prac,right,0.9793298340009642,1,,,right,1.3668967019984848,,,,,,,,,,,,,,,,,,,,,999,2019_Apr_10_1523,mf_amp_cond1,3.0.7,60.34806895402261,
commitment,&&&&&&&&&&,images/symbols/symbol_36.png,sanctity.virtue,left,,,,,,,,,,0,53,53,53,,,,,,,,,,,,,,,,,417.9866723649975,,,,,,,,,,,,,,AMP_prac,right,0.9793298340009642,1,,,right,1.900295630999608,,,,,,,,,,,,,,,,,,,,,999,2019_Apr_10_1523,mf_amp_cond1,3.0.7,60.34806895402261,
care,&&&&,images/symbols/symbol_71.png,care.virtue,left,,,,,,,,,,0,54,54,54,,,,,,,,,,,,,,,,,419.4026369100029,,,,,,,,,,,,,,AMP_prac,right,0.9793298340009642,1,,,left,1.1496527550043538,,,,,,,,,,,,,,,,,,,,,999,2019_Apr_10_1523,mf_amp_cond1,3.0.7,60.34806895402261,
police,&&&&&&,images/symbols/symbol_10.png,authority.vice,right,,,,,,,,,,0,55,55,55,,,,,,,,,,,,,,,,,420.86931573699985,,,,,,,,,,,,,,AMP_prac,right,0.9793298340009642,1,,,right,1.1966580880034599,,,,,,,,,,,,,,,,,,,,,999,2019_Apr_10_1523,mf_amp_cond1,3.0.7,60.34806895402261,
corruption,&&&&&&&&&&,images/symbols/symbol_39.png,sanctity.vice,right,,,,,,,,,,0,56,56,56,,,,,,,,,,,,,,,,,422.4385697260004,,,,,,,,,,,,,,AMP_prac,right,0.9793298340009642,1,,,right,1.3024216639969382,,,,,,,,,,,,,,,,,,,,,999,2019_Apr_10_1523,mf_amp_cond1,3.0.7,60.34806895402261,
promised,&&&&&&&&,images/symbols/symbol_62.png,loyalty.virtue,left,,,,,,,,,,0,57,57,57,,,,,,,,,,,,,,,,,424.63487973000156,,,,,,,,,,,,,,AMP_prac,right,0.9793298340009642,1,,,right,1.9289133089987445,,,,,,,,,,,,,,,,,,,,,999,2019_Apr_10_1523,mf_amp_cond1,3.0.7,60.34806895402261,
hand,&&&&,images/symbols/symbol_3.png,sanctity.virtue,left,,,,,,,,,,0,58,58,58,,,,,,,,,,,,,,,,,426.2719306020008,,,,,,,,,,,,,,AMP_prac,right,0.9793298340009642,1,,,right,1.369552381001995,,,,,,,,,,,,,,,,,,,,,999,2019_Apr_10_1523,mf_amp_cond1,3.0.7,60.34806895402261,
rhoas,&&&&&,images/symbols/symbol_32.png,nonword,None,,,,,,,,,,0,59,59,59,,,,,,,,,,,,,,,,,427.98449266600073,,,,,,,,,,,,,,AMP_prac,right,0.9793298340009642,1,,,right,1.448210355003539,,,,,,,,,,,,,,,,,,,,,999,2019_Apr_10_1523,mf_amp_cond1,3.0.7,60.34806895402261,
officers,&&&&&&&&,images/symbols/symbol_24.png,authority.vice,right,,,,,,,,,,0,60,60,60,,,,,,,,,,,,,,,,,429.73754824999924,,,,,,,,,,,,,,AMP_prac,right,0.9793298340009642,1,,,left,1.5012392670032568,,,,,,,,,,,,,,,,,,,,,999,2019_Apr_10_1523,mf_amp_cond1,3.0.7,60.34806895402261,
opportunity,&&&&&&&&&&&,images/symbols/symbol_65.png,fairness.virtue,left,,,,,,,,,,0,61,61,61,,,,,,,,,,,,,,,,,431.502136451003,,,,,,,,,,,,,,AMP_prac,right,0.9793298340009642,1,,,left,1.49955006899836,,,,,,,,,,,,,,,,,,,,,999,2019_Apr_10_1523,mf_amp_cond1,3.0.7,60.34806895402261,
respect,&&&&&&&,images/symbols/symbol_1.png,sanctity.virtue,left,,,,,,,,,,0,62,62,62,,,,,,,,,,,,,,,,,433.26822092600196,,,,,,,,,,,,,,AMP_prac,right,0.9793298340009642,1,,,right,1.498272546006774,,,,,,,,,,,,,,,,,,,,,999,2019_Apr_10_1523,mf_amp_cond1,3.0.7,60.34806895402261,
safety,&&&&&&,images/symbols/symbol_46.png,care.virtue,left,,,,,,,,,,0,63,63,63,,,,,,,,,,,,,,,,,435.0031710769981,,,,,,,,,,,,,,AMP_prac,right,0.9793298340009642,1,,,right,1.4670285070023965,,,,,,,,,,,,,,,,,,,,,999,2019_Apr_10_1523,mf_amp_cond1,3.0.7,60.34806895402261,
conspiracy,&&&&&&&&&&,images/symbols/symbol_19.png,sanctity.vice,right,,,,,,,,,,0,64,64,64,,,,,,,,,,,,,,,,,436.50240627199673,,,,,,,,,,,,,,AMP_prac,right,0.9793298340009642,1,,,left,1.2330315580038587,,,,,,,,,,,,,,,,,,,,,999,2019_Apr_10_1523,mf_amp_cond1,3.0.7,60.34806895402261,
celebrated,&&&&&&&&&&,images/symbols/symbol_35.png,authority.virtue,left,,,,,,,,,,0,65,65,65,,,,,,,,,,,,,,,,,438.26811059699685,,,,,,,,,,,,,,AMP_prac,right,0.9793298340009642,1,,,right,1.5159920030055218,,,,,,,,,,,,,,,,,,,,,999,2019_Apr_10_1523,mf_amp_cond1,3.0.7,60.34806895402261,
clean,&&&&&,images/symbols/symbol_16.png,sanctity.virtue,left,,,,,,,,,,0,66,66,66,,,,,,,,,,,,,,,,,439.9186040229979,,,,,,,,,,,,,,AMP_prac,right,0.9793298340009642,1,,,left,1.3829891479981598,,,,,,,,,,,,,,,,,,,,,999,2019_Apr_10_1523,mf_amp_cond1,3.0.7,60.34806895402261,
betrayal,&&&&&&&&,images/symbols/symbol_8.png,loyalty.vice,right,,,,,,,,,,0,67,67,67,,,,,,,,,,,,,,,,,441.6030478620014,,,,,,,,,,,,,,AMP_prac,right,0.9793298340009642,1,,,right,1.4171904739996535,,,,,,,,,,,,,,,,,,,,,999,2019_Apr_10_1523,mf_amp_cond1,3.0.7,60.34806895402261,
party,&&&&&,images/symbols/symbol_43.png,loyalty.virtue,left,,,,,,,,,,0,68,68,68,,,,,,,,,,,,,,,,,443.2684489239982,,,,,,,,,,,,,,AMP_prac,right,0.9793298340009642,1,,,left,1.3991614670012495,,,,,,,,,,,,,,,,,,,,,999,2019_Apr_10_1523,mf_amp_cond1,3.0.7,60.34806895402261,
violations,&&&&&&&&&&,images/symbols/symbol_49.png,sanctity.vice,right,,,,,,,,,,0,69,69,69,,,,,,,,,,,,,,,,,445.0025698210011,,,,,,,,,,,,,,AMP_prac,right,0.9793298340009642,1,,,left,1.4774393109983066,,,,,,,,,,,,,,,,,,,,,999,2019_Apr_10_1523,mf_amp_cond1,3.0.7,60.34806895402261,
shot,&&&&,images/symbols/symbol_52.png,care.vice,right,,,,,,,,,,0,70,70,70,,,,,,,,,,,,,,,,,447.11897938799666,,,,,,,,,,,,,,AMP_prac,right,0.9793298340009642,1,,,right,1.8499904880009126,,,,,,,,,,,,,,,,,,,,,999,2019_Apr_10_1523,mf_amp_cond1,3.0.7,60.34806895402261,
wence,&&&&&,images/symbols/symbol_31.png,nonword,None,,,,,,,,,,0,71,71,71,,,,,,,,,,,,,,,,,448.902292013001,,,,,,,,,,,,,,AMP_prac,right,0.9793298340009642,1,,,left,1.5159752360050334,,,,,,,,,,,,,,,,,,,,,999,2019_Apr_10_1523,mf_amp_cond1,3.0.7,60.34806895402261,
died,&&&&,images/symbols/symbol_38.png,care.vice,right,,,,,,,,,,0,72,72,72,,,,,,,,,,,,,,,,,450.8014661289999,,,,,,,,,,,,,,AMP_prac,right,0.9793298340009642,1,,,right,1.632465164999303,,,,,,,,,,,,,,,,,,,,,999,2019_Apr_10_1523,mf_amp_cond1,3.0.7,60.34806895402261,
support,&&&&&&&,images/symbols/symbol_25.png,loyalty.virtue,left,,,,,,,,,,0,73,73,73,,,,,,,,,,,,,,,,,452.56896672499715,,,,,,,,,,,,,,AMP_prac,right,0.9793298340009642,1,,,left,1.5002332570002181,,,,,,,,,,,,,,,,,,,,,999,2019_Apr_10_1523,mf_amp_cond1,3.0.7,60.34806895402261,
fair,&&&&,images/symbols/symbol_41.png,fairness.virtue,left,,,,,,,,,,0,74,74,74,,,,,,,,,,,,,,,,,454.1369361909965,,,,,,,,,,,,,,AMP_prac,right,0.9793298340009642,1,,,left,1.301815382001223,,,,,,,,,,,,,,,,,,,,,999,2019_Apr_10_1523,mf_amp_cond1,3.0.7,60.34806895402261,
embrace,&&&&&&&,images/symbols/symbol_67.png,authority.virtue,left,,,,,,,,,,0,75,75,75,,,,,,,,,,,,,,,,,455.2852469759964,,,,,,,,,,,,,,AMP_prac,right,0.9793298340009642,1,,,left,0.8816006449997076,,,,,,,,,,,,,,,,,,,,,999,2019_Apr_10_1523,mf_amp_cond1,3.0.7,60.34806895402261,
strong,&&&&&&,images/symbols/symbol_13.png,loyalty.virtue,left,,,,,,,,,,0,76,76,76,,,,,,,,,,,,,,,,,456.5180861409972,,,,,,,,,,,,,,AMP_prac,right,0.9793298340009642,1,,,right,0.9655244300010963,,,,,,,,,,,,,,,,,,,,,999,2019_Apr_10_1523,mf_amp_cond1,3.0.7,60.34806895402261,
foald,&&&&&,images/symbols/symbol_12.png,nonword,None,,,,,,,,,,0,77,77,77,,,,,,,,,,,,,,,,,457.85259233599936,,,,,,,,,,,,,,AMP_prac,right,0.9793298340009642,1,,,left,1.0642198700006702,,,,,,,,,,,,,,,,,,,,,999,2019_Apr_10_1523,mf_amp_cond1,3.0.7,60.34806895402261,
harassment,&&&&&&&&&&,images/symbols/symbol_6.png,sanctity.vice,right,,,,,,,,,,0,78,78,78,,,,,,,,,,,,,,,,,459.3688797930008,,,,,,,,,,,,,,AMP_prac,right,0.9793298340009642,1,,,right,1.2495003959993483,,,,,,,,,,,,,,,,,,,,,999,2019_Apr_10_1523,mf_amp_cond1,3.0.7,60.34806895402261,
shind,&&&&&,images/symbols/symbol_14.png,nonword,None,,,,,,,,,,0,79,79,79,,,,,,,,,,,,,,,,,460.68747270099993,,,,,,,,,,,,,,AMP_prac,right,0.9793298340009642,1,,,left,1.0585165619995678,,,,,,,,,,,,,,,,,,,,,999,2019_Apr_10_1523,mf_amp_cond1,3.0.7,60.34806895402261,
coacs,&&&&&,images/symbols/symbol_74.png,nonword,None,,,,,,,,,,0,80,80,80,,,,,,,,,,,,,,,,,462.1363516260026,,,,,,,,,,,,,,AMP_prac,right,0.9793298340009642,1,,,left,1.183181535001495,,,,,,,,,,,,,,,,,,,,,999,2019_Apr_10_1523,mf_amp_cond1,3.0.7,60.34806895402261,
increase,&&&&&&&&,images/symbols/symbol_78.png,care.virtue,left,,,,,,,,,,0,81,81,81,,,,,,,,,,,,,,,,,463.4183762449975,,,,,,,,,,,,,,AMP_prac,right,0.9793298340009642,1,,,right,1.0141295219946187,,,,,,,,,,,,,,,,,,,,,999,2019_Apr_10_1523,mf_amp_cond1,3.0.7,60.34806895402261,
drug,&&&&,images/symbols/symbol_20.png,sanctity.vice,right,,,,,,,,,,0,82,82,82,,,,,,,,,,,,,,,,,465.15219679500296,,,,,,,,,,,,,,AMP_prac,right,0.9793298340009642,1,,,right,1.4669378339967807,,,,,,,,,,,,,,,,,,,,,999,2019_Apr_10_1523,mf_amp_cond1,3.0.7,60.34806895402261,
blamed,&&&&&&,images/symbols/symbol_11.png,loyalty.vice,right,,,,,,,,,,0,83,83,83,,,,,,,,,,,,,,,,,466.38398709399917,,,,,,,,,,,,,,AMP_prac,right,0.9793298340009642,1,,,left,0.9652480509976158,,,,,,,,,,,,,,,,,,,,,999,2019_Apr_10_1523,mf_amp_cond1,3.0.7,60.34806895402261,
prosecution,&&&&&&&&&&&,images/symbols/symbol_76.png,authority.vice,right,,,,,,,,,,0,84,84,84,,,,,,,,,,,,,,,,,467.8026966300022,,,,,,,,,,,,,,AMP_prac,right,0.9793298340009642,1,,,left,1.1619144209980732,,,,,,,,,,,,,,,,,,,,,999,2019_Apr_10_1523,mf_amp_cond1,3.0.7,60.34806895402261,
trust,&&&&&,images/symbols/symbol_56.png,authority.virtue,left,,,,,,,,,,0,85,85,85,,,,,,,,,,,,,,,,,469.0690453770003,,,,,,,,,,,,,,AMP_prac,right,0.9793298340009642,1,,,right,0.9986757779988693,,,,,,,,,,,,,,,,,,,,,999,2019_Apr_10_1523,mf_amp_cond1,3.0.7,60.34806895402261,
fear,&&&&,images/symbols/symbol_80.png,sanctity.vice,right,,,,,,,,,,0,86,86,86,,,,,,,,,,,,,,,,,470.4351827270002,,,,,,,,,,,,,,AMP_prac,right,0.9793298340009642,1,,,right,1.099756678006088,,,,,,,,,,,,,,,,,,,,,999,2019_Apr_10_1523,mf_amp_cond1,3.0.7,60.34806895402261,
foald,&&&&&,images/symbols/symbol_72.png,nonword,None,,,,,,,,,,0,87,87,87,,,,,,,,,,,,,,,,,471.7689604920015,,,,,,,,,,,,,,AMP_prac,right,0.9793298340009642,1,,,right,1.067805873004545,,,,,,,,,,,,,,,,,,,,,999,2019_Apr_10_1523,mf_amp_cond1,3.0.7,60.34806895402261,
improve,&&&&&&&,images/symbols/symbol_10.png,care.virtue,left,,,,,,,,,,0,88,88,88,,,,,,,,,,,,,,,,,473.06929452199984,,,,,,,,,,,,,,AMP_prac,right,0.9793298340009642,1,,,left,1.033827047998784,,,,,,,,,,,,,,,,,,,,,999,2019_Apr_10_1523,mf_amp_cond1,3.0.7,60.34806895402261,
betrayal,&&&&&&&&,images/symbols/symbol_46.png,loyalty.vice,right,,,,,,,,,,0,89,89,89,,,,,,,,,,,,,,,,,474.50173682600143,,,,,,,,,,,,,,AMP_prac,right,0.9793298340009642,1,,,left,1.1773011490004137,,,,,,,,,,,,,,,,,,,,,999,2019_Apr_10_1523,mf_amp_cond1,3.0.7,60.34806895402261,
praised,&&&&&&&,images/symbols/symbol_3.png,loyalty.virtue,left,,,,,,,,,,0,90,90,90,,,,,,,,,,,,,,,,,476.0049225979965,,,,,,,,,,,,,,AMP_prac,right,0.9793298340009642,1,,,right,1.236541826998291,,,,,,,,,,,,,,,,,,,,,999,2019_Apr_10_1523,mf_amp_cond1,3.0.7,60.34806895402261,
voter,&&&&&,images/symbols/symbol_73.png,fairness.vice,right,,,,,,,,,,0,91,91,91,,,,,,,,,,,,,,,,,477.40100916499796,,,,,,,,,,,,,,AMP_prac,right,0.9793298340009642,1,,,left,1.1307070819966611,,,,,,,,,,,,,,,,,,,,,999,2019_Apr_10_1523,mf_amp_cond1,3.0.7,60.34806895402261,
embrace,&&&&&&&,images/symbols/symbol_52.png,authority.virtue,left,,,,,,,,,,0,92,92,92,,,,,,,,,,,,,,,,,478.6376665450007,,,,,,,,,,,,,,AMP_prac,right,0.9793298340009642,1,,,right,0.9806797950004693,,,,,,,,,,,,,,,,,,,,,999,2019_Apr_10_1523,mf_amp_cond1,3.0.7,60.34806895402261,
harassment,&&&&&&&&&&,images/symbols/symbol_82.png,sanctity.vice,right,,,,,,,,,,0,93,93,93,,,,,,,,,,,,,,,,,479.9845495769987,,,,,,,,,,,,,,AMP_prac,right,0.9793298340009642,1,,,right,1.0829936849986552,,,,,,,,,,,,,,,,,,,,,999,2019_Apr_10_1523,mf_amp_cond1,3.0.7,60.34806895402261,
love,&&&&,images/symbols/symbol_81.png,loyalty.virtue,left,,,,,,,,,,0,94,94,94,,,,,,,,,,,,,,,,,481.55196304499987,,,,,,,,,,,,,,AMP_prac,right,0.9793298340009642,1,,,right,1.2994372039975133,,,,,,,,,,,,,,,,,,,,,999,2019_Apr_10_1523,mf_amp_cond1,3.0.7,60.34806895402261,
promote,&&&&&&&,images/symbols/symbol_75.png,sanctity.virtue,left,,,,,,,,,,0,95,95,95,,,,,,,,,,,,,,,,,483.01727025299624,,,,,,,,,,,,,,AMP_prac,right,0.9793298340009642,1,,,left,1.1987387530025444,,,,,,,,,,,,,,,,,,,,,999,2019_Apr_10_1523,mf_amp_cond1,3.0.7,60.34806895402261,
peaceful,&&&&&&&&,images/symbols/symbol_48.png,authority.virtue,left,,,,,,,,,,0,96,96,96,,,,,,,,,,,,,,,,,484.5871524269969,,,,,,,,,,,,,,AMP_prac,right,0.9793298340009642,1,,,right,1.3013218449996202,,,,,,,,,,,,,,,,,,,,,999,2019_Apr_10_1523,mf_amp_cond1,3.0.7,60.34806895402261,
support,&&&&&&&,images/symbols/symbol_9.png,loyalty.virtue,left,,,,,,,,,,0,97,97,97,,,,,,,,,,,,,,,,,486.9178867139999,,,,,,,,,,,,,,AMP_prac,right,0.9793298340009642,1,,,right,2.0659942550046253,,,,,,,,,,,,,,,,,,,,,999,2019_Apr_10_1523,mf_amp_cond1,3.0.7,60.34806895402261,
pleasant,&&&&&&&,images/symbols/symbol_74.png,control,right,,,,,,,,,,0,98,98,98,,,,,,,,,,,,,,,,,488.27141581299657,,,,,,,,,,,,,,AMP_prac,right,0.9793298340009642,1,,,right,1.1030135580003844,,,,,,,,,,,,,,,,,,,,,999,2019_Apr_10_1523,mf_amp_cond1,3.0.7,60.34806895402261,
credit,&&&&&&,images/symbols/symbol_17.png,fairness.virtue,left,,,,,,,,,,0,99,99,99,,,,,,,,,,,,,,,,,489.801429799998,,,,,,,,,,,,,,AMP_prac,right,0.9793298340009642,1,,,right,1.2645789529997273,,,,,,,,,,,,,,,,,,,,,999,2019_Apr_10_1523,mf_amp_cond1,3.0.7,60.34806895402261,
men,&&&,images/symbols/symbol_59.png,loyalty.vice,right,,,,,,,,,,0,100,100,100,,,,,,,,,,,,,,,,,491.43523592899874,,,,,,,,,,,,,,AMP_prac,right,0.9793298340009642,1,,,right,1.3668471459968714,,,,,,,,,,,,,,,,,,,,,999,2019_Apr_10_1523,mf_amp_cond1,3.0.7,60.34806895402261,
conspiracy,&&&&&&&&&&,images/symbols/symbol_66.png,sanctity.vice,right,,,,,,,,,,0,101,101,101,,,,,,,,,,,,,,,,,492.9850587539986,,,,,,,,,,,,,,AMP_prac,right,0.9793298340009642,1,,,right,1.2829385730001377,,,,,,,,,,,,,,,,,,,,,999,2019_Apr_10_1523,mf_amp_cond1,3.0.7,60.34806895402261,
forced,&&&&&&,images/symbols/symbol_28.png,fairness.vice,right,,,,,,,,,,0,102,102,102,,,,,,,,,,,,,,,,,494.43535713500023,,,,,,,,,,,,,,AMP_prac,right,0.9793298340009642,1,,,left,1.1836417480008095,,,,,,,,,,,,,,,,,,,,,999,2019_Apr_10_1523,mf_amp_cond1,3.0.7,60.34806895402261,
torture,&&&&&&&,images/symbols/symbol_61.png,care.vice,right,,,,,,,,,,0,103,103,103,,,,,,,,,,,,,,,,,496.8518170180032,,,,,,,,,,,,,,AMP_prac,right,0.9793298340009642,1,,,left,2.1494952799985185,,,,,,,,,,,,,,,,,,,,,999,2019_Apr_10_1523,mf_amp_cond1,3.0.7,60.34806895402261,
black,&&&&&,images/symbols/symbol_49.png,loyalty.vice,right,,,,,,,,,,0,104,104,104,,,,,,,,,,,,,,,,,498.1686373600023,,,,,,,,,,,,,,AMP_prac,right,0.9793298340009642,1,,,left,1.0502012769939029,,,,,,,,,,,,,,,,,,,,,999,2019_Apr_10_1523,mf_amp_cond1,3.0.7,60.34806895402261,
officers,&&&&&&&&,images/symbols/symbol_36.png,authority.vice,right,,,,,,,,,,0,105,105,105,,,,,,,,,,,,,,,,,499.6349103809989,,,,,,,,,,,,,,AMP_prac,right,0.9793298340009642,1,,,left,1.1995709589973558,,,,,,,,,,,,,,,,,,,,,999,2019_Apr_10_1523,mf_amp_cond1,3.0.7,60.34806895402261,
corruption,&&&&&&&&&&,images/symbols/symbol_34.png,sanctity.vice,right,,,,,,,,,,0,106,106,106,,,,,,,,,,,,,,,,,501.20137565299956,,,,,,,,,,,,,,AMP_prac,right,0.9793298340009642,1,,,left,1.2995568199985428,,,,,,,,,,,,,,,,,,,,,999,2019_Apr_10_1523,mf_amp_cond1,3.0.7,60.34806895402261,
peace,&&&&&,images/symbols/symbol_1.png,care.virtue,left,,,,,,,,,,0,107,107,107,,,,,,,,,,,,,,,,,502.420633351001,,,,,,,,,,,,,,AMP_prac,right,0.9793298340009642,1,,,right,0.9535873540007742,,,,,,,,,,,,,,,,,,,,,999,2019_Apr_10_1523,mf_amp_cond1,3.0.7,60.34806895402261,
promised,&&&&&&&&,images/symbols/symbol_30.png,loyalty.virtue,left,,,,,,,,,,0,108,108,108,,,,,,,,,,,,,,,,,503.83458122499724,,,,,,,,,,,,,,AMP_prac,right,0.9793298340009642,1,,,right,1.149052931003098,,,,,,,,,,,,,,,,,,,,,999,2019_Apr_10_1523,mf_amp_cond1,3.0.7,60.34806895402261,
shot,&&&&,images/symbols/symbol_23.png,care.vice,right,,,,,,,,,,0,109,109,109,,,,,,,,,,,,,,,,,505.2178028490016,,,,,,,,,,,,,,AMP_prac,right,0.9793298340009642,1,,,right,1.1174326249965816,,,,,,,,,,,,,,,,,,,,,999,2019_Apr_10_1523,mf_amp_cond1,3.0.7,60.34806895402261,
great,&&&&&,images/symbols/symbol_27.png,loyalty.virtue,left,,,,,,,,,,0,110,110,110,,,,,,,,,,,,,,,,,506.63368044300296,,,,,,,,,,,,,,AMP_prac,right,0.9793298340009642,1,,,right,1.1498182889990858,,,,,,,,,,,,,,,,,,,,,999,2019_Apr_10_1523,mf_amp_cond1,3.0.7,60.34806895402261,
wence,&&&&&,images/symbols/symbol_78.png,nonword,None,,,,,,,,,,0,111,111,111,,,,,,,,,,,,,,,,,508.4166955050023,,,,,,,,,,,,,,AMP_prac,right,0.9793298340009642,1,,,right,1.531983995999326,,,,,,,,,,,,,,,,,,,,,999,2019_Apr_10_1523,mf_amp_cond1,3.0.7,60.34806895402261,
violations,&&&&&&&&&&,images/symbols/symbol_68.png,sanctity.vice,right,,,,,,,,,,0,112,112,112,,,,,,,,,,,,,,,,,509.9349758870012,,,,,,,,,,,,,,AMP_prac,right,0.9793298340009642,1,,,left,1.2472435859963298,,,,,,,,,,,,,,,,,,,,,999,2019_Apr_10_1523,mf_amp_cond1,3.0.7,60.34806895402261,
good,&&&&,images/symbols/symbol_45.png,care.virtue,left,,,,,,,,,,0,113,113,113,,,,,,,,,,,,,,,,,511.1207339629982,,,,,,,,,,,,,,AMP_prac,right,0.9793298340009642,1,,,right,0.9195458949980093,,,,,,,,,,,,,,,,,,,,,999,2019_Apr_10_1523,mf_amp_cond1,3.0.7,60.34806895402261,
respect,&&&&&&&,images/symbols/symbol_12.png,sanctity.virtue,left,,,,,,,,,,0,114,114,114,,,,,,,,,,,,,,,,,512.4013103399993,,,,,,,,,,,,,,AMP_prac,right,0.9793298340009642,1,,,right,1.0153854899981525,,,,,,,,,,,,,,,,,,,,,999,2019_Apr_10_1523,mf_amp_cond1,3.0.7,60.34806895402261,
terrorists,&&&&&&&&&&,images/symbols/symbol_8.png,fairness.vice,right,,,,,,,,,,0,115,115,115,,,,,,,,,,,,,,,,,514.216503525,,,,,,,,,,,,,,AMP_prac,right,0.9793298340009642,1,,,left,1.5459101509986795,,,,,,,,,,,,,,,,,,,,,999,2019_Apr_10_1523,mf_amp_cond1,3.0.7,60.34806895402261,
attacks,&&&&&&&,images/symbols/symbol_31.png,care.vice,right,,,,,,,,,,0,116,116,116,,,,,,,,,,,,,,,,,515.6342891599998,,,,,,,,,,,,,,AMP_prac,right,0.9793298340009642,1,,,right,1.1498275409976486,,,,,,,,,,,,,,,,,,,,,999,2019_Apr_10_1523,mf_amp_cond1,3.0.7,60.34806895402261,
safety,&&&&&&,images/symbols/symbol_32.png,care.virtue,left,,,,,,,,,,0,117,117,117,,,,,,,,,,,,,,,,,517.017817537002,,,,,,,,,,,,,,AMP_prac,right,0.9793298340009642,1,,,right,1.1151407090001157,,,,,,,,,,,,,,,,,,,,,999,2019_Apr_10_1523,mf_amp_cond1,3.0.7,60.34806895402261,
refused,&&&&&&&,images/symbols/symbol_65.png,authority.vice,right,,,,,,,,,,0,118,118,118,,,,,,,,,,,,,,,,,519.334142271,,,,,,,,,,,,,,AMP_prac,right,0.9793298340009642,1,,,right,2.049529743002495,,,,,,,,,,,,,,,,,,,,,999,2019_Apr_10_1523,mf_amp_cond1,3.0.7,60.34806895402261,
stryct,&&&&&&,images/symbols/symbol_54.png,nonword,None,,,,,,,,,,0,119,119,119,,,,,,,,,,,,,,,,,520.818919434998,,,,,,,,,,,,,,AMP_prac,right,0.9793298340009642,1,,,right,1.2186283799965167,,,,,,,,,,,,,,,,,,,,,999,2019_Apr_10_1523,mf_amp_cond1,3.0.7,60.34806895402261,
hate,&&&&,images/symbols/symbol_6.png,fairness.vice,right,,,,,,,,,,0,120,120,120,,,,,,,,,,,,,,,,,522.2662965389973,,,,,,,,,,,,,,AMP_prac,right,0.9793298340009642,1,,,left,1.1820394030000898,,,,,,,,,,,,,,,,,,,,,999,2019_Apr_10_1523,mf_amp_cond1,3.0.7,60.34806895402261,
restore,&&&&&&&,images/symbols/symbol_67.png,care.virtue,left,,,,,,,,,,0,121,121,121,,,,,,,,,,,,,,,,,523.5836469580026,,,,,,,,,,,,,,AMP_prac,right,0.9793298340009642,1,,,right,1.0765064000006532,,,,,,,,,,,,,,,,,,,,,999,2019_Apr_10_1523,mf_amp_cond1,3.0.7,60.34806895402261,
twild,&&&&&,images/symbols/symbol_33.png,nonword,None,,,,,,,,,,0,122,122,122,,,,,,,,,,,,,,,,,525.3671438919991,,,,,,,,,,,,,,AMP_prac,right,0.9793298340009642,1,,,left,1.5155888330045855,,,,,,,,,,,,,,,,,,,,,999,2019_Apr_10_1523,mf_amp_cond1,3.0.7,60.34806895402261,
prison,&&&&&&,images/symbols/symbol_53.png,fairness.vice,right,,,,,,,,,,0,123,123,123,,,,,,,,,,,,,,,,,526.8040518639973,,,,,,,,,,,,,,AMP_prac,right,0.9793298340009642,1,,,right,1.1688891170051647,,,,,,,,,,,,,,,,,,,,,999,2019_Apr_10_1523,mf_amp_cond1,3.0.7,60.34806895402261,
opportunity,&&&&&&&&&&&,images/symbols/symbol_38.png,fairness.virtue,left,,,,,,,,,,0,124,124,124,,,,,,,,,,,,,,,,,528.1505742299996,,,,,,,,,,,,,,AMP_prac,right,0.9793298340009642,1,,,left,1.0829508249953506,,,,,,,,,,,,,,,,,,,,,999,2019_Apr_10_1523,mf_amp_cond1,3.0.7,60.34806895402261,
fighters,&&&&&&&&,images/symbols/symbol_21.png,authority.vice,right,,,,,,,,,,0,125,125,125,,,,,,,,,,,,,,,,,529.9680626870031,,,,,,,,,,,,,,AMP_prac,right,0.9793298340009642,1,,,right,1.5505632790009258,,,,,,,,,,,,,,,,,,,,,999,2019_Apr_10_1523,mf_amp_cond1,3.0.7,60.34806895402261,
shind,&&&&&,images/symbols/symbol_37.png,nonword,None,,,,,,,,,,0,126,126,126,,,,,,,,,,,,,,,,,531.5663475120018,,,,,,,,,,,,,,AMP_prac,right,0.9793298340009642,1,,,right,1.3320973829977447,,,,,,,,,,,,,,,,,,,,,999,2019_Apr_10_1523,mf_amp_cond1,3.0.7,60.34806895402261,
critics,&&&&&&&,images/symbols/symbol_57.png,loyalty.vice,right,,,,,,,,,,0,127,127,127,,,,,,,,,,,,,,,,,532.902838672002,,,,,,,,,,,,,,AMP_prac,right,0.9793298340009642,1,,,left,1.0694399310013978,,,,,,,,,,,,,,,,,,,,,999,2019_Apr_10_1523,mf_amp_cond1,3.0.7,60.34806895402261,
police,&&&&&&,images/symbols/symbol_64.png,authority.vice,right,,,,,,,,,,0,128,128,128,,,,,,,,,,,,,,,,,534.24927914,,,,,,,,,,,,,,AMP_prac,right,0.9793298340009642,1,,,left,1.0812245159977465,,,,,,,,,,,,,,,,,,,,,999,2019_Apr_10_1523,mf_amp_cond1,3.0.7,60.34806895402261,
unpleasant,&&&&&&&&&,images/symbols/symbol_51.png,control,left,,,,,,,,,,0,129,129,129,,,,,,,,,,,,,,,,,535.5995721369982,,,,,,,,,,,,,,AMP_prac,right,0.9793298340009642,1,,,left,1.082580861999304,,,,,,,,,,,,,,,,,,,,,999,2019_Apr_10_1523,mf_amp_cond1,3.0.7,60.34806895402261,
celebrated,&&&&&&&&&&,images/symbols/symbol_39.png,authority.virtue,left,,,,,,,,,,0,130,130,130,,,,,,,,,,,,,,,,,536.850473575003,,,,,,,,,,,,,,AMP_prac,right,0.9793298340009642,1,,,right,0.9839118620002409,,,,,,,,,,,,,,,,,,,,,999,2019_Apr_10_1523,mf_amp_cond1,3.0.7,60.34806895402261,
win,&&&,images/symbols/symbol_19.png,fairness.virtue,left,,,,,,,,,,0,131,131,131,,,,,,,,,,,,,,,,,538.099776162002,,,,,,,,,,,,,,AMP_prac,right,0.9793298340009642,1,,,right,0.9828081280065817,,,,,,,,,,,,,,,,,,,,,999,2019_Apr_10_1523,mf_amp_cond1,3.0.7,60.34806895402261,
fraud,&&&&&,images/symbols/symbol_14.png,fairness.vice,right,,,,,,,,,,0,132,132,132,,,,,,,,,,,,,,,,,539.4675533440022,,,,,,,,,,,,,,AMP_prac,right,0.9793298340009642,1,,,left,1.1007487169990782,,,,,,,,,,,,,,,,,,,,,999,2019_Apr_10_1523,mf_amp_cond1,3.0.7,60.34806895402261,
coacs,&&&&&,images/symbols/symbol_62.png,nonword,None,,,,,,,,,,0,133,133,133,,,,,,,,,,,,,,,,,540.8680210419989,,,,,,,,,,,,,,AMP_prac,right,0.9793298340009642,1,,,right,1.1505351359955966,,,,,,,,,,,,,,,,,,,,,999,2019_Apr_10_1523,mf_amp_cond1,3.0.7,60.34806895402261,
protesters,&&&&&&&&&&,images/symbols/symbol_13.png,authority.vice,right,,,,,,,,,,0,134,134,134,,,,,,,,,,,,,,,,,542.4164625330013,,,,,,,,,,,,,,AMP_prac,right,0.9793298340009642,1,,,left,1.2824423050042242,,,,,,,,,,,,,,,,,,,,,999,2019_Apr_10_1523,mf_amp_cond1,3.0.7,60.34806895402261,
promises,&&&&&&&&,images/symbols/symbol_35.png,fairness.virtue,left,,,,,,,,,,0,135,135,135,,,,,,,,,,,,,,,,,543.7345658199993,,,,,,,,,,,,,,AMP_prac,right,0.9793298340009642,1,,,right,1.0497701659987797,,,,,,,,,,,,,,,,,,,,,999,2019_Apr_10_1523,mf_amp_cond1,3.0.7,60.34806895402261,
increase,&&&&&&&&,images/symbols/symbol_47.png,care.virtue,left,,,,,,,,,,0,136,136,136,,,,,,,,,,,,,,,,,545.0667341599983,,,,,,,,,,,,,,AMP_prac,right,0.9793298340009642,1,,,left,1.0663909759969101,,,,,,,,,,,,,,,,,,,,,999,2019_Apr_10_1523,mf_amp_cond1,3.0.7,60.34806895402261,
encourage,&&&&&&&&&,images/symbols/symbol_26.png,authority.virtue,left,,,,,,,,,,0,137,137,137,,,,,,,,,,,,,,,,,546.3336944960029,,,,,,,,,,,,,,AMP_prac,right,0.9793298340009642,1,,,right,0.9993562460003886,,,,,,,,,,,,,,,,,,,,,999,2019_Apr_10_1523,mf_amp_cond1,3.0.7,60.34806895402261,
knapps,&&&&&&,images/symbols/symbol_40.png,nonword,None,,,,,,,,,,0,138,138,138,,,,,,,,,,,,,,,,,547.735625592999,,,,,,,,,,,,,,AMP_prac,right,0.9793298340009642,1,,,left,1.1350058609968983,,,,,,,,,,,,,,,,,,,,,999,2019_Apr_10_1523,mf_amp_cond1,3.0.7,60.34806895402261,
party,&&&&&,images/symbols/symbol_79.png,loyalty.virtue,left,,,,,,,,,,0,139,139,139,,,,,,,,,,,,,,,,,549.0003825349995,,,,,,,,,,,,,,AMP_prac,right,0.9793298340009642,1,,,right,1.0005138929991517,,,,,,,,,,,,,,,,,,,,,999,2019_Apr_10_1523,mf_amp_cond1,3.0.7,60.34806895402261,
interests,&&&&&&&&&,images/symbols/symbol_22.png,fairness.virtue,left,,,,,,,,,,0,140,140,140,,,,,,,,,,,,,,,,,550.3656978009967,,,,,,,,,,,,,,AMP_prac,right,0.9793298340009642,1,,,left,1.107503325001744,,,,,,,,,,,,,,,,,,,,,999,2019_Apr_10_1523,mf_amp_cond1,3.0.7,60.34806895402261,
hand,&&&&,images/symbols/symbol_24.png,sanctity.virtue,left,,,,,,,,,,0,141,141,141,,,,,,,,,,,,,,,,,551.9336986560011,,,,,,,,,,,,,,AMP_prac,right,0.9793298340009642,1,,,right,1.3163291540040518,,,,,,,,,,,,,,,,,,,,,999,2019_Apr_10_1523,mf_amp_cond1,3.0.7,60.34806895402261,
riot,&&&&,images/symbols/symbol_5.png,authority.vice,right,,,,,,,,,,0,142,142,142,,,,,,,,,,,,,,,,,553.4666978969981,,,,,,,,,,,,,,AMP_prac,right,0.9793298340009642,1,,,left,1.2823448300041491,,,,,,,,,,,,,,,,,,,,,999,2019_Apr_10_1523,mf_amp_cond1,3.0.7,60.34806895402261,
integrity,&&&&&&&&&,images/symbols/symbol_15.png,fairness.virtue,left,,,,,,,,,,0,143,143,143,,,,,,,,,,,,,,,,,554.9672087889994,,,,,,,,,,,,,,AMP_prac,right,0.9793298340009642,1,,,right,1.234302597003989,,,,,,,,,,,,,,,,,,,,,999,2019_Apr_10_1523,mf_amp_cond1,3.0.7,60.34806895402261,
illegal,&&&&&&&,images/symbols/symbol_42.png,fairness.vice,right,,,,,,,,,,0,144,144,144,,,,,,,,,,,,,,,,,556.1992596060009,,,,,,,,,,,,,,AMP_prac,right,0.9793298340009642,1,,,left,0.9655176650048816,,,,,,,,,,,,,,,,,,,,,999,2019_Apr_10_1523,mf_amp_cond1,3.0.7,60.34806895402261,
clean,&&&&&,images/symbols/symbol_50.png,sanctity.virtue,left,,,,,,,,,,0,145,145,145,,,,,,,,,,,,,,,,,557.5002729069965,,,,,,,,,,,,,,AMP_prac,right,0.9793298340009642,1,,,left,1.0330875829968136,,,,,,,,,,,,,,,,,,,,,999,2019_Apr_10_1523,mf_amp_cond1,3.0.7,60.34806895402261,
suicide,&&&&&&&,images/symbols/symbol_41.png,care.vice,right,,,,,,,,,,0,146,146,146,,,,,,,,,,,,,,,,,559.0341924110035,,,,,,,,,,,,,,AMP_prac,right,0.9793298340009642,1,,,right,1.2666730209966772,,,,,,,,,,,,,,,,,,,,,999,2019_Apr_10_1523,mf_amp_cond1,3.0.7,60.34806895402261,
slavery,&&&&&&&,images/symbols/symbol_55.png,loyalty.vice,right,,,,,,,,,,0,147,147,147,,,,,,,,,,,,,,,,,560.9182822930015,,,,,,,,,,,,,,AMP_prac,right,0.9793298340009642,1,,,left,1.634528500995657,,,,,,,,,,,,,,,,,,,,,999,2019_Apr_10_1523,mf_amp_cond1,3.0.7,60.34806895402261,
beest,&&&&&,images/symbols/symbol_7.png,nonword,None,,,,,,,,,,0,148,148,148,,,,,,,,,,,,,,,,,563.0344465939997,,,,,,,,,,,,,,AMP_prac,right,0.9793298340009642,1,,,left,1.8504232979976223,,,,,,,,,,,,,,,,,,,,,999,2019_Apr_10_1523,mf_amp_cond1,3.0.7,60.34806895402261,
fair,&&&&,images/symbols/symbol_29.png,fairness.virtue,left,,,,,,,,,,0,149,149,149,,,,,,,,,,,,,,,,,564.3165391110015,,,,,,,,,,,,,,AMP_prac,right,0.9793298340009642,1,,,right,1.0161685420025606,,,,,,,,,,,,,,,,,,,,,999,2019_Apr_10_1523,mf_amp_cond1,3.0.7,60.34806895402261,
died,&&&&,images/symbols/symbol_77.png,care.vice,right,,,,,,,,,,0,150,150,150,,,,,,,,,,,,,,,,,565.766377615997,,,,,,,,,,,,,,AMP_prac,right,0.9793298340009642,1,,,left,1.1993544720025966,,,,,,,,,,,,,,,,,,,,,999,2019_Apr_10_1523,mf_amp_cond1,3.0.7,60.34806895402261,
rhoas,&&&&&,images/symbols/symbol_58.png,nonword,None,,,,,,,,,,0,151,151,151,,,,,,,,,,,,,,,,,567.1517213830011,,,,,,,,,,,,,,AMP_prac,right,0.9793298340009642,1,,,right,1.1162467789981747,,,,,,,,,,,,,,,,,,,,,999,2019_Apr_10_1523,mf_amp_cond1,3.0.7,60.34806895402261,
care,&&&&,images/symbols/symbol_4.png,care.virtue,left,,,,,,,,,,0,152,152,152,,,,,,,,,,,,,,,,,568.548843757002,,,,,,,,,,,,,,AMP_prac,right,0.9793298340009642,1,,,left,1.1314226360045723,,,,,,,,,,,,,,,,,,,,,999,2019_Apr_10_1523,mf_amp_cond1,3.0.7,60.34806895402261,
strong,&&&&&&,images/symbols/symbol_43.png,loyalty.virtue,left,,,,,,,,,,0,153,153,153,,,,,,,,,,,,,,,,,570.066171446997,,,,,,,,,,,,,,AMP_prac,right,0.9793298340009642,1,,,left,1.2490004720020806,,,,,,,,,,,,,,,,,,,,,999,2019_Apr_10_1523,mf_amp_cond1,3.0.7,60.34806895402261,
failure,&&&&&&&,images/symbols/symbol_25.png,loyalty.vice,right,,,,,,,,,,0,154,154,154,,,,,,,,,,,,,,,,,571.4829110740029,,,,,,,,,,,,,,AMP_prac,right,0.9793298340009642,1,,,left,1.1491029410026385,,,,,,,,,,,,,,,,,,,,,999,2019_Apr_10_1523,mf_amp_cond1,3.0.7,60.34806895402261,
commitment,&&&&&&&&&&,images/symbols/symbol_70.png,sanctity.virtue,left,,,,,,,,,,0,155,155,155,,,,,,,,,,,,,,,,,572.7989542590003,,,,,,,,,,,,,,AMP_prac,right,0.9793298340009642,1,,,right,1.0495967349997954,,,,,,,,,,,,,,,,,,,,,999,2019_Apr_10_1523,mf_amp_cond1,3.0.7,60.34806895402261,
useful,&&&&&&,images/symbols/symbol_71.png,authority.virtue,left,,,,,,,,,,0,156,156,156,,,,,,,,,,,,,,,,,574.1657810589968,,,,,,,,,,,,,,AMP_prac,right,0.9793298340009642,1,,,left,1.1091815760009922,,,,,,,,,,,,,,,,,,,,,999,2019_Apr_10_1523,mf_amp_cond1,3.0.7,60.34806895402261,
death,&&&&&,images/symbols/symbol_63.png,care.vice,right,,,,,,,,,,0,157,157,157,,,,,,,,,,,,,,,,,575.683874993003,,,,,,,,,,,,,,AMP_prac,right,0.9793298340009642,1,,,left,1.2506517629954033,,,,,,,,,,,,,,,,,,,,,999,2019_Apr_10_1523,mf_amp_cond1,3.0.7,60.34806895402261,
skard,&&&&&,images/symbols/symbol_18.png,nonword,None,,,,,,,,,,0,158,158,158,,,,,,,,,,,,,,,,,577.0842136490028,,,,,,,,,,,,,,AMP_prac,right,0.9793298340009642,1,,,left,1.150344469002448,,,,,,,,,,,,,,,,,,,,,999,2019_Apr_10_1523,mf_amp_cond1,3.0.7,60.34806895402261,
serial,&&&&&&,images/symbols/symbol_69.png,sanctity.vice,right,,,,,,,,,,0,159,159,159,,,,,,,,,,,,,,,,,578.4329461649977,,,,,,,,,,,,,,AMP_prac,right,0.9793298340009642,1,,,right,1.0827306369974394,,,,,,,,,,,,,,,,,,,,,999,2019_Apr_10_1523,mf_amp_cond1,3.0.7,60.34806895402261,
killed,&&&&&&,images/symbols/symbol_16.png,care.vice,right,,,,,,,,,,0,160,160,160,,,,,,,,,,,,,,,,,580.867392127002,,,,,,,,,,,,,,AMP_prac,right,0.9793298340009642,1,,,left,2.1838577539965627,,,,,,,,,,,,,,,,,,,,,999,2019_Apr_10_1523,mf_amp_cond1,3.0.7,60.34806895402261,
perfect,&&&&&&&,images/symbols/symbol_44.png,sanctity.virtue,left,,,,,,,,,,0,161,161,161,,,,,,,,,,,,,,,,,582.464700675002,,,,,,,,,,,,,,AMP_prac,right,0.9793298340009642,1,,,right,1.330896664003376,,,,,,,,,,,,,,,,,,,,,999,2019_Apr_10_1523,mf_amp_cond1,3.0.7,60.34806895402261,
honored,&&&&&&&,images/symbols/symbol_60.png,authority.virtue,left,,,,,,,,,,0,162,162,162,,,,,,,,,,,,,,,,,584.1331308709996,,,,,,,,,,,,,,AMP_prac,right,0.9793298340009642,1,,,left,1.4162244809995173,,,,,,,,,,,,,,,,,,,,,999,2019_Apr_10_1523,mf_amp_cond1,3.0.7,60.34806895402261,
faith,&&&&&,images/symbols/symbol_2.png,sanctity.virtue,left,,,,,,,,,,0,163,163,163,,,,,,,,,,,,,,,,,585.7169195120005,,,,,,,,,,,,,,AMP_prac,right,0.9793298340009642,1,,,right,1.3169559779998963,,,,,,,,,,,,,,,,,,,,,999,2019_Apr_10_1523,mf_amp_cond1,3.0.7,60.34806895402261,
death,&&&&&,images/symbols/symbol_52.png,care.vice,right,,,,,,,,,,0,164,164,164,,,,,,,,,,,,,,,,,587.1982544510029,,,,,,,,,,,,,,AMP_prac,right,0.9793298340009642,1,,,left,1.2319699950021459,,,,,,,,,,,,,,,,,,,,,999,2019_Apr_10_1523,mf_amp_cond1,3.0.7,60.34806895402261,
promote,&&&&&&&,images/symbols/symbol_3.png,sanctity.virtue,left,,,,,,,,,,0,165,165,165,,,,,,,,,,,,,,,,,588.6996257249994,,,,,,,,,,,,,,AMP_prac,right,0.9793298340009642,1,,,left,1.240766753006028,,,,,,,,,,,,,,,,,,,,,999,2019_Apr_10_1523,mf_amp_cond1,3.0.7,60.34806895402261,
fighters,&&&&&&&&,images/symbols/symbol_17.png,authority.vice,right,,,,,,,,,,0,166,166,166,,,,,,,,,,,,,,,,,590.0995442740023,,,,,,,,,,,,,,AMP_prac,right,0.9793298340009642,1,,,left,1.1324680279940367,,,,,,,,,,,,,,,,,,,,,999,2019_Apr_10_1523,mf_amp_cond1,3.0.7,60.34806895402261,
commitment,&&&&&&&&&&,images/symbols/symbol_68.png,sanctity.virtue,left,,,,,,,,,,0,167,167,167,,,,,,,,,,,,,,,,,591.3153865720014,,,,,,,,,,,,,,AMP_prac,right,0.9793298340009642,1,,,right,0.9467765030058217,,,,,,,,,,,,,,,,,,,,,999,2019_Apr_10_1523,mf_amp_cond1,3.0.7,60.34806895402261,
great,&&&&&,images/symbols/symbol_49.png,loyalty.virtue,left,,,,,,,,,,0,168,168,168,,,,,,,,,,,,,,,,,592.5669943219982,,,,,,,,,,,,,,AMP_prac,right,0.9793298340009642,1,,,right,0.9830873389946646,,,,,,,,,,,,,,,,,,,,,999,2019_Apr_10_1523,mf_amp_cond1,3.0.7,60.34806895402261,
fear,&&&&,images/symbols/symbol_6.png,sanctity.vice,right,,,,,,,,,,0,169,169,169,,,,,,,,,,,,,,,,,593.7987948700029,,,,,,,,,,,,,,AMP_prac,right,0.9793298340009642,1,,,right,0.9788962829989032,,,,,,,,,,,,,,,,,,,,,999,2019_Apr_10_1523,mf_amp_cond1,3.0.7,60.34806895402261,
conspiracy,&&&&&&&&&&,images/symbols/symbol_20.png,sanctity.vice,right,,,,,,,,,,0,170,170,170,,,,,,,,,,,,,,,,,595.0173021029987,,,,,,,,,,,,,,AMP_prac,right,0.9793298340009642,1,,,left,0.9504725400038296,,,,,,,,,,,,,,,,,,,,,999,2019_Apr_10_1523,mf_amp_cond1,3.0.7,60.34806895402261,
killed,&&&&&&,images/symbols/symbol_75.png,care.vice,right,,,,,,,,,,0,171,171,171,,,,,,,,,,,,,,,,,596.5000063300031,,,,,,,,,,,,,,AMP_prac,right,0.9793298340009642,1,,,right,1.216599472994858,,,,,,,,,,,,,,,,,,,,,999,2019_Apr_10_1523,mf_amp_cond1,3.0.7,60.34806895402261,
respect,&&&&&&&,images/symbols/symbol_40.png,sanctity.virtue,left,,,,,,,,,,0,172,172,172,,,,,,,,,,,,,,,,,597.7328500209987,,,,,,,,,,,,,,AMP_prac,right,0.9793298340009642,1,,,right,0.9671573790037655,,,,,,,,,,,,,,,,,,,,,999,2019_Apr_10_1523,mf_amp_cond1,3.0.7,60.34806895402261,
voter,&&&&&,images/symbols/symbol_77.png,fairness.vice,right,,,,,,,,,,0,173,173,173,,,,,,,,,,,,,,,,,599.1819488589972,,,,,,,,,,,,,,AMP_prac,right,0.9793298340009642,1,,,right,1.1961262740005623,,,,,,,,,,,,,,,,,,,,,999,2019_Apr_10_1523,mf_amp_cond1,3.0.7,60.34806895402261,
win,&&&,images/symbols/symbol_26.png,fairness.virtue,left,,,,,,,,,,0,174,174,174,,,,,,,,,,,,,,,,,600.6508547970006,,,,,,,,,,,,,,AMP_prac,right,0.9793298340009642,1,,,right,1.2008693280004081,,,,,,,,,,,,,,,,,,,,,999,2019_Apr_10_1523,mf_amp_cond1,3.0.7,60.34806895402261,
harassment,&&&&&&&&&&,images/symbols/symbol_55.png,sanctity.vice,right,,,,,,,,,,0,175,175,175,,,,,,,,,,,,,,,,,602.298107128001,,,,,,,,,,,,,,AMP_prac,right,0.9793298340009642,1,,,left,1.3817294360051164,,,,,,,,,,,,,,,,,,,,,999,2019_Apr_10_1523,mf_amp_cond1,3.0.7,60.34806895402261,
love,&&&&,images/symbols/symbol_21.png,loyalty.virtue,left,,,,,,,,,,0,176,176,176,,,,,,,,,,,,,,,,,603.5989550710001,,,,,,,,,,,,,,AMP_prac,right,0.9793298340009642,1,,,right,1.0578158470016206,,,,,,,,,,,,,,,,,,,,,999,2019_Apr_10_1523,mf_amp_cond1,3.0.7,60.34806895402261,
faith,&&&&&,images/symbols/symbol_63.png,sanctity.virtue,left,,,,,,,,,,0,177,177,177,,,,,,,,,,,,,,,,,604.9161044249995,,,,,,,,,,,,,,AMP_prac,right,0.9793298340009642,1,,,left,1.0500174109984073,,,,,,,,,,,,,,,,,,,,,999,2019_Apr_10_1523,mf_amp_cond1,3.0.7,60.34806895402261,
twild,&&&&&,images/symbols/symbol_74.png,nonword,None,,,,,,,,,,0,178,178,178,,,,,,,,,,,,,,,,,606.3815374810001,,,,,,,,,,,,,,AMP_prac,right,0.9793298340009642,1,,,right,1.2148823620009352,,,,,,,,,,,,,,,,,,,,,999,2019_Apr_10_1523,mf_amp_cond1,3.0.7,60.34806895402261,
opportunity,&&&&&&&&&&&,images/symbols/symbol_82.png,fairness.virtue,left,,,,,,,,,,0,179,179,179,,,,,,,,,,,,,,,,,607.7504274320017,,,,,,,,,,,,,,AMP_prac,right,0.9793298340009642,1,,,left,1.100554757998907,,,,,,,,,,,,,,,,,,,,,999,2019_Apr_10_1523,mf_amp_cond1,3.0.7,60.34806895402261,
prosecution,&&&&&&&&&&&,images/symbols/symbol_47.png,authority.vice,right,,,,,,,,,,0,180,180,180,,,,,,,,,,,,,,,,,609.1868992719974,,,,,,,,,,,,,,AMP_prac,right,0.9793298340009642,1,,,right,1.1839615709977807,,,,,,,,,,,,,,,,,,,,,999,2019_Apr_10_1523,mf_amp_cond1,3.0.7,60.34806895402261,
black,&&&&&,images/symbols/symbol_14.png,loyalty.vice,right,,,,,,,,,,0,181,181,181,,,,,,,,,,,,,,,,,610.6482777839992,,,,,,,,,,,,,,AMP_prac,right,0.9793298340009642,1,,,right,1.211700480998843,,,,,,,,,,,,,,,,,,,,,999,2019_Apr_10_1523,mf_amp_cond1,3.0.7,60.34806895402261,
shind,&&&&&,images/symbols/symbol_11.png,nonword,None,,,,,,,,,,0,182,182,182,,,,,,,,,,,,,,,,,611.9488379090035,,,,,,,,,,,,,,AMP_prac,right,0.9793298340009642,1,,,left,1.0496600340047735,,,,,,,,,,,,,,,,,,,,,999,2019_Apr_10_1523,mf_amp_cond1,3.0.7,60.34806895402261,
celebrated,&&&&&&&&&&,images/symbols/symbol_66.png,authority.virtue,left,,,,,,,,,,0,183,183,183,,,,,,,,,,,,,,,,,613.6324148830026,,,,,,,,,,,,,,AMP_prac,right,0.9793298340009642,1,,,right,1.4152248660029727,,,,,,,,,,,,,,,,,,,,,999,2019_Apr_10_1523,mf_amp_cond1,3.0.7,60.34806895402261,
pleasant,&&&&&&&,images/symbols/symbol_29.png,control,right,,,,,,,,,,0,184,184,184,,,,,,,,,,,,,,,,,615.0830253840031,,,,,,,,,,,,,,AMP_prac,right,0.9793298340009642,1,,,left,1.1835908270004438,,,,,,,,,,,,,,,,,,,,,999,2019_Apr_10_1523,mf_amp_cond1,3.0.7,60.34806895402261,
officers,&&&&&&&&,images/symbols/symbol_15.png,authority.vice,right,,,,,,,,,,0,185,185,185,,,,,,,,,,,,,,,,,616.4985882300025,,,,,,,,,,,,,,AMP_prac,right,0.9793298340009642,1,,,right,1.1621080609984347,,,,,,,,,,,,,,,,,,,,,999,2019_Apr_10_1523,mf_amp_cond1,3.0.7,60.34806895402261,
suicide,&&&&&&&,images/symbols/symbol_46.png,care.vice,right,,,,,,,,,,0,186,186,186,,,,,,,,,,,,,,,,,617.9332003230011,,,,,,,,,,,,,,AMP_prac,right,0.9793298340009642,1,,,left,1.16723121299583,,,,,,,,,,,,,,,,,,,,,999,2019_Apr_10_1523,mf_amp_cond1,3.0.7,60.34806895402261,
promises,&&&&&&&&,images/symbols/symbol_81.png,fairness.virtue,left,,,,,,,,,,0,187,187,187,,,,,,,,,,,,,,,,,619.4331007240035,,,,,,,,,,,,,,AMP_prac,right,0.9793298340009642,1,,,right,1.2336837559996638,,,,,,,,,,,,,,,,,,,,,999,2019_Apr_10_1523,mf_amp_cond1,3.0.7,60.34806895402261,
party,&&&&&,images/symbols/symbol_67.png,loyalty.virtue,left,,,,,,,,,,0,188,188,188,,,,,,,,,,,,,,,,,620.898338701998,,,,,,,,,,,,,,AMP_prac,right,0.9793298340009642,1,,,left,1.199627504000091,,,,,,,,,,,,,,,,,,,,,999,2019_Apr_10_1523,mf_amp_cond1,3.0.7,60.34806895402261,
clean,&&&&&,images/symbols/symbol_80.png,sanctity.virtue,left,,,,,,,,,,0,189,189,189,,,,,,,,,,,,,,,,,622.4156712629992,,,,,,,,,,,,,,AMP_prac,right,0.9793298340009642,1,,,right,1.2663826290008728,,,,,,,,,,,,,,,,,,,,,999,2019_Apr_10_1523,mf_amp_cond1,3.0.7,60.34806895402261,
honored,&&&&&&&,images/symbols/symbol_51.png,authority.virtue,left,,,,,,,,,,0,190,190,190,,,,,,,,,,,,,,,,,623.6155434460015,,,,,,,,,,,,,,AMP_prac,right,0.9793298340009642,1,,,left,0.9409681510005612,,,,,,,,,,,,,,,,,,,,,999,2019_Apr_10_1523,mf_amp_cond1,3.0.7,60.34806895402261,
unpleasant,&&&&&&&&&,images/symbols/symbol_25.png,control,left,,,,,,,,,,0,191,191,191,,,,,,,,,,,,,,,,,624.9487793829976,,,,,,,,,,,,,,AMP_prac,right,0.9793298340009642,1,,,left,1.0660675600011018,,,,,,,,,,,,,,,,,,,,,999,2019_Apr_10_1523,mf_amp_cond1,3.0.7,60.34806895402261,
slavery,&&&&&&&,images/symbols/symbol_70.png,loyalty.vice,right,,,,,,,,,,0,192,192,192,,,,,,,,,,,,,,,,,626.4990243759967,,,,,,,,,,,,,,AMP_prac,right,0.9793298340009642,1,,,left,1.2943488849996356,,,,,,,,,,,,,,,,,,,,,999,2019_Apr_10_1523,mf_amp_cond1,3.0.7,60.34806895402261,
improve,&&&&&&&,images/symbols/symbol_33.png,care.virtue,left,,,,,,,,,,0,193,193,193,,,,,,,,,,,,,,,,,627.7312949650004,,,,,,,,,,,,,,AMP_prac,right,0.9793298340009642,1,,,right,0.9915774299952318,,,,,,,,,,,,,,,,,,,,,999,2019_Apr_10_1523,mf_amp_cond1,3.0.7,60.34806895402261,
good,&&&&,images/symbols/symbol_8.png,care.virtue,left,,,,,,,,,,0,194,194,194,,,,,,,,,,,,,,,,,629.0837753879969,,,,,,,,,,,,,,AMP_prac,right,0.9793298340009642,1,,,right,1.0851456559976214,,,,,,,,,,,,,,,,,,,,,999,2019_Apr_10_1523,mf_amp_cond1,3.0.7,60.34806895402261,
critics,&&&&&&&,images/symbols/symbol_1.png,loyalty.vice,right,,,,,,,,,,0,195,195,195,,,,,,,,,,,,,,,,,630.3647757479994,,,,,,,,,,,,,,AMP_prac,right,0.9793298340009642,1,,,left,1.01563930100383,,,,,,,,,,,,,,,,,,,,,999,2019_Apr_10_1523,mf_amp_cond1,3.0.7,60.34806895402261,
blamed,&&&&&&,images/symbols/symbol_78.png,loyalty.vice,right,,,,,,,,,,0,196,196,196,,,,,,,,,,,,,,,,,631.7321302429991,,,,,,,,,,,,,,AMP_prac,right,0.9793298340009642,1,,,left,1.0997486530031892,,,,,,,,,,,,,,,,,,,,,999,2019_Apr_10_1523,mf_amp_cond1,3.0.7,60.34806895402261,
skard,&&&&&,images/symbols/symbol_73.png,nonword,None,,,,,,,,,,0,197,197,197,,,,,,,,,,,,,,,,,633.0827258209974,,,,,,,,,,,,,,AMP_prac,right,0.9793298340009642,1,,,left,1.0930648599969572,,,,,,,,,,,,,,,,,,,,,999,2019_Apr_10_1523,mf_amp_cond1,3.0.7,60.34806895402261,
praised,&&&&&&&,images/symbols/symbol_57.png,loyalty.virtue,left,,,,,,,,,,0,198,198,198,,,,,,,,,,,,,,,,,634.4987042830035,,,,,,,,,,,,,,AMP_prac,right,0.9793298340009642,1,,,right,1.1619307759974618,,,,,,,,,,,,,,,,,,,,,999,2019_Apr_10_1523,mf_amp_cond1,3.0.7,60.34806895402261,
riot,&&&&,images/symbols/symbol_41.png,authority.vice,right,,,,,,,,,,0,199,199,199,,,,,,,,,,,,,,,,,635.8327773749988,,,,,,,,,,,,,,AMP_prac,right,0.9793298340009642,1,,,right,1.0750581129977945,,,,,,,,,,,,,,,,,,,,,999,2019_Apr_10_1523,mf_amp_cond1,3.0.7,60.34806895402261,
fair,&&&&,images/symbols/symbol_64.png,fairness.virtue,left,,,,,,,,,,0,200,200,200,,,,,,,,,,,,,,,,,637.2981690390006,,,,,,,,,,,,,,AMP_prac,right,0.9793298340009642,1,,,right,1.223792559998401,,,,,,,,,,,,,,,,,,,,,999,2019_Apr_10_1523,mf_amp_cond1,3.0.7,60.34806895402261,
police,&&&&&&,images/symbols/symbol_79.png,authority.vice,right,,,,,,,,,,0,201,201,201,,,,,,,,,,,,,,,,,638.7821399189997,,,,,,,,,,,,,,AMP_prac,right,0.9793298340009642,1,,,right,1.2247397040046053,,,,,,,,,,,,,,,,,,,,,999,2019_Apr_10_1523,mf_amp_cond1,3.0.7,60.34806895402261,
rhoas,&&&&&,images/symbols/symbol_31.png,nonword,None,,,,,,,,,,0,202,202,202,,,,,,,,,,,,,,,,,640.2811963610002,,,,,,,,,,,,,,AMP_prac,right,0.9793298340009642,1,,,right,1.231948556000134,,,,,,,,,,,,,,,,,,,,,999,2019_Apr_10_1523,mf_amp_cond1,3.0.7,60.34806895402261,
stryct,&&&&&&,images/symbols/symbol_48.png,nonword,None,,,,,,,,,,0,203,203,203,,,,,,,,,,,,,,,,,641.8151788899995,,,,,,,,,,,,,,AMP_prac,right,0.9793298340009642,1,,,right,1.2657609829984722,,,,,,,,,,,,,,,,,,,,,999,2019_Apr_10_1523,mf_amp_cond1,3.0.7,60.34806895402261,
peace,&&&&&,images/symbols/symbol_53.png,care.virtue,left,,,,,,,,,,0,204,204,204,,,,,,,,,,,,,,,,,643.1647204649998,,,,,,,,,,,,,,AMP_prac,right,0.9793298340009642,1,,,left,1.082827432997874,,,,,,,,,,,,,,,,,,,,,999,2019_Apr_10_1523,mf_amp_cond1,3.0.7,60.34806895402261,
hate,&&&&,images/symbols/symbol_54.png,fairness.vice,right,,,,,,,,,,0,205,205,205,,,,,,,,,,,,,,,,,644.5151212799974,,,,,,,,,,,,,,AMP_prac,right,0.9793298340009642,1,,,left,1.095498339003825,,,,,,,,,,,,,,,,,,,,,999,2019_Apr_10_1523,mf_amp_cond1,3.0.7,60.34806895402261,
failure,&&&&&&&,images/symbols/symbol_30.png,loyalty.vice,right,,,,,,,,,,0,206,206,206,,,,,,,,,,,,,,,,,646.0324926239991,,,,,,,,,,,,,,AMP_prac,right,0.9793298340009642,1,,,left,1.25071485999797,,,,,,,,,,,,,,,,,,,,,999,2019_Apr_10_1523,mf_amp_cond1,3.0.7,60.34806895402261,
coacs,&&&&&,images/symbols/symbol_56.png,nonword,None,,,,,,,,,,0,207,207,207,,,,,,,,,,,,,,,,,647.4159577739993,,,,,,,,,,,,,,AMP_prac,right,0.9793298340009642,1,,,right,1.117974223998317,,,,,,,,,,,,,,,,,,,,,999,2019_Apr_10_1523,mf_amp_cond1,3.0.7,60.34806895402261,
support,&&&&&&&,images/symbols/symbol_37.png,loyalty.virtue,left,,,,,,,,,,0,208,208,208,,,,,,,,,,,,,,,,,648.8155408769962,,,,,,,,,,,,,,AMP_prac,right,0.9793298340009642,1,,,left,1.1330991729992093,,,,,,,,,,,,,,,,,,,,,999,2019_Apr_10_1523,mf_amp_cond1,3.0.7,60.34806895402261,
terrorists,&&&&&&&&&&,images/symbols/symbol_61.png,fairness.vice,right,,,,,,,,,,0,209,209,209,,,,,,,,,,,,,,,,,650.0982155189995,,,,,,,,,,,,,,AMP_prac,right,0.9793298340009642,1,,,left,1.016213370996411,,,,,,,,,,,,,,,,,,,,,999,2019_Apr_10_1523,mf_amp_cond1,3.0.7,60.34806895402261,
perfect,&&&&&&&,images/symbols/symbol_23.png,sanctity.virtue,left,,,,,,,,,,0,210,210,210,,,,,,,,,,,,,,,,,651.5658039429982,,,,,,,,,,,,,,AMP_prac,right,0.9793298340009642,1,,,left,1.200286690997018,,,,,,,,,,,,,,,,,,,,,999,2019_Apr_10_1523,mf_amp_cond1,3.0.7,60.34806895402261,
drug,&&&&,images/symbols/symbol_58.png,sanctity.vice,right,,,,,,,,,,0,211,211,211,,,,,,,,,,,,,,,,,652.9357740949999,,,,,,,,,,,,,,AMP_prac,right,0.9793298340009642,1,,,left,1.103213753005548,,,,,,,,,,,,,,,,,,,,,999,2019_Apr_10_1523,mf_amp_cond1,3.0.7,60.34806895402261,
died,&&&&,images/symbols/symbol_44.png,care.vice,right,,,,,,,,,,0,212,212,212,,,,,,,,,,,,,,,,,654.1651972580003,,,,,,,,,,,,,,AMP_prac,right,0.9793298340009642,1,,,right,0.9659827229988878,,,,,,,,,,,,,,,,,,,,,999,2019_Apr_10_1523,mf_amp_cond1,3.0.7,60.34806895402261,
beest,&&&&&,images/symbols/symbol_59.png,nonword,None,,,,,,,,,,0,213,213,213,,,,,,,,,,,,,,,,,655.4496216960033,,,,,,,,,,,,,,AMP_prac,right,0.9793298340009642,1,,,left,1.0156926490017213,,,,,,,,,,,,,,,,,,,,,999,2019_Apr_10_1523,mf_amp_cond1,3.0.7,60.34806895402261,
wence,&&&&&,images/symbols/symbol_27.png,nonword,None,,,,,,,,,,0,214,214,214,,,,,,,,,,,,,,,,,656.7830203799967,,,,,,,,,,,,,,AMP_prac,right,0.9793298340009642,1,,,left,1.0682819740031846,,,,,,,,,,,,,,,,,,,,,999,2019_Apr_10_1523,mf_amp_cond1,3.0.7,60.34806895402261,
protesters,&&&&&&&&&&,images/symbols/symbol_9.png,authority.vice,right,,,,,,,,,,0,215,215,215,,,,,,,,,,,,,,,,,658.1651474550017,,,,,,,,,,,,,,AMP_prac,right,0.9793298340009642,1,,,right,1.1164846989995567,,,,,,,,,,,,,,,,,,,,,999,2019_Apr_10_1523,mf_amp_cond1,3.0.7,60.34806895402261,
integrity,&&&&&&&&&,images/symbols/symbol_35.png,fairness.virtue,left,,,,,,,,,,0,216,216,216,,,,,,,,,,,,,,,,,659.6142826639989,,,,,,,,,,,,,,AMP_prac,right,0.9793298340009642,1,,,left,1.194932645004883,,,,,,,,,,,,,,,,,,,,,999,2019_Apr_10_1523,mf_amp_cond1,3.0.7,60.34806895402261,
torture,&&&&&&&,images/symbols/symbol_69.png,care.vice,right,,,,,,,,,,0,217,217,217,,,,,,,,,,,,,,,,,660.9981017620012,,,,,,,,,,,,,,AMP_prac,right,0.9793298340009642,1,,,left,1.1165769629951683,,,,,,,,,,,,,,,,,,,,,999,2019_Apr_10_1523,mf_amp_cond1,3.0.7,60.34806895402261,
shot,&&&&,images/symbols/symbol_42.png,care.vice,right,,,,,,,,,,0,218,218,218,,,,,,,,,,,,,,,,,662.3813990569979,,,,,,,,,,,,,,AMP_prac,right,0.9793298340009642,1,,,left,1.0767886329995235,,,,,,,,,,,,,,,,,,,,,999,2019_Apr_10_1523,mf_amp_cond1,3.0.7,60.34806895402261,
serial,&&&&&&,images/symbols/symbol_50.png,sanctity.vice,right,,,,,,,,,,0,219,219,219,,,,,,,,,,,,,,,,,663.9153496349973,,,,,,,,,,,,,,AMP_prac,right,0.9793298340009642,1,,,left,1.2969899529998656,,,,,,,,,,,,,,,,,,,,,999,2019_Apr_10_1523,mf_amp_cond1,3.0.7,60.34806895402261,
restore,&&&&&&&,images/symbols/symbol_38.png,care.virtue,left,,,,,,,,,,0,220,220,220,,,,,,,,,,,,,,,,,665.2651331119996,,,,,,,,,,,,,,AMP_prac,right,0.9793298340009642,1,,,left,1.0995993670003372,,,,,,,,,,,,,,,,,,,,,999,2019_Apr_10_1523,mf_amp_cond1,3.0.7,60.34806895402261,
illegal,&&&&&&&,images/symbols/symbol_24.png,fairness.vice,right,,,,,,,,,,0,221,221,221,,,,,,,,,,,,,,,,,666.5978593109976,,,,,,,,,,,,,,AMP_prac,right,0.9793298340009642,1,,,left,1.0829121360002318,,,,,,,,,,,,,,,,,,,,,999,2019_Apr_10_1523,mf_amp_cond1,3.0.7,60.34806895402261,
credit,&&&&&&,images/symbols/symbol_72.png,fairness.virtue,left,,,,,,,,,,0,222,222,222,,,,,,,,,,,,,,,,,668.2310607749969,,,,,,,,,,,,,,AMP_prac,right,0.9793298340009642,1,,,right,1.364420332996815,,,,,,,,,,,,,,,,,,,,,999,2019_Apr_10_1523,mf_amp_cond1,3.0.7,60.34806895402261,
encourage,&&&&&&&&&,images/symbols/symbol_60.png,authority.virtue,left,,,,,,,,,,0,223,223,223,,,,,,,,,,,,,,,,,669.4987793620021,,,,,,,,,,,,,,AMP_prac,right,0.9793298340009642,1,,,left,1.0125509240024257,,,,,,,,,,,,,,,,,,,,,999,2019_Apr_10_1523,mf_amp_cond1,3.0.7,60.34806895402261,
promised,&&&&&&&&,images/symbols/symbol_2.png,loyalty.virtue,left,,,,,,,,,,0,224,224,224,,,,,,,,,,,,,,,,,672.4475513299985,,,,,,,,,,,,,,AMP_prac,right,0.9793298340009642,1,,,right,2.6901759340034914,,,,,,,,,,,,,,,,,,,,,999,2019_Apr_10_1523,mf_amp_cond1,3.0.7,60.34806895402261,
forced,&&&&&&,images/symbols/symbol_32.png,fairness.vice,right,,,,,,,,,,0,225,225,225,,,,,,,,,,,,,,,,,673.8640808280034,,,,,,,,,,,,,,AMP_prac,right,0.9793298340009642,1,,,left,1.148952700998052,,,,,,,,,,,,,,,,,,,,,999,2019_Apr_10_1523,mf_amp_cond1,3.0.7,60.34806895402261,
strong,&&&&&&,images/symbols/symbol_65.png,loyalty.virtue,left,,,,,,,,,,0,226,226,226,,,,,,,,,,,,,,,,,675.5985601959983,,,,,,,,,,,,,,AMP_prac,right,0.9793298340009642,1,,,left,1.4843139400036307,,,,,,,,,,,,,,,,,,,,,999,2019_Apr_10_1523,mf_amp_cond1,3.0.7,60.34806895402261,
betrayal,&&&&&&&&,images/symbols/symbol_18.png,loyalty.vice,right,,,,,,,,,,0,227,227,227,,,,,,,,,,,,,,,,,676.9471146110009,,,,,,,,,,,,,,AMP_prac,right,0.9793298340009642,1,,,left,1.0819082980015082,,,,,,,,,,,,,,,,,,,,,999,2019_Apr_10_1523,mf_amp_cond1,3.0.7,60.34806895402261,
increase,&&&&&&&&,images/symbols/symbol_76.png,care.virtue,left,,,,,,,,,,0,228,228,228,,,,,,,,,,,,,,,,,678.4141089719997,,,,,,,,,,,,,,AMP_prac,right,0.9793298340009642,1,,,left,1.2156301279974286,,,,,,,,,,,,,,,,,,,,,999,2019_Apr_10_1523,mf_amp_cond1,3.0.7,60.34806895402261,
prison,&&&&&&,images/symbols/symbol_19.png,fairness.vice,right,,,,,,,,,,0,229,229,229,,,,,,,,,,,,,,,,,679.9660411709992,,,,,,,,,,,,,,AMP_prac,right,0.9793298340009642,1,,,left,1.2973121350005385,,,,,,,,,,,,,,,,,,,,,999,2019_Apr_10_1523,mf_amp_cond1,3.0.7,60.34806895402261,
fraud,&&&&&,images/symbols/symbol_22.png,fairness.vice,right,,,,,,,,,,0,230,230,230,,,,,,,,,,,,,,,,,681.4810252590032,,,,,,,,,,,,,,AMP_prac,right,0.9793298340009642,1,,,right,1.2633094710035948,,,,,,,,,,,,,,,,,,,,,999,2019_Apr_10_1523,mf_amp_cond1,3.0.7,60.34806895402261,
knapps,&&&&&&,images/symbols/symbol_5.png,nonword,None,,,,,,,,,,0,231,231,231,,,,,,,,,,,,,,,,,682.9814362239995,,,,,,,,,,,,,,AMP_prac,right,0.9793298340009642,1,,,left,1.2460392699940712,,,,,,,,,,,,,,,,,,,,,999,2019_Apr_10_1523,mf_amp_cond1,3.0.7,60.34806895402261,
foald,&&&&&,images/symbols/symbol_13.png,nonword,None,,,,,,,,,,0,232,232,232,,,,,,,,,,,,,,,,,684.4646717849973,,,,,,,,,,,,,,AMP_prac,right,0.9793298340009642,1,,,left,1.2301618729979964,,,,,,,,,,,,,,,,,,,,,999,2019_Apr_10_1523,mf_amp_cond1,3.0.7,60.34806895402261,
trust,&&&&&,images/symbols/symbol_36.png,authority.virtue,left,,,,,,,,,,0,233,233,233,,,,,,,,,,,,,,,,,685.9305028689996,,,,,,,,,,,,,,AMP_prac,right,0.9793298340009642,1,,,right,1.2154052010009764,,,,,,,,,,,,,,,,,,,,,999,2019_Apr_10_1523,mf_amp_cond1,3.0.7,60.34806895402261,
violations,&&&&&&&&&&,images/symbols/symbol_7.png,sanctity.vice,right,,,,,,,,,,0,234,234,234,,,,,,,,,,,,,,,,,687.4473218729981,,,,,,,,,,,,,,AMP_prac,right,0.9793298340009642,1,,,left,1.2602966650010785,,,,,,,,,,,,,,,,,,,,,999,2019_Apr_10_1523,mf_amp_cond1,3.0.7,60.34806895402261,
care,&&&&,images/symbols/symbol_39.png,care.virtue,left,,,,,,,,,,0,235,235,235,,,,,,,,,,,,,,,,,688.7858698100026,,,,,,,,,,,,,,AMP_prac,right,0.9793298340009642,1,,,right,1.087141967000207,,,,,,,,,,,,,,,,,,,,,999,2019_Apr_10_1523,mf_amp_cond1,3.0.7,60.34806895402261,
peaceful,&&&&&&&&,images/symbols/symbol_28.png,authority.virtue,left,,,,,,,,,,0,236,236,236,,,,,,,,,,,,,,,,,690.1814859399965,,,,,,,,,,,,,,AMP_prac,right,0.9793298340009642,1,,,right,1.1332853040003101,,,,,,,,,,,,,,,,,,,,,999,2019_Apr_10_1523,mf_amp_cond1,3.0.7,60.34806895402261,
refused,&&&&&&&,images/symbols/symbol_71.png,authority.vice,right,,,,,,,,,,0,237,237,237,,,,,,,,,,,,,,,,,691.963726351998,,,,,,,,,,,,,,AMP_prac,right,0.9793298340009642,1,,,right,1.514687946997583,,,,,,,,,,,,,,,,,,,,,999,2019_Apr_10_1523,mf_amp_cond1,3.0.7,60.34806895402261,
safety,&&&&&&,images/symbols/symbol_4.png,care.virtue,left,,,,,,,,,,0,238,238,238,,,,,,,,,,,,,,,,,693.3807192859967,,,,,,,,,,,,,,AMP_prac,right,0.9793298340009642,1,,,right,1.1488540369973634,,,,,,,,,,,,,,,,,,,,,999,2019_Apr_10_1523,mf_amp_cond1,3.0.7,60.34806895402261,
hand,&&&&,images/symbols/symbol_45.png,sanctity.virtue,left,,,,,,,,,,0,239,239,239,,,,,,,,,,,,,,,,,694.6999395710009,,,,,,,,,,,,,,AMP_prac,right,0.9793298340009642,1,,,right,1.0514007990059326,,,,,,,,,,,,,,,,,,,,,999,2019_Apr_10_1523,mf_amp_cond1,3.0.7,60.34806895402261,
embrace,&&&&&&&,images/symbols/symbol_43.png,authority.virtue,left,,,,,,,,,,0,240,240,240,,,,,,,,,,,,,,,,,695.9160610510007,,,,,,,,,,,,,,AMP_prac,right,0.9793298340009642,1,,,left,0.9512874590000138,,,,,,,,,,,,,,,,,,,,,999,2019_Apr_10_1523,mf_amp_cond1,3.0.7,60.34806895402261,
men,&&&,images/symbols/symbol_16.png,loyalty.vice,right,,,,,,,,,,0,241,241,241,,,,,,,,,,,,,,,,,697.3480141269974,,,,,,,,,,,,,,AMP_prac,right,0.9793298340009642,1,,,right,1.1665897959974245,,,,,,,,,,,,,,,,,,,,,999,2019_Apr_10_1523,mf_amp_cond1,3.0.7,60.34806895402261,
interests,&&&&&&&&&,images/symbols/symbol_34.png,fairness.virtue,left,,,,,,,,,,0,242,242,242,,,,,,,,,,,,,,,,,698.8654320190035,,,,,,,,,,,,,,AMP_prac,right,0.9793298340009642,1,,,left,1.2506836390020908,,,,,,,,,,,,,,,,,,,,,999,2019_Apr_10_1523,mf_amp_cond1,3.0.7,60.34806895402261,
attacks,&&&&&&&,images/symbols/symbol_12.png,care.vice,right,,,,,,,,,,0,243,243,243,,,,,,,,,,,,,,,,,700.4146917109974,,,,,,,,,,,,,,AMP_prac,right,0.9793298340009642,1,,,left,1.2829088730068179,,,,,,,,,,,,,,,,,,,,,999,2019_Apr_10_1523,mf_amp_cond1,3.0.7,60.34806895402261,
useful,&&&&&&,images/symbols/symbol_62.png,authority.virtue,left,,,,,,,,,,0,244,244,244,,,,,,,,,,,,,,,,,701.9805812740015,,,,,,,,,,,,,,AMP_prac,right,0.9793298340009642,1,,,right,1.2962137119975523,,,,,,,,,,,,,,,,,,,,,999,2019_Apr_10_1523,mf_amp_cond1,3.0.7,60.34806895402261,
corruption,&&&&&&&&&&,images/symbols/symbol_10.png,sanctity.vice,right,,,,,,,,,,0,245,245,245,,,,,,,,,,,,,,,,,703.2818399640018,,,,,,,,,,,,,,AMP_prac,right,0.9793298340009642,1,,,left,1.0340019200011739,,,,,,,,,,,,,,,,,,,,,999,2019_Apr_10_1523,mf_amp_cond1,3.0.7,60.34806895402261,
beest,&&&&&,images/symbols/symbol_77.png,nonword,None,,,,,,,,,,0,246,246,246,,,,,,,,,,,,,,,,,704.7648014860024,,,,,,,,,,,,,,AMP_prac,right,0.9793298340009642,1,,,left,1.2273459959978936,,,,,,,,,,,,,,,,,,,,,999,2019_Apr_10_1523,mf_amp_cond1,3.0.7,60.34806895402261,
party,&&&&&,images/symbols/symbol_78.png,loyalty.virtue,left,,,,,,,,,,0,247,247,247,,,,,,,,,,,,,,,,,706.4802660619971,,,,,,,,,,,,,,AMP_prac,right,0.9793298340009642,1,,,left,1.4780135519977193,,,,,,,,,,,,,,,,,,,,,999,2019_Apr_10_1523,mf_amp_cond1,3.0.7,60.34806895402261,
illegal,&&&&&&&,images/symbols/symbol_38.png,fairness.vice,right,,,,,,,,,,0,248,248,248,,,,,,,,,,,,,,,,,708.0152611640005,,,,,,,,,,,,,,AMP_prac,right,0.9793298340009642,1,,,left,1.2777382700005546,,,,,,,,,,,,,,,,,,,,,999,2019_Apr_10_1523,mf_amp_cond1,3.0.7,60.34806895402261,
respect,&&&&&&&,images/symbols/symbol_13.png,sanctity.virtue,left,,,,,,,,,,0,249,249,249,,,,,,,,,,,,,,,,,709.347344216003,,,,,,,,,,,,,,AMP_prac,right,0.9793298340009642,1,,,right,1.09708810900338,,,,,,,,,,,,,,,,,,,,,999,2019_Apr_10_1523,mf_amp_cond1,3.0.7,60.34806895402261,
promises,&&&&&&&&,images/symbols/symbol_28.png,fairness.virtue,left,,,,,,,,,,0,250,250,250,,,,,,,,,,,,,,,,,710.8313832519998,,,,,,,,,,,,,,AMP_prac,right,0.9793298340009642,1,,,left,1.2293324669954018,,,,,,,,,,,,,,,,,,,,,999,2019_Apr_10_1523,mf_amp_cond1,3.0.7,60.34806895402261,
foald,&&&&&,images/symbols/symbol_21.png,nonword,None,,,,,,,,,,0,251,251,251,,,,,,,,,,,,,,,,,712.4509325219988,,,,,,,,,,,,,,AMP_prac,right,0.9793298340009642,1,,,right,1.366481418001058,,,,,,,,,,,,,,,,,,,,,999,2019_Apr_10_1523,mf_amp_cond1,3.0.7,60.34806895402261,
drug,&&&&,images/symbols/symbol_6.png,sanctity.vice,right,,,,,,,,,,0,252,252,252,,,,,,,,,,,,,,,,,713.8489681749998,,,,,,,,,,,,,,AMP_prac,right,0.9793298340009642,1,,,left,1.1345912950055208,,,,,,,,,,,,,,,,,,,,,999,2019_Apr_10_1523,mf_amp_cond1,3.0.7,60.34806895402261,
encourage,&&&&&&&&&,images/symbols/symbol_51.png,authority.virtue,left,,,,,,,,,,0,253,253,253,,,,,,,,,,,,,,,,,715.1967302760022,,,,,,,,,,,,,,AMP_prac,right,0.9793298340009642,1,,,right,1.0825199110040558,,,,,,,,,,,,,,,,,,,,,999,2019_Apr_10_1523,mf_amp_cond1,3.0.7,60.34806895402261,
safety,&&&&&&,images/symbols/symbol_61.png,care.virtue,left,,,,,,,,,,0,254,254,254,,,,,,,,,,,,,,,,,716.5798946119976,,,,,,,,,,,,,,AMP_prac,right,0.9793298340009642,1,,,left,1.1284696549992077,,,,,,,,,,,,,,,,,,,,,999,2019_Apr_10_1523,mf_amp_cond1,3.0.7,60.34806895402261,
critics,&&&&&&&,images/symbols/symbol_1.png,loyalty.vice,right,,,,,,,,,,0,255,255,255,,,,,,,,,,,,,,,,,718.1986845010033,,,,,,,,,,,,,,AMP_prac,right,0.9793298340009642,1,,,left,1.358856990998902,,,,,,,,,,,,,,,,,,,,,999,2019_Apr_10_1523,mf_amp_cond1,3.0.7,60.34806895402261,
corruption,&&&&&&&&&&,images/symbols/symbol_37.png,sanctity.vice,right,,,,,,,,,,0,256,256,256,,,,,,,,,,,,,,,,,719.7646332209988,,,,,,,,,,,,,,AMP_prac,right,0.9793298340009642,1,,,left,1.3011339899967425,,,,,,,,,,,,,,,,,,,,,999,2019_Apr_10_1523,mf_amp_cond1,3.0.7,60.34806895402261,
prosecution,&&&&&&&&&&&,images/symbols/symbol_58.png,authority.vice,right,,,,,,,,,,0,257,257,257,,,,,,,,,,,,,,,,,721.0645084729986,,,,,,,,,,,,,,AMP_prac,right,0.9793298340009642,1,,,left,1.0334594200030551,,,,,,,,,,,,,,,,,,,,,999,2019_Apr_10_1523,mf_amp_cond1,3.0.7,60.34806895402261,
harassment,&&&&&&&&&&,images/symbols/symbol_79.png,sanctity.vice,right,,,,,,,,,,0,258,258,258,,,,,,,,,,,,,,,,,722.4283322150004,,,,,,,,,,,,,,AMP_prac,right,0.9793298340009642,1,,,left,1.096886897998047,,,,,,,,,,,,,,,,,,,,,999,2019_Apr_10_1523,mf_amp_cond1,3.0.7,60.34806895402261,
great,&&&&&,images/symbols/symbol_80.png,loyalty.virtue,left,,,,,,,,,,0,259,259,259,,,,,,,,,,,,,,,,,724.2467498580008,,,,,,,,,,,,,,AMP_prac,right,0.9793298340009642,1,,,right,1.5786371380017954,,,,,,,,,,,,,,,,,,,,,999,2019_Apr_10_1523,mf_amp_cond1,3.0.7,60.34806895402261,
care,&&&&,images/symbols/symbol_20.png,care.virtue,left,,,,,,,,,,0,260,260,260,,,,,,,,,,,,,,,,,725.6464515589978,,,,,,,,,,,,,,AMP_prac,right,0.9793298340009642,1,,,right,1.1470251499995356,,,,,,,,,,,,,,,,,,,,,999,2019_Apr_10_1523,mf_amp_cond1,3.0.7,60.34806895402261,
death,&&&&&,images/symbols/symbol_26.png,care.vice,right,,,,,,,,,,0,261,261,261,,,,,,,,,,,,,,,,,727.2131656240017,,,,,,,,,,,,,,AMP_prac,right,0.9793298340009642,1,,,right,1.312215259000368,,,,,,,,,,,,,,,,,,,,,999,2019_Apr_10_1523,mf_amp_cond1,3.0.7,60.34806895402261,
promised,&&&&&&&&,images/symbols/symbol_62.png,loyalty.virtue,left,,,,,,,,,,0,262,262,262,,,,,,,,,,,,,,,,,728.8637428439979,,,,,,,,,,,,,,AMP_prac,right,0.9793298340009642,1,,,right,1.3811814020009479,,,,,,,,,,,,,,,,,,,,,999,2019_Apr_10_1523,mf_amp_cond1,3.0.7,60.34806895402261,
trust,&&&&&,images/symbols/symbol_57.png,authority.virtue,left,,,,,,,,,,0,263,263,263,,,,,,,,,,,,,,,,,730.3806749779978,,,,,,,,,,,,,,AMP_prac,right,0.9793298340009642,1,,,right,1.2496049149995088,,,,,,,,,,,,,,,,,,,,,999,2019_Apr_10_1523,mf_amp_cond1,3.0.7,60.34806895402261,
embrace,&&&&&&&,images/symbols/symbol_56.png,authority.virtue,left,,,,,,,,,,0,264,264,264,,,,,,,,,,,,,,,,,731.7971603490005,,,,,,,,,,,,,,AMP_prac,right,0.9793298340009642,1,,,left,1.1559803529962664,,,,,,,,,,,,,,,,,,,,,999,2019_Apr_10_1523,mf_amp_cond1,3.0.7,60.34806895402261,
voter,&&&&&,images/symbols/symbol_40.png,fairness.vice,right,,,,,,,,,,0,265,265,265,,,,,,,,,,,,,,,,,733.2449993019982,,,,,,,,,,,,,,AMP_prac,right,0.9793298340009642,1,,,left,1.1812501300009899,,,,,,,,,,,,,,,,,,,,,999,2019_Apr_10_1523,mf_amp_cond1,3.0.7,60.34806895402261,
died,&&&&,images/symbols/symbol_70.png,care.vice,right,,,,,,,,,,0,266,266,266,,,,,,,,,,,,,,,,,734.8634940240008,,,,,,,,,,,,,,AMP_prac,right,0.9793298340009642,1,,,left,1.366545518998464,,,,,,,,,,,,,,,,,,,,,999,2019_Apr_10_1523,mf_amp_cond1,3.0.7,60.34806895402261,
torture,&&&&&&&,images/symbols/symbol_52.png,care.vice,right,,,,,,,,,,0,267,267,267,,,,,,,,,,,,,,,,,736.2301577320031,,,,,,,,,,,,,,AMP_prac,right,0.9793298340009642,1,,,left,1.1124274960020557,,,,,,,,,,,,,,,,,,,,,999,2019_Apr_10_1523,mf_amp_cond1,3.0.7,60.34806895402261,
prison,&&&&&&,images/symbols/symbol_22.png,fairness.vice,right,,,,,,,,,,0,268,268,268,,,,,,,,,,,,,,,,,737.6816055210002,,,,,,,,,,,,,,AMP_prac,right,0.9793298340009642,1,,,left,1.1931764850014588,,,,,,,,,,,,,,,,,,,,,999,2019_Apr_10_1523,mf_amp_cond1,3.0.7,60.34806895402261,
men,&&&,images/symbols/symbol_50.png,loyalty.vice,right,,,,,,,,,,0,269,269,269,,,,,,,,,,,,,,,,,739.000498166999,,,,,,,,,,,,,,AMP_prac,right,0.9793298340009642,1,,,right,1.065394910001487,,,,,,,,,,,,,,,,,,,,,999,2019_Apr_10_1523,mf_amp_cond1,3.0.7,60.34806895402261,
twild,&&&&&,images/symbols/symbol_24.png,nonword,None,,,,,,,,,,0,270,270,270,,,,,,,,,,,,,,,,,740.3962920889971,,,,,,,,,,,,,,AMP_prac,right,0.9793298340009642,1,,,right,1.1321119549975265,,,,,,,,,,,,,,,,,,,,,999,2019_Apr_10_1523,mf_amp_cond1,3.0.7,60.34806895402261,
police,&&&&&&,images/symbols/symbol_35.png,authority.vice,right,,,,,,,,,,0,271,271,271,,,,,,,,,,,,,,,,,741.6470117400022,,,,,,,,,,,,,,AMP_prac,right,0.9793298340009642,1,,,left,0.9941347279964248,,,,,,,,,,,,,,,,,,,,,999,2019_Apr_10_1523,mf_amp_cond1,3.0.7,60.34806895402261,
protesters,&&&&&&&&&&,images/symbols/symbol_43.png,authority.vice,right,,,,,,,,,,0,272,272,272,,,,,,,,,,,,,,,,,742.9954937579969,,,,,,,,,,,,,,AMP_prac,right,0.9793298340009642,1,,,left,1.0967936180022662,,,,,,,,,,,,,,,,,,,,,999,2019_Apr_10_1523,mf_amp_cond1,3.0.7,60.34806895402261,
terrorists,&&&&&&&&&&,images/symbols/symbol_16.png,fairness.vice,right,,,,,,,,,,0,273,273,273,,,,,,,,,,,,,,,,,744.2666789180003,,,,,,,,,,,,,,AMP_prac,right,0.9793298340009642,1,,,left,1.0194175569995423,,,,,,,,,,,,,,,,,,,,,999,2019_Apr_10_1523,mf_amp_cond1,3.0.7,60.34806895402261,
interests,&&&&&&&&&,images/symbols/symbol_10.png,fairness.virtue,left,,,,,,,,,,0,274,274,274,,,,,,,,,,,,,,,,,745.6024368069993,,,,,,,,,,,,,,AMP_prac,right,0.9793298340009642,1,,,left,1.0701293170059216,,,,,,,,,,,,,,,,,,,,,999,2019_Apr_10_1523,mf_amp_cond1,3.0.7,60.34806895402261,
betrayal,&&&&&&&&,images/symbols/symbol_81.png,loyalty.vice,right,,,,,,,,,,0,275,275,275,,,,,,,,,,,,,,,,,746.8135992230018,,,,,,,,,,,,,,AMP_prac,right,0.9793298340009642,1,,,left,0.9480842670018319,,,,,,,,,,,,,,,,,,,,,999,2019_Apr_10_1523,mf_amp_cond1,3.0.7,60.34806895402261,
knapps,&&&&&&,images/symbols/symbol_75.png,nonword,None,,,,,,,,,,0,276,276,276,,,,,,,,,,,,,,,,,748.5294821790012,,,,,,,,,,,,,,AMP_prac,right,0.9793298340009642,1,,,left,1.4489944800006924,,,,,,,,,,,,,,,,,,,,,999,2019_Apr_10_1523,mf_amp_cond1,3.0.7,60.34806895402261,
useful,&&&&&&,images/symbols/symbol_11.png,authority.virtue,left,,,,,,,,,,0,277,277,277,,,,,,,,,,,,,,,,,749.8134427440018,,,,,,,,,,,,,,AMP_prac,right,0.9793298340009642,1,,,right,1.0288450049993116,,,,,,,,,,,,,,,,,,,,,999,2019_Apr_10_1523,mf_amp_cond1,3.0.7,60.34806895402261,
celebrated,&&&&&&&&&&,images/symbols/symbol_71.png,authority.virtue,left,,,,,,,,,,0,278,278,278,,,,,,,,,,,,,,,,,751.1836717780025,,,,,,,,,,,,,,AMP_prac,right,0.9793298340009642,1,,,left,1.1033245100043132,,,,,,,,,,,,,,,,,,,,,999,2019_Apr_10_1523,mf_amp_cond1,3.0.7,60.34806895402261,
praised,&&&&&&&,images/symbols/symbol_9.png,loyalty.virtue,left,,,,,,,,,,0,279,279,279,,,,,,,,,,,,,,,,,752.7140783990035,,,,,,,,,,,,,,AMP_prac,right,0.9793298340009642,1,,,right,1.267017443999066,,,,,,,,,,,,,,,,,,,,,999,2019_Apr_10_1523,mf_amp_cond1,3.0.7,60.34806895402261,
peaceful,&&&&&&&&,images/symbols/symbol_36.png,authority.virtue,left,,,,,,,,,,0,280,280,280,,,,,,,,,,,,,,,,,754.0004096880002,,,,,,,,,,,,,,AMP_prac,right,0.9793298340009642,1,,,right,1.0208325829953537,,,,,,,,,,,,,,,,,,,,,999,2019_Apr_10_1523,mf_amp_cond1,3.0.7,60.34806895402261,
strong,&&&&&&,images/symbols/symbol_17.png,loyalty.virtue,left,,,,,,,,,,0,281,281,281,,,,,,,,,,,,,,,,,755.5959125759982,,,,,,,,,,,,,,AMP_prac,right,0.9793298340009642,1,,,right,1.3321651450023637,,,,,,,,,,,,,,,,,,,,,999,2019_Apr_10_1523,mf_amp_cond1,3.0.7,60.34806895402261,
credit,&&&&&&,images/symbols/symbol_47.png,fairness.virtue,left,,,,,,,,,,0,282,282,282,,,,,,,,,,,,,,,,,757.2997904110016,,,,,,,,,,,,,,AMP_prac,right,0.9793298340009642,1,,,left,1.4532178720037336,,,,,,,,,,,,,,,,,,,,,999,2019_Apr_10_1523,mf_amp_cond1,3.0.7,60.34806895402261,
shot,&&&&,images/symbols/symbol_29.png,care.vice,right,,,,,,,,,,0,283,283,283,,,,,,,,,,,,,,,,,758.6999740899992,,,,,,,,,,,,,,AMP_prac,right,0.9793298340009642,1,,,left,1.1362651370000094,,,,,,,,,,,,,,,,,,,,,999,2019_Apr_10_1523,mf_amp_cond1,3.0.7,60.34806895402261,
attacks,&&&&&&&,images/symbols/symbol_2.png,care.vice,right,,,,,,,,,,0,284,284,284,,,,,,,,,,,,,,,,,760.1313779650009,,,,,,,,,,,,,,AMP_prac,right,0.9793298340009642,1,,,left,1.1807388750021346,,,,,,,,,,,,,,,,,,,,,999,2019_Apr_10_1523,mf_amp_cond1,3.0.7,60.34806895402261,
blamed,&&&&&&,images/symbols/symbol_14.png,loyalty.vice,right,,,,,,,,,,0,285,285,285,,,,,,,,,,,,,,,,,761.4790672620002,,,,,,,,,,,,,,AMP_prac,right,0.9793298340009642,1,,,left,1.0820269210016704,,,,,,,,,,,,,,,,,,,,,999,2019_Apr_10_1523,mf_amp_cond1,3.0.7,60.34806895402261,
black,&&&&&,images/symbols/symbol_49.png,loyalty.vice,right,,,,,,,,,,0,286,286,286,,,,,,,,,,,,,,,,,763.0475500100001,,,,,,,,,,,,,,AMP_prac,right,0.9793298340009642,1,,,right,1.3004760199983139,,,,,,,,,,,,,,,,,,,,,999,2019_Apr_10_1523,mf_amp_cond1,3.0.7,60.34806895402261,
violations,&&&&&&&&&&,images/symbols/symbol_31.png,sanctity.vice,right,,,,,,,,,,0,287,287,287,,,,,,,,,,,,,,,,,764.2297285250024,,,,,,,,,,,,,,AMP_prac,right,0.9793298340009642,1,,,left,0.9170484360001865,,,,,,,,,,,,,,,,,,,,,999,2019_Apr_10_1523,mf_amp_cond1,3.0.7,60.34806895402261,
forced,&&&&&&,images/symbols/symbol_19.png,fairness.vice,right,,,,,,,,,,0,288,288,288,,,,,,,,,,,,,,,,,765.6291993630002,,,,,,,,,,,,,,AMP_prac,right,0.9793298340009642,1,,,left,1.1324338210033602,,,,,,,,,,,,,,,,,,,,,999,2019_Apr_10_1523,mf_amp_cond1,3.0.7,60.34806895402261,
officers,&&&&&&&&,images/symbols/symbol_41.png,authority.vice,right,,,,,,,,,,0,289,289,289,,,,,,,,,,,,,,,,,767.0643148529998,,,,,,,,,,,,,,AMP_prac,right,0.9793298340009642,1,,,right,1.1800387950061122,,,,,,,,,,,,,,,,,,,,,999,2019_Apr_10_1523,mf_amp_cond1,3.0.7,60.34806895402261,
killed,&&&&&&,images/symbols/symbol_7.png,care.vice,right,,,,,,,,,,0,290,290,290,,,,,,,,,,,,,,,,,768.3959322739975,,,,,,,,,,,,,,AMP_prac,right,0.9793298340009642,1,,,left,1.0786727879967657,,,,,,,,,,,,,,,,,,,,,999,2019_Apr_10_1523,mf_amp_cond1,3.0.7,60.34806895402261,
integrity,&&&&&&&&&,images/symbols/symbol_48.png,fairness.virtue,left,,,,,,,,,,0,291,291,291,,,,,,,,,,,,,,,,,769.7828558159963,,,,,,,,,,,,,,AMP_prac,right,0.9793298340009642,1,,,left,1.1343105119958636,,,,,,,,,,,,,,,,,,,,,999,2019_Apr_10_1523,mf_amp_cond1,3.0.7,60.34806895402261,
perfect,&&&&&&&,images/symbols/symbol_8.png,sanctity.virtue,left,,,,,,,,,,0,292,292,292,,,,,,,,,,,,,,,,,771.2108710370012,,,,,,,,,,,,,,AMP_prac,right,0.9793298340009642,1,,,right,1.1802176589990268,,,,,,,,,,,,,,,,,,,,,999,2019_Apr_10_1523,mf_amp_cond1,3.0.7,60.34806895402261,
peace,&&&&&,images/symbols/symbol_3.png,care.virtue,left,,,,,,,,,,0,293,293,293,,,,,,,,,,,,,,,,,772.5452588859989,,,,,,,,,,,,,,AMP_prac,right,0.9793298340009642,1,,,left,1.0821452789969044,,,,,,,,,,,,,,,,,,,,,999,2019_Apr_10_1523,mf_amp_cond1,3.0.7,60.34806895402261,
suicide,&&&&&&&,images/symbols/symbol_65.png,care.vice,right,,,,,,,,,,0,294,294,294,,,,,,,,,,,,,,,,,773.9617803860019,,,,,,,,,,,,,,AMP_prac,right,0.9793298340009642,1,,,left,1.1487778299997444,,,,,,,,,,,,,,,,,,,,,999,2019_Apr_10_1523,mf_amp_cond1,3.0.7,60.34806895402261,
honored,&&&&&&&,images/symbols/symbol_4.png,authority.virtue,left,,,,,,,,,,0,295,295,295,,,,,,,,,,,,,,,,,775.2468507820013,,,,,,,,,,,,,,AMP_prac,right,0.9793298340009642,1,,,left,1.0339007319998927,,,,,,,,,,,,,,,,,,,,,999,2019_Apr_10_1523,mf_amp_cond1,3.0.7,60.34806895402261,
wence,&&&&&,images/symbols/symbol_66.png,nonword,None,,,,,,,,,,0,296,296,296,,,,,,,,,,,,,,,,,776.6118073629987,,,,,,,,,,,,,,AMP_prac,right,0.9793298340009642,1,,,left,1.0985328140013735,,,,,,,,,,,,,,,,,,,,,999,2019_Apr_10_1523,mf_amp_cond1,3.0.7,60.34806895402261,
promote,&&&&&&&,images/symbols/symbol_72.png,sanctity.virtue,left,,,,,,,,,,0,297,297,297,,,,,,,,,,,,,,,,,777.9796386320013,,,,,,,,,,,,,,AMP_prac,right,0.9793298340009642,1,,,left,1.1006178600000567,,,,,,,,,,,,,,,,,,,,,999,2019_Apr_10_1523,mf_amp_cond1,3.0.7,60.34806895402261,
commitment,&&&&&&&&&&,images/symbols/symbol_5.png,sanctity.virtue,left,,,,,,,,,,0,298,298,298,,,,,,,,,,,,,,,,,779.2963072139974,,,,,,,,,,,,,,AMP_prac,right,0.9793298340009642,1,,,right,1.0500084149971372,,,,,,,,,,,,,,,,,,,,,999,2019_Apr_10_1523,mf_amp_cond1,3.0.7,60.34806895402261,
love,&&&&,images/symbols/symbol_82.png,loyalty.virtue,left,,,,,,,,,,0,299,299,299,,,,,,,,,,,,,,,,,780.6467729880023,,,,,,,,,,,,,,AMP_prac,right,0.9793298340009642,1,,,left,1.0834168099972885,,,,,,,,,,,,,,,,,,,,,999,2019_Apr_10_1523,mf_amp_cond1,3.0.7,60.34806895402261,
support,&&&&&&&,images/symbols/symbol_32.png,loyalty.virtue,left,,,,,,,,,,0,300,300,300,,,,,,,,,,,,,,,,,782.0626465379974,,,,,,,,,,,,,,AMP_prac,right,0.9793298340009642,1,,,right,1.1665271949968883,,,,,,,,,,,,,,,,,,,,,999,2019_Apr_10_1523,mf_amp_cond1,3.0.7,60.34806895402261,
win,&&&,images/symbols/symbol_55.png,fairness.virtue,left,,,,,,,,,,0,301,301,301,,,,,,,,,,,,,,,,,783.3325628890016,,,,,,,,,,,,,,AMP_prac,right,0.9793298340009642,1,,,left,1.001997029001359,,,,,,,,,,,,,,,,,,,,,999,2019_Apr_10_1523,mf_amp_cond1,3.0.7,60.34806895402261,
slavery,&&&&&&&,images/symbols/symbol_46.png,loyalty.vice,right,,,,,,,,,,0,302,302,302,,,,,,,,,,,,,,,,,784.697686337,,,,,,,,,,,,,,AMP_prac,right,0.9793298340009642,1,,,left,1.1015228830001433,,,,,,,,,,,,,,,,,,,,,999,2019_Apr_10_1523,mf_amp_cond1,3.0.7,60.34806895402261,
hand,&&&&,images/symbols/symbol_42.png,sanctity.virtue,left,,,,,,,,,,0,303,303,303,,,,,,,,,,,,,,,,,786.1463860209988,,,,,,,,,,,,,,AMP_prac,right,0.9793298340009642,1,,,right,1.1926467490047798,,,,,,,,,,,,,,,,,,,,,999,2019_Apr_10_1523,mf_amp_cond1,3.0.7,60.34806895402261,
serial,&&&&&&,images/symbols/symbol_15.png,sanctity.vice,right,,,,,,,,,,0,304,304,304,,,,,,,,,,,,,,,,,787.4459093300029,,,,,,,,,,,,,,AMP_prac,right,0.9793298340009642,1,,,right,1.0324559919972671,,,,,,,,,,,,,,,,,,,,,999,2019_Apr_10_1523,mf_amp_cond1,3.0.7,60.34806895402261,
fighters,&&&&&&&&,images/symbols/symbol_60.png,authority.vice,right,,,,,,,,,,0,305,305,305,,,,,,,,,,,,,,,,,788.7796131430005,,,,,,,,,,,,,,AMP_prac,right,0.9793298340009642,1,,,left,1.0651251070012222,,,,,,,,,,,,,,,,,,,,,999,2019_Apr_10_1523,mf_amp_cond1,3.0.7,60.34806895402261,
good,&&&&,images/symbols/symbol_27.png,care.virtue,left,,,,,,,,,,0,306,306,306,,,,,,,,,,,,,,,,,790.0627322950022,,,,,,,,,,,,,,AMP_prac,right,0.9793298340009642,1,,,left,1.013251559001219,,,,,,,,,,,,,,,,,,,,,999,2019_Apr_10_1523,mf_amp_cond1,3.0.7,60.34806895402261,
improve,&&&&&&&,images/symbols/symbol_54.png,care.virtue,left,,,,,,,,,,0,307,307,307,,,,,,,,,,,,,,,,,791.3959003589989,,,,,,,,,,,,,,AMP_prac,right,0.9793298340009642,1,,,left,1.0650482390046818,,,,,,,,,,,,,,,,,,,,,999,2019_Apr_10_1523,mf_amp_cond1,3.0.7,60.34806895402261,
riot,&&&&,images/symbols/symbol_73.png,authority.vice,right,,,,,,,,,,0,308,308,308,,,,,,,,,,,,,,,,,792.7457565380028,,,,,,,,,,,,,,AMP_prac,right,0.9793298340009642,1,,,left,1.0828457549941959,,,,,,,,,,,,,,,,,,,,,999,2019_Apr_10_1523,mf_amp_cond1,3.0.7,60.34806895402261,
opportunity,&&&&&&&&&&&,images/symbols/symbol_33.png,fairness.virtue,left,,,,,,,,,,0,309,309,309,,,,,,,,,,,,,,,,,794.1125972049995,,,,,,,,,,,,,,AMP_prac,right,0.9793298340009642,1,,,left,1.0997930250014178,,,,,,,,,,,,,,,,,,,,,999,2019_Apr_10_1523,mf_amp_cond1,3.0.7,60.34806895402261,
rhoas,&&&&&,images/symbols/symbol_18.png,nonword,None,,,,,,,,,,0,310,310,310,,,,,,,,,,,,,,,,,795.4454847559973,,,,,,,,,,,,,,AMP_prac,right,0.9793298340009642,1,,,right,1.066077524999855,,,,,,,,,,,,,,,,,,,,,999,2019_Apr_10_1523,mf_amp_cond1,3.0.7,60.34806895402261,
pleasant,&&&&&&&,images/symbols/symbol_76.png,control,right,,,,,,,,,,0,311,311,311,,,,,,,,,,,,,,,,,796.7782910559981,,,,,,,,,,,,,,AMP_prac,right,0.9793298340009642,1,,,left,1.0651597539981594,,,,,,,,,,,,,,,,,,,,,999,2019_Apr_10_1523,mf_amp_cond1,3.0.7,60.34806895402261,
fraud,&&&&&,images/symbols/symbol_64.png,fairness.vice,right,,,,,,,,,,0,312,312,312,,,,,,,,,,,,,,,,,798.8293259240018,,,,,,,,,,,,,,AMP_prac,right,0.9793298340009642,1,,,left,1.7833017810044112,,,,,,,,,,,,,,,,,,,,,999,2019_Apr_10_1523,mf_amp_cond1,3.0.7,60.34806895402261,
hate,&&&&,images/symbols/symbol_59.png,fairness.vice,right,,,,,,,,,,0,313,313,313,,,,,,,,,,,,,,,,,800.1841122379992,,,,,,,,,,,,,,AMP_prac,right,0.9793298340009642,1,,,right,1.0887390329953632,,,,,,,,,,,,,,,,,,,,,999,2019_Apr_10_1523,mf_amp_cond1,3.0.7,60.34806895402261,
unpleasant,&&&&&&&&&,images/symbols/symbol_39.png,control,left,,,,,,,,,,0,314,314,314,,,,,,,,,,,,,,,,,801.6295865139982,,,,,,,,,,,,,,AMP_prac,right,0.9793298340009642,1,,,left,1.183874668997305,,,,,,,,,,,,,,,,,,,,,999,2019_Apr_10_1523,mf_amp_cond1,3.0.7,60.34806895402261,
skard,&&&&&,images/symbols/symbol_34.png,nonword,None,,,,,,,,,,0,315,315,315,,,,,,,,,,,,,,,,,803.0795531190015,,,,,,,,,,,,,,AMP_prac,right,0.9793298340009642,1,,,right,1.1836282250005752,,,,,,,,,,,,,,,,,,,,,999,2019_Apr_10_1523,mf_amp_cond1,3.0.7,60.34806895402261,
fair,&&&&,images/symbols/symbol_53.png,fairness.virtue,left,,,,,,,,,,0,316,316,316,,,,,,,,,,,,,,,,,804.4629100460006,,,,,,,,,,,,,,AMP_prac,right,0.9793298340009642,1,,,left,1.1170989940001164,,,,,,,,,,,,,,,,,,,,,999,2019_Apr_10_1523,mf_amp_cond1,3.0.7,60.34806895402261,
fear,&&&&,images/symbols/symbol_45.png,sanctity.vice,right,,,,,,,,,,0,317,317,317,,,,,,,,,,,,,,,,,805.9113367309983,,,,,,,,,,,,,,AMP_prac,right,0.9793298340009642,1,,,right,1.1987323719949927,,,,,,,,,,,,,,,,,,,,,999,2019_Apr_10_1523,mf_amp_cond1,3.0.7,60.34806895402261,
refused,&&&&&&&,images/symbols/symbol_30.png,authority.vice,right,,,,,,,,,,0,318,318,318,,,,,,,,,,,,,,,,,807.2454202750014,,,,,,,,,,,,,,AMP_prac,right,0.9793298340009642,1,,,left,1.0825152849938604,,,,,,,,,,,,,,,,,,,,,999,2019_Apr_10_1523,mf_amp_cond1,3.0.7,60.34806895402261,
shind,&&&&&,images/symbols/symbol_23.png,nonword,None,,,,,,,,,,0,319,319,319,,,,,,,,,,,,,,,,,808.7852891579969,,,,,,,,,,,,,,AMP_prac,right,0.9793298340009642,1,,,right,1.2731163019998348,,,,,,,,,,,,,,,,,,,,,999,2019_Apr_10_1523,mf_amp_cond1,3.0.7,60.34806895402261,
stryct,&&&&&&,images/symbols/symbol_67.png,nonword,None,,,,,,,,,,0,320,320,320,,,,,,,,,,,,,,,,,810.2627773689965,,,,,,,,,,,,,,AMP_prac,right,0.9793298340009642,1,,,left,1.2157581229985226,,,,,,,,,,,,,,,,,,,,,999,2019_Apr_10_1523,mf_amp_cond1,3.0.7,60.34806895402261,
conspiracy,&&&&&&&&&&,images/symbols/symbol_63.png,sanctity.vice,right,,,,,,,,,,0,321,321,321,,,,,,,,,,,,,,,,,811.7467499659979,,,,,,,,,,,,,,AMP_prac,right,0.9793298340009642,1,,,left,1.217580327000178,,,,,,,,,,,,,,,,,,,,,999,2019_Apr_10_1523,mf_amp_cond1,3.0.7,60.34806895402261,
clean,&&&&&,images/symbols/symbol_12.png,sanctity.virtue,left,,,,,,,,,,0,322,322,322,,,,,,,,,,,,,,,,,813.3280218569998,,,,,,,,,,,,,,AMP_prac,right,0.9793298340009642,1,,,left,1.3156795370014152,,,,,,,,,,,,,,,,,,,,,999,2019_Apr_10_1523,mf_amp_cond1,3.0.7,60.34806895402261,
restore,&&&&&&&,images/symbols/symbol_25.png,care.virtue,left,,,,,,,,,,0,323,323,323,,,,,,,,,,,,,,,,,814.6953624939997,,,,,,,,,,,,,,AMP_prac,right,0.9793298340009642,1,,,left,1.1243584449985065,,,,,,,,,,,,,,,,,,,,,999,2019_Apr_10_1523,mf_amp_cond1,3.0.7,60.34806895402261,
increase,&&&&&&&&,images/symbols/symbol_74.png,care.virtue,left,,,,,,,,,,0,324,324,324,,,,,,,,,,,,,,,,,815.9820940650025,,,,,,,,,,,,,,AMP_prac,right,0.9793298340009642,1,,,right,1.036121937999269,,,,,,,,,,,,,,,,,,,,,999,2019_Apr_10_1523,mf_amp_cond1,3.0.7,60.34806895402261,
faith,&&&&&,images/symbols/symbol_69.png,sanctity.virtue,left,,,,,,,,,,0,325,325,325,,,,,,,,,,,,,,,,,817.2965950900034,,,,,,,,,,,,,,AMP_prac,right,0.9793298340009642,1,,,left,1.0506010489989421,,,,,,,,,,,,,,,,,,,,,999,2019_Apr_10_1523,mf_amp_cond1,3.0.7,60.34806895402261,
coacs,&&&&&,images/symbols/symbol_68.png,nonword,None,,,,,,,,,,0,326,326,326,,,,,,,,,,,,,,,,,818.7300667270028,,,,,,,,,,,,,,AMP_prac,right,0.9793298340009642,1,,,left,1.1674270020012045,,,,,,,,,,,,,,,,,,,,,999,2019_Apr_10_1523,mf_amp_cond1,3.0.7,60.34806895402261,
failure,&&&&&&&,images/symbols/symbol_44.png,loyalty.vice,right,,,,,,,,,,0,327,327,327,,,,,,,,,,,,,,,,,820.3125180150018,,,,,,,,,,,,,,AMP_prac,right,0.9793298340009642,1,,,left,1.3166924030010705,,,,,,,,,,,,,,,,,,,,,999,2019_Apr_10_1523,mf_amp_cond1,3.0.7,60.34806895402261,
,,,,,,,,,,,,,,,,,,,,,,,,,,,,,,,,,,,,,,,,,,,,,,,,,,,,,,,,6,6.462,,,,,,,,,,,,,,,,,,,999,2019_Apr_10_1523,mf_amp_cond1,3.0.7,60.34806895402261,
,,,,,,,,,,,,,,,,,,,,,,,,,,,,,,,,,,,,,,,,,,,,,,,,,,,,,,,,,,2,4.456,,,,,,,,,,,,,,,,,999,2019_Apr_10_1523,mf_amp_cond1,3.0.7,60.34806895402261,
,,,,,,,,,,,,,,,,,,,,,,,,,,,,,,,,,,,,,,,,,,,,,,,,,,,,,,,,,,,,5,2.703,,,,,,,,,,,,,,,999,2019_Apr_10_1523,mf_amp_cond1,3.0.7,60.34806895402261,
,,,,,,,,,,,,,,,,,,,,,,,,,,,,,,,,,,,,,,,,,,,,,,,,,,,,,,,,,,,,,,right,1.66954817900114,,,,,,,,,,,,,999,2019_Apr_10_1523,mf_amp_cond1,3.0.7,60.34806895402261,
keyboard,,,,,&&&&&&&,,,,,,,,,,,,,0,0,0,0,,,,,,,,,,,,,904.7323941509967,,,,,,,,,,,,,,LDT_prac,right,1.5513567509988206,,,,,,,,,,,,,,right,1.5513567509988206,0,,,,,,,,,,999,2019_Apr_10_1523,mf_amp_cond1,3.0.7,60.34806895402261,
bisebell,,,,,&&&&&&&,,,,,,,,,,,,,0,1,1,1,,,,,,,,,,,,,907.2269443420009,,,,,,,,,,,,,,LDT_prac,left,1.1859247899992624,,,,,,,,,,,,,,left,1.1859247899992624,0,,,,,,,,,,999,2019_Apr_10_1523,mf_amp_cond1,3.0.7,60.34806895402261,
,,,,,,,,,,,,,,,,,,,,,,,,,,,,,,,,,,,,,,,,,,,,,,,,,,,,,,,,,,,,,,,,,,,right,1.0855230349989142,,,,,,,,999,2019_Apr_10_1523,mf_amp_cond1,3.0.7,60.34806895402261,
crime,,,fairness.vice,left,&&&&&,,,,,,,,,,,,,,,,,0,0,0,15,,,,,,,,,927.2089451060019,,,,,,,,,,,,,,LDT_prac,right,1.7139223839985789,,,,,,,,,,,,,,right,1.7139223839985789,0,,,,,,,,,,999,2019_Apr_10_1523,mf_amp_cond1,3.0.7,60.34806895402261,
groups,,,loyalty.vice,left,&&&&&&,,,,,,,,,,,,,,,,,0,1,1,27,,,,,,,,,929.5330459089964,,,,,,,,,,,,,,LDT_prac,left,0.9543869989938685,,,,,,,,,,,,,,left,0.9543869989938685,0,,,,,,,,,,999,2019_Apr_10_1523,mf_amp_cond1,3.0.7,60.34806895402261,
shypse,,,nonword,left,&&&&&&,,,,,,,,,,,,,,,,,0,2,2,141,,,,,,,,,932.5090011110005,,,,,,,,,,,,,,LDT_prac,left,1.6442787729974953,,,,,,,,,,,,,,left,1.6442787729974953,0,,,,,,,,,,999,2019_Apr_10_1523,mf_amp_cond1,3.0.7,60.34806895402261,
crarft,,,nonword,left,&&&&&&,,,,,,,,,,,,,,,,,0,3,3,111,,,,,,,,,935.1497500319965,,,,,,,,,,,,,,LDT_prac,right,1.0048174750045291,,,,,,,,,,,,,,right,1.0048174750045291,0,,,,,,,,,,999,2019_Apr_10_1523,mf_amp_cond1,3.0.7,60.34806895402261,
jogns,,,nonword,left,&&&&&,,,,,,,,,,,,,,,,,0,4,4,172,,,,,,,,,937.8940658369975,,,,,,,,,,,,,,LDT_prac,left,0.9995097669961979,,,,,,,,,,,,,,left,0.9995097669961979,0,,,,,,,,,,999,2019_Apr_10_1523,mf_amp_cond1,3.0.7,60.34806895402261,
help,,,care.virtue,left,&&&&,,,,,,,,,,,,,,,,,0,5,5,0,,,,,,,,,940.726968367002,,,,,,,,,,,,,,LDT_prac,left,0.8331982320014504,,,,,,,,,,,,,,left,0.8331982320014504,0,,,,,,,,,,999,2019_Apr_10_1523,mf_amp_cond1,3.0.7,60.34806895402261,
sharing,,,loyalty.virtue,left,&&&&&&&,,,,,,,,,,,,,,,,,0,6,6,24,,,,,,,,,942.9984457649989,,,,,,,,,,,,,,LDT_prac,left,0.8375277019949863,,,,,,,,,,,,,,left,0.8375277019949863,0,,,,,,,,,,999,2019_Apr_10_1523,mf_amp_cond1,3.0.7,60.34806895402261,
scourld,,,nonword,left,&&&&&&&,,,,,,,,,,,,,,,,,0,7,7,199,,,,,,,,,945.7832963859983,,,,,,,,,,,,,,LDT_prac,left,0.8685246020031627,,,,,,,,,,,,,,left,0.8685246020031627,0,,,,,,,,,,999,2019_Apr_10_1523,mf_amp_cond1,3.0.7,60.34806895402261,
there,,,neutral,left,&&&&&,,,,,,,,,,,,,,,,,0,8,8,91,,,,,,,,,948.280133000997,,,,,,,,,,,,,,LDT_prac,right,0.9849572370003443,,,,,,,,,,,,,,right,0.9849572370003443,0,,,,,,,,,,999,2019_Apr_10_1523,mf_amp_cond1,3.0.7,60.34806895402261,
lies,,,fairness.vice,left,&&&&,,,,,,,,,,,,,,,,,0,9,9,17,,,,,,,,,951.5785057910034,,,,,,,,,,,,,,LDT_prac,right,1.4844717419982771,,,,,,,,,,,,,,right,1.4844717419982771,0,,,,,,,,,,999,2019_Apr_10_1523,mf_amp_cond1,3.0.7,60.34806895402261,
else,,,neutral,left,&&&&,,,,,,,,,,,,,,,,,0,10,10,85,,,,,,,,,953.915678309997,,,,,,,,,,,,,,LDT_prac,right,1.2190529449944734,,,,,,,,,,,,,,right,1.2190529449944734,0,,,,,,,,,,999,2019_Apr_10_1523,mf_amp_cond1,3.0.7,60.34806895402261,
amoungst,,,neutral,left,&&&&&&&&,,,,,,,,,,,,,,,,,0,11,11,65,,,,,,,,,956.396004561997,,,,,,,,,,,,,,LDT_prac,right,1.168750242999522,,,,,,,,,,,,,,right,1.168750242999522,0,,,,,,,,,,999,2019_Apr_10_1523,mf_amp_cond1,3.0.7,60.34806895402261,
jipte,,,nonword,left,&&&&&,,,,,,,,,,,,,,,,,0,12,12,186,,,,,,,,,958.3099600799978,,,,,,,,,,,,,,LDT_prac,left,0.7490704980009468,,,,,,,,,,,,,,left,0.7490704980009468,0,,,,,,,,,,999,2019_Apr_10_1523,mf_amp_cond1,3.0.7,60.34806895402261,
gryssed,,,nonword,left,&&&&&&&,,,,,,,,,,,,,,,,,0,13,13,149,,,,,,,,,960.8813304389987,,,,,,,,,,,,,,LDT_prac,left,1.003692885999044,,,,,,,,,,,,,,left,1.003692885999044,0,,,,,,,,,,999,2019_Apr_10_1523,mf_amp_cond1,3.0.7,60.34806895402261,
health,,,care.virtue,left,&&&&&&,,,,,,,,,,,,,,,,,0,14,14,1,,,,,,,,,963.2793880030003,,,,,,,,,,,,,,LDT_prac,right,0.7349171030000434,,,,,,,,,,,,,,right,0.7349171030000434,0,,,,,,,,,,999,2019_Apr_10_1523,mf_amp_cond1,3.0.7,60.34806895402261,
gnoozz,,,nonword,left,&&&&&&,,,,,,,,,,,,,,,,,0,15,15,134,,,,,,,,,965.2962963390019,,,,,,,,,,,,,,LDT_prac,left,0.7006306430048426,,,,,,,,,,,,,,left,0.7006306430048426,0,,,,,,,,,,999,2019_Apr_10_1523,mf_amp_cond1,3.0.7,60.34806895402261,
sweede,,,nonword,left,&&&&&&,,,,,,,,,,,,,,,,,0,16,16,144,,,,,,,,,967.5471379309965,,,,,,,,,,,,,,LDT_prac,left,0.9657697439979529,,,,,,,,,,,,,,left,0.9657697439979529,0,,,,,,,,,,999,2019_Apr_10_1523,mf_amp_cond1,3.0.7,60.34806895402261,
threatened,,,fairness.vice,left,&&&&&&&&&&,,,,,,,,,,,,,,,,,0,17,17,19,,,,,,,,,969.7804655029977,,,,,,,,,,,,,,LDT_prac,right,1.118398785001773,,,,,,,,,,,,,,right,1.118398785001773,0,,,,,,,,,,999,2019_Apr_10_1523,mf_amp_cond1,3.0.7,60.34806895402261,
scrauld,,,nonword,left,&&&&&&&,,,,,,,,,,,,,,,,,0,18,18,105,,,,,,,,,972.1141981990004,,,,,,,,,,,,,,LDT_prac,left,0.9042124879997573,,,,,,,,,,,,,,left,0.9042124879997573,0,,,,,,,,,,999,2019_Apr_10_1523,mf_amp_cond1,3.0.7,60.34806895402261,
less,,,neutral,left,&&&&,,,,,,,,,,,,,,,,,0,19,19,73,,,,,,,,,974.7623617810023,,,,,,,,,,,,,,LDT_prac,right,1.3849930690048495,,,,,,,,,,,,,,right,1.3849930690048495,0,,,,,,,,,,999,2019_Apr_10_1523,mf_amp_cond1,3.0.7,60.34806895402261,
rebels,,,authority.vice,left,&&&&&&,,,,,,,,,,,,,,,,,0,20,20,37,,,,,,,,,977.1504104120031,,,,,,,,,,,,,,LDT_prac,right,1.2190760369994678,,,,,,,,,,,,,,right,1.2190760369994678,0,,,,,,,,,,999,2019_Apr_10_1523,mf_amp_cond1,3.0.7,60.34806895402261,
lighnde,,,nonword,left,&&&&&&&,,,,,,,,,,,,,,,,,0,21,21,187,,,,,,,,,979.7147187849987,,,,,,,,,,,,,,LDT_prac,left,0.87045789900003,,,,,,,,,,,,,,left,0.87045789900003,0,,,,,,,,,,999,2019_Apr_10_1523,mf_amp_cond1,3.0.7,60.34806895402261,
drighs,,,nonword,left,&&&&&&,,,,,,,,,,,,,,,,,0,22,22,178,,,,,,,,,982.0923221139965,,,,,,,,,,,,,,LDT_prac,left,0.8817907080010627,,,,,,,,,,,,,,left,0.8817907080010627,0,,,,,,,,,,999,2019_Apr_10_1523,mf_amp_cond1,3.0.7,60.34806895402261,
ensure,,,fairness.virtue,left,&&&&&&,,,,,,,,,,,,,,,,,0,23,23,11,,,,,,,,,984.6792644270026,,,,,,,,,,,,,,LDT_prac,right,0.7495601080008782,,,,,,,,,,,,,,right,0.7495601080008782,0,,,,,,,,,,999,2019_Apr_10_1523,mf_amp_cond1,3.0.7,60.34806895402261,
