words,masks,symbols,conditionfile,corr_ans,category,logo_trials.thisRepN,logo_trials.thisTrialN,logo_trials.thisN,logo_trials.thisIndex,index,symbol,AMP_pracs.thisRepN,AMP_pracs.thisTrialN,AMP_pracs.thisN,AMP_pracs.thisIndex,trials_loop.thisRepN,trials_loop.thisTrialN,trials_loop.thisN,trials_loop.thisIndex,AMP_trials.thisRepN,AMP_trials.thisTrialN,AMP_trials.thisN,AMP_trials.thisIndex,begin_key.keys,begin_key.rt,key_resp_AMP_instr1.keys,exp_time,resp_logo_rate.keys,keypress_logo_prac.keys,keypress_logo_prac.rt,resp_logo_ready_2.keys,keypress_logo_trial.keys,symbol_index,resp_AMP_ready1.keys,resp_AMP.keys,task,keypress,RT,prime_dur,resp_AMP_ready.keys,resp_AMP_trials.keys,resp_AMP_trials.rt,participant,date,expName,psychopyVersion,frameRate,
,,,,,,,,,,,,,,,,,,,,,,,,right,1.0766178449994186,,,,,,,,,,,,,,,,,,999,2019_Apr_13_0815,mf_amp_cond1,3.0.7,59.71800358534182,
,,,,,,,,,,,,,,,,,,,,,,,,,,None,,,,,,,,,,,,,,,,,999,2019_Apr_13_0815,mf_amp_cond1,3.0.7,59.71800358534182,
,,,,,,,,,,,,,,,,,,,,,,,,,,,1.3856704119971255,None,,,,,,,,,,,,,,,999,2019_Apr_13_0815,mf_amp_cond1,3.0.7,59.71800358534182,
,,,,,,,,,,,,,,,,,,,,,,,,,,,2.366377193000517,,right,0.3531916249994538,,,,,,,,,,,,,999,2019_Apr_13_0815,mf_amp_cond1,3.0.7,59.71800358534182,
,,,,,,,,,,,,,,,,,,,,,,,,,,,,,,,None,,,,,,,,,,,,999,2019_Apr_13_0815,mf_amp_cond1,3.0.7,59.71800358534182,
,,,,,,,,,,,,,,,,,,,,,,,,,,,3.1161530669996864,,,,,None,32,None,,,,,,,,,999,2019_Apr_13_0815,mf_amp_cond1,3.0.7,59.71800358534182,
keyboard,&&&&&&&&,images/symbols/symbol_40.png,,,,,,,,,,0,0,0,2,,,,,,,,,,,,4.883903042995371,,,,,,,,None,AMP_prac,None,[],1,,,,999,2019_Apr_13_0815,mf_amp_cond1,3.0.7,59.71800358534182,
,,,,,,,,,,,,,,,,,,,,,,,,,,,,,,,,,,,,,,,,None,,,999,2019_Apr_13_0815,mf_amp_cond1,3.0.7,59.71800358534182,
torture,&&&&&&&,images/symbols/symbol_55.png,condition_files/AMP_rep4.csv,right,care.vice,,,,,,,,,,,0,0,0,3,0,0,0,0,,,,11.050292371000978,,,,,,,,,AMP_prac,None,[],1,,left,0.5223024080041796,999,2019_Apr_13_0815,mf_amp_cond1,3.0.7,59.71800358534182,
praise,&&&&&&,images/symbols/symbol_12.png,condition_files/AMP_rep4.csv,left,authority.virtue,,,,,,,,,,,0,0,0,3,0,1,1,1,,,,11.815691014999175,,,,,,,,,AMP_prac,None,[],1,,left,0.5391472020055517,999,2019_Apr_13_0815,mf_amp_cond1,3.0.7,59.71800358534182,
death,&&&&&,images/symbols/symbol_27.png,condition_files/AMP_rep4.csv,right,care.vice,,,,,,,,,,,0,0,0,3,0,2,2,2,,,,12.816346712999803,,,,,,,,,AMP_prac,None,[],1,,right,0.7725596080053947,999,2019_Apr_13_0815,mf_amp_cond1,3.0.7,59.71800358534182,
sexual,&&&&&&,images/symbols/symbol_1.png,condition_files/AMP_rep4.csv,right,sanctity.vice,,,,,,,,,,,0,0,0,3,0,3,3,3,,,,13.84948357599933,,,,,,,,,AMP_prac,None,[],1,,left,0.8094002279976849,999,2019_Apr_13_0815,mf_amp_cond1,3.0.7,59.71800358534182,
violence,&&&&&&&&,images/symbols/symbol_15.png,condition_files/AMP_rep4.csv,right,care.vice,,,,,,,,,,,0,0,0,3,0,4,4,4,,,,14.91701153399481,,,,,,,,,AMP_prac,None,[],1,,right,0.8361423120004474,999,2019_Apr_13_0815,mf_amp_cond1,3.0.7,59.71800358534182,
promote,&&&&&&&,images/symbols/symbol_42.png,condition_files/AMP_rep4.csv,left,sanctity.virtue,,,,,,,,,,,0,0,0,3,0,5,5,5,,,,15.933678328998212,,,,,,,,,AMP_prac,None,[],1,,left,0.7761272529969574,999,2019_Apr_13_0815,mf_amp_cond1,3.0.7,59.71800358534182,
threatened,&&&&&&&&&&,images/symbols/symbol_2.png,condition_files/AMP_rep4.csv,right,fairness.vice,,,,,,,,,,,0,0,0,3,0,6,6,6,,,,16.984068099998694,,,,,,,,,AMP_prac,None,[],1,,right,0.8109768669964978,999,2019_Apr_13_0815,mf_amp_cond1,3.0.7,59.71800358534182,
police,&&&&&&,images/symbols/symbol_18.png,condition_files/AMP_rep4.csv,right,authority.vice,,,,,,,,,,,0,0,0,3,0,7,7,7,,,,18.000041389997932,,,,,,,,,AMP_prac,None,[],1,,left,0.7760260620052577,999,2019_Apr_13_0815,mf_amp_cond1,3.0.7,59.71800358534182,
charges,&&&&&&&,images/symbols/symbol_46.png,condition_files/AMP_rep4.csv,right,fairness.vice,,,,,,,,,,,0,0,0,3,0,8,8,8,,,,19.084510490996763,,,,,,,,,AMP_prac,None,[],1,,right,0.8437497000049916,999,2019_Apr_13_0815,mf_amp_cond1,3.0.7,59.71800358534182,
encourage,&&&&&&&&&,images/symbols/symbol_81.png,condition_files/AMP_rep4.csv,left,authority.virtue,,,,,,,,,,,0,0,0,3,0,9,9,9,,,,20.11721697599569,,,,,,,,,AMP_prac,None,[],1,,left,0.7923860120063182,999,2019_Apr_13_0815,mf_amp_cond1,3.0.7,59.71800358534182,
died,&&&&,images/symbols/symbol_67.png,condition_files/AMP_rep4.csv,right,care.vice,,,,,,,,,,,0,0,0,3,0,10,10,10,,,,21.167605812996044,,,,,,,,,AMP_prac,None,[],1,,right,0.809542071998294,999,2019_Apr_13_0815,mf_amp_cond1,3.0.7,59.71800358534182,
party,&&&&&,images/symbols/symbol_39.png,condition_files/AMP_rep4.csv,left,loyalty.virtue,,,,,,,,,,,0,0,0,3,0,11,11,11,,,,22.15049625899701,,,,,,,,,AMP_prac,None,[],1,,left,0.7428121020057006,999,2019_Apr_13_0815,mf_amp_cond1,3.0.7,59.71800358534182,
army,&&&&,images/symbols/symbol_58.png,condition_files/AMP_rep4.csv,right,loyalty.vice,,,,,,,,,,,0,0,0,3,0,12,12,12,,,,23.1834128019982,,,,,,,,,AMP_prac,None,[],1,,left,0.7929870950028999,999,2019_Apr_13_0815,mf_amp_cond1,3.0.7,59.71800358534182,
great,&&&&&,images/symbols/symbol_80.png,condition_files/AMP_rep4.csv,left,loyalty.virtue,,,,,,,,,,,0,0,0,3,0,13,13,13,,,,24.183287962994655,,,,,,,,,AMP_prac,None,[],1,,right,0.7595415219984716,999,2019_Apr_13_0815,mf_amp_cond1,3.0.7,59.71800358534182,
protesters,&&&&&&&&&&,images/symbols/symbol_4.png,condition_files/AMP_rep4.csv,right,authority.vice,,,,,,,,,,,0,0,0,3,0,14,14,14,,,,25.217208519999986,,,,,,,,,AMP_prac,None,[],1,,left,0.7935009889988578,999,2019_Apr_13_0815,mf_amp_cond1,3.0.7,59.71800358534182,
killed,&&&&&&,images/symbols/symbol_77.png,condition_files/AMP_rep4.csv,right,care.vice,,,,,,,,,,,0,0,0,3,0,15,15,15,,,,26.53450381699804,,,,,,,,,AMP_prac,None,[],1,,left,1.0863085149976541,999,2019_Apr_13_0815,mf_amp_cond1,3.0.7,59.71800358534182,
blamed,&&&&&&,images/symbols/symbol_59.png,condition_files/AMP_rep4.csv,right,loyalty.vice,,,,,,,,,,,0,0,0,3,0,16,16,16,,,,27.66666475099919,,,,,,,,,AMP_prac,None,[],1,,right,0.8931935790023999,999,2019_Apr_13_0815,mf_amp_cond1,3.0.7,59.71800358534182,
gryssed,&&&&&&&,images/symbols/symbol_10.png,condition_files/AMP_rep4.csv,None,nonword,,,,,,,,,,,0,0,0,3,0,17,17,17,,,,28.634740156994667,,,,,,,,,AMP_prac,None,[],1,,left,0.7277752040026826,999,2019_Apr_13_0815,mf_amp_cond1,3.0.7,59.71800358534182,
dignity,&&&&&&&,images/symbols/symbol_57.png,condition_files/AMP_rep4.csv,left,sanctity.virtue,,,,,,,,,,,0,0,0,3,0,18,18,18,,,,29.63323313699948,,,,,,,,,AMP_prac,None,[],1,,right,0.7594384279946098,999,2019_Apr_13_0815,mf_amp_cond1,3.0.7,59.71800358534182,
agreement,&&&&&&&&&,images/symbols/symbol_69.png,condition_files/AMP_rep4.csv,left,fairness.virtue,,,,,,,,,,,0,0,0,3,0,19,19,19,,,,30.667484026998864,,,,,,,,,AMP_prac,None,[],1,,right,0.7934758190021967,999,2019_Apr_13_0815,mf_amp_cond1,3.0.7,59.71800358534182,
violations,&&&&&&&&&&,images/symbols/symbol_68.png,condition_files/AMP_rep4.csv,right,sanctity.vice,,,,,,,,,,,0,0,0,3,0,20,20,20,,,,31.684064629000204,,,,,,,,,AMP_prac,None,[],1,,left,0.7769463809963781,999,2019_Apr_13_0815,mf_amp_cond1,3.0.7,59.71800358534182,
arrests,&&&&&&&,images/symbols/symbol_29.png,condition_files/AMP_rep4.csv,right,authority.vice,,,,,,,,,,,0,0,0,3,0,21,21,21,,,,33.46753983999952,,,,,,,,,AMP_prac,None,[],1,,left,1.5434478759998456,999,2019_Apr_13_0815,mf_amp_cond1,3.0.7,59.71800358534182,
care,&&&&,images/symbols/symbol_17.png,condition_files/AMP_rep4.csv,left,care.virtue,,,,,,,,,,,0,0,0,3,0,22,22,22,,,,34.58268433399644,,,,,,,,,AMP_prac,None,[],1,,right,0.8840210350026609,999,2019_Apr_13_0815,mf_amp_cond1,3.0.7,59.71800358534182,
free,&&&&,images/symbols/symbol_43.png,condition_files/AMP_rep4.csv,left,fairness.virtue,,,,,,,,,,,0,0,0,3,0,23,23,23,,,,35.58350755299762,,,,,,,,,AMP_prac,None,[],1,,left,0.7596757720020832,999,2019_Apr_13_0815,mf_amp_cond1,3.0.7,59.71800358534182,
fair,&&&&,images/symbols/symbol_53.png,condition_files/AMP_rep4.csv,left,fairness.virtue,,,,,,,,,,,0,0,0,3,0,24,24,24,,,,36.550521772995126,,,,,,,,,AMP_prac,None,[],1,,right,0.7265351040041423,999,2019_Apr_13_0815,mf_amp_cond1,3.0.7,59.71800358534182,
wraughsed,&&&&&&&&&,images/symbols/symbol_26.png,condition_files/AMP_rep4.csv,None,nonword,,,,,,,,,,,0,0,0,3,0,25,25,25,,,,37.51698847299849,,,,,,,,,AMP_prac,None,[],1,,left,0.7268004149955232,999,2019_Apr_13_0815,mf_amp_cond1,3.0.7,59.71800358534182,
betrayal,&&&&&&&&,images/symbols/symbol_24.png,condition_files/AMP_rep4.csv,right,loyalty.vice,,,,,,,,,,,0,0,0,3,0,26,26,26,,,,38.48362140300014,,,,,,,,,AMP_prac,None,[],1,,right,0.7261918079966563,999,2019_Apr_13_0815,mf_amp_cond1,3.0.7,59.71800358534182,
love,&&&&,images/symbols/symbol_60.png,condition_files/AMP_rep4.csv,left,loyalty.virtue,,,,,,,,,,,0,0,0,3,0,27,27,27,,,,39.48437507500057,,,,,,,,,AMP_prac,None,[],1,,left,0.760376592996181,999,2019_Apr_13_0815,mf_amp_cond1,3.0.7,59.71800358534182,
actively,&&&&&&&&,images/symbols/symbol_64.png,condition_files/AMP_rep4.csv,left,authority.virtue,,,,,,,,,,,0,0,0,3,0,28,28,28,,,,40.51733858999796,,,,,,,,,AMP_prac,None,[],1,,left,0.7947102710022591,999,2019_Apr_13_0815,mf_amp_cond1,3.0.7,59.71800358534182,
help,&&&&,images/symbols/symbol_28.png,condition_files/AMP_rep4.csv,left,care.virtue,,,,,,,,,,,0,0,0,3,0,29,29,29,,,,41.43275292599719,,,,,,,,,AMP_prac,None,[],1,,left,0.6760336300067138,999,2019_Apr_13_0815,mf_amp_cond1,3.0.7,59.71800358534182,
win,&&&,images/symbols/symbol_30.png,condition_files/AMP_rep4.csv,left,fairness.virtue,,,,,,,,,,,0,0,0,3,0,30,30,30,,,,42.33413969099638,,,,,,,,,AMP_prac,None,[],1,,right,0.660532093999791,999,2019_Apr_13_0815,mf_amp_cond1,3.0.7,59.71800358534182,
squintce,&&&&&&&&,images/symbols/symbol_38.png,condition_files/AMP_rep4.csv,None,nonword,,,,,,,,,,,0,0,0,3,0,31,31,31,,,,43.33443118699506,,,,,,,,,AMP_prac,None,[],1,,left,0.7696990890035522,999,2019_Apr_13_0815,mf_amp_cond1,3.0.7,59.71800358534182,
terrorists,&&&&&&&&&&,images/symbols/symbol_13.png,condition_files/AMP_rep4.csv,right,fairness.vice,,,,,,,,,,,0,0,0,3,0,32,32,32,,,,44.28349737099779,,,,,,,,,AMP_prac,None,[],1,,left,0.7101235520021874,999,2019_Apr_13_0815,mf_amp_cond1,3.0.7,59.71800358534182,
increase,&&&&&&&&,images/symbols/symbol_8.png,condition_files/AMP_rep4.csv,left,care.virtue,,,,,,,,,,,0,0,0,3,0,33,33,33,,,,45.3169969139999,,,,,,,,,AMP_prac,None,[],1,,right,0.7932592279976234,999,2019_Apr_13_0815,mf_amp_cond1,3.0.7,59.71800358534182,
credit,&&&&&&,images/symbols/symbol_74.png,condition_files/AMP_rep4.csv,left,fairness.virtue,,,,,,,,,,,0,0,0,3,0,34,34,34,,,,46.3834528649968,,,,,,,,,AMP_prac,None,[],1,,left,0.8262568200007081,999,2019_Apr_13_0815,mf_amp_cond1,3.0.7,59.71800358534182,
terrorist,&&&&&&&&&,images/symbols/symbol_66.png,condition_files/AMP_rep4.csv,right,loyalty.vice,,,,,,,,,,,0,0,0,3,0,35,35,35,,,,47.366732409995166,,,,,,,,,AMP_prac,None,[],1,,right,0.7517760659975465,999,2019_Apr_13_0815,mf_amp_cond1,3.0.7,59.71800358534182,
unpleasant,&&&&&&&&&,images/symbols/symbol_47.png,condition_files/AMP_rep4.csv,left,control,,,,,,,,,,,0,0,0,3,0,36,36,36,,,,48.38407605399698,,,,,,,,,AMP_prac,None,[],1,,left,0.777230169995164,999,2019_Apr_13_0815,mf_amp_cond1,3.0.7,59.71800358534182,
victim,&&&&&&,images/symbols/symbol_75.png,condition_files/AMP_rep4.csv,right,care.vice,,,,,,,,,,,0,0,0,3,0,37,37,37,,,,49.39854454399756,,,,,,,,,AMP_prac,None,[],1,,left,0.7749914260057267,999,2019_Apr_13_0815,mf_amp_cond1,3.0.7,59.71800358534182,
progress,&&&&&&&&,images/symbols/symbol_76.png,condition_files/AMP_rep4.csv,left,authority.virtue,,,,,,,,,,,0,0,0,3,0,38,38,38,,,,50.41721931399661,,,,,,,,,AMP_prac,None,[],1,,left,0.7770867119979812,999,2019_Apr_13_0815,mf_amp_cond1,3.0.7,59.71800358534182,
troalde,&&&&&&&,images/symbols/symbol_72.png,condition_files/AMP_rep4.csv,None,nonword,,,,,,,,,,,0,0,0,3,0,39,39,39,,,,51.40085232799902,,,,,,,,,AMP_prac,None,[],1,,left,0.743722296996566,999,2019_Apr_13_0815,mf_amp_cond1,3.0.7,59.71800358534182,
treas,&&&&&,images/symbols/symbol_16.png,condition_files/AMP_rep4.csv,None,nonword,,,,,,,,,,,0,0,0,3,0,40,40,40,,,,52.35004217399546,,,,,,,,,AMP_prac,None,[],1,,left,0.7098963660027948,999,2019_Apr_13_0815,mf_amp_cond1,3.0.7,59.71800358534182,
stealde,&&&&&&&,images/symbols/symbol_19.png,condition_files/AMP_rep4.csv,None,nonword,,,,,,,,,,,0,0,0,3,0,41,41,41,,,,53.35078964599961,,,,,,,,,AMP_prac,None,[],1,,left,0.7608697559990105,999,2019_Apr_13_0815,mf_amp_cond1,3.0.7,59.71800358534182,
pleasant,&&&&&&&,images/symbols/symbol_56.png,condition_files/AMP_rep4.csv,right,control,,,,,,,,,,,0,0,0,3,0,42,42,42,,,,54.31723160299589,,,,,,,,,AMP_prac,None,[],1,,right,0.7264682749955682,999,2019_Apr_13_0815,mf_amp_cond1,3.0.7,59.71800358534182,
freazz,&&&&&&,images/symbols/symbol_65.png,condition_files/AMP_rep4.csv,None,nonword,,,,,,,,,,,0,0,0,3,0,43,43,43,,,,55.300467650995415,,,,,,,,,AMP_prac,None,[],1,,left,0.7492205519956769,999,2019_Apr_13_0815,mf_amp_cond1,3.0.7,59.71800358534182,
hand,&&&&,images/symbols/symbol_3.png,condition_files/AMP_rep4.csv,left,sanctity.virtue,,,,,,,,,,,0,0,0,3,0,44,44,44,,,,56.318457547000435,,,,,,,,,AMP_prac,None,[],1,,right,0.7789960029986105,999,2019_Apr_13_0815,mf_amp_cond1,3.0.7,59.71800358534182,
serial,&&&&&&,images/symbols/symbol_21.png,condition_files/AMP_rep4.csv,right,sanctity.vice,,,,,,,,,,,0,0,0,3,0,45,45,45,,,,57.28371607000008,,,,,,,,,AMP_prac,None,[],1,,left,0.7272634580003796,999,2019_Apr_13_0815,mf_amp_cond1,3.0.7,59.71800358534182,
celebrated,&&&&&&&&&&,images/symbols/symbol_31.png,condition_files/AMP_rep4.csv,left,authority.virtue,,,,,,,,,,,0,0,0,3,0,46,46,46,,,,58.317212082998594,,,,,,,,,AMP_prac,None,[],1,,left,0.7942437480014632,999,2019_Apr_13_0815,mf_amp_cond1,3.0.7,59.71800358534182,
peizz,&&&&&,images/symbols/symbol_70.png,condition_files/AMP_rep4.csv,None,nonword,,,,,,,,,,,0,0,0,3,0,47,47,47,,,,59.23332989699702,,,,,,,,,AMP_prac,None,[],1,,right,0.6687771209981292,999,2019_Apr_13_0815,mf_amp_cond1,3.0.7,59.71800358534182,
troops,&&&&&&,images/symbols/symbol_54.png,condition_files/AMP_rep4.csv,right,loyalty.vice,,,,,,,,,,,0,0,0,3,0,48,48,48,,,,60.21702179199929,,,,,,,,,AMP_prac,None,[],1,,left,0.7446764679989428,999,2019_Apr_13_0815,mf_amp_cond1,3.0.7,59.71800358534182,
phlaizz,&&&&&&&,images/symbols/symbol_36.png,condition_files/AMP_rep4.csv,None,nonword,,,,,,,,,,,0,0,0,3,0,49,49,49,,,,61.23332291100087,,,,,,,,,AMP_prac,None,[],1,,left,0.7800039130015648,999,2019_Apr_13_0815,mf_amp_cond1,3.0.7,59.71800358534182,
riot,&&&&,images/symbols/symbol_35.png,condition_files/AMP_rep4.csv,right,authority.vice,,,,,,,,,,,0,0,0,3,0,50,50,50,,,,62.184092215997225,,,,,,,,,AMP_prac,None,[],1,,right,0.7110243209972396,999,2019_Apr_13_0815,mf_amp_cond1,3.0.7,59.71800358534182,
prosecution,&&&&&&&&&&&,images/symbols/symbol_79.png,condition_files/AMP_rep4.csv,right,authority.vice,,,,,,,,,,,0,0,0,3,0,51,51,51,,,,63.20037836799747,,,,,,,,,AMP_prac,None,[],1,,left,0.7775176180002745,999,2019_Apr_13_0815,mf_amp_cond1,3.0.7,59.71800358534182,
embrace,&&&&&&&,images/symbols/symbol_14.png,condition_files/AMP_rep4.csv,left,authority.virtue,,,,,,,,,,,0,0,0,3,0,52,52,52,,,,64.21500709799875,,,,,,,,,AMP_prac,None,[],1,,left,0.7913378509983886,999,2019_Apr_13_0815,mf_amp_cond1,3.0.7,59.71800358534182,
faith,&&&&&,images/symbols/symbol_62.png,condition_files/AMP_rep4.csv,left,sanctity.virtue,,,,,,,,,,,0,0,0,3,0,53,53,53,,,,65.18321057799767,,,,,,,,,AMP_prac,None,[],1,,right,0.7253529259978677,999,2019_Apr_13_0815,mf_amp_cond1,3.0.7,59.71800358534182,
conspiracy,&&&&&&&&&&,images/symbols/symbol_20.png,condition_files/AMP_rep4.csv,right,sanctity.vice,,,,,,,,,,,0,0,0,3,0,54,54,54,,,,66.2171277449961,,,,,,,,,AMP_prac,None,[],1,,right,0.7941665960024693,999,2019_Apr_13_0815,mf_amp_cond1,3.0.7,59.71800358534182,
trust,&&&&&,images/symbols/symbol_32.png,condition_files/AMP_rep4.csv,left,authority.virtue,,,,,,,,,,,0,0,0,3,0,55,55,55,,,,67.1340155930011,,,,,,,,,AMP_prac,None,[],1,,left,0.6776175590057392,999,2019_Apr_13_0815,mf_amp_cond1,3.0.7,59.71800358534182,
benefit,&&&&&&&,images/symbols/symbol_63.png,condition_files/AMP_rep4.csv,left,fairness.virtue,,,,,,,,,,,0,0,0,3,0,56,56,56,,,,68.08271116999822,,,,,,,,,AMP_prac,None,[],1,,left,0.709740686994337,999,2019_Apr_13_0815,mf_amp_cond1,3.0.7,59.71800358534182,
friends,&&&&&&&,images/symbols/symbol_7.png,condition_files/AMP_rep4.csv,left,loyalty.virtue,,,,,,,,,,,0,0,0,3,0,57,57,57,,,,69.03312715699576,,,,,,,,,AMP_prac,None,[],1,,right,0.709732636998524,999,2019_Apr_13_0815,mf_amp_cond1,3.0.7,59.71800358534182,
shypse,&&&&&&,images/symbols/symbol_37.png,condition_files/AMP_rep4.csv,None,nonword,,,,,,,,,,,0,0,0,3,0,58,58,58,,,,70.03350134199718,,,,,,,,,AMP_prac,None,[],1,,right,0.759134110994637,999,2019_Apr_13_0815,mf_amp_cond1,3.0.7,59.71800358534182,
restore,&&&&&&&,images/symbols/symbol_49.png,condition_files/AMP_rep4.csv,left,care.virtue,,,,,,,,,,,0,0,0,3,0,59,59,59,,,,71.016749866998,,,,,,,,,AMP_prac,None,[],1,,left,0.7506777169983252,999,2019_Apr_13_0815,mf_amp_cond1,3.0.7,59.71800358534182,
intelligence,&&&&&&&&&&&&,images/symbols/symbol_51.png,condition_files/AMP_rep4.csv,left,loyalty.virtue,,,,,,,,,,,0,0,0,3,0,60,60,60,,,,72.03380645899597,,,,,,,,,AMP_prac,None,[],1,,left,0.7778031489942805,999,2019_Apr_13_0815,mf_amp_cond1,3.0.7,59.71800358534182,
sharing,&&&&&&&,images/symbols/symbol_23.png,condition_files/AMP_rep4.csv,left,loyalty.virtue,,,,,,,,,,,0,0,0,3,0,61,61,61,,,,72.98412018700037,,,,,,,,,AMP_prac,None,[],1,,right,0.7107138700012001,999,2019_Apr_13_0815,mf_amp_cond1,3.0.7,59.71800358534182,
voter,&&&&&,images/symbols/symbol_33.png,condition_files/AMP_rep4.csv,right,fairness.vice,,,,,,,,,,,0,0,0,3,0,62,62,62,,,,73.96667555000022,,,,,,,,,AMP_prac,None,[],1,,right,0.7433653420011979,999,2019_Apr_13_0815,mf_amp_cond1,3.0.7,59.71800358534182,
victims,&&&&&&&,images/symbols/symbol_22.png,condition_files/AMP_rep4.csv,right,care.vice,,,,,,,,,,,0,0,0,3,0,63,63,63,,,,74.9179494630007,,,,,,,,,AMP_prac,None,[],1,,left,0.718225276999874,999,2019_Apr_13_0815,mf_amp_cond1,3.0.7,59.71800358534182,
rebels,&&&&&&,images/symbols/symbol_44.png,condition_files/AMP_rep4.csv,right,authority.vice,,,,,,,,,,,0,0,0,3,0,64,64,64,,,,75.86600749599893,,,,,,,,,AMP_prac,None,[],1,,left,0.7100627399995574,999,2019_Apr_13_0815,mf_amp_cond1,3.0.7,59.71800358534182,
lies,&&&&,images/symbols/symbol_40.png,condition_files/AMP_rep4.csv,right,fairness.vice,,,,,,,,,,,0,0,0,3,0,65,65,65,,,,76.84956725099619,,,,,,,,,AMP_prac,None,[],1,,right,0.7518700399959926,999,2019_Apr_13_0815,mf_amp_cond1,3.0.7,59.71800358534182,
hate,&&&&,images/symbols/symbol_73.png,condition_files/AMP_rep4.csv,right,fairness.vice,,,,,,,,,,,0,0,0,3,0,66,66,66,,,,77.7829590179972,,,,,,,,,AMP_prac,None,[],1,,left,0.6927092659971095,999,2019_Apr_13_0815,mf_amp_cond1,3.0.7,59.71800358534182,
strong,&&&&&&,images/symbols/symbol_6.png,condition_files/AMP_rep4.csv,left,loyalty.virtue,,,,,,,,,,,0,0,0,3,0,67,67,67,,,,78.75002919099643,,,,,,,,,AMP_prac,None,[],1,,left,0.7318342720027431,999,2019_Apr_13_0815,mf_amp_cond1,3.0.7,59.71800358534182,
drug,&&&&,images/symbols/symbol_34.png,condition_files/AMP_rep4.csv,right,sanctity.vice,,,,,,,,,,,0,0,0,3,0,68,68,68,,,,79.71757323699421,,,,,,,,,AMP_prac,None,[],1,,right,0.7275478099982138,999,2019_Apr_13_0815,mf_amp_cond1,3.0.7,59.71800358534182,
safety,&&&&&&,images/symbols/symbol_78.png,condition_files/AMP_rep4.csv,left,care.virtue,,,,,,,,,,,0,0,0,3,0,69,69,69,,,,80.68366811399756,,,,,,,,,AMP_prac,None,[],1,,left,0.7273834070001612,999,2019_Apr_13_0815,mf_amp_cond1,3.0.7,59.71800358534182,
perfect,&&&&&&&,images/symbols/symbol_9.png,condition_files/AMP_rep4.csv,left,sanctity.virtue,,,,,,,,,,,0,0,0,3,0,70,70,70,,,,81.70038569100143,,,,,,,,,AMP_prac,None,[],1,,right,0.7775891099954606,999,2019_Apr_13_0815,mf_amp_cond1,3.0.7,59.71800358534182,
freedom,&&&&&&&,images/symbols/symbol_52.png,condition_files/AMP_rep4.csv,left,sanctity.virtue,,,,,,,,,,,0,0,0,3,0,71,71,71,,,,82.7336656740008,,,,,,,,,AMP_prac,None,[],1,,left,0.7932627260015579,999,2019_Apr_13_0815,mf_amp_cond1,3.0.7,59.71800358534182,
improve,&&&&&&&,images/symbols/symbol_41.png,condition_files/AMP_rep4.csv,left,care.virtue,,,,,,,,,,,0,0,0,3,0,72,72,72,,,,83.76687208799558,,,,,,,,,AMP_prac,None,[],1,,left,0.7938657630002126,999,2019_Apr_13_0815,mf_amp_cond1,3.0.7,59.71800358534182,
scandal,&&&&&&&,images/symbols/symbol_11.png,condition_files/AMP_rep4.csv,right,sanctity.vice,,,,,,,,,,,0,0,0,3,0,73,73,73,,,,84.71742522199929,,,,,,,,,AMP_prac,None,[],1,,right,0.7109513620016514,999,2019_Apr_13_0815,mf_amp_cond1,3.0.7,59.71800358534182,
penalty,&&&&&&&,images/symbols/symbol_5.png,condition_files/AMP_rep4.csv,right,authority.vice,,,,,,,,,,,0,0,0,3,0,74,74,74,,,,85.70094755599712,,,,,,,,,AMP_prac,None,[],1,,left,0.7448420650034677,999,2019_Apr_13_0815,mf_amp_cond1,3.0.7,59.71800358534182,
groups,&&&&&&,images/symbols/symbol_71.png,condition_files/AMP_rep4.csv,right,loyalty.vice,,,,,,,,,,,0,0,0,3,0,75,75,75,,,,86.65150509799423,,,,,,,,,AMP_prac,None,[],1,,right,0.7107974949976779,999,2019_Apr_13_0815,mf_amp_cond1,3.0.7,59.71800358534182,
clean,&&&&&,images/symbols/symbol_82.png,condition_files/AMP_rep4.csv,left,sanctity.virtue,,,,,,,,,,,0,0,0,3,0,76,76,76,,,,87.61736086699966,,,,,,,,,AMP_prac,None,[],1,,left,0.7261282769977697,999,2019_Apr_13_0815,mf_amp_cond1,3.0.7,59.71800358534182,
growth,&&&&&&,images/symbols/symbol_25.png,condition_files/AMP_rep4.csv,left,care.virtue,,,,,,,,,,,0,0,0,3,0,77,77,77,,,,88.61721687699901,,,,,,,,,AMP_prac,None,[],1,,left,0.7612327759998152,999,2019_Apr_13_0815,mf_amp_cond1,3.0.7,59.71800358534182,
men,&&&,images/symbols/symbol_61.png,condition_files/AMP_rep4.csv,right,loyalty.vice,,,,,,,,,,,0,0,0,3,0,78,78,78,,,,89.60078049099684,,,,,,,,,AMP_prac,None,[],1,,right,0.7437219369967352,999,2019_Apr_13_0815,mf_amp_cond1,3.0.7,59.71800358534182,
prison,&&&&&&,images/symbols/symbol_50.png,condition_files/AMP_rep4.csv,right,fairness.vice,,,,,,,,,,,0,0,0,3,0,79,79,79,,,,90.58219184399786,,,,,,,,,AMP_prac,None,[],1,,left,0.7418296700052451,999,2019_Apr_13_0815,mf_amp_cond1,3.0.7,59.71800358534182,
corruption,&&&&&&&&&&,images/symbols/symbol_48.png,condition_files/AMP_rep4.csv,right,sanctity.vice,,,,,,,,,,,0,0,0,3,0,80,80,80,,,,91.60066343200015,,,,,,,,,AMP_prac,None,[],1,,left,0.786755204993824,999,2019_Apr_13_0815,mf_amp_cond1,3.0.7,59.71800358534182,
integrity,&&&&&&&&&,images/symbols/symbol_45.png,condition_files/AMP_rep4.csv,left,fairness.virtue,,,,,,,,,,,0,0,0,3,0,81,81,81,,,,92.68384652999521,,,,,,,,,AMP_prac,None,[],1,,left,0.8440490569992107,999,2019_Apr_13_0815,mf_amp_cond1,3.0.7,59.71800358534182,
