words,nonwords,mask,corr_ans,category,AMP_prac_loop.thisRepN,AMP_prac_loop.thisTrialN,AMP_prac_loop.thisN,AMP_prac_loop.thisIndex,AMP_trials.thisRepN,AMP_trials.thisTrialN,AMP_trials.thisN,AMP_trials.thisIndex,LDT_prac_loop.thisRepN,LDT_prac_loop.thisTrialN,LDT_prac_loop.thisN,LDT_prac_loop.thisIndex,LDT_loop.thisRepN,LDT_loop.thisTrialN,LDT_loop.thisN,LDT_loop.thisIndex,tweet_loop.thisRepN,tweet_loop.thisTrialN,tweet_loop.thisN,tweet_loop.thisIndex,tweets,topic,begin_key.keys,begin_key.rt,key_resp_AMP_instr1.keys,key_resp_AMP_instr1.rt,resp_AMP_ready1.keys,resp_AMP_ready1.rt,resp_AMP_prac.keys,resp_AMP_prac.rt,task,keypress,RT,resp_AMP_ready.keys,resp_AMP_ready.rt,resp_AMP.keys,resp_AMP.corr,resp_AMP.rt,corr,AMP_nonword_rating.response,AMP_nonword_rating.rt,AMP_word_rating.response,AMP_word_rating.rt,AMP_random_rating.response,AMP_random_rating.rt,key_resp_LDT_instr.keys,key_resp_LDT_instr.rt,resp_LDT_prac.keys,resp_LDT_prac.rt,resp_LDT_ready.keys,resp_LDT_ready.rt,resp_LDT.keys,resp_LDT.corr,resp_LDT.rt,LDT_rating.response,LDT_rating.rt,key_resp_LDT_instr_2.keys,key_resp_LDT_instr_2.rt,participant,date,expName,psychopyVersion,frameRate,
,,,,,,,,,,,,,,,,,,,,,,,,,,,right,968.146881749155,,,,,,,,,,,,,,,,,,,,,,,,,,,,,,,,,,,1001,2019_Mar_01_1450,mf_amp_cond1,3.0.4,59.98157076993934,
,,,,,,,,,,,,,,,,,,,,,,,,,,,,,right,2.9509621236938983,,,,,,,,,,,,,,,,,,,,,,,,,,,,,,,,,1001,2019_Mar_01_1450,mf_amp_cond1,3.0.4,59.98157076993934,
,,,,,,,,,,,,,,,,,,,,,,,,,,,,,,,right,1.2672144112875685,,,,,,,,,,,,,,,,,,,,,,,,,,,,,,,1001,2019_Mar_01_1450,mf_amp_cond1,3.0.4,59.98157076993934,
car,cemtuper,&&&&&&&&,,,0,0,0,0,,,,,,,,,,,,,,,,,,,,,,,,,left,3.8344883479876444,AMP_prac,left,3.8344883479876444,,,,,,,,,,,,,,,,,,,,,,,,,,1001,2019_Mar_01_1450,mf_amp_cond1,3.0.4,59.98157076993934,
scarf,bisebell,&&&&&&&&,,,0,1,1,3,,,,,,,,,,,,,,,,,,,,,,,,,left,2.4508296670392156,AMP_prac,left,2.4508296670392156,,,,,,,,,,,,,,,,,,,,,,,,,,1001,2019_Mar_01_1450,mf_amp_cond1,3.0.4,59.98157076993934,
banana,kacket,&&&&&&,,,0,2,2,1,,,,,,,,,,,,,,,,,,,,,,,,,right,1.8173417686484754,AMP_prac,right,1.8173417686484754,,,,,,,,,,,,,,,,,,,,,,,,,,1001,2019_Mar_01_1450,mf_amp_cond1,3.0.4,59.98157076993934,
keyboard,senk,&&&&,,,0,3,3,2,,,,,,,,,,,,,,,,,,,,,,,,,right,1.1338416510261595,AMP_prac,right,1.1338416510261595,,,,,,,,,,,,,,,,,,,,,,,,,,1001,2019_Mar_01_1450,mf_amp_cond1,3.0.4,59.98157076993934,
,,,,,,,,,,,,,,,,,,,,,,,,,,,,,,,,,,,,,,right,0.2335886680521071,,,,,,,,,,,,,,,,,,,,,,,,1001,2019_Mar_01_1450,mf_amp_cond1,3.0.4,59.98157076993934,
ability,quarterbocks,&&&&&&&&&&&&,left,authority.virtue,,,,,0,0,0,0,,,,,,,,,,,,,,,,,,,,,,,AMP,right,0.517022461281158,,,right,0,0.517022461281158,0,,,,,,,,,,,,,,,,,,,,1001,2019_Mar_01_1450,mf_amp_cond1,3.0.4,59.98157076993934,
neputized,precificity,&&&&&&&&&&&,None,nonword,,,,,0,1,1,1,,,,,,,,,,,,,,,,,,,,,,,AMP,left,1.2839148710481822,,,left,0,1.2839148710481822,0,,,,,,,,,,,,,,,,,,,,1001,2019_Mar_01_1450,mf_amp_cond1,3.0.4,59.98157076993934,
pleasant,proached,&&&&&&&&,None,control,,,,,0,2,2,2,,,,,,,,,,,,,,,,,,,,,,,AMP,right,1.600616805953905,,,right,0,1.600616805953905,0,,,,,,,,,,,,,,,,,,,,1001,2019_Mar_01_1450,mf_amp_cond1,3.0.4,59.98157076993934,
harassment,frojecting,&&&&&&&&&&,right,sanctity.vice,,,,,0,3,3,3,,,,,,,,,,,,,,,,,,,,,,,AMP,left,0.5003556769806892,,,left,0,0.5003556769806892,0,,,,,,,,,,,,,,,,,,,,1001,2019_Mar_01_1450,mf_amp_cond1,3.0.4,59.98157076993934,
serial,faspberry,&&&&&&&&&,right,sanctity.vice,,,,,0,4,4,4,,,,,,,,,,,,,,,,,,,,,,,AMP,right,1.2672323716105893,,,right,1,1.2672323716105893,1,,,,,,,,,,,,,,,,,,,,1001,2019_Mar_01_1450,mf_amp_cond1,3.0.4,59.98157076993934,
integrity,ittutable,&&&&&&&&&,left,fairness.virtue,,,,,0,5,5,5,,,,,,,,,,,,,,,,,,,,,,,AMP,right,3.534412145265378,,,right,0,3.534412145265378,0,,,,,,,,,,,,,,,,,,,,1001,2019_Mar_01_1450,mf_amp_cond1,3.0.4,59.98157076993934,
gaultless,papert,&&&&&&,None,nonword,,,,,0,6,6,6,,,,,,,,,,,,,,,,,,,,,,,AMP,right,1.18385675677564,,,right,0,1.18385675677564,0,,,,,,,,,,,,,,,,,,,,1001,2019_Mar_01_1450,mf_amp_cond1,3.0.4,59.98157076993934,
strong,sliptery,&&&&&&&&,left,loyalty.virtue,,,,,0,7,7,7,,,,,,,,,,,,,,,,,,,,,,,AMP,right,1.6506357605103403,,,right,0,1.6506357605103403,0,,,,,,,,,,,,,,,,,,,,1001,2019_Mar_01_1450,mf_amp_cond1,3.0.4,59.98157076993934,
chared,slending,&&&&&&&&,None,nonword,,,,,0,8,8,8,,,,,,,,,,,,,,,,,,,,,,,AMP,left,1.0504823928931728,,,left,0,1.0504823928931728,0,,,,,,,,,,,,,,,,,,,,1001,2019_Mar_01_1450,mf_amp_cond1,3.0.4,59.98157076993934,
victim,discovars,&&&&&&&&&,right,care.vice,,,,,0,9,9,9,,,,,,,,,,,,,,,,,,,,,,,AMP,right,1.8006788329221308,,,right,1,1.8006788329221308,1,,,,,,,,,,,,,,,,,,,,1001,2019_Mar_01_1450,mf_amp_cond1,3.0.4,59.98157076993934,
died,prones,&&&&&&,right,care.vice,,,,,0,10,10,10,,,,,,,,,,,,,,,,,,,,,,,AMP,left,3.3675762460334226,,,left,0,3.3675762460334226,0,,,,,,,,,,,,,,,,,,,,1001,2019_Mar_01_1450,mf_amp_cond1,3.0.4,59.98157076993934,
support,viscs,&&&&&,left,loyalty.virtue,,,,,0,11,11,11,,,,,,,,,,,,,,,,,,,,,,,AMP,right,0.6503990701166913,,,right,0,0.6503990701166913,0,,,,,,,,,,,,,,,,,,,,1001,2019_Mar_01_1450,mf_amp_cond1,3.0.4,59.98157076993934,
unpleasant,leact,&&&&&,None,control,,,,,0,12,12,12,,,,,,,,,,,,,,,,,,,,,,,AMP,right,1.4505865622777492,,,right,0,1.4505865622777492,0,,,,,,,,,,,,,,,,,,,,1001,2019_Mar_01_1450,mf_amp_cond1,3.0.4,59.98157076993934,
celebrated,vurtain,&&&&&&&,left,authority.virtue,,,,,0,13,13,13,,,,,,,,,,,,,,,,,,,,,,,AMP,right,1.0504637911217287,,,right,0,1.0504637911217287,0,,,,,,,,,,,,,,,,,,,,1001,2019_Mar_01_1450,mf_amp_cond1,3.0.4,59.98157076993934,
benefit,unreflectuve,&&&&&&&&&&&&,left,fairness.virtue,,,,,0,14,14,14,,,,,,,,,,,,,,,,,,,,,,,AMP,right,2.0673986963229254,,,right,0,2.0673986963229254,0,,,,,,,,,,,,,,,,,,,,1001,2019_Mar_01_1450,mf_amp_cond1,3.0.4,59.98157076993934,
peace,gusinesslike,&&&&&&&&&&&&,left,care.virtue,,,,,0,15,15,15,,,,,,,,,,,,,,,,,,,,,,,AMP,right,0.15027174493297935,,,right,0,0.15027174493297935,0,,,,,,,,,,,,,,,,,,,,1001,2019_Mar_01_1450,mf_amp_cond1,3.0.4,59.98157076993934,
perfect,synchronazers,&&&&&&&&&&&&&,left,sanctity.virtue,,,,,0,16,16,16,,,,,,,,,,,,,,,,,,,,,,,AMP,left,1.2005357284797356,,,left,1,1.2005357284797356,1,,,,,,,,,,,,,,,,,,,,1001,2019_Mar_01_1450,mf_amp_cond1,3.0.4,59.98157076993934,
energy,fangsters,&&&&&&&&&,left,sanctity.virtue,,,,,0,17,17,17,,,,,,,,,,,,,,,,,,,,,,,AMP,right,0.3503279989818111,,,right,0,0.3503279989818111,0,,,,,,,,,,,,,,,,,,,,1001,2019_Mar_01_1450,mf_amp_cond1,3.0.4,59.98157076993934,
crime,totalestic,&&&&&&&&&&,right,fairness.vice,,,,,0,18,18,18,,,,,,,,,,,,,,,,,,,,,,,AMP,left,0.21697287808638066,,,left,0,0.21697287808638066,0,,,,,,,,,,,,,,,,,,,,1001,2019_Mar_01_1450,mf_amp_cond1,3.0.4,59.98157076993934,
gournful,emports,&&&&&&&,None,nonword,,,,,0,19,19,19,,,,,,,,,,,,,,,,,,,,,,,AMP,right,1.2505489100003615,,,right,0,1.2505489100003615,0,,,,,,,,,,,,,,,,,,,,1001,2019_Mar_01_1450,mf_amp_cond1,3.0.4,59.98157076993934,
party,mecan,&&&&&,left,loyalty.virtue,,,,,0,20,20,20,,,,,,,,,,,,,,,,,,,,,,,AMP,right,0.4670009409310296,,,right,0,0.4670009409310296,0,,,,,,,,,,,,,,,,,,,,1001,2019_Mar_01_1450,mf_amp_cond1,3.0.4,59.98157076993934,
war,lempestuous,&&&&&&&&&&&,right,sanctity.vice,,,,,0,21,21,21,,,,,,,,,,,,,,,,,,,,,,,AMP,left,0.26682281389366835,,,left,0,0.26682281389366835,0,,,,,,,,,,,,,,,,,,,,1001,2019_Mar_01_1450,mf_amp_cond1,3.0.4,59.98157076993934,
terrorists,gikely,&&&&&&,right,fairness.vice,,,,,0,22,22,22,,,,,,,,,,,,,,,,,,,,,,,AMP,left,0.38366701966151595,,,left,0,0.38366701966151595,0,,,,,,,,,,,,,,,,,,,,1001,2019_Mar_01_1450,mf_amp_cond1,3.0.4,59.98157076993934,
betrayal,ugeasily,&&&&&&&&,right,loyalty.vice,,,,,0,23,23,23,,,,,,,,,,,,,,,,,,,,,,,AMP,left,1.1671691258670762,,,left,0,1.1671691258670762,0,,,,,,,,,,,,,,,,,,,,1001,2019_Mar_01_1450,mf_amp_cond1,3.0.4,59.98157076993934,
victims,photocalkodes,&&&&&&&&&&&&&,right,care.vice,,,,,0,24,24,24,,,,,,,,,,,,,,,,,,,,,,,AMP,right,0.4669999787583947,,,right,1,0.4669999787583947,1,,,,,,,,,,,,,,,,,,,,1001,2019_Mar_01_1450,mf_amp_cond1,3.0.4,59.98157076993934,
groups,ablow,&&&&&,right,loyalty.vice,,,,,0,25,25,25,,,,,,,,,,,,,,,,,,,,,,,AMP,right,0.45034762693103403,,,right,1,0.45034762693103403,1,,,,,,,,,,,,,,,,,,,,1001,2019_Mar_01_1450,mf_amp_cond1,3.0.4,59.98157076993934,
terrorist,lursuer,&&&&&&&,right,loyalty.vice,,,,,0,26,26,26,,,,,,,,,,,,,,,,,,,,,,,AMP,right,0.5503752728691325,,,right,1,0.5503752728691325,1,,,,,,,,,,,,,,,,,,,,1001,2019_Mar_01_1450,mf_amp_cond1,3.0.4,59.98157076993934,
godlaness,stindig,&&&&&&&,None,nonword,,,,,0,27,27,27,,,,,,,,,,,,,,,,,,,,,,,AMP,right,0.5170240647858009,,,right,0,0.5170240647858009,0,,,,,,,,,,,,,,,,,,,,1001,2019_Mar_01_1450,mf_amp_cond1,3.0.4,59.98157076993934,
ning,pafer,&&&&&,None,nonword,,,,,0,28,28,28,,,,,,,,,,,,,,,,,,,,,,,AMP,right,0.7003965365001932,,,right,0,0.7003965365001932,0,,,,,,,,,,,,,,,,,,,,1001,2019_Mar_01_1450,mf_amp_cond1,3.0.4,59.98157076993934,
safety,idexpressible,&&&&&&&&&&&&&,left,care.virtue,,,,,0,29,29,29,,,,,,,,,,,,,,,,,,,,,,,AMP,right,0.8004373318981379,,,right,0,0.8004373318981379,0,,,,,,,,,,,,,,,,,,,,1001,2019_Mar_01_1450,mf_amp_cond1,3.0.4,59.98157076993934,
refused,crilfully,&&&&&&&&&,right,authority.vice,,,,,0,30,30,30,,,,,,,,,,,,,,,,,,,,,,,AMP,left,0.8337632032344118,,,left,0,0.8337632032344118,0,,,,,,,,,,,,,,,,,,,,1001,2019_Mar_01_1450,mf_amp_cond1,3.0.4,59.98157076993934,
opportunity,fontacts,&&&&&&&&,left,fairness.virtue,,,,,0,31,31,31,,,,,,,,,,,,,,,,,,,,,,,AMP,right,0.46701344894245267,,,right,0,0.46701344894245267,0,,,,,,,,,,,,,,,,,,,,1001,2019_Mar_01_1450,mf_amp_cond1,3.0.4,59.98157076993934,
abuse,wonderfujnoss,&&&&&&&&&&&&&,right,sanctity.vice,,,,,0,32,32,32,,,,,,,,,,,,,,,,,,,,,,,AMP,left,0.6837352045113221,,,left,0,0.6837352045113221,0,,,,,,,,,,,,,,,,,,,,1001,2019_Mar_01_1450,mf_amp_cond1,3.0.4,59.98157076993934,
great,coom,&&&&,left,loyalty.virtue,,,,,0,33,33,33,,,,,,,,,,,,,,,,,,,,,,,AMP,right,0.383653549477458,,,right,0,0.383653549477458,0,,,,,,,,,,,,,,,,,,,,1001,2019_Mar_01_1450,mf_amp_cond1,3.0.4,59.98157076993934,
agreement,tenuflect,&&&&&&&&&,left,fairness.virtue,,,,,0,34,34,34,,,,,,,,,,,,,,,,,,,,,,,AMP,left,0.8671025446383283,,,left,1,0.8671025446383283,1,,,,,,,,,,,,,,,,,,,,1001,2019_Mar_01_1450,mf_amp_cond1,3.0.4,59.98157076993934,
men,nomparisons,&&&&&&&&&&&,right,loyalty.vice,,,,,0,35,35,35,,,,,,,,,,,,,,,,,,,,,,,AMP,right,0.3003106480464339,,,right,1,0.3003106480464339,1,,,,,,,,,,,,,,,,,,,,1001,2019_Mar_01_1450,mf_amp_cond1,3.0.4,59.98157076993934,
rebels,egpeditious,&&&&&&&&&&&,right,authority.vice,,,,,0,36,36,36,,,,,,,,,,,,,,,,,,,,,,,AMP,left,0.7002711355453357,,,left,0,0.7002711355453357,0,,,,,,,,,,,,,,,,,,,,1001,2019_Mar_01_1450,mf_amp_cond1,3.0.4,59.98157076993934,
penalty,fonderland,&&&&&&&&&&,right,authority.vice,,,,,0,37,37,37,,,,,,,,,,,,,,,,,,,,,,,AMP,right,0.3003080823691562,,,right,1,0.3003080823691562,1,,,,,,,,,,,,,,,,,,,,1001,2019_Mar_01_1450,mf_amp_cond1,3.0.4,59.98157076993934,
hate,vicissifude,&&&&&&&&&&&,right,fairness.vice,,,,,0,38,38,38,,,,,,,,,,,,,,,,,,,,,,,AMP,right,1.4672517429571599,,,right,1,1.4672517429571599,1,,,,,,,,,,,,,,,,,,,,1001,2019_Mar_01_1450,mf_amp_cond1,3.0.4,59.98157076993934,
sexual,fegard,&&&&&&,right,sanctity.vice,,,,,0,39,39,39,,,,,,,,,,,,,,,,,,,,,,,AMP,left,0.41699545667506754,,,left,0,0.41699545667506754,0,,,,,,,,,,,,,,,,,,,,1001,2019_Mar_01_1450,mf_amp_cond1,3.0.4,59.98157076993934,
conspiracy,simplustic,&&&&&&&&&&,right,sanctity.vice,,,,,0,40,40,40,,,,,,,,,,,,,,,,,,,,,,,AMP,right,0.8671378237195313,,,right,1,0.8671378237195313,1,,,,,,,,,,,,,,,,,,,,1001,2019_Mar_01_1450,mf_amp_cond1,3.0.4,59.98157076993934,
disregord,shoirmaster,&&&&&&&&&&&,None,nonword,,,,,0,41,41,41,,,,,,,,,,,,,,,,,,,,,,,AMP,right,0.4336850119289011,,,right,0,0.4336850119289011,0,,,,,,,,,,,,,,,,,,,,1001,2019_Mar_01_1450,mf_amp_cond1,3.0.4,59.98157076993934,
troops,smapper,&&&&&&&,right,loyalty.vice,,,,,0,42,42,42,,,,,,,,,,,,,,,,,,,,,,,AMP,left,0.617054597241804,,,left,0,0.617054597241804,0,,,,,,,,,,,,,,,,,,,,1001,2019_Mar_01_1450,mf_amp_cond1,3.0.4,59.98157076993934,
gun,framatic,&&&&&&&&,right,authority.vice,,,,,0,43,43,43,,,,,,,,,,,,,,,,,,,,,,,AMP,right,0.3669832373270765,,,right,1,0.3669832373270765,1,,,,,,,,,,,,,,,,,,,,1001,2019_Mar_01_1450,mf_amp_cond1,3.0.4,59.98157076993934,
attacks,taxpayung,&&&&&&&&&,right,care.vice,,,,,0,44,44,44,,,,,,,,,,,,,,,,,,,,,,,AMP,right,0.5170291962567717,,,right,1,0.5170291962567717,1,,,,,,,,,,,,,,,,,,,,1001,2019_Mar_01_1450,mf_amp_cond1,3.0.4,59.98157076993934,
increase,wump,&&&&,left,care.virtue,,,,,0,45,45,45,,,,,,,,,,,,,,,,,,,,,,,AMP,left,0.7670575799420476,,,left,1,0.7670575799420476,1,,,,,,,,,,,,,,,,,,,,1001,2019_Mar_01_1450,mf_amp_cond1,3.0.4,59.98157076993934,
critics,uller,&&&&&,right,loyalty.vice,,,,,0,46,46,46,,,,,,,,,,,,,,,,,,,,,,,AMP,left,0.383676320547238,,,left,0,0.383676320547238,0,,,,,,,,,,,,,,,,,,,,1001,2019_Mar_01_1450,mf_amp_cond1,3.0.4,59.98157076993934,
commitment,iptervention,&&&&&&&&&&&&,left,sanctity.virtue,,,,,0,47,47,47,,,,,,,,,,,,,,,,,,,,,,,AMP,right,0.600499422987923,,,right,0,0.600499422987923,0,,,,,,,,,,,,,,,,,,,,1001,2019_Mar_01_1450,mf_amp_cond1,3.0.4,59.98157076993934,
values,hefurbished,&&&&&&&&&&&,left,sanctity.virtue,,,,,0,48,48,48,,,,,,,,,,,,,,,,,,,,,,,AMP,right,0.5170263098552823,,,right,0,0.5170263098552823,0,,,,,,,,,,,,,,,,,,,,1001,2019_Mar_01_1450,mf_amp_cond1,3.0.4,59.98157076993934,
lies,halaise,&&&&&&&,right,fairness.vice,,,,,0,49,49,49,,,,,,,,,,,,,,,,,,,,,,,AMP,left,0.9004800516413525,,,left,0,0.9004800516413525,0,,,,,,,,,,,,,,,,,,,,1001,2019_Mar_01_1450,mf_amp_cond1,3.0.4,59.98157076993934,
friends,feleological,&&&&&&&&&&&&,left,loyalty.virtue,,,,,0,50,50,50,,,,,,,,,,,,,,,,,,,,,,,AMP,right,0.4169960981234908,,,right,0,0.4169960981234908,0,,,,,,,,,,,,,,,,,,,,1001,2019_Mar_01_1450,mf_amp_cond1,3.0.4,59.98157076993934,
restore,antral,&&&&&&,left,care.virtue,,,,,0,51,51,51,,,,,,,,,,,,,,,,,,,,,,,AMP,left,0.4836850439896807,,,left,1,0.4836850439896807,1,,,,,,,,,,,,,,,,,,,,1001,2019_Mar_01_1450,mf_amp_cond1,3.0.4,59.98157076993934,
safe,nackers,&&&&&&&,left,care.virtue,,,,,0,52,52,52,,,,,,,,,,,,,,,,,,,,,,,AMP,left,1.1838586811209098,,,left,1,1.1838586811209098,1,,,,,,,,,,,,,,,,,,,,1001,2019_Mar_01_1450,mf_amp_cond1,3.0.4,59.98157076993934,
respect,brudent,&&&&&&&,left,sanctity.virtue,,,,,0,53,53,53,,,,,,,,,,,,,,,,,,,,,,,AMP,right,0.08358632680028677,,,right,0,0.08358632680028677,0,,,,,,,,,,,,,,,,,,,,1001,2019_Mar_01_1450,mf_amp_cond1,3.0.4,59.98157076993934,
protesters,nomaric,&&&&&&&,right,authority.vice,,,,,0,54,54,54,,,,,,,,,,,,,,,,,,,,,,,AMP,right,0.46700831747148186,,,right,1,0.46700831747148186,1,,,,,,,,,,,,,,,,,,,,1001,2019_Mar_01_1450,mf_amp_cond1,3.0.4,59.98157076993934,
hope,Loorish,&&&&&&&,left,loyalty.virtue,,,,,0,55,55,55,,,,,,,,,,,,,,,,,,,,,,,AMP,right,0.08359626913443208,,,right,0,0.08359626913443208,0,,,,,,,,,,,,,,,,,,,,1001,2019_Mar_01_1450,mf_amp_cond1,3.0.4,59.98157076993934,
promises,infet,&&&&&,left,fairness.virtue,,,,,0,56,56,56,,,,,,,,,,,,,,,,,,,,,,,AMP,right,0.5170166882453486,,,right,0,0.5170166882453486,0,,,,,,,,,,,,,,,,,,,,1001,2019_Mar_01_1450,mf_amp_cond1,3.0.4,59.98157076993934,
win,reviked,&&&&&&&,left,fairness.virtue,,,,,0,57,57,57,,,,,,,,,,,,,,,,,,,,,,,AMP,right,0.10026722273323685,,,right,0,0.10026722273323685,0,,,,,,,,,,,,,,,,,,,,1001,2019_Mar_01_1450,mf_amp_cond1,3.0.4,59.98157076993934,
clean,laming,&&&&&&,left,sanctity.virtue,,,,,0,58,58,58,,,,,,,,,,,,,,,,,,,,,,,AMP,right,0.13359052839223295,,,right,0,0.13359052839223295,0,,,,,,,,,,,,,,,,,,,,1001,2019_Mar_01_1450,mf_amp_cond1,3.0.4,59.98157076993934,
powerful,aubos,&&&&&,left,authority.virtue,,,,,0,59,59,59,,,,,,,,,,,,,,,,,,,,,,,AMP,right,0.2669581570662558,,,right,0,0.2669581570662558,0,,,,,,,,,,,,,,,,,,,,1001,2019_Mar_01_1450,mf_amp_cond1,3.0.4,59.98157076993934,
scandal,atson,&&&&&,right,sanctity.vice,,,,,0,60,60,60,,,,,,,,,,,,,,,,,,,,,,,AMP,right,0.7504132458707318,,,right,1,0.7504132458707318,1,,,,,,,,,,,,,,,,,,,,1001,2019_Mar_01_1450,mf_amp_cond1,3.0.4,59.98157076993934,
erks,tislay,&&&&&&,None,nonword,,,,,0,61,61,61,,,,,,,,,,,,,,,,,,,,,,,AMP,left,0.166927624726668,,,left,0,0.166927624726668,0,,,,,,,,,,,,,,,,,,,,1001,2019_Mar_01_1450,mf_amp_cond1,3.0.4,59.98157076993934,
riot,troubla,&&&&&&&,right,authority.vice,,,,,0,62,62,62,,,,,,,,,,,,,,,,,,,,,,,AMP,right,0.1335911697242409,,,right,1,0.1335911697242409,1,,,,,,,,,,,,,,,,,,,,1001,2019_Mar_01_1450,mf_amp_cond1,3.0.4,59.98157076993934,
interests,Daptist,&&&&&&&,left,fairness.virtue,,,,,0,63,63,63,,,,,,,,,,,,,,,,,,,,,,,AMP,right,0.6003743427572772,,,right,0,0.6003743427572772,0,,,,,,,,,,,,,,,,,,,,1001,2019_Mar_01_1450,mf_amp_cond1,3.0.4,59.98157076993934,
shot,squets,&&&&&&,right,care.vice,,,,,0,64,64,64,,,,,,,,,,,,,,,,,,,,,,,AMP,left,0.600392944412306,,,left,0,0.600392944412306,0,,,,,,,,,,,,,,,,,,,,1001,2019_Mar_01_1450,mf_amp_cond1,3.0.4,59.98157076993934,
charges,gillipede,&&&&&&&&&,right,fairness.vice,,,,,0,65,65,65,,,,,,,,,,,,,,,,,,,,,,,AMP,left,1.5839551532408223,,,left,0,1.5839551532408223,0,,,,,,,,,,,,,,,,,,,,1001,2019_Mar_01_1450,mf_amp_cond1,3.0.4,59.98157076993934,
strength,Cunday,&&&&&&,left,sanctity.virtue,,,,,0,66,66,66,,,,,,,,,,,,,,,,,,,,,,,AMP,right,0.10024733818136156,,,right,0,0.10024733818136156,0,,,,,,,,,,,,,,,,,,,,1001,2019_Mar_01_1450,mf_amp_cond1,3.0.4,59.98157076993934,
forced,abointment,&&&&&&&&&&,right,fairness.vice,,,,,0,67,67,67,,,,,,,,,,,,,,,,,,,,,,,AMP,right,0.3003061580238864,,,right,1,0.3003061580238864,1,,,,,,,,,,,,,,,,,,,,1001,2019_Mar_01_1450,mf_amp_cond1,3.0.4,59.98157076993934,
peaceful,drumbled,&&&&&&&&,left,authority.virtue,,,,,0,68,68,68,,,,,,,,,,,,,,,,,,,,,,,AMP,right,0.40032706886995584,,,right,0,0.40032706886995584,0,,,,,,,,,,,,,,,,,,,,1001,2019_Mar_01_1450,mf_amp_cond1,3.0.4,59.98157076993934,
noped,neutralust,&&&&&&&&&&,None,nonword,,,,,0,69,69,69,,,,,,,,,,,,,,,,,,,,,,,AMP,right,0.31696428288705647,,,right,0,0.31696428288705647,0,,,,,,,,,,,,,,,,,,,,1001,2019_Mar_01_1450,mf_amp_cond1,3.0.4,59.98157076993934,
officers,sickyay,&&&&&&&,right,authority.vice,,,,,0,70,70,70,,,,,,,,,,,,,,,,,,,,,,,AMP,left,0.5170109153259546,,,left,0,0.5170109153259546,0,,,,,,,,,,,,,,,,,,,,1001,2019_Mar_01_1450,mf_amp_cond1,3.0.4,59.98157076993934,
torture,neneficence,&&&&&&&&&&&,right,care.vice,,,,,0,71,71,71,,,,,,,,,,,,,,,,,,,,,,,AMP,right,0.03357731469441205,,,right,1,0.03357731469441205,1,,,,,,,,,,,,,,,,,,,,1001,2019_Mar_01_1450,mf_amp_cond1,3.0.4,59.98157076993934,
loyalty,chadows,&&&&&&&,left,loyalty.virtue,,,,,0,72,72,72,,,,,,,,,,,,,,,,,,,,,,,AMP,right,0.3169835259905085,,,right,0,0.3169835259905085,0,,,,,,,,,,,,,,,,,,,,1001,2019_Mar_01_1450,mf_amp_cond1,3.0.4,59.98157076993934,
prison,festate,&&&&&&&,right,fairness.vice,,,,,0,73,73,73,,,,,,,,,,,,,,,,,,,,,,,AMP,left,0.16692954895552248,,,left,0,0.16692954895552248,0,,,,,,,,,,,,,,,,,,,,1001,2019_Mar_01_1450,mf_amp_cond1,3.0.4,59.98157076993934,
health,Oregoniuns,&&&&&&&&&&,left,care.virtue,,,,,0,74,74,74,,,,,,,,,,,,,,,,,,,,,,,AMP,right,0.3670063291210681,,,right,0,0.3670063291210681,0,,,,,,,,,,,,,,,,,,,,1001,2019_Mar_01_1450,mf_amp_cond1,3.0.4,59.98157076993934,
care,crinking,&&&&&&&&,left,care.virtue,,,,,0,75,75,75,,,,,,,,,,,,,,,,,,,,,,,AMP,right,0.2169513899134472,,,right,0,0.2169513899134472,0,,,,,,,,,,,,,,,,,,,,1001,2019_Mar_01_1450,mf_amp_cond1,3.0.4,59.98157076993934,
embrace,pistraught,&&&&&&&&&&,left,authority.virtue,,,,,0,76,76,76,,,,,,,,,,,,,,,,,,,,,,,AMP,right,0.13362484518438578,,,right,0,0.13362484518438578,0,,,,,,,,,,,,,,,,,,,,1001,2019_Mar_01_1450,mf_amp_cond1,3.0.4,59.98157076993934,
army,hasks,&&&&&,right,loyalty.vice,,,,,0,77,77,77,,,,,,,,,,,,,,,,,,,,,,,AMP,left,0.3503289610380307,,,left,0,0.3503289610380307,0,,,,,,,,,,,,,,,,,,,,1001,2019_Mar_01_1450,mf_amp_cond1,3.0.4,59.98157076993934,
useful,sgrawl,&&&&&&,left,authority.virtue,,,,,0,78,78,78,,,,,,,,,,,,,,,,,,,,,,,AMP,right,0.5336716059828177,,,right,0,0.5336716059828177,0,,,,,,,,,,,,,,,,,,,,1001,2019_Mar_01_1450,mf_amp_cond1,3.0.4,59.98157076993934,
menizen,lorthwhile,&&&&&&&&&&,None,nonword,,,,,0,79,79,79,,,,,,,,,,,,,,,,,,,,,,,AMP,left,0.1003544582054019,,,left,0,0.1003544582054019,0,,,,,,,,,,,,,,,,,,,,1001,2019_Mar_01_1450,mf_amp_cond1,3.0.4,59.98157076993934,
honored,pharing,&&&&&&&,left,authority.virtue,,,,,0,80,80,80,,,,,,,,,,,,,,,,,,,,,,,AMP,right,0.15026404766831547,,,right,0,0.15026404766831547,0,,,,,,,,,,,,,,,,,,,,1001,2019_Mar_01_1450,mf_amp_cond1,3.0.4,59.98157076993934,
injured,gedious,&&&&&&&,right,care.vice,,,,,0,81,81,81,,,,,,,,,,,,,,,,,,,,,,,AMP,right,0.5837178215151653,,,right,1,0.5837178215151653,1,,,,,,,,,,,,,,,,,,,,1001,2019_Mar_01_1450,mf_amp_cond1,3.0.4,59.98157076993934,
victims,lorthwhile,&&&&&&&&&&,right,care.vice,,,,,0,82,82,82,,,,,,,,,,,,,,,,,,,,,,,AMP,left,0.31700693850871176,,,left,0,0.31700693850871176,0,,,,,,,,,,,,,,,,,,,,1001,2019_Mar_01_1450,mf_amp_cond1,3.0.4,59.98157076993934,
pleasant,stindig,&&&&&&&,None,control,,,,,0,83,83,83,,,,,,,,,,,,,,,,,,,,,,,AMP,left,0.5003521490143612,,,left,0,0.5003521490143612,0,,,,,,,,,,,,,,,,,,,,1001,2019_Mar_01_1450,mf_amp_cond1,3.0.4,59.98157076993934,
attacks,synchronazers,&&&&&&&&&&&&&,right,care.vice,,,,,0,84,84,84,,,,,,,,,,,,,,,,,,,,,,,AMP,left,0.5670760532375425,,,left,0,0.5670760532375425,0,,,,,,,,,,,,,,,,,,,,1001,2019_Mar_01_1450,mf_amp_cond1,3.0.4,59.98157076993934,
chared,nackers,&&&&&&&,None,nonword,,,,,0,85,85,85,,,,,,,,,,,,,,,,,,,,,,,AMP,right,0.7003991022938862,,,right,0,0.7003991022938862,0,,,,,,,,,,,,,,,,,,,,1001,2019_Mar_01_1450,mf_amp_cond1,3.0.4,59.98157076993934,
terrorists,feleological,&&&&&&&&&&&&,right,fairness.vice,,,,,0,86,86,86,,,,,,,,,,,,,,,,,,,,,,,AMP,left,0.6170462585287169,,,left,0,0.6170462585287169,0,,,,,,,,,,,,,,,,,,,,1001,2019_Mar_01_1450,mf_amp_cond1,3.0.4,59.98157076993934,
strength,discovars,&&&&&&&&&,left,sanctity.virtue,,,,,0,87,87,87,,,,,,,,,,,,,,,,,,,,,,,AMP,left,0.40032931393943727,,,left,1,0.40032931393943727,1,,,,,,,,,,,,,,,,,,,,1001,2019_Mar_01_1450,mf_amp_cond1,3.0.4,59.98157076993934,
conspiracy,hefurbished,&&&&&&&&&&&,right,sanctity.vice,,,,,0,88,88,88,,,,,,,,,,,,,,,,,,,,,,,AMP,right,0.3836577187757939,,,right,1,0.3836577187757939,1,,,,,,,,,,,,,,,,,,,,1001,2019_Mar_01_1450,mf_amp_cond1,3.0.4,59.98157076993934,
refused,vurtain,&&&&&&&,right,authority.vice,,,,,0,89,89,89,,,,,,,,,,,,,,,,,,,,,,,AMP,left,0.9171073875622824,,,left,0,0.9171073875622824,0,,,,,,,,,,,,,,,,,,,,1001,2019_Mar_01_1450,mf_amp_cond1,3.0.4,59.98157076993934,
critics,lursuer,&&&&&&&,right,loyalty.vice,,,,,0,90,90,90,,,,,,,,,,,,,,,,,,,,,,,AMP,right,0.40032706886995584,,,right,1,0.40032706886995584,1,,,,,,,,,,,,,,,,,,,,1001,2019_Mar_01_1450,mf_amp_cond1,3.0.4,59.98157076993934,
promises,viscs,&&&&&,left,fairness.virtue,,,,,0,91,91,91,,,,,,,,,,,,,,,,,,,,,,,AMP,right,0.617044655024074,,,right,0,0.617044655024074,0,,,,,,,,,,,,,,,,,,,,1001,2019_Mar_01_1450,mf_amp_cond1,3.0.4,59.98157076993934,
celebrated,totalestic,&&&&&&&&&&,left,authority.virtue,,,,,0,92,92,92,,,,,,,,,,,,,,,,,,,,,,,AMP,right,0.08360909787006676,,,right,0,0.08360909787006676,0,,,,,,,,,,,,,,,,,,,,1001,2019_Mar_01_1450,mf_amp_cond1,3.0.4,59.98157076993934,
gournful,fangsters,&&&&&&&&&,None,nonword,,,,,0,93,93,93,,,,,,,,,,,,,,,,,,,,,,,AMP,left,0.31682990165427327,,,left,0,0.31682990165427327,0,,,,,,,,,,,,,,,,,,,,1001,2019_Mar_01_1450,mf_amp_cond1,3.0.4,59.98157076993934,
troops,vicissifude,&&&&&&&&&&&,right,loyalty.vice,,,,,0,94,94,94,,,,,,,,,,,,,,,,,,,,,,,AMP,right,0.11693368630949408,,,right,1,0.11693368630949408,1,,,,,,,,,,,,,,,,,,,,1001,2019_Mar_01_1450,mf_amp_cond1,3.0.4,59.98157076993934,
harassment,troubla,&&&&&&&,right,sanctity.vice,,,,,0,95,95,95,,,,,,,,,,,,,,,,,,,,,,,AMP,left,0.13359501829836518,,,left,0,0.13359501829836518,0,,,,,,,,,,,,,,,,,,,,1001,2019_Mar_01_1450,mf_amp_cond1,3.0.4,59.98157076993934,
embrace,wump,&&&&,left,authority.virtue,,,,,0,96,96,96,,,,,,,,,,,,,,,,,,,,,,,AMP,right,0.00013598473742604256,,,right,0,0.00013598473742604256,0,,,,,,,,,,,,,,,,,,,,1001,2019_Mar_01_1450,mf_amp_cond1,3.0.4,59.98157076993934,
sexual,faspberry,&&&&&&&&&,right,sanctity.vice,,,,,0,97,97,97,,,,,,,,,,,,,,,,,,,,,,,AMP,right,0.0002722900826483965,,,right,1,0.0002722900826483965,1,,,,,,,,,,,,,,,,,,,,1001,2019_Mar_01_1450,mf_amp_cond1,3.0.4,59.98157076993934,
rebels,Daptist,&&&&&&&,right,authority.vice,,,,,0,98,98,98,,,,,,,,,,,,,,,,,,,,,,,AMP,right,0.8837786297081038,,,right,1,0.8837786297081038,1,,,,,,,,,,,,,,,,,,,,1001,2019_Mar_01_1450,mf_amp_cond1,3.0.4,59.98157076993934,
noped,fonderland,&&&&&&&&&&,None,nonword,,,,,0,99,99,99,,,,,,,,,,,,,,,,,,,,,,,AMP,left,0.6670440455200151,,,left,0,0.6670440455200151,0,,,,,,,,,,,,,,,,,,,,1001,2019_Mar_01_1450,mf_amp_cond1,3.0.4,59.98157076993934,
army,coom,&&&&,right,loyalty.vice,,,,,0,100,100,100,,,,,,,,,,,,,,,,,,,,,,,AMP,left,0.4670144112315029,,,left,0,0.4670144112315029,0,,,,,,,,,,,,,,,,,,,,1001,2019_Mar_01_1450,mf_amp_cond1,3.0.4,59.98157076993934,
strong,simplustic,&&&&&&&&&&,left,loyalty.virtue,,,,,0,101,101,101,,,,,,,,,,,,,,,,,,,,,,,AMP,right,0.6335821895627305,,,right,0,0.6335821895627305,0,,,,,,,,,,,,,,,,,,,,1001,2019_Mar_01_1450,mf_amp_cond1,3.0.4,59.98157076993934,
clean,infet,&&&&&,left,sanctity.virtue,,,,,0,102,102,102,,,,,,,,,,,,,,,,,,,,,,,AMP,right,0.16693596343975514,,,right,0,0.16693596343975514,0,,,,,,,,,,,,,,,,,,,,1001,2019_Mar_01_1450,mf_amp_cond1,3.0.4,59.98157076993934,
scandal,Oregoniuns,&&&&&&&&&&,right,sanctity.vice,,,,,0,103,103,103,,,,,,,,,,,,,,,,,,,,,,,AMP,right,0.21694754133932292,,,right,1,0.21694754133932292,1,,,,,,,,,,,,,,,,,,,,1001,2019_Mar_01_1450,mf_amp_cond1,3.0.4,59.98157076993934,
support,hasks,&&&&&,left,loyalty.virtue,,,,,0,104,104,104,,,,,,,,,,,,,,,,,,,,,,,AMP,right,0.41699353232979774,,,right,0,0.41699353232979774,0,,,,,,,,,,,,,,,,,,,,1001,2019_Mar_01_1450,mf_amp_cond1,3.0.4,59.98157076993934,
hope,idexpressible,&&&&&&&&&&&&&,left,loyalty.virtue,,,,,0,105,105,105,,,,,,,,,,,,,,,,,,,,,,,AMP,right,0.016904757474549115,,,right,0,0.016904757474549115,0,,,,,,,,,,,,,,,,,,,,1001,2019_Mar_01_1450,mf_amp_cond1,3.0.4,59.98157076993934,
opportunity,crilfully,&&&&&&&&&,left,fairness.virtue,,,,,0,106,106,106,,,,,,,,,,,,,,,,,,,,,,,AMP,right,0.1836149349110201,,,right,0,0.1836149349110201,0,,,,,,,,,,,,,,,,,,,,1001,2019_Mar_01_1450,mf_amp_cond1,3.0.4,59.98157076993934,
ability,proached,&&&&&&&&,left,authority.virtue,,,,,0,107,107,107,,,,,,,,,,,,,,,,,,,,,,,AMP,right,0.00026940356474369764,,,right,0,0.00026940356474369764,0,,,,,,,,,,,,,,,,,,,,1001,2019_Mar_01_1450,mf_amp_cond1,3.0.4,59.98157076993934,
powerful,reviked,&&&&&&&,left,authority.virtue,,,,,0,108,108,108,,,,,,,,,,,,,,,,,,,,,,,AMP,left,0.016902512405067682,,,left,1,0.016902512405067682,1,,,,,,,,,,,,,,,,,,,,1001,2019_Mar_01_1450,mf_amp_cond1,3.0.4,59.98157076993934,
groups,unreflectuve,&&&&&&&&&&&&,right,loyalty.vice,,,,,0,109,109,109,,,,,,,,,,,,,,,,,,,,,,,AMP,left,0.03357090032659471,,,left,0,0.03357090032659471,0,,,,,,,,,,,,,,,,,,,,1001,2019_Mar_01_1450,mf_amp_cond1,3.0.4,59.98157076993934,
interests,Loorish,&&&&&&&,left,fairness.virtue,,,,,0,110,110,110,,,,,,,,,,,,,,,,,,,,,,,AMP,right,0.767067201435566,,,right,0,0.767067201435566,0,,,,,,,,,,,,,,,,,,,,1001,2019_Mar_01_1450,mf_amp_cond1,3.0.4,59.98157076993934,
serial,laming,&&&&&&,right,sanctity.vice,,,,,0,111,111,111,,,,,,,,,,,,,,,,,,,,,,,AMP,left,0.5003515075659379,,,left,0,0.5003515075659379,0,,,,,,,,,,,,,,,,,,,,1001,2019_Mar_01_1450,mf_amp_cond1,3.0.4,59.98157076993934,
erks,gedious,&&&&&&&,None,nonword,,,,,0,112,112,112,,,,,,,,,,,,,,,,,,,,,,,AMP,left,0.6337018175981939,,,left,0,0.6337018175981939,0,,,,,,,,,,,,,,,,,,,,1001,2019_Mar_01_1450,mf_amp_cond1,3.0.4,59.98157076993934,
peaceful,brudent,&&&&&&&,left,authority.virtue,,,,,0,113,113,113,,,,,,,,,,,,,,,,,,,,,,,AMP,right,0.16693820850923657,,,right,0,0.16693820850923657,0,,,,,,,,,,,,,,,,,,,,1001,2019_Mar_01_1450,mf_amp_cond1,3.0.4,59.98157076993934,
health,lempestuous,&&&&&&&&&&&,left,care.virtue,,,,,0,114,114,114,,,,,,,,,,,,,,,,,,,,,,,AMP,right,0.4169980224687606,,,right,0,0.4169980224687606,0,,,,,,,,,,,,,,,,,,,,1001,2019_Mar_01_1450,mf_amp_cond1,3.0.4,59.98157076993934,
menizen,precificity,&&&&&&&&&&&,None,nonword,,,,,0,115,115,115,,,,,,,,,,,,,,,,,,,,,,,AMP,right,0.25030227727256715,,,right,0,0.25030227727256715,0,,,,,,,,,,,,,,,,,,,,1001,2019_Mar_01_1450,mf_amp_cond1,3.0.4,59.98157076993934,
perfect,pharing,&&&&&&&,left,sanctity.virtue,,,,,0,116,116,116,,,,,,,,,,,,,,,,,,,,,,,AMP,right,0.4503344773547724,,,right,0,0.4503344773547724,0,,,,,,,,,,,,,,,,,,,,1001,2019_Mar_01_1450,mf_amp_cond1,3.0.4,59.98157076993934,
respect,sgrawl,&&&&&&,left,sanctity.virtue,,,,,0,117,117,117,,,,,,,,,,,,,,,,,,,,,,,AMP,right,0.13359437696635723,,,right,0,0.13359437696635723,0,,,,,,,,,,,,,,,,,,,,1001,2019_Mar_01_1450,mf_amp_cond1,3.0.4,59.98157076993934,
unpleasant,halaise,&&&&&&&,None,control,,,,,0,118,118,118,,,,,,,,,,,,,,,,,,,,,,,AMP,right,0.6337156085064635,,,right,0,0.6337156085064635,0,,,,,,,,,,,,,,,,,,,,1001,2019_Mar_01_1450,mf_amp_cond1,3.0.4,59.98157076993934,
prison,shoirmaster,&&&&&&&&&&&,right,fairness.vice,,,,,0,119,119,119,,,,,,,,,,,,,,,,,,,,,,,AMP,right,0.15026789624243975,,,right,1,0.15026789624243975,1,,,,,,,,,,,,,,,,,,,,1001,2019_Mar_01_1450,mf_amp_cond1,3.0.4,59.98157076993934,
great,ittutable,&&&&&&&&&,left,loyalty.virtue,,,,,0,120,120,120,,,,,,,,,,,,,,,,,,,,,,,AMP,right,0.3503238295670599,,,right,0,0.3503238295670599,0,,,,,,,,,,,,,,,,,,,,1001,2019_Mar_01_1450,mf_amp_cond1,3.0.4,59.98157076993934,
peace,photocalkodes,&&&&&&&&&&&&&,left,care.virtue,,,,,0,121,121,121,,,,,,,,,,,,,,,,,,,,,,,AMP,right,0.03361644234973937,,,right,0,0.03361644234973937,0,,,,,,,,,,,,,,,,,,,,1001,2019_Mar_01_1450,mf_amp_cond1,3.0.4,59.98157076993934,
commitment,neutralust,&&&&&&&&&&,left,sanctity.virtue,,,,,0,122,122,122,,,,,,,,,,,,,,,,,,,,,,,AMP,right,0.25029233493842185,,,right,0,0.25029233493842185,0,,,,,,,,,,,,,,,,,,,,1001,2019_Mar_01_1450,mf_amp_cond1,3.0.4,59.98157076993934,
care,Cunday,&&&&&&,left,care.virtue,,,,,0,123,123,123,,,,,,,,,,,,,,,,,,,,,,,AMP,right,0.3169729422079399,,,right,0,0.3169729422079399,0,,,,,,,,,,,,,,,,,,,,1001,2019_Mar_01_1450,mf_amp_cond1,3.0.4,59.98157076993934,
protesters,squets,&&&&&&,right,authority.vice,,,,,0,124,124,124,,,,,,,,,,,,,,,,,,,,,,,AMP,right,0.21695972862653434,,,right,1,0.21695972862653434,1,,,,,,,,,,,,,,,,,,,,1001,2019_Mar_01_1450,mf_amp_cond1,3.0.4,59.98157076993934,
disregord,quarterbocks,&&&&&&&&&&&&,None,nonword,,,,,0,125,125,125,,,,,,,,,,,,,,,,,,,,,,,AMP,right,0.16695232002530247,,,right,0,0.16695232002530247,0,,,,,,,,,,,,,,,,,,,,1001,2019_Mar_01_1450,mf_amp_cond1,3.0.4,59.98157076993934,
neputized,nomparisons,&&&&&&&&&&&,None,nonword,,,,,0,126,126,126,,,,,,,,,,,,,,,,,,,,,,,AMP,right,0.10025984619278461,,,right,0,0.10025984619278461,0,,,,,,,,,,,,,,,,,,,,1001,2019_Mar_01_1450,mf_amp_cond1,3.0.4,59.98157076993934,
party,tenuflect,&&&&&&&&&,left,loyalty.virtue,,,,,0,127,127,127,,,,,,,,,,,,,,,,,,,,,,,AMP,right,0.23360823199618608,,,right,0,0.23360823199618608,0,,,,,,,,,,,,,,,,,,,,1001,2019_Mar_01_1450,mf_amp_cond1,3.0.4,59.98157076993934,
forced,aubos,&&&&&,right,fairness.vice,,,,,0,128,128,128,,,,,,,,,,,,,,,,,,,,,,,AMP,right,0.11692534759640694,,,right,1,0.11692534759640694,1,,,,,,,,,,,,,,,,,,,,1001,2019_Mar_01_1450,mf_amp_cond1,3.0.4,59.98157076993934,
values,neneficence,&&&&&&&&&&&,left,sanctity.virtue,,,,,0,129,129,129,,,,,,,,,,,,,,,,,,,,,,,AMP,right,0.20028781285509467,,,right,0,0.20028781285509467,0,,,,,,,,,,,,,,,,,,,,1001,2019_Mar_01_1450,mf_amp_cond1,3.0.4,59.98157076993934,
terrorist,gikely,&&&&&&,right,loyalty.vice,,,,,0,130,130,130,,,,,,,,,,,,,,,,,,,,,,,AMP,right,0.28367946355137974,,,right,1,0.28367946355137974,1,,,,,,,,,,,,,,,,,,,,1001,2019_Mar_01_1450,mf_amp_cond1,3.0.4,59.98157076993934,
died,taxpayung,&&&&&&&&&,right,care.vice,,,,,0,131,131,131,,,,,,,,,,,,,,,,,,,,,,,AMP,right,0.08358504390344024,,,right,1,0.08358504390344024,1,,,,,,,,,,,,,,,,,,,,1001,2019_Mar_01_1450,mf_amp_cond1,3.0.4,59.98157076993934,
safety,egpeditious,&&&&&&&&&&&,left,care.virtue,,,,,0,132,132,132,,,,,,,,,,,,,,,,,,,,,,,AMP,right,0.03356769308447838,,,right,0,0.03356769308447838,0,,,,,,,,,,,,,,,,,,,,1001,2019_Mar_01_1450,mf_amp_cond1,3.0.4,59.98157076993934,
safe,frojecting,&&&&&&&&&&,left,care.virtue,,,,,0,133,133,133,,,,,,,,,,,,,,,,,,,,,,,AMP,right,0.1502723862649873,,,right,0,0.1502723862649873,0,,,,,,,,,,,,,,,,,,,,1001,2019_Mar_01_1450,mf_amp_cond1,3.0.4,59.98157076993934,
useful,pafer,&&&&&,left,authority.virtue,,,,,0,134,134,134,,,,,,,,,,,,,,,,,,,,,,,AMP,right,0.06691120390314609,,,right,0,0.06691120390314609,0,,,,,,,,,,,,,,,,,,,,1001,2019_Mar_01_1450,mf_amp_cond1,3.0.4,59.98157076993934,
officers,festate,&&&&&&&,right,authority.vice,,,,,0,135,135,135,,,,,,,,,,,,,,,,,,,,,,,AMP,left,0.166930831852369,,,left,0,0.166930831852369,0,,,,,,,,,,,,,,,,,,,,1001,2019_Mar_01_1450,mf_amp_cond1,3.0.4,59.98157076993934,
energy,gusinesslike,&&&&&&&&&&&&,left,sanctity.virtue,,,,,0,136,136,136,,,,,,,,,,,,,,,,,,,,,,,AMP,left,0.1002508660312742,,,left,1,0.1002508660312742,1,,,,,,,,,,,,,,,,,,,,1001,2019_Mar_01_1450,mf_amp_cond1,3.0.4,59.98157076993934,
betrayal,tislay,&&&&&&,right,loyalty.vice,,,,,0,137,137,137,,,,,,,,,,,,,,,,,,,,,,,AMP,left,0.16694045346230268,,,left,0,0.16694045346230268,0,,,,,,,,,,,,,,,,,,,,1001,2019_Mar_01_1450,mf_amp_cond1,3.0.4,59.98157076993934,
win,papert,&&&&&&,left,fairness.virtue,,,,,0,138,138,138,,,,,,,,,,,,,,,,,,,,,,,AMP,right,0.16694205708336085,,,right,0,0.16694205708336085,0,,,,,,,,,,,,,,,,,,,,1001,2019_Mar_01_1450,mf_amp_cond1,3.0.4,59.98157076993934,
godlaness,ablow,&&&&&,None,nonword,,,,,0,139,139,139,,,,,,,,,,,,,,,,,,,,,,,AMP,right,0.5170125189470127,,,right,0,0.5170125189470127,0,,,,,,,,,,,,,,,,,,,,1001,2019_Mar_01_1450,mf_amp_cond1,3.0.4,59.98157076993934,
gaultless,atson,&&&&&,None,nonword,,,,,0,140,140,140,,,,,,,,,,,,,,,,,,,,,,,AMP,right,0.5170439493376762,,,right,0,0.5170439493376762,0,,,,,,,,,,,,,,,,,,,,1001,2019_Mar_01_1450,mf_amp_cond1,3.0.4,59.98157076993934,
war,nomaric,&&&&&&&,right,sanctity.vice,,,,,0,141,141,141,,,,,,,,,,,,,,,,,,,,,,,AMP,left,0.4670227498281747,,,left,0,0.4670227498281747,0,,,,,,,,,,,,,,,,,,,,1001,2019_Mar_01_1450,mf_amp_cond1,3.0.4,59.98157076993934,
restore,prones,&&&&&&,left,care.virtue,,,,,0,142,142,142,,,,,,,,,,,,,,,,,,,,,,,AMP,right,0.03360200999304652,,,right,0,0.03360200999304652,0,,,,,,,,,,,,,,,,,,,,1001,2019_Mar_01_1450,mf_amp_cond1,3.0.4,59.98157076993934,
abuse,gillipede,&&&&&&&&&,right,sanctity.vice,,,,,0,143,143,143,,,,,,,,,,,,,,,,,,,,,,,AMP,left,0.3169806394726038,,,left,0,0.3169806394726038,0,,,,,,,,,,,,,,,,,,,,1001,2019_Mar_01_1450,mf_amp_cond1,3.0.4,59.98157076993934,
charges,iptervention,&&&&&&&&&&&&,right,fairness.vice,,,,,0,144,144,144,,,,,,,,,,,,,,,,,,,,,,,AMP,right,0.0835674045374617,,,right,1,0.0835674045374617,1,,,,,,,,,,,,,,,,,,,,1001,2019_Mar_01_1450,mf_amp_cond1,3.0.4,59.98157076993934,
riot,emports,&&&&&&&,right,authority.vice,,,,,0,145,145,145,,,,,,,,,,,,,,,,,,,,,,,AMP,left,0.01689706020988524,,,left,0,0.01689706020988524,0,,,,,,,,,,,,,,,,,,,,1001,2019_Mar_01_1450,mf_amp_cond1,3.0.4,59.98157076993934,
integrity,abointment,&&&&&&&&&&,left,fairness.virtue,,,,,0,146,146,146,,,,,,,,,,,,,,,,,,,,,,,AMP,right,0.016887117875739932,,,right,0,0.016887117875739932,0,,,,,,,,,,,,,,,,,,,,1001,2019_Mar_01_1450,mf_amp_cond1,3.0.4,59.98157076993934,
lies,fontacts,&&&&&&&&,right,fairness.vice,,,,,0,147,147,147,,,,,,,,,,,,,,,,,,,,,,,AMP,left,0.6003791536204517,,,left,0,0.6003791536204517,0,,,,,,,,,,,,,,,,,,,,1001,2019_Mar_01_1450,mf_amp_cond1,3.0.4,59.98157076993934,
loyalty,sickyay,&&&&&&&,left,loyalty.virtue,,,,,0,148,148,148,,,,,,,,,,,,,,,,,,,,,,,AMP,right,0.01690539892297238,,,right,0,0.01690539892297238,0,,,,,,,,,,,,,,,,,,,,1001,2019_Mar_01_1450,mf_amp_cond1,3.0.4,59.98157076993934,
gun,fegard,&&&&&&,right,authority.vice,,,,,0,149,149,149,,,,,,,,,,,,,,,,,,,,,,,AMP,left,0.3836557944305241,,,left,0,0.3836557944305241,0,,,,,,,,,,,,,,,,,,,,1001,2019_Mar_01_1450,mf_amp_cond1,3.0.4,59.98157076993934,
shot,smapper,&&&&&&&,right,care.vice,,,,,0,150,150,150,,,,,,,,,,,,,,,,,,,,,,,AMP,left,0.4003415012266487,,,left,0,0.4003415012266487,0,,,,,,,,,,,,,,,,,,,,1001,2019_Mar_01_1450,mf_amp_cond1,3.0.4,59.98157076993934,
hate,antral,&&&&&&,right,fairness.vice,,,,,0,151,151,151,,,,,,,,,,,,,,,,,,,,,,,AMP,left,0.05026430427096784,,,left,0,0.05026430427096784,0,,,,,,,,,,,,,,,,,,,,1001,2019_Mar_01_1450,mf_amp_cond1,3.0.4,59.98157076993934,
penalty,wonderfujnoss,&&&&&&&&&&&&&,right,authority.vice,,,,,0,152,152,152,,,,,,,,,,,,,,,,,,,,,,,AMP,left,0.46700511034578085,,,left,0,0.46700511034578085,0,,,,,,,,,,,,,,,,,,,,1001,2019_Mar_01_1450,mf_amp_cond1,3.0.4,59.98157076993934,
honored,slending,&&&&&&&&,left,authority.virtue,,,,,0,153,153,153,,,,,,,,,,,,,,,,,,,,,,,AMP,right,0.20029551011975855,,,right,0,0.20029551011975855,0,,,,,,,,,,,,,,,,,,,,1001,2019_Mar_01_1450,mf_amp_cond1,3.0.4,59.98157076993934,
benefit,drumbled,&&&&&&&&,left,fairness.virtue,,,,,0,154,154,154,,,,,,,,,,,,,,,,,,,,,,,AMP,right,0.033580842544324696,,,right,0,0.033580842544324696,0,,,,,,,,,,,,,,,,,,,,1001,2019_Mar_01_1450,mf_amp_cond1,3.0.4,59.98157076993934,
torture,sliptery,&&&&&&&&,right,care.vice,,,,,0,155,155,155,,,,,,,,,,,,,,,,,,,,,,,AMP,left,0.43367186246905476,,,left,0,0.43367186246905476,0,,,,,,,,,,,,,,,,,,,,1001,2019_Mar_01_1450,mf_amp_cond1,3.0.4,59.98157076993934,
increase,leact,&&&&&,left,care.virtue,,,,,0,156,156,156,,,,,,,,,,,,,,,,,,,,,,,AMP,left,0.6170568421948701,,,left,1,0.6170568421948701,1,,,,,,,,,,,,,,,,,,,,1001,2019_Mar_01_1450,mf_amp_cond1,3.0.4,59.98157076993934,
injured,crinking,&&&&&&&&,right,care.vice,,,,,0,157,157,157,,,,,,,,,,,,,,,,,,,,,,,AMP,left,0.4002648494206369,,,left,0,0.4002648494206369,0,,,,,,,,,,,,,,,,,,,,1001,2019_Mar_01_1450,mf_amp_cond1,3.0.4,59.98157076993934,
friends,pistraught,&&&&&&&&&&,left,loyalty.virtue,,,,,0,158,158,158,,,,,,,,,,,,,,,,,,,,,,,AMP,right,0.050237043062224984,,,right,0,0.050237043062224984,0,,,,,,,,,,,,,,,,,,,,1001,2019_Mar_01_1450,mf_amp_cond1,3.0.4,59.98157076993934,
crime,uller,&&&&&,right,fairness.vice,,,,,0,159,159,159,,,,,,,,,,,,,,,,,,,,,,,AMP,left,0.30030679947230965,,,left,0,0.30030679947230965,0,,,,,,,,,,,,,,,,,,,,1001,2019_Mar_01_1450,mf_amp_cond1,3.0.4,59.98157076993934,
agreement,mecan,&&&&&,left,fairness.virtue,,,,,0,160,160,160,,,,,,,,,,,,,,,,,,,,,,,AMP,right,0.583710444974713,,,right,0,0.583710444974713,0,,,,,,,,,,,,,,,,,,,,1001,2019_Mar_01_1450,mf_amp_cond1,3.0.4,59.98157076993934,
men,chadows,&&&&&&&,right,loyalty.vice,,,,,0,161,161,161,,,,,,,,,,,,,,,,,,,,,,,AMP,left,0.033537545590661466,,,left,0,0.033537545590661466,0,,,,,,,,,,,,,,,,,,,,1001,2019_Mar_01_1450,mf_amp_cond1,3.0.4,59.98157076993934,
victim,ugeasily,&&&&&&&&,right,care.vice,,,,,0,162,162,162,,,,,,,,,,,,,,,,,,,,,,,AMP,left,0.3336477444972843,,,left,0,0.3336477444972843,0,,,,,,,,,,,,,,,,,,,,1001,2019_Mar_01_1450,mf_amp_cond1,3.0.4,59.98157076993934,
ning,framatic,&&&&&&&&,None,nonword,,,,,0,163,163,163,,,,,,,,,,,,,,,,,,,,,,,AMP,left,0.06692018394824117,,,left,0,0.06692018394824117,0,,,,,,,,,,,,,,,,,,,,1001,2019_Mar_01_1450,mf_amp_cond1,3.0.4,59.98157076993934,
party,Cunday,&&&&&&,left,loyalty.virtue,,,,,0,164,164,164,,,,,,,,,,,,,,,,,,,,,,,AMP,right,0.38365868106484413,,,right,0,0.38365868106484413,0,,,,,,,,,,,,,,,,,,,,1001,2019_Mar_01_1450,mf_amp_cond1,3.0.4,59.98157076993934,
shot,crilfully,&&&&&&&&&,right,care.vice,,,,,0,165,165,165,,,,,,,,,,,,,,,,,,,,,,,AMP,right,0.05025821051094681,,,right,1,0.05025821051094681,1,,,,,,,,,,,,,,,,,,,,1001,2019_Mar_01_1450,mf_amp_cond1,3.0.4,59.98157076993934,
charges,lursuer,&&&&&&&,right,fairness.vice,,,,,0,166,166,166,,,,,,,,,,,,,,,,,,,,,,,AMP,left,0.5670337184565142,,,left,0,0.5670337184565142,0,,,,,,,,,,,,,,,,,,,,1001,2019_Mar_01_1450,mf_amp_cond1,3.0.4,59.98157076993934,
safety,frojecting,&&&&&&&&&&,left,care.virtue,,,,,0,167,167,167,,,,,,,,,,,,,,,,,,,,,,,AMP,left,0.5503810457885265,,,left,1,0.5503810457885265,1,,,,,,,,,,,,,,,,,,,,1001,2019_Mar_01_1450,mf_amp_cond1,3.0.4,59.98157076993934,
celebrated,simplustic,&&&&&&&&&&,left,authority.virtue,,,,,0,168,168,168,,,,,,,,,,,,,,,,,,,,,,,AMP,left,0.08358504390344024,,,left,1,0.08358504390344024,1,,,,,,,,,,,,,,,,,,,,1001,2019_Mar_01_1450,mf_amp_cond1,3.0.4,59.98157076993934,
victims,totalestic,&&&&&&&&&&,right,care.vice,,,,,0,169,169,169,,,,,,,,,,,,,,,,,,,,,,,AMP,right,0.0002649136586114764,,,right,1,0.0002649136586114764,1,,,,,,,,,,,,,,,,,,,,1001,2019_Mar_01_1450,mf_amp_cond1,3.0.4,59.98157076993934,
ning,papert,&&&&&&,None,nonword,,,,,0,170,170,170,,,,,,,,,,,,,,,,,,,,,,,AMP,right,0.4003389354329556,,,right,0,0.4003389354329556,0,,,,,,,,,,,,,,,,,,,,1001,2019_Mar_01_1450,mf_amp_cond1,3.0.4,59.98157076993934,
menizen,troubla,&&&&&&&,None,nonword,,,,,0,171,171,171,,,,,,,,,,,,,,,,,,,,,,,AMP,left,0.28362462064251304,,,left,0,0.28362462064251304,0,,,,,,,,,,,,,,,,,,,,1001,2019_Mar_01_1450,mf_amp_cond1,3.0.4,59.98157076993934,
prison,slending,&&&&&&&&,right,fairness.vice,,,,,0,172,172,172,,,,,,,,,,,,,,,,,,,,,,,AMP,left,0.05025211698375642,,,left,0,0.05025211698375642,0,,,,,,,,,,,,,,,,,,,,1001,2019_Mar_01_1450,mf_amp_cond1,3.0.4,59.98157076993934,
betrayal,nomaric,&&&&&&&,right,loyalty.vice,,,,,0,173,173,173,,,,,,,,,,,,,,,,,,,,,,,AMP,right,0.4336734660901129,,,right,1,0.4336734660901129,1,,,,,,,,,,,,,,,,,,,,1001,2019_Mar_01_1450,mf_amp_cond1,3.0.4,59.98157076993934,
increase,gedious,&&&&&&&,left,care.virtue,,,,,0,174,174,174,,,,,,,,,,,,,,,,,,,,,,,AMP,right,0.5503791214432567,,,right,0,0.5503791214432567,0,,,,,,,,,,,,,,,,,,,,1001,2019_Mar_01_1450,mf_amp_cond1,3.0.4,59.98157076993934,
care,sgrawl,&&&&&&,left,care.virtue,,,,,0,175,175,175,,,,,,,,,,,,,,,,,,,,,,,AMP,right,0.11691732960753143,,,right,0,0.11691732960753143,0,,,,,,,,,,,,,,,,,,,,1001,2019_Mar_01_1450,mf_amp_cond1,3.0.4,59.98157076993934,
disregord,coom,&&&&,None,nonword,,,,,0,176,176,176,,,,,,,,,,,,,,,,,,,,,,,AMP,left,0.5670317941112444,,,left,0,0.5670317941112444,0,,,,,,,,,,,,,,,,,,,,1001,2019_Mar_01_1450,mf_amp_cond1,3.0.4,59.98157076993934,
abuse,gusinesslike,&&&&&&&&&&&&,right,sanctity.vice,,,,,0,177,177,177,,,,,,,,,,,,,,,,,,,,,,,AMP,left,0.2836441844701767,,,left,0,0.2836441844701767,0,,,,,,,,,,,,,,,,,,,,1001,2019_Mar_01_1450,mf_amp_cond1,3.0.4,59.98157076993934,
clean,aubos,&&&&&,left,sanctity.virtue,,,,,0,178,178,178,,,,,,,,,,,,,,,,,,,,,,,AMP,right,0.08358504401985556,,,right,0,0.08358504401985556,0,,,,,,,,,,,,,,,,,,,,1001,2019_Mar_01_1450,mf_amp_cond1,3.0.4,59.98157076993934,
died,fegard,&&&&&&,right,care.vice,,,,,0,179,179,179,,,,,,,,,,,,,,,,,,,,,,,AMP,left,0.0002629893133416772,,,left,0,0.0002629893133416772,0,,,,,,,,,,,,,,,,,,,,1001,2019_Mar_01_1450,mf_amp_cond1,3.0.4,59.98157076993934,
friends,prones,&&&&&&,left,loyalty.virtue,,,,,0,180,180,180,,,,,,,,,,,,,,,,,,,,,,,AMP,right,0.0002665171632543206,,,right,0,0.0002665171632543206,0,,,,,,,,,,,,,,,,,,,,1001,2019_Mar_01_1450,mf_amp_cond1,3.0.4,59.98157076993934,
lies,ugeasily,&&&&&&&&,right,fairness.vice,,,,,0,181,181,181,,,,,,,,,,,,,,,,,,,,,,,AMP,left,0.0669144110288471,,,left,0,0.0669144110288471,0,,,,,,,,,,,,,,,,,,,,1001,2019_Mar_01_1450,mf_amp_cond1,3.0.4,59.98157076993934,
forced,ablow,&&&&&,right,fairness.vice,,,,,0,182,182,182,,,,,,,,,,,,,,,,,,,,,,,AMP,left,0.4670118454378098,,,left,0,0.4670118454378098,0,,,,,,,,,,,,,,,,,,,,1001,2019_Mar_01_1450,mf_amp_cond1,3.0.4,59.98157076993934,
gaultless,ittutable,&&&&&&&&&,None,nonword,,,,,0,183,183,183,,,,,,,,,,,,,,,,,,,,,,,AMP,right,0.5336898869136348,,,right,0,0.5336898869136348,0,,,,,,,,,,,,,,,,,,,,1001,2019_Mar_01_1450,mf_amp_cond1,3.0.4,59.98157076993934,
sexual,shoirmaster,&&&&&&&&&&&,right,sanctity.vice,,,,,0,184,184,184,,,,,,,,,,,,,,,,,,,,,,,AMP,right,0.41700924758333713,,,right,1,0.41700924758333713,1,,,,,,,,,,,,,,,,,,,,1001,2019_Mar_01_1450,mf_amp_cond1,3.0.4,59.98157076993934,
opportunity,discovars,&&&&&&&&&,left,fairness.virtue,,,,,0,185,185,185,,,,,,,,,,,,,,,,,,,,,,,AMP,right,0.06690992100629956,,,right,0,0.06690992100629956,0,,,,,,,,,,,,,,,,,,,,1001,2019_Mar_01_1450,mf_amp_cond1,3.0.4,59.98157076993934,
terrorists,mecan,&&&&&,right,fairness.vice,,,,,0,186,186,186,,,,,,,,,,,,,,,,,,,,,,,AMP,left,0.06688009423669428,,,left,0,0.06688009423669428,0,,,,,,,,,,,,,,,,,,,,1001,2019_Mar_01_1450,mf_amp_cond1,3.0.4,59.98157076993934,
peaceful,vurtain,&&&&&&&,left,authority.virtue,,,,,0,187,187,187,,,,,,,,,,,,,,,,,,,,,,,AMP,right,0.25029105215799063,,,right,0,0.25029105215799063,0,,,,,,,,,,,,,,,,,,,,1001,2019_Mar_01_1450,mf_amp_cond1,3.0.4,59.98157076993934,
health,pafer,&&&&&,left,care.virtue,,,,,0,188,188,188,,,,,,,,,,,,,,,,,,,,,,,AMP,right,0.45034955127630383,,,right,0,0.45034955127630383,0,,,,,,,,,,,,,,,,,,,,1001,2019_Mar_01_1450,mf_amp_cond1,3.0.4,59.98157076993934,
war,faspberry,&&&&&&&&&,right,sanctity.vice,,,,,0,189,189,189,,,,,,,,,,,,,,,,,,,,,,,AMP,left,0.06688618788029999,,,left,0,0.06688618788029999,0,,,,,,,,,,,,,,,,,,,,1001,2019_Mar_01_1450,mf_amp_cond1,3.0.4,59.98157076993934,
commitment,precificity,&&&&&&&&&&&,left,sanctity.virtue,,,,,0,190,190,190,,,,,,,,,,,,,,,,,,,,,,,AMP,right,0.2836310350103304,,,right,0,0.2836310350103304,0,,,,,,,,,,,,,,,,,,,,1001,2019_Mar_01_1450,mf_amp_cond1,3.0.4,59.98157076993934,
support,fangsters,&&&&&&&&&,left,loyalty.virtue,,,,,0,191,191,191,,,,,,,,,,,,,,,,,,,,,,,AMP,right,0.5003502246690914,,,right,0,0.5003502246690914,0,,,,,,,,,,,,,,,,,,,,1001,2019_Mar_01_1450,mf_amp_cond1,3.0.4,59.98157076993934,
ability,uller,&&&&&,left,authority.virtue,,,,,0,192,192,192,,,,,,,,,,,,,,,,,,,,,,,AMP,right,0.11693368630949408,,,right,0,0.11693368630949408,0,,,,,,,,,,,,,,,,,,,,1001,2019_Mar_01_1450,mf_amp_cond1,3.0.4,59.98157076993934,
loyalty,gikely,&&&&&&,left,loyalty.virtue,,,,,0,193,193,193,,,,,,,,,,,,,,,,,,,,,,,AMP,right,0.08359209971968085,,,right,0,0.08359209971968085,0,,,,,,,,,,,,,,,,,,,,1001,2019_Mar_01_1450,mf_amp_cond1,3.0.4,59.98157076993934,
energy,atson,&&&&&,left,sanctity.virtue,,,,,0,194,194,194,,,,,,,,,,,,,,,,,,,,,,,AMP,right,0.03358148399274796,,,right,0,0.03358148399274796,0,,,,,,,,,,,,,,,,,,,,1001,2019_Mar_01_1450,mf_amp_cond1,3.0.4,59.98157076993934,
perfect,reviked,&&&&&&&,left,sanctity.virtue,,,,,0,195,195,195,,,,,,,,,,,,,,,,,,,,,,,AMP,left,0.3670021597063169,,,left,1,0.3670021597063169,1,,,,,,,,,,,,,,,,,,,,1001,2019_Mar_01_1450,mf_amp_cond1,3.0.4,59.98157076993934,
hate,unreflectuve,&&&&&&&&&&&&,right,fairness.vice,,,,,0,196,196,196,,,,,,,,,,,,,,,,,,,,,,,AMP,left,0.5170141225680709,,,left,0,0.5170141225680709,0,,,,,,,,,,,,,,,,,,,,1001,2019_Mar_01_1450,mf_amp_cond1,3.0.4,59.98157076993934,
useful,framatic,&&&&&&&&,left,authority.virtue,,,,,0,197,197,197,,,,,,,,,,,,,,,,,,,,,,,AMP,right,0.10026048764120787,,,right,0,0.10026048764120787,0,,,,,,,,,,,,,,,,,,,,1001,2019_Mar_01_1450,mf_amp_cond1,3.0.4,59.98157076993934,
men,iptervention,&&&&&&&&&&&&,right,loyalty.vice,,,,,0,198,198,198,,,,,,,,,,,,,,,,,,,,,,,AMP,left,0.33365640393458307,,,left,0,0.33365640393458307,0,,,,,,,,,,,,,,,,,,,,1001,2019_Mar_01_1450,mf_amp_cond1,3.0.4,59.98157076993934,
pleasant,neutralust,&&&&&&&&&&,None,control,,,,,0,199,199,199,,,,,,,,,,,,,,,,,,,,,,,AMP,left,0.3836936393054202,,,left,0,0.3836936393054202,0,,,,,,,,,,,,,,,,,,,,1001,2019_Mar_01_1450,mf_amp_cond1,3.0.4,59.98157076993934,
neputized,photocalkodes,&&&&&&&&&&&&&,None,nonword,,,,,0,200,200,200,,,,,,,,,,,,,,,,,,,,,,,AMP,left,0.48367638466879725,,,left,0,0.48367638466879725,0,,,,,,,,,,,,,,,,,,,,1001,2019_Mar_01_1450,mf_amp_cond1,3.0.4,59.98157076993934,
values,wump,&&&&,left,sanctity.virtue,,,,,0,201,201,201,,,,,,,,,,,,,,,,,,,,,,,AMP,right,0.3003035922301933,,,right,0,0.3003035922301933,0,,,,,,,,,,,,,,,,,,,,1001,2019_Mar_01_1450,mf_amp_cond1,3.0.4,59.98157076993934,
honored,lorthwhile,&&&&&&&&&&,left,authority.virtue,,,,,0,202,202,202,,,,,,,,,,,,,,,,,,,,,,,AMP,left,0.5336895661894232,,,left,1,0.5336895661894232,1,,,,,,,,,,,,,,,,,,,,1001,2019_Mar_01_1450,mf_amp_cond1,3.0.4,59.98157076993934,
godlaness,leact,&&&&&,None,nonword,,,,,0,203,203,203,,,,,,,,,,,,,,,,,,,,,,,AMP,right,0.3503055485198274,,,right,0,0.3503055485198274,0,,,,,,,,,,,,,,,,,,,,1001,2019_Mar_01_1450,mf_amp_cond1,3.0.4,59.98157076993934,
critics,taxpayung,&&&&&&&&&,right,loyalty.vice,,,,,0,204,204,204,,,,,,,,,,,,,,,,,,,,,,,AMP,right,0.15026212332304567,,,right,1,0.15026212332304567,1,,,,,,,,,,,,,,,,,,,,1001,2019_Mar_01_1450,mf_amp_cond1,3.0.4,59.98157076993934,
victim,pharing,&&&&&&&,right,care.vice,,,,,0,205,205,205,,,,,,,,,,,,,,,,,,,,,,,AMP,left,0.15028297004755586,,,left,0,0.15028297004755586,0,,,,,,,,,,,,,,,,,,,,1001,2019_Mar_01_1450,mf_amp_cond1,3.0.4,59.98157076993934,
safe,tenuflect,&&&&&&&&&,left,care.virtue,,,,,0,206,206,206,,,,,,,,,,,,,,,,,,,,,,,AMP,right,0.1669327561976388,,,right,0,0.1669327561976388,0,,,,,,,,,,,,,,,,,,,,1001,2019_Mar_01_1450,mf_amp_cond1,3.0.4,59.98157076993934,
great,Loorish,&&&&&&&,left,loyalty.virtue,,,,,0,207,207,207,,,,,,,,,,,,,,,,,,,,,,,AMP,right,0.35030458646360785,,,right,0,0.35030458646360785,0,,,,,,,,,,,,,,,,,,,,1001,2019_Mar_01_1450,mf_amp_cond1,3.0.4,59.98157076993934,
scandal,gillipede,&&&&&&&&&,right,sanctity.vice,,,,,0,208,208,208,,,,,,,,,,,,,,,,,,,,,,,AMP,right,0.5503691792255268,,,right,1,0.5503691792255268,1,,,,,,,,,,,,,,,,,,,,1001,2019_Mar_01_1450,mf_amp_cond1,3.0.4,59.98157076993934,
riot,nackers,&&&&&&&,right,authority.vice,,,,,0,209,209,209,,,,,,,,,,,,,,,,,,,,,,,AMP,left,0.350322867394425,,,left,0,0.350322867394425,0,,,,,,,,,,,,,,,,,,,,1001,2019_Mar_01_1450,mf_amp_cond1,3.0.4,59.98157076993934,
rebels,sickyay,&&&&&&&,right,authority.vice,,,,,0,210,210,210,,,,,,,,,,,,,,,,,,,,,,,AMP,right,0.15026565128937364,,,right,1,0.15026565128937364,1,,,,,,,,,,,,,,,,,,,,1001,2019_Mar_01_1450,mf_amp_cond1,3.0.4,59.98157076993934,
chared,abointment,&&&&&&&&&&,None,nonword,,,,,0,211,211,211,,,,,,,,,,,,,,,,,,,,,,,AMP,left,0.3503100386587903,,,left,0,0.3503100386587903,0,,,,,,,,,,,,,,,,,,,,1001,2019_Mar_01_1450,mf_amp_cond1,3.0.4,59.98157076993934,
conspiracy,lempestuous,&&&&&&&&&&&,right,sanctity.vice,,,,,0,212,212,212,,,,,,,,,,,,,,,,,,,,,,,AMP,left,0.10026722273323685,,,left,0,0.10026722273323685,0,,,,,,,,,,,,,,,,,,,,1001,2019_Mar_01_1450,mf_amp_cond1,3.0.4,59.98157076993934,
win,viscs,&&&&&,left,fairness.virtue,,,,,0,213,213,213,,,,,,,,,,,,,,,,,,,,,,,AMP,right,2.034068976296112,,,right,0,2.034068976296112,0,,,,,,,,,,,,,,,,,,,,1001,2019_Mar_01_1450,mf_amp_cond1,3.0.4,59.98157076993934,
terrorist,hasks,&&&&&,right,loyalty.vice,,,,,0,214,214,214,,,,,,,,,,,,,,,,,,,,,,,AMP,left,0.3503039450151846,,,left,0,0.3503039450151846,0,,,,,,,,,,,,,,,,,,,,1001,2019_Mar_01_1450,mf_amp_cond1,3.0.4,59.98157076993934,
powerful,infet,&&&&&,left,authority.virtue,,,,,0,215,215,215,,,,,,,,,,,,,,,,,,,,,,,AMP,right,0.3002994229318574,,,right,0,0.3002994229318574,0,,,,,,,,,,,,,,,,,,,,1001,2019_Mar_01_1450,mf_amp_cond1,3.0.4,59.98157076993934,
torture,smapper,&&&&&&&,right,care.vice,,,,,0,216,216,216,,,,,,,,,,,,,,,,,,,,,,,AMP,left,0.4336619202513248,,,left,0,0.4336619202513248,0,,,,,,,,,,,,,,,,,,,,1001,2019_Mar_01_1450,mf_amp_cond1,3.0.4,59.98157076993934,
noped,drumbled,&&&&&&&&,None,nonword,,,,,0,217,217,217,,,,,,,,,,,,,,,,,,,,,,,AMP,right,0.00026812078431248665,,,right,0,0.00026812078431248665,0,,,,,,,,,,,,,,,,,,,,1001,2019_Mar_01_1450,mf_amp_cond1,3.0.4,59.98157076993934,
harassment,hefurbished,&&&&&&&&&&&,right,sanctity.vice,,,,,0,218,218,218,,,,,,,,,,,,,,,,,,,,,,,AMP,right,0.33367308124434203,,,right,1,0.33367308124434203,1,,,,,,,,,,,,,,,,,,,,1001,2019_Mar_01_1450,mf_amp_cond1,3.0.4,59.98157076993934,
agreement,proached,&&&&&&&&,left,fairness.virtue,,,,,0,219,219,219,,,,,,,,,,,,,,,,,,,,,,,AMP,left,0.05024441971909255,,,left,1,0.05024441971909255,1,,,,,,,,,,,,,,,,,,,,1001,2019_Mar_01_1450,mf_amp_cond1,3.0.4,59.98157076993934,
respect,wonderfujnoss,&&&&&&&&&&&&&,left,sanctity.virtue,,,,,0,220,220,220,,,,,,,,,,,,,,,,,,,,,,,AMP,left,0.20026536262594163,,,left,1,0.20026536262594163,1,,,,,,,,,,,,,,,,,,,,1001,2019_Mar_01_1450,mf_amp_cond1,3.0.4,59.98157076993934,
penalty,Daptist,&&&&&&&,right,authority.vice,,,,,0,221,221,221,,,,,,,,,,,,,,,,,,,,,,,AMP,left,0.3670210820855573,,,left,0,0.3670210820855573,0,,,,,,,,,,,,,,,,,,,,1001,2019_Mar_01_1450,mf_amp_cond1,3.0.4,59.98157076993934,
attacks,crinking,&&&&&&&&,right,care.vice,,,,,0,222,222,222,,,,,,,,,,,,,,,,,,,,,,,AMP,left,0.3502571202116087,,,left,0,0.3502571202116087,0,,,,,,,,,,,,,,,,,,,,1001,2019_Mar_01_1450,mf_amp_cond1,3.0.4,59.98157076993934,
officers,nomparisons,&&&&&&&&&&&,right,authority.vice,,,,,0,223,223,223,,,,,,,,,,,,,,,,,,,,,,,AMP,left,0.33364325435832143,,,left,0,0.33364325435832143,0,,,,,,,,,,,,,,,,,,,,1001,2019_Mar_01_1450,mf_amp_cond1,3.0.4,59.98157076993934,
promises,emports,&&&&&&&,left,fairness.virtue,,,,,0,224,224,224,,,,,,,,,,,,,,,,,,,,,,,AMP,right,0.3336387643357739,,,right,0,0.3336387643357739,0,,,,,,,,,,,,,,,,,,,,1001,2019_Mar_01_1450,mf_amp_cond1,3.0.4,59.98157076993934,
integrity,laming,&&&&&&,left,fairness.virtue,,,,,0,225,225,225,,,,,,,,,,,,,,,,,,,,,,,AMP,right,0.6168506201356649,,,right,0,0.6168506201356649,0,,,,,,,,,,,,,,,,,,,,1001,2019_Mar_01_1450,mf_amp_cond1,3.0.4,59.98157076993934,
benefit,squets,&&&&&&,left,fairness.virtue,,,,,0,226,226,226,,,,,,,,,,,,,,,,,,,,,,,AMP,left,0.033572503947652876,,,left,1,0.033572503947652876,1,,,,,,,,,,,,,,,,,,,,1001,2019_Mar_01_1450,mf_amp_cond1,3.0.4,59.98157076993934,
groups,egpeditious,&&&&&&&&&&&,right,loyalty.vice,,,,,0,227,227,227,,,,,,,,,,,,,,,,,,,,,,,AMP,right,0.5670645075151697,,,right,1,0.5670645075151697,1,,,,,,,,,,,,,,,,,,,,1001,2019_Mar_01_1450,mf_amp_cond1,3.0.4,59.98157076993934,
refused,fonderland,&&&&&&&&&&,right,authority.vice,,,,,0,228,228,228,,,,,,,,,,,,,,,,,,,,,,,AMP,right,0.48368921340443194,,,right,1,0.48368921340443194,1,,,,,,,,,,,,,,,,,,,,1001,2019_Mar_01_1450,mf_amp_cond1,3.0.4,59.98157076993934,
strong,pistraught,&&&&&&&&&&,left,loyalty.virtue,,,,,0,229,229,229,,,,,,,,,,,,,,,,,,,,,,,AMP,right,0.45034377824049443,,,right,0,0.45034377824049443,0,,,,,,,,,,,,,,,,,,,,1001,2019_Mar_01_1450,mf_amp_cond1,3.0.4,59.98157076993934,
restore,stindig,&&&&&&&,left,care.virtue,,,,,0,230,230,230,,,,,,,,,,,,,,,,,,,,,,,AMP,right,0.45034409896470606,,,right,0,0.45034409896470606,0,,,,,,,,,,,,,,,,,,,,1001,2019_Mar_01_1450,mf_amp_cond1,3.0.4,59.98157076993934,
strength,antral,&&&&&&,left,sanctity.virtue,,,,,0,231,231,231,,,,,,,,,,,,,,,,,,,,,,,AMP,right,0.10024541395250708,,,right,0,0.10024541395250708,0,,,,,,,,,,,,,,,,,,,,1001,2019_Mar_01_1450,mf_amp_cond1,3.0.4,59.98157076993934,
gun,sliptery,&&&&&&&&,right,authority.vice,,,,,0,232,232,232,,,,,,,,,,,,,,,,,,,,,,,AMP,left,0.33351047697942704,,,left,0,0.33351047697942704,0,,,,,,,,,,,,,,,,,,,,1001,2019_Mar_01_1450,mf_amp_cond1,3.0.4,59.98157076993934,
erks,fontacts,&&&&&&&&,None,nonword,,,,,0,233,233,233,,,,,,,,,,,,,,,,,,,,,,,AMP,right,0.46701729763299227,,,right,0,0.46701729763299227,0,,,,,,,,,,,,,,,,,,,,1001,2019_Mar_01_1450,mf_amp_cond1,3.0.4,59.98157076993934,
gournful,idexpressible,&&&&&&&&&&&&&,None,nonword,,,,,0,234,234,234,,,,,,,,,,,,,,,,,,,,,,,AMP,left,0.13360335701145232,,,left,0,0.13360335701145232,0,,,,,,,,,,,,,,,,,,,,1001,2019_Mar_01_1450,mf_amp_cond1,3.0.4,59.98157076993934,
interests,neneficence,&&&&&&&&&&&,left,fairness.virtue,,,,,0,235,235,235,,,,,,,,,,,,,,,,,,,,,,,AMP,left,0.4336763526080176,,,left,1,0.4336763526080176,1,,,,,,,,,,,,,,,,,,,,1001,2019_Mar_01_1450,mf_amp_cond1,3.0.4,59.98157076993934,
peace,synchronazers,&&&&&&&&&&&&&,left,care.virtue,,,,,0,236,236,236,,,,,,,,,,,,,,,,,,,,,,,AMP,right,0.3836445694323629,,,right,0,0.3836445694323629,0,,,,,,,,,,,,,,,,,,,,1001,2019_Mar_01_1450,mf_amp_cond1,3.0.4,59.98157076993934,
crime,tislay,&&&&&&,right,fairness.vice,,,,,0,237,237,237,,,,,,,,,,,,,,,,,,,,,,,AMP,right,0.4336731453659013,,,right,1,0.4336731453659013,1,,,,,,,,,,,,,,,,,,,,1001,2019_Mar_01_1450,mf_amp_cond1,3.0.4,59.98157076993934,
embrace,halaise,&&&&&&&,left,authority.virtue,,,,,0,238,238,238,,,,,,,,,,,,,,,,,,,,,,,AMP,right,0.3503081143135205,,,right,0,0.3503081143135205,0,,,,,,,,,,,,,,,,,,,,1001,2019_Mar_01_1450,mf_amp_cond1,3.0.4,59.98157076993934,
protesters,vicissifude,&&&&&&&&&&&,right,authority.vice,,,,,0,239,239,239,,,,,,,,,,,,,,,,,,,,,,,AMP,left,0.2169452962698415,,,left,0,0.2169452962698415,0,,,,,,,,,,,,,,,,,,,,1001,2019_Mar_01_1450,mf_amp_cond1,3.0.4,59.98157076993934,
troops,festate,&&&&&&&,right,loyalty.vice,,,,,0,240,240,240,,,,,,,,,,,,,,,,,,,,,,,AMP,left,0.6170507486676797,,,left,0,0.6170507486676797,0,,,,,,,,,,,,,,,,,,,,1001,2019_Mar_01_1450,mf_amp_cond1,3.0.4,59.98157076993934,
hope,Oregoniuns,&&&&&&&&&&,left,loyalty.virtue,,,,,0,241,241,241,,,,,,,,,,,,,,,,,,,,,,,AMP,right,0.5837181422393769,,,right,0,0.5837181422393769,0,,,,,,,,,,,,,,,,,,,,1001,2019_Mar_01_1450,mf_amp_cond1,3.0.4,59.98157076993934,
injured,chadows,&&&&&&&,right,care.vice,,,,,0,242,242,242,,,,,,,,,,,,,,,,,,,,,,,AMP,left,0.11692470614798367,,,left,0,0.11692470614798367,0,,,,,,,,,,,,,,,,,,,,1001,2019_Mar_01_1450,mf_amp_cond1,3.0.4,59.98157076993934,
army,quarterbocks,&&&&&&&&&&&&,right,loyalty.vice,,,,,0,243,243,243,,,,,,,,,,,,,,,,,,,,,,,AMP,left,0.3002635024022311,,,left,0,0.3002635024022311,0,,,,,,,,,,,,,,,,,,,,1001,2019_Mar_01_1450,mf_amp_cond1,3.0.4,59.98157076993934,
unpleasant,feleological,&&&&&&&&&&&&,None,control,,,,,0,244,244,244,,,,,,,,,,,,,,,,,,,,,,,AMP,left,0.2502916936064139,,,left,0,0.2502916936064139,0,,,,,,,,,,,,,,,,,,,,1001,2019_Mar_01_1450,mf_amp_cond1,3.0.4,59.98157076993934,
serial,brudent,&&&&&&&,right,sanctity.vice,,,,,0,245,245,245,,,,,,,,,,,,,,,,,,,,,,,AMP,left,0.2836069811601192,,,left,0,0.2836069811601192,0,,,,,,,,,,,,,,,,,,,,1001,2019_Mar_01_1450,mf_amp_cond1,3.0.4,59.98157076993934,
honored,fegard,&&&&&&,left,authority.virtue,,,,,0,246,246,246,,,,,,,,,,,,,,,,,,,,,,,AMP,left,0.16693981201387942,,,left,1,0.16693981201387942,1,,,,,,,,,,,,,,,,,,,,1001,2019_Mar_01_1450,mf_amp_cond1,3.0.4,59.98157076993934,
agreement,gedious,&&&&&&&,left,fairness.virtue,,,,,0,247,247,247,,,,,,,,,,,,,,,,,,,,,,,AMP,left,0.08357895025983453,,,left,1,0.08357895025983453,1,,,,,,,,,,,,,,,,,,,,1001,2019_Mar_01_1450,mf_amp_cond1,3.0.4,59.98157076993934,
officers,smapper,&&&&&&&,right,authority.vice,,,,,0,248,248,248,,,,,,,,,,,,,,,,,,,,,,,AMP,right,0.05023928813170642,,,right,1,0.05023928813170642,1,,,,,,,,,,,,,,,,,,,,1001,2019_Mar_01_1450,mf_amp_cond1,3.0.4,59.98157076993934,
pleasant,pharing,&&&&&&&,None,control,,,,,0,249,249,249,,,,,,,,,,,,,,,,,,,,,,,AMP,left,0.00026202714070677757,,,left,0,0.00026202714070677757,0,,,,,,,,,,,,,,,,,,,,1001,2019_Mar_01_1450,mf_amp_cond1,3.0.4,59.98157076993934,
troops,shoirmaster,&&&&&&&&&&&,right,loyalty.vice,,,,,0,250,250,250,,,,,,,,,,,,,,,,,,,,,,,AMP,right,0.1002537525491789,,,right,1,0.1002537525491789,1,,,,,,,,,,,,,,,,,,,,1001,2019_Mar_01_1450,mf_amp_cond1,3.0.4,59.98157076993934,
sexual,quarterbocks,&&&&&&&&&&&&,right,sanctity.vice,,,,,0,251,251,251,,,,,,,,,,,,,,,,,,,,,,,AMP,right,0.05025628628209233,,,right,1,0.05025628628209233,1,,,,,,,,,,,,,,,,,,,,1001,2019_Mar_01_1450,mf_amp_cond1,3.0.4,59.98157076993934,
army,sliptery,&&&&&&&&,right,loyalty.vice,,,,,0,252,252,252,,,,,,,,,,,,,,,,,,,,,,,AMP,right,0.28358260658569634,,,right,1,0.28358260658569634,1,,,,,,,,,,,,,,,,,,,,1001,2019_Mar_01_1450,mf_amp_cond1,3.0.4,59.98157076993934,
unpleasant,gikely,&&&&&&,None,control,,,,,0,253,253,253,,,,,,,,,,,,,,,,,,,,,,,AMP,right,0.45034377835690975,,,right,0,0.45034377835690975,0,,,,,,,,,,,,,,,,,,,,1001,2019_Mar_01_1450,mf_amp_cond1,3.0.4,59.98157076993934,
harassment,hefurbished,&&&&&&&&&&&,right,sanctity.vice,,,,,0,254,254,254,,,,,,,,,,,,,,,,,,,,,,,AMP,right,0.3503318475559354,,,right,1,0.3503318475559354,1,,,,,,,,,,,,,,,,,,,,1001,2019_Mar_01_1450,mf_amp_cond1,3.0.4,59.98157076993934,
ning,fontacts,&&&&&&&&,None,nonword,,,,,0,255,255,255,,,,,,,,,,,,,,,,,,,,,,,AMP,left,0.45020234142430127,,,left,0,0.45020234142430127,0,,,,,,,,,,,,,,,,,,,,1001,2019_Mar_01_1450,mf_amp_cond1,3.0.4,59.98157076993934,
torture,ugeasily,&&&&&&&&,right,care.vice,,,,,0,256,256,256,,,,,,,,,,,,,,,,,,,,,,,AMP,left,0.26697258942294866,,,left,0,0.26697258942294866,0,,,,,,,,,,,,,,,,,,,,1001,2019_Mar_01_1450,mf_amp_cond1,3.0.4,59.98157076993934,
clean,drumbled,&&&&&&&&,left,sanctity.virtue,,,,,0,257,257,257,,,,,,,,,,,,,,,,,,,,,,,AMP,right,0.26697226881515235,,,right,0,0.26697226881515235,0,,,,,,,,,,,,,,,,,,,,1001,2019_Mar_01_1450,mf_amp_cond1,3.0.4,59.98157076993934,
victims,emports,&&&&&&&,right,care.vice,,,,,0,258,258,258,,,,,,,,,,,,,,,,,,,,,,,AMP,right,0.00026715861167758703,,,right,1,0.00026715861167758703,1,,,,,,,,,,,,,,,,,,,,1001,2019_Mar_01_1450,mf_amp_cond1,3.0.4,59.98157076993934,
peaceful,squets,&&&&&&,left,authority.virtue,,,,,0,259,259,259,,,,,,,,,,,,,,,,,,,,,,,AMP,left,0.4503431369084865,,,left,1,0.4503431369084865,1,,,,,,,,,,,,,,,,,,,,1001,2019_Mar_01_1450,mf_amp_cond1,3.0.4,59.98157076993934,
abuse,nomaric,&&&&&&&,right,sanctity.vice,,,,,0,260,260,260,,,,,,,,,,,,,,,,,,,,,,,AMP,left,0.36699157604016364,,,left,0,0.36699157604016364,0,,,,,,,,,,,,,,,,,,,,1001,2019_Mar_01_1450,mf_amp_cond1,3.0.4,59.98157076993934,
crime,taxpayung,&&&&&&&&&,right,fairness.vice,,,,,0,261,261,261,,,,,,,,,,,,,,,,,,,,,,,AMP,left,0.16695103724487126,,,left,0,0.16695103724487126,0,,,,,,,,,,,,,,,,,,,,1001,2019_Mar_01_1450,mf_amp_cond1,3.0.4,59.98157076993934,
riot,mecan,&&&&&,right,authority.vice,,,,,0,262,262,262,,,,,,,,,,,,,,,,,,,,,,,AMP,left,0.016941960784606636,,,left,0,0.016941960784606636,0,,,,,,,,,,,,,,,,,,,,1001,2019_Mar_01_1450,mf_amp_cond1,3.0.4,59.98157076993934,
terrorists,aubos,&&&&&,right,fairness.vice,,,,,0,263,263,263,,,,,,,,,,,,,,,,,,,,,,,AMP,left,0.11693208268843591,,,left,0,0.11693208268843591,0,,,,,,,,,,,,,,,,,,,,1001,2019_Mar_01_1450,mf_amp_cond1,3.0.4,59.98157076993934,
refused,halaise,&&&&&&&,right,authority.vice,,,,,0,264,264,264,,,,,,,,,,,,,,,,,,,,,,,AMP,right,0.3169796774163842,,,right,1,0.3169796774163842,1,,,,,,,,,,,,,,,,,,,,1001,2019_Mar_01_1450,mf_amp_cond1,3.0.4,59.98157076993934,
support,photocalkodes,&&&&&&&&&&&&&,left,loyalty.virtue,,,,,0,265,265,265,,,,,,,,,,,,,,,,,,,,,,,AMP,left,0.08357189456000924,,,left,1,0.08357189456000924,1,,,,,,,,,,,,,,,,,,,,1001,2019_Mar_01_1450,mf_amp_cond1,3.0.4,59.98157076993934,
health,simplustic,&&&&&&&&&&,left,care.virtue,,,,,0,266,266,266,,,,,,,,,,,,,,,,,,,,,,,AMP,left,0.01689289091154933,,,left,1,0.01689289091154933,1,,,,,,,,,,,,,,,,,,,,1001,2019_Mar_01_1450,mf_amp_cond1,3.0.4,59.98157076993934,
energy,framatic,&&&&&&&&,left,sanctity.virtue,,,,,0,267,267,267,,,,,,,,,,,,,,,,,,,,,,,AMP,right,0.16693596343975514,,,right,0,0.16693596343975514,0,,,,,,,,,,,,,,,,,,,,1001,2019_Mar_01_1450,mf_amp_cond1,3.0.4,59.98157076993934,
restore,uller,&&&&&,left,care.virtue,,,,,0,268,268,268,,,,,,,,,,,,,,,,,,,,,,,AMP,left,0.1669494336238131,,,left,1,0.1669494336238131,1,,,,,,,,,,,,,,,,,,,,1001,2019_Mar_01_1450,mf_amp_cond1,3.0.4,59.98157076993934,
increase,faspberry,&&&&&&&&&,left,care.virtue,,,,,0,269,269,269,,,,,,,,,,,,,,,,,,,,,,,AMP,left,0.21696967096067965,,,left,1,0.21696967096067965,1,,,,,,,,,,,,,,,,,,,,1001,2019_Mar_01_1450,mf_amp_cond1,3.0.4,59.98157076993934,
great,coom,&&&&,left,loyalty.virtue,,,,,0,270,270,270,,,,,,,,,,,,,,,,,,,,,,,AMP,left,0.18359120190143585,,,left,1,0.18359120190143585,1,,,,,,,,,,,,,,,,,,,,1001,2019_Mar_01_1450,mf_amp_cond1,3.0.4,59.98157076993934,
safe,chadows,&&&&&&&,left,care.virtue,,,,,0,271,271,271,,,,,,,,,,,,,,,,,,,,,,,AMP,right,0.06692563625983894,,,right,0,0.06692563625983894,0,,,,,,,,,,,,,,,,,,,,1001,2019_Mar_01_1450,mf_amp_cond1,3.0.4,59.98157076993934,
terrorist,tenuflect,&&&&&&&&&,right,loyalty.vice,,,,,0,272,272,272,,,,,,,,,,,,,,,,,,,,,,,AMP,right,0.11689487937837839,,,right,1,0.11689487937837839,1,,,,,,,,,,,,,,,,,,,,1001,2019_Mar_01_1450,mf_amp_cond1,3.0.4,59.98157076993934,
forced,totalestic,&&&&&&&&&&,right,fairness.vice,,,,,0,273,273,273,,,,,,,,,,,,,,,,,,,,,,,AMP,left,0.08360300422646105,,,left,0,0.08360300422646105,0,,,,,,,,,,,,,,,,,,,,1001,2019_Mar_01_1450,mf_amp_cond1,3.0.4,59.98157076993934,
lies,Loorish,&&&&&&&,right,fairness.vice,,,,,0,274,274,274,,,,,,,,,,,,,,,,,,,,,,,AMP,left,0.11691732972394675,,,left,0,0.11691732972394675,0,,,,,,,,,,,,,,,,,,,,1001,2019_Mar_01_1450,mf_amp_cond1,3.0.4,59.98157076993934,
commitment,abointment,&&&&&&&&&&,left,sanctity.virtue,,,,,0,275,275,275,,,,,,,,,,,,,,,,,,,,,,,AMP,left,0.11693464848212898,,,left,1,0.11693464848212898,1,,,,,,,,,,,,,,,,,,,,1001,2019_Mar_01_1450,mf_amp_cond1,3.0.4,59.98157076993934,
war,pafer,&&&&&,right,sanctity.vice,,,,,0,276,276,276,,,,,,,,,,,,,,,,,,,,,,,AMP,left,0.2834963332861662,,,left,0,0.2834963332861662,0,,,,,,,,,,,,,,,,,,,,1001,2019_Mar_01_1450,mf_amp_cond1,3.0.4,59.98157076993934,
win,fangsters,&&&&&&&&&,left,fairness.virtue,,,,,0,277,277,277,,,,,,,,,,,,,,,,,,,,,,,AMP,left,0.1503054202767089,,,left,1,0.1503054202767089,1,,,,,,,,,,,,,,,,,,,,1001,2019_Mar_01_1450,mf_amp_cond1,3.0.4,59.98157076993934,
groups,Daptist,&&&&&&&,right,loyalty.vice,,,,,0,278,278,278,,,,,,,,,,,,,,,,,,,,,,,AMP,left,0.10026144981384277,,,left,0,0.10026144981384277,0,,,,,,,,,,,,,,,,,,,,1001,2019_Mar_01_1450,mf_amp_cond1,3.0.4,59.98157076993934,
injured,lursuer,&&&&&&&,right,care.vice,,,,,0,279,279,279,,,,,,,,,,,,,,,,,,,,,,,AMP,left,0.3169835259905085,,,left,0,0.3169835259905085,0,,,,,,,,,,,,,,,,,,,,1001,2019_Mar_01_1450,mf_amp_cond1,3.0.4,59.98157076993934,
rebels,lorthwhile,&&&&&&&&&&,right,authority.vice,,,,,0,280,280,280,,,,,,,,,,,,,,,,,,,,,,,AMP,left,0.2169481827877462,,,left,0,0.2169481827877462,0,,,,,,,,,,,,,,,,,,,,1001,2019_Mar_01_1450,mf_amp_cond1,3.0.4,59.98157076993934,
gaultless,gillipede,&&&&&&&&&,None,nonword,,,,,0,281,281,281,,,,,,,,,,,,,,,,,,,,,,,AMP,left,0.06693878571968526,,,left,0,0.06693878571968526,0,,,,,,,,,,,,,,,,,,,,1001,2019_Mar_01_1450,mf_amp_cond1,3.0.4,59.98157076993934,
died,precificity,&&&&&&&&&&&,right,care.vice,,,,,0,282,282,282,,,,,,,,,,,,,,,,,,,,,,,AMP,left,0.06691858044359833,,,left,0,0.06691858044359833,0,,,,,,,,,,,,,,,,,,,,1001,2019_Mar_01_1450,mf_amp_cond1,3.0.4,59.98157076993934,
respect,stindig,&&&&&&&,left,sanctity.virtue,,,,,0,283,283,283,,,,,,,,,,,,,,,,,,,,,,,AMP,left,0.10024252731818706,,,left,1,0.10024252731818706,1,,,,,,,,,,,,,,,,,,,,1001,2019_Mar_01_1450,mf_amp_cond1,3.0.4,59.98157076993934,
promises,egpeditious,&&&&&&&&&&&,left,fairness.virtue,,,,,0,284,284,284,,,,,,,,,,,,,,,,,,,,,,,AMP,right,0.7170806395588443,,,right,0,0.7170806395588443,0,,,,,,,,,,,,,,,,,,,,1001,2019_Mar_01_1450,mf_amp_cond1,3.0.4,59.98157076993934,
disregord,wonderfujnoss,&&&&&&&&&&&&&,None,nonword,,,,,0,285,285,285,,,,,,,,,,,,,,,,,,,,,,,AMP,right,0.8837901756633073,,,right,0,0.8837901756633073,0,,,,,,,,,,,,,,,,,,,,1001,2019_Mar_01_1450,mf_amp_cond1,3.0.4,59.98157076993934,
attacks,sgrawl,&&&&&&,right,care.vice,,,,,0,286,286,286,,,,,,,,,,,,,,,,,,,,,,,AMP,left,0.31697518727742136,,,left,0,0.31697518727742136,0,,,,,,,,,,,,,,,,,,,,1001,2019_Mar_01_1450,mf_amp_cond1,3.0.4,59.98157076993934,
hate,synchronazers,&&&&&&&&&&&&&,right,fairness.vice,,,,,0,287,287,287,,,,,,,,,,,,,,,,,,,,,,,AMP,left,0.05025372048839927,,,left,0,0.05025372048839927,0,,,,,,,,,,,,,,,,,,,,1001,2019_Mar_01_1450,mf_amp_cond1,3.0.4,59.98157076993934,
strong,discovars,&&&&&&&&&,left,loyalty.virtue,,,,,0,288,288,288,,,,,,,,,,,,,,,,,,,,,,,AMP,left,0.16694173635914922,,,left,1,0.16694173635914922,1,,,,,,,,,,,,,,,,,,,,1001,2019_Mar_01_1450,mf_amp_cond1,3.0.4,59.98157076993934,
interests,iptervention,&&&&&&&&&&&&,left,fairness.virtue,,,,,0,289,289,289,,,,,,,,,,,,,,,,,,,,,,,AMP,left,0.36698355805128813,,,left,1,0.36698355805128813,1,,,,,,,,,,,,,,,,,,,,1001,2019_Mar_01_1450,mf_amp_cond1,3.0.4,59.98157076993934,
friends,prones,&&&&&&,left,loyalty.virtue,,,,,0,290,290,290,,,,,,,,,,,,,,,,,,,,,,,AMP,left,0.033573466120287776,,,left,1,0.033573466120287776,1,,,,,,,,,,,,,,,,,,,,1001,2019_Mar_01_1450,mf_amp_cond1,3.0.4,59.98157076993934,
victim,gusinesslike,&&&&&&&&&&&&,right,care.vice,,,,,0,291,291,291,,,,,,,,,,,,,,,,,,,,,,,AMP,left,0.000265554990619421,,,left,0,0.000265554990619421,0,,,,,,,,,,,,,,,,,,,,1001,2019_Mar_01_1450,mf_amp_cond1,3.0.4,59.98157076993934,
neputized,papert,&&&&&&,None,nonword,,,,,0,292,292,292,,,,,,,,,,,,,,,,,,,,,,,AMP,left,0.0002668378874659538,,,left,0,0.0002668378874659538,0,,,,,,,,,,,,,,,,,,,,1001,2019_Mar_01_1450,mf_amp_cond1,3.0.4,59.98157076993934,
scandal,neutralust,&&&&&&&&&&,right,sanctity.vice,,,,,0,293,293,293,,,,,,,,,,,,,,,,,,,,,,,AMP,left,0.06691954261623323,,,left,0,0.06691954261623323,0,,,,,,,,,,,,,,,,,,,,1001,2019_Mar_01_1450,mf_amp_cond1,3.0.4,59.98157076993934,
conspiracy,proached,&&&&&&&&,right,sanctity.vice,,,,,0,294,294,294,,,,,,,,,,,,,,,,,,,,,,,AMP,left,0.0002658757148310542,,,left,0,0.0002658757148310542,0,,,,,,,,,,,,,,,,,,,,1001,2019_Mar_01_1450,mf_amp_cond1,3.0.4,59.98157076993934,
penalty,nomparisons,&&&&&&&&&&&,right,authority.vice,,,,,0,295,295,295,,,,,,,,,,,,,,,,,,,,,,,AMP,right,0.3669941417174414,,,right,1,0.3669941417174414,1,,,,,,,,,,,,,,,,,,,,1001,2019_Mar_01_1450,mf_amp_cond1,3.0.4,59.98157076993934,
values,unreflectuve,&&&&&&&&&&&&,left,sanctity.virtue,,,,,0,296,296,296,,,,,,,,,,,,,,,,,,,,,,,AMP,right,0.13360977137926966,,,right,0,0.13360977137926966,0,,,,,,,,,,,,,,,,,,,,1001,2019_Mar_01_1450,mf_amp_cond1,3.0.4,59.98157076993934,
opportunity,slending,&&&&&&&&,left,fairness.virtue,,,,,0,297,297,297,,,,,,,,,,,,,,,,,,,,,,,AMP,left,0.21694593771826476,,,left,1,0.21694593771826476,1,,,,,,,,,,,,,,,,,,,,1001,2019_Mar_01_1450,mf_amp_cond1,3.0.4,59.98157076993934,
integrity,nackers,&&&&&&&,left,fairness.virtue,,,,,0,298,298,298,,,,,,,,,,,,,,,,,,,,,,,AMP,left,0.40032706886995584,,,left,1,0.40032706886995584,1,,,,,,,,,,,,,,,,,,,,1001,2019_Mar_01_1450,mf_amp_cond1,3.0.4,59.98157076993934,
prison,leact,&&&&&,right,fairness.vice,,,,,0,299,299,299,,,,,,,,,,,,,,,,,,,,,,,AMP,left,0.03357186249922961,,,left,0,0.03357186249922961,0,,,,,,,,,,,,,,,,,,,,1001,2019_Mar_01_1450,mf_amp_cond1,3.0.4,59.98157076993934,
protesters,ittutable,&&&&&&&&&,right,authority.vice,,,,,0,300,300,300,,,,,,,,,,,,,,,,,,,,,,,AMP,left,0.08355104783549905,,,left,0,0.08355104783549905,0,,,,,,,,,,,,,,,,,,,,1001,2019_Mar_01_1450,mf_amp_cond1,3.0.4,59.98157076993934,
serial,festate,&&&&&&&,right,sanctity.vice,,,,,0,301,301,301,,,,,,,,,,,,,,,,,,,,,,,AMP,left,0.10025824257172644,,,left,0,0.10025824257172644,0,,,,,,,,,,,,,,,,,,,,1001,2019_Mar_01_1450,mf_amp_cond1,3.0.4,59.98157076993934,
critics,Cunday,&&&&&&,right,loyalty.vice,,,,,0,302,302,302,,,,,,,,,,,,,,,,,,,,,,,AMP,left,0.05027937807608396,,,left,0,0.05027937807608396,0,,,,,,,,,,,,,,,,,,,,1001,2019_Mar_01_1450,mf_amp_cond1,3.0.4,59.98157076993934,
celebrated,idexpressible,&&&&&&&&&&&&&,left,authority.virtue,,,,,0,303,303,303,,,,,,,,,,,,,,,,,,,,,,,AMP,left,0.40035016066394746,,,left,1,0.40035016066394746,1,,,,,,,,,,,,,,,,,,,,1001,2019_Mar_01_1450,mf_amp_cond1,3.0.4,59.98157076993934,
party,sickyay,&&&&&&&,left,loyalty.virtue,,,,,0,304,304,304,,,,,,,,,,,,,,,,,,,,,,,AMP,left,0.2336152878124267,,,left,1,0.2336152878124267,1,,,,,,,,,,,,,,,,,,,,1001,2019_Mar_01_1450,mf_amp_cond1,3.0.4,59.98157076993934,
powerful,hasks,&&&&&,left,authority.virtue,,,,,0,305,305,305,,,,,,,,,,,,,,,,,,,,,,,AMP,left,0.16693788766860962,,,left,1,0.16693788766860962,1,,,,,,,,,,,,,,,,,,,,1001,2019_Mar_01_1450,mf_amp_cond1,3.0.4,59.98157076993934,
betrayal,feleological,&&&&&&&&&&&&,right,loyalty.vice,,,,,0,306,306,306,,,,,,,,,,,,,,,,,,,,,,,AMP,left,0.05024153320118785,,,left,0,0.05024153320118785,0,,,,,,,,,,,,,,,,,,,,1001,2019_Mar_01_1450,mf_amp_cond1,3.0.4,59.98157076993934,
useful,antral,&&&&&&,left,authority.virtue,,,,,0,307,307,307,,,,,,,,,,,,,,,,,,,,,,,AMP,left,0.23362811654806137,,,left,1,0.23362811654806137,1,,,,,,,,,,,,,,,,,,,,1001,2019_Mar_01_1450,mf_amp_cond1,3.0.4,59.98157076993934,
erks,ablow,&&&&&,None,nonword,,,,,0,308,308,308,,,,,,,,,,,,,,,,,,,,,,,AMP,left,0.6003846056992188,,,left,0,0.6003846056992188,0,,,,,,,,,,,,,,,,,,,,1001,2019_Mar_01_1450,mf_amp_cond1,3.0.4,59.98157076993934,
ability,vurtain,&&&&&&&,left,authority.virtue,,,,,0,309,309,309,,,,,,,,,,,,,,,,,,,,,,,AMP,left,0.48377933527808636,,,left,1,0.48377933527808636,1,,,,,,,,,,,,,,,,,,,,1001,2019_Mar_01_1450,mf_amp_cond1,3.0.4,59.98157076993934,
godlaness,brudent,&&&&&&&,None,nonword,,,,,0,310,310,310,,,,,,,,,,,,,,,,,,,,,,,AMP,left,0.050238005351275206,,,left,0,0.050238005351275206,0,,,,,,,,,,,,,,,,,,,,1001,2019_Mar_01_1450,mf_amp_cond1,3.0.4,59.98157076993934,
benefit,lempestuous,&&&&&&&&&&&,left,fairness.virtue,,,,,0,311,311,311,,,,,,,,,,,,,,,,,,,,,,,AMP,left,0.43368180480320007,,,left,1,0.43368180480320007,1,,,,,,,,,,,,,,,,,,,,1001,2019_Mar_01_1450,mf_amp_cond1,3.0.4,59.98157076993934,
safety,infet,&&&&&,left,care.virtue,,,,,0,312,312,312,,,,,,,,,,,,,,,,,,,,,,,AMP,left,0.450338326045312,,,left,1,0.450338326045312,1,,,,,,,,,,,,,,,,,,,,1001,2019_Mar_01_1450,mf_amp_cond1,3.0.4,59.98157076993934,
peace,pistraught,&&&&&&&&&&,left,care.virtue,,,,,0,313,313,313,,,,,,,,,,,,,,,,,,,,,,,AMP,left,0.3169816016452387,,,left,1,0.3169816016452387,1,,,,,,,,,,,,,,,,,,,,1001,2019_Mar_01_1450,mf_amp_cond1,3.0.4,59.98157076993934,
chared,troubla,&&&&&&&,None,nonword,,,,,0,314,314,314,,,,,,,,,,,,,,,,,,,,,,,AMP,left,0.4336773146642372,,,left,0,0.4336773146642372,0,,,,,,,,,,,,,,,,,,,,1001,2019_Mar_01_1450,mf_amp_cond1,3.0.4,59.98157076993934,
embrace,wump,&&&&,left,authority.virtue,,,,,0,315,315,315,,,,,,,,,,,,,,,,,,,,,,,AMP,left,0.40038896759506315,,,left,1,0.40038896759506315,1,,,,,,,,,,,,,,,,,,,,1001,2019_Mar_01_1450,mf_amp_cond1,3.0.4,59.98157076993934,
hope,crilfully,&&&&&&&&&,left,loyalty.virtue,,,,,0,316,316,316,,,,,,,,,,,,,,,,,,,,,,,AMP,left,0.3336230490822345,,,left,1,0.3336230490822345,1,,,,,,,,,,,,,,,,,,,,1001,2019_Mar_01_1450,mf_amp_cond1,3.0.4,59.98157076993934,
care,tislay,&&&&&&,left,care.virtue,,,,,0,317,317,317,,,,,,,,,,,,,,,,,,,,,,,AMP,left,0.1001119950087741,,,left,1,0.1001119950087741,1,,,,,,,,,,,,,,,,,,,,1001,2019_Mar_01_1450,mf_amp_cond1,3.0.4,59.98157076993934,
noped,crinking,&&&&&&&&,None,nonword,,,,,0,318,318,318,,,,,,,,,,,,,,,,,,,,,,,AMP,left,0.08357061166316271,,,left,0,0.08357061166316271,0,,,,,,,,,,,,,,,,,,,,1001,2019_Mar_01_1450,mf_amp_cond1,3.0.4,59.98157076993934,
shot,frojecting,&&&&&&&&&&,right,care.vice,,,,,0,319,319,319,,,,,,,,,,,,,,,,,,,,,,,AMP,left,1.017153314431198,,,left,0,1.017153314431198,0,,,,,,,,,,,,,,,,,,,,1001,2019_Mar_01_1450,mf_amp_cond1,3.0.4,59.98157076993934,
menizen,atson,&&&&&,None,nonword,,,,,0,320,320,320,,,,,,,,,,,,,,,,,,,,,,,AMP,left,0.13359694264363497,,,left,0,0.13359694264363497,0,,,,,,,,,,,,,,,,,,,,1001,2019_Mar_01_1450,mf_amp_cond1,3.0.4,59.98157076993934,
gournful,fonderland,&&&&&&&&&&,None,nonword,,,,,0,321,321,321,,,,,,,,,,,,,,,,,,,,,,,AMP,left,0.06691601476632059,,,left,0,0.06691601476632059,0,,,,,,,,,,,,,,,,,,,,1001,2019_Mar_01_1450,mf_amp_cond1,3.0.4,59.98157076993934,
gun,vicissifude,&&&&&&&&&&&,right,authority.vice,,,,,0,322,322,322,,,,,,,,,,,,,,,,,,,,,,,AMP,left,0.23362298507709056,,,left,0,0.23362298507709056,0,,,,,,,,,,,,,,,,,,,,1001,2019_Mar_01_1450,mf_amp_cond1,3.0.4,59.98157076993934,
strength,reviked,&&&&&&&,left,sanctity.virtue,,,,,0,323,323,323,,,,,,,,,,,,,,,,,,,,,,,AMP,left,0.13359950843732804,,,left,1,0.13359950843732804,1,,,,,,,,,,,,,,,,,,,,1001,2019_Mar_01_1450,mf_amp_cond1,3.0.4,59.98157076993934,
charges,neneficence,&&&&&&&&&&&,right,fairness.vice,,,,,0,324,324,324,,,,,,,,,,,,,,,,,,,,,,,AMP,left,0.10021943564061075,,,left,0,0.10021943564061075,0,,,,,,,,,,,,,,,,,,,,1001,2019_Mar_01_1450,mf_amp_cond1,3.0.4,59.98157076993934,
loyalty,laming,&&&&&&,left,loyalty.virtue,,,,,0,325,325,325,,,,,,,,,,,,,,,,,,,,,,,AMP,right,0.63371689140331,,,right,0,0.63371689140331,0,,,,,,,,,,,,,,,,,,,,1001,2019_Mar_01_1450,mf_amp_cond1,3.0.4,59.98157076993934,
men,Oregoniuns,&&&&&&&&&&,right,loyalty.vice,,,,,0,326,326,326,,,,,,,,,,,,,,,,,,,,,,,AMP,right,0.28361371625214815,,,right,1,0.28361371625214815,1,,,,,,,,,,,,,,,,,,,,1001,2019_Mar_01_1450,mf_amp_cond1,3.0.4,59.98157076993934,
perfect,viscs,&&&&&,left,sanctity.virtue,,,,,0,327,327,327,,,,,,,,,,,,,,,,,,,,,,,AMP,right,0.33364614099264145,,,right,0,0.33364614099264145,0,,,,,,,,,,,,,,,,,,,,1001,2019_Mar_01_1450,mf_amp_cond1,3.0.4,59.98157076993934,
,,,,,,,,,,,,,,,,,,,,,,,,,,,,,,,,,,,,,,,,,,,,1,10.788,,,,,,,,,,,,,,,,,,1001,2019_Mar_01_1450,mf_amp_cond1,3.0.4,59.98157076993934,
,,,,,,,,,,,,,,,,,,,,,,,,,,,,,,,,,,,,,,,,,,,,,,4,6.754,,,,,,,,,,,,,,,,1001,2019_Mar_01_1450,mf_amp_cond1,3.0.4,59.98157076993934,
,,,,,,,,,,,,,,,,,,,,,,,,,,,,,,,,,,,,,,,,,,,,,,,,1,5.587,,,,,,,,,,,,,,1001,2019_Mar_01_1450,mf_amp_cond1,3.0.4,59.98157076993934,
,,,,,,,,,,,,,,,,,,,,,,,,,,,,,,,,,,,,,,,,,,,,,,,,,,right,1.3672398121561855,,,,,,,,,,,,1001,2019_Mar_01_1450,mf_amp_cond1,3.0.4,59.98157076993934,
keyboard,,&&&&&&&,,,,,,,,,,,0,0,0,0,,,,,,,,,,,,,,,,,,,LDT_prac,right,1.4672568744281307,,,,,,0,,,,,,,,,right,1.4672568744281307,,,,,,,,,,1001,2019_Mar_01_1450,mf_amp_cond1,3.0.4,59.98157076993934,
bisebell,,&&&&&&&,,,,,,,,,,,0,1,1,1,,,,,,,,,,,,,,,,,,,LDT_prac,right,0.5337007913039997,,,,,,0,,,,,,,,,right,0.5337007913039997,,,,,,,,,,1001,2019_Mar_01_1450,mf_amp_cond1,3.0.4,59.98157076993934,
,,,,,,,,,,,,,,,,,,,,,,,,,,,,,,,,,,,,,,,,,,,,,,,,,,,,,,right,1.48394258110784,,,,,,,,1001,2019_Mar_01_1450,mf_amp_cond1,3.0.4,59.98157076993934,
corruption,,&&&&&&&&&&,left,sanctity.vice,,,,,,,,,,,,,0,0,0,34,,,,,,,,,,,,,,,LDT,right,0.7502827134449035,,,,,,0,,,,,,,,,,,,,right,0,0.7502827134449035,,,,,1001,2019_Mar_01_1450,mf_amp_cond1,3.0.4,59.98157076993934,
whereafter,,&&&&&&&&&&,left,neutral,,,,,,,,,,,,,0,1,1,10,,,,,,,,,,,,,,,LDT,right,1.500619949074462,,,,,,0,,,,,,,,,,,,,right,0,1.500619949074462,,,,,1001,2019_Mar_01_1450,mf_amp_cond1,3.0.4,59.98157076993934,
besides,,&&&&&&&,left,neutral,,,,,,,,,,,,,0,2,2,62,,,,,,,,,,,,,,,LDT,right,0.5337229209253564,,,,,,0,,,,,,,,,,,,,right,0,0.5337229209253564,,,,,1001,2019_Mar_01_1450,mf_amp_cond1,3.0.4,59.98157076993934,
pulge,,&&&&&,right,nonword,,,,,,,,,,,,,0,3,3,193,,,,,,,,,,,,,,,LDT,left,0.7004186661215499,,,,,,0,,,,,,,,,,,,,left,0,0.7004186661215499,,,,,1001,2019_Mar_01_1450,mf_amp_cond1,3.0.4,59.98157076993934,
clamorek,,&&&&&&&&,right,nonword,,,,,,,,,,,,,0,4,4,177,,,,,,,,,,,,,,,LDT,right,0.46701505267992616,,,,,,1,,,,,,,,,,,,,right,1,0.46701505267992616,,,,,1001,2019_Mar_01_1450,mf_amp_cond1,3.0.4,59.98157076993934,
divility,,&&&&&&&&,right,nonword,,,,,,,,,,,,,0,5,5,107,,,,,,,,,,,,,,,LDT,left,0.8004267482319847,,,,,,0,,,,,,,,,,,,,left,0,0.8004267482319847,,,,,1001,2019_Mar_01_1450,mf_amp_cond1,3.0.4,59.98157076993934,
police,,&&&&&&,left,authority.vice,,,,,,,,,,,,,0,6,6,153,,,,,,,,,,,,,,,LDT,right,0.7337580075254664,,,,,,0,,,,,,,,,,,,,right,0,0.7337580075254664,,,,,1001,2019_Mar_01_1450,mf_amp_cond1,3.0.4,59.98157076993934,
openet,,&&&&&&,None,nonword,,,,,,,,,,,,,0,7,7,81,,,,,,,,,,,,,,,LDT,left,0.46701922197826207,,,,,,0,,,,,,,,,,,,,left,0,0.46701922197826207,,,,,1001,2019_Mar_01_1450,mf_amp_cond1,3.0.4,59.98157076993934,
framo,,&&&&&,right,nonword,,,,,,,,,,,,,0,8,8,137,,,,,,,,,,,,,,,LDT,right,0.40031937160529196,,,,,,1,,,,,,,,,,,,,right,1,0.40031937160529196,,,,,1001,2019_Mar_01_1450,mf_amp_cond1,3.0.4,59.98157076993934,
perified,,&&&&&&&&,right,nonword,,,,,,,,,,,,,0,9,9,65,,,,,,,,,,,,,,,LDT,right,0.5670670730760321,,,,,,1,,,,,,,,,,,,,right,1,0.5670670730760321,,,,,1001,2019_Mar_01_1450,mf_amp_cond1,3.0.4,59.98157076993934,
hand,,&&&&,left,sanctity.virtue,,,,,,,,,,,,,0,10,10,82,,,,,,,,,,,,,,,LDT,left,0.6003740220330656,,,,,,1,,,,,,,,,,,,,left,1,0.6003740220330656,,,,,1001,2019_Mar_01_1450,mf_amp_cond1,3.0.4,59.98157076993934,
although,,&&&&&&&&,left,neutral,,,,,,,,,,,,,0,11,11,139,,,,,,,,,,,,,,,LDT,left,0.8004318797029555,,,,,,1,,,,,,,,,,,,,left,1,0.8004318797029555,,,,,1001,2019_Mar_01_1450,mf_amp_cond1,3.0.4,59.98157076993934,
threatened,,&&&&&&&&&&,left,fairness.vice,,,,,,,,,,,,,0,12,12,73,,,,,,,,,,,,,,,LDT,right,0.41701245482545346,,,,,,0,,,,,,,,,,,,,right,0,0.41701245482545346,,,,,1001,2019_Mar_01_1450,mf_amp_cond1,3.0.4,59.98157076993934,
killed,,&&&&&&,left,care.vice,,,,,,,,,,,,,0,13,13,149,,,,,,,,,,,,,,,LDT,left,0.4503473062068224,,,,,,1,,,,,,,,,,,,,left,1,0.4503473062068224,,,,,1001,2019_Mar_01_1450,mf_amp_cond1,3.0.4,59.98157076993934,
could,,&&&&&,left,neutral,,,,,,,,,,,,,0,14,14,180,,,,,,,,,,,,,,,LDT,right,0.3169697350822389,,,,,,0,,,,,,,,,,,,,right,0,0.3169697350822389,,,,,1001,2019_Mar_01_1450,mf_amp_cond1,3.0.4,59.98157076993934,
bluently,,&&&&&&&&,None,nonword,,,,,,,,,,,,,0,15,15,9,,,,,,,,,,,,,,,LDT,right,0.383663491695188,,,,,,0,,,,,,,,,,,,,right,0,0.383663491695188,,,,,1001,2019_Mar_01_1450,mf_amp_cond1,3.0.4,59.98157076993934,
sfumatoy,,&&&&&&&&,None,nonword,,,,,,,,,,,,,0,16,16,189,,,,,,,,,,,,,,,LDT,left,0.5337036778219044,,,,,,0,,,,,,,,,,,,,left,0,0.5337036778219044,,,,,1001,2019_Mar_01_1450,mf_amp_cond1,3.0.4,59.98157076993934,
drug,,&&&&,left,sanctity.vice,,,,,,,,,,,,,0,17,17,196,,,,,,,,,,,,,,,LDT,left,0.4336731453659013,,,,,,1,,,,,,,,,,,,,left,1,0.4336731453659013,,,,,1001,2019_Mar_01_1450,mf_amp_cond1,3.0.4,59.98157076993934,
reprisols,,&&&&&&&&&,right,nonword,,,,,,,,,,,,,0,18,18,32,,,,,,,,,,,,,,,LDT,right,0.46701922186184675,,,,,,1,,,,,,,,,,,,,right,1,0.46701922186184675,,,,,1001,2019_Mar_01_1450,mf_amp_cond1,3.0.4,59.98157076993934,
hatigue,,&&&&&&&,right,nonword,,,,,,,,,,,,,0,19,19,120,,,,,,,,,,,,,,,LDT,right,0.36698612372856587,,,,,,1,,,,,,,,,,,,,right,1,0.36698612372856587,,,,,1001,2019_Mar_01_1450,mf_amp_cond1,3.0.4,59.98157076993934,
lachelor,,&&&&&&&&,right,nonword,,,,,,,,,,,,,0,20,20,24,,,,,,,,,,,,,,,LDT,right,0.4503501926083118,,,,,,1,,,,,,,,,,,,,right,1,0.4503501926083118,,,,,1001,2019_Mar_01_1450,mf_amp_cond1,3.0.4,59.98157076993934,
emassion,,&&&&&&&&,right,nonword,,,,,,,,,,,,,0,21,21,190,,,,,,,,,,,,,,,LDT,right,0.4836888926802203,,,,,,1,,,,,,,,,,,,,right,1,0.4836888926802203,,,,,1001,2019_Mar_01_1450,mf_amp_cond1,3.0.4,59.98157076993934,
whither,,&&&&&&&,left,neutral,,,,,,,,,,,,,0,22,22,169,,,,,,,,,,,,,,,LDT,left,0.8004289931850508,,,,,,1,,,,,,,,,,,,,left,1,0.8004289931850508,,,,,1001,2019_Mar_01_1450,mf_amp_cond1,3.0.4,59.98157076993934,
actively,,&&&&&&&&,left,authority.virtue,,,,,,,,,,,,,0,23,23,170,,,,,,,,,,,,,,,LDT,left,0.46701216616202146,,,,,,1,,,,,,,,,,,,,left,1,0.46701216616202146,,,,,1001,2019_Mar_01_1450,mf_amp_cond1,3.0.4,59.98157076993934,
seem,,&&&&,left,neutral,,,,,,,,,,,,,0,24,24,1,,,,,,,,,,,,,,,LDT,right,0.5837101242505014,,,,,,0,,,,,,,,,,,,,right,0,0.5837101242505014,,,,,1001,2019_Mar_01_1450,mf_amp_cond1,3.0.4,59.98157076993934,
sidearbs,,&&&&&&&&,right,nonword,,,,,,,,,,,,,0,25,25,7,,,,,,,,,,,,,,,LDT,right,0.4670307678170502,,,,,,1,,,,,,,,,,,,,right,1,0.4670307678170502,,,,,1001,2019_Mar_01_1450,mf_amp_cond1,3.0.4,59.98157076993934,
Lacedonia,,&&&&&&&&&,right,nonword,,,,,,,,,,,,,0,26,26,38,,,,,,,,,,,,,,,LDT,left,0.4336628824239597,,,,,,0,,,,,,,,,,,,,left,0,0.4336628824239597,,,,,1001,2019_Mar_01_1450,mf_amp_cond1,3.0.4,59.98157076993934,
epigrach,,&&&&&&&&,right,nonword,,,,,,,,,,,,,0,27,27,192,,,,,,,,,,,,,,,LDT,right,0.3836804898455739,,,,,,1,,,,,,,,,,,,,right,1,0.3836804898455739,,,,,1001,2019_Mar_01_1450,mf_amp_cond1,3.0.4,59.98157076993934,
else,,&&&&,left,neutral,,,,,,,,,,,,,0,28,28,61,,,,,,,,,,,,,,,LDT,right,0.4503562863683328,,,,,,0,,,,,,,,,,,,,right,0,0.4503562863683328,,,,,1001,2019_Mar_01_1450,mf_amp_cond1,3.0.4,59.98157076993934,
give,,&&&&,left,neutral,,,,,,,,,,,,,0,29,29,12,,,,,,,,,,,,,,,LDT,left,0.43368180480320007,,,,,,1,,,,,,,,,,,,,left,1,0.43368180480320007,,,,,1001,2019_Mar_01_1450,mf_amp_cond1,3.0.4,59.98157076993934,
gondensed,,&&&&&&&&&,right,nonword,,,,,,,,,,,,,0,30,30,95,,,,,,,,,,,,,,,LDT,left,0.5003486211644486,,,,,,0,,,,,,,,,,,,,left,0,0.5003486211644486,,,,,1001,2019_Mar_01_1450,mf_amp_cond1,3.0.4,59.98157076993934,
rejected,,&&&&&&&&,left,authority.vice,,,,,,,,,,,,,0,31,31,18,,,,,,,,,,,,,,,LDT,right,0.517023102613166,,,,,,0,,,,,,,,,,,,,right,0,0.517023102613166,,,,,1001,2019_Mar_01_1450,mf_amp_cond1,3.0.4,59.98157076993934,
thru,,&&&&,left,neutral,,,,,,,,,,,,,0,32,32,136,,,,,,,,,,,,,,,LDT,left,0.36699382110964507,,,,,,1,,,,,,,,,,,,,left,1,0.36699382110964507,,,,,1001,2019_Mar_01_1450,mf_amp_cond1,3.0.4,59.98157076993934,
glacenta,,&&&&&&&&,right,nonword,,,,,,,,,,,,,0,33,33,53,,,,,,,,,,,,,,,LDT,right,0.517032403498888,,,,,,1,,,,,,,,,,,,,right,1,0.517032403498888,,,,,1001,2019_Mar_01_1450,mf_amp_cond1,3.0.4,59.98157076993934,
tomedians,,&&&&&&&&&,right,nonword,,,,,,,,,,,,,0,34,34,89,,,,,,,,,,,,,,,LDT,right,0.36698997241910547,,,,,,1,,,,,,,,,,,,,right,1,0.36698997241910547,,,,,1001,2019_Mar_01_1450,mf_amp_cond1,3.0.4,59.98157076993934,
towards,,&&&&&&&,left,neutral,,,,,,,,,,,,,0,35,35,148,,,,,,,,,,,,,,,LDT,left,0.3836833762470633,,,,,,1,,,,,,,,,,,,,left,1,0.3836833762470633,,,,,1001,2019_Mar_01_1450,mf_amp_cond1,3.0.4,59.98157076993934,
nuckheap,,&&&&&&&&,right,nonword,,,,,,,,,,,,,0,36,36,142,,,,,,,,,,,,,,,LDT,left,0.36698676529340446,,,,,,0,,,,,,,,,,,,,left,0,0.36698676529340446,,,,,1001,2019_Mar_01_1450,mf_amp_cond1,3.0.4,59.98157076993934,
allears,,&&&&&&&,right,nonword,,,,,,,,,,,,,0,37,37,20,,,,,,,,,,,,,,,LDT,right,0.35041715868283063,,,,,,1,,,,,,,,,,,,,right,1,0.35041715868283063,,,,,1001,2019_Mar_01_1450,mf_amp_cond1,3.0.4,59.98157076993934,
imebreaker,,&&&&&&&&&&,right,nonword,,,,,,,,,,,,,0,38,38,91,,,,,,,,,,,,,,,LDT,right,0.783764133346267,,,,,,1,,,,,,,,,,,,,right,1,0.783764133346267,,,,,1001,2019_Mar_01_1450,mf_amp_cond1,3.0.4,59.98157076993934,
toward,,&&&&&&,left,neutral,,,,,,,,,,,,,0,39,39,144,,,,,,,,,,,,,,,LDT,right,0.7337509517092258,,,,,,0,,,,,,,,,,,,,right,0,0.7337509517092258,,,,,1001,2019_Mar_01_1450,mf_amp_cond1,3.0.4,59.98157076993934,
anyhow,,&&&&&&,left,neutral,,,,,,,,,,,,,0,40,40,111,,,,,,,,,,,,,,,LDT,right,0.46702595707029104,,,,,,0,,,,,,,,,,,,,right,0,0.46702595707029104,,,,,1001,2019_Mar_01_1450,mf_amp_cond1,3.0.4,59.98157076993934,
compassion,,&&&&&&&&&&,left,care.virtue,,,,,,,,,,,,,0,41,41,161,,,,,,,,,,,,,,,LDT,left,0.4003424633992836,,,,,,1,,,,,,,,,,,,,left,1,0.4003424633992836,,,,,1001,2019_Mar_01_1450,mf_amp_cond1,3.0.4,59.98157076993934,
were,,&&&&,left,neutral,,,,,,,,,,,,,0,42,42,112,,,,,,,,,,,,,,,LDT,left,0.33363427431322634,,,,,,1,,,,,,,,,,,,,left,1,0.33363427431322634,,,,,1001,2019_Mar_01_1450,mf_amp_cond1,3.0.4,59.98157076993934,
alar,,&&&&,right,nonword,,,,,,,,,,,,,0,43,43,100,,,,,,,,,,,,,,,LDT,left,0.3670024804305285,,,,,,0,,,,,,,,,,,,,left,0,0.3670024804305285,,,,,1001,2019_Mar_01_1450,mf_amp_cond1,3.0.4,59.98157076993934,
counpy's,,&&&&&&&&,right,nonword,,,,,,,,,,,,,0,44,44,70,,,,,,,,,,,,,,,LDT,right,0.2502958629047498,,,,,,1,,,,,,,,,,,,,right,1,0.2502958629047498,,,,,1001,2019_Mar_01_1450,mf_amp_cond1,3.0.4,59.98157076993934,
blunderints,,&&&&&&&&&&&,right,nonword,,,,,,,,,,,,,0,45,45,14,,,,,,,,,,,,,,,LDT,left,0.4336612788029015,,,,,,0,,,,,,,,,,,,,left,0,0.4336612788029015,,,,,1001,2019_Mar_01_1450,mf_amp_cond1,3.0.4,59.98157076993934,
lenon,,&&&&&,right,nonword,,,,,,,,,,,,,0,46,46,182,,,,,,,,,,,,,,,LDT,right,0.30031096877064556,,,,,,1,,,,,,,,,,,,,right,1,0.30031096877064556,,,,,1001,2019_Mar_01_1450,mf_amp_cond1,3.0.4,59.98157076993934,
faith,,&&&&&,left,sanctity.virtue,,,,,,,,,,,,,0,47,47,57,,,,,,,,,,,,,,,LDT,right,0.3170024483697489,,,,,,0,,,,,,,,,,,,,right,0,0.3170024483697489,,,,,1001,2019_Mar_01_1450,mf_amp_cond1,3.0.4,59.98157076993934,
voter,,&&&&&,left,fairness.vice,,,,,,,,,,,,,0,48,48,76,,,,,,,,,,,,,,,LDT,right,0.15026372694410384,,,,,,0,,,,,,,,,,,,,right,0,0.15026372694410384,,,,,1001,2019_Mar_01_1450,mf_amp_cond1,3.0.4,59.98157076993934,
done,,&&&&,left,neutral,,,,,,,,,,,,,0,49,49,29,,,,,,,,,,,,,,,LDT,left,0.36698997241910547,,,,,,1,,,,,,,,,,,,,left,1,0.36698997241910547,,,,,1001,2019_Mar_01_1450,mf_amp_cond1,3.0.4,59.98157076993934,
brotesque,,&&&&&&&&&,right,nonword,,,,,,,,,,,,,0,50,50,68,,,,,,,,,,,,,,,LDT,left,0.33364646160043776,,,,,,0,,,,,,,,,,,,,left,0,0.33364646160043776,,,,,1001,2019_Mar_01_1450,mf_amp_cond1,3.0.4,59.98157076993934,
ilportation,,&&&&&&&&&&&,right,nonword,,,,,,,,,,,,,0,51,51,117,,,,,,,,,,,,,,,LDT,left,0.3503318475559354,,,,,,0,,,,,,,,,,,,,left,0,0.3503318475559354,,,,,1001,2019_Mar_01_1450,mf_amp_cond1,3.0.4,59.98157076993934,
promised,,&&&&&&&&,left,loyalty.virtue,,,,,,,,,,,,,0,52,52,77,,,,,,,,,,,,,,,LDT,left,0.3503350547980517,,,,,,1,,,,,,,,,,,,,left,1,0.3503350547980517,,,,,1001,2019_Mar_01_1450,mf_amp_cond1,3.0.4,59.98157076993934,
dormandi,,&&&&&&&&,None,nonword,,,,,,,,,,,,,0,53,53,74,,,,,,,,,,,,,,,LDT,right,0.3836776034440845,,,,,,0,,,,,,,,,,,,,right,0,0.3836776034440845,,,,,1001,2019_Mar_01_1450,mf_amp_cond1,3.0.4,59.98157076993934,
about,,&&&&&,left,neutral,,,,,,,,,,,,,0,54,54,110,,,,,,,,,,,,,,,LDT,right,0.35031581157818437,,,,,,0,,,,,,,,,,,,,right,0,0.35031581157818437,,,,,1001,2019_Mar_01_1450,mf_amp_cond1,3.0.4,59.98157076993934,
fair,,&&&&,left,fairness.virtue,,,,,,,,,,,,,0,55,55,188,,,,,,,,,,,,,,,LDT,left,0.16693339764606208,,,,,,1,,,,,,,,,,,,,left,1,0.16693339764606208,,,,,1001,2019_Mar_01_1450,mf_amp_cond1,3.0.4,59.98157076993934,
dumid,,&&&&&,right,nonword,,,,,,,,,,,,,0,56,56,140,,,,,,,,,,,,,,,LDT,right,0.31697839440312237,,,,,,1,,,,,,,,,,,,,right,1,0.31697839440312237,,,,,1001,2019_Mar_01_1450,mf_amp_cond1,3.0.4,59.98157076993934,
either,,&&&&&&,left,neutral,,,,,,,,,,,,,0,57,57,16,,,,,,,,,,,,,,,LDT,right,0.25030612584669143,,,,,,0,,,,,,,,,,,,,right,0,0.25030612584669143,,,,,1001,2019_Mar_01_1450,mf_amp_cond1,3.0.4,59.98157076993934,
Boeinf,,&&&&&&,right,nonword,,,,,,,,,,,,,0,58,58,119,,,,,,,,,,,,,,,LDT,right,0.3336586490040645,,,,,,1,,,,,,,,,,,,,right,1,0.3336586490040645,,,,,1001,2019_Mar_01_1450,mf_amp_cond1,3.0.4,59.98157076993934,
myself,,&&&&&&,left,neutral,,,,,,,,,,,,,0,59,59,179,,,,,,,,,,,,,,,LDT,right,0.3836429656948894,,,,,,0,,,,,,,,,,,,,right,0,0.3836429656948894,,,,,1001,2019_Mar_01_1450,mf_amp_cond1,3.0.4,59.98157076993934,
seachwear,,&&&&&&&&&,right,nonword,,,,,,,,,,,,,0,60,60,128,,,,,,,,,,,,,,,LDT,left,0.20028460561297834,,,,,,0,,,,,,,,,,,,,left,0,0.20028460561297834,,,,,1001,2019_Mar_01_1450,mf_amp_cond1,3.0.4,59.98157076993934,
letish,,&&&&&&,right,nonword,,,,,,,,,,,,,0,61,61,13,,,,,,,,,,,,,,,LDT,left,0.16695039568003267,,,,,,0,,,,,,,,,,,,,left,0,0.16695039568003267,,,,,1001,2019_Mar_01_1450,mf_amp_cond1,3.0.4,59.98157076993934,
freedom,,&&&&&&&,left,sanctity.virtue,,,,,,,,,,,,,0,62,62,168,,,,,,,,,,,,,,,LDT,left,0.3503231881186366,,,,,,1,,,,,,,,,,,,,left,1,0.3503231881186366,,,,,1001,2019_Mar_01_1450,mf_amp_cond1,3.0.4,59.98157076993934,
mightingale,,&&&&&&&&&&&,right,nonword,,,,,,,,,,,,,0,63,63,158,,,,,,,,,,,,,,,LDT,left,0.300316420965828,,,,,,0,,,,,,,,,,,,,left,0,0.300316420965828,,,,,1001,2019_Mar_01_1450,mf_amp_cond1,3.0.4,59.98157076993934,
credit,,&&&&&&,left,fairness.virtue,,,,,,,,,,,,,0,64,64,41,,,,,,,,,,,,,,,LDT,left,0.2669697030214593,,,,,,1,,,,,,,,,,,,,left,1,0.2669697030214593,,,,,1001,2019_Mar_01_1450,mf_amp_cond1,3.0.4,59.98157076993934,
anything,,&&&&&&&&,left,neutral,,,,,,,,,,,,,0,65,65,54,,,,,,,,,,,,,,,LDT,right,0.1502672549104318,,,,,,0,,,,,,,,,,,,,right,0,0.1502672549104318,,,,,1001,2019_Mar_01_1450,mf_amp_cond1,3.0.4,59.98157076993934,
failure,,&&&&&&&,left,loyalty.vice,,,,,,,,,,,,,0,66,66,46,,,,,,,,,,,,,,,LDT,right,0.18360499269329011,,,,,,0,,,,,,,,,,,,,right,0,0.18360499269329011,,,,,1001,2019_Mar_01_1450,mf_amp_cond1,3.0.4,59.98157076993934,
everything,,&&&&&&&&&&,left,neutral,,,,,,,,,,,,,0,67,67,49,,,,,,,,,,,,,,,LDT,left,0.45020811422728,,,,,,1,,,,,,,,,,,,,left,1,0.45020811422728,,,,,1001,2019_Mar_01_1450,mf_amp_cond1,3.0.4,59.98157076993934,
refuejing,,&&&&&&&&&,right,nonword,,,,,,,,,,,,,0,68,68,44,,,,,,,,,,,,,,,LDT,right,0.38367696199566126,,,,,,1,,,,,,,,,,,,,right,1,0.38367696199566126,,,,,1001,2019_Mar_01_1450,mf_amp_cond1,3.0.4,59.98157076993934,
help,,&&&&,left,care.virtue,,,,,,,,,,,,,0,69,69,102,,,,,,,,,,,,,,,LDT,right,0.21694978629238904,,,,,,0,,,,,,,,,,,,,right,0,0.21694978629238904,,,,,1001,2019_Mar_01_1450,mf_amp_cond1,3.0.4,59.98157076993934,
gandbrake,,&&&&&&&&&,right,nonword,,,,,,,,,,,,,0,70,70,124,,,,,,,,,,,,,,,LDT,left,0.2836419395171106,,,,,,0,,,,,,,,,,,,,left,0,0.2836419395171106,,,,,1001,2019_Mar_01_1450,mf_amp_cond1,3.0.4,59.98157076993934,
fighters,,&&&&&&&&,left,authority.vice,,,,,,,,,,,,,0,71,71,104,,,,,,,,,,,,,,,LDT,left,0.18361717998050153,,,,,,1,,,,,,,,,,,,,left,1,0.18361717998050153,,,,,1001,2019_Mar_01_1450,mf_amp_cond1,3.0.4,59.98157076993934,
baladroit,,&&&&&&&&&,right,nonword,,,,,,,,,,,,,0,72,72,3,,,,,,,,,,,,,,,LDT,left,0.21694369276519865,,,,,,0,,,,,,,,,,,,,left,0,0.21694369276519865,,,,,1001,2019_Mar_01_1450,mf_amp_cond1,3.0.4,59.98157076993934,
dramens,,&&&&&&&,right,nonword,,,,,,,,,,,,,0,73,73,85,,,,,,,,,,,,,,,LDT,left,0.26697034446988255,,,,,,0,,,,,,,,,,,,,left,0,0.26697034446988255,,,,,1001,2019_Mar_01_1450,mf_amp_cond1,3.0.4,59.98157076993934,
praise,,&&&&&&,left,authority.virtue,,,,,,,,,,,,,0,74,74,109,,,,,,,,,,,,,,,LDT,left,0.2836336006876081,,,,,,1,,,,,,,,,,,,,left,1,0.2836336006876081,,,,,1001,2019_Mar_01_1450,mf_amp_cond1,3.0.4,59.98157076993934,
further,,&&&&&&&,left,neutral,,,,,,,,,,,,,0,75,75,33,,,,,,,,,,,,,,,LDT,right,0.2503038808936253,,,,,,0,,,,,,,,,,,,,right,0,0.2503038808936253,,,,,1001,2019_Mar_01_1450,mf_amp_cond1,3.0.4,59.98157076993934,
civilians,,&&&&&&&&&,left,care.vice,,,,,,,,,,,,,0,76,76,181,,,,,,,,,,,,,,,LDT,right,0.11693176196422428,,,,,,0,,,,,,,,,,,,,right,0,0.11693176196422428,,,,,1001,2019_Mar_01_1450,mf_amp_cond1,3.0.4,59.98157076993934,
baklara,,&&&&&&&,right,nonword,,,,,,,,,,,,,0,77,77,36,,,,,,,,,,,,,,,LDT,right,0.21696453937329352,,,,,,1,,,,,,,,,,,,,right,1,0.21696453937329352,,,,,1001,2019_Mar_01_1450,mf_amp_cond1,3.0.4,59.98157076993934,
thadowed,,&&&&&&&&,right,nonword,,,,,,,,,,,,,0,78,78,37,,,,,,,,,,,,,,,LDT,right,0.16694815072696656,,,,,,1,,,,,,,,,,,,,right,1,0.16694815072696656,,,,,1001,2019_Mar_01_1450,mf_amp_cond1,3.0.4,59.98157076993934,
ban,,&&&,left,loyalty.vice,,,,,,,,,,,,,0,79,79,174,,,,,,,,,,,,,,,LDT,left,0.3336448579793796,,,,,,1,,,,,,,,,,,,,left,1,0.3336448579793796,,,,,1001,2019_Mar_01_1450,mf_amp_cond1,3.0.4,59.98157076993934,
forepo,,&&&&&&,right,nonword,,,,,,,,,,,,,0,80,80,133,,,,,,,,,,,,,,,LDT,left,0.15027174481656402,,,,,,0,,,,,,,,,,,,,left,0,0.15027174481656402,,,,,1001,2019_Mar_01_1450,mf_amp_cond1,3.0.4,59.98157076993934,
tabin,,&&&&&,right,nonword,,,,,,,,,,,,,0,81,81,26,,,,,,,,,,,,,,,LDT,left,0.1836758714634925,,,,,,0,,,,,,,,,,,,,left,0,0.1836758714634925,,,,,1001,2019_Mar_01_1450,mf_amp_cond1,3.0.4,59.98157076993934,
latter,,&&&&&&,left,neutral,,,,,,,,,,,,,0,82,82,184,,,,,,,,,,,,,,,LDT,left,0.13361137500032783,,,,,,1,,,,,,,,,,,,,left,1,0.13361137500032783,,,,,1001,2019_Mar_01_1450,mf_amp_cond1,3.0.4,59.98157076993934,
violations,,&&&&&&&&&&,left,sanctity.vice,,,,,,,,,,,,,0,83,83,141,,,,,,,,,,,,,,,LDT,left,0.16697701532393694,,,,,,1,,,,,,,,,,,,,left,1,0.16697701532393694,,,,,1001,2019_Mar_01_1450,mf_amp_cond1,3.0.4,59.98157076993934,
also,,&&&&,left,neutral,,,,,,,,,,,,,0,84,84,123,,,,,,,,,,,,,,,LDT,left,0.4670147318392992,,,,,,1,,,,,,,,,,,,,left,1,0.4670147318392992,,,,,1001,2019_Mar_01_1450,mf_amp_cond1,3.0.4,59.98157076993934,
prosecution,,&&&&&&&&&&&,left,authority.vice,,,,,,,,,,,,,0,85,85,52,,,,,,,,,,,,,,,LDT,left,0.4003398976055905,,,,,,1,,,,,,,,,,,,,left,1,0.4003398976055905,,,,,1001,2019_Mar_01_1450,mf_amp_cond1,3.0.4,59.98157076993934,
black,,&&&&&,left,loyalty.vice,,,,,,,,,,,,,0,86,86,40,,,,,,,,,,,,,,,LDT,right,0.33365512103773654,,,,,,0,,,,,,,,,,,,,right,0,0.33365512103773654,,,,,1001,2019_Mar_01_1450,mf_amp_cond1,3.0.4,59.98157076993934,
each,,&&&&,left,neutral,,,,,,,,,,,,,0,87,87,131,,,,,,,,,,,,,,,LDT,right,0.31696524494327605,,,,,,0,,,,,,,,,,,,,right,0,0.31696524494327605,,,,,1001,2019_Mar_01_1450,mf_amp_cond1,3.0.4,59.98157076993934,
suicide,,&&&&&&&,left,care.vice,,,,,,,,,,,,,0,88,88,99,,,,,,,,,,,,,,,LDT,right,0.3335261921165511,,,,,,0,,,,,,,,,,,,,right,0,0.3335261921165511,,,,,1001,2019_Mar_01_1450,mf_amp_cond1,3.0.4,59.98157076993934,
ejanulated,,&&&&&&&&&&,right,nonword,,,,,,,,,,,,,0,89,89,50,,,,,,,,,,,,,,,LDT,right,0.35029079555533826,,,,,,1,,,,,,,,,,,,,right,1,0.35029079555533826,,,,,1001,2019_Mar_01_1450,mf_amp_cond1,3.0.4,59.98157076993934,
cromiscuity,,&&&&&&&&&&&,right,nonword,,,,,,,,,,,,,0,90,90,199,,,,,,,,,,,,,,,LDT,right,0.31698224309366196,,,,,,1,,,,,,,,,,,,,right,1,0.31698224309366196,,,,,1001,2019_Mar_01_1450,mf_amp_cond1,3.0.4,59.98157076993934,
gazily,,&&&&&&,right,nonword,,,,,,,,,,,,,0,91,91,145,,,,,,,,,,,,,,,LDT,right,0.38364104146603495,,,,,,1,,,,,,,,,,,,,right,1,0.38364104146603495,,,,,1001,2019_Mar_01_1450,mf_amp_cond1,3.0.4,59.98157076993934,
love,,&&&&,left,loyalty.virtue,,,,,,,,,,,,,0,92,92,19,,,,,,,,,,,,,,,LDT,left,0.28364963666535914,,,,,,1,,,,,,,,,,,,,left,1,0.28364963666535914,,,,,1001,2019_Mar_01_1450,mf_amp_cond1,3.0.4,59.98157076993934,
promote,,&&&&&&&,left,sanctity.virtue,,,,,,,,,,,,,0,93,93,67,,,,,,,,,,,,,,,LDT,left,0.28364578809123486,,,,,,1,,,,,,,,,,,,,left,1,0.28364578809123486,,,,,1001,2019_Mar_01_1450,mf_amp_cond1,3.0.4,59.98157076993934,
edancipation,,&&&&&&&&&&&&,None,nonword,,,,,,,,,,,,,0,94,94,113,,,,,,,,,,,,,,,LDT,left,0.33365447958931327,,,,,,0,,,,,,,,,,,,,left,0,0.33365447958931327,,,,,1001,2019_Mar_01_1450,mf_amp_cond1,3.0.4,59.98157076993934,
juck,,&&&&,right,nonword,,,,,,,,,,,,,0,95,95,183,,,,,,,,,,,,,,,LDT,left,0.33364646160043776,,,,,,0,,,,,,,,,,,,,left,0,0.33364646160043776,,,,,1001,2019_Mar_01_1450,mf_amp_cond1,3.0.4,59.98157076993934,
rivernoat,,&&&&&&&&&,right,nonword,,,,,,,,,,,,,0,96,96,160,,,,,,,,,,,,,,,LDT,left,0.20030160387977958,,,,,,0,,,,,,,,,,,,,left,0,0.20030160387977958,,,,,1001,2019_Mar_01_1450,mf_amp_cond1,3.0.4,59.98157076993934,
strofe,,&&&&&&,right,nonword,,,,,,,,,,,,,0,97,97,92,,,,,,,,,,,,,,,LDT,left,0.05027456721290946,,,,,,0,,,,,,,,,,,,,left,0,0.05027456721290946,,,,,1001,2019_Mar_01_1450,mf_amp_cond1,3.0.4,59.98157076993934,
reelectiob,,&&&&&&&&&&,right,nonword,,,,,,,,,,,,,0,98,98,125,,,,,,,,,,,,,,,LDT,left,0.35032062244135886,,,,,,0,,,,,,,,,,,,,left,0,0.35032062244135886,,,,,1001,2019_Mar_01_1450,mf_amp_cond1,3.0.4,59.98157076993934,
chressing,,&&&&&&&&&,None,nonword,,,,,,,,,,,,,0,99,99,88,,,,,,,,,,,,,,,LDT,left,0.18360916210804135,,,,,,0,,,,,,,,,,,,,left,0,0.18360916210804135,,,,,1001,2019_Mar_01_1450,mf_amp_cond1,3.0.4,59.98157076993934,
wherever,,&&&&&&&&,left,neutral,,,,,,,,,,,,,0,100,100,118,,,,,,,,,,,,,,,LDT,left,0.016912775463424623,,,,,,1,,,,,,,,,,,,,left,1,0.016912775463424623,,,,,1001,2019_Mar_01_1450,mf_amp_cond1,3.0.4,59.98157076993934,
elsewhere,,&&&&&&&&&,left,neutral,,,,,,,,,,,,,0,101,101,31,,,,,,,,,,,,,,,LDT,right,0.16694173635914922,,,,,,0,,,,,,,,,,,,,right,0,0.16694173635914922,,,,,1001,2019_Mar_01_1450,mf_amp_cond1,3.0.4,59.98157076993934,
chonograph,,&&&&&&&&&&,right,nonword,,,,,,,,,,,,,0,102,102,28,,,,,,,,,,,,,,,LDT,right,0.033574428176507354,,,,,,1,,,,,,,,,,,,,right,1,0.033574428176507354,,,,,1001,2019_Mar_01_1450,mf_amp_cond1,3.0.4,59.98157076993934,
even,,&&&&,left,neutral,,,,,,,,,,,,,0,103,103,75,,,,,,,,,,,,,,,LDT,right,0.11694555287249386,,,,,,0,,,,,,,,,,,,,right,0,0.11694555287249386,,,,,1001,2019_Mar_01_1450,mf_amp_cond1,3.0.4,59.98157076993934,
three,,&&&&&,left,neutral,,,,,,,,,,,,,0,104,104,167,,,,,,,,,,,,,,,LDT,right,0.3336589696118608,,,,,,0,,,,,,,,,,,,,right,0,0.3336589696118608,,,,,1001,2019_Mar_01_1450,mf_amp_cond1,3.0.4,59.98157076993934,
therefore,,&&&&&&&&&,left,neutral,,,,,,,,,,,,,0,105,105,86,,,,,,,,,,,,,,,LDT,right,0.16694333986379206,,,,,,0,,,,,,,,,,,,,right,0,0.16694333986379206,,,,,1001,2019_Mar_01_1450,mf_amp_cond1,3.0.4,59.98157076993934,
intelligence,,&&&&&&&&&&&&,left,loyalty.virtue,,,,,,,,,,,,,0,106,106,93,,,,,,,,,,,,,,,LDT,right,0.13360271556302905,,,,,,0,,,,,,,,,,,,,right,0,0.13360271556302905,,,,,1001,2019_Mar_01_1450,mf_amp_cond1,3.0.4,59.98157076993934,
hence,,&&&&&,left,neutral,,,,,,,,,,,,,0,107,107,105,,,,,,,,,,,,,,,LDT,left,0.13360720570199192,,,,,,1,,,,,,,,,,,,,left,1,0.13360720570199192,,,,,1001,2019_Mar_01_1450,mf_amp_cond1,3.0.4,59.98157076993934,
sowntrodden,,&&&&&&&&&&&,right,nonword,,,,,,,,,,,,,0,108,108,116,,,,,,,,,,,,,,,LDT,left,0.08360653219278902,,,,,,0,,,,,,,,,,,,,left,0,0.08360653219278902,,,,,1001,2019_Mar_01_1450,mf_amp_cond1,3.0.4,59.98157076993934,
ronviolence,,&&&&&&&&&&&,right,nonword,,,,,,,,,,,,,0,109,109,138,,,,,,,,,,,,,,,LDT,left,0.15027976280543953,,,,,,0,,,,,,,,,,,,,left,0,0.15027976280543953,,,,,1001,2019_Mar_01_1450,mf_amp_cond1,3.0.4,59.98157076993934,
forty,,&&&&&,left,neutral,,,,,,,,,,,,,0,110,110,58,,,,,,,,,,,,,,,LDT,left,0.13362035516183823,,,,,,1,,,,,,,,,,,,,left,1,0.13362035516183823,,,,,1001,2019_Mar_01_1450,mf_amp_cond1,3.0.4,59.98157076993934,
