words,nonwords,mask,corr_ans,category,tweets,topic,AMP_prac_loop.thisRepN,AMP_prac_loop.thisTrialN,AMP_prac_loop.thisN,AMP_prac_loop.thisIndex,AMP_trials.thisRepN,AMP_trials.thisTrialN,AMP_trials.thisN,AMP_trials.thisIndex,LDT_prac_loop.thisRepN,LDT_prac_loop.thisTrialN,LDT_prac_loop.thisN,LDT_prac_loop.thisIndex,LDT_loop.thisRepN,LDT_loop.thisTrialN,LDT_loop.thisN,LDT_loop.thisIndex,tweet_loop.thisRepN,tweet_loop.thisTrialN,tweet_loop.thisN,tweet_loop.thisIndex,begin_key.keys,begin_key.rt,key_resp_AMP_instr1.keys,key_resp_AMP_instr1.rt,resp_AMP_ready1.keys,resp_AMP_ready1.rt,resp_AMP_prac.keys,resp_AMP_prac.rt,task,keypress,RT,resp_AMP_ready.keys,resp_AMP_ready.rt,resp_AMP.keys,resp_AMP.corr,resp_AMP.rt,corr,AMP_nonword_rating.response,AMP_nonword_rating.rt,AMP_word_rating.response,AMP_word_rating.rt,AMP_random_rating.response,AMP_random_rating.rt,key_resp_LDT_instr.keys,key_resp_LDT_instr.rt,resp_LDT_prac.keys,resp_LDT_prac.rt,resp_LDT_ready.keys,resp_LDT_ready.rt,resp_LDT.keys,resp_LDT.corr,resp_LDT.rt,LDT_rating.response,LDT_rating.rt,key_resp_LDT_instr_2.keys,key_resp_LDT_instr_2.rt,resp_tweets.keys,resp_tweets.rt,participant,date,expName,psychopyVersion,frameRate,
,,,,,,,,,,,,,,,,,,,,,,,,,,,right,992.830181508325,,,,,,,,,,,,,,,,,,,,,,,,,,,,,,,,,,,,,1005,2019_Mar_06_0950,mf_amp_cond1,3.0.4,59.98382055749952,
,,,,,,,,,,,,,,,,,,,,,,,,,,,,,right,2.267574405996129,,,,,,,,,,,,,,,,,,,,,,,,,,,,,,,,,,,1005,2019_Mar_06_0950,mf_amp_cond1,3.0.4,59.98382055749952,
,,,,,,,,,,,,,,,,,,,,,,,,,,,,,,,right,2.6843270004028454,,,,,,,,,,,,,,,,,,,,,,,,,,,,,,,,,1005,2019_Mar_06_0950,mf_amp_cond1,3.0.4,59.98382055749952,
car,cemtuper,&&&&&&&&,,,,,0,0,0,0,,,,,,,,,,,,,,,,,,,,,,,right,2.067464974359609,AMP_prac,right,2.067464974359609,,,,,,,,,,,,,,,,,,,,,,,,,,,,1005,2019_Mar_06_0950,mf_amp_cond1,3.0.4,59.98382055749952,
banana,kacket,&&&&&&,,,,,0,1,1,1,,,,,,,,,,,,,,,,,,,,,,,left,1.4506324550602585,AMP_prac,left,1.4506324550602585,,,,,,,,,,,,,,,,,,,,,,,,,,,,1005,2019_Mar_06_0950,mf_amp_cond1,3.0.4,59.98382055749952,
keyboard,senk,&&&&,,,,,0,2,2,2,,,,,,,,,,,,,,,,,,,,,,,left,1.0672109596198425,AMP_prac,left,1.0672109596198425,,,,,,,,,,,,,,,,,,,,,,,,,,,,1005,2019_Mar_06_0950,mf_amp_cond1,3.0.4,59.98382055749952,
scarf,bisebell,&&&&&&&&,,,,,0,3,3,3,,,,,,,,,,,,,,,,,,,,,,,left,1.8340398386353627,AMP_prac,left,1.8340398386353627,,,,,,,,,,,,,,,,,,,,,,,,,,,,1005,2019_Mar_06_0950,mf_amp_cond1,3.0.4,59.98382055749952,
,,,,,,,,,,,,,,,,,,,,,,,,,,,,,,,,,,,,,,right,2.7009527798509225,,,,,,,,,,,,,,,,,,,,,,,,,,1005,2019_Mar_06_0950,mf_amp_cond1,3.0.4,59.98382055749952,
love,antral,&&&&&&,left,loyalty.virtue,,,,,,,0,0,0,0,,,,,,,,,,,,,,,,,,,,,AMP,left,1.083874263917096,,,left,1,1.083874263917096,1,,,,,,,,,,,,,,,,,,,,,,1005,2019_Mar_06_0950,mf_amp_cond1,3.0.4,59.98382055749952,
help,proached,&&&&&&&&,left,care.virtue,,,,,,,0,1,1,1,,,,,,,,,,,,,,,,,,,,,AMP,right,0.8838142241584137,,,right,0,0.8838142241584137,0,,,,,,,,,,,,,,,,,,,,,,1005,2019_Mar_06_0950,mf_amp_cond1,3.0.4,59.98382055749952,
attacks,neputized,&&&&&&&&&,right,care.vice,,,,,,,0,2,2,2,,,,,,,,,,,,,,,,,,,,,AMP,left,0.8004688369110227,,,left,0,0.8004688369110227,0,,,,,,,,,,,,,,,,,,,,,,1005,2019_Mar_06_0950,mf_amp_cond1,3.0.4,59.98382055749952,
harassment,quarterbocks,&&&&&&&&&&&&,right,sanctity.vice,,,,,,,0,3,3,3,,,,,,,,,,,,,,,,,,,,,AMP,right,1.0338692766381428,,,right,1,1.0338692766381428,1,,,,,,,,,,,,,,,,,,,,,,1005,2019_Mar_06_0950,mf_amp_cond1,3.0.4,59.98382055749952,
arrests,openet,&&&&&&,right,authority.vice,,,,,,,0,4,4,4,,,,,,,,,,,,,,,,,,,,,AMP,right,0.967166346614249,,,right,1,0.967166346614249,1,,,,,,,,,,,,,,,,,,,,,,1005,2019_Mar_06_0950,mf_amp_cond1,3.0.4,59.98382055749952,
hope,idexpressible,&&&&&&&&&&&&&,left,loyalty.virtue,,,,,,,0,5,5,5,,,,,,,,,,,,,,,,,,,,,AMP,left,0.7671152870170772,,,left,1,0.7671152870170772,1,,,,,,,,,,,,,,,,,,,,,,1005,2019_Mar_06_0950,mf_amp_cond1,3.0.4,59.98382055749952,
chressing,drumbled,&&&&&&&&,None,nonword,,,,,,,0,6,6,6,,,,,,,,,,,,,,,,,,,,,AMP,left,0.8671310347272083,,,left,0,0.8671310347272083,0,,,,,,,,,,,,,,,,,,,,,,1005,2019_Mar_06_0950,mf_amp_cond1,3.0.4,59.98382055749952,
care,forepo,&&&&&&,left,care.virtue,,,,,,,0,7,7,7,,,,,,,,,,,,,,,,,,,,,AMP,right,1.1672276693861932,,,right,0,1.1672276693861932,0,,,,,,,,,,,,,,,,,,,,,,1005,2019_Mar_06_0950,mf_amp_cond1,3.0.4,59.98382055749952,
lies,dormandi,&&&&&&&&,right,fairness.vice,,,,,,,0,8,8,8,,,,,,,,,,,,,,,,,,,,,AMP,right,1.000512840342708,,,right,1,1.000512840342708,1,,,,,,,,,,,,,,,,,,,,,,1005,2019_Mar_06_0950,mf_amp_cond1,3.0.4,59.98382055749952,
protesters,chared,&&&&&&,right,authority.vice,,,,,,,0,9,9,9,,,,,,,,,,,,,,,,,,,,,AMP,left,1.267259453306906,,,left,0,1.267259453306906,0,,,,,,,,,,,,,,,,,,,,,,1005,2019_Mar_06_0950,mf_amp_cond1,3.0.4,59.98382055749952,
blamed,nuckheap,&&&&&&&&,right,loyalty.vice,,,,,,,0,10,10,10,,,,,,,,,,,,,,,,,,,,,AMP,left,0.7171186386840418,,,left,0,0.7171186386840418,0,,,,,,,,,,,,,,,,,,,,,,1005,2019_Mar_06_0950,mf_amp_cond1,3.0.4,59.98382055749952,
riot,crinking,&&&&&&&&,right,authority.vice,,,,,,,0,11,11,11,,,,,,,,,,,,,,,,,,,,,AMP,left,1.7673863003728911,,,left,0,1.7673863003728911,0,,,,,,,,,,,,,,,,,,,,,,1005,2019_Mar_06_0950,mf_amp_cond1,3.0.4,59.98382055749952,
civilians,ronviolence,&&&&&&&&&&&,right,care.vice,,,,,,,0,12,12,12,,,,,,,,,,,,,,,,,,,,,AMP,right,1.9341142791090533,,,right,1,1.9341142791090533,1,,,,,,,,,,,,,,,,,,,,,,1005,2019_Mar_06_0950,mf_amp_cond1,3.0.4,59.98382055749952,
nomaric,smapper,&&&&&&&,None,nonword,,,,,,,0,13,13,13,,,,,,,,,,,,,,,,,,,,,AMP,right,1.0337948683882132,,,right,0,1.0337948683882132,0,,,,,,,,,,,,,,,,,,,,,,1005,2019_Mar_06_0950,mf_amp_cond1,3.0.4,59.98382055749952,
unpleasant,shoirmaster,&&&&&&&&&&&,None,control,,,,,,,0,14,14,14,,,,,,,,,,,,,,,,,,,,,AMP,left,1.5840553137240931,,,left,0,1.5840553137240931,0,,,,,,,,,,,,,,,,,,,,,,1005,2019_Mar_06_0950,mf_amp_cond1,3.0.4,59.98382055749952,
rebels,divility,&&&&&&&&,right,authority.vice,,,,,,,0,15,15,15,,,,,,,,,,,,,,,,,,,,,AMP,right,1.283963810536079,,,right,1,1.283963810536079,1,,,,,,,,,,,,,,,,,,,,,,1005,2019_Mar_06_0950,mf_amp_cond1,3.0.4,59.98382055749952,
safety,taxpayung,&&&&&&&&&,left,care.virtue,,,,,,,0,16,16,16,,,,,,,,,,,,,,,,,,,,,AMP,left,1.934095997712575,,,left,1,1.934095997712575,1,,,,,,,,,,,,,,,,,,,,,,1005,2019_Mar_06_0950,mf_amp_cond1,3.0.4,59.98382055749952,
loyalty,reviked,&&&&&&&,left,loyalty.virtue,,,,,,,0,17,17,17,,,,,,,,,,,,,,,,,,,,,AMP,left,1.0338519574142992,,,left,1,1.0338519574142992,1,,,,,,,,,,,,,,,,,,,,,,1005,2019_Mar_06_0950,mf_amp_cond1,3.0.4,59.98382055749952,
intelligence,pulge,&&&&&,left,loyalty.virtue,,,,,,,0,18,18,18,,,,,,,,,,,,,,,,,,,,,AMP,left,1.8674309132620692,,,left,1,1.8674309132620692,1,,,,,,,,,,,,,,,,,,,,,,1005,2019_Mar_06_0950,mf_amp_cond1,3.0.4,59.98382055749952,
Oregoniuns,leact,&&&&&,None,nonword,,,,,,,0,19,19,19,,,,,,,,,,,,,,,,,,,,,AMP,left,1.5840014317072928,,,left,0,1.5840014317072928,0,,,,,,,,,,,,,,,,,,,,,,1005,2019_Mar_06_0950,mf_amp_cond1,3.0.4,59.98382055749952,
prison,erdest,&&&&&&,right,fairness.vice,,,,,,,0,20,20,20,,,,,,,,,,,,,,,,,,,,,AMP,left,1.450630209990777,,,left,0,1.450630209990777,0,,,,,,,,,,,,,,,,,,,,,,1005,2019_Mar_06_0950,mf_amp_cond1,3.0.4,59.98382055749952,
refused,emports,&&&&&&&,right,authority.vice,,,,,,,0,21,21,21,,,,,,,,,,,,,,,,,,,,,AMP,right,0.9004852259531617,,,right,1,0.9004852259531617,1,,,,,,,,,,,,,,,,,,,,,,1005,2019_Mar_06_0950,mf_amp_cond1,3.0.4,59.98382055749952,
fighters,lursuer,&&&&&&&,right,authority.vice,,,,,,,0,22,22,22,,,,,,,,,,,,,,,,,,,,,AMP,right,1.033851636806503,,,right,1,1.033851636806503,1,,,,,,,,,,,,,,,,,,,,,,1005,2019_Mar_06_0950,mf_amp_cond1,3.0.4,59.98382055749952,
slavery,noped,&&&&&,right,loyalty.vice,,,,,,,0,23,23,23,,,,,,,,,,,,,,,,,,,,,AMP,left,0.9338281917152926,,,left,0,0.9338281917152926,0,,,,,,,,,,,,,,,,,,,,,,1005,2019_Mar_06_0950,mf_amp_cond1,3.0.4,59.98382055749952,
drug,carvels,&&&&&&&,right,sanctity.vice,,,,,,,0,24,24,24,,,,,,,,,,,,,,,,,,,,,AMP,left,1.68405855295714,,,left,0,1.68405855295714,0,,,,,,,,,,,,,,,,,,,,,,1005,2019_Mar_06_0950,mf_amp_cond1,3.0.4,59.98382055749952,
thabbily,thadowed,&&&&&&&&,None,nonword,,,,,,,0,25,25,25,,,,,,,,,,,,,,,,,,,,,AMP,left,1.3005655355518684,,,left,0,1.3005655355518684,0,,,,,,,,,,,,,,,,,,,,,,1005,2019_Mar_06_0950,mf_amp_cond1,3.0.4,59.98382055749952,
racist,disregord,&&&&&&&&&,right,sanctity.vice,,,,,,,0,26,26,26,,,,,,,,,,,,,,,,,,,,,AMP,left,2.234178841114044,,,left,0,2.234178841114044,0,,,,,,,,,,,,,,,,,,,,,,1005,2019_Mar_06_0950,mf_amp_cond1,3.0.4,59.98382055749952,
papert,nackers,&&&&&&&,None,nonword,,,,,,,0,27,27,27,,,,,,,,,,,,,,,,,,,,,AMP,left,1.2505955074448138,,,left,0,1.2505955074448138,0,,,,,,,,,,,,,,,,,,,,,,1005,2019_Mar_06_0950,mf_amp_cond1,3.0.4,59.98382055749952,
victim,frocessing,&&&&&&&&&&,right,care.vice,,,,,,,0,28,28,28,,,,,,,,,,,,,,,,,,,,,AMP,right,1.4172971866792068,,,right,1,1.4172971866792068,1,,,,,,,,,,,,,,,,,,,,,,1005,2019_Mar_06_0950,mf_amp_cond1,3.0.4,59.98382055749952,
great,gondensed,&&&&&&&&&,left,loyalty.virtue,,,,,,,0,29,29,29,,,,,,,,,,,,,,,,,,,,,AMP,right,1.0171915396349505,,,right,0,1.0171915396349505,0,,,,,,,,,,,,,,,,,,,,,,1005,2019_Mar_06_0950,mf_amp_cond1,3.0.4,59.98382055749952,
corruption,counpy's,&&&&&&&&,right,sanctity.vice,,,,,,,0,30,30,30,,,,,,,,,,,,,,,,,,,,,AMP,left,1.1338818169897422,,,left,0,1.1338818169897422,0,,,,,,,,,,,,,,,,,,,,,,1005,2019_Mar_06_0950,mf_amp_cond1,3.0.4,59.98382055749952,
died,pullness,&&&&&&&&,right,care.vice,,,,,,,0,31,31,31,,,,,,,,,,,,,,,,,,,,,AMP,right,1.250609619426541,,,right,1,1.250609619426541,1,,,,,,,,,,,,,,,,,,,,,,1005,2019_Mar_06_0950,mf_amp_cond1,3.0.4,59.98382055749952,
promises,reelectiob,&&&&&&&&&&,left,fairness.virtue,,,,,,,0,32,32,32,,,,,,,,,,,,,,,,,,,,,AMP,left,1.817394174169749,,,left,1,1.817394174169749,1,,,,,,,,,,,,,,,,,,,,,,1005,2019_Mar_06_0950,mf_amp_cond1,3.0.4,59.98382055749952,
ban,gowlands,&&&&&&&&,right,loyalty.vice,,,,,,,0,33,33,33,,,,,,,,,,,,,,,,,,,,,AMP,left,1.800731831928715,,,left,0,1.800731831928715,0,,,,,,,,,,,,,,,,,,,,,,1005,2019_Mar_06_0950,mf_amp_cond1,3.0.4,59.98382055749952,
promote,presentkess,&&&&&&&&&&&,left,sanctity.virtue,,,,,,,0,34,34,34,,,,,,,,,,,,,,,,,,,,,AMP,right,1.4339964123209938,,,right,0,1.4339964123209938,0,,,,,,,,,,,,,,,,,,,,,,1005,2019_Mar_06_0950,mf_amp_cond1,3.0.4,59.98382055749952,
energy,troubla,&&&&&&&,left,sanctity.virtue,,,,,,,0,35,35,35,,,,,,,,,,,,,,,,,,,,,AMP,right,1.53397399361711,,,right,0,1.53397399361711,0,,,,,,,,,,,,,,,,,,,,,,1005,2019_Mar_06_0950,mf_amp_cond1,3.0.4,59.98382055749952,
penalty,ejanulated,&&&&&&&&&&,right,authority.vice,,,,,,,0,36,36,36,,,,,,,,,,,,,,,,,,,,,AMP,left,1.1005430206423625,,,left,0,1.1005430206423625,0,,,,,,,,,,,,,,,,,,,,,,1005,2019_Mar_06_0950,mf_amp_cond1,3.0.4,59.98382055749952,
good,unreflectuve,&&&&&&&&&&&&,left,care.virtue,,,,,,,0,37,37,37,,,,,,,,,,,,,,,,,,,,,AMP,left,1.2339299579616636,,,left,1,1.2339299579616636,1,,,,,,,,,,,,,,,,,,,,,,1005,2019_Mar_06_0950,mf_amp_cond1,3.0.4,59.98382055749952,
illegal,fegard,&&&&&&,right,fairness.vice,,,,,,,0,38,38,38,,,,,,,,,,,,,,,,,,,,,AMP,left,1.7840633959276602,,,left,0,1.7840633959276602,0,,,,,,,,,,,,,,,,,,,,,,1005,2019_Mar_06_0950,mf_amp_cond1,3.0.4,59.98382055749952,
improve,abointment,&&&&&&&&&&,left,care.virtue,,,,,,,0,39,39,39,,,,,,,,,,,,,,,,,,,,,AMP,left,1.40061175217852,,,left,1,1.40061175217852,1,,,,,,,,,,,,,,,,,,,,,,1005,2019_Mar_06_0950,mf_amp_cond1,3.0.4,59.98382055749952,
voter,glacenta,&&&&&&&&,right,fairness.vice,,,,,,,0,40,40,40,,,,,,,,,,,,,,,,,,,,,AMP,right,0.7670950813917443,,,right,1,0.7670950813917443,1,,,,,,,,,,,,,,,,,,,,,,1005,2019_Mar_06_0950,mf_amp_cond1,3.0.4,59.98382055749952,
baladroit,letish,&&&&&&,None,nonword,,,,,,,0,41,41,41,,,,,,,,,,,,,,,,,,,,,AMP,left,1.1172079287935048,,,left,0,1.1172079287935048,0,,,,,,,,,,,,,,,,,,,,,,1005,2019_Mar_06_0950,mf_amp_cond1,3.0.4,59.98382055749952,
actively,festate,&&&&&&&,left,authority.virtue,,,,,,,0,42,42,42,,,,,,,,,,,,,,,,,,,,,AMP,left,1.1005202491069213,,,left,1,1.1005202491069213,1,,,,,,,,,,,,,,,,,,,,,,1005,2019_Mar_06_0950,mf_amp_cond1,3.0.4,59.98382055749952,
safe,squets,&&&&&&,left,care.virtue,,,,,,,0,43,43,43,,,,,,,,,,,,,,,,,,,,,AMP,left,1.0338535611517727,,,left,1,1.0338535611517727,1,,,,,,,,,,,,,,,,,,,,,,1005,2019_Mar_06_0950,mf_amp_cond1,3.0.4,59.98382055749952,
fair,coom,&&&&,left,fairness.virtue,,,,,,,0,44,44,44,,,,,,,,,,,,,,,,,,,,,AMP,left,1.3339485921896994,,,left,1,1.3339485921896994,1,,,,,,,,,,,,,,,,,,,,,,1005,2019_Mar_06_0950,mf_amp_cond1,3.0.4,59.98382055749952,
torture,wonderfujnoss,&&&&&&&&&&&&&,right,care.vice,,,,,,,0,45,45,45,,,,,,,,,,,,,,,,,,,,,AMP,right,0.8503224415471777,,,right,1,0.8503224415471777,1,,,,,,,,,,,,,,,,,,,,,,1005,2019_Mar_06_0950,mf_amp_cond1,3.0.4,59.98382055749952,
respect,pafer,&&&&&,left,sanctity.virtue,,,,,,,0,46,46,46,,,,,,,,,,,,,,,,,,,,,AMP,left,0.9005182606633753,,,left,1,0.9005182606633753,1,,,,,,,,,,,,,,,,,,,,,,1005,2019_Mar_06_0950,mf_amp_cond1,3.0.4,59.98382055749952,
useful,prones,&&&&&&,left,authority.virtue,,,,,,,0,47,47,47,,,,,,,,,,,,,,,,,,,,,AMP,left,1.5840072048595175,,,left,1,1.5840072048595175,1,,,,,,,,,,,,,,,,,,,,,,1005,2019_Mar_06_0950,mf_amp_cond1,3.0.4,59.98382055749952,
celebrated,gillipede,&&&&&&&&&,left,authority.virtue,,,,,,,0,48,48,48,,,,,,,,,,,,,,,,,,,,,AMP,left,1.0504693981492892,,,left,1,1.0504693981492892,1,,,,,,,,,,,,,,,,,,,,,,1005,2019_Mar_06_0950,mf_amp_cond1,3.0.4,59.98382055749952,
values,clamorek,&&&&&&&&,left,sanctity.virtue,,,,,,,0,49,49,49,,,,,,,,,,,,,,,,,,,,,AMP,right,1.417299111140892,,,right,0,1.417299111140892,0,,,,,,,,,,,,,,,,,,,,,,1005,2019_Mar_06_0950,mf_amp_cond1,3.0.4,59.98382055749952,
free,grovelire,&&&&&&&&&,left,fairness.virtue,,,,,,,0,50,50,50,,,,,,,,,,,,,,,,,,,,,AMP,right,1.4506379073718563,,,right,0,1.4506379073718563,0,,,,,,,,,,,,,,,,,,,,,,1005,2019_Mar_06_0950,mf_amp_cond1,3.0.4,59.98382055749952,
encourage,baklara,&&&&&&&,left,authority.virtue,,,,,,,0,51,51,51,,,,,,,,,,,,,,,,,,,,,AMP,right,1.6340208515757695,,,right,0,1.6340208515757695,0,,,,,,,,,,,,,,,,,,,,,,1005,2019_Mar_06_0950,mf_amp_cond1,3.0.4,59.98382055749952,
fraud,refuejing,&&&&&&&&&,right,fairness.vice,,,,,,,0,52,52,52,,,,,,,,,,,,,,,,,,,,,AMP,left,1.2839310965500772,,,left,0,1.2839310965500772,0,,,,,,,,,,,,,,,,,,,,,,1005,2019_Mar_06_0950,mf_amp_cond1,3.0.4,59.98382055749952,
scalbel,perified,&&&&&&&&,None,nonword,,,,,,,0,53,53,53,,,,,,,,,,,,,,,,,,,,,AMP,right,0.9671897597145289,,,right,0,0.9671897597145289,0,,,,,,,,,,,,,,,,,,,,,,1005,2019_Mar_06_0950,mf_amp_cond1,3.0.4,59.98382055749952,
fear,unscothed,&&&&&&&&&,right,sanctity.vice,,,,,,,0,54,54,54,,,,,,,,,,,,,,,,,,,,,AMP,left,1.2670946003636345,,,left,0,1.2670946003636345,0,,,,,,,,,,,,,,,,,,,,,,1005,2019_Mar_06_0950,mf_amp_cond1,3.0.4,59.98382055749952,
sexual,shoirmaster,&&&&&&&&&&&,right,sanctity.vice,,,,,,,0,55,55,55,,,,,,,,,,,,,,,,,,,,,AMP,left,1.9007623329525813,,,left,0,1.9007623329525813,0,,,,,,,,,,,,,,,,,,,,,,1005,2019_Mar_06_0950,mf_amp_cond1,3.0.4,59.98382055749952,
party,ecgagement,&&&&&&&&&&,left,loyalty.virtue,,,,,,,0,56,56,56,,,,,,,,,,,,,,,,,,,,,AMP,right,0.7502948271576315,,,right,0,0.7502948271576315,0,,,,,,,,,,,,,,,,,,,,,,1005,2019_Mar_06_0950,mf_amp_cond1,3.0.4,59.98382055749952,
friends,gusinesslike,&&&&&&&&&&&&,left,loyalty.virtue,,,,,,,0,57,57,57,,,,,,,,,,,,,,,,,,,,,AMP,left,1.2172499758889899,,,left,1,1.2172499758889899,1,,,,,,,,,,,,,,,,,,,,,,1005,2019_Mar_06_0950,mf_amp_cond1,3.0.4,59.98382055749952,
tracious,saned,&&&&&,None,nonword,,,,,,,0,58,58,58,,,,,,,,,,,,,,,,,,,,,AMP,left,1.7507149777375162,,,left,0,1.7507149777375162,0,,,,,,,,,,,,,,,,,,,,,,1005,2019_Mar_06_0950,mf_amp_cond1,3.0.4,59.98382055749952,
dignity,rivernoat,&&&&&&&&&,left,sanctity.virtue,,,,,,,0,59,59,59,,,,,,,,,,,,,,,,,,,,,AMP,left,1.3506195939844474,,,left,1,1.3506195939844474,1,,,,,,,,,,,,,,,,,,,,,,1005,2019_Mar_06_0950,mf_amp_cond1,3.0.4,59.98382055749952,
victims,sonvoy,&&&&&&,right,care.vice,,,,,,,0,60,60,60,,,,,,,,,,,,,,,,,,,,,AMP,left,1.3339582140324637,,,left,0,1.3339582140324637,0,,,,,,,,,,,,,,,,,,,,,,1005,2019_Mar_06_0950,mf_amp_cond1,3.0.4,59.98382055749952,
embrace,sowntrodden,&&&&&&&&&&&,left,authority.virtue,,,,,,,0,61,61,61,,,,,,,,,,,,,,,,,,,,,AMP,left,1.400643824832514,,,left,1,1.400643824832514,1,,,,,,,,,,,,,,,,,,,,,,1005,2019_Mar_06_0950,mf_amp_cond1,3.0.4,59.98382055749952,
war,rorroborated,&&&&&&&&&&&&,right,sanctity.vice,,,,,,,0,62,62,62,,,,,,,,,,,,,,,,,,,,,AMP,left,0.6004030240001157,,,left,0,0.6004030240001157,0,,,,,,,,,,,,,,,,,,,,,,1005,2019_Mar_06_0950,mf_amp_cond1,3.0.4,59.98382055749952,
injured,menizen,&&&&&&&,right,care.vice,,,,,,,0,63,63,63,,,,,,,,,,,,,,,,,,,,,AMP,left,1.0005186134949327,,,left,0,1.0005186134949327,0,,,,,,,,,,,,,,,,,,,,,,1005,2019_Mar_06_0950,mf_amp_cond1,3.0.4,59.98382055749952,
crime,stindig,&&&&&&&,right,fairness.vice,,,,,,,0,64,64,64,,,,,,,,,,,,,,,,,,,,,AMP,left,1.0171828800812364,,,left,0,1.0171828800812364,0,,,,,,,,,,,,,,,,,,,,,,1005,2019_Mar_06_0950,mf_amp_cond1,3.0.4,59.98382055749952,
clean,nonobservalt,&&&&&&&&&&&&,left,sanctity.virtue,,,,,,,0,65,65,65,,,,,,,,,,,,,,,,,,,,,AMP,right,0.9005512953735888,,,right,0,0.9005512953735888,0,,,,,,,,,,,,,,,,,,,,,,1005,2019_Mar_06_0950,mf_amp_cond1,3.0.4,59.98382055749952,
ability,neneficence,&&&&&&&&&&&,left,authority.virtue,,,,,,,0,66,66,66,,,,,,,,,,,,,,,,,,,,,AMP,right,1.083898959797807,,,right,0,1.083898959797807,0,,,,,,,,,,,,,,,,,,,,,,1005,2019_Mar_06_0950,mf_amp_cond1,3.0.4,59.98382055749952,
precificity,vurtain,&&&&&&&,None,nonword,,,,,,,0,67,67,67,,,,,,,,,,,,,,,,,,,,,AMP,right,1.3005806097062305,,,right,0,1.3005806097062305,0,,,,,,,,,,,,,,,,,,,,,,1005,2019_Mar_06_0950,mf_amp_cond1,3.0.4,59.98382055749952,
freedom,greaks,&&&&&&,left,sanctity.virtue,,,,,,,0,68,68,68,,,,,,,,,,,,,,,,,,,,,AMP,left,1.0005176513222978,,,left,1,1.0005176513222978,1,,,,,,,,,,,,,,,,,,,,,,1005,2019_Mar_06_0950,mf_amp_cond1,3.0.4,59.98382055749952,
agreement,spag,&&&&,left,fairness.virtue,,,,,,,0,69,69,69,,,,,,,,,,,,,,,,,,,,,AMP,left,1.2839519437402487,,,left,1,1.2839519437402487,1,,,,,,,,,,,,,,,,,,,,,,1005,2019_Mar_06_0950,mf_amp_cond1,3.0.4,59.98382055749952,
pleasant,fostet,&&&&&&,None,control,,,,,,,0,70,70,70,,,,,,,,,,,,,,,,,,,,,AMP,left,1.1338898352114484,,,left,0,1.1338898352114484,0,,,,,,,,,,,,,,,,,,,,,,1005,2019_Mar_06_0950,mf_amp_cond1,3.0.4,59.98382055749952,
critics,mightingale,&&&&&&&&&&&,right,loyalty.vice,,,,,,,0,71,71,71,,,,,,,,,,,,,,,,,,,,,AMP,right,0.9338564155623317,,,right,1,0.9338564155623317,1,,,,,,,,,,,,,,,,,,,,,,1005,2019_Mar_06_0950,mf_amp_cond1,3.0.4,59.98382055749952,
growth,pumber,&&&&&&,left,care.virtue,,,,,,,0,72,72,72,,,,,,,,,,,,,,,,,,,,,AMP,left,1.434014052269049,,,left,1,1.434014052269049,1,,,,,,,,,,,,,,,,,,,,,,1005,2019_Mar_06_0950,mf_amp_cond1,3.0.4,59.98382055749952,
charges,reprisols,&&&&&&&&&,right,fairness.vice,,,,,,,0,73,73,73,,,,,,,,,,,,,,,,,,,,,AMP,left,0.8339019266422838,,,left,0,0.8339019266422838,0,,,,,,,,,,,,,,,,,,,,,,1005,2019_Mar_06_0950,mf_amp_cond1,3.0.4,59.98382055749952,
credit,discovars,&&&&&&&&&,left,fairness.virtue,,,,,,,0,74,74,74,,,,,,,,,,,,,,,,,,,,,AMP,left,1.0672516917111352,,,left,1,1.0672516917111352,1,,,,,,,,,,,,,,,,,,,,,,1005,2019_Mar_06_0950,mf_amp_cond1,3.0.4,59.98382055749952,
terrorist,hatigue,&&&&&&&,right,loyalty.vice,,,,,,,0,75,75,75,,,,,,,,,,,,,,,,,,,,,AMP,left,0.7171147899935022,,,left,0,0.7171147899935022,0,,,,,,,,,,,,,,,,,,,,,,1005,2019_Mar_06_0950,mf_amp_cond1,3.0.4,59.98382055749952,
groups,laming,&&&&&&,right,loyalty.vice,,,,,,,0,76,76,76,,,,,,,,,,,,,,,,,,,,,AMP,left,1.0838623971212655,,,left,0,1.0838623971212655,0,,,,,,,,,,,,,,,,,,,,,,1005,2019_Mar_06_0950,mf_amp_cond1,3.0.4,59.98382055749952,
betrayal,lorthwhile,&&&&&&&&&&,right,loyalty.vice,,,,,,,0,77,77,77,,,,,,,,,,,,,,,,,,,,,AMP,left,1.3339469885686412,,,left,0,1.3339469885686412,0,,,,,,,,,,,,,,,,,,,,,,1005,2019_Mar_06_0950,mf_amp_cond1,3.0.4,59.98382055749952,
peaceful,hasks,&&&&&,left,authority.virtue,,,,,,,0,78,78,78,,,,,,,,,,,,,,,,,,,,,AMP,right,1.3006072299322113,,,right,0,1.3006072299322113,0,,,,,,,,,,,,,,,,,,,,,,1005,2019_Mar_06_0950,mf_amp_cond1,3.0.4,59.98382055749952,
Phintoism,sidearbs,&&&&&&&&,None,nonword,,,,,,,0,79,79,79,,,,,,,,,,,,,,,,,,,,,AMP,left,1.5173357058083639,,,left,0,1.5173357058083639,0,,,,,,,,,,,,,,,,,,,,,,1005,2019_Mar_06_0950,mf_amp_cond1,3.0.4,59.98382055749952,
benefit,ammessment,&&&&&&&&&&,left,fairness.virtue,,,,,,,0,80,80,80,,,,,,,,,,,,,,,,,,,,,AMP,right,0.9505033630412072,,,right,0,0.9505033630412072,0,,,,,,,,,,,,,,,,,,,,,,1005,2019_Mar_06_0950,mf_amp_cond1,3.0.4,59.98382055749952,
opportunity,hescribe,&&&&&&&&,left,fairness.virtue,,,,,,,0,81,81,81,,,,,,,,,,,,,,,,,,,,,AMP,right,1.0338776154676452,,,right,0,1.0338776154676452,0,,,,,,,,,,,,,,,,,,,,,,1005,2019_Mar_06_0950,mf_amp_cond1,3.0.4,59.98382055749952,
safety,shoirmaster,&&&&&&&&&&&,left,care.virtue,,,,,,,0,82,82,82,,,,,,,,,,,,,,,,,,,,,AMP,left,1.2339415041496977,,,left,1,1.2339415041496977,1,,,,,,,,,,,,,,,,,,,,,,1005,2019_Mar_06_0950,mf_amp_cond1,3.0.4,59.98382055749952,
credit,reviked,&&&&&&&,left,fairness.virtue,,,,,,,0,83,83,83,,,,,,,,,,,,,,,,,,,,,AMP,left,1.1672594211995602,,,left,1,1.1672594211995602,1,,,,,,,,,,,,,,,,,,,,,,1005,2019_Mar_06_0950,mf_amp_cond1,3.0.4,59.98382055749952,
peaceful,rorroborated,&&&&&&&&&&&&,left,authority.virtue,,,,,,,0,84,84,84,,,,,,,,,,,,,,,,,,,,,AMP,left,1.5340018967399374,,,left,1,1.5340018967399374,1,,,,,,,,,,,,,,,,,,,,,,1005,2019_Mar_06_0950,mf_amp_cond1,3.0.4,59.98382055749952,
care,ecgagement,&&&&&&&&&&,left,care.virtue,,,,,,,0,85,85,85,,,,,,,,,,,,,,,,,,,,,AMP,right,1.333938970346935,,,right,0,1.333938970346935,0,,,,,,,,,,,,,,,,,,,,,,1005,2019_Mar_06_0950,mf_amp_cond1,3.0.4,59.98382055749952,
encourage,baklara,&&&&&&&,left,authority.virtue,,,,,,,0,86,86,86,,,,,,,,,,,,,,,,,,,,,AMP,right,1.4673105127876624,,,right,0,1.4673105127876624,0,,,,,,,,,,,,,,,,,,,,,,1005,2019_Mar_06_0950,mf_amp_cond1,3.0.4,59.98382055749952,
intelligence,perified,&&&&&&&&,left,loyalty.virtue,,,,,,,0,87,87,87,,,,,,,,,,,,,,,,,,,,,AMP,right,0.8171372727956623,,,right,0,0.8171372727956623,0,,,,,,,,,,,,,,,,,,,,,,1005,2019_Mar_06_0950,mf_amp_cond1,3.0.4,59.98382055749952,
energy,presentkess,&&&&&&&&&&&,left,sanctity.virtue,,,,,,,0,88,88,88,,,,,,,,,,,,,,,,,,,,,AMP,right,1.0505547111388296,,,right,0,1.0505547111388296,0,,,,,,,,,,,,,,,,,,,,,,1005,2019_Mar_06_0950,mf_amp_cond1,3.0.4,59.98382055749952,
fear,abointment,&&&&&&&&&&,right,sanctity.vice,,,,,,,0,89,89,89,,,,,,,,,,,,,,,,,,,,,AMP,left,0.7338043937925249,,,left,0,0.7338043937925249,0,,,,,,,,,,,,,,,,,,,,,,1005,2019_Mar_06_0950,mf_amp_cond1,3.0.4,59.98382055749952,
opportunity,dormandi,&&&&&&&&,left,fairness.virtue,,,,,,,0,90,90,90,,,,,,,,,,,,,,,,,,,,,AMP,right,0.8838132618693635,,,right,0,0.8838132618693635,0,,,,,,,,,,,,,,,,,,,,,,1005,2019_Mar_06_0950,mf_amp_cond1,3.0.4,59.98382055749952,
tracious,festate,&&&&&&&,None,nonword,,,,,,,0,91,91,91,,,,,,,,,,,,,,,,,,,,,AMP,left,1.8341113604838029,,,left,0,1.8341113604838029,0,,,,,,,,,,,,,,,,,,,,,,1005,2019_Mar_06_0950,mf_amp_cond1,3.0.4,59.98382055749952,
hope,frocessing,&&&&&&&&&&,left,loyalty.virtue,,,,,,,0,92,92,92,,,,,,,,,,,,,,,,,,,,,AMP,right,0.7669738470576704,,,right,0,0.7669738470576704,0,,,,,,,,,,,,,,,,,,,,,,1005,2019_Mar_06_0950,mf_amp_cond1,3.0.4,59.98382055749952,
victims,hatigue,&&&&&&&,right,care.vice,,,,,,,0,93,93,93,,,,,,,,,,,,,,,,,,,,,AMP,left,0.5837390781380236,,,left,0,0.5837390781380236,0,,,,,,,,,,,,,,,,,,,,,,1005,2019_Mar_06_0950,mf_amp_cond1,3.0.4,59.98382055749952,
papert,antral,&&&&&&,None,nonword,,,,,,,0,94,94,94,,,,,,,,,,,,,,,,,,,,,AMP,left,0.8171433666720986,,,left,0,0.8171433666720986,0,,,,,,,,,,,,,,,,,,,,,,1005,2019_Mar_06_0950,mf_amp_cond1,3.0.4,59.98382055749952,
baladroit,greaks,&&&&&&,None,nonword,,,,,,,0,95,95,95,,,,,,,,,,,,,,,,,,,,,AMP,left,1.0671997342724353,,,left,0,1.0671997342724353,0,,,,,,,,,,,,,,,,,,,,,,1005,2019_Mar_06_0950,mf_amp_cond1,3.0.4,59.98382055749952,
critics,erdest,&&&&&&,right,loyalty.vice,,,,,,,0,96,96,96,,,,,,,,,,,,,,,,,,,,,AMP,left,1.1005292295012623,,,left,0,1.1005292295012623,0,,,,,,,,,,,,,,,,,,,,,,1005,2019_Mar_06_0950,mf_amp_cond1,3.0.4,59.98382055749952,
slavery,refuejing,&&&&&&&&&,right,loyalty.vice,,,,,,,0,97,97,97,,,,,,,,,,,,,,,,,,,,,AMP,left,1.9007687475532293,,,left,0,1.9007687475532293,0,,,,,,,,,,,,,,,,,,,,,,1005,2019_Mar_06_0950,mf_amp_cond1,3.0.4,59.98382055749952,
harassment,squets,&&&&&&,right,sanctity.vice,,,,,,,0,98,98,98,,,,,,,,,,,,,,,,,,,,,AMP,left,0.9171472473535687,,,left,0,0.9171472473535687,0,,,,,,,,,,,,,,,,,,,,,,1005,2019_Mar_06_0950,mf_amp_cond1,3.0.4,59.98382055749952,
injured,emports,&&&&&&&,right,care.vice,,,,,,,0,99,99,99,,,,,,,,,,,,,,,,,,,,,AMP,left,1.1672218963503838,,,left,0,1.1672218963503838,0,,,,,,,,,,,,,,,,,,,,,,1005,2019_Mar_06_0950,mf_amp_cond1,3.0.4,59.98382055749952,
growth,saned,&&&&&,left,care.virtue,,,,,,,0,100,100,100,,,,,,,,,,,,,,,,,,,,,AMP,right,2.1674954753834754,,,right,0,2.1674954753834754,0,,,,,,,,,,,,,,,,,,,,,,1005,2019_Mar_06_0950,mf_amp_cond1,3.0.4,59.98382055749952,
party,neneficence,&&&&&&&&&&&,left,loyalty.virtue,,,,,,,0,101,101,101,,,,,,,,,,,,,,,,,,,,,AMP,left,1.650689929141663,,,left,1,1.650689929141663,1,,,,,,,,,,,,,,,,,,,,,,1005,2019_Mar_06_0950,mf_amp_cond1,3.0.4,59.98382055749952,
dignity,gusinesslike,&&&&&&&&&&&&,left,sanctity.virtue,,,,,,,0,102,102,102,,,,,,,,,,,,,,,,,,,,,AMP,left,1.0505405991571024,,,left,1,1.0505405991571024,1,,,,,,,,,,,,,,,,,,,,,,1005,2019_Mar_06_0950,mf_amp_cond1,3.0.4,59.98382055749952,
terrorist,nackers,&&&&&&&,right,loyalty.vice,,,,,,,0,103,103,103,,,,,,,,,,,,,,,,,,,,,AMP,left,0.6170984009513631,,,left,0,0.6170984009513631,0,,,,,,,,,,,,,,,,,,,,,,1005,2019_Mar_06_0950,mf_amp_cond1,3.0.4,59.98382055749952,
penalty,reelectiob,&&&&&&&&&&,right,authority.vice,,,,,,,0,104,104,104,,,,,,,,,,,,,,,,,,,,,AMP,left,0.8504722205689177,,,left,0,0.8504722205689177,0,,,,,,,,,,,,,,,,,,,,,,1005,2019_Mar_06_0950,mf_amp_cond1,3.0.4,59.98382055749952,
useful,ammessment,&&&&&&&&&&,left,authority.virtue,,,,,,,0,105,105,105,,,,,,,,,,,,,,,,,,,,,AMP,right,0.6004402281250805,,,right,0,0.6004402281250805,0,,,,,,,,,,,,,,,,,,,,,,1005,2019_Mar_06_0950,mf_amp_cond1,3.0.4,59.98382055749952,
free,chared,&&&&&&,left,fairness.virtue,,,,,,,0,106,106,106,,,,,,,,,,,,,,,,,,,,,AMP,right,1.6506857597269118,,,right,0,1.6506857597269118,0,,,,,,,,,,,,,,,,,,,,,,1005,2019_Mar_06_0950,mf_amp_cond1,3.0.4,59.98382055749952,
arrests,divility,&&&&&&&&,right,authority.vice,,,,,,,0,107,107,107,,,,,,,,,,,,,,,,,,,,,AMP,right,0.8171433665556833,,,right,1,0.8171433665556833,1,,,,,,,,,,,,,,,,,,,,,,1005,2019_Mar_06_0950,mf_amp_cond1,3.0.4,59.98382055749952,
groups,noped,&&&&&,right,loyalty.vice,,,,,,,0,108,108,108,,,,,,,,,,,,,,,,,,,,,AMP,left,0.6670825410401449,,,left,0,0.6670825410401449,0,,,,,,,,,,,,,,,,,,,,,,1005,2019_Mar_06_0950,mf_amp_cond1,3.0.4,59.98382055749952,
pleasant,letish,&&&&&&,None,control,,,,,,,0,109,109,109,,,,,,,,,,,,,,,,,,,,,AMP,left,1.033877294859849,,,left,0,1.033877294859849,0,,,,,,,,,,,,,,,,,,,,,,1005,2019_Mar_06_0950,mf_amp_cond1,3.0.4,59.98382055749952,
voter,mightingale,&&&&&&&&&&&,right,fairness.vice,,,,,,,0,110,110,110,,,,,,,,,,,,,,,,,,,,,AMP,right,0.9171725847991183,,,right,1,0.9171725847991183,1,,,,,,,,,,,,,,,,,,,,,,1005,2019_Mar_06_0950,mf_amp_cond1,3.0.4,59.98382055749952,
agreement,gowlands,&&&&&&&&,left,fairness.virtue,,,,,,,0,111,111,111,,,,,,,,,,,,,,,,,,,,,AMP,right,1.1338866278529167,,,right,0,1.1338866278529167,0,,,,,,,,,,,,,,,,,,,,,,1005,2019_Mar_06_0950,mf_amp_cond1,3.0.4,59.98382055749952,
values,nonobservalt,&&&&&&&&&&&&,left,sanctity.virtue,,,,,,,0,112,112,112,,,,,,,,,,,,,,,,,,,,,AMP,left,1.684041875298135,,,left,1,1.684041875298135,1,,,,,,,,,,,,,,,,,,,,,,1005,2019_Mar_06_0950,mf_amp_cond1,3.0.4,59.98382055749952,
nomaric,fegard,&&&&&&,None,nonword,,,,,,,0,113,113,113,,,,,,,,,,,,,,,,,,,,,AMP,left,0.6004222674528137,,,left,0,0.6004222674528137,0,,,,,,,,,,,,,,,,,,,,,,1005,2019_Mar_06_0950,mf_amp_cond1,3.0.4,59.98382055749952,
embrace,spag,&&&&,left,authority.virtue,,,,,,,0,114,114,114,,,,,,,,,,,,,,,,,,,,,AMP,left,0.983847290975973,,,left,1,0.983847290975973,1,,,,,,,,,,,,,,,,,,,,,,1005,2019_Mar_06_0950,mf_amp_cond1,3.0.4,59.98382055749952,
civilians,stindig,&&&&&&&,right,care.vice,,,,,,,0,115,115,115,,,,,,,,,,,,,,,,,,,,,AMP,left,1.8007526791188866,,,left,0,1.8007526791188866,0,,,,,,,,,,,,,,,,,,,,,,1005,2019_Mar_06_0950,mf_amp_cond1,3.0.4,59.98382055749952,
charges,grovelire,&&&&&&&&&,right,fairness.vice,,,,,,,0,116,116,116,,,,,,,,,,,,,,,,,,,,,AMP,left,0.5170659754658118,,,left,0,0.5170659754658118,0,,,,,,,,,,,,,,,,,,,,,,1005,2019_Mar_06_0950,mf_amp_cond1,3.0.4,59.98382055749952,
friends,pafer,&&&&&,left,loyalty.virtue,,,,,,,0,117,117,117,,,,,,,,,,,,,,,,,,,,,AMP,left,2.7009447617456317,,,left,1,2.7009447617456317,1,,,,,,,,,,,,,,,,,,,,,,1005,2019_Mar_06_0950,mf_amp_cond1,3.0.4,59.98382055749952,
war,smapper,&&&&&&&,right,sanctity.vice,,,,,,,0,118,118,118,,,,,,,,,,,,,,,,,,,,,AMP,right,0.9505065702833235,,,right,1,0.9505065702833235,1,,,,,,,,,,,,,,,,,,,,,,1005,2019_Mar_06_0950,mf_amp_cond1,3.0.4,59.98382055749952,
good,disregord,&&&&&&&&&,left,care.virtue,,,,,,,0,119,119,119,,,,,,,,,,,,,,,,,,,,,AMP,left,1.3672771253623068,,,left,1,1.3672771253623068,1,,,,,,,,,,,,,,,,,,,,,,1005,2019_Mar_06_0950,mf_amp_cond1,3.0.4,59.98382055749952,
fraud,fostet,&&&&&&,right,fairness.vice,,,,,,,0,120,120,120,,,,,,,,,,,,,,,,,,,,,AMP,left,0.5170701449969783,,,left,0,0.5170701449969783,0,,,,,,,,,,,,,,,,,,,,,,1005,2019_Mar_06_0950,mf_amp_cond1,3.0.4,59.98382055749952,
freedom,shoirmaster,&&&&&&&&&&&,left,sanctity.virtue,,,,,,,0,121,121,121,,,,,,,,,,,,,,,,,,,,,AMP,left,0.9838716661324725,,,left,1,0.9838716661324725,1,,,,,,,,,,,,,,,,,,,,,,1005,2019_Mar_06_0950,mf_amp_cond1,3.0.4,59.98382055749952,
ban,sonvoy,&&&&&&,right,loyalty.vice,,,,,,,0,122,122,122,,,,,,,,,,,,,,,,,,,,,AMP,left,0.8837959427619353,,,left,0,0.8837959427619353,0,,,,,,,,,,,,,,,,,,,,,,1005,2019_Mar_06_0950,mf_amp_cond1,3.0.4,59.98382055749952,
clean,ronviolence,&&&&&&&&&&&,left,sanctity.virtue,,,,,,,0,123,123,123,,,,,,,,,,,,,,,,,,,,,AMP,right,0.700432562851347,,,right,0,0.700432562851347,0,,,,,,,,,,,,,,,,,,,,,,1005,2019_Mar_06_0950,mf_amp_cond1,3.0.4,59.98382055749952,
blamed,forepo,&&&&&&,right,loyalty.vice,,,,,,,0,124,124,124,,,,,,,,,,,,,,,,,,,,,AMP,right,1.1838967469520867,,,right,1,1.1838967469520867,1,,,,,,,,,,,,,,,,,,,,,,1005,2019_Mar_06_0950,mf_amp_cond1,3.0.4,59.98382055749952,
Oregoniuns,pumber,&&&&&&,None,nonword,,,,,,,0,125,125,125,,,,,,,,,,,,,,,,,,,,,AMP,left,1.0171915396349505,,,left,0,1.0171915396349505,0,,,,,,,,,,,,,,,,,,,,,,1005,2019_Mar_06_0950,mf_amp_cond1,3.0.4,59.98382055749952,
scalbel,clamorek,&&&&&&&&,None,nonword,,,,,,,0,126,126,126,,,,,,,,,,,,,,,,,,,,,AMP,left,1.017192822531797,,,left,0,1.017192822531797,0,,,,,,,,,,,,,,,,,,,,,,1005,2019_Mar_06_0950,mf_amp_cond1,3.0.4,59.98382055749952,
improve,sidearbs,&&&&&&&&,left,care.virtue,,,,,,,0,127,127,127,,,,,,,,,,,,,,,,,,,,,AMP,left,1.1505185012938455,,,left,1,1.1505185012938455,1,,,,,,,,,,,,,,,,,,,,,,1005,2019_Mar_06_0950,mf_amp_cond1,3.0.4,59.98382055749952,
fighters,hasks,&&&&&,right,authority.vice,,,,,,,0,128,128,128,,,,,,,,,,,,,,,,,,,,,AMP,left,1.300585741410032,,,left,0,1.300585741410032,0,,,,,,,,,,,,,,,,,,,,,,1005,2019_Mar_06_0950,mf_amp_cond1,3.0.4,59.98382055749952,
help,quarterbocks,&&&&&&&&&&&&,left,care.virtue,,,,,,,0,129,129,129,,,,,,,,,,,,,,,,,,,,,AMP,left,1.050538674928248,,,left,1,1.050538674928248,1,,,,,,,,,,,,,,,,,,,,,,1005,2019_Mar_06_0950,mf_amp_cond1,3.0.4,59.98382055749952,
crime,thadowed,&&&&&&&&,right,fairness.vice,,,,,,,0,130,130,130,,,,,,,,,,,,,,,,,,,,,AMP,left,0.46711005934048444,,,left,0,0.46711005934048444,0,,,,,,,,,,,,,,,,,,,,,,1005,2019_Mar_06_0950,mf_amp_cond1,3.0.4,59.98382055749952,
corruption,unreflectuve,&&&&&&&&&&&&,right,sanctity.vice,,,,,,,0,131,131,131,,,,,,,,,,,,,,,,,,,,,AMP,left,1.1338984948815778,,,left,0,1.1338984948815778,0,,,,,,,,,,,,,,,,,,,,,,1005,2019_Mar_06_0950,mf_amp_cond1,3.0.4,59.98382055749952,
riot,drumbled,&&&&&&&&,right,authority.vice,,,,,,,0,132,132,132,,,,,,,,,,,,,,,,,,,,,AMP,left,1.2338985268725082,,,left,0,1.2338985268725082,0,,,,,,,,,,,,,,,,,,,,,,1005,2019_Mar_06_0950,mf_amp_cond1,3.0.4,59.98382055749952,
died,coom,&&&&,right,care.vice,,,,,,,0,133,133,133,,,,,,,,,,,,,,,,,,,,,AMP,left,0.7337585301138461,,,left,0,0.7337585301138461,0,,,,,,,,,,,,,,,,,,,,,,1005,2019_Mar_06_0950,mf_amp_cond1,3.0.4,59.98382055749952,
racist,carvels,&&&&&&&,right,sanctity.vice,,,,,,,0,134,134,134,,,,,,,,,,,,,,,,,,,,,AMP,left,0.9171552655752748,,,left,0,0.9171552655752748,0,,,,,,,,,,,,,,,,,,,,,,1005,2019_Mar_06_0950,mf_amp_cond1,3.0.4,59.98382055749952,
promote,idexpressible,&&&&&&&&&&&&&,left,sanctity.virtue,,,,,,,0,135,135,135,,,,,,,,,,,,,,,,,,,,,AMP,left,1.6340307941427454,,,left,1,1.6340307941427454,1,,,,,,,,,,,,,,,,,,,,,,1005,2019_Mar_06_0950,mf_amp_cond1,3.0.4,59.98382055749952,
safe,lursuer,&&&&&&&,left,care.virtue,,,,,,,0,136,136,136,,,,,,,,,,,,,,,,,,,,,AMP,right,0.5003908042563125,,,right,0,0.5003908042563125,0,,,,,,,,,,,,,,,,,,,,,,1005,2019_Mar_06_0950,mf_amp_cond1,3.0.4,59.98382055749952,
promises,crinking,&&&&&&&&,left,fairness.virtue,,,,,,,0,137,137,137,,,,,,,,,,,,,,,,,,,,,AMP,right,1.3504480057163164,,,right,0,1.3504480057163164,0,,,,,,,,,,,,,,,,,,,,,,1005,2019_Mar_06_0950,mf_amp_cond1,3.0.4,59.98382055749952,
unpleasant,prones,&&&&&&,None,control,,,,,,,0,138,138,138,,,,,,,,,,,,,,,,,,,,,AMP,right,1.2339097523363307,,,right,0,1.2339097523363307,0,,,,,,,,,,,,,,,,,,,,,,1005,2019_Mar_06_0950,mf_amp_cond1,3.0.4,59.98382055749952,
Phintoism,laming,&&&&&&,None,nonword,,,,,,,0,139,139,139,,,,,,,,,,,,,,,,,,,,,AMP,left,0.567073849379085,,,left,0,0.567073849379085,0,,,,,,,,,,,,,,,,,,,,,,1005,2019_Mar_06_0950,mf_amp_cond1,3.0.4,59.98382055749952,
lies,hescribe,&&&&&&&&,right,fairness.vice,,,,,,,0,140,140,140,,,,,,,,,,,,,,,,,,,,,AMP,left,1.2172397125978023,,,left,0,1.2172397125978023,0,,,,,,,,,,,,,,,,,,,,,,1005,2019_Mar_06_0950,mf_amp_cond1,3.0.4,59.98382055749952,
refused,leact,&&&&&,right,authority.vice,,,,,,,0,141,141,141,,,,,,,,,,,,,,,,,,,,,AMP,left,0.7671217016177252,,,left,0,0.7671217016177252,0,,,,,,,,,,,,,,,,,,,,,,1005,2019_Mar_06_0950,mf_amp_cond1,3.0.4,59.98382055749952,
respect,neputized,&&&&&&&&&,left,sanctity.virtue,,,,,,,0,142,142,142,,,,,,,,,,,,,,,,,,,,,AMP,right,1.4172894891817123,,,right,0,1.4172894891817123,0,,,,,,,,,,,,,,,,,,,,,,1005,2019_Mar_06_0950,mf_amp_cond1,3.0.4,59.98382055749952,
celebrated,glacenta,&&&&&&&&,left,authority.virtue,,,,,,,0,143,143,143,,,,,,,,,,,,,,,,,,,,,AMP,right,2.000781287904829,,,right,0,2.000781287904829,0,,,,,,,,,,,,,,,,,,,,,,1005,2019_Mar_06_0950,mf_amp_cond1,3.0.4,59.98382055749952,
great,pullness,&&&&&&&&,left,loyalty.virtue,,,,,,,0,144,144,144,,,,,,,,,,,,,,,,,,,,,AMP,right,0.98387904278934,,,right,0,0.98387904278934,0,,,,,,,,,,,,,,,,,,,,,,1005,2019_Mar_06_0950,mf_amp_cond1,3.0.4,59.98382055749952,
loyalty,troubla,&&&&&&&,left,loyalty.virtue,,,,,,,0,145,145,145,,,,,,,,,,,,,,,,,,,,,AMP,right,1.6673455361742526,,,right,0,1.6673455361742526,0,,,,,,,,,,,,,,,,,,,,,,1005,2019_Mar_06_0950,mf_amp_cond1,3.0.4,59.98382055749952,
benefit,reprisols,&&&&&&&&&,left,fairness.virtue,,,,,,,0,146,146,146,,,,,,,,,,,,,,,,,,,,,AMP,right,1.61725844303146,,,right,0,1.61725844303146,0,,,,,,,,,,,,,,,,,,,,,,1005,2019_Mar_06_0950,mf_amp_cond1,3.0.4,59.98382055749952,
ability,gillipede,&&&&&&&&&,left,authority.virtue,,,,,,,0,147,147,147,,,,,,,,,,,,,,,,,,,,,AMP,right,1.1839153489563614,,,right,0,1.1839153489563614,0,,,,,,,,,,,,,,,,,,,,,,1005,2019_Mar_06_0950,mf_amp_cond1,3.0.4,59.98382055749952,
protesters,gondensed,&&&&&&&&&,right,authority.vice,,,,,,,0,148,148,148,,,,,,,,,,,,,,,,,,,,,AMP,left,0.517050901427865,,,left,0,0.517050901427865,0,,,,,,,,,,,,,,,,,,,,,,1005,2019_Mar_06_0950,mf_amp_cond1,3.0.4,59.98382055749952,
victim,ejanulated,&&&&&&&&&&,right,care.vice,,,,,,,0,149,149,149,,,,,,,,,,,,,,,,,,,,,AMP,left,0.6337533664191142,,,left,0,0.6337533664191142,0,,,,,,,,,,,,,,,,,,,,,,1005,2019_Mar_06_0950,mf_amp_cond1,3.0.4,59.98382055749952,
chressing,rivernoat,&&&&&&&&&,None,nonword,,,,,,,0,150,150,150,,,,,,,,,,,,,,,,,,,,,AMP,left,1.2839044763240963,,,left,0,1.2839044763240963,0,,,,,,,,,,,,,,,,,,,,,,1005,2019_Mar_06_0950,mf_amp_cond1,3.0.4,59.98382055749952,
torture,wonderfujnoss,&&&&&&&&&&&&&,right,care.vice,,,,,,,0,151,151,151,,,,,,,,,,,,,,,,,,,,,AMP,right,0.617099363123998,,,right,1,0.617099363123998,1,,,,,,,,,,,,,,,,,,,,,,1005,2019_Mar_06_0950,mf_amp_cond1,3.0.4,59.98382055749952,
drug,nuckheap,&&&&&&&&,right,sanctity.vice,,,,,,,0,152,152,152,,,,,,,,,,,,,,,,,,,,,AMP,left,0.5503909806720912,,,left,0,0.5503909806720912,0,,,,,,,,,,,,,,,,,,,,,,1005,2019_Mar_06_0950,mf_amp_cond1,3.0.4,59.98382055749952,
love,proached,&&&&&&&&,left,loyalty.virtue,,,,,,,0,153,153,153,,,,,,,,,,,,,,,,,,,,,AMP,right,0.9338246637489647,,,right,0,0.9338246637489647,0,,,,,,,,,,,,,,,,,,,,,,1005,2019_Mar_06_0950,mf_amp_cond1,3.0.4,59.98382055749952,
thabbily,lorthwhile,&&&&&&&&&&,None,nonword,,,,,,,0,154,154,154,,,,,,,,,,,,,,,,,,,,,AMP,left,1.4839840804925188,,,left,0,1.4839840804925188,0,,,,,,,,,,,,,,,,,,,,,,1005,2019_Mar_06_0950,mf_amp_cond1,3.0.4,59.98382055749952,
attacks,taxpayung,&&&&&&&&&,right,care.vice,,,,,,,0,155,155,155,,,,,,,,,,,,,,,,,,,,,AMP,left,0.867181709385477,,,left,0,0.867181709385477,0,,,,,,,,,,,,,,,,,,,,,,1005,2019_Mar_06_0950,mf_amp_cond1,3.0.4,59.98382055749952,
precificity,unscothed,&&&&&&&&&,None,nonword,,,,,,,0,156,156,156,,,,,,,,,,,,,,,,,,,,,AMP,left,1.1671898238128051,,,left,0,1.1671898238128051,0,,,,,,,,,,,,,,,,,,,,,,1005,2019_Mar_06_0950,mf_amp_cond1,3.0.4,59.98382055749952,
actively,vurtain,&&&&&&&,left,authority.virtue,,,,,,,0,157,157,157,,,,,,,,,,,,,,,,,,,,,AMP,right,0.88372826972045,,,right,0,0.88372826972045,0,,,,,,,,,,,,,,,,,,,,,,1005,2019_Mar_06_0950,mf_amp_cond1,3.0.4,59.98382055749952,
illegal,menizen,&&&&&&&,right,fairness.vice,,,,,,,0,158,158,158,,,,,,,,,,,,,,,,,,,,,AMP,left,0.8337948041735217,,,left,0,0.8337948041735217,0,,,,,,,,,,,,,,,,,,,,,,1005,2019_Mar_06_0950,mf_amp_cond1,3.0.4,59.98382055749952,
sexual,discovars,&&&&&&&&&,right,sanctity.vice,,,,,,,0,159,159,159,,,,,,,,,,,,,,,,,,,,,AMP,left,0.950508815352805,,,left,0,0.950508815352805,0,,,,,,,,,,,,,,,,,,,,,,1005,2019_Mar_06_0950,mf_amp_cond1,3.0.4,59.98382055749952,
betrayal,counpy's,&&&&&&&&,right,loyalty.vice,,,,,,,0,160,160,160,,,,,,,,,,,,,,,,,,,,,AMP,left,0.7504506998229772,,,left,0,0.7504506998229772,0,,,,,,,,,,,,,,,,,,,,,,1005,2019_Mar_06_0950,mf_amp_cond1,3.0.4,59.98382055749952,
rebels,openet,&&&&&&,right,authority.vice,,,,,,,0,161,161,161,,,,,,,,,,,,,,,,,,,,,AMP,right,0.9171761127654463,,,right,1,0.9171761127654463,1,,,,,,,,,,,,,,,,,,,,,,1005,2019_Mar_06_0950,mf_amp_cond1,3.0.4,59.98382055749952,
prison,pulge,&&&&&,right,fairness.vice,,,,,,,0,162,162,162,,,,,,,,,,,,,,,,,,,,,AMP,left,0.8838267324026674,,,left,0,0.8838267324026674,0,,,,,,,,,,,,,,,,,,,,,,1005,2019_Mar_06_0950,mf_amp_cond1,3.0.4,59.98382055749952,
fair,sowntrodden,&&&&&&&&&&&,left,fairness.virtue,,,,,,,0,163,163,163,,,,,,,,,,,,,,,,,,,,,AMP,left,1.1005266637075692,,,left,1,1.1005266637075692,1,,,,,,,,,,,,,,,,,,,,,,1005,2019_Mar_06_0950,mf_amp_cond1,3.0.4,59.98382055749952,
refused,dormandi,&&&&&&&&,right,authority.vice,,,,,,,0,164,164,164,,,,,,,,,,,,,,,,,,,,,AMP,right,1.4673076262697577,,,right,1,1.4673076262697577,1,,,,,,,,,,,,,,,,,,,,,,1005,2019_Mar_06_0950,mf_amp_cond1,3.0.4,59.98382055749952,
lies,ecgagement,&&&&&&&&&&,right,fairness.vice,,,,,,,0,165,165,165,,,,,,,,,,,,,,,,,,,,,AMP,right,0.9338320405222476,,,right,1,0.9338320405222476,1,,,,,,,,,,,,,,,,,,,,,,1005,2019_Mar_06_0950,mf_amp_cond1,3.0.4,59.98382055749952,
celebrated,reelectiob,&&&&&&&&&&,left,authority.virtue,,,,,,,0,166,166,166,,,,,,,,,,,,,,,,,,,,,AMP,right,0.8338480446254835,,,right,0,0.8338480446254835,0,,,,,,,,,,,,,,,,,,,,,,1005,2019_Mar_06_0950,mf_amp_cond1,3.0.4,59.98382055749952,
charges,gowlands,&&&&&&&&,right,fairness.vice,,,,,,,0,167,167,167,,,,,,,,,,,,,,,,,,,,,AMP,left,0.6337610638001934,,,left,0,0.6337610638001934,0,,,,,,,,,,,,,,,,,,,,,,1005,2019_Mar_06_0950,mf_amp_cond1,3.0.4,59.98382055749952,
died,pullness,&&&&&&&&,right,care.vice,,,,,,,0,168,168,168,,,,,,,,,,,,,,,,,,,,,AMP,left,1.017188973724842,,,left,0,1.017188973724842,0,,,,,,,,,,,,,,,,,,,,,,1005,2019_Mar_06_0950,mf_amp_cond1,3.0.4,59.98382055749952,
promises,rorroborated,&&&&&&&&&&&&,left,fairness.virtue,,,,,,,0,169,169,169,,,,,,,,,,,,,,,,,,,,,AMP,right,1.0505479759303853,,,right,0,1.0505479759303853,0,,,,,,,,,,,,,,,,,,,,,,1005,2019_Mar_06_0950,mf_amp_cond1,3.0.4,59.98382055749952,
papert,unscothed,&&&&&&&&&,None,nonword,,,,,,,0,170,170,170,,,,,,,,,,,,,,,,,,,,,AMP,left,0.6171731300419196,,,left,0,0.6171731300419196,0,,,,,,,,,,,,,,,,,,,,,,1005,2019_Mar_06_0950,mf_amp_cond1,3.0.4,59.98382055749952,
opportunity,proached,&&&&&&&&,left,fairness.virtue,,,,,,,0,171,171,171,,,,,,,,,,,,,,,,,,,,,AMP,right,0.6504086527274922,,,right,0,0.6504086527274922,0,,,,,,,,,,,,,,,,,,,,,,1005,2019_Mar_06_0950,mf_amp_cond1,3.0.4,59.98382055749952,
actively,smapper,&&&&&&&,left,authority.virtue,,,,,,,0,172,172,172,,,,,,,,,,,,,,,,,,,,,AMP,right,0.750443002441898,,,right,0,0.750443002441898,0,,,,,,,,,,,,,,,,,,,,,,1005,2019_Mar_06_0950,mf_amp_cond1,3.0.4,59.98382055749952,
arrests,lorthwhile,&&&&&&&&&&,right,authority.vice,,,,,,,0,173,173,173,,,,,,,,,,,,,,,,,,,,,AMP,left,2.017456459114328,,,left,0,2.017456459114328,0,,,,,,,,,,,,,,,,,,,,,,1005,2019_Mar_06_0950,mf_amp_cond1,3.0.4,59.98382055749952,
intelligence,clamorek,&&&&&&&&,left,loyalty.virtue,,,,,,,0,174,174,174,,,,,,,,,,,,,,,,,,,,,AMP,right,0.8671271860366687,,,right,0,0.8671271860366687,0,,,,,,,,,,,,,,,,,,,,,,1005,2019_Mar_06_0950,mf_amp_cond1,3.0.4,59.98382055749952,
thabbily,antral,&&&&&&,None,nonword,,,,,,,0,175,175,175,,,,,,,,,,,,,,,,,,,,,AMP,left,0.9005243544233963,,,left,0,0.9005243544233963,0,,,,,,,,,,,,,,,,,,,,,,1005,2019_Mar_06_0950,mf_amp_cond1,3.0.4,59.98382055749952,
pleasant,taxpayung,&&&&&&&&&,None,control,,,,,,,0,176,176,176,,,,,,,,,,,,,,,,,,,,,AMP,left,0.5503861698089167,,,left,0,0.5503861698089167,0,,,,,,,,,,,,,,,,,,,,,,1005,2019_Mar_06_0950,mf_amp_cond1,3.0.4,59.98382055749952,
voter,openet,&&&&&&,right,fairness.vice,,,,,,,0,177,177,177,,,,,,,,,,,,,,,,,,,,,AMP,right,1.3506115758791566,,,right,1,1.3506115758791566,1,,,,,,,,,,,,,,,,,,,,,,1005,2019_Mar_06_0950,mf_amp_cond1,3.0.4,59.98382055749952,
civilians,hescribe,&&&&&&&&,right,care.vice,,,,,,,0,178,178,178,,,,,,,,,,,,,,,,,,,,,AMP,left,0.9338301160605624,,,left,0,0.9338301160605624,0,,,,,,,,,,,,,,,,,,,,,,1005,2019_Mar_06_0950,mf_amp_cond1,3.0.4,59.98382055749952,
freedom,neneficence,&&&&&&&&&&&,left,sanctity.virtue,,,,,,,0,179,179,179,,,,,,,,,,,,,,,,,,,,,AMP,right,0.8004598565166816,,,right,0,0.8004598565166816,0,,,,,,,,,,,,,,,,,,,,,,1005,2019_Mar_06_0950,mf_amp_cond1,3.0.4,59.98382055749952,
war,greaks,&&&&&&,right,sanctity.vice,,,,,,,0,180,180,180,,,,,,,,,,,,,,,,,,,,,AMP,right,1.0505155825521797,,,right,1,1.0505155825521797,1,,,,,,,,,,,,,,,,,,,,,,1005,2019_Mar_06_0950,mf_amp_cond1,3.0.4,59.98382055749952,
torture,idexpressible,&&&&&&&&&&&&&,right,care.vice,,,,,,,0,181,181,181,,,,,,,,,,,,,,,,,,,,,AMP,left,0.633755290764384,,,left,0,0.633755290764384,0,,,,,,,,,,,,,,,,,,,,,,1005,2019_Mar_06_0950,mf_amp_cond1,3.0.4,59.98382055749952,
prison,chared,&&&&&&,right,fairness.vice,,,,,,,0,182,182,182,,,,,,,,,,,,,,,,,,,,,AMP,left,0.7670745549257845,,,left,0,0.7670745549257845,0,,,,,,,,,,,,,,,,,,,,,,1005,2019_Mar_06_0950,mf_amp_cond1,3.0.4,59.98382055749952,
scalbel,frocessing,&&&&&&&&&&,None,nonword,,,,,,,0,183,183,183,,,,,,,,,,,,,,,,,,,,,AMP,right,1.0671756798401475,,,right,0,1.0671756798401475,0,,,,,,,,,,,,,,,,,,,,,,1005,2019_Mar_06_0950,mf_amp_cond1,3.0.4,59.98382055749952,
nomaric,rivernoat,&&&&&&&&&,None,nonword,,,,,,,0,184,184,184,,,,,,,,,,,,,,,,,,,,,AMP,left,0.6170759501401335,,,left,0,0.6170759501401335,0,,,,,,,,,,,,,,,,,,,,,,1005,2019_Mar_06_0950,mf_amp_cond1,3.0.4,59.98382055749952,
precificity,lursuer,&&&&&&&,None,nonword,,,,,,,0,185,185,185,,,,,,,,,,,,,,,,,,,,,AMP,left,0.7171038852538913,,,left,0,0.7171038852538913,0,,,,,,,,,,,,,,,,,,,,,,1005,2019_Mar_06_0950,mf_amp_cond1,3.0.4,59.98382055749952,
corruption,shoirmaster,&&&&&&&&&&&,right,sanctity.vice,,,,,,,0,186,186,186,,,,,,,,,,,,,,,,,,,,,AMP,left,0.6337957021314651,,,left,0,0.6337957021314651,0,,,,,,,,,,,,,,,,,,,,,,1005,2019_Mar_06_0950,mf_amp_cond1,3.0.4,59.98382055749952,
ability,gondensed,&&&&&&&&&,left,authority.virtue,,,,,,,0,187,187,187,,,,,,,,,,,,,,,,,,,,,AMP,left,1.0338397698942572,,,left,1,1.0338397698942572,1,,,,,,,,,,,,,,,,,,,,,,1005,2019_Mar_06_0950,mf_amp_cond1,3.0.4,59.98382055749952,
injured,glacenta,&&&&&&&&,right,care.vice,,,,,,,0,188,188,188,,,,,,,,,,,,,,,,,,,,,AMP,left,0.7670796865131706,,,left,0,0.7670796865131706,0,,,,,,,,,,,,,,,,,,,,,,1005,2019_Mar_06_0950,mf_amp_cond1,3.0.4,59.98382055749952,
friends,divility,&&&&&&&&,left,loyalty.virtue,,,,,,,0,189,189,189,,,,,,,,,,,,,,,,,,,,,AMP,right,0.9838485737564042,,,right,0,0.9838485737564042,0,,,,,,,,,,,,,,,,,,,,,,1005,2019_Mar_06_0950,mf_amp_cond1,3.0.4,59.98382055749952,
tracious,quarterbocks,&&&&&&&&&&&&,None,nonword,,,,,,,0,190,190,190,,,,,,,,,,,,,,,,,,,,,AMP,left,1.2672873564297333,,,left,0,1.2672873564297333,0,,,,,,,,,,,,,,,,,,,,,,1005,2019_Mar_06_0950,mf_amp_cond1,3.0.4,59.98382055749952,
penalty,gillipede,&&&&&&&&&,right,authority.vice,,,,,,,0,191,191,191,,,,,,,,,,,,,,,,,,,,,AMP,left,0.8504718998447061,,,left,0,0.8504718998447061,0,,,,,,,,,,,,,,,,,,,,,,1005,2019_Mar_06_0950,mf_amp_cond1,3.0.4,59.98382055749952,
blamed,hatigue,&&&&&&&,right,loyalty.vice,,,,,,,0,192,192,192,,,,,,,,,,,,,,,,,,,,,AMP,left,0.667091200593859,,,left,0,0.667091200593859,0,,,,,,,,,,,,,,,,,,,,,,1005,2019_Mar_06_0950,mf_amp_cond1,3.0.4,59.98382055749952,
victim,discovars,&&&&&&&&&,right,care.vice,,,,,,,0,193,193,193,,,,,,,,,,,,,,,,,,,,,AMP,left,1.0338647866155952,,,left,0,1.0338647866155952,0,,,,,,,,,,,,,,,,,,,,,,1005,2019_Mar_06_0950,mf_amp_cond1,3.0.4,59.98382055749952,
safe,perified,&&&&&&&&,left,care.virtue,,,,,,,0,194,194,194,,,,,,,,,,,,,,,,,,,,,AMP,right,0.7171064511639997,,,right,0,0.7171064511639997,0,,,,,,,,,,,,,,,,,,,,,,1005,2019_Mar_06_0950,mf_amp_cond1,3.0.4,59.98382055749952,
Oregoniuns,spag,&&&&,None,nonword,,,,,,,0,195,195,195,,,,,,,,,,,,,,,,,,,,,AMP,left,0.8837975463829935,,,left,0,0.8837975463829935,0,,,,,,,,,,,,,,,,,,,,,,1005,2019_Mar_06_0950,mf_amp_cond1,3.0.4,59.98382055749952,
agreement,pumber,&&&&&&,left,fairness.virtue,,,,,,,0,196,196,196,,,,,,,,,,,,,,,,,,,,,AMP,right,1.5673294677399099,,,right,0,1.5673294677399099,0,,,,,,,,,,,,,,,,,,,,,,1005,2019_Mar_06_0950,mf_amp_cond1,3.0.4,59.98382055749952,
benefit,troubla,&&&&&&&,left,fairness.virtue,,,,,,,0,197,197,197,,,,,,,,,,,,,,,,,,,,,AMP,left,0.6337469518184662,,,left,1,0.6337469518184662,1,,,,,,,,,,,,,,,,,,,,,,1005,2019_Mar_06_0950,mf_amp_cond1,3.0.4,59.98382055749952,
hope,pulge,&&&&&,left,loyalty.virtue,,,,,,,0,198,198,198,,,,,,,,,,,,,,,,,,,,,AMP,right,0.9838421592721716,,,right,0,0.9838421592721716,0,,,,,,,,,,,,,,,,,,,,,,1005,2019_Mar_06_0950,mf_amp_cond1,3.0.4,59.98382055749952,
fear,ronviolence,&&&&&&&&&&&,right,sanctity.vice,,,,,,,0,199,199,199,,,,,,,,,,,,,,,,,,,,,AMP,left,0.31700208701658994,,,left,0,0.31700208701658994,0,,,,,,,,,,,,,,,,,,,,,,1005,2019_Mar_06_0950,mf_amp_cond1,3.0.4,59.98382055749952,
chressing,pafer,&&&&&,None,nonword,,,,,,,0,200,200,200,,,,,,,,,,,,,,,,,,,,,AMP,left,1.5006573273567483,,,left,0,1.5006573273567483,0,,,,,,,,,,,,,,,,,,,,,,1005,2019_Mar_06_0950,mf_amp_cond1,3.0.4,59.98382055749952,
care,mightingale,&&&&&&&&&&&,left,care.virtue,,,,,,,0,201,201,201,,,,,,,,,,,,,,,,,,,,,AMP,right,0.5003930494422093,,,right,0,0.5003930494422093,0,,,,,,,,,,,,,,,,,,,,,,1005,2019_Mar_06_0950,mf_amp_cond1,3.0.4,59.98382055749952,
rebels,leact,&&&&&,right,authority.vice,,,,,,,0,202,202,202,,,,,,,,,,,,,,,,,,,,,AMP,left,0.6670199994696304,,,left,0,0.6670199994696304,0,,,,,,,,,,,,,,,,,,,,,,1005,2019_Mar_06_0950,mf_amp_cond1,3.0.4,59.98382055749952,
groups,nuckheap,&&&&&&&&,right,loyalty.vice,,,,,,,0,203,203,203,,,,,,,,,,,,,,,,,,,,,AMP,left,0.5337591073475778,,,left,0,0.5337591073475778,0,,,,,,,,,,,,,,,,,,,,,,1005,2019_Mar_06_0950,mf_amp_cond1,3.0.4,59.98382055749952,
riot,noped,&&&&&,right,authority.vice,,,,,,,0,204,204,204,,,,,,,,,,,,,,,,,,,,,AMP,left,0.6337549700401723,,,left,0,0.6337549700401723,0,,,,,,,,,,,,,,,,,,,,,,1005,2019_Mar_06_0950,mf_amp_cond1,3.0.4,59.98382055749952,
betrayal,fostet,&&&&&&,right,loyalty.vice,,,,,,,0,205,205,205,,,,,,,,,,,,,,,,,,,,,AMP,left,0.43373790744226426,,,left,0,0.43373790744226426,0,,,,,,,,,,,,,,,,,,,,,,1005,2019_Mar_06_0950,mf_amp_cond1,3.0.4,59.98382055749952,
attacks,sidearbs,&&&&&&&&,right,care.vice,,,,,,,0,206,206,206,,,,,,,,,,,,,,,,,,,,,AMP,left,1.4673037775792181,,,left,0,1.4673037775792181,0,,,,,,,,,,,,,,,,,,,,,,1005,2019_Mar_06_0950,mf_amp_cond1,3.0.4,59.98382055749952,
good,squets,&&&&&&,left,care.virtue,,,,,,,0,207,207,207,,,,,,,,,,,,,,,,,,,,,AMP,right,0.9838540261844173,,,right,0,0.9838540261844173,0,,,,,,,,,,,,,,,,,,,,,,1005,2019_Mar_06_0950,mf_amp_cond1,3.0.4,59.98382055749952,
help,forepo,&&&&&&,left,care.virtue,,,,,,,0,208,208,208,,,,,,,,,,,,,,,,,,,,,AMP,right,0.850472862017341,,,right,0,0.850472862017341,0,,,,,,,,,,,,,,,,,,,,,,1005,2019_Mar_06_0950,mf_amp_cond1,3.0.4,59.98382055749952,
encourage,prones,&&&&&&,left,authority.virtue,,,,,,,0,209,209,209,,,,,,,,,,,,,,,,,,,,,AMP,left,1.8007263796171173,,,left,1,1.8007263796171173,1,,,,,,,,,,,,,,,,,,,,,,1005,2019_Mar_06_0950,mf_amp_cond1,3.0.4,59.98382055749952,
slavery,reviked,&&&&&&&,right,loyalty.vice,,,,,,,0,210,210,210,,,,,,,,,,,,,,,,,,,,,AMP,left,0.6504557993030176,,,left,0,0.6504557993030176,0,,,,,,,,,,,,,,,,,,,,,,1005,2019_Mar_06_0950,mf_amp_cond1,3.0.4,59.98382055749952,
unpleasant,refuejing,&&&&&&&&&,None,control,,,,,,,0,211,211,211,,,,,,,,,,,,,,,,,,,,,AMP,left,3.6845614509657025,,,left,0,3.6845614509657025,0,,,,,,,,,,,,,,,,,,,,,,1005,2019_Mar_06_0950,mf_amp_cond1,3.0.4,59.98382055749952,
peaceful,hasks,&&&&&,left,authority.virtue,,,,,,,0,212,212,212,,,,,,,,,,,,,,,,,,,,,AMP,right,0.7171074133366346,,,right,0,0.7171074133366346,0,,,,,,,,,,,,,,,,,,,,,,1005,2019_Mar_06_0950,mf_amp_cond1,3.0.4,59.98382055749952,
critics,nackers,&&&&&&&,right,loyalty.vice,,,,,,,0,213,213,213,,,,,,,,,,,,,,,,,,,,,AMP,left,0.7004489197861403,,,left,0,0.7004489197861403,0,,,,,,,,,,,,,,,,,,,,,,1005,2019_Mar_06_0950,mf_amp_cond1,3.0.4,59.98382055749952,
ban,baklara,&&&&&&&,right,loyalty.vice,,,,,,,0,214,214,214,,,,,,,,,,,,,,,,,,,,,AMP,left,1.1505566675914451,,,left,0,1.1505566675914451,0,,,,,,,,,,,,,,,,,,,,,,1005,2019_Mar_06_0950,mf_amp_cond1,3.0.4,59.98382055749952,
illegal,grovelire,&&&&&&&&&,right,fairness.vice,,,,,,,0,215,215,215,,,,,,,,,,,,,,,,,,,,,AMP,left,1.0671994134318084,,,left,0,1.0671994134318084,0,,,,,,,,,,,,,,,,,,,,,,1005,2019_Mar_06_0950,mf_amp_cond1,3.0.4,59.98382055749952,
clean,saned,&&&&&,left,sanctity.virtue,,,,,,,0,216,216,216,,,,,,,,,,,,,,,,,,,,,AMP,left,1.2172528624068946,,,left,1,1.2172528624068946,1,,,,,,,,,,,,,,,,,,,,,,1005,2019_Mar_06_0950,mf_amp_cond1,3.0.4,59.98382055749952,
promote,carvels,&&&&&&&,left,sanctity.virtue,,,,,,,0,217,217,217,,,,,,,,,,,,,,,,,,,,,AMP,right,0.7504535863408819,,,right,0,0.7504535863408819,0,,,,,,,,,,,,,,,,,,,,,,1005,2019_Mar_06_0950,mf_amp_cond1,3.0.4,59.98382055749952,
great,disregord,&&&&&&&&&,left,loyalty.virtue,,,,,,,0,218,218,218,,,,,,,,,,,,,,,,,,,,,AMP,left,1.6006656982935965,,,left,1,1.6006656982935965,1,,,,,,,,,,,,,,,,,,,,,,1005,2019_Mar_06_0950,mf_amp_cond1,3.0.4,59.98382055749952,
dignity,presentkess,&&&&&&&&&&&,left,sanctity.virtue,,,,,,,0,219,219,219,,,,,,,,,,,,,,,,,,,,,AMP,right,0.5670703212963417,,,right,0,0.5670703212963417,0,,,,,,,,,,,,,,,,,,,,,,1005,2019_Mar_06_0950,mf_amp_cond1,3.0.4,59.98382055749952,
fraud,erdest,&&&&&&,right,fairness.vice,,,,,,,0,220,220,220,,,,,,,,,,,,,,,,,,,,,AMP,left,1.7840666031697765,,,left,0,1.7840666031697765,0,,,,,,,,,,,,,,,,,,,,,,1005,2019_Mar_06_0950,mf_amp_cond1,3.0.4,59.98382055749952,
embrace,ejanulated,&&&&&&&&&&,left,authority.virtue,,,,,,,0,221,221,221,,,,,,,,,,,,,,,,,,,,,AMP,left,0.6170695356559008,,,left,1,0.6170695356559008,1,,,,,,,,,,,,,,,,,,,,,,1005,2019_Mar_06_0950,mf_amp_cond1,3.0.4,59.98382055749952,
terrorist,sonvoy,&&&&&&,right,loyalty.vice,,,,,,,0,222,222,222,,,,,,,,,,,,,,,,,,,,,AMP,right,1.5506559001514688,,,right,1,1.5506559001514688,1,,,,,,,,,,,,,,,,,,,,,,1005,2019_Mar_06_0950,mf_amp_cond1,3.0.4,59.98382055749952,
respect,nonobservalt,&&&&&&&&&&&&,left,sanctity.virtue,,,,,,,0,223,223,223,,,,,,,,,,,,,,,,,,,,,AMP,left,1.7507329385261983,,,left,1,1.7507329385261983,1,,,,,,,,,,,,,,,,,,,,,,1005,2019_Mar_06_0950,mf_amp_cond1,3.0.4,59.98382055749952,
values,stindig,&&&&&&&,left,sanctity.virtue,,,,,,,0,224,224,224,,,,,,,,,,,,,,,,,,,,,AMP,left,0.5003818239783868,,,left,1,0.5003818239783868,1,,,,,,,,,,,,,,,,,,,,,,1005,2019_Mar_06_0950,mf_amp_cond1,3.0.4,59.98382055749952,
harassment,emports,&&&&&&&,right,sanctity.vice,,,,,,,0,225,225,225,,,,,,,,,,,,,,,,,,,,,AMP,right,0.6337902499362826,,,right,1,0.6337902499362826,1,,,,,,,,,,,,,,,,,,,,,,1005,2019_Mar_06_0950,mf_amp_cond1,3.0.4,59.98382055749952,
fair,unreflectuve,&&&&&&&&&&&&,left,fairness.virtue,,,,,,,0,226,226,226,,,,,,,,,,,,,,,,,,,,,AMP,left,0.767151849810034,,,left,1,0.767151849810034,1,,,,,,,,,,,,,,,,,,,,,,1005,2019_Mar_06_0950,mf_amp_cond1,3.0.4,59.98382055749952,
safety,wonderfujnoss,&&&&&&&&&&&&&,left,care.virtue,,,,,,,0,227,227,227,,,,,,,,,,,,,,,,,,,,,AMP,right,0.6837862568208948,,,right,0,0.6837862568208948,0,,,,,,,,,,,,,,,,,,,,,,1005,2019_Mar_06_0950,mf_amp_cond1,3.0.4,59.98382055749952,
party,letish,&&&&&&,left,loyalty.virtue,,,,,,,0,228,228,228,,,,,,,,,,,,,,,,,,,,,AMP,left,0.5837525485549122,,,left,1,0.5837525485549122,1,,,,,,,,,,,,,,,,,,,,,,1005,2019_Mar_06_0950,mf_amp_cond1,3.0.4,59.98382055749952,
racist,gusinesslike,&&&&&&&&&&&&,right,sanctity.vice,,,,,,,0,229,229,229,,,,,,,,,,,,,,,,,,,,,AMP,right,1.633997759432532,,,right,1,1.633997759432532,1,,,,,,,,,,,,,,,,,,,,,,1005,2019_Mar_06_0950,mf_amp_cond1,3.0.4,59.98382055749952,
Phintoism,abointment,&&&&&&&&&&,None,nonword,,,,,,,0,230,230,230,,,,,,,,,,,,,,,,,,,,,AMP,left,0.7504590386524796,,,left,0,0.7504590386524796,0,,,,,,,,,,,,,,,,,,,,,,1005,2019_Mar_06_0950,mf_amp_cond1,3.0.4,59.98382055749952,
energy,vurtain,&&&&&&&,left,sanctity.virtue,,,,,,,0,231,231,231,,,,,,,,,,,,,,,,,,,,,AMP,right,1.0672151290345937,,,right,0,1.0672151290345937,0,,,,,,,,,,,,,,,,,,,,,,1005,2019_Mar_06_0950,mf_amp_cond1,3.0.4,59.98382055749952,
loyalty,reprisols,&&&&&&&&&,left,loyalty.virtue,,,,,,,0,232,232,232,,,,,,,,,,,,,,,,,,,,,AMP,left,0.8671554098837078,,,left,1,0.8671554098837078,1,,,,,,,,,,,,,,,,,,,,,,1005,2019_Mar_06_0950,mf_amp_cond1,3.0.4,59.98382055749952,
useful,sowntrodden,&&&&&&&&&&&,left,authority.virtue,,,,,,,0,233,233,233,,,,,,,,,,,,,,,,,,,,,AMP,left,0.8171391972573474,,,left,1,0.8171391972573474,1,,,,,,,,,,,,,,,,,,,,,,1005,2019_Mar_06_0950,mf_amp_cond1,3.0.4,59.98382055749952,
improve,fegard,&&&&&&,left,care.virtue,,,,,,,0,234,234,234,,,,,,,,,,,,,,,,,,,,,AMP,left,0.9504841194720939,,,left,1,0.9504841194720939,1,,,,,,,,,,,,,,,,,,,,,,1005,2019_Mar_06_0950,mf_amp_cond1,3.0.4,59.98382055749952,
free,festate,&&&&&&&,left,fairness.virtue,,,,,,,0,235,235,235,,,,,,,,,,,,,,,,,,,,,AMP,left,0.633809172664769,,,left,1,0.633809172664769,1,,,,,,,,,,,,,,,,,,,,,,1005,2019_Mar_06_0950,mf_amp_cond1,3.0.4,59.98382055749952,
love,counpy's,&&&&&&&&,left,loyalty.virtue,,,,,,,0,236,236,236,,,,,,,,,,,,,,,,,,,,,AMP,left,0.5670655105495825,,,left,1,0.5670655105495825,1,,,,,,,,,,,,,,,,,,,,,,1005,2019_Mar_06_0950,mf_amp_cond1,3.0.4,59.98382055749952,
credit,coom,&&&&,left,fairness.virtue,,,,,,,0,237,237,237,,,,,,,,,,,,,,,,,,,,,AMP,left,0.6170704977121204,,,left,1,0.6170704977121204,1,,,,,,,,,,,,,,,,,,,,,,1005,2019_Mar_06_0950,mf_amp_cond1,3.0.4,59.98382055749952,
growth,ammessment,&&&&&&&&&&,left,care.virtue,,,,,,,0,238,238,238,,,,,,,,,,,,,,,,,,,,,AMP,right,0.5003962565679103,,,right,0,0.5003962565679103,0,,,,,,,,,,,,,,,,,,,,,,1005,2019_Mar_06_0950,mf_amp_cond1,3.0.4,59.98382055749952,
protesters,shoirmaster,&&&&&&&&&&&,right,authority.vice,,,,,,,0,239,239,239,,,,,,,,,,,,,,,,,,,,,AMP,left,0.8671448259847239,,,left,0,0.8671448259847239,0,,,,,,,,,,,,,,,,,,,,,,1005,2019_Mar_06_0950,mf_amp_cond1,3.0.4,59.98382055749952,
fighters,crinking,&&&&&&&&,right,authority.vice,,,,,,,0,240,240,240,,,,,,,,,,,,,,,,,,,,,AMP,left,0.7171317884931341,,,left,0,0.7171317884931341,0,,,,,,,,,,,,,,,,,,,,,,1005,2019_Mar_06_0950,mf_amp_cond1,3.0.4,59.98382055749952,
victims,thadowed,&&&&&&&&,right,care.vice,,,,,,,0,241,241,241,,,,,,,,,,,,,,,,,,,,,AMP,left,0.5503896977752447,,,left,0,0.5503896977752447,0,,,,,,,,,,,,,,,,,,,,,,1005,2019_Mar_06_0950,mf_amp_cond1,3.0.4,59.98382055749952,
sexual,laming,&&&&&&,right,sanctity.vice,,,,,,,0,242,242,242,,,,,,,,,,,,,,,,,,,,,AMP,left,0.4503659319598228,,,left,0,0.4503659319598228,0,,,,,,,,,,,,,,,,,,,,,,1005,2019_Mar_06_0950,mf_amp_cond1,3.0.4,59.98382055749952,
crime,menizen,&&&&&&&,right,fairness.vice,,,,,,,0,243,243,243,,,,,,,,,,,,,,,,,,,,,AMP,left,0.7504901490174234,,,left,0,0.7504901490174234,0,,,,,,,,,,,,,,,,,,,,,,1005,2019_Mar_06_0950,mf_amp_cond1,3.0.4,59.98382055749952,
baladroit,neputized,&&&&&&&&&,None,nonword,,,,,,,0,244,244,244,,,,,,,,,,,,,,,,,,,,,AMP,left,0.8671332799131051,,,left,0,0.8671332799131051,0,,,,,,,,,,,,,,,,,,,,,,1005,2019_Mar_06_0950,mf_amp_cond1,3.0.4,59.98382055749952,
drug,drumbled,&&&&&&&&,right,sanctity.vice,,,,,,,0,245,245,245,,,,,,,,,,,,,,,,,,,,,AMP,left,0.81714272510726,,,left,0,0.81714272510726,0,,,,,,,,,,,,,,,,,,,,,,1005,2019_Mar_06_0950,mf_amp_cond1,3.0.4,59.98382055749952,
refused,laming,&&&&&&,right,authority.vice,,,,,,,0,246,246,246,,,,,,,,,,,,,,,,,,,,,AMP,left,0.8671470710542053,,,left,0,0.8671470710542053,0,,,,,,,,,,,,,,,,,,,,,,1005,2019_Mar_06_0950,mf_amp_cond1,3.0.4,59.98382055749952,
drug,neputized,&&&&&&&&&,right,sanctity.vice,,,,,,,0,247,247,247,,,,,,,,,,,,,,,,,,,,,AMP,left,1.2339302786858752,,,left,0,1.2339302786858752,0,,,,,,,,,,,,,,,,,,,,,,1005,2019_Mar_06_0950,mf_amp_cond1,3.0.4,59.98382055749952,
loyalty,wonderfujnoss,&&&&&&&&&&&&&,left,loyalty.virtue,,,,,,,0,248,248,248,,,,,,,,,,,,,,,,,,,,,AMP,right,0.38369828183203936,,,right,0,0.38369828183203936,0,,,,,,,,,,,,,,,,,,,,,,1005,2019_Mar_06_0950,mf_amp_cond1,3.0.4,59.98382055749952,
safety,pafer,&&&&&,left,care.virtue,,,,,,,0,249,249,249,,,,,,,,,,,,,,,,,,,,,AMP,left,1.8507477238308638,,,left,1,1.8507477238308638,1,,,,,,,,,,,,,,,,,,,,,,1005,2019_Mar_06_0950,mf_amp_cond1,3.0.4,59.98382055749952,
voter,presentkess,&&&&&&&&&&&,right,fairness.vice,,,,,,,0,250,250,250,,,,,,,,,,,,,,,,,,,,,AMP,right,0.9671897595981136,,,right,1,0.9671897595981136,1,,,,,,,,,,,,,,,,,,,,,,1005,2019_Mar_06_0950,mf_amp_cond1,3.0.4,59.98382055749952,
freedom,divility,&&&&&&&&,left,sanctity.virtue,,,,,,,0,251,251,251,,,,,,,,,,,,,,,,,,,,,AMP,right,1.217289425083436,,,right,0,1.217289425083436,0,,,,,,,,,,,,,,,,,,,,,,1005,2019_Mar_06_0950,mf_amp_cond1,3.0.4,59.98382055749952,
chressing,sonvoy,&&&&&&,None,nonword,,,,,,,0,252,252,252,,,,,,,,,,,,,,,,,,,,,AMP,left,0.5503704542061314,,,left,0,0.5503704542061314,0,,,,,,,,,,,,,,,,,,,,,,1005,2019_Mar_06_0950,mf_amp_cond1,3.0.4,59.98382055749952,
scalbel,saned,&&&&&,None,nonword,,,,,,,0,253,253,253,,,,,,,,,,,,,,,,,,,,,AMP,left,1.0005096331005916,,,left,0,1.0005096331005916,0,,,,,,,,,,,,,,,,,,,,,,1005,2019_Mar_06_0950,mf_amp_cond1,3.0.4,59.98382055749952,
values,ecgagement,&&&&&&&&&&,left,sanctity.virtue,,,,,,,0,254,254,254,,,,,,,,,,,,,,,,,,,,,AMP,right,1.483980231685564,,,right,0,1.483980231685564,0,,,,,,,,,,,,,,,,,,,,,,1005,2019_Mar_06_0950,mf_amp_cond1,3.0.4,59.98382055749952,
critics,clamorek,&&&&&&&&,right,loyalty.vice,,,,,,,0,255,255,255,,,,,,,,,,,,,,,,,,,,,AMP,left,0.9338711689924821,,,left,0,0.9338711689924821,0,,,,,,,,,,,,,,,,,,,,,,1005,2019_Mar_06_0950,mf_amp_cond1,3.0.4,59.98382055749952,
baladroit,leact,&&&&&,None,nonword,,,,,,,0,256,256,256,,,,,,,,,,,,,,,,,,,,,AMP,left,0.4503787610447034,,,left,0,0.4503787610447034,0,,,,,,,,,,,,,,,,,,,,,,1005,2019_Mar_06_0950,mf_amp_cond1,3.0.4,59.98382055749952,
lies,neneficence,&&&&&&&&&&&,right,fairness.vice,,,,,,,0,257,257,257,,,,,,,,,,,,,,,,,,,,,AMP,right,2.2175245170947164,,,right,1,2.2175245170947164,1,,,,,,,,,,,,,,,,,,,,,,1005,2019_Mar_06_0950,mf_amp_cond1,3.0.4,59.98382055749952,
thabbily,abointment,&&&&&&&&&&,None,nonword,,,,,,,0,258,258,258,,,,,,,,,,,,,,,,,,,,,AMP,left,0.6672291127033532,,,left,0,0.6672291127033532,0,,,,,,,,,,,,,,,,,,,,,,1005,2019_Mar_06_0950,mf_amp_cond1,3.0.4,59.98382055749952,
growth,shoirmaster,&&&&&&&&&&&,left,care.virtue,,,,,,,0,259,259,259,,,,,,,,,,,,,,,,,,,,,AMP,left,1.033707310212776,,,left,1,1.033707310212776,1,,,,,,,,,,,,,,,,,,,,,,1005,2019_Mar_06_0950,mf_amp_cond1,3.0.4,59.98382055749952,
great,troubla,&&&&&&&,left,loyalty.virtue,,,,,,,0,260,260,260,,,,,,,,,,,,,,,,,,,,,AMP,left,0.4837005588924512,,,left,1,0.4837005588924512,1,,,,,,,,,,,,,,,,,,,,,,1005,2019_Mar_06_0950,mf_amp_cond1,3.0.4,59.98382055749952,
peaceful,unscothed,&&&&&&&&&,left,authority.virtue,,,,,,,0,261,261,261,,,,,,,,,,,,,,,,,,,,,AMP,left,0.7837959106545895,,,left,1,0.7837959106545895,1,,,,,,,,,,,,,,,,,,,,,,1005,2019_Mar_06_0950,mf_amp_cond1,3.0.4,59.98382055749952,
harassment,coom,&&&&,right,sanctity.vice,,,,,,,0,262,262,262,,,,,,,,,,,,,,,,,,,,,AMP,left,0.7336651989025995,,,left,0,0.7336651989025995,0,,,,,,,,,,,,,,,,,,,,,,1005,2019_Mar_06_0950,mf_amp_cond1,3.0.4,59.98382055749952,
fear,spag,&&&&,right,sanctity.vice,,,,,,,0,263,263,263,,,,,,,,,,,,,,,,,,,,,AMP,left,0.7004495612345636,,,left,0,0.7004495612345636,0,,,,,,,,,,,,,,,,,,,,,,1005,2019_Mar_06_0950,mf_amp_cond1,3.0.4,59.98382055749952,
good,dormandi,&&&&&&&&,left,care.virtue,,,,,,,0,264,264,264,,,,,,,,,,,,,,,,,,,,,AMP,right,0.867156051332131,,,right,0,0.867156051332131,0,,,,,,,,,,,,,,,,,,,,,,1005,2019_Mar_06_0950,mf_amp_cond1,3.0.4,59.98382055749952,
crime,vurtain,&&&&&&&,right,fairness.vice,,,,,,,0,265,265,265,,,,,,,,,,,,,,,,,,,,,AMP,right,1.6340192479547113,,,right,1,1.6340192479547113,1,,,,,,,,,,,,,,,,,,,,,,1005,2019_Mar_06_0950,mf_amp_cond1,3.0.4,59.98382055749952,
love,forepo,&&&&&&,left,loyalty.virtue,,,,,,,0,266,266,266,,,,,,,,,,,,,,,,,,,,,AMP,left,0.6504266132833436,,,left,1,0.6504266132833436,1,,,,,,,,,,,,,,,,,,,,,,1005,2019_Mar_06_0950,mf_amp_cond1,3.0.4,59.98382055749952,
help,pumber,&&&&&&,left,care.virtue,,,,,,,0,267,267,267,,,,,,,,,,,,,,,,,,,,,AMP,left,0.6337196902604774,,,left,1,0.6337196902604774,1,,,,,,,,,,,,,,,,,,,,,,1005,2019_Mar_06_0950,mf_amp_cond1,3.0.4,59.98382055749952,
illegal,reprisols,&&&&&&&&&,right,fairness.vice,,,,,,,0,268,268,268,,,,,,,,,,,,,,,,,,,,,AMP,left,0.9004903575405478,,,left,0,0.9004903575405478,0,,,,,,,,,,,,,,,,,,,,,,1005,2019_Mar_06_0950,mf_amp_cond1,3.0.4,59.98382055749952,
celebrated,antral,&&&&&&,left,authority.virtue,,,,,,,0,269,269,269,,,,,,,,,,,,,,,,,,,,,AMP,left,1.1505502531072125,,,left,1,1.1505502531072125,1,,,,,,,,,,,,,,,,,,,,,,1005,2019_Mar_06_0950,mf_amp_cond1,3.0.4,59.98382055749952,
free,gowlands,&&&&&&&&,left,fairness.virtue,,,,,,,0,270,270,270,,,,,,,,,,,,,,,,,,,,,AMP,left,0.6504352728370577,,,left,1,0.6504352728370577,1,,,,,,,,,,,,,,,,,,,,,,1005,2019_Mar_06_0950,mf_amp_cond1,3.0.4,59.98382055749952,
care,crinking,&&&&&&&&,left,care.virtue,,,,,,,0,271,271,271,,,,,,,,,,,,,,,,,,,,,AMP,left,0.48369767237454653,,,left,1,0.48369767237454653,1,,,,,,,,,,,,,,,,,,,,,,1005,2019_Mar_06_0950,mf_amp_cond1,3.0.4,59.98382055749952,
papert,fegard,&&&&&&,None,nonword,,,,,,,0,272,272,272,,,,,,,,,,,,,,,,,,,,,AMP,left,0.7337835467187688,,,left,0,0.7337835467187688,0,,,,,,,,,,,,,,,,,,,,,,1005,2019_Mar_06_0950,mf_amp_cond1,3.0.4,59.98382055749952,
victim,discovars,&&&&&&&&&,right,care.vice,,,,,,,0,273,273,273,,,,,,,,,,,,,,,,,,,,,AMP,left,0.8838732376461849,,,left,0,0.8838732376461849,0,,,,,,,,,,,,,,,,,,,,,,1005,2019_Mar_06_0950,mf_amp_cond1,3.0.4,59.98382055749952,
victims,stindig,&&&&&&&,right,care.vice,,,,,,,0,274,274,274,,,,,,,,,,,,,,,,,,,,,AMP,left,0.7837734598433599,,,left,0,0.7837734598433599,0,,,,,,,,,,,,,,,,,,,,,,1005,2019_Mar_06_0950,mf_amp_cond1,3.0.4,59.98382055749952,
useful,gillipede,&&&&&&&&&,left,authority.virtue,,,,,,,0,275,275,275,,,,,,,,,,,,,,,,,,,,,AMP,right,0.4837098600110039,,,right,0,0.4837098600110039,0,,,,,,,,,,,,,,,,,,,,,,1005,2019_Mar_06_0950,mf_amp_cond1,3.0.4,59.98382055749952,
promote,taxpayung,&&&&&&&&&,left,sanctity.virtue,,,,,,,0,276,276,276,,,,,,,,,,,,,,,,,,,,,AMP,left,0.4337334173033014,,,left,1,0.4337334173033014,1,,,,,,,,,,,,,,,,,,,,,,1005,2019_Mar_06_0950,mf_amp_cond1,3.0.4,59.98382055749952,
injured,idexpressible,&&&&&&&&&&&&&,right,care.vice,,,,,,,0,277,277,277,,,,,,,,,,,,,,,,,,,,,AMP,left,0.48371499159839004,,,left,0,0.48371499159839004,0,,,,,,,,,,,,,,,,,,,,,,1005,2019_Mar_06_0950,mf_amp_cond1,3.0.4,59.98382055749952,
precificity,frocessing,&&&&&&&&&&,None,nonword,,,,,,,0,278,278,278,,,,,,,,,,,,,,,,,,,,,AMP,right,1.8340645345160738,,,right,0,1.8340645345160738,0,,,,,,,,,,,,,,,,,,,,,,1005,2019_Mar_06_0950,mf_amp_cond1,3.0.4,59.98382055749952,
fighters,hasks,&&&&&,right,authority.vice,,,,,,,0,279,279,279,,,,,,,,,,,,,,,,,,,,,AMP,left,0.7503528784727678,,,left,0,0.7503528784727678,0,,,,,,,,,,,,,,,,,,,,,,1005,2019_Mar_06_0950,mf_amp_cond1,3.0.4,59.98382055749952,
civilians,fostet,&&&&&&,right,care.vice,,,,,,,0,280,280,280,,,,,,,,,,,,,,,,,,,,,AMP,left,0.8004544042050838,,,left,0,0.8004544042050838,0,,,,,,,,,,,,,,,,,,,,,,1005,2019_Mar_06_0950,mf_amp_cond1,3.0.4,59.98382055749952,
slavery,mightingale,&&&&&&&&&&&,right,loyalty.vice,,,,,,,0,281,281,281,,,,,,,,,,,,,,,,,,,,,AMP,right,0.6671235939720646,,,right,1,0.6671235939720646,1,,,,,,,,,,,,,,,,,,,,,,1005,2019_Mar_06_0950,mf_amp_cond1,3.0.4,59.98382055749952,
terrorist,pulge,&&&&&,right,loyalty.vice,,,,,,,0,282,282,282,,,,,,,,,,,,,,,,,,,,,AMP,left,1.2672296258388087,,,left,0,1.2672296258388087,0,,,,,,,,,,,,,,,,,,,,,,1005,2019_Mar_06_0950,mf_amp_cond1,3.0.4,59.98382055749952,
benefit,sowntrodden,&&&&&&&&&&&,left,fairness.virtue,,,,,,,0,283,283,283,,,,,,,,,,,,,,,,,,,,,AMP,left,0.8171196328476071,,,left,1,0.8171196328476071,1,,,,,,,,,,,,,,,,,,,,,,1005,2019_Mar_06_0950,mf_amp_cond1,3.0.4,59.98382055749952,
opportunity,sidearbs,&&&&&&&&,left,fairness.virtue,,,,,,,0,284,284,284,,,,,,,,,,,,,,,,,,,,,AMP,left,0.6671328949742019,,,left,1,0.6671328949742019,1,,,,,,,,,,,,,,,,,,,,,,1005,2019_Mar_06_0950,mf_amp_cond1,3.0.4,59.98382055749952,
Phintoism,drumbled,&&&&&&&&,None,nonword,,,,,,,0,285,285,285,,,,,,,,,,,,,,,,,,,,,AMP,left,0.8338105196598917,,,left,0,0.8338105196598917,0,,,,,,,,,,,,,,,,,,,,,,1005,2019_Mar_06_0950,mf_amp_cond1,3.0.4,59.98382055749952,
penalty,perified,&&&&&&&&,right,authority.vice,,,,,,,0,286,286,286,,,,,,,,,,,,,,,,,,,,,AMP,right,1.0170270074158907,,,right,1,1.0170270074158907,1,,,,,,,,,,,,,,,,,,,,,,1005,2019_Mar_06_0950,mf_amp_cond1,3.0.4,59.98382055749952,
fraud,nuckheap,&&&&&&&&,right,fairness.vice,,,,,,,0,287,287,287,,,,,,,,,,,,,,,,,,,,,AMP,left,0.4670446312520653,,,left,0,0.4670446312520653,0,,,,,,,,,,,,,,,,,,,,,,1005,2019_Mar_06_0950,mf_amp_cond1,3.0.4,59.98382055749952,
energy,noped,&&&&&,left,sanctity.virtue,,,,,,,0,288,288,288,,,,,,,,,,,,,,,,,,,,,AMP,left,0.6337645918829367,,,left,1,0.6337645918829367,1,,,,,,,,,,,,,,,,,,,,,,1005,2019_Mar_06_0950,mf_amp_cond1,3.0.4,59.98382055749952,
embrace,ejanulated,&&&&&&&&&&,left,authority.virtue,,,,,,,0,289,289,289,,,,,,,,,,,,,,,,,,,,,AMP,left,0.6004514534724876,,,left,1,0.6004514534724876,1,,,,,,,,,,,,,,,,,,,,,,1005,2019_Mar_06_0950,mf_amp_cond1,3.0.4,59.98382055749952,
tracious,carvels,&&&&&&&,None,nonword,,,,,,,0,290,290,290,,,,,,,,,,,,,,,,,,,,,AMP,left,0.7670902705285698,,,left,0,0.7670902705285698,0,,,,,,,,,,,,,,,,,,,,,,1005,2019_Mar_06_0950,mf_amp_cond1,3.0.4,59.98382055749952,
attacks,shoirmaster,&&&&&&&&&&&,right,care.vice,,,,,,,0,291,291,291,,,,,,,,,,,,,,,,,,,,,AMP,left,1.1172515474027023,,,left,0,1.1172515474027023,0,,,,,,,,,,,,,,,,,,,,,,1005,2019_Mar_06_0950,mf_amp_cond1,3.0.4,59.98382055749952,
ban,gondensed,&&&&&&&&&,right,loyalty.vice,,,,,,,0,292,292,292,,,,,,,,,,,,,,,,,,,,,AMP,left,0.9338291538879275,,,left,0,0.9338291538879275,0,,,,,,,,,,,,,,,,,,,,,,1005,2019_Mar_06_0950,mf_amp_cond1,3.0.4,59.98382055749952,
ability,proached,&&&&&&&&,left,authority.virtue,,,,,,,0,293,293,293,,,,,,,,,,,,,,,,,,,,,AMP,left,1.400683594867587,,,left,1,1.400683594867587,1,,,,,,,,,,,,,,,,,,,,,,1005,2019_Mar_06_0950,mf_amp_cond1,3.0.4,59.98382055749952,
respect,emports,&&&&&&&,left,sanctity.virtue,,,,,,,0,294,294,294,,,,,,,,,,,,,,,,,,,,,AMP,right,0.7170968293212354,,,right,0,0.7170968293212354,0,,,,,,,,,,,,,,,,,,,,,,1005,2019_Mar_06_0950,mf_amp_cond1,3.0.4,59.98382055749952,
protesters,refuejing,&&&&&&&&&,right,authority.vice,,,,,,,0,295,295,295,,,,,,,,,,,,,,,,,,,,,AMP,left,0.6504012759542093,,,left,0,0.6504012759542093,0,,,,,,,,,,,,,,,,,,,,,,1005,2019_Mar_06_0950,mf_amp_cond1,3.0.4,59.98382055749952,
war,chared,&&&&&&,right,sanctity.vice,,,,,,,0,296,296,296,,,,,,,,,,,,,,,,,,,,,AMP,left,1.4839850426651537,,,left,0,1.4839850426651537,0,,,,,,,,,,,,,,,,,,,,,,1005,2019_Mar_06_0950,mf_amp_cond1,3.0.4,59.98382055749952,
Oregoniuns,letish,&&&&&&,None,nonword,,,,,,,0,297,297,297,,,,,,,,,,,,,,,,,,,,,AMP,left,0.3836844905745238,,,left,0,0.3836844905745238,0,,,,,,,,,,,,,,,,,,,,,,1005,2019_Mar_06_0950,mf_amp_cond1,3.0.4,59.98382055749952,
nomaric,glacenta,&&&&&&&&,None,nonword,,,,,,,0,298,298,298,,,,,,,,,,,,,,,,,,,,,AMP,right,1.1671821263153106,,,right,0,1.1671821263153106,0,,,,,,,,,,,,,,,,,,,,,,1005,2019_Mar_06_0950,mf_amp_cond1,3.0.4,59.98382055749952,
promises,counpy's,&&&&&&&&,left,fairness.virtue,,,,,,,0,299,299,299,,,,,,,,,,,,,,,,,,,,,AMP,left,0.5670472291531041,,,left,1,0.5670472291531041,1,,,,,,,,,,,,,,,,,,,,,,1005,2019_Mar_06_0950,mf_amp_cond1,3.0.4,59.98382055749952,
rebels,thadowed,&&&&&&&&,right,authority.vice,,,,,,,0,300,300,300,,,,,,,,,,,,,,,,,,,,,AMP,left,0.9171578313689679,,,left,0,0.9171578313689679,0,,,,,,,,,,,,,,,,,,,,,,1005,2019_Mar_06_0950,mf_amp_cond1,3.0.4,59.98382055749952,
fair,openet,&&&&&&,left,fairness.virtue,,,,,,,0,301,301,301,,,,,,,,,,,,,,,,,,,,,AMP,right,0.5337225446710363,,,right,0,0.5337225446710363,0,,,,,,,,,,,,,,,,,,,,,,1005,2019_Mar_06_0950,mf_amp_cond1,3.0.4,59.98382055749952,
credit,baklara,&&&&&&&,left,fairness.virtue,,,,,,,0,302,302,302,,,,,,,,,,,,,,,,,,,,,AMP,left,1.417262548347935,,,left,1,1.417262548347935,1,,,,,,,,,,,,,,,,,,,,,,1005,2019_Mar_06_0950,mf_amp_cond1,3.0.4,59.98382055749952,
racist,hescribe,&&&&&&&&,right,sanctity.vice,,,,,,,0,303,303,303,,,,,,,,,,,,,,,,,,,,,AMP,left,1.2005658242851496,,,left,0,1.2005658242851496,0,,,,,,,,,,,,,,,,,,,,,,1005,2019_Mar_06_0950,mf_amp_cond1,3.0.4,59.98382055749952,
party,reelectiob,&&&&&&&&&&,left,loyalty.virtue,,,,,,,0,304,304,304,,,,,,,,,,,,,,,,,,,,,AMP,left,1.0838652836391702,,,left,1,1.0838652836391702,1,,,,,,,,,,,,,,,,,,,,,,1005,2019_Mar_06_0950,mf_amp_cond1,3.0.4,59.98382055749952,
encourage,erdest,&&&&&&,left,authority.virtue,,,,,,,0,305,305,305,,,,,,,,,,,,,,,,,,,,,AMP,left,0.900485867401585,,,left,1,0.900485867401585,1,,,,,,,,,,,,,,,,,,,,,,1005,2019_Mar_06_0950,mf_amp_cond1,3.0.4,59.98382055749952,
riot,festate,&&&&&&&,right,authority.vice,,,,,,,0,306,306,306,,,,,,,,,,,,,,,,,,,,,AMP,left,0.6004120042780414,,,left,0,0.6004120042780414,0,,,,,,,,,,,,,,,,,,,,,,1005,2019_Mar_06_0950,mf_amp_cond1,3.0.4,59.98382055749952,
clean,rivernoat,&&&&&&&&&,left,sanctity.virtue,,,,,,,0,307,307,307,,,,,,,,,,,,,,,,,,,,,AMP,left,0.5170820119092241,,,left,1,0.5170820119092241,1,,,,,,,,,,,,,,,,,,,,,,1005,2019_Mar_06_0950,mf_amp_cond1,3.0.4,59.98382055749952,
safe,disregord,&&&&&&&&&,left,care.virtue,,,,,,,0,308,308,308,,,,,,,,,,,,,,,,,,,,,AMP,left,0.6170974387787282,,,left,1,0.6170974387787282,1,,,,,,,,,,,,,,,,,,,,,,1005,2019_Mar_06_0950,mf_amp_cond1,3.0.4,59.98382055749952,
torture,ammessment,&&&&&&&&&&,right,care.vice,,,,,,,0,309,309,309,,,,,,,,,,,,,,,,,,,,,AMP,right,1.183861466939561,,,right,1,1.183861466939561,1,,,,,,,,,,,,,,,,,,,,,,1005,2019_Mar_06_0950,mf_amp_cond1,3.0.4,59.98382055749952,
prison,nackers,&&&&&&&,right,fairness.vice,,,,,,,0,310,310,310,,,,,,,,,,,,,,,,,,,,,AMP,left,0.35035467450506985,,,left,0,0.35035467450506985,0,,,,,,,,,,,,,,,,,,,,,,1005,2019_Mar_06_0950,mf_amp_cond1,3.0.4,59.98382055749952,
hope,menizen,&&&&&&&,left,loyalty.virtue,,,,,,,0,311,311,311,,,,,,,,,,,,,,,,,,,,,AMP,left,0.6170817231759429,,,left,1,0.6170817231759429,1,,,,,,,,,,,,,,,,,,,,,,1005,2019_Mar_06_0950,mf_amp_cond1,3.0.4,59.98382055749952,
friends,prones,&&&&&&,left,loyalty.virtue,,,,,,,0,312,312,312,,,,,,,,,,,,,,,,,,,,,AMP,left,2.0506403448525816,,,left,1,2.0506403448525816,1,,,,,,,,,,,,,,,,,,,,,,1005,2019_Mar_06_0950,mf_amp_cond1,3.0.4,59.98382055749952,
died,smapper,&&&&&&&,right,care.vice,,,,,,,0,313,313,313,,,,,,,,,,,,,,,,,,,,,AMP,right,1.0172098209150136,,,right,1,1.0172098209150136,1,,,,,,,,,,,,,,,,,,,,,,1005,2019_Mar_06_0950,mf_amp_cond1,3.0.4,59.98382055749952,
pleasant,rorroborated,&&&&&&&&&&&&,None,control,,,,,,,0,314,314,314,,,,,,,,,,,,,,,,,,,,,AMP,left,1.1172268515219912,,,left,0,1.1172268515219912,0,,,,,,,,,,,,,,,,,,,,,,1005,2019_Mar_06_0950,mf_amp_cond1,3.0.4,59.98382055749952,
blamed,lorthwhile,&&&&&&&&&&,right,loyalty.vice,,,,,,,0,315,315,315,,,,,,,,,,,,,,,,,,,,,AMP,left,0.600413287174888,,,left,0,0.600413287174888,0,,,,,,,,,,,,,,,,,,,,,,1005,2019_Mar_06_0950,mf_amp_cond1,3.0.4,59.98382055749952,
unpleasant,pullness,&&&&&&&&,None,control,,,,,,,0,316,316,316,,,,,,,,,,,,,,,,,,,,,AMP,right,0.7004453918198124,,,right,0,0.7004453918198124,0,,,,,,,,,,,,,,,,,,,,,,1005,2019_Mar_06_0950,mf_amp_cond1,3.0.4,59.98382055749952,
dignity,greaks,&&&&&&,left,sanctity.virtue,,,,,,,0,317,317,317,,,,,,,,,,,,,,,,,,,,,AMP,left,0.38368577347137034,,,left,1,0.38368577347137034,1,,,,,,,,,,,,,,,,,,,,,,1005,2019_Mar_06_0950,mf_amp_cond1,3.0.4,59.98382055749952,
intelligence,gusinesslike,&&&&&&&&&&&&,left,loyalty.virtue,,,,,,,0,318,318,318,,,,,,,,,,,,,,,,,,,,,AMP,right,1.4839834389276803,,,right,0,1.4839834389276803,0,,,,,,,,,,,,,,,,,,,,,,1005,2019_Mar_06_0950,mf_amp_cond1,3.0.4,59.98382055749952,
actively,nonobservalt,&&&&&&&&&&&&,left,authority.virtue,,,,,,,0,319,319,319,,,,,,,,,,,,,,,,,,,,,AMP,left,0.6337671576766297,,,left,1,0.6337671576766297,1,,,,,,,,,,,,,,,,,,,,,,1005,2019_Mar_06_0950,mf_amp_cond1,3.0.4,59.98382055749952,
groups,grovelire,&&&&&&&&&,right,loyalty.vice,,,,,,,0,320,320,320,,,,,,,,,,,,,,,,,,,,,AMP,left,1.4339704335434362,,,left,0,1.4339704335434362,0,,,,,,,,,,,,,,,,,,,,,,1005,2019_Mar_06_0950,mf_amp_cond1,3.0.4,59.98382055749952,
corruption,unreflectuve,&&&&&&&&&&&&,right,sanctity.vice,,,,,,,0,321,321,321,,,,,,,,,,,,,,,,,,,,,AMP,left,0.8338227072963491,,,left,0,0.8338227072963491,0,,,,,,,,,,,,,,,,,,,,,,1005,2019_Mar_06_0950,mf_amp_cond1,3.0.4,59.98382055749952,
arrests,reviked,&&&&&&&,right,authority.vice,,,,,,,0,322,322,322,,,,,,,,,,,,,,,,,,,,,AMP,right,1.1672437055967748,,,right,1,1.1672437055967748,1,,,,,,,,,,,,,,,,,,,,,,1005,2019_Mar_06_0950,mf_amp_cond1,3.0.4,59.98382055749952,
sexual,hatigue,&&&&&&&,right,sanctity.vice,,,,,,,0,323,323,323,,,,,,,,,,,,,,,,,,,,,AMP,left,0.43370134476572275,,,left,0,0.43370134476572275,0,,,,,,,,,,,,,,,,,,,,,,1005,2019_Mar_06_0950,mf_amp_cond1,3.0.4,59.98382055749952,
improve,ronviolence,&&&&&&&&&&&,left,care.virtue,,,,,,,0,324,324,324,,,,,,,,,,,,,,,,,,,,,AMP,right,0.6337491968879476,,,right,0,0.6337491968879476,0,,,,,,,,,,,,,,,,,,,,,,1005,2019_Mar_06_0950,mf_amp_cond1,3.0.4,59.98382055749952,
betrayal,lursuer,&&&&&&&,right,loyalty.vice,,,,,,,0,325,325,325,,,,,,,,,,,,,,,,,,,,,AMP,left,1.5339560330612585,,,left,0,1.5339560330612585,0,,,,,,,,,,,,,,,,,,,,,,1005,2019_Mar_06_0950,mf_amp_cond1,3.0.4,59.98382055749952,
agreement,quarterbocks,&&&&&&&&&&&&,left,fairness.virtue,,,,,,,0,326,326,326,,,,,,,,,,,,,,,,,,,,,AMP,left,0.6337787037482485,,,left,1,0.6337787037482485,1,,,,,,,,,,,,,,,,,,,,,,1005,2019_Mar_06_0950,mf_amp_cond1,3.0.4,59.98382055749952,
charges,squets,&&&&&&,right,fairness.vice,,,,,,,0,327,327,327,,,,,,,,,,,,,,,,,,,,,AMP,left,0.45037138427142054,,,left,0,0.45037138427142054,0,,,,,,,,,,,,,,,,,,,,,,1005,2019_Mar_06_0950,mf_amp_cond1,3.0.4,59.98382055749952,
,,,,,,,,,,,,,,,,,,,,,,,,,,,,,,,,,,,,,,,,,,,,4,14.372,,,,,,,,,,,,,,,,,,,,1005,2019_Mar_06_0950,mf_amp_cond1,3.0.4,59.98382055749952,
,,,,,,,,,,,,,,,,,,,,,,,,,,,,,,,,,,,,,,,,,,,,,,5,13.022,,,,,,,,,,,,,,,,,,1005,2019_Mar_06_0950,mf_amp_cond1,3.0.4,59.98382055749952,
,,,,,,,,,,,,,,,,,,,,,,,,,,,,,,,,,,,,,,,,,,,,,,,,2,8.438,,,,,,,,,,,,,,,,1005,2019_Mar_06_0950,mf_amp_cond1,3.0.4,59.98382055749952,
,,,,,,,,,,,,,,,,,,,,,,,,,,,,,,,,,,,,,,,,,,,,,,,,,,right,2.1008409748319536,,,,,,,,,,,,,,1005,2019_Mar_06_0950,mf_amp_cond1,3.0.4,59.98382055749952,
keyboard,,&&&&&&&,,,,,,,,,,,,,0,0,0,0,,,,,,,,,,,,,,,,,LDT_prac,left,2.38421849894803,,,,,,0,,,,,,,,,left,2.38421849894803,,,,,,,,,,,,1005,2019_Mar_06_0950,mf_amp_cond1,3.0.4,59.98382055749952,
bisebell,,&&&&&&&,,,,,,,,,,,,,0,1,1,1,,,,,,,,,,,,,,,,,LDT_prac,right,1.9340892625041306,,,,,,0,,,,,,,,,right,1.9340892625041306,,,,,,,,,,,,1005,2019_Mar_06_0950,mf_amp_cond1,3.0.4,59.98382055749952,
,,,,,,,,,,,,,,,,,,,,,,,,,,,,,,,,,,,,,,,,,,,,,,,,,,,,,,right,2.9843312660232186,,,,,,,,,,1005,2019_Mar_06_0950,mf_amp_cond1,3.0.4,59.98382055749952,
yane,,&&&&,right,nonword,,,,,,,,,,,,,,,0,0,0,32,,,,,,,,,,,,,LDT,left,1.5506437125150114,,,,,,0,,,,,,,,,,,,,left,0,1.5506437125150114,,,,,,,1005,2019_Mar_06_0950,mf_amp_cond1,3.0.4,59.98382055749952,
vicissifude,,&&&&&&&&&&&,right,nonword,,,,,,,,,,,,,,,0,1,1,59,,,,,,,,,,,,,LDT,left,1.400627788505517,,,,,,0,,,,,,,,,,,,,left,0,1.400627788505517,,,,,,,1005,2019_Mar_06_0950,mf_amp_cond1,3.0.4,59.98382055749952,
troops,,&&&&&&,left,loyalty.vice,,,,,,,,,,,,,,,0,2,2,172,,,,,,,,,,,,,LDT,right,1.350619914708659,,,,,,0,,,,,,,,,,,,,right,0,1.350619914708659,,,,,,,1005,2019_Mar_06_0950,mf_amp_cond1,3.0.4,59.98382055749952,
fonderland,,&&&&&&&&&&,right,nonword,,,,,,,,,,,,,,,0,3,3,190,,,,,,,,,,,,,LDT,left,1.7507149777375162,,,,,,0,,,,,,,,,,,,,left,0,1.7507149777375162,,,,,,,1005,2019_Mar_06_0950,mf_amp_cond1,3.0.4,59.98382055749952,
fontacts,,&&&&&&&&,right,nonword,,,,,,,,,,,,,,,0,4,4,14,,,,,,,,,,,,,LDT,left,2.000832283287309,,,,,,0,,,,,,,,,,,,,left,0,2.000832283287309,,,,,,,1005,2019_Mar_06_0950,mf_amp_cond1,3.0.4,59.98382055749952,
wherever,,&&&&&&&&,left,neutral,,,,,,,,,,,,,,,0,5,5,45,,,,,,,,,,,,,LDT,right,1.0171960297739133,,,,,,0,,,,,,,,,,,,,right,0,1.0171960297739133,,,,,,,1005,2019_Mar_06_0950,mf_amp_cond1,3.0.4,59.98382055749952,
mecan,,&&&&&,right,nonword,,,,,,,,,,,,,,,0,6,6,16,,,,,,,,,,,,,LDT,left,2.1841045771725476,,,,,,0,,,,,,,,,,,,,left,0,2.1841045771725476,,,,,,,1005,2019_Mar_06_0950,mf_amp_cond1,3.0.4,59.98382055749952,
either,,&&&&&&,left,neutral,,,,,,,,,,,,,,,0,7,7,142,,,,,,,,,,,,,LDT,left,1.1338850243482739,,,,,,1,,,,,,,,,,,,,left,1,1.1338850243482739,,,,,,,1005,2019_Mar_06_0950,mf_amp_cond1,3.0.4,59.98382055749952,
gikely,,&&&&&&,right,nonword,,,,,,,,,,,,,,,0,8,8,2,,,,,,,,,,,,,LDT,right,1.484000758267939,,,,,,1,,,,,,,,,,,,,right,1,1.484000758267939,,,,,,,1005,2019_Mar_06_0950,mf_amp_cond1,3.0.4,59.98382055749952,
fifty,,&&&&&,left,neutral,,,,,,,,,,,,,,,0,9,9,164,,,,,,,,,,,,,LDT,left,1.8840839545009658,,,,,,1,,,,,,,,,,,,,left,1,1.8840839545009658,,,,,,,1005,2019_Mar_06_0950,mf_amp_cond1,3.0.4,59.98382055749952,
hereby,,&&&&&&,left,neutral,,,,,,,,,,,,,,,0,10,10,63,,,,,,,,,,,,,LDT,left,1.3839580696076155,,,,,,1,,,,,,,,,,,,,left,1,1.3839580696076155,,,,,,,1005,2019_Mar_06_0950,mf_amp_cond1,3.0.4,59.98382055749952,
wump,,&&&&,right,nonword,,,,,,,,,,,,,,,0,11,11,51,,,,,,,,,,,,,LDT,left,1.3006085128290579,,,,,,0,,,,,,,,,,,,,left,0,1.3006085128290579,,,,,,,1005,2019_Mar_06_0950,mf_amp_cond1,3.0.4,59.98382055749952,
egpeditious,,&&&&&&&&&&&,right,nonword,,,,,,,,,,,,,,,0,12,12,103,,,,,,,,,,,,,LDT,right,0.8838296189205721,,,,,,1,,,,,,,,,,,,,right,1,0.8838296189205721,,,,,,,1005,2019_Mar_06_0950,mf_amp_cond1,3.0.4,59.98382055749952,
sgrawl,,&&&&&&,right,nonword,,,,,,,,,,,,,,,0,13,13,134,,,,,,,,,,,,,LDT,left,2.2508613890968263,,,,,,0,,,,,,,,,,,,,left,0,2.2508613890968263,,,,,,,1005,2019_Mar_06_0950,mf_amp_cond1,3.0.4,59.98382055749952,
lenon,,&&&&&,right,nonword,,,,,,,,,,,,,,,0,14,14,28,,,,,,,,,,,,,LDT,right,0.6670915213180706,,,,,,1,,,,,,,,,,,,,right,1,0.6670915213180706,,,,,,,1005,2019_Mar_06_0950,mf_amp_cond1,3.0.4,59.98382055749952,
shot,,&&&&,left,care.vice,,,,,,,,,,,,,,,0,15,15,52,,,,,,,,,,,,,LDT,left,2.267552275909111,,,,,,1,,,,,,,,,,,,,left,1,2.267552275909111,,,,,,,1005,2019_Mar_06_0950,mf_amp_cond1,3.0.4,59.98382055749952,
itself,,&&&&&&,left,neutral,,,,,,,,,,,,,,,0,16,16,21,,,,,,,,,,,,,LDT,right,0.8338153306394815,,,,,,0,,,,,,,,,,,,,right,0,0.8338153306394815,,,,,,,1005,2019_Mar_06_0950,mf_amp_cond1,3.0.4,59.98382055749952,
dramens,,&&&&&&&,right,nonword,,,,,,,,,,,,,,,0,17,17,144,,,,,,,,,,,,,LDT,left,1.567335561499931,,,,,,0,,,,,,,,,,,,,left,0,1.567335561499931,,,,,,,1005,2019_Mar_06_0950,mf_amp_cond1,3.0.4,59.98382055749952,
forced,,&&&&&&,left,fairness.vice,,,,,,,,,,,,,,,0,18,18,84,,,,,,,,,,,,,LDT,right,0.7171102998545393,,,,,,0,,,,,,,,,,,,,right,0,0.7171102998545393,,,,,,,1005,2019_Mar_06_0950,mf_amp_cond1,3.0.4,59.98382055749952,
praise,,&&&&&&,left,authority.virtue,,,,,,,,,,,,,,,0,19,19,89,,,,,,,,,,,,,LDT,right,0.950502400752157,,,,,,0,,,,,,,,,,,,,right,0,0.950502400752157,,,,,,,1005,2019_Mar_06_0950,mf_amp_cond1,3.0.4,59.98382055749952,
amoungst,,&&&&&&&&,left,neutral,,,,,,,,,,,,,,,0,20,20,125,,,,,,,,,,,,,LDT,left,1.567337485961616,,,,,,1,,,,,,,,,,,,,left,1,1.567337485961616,,,,,,,1005,2019_Mar_06_0950,mf_amp_cond1,3.0.4,59.98382055749952,
gandbrake,,&&&&&&&&&,right,nonword,,,,,,,,,,,,,,,0,21,21,111,,,,,,,,,,,,,LDT,right,1.3172820805339143,,,,,,1,,,,,,,,,,,,,right,1,1.3172820805339143,,,,,,,1005,2019_Mar_06_0950,mf_amp_cond1,3.0.4,59.98382055749952,
brotesque,,&&&&&&&&&,right,nonword,,,,,,,,,,,,,,,0,22,22,167,,,,,,,,,,,,,LDT,left,1.8338711368851364,,,,,,0,,,,,,,,,,,,,left,0,1.8338711368851364,,,,,,,1005,2019_Mar_06_0950,mf_amp_cond1,3.0.4,59.98382055749952,
tomedians,,&&&&&&&&&,right,nonword,,,,,,,,,,,,,,,0,23,23,4,,,,,,,,,,,,,LDT,left,0.9839467158308253,,,,,,0,,,,,,,,,,,,,left,0,0.9839467158308253,,,,,,,1005,2019_Mar_06_0950,mf_amp_cond1,3.0.4,59.98382055749952,
mostly,,&&&&&&,left,neutral,,,,,,,,,,,,,,,0,24,24,177,,,,,,,,,,,,,LDT,right,0.6837006231071427,,,,,,0,,,,,,,,,,,,,right,0,0.6837006231071427,,,,,,,1005,2019_Mar_06_0950,mf_amp_cond1,3.0.4,59.98382055749952,
gationwide,,&&&&&&&&&&,right,nonword,,,,,,,,,,,,,,,0,25,25,93,,,,,,,,,,,,,LDT,left,1.7173973493045196,,,,,,0,,,,,,,,,,,,,left,0,1.7173973493045196,,,,,,,1005,2019_Mar_06_0950,mf_amp_cond1,3.0.4,59.98382055749952,
fifteen,,&&&&&&&,left,neutral,,,,,,,,,,,,,,,0,26,26,191,,,,,,,,,,,,,LDT,right,0.6837971615605056,,,,,,0,,,,,,,,,,,,,right,0,0.6837971615605056,,,,,,,1005,2019_Mar_06_0950,mf_amp_cond1,3.0.4,59.98382055749952,
Lacedonia,,&&&&&&&&&,right,nonword,,,,,,,,,,,,,,,0,27,27,56,,,,,,,,,,,,,LDT,right,1.5672845661174506,,,,,,1,,,,,,,,,,,,,right,1,1.5672845661174506,,,,,,,1005,2019_Mar_06_0950,mf_amp_cond1,3.0.4,59.98382055749952,
juck,,&&&&,right,nonword,,,,,,,,,,,,,,,0,28,28,137,,,,,,,,,,,,,LDT,left,1.8174272088799626,,,,,,0,,,,,,,,,,,,,left,0,1.8174272088799626,,,,,,,1005,2019_Mar_06_0950,mf_amp_cond1,3.0.4,59.98382055749952,
feleological,,&&&&&&&&&&&&,right,nonword,,,,,,,,,,,,,,,0,29,29,30,,,,,,,,,,,,,LDT,right,3.317792355082929,,,,,,1,,,,,,,,,,,,,right,1,3.317792355082929,,,,,,,1005,2019_Mar_06_0950,mf_amp_cond1,3.0.4,59.98382055749952,
sharing,,&&&&&&&,left,loyalty.virtue,,,,,,,,,,,,,,,0,30,30,173,,,,,,,,,,,,,LDT,right,1.8507441958645359,,,,,,0,,,,,,,,,,,,,right,0,1.8507441958645359,,,,,,,1005,2019_Mar_06_0950,mf_amp_cond1,3.0.4,59.98382055749952,
black,,&&&&&,left,loyalty.vice,,,,,,,,,,,,,,,0,31,31,118,,,,,,,,,,,,,LDT,right,0.7171244117198512,,,,,,0,,,,,,,,,,,,,right,0,0.7171244117198512,,,,,,,1005,2019_Mar_06_0950,mf_amp_cond1,3.0.4,59.98382055749952,
imebreaker,,&&&&&&&&&&,right,nonword,,,,,,,,,,,,,,,0,32,32,31,,,,,,,,,,,,,LDT,left,2.6342793565709144,,,,,,0,,,,,,,,,,,,,left,0,2.6342793565709144,,,,,,,1005,2019_Mar_06_0950,mf_amp_cond1,3.0.4,59.98382055749952,
integrity,,&&&&&&&&&,left,fairness.virtue,,,,,,,,,,,,,,,0,33,33,17,,,,,,,,,,,,,LDT,right,0.6171057776082307,,,,,,0,,,,,,,,,,,,,right,0,0.6171057776082307,,,,,,,1005,2019_Mar_06_0950,mf_amp_cond1,3.0.4,59.98382055749952,
gaultless,,&&&&&&&&&,right,nonword,,,,,,,,,,,,,,,0,34,34,101,,,,,,,,,,,,,LDT,left,0.8838193557457998,,,,,,0,,,,,,,,,,,,,left,0,0.8838193557457998,,,,,,,1005,2019_Mar_06_0950,mf_amp_cond1,3.0.4,59.98382055749952,
synchronazers,,&&&&&&&&&&&&&,right,nonword,,,,,,,,,,,,,,,0,35,35,199,,,,,,,,,,,,,LDT,left,1.2839275685837492,,,,,,0,,,,,,,,,,,,,left,0,1.2839275685837492,,,,,,,1005,2019_Mar_06_0950,mf_amp_cond1,3.0.4,59.98382055749952,
praised,,&&&&&&&,left,loyalty.virtue,,,,,,,,,,,,,,,0,36,36,18,,,,,,,,,,,,,LDT,right,0.717107733944431,,,,,,0,,,,,,,,,,,,,right,0,0.717107733944431,,,,,,,1005,2019_Mar_06_0950,mf_amp_cond1,3.0.4,59.98382055749952,
hefurbished,,&&&&&&&&&&&,right,nonword,,,,,,,,,,,,,,,0,37,37,82,,,,,,,,,,,,,LDT,left,1.9507740555563942,,,,,,0,,,,,,,,,,,,,left,0,1.9507740555563942,,,,,,,1005,2019_Mar_06_0950,mf_amp_cond1,3.0.4,59.98382055749952,
tabin,,&&&&&,right,nonword,,,,,,,,,,,,,,,0,38,38,58,,,,,,,,,,,,,LDT,left,1.7674401822732762,,,,,,0,,,,,,,,,,,,,left,0,1.7674401822732762,,,,,,,1005,2019_Mar_06_0950,mf_amp_cond1,3.0.4,59.98382055749952,
somehow,,&&&&&&&,left,neutral,,,,,,,,,,,,,,,0,39,39,27,,,,,,,,,,,,,LDT,right,0.7504638496320695,,,,,,0,,,,,,,,,,,,,right,0,0.7504638496320695,,,,,,,1005,2019_Mar_06_0950,mf_amp_cond1,3.0.4,59.98382055749952,
trust,,&&&&&,left,authority.virtue,,,,,,,,,,,,,,,0,40,40,13,,,,,,,,,,,,,LDT,right,0.7171141485450789,,,,,,0,,,,,,,,,,,,,right,0,0.7171141485450789,,,,,,,1005,2019_Mar_06_0950,mf_amp_cond1,3.0.4,59.98382055749952,
neutralust,,&&&&&&&&&&,right,nonword,,,,,,,,,,,,,,,0,41,41,67,,,,,,,,,,,,,LDT,left,1.7006827289005741,,,,,,0,,,,,,,,,,,,,left,0,1.7006827289005741,,,,,,,1005,2019_Mar_06_0950,mf_amp_cond1,3.0.4,59.98382055749952,
powerful,,&&&&&&&&,left,authority.virtue,,,,,,,,,,,,,,,0,42,42,185,,,,,,,,,,,,,LDT,right,0.533721903222613,,,,,,0,,,,,,,,,,,,,right,0,0.533721903222613,,,,,,,1005,2019_Mar_06_0950,mf_amp_cond1,3.0.4,59.98382055749952,
touls,,&&&&&,right,nonword,,,,,,,,,,,,,,,0,43,43,87,,,,,,,,,,,,,LDT,left,1.6340032117441297,,,,,,0,,,,,,,,,,,,,left,0,1.6340032117441297,,,,,,,1005,2019_Mar_06_0950,mf_amp_cond1,3.0.4,59.98382055749952,
ebbitter,,&&&&&&&&,right,nonword,,,,,,,,,,,,,,,0,44,44,55,,,,,,,,,,,,,LDT,right,0.633767478284426,,,,,,1,,,,,,,,,,,,,right,1,0.633767478284426,,,,,,,1005,2019_Mar_06_0950,mf_amp_cond1,3.0.4,59.98382055749952,
honored,,&&&&&&&,left,authority.virtue,,,,,,,,,,,,,,,0,45,45,130,,,,,,,,,,,,,LDT,right,0.5170813703443855,,,,,,0,,,,,,,,,,,,,right,0,0.5170813703443855,,,,,,,1005,2019_Mar_06_0950,mf_amp_cond1,3.0.4,59.98382055749952,
pharing,,&&&&&&&,right,nonword,,,,,,,,,,,,,,,0,46,46,102,,,,,,,,,,,,,LDT,right,0.683762202388607,,,,,,1,,,,,,,,,,,,,right,1,0.683762202388607,,,,,,,1005,2019_Mar_06_0950,mf_amp_cond1,3.0.4,59.98382055749952,
Cunday,,&&&&&&,None,nonword,,,,,,,,,,,,,,,0,47,47,60,,,,,,,,,,,,,LDT,left,0.8671682389685884,,,,,,0,,,,,,,,,,,,,left,0,0.8671682389685884,,,,,,,1005,2019_Mar_06_0950,mf_amp_cond1,3.0.4,59.98382055749952,
allears,,&&&&&&&,right,nonword,,,,,,,,,,,,,,,0,48,48,40,,,,,,,,,,,,,LDT,left,0.9005435979925096,,,,,,0,,,,,,,,,,,,,left,0,0.9005435979925096,,,,,,,1005,2019_Mar_06_0950,mf_amp_cond1,3.0.4,59.98382055749952,
hand,,&&&&,left,sanctity.virtue,,,,,,,,,,,,,,,0,49,49,26,,,,,,,,,,,,,LDT,right,0.5337459576549008,,,,,,0,,,,,,,,,,,,,right,0,0.5337459576549008,,,,,,,1005,2019_Mar_06_0950,mf_amp_cond1,3.0.4,59.98382055749952,
ittutable,,&&&&&&&&&,right,nonword,,,,,,,,,,,,,,,0,50,50,100,,,,,,,,,,,,,LDT,left,0.6671354606514797,,,,,,0,,,,,,,,,,,,,left,0,0.6671354606514797,,,,,,,1005,2019_Mar_06_0950,mf_amp_cond1,3.0.4,59.98382055749952,
perfect,,&&&&&&&,left,sanctity.virtue,,,,,,,,,,,,,,,0,51,51,141,,,,,,,,,,,,,LDT,right,0.517044486827217,,,,,,0,,,,,,,,,,,,,right,0,0.517044486827217,,,,,,,1005,2019_Mar_06_0950,mf_amp_cond1,3.0.4,59.98382055749952,
also,,&&&&,left,neutral,,,,,,,,,,,,,,,0,52,52,143,,,,,,,,,,,,,LDT,right,0.683758674422279,,,,,,0,,,,,,,,,,,,,right,0,0.683758674422279,,,,,,,1005,2019_Mar_06_0950,mf_amp_cond1,3.0.4,59.98382055749952,
infet,,&&&&&,right,nonword,,,,,,,,,,,,,,,0,53,53,169,,,,,,,,,,,,,LDT,left,0.9671920047840104,,,,,,0,,,,,,,,,,,,,left,0,0.9671920047840104,,,,,,,1005,2019_Mar_06_0950,mf_amp_cond1,3.0.4,59.98382055749952,
chreams,,&&&&&&&,right,nonword,,,,,,,,,,,,,,,0,54,54,68,,,,,,,,,,,,,LDT,right,1.4172968659549952,,,,,,1,,,,,,,,,,,,,right,1,1.4172968659549952,,,,,,,1005,2019_Mar_06_0950,mf_amp_cond1,3.0.4,59.98382055749952,
photocalkodes,,&&&&&&&&&&&&&,right,nonword,,,,,,,,,,,,,,,0,55,55,15,,,,,,,,,,,,,LDT,left,1.36729540664237,,,,,,0,,,,,,,,,,,,,left,0,1.36729540664237,,,,,,,1005,2019_Mar_06_0950,mf_amp_cond1,3.0.4,59.98382055749952,
eight,,&&&&&,left,neutral,,,,,,,,,,,,,,,0,56,56,42,,,,,,,,,,,,,LDT,right,0.7171061304397881,,,,,,0,,,,,,,,,,,,,right,0,0.7171061304397881,,,,,,,1005,2019_Mar_06_0950,mf_amp_cond1,3.0.4,59.98382055749952,
framatic,,&&&&&&&&,right,nonword,,,,,,,,,,,,,,,0,57,57,70,,,,,,,,,,,,,LDT,right,0.6004174565896392,,,,,,1,,,,,,,,,,,,,right,1,0.6004174565896392,,,,,,,1005,2019_Mar_06_0950,mf_amp_cond1,3.0.4,59.98382055749952,
fangsters,,&&&&&&&&&,right,nonword,,,,,,,,,,,,,,,0,58,58,38,,,,,,,,,,,,,LDT,left,0.9004913197131827,,,,,,0,,,,,,,,,,,,,left,0,0.9004913197131827,,,,,,,1005,2019_Mar_06_0950,mf_amp_cond1,3.0.4,59.98382055749952,
further,,&&&&&&&,left,neutral,,,,,,,,,,,,,,,0,59,59,175,,,,,,,,,,,,,LDT,right,0.633761705365032,,,,,,0,,,,,,,,,,,,,right,0,0.633761705365032,,,,,,,1005,2019_Mar_06_0950,mf_amp_cond1,3.0.4,59.98382055749952,
fornicalion,,&&&&&&&&&&&,right,nonword,,,,,,,,,,,,,,,0,60,60,123,,,,,,,,,,,,,LDT,right,1.050534826121293,,,,,,1,,,,,,,,,,,,,right,1,1.050534826121293,,,,,,,1005,2019_Mar_06_0950,mf_amp_cond1,3.0.4,59.98382055749952,
become,,&&&&&&,left,neutral,,,,,,,,,,,,,,,0,61,61,168,,,,,,,,,,,,,LDT,left,1.067228920175694,,,,,,1,,,,,,,,,,,,,left,1,1.067228920175694,,,,,,,1005,2019_Mar_06_0950,mf_amp_cond1,3.0.4,59.98382055749952,
lempestuous,,&&&&&&&&&&&,right,nonword,,,,,,,,,,,,,,,0,62,62,90,,,,,,,,,,,,,LDT,left,0.6837609194917604,,,,,,0,,,,,,,,,,,,,left,0,0.6837609194917604,,,,,,,1005,2019_Mar_06_0950,mf_amp_cond1,3.0.4,59.98382055749952,
towards,,&&&&&&&,left,neutral,,,,,,,,,,,,,,,0,63,63,112,,,,,,,,,,,,,LDT,right,0.5002811159938574,,,,,,0,,,,,,,,,,,,,right,0,0.5002811159938574,,,,,,,1005,2019_Mar_06_0950,mf_amp_cond1,3.0.4,59.98382055749952,
thru,,&&&&,left,neutral,,,,,,,,,,,,,,,0,64,64,171,,,,,,,,,,,,,LDT,left,0.7336113170022145,,,,,,1,,,,,,,,,,,,,left,1,0.7336113170022145,,,,,,,1005,2019_Mar_06_0950,mf_amp_cond1,3.0.4,59.98382055749952,
suggists,,&&&&&&&&,right,nonword,,,,,,,,,,,,,,,0,65,65,95,,,,,,,,,,,,,LDT,right,0.6837663719197735,,,,,,1,,,,,,,,,,,,,right,1,0.6837663719197735,,,,,,,1005,2019_Mar_06_0950,mf_amp_cond1,3.0.4,59.98382055749952,
erks,,&&&&,right,nonword,,,,,,,,,,,,,,,0,66,66,61,,,,,,,,,,,,,LDT,right,0.8838219215394929,,,,,,1,,,,,,,,,,,,,right,1,0.8838219215394929,,,,,,,1005,2019_Mar_06_0950,mf_amp_cond1,3.0.4,59.98382055749952,
health,,&&&&&&,left,care.virtue,,,,,,,,,,,,,,,0,67,67,53,,,,,,,,,,,,,LDT,right,1.200571597320959,,,,,,0,,,,,,,,,,,,,right,0,1.200571597320959,,,,,,,1005,2019_Mar_06_0950,mf_amp_cond1,3.0.4,59.98382055749952,
uller,,&&&&&,right,nonword,,,,,,,,,,,,,,,0,68,68,126,,,,,,,,,,,,,LDT,left,2.000760440598242,,,,,,0,,,,,,,,,,,,,left,0,2.000760440598242,,,,,,,1005,2019_Mar_06_0950,mf_amp_cond1,3.0.4,59.98382055749952,
hate,,&&&&,left,fairness.vice,,,,,,,,,,,,,,,0,69,69,109,,,,,,,,,,,,,LDT,right,0.7171090169576928,,,,,,0,,,,,,,,,,,,,right,0,0.7171090169576928,,,,,,,1005,2019_Mar_06_0950,mf_amp_cond1,3.0.4,59.98382055749952,
commitment,,&&&&&&&&&&,left,sanctity.virtue,,,,,,,,,,,,,,,0,70,70,138,,,,,,,,,,,,,LDT,right,0.7671088726492599,,,,,,0,,,,,,,,,,,,,right,0,0.7671088726492599,,,,,,,1005,2019_Mar_06_0950,mf_amp_cond1,3.0.4,59.98382055749952,
prosecution,,&&&&&&&&&&&,left,authority.vice,,,,,,,,,,,,,,,0,71,71,128,,,,,,,,,,,,,LDT,left,0.8338066710857674,,,,,,1,,,,,,,,,,,,,left,1,0.8338066710857674,,,,,,,1005,2019_Mar_06_0950,mf_amp_cond1,3.0.4,59.98382055749952,
pistraught,,&&&&&&&&&&,right,nonword,,,,,,,,,,,,,,,0,72,72,120,,,,,,,,,,,,,LDT,right,1.9341059402795509,,,,,,1,,,,,,,,,,,,,right,1,1.9341059402795509,,,,,,,1005,2019_Mar_06_0950,mf_amp_cond1,3.0.4,59.98382055749952,
three,,&&&&&,left,neutral,,,,,,,,,,,,,,,0,73,73,187,,,,,,,,,,,,,LDT,right,0.8338297633454204,,,,,,0,,,,,,,,,,,,,right,0,0.8338297633454204,,,,,,,1005,2019_Mar_06_0950,mf_amp_cond1,3.0.4,59.98382055749952,
Boeinf,,&&&&&&,right,nonword,,,,,,,,,,,,,,,0,74,74,43,,,,,,,,,,,,,LDT,left,0.9338483974570408,,,,,,0,,,,,,,,,,,,,left,0,0.9338483974570408,,,,,,,1005,2019_Mar_06_0950,mf_amp_cond1,3.0.4,59.98382055749952,
were,,&&&&,left,neutral,,,,,,,,,,,,,,,0,75,75,83,,,,,,,,,,,,,LDT,right,0.6670600902289152,,,,,,0,,,,,,,,,,,,,right,0,0.6670600902289152,,,,,,,1005,2019_Mar_06_0950,mf_amp_cond1,3.0.4,59.98382055749952,
ablow,,&&&&&,right,nonword,,,,,,,,,,,,,,,0,76,76,179,,,,,,,,,,,,,LDT,left,1.1338907973840833,,,,,,0,,,,,,,,,,,,,left,0,1.1338907973840833,,,,,,,1005,2019_Mar_06_0950,mf_amp_cond1,3.0.4,59.98382055749952,
killed,,&&&&&&,left,care.vice,,,,,,,,,,,,,,,0,77,77,19,,,,,,,,,,,,,LDT,right,0.6836464203661308,,,,,,0,,,,,,,,,,,,,right,0,0.6836464203661308,,,,,,,1005,2019_Mar_06_0950,mf_amp_cond1,3.0.4,59.98382055749952,
least,,&&&&&,left,neutral,,,,,,,,,,,,,,,0,78,78,153,,,,,,,,,,,,,LDT,right,0.6004424731945619,,,,,,0,,,,,,,,,,,,,right,0,0.6004424731945619,,,,,,,1005,2019_Mar_06_0950,mf_amp_cond1,3.0.4,59.98382055749952,
there,,&&&&&,left,neutral,,,,,,,,,,,,,,,0,79,79,41,,,,,,,,,,,,,LDT,right,1.2505724153015763,,,,,,0,,,,,,,,,,,,,right,0,1.2505724153015763,,,,,,,1005,2019_Mar_06_0950,mf_amp_cond1,3.0.4,59.98382055749952,
both,,&&&&,left,neutral,,,,,,,,,,,,,,,0,80,80,8,,,,,,,,,,,,,LDT,left,5.735122897196561,,,,,,1,,,,,,,,,,,,,left,1,5.735122897196561,,,,,,,1005,2019_Mar_06_0950,mf_amp_cond1,3.0.4,59.98382055749952,
officers,,&&&&&&&&,left,authority.vice,,,,,,,,,,,,,,,0,81,81,122,,,,,,,,,,,,,LDT,right,0.583741323207505,,,,,,0,,,,,,,,,,,,,right,0,0.583741323207505,,,,,,,1005,2019_Mar_06_0950,mf_amp_cond1,3.0.4,59.98382055749952,
iptervention,,&&&&&&&&&&&&,right,nonword,,,,,,,,,,,,,,,0,82,82,85,,,,,,,,,,,,,LDT,left,1.9674533961806446,,,,,,0,,,,,,,,,,,,,left,0,1.9674533961806446,,,,,,,1005,2019_Mar_06_0950,mf_amp_cond1,3.0.4,59.98382055749952,
totalestic,,&&&&&&&&&&,None,nonword,,,,,,,,,,,,,,,0,83,83,65,,,,,,,,,,,,,LDT,right,1.967437039129436,,,,,,0,,,,,,,,,,,,,right,0,1.967437039129436,,,,,,,1005,2019_Mar_06_0950,mf_amp_cond1,3.0.4,59.98382055749952,
whither,,&&&&&&&,left,neutral,,,,,,,,,,,,,,,0,84,84,116,,,,,,,,,,,,,LDT,right,2.8176786579424515,,,,,,0,,,,,,,,,,,,,right,0,2.8176786579424515,,,,,,,1005,2019_Mar_06_0950,mf_amp_cond1,3.0.4,59.98382055749952,
suicide,,&&&&&&&,left,care.vice,,,,,,,,,,,,,,,0,85,85,132,,,,,,,,,,,,,LDT,left,0.9170802157605067,,,,,,1,,,,,,,,,,,,,left,1,0.9170802157605067,,,,,,,1005,2019_Mar_06_0950,mf_amp_cond1,3.0.4,59.98382055749952,
metibolic,,&&&&&&&&&,right,nonword,,,,,,,,,,,,,,,0,86,86,148,,,,,,,,,,,,,LDT,right,1.500659251702018,,,,,,1,,,,,,,,,,,,,right,1,1.500659251702018,,,,,,,1005,2019_Mar_06_0950,mf_amp_cond1,3.0.4,59.98382055749952,
been,,&&&&,left,neutral,,,,,,,,,,,,,,,0,87,87,149,,,,,,,,,,,,,LDT,right,0.7838004009099677,,,,,,0,,,,,,,,,,,,,right,0,0.7838004009099677,,,,,,,1005,2019_Mar_06_0950,mf_amp_cond1,3.0.4,59.98382055749952,
progress,,&&&&&&&&,left,authority.virtue,,,,,,,,,,,,,,,0,88,88,159,,,,,,,,,,,,,LDT,right,1.100551680312492,,,,,,0,,,,,,,,,,,,,right,0,1.100551680312492,,,,,,,1005,2019_Mar_06_0950,mf_amp_cond1,3.0.4,59.98382055749952,
ensure,,&&&&&&,left,fairness.virtue,,,,,,,,,,,,,,,0,89,89,184,,,,,,,,,,,,,LDT,right,2.2508232226828113,,,,,,0,,,,,,,,,,,,,right,0,2.2508232226828113,,,,,,,1005,2019_Mar_06_0950,mf_amp_cond1,3.0.4,59.98382055749952,
brudent,,&&&&&&&,right,nonword,,,,,,,,,,,,,,,0,90,90,157,,,,,,,,,,,,,LDT,left,0.7671156077412888,,,,,,0,,,,,,,,,,,,,left,0,0.7671156077412888,,,,,,,1005,2019_Mar_06_0950,mf_amp_cond1,3.0.4,59.98382055749952,
focomotive,,&&&&&&&&&&,right,nonword,,,,,,,,,,,,,,,0,91,91,115,,,,,,,,,,,,,LDT,right,2.367546534864232,,,,,,1,,,,,,,,,,,,,right,1,2.367546534864232,,,,,,,1005,2019_Mar_06_0950,mf_amp_cond1,3.0.4,59.98382055749952,
cromiscuity,,&&&&&&&&&&&,right,nonword,,,,,,,,,,,,,,,0,92,92,73,,,,,,,,,,,,,LDT,left,1.183934271801263,,,,,,0,,,,,,,,,,,,,left,0,1.183934271801263,,,,,,,1005,2019_Mar_06_0950,mf_amp_cond1,3.0.4,59.98382055749952,
simplustic,,&&&&&&&&&&,right,nonword,,,,,,,,,,,,,,,0,93,93,147,,,,,,,,,,,,,LDT,right,1.5673269019462168,,,,,,1,,,,,,,,,,,,,right,1,1.5673269019462168,,,,,,,1005,2019_Mar_06_0950,mf_amp_cond1,3.0.4,59.98382055749952,
mih,,&&&,right,nonword,,,,,,,,,,,,,,,0,94,94,129,,,,,,,,,,,,,LDT,left,2.1342105609364808,,,,,,0,,,,,,,,,,,,,left,0,2.1342105609364808,,,,,,,1005,2019_Mar_06_0950,mf_amp_cond1,3.0.4,59.98382055749952,
about,,&&&&&,left,neutral,,,,,,,,,,,,,,,0,95,95,91,,,,,,,,,,,,,LDT,left,1.2339168082689866,,,,,,1,,,,,,,,,,,,,left,1,1.2339168082689866,,,,,,,1005,2019_Mar_06_0950,mf_amp_cond1,3.0.4,59.98382055749952,
anyhow,,&&&&&&,left,neutral,,,,,,,,,,,,,,,0,96,96,127,,,,,,,,,,,,,LDT,right,0.6504288584692404,,,,,,0,,,,,,,,,,,,,right,0,0.6504288584692404,,,,,,,1005,2019_Mar_06_0950,mf_amp_cond1,3.0.4,59.98382055749952,
gun,,&&&,left,authority.vice,,,,,,,,,,,,,,,0,97,97,182,,,,,,,,,,,,,LDT,right,0.6504294998012483,,,,,,0,,,,,,,,,,,,,right,0,0.6504294998012483,,,,,,,1005,2019_Mar_06_0950,mf_amp_cond1,3.0.4,59.98382055749952,
therefore,,&&&&&&&&&,left,neutral,,,,,,,,,,,,,,,0,98,98,86,,,,,,,,,,,,,LDT,right,0.6337629882618785,,,,,,0,,,,,,,,,,,,,right,0,0.6337629882618785,,,,,,,1005,2019_Mar_06_0950,mf_amp_cond1,3.0.4,59.98382055749952,
emassion,,&&&&&&&&,right,nonword,,,,,,,,,,,,,,,0,99,99,99,,,,,,,,,,,,,LDT,left,0.9838495359290391,,,,,,0,,,,,,,,,,,,,left,0,0.9838495359290391,,,,,,,1005,2019_Mar_06_0950,mf_amp_cond1,3.0.4,59.98382055749952,
interests,,&&&&&&&&&,left,fairness.virtue,,,,,,,,,,,,,,,0,100,100,5,,,,,,,,,,,,,LDT,right,0.5837451718980446,,,,,,0,,,,,,,,,,,,,right,0,0.5837451718980446,,,,,,,1005,2019_Mar_06_0950,mf_amp_cond1,3.0.4,59.98382055749952,
bluently,,&&&&&&&&,None,nonword,,,,,,,,,,,,,,,0,101,101,189,,,,,,,,,,,,,LDT,left,1.2005744838388637,,,,,,0,,,,,,,,,,,,,left,0,1.2005744838388637,,,,,,,1005,2019_Mar_06_0950,mf_amp_cond1,3.0.4,59.98382055749952,
violence,,&&&&&&&&,left,care.vice,,,,,,,,,,,,,,,0,102,102,79,,,,,,,,,,,,,LDT,right,0.6504185951780528,,,,,,0,,,,,,,,,,,,,right,0,0.6504185951780528,,,,,,,1005,2019_Mar_06_0950,mf_amp_cond1,3.0.4,59.98382055749952,
seachwear,,&&&&&&&&&,right,nonword,,,,,,,,,,,,,,,0,103,103,24,,,,,,,,,,,,,LDT,left,0.8338326497469097,,,,,,0,,,,,,,,,,,,,left,0,0.8338326497469097,,,,,,,1005,2019_Mar_06_0950,mf_amp_cond1,3.0.4,59.98382055749952,
promised,,&&&&&&&&,left,loyalty.virtue,,,,,,,,,,,,,,,0,104,104,170,,,,,,,,,,,,,LDT,right,0.9338512839749455,,,,,,0,,,,,,,,,,,,,right,0,0.9338512839749455,,,,,,,1005,2019_Mar_06_0950,mf_amp_cond1,3.0.4,59.98382055749952,
besides,,&&&&&&&,left,neutral,,,,,,,,,,,,,,,0,105,105,139,,,,,,,,,,,,,LDT,left,1.2004279122920707,,,,,,1,,,,,,,,,,,,,left,1,1.2004279122920707,,,,,,,1005,2019_Mar_06_0950,mf_amp_cond1,3.0.4,59.98382055749952,
threatened,,&&&&&&&&&&,left,fairness.vice,,,,,,,,,,,,,,,0,106,106,7,,,,,,,,,,,,,LDT,right,0.5504012439632788,,,,,,0,,,,,,,,,,,,,right,0,0.5504012439632788,,,,,,,1005,2019_Mar_06_0950,mf_amp_cond1,3.0.4,59.98382055749952,
anything,,&&&&&&&&,left,neutral,,,,,,,,,,,,,,,0,107,107,106,,,,,,,,,,,,,LDT,right,0.8004681954625994,,,,,,0,,,,,,,,,,,,,right,0,0.8004681954625994,,,,,,,1005,2019_Mar_06_0950,mf_amp_cond1,3.0.4,59.98382055749952,
viscs,,&&&&&,None,nonword,,,,,,,,,,,,,,,0,108,108,76,,,,,,,,,,,,,LDT,left,1.1172169090714306,,,,,,0,,,,,,,,,,,,,left,0,1.1172169090714306,,,,,,,1005,2019_Mar_06_0950,mf_amp_cond1,3.0.4,59.98382055749952,
crilfully,,&&&&&&&&&,right,nonword,,,,,,,,,,,,,,,0,109,109,178,,,,,,,,,,,,,LDT,right,0.8504526562755927,,,,,,1,,,,,,,,,,,,,right,1,0.8504526562755927,,,,,,,1005,2019_Mar_06_0950,mf_amp_cond1,3.0.4,59.98382055749952,
