words,mask,corr_ans,category,nonwords,tweets,topic,LDT_prac_loop.thisRepN,LDT_prac_loop.thisTrialN,LDT_prac_loop.thisN,LDT_prac_loop.thisIndex,LDT_loop.thisRepN,LDT_loop.thisTrialN,LDT_loop.thisN,LDT_loop.thisIndex,AMP_pracloop.thisRepN,AMP_pracloop.thisTrialN,AMP_pracloop.thisN,AMP_pracloop.thisIndex,AMP_loop.thisRepN,AMP_loop.thisTrialN,AMP_loop.thisN,AMP_loop.thisIndex,tweet_loop.thisRepN,tweet_loop.thisTrialN,tweet_loop.thisN,tweet_loop.thisIndex,begin_key.keys,begin_key.rt,key_resp_AMP_instr1.keys,key_resp_AMP_instr1.rt,key_resp_LDT_instr.keys,key_resp_LDT_instr.rt,resp_LDT_prac.keys,resp_LDT_prac.rt,task,keypress,RT,corr,resp_LDT_ready.keys,resp_LDT_ready.rt,resp_LDT.keys,resp_LDT.corr,resp_LDT.rt,LDT_rating.response,LDT_rating.rt,resp_AMP_ready1.keys,resp_AMP_ready1.rt,resp_AMP_prac.keys,resp_AMP_prac.rt,resp_AMP_ready.keys,resp_AMP_ready.rt,resp_AMP.keys,resp_AMP.corr,resp_AMP.rt,AMP_nonword_rating.response,AMP_nonword_rating.rt,AMP_word_rating.response,AMP_word_rating.rt,AMP_random_rating.response,AMP_random_rating.rt,key_resp_LDT_instr_2.keys,key_resp_LDT_instr_2.rt,resp_tweets.keys,resp_tweets.rt,participant,date,expName,psychopyVersion,frameRate,
,,,,,,,,,,,,,,,,,,,,,,,,,,,right,952.5707086451584,,,,,,,,,,,,,,,,,,,,,,,,,,,,,,,,,,,,,1006,2019_Mar_06_0951,mf_amp_cond2,3.0.4,60.01397384670593,
,,,,,,,,,,,,,,,,,,,,,,,,,,,,,right,4.601471851347014,,,,,,,,,,,,,,,,,,,,,,,,,,,,,,,,,,,1006,2019_Mar_06_0951,mf_amp_cond2,3.0.4,60.01397384670593,
,,,,,,,,,,,,,,,,,,,,,,,,,,,,,,,right,1.7673780892509967,,,,,,,,,,,,,,,,,,,,,,,,,,,,,,,,,1006,2019_Mar_06_0951,mf_amp_cond2,3.0.4,60.01397384670593,
bisebell,&&&&&&&,,,,,,0,0,0,1,,,,,,,,,,,,,,,,,,,,,,,right,3.200997890206054,LDT_prac,right,3.200997890206054,0,,,,,,,,,,,,,,,,,,,,,,,,,,,1006,2019_Mar_06_0951,mf_amp_cond2,3.0.4,60.01397384670593,
keyboard,&&&&&&&,,,,,,0,1,1,0,,,,,,,,,,,,,,,,,,,,,,,right,3.951236987602897,LDT_prac,right,3.951236987602897,0,,,,,,,,,,,,,,,,,,,,,,,,,,,1006,2019_Mar_06_0951,mf_amp_cond2,3.0.4,60.01397384670593,
,,,,,,,,,,,,,,,,,,,,,,,,,,,,,,,,,,,,,,,right,1.5839810287579894,,,,,,,,,,,,,,,,,,,,,,,,,1006,2019_Mar_06_0951,mf_amp_cond2,3.0.4,60.01397384670593,
thadowed,&&&&&&&&,right,nonword,,,,,,,,0,0,0,102,,,,,,,,,,,,,,,,,,,,,LDT,right,2.2007753101643175,1,,,right,1,2.2007753101643175,,,,,,,,,,,,,,,,,,,,,,1006,2019_Mar_06_0951,mf_amp_cond2,3.0.4,60.01397384670593,
perified,&&&&&&&&,right,nonword,,,,,,,,0,1,1,13,,,,,,,,,,,,,,,,,,,,,LDT,left,1.1671929693548009,0,,,left,0,1.1671929693548009,,,,,,,,,,,,,,,,,,,,,,1006,2019_Mar_06_0951,mf_amp_cond2,3.0.4,60.01397384670593,
celebrated,&&&&&&&&&&,left,authority.virtue,,,,,,,,0,2,2,27,,,,,,,,,,,,,,,,,,,,,LDT,right,1.9340563018340617,0,,,right,0,1.9340563018340617,,,,,,,,,,,,,,,,,,,,,,1006,2019_Mar_06_0951,mf_amp_cond2,3.0.4,60.01397384670593,
black,&&&&&,left,loyalty.vice,,,,,,,,0,3,3,90,,,,,,,,,,,,,,,,,,,,,LDT,right,1.7173289868514985,0,,,right,0,1.7173289868514985,,,,,,,,,,,,,,,,,,,,,,1006,2019_Mar_06_0951,mf_amp_cond2,3.0.4,60.01397384670593,
pharing,&&&&&&&,right,nonword,,,,,,,,0,4,4,64,,,,,,,,,,,,,,,,,,,,,LDT,left,1.1505533393938094,0,,,left,0,1.1505533393938094,,,,,,,,,,,,,,,,,,,,,,1006,2019_Mar_06_0951,mf_amp_cond2,3.0.4,60.01397384670593,
police,&&&&&&,left,authority.vice,,,,,,,,0,5,5,47,,,,,,,,,,,,,,,,,,,,,LDT,right,0.767084950581193,0,,,right,0,0.767084950581193,,,,,,,,,,,,,,,,,,,,,,1006,2019_Mar_06_0951,mf_amp_cond2,3.0.4,60.01397384670593,
help,&&&&,left,care.virtue,,,,,,,,0,6,6,156,,,,,,,,,,,,,,,,,,,,,LDT,right,0.8504521198337898,0,,,right,0,0.8504521198337898,,,,,,,,,,,,,,,,,,,,,,1006,2019_Mar_06_0951,mf_amp_cond2,3.0.4,60.01397384670593,
gedious,&&&&&&&,right,nonword,,,,,,,,0,7,7,75,,,,,,,,,,,,,,,,,,,,,LDT,left,3.9512177442666143,0,,,left,0,3.9512177442666143,,,,,,,,,,,,,,,,,,,,,,1006,2019_Mar_06_0951,mf_amp_cond2,3.0.4,60.01397384670593,
about,&&&&&,left,neutral,,,,,,,,0,8,8,144,,,,,,,,,,,,,,,,,,,,,LDT,right,0.6837498532840982,0,,,right,0,0.6837498532840982,,,,,,,,,,,,,,,,,,,,,,1006,2019_Mar_06_0951,mf_amp_cond2,3.0.4,60.01397384670593,
ilportation,&&&&&&&&&&&,right,nonword,,,,,,,,0,9,9,19,,,,,,,,,,,,,,,,,,,,,LDT,right,2.5342196128331125,1,,,right,1,2.5342196128331125,,,,,,,,,,,,,,,,,,,,,,1006,2019_Mar_06_0951,mf_amp_cond2,3.0.4,60.01397384670593,
promote,&&&&&&&,left,sanctity.virtue,,,,,,,,0,10,10,86,,,,,,,,,,,,,,,,,,,,,LDT,right,0.7169470085063949,0,,,right,0,0.7169470085063949,,,,,,,,,,,,,,,,,,,,,,1006,2019_Mar_06_0951,mf_amp_cond2,3.0.4,60.01397384670593,
killed,&&&&&&,left,care.vice,,,,,,,,0,11,11,44,,,,,,,,,,,,,,,,,,,,,LDT,right,0.6837379866046831,0,,,right,0,0.6837379866046831,,,,,,,,,,,,,,,,,,,,,,1006,2019_Mar_06_0951,mf_amp_cond2,3.0.4,60.01397384670593,
sowntrodden,&&&&&&&&&&&,right,nonword,,,,,,,,0,12,12,116,,,,,,,,,,,,,,,,,,,,,LDT,left,0.8171186583349481,0,,,left,0,0.8171186583349481,,,,,,,,,,,,,,,,,,,,,,1006,2019_Mar_06_0951,mf_amp_cond2,3.0.4,60.01397384670593,
fraud,&&&&&,left,fairness.vice,,,,,,,,0,13,13,96,,,,,,,,,,,,,,,,,,,,,LDT,right,0.717091333004646,0,,,right,0,0.717091333004646,,,,,,,,,,,,,,,,,,,,,,1006,2019_Mar_06_0951,mf_amp_cond2,3.0.4,60.01397384670593,
leact,&&&&&,right,nonword,,,,,,,,0,14,14,157,,,,,,,,,,,,,,,,,,,,,LDT,left,3.401102573494427,0,,,left,0,3.401102573494427,,,,,,,,,,,,,,,,,,,,,,1006,2019_Mar_06_0951,mf_amp_cond2,3.0.4,60.01397384670593,
officers,&&&&&&&&,left,authority.vice,,,,,,,,0,15,15,199,,,,,,,,,,,,,,,,,,,,,LDT,right,0.5337077426956967,0,,,right,0,0.5337077426956967,,,,,,,,,,,,,,,,,,,,,,1006,2019_Mar_06_0951,mf_amp_cond2,3.0.4,60.01397384670593,
although,&&&&&&&&,left,neutral,,,,,,,,0,16,16,36,,,,,,,,,,,,,,,,,,,,,LDT,right,1.2838826958322898,0,,,right,0,1.2838826958322898,,,,,,,,,,,,,,,,,,,,,,1006,2019_Mar_06_0951,mf_amp_cond2,3.0.4,60.01397384670593,
besides,&&&&&&&,left,neutral,,,,,,,,0,17,17,184,,,,,,,,,,,,,,,,,,,,,LDT,right,1.1505296060349792,0,,,right,0,1.1505296060349792,,,,,,,,,,,,,,,,,,,,,,1006,2019_Mar_06_0951,mf_amp_cond2,3.0.4,60.01397384670593,
wherever,&&&&&&&&,left,neutral,,,,,,,,0,18,18,128,,,,,,,,,,,,,,,,,,,,,LDT,right,0.7670948929153383,0,,,right,0,0.7670948929153383,,,,,,,,,,,,,,,,,,,,,,1006,2019_Mar_06_0951,mf_amp_cond2,3.0.4,60.01397384670593,
fair,&&&&,left,fairness.virtue,,,,,,,,0,19,19,172,,,,,,,,,,,,,,,,,,,,,LDT,right,0.6003743450855836,0,,,right,0,0.6003743450855836,,,,,,,,,,,,,,,,,,,,,,1006,2019_Mar_06_0951,mf_amp_cond2,3.0.4,60.01397384670593,
whereafter,&&&&&&&&&&,left,neutral,,,,,,,,0,20,20,35,,,,,,,,,,,,,,,,,,,,,LDT,right,1.1338749022688717,0,,,right,0,1.1338749022688717,,,,,,,,,,,,,,,,,,,,,,1006,2019_Mar_06_0951,mf_amp_cond2,3.0.4,60.01397384670593,
letish,&&&&&&,right,nonword,,,,,,,,0,21,21,40,,,,,,,,,,,,,,,,,,,,,LDT,left,0.8504720046184957,0,,,left,0,0.8504720046184957,,,,,,,,,,,,,,,,,,,,,,1006,2019_Mar_06_0951,mf_amp_cond2,3.0.4,60.01397384670593,
praised,&&&&&&&,left,loyalty.virtue,,,,,,,,0,22,22,4,,,,,,,,,,,,,,,,,,,,,LDT,right,0.6670797548722476,0,,,right,0,0.6670797548722476,,,,,,,,,,,,,,,,,,,,,,1006,2019_Mar_06_0951,mf_amp_cond2,3.0.4,60.01397384670593,
dumid,&&&&&,right,nonword,,,,,,,,0,23,23,43,,,,,,,,,,,,,,,,,,,,,LDT,left,3.1343271184014156,0,,,left,0,3.1343271184014156,,,,,,,,,,,,,,,,,,,,,,1006,2019_Mar_06_0951,mf_amp_cond2,3.0.4,60.01397384670593,
erks,&&&&,right,nonword,,,,,,,,0,24,24,62,,,,,,,,,,,,,,,,,,,,,LDT,right,0.7170797869330272,1,,,right,1,0.7170797869330272,,,,,,,,,,,,,,,,,,,,,,1006,2019_Mar_06_0951,mf_amp_cond2,3.0.4,60.01397384670593,
ban,&&&,left,loyalty.vice,,,,,,,,0,25,25,9,,,,,,,,,,,,,,,,,,,,,LDT,right,0.5337218543281779,0,,,right,0,0.5337218543281779,,,,,,,,,,,,,,,,,,,,,,1006,2019_Mar_06_0951,mf_amp_cond2,3.0.4,60.01397384670593,
Boeinf,&&&&&&,right,nonword,,,,,,,,0,26,26,149,,,,,,,,,,,,,,,,,,,,,LDT,left,1.0338440489722416,0,,,left,0,1.0338440489722416,,,,,,,,,,,,,,,,,,,,,,1006,2019_Mar_06_0951,mf_amp_cond2,3.0.4,60.01397384670593,
with,&&&&,left,neutral,,,,,,,,0,27,27,72,,,,,,,,,,,,,,,,,,,,,LDT,right,0.783760822028853,0,,,right,0,0.783760822028853,,,,,,,,,,,,,,,,,,,,,,1006,2019_Mar_06_0951,mf_amp_cond2,3.0.4,60.01397384670593,
hence,&&&&&,left,neutral,,,,,,,,0,28,28,142,,,,,,,,,,,,,,,,,,,,,LDT,right,0.8671215769136325,0,,,right,0,0.8671215769136325,,,,,,,,,,,,,,,,,,,,,,1006,2019_Mar_06_0951,mf_amp_cond2,3.0.4,60.01397384670593,
sonvoy,&&&&&&,None,nonword,,,,,,,,0,29,29,178,,,,,,,,,,,,,,,,,,,,,LDT,left,0.9004515105625615,0,,,left,0,0.9004515105625615,,,,,,,,,,,,,,,,,,,,,,1006,2019_Mar_06_0951,mf_amp_cond2,3.0.4,60.01397384670593,
attacks,&&&&&&&,left,care.vice,,,,,,,,0,30,30,139,,,,,,,,,,,,,,,,,,,,,LDT,right,0.43369068030733615,0,,,right,0,0.43369068030733615,,,,,,,,,,,,,,,,,,,,,,1006,2019_Mar_06_0951,mf_amp_cond2,3.0.4,60.01397384670593,
elduringly,&&&&&&&&&&,right,nonword,,,,,,,,0,31,31,73,,,,,,,,,,,,,,,,,,,,,LDT,right,0.9004502276657149,1,,,right,1,0.9004502276657149,,,,,,,,,,,,,,,,,,,,,,1006,2019_Mar_06_0951,mf_amp_cond2,3.0.4,60.01397384670593,
dormandi,&&&&&&&&,None,nonword,,,,,,,,0,32,32,23,,,,,,,,,,,,,,,,,,,,,LDT,left,2.000734771019779,0,,,left,0,2.000734771019779,,,,,,,,,,,,,,,,,,,,,,1006,2019_Mar_06_0951,mf_amp_cond2,3.0.4,60.01397384670593,
openet,&&&&&&,None,nonword,,,,,,,,0,33,33,158,,,,,,,,,,,,,,,,,,,,,LDT,left,2.600900647812523,0,,,left,0,2.600900647812523,,,,,,,,,,,,,,,,,,,,,,1006,2019_Mar_06_0951,mf_amp_cond2,3.0.4,60.01397384670593,
respect,&&&&&&&,left,sanctity.virtue,,,,,,,,0,34,34,122,,,,,,,,,,,,,,,,,,,,,LDT,right,0.467025104095228,0,,,right,0,0.467025104095228,,,,,,,,,,,,,,,,,,,,,,1006,2019_Mar_06_0951,mf_amp_cond2,3.0.4,60.01397384670593,
fostet,&&&&&&,right,nonword,,,,,,,,0,35,35,109,,,,,,,,,,,,,,,,,,,,,LDT,right,1.3005813382333145,1,,,right,1,1.3005813382333145,,,,,,,,,,,,,,,,,,,,,,1006,2019_Mar_06_0951,mf_amp_cond2,3.0.4,60.01397384670593,
shoirmaster,&&&&&&&&&&&,None,nonword,,,,,,,,0,36,36,165,,,,,,,,,,,,,,,,,,,,,LDT,left,1.5506244752323255,0,,,left,0,1.5506244752323255,,,,,,,,,,,,,,,,,,,,,,1006,2019_Mar_06_0951,mf_amp_cond2,3.0.4,60.01397384670593,
Oregoniuns,&&&&&&&&&&,right,nonword,,,,,,,,0,37,37,82,,,,,,,,,,,,,,,,,,,,,LDT,left,1.3839084175415337,0,,,left,0,1.3839084175415337,,,,,,,,,,,,,,,,,,,,,,1006,2019_Mar_06_0951,mf_amp_cond2,3.0.4,60.01397384670593,
reprisols,&&&&&&&&&,right,nonword,,,,,,,,0,38,38,10,,,,,,,,,,,,,,,,,,,,,LDT,left,1.583974614390172,0,,,left,0,1.583974614390172,,,,,,,,,,,,,,,,,,,,,,1006,2019_Mar_06_0951,mf_amp_cond2,3.0.4,60.01397384670593,
sgrawl,&&&&&&,right,nonword,,,,,,,,0,39,39,151,,,,,,,,,,,,,,,,,,,,,LDT,right,2.13411159417592,1,,,right,1,2.13411159417592,,,,,,,,,,,,,,,,,,,,,,1006,2019_Mar_06_0951,mf_amp_cond2,3.0.4,60.01397384670593,
whither,&&&&&&&,left,neutral,,,,,,,,0,40,40,66,,,,,,,,,,,,,,,,,,,,,LDT,right,1.5006311783799902,0,,,right,0,1.5006311783799902,,,,,,,,,,,,,,,,,,,,,,1006,2019_Mar_06_0951,mf_amp_cond2,3.0.4,60.01397384670593,
less,&&&&,left,neutral,,,,,,,,0,41,41,113,,,,,,,,,,,,,,,,,,,,,LDT,right,0.5003691494930536,0,,,right,0,0.5003691494930536,,,,,,,,,,,,,,,,,,,,,,1006,2019_Mar_06_0951,mf_amp_cond2,3.0.4,60.01397384670593,
proached,&&&&&&&&,right,nonword,,,,,,,,0,42,42,148,,,,,,,,,,,,,,,,,,,,,LDT,left,1.3839257365325466,0,,,left,0,1.3839257365325466,,,,,,,,,,,,,,,,,,,,,,1006,2019_Mar_06_0951,mf_amp_cond2,3.0.4,60.01397384670593,
fonderland,&&&&&&&&&&,right,nonword,,,,,,,,0,43,43,115,,,,,,,,,,,,,,,,,,,,,LDT,left,1.5339643192710355,0,,,left,0,1.5339643192710355,,,,,,,,,,,,,,,,,,,,,,1006,2019_Mar_06_0951,mf_amp_cond2,3.0.4,60.01397384670593,
party,&&&&&,left,loyalty.virtue,,,,,,,,0,44,44,83,,,,,,,,,,,,,,,,,,,,,LDT,right,0.8337958125630394,0,,,right,0,0.8337958125630394,,,,,,,,,,,,,,,,,,,,,,1006,2019_Mar_06_0951,mf_amp_cond2,3.0.4,60.01397384670593,
latter,&&&&&&,left,neutral,,,,,,,,0,45,45,169,,,,,,,,,,,,,,,,,,,,,LDT,right,0.7837900074664503,0,,,right,0,0.7837900074664503,,,,,,,,,,,,,,,,,,,,,,1006,2019_Mar_06_0951,mf_amp_cond2,3.0.4,60.01397384670593,
fifty,&&&&&,left,neutral,,,,,,,,0,46,46,37,,,,,,,,,,,,,,,,,,,,,LDT,right,0.8502644983818755,0,,,right,0,0.8502644983818755,,,,,,,,,,,,,,,,,,,,,,1006,2019_Mar_06_0951,mf_amp_cond2,3.0.4,60.01397384670593,
feleological,&&&&&&&&&&&&,right,nonword,,,,,,,,0,47,47,126,,,,,,,,,,,,,,,,,,,,,LDT,left,3.717845667852089,0,,,left,0,3.717845667852089,,,,,,,,,,,,,,,,,,,,,,1006,2019_Mar_06_0951,mf_amp_cond2,3.0.4,60.01397384670593,
myself,&&&&&&,left,neutral,,,,,,,,0,48,48,140,,,,,,,,,,,,,,,,,,,,,LDT,right,0.6670733405044302,0,,,right,0,0.6670733405044302,,,,,,,,,,,,,,,,,,,,,,1006,2019_Mar_06_0951,mf_amp_cond2,3.0.4,60.01397384670593,
smapper,&&&&&&&,right,nonword,,,,,,,,0,49,49,70,,,,,,,,,,,,,,,,,,,,,LDT,left,1.6839852622943,0,,,left,0,1.6839852622943,,,,,,,,,,,,,,,,,,,,,,1006,2019_Mar_06_0951,mf_amp_cond2,3.0.4,60.01397384670593,
embrace,&&&&&&&,left,authority.virtue,,,,,,,,0,50,50,31,,,,,,,,,,,,,,,,,,,,,LDT,right,0.6504109393572435,0,,,right,0,0.6504109393572435,,,,,,,,,,,,,,,,,,,,,,1006,2019_Mar_06_0951,mf_amp_cond2,3.0.4,60.01397384670593,
faspberry,&&&&&&&&&,None,nonword,,,,,,,,0,51,51,179,,,,,,,,,,,,,,,,,,,,,LDT,right,1.1005594009766355,0,,,right,0,1.1005594009766355,,,,,,,,,,,,,,,,,,,,,,1006,2019_Mar_06_0951,mf_amp_cond2,3.0.4,60.01397384670593,
hereby,&&&&&&,left,neutral,,,,,,,,0,52,52,194,,,,,,,,,,,,,,,,,,,,,LDT,right,0.8171132060233504,0,,,right,0,0.8171132060233504,,,,,,,,,,,,,,,,,,,,,,1006,2019_Mar_06_0951,mf_amp_cond2,3.0.4,60.01397384670593,
scalbel,&&&&&&&,right,nonword,,,,,,,,0,53,53,63,,,,,,,,,,,,,,,,,,,,,LDT,left,1.0171563108451664,0,,,left,0,1.0171563108451664,,,,,,,,,,,,,,,,,,,,,,1006,2019_Mar_06_0951,mf_amp_cond2,3.0.4,60.01397384670593,
praise,&&&&&&,left,authority.virtue,,,,,,,,0,54,54,138,,,,,,,,,,,,,,,,,,,,,LDT,right,0.8504537235712633,0,,,right,0,0.8504537235712633,,,,,,,,,,,,,,,,,,,,,,1006,2019_Mar_06_0951,mf_amp_cond2,3.0.4,60.01397384670593,
refuejing,&&&&&&&&&,right,nonword,,,,,,,,0,55,55,192,,,,,,,,,,,,,,,,,,,,,LDT,right,1.1671968179289252,1,,,right,1,1.1671968179289252,,,,,,,,,,,,,,,,,,,,,,1006,2019_Mar_06_0951,mf_amp_cond2,3.0.4,60.01397384670593,
pumber,&&&&&&,None,nonword,,,,,,,,0,56,56,59,,,,,,,,,,,,,,,,,,,,,LDT,left,0.9338064604671672,0,,,left,0,0.9338064604671672,,,,,,,,,,,,,,,,,,,,,,1006,2019_Mar_06_0951,mf_amp_cond2,3.0.4,60.01397384670593,
mecan,&&&&&,right,nonword,,,,,,,,0,57,57,71,,,,,,,,,,,,,,,,,,,,,LDT,right,0.7837714056950063,1,,,right,1,0.7837714056950063,,,,,,,,,,,,,,,,,,,,,,1006,2019_Mar_06_0951,mf_amp_cond2,3.0.4,60.01397384670593,
chreams,&&&&&&&,right,nonword,,,,,,,,0,58,58,150,,,,,,,,,,,,,,,,,,,,,LDT,left,1.8507070927880704,0,,,left,0,1.8507070927880704,,,,,,,,,,,,,,,,,,,,,,1006,2019_Mar_06_0951,mf_amp_cond2,3.0.4,60.01397384670593,
drug,&&&&,left,sanctity.vice,,,,,,,,0,59,59,175,,,,,,,,,,,,,,,,,,,,,LDT,right,1.2838923174422234,0,,,right,0,1.2838923174422234,,,,,,,,,,,,,,,,,,,,,,1006,2019_Mar_06_0951,mf_amp_cond2,3.0.4,60.01397384670593,
shot,&&&&,left,care.vice,,,,,,,,0,60,60,141,,,,,,,,,,,,,,,,,,,,,LDT,right,1.6506428204011172,0,,,right,0,1.6506428204011172,,,,,,,,,,,,,,,,,,,,,,1006,2019_Mar_06_0951,mf_amp_cond2,3.0.4,60.01397384670593,
abointment,&&&&&&&&&&,right,nonword,,,,,,,,0,61,61,41,,,,,,,,,,,,,,,,,,,,,LDT,right,1.0505289004649967,1,,,right,1,1.0505289004649967,,,,,,,,,,,,,,,,,,,,,,1006,2019_Mar_06_0951,mf_amp_cond2,3.0.4,60.01397384670593,
friends,&&&&&&&,left,loyalty.virtue,,,,,,,,0,62,62,76,,,,,,,,,,,,,,,,,,,,,LDT,right,0.9171892810845748,0,,,right,0,0.9171892810845748,,,,,,,,,,,,,,,,,,,,,,1006,2019_Mar_06_0951,mf_amp_cond2,3.0.4,60.01397384670593,
failure,&&&&&&&,left,loyalty.vice,,,,,,,,0,63,63,197,,,,,,,,,,,,,,,,,,,,,LDT,right,0.8171189790591598,0,,,right,0,0.8171189790591598,,,,,,,,,,,,,,,,,,,,,,1006,2019_Mar_06_0951,mf_amp_cond2,3.0.4,60.01397384670593,
godlaness,&&&&&&&&&,right,nonword,,,,,,,,0,64,64,61,,,,,,,,,,,,,,,,,,,,,LDT,right,1.7506807296304032,1,,,right,1,1.7506807296304032,,,,,,,,,,,,,,,,,,,,,,1006,2019_Mar_06_0951,mf_amp_cond2,3.0.4,60.01397384670593,
everything,&&&&&&&&&&,left,neutral,,,,,,,,0,65,65,166,,,,,,,,,,,,,,,,,,,,,LDT,right,0.6669354306068271,0,,,right,0,0.6669354306068271,,,,,,,,,,,,,,,,,,,,,,1006,2019_Mar_06_0951,mf_amp_cond2,3.0.4,60.01397384670593,
juck,&&&&,right,nonword,,,,,,,,0,66,66,103,,,,,,,,,,,,,,,,,,,,,LDT,left,0.9004717159550637,0,,,left,0,0.9004717159550637,,,,,,,,,,,,,,,,,,,,,,1006,2019_Mar_06_0951,mf_amp_cond2,3.0.4,60.01397384670593,
least,&&&&&,left,neutral,,,,,,,,0,67,67,52,,,,,,,,,,,,,,,,,,,,,LDT,right,1.000484608928673,0,,,right,0,1.000484608928673,,,,,,,,,,,,,,,,,,,,,,1006,2019_Mar_06_0951,mf_amp_cond2,3.0.4,60.01397384670593,
atson,&&&&&,right,nonword,,,,,,,,0,68,68,51,,,,,,,,,,,,,,,,,,,,,LDT,left,3.4177547114668414,0,,,left,0,3.4177547114668414,,,,,,,,,,,,,,,,,,,,,,1006,2019_Mar_06_0951,mf_amp_cond2,3.0.4,60.01397384670593,
anyhow,&&&&&&,left,neutral,,,,,,,,0,69,69,133,,,,,,,,,,,,,,,,,,,,,LDT,right,1.167201949399896,0,,,right,0,1.167201949399896,,,,,,,,,,,,,,,,,,,,,,1006,2019_Mar_06_0951,mf_amp_cond2,3.0.4,60.01397384670593,
protesters,&&&&&&&&&&,left,authority.vice,,,,,,,,0,70,70,3,,,,,,,,,,,,,,,,,,,,,LDT,right,1.1671942522516474,0,,,right,0,1.1671942522516474,,,,,,,,,,,,,,,,,,,,,,1006,2019_Mar_06_0951,mf_amp_cond2,3.0.4,60.01397384670593,
pulge,&&&&&,right,nonword,,,,,,,,0,71,71,58,,,,,,,,,,,,,,,,,,,,,LDT,right,1.1838813486974686,1,,,right,1,1.1838813486974686,,,,,,,,,,,,,,,,,,,,,,1006,2019_Mar_06_0951,mf_amp_cond2,3.0.4,60.01397384670593,
gillipede,&&&&&&&&&,None,nonword,,,,,,,,0,72,72,78,,,,,,,,,,,,,,,,,,,,,LDT,left,0.7004318182589486,0,,,left,0,0.7004318182589486,,,,,,,,,,,,,,,,,,,,,,1006,2019_Mar_06_0951,mf_amp_cond2,3.0.4,60.01397384670593,
synchronazers,&&&&&&&&&&&&&,right,nonword,,,,,,,,0,73,73,124,,,,,,,,,,,,,,,,,,,,,LDT,left,0.783787121064961,0,,,left,0,0.783787121064961,,,,,,,,,,,,,,,,,,,,,,1006,2019_Mar_06_0951,mf_amp_cond2,3.0.4,60.01397384670593,
vurtain,&&&&&&&,right,nonword,,,,,,,,0,74,74,74,,,,,,,,,,,,,,,,,,,,,LDT,right,0.8671340850414708,1,,,right,1,0.8671340850414708,,,,,,,,,,,,,,,,,,,,,,1006,2019_Mar_06_0951,mf_amp_cond2,3.0.4,60.01397384670593,
ammessment,&&&&&&&&&&,right,nonword,,,,,,,,0,75,75,6,,,,,,,,,,,,,,,,,,,,,LDT,right,0.7336379537591711,1,,,right,1,0.7336379537591711,,,,,,,,,,,,,,,,,,,,,,1006,2019_Mar_06_0951,mf_amp_cond2,3.0.4,60.01397384670593,
cromiscuity,&&&&&&&&&&&,right,nonword,,,,,,,,0,76,76,67,,,,,,,,,,,,,,,,,,,,,LDT,right,0.7170897292671725,1,,,right,1,0.7170897292671725,,,,,,,,,,,,,,,,,,,,,,1006,2019_Mar_06_0951,mf_amp_cond2,3.0.4,60.01397384670593,
perfect,&&&&&&&,left,sanctity.virtue,,,,,,,,0,77,77,193,,,,,,,,,,,,,,,,,,,,,LDT,right,0.5503717473475263,0,,,right,0,0.5503717473475263,,,,,,,,,,,,,,,,,,,,,,1006,2019_Mar_06_0951,mf_amp_cond2,3.0.4,60.01397384670593,
nomaric,&&&&&&&,None,nonword,,,,,,,,0,78,78,53,,,,,,,,,,,,,,,,,,,,,LDT,left,2.1841404910665005,0,,,left,0,2.1841404910665005,,,,,,,,,,,,,,,,,,,,,,1006,2019_Mar_06_0951,mf_amp_cond2,3.0.4,60.01397384670593,
uller,&&&&&,right,nonword,,,,,,,,0,79,79,16,,,,,,,,,,,,,,,,,,,,,LDT,left,1.117189409211278,0,,,left,0,1.117189409211278,,,,,,,,,,,,,,,,,,,,,,1006,2019_Mar_06_0951,mf_amp_cond2,3.0.4,60.01397384670593,
pafer,&&&&&,right,nonword,,,,,,,,0,80,80,154,,,,,,,,,,,,,,,,,,,,,LDT,right,0.433685869560577,1,,,right,1,0.433685869560577,,,,,,,,,,,,,,,,,,,,,,1006,2019_Mar_06_0951,mf_amp_cond2,3.0.4,60.01397384670593,
reviked,&&&&&&&,right,nonword,,,,,,,,0,81,81,114,,,,,,,,,,,,,,,,,,,,,LDT,right,0.5837372810347006,1,,,right,1,0.5837372810347006,,,,,,,,,,,,,,,,,,,,,,1006,2019_Mar_06_0951,mf_amp_cond2,3.0.4,60.01397384670593,
yane,&&&&,right,nonword,,,,,,,,0,82,82,39,,,,,,,,,,,,,,,,,,,,,LDT,left,0.9671630139928311,0,,,left,0,0.9671630139928311,,,,,,,,,,,,,,,,,,,,,,1006,2019_Mar_06_0951,mf_amp_cond2,3.0.4,60.01397384670593,
grovelire,&&&&&&&&&,right,nonword,,,,,,,,0,83,83,117,,,,,,,,,,,,,,,,,,,,,LDT,left,0.7671000245027244,0,,,left,0,0.7671000245027244,,,,,,,,,,,,,,,,,,,,,,1006,2019_Mar_06_0951,mf_amp_cond2,3.0.4,60.01397384670593,
thru,&&&&,left,neutral,,,,,,,,0,84,84,180,,,,,,,,,,,,,,,,,,,,,LDT,right,0.7837643497623503,0,,,right,0,0.7837643497623503,,,,,,,,,,,,,,,,,,,,,,1006,2019_Mar_06_0951,mf_amp_cond2,3.0.4,60.01397384670593,
pistraught,&&&&&&&&&&,right,nonword,,,,,,,,0,85,85,46,,,,,,,,,,,,,,,,,,,,,LDT,left,0.7504302468150854,0,,,left,0,0.7504302468150854,,,,,,,,,,,,,,,,,,,,,,1006,2019_Mar_06_0951,mf_amp_cond2,3.0.4,60.01397384670593,
opportunity,&&&&&&&&&&&,left,fairness.virtue,,,,,,,,0,86,86,20,,,,,,,,,,,,,,,,,,,,,LDT,right,0.8837932788301259,0,,,right,0,0.8837932788301259,,,,,,,,,,,,,,,,,,,,,,1006,2019_Mar_06_0951,mf_amp_cond2,3.0.4,60.01397384670593,
three,&&&&&,left,neutral,,,,,,,,0,87,87,55,,,,,,,,,,,,,,,,,,,,,LDT,right,0.8171138474717736,0,,,right,0,0.8171138474717736,,,,,,,,,,,,,,,,,,,,,,1006,2019_Mar_06_0951,mf_amp_cond2,3.0.4,60.01397384670593,
arrests,&&&&&&&,left,authority.vice,,,,,,,,0,88,88,49,,,,,,,,,,,,,,,,,,,,,LDT,right,0.6337469347054139,0,,,right,0,0.6337469347054139,,,,,,,,,,,,,,,,,,,,,,1006,2019_Mar_06_0951,mf_amp_cond2,3.0.4,60.01397384670593,
discovars,&&&&&&&&&,right,nonword,,,,,,,,0,89,89,111,,,,,,,,,,,,,,,,,,,,,LDT,right,1.0171723469393328,1,,,right,1,1.0171723469393328,,,,,,,,,,,,,,,,,,,,,,1006,2019_Mar_06_0951,mf_amp_cond2,3.0.4,60.01397384670593,
chonograph,&&&&&&&&&&,right,nonword,,,,,,,,0,90,90,106,,,,,,,,,,,,,,,,,,,,,LDT,left,1.2338826636550948,0,,,left,0,1.2338826636550948,,,,,,,,,,,,,,,,,,,,,,1006,2019_Mar_06_0951,mf_amp_cond2,3.0.4,60.01397384670593,
give,&&&&,left,neutral,,,,,,,,0,91,91,171,,,,,,,,,,,,,,,,,,,,,LDT,right,0.5503784824395552,0,,,right,0,0.5503784824395552,,,,,,,,,,,,,,,,,,,,,,1006,2019_Mar_06_0951,mf_amp_cond2,3.0.4,60.01397384670593,
gowlands,&&&&&&&&,right,nonword,,,,,,,,0,92,92,181,,,,,,,,,,,,,,,,,,,,,LDT,left,1.5506161365192384,0,,,left,0,1.5506161365192384,,,,,,,,,,,,,,,,,,,,,,1006,2019_Mar_06_0951,mf_amp_cond2,3.0.4,60.01397384670593,
somehow,&&&&&&&,left,neutral,,,,,,,,0,93,93,164,,,,,,,,,,,,,,,,,,,,,LDT,right,3.784535683109425,0,,,right,0,3.784535683109425,,,,,,,,,,,,,,,,,,,,,,1006,2019_Mar_06_0951,mf_amp_cond2,3.0.4,60.01397384670593,
ebbitter,&&&&&&&&,right,nonword,,,,,,,,0,94,94,110,,,,,,,,,,,,,,,,,,,,,LDT,right,0.9504916328005493,1,,,right,1,0.9504916328005493,,,,,,,,,,,,,,,,,,,,,,1006,2019_Mar_06_0951,mf_amp_cond2,3.0.4,60.01397384670593,
aubos,&&&&&,right,nonword,,,,,,,,0,95,95,177,,,,,,,,,,,,,,,,,,,,,LDT,left,0.9004412475042045,0,,,left,0,0.9004412475042045,,,,,,,,,,,,,,,,,,,,,,1006,2019_Mar_06_0951,mf_amp_cond2,3.0.4,60.01397384670593,
rorroborated,&&&&&&&&&&&&,right,nonword,,,,,,,,0,96,96,120,,,,,,,,,,,,,,,,,,,,,LDT,right,1.3172418150352314,1,,,right,1,1.3172418150352314,,,,,,,,,,,,,,,,,,,,,,1006,2019_Mar_06_0951,mf_amp_cond2,3.0.4,60.01397384670593,
men,&&&,left,loyalty.vice,,,,,,,,0,97,97,25,,,,,,,,,,,,,,,,,,,,,LDT,right,0.5337103084893897,0,,,right,0,0.5337103084893897,,,,,,,,,,,,,,,,,,,,,,1006,2019_Mar_06_0951,mf_amp_cond2,3.0.4,60.01397384670593,
victim,&&&&&&,left,care.vice,,,,,,,,0,98,98,85,,,,,,,,,,,,,,,,,,,,,LDT,right,1.3839145113015547,0,,,right,0,1.3839145113015547,,,,,,,,,,,,,,,,,,,,,,1006,2019_Mar_06_0951,mf_amp_cond2,3.0.4,60.01397384670593,
fifteen,&&&&&&&,left,neutral,,,,,,,,0,99,99,95,,,,,,,,,,,,,,,,,,,,,LDT,right,0.9504736723611131,0,,,right,0,0.9504736723611131,,,,,,,,,,,,,,,,,,,,,,1006,2019_Mar_06_0951,mf_amp_cond2,3.0.4,60.01397384670593,
elsewhere,&&&&&&&&&,left,neutral,,,,,,,,0,100,100,79,,,,,,,,,,,,,,,,,,,,,LDT,right,1.7006685101659968,0,,,right,0,1.7006685101659968,,,,,,,,,,,,,,,,,,,,,,1006,2019_Mar_06_0951,mf_amp_cond2,3.0.4,60.01397384670593,
lies,&&&&,left,fairness.vice,,,,,,,,0,101,101,121,,,,,,,,,,,,,,,,,,,,,LDT,right,2.517522253212519,0,,,right,0,2.517522253212519,,,,,,,,,,,,,,,,,,,,,,1006,2019_Mar_06_0951,mf_amp_cond2,3.0.4,60.01397384670593,
corruption,&&&&&&&&&&,left,sanctity.vice,,,,,,,,0,102,102,146,,,,,,,,,,,,,,,,,,,,,LDT,right,0.8004488806473091,0,,,right,0,0.8004488806473091,,,,,,,,,,,,,,,,,,,,,,1006,2019_Mar_06_0951,mf_amp_cond2,3.0.4,60.01397384670593,
energy,&&&&&&,left,sanctity.virtue,,,,,,,,0,103,103,91,,,,,,,,,,,,,,,,,,,,,LDT,right,1.6173119245795533,0,,,right,0,1.6173119245795533,,,,,,,,,,,,,,,,,,,,,,1006,2019_Mar_06_0951,mf_amp_cond2,3.0.4,60.01397384670593,
hescribe,&&&&&&&&,right,nonword,,,,,,,,0,104,104,15,,,,,,,,,,,,,,,,,,,,,LDT,left,2.2174527851166204,0,,,left,0,2.2174527851166204,,,,,,,,,,,,,,,,,,,,,,1006,2019_Mar_06_0951,mf_amp_cond2,3.0.4,60.01397384670593,
could,&&&&&,left,neutral,,,,,,,,0,105,105,136,,,,,,,,,,,,,,,,,,,,,LDT,right,3.284426638041623,0,,,right,0,3.284426638041623,,,,,,,,,,,,,,,,,,,,,,1006,2019_Mar_06_0951,mf_amp_cond2,3.0.4,60.01397384670593,
troubla,&&&&&&&,right,nonword,,,,,,,,0,106,106,11,,,,,,,,,,,,,,,,,,,,,LDT,right,1.483898539445363,1,,,right,1,1.483898539445363,,,,,,,,,,,,,,,,,,,,,,1006,2019_Mar_06_0951,mf_amp_cond2,3.0.4,60.01397384670593,
epigrach,&&&&&&&&,right,nonword,,,,,,,,0,107,107,131,,,,,,,,,,,,,,,,,,,,,LDT,left,0.7337579033337533,0,,,left,0,0.7337579033337533,,,,,,,,,,,,,,,,,,,,,,1006,2019_Mar_06_0951,mf_amp_cond2,3.0.4,60.01397384670593,
good,&&&&,left,care.virtue,,,,,,,,0,108,108,0,,,,,,,,,,,,,,,,,,,,,LDT,right,1.8840427994728088,0,,,right,0,1.8840427994728088,,,,,,,,,,,,,,,,,,,,,,1006,2019_Mar_06_0951,mf_amp_cond2,3.0.4,60.01397384670593,
bruthfulness,&&&&&&&&&&&&,right,nonword,,,,,,,,0,109,109,189,,,,,,,,,,,,,,,,,,,,,LDT,right,2.2674816821236163,1,,,right,1,2.2674816821236163,,,,,,,,,,,,,,,,,,,,,,1006,2019_Mar_06_0951,mf_amp_cond2,3.0.4,60.01397384670593,
were,&&&&,left,neutral,,,,,,,,0,110,110,18,,,,,,,,,,,,,,,,,,,,,LDT,right,1.0005019278032705,0,,,right,0,1.0005019278032705,,,,,,,,,,,,,,,,,,,,,,1006,2019_Mar_06_0951,mf_amp_cond2,3.0.4,60.01397384670593,
ejanulated,&&&&&&&&&&,right,nonword,,,,,,,,0,111,111,137,,,,,,,,,,,,,,,,,,,,,LDT,right,2.384169163531624,1,,,right,1,2.384169163531624,,,,,,,,,,,,,,,,,,,,,,1006,2019_Mar_06_0951,mf_amp_cond2,3.0.4,60.01397384670593,
prones,&&&&&&,right,nonword,,,,,,,,0,112,112,108,,,,,,,,,,,,,,,,,,,,,LDT,right,1.083827403606847,1,,,right,1,1.083827403606847,,,,,,,,,,,,,,,,,,,,,,1006,2019_Mar_06_0951,mf_amp_cond2,3.0.4,60.01397384670593,
precificity,&&&&&&&&&&&,right,nonword,,,,,,,,0,113,113,12,,,,,,,,,,,,,,,,,,,,,LDT,right,2.067379885353148,1,,,right,1,2.067379885353148,,,,,,,,,,,,,,,,,,,,,,1006,2019_Mar_06_0951,mf_amp_cond2,3.0.4,60.01397384670593,
become,&&&&&&,left,neutral,,,,,,,,0,114,114,174,,,,,,,,,,,,,,,,,,,,,LDT,left,1.6506264636991546,1,,,left,1,1.6506264636991546,,,,,,,,,,,,,,,,,,,,,,1006,2019_Mar_06_0951,mf_amp_cond2,3.0.4,60.01397384670593,
compassion,&&&&&&&&&&,left,care.virtue,,,,,,,,0,115,115,57,,,,,,,,,,,,,,,,,,,,,LDT,right,1.2338794565293938,0,,,right,0,1.2338794565293938,,,,,,,,,,,,,,,,,,,,,,1006,2019_Mar_06_0951,mf_amp_cond2,3.0.4,60.01397384670593,
further,&&&&&&&,left,neutral,,,,,,,,0,116,116,77,,,,,,,,,,,,,,,,,,,,,LDT,right,0.7669973938027397,0,,,right,0,0.7669973938027397,,,,,,,,,,,,,,,,,,,,,,1006,2019_Mar_06_0951,mf_amp_cond2,3.0.4,60.01397384670593,
threatened,&&&&&&&&&&,left,fairness.vice,,,,,,,,0,117,117,26,,,,,,,,,,,,,,,,,,,,,LDT,right,1.1505350582301617,0,,,right,0,1.1505350582301617,,,,,,,,,,,,,,,,,,,,,,1006,2019_Mar_06_0951,mf_amp_cond2,3.0.4,60.01397384670593,
Lacedonia,&&&&&&&&&,right,nonword,,,,,,,,0,118,118,28,,,,,,,,,,,,,,,,,,,,,LDT,left,0.8004373346921057,0,,,left,0,0.8004373346921057,,,,,,,,,,,,,,,,,,,,,,1006,2019_Mar_06_0951,mf_amp_cond2,3.0.4,60.01397384670593,
voter,&&&&&,left,fairness.vice,,,,,,,,0,119,119,92,,,,,,,,,,,,,,,,,,,,,LDT,right,0.6504003555746749,0,,,right,0,0.6504003555746749,,,,,,,,,,,,,,,,,,,,,,1006,2019_Mar_06_0951,mf_amp_cond2,3.0.4,60.01397384670593,
protect,&&&&&&&,left,fairness.virtue,,,,,,,,0,120,120,50,,,,,,,,,,,,,,,,,,,,,LDT,right,1.850699074799195,0,,,right,0,1.850699074799195,,,,,,,,,,,,,,,,,,,,,,1006,2019_Mar_06_0951,mf_amp_cond2,3.0.4,60.01397384670593,
rivernoat,&&&&&&&&&,right,nonword,,,,,,,,0,121,121,161,,,,,,,,,,,,,,,,,,,,,LDT,left,2.6008948747767136,0,,,left,0,2.6008948747767136,,,,,,,,,,,,,,,,,,,,,,1006,2019_Mar_06_0951,mf_amp_cond2,3.0.4,60.01397384670593,
dignity,&&&&&&&,left,sanctity.virtue,,,,,,,,0,122,122,129,,,,,,,,,,,,,,,,,,,,,LDT,right,1.617377030896023,0,,,right,0,1.617377030896023,,,,,,,,,,,,,,,,,,,,,,1006,2019_Mar_06_0951,mf_amp_cond2,3.0.4,60.01397384670593,
noped,&&&&&,right,nonword,,,,,,,,0,123,123,188,,,,,,,,,,,,,,,,,,,,,LDT,right,2.217294669826515,1,,,right,1,2.217294669826515,,,,,,,,,,,,,,,,,,,,,,1006,2019_Mar_06_0951,mf_amp_cond2,3.0.4,60.01397384670593,
tove,&&&&,right,nonword,,,,,,,,0,124,124,30,,,,,,,,,,,,,,,,,,,,,LDT,right,0.7337620727485046,1,,,right,1,0.7337620727485046,,,,,,,,,,,,,,,,,,,,,,1006,2019_Mar_06_0951,mf_amp_cond2,3.0.4,60.01397384670593,
fontacts,&&&&&&&&,right,nonword,,,,,,,,0,125,125,1,,,,,,,,,,,,,,,,,,,,,LDT,right,1.3005576049908996,1,,,right,1,1.3005576049908996,,,,,,,,,,,,,,,,,,,,,,1006,2019_Mar_06_0951,mf_amp_cond2,3.0.4,60.01397384670593,
hate,&&&&,left,fairness.vice,,,,,,,,0,126,126,48,,,,,,,,,,,,,,,,,,,,,LDT,right,0.8838131634984165,0,,,right,0,0.8838131634984165,,,,,,,,,,,,,,,,,,,,,,1006,2019_Mar_06_0951,mf_amp_cond2,3.0.4,60.01397384670593,
erdest,&&&&&&,right,nonword,,,,,,,,0,127,127,130,,,,,,,,,,,,,,,,,,,,,LDT,left,1.2505697603337467,0,,,left,0,1.2505697603337467,,,,,,,,,,,,,,,,,,,,,,1006,2019_Mar_06_0951,mf_amp_cond2,3.0.4,60.01397384670593,
rejected,&&&&&&&&,left,authority.vice,,,,,,,,0,128,128,84,,,,,,,,,,,,,,,,,,,,,LDT,right,0.6504147880477831,0,,,right,0,0.6504147880477831,,,,,,,,,,,,,,,,,,,,,,1006,2019_Mar_06_0951,mf_amp_cond2,3.0.4,60.01397384670593,
pullness,&&&&&&&&,right,nonword,,,,,,,,0,129,129,153,,,,,,,,,,,,,,,,,,,,,LDT,right,1.4839476096676663,1,,,right,1,1.4839476096676663,,,,,,,,,,,,,,,,,,,,,,1006,2019_Mar_06_0951,mf_amp_cond2,3.0.4,60.01397384670593,
mostly,&&&&&&,left,neutral,,,,,,,,0,130,130,159,,,,,,,,,,,,,,,,,,,,,LDT,right,1.083850174676627,0,,,right,0,1.083850174676627,,,,,,,,,,,,,,,,,,,,,,1006,2019_Mar_06_0951,mf_amp_cond2,3.0.4,60.01397384670593,
growth,&&&&&&,left,care.virtue,,,,,,,,0,131,131,38,,,,,,,,,,,,,,,,,,,,,LDT,right,1.2672315199160948,0,,,right,0,1.2672315199160948,,,,,,,,,,,,,,,,,,,,,,1006,2019_Mar_06_0951,mf_amp_cond2,3.0.4,60.01397384670593,
bycled,&&&&&&,None,nonword,,,,,,,,0,132,132,2,,,,,,,,,,,,,,,,,,,,,LDT,left,1.5672625014558434,0,,,left,0,1.5672625014558434,,,,,,,,,,,,,,,,,,,,,,1006,2019_Mar_06_0951,mf_amp_cond2,3.0.4,60.01397384670593,
trust,&&&&&,left,authority.virtue,,,,,,,,0,133,133,69,,,,,,,,,,,,,,,,,,,,,LDT,right,0.5503749545896426,0,,,right,0,0.5503749545896426,,,,,,,,,,,,,,,,,,,,,,1006,2019_Mar_06_0951,mf_amp_cond2,3.0.4,60.01397384670593,
done,&&&&,left,neutral,,,,,,,,0,134,134,176,,,,,,,,,,,,,,,,,,,,,LDT,right,0.8004533706698567,0,,,right,0,0.8004533706698567,,,,,,,,,,,,,,,,,,,,,,1006,2019_Mar_06_0951,mf_amp_cond2,3.0.4,60.01397384670593,
loyalty,&&&&&&&,left,loyalty.virtue,,,,,,,,0,135,135,42,,,,,,,,,,,,,,,,,,,,,LDT,right,0.6502845754148439,0,,,right,0,0.6502845754148439,,,,,,,,,,,,,,,,,,,,,,1006,2019_Mar_06_0951,mf_amp_cond2,3.0.4,60.01397384670593,
either,&&&&&&,left,neutral,,,,,,,,0,136,136,196,,,,,,,,,,,,,,,,,,,,,LDT,right,0.5170328334206715,0,,,right,0,0.5170328334206715,,,,,,,,,,,,,,,,,,,,,,1006,2019_Mar_06_0951,mf_amp_cond2,3.0.4,60.01397384670593,
lachelor,&&&&&&&&,right,nonword,,,,,,,,0,137,137,98,,,,,,,,,,,,,,,,,,,,,LDT,right,0.8171305250143632,1,,,right,1,0.8171305250143632,,,,,,,,,,,,,,,,,,,,,,1006,2019_Mar_06_0951,mf_amp_cond2,3.0.4,60.01397384670593,
front,&&&&&,left,neutral,,,,,,,,0,138,138,162,,,,,,,,,,,,,,,,,,,,,LDT,right,0.5170459829969332,0,,,right,0,0.5170459829969332,,,,,,,,,,,,,,,,,,,,,,1006,2019_Mar_06_0951,mf_amp_cond2,3.0.4,60.01397384670593,
allears,&&&&&&&,right,nonword,,,,,,,,0,139,139,93,,,,,,,,,,,,,,,,,,,,,LDT,left,1.0338337859138846,0,,,left,0,1.0338337859138846,,,,,,,,,,,,,,,,,,,,,,1006,2019_Mar_06_0951,mf_amp_cond2,3.0.4,60.01397384670593,
hatigue,&&&&&&&,right,nonword,,,,,,,,0,140,140,134,,,,,,,,,,,,,,,,,,,,,LDT,left,1.8840450446587056,0,,,left,0,1.8840450446587056,,,,,,,,,,,,,,,,,,,,,,1006,2019_Mar_06_0951,mf_amp_cond2,3.0.4,60.01397384670593,
sickyay,&&&&&&&,right,nonword,,,,,,,,0,141,141,123,,,,,,,,,,,,,,,,,,,,,LDT,right,0.5503865005448461,1,,,right,1,0.5503865005448461,,,,,,,,,,,,,,,,,,,,,,1006,2019_Mar_06_0951,mf_amp_cond2,3.0.4,60.01397384670593,
hasks,&&&&&,right,nonword,,,,,,,,0,142,142,168,,,,,,,,,,,,,,,,,,,,,LDT,right,0.8504524406744167,1,,,right,1,0.8504524406744167,,,,,,,,,,,,,,,,,,,,,,1006,2019_Mar_06_0951,mf_amp_cond2,3.0.4,60.01397384670593,
groups,&&&&&&,left,loyalty.vice,,,,,,,,0,143,143,81,,,,,,,,,,,,,,,,,,,,,LDT,right,0.6837508154567331,0,,,right,0,0.6837508154567331,,,,,,,,,,,,,,,,,,,,,,1006,2019_Mar_06_0951,mf_amp_cond2,3.0.4,60.01397384670593,
antral,&&&&&&,right,nonword,,,,,,,,0,144,144,198,,,,,,,,,,,,,,,,,,,,,LDT,left,0.9838260564720258,0,,,left,0,0.9838260564720258,,,,,,,,,,,,,,,,,,,,,,1006,2019_Mar_06_0951,mf_amp_cond2,3.0.4,60.01397384670593,
amount,&&&&&&,left,neutral,,,,,,,,0,145,145,167,,,,,,,,,,,,,,,,,,,,,LDT,right,0.38367140502668917,0,,,right,0,0.38367140502668917,,,,,,,,,,,,,,,,,,,,,,1006,2019_Mar_06_0951,mf_amp_cond2,3.0.4,60.01397384670593,
brudent,&&&&&&&,right,nonword,,,,,,,,0,146,146,99,,,,,,,,,,,,,,,,,,,,,LDT,right,0.9004614530131221,1,,,right,1,0.9004614530131221,,,,,,,,,,,,,,,,,,,,,,1006,2019_Mar_06_0951,mf_amp_cond2,3.0.4,60.01397384670593,
violations,&&&&&&&&&&,left,sanctity.vice,,,,,,,,0,147,147,104,,,,,,,,,,,,,,,,,,,,,LDT,right,0.7504292846424505,0,,,right,0,0.7504292846424505,,,,,,,,,,,,,,,,,,,,,,1006,2019_Mar_06_0951,mf_amp_cond2,3.0.4,60.01397384670593,
eight,&&&&&,left,neutral,,,,,,,,0,148,148,127,,,,,,,,,,,,,,,,,,,,,LDT,right,0.8671164453262463,0,,,right,0,0.8671164453262463,,,,,,,,,,,,,,,,,,,,,,1006,2019_Mar_06_0951,mf_amp_cond2,3.0.4,60.01397384670593,
seem,&&&&,left,neutral,,,,,,,,0,149,149,80,,,,,,,,,,,,,,,,,,,,,LDT,right,1.0505122230388224,0,,,right,0,1.0505122230388224,,,,,,,,,,,,,,,,,,,,,,1006,2019_Mar_06_0951,mf_amp_cond2,3.0.4,60.01397384670593,
toward,&&&&&&,left,neutral,,,,,,,,0,150,150,97,,,,,,,,,,,,,,,,,,,,,LDT,right,0.4837057861732319,0,,,right,0,0.4837057861732319,,,,,,,,,,,,,,,,,,,,,,1006,2019_Mar_06_0951,mf_amp_cond2,3.0.4,60.01397384670593,
dramens,&&&&&&&,right,nonword,,,,,,,,0,151,151,88,,,,,,,,,,,,,,,,,,,,,LDT,right,0.8337855493882671,1,,,right,1,0.8337855493882671,,,,,,,,,,,,,,,,,,,,,,1006,2019_Mar_06_0951,mf_amp_cond2,3.0.4,60.01397384670593,
stindig,&&&&&&&,right,nonword,,,,,,,,0,152,152,68,,,,,,,,,,,,,,,,,,,,,LDT,right,1.117188447038643,1,,,right,1,1.117188447038643,,,,,,,,,,,,,,,,,,,,,,1006,2019_Mar_06_0951,mf_amp_cond2,3.0.4,60.01397384670593,
also,&&&&,left,neutral,,,,,,,,0,153,153,155,,,,,,,,,,,,,,,,,,,,,LDT,right,0.6337347474182025,0,,,right,0,0.6337347474182025,,,,,,,,,,,,,,,,,,,,,,1006,2019_Mar_06_0951,mf_amp_cond2,3.0.4,60.01397384670593,
free,&&&&,left,fairness.virtue,,,,,,,,0,154,154,185,,,,,,,,,,,,,,,,,,,,,LDT,right,0.7004167444538325,0,,,right,0,0.7004167444538325,,,,,,,,,,,,,,,,,,,,,,1006,2019_Mar_06_0951,mf_amp_cond2,3.0.4,60.01397384670593,
even,&&&&,left,neutral,,,,,,,,0,155,155,132,,,,,,,,,,,,,,,,,,,,,LDT,right,0.6170582345221192,0,,,right,0,0.6170582345221192,,,,,,,,,,,,,,,,,,,,,,1006,2019_Mar_06_0951,mf_amp_cond2,3.0.4,60.01397384670593,
shoirmaster,&&&&&&&&&&&,right,nonword,,,,,,,,0,156,156,21,,,,,,,,,,,,,,,,,,,,,LDT,left,0.8671090687857941,0,,,left,0,0.8671090687857941,,,,,,,,,,,,,,,,,,,,,,1006,2019_Mar_06_0951,mf_amp_cond2,3.0.4,60.01397384670593,
else,&&&&,left,neutral,,,,,,,,0,157,157,94,,,,,,,,,,,,,,,,,,,,,LDT,right,1.0004890989512205,0,,,right,0,1.0004890989512205,,,,,,,,,,,,,,,,,,,,,,1006,2019_Mar_06_0951,mf_amp_cond2,3.0.4,60.01397384670593,
gournful,&&&&&&&&,right,nonword,,,,,,,,0,158,158,119,,,,,,,,,,,,,,,,,,,,,LDT,right,0.9004726781276986,1,,,right,1,0.9004726781276986,,,,,,,,,,,,,,,,,,,,,,1006,2019_Mar_06_0951,mf_amp_cond2,3.0.4,60.01397384670593,
unscothed,&&&&&&&&&,right,nonword,,,,,,,,0,159,159,170,,,,,,,,,,,,,,,,,,,,,LDT,right,5.518303528777324,1,,,right,1,5.518303528777324,,,,,,,,,,,,,,,,,,,,,,1006,2019_Mar_06_0951,mf_amp_cond2,3.0.4,60.01397384670593,
promises,&&&&&&&&,left,fairness.virtue,,,,,,,,0,160,160,24,,,,,,,,,,,,,,,,,,,,,LDT,right,0.8671276705572382,0,,,right,0,0.8671276705572382,,,,,,,,,,,,,,,,,,,,,,1006,2019_Mar_06_0951,mf_amp_cond2,3.0.4,60.01397384670593,
nomparisons,&&&&&&&&&&&,right,nonword,,,,,,,,0,161,161,5,,,,,,,,,,,,,,,,,,,,,LDT,left,1.4005939105991274,0,,,left,0,1.4005939105991274,,,,,,,,,,,,,,,,,,,,,,1006,2019_Mar_06_0951,mf_amp_cond2,3.0.4,60.01397384670593,
laming,&&&&&&,right,nonword,,,,,,,,0,162,162,112,,,,,,,,,,,,,,,,,,,,,LDT,right,1.0004897403996438,1,,,right,1,1.0004897403996438,,,,,,,,,,,,,,,,,,,,,,1006,2019_Mar_06_0951,mf_amp_cond2,3.0.4,60.01397384670593,
there,&&&&&,left,neutral,,,,,,,,0,163,163,33,,,,,,,,,,,,,,,,,,,,,LDT,right,2.7009215587750077,0,,,right,0,2.7009215587750077,,,,,,,,,,,,,,,,,,,,,,1006,2019_Mar_06_0951,mf_amp_cond2,3.0.4,60.01397384670593,
itself,&&&&&&,left,neutral,,,,,,,,0,164,164,190,,,,,,,,,,,,,,,,,,,,,LDT,right,0.6670778305269778,0,,,right,0,0.6670778305269778,,,,,,,,,,,,,,,,,,,,,,1006,2019_Mar_06_0951,mf_amp_cond2,3.0.4,60.01397384670593,
totalestic,&&&&&&&&&&,None,nonword,,,,,,,,0,165,165,54,,,,,,,,,,,,,,,,,,,,,LDT,right,0.7504379440797493,0,,,right,0,0.7504379440797493,,,,,,,,,,,,,,,,,,,,,,1006,2019_Mar_06_0951,mf_amp_cond2,3.0.4,60.01397384670593,
harassment,&&&&&&&&&&,left,sanctity.vice,,,,,,,,0,166,166,101,,,,,,,,,,,,,,,,,,,,,LDT,left,1.4672791148768738,1,,,left,1,1.4672791148768738,,,,,,,,,,,,,,,,,,,,,,1006,2019_Mar_06_0951,mf_amp_cond2,3.0.4,60.01397384670593,
been,&&&&,left,neutral,,,,,,,,0,167,167,182,,,,,,,,,,,,,,,,,,,,,LDT,right,0.6170710633741692,0,,,right,0,0.6170710633741692,,,,,,,,,,,,,,,,,,,,,,1006,2019_Mar_06_0951,mf_amp_cond2,3.0.4,60.01397384670593,
gondensed,&&&&&&&&&,right,nonword,,,,,,,,0,168,168,187,,,,,,,,,,,,,,,,,,,,,LDT,left,1.0338815732393414,0,,,left,0,1.0338815732393414,,,,,,,,,,,,,,,,,,,,,,1006,2019_Mar_06_0951,mf_amp_cond2,3.0.4,60.01397384670593,
tracious,&&&&&&&&,right,nonword,,,,,,,,0,169,169,143,,,,,,,,,,,,,,,,,,,,,LDT,right,0.4336820208700374,1,,,right,1,0.4336820208700374,,,,,,,,,,,,,,,,,,,,,,1006,2019_Mar_06_0951,mf_amp_cond2,3.0.4,60.01397384670593,
hefurbished,&&&&&&&&&&&,right,nonword,,,,,,,,0,170,170,7,,,,,,,,,,,,,,,,,,,,,LDT,right,1.1338309635175392,1,,,right,1,1.1338309635175392,,,,,,,,,,,,,,,,,,,,,,1006,2019_Mar_06_0951,mf_amp_cond2,3.0.4,60.01397384670593,
promised,&&&&&&&&,left,loyalty.virtue,,,,,,,,0,171,171,118,,,,,,,,,,,,,,,,,,,,,LDT,right,0.5170475866179913,0,,,right,0,0.5170475866179913,,,,,,,,,,,,,,,,,,,,,,1006,2019_Mar_06_0951,mf_amp_cond2,3.0.4,60.01397384670593,
spag,&&&&,None,nonword,,,,,,,,0,172,172,100,,,,,,,,,,,,,,,,,,,,,LDT,right,0.5337045354535803,0,,,right,0,0.5337045354535803,,,,,,,,,,,,,,,,,,,,,,1006,2019_Mar_06_0951,mf_amp_cond2,3.0.4,60.01397384670593,
each,&&&&,left,neutral,,,,,,,,0,173,173,152,,,,,,,,,,,,,,,,,,,,,LDT,left,0.8338009440340102,1,,,left,1,0.8338009440340102,,,,,,,,,,,,,,,,,,,,,,1006,2019_Mar_06_0951,mf_amp_cond2,3.0.4,60.01397384670593,
towards,&&&&&&&,left,neutral,,,,,,,,0,174,174,22,,,,,,,,,,,,,,,,,,,,,LDT,right,1.8507019613170996,0,,,right,0,1.8507019613170996,,,,,,,,,,,,,,,,,,,,,,1006,2019_Mar_06_0951,mf_amp_cond2,3.0.4,60.01397384670593,
brotesque,&&&&&&&&&,right,nonword,,,,,,,,0,175,175,14,,,,,,,,,,,,,,,,,,,,,LDT,right,1.217224111314863,1,,,right,1,1.217224111314863,,,,,,,,,,,,,,,,,,,,,,1006,2019_Mar_06_0951,mf_amp_cond2,3.0.4,60.01397384670593,
Loorish,&&&&&&&,right,nonword,,,,,,,,0,176,176,173,,,,,,,,,,,,,,,,,,,,,LDT,right,0.8504501956049353,1,,,right,1,0.8504501956049353,,,,,,,,,,,,,,,,,,,,,,1006,2019_Mar_06_0951,mf_amp_cond2,3.0.4,60.01397384670593,
counpy's,&&&&&&&&,right,nonword,,,,,,,,0,177,177,65,,,,,,,,,,,,,,,,,,,,,LDT,right,0.8171122438507155,1,,,right,1,0.8171122438507155,,,,,,,,,,,,,,,,,,,,,,1006,2019_Mar_06_0951,mf_amp_cond2,3.0.4,60.01397384670593,
crinking,&&&&&&&&,right,nonword,,,,,,,,0,178,178,45,,,,,,,,,,,,,,,,,,,,,LDT,right,1.2005318831652403,1,,,right,1,1.2005318831652403,,,,,,,,,,,,,,,,,,,,,,1006,2019_Mar_06_0951,mf_amp_cond2,3.0.4,60.01397384670593,
latterly,&&&&&&&&,left,neutral,,,,,,,,0,179,179,195,,,,,,,,,,,,,,,,,,,,,LDT,right,0.6504035628167912,0,,,right,0,0.6504035628167912,,,,,,,,,,,,,,,,,,,,,,1006,2019_Mar_06_0951,mf_amp_cond2,3.0.4,60.01397384670593,
wonderfujnoss,&&&&&&&&&&&&&,right,nonword,,,,,,,,0,180,180,135,,,,,,,,,,,,,,,,,,,,,LDT,right,0.7004263660637662,1,,,right,1,0.7004263660637662,,,,,,,,,,,,,,,,,,,,,,1006,2019_Mar_06_0951,mf_amp_cond2,3.0.4,60.01397384670593,
sliptery,&&&&&&&&,right,nonword,,,,,,,,0,181,181,125,,,,,,,,,,,,,,,,,,,,,LDT,right,0.9171402107458562,1,,,right,1,0.9171402107458562,,,,,,,,,,,,,,,,,,,,,,1006,2019_Mar_06_0951,mf_amp_cond2,3.0.4,60.01397384670593,
menizen,&&&&&&&,None,nonword,,,,,,,,0,182,182,87,,,,,,,,,,,,,,,,,,,,,LDT,left,0.7670913649490103,0,,,left,0,0.7670913649490103,,,,,,,,,,,,,,,,,,,,,,1006,2019_Mar_06_0951,mf_amp_cond2,3.0.4,60.01397384670593,
amoungst,&&&&&&&&,left,neutral,,,,,,,,0,183,183,29,,,,,,,,,,,,,,,,,,,,,LDT,right,0.7170743347378448,0,,,right,0,0.7170743347378448,,,,,,,,,,,,,,,,,,,,,,1006,2019_Mar_06_0951,mf_amp_cond2,3.0.4,60.01397384670593,
both,&&&&,left,neutral,,,,,,,,0,184,184,107,,,,,,,,,,,,,,,,,,,,,LDT,right,1.2005357317393646,0,,,right,0,1.2005357317393646,,,,,,,,,,,,,,,,,,,,,,1006,2019_Mar_06_0951,mf_amp_cond2,3.0.4,60.01397384670593,
therefore,&&&&&&&&&,left,neutral,,,,,,,,0,185,185,32,,,,,,,,,,,,,,,,,,,,,LDT,right,1.2005366940284148,0,,,right,0,1.2005366940284148,,,,,,,,,,,,,,,,,,,,,,1006,2019_Mar_06_0951,mf_amp_cond2,3.0.4,60.01397384670593,
death,&&&&&,left,care.vice,,,,,,,,0,186,186,160,,,,,,,,,,,,,,,,,,,,,LDT,right,0.883795844623819,0,,,right,0,0.883795844623819,,,,,,,,,,,,,,,,,,,,,,1006,2019_Mar_06_0951,mf_amp_cond2,3.0.4,60.01397384670593,
ability,&&&&&&&,left,authority.virtue,,,,,,,,0,187,187,60,,,,,,,,,,,,,,,,,,,,,LDT,right,0.7504260774003342,0,,,right,0,0.7504260774003342,,,,,,,,,,,,,,,,,,,,,,1006,2019_Mar_06_0951,mf_amp_cond2,3.0.4,60.01397384670593,
gazily,&&&&&&,right,nonword,,,,,,,,0,188,188,17,,,,,,,,,,,,,,,,,,,,,LDT,right,0.7170865220250562,1,,,right,1,0.7170865220250562,,,,,,,,,,,,,,,,,,,,,,1006,2019_Mar_06_0951,mf_amp_cond2,3.0.4,60.01397384670593,
fangsters,&&&&&&&&&,right,nonword,,,,,,,,0,189,189,183,,,,,,,,,,,,,,,,,,,,,LDT,left,0.817113526747562,0,,,left,0,0.817113526747562,,,,,,,,,,,,,,,,,,,,,,1006,2019_Mar_06_0951,mf_amp_cond2,3.0.4,60.01397384670593,
couldnt,&&&&&&&,left,neutral,,,,,,,,0,190,190,56,,,,,,,,,,,,,,,,,,,,,LDT,right,0.7504267189651728,0,,,right,0,0.7504267189651728,,,,,,,,,,,,,,,,,,,,,,1006,2019_Mar_06_0951,mf_amp_cond2,3.0.4,60.01397384670593,
noone,&&&&&,left,neutral,,,,,,,,0,191,191,89,,,,,,,,,,,,,,,,,,,,,LDT,right,0.9504704652354121,0,,,right,0,0.9504704652354121,,,,,,,,,,,,,,,,,,,,,,1006,2019_Mar_06_0951,mf_amp_cond2,3.0.4,60.01397384670593,
bluently,&&&&&&&&,None,nonword,,,,,,,,0,192,192,34,,,,,,,,,,,,,,,,,,,,,LDT,left,0.8504271036945283,0,,,left,0,0.8504271036945283,,,,,,,,,,,,,,,,,,,,,,1006,2019_Mar_06_0951,mf_amp_cond2,3.0.4,60.01397384670593,
forty,&&&&&,left,neutral,,,,,,,,0,193,193,191,,,,,,,,,,,,,,,,,,,,,LDT,right,0.8171045465860516,0,,,right,0,0.8171045465860516,,,,,,,,,,,,,,,,,,,,,,1006,2019_Mar_06_0951,mf_amp_cond2,3.0.4,60.01397384670593,
Daptist,&&&&&&&,right,nonword,,,,,,,,0,194,194,147,,,,,,,,,,,,,,,,,,,,,LDT,left,1.0838395908940583,0,,,left,0,1.0838395908940583,,,,,,,,,,,,,,,,,,,,,,1006,2019_Mar_06_0951,mf_amp_cond2,3.0.4,60.01397384670593,
anything,&&&&&&&&,left,neutral,,,,,,,,0,195,195,145,,,,,,,,,,,,,,,,,,,,,LDT,right,1.117182674119249,0,,,right,0,1.117182674119249,,,,,,,,,,,,,,,,,,,,,,1006,2019_Mar_06_0951,mf_amp_cond2,3.0.4,60.01397384670593,
tenuflect,&&&&&&&&&,right,nonword,,,,,,,,0,196,196,163,,,,,,,,,,,,,,,,,,,,,LDT,right,1.2839176543056965,1,,,right,1,1.2839176543056965,,,,,,,,,,,,,,,,,,,,,,1006,2019_Mar_06_0951,mf_amp_cond2,3.0.4,60.01397384670593,
mih,&&&,right,nonword,,,,,,,,0,197,197,186,,,,,,,,,,,,,,,,,,,,,LDT,left,1.5672977808862925,0,,,left,0,1.5672977808862925,,,,,,,,,,,,,,,,,,,,,,1006,2019_Mar_06_0951,mf_amp_cond2,3.0.4,60.01397384670593,
peace,&&&&&,left,care.virtue,,,,,,,,0,198,198,8,,,,,,,,,,,,,,,,,,,,,LDT,right,1.1672096467809752,0,,,right,0,1.1672096467809752,,,,,,,,,,,,,,,,,,,,,,1006,2019_Mar_06_0951,mf_amp_cond2,3.0.4,60.01397384670593,
sexual,&&&&&&,left,sanctity.vice,,,,,,,,0,199,199,105,,,,,,,,,,,,,,,,,,,,,LDT,right,0.9004636979661882,0,,,right,0,0.9004636979661882,,,,,,,,,,,,,,,,,,,,,,1006,2019_Mar_06_0951,mf_amp_cond2,3.0.4,60.01397384670593,
,,,,,,,,,,,,,,,,,,,,,,,,,,,,,,,,,,,,,,,,,,,,4,10.654,,,,,,,,,,,,,,,,,,,,1006,2019_Mar_06_0951,mf_amp_cond2,3.0.4,60.01397384670593,
,,,,,,,,,,,,,,,,,,,,,,,,,,,,,,,,,,,,,,,,,,,,,,right,1.2005658795824274,,,,,,,,,,,,,,,,,,1006,2019_Mar_06_0951,mf_amp_cond2,3.0.4,60.01397384670593,
scarf,&&&&&&&&,,,bisebell,,,,,,,,,,,0,0,0,3,,,,,,,,,,,,,,,,,AMP_prac,right,5.751693886239082,,,,,,,,,,,right,5.751693886239082,,,,,,,,,,,,,,,,1006,2019_Mar_06_0951,mf_amp_cond2,3.0.4,60.01397384670593,
car,&&&&&&&&,,,cemtuper,,,,,,,,,,,0,1,1,0,,,,,,,,,,,,,,,,,AMP_prac,right,3.1343922247178853,,,,,,,,,,,right,3.1343922247178853,,,,,,,,,,,,,,,,1006,2019_Mar_06_0951,mf_amp_cond2,3.0.4,60.01397384670593,
banana,&&&&&&,,,kacket,,,,,,,,,,,0,2,2,1,,,,,,,,,,,,,,,,,AMP_prac,left,0.8838195779826492,,,,,,,,,,,left,0.8838195779826492,,,,,,,,,,,,,,,,1006,2019_Mar_06_0951,mf_amp_cond2,3.0.4,60.01397384670593,
keyboard,&&&&,,,senk,,,,,,,,,,,0,3,3,2,,,,,,,,,,,,,,,,,AMP_prac,left,0.9171517567010596,,,,,,,,,,,left,0.9171517567010596,,,,,,,,,,,,,,,,1006,2019_Mar_06_0951,mf_amp_cond2,3.0.4,60.01397384670593,
,,,,,,,,,,,,,,,,,,,,,,,,,,,,,,,,,,,,,,,,,,,,,,,,,,right,1.1671692359959707,,,,,,,,,,,,,,1006,2019_Mar_06_0951,mf_amp_cond2,3.0.4,60.01397384670593,
useful,&&&&&&,left,authority.virtue,greaks,,,,,,,,,,,,,,,0,0,0,206,,,,,,,,,,,,,AMP,right,4.451412101043388,0,,,,,,,,,,,,,,right,0,4.451412101043388,,,,,,,,,,,1006,2019_Mar_06_0951,mf_amp_cond2,3.0.4,60.01397384670593,
sharing,&&&&&&&&&,left,loyalty.virtue,baladroit,,,,,,,,,,,,,,,0,1,1,72,,,,,,,,,,,,,AMP,left,0.683745042537339,1,,,,,,,,,,,,,,left,1,0.683745042537339,,,,,,,,,,,1006,2019_Mar_06_0951,mf_amp_cond2,3.0.4,60.01397384670593,
fegard,&&&&&&&&&&,None,nonword,ecgagement,,,,,,,,,,,,,,,0,2,2,25,,,,,,,,,,,,,AMP,right,1.767391238710843,0,,,,,,,,,,,,,,right,0,1.767391238710843,,,,,,,,,,,1006,2019_Mar_06_0951,mf_amp_cond2,3.0.4,60.01397384670593,
safe,&&&&&&&&&&&&,left,care.virtue,iptervention,,,,,,,,,,,,,,,0,3,3,285,,,,,,,,,,,,,AMP,right,3.751194203388877,0,,,,,,,,,,,,,,right,0,3.751194203388877,,,,,,,,,,,1006,2019_Mar_06_0951,mf_amp_cond2,3.0.4,60.01397384670593,
honored,&&&&&&&&&,left,authority.virtue,pescinded,,,,,,,,,,,,,,,0,4,4,178,,,,,,,,,,,,,AMP,left,0.8504742496879771,1,,,,,,,,,,,,,,left,1,0.8504742496879771,,,,,,,,,,,1006,2019_Mar_06_0951,mf_amp_cond2,3.0.4,60.01397384670593,
benefit,&&&&&&&&&,left,fairness.virtue,chressing,,,,,,,,,,,,,,,0,5,5,162,,,,,,,,,,,,,AMP,left,0.717091974336654,1,,,,,,,,,,,,,,left,1,0.717091974336654,,,,,,,,,,,1006,2019_Mar_06_0951,mf_amp_cond2,3.0.4,60.01397384670593,
values,&&&&&,left,sanctity.virtue,tabin,,,,,,,,,,,,,,,0,6,6,75,,,,,,,,,,,,,AMP,right,0.9171591332415119,0,,,,,,,,,,,,,,right,0,0.9171591332415119,,,,,,,,,,,1006,2019_Mar_06_0951,mf_amp_cond2,3.0.4,60.01397384670593,
interests,&&&&&&&&&&,left,fairness.virtue,frocessing,,,,,,,,,,,,,,,0,7,7,113,,,,,,,,,,,,,AMP,left,1.0172169271390885,1,,,,,,,,,,,,,,left,1,1.0172169271390885,,,,,,,,,,,1006,2019_Mar_06_0951,mf_amp_cond2,3.0.4,60.01397384670593,
egpeditious,&&&&&,None,nonword,saned,,,,,,,,,,,,,,,0,8,8,20,,,,,,,,,,,,,AMP,right,0.8838125220499933,0,,,,,,,,,,,,,,right,0,0.8838125220499933,,,,,,,,,,,1006,2019_Mar_06_0951,mf_amp_cond2,3.0.4,60.01397384670593,
gun,&&&&&&&&,right,authority.vice,slending,,,,,,,,,,,,,,,0,9,9,147,,,,,,,,,,,,,AMP,left,0.9338359668618068,0,,,,,,,,,,,,,,left,0,0.9338359668618068,,,,,,,,,,,1006,2019_Mar_06_0951,mf_amp_cond2,3.0.4,60.01397384670593,
scandal,&&&&&,right,sanctity.vice,scock,,,,,,,,,,,,,,,0,10,10,169,,,,,,,,,,,,,AMP,left,0.7004395156400278,0,,,,,,,,,,,,,,left,0,0.7004395156400278,,,,,,,,,,,1006,2019_Mar_06_0951,mf_amp_cond2,3.0.4,60.01397384670593,
strength,&&&&&&&&&,left,sanctity.virtue,taxpayung,,,,,,,,,,,,,,,0,11,11,226,,,,,,,,,,,,,AMP,right,2.167338255792856,0,,,,,,,,,,,,,,right,0,2.167338255792856,,,,,,,,,,,1006,2019_Mar_06_0951,mf_amp_cond2,3.0.4,60.01397384670593,
war,&&&&&&,right,sanctity.vice,gikely,,,,,,,,,,,,,,,0,12,12,165,,,,,,,,,,,,,AMP,right,2.067457499797456,1,,,,,,,,,,,,,,right,1,2.067457499797456,,,,,,,,,,,1006,2019_Mar_06_0951,mf_amp_cond2,3.0.4,60.01397384670593,
love,&&&&&&&&&,left,loyalty.virtue,chressing,,,,,,,,,,,,,,,0,13,13,223,,,,,,,,,,,,,AMP,left,0.9338253830792382,1,,,,,,,,,,,,,,left,1,0.9338253830792382,,,,,,,,,,,1006,2019_Mar_06_0951,mf_amp_cond2,3.0.4,60.01397384670593,
fornicalion,&&&&&&&&&&,None,nonword,reelectiob,,,,,,,,,,,,,,,0,14,14,294,,,,,,,,,,,,,AMP,right,1.9841166294645518,0,,,,,,,,,,,,,,right,0,1.9841166294645518,,,,,,,,,,,1006,2019_Mar_06_0951,mf_amp_cond2,3.0.4,60.01397384670593,
egpeditious,&&&&&&&&&,None,nonword,pescinded,,,,,,,,,,,,,,,0,15,15,151,,,,,,,,,,,,,AMP,left,2.7176237291423604,0,,,,,,,,,,,,,,left,0,2.7176237291423604,,,,,,,,,,,1006,2019_Mar_06_0951,mf_amp_cond2,3.0.4,60.01397384670593,
conspiracy,&&&&&,right,sanctity.vice,lenon,,,,,,,,,,,,,,,0,16,16,132,,,,,,,,,,,,,AMP,right,2.434225642355159,1,,,,,,,,,,,,,,right,1,2.434225642355159,,,,,,,,,,,1006,2019_Mar_06_0951,mf_amp_cond2,3.0.4,60.01397384670593,
pleasant,&&&&&&&&&&&,None,control,lempestuous,,,,,,,,,,,,,,,0,17,17,253,,,,,,,,,,,,,AMP,left,1.9340858082287014,0,,,,,,,,,,,,,,left,0,1.9340858082287014,,,,,,,,,,,1006,2019_Mar_06_0951,mf_amp_cond2,3.0.4,60.01397384670593,
charges,&&&&&&&&&&&&&,right,fairness.vice,idexpressible,,,,,,,,,,,,,,,0,18,18,270,,,,,,,,,,,,,AMP,left,1.1005526657681912,0,,,,,,,,,,,,,,left,0,1.1005526657681912,,,,,,,,,,,1006,2019_Mar_06_0951,mf_amp_cond2,3.0.4,60.01397384670593,
faith,&&&&&&&,left,sanctity.virtue,nackers,,,,,,,,,,,,,,,0,19,19,7,,,,,,,,,,,,,AMP,right,1.10052572528366,0,,,,,,,,,,,,,,right,0,1.10052572528366,,,,,,,,,,,1006,2019_Mar_06_0951,mf_amp_cond2,3.0.4,60.01397384670593,
victims,&&&&&,right,care.vice,viscs,,,,,,,,,,,,,,,0,20,20,261,,,,,,,,,,,,,AMP,right,0.9504861804889515,1,,,,,,,,,,,,,,right,1,0.9504861804889515,,,,,,,,,,,1006,2019_Mar_06_0951,mf_amp_cond2,3.0.4,60.01397384670593,
integrity,&&&&&&&&,left,fairness.virtue,ugeasily,,,,,,,,,,,,,,,0,21,21,298,,,,,,,,,,,,,AMP,left,0.9838350366335362,1,,,,,,,,,,,,,,left,1,0.9838350366335362,,,,,,,,,,,1006,2019_Mar_06_0951,mf_amp_cond2,3.0.4,60.01397384670593,
powerful,&&&&&&&,left,authority.virtue,emports,,,,,,,,,,,,,,,0,22,22,141,,,,,,,,,,,,,AMP,right,2.1675345367984846,0,,,,,,,,,,,,,,right,0,2.1675345367984846,,,,,,,,,,,1006,2019_Mar_06_0951,mf_amp_cond2,3.0.4,60.01397384670593,
refused,&&&&&,right,authority.vice,infet,,,,,,,,,,,,,,,0,23,23,56,,,,,,,,,,,,,AMP,left,0.8004790283739567,0,,,,,,,,,,,,,,left,0,0.8004790283739567,,,,,,,,,,,1006,2019_Mar_06_0951,mf_amp_cond2,3.0.4,60.01397384670593,
safety,&&&&&&&&&,left,care.virtue,gaultless,,,,,,,,,,,,,,,0,24,24,136,,,,,,,,,,,,,AMP,right,1.1172182741574943,0,,,,,,,,,,,,,,right,0,1.1172182741574943,,,,,,,,,,,1006,2019_Mar_06_0951,mf_amp_cond2,3.0.4,60.01397384670593,
values,&&&&&&&&&,left,sanctity.virtue,neputized,,,,,,,,,,,,,,,0,25,25,207,,,,,,,,,,,,,AMP,right,1.10057704069186,0,,,,,,,,,,,,,,right,0,1.10057704069186,,,,,,,,,,,1006,2019_Mar_06_0951,mf_amp_cond2,3.0.4,60.01397384670593,
peaceful,&&&&&&,left,authority.virtue,squets,,,,,,,,,,,,,,,0,26,26,98,,,,,,,,,,,,,AMP,left,0.6504317863145843,1,,,,,,,,,,,,,,left,1,0.6504317863145843,,,,,,,,,,,1006,2019_Mar_06_0951,mf_amp_cond2,3.0.4,60.01397384670593,
violence,&&&&&&&&&&,right,care.vice,lorthwhile,,,,,,,,,,,,,,,0,27,27,210,,,,,,,,,,,,,AMP,right,1.6340314139379188,1,,,,,,,,,,,,,,right,1,1.6340314139379188,,,,,,,,,,,1006,2019_Mar_06_0951,mf_amp_cond2,3.0.4,60.01397384670593,
support,&&&&&&&&&&,left,loyalty.virtue,galamitous,,,,,,,,,,,,,,,0,28,28,244,,,,,,,,,,,,,AMP,right,1.9007645340170711,0,,,,,,,,,,,,,,right,0,1.9007645340170711,,,,,,,,,,,1006,2019_Mar_06_0951,mf_amp_cond2,3.0.4,60.01397384670593,
ittutable,&&&&&&&&&,None,nonword,gaultless,,,,,,,,,,,,,,,0,29,29,23,,,,,,,,,,,,,AMP,right,1.600713026127778,0,,,,,,,,,,,,,,right,0,1.600713026127778,,,,,,,,,,,1006,2019_Mar_06_0951,mf_amp_cond2,3.0.4,60.01397384670593,
improve,&&&&&,left,care.virtue,ablow,,,,,,,,,,,,,,,0,30,30,38,,,,,,,,,,,,,AMP,left,1.5840079692425206,1,,,,,,,,,,,,,,left,1,1.5840079692425206,,,,,,,,,,,1006,2019_Mar_06_0951,mf_amp_cond2,3.0.4,60.01397384670593,
safety,&&&&&&&&,left,care.virtue,divility,,,,,,,,,,,,,,,0,31,31,227,,,,,,,,,,,,,AMP,right,1.1672221549088135,0,,,,,,,,,,,,,,right,0,1.1672221549088135,,,,,,,,,,,1006,2019_Mar_06_0951,mf_amp_cond2,3.0.4,60.01397384670593,
war,&&&&&&,right,sanctity.vice,greaks,,,,,,,,,,,,,,,0,32,32,43,,,,,,,,,,,,,AMP,right,0.7171189149376005,1,,,,,,,,,,,,,,right,1,0.7171189149376005,,,,,,,,,,,1006,2019_Mar_06_0951,mf_amp_cond2,3.0.4,60.01397384670593,
restore,&&&&&,left,care.virtue,ablow,,,,,,,,,,,,,,,0,33,33,146,,,,,,,,,,,,,AMP,right,1.183949982863851,0,,,,,,,,,,,,,,right,0,1.183949982863851,,,,,,,,,,,1006,2019_Mar_06_0951,mf_amp_cond2,3.0.4,60.01397384670593,
forced,&&&&&&&&&&&&&,right,fairness.vice,photocalkodes,,,,,,,,,,,,,,,0,34,34,140,,,,,,,,,,,,,AMP,left,0.6337767617078498,0,,,,,,,,,,,,,,left,0,0.6337767617078498,,,,,,,,,,,1006,2019_Mar_06_0951,mf_amp_cond2,3.0.4,60.01397384670593,
clean,&&&&&&&&&,left,sanctity.virtue,gandbrake,,,,,,,,,,,,,,,0,35,35,116,,,,,,,,,,,,,AMP,left,1.583989046746865,1,,,,,,,,,,,,,,left,1,1.583989046746865,,,,,,,,,,,1006,2019_Mar_06_0951,mf_amp_cond2,3.0.4,60.01397384670593,
troops,&&&&&&,right,loyalty.vice,chared,,,,,,,,,,,,,,,0,36,36,293,,,,,,,,,,,,,AMP,left,1.2505777783226222,0,,,,,,,,,,,,,,left,0,1.2505777783226222,,,,,,,,,,,1006,2019_Mar_06_0951,mf_amp_cond2,3.0.4,60.01397384670593,
fighters,&&&&&,right,authority.vice,tabin,,,,,,,,,,,,,,,0,37,37,304,,,,,,,,,,,,,AMP,right,1.1839021955383942,1,,,,,,,,,,,,,,right,1,1.1839021955383942,,,,,,,,,,,1006,2019_Mar_06_0951,mf_amp_cond2,3.0.4,60.01397384670593,
ensure,&&&&&&&&&,left,fairness.virtue,taxpayung,,,,,,,,,,,,,,,0,38,38,126,,,,,,,,,,,,,AMP,right,0.7169595166342333,0,,,,,,,,,,,,,,right,0,0.7169595166342333,,,,,,,,,,,1006,2019_Mar_06_0951,mf_amp_cond2,3.0.4,60.01397384670593,
strofe,&&&&&&&&&&&&,None,nonword,quarterbocks,,,,,,,,,,,,,,,0,39,39,80,,,,,,,,,,,,,AMP,left,2.217506666202098,0,,,,,,,,,,,,,,left,0,2.217506666202098,,,,,,,,,,,1006,2019_Mar_06_0951,mf_amp_cond2,3.0.4,60.01397384670593,
fornicalion,&&&&&&&&&,None,nonword,taxpayung,,,,,,,,,,,,,,,0,40,40,17,,,,,,,,,,,,,AMP,right,0.5670716726453975,0,,,,,,,,,,,,,,right,0,0.5670716726453975,,,,,,,,,,,1006,2019_Mar_06_0951,mf_amp_cond2,3.0.4,60.01397384670593,
interests,&&&&&&&,left,fairness.virtue,chadows,,,,,,,,,,,,,,,0,41,41,248,,,,,,,,,,,,,AMP,right,2.467546595958993,0,,,,,,,,,,,,,,right,0,2.467546595958993,,,,,,,,,,,1006,2019_Mar_06_0951,mf_amp_cond2,3.0.4,60.01397384670593,
racist,&&&&,right,sanctity.vice,wump,,,,,,,,,,,,,,,0,42,42,232,,,,,,,,,,,,,AMP,left,1.3672793714795262,0,,,,,,,,,,,,,,left,0,1.3672793714795262,,,,,,,,,,,1006,2019_Mar_06_0951,mf_amp_cond2,3.0.4,60.01397384670593,
rebels,&&&&&&&&&&&&,right,authority.vice,nonobservalt,,,,,,,,,,,,,,,0,43,43,309,,,,,,,,,,,,,AMP,left,1.5173317451262847,0,,,,,,,,,,,,,,left,0,1.5173317451262847,,,,,,,,,,,1006,2019_Mar_06_0951,mf_amp_cond2,3.0.4,60.01397384670593,
powerful,&&&&&&&&&&,left,authority.virtue,gationwide,,,,,,,,,,,,,,,0,44,44,247,,,,,,,,,,,,,AMP,right,1.3006118066841736,0,,,,,,,,,,,,,,right,0,1.3006118066841736,,,,,,,,,,,1006,2019_Mar_06_0951,mf_amp_cond2,3.0.4,60.01397384670593,
charges,&&&&&&&&&,right,fairness.vice,crilfully,,,,,,,,,,,,,,,0,45,45,108,,,,,,,,,,,,,AMP,left,1.5173141054110602,0,,,,,,,,,,,,,,left,0,1.5173141054110602,,,,,,,,,,,1006,2019_Mar_06_0951,mf_amp_cond2,3.0.4,60.01397384670593,
increase,&&&&&&&&&&,left,care.virtue,gationwide,,,,,,,,,,,,,,,0,46,46,94,,,,,,,,,,,,,AMP,right,0.7171108968323097,0,,,,,,,,,,,,,,right,0,0.7171108968323097,,,,,,,,,,,1006,2019_Mar_06_0951,mf_amp_cond2,3.0.4,60.01397384670593,
interests,&&&&&&&&&&&&,left,fairness.virtue,quarterbocks,,,,,,,,,,,,,,,0,47,47,211,,,,,,,,,,,,,AMP,right,1.56735069968272,0,,,,,,,,,,,,,,right,0,1.56735069968272,,,,,,,,,,,1006,2019_Mar_06_0951,mf_amp_cond2,3.0.4,60.01397384670593,
peaceful,&&&&&,left,authority.virtue,touls,,,,,,,,,,,,,,,0,48,48,204,,,,,,,,,,,,,AMP,left,2.3675311371916905,1,,,,,,,,,,,,,,left,1,2.3675311371916905,,,,,,,,,,,1006,2019_Mar_06_0951,mf_amp_cond2,3.0.4,60.01397384670593,
injured,&&&&&&&&&&&&,right,care.vice,iptervention,,,,,,,,,,,,,,,0,49,49,42,,,,,,,,,,,,,AMP,right,0.7171311022248119,1,,,,,,,,,,,,,,right,1,0.7171311022248119,,,,,,,,,,,1006,2019_Mar_06_0951,mf_amp_cond2,3.0.4,60.01397384670593,
scandal,&&&&&&&&&&&&,right,sanctity.vice,edancipation,,,,,,,,,,,,,,,0,50,50,109,,,,,,,,,,,,,AMP,left,0.9838648636359721,0,,,,,,,,,,,,,,left,0,0.9838648636359721,,,,,,,,,,,1006,2019_Mar_06_0951,mf_amp_cond2,3.0.4,60.01397384670593,
supervuned,&&&&&&&&,None,nonword,sfumatoy,,,,,,,,,,,,,,,0,51,51,278,,,,,,,,,,,,,AMP,right,0.7504498107591644,0,,,,,,,,,,,,,,right,0,0.7504498107591644,,,,,,,,,,,1006,2019_Mar_06_0951,mf_amp_cond2,3.0.4,60.01397384670593,
illegal,&&&&&&&&&&,right,fairness.vice,focomotive,,,,,,,,,,,,,,,0,52,52,48,,,,,,,,,,,,,AMP,left,0.9505628327606246,0,,,,,,,,,,,,,,left,0,0.9505628327606246,,,,,,,,,,,1006,2019_Mar_06_0951,mf_amp_cond2,3.0.4,60.01397384670593,
ittutable,&&&&&&,None,nonword,squets,,,,,,,,,,,,,,,0,53,53,263,,,,,,,,,,,,,AMP,left,1.1005757577950135,0,,,,,,,,,,,,,,left,0,1.1005757577950135,,,,,,,,,,,1006,2019_Mar_06_0951,mf_amp_cond2,3.0.4,60.01397384670593,
drumbled,&&&&&&&&&&,None,nonword,ecgagement,,,,,,,,,,,,,,,0,54,54,209,,,,,,,,,,,,,AMP,right,0.617092230822891,0,,,,,,,,,,,,,,right,0,0.617092230822891,,,,,,,,,,,1006,2019_Mar_06_0951,mf_amp_cond2,3.0.4,60.01397384670593,
refused,&&&&&&,right,authority.vice,Cunday,,,,,,,,,,,,,,,0,55,55,107,,,,,,,,,,,,,AMP,left,1.3506047829287127,0,,,,,,,,,,,,,,left,0,1.3506047829287127,,,,,,,,,,,1006,2019_Mar_06_0951,mf_amp_cond2,3.0.4,60.01397384670593,
safety,&&&&&&&&&&&&&,left,care.virtue,photocalkodes,,,,,,,,,,,,,,,0,56,56,311,,,,,,,,,,,,,AMP,left,0.8338362233480439,1,,,,,,,,,,,,,,left,1,0.8338362233480439,,,,,,,,,,,1006,2019_Mar_06_0951,mf_amp_cond2,3.0.4,60.01397384670593,
victims,&&&&&&&&&,right,care.vice,seachwear,,,,,,,,,,,,,,,0,57,57,225,,,,,,,,,,,,,AMP,right,0.7004526650998741,1,,,,,,,,,,,,,,right,1,0.7004526650998741,,,,,,,,,,,1006,2019_Mar_06_0951,mf_amp_cond2,3.0.4,60.01397384670593,
blamed,&&&&,right,loyalty.vice,ning,,,,,,,,,,,,,,,0,58,58,120,,,,,,,,,,,,,AMP,left,0.7671247199177742,0,,,,,,,,,,,,,,left,0,0.7671247199177742,,,,,,,,,,,1006,2019_Mar_06_0951,mf_amp_cond2,3.0.4,60.01397384670593,
slavery,&&&&&&&&&&,right,loyalty.vice,frocessing,,,,,,,,,,,,,,,0,59,59,245,,,,,,,,,,,,,AMP,left,0.500426558428444,0,,,,,,,,,,,,,,left,0,0.500426558428444,,,,,,,,,,,1006,2019_Mar_06_0951,mf_amp_cond2,3.0.4,60.01397384670593,
prosecution,&&&&&&&&&&&,right,authority.vice,mightingale,,,,,,,,,,,,,,,0,60,60,307,,,,,,,,,,,,,AMP,left,1.0503695022780448,0,,,,,,,,,,,,,,left,0,1.0503695022780448,,,,,,,,,,,1006,2019_Mar_06_0951,mf_amp_cond2,3.0.4,60.01397384670593,
care,&&&&&&&&&&,left,care.virtue,frojecting,,,,,,,,,,,,,,,0,61,61,249,,,,,,,,,,,,,AMP,right,0.41700037650298327,0,,,,,,,,,,,,,,right,0,0.41700037650298327,,,,,,,,,,,1006,2019_Mar_06_0951,mf_amp_cond2,3.0.4,60.01397384670593,
prosecution,&&&&&&&,right,authority.vice,halaise,,,,,,,,,,,,,,,0,62,62,18,,,,,,,,,,,,,AMP,right,0.5837180378148332,1,,,,,,,,,,,,,,right,1,0.5837180378148332,,,,,,,,,,,1006,2019_Mar_06_0951,mf_amp_cond2,3.0.4,60.01397384670593,
injured,&&&&&&&&&,right,care.vice,tomedians,,,,,,,,,,,,,,,0,63,63,149,,,,,,,,,,,,,AMP,left,0.6671243350720033,0,,,,,,,,,,,,,,left,0,0.6671243350720033,,,,,,,,,,,1006,2019_Mar_06_0951,mf_amp_cond2,3.0.4,60.01397384670593,
hand,&&&&&,left,sanctity.virtue,lenon,,,,,,,,,,,,,,,0,64,64,181,,,,,,,,,,,,,AMP,right,0.4170334107475355,0,,,,,,,,,,,,,,right,0,0.4170334107475355,,,,,,,,,,,1006,2019_Mar_06_0951,mf_amp_cond2,3.0.4,60.01397384670593,
fornicalion,&&&&&,None,nonword,saned,,,,,,,,,,,,,,,0,65,65,150,,,,,,,,,,,,,AMP,left,0.7171096140518785,0,,,,,,,,,,,,,,left,0,0.7171096140518785,,,,,,,,,,,1006,2019_Mar_06_0951,mf_amp_cond2,3.0.4,60.01397384670593,
fear,&&&&&&&&,right,sanctity.vice,slending,,,,,,,,,,,,,,,0,66,66,170,,,,,,,,,,,,,AMP,right,0.7336260871961713,1,,,,,,,,,,,,,,right,1,0.7336260871961713,,,,,,,,,,,1006,2019_Mar_06_0951,mf_amp_cond2,3.0.4,60.01397384670593,
peaceful,&&&&&&&&&&&&&,left,authority.virtue,photocalkodes,,,,,,,,,,,,,,,0,67,67,3,,,,,,,,,,,,,AMP,left,0.8171462402679026,1,,,,,,,,,,,,,,left,1,0.8171462402679026,,,,,,,,,,,1006,2019_Mar_06_0951,mf_amp_cond2,3.0.4,60.01397384670593,
powerful,&&&&&,left,authority.virtue,ablow,,,,,,,,,,,,,,,0,68,68,220,,,,,,,,,,,,,AMP,right,0.6170835715020075,0,,,,,,,,,,,,,,right,0,0.6170835715020075,,,,,,,,,,,1006,2019_Mar_06_0951,mf_amp_cond2,3.0.4,60.01397384670593,
honored,&&&&&&&&&,left,authority.virtue,Phintoism,,,,,,,,,,,,,,,0,69,69,287,,,,,,,,,,,,,AMP,right,0.38369289319962263,0,,,,,,,,,,,,,,right,0,0.38369289319962263,,,,,,,,,,,1006,2019_Mar_06_0951,mf_amp_cond2,3.0.4,60.01397384670593,
forced,&&&&&&&&&&,right,fairness.vice,gationwide,,,,,,,,,,,,,,,0,70,70,39,,,,,,,,,,,,,AMP,left,0.7838118164800107,0,,,,,,,,,,,,,,left,0,0.7838118164800107,,,,,,,,,,,1006,2019_Mar_06_0951,mf_amp_cond2,3.0.4,60.01397384670593,
riot,&&&&&&&,right,authority.vice,lursuer,,,,,,,,,,,,,,,0,71,71,157,,,,,,,,,,,,,AMP,right,0.46704627166036516,1,,,,,,,,,,,,,,right,1,0.46704627166036516,,,,,,,,,,,1006,2019_Mar_06_0951,mf_amp_cond2,3.0.4,60.01397384670593,
suggists,&&&&&&&&&&&&,None,nonword,nonobservalt,,,,,,,,,,,,,,,0,72,72,153,,,,,,,,,,,,,AMP,right,0.5837808989454061,0,,,,,,,,,,,,,,right,0,0.5837808989454061,,,,,,,,,,,1006,2019_Mar_06_0951,mf_amp_cond2,3.0.4,60.01397384670593,
gun,&&&&&&&&&&,right,authority.vice,galamitous,,,,,,,,,,,,,,,0,73,73,274,,,,,,,,,,,,,AMP,right,0.7171410445589572,1,,,,,,,,,,,,,,right,1,0.7171410445589572,,,,,,,,,,,1006,2019_Mar_06_0951,mf_amp_cond2,3.0.4,60.01397384670593,
crime,&&&&&&&&&&&&,right,fairness.vice,unreflectuve,,,,,,,,,,,,,,,0,74,74,16,,,,,,,,,,,,,AMP,right,0.4503646274097264,1,,,,,,,,,,,,,,right,1,0.4503646274097264,,,,,,,,,,,1006,2019_Mar_06_0951,mf_amp_cond2,3.0.4,60.01397384670593,
riot,&&&&&&&,right,authority.vice,nackers,,,,,,,,,,,,,,,0,75,75,302,,,,,,,,,,,,,AMP,right,1.2672571775037795,1,,,,,,,,,,,,,,right,1,1.2672571775037795,,,,,,,,,,,1006,2019_Mar_06_0951,mf_amp_cond2,3.0.4,60.01397384670593,
refused,&&&&&&&&&&&,right,authority.vice,presentkess,,,,,,,,,,,,,,,0,76,76,185,,,,,,,,,,,,,AMP,right,0.8838356139604002,1,,,,,,,,,,,,,,right,1,0.8838356139604002,,,,,,,,,,,1006,2019_Mar_06_0951,mf_amp_cond2,3.0.4,60.01397384670593,
betrayal,&&&&&&&&&&,right,loyalty.vice,simplustic,,,,,,,,,,,,,,,0,77,77,152,,,,,,,,,,,,,AMP,right,1.4006250204984099,1,,,,,,,,,,,,,,right,1,1.4006250204984099,,,,,,,,,,,1006,2019_Mar_06_0951,mf_amp_cond2,3.0.4,60.01397384670593,
actively,&&&&&&&&&,left,authority.virtue,disregord,,,,,,,,,,,,,,,0,78,78,4,,,,,,,,,,,,,AMP,left,0.5504009329015389,1,,,,,,,,,,,,,,left,1,0.5504009329015389,,,,,,,,,,,1006,2019_Mar_06_0951,mf_amp_cond2,3.0.4,60.01397384670593,
pleasant,&&&&&&&&&&,None,control,clattening,,,,,,,,,,,,,,,0,79,79,219,,,,,,,,,,,,,AMP,right,0.5837250936310738,0,,,,,,,,,,,,,,right,0,0.5837250936310738,,,,,,,,,,,1006,2019_Mar_06_0951,mf_amp_cond2,3.0.4,60.01397384670593,
ensure,&&&&&&&&&&,left,fairness.virtue,lorthwhile,,,,,,,,,,,,,,,0,80,80,40,,,,,,,,,,,,,AMP,right,0.4170343729201704,0,,,,,,,,,,,,,,right,0,0.4170343729201704,,,,,,,,,,,1006,2019_Mar_06_0951,mf_amp_cond2,3.0.4,60.01397384670593,
progress,&&&&&,left,authority.virtue,lenon,,,,,,,,,,,,,,,0,81,81,246,,,,,,,,,,,,,AMP,left,0.36702632275409997,1,,,,,,,,,,,,,,left,1,0.36702632275409997,,,,,,,,,,,1006,2019_Mar_06_0951,mf_amp_cond2,3.0.4,60.01397384670593,
progress,&&&&&&&&,left,authority.virtue,sidearbs,,,,,,,,,,,,,,,0,82,82,155,,,,,,,,,,,,,AMP,right,0.5503752751974389,0,,,,,,,,,,,,,,right,0,0.5503752751974389,,,,,,,,,,,1006,2019_Mar_06_0951,mf_amp_cond2,3.0.4,60.01397384670593,
commitment,&&&&&&&&&&,left,sanctity.virtue,reelectiob,,,,,,,,,,,,,,,0,83,83,205,,,,,,,,,,,,,AMP,left,0.7171314229490235,1,,,,,,,,,,,,,,left,1,0.7171314229490235,,,,,,,,,,,1006,2019_Mar_06_0951,mf_amp_cond2,3.0.4,60.01397384670593,
great,&&&&&&&&&,left,loyalty.virtue,Phintoism,,,,,,,,,,,,,,,0,84,84,58,,,,,,,,,,,,,AMP,right,0.4336961326189339,0,,,,,,,,,,,,,,right,0,0.4336961326189339,,,,,,,,,,,1006,2019_Mar_06_0951,mf_amp_cond2,3.0.4,60.01397384670593,
care,&&&&&&&,left,care.virtue,chadows,,,,,,,,,,,,,,,0,85,85,129,,,,,,,,,,,,,AMP,right,0.46705076179932803,0,,,,,,,,,,,,,,right,0,0.46705076179932803,,,,,,,,,,,1006,2019_Mar_06_0951,mf_amp_cond2,3.0.4,60.01397384670593,
illegal,&&&&&&&&&,right,fairness.vice,disregord,,,,,,,,,,,,,,,0,86,86,288,,,,,,,,,,,,,AMP,left,0.6170765155693516,0,,,,,,,,,,,,,,left,0,0.6170765155693516,,,,,,,,,,,1006,2019_Mar_06_0951,mf_amp_cond2,3.0.4,60.01397384670593,
faith,&&&&,left,sanctity.virtue,coom,,,,,,,,,,,,,,,0,87,87,96,,,,,,,,,,,,,AMP,right,1.3172546438872814,0,,,,,,,,,,,,,,right,0,1.3172546438872814,,,,,,,,,,,1006,2019_Mar_06_0951,mf_amp_cond2,3.0.4,60.01397384670593,
died,&&&&&&&&&&&,right,care.vice,neneficence,,,,,,,,,,,,,,,0,88,88,254,,,,,,,,,,,,,AMP,left,0.5837677494855598,0,,,,,,,,,,,,,,left,0,0.5837677494855598,,,,,,,,,,,1006,2019_Mar_06_0951,mf_amp_cond2,3.0.4,60.01397384670593,
faith,&&&&&&&&&&&&,left,sanctity.virtue,unreflectuve,,,,,,,,,,,,,,,0,89,89,320,,,,,,,,,,,,,AMP,right,0.550432363525033,0,,,,,,,,,,,,,,right,0,0.550432363525033,,,,,,,,,,,1006,2019_Mar_06_0951,mf_amp_cond2,3.0.4,60.01397384670593,
ittutable,&&&&&,None,nonword,infet,,,,,,,,,,,,,,,0,90,90,166,,,,,,,,,,,,,AMP,left,0.6504644997185096,0,,,,,,,,,,,,,,left,0,0.6504644997185096,,,,,,,,,,,1006,2019_Mar_06_0951,mf_amp_cond2,3.0.4,60.01397384670593,
abuse,&&&&&&&&&,right,sanctity.vice,disregord,,,,,,,,,,,,,,,0,91,91,184,,,,,,,,,,,,,AMP,left,0.5337317966623232,0,,,,,,,,,,,,,,left,0,0.5337317966623232,,,,,,,,,,,1006,2019_Mar_06_0951,mf_amp_cond2,3.0.4,60.01397384670593,
scandal,&&&&&&&,right,sanctity.vice,baklara,,,,,,,,,,,,,,,0,92,92,251,,,,,,,,,,,,,AMP,left,0.41703084495384246,0,,,,,,,,,,,,,,left,0,0.41703084495384246,,,,,,,,,,,1006,2019_Mar_06_0951,mf_amp_cond2,3.0.4,60.01397384670593,
credit,&&&&&&&&&&&&,left,fairness.virtue,gusinesslike,,,,,,,,,,,,,,,0,93,93,310,,,,,,,,,,,,,AMP,left,1.2172481652814895,1,,,,,,,,,,,,,,left,1,1.2172481652814895,,,,,,,,,,,1006,2019_Mar_06_0951,mf_amp_cond2,3.0.4,60.01397384670593,
restore,&&&&&&&&&&,left,care.virtue,focomotive,,,,,,,,,,,,,,,0,94,94,179,,,,,,,,,,,,,AMP,right,1.317271962761879,0,,,,,,,,,,,,,,right,0,1.317271962761879,,,,,,,,,,,1006,2019_Mar_06_0951,mf_amp_cond2,3.0.4,60.01397384670593,
critics,&&&&&&,right,loyalty.vice,papert,,,,,,,,,,,,,,,0,95,95,180,,,,,,,,,,,,,AMP,left,0.5003992972197011,0,,,,,,,,,,,,,,left,0,0.5003992972197011,,,,,,,,,,,1006,2019_Mar_06_0951,mf_amp_cond2,3.0.4,60.01397384670593,
honored,&&&&&&&&&&&,left,authority.virtue,vicissifude,,,,,,,,,,,,,,,0,96,96,124,,,,,,,,,,,,,AMP,left,0.5837693531066179,1,,,,,,,,,,,,,,left,1,0.5837693531066179,,,,,,,,,,,1006,2019_Mar_06_0951,mf_amp_cond2,3.0.4,60.01397384670593,
freedom,&&&&&&,left,sanctity.virtue,gikely,,,,,,,,,,,,,,,0,97,97,137,,,,,,,,,,,,,AMP,right,0.8004803112708032,0,,,,,,,,,,,,,,right,0,0.8004803112708032,,,,,,,,,,,1006,2019_Mar_06_0951,mf_amp_cond2,3.0.4,60.01397384670593,
crime,&&&&&&&&&&,right,fairness.vice,honstables,,,,,,,,,,,,,,,0,98,98,313,,,,,,,,,,,,,AMP,right,0.7338384041795507,1,,,,,,,,,,,,,,right,1,0.7338384041795507,,,,,,,,,,,1006,2019_Mar_06_0951,mf_amp_cond2,3.0.4,60.01397384670593,
hope,&&&&,left,loyalty.virtue,ning,,,,,,,,,,,,,,,0,99,99,230,,,,,,,,,,,,,AMP,right,0.7004340634448454,0,,,,,,,,,,,,,,right,0,0.7004340634448454,,,,,,,,,,,1006,2019_Mar_06_0951,mf_amp_cond2,3.0.4,60.01397384670593,
torture,&&&&&&&&&&,right,care.vice,reelectiob,,,,,,,,,,,,,,,0,100,100,53,,,,,,,,,,,,,AMP,left,1.117240724619478,0,,,,,,,,,,,,,,left,0,1.117240724619478,,,,,,,,,,,1006,2019_Mar_06_0951,mf_amp_cond2,3.0.4,60.01397384670593,
civilians,&&&&&&,right,care.vice,forepo,,,,,,,,,,,,,,,0,101,101,143,,,,,,,,,,,,,AMP,left,0.5504095923388377,0,,,,,,,,,,,,,,left,0,0.5504095923388377,,,,,,,,,,,1006,2019_Mar_06_0951,mf_amp_cond2,3.0.4,60.01397384670593,
strong,&&&&&&&&&&&&,left,loyalty.virtue,edancipation,,,,,,,,,,,,,,,0,102,102,265,,,,,,,,,,,,,AMP,right,1.4006381699582562,0,,,,,,,,,,,,,,right,0,1.4006381699582562,,,,,,,,,,,1006,2019_Mar_06_0951,mf_amp_cond2,3.0.4,60.01397384670593,
accused,&&&&&&&&&&&,right,fairness.vice,neneficence,,,,,,,,,,,,,,,0,103,103,189,,,,,,,,,,,,,AMP,right,3.5012004575692117,1,,,,,,,,,,,,,,right,1,3.5012004575692117,,,,,,,,,,,1006,2019_Mar_06_0951,mf_amp_cond2,3.0.4,60.01397384670593,
agreement,&&&&&&&,left,fairness.virtue,nackers,,,,,,,,,,,,,,,0,104,104,88,,,,,,,,,,,,,AMP,right,0.20029583270661533,0,,,,,,,,,,,,,,right,0,0.20029583270661533,,,,,,,,,,,1006,2019_Mar_06_0951,mf_amp_cond2,3.0.4,60.01397384670593,
crime,&&&&&&&&&&&&,right,fairness.vice,iptervention,,,,,,,,,,,,,,,0,105,105,198,,,,,,,,,,,,,AMP,left,0.6504173538414761,0,,,,,,,,,,,,,,left,0,0.6504173538414761,,,,,,,,,,,1006,2019_Mar_06_0951,mf_amp_cond2,3.0.4,60.01397384670593,
health,&&&&&,left,care.virtue,framo,,,,,,,,,,,,,,,0,106,106,183,,,,,,,,,,,,,AMP,right,0.21697651490103453,0,,,,,,,,,,,,,,right,0,0.21697651490103453,,,,,,,,,,,1006,2019_Mar_06_0951,mf_amp_cond2,3.0.4,60.01397384670593,
fegard,&&&&&&&&&&,None,nonword,neutralust,,,,,,,,,,,,,,,0,107,107,103,,,,,,,,,,,,,AMP,right,0.7004577966872603,0,,,,,,,,,,,,,,right,0,0.7004577966872603,,,,,,,,,,,1006,2019_Mar_06_0951,mf_amp_cond2,3.0.4,60.01397384670593,
love,&&&&&&&&,left,loyalty.virtue,sfumatoy,,,,,,,,,,,,,,,0,108,108,61,,,,,,,,,,,,,AMP,left,0.8671629497548565,1,,,,,,,,,,,,,,left,1,0.8671629497548565,,,,,,,,,,,1006,2019_Mar_06_0951,mf_amp_cond2,3.0.4,60.01397384670593,
great,&&&&&&&,left,loyalty.virtue,halaise,,,,,,,,,,,,,,,0,109,109,171,,,,,,,,,,,,,AMP,right,0.18362926237750798,0,,,,,,,,,,,,,,right,0,0.18362926237750798,,,,,,,,,,,1006,2019_Mar_06_0951,mf_amp_cond2,3.0.4,60.01397384670593,
prison,&&&&&&&&&&&&&,right,fairness.vice,photocalkodes,,,,,,,,,,,,,,,0,110,110,193,,,,,,,,,,,,,AMP,left,0.5837828234070912,0,,,,,,,,,,,,,,left,0,0.5837828234070912,,,,,,,,,,,1006,2019_Mar_06_0951,mf_amp_cond2,3.0.4,60.01397384670593,
care,&&&&&&,left,care.virtue,Cunday,,,,,,,,,,,,,,,0,111,111,36,,,,,,,,,,,,,AMP,left,0.7504491691943258,1,,,,,,,,,,,,,,left,1,0.7504491691943258,,,,,,,,,,,1006,2019_Mar_06_0951,mf_amp_cond2,3.0.4,60.01397384670593,
strong,&&&&&&&&&&,left,loyalty.virtue,gationwide,,,,,,,,,,,,,,,0,112,112,201,,,,,,,,,,,,,AMP,right,1.0005984647432342,0,,,,,,,,,,,,,,right,0,1.0005984647432342,,,,,,,,,,,1006,2019_Mar_06_0951,mf_amp_cond2,3.0.4,60.01397384670593,
fegard,&&&&&&&&,None,nonword,thabbily,,,,,,,,,,,,,,,0,113,113,316,,,,,,,,,,,,,AMP,right,1.0671730204485357,0,,,,,,,,,,,,,,right,0,1.0671730204485357,,,,,,,,,,,1006,2019_Mar_06_0951,mf_amp_cond2,3.0.4,60.01397384670593,
fornicalion,&&&,None,nonword,asn,,,,,,,,,,,,,,,0,114,114,212,,,,,,,,,,,,,AMP,right,1.3172748492797837,0,,,,,,,,,,,,,,right,0,1.3172748492797837,,,,,,,,,,,1006,2019_Mar_06_0951,mf_amp_cond2,3.0.4,60.01397384670593,
terrorist,&&&&&&,right,loyalty.vice,chared,,,,,,,,,,,,,,,0,115,115,160,,,,,,,,,,,,,AMP,left,0.3336790702305734,0,,,,,,,,,,,,,,left,0,0.3336790702305734,,,,,,,,,,,1006,2019_Mar_06_0951,mf_amp_cond2,3.0.4,60.01397384670593,
suggists,&&&&&&&&,None,nonword,glacenta,,,,,,,,,,,,,,,0,116,116,324,,,,,,,,,,,,,AMP,left,0.5837388846557587,0,,,,,,,,,,,,,,left,0,0.5837388846557587,,,,,,,,,,,1006,2019_Mar_06_0951,mf_amp_cond2,3.0.4,60.01397384670593,
supervuned,&&&&&&&&&&&&&,None,nonword,esquisiteness,,,,,,,,,,,,,,,0,117,117,131,,,,,,,,,,,,,AMP,left,0.4670613455818966,0,,,,,,,,,,,,,,left,0,0.4670613455818966,,,,,,,,,,,1006,2019_Mar_06_0951,mf_amp_cond2,3.0.4,60.01397384670593,
forced,&&&&&&&&&&,right,fairness.vice,frojecting,,,,,,,,,,,,,,,0,118,118,224,,,,,,,,,,,,,AMP,right,0.7171307816170156,1,,,,,,,,,,,,,,right,1,0.7171307816170156,,,,,,,,,,,1006,2019_Mar_06_0951,mf_amp_cond2,3.0.4,60.01397384670593,
slavery,&&&&&&&&&&,right,loyalty.vice,reelectiob,,,,,,,,,,,,,,,0,119,119,125,,,,,,,,,,,,,AMP,left,0.6504847051110119,0,,,,,,,,,,,,,,left,0,0.6504847051110119,,,,,,,,,,,1006,2019_Mar_06_0951,mf_amp_cond2,3.0.4,60.01397384670593,
unpleasant,&&&&&&&,None,control,festate,,,,,,,,,,,,,,,0,120,120,258,,,,,,,,,,,,,AMP,left,1.467144412221387,0,,,,,,,,,,,,,,left,0,1.467144412221387,,,,,,,,,,,1006,2019_Mar_06_0951,mf_amp_cond2,3.0.4,60.01397384670593,
agreement,&&&&&&&&&&&,left,fairness.virtue,lempestuous,,,,,,,,,,,,,,,0,121,121,196,,,,,,,,,,,,,AMP,left,0.4170587477274239,1,,,,,,,,,,,,,,left,1,0.4170587477274239,,,,,,,,,,,1006,2019_Mar_06_0951,mf_amp_cond2,3.0.4,60.01397384670593,
encourage,&&&&&&&&,left,authority.virtue,emassion,,,,,,,,,,,,,,,0,122,122,111,,,,,,,,,,,,,AMP,left,0.91716073686257,1,,,,,,,,,,,,,,left,1,0.91716073686257,,,,,,,,,,,1006,2019_Mar_06_0951,mf_amp_cond2,3.0.4,60.01397384670593,
encourage,&&&&&&&&&&&&&,left,authority.virtue,esquisiteness,,,,,,,,,,,,,,,0,123,123,59,,,,,,,,,,,,,AMP,right,0.7171266122022644,0,,,,,,,,,,,,,,right,0,0.7171266122022644,,,,,,,,,,,1006,2019_Mar_06_0951,mf_amp_cond2,3.0.4,60.01397384670593,
penalty,&&&&&&&&,right,authority.vice,framatic,,,,,,,,,,,,,,,0,124,124,275,,,,,,,,,,,,,AMP,left,0.5504051021998748,0,,,,,,,,,,,,,,left,0,0.5504051021998748,,,,,,,,,,,1006,2019_Mar_06_0951,mf_amp_cond2,3.0.4,60.01397384670593,
encourage,&&&&&&&&&&,left,authority.virtue,clattening,,,,,,,,,,,,,,,0,125,125,284,,,,,,,,,,,,,AMP,left,0.9171536809299141,1,,,,,,,,,,,,,,left,1,0.9171536809299141,,,,,,,,,,,1006,2019_Mar_06_0951,mf_amp_cond2,3.0.4,60.01397384670593,
serial,&&&&&&&&&&&&,right,sanctity.vice,edancipation,,,,,,,,,,,,,,,0,126,126,35,,,,,,,,,,,,,AMP,right,0.5836045026080683,1,,,,,,,,,,,,,,right,1,0.5836045026080683,,,,,,,,,,,1006,2019_Mar_06_0951,mf_amp_cond2,3.0.4,60.01397384670593,
charges,&&&&&&&&&&&,right,fairness.vice,blunderints,,,,,,,,,,,,,,,0,127,127,208,,,,,,,,,,,,,AMP,left,0.8171513717388734,0,,,,,,,,,,,,,,left,0,0.8171513717388734,,,,,,,,,,,1006,2019_Mar_06_0951,mf_amp_cond2,3.0.4,60.01397384670593,
unpleasant,&&&&&&&,None,control,emports,,,,,,,,,,,,,,,0,128,128,218,,,,,,,,,,,,,AMP,left,0.6670890557579696,0,,,,,,,,,,,,,,left,0,0.6670890557579696,,,,,,,,,,,1006,2019_Mar_06_0951,mf_amp_cond2,3.0.4,60.01397384670593,
benefit,&&&&&&&&,left,fairness.virtue,glacenta,,,,,,,,,,,,,,,0,129,129,29,,,,,,,,,,,,,AMP,right,0.4003594636451453,0,,,,,,,,,,,,,,right,0,0.4003594636451453,,,,,,,,,,,1006,2019_Mar_06_0951,mf_amp_cond2,3.0.4,60.01397384670593,
actively,&&&&&&&&&&,left,authority.virtue,frocessing,,,,,,,,,,,,,,,0,130,130,299,,,,,,,,,,,,,AMP,right,0.8504902856657282,0,,,,,,,,,,,,,,right,0,0.8504902856657282,,,,,,,,,,,1006,2019_Mar_06_0951,mf_amp_cond2,3.0.4,60.01397384670593,
useful,&&&&&&,left,authority.virtue,tislay,,,,,,,,,,,,,,,0,131,131,128,,,,,,,,,,,,,AMP,right,0.4003812726587057,0,,,,,,,,,,,,,,right,0,0.4003812726587057,,,,,,,,,,,1006,2019_Mar_06_0951,mf_amp_cond2,3.0.4,60.01397384670593,
troops,&&&&&&,right,loyalty.vice,chared,,,,,,,,,,,,,,,0,132,132,52,,,,,,,,,,,,,AMP,left,0.7002858904888853,0,,,,,,,,,,,,,,left,0,0.7002858904888853,,,,,,,,,,,1006,2019_Mar_06_0951,mf_amp_cond2,3.0.4,60.01397384670593,
progress,&&&&&&&&,left,authority.virtue,sidearbs,,,,,,,,,,,,,,,0,133,133,186,,,,,,,,,,,,,AMP,right,0.8669958543032408,0,,,,,,,,,,,,,,right,0,0.8669958543032408,,,,,,,,,,,1006,2019_Mar_06_0951,mf_amp_cond2,3.0.4,60.01397384670593,
betrayal,&&&&&&&,right,loyalty.vice,lursuer,,,,,,,,,,,,,,,0,134,134,0,,,,,,,,,,,,,AMP,left,0.417057785554789,0,,,,,,,,,,,,,,left,0,0.417057785554789,,,,,,,,,,,1006,2019_Mar_06_0951,mf_amp_cond2,3.0.4,60.01397384670593,
riot,&&&&&&&&&&,right,authority.vice,honstables,,,,,,,,,,,,,,,0,135,135,31,,,,,,,,,,,,,AMP,right,0.45038611569907516,1,,,,,,,,,,,,,,right,1,0.45038611569907516,,,,,,,,,,,1006,2019_Mar_06_0951,mf_amp_cond2,3.0.4,60.01397384670593,
care,&&&&&&&,left,care.virtue,festate,,,,,,,,,,,,,,,0,136,136,172,,,,,,,,,,,,,AMP,left,1.66734787740279,1,,,,,,,,,,,,,,left,1,1.66734787740279,,,,,,,,,,,1006,2019_Mar_06_0951,mf_amp_cond2,3.0.4,60.01397384670593,
drumbled,&&&&&&&&,None,nonword,thabbily,,,,,,,,,,,,,,,0,137,137,84,,,,,,,,,,,,,AMP,left,0.8671411407412961,0,,,,,,,,,,,,,,left,0,0.8671411407412961,,,,,,,,,,,1006,2019_Mar_06_0951,mf_amp_cond2,3.0.4,60.01397384670593,
died,&&&&&&&&&,right,care.vice,tomedians,,,,,,,,,,,,,,,0,138,138,50,,,,,,,,,,,,,AMP,left,0.7337662420468405,0,,,,,,,,,,,,,,left,0,0.7337662420468405,,,,,,,,,,,1006,2019_Mar_06_0951,mf_amp_cond2,3.0.4,60.01397384670593,
prosecution,&&&&&&&&&,right,authority.vice,crilfully,,,,,,,,,,,,,,,0,139,139,192,,,,,,,,,,,,,AMP,right,0.6337571977637708,1,,,,,,,,,,,,,,right,1,0.6337571977637708,,,,,,,,,,,1006,2019_Mar_06_0951,mf_amp_cond2,3.0.4,60.01397384670593,
integrity,&&&&&&&&&&,left,fairness.virtue,neutralust,,,,,,,,,,,,,,,0,140,140,49,,,,,,,,,,,,,AMP,left,0.5837420918978751,1,,,,,,,,,,,,,,left,1,0.5837420918978751,,,,,,,,,,,1006,2019_Mar_06_0951,mf_amp_cond2,3.0.4,60.01397384670593,
great,&&&&,left,loyalty.virtue,alar,,,,,,,,,,,,,,,0,141,141,110,,,,,,,,,,,,,AMP,right,0.5003919206792489,0,,,,,,,,,,,,,,right,0,0.5003919206792489,,,,,,,,,,,1006,2019_Mar_06_0951,mf_amp_cond2,3.0.4,60.01397384670593,
forced,&&&&&&,right,fairness.vice,papert,,,,,,,,,,,,,,,0,142,142,327,,,,,,,,,,,,,AMP,right,0.4503797012148425,1,,,,,,,,,,,,,,right,1,0.4503797012148425,,,,,,,,,,,1006,2019_Mar_06_0951,mf_amp_cond2,3.0.4,60.01397384670593,
civilians,&&&&&,right,care.vice,ablow,,,,,,,,,,,,,,,0,143,143,272,,,,,,,,,,,,,AMP,right,0.7337630348047242,1,,,,,,,,,,,,,,right,1,0.7337630348047242,,,,,,,,,,,1006,2019_Mar_06_0951,mf_amp_cond2,3.0.4,60.01397384670593,
ensure,&&&&&&,left,fairness.virtue,forepo,,,,,,,,,,,,,,,0,144,144,188,,,,,,,,,,,,,AMP,left,0.6504292205208912,1,,,,,,,,,,,,,,left,1,0.6504292205208912,,,,,,,,,,,1006,2019_Mar_06_0951,mf_amp_cond2,3.0.4,60.01397384670593,
strong,&&&&&&&&&&&,left,loyalty.virtue,blunderints,,,,,,,,,,,,,,,0,145,145,19,,,,,,,,,,,,,AMP,right,0.43369773612357676,0,,,,,,,,,,,,,,right,0,0.43369773612357676,,,,,,,,,,,1006,2019_Mar_06_0951,mf_amp_cond2,3.0.4,60.01397384670593,
civilians,&&&&&&,right,care.vice,forepo,,,,,,,,,,,,,,,0,146,146,78,,,,,,,,,,,,,AMP,left,0.7837909696390852,0,,,,,,,,,,,,,,left,0,0.7837909696390852,,,,,,,,,,,1006,2019_Mar_06_0951,mf_amp_cond2,3.0.4,60.01397384670593,
illegal,&&&&&&&&&&,right,fairness.vice,honstables,,,,,,,,,,,,,,,0,147,147,240,,,,,,,,,,,,,AMP,left,1.333941740449518,0,,,,,,,,,,,,,,left,0,1.333941740449518,,,,,,,,,,,1006,2019_Mar_06_0951,mf_amp_cond2,3.0.4,60.01397384670593,
hope,&&&&&&&&&,left,loyalty.virtue,disregord,,,,,,,,,,,,,,,0,148,148,114,,,,,,,,,,,,,AMP,left,0.9004935249686241,1,,,,,,,,,,,,,,left,1,0.9004935249686241,,,,,,,,,,,1006,2019_Mar_06_0951,mf_amp_cond2,3.0.4,60.01397384670593,
abuse,&&&&&&&&&&,right,sanctity.vice,ecgagement,,,,,,,,,,,,,,,0,149,149,156,,,,,,,,,,,,,AMP,left,0.7837957805022597,0,,,,,,,,,,,,,,left,0,0.7837957805022597,,,,,,,,,,,1006,2019_Mar_06_0951,mf_amp_cond2,3.0.4,60.01397384670593,
hand,&&&&&&&&&,left,sanctity.virtue,crilfully,,,,,,,,,,,,,,,0,150,150,291,,,,,,,,,,,,,AMP,right,0.9338298731017858,0,,,,,,,,,,,,,,right,0,0.9338298731017858,,,,,,,,,,,1006,2019_Mar_06_0951,mf_amp_cond2,3.0.4,60.01397384670593,
fegard,&&&&&&&&,None,nonword,emassion,,,,,,,,,,,,,,,0,151,151,197,,,,,,,,,,,,,AMP,left,0.4670366500504315,0,,,,,,,,,,,,,,left,0,0.4670366500504315,,,,,,,,,,,1006,2019_Mar_06_0951,mf_amp_cond2,3.0.4,60.01397384670593,
terrorist,&&&&&&,right,loyalty.vice,forepo,,,,,,,,,,,,,,,0,152,152,267,,,,,,,,,,,,,AMP,right,0.1834361884975806,1,,,,,,,,,,,,,,right,1,0.1834361884975806,,,,,,,,,,,1006,2019_Mar_06_0951,mf_amp_cond2,3.0.4,60.01397384670593,
values,&&&&&&&&&&&,left,sanctity.virtue,ronviolence,,,,,,,,,,,,,,,0,153,153,158,,,,,,,,,,,,,AMP,left,0.05025757080875337,1,,,,,,,,,,,,,,left,1,0.05025757080875337,,,,,,,,,,,1006,2019_Mar_06_0951,mf_amp_cond2,3.0.4,60.01397384670593,
died,&&&&&&&&,right,care.vice,ugeasily,,,,,,,,,,,,,,,0,154,154,97,,,,,,,,,,,,,AMP,right,0.06693280069157481,1,,,,,,,,,,,,,,right,1,0.06693280069157481,,,,,,,,,,,1006,2019_Mar_06_0951,mf_amp_cond2,3.0.4,60.01397384670593,
commitment,&&&&&&&&,left,sanctity.virtue,framatic,,,,,,,,,,,,,,,0,155,155,122,,,,,,,,,,,,,AMP,left,0.2503362756688148,1,,,,,,,,,,,,,,left,1,0.2503362756688148,,,,,,,,,,,1006,2019_Mar_06_0951,mf_amp_cond2,3.0.4,60.01397384670593,
died,&&&&&&&,right,care.vice,lursuer,,,,,,,,,,,,,,,0,156,156,214,,,,,,,,,,,,,AMP,left,0.11695239669643342,0,,,,,,,,,,,,,,left,0,0.11695239669643342,,,,,,,,,,,1006,2019_Mar_06_0951,mf_amp_cond2,3.0.4,60.01397384670593,
troops,&&&&,right,loyalty.vice,coom,,,,,,,,,,,,,,,0,157,157,195,,,,,,,,,,,,,AMP,right,0.10028358118142933,1,,,,,,,,,,,,,,right,1,0.10028358118142933,,,,,,,,,,,1006,2019_Mar_06_0951,mf_amp_cond2,3.0.4,60.01397384670593,
supervuned,&&&&&&&,None,nonword,emports,,,,,,,,,,,,,,,0,158,158,60,,,,,,,,,,,,,AMP,left,0.2836604363983497,0,,,,,,,,,,,,,,left,0,0.2836604363983497,,,,,,,,,,,1006,2019_Mar_06_0951,mf_amp_cond2,3.0.4,60.01397384670593,
accused,&&&&&&&&&,right,fairness.vice,seachwear,,,,,,,,,,,,,,,0,159,159,255,,,,,,,,,,,,,AMP,right,0.0169093559961766,1,,,,,,,,,,,,,,right,1,0.0169093559961766,,,,,,,,,,,1006,2019_Mar_06_0951,mf_amp_cond2,3.0.4,60.01397384670593,
safe,&&&&&&&&&&,left,care.virtue,galamitous,,,,,,,,,,,,,,,0,160,160,91,,,,,,,,,,,,,AMP,left,0.13365969876758754,1,,,,,,,,,,,,,,left,1,0.13365969876758754,,,,,,,,,,,1006,2019_Mar_06_0951,mf_amp_cond2,3.0.4,60.01397384670593,
suggists,&&&&&&&&&&,None,nonword,clattening,,,,,,,,,,,,,,,0,161,161,15,,,,,,,,,,,,,AMP,right,0.8671446687076241,0,,,,,,,,,,,,,,right,0,0.8671446687076241,,,,,,,,,,,1006,2019_Mar_06_0951,mf_amp_cond2,3.0.4,60.01397384670593,
racist,&&&&&&&&&&&&,right,sanctity.vice,gusinesslike,,,,,,,,,,,,,,,0,162,162,135,,,,,,,,,,,,,AMP,left,0.8171260348754004,0,,,,,,,,,,,,,,left,0,0.8171260348754004,,,,,,,,,,,1006,2019_Mar_06_0951,mf_amp_cond2,3.0.4,60.01397384670593,
drumbled,&&&&&&,None,nonword,gikely,,,,,,,,,,,,,,,0,163,163,63,,,,,,,,,,,,,AMP,right,0.8504662315826863,0,,,,,,,,,,,,,,right,0,0.8504662315826863,,,,,,,,,,,1006,2019_Mar_06_0951,mf_amp_cond2,3.0.4,60.01397384670593,
terrorist,&&&&&&&&,right,loyalty.vice,nuckheap,,,,,,,,,,,,,,,0,164,164,64,,,,,,,,,,,,,AMP,left,0.41702763771172613,0,,,,,,,,,,,,,,left,0,0.41702763771172613,,,,,,,,,,,1006,2019_Mar_06_0951,mf_amp_cond2,3.0.4,60.01397384670593,
blamed,&&&&&&&&&,right,loyalty.vice,chressing,,,,,,,,,,,,,,,0,165,165,46,,,,,,,,,,,,,AMP,left,0.6337607257300988,0,,,,,,,,,,,,,,left,0,0.6337607257300988,,,,,,,,,,,1006,2019_Mar_06_0951,mf_amp_cond2,3.0.4,60.01397384670593,
useful,&&&&&&&&&&&,left,authority.virtue,mightingale,,,,,,,,,,,,,,,0,166,166,13,,,,,,,,,,,,,AMP,left,0.36698879848700017,1,,,,,,,,,,,,,,left,1,0.36698879848700017,,,,,,,,,,,1006,2019_Mar_06_0951,mf_amp_cond2,3.0.4,60.01397384670593,
conspiracy,&&&&,right,sanctity.vice,ning,,,,,,,,,,,,,,,0,167,167,55,,,,,,,,,,,,,AMP,left,0.3669977787649259,0,,,,,,,,,,,,,,left,0,0.3669977787649259,,,,,,,,,,,1006,2019_Mar_06_0951,mf_amp_cond2,3.0.4,60.01397384670593,
clean,&&&&&&&&&&&&,left,sanctity.virtue,nonobservalt,,,,,,,,,,,,,,,0,168,168,2,,,,,,,,,,,,,AMP,right,0.15031664760317653,0,,,,,,,,,,,,,,right,0,0.15031664760317653,,,,,,,,,,,1006,2019_Mar_06_0951,mf_amp_cond2,3.0.4,60.01397384670593,
prison,&&&&&&&&,right,fairness.vice,ugeasily,,,,,,,,,,,,,,,0,169,169,45,,,,,,,,,,,,,AMP,right,0.40037453756667674,1,,,,,,,,,,,,,,right,1,0.40037453756667674,,,,,,,,,,,1006,2019_Mar_06_0951,mf_amp_cond2,3.0.4,60.01397384670593,
slavery,&&&&&,right,loyalty.vice,scock,,,,,,,,,,,,,,,0,170,170,51,,,,,,,,,,,,,AMP,right,0.2670269001973793,1,,,,,,,,,,,,,,right,1,0.2670269001973793,,,,,,,,,,,1006,2019_Mar_06_0951,mf_amp_cond2,3.0.4,60.01397384670593,
intelligence,&&&&&&&&&&&,left,loyalty.virtue,presentkess,,,,,,,,,,,,,,,0,171,171,90,,,,,,,,,,,,,AMP,right,0.10031629481818527,0,,,,,,,,,,,,,,right,0,0.10031629481818527,,,,,,,,,,,1006,2019_Mar_06_0951,mf_amp_cond2,3.0.4,60.01397384670593,
conspiracy,&&&&&&,right,sanctity.vice,greaks,,,,,,,,,,,,,,,0,172,172,296,,,,,,,,,,,,,AMP,left,0.28371816605795175,0,,,,,,,,,,,,,,left,0,0.28371816605795175,,,,,,,,,,,1006,2019_Mar_06_0951,mf_amp_cond2,3.0.4,60.01397384670593,
safety,&&&&&&&&&&,left,care.virtue,frocessing,,,,,,,,,,,,,,,0,173,173,54,,,,,,,,,,,,,AMP,right,0.1169244940392673,0,,,,,,,,,,,,,,right,0,0.1169244940392673,,,,,,,,,,,1006,2019_Mar_06_0951,mf_amp_cond2,3.0.4,60.01397384670593,
terrorists,&&&&&&&&&&,right,fairness.vice,clattening,,,,,,,,,,,,,,,0,174,174,100,,,,,,,,,,,,,AMP,left,0.2503189566778019,0,,,,,,,,,,,,,,left,0,0.2503189566778019,,,,,,,,,,,1006,2019_Mar_06_0951,mf_amp_cond2,3.0.4,60.01397384670593,
peaceful,&&&&&&&&,left,authority.virtue,sidearbs,,,,,,,,,,,,,,,0,175,175,318,,,,,,,,,,,,,AMP,right,0.28365209768526256,0,,,,,,,,,,,,,,right,0,0.28365209768526256,,,,,,,,,,,1006,2019_Mar_06_0951,mf_amp_cond2,3.0.4,60.01397384670593,
prison,&&&&&&&&&&&,right,fairness.vice,ronviolence,,,,,,,,,,,,,,,0,176,176,256,,,,,,,,,,,,,AMP,left,0.7504693747032434,0,,,,,,,,,,,,,,left,0,0.7504693747032434,,,,,,,,,,,1006,2019_Mar_06_0951,mf_amp_cond2,3.0.4,60.01397384670593,
improve,&&&&&&&&&,left,care.virtue,gandbrake,,,,,,,,,,,,,,,0,177,177,217,,,,,,,,,,,,,AMP,right,0.5004551026504487,0,,,,,,,,,,,,,,right,0,0.5004551026504487,,,,,,,,,,,1006,2019_Mar_06_0951,mf_amp_cond2,3.0.4,60.01397384670593,
accused,&&&&&&&&,right,fairness.vice,emassion,,,,,,,,,,,,,,,0,178,178,11,,,,,,,,,,,,,AMP,left,0.3003350248327479,0,,,,,,,,,,,,,,left,0,0.3003350248327479,,,,,,,,,,,1006,2019_Mar_06_0951,mf_amp_cond2,3.0.4,60.01397384670593,
metibolic,&&&&&&&&,None,nonword,divility,,,,,,,,,,,,,,,0,179,179,127,,,,,,,,,,,,,AMP,right,0.06693023489788175,0,,,,,,,,,,,,,,right,0,0.06693023489788175,,,,,,,,,,,1006,2019_Mar_06_0951,mf_amp_cond2,3.0.4,60.01397384670593,
health,&&&&&&&&,left,care.virtue,emassion,,,,,,,,,,,,,,,0,180,180,264,,,,,,,,,,,,,AMP,left,0.35033633979037404,1,,,,,,,,,,,,,,left,1,0.35033633979037404,,,,,,,,,,,1006,2019_Mar_06_0951,mf_amp_cond2,3.0.4,60.01397384670593,
rebels,&&&&&&,right,authority.vice,papert,,,,,,,,,,,,,,,0,181,181,57,,,,,,,,,,,,,AMP,right,0.28366460581310093,1,,,,,,,,,,,,,,right,1,0.28366460581310093,,,,,,,,,,,1006,2019_Mar_06_0951,mf_amp_cond2,3.0.4,60.01397384670593,
hope,&&&&&&&&&,left,loyalty.virtue,neputized,,,,,,,,,,,,,,,0,182,182,26,,,,,,,,,,,,,AMP,left,0.36702503997366875,1,,,,,,,,,,,,,,left,1,0.36702503997366875,,,,,,,,,,,1006,2019_Mar_06_0951,mf_amp_cond2,3.0.4,60.01397384670593,
pleasant,&&&&&&&,None,control,baklara,,,,,,,,,,,,,,,0,183,183,34,,,,,,,,,,,,,AMP,right,0.216975232004188,0,,,,,,,,,,,,,,right,0,0.216975232004188,,,,,,,,,,,1006,2019_Mar_06_0951,mf_amp_cond2,3.0.4,60.01397384670593,
terrorists,&&&&&&&&&,right,fairness.vice,gaultless,,,,,,,,,,,,,,,0,184,184,176,,,,,,,,,,,,,AMP,left,0.3169974258635193,0,,,,,,,,,,,,,,left,0,0.3169974258635193,,,,,,,,,,,1006,2019_Mar_06_0951,mf_amp_cond2,3.0.4,60.01397384670593,
suicide,&&&&&&&,right,care.vice,halaise,,,,,,,,,,,,,,,0,185,185,315,,,,,,,,,,,,,AMP,right,0.2169803634751588,1,,,,,,,,,,,,,,right,1,0.2169803634751588,,,,,,,,,,,1006,2019_Mar_06_0951,mf_amp_cond2,3.0.4,60.01397384670593,
army,&&&&&&&&,right,loyalty.vice,nuckheap,,,,,,,,,,,,,,,0,186,186,194,,,,,,,,,,,,,AMP,right,0.6670614738250151,1,,,,,,,,,,,,,,right,1,0.6670614738250151,,,,,,,,,,,1006,2019_Mar_06_0951,mf_amp_cond2,3.0.4,60.01397384670593,
violence,&&&&&&&&&&&,right,care.vice,mightingale,,,,,,,,,,,,,,,0,187,187,92,,,,,,,,,,,,,AMP,right,1.4671479400712997,1,,,,,,,,,,,,,,right,1,1.4671479400712997,,,,,,,,,,,1006,2019_Mar_06_0951,mf_amp_cond2,3.0.4,60.01397384670593,
strength,&&&&&&&&&&&,left,sanctity.virtue,neneficence,,,,,,,,,,,,,,,0,188,188,138,,,,,,,,,,,,,AMP,right,0.4337022262625396,0,,,,,,,,,,,,,,right,0,0.4337022262625396,,,,,,,,,,,1006,2019_Mar_06_0951,mf_amp_cond2,3.0.4,60.01397384670593,
win,&&&&&,left,fairness.virtue,saned,,,,,,,,,,,,,,,0,189,189,234,,,,,,,,,,,,,AMP,left,0.35040369105990976,1,,,,,,,,,,,,,,left,1,0.35040369105990976,,,,,,,,,,,1006,2019_Mar_06_0951,mf_amp_cond2,3.0.4,60.01397384670593,
sharing,&&&&,left,loyalty.virtue,alar,,,,,,,,,,,,,,,0,190,190,303,,,,,,,,,,,,,AMP,right,0.7004391947994009,0,,,,,,,,,,,,,,right,0,0.7004391947994009,,,,,,,,,,,1006,2019_Mar_06_0951,mf_amp_cond2,3.0.4,60.01397384670593,
drumbled,&&&&&&&&&,None,nonword,chressing,,,,,,,,,,,,,,,0,191,191,305,,,,,,,,,,,,,AMP,right,0.3170060854172334,0,,,,,,,,,,,,,,right,0,0.3170060854172334,,,,,,,,,,,1006,2019_Mar_06_0951,mf_amp_cond2,3.0.4,60.01397384670593,
suicide,&&&&&&&&&&&&,right,care.vice,gusinesslike,,,,,,,,,,,,,,,0,192,192,237,,,,,,,,,,,,,AMP,left,0.43370639567729086,0,,,,,,,,,,,,,,left,0,0.43370639567729086,,,,,,,,,,,1006,2019_Mar_06_0951,mf_amp_cond2,3.0.4,60.01397384670593,
pleasant,&&&&,None,control,wump,,,,,,,,,,,,,,,0,193,193,119,,,,,,,,,,,,,AMP,right,0.4003581808647141,0,,,,,,,,,,,,,,right,0,0.4003581808647141,,,,,,,,,,,1006,2019_Mar_06_0951,mf_amp_cond2,3.0.4,60.01397384670593,
progress,&&&&&&,left,authority.virtue,squets,,,,,,,,,,,,,,,0,194,194,73,,,,,,,,,,,,,AMP,right,0.23364853765815496,0,,,,,,,,,,,,,,right,0,0.23364853765815496,,,,,,,,,,,1006,2019_Mar_06_0951,mf_amp_cond2,3.0.4,60.01397384670593,
win,&&&&&&&&,left,fairness.virtue,sidearbs,,,,,,,,,,,,,,,0,195,195,21,,,,,,,,,,,,,AMP,right,0.4669885420007631,0,,,,,,,,,,,,,,right,0,0.4669885420007631,,,,,,,,,,,1006,2019_Mar_06_0951,mf_amp_cond2,3.0.4,60.01397384670593,
powerful,&&&&&&&&&&&,left,authority.virtue,vicissifude,,,,,,,,,,,,,,,0,196,196,32,,,,,,,,,,,,,AMP,right,0.4339235235238448,0,,,,,,,,,,,,,,right,0,0.4339235235238448,,,,,,,,,,,1006,2019_Mar_06_0951,mf_amp_cond2,3.0.4,60.01397384670593,
egpeditious,&&&&,None,nonword,coom,,,,,,,,,,,,,,,0,197,197,276,,,,,,,,,,,,,AMP,right,0.3670234363526106,0,,,,,,,,,,,,,,right,0,0.3670234363526106,,,,,,,,,,,1006,2019_Mar_06_0951,mf_amp_cond2,3.0.4,60.01397384670593,
war,&&&&&,right,sanctity.vice,infet,,,,,,,,,,,,,,,0,198,198,93,,,,,,,,,,,,,AMP,left,0.0335800958564505,0,,,,,,,,,,,,,,left,0,0.0335800958564505,,,,,,,,,,,1006,2019_Mar_06_0951,mf_amp_cond2,3.0.4,60.01397384670593,
accused,&&&&&,right,fairness.vice,scock,,,,,,,,,,,,,,,0,199,199,142,,,,,,,,,,,,,AMP,left,0.833832054049708,0,,,,,,,,,,,,,,left,0,0.833832054049708,,,,,,,,,,,1006,2019_Mar_06_0951,mf_amp_cond2,3.0.4,60.01397384670593,
clamorek,&&&&&&&&&&&&,None,nonword,unreflectuve,,,,,,,,,,,,,,,0,200,200,191,,,,,,,,,,,,,AMP,left,0.6337610463378951,0,,,,,,,,,,,,,,left,0,0.6337610463378951,,,,,,,,,,,1006,2019_Mar_06_0951,mf_amp_cond2,3.0.4,60.01397384670593,
civilians,&&&&&&&&&&,right,care.vice,imebreaker,,,,,,,,,,,,,,,0,201,201,235,,,,,,,,,,,,,AMP,left,1.1339037670986727,0,,,,,,,,,,,,,,left,0,1.1339037670986727,,,,,,,,,,,1006,2019_Mar_06_0951,mf_amp_cond2,3.0.4,60.01397384670593,
conspiracy,&&&&&&&&&&&,right,sanctity.vice,vicissifude,,,,,,,,,,,,,,,0,202,202,167,,,,,,,,,,,,,AMP,left,0.7004966038512066,0,,,,,,,,,,,,,,left,0,0.7004966038512066,,,,,,,,,,,1006,2019_Mar_06_0951,mf_amp_cond2,3.0.4,60.01397384670593,
torture,&&&&&&&&&&,right,care.vice,lorthwhile,,,,,,,,,,,,,,,0,203,203,87,,,,,,,,,,,,,AMP,left,0.36702022911049426,0,,,,,,,,,,,,,,left,0,0.36702022911049426,,,,,,,,,,,1006,2019_Mar_06_0951,mf_amp_cond2,3.0.4,60.01397384670593,
encourage,&&&&&&&&&&&&,left,authority.virtue,nonobservalt,,,,,,,,,,,,,,,0,204,204,229,,,,,,,,,,,,,AMP,right,0.8171632384182885,0,,,,,,,,,,,,,,right,0,0.8171632384182885,,,,,,,,,,,1006,2019_Mar_06_0951,mf_amp_cond2,3.0.4,60.01397384670593,
strength,&&&&,left,sanctity.virtue,alar,,,,,,,,,,,,,,,0,205,205,44,,,,,,,,,,,,,AMP,left,0.3169999916572124,1,,,,,,,,,,,,,,left,1,0.3169999916572124,,,,,,,,,,,1006,2019_Mar_06_0951,mf_amp_cond2,3.0.4,60.01397384670593,
injured,&&&&&&&&&,right,care.vice,tomedians,,,,,,,,,,,,,,,0,206,206,312,,,,,,,,,,,,,AMP,right,0.1503176096593961,1,,,,,,,,,,,,,,right,1,0.1503176096593961,,,,,,,,,,,1006,2019_Mar_06_0951,mf_amp_cond2,3.0.4,60.01397384670593,
integrity,&&&&&,left,fairness.virtue,viscs,,,,,,,,,,,,,,,0,207,207,182,,,,,,,,,,,,,AMP,left,0.6004205289063975,1,,,,,,,,,,,,,,left,1,0.6004205289063975,,,,,,,,,,,1006,2019_Mar_06_0951,mf_amp_cond2,3.0.4,60.01397384670593,
army,&&&&&&&&&&&&,right,loyalty.vice,iptervention,,,,,,,,,,,,,,,0,208,208,102,,,,,,,,,,,,,AMP,right,1.7507044629892334,1,,,,,,,,,,,,,,right,1,1.7507044629892334,,,,,,,,,,,1006,2019_Mar_06_0951,mf_amp_cond2,3.0.4,60.01397384670593,
ittutable,&&&&&&&&&&,None,nonword,focomotive,,,,,,,,,,,,,,,0,209,209,123,,,,,,,,,,,,,AMP,left,0.38354119239374995,0,,,,,,,,,,,,,,left,0,0.38354119239374995,,,,,,,,,,,1006,2019_Mar_06_0951,mf_amp_cond2,3.0.4,60.01397384670593,
support,&&&&&&&&&&&,left,loyalty.virtue,blunderints,,,,,,,,,,,,,,,0,210,210,133,,,,,,,,,,,,,AMP,left,0.4170263549312949,1,,,,,,,,,,,,,,left,1,0.4170263549312949,,,,,,,,,,,1006,2019_Mar_06_0951,mf_amp_cond2,3.0.4,60.01397384670593,
war,&&&&,right,sanctity.vice,wump,,,,,,,,,,,,,,,0,211,211,325,,,,,,,,,,,,,AMP,left,0.5837443369673565,0,,,,,,,,,,,,,,left,0,0.5837443369673565,,,,,,,,,,,1006,2019_Mar_06_0951,mf_amp_cond2,3.0.4,60.01397384670593,
strong,&&&&&&&&&&&&,left,loyalty.virtue,quarterbocks,,,,,,,,,,,,,,,0,212,212,106,,,,,,,,,,,,,AMP,right,1.0338857426540926,0,,,,,,,,,,,,,,right,0,1.0338857426540926,,,,,,,,,,,1006,2019_Mar_06_0951,mf_amp_cond2,3.0.4,60.01397384670593,
prison,&&&&&&&&,right,fairness.vice,nuckheap,,,,,,,,,,,,,,,0,213,213,117,,,,,,,,,,,,,AMP,left,0.2836585120530799,0,,,,,,,,,,,,,,left,0,0.2836585120530799,,,,,,,,,,,1006,2019_Mar_06_0951,mf_amp_cond2,3.0.4,60.01397384670593,
blamed,&&&&&&,right,loyalty.vice,chared,,,,,,,,,,,,,,,0,214,214,231,,,,,,,,,,,,,AMP,left,0.46704498876351863,0,,,,,,,,,,,,,,left,0,0.46704498876351863,,,,,,,,,,,1006,2019_Mar_06_0951,mf_amp_cond2,3.0.4,60.01397384670593,
racist,&&&&&,right,sanctity.vice,touls,,,,,,,,,,,,,,,0,215,215,76,,,,,,,,,,,,,AMP,left,0.41707285947632045,0,,,,,,,,,,,,,,left,0,0.41707285947632045,,,,,,,,,,,1006,2019_Mar_06_0951,mf_amp_cond2,3.0.4,60.01397384670593,
win,&&&&&&&,left,fairness.virtue,emports,,,,,,,,,,,,,,,0,216,216,286,,,,,,,,,,,,,AMP,left,0.5837475439766422,1,,,,,,,,,,,,,,left,1,0.5837475439766422,,,,,,,,,,,1006,2019_Mar_06_0951,mf_amp_cond2,3.0.4,60.01397384670593,
agreement,&&&&&&&&&&,left,fairness.virtue,focomotive,,,,,,,,,,,,,,,0,217,217,259,,,,,,,,,,,,,AMP,left,1.0005327169783413,1,,,,,,,,,,,,,,left,1,1.0005327169783413,,,,,,,,,,,1006,2019_Mar_06_0951,mf_amp_cond2,3.0.4,60.01397384670593,
increase,&&&&,left,care.virtue,alar,,,,,,,,,,,,,,,0,218,218,202,,,,,,,,,,,,,AMP,right,0.46707192924804986,0,,,,,,,,,,,,,,right,0,0.46707192924804986,,,,,,,,,,,1006,2019_Mar_06_0951,mf_amp_cond2,3.0.4,60.01397384670593,
refused,&&&,right,authority.vice,oam,,,,,,,,,,,,,,,0,219,219,321,,,,,,,,,,,,,AMP,left,0.4170311656780541,0,,,,,,,,,,,,,,left,0,0.4170311656780541,,,,,,,,,,,1006,2019_Mar_06_0951,mf_amp_cond2,3.0.4,60.01397384670593,
sharing,&&&&&&&&&,left,loyalty.virtue,baladroit,,,,,,,,,,,,,,,0,220,220,190,,,,,,,,,,,,,AMP,left,0.5170556046068668,1,,,,,,,,,,,,,,left,1,0.5170556046068668,,,,,,,,,,,1006,2019_Mar_06_0951,mf_amp_cond2,3.0.4,60.01397384670593,
increase,&&&&&&&&,left,care.virtue,nuckheap,,,,,,,,,,,,,,,0,221,221,271,,,,,,,,,,,,,AMP,left,0.5837937277974561,1,,,,,,,,,,,,,,left,1,0.5837937277974561,,,,,,,,,,,1006,2019_Mar_06_0951,mf_amp_cond2,3.0.4,60.01397384670593,
betrayal,&&&&&&&&,right,loyalty.vice,framatic,,,,,,,,,,,,,,,0,222,222,241,,,,,,,,,,,,,AMP,left,0.7171166698681191,0,,,,,,,,,,,,,,left,0,0.7171166698681191,,,,,,,,,,,1006,2019_Mar_06_0951,mf_amp_cond2,3.0.4,60.01397384670593,
metibolic,&&&&&&&&&,None,nonword,taxpayung,,,,,,,,,,,,,,,0,223,223,277,,,,,,,,,,,,,AMP,left,0.3503565451828763,0,,,,,,,,,,,,,,left,0,0.3503565451828763,,,,,,,,,,,1006,2019_Mar_06_0951,mf_amp_cond2,3.0.4,60.01397384670593,
fear,&&&&&&&&&&,right,sanctity.vice,galamitous,,,,,,,,,,,,,,,0,224,224,30,,,,,,,,,,,,,AMP,left,0.3336720144143328,0,,,,,,,,,,,,,,left,0,0.3336720144143328,,,,,,,,,,,1006,2019_Mar_06_0951,mf_amp_cond2,3.0.4,60.01397384670593,
unpleasant,&&&&&&&&&&&,None,control,lempestuous,,,,,,,,,,,,,,,0,225,225,154,,,,,,,,,,,,,AMP,left,0.5837581278756261,0,,,,,,,,,,,,,,left,0,0.5837581278756261,,,,,,,,,,,1006,2019_Mar_06_0951,mf_amp_cond2,3.0.4,60.01397384670593,
clean,&&&&&&&&&&&&&,left,sanctity.virtue,idexpressible,,,,,,,,,,,,,,,0,226,226,215,,,,,,,,,,,,,AMP,left,0.6837905847933143,1,,,,,,,,,,,,,,left,1,0.6837905847933143,,,,,,,,,,,1006,2019_Mar_06_0951,mf_amp_cond2,3.0.4,60.01397384670593,
racist,&&&&&&&&&&&&&,right,sanctity.vice,esquisiteness,,,,,,,,,,,,,,,0,227,227,257,,,,,,,,,,,,,AMP,left,0.8338185837492347,0,,,,,,,,,,,,,,left,0,0.8338185837492347,,,,,,,,,,,1006,2019_Mar_06_0951,mf_amp_cond2,3.0.4,60.01397384670593,
strofe,&&&&&&&&&&,None,nonword,frojecting,,,,,,,,,,,,,,,0,228,228,99,,,,,,,,,,,,,AMP,left,0.11693571927025914,0,,,,,,,,,,,,,,left,0,0.11693571927025914,,,,,,,,,,,1006,2019_Mar_06_0951,mf_amp_cond2,3.0.4,60.01397384670593,
violence,&&&&&&&&&&&,right,care.vice,ronviolence,,,,,,,,,,,,,,,0,229,229,62,,,,,,,,,,,,,AMP,left,0.5670710313133895,0,,,,,,,,,,,,,,left,0,0.5670710313133895,,,,,,,,,,,1006,2019_Mar_06_0951,mf_amp_cond2,3.0.4,60.01397384670593,
honored,&&&&,left,authority.virtue,coom,,,,,,,,,,,,,,,0,230,230,1,,,,,,,,,,,,,AMP,left,0.28365113539621234,1,,,,,,,,,,,,,,left,1,0.28365113539621234,,,,,,,,,,,1006,2019_Mar_06_0951,mf_amp_cond2,3.0.4,60.01397384670593,
terrorist,&&&&&&&&&&&&,right,loyalty.vice,edancipation,,,,,,,,,,,,,,,0,231,231,164,,,,,,,,,,,,,AMP,right,0.4837163700722158,1,,,,,,,,,,,,,,right,1,0.4837163700722158,,,,,,,,,,,1006,2019_Mar_06_0951,mf_amp_cond2,3.0.4,60.01397384670593,
benefit,&&&&&&&,left,fairness.virtue,carvels,,,,,,,,,,,,,,,0,232,232,283,,,,,,,,,,,,,AMP,left,0.8504723253427073,1,,,,,,,,,,,,,,left,1,0.8504723253427073,,,,,,,,,,,1006,2019_Mar_06_0951,mf_amp_cond2,3.0.4,60.01397384670593,
win,&&&&&&&&&&&&&,left,fairness.virtue,idexpressible,,,,,,,,,,,,,,,0,233,233,148,,,,,,,,,,,,,AMP,right,0.38368102663662285,0,,,,,,,,,,,,,,right,0,0.38368102663662285,,,,,,,,,,,1006,2019_Mar_06_0951,mf_amp_cond2,3.0.4,60.01397384670593,
fighters,&&&&&&&,right,authority.vice,carvels,,,,,,,,,,,,,,,0,234,234,159,,,,,,,,,,,,,AMP,left,0.38373426627367735,0,,,,,,,,,,,,,,left,0,0.38373426627367735,,,,,,,,,,,1006,2019_Mar_06_0951,mf_amp_cond2,3.0.4,60.01397384670593,
scandal,&&&&,right,sanctity.vice,wump,,,,,,,,,,,,,,,0,235,235,33,,,,,,,,,,,,,AMP,right,0.05030567885842174,1,,,,,,,,,,,,,,right,1,0.05030567885842174,,,,,,,,,,,1006,2019_Mar_06_0951,mf_amp_cond2,3.0.4,60.01397384670593,
suicide,&&&&&&&&&&&,right,care.vice,lempestuous,,,,,,,,,,,,,,,0,236,236,70,,,,,,,,,,,,,AMP,right,0.6837687757797539,1,,,,,,,,,,,,,,right,1,0.6837687757797539,,,,,,,,,,,1006,2019_Mar_06_0951,mf_amp_cond2,3.0.4,60.01397384670593,
faith,&&&&&&&&&&&&&,left,sanctity.virtue,esquisiteness,,,,,,,,,,,,,,,0,237,237,228,,,,,,,,,,,,,AMP,left,0.33367939095478505,1,,,,,,,,,,,,,,left,1,0.33367939095478505,,,,,,,,,,,1006,2019_Mar_06_0951,mf_amp_cond2,3.0.4,60.01397384670593,
useful,&&&&&,left,authority.virtue,scock,,,,,,,,,,,,,,,0,238,238,290,,,,,,,,,,,,,AMP,right,0.06695685477461666,0,,,,,,,,,,,,,,right,0,0.06695685477461666,,,,,,,,,,,1006,2019_Mar_06_0951,mf_amp_cond2,3.0.4,60.01397384670593,
improve,&&&&&&,left,care.virtue,greaks,,,,,,,,,,,,,,,0,239,239,89,,,,,,,,,,,,,AMP,left,0.35032062442041934,1,,,,,,,,,,,,,,left,1,0.35032062442041934,,,,,,,,,,,1006,2019_Mar_06_0951,mf_amp_cond2,3.0.4,60.01397384670593,
benefit,&&&&&&&&,left,fairness.virtue,thabbily,,,,,,,,,,,,,,,0,240,240,236,,,,,,,,,,,,,AMP,left,0.23367483669426292,1,,,,,,,,,,,,,,left,1,0.23367483669426292,,,,,,,,,,,1006,2019_Mar_06_0951,mf_amp_cond2,3.0.4,60.01397384670593,
serial,&&&&,right,sanctity.vice,ning,,,,,,,,,,,,,,,0,241,241,300,,,,,,,,,,,,,AMP,right,0.05025532573927194,1,,,,,,,,,,,,,,right,1,0.05025532573927194,,,,,,,,,,,1006,2019_Mar_06_0951,mf_amp_cond2,3.0.4,60.01397384670593,
slavery,&&&&&&&&&&&,right,loyalty.vice,presentkess,,,,,,,,,,,,,,,0,242,242,308,,,,,,,,,,,,,AMP,left,0.20029198413249105,0,,,,,,,,,,,,,,left,0,0.20029198413249105,,,,,,,,,,,1006,2019_Mar_06_0951,mf_amp_cond2,3.0.4,60.01397384670593,
