words,nonwords,mask,corr_ans,category,AMP_prac_loop.thisRepN,AMP_prac_loop.thisTrialN,AMP_prac_loop.thisN,AMP_prac_loop.thisIndex,AMP_trials.thisRepN,AMP_trials.thisTrialN,AMP_trials.thisN,AMP_trials.thisIndex,LDT_prac_loop.thisRepN,LDT_prac_loop.thisTrialN,LDT_prac_loop.thisN,LDT_prac_loop.thisIndex,LDT_loop.thisRepN,LDT_loop.thisTrialN,LDT_loop.thisN,LDT_loop.thisIndex,tweet_loop.thisRepN,tweet_loop.thisTrialN,tweet_loop.thisN,tweet_loop.thisIndex,tweets,topic,begin_key.keys,begin_key.rt,key_resp_AMP_instr1.keys,key_resp_AMP_instr1.rt,resp_AMP_ready1.keys,resp_AMP_ready1.rt,resp_AMP_prac.keys,resp_AMP_prac.rt,task,keypress,RT,resp_AMP_ready.keys,resp_AMP_ready.rt,resp_AMP.keys,resp_AMP.corr,resp_AMP.rt,corr,AMP_nonword_rating.response,AMP_nonword_rating.rt,AMP_word_rating.response,AMP_word_rating.rt,AMP_random_rating.response,AMP_random_rating.rt,key_resp_LDT_instr.keys,key_resp_LDT_instr.rt,resp_LDT_prac.keys,resp_LDT_prac.rt,resp_LDT_ready.keys,resp_LDT_ready.rt,resp_LDT.keys,resp_LDT.corr,resp_LDT.rt,LDT_rating.response,LDT_rating.rt,key_resp_LDT_instr_2.keys,key_resp_LDT_instr_2.rt,participant,date,expName,psychopyVersion,frameRate,
,,,,,,,,,,,,,,,,,,,,,,,,,,,right,970.6256060819142,,,,,,,,,,,,,,,,,,,,,,,,,,,,,,,,,,,1007,2019_Mar_06_0950,mf_amp_cond1,3.0.4,59.985224807361156,
,,,,,,,,,,,,,,,,,,,,,,,,,,,,,right,3.3177026907214895,,,,,,,,,,,,,,,,,,,,,,,,,,,,,,,,,1007,2019_Mar_06_0950,mf_amp_cond1,3.0.4,59.985224807361156,
,,,,,,,,,,,,,,,,,,,,,,,,,,,,,,,right,1.7507044629892334,,,,,,,,,,,,,,,,,,,,,,,,,,,,,,,1007,2019_Mar_06_0950,mf_amp_cond1,3.0.4,59.985224807361156,
banana,kacket,&&&&&&,,,0,0,0,1,,,,,,,,,,,,,,,,,,,,,,,,,right,2.5842273422749713,AMP_prac,right,2.5842273422749713,,,,,,,,,,,,,,,,,,,,,,,,,,1007,2019_Mar_06_0950,mf_amp_cond1,3.0.4,59.985224807361156,
car,cemtuper,&&&&&&&&,,,0,1,1,0,,,,,,,,,,,,,,,,,,,,,,,,,right,1.6506742511410266,AMP_prac,right,1.6506742511410266,,,,,,,,,,,,,,,,,,,,,,,,,,1007,2019_Mar_06_0950,mf_amp_cond1,3.0.4,59.985224807361156,
keyboard,senk,&&&&,,,0,2,2,2,,,,,,,,,,,,,,,,,,,,,,,,,right,2.3341883746907115,AMP_prac,right,2.3341883746907115,,,,,,,,,,,,,,,,,,,,,,,,,,1007,2019_Mar_06_0950,mf_amp_cond1,3.0.4,59.985224807361156,
scarf,bisebell,&&&&&&&&,,,0,3,3,3,,,,,,,,,,,,,,,,,,,,,,,,,right,1.200549843488261,AMP_prac,right,1.200549843488261,,,,,,,,,,,,,,,,,,,,,,,,,,1007,2019_Mar_06_0950,mf_amp_cond1,3.0.4,59.985224807361156,
,,,,,,,,,,,,,,,,,,,,,,,,,,,,,,,,,,,,,,right,1.5673003465635702,,,,,,,,,,,,,,,,,,,,,,,,1007,2019_Mar_06_0950,mf_amp_cond1,3.0.4,59.985224807361156,
unpleasant,brotesque,&&&&&&&&&,None,control,,,,,0,0,0,0,,,,,,,,,,,,,,,,,,,,,,,AMP,left,0.6837575505487621,,,left,0,0.6837575505487621,0,,,,,,,,,,,,,,,,,,,,1007,2019_Mar_06_0950,mf_amp_cond1,3.0.4,59.985224807361156,
threatened,Phintoism,&&&&&&&&&,right,fairness.vice,,,,,0,1,1,1,,,,,,,,,,,,,,,,,,,,,,,AMP,left,1.033843407407403,,,left,0,1.033843407407403,0,,,,,,,,,,,,,,,,,,,,1007,2019_Mar_06_0950,mf_amp_cond1,3.0.4,59.985224807361156,
promises,tislay,&&&&&&,left,fairness.virtue,,,,,0,2,2,2,,,,,,,,,,,,,,,,,,,,,,,AMP,right,1.1505023448262364,,,right,0,1.1505023448262364,0,,,,,,,,,,,,,,,,,,,,1007,2019_Mar_06_0950,mf_amp_cond1,3.0.4,59.985224807361156,
strength,festate,&&&&&&&,left,sanctity.virtue,,,,,0,3,3,3,,,,,,,,,,,,,,,,,,,,,,,AMP,right,0.36701638041995466,,,right,0,0.36701638041995466,0,,,,,,,,,,,,,,,,,,,,1007,2019_Mar_06_0950,mf_amp_cond1,3.0.4,59.985224807361156,
riot,ablow,&&&&&,right,authority.vice,,,,,0,4,4,4,,,,,,,,,,,,,,,,,,,,,,,AMP,right,0.9838331122882664,,,right,1,0.9838331122882664,1,,,,,,,,,,,,,,,,,,,,1007,2019_Mar_06_0950,mf_amp_cond1,3.0.4,59.985224807361156,
ability,crilfully,&&&&&&&&&,left,authority.virtue,,,,,0,5,5,5,,,,,,,,,,,,,,,,,,,,,,,AMP,right,1.2672401793533936,,,right,0,1.2672401793533936,0,,,,,,,,,,,,,,,,,,,,1007,2019_Mar_06_0950,mf_amp_cond1,3.0.4,59.985224807361156,
lies,slending,&&&&&&&&,right,fairness.vice,,,,,0,6,6,6,,,,,,,,,,,,,,,,,,,,,,,AMP,left,0.9671524302102625,,,left,0,0.9671524302102625,0,,,,,,,,,,,,,,,,,,,,1007,2019_Mar_06_0950,mf_amp_cond1,3.0.4,59.985224807361156,
sexual,synchronazers,&&&&&&&&&&&&&,right,sanctity.vice,,,,,0,7,7,7,,,,,,,,,,,,,,,,,,,,,,,AMP,right,0.43370447133202106,,,right,1,0.43370447133202106,1,,,,,,,,,,,,,,,,,,,,1007,2019_Mar_06_0950,mf_amp_cond1,3.0.4,59.985224807361156,
forced,Loorish,&&&&&&&,right,fairness.vice,,,,,0,8,8,8,,,,,,,,,,,,,,,,,,,,,,,AMP,left,0.700431497534737,,,left,0,0.700431497534737,0,,,,,,,,,,,,,,,,,,,,1007,2019_Mar_06_0950,mf_amp_cond1,3.0.4,59.985224807361156,
smapper,nackers,&&&&&&&,None,nonword,,,,,0,9,9,9,,,,,,,,,,,,,,,,,,,,,,,AMP,right,0.6671022053342313,,,right,0,0.6671022053342313,0,,,,,,,,,,,,,,,,,,,,1007,2019_Mar_06_0950,mf_amp_cond1,3.0.4,59.985224807361156,
attacks,chared,&&&&&&,right,care.vice,,,,,0,10,10,10,,,,,,,,,,,,,,,,,,,,,,,AMP,left,1.3672796922037378,,,left,0,1.3672796922037378,0,,,,,,,,,,,,,,,,,,,,1007,2019_Mar_06_0950,mf_amp_cond1,3.0.4,59.985224807361156,
respect,antral,&&&&&&,left,sanctity.virtue,,,,,0,11,11,11,,,,,,,,,,,,,,,,,,,,,,,AMP,right,1.150541793438606,,,right,0,1.150541793438606,0,,,,,,,,,,,,,,,,,,,,1007,2019_Mar_06_0950,mf_amp_cond1,3.0.4,59.985224807361156,
groups,elduringly,&&&&&&&&&&,right,loyalty.vice,,,,,0,12,12,12,,,,,,,,,,,,,,,,,,,,,,,AMP,right,1.4673557671485469,,,right,1,1.4673557671485469,1,,,,,,,,,,,,,,,,,,,,1007,2019_Mar_06_0950,mf_amp_cond1,3.0.4,59.985224807361156,
died,ammessment,&&&&&&&&&&,right,care.vice,,,,,0,13,13,13,,,,,,,,,,,,,,,,,,,,,,,AMP,right,1.383936961647123,,,right,1,1.383936961647123,1,,,,,,,,,,,,,,,,,,,,1007,2019_Mar_06_0950,mf_amp_cond1,3.0.4,59.985224807361156,
critics,menizen,&&&&&&&,right,loyalty.vice,,,,,0,14,14,14,,,,,,,,,,,,,,,,,,,,,,,AMP,right,0.9838292637141421,,,right,1,0.9838292637141421,1,,,,,,,,,,,,,,,,,,,,1007,2019_Mar_06_0950,mf_amp_cond1,3.0.4,59.985224807361156,
pharing,neputized,&&&&&&&&&,None,nonword,,,,,0,15,15,15,,,,,,,,,,,,,,,,,,,,,,,AMP,left,1.367261731880717,,,left,0,1.367261731880717,0,,,,,,,,,,,,,,,,,,,,1007,2019_Mar_06_0950,mf_amp_cond1,3.0.4,59.985224807361156,
freedom,wump,&&&&,left,sanctity.virtue,,,,,0,16,16,16,,,,,,,,,,,,,,,,,,,,,,,AMP,right,0.967154675279744,,,right,0,0.967154675279744,0,,,,,,,,,,,,,,,,,,,,1007,2019_Mar_06_0950,mf_amp_cond1,3.0.4,59.985224807361156,
actively,sliptery,&&&&&&&&,left,authority.virtue,,,,,0,17,17,17,,,,,,,,,,,,,,,,,,,,,,,AMP,right,1.0838556269882247,,,right,0,1.0838556269882247,0,,,,,,,,,,,,,,,,,,,,1007,2019_Mar_06_0950,mf_amp_cond1,3.0.4,59.985224807361156,
fair,focomotive,&&&&&&&&&&,left,fairness.virtue,,,,,0,18,18,18,,,,,,,,,,,,,,,,,,,,,,,AMP,right,0.9004842240829021,,,right,0,0.9004842240829021,0,,,,,,,,,,,,,,,,,,,,1007,2019_Mar_06_0950,mf_amp_cond1,3.0.4,59.985224807361156,
rebels,simplustic,&&&&&&&&&&,right,authority.vice,,,,,0,19,19,19,,,,,,,,,,,,,,,,,,,,,,,AMP,left,1.2005479192594066,,,left,0,1.2005479192594066,0,,,,,,,,,,,,,,,,,,,,1007,2019_Mar_06_0950,mf_amp_cond1,3.0.4,59.985224807361156,
infet,scalbel,&&&&&&&,None,nonword,,,,,0,20,20,20,,,,,,,,,,,,,,,,,,,,,,,AMP,left,0.5503861797042191,,,left,0,0.5503861797042191,0,,,,,,,,,,,,,,,,,,,,1007,2019_Mar_06_0950,mf_amp_cond1,3.0.4,59.985224807361156,
officers,tenuflect,&&&&&&&&&,right,authority.vice,,,,,0,21,21,21,,,,,,,,,,,,,,,,,,,,,,,AMP,left,0.6337366716470569,,,left,0,0.6337366716470569,0,,,,,,,,,,,,,,,,,,,,1007,2019_Mar_06_0950,mf_amp_cond1,3.0.4,59.985224807361156,
useful,leact,&&&&&,left,authority.virtue,,,,,0,22,22,22,,,,,,,,,,,,,,,,,,,,,,,AMP,right,0.4003575394162908,,,right,0,0.4003575394162908,0,,,,,,,,,,,,,,,,,,,,1007,2019_Mar_06_0950,mf_amp_cond1,3.0.4,59.985224807361156,
voter,divility,&&&&&&&&,right,fairness.vice,,,,,0,23,23,23,,,,,,,,,,,,,,,,,,,,,,,AMP,right,0.6504000349668786,,,right,1,0.6504000349668786,1,,,,,,,,,,,,,,,,,,,,1007,2019_Mar_06_0950,mf_amp_cond1,3.0.4,59.985224807361156,
compassion,ejanulated,&&&&&&&&&&,left,care.virtue,,,,,0,24,24,24,,,,,,,,,,,,,,,,,,,,,,,AMP,left,0.5503749545896426,,,left,1,0.5503749545896426,1,,,,,,,,,,,,,,,,,,,,1007,2019_Mar_06_0950,mf_amp_cond1,3.0.4,59.985224807361156,
gun,totalestic,&&&&&&&&&&,right,authority.vice,,,,,0,25,25,25,,,,,,,,,,,,,,,,,,,,,,,AMP,right,0.38368198880925775,,,right,1,0.38368198880925775,1,,,,,,,,,,,,,,,,,,,,1007,2019_Mar_06_0950,mf_amp_cond1,3.0.4,59.985224807361156,
civilians,emassion,&&&&&&&&,right,care.vice,,,,,0,26,26,26,,,,,,,,,,,,,,,,,,,,,,,AMP,left,0.35034243355039507,,,left,0,0.35034243355039507,0,,,,,,,,,,,,,,,,,,,,1007,2019_Mar_06_0950,mf_amp_cond1,3.0.4,59.985224807361156,
commitment,lursuer,&&&&&&&,left,sanctity.virtue,,,,,0,27,27,27,,,,,,,,,,,,,,,,,,,,,,,AMP,right,0.8671270291088149,,,right,0,0.8671270291088149,0,,,,,,,,,,,,,,,,,,,,1007,2019_Mar_06_0950,mf_amp_cond1,3.0.4,59.985224807361156,
praised,reprisols,&&&&&&&&&,left,loyalty.virtue,,,,,0,28,28,28,,,,,,,,,,,,,,,,,,,,,,,AMP,left,0.8004437491763383,,,left,1,0.8004437491763383,1,,,,,,,,,,,,,,,,,,,,1007,2019_Mar_06_0950,mf_amp_cond1,3.0.4,59.985224807361156,
harassment,gondensed,&&&&&&&&&,right,sanctity.vice,,,,,0,29,29,29,,,,,,,,,,,,,,,,,,,,,,,AMP,right,1.1672195891151205,,,right,1,1.1672195891151205,1,,,,,,,,,,,,,,,,,,,,1007,2019_Mar_06_0950,mf_amp_cond1,3.0.4,59.985224807361156,
terrorist,sickyay,&&&&&&&,right,loyalty.vice,,,,,0,30,30,30,,,,,,,,,,,,,,,,,,,,,,,AMP,right,1.1672064395388588,,,right,1,1.1672064395388588,1,,,,,,,,,,,,,,,,,,,,1007,2019_Mar_06_0950,mf_amp_cond1,3.0.4,59.985224807361156,
increase,vurtain,&&&&&&&,left,care.virtue,,,,,0,31,31,31,,,,,,,,,,,,,,,,,,,,,,,AMP,left,0.667085527908057,,,left,1,0.667085527908057,1,,,,,,,,,,,,,,,,,,,,1007,2019_Mar_06_0950,mf_amp_cond1,3.0.4,59.985224807361156,
illegal,gowlands,&&&&&&&&,right,fairness.vice,,,,,0,32,32,32,,,,,,,,,,,,,,,,,,,,,,,AMP,right,0.5170402100775391,,,right,1,0.5170402100775391,1,,,,,,,,,,,,,,,,,,,,1007,2019_Mar_06_0950,mf_amp_cond1,3.0.4,59.985224807361156,
violence,lempestuous,&&&&&&&&&&&,right,care.vice,,,,,0,33,33,33,,,,,,,,,,,,,,,,,,,,,,,AMP,left,0.61706625262741,,,left,0,0.61706625262741,0,,,,,,,,,,,,,,,,,,,,1007,2019_Mar_06_0950,mf_amp_cond1,3.0.4,59.985224807361156,
epigrach,proached,&&&&&&&&,None,nonword,,,,,0,34,34,34,,,,,,,,,,,,,,,,,,,,,,,AMP,right,0.9170937062008306,,,right,0,0.9170937062008306,0,,,,,,,,,,,,,,,,,,,,1007,2019_Mar_06_0950,mf_amp_cond1,3.0.4,59.985224807361156,
serial,gillipede,&&&&&&&&&,right,sanctity.vice,,,,,0,35,35,35,,,,,,,,,,,,,,,,,,,,,,,AMP,left,0.46704338514246047,,,left,0,0.46704338514246047,0,,,,,,,,,,,,,,,,,,,,1007,2019_Mar_06_0950,mf_amp_cond1,3.0.4,59.985224807361156,
praise,baklara,&&&&&&&,left,authority.virtue,,,,,0,36,36,36,,,,,,,,,,,,,,,,,,,,,,,AMP,right,0.6837774352170527,,,right,0,0.6837774352170527,0,,,,,,,,,,,,,,,,,,,,1007,2019_Mar_06_0950,mf_amp_cond1,3.0.4,59.985224807361156,
win,frojecting,&&&&&&&&&&,left,fairness.virtue,,,,,0,37,37,37,,,,,,,,,,,,,,,,,,,,,,,AMP,right,0.9838331124046817,,,right,0,0.9838331124046817,0,,,,,,,,,,,,,,,,,,,,1007,2019_Mar_06_0950,mf_amp_cond1,3.0.4,59.985224807361156,
ronviolence,uller,&&&&&,None,nonword,,,,,0,38,38,38,,,,,,,,,,,,,,,,,,,,,,,AMP,left,1.0005028899759054,,,left,0,1.0005028899759054,0,,,,,,,,,,,,,,,,,,,,1007,2019_Mar_06_0950,mf_amp_cond1,3.0.4,59.985224807361156,
prison,pafer,&&&&&,right,fairness.vice,,,,,0,39,39,39,,,,,,,,,,,,,,,,,,,,,,,AMP,right,0.4503636652370915,,,right,1,0.4503636652370915,1,,,,,,,,,,,,,,,,,,,,1007,2019_Mar_06_0950,mf_amp_cond1,3.0.4,59.985224807361156,
promote,presentkess,&&&&&&&&&&&,left,sanctity.virtue,,,,,0,40,40,40,,,,,,,,,,,,,,,,,,,,,,,AMP,right,0.35034339560661465,,,right,0,0.35034339560661465,0,,,,,,,,,,,,,,,,,,,,1007,2019_Mar_06_0950,mf_amp_cond1,3.0.4,59.985224807361156,
love,chadows,&&&&&&&,left,loyalty.virtue,,,,,0,41,41,41,,,,,,,,,,,,,,,,,,,,,,,AMP,left,0.7004250831669196,,,left,1,0.7004250831669196,1,,,,,,,,,,,,,,,,,,,,1007,2019_Mar_06_0950,mf_amp_cond1,3.0.4,59.985224807361156,
encourage,alar,&&&&,left,authority.virtue,,,,,0,42,42,42,,,,,,,,,,,,,,,,,,,,,,,AMP,right,0.733764959149994,,,right,0,0.733764959149994,0,,,,,,,,,,,,,,,,,,,,1007,2019_Mar_06_0950,mf_amp_cond1,3.0.4,59.985224807361156,
rejected,thadowed,&&&&&&&&,right,authority.vice,,,,,0,43,43,43,,,,,,,,,,,,,,,,,,,,,,,AMP,right,0.61707619484514,,,right,1,0.61707619484514,1,,,,,,,,,,,,,,,,,,,,1007,2019_Mar_06_0950,mf_amp_cond1,3.0.4,59.985224807361156,
help,openet,&&&&&&,left,care.virtue,,,,,0,44,44,44,,,,,,,,,,,,,,,,,,,,,,,AMP,right,0.4503572507528588,,,right,0,0.4503572507528588,0,,,,,,,,,,,,,,,,,,,,1007,2019_Mar_06_0950,mf_amp_cond1,3.0.4,59.985224807361156,
ban,saned,&&&&&,right,loyalty.vice,,,,,0,45,45,45,,,,,,,,,,,,,,,,,,,,,,,AMP,right,0.4003581808647141,,,right,1,0.4003581808647141,1,,,,,,,,,,,,,,,,,,,,1007,2019_Mar_06_0950,mf_amp_cond1,3.0.4,59.985224807361156,
interests,vicissifude,&&&&&&&&&&&,left,fairness.virtue,,,,,0,46,46,46,,,,,,,,,,,,,,,,,,,,,,,AMP,left,0.5337622651131824,,,left,1,0.5337622651131824,1,,,,,,,,,,,,,,,,,,,,1007,2019_Mar_06_0950,mf_amp_cond1,3.0.4,59.985224807361156,
gikely,brudent,&&&&&&&,None,nonword,,,,,0,47,47,47,,,,,,,,,,,,,,,,,,,,,,,AMP,left,0.8504582135938108,,,left,0,0.8504582135938108,0,,,,,,,,,,,,,,,,,,,,1007,2019_Mar_06_0950,mf_amp_cond1,3.0.4,59.985224807361156,
credit,unscothed,&&&&&&&&&,left,fairness.virtue,,,,,0,48,48,48,,,,,,,,,,,,,,,,,,,,,,,AMP,right,0.15029227279592305,,,right,0,0.15029227279592305,0,,,,,,,,,,,,,,,,,,,,1007,2019_Mar_06_0950,mf_amp_cond1,3.0.4,59.985224807361156,
intelligence,crinking,&&&&&&&&,left,loyalty.virtue,,,,,0,49,49,49,,,,,,,,,,,,,,,,,,,,,,,AMP,left,0.3503421127097681,,,left,1,0.3503421127097681,1,,,,,,,,,,,,,,,,,,,,1007,2019_Mar_06_0950,mf_amp_cond1,3.0.4,59.985224807361156,
peaceful,bruthfulness,&&&&&&&&&&&&,left,authority.virtue,,,,,0,50,50,50,,,,,,,,,,,,,,,,,,,,,,,AMP,right,0.40034599346108735,,,right,0,0.40034599346108735,0,,,,,,,,,,,,,,,,,,,,1007,2019_Mar_06_0950,mf_amp_cond1,3.0.4,59.985224807361156,
restore,prones,&&&&&&,left,care.virtue,,,,,0,51,51,51,,,,,,,,,,,,,,,,,,,,,,,AMP,left,0.4836846187245101,,,left,1,0.4836846187245101,1,,,,,,,,,,,,,,,,,,,,1007,2019_Mar_06_0950,mf_amp_cond1,3.0.4,59.985224807361156,
energy,pullness,&&&&&&&&,left,sanctity.virtue,,,,,0,52,52,52,,,,,,,,,,,,,,,,,,,,,,,AMP,left,0.4503691174322739,,,left,1,0.4503691174322739,1,,,,,,,,,,,,,,,,,,,,1007,2019_Mar_06_0950,mf_amp_cond1,3.0.4,59.985224807361156,
charges,letish,&&&&&&,right,fairness.vice,,,,,0,53,53,53,,,,,,,,,,,,,,,,,,,,,,,AMP,right,0.33366239280439913,,,right,1,0.33366239280439913,1,,,,,,,,,,,,,,,,,,,,1007,2019_Mar_06_0950,mf_amp_cond1,3.0.4,59.985224807361156,
progress,photocalkodes,&&&&&&&&&&&&&,left,authority.virtue,,,,,0,54,54,54,,,,,,,,,,,,,,,,,,,,,,,AMP,right,0.38368808245286345,,,right,0,0.38368808245286345,0,,,,,,,,,,,,,,,,,,,,1007,2019_Mar_06_0950,mf_amp_cond1,3.0.4,59.985224807361156,
integrity,hatigue,&&&&&&&,left,fairness.virtue,,,,,0,55,55,55,,,,,,,,,,,,,,,,,,,,,,,AMP,right,0.3503385848598555,,,right,0,0.3503385848598555,0,,,,,,,,,,,,,,,,,,,,1007,2019_Mar_06_0950,mf_amp_cond1,3.0.4,59.985224807361156,
safe,tomedians,&&&&&&&&&,left,care.virtue,,,,,0,56,56,56,,,,,,,,,,,,,,,,,,,,,,,AMP,left,0.36700900399591774,,,left,1,0.36700900399591774,1,,,,,,,,,,,,,,,,,,,,1007,2019_Mar_06_0950,mf_amp_cond1,3.0.4,59.985224807361156,
pleasant,discovars,&&&&&&&&&,None,control,,,,,0,57,57,57,,,,,,,,,,,,,,,,,,,,,,,AMP,right,0.40036267088726163,,,right,0,0.40036267088726163,0,,,,,,,,,,,,,,,,,,,,1007,2019_Mar_06_0950,mf_amp_cond1,3.0.4,59.985224807361156,
protect,egpeditious,&&&&&&&&&&&,left,fairness.virtue,,,,,0,58,58,58,,,,,,,,,,,,,,,,,,,,,,,AMP,right,0.45036334451287985,,,right,0,0.45036334451287985,0,,,,,,,,,,,,,,,,,,,,1007,2019_Mar_06_0950,mf_amp_cond1,3.0.4,59.985224807361156,
party,erdest,&&&&&&,left,loyalty.virtue,,,,,0,59,59,59,,,,,,,,,,,,,,,,,,,,,,,AMP,left,0.3170256493613124,,,left,1,0.3170256493613124,1,,,,,,,,,,,,,,,,,,,,1007,2019_Mar_06_0950,mf_amp_cond1,3.0.4,59.985224807361156,
loyalty,carvels,&&&&&&&,left,loyalty.virtue,,,,,0,60,60,60,,,,,,,,,,,,,,,,,,,,,,,AMP,right,0.28363958944100887,,,right,0,0.28363958944100887,0,,,,,,,,,,,,,,,,,,,,1007,2019_Mar_06_0950,mf_amp_cond1,3.0.4,59.985224807361156,
victim,seachwear,&&&&&&&&&,right,care.vice,,,,,0,61,61,61,,,,,,,,,,,,,,,,,,,,,,,AMP,right,0.3170070475898683,,,right,1,0.3170070475898683,1,,,,,,,,,,,,,,,,,,,,1007,2019_Mar_06_0950,mf_amp_cond1,3.0.4,59.985224807361156,
faith,sidearbs,&&&&&&&&,left,sanctity.virtue,,,,,0,62,62,62,,,,,,,,,,,,,,,,,,,,,,,AMP,left,1.3506265920586884,,,left,1,1.3506265920586884,1,,,,,,,,,,,,,,,,,,,,1007,2019_Mar_06_0950,mf_amp_cond1,3.0.4,59.985224807361156,
abuse,ilportation,&&&&&&&&&&&,right,sanctity.vice,,,,,0,63,63,63,,,,,,,,,,,,,,,,,,,,,,,AMP,right,0.6337604050058872,,,right,1,0.6337604050058872,1,,,,,,,,,,,,,,,,,,,,1007,2019_Mar_06_0950,mf_amp_cond1,3.0.4,59.985224807361156,
hefurbished,cromiscuity,&&&&&&&&&&&,None,nonword,,,,,0,64,64,64,,,,,,,,,,,,,,,,,,,,,,,AMP,left,0.4837038619443774,,,left,0,0.4837038619443774,0,,,,,,,,,,,,,,,,,,,,1007,2019_Mar_06_0950,mf_amp_cond1,3.0.4,59.985224807361156,
growth,unreflectuve,&&&&&&&&&&&&,left,care.virtue,,,,,0,65,65,65,,,,,,,,,,,,,,,,,,,,,,,AMP,right,0.3836935347644612,,,right,0,0.3836935347644612,0,,,,,,,,,,,,,,,,,,,,1007,2019_Mar_06_0950,mf_amp_cond1,3.0.4,59.985224807361156,
police,Daptist,&&&&&&&,right,authority.vice,,,,,0,66,66,66,,,,,,,,,,,,,,,,,,,,,,,AMP,right,0.4003530493937433,,,right,1,0.4003530493937433,1,,,,,,,,,,,,,,,,,,,,1007,2019_Mar_06_0950,mf_amp_cond1,3.0.4,59.985224807361156,
violations,dumid,&&&&&,right,sanctity.vice,,,,,0,67,67,67,,,,,,,,,,,,,,,,,,,,,,,AMP,left,0.517030909191817,,,left,0,0.517030909191817,0,,,,,,,,,,,,,,,,,,,,1007,2019_Mar_06_0950,mf_amp_cond1,3.0.4,59.985224807361156,
support,neutralust,&&&&&&&&&&,left,loyalty.virtue,,,,,0,68,68,68,,,,,,,,,,,,,,,,,,,,,,,AMP,right,0.5337180057540536,,,right,0,0.5337180057540536,0,,,,,,,,,,,,,,,,,,,,1007,2019_Mar_06_0950,mf_amp_cond1,3.0.4,59.985224807361156,
promised,nuckheap,&&&&&&&&,left,loyalty.virtue,,,,,0,69,69,69,,,,,,,,,,,,,,,,,,,,,,,AMP,right,0.3836848752107471,,,right,0,0.3836848752107471,0,,,,,,,,,,,,,,,,,,,,1007,2019_Mar_06_0950,mf_amp_cond1,3.0.4,59.985224807361156,
war,shoirmaster,&&&&&&&&&&&,right,sanctity.vice,,,,,0,70,70,70,,,,,,,,,,,,,,,,,,,,,,,AMP,left,0.4670424230862409,,,left,0,0.4670424230862409,0,,,,,,,,,,,,,,,,,,,,1007,2019_Mar_06_0950,mf_amp_cond1,3.0.4,59.985224807361156,
failure,ecgagement,&&&&&&&&&&,right,loyalty.vice,,,,,0,71,71,71,,,,,,,,,,,,,,,,,,,,,,,AMP,right,0.46704498876351863,,,right,1,0.46704498876351863,1,,,,,,,,,,,,,,,,,,,,1007,2019_Mar_06_0950,mf_amp_cond1,3.0.4,59.985224807361156,
hasks,scock,&&&&&,None,nonword,,,,,0,72,72,72,,,,,,,,,,,,,,,,,,,,,,,AMP,right,0.7671272857114673,,,right,0,0.7671272857114673,0,,,,,,,,,,,,,,,,,,,,1007,2019_Mar_06_0950,mf_amp_cond1,3.0.4,59.985224807361156,
Oregoniuns,thabbily,&&&&&&&&,None,nonword,,,,,0,73,73,73,,,,,,,,,,,,,,,,,,,,,,,AMP,right,0.6504253718303517,,,right,0,0.6504253718303517,0,,,,,,,,,,,,,,,,,,,,1007,2019_Mar_06_0950,mf_amp_cond1,3.0.4,59.985224807361156,
black,mecan,&&&&&,right,loyalty.vice,,,,,0,74,74,74,,,,,,,,,,,,,,,,,,,,,,,AMP,left,0.5003858269192278,,,left,0,0.5003858269192278,0,,,,,,,,,,,,,,,,,,,,1007,2019_Mar_06_0950,mf_amp_cond1,3.0.4,59.985224807361156,
shot,reelectiob,&&&&&&&&&&,right,care.vice,,,,,0,75,75,75,,,,,,,,,,,,,,,,,,,,,,,AMP,right,0.8504482712596655,,,right,1,0.8504482712596655,1,,,,,,,,,,,,,,,,,,,,1007,2019_Mar_06_0950,mf_amp_cond1,3.0.4,59.985224807361156,
army,metibolic,&&&&&&&&&,right,loyalty.vice,,,,,0,76,76,76,,,,,,,,,,,,,,,,,,,,,,,AMP,right,0.8337974161840975,,,right,1,0.8337974161840975,1,,,,,,,,,,,,,,,,,,,,1007,2019_Mar_06_0950,mf_amp_cond1,3.0.4,59.985224807361156,
improve,forepo,&&&&&&,left,care.virtue,,,,,0,77,77,77,,,,,,,,,,,,,,,,,,,,,,,AMP,right,0.350339867756702,,,right,0,0.350339867756702,0,,,,,,,,,,,,,,,,,,,,1007,2019_Mar_06_0950,mf_amp_cond1,3.0.4,59.985224807361156,
touls,dramens,&&&&&&&,None,nonword,,,,,0,78,78,78,,,,,,,,,,,,,,,,,,,,,,,AMP,right,0.5837292630458251,,,right,0,0.5837292630458251,0,,,,,,,,,,,,,,,,,,,,1007,2019_Mar_06_0950,mf_amp_cond1,3.0.4,59.985224807361156,
victims,ebbitter,&&&&&&&&,right,care.vice,,,,,0,79,79,79,,,,,,,,,,,,,,,,,,,,,,,AMP,left,0.63378766621463,,,left,0,0.63378766621463,0,,,,,,,,,,,,,,,,,,,,1007,2019_Mar_06_0950,mf_amp_cond1,3.0.4,59.985224807361156,
drug,allears,&&&&&&&,right,sanctity.vice,,,,,0,80,80,80,,,,,,,,,,,,,,,,,,,,,,,AMP,right,0.3503321703756228,,,right,1,0.3503321703756228,1,,,,,,,,,,,,,,,,,,,,1007,2019_Mar_06_0950,mf_amp_cond1,3.0.4,59.985224807361156,
refused,oam,&&&,right,authority.vice,,,,,0,81,81,81,,,,,,,,,,,,,,,,,,,,,,,AMP,right,0.783770764246583,,,right,1,0.783770764246583,1,,,,,,,,,,,,,,,,,,,,1007,2019_Mar_06_0950,mf_amp_cond1,3.0.4,59.985224807361156,
officers,sidearbs,&&&&&&&&,right,authority.vice,,,,,0,82,82,82,,,,,,,,,,,,,,,,,,,,,,,AMP,left,0.8171148096444085,,,left,0,0.8171148096444085,0,,,,,,,,,,,,,,,,,,,,1007,2019_Mar_06_0950,mf_amp_cond1,3.0.4,59.985224807361156,
integrity,brudent,&&&&&&&,left,fairness.virtue,,,,,0,83,83,83,,,,,,,,,,,,,,,,,,,,,,,AMP,right,0.3169926150003448,,,right,0,0.3169926150003448,0,,,,,,,,,,,,,,,,,,,,1007,2019_Mar_06_0950,mf_amp_cond1,3.0.4,59.985224807361156,
loyalty,proached,&&&&&&&&,left,loyalty.virtue,,,,,0,84,84,84,,,,,,,,,,,,,,,,,,,,,,,AMP,right,0.6004250190453604,,,right,0,0.6004250190453604,0,,,,,,,,,,,,,,,,,,,,1007,2019_Mar_06_0950,mf_amp_cond1,3.0.4,59.985224807361156,
hefurbished,neputized,&&&&&&&&&,None,nonword,,,,,0,85,85,85,,,,,,,,,,,,,,,,,,,,,,,AMP,left,0.5503271671477705,,,left,0,0.5503271671477705,0,,,,,,,,,,,,,,,,,,,,1007,2019_Mar_06_0950,mf_amp_cond1,3.0.4,59.985224807361156,
gun,uller,&&&&&,right,authority.vice,,,,,0,86,86,86,,,,,,,,,,,,,,,,,,,,,,,AMP,right,0.5337026111083105,,,right,1,0.5337026111083105,1,,,,,,,,,,,,,,,,,,,,1007,2019_Mar_06_0950,mf_amp_cond1,3.0.4,59.985224807361156,
victim,slending,&&&&&&&&,right,care.vice,,,,,0,87,87,87,,,,,,,,,,,,,,,,,,,,,,,AMP,right,0.36701124894898385,,,right,1,0.36701124894898385,1,,,,,,,,,,,,,,,,,,,,1007,2019_Mar_06_0950,mf_amp_cond1,3.0.4,59.985224807361156,
useful,ilportation,&&&&&&&&&&&,left,authority.virtue,,,,,0,88,88,88,,,,,,,,,,,,,,,,,,,,,,,AMP,right,0.36701221112161875,,,right,0,0.36701221112161875,0,,,,,,,,,,,,,,,,,,,,1007,2019_Mar_06_0950,mf_amp_cond1,3.0.4,59.985224807361156,
lies,tenuflect,&&&&&&&&&,right,fairness.vice,,,,,0,89,89,89,,,,,,,,,,,,,,,,,,,,,,,AMP,right,0.4837000132538378,,,right,1,0.4837000132538378,1,,,,,,,,,,,,,,,,,,,,1007,2019_Mar_06_0950,mf_amp_cond1,3.0.4,59.985224807361156,
restore,menizen,&&&&&&&,left,care.virtue,,,,,0,90,90,90,,,,,,,,,,,,,,,,,,,,,,,AMP,left,0.5337122327182442,,,left,1,0.5337122327182442,1,,,,,,,,,,,,,,,,,,,,1007,2019_Mar_06_0950,mf_amp_cond1,3.0.4,59.985224807361156,
ban,lursuer,&&&&&&&,right,loyalty.vice,,,,,0,91,91,91,,,,,,,,,,,,,,,,,,,,,,,AMP,right,1.2672417829744518,,,right,1,1.2672417829744518,1,,,,,,,,,,,,,,,,,,,,1007,2019_Mar_06_0950,mf_amp_cond1,3.0.4,59.985224807361156,
epigrach,mecan,&&&&&,None,nonword,,,,,0,92,92,92,,,,,,,,,,,,,,,,,,,,,,,AMP,right,0.3836848752107471,,,right,0,0.3836848752107471,0,,,,,,,,,,,,,,,,,,,,1007,2019_Mar_06_0950,mf_amp_cond1,3.0.4,59.985224807361156,
safe,ablow,&&&&&,left,care.virtue,,,,,0,93,93,93,,,,,,,,,,,,,,,,,,,,,,,AMP,left,0.6670816792175174,,,left,1,0.6670816792175174,1,,,,,,,,,,,,,,,,,,,,1007,2019_Mar_06_0950,mf_amp_cond1,3.0.4,59.985224807361156,
died,ebbitter,&&&&&&&&,right,care.vice,,,,,0,94,94,94,,,,,,,,,,,,,,,,,,,,,,,AMP,right,0.4170282791601494,,,right,1,0.4170282791601494,1,,,,,,,,,,,,,,,,,,,,1007,2019_Mar_06_0950,mf_amp_cond1,3.0.4,59.985224807361156,
compassion,sickyay,&&&&&&&,left,care.virtue,,,,,0,95,95,95,,,,,,,,,,,,,,,,,,,,,,,AMP,right,0.783799629076384,,,right,0,0.783799629076384,0,,,,,,,,,,,,,,,,,,,,1007,2019_Mar_06_0950,mf_amp_cond1,3.0.4,59.985224807361156,
prison,nuckheap,&&&&&&&&,right,fairness.vice,,,,,0,96,96,96,,,,,,,,,,,,,,,,,,,,,,,AMP,right,0.7504571872996166,,,right,1,0.7504571872996166,1,,,,,,,,,,,,,,,,,,,,1007,2019_Mar_06_0950,mf_amp_cond1,3.0.4,59.985224807361156,
army,presentkess,&&&&&&&&&&&,right,loyalty.vice,,,,,0,97,97,97,,,,,,,,,,,,,,,,,,,,,,,AMP,left,1.3672729569952935,,,left,0,1.3672729569952935,0,,,,,,,,,,,,,,,,,,,,1007,2019_Mar_06_0950,mf_amp_cond1,3.0.4,59.985224807361156,
shot,dumid,&&&&&,right,care.vice,,,,,0,98,98,98,,,,,,,,,,,,,,,,,,,,,,,AMP,right,1.6339833057718351,,,right,1,1.6339833057718351,1,,,,,,,,,,,,,,,,,,,,1007,2019_Mar_06_0950,mf_amp_cond1,3.0.4,59.985224807361156,
terrorist,antral,&&&&&&,right,loyalty.vice,,,,,0,99,99,99,,,,,,,,,,,,,,,,,,,,,,,AMP,right,1.717340532806702,,,right,1,1.717340532806702,1,,,,,,,,,,,,,,,,,,,,1007,2019_Mar_06_0950,mf_amp_cond1,3.0.4,59.985224807361156,
smapper,oam,&&&,None,nonword,,,,,0,100,100,100,,,,,,,,,,,,,,,,,,,,,,,AMP,left,0.9171434178715572,,,left,0,0.9171434178715572,0,,,,,,,,,,,,,,,,,,,,1007,2019_Mar_06_0950,mf_amp_cond1,3.0.4,59.985224807361156,
voter,Phintoism,&&&&&&&&&,right,fairness.vice,,,,,0,101,101,101,,,,,,,,,,,,,,,,,,,,,,,AMP,right,0.3836855166591704,,,right,1,0.3836855166591704,1,,,,,,,,,,,,,,,,,,,,1007,2019_Mar_06_0950,mf_amp_cond1,3.0.4,59.985224807361156,
illegal,focomotive,&&&&&&&&&&,right,fairness.vice,,,,,0,102,102,102,,,,,,,,,,,,,,,,,,,,,,,AMP,right,1.0005554881645367,,,right,1,1.0005554881645367,1,,,,,,,,,,,,,,,,,,,,1007,2019_Mar_06_0950,mf_amp_cond1,3.0.4,59.985224807361156,
energy,elduringly,&&&&&&&&&&,left,sanctity.virtue,,,,,0,103,103,103,,,,,,,,,,,,,,,,,,,,,,,AMP,right,0.7671417181845754,,,right,0,0.7671417181845754,0,,,,,,,,,,,,,,,,,,,,1007,2019_Mar_06_0950,mf_amp_cond1,3.0.4,59.985224807361156,
promised,dramens,&&&&&&&,left,loyalty.virtue,,,,,0,104,104,104,,,,,,,,,,,,,,,,,,,,,,,AMP,left,0.5670508259208873,,,left,1,0.5670508259208873,1,,,,,,,,,,,,,,,,,,,,1007,2019_Mar_06_0950,mf_amp_cond1,3.0.4,59.985224807361156,
win,nackers,&&&&&&&,left,fairness.virtue,,,,,0,105,105,105,,,,,,,,,,,,,,,,,,,,,,,AMP,left,1.617327639949508,,,left,1,1.617327639949508,1,,,,,,,,,,,,,,,,,,,,1007,2019_Mar_06_0950,mf_amp_cond1,3.0.4,59.985224807361156,
Oregoniuns,brotesque,&&&&&&&&&,None,nonword,,,,,0,106,106,106,,,,,,,,,,,,,,,,,,,,,,,AMP,right,0.4170302035054192,,,right,0,0.4170302035054192,0,,,,,,,,,,,,,,,,,,,,1007,2019_Mar_06_0950,mf_amp_cond1,3.0.4,59.985224807361156,
failure,chared,&&&&&&,right,loyalty.vice,,,,,0,107,107,107,,,,,,,,,,,,,,,,,,,,,,,AMP,right,0.38353253284003586,,,right,1,0.38353253284003586,1,,,,,,,,,,,,,,,,,,,,1007,2019_Mar_06_0950,mf_amp_cond1,3.0.4,59.985224807361156,
party,metibolic,&&&&&&&&&,left,loyalty.virtue,,,,,0,108,108,108,,,,,,,,,,,,,,,,,,,,,,,AMP,right,0.6670890557579696,,,right,0,0.6670890557579696,0,,,,,,,,,,,,,,,,,,,,1007,2019_Mar_06_0950,mf_amp_cond1,3.0.4,59.985224807361156,
rejected,alar,&&&&,right,authority.vice,,,,,0,109,109,109,,,,,,,,,,,,,,,,,,,,,,,AMP,left,1.0338453318690881,,,left,0,1.0338453318690881,0,,,,,,,,,,,,,,,,,,,,1007,2019_Mar_06_0950,mf_amp_cond1,3.0.4,59.985224807361156,
war,pullness,&&&&&&&&,right,sanctity.vice,,,,,0,110,110,110,,,,,,,,,,,,,,,,,,,,,,,AMP,left,0.8504995865514502,,,left,0,0.8504995865514502,0,,,,,,,,,,,,,,,,,,,,1007,2019_Mar_06_0950,mf_amp_cond1,3.0.4,59.985224807361156,
riot,leact,&&&&&,right,authority.vice,,,,,0,111,111,111,,,,,,,,,,,,,,,,,,,,,,,AMP,right,0.4003498420352116,,,right,1,0.4003498420352116,1,,,,,,,,,,,,,,,,,,,,1007,2019_Mar_06_0950,mf_amp_cond1,3.0.4,59.985224807361156,
pharing,crilfully,&&&&&&&&&,None,nonword,,,,,0,112,112,112,,,,,,,,,,,,,,,,,,,,,,,AMP,left,0.4670693635707721,,,left,0,0.4670693635707721,0,,,,,,,,,,,,,,,,,,,,1007,2019_Mar_06_0950,mf_amp_cond1,3.0.4,59.985224807361156,
praised,baklara,&&&&&&&,left,loyalty.virtue,,,,,0,113,113,113,,,,,,,,,,,,,,,,,,,,,,,AMP,right,0.5503791238879785,,,right,0,0.5503791238879785,0,,,,,,,,,,,,,,,,,,,,1007,2019_Mar_06_0950,mf_amp_cond1,3.0.4,59.985224807361156,
black,unreflectuve,&&&&&&&&&&&&,right,loyalty.vice,,,,,0,114,114,114,,,,,,,,,,,,,,,,,,,,,,,AMP,left,0.7170890879351646,,,left,0,0.7170890879351646,0,,,,,,,,,,,,,,,,,,,,1007,2019_Mar_06_0950,mf_amp_cond1,3.0.4,59.985224807361156,
improve,tislay,&&&&&&,left,care.virtue,,,,,0,115,115,115,,,,,,,,,,,,,,,,,,,,,,,AMP,right,1.2005437498446554,,,right,0,1.2005437498446554,0,,,,,,,,,,,,,,,,,,,,1007,2019_Mar_06_0950,mf_amp_cond1,3.0.4,59.985224807361156,
police,lempestuous,&&&&&&&&&&&,right,authority.vice,,,,,0,116,116,116,,,,,,,,,,,,,,,,,,,,,,,AMP,left,0.46704691310878843,,,left,0,0.46704691310878843,0,,,,,,,,,,,,,,,,,,,,1007,2019_Mar_06_0950,mf_amp_cond1,3.0.4,59.985224807361156,
growth,reprisols,&&&&&&&&&,left,care.virtue,,,,,0,117,117,117,,,,,,,,,,,,,,,,,,,,,,,AMP,right,1.1005337432725355,,,right,0,1.1005337432725355,0,,,,,,,,,,,,,,,,,,,,1007,2019_Mar_06_0950,mf_amp_cond1,3.0.4,59.985224807361156,
harassment,thadowed,&&&&&&&&,right,sanctity.vice,,,,,0,118,118,118,,,,,,,,,,,,,,,,,,,,,,,AMP,left,0.7004359876736999,,,left,0,0.7004359876736999,0,,,,,,,,,,,,,,,,,,,,1007,2019_Mar_06_0950,mf_amp_cond1,3.0.4,59.985224807361156,
praise,gowlands,&&&&&&&&,left,authority.virtue,,,,,0,119,119,119,,,,,,,,,,,,,,,,,,,,,,,AMP,right,0.46703119785524905,,,right,0,0.46703119785524905,0,,,,,,,,,,,,,,,,,,,,1007,2019_Mar_06_0950,mf_amp_cond1,3.0.4,59.985224807361156,
gikely,thabbily,&&&&&&&&,None,nonword,,,,,0,120,120,120,,,,,,,,,,,,,,,,,,,,,,,AMP,right,0.6670832828385755,,,right,0,0.6670832828385755,0,,,,,,,,,,,,,,,,,,,,1007,2019_Mar_06_0950,mf_amp_cond1,3.0.4,59.985224807361156,
hasks,simplustic,&&&&&&&&&&,None,nonword,,,,,0,121,121,121,,,,,,,,,,,,,,,,,,,,,,,AMP,right,0.41701994044706225,,,right,0,0.41701994044706225,0,,,,,,,,,,,,,,,,,,,,1007,2019_Mar_06_0950,mf_amp_cond1,3.0.4,59.985224807361156,
protect,gondensed,&&&&&&&&&,left,fairness.virtue,,,,,0,122,122,122,,,,,,,,,,,,,,,,,,,,,,,AMP,left,0.9338414190569893,,,left,1,0.9338414190569893,1,,,,,,,,,,,,,,,,,,,,1007,2019_Mar_06_0950,mf_amp_cond1,3.0.4,59.985224807361156,
support,frojecting,&&&&&&&&&&,left,loyalty.virtue,,,,,0,123,123,123,,,,,,,,,,,,,,,,,,,,,,,AMP,right,0.983878654660657,,,right,0,0.983878654660657,0,,,,,,,,,,,,,,,,,,,,1007,2019_Mar_06_0950,mf_amp_cond1,3.0.4,59.985224807361156,
groups,ejanulated,&&&&&&&&&&,right,loyalty.vice,,,,,0,124,124,124,,,,,,,,,,,,,,,,,,,,,,,AMP,left,1.6506832311861217,,,left,0,1.6506832311861217,0,,,,,,,,,,,,,,,,,,,,1007,2019_Mar_06_0950,mf_amp_cond1,3.0.4,59.985224807361156,
help,synchronazers,&&&&&&&&&&&&&,left,care.virtue,,,,,0,125,125,125,,,,,,,,,,,,,,,,,,,,,,,AMP,right,1.033847256214358,,,right,0,1.033847256214358,0,,,,,,,,,,,,,,,,,,,,1007,2019_Mar_06_0950,mf_amp_cond1,3.0.4,59.985224807361156,
ability,chadows,&&&&&&&,left,authority.virtue,,,,,0,126,126,126,,,,,,,,,,,,,,,,,,,,,,,AMP,left,0.8838811563327909,,,left,1,0.8838811563327909,1,,,,,,,,,,,,,,,,,,,,1007,2019_Mar_06_0950,mf_amp_cond1,3.0.4,59.985224807361156,
faith,letish,&&&&&&,left,sanctity.virtue,,,,,0,127,127,127,,,,,,,,,,,,,,,,,,,,,,,AMP,left,1.1171903713839129,,,left,1,1.1171903713839129,1,,,,,,,,,,,,,,,,,,,,1007,2019_Mar_06_0950,mf_amp_cond1,3.0.4,59.985224807361156,
fair,hatigue,&&&&&&&,left,fairness.virtue,,,,,0,128,128,128,,,,,,,,,,,,,,,,,,,,,,,AMP,right,0.7671109290095046,,,right,0,0.7671109290095046,0,,,,,,,,,,,,,,,,,,,,1007,2019_Mar_06_0950,mf_amp_cond1,3.0.4,59.985224807361156,
infet,tomedians,&&&&&&&&&,None,nonword,,,,,0,129,129,129,,,,,,,,,,,,,,,,,,,,,,,AMP,left,0.7837932147085667,,,left,0,0.7837932147085667,0,,,,,,,,,,,,,,,,,,,,1007,2019_Mar_06_0950,mf_amp_cond1,3.0.4,59.985224807361156,
charges,ammessment,&&&&&&&&&&,right,fairness.vice,,,,,0,130,130,130,,,,,,,,,,,,,,,,,,,,,,,AMP,right,0.6004128316417336,,,right,1,0.6004128316417336,1,,,,,,,,,,,,,,,,,,,,1007,2019_Mar_06_0950,mf_amp_cond1,3.0.4,59.985224807361156,
serial,discovars,&&&&&&&&&,right,sanctity.vice,,,,,0,131,131,131,,,,,,,,,,,,,,,,,,,,,,,AMP,left,0.383685837383382,,,left,0,0.383685837383382,0,,,,,,,,,,,,,,,,,,,,1007,2019_Mar_06_0950,mf_amp_cond1,3.0.4,59.985224807361156,
pleasant,Loorish,&&&&&&&,None,control,,,,,0,132,132,132,,,,,,,,,,,,,,,,,,,,,,,AMP,left,0.48369648528750986,,,left,0,0.48369648528750986,0,,,,,,,,,,,,,,,,,,,,1007,2019_Mar_06_0950,mf_amp_cond1,3.0.4,59.985224807361156,
actively,carvels,&&&&&&&,left,authority.virtue,,,,,0,133,133,133,,,,,,,,,,,,,,,,,,,,,,,AMP,right,0.23364244389813393,,,right,0,0.23364244389813393,0,,,,,,,,,,,,,,,,,,,,1007,2019_Mar_06_0950,mf_amp_cond1,3.0.4,59.985224807361156,
abuse,photocalkodes,&&&&&&&&&&&&&,right,sanctity.vice,,,,,0,134,134,134,,,,,,,,,,,,,,,,,,,,,,,AMP,left,0.41702988278120756,,,left,0,0.41702988278120756,0,,,,,,,,,,,,,,,,,,,,1007,2019_Mar_06_0950,mf_amp_cond1,3.0.4,59.985224807361156,
victims,cromiscuity,&&&&&&&&&&&,right,care.vice,,,,,0,135,135,135,,,,,,,,,,,,,,,,,,,,,,,AMP,right,0.3170019160024822,,,right,1,0.3170019160024822,1,,,,,,,,,,,,,,,,,,,,1007,2019_Mar_06_0950,mf_amp_cond1,3.0.4,59.985224807361156,
unpleasant,scock,&&&&&,None,control,,,,,0,136,136,136,,,,,,,,,,,,,,,,,,,,,,,AMP,right,0.48372984025627375,,,right,0,0.48372984025627375,0,,,,,,,,,,,,,,,,,,,,1007,2019_Mar_06_0950,mf_amp_cond1,3.0.4,59.985224807361156,
intelligence,vurtain,&&&&&&&,left,loyalty.virtue,,,,,0,137,137,137,,,,,,,,,,,,,,,,,,,,,,,AMP,right,0.667081999941729,,,right,0,0.667081999941729,0,,,,,,,,,,,,,,,,,,,,1007,2019_Mar_06_0950,mf_amp_cond1,3.0.4,59.985224807361156,
commitment,wump,&&&&,left,sanctity.virtue,,,,,0,138,138,138,,,,,,,,,,,,,,,,,,,,,,,AMP,right,0.700441119261086,,,right,0,0.700441119261086,0,,,,,,,,,,,,,,,,,,,,1007,2019_Mar_06_0950,mf_amp_cond1,3.0.4,59.985224807361156,
touls,divility,&&&&&&&&,None,nonword,,,,,0,139,139,139,,,,,,,,,,,,,,,,,,,,,,,AMP,left,3.6845077163306996,,,left,0,3.6845077163306996,0,,,,,,,,,,,,,,,,,,,,1007,2019_Mar_06_0950,mf_amp_cond1,3.0.4,59.985224807361156,
credit,shoirmaster,&&&&&&&&&&&,left,fairness.virtue,,,,,0,140,140,140,,,,,,,,,,,,,,,,,,,,,,,AMP,right,0.8671360092703253,,,right,0,0.8671360092703253,0,,,,,,,,,,,,,,,,,,,,1007,2019_Mar_06_0950,mf_amp_cond1,3.0.4,59.985224807361156,
peaceful,seachwear,&&&&&&&&&,left,authority.virtue,,,,,0,141,141,141,,,,,,,,,,,,,,,,,,,,,,,AMP,right,0.7004452885594219,,,right,0,0.7004452885594219,0,,,,,,,,,,,,,,,,,,,,1007,2019_Mar_06_0950,mf_amp_cond1,3.0.4,59.985224807361156,
attacks,egpeditious,&&&&&&&&&&&,right,care.vice,,,,,0,142,142,142,,,,,,,,,,,,,,,,,,,,,,,AMP,right,0.4837166906800121,,,right,1,0.4837166906800121,1,,,,,,,,,,,,,,,,,,,,1007,2019_Mar_06_0950,mf_amp_cond1,3.0.4,59.985224807361156,
love,saned,&&&&&,left,loyalty.virtue,,,,,0,143,143,143,,,,,,,,,,,,,,,,,,,,,,,AMP,right,0.41686695674434304,,,right,0,0.41686695674434304,0,,,,,,,,,,,,,,,,,,,,1007,2019_Mar_06_0950,mf_amp_cond1,3.0.4,59.985224807361156,
encourage,crinking,&&&&&&&&,left,authority.virtue,,,,,0,144,144,144,,,,,,,,,,,,,,,,,,,,,,,AMP,right,0.40035914292093366,,,right,0,0.40035914292093366,0,,,,,,,,,,,,,,,,,,,,1007,2019_Mar_06_0950,mf_amp_cond1,3.0.4,59.985224807361156,
interests,ecgagement,&&&&&&&&&&,left,fairness.virtue,,,,,0,145,145,145,,,,,,,,,,,,,,,,,,,,,,,AMP,right,0.5170629811473191,,,right,0,0.5170629811473191,0,,,,,,,,,,,,,,,,,,,,1007,2019_Mar_06_0950,mf_amp_cond1,3.0.4,59.985224807361156,
violations,pafer,&&&&&,right,sanctity.vice,,,,,0,146,146,146,,,,,,,,,,,,,,,,,,,,,,,AMP,left,0.6337357095908374,,,left,0,0.6337357095908374,0,,,,,,,,,,,,,,,,,,,,1007,2019_Mar_06_0950,mf_amp_cond1,3.0.4,59.985224807361156,
strength,gillipede,&&&&&&&&&,left,sanctity.virtue,,,,,0,147,147,147,,,,,,,,,,,,,,,,,,,,,,,AMP,right,0.8838048247853294,,,right,0,0.8838048247853294,0,,,,,,,,,,,,,,,,,,,,1007,2019_Mar_06_0950,mf_amp_cond1,3.0.4,59.985224807361156,
civilians,totalestic,&&&&&&&&&&,right,care.vice,,,,,0,148,148,148,,,,,,,,,,,,,,,,,,,,,,,AMP,left,0.5337253822945058,,,left,0,0.5337253822945058,0,,,,,,,,,,,,,,,,,,,,1007,2019_Mar_06_0950,mf_amp_cond1,3.0.4,59.985224807361156,
violence,reelectiob,&&&&&&&&&&,right,care.vice,,,,,0,149,149,149,,,,,,,,,,,,,,,,,,,,,,,AMP,right,0.35034403717145324,,,right,1,0.35034403717145324,1,,,,,,,,,,,,,,,,,,,,1007,2019_Mar_06_0950,mf_amp_cond1,3.0.4,59.985224807361156,
freedom,sliptery,&&&&&&&&,left,sanctity.virtue,,,,,0,150,150,150,,,,,,,,,,,,,,,,,,,,,,,AMP,right,0.8671347264898941,,,right,0,0.8671347264898941,0,,,,,,,,,,,,,,,,,,,,1007,2019_Mar_06_0950,mf_amp_cond1,3.0.4,59.985224807361156,
critics,prones,&&&&&&,right,loyalty.vice,,,,,0,151,151,151,,,,,,,,,,,,,,,,,,,,,,,AMP,right,0.5337138363393024,,,right,1,0.5337138363393024,1,,,,,,,,,,,,,,,,,,,,1007,2019_Mar_06_0950,mf_amp_cond1,3.0.4,59.985224807361156,
forced,erdest,&&&&&&,right,fairness.vice,,,,,0,152,152,152,,,,,,,,,,,,,,,,,,,,,,,AMP,right,0.4170173747697845,,,right,1,0.4170173747697845,1,,,,,,,,,,,,,,,,,,,,1007,2019_Mar_06_0950,mf_amp_cond1,3.0.4,59.985224807361156,
sexual,scalbel,&&&&&&&,right,sanctity.vice,,,,,0,153,153,153,,,,,,,,,,,,,,,,,,,,,,,AMP,right,0.43371345149353147,,,right,1,0.43371345149353147,1,,,,,,,,,,,,,,,,,,,,1007,2019_Mar_06_0950,mf_amp_cond1,3.0.4,59.985224807361156,
ronviolence,emassion,&&&&&&&&,None,nonword,,,,,0,154,154,154,,,,,,,,,,,,,,,,,,,,,,,AMP,left,0.5837372810347006,,,left,0,0.5837372810347006,0,,,,,,,,,,,,,,,,,,,,1007,2019_Mar_06_0950,mf_amp_cond1,3.0.4,59.985224807361156,
respect,Daptist,&&&&&&&,left,sanctity.virtue,,,,,0,155,155,155,,,,,,,,,,,,,,,,,,,,,,,AMP,right,0.23364629258867353,,,right,0,0.23364629258867353,0,,,,,,,,,,,,,,,,,,,,1007,2019_Mar_06_0950,mf_amp_cond1,3.0.4,59.985224807361156,
rebels,allears,&&&&&&&,right,authority.vice,,,,,0,156,156,156,,,,,,,,,,,,,,,,,,,,,,,AMP,right,0.8671283120056614,,,right,1,0.8671283120056614,1,,,,,,,,,,,,,,,,,,,,1007,2019_Mar_06_0950,mf_amp_cond1,3.0.4,59.985224807361156,
progress,neutralust,&&&&&&&&&&,left,authority.virtue,,,,,0,157,157,157,,,,,,,,,,,,,,,,,,,,,,,AMP,left,0.5670655790017918,,,left,1,0.5670655790017918,1,,,,,,,,,,,,,,,,,,,,1007,2019_Mar_06_0950,mf_amp_cond1,3.0.4,59.985224807361156,
increase,bruthfulness,&&&&&&&&&&&&,left,care.virtue,,,,,0,158,158,158,,,,,,,,,,,,,,,,,,,,,,,AMP,right,0.3003359870053828,,,right,0,0.3003359870053828,0,,,,,,,,,,,,,,,,,,,,1007,2019_Mar_06_0950,mf_amp_cond1,3.0.4,59.985224807361156,
promote,unscothed,&&&&&&&&&,left,sanctity.virtue,,,,,0,159,159,159,,,,,,,,,,,,,,,,,,,,,,,AMP,right,0.7837755751097575,,,right,0,0.7837755751097575,0,,,,,,,,,,,,,,,,,,,,1007,2019_Mar_06_0950,mf_amp_cond1,3.0.4,59.985224807361156,
refused,openet,&&&&&&,right,authority.vice,,,,,0,160,160,160,,,,,,,,,,,,,,,,,,,,,,,AMP,left,0.6004012858029455,,,left,0,0.6004012858029455,0,,,,,,,,,,,,,,,,,,,,1007,2019_Mar_06_0950,mf_amp_cond1,3.0.4,59.985224807361156,
threatened,festate,&&&&&&&,right,fairness.vice,,,,,0,161,161,161,,,,,,,,,,,,,,,,,,,,,,,AMP,left,1.1505305682076141,,,left,0,1.1505305682076141,0,,,,,,,,,,,,,,,,,,,,1007,2019_Mar_06_0950,mf_amp_cond1,3.0.4,59.985224807361156,
drug,vicissifude,&&&&&&&&&&&,right,sanctity.vice,,,,,0,162,162,162,,,,,,,,,,,,,,,,,,,,,,,AMP,right,0.3670051551889628,,,right,1,0.3670051551889628,1,,,,,,,,,,,,,,,,,,,,1007,2019_Mar_06_0950,mf_amp_cond1,3.0.4,59.985224807361156,
promises,forepo,&&&&&&,left,fairness.virtue,,,,,0,163,163,163,,,,,,,,,,,,,,,,,,,,,,,AMP,right,0.5337250615702942,,,right,0,0.5337250615702942,0,,,,,,,,,,,,,,,,,,,,1007,2019_Mar_06_0950,mf_amp_cond1,3.0.4,59.985224807361156,
intelligence,nackers,&&&&&&&,left,loyalty.virtue,,,,,0,164,164,164,,,,,,,,,,,,,,,,,,,,,,,AMP,right,0.4670299149584025,,,right,0,0.4670299149584025,0,,,,,,,,,,,,,,,,,,,,1007,2019_Mar_06_0950,mf_amp_cond1,3.0.4,59.985224807361156,
promised,mecan,&&&&&,left,loyalty.virtue,,,,,0,165,165,165,,,,,,,,,,,,,,,,,,,,,,,AMP,left,0.4003524078289047,,,left,1,0.4003524078289047,1,,,,,,,,,,,,,,,,,,,,1007,2019_Mar_06_0950,mf_amp_cond1,3.0.4,59.985224807361156,
unpleasant,vurtain,&&&&&&&,None,control,,,,,0,166,166,166,,,,,,,,,,,,,,,,,,,,,,,AMP,right,0.8004456735216081,,,right,0,0.8004456735216081,0,,,,,,,,,,,,,,,,,,,,1007,2019_Mar_06_0950,mf_amp_cond1,3.0.4,59.985224807361156,
restore,letish,&&&&&&,left,care.virtue,,,,,0,167,167,167,,,,,,,,,,,,,,,,,,,,,,,AMP,left,0.6170707426499575,,,left,1,0.6170707426499575,1,,,,,,,,,,,,,,,,,,,,1007,2019_Mar_06_0950,mf_amp_cond1,3.0.4,59.985224807361156,
abuse,reprisols,&&&&&&&&&,right,sanctity.vice,,,,,0,168,168,168,,,,,,,,,,,,,,,,,,,,,,,AMP,right,0.4503649480175227,,,right,1,0.4503649480175227,1,,,,,,,,,,,,,,,,,,,,1007,2019_Mar_06_0950,mf_amp_cond1,3.0.4,59.985224807361156,
victims,emassion,&&&&&&&&,right,care.vice,,,,,0,169,169,169,,,,,,,,,,,,,,,,,,,,,,,AMP,right,0.8504646280780435,,,right,1,0.8504646280780435,1,,,,,,,,,,,,,,,,,,,,1007,2019_Mar_06_0950,mf_amp_cond1,3.0.4,59.985224807361156,
threatened,seachwear,&&&&&&&&&,right,fairness.vice,,,,,0,170,170,170,,,,,,,,,,,,,,,,,,,,,,,AMP,right,0.3670086832717061,,,right,1,0.3670086832717061,1,,,,,,,,,,,,,,,,,,,,1007,2019_Mar_06_0950,mf_amp_cond1,3.0.4,59.985224807361156,
hasks,hatigue,&&&&&&&,None,nonword,,,,,0,171,171,171,,,,,,,,,,,,,,,,,,,,,,,AMP,right,0.7170999923255295,,,right,0,0.7170999923255295,0,,,,,,,,,,,,,,,,,,,,1007,2019_Mar_06_0950,mf_amp_cond1,3.0.4,59.985224807361156,
lies,pafer,&&&&&,right,fairness.vice,,,,,0,172,172,172,,,,,,,,,,,,,,,,,,,,,,,AMP,left,0.4503726453986019,,,left,0,0.4503726453986019,0,,,,,,,,,,,,,,,,,,,,1007,2019_Mar_06_0950,mf_amp_cond1,3.0.4,59.985224807361156,
voter,festate,&&&&&&&,right,fairness.vice,,,,,0,173,173,173,,,,,,,,,,,,,,,,,,,,,,,AMP,right,0.3169961430830881,,,right,1,0.3169961430830881,1,,,,,,,,,,,,,,,,,,,,1007,2019_Mar_06_0950,mf_amp_cond1,3.0.4,59.985224807361156,
pleasant,tenuflect,&&&&&&&&&,None,control,,,,,0,174,174,174,,,,,,,,,,,,,,,,,,,,,,,AMP,left,0.36702792649157345,,,left,0,0.36702792649157345,0,,,,,,,,,,,,,,,,,,,,1007,2019_Mar_06_0950,mf_amp_cond1,3.0.4,59.985224807361156,
charges,elduringly,&&&&&&&&&&,right,fairness.vice,,,,,0,175,175,175,,,,,,,,,,,,,,,,,,,,,,,AMP,left,0.38367140491027385,,,left,0,0.38367140491027385,0,,,,,,,,,,,,,,,,,,,,1007,2019_Mar_06_0950,mf_amp_cond1,3.0.4,59.985224807361156,
encourage,baklara,&&&&&&&,left,authority.virtue,,,,,0,176,176,176,,,,,,,,,,,,,,,,,,,,,,,AMP,left,0.5837417710572481,,,left,1,0.5837417710572481,1,,,,,,,,,,,,,,,,,,,,1007,2019_Mar_06_0950,mf_amp_cond1,3.0.4,59.985224807361156,
hefurbished,totalestic,&&&&&&&&&&,None,nonword,,,,,0,177,177,177,,,,,,,,,,,,,,,,,,,,,,,AMP,left,0.4837000132538378,,,left,0,0.4837000132538378,0,,,,,,,,,,,,,,,,,,,,1007,2019_Mar_06_0950,mf_amp_cond1,3.0.4,59.985224807361156,
win,discovars,&&&&&&&&&,left,fairness.virtue,,,,,0,178,178,178,,,,,,,,,,,,,,,,,,,,,,,AMP,left,0.6169103822903708,,,left,1,0.6169103822903708,1,,,,,,,,,,,,,,,,,,,,1007,2019_Mar_06_0950,mf_amp_cond1,3.0.4,59.985224807361156,
ban,proached,&&&&&&&&,right,loyalty.vice,,,,,0,179,179,179,,,,,,,,,,,,,,,,,,,,,,,AMP,right,1.0171768369618803,,,right,1,1.0171768369618803,1,,,,,,,,,,,,,,,,,,,,1007,2019_Mar_06_0950,mf_amp_cond1,3.0.4,59.985224807361156,
drug,uller,&&&&&,right,sanctity.vice,,,,,0,180,180,180,,,,,,,,,,,,,,,,,,,,,,,AMP,left,0.7504626394947991,,,left,0,0.7504626394947991,0,,,,,,,,,,,,,,,,,,,,1007,2019_Mar_06_0950,mf_amp_cond1,3.0.4,59.985224807361156,
credit,unscothed,&&&&&&&&&,left,fairness.virtue,,,,,0,181,181,181,,,,,,,,,,,,,,,,,,,,,,,AMP,left,1.1338665635557845,,,left,1,1.1338665635557845,1,,,,,,,,,,,,,,,,,,,,1007,2019_Mar_06_0950,mf_amp_cond1,3.0.4,59.985224807361156,
violence,cromiscuity,&&&&&&&&&&&,right,care.vice,,,,,0,182,182,182,,,,,,,,,,,,,,,,,,,,,,,AMP,left,1.6173196218442172,,,left,0,1.6173196218442172,0,,,,,,,,,,,,,,,,,,,,1007,2019_Mar_06_0950,mf_amp_cond1,3.0.4,59.985224807361156,
infet,egpeditious,&&&&&&&&&&&,None,nonword,,,,,0,183,183,183,,,,,,,,,,,,,,,,,,,,,,,AMP,left,0.550390669843182,,,left,0,0.550390669843182,0,,,,,,,,,,,,,,,,,,,,1007,2019_Mar_06_0950,mf_amp_cond1,3.0.4,59.985224807361156,
touls,slending,&&&&&&&&,None,nonword,,,,,0,184,184,184,,,,,,,,,,,,,,,,,,,,,,,AMP,right,0.500378129654564,,,right,0,0.500378129654564,0,,,,,,,,,,,,,,,,,,,,1007,2019_Mar_06_0950,mf_amp_cond1,3.0.4,59.985224807361156,
pharing,thadowed,&&&&&&&&,None,nonword,,,,,0,185,185,185,,,,,,,,,,,,,,,,,,,,,,,AMP,right,0.6003983991686255,,,right,0,0.6003983991686255,0,,,,,,,,,,,,,,,,,,,,1007,2019_Mar_06_0950,mf_amp_cond1,3.0.4,59.985224807361156,
rebels,brotesque,&&&&&&&&&,right,authority.vice,,,,,0,186,186,186,,,,,,,,,,,,,,,,,,,,,,,AMP,left,1.1171910129487514,,,left,0,1.1171910129487514,0,,,,,,,,,,,,,,,,,,,,1007,2019_Mar_06_0950,mf_amp_cond1,3.0.4,59.985224807361156,
officers,photocalkodes,&&&&&&&&&&&&&,right,authority.vice,,,,,0,187,187,187,,,,,,,,,,,,,,,,,,,,,,,AMP,right,0.6337421239586547,,,right,1,0.6337421239586547,1,,,,,,,,,,,,,,,,,,,,1007,2019_Mar_06_0950,mf_amp_cond1,3.0.4,59.985224807361156,
praised,tislay,&&&&&&,left,loyalty.virtue,,,,,0,188,188,188,,,,,,,,,,,,,,,,,,,,,,,AMP,right,0.5002976288087666,,,right,0,0.5002976288087666,0,,,,,,,,,,,,,,,,,,,,1007,2019_Mar_06_0950,mf_amp_cond1,3.0.4,59.985224807361156,
war,shoirmaster,&&&&&&&&&&&,right,sanctity.vice,,,,,0,189,189,189,,,,,,,,,,,,,,,,,,,,,,,AMP,left,0.8171302042901516,,,left,0,0.8171302042901516,0,,,,,,,,,,,,,,,,,,,,1007,2019_Mar_06_0950,mf_amp_cond1,3.0.4,59.985224807361156,
sexual,simplustic,&&&&&&&&&&,right,sanctity.vice,,,,,0,190,190,190,,,,,,,,,,,,,,,,,,,,,,,AMP,right,0.3503347361693159,,,right,1,0.3503347361693159,1,,,,,,,,,,,,,,,,,,,,1007,2019_Mar_06_0950,mf_amp_cond1,3.0.4,59.985224807361156,
army,oam,&&&,right,loyalty.vice,,,,,0,191,191,191,,,,,,,,,,,,,,,,,,,,,,,AMP,right,1.8673948309151456,,,right,1,1.8673948309151456,1,,,,,,,,,,,,,,,,,,,,1007,2019_Mar_06_0950,mf_amp_cond1,3.0.4,59.985224807361156,
protect,reelectiob,&&&&&&&&&&,left,fairness.virtue,,,,,0,192,192,192,,,,,,,,,,,,,,,,,,,,,,,AMP,left,0.9838318295078352,,,left,1,0.9838318295078352,1,,,,,,,,,,,,,,,,,,,,1007,2019_Mar_06_0950,mf_amp_cond1,3.0.4,59.985224807361156,
died,gillipede,&&&&&&&&&,right,care.vice,,,,,0,193,193,193,,,,,,,,,,,,,,,,,,,,,,,AMP,right,0.5003736395156011,,,right,1,0.5003736395156011,1,,,,,,,,,,,,,,,,,,,,1007,2019_Mar_06_0950,mf_amp_cond1,3.0.4,59.985224807361156,
civilians,synchronazers,&&&&&&&&&&&&&,right,care.vice,,,,,0,194,194,194,,,,,,,,,,,,,,,,,,,,,,,AMP,right,0.45036847598385066,,,right,1,0.45036847598385066,1,,,,,,,,,,,,,,,,,,,,1007,2019_Mar_06_0950,mf_amp_cond1,3.0.4,59.985224807361156,
failure,openet,&&&&&&,right,loyalty.vice,,,,,0,195,195,195,,,,,,,,,,,,,,,,,,,,,,,AMP,right,1.5006472143577412,,,right,1,1.5006472143577412,1,,,,,,,,,,,,,,,,,,,,1007,2019_Mar_06_0950,mf_amp_cond1,3.0.4,59.985224807361156,
attacks,dumid,&&&&&,right,care.vice,,,,,0,196,196,196,,,,,,,,,,,,,,,,,,,,,,,AMP,right,1.633994851843454,,,right,1,1.633994851843454,1,,,,,,,,,,,,,,,,,,,,1007,2019_Mar_06_0950,mf_amp_cond1,3.0.4,59.985224807361156,
faith,Daptist,&&&&&&&,left,sanctity.virtue,,,,,0,197,197,197,,,,,,,,,,,,,,,,,,,,,,,AMP,left,0.48371412500273436,,,left,1,0.48371412500273436,1,,,,,,,,,,,,,,,,,,,,1007,2019_Mar_06_0950,mf_amp_cond1,3.0.4,59.985224807361156,
ability,sliptery,&&&&&&&&,left,authority.virtue,,,,,0,198,198,198,,,,,,,,,,,,,,,,,,,,,,,AMP,right,0.40035401144996285,,,right,0,0.40035401144996285,0,,,,,,,,,,,,,,,,,,,,1007,2019_Mar_06_0950,mf_amp_cond1,3.0.4,59.985224807361156,
harassment,nuckheap,&&&&&&&&,right,sanctity.vice,,,,,0,199,199,199,,,,,,,,,,,,,,,,,,,,,,,AMP,right,0.41703758004587144,,,right,1,0.41703758004587144,1,,,,,,,,,,,,,,,,,,,,1007,2019_Mar_06_0950,mf_amp_cond1,3.0.4,59.985224807361156,
improve,metibolic,&&&&&&&&&,left,care.virtue,,,,,0,200,200,200,,,,,,,,,,,,,,,,,,,,,,,AMP,right,0.9671431293245405,,,right,0,0.9671431293245405,0,,,,,,,,,,,,,,,,,,,,1007,2019_Mar_06_0950,mf_amp_cond1,3.0.4,59.985224807361156,
peaceful,presentkess,&&&&&&&&&&&,left,authority.virtue,,,,,0,201,201,201,,,,,,,,,,,,,,,,,,,,,,,AMP,left,0.6003874947782606,,,left,1,0.6003874947782606,1,,,,,,,,,,,,,,,,,,,,1007,2019_Mar_06_0950,mf_amp_cond1,3.0.4,59.985224807361156,
help,crinking,&&&&&&&&,left,care.virtue,,,,,0,202,202,202,,,,,,,,,,,,,,,,,,,,,,,AMP,right,0.20015567785594612,,,right,0,0.20015567785594612,0,,,,,,,,,,,,,,,,,,,,1007,2019_Mar_06_0950,mf_amp_cond1,3.0.4,59.985224807361156,
growth,sickyay,&&&&&&&,left,care.virtue,,,,,0,203,203,203,,,,,,,,,,,,,,,,,,,,,,,AMP,right,0.5837356774136424,,,right,0,0.5837356774136424,0,,,,,,,,,,,,,,,,,,,,1007,2019_Mar_06_0950,mf_amp_cond1,3.0.4,59.985224807361156,
progress,leact,&&&&&,left,authority.virtue,,,,,0,204,204,204,,,,,,,,,,,,,,,,,,,,,,,AMP,left,0.3837034769821912,,,left,1,0.3837034769821912,1,,,,,,,,,,,,,,,,,,,,1007,2019_Mar_06_0950,mf_amp_cond1,3.0.4,59.985224807361156,
interests,chared,&&&&&&,left,fairness.virtue,,,,,0,205,205,205,,,,,,,,,,,,,,,,,,,,,,,AMP,right,1.684013806283474,,,right,0,1.684013806283474,0,,,,,,,,,,,,,,,,,,,,1007,2019_Mar_06_0950,mf_amp_cond1,3.0.4,59.985224807361156,
ronviolence,carvels,&&&&&&&,None,nonword,,,,,0,206,206,206,,,,,,,,,,,,,,,,,,,,,,,AMP,right,0.9004762060940266,,,right,0,0.9004762060940266,0,,,,,,,,,,,,,,,,,,,,1007,2019_Mar_06_0950,mf_amp_cond1,3.0.4,59.985224807361156,
prison,frojecting,&&&&&&&&&&,right,fairness.vice,,,,,0,207,207,207,,,,,,,,,,,,,,,,,,,,,,,AMP,right,0.6504208816913888,,,right,1,0.6504208816913888,1,,,,,,,,,,,,,,,,,,,,1007,2019_Mar_06_0950,mf_amp_cond1,3.0.4,59.985224807361156,
praise,antral,&&&&&&,left,authority.virtue,,,,,0,208,208,208,,,,,,,,,,,,,,,,,,,,,,,AMP,left,0.41704752249643207,,,left,1,0.41704752249643207,1,,,,,,,,,,,,,,,,,,,,1007,2019_Mar_06_0950,mf_amp_cond1,3.0.4,59.985224807361156,
party,sidearbs,&&&&&&&&,left,loyalty.virtue,,,,,0,209,209,209,,,,,,,,,,,,,,,,,,,,,,,AMP,right,0.4503540436271578,,,right,0,0.4503540436271578,0,,,,,,,,,,,,,,,,,,,,1007,2019_Mar_06_0950,mf_amp_cond1,3.0.4,59.985224807361156,
gun,ilportation,&&&&&&&&&&&,right,authority.vice,,,,,0,210,210,210,,,,,,,,,,,,,,,,,,,,,,,AMP,left,0.7337697700131685,,,left,0,0.7337697700131685,0,,,,,,,,,,,,,,,,,,,,1007,2019_Mar_06_0950,mf_amp_cond1,3.0.4,59.985224807361156,
promote,lempestuous,&&&&&&&&&&&,left,sanctity.virtue,,,,,0,211,211,211,,,,,,,,,,,,,,,,,,,,,,,AMP,left,1.2672273505013436,,,left,1,1.2672273505013436,1,,,,,,,,,,,,,,,,,,,,1007,2019_Mar_06_0950,mf_amp_cond1,3.0.4,59.985224807361156,
epigrach,vicissifude,&&&&&&&&&&&,None,nonword,,,,,0,212,212,212,,,,,,,,,,,,,,,,,,,,,,,AMP,left,0.6670925837242976,,,left,0,0.6670925837242976,0,,,,,,,,,,,,,,,,,,,,1007,2019_Mar_06_0950,mf_amp_cond1,3.0.4,59.985224807361156,
commitment,forepo,&&&&&&,left,sanctity.virtue,,,,,0,213,213,213,,,,,,,,,,,,,,,,,,,,,,,AMP,left,0.43372082815039903,,,left,1,0.43372082815039903,1,,,,,,,,,,,,,,,,,,,,1007,2019_Mar_06_0950,mf_amp_cond1,3.0.4,59.985224807361156,
love,ebbitter,&&&&&&&&,left,loyalty.virtue,,,,,0,214,214,214,,,,,,,,,,,,,,,,,,,,,,,AMP,right,0.3336854847148061,,,right,0,0.3336854847148061,0,,,,,,,,,,,,,,,,,,,,1007,2019_Mar_06_0950,mf_amp_cond1,3.0.4,59.985224807361156,
respect,scock,&&&&&,left,sanctity.virtue,,,,,0,215,215,215,,,,,,,,,,,,,,,,,,,,,,,AMP,left,0.4836919952649623,,,left,1,0.4836919952649623,1,,,,,,,,,,,,,,,,,,,,1007,2019_Mar_06_0950,mf_amp_cond1,3.0.4,59.985224807361156,
riot,chadows,&&&&&&&,right,authority.vice,,,,,0,216,216,216,,,,,,,,,,,,,,,,,,,,,,,AMP,right,0.5835839766077697,,,right,1,0.5835839766077697,1,,,,,,,,,,,,,,,,,,,,1007,2019_Mar_06_0950,mf_amp_cond1,3.0.4,59.985224807361156,
support,focomotive,&&&&&&&&&&,left,loyalty.virtue,,,,,0,217,217,217,,,,,,,,,,,,,,,,,,,,,,,AMP,right,1.684019900043495,,,right,0,1.684019900043495,0,,,,,,,,,,,,,,,,,,,,1007,2019_Mar_06_0950,mf_amp_cond1,3.0.4,59.985224807361156,
critics,divility,&&&&&&&&,right,loyalty.vice,,,,,0,218,218,218,,,,,,,,,,,,,,,,,,,,,,,AMP,right,0.7337915790267289,,,right,1,0.7337915790267289,1,,,,,,,,,,,,,,,,,,,,1007,2019_Mar_06_0950,mf_amp_cond1,3.0.4,59.985224807361156,
useful,gondensed,&&&&&&&&&,left,authority.virtue,,,,,0,219,219,219,,,,,,,,,,,,,,,,,,,,,,,AMP,right,1.2172202626243234,,,right,0,1.2172202626243234,0,,,,,,,,,,,,,,,,,,,,1007,2019_Mar_06_0950,mf_amp_cond1,3.0.4,59.985224807361156,
police,crilfully,&&&&&&&&&,right,authority.vice,,,,,0,220,220,220,,,,,,,,,,,,,,,,,,,,,,,AMP,right,0.46704210224561393,,,right,1,0.46704210224561393,1,,,,,,,,,,,,,,,,,,,,1007,2019_Mar_06_0950,mf_amp_cond1,3.0.4,59.985224807361156,
freedom,Loorish,&&&&&&&,left,sanctity.virtue,,,,,0,221,221,221,,,,,,,,,,,,,,,,,,,,,,,AMP,right,0.6170710633741692,,,right,0,0.6170710633741692,0,,,,,,,,,,,,,,,,,,,,1007,2019_Mar_06_0950,mf_amp_cond1,3.0.4,59.985224807361156,
fair,saned,&&&&&,left,fairness.virtue,,,,,0,222,222,222,,,,,,,,,,,,,,,,,,,,,,,AMP,left,0.5003867890918627,,,left,1,0.5003867890918627,1,,,,,,,,,,,,,,,,,,,,1007,2019_Mar_06_0950,mf_amp_cond1,3.0.4,59.985224807361156,
smapper,thabbily,&&&&&&&&,None,nonword,,,,,0,223,223,223,,,,,,,,,,,,,,,,,,,,,,,AMP,right,0.2836617191787809,,,right,0,0.2836617191787809,0,,,,,,,,,,,,,,,,,,,,1007,2019_Mar_06_0950,mf_amp_cond1,3.0.4,59.985224807361156,
strength,ammessment,&&&&&&&&&&,left,sanctity.virtue,,,,,0,224,224,224,,,,,,,,,,,,,,,,,,,,,,,AMP,left,0.4170263549312949,,,left,1,0.4170263549312949,1,,,,,,,,,,,,,,,,,,,,1007,2019_Mar_06_0950,mf_amp_cond1,3.0.4,59.985224807361156,
shot,unreflectuve,&&&&&&&&&&&&,right,care.vice,,,,,0,225,225,225,,,,,,,,,,,,,,,,,,,,,,,AMP,right,0.5503938770852983,,,right,1,0.5503938770852983,1,,,,,,,,,,,,,,,,,,,,1007,2019_Mar_06_0950,mf_amp_cond1,3.0.4,59.985224807361156,
gikely,neutralust,&&&&&&&&&&,None,nonword,,,,,0,226,226,226,,,,,,,,,,,,,,,,,,,,,,,AMP,left,1.167221513343975,,,left,0,1.167221513343975,0,,,,,,,,,,,,,,,,,,,,1007,2019_Mar_06_0950,mf_amp_cond1,3.0.4,59.985224807361156,
black,alar,&&&&,right,loyalty.vice,,,,,0,227,227,227,,,,,,,,,,,,,,,,,,,,,,,AMP,left,0.9671594860265031,,,left,0,0.9671594860265031,0,,,,,,,,,,,,,,,,,,,,1007,2019_Mar_06_0950,mf_amp_cond1,3.0.4,59.985224807361156,
victim,bruthfulness,&&&&&&&&&&&&,right,care.vice,,,,,0,228,228,228,,,,,,,,,,,,,,,,,,,,,,,AMP,right,0.8671376128913835,,,right,1,0.8671376128913835,1,,,,,,,,,,,,,,,,,,,,1007,2019_Mar_06_0950,mf_amp_cond1,3.0.4,59.985224807361156,
refused,Phintoism,&&&&&&&&&,right,authority.vice,,,,,0,229,229,229,,,,,,,,,,,,,,,,,,,,,,,AMP,left,0.5003848648630083,,,left,0,0.5003848648630083,0,,,,,,,,,,,,,,,,,,,,1007,2019_Mar_06_0950,mf_amp_cond1,3.0.4,59.985224807361156,
groups,brudent,&&&&&&&,right,loyalty.vice,,,,,0,230,230,230,,,,,,,,,,,,,,,,,,,,,,,AMP,right,0.3503456406760961,,,right,1,0.3503456406760961,1,,,,,,,,,,,,,,,,,,,,1007,2019_Mar_06_0950,mf_amp_cond1,3.0.4,59.985224807361156,
energy,wump,&&&&,left,sanctity.virtue,,,,,0,231,231,231,,,,,,,,,,,,,,,,,,,,,,,AMP,right,0.40034310694318265,,,right,0,0.40034310694318265,0,,,,,,,,,,,,,,,,,,,,1007,2019_Mar_06_0950,mf_amp_cond1,3.0.4,59.985224807361156,
rejected,ecgagement,&&&&&&&&&&,right,authority.vice,,,,,0,232,232,232,,,,,,,,,,,,,,,,,,,,,,,AMP,left,0.5170305883511901,,,left,0,0.5170305883511901,0,,,,,,,,,,,,,,,,,,,,1007,2019_Mar_06_0950,mf_amp_cond1,3.0.4,59.985224807361156,
Oregoniuns,allears,&&&&&&&,None,nonword,,,,,0,233,233,233,,,,,,,,,,,,,,,,,,,,,,,AMP,right,0.4670533274766058,,,right,0,0.4670533274766058,0,,,,,,,,,,,,,,,,,,,,1007,2019_Mar_06_0950,mf_amp_cond1,3.0.4,59.985224807361156,
promises,gowlands,&&&&&&&&,left,fairness.virtue,,,,,0,234,234,234,,,,,,,,,,,,,,,,,,,,,,,AMP,right,0.567079049302265,,,right,0,0.567079049302265,0,,,,,,,,,,,,,,,,,,,,1007,2019_Mar_06_0950,mf_amp_cond1,3.0.4,59.985224807361156,
actively,prones,&&&&&&,left,authority.virtue,,,,,0,235,235,235,,,,,,,,,,,,,,,,,,,,,,,AMP,left,0.43369741551578045,,,left,1,0.43369741551578045,1,,,,,,,,,,,,,,,,,,,,1007,2019_Mar_06_0950,mf_amp_cond1,3.0.4,59.985224807361156,
violations,lursuer,&&&&&&&,right,sanctity.vice,,,,,0,236,236,236,,,,,,,,,,,,,,,,,,,,,,,AMP,right,0.4670616661896929,,,right,1,0.4670616661896929,1,,,,,,,,,,,,,,,,,,,,1007,2019_Mar_06_0950,mf_amp_cond1,3.0.4,59.985224807361156,
serial,menizen,&&&&&&&,right,sanctity.vice,,,,,0,237,237,237,,,,,,,,,,,,,,,,,,,,,,,AMP,right,1.2672533289296553,,,right,1,1.2672533289296553,1,,,,,,,,,,,,,,,,,,,,1007,2019_Mar_06_0950,mf_amp_cond1,3.0.4,59.985224807361156,
integrity,pullness,&&&&&&&&,left,fairness.virtue,,,,,0,238,238,238,,,,,,,,,,,,,,,,,,,,,,,AMP,left,0.7671183055499569,,,left,1,0.7671183055499569,1,,,,,,,,,,,,,,,,,,,,1007,2019_Mar_06_0950,mf_amp_cond1,3.0.4,59.985224807361156,
compassion,tomedians,&&&&&&&&&,left,care.virtue,,,,,0,239,239,239,,,,,,,,,,,,,,,,,,,,,,,AMP,right,0.3670106075005606,,,right,0,0.3670106075005606,0,,,,,,,,,,,,,,,,,,,,1007,2019_Mar_06_0950,mf_amp_cond1,3.0.4,59.985224807361156,
forced,neputized,&&&&&&&&&,right,fairness.vice,,,,,0,240,240,240,,,,,,,,,,,,,,,,,,,,,,,AMP,left,0.3836867995560169,,,left,0,0.3836867995560169,0,,,,,,,,,,,,,,,,,,,,1007,2019_Mar_06_0950,mf_amp_cond1,3.0.4,59.985224807361156,
increase,erdest,&&&&&&,left,care.virtue,,,,,0,241,241,241,,,,,,,,,,,,,,,,,,,,,,,AMP,right,0.4170548990368843,,,right,0,0.4170548990368843,0,,,,,,,,,,,,,,,,,,,,1007,2019_Mar_06_0950,mf_amp_cond1,3.0.4,59.985224807361156,
illegal,scalbel,&&&&&&&,right,fairness.vice,,,,,0,242,242,242,,,,,,,,,,,,,,,,,,,,,,,AMP,right,0.40036010509356856,,,right,1,0.40036010509356856,1,,,,,,,,,,,,,,,,,,,,1007,2019_Mar_06_0950,mf_amp_cond1,3.0.4,59.985224807361156,
terrorist,ejanulated,&&&&&&&&&&,right,loyalty.vice,,,,,0,243,243,243,,,,,,,,,,,,,,,,,,,,,,,AMP,left,1.1505318511044607,,,left,0,1.1505318511044607,0,,,,,,,,,,,,,,,,,,,,1007,2019_Mar_06_0950,mf_amp_cond1,3.0.4,59.985224807361156,
loyalty,ablow,&&&&&,left,loyalty.virtue,,,,,0,244,244,244,,,,,,,,,,,,,,,,,,,,,,,AMP,right,0.1836510713910684,,,right,0,0.1836510713910684,0,,,,,,,,,,,,,,,,,,,,1007,2019_Mar_06_0950,mf_amp_cond1,3.0.4,59.985224807361156,
safe,dramens,&&&&&&&,left,care.virtue,,,,,0,245,245,245,,,,,,,,,,,,,,,,,,,,,,,AMP,left,0.4336829830426723,,,left,1,0.4336829830426723,1,,,,,,,,,,,,,,,,,,,,1007,2019_Mar_06_0950,mf_amp_cond1,3.0.4,59.985224807361156,
shot,bruthfulness,&&&&&&&&&&&&,right,care.vice,,,,,0,246,246,246,,,,,,,,,,,,,,,,,,,,,,,AMP,left,0.5669648726470768,,,left,0,0.5669648726470768,0,,,,,,,,,,,,,,,,,,,,1007,2019_Mar_06_0950,mf_amp_cond1,3.0.4,59.985224807361156,
Oregoniuns,Loorish,&&&&&&&,None,nonword,,,,,0,247,247,247,,,,,,,,,,,,,,,,,,,,,,,AMP,right,0.25031029724050313,,,right,0,0.25031029724050313,0,,,,,,,,,,,,,,,,,,,,1007,2019_Mar_06_0950,mf_amp_cond1,3.0.4,59.985224807361156,
failure,leact,&&&&&,right,loyalty.vice,,,,,0,248,248,248,,,,,,,,,,,,,,,,,,,,,,,AMP,right,0.733780353795737,,,right,1,0.733780353795737,1,,,,,,,,,,,,,,,,,,,,1007,2019_Mar_06_0950,mf_amp_cond1,3.0.4,59.985224807361156,
officers,vurtain,&&&&&&&,right,authority.vice,,,,,0,249,249,249,,,,,,,,,,,,,,,,,,,,,,,AMP,left,0.9671691076364368,,,left,0,0.9671691076364368,0,,,,,,,,,,,,,,,,,,,,1007,2019_Mar_06_0950,mf_amp_cond1,3.0.4,59.985224807361156,
war,lempestuous,&&&&&&&&&&&,right,sanctity.vice,,,,,0,250,250,250,,,,,,,,,,,,,,,,,,,,,,,AMP,left,1.033698762417771,,,left,0,1.033698762417771,0,,,,,,,,,,,,,,,,,,,,1007,2019_Mar_06_0950,mf_amp_cond1,3.0.4,59.985224807361156,
unpleasant,gondensed,&&&&&&&&&,None,control,,,,,0,251,251,251,,,,,,,,,,,,,,,,,,,,,,,AMP,right,0.6170845336746424,,,right,0,0.6170845336746424,0,,,,,,,,,,,,,,,,,,,,1007,2019_Mar_06_0950,mf_amp_cond1,3.0.4,59.985224807361156,
promised,baklara,&&&&&&&,left,loyalty.virtue,,,,,0,252,252,252,,,,,,,,,,,,,,,,,,,,,,,AMP,left,0.8003497779136524,,,left,1,0.8003497779136524,1,,,,,,,,,,,,,,,,,,,,1007,2019_Mar_06_0950,mf_amp_cond1,3.0.4,59.985224807361156,
terrorist,nuckheap,&&&&&&&&,right,loyalty.vice,,,,,0,253,253,253,,,,,,,,,,,,,,,,,,,,,,,AMP,right,0.3670118903974071,,,right,1,0.3670118903974071,1,,,,,,,,,,,,,,,,,,,,1007,2019_Mar_06_0950,mf_amp_cond1,3.0.4,59.985224807361156,
strength,erdest,&&&&&&,left,sanctity.virtue,,,,,0,254,254,254,,,,,,,,,,,,,,,,,,,,,,,AMP,left,0.6837642856407911,,,left,1,0.6837642856407911,1,,,,,,,,,,,,,,,,,,,,1007,2019_Mar_06_0950,mf_amp_cond1,3.0.4,59.985224807361156,
win,Phintoism,&&&&&&&&&,left,fairness.virtue,,,,,0,255,255,255,,,,,,,,,,,,,,,,,,,,,,,AMP,right,0.2501496161567047,,,right,0,0.2501496161567047,0,,,,,,,,,,,,,,,,,,,,1007,2019_Mar_06_0950,mf_amp_cond1,3.0.4,59.985224807361156,
prison,brotesque,&&&&&&&&&,right,fairness.vice,,,,,0,256,256,256,,,,,,,,,,,,,,,,,,,,,,,AMP,right,0.5670716727618128,,,right,1,0.5670716727618128,1,,,,,,,,,,,,,,,,,,,,1007,2019_Mar_06_0950,mf_amp_cond1,3.0.4,59.985224807361156,
loyalty,carvels,&&&&&&&,left,loyalty.virtue,,,,,0,257,257,257,,,,,,,,,,,,,,,,,,,,,,,AMP,right,0.783783593098633,,,right,0,0.783783593098633,0,,,,,,,,,,,,,,,,,,,,1007,2019_Mar_06_0950,mf_amp_cond1,3.0.4,59.985224807361156,
hasks,menizen,&&&&&&&,None,nonword,,,,,0,258,258,258,,,,,,,,,,,,,,,,,,,,,,,AMP,right,0.45035757147707045,,,right,0,0.45035757147707045,0,,,,,,,,,,,,,,,,,,,,1007,2019_Mar_06_0950,mf_amp_cond1,3.0.4,59.985224807361156,
abuse,tislay,&&&&&&,right,sanctity.vice,,,,,0,259,259,259,,,,,,,,,,,,,,,,,,,,,,,AMP,right,0.6837325344095007,,,right,1,0.6837325344095007,1,,,,,,,,,,,,,,,,,,,,1007,2019_Mar_06_0950,mf_amp_cond1,3.0.4,59.985224807361156,
illegal,gillipede,&&&&&&&&&,right,fairness.vice,,,,,0,260,260,260,,,,,,,,,,,,,,,,,,,,,,,AMP,left,0.900481658289209,,,left,0,0.900481658289209,0,,,,,,,,,,,,,,,,,,,,1007,2019_Mar_06_0950,mf_amp_cond1,3.0.4,59.985224807361156,
promises,metibolic,&&&&&&&&&,left,fairness.virtue,,,,,0,261,261,261,,,,,,,,,,,,,,,,,,,,,,,AMP,right,0.33365469542331994,,,right,0,0.33365469542331994,0,,,,,,,,,,,,,,,,,,,,1007,2019_Mar_06_0950,mf_amp_cond1,3.0.4,59.985224807361156,
love,slending,&&&&&&&&,left,loyalty.virtue,,,,,0,262,262,262,,,,,,,,,,,,,,,,,,,,,,,AMP,right,0.5337244201218709,,,right,0,0.5337244201218709,0,,,,,,,,,,,,,,,,,,,,1007,2019_Mar_06_0950,mf_amp_cond1,3.0.4,59.985224807361156,
promote,festate,&&&&&&&,left,sanctity.virtue,,,,,0,263,263,263,,,,,,,,,,,,,,,,,,,,,,,AMP,left,1.0171710640424863,,,left,1,1.0171710640424863,1,,,,,,,,,,,,,,,,,,,,1007,2019_Mar_06_0950,mf_amp_cond1,3.0.4,59.985224807361156,
rejected,forepo,&&&&&&,right,authority.vice,,,,,0,264,264,264,,,,,,,,,,,,,,,,,,,,,,,AMP,right,0.5670752007281408,,,right,1,0.5670752007281408,1,,,,,,,,,,,,,,,,,,,,1007,2019_Mar_06_0950,mf_amp_cond1,3.0.4,59.985224807361156,
drug,lursuer,&&&&&&&,right,sanctity.vice,,,,,0,265,265,265,,,,,,,,,,,,,,,,,,,,,,,AMP,right,0.4170199405634776,,,right,1,0.4170199405634776,1,,,,,,,,,,,,,,,,,,,,1007,2019_Mar_06_0950,mf_amp_cond1,3.0.4,59.985224807361156,
safe,discovars,&&&&&&&&&,left,care.virtue,,,,,0,266,266,266,,,,,,,,,,,,,,,,,,,,,,,AMP,right,0.5670460150577128,,,right,0,0.5670460150577128,0,,,,,,,,,,,,,,,,,,,,1007,2019_Mar_06_0950,mf_amp_cond1,3.0.4,59.985224807361156,
commitment,proached,&&&&&&&&,left,sanctity.virtue,,,,,0,267,267,267,,,,,,,,,,,,,,,,,,,,,,,AMP,right,0.6170678561320528,,,right,0,0.6170678561320528,0,,,,,,,,,,,,,,,,,,,,1007,2019_Mar_06_0950,mf_amp_cond1,3.0.4,59.985224807361156,
hefurbished,wump,&&&&,None,nonword,,,,,0,268,268,268,,,,,,,,,,,,,,,,,,,,,,,AMP,right,0.5170507937436923,,,right,0,0.5170507937436923,0,,,,,,,,,,,,,,,,,,,,1007,2019_Mar_06_0950,mf_amp_cond1,3.0.4,59.985224807361156,
improve,scalbel,&&&&&&&,left,care.virtue,,,,,0,269,269,269,,,,,,,,,,,,,,,,,,,,,,,AMP,right,0.46703664993401617,,,right,0,0.46703664993401617,0,,,,,,,,,,,,,,,,,,,,1007,2019_Mar_06_0950,mf_amp_cond1,3.0.4,59.985224807361156,
sexual,sickyay,&&&&&&&,right,sanctity.vice,,,,,0,270,270,270,,,,,,,,,,,,,,,,,,,,,,,AMP,right,0.6004311128053814,,,right,1,0.6004311128053814,1,,,,,,,,,,,,,,,,,,,,1007,2019_Mar_06_0950,mf_amp_cond1,3.0.4,59.985224807361156,
ronviolence,shoirmaster,&&&&&&&&&&&,None,nonword,,,,,0,271,271,271,,,,,,,,,,,,,,,,,,,,,,,AMP,left,1.7506836160318926,,,left,0,1.7506836160318926,0,,,,,,,,,,,,,,,,,,,,1007,2019_Mar_06_0950,mf_amp_cond1,3.0.4,59.985224807361156,
interests,alar,&&&&,left,fairness.virtue,,,,,0,272,272,272,,,,,,,,,,,,,,,,,,,,,,,AMP,right,0.6504224854288623,,,right,0,0.6504224854288623,0,,,,,,,,,,,,,,,,,,,,1007,2019_Mar_06_0950,mf_amp_cond1,3.0.4,59.985224807361156,
faith,seachwear,&&&&&&&&&,left,sanctity.virtue,,,,,0,273,273,273,,,,,,,,,,,,,,,,,,,,,,,AMP,right,0.9171485494589433,,,right,0,0.9171485494589433,0,,,,,,,,,,,,,,,,,,,,1007,2019_Mar_06_0950,mf_amp_cond1,3.0.4,59.985224807361156,
praise,ecgagement,&&&&&&&&&&,left,authority.virtue,,,,,0,274,274,274,,,,,,,,,,,,,,,,,,,,,,,AMP,right,0.7004327805479988,,,right,0,0.7004327805479988,0,,,,,,,,,,,,,,,,,,,,1007,2019_Mar_06_0950,mf_amp_cond1,3.0.4,59.985224807361156,
victim,divility,&&&&&&&&,right,care.vice,,,,,0,275,275,275,,,,,,,,,,,,,,,,,,,,,,,AMP,right,0.43306495423894376,,,right,1,0.43306495423894376,1,,,,,,,,,,,,,,,,,,,,1007,2019_Mar_06_0950,mf_amp_cond1,3.0.4,59.985224807361156,
useful,gowlands,&&&&&&&&,left,authority.virtue,,,,,0,276,276,276,,,,,,,,,,,,,,,,,,,,,,,AMP,left,0.38369610044173896,,,left,1,0.38369610044173896,1,,,,,,,,,,,,,,,,,,,,1007,2019_Mar_06_0950,mf_amp_cond1,3.0.4,59.985224807361156,
fair,ejanulated,&&&&&&&&&&,left,fairness.virtue,,,,,0,277,277,277,,,,,,,,,,,,,,,,,,,,,,,AMP,right,0.4003694060957059,,,right,0,0.4003694060957059,0,,,,,,,,,,,,,,,,,,,,1007,2019_Mar_06_0950,mf_amp_cond1,3.0.4,59.985224807361156,
threatened,neputized,&&&&&&&&&,right,fairness.vice,,,,,0,278,278,278,,,,,,,,,,,,,,,,,,,,,,,AMP,left,0.38367717794608325,,,left,0,0.38367717794608325,0,,,,,,,,,,,,,,,,,,,,1007,2019_Mar_06_0950,mf_amp_cond1,3.0.4,59.985224807361156,
gikely,uller,&&&&&,None,nonword,,,,,0,279,279,279,,,,,,,,,,,,,,,,,,,,,,,AMP,right,0.3836829508654773,,,right,0,0.3836829508654773,0,,,,,,,,,,,,,,,,,,,,1007,2019_Mar_06_0950,mf_amp_cond1,3.0.4,59.985224807361156,
lies,egpeditious,&&&&&&&&&&&,right,fairness.vice,,,,,0,280,280,280,,,,,,,,,,,,,,,,,,,,,,,AMP,left,0.43370254698675126,,,left,0,0.43370254698675126,0,,,,,,,,,,,,,,,,,,,,1007,2019_Mar_06_0950,mf_amp_cond1,3.0.4,59.985224807361156,
epigrach,synchronazers,&&&&&&&&&&&&&,None,nonword,,,,,0,281,281,281,,,,,,,,,,,,,,,,,,,,,,,AMP,left,2.600869217189029,,,left,0,2.600869217189029,0,,,,,,,,,,,,,,,,,,,,1007,2019_Mar_06_0950,mf_amp_cond1,3.0.4,59.985224807361156,
army,photocalkodes,&&&&&&&&&&&&&,right,loyalty.vice,,,,,0,282,282,282,,,,,,,,,,,,,,,,,,,,,,,AMP,left,0.6004064172739163,,,left,0,0.6004064172739163,0,,,,,,,,,,,,,,,,,,,,1007,2019_Mar_06_0950,mf_amp_cond1,3.0.4,59.985224807361156,
civilians,crilfully,&&&&&&&&&,right,care.vice,,,,,0,283,283,283,,,,,,,,,,,,,,,,,,,,,,,AMP,right,0.26696435967460275,,,right,1,0.26696435967460275,1,,,,,,,,,,,,,,,,,,,,1007,2019_Mar_06_0950,mf_amp_cond1,3.0.4,59.985224807361156,
freedom,totalestic,&&&&&&&&&&,left,sanctity.virtue,,,,,0,284,284,284,,,,,,,,,,,,,,,,,,,,,,,AMP,left,0.4337727847741917,,,left,1,0.4337727847741917,1,,,,,,,,,,,,,,,,,,,,1007,2019_Mar_06_0950,mf_amp_cond1,3.0.4,59.985224807361156,
compassion,prones,&&&&&&,left,care.virtue,,,,,0,285,285,285,,,,,,,,,,,,,,,,,,,,,,,AMP,left,0.6337466139812022,,,left,1,0.6337466139812022,1,,,,,,,,,,,,,,,,,,,,1007,2019_Mar_06_0950,mf_amp_cond1,3.0.4,59.985224807361156,
party,allears,&&&&&&&,left,loyalty.virtue,,,,,0,286,286,286,,,,,,,,,,,,,,,,,,,,,,,AMP,right,0.3503366605145857,,,right,0,0.3503366605145857,0,,,,,,,,,,,,,,,,,,,,1007,2019_Mar_06_0950,mf_amp_cond1,3.0.4,59.985224807361156,
serial,ammessment,&&&&&&&&&&,right,sanctity.vice,,,,,0,287,287,287,,,,,,,,,,,,,,,,,,,,,,,AMP,right,0.7504376233555377,,,right,1,0.7504376233555377,1,,,,,,,,,,,,,,,,,,,,1007,2019_Mar_06_0950,mf_amp_cond1,3.0.4,59.985224807361156,
charges,tomedians,&&&&&&&&&,right,fairness.vice,,,,,0,288,288,288,,,,,,,,,,,,,,,,,,,,,,,AMP,right,0.7837794238002971,,,right,1,0.7837794238002971,1,,,,,,,,,,,,,,,,,,,,1007,2019_Mar_06_0950,mf_amp_cond1,3.0.4,59.985224807361156,
police,emassion,&&&&&&&&,right,authority.vice,,,,,0,289,289,289,,,,,,,,,,,,,,,,,,,,,,,AMP,left,0.4170183368260041,,,left,0,0.4170183368260041,0,,,,,,,,,,,,,,,,,,,,1007,2019_Mar_06_0950,mf_amp_cond1,3.0.4,59.985224807361156,
black,letish,&&&&&&,right,loyalty.vice,,,,,0,290,290,290,,,,,,,,,,,,,,,,,,,,,,,AMP,left,0.5503897077869624,,,left,0,0.5503897077869624,0,,,,,,,,,,,,,,,,,,,,1007,2019_Mar_06_0950,mf_amp_cond1,3.0.4,59.985224807361156,
violence,scock,&&&&&,right,care.vice,,,,,0,291,291,291,,,,,,,,,,,,,,,,,,,,,,,AMP,right,0.4837006547022611,,,right,1,0.4837006547022611,1,,,,,,,,,,,,,,,,,,,,1007,2019_Mar_06_0950,mf_amp_cond1,3.0.4,59.985224807361156,
intelligence,elduringly,&&&&&&&&&&,left,loyalty.virtue,,,,,0,292,292,292,,,,,,,,,,,,,,,,,,,,,,,AMP,left,0.6004109072964638,,,left,1,0.6004109072964638,1,,,,,,,,,,,,,,,,,,,,1007,2019_Mar_06_0950,mf_amp_cond1,3.0.4,59.985224807361156,
voter,tenuflect,&&&&&&&&&,right,fairness.vice,,,,,0,293,293,293,,,,,,,,,,,,,,,,,,,,,,,AMP,right,0.30031995102763176,,,right,1,0.30031995102763176,1,,,,,,,,,,,,,,,,,,,,1007,2019_Mar_06_0950,mf_amp_cond1,3.0.4,59.985224807361156,
pleasant,thadowed,&&&&&&&&,None,control,,,,,0,294,294,294,,,,,,,,,,,,,,,,,,,,,,,AMP,right,0.333670090069063,,,right,0,0.333670090069063,0,,,,,,,,,,,,,,,,,,,,1007,2019_Mar_06_0950,mf_amp_cond1,3.0.4,59.985224807361156,
forced,sidearbs,&&&&&&&&,right,fairness.vice,,,,,0,295,295,295,,,,,,,,,,,,,,,,,,,,,,,AMP,right,0.5003845440223813,,,right,1,0.5003845440223813,1,,,,,,,,,,,,,,,,,,,,1007,2019_Mar_06_0950,mf_amp_cond1,3.0.4,59.985224807361156,
harassment,pafer,&&&&&,right,sanctity.vice,,,,,0,296,296,296,,,,,,,,,,,,,,,,,,,,,,,AMP,right,0.7837823102017865,,,right,1,0.7837823102017865,1,,,,,,,,,,,,,,,,,,,,1007,2019_Mar_06_0950,mf_amp_cond1,3.0.4,59.985224807361156,
actively,focomotive,&&&&&&&&&&,left,authority.virtue,,,,,0,297,297,297,,,,,,,,,,,,,,,,,,,,,,,AMP,right,0.7836334957974032,,,right,0,0.7836334957974032,0,,,,,,,,,,,,,,,,,,,,1007,2019_Mar_06_0950,mf_amp_cond1,3.0.4,59.985224807361156,
praised,reelectiob,&&&&&&&&&&,left,loyalty.virtue,,,,,0,298,298,298,,,,,,,,,,,,,,,,,,,,,,,AMP,right,0.4336999811930582,,,right,0,0.4336999811930582,0,,,,,,,,,,,,,,,,,,,,1007,2019_Mar_06_0950,mf_amp_cond1,3.0.4,59.985224807361156,
violations,presentkess,&&&&&&&&&&&,right,sanctity.vice,,,,,0,299,299,299,,,,,,,,,,,,,,,,,,,,,,,AMP,left,0.28375472826883197,,,left,0,0.28375472826883197,0,,,,,,,,,,,,,,,,,,,,1007,2019_Mar_06_0950,mf_amp_cond1,3.0.4,59.985224807361156,
critics,frojecting,&&&&&&&&&&,right,loyalty.vice,,,,,0,300,300,300,,,,,,,,,,,,,,,,,,,,,,,AMP,right,0.20031796244438738,,,right,1,0.20031796244438738,1,,,,,,,,,,,,,,,,,,,,1007,2019_Mar_06_0950,mf_amp_cond1,3.0.4,59.985224807361156,
integrity,openet,&&&&&&,left,fairness.virtue,,,,,0,301,301,301,,,,,,,,,,,,,,,,,,,,,,,AMP,right,0.36701124894898385,,,right,0,0.36701124894898385,0,,,,,,,,,,,,,,,,,,,,1007,2019_Mar_06_0950,mf_amp_cond1,3.0.4,59.985224807361156,
growth,neutralust,&&&&&&&&&&,left,care.virtue,,,,,0,302,302,302,,,,,,,,,,,,,,,,,,,,,,,AMP,right,0.3670038724085316,,,right,0,0.3670038724085316,0,,,,,,,,,,,,,,,,,,,,1007,2019_Mar_06_0950,mf_amp_cond1,3.0.4,59.985224807361156,
rebels,saned,&&&&&,right,authority.vice,,,,,0,303,303,303,,,,,,,,,,,,,,,,,,,,,,,AMP,right,0.4504015102284029,,,right,1,0.4504015102284029,1,,,,,,,,,,,,,,,,,,,,1007,2019_Mar_06_0950,mf_amp_cond1,3.0.4,59.985224807361156,
refused,reprisols,&&&&&&&&&,right,authority.vice,,,,,0,304,304,304,,,,,,,,,,,,,,,,,,,,,,,AMP,right,0.5503916320158169,,,right,1,0.5503916320158169,1,,,,,,,,,,,,,,,,,,,,1007,2019_Mar_06_0950,mf_amp_cond1,3.0.4,59.985224807361156,
attacks,oam,&&&,right,care.vice,,,,,0,305,305,305,,,,,,,,,,,,,,,,,,,,,,,AMP,left,0.4003533700015396,,,left,0,0.4003533700015396,0,,,,,,,,,,,,,,,,,,,,1007,2019_Mar_06_0950,mf_amp_cond1,3.0.4,59.985224807361156,
pharing,ablow,&&&&&,None,nonword,,,,,0,306,306,306,,,,,,,,,,,,,,,,,,,,,,,AMP,right,0.23364597174804658,,,right,0,0.23364597174804658,0,,,,,,,,,,,,,,,,,,,,1007,2019_Mar_06_0950,mf_amp_cond1,3.0.4,59.985224807361156,
energy,dramens,&&&&&&&,left,sanctity.virtue,,,,,0,307,307,307,,,,,,,,,,,,,,,,,,,,,,,AMP,right,0.7004244417184964,,,right,0,0.7004244417184964,0,,,,,,,,,,,,,,,,,,,,1007,2019_Mar_06_0950,mf_amp_cond1,3.0.4,59.985224807361156,
restore,ebbitter,&&&&&&&&,left,care.virtue,,,,,0,308,308,308,,,,,,,,,,,,,,,,,,,,,,,AMP,left,0.6837777559412643,,,left,1,0.6837777559412643,1,,,,,,,,,,,,,,,,,,,,1007,2019_Mar_06_0950,mf_amp_cond1,3.0.4,59.985224807361156,
smapper,vicissifude,&&&&&&&&&&&,None,nonword,,,,,0,309,309,309,,,,,,,,,,,,,,,,,,,,,,,AMP,right,0.4003562566358596,,,right,0,0.4003562566358596,0,,,,,,,,,,,,,,,,,,,,1007,2019_Mar_06_0950,mf_amp_cond1,3.0.4,59.985224807361156,
support,simplustic,&&&&&&&&&&,left,loyalty.virtue,,,,,0,310,310,310,,,,,,,,,,,,,,,,,,,,,,,AMP,right,0.2170708067715168,,,right,0,0.2170708067715168,0,,,,,,,,,,,,,,,,,,,,1007,2019_Mar_06_0950,mf_amp_cond1,3.0.4,59.985224807361156,
peaceful,ilportation,&&&&&&&&&&&,left,authority.virtue,,,,,0,311,311,311,,,,,,,,,,,,,,,,,,,,,,,AMP,right,0.283677113824524,,,right,0,0.283677113824524,0,,,,,,,,,,,,,,,,,,,,1007,2019_Mar_06_0950,mf_amp_cond1,3.0.4,59.985224807361156,
groups,dumid,&&&&&,right,loyalty.vice,,,,,0,312,312,312,,,,,,,,,,,,,,,,,,,,,,,AMP,right,0.45038900210056454,,,right,1,0.45038900210056454,1,,,,,,,,,,,,,,,,,,,,1007,2019_Mar_06_0950,mf_amp_cond1,3.0.4,59.985224807361156,
progress,unreflectuve,&&&&&&&&&&&&,left,authority.virtue,,,,,0,313,313,313,,,,,,,,,,,,,,,,,,,,,,,AMP,left,1.4839687772328034,,,left,1,1.4839687772328034,1,,,,,,,,,,,,,,,,,,,,1007,2019_Mar_06_0950,mf_amp_cond1,3.0.4,59.985224807361156,
respect,chadows,&&&&&&&,left,sanctity.virtue,,,,,0,314,314,314,,,,,,,,,,,,,,,,,,,,,,,AMP,left,0.7004420814337209,,,left,1,0.7004420814337209,1,,,,,,,,,,,,,,,,,,,,1007,2019_Mar_06_0950,mf_amp_cond1,3.0.4,59.985224807361156,
ban,cromiscuity,&&&&&&&&&&&,right,loyalty.vice,,,,,0,315,315,315,,,,,,,,,,,,,,,,,,,,,,,AMP,left,0.6504058078862727,,,left,0,0.6504058078862727,0,,,,,,,,,,,,,,,,,,,,1007,2019_Mar_06_0950,mf_amp_cond1,3.0.4,59.985224807361156,
died,thabbily,&&&&&&&&,right,care.vice,,,,,0,316,316,316,,,,,,,,,,,,,,,,,,,,,,,AMP,left,0.7337739393115044,,,left,0,0.7337739393115044,0,,,,,,,,,,,,,,,,,,,,1007,2019_Mar_06_0950,mf_amp_cond1,3.0.4,59.985224807361156,
protect,mecan,&&&&&,left,fairness.virtue,,,,,0,317,317,317,,,,,,,,,,,,,,,,,,,,,,,AMP,left,1.3172536817146465,,,left,1,1.3172536817146465,1,,,,,,,,,,,,,,,,,,,,1007,2019_Mar_06_0950,mf_amp_cond1,3.0.4,59.985224807361156,
infet,antral,&&&&&&,None,nonword,,,,,0,318,318,318,,,,,,,,,,,,,,,,,,,,,,,AMP,left,0.5503865005448461,,,left,0,0.5503865005448461,0,,,,,,,,,,,,,,,,,,,,1007,2019_Mar_06_0950,mf_amp_cond1,3.0.4,59.985224807361156,
touls,pullness,&&&&&&&&,None,nonword,,,,,0,319,319,319,,,,,,,,,,,,,,,,,,,,,,,AMP,right,0.5336166579509154,,,right,0,0.5336166579509154,0,,,,,,,,,,,,,,,,,,,,1007,2019_Mar_06_0950,mf_amp_cond1,3.0.4,59.985224807361156,
gun,Daptist,&&&&&&&,right,authority.vice,,,,,0,320,320,320,,,,,,,,,,,,,,,,,,,,,,,AMP,left,0.6004243775969371,,,left,0,0.6004243775969371,0,,,,,,,,,,,,,,,,,,,,1007,2019_Mar_06_0950,mf_amp_cond1,3.0.4,59.985224807361156,
increase,sliptery,&&&&&&&&,left,care.virtue,,,,,0,321,321,321,,,,,,,,,,,,,,,,,,,,,,,AMP,right,0.4837253501173109,,,right,0,0.4837253501173109,0,,,,,,,,,,,,,,,,,,,,1007,2019_Mar_06_0950,mf_amp_cond1,3.0.4,59.985224807361156,
credit,brudent,&&&&&&&,left,fairness.virtue,,,,,0,322,322,322,,,,,,,,,,,,,,,,,,,,,,,AMP,left,0.4336595704080537,,,left,1,0.4336595704080537,1,,,,,,,,,,,,,,,,,,,,1007,2019_Mar_06_0950,mf_amp_cond1,3.0.4,59.985224807361156,
victims,nackers,&&&&&&&,right,care.vice,,,,,0,323,323,323,,,,,,,,,,,,,,,,,,,,,,,AMP,left,0.7170961437514052,,,left,0,0.7170961437514052,0,,,,,,,,,,,,,,,,,,,,1007,2019_Mar_06_0950,mf_amp_cond1,3.0.4,59.985224807361156,
ability,unscothed,&&&&&&&&&,left,authority.virtue,,,,,0,324,324,324,,,,,,,,,,,,,,,,,,,,,,,AMP,right,0.5670694276923314,,,right,0,0.5670694276923314,0,,,,,,,,,,,,,,,,,,,,1007,2019_Mar_06_0950,mf_amp_cond1,3.0.4,59.985224807361156,
encourage,hatigue,&&&&&&&,left,authority.virtue,,,,,0,325,325,325,,,,,,,,,,,,,,,,,,,,,,,AMP,right,0.3836778193945065,,,right,0,0.3836778193945065,0,,,,,,,,,,,,,,,,,,,,1007,2019_Mar_06_0950,mf_amp_cond1,3.0.4,59.985224807361156,
riot,crinking,&&&&&&&&,right,authority.vice,,,,,0,326,326,326,,,,,,,,,,,,,,,,,,,,,,,AMP,left,0.550409271614626,,,left,0,0.550409271614626,0,,,,,,,,,,,,,,,,,,,,1007,2019_Mar_06_0950,mf_amp_cond1,3.0.4,59.985224807361156,
help,chared,&&&&&&,left,care.virtue,,,,,0,327,327,327,,,,,,,,,,,,,,,,,,,,,,,AMP,right,0.3836803851881996,,,right,0,0.3836803851881996,0,,,,,,,,,,,,,,,,,,,,1007,2019_Mar_06_0950,mf_amp_cond1,3.0.4,59.985224807361156,
,,,,,,,,,,,,,,,,,,,,,,,,,,,,,,,,,,,,,,,,,,,,6,17.106,,,,,,,,,,,,,,,,,,1007,2019_Mar_06_0950,mf_amp_cond1,3.0.4,59.985224807361156,
,,,,,,,,,,,,,,,,,,,,,,,,,,,,,,,,,,,,,,,,,,,,,,4,7.087,,,,,,,,,,,,,,,,1007,2019_Mar_06_0950,mf_amp_cond1,3.0.4,59.985224807361156,
,,,,,,,,,,,,,,,,,,,,,,,,,,,,,,,,,,,,,,,,,,,,,,,,4,7.987,,,,,,,,,,,,,,1007,2019_Mar_06_0950,mf_amp_cond1,3.0.4,59.985224807361156,
,,,,,,,,,,,,,,,,,,,,,,,,,,,,,,,,,,,,,,,,,,,,,,,,,,right,1.8840553076006472,,,,,,,,,,,,1007,2019_Mar_06_0950,mf_amp_cond1,3.0.4,59.985224807361156,
bisebell,,&&&&&&&,,,,,,,,,,,0,0,0,1,,,,,,,,,,,,,,,,,,,LDT_prac,left,2.3508446820778772,,,,,,0,,,,,,,,,left,2.3508446820778772,,,,,,,,,,1007,2019_Mar_06_0950,mf_amp_cond1,3.0.4,59.985224807361156,
keyboard,,&&&&&&&,,,,,,,,,,,0,1,1,0,,,,,,,,,,,,,,,,,,,LDT_prac,right,0.8837964860722423,,,,,,0,,,,,,,,,right,0.8837964860722423,,,,,,,,,,1007,2019_Mar_06_0950,mf_amp_cond1,3.0.4,59.985224807361156,
,,,,,,,,,,,,,,,,,,,,,,,,,,,,,,,,,,,,,,,,,,,,,,,,,,,,,,right,0.9171405314700678,,,,,,,,1007,2019_Mar_06_0950,mf_amp_cond1,3.0.4,59.985224807361156,
three,,&&&&&,left,neutral,,,,,,,,,,,,,0,0,0,125,,,,,,,,,,,,,,,LDT,left,1.950932944426313,,,,,,1,,,,,,,,,,,,,left,1,1.950932944426313,,,,,1007,2019_Mar_06_0950,mf_amp_cond1,3.0.4,59.985224807361156,
great,,&&&&&,left,loyalty.virtue,,,,,,,,,,,,,0,1,1,153,,,,,,,,,,,,,,,LDT,right,0.833799340412952,,,,,,0,,,,,,,,,,,,,right,0,0.833799340412952,,,,,1007,2019_Mar_06_0950,mf_amp_cond1,3.0.4,59.985224807361156,
conspiracy,,&&&&&&&&&&,left,sanctity.vice,,,,,,,,,,,,,0,2,2,162,,,,,,,,,,,,,,,LDT,right,1.0005028899759054,,,,,,0,,,,,,,,,,,,,right,0,1.0005028899759054,,,,,1007,2019_Mar_06_0950,mf_amp_cond1,3.0.4,59.985224807361156,
honored,,&&&&&&&,left,authority.virtue,,,,,,,,,,,,,0,3,3,52,,,,,,,,,,,,,,,LDT,right,0.6837851325981319,,,,,,0,,,,,,,,,,,,,right,0,0.6837851325981319,,,,,1007,2019_Mar_06_0950,mf_amp_cond1,3.0.4,59.985224807361156,
hate,,&&&&,left,fairness.vice,,,,,,,,,,,,,0,4,4,186,,,,,,,,,,,,,,,LDT,right,0.7671208712272346,,,,,,0,,,,,,,,,,,,,right,0,0.7671208712272346,,,,,1007,2019_Mar_06_0950,mf_amp_cond1,3.0.4,59.985224807361156,
perfect,,&&&&&&&,left,sanctity.virtue,,,,,,,,,,,,,0,5,5,47,,,,,,,,,,,,,,,LDT,right,0.7336260871961713,,,,,,0,,,,,,,,,,,,,right,0,0.7336260871961713,,,,,1007,2019_Mar_06_0950,mf_amp_cond1,3.0.4,59.985224807361156,
clean,,&&&&&,left,sanctity.virtue,,,,,,,,,,,,,0,6,6,120,,,,,,,,,,,,,,,LDT,right,1.367265901179053,,,,,,0,,,,,,,,,,,,,right,0,1.367265901179053,,,,,1007,2019_Mar_06_0950,mf_amp_cond1,3.0.4,59.985224807361156,
terrorists,,&&&&&&&&&&,left,fairness.vice,,,,,,,,,,,,,0,7,7,64,,,,,,,,,,,,,,,LDT,left,1.0505221652565524,,,,,,1,,,,,,,,,,,,,left,1,1.0505221652565524,,,,,1007,2019_Mar_06_0950,mf_amp_cond1,3.0.4,59.985224807361156,
viscs,,&&&&&,None,nonword,,,,,,,,,,,,,0,8,8,63,,,,,,,,,,,,,,,LDT,left,0.9004800546681508,,,,,,0,,,,,,,,,,,,,left,0,0.9004800546681508,,,,,1007,2019_Mar_06_0950,mf_amp_cond1,3.0.4,59.985224807361156,
care,,&&&&,left,care.virtue,,,,,,,,,,,,,0,9,9,42,,,,,,,,,,,,,,,LDT,right,0.5004387458320707,,,,,,0,,,,,,,,,,,,,right,0,0.5004387458320707,,,,,1007,2019_Mar_06_0950,mf_amp_cond1,3.0.4,59.985224807361156,
strofe,,&&&&&&,right,nonword,,,,,,,,,,,,,0,10,10,19,,,,,,,,,,,,,,,LDT,left,1.250570080941543,,,,,,0,,,,,,,,,,,,,left,0,1.250570080941543,,,,,1007,2019_Mar_06_0950,mf_amp_cond1,3.0.4,59.985224807361156,
been,,&&&&,left,neutral,,,,,,,,,,,,,0,11,11,160,,,,,,,,,,,,,,,LDT,right,0.5003749224124476,,,,,,0,,,,,,,,,,,,,right,0,0.5003749224124476,,,,,1007,2019_Mar_06_0950,mf_amp_cond1,3.0.4,59.985224807361156,
arrests,,&&&&&&&,left,authority.vice,,,,,,,,,,,,,0,12,12,53,,,,,,,,,,,,,,,LDT,right,0.7004331012722105,,,,,,0,,,,,,,,,,,,,right,0,0.7004331012722105,,,,,1007,2019_Mar_06_0950,mf_amp_cond1,3.0.4,59.985224807361156,
quarterbocks,,&&&&&&&&&&&&,right,nonword,,,,,,,,,,,,,0,13,13,171,,,,,,,,,,,,,,,LDT,left,0.5503938770852983,,,,,,0,,,,,,,,,,,,,left,0,0.5503938770852983,,,,,1007,2019_Mar_06_0950,mf_amp_cond1,3.0.4,59.985224807361156,
perified,,&&&&&&&&,right,nonword,,,,,,,,,,,,,0,14,14,59,,,,,,,,,,,,,,,LDT,right,0.6337565563153476,,,,,,1,,,,,,,,,,,,,right,1,0.6337565563153476,,,,,1007,2019_Mar_06_0950,mf_amp_cond1,3.0.4,59.985224807361156,
fraud,,&&&&&,left,fairness.vice,,,,,,,,,,,,,0,15,15,149,,,,,,,,,,,,,,,LDT,right,0.8671344057656825,,,,,,0,,,,,,,,,,,,,right,0,0.8671344057656825,,,,,1007,2019_Mar_06_0950,mf_amp_cond1,3.0.4,59.985224807361156,
done,,&&&&,left,neutral,,,,,,,,,,,,,0,16,16,109,,,,,,,,,,,,,,,LDT,left,0.6837668514344841,,,,,,1,,,,,,,,,,,,,left,1,0.6837668514344841,,,,,1007,2019_Mar_06_0950,mf_amp_cond1,3.0.4,59.985224807361156,
about,,&&&&&,left,neutral,,,,,,,,,,,,,0,17,17,51,,,,,,,,,,,,,,,LDT,right,0.8004556157393381,,,,,,0,,,,,,,,,,,,,right,0,0.8004556157393381,,,,,1007,2019_Mar_06_0950,mf_amp_cond1,3.0.4,59.985224807361156,
laming,,&&&&&&,right,nonword,,,,,,,,,,,,,0,18,18,166,,,,,,,,,,,,,,,LDT,left,1.183723554131575,,,,,,0,,,,,,,,,,,,,left,0,1.183723554131575,,,,,1007,2019_Mar_06_0950,mf_amp_cond1,3.0.4,59.985224807361156,
Cunday,,&&&&&&,None,nonword,,,,,,,,,,,,,0,19,19,128,,,,,,,,,,,,,,,LDT,left,0.6837687757797539,,,,,,0,,,,,,,,,,,,,left,0,0.6837687757797539,,,,,1007,2019_Mar_06_0950,mf_amp_cond1,3.0.4,59.985224807361156,
were,,&&&&,left,neutral,,,,,,,,,,,,,0,20,20,147,,,,,,,,,,,,,,,LDT,right,0.717136233812198,,,,,,0,,,,,,,,,,,,,right,0,0.717136233812198,,,,,1007,2019_Mar_06_0950,mf_amp_cond1,3.0.4,59.985224807361156,
each,,&&&&,left,neutral,,,,,,,,,,,,,0,21,21,49,,,,,,,,,,,,,,,LDT,left,0.5337340418482199,,,,,,1,,,,,,,,,,,,,left,1,0.5337340418482199,,,,,1007,2019_Mar_06_0950,mf_amp_cond1,3.0.4,59.985224807361156,
honstables,,&&&&&&&&&&,right,nonword,,,,,,,,,,,,,0,22,22,104,,,,,,,,,,,,,,,LDT,right,0.9171552846673876,,,,,,1,,,,,,,,,,,,,right,1,0.9171552846673876,,,,,1007,2019_Mar_06_0950,mf_amp_cond1,3.0.4,59.985224807361156,
framo,,&&&&&,right,nonword,,,,,,,,,,,,,0,23,23,75,,,,,,,,,,,,,,,LDT,left,0.7838002706412226,,,,,,0,,,,,,,,,,,,,left,0,0.7838002706412226,,,,,1007,2019_Mar_06_0950,mf_amp_cond1,3.0.4,59.985224807361156,
scandal,,&&&&&&&,left,sanctity.vice,,,,,,,,,,,,,0,24,24,86,,,,,,,,,,,,,,,LDT,right,1.7006713966839015,,,,,,0,,,,,,,,,,,,,right,0,1.7006713966839015,,,,,1007,2019_Mar_06_0950,mf_amp_cond1,3.0.4,59.985224807361156,
mostly,,&&&&&&,left,neutral,,,,,,,,,,,,,0,25,25,164,,,,,,,,,,,,,,,LDT,right,0.667139729601331,,,,,,0,,,,,,,,,,,,,right,0,0.667139729601331,,,,,1007,2019_Mar_06_0950,mf_amp_cond1,3.0.4,59.985224807361156,
embrace,,&&&&&&&,left,authority.virtue,,,,,,,,,,,,,0,26,26,108,,,,,,,,,,,,,,,LDT,right,0.8838574229739606,,,,,,0,,,,,,,,,,,,,right,0,0.8838574229739606,,,,,1007,2019_Mar_06_0950,mf_amp_cond1,3.0.4,59.985224807361156,
values,,&&&&&&,left,sanctity.virtue,,,,,,,,,,,,,0,27,27,138,,,,,,,,,,,,,,,LDT,left,0.5004195026122034,,,,,,1,,,,,,,,,,,,,left,1,0.5004195026122034,,,,,1007,2019_Mar_06_0950,mf_amp_cond1,3.0.4,59.985224807361156,
ensure,,&&&&&&,left,fairness.virtue,,,,,,,,,,,,,0,28,28,173,,,,,,,,,,,,,,,LDT,right,0.7004424020415172,,,,,,0,,,,,,,,,,,,,right,0,0.7004424020415172,,,,,1007,2019_Mar_06_0950,mf_amp_cond1,3.0.4,59.985224807361156,
tracious,,&&&&&&&&,right,nonword,,,,,,,,,,,,,0,29,29,110,,,,,,,,,,,,,,,LDT,left,0.8004613887751475,,,,,,0,,,,,,,,,,,,,left,0,0.8004613887751475,,,,,1007,2019_Mar_06_0950,mf_amp_cond1,3.0.4,59.985224807361156,
suggists,,&&&&&&&&,right,nonword,,,,,,,,,,,,,0,30,30,159,,,,,,,,,,,,,,,LDT,left,0.5837382432073355,,,,,,0,,,,,,,,,,,,,left,0,0.5837382432073355,,,,,1007,2019_Mar_06_0950,mf_amp_cond1,3.0.4,59.985224807361156,
whereafter,,&&&&&&&&&&,left,neutral,,,,,,,,,,,,,0,31,31,3,,,,,,,,,,,,,,,LDT,left,1.4337708605453372,,,,,,1,,,,,,,,,,,,,left,1,1.4337708605453372,,,,,1007,2019_Mar_06_0950,mf_amp_cond1,3.0.4,59.985224807361156,
benefit,,&&&&&&&,left,fairness.virtue,,,,,,,,,,,,,0,32,32,180,,,,,,,,,,,,,,,LDT,right,0.650405487162061,,,,,,0,,,,,,,,,,,,,right,0,0.650405487162061,,,,,1007,2019_Mar_06_0950,mf_amp_cond1,3.0.4,59.985224807361156,
with,,&&&&,left,neutral,,,,,,,,,,,,,0,33,33,183,,,,,,,,,,,,,,,LDT,left,1.2839243893977255,,,,,,1,,,,,,,,,,,,,left,1,1.2839243893977255,,,,,1007,2019_Mar_06_0950,mf_amp_cond1,3.0.4,59.985224807361156,
fonderland,,&&&&&&&&&&,right,nonword,,,,,,,,,,,,,0,34,34,21,,,,,,,,,,,,,,,LDT,right,0.833831733209081,,,,,,1,,,,,,,,,,,,,right,1,0.833831733209081,,,,,1007,2019_Mar_06_0950,mf_amp_cond1,3.0.4,59.985224807361156,
fighters,,&&&&&&&&,left,authority.vice,,,,,,,,,,,,,0,35,35,68,,,,,,,,,,,,,,,LDT,left,1.0171800442039967,,,,,,1,,,,,,,,,,,,,left,1,1.0171800442039967,,,,,1007,2019_Mar_06_0950,mf_amp_cond1,3.0.4,59.985224807361156,
couldnt,,&&&&&&&,left,neutral,,,,,,,,,,,,,0,36,36,4,,,,,,,,,,,,,,,LDT,left,0.8004636338446289,,,,,,1,,,,,,,,,,,,,left,1,0.8004636338446289,,,,,1007,2019_Mar_06_0950,mf_amp_cond1,3.0.4,59.985224807361156,
men,,&&&,left,loyalty.vice,,,,,,,,,,,,,0,37,37,187,,,,,,,,,,,,,,,LDT,right,0.6170745912240818,,,,,,0,,,,,,,,,,,,,right,0,0.6170745912240818,,,,,1007,2019_Mar_06_0950,mf_amp_cond1,3.0.4,59.985224807361156,
least,,&&&&&,left,neutral,,,,,,,,,,,,,0,38,38,196,,,,,,,,,,,,,,,LDT,right,0.617082288605161,,,,,,0,,,,,,,,,,,,,right,0,0.617082288605161,,,,,1007,2019_Mar_06_0950,mf_amp_cond1,3.0.4,59.985224807361156,
trust,,&&&&&,left,authority.virtue,,,,,,,,,,,,,0,39,39,69,,,,,,,,,,,,,,,LDT,right,0.6337549526942894,,,,,,0,,,,,,,,,,,,,right,0,0.6337549526942894,,,,,1007,2019_Mar_06_0950,mf_amp_cond1,3.0.4,59.985224807361156,
health,,&&&&&&,left,care.virtue,,,,,,,,,,,,,0,40,40,191,,,,,,,,,,,,,,,LDT,right,0.4503954165847972,,,,,,0,,,,,,,,,,,,,right,0,0.4503954165847972,,,,,1007,2019_Mar_06_0950,mf_amp_cond1,3.0.4,59.985224807361156,
framatic,,&&&&&&&&,right,nonword,,,,,,,,,,,,,0,41,41,132,,,,,,,,,,,,,,,LDT,right,0.6004032100318,,,,,,1,,,,,,,,,,,,,right,1,0.6004032100318,,,,,1007,2019_Mar_06_0950,mf_amp_cond1,3.0.4,59.985224807361156,
latter,,&&&&&&,left,neutral,,,,,,,,,,,,,0,42,42,8,,,,,,,,,,,,,,,LDT,left,0.45037072093691677,,,,,,1,,,,,,,,,,,,,left,1,0.45037072093691677,,,,,1007,2019_Mar_06_0950,mf_amp_cond1,3.0.4,59.985224807361156,
could,,&&&&&,left,neutral,,,,,,,,,,,,,0,43,43,177,,,,,,,,,,,,,,,LDT,left,0.6504231267608702,,,,,,1,,,,,,,,,,,,,left,1,0.6504231267608702,,,,,1007,2019_Mar_06_0950,mf_amp_cond1,3.0.4,59.985224807361156,
refuejing,,&&&&&&&&&,right,nonword,,,,,,,,,,,,,0,44,44,194,,,,,,,,,,,,,,,LDT,right,0.40036972681991756,,,,,,1,,,,,,,,,,,,,right,1,0.40036972681991756,,,,,1007,2019_Mar_06_0950,mf_amp_cond1,3.0.4,59.985224807361156,
amount,,&&&&&&,left,neutral,,,,,,,,,,,,,0,45,45,31,,,,,,,,,,,,,,,LDT,left,0.48370514484122396,,,,,,1,,,,,,,,,,,,,left,1,0.48370514484122396,,,,,1007,2019_Mar_06_0950,mf_amp_cond1,3.0.4,59.985224807361156,
sharing,,&&&&&&&,left,loyalty.virtue,,,,,,,,,,,,,0,46,46,105,,,,,,,,,,,,,,,LDT,left,0.5837279800325632,,,,,,1,,,,,,,,,,,,,left,1,0.5837279800325632,,,,,1007,2019_Mar_06_0950,mf_amp_cond1,3.0.4,59.985224807361156,
pistraught,,&&&&&&&&&&,right,nonword,,,,,,,,,,,,,0,47,47,152,,,,,,,,,,,,,,,LDT,right,0.5003970521502197,,,,,,1,,,,,,,,,,,,,right,1,0.5003970521502197,,,,,1007,2019_Mar_06_0950,mf_amp_cond1,3.0.4,59.985224807361156,
reviked,,&&&&&&&,right,nonword,,,,,,,,,,,,,0,48,48,151,,,,,,,,,,,,,,,LDT,right,0.6003942298702896,,,,,,1,,,,,,,,,,,,,right,1,0.6003942298702896,,,,,1007,2019_Mar_06_0950,mf_amp_cond1,3.0.4,59.985224807361156,
halaise,,&&&&&&&,None,nonword,,,,,,,,,,,,,0,49,49,99,,,,,,,,,,,,,,,LDT,right,0.467047875165008,,,,,,0,,,,,,,,,,,,,right,0,0.467047875165008,,,,,1007,2019_Mar_06_0950,mf_amp_cond1,3.0.4,59.985224807361156,
clattening,,&&&&&&&&&&,right,nonword,,,,,,,,,,,,,0,50,50,148,,,,,,,,,,,,,,,LDT,right,0.5337276273639873,,,,,,1,,,,,,,,,,,,,right,1,0.5337276273639873,,,,,1007,2019_Mar_06_0950,mf_amp_cond1,3.0.4,59.985224807361156,
chressing,,&&&&&&&&&,None,nonword,,,,,,,,,,,,,0,51,51,41,,,,,,,,,,,,,,,LDT,left,0.8337913224240765,,,,,,0,,,,,,,,,,,,,left,0,0.8337913224240765,,,,,1007,2019_Mar_06_0950,mf_amp_cond1,3.0.4,59.985224807361156,
strong,,&&&&&&,left,loyalty.virtue,,,,,,,,,,,,,0,52,52,66,,,,,,,,,,,,,,,LDT,right,0.6170675355242565,,,,,,0,,,,,,,,,,,,,right,0,0.6170675355242565,,,,,1007,2019_Mar_06_0950,mf_amp_cond1,3.0.4,59.985224807361156,
therefore,,&&&&&&&&&,left,neutral,,,,,,,,,,,,,0,53,53,129,,,,,,,,,,,,,,,LDT,right,0.533834106521681,,,,,,0,,,,,,,,,,,,,right,0,0.533834106521681,,,,,1007,2019_Mar_06_0950,mf_amp_cond1,3.0.4,59.985224807361156,
drumbled,,&&&&&&&&,right,nonword,,,,,,,,,,,,,0,54,54,102,,,,,,,,,,,,,,,LDT,left,0.7671125325141475,,,,,,0,,,,,,,,,,,,,left,0,0.7671125325141475,,,,,1007,2019_Mar_06_0950,mf_amp_cond1,3.0.4,59.985224807361156,
toward,,&&&&&&,left,neutral,,,,,,,,,,,,,0,55,55,150,,,,,,,,,,,,,,,LDT,right,0.5337151192361489,,,,,,0,,,,,,,,,,,,,right,0,0.5337151192361489,,,,,1007,2019_Mar_06_0950,mf_amp_cond1,3.0.4,59.985224807361156,
rivernoat,,&&&&&&&&&,right,nonword,,,,,,,,,,,,,0,56,56,156,,,,,,,,,,,,,,,LDT,left,0.4170340521959588,,,,,,0,,,,,,,,,,,,,left,0,0.4170340521959588,,,,,1007,2019_Mar_06_0950,mf_amp_cond1,3.0.4,59.985224807361156,
anything,,&&&&&&&&,left,neutral,,,,,,,,,,,,,0,57,57,184,,,,,,,,,,,,,,,LDT,right,0.8671283120056614,,,,,,0,,,,,,,,,,,,,right,0,0.8671283120056614,,,,,1007,2019_Mar_06_0950,mf_amp_cond1,3.0.4,59.985224807361156,
blunderints,,&&&&&&&&&&&,right,nonword,,,,,,,,,,,,,0,58,58,154,,,,,,,,,,,,,,,LDT,left,0.7337800330715254,,,,,,0,,,,,,,,,,,,,left,0,0.7337800330715254,,,,,1007,2019_Mar_06_0950,mf_amp_cond1,3.0.4,59.985224807361156,
gusinesslike,,&&&&&&&&&&&&,right,nonword,,,,,,,,,,,,,0,59,59,32,,,,,,,,,,,,,,,LDT,left,0.7504369819071144,,,,,,0,,,,,,,,,,,,,left,0,0.7504369819071144,,,,,1007,2019_Mar_06_0950,mf_amp_cond1,3.0.4,59.985224807361156,
racist,,&&&&&&,left,sanctity.vice,,,,,,,,,,,,,0,60,60,190,,,,,,,,,,,,,,,LDT,right,0.6004102659644559,,,,,,0,,,,,,,,,,,,,right,0,0.6004102659644559,,,,,1007,2019_Mar_06_0950,mf_amp_cond1,3.0.4,59.985224807361156,
noone,,&&&&&,left,neutral,,,,,,,,,,,,,0,61,61,167,,,,,,,,,,,,,,,LDT,right,0.83379003952723,,,,,,0,,,,,,,,,,,,,right,0,0.83379003952723,,,,,1007,2019_Mar_06_0950,mf_amp_cond1,3.0.4,59.985224807361156,
forty,,&&&&&,left,neutral,,,,,,,,,,,,,0,62,62,131,,,,,,,,,,,,,,,LDT,left,0.9004867898765951,,,,,,1,,,,,,,,,,,,,left,1,0.9004867898765951,,,,,1007,2019_Mar_06_0950,mf_amp_cond1,3.0.4,59.985224807361156,
although,,&&&&&&&&,left,neutral,,,,,,,,,,,,,0,63,63,98,,,,,,,,,,,,,,,LDT,left,1.784047546214424,,,,,,1,,,,,,,,,,,,,left,1,1.784047546214424,,,,,1007,2019_Mar_06_0950,mf_amp_cond1,3.0.4,59.985224807361156,
hope,,&&&&,left,loyalty.virtue,,,,,,,,,,,,,0,64,64,141,,,,,,,,,,,,,,,LDT,right,0.5504089508904144,,,,,,0,,,,,,,,,,,,,right,0,0.5504089508904144,,,,,1007,2019_Mar_06_0950,mf_amp_cond1,3.0.4,59.985224807361156,
gazily,,&&&&&&,right,nonword,,,,,,,,,,,,,0,65,65,165,,,,,,,,,,,,,,,LDT,right,0.5503913112916052,,,,,,1,,,,,,,,,,,,,right,1,0.5503913112916052,,,,,1007,2019_Mar_06_0950,mf_amp_cond1,3.0.4,59.985224807361156,
pumber,,&&&&&&,None,nonword,,,,,,,,,,,,,0,66,66,95,,,,,,,,,,,,,,,LDT,left,0.43370767845772207,,,,,,0,,,,,,,,,,,,,left,0,0.43370767845772207,,,,,1007,2019_Mar_06_0950,mf_amp_cond1,3.0.4,59.985224807361156,
dormandi,,&&&&&&&&,None,nonword,,,,,,,,,,,,,0,67,67,96,,,,,,,,,,,,,,,LDT,right,0.4670546103734523,,,,,,0,,,,,,,,,,,,,right,0,0.4670546103734523,,,,,1007,2019_Mar_06_0950,mf_amp_cond1,3.0.4,59.985224807361156,
ugeasily,,&&&&&&&&,right,nonword,,,,,,,,,,,,,0,68,68,101,,,,,,,,,,,,,,,LDT,right,0.4170215440681204,,,,,,1,,,,,,,,,,,,,right,1,0.4170215440681204,,,,,1007,2019_Mar_06_0950,mf_amp_cond1,3.0.4,59.985224807361156,
towards,,&&&&&&&,left,neutral,,,,,,,,,,,,,0,69,69,82,,,,,,,,,,,,,,,LDT,right,0.4003485592547804,,,,,,0,,,,,,,,,,,,,right,0,0.4003485592547804,,,,,1007,2019_Mar_06_0950,mf_amp_cond1,3.0.4,59.985224807361156,
seem,,&&&&,left,neutral,,,,,,,,,,,,,0,70,70,70,,,,,,,,,,,,,,,LDT,right,0.3836867995560169,,,,,,0,,,,,,,,,,,,,right,0,0.3836867995560169,,,,,1007,2019_Mar_06_0950,mf_amp_cond1,3.0.4,59.985224807361156,
gandbrake,,&&&&&&&&&,right,nonword,,,,,,,,,,,,,0,71,71,28,,,,,,,,,,,,,,,LDT,left,0.4837163699558005,,,,,,0,,,,,,,,,,,,,left,0,0.4837163699558005,,,,,1007,2019_Mar_06_0950,mf_amp_cond1,3.0.4,59.985224807361156,
hence,,&&&&&,left,neutral,,,,,,,,,,,,,0,72,72,97,,,,,,,,,,,,,,,LDT,left,0.5170690749073401,,,,,,1,,,,,,,,,,,,,left,1,0.5170690749073401,,,,,1007,2019_Mar_06_0950,mf_amp_cond1,3.0.4,59.985224807361156,
taxpayung,,&&&&&&&&&,right,nonword,,,,,,,,,,,,,0,73,73,56,,,,,,,,,,,,,,,LDT,right,0.5337250615702942,,,,,,1,,,,,,,,,,,,,right,1,0.5337250615702942,,,,,1007,2019_Mar_06_0950,mf_amp_cond1,3.0.4,59.985224807361156,
blamed,,&&&&&&,left,loyalty.vice,,,,,,,,,,,,,0,74,74,192,,,,,,,,,,,,,,,LDT,left,0.3669948922470212,,,,,,1,,,,,,,,,,,,,left,1,0.3669948922470212,,,,,1007,2019_Mar_06_0950,mf_amp_cond1,3.0.4,59.985224807361156,
fear,,&&&&,left,sanctity.vice,,,,,,,,,,,,,0,75,75,34,,,,,,,,,,,,,,,LDT,right,0.9171565674478188,,,,,,0,,,,,,,,,,,,,right,0,0.9171565674478188,,,,,1007,2019_Mar_06_0950,mf_amp_cond1,3.0.4,59.985224807361156,
gaultless,,&&&&&&&&&,right,nonword,,,,,,,,,,,,,0,76,76,144,,,,,,,,,,,,,,,LDT,left,0.7004353462252766,,,,,,0,,,,,,,,,,,,,left,0,0.7004353462252766,,,,,1007,2019_Mar_06_0950,mf_amp_cond1,3.0.4,59.985224807361156,
gationwide,,&&&&&&&&&&,right,nonword,,,,,,,,,,,,,0,77,77,11,,,,,,,,,,,,,,,LDT,left,0.517212116275914,,,,,,0,,,,,,,,,,,,,left,0,0.517212116275914,,,,,1007,2019_Mar_06_0950,mf_amp_cond1,3.0.4,59.985224807361156,
powerful,,&&&&&&&&,left,authority.virtue,,,,,,,,,,,,,0,78,78,182,,,,,,,,,,,,,,,LDT,right,0.5837308665504679,,,,,,0,,,,,,,,,,,,,right,0,0.5837308665504679,,,,,1007,2019_Mar_06_0950,mf_amp_cond1,3.0.4,59.985224807361156,
myself,,&&&&&&,left,neutral,,,,,,,,,,,,,0,79,79,33,,,,,,,,,,,,,,,LDT,right,0.6504179951734841,,,,,,0,,,,,,,,,,,,,right,0,0.6504179951734841,,,,,1007,2019_Mar_06_0950,mf_amp_cond1,3.0.4,59.985224807361156,
give,,&&&&,left,neutral,,,,,,,,,,,,,0,80,80,157,,,,,,,,,,,,,,,LDT,right,0.6505161358509213,,,,,,0,,,,,,,,,,,,,right,0,0.6505161358509213,,,,,1007,2019_Mar_06_0950,mf_amp_cond1,3.0.4,59.985224807361156,
also,,&&&&,left,neutral,,,,,,,,,,,,,0,81,81,118,,,,,,,,,,,,,,,LDT,right,0.6504199196351692,,,,,,0,,,,,,,,,,,,,right,0,0.6504199196351692,,,,,1007,2019_Mar_06_0950,mf_amp_cond1,3.0.4,59.985224807361156,
godlaness,,&&&&&&&&&,right,nonword,,,,,,,,,,,,,0,82,82,61,,,,,,,,,,,,,,,LDT,left,0.7337822781410068,,,,,,0,,,,,,,,,,,,,left,0,0.7337822781410068,,,,,1007,2019_Mar_06_0950,mf_amp_cond1,3.0.4,59.985224807361156,
lorthwhile,,&&&&&&&&&&,right,nonword,,,,,,,,,,,,,0,83,83,92,,,,,,,,,,,,,,,LDT,right,0.5837132269516587,,,,,,1,,,,,,,,,,,,,right,1,0.5837132269516587,,,,,1007,2019_Mar_06_0950,mf_amp_cond1,3.0.4,59.985224807361156,
eight,,&&&&&,left,neutral,,,,,,,,,,,,,0,84,84,130,,,,,,,,,,,,,,,LDT,right,0.4670385743957013,,,,,,0,,,,,,,,,,,,,right,0,0.4670385743957013,,,,,1007,2019_Mar_06_0950,mf_amp_cond1,3.0.4,59.985224807361156,
Boeinf,,&&&&&&,right,nonword,,,,,,,,,,,,,0,85,85,175,,,,,,,,,,,,,,,LDT,right,0.583739526104182,,,,,,1,,,,,,,,,,,,,right,1,0.583739526104182,,,,,1007,2019_Mar_06_0950,mf_amp_cond1,3.0.4,59.985224807361156,
lenon,,&&&&&,right,nonword,,,,,,,,,,,,,0,86,86,181,,,,,,,,,,,,,,,LDT,left,0.8171411086805165,,,,,,0,,,,,,,,,,,,,left,0,0.8171411086805165,,,,,1007,2019_Mar_06_0950,mf_amp_cond1,3.0.4,59.985224807361156,
whither,,&&&&&&&,left,neutral,,,,,,,,,,,,,0,87,87,79,,,,,,,,,,,,,,,LDT,right,0.5003883928293362,,,,,,0,,,,,,,,,,,,,right,0,0.5003883928293362,,,,,1007,2019_Mar_06_0950,mf_amp_cond1,3.0.4,59.985224807361156,
ning,,&&&&,right,nonword,,,,,,,,,,,,,0,88,88,146,,,,,,,,,,,,,,,LDT,left,0.9505009336862713,,,,,,0,,,,,,,,,,,,,left,0,0.9505009336862713,,,,,1007,2019_Mar_06_0950,mf_amp_cond1,3.0.4,59.985224807361156,
everything,,&&&&&&&&&&,left,neutral,,,,,,,,,,,,,0,89,89,107,,,,,,,,,,,,,,,LDT,right,0.5003861477598548,,,,,,0,,,,,,,,,,,,,right,0,0.5003861477598548,,,,,1007,2019_Mar_06_0950,mf_amp_cond1,3.0.4,59.985224807361156,
coom,,&&&&,right,nonword,,,,,,,,,,,,,0,90,90,13,,,,,,,,,,,,,,,LDT,left,0.7504421134945005,,,,,,0,,,,,,,,,,,,,left,0,0.7504421134945005,,,,,1007,2019_Mar_06_0950,mf_amp_cond1,3.0.4,59.985224807361156,
greaks,,&&&&&&,right,nonword,,,,,,,,,,,,,0,91,91,114,,,,,,,,,,,,,,,LDT,left,1.0171912694349885,,,,,,0,,,,,,,,,,,,,left,0,1.0171912694349885,,,,,1007,2019_Mar_06_0950,mf_amp_cond1,3.0.4,59.985224807361156,
yane,,&&&&,right,nonword,,,,,,,,,,,,,0,92,92,1,,,,,,,,,,,,,,,LDT,left,0.5837529964046553,,,,,,0,,,,,,,,,,,,,left,0,0.5837529964046553,,,,,1007,2019_Mar_06_0950,mf_amp_cond1,3.0.4,59.985224807361156,
anyhow,,&&&&&&,left,neutral,,,,,,,,,,,,,0,93,93,137,,,,,,,,,,,,,,,LDT,right,1.0338648956967518,,,,,,0,,,,,,,,,,,,,right,0,1.0338648956967518,,,,,1007,2019_Mar_06_0950,mf_amp_cond1,3.0.4,59.985224807361156,
emports,,&&&&&&&,right,nonword,,,,,,,,,,,,,0,94,94,84,,,,,,,,,,,,,,,LDT,right,0.7337861268315464,,,,,,1,,,,,,,,,,,,,right,1,0.7337861268315464,,,,,1007,2019_Mar_06_0950,mf_amp_cond1,3.0.4,59.985224807361156,
grovelire,,&&&&&&&&&,right,nonword,,,,,,,,,,,,,0,95,95,116,,,,,,,,,,,,,,,LDT,left,0.8504713631700724,,,,,,0,,,,,,,,,,,,,left,0,0.8504713631700724,,,,,1007,2019_Mar_06_0950,mf_amp_cond1,3.0.4,59.985224807361156,
sowntrodden,,&&&&&&&&&&&,right,nonword,,,,,,,,,,,,,0,96,96,94,,,,,,,,,,,,,,,LDT,left,0.450374890351668,,,,,,0,,,,,,,,,,,,,left,0,0.450374890351668,,,,,1007,2019_Mar_06_0950,mf_amp_cond1,3.0.4,59.985224807361156,
good,,&&&&,left,care.virtue,,,,,,,,,,,,,0,97,97,121,,,,,,,,,,,,,,,LDT,right,0.4336999811930582,,,,,,0,,,,,,,,,,,,,right,0,0.4336999811930582,,,,,1007,2019_Mar_06_0950,mf_amp_cond1,3.0.4,59.985224807361156,
counpy's,,&&&&&&&&,right,nonword,,,,,,,,,,,,,0,98,98,100,,,,,,,,,,,,,,,LDT,right,0.7504494900349528,,,,,,1,,,,,,,,,,,,,right,1,0.7504494900349528,,,,,1007,2019_Mar_06_0950,mf_amp_cond1,3.0.4,59.985224807361156,
atson,,&&&&&,right,nonword,,,,,,,,,,,,,0,99,99,78,,,,,,,,,,,,,,,LDT,right,1.1505645646248013,,,,,,1,,,,,,,,,,,,,right,1,1.1505645646248013,,,,,1007,2019_Mar_06_0950,mf_amp_cond1,3.0.4,59.985224807361156,
nonobservalt,,&&&&&&&&&&&&,right,nonword,,,,,,,,,,,,,0,100,100,81,,,,,,,,,,,,,,,LDT,left,0.800447277026251,,,,,,0,,,,,,,,,,,,,left,0,0.800447277026251,,,,,1007,2019_Mar_06_0950,mf_amp_cond1,3.0.4,59.985224807361156,
precificity,,&&&&&&&&&&&,right,nonword,,,,,,,,,,,,,0,101,101,124,,,,,,,,,,,,,,,LDT,right,0.5003643386298791,,,,,,1,,,,,,,,,,,,,right,1,0.5003643386298791,,,,,1007,2019_Mar_06_0950,mf_amp_cond1,3.0.4,59.985224807361156,
become,,&&&&&&,left,neutral,,,,,,,,,,,,,0,102,102,199,,,,,,,,,,,,,,,LDT,right,0.5337144777877256,,,,,,0,,,,,,,,,,,,,right,0,0.5337144777877256,,,,,1007,2019_Mar_06_0950,mf_amp_cond1,3.0.4,59.985224807361156,
shoirmaster,,&&&&&&&&&&&,None,nonword,,,,,,,,,,,,,0,103,103,90,,,,,,,,,,,,,,,LDT,left,1.300437334808521,,,,,,0,,,,,,,,,,,,,left,0,1.300437334808521,,,,,1007,2019_Mar_06_0950,mf_amp_cond1,3.0.4,59.985224807361156,
prosecution,,&&&&&&&&&&&,left,authority.vice,,,,,,,,,,,,,0,104,104,143,,,,,,,,,,,,,,,LDT,right,0.7669419090962037,,,,,,0,,,,,,,,,,,,,right,0,0.7669419090962037,,,,,1007,2019_Mar_06_0950,mf_amp_cond1,3.0.4,59.985224807361156,
troubla,,&&&&&&&,right,nonword,,,,,,,,,,,,,0,105,105,65,,,,,,,,,,,,,,,LDT,right,0.7337973519461229,,,,,,1,,,,,,,,,,,,,right,1,0.7337973519461229,,,,,1007,2019_Mar_06_0950,mf_amp_cond1,3.0.4,59.985224807361156,
fifteen,,&&&&&&&,left,neutral,,,,,,,,,,,,,0,106,106,17,,,,,,,,,,,,,,,LDT,left,0.8504543650196865,,,,,,1,,,,,,,,,,,,,left,1,0.8504543650196865,,,,,1007,2019_Mar_06_0950,mf_amp_cond1,3.0.4,59.985224807361156,
faspberry,,&&&&&&&&&,None,nonword,,,,,,,,,,,,,0,107,107,193,,,,,,,,,,,,,,,LDT,right,0.6670755854574963,,,,,,0,,,,,,,,,,,,,right,0,0.6670755854574963,,,,,1007,2019_Mar_06_0950,mf_amp_cond1,3.0.4,59.985224807361156,
disregord,,&&&&&&&&&,right,nonword,,,,,,,,,,,,,0,108,108,6,,,,,,,,,,,,,,,LDT,right,1.0338533498579636,,,,,,1,,,,,,,,,,,,,right,1,1.0338533498579636,,,,,1007,2019_Mar_06_0950,mf_amp_cond1,3.0.4,59.985224807361156,
lachelor,,&&&&&&&&,right,nonword,,,,,,,,,,,,,0,109,109,24,,,,,,,,,,,,,,,LDT,left,0.9338244209066033,,,,,,0,,,,,,,,,,,,,left,0,0.9338244209066033,,,,,1007,2019_Mar_06_0950,mf_amp_cond1,3.0.4,59.985224807361156,
sfumatoy,,&&&&&&&&,None,nonword,,,,,,,,,,,,,0,110,110,136,,,,,,,,,,,,,,,LDT,left,0.8671113137388602,,,,,,0,,,,,,,,,,,,,left,0,0.8671113137388602,,,,,1007,2019_Mar_06_0950,mf_amp_cond1,3.0.4,59.985224807361156,
