words,nonwords,mask,corr_ans,category,tweets,topic,AMP_prac_loop.thisRepN,AMP_prac_loop.thisTrialN,AMP_prac_loop.thisN,AMP_prac_loop.thisIndex,AMP_trials.thisRepN,AMP_trials.thisTrialN,AMP_trials.thisN,AMP_trials.thisIndex,LDT_prac_loop.thisRepN,LDT_prac_loop.thisTrialN,LDT_prac_loop.thisN,LDT_prac_loop.thisIndex,LDT_loop.thisRepN,LDT_loop.thisTrialN,LDT_loop.thisN,LDT_loop.thisIndex,tweet_loop.thisRepN,tweet_loop.thisTrialN,tweet_loop.thisN,tweet_loop.thisIndex,begin_key.keys,begin_key.rt,key_resp_AMP_instr1.keys,key_resp_AMP_instr1.rt,resp_AMP_ready1.keys,resp_AMP_ready1.rt,resp_AMP_prac.keys,resp_AMP_prac.rt,task,keypress,RT,resp_AMP_ready.keys,resp_AMP_ready.rt,resp_AMP.keys,resp_AMP.corr,resp_AMP.rt,corr,AMP_nonword_rating.response,AMP_nonword_rating.rt,AMP_word_rating.response,AMP_word_rating.rt,AMP_random_rating.response,AMP_random_rating.rt,key_resp_LDT_instr.keys,key_resp_LDT_instr.rt,resp_LDT_prac.keys,resp_LDT_prac.rt,resp_LDT_ready.keys,resp_LDT_ready.rt,resp_LDT.keys,resp_LDT.corr,resp_LDT.rt,LDT_rating.response,LDT_rating.rt,key_resp_LDT_instr_2.keys,key_resp_LDT_instr_2.rt,resp_tweets.keys,resp_tweets.rt,participant,date,expName,psychopyVersion,frameRate,
,,,,,,,,,,,,,,,,,,,,,,,,,,,right,1047.0964224479394,,,,,,,,,,,,,,,,,,,,,,,,,,,,,,,,,,,,,1009,2019_Mar_06_1149,mf_amp_cond1,3.0.4,60.11803812455499,
,,,,,,,,,,,,,,,,,,,,,,,,,,,,,right,1.3005896732211113,,,,,,,,,,,,,,,,,,,,,,,,,,,,,,,,,,,1009,2019_Mar_06_1149,mf_amp_cond1,3.0.4,60.11803812455499,
,,,,,,,,,,,,,,,,,,,,,,,,,,,,,,,right,4.767966817249544,,,,,,,,,,,,,,,,,,,,,,,,,,,,,,,,,1009,2019_Mar_06_1149,mf_amp_cond1,3.0.4,60.11803812455499,
banana,kacket,&&&&&&,,,,,0,0,0,1,,,,,,,,,,,,,,,,,,,,,,,left,4.651395863620564,AMP_prac,left,4.651395863620564,,,,,,,,,,,,,,,,,,,,,,,,,,,,1009,2019_Mar_06_1149,mf_amp_cond1,3.0.4,60.11803812455499,
keyboard,senk,&&&&,,,,,0,1,1,2,,,,,,,,,,,,,,,,,,,,,,,left,2.517582115251571,AMP_prac,left,2.517582115251571,,,,,,,,,,,,,,,,,,,,,,,,,,,,1009,2019_Mar_06_1149,mf_amp_cond1,3.0.4,60.11803812455499,
scarf,bisebell,&&&&&&&&,,,,,0,2,2,3,,,,,,,,,,,,,,,,,,,,,,,left,1.2172345845028758,AMP_prac,left,1.2172345845028758,,,,,,,,,,,,,,,,,,,,,,,,,,,,1009,2019_Mar_06_1149,mf_amp_cond1,3.0.4,60.11803812455499,
car,cemtuper,&&&&&&&&,,,,,0,3,3,0,,,,,,,,,,,,,,,,,,,,,,,right,1.100538230035454,AMP_prac,right,1.100538230035454,,,,,,,,,,,,,,,,,,,,,,,,,,,,1009,2019_Mar_06_1149,mf_amp_cond1,3.0.4,60.11803812455499,
,,,,,,,,,,,,,,,,,,,,,,,,,,,,,,,,,,,,,,right,2.5842521387385204,,,,,,,,,,,,,,,,,,,,,,,,,,1009,2019_Mar_06_1149,mf_amp_cond1,3.0.4,60.11803812455499,
health,yane,&&&&,left,care.virtue,,,,,,,0,0,0,0,,,,,,,,,,,,,,,,,,,,,AMP,right,1.5339240115135908,,,right,0,1.5339240115135908,0,,,,,,,,,,,,,,,,,,,,,,1009,2019_Mar_06_1149,mf_amp_cond1,3.0.4,60.11803812455499,
increase,lorthwhile,&&&&&&&&&&,left,care.virtue,,,,,,,0,1,1,1,,,,,,,,,,,,,,,,,,,,,AMP,right,1.6007800517836586,,,right,0,1.6007800517836586,0,,,,,,,,,,,,,,,,,,,,,,1009,2019_Mar_06_1149,mf_amp_cond1,3.0.4,60.11803812455499,
hand,dramens,&&&&&&&,left,sanctity.virtue,,,,,,,0,2,2,2,,,,,,,,,,,,,,,,,,,,,AMP,right,1.8672317942837253,,,right,0,1.8672317942837253,0,,,,,,,,,,,,,,,,,,,,,,1009,2019_Mar_06_1149,mf_amp_cond1,3.0.4,60.11803812455499,
emassion,bycled,&&&&&&,None,nonword,,,,,,,0,3,3,3,,,,,,,,,,,,,,,,,,,,,AMP,right,3.000991982757114,,,right,0,3.000991982757114,0,,,,,,,,,,,,,,,,,,,,,,1009,2019_Mar_06_1149,mf_amp_cond1,3.0.4,60.11803812455499,
officers,antral,&&&&&&,right,authority.vice,,,,,,,0,4,4,4,,,,,,,,,,,,,,,,,,,,,AMP,left,2.7842811316950247,,,left,0,2.7842811316950247,0,,,,,,,,,,,,,,,,,,,,,,1009,2019_Mar_06_1149,mf_amp_cond1,3.0.4,60.11803812455499,
fair,ammessment,&&&&&&&&&&,left,fairness.virtue,,,,,,,0,5,5,5,,,,,,,,,,,,,,,,,,,,,AMP,right,1.483958617085591,,,right,0,1.483958617085591,0,,,,,,,,,,,,,,,,,,,,,,1009,2019_Mar_06_1149,mf_amp_cond1,3.0.4,60.11803812455499,
trust,epigrach,&&&&&&&&,left,authority.virtue,,,,,,,0,6,6,6,,,,,,,,,,,,,,,,,,,,,AMP,right,1.4506385186687112,,,right,0,1.4506385186687112,0,,,,,,,,,,,,,,,,,,,,,,1009,2019_Mar_06_1149,mf_amp_cond1,3.0.4,60.11803812455499,
voter,pistraught,&&&&&&&&&&,right,fairness.vice,,,,,,,0,7,7,7,,,,,,,,,,,,,,,,,,,,,AMP,right,1.950754618854262,,,right,1,1.950754618854262,1,,,,,,,,,,,,,,,,,,,,,,1009,2019_Mar_06_1149,mf_amp_cond1,3.0.4,60.11803812455499,
victim,thadowed,&&&&&&&&,right,care.vice,,,,,,,0,8,8,8,,,,,,,,,,,,,,,,,,,,,AMP,left,0.9171583816641942,,,left,0,0.9171583816641942,0,,,,,,,,,,,,,,,,,,,,,,1009,2019_Mar_06_1149,mf_amp_cond1,3.0.4,60.11803812455499,
strength,lursuer,&&&&&&&,left,sanctity.virtue,,,,,,,0,9,9,9,,,,,,,,,,,,,,,,,,,,,AMP,right,1.6839879307663068,,,right,0,1.6839879307663068,0,,,,,,,,,,,,,,,,,,,,,,1009,2019_Mar_06_1149,mf_amp_cond1,3.0.4,60.11803812455499,
protect,gazily,&&&&&&,left,fairness.virtue,,,,,,,0,10,10,10,,,,,,,,,,,,,,,,,,,,,AMP,right,0.9338226002873853,,,right,0,0.9338226002873853,0,,,,,,,,,,,,,,,,,,,,,,1009,2019_Mar_06_1149,mf_amp_cond1,3.0.4,60.11803812455499,
love,fornicalion,&&&&&&&&&&&,left,loyalty.virtue,,,,,,,0,11,11,11,,,,,,,,,,,,,,,,,,,,,AMP,right,0.8504498719703406,,,right,0,0.8504498719703406,0,,,,,,,,,,,,,,,,,,,,,,1009,2019_Mar_06_1149,mf_amp_cond1,3.0.4,60.11803812455499,
care,chonograph,&&&&&&&&&&,left,care.virtue,,,,,,,0,12,12,12,,,,,,,,,,,,,,,,,,,,,AMP,right,0.7504488456761464,,,right,0,0.7504488456761464,0,,,,,,,,,,,,,,,,,,,,,,1009,2019_Mar_06_1149,mf_amp_cond1,3.0.4,60.11803812455499,
supervuned,sonvoy,&&&&&&,None,nonword,,,,,,,0,13,13,13,,,,,,,,,,,,,,,,,,,,,AMP,left,2.384197167586535,,,left,0,2.384197167586535,0,,,,,,,,,,,,,,,,,,,,,,1009,2019_Mar_06_1149,mf_amp_cond1,3.0.4,60.11803812455499,
dignity,coom,&&&&,left,sanctity.virtue,,,,,,,0,14,14,14,,,,,,,,,,,,,,,,,,,,,AMP,right,3.434431003406644,,,right,0,3.434431003406644,0,,,,,,,,,,,,,,,,,,,,,,1009,2019_Mar_06_1149,mf_amp_cond1,3.0.4,60.11803812455499,
clattening,noped,&&&&&,None,nonword,,,,,,,0,15,15,15,,,,,,,,,,,,,,,,,,,,,AMP,left,3.834520419826731,,,left,0,3.834520419826731,0,,,,,,,,,,,,,,,,,,,,,,1009,2019_Mar_06_1149,mf_amp_cond1,3.0.4,60.11803812455499,
wump,smapper,&&&&&&&,None,nonword,,,,,,,0,16,16,16,,,,,,,,,,,,,,,,,,,,,AMP,left,2.150799647788517,,,left,0,2.150799647788517,0,,,,,,,,,,,,,,,,,,,,,,1009,2019_Mar_06_1149,mf_amp_cond1,3.0.4,60.11803812455499,
honored,Boeinf,&&&&&&,left,authority.virtue,,,,,,,0,17,17,17,,,,,,,,,,,,,,,,,,,,,AMP,right,4.734746462316252,,,right,0,4.734746462316252,0,,,,,,,,,,,,,,,,,,,,,,1009,2019_Mar_06_1149,mf_amp_cond1,3.0.4,60.11803812455499,
failure,refuejing,&&&&&&&&&,right,loyalty.vice,,,,,,,0,18,18,18,,,,,,,,,,,,,,,,,,,,,AMP,left,0.7337746849516407,,,left,0,0.7337746849516407,0,,,,,,,,,,,,,,,,,,,,,,1009,2019_Mar_06_1149,mf_amp_cond1,3.0.4,60.11803812455499,
shot,halaise,&&&&&&&,right,care.vice,,,,,,,0,19,19,19,,,,,,,,,,,,,,,,,,,,,AMP,left,1.1672088949708268,,,left,0,1.1672088949708268,0,,,,,,,,,,,,,,,,,,,,,,1009,2019_Mar_06_1149,mf_amp_cond1,3.0.4,60.11803812455499,
freedom,lachelor,&&&&&&&&,left,sanctity.virtue,,,,,,,0,20,20,20,,,,,,,,,,,,,,,,,,,,,AMP,right,1.8673976056743413,,,right,0,1.8673976056743413,0,,,,,,,,,,,,,,,,,,,,,,1009,2019_Mar_06_1149,mf_amp_cond1,3.0.4,60.11803812455499,
compassion,mecan,&&&&&,left,care.virtue,,,,,,,0,21,21,21,,,,,,,,,,,,,,,,,,,,,AMP,right,3.284396590315737,,,right,0,3.284396590315737,0,,,,,,,,,,,,,,,,,,,,,,1009,2019_Mar_06_1149,mf_amp_cond1,3.0.4,60.11803812455499,
praised,pharing,&&&&&&&,left,loyalty.virtue,,,,,,,0,22,22,22,,,,,,,,,,,,,,,,,,,,,AMP,right,0.9172032823553309,,,right,0,0.9172032823553309,0,,,,,,,,,,,,,,,,,,,,,,1009,2019_Mar_06_1149,mf_amp_cond1,3.0.4,60.11803812455499,
prosecution,neputized,&&&&&&&&&,right,authority.vice,,,,,,,0,23,23,23,,,,,,,,,,,,,,,,,,,,,AMP,left,0.9838502141647041,,,left,0,0.9838502141647041,0,,,,,,,,,,,,,,,,,,,,,,1009,2019_Mar_06_1149,mf_amp_cond1,3.0.4,60.11803812455499,
slavery,unscothed,&&&&&&&&&,right,loyalty.vice,,,,,,,0,24,24,24,,,,,,,,,,,,,,,,,,,,,AMP,left,1.6673464832128957,,,left,0,1.6673464832128957,0,,,,,,,,,,,,,,,,,,,,,,1009,2019_Mar_06_1149,mf_amp_cond1,3.0.4,60.11803812455499,
perfect,reviked,&&&&&&&,left,sanctity.virtue,,,,,,,0,25,25,25,,,,,,,,,,,,,,,,,,,,,AMP,right,1.0671652130549774,,,right,0,1.0671652130549774,0,,,,,,,,,,,,,,,,,,,,,,1009,2019_Mar_06_1149,mf_amp_cond1,3.0.4,60.11803812455499,
free,gaultless,&&&&&&&&&,left,fairness.virtue,,,,,,,0,26,26,26,,,,,,,,,,,,,,,,,,,,,AMP,right,2.0007469536503777,,,right,0,2.0007469536503777,0,,,,,,,,,,,,,,,,,,,,,,1009,2019_Mar_06_1149,mf_amp_cond1,3.0.4,60.11803812455499,
respect,ugeasily,&&&&&&&&,left,sanctity.virtue,,,,,,,0,27,27,27,,,,,,,,,,,,,,,,,,,,,AMP,right,2.4175147000933066,,,right,0,2.4175147000933066,0,,,,,,,,,,,,,,,,,,,,,,1009,2019_Mar_06_1149,mf_amp_cond1,3.0.4,60.11803812455499,
chreams,nuckheap,&&&&&&&&,None,nonword,,,,,,,0,28,28,28,,,,,,,,,,,,,,,,,,,,,AMP,left,4.934808489284478,,,left,0,4.934808489284478,0,,,,,,,,,,,,,,,,,,,,,,1009,2019_Mar_06_1149,mf_amp_cond1,3.0.4,60.11803812455499,
fraud,edancipation,&&&&&&&&&&&&,right,fairness.vice,,,,,,,0,29,29,29,,,,,,,,,,,,,,,,,,,,,AMP,left,2.9343351086135954,,,left,0,2.9343351086135954,0,,,,,,,,,,,,,,,,,,,,,,1009,2019_Mar_06_1149,mf_amp_cond1,3.0.4,60.11803812455499,
rejected,iptervention,&&&&&&&&&&&&,right,authority.vice,,,,,,,0,30,30,30,,,,,,,,,,,,,,,,,,,,,AMP,left,0.8838177573634312,,,left,0,0.8838177573634312,0,,,,,,,,,,,,,,,,,,,,,,1009,2019_Mar_06_1149,mf_amp_cond1,3.0.4,60.11803812455499,
killed,sickyay,&&&&&&&,right,care.vice,,,,,,,0,31,31,31,,,,,,,,,,,,,,,,,,,,,AMP,left,0.617080575437285,,,left,0,0.617080575437285,0,,,,,,,,,,,,,,,,,,,,,,1009,2019_Mar_06_1149,mf_amp_cond1,3.0.4,60.11803812455499,
support,gowlands,&&&&&&&&,left,loyalty.virtue,,,,,,,0,32,32,32,,,,,,,,,,,,,,,,,,,,,AMP,right,0.8171300943940878,,,right,0,0.8171300943940878,0,,,,,,,,,,,,,,,,,,,,,,1009,2019_Mar_06_1149,mf_amp_cond1,3.0.4,60.11803812455499,
useful,baladroit,&&&&&&&&&,left,authority.virtue,,,,,,,0,33,33,33,,,,,,,,,,,,,,,,,,,,,AMP,right,1.2505643042968586,,,right,0,1.2505643042968586,0,,,,,,,,,,,,,,,,,,,,,,1009,2019_Mar_06_1149,mf_amp_cond1,3.0.4,60.11803812455499,
sexual,troubla,&&&&&&&,right,sanctity.vice,,,,,,,0,34,34,34,,,,,,,,,,,,,,,,,,,,,AMP,left,1.2339048966532573,,,left,0,1.2339048966532573,0,,,,,,,,,,,,,,,,,,,,,,1009,2019_Mar_06_1149,mf_amp_cond1,3.0.4,60.11803812455499,
encourage,nackers,&&&&&&&,left,authority.virtue,,,,,,,0,35,35,35,,,,,,,,,,,,,,,,,,,,,AMP,right,3.7845187842613086,,,right,0,3.7845187842613086,0,,,,,,,,,,,,,,,,,,,,,,1009,2019_Mar_06_1149,mf_amp_cond1,3.0.4,60.11803812455499,
war,frojecting,&&&&&&&&&&,right,sanctity.vice,,,,,,,0,36,36,36,,,,,,,,,,,,,,,,,,,,,AMP,left,2.567603635485284,,,left,0,2.567603635485284,0,,,,,,,,,,,,,,,,,,,,,,1009,2019_Mar_06_1149,mf_amp_cond1,3.0.4,60.11803812455499,
army,prones,&&&&&&,right,loyalty.vice,,,,,,,0,37,37,37,,,,,,,,,,,,,,,,,,,,,AMP,left,3.084337129141204,,,left,0,3.084337129141204,0,,,,,,,,,,,,,,,,,,,,,,1009,2019_Mar_06_1149,mf_amp_cond1,3.0.4,60.11803812455499,
fear,godlaness,&&&&&&&&&,right,sanctity.vice,,,,,,,0,38,38,38,,,,,,,,,,,,,,,,,,,,,AMP,left,1.6173393953358755,,,left,0,1.6173393953358755,0,,,,,,,,,,,,,,,,,,,,,,1009,2019_Mar_06_1149,mf_amp_cond1,3.0.4,60.11803812455499,
opportunity,saned,&&&&&,left,fairness.virtue,,,,,,,0,39,39,39,,,,,,,,,,,,,,,,,,,,,AMP,left,1.7506906675407663,,,left,1,1.7506906675407663,1,,,,,,,,,,,,,,,,,,,,,,1009,2019_Mar_06_1149,mf_amp_cond1,3.0.4,60.11803812455499,
arrests,fonderland,&&&&&&&&&&,right,authority.vice,,,,,,,0,40,40,40,,,,,,,,,,,,,,,,,,,,,AMP,left,3.651152758859098,,,left,0,3.651152758859098,0,,,,,,,,,,,,,,,,,,,,,,1009,2019_Mar_06_1149,mf_amp_cond1,3.0.4,60.11803812455499,
sharing,ejanulated,&&&&&&&&&&,left,loyalty.virtue,,,,,,,0,41,41,41,,,,,,,,,,,,,,,,,,,,,AMP,right,1.3672802227083594,,,right,0,1.3672802227083594,0,,,,,,,,,,,,,,,,,,,,,,1009,2019_Mar_06_1149,mf_amp_cond1,3.0.4,60.11803812455499,
black,alar,&&&&,right,loyalty.vice,,,,,,,0,42,42,42,,,,,,,,,,,,,,,,,,,,,AMP,right,1.8840579757234082,,,right,1,1.8840579757234082,1,,,,,,,,,,,,,,,,,,,,,,1009,2019_Mar_06_1149,mf_amp_cond1,3.0.4,60.11803812455499,
critics,hasks,&&&&&,right,loyalty.vice,,,,,,,0,43,43,43,,,,,,,,,,,,,,,,,,,,,AMP,left,1.900725401355885,,,left,0,1.900725401355885,0,,,,,,,,,,,,,,,,,,,,,,1009,2019_Mar_06_1149,mf_amp_cond1,3.0.4,60.11803812455499,
betrayal,neutralust,&&&&&&&&&&,right,loyalty.vice,,,,,,,0,44,44,44,,,,,,,,,,,,,,,,,,,,,AMP,left,0.6337550568860024,,,left,0,0.6337550568860024,0,,,,,,,,,,,,,,,,,,,,,,1009,2019_Mar_06_1149,mf_amp_cond1,3.0.4,60.11803812455499,
ensure,reelectiob,&&&&&&&&&&,left,fairness.virtue,,,,,,,0,45,45,45,,,,,,,,,,,,,,,,,,,,,AMP,right,0.9338434470118955,,,right,0,0.9338434470118955,0,,,,,,,,,,,,,,,,,,,,,,1009,2019_Mar_06_1149,mf_amp_cond1,3.0.4,60.11803812455499,
groups,Lacedonia,&&&&&&&&&,right,loyalty.vice,,,,,,,0,46,46,46,,,,,,,,,,,,,,,,,,,,,AMP,right,1.3339149031089619,,,right,1,1.3339149031089619,1,,,,,,,,,,,,,,,,,,,,,,1009,2019_Mar_06_1149,mf_amp_cond1,3.0.4,60.11803812455499,
victims,quarterbocks,&&&&&&&&&&&&,right,care.vice,,,,,,,0,47,47,47,,,,,,,,,,,,,,,,,,,,,AMP,left,1.4506151062669232,,,left,0,1.4506151062669232,0,,,,,,,,,,,,,,,,,,,,,,1009,2019_Mar_06_1149,mf_amp_cond1,3.0.4,60.11803812455499,
corruption,precificity,&&&&&&&&&&&,right,sanctity.vice,,,,,,,0,48,48,48,,,,,,,,,,,,,,,,,,,,,AMP,right,3.8345335692865774,,,right,1,3.8345335692865774,1,,,,,,,,,,,,,,,,,,,,,,1009,2019_Mar_06_1149,mf_amp_cond1,3.0.4,60.11803812455499,
accused,ning,&&&&,right,fairness.vice,,,,,,,0,49,49,49,,,,,,,,,,,,,,,,,,,,,AMP,left,2.800944708753377,,,left,0,2.800944708753377,0,,,,,,,,,,,,,,,,,,,,,,1009,2019_Mar_06_1149,mf_amp_cond1,3.0.4,60.11803812455499,
illegal,festate,&&&&&&&,right,fairness.vice,,,,,,,0,50,50,50,,,,,,,,,,,,,,,,,,,,,AMP,left,2.350832168594934,,,left,0,2.350832168594934,0,,,,,,,,,,,,,,,,,,,,,,1009,2019_Mar_06_1149,mf_amp_cond1,3.0.4,60.11803812455499,
prison,divility,&&&&&&&&,right,fairness.vice,,,,,,,0,51,51,51,,,,,,,,,,,,,,,,,,,,,AMP,left,1.4506256899330765,,,left,0,1.4506256899330765,0,,,,,,,,,,,,,,,,,,,,,,1009,2019_Mar_06_1149,mf_amp_cond1,3.0.4,60.11803812455499,
violations,gournful,&&&&&&&&,right,sanctity.vice,,,,,,,0,52,52,52,,,,,,,,,,,,,,,,,,,,,AMP,left,1.417276085470803,,,left,0,1.417276085470803,0,,,,,,,,,,,,,,,,,,,,,,1009,2019_Mar_06_1149,mf_amp_cond1,3.0.4,60.11803812455499,
baklara,synchronazers,&&&&&&&&&&&&&,None,nonword,,,,,,,0,53,53,53,,,,,,,,,,,,,,,,,,,,,AMP,left,1.1839083924423903,,,left,0,1.1839083924423903,0,,,,,,,,,,,,,,,,,,,,,,1009,2019_Mar_06_1149,mf_amp_cond1,3.0.4,60.11803812455499,
progress,letish,&&&&&&,left,authority.virtue,,,,,,,0,54,54,54,,,,,,,,,,,,,,,,,,,,,AMP,left,2.234149284195155,,,left,1,2.234149284195155,1,,,,,,,,,,,,,,,,,,,,,,1009,2019_Mar_06_1149,mf_amp_cond1,3.0.4,60.11803812455499,
promised,ecgagement,&&&&&&&&&&,left,loyalty.virtue,,,,,,,0,55,55,55,,,,,,,,,,,,,,,,,,,,,AMP,right,0.9338344668503851,,,right,0,0.9338344668503851,0,,,,,,,,,,,,,,,,,,,,,,1009,2019_Mar_06_1149,mf_amp_cond1,3.0.4,60.11803812455499,
intelligence,fegard,&&&&&&,left,loyalty.virtue,,,,,,,0,56,56,56,,,,,,,,,,,,,,,,,,,,,AMP,left,3.1677133853081614,,,left,1,3.1677133853081614,1,,,,,,,,,,,,,,,,,,,,,,1009,2019_Mar_06_1149,mf_amp_cond1,3.0.4,60.11803812455499,
promises,blunderints,&&&&&&&&&&&,left,fairness.virtue,,,,,,,0,57,57,57,,,,,,,,,,,,,,,,,,,,,AMP,left,2.284162786556408,,,left,1,2.284162786556408,1,,,,,,,,,,,,,,,,,,,,,,1009,2019_Mar_06_1149,mf_amp_cond1,3.0.4,60.11803812455499,
clean,glacenta,&&&&&&&&,left,sanctity.virtue,,,,,,,0,58,58,58,,,,,,,,,,,,,,,,,,,,,AMP,right,0.8504694357980043,,,right,0,0.8504694357980043,0,,,,,,,,,,,,,,,,,,,,,,1009,2019_Mar_06_1149,mf_amp_cond1,3.0.4,60.11803812455499,
actively,gillipede,&&&&&&&&&,left,authority.virtue,,,,,,,0,59,59,59,,,,,,,,,,,,,,,,,,,,,AMP,right,0.9004989740205929,,,right,0,0.9004989740205929,0,,,,,,,,,,,,,,,,,,,,,,1009,2019_Mar_06_1149,mf_amp_cond1,3.0.4,60.11803812455499,
lies,ilportation,&&&&&&&&&&&,right,fairness.vice,,,,,,,0,60,60,60,,,,,,,,,,,,,,,,,,,,,AMP,left,0.6004150740336627,,,left,0,0.6004150740336627,0,,,,,,,,,,,,,,,,,,,,,,1009,2019_Mar_06_1149,mf_amp_cond1,3.0.4,60.11803812455499,
ability,fostet,&&&&&&,left,authority.virtue,,,,,,,0,61,61,61,,,,,,,,,,,,,,,,,,,,,AMP,right,0.6337508875876665,,,right,0,0.6337508875876665,0,,,,,,,,,,,,,,,,,,,,,,1009,2019_Mar_06_1149,mf_amp_cond1,3.0.4,60.11803812455499,
safe,mightingale,&&&&&&&&&&&,left,care.virtue,,,,,,,0,62,62,62,,,,,,,,,,,,,,,,,,,,,AMP,right,0.8671365408226848,,,right,0,0.8671365408226848,0,,,,,,,,,,,,,,,,,,,,,,1009,2019_Mar_06_1149,mf_amp_cond1,3.0.4,60.11803812455499,
refused,ronviolence,&&&&&&&&&&&,right,authority.vice,,,,,,,0,63,63,63,,,,,,,,,,,,,,,,,,,,,AMP,left,0.6671299982117489,,,left,0,0.6671299982117489,0,,,,,,,,,,,,,,,,,,,,,,1009,2019_Mar_06_1149,mf_amp_cond1,3.0.4,60.11803812455499,
rebels,nonobservalt,&&&&&&&&&&&&,right,authority.vice,,,,,,,0,64,64,64,,,,,,,,,,,,,,,,,,,,,AMP,left,2.100758243002929,,,left,0,2.100758243002929,0,,,,,,,,,,,,,,,,,,,,,,1009,2019_Mar_06_1149,mf_amp_cond1,3.0.4,60.11803812455499,
suicide,Daptist,&&&&&&&,right,care.vice,,,,,,,0,65,65,65,,,,,,,,,,,,,,,,,,,,,AMP,left,0.5003957668086514,,,left,0,0.5003957668086514,0,,,,,,,,,,,,,,,,,,,,,,1009,2019_Mar_06_1149,mf_amp_cond1,3.0.4,60.11803812455499,
interests,sidearbs,&&&&&&&&,left,fairness.virtue,,,,,,,0,66,66,66,,,,,,,,,,,,,,,,,,,,,AMP,right,1.133911567623727,,,right,0,1.133911567623727,0,,,,,,,,,,,,,,,,,,,,,,1009,2019_Mar_06_1149,mf_amp_cond1,3.0.4,60.11803812455499,
riot,dumid,&&&&&,right,authority.vice,,,,,,,0,67,67,67,,,,,,,,,,,,,,,,,,,,,AMP,left,2.58430858515203,,,left,0,2.58430858515203,0,,,,,,,,,,,,,,,,,,,,,,1009,2019_Mar_06_1149,mf_amp_cond1,3.0.4,60.11803812455499,
death,shoirmaster,&&&&&&&&&&&,right,care.vice,,,,,,,0,68,68,68,,,,,,,,,,,,,,,,,,,,,AMP,left,0.8170672334963456,,,left,0,0.8170672334963456,0,,,,,,,,,,,,,,,,,,,,,,1009,2019_Mar_06_1149,mf_amp_cond1,3.0.4,60.11803812455499,
growth,emports,&&&&&&&,left,care.virtue,,,,,,,0,69,69,69,,,,,,,,,,,,,,,,,,,,,AMP,right,0.7171034105122089,,,right,0,0.7171034105122089,0,,,,,,,,,,,,,,,,,,,,,,1009,2019_Mar_06_1149,mf_amp_cond1,3.0.4,60.11803812455499,
lempestuous,laming,&&&&&&,None,nonword,,,,,,,0,70,70,70,,,,,,,,,,,,,,,,,,,,,AMP,left,1.0671908705262467,,,left,0,1.0671908705262467,0,,,,,,,,,,,,,,,,,,,,,,1009,2019_Mar_06_1149,mf_amp_cond1,3.0.4,60.11803812455499,
perified,pescinded,&&&&&&&&&,None,nonword,,,,,,,0,71,71,71,,,,,,,,,,,,,,,,,,,,,AMP,left,1.0171776890056208,,,left,0,1.0171776890056208,0,,,,,,,,,,,,,,,,,,,,,,1009,2019_Mar_06_1149,mf_amp_cond1,3.0.4,60.11803812455499,
gondensed,Oregoniuns,&&&&&&&&&&,None,nonword,,,,,,,0,72,72,72,,,,,,,,,,,,,,,,,,,,,AMP,left,2.3506859209155664,,,left,0,2.3506859209155664,0,,,,,,,,,,,,,,,,,,,,,,1009,2019_Mar_06_1149,mf_amp_cond1,3.0.4,60.11803812455499,
serial,clamorek,&&&&&&&&,right,sanctity.vice,,,,,,,0,73,73,73,,,,,,,,,,,,,,,,,,,,,AMP,left,2.8843004390364513,,,left,0,2.8843004390364513,0,,,,,,,,,,,,,,,,,,,,,,1009,2019_Mar_06_1149,mf_amp_cond1,3.0.4,60.11803812455499,
improve,reprisols,&&&&&&&&&,left,care.virtue,,,,,,,0,74,74,74,,,,,,,,,,,,,,,,,,,,,AMP,right,0.8171223970130086,,,right,0,0.8171223970130086,0,,,,,,,,,,,,,,,,,,,,,,1009,2019_Mar_06_1149,mf_amp_cond1,3.0.4,60.11803812455499,
pleasant,presentkess,&&&&&&&&&&&,None,control,,,,,,,0,75,75,75,,,,,,,,,,,,,,,,,,,,,AMP,right,1.2172294529154897,,,right,0,1.2172294529154897,0,,,,,,,,,,,,,,,,,,,,,,1009,2019_Mar_06_1149,mf_amp_cond1,3.0.4,60.11803812455499,
unpleasant,idexpressible,&&&&&&&&&&&&&,None,control,,,,,,,0,76,76,76,,,,,,,,,,,,,,,,,,,,,AMP,left,0.867140710237436,,,left,0,0.867140710237436,0,,,,,,,,,,,,,,,,,,,,,,1009,2019_Mar_06_1149,mf_amp_cond1,3.0.4,60.11803812455499,
drug,chressing,&&&&&&&&&,right,sanctity.vice,,,,,,,0,77,77,77,,,,,,,,,,,,,,,,,,,,,AMP,left,0.8337747490731999,,,left,0,0.8337747490731999,0,,,,,,,,,,,,,,,,,,,,,,1009,2019_Mar_06_1149,mf_amp_cond1,3.0.4,60.11803812455499,
friends,imebreaker,&&&&&&&&&&,left,loyalty.virtue,,,,,,,0,78,78,78,,,,,,,,,,,,,,,,,,,,,AMP,right,0.8171368294861168,,,right,0,0.8171368294861168,0,,,,,,,,,,,,,,,,,,,,,,1009,2019_Mar_06_1149,mf_amp_cond1,3.0.4,60.11803812455499,
civilians,neneficence,&&&&&&&&&&&,right,care.vice,,,,,,,0,79,79,79,,,,,,,,,,,,,,,,,,,,,AMP,left,8.285578759154305,,,left,0,8.285578759154305,0,,,,,,,,,,,,,,,,,,,,,,1009,2019_Mar_06_1149,mf_amp_cond1,3.0.4,60.11803812455499,
forced,gikely,&&&&&&,right,fairness.vice,,,,,,,0,80,80,80,,,,,,,,,,,,,,,,,,,,,AMP,left,1.6006536886561662,,,left,0,1.6006536886561662,0,,,,,,,,,,,,,,,,,,,,,,1009,2019_Mar_06_1149,mf_amp_cond1,3.0.4,60.11803812455499,
faspberry,Loorish,&&&&&&&,None,nonword,,,,,,,0,81,81,81,,,,,,,,,,,,,,,,,,,,,AMP,left,3.0676786835538223,,,left,0,3.0676786835538223,0,,,,,,,,,,,,,,,,,,,,,,1009,2019_Mar_06_1149,mf_amp_cond1,3.0.4,60.11803812455499,
victims,Loorish,&&&&&&&,right,care.vice,,,,,,,0,82,82,82,,,,,,,,,,,,,,,,,,,,,AMP,left,1.1505440350156277,,,left,0,1.1505440350156277,0,,,,,,,,,,,,,,,,,,,,,,1009,2019_Mar_06_1149,mf_amp_cond1,3.0.4,60.11803812455499,
actively,fostet,&&&&&&,left,authority.virtue,,,,,,,0,83,83,83,,,,,,,,,,,,,,,,,,,,,AMP,right,1.6506501928670332,,,right,0,1.6506501928670332,0,,,,,,,,,,,,,,,,,,,,,,1009,2019_Mar_06_1149,mf_amp_cond1,3.0.4,60.11803812455499,
improve,prones,&&&&&&,left,care.virtue,,,,,,,0,84,84,84,,,,,,,,,,,,,,,,,,,,,AMP,right,2.100784862646833,,,right,0,2.100784862646833,0,,,,,,,,,,,,,,,,,,,,,,1009,2019_Mar_06_1149,mf_amp_cond1,3.0.4,60.11803812455499,
slavery,precificity,&&&&&&&&&&&,right,loyalty.vice,,,,,,,0,85,85,85,,,,,,,,,,,,,,,,,,,,,AMP,left,1.350599006167613,,,left,0,1.350599006167613,0,,,,,,,,,,,,,,,,,,,,,,1009,2019_Mar_06_1149,mf_amp_cond1,3.0.4,60.11803812455499,
promised,saned,&&&&&,left,loyalty.virtue,,,,,,,0,86,86,86,,,,,,,,,,,,,,,,,,,,,AMP,right,4.634729720768519,,,right,0,4.634729720768519,0,,,,,,,,,,,,,,,,,,,,,,1009,2019_Mar_06_1149,mf_amp_cond1,3.0.4,60.11803812455499,
care,iptervention,&&&&&&&&&&&&,left,care.virtue,,,,,,,0,87,87,87,,,,,,,,,,,,,,,,,,,,,AMP,right,1.3839800410205498,,,right,0,1.3839800410205498,0,,,,,,,,,,,,,,,,,,,,,,1009,2019_Mar_06_1149,mf_amp_cond1,3.0.4,60.11803812455499,
trust,edancipation,&&&&&&&&&&&&,left,authority.virtue,,,,,,,0,88,88,88,,,,,,,,,,,,,,,,,,,,,AMP,right,4.20130384946242,,,right,0,4.20130384946242,0,,,,,,,,,,,,,,,,,,,,,,1009,2019_Mar_06_1149,mf_amp_cond1,3.0.4,60.11803812455499,
serial,godlaness,&&&&&&&&&,right,sanctity.vice,,,,,,,0,89,89,89,,,,,,,,,,,,,,,,,,,,,AMP,left,4.017911813920364,,,left,0,4.017911813920364,0,,,,,,,,,,,,,,,,,,,,,,1009,2019_Mar_06_1149,mf_amp_cond1,3.0.4,60.11803812455499,
wump,lachelor,&&&&&&&&,None,nonword,,,,,,,0,90,90,90,,,,,,,,,,,,,,,,,,,,,AMP,left,1.0171831412008032,,,left,0,1.0171831412008032,0,,,,,,,,,,,,,,,,,,,,,,1009,2019_Mar_06_1149,mf_amp_cond1,3.0.4,60.11803812455499,
accused,reviked,&&&&&&&,right,fairness.vice,,,,,,,0,91,91,91,,,,,,,,,,,,,,,,,,,,,AMP,left,0.7837776034139097,,,left,0,0.7837776034139097,0,,,,,,,,,,,,,,,,,,,,,,1009,2019_Mar_06_1149,mf_amp_cond1,3.0.4,60.11803812455499,
drug,ugeasily,&&&&&&&&,right,sanctity.vice,,,,,,,0,92,92,92,,,,,,,,,,,,,,,,,,,,,AMP,left,5.501640796428546,,,left,0,5.501640796428546,0,,,,,,,,,,,,,,,,,,,,,,1009,2019_Mar_06_1149,mf_amp_cond1,3.0.4,60.11803812455499,
forced,shoirmaster,&&&&&&&&&&&,right,fairness.vice,,,,,,,0,93,93,93,,,,,,,,,,,,,,,,,,,,,AMP,left,0.9338360704714432,,,left,0,0.9338360704714432,0,,,,,,,,,,,,,,,,,,,,,,1009,2019_Mar_06_1149,mf_amp_cond1,3.0.4,60.11803812455499,
useful,sonvoy,&&&&&&,left,authority.virtue,,,,,,,0,94,94,94,,,,,,,,,,,,,,,,,,,,,AMP,right,3.367747189011425,,,right,0,3.367747189011425,0,,,,,,,,,,,,,,,,,,,,,,1009,2019_Mar_06_1149,mf_amp_cond1,3.0.4,60.11803812455499,
compassion,gillipede,&&&&&&&&&,left,care.virtue,,,,,,,0,95,95,95,,,,,,,,,,,,,,,,,,,,,AMP,right,1.1838865835452452,,,right,0,1.1838865835452452,0,,,,,,,,,,,,,,,,,,,,,,1009,2019_Mar_06_1149,mf_amp_cond1,3.0.4,60.11803812455499,
betrayal,divility,&&&&&&&&,right,loyalty.vice,,,,,,,0,96,96,96,,,,,,,,,,,,,,,,,,,,,AMP,left,0.7837705475976691,,,left,0,0.7837705475976691,0,,,,,,,,,,,,,,,,,,,,,,1009,2019_Mar_06_1149,mf_amp_cond1,3.0.4,60.11803812455499,
failure,ronviolence,&&&&&&&&&&&,right,loyalty.vice,,,,,,,0,97,97,97,,,,,,,,,,,,,,,,,,,,,AMP,left,2.7176232954952866,,,left,0,2.7176232954952866,0,,,,,,,,,,,,,,,,,,,,,,1009,2019_Mar_06_1149,mf_amp_cond1,3.0.4,60.11803812455499,
violations,troubla,&&&&&&&,right,sanctity.vice,,,,,,,0,98,98,98,,,,,,,,,,,,,,,,,,,,,AMP,left,1.667355463374406,,,left,0,1.667355463374406,0,,,,,,,,,,,,,,,,,,,,,,1009,2019_Mar_06_1149,mf_amp_cond1,3.0.4,60.11803812455499,
illegal,ilportation,&&&&&&&&&&&,right,fairness.vice,,,,,,,0,99,99,99,,,,,,,,,,,,,,,,,,,,,AMP,left,1.0171722368104383,,,left,0,1.0171722368104383,0,,,,,,,,,,,,,,,,,,,,,,1009,2019_Mar_06_1149,mf_amp_cond1,3.0.4,60.11803812455499,
prosecution,nackers,&&&&&&&,right,authority.vice,,,,,,,0,100,100,100,,,,,,,,,,,,,,,,,,,,,AMP,left,1.0338569813175127,,,left,0,1.0338569813175127,0,,,,,,,,,,,,,,,,,,,,,,1009,2019_Mar_06_1149,mf_amp_cond1,3.0.4,60.11803812455499,
lempestuous,Lacedonia,&&&&&&&&&,None,nonword,,,,,,,0,101,101,101,,,,,,,,,,,,,,,,,,,,,AMP,left,1.6506588521879166,,,left,0,1.6506588521879166,0,,,,,,,,,,,,,,,,,,,,,,1009,2019_Mar_06_1149,mf_amp_cond1,3.0.4,60.11803812455499,
dignity,synchronazers,&&&&&&&&&&&&&,left,sanctity.virtue,,,,,,,0,102,102,102,,,,,,,,,,,,,,,,,,,,,AMP,right,0.8171284907730296,,,right,0,0.8171284907730296,0,,,,,,,,,,,,,,,,,,,,,,1009,2019_Mar_06_1149,mf_amp_cond1,3.0.4,60.11803812455499,
clattening,reprisols,&&&&&&&&&,None,nonword,,,,,,,0,103,103,103,,,,,,,,,,,,,,,,,,,,,AMP,left,2.417525925207883,,,left,0,2.417525925207883,0,,,,,,,,,,,,,,,,,,,,,,1009,2019_Mar_06_1149,mf_amp_cond1,3.0.4,60.11803812455499,
interests,gaultless,&&&&&&&&&,left,fairness.virtue,,,,,,,0,104,104,104,,,,,,,,,,,,,,,,,,,,,AMP,right,1.5007039773045108,,,right,0,1.5007039773045108,0,,,,,,,,,,,,,,,,,,,,,,1009,2019_Mar_06_1149,mf_amp_cond1,3.0.4,60.11803812455499,
sharing,ecgagement,&&&&&&&&&&,left,loyalty.virtue,,,,,,,0,105,105,105,,,,,,,,,,,,,,,,,,,,,AMP,right,0.766991511802189,,,right,0,0.766991511802189,0,,,,,,,,,,,,,,,,,,,,,,1009,2019_Mar_06_1149,mf_amp_cond1,3.0.4,60.11803812455499,
civilians,alar,&&&&,right,care.vice,,,,,,,0,106,106,106,,,,,,,,,,,,,,,,,,,,,AMP,right,3.751182329142466,,,right,1,3.751182329142466,1,,,,,,,,,,,,,,,,,,,,,,1009,2019_Mar_06_1149,mf_amp_cond1,3.0.4,60.11803812455499,
progress,fornicalion,&&&&&&&&&&&,left,authority.virtue,,,,,,,0,107,107,107,,,,,,,,,,,,,,,,,,,,,AMP,right,0.6504628931870684,,,right,0,0.6504628931870684,0,,,,,,,,,,,,,,,,,,,,,,1009,2019_Mar_06_1149,mf_amp_cond1,3.0.4,60.11803812455499,
voter,idexpressible,&&&&&&&&&&&&&,right,fairness.vice,,,,,,,0,108,108,108,,,,,,,,,,,,,,,,,,,,,AMP,right,4.167948471964337,,,right,1,4.167948471964337,1,,,,,,,,,,,,,,,,,,,,,,1009,2019_Mar_06_1149,mf_amp_cond1,3.0.4,60.11803812455499,
corruption,Boeinf,&&&&&&,right,sanctity.vice,,,,,,,0,109,109,109,,,,,,,,,,,,,,,,,,,,,AMP,left,1.367286637192592,,,left,0,1.367286637192592,0,,,,,,,,,,,,,,,,,,,,,,1009,2019_Mar_06_1149,mf_amp_cond1,3.0.4,60.11803812455499,
support,laming,&&&&&&,left,loyalty.virtue,,,,,,,0,110,110,110,,,,,,,,,,,,,,,,,,,,,AMP,right,1.2005235410761088,,,right,0,1.2005235410761088,0,,,,,,,,,,,,,,,,,,,,,,1009,2019_Mar_06_1149,mf_amp_cond1,3.0.4,60.11803812455499,
gondensed,smapper,&&&&&&&,None,nonword,,,,,,,0,111,111,111,,,,,,,,,,,,,,,,,,,,,AMP,left,2.650926331640221,,,left,0,2.650926331640221,0,,,,,,,,,,,,,,,,,,,,,,1009,2019_Mar_06_1149,mf_amp_cond1,3.0.4,60.11803812455499,
increase,glacenta,&&&&&&&&,left,care.virtue,,,,,,,0,112,112,112,,,,,,,,,,,,,,,,,,,,,AMP,right,2.600887813256122,,,right,0,2.600887813256122,0,,,,,,,,,,,,,,,,,,,,,,1009,2019_Mar_06_1149,mf_amp_cond1,3.0.4,60.11803812455499,
growth,dramens,&&&&&&&,left,care.virtue,,,,,,,0,113,113,113,,,,,,,,,,,,,,,,,,,,,AMP,right,2.6175632568774745,,,right,0,2.6175632568774745,0,,,,,,,,,,,,,,,,,,,,,,1009,2019_Mar_06_1149,mf_amp_cond1,3.0.4,60.11803812455499,
protect,unscothed,&&&&&&&&&,left,fairness.virtue,,,,,,,0,114,114,114,,,,,,,,,,,,,,,,,,,,,AMP,right,1.483803389244713,,,right,0,1.483803389244713,0,,,,,,,,,,,,,,,,,,,,,,1009,2019_Mar_06_1149,mf_amp_cond1,3.0.4,60.11803812455499,
rejected,neneficence,&&&&&&&&&&&,right,authority.vice,,,,,,,0,115,115,115,,,,,,,,,,,,,,,,,,,,,AMP,left,0.6337502461392432,,,left,0,0.6337502461392432,0,,,,,,,,,,,,,,,,,,,,,,1009,2019_Mar_06_1149,mf_amp_cond1,3.0.4,60.11803812455499,
black,bycled,&&&&&&,right,loyalty.vice,,,,,,,0,116,116,116,,,,,,,,,,,,,,,,,,,,,AMP,right,4.151282329228707,,,right,1,4.151282329228707,1,,,,,,,,,,,,,,,,,,,,,,1009,2019_Mar_06_1149,mf_amp_cond1,3.0.4,60.11803812455499,
baklara,halaise,&&&&&&&,None,nonword,,,,,,,0,117,117,117,,,,,,,,,,,,,,,,,,,,,AMP,left,1.1338833443587646,,,left,0,1.1338833443587646,0,,,,,,,,,,,,,,,,,,,,,,1009,2019_Mar_06_1149,mf_amp_cond1,3.0.4,60.11803812455499,
ensure,letish,&&&&&&,left,fairness.virtue,,,,,,,0,118,118,118,,,,,,,,,,,,,,,,,,,,,AMP,right,0.9004970496753231,,,right,0,0.9004970496753231,0,,,,,,,,,,,,,,,,,,,,,,1009,2019_Mar_06_1149,mf_amp_cond1,3.0.4,60.11803812455499,
fear,yane,&&&&,right,sanctity.vice,,,,,,,0,119,119,119,,,,,,,,,,,,,,,,,,,,,AMP,left,1.0338476804317906,,,left,0,1.0338476804317906,0,,,,,,,,,,,,,,,,,,,,,,1009,2019_Mar_06_1149,mf_amp_cond1,3.0.4,60.11803812455499,
prison,ammessment,&&&&&&&&&&,right,fairness.vice,,,,,,,0,120,120,120,,,,,,,,,,,,,,,,,,,,,AMP,left,0.9838723437860608,,,left,0,0.9838723437860608,0,,,,,,,,,,,,,,,,,,,,,,1009,2019_Mar_06_1149,mf_amp_cond1,3.0.4,60.11803812455499,
lies,pescinded,&&&&&&&&&,right,fairness.vice,,,,,,,0,121,121,121,,,,,,,,,,,,,,,,,,,,,AMP,left,0.8671496902825311,,,left,0,0.8671496902825311,0,,,,,,,,,,,,,,,,,,,,,,1009,2019_Mar_06_1149,mf_amp_cond1,3.0.4,60.11803812455499,
rebels,sidearbs,&&&&&&&&,right,authority.vice,,,,,,,0,122,122,122,,,,,,,,,,,,,,,,,,,,,AMP,left,1.7171887217555195,,,left,0,1.7171887217555195,0,,,,,,,,,,,,,,,,,,,,,,1009,2019_Mar_06_1149,mf_amp_cond1,3.0.4,60.11803812455499,
hand,imebreaker,&&&&&&&&&&,left,sanctity.virtue,,,,,,,0,123,123,123,,,,,,,,,,,,,,,,,,,,,AMP,right,1.8173796134069562,,,right,0,1.8173796134069562,0,,,,,,,,,,,,,,,,,,,,,,1009,2019_Mar_06_1149,mf_amp_cond1,3.0.4,60.11803812455499,
supervuned,coom,&&&&,None,nonword,,,,,,,0,124,124,124,,,,,,,,,,,,,,,,,,,,,AMP,left,1.4506118991412222,,,left,0,1.4506118991412222,0,,,,,,,,,,,,,,,,,,,,,,1009,2019_Mar_06_1149,mf_amp_cond1,3.0.4,60.11803812455499,
emassion,ejanulated,&&&&&&&&&&,None,nonword,,,,,,,0,125,125,125,,,,,,,,,,,,,,,,,,,,,AMP,right,1.9840974882245064,,,right,0,1.9840974882245064,0,,,,,,,,,,,,,,,,,,,,,,1009,2019_Mar_06_1149,mf_amp_cond1,3.0.4,60.11803812455499,
groups,nuckheap,&&&&&&&&,right,loyalty.vice,,,,,,,0,126,126,126,,,,,,,,,,,,,,,,,,,,,AMP,right,3.134355442132801,,,right,1,3.134355442132801,1,,,,,,,,,,,,,,,,,,,,,,1009,2019_Mar_06_1149,mf_amp_cond1,3.0.4,60.11803812455499,
killed,pistraught,&&&&&&&&&&,right,care.vice,,,,,,,0,127,127,127,,,,,,,,,,,,,,,,,,,,,AMP,left,0.8838033251231536,,,left,0,0.8838033251231536,0,,,,,,,,,,,,,,,,,,,,,,1009,2019_Mar_06_1149,mf_amp_cond1,3.0.4,60.11803812455499,
refused,ning,&&&&,right,authority.vice,,,,,,,0,128,128,128,,,,,,,,,,,,,,,,,,,,,AMP,left,0.900481334538199,,,left,0,0.900481334538199,0,,,,,,,,,,,,,,,,,,,,,,1009,2019_Mar_06_1149,mf_amp_cond1,3.0.4,60.11803812455499,
arrests,gowlands,&&&&&&&&,right,authority.vice,,,,,,,0,129,129,129,,,,,,,,,,,,,,,,,,,,,AMP,right,2.650900994776748,,,right,1,2.650900994776748,1,,,,,,,,,,,,,,,,,,,,,,1009,2019_Mar_06_1149,mf_amp_cond1,3.0.4,60.11803812455499,
praised,frojecting,&&&&&&&&&&,left,loyalty.virtue,,,,,,,0,130,130,130,,,,,,,,,,,,,,,,,,,,,AMP,right,0.6504317835206166,,,right,0,0.6504317835206166,0,,,,,,,,,,,,,,,,,,,,,,1009,2019_Mar_06_1149,mf_amp_cond1,3.0.4,60.11803812455499,
perified,pharing,&&&&&&&,None,nonword,,,,,,,0,131,131,131,,,,,,,,,,,,,,,,,,,,,AMP,left,2.2174635775154456,,,left,0,2.2174635775154456,0,,,,,,,,,,,,,,,,,,,,,,1009,2019_Mar_06_1149,mf_amp_cond1,3.0.4,60.11803812455499,
suicide,presentkess,&&&&&&&&&&&,right,care.vice,,,,,,,0,132,132,132,,,,,,,,,,,,,,,,,,,,,AMP,left,0.6004141119774431,,,left,0,0.6004141119774431,0,,,,,,,,,,,,,,,,,,,,,,1009,2019_Mar_06_1149,mf_amp_cond1,3.0.4,60.11803812455499,
faspberry,quarterbocks,&&&&&&&&&&&&,None,nonword,,,,,,,0,133,133,133,,,,,,,,,,,,,,,,,,,,,AMP,left,7.051975338021293,,,left,0,7.051975338021293,0,,,,,,,,,,,,,,,,,,,,,,1009,2019_Mar_06_1149,mf_amp_cond1,3.0.4,60.11803812455499,
riot,refuejing,&&&&&&&&&,right,authority.vice,,,,,,,0,134,134,134,,,,,,,,,,,,,,,,,,,,,AMP,left,1.5338056662585586,,,left,0,1.5338056662585586,0,,,,,,,,,,,,,,,,,,,,,,1009,2019_Mar_06_1149,mf_amp_cond1,3.0.4,60.11803812455499,
perfect,sickyay,&&&&&&&,left,sanctity.virtue,,,,,,,0,135,135,135,,,,,,,,,,,,,,,,,,,,,AMP,right,0.5504256257554516,,,right,0,0.5504256257554516,0,,,,,,,,,,,,,,,,,,,,,,1009,2019_Mar_06_1149,mf_amp_cond1,3.0.4,60.11803812455499,
war,thadowed,&&&&&&&&,right,sanctity.vice,,,,,,,0,136,136,136,,,,,,,,,,,,,,,,,,,,,AMP,left,1.21727114636451,,,left,0,1.21727114636451,0,,,,,,,,,,,,,,,,,,,,,,1009,2019_Mar_06_1149,mf_amp_cond1,3.0.4,60.11803812455499,
fraud,antral,&&&&&&,right,fairness.vice,,,,,,,0,137,137,137,,,,,,,,,,,,,,,,,,,,,AMP,left,1.7506996475858614,,,left,0,1.7506996475858614,0,,,,,,,,,,,,,,,,,,,,,,1009,2019_Mar_06_1149,mf_amp_cond1,3.0.4,60.11803812455499,
officers,nonobservalt,&&&&&&&&&&&&,right,authority.vice,,,,,,,0,138,138,138,,,,,,,,,,,,,,,,,,,,,AMP,right,2.634261471685022,,,right,1,2.634261471685022,1,,,,,,,,,,,,,,,,,,,,,,1009,2019_Mar_06_1149,mf_amp_cond1,3.0.4,60.11803812455499,
strength,dumid,&&&&&,left,sanctity.virtue,,,,,,,0,139,139,139,,,,,,,,,,,,,,,,,,,,,AMP,right,1.0171834620414302,,,right,0,1.0171834620414302,0,,,,,,,,,,,,,,,,,,,,,,1009,2019_Mar_06_1149,mf_amp_cond1,3.0.4,60.11803812455499,
fair,epigrach,&&&&&&&&,left,fairness.virtue,,,,,,,0,140,140,140,,,,,,,,,,,,,,,,,,,,,AMP,right,0.8171390745555982,,,right,0,0.8171390745555982,0,,,,,,,,,,,,,,,,,,,,,,1009,2019_Mar_06_1149,mf_amp_cond1,3.0.4,60.11803812455499,
encourage,emports,&&&&&&&,left,authority.virtue,,,,,,,0,141,141,141,,,,,,,,,,,,,,,,,,,,,AMP,right,0.7337952109519392,,,right,0,0.7337952109519392,0,,,,,,,,,,,,,,,,,,,,,,1009,2019_Mar_06_1149,mf_amp_cond1,3.0.4,60.11803812455499,
love,festate,&&&&&&&,left,loyalty.virtue,,,,,,,0,142,142,142,,,,,,,,,,,,,,,,,,,,,AMP,right,0.5337408811319619,,,right,0,0.5337408811319619,0,,,,,,,,,,,,,,,,,,,,,,1009,2019_Mar_06_1149,mf_amp_cond1,3.0.4,60.11803812455499,
honored,reelectiob,&&&&&&&&&&,left,authority.virtue,,,,,,,0,143,143,143,,,,,,,,,,,,,,,,,,,,,AMP,right,1.2339016895275563,,,right,0,1.2339016895275563,0,,,,,,,,,,,,,,,,,,,,,,1009,2019_Mar_06_1149,mf_amp_cond1,3.0.4,60.11803812455499,
pleasant,neputized,&&&&&&&&&,None,control,,,,,,,0,144,144,144,,,,,,,,,,,,,,,,,,,,,AMP,right,0.6004413729533553,,,right,0,0.6004413729533553,0,,,,,,,,,,,,,,,,,,,,,,1009,2019_Mar_06_1149,mf_amp_cond1,3.0.4,60.11803812455499,
friends,gazily,&&&&&&,left,loyalty.virtue,,,,,,,0,145,145,145,,,,,,,,,,,,,,,,,,,,,AMP,right,0.7337785335257649,,,right,0,0.7337785335257649,0,,,,,,,,,,,,,,,,,,,,,,1009,2019_Mar_06_1149,mf_amp_cond1,3.0.4,60.11803812455499,
army,mecan,&&&&&,right,loyalty.vice,,,,,,,0,146,146,146,,,,,,,,,,,,,,,,,,,,,AMP,left,0.7837965257931501,,,left,0,0.7837965257931501,0,,,,,,,,,,,,,,,,,,,,,,1009,2019_Mar_06_1149,mf_amp_cond1,3.0.4,60.11803812455499,
victim,noped,&&&&&,right,care.vice,,,,,,,0,147,147,147,,,,,,,,,,,,,,,,,,,,,AMP,left,1.533971798606217,,,left,0,1.533971798606217,0,,,,,,,,,,,,,,,,,,,,,,1009,2019_Mar_06_1149,mf_amp_cond1,3.0.4,60.11803812455499,
clean,Daptist,&&&&&&&,left,sanctity.virtue,,,,,,,0,148,148,148,,,,,,,,,,,,,,,,,,,,,AMP,right,0.6837672763504088,,,right,0,0.6837672763504088,0,,,,,,,,,,,,,,,,,,,,,,1009,2019_Mar_06_1149,mf_amp_cond1,3.0.4,60.11803812455499,
ability,lorthwhile,&&&&&&&&&&,left,authority.virtue,,,,,,,0,149,149,149,,,,,,,,,,,,,,,,,,,,,AMP,right,4.551370142027736,,,right,0,4.551370142027736,0,,,,,,,,,,,,,,,,,,,,,,1009,2019_Mar_06_1149,mf_amp_cond1,3.0.4,60.11803812455499,
death,Oregoniuns,&&&&&&&&&&,right,care.vice,,,,,,,0,150,150,150,,,,,,,,,,,,,,,,,,,,,AMP,left,0.6670863804174587,,,left,0,0.6670863804174587,0,,,,,,,,,,,,,,,,,,,,,,1009,2019_Mar_06_1149,mf_amp_cond1,3.0.4,60.11803812455499,
chreams,neutralust,&&&&&&&&&&,None,nonword,,,,,,,0,151,151,151,,,,,,,,,,,,,,,,,,,,,AMP,right,1.350591308902949,,,right,0,1.350591308902949,0,,,,,,,,,,,,,,,,,,,,,,1009,2019_Mar_06_1149,mf_amp_cond1,3.0.4,60.11803812455499,
promises,chressing,&&&&&&&&&,left,fairness.virtue,,,,,,,0,152,152,152,,,,,,,,,,,,,,,,,,,,,AMP,right,0.7171104664448649,,,right,0,0.7171104664448649,0,,,,,,,,,,,,,,,,,,,,,,1009,2019_Mar_06_1149,mf_amp_cond1,3.0.4,60.11803812455499,
freedom,baladroit,&&&&&&&&&,left,sanctity.virtue,,,,,,,0,153,153,153,,,,,,,,,,,,,,,,,,,,,AMP,right,0.5503925916273147,,,right,0,0.5503925916273147,0,,,,,,,,,,,,,,,,,,,,,,1009,2019_Mar_06_1149,mf_amp_cond1,3.0.4,60.11803812455499,
respect,gournful,&&&&&&&&,left,sanctity.virtue,,,,,,,0,154,154,154,,,,,,,,,,,,,,,,,,,,,AMP,right,0.7337791749741882,,,right,0,0.7337791749741882,0,,,,,,,,,,,,,,,,,,,,,,1009,2019_Mar_06_1149,mf_amp_cond1,3.0.4,60.11803812455499,
safe,gikely,&&&&&&,left,care.virtue,,,,,,,0,155,155,155,,,,,,,,,,,,,,,,,,,,,AMP,right,0.8171310564503074,,,right,0,0.8171310564503074,0,,,,,,,,,,,,,,,,,,,,,,1009,2019_Mar_06_1149,mf_amp_cond1,3.0.4,60.11803812455499,
opportunity,blunderints,&&&&&&&&&&&,left,fairness.virtue,,,,,,,0,156,156,156,,,,,,,,,,,,,,,,,,,,,AMP,right,0.7004225146956742,,,right,0,0.7004225146956742,0,,,,,,,,,,,,,,,,,,,,,,1009,2019_Mar_06_1149,mf_amp_cond1,3.0.4,60.11803812455499,
unpleasant,fonderland,&&&&&&&&&&,None,control,,,,,,,0,157,157,157,,,,,,,,,,,,,,,,,,,,,AMP,left,0.5337296560173854,,,left,0,0.5337296560173854,0,,,,,,,,,,,,,,,,,,,,,,1009,2019_Mar_06_1149,mf_amp_cond1,3.0.4,60.11803812455499,
shot,chonograph,&&&&&&&&&&,right,care.vice,,,,,,,0,158,158,158,,,,,,,,,,,,,,,,,,,,,AMP,left,0.7504514114698395,,,left,0,0.7504514114698395,0,,,,,,,,,,,,,,,,,,,,,,1009,2019_Mar_06_1149,mf_amp_cond1,3.0.4,60.11803812455499,
critics,hasks,&&&&&,right,loyalty.vice,,,,,,,0,159,159,159,,,,,,,,,,,,,,,,,,,,,AMP,left,1.20055753714405,,,left,0,1.20055753714405,0,,,,,,,,,,,,,,,,,,,,,,1009,2019_Mar_06_1149,mf_amp_cond1,3.0.4,60.11803812455499,
free,mightingale,&&&&&&&&&&&,left,fairness.virtue,,,,,,,0,160,160,160,,,,,,,,,,,,,,,,,,,,,AMP,right,0.5170362520730123,,,right,0,0.5170362520730123,0,,,,,,,,,,,,,,,,,,,,,,1009,2019_Mar_06_1149,mf_amp_cond1,3.0.4,60.11803812455499,
intelligence,lursuer,&&&&&&&,left,loyalty.virtue,,,,,,,0,161,161,161,,,,,,,,,,,,,,,,,,,,,AMP,right,0.7504466007230803,,,right,0,0.7504466007230803,0,,,,,,,,,,,,,,,,,,,,,,1009,2019_Mar_06_1149,mf_amp_cond1,3.0.4,60.11803812455499,
sexual,fegard,&&&&&&,right,sanctity.vice,,,,,,,0,162,162,162,,,,,,,,,,,,,,,,,,,,,AMP,left,0.8338154803495854,,,left,0,0.8338154803495854,0,,,,,,,,,,,,,,,,,,,,,,1009,2019_Mar_06_1149,mf_amp_cond1,3.0.4,60.11803812455499,
health,clamorek,&&&&&&&&,left,care.virtue,,,,,,,0,163,163,163,,,,,,,,,,,,,,,,,,,,,AMP,right,0.5504018925130367,,,right,0,0.5504018925130367,0,,,,,,,,,,,,,,,,,,,,,,1009,2019_Mar_06_1149,mf_amp_cond1,3.0.4,60.11803812455499,
freedom,saned,&&&&&,left,sanctity.virtue,,,,,,,0,164,164,164,,,,,,,,,,,,,,,,,,,,,AMP,right,0.6671332053374499,,,right,0,0.6671332053374499,0,,,,,,,,,,,,,,,,,,,,,,1009,2019_Mar_06_1149,mf_amp_cond1,3.0.4,60.11803812455499,
violations,pescinded,&&&&&&&&&,right,sanctity.vice,,,,,,,0,165,165,165,,,,,,,,,,,,,,,,,,,,,AMP,left,1.800713149830699,,,left,0,1.800713149830699,0,,,,,,,,,,,,,,,,,,,,,,1009,2019_Mar_06_1149,mf_amp_cond1,3.0.4,60.11803812455499,
lies,troubla,&&&&&&&,right,fairness.vice,,,,,,,0,166,166,166,,,,,,,,,,,,,,,,,,,,,AMP,left,0.5003938424633816,,,left,0,0.5003938424633816,0,,,,,,,,,,,,,,,,,,,,,,1009,2019_Mar_06_1149,mf_amp_cond1,3.0.4,60.11803812455499,
health,reviked,&&&&&&&,left,care.virtue,,,,,,,0,167,167,167,,,,,,,,,,,,,,,,,,,,,AMP,right,0.6504215204622597,,,right,0,0.6504215204622597,0,,,,,,,,,,,,,,,,,,,,,,1009,2019_Mar_06_1149,mf_amp_cond1,3.0.4,60.11803812455499,
sharing,godlaness,&&&&&&&&&,left,loyalty.virtue,,,,,,,0,168,168,168,,,,,,,,,,,,,,,,,,,,,AMP,right,0.967185354209505,,,right,0,0.967185354209505,0,,,,,,,,,,,,,,,,,,,,,,1009,2019_Mar_06_1149,mf_amp_cond1,3.0.4,60.11803812455499,
clean,ilportation,&&&&&&&&&&&,left,sanctity.virtue,,,,,,,0,169,169,169,,,,,,,,,,,,,,,,,,,,,AMP,right,0.6337540948297828,,,right,0,0.6337540948297828,0,,,,,,,,,,,,,,,,,,,,,,1009,2019_Mar_06_1149,mf_amp_cond1,3.0.4,60.11803812455499,
fear,Boeinf,&&&&&&,right,sanctity.vice,,,,,,,0,170,170,170,,,,,,,,,,,,,,,,,,,,,AMP,left,0.8671705370070413,,,left,0,0.8671705370070413,0,,,,,,,,,,,,,,,,,,,,,,1009,2019_Mar_06_1149,mf_amp_cond1,3.0.4,60.11803812455499,
respect,noped,&&&&&,left,sanctity.virtue,,,,,,,0,171,171,171,,,,,,,,,,,,,,,,,,,,,AMP,right,0.8171268871519715,,,right,0,0.8171268871519715,0,,,,,,,,,,,,,,,,,,,,,,1009,2019_Mar_06_1149,mf_amp_cond1,3.0.4,60.11803812455499,
opportunity,coom,&&&&,left,fairness.virtue,,,,,,,0,172,172,172,,,,,,,,,,,,,,,,,,,,,AMP,right,1.2672249949537218,,,right,0,1.2672249949537218,0,,,,,,,,,,,,,,,,,,,,,,1009,2019_Mar_06_1149,mf_amp_cond1,3.0.4,60.11803812455499,
victims,neputized,&&&&&&&&&,right,care.vice,,,,,,,0,173,173,173,,,,,,,,,,,,,,,,,,,,,AMP,left,0.5337331839837134,,,left,0,0.5337331839837134,0,,,,,,,,,,,,,,,,,,,,,,1009,2019_Mar_06_1149,mf_amp_cond1,3.0.4,60.11803812455499,
suicide,idexpressible,&&&&&&&&&&&&&,right,care.vice,,,,,,,0,174,174,174,,,,,,,,,,,,,,,,,,,,,AMP,left,0.5503566710976884,,,left,0,0.5503566710976884,0,,,,,,,,,,,,,,,,,,,,,,1009,2019_Mar_06_1149,mf_amp_cond1,3.0.4,60.11803812455499,
clattening,ugeasily,&&&&&&&&,None,nonword,,,,,,,0,175,175,175,,,,,,,,,,,,,,,,,,,,,AMP,left,1.2338997651822865,,,left,0,1.2338997651822865,0,,,,,,,,,,,,,,,,,,,,,,1009,2019_Mar_06_1149,mf_amp_cond1,3.0.4,60.11803812455499,
victim,ronviolence,&&&&&&&&&&&,right,care.vice,,,,,,,0,176,176,176,,,,,,,,,,,,,,,,,,,,,AMP,left,1.9173880162416026,,,left,0,1.9173880162416026,0,,,,,,,,,,,,,,,,,,,,,,1009,2019_Mar_06_1149,mf_amp_cond1,3.0.4,60.11803812455499,
baklara,mightingale,&&&&&&&&&&&,None,nonword,,,,,,,0,177,177,177,,,,,,,,,,,,,,,,,,,,,AMP,left,0.6837868401780725,,,left,0,0.6837868401780725,0,,,,,,,,,,,,,,,,,,,,,,1009,2019_Mar_06_1149,mf_amp_cond1,3.0.4,60.11803812455499,
useful,gournful,&&&&&&&&,left,authority.virtue,,,,,,,0,178,178,178,,,,,,,,,,,,,,,,,,,,,AMP,right,1.2839145503239706,,,right,0,1.2839145503239706,0,,,,,,,,,,,,,,,,,,,,,,1009,2019_Mar_06_1149,mf_amp_cond1,3.0.4,60.11803812455499,
free,glacenta,&&&&&&&&,left,fairness.virtue,,,,,,,0,179,179,179,,,,,,,,,,,,,,,,,,,,,AMP,right,0.5337351083289832,,,right,0,0.5337351083289832,0,,,,,,,,,,,,,,,,,,,,,,1009,2019_Mar_06_1149,mf_amp_cond1,3.0.4,60.11803812455499,
riot,epigrach,&&&&&&&&,right,authority.vice,,,,,,,0,180,180,180,,,,,,,,,,,,,,,,,,,,,AMP,left,2.550919532426633,,,left,0,2.550919532426633,0,,,,,,,,,,,,,,,,,,,,,,1009,2019_Mar_06_1149,mf_amp_cond1,3.0.4,60.11803812455499,
corruption,thadowed,&&&&&&&&,right,sanctity.vice,,,,,,,0,181,181,181,,,,,,,,,,,,,,,,,,,,,AMP,left,3.5344455000013113,,,left,0,3.5344455000013113,0,,,,,,,,,,,,,,,,,,,,,,1009,2019_Mar_06_1149,mf_amp_cond1,3.0.4,60.11803812455499,
perified,nonobservalt,&&&&&&&&&&&&,None,nonword,,,,,,,0,182,182,182,,,,,,,,,,,,,,,,,,,,,AMP,left,3.7678494341671467,,,left,0,3.7678494341671467,0,,,,,,,,,,,,,,,,,,,,,,1009,2019_Mar_06_1149,mf_amp_cond1,3.0.4,60.11803812455499,
ability,fostet,&&&&&&,left,authority.virtue,,,,,,,0,183,183,183,,,,,,,,,,,,,,,,,,,,,AMP,right,0.48372128524351865,,,right,0,0.48372128524351865,0,,,,,,,,,,,,,,,,,,,,,,1009,2019_Mar_06_1149,mf_amp_cond1,3.0.4,60.11803812455499,
voter,festate,&&&&&&&,right,fairness.vice,,,,,,,0,184,184,184,,,,,,,,,,,,,,,,,,,,,AMP,right,0.7671194785507396,,,right,1,0.7671194785507396,1,,,,,,,,,,,,,,,,,,,,,,1009,2019_Mar_06_1149,mf_amp_cond1,3.0.4,60.11803812455499,
serial,neutralust,&&&&&&&&&&,right,sanctity.vice,,,,,,,0,185,185,185,,,,,,,,,,,,,,,,,,,,,AMP,left,2.534205923206173,,,left,0,2.534205923206173,0,,,,,,,,,,,,,,,,,,,,,,1009,2019_Mar_06_1149,mf_amp_cond1,3.0.4,60.11803812455499,
forced,yane,&&&&,right,fairness.vice,,,,,,,0,186,186,186,,,,,,,,,,,,,,,,,,,,,AMP,left,0.7336236265255138,,,left,0,0.7336236265255138,0,,,,,,,,,,,,,,,,,,,,,,1009,2019_Mar_06_1149,mf_amp_cond1,3.0.4,60.11803812455499,
improve,alar,&&&&,left,care.virtue,,,,,,,0,187,187,187,,,,,,,,,,,,,,,,,,,,,AMP,right,0.4170551103306934,,,right,0,0.4170551103306934,0,,,,,,,,,,,,,,,,,,,,,,1009,2019_Mar_06_1149,mf_amp_cond1,3.0.4,60.11803812455499,
wump,refuejing,&&&&&&&&&,None,nonword,,,,,,,0,188,188,188,,,,,,,,,,,,,,,,,,,,,AMP,left,2.167468677042052,,,left,0,2.167468677042052,0,,,,,,,,,,,,,,,,,,,,,,1009,2019_Mar_06_1149,mf_amp_cond1,3.0.4,60.11803812455499,
refused,imebreaker,&&&&&&&&&&,right,authority.vice,,,,,,,0,189,189,189,,,,,,,,,,,,,,,,,,,,,AMP,left,3.0176683884346858,,,left,0,3.0176683884346858,0,,,,,,,,,,,,,,,,,,,,,,1009,2019_Mar_06_1149,mf_amp_cond1,3.0.4,60.11803812455499,
growth,Loorish,&&&&&&&,left,care.virtue,,,,,,,0,190,190,190,,,,,,,,,,,,,,,,,,,,,AMP,right,0.5504038168583065,,,right,0,0.5504038168583065,0,,,,,,,,,,,,,,,,,,,,,,1009,2019_Mar_06_1149,mf_amp_cond1,3.0.4,60.11803812455499,
strength,hasks,&&&&&,left,sanctity.virtue,,,,,,,0,191,191,191,,,,,,,,,,,,,,,,,,,,,AMP,right,0.567068035248667,,,right,0,0.567068035248667,0,,,,,,,,,,,,,,,,,,,,,,1009,2019_Mar_06_1149,mf_amp_cond1,3.0.4,60.11803812455499,
officers,Lacedonia,&&&&&&&&&,right,authority.vice,,,,,,,0,192,192,192,,,,,,,,,,,,,,,,,,,,,AMP,right,1.0005012832116336,,,right,1,1.0005012832116336,1,,,,,,,,,,,,,,,,,,,,,,1009,2019_Mar_06_1149,mf_amp_cond1,3.0.4,60.11803812455499,
illegal,sickyay,&&&&&&&,right,fairness.vice,,,,,,,0,193,193,193,,,,,,,,,,,,,,,,,,,,,AMP,left,0.5337588414549828,,,left,0,0.5337588414549828,0,,,,,,,,,,,,,,,,,,,,,,1009,2019_Mar_06_1149,mf_amp_cond1,3.0.4,60.11803812455499,
pleasant,fegard,&&&&&&,None,control,,,,,,,0,194,194,194,,,,,,,,,,,,,,,,,,,,,AMP,right,0.4670538594946265,,,right,0,0.4670538594946265,0,,,,,,,,,,,,,,,,,,,,,,1009,2019_Mar_06_1149,mf_amp_cond1,3.0.4,60.11803812455499,
praised,blunderints,&&&&&&&&&&&,left,loyalty.virtue,,,,,,,0,195,195,195,,,,,,,,,,,,,,,,,,,,,AMP,right,0.9838470070390031,,,right,0,0.9838470070390031,0,,,,,,,,,,,,,,,,,,,,,,1009,2019_Mar_06_1149,mf_amp_cond1,3.0.4,60.11803812455499,
rebels,reprisols,&&&&&&&&&,right,authority.vice,,,,,,,0,196,196,196,,,,,,,,,,,,,,,,,,,,,AMP,left,0.7004257219377905,,,left,0,0.7004257219377905,0,,,,,,,,,,,,,,,,,,,,,,1009,2019_Mar_06_1149,mf_amp_cond1,3.0.4,60.11803812455499,
sexual,nackers,&&&&&&&,right,sanctity.vice,,,,,,,0,197,197,197,,,,,,,,,,,,,,,,,,,,,AMP,left,1.2005524056730792,,,left,0,1.2005524056730792,0,,,,,,,,,,,,,,,,,,,,,,1009,2019_Mar_06_1149,mf_amp_cond1,3.0.4,60.11803812455499,
war,divility,&&&&&&&&,right,sanctity.vice,,,,,,,0,198,198,198,,,,,,,,,,,,,,,,,,,,,AMP,left,0.7003766519483179,,,left,0,0.7003766519483179,0,,,,,,,,,,,,,,,,,,,,,,1009,2019_Mar_06_1149,mf_amp_cond1,3.0.4,60.11803812455499,
slavery,presentkess,&&&&&&&&&&&,right,loyalty.vice,,,,,,,0,199,199,199,,,,,,,,,,,,,,,,,,,,,AMP,left,0.8338007272686809,,,left,0,0.8338007272686809,0,,,,,,,,,,,,,,,,,,,,,,1009,2019_Mar_06_1149,mf_amp_cond1,3.0.4,60.11803812455499,
actively,fonderland,&&&&&&&&&&,left,authority.virtue,,,,,,,0,200,200,200,,,,,,,,,,,,,,,,,,,,,AMP,right,0.6337810350814834,,,right,0,0.6337810350814834,0,,,,,,,,,,,,,,,,,,,,,,1009,2019_Mar_06_1149,mf_amp_cond1,3.0.4,60.11803812455499,
critics,dramens,&&&&&&&,right,loyalty.vice,,,,,,,0,201,201,201,,,,,,,,,,,,,,,,,,,,,AMP,left,0.633758905576542,,,left,0,0.633758905576542,0,,,,,,,,,,,,,,,,,,,,,,1009,2019_Mar_06_1149,mf_amp_cond1,3.0.4,60.11803812455499,
accused,letish,&&&&&&,right,fairness.vice,,,,,,,0,202,202,202,,,,,,,,,,,,,,,,,,,,,AMP,left,0.5504426237894222,,,left,0,0.5504426237894222,0,,,,,,,,,,,,,,,,,,,,,,1009,2019_Mar_06_1149,mf_amp_cond1,3.0.4,60.11803812455499,
black,halaise,&&&&&&&,right,loyalty.vice,,,,,,,0,203,203,203,,,,,,,,,,,,,,,,,,,,,AMP,right,0.917146835825406,,,right,1,0.917146835825406,1,,,,,,,,,,,,,,,,,,,,,,1009,2019_Mar_06_1149,mf_amp_cond1,3.0.4,60.11803812455499,
civilians,shoirmaster,&&&&&&&&&&&,right,care.vice,,,,,,,0,204,204,204,,,,,,,,,,,,,,,,,,,,,AMP,left,1.0671732310438529,,,left,0,1.0671732310438529,0,,,,,,,,,,,,,,,,,,,,,,1009,2019_Mar_06_1149,mf_amp_cond1,3.0.4,60.11803812455499,
unpleasant,gowlands,&&&&&&&&,None,control,,,,,,,0,205,205,205,,,,,,,,,,,,,,,,,,,,,AMP,left,0.7837897907011211,,,left,0,0.7837897907011211,0,,,,,,,,,,,,,,,,,,,,,,1009,2019_Mar_06_1149,mf_amp_cond1,3.0.4,60.11803812455499,
love,sonvoy,&&&&&&,left,loyalty.virtue,,,,,,,0,206,206,206,,,,,,,,,,,,,,,,,,,,,AMP,right,0.5335988027509302,,,right,0,0.5335988027509302,0,,,,,,,,,,,,,,,,,,,,,,1009,2019_Mar_06_1149,mf_amp_cond1,3.0.4,60.11803812455499,
honored,bycled,&&&&&&,left,authority.virtue,,,,,,,0,207,207,207,,,,,,,,,,,,,,,,,,,,,AMP,right,1.3506018925691023,,,right,0,1.3506018925691023,0,,,,,,,,,,,,,,,,,,,,,,1009,2019_Mar_06_1149,mf_amp_cond1,3.0.4,60.11803812455499,
intelligence,smapper,&&&&&&&,left,loyalty.virtue,,,,,,,0,208,208,208,,,,,,,,,,,,,,,,,,,,,AMP,right,0.7004417577991262,,,right,0,0.7004417577991262,0,,,,,,,,,,,,,,,,,,,,,,1009,2019_Mar_06_1149,mf_amp_cond1,3.0.4,60.11803812455499,
faspberry,chressing,&&&&&&&&&,None,nonword,,,,,,,0,209,209,209,,,,,,,,,,,,,,,,,,,,,AMP,right,1.550650128745474,,,right,0,1.550650128745474,0,,,,,,,,,,,,,,,,,,,,,,1009,2019_Mar_06_1149,mf_amp_cond1,3.0.4,60.11803812455499,
trust,neneficence,&&&&&&&&&&&,left,authority.virtue,,,,,,,0,210,210,210,,,,,,,,,,,,,,,,,,,,,AMP,right,0.6671056235209107,,,right,0,0.6671056235209107,0,,,,,,,,,,,,,,,,,,,,,,1009,2019_Mar_06_1149,mf_amp_cond1,3.0.4,60.11803812455499,
drug,gikely,&&&&&&,right,sanctity.vice,,,,,,,0,211,211,211,,,,,,,,,,,,,,,,,,,,,AMP,left,0.5670850333990529,,,left,0,0.5670850333990529,0,,,,,,,,,,,,,,,,,,,,,,1009,2019_Mar_06_1149,mf_amp_cond1,3.0.4,60.11803812455499,
rejected,ejanulated,&&&&&&&&&&,right,authority.vice,,,,,,,0,212,212,212,,,,,,,,,,,,,,,,,,,,,AMP,left,1.1505414692219347,,,left,0,1.1505414692219347,0,,,,,,,,,,,,,,,,,,,,,,1009,2019_Mar_06_1149,mf_amp_cond1,3.0.4,60.11803812455499,
death,mecan,&&&&&,right,care.vice,,,,,,,0,213,213,213,,,,,,,,,,,,,,,,,,,,,AMP,left,1.0672364125493914,,,left,0,1.0672364125493914,0,,,,,,,,,,,,,,,,,,,,,,1009,2019_Mar_06_1149,mf_amp_cond1,3.0.4,60.11803812455499,
compassion,fornicalion,&&&&&&&&&&&,left,care.virtue,,,,,,,0,214,214,214,,,,,,,,,,,,,,,,,,,,,AMP,left,2.734264101483859,,,left,1,2.734264101483859,1,,,,,,,,,,,,,,,,,,,,,,1009,2019_Mar_06_1149,mf_amp_cond1,3.0.4,60.11803812455499,
ensure,Daptist,&&&&&&&,left,fairness.virtue,,,,,,,0,215,215,215,,,,,,,,,,,,,,,,,,,,,AMP,right,2.6509728358360007,,,right,0,2.6509728358360007,0,,,,,,,,,,,,,,,,,,,,,,1009,2019_Mar_06_1149,mf_amp_cond1,3.0.4,60.11803812455499,
promises,antral,&&&&&&,left,fairness.virtue,,,,,,,0,216,216,216,,,,,,,,,,,,,,,,,,,,,AMP,right,1.3339476163964719,,,right,0,1.3339476163964719,0,,,,,,,,,,,,,,,,,,,,,,1009,2019_Mar_06_1149,mf_amp_cond1,3.0.4,60.11803812455499,
chreams,quarterbocks,&&&&&&&&&&&&,None,nonword,,,,,,,0,217,217,217,,,,,,,,,,,,,,,,,,,,,AMP,right,1.333917148062028,,,right,0,1.333917148062028,0,,,,,,,,,,,,,,,,,,,,,,1009,2019_Mar_06_1149,mf_amp_cond1,3.0.4,60.11803812455499,
encourage,pistraught,&&&&&&&&&&,left,authority.virtue,,,,,,,0,218,218,218,,,,,,,,,,,,,,,,,,,,,AMP,right,0.4837216059677303,,,right,0,0.4837216059677303,0,,,,,,,,,,,,,,,,,,,,,,1009,2019_Mar_06_1149,mf_amp_cond1,3.0.4,60.11803812455499,
lempestuous,reelectiob,&&&&&&&&&&,None,nonword,,,,,,,0,219,219,219,,,,,,,,,,,,,,,,,,,,,AMP,left,0.8504774539032951,,,left,0,0.8504774539032951,0,,,,,,,,,,,,,,,,,,,,,,1009,2019_Mar_06_1149,mf_amp_cond1,3.0.4,60.11803812455499,
prosecution,prones,&&&&&&,right,authority.vice,,,,,,,0,220,220,220,,,,,,,,,,,,,,,,,,,,,AMP,left,6.08507381984964,,,left,0,6.08507381984964,0,,,,,,,,,,,,,,,,,,,,,,1009,2019_Mar_06_1149,mf_amp_cond1,3.0.4,60.11803812455499,
care,Oregoniuns,&&&&&&&&&&,left,care.virtue,,,,,,,0,221,221,221,,,,,,,,,,,,,,,,,,,,,AMP,right,0.4171288756188005,,,right,0,0.4171288756188005,0,,,,,,,,,,,,,,,,,,,,,,1009,2019_Mar_06_1149,mf_amp_cond1,3.0.4,60.11803812455499,
dignity,clamorek,&&&&&&&&,left,sanctity.virtue,,,,,,,0,222,222,222,,,,,,,,,,,,,,,,,,,,,AMP,right,0.8671391064999625,,,right,0,0.8671391064999625,0,,,,,,,,,,,,,,,,,,,,,,1009,2019_Mar_06_1149,mf_amp_cond1,3.0.4,60.11803812455499,
gondensed,synchronazers,&&&&&&&&&&&&&,None,nonword,,,,,,,0,223,223,223,,,,,,,,,,,,,,,,,,,,,AMP,right,0.8004572164500132,,,right,0,0.8004572164500132,0,,,,,,,,,,,,,,,,,,,,,,1009,2019_Mar_06_1149,mf_amp_cond1,3.0.4,60.11803812455499,
supervuned,frojecting,&&&&&&&&&&,None,nonword,,,,,,,0,224,224,224,,,,,,,,,,,,,,,,,,,,,AMP,left,0.8338029723381624,,,left,0,0.8338029723381624,0,,,,,,,,,,,,,,,,,,,,,,1009,2019_Mar_06_1149,mf_amp_cond1,3.0.4,60.11803812455499,
safe,dumid,&&&&&,left,care.virtue,,,,,,,0,225,225,225,,,,,,,,,,,,,,,,,,,,,AMP,right,0.4670445587253198,,,right,0,0.4670445587253198,0,,,,,,,,,,,,,,,,,,,,,,1009,2019_Mar_06_1149,mf_amp_cond1,3.0.4,60.11803812455499,
betrayal,gazily,&&&&&&,right,loyalty.vice,,,,,,,0,226,226,226,,,,,,,,,,,,,,,,,,,,,AMP,left,1.800702245440334,,,left,0,1.800702245440334,0,,,,,,,,,,,,,,,,,,,,,,1009,2019_Mar_06_1149,mf_amp_cond1,3.0.4,60.11803812455499,
promised,lorthwhile,&&&&&&&&&&,left,loyalty.virtue,,,,,,,0,227,227,227,,,,,,,,,,,,,,,,,,,,,AMP,right,0.5503922710195184,,,right,0,0.5503922710195184,0,,,,,,,,,,,,,,,,,,,,,,1009,2019_Mar_06_1149,mf_amp_cond1,3.0.4,60.11803812455499,
friends,baladroit,&&&&&&&&&,left,loyalty.virtue,,,,,,,0,228,228,228,,,,,,,,,,,,,,,,,,,,,AMP,right,0.5170243855100125,,,right,0,0.5170243855100125,0,,,,,,,,,,,,,,,,,,,,,,1009,2019_Mar_06_1149,mf_amp_cond1,3.0.4,60.11803812455499,
army,nuckheap,&&&&&&&&,right,loyalty.vice,,,,,,,0,229,229,229,,,,,,,,,,,,,,,,,,,,,AMP,left,0.45038771675899625,,,left,0,0.45038771675899625,0,,,,,,,,,,,,,,,,,,,,,,1009,2019_Mar_06_1149,mf_amp_cond1,3.0.4,60.11803812455499,
hand,ecgagement,&&&&&&&&&&,left,sanctity.virtue,,,,,,,0,230,230,230,,,,,,,,,,,,,,,,,,,,,AMP,right,3.0343409456545487,,,right,0,3.0343409456545487,0,,,,,,,,,,,,,,,,,,,,,,1009,2019_Mar_06_1149,mf_amp_cond1,3.0.4,60.11803812455499,
killed,ammessment,&&&&&&&&&&,right,care.vice,,,,,,,0,231,231,231,,,,,,,,,,,,,,,,,,,,,AMP,left,0.38370710948947817,,,left,0,0.38370710948947817,0,,,,,,,,,,,,,,,,,,,,,,1009,2019_Mar_06_1149,mf_amp_cond1,3.0.4,60.11803812455499,
arrests,laming,&&&&&&,right,authority.vice,,,,,,,0,232,232,232,,,,,,,,,,,,,,,,,,,,,AMP,left,1.2338994444580749,,,left,0,1.2338994444580749,0,,,,,,,,,,,,,,,,,,,,,,1009,2019_Mar_06_1149,mf_amp_cond1,3.0.4,60.11803812455499,
support,lursuer,&&&&&&&,left,loyalty.virtue,,,,,,,0,233,233,233,,,,,,,,,,,,,,,,,,,,,AMP,right,2.084095628000796,,,right,0,2.084095628000796,0,,,,,,,,,,,,,,,,,,,,,,1009,2019_Mar_06_1149,mf_amp_cond1,3.0.4,60.11803812455499,
groups,unscothed,&&&&&&&&&,right,loyalty.vice,,,,,,,0,234,234,234,,,,,,,,,,,,,,,,,,,,,AMP,right,0.5337242037057877,,,right,1,0.5337242037057877,1,,,,,,,,,,,,,,,,,,,,,,1009,2019_Mar_06_1149,mf_amp_cond1,3.0.4,60.11803812455499,
prison,precificity,&&&&&&&&&&&,right,fairness.vice,,,,,,,0,235,235,235,,,,,,,,,,,,,,,,,,,,,AMP,left,0.5003976910375059,,,left,0,0.5003976910375059,0,,,,,,,,,,,,,,,,,,,,,,1009,2019_Mar_06_1149,mf_amp_cond1,3.0.4,60.11803812455499,
fraud,chonograph,&&&&&&&&&&,right,fairness.vice,,,,,,,0,236,236,236,,,,,,,,,,,,,,,,,,,,,AMP,left,0.783794280840084,,,left,0,0.783794280840084,0,,,,,,,,,,,,,,,,,,,,,,1009,2019_Mar_06_1149,mf_amp_cond1,3.0.4,60.11803812455499,
protect,lachelor,&&&&&&&&,left,fairness.virtue,,,,,,,0,237,237,237,,,,,,,,,,,,,,,,,,,,,AMP,right,0.4336978407809511,,,right,0,0.4336978407809511,0,,,,,,,,,,,,,,,,,,,,,,1009,2019_Mar_06_1149,mf_amp_cond1,3.0.4,60.11803812455499,
increase,gillipede,&&&&&&&&&,left,care.virtue,,,,,,,0,238,238,238,,,,,,,,,,,,,,,,,,,,,AMP,right,1.0671867012279108,,,right,0,1.0671867012279108,0,,,,,,,,,,,,,,,,,,,,,,1009,2019_Mar_06_1149,mf_amp_cond1,3.0.4,60.11803812455499,
progress,ning,&&&&,left,authority.virtue,,,,,,,0,239,239,239,,,,,,,,,,,,,,,,,,,,,AMP,right,0.8006881339242682,,,right,0,0.8006881339242682,0,,,,,,,,,,,,,,,,,,,,,,1009,2019_Mar_06_1149,mf_amp_cond1,3.0.4,60.11803812455499,
interests,gaultless,&&&&&&&&&,left,fairness.virtue,,,,,,,0,240,240,240,,,,,,,,,,,,,,,,,,,,,AMP,right,0.5337402396835387,,,right,0,0.5337402396835387,0,,,,,,,,,,,,,,,,,,,,,,1009,2019_Mar_06_1149,mf_amp_cond1,3.0.4,60.11803812455499,
perfect,iptervention,&&&&&&&&&&&&,left,sanctity.virtue,,,,,,,0,241,241,241,,,,,,,,,,,,,,,,,,,,,AMP,right,0.6004083389416337,,,right,0,0.6004083389416337,0,,,,,,,,,,,,,,,,,,,,,,1009,2019_Mar_06_1149,mf_amp_cond1,3.0.4,60.11803812455499,
fair,emports,&&&&&&&,left,fairness.virtue,,,,,,,0,242,242,242,,,,,,,,,,,,,,,,,,,,,AMP,right,0.5670667524682358,,,right,0,0.5670667524682358,0,,,,,,,,,,,,,,,,,,,,,,1009,2019_Mar_06_1149,mf_amp_cond1,3.0.4,60.11803812455499,
shot,edancipation,&&&&&&&&&&&&,right,care.vice,,,,,,,0,243,243,243,,,,,,,,,,,,,,,,,,,,,AMP,left,0.5504166454775259,,,left,0,0.5504166454775259,0,,,,,,,,,,,,,,,,,,,,,,1009,2019_Mar_06_1149,mf_amp_cond1,3.0.4,60.11803812455499,
emassion,sidearbs,&&&&&&&&,None,nonword,,,,,,,0,244,244,244,,,,,,,,,,,,,,,,,,,,,AMP,right,0.6337868081172928,,,right,0,0.6337868081172928,0,,,,,,,,,,,,,,,,,,,,,,1009,2019_Mar_06_1149,mf_amp_cond1,3.0.4,60.11803812455499,
failure,pharing,&&&&&&&,right,loyalty.vice,,,,,,,0,245,245,245,,,,,,,,,,,,,,,,,,,,,AMP,left,1.3839402719167992,,,left,0,1.3839402719167992,0,,,,,,,,,,,,,,,,,,,,,,1009,2019_Mar_06_1149,mf_amp_cond1,3.0.4,60.11803812455499,
victims,frojecting,&&&&&&&&&&,right,care.vice,,,,,,,0,246,246,246,,,,,,,,,,,,,,,,,,,,,AMP,left,0.5337466541677713,,,left,0,0.5337466541677713,0,,,,,,,,,,,,,,,,,,,,,,1009,2019_Mar_06_1149,mf_amp_cond1,3.0.4,60.11803812455499,
opportunity,Oregoniuns,&&&&&&&&&&,left,fairness.virtue,,,,,,,0,247,247,247,,,,,,,,,,,,,,,,,,,,,AMP,right,0.5672190937912092,,,right,0,0.5672190937912092,0,,,,,,,,,,,,,,,,,,,,,,1009,2019_Mar_06_1149,mf_amp_cond1,3.0.4,60.11803812455499,
killed,unscothed,&&&&&&&&&,right,care.vice,,,,,,,0,248,248,248,,,,,,,,,,,,,,,,,,,,,AMP,left,1.350589705281891,,,left,0,1.350589705281891,0,,,,,,,,,,,,,,,,,,,,,,1009,2019_Mar_06_1149,mf_amp_cond1,3.0.4,60.11803812455499,
care,mecan,&&&&&,left,care.virtue,,,,,,,0,249,249,249,,,,,,,,,,,,,,,,,,,,,AMP,right,1.0005506738089025,,,right,0,1.0005506738089025,0,,,,,,,,,,,,,,,,,,,,,,1009,2019_Mar_06_1149,mf_amp_cond1,3.0.4,60.11803812455499,
growth,fornicalion,&&&&&&&&&&&,left,care.virtue,,,,,,,0,250,250,250,,,,,,,,,,,,,,,,,,,,,AMP,right,3.801181719871238,,,right,0,3.801181719871238,0,,,,,,,,,,,,,,,,,,,,,,1009,2019_Mar_06_1149,mf_amp_cond1,3.0.4,60.11803812455499,
slavery,hasks,&&&&&,right,loyalty.vice,,,,,,,0,251,251,251,,,,,,,,,,,,,,,,,,,,,AMP,left,0.7336858458584175,,,left,0,0.7336858458584175,0,,,,,,,,,,,,,,,,,,,,,,1009,2019_Mar_06_1149,mf_amp_cond1,3.0.4,60.11803812455499,
voter,noped,&&&&&,right,fairness.vice,,,,,,,0,252,252,252,,,,,,,,,,,,,,,,,,,,,AMP,right,0.6504314626799896,,,right,1,0.6504314626799896,1,,,,,,,,,,,,,,,,,,,,,,1009,2019_Mar_06_1149,mf_amp_cond1,3.0.4,60.11803812455499,
hand,bycled,&&&&&&,left,sanctity.virtue,,,,,,,0,253,253,253,,,,,,,,,,,,,,,,,,,,,AMP,right,0.6004169982625172,,,right,0,0.6004169982625172,0,,,,,,,,,,,,,,,,,,,,,,1009,2019_Mar_06_1149,mf_amp_cond1,3.0.4,60.11803812455499,
shot,reelectiob,&&&&&&&&&&,right,care.vice,,,,,,,0,254,254,254,,,,,,,,,,,,,,,,,,,,,AMP,left,0.46704263438005,,,left,0,0.46704263438005,0,,,,,,,,,,,,,,,,,,,,,,1009,2019_Mar_06_1149,mf_amp_cond1,3.0.4,60.11803812455499,
ability,lursuer,&&&&&&&,left,authority.virtue,,,,,,,0,255,255,255,,,,,,,,,,,,,,,,,,,,,AMP,right,1.0338512083981186,,,right,0,1.0338512083981186,0,,,,,,,,,,,,,,,,,,,,,,1009,2019_Mar_06_1149,mf_amp_cond1,3.0.4,60.11803812455499,
clattening,pistraught,&&&&&&&&&&,None,nonword,,,,,,,0,256,256,256,,,,,,,,,,,,,,,,,,,,,AMP,left,5.451607730356045,,,left,0,5.451607730356045,0,,,,,,,,,,,,,,,,,,,,,,1009,2019_Mar_06_1149,mf_amp_cond1,3.0.4,60.11803812455499,
pleasant,fonderland,&&&&&&&&&&,None,control,,,,,,,0,257,257,257,,,,,,,,,,,,,,,,,,,,,AMP,right,0.2670027370331809,,,right,0,0.2670027370331809,0,,,,,,,,,,,,,,,,,,,,,,1009,2019_Mar_06_1149,mf_amp_cond1,3.0.4,60.11803812455499,
ensure,gillipede,&&&&&&&&&,left,fairness.virtue,,,,,,,0,258,258,258,,,,,,,,,,,,,,,,,,,,,AMP,right,0.3836872249376029,,,right,0,0.3836872249376029,0,,,,,,,,,,,,,,,,,,,,,,1009,2019_Mar_06_1149,mf_amp_cond1,3.0.4,60.11803812455499,
forced,letish,&&&&&&,right,fairness.vice,,,,,,,0,259,259,259,,,,,,,,,,,,,,,,,,,,,AMP,left,0.5170208576600999,,,left,0,0.5170208576600999,0,,,,,,,,,,,,,,,,,,,,,,1009,2019_Mar_06_1149,mf_amp_cond1,3.0.4,60.11803812455499,
promised,pharing,&&&&&&&,left,loyalty.virtue,,,,,,,0,260,260,260,,,,,,,,,,,,,,,,,,,,,AMP,right,0.41704131953883916,,,right,0,0.41704131953883916,0,,,,,,,,,,,,,,,,,,,,,,1009,2019_Mar_06_1149,mf_amp_cond1,3.0.4,60.11803812455499,
victim,yane,&&&&,right,care.vice,,,,,,,0,261,261,261,,,,,,,,,,,,,,,,,,,,,AMP,left,1.9339912983123213,,,left,0,1.9339912983123213,0,,,,,,,,,,,,,,,,,,,,,,1009,2019_Mar_06_1149,mf_amp_cond1,3.0.4,60.11803812455499,
clean,sidearbs,&&&&&&&&,left,sanctity.virtue,,,,,,,0,262,262,262,,,,,,,,,,,,,,,,,,,,,AMP,right,0.8838071736972779,,,right,0,0.8838071736972779,0,,,,,,,,,,,,,,,,,,,,,,1009,2019_Mar_06_1149,mf_amp_cond1,3.0.4,60.11803812455499,
accused,chonograph,&&&&&&&&&&,right,fairness.vice,,,,,,,0,263,263,263,,,,,,,,,,,,,,,,,,,,,AMP,left,0.9171952643664554,,,left,0,0.9171952643664554,0,,,,,,,,,,,,,,,,,,,,,,1009,2019_Mar_06_1149,mf_amp_cond1,3.0.4,60.11803812455499,
protect,ejanulated,&&&&&&&&&&,left,fairness.virtue,,,,,,,0,264,264,264,,,,,,,,,,,,,,,,,,,,,AMP,right,1.9506968895439059,,,right,0,1.9506968895439059,0,,,,,,,,,,,,,,,,,,,,,,1009,2019_Mar_06_1149,mf_amp_cond1,3.0.4,60.11803812455499,
lies,gazily,&&&&&&,right,fairness.vice,,,,,,,0,265,265,265,,,,,,,,,,,,,,,,,,,,,AMP,left,0.8504784159595147,,,left,0,0.8504784159595147,0,,,,,,,,,,,,,,,,,,,,,,1009,2019_Mar_06_1149,mf_amp_cond1,3.0.4,60.11803812455499,
lempestuous,festate,&&&&&&&,None,nonword,,,,,,,0,266,266,266,,,,,,,,,,,,,,,,,,,,,AMP,left,2.484208456822671,,,left,0,2.484208456822671,0,,,,,,,,,,,,,,,,,,,,,,1009,2019_Mar_06_1149,mf_amp_cond1,3.0.4,60.11803812455499,
serial,shoirmaster,&&&&&&&&&&&,right,sanctity.vice,,,,,,,0,267,267,267,,,,,,,,,,,,,,,,,,,,,AMP,left,2.6175741613842547,,,left,0,2.6175741613842547,0,,,,,,,,,,,,,,,,,,,,,,1009,2019_Mar_06_1149,mf_amp_cond1,3.0.4,60.11803812455499,
fair,glacenta,&&&&&&&&,left,fairness.virtue,,,,,,,0,268,268,268,,,,,,,,,,,,,,,,,,,,,AMP,right,3.134333633352071,,,right,0,3.134333633352071,0,,,,,,,,,,,,,,,,,,,,,,1009,2019_Mar_06_1149,mf_amp_cond1,3.0.4,60.11803812455499,
fraud,neutralust,&&&&&&&&&&,right,fairness.vice,,,,,,,0,269,269,269,,,,,,,,,,,,,,,,,,,,,AMP,left,0.9338338254019618,,,left,0,0.9338338254019618,0,,,,,,,,,,,,,,,,,,,,,,1009,2019_Mar_06_1149,mf_amp_cond1,3.0.4,60.11803812455499,
fear,emports,&&&&&&&,right,sanctity.vice,,,,,,,0,270,270,270,,,,,,,,,,,,,,,,,,,,,AMP,right,0.6504353113705292,,,right,1,0.6504353113705292,1,,,,,,,,,,,,,,,,,,,,,,1009,2019_Mar_06_1149,mf_amp_cond1,3.0.4,60.11803812455499,
interests,fegard,&&&&&&,left,fairness.virtue,,,,,,,0,271,271,271,,,,,,,,,,,,,,,,,,,,,AMP,right,1.9507607124978676,,,right,0,1.9507607124978676,0,,,,,,,,,,,,,,,,,,,,,,1009,2019_Mar_06_1149,mf_amp_cond1,3.0.4,60.11803812455499,
rejected,pescinded,&&&&&&&&&,right,authority.vice,,,,,,,0,272,272,272,,,,,,,,,,,,,,,,,,,,,AMP,left,1.0338534534676,,,left,0,1.0338534534676,0,,,,,,,,,,,,,,,,,,,,,,1009,2019_Mar_06_1149,mf_amp_cond1,3.0.4,60.11803812455499,
actively,smapper,&&&&&&&,left,authority.virtue,,,,,,,0,273,273,273,,,,,,,,,,,,,,,,,,,,,AMP,right,3.8345399836543947,,,right,0,3.8345399836543947,0,,,,,,,,,,,,,,,,,,,,,,1009,2019_Mar_06_1149,mf_amp_cond1,3.0.4,60.11803812455499,
betrayal,nackers,&&&&&&&,right,loyalty.vice,,,,,,,0,274,274,274,,,,,,,,,,,,,,,,,,,,,AMP,left,0.9838402719469741,,,left,0,0.9838402719469741,0,,,,,,,,,,,,,,,,,,,,,,1009,2019_Mar_06_1149,mf_amp_cond1,3.0.4,60.11803812455499,
improve,ilportation,&&&&&&&&&&&,left,care.virtue,,,,,,,0,275,275,275,,,,,,,,,,,,,,,,,,,,,AMP,left,3.234391747508198,,,left,1,3.234391747508198,1,,,,,,,,,,,,,,,,,,,,,,1009,2019_Mar_06_1149,mf_amp_cond1,3.0.4,60.11803812455499,
baklara,lachelor,&&&&&&&&,None,nonword,,,,,,,0,276,276,276,,,,,,,,,,,,,,,,,,,,,AMP,left,0.8504909239709377,,,left,0,0.8504909239709377,0,,,,,,,,,,,,,,,,,,,,,,1009,2019_Mar_06_1149,mf_amp_cond1,3.0.4,60.11803812455499,
progress,coom,&&&&,left,authority.virtue,,,,,,,0,277,277,277,,,,,,,,,,,,,,,,,,,,,AMP,right,0.4337081037228927,,,right,0,0.4337081037228927,0,,,,,,,,,,,,,,,,,,,,,,1009,2019_Mar_06_1149,mf_amp_cond1,3.0.4,60.11803812455499,
death,refuejing,&&&&&&&&&,right,care.vice,,,,,,,0,278,278,278,,,,,,,,,,,,,,,,,,,,,AMP,left,0.4837228888645768,,,left,0,0.4837228888645768,0,,,,,,,,,,,,,,,,,,,,,,1009,2019_Mar_06_1149,mf_amp_cond1,3.0.4,60.11803812455499,
refused,divility,&&&&&&&&,right,authority.vice,,,,,,,0,279,279,279,,,,,,,,,,,,,,,,,,,,,AMP,left,0.4337587772170082,,,left,0,0.4337587772170082,0,,,,,,,,,,,,,,,,,,,,,,1009,2019_Mar_06_1149,mf_amp_cond1,3.0.4,60.11803812455499,
illegal,reprisols,&&&&&&&&&,right,fairness.vice,,,,,,,0,280,280,280,,,,,,,,,,,,,,,,,,,,,AMP,left,0.41703715012408793,,,left,0,0.41703715012408793,0,,,,,,,,,,,,,,,,,,,,,,1009,2019_Mar_06_1149,mf_amp_cond1,3.0.4,60.11803812455499,
increase,ecgagement,&&&&&&&&&&,left,care.virtue,,,,,,,0,281,281,281,,,,,,,,,,,,,,,,,,,,,AMP,right,0.9171910950681195,,,right,0,0.9171910950681195,0,,,,,,,,,,,,,,,,,,,,,,1009,2019_Mar_06_1149,mf_amp_cond1,3.0.4,60.11803812455499,
dignity,prones,&&&&&&,left,sanctity.virtue,,,,,,,0,282,282,282,,,,,,,,,,,,,,,,,,,,,AMP,right,0.6170841032871976,,,right,0,0.6170841032871976,0,,,,,,,,,,,,,,,,,,,,,,1009,2019_Mar_06_1149,mf_amp_cond1,3.0.4,60.11803812455499,
health,mightingale,&&&&&&&&&&&,left,care.virtue,,,,,,,0,283,283,283,,,,,,,,,,,,,,,,,,,,,AMP,left,0.767114988528192,,,left,1,0.767114988528192,1,,,,,,,,,,,,,,,,,,,,,,1009,2019_Mar_06_1149,mf_amp_cond1,3.0.4,60.11803812455499,
critics,sickyay,&&&&&&&,right,loyalty.vice,,,,,,,0,284,284,284,,,,,,,,,,,,,,,,,,,,,AMP,right,1.8507167098578066,,,right,1,1.8507167098578066,1,,,,,,,,,,,,,,,,,,,,,,1009,2019_Mar_06_1149,mf_amp_cond1,3.0.4,60.11803812455499,
war,gaultless,&&&&&&&&&,right,sanctity.vice,,,,,,,0,285,285,285,,,,,,,,,,,,,,,,,,,,,AMP,left,0.5003880695439875,,,left,0,0.5003880695439875,0,,,,,,,,,,,,,,,,,,,,,,1009,2019_Mar_06_1149,mf_amp_cond1,3.0.4,60.11803812455499,
love,saned,&&&&&,left,loyalty.virtue,,,,,,,0,286,286,286,,,,,,,,,,,,,,,,,,,,,AMP,right,4.518046515760943,,,right,0,4.518046515760943,0,,,,,,,,,,,,,,,,,,,,,,1009,2019_Mar_06_1149,mf_amp_cond1,3.0.4,60.11803812455499,
prosecution,ning,&&&&,right,authority.vice,,,,,,,0,287,287,287,,,,,,,,,,,,,,,,,,,,,AMP,right,1.8006842852337286,,,right,1,1.8006842852337286,1,,,,,,,,,,,,,,,,,,,,,,1009,2019_Mar_06_1149,mf_amp_cond1,3.0.4,60.11803812455499,
rebels,Loorish,&&&&&&&,right,authority.vice,,,,,,,0,288,288,288,,,,,,,,,,,,,,,,,,,,,AMP,left,3.967912744032219,,,left,0,3.967912744032219,0,,,,,,,,,,,,,,,,,,,,,,1009,2019_Mar_06_1149,mf_amp_cond1,3.0.4,60.11803812455499,
chreams,antral,&&&&&&,None,nonword,,,,,,,0,289,289,289,,,,,,,,,,,,,,,,,,,,,AMP,left,2.4841561797074974,,,left,0,2.4841561797074974,0,,,,,,,,,,,,,,,,,,,,,,1009,2019_Mar_06_1149,mf_amp_cond1,3.0.4,60.11803812455499,
corruption,lorthwhile,&&&&&&&&&&,right,sanctity.vice,,,,,,,0,290,290,290,,,,,,,,,,,,,,,,,,,,,AMP,left,0.8671548217535019,,,left,0,0.8671548217535019,0,,,,,,,,,,,,,,,,,,,,,,1009,2019_Mar_06_1149,mf_amp_cond1,3.0.4,60.11803812455499,
strength,troubla,&&&&&&&,left,sanctity.virtue,,,,,,,0,291,291,291,,,,,,,,,,,,,,,,,,,,,AMP,right,0.48371904029045254,,,right,0,0.48371904029045254,0,,,,,,,,,,,,,,,,,,,,,,1009,2019_Mar_06_1149,mf_amp_cond1,3.0.4,60.11803812455499,
encourage,ammessment,&&&&&&&&&&,left,authority.virtue,,,,,,,0,292,292,292,,,,,,,,,,,,,,,,,,,,,AMP,right,1.5506385827902704,,,right,0,1.5506385827902704,0,,,,,,,,,,,,,,,,,,,,,,1009,2019_Mar_06_1149,mf_amp_cond1,3.0.4,60.11803812455499,
friends,Boeinf,&&&&&&,left,loyalty.virtue,,,,,,,0,293,293,293,,,,,,,,,,,,,,,,,,,,,AMP,right,0.6170821790583432,,,right,0,0.6170821790583432,0,,,,,,,,,,,,,,,,,,,,,,1009,2019_Mar_06_1149,mf_amp_cond1,3.0.4,60.11803812455499,
failure,godlaness,&&&&&&&&&,right,loyalty.vice,,,,,,,0,294,294,294,,,,,,,,,,,,,,,,,,,,,AMP,left,0.9671930514741689,,,left,0,0.9671930514741689,0,,,,,,,,,,,,,,,,,,,,,,1009,2019_Mar_06_1149,mf_amp_cond1,3.0.4,60.11803812455499,
sexual,iptervention,&&&&&&&&&&&&,right,sanctity.vice,,,,,,,0,295,295,295,,,,,,,,,,,,,,,,,,,,,AMP,left,0.6837727285455912,,,left,0,0.6837727285455912,0,,,,,,,,,,,,,,,,,,,,,,1009,2019_Mar_06_1149,mf_amp_cond1,3.0.4,60.11803812455499,
freedom,gowlands,&&&&&&&&,left,sanctity.virtue,,,,,,,0,296,296,296,,,,,,,,,,,,,,,,,,,,,AMP,right,0.6670950398547575,,,right,0,0.6670950398547575,0,,,,,,,,,,,,,,,,,,,,,,1009,2019_Mar_06_1149,mf_amp_cond1,3.0.4,60.11803812455499,
gondensed,ronviolence,&&&&&&&&&&&,None,nonword,,,,,,,0,297,297,297,,,,,,,,,,,,,,,,,,,,,AMP,left,1.9007209113333374,,,left,0,1.9007209113333374,0,,,,,,,,,,,,,,,,,,,,,,1009,2019_Mar_06_1149,mf_amp_cond1,3.0.4,60.11803812455499,
emassion,neputized,&&&&&&&&&,None,nonword,,,,,,,0,298,298,298,,,,,,,,,,,,,,,,,,,,,AMP,left,2.300835664384067,,,left,0,2.300835664384067,0,,,,,,,,,,,,,,,,,,,,,,1009,2019_Mar_06_1149,mf_amp_cond1,3.0.4,60.11803812455499,
civilians,nuckheap,&&&&&&&&,right,care.vice,,,,,,,0,299,299,299,,,,,,,,,,,,,,,,,,,,,AMP,right,1.8007112256018445,,,right,1,1.8007112256018445,1,,,,,,,,,,,,,,,,,,,,,,1009,2019_Mar_06_1149,mf_amp_cond1,3.0.4,60.11803812455499,
intelligence,halaise,&&&&&&&,left,loyalty.virtue,,,,,,,0,300,300,300,,,,,,,,,,,,,,,,,,,,,AMP,right,0.8504752087173983,,,right,0,0.8504752087173983,0,,,,,,,,,,,,,,,,,,,,,,1009,2019_Mar_06_1149,mf_amp_cond1,3.0.4,60.11803812455499,
drug,clamorek,&&&&&&&&,right,sanctity.vice,,,,,,,0,301,301,301,,,,,,,,,,,,,,,,,,,,,AMP,left,0.5170577402459458,,,left,0,0.5170577402459458,0,,,,,,,,,,,,,,,,,,,,,,1009,2019_Mar_06_1149,mf_amp_cond1,3.0.4,60.11803812455499,
officers,thadowed,&&&&&&&&,right,authority.vice,,,,,,,0,302,302,302,,,,,,,,,,,,,,,,,,,,,AMP,left,1.7340213174466044,,,left,0,1.7340213174466044,0,,,,,,,,,,,,,,,,,,,,,,1009,2019_Mar_06_1149,mf_amp_cond1,3.0.4,60.11803812455499,
safe,imebreaker,&&&&&&&&&&,left,care.virtue,,,,,,,0,303,303,303,,,,,,,,,,,,,,,,,,,,,AMP,right,2.450870077474974,,,right,0,2.450870077474974,0,,,,,,,,,,,,,,,,,,,,,,1009,2019_Mar_06_1149,mf_amp_cond1,3.0.4,60.11803812455499,
suicide,Lacedonia,&&&&&&&&&,right,care.vice,,,,,,,0,304,304,304,,,,,,,,,,,,,,,,,,,,,AMP,left,0.550396440201439,,,left,0,0.550396440201439,0,,,,,,,,,,,,,,,,,,,,,,1009,2019_Mar_06_1149,mf_amp_cond1,3.0.4,60.11803812455499,
useful,epigrach,&&&&&&&&,left,authority.virtue,,,,,,,0,305,305,305,,,,,,,,,,,,,,,,,,,,,AMP,right,5.368242057855241,,,right,0,5.368242057855241,0,,,,,,,,,,,,,,,,,,,,,,1009,2019_Mar_06_1149,mf_amp_cond1,3.0.4,60.11803812455499,
black,reviked,&&&&&&&,right,loyalty.vice,,,,,,,0,306,306,306,,,,,,,,,,,,,,,,,,,,,AMP,left,1.0171815376961604,,,left,0,1.0171815376961604,0,,,,,,,,,,,,,,,,,,,,,,1009,2019_Mar_06_1149,mf_amp_cond1,3.0.4,60.11803812455499,
groups,idexpressible,&&&&&&&&&&&&&,right,loyalty.vice,,,,,,,0,307,307,307,,,,,,,,,,,,,,,,,,,,,AMP,left,0.8504662286723033,,,left,0,0.8504662286723033,0,,,,,,,,,,,,,,,,,,,,,,1009,2019_Mar_06_1149,mf_amp_cond1,3.0.4,60.11803812455499,
faspberry,dramens,&&&&&&&,None,nonword,,,,,,,0,308,308,308,,,,,,,,,,,,,,,,,,,,,AMP,left,1.5006423994200304,,,left,0,1.5006423994200304,0,,,,,,,,,,,,,,,,,,,,,,1009,2019_Mar_06_1149,mf_amp_cond1,3.0.4,60.11803812455499,
supervuned,alar,&&&&,None,nonword,,,,,,,0,309,309,309,,,,,,,,,,,,,,,,,,,,,AMP,right,0.7337641011690721,,,right,0,0.7337641011690721,0,,,,,,,,,,,,,,,,,,,,,,1009,2019_Mar_06_1149,mf_amp_cond1,3.0.4,60.11803812455499,
prison,sonvoy,&&&&&&,right,fairness.vice,,,,,,,0,310,310,310,,,,,,,,,,,,,,,,,,,,,AMP,left,0.6004259785404429,,,left,0,0.6004259785404429,0,,,,,,,,,,,,,,,,,,,,,,1009,2019_Mar_06_1149,mf_amp_cond1,3.0.4,60.11803812455499,
respect,precificity,&&&&&&&&&&&,left,sanctity.virtue,,,,,,,0,311,311,311,,,,,,,,,,,,,,,,,,,,,AMP,right,0.967166111106053,,,right,0,0.967166111106053,0,,,,,,,,,,,,,,,,,,,,,,1009,2019_Mar_06_1149,mf_amp_cond1,3.0.4,60.11803812455499,
compassion,fostet,&&&&&&,left,care.virtue,,,,,,,0,312,312,312,,,,,,,,,,,,,,,,,,,,,AMP,right,6.351822868455201,,,right,0,6.351822868455201,0,,,,,,,,,,,,,,,,,,,,,,1009,2019_Mar_06_1149,mf_amp_cond1,3.0.4,60.11803812455499,
unpleasant,dumid,&&&&&,None,control,,,,,,,0,313,313,313,,,,,,,,,,,,,,,,,,,,,AMP,left,2.7009507382754236,,,left,0,2.7009507382754236,0,,,,,,,,,,,,,,,,,,,,,,1009,2019_Mar_06_1149,mf_amp_cond1,3.0.4,60.11803812455499,
trust,laming,&&&&&&,left,authority.virtue,,,,,,,0,314,314,314,,,,,,,,,,,,,,,,,,,,,AMP,left,2.3675114607904106,,,left,1,2.3675114607904106,1,,,,,,,,,,,,,,,,,,,,,,1009,2019_Mar_06_1149,mf_amp_cond1,3.0.4,60.11803812455499,
wump,gikely,&&&&&&,None,nonword,,,,,,,0,315,315,315,,,,,,,,,,,,,,,,,,,,,AMP,left,1.5673098571132869,,,left,0,1.5673098571132869,0,,,,,,,,,,,,,,,,,,,,,,1009,2019_Mar_06_1149,mf_amp_cond1,3.0.4,60.11803812455499,
sharing,baladroit,&&&&&&&&&,left,loyalty.virtue,,,,,,,0,316,316,316,,,,,,,,,,,,,,,,,,,,,AMP,left,1.7007053885608912,,,left,1,1.7007053885608912,1,,,,,,,,,,,,,,,,,,,,,,1009,2019_Mar_06_1149,mf_amp_cond1,3.0.4,60.11803812455499,
perfect,Daptist,&&&&&&&,left,sanctity.virtue,,,,,,,0,317,317,317,,,,,,,,,,,,,,,,,,,,,AMP,right,0.9838373853126541,,,right,0,0.9838373853126541,0,,,,,,,,,,,,,,,,,,,,,,1009,2019_Mar_06_1149,mf_amp_cond1,3.0.4,60.11803812455499,
perified,blunderints,&&&&&&&&&&&,None,nonword,,,,,,,0,318,318,318,,,,,,,,,,,,,,,,,,,,,AMP,right,1.3005553563125432,,,right,0,1.3005553563125432,0,,,,,,,,,,,,,,,,,,,,,,1009,2019_Mar_06_1149,mf_amp_cond1,3.0.4,60.11803812455499,
riot,gournful,&&&&&&&&,right,authority.vice,,,,,,,0,319,319,319,,,,,,,,,,,,,,,,,,,,,AMP,left,2.434188540210016,,,left,0,2.434188540210016,0,,,,,,,,,,,,,,,,,,,,,,1009,2019_Mar_06_1149,mf_amp_cond1,3.0.4,60.11803812455499,
support,neneficence,&&&&&&&&&&&,left,loyalty.virtue,,,,,,,0,320,320,320,,,,,,,,,,,,,,,,,,,,,AMP,left,1.2339065002743155,,,left,1,1.2339065002743155,1,,,,,,,,,,,,,,,,,,,,,,1009,2019_Mar_06_1149,mf_amp_cond1,3.0.4,60.11803812455499,
free,chressing,&&&&&&&&&,left,fairness.virtue,,,,,,,0,321,321,321,,,,,,,,,,,,,,,,,,,,,AMP,right,0.5503996475599706,,,right,0,0.5503996475599706,0,,,,,,,,,,,,,,,,,,,,,,1009,2019_Mar_06_1149,mf_amp_cond1,3.0.4,60.11803812455499,
honored,synchronazers,&&&&&&&&&&&&&,left,authority.virtue,,,,,,,0,322,322,322,,,,,,,,,,,,,,,,,,,,,AMP,right,0.5004271971993148,,,right,0,0.5004271971993148,0,,,,,,,,,,,,,,,,,,,,,,1009,2019_Mar_06_1149,mf_amp_cond1,3.0.4,60.11803812455499,
arrests,nonobservalt,&&&&&&&&&&&&,right,authority.vice,,,,,,,0,323,323,323,,,,,,,,,,,,,,,,,,,,,AMP,left,0.7171107870526612,,,left,0,0.7171107870526612,0,,,,,,,,,,,,,,,,,,,,,,1009,2019_Mar_06_1149,mf_amp_cond1,3.0.4,60.11803812455499,
promises,presentkess,&&&&&&&&&&&,left,fairness.virtue,,,,,,,0,324,324,324,,,,,,,,,,,,,,,,,,,,,AMP,right,0.4837174366693944,,,right,0,0.4837174366693944,0,,,,,,,,,,,,,,,,,,,,,,1009,2019_Mar_06_1149,mf_amp_cond1,3.0.4,60.11803812455499,
praised,edancipation,&&&&&&&&&&&&,left,loyalty.virtue,,,,,,,0,325,325,325,,,,,,,,,,,,,,,,,,,,,AMP,right,1.0838586168829352,,,right,0,1.0838586168829352,0,,,,,,,,,,,,,,,,,,,,,,1009,2019_Mar_06_1149,mf_amp_cond1,3.0.4,60.11803812455499,
army,ugeasily,&&&&&&&&,right,loyalty.vice,,,,,,,0,326,326,326,,,,,,,,,,,,,,,,,,,,,AMP,left,0.4337363268714398,,,left,0,0.4337363268714398,0,,,,,,,,,,,,,,,,,,,,,,1009,2019_Mar_06_1149,mf_amp_cond1,3.0.4,60.11803812455499,
violations,quarterbocks,&&&&&&&&&&&&,right,sanctity.vice,,,,,,,0,327,327,327,,,,,,,,,,,,,,,,,,,,,AMP,left,1.734087385586463,,,left,0,1.734087385586463,0,,,,,,,,,,,,,,,,,,,,,,1009,2019_Mar_06_1149,mf_amp_cond1,3.0.4,60.11803812455499,
,,,,,,,,,,,,,,,,,,,,,,,,,,,,,,,,,,,,,,,,,,,,4,19.99,,,,,,,,,,,,,,,,,,,,1009,2019_Mar_06_1149,mf_amp_cond1,3.0.4,60.11803812455499,
,,,,,,,,,,,,,,,,,,,,,,,,,,,,,,,,,,,,,,,,,,,,,,4,2.819,,,,,,,,,,,,,,,,,,1009,2019_Mar_06_1149,mf_amp_cond1,3.0.4,60.11803812455499,
,,,,,,,,,,,,,,,,,,,,,,,,,,,,,,,,,,,,,,,,,,,,,,,,4,9.104,,,,,,,,,,,,,,,,1009,2019_Mar_06_1149,mf_amp_cond1,3.0.4,60.11803812455499,
,,,,,,,,,,,,,,,,,,,,,,,,,,,,,,,,,,,,,,,,,,,,,,,,,,right,2.2508635348640382,,,,,,,,,,,,,,1009,2019_Mar_06_1149,mf_amp_cond1,3.0.4,60.11803812455499,
keyboard,,&&&&&&&,,,,,,,,,,,,,0,0,0,0,,,,,,,,,,,,,,,,,LDT_prac,left,4.267983173835091,,,,,,0,,,,,,,,,left,4.267983173835091,,,,,,,,,,,,1009,2019_Mar_06_1149,mf_amp_cond1,3.0.4,60.11803812455499,
bisebell,,&&&&&&&,,,,,,,,,,,,,0,1,1,1,,,,,,,,,,,,,,,,,LDT_prac,right,1.8840768979862332,,,,,,0,,,,,,,,,right,1.8840768979862332,,,,,,,,,,,,1009,2019_Mar_06_1149,mf_amp_cond1,3.0.4,60.11803812455499,
,,,,,,,,,,,,,,,,,,,,,,,,,,,,,,,,,,,,,,,,,,,,,,,,,,,,,,right,2.517560947686434,,,,,,,,,,1009,2019_Mar_06_1149,mf_amp_cond1,3.0.4,60.11803812455499,
mostly,,&&&&&&,left,neutral,,,,,,,,,,,,,,,0,0,0,130,,,,,,,,,,,,,LDT,left,1.7340290148276836,,,,,,1,,,,,,,,,,,,,left,1,1.7340290148276836,,,,,,,1009,2019_Mar_06_1149,mf_amp_cond1,3.0.4,60.11803812455499,
fontacts,,&&&&&&&&,right,nonword,,,,,,,,,,,,,,,0,1,1,197,,,,,,,,,,,,,LDT,left,1.5173037314089015,,,,,,0,,,,,,,,,,,,,left,0,1.5173037314089015,,,,,,,1009,2019_Mar_06_1149,mf_amp_cond1,3.0.4,60.11803812455499,
commitment,,&&&&&&&&&&,left,sanctity.virtue,,,,,,,,,,,,,,,0,2,2,135,,,,,,,,,,,,,LDT,left,1.0004336115671322,,,,,,1,,,,,,,,,,,,,left,1,1.0004336115671322,,,,,,,1009,2019_Mar_06_1149,mf_amp_cond1,3.0.4,60.11803812455499,
least,,&&&&&,left,neutral,,,,,,,,,,,,,,,0,3,3,110,,,,,,,,,,,,,LDT,right,0.9671773362206295,,,,,,0,,,,,,,,,,,,,right,0,0.9671773362206295,,,,,,,1009,2019_Mar_06_1149,mf_amp_cond1,3.0.4,60.11803812455499,
elduringly,,&&&&&&&&&&,right,nonword,,,,,,,,,,,,,,,0,4,4,47,,,,,,,,,,,,,LDT,left,1.6340077832574025,,,,,,0,,,,,,,,,,,,,left,0,1.6340077832574025,,,,,,,1009,2019_Mar_06_1149,mf_amp_cond1,3.0.4,60.11803812455499,
credit,,&&&&&&,left,fairness.virtue,,,,,,,,,,,,,,,0,5,5,8,,,,,,,,,,,,,LDT,right,1.1338791749440134,,,,,,0,,,,,,,,,,,,,right,0,1.1338791749440134,,,,,,,1009,2019_Mar_06_1149,mf_amp_cond1,3.0.4,60.11803812455499,
thabbily,,&&&&&&&&,right,nonword,,,,,,,,,,,,,,,0,6,6,73,,,,,,,,,,,,,LDT,left,1.1505616744980216,,,,,,0,,,,,,,,,,,,,left,0,1.1505616744980216,,,,,,,1009,2019_Mar_06_1149,mf_amp_cond1,3.0.4,60.11803812455499,
embrace,,&&&&&&&,left,authority.virtue,,,,,,,,,,,,,,,0,7,7,193,,,,,,,,,,,,,LDT,left,2.5008797311456874,,,,,,1,,,,,,,,,,,,,left,1,2.5008797311456874,,,,,,,1009,2019_Mar_06_1149,mf_amp_cond1,3.0.4,60.11803812455499,
sliptery,,&&&&&&&&,right,nonword,,,,,,,,,,,,,,,0,8,8,126,,,,,,,,,,,,,LDT,right,0.8338048965670168,,,,,,1,,,,,,,,,,,,,right,1,0.8338048965670168,,,,,,,1009,2019_Mar_06_1149,mf_amp_cond1,3.0.4,60.11803812455499,
front,,&&&&&,left,neutral,,,,,,,,,,,,,,,0,9,9,11,,,,,,,,,,,,,LDT,left,2.317506617982872,,,,,,1,,,,,,,,,,,,,left,1,2.317506617982872,,,,,,,1009,2019_Mar_06_1149,mf_amp_cond1,3.0.4,60.11803812455499,
hereby,,&&&&&&,left,neutral,,,,,,,,,,,,,,,0,10,10,104,,,,,,,,,,,,,LDT,left,1.0672479585045949,,,,,,1,,,,,,,,,,,,,left,1,1.0672479585045949,,,,,,,1009,2019_Mar_06_1149,mf_amp_cond1,3.0.4,60.11803812455499,
rorroborated,,&&&&&&&&&&&&,right,nonword,,,,,,,,,,,,,,,0,11,11,49,,,,,,,,,,,,,LDT,left,1.4006663891486824,,,,,,0,,,,,,,,,,,,,left,0,1.4006663891486824,,,,,,,1009,2019_Mar_06_1149,mf_amp_cond1,3.0.4,60.11803812455499,
whereafter,,&&&&&&&&&&,left,neutral,,,,,,,,,,,,,,,0,12,12,83,,,,,,,,,,,,,LDT,right,1.4006198849529028,,,,,,0,,,,,,,,,,,,,right,0,1.4006198849529028,,,,,,,1009,2019_Mar_06_1149,mf_amp_cond1,3.0.4,60.11803812455499,
dormandi,,&&&&&&&&,None,nonword,,,,,,,,,,,,,,,0,13,13,55,,,,,,,,,,,,,LDT,left,1.3172660790150985,,,,,,0,,,,,,,,,,,,,left,0,1.3172660790150985,,,,,,,1009,2019_Mar_06_1149,mf_amp_cond1,3.0.4,60.11803812455499,
elsewhere,,&&&&&&&&&,left,neutral,,,,,,,,,,,,,,,0,14,14,51,,,,,,,,,,,,,LDT,left,1.0672550143208355,,,,,,1,,,,,,,,,,,,,left,1,1.0672550143208355,,,,,,,1009,2019_Mar_06_1149,mf_amp_cond1,3.0.4,60.11803812455499,
party,,&&&&&,left,loyalty.virtue,,,,,,,,,,,,,,,0,15,15,184,,,,,,,,,,,,,LDT,right,0.8504825852578506,,,,,,0,,,,,,,,,,,,,right,0,0.8504825852578506,,,,,,,1009,2019_Mar_06_1149,mf_amp_cond1,3.0.4,60.11803812455499,
racist,,&&&&&&,left,sanctity.vice,,,,,,,,,,,,,,,0,16,16,7,,,,,,,,,,,,,LDT,right,1.0338531327433884,,,,,,0,,,,,,,,,,,,,right,0,1.0338531327433884,,,,,,,1009,2019_Mar_06_1149,mf_amp_cond1,3.0.4,60.11803812455499,
values,,&&&&&&,left,sanctity.virtue,,,,,,,,,,,,,,,0,17,17,127,,,,,,,,,,,,,LDT,left,1.8173808963038027,,,,,,1,,,,,,,,,,,,,left,1,1.8173808963038027,,,,,,,1009,2019_Mar_06_1149,mf_amp_cond1,3.0.4,60.11803812455499,
wherever,,&&&&&&&&,left,neutral,,,,,,,,,,,,,,,0,18,18,80,,,,,,,,,,,,,LDT,right,2.0672726538032293,,,,,,0,,,,,,,,,,,,,right,0,2.0672726538032293,,,,,,,1009,2019_Mar_06_1149,mf_amp_cond1,3.0.4,60.11803812455499,
agreement,,&&&&&&&&&,left,fairness.virtue,,,,,,,,,,,,,,,0,19,19,187,,,,,,,,,,,,,LDT,right,1.0338528119027615,,,,,,0,,,,,,,,,,,,,right,0,1.0338528119027615,,,,,,,1009,2019_Mar_06_1149,mf_amp_cond1,3.0.4,60.11803812455499,
fifteen,,&&&&&&&,left,neutral,,,,,,,,,,,,,,,0,20,20,176,,,,,,,,,,,,,LDT,right,0.7837878664722666,,,,,,0,,,,,,,,,,,,,right,0,0.7837878664722666,,,,,,,1009,2019_Mar_06_1149,mf_amp_cond1,3.0.4,60.11803812455499,
abointment,,&&&&&&&&&&,right,nonword,,,,,,,,,,,,,,,0,21,21,141,,,,,,,,,,,,,LDT,left,1.133892324520275,,,,,,0,,,,,,,,,,,,,left,0,1.133892324520275,,,,,,,1009,2019_Mar_06_1149,mf_amp_cond1,3.0.4,60.11803812455499,
each,,&&&&,left,neutral,,,,,,,,,,,,,,,0,22,22,101,,,,,,,,,,,,,LDT,right,0.8504758502822369,,,,,,0,,,,,,,,,,,,,right,0,0.8504758502822369,,,,,,,1009,2019_Mar_06_1149,mf_amp_cond1,3.0.4,60.11803812455499,
chadows,,&&&&&&&,right,nonword,,,,,,,,,,,,,,,0,23,23,161,,,,,,,,,,,,,LDT,left,1.6339997651521116,,,,,,0,,,,,,,,,,,,,left,0,1.6339997651521116,,,,,,,1009,2019_Mar_06_1149,mf_amp_cond1,3.0.4,60.11803812455499,
pulge,,&&&&&,right,nonword,,,,,,,,,,,,,,,0,24,24,133,,,,,,,,,,,,,LDT,right,3.4511609693290666,,,,,,1,,,,,,,,,,,,,right,1,3.4511609693290666,,,,,,,1009,2019_Mar_06_1149,mf_amp_cond1,3.0.4,60.11803812455499,
brotesque,,&&&&&&&&&,right,nonword,,,,,,,,,,,,,,,0,25,25,42,,,,,,,,,,,,,LDT,left,1.1839003744535148,,,,,,0,,,,,,,,,,,,,left,0,1.1839003744535148,,,,,,,1009,2019_Mar_06_1149,mf_amp_cond1,3.0.4,60.11803812455499,
metibolic,,&&&&&&&&&,right,nonword,,,,,,,,,,,,,,,0,26,26,32,,,,,,,,,,,,,LDT,left,3.2844129470176995,,,,,,0,,,,,,,,,,,,,left,0,3.2844129470176995,,,,,,,1009,2019_Mar_06_1149,mf_amp_cond1,3.0.4,60.11803812455499,
bluently,,&&&&&&&&,None,nonword,,,,,,,,,,,,,,,0,27,27,123,,,,,,,,,,,,,LDT,right,0.7505024056881666,,,,,,0,,,,,,,,,,,,,right,0,0.7505024056881666,,,,,,,1009,2019_Mar_06_1149,mf_amp_cond1,3.0.4,60.11803812455499,
simplustic,,&&&&&&&&&&,right,nonword,,,,,,,,,,,,,,,0,28,28,21,,,,,,,,,,,,,LDT,left,3.2010424637701362,,,,,,0,,,,,,,,,,,,,left,0,3.2010424637701362,,,,,,,1009,2019_Mar_06_1149,mf_amp_cond1,3.0.4,60.11803812455499,
anything,,&&&&&&&&,left,neutral,,,,,,,,,,,,,,,0,29,29,113,,,,,,,,,,,,,LDT,left,5.001488455105573,,,,,,1,,,,,,,,,,,,,left,1,5.001488455105573,,,,,,,1009,2019_Mar_06_1149,mf_amp_cond1,3.0.4,60.11803812455499,
proached,,&&&&&&&&,right,nonword,,,,,,,,,,,,,,,0,30,30,81,,,,,,,,,,,,,LDT,left,0.9004983325721696,,,,,,0,,,,,,,,,,,,,left,0,0.9004983325721696,,,,,,,1009,2019_Mar_06_1149,mf_amp_cond1,3.0.4,60.11803812455499,
benefit,,&&&&&&&,left,fairness.virtue,,,,,,,,,,,,,,,0,31,31,175,,,,,,,,,,,,,LDT,right,0.617113288724795,,,,,,0,,,,,,,,,,,,,right,0,0.617113288724795,,,,,,,1009,2019_Mar_06_1149,mf_amp_cond1,3.0.4,60.11803812455499,
leact,,&&&&&,right,nonword,,,,,,,,,,,,,,,0,32,32,45,,,,,,,,,,,,,LDT,right,0.9004954460542649,,,,,,1,,,,,,,,,,,,,right,1,0.9004954460542649,,,,,,,1009,2019_Mar_06_1149,mf_amp_cond1,3.0.4,60.11803812455499,
tenuflect,,&&&&&&&&&,right,nonword,,,,,,,,,,,,,,,0,33,33,132,,,,,,,,,,,,,LDT,right,0.867150652455166,,,,,,1,,,,,,,,,,,,,right,1,0.867150652455166,,,,,,,1009,2019_Mar_06_1149,mf_amp_cond1,3.0.4,60.11803812455499,
squets,,&&&&&&,right,nonword,,,,,,,,,,,,,,,0,34,34,13,,,,,,,,,,,,,LDT,right,0.9504990060813725,,,,,,1,,,,,,,,,,,,,right,1,0.9504990060813725,,,,,,,1009,2019_Mar_06_1149,mf_amp_cond1,3.0.4,60.11803812455499,
could,,&&&&&,left,neutral,,,,,,,,,,,,,,,0,35,35,103,,,,,,,,,,,,,LDT,left,0.6837749736150727,,,,,,1,,,,,,,,,,,,,left,1,0.6837749736150727,,,,,,,1009,2019_Mar_06_1149,mf_amp_cond1,3.0.4,60.11803812455499,
hatigue,,&&&&&&&,right,nonword,,,,,,,,,,,,,,,0,36,36,119,,,,,,,,,,,,,LDT,left,2.334236263181083,,,,,,0,,,,,,,,,,,,,left,0,2.334236263181083,,,,,,,1009,2019_Mar_06_1149,mf_amp_cond1,3.0.4,60.11803812455499,
gusinesslike,,&&&&&&&&&&&&,right,nonword,,,,,,,,,,,,,,,0,37,37,70,,,,,,,,,,,,,LDT,left,1.1505902184871957,,,,,,0,,,,,,,,,,,,,left,0,1.1505902184871957,,,,,,,1009,2019_Mar_06_1149,mf_amp_cond1,3.0.4,60.11803812455499,
eight,,&&&&&,left,neutral,,,,,,,,,,,,,,,0,38,38,190,,,,,,,,,,,,,LDT,right,1.3670881123980507,,,,,,0,,,,,,,,,,,,,right,0,1.3670881123980507,,,,,,,1009,2019_Mar_06_1149,mf_amp_cond1,3.0.4,60.11803812455499,
infet,,&&&&&,right,nonword,,,,,,,,,,,,,,,0,39,39,166,,,,,,,,,,,,,LDT,right,0.867352063767612,,,,,,1,,,,,,,,,,,,,right,1,0.867352063767612,,,,,,,1009,2019_Mar_06_1149,mf_amp_cond1,3.0.4,60.11803812455499,
latter,,&&&&&&,left,neutral,,,,,,,,,,,,,,,0,40,40,100,,,,,,,,,,,,,LDT,left,1.3672888821456581,,,,,,1,,,,,,,,,,,,,left,1,1.3672888821456581,,,,,,,1009,2019_Mar_06_1149,mf_amp_cond1,3.0.4,60.11803812455499,
totalestic,,&&&&&&&&&&,None,nonword,,,,,,,,,,,,,,,0,41,41,60,,,,,,,,,,,,,LDT,right,0.6670992091530934,,,,,,0,,,,,,,,,,,,,right,0,0.6670992091530934,,,,,,,1009,2019_Mar_06_1149,mf_amp_cond1,3.0.4,60.11803812455499,
ittutable,,&&&&&&&&&,right,nonword,,,,,,,,,,,,,,,0,42,42,36,,,,,,,,,,,,,LDT,right,1.283914229599759,,,,,,1,,,,,,,,,,,,,right,1,1.283914229599759,,,,,,,1009,2019_Mar_06_1149,mf_amp_cond1,3.0.4,60.11803812455499,
tabin,,&&&&&,right,nonword,,,,,,,,,,,,,,,0,43,43,112,,,,,,,,,,,,,LDT,left,0.9505095897475258,,,,,,0,,,,,,,,,,,,,left,0,0.9505095897475258,,,,,,,1009,2019_Mar_06_1149,mf_amp_cond1,3.0.4,60.11803812455499,
scandal,,&&&&&&&,left,sanctity.vice,,,,,,,,,,,,,,,0,44,44,25,,,,,,,,,,,,,LDT,left,1.6506976591190323,,,,,,1,,,,,,,,,,,,,left,1,1.6506976591190323,,,,,,,1009,2019_Mar_06_1149,mf_amp_cond1,3.0.4,60.11803812455499,
injured,,&&&&&&&,left,care.vice,,,,,,,,,,,,,,,0,45,45,111,,,,,,,,,,,,,LDT,right,0.8671561046503484,,,,,,0,,,,,,,,,,,,,right,0,0.8671561046503484,,,,,,,1009,2019_Mar_06_1149,mf_amp_cond1,3.0.4,60.11803812455499,
loyalty,,&&&&&&&,left,loyalty.virtue,,,,,,,,,,,,,,,0,46,46,131,,,,,,,,,,,,,LDT,right,2.9343052817275748,,,,,,0,,,,,,,,,,,,,right,0,2.9343052817275748,,,,,,,1009,2019_Mar_06_1149,mf_amp_cond1,3.0.4,60.11803812455499,
peace,,&&&&&,left,care.virtue,,,,,,,,,,,,,,,0,47,47,177,,,,,,,,,,,,,LDT,right,0.883842452778481,,,,,,0,,,,,,,,,,,,,right,0,0.883842452778481,,,,,,,1009,2019_Mar_06_1149,mf_amp_cond1,3.0.4,60.11803812455499,
touls,,&&&&&,right,nonword,,,,,,,,,,,,,,,0,48,48,90,,,,,,,,,,,,,LDT,right,0.9171673619421199,,,,,,1,,,,,,,,,,,,,right,1,0.9171673619421199,,,,,,,1009,2019_Mar_06_1149,mf_amp_cond1,3.0.4,60.11803812455499,
both,,&&&&,left,neutral,,,,,,,,,,,,,,,0,49,49,69,,,,,,,,,,,,,LDT,left,0.8671602740650997,,,,,,1,,,,,,,,,,,,,left,1,0.8671602740650997,,,,,,,1009,2019_Mar_06_1149,mf_amp_cond1,3.0.4,60.11803812455499,
egpeditious,,&&&&&&&&&&&,right,nonword,,,,,,,,,,,,,,,0,50,50,30,,,,,,,,,,,,,LDT,right,2.784293318982236,,,,,,1,,,,,,,,,,,,,right,1,2.784293318982236,,,,,,,1009,2019_Mar_06_1149,mf_amp_cond1,3.0.4,60.11803812455499,
less,,&&&&,left,neutral,,,,,,,,,,,,,,,0,51,51,48,,,,,,,,,,,,,LDT,left,0.833650310174562,,,,,,1,,,,,,,,,,,,,left,1,0.833650310174562,,,,,,,1009,2019_Mar_06_1149,mf_amp_cond1,3.0.4,60.11803812455499,
help,,&&&&,left,care.virtue,,,,,,,,,,,,,,,0,52,52,192,,,,,,,,,,,,,LDT,right,1.2172381123527884,,,,,,0,,,,,,,,,,,,,right,0,1.2172381123527884,,,,,,,1009,2019_Mar_06_1149,mf_amp_cond1,3.0.4,60.11803812455499,
carvels,,&&&&&&&,None,nonword,,,,,,,,,,,,,,,0,53,53,95,,,,,,,,,,,,,LDT,left,1.0005583710735664,,,,,,0,,,,,,,,,,,,,left,0,1.0005583710735664,,,,,,,1009,2019_Mar_06_1149,mf_amp_cond1,3.0.4,60.11803812455499,
disregord,,&&&&&&&&&,right,nonword,,,,,,,,,,,,,,,0,54,54,33,,,,,,,,,,,,,LDT,left,0.8337984821991995,,,,,,0,,,,,,,,,,,,,left,0,0.8337984821991995,,,,,,,1009,2019_Mar_06_1149,mf_amp_cond1,3.0.4,60.11803812455499,
abuse,,&&&&&,left,sanctity.vice,,,,,,,,,,,,,,,0,55,55,52,,,,,,,,,,,,,LDT,right,0.800469083013013,,,,,,0,,,,,,,,,,,,,right,0,0.800469083013013,,,,,,,1009,2019_Mar_06_1149,mf_amp_cond1,3.0.4,60.11803812455499,
amount,,&&&&&&,left,neutral,,,,,,,,,,,,,,,0,56,56,109,,,,,,,,,,,,,LDT,right,1.5839981295866892,,,,,,0,,,,,,,,,,,,,right,0,1.5839981295866892,,,,,,,1009,2019_Mar_06_1149,mf_amp_cond1,3.0.4,60.11803812455499,
praise,,&&&&&&,left,authority.virtue,,,,,,,,,,,,,,,0,57,57,183,,,,,,,,,,,,,LDT,right,0.8171419609570876,,,,,,0,,,,,,,,,,,,,right,0,0.8171419609570876,,,,,,,1009,2019_Mar_06_1149,mf_amp_cond1,3.0.4,60.11803812455499,
framo,,&&&&&,right,nonword,,,,,,,,,,,,,,,0,58,58,78,,,,,,,,,,,,,LDT,left,0.8671580288792029,,,,,,0,,,,,,,,,,,,,left,0,0.8671580288792029,,,,,,,1009,2019_Mar_06_1149,mf_amp_cond1,3.0.4,60.11803812455499,
therefore,,&&&&&&&&&,left,neutral,,,,,,,,,,,,,,,0,59,59,85,,,,,,,,,,,,,LDT,left,1.6006966648856178,,,,,,1,,,,,,,,,,,,,left,1,1.6006966648856178,,,,,,,1009,2019_Mar_06_1149,mf_amp_cond1,3.0.4,60.11803812455499,
taxpayung,,&&&&&&&&&,right,nonword,,,,,,,,,,,,,,,0,60,60,163,,,,,,,,,,,,,LDT,left,1.2505771331489086,,,,,,0,,,,,,,,,,,,,left,0,1.2505771331489086,,,,,,,1009,2019_Mar_06_1149,mf_amp_cond1,3.0.4,60.11803812455499,
about,,&&&&&,left,neutral,,,,,,,,,,,,,,,0,61,61,142,,,,,,,,,,,,,LDT,right,0.7170918647898361,,,,,,0,,,,,,,,,,,,,right,0,0.7170918647898361,,,,,,,1009,2019_Mar_06_1149,mf_amp_cond1,3.0.4,60.11803812455499,
restore,,&&&&&&&,left,care.virtue,,,,,,,,,,,,,,,0,62,62,24,,,,,,,,,,,,,LDT,left,1.0005323928780854,,,,,,1,,,,,,,,,,,,,left,1,1.0005323928780854,,,,,,,1009,2019_Mar_06_1149,mf_amp_cond1,3.0.4,60.11803812455499,
pumber,,&&&&&&,None,nonword,,,,,,,,,,,,,,,0,63,63,27,,,,,,,,,,,,,LDT,right,0.7171223330078647,,,,,,0,,,,,,,,,,,,,right,0,0.7171223330078647,,,,,,,1009,2019_Mar_06_1149,mf_amp_cond1,3.0.4,60.11803812455499,
tracious,,&&&&&&&&,right,nonword,,,,,,,,,,,,,,,0,64,64,14,,,,,,,,,,,,,LDT,left,1.1171992413001135,,,,,,0,,,,,,,,,,,,,left,0,1.1171992413001135,,,,,,,1009,2019_Mar_06_1149,mf_amp_cond1,3.0.4,60.11803812455499,
harassment,,&&&&&&&&&&,left,sanctity.vice,,,,,,,,,,,,,,,0,65,65,99,,,,,,,,,,,,,LDT,right,1.0838685592170805,,,,,,0,,,,,,,,,,,,,right,0,1.0838685592170805,,,,,,,1009,2019_Mar_06_1149,mf_amp_cond1,3.0.4,60.11803812455499,
galamitous,,&&&&&&&&&&,right,nonword,,,,,,,,,,,,,,,0,66,66,159,,,,,,,,,,,,,LDT,left,1.0838149992050603,,,,,,0,,,,,,,,,,,,,left,0,1.0838149992050603,,,,,,,1009,2019_Mar_06_1149,mf_amp_cond1,3.0.4,60.11803812455499,
also,,&&&&,left,neutral,,,,,,,,,,,,,,,0,67,67,43,,,,,,,,,,,,,LDT,left,1.2172323394333944,,,,,,1,,,,,,,,,,,,,left,1,1.2172323394333944,,,,,,,1009,2019_Mar_06_1149,mf_amp_cond1,3.0.4,60.11803812455499,
Cunday,,&&&&&&,None,nonword,,,,,,,,,,,,,,,0,68,68,138,,,,,,,,,,,,,LDT,right,1.5839958845172077,,,,,,0,,,,,,,,,,,,,right,0,1.5839958845172077,,,,,,,1009,2019_Mar_06_1149,mf_amp_cond1,3.0.4,60.11803812455499,
hescribe,,&&&&&&&&,right,nonword,,,,,,,,,,,,,,,0,69,69,6,,,,,,,,,,,,,LDT,right,2.117462551337667,,,,,,1,,,,,,,,,,,,,right,1,2.117462551337667,,,,,,,1009,2019_Mar_06_1149,mf_amp_cond1,3.0.4,60.11803812455499,
energy,,&&&&&&,left,sanctity.virtue,,,,,,,,,,,,,,,0,70,70,77,,,,,,,,,,,,,LDT,right,1.5339753264561296,,,,,,0,,,,,,,,,,,,,right,0,1.5339753264561296,,,,,,,1009,2019_Mar_06_1149,mf_amp_cond1,3.0.4,60.11803812455499,
scock,,&&&&&,right,nonword,,,,,,,,,,,,,,,0,71,71,124,,,,,,,,,,,,,LDT,left,1.6840216061100364,,,,,,0,,,,,,,,,,,,,left,0,1.6840216061100364,,,,,,,1009,2019_Mar_06_1149,mf_amp_cond1,3.0.4,60.11803812455499,
terrorists,,&&&&&&&&&&,left,fairness.vice,,,,,,,,,,,,,,,0,72,72,125,,,,,,,,,,,,,LDT,right,1.000493906554766,,,,,,0,,,,,,,,,,,,,right,0,1.000493906554766,,,,,,,1009,2019_Mar_06_1149,mf_amp_cond1,3.0.4,60.11803812455499,
menizen,,&&&&&&&,None,nonword,,,,,,,,,,,,,,,0,73,73,155,,,,,,,,,,,,,LDT,left,2.2007522134808823,,,,,,0,,,,,,,,,,,,,left,0,2.2007522134808823,,,,,,,1009,2019_Mar_06_1149,mf_amp_cond1,3.0.4,60.11803812455499,
faith,,&&&&&,left,sanctity.virtue,,,,,,,,,,,,,,,0,74,74,136,,,,,,,,,,,,,LDT,right,0.8338350441772491,,,,,,0,,,,,,,,,,,,,right,0,0.8338350441772491,,,,,,,1009,2019_Mar_06_1149,mf_amp_cond1,3.0.4,60.11803812455499,
seachwear,,&&&&&&&&&,right,nonword,,,,,,,,,,,,,,,0,75,75,4,,,,,,,,,,,,,LDT,left,1.217225925065577,,,,,,0,,,,,,,,,,,,,left,0,1.217225925065577,,,,,,,1009,2019_Mar_06_1149,mf_amp_cond1,3.0.4,60.11803812455499,
crilfully,,&&&&&&&&&,right,nonword,,,,,,,,,,,,,,,0,76,76,53,,,,,,,,,,,,,LDT,right,0.8503209430491552,,,,,,1,,,,,,,,,,,,,right,1,0.8503209430491552,,,,,,,1009,2019_Mar_06_1149,mf_amp_cond1,3.0.4,60.11803812455499,
great,,&&&&&,left,loyalty.virtue,,,,,,,,,,,,,,,0,77,77,16,,,,,,,,,,,,,LDT,right,0.850478095235303,,,,,,0,,,,,,,,,,,,,right,0,0.850478095235303,,,,,,,1009,2019_Mar_06_1149,mf_amp_cond1,3.0.4,60.11803812455499,
gationwide,,&&&&&&&&&&,right,nonword,,,,,,,,,,,,,,,0,78,78,88,,,,,,,,,,,,,LDT,left,0.8171336222440004,,,,,,0,,,,,,,,,,,,,left,0,0.8171336222440004,,,,,,,1009,2019_Mar_06_1149,mf_amp_cond1,3.0.4,60.11803812455499,
somehow,,&&&&&&&,left,neutral,,,,,,,,,,,,,,,0,79,79,118,,,,,,,,,,,,,LDT,right,0.917010209755972,,,,,,0,,,,,,,,,,,,,right,0,0.917010209755972,,,,,,,1009,2019_Mar_06_1149,mf_amp_cond1,3.0.4,60.11803812455499,
crinking,,&&&&&&&&,right,nonword,,,,,,,,,,,,,,,0,80,80,147,,,,,,,,,,,,,LDT,left,1.9007619632175192,,,,,,0,,,,,,,,,,,,,left,0,1.9007619632175192,,,,,,,1009,2019_Mar_06_1149,mf_amp_cond1,3.0.4,60.11803812455499,
with,,&&&&,left,neutral,,,,,,,,,,,,,,,0,81,81,140,,,,,,,,,,,,,LDT,right,1.0671972850104794,,,,,,0,,,,,,,,,,,,,right,0,1.0671972850104794,,,,,,,1009,2019_Mar_06_1149,mf_amp_cond1,3.0.4,60.11803812455499,
terrorist,,&&&&&&&&&,left,loyalty.vice,,,,,,,,,,,,,,,0,82,82,150,,,,,,,,,,,,,LDT,right,1.0338582642143592,,,,,,0,,,,,,,,,,,,,right,0,1.0338582642143592,,,,,,,1009,2019_Mar_06_1149,mf_amp_cond1,3.0.4,60.11803812455499,
toward,,&&&&&&,left,neutral,,,,,,,,,,,,,,,0,83,83,145,,,,,,,,,,,,,LDT,right,1.200597306364216,,,,,,0,,,,,,,,,,,,,right,0,1.200597306364216,,,,,,,1009,2019_Mar_06_1149,mf_amp_cond1,3.0.4,60.11803812455499,
pafer,,&&&&&,right,nonword,,,,,,,,,,,,,,,0,84,84,134,,,,,,,,,,,,,LDT,left,1.0005131497746333,,,,,,0,,,,,,,,,,,,,left,0,1.0005131497746333,,,,,,,1009,2019_Mar_06_1149,mf_amp_cond1,3.0.4,60.11803812455499,
seem,,&&&&,left,neutral,,,,,,,,,,,,,,,0,85,85,180,,,,,,,,,,,,,LDT,left,1.000509942532517,,,,,,1,,,,,,,,,,,,,left,1,1.000509942532517,,,,,,,1009,2019_Mar_06_1149,mf_amp_cond1,3.0.4,60.11803812455499,
focomotive,,&&&&&&&&&&,right,nonword,,,,,,,,,,,,,,,0,86,86,196,,,,,,,,,,,,,LDT,right,0.6671364125795662,,,,,,1,,,,,,,,,,,,,right,1,0.6671364125795662,,,,,,,1009,2019_Mar_06_1149,mf_amp_cond1,3.0.4,60.11803812455499,
police,,&&&&&&,left,authority.vice,,,,,,,,,,,,,,,0,87,87,64,,,,,,,,,,,,,LDT,right,1.8506775822024792,,,,,,0,,,,,,,,,,,,,right,0,1.8506775822024792,,,,,,,1009,2019_Mar_06_1149,mf_amp_cond1,3.0.4,60.11803812455499,
tomedians,,&&&&&&&&&,right,nonword,,,,,,,,,,,,,,,0,88,88,87,,,,,,,,,,,,,LDT,right,0.9503466647583991,,,,,,1,,,,,,,,,,,,,right,1,0.9503466647583991,,,,,,,1009,2019_Mar_06_1149,mf_amp_cond1,3.0.4,60.11803812455499,
died,,&&&&,left,care.vice,,,,,,,,,,,,,,,0,89,89,67,,,,,,,,,,,,,LDT,left,0.650434669922106,,,,,,1,,,,,,,,,,,,,left,1,0.650434669922106,,,,,,,1009,2019_Mar_06_1149,mf_amp_cond1,3.0.4,60.11803812455499,
allears,,&&&&&&&,right,nonword,,,,,,,,,,,,,,,0,90,90,121,,,,,,,,,,,,,LDT,left,1.5006802441785112,,,,,,0,,,,,,,,,,,,,left,0,1.5006802441785112,,,,,,,1009,2019_Mar_06_1149,mf_amp_cond1,3.0.4,60.11803812455499,
grovelire,,&&&&&&&&&,right,nonword,,,,,,,,,,,,,,,0,91,91,34,,,,,,,,,,,,,LDT,left,1.6840267375810072,,,,,,0,,,,,,,,,,,,,left,0,1.6840267375810072,,,,,,,1009,2019_Mar_06_1149,mf_amp_cond1,3.0.4,60.11803812455499,
threatened,,&&&&&&&&&&,left,fairness.vice,,,,,,,,,,,,,,,0,92,92,122,,,,,,,,,,,,,LDT,right,0.7171114285010844,,,,,,0,,,,,,,,,,,,,right,0,0.7171114285010844,,,,,,,1009,2019_Mar_06_1149,mf_amp_cond1,3.0.4,60.11803812455499,
protesters,,&&&&&&&&&&,left,authority.vice,,,,,,,,,,,,,,,0,93,93,173,,,,,,,,,,,,,LDT,left,0.8171326601877809,,,,,,1,,,,,,,,,,,,,left,1,0.8171326601877809,,,,,,,1009,2019_Mar_06_1149,mf_amp_cond1,3.0.4,60.11803812455499,
suggists,,&&&&&&&&,right,nonword,,,,,,,,,,,,,,,0,94,94,9,,,,,,,,,,,,,LDT,right,0.9838627221761271,,,,,,1,,,,,,,,,,,,,right,1,0.9838627221761271,,,,,,,1009,2019_Mar_06_1149,mf_amp_cond1,3.0.4,60.11803812455499,
stindig,,&&&&&&&,right,nonword,,,,,,,,,,,,,,,0,95,95,195,,,,,,,,,,,,,LDT,right,1.283924171817489,,,,,,1,,,,,,,,,,,,,right,1,1.283924171817489,,,,,,,1009,2019_Mar_06_1149,mf_amp_cond1,3.0.4,60.11803812455499,
win,,&&&,left,fairness.virtue,,,,,,,,,,,,,,,0,96,96,10,,,,,,,,,,,,,LDT,right,1.7673763741040602,,,,,,0,,,,,,,,,,,,,right,0,1.7673763741040602,,,,,,,1009,2019_Mar_06_1149,mf_amp_cond1,3.0.4,60.11803812455499,
scalbel,,&&&&&&&,right,nonword,,,,,,,,,,,,,,,0,97,97,97,,,,,,,,,,,,,LDT,right,0.8838177574798465,,,,,,1,,,,,,,,,,,,,right,1,0.8838177574798465,,,,,,,1009,2019_Mar_06_1149,mf_amp_cond1,3.0.4,60.11803812455499,
fifty,,&&&&&,left,neutral,,,,,,,,,,,,,,,0,98,98,19,,,,,,,,,,,,,LDT,right,1.2339074624469504,,,,,,0,,,,,,,,,,,,,right,0,1.2339074624469504,,,,,,,1009,2019_Mar_06_1149,mf_amp_cond1,3.0.4,60.11803812455499,
asn,,&&&,right,nonword,,,,,,,,,,,,,,,0,99,99,181,,,,,,,,,,,,,LDT,left,0.8504886789014563,,,,,,0,,,,,,,,,,,,,left,0,0.8504886789014563,,,,,,,1009,2019_Mar_06_1149,mf_amp_cond1,3.0.4,60.11803812455499,
strofe,,&&&&&&,right,nonword,,,,,,,,,,,,,,,0,100,100,91,,,,,,,,,,,,,LDT,right,1.1005452858516946,,,,,,1,,,,,,,,,,,,,right,1,1.1005452858516946,,,,,,,1009,2019_Mar_06_1149,mf_amp_cond1,3.0.4,60.11803812455499,
tislay,,&&&&&&,right,nonword,,,,,,,,,,,,,,,0,101,101,178,,,,,,,,,,,,,LDT,right,1.3339367118896917,,,,,,1,,,,,,,,,,,,,right,1,1.3339367118896917,,,,,,,1009,2019_Mar_06_1149,mf_amp_cond1,3.0.4,60.11803812455499,
greaks,,&&&&&&,right,nonword,,,,,,,,,,,,,,,0,102,102,29,,,,,,,,,,,,,LDT,left,1.150569692486897,,,,,,0,,,,,,,,,,,,,left,0,1.150569692486897,,,,,,,1009,2019_Mar_06_1149,mf_amp_cond1,3.0.4,60.11803812455499,
anyhow,,&&&&&&,left,neutral,,,,,,,,,,,,,,,0,103,103,40,,,,,,,,,,,,,LDT,right,0.7338195855263621,,,,,,0,,,,,,,,,,,,,right,0,0.7338195855263621,,,,,,,1009,2019_Mar_06_1149,mf_amp_cond1,3.0.4,60.11803812455499,
oam,,&&&,right,nonword,,,,,,,,,,,,,,,0,104,104,169,,,,,,,,,,,,,LDT,right,0.8671545010292903,,,,,,1,,,,,,,,,,,,,right,1,0.8671545010292903,,,,,,,1009,2019_Mar_06_1149,mf_amp_cond1,3.0.4,60.11803812455499,
counpy's,,&&&&&&&&,right,nonword,,,,,,,,,,,,,,,0,105,105,117,,,,,,,,,,,,,LDT,left,0.7337766092969105,,,,,,0,,,,,,,,,,,,,left,0,0.7337766092969105,,,,,,,1009,2019_Mar_06_1149,mf_amp_cond1,3.0.4,60.11803812455499,
been,,&&&&,left,neutral,,,,,,,,,,,,,,,0,106,106,107,,,,,,,,,,,,,LDT,right,0.7004741503624246,,,,,,0,,,,,,,,,,,,,right,0,0.7004741503624246,,,,,,,1009,2019_Mar_06_1149,mf_amp_cond1,3.0.4,60.11803812455499,
juck,,&&&&,right,nonword,,,,,,,,,,,,,,,0,107,107,76,,,,,,,,,,,,,LDT,right,0.8669918967643753,,,,,,1,,,,,,,,,,,,,right,1,0.8669918967643753,,,,,,,1009,2019_Mar_06_1149,mf_amp_cond1,3.0.4,60.11803812455499,
ban,,&&&,left,loyalty.vice,,,,,,,,,,,,,,,0,108,108,1,,,,,,,,,,,,,LDT,left,1.0338515291223302,,,,,,1,,,,,,,,,,,,,left,1,1.0338515291223302,,,,,,,1009,2019_Mar_06_1149,mf_amp_cond1,3.0.4,60.11803812455499,
hefurbished,,&&&&&&&&&&&,right,nonword,,,,,,,,,,,,,,,0,109,109,68,,,,,,,,,,,,,LDT,left,1.0505311421584338,,,,,,0,,,,,,,,,,,,,left,0,1.0505311421584338,,,,,,,1009,2019_Mar_06_1149,mf_amp_cond1,3.0.4,60.11803812455499,
