words,nonwords,mask,corr_ans,category,tweets,topic,AMP_prac_loop.thisRepN,AMP_prac_loop.thisTrialN,AMP_prac_loop.thisN,AMP_prac_loop.thisIndex,AMP_trials.thisRepN,AMP_trials.thisTrialN,AMP_trials.thisN,AMP_trials.thisIndex,LDT_prac_loop.thisRepN,LDT_prac_loop.thisTrialN,LDT_prac_loop.thisN,LDT_prac_loop.thisIndex,LDT_loop.thisRepN,LDT_loop.thisTrialN,LDT_loop.thisN,LDT_loop.thisIndex,tweet_loop.thisRepN,tweet_loop.thisTrialN,tweet_loop.thisN,tweet_loop.thisIndex,begin_key.keys,begin_key.rt,key_resp_AMP_instr1.keys,key_resp_AMP_instr1.rt,resp_AMP_ready1.keys,resp_AMP_ready1.rt,resp_AMP_prac.keys,resp_AMP_prac.rt,task,keypress,RT,resp_AMP_ready.keys,resp_AMP_ready.rt,resp_AMP.keys,resp_AMP.corr,resp_AMP.rt,corr,AMP_nonword_rating.response,AMP_nonword_rating.rt,AMP_word_rating.response,AMP_word_rating.rt,AMP_random_rating.response,AMP_random_rating.rt,key_resp_LDT_instr.keys,key_resp_LDT_instr.rt,resp_LDT_prac.keys,resp_LDT_prac.rt,resp_LDT_ready.keys,resp_LDT_ready.rt,resp_LDT.keys,resp_LDT.corr,resp_LDT.rt,LDT_rating.response,LDT_rating.rt,key_resp_LDT_instr_2.keys,key_resp_LDT_instr_2.rt,resp_tweets.keys,resp_tweets.rt,participant,date,expName,psychopyVersion,frameRate,
,,,,,,,,,,,,,,,,,,,,,,,,,,,right,966.4790364140645,,,,,,,,,,,,,,,,,,,,,,,,,,,,,,,,,,,,,1011,2019_Mar_06_1150,mf_amp_cond1,3.0.4,59.99007211918218,
,,,,,,,,,,,,,,,,,,,,,,,,,,,,,right,1.6505376240238547,,,,,,,,,,,,,,,,,,,,,,,,,,,,,,,,,,,1011,2019_Mar_06_1150,mf_amp_cond1,3.0.4,59.99007211918218,
,,,,,,,,,,,,,,,,,,,,,,,,,,,,,,,right,2.567616577143781,,,,,,,,,,,,,,,,,,,,,,,,,,,,,,,,,1011,2019_Mar_06_1150,mf_amp_cond1,3.0.4,59.99007211918218,
banana,kacket,&&&&&&,,,,,0,0,0,1,,,,,,,,,,,,,,,,,,,,,,,right,2.550908313016407,AMP_prac,right,2.550908313016407,,,,,,,,,,,,,,,,,,,,,,,,,,,,1011,2019_Mar_06_1150,mf_amp_cond1,3.0.4,59.99007211918218,
scarf,bisebell,&&&&&&&&,,,,,0,1,1,3,,,,,,,,,,,,,,,,,,,,,,,right,1.6506883627735078,AMP_prac,right,1.6506883627735078,,,,,,,,,,,,,,,,,,,,,,,,,,,,1011,2019_Mar_06_1150,mf_amp_cond1,3.0.4,59.99007211918218,
car,cemtuper,&&&&&&&&,,,,,0,2,2,0,,,,,,,,,,,,,,,,,,,,,,,right,1.7340770204318687,AMP_prac,right,1.7340770204318687,,,,,,,,,,,,,,,,,,,,,,,,,,,,1011,2019_Mar_06_1150,mf_amp_cond1,3.0.4,59.99007211918218,
keyboard,senk,&&&&,,,,,0,3,3,2,,,,,,,,,,,,,,,,,,,,,,,right,1.5673282492207363,AMP_prac,right,1.5673282492207363,,,,,,,,,,,,,,,,,,,,,,,,,,,,1011,2019_Mar_06_1150,mf_amp_cond1,3.0.4,59.99007211918218,
,,,,,,,,,,,,,,,,,,,,,,,,,,,,,,,,,,,,,,right,1.8340559169882908,,,,,,,,,,,,,,,,,,,,,,,,,,1011,2019_Mar_06_1150,mf_amp_cond1,3.0.4,59.99007211918218,
halaise,nonobservalt,&&&&&&&&&&&&,None,nonword,,,,,,,0,0,0,0,,,,,,,,,,,,,,,,,,,,,AMP,left,1.0837042467901483,,,left,0,1.0837042467901483,0,,,,,,,,,,,,,,,,,,,,,,1011,2019_Mar_06_1150,mf_amp_cond1,3.0.4,59.99007211918218,
win,ablow,&&&&&,left,fairness.virtue,,,,,,,0,1,1,1,,,,,,,,,,,,,,,,,,,,,AMP,left,1.317322957329452,,,left,1,1.317322957329452,1,,,,,,,,,,,,,,,,,,,,,,1011,2019_Mar_06_1150,mf_amp_cond1,3.0.4,59.99007211918218,
suicide,sidearbs,&&&&&&&&,right,care.vice,,,,,,,0,2,2,2,,,,,,,,,,,,,,,,,,,,,AMP,left,1.3339353259652853,,,left,0,1.3339353259652853,0,,,,,,,,,,,,,,,,,,,,,,1011,2019_Mar_06_1150,mf_amp_cond1,3.0.4,59.99007211918218,
drug,greaks,&&&&&&,right,sanctity.vice,,,,,,,0,3,3,3,,,,,,,,,,,,,,,,,,,,,AMP,left,0.9838587699923664,,,left,0,0.9838587699923664,0,,,,,,,,,,,,,,,,,,,,,,1011,2019_Mar_06_1150,mf_amp_cond1,3.0.4,59.99007211918218,
strength,saned,&&&&&,left,sanctity.virtue,,,,,,,0,4,4,4,,,,,,,,,,,,,,,,,,,,,AMP,right,1.2839657624717802,,,right,0,1.2839657624717802,0,,,,,,,,,,,,,,,,,,,,,,1011,2019_Mar_06_1150,mf_amp_cond1,3.0.4,59.99007211918218,
lies,fornicalion,&&&&&&&&&&&,right,fairness.vice,,,,,,,0,5,5,5,,,,,,,,,,,,,,,,,,,,,AMP,left,1.2170794662088156,,,left,0,1.2170794662088156,0,,,,,,,,,,,,,,,,,,,,,,1011,2019_Mar_06_1150,mf_amp_cond1,3.0.4,59.99007211918218,
prison,divility,&&&&&&&&,right,fairness.vice,,,,,,,0,6,6,6,,,,,,,,,,,,,,,,,,,,,AMP,left,1.1005244423868135,,,left,0,1.1005244423868135,0,,,,,,,,,,,,,,,,,,,,,,1011,2019_Mar_06_1150,mf_amp_cond1,3.0.4,59.99007211918218,
compassion,laming,&&&&&&,left,care.virtue,,,,,,,0,7,7,7,,,,,,,,,,,,,,,,,,,,,AMP,left,1.1672260035993531,,,left,1,1.1672260035993531,1,,,,,,,,,,,,,,,,,,,,,,1011,2019_Mar_06_1150,mf_amp_cond1,3.0.4,59.99007211918218,
health,lursuer,&&&&&&&,left,care.virtue,,,,,,,0,8,8,8,,,,,,,,,,,,,,,,,,,,,AMP,right,2.000774861080572,,,right,0,2.000774861080572,0,,,,,,,,,,,,,,,,,,,,,,1011,2019_Mar_06_1150,mf_amp_cond1,3.0.4,59.99007211918218,
imebreaker,elduringly,&&&&&&&&&&,None,nonword,,,,,,,0,9,9,9,,,,,,,,,,,,,,,,,,,,,AMP,right,0.8504873992642388,,,right,0,0.8504873992642388,0,,,,,,,,,,,,,,,,,,,,,,1011,2019_Mar_06_1150,mf_amp_cond1,3.0.4,59.99007211918218,
quarterbocks,letish,&&&&&&,None,nonword,,,,,,,0,10,10,10,,,,,,,,,,,,,,,,,,,,,AMP,left,2.484251011395827,,,left,0,2.484251011395827,0,,,,,,,,,,,,,,,,,,,,,,1011,2019_Mar_06_1150,mf_amp_cond1,3.0.4,59.99007211918218,
scandal,abointment,&&&&&&&&&&,right,sanctity.vice,,,,,,,0,11,11,11,,,,,,,,,,,,,,,,,,,,,AMP,left,1.3506237054243684,,,left,0,1.3506237054243684,0,,,,,,,,,,,,,,,,,,,,,,1011,2019_Mar_06_1150,mf_amp_cond1,3.0.4,59.99007211918218,
racist,egpeditious,&&&&&&&&&&&,right,sanctity.vice,,,,,,,0,12,12,12,,,,,,,,,,,,,,,,,,,,,AMP,left,1.0838758322643116,,,left,0,1.0838758322643116,0,,,,,,,,,,,,,,,,,,,,,,1011,2019_Mar_06_1150,mf_amp_cond1,3.0.4,59.99007211918218,
hand,ecgagement,&&&&&&&&&&,left,sanctity.virtue,,,,,,,0,13,13,13,,,,,,,,,,,,,,,,,,,,,AMP,right,1.4172848557354882,,,right,0,1.4172848557354882,0,,,,,,,,,,,,,,,,,,,,,,1011,2019_Mar_06_1150,mf_amp_cond1,3.0.4,59.99007211918218,
unscothed,drumbled,&&&&&&&&,None,nonword,,,,,,,0,14,14,14,,,,,,,,,,,,,,,,,,,,,AMP,left,1.0505240896018222,,,left,0,1.0505240896018222,0,,,,,,,,,,,,,,,,,,,,,,1011,2019_Mar_06_1150,mf_amp_cond1,3.0.4,59.99007211918218,
stindig,festate,&&&&&&&,None,nonword,,,,,,,0,15,15,15,,,,,,,,,,,,,,,,,,,,,AMP,left,0.6171057011233643,,,left,0,0.6171057011233643,0,,,,,,,,,,,,,,,,,,,,,,1011,2019_Mar_06_1150,mf_amp_cond1,3.0.4,59.99007211918218,
accused,alar,&&&&,right,fairness.vice,,,,,,,0,16,16,16,,,,,,,,,,,,,,,,,,,,,AMP,left,0.6171040976187214,,,left,0,0.6171040976187214,0,,,,,,,,,,,,,,,,,,,,,,1011,2019_Mar_06_1150,mf_amp_cond1,3.0.4,59.99007211918218,
corruption,Oregoniuns,&&&&&&&&&&,right,sanctity.vice,,,,,,,0,17,17,17,,,,,,,,,,,,,,,,,,,,,AMP,left,0.7171112176729366,,,left,0,0.7171112176729366,0,,,,,,,,,,,,,,,,,,,,,,1011,2019_Mar_06_1150,mf_amp_cond1,3.0.4,59.99007211918218,
men,ejanulated,&&&&&&&&&&,right,loyalty.vice,,,,,,,0,18,18,18,,,,,,,,,,,,,,,,,,,,,AMP,left,0.5670578817371279,,,left,0,0.5670578817371279,0,,,,,,,,,,,,,,,,,,,,,,1011,2019_Mar_06_1150,mf_amp_cond1,3.0.4,59.99007211918218,
hate,godlaness,&&&&&&&&&,right,fairness.vice,,,,,,,0,19,19,19,,,,,,,,,,,,,,,,,,,,,AMP,left,1.2005713317776099,,,left,0,1.2005713317776099,0,,,,,,,,,,,,,,,,,,,,,,1011,2019_Mar_06_1150,mf_amp_cond1,3.0.4,59.99007211918218,
hatigue,vicissifude,&&&&&&&&&&&,None,nonword,,,,,,,0,20,20,20,,,,,,,,,,,,,,,,,,,,,AMP,left,0.7004363083979115,,,left,0,0.7004363083979115,0,,,,,,,,,,,,,,,,,,,,,,1011,2019_Mar_06_1150,mf_amp_cond1,3.0.4,59.99007211918218,
agreement,ugeasily,&&&&&&&&,left,fairness.virtue,,,,,,,0,21,21,21,,,,,,,,,,,,,,,,,,,,,AMP,left,1.1172224435722455,,,left,1,1.1172224435722455,1,,,,,,,,,,,,,,,,,,,,,,1011,2019_Mar_06_1150,mf_amp_cond1,3.0.4,59.99007211918218,
perfect,gondensed,&&&&&&&&&,left,sanctity.virtue,,,,,,,0,22,22,22,,,,,,,,,,,,,,,,,,,,,AMP,right,1.1503791880095378,,,right,0,1.1503791880095378,0,,,,,,,,,,,,,,,,,,,,,,1011,2019_Mar_06_1150,mf_amp_cond1,3.0.4,59.99007211918218,
harassment,synchronazers,&&&&&&&&&&&&&,right,sanctity.vice,,,,,,,0,23,23,23,,,,,,,,,,,,,,,,,,,,,AMP,left,0.4670674392255023,,,left,0,0.4670674392255023,0,,,,,,,,,,,,,,,,,,,,,,1011,2019_Mar_06_1150,mf_amp_cond1,3.0.4,59.99007211918218,
serial,Cunday,&&&&&&,right,sanctity.vice,,,,,,,0,24,24,24,,,,,,,,,,,,,,,,,,,,,AMP,left,1.5506655274657533,,,left,0,1.5506655274657533,0,,,,,,,,,,,,,,,,,,,,,,1011,2019_Mar_06_1150,mf_amp_cond1,3.0.4,59.99007211918218,
embrace,reelectiob,&&&&&&&&&&,left,authority.virtue,,,,,,,0,25,25,25,,,,,,,,,,,,,,,,,,,,,AMP,left,1.4506340326042846,,,left,1,1.4506340326042846,1,,,,,,,,,,,,,,,,,,,,,,1011,2019_Mar_06_1150,mf_amp_cond1,3.0.4,59.99007211918218,
improve,scock,&&&&&,left,care.virtue,,,,,,,0,26,26,26,,,,,,,,,,,,,,,,,,,,,AMP,right,0.7171198769938201,,,right,0,0.7171198769938201,0,,,,,,,,,,,,,,,,,,,,,,1011,2019_Mar_06_1150,mf_amp_cond1,3.0.4,59.99007211918218,
victim,pumber,&&&&&&,right,care.vice,,,,,,,0,27,27,27,,,,,,,,,,,,,,,,,,,,,AMP,left,0.7337909375783056,,,left,0,0.7337909375783056,0,,,,,,,,,,,,,,,,,,,,,,1011,2019_Mar_06_1150,mf_amp_cond1,3.0.4,59.99007211918218,
rebels,fostet,&&&&&&,right,authority.vice,,,,,,,0,28,28,28,,,,,,,,,,,,,,,,,,,,,AMP,left,1.5006857007974759,,,left,0,1.5006857007974759,0,,,,,,,,,,,,,,,,,,,,,,1011,2019_Mar_06_1150,mf_amp_cond1,3.0.4,59.99007211918218,
groups,epigrach,&&&&&&&&,right,loyalty.vice,,,,,,,0,29,29,29,,,,,,,,,,,,,,,,,,,,,AMP,left,1.367277767858468,,,left,0,1.367277767858468,0,,,,,,,,,,,,,,,,,,,,,,1011,2019_Mar_06_1150,mf_amp_cond1,3.0.4,59.99007211918218,
injured,disregord,&&&&&&&&&,right,care.vice,,,,,,,0,30,30,30,,,,,,,,,,,,,,,,,,,,,AMP,left,0.5337430220097303,,,left,0,0.5337430220097303,0,,,,,,,,,,,,,,,,,,,,,,1011,2019_Mar_06_1150,mf_amp_cond1,3.0.4,59.99007211918218,
refused,rivernoat,&&&&&&&&&,right,authority.vice,,,,,,,0,31,31,31,,,,,,,,,,,,,,,,,,,,,AMP,left,0.600408982951194,,,left,0,0.600408982951194,0,,,,,,,,,,,,,,,,,,,,,,1011,2019_Mar_06_1150,mf_amp_cond1,3.0.4,59.99007211918218,
crime,sonvoy,&&&&&&,right,fairness.vice,,,,,,,0,32,32,32,,,,,,,,,,,,,,,,,,,,,AMP,left,0.40036299161147326,,,left,0,0.40036299161147326,0,,,,,,,,,,,,,,,,,,,,,,1011,2019_Mar_06_1150,mf_amp_cond1,3.0.4,59.99007211918218,
illegal,Boeinf,&&&&&&,right,fairness.vice,,,,,,,0,33,33,33,,,,,,,,,,,,,,,,,,,,,AMP,left,0.4337189036887139,,,left,0,0.4337189036887139,0,,,,,,,,,,,,,,,,,,,,,,1011,2019_Mar_06_1150,mf_amp_cond1,3.0.4,59.99007211918218,
ensure,refuejing,&&&&&&&&&,left,fairness.virtue,,,,,,,0,34,34,34,,,,,,,,,,,,,,,,,,,,,AMP,right,1.3505967649398372,,,right,0,1.3505967649398372,0,,,,,,,,,,,,,,,,,,,,,,1011,2019_Mar_06_1150,mf_amp_cond1,3.0.4,59.99007211918218,
arrests,tove,&&&&,right,authority.vice,,,,,,,0,35,35,35,,,,,,,,,,,,,,,,,,,,,AMP,left,0.3670590362744406,,,left,0,0.3670590362744406,0,,,,,,,,,,,,,,,,,,,,,,1011,2019_Mar_06_1150,mf_amp_cond1,3.0.4,59.99007211918218,
safe,fegard,&&&&&&,left,care.virtue,,,,,,,0,36,36,36,,,,,,,,,,,,,,,,,,,,,AMP,right,1.3005909599596635,,,right,0,1.3005909599596635,0,,,,,,,,,,,,,,,,,,,,,,1011,2019_Mar_06_1150,mf_amp_cond1,3.0.4,59.99007211918218,
victims,prones,&&&&&&,right,care.vice,,,,,,,0,37,37,37,,,,,,,,,,,,,,,,,,,,,AMP,left,0.950513121089898,,,left,0,0.950513121089898,0,,,,,,,,,,,,,,,,,,,,,,1011,2019_Mar_06_1150,mf_amp_cond1,3.0.4,59.99007211918218,
sharing,honstables,&&&&&&&&&&,left,loyalty.virtue,,,,,,,0,38,38,38,,,,,,,,,,,,,,,,,,,,,AMP,left,0.6504513502586633,,,left,1,0.6504513502586633,1,,,,,,,,,,,,,,,,,,,,,,1011,2019_Mar_06_1150,mf_amp_cond1,3.0.4,59.99007211918218,
praised,vurtain,&&&&&&&,left,loyalty.virtue,,,,,,,0,39,39,39,,,,,,,,,,,,,,,,,,,,,AMP,right,1.1172099354444072,,,right,0,1.1172099354444072,0,,,,,,,,,,,,,,,,,,,,,,1011,2019_Mar_06_1150,mf_amp_cond1,3.0.4,59.99007211918218,
troops,unreflectuve,&&&&&&&&&&&&,right,loyalty.vice,,,,,,,0,40,40,40,,,,,,,,,,,,,,,,,,,,,AMP,left,2.0174738243222237,,,left,0,2.0174738243222237,0,,,,,,,,,,,,,,,,,,,,,,1011,2019_Mar_06_1150,mf_amp_cond1,3.0.4,59.99007211918218,
freedom,baklara,&&&&&&&,left,sanctity.virtue,,,,,,,0,41,41,41,,,,,,,,,,,,,,,,,,,,,AMP,right,1.0838565891608596,,,right,0,1.0838565891608596,0,,,,,,,,,,,,,,,,,,,,,,1011,2019_Mar_06_1150,mf_amp_cond1,3.0.4,59.99007211918218,
credit,yane,&&&&,left,fairness.virtue,,,,,,,0,42,42,42,,,,,,,,,,,,,,,,,,,,,AMP,right,0.8004678031429648,,,right,0,0.8004678031429648,0,,,,,,,,,,,,,,,,,,,,,,1011,2019_Mar_06_1150,mf_amp_cond1,3.0.4,59.99007211918218,
clean,wump,&&&&,left,sanctity.virtue,,,,,,,0,43,43,43,,,,,,,,,,,,,,,,,,,,,AMP,right,0.8171542582567781,,,right,0,0.8171542582567781,0,,,,,,,,,,,,,,,,,,,,,,1011,2019_Mar_06_1150,mf_amp_cond1,3.0.4,59.99007211918218,
penalty,ebbitter,&&&&&&&&,right,authority.vice,,,,,,,0,44,44,44,,,,,,,,,,,,,,,,,,,,,AMP,left,0.7171333474107087,,,left,0,0.7171333474107087,0,,,,,,,,,,,,,,,,,,,,,,1011,2019_Mar_06_1150,mf_amp_cond1,3.0.4,59.99007211918218,
restore,totalestic,&&&&&&&&&&,left,care.virtue,,,,,,,0,45,45,45,,,,,,,,,,,,,,,,,,,,,AMP,left,0.9671819364884868,,,left,1,0.9671819364884868,1,,,,,,,,,,,,,,,,,,,,,,1011,2019_Mar_06_1150,mf_amp_cond1,3.0.4,59.99007211918218,
army,rorroborated,&&&&&&&&&&&&,right,loyalty.vice,,,,,,,0,46,46,46,,,,,,,,,,,,,,,,,,,,,AMP,left,0.6338017778471112,,,left,0,0.6338017778471112,0,,,,,,,,,,,,,,,,,,,,,,1011,2019_Mar_06_1150,mf_amp_cond1,3.0.4,59.99007211918218,
celebrated,blunderints,&&&&&&&&&&&,left,authority.virtue,,,,,,,0,47,47,47,,,,,,,,,,,,,,,,,,,,,AMP,left,0.6837751901475713,,,left,1,0.6837751901475713,1,,,,,,,,,,,,,,,,,,,,,,1011,2019_Mar_06_1150,mf_amp_cond1,3.0.4,59.99007211918218,
promised,idexpressible,&&&&&&&&&&&&&,left,loyalty.virtue,,,,,,,0,48,48,48,,,,,,,,,,,,,,,,,,,,,AMP,left,0.5837546000257134,,,left,1,0.5837546000257134,1,,,,,,,,,,,,,,,,,,,,,,1011,2019_Mar_06_1150,mf_amp_cond1,3.0.4,59.99007211918218,
peace,bruthfulness,&&&&&&&&&&&&,left,care.virtue,,,,,,,0,49,49,49,,,,,,,,,,,,,,,,,,,,,AMP,right,0.8504931721836329,,,right,0,0.8504931721836329,0,,,,,,,,,,,,,,,,,,,,,,1011,2019_Mar_06_1150,mf_amp_cond1,3.0.4,59.99007211918218,
lorthwhile,chressing,&&&&&&&&&,None,nonword,,,,,,,0,50,50,50,,,,,,,,,,,,,,,,,,,,,AMP,right,0.8671533281449229,,,right,0,0.8671533281449229,0,,,,,,,,,,,,,,,,,,,,,,1011,2019_Mar_06_1150,mf_amp_cond1,3.0.4,59.99007211918218,
increase,ronviolence,&&&&&&&&&&&,left,care.virtue,,,,,,,0,51,51,51,,,,,,,,,,,,,,,,,,,,,AMP,right,0.7837855174439028,,,right,0,0.7837855174439028,0,,,,,,,,,,,,,,,,,,,,,,1011,2019_Mar_06_1150,mf_amp_cond1,3.0.4,59.99007211918218,
officers,focomotive,&&&&&&&&&&,right,authority.vice,,,,,,,0,52,52,52,,,,,,,,,,,,,,,,,,,,,AMP,right,0.9338106297655031,,,right,1,0.9338106297655031,1,,,,,,,,,,,,,,,,,,,,,,1011,2019_Mar_06_1150,mf_amp_cond1,3.0.4,59.99007211918218,
torture,papert,&&&&&&,right,care.vice,,,,,,,0,53,53,53,,,,,,,,,,,,,,,,,,,,,AMP,left,0.6004279055632651,,,left,0,0.6004279055632651,0,,,,,,,,,,,,,,,,,,,,,,1011,2019_Mar_06_1150,mf_amp_cond1,3.0.4,59.99007211918218,
ability,reprisols,&&&&&&&&&,left,authority.virtue,,,,,,,0,54,54,54,,,,,,,,,,,,,,,,,,,,,AMP,left,1.0171794027555734,,,left,1,1.0171794027555734,1,,,,,,,,,,,,,,,,,,,,,,1011,2019_Mar_06_1150,mf_amp_cond1,3.0.4,59.99007211918218,
opportunity,gikely,&&&&&&,left,fairness.virtue,,,,,,,0,55,55,55,,,,,,,,,,,,,,,,,,,,,AMP,right,0.6504417285323143,,,right,0,0.6504417285323143,0,,,,,,,,,,,,,,,,,,,,,,1011,2019_Mar_06_1150,mf_amp_cond1,3.0.4,59.99007211918218,
fear,gillipede,&&&&&&&&&,right,sanctity.vice,,,,,,,0,56,56,56,,,,,,,,,,,,,,,,,,,,,AMP,left,0.6004266226664186,,,left,0,0.6004266226664186,0,,,,,,,,,,,,,,,,,,,,,,1011,2019_Mar_06_1150,mf_amp_cond1,3.0.4,59.99007211918218,
trust,allears,&&&&&&&,left,authority.virtue,,,,,,,0,57,57,57,,,,,,,,,,,,,,,,,,,,,AMP,left,0.633607100462541,,,left,1,0.633607100462541,1,,,,,,,,,,,,,,,,,,,,,,1011,2019_Mar_06_1150,mf_amp_cond1,3.0.4,59.99007211918218,
intelligence,wonderfujnoss,&&&&&&&&&&&&&,left,loyalty.virtue,,,,,,,0,58,58,58,,,,,,,,,,,,,,,,,,,,,AMP,right,0.5170629811473191,,,right,0,0.5170629811473191,0,,,,,,,,,,,,,,,,,,,,,,1011,2019_Mar_06_1150,mf_amp_cond1,3.0.4,59.99007211918218,
bluently,leact,&&&&&,None,nonword,,,,,,,0,59,59,59,,,,,,,,,,,,,,,,,,,,,AMP,right,0.600425339769572,,,right,0,0.600425339769572,0,,,,,,,,,,,,,,,,,,,,,,1011,2019_Mar_06_1150,mf_amp_cond1,3.0.4,59.99007211918218,
loyalty,noped,&&&&&,left,loyalty.virtue,,,,,,,0,60,60,60,,,,,,,,,,,,,,,,,,,,,AMP,right,0.717136233812198,,,right,0,0.717136233812198,0,,,,,,,,,,,,,,,,,,,,,,1011,2019_Mar_06_1150,mf_amp_cond1,3.0.4,59.99007211918218,
slavery,nomaric,&&&&&&&,right,loyalty.vice,,,,,,,0,61,61,61,,,,,,,,,,,,,,,,,,,,,AMP,left,1.2838980903616175,,,left,0,1.2838980903616175,0,,,,,,,,,,,,,,,,,,,,,,1011,2019_Mar_06_1150,mf_amp_cond1,3.0.4,59.99007211918218,
friends,spag,&&&&,left,loyalty.virtue,,,,,,,0,62,62,62,,,,,,,,,,,,,,,,,,,,,AMP,right,1.2838971281889826,,,right,0,1.2838971281889826,0,,,,,,,,,,,,,,,,,,,,,,1011,2019_Mar_06_1150,mf_amp_cond1,3.0.4,59.99007211918218,
simplustic,tracious,&&&&&&&&,None,nonword,,,,,,,0,63,63,63,,,,,,,,,,,,,,,,,,,,,AMP,left,0.7504623188870028,,,left,0,0.7504623188870028,0,,,,,,,,,,,,,,,,,,,,,,1011,2019_Mar_06_1150,mf_amp_cond1,3.0.4,59.99007211918218,
charges,photocalkodes,&&&&&&&&&&&&&,right,fairness.vice,,,,,,,0,64,64,64,,,,,,,,,,,,,,,,,,,,,AMP,left,0.5837501098867506,,,left,0,0.5837501098867506,0,,,,,,,,,,,,,,,,,,,,,,1011,2019_Mar_06_1150,mf_amp_cond1,3.0.4,59.99007211918218,
died,scalbel,&&&&&&&,right,care.vice,,,,,,,0,65,65,65,,,,,,,,,,,,,,,,,,,,,AMP,left,0.4503806633874774,,,left,0,0.4503806633874774,0,,,,,,,,,,,,,,,,,,,,,,1011,2019_Mar_06_1150,mf_amp_cond1,3.0.4,59.99007211918218,
great,iptervention,&&&&&&&&&&&&,left,loyalty.virtue,,,,,,,0,66,66,66,,,,,,,,,,,,,,,,,,,,,AMP,right,0.9005217484664172,,,right,0,0.9005217484664172,0,,,,,,,,,,,,,,,,,,,,,,1011,2019_Mar_06_1150,mf_amp_cond1,3.0.4,59.99007211918218,
progress,troubla,&&&&&&&,left,authority.virtue,,,,,,,0,67,67,67,,,,,,,,,,,,,,,,,,,,,AMP,left,0.6337626499589533,,,left,1,0.6337626499589533,1,,,,,,,,,,,,,,,,,,,,,,1011,2019_Mar_06_1150,mf_amp_cond1,3.0.4,59.99007211918218,
rejected,sgrawl,&&&&&&,right,authority.vice,,,,,,,0,68,68,68,,,,,,,,,,,,,,,,,,,,,AMP,right,0.6337995328940451,,,right,1,0.6337995328940451,1,,,,,,,,,,,,,,,,,,,,,,1011,2019_Mar_06_1150,mf_amp_cond1,3.0.4,59.99007211918218,
terrorist,asn,&&&,right,loyalty.vice,,,,,,,0,69,69,69,,,,,,,,,,,,,,,,,,,,,AMP,left,0.5004057115875185,,,left,0,0.5004057115875185,0,,,,,,,,,,,,,,,,,,,,,,1011,2019_Mar_06_1150,mf_amp_cond1,3.0.4,59.99007211918218,
blamed,smapper,&&&&&&&,right,loyalty.vice,,,,,,,0,70,70,70,,,,,,,,,,,,,,,,,,,,,AMP,left,0.8504768154816702,,,left,0,0.8504768154816702,0,,,,,,,,,,,,,,,,,,,,,,1011,2019_Mar_06_1150,mf_amp_cond1,3.0.4,59.99007211918218,
pleasant,erks,&&&&,None,control,,,,,,,0,71,71,71,,,,,,,,,,,,,,,,,,,,,AMP,left,0.8838157292921096,,,left,0,0.8838157292921096,0,,,,,,,,,,,,,,,,,,,,,,1011,2019_Mar_06_1150,mf_amp_cond1,3.0.4,59.99007211918218,
fighters,lenon,&&&&&,right,authority.vice,,,,,,,0,72,72,72,,,,,,,,,,,,,,,,,,,,,AMP,right,0.6504205610835925,,,right,1,0.6504205610835925,1,,,,,,,,,,,,,,,,,,,,,,1011,2019_Mar_06_1150,mf_amp_cond1,3.0.4,59.99007211918218,
encourage,hefurbished,&&&&&&&&&&&,left,authority.virtue,,,,,,,0,73,73,73,,,,,,,,,,,,,,,,,,,,,AMP,right,0.7838070057332516,,,right,0,0.7838070057332516,0,,,,,,,,,,,,,,,,,,,,,,1011,2019_Mar_06_1150,mf_amp_cond1,3.0.4,59.99007211918218,
interests,gedious,&&&&&&&,left,fairness.virtue,,,,,,,0,74,74,74,,,,,,,,,,,,,,,,,,,,,AMP,right,0.46689649508334696,,,right,0,0.46689649508334696,0,,,,,,,,,,,,,,,,,,,,,,1011,2019_Mar_06_1150,mf_amp_cond1,3.0.4,59.99007211918218,
praise,emassion,&&&&&&&&,left,authority.virtue,,,,,,,0,75,75,75,,,,,,,,,,,,,,,,,,,,,AMP,right,0.4170362972654402,,,right,0,0.4170362972654402,0,,,,,,,,,,,,,,,,,,,,,,1011,2019_Mar_06_1150,mf_amp_cond1,3.0.4,59.99007211918218,
protect,shoirmaster,&&&&&&&&&&&,left,fairness.virtue,,,,,,,0,76,76,76,,,,,,,,,,,,,,,,,,,,,AMP,right,0.3503642425639555,,,right,0,0.3503642425639555,0,,,,,,,,,,,,,,,,,,,,,,1011,2019_Mar_06_1150,mf_amp_cond1,3.0.4,59.99007211918218,
commitment,chared,&&&&&&,left,sanctity.virtue,,,,,,,0,77,77,77,,,,,,,,,,,,,,,,,,,,,AMP,right,0.417044956702739,,,right,0,0.417044956702739,0,,,,,,,,,,,,,,,,,,,,,,1011,2019_Mar_06_1150,mf_amp_cond1,3.0.4,59.99007211918218,
metibolic,proached,&&&&&&&&,None,nonword,,,,,,,0,78,78,78,,,,,,,,,,,,,,,,,,,,,AMP,right,0.4671107365284115,,,right,0,0.4671107365284115,0,,,,,,,,,,,,,,,,,,,,,,1011,2019_Mar_06_1150,mf_amp_cond1,3.0.4,59.99007211918218,
unpleasant,pafer,&&&&&,None,control,,,,,,,0,79,79,79,,,,,,,,,,,,,,,,,,,,,AMP,left,0.6337520661763847,,,left,0,0.6337520661763847,0,,,,,,,,,,,,,,,,,,,,,,1011,2019_Mar_06_1150,mf_amp_cond1,3.0.4,59.99007211918218,
killed,nomparisons,&&&&&&&&&&&,right,care.vice,,,,,,,0,80,80,80,,,,,,,,,,,,,,,,,,,,,AMP,left,0.7504488485865295,,,left,0,0.7504488485865295,0,,,,,,,,,,,,,,,,,,,,,,1011,2019_Mar_06_1150,mf_amp_cond1,3.0.4,59.99007211918218,
energy,bycled,&&&&&&,left,sanctity.virtue,,,,,,,0,81,81,81,,,,,,,,,,,,,,,,,,,,,AMP,right,0.5837513926671818,,,right,0,0.5837513926671818,0,,,,,,,,,,,,,,,,,,,,,,1011,2019_Mar_06_1150,mf_amp_cond1,3.0.4,59.99007211918218,
intelligence,shoirmaster,&&&&&&&&&&&,left,loyalty.virtue,,,,,,,0,82,82,82,,,,,,,,,,,,,,,,,,,,,AMP,right,0.6671355603029951,,,right,0,0.6671355603029951,0,,,,,,,,,,,,,,,,,,,,,,1011,2019_Mar_06_1150,mf_amp_cond1,3.0.4,59.99007211918218,
lorthwhile,totalestic,&&&&&&&&&&,None,nonword,,,,,,,0,83,83,83,,,,,,,,,,,,,,,,,,,,,AMP,left,0.8338198665296659,,,left,0,0.8338198665296659,0,,,,,,,,,,,,,,,,,,,,,,1011,2019_Mar_06_1150,mf_amp_cond1,3.0.4,59.99007211918218,
harassment,drumbled,&&&&&&&&,right,sanctity.vice,,,,,,,0,84,84,84,,,,,,,,,,,,,,,,,,,,,AMP,left,0.9838481862097979,,,left,0,0.9838481862097979,0,,,,,,,,,,,,,,,,,,,,,,1011,2019_Mar_06_1150,mf_amp_cond1,3.0.4,59.99007211918218,
protect,vurtain,&&&&&&&,left,fairness.virtue,,,,,,,0,85,85,85,,,,,,,,,,,,,,,,,,,,,AMP,right,1.0505523130996153,,,right,0,1.0505523130996153,0,,,,,,,,,,,,,,,,,,,,,,1011,2019_Mar_06_1150,mf_amp_cond1,3.0.4,59.99007211918218,
corruption,idexpressible,&&&&&&&&&&&&&,right,sanctity.vice,,,,,,,0,86,86,86,,,,,,,,,,,,,,,,,,,,,AMP,left,0.6670710954349488,,,left,0,0.6670710954349488,0,,,,,,,,,,,,,,,,,,,,,,1011,2019_Mar_06_1150,mf_amp_cond1,3.0.4,59.99007211918218,
win,blunderints,&&&&&&&&&&&,left,fairness.virtue,,,,,,,0,87,87,87,,,,,,,,,,,,,,,,,,,,,AMP,left,1.567357755615376,,,left,1,1.567357755615376,1,,,,,,,,,,,,,,,,,,,,,,1011,2019_Mar_06_1150,mf_amp_cond1,3.0.4,59.99007211918218,
rejected,chared,&&&&&&,right,authority.vice,,,,,,,0,88,88,88,,,,,,,,,,,,,,,,,,,,,AMP,left,0.5337366075254977,,,left,0,0.5337366075254977,0,,,,,,,,,,,,,,,,,,,,,,1011,2019_Mar_06_1150,mf_amp_cond1,3.0.4,59.99007211918218,
opportunity,pafer,&&&&&,left,fairness.virtue,,,,,,,0,89,89,89,,,,,,,,,,,,,,,,,,,,,AMP,left,0.4670594211202115,,,left,1,0.4670594211202115,1,,,,,,,,,,,,,,,,,,,,,,1011,2019_Mar_06_1150,mf_amp_cond1,3.0.4,59.99007211918218,
arrests,wump,&&&&,right,authority.vice,,,,,,,0,90,90,90,,,,,,,,,,,,,,,,,,,,,AMP,left,0.5671294024214149,,,left,0,0.5671294024214149,0,,,,,,,,,,,,,,,,,,,,,,1011,2019_Mar_06_1150,mf_amp_cond1,3.0.4,59.99007211918218,
bluently,Boeinf,&&&&&&,None,nonword,,,,,,,0,91,91,91,,,,,,,,,,,,,,,,,,,,,AMP,left,0.7338406493654475,,,left,0,0.7338406493654475,0,,,,,,,,,,,,,,,,,,,,,,1011,2019_Mar_06_1150,mf_amp_cond1,3.0.4,59.99007211918218,
groups,rorroborated,&&&&&&&&&&&&,right,loyalty.vice,,,,,,,0,92,92,92,,,,,,,,,,,,,,,,,,,,,AMP,left,0.8004758212482557,,,left,0,0.8004758212482557,0,,,,,,,,,,,,,,,,,,,,,,1011,2019_Mar_06_1150,mf_amp_cond1,3.0.4,59.99007211918218,
strength,disregord,&&&&&&&&&,left,sanctity.virtue,,,,,,,0,93,93,93,,,,,,,,,,,,,,,,,,,,,AMP,right,0.317023083451204,,,right,0,0.317023083451204,0,,,,,,,,,,,,,,,,,,,,,,1011,2019_Mar_06_1150,mf_amp_cond1,3.0.4,59.99007211918218,
hatigue,gedious,&&&&&&&,None,nonword,,,,,,,0,94,94,94,,,,,,,,,,,,,,,,,,,,,AMP,left,0.36702407780103385,,,left,0,0.36702407780103385,0,,,,,,,,,,,,,,,,,,,,,,1011,2019_Mar_06_1150,mf_amp_cond1,3.0.4,59.99007211918218,
metibolic,Cunday,&&&&&&,None,nonword,,,,,,,0,95,95,95,,,,,,,,,,,,,,,,,,,,,AMP,right,1.233906397013925,,,right,0,1.233906397013925,0,,,,,,,,,,,,,,,,,,,,,,1011,2019_Mar_06_1150,mf_amp_cond1,3.0.4,59.99007211918218,
loyalty,erks,&&&&,left,loyalty.virtue,,,,,,,0,96,96,96,,,,,,,,,,,,,,,,,,,,,AMP,right,0.883808673475869,,,right,0,0.883808673475869,0,,,,,,,,,,,,,,,,,,,,,,1011,2019_Mar_06_1150,mf_amp_cond1,3.0.4,59.99007211918218,
hate,bruthfulness,&&&&&&&&&&&&,right,fairness.vice,,,,,,,0,97,97,97,,,,,,,,,,,,,,,,,,,,,AMP,left,0.35038059926591814,,,left,0,0.35038059926591814,0,,,,,,,,,,,,,,,,,,,,,,1011,2019_Mar_06_1150,mf_amp_cond1,3.0.4,59.99007211918218,
progress,iptervention,&&&&&&&&&&&&,left,authority.virtue,,,,,,,0,98,98,98,,,,,,,,,,,,,,,,,,,,,AMP,right,0.4003722924971953,,,right,0,0.4003722924971953,0,,,,,,,,,,,,,,,,,,,,,,1011,2019_Mar_06_1150,mf_amp_cond1,3.0.4,59.99007211918218,
prison,prones,&&&&&&,right,fairness.vice,,,,,,,0,99,99,99,,,,,,,,,,,,,,,,,,,,,AMP,left,0.5504198553971946,,,left,0,0.5504198553971946,0,,,,,,,,,,,,,,,,,,,,,,1011,2019_Mar_06_1150,mf_amp_cond1,3.0.4,59.99007211918218,
ability,hefurbished,&&&&&&&&&&&,left,authority.virtue,,,,,,,0,100,100,100,,,,,,,,,,,,,,,,,,,,,AMP,left,1.033856236259453,,,left,1,1.033856236259453,1,,,,,,,,,,,,,,,,,,,,,,1011,2019_Mar_06_1150,mf_amp_cond1,3.0.4,59.99007211918218,
scandal,yane,&&&&,right,sanctity.vice,,,,,,,0,101,101,101,,,,,,,,,,,,,,,,,,,,,AMP,left,1.3839456212008372,,,left,0,1.3839456212008372,0,,,,,,,,,,,,,,,,,,,,,,1011,2019_Mar_06_1150,mf_amp_cond1,3.0.4,59.99007211918218,
victim,wonderfujnoss,&&&&&&&&&&&&&,right,care.vice,,,,,,,0,102,102,102,,,,,,,,,,,,,,,,,,,,,AMP,left,0.8671555733308196,,,left,0,0.8671555733308196,0,,,,,,,,,,,,,,,,,,,,,,1011,2019_Mar_06_1150,mf_amp_cond1,3.0.4,59.99007211918218,
illegal,unreflectuve,&&&&&&&&&&&&,right,fairness.vice,,,,,,,0,103,103,103,,,,,,,,,,,,,,,,,,,,,AMP,left,0.9672476841369644,,,left,0,0.9672476841369644,0,,,,,,,,,,,,,,,,,,,,,,1011,2019_Mar_06_1150,mf_amp_cond1,3.0.4,59.99007211918218,
pleasant,emassion,&&&&&&&&,None,control,,,,,,,0,104,104,104,,,,,,,,,,,,,,,,,,,,,AMP,left,0.7671192676061764,,,left,0,0.7671192676061764,0,,,,,,,,,,,,,,,,,,,,,,1011,2019_Mar_06_1150,mf_amp_cond1,3.0.4,59.99007211918218,
perfect,saned,&&&&&,left,sanctity.virtue,,,,,,,0,105,105,105,,,,,,,,,,,,,,,,,,,,,AMP,right,0.5837353566894308,,,right,0,0.5837353566894308,0,,,,,,,,,,,,,,,,,,,,,,1011,2019_Mar_06_1150,mf_amp_cond1,3.0.4,59.99007211918218,
torture,gikely,&&&&&&,right,care.vice,,,,,,,0,106,106,106,,,,,,,,,,,,,,,,,,,,,AMP,left,0.43372018658556044,,,left,0,0.43372018658556044,0,,,,,,,,,,,,,,,,,,,,,,1011,2019_Mar_06_1150,mf_amp_cond1,3.0.4,59.99007211918218,
commitment,elduringly,&&&&&&&&&&,left,sanctity.virtue,,,,,,,0,107,107,107,,,,,,,,,,,,,,,,,,,,,AMP,right,0.8337428936501965,,,right,0,0.8337428936501965,0,,,,,,,,,,,,,,,,,,,,,,1011,2019_Mar_06_1150,mf_amp_cond1,3.0.4,59.99007211918218,
trust,tracious,&&&&&&&&,left,authority.virtue,,,,,,,0,108,108,108,,,,,,,,,,,,,,,,,,,,,AMP,right,0.7004533065482974,,,right,0,0.7004533065482974,0,,,,,,,,,,,,,,,,,,,,,,1011,2019_Mar_06_1150,mf_amp_cond1,3.0.4,59.99007211918218,
terrorist,bycled,&&&&&&,right,loyalty.vice,,,,,,,0,109,109,109,,,,,,,,,,,,,,,,,,,,,AMP,left,0.5837452990235761,,,left,0,0.5837452990235761,0,,,,,,,,,,,,,,,,,,,,,,1011,2019_Mar_06_1150,mf_amp_cond1,3.0.4,59.99007211918218,
accused,pumber,&&&&&&,right,fairness.vice,,,,,,,0,110,110,110,,,,,,,,,,,,,,,,,,,,,AMP,left,0.8338205079780892,,,left,0,0.8338205079780892,0,,,,,,,,,,,,,,,,,,,,,,1011,2019_Mar_06_1150,mf_amp_cond1,3.0.4,59.99007211918218,
freedom,reelectiob,&&&&&&&&&&,left,sanctity.virtue,,,,,,,0,111,111,111,,,,,,,,,,,,,,,,,,,,,AMP,right,0.4837320853257552,,,right,0,0.4837320853257552,0,,,,,,,,,,,,,,,,,,,,,,1011,2019_Mar_06_1150,mf_amp_cond1,3.0.4,59.99007211918218,
troops,ronviolence,&&&&&&&&&&&,right,loyalty.vice,,,,,,,0,112,112,112,,,,,,,,,,,,,,,,,,,,,AMP,right,0.817133090691641,,,right,1,0.817133090691641,1,,,,,,,,,,,,,,,,,,,,,,1011,2019_Mar_06_1150,mf_amp_cond1,3.0.4,59.99007211918218,
ensure,festate,&&&&&&&,left,fairness.virtue,,,,,,,0,113,113,113,,,,,,,,,,,,,,,,,,,,,AMP,left,1.0005606197519228,,,left,1,1.0005606197519228,1,,,,,,,,,,,,,,,,,,,,,,1011,2019_Mar_06_1150,mf_amp_cond1,3.0.4,59.99007211918218,
stindig,ebbitter,&&&&&&&&,None,nonword,,,,,,,0,114,114,114,,,,,,,,,,,,,,,,,,,,,AMP,left,0.9005002600606531,,,left,0,0.9005002600606531,0,,,,,,,,,,,,,,,,,,,,,,1011,2019_Mar_06_1150,mf_amp_cond1,3.0.4,59.99007211918218,
men,gillipede,&&&&&&&&&,right,loyalty.vice,,,,,,,0,115,115,115,,,,,,,,,,,,,,,,,,,,,AMP,left,0.7171384788816795,,,left,0,0.7171384788816795,0,,,,,,,,,,,,,,,,,,,,,,1011,2019_Mar_06_1150,mf_amp_cond1,3.0.4,59.99007211918218,
suicide,spag,&&&&,right,care.vice,,,,,,,0,116,116,116,,,,,,,,,,,,,,,,,,,,,AMP,left,0.7504559045191854,,,left,0,0.7504559045191854,0,,,,,,,,,,,,,,,,,,,,,,1011,2019_Mar_06_1150,mf_amp_cond1,3.0.4,59.99007211918218,
compassion,letish,&&&&&&,left,care.virtue,,,,,,,0,117,117,117,,,,,,,,,,,,,,,,,,,,,AMP,right,0.7171163491439074,,,right,0,0.7171163491439074,0,,,,,,,,,,,,,,,,,,,,,,1011,2019_Mar_06_1150,mf_amp_cond1,3.0.4,59.99007211918218,
halaise,scalbel,&&&&&&&,None,nonword,,,,,,,0,118,118,118,,,,,,,,,,,,,,,,,,,,,AMP,left,1.6840221451129764,,,left,0,1.6840221451129764,0,,,,,,,,,,,,,,,,,,,,,,1011,2019_Mar_06_1150,mf_amp_cond1,3.0.4,59.99007211918218,
victims,abointment,&&&&&&&&&&,right,care.vice,,,,,,,0,119,119,119,,,,,,,,,,,,,,,,,,,,,AMP,left,0.7837983461795375,,,left,0,0.7837983461795375,0,,,,,,,,,,,,,,,,,,,,,,1011,2019_Mar_06_1150,mf_amp_cond1,3.0.4,59.99007211918218,
unpleasant,focomotive,&&&&&&&&&&,None,control,,,,,,,0,120,120,120,,,,,,,,,,,,,,,,,,,,,AMP,left,0.7504735440015793,,,left,0,0.7504735440015793,0,,,,,,,,,,,,,,,,,,,,,,1011,2019_Mar_06_1150,mf_amp_cond1,3.0.4,59.99007211918218,
celebrated,vicissifude,&&&&&&&&&&&,left,authority.virtue,,,,,,,0,121,121,121,,,,,,,,,,,,,,,,,,,,,AMP,left,0.7671356244245544,,,left,1,0.7671356244245544,1,,,,,,,,,,,,,,,,,,,,,,1011,2019_Mar_06_1150,mf_amp_cond1,3.0.4,59.99007211918218,
sharing,ablow,&&&&&,left,loyalty.virtue,,,,,,,0,122,122,122,,,,,,,,,,,,,,,,,,,,,AMP,left,1.050533069879748,,,left,1,1.050533069879748,1,,,,,,,,,,,,,,,,,,,,,,1011,2019_Mar_06_1150,mf_amp_cond1,3.0.4,59.99007211918218,
unscothed,lursuer,&&&&&&&,None,nonword,,,,,,,0,123,123,123,,,,,,,,,,,,,,,,,,,,,AMP,left,0.400368443923071,,,left,0,0.400368443923071,0,,,,,,,,,,,,,,,,,,,,,,1011,2019_Mar_06_1150,mf_amp_cond1,3.0.4,59.99007211918218,
peace,sgrawl,&&&&&&,left,care.virtue,,,,,,,0,124,124,124,,,,,,,,,,,,,,,,,,,,,AMP,right,0.5670735971070826,,,right,0,0.5670735971070826,0,,,,,,,,,,,,,,,,,,,,,,1011,2019_Mar_06_1150,mf_amp_cond1,3.0.4,59.99007211918218,
energy,fornicalion,&&&&&&&&&&&,left,sanctity.virtue,,,,,,,0,125,125,125,,,,,,,,,,,,,,,,,,,,,AMP,left,0.883889495045878,,,left,1,0.883889495045878,1,,,,,,,,,,,,,,,,,,,,,,1011,2019_Mar_06_1150,mf_amp_cond1,3.0.4,59.99007211918218,
restore,baklara,&&&&&&&,left,care.virtue,,,,,,,0,126,126,126,,,,,,,,,,,,,,,,,,,,,AMP,left,0.6838245812105015,,,left,1,0.6838245812105015,1,,,,,,,,,,,,,,,,,,,,,,1011,2019_Mar_06_1150,mf_amp_cond1,3.0.4,59.99007211918218,
slavery,synchronazers,&&&&&&&&&&&&&,right,loyalty.vice,,,,,,,0,127,127,127,,,,,,,,,,,,,,,,,,,,,AMP,left,1.7006345137488097,,,left,0,1.7006345137488097,0,,,,,,,,,,,,,,,,,,,,,,1011,2019_Mar_06_1150,mf_amp_cond1,3.0.4,59.99007211918218,
charges,epigrach,&&&&&&&&,right,fairness.vice,,,,,,,0,128,128,128,,,,,,,,,,,,,,,,,,,,,AMP,left,0.46705204457975924,,,left,0,0.46705204457975924,0,,,,,,,,,,,,,,,,,,,,,,1011,2019_Mar_06_1150,mf_amp_cond1,3.0.4,59.99007211918218,
great,gondensed,&&&&&&&&&,left,loyalty.virtue,,,,,,,0,129,129,129,,,,,,,,,,,,,,,,,,,,,AMP,left,0.7337922204751521,,,left,1,0.7337922204751521,1,,,,,,,,,,,,,,,,,,,,,,1011,2019_Mar_06_1150,mf_amp_cond1,3.0.4,59.99007211918218,
crime,alar,&&&&,right,fairness.vice,,,,,,,0,130,130,130,,,,,,,,,,,,,,,,,,,,,AMP,left,1.00053047190886,,,left,0,1.00053047190886,0,,,,,,,,,,,,,,,,,,,,,,1011,2019_Mar_06_1150,mf_amp_cond1,3.0.4,59.99007211918218,
improve,fegard,&&&&&&,left,care.virtue,,,,,,,0,131,131,131,,,,,,,,,,,,,,,,,,,,,AMP,right,0.4170324485749006,,,right,0,0.4170324485749006,0,,,,,,,,,,,,,,,,,,,,,,1011,2019_Mar_06_1150,mf_amp_cond1,3.0.4,59.99007211918218,
promised,nomparisons,&&&&&&&&&&&,left,loyalty.virtue,,,,,,,0,132,132,132,,,,,,,,,,,,,,,,,,,,,AMP,left,0.800472613889724,,,left,1,0.800472613889724,1,,,,,,,,,,,,,,,,,,,,,,1011,2019_Mar_06_1150,mf_amp_cond1,3.0.4,59.99007211918218,
fear,nonobservalt,&&&&&&&&&&&&,right,sanctity.vice,,,,,,,0,133,133,133,,,,,,,,,,,,,,,,,,,,,AMP,left,1.8674031696282327,,,left,0,1.8674031696282327,0,,,,,,,,,,,,,,,,,,,,,,1011,2019_Mar_06_1150,mf_amp_cond1,3.0.4,59.99007211918218,
safe,asn,&&&,left,care.virtue,,,,,,,0,134,134,134,,,,,,,,,,,,,,,,,,,,,AMP,right,0.41703565581701696,,,right,0,0.41703565581701696,0,,,,,,,,,,,,,,,,,,,,,,1011,2019_Mar_06_1150,mf_amp_cond1,3.0.4,59.99007211918218,
encourage,Oregoniuns,&&&&&&&&&&,left,authority.virtue,,,,,,,0,135,135,135,,,,,,,,,,,,,,,,,,,,,AMP,left,1.2505736090242863,,,left,1,1.2505736090242863,1,,,,,,,,,,,,,,,,,,,,,,1011,2019_Mar_06_1150,mf_amp_cond1,3.0.4,59.99007211918218,
rebels,allears,&&&&&&&,right,authority.vice,,,,,,,0,136,136,136,,,,,,,,,,,,,,,,,,,,,AMP,left,1.0672166384756565,,,left,0,1.0672166384756565,0,,,,,,,,,,,,,,,,,,,,,,1011,2019_Mar_06_1150,mf_amp_cond1,3.0.4,59.99007211918218,
clean,proached,&&&&&&&&,left,sanctity.virtue,,,,,,,0,137,137,137,,,,,,,,,,,,,,,,,,,,,AMP,left,1.7839166921330616,,,left,1,1.7839166921330616,1,,,,,,,,,,,,,,,,,,,,,,1011,2019_Mar_06_1150,mf_amp_cond1,3.0.4,59.99007211918218,
died,tove,&&&&,right,care.vice,,,,,,,0,138,138,138,,,,,,,,,,,,,,,,,,,,,AMP,left,0.38369577983394265,,,left,0,0.38369577983394265,0,,,,,,,,,,,,,,,,,,,,,,1011,2019_Mar_06_1150,mf_amp_cond1,3.0.4,59.99007211918218,
agreement,ejanulated,&&&&&&&&&&,left,fairness.virtue,,,,,,,0,139,139,139,,,,,,,,,,,,,,,,,,,,,AMP,right,0.6171069840202108,,,right,0,0.6171069840202108,0,,,,,,,,,,,,,,,,,,,,,,1011,2019_Mar_06_1150,mf_amp_cond1,3.0.4,59.99007211918218,
embrace,greaks,&&&&&&,left,authority.virtue,,,,,,,0,140,140,140,,,,,,,,,,,,,,,,,,,,,AMP,left,0.9671816157642752,,,left,1,0.9671816157642752,1,,,,,,,,,,,,,,,,,,,,,,1011,2019_Mar_06_1150,mf_amp_cond1,3.0.4,59.99007211918218,
praised,chressing,&&&&&&&&&,left,loyalty.virtue,,,,,,,0,141,141,141,,,,,,,,,,,,,,,,,,,,,AMP,left,0.8338083205744624,,,left,1,0.8338083205744624,1,,,,,,,,,,,,,,,,,,,,,,1011,2019_Mar_06_1150,mf_amp_cond1,3.0.4,59.99007211918218,
refused,sonvoy,&&&&&&,right,authority.vice,,,,,,,0,142,142,142,,,,,,,,,,,,,,,,,,,,,AMP,left,0.6504279376240447,,,left,0,0.6504279376240447,0,,,,,,,,,,,,,,,,,,,,,,1011,2019_Mar_06_1150,mf_amp_cond1,3.0.4,59.99007211918218,
increase,photocalkodes,&&&&&&&&&&&&&,left,care.virtue,,,,,,,0,143,143,143,,,,,,,,,,,,,,,,,,,,,AMP,left,0.8171459196601063,,,left,1,0.8171459196601063,1,,,,,,,,,,,,,,,,,,,,,,1011,2019_Mar_06_1150,mf_amp_cond1,3.0.4,59.99007211918218,
officers,smapper,&&&&&&&,right,authority.vice,,,,,,,0,144,144,144,,,,,,,,,,,,,,,,,,,,,AMP,right,1.2339278853032738,,,right,1,1.2339278853032738,1,,,,,,,,,,,,,,,,,,,,,,1011,2019_Mar_06_1150,mf_amp_cond1,3.0.4,59.99007211918218,
injured,leact,&&&&&,right,care.vice,,,,,,,0,145,145,145,,,,,,,,,,,,,,,,,,,,,AMP,left,1.167204515193589,,,left,0,1.167204515193589,0,,,,,,,,,,,,,,,,,,,,,,1011,2019_Mar_06_1150,mf_amp_cond1,3.0.4,59.99007211918218,
racist,sidearbs,&&&&&&&&,right,sanctity.vice,,,,,,,0,146,146,146,,,,,,,,,,,,,,,,,,,,,AMP,left,0.7671272857114673,,,left,0,0.7671272857114673,0,,,,,,,,,,,,,,,,,,,,,,1011,2019_Mar_06_1150,mf_amp_cond1,3.0.4,59.99007211918218,
health,laming,&&&&&&,left,care.virtue,,,,,,,0,147,147,147,,,,,,,,,,,,,,,,,,,,,AMP,left,1.1338819582015276,,,left,1,1.1338819582015276,1,,,,,,,,,,,,,,,,,,,,,,1011,2019_Mar_06_1150,mf_amp_cond1,3.0.4,59.99007211918218,
credit,troubla,&&&&&&&,left,fairness.virtue,,,,,,,0,148,148,148,,,,,,,,,,,,,,,,,,,,,AMP,left,1.3005948085337877,,,left,1,1.3005948085337877,1,,,,,,,,,,,,,,,,,,,,,,1011,2019_Mar_06_1150,mf_amp_cond1,3.0.4,59.99007211918218,
simplustic,ugeasily,&&&&&&&&,None,nonword,,,,,,,0,149,149,149,,,,,,,,,,,,,,,,,,,,,AMP,left,0.950504461536184,,,left,0,0.950504461536184,0,,,,,,,,,,,,,,,,,,,,,,1011,2019_Mar_06_1150,mf_amp_cond1,3.0.4,59.99007211918218,
fighters,divility,&&&&&&&&,right,authority.vice,,,,,,,0,150,150,150,,,,,,,,,,,,,,,,,,,,,AMP,right,0.6337806103983894,,,right,1,0.6337806103983894,1,,,,,,,,,,,,,,,,,,,,,,1011,2019_Mar_06_1150,mf_amp_cond1,3.0.4,59.99007211918218,
killed,reprisols,&&&&&&&&&,right,care.vice,,,,,,,0,151,151,151,,,,,,,,,,,,,,,,,,,,,AMP,left,0.6004096245160326,,,left,0,0.6004096245160326,0,,,,,,,,,,,,,,,,,,,,,,1011,2019_Mar_06_1150,mf_amp_cond1,3.0.4,59.99007211918218,
imebreaker,honstables,&&&&&&&&&&,None,nonword,,,,,,,0,152,152,152,,,,,,,,,,,,,,,,,,,,,AMP,right,0.7337893339572474,,,right,0,0.7337893339572474,0,,,,,,,,,,,,,,,,,,,,,,1011,2019_Mar_06_1150,mf_amp_cond1,3.0.4,59.99007211918218,
penalty,noped,&&&&&,right,authority.vice,,,,,,,0,153,153,153,,,,,,,,,,,,,,,,,,,,,AMP,left,0.650466744787991,,,left,0,0.650466744787991,0,,,,,,,,,,,,,,,,,,,,,,1011,2019_Mar_06_1150,mf_amp_cond1,3.0.4,59.99007211918218,
blamed,scock,&&&&&,right,loyalty.vice,,,,,,,0,154,154,154,,,,,,,,,,,,,,,,,,,,,AMP,left,0.6004064172739163,,,left,0,0.6004064172739163,0,,,,,,,,,,,,,,,,,,,,,,1011,2019_Mar_06_1150,mf_amp_cond1,3.0.4,59.99007211918218,
lies,papert,&&&&&&,right,fairness.vice,,,,,,,0,155,155,155,,,,,,,,,,,,,,,,,,,,,AMP,left,0.4170353350928053,,,left,0,0.4170353350928053,0,,,,,,,,,,,,,,,,,,,,,,1011,2019_Mar_06_1150,mf_amp_cond1,3.0.4,59.99007211918218,
friends,rivernoat,&&&&&&&&&,left,loyalty.virtue,,,,,,,0,156,156,156,,,,,,,,,,,,,,,,,,,,,AMP,right,0.35038765508215874,,,right,0,0.35038765508215874,0,,,,,,,,,,,,,,,,,,,,,,1011,2019_Mar_06_1150,mf_amp_cond1,3.0.4,59.99007211918218,
serial,refuejing,&&&&&&&&&,right,sanctity.vice,,,,,,,0,157,157,157,,,,,,,,,,,,,,,,,,,,,AMP,left,0.5337750939652324,,,left,0,0.5337750939652324,0,,,,,,,,,,,,,,,,,,,,,,1011,2019_Mar_06_1150,mf_amp_cond1,3.0.4,59.99007211918218,
hand,lenon,&&&&&,left,sanctity.virtue,,,,,,,0,158,158,158,,,,,,,,,,,,,,,,,,,,,AMP,right,0.6337571977637708,,,right,0,0.6337571977637708,0,,,,,,,,,,,,,,,,,,,,,,1011,2019_Mar_06_1150,mf_amp_cond1,3.0.4,59.99007211918218,
army,fostet,&&&&&&,right,loyalty.vice,,,,,,,0,159,159,159,,,,,,,,,,,,,,,,,,,,,AMP,left,0.5504448716528714,,,left,0,0.5504448716528714,0,,,,,,,,,,,,,,,,,,,,,,1011,2019_Mar_06_1150,mf_amp_cond1,3.0.4,59.99007211918218,
interests,nomaric,&&&&&&&,left,fairness.virtue,,,,,,,0,160,160,160,,,,,,,,,,,,,,,,,,,,,AMP,right,0.5837632593465969,,,right,0,0.5837632593465969,0,,,,,,,,,,,,,,,,,,,,,,1011,2019_Mar_06_1150,mf_amp_cond1,3.0.4,59.99007211918218,
praise,egpeditious,&&&&&&&&&&&,left,authority.virtue,,,,,,,0,161,161,161,,,,,,,,,,,,,,,,,,,,,AMP,left,0.3170307808322832,,,left,1,0.3170307808322832,1,,,,,,,,,,,,,,,,,,,,,,1011,2019_Mar_06_1150,mf_amp_cond1,3.0.4,59.99007211918218,
quarterbocks,godlaness,&&&&&&&&&,None,nonword,,,,,,,0,162,162,162,,,,,,,,,,,,,,,,,,,,,AMP,left,0.4670523654203862,,,left,0,0.4670523654203862,0,,,,,,,,,,,,,,,,,,,,,,1011,2019_Mar_06_1150,mf_amp_cond1,3.0.4,59.99007211918218,
drug,ecgagement,&&&&&&&&&&,right,sanctity.vice,,,,,,,0,163,163,163,,,,,,,,,,,,,,,,,,,,,AMP,right,0.8838269545231014,,,right,1,0.8838269545231014,1,,,,,,,,,,,,,,,,,,,,,,1011,2019_Mar_06_1150,mf_amp_cond1,3.0.4,59.99007211918218,
compassion,ejanulated,&&&&&&&&&&,left,care.virtue,,,,,,,0,164,164,164,,,,,,,,,,,,,,,,,,,,,AMP,left,0.717130140052177,,,left,1,0.717130140052177,1,,,,,,,,,,,,,,,,,,,,,,1011,2019_Mar_06_1150,mf_amp_cond1,3.0.4,59.99007211918218,
peace,gondensed,&&&&&&&&&,left,care.virtue,,,,,,,0,165,165,165,,,,,,,,,,,,,,,,,,,,,AMP,left,0.6504648204427212,,,left,1,0.6504648204427212,1,,,,,,,,,,,,,,,,,,,,,,1011,2019_Mar_06_1150,mf_amp_cond1,3.0.4,59.99007211918218,
restore,fegard,&&&&&&,left,care.virtue,,,,,,,0,166,166,166,,,,,,,,,,,,,,,,,,,,,AMP,right,0.7004491372499615,,,right,0,0.7004491372499615,0,,,,,,,,,,,,,,,,,,,,,,1011,2019_Mar_06_1150,mf_amp_cond1,3.0.4,59.99007211918218,
victim,lenon,&&&&&,right,care.vice,,,,,,,0,167,167,167,,,,,,,,,,,,,,,,,,,,,AMP,left,0.8504893234930933,,,left,0,0.8504893234930933,0,,,,,,,,,,,,,,,,,,,,,,1011,2019_Mar_06_1150,mf_amp_cond1,3.0.4,59.99007211918218,
bluently,yane,&&&&,None,nonword,,,,,,,0,168,168,168,,,,,,,,,,,,,,,,,,,,,AMP,right,0.6337677815463394,,,right,0,0.6337677815463394,0,,,,,,,,,,,,,,,,,,,,,,1011,2019_Mar_06_1150,mf_amp_cond1,3.0.4,59.99007211918218,
win,synchronazers,&&&&&&&&&&&&&,left,fairness.virtue,,,,,,,0,169,169,169,,,,,,,,,,,,,,,,,,,,,AMP,right,1.2672876459546387,,,right,0,1.2672876459546387,0,,,,,,,,,,,,,,,,,,,,,,1011,2019_Mar_06_1150,mf_amp_cond1,3.0.4,59.99007211918218,
rejected,lursuer,&&&&&&&,right,authority.vice,,,,,,,0,170,170,170,,,,,,,,,,,,,,,,,,,,,AMP,left,0.3670272850431502,,,left,0,0.3670272850431502,0,,,,,,,,,,,,,,,,,,,,,,1011,2019_Mar_06_1150,mf_amp_cond1,3.0.4,59.99007211918218,
metibolic,troubla,&&&&&&&,None,nonword,,,,,,,0,171,171,171,,,,,,,,,,,,,,,,,,,,,AMP,left,1.6173808795865625,,,left,0,1.6173808795865625,0,,,,,,,,,,,,,,,,,,,,,,1011,2019_Mar_06_1150,mf_amp_cond1,3.0.4,59.99007211918218,
trust,bruthfulness,&&&&&&&&&&&&,left,authority.virtue,,,,,,,0,172,172,172,,,,,,,,,,,,,,,,,,,,,AMP,left,0.7337867681635544,,,left,1,0.7337867681635544,1,,,,,,,,,,,,,,,,,,,,,,1011,2019_Mar_06_1150,mf_amp_cond1,3.0.4,59.99007211918218,
rebels,ecgagement,&&&&&&&&&&,right,authority.vice,,,,,,,0,173,173,173,,,,,,,,,,,,,,,,,,,,,AMP,right,0.9338375703664497,,,right,1,0.9338375703664497,1,,,,,,,,,,,,,,,,,,,,,,1011,2019_Mar_06_1150,mf_amp_cond1,3.0.4,59.99007211918218,
corruption,nonobservalt,&&&&&&&&&&&&,right,sanctity.vice,,,,,,,0,174,174,174,,,,,,,,,,,,,,,,,,,,,AMP,left,0.9172078828560188,,,left,0,0.9172078828560188,0,,,,,,,,,,,,,,,,,,,,,,1011,2019_Mar_06_1150,mf_amp_cond1,3.0.4,59.99007211918218,
imebreaker,shoirmaster,&&&&&&&&&&&,None,nonword,,,,,,,0,175,175,175,,,,,,,,,,,,,,,,,,,,,AMP,left,0.7504488485865295,,,left,0,0.7504488485865295,0,,,,,,,,,,,,,,,,,,,,,,1011,2019_Mar_06_1150,mf_amp_cond1,3.0.4,59.99007211918218,
blamed,disregord,&&&&&&&&&,right,loyalty.vice,,,,,,,0,176,176,176,,,,,,,,,,,,,,,,,,,,,AMP,left,0.9838953320868313,,,left,0,0.9838953320868313,0,,,,,,,,,,,,,,,,,,,,,,1011,2019_Mar_06_1150,mf_amp_cond1,3.0.4,59.99007211918218,
celebrated,scock,&&&&&,left,authority.virtue,,,,,,,0,177,177,177,,,,,,,,,,,,,,,,,,,,,AMP,left,1.2339140943950042,,,left,1,1.2339140943950042,1,,,,,,,,,,,,,,,,,,,,,,1011,2019_Mar_06_1150,mf_amp_cond1,3.0.4,59.99007211918218,
hate,pafer,&&&&&,right,fairness.vice,,,,,,,0,178,178,178,,,,,,,,,,,,,,,,,,,,,AMP,left,1.0505173545097932,,,left,0,1.0505173545097932,0,,,,,,,,,,,,,,,,,,,,,,1011,2019_Mar_06_1150,mf_amp_cond1,3.0.4,59.99007211918218,
ability,prones,&&&&&&,left,authority.virtue,,,,,,,0,179,179,179,,,,,,,,,,,,,,,,,,,,,AMP,right,1.4339841397013515,,,right,0,1.4339841397013515,0,,,,,,,,,,,,,,,,,,,,,,1011,2019_Mar_06_1150,mf_amp_cond1,3.0.4,59.99007211918218,
lies,bycled,&&&&&&,right,fairness.vice,,,,,,,0,180,180,180,,,,,,,,,,,,,,,,,,,,,AMP,left,0.4003941015107557,,,left,0,0.4003941015107557,0,,,,,,,,,,,,,,,,,,,,,,1011,2019_Mar_06_1150,mf_amp_cond1,3.0.4,59.99007211918218,
victims,noped,&&&&&,right,care.vice,,,,,,,0,181,181,181,,,,,,,,,,,,,,,,,,,,,AMP,left,0.5004031457938254,,,left,0,0.5004031457938254,0,,,,,,,,,,,,,,,,,,,,,,1011,2019_Mar_06_1150,mf_amp_cond1,3.0.4,59.99007211918218,
injured,papert,&&&&&&,right,care.vice,,,,,,,0,182,182,182,,,,,,,,,,,,,,,,,,,,,AMP,right,2.0007488827686757,,,right,1,2.0007488827686757,1,,,,,,,,,,,,,,,,,,,,,,1011,2019_Mar_06_1150,mf_amp_cond1,3.0.4,59.99007211918218,
men,nomparisons,&&&&&&&&&&&,right,loyalty.vice,,,,,,,0,183,183,183,,,,,,,,,,,,,,,,,,,,,AMP,left,0.8505412802333012,,,left,0,0.8505412802333012,0,,,,,,,,,,,,,,,,,,,,,,1011,2019_Mar_06_1150,mf_amp_cond1,3.0.4,59.99007211918218,
promised,letish,&&&&&&,left,loyalty.virtue,,,,,,,0,184,184,184,,,,,,,,,,,,,,,,,,,,,AMP,left,0.6671115062199533,,,left,1,0.6671115062199533,1,,,,,,,,,,,,,,,,,,,,,,1011,2019_Mar_06_1150,mf_amp_cond1,3.0.4,59.99007211918218,
praise,reelectiob,&&&&&&&&&&,left,authority.virtue,,,,,,,0,185,185,185,,,,,,,,,,,,,,,,,,,,,AMP,left,1.283929521101527,,,left,1,1.283929521101527,1,,,,,,,,,,,,,,,,,,,,,,1011,2019_Mar_06_1150,mf_amp_cond1,3.0.4,59.99007211918218,
quarterbocks,focomotive,&&&&&&&&&&,None,nonword,,,,,,,0,186,186,186,,,,,,,,,,,,,,,,,,,,,AMP,right,0.5670938024995849,,,right,0,0.5670938024995849,0,,,,,,,,,,,,,,,,,,,,,,1011,2019_Mar_06_1150,mf_amp_cond1,3.0.4,59.99007211918218,
encourage,tove,&&&&,left,authority.virtue,,,,,,,0,187,187,187,,,,,,,,,,,,,,,,,,,,,AMP,right,0.5337375696981326,,,right,0,0.5337375696981326,0,,,,,,,,,,,,,,,,,,,,,,1011,2019_Mar_06_1150,mf_amp_cond1,3.0.4,59.99007211918218,
embrace,wump,&&&&,left,authority.virtue,,,,,,,0,188,188,188,,,,,,,,,,,,,,,,,,,,,AMP,right,0.7004465714562684,,,right,0,0.7004465714562684,0,,,,,,,,,,,,,,,,,,,,,,1011,2019_Mar_06_1150,mf_amp_cond1,3.0.4,59.99007211918218,
opportunity,elduringly,&&&&&&&&&&,left,fairness.virtue,,,,,,,0,189,189,189,,,,,,,,,,,,,,,,,,,,,AMP,right,0.583739205263555,,,right,0,0.583739205263555,0,,,,,,,,,,,,,,,,,,,,,,1011,2019_Mar_06_1150,mf_amp_cond1,3.0.4,59.99007211918218,
lorthwhile,idexpressible,&&&&&&&&&&&&&,None,nonword,,,,,,,0,190,190,190,,,,,,,,,,,,,,,,,,,,,AMP,left,0.4503797012148425,,,left,0,0.4503797012148425,0,,,,,,,,,,,,,,,,,,,,,,1011,2019_Mar_06_1150,mf_amp_cond1,3.0.4,59.99007211918218,
harassment,asn,&&&,right,sanctity.vice,,,,,,,0,191,191,191,,,,,,,,,,,,,,,,,,,,,AMP,left,0.9505455137696117,,,left,0,0.9505455137696117,0,,,,,,,,,,,,,,,,,,,,,,1011,2019_Mar_06_1150,mf_amp_cond1,3.0.4,59.99007211918218,
intelligence,proached,&&&&&&&&,left,loyalty.virtue,,,,,,,0,192,192,192,,,,,,,,,,,,,,,,,,,,,AMP,right,0.7837980255717412,,,right,0,0.7837980255717412,0,,,,,,,,,,,,,,,,,,,,,,1011,2019_Mar_06_1150,mf_amp_cond1,3.0.4,59.99007211918218,
perfect,scalbel,&&&&&&&,left,sanctity.virtue,,,,,,,0,193,193,193,,,,,,,,,,,,,,,,,,,,,AMP,left,0.7004411191446707,,,left,1,0.7004411191446707,1,,,,,,,,,,,,,,,,,,,,,,1011,2019_Mar_06_1150,mf_amp_cond1,3.0.4,59.99007211918218,
health,photocalkodes,&&&&&&&&&&&&&,left,care.virtue,,,,,,,0,194,194,194,,,,,,,,,,,,,,,,,,,,,AMP,right,0.5004005801165476,,,right,0,0.5004005801165476,0,,,,,,,,,,,,,,,,,,,,,,1011,2019_Mar_06_1150,mf_amp_cond1,3.0.4,59.99007211918218,
accused,smapper,&&&&&&&,right,fairness.vice,,,,,,,0,195,195,195,,,,,,,,,,,,,,,,,,,,,AMP,left,0.6337652157526463,,,left,0,0.6337652157526463,0,,,,,,,,,,,,,,,,,,,,,,1011,2019_Mar_06_1150,mf_amp_cond1,3.0.4,59.99007211918218,
penalty,wonderfujnoss,&&&&&&&&&&&&&,right,authority.vice,,,,,,,0,196,196,196,,,,,,,,,,,,,,,,,,,,,AMP,right,0.6671022053342313,,,right,1,0.6671022053342313,1,,,,,,,,,,,,,,,,,,,,,,1011,2019_Mar_06_1150,mf_amp_cond1,3.0.4,59.99007211918218,
friends,vicissifude,&&&&&&&&&&&,left,loyalty.virtue,,,,,,,0,197,197,197,,,,,,,,,,,,,,,,,,,,,AMP,left,0.7838009119732305,,,left,1,0.7838009119732305,1,,,,,,,,,,,,,,,,,,,,,,1011,2019_Mar_06_1150,mf_amp_cond1,3.0.4,59.99007211918218,
stindig,ebbitter,&&&&&&&&,None,nonword,,,,,,,0,198,198,198,,,,,,,,,,,,,,,,,,,,,AMP,left,0.4170269963797182,,,left,0,0.4170269963797182,0,,,,,,,,,,,,,,,,,,,,,,1011,2019_Mar_06_1150,mf_amp_cond1,3.0.4,59.99007211918218,
hatigue,hefurbished,&&&&&&&&&&&,None,nonword,,,,,,,0,199,199,199,,,,,,,,,,,,,,,,,,,,,AMP,left,0.46705108240712434,,,left,0,0.46705108240712434,0,,,,,,,,,,,,,,,,,,,,,,1011,2019_Mar_06_1150,mf_amp_cond1,3.0.4,59.99007211918218,
interests,honstables,&&&&&&&&&&,left,fairness.virtue,,,,,,,0,200,200,200,,,,,,,,,,,,,,,,,,,,,AMP,right,0.8171372601063922,,,right,0,0.8171372601063922,0,,,,,,,,,,,,,,,,,,,,,,1011,2019_Mar_06_1150,mf_amp_cond1,3.0.4,59.99007211918218,
killed,reprisols,&&&&&&&&&,right,care.vice,,,,,,,0,201,201,201,,,,,,,,,,,,,,,,,,,,,AMP,left,0.41704271163325757,,,left,0,0.41704271163325757,0,,,,,,,,,,,,,,,,,,,,,,1011,2019_Mar_06_1150,mf_amp_cond1,3.0.4,59.99007211918218,
safe,pumber,&&&&&&,left,care.virtue,,,,,,,0,202,202,202,,,,,,,,,,,,,,,,,,,,,AMP,right,0.5170588118489832,,,right,0,0.5170588118489832,0,,,,,,,,,,,,,,,,,,,,,,1011,2019_Mar_06_1150,mf_amp_cond1,3.0.4,59.99007211918218,
died,ronviolence,&&&&&&&&&&&,right,care.vice,,,,,,,0,203,203,203,,,,,,,,,,,,,,,,,,,,,AMP,left,0.38369289331603795,,,left,0,0.38369289331603795,0,,,,,,,,,,,,,,,,,,,,,,1011,2019_Mar_06_1150,mf_amp_cond1,3.0.4,59.99007211918218,
crime,allears,&&&&&&&,right,fairness.vice,,,,,,,0,204,204,204,,,,,,,,,,,,,,,,,,,,,AMP,right,1.1505712997168303,,,right,1,1.1505712997168303,1,,,,,,,,,,,,,,,,,,,,,,1011,2019_Mar_06_1150,mf_amp_cond1,3.0.4,59.99007211918218,
terrorist,unreflectuve,&&&&&&&&&&&&,right,loyalty.vice,,,,,,,0,205,205,205,,,,,,,,,,,,,,,,,,,,,AMP,right,0.8338185836328194,,,right,1,0.8338185836328194,1,,,,,,,,,,,,,,,,,,,,,,1011,2019_Mar_06_1150,mf_amp_cond1,3.0.4,59.99007211918218,
loyalty,greaks,&&&&&&,left,loyalty.virtue,,,,,,,0,206,206,206,,,,,,,,,,,,,,,,,,,,,AMP,right,0.88383753830567,,,right,0,0.88383753830567,0,,,,,,,,,,,,,,,,,,,,,,1011,2019_Mar_06_1150,mf_amp_cond1,3.0.4,59.99007211918218,
prison,Oregoniuns,&&&&&&&&&&,right,fairness.vice,,,,,,,0,207,207,207,,,,,,,,,,,,,,,,,,,,,AMP,left,0.5670912367058918,,,left,0,0.5670912367058918,0,,,,,,,,,,,,,,,,,,,,,,1011,2019_Mar_06_1150,mf_amp_cond1,3.0.4,59.99007211918218,
officers,abointment,&&&&&&&&&&,right,authority.vice,,,,,,,0,208,208,208,,,,,,,,,,,,,,,,,,,,,AMP,right,1.1338947869371623,,,right,1,1.1338947869371623,1,,,,,,,,,,,,,,,,,,,,,,1011,2019_Mar_06_1150,mf_amp_cond1,3.0.4,59.99007211918218,
credit,vurtain,&&&&&&&,left,fairness.virtue,,,,,,,0,209,209,209,,,,,,,,,,,,,,,,,,,,,AMP,left,0.36703690653666854,,,left,1,0.36703690653666854,1,,,,,,,,,,,,,,,,,,,,,,1011,2019_Mar_06_1150,mf_amp_cond1,3.0.4,59.99007211918218,
torture,godlaness,&&&&&&&&&,right,care.vice,,,,,,,0,210,210,210,,,,,,,,,,,,,,,,,,,,,AMP,left,0.400220270967111,,,left,0,0.400220270967111,0,,,,,,,,,,,,,,,,,,,,,,1011,2019_Mar_06_1150,mf_amp_cond1,3.0.4,59.99007211918218,
energy,alar,&&&&,left,sanctity.virtue,,,,,,,0,211,211,211,,,,,,,,,,,,,,,,,,,,,AMP,right,0.3169903700472787,,,right,0,0.3169903700472787,0,,,,,,,,,,,,,,,,,,,,,,1011,2019_Mar_06_1150,mf_amp_cond1,3.0.4,59.99007211918218,
freedom,nomaric,&&&&&&&,left,sanctity.virtue,,,,,,,0,212,212,212,,,,,,,,,,,,,,,,,,,,,AMP,right,0.6670909801032394,,,right,0,0.6670909801032394,0,,,,,,,,,,,,,,,,,,,,,,1011,2019_Mar_06_1150,mf_amp_cond1,3.0.4,59.99007211918218,
slavery,drumbled,&&&&&&&&,right,loyalty.vice,,,,,,,0,213,213,213,,,,,,,,,,,,,,,,,,,,,AMP,left,0.38368583749979734,,,left,0,0.38368583749979734,0,,,,,,,,,,,,,,,,,,,,,,1011,2019_Mar_06_1150,mf_amp_cond1,3.0.4,59.99007211918218,
army,chared,&&&&&&,right,loyalty.vice,,,,,,,0,214,214,214,,,,,,,,,,,,,,,,,,,,,AMP,right,0.783783593098633,,,right,1,0.783783593098633,1,,,,,,,,,,,,,,,,,,,,,,1011,2019_Mar_06_1150,mf_amp_cond1,3.0.4,59.99007211918218,
praised,emassion,&&&&&&&&,left,loyalty.virtue,,,,,,,0,215,215,215,,,,,,,,,,,,,,,,,,,,,AMP,right,0.38370091118849814,,,right,0,0.38370091118849814,0,,,,,,,,,,,,,,,,,,,,,,1011,2019_Mar_06_1150,mf_amp_cond1,3.0.4,59.99007211918218,
charges,egpeditious,&&&&&&&&&&&,right,fairness.vice,,,,,,,0,216,216,216,,,,,,,,,,,,,,,,,,,,,AMP,right,0.583742733229883,,,right,1,0.583742733229883,1,,,,,,,,,,,,,,,,,,,,,,1011,2019_Mar_06_1150,mf_amp_cond1,3.0.4,59.99007211918218,
scandal,laming,&&&&&&,right,sanctity.vice,,,,,,,0,217,217,217,,,,,,,,,,,,,,,,,,,,,AMP,right,0.8004604266025126,,,right,1,0.8004604266025126,1,,,,,,,,,,,,,,,,,,,,,,1011,2019_Mar_06_1150,mf_amp_cond1,3.0.4,59.99007211918218,
great,gillipede,&&&&&&&&&,left,loyalty.virtue,,,,,,,0,218,218,218,,,,,,,,,,,,,,,,,,,,,AMP,left,0.450374890351668,,,left,1,0.450374890351668,1,,,,,,,,,,,,,,,,,,,,,,1011,2019_Mar_06_1150,mf_amp_cond1,3.0.4,59.99007211918218,
protect,epigrach,&&&&&&&&,left,fairness.virtue,,,,,,,0,219,219,219,,,,,,,,,,,,,,,,,,,,,AMP,right,0.5170620190910995,,,right,0,0.5170620190910995,0,,,,,,,,,,,,,,,,,,,,,,1011,2019_Mar_06_1150,mf_amp_cond1,3.0.4,59.99007211918218,
serial,blunderints,&&&&&&&&&&&,right,sanctity.vice,,,,,,,0,220,220,220,,,,,,,,,,,,,,,,,,,,,AMP,right,1.1672179854940623,,,right,1,1.1672179854940623,1,,,,,,,,,,,,,,,,,,,,,,1011,2019_Mar_06_1150,mf_amp_cond1,3.0.4,59.99007211918218,
improve,baklara,&&&&&&&,left,care.virtue,,,,,,,0,221,221,221,,,,,,,,,,,,,,,,,,,,,AMP,left,0.817148485337384,,,left,1,0.817148485337384,1,,,,,,,,,,,,,,,,,,,,,,1011,2019_Mar_06_1150,mf_amp_cond1,3.0.4,59.99007211918218,
illegal,totalestic,&&&&&&&&&&,right,fairness.vice,,,,,,,0,222,222,222,,,,,,,,,,,,,,,,,,,,,AMP,right,0.6170912687666714,,,right,1,0.6170912687666714,1,,,,,,,,,,,,,,,,,,,,,,1011,2019_Mar_06_1150,mf_amp_cond1,3.0.4,59.99007211918218,
fear,leact,&&&&&,right,sanctity.vice,,,,,,,0,223,223,223,,,,,,,,,,,,,,,,,,,,,AMP,right,1.200579029158689,,,right,1,1.200579029158689,1,,,,,,,,,,,,,,,,,,,,,,1011,2019_Mar_06_1150,mf_amp_cond1,3.0.4,59.99007211918218,
increase,sidearbs,&&&&&&&&,left,care.virtue,,,,,,,0,224,224,224,,,,,,,,,,,,,,,,,,,,,AMP,right,0.8004713311092928,,,right,0,0.8004713311092928,0,,,,,,,,,,,,,,,,,,,,,,1011,2019_Mar_06_1150,mf_amp_cond1,3.0.4,59.99007211918218,
commitment,divility,&&&&&&&&,left,sanctity.virtue,,,,,,,0,225,225,225,,,,,,,,,,,,,,,,,,,,,AMP,right,0.7338053699349985,,,right,0,0.7338053699349985,0,,,,,,,,,,,,,,,,,,,,,,1011,2019_Mar_06_1150,mf_amp_cond1,3.0.4,59.99007211918218,
ensure,rorroborated,&&&&&&&&&&&&,left,fairness.virtue,,,,,,,0,226,226,226,,,,,,,,,,,,,,,,,,,,,AMP,left,0.6504372385097668,,,left,1,0.6504372385097668,1,,,,,,,,,,,,,,,,,,,,,,1011,2019_Mar_06_1150,mf_amp_cond1,3.0.4,59.99007211918218,
troops,refuejing,&&&&&&&&&,right,loyalty.vice,,,,,,,0,227,227,227,,,,,,,,,,,,,,,,,,,,,AMP,left,0.6670483242487535,,,left,0,0.6670483242487535,0,,,,,,,,,,,,,,,,,,,,,,1011,2019_Mar_06_1150,mf_amp_cond1,3.0.4,59.99007211918218,
halaise,festate,&&&&&&&,None,nonword,,,,,,,0,228,228,228,,,,,,,,,,,,,,,,,,,,,AMP,left,0.550409592455253,,,left,0,0.550409592455253,0,,,,,,,,,,,,,,,,,,,,,,1011,2019_Mar_06_1150,mf_amp_cond1,3.0.4,59.99007211918218,
racist,rivernoat,&&&&&&&&&,right,sanctity.vice,,,,,,,0,229,229,229,,,,,,,,,,,,,,,,,,,,,AMP,left,0.9671768049011007,,,left,0,0.9671768049011007,0,,,,,,,,,,,,,,,,,,,,,,1011,2019_Mar_06_1150,mf_amp_cond1,3.0.4,59.99007211918218,
unscothed,fornicalion,&&&&&&&&&&&,None,nonword,,,,,,,0,230,230,230,,,,,,,,,,,,,,,,,,,,,AMP,left,0.5670816149795428,,,left,0,0.5670816149795428,0,,,,,,,,,,,,,,,,,,,,,,1011,2019_Mar_06_1150,mf_amp_cond1,3.0.4,59.99007211918218,
unpleasant,iptervention,&&&&&&&&&&&&,None,control,,,,,,,0,231,231,231,,,,,,,,,,,,,,,,,,,,,AMP,right,1.2339112077606842,,,right,0,1.2339112077606842,0,,,,,,,,,,,,,,,,,,,,,,1011,2019_Mar_06_1150,mf_amp_cond1,3.0.4,59.99007211918218,
strength,ugeasily,&&&&&&&&,left,sanctity.virtue,,,,,,,0,232,232,232,,,,,,,,,,,,,,,,,,,,,AMP,left,1.0505430122138932,,,left,1,1.0505430122138932,1,,,,,,,,,,,,,,,,,,,,,,1011,2019_Mar_06_1150,mf_amp_cond1,3.0.4,59.99007211918218,
groups,erks,&&&&,right,loyalty.vice,,,,,,,0,233,233,233,,,,,,,,,,,,,,,,,,,,,AMP,left,1.8507372406311333,,,left,0,1.8507372406311333,0,,,,,,,,,,,,,,,,,,,,,,1011,2019_Mar_06_1150,mf_amp_cond1,3.0.4,59.99007211918218,
clean,sonvoy,&&&&&&,left,sanctity.virtue,,,,,,,0,234,234,234,,,,,,,,,,,,,,,,,,,,,AMP,right,1.1839339470025152,,,right,0,1.1839339470025152,0,,,,,,,,,,,,,,,,,,,,,,1011,2019_Mar_06_1150,mf_amp_cond1,3.0.4,59.99007211918218,
simplustic,saned,&&&&&,None,nonword,,,,,,,0,235,235,235,,,,,,,,,,,,,,,,,,,,,AMP,right,0.7838021948700771,,,right,0,0.7838021948700771,0,,,,,,,,,,,,,,,,,,,,,,1011,2019_Mar_06_1150,mf_amp_cond1,3.0.4,59.99007211918218,
progress,spag,&&&&,left,authority.virtue,,,,,,,0,236,236,236,,,,,,,,,,,,,,,,,,,,,AMP,right,0.7337755430489779,,,right,0,0.7337755430489779,0,,,,,,,,,,,,,,,,,,,,,,1011,2019_Mar_06_1150,mf_amp_cond1,3.0.4,59.99007211918218,
suicide,sgrawl,&&&&&&,right,care.vice,,,,,,,0,237,237,237,,,,,,,,,,,,,,,,,,,,,AMP,left,0.5003983350470662,,,left,0,0.5003983350470662,0,,,,,,,,,,,,,,,,,,,,,,1011,2019_Mar_06_1150,mf_amp_cond1,3.0.4,59.99007211918218,
hand,Cunday,&&&&&&,left,sanctity.virtue,,,,,,,0,238,238,238,,,,,,,,,,,,,,,,,,,,,AMP,right,1.2339112078770995,,,right,0,1.2339112078770995,0,,,,,,,,,,,,,,,,,,,,,,1011,2019_Mar_06_1150,mf_amp_cond1,3.0.4,59.99007211918218,
agreement,fostet,&&&&&&,left,fairness.virtue,,,,,,,0,239,239,239,,,,,,,,,,,,,,,,,,,,,AMP,right,0.883831444545649,,,right,0,0.883831444545649,0,,,,,,,,,,,,,,,,,,,,,,1011,2019_Mar_06_1150,mf_amp_cond1,3.0.4,59.99007211918218,
refused,tracious,&&&&&&&&,right,authority.vice,,,,,,,0,240,240,240,,,,,,,,,,,,,,,,,,,,,AMP,left,0.5170748479431495,,,left,0,0.5170748479431495,0,,,,,,,,,,,,,,,,,,,,,,1011,2019_Mar_06_1150,mf_amp_cond1,3.0.4,59.99007211918218,
sharing,gedious,&&&&&&&,left,loyalty.virtue,,,,,,,0,241,241,241,,,,,,,,,,,,,,,,,,,,,AMP,right,0.7837951389374211,,,right,0,0.7837951389374211,0,,,,,,,,,,,,,,,,,,,,,,1011,2019_Mar_06_1150,mf_amp_cond1,3.0.4,59.99007211918218,
drug,gikely,&&&&&&,right,sanctity.vice,,,,,,,0,242,242,242,,,,,,,,,,,,,,,,,,,,,AMP,left,1.0338918362976983,,,left,0,1.0338918362976983,0,,,,,,,,,,,,,,,,,,,,,,1011,2019_Mar_06_1150,mf_amp_cond1,3.0.4,59.99007211918218,
fighters,Boeinf,&&&&&&,right,authority.vice,,,,,,,0,243,243,243,,,,,,,,,,,,,,,,,,,,,AMP,left,0.6337639328557998,,,left,0,0.6337639328557998,0,,,,,,,,,,,,,,,,,,,,,,1011,2019_Mar_06_1150,mf_amp_cond1,3.0.4,59.99007211918218,
pleasant,ablow,&&&&&,None,control,,,,,,,0,244,244,244,,,,,,,,,,,,,,,,,,,,,AMP,right,0.3336928612552583,,,right,0,0.3336928612552583,0,,,,,,,,,,,,,,,,,,,,,,1011,2019_Mar_06_1150,mf_amp_cond1,3.0.4,59.99007211918218,
arrests,chressing,&&&&&&&&&,right,authority.vice,,,,,,,0,245,245,245,,,,,,,,,,,,,,,,,,,,,AMP,left,0.6504330692114308,,,left,0,0.6504330692114308,0,,,,,,,,,,,,,,,,,,,,,,1011,2019_Mar_06_1150,mf_amp_cond1,3.0.4,59.99007211918218,
friends,gikely,&&&&&&,left,loyalty.virtue,,,,,,,0,246,246,246,,,,,,,,,,,,,,,,,,,,,AMP,left,0.4170154503080994,,,left,1,0.4170154503080994,1,,,,,,,,,,,,,,,,,,,,,,1011,2019_Mar_06_1150,mf_amp_cond1,3.0.4,59.99007211918218,
hatigue,leact,&&&&&,None,nonword,,,,,,,0,247,247,247,,,,,,,,,,,,,,,,,,,,,AMP,right,0.567089312360622,,,right,0,0.567089312360622,0,,,,,,,,,,,,,,,,,,,,,,1011,2019_Mar_06_1150,mf_amp_cond1,3.0.4,59.99007211918218,
praised,lenon,&&&&&,left,loyalty.virtue,,,,,,,0,248,248,248,,,,,,,,,,,,,,,,,,,,,AMP,right,0.5337766975862905,,,right,0,0.5337766975862905,0,,,,,,,,,,,,,,,,,,,,,,1011,2019_Mar_06_1150,mf_amp_cond1,3.0.4,59.99007211918218,
racist,festate,&&&&&&&,right,sanctity.vice,,,,,,,0,249,249,249,,,,,,,,,,,,,,,,,,,,,AMP,left,0.3336819567484781,,,left,0,0.3336819567484781,0,,,,,,,,,,,,,,,,,,,,,,1011,2019_Mar_06_1150,mf_amp_cond1,3.0.4,59.99007211918218,
died,nomparisons,&&&&&&&&&&&,right,care.vice,,,,,,,0,250,250,250,,,,,,,,,,,,,,,,,,,,,AMP,right,1.3005560013698414,,,right,1,1.3005560013698414,1,,,,,,,,,,,,,,,,,,,,,,1011,2019_Mar_06_1150,mf_amp_cond1,3.0.4,59.99007211918218,
accused,bycled,&&&&&&,right,fairness.vice,,,,,,,0,251,251,251,,,,,,,,,,,,,,,,,,,,,AMP,right,0.7669303632574156,,,right,1,0.7669303632574156,1,,,,,,,,,,,,,,,,,,,,,,1011,2019_Mar_06_1150,mf_amp_cond1,3.0.4,59.99007211918218,
metibolic,ejanulated,&&&&&&&&&&,None,nonword,,,,,,,0,252,252,252,,,,,,,,,,,,,,,,,,,,,AMP,left,0.4503787390422076,,,left,0,0.4503787390422076,0,,,,,,,,,,,,,,,,,,,,,,1011,2019_Mar_06_1150,mf_amp_cond1,3.0.4,59.99007211918218,
injured,smapper,&&&&&&&,right,care.vice,,,,,,,0,253,253,253,,,,,,,,,,,,,,,,,,,,,AMP,left,0.5837934071896598,,,left,0,0.5837934071896598,0,,,,,,,,,,,,,,,,,,,,,,1011,2019_Mar_06_1150,mf_amp_cond1,3.0.4,59.99007211918218,
win,divility,&&&&&&&&,left,fairness.virtue,,,,,,,0,254,254,254,,,,,,,,,,,,,,,,,,,,,AMP,right,0.7171198769938201,,,right,0,0.7171198769938201,0,,,,,,,,,,,,,,,,,,,,,,1011,2019_Mar_06_1150,mf_amp_cond1,3.0.4,59.99007211918218,
restore,honstables,&&&&&&&&&&,left,care.virtue,,,,,,,0,255,255,255,,,,,,,,,,,,,,,,,,,,,AMP,right,0.5337282688124105,,,right,0,0.5337282688124105,0,,,,,,,,,,,,,,,,,,,,,,1011,2019_Mar_06_1150,mf_amp_cond1,3.0.4,59.99007211918218,
suicide,vicissifude,&&&&&&&&&&&,right,care.vice,,,,,,,0,256,256,256,,,,,,,,,,,,,,,,,,,,,AMP,left,0.5504051023162901,,,left,0,0.5504051023162901,0,,,,,,,,,,,,,,,,,,,,,,1011,2019_Mar_06_1150,mf_amp_cond1,3.0.4,59.99007211918218,
celebrated,erks,&&&&,left,authority.virtue,,,,,,,0,257,257,257,,,,,,,,,,,,,,,,,,,,,AMP,right,0.6004214910790324,,,right,0,0.6004214910790324,0,,,,,,,,,,,,,,,,,,,,,,1011,2019_Mar_06_1150,mf_amp_cond1,3.0.4,59.99007211918218,
praise,letish,&&&&&&,left,authority.virtue,,,,,,,0,258,258,258,,,,,,,,,,,,,,,,,,,,,AMP,right,0.6004311128053814,,,right,0,0.6004311128053814,0,,,,,,,,,,,,,,,,,,,,,,1011,2019_Mar_06_1150,mf_amp_cond1,3.0.4,59.99007211918218,
compassion,asn,&&&,left,care.virtue,,,,,,,0,259,259,259,,,,,,,,,,,,,,,,,,,,,AMP,right,0.5504163274308667,,,right,0,0.5504163274308667,0,,,,,,,,,,,,,,,,,,,,,,1011,2019_Mar_06_1150,mf_amp_cond1,3.0.4,59.99007211918218,
troops,gillipede,&&&&&&&&&,right,loyalty.vice,,,,,,,0,260,260,260,,,,,,,,,,,,,,,,,,,,,AMP,left,0.5504047814756632,,,left,0,0.5504047814756632,0,,,,,,,,,,,,,,,,,,,,,,1011,2019_Mar_06_1150,mf_amp_cond1,3.0.4,59.99007211918218,
improve,reprisols,&&&&&&&&&,left,care.virtue,,,,,,,0,261,261,261,,,,,,,,,,,,,,,,,,,,,AMP,left,0.5337487949291244,,,left,1,0.5337487949291244,1,,,,,,,,,,,,,,,,,,,,,,1011,2019_Mar_06_1150,mf_amp_cond1,3.0.4,59.99007211918218,
ability,lursuer,&&&&&&&,left,authority.virtue,,,,,,,0,262,262,262,,,,,,,,,,,,,,,,,,,,,AMP,left,0.5336695768637583,,,left,1,0.5336695768637583,1,,,,,,,,,,,,,,,,,,,,,,1011,2019_Mar_06_1150,mf_amp_cond1,3.0.4,59.99007211918218,
illegal,idexpressible,&&&&&&&&&&&&&,right,fairness.vice,,,,,,,0,263,263,263,,,,,,,,,,,,,,,,,,,,,AMP,left,0.3837002698564902,,,left,0,0.3837002698564902,0,,,,,,,,,,,,,,,,,,,,,,1011,2019_Mar_06_1150,mf_amp_cond1,3.0.4,59.99007211918218,
freedom,emassion,&&&&&&&&,left,sanctity.virtue,,,,,,,0,264,264,264,,,,,,,,,,,,,,,,,,,,,AMP,right,0.28367903805337846,,,right,0,0.28367903805337846,0,,,,,,,,,,,,,,,,,,,,,,1011,2019_Mar_06_1150,mf_amp_cond1,3.0.4,59.99007211918218,
promised,scock,&&&&&,left,loyalty.virtue,,,,,,,0,265,265,265,,,,,,,,,,,,,,,,,,,,,AMP,right,0.2836665300419554,,,right,0,0.2836665300419554,0,,,,,,,,,,,,,,,,,,,,,,1011,2019_Mar_06_1150,mf_amp_cond1,3.0.4,59.99007211918218,
quarterbocks,hefurbished,&&&&&&&&&&&,None,nonword,,,,,,,0,266,266,266,,,,,,,,,,,,,,,,,,,,,AMP,left,0.3837031563743949,,,left,0,0.3837031563743949,0,,,,,,,,,,,,,,,,,,,,,,1011,2019_Mar_06_1150,mf_amp_cond1,3.0.4,59.99007211918218,
men,prones,&&&&&&,right,loyalty.vice,,,,,,,0,267,267,267,,,,,,,,,,,,,,,,,,,,,AMP,left,0.48372502950951457,,,left,0,0.48372502950951457,0,,,,,,,,,,,,,,,,,,,,,,1011,2019_Mar_06_1150,mf_amp_cond1,3.0.4,59.99007211918218,
great,sonvoy,&&&&&&,left,loyalty.virtue,,,,,,,0,268,268,268,,,,,,,,,,,,,,,,,,,,,AMP,right,0.2670076568610966,,,right,0,0.2670076568610966,0,,,,,,,,,,,,,,,,,,,,,,1011,2019_Mar_06_1150,mf_amp_cond1,3.0.4,59.99007211918218,
embrace,ebbitter,&&&&&&&&,left,authority.virtue,,,,,,,0,269,269,269,,,,,,,,,,,,,,,,,,,,,AMP,right,0.4837275951867923,,,right,0,0.4837275951867923,0,,,,,,,,,,,,,,,,,,,,,,1011,2019_Mar_06_1150,mf_amp_cond1,3.0.4,59.99007211918218,
progress,ablow,&&&&&,left,authority.virtue,,,,,,,0,270,270,270,,,,,,,,,,,,,,,,,,,,,AMP,right,0.5669183682184666,,,right,0,0.5669183682184666,0,,,,,,,,,,,,,,,,,,,,,,1011,2019_Mar_06_1150,mf_amp_cond1,3.0.4,59.99007211918218,
army,rorroborated,&&&&&&&&&&&&,right,loyalty.vice,,,,,,,0,271,271,271,,,,,,,,,,,,,,,,,,,,,AMP,left,0.6004214910790324,,,left,0,0.6004214910790324,0,,,,,,,,,,,,,,,,,,,,,,1011,2019_Mar_06_1150,mf_amp_cond1,3.0.4,59.99007211918218,
rejected,iptervention,&&&&&&&&&&&&,right,authority.vice,,,,,,,0,272,272,272,,,,,,,,,,,,,,,,,,,,,AMP,left,0.4504060003673658,,,left,0,0.4504060003673658,0,,,,,,,,,,,,,,,,,,,,,,1011,2019_Mar_06_1150,mf_amp_cond1,3.0.4,59.99007211918218,
charges,pafer,&&&&&,right,fairness.vice,,,,,,,0,273,273,273,,,,,,,,,,,,,,,,,,,,,AMP,right,0.3836906482465565,,,right,1,0.3836906482465565,1,,,,,,,,,,,,,,,,,,,,,,1011,2019_Mar_06_1150,mf_amp_cond1,3.0.4,59.99007211918218,
drug,egpeditious,&&&&&&&&&&&,right,sanctity.vice,,,,,,,0,274,274,274,,,,,,,,,,,,,,,,,,,,,AMP,left,0.30034272209741175,,,left,0,0.30034272209741175,0,,,,,,,,,,,,,,,,,,,,,,1011,2019_Mar_06_1150,mf_amp_cond1,3.0.4,59.99007211918218,
energy,pumber,&&&&&&,left,sanctity.virtue,,,,,,,0,275,275,275,,,,,,,,,,,,,,,,,,,,,AMP,right,0.33370504854246974,,,right,0,0.33370504854246974,0,,,,,,,,,,,,,,,,,,,,,,1011,2019_Mar_06_1150,mf_amp_cond1,3.0.4,59.99007211918218,
fear,blunderints,&&&&&&&&&&&,right,sanctity.vice,,,,,,,0,276,276,276,,,,,,,,,,,,,,,,,,,,,AMP,left,0.4003315609879792,,,left,0,0.4003315609879792,0,,,,,,,,,,,,,,,,,,,,,,1011,2019_Mar_06_1150,mf_amp_cond1,3.0.4,59.99007211918218,
health,yane,&&&&,left,care.virtue,,,,,,,0,277,277,277,,,,,,,,,,,,,,,,,,,,,AMP,right,0.4170388630591333,,,right,0,0.4170388630591333,0,,,,,,,,,,,,,,,,,,,,,,1011,2019_Mar_06_1150,mf_amp_cond1,3.0.4,59.99007211918218,
opportunity,abointment,&&&&&&&&&&,left,fairness.virtue,,,,,,,0,278,278,278,,,,,,,,,,,,,,,,,,,,,AMP,right,0.35041138844098896,,,right,0,0.35041138844098896,0,,,,,,,,,,,,,,,,,,,,,,1011,2019_Mar_06_1150,mf_amp_cond1,3.0.4,59.99007211918218,
encourage,focomotive,&&&&&&&&&&,left,authority.virtue,,,,,,,0,279,279,279,,,,,,,,,,,,,,,,,,,,,AMP,right,0.38373041758313775,,,right,0,0.38373041758313775,0,,,,,,,,,,,,,,,,,,,,,,1011,2019_Mar_06_1150,mf_amp_cond1,3.0.4,59.99007211918218,
ensure,greaks,&&&&&&,left,fairness.virtue,,,,,,,0,280,280,280,,,,,,,,,,,,,,,,,,,,,AMP,left,0.4337227523792535,,,left,1,0.4337227523792535,1,,,,,,,,,,,,,,,,,,,,,,1011,2019_Mar_06_1150,mf_amp_cond1,3.0.4,59.99007211918218,
terrorist,nomaric,&&&&&&&,right,loyalty.vice,,,,,,,0,281,281,281,,,,,,,,,,,,,,,,,,,,,AMP,left,0.2670092604821548,,,left,0,0.2670092604821548,0,,,,,,,,,,,,,,,,,,,,,,1011,2019_Mar_06_1150,mf_amp_cond1,3.0.4,59.99007211918218,
sharing,wonderfujnoss,&&&&&&&&&&&&&,left,loyalty.virtue,,,,,,,0,282,282,282,,,,,,,,,,,,,,,,,,,,,AMP,right,0.31701570691075176,,,right,0,0.31701570691075176,0,,,,,,,,,,,,,,,,,,,,,,1011,2019_Mar_06_1150,mf_amp_cond1,3.0.4,59.99007211918218,
rebels,epigrach,&&&&&&&&,right,authority.vice,,,,,,,0,283,283,283,,,,,,,,,,,,,,,,,,,,,AMP,left,0.5504015743499622,,,left,0,0.5504015743499622,0,,,,,,,,,,,,,,,,,,,,,,1011,2019_Mar_06_1150,mf_amp_cond1,3.0.4,59.99007211918218,
fighters,vurtain,&&&&&&&,right,authority.vice,,,,,,,0,284,284,284,,,,,,,,,,,,,,,,,,,,,AMP,left,0.25033018190879375,,,left,0,0.25033018190879375,0,,,,,,,,,,,,,,,,,,,,,,1011,2019_Mar_06_1150,mf_amp_cond1,3.0.4,59.99007211918218,
blamed,ugeasily,&&&&&&&&,right,loyalty.vice,,,,,,,0,285,285,285,,,,,,,,,,,,,,,,,,,,,AMP,left,0.3670128524536267,,,left,0,0.3670128524536267,0,,,,,,,,,,,,,,,,,,,,,,1011,2019_Mar_06_1150,mf_amp_cond1,3.0.4,59.99007211918218,
killed,laming,&&&&&&,right,care.vice,,,,,,,0,286,286,286,,,,,,,,,,,,,,,,,,,,,AMP,left,0.6171265479642898,,,left,0,0.6171265479642898,0,,,,,,,,,,,,,,,,,,,,,,1011,2019_Mar_06_1150,mf_amp_cond1,3.0.4,59.99007211918218,
officers,nonobservalt,&&&&&&&&&&&&,right,authority.vice,,,,,,,0,287,287,287,,,,,,,,,,,,,,,,,,,,,AMP,left,0.9840422222623602,,,left,0,0.9840422222623602,0,,,,,,,,,,,,,,,,,,,,,,1011,2019_Mar_06_1150,mf_amp_cond1,3.0.4,59.99007211918218,
victim,sidearbs,&&&&&&&&,right,care.vice,,,,,,,0,288,288,288,,,,,,,,,,,,,,,,,,,,,AMP,left,0.38369898695964366,,,left,0,0.38369898695964366,0,,,,,,,,,,,,,,,,,,,,,,1011,2019_Mar_06_1150,mf_amp_cond1,3.0.4,59.99007211918218,
imebreaker,chressing,&&&&&&&&&,None,nonword,,,,,,,0,289,289,289,,,,,,,,,,,,,,,,,,,,,AMP,left,1.4839777573943138,,,left,0,1.4839777573943138,0,,,,,,,,,,,,,,,,,,,,,,1011,2019_Mar_06_1150,mf_amp_cond1,3.0.4,59.99007211918218,
peace,rivernoat,&&&&&&&&&,left,care.virtue,,,,,,,0,290,290,290,,,,,,,,,,,,,,,,,,,,,AMP,left,0.7171314230654389,,,left,1,0.7171314230654389,1,,,,,,,,,,,,,,,,,,,,,,1011,2019_Mar_06_1150,mf_amp_cond1,3.0.4,59.99007211918218,
unpleasant,sgrawl,&&&&&&,None,control,,,,,,,0,291,291,291,,,,,,,,,,,,,,,,,,,,,AMP,left,0.6837899433448911,,,left,0,0.6837899433448911,0,,,,,,,,,,,,,,,,,,,,,,1011,2019_Mar_06_1150,mf_amp_cond1,3.0.4,59.99007211918218,
bluently,noped,&&&&&,None,nonword,,,,,,,0,292,292,292,,,,,,,,,,,,,,,,,,,,,AMP,left,0.4003703682683408,,,left,0,0.4003703682683408,0,,,,,,,,,,,,,,,,,,,,,,1011,2019_Mar_06_1150,mf_amp_cond1,3.0.4,59.99007211918218,
refused,reelectiob,&&&&&&&&&&,right,authority.vice,,,,,,,0,293,293,293,,,,,,,,,,,,,,,,,,,,,AMP,left,0.500393524300307,,,left,0,0.500393524300307,0,,,,,,,,,,,,,,,,,,,,,,1011,2019_Mar_06_1150,mf_amp_cond1,3.0.4,59.99007211918218,
corruption,fegard,&&&&&&,right,sanctity.vice,,,,,,,0,294,294,294,,,,,,,,,,,,,,,,,,,,,AMP,left,0.3337351963855326,,,left,0,0.3337351963855326,0,,,,,,,,,,,,,,,,,,,,,,1011,2019_Mar_06_1150,mf_amp_cond1,3.0.4,59.99007211918218,
scandal,fornicalion,&&&&&&&&&&&,right,sanctity.vice,,,,,,,0,295,295,295,,,,,,,,,,,,,,,,,,,,,AMP,left,0.350333773996681,,,left,0,0.350333773996681,0,,,,,,,,,,,,,,,,,,,,,,1011,2019_Mar_06_1150,mf_amp_cond1,3.0.4,59.99007211918218,
pleasant,Oregoniuns,&&&&&&&&&&,None,control,,,,,,,0,296,296,296,,,,,,,,,,,,,,,,,,,,,AMP,left,0.517083507264033,,,left,0,0.517083507264033,0,,,,,,,,,,,,,,,,,,,,,,1011,2019_Mar_06_1150,mf_amp_cond1,3.0.4,59.99007211918218,
slavery,gondensed,&&&&&&&&&,right,loyalty.vice,,,,,,,0,297,297,297,,,,,,,,,,,,,,,,,,,,,AMP,left,0.3170288564870134,,,left,0,0.3170288564870134,0,,,,,,,,,,,,,,,,,,,,,,1011,2019_Mar_06_1150,mf_amp_cond1,3.0.4,59.99007211918218,
hand,saned,&&&&&,left,sanctity.virtue,,,,,,,0,298,298,298,,,,,,,,,,,,,,,,,,,,,AMP,right,0.6170845336746424,,,right,0,0.6170845336746424,0,,,,,,,,,,,,,,,,,,,,,,1011,2019_Mar_06_1150,mf_amp_cond1,3.0.4,59.99007211918218,
torture,papert,&&&&&&,right,care.vice,,,,,,,0,299,299,299,,,,,,,,,,,,,,,,,,,,,AMP,left,0.3170102547155693,,,left,0,0.3170102547155693,0,,,,,,,,,,,,,,,,,,,,,,1011,2019_Mar_06_1150,mf_amp_cond1,3.0.4,59.99007211918218,
trust,baklara,&&&&&&&,left,authority.virtue,,,,,,,0,300,300,300,,,,,,,,,,,,,,,,,,,,,AMP,right,0.4170593891758472,,,right,0,0.4170593891758472,0,,,,,,,,,,,,,,,,,,,,,,1011,2019_Mar_06_1150,mf_amp_cond1,3.0.4,59.99007211918218,
commitment,alar,&&&&,left,sanctity.virtue,,,,,,,0,301,301,301,,,,,,,,,,,,,,,,,,,,,AMP,right,1.000520208850503,,,right,0,1.000520208850503,0,,,,,,,,,,,,,,,,,,,,,,1011,2019_Mar_06_1150,mf_amp_cond1,3.0.4,59.99007211918218,
intelligence,allears,&&&&&&&,left,loyalty.virtue,,,,,,,0,302,302,302,,,,,,,,,,,,,,,,,,,,,AMP,right,0.45037424901966006,,,right,0,0.45037424901966006,0,,,,,,,,,,,,,,,,,,,,,,1011,2019_Mar_06_1150,mf_amp_cond1,3.0.4,59.99007211918218,
clean,Cunday,&&&&&&,left,sanctity.virtue,,,,,,,0,303,303,303,,,,,,,,,,,,,,,,,,,,,AMP,right,0.36703177506569773,,,right,0,0.36703177506569773,0,,,,,,,,,,,,,,,,,,,,,,1011,2019_Mar_06_1150,mf_amp_cond1,3.0.4,59.99007211918218,
protect,gedious,&&&&&&&,left,fairness.virtue,,,,,,,0,304,304,304,,,,,,,,,,,,,,,,,,,,,AMP,left,0.5670819358201697,,,left,1,0.5670819358201697,1,,,,,,,,,,,,,,,,,,,,,,1011,2019_Mar_06_1150,mf_amp_cond1,3.0.4,59.99007211918218,
loyalty,ecgagement,&&&&&&&&&&,left,loyalty.virtue,,,,,,,0,305,305,305,,,,,,,,,,,,,,,,,,,,,AMP,right,0.3170201970497146,,,right,0,0.3170201970497146,0,,,,,,,,,,,,,,,,,,,,,,1011,2019_Mar_06_1150,mf_amp_cond1,3.0.4,59.99007211918218,
increase,ronviolence,&&&&&&&&&&&,left,care.virtue,,,,,,,0,306,306,306,,,,,,,,,,,,,,,,,,,,,AMP,right,1.3839379239361733,,,right,0,1.3839379239361733,0,,,,,,,,,,,,,,,,,,,,,,1011,2019_Mar_06_1150,mf_amp_cond1,3.0.4,59.99007211918218,
perfect,disregord,&&&&&&&&&,left,sanctity.virtue,,,,,,,0,307,307,307,,,,,,,,,,,,,,,,,,,,,AMP,left,0.9838494691066444,,,left,1,0.9838494691066444,1,,,,,,,,,,,,,,,,,,,,,,1011,2019_Mar_06_1150,mf_amp_cond1,3.0.4,59.99007211918218,
credit,troubla,&&&&&&&,left,fairness.virtue,,,,,,,0,308,308,308,,,,,,,,,,,,,,,,,,,,,AMP,left,0.867152365972288,,,left,1,0.867152365972288,1,,,,,,,,,,,,,,,,,,,,,,1011,2019_Mar_06_1150,mf_amp_cond1,3.0.4,59.99007211918218,
lorthwhile,photocalkodes,&&&&&&&&&&&&&,None,nonword,,,,,,,0,309,309,309,,,,,,,,,,,,,,,,,,,,,AMP,left,0.6337414825102314,,,left,0,0.6337414825102314,0,,,,,,,,,,,,,,,,,,,,,,1011,2019_Mar_06_1150,mf_amp_cond1,3.0.4,59.99007211918218,
stindig,elduringly,&&&&&&&&&&,None,nonword,,,,,,,0,310,310,310,,,,,,,,,,,,,,,,,,,,,AMP,right,0.6170935138361529,,,right,0,0.6170935138361529,0,,,,,,,,,,,,,,,,,,,,,,1011,2019_Mar_06_1150,mf_amp_cond1,3.0.4,59.99007211918218,
serial,godlaness,&&&&&&&&&,right,sanctity.vice,,,,,,,0,311,311,311,,,,,,,,,,,,,,,,,,,,,AMP,left,0.41703950439114124,,,left,0,0.41703950439114124,0,,,,,,,,,,,,,,,,,,,,,,1011,2019_Mar_06_1150,mf_amp_cond1,3.0.4,59.99007211918218,
halaise,spag,&&&&,None,nonword,,,,,,,0,312,312,312,,,,,,,,,,,,,,,,,,,,,AMP,left,0.7837980255717412,,,left,0,0.7837980255717412,0,,,,,,,,,,,,,,,,,,,,,,1011,2019_Mar_06_1150,mf_amp_cond1,3.0.4,59.99007211918218,
interests,tracious,&&&&&&&&,left,fairness.virtue,,,,,,,0,313,313,313,,,,,,,,,,,,,,,,,,,,,AMP,right,0.8171449574874714,,,right,0,0.8171449574874714,0,,,,,,,,,,,,,,,,,,,,,,1011,2019_Mar_06_1150,mf_amp_cond1,3.0.4,59.99007211918218,
penalty,refuejing,&&&&&&&&&,right,authority.vice,,,,,,,0,314,314,314,,,,,,,,,,,,,,,,,,,,,AMP,left,0.41709979996085167,,,left,0,0.41709979996085167,0,,,,,,,,,,,,,,,,,,,,,,1011,2019_Mar_06_1150,mf_amp_cond1,3.0.4,59.99007211918218,
harassment,drumbled,&&&&&&&&,right,sanctity.vice,,,,,,,0,315,315,315,,,,,,,,,,,,,,,,,,,,,AMP,left,0.3836925725918263,,,left,0,0.3836925725918263,0,,,,,,,,,,,,,,,,,,,,,,1011,2019_Mar_06_1150,mf_amp_cond1,3.0.4,59.99007211918218,
hate,scalbel,&&&&&&&,right,fairness.vice,,,,,,,0,316,316,316,,,,,,,,,,,,,,,,,,,,,AMP,left,0.2670054119080305,,,left,0,0.2670054119080305,0,,,,,,,,,,,,,,,,,,,,,,1011,2019_Mar_06_1150,mf_amp_cond1,3.0.4,59.99007211918218,
safe,bruthfulness,&&&&&&&&&&&&,left,care.virtue,,,,,,,0,317,317,317,,,,,,,,,,,,,,,,,,,,,AMP,right,0.7337781087262556,,,right,0,0.7337781087262556,0,,,,,,,,,,,,,,,,,,,,,,1011,2019_Mar_06_1150,mf_amp_cond1,3.0.4,59.99007211918218,
prison,proached,&&&&&&&&,right,fairness.vice,,,,,,,0,318,318,318,,,,,,,,,,,,,,,,,,,,,AMP,left,0.4337128100451082,,,left,0,0.4337128100451082,0,,,,,,,,,,,,,,,,,,,,,,1011,2019_Mar_06_1150,mf_amp_cond1,3.0.4,59.99007211918218,
lies,chared,&&&&&&,right,fairness.vice,,,,,,,0,319,319,319,,,,,,,,,,,,,,,,,,,,,AMP,left,0.5005311133572832,,,left,0,0.5005311133572832,0,,,,,,,,,,,,,,,,,,,,,,1011,2019_Mar_06_1150,mf_amp_cond1,3.0.4,59.99007211918218,
simplustic,tove,&&&&,None,nonword,,,,,,,0,320,320,320,,,,,,,,,,,,,,,,,,,,,AMP,left,0.6671012432780117,,,left,0,0.6671012432780117,0,,,,,,,,,,,,,,,,,,,,,,1011,2019_Mar_06_1150,mf_amp_cond1,3.0.4,59.99007211918218,
unscothed,fostet,&&&&&&,None,nonword,,,,,,,0,321,321,321,,,,,,,,,,,,,,,,,,,,,AMP,left,0.43370864063035697,,,left,0,0.43370864063035697,0,,,,,,,,,,,,,,,,,,,,,,1011,2019_Mar_06_1150,mf_amp_cond1,3.0.4,59.99007211918218,
victims,unreflectuve,&&&&&&&&&&&&,right,care.vice,,,,,,,0,322,322,322,,,,,,,,,,,,,,,,,,,,,AMP,left,0.5003986557712778,,,left,0,0.5003986557712778,0,,,,,,,,,,,,,,,,,,,,,,1011,2019_Mar_06_1150,mf_amp_cond1,3.0.4,59.99007211918218,
crime,wump,&&&&,right,fairness.vice,,,,,,,0,323,323,323,,,,,,,,,,,,,,,,,,,,,AMP,left,0.8504973415983841,,,left,0,0.8504973415983841,0,,,,,,,,,,,,,,,,,,,,,,1011,2019_Mar_06_1150,mf_amp_cond1,3.0.4,59.99007211918218,
groups,totalestic,&&&&&&&&&&,right,loyalty.vice,,,,,,,0,324,324,324,,,,,,,,,,,,,,,,,,,,,AMP,left,0.6337709887884557,,,left,0,0.6337709887884557,0,,,,,,,,,,,,,,,,,,,,,,1011,2019_Mar_06_1150,mf_amp_cond1,3.0.4,59.99007211918218,
arrests,synchronazers,&&&&&&&&&&&&&,right,authority.vice,,,,,,,0,325,325,325,,,,,,,,,,,,,,,,,,,,,AMP,left,0.13364719063974917,,,left,0,0.13364719063974917,0,,,,,,,,,,,,,,,,,,,,,,1011,2019_Mar_06_1150,mf_amp_cond1,3.0.4,59.99007211918218,
strength,Boeinf,&&&&&&,left,sanctity.virtue,,,,,,,0,326,326,326,,,,,,,,,,,,,,,,,,,,,AMP,right,0.5170620190910995,,,right,0,0.5170620190910995,0,,,,,,,,,,,,,,,,,,,,,,1011,2019_Mar_06_1150,mf_amp_cond1,3.0.4,59.99007211918218,
agreement,shoirmaster,&&&&&&&&&&&,left,fairness.virtue,,,,,,,0,327,327,327,,,,,,,,,,,,,,,,,,,,,AMP,right,0.4003674817504361,,,right,0,0.4003674817504361,0,,,,,,,,,,,,,,,,,,,,,,1011,2019_Mar_06_1150,mf_amp_cond1,3.0.4,59.99007211918218,
,,,,,,,,,,,,,,,,,,,,,,,,,,,,,,,,,,,,,,,,,,,,3,7.42,,,,,,,,,,,,,,,,,,,,1011,2019_Mar_06_1150,mf_amp_cond1,3.0.4,59.99007211918218,
,,,,,,,,,,,,,,,,,,,,,,,,,,,,,,,,,,,,,,,,,,,,,,5,4.27,,,,,,,,,,,,,,,,,,1011,2019_Mar_06_1150,mf_amp_cond1,3.0.4,59.99007211918218,
,,,,,,,,,,,,,,,,,,,,,,,,,,,,,,,,,,,,,,,,,,,,,,,,2,3.653,,,,,,,,,,,,,,,,1011,2019_Mar_06_1150,mf_amp_cond1,3.0.4,59.99007211918218,
,,,,,,,,,,,,,,,,,,,,,,,,,,,,,,,,,,,,,,,,,,,,,,,,,,right,1.6673651962773874,,,,,,,,,,,,,,1011,2019_Mar_06_1150,mf_amp_cond1,3.0.4,59.99007211918218,
bisebell,,&&&&&&&,,,,,,,,,,,,,0,0,0,1,,,,,,,,,,,,,,,,,LDT_prac,right,3.8844122698064893,,,,,,0,,,,,,,,,right,3.8844122698064893,,,,,,,,,,,,1011,2019_Mar_06_1150,mf_amp_cond1,3.0.4,59.99007211918218,
keyboard,,&&&&&&&,,,,,,,,,,,,,0,1,1,0,,,,,,,,,,,,,,,,,LDT_prac,right,0.7004385534673929,,,,,,0,,,,,,,,,right,0.7004385534673929,,,,,,,,,,,,1011,2019_Mar_06_1150,mf_amp_cond1,3.0.4,59.99007211918218,
,,,,,,,,,,,,,,,,,,,,,,,,,,,,,,,,,,,,,,,,,,,,,,,,,,,,,,right,2.4175343764945865,,,,,,,,,,1011,2019_Mar_06_1150,mf_amp_cond1,3.0.4,59.99007211918218,
death,,&&&&&,left,care.vice,,,,,,,,,,,,,,,0,0,0,44,,,,,,,,,,,,,LDT,right,1.0338485389947891,,,,,,0,,,,,,,,,,,,,right,0,1.0338485389947891,,,,,,,1011,2019_Mar_06_1150,mf_amp_cond1,3.0.4,59.99007211918218,
clamorek,,&&&&&&&&,right,nonword,,,,,,,,,,,,,,,0,1,1,178,,,,,,,,,,,,,LDT,left,0.7004244417184964,,,,,,0,,,,,,,,,,,,,left,0,0.7004244417184964,,,,,,,1011,2019_Mar_06_1150,mf_amp_cond1,3.0.4,59.99007211918218,
love,,&&&&,left,loyalty.virtue,,,,,,,,,,,,,,,0,2,2,9,,,,,,,,,,,,,LDT,right,0.6004291884601116,,,,,,0,,,,,,,,,,,,,right,0,0.6004291884601116,,,,,,,1011,2019_Mar_06_1150,mf_amp_cond1,3.0.4,59.99007211918218,
neneficence,,&&&&&&&&&&&,right,nonword,,,,,,,,,,,,,,,0,3,3,2,,,,,,,,,,,,,LDT,left,0.6337373130954802,,,,,,0,,,,,,,,,,,,,left,0,0.6337373130954802,,,,,,,1011,2019_Mar_06_1150,mf_amp_cond1,3.0.4,59.99007211918218,
amount,,&&&&&&,left,neutral,,,,,,,,,,,,,,,0,4,4,162,,,,,,,,,,,,,LDT,left,0.550400291569531,,,,,,1,,,,,,,,,,,,,left,1,0.550400291569531,,,,,,,1011,2019_Mar_06_1150,mf_amp_cond1,3.0.4,59.99007211918218,
either,,&&&&&&,left,neutral,,,,,,,,,,,,,,,0,5,5,142,,,,,,,,,,,,,LDT,right,1.1838896874105558,,,,,,0,,,,,,,,,,,,,right,0,1.1838896874105558,,,,,,,1011,2019_Mar_06_1150,mf_amp_cond1,3.0.4,59.99007211918218,
supervuned,,&&&&&&&&&&,right,nonword,,,,,,,,,,,,,,,0,6,6,165,,,,,,,,,,,,,LDT,right,0.7171391203301027,,,,,,1,,,,,,,,,,,,,right,1,0.7171391203301027,,,,,,,1011,2019_Mar_06_1150,mf_amp_cond1,3.0.4,59.99007211918218,
gun,,&&&,left,authority.vice,,,,,,,,,,,,,,,0,7,7,0,,,,,,,,,,,,,LDT,right,0.5670601268066093,,,,,,0,,,,,,,,,,,,,right,0,0.5670601268066093,,,,,,,1011,2019_Mar_06_1150,mf_amp_cond1,3.0.4,59.99007211918218,
tomedians,,&&&&&&&&&,right,nonword,,,,,,,,,,,,,,,0,8,8,57,,,,,,,,,,,,,LDT,left,0.6337401996133849,,,,,,0,,,,,,,,,,,,,left,0,0.6337401996133849,,,,,,,1011,2019_Mar_06_1150,mf_amp_cond1,3.0.4,59.99007211918218,
critics,,&&&&&&&,left,loyalty.vice,,,,,,,,,,,,,,,0,9,9,16,,,,,,,,,,,,,LDT,right,1.2337611105758697,,,,,,0,,,,,,,,,,,,,right,0,1.2337611105758697,,,,,,,1011,2019_Mar_06_1150,mf_amp_cond1,3.0.4,59.99007211918218,
feleological,,&&&&&&&&&&&&,right,nonword,,,,,,,,,,,,,,,0,10,10,190,,,,,,,,,,,,,LDT,left,1.1005347055615857,,,,,,0,,,,,,,,,,,,,left,0,1.1005347055615857,,,,,,,1011,2019_Mar_06_1150,mf_amp_cond1,3.0.4,59.99007211918218,
honored,,&&&&&&&,left,authority.virtue,,,,,,,,,,,,,,,0,11,11,148,,,,,,,,,,,,,LDT,right,0.6504202402429655,,,,,,0,,,,,,,,,,,,,right,0,0.6504202402429655,,,,,,,1011,2019_Mar_06_1150,mf_amp_cond1,3.0.4,59.99007211918218,
precificity,,&&&&&&&&&&&,right,nonword,,,,,,,,,,,,,,,0,12,12,195,,,,,,,,,,,,,LDT,right,1.9340749036055058,,,,,,1,,,,,,,,,,,,,right,1,1.9340749036055058,,,,,,,1011,2019_Mar_06_1150,mf_amp_cond1,3.0.4,59.99007211918218,
mostly,,&&&&&&,left,neutral,,,,,,,,,,,,,,,0,13,13,13,,,,,,,,,,,,,LDT,left,0.6836173956980929,,,,,,1,,,,,,,,,,,,,left,1,0.6836173956980929,,,,,,,1011,2019_Mar_06_1150,mf_amp_cond1,3.0.4,59.99007211918218,
care,,&&&&,left,care.virtue,,,,,,,,,,,,,,,0,14,14,147,,,,,,,,,,,,,LDT,right,0.8838070698548108,,,,,,0,,,,,,,,,,,,,right,0,0.8838070698548108,,,,,,,1011,2019_Mar_06_1150,mf_amp_cond1,3.0.4,59.99007211918218,
powerful,,&&&&&&&&,left,authority.virtue,,,,,,,,,,,,,,,0,15,15,14,,,,,,,,,,,,,LDT,right,0.5337289101444185,,,,,,0,,,,,,,,,,,,,right,0,0.5337289101444185,,,,,,,1011,2019_Mar_06_1150,mf_amp_cond1,3.0.4,59.99007211918218,
violence,,&&&&&&&&,left,care.vice,,,,,,,,,,,,,,,0,16,16,70,,,,,,,,,,,,,LDT,right,0.5337240993976593,,,,,,0,,,,,,,,,,,,,right,0,0.5337240993976593,,,,,,,1011,2019_Mar_06_1150,mf_amp_cond1,3.0.4,59.99007211918218,
with,,&&&&,left,neutral,,,,,,,,,,,,,,,0,17,17,170,,,,,,,,,,,,,LDT,right,0.7337774672778323,,,,,,0,,,,,,,,,,,,,right,0,0.7337774672778323,,,,,,,1011,2019_Mar_06_1150,mf_amp_cond1,3.0.4,59.99007211918218,
clattening,,&&&&&&&&&&,right,nonword,,,,,,,,,,,,,,,0,18,18,75,,,,,,,,,,,,,LDT,left,0.8504967001499608,,,,,,0,,,,,,,,,,,,,left,0,0.8504967001499608,,,,,,,1011,2019_Mar_06_1150,mf_amp_cond1,3.0.4,59.99007211918218,
presentkess,,&&&&&&&&&&&,right,nonword,,,,,,,,,,,,,,,0,19,19,82,,,,,,,,,,,,,LDT,left,0.6170717048225924,,,,,,0,,,,,,,,,,,,,left,0,0.6170717048225924,,,,,,,1011,2019_Mar_06_1150,mf_amp_cond1,3.0.4,59.99007211918218,
forced,,&&&&&&,left,fairness.vice,,,,,,,,,,,,,,,0,20,20,89,,,,,,,,,,,,,LDT,right,0.6004208496306092,,,,,,0,,,,,,,,,,,,,right,0,0.6004208496306092,,,,,,,1011,2019_Mar_06_1150,mf_amp_cond1,3.0.4,59.99007211918218,
about,,&&&&&,left,neutral,,,,,,,,,,,,,,,0,21,21,116,,,,,,,,,,,,,LDT,right,0.7171022373950109,,,,,,0,,,,,,,,,,,,,right,0,0.7171022373950109,,,,,,,1011,2019_Mar_06_1150,mf_amp_cond1,3.0.4,59.99007211918218,
Daptist,,&&&&&&&,right,nonword,,,,,,,,,,,,,,,0,22,22,110,,,,,,,,,,,,,LDT,left,0.767119909171015,,,,,,0,,,,,,,,,,,,,left,0,0.767119909171015,,,,,,,1011,2019_Mar_06_1150,mf_amp_cond1,3.0.4,59.99007211918218,
police,,&&&&&&,left,authority.vice,,,,,,,,,,,,,,,0,23,23,42,,,,,,,,,,,,,LDT,right,0.5670623717596754,,,,,,0,,,,,,,,,,,,,right,0,0.5670623717596754,,,,,,,1011,2019_Mar_06_1150,mf_amp_cond1,3.0.4,59.99007211918218,
dumid,,&&&&&,right,nonword,,,,,,,,,,,,,,,0,24,24,59,,,,,,,,,,,,,LDT,left,1.1338614320848137,,,,,,0,,,,,,,,,,,,,left,0,1.1338614320848137,,,,,,,1011,2019_Mar_06_1150,mf_amp_cond1,3.0.4,59.99007211918218,
atson,,&&&&&,right,nonword,,,,,,,,,,,,,,,0,25,25,108,,,,,,,,,,,,,LDT,right,0.8671369714429602,,,,,,1,,,,,,,,,,,,,right,1,0.8671369714429602,,,,,,,1011,2019_Mar_06_1150,mf_amp_cond1,3.0.4,59.99007211918218,
party,,&&&&&,left,loyalty.virtue,,,,,,,,,,,,,,,0,26,26,54,,,,,,,,,,,,,LDT,right,0.7337723358068615,,,,,,0,,,,,,,,,,,,,right,0,0.7337723358068615,,,,,,,1011,2019_Mar_06_1150,mf_amp_cond1,3.0.4,59.99007211918218,
amoungst,,&&&&&&&&,left,neutral,,,,,,,,,,,,,,,0,27,27,119,,,,,,,,,,,,,LDT,right,0.8504559686407447,,,,,,0,,,,,,,,,,,,,right,0,0.8504559686407447,,,,,,,1011,2019_Mar_06_1150,mf_amp_cond1,3.0.4,59.99007211918218,
although,,&&&&&&&&,left,neutral,,,,,,,,,,,,,,,0,28,28,31,,,,,,,,,,,,,LDT,right,0.6670929044485092,,,,,,0,,,,,,,,,,,,,right,0,0.6670929044485092,,,,,,,1011,2019_Mar_06_1150,mf_amp_cond1,3.0.4,59.99007211918218,
taxpayung,,&&&&&&&&&,right,nonword,,,,,,,,,,,,,,,0,29,29,17,,,,,,,,,,,,,LDT,right,0.6837626820197329,,,,,,1,,,,,,,,,,,,,right,1,0.6837626820197329,,,,,,,1011,2019_Mar_06_1150,mf_amp_cond1,3.0.4,59.99007211918218,
itself,,&&&&&&,left,neutral,,,,,,,,,,,,,,,0,30,30,37,,,,,,,,,,,,,LDT,right,0.5837331117363647,,,,,,0,,,,,,,,,,,,,right,0,0.5837331117363647,,,,,,,1011,2019_Mar_06_1150,mf_amp_cond1,3.0.4,59.99007211918218,
discovars,,&&&&&&&&&,right,nonword,,,,,,,,,,,,,,,0,31,31,24,,,,,,,,,,,,,LDT,left,0.6504208816913888,,,,,,0,,,,,,,,,,,,,left,0,0.6504208816913888,,,,,,,1011,2019_Mar_06_1150,mf_amp_cond1,3.0.4,59.99007211918218,
useful,,&&&&&&,left,authority.virtue,,,,,,,,,,,,,,,0,32,32,32,,,,,,,,,,,,,LDT,right,0.7836100831627846,,,,,,0,,,,,,,,,,,,,right,0,0.7836100831627846,,,,,,,1011,2019_Mar_06_1150,mf_amp_cond1,3.0.4,59.99007211918218,
brotesque,,&&&&&&&&&,right,nonword,,,,,,,,,,,,,,,0,33,33,186,,,,,,,,,,,,,LDT,left,0.6838120730826631,,,,,,0,,,,,,,,,,,,,left,0,0.6838120730826631,,,,,,,1011,2019_Mar_06_1150,mf_amp_cond1,3.0.4,59.99007211918218,
mih,,&&&,right,nonword,,,,,,,,,,,,,,,0,34,34,1,,,,,,,,,,,,,LDT,left,0.7337713736342266,,,,,,0,,,,,,,,,,,,,left,0,0.7337713736342266,,,,,,,1011,2019_Mar_06_1150,mf_amp_cond1,3.0.4,59.99007211918218,
wherever,,&&&&&&&&,left,neutral,,,,,,,,,,,,,,,0,35,35,191,,,,,,,,,,,,,LDT,right,0.6504372385097668,,,,,,0,,,,,,,,,,,,,right,0,0.6504372385097668,,,,,,,1011,2019_Mar_06_1150,mf_amp_cond1,3.0.4,59.99007211918218,
hope,,&&&&,left,loyalty.virtue,,,,,,,,,,,,,,,0,36,36,18,,,,,,,,,,,,,LDT,right,0.7170922950608656,,,,,,0,,,,,,,,,,,,,right,0,0.7170922950608656,,,,,,,1011,2019_Mar_06_1150,mf_amp_cond1,3.0.4,59.99007211918218,
cromiscuity,,&&&&&&&&&&&,right,nonword,,,,,,,,,,,,,,,0,37,37,80,,,,,,,,,,,,,LDT,right,2.8176000600215048,,,,,,1,,,,,,,,,,,,,right,1,2.8176000600215048,,,,,,,1011,2019_Mar_06_1150,mf_amp_cond1,3.0.4,59.99007211918218,
nackers,,&&&&&&&,right,nonword,,,,,,,,,,,,,,,0,38,38,183,,,,,,,,,,,,,LDT,left,0.6003971163881943,,,,,,0,,,,,,,,,,,,,left,0,0.6003971163881943,,,,,,,1011,2019_Mar_06_1150,mf_amp_cond1,3.0.4,59.99007211918218,
gandbrake,,&&&&&&&&&,right,nonword,,,,,,,,,,,,,,,0,39,39,121,,,,,,,,,,,,,LDT,right,0.8838696103775874,,,,,,1,,,,,,,,,,,,,right,1,0.8838696103775874,,,,,,,1011,2019_Mar_06_1150,mf_amp_cond1,3.0.4,59.99007211918218,
myself,,&&&&&&,left,neutral,,,,,,,,,,,,,,,0,40,40,98,,,,,,,,,,,,,LDT,right,0.5503990086726844,,,,,,0,,,,,,,,,,,,,right,0,0.5503990086726844,,,,,,,1011,2019_Mar_06_1150,mf_amp_cond1,3.0.4,59.99007211918218,
openet,,&&&&&&,None,nonword,,,,,,,,,,,,,,,0,41,41,104,,,,,,,,,,,,,LDT,right,0.9504996506730095,,,,,,0,,,,,,,,,,,,,right,0,0.9504996506730095,,,,,,,1011,2019_Mar_06_1150,mf_amp_cond1,3.0.4,59.99007211918218,
thru,,&&&&,left,neutral,,,,,,,,,,,,,,,0,42,42,117,,,,,,,,,,,,,LDT,left,0.7504712989320979,,,,,,1,,,,,,,,,,,,,left,1,0.7504712989320979,,,,,,,1011,2019_Mar_06_1150,mf_amp_cond1,3.0.4,59.99007211918218,
pullness,,&&&&&&&&,right,nonword,,,,,,,,,,,,,,,0,43,43,22,,,,,,,,,,,,,LDT,right,0.5837536378530785,,,,,,1,,,,,,,,,,,,,right,1,0.5837536378530785,,,,,,,1011,2019_Mar_06_1150,mf_amp_cond1,3.0.4,59.99007211918218,
fifteen,,&&&&&&&,left,neutral,,,,,,,,,,,,,,,0,44,44,50,,,,,,,,,,,,,LDT,right,0.7004504200303927,,,,,,0,,,,,,,,,,,,,right,0,0.7004504200303927,,,,,,,1011,2019_Mar_06_1150,mf_amp_cond1,3.0.4,59.99007211918218,
ilportation,,&&&&&&&&&&&,right,nonword,,,,,,,,,,,,,,,0,45,45,85,,,,,,,,,,,,,LDT,right,0.6337401996133849,,,,,,1,,,,,,,,,,,,,right,1,0.6337401996133849,,,,,,,1011,2019_Mar_06_1150,mf_amp_cond1,3.0.4,59.99007211918218,
shot,,&&&&,left,care.vice,,,,,,,,,,,,,,,0,46,46,197,,,,,,,,,,,,,LDT,left,0.4503601372707635,,,,,,1,,,,,,,,,,,,,left,1,0.4503601372707635,,,,,,,1011,2019_Mar_06_1150,mf_amp_cond1,3.0.4,59.99007211918218,
black,,&&&&&,left,loyalty.vice,,,,,,,,,,,,,,,0,47,47,26,,,,,,,,,,,,,LDT,left,0.48371797369327396,,,,,,1,,,,,,,,,,,,,left,1,0.48371797369327396,,,,,,,1011,2019_Mar_06_1150,mf_amp_cond1,3.0.4,59.99007211918218,
somehow,,&&&&&&&,left,neutral,,,,,,,,,,,,,,,0,48,48,67,,,,,,,,,,,,,LDT,right,0.8671757786069065,,,,,,0,,,,,,,,,,,,,right,0,0.8671757786069065,,,,,,,1011,2019_Mar_06_1150,mf_amp_cond1,3.0.4,59.99007211918218,
menizen,,&&&&&&&,None,nonword,,,,,,,,,,,,,,,0,49,49,194,,,,,,,,,,,,,LDT,left,0.6337495004991069,,,,,,0,,,,,,,,,,,,,left,0,0.6337495004991069,,,,,,,1011,2019_Mar_06_1150,mf_amp_cond1,3.0.4,59.99007211918218,
counpy's,,&&&&&&&&,right,nonword,,,,,,,,,,,,,,,0,50,50,161,,,,,,,,,,,,,LDT,right,0.6338232662528753,,,,,,1,,,,,,,,,,,,,right,1,0.6338232662528753,,,,,,,1011,2019_Mar_06_1150,mf_amp_cond1,3.0.4,59.99007211918218,
fangsters,,&&&&&&&&&,right,nonword,,,,,,,,,,,,,,,0,51,51,150,,,,,,,,,,,,,LDT,left,0.6170636867173016,,,,,,0,,,,,,,,,,,,,left,0,0.6170636867173016,,,,,,,1011,2019_Mar_06_1150,mf_amp_cond1,3.0.4,59.99007211918218,
actively,,&&&&&&&&,left,authority.virtue,,,,,,,,,,,,,,,0,52,52,71,,,,,,,,,,,,,LDT,right,0.7172061508754268,,,,,,0,,,,,,,,,,,,,right,0,0.7172061508754268,,,,,,,1011,2019_Mar_06_1150,mf_amp_cond1,3.0.4,59.99007211918218,
least,,&&&&&,left,neutral,,,,,,,,,,,,,,,0,53,53,49,,,,,,,,,,,,,LDT,right,0.6170720255468041,,,,,,0,,,,,,,,,,,,,right,0,0.6170720255468041,,,,,,,1011,2019_Mar_06_1150,mf_amp_cond1,3.0.4,59.99007211918218,
three,,&&&&&,left,neutral,,,,,,,,,,,,,,,0,54,54,91,,,,,,,,,,,,,LDT,right,0.5837324701715261,,,,,,0,,,,,,,,,,,,,right,0,0.5837324701715261,,,,,,,1011,2019_Mar_06_1150,mf_amp_cond1,3.0.4,59.99007211918218,
fraud,,&&&&&,left,fairness.vice,,,,,,,,,,,,,,,0,55,55,184,,,,,,,,,,,,,LDT,right,0.650421523139812,,,,,,0,,,,,,,,,,,,,right,0,0.650421523139812,,,,,,,1011,2019_Mar_06_1150,mf_amp_cond1,3.0.4,59.99007211918218,
fifty,,&&&&&,left,neutral,,,,,,,,,,,,,,,0,56,56,52,,,,,,,,,,,,,LDT,right,0.8004546536831185,,,,,,0,,,,,,,,,,,,,right,0,0.8004546536831185,,,,,,,1011,2019_Mar_06_1150,mf_amp_cond1,3.0.4,59.99007211918218,
forty,,&&&&&,left,neutral,,,,,,,,,,,,,,,0,57,57,140,,,,,,,,,,,,,LDT,right,0.5503974050516263,,,,,,0,,,,,,,,,,,,,right,0,0.5503974050516263,,,,,,,1011,2019_Mar_06_1150,mf_amp_cond1,3.0.4,59.99007211918218,
fontacts,,&&&&&&&&,right,nonword,,,,,,,,,,,,,,,0,58,58,177,,,,,,,,,,,,,LDT,left,0.5003749224124476,,,,,,0,,,,,,,,,,,,,left,0,0.5003749224124476,,,,,,,1011,2019_Mar_06_1150,mf_amp_cond1,3.0.4,59.99007211918218,
integrity,,&&&&&&&&&,left,fairness.virtue,,,,,,,,,,,,,,,0,59,59,135,,,,,,,,,,,,,LDT,right,0.717097747256048,,,,,,0,,,,,,,,,,,,,right,0,0.717097747256048,,,,,,,1011,2019_Mar_06_1150,mf_amp_cond1,3.0.4,59.99007211918218,
framatic,,&&&&&&&&,right,nonword,,,,,,,,,,,,,,,0,60,60,196,,,,,,,,,,,,,LDT,left,0.6337418032344431,,,,,,0,,,,,,,,,,,,,left,0,0.6337418032344431,,,,,,,1011,2019_Mar_06_1150,mf_amp_cond1,3.0.4,59.99007211918218,
war,,&&&,left,sanctity.vice,,,,,,,,,,,,,,,0,61,61,60,,,,,,,,,,,,,LDT,right,0.6170665733516216,,,,,,0,,,,,,,,,,,,,right,0,0.6170665733516216,,,,,,,1011,2019_Mar_06_1150,mf_amp_cond1,3.0.4,59.99007211918218,
nuckheap,,&&&&&&&&,right,nonword,,,,,,,,,,,,,,,0,62,62,94,,,,,,,,,,,,,LDT,left,4.1846353630535305,,,,,,0,,,,,,,,,,,,,left,0,4.1846353630535305,,,,,,,1011,2019_Mar_06_1150,mf_amp_cond1,3.0.4,59.99007211918218,
reviked,,&&&&&&&,right,nonword,,,,,,,,,,,,,,,0,63,63,123,,,,,,,,,,,,,LDT,left,0.7004324598237872,,,,,,0,,,,,,,,,,,,,left,0,0.7004324598237872,,,,,,,1011,2019_Mar_06_1150,mf_amp_cond1,3.0.4,59.99007211918218,
promote,,&&&&&&&,left,sanctity.virtue,,,,,,,,,,,,,,,0,64,64,133,,,,,,,,,,,,,LDT,right,0.6670871315291151,,,,,,0,,,,,,,,,,,,,right,0,0.6670871315291151,,,,,,,1011,2019_Mar_06_1150,mf_amp_cond1,3.0.4,59.99007211918218,
there,,&&&&&,left,neutral,,,,,,,,,,,,,,,0,65,65,185,,,,,,,,,,,,,LDT,right,0.6337543113622814,,,,,,0,,,,,,,,,,,,,right,0,0.6337543113622814,,,,,,,1011,2019_Mar_06_1150,mf_amp_cond1,3.0.4,59.99007211918218,
pulge,,&&&&&,right,nonword,,,,,,,,,,,,,,,0,66,66,56,,,,,,,,,,,,,LDT,right,1.4339491811115295,,,,,,1,,,,,,,,,,,,,right,1,1.4339491811115295,,,,,,,1011,2019_Mar_06_1150,mf_amp_cond1,3.0.4,59.99007211918218,
mightingale,,&&&&&&&&&&&,right,nonword,,,,,,,,,,,,,,,0,67,67,40,,,,,,,,,,,,,LDT,right,1.5006273295730352,,,,,,1,,,,,,,,,,,,,right,1,1.5006273295730352,,,,,,,1011,2019_Mar_06_1150,mf_amp_cond1,3.0.4,59.99007211918218,
respect,,&&&&&&&,left,sanctity.virtue,,,,,,,,,,,,,,,0,68,68,153,,,,,,,,,,,,,LDT,left,0.583735998137854,,,,,,1,,,,,,,,,,,,,left,1,0.583735998137854,,,,,,,1011,2019_Mar_06_1150,mf_amp_cond1,3.0.4,59.99007211918218,
touls,,&&&&&,right,nonword,,,,,,,,,,,,,,,0,69,69,182,,,,,,,,,,,,,LDT,left,0.7004151408327743,,,,,,0,,,,,,,,,,,,,left,0,0.7004151408327743,,,,,,,1011,2019_Mar_06_1150,mf_amp_cond1,3.0.4,59.99007211918218,
thabbily,,&&&&&&&&,right,nonword,,,,,,,,,,,,,,,0,70,70,87,,,,,,,,,,,,,LDT,right,0.5337475120322779,,,,,,1,,,,,,,,,,,,,right,1,0.5337475120322779,,,,,,,1011,2019_Mar_06_1150,mf_amp_cond1,3.0.4,59.99007211918218,
sexual,,&&&&&&,left,sanctity.vice,,,,,,,,,,,,,,,0,71,71,105,,,,,,,,,,,,,LDT,left,0.5170520766405389,,,,,,1,,,,,,,,,,,,,left,1,0.5170520766405389,,,,,,,1011,2019_Mar_06_1150,mf_amp_cond1,3.0.4,59.99007211918218,
toward,,&&&&&&,left,neutral,,,,,,,,,,,,,,,0,72,72,157,,,,,,,,,,,,,LDT,left,0.7170961437514052,,,,,,1,,,,,,,,,,,,,left,1,0.7170961437514052,,,,,,,1011,2019_Mar_06_1150,mf_amp_cond1,3.0.4,59.99007211918218,
grovelire,,&&&&&&&&&,right,nonword,,,,,,,,,,,,,,,0,73,73,5,,,,,,,,,,,,,LDT,left,0.7504238323308527,,,,,,0,,,,,,,,,,,,,left,0,0.7504238323308527,,,,,,,1011,2019_Mar_06_1150,mf_amp_cond1,3.0.4,59.99007211918218,
give,,&&&&,left,neutral,,,,,,,,,,,,,,,0,74,74,134,,,,,,,,,,,,,LDT,right,0.6837716622976586,,,,,,0,,,,,,,,,,,,,right,0,0.6837716622976586,,,,,,,1011,2019_Mar_06_1150,mf_amp_cond1,3.0.4,59.99007211918218,
gationwide,,&&&&&&&&&&,right,nonword,,,,,,,,,,,,,,,0,75,75,19,,,,,,,,,,,,,LDT,right,0.7504847693489864,,,,,,1,,,,,,,,,,,,,right,1,0.7504847693489864,,,,,,,1011,2019_Mar_06_1150,mf_amp_cond1,3.0.4,59.99007211918218,
glacenta,,&&&&&&&&,right,nonword,,,,,,,,,,,,,,,0,76,76,176,,,,,,,,,,,,,LDT,right,0.6504279376240447,,,,,,1,,,,,,,,,,,,,right,1,0.6504279376240447,,,,,,,1011,2019_Mar_06_1150,mf_amp_cond1,3.0.4,59.99007211918218,
shoirmaster,,&&&&&&&&&&&,None,nonword,,,,,,,,,,,,,,,0,77,77,25,,,,,,,,,,,,,LDT,left,0.7336552727501839,,,,,,0,,,,,,,,,,,,,left,0,0.7336552727501839,,,,,,,1011,2019_Mar_06_1150,mf_amp_cond1,3.0.4,59.99007211918218,
hescribe,,&&&&&&&&,right,nonword,,,,,,,,,,,,,,,0,78,78,76,,,,,,,,,,,,,LDT,right,0.6504382006824017,,,,,,1,,,,,,,,,,,,,right,1,0.6504382006824017,,,,,,,1011,2019_Mar_06_1150,mf_amp_cond1,3.0.4,59.99007211918218,
become,,&&&&&&,left,neutral,,,,,,,,,,,,,,,0,79,79,199,,,,,,,,,,,,,LDT,right,0.7170993508771062,,,,,,0,,,,,,,,,,,,,right,0,0.7170993508771062,,,,,,,1011,2019_Mar_06_1150,mf_amp_cond1,3.0.4,59.99007211918218,
free,,&&&&,left,fairness.virtue,,,,,,,,,,,,,,,0,80,80,152,,,,,,,,,,,,,LDT,right,0.5837699945550412,,,,,,0,,,,,,,,,,,,,right,0,0.5837699945550412,,,,,,,1011,2019_Mar_06_1150,mf_amp_cond1,3.0.4,59.99007211918218,
gazily,,&&&&&&,right,nonword,,,,,,,,,,,,,,,0,81,81,48,,,,,,,,,,,,,LDT,left,0.883799372590147,,,,,,0,,,,,,,,,,,,,left,0,0.883799372590147,,,,,,,1011,2019_Mar_06_1150,mf_amp_cond1,3.0.4,59.99007211918218,
Lacedonia,,&&&&&&&&&,right,nonword,,,,,,,,,,,,,,,0,82,82,120,,,,,,,,,,,,,LDT,left,0.8337990198051557,,,,,,0,,,,,,,,,,,,,left,0,0.8337990198051557,,,,,,,1011,2019_Mar_06_1150,mf_amp_cond1,3.0.4,59.99007211918218,
dramens,,&&&&&&&,right,nonword,,,,,,,,,,,,,,,0,83,83,8,,,,,,,,,,,,,LDT,left,2.900981661863625,,,,,,0,,,,,,,,,,,,,left,0,2.900981661863625,,,,,,,1011,2019_Mar_06_1150,mf_amp_cond1,3.0.4,59.99007211918218,
both,,&&&&,left,neutral,,,,,,,,,,,,,,,0,84,84,39,,,,,,,,,,,,,LDT,right,0.4170083944918588,,,,,,0,,,,,,,,,,,,,right,0,0.4170083944918588,,,,,,,1011,2019_Mar_06_1150,mf_amp_cond1,3.0.4,59.99007211918218,
tabin,,&&&&&,right,nonword,,,,,,,,,,,,,,,0,85,85,164,,,,,,,,,,,,,LDT,right,1.067199319601059,,,,,,1,,,,,,,,,,,,,right,1,1.067199319601059,,,,,,,1011,2019_Mar_06_1150,mf_amp_cond1,3.0.4,59.99007211918218,
neputized,,&&&&&&&&&,right,nonword,,,,,,,,,,,,,,,0,86,86,92,,,,,,,,,,,,,LDT,right,0.6003945505945012,,,,,,1,,,,,,,,,,,,,right,1,0.6003945505945012,,,,,,,1011,2019_Mar_06_1150,mf_amp_cond1,3.0.4,59.99007211918218,
civilians,,&&&&&&&&&,left,care.vice,,,,,,,,,,,,,,,0,87,87,181,,,,,,,,,,,,,LDT,right,0.5504041401436552,,,,,,0,,,,,,,,,,,,,right,0,0.5504041401436552,,,,,,,1011,2019_Mar_06_1150,mf_amp_cond1,3.0.4,59.99007211918218,
uller,,&&&&&,right,nonword,,,,,,,,,,,,,,,0,88,88,139,,,,,,,,,,,,,LDT,right,0.5670806528069079,,,,,,1,,,,,,,,,,,,,right,1,0.5670806528069079,,,,,,,1011,2019_Mar_06_1150,mf_amp_cond1,3.0.4,59.99007211918218,
fair,,&&&&,left,fairness.virtue,,,,,,,,,,,,,,,0,89,89,187,,,,,,,,,,,,,LDT,right,0.7004318182589486,,,,,,0,,,,,,,,,,,,,right,0,0.7004318182589486,,,,,,,1011,2019_Mar_06_1150,mf_amp_cond1,3.0.4,59.99007211918218,
esquisiteness,,&&&&&&&&&&&&&,right,nonword,,,,,,,,,,,,,,,0,90,90,155,,,,,,,,,,,,,LDT,left,0.517070037079975,,,,,,0,,,,,,,,,,,,,left,0,0.517070037079975,,,,,,,1011,2019_Mar_06_1150,mf_amp_cond1,3.0.4,59.99007211918218,
further,,&&&&&&&,left,neutral,,,,,,,,,,,,,,,0,91,91,64,,,,,,,,,,,,,LDT,right,0.6004115487448871,,,,,,0,,,,,,,,,,,,,right,0,0.6004115487448871,,,,,,,1011,2019_Mar_06_1150,mf_amp_cond1,3.0.4,59.99007211918218,
ban,,&&&,left,loyalty.vice,,,,,,,,,,,,,,,0,92,92,126,,,,,,,,,,,,,LDT,right,0.5670569196809083,,,,,,0,,,,,,,,,,,,,right,0,0.5670569196809083,,,,,,,1011,2019_Mar_06_1150,mf_amp_cond1,3.0.4,59.99007211918218,
baladroit,,&&&&&&&&&,right,nonword,,,,,,,,,,,,,,,0,93,93,111,,,,,,,,,,,,,LDT,left,0.5170530388131738,,,,,,0,,,,,,,,,,,,,left,0,0.5170530388131738,,,,,,,1011,2019_Mar_06_1150,mf_amp_cond1,3.0.4,59.99007211918218,
sfumatoy,,&&&&&&&&,None,nonword,,,,,,,,,,,,,,,0,94,94,4,,,,,,,,,,,,,LDT,right,0.5503897076705471,,,,,,0,,,,,,,,,,,,,right,0,0.5503897076705471,,,,,,,1011,2019_Mar_06_1150,mf_amp_cond1,3.0.4,59.99007211918218,
juck,,&&&&,right,nonword,,,,,,,,,,,,,,,0,95,95,113,,,,,,,,,,,,,LDT,left,0.7337749016005546,,,,,,0,,,,,,,,,,,,,left,0,0.7337749016005546,,,,,,,1011,2019_Mar_06_1150,mf_amp_cond1,3.0.4,59.99007211918218,
edancipation,,&&&&&&&&&&&&,None,nonword,,,,,,,,,,,,,,,0,96,96,179,,,,,,,,,,,,,LDT,left,0.7337758636567742,,,,,,0,,,,,,,,,,,,,left,0,0.7337758636567742,,,,,,,1011,2019_Mar_06_1150,mf_amp_cond1,3.0.4,59.99007211918218,
help,,&&&&,left,care.virtue,,,,,,,,,,,,,,,0,97,97,192,,,,,,,,,,,,,LDT,right,0.7171035202918574,,,,,,0,,,,,,,,,,,,,right,0,0.7171035202918574,,,,,,,1011,2019_Mar_06_1150,mf_amp_cond1,3.0.4,59.99007211918218,
attacks,,&&&&&&&,left,care.vice,,,,,,,,,,,,,,,0,98,98,131,,,,,,,,,,,,,LDT,left,0.58374016743619,,,,,,1,,,,,,,,,,,,,left,1,0.58374016743619,,,,,,,1011,2019_Mar_06_1150,mf_amp_cond1,3.0.4,59.99007211918218,
eight,,&&&&&,left,neutral,,,,,,,,,,,,,,,0,99,99,12,,,,,,,,,,,,,LDT,right,0.5670652582775801,,,,,,0,,,,,,,,,,,,,right,0,0.5670652582775801,,,,,,,1011,2019_Mar_06_1150,mf_amp_cond1,3.0.4,59.99007211918218,
lempestuous,,&&&&&&&&&&&,right,nonword,,,,,,,,,,,,,,,0,100,100,180,,,,,,,,,,,,,LDT,right,0.850475211860612,,,,,,1,,,,,,,,,,,,,right,1,0.850475211860612,,,,,,,1011,2019_Mar_06_1150,mf_amp_cond1,3.0.4,59.99007211918218,
coom,,&&&&,right,nonword,,,,,,,,,,,,,,,0,101,101,175,,,,,,,,,,,,,LDT,left,0.7337867682799697,,,,,,0,,,,,,,,,,,,,left,0,0.7337867682799697,,,,,,,1011,2019_Mar_06_1150,mf_amp_cond1,3.0.4,59.99007211918218,
galamitous,,&&&&&&&&&&,right,nonword,,,,,,,,,,,,,,,0,102,102,86,,,,,,,,,,,,,LDT,right,0.5837311872746795,,,,,,1,,,,,,,,,,,,,right,1,0.5837311872746795,,,,,,,1011,2019_Mar_06_1150,mf_amp_cond1,3.0.4,59.99007211918218,
even,,&&&&,left,neutral,,,,,,,,,,,,,,,0,103,103,132,,,,,,,,,,,,,LDT,right,0.7004321389831603,,,,,,0,,,,,,,,,,,,,right,0,0.7004321389831603,,,,,,,1011,2019_Mar_06_1150,mf_amp_cond1,3.0.4,59.99007211918218,
could,,&&&&&,left,neutral,,,,,,,,,,,,,,,0,104,104,72,,,,,,,,,,,,,LDT,right,0.5503990085562691,,,,,,0,,,,,,,,,,,,,right,0,0.5503990085562691,,,,,,,1011,2019_Mar_06_1150,mf_amp_cond1,3.0.4,59.99007211918218,
forepo,,&&&&&&,right,nonword,,,,,,,,,,,,,,,0,105,105,171,,,,,,,,,,,,,LDT,right,0.9504877841100097,,,,,,1,,,,,,,,,,,,,right,1,0.9504877841100097,,,,,,,1011,2019_Mar_06_1150,mf_amp_cond1,3.0.4,59.99007211918218,
infet,,&&&&&,right,nonword,,,,,,,,,,,,,,,0,106,106,28,,,,,,,,,,,,,LDT,right,0.6004365650005639,,,,,,1,,,,,,,,,,,,,right,1,0.6004365650005639,,,,,,,1011,2019_Mar_06_1150,mf_amp_cond1,3.0.4,59.99007211918218,
towards,,&&&&&&&,left,neutral,,,,,,,,,,,,,,,0,107,107,129,,,,,,,,,,,,,LDT,left,0.4503540436271578,,,,,,1,,,,,,,,,,,,,left,1,0.4503540436271578,,,,,,,1011,2019_Mar_06_1150,mf_amp_cond1,3.0.4,59.99007211918218,
seem,,&&&&,left,neutral,,,,,,,,,,,,,,,0,108,108,174,,,,,,,,,,,,,LDT,right,0.36698366701602936,,,,,,0,,,,,,,,,,,,,right,0,0.36698366701602936,,,,,,,1011,2019_Mar_06_1150,mf_amp_cond1,3.0.4,59.99007211918218,
antral,,&&&&&&,right,nonword,,,,,,,,,,,,,,,0,109,109,138,,,,,,,,,,,,,LDT,left,0.7670923271216452,,,,,,0,,,,,,,,,,,,,left,0,0.7670923271216452,,,,,,,1011,2019_Mar_06_1150,mf_amp_cond1,3.0.4,59.99007211918218,
