words,mask,corr_ans,category,nonwords,LDT_prac_loop.thisRepN,LDT_prac_loop.thisTrialN,LDT_prac_loop.thisN,LDT_prac_loop.thisIndex,LDT_loop.thisRepN,LDT_loop.thisTrialN,LDT_loop.thisN,LDT_loop.thisIndex,AMP_pracloop.thisRepN,AMP_pracloop.thisTrialN,AMP_pracloop.thisN,AMP_pracloop.thisIndex,AMP_loop.thisRepN,AMP_loop.thisTrialN,AMP_loop.thisN,AMP_loop.thisIndex,tweet_loop.thisRepN,tweet_loop.thisTrialN,tweet_loop.thisN,tweet_loop.thisIndex,tweets,topic,begin_key.keys,begin_key.rt,key_resp_AMP_instr1.keys,key_resp_AMP_instr1.rt,key_resp_LDT_instr.keys,key_resp_LDT_instr.rt,resp_LDT_prac.keys,resp_LDT_prac.rt,task,keypress,RT,corr,resp_LDT_ready.keys,resp_LDT_ready.rt,resp_LDT.keys,resp_LDT.corr,resp_LDT.rt,LDT_rating.response,LDT_rating.rt,resp_AMP_ready1.keys,resp_AMP_ready1.rt,resp_AMP_prac.keys,resp_AMP_prac.rt,resp_AMP_ready.keys,resp_AMP_ready.rt,resp_AMP.keys,resp_AMP.corr,resp_AMP.rt,AMP_nonword_rating.response,AMP_nonword_rating.rt,AMP_word_rating.response,AMP_word_rating.rt,AMP_random_rating.response,AMP_random_rating.rt,key_resp_LDT_instr_2.keys,key_resp_LDT_instr_2.rt,participant,date,expName,psychopyVersion,frameRate,
,,,,,,,,,,,,,,,,,,,,,,,,,,,right,940.8179897357477,,,,,,,,,,,,,,,,,,,,,,,,,,,,,,,,,,,1012,2019_Mar_06_1150,mf_amp_cond2,3.0.4,59.985224807361156,
,,,,,,,,,,,,,,,,,,,,,,,,,,,,,right,0.5670540331630036,,,,,,,,,,,,,,,,,,,,,,,,,,,,,,,,,1012,2019_Mar_06_1150,mf_amp_cond2,3.0.4,59.985224807361156,
,,,,,,,,,,,,,,,,,,,,,,,,,,,,,,,right,2.2841707029147074,,,,,,,,,,,,,,,,,,,,,,,,,,,,,,,1012,2019_Mar_06_1150,mf_amp_cond2,3.0.4,59.985224807361156,
bisebell,&&&&&&&,,,,0,0,0,1,,,,,,,,,,,,,,,,,,,,,,,,,left,1.900726047460921,LDT_prac,left,1.900726047460921,0,,,,,,,,,,,,,,,,,,,,,,,,,1012,2019_Mar_06_1150,mf_amp_cond2,3.0.4,59.985224807361156,
keyboard,&&&&&&&,,,,0,1,1,0,,,,,,,,,,,,,,,,,,,,,,,,,left,1.250563345849514,LDT_prac,left,1.250563345849514,0,,,,,,,,,,,,,,,,,,,,,,,,,1012,2019_Mar_06_1150,mf_amp_cond2,3.0.4,59.985224807361156,
,,,,,,,,,,,,,,,,,,,,,,,,,,,,,,,,,,,,,,,right,2.3674852740950882,,,,,,,,,,,,,,,,,,,,,,,1012,2019_Mar_06_1150,mf_amp_cond2,3.0.4,59.985224807361156,
dumid,&&&&&,right,nonword,,,,,,0,0,0,100,,,,,,,,,,,,,,,,,,,,,,,LDT,left,2.584249792736955,0,,,left,0,2.584249792736955,,,,,,,,,,,,,,,,,,,,1012,2019_Mar_06_1150,mf_amp_cond2,3.0.4,59.985224807361156,
latter,&&&&&&,left,neutral,,,,,,0,1,1,41,,,,,,,,,,,,,,,,,,,,,,,LDT,left,3.7845190055668354,1,,,left,1,3.7845190055668354,,,,,,,,,,,,,,,,,,,,1012,2019_Mar_06_1150,mf_amp_cond2,3.0.4,59.985224807361156,
sonvoy,&&&&&&,None,nonword,,,,,,0,2,2,15,,,,,,,,,,,,,,,,,,,,,,,LDT,left,1.3672678254079074,0,,,left,0,1.3672678254079074,,,,,,,,,,,,,,,,,,,,1012,2019_Mar_06_1150,mf_amp_cond2,3.0.4,59.985224807361156,
discovars,&&&&&&&&&,right,nonword,,,,,,0,3,3,32,,,,,,,,,,,,,,,,,,,,,,,LDT,left,1.2505723260110244,0,,,left,0,1.2505723260110244,,,,,,,,,,,,,,,,,,,,1012,2019_Mar_06_1150,mf_amp_cond2,3.0.4,59.985224807361156,
ban,&&&,left,loyalty.vice,,,,,,0,4,4,195,,,,,,,,,,,,,,,,,,,,,,,LDT,left,1.4005890996195376,1,,,left,1,1.4005890996195376,,,,,,,,,,,,,,,,,,,,1012,2019_Mar_06_1150,mf_amp_cond2,3.0.4,59.985224807361156,
presentkess,&&&&&&&&&&&,right,nonword,,,,,,0,5,5,139,,,,,,,,,,,,,,,,,,,,,,,LDT,left,1.4672961130272597,0,,,left,0,1.4672961130272597,,,,,,,,,,,,,,,,,,,,1012,2019_Mar_06_1150,mf_amp_cond2,3.0.4,59.985224807361156,
quarterbocks,&&&&&&&&&&&&,right,nonword,,,,,,0,6,6,177,,,,,,,,,,,,,,,,,,,,,,,LDT,left,2.200802892097272,0,,,left,0,2.200802892097272,,,,,,,,,,,,,,,,,,,,1012,2019_Mar_06_1150,mf_amp_cond2,3.0.4,59.985224807361156,
erdest,&&&&&&,right,nonword,,,,,,0,7,7,171,,,,,,,,,,,,,,,,,,,,,,,LDT,left,1.4672826427267864,0,,,left,0,1.4672826427267864,,,,,,,,,,,,,,,,,,,,1012,2019_Mar_06_1150,mf_amp_cond2,3.0.4,59.985224807361156,
ecgagement,&&&&&&&&&&,None,nonword,,,,,,0,8,8,129,,,,,,,,,,,,,,,,,,,,,,,LDT,left,1.5506373040843755,0,,,left,0,1.5506373040843755,,,,,,,,,,,,,,,,,,,,1012,2019_Mar_06_1150,mf_amp_cond2,3.0.4,59.985224807361156,
laming,&&&&&&,right,nonword,,,,,,0,9,9,166,,,,,,,,,,,,,,,,,,,,,,,LDT,left,1.150544038391672,0,,,left,0,1.150544038391672,,,,,,,,,,,,,,,,,,,,1012,2019_Mar_06_1150,mf_amp_cond2,3.0.4,59.985224807361156,
sowntrodden,&&&&&&&&&&&,right,nonword,,,,,,0,10,10,149,,,,,,,,,,,,,,,,,,,,,,,LDT,left,1.1504731592722237,0,,,left,0,1.1504731592722237,,,,,,,,,,,,,,,,,,,,1012,2019_Mar_06_1150,mf_amp_cond2,3.0.4,59.985224807361156,
could,&&&&&,left,neutral,,,,,,0,11,11,14,,,,,,,,,,,,,,,,,,,,,,,LDT,right,0.9338154407450929,0,,,right,0,0.9338154407450929,,,,,,,,,,,,,,,,,,,,1012,2019_Mar_06_1150,mf_amp_cond2,3.0.4,59.985224807361156,
lies,&&&&,left,fairness.vice,,,,,,0,12,12,192,,,,,,,,,,,,,,,,,,,,,,,LDT,right,0.8337813802063465,0,,,right,0,0.8337813802063465,,,,,,,,,,,,,,,,,,,,1012,2019_Mar_06_1150,mf_amp_cond2,3.0.4,59.985224807361156,
neneficence,&&&&&&&&&&&,right,nonword,,,,,,0,13,13,155,,,,,,,,,,,,,,,,,,,,,,,LDT,left,1.567317665554583,0,,,left,0,1.567317665554583,,,,,,,,,,,,,,,,,,,,1012,2019_Mar_06_1150,mf_amp_cond2,3.0.4,59.985224807361156,
vurtain,&&&&&&&,right,nonword,,,,,,0,14,14,46,,,,,,,,,,,,,,,,,,,,,,,LDT,right,1.1171945409150794,1,,,right,1,1.1171945409150794,,,,,,,,,,,,,,,,,,,,1012,2019_Mar_06_1150,mf_amp_cond2,3.0.4,59.985224807361156,
saned,&&&&&,None,nonword,,,,,,0,15,15,124,,,,,,,,,,,,,,,,,,,,,,,LDT,left,0.8671475552255288,0,,,left,0,0.8671475552255288,,,,,,,,,,,,,,,,,,,,1012,2019_Mar_06_1150,mf_amp_cond2,3.0.4,59.985224807361156,
good,&&&&,left,care.virtue,,,,,,0,16,16,38,,,,,,,,,,,,,,,,,,,,,,,LDT,right,0.6337401996133849,0,,,right,0,0.6337401996133849,,,,,,,,,,,,,,,,,,,,1012,2019_Mar_06_1150,mf_amp_cond2,3.0.4,59.985224807361156,
reelectiob,&&&&&&&&&&,right,nonword,,,,,,0,17,17,126,,,,,,,,,,,,,,,,,,,,,,,LDT,right,1.183876858674921,1,,,right,1,1.183876858674921,,,,,,,,,,,,,,,,,,,,1012,2019_Mar_06_1150,mf_amp_cond2,3.0.4,59.985224807361156,
tracious,&&&&&&&&,right,nonword,,,,,,0,18,18,81,,,,,,,,,,,,,,,,,,,,,,,LDT,left,0.7169348212191835,0,,,left,0,0.7169348212191835,,,,,,,,,,,,,,,,,,,,1012,2019_Mar_06_1150,mf_amp_cond2,3.0.4,59.985224807361156,
rebels,&&&&&&,left,authority.vice,,,,,,0,19,19,66,,,,,,,,,,,,,,,,,,,,,,,LDT,right,0.6003948712022975,0,,,right,0,0.6003948712022975,,,,,,,,,,,,,,,,,,,,1012,2019_Mar_06_1150,mf_amp_cond2,3.0.4,59.985224807361156,
erks,&&&&,right,nonword,,,,,,0,20,20,198,,,,,,,,,,,,,,,,,,,,,,,LDT,left,0.9004928835202008,0,,,left,0,0.9004928835202008,,,,,,,,,,,,,,,,,,,,1012,2019_Mar_06_1150,mf_amp_cond2,3.0.4,59.985224807361156,
scandal,&&&&&&&,left,sanctity.vice,,,,,,0,21,21,185,,,,,,,,,,,,,,,,,,,,,,,LDT,right,0.5670556367840618,0,,,right,0,0.5670556367840618,,,,,,,,,,,,,,,,,,,,1012,2019_Mar_06_1150,mf_amp_cond2,3.0.4,59.985224807361156,
trust,&&&&&,left,authority.virtue,,,,,,0,22,22,105,,,,,,,,,,,,,,,,,,,,,,,LDT,right,0.9338122335029766,0,,,right,0,0.9338122335029766,,,,,,,,,,,,,,,,,,,,1012,2019_Mar_06_1150,mf_amp_cond2,3.0.4,59.985224807361156,
slending,&&&&&&&&,right,nonword,,,,,,0,23,23,133,,,,,,,,,,,,,,,,,,,,,,,LDT,left,0.8171119231265038,0,,,left,0,0.8171119231265038,,,,,,,,,,,,,,,,,,,,1012,2019_Mar_06_1150,mf_amp_cond2,3.0.4,59.985224807361156,
violations,&&&&&&&&&&,left,sanctity.vice,,,,,,0,24,24,91,,,,,,,,,,,,,,,,,,,,,,,LDT,left,0.8838295202003792,1,,,left,1,0.8838295202003792,,,,,,,,,,,,,,,,,,,,1012,2019_Mar_06_1150,mf_amp_cond2,3.0.4,59.985224807361156,
groups,&&&&&&,left,loyalty.vice,,,,,,0,25,25,110,,,,,,,,,,,,,,,,,,,,,,,LDT,right,0.5337407768238336,0,,,right,0,0.5337407768238336,,,,,,,,,,,,,,,,,,,,1012,2019_Mar_06_1150,mf_amp_cond2,3.0.4,59.985224807361156,
frocessing,&&&&&&&&&&,right,nonword,,,,,,0,26,26,45,,,,,,,,,,,,,,,,,,,,,,,LDT,right,0.6670188179705292,1,,,right,1,0.6670188179705292,,,,,,,,,,,,,,,,,,,,1012,2019_Mar_06_1150,mf_amp_cond2,3.0.4,59.985224807361156,
done,&&&&,left,neutral,,,,,,0,27,27,1,,,,,,,,,,,,,,,,,,,,,,,LDT,right,0.5837222072295845,0,,,right,0,0.5837222072295845,,,,,,,,,,,,,,,,,,,,1012,2019_Mar_06_1150,mf_amp_cond2,3.0.4,59.985224807361156,
scalbel,&&&&&&&,right,nonword,,,,,,0,28,28,174,,,,,,,,,,,,,,,,,,,,,,,LDT,right,0.6170681768562645,1,,,right,1,0.6170681768562645,,,,,,,,,,,,,,,,,,,,1012,2019_Mar_06_1150,mf_amp_cond2,3.0.4,59.985224807361156,
squets,&&&&&&,right,nonword,,,,,,0,29,29,160,,,,,,,,,,,,,,,,,,,,,,,LDT,left,0.6004070586059242,0,,,left,0,0.6004070586059242,,,,,,,,,,,,,,,,,,,,1012,2019_Mar_06_1150,mf_amp_cond2,3.0.4,59.985224807361156,
aubos,&&&&&,right,nonword,,,,,,0,30,30,184,,,,,,,,,,,,,,,,,,,,,,,LDT,left,0.700441119261086,0,,,left,0,0.700441119261086,,,,,,,,,,,,,,,,,,,,1012,2019_Mar_06_1150,mf_amp_cond2,3.0.4,59.985224807361156,
asn,&&&,right,nonword,,,,,,0,31,31,189,,,,,,,,,,,,,,,,,,,,,,,LDT,left,0.6502637286903337,0,,,left,0,0.6502637286903337,,,,,,,,,,,,,,,,,,,,1012,2019_Mar_06_1150,mf_amp_cond2,3.0.4,59.985224807361156,
pulge,&&&&&,right,nonword,,,,,,0,32,32,112,,,,,,,,,,,,,,,,,,,,,,,LDT,left,0.6170633661095053,0,,,left,0,0.6170633661095053,,,,,,,,,,,,,,,,,,,,1012,2019_Mar_06_1150,mf_amp_cond2,3.0.4,59.985224807361156,
vicissifude,&&&&&&&&&&&,right,nonword,,,,,,0,33,33,20,,,,,,,,,,,,,,,,,,,,,,,LDT,left,1.4005897411843762,0,,,left,0,1.4005897411843762,,,,,,,,,,,,,,,,,,,,1012,2019_Mar_06_1150,mf_amp_cond2,3.0.4,59.985224807361156,
lempestuous,&&&&&&&&&&&,right,nonword,,,,,,0,34,34,39,,,,,,,,,,,,,,,,,,,,,,,LDT,left,0.7170922950608656,0,,,left,0,0.7170922950608656,,,,,,,,,,,,,,,,,,,,1012,2019_Mar_06_1150,mf_amp_cond2,3.0.4,59.985224807361156,
critics,&&&&&&&,left,loyalty.vice,,,,,,0,35,35,87,,,,,,,,,,,,,,,,,,,,,,,LDT,right,0.6337616879027337,0,,,right,0,0.6337616879027337,,,,,,,,,,,,,,,,,,,,1012,2019_Mar_06_1150,mf_amp_cond2,3.0.4,59.985224807361156,
attacks,&&&&&&&,left,care.vice,,,,,,0,36,36,117,,,,,,,,,,,,,,,,,,,,,,,LDT,right,0.6003932676976547,0,,,right,0,0.6003932676976547,,,,,,,,,,,,,,,,,,,,1012,2019_Mar_06_1150,mf_amp_cond2,3.0.4,59.985224807361156,
gationwide,&&&&&&&&&&,right,nonword,,,,,,0,37,37,2,,,,,,,,,,,,,,,,,,,,,,,LDT,left,1.050499714910984,0,,,left,0,1.050499714910984,,,,,,,,,,,,,,,,,,,,1012,2019_Mar_06_1150,mf_amp_cond2,3.0.4,59.985224807361156,
toward,&&&&&&,left,neutral,,,,,,0,38,38,159,,,,,,,,,,,,,,,,,,,,,,,LDT,right,0.5836138036102057,0,,,right,0,0.5836138036102057,,,,,,,,,,,,,,,,,,,,1012,2019_Mar_06_1150,mf_amp_cond2,3.0.4,59.985224807361156,
prones,&&&&&&,right,nonword,,,,,,0,39,39,47,,,,,,,,,,,,,,,,,,,,,,,LDT,right,0.6504077322315425,1,,,right,1,0.6504077322315425,,,,,,,,,,,,,,,,,,,,1012,2019_Mar_06_1150,mf_amp_cond2,3.0.4,59.985224807361156,
both,&&&&,left,neutral,,,,,,0,40,40,83,,,,,,,,,,,,,,,,,,,,,,,LDT,right,0.4670841167680919,0,,,right,0,0.4670841167680919,,,,,,,,,,,,,,,,,,,,1012,2019_Mar_06_1150,mf_amp_cond2,3.0.4,59.985224807361156,
fegard,&&&&&&,right,nonword,,,,,,0,41,41,0,,,,,,,,,,,,,,,,,,,,,,,LDT,left,0.7004411191446707,0,,,left,0,0.7004411191446707,,,,,,,,,,,,,,,,,,,,1012,2019_Mar_06_1150,mf_amp_cond2,3.0.4,59.985224807361156,
violence,&&&&&&&&,left,care.vice,,,,,,0,42,42,9,,,,,,,,,,,,,,,,,,,,,,,LDT,right,0.5003672251477838,0,,,right,0,0.5003672251477838,,,,,,,,,,,,,,,,,,,,1012,2019_Mar_06_1150,mf_amp_cond2,3.0.4,59.985224807361156,
fighters,&&&&&&&&,left,authority.vice,,,,,,0,43,43,67,,,,,,,,,,,,,,,,,,,,,,,LDT,right,0.9504929155809805,0,,,right,0,0.9504929155809805,,,,,,,,,,,,,,,,,,,,1012,2019_Mar_06_1150,mf_amp_cond2,3.0.4,59.985224807361156,
become,&&&&&&,left,neutral,,,,,,0,44,44,145,,,,,,,,,,,,,,,,,,,,,,,LDT,right,0.5170434173196554,0,,,right,0,0.5170434173196554,,,,,,,,,,,,,,,,,,,,1012,2019_Mar_06_1150,mf_amp_cond2,3.0.4,59.985224807361156,
wonderfujnoss,&&&&&&&&&&&&&,right,nonword,,,,,,0,45,45,109,,,,,,,,,,,,,,,,,,,,,,,LDT,left,0.5003903170581907,0,,,left,0,0.5003903170581907,,,,,,,,,,,,,,,,,,,,1012,2019_Mar_06_1150,mf_amp_cond2,3.0.4,59.985224807361156,
respect,&&&&&&&,left,sanctity.virtue,,,,,,0,46,46,99,,,,,,,,,,,,,,,,,,,,,,,LDT,right,1.1672134954715148,0,,,right,0,1.1672134954715148,,,,,,,,,,,,,,,,,,,,1012,2019_Mar_06_1150,mf_amp_cond2,3.0.4,59.985224807361156,
about,&&&&&,left,neutral,,,,,,0,47,47,92,,,,,,,,,,,,,,,,,,,,,,,LDT,right,0.4670841166516766,0,,,right,0,0.4670841166516766,,,,,,,,,,,,,,,,,,,,1012,2019_Mar_06_1150,mf_amp_cond2,3.0.4,59.985224807361156,
simplustic,&&&&&&&&&&,right,nonword,,,,,,0,48,48,186,,,,,,,,,,,,,,,,,,,,,,,LDT,right,1.0005028900923207,1,,,right,1,1.0005028900923207,,,,,,,,,,,,,,,,,,,,1012,2019_Mar_06_1150,mf_amp_cond2,3.0.4,59.985224807361156,
uller,&&&&&,right,nonword,,,,,,0,49,49,191,,,,,,,,,,,,,,,,,,,,,,,LDT,left,1.2005687661003321,0,,,left,0,1.2005687661003321,,,,,,,,,,,,,,,,,,,,1012,2019_Mar_06_1150,mf_amp_cond2,3.0.4,59.985224807361156,
openet,&&&&&&,None,nonword,,,,,,0,50,50,175,,,,,,,,,,,,,,,,,,,,,,,LDT,left,0.7669707740424201,0,,,left,0,0.7669707740424201,,,,,,,,,,,,,,,,,,,,1012,2019_Mar_06_1150,mf_amp_cond2,3.0.4,59.985224807361156,
seachwear,&&&&&&&&&,right,nonword,,,,,,0,51,51,115,,,,,,,,,,,,,,,,,,,,,,,LDT,left,1.1172189156059176,0,,,left,0,1.1172189156059176,,,,,,,,,,,,,,,,,,,,1012,2019_Mar_06_1150,mf_amp_cond2,3.0.4,59.985224807361156,
ning,&&&&,right,nonword,,,,,,0,52,52,176,,,,,,,,,,,,,,,,,,,,,,,LDT,left,0.8337768900673836,0,,,left,0,0.8337768900673836,,,,,,,,,,,,,,,,,,,,1012,2019_Mar_06_1150,mf_amp_cond2,3.0.4,59.985224807361156,
troops,&&&&&&,left,loyalty.vice,,,,,,0,53,53,49,,,,,,,,,,,,,,,,,,,,,,,LDT,left,2.5675668654730543,1,,,left,1,2.5675668654730543,,,,,,,,,,,,,,,,,,,,1012,2019_Mar_06_1150,mf_amp_cond2,3.0.4,59.985224807361156,
pharing,&&&&&&&,right,nonword,,,,,,0,54,54,123,,,,,,,,,,,,,,,,,,,,,,,LDT,left,0.9004803753923625,0,,,left,0,0.9004803753923625,,,,,,,,,,,,,,,,,,,,1012,2019_Mar_06_1150,mf_amp_cond2,3.0.4,59.985224807361156,
viscs,&&&&&,None,nonword,,,,,,0,55,55,17,,,,,,,,,,,,,,,,,,,,,,,LDT,right,0.4503601372707635,0,,,right,0,0.4503601372707635,,,,,,,,,,,,,,,,,,,,1012,2019_Mar_06_1150,mf_amp_cond2,3.0.4,59.985224807361156,
credit,&&&&&&,left,fairness.virtue,,,,,,0,56,56,138,,,,,,,,,,,,,,,,,,,,,,,LDT,right,0.7837758957175538,0,,,right,0,0.7837758957175538,,,,,,,,,,,,,,,,,,,,1012,2019_Mar_06_1150,mf_amp_cond2,3.0.4,59.985224807361156,
fangsters,&&&&&&&&&,right,nonword,,,,,,0,57,57,131,,,,,,,,,,,,,,,,,,,,,,,LDT,left,0.8337967747356743,0,,,left,0,0.8337967747356743,,,,,,,,,,,,,,,,,,,,1012,2019_Mar_06_1150,mf_amp_cond2,3.0.4,59.985224807361156,
elduringly,&&&&&&&&&&,right,nonword,,,,,,0,58,58,178,,,,,,,,,,,,,,,,,,,,,,,LDT,left,0.6504301826935261,0,,,left,0,0.6504301826935261,,,,,,,,,,,,,,,,,,,,1012,2019_Mar_06_1150,mf_amp_cond2,3.0.4,59.985224807361156,
hence,&&&&&,left,neutral,,,,,,0,59,59,51,,,,,,,,,,,,,,,,,,,,,,,LDT,left,0.9171501530800015,1,,,left,1,0.9171501530800015,,,,,,,,,,,,,,,,,,,,1012,2019_Mar_06_1150,mf_amp_cond2,3.0.4,59.985224807361156,
friends,&&&&&&&,left,loyalty.virtue,,,,,,0,60,60,5,,,,,,,,,,,,,,,,,,,,,,,LDT,left,0.9171350792748854,1,,,left,1,0.9171350792748854,,,,,,,,,,,,,,,,,,,,1012,2019_Mar_06_1150,mf_amp_cond2,3.0.4,59.985224807361156,
least,&&&&&,left,neutral,,,,,,0,61,61,70,,,,,,,,,,,,,,,,,,,,,,,LDT,left,0.7171054446371272,1,,,left,1,0.7171054446371272,,,,,,,,,,,,,,,,,,,,1012,2019_Mar_06_1150,mf_amp_cond2,3.0.4,59.985224807361156,
ilportation,&&&&&&&&&&&,right,nonword,,,,,,0,62,62,153,,,,,,,,,,,,,,,,,,,,,,,LDT,left,1.6506636672420427,0,,,left,0,1.6506636672420427,,,,,,,,,,,,,,,,,,,,1012,2019_Mar_06_1150,mf_amp_cond2,3.0.4,59.985224807361156,
nackers,&&&&&&&,right,nonword,,,,,,0,63,63,65,,,,,,,,,,,,,,,,,,,,,,,LDT,left,0.6670762269059196,0,,,left,0,0.6670762269059196,,,,,,,,,,,,,,,,,,,,1012,2019_Mar_06_1150,mf_amp_cond2,3.0.4,59.985224807361156,
wherever,&&&&&&&&,left,neutral,,,,,,0,64,64,128,,,,,,,,,,,,,,,,,,,,,,,LDT,right,0.5670745591633022,0,,,right,0,0.5670745591633022,,,,,,,,,,,,,,,,,,,,1012,2019_Mar_06_1150,mf_amp_cond2,3.0.4,59.985224807361156,
abointment,&&&&&&&&&&,right,nonword,,,,,,0,65,65,56,,,,,,,,,,,,,,,,,,,,,,,LDT,left,0.6837684550555423,0,,,left,0,0.6837684550555423,,,,,,,,,,,,,,,,,,,,1012,2019_Mar_06_1150,mf_amp_cond2,3.0.4,59.985224807361156,
injured,&&&&&&&,left,care.vice,,,,,,0,66,66,84,,,,,,,,,,,,,,,,,,,,,,,LDT,right,0.7837720471434295,0,,,right,0,0.7837720471434295,,,,,,,,,,,,,,,,,,,,1012,2019_Mar_06_1150,mf_amp_cond2,3.0.4,59.985224807361156,
health,&&&&&&,left,care.virtue,,,,,,0,67,67,107,,,,,,,,,,,,,,,,,,,,,,,LDT,right,0.6337642536964267,0,,,right,0,0.6337642536964267,,,,,,,,,,,,,,,,,,,,1012,2019_Mar_06_1150,mf_amp_cond2,3.0.4,59.985224807361156,
terrorists,&&&&&&&&&&,left,fairness.vice,,,,,,0,68,68,143,,,,,,,,,,,,,,,,,,,,,,,LDT,left,0.6337639328557998,1,,,left,1,0.6337639328557998,,,,,,,,,,,,,,,,,,,,1012,2019_Mar_06_1150,mf_amp_cond2,3.0.4,59.985224807361156,
whereafter,&&&&&&&&&&,left,neutral,,,,,,0,69,69,168,,,,,,,,,,,,,,,,,,,,,,,LDT,left,1.2672350477660075,1,,,left,1,1.2672350477660075,,,,,,,,,,,,,,,,,,,,1012,2019_Mar_06_1150,mf_amp_cond2,3.0.4,59.985224807361156,
sfumatoy,&&&&&&&&,None,nonword,,,,,,0,70,70,134,,,,,,,,,,,,,,,,,,,,,,,LDT,left,0.6003961542155594,0,,,left,0,0.6003961542155594,,,,,,,,,,,,,,,,,,,,1012,2019_Mar_06_1150,mf_amp_cond2,3.0.4,59.985224807361156,
anyhow,&&&&&&,left,neutral,,,,,,0,71,71,148,,,,,,,,,,,,,,,,,,,,,,,LDT,left,0.9838244528509676,1,,,left,1,0.9838244528509676,,,,,,,,,,,,,,,,,,,,1012,2019_Mar_06_1150,mf_amp_cond2,3.0.4,59.985224807361156,
front,&&&&&,left,neutral,,,,,,0,72,72,164,,,,,,,,,,,,,,,,,,,,,,,LDT,right,0.5503845760831609,0,,,right,0,0.5503845760831609,,,,,,,,,,,,,,,,,,,,1012,2019_Mar_06_1150,mf_amp_cond2,3.0.4,59.985224807361156,
faith,&&&&&,left,sanctity.virtue,,,,,,0,73,73,188,,,,,,,,,,,,,,,,,,,,,,,LDT,right,0.6003839666955173,0,,,right,0,0.6003839666955173,,,,,,,,,,,,,,,,,,,,1012,2019_Mar_06_1150,mf_amp_cond2,3.0.4,59.985224807361156,
edancipation,&&&&&&&&&&&&,None,nonword,,,,,,0,74,74,173,,,,,,,,,,,,,,,,,,,,,,,LDT,left,0.6004240568727255,0,,,left,0,0.6004240568727255,,,,,,,,,,,,,,,,,,,,1012,2019_Mar_06_1150,mf_amp_cond2,3.0.4,59.985224807361156,
lursuer,&&&&&&&,right,nonword,,,,,,0,75,75,147,,,,,,,,,,,,,,,,,,,,,,,LDT,left,0.9671171508962288,0,,,left,0,0.9671171508962288,,,,,,,,,,,,,,,,,,,,1012,2019_Mar_06_1150,mf_amp_cond2,3.0.4,59.985224807361156,
gun,&&&,left,authority.vice,,,,,,0,76,76,111,,,,,,,,,,,,,,,,,,,,,,,LDT,right,0.5503406374482438,0,,,right,0,0.5503406374482438,,,,,,,,,,,,,,,,,,,,1012,2019_Mar_06_1150,mf_amp_cond2,3.0.4,59.985224807361156,
fonderland,&&&&&&&&&&,right,nonword,,,,,,0,77,77,96,,,,,,,,,,,,,,,,,,,,,,,LDT,left,0.5837283008731902,0,,,left,0,0.5837283008731902,,,,,,,,,,,,,,,,,,,,1012,2019_Mar_06_1150,mf_amp_cond2,3.0.4,59.985224807361156,
eight,&&&&&,left,neutral,,,,,,0,78,78,60,,,,,,,,,,,,,,,,,,,,,,,LDT,right,0.550377840991132,0,,,right,0,0.550377840991132,,,,,,,,,,,,,,,,,,,,1012,2019_Mar_06_1150,mf_amp_cond2,3.0.4,59.985224807361156,
harassment,&&&&&&&&&&,left,sanctity.vice,,,,,,0,79,79,193,,,,,,,,,,,,,,,,,,,,,,,LDT,left,0.6670839242869988,1,,,left,1,0.6670839242869988,,,,,,,,,,,,,,,,,,,,1012,2019_Mar_06_1150,mf_amp_cond2,3.0.4,59.985224807361156,
forepo,&&&&&&,right,nonword,,,,,,0,80,80,127,,,,,,,,,,,,,,,,,,,,,,,LDT,left,0.6504115808056667,0,,,left,0,0.6504115808056667,,,,,,,,,,,,,,,,,,,,1012,2019_Mar_06_1150,mf_amp_cond2,3.0.4,59.985224807361156,
focomotive,&&&&&&&&&&,right,nonword,,,,,,0,81,81,52,,,,,,,,,,,,,,,,,,,,,,,LDT,left,0.8004617094993591,0,,,left,0,0.8004617094993591,,,,,,,,,,,,,,,,,,,,1012,2019_Mar_06_1150,mf_amp_cond2,3.0.4,59.985224807361156,
everything,&&&&&&&&&&,left,neutral,,,,,,0,82,82,80,,,,,,,,,,,,,,,,,,,,,,,LDT,right,0.5170475866179913,0,,,right,0,0.5170475866179913,,,,,,,,,,,,,,,,,,,,1012,2019_Mar_06_1150,mf_amp_cond2,3.0.4,59.985224807361156,
divility,&&&&&&&&,right,nonword,,,,,,0,83,83,183,,,,,,,,,,,,,,,,,,,,,,,LDT,left,0.5337154398439452,0,,,left,0,0.5337154398439452,,,,,,,,,,,,,,,,,,,,1012,2019_Mar_06_1150,mf_amp_cond2,3.0.4,59.985224807361156,
juck,&&&&,right,nonword,,,,,,0,84,84,72,,,,,,,,,,,,,,,,,,,,,,,LDT,right,0.5670652582775801,1,,,right,1,0.5670652582775801,,,,,,,,,,,,,,,,,,,,1012,2019_Mar_06_1150,mf_amp_cond2,3.0.4,59.985224807361156,
threatened,&&&&&&&&&&,left,fairness.vice,,,,,,0,85,85,79,,,,,,,,,,,,,,,,,,,,,,,LDT,left,0.6337151833577082,1,,,left,1,0.6337151833577082,,,,,,,,,,,,,,,,,,,,1012,2019_Mar_06_1150,mf_amp_cond2,3.0.4,59.985224807361156,
ejanulated,&&&&&&&&&&,right,nonword,,,,,,0,86,86,101,,,,,,,,,,,,,,,,,,,,,,,LDT,right,1.6006549757439643,1,,,right,1,1.6006549757439643,,,,,,,,,,,,,,,,,,,,1012,2019_Mar_06_1150,mf_amp_cond2,3.0.4,59.985224807361156,
strofe,&&&&&&,right,nonword,,,,,,0,87,87,90,,,,,,,,,,,,,,,,,,,,,,,LDT,right,0.583726697252132,1,,,right,1,0.583726697252132,,,,,,,,,,,,,,,,,,,,1012,2019_Mar_06_1150,mf_amp_cond2,3.0.4,59.985224807361156,
crinking,&&&&&&&&,right,nonword,,,,,,0,88,88,37,,,,,,,,,,,,,,,,,,,,,,,LDT,right,0.6671018846100196,1,,,right,1,0.6671018846100196,,,,,,,,,,,,,,,,,,,,1012,2019_Mar_06_1150,mf_amp_cond2,3.0.4,59.985224807361156,
amoungst,&&&&&&&&,left,neutral,,,,,,0,89,89,13,,,,,,,,,,,,,,,,,,,,,,,LDT,left,0.46702638699207455,1,,,left,1,0.46702638699207455,,,,,,,,,,,,,,,,,,,,1012,2019_Mar_06_1150,mf_amp_cond2,3.0.4,59.985224807361156,
iptervention,&&&&&&&&&&&&,right,nonword,,,,,,0,90,90,27,,,,,,,,,,,,,,,,,,,,,,,LDT,left,0.6170733084436506,0,,,left,0,0.6170733084436506,,,,,,,,,,,,,,,,,,,,1012,2019_Mar_06_1150,mf_amp_cond2,3.0.4,59.985224807361156,
gournful,&&&&&&&&,right,nonword,,,,,,0,91,91,157,,,,,,,,,,,,,,,,,,,,,,,LDT,right,0.8338124899892136,1,,,right,1,0.8338124899892136,,,,,,,,,,,,,,,,,,,,1012,2019_Mar_06_1150,mf_amp_cond2,3.0.4,59.985224807361156,
ronviolence,&&&&&&&&&&&,right,nonword,,,,,,0,92,92,102,,,,,,,,,,,,,,,,,,,,,,,LDT,left,0.5003829405177385,0,,,left,0,0.5003829405177385,,,,,,,,,,,,,,,,,,,,1012,2019_Mar_06_1150,mf_amp_cond2,3.0.4,59.985224807361156,
nomaric,&&&&&&&,None,nonword,,,,,,0,93,93,71,,,,,,,,,,,,,,,,,,,,,,,LDT,left,0.5670582024613395,0,,,left,0,0.5670582024613395,,,,,,,,,,,,,,,,,,,,1012,2019_Mar_06_1150,mf_amp_cond2,3.0.4,59.985224807361156,
latterly,&&&&&&&&,left,neutral,,,,,,0,94,94,23,,,,,,,,,,,,,,,,,,,,,,,LDT,left,0.6002428496722132,1,,,left,1,0.6002428496722132,,,,,,,,,,,,,,,,,,,,1012,2019_Mar_06_1150,mf_amp_cond2,3.0.4,59.985224807361156,
gedious,&&&&&&&,right,nonword,,,,,,0,95,95,114,,,,,,,,,,,,,,,,,,,,,,,LDT,left,0.6337549526942894,0,,,left,0,0.6337549526942894,,,,,,,,,,,,,,,,,,,,1012,2019_Mar_06_1150,mf_amp_cond2,3.0.4,59.985224807361156,
therefore,&&&&&&&&&,left,neutral,,,,,,0,96,96,135,,,,,,,,,,,,,,,,,,,,,,,LDT,right,0.30032219598069787,0,,,right,0,0.30032219598069787,,,,,,,,,,,,,,,,,,,,1012,2019_Mar_06_1150,mf_amp_cond2,3.0.4,59.985224807361156,
myself,&&&&&&,left,neutral,,,,,,0,97,97,180,,,,,,,,,,,,,,,,,,,,,,,LDT,left,0.45038322918117046,1,,,left,1,0.45038322918117046,,,,,,,,,,,,,,,,,,,,1012,2019_Mar_06_1150,mf_amp_cond2,3.0.4,59.985224807361156,
useful,&&&&&&,left,authority.virtue,,,,,,0,98,98,199,,,,,,,,,,,,,,,,,,,,,,,LDT,right,0.600405775825493,0,,,right,0,0.600405775825493,,,,,,,,,,,,,,,,,,,,1012,2019_Mar_06_1150,mf_amp_cond2,3.0.4,59.985224807361156,
been,&&&&,left,neutral,,,,,,0,99,99,59,,,,,,,,,,,,,,,,,,,,,,,LDT,right,0.43369388743303716,0,,,right,0,0.43369388743303716,,,,,,,,,,,,,,,,,,,,1012,2019_Mar_06_1150,mf_amp_cond2,3.0.4,59.985224807361156,
riot,&&&&,left,authority.vice,,,,,,0,100,100,19,,,,,,,,,,,,,,,,,,,,,,,LDT,left,0.6170636867173016,1,,,left,1,0.6170636867173016,,,,,,,,,,,,,,,,,,,,1012,2019_Mar_06_1150,mf_amp_cond2,3.0.4,59.985224807361156,
fostet,&&&&&&,right,nonword,,,,,,0,101,101,28,,,,,,,,,,,,,,,,,,,,,,,LDT,right,1.0004855711013079,1,,,right,1,1.0004855711013079,,,,,,,,,,,,,,,,,,,,1012,2019_Mar_06_1150,mf_amp_cond2,3.0.4,59.985224807361156,
fifteen,&&&&&&&,left,neutral,,,,,,0,102,102,74,,,,,,,,,,,,,,,,,,,,,,,LDT,right,0.5335634184302762,0,,,right,0,0.5335634184302762,,,,,,,,,,,,,,,,,,,,1012,2019_Mar_06_1150,mf_amp_cond2,3.0.4,59.985224807361156,
values,&&&&&&,left,sanctity.virtue,,,,,,0,103,103,140,,,,,,,,,,,,,,,,,,,,,,,LDT,right,0.617078760638833,0,,,right,0,0.617078760638833,,,,,,,,,,,,,,,,,,,,1012,2019_Mar_06_1150,mf_amp_cond2,3.0.4,59.985224807361156,
fifty,&&&&&,left,neutral,,,,,,0,104,104,190,,,,,,,,,,,,,,,,,,,,,,,LDT,left,0.7837826309259981,1,,,left,1,0.7837826309259981,,,,,,,,,,,,,,,,,,,,1012,2019_Mar_06_1150,mf_amp_cond2,3.0.4,59.985224807361156,
sliptery,&&&&&&&&,right,nonword,,,,,,0,105,105,42,,,,,,,,,,,,,,,,,,,,,,,LDT,left,0.9171835080487654,0,,,left,0,0.9171835080487654,,,,,,,,,,,,,,,,,,,,1012,2019_Mar_06_1150,mf_amp_cond2,3.0.4,59.985224807361156,
opportunity,&&&&&&&&&&&,left,fairness.virtue,,,,,,0,106,106,130,,,,,,,,,,,,,,,,,,,,,,,LDT,right,0.5670675033470616,0,,,right,0,0.5670675033470616,,,,,,,,,,,,,,,,,,,,1012,2019_Mar_06_1150,mf_amp_cond2,3.0.4,59.985224807361156,
less,&&&&,left,neutral,,,,,,0,107,107,18,,,,,,,,,,,,,,,,,,,,,,,LDT,right,0.7837710850872099,0,,,right,0,0.7837710850872099,,,,,,,,,,,,,,,,,,,,1012,2019_Mar_06_1150,mf_amp_cond2,3.0.4,59.985224807361156,
esquisiteness,&&&&&&&&&&&&&,right,nonword,,,,,,0,108,108,150,,,,,,,,,,,,,,,,,,,,,,,LDT,right,0.9504861804889515,1,,,right,1,0.9504861804889515,,,,,,,,,,,,,,,,,,,,1012,2019_Mar_06_1150,mf_amp_cond2,3.0.4,59.985224807361156,
police,&&&&&&,left,authority.vice,,,,,,0,109,109,57,,,,,,,,,,,,,,,,,,,,,,,LDT,left,0.5003697909414768,1,,,left,1,0.5003697909414768,,,,,,,,,,,,,,,,,,,,1012,2019_Mar_06_1150,mf_amp_cond2,3.0.4,59.985224807361156,
emassion,&&&&&&&&,right,nonword,,,,,,0,110,110,36,,,,,,,,,,,,,,,,,,,,,,,LDT,right,1.2505697603337467,1,,,right,1,1.2505697603337467,,,,,,,,,,,,,,,,,,,,1012,2019_Mar_06_1150,mf_amp_cond2,3.0.4,59.985224807361156,
thabbily,&&&&&&&&,right,nonword,,,,,,0,111,111,44,,,,,,,,,,,,,,,,,,,,,,,LDT,left,0.7671122117899358,0,,,left,0,0.7671122117899358,,,,,,,,,,,,,,,,,,,,1012,2019_Mar_06_1150,mf_amp_cond2,3.0.4,59.985224807361156,
ugeasily,&&&&&&&&,right,nonword,,,,,,0,112,112,58,,,,,,,,,,,,,,,,,,,,,,,LDT,left,0.7171102553838864,0,,,left,0,0.7171102553838864,,,,,,,,,,,,,,,,,,,,1012,2019_Mar_06_1150,mf_amp_cond2,3.0.4,59.985224807361156,
dignity,&&&&&&&,left,sanctity.virtue,,,,,,0,113,113,40,,,,,,,,,,,,,,,,,,,,,,,LDT,right,0.5170286641223356,0,,,right,0,0.5170286641223356,,,,,,,,,,,,,,,,,,,,1012,2019_Mar_06_1150,mf_amp_cond2,3.0.4,59.985224807361156,
with,&&&&,left,neutral,,,,,,0,114,114,156,,,,,,,,,,,,,,,,,,,,,,,LDT,right,0.5170386064564809,0,,,right,0,0.5170386064564809,,,,,,,,,,,,,,,,,,,,1012,2019_Mar_06_1150,mf_amp_cond2,3.0.4,59.985224807361156,
coom,&&&&,right,nonword,,,,,,0,115,115,50,,,,,,,,,,,,,,,,,,,,,,,LDT,right,0.5503813689574599,1,,,right,1,0.5503813689574599,,,,,,,,,,,,,,,,,,,,1012,2019_Mar_06_1150,mf_amp_cond2,3.0.4,59.985224807361156,
alar,&&&&,right,nonword,,,,,,0,116,116,43,,,,,,,,,,,,,,,,,,,,,,,LDT,left,0.7170226986054331,0,,,left,0,0.7170226986054331,,,,,,,,,,,,,,,,,,,,1012,2019_Mar_06_1150,mf_amp_cond2,3.0.4,59.985224807361156,
gaultless,&&&&&&&&&,right,nonword,,,,,,0,117,117,29,,,,,,,,,,,,,,,,,,,,,,,LDT,left,0.4670289526693523,0,,,left,0,0.4670289526693523,,,,,,,,,,,,,,,,,,,,1012,2019_Mar_06_1150,mf_amp_cond2,3.0.4,59.985224807361156,
three,&&&&&,left,neutral,,,,,,0,118,118,78,,,,,,,,,,,,,,,,,,,,,,,LDT,left,0.48374747997149825,1,,,left,1,0.48374747997149825,,,,,,,,,,,,,,,,,,,,1012,2019_Mar_06_1150,mf_amp_cond2,3.0.4,59.985224807361156,
support,&&&&&&&,left,loyalty.virtue,,,,,,0,119,119,172,,,,,,,,,,,,,,,,,,,,,,,LDT,left,0.8171112816780806,1,,,left,1,0.8171112816780806,,,,,,,,,,,,,,,,,,,,1012,2019_Mar_06_1150,mf_amp_cond2,3.0.4,59.985224807361156,
hescribe,&&&&&&&&,right,nonword,,,,,,0,120,120,30,,,,,,,,,,,,,,,,,,,,,,,LDT,left,1.0338026760146022,0,,,left,0,1.0338026760146022,,,,,,,,,,,,,,,,,,,,1012,2019_Mar_06_1150,mf_amp_cond2,3.0.4,59.985224807361156,
mih,&&&,right,nonword,,,,,,0,121,121,21,,,,,,,,,,,,,,,,,,,,,,,LDT,left,1.0338405210059136,0,,,left,0,1.0338405210059136,,,,,,,,,,,,,,,,,,,,1012,2019_Mar_06_1150,mf_amp_cond2,3.0.4,59.985224807361156,
tislay,&&&&&&,right,nonword,,,,,,0,122,122,103,,,,,,,,,,,,,,,,,,,,,,,LDT,left,1.400617002393119,0,,,left,0,1.400617002393119,,,,,,,,,,,,,,,,,,,,1012,2019_Mar_06_1150,mf_amp_cond2,3.0.4,59.985224807361156,
gandbrake,&&&&&&&&&,right,nonword,,,,,,0,123,123,12,,,,,,,,,,,,,,,,,,,,,,,LDT,left,0.7671086839400232,0,,,left,0,0.7671086839400232,,,,,,,,,,,,,,,,,,,,1012,2019_Mar_06_1150,mf_amp_cond2,3.0.4,59.985224807361156,
hope,&&&&,left,loyalty.virtue,,,,,,0,124,124,163,,,,,,,,,,,,,,,,,,,,,,,LDT,right,0.68374824966304,0,,,right,0,0.68374824966304,,,,,,,,,,,,,,,,,,,,1012,2019_Mar_06_1150,mf_amp_cond2,3.0.4,59.985224807361156,
thru,&&&&,left,neutral,,,,,,0,125,125,120,,,,,,,,,,,,,,,,,,,,,,,LDT,right,0.7337713736342266,0,,,right,0,0.7337713736342266,,,,,,,,,,,,,,,,,,,,1012,2019_Mar_06_1150,mf_amp_cond2,3.0.4,59.985224807361156,
progress,&&&&&&&&,left,authority.virtue,,,,,,0,126,126,162,,,,,,,,,,,,,,,,,,,,,,,LDT,right,0.5335262147709727,0,,,right,0,0.5335262147709727,,,,,,,,,,,,,,,,,,,,1012,2019_Mar_06_1150,mf_amp_cond2,3.0.4,59.985224807361156,
clattening,&&&&&&&&&&,right,nonword,,,,,,0,127,127,118,,,,,,,,,,,,,,,,,,,,,,,LDT,left,0.6669424864230677,0,,,left,0,0.6669424864230677,,,,,,,,,,,,,,,,,,,,1012,2019_Mar_06_1150,mf_amp_cond2,3.0.4,59.985224807361156,
terrorist,&&&&&&&&&,left,loyalty.vice,,,,,,0,128,128,10,,,,,,,,,,,,,,,,,,,,,,,LDT,left,0.7337049844209105,1,,,left,1,0.7337049844209105,,,,,,,,,,,,,,,,,,,,1012,2019_Mar_06_1150,mf_amp_cond2,3.0.4,59.985224807361156,
neutralust,&&&&&&&&&&,right,nonword,,,,,,0,129,129,158,,,,,,,,,,,,,,,,,,,,,,,LDT,right,0.6670874521369115,1,,,right,1,0.6670874521369115,,,,,,,,,,,,,,,,,,,,1012,2019_Mar_06_1150,mf_amp_cond2,3.0.4,59.985224807361156,
interests,&&&&&&&&&,left,fairness.virtue,,,,,,0,130,130,141,,,,,,,,,,,,,,,,,,,,,,,LDT,left,0.533659634529613,1,,,left,1,0.533659634529613,,,,,,,,,,,,,,,,,,,,1012,2019_Mar_06_1150,mf_amp_cond2,3.0.4,59.985224807361156,
wump,&&&&,right,nonword,,,,,,0,131,131,31,,,,,,,,,,,,,,,,,,,,,,,LDT,left,0.967154354439117,0,,,left,0,0.967154354439117,,,,,,,,,,,,,,,,,,,,1012,2019_Mar_06_1150,mf_amp_cond2,3.0.4,59.985224807361156,
pistraught,&&&&&&&&&&,right,nonword,,,,,,0,132,132,6,,,,,,,,,,,,,,,,,,,,,,,LDT,left,0.6170672146836296,0,,,left,0,0.6170672146836296,,,,,,,,,,,,,,,,,,,,1012,2019_Mar_06_1150,mf_amp_cond2,3.0.4,59.985224807361156,
besides,&&&&&&&,left,neutral,,,,,,0,133,133,144,,,,,,,,,,,,,,,,,,,,,,,LDT,right,0.8171128852991387,0,,,right,0,0.8171128852991387,,,,,,,,,,,,,,,,,,,,1012,2019_Mar_06_1150,mf_amp_cond2,3.0.4,59.985224807361156,
party,&&&&&,left,loyalty.virtue,,,,,,0,134,134,142,,,,,,,,,,,,,,,,,,,,,,,LDT,right,0.6504106187494472,0,,,right,0,0.6504106187494472,,,,,,,,,,,,,,,,,,,,1012,2019_Mar_06_1150,mf_amp_cond2,3.0.4,59.985224807361156,
mostly,&&&&&&,left,neutral,,,,,,0,135,135,95,,,,,,,,,,,,,,,,,,,,,,,LDT,right,0.41699107561726123,0,,,right,0,0.41699107561726123,,,,,,,,,,,,,,,,,,,,1012,2019_Mar_06_1150,mf_amp_cond2,3.0.4,59.985224807361156,
Loorish,&&&&&&&,right,nonword,,,,,,0,136,136,194,,,,,,,,,,,,,,,,,,,,,,,LDT,right,0.650435314164497,1,,,right,1,0.650435314164497,,,,,,,,,,,,,,,,,,,,1012,2019_Mar_06_1150,mf_amp_cond2,3.0.4,59.985224807361156,
frojecting,&&&&&&&&&&,right,nonword,,,,,,0,137,137,161,,,,,,,,,,,,,,,,,,,,,,,LDT,left,0.6170207102550194,0,,,left,0,0.6170207102550194,,,,,,,,,,,,,,,,,,,,1012,2019_Mar_06_1150,mf_amp_cond2,3.0.4,59.985224807361156,
taxpayung,&&&&&&&&&,right,nonword,,,,,,0,138,138,8,,,,,,,,,,,,,,,,,,,,,,,LDT,left,0.8171350151533261,0,,,left,0,0.8171350151533261,,,,,,,,,,,,,,,,,,,,1012,2019_Mar_06_1150,mf_amp_cond2,3.0.4,59.985224807361156,
even,&&&&,left,neutral,,,,,,0,139,139,154,,,,,,,,,,,,,,,,,,,,,,,LDT,right,0.5503810482332483,0,,,right,0,0.5503810482332483,,,,,,,,,,,,,,,,,,,,1012,2019_Mar_06_1150,mf_amp_cond2,3.0.4,59.985224807361156,
drumbled,&&&&&&&&,right,nonword,,,,,,0,140,140,137,,,,,,,,,,,,,,,,,,,,,,,LDT,left,0.7171083310386166,0,,,left,0,0.7171083310386166,,,,,,,,,,,,,,,,,,,,1012,2019_Mar_06_1150,mf_amp_cond2,3.0.4,59.985224807361156,
else,&&&&,left,neutral,,,,,,0,141,141,34,,,,,,,,,,,,,,,,,,,,,,,LDT,right,0.567092519486323,0,,,right,0,0.567092519486323,,,,,,,,,,,,,,,,,,,,1012,2019_Mar_06_1150,mf_amp_cond2,3.0.4,59.985224807361156,
were,&&&&,left,neutral,,,,,,0,142,142,104,,,,,,,,,,,,,,,,,,,,,,,LDT,right,0.5003582449862733,0,,,right,0,0.5003582449862733,,,,,,,,,,,,,,,,,,,,1012,2019_Mar_06_1150,mf_amp_cond2,3.0.4,59.985224807361156,
promised,&&&&&&&&,left,loyalty.virtue,,,,,,0,143,143,86,,,,,,,,,,,,,,,,,,,,,,,LDT,right,0.5337067805230618,0,,,right,0,0.5337067805230618,,,,,,,,,,,,,,,,,,,,1012,2019_Mar_06_1150,mf_amp_cond2,3.0.4,59.985224807361156,
grovelire,&&&&&&&&&,right,nonword,,,,,,0,144,144,113,,,,,,,,,,,,,,,,,,,,,,,LDT,left,0.5670675033470616,0,,,left,0,0.5670675033470616,,,,,,,,,,,,,,,,,,,,1012,2019_Mar_06_1150,mf_amp_cond2,3.0.4,59.985224807361156,
further,&&&&&&&,left,neutral,,,,,,0,145,145,53,,,,,,,,,,,,,,,,,,,,,,,LDT,right,0.5003588864346966,0,,,right,0,0.5003588864346966,,,,,,,,,,,,,,,,,,,,1012,2019_Mar_06_1150,mf_amp_cond2,3.0.4,59.985224807361156,
each,&&&&,left,neutral,,,,,,0,146,146,151,,,,,,,,,,,,,,,,,,,,,,,LDT,right,0.5837241314584389,0,,,right,0,0.5837241314584389,,,,,,,,,,,,,,,,,,,,1012,2019_Mar_06_1150,mf_amp_cond2,3.0.4,59.985224807361156,
ensure,&&&&&&,left,fairness.virtue,,,,,,0,147,147,63,,,,,,,,,,,,,,,,,,,,,,,LDT,left,0.8171180168865249,1,,,left,1,0.8171180168865249,,,,,,,,,,,,,,,,,,,,1012,2019_Mar_06_1150,mf_amp_cond2,3.0.4,59.985224807361156,
framatic,&&&&&&&&,right,nonword,,,,,,0,148,148,116,,,,,,,,,,,,,,,,,,,,,,,LDT,left,0.6504147880477831,0,,,left,0,0.6504147880477831,,,,,,,,,,,,,,,,,,,,1012,2019_Mar_06_1150,mf_amp_cond2,3.0.4,59.985224807361156,
illegal,&&&&&&&,left,fairness.vice,,,,,,0,149,149,132,,,,,,,,,,,,,,,,,,,,,,,LDT,right,1.0338418039027601,0,,,right,0,1.0338418039027601,,,,,,,,,,,,,,,,,,,,1012,2019_Mar_06_1150,mf_amp_cond2,3.0.4,59.985224807361156,
celebrated,&&&&&&&&&&,left,authority.virtue,,,,,,0,150,150,167,,,,,,,,,,,,,,,,,,,,,,,LDT,right,0.5170636227121577,0,,,right,0,0.5170636227121577,,,,,,,,,,,,,,,,,,,,1012,2019_Mar_06_1150,mf_amp_cond2,3.0.4,59.985224807361156,
neputized,&&&&&&&&&,right,nonword,,,,,,0,151,151,181,,,,,,,,,,,,,,,,,,,,,,,LDT,left,0.7504469242412597,0,,,left,0,0.7504469242412597,,,,,,,,,,,,,,,,,,,,1012,2019_Mar_06_1150,mf_amp_cond2,3.0.4,59.985224807361156,
hereby,&&&&&&,left,neutral,,,,,,0,152,152,75,,,,,,,,,,,,,,,,,,,,,,,LDT,right,0.500371394562535,0,,,right,0,0.500371394562535,,,,,,,,,,,,,,,,,,,,1012,2019_Mar_06_1150,mf_amp_cond2,3.0.4,59.985224807361156,
corruption,&&&&&&&&&&,left,sanctity.vice,,,,,,0,153,153,22,,,,,,,,,,,,,,,,,,,,,,,LDT,right,0.6170675355242565,0,,,right,0,0.6170675355242565,,,,,,,,,,,,,,,,,,,,1012,2019_Mar_06_1150,mf_amp_cond2,3.0.4,59.985224807361156,
emports,&&&&&&&,right,nonword,,,,,,0,154,154,33,,,,,,,,,,,,,,,,,,,,,,,LDT,left,0.7004353462252766,0,,,left,0,0.7004353462252766,,,,,,,,,,,,,,,,,,,,1012,2019_Mar_06_1150,mf_amp_cond2,3.0.4,59.985224807361156,
brotesque,&&&&&&&&&,right,nonword,,,,,,0,155,155,196,,,,,,,,,,,,,,,,,,,,,,,LDT,left,0.783787121064961,0,,,left,0,0.783787121064961,,,,,,,,,,,,,,,,,,,,1012,2019_Mar_06_1150,mf_amp_cond2,3.0.4,59.985224807361156,
there,&&&&&,left,neutral,,,,,,0,156,156,25,,,,,,,,,,,,,,,,,,,,,,,LDT,right,0.5837443368509412,0,,,right,0,0.5837443368509412,,,,,,,,,,,,,,,,,,,,1012,2019_Mar_06_1150,mf_amp_cond2,3.0.4,59.985224807361156,
supervuned,&&&&&&&&&&,right,nonword,,,,,,0,157,157,55,,,,,,,,,,,,,,,,,,,,,,,LDT,left,1.2338849087245762,0,,,left,0,1.2338849087245762,,,,,,,,,,,,,,,,,,,,1012,2019_Mar_06_1150,mf_amp_cond2,3.0.4,59.985224807361156,
Phintoism,&&&&&&&&&,right,nonword,,,,,,0,158,158,26,,,,,,,,,,,,,,,,,,,,,,,LDT,right,0.5170270605012774,1,,,right,1,0.5170270605012774,,,,,,,,,,,,,,,,,,,,1012,2019_Mar_06_1150,mf_amp_cond2,3.0.4,59.985224807361156,
energy,&&&&&&,left,sanctity.virtue,,,,,,0,159,159,197,,,,,,,,,,,,,,,,,,,,,,,LDT,right,0.5503884247737005,0,,,right,0,0.5503884247737005,,,,,,,,,,,,,,,,,,,,1012,2019_Mar_06_1150,mf_amp_cond2,3.0.4,59.985224807361156,
chressing,&&&&&&&&&,None,nonword,,,,,,0,160,160,76,,,,,,,,,,,,,,,,,,,,,,,LDT,left,0.9504974057199433,0,,,left,0,0.9504974057199433,,,,,,,,,,,,,,,,,,,,1012,2019_Mar_06_1150,mf_amp_cond2,3.0.4,59.985224807361156,
itself,&&&&&&,left,neutral,,,,,,0,161,161,68,,,,,,,,,,,,,,,,,,,,,,,LDT,right,0.517041172250174,0,,,right,0,0.517041172250174,,,,,,,,,,,,,,,,,,,,1012,2019_Mar_06_1150,mf_amp_cond2,3.0.4,59.985224807361156,
compassion,&&&&&&&&&&,left,care.virtue,,,,,,0,162,162,48,,,,,,,,,,,,,,,,,,,,,,,LDT,right,0.7170881257625297,0,,,right,0,0.7170881257625297,,,,,,,,,,,,,,,,,,,,1012,2019_Mar_06_1150,mf_amp_cond2,3.0.4,59.985224807361156,
counpy's,&&&&&&&&,right,nonword,,,,,,0,163,163,3,,,,,,,,,,,,,,,,,,,,,,,LDT,left,0.717101275222376,0,,,left,0,0.717101275222376,,,,,,,,,,,,,,,,,,,,1012,2019_Mar_06_1150,mf_amp_cond2,3.0.4,59.985224807361156,
victim,&&&&&&,left,care.vice,,,,,,0,164,164,11,,,,,,,,,,,,,,,,,,,,,,,LDT,right,0.5170665092300624,0,,,right,0,0.5170665092300624,,,,,,,,,,,,,,,,,,,,1012,2019_Mar_06_1150,mf_amp_cond2,3.0.4,59.985224807361156,
Boeinf,&&&&&&,right,nonword,,,,,,0,165,165,35,,,,,,,,,,,,,,,,,,,,,,,LDT,left,1.1672150989761576,0,,,left,0,1.1672150989761576,,,,,,,,,,,,,,,,,,,,1012,2019_Mar_06_1150,mf_amp_cond2,3.0.4,59.985224807361156,
somehow,&&&&&&&,left,neutral,,,,,,0,166,166,152,,,,,,,,,,,,,,,,,,,,,,,LDT,right,0.48369231598917395,0,,,right,0,0.48369231598917395,,,,,,,,,,,,,,,,,,,,1012,2019_Mar_06_1150,mf_amp_cond2,3.0.4,59.985224807361156,
elsewhere,&&&&&&&&&,left,neutral,,,,,,0,167,167,97,,,,,,,,,,,,,,,,,,,,,,,LDT,right,0.5837250936310738,0,,,right,0,0.5837250936310738,,,,,,,,,,,,,,,,,,,,1012,2019_Mar_06_1150,mf_amp_cond2,3.0.4,59.985224807361156,
although,&&&&&&&&,left,neutral,,,,,,0,168,168,170,,,,,,,,,,,,,,,,,,,,,,,LDT,left,0.7004270075121894,1,,,left,1,0.7004270075121894,,,,,,,,,,,,,,,,,,,,1012,2019_Mar_06_1150,mf_amp_cond2,3.0.4,59.985224807361156,
give,&&&&,left,neutral,,,,,,0,169,169,88,,,,,,,,,,,,,,,,,,,,,,,LDT,right,0.617075553513132,0,,,right,0,0.617075553513132,,,,,,,,,,,,,,,,,,,,1012,2019_Mar_06_1150,mf_amp_cond2,3.0.4,59.985224807361156,
nuckheap,&&&&&&&&,right,nonword,,,,,,0,170,170,4,,,,,,,,,,,,,,,,,,,,,,,LDT,left,0.5503865004284307,0,,,left,0,0.5503865004284307,,,,,,,,,,,,,,,,,,,,1012,2019_Mar_06_1150,mf_amp_cond2,3.0.4,59.985224807361156,
torture,&&&&&&&,left,care.vice,,,,,,0,171,171,62,,,,,,,,,,,,,,,,,,,,,,,LDT,right,0.5170507937436923,0,,,right,0,0.5170507937436923,,,,,,,,,,,,,,,,,,,,1012,2019_Mar_06_1150,mf_amp_cond2,3.0.4,59.985224807361156,
hefurbished,&&&&&&&&&&&,right,nonword,,,,,,0,172,172,77,,,,,,,,,,,,,,,,,,,,,,,LDT,left,0.4503027282189578,0,,,left,0,0.4503027282189578,,,,,,,,,,,,,,,,,,,,1012,2019_Mar_06_1150,mf_amp_cond2,3.0.4,59.985224807361156,
festate,&&&&&&&,right,nonword,,,,,,0,173,173,89,,,,,,,,,,,,,,,,,,,,,,,LDT,left,0.5670540330465883,0,,,left,0,0.5670540330465883,,,,,,,,,,,,,,,,,,,,1012,2019_Mar_06_1150,mf_amp_cond2,3.0.4,59.985224807361156,
seem,&&&&,left,neutral,,,,,,0,174,174,187,,,,,,,,,,,,,,,,,,,,,,,LDT,right,0.4170093566644937,0,,,right,0,0.4170093566644937,,,,,,,,,,,,,,,,,,,,1012,2019_Mar_06_1150,mf_amp_cond2,3.0.4,59.985224807361156,
crilfully,&&&&&&&&&,right,nonword,,,,,,0,175,175,7,,,,,,,,,,,,,,,,,,,,,,,LDT,left,0.6004028893075883,0,,,left,0,0.6004028893075883,,,,,,,,,,,,,,,,,,,,1012,2019_Mar_06_1150,mf_amp_cond2,3.0.4,59.985224807361156,
also,&&&&,left,neutral,,,,,,0,176,176,125,,,,,,,,,,,,,,,,,,,,,,,LDT,right,0.45034955348819494,0,,,right,0,0.45034955348819494,,,,,,,,,,,,,,,,,,,,1012,2019_Mar_06_1150,mf_amp_cond2,3.0.4,59.985224807361156,
Lacedonia,&&&&&&&&&,right,nonword,,,,,,0,177,177,16,,,,,,,,,,,,,,,,,,,,,,,LDT,left,1.5173185956664383,0,,,left,0,1.5173185956664383,,,,,,,,,,,,,,,,,,,,1012,2019_Mar_06_1150,mf_amp_cond2,3.0.4,59.985224807361156,
forty,&&&&&,left,neutral,,,,,,0,178,178,54,,,,,,,,,,,,,,,,,,,,,,,LDT,right,0.5837064918596298,0,,,right,0,0.5837064918596298,,,,,,,,,,,,,,,,,,,,1012,2019_Mar_06_1150,mf_amp_cond2,3.0.4,59.985224807361156,
towards,&&&&&&&,left,neutral,,,,,,0,179,179,136,,,,,,,,,,,,,,,,,,,,,,,LDT,left,1.3172472673468292,1,,,left,1,1.3172472673468292,,,,,,,,,,,,,,,,,,,,1012,2019_Mar_06_1150,mf_amp_cond2,3.0.4,59.985224807361156,
chonograph,&&&&&&&&&&,right,nonword,,,,,,0,180,180,98,,,,,,,,,,,,,,,,,,,,,,,LDT,left,0.6670823206659406,0,,,left,0,0.6670823206659406,,,,,,,,,,,,,,,,,,,,1012,2019_Mar_06_1150,mf_amp_cond2,3.0.4,59.985224807361156,
anything,&&&&&&&&,left,neutral,,,,,,0,181,181,106,,,,,,,,,,,,,,,,,,,,,,,LDT,right,0.5837722395081073,0,,,right,0,0.5837722395081073,,,,,,,,,,,,,,,,,,,,1012,2019_Mar_06_1150,mf_amp_cond2,3.0.4,59.985224807361156,
praise,&&&&&&,left,authority.virtue,,,,,,0,182,182,94,,,,,,,,,,,,,,,,,,,,,,,LDT,right,0.7837694813497365,0,,,right,0,0.7837694813497365,,,,,,,,,,,,,,,,,,,,1012,2019_Mar_06_1150,mf_amp_cond2,3.0.4,59.985224807361156,
improve,&&&&&&&,left,care.virtue,,,,,,0,183,183,93,,,,,,,,,,,,,,,,,,,,,,,LDT,right,0.8338070377940312,0,,,right,0,0.8338070377940312,,,,,,,,,,,,,,,,,,,,1012,2019_Mar_06_1150,mf_amp_cond2,3.0.4,59.985224807361156,
agreement,&&&&&&&&&,left,fairness.virtue,,,,,,0,184,184,73,,,,,,,,,,,,,,,,,,,,,,,LDT,right,0.6837594748940319,0,,,right,0,0.6837594748940319,,,,,,,,,,,,,,,,,,,,1012,2019_Mar_06_1150,mf_amp_cond2,3.0.4,59.985224807361156,
ebbitter,&&&&&&&&,right,nonword,,,,,,0,185,185,122,,,,,,,,,,,,,,,,,,,,,,,LDT,right,1.1005279703531414,1,,,right,1,1.1005279703531414,,,,,,,,,,,,,,,,,,,,1012,2019_Mar_06_1150,mf_amp_cond2,3.0.4,59.985224807361156,
sexual,&&&&&&,left,sanctity.vice,,,,,,0,186,186,119,,,,,,,,,,,,,,,,,,,,,,,LDT,left,0.8004421454388648,1,,,left,1,0.8004421454388648,,,,,,,,,,,,,,,,,,,,1012,2019_Mar_06_1150,mf_amp_cond2,3.0.4,59.985224807361156,
restore,&&&&&&&,left,care.virtue,,,,,,0,187,187,82,,,,,,,,,,,,,,,,,,,,,,,LDT,left,0.6504192781867459,1,,,left,1,0.6504192781867459,,,,,,,,,,,,,,,,,,,,1012,2019_Mar_06_1150,mf_amp_cond2,3.0.4,59.985224807361156,
dormandi,&&&&&&&&,None,nonword,,,,,,0,188,188,61,,,,,,,,,,,,,,,,,,,,,,,LDT,left,0.6670945080695674,0,,,left,0,0.6670945080695674,,,,,,,,,,,,,,,,,,,,1012,2019_Mar_06_1150,mf_amp_cond2,3.0.4,59.985224807361156,
menizen,&&&&&&&,None,nonword,,,,,,0,189,189,121,,,,,,,,,,,,,,,,,,,,,,,LDT,left,0.5170418135821819,0,,,left,0,0.5170418135821819,,,,,,,,,,,,,,,,,,,,1012,2019_Mar_06_1150,mf_amp_cond2,3.0.4,59.985224807361156,
chreams,&&&&&&&,right,nonword,,,,,,0,190,190,146,,,,,,,,,,,,,,,,,,,,,,,LDT,left,0.567040562746115,0,,,left,0,0.567040562746115,,,,,,,,,,,,,,,,,,,,1012,2019_Mar_06_1150,mf_amp_cond2,3.0.4,59.985224807361156,
whither,&&&&&&&,left,neutral,,,,,,0,191,191,24,,,,,,,,,,,,,,,,,,,,,,,LDT,left,0.6837575505487621,1,,,left,1,0.6837575505487621,,,,,,,,,,,,,,,,,,,,1012,2019_Mar_06_1150,mf_amp_cond2,3.0.4,59.985224807361156,
couldnt,&&&&&&&,left,neutral,,,,,,0,192,192,108,,,,,,,,,,,,,,,,,,,,,,,LDT,left,0.6003778730519116,1,,,left,1,0.6003778730519116,,,,,,,,,,,,,,,,,,,,1012,2019_Mar_06_1150,mf_amp_cond2,3.0.4,59.985224807361156,
noone,&&&&&,left,neutral,,,,,,0,193,193,165,,,,,,,,,,,,,,,,,,,,,,,LDT,left,1.4173464342020452,1,,,left,1,1.4173464342020452,,,,,,,,,,,,,,,,,,,,1012,2019_Mar_06_1150,mf_amp_cond2,3.0.4,59.985224807361156,
gowlands,&&&&&&&&,right,nonword,,,,,,0,194,194,64,,,,,,,,,,,,,,,,,,,,,,,LDT,right,0.4837038619443774,1,,,right,1,0.4837038619443774,,,,,,,,,,,,,,,,,,,,1012,2019_Mar_06_1150,mf_amp_cond2,3.0.4,59.985224807361156,
either,&&&&&&,left,neutral,,,,,,0,195,195,85,,,,,,,,,,,,,,,,,,,,,,,LDT,left,0.4336910010315478,1,,,left,1,0.4336910010315478,,,,,,,,,,,,,,,,,,,,1012,2019_Mar_06_1150,mf_amp_cond2,3.0.4,59.985224807361156,
amount,&&&&&&,left,neutral,,,,,,0,196,196,69,,,,,,,,,,,,,,,,,,,,,,,LDT,right,0.5170418136985973,0,,,right,0,0.5170418136985973,,,,,,,,,,,,,,,,,,,,1012,2019_Mar_06_1150,mf_amp_cond2,3.0.4,59.985224807361156,
mightingale,&&&&&&&&&&&,right,nonword,,,,,,0,197,197,179,,,,,,,,,,,,,,,,,,,,,,,LDT,left,0.667081999941729,0,,,left,0,0.667081999941729,,,,,,,,,,,,,,,,,,,,1012,2019_Mar_06_1150,mf_amp_cond2,3.0.4,59.985224807361156,
crime,&&&&&,left,fairness.vice,,,,,,0,198,198,169,,,,,,,,,,,,,,,,,,,,,,,LDT,right,0.533717364189215,0,,,right,0,0.533717364189215,,,,,,,,,,,,,,,,,,,,1012,2019_Mar_06_1150,mf_amp_cond2,3.0.4,59.985224807361156,
framo,&&&&&,right,nonword,,,,,,0,199,199,182,,,,,,,,,,,,,,,,,,,,,,,LDT,right,0.7671253613661975,1,,,right,1,0.7671253613661975,,,,,,,,,,,,,,,,,,,,1012,2019_Mar_06_1150,mf_amp_cond2,3.0.4,59.985224807361156,
,,,,,,,,,,,,,,,,,,,,,,,,,,,,,,,,,,,,,,,,,,,,6,6.987,,,,,,,,,,,,,,,,,,1012,2019_Mar_06_1150,mf_amp_cond2,3.0.4,59.985224807361156,
,,,,,,,,,,,,,,,,,,,,,,,,,,,,,,,,,,,,,,,,,,,,,,right,2.034128848928958,,,,,,,,,,,,,,,,1012,2019_Mar_06_1150,mf_amp_cond2,3.0.4,59.985224807361156,
scarf,&&&&&&&&,,,bisebell,,,,,,,,,0,0,0,3,,,,,,,,,,,,,,,,,,,AMP_prac,right,4.0845804556738585,,,,,,,,,,,right,4.0845804556738585,,,,,,,,,,,,,,1012,2019_Mar_06_1150,mf_amp_cond2,3.0.4,59.985224807361156,
banana,&&&&&&,,,kacket,,,,,,,,,0,1,1,1,,,,,,,,,,,,,,,,,,,AMP_prac,left,1.3338955567451194,,,,,,,,,,,left,1.3338955567451194,,,,,,,,,,,,,,1012,2019_Mar_06_1150,mf_amp_cond2,3.0.4,59.985224807361156,
car,&&&&&&&&,,,cemtuper,,,,,,,,,0,2,2,0,,,,,,,,,,,,,,,,,,,AMP_prac,left,0.8838061076821759,,,,,,,,,,,left,0.8838061076821759,,,,,,,,,,,,,,1012,2019_Mar_06_1150,mf_amp_cond2,3.0.4,59.985224807361156,
keyboard,&&&&,,,senk,,,,,,,,,0,3,3,2,,,,,,,,,,,,,,,,,,,AMP_prac,left,1.167189441388473,,,,,,,,,,,left,1.167189441388473,,,,,,,,,,,,,,1012,2019_Mar_06_1150,mf_amp_cond2,3.0.4,59.985224807361156,
,,,,,,,,,,,,,,,,,,,,,,,,,,,,,,,,,,,,,,,,,,,,,,,,,,right,2.5008659458253533,,,,,,,,,,,,1012,2019_Mar_06_1150,mf_amp_cond2,3.0.4,59.985224807361156,
gusinesslike,&&&&&&&&&,None,nonword,reprisols,,,,,,,,,,,,,0,0,0,91,,,,,,,,,,,,,,,AMP,left,1.0838312521809712,0,,,,,,,,,,,,,,left,0,1.0838312521809712,,,,,,,,,1012,2019_Mar_06_1150,mf_amp_cond2,3.0.4,59.985224807361156,
care,&&&&&&&,left,care.virtue,dramens,,,,,,,,,,,,,0,1,1,230,,,,,,,,,,,,,,,AMP,left,0.6335734247695655,1,,,,,,,,,,,,,,left,1,0.6335734247695655,,,,,,,,,1012,2019_Mar_06_1150,mf_amp_cond2,3.0.4,59.985224807361156,
integrity,&&&&&&&&,left,fairness.virtue,clamorek,,,,,,,,,,,,,0,2,2,155,,,,,,,,,,,,,,,AMP,left,0.9004617736209184,1,,,,,,,,,,,,,,left,1,0.9004617736209184,,,,,,,,,1012,2019_Mar_06_1150,mf_amp_cond2,3.0.4,59.985224807361156,
army,&&&&&&&&&&,right,loyalty.vice,lorthwhile,,,,,,,,,,,,,0,3,3,168,,,,,,,,,,,,,,,AMP,left,0.6337350681424141,0,,,,,,,,,,,,,,left,0,0.6337350681424141,,,,,,,,,1012,2019_Mar_06_1150,mf_amp_cond2,3.0.4,59.985224807361156,
prison,&&&&&&&&&&,right,fairness.vice,galamitous,,,,,,,,,,,,,0,4,4,65,,,,,,,,,,,,,,,AMP,left,1.067199319601059,0,,,,,,,,,,,,,,left,0,1.067199319601059,,,,,,,,,1012,2019_Mar_06_1150,mf_amp_cond2,3.0.4,59.985224807361156,
growth,&&&&&&&&&&&,left,care.virtue,shoirmaster,,,,,,,,,,,,,0,5,5,86,,,,,,,,,,,,,,,AMP,left,0.8671273498330265,1,,,,,,,,,,,,,,left,1,0.8671273498330265,,,,,,,,,1012,2019_Mar_06_1150,mf_amp_cond2,3.0.4,59.985224807361156,
increase,&&&&&&&&,left,care.virtue,pullness,,,,,,,,,,,,,0,6,6,308,,,,,,,,,,,,,,,AMP,right,0.9338003668235615,0,,,,,,,,,,,,,,right,0,0.9338003668235615,,,,,,,,,1012,2019_Mar_06_1150,mf_amp_cond2,3.0.4,59.985224807361156,
strong,&&&&&&&,left,loyalty.virtue,Daptist,,,,,,,,,,,,,0,7,7,253,,,,,,,,,,,,,,,AMP,right,0.9004726781276986,0,,,,,,,,,,,,,,right,0,0.9004726781276986,,,,,,,,,1012,2019_Mar_06_1150,mf_amp_cond2,3.0.4,59.985224807361156,
godlaness,&&&&&&&&,None,nonword,epigrach,,,,,,,,,,,,,0,8,8,125,,,,,,,,,,,,,,,AMP,left,0.7170845977962017,0,,,,,,,,,,,,,,left,0,0.7170845977962017,,,,,,,,,1012,2019_Mar_06_1150,mf_amp_cond2,3.0.4,59.985224807361156,
charges,&&&&&,right,fairness.vice,ablow,,,,,,,,,,,,,0,9,9,225,,,,,,,,,,,,,,,AMP,left,1.1005221974337474,0,,,,,,,,,,,,,,left,0,1.1005221974337474,,,,,,,,,1012,2019_Mar_06_1150,mf_amp_cond2,3.0.4,59.985224807361156,
godlaness,&&&&&,None,nonword,noped,,,,,,,,,,,,,0,10,10,303,,,,,,,,,,,,,,,AMP,left,0.4836964854039252,0,,,,,,,,,,,,,,left,0,0.4836964854039252,,,,,,,,,1012,2019_Mar_06_1150,mf_amp_cond2,3.0.4,59.985224807361156,
penalty,&&&&&&&&&&,right,authority.vice,totalestic,,,,,,,,,,,,,0,11,11,327,,,,,,,,,,,,,,,AMP,left,0.41701288463082165,0,,,,,,,,,,,,,,left,0,0.41701288463082165,,,,,,,,,1012,2019_Mar_06_1150,mf_amp_cond2,3.0.4,59.985224807361156,
bycled,&&&&&&&&&,None,nonword,gondensed,,,,,,,,,,,,,0,12,12,102,,,,,,,,,,,,,,,AMP,left,0.38367397082038224,0,,,,,,,,,,,,,,left,0,0.38367397082038224,,,,,,,,,1012,2019_Mar_06_1150,mf_amp_cond2,3.0.4,59.985224807361156,
free,&&&&&&&&&&&,left,fairness.virtue,nomparisons,,,,,,,,,,,,,0,13,13,63,,,,,,,,,,,,,,,AMP,left,0.5835506215225905,1,,,,,,,,,,,,,,left,1,0.5835506215225905,,,,,,,,,1012,2019_Mar_06_1150,mf_amp_cond2,3.0.4,59.985224807361156,
praised,&&&&&&&&&&&&&,left,loyalty.virtue,idexpressible,,,,,,,,,,,,,0,14,14,188,,,,,,,,,,,,,,,AMP,right,0.6504119015298784,0,,,,,,,,,,,,,,right,0,0.6504119015298784,,,,,,,,,1012,2019_Mar_06_1150,mf_amp_cond2,3.0.4,59.985224807361156,
strength,&&&&&,left,sanctity.virtue,tabin,,,,,,,,,,,,,0,15,15,206,,,,,,,,,,,,,,,AMP,right,0.33350620174314827,0,,,,,,,,,,,,,,right,0,0.33350620174314827,,,,,,,,,1012,2019_Mar_06_1150,mf_amp_cond2,3.0.4,59.985224807361156,
intelligence,&&&&&&&&&&&&,left,loyalty.virtue,rorroborated,,,,,,,,,,,,,0,16,16,21,,,,,,,,,,,,,,,AMP,right,0.8504636659054086,0,,,,,,,,,,,,,,right,0,0.8504636659054086,,,,,,,,,1012,2019_Mar_06_1150,mf_amp_cond2,3.0.4,59.985224807361156,
racist,&&&&&&&,right,sanctity.vice,stindig,,,,,,,,,,,,,0,17,17,294,,,,,,,,,,,,,,,AMP,left,0.40037646191194654,0,,,,,,,,,,,,,,left,0,0.40037646191194654,,,,,,,,,1012,2019_Mar_06_1150,mf_amp_cond2,3.0.4,59.985224807361156,
death,&&&&&&&&&&&,right,care.vice,egpeditious,,,,,,,,,,,,,0,18,18,258,,,,,,,,,,,,,,,AMP,left,0.5336929894983768,0,,,,,,,,,,,,,,left,0,0.5336929894983768,,,,,,,,,1012,2019_Mar_06_1150,mf_amp_cond2,3.0.4,59.985224807361156,
clean,&&&&&&,left,sanctity.virtue,gikely,,,,,,,,,,,,,0,19,19,70,,,,,,,,,,,,,,,AMP,right,1.4005858924938366,0,,,,,,,,,,,,,,right,0,1.4005858924938366,,,,,,,,,1012,2019_Mar_06_1150,mf_amp_cond2,3.0.4,59.985224807361156,
slavery,&&&&&&&&&&&&,right,loyalty.vice,feleological,,,,,,,,,,,,,0,20,20,0,,,,,,,,,,,,,,,AMP,left,0.3503360190661624,0,,,,,,,,,,,,,,left,0,0.3503360190661624,,,,,,,,,1012,2019_Mar_06_1150,mf_amp_cond2,3.0.4,59.985224807361156,
integrity,&&&&&&&,left,fairness.virtue,Daptist,,,,,,,,,,,,,0,21,21,5,,,,,,,,,,,,,,,AMP,left,0.5337215336039662,1,,,,,,,,,,,,,,left,1,0.5337215336039662,,,,,,,,,1012,2019_Mar_06_1150,mf_amp_cond2,3.0.4,59.985224807361156,
hand,&&&&&&&&,left,sanctity.virtue,thadowed,,,,,,,,,,,,,0,22,22,322,,,,,,,,,,,,,,,AMP,left,0.35033537761773914,1,,,,,,,,,,,,,,left,1,0.35033537761773914,,,,,,,,,1012,2019_Mar_06_1150,mf_amp_cond2,3.0.4,59.985224807361156,
blamed,&&&&&&,right,loyalty.vice,chared,,,,,,,,,,,,,0,23,23,275,,,,,,,,,,,,,,,AMP,left,0.3003068014513701,0,,,,,,,,,,,,,,left,0,0.3003068014513701,,,,,,,,,1012,2019_Mar_06_1150,mf_amp_cond2,3.0.4,59.985224807361156,
embrace,&&&&,left,authority.virtue,yane,,,,,,,,,,,,,0,24,24,161,,,,,,,,,,,,,,,AMP,right,0.4170459187589586,0,,,,,,,,,,,,,,right,0,0.4170459187589586,,,,,,,,,1012,2019_Mar_06_1150,mf_amp_cond2,3.0.4,59.985224807361156,
men,&&&&&&&&,right,loyalty.vice,epigrach,,,,,,,,,,,,,0,25,25,189,,,,,,,,,,,,,,,AMP,left,0.3836874410044402,0,,,,,,,,,,,,,,left,0,0.3836874410044402,,,,,,,,,1012,2019_Mar_06_1150,mf_amp_cond2,3.0.4,59.985224807361156,
commitment,&&&&&,left,sanctity.virtue,hasks,,,,,,,,,,,,,0,26,26,291,,,,,,,,,,,,,,,AMP,right,0.533707421971485,0,,,,,,,,,,,,,,right,0,0.533707421971485,,,,,,,,,1012,2019_Mar_06_1150,mf_amp_cond2,3.0.4,59.985224807361156,
loyalty,&&&&&&&&&&&,left,loyalty.virtue,cromiscuity,,,,,,,,,,,,,0,27,27,259,,,,,,,,,,,,,,,AMP,left,0.8002930103102699,1,,,,,,,,,,,,,,left,1,0.8002930103102699,,,,,,,,,1012,2019_Mar_06_1150,mf_amp_cond2,3.0.4,59.985224807361156,
shot,&&&&&&&,right,care.vice,troubla,,,,,,,,,,,,,0,28,28,163,,,,,,,,,,,,,,,AMP,left,0.5003768467577174,0,,,,,,,,,,,,,,left,0,0.5003768467577174,,,,,,,,,1012,2019_Mar_06_1150,mf_amp_cond2,3.0.4,59.985224807361156,
growth,&&&&&&&&,left,care.virtue,perified,,,,,,,,,,,,,0,29,29,12,,,,,,,,,,,,,,,AMP,right,0.5003595278831199,0,,,,,,,,,,,,,,right,0,0.5003595278831199,,,,,,,,,1012,2019_Mar_06_1150,mf_amp_cond2,3.0.4,59.985224807361156,
disregord,&&&&&&&&&&,None,nonword,imebreaker,,,,,,,,,,,,,0,30,30,72,,,,,,,,,,,,,,,AMP,left,0.4669795617228374,0,,,,,,,,,,,,,,left,0,0.4669795617228374,,,,,,,,,1012,2019_Mar_06_1150,mf_amp_cond2,3.0.4,59.985224807361156,
suicide,&&&&&&&&&&&,right,care.vice,cromiscuity,,,,,,,,,,,,,0,31,31,235,,,,,,,,,,,,,,,AMP,left,0.36699328862596303,0,,,,,,,,,,,,,,left,0,0.36699328862596303,,,,,,,,,1012,2019_Mar_06_1150,mf_amp_cond2,3.0.4,59.985224807361156,
protect,&&&&&,left,fairness.virtue,ablow,,,,,,,,,,,,,0,32,32,315,,,,,,,,,,,,,,,AMP,right,0.9671521094860509,0,,,,,,,,,,,,,,right,0,0.9671521094860509,,,,,,,,,1012,2019_Mar_06_1150,mf_amp_cond2,3.0.4,59.985224807361156,
safety,&&&&&,left,care.virtue,mecan,,,,,,,,,,,,,0,33,33,239,,,,,,,,,,,,,,,AMP,right,0.7170826734509319,0,,,,,,,,,,,,,,right,0,0.7170826734509319,,,,,,,,,1012,2019_Mar_06_1150,mf_amp_cond2,3.0.4,59.985224807361156,
death,&&&&&&&&,right,care.vice,lachelor,,,,,,,,,,,,,0,34,34,209,,,,,,,,,,,,,,,AMP,left,0.350307474960573,0,,,,,,,,,,,,,,left,0,0.350307474960573,,,,,,,,,1012,2019_Mar_06_1150,mf_amp_cond2,3.0.4,59.985224807361156,
promises,&&&,left,fairness.virtue,oam,,,,,,,,,,,,,0,35,35,182,,,,,,,,,,,,,,,AMP,right,0.7671000245027244,0,,,,,,,,,,,,,,right,0,0.7671000245027244,,,,,,,,,1012,2019_Mar_06_1150,mf_amp_cond2,3.0.4,59.985224807361156,
integrity,&&&&&&&&&,left,fairness.virtue,gondensed,,,,,,,,,,,,,0,36,36,302,,,,,,,,,,,,,,,AMP,right,0.9171950540039688,0,,,,,,,,,,,,,,right,0,0.9171950540039688,,,,,,,,,1012,2019_Mar_06_1150,mf_amp_cond2,3.0.4,59.985224807361156,
freedom,&&&&&&&,left,sanctity.virtue,Daptist,,,,,,,,,,,,,0,37,37,226,,,,,,,,,,,,,,,AMP,right,0.21680845727678388,0,,,,,,,,,,,,,,right,0,0.21680845727678388,,,,,,,,,1012,2019_Mar_06_1150,mf_amp_cond2,3.0.4,59.985224807361156,
gusinesslike,&&&&&&,None,nonword,Cunday,,,,,,,,,,,,,0,38,38,7,,,,,,,,,,,,,,,AMP,left,0.4003552943468094,0,,,,,,,,,,,,,,left,0,0.4003552943468094,,,,,,,,,1012,2019_Mar_06_1150,mf_amp_cond2,3.0.4,59.985224807361156,
refused,&&&&&&&&&&&&&,right,authority.vice,synchronazers,,,,,,,,,,,,,0,39,39,326,,,,,,,,,,,,,,,AMP,left,0.48354831244796515,0,,,,,,,,,,,,,,left,0,0.48354831244796515,,,,,,,,,1012,2019_Mar_06_1150,mf_amp_cond2,3.0.4,59.985224807361156,
allears,&&&&&&&&&&,None,nonword,ammessment,,,,,,,,,,,,,0,40,40,90,,,,,,,,,,,,,,,AMP,right,0.5170507937436923,0,,,,,,,,,,,,,,right,0,0.5170507937436923,,,,,,,,,1012,2019_Mar_06_1150,mf_amp_cond2,3.0.4,59.985224807361156,
serial,&&&&&&&&,right,sanctity.vice,thadowed,,,,,,,,,,,,,0,41,41,237,,,,,,,,,,,,,,,AMP,left,0.5170405308017507,0,,,,,,,,,,,,,,left,0,0.5170405308017507,,,,,,,,,1012,2019_Mar_06_1150,mf_amp_cond2,3.0.4,59.985224807361156,
perfect,&&&&&&&,left,sanctity.virtue,carvels,,,,,,,,,,,,,0,42,42,50,,,,,,,,,,,,,,,AMP,right,0.2503080521710217,0,,,,,,,,,,,,,,right,0,0.2503080521710217,,,,,,,,,1012,2019_Mar_06_1150,mf_amp_cond2,3.0.4,59.985224807361156,
slavery,&&&&&,right,loyalty.vice,lenon,,,,,,,,,,,,,0,43,43,276,,,,,,,,,,,,,,,AMP,left,0.23362993577029556,0,,,,,,,,,,,,,,left,0,0.23362993577029556,,,,,,,,,1012,2019_Mar_06_1150,mf_amp_cond2,3.0.4,59.985224807361156,
died,&&&&,right,care.vice,spag,,,,,,,,,,,,,0,44,44,257,,,,,,,,,,,,,,,AMP,left,0.28364504175260663,0,,,,,,,,,,,,,,left,0,0.28364504175260663,,,,,,,,,1012,2019_Mar_06_1150,mf_amp_cond2,3.0.4,59.985224807361156,
refuejing,&&&&&,None,nonword,scock,,,,,,,,,,,,,0,45,45,173,,,,,,,,,,,,,,,AMP,right,0.4336833037668839,0,,,,,,,,,,,,,,right,0,0.4336833037668839,,,,,,,,,1012,2019_Mar_06_1150,mf_amp_cond2,3.0.4,59.985224807361156,
allears,&&&&&&,None,nonword,sgrawl,,,,,,,,,,,,,0,46,46,227,,,,,,,,,,,,,,,AMP,left,0.1336032518884167,0,,,,,,,,,,,,,,left,0,0.1336032518884167,,,,,,,,,1012,2019_Mar_06_1150,mf_amp_cond2,3.0.4,59.985224807361156,
victims,&&&&&&&,right,care.vice,sickyay,,,,,,,,,,,,,0,47,47,40,,,,,,,,,,,,,,,AMP,left,0.36700226878747344,0,,,,,,,,,,,,,,left,0,0.36700226878747344,,,,,,,,,1012,2019_Mar_06_1150,mf_amp_cond2,3.0.4,59.985224807361156,
growth,&&&&&&&&&,left,care.virtue,pescinded,,,,,,,,,,,,,0,48,48,273,,,,,,,,,,,,,,,AMP,right,0.400359143037349,0,,,,,,,,,,,,,,right,0,0.400359143037349,,,,,,,,,1012,2019_Mar_06_1150,mf_amp_cond2,3.0.4,59.985224807361156,
great,&&&&&&&&&,left,loyalty.virtue,ittutable,,,,,,,,,,,,,0,49,49,130,,,,,,,,,,,,,,,AMP,right,0.23341697733849287,0,,,,,,,,,,,,,,right,0,0.23341697733849287,,,,,,,,,1012,2019_Mar_06_1150,mf_amp_cond2,3.0.4,59.985224807361156,
peaceful,&&&&&&&&,left,authority.virtue,fontacts,,,,,,,,,,,,,0,50,50,148,,,,,,,,,,,,,,,AMP,left,0.450352119281888,1,,,,,,,,,,,,,,left,1,0.450352119281888,,,,,,,,,1012,2019_Mar_06_1150,mf_amp_cond2,3.0.4,59.985224807361156,
peace,&&&&&&&&&&&,left,care.virtue,nomparisons,,,,,,,,,,,,,0,51,51,297,,,,,,,,,,,,,,,AMP,right,0.26697141549084336,0,,,,,,,,,,,,,,right,0,0.26697141549084336,,,,,,,,,1012,2019_Mar_06_1150,mf_amp_cond2,3.0.4,59.985224807361156,
shot,&&&&&&&,right,care.vice,reviked,,,,,,,,,,,,,0,52,52,249,,,,,,,,,,,,,,,AMP,left,0.8337813802063465,0,,,,,,,,,,,,,,left,0,0.8337813802063465,,,,,,,,,1012,2019_Mar_06_1150,mf_amp_cond2,3.0.4,59.985224807361156,
intelligence,&&&&&,left,loyalty.virtue,lenon,,,,,,,,,,,,,0,53,53,177,,,,,,,,,,,,,,,AMP,right,0.30031898873858154,0,,,,,,,,,,,,,,right,0,0.30031898873858154,,,,,,,,,1012,2019_Mar_06_1150,mf_amp_cond2,3.0.4,59.985224807361156,
voter,&&&&&&&&,right,fairness.vice,clamorek,,,,,,,,,,,,,0,54,54,56,,,,,,,,,,,,,,,AMP,right,0.783773330040276,1,,,,,,,,,,,,,,right,1,0.783773330040276,,,,,,,,,1012,2019_Mar_06_1150,mf_amp_cond2,3.0.4,59.985224807361156,
embrace,&&&&&&&,left,authority.virtue,chadows,,,,,,,,,,,,,0,55,55,264,,,,,,,,,,,,,,,AMP,right,0.500364659470506,0,,,,,,,,,,,,,,right,0,0.500364659470506,,,,,,,,,1012,2019_Mar_06_1150,mf_amp_cond2,3.0.4,59.985224807361156,
victims,&&&,right,care.vice,oam,,,,,,,,,,,,,0,56,56,100,,,,,,,,,,,,,,,AMP,left,0.4336871523410082,0,,,,,,,,,,,,,,left,0,0.4336871523410082,,,,,,,,,1012,2019_Mar_06_1150,mf_amp_cond2,3.0.4,59.985224807361156,
safe,&&&&&&&&&,left,care.virtue,unscothed,,,,,,,,,,,,,0,57,57,103,,,,,,,,,,,,,,,AMP,right,0.46703825367148966,0,,,,,,,,,,,,,,right,0,0.46703825367148966,,,,,,,,,1012,2019_Mar_06_1150,mf_amp_cond2,3.0.4,59.985224807361156,
encourage,&&&&&&&,left,authority.virtue,smapper,,,,,,,,,,,,,0,58,58,20,,,,,,,,,,,,,,,AMP,right,0.6837418351788074,0,,,,,,,,,,,,,,right,0,0.6837418351788074,,,,,,,,,1012,2019_Mar_06_1150,mf_amp_cond2,3.0.4,59.985224807361156,
honored,&&&&&&&&&,left,authority.virtue,ittutable,,,,,,,,,,,,,0,59,59,242,,,,,,,,,,,,,,,AMP,right,0.3336524503538385,0,,,,,,,,,,,,,,right,0,0.3336524503538385,,,,,,,,,1012,2019_Mar_06_1150,mf_amp_cond2,3.0.4,59.985224807361156,
refused,&&&&&&&&&&,right,authority.vice,galamitous,,,,,,,,,,,,,0,60,60,212,,,,,,,,,,,,,,,AMP,right,0.48370225832331926,1,,,,,,,,,,,,,,right,1,0.48370225832331926,,,,,,,,,1012,2019_Mar_06_1150,mf_amp_cond2,3.0.4,59.985224807361156,
unpleasant,&&&&&&&&&&&,None,control,cromiscuity,,,,,,,,,,,,,0,61,61,111,,,,,,,,,,,,,,,AMP,left,0.31702244211919606,0,,,,,,,,,,,,,,left,0,0.31702244211919606,,,,,,,,,1012,2019_Mar_06_1150,mf_amp_cond2,3.0.4,59.985224807361156,
prosecution,&&&&&&,right,authority.vice,greaks,,,,,,,,,,,,,0,62,62,196,,,,,,,,,,,,,,,AMP,left,0.5336994039826095,0,,,,,,,,,,,,,,left,0,0.5336994039826095,,,,,,,,,1012,2019_Mar_06_1150,mf_amp_cond2,3.0.4,59.985224807361156,
ability,&&&&&&&&&&&,left,authority.virtue,shoirmaster,,,,,,,,,,,,,0,63,63,176,,,,,,,,,,,,,,,AMP,left,0.3503308874787763,1,,,,,,,,,,,,,,left,1,0.3503308874787763,,,,,,,,,1012,2019_Mar_06_1150,mf_amp_cond2,3.0.4,59.985224807361156,
ability,&&&&&,left,authority.virtue,tabin,,,,,,,,,,,,,0,64,64,113,,,,,,,,,,,,,,,AMP,right,0.500355358584784,0,,,,,,,,,,,,,,right,0,0.500355358584784,,,,,,,,,1012,2019_Mar_06_1150,mf_amp_cond2,3.0.4,59.985224807361156,
voter,&&&&&&&&&&,right,fairness.vice,imebreaker,,,,,,,,,,,,,0,65,65,138,,,,,,,,,,,,,,,AMP,right,0.46704723371658474,1,,,,,,,,,,,,,,right,1,0.46704723371658474,,,,,,,,,1012,2019_Mar_06_1150,mf_amp_cond2,3.0.4,59.985224807361156,
protect,&&&&&&&&&&&&,left,fairness.virtue,unreflectuve,,,,,,,,,,,,,0,66,66,218,,,,,,,,,,,,,,,AMP,left,0.38368679967243224,1,,,,,,,,,,,,,,left,1,0.38368679967243224,,,,,,,,,1012,2019_Mar_06_1150,mf_amp_cond2,3.0.4,59.985224807361156,
bycled,&&&&&&,None,nonword,Cunday,,,,,,,,,,,,,0,67,67,270,,,,,,,,,,,,,,,AMP,right,0.5835820522624999,0,,,,,,,,,,,,,,right,0,0.5835820522624999,,,,,,,,,1012,2019_Mar_06_1150,mf_amp_cond2,3.0.4,59.985224807361156,
fear,&&&&&&&&&,right,sanctity.vice,faspberry,,,,,,,,,,,,,0,68,68,207,,,,,,,,,,,,,,,AMP,left,0.483694881782867,0,,,,,,,,,,,,,,left,0,0.483694881782867,,,,,,,,,1012,2019_Mar_06_1150,mf_amp_cond2,3.0.4,59.985224807361156,
peace,&&&&&&&&&&&,left,care.virtue,precificity,,,,,,,,,,,,,0,69,69,184,,,,,,,,,,,,,,,AMP,left,0.5003742809640244,1,,,,,,,,,,,,,,left,1,0.5003742809640244,,,,,,,,,1012,2019_Mar_06_1150,mf_amp_cond2,3.0.4,59.985224807361156,
safety,&&&&&&,left,care.virtue,gazily,,,,,,,,,,,,,0,70,70,4,,,,,,,,,,,,,,,AMP,right,0.450355326407589,0,,,,,,,,,,,,,,right,0,0.450355326407589,,,,,,,,,1012,2019_Mar_06_1150,mf_amp_cond2,3.0.4,59.985224807361156,
powerful,&&&&&&&,left,authority.virtue,carvels,,,,,,,,,,,,,0,71,71,137,,,,,,,,,,,,,,,AMP,right,0.26697911275550723,0,,,,,,,,,,,,,,right,0,0.26697911275550723,,,,,,,,,1012,2019_Mar_06_1150,mf_amp_cond2,3.0.4,59.985224807361156,
fair,&&&&&&&&,left,fairness.virtue,epigrach,,,,,,,,,,,,,0,72,72,26,,,,,,,,,,,,,,,AMP,right,0.7170865221414715,0,,,,,,,,,,,,,,right,0,0.7170865221414715,,,,,,,,,1012,2019_Mar_06_1150,mf_amp_cond2,3.0.4,59.985224807361156,
benefit,&&&&&&&&&&&&,left,fairness.virtue,nonobservalt,,,,,,,,,,,,,0,73,73,310,,,,,,,,,,,,,,,AMP,right,0.25031510810367763,0,,,,,,,,,,,,,,right,0,0.25031510810367763,,,,,,,,,1012,2019_Mar_06_1150,mf_amp_cond2,3.0.4,59.985224807361156,
officers,&&&&&,right,authority.vice,hasks,,,,,,,,,,,,,0,74,74,66,,,,,,,,,,,,,,,AMP,left,1.0671813592780381,0,,,,,,,,,,,,,,left,0,1.0671813592780381,,,,,,,,,1012,2019_Mar_06_1150,mf_amp_cond2,3.0.4,59.985224807361156,
papert,&&&&&&&,None,nonword,carvels,,,,,,,,,,,,,0,75,75,284,,,,,,,,,,,,,,,AMP,left,0.30031514004804194,0,,,,,,,,,,,,,,left,0,0.30031514004804194,,,,,,,,,1012,2019_Mar_06_1150,mf_amp_cond2,3.0.4,59.985224807361156,
abuse,&&&&&&&&&&&,right,sanctity.vice,precificity,,,,,,,,,,,,,0,76,76,60,,,,,,,,,,,,,,,AMP,left,0.9504861803725362,0,,,,,,,,,,,,,,left,0,0.9504861803725362,,,,,,,,,1012,2019_Mar_06_1150,mf_amp_cond2,3.0.4,59.985224807361156,
fraud,&&&&&&&&,right,fairness.vice,bluently,,,,,,,,,,,,,0,77,77,228,,,,,,,,,,,,,,,AMP,left,0.36707763804588467,0,,,,,,,,,,,,,,left,0,0.36707763804588467,,,,,,,,,1012,2019_Mar_06_1150,mf_amp_cond2,3.0.4,59.985224807361156,
penalty,&&&&&,right,authority.vice,tabin,,,,,,,,,,,,,0,78,78,30,,,,,,,,,,,,,,,AMP,left,0.11694245436228812,0,,,,,,,,,,,,,,left,0,0.11694245436228812,,,,,,,,,1012,2019_Mar_06_1150,mf_amp_cond2,3.0.4,59.985224807361156,
suggists,&&&&&&,None,nonword,letish,,,,,,,,,,,,,0,79,79,134,,,,,,,,,,,,,,,AMP,left,0.33365084684919566,0,,,,,,,,,,,,,,left,0,0.33365084684919566,,,,,,,,,1012,2019_Mar_06_1150,mf_amp_cond2,3.0.4,59.985224807361156,
arrests,&&&&&&&&&&&&,right,authority.vice,feleological,,,,,,,,,,,,,0,80,80,224,,,,,,,,,,,,,,,AMP,left,0.10032559558749199,0,,,,,,,,,,,,,,left,0,0.10032559558749199,,,,,,,,,1012,2019_Mar_06_1150,mf_amp_cond2,3.0.4,59.985224807361156,
racist,&&&&&&,right,sanctity.vice,gikely,,,,,,,,,,,,,0,81,81,178,,,,,,,,,,,,,,,AMP,left,0.33366559993010014,0,,,,,,,,,,,,,,left,0,0.33366559993010014,,,,,,,,,1012,2019_Mar_06_1150,mf_amp_cond2,3.0.4,59.985224807361156,
voter,&&&&&&&,right,fairness.vice,smapper,,,,,,,,,,,,,0,82,82,300,,,,,,,,,,,,,,,AMP,right,0.28364921116735786,1,,,,,,,,,,,,,,right,1,0.28364921116735786,,,,,,,,,1012,2019_Mar_06_1150,mf_amp_cond2,3.0.4,59.985224807361156,
men,&&&&&&&&&&,right,loyalty.vice,lorthwhile,,,,,,,,,,,,,0,83,83,260,,,,,,,,,,,,,,,AMP,left,0.10027107305359095,0,,,,,,,,,,,,,,left,0,0.10027107305359095,,,,,,,,,1012,2019_Mar_06_1150,mf_amp_cond2,3.0.4,59.985224807361156,
accused,&&&&,right,fairness.vice,tove,,,,,,,,,,,,,0,84,84,92,,,,,,,,,,,,,,,AMP,right,0.6670601909281686,1,,,,,,,,,,,,,,right,1,0.6670601909281686,,,,,,,,,1012,2019_Mar_06_1150,mf_amp_cond2,3.0.4,59.985224807361156,
forced,&&&&&&,right,fairness.vice,chared,,,,,,,,,,,,,0,85,85,198,,,,,,,,,,,,,,,AMP,left,0.3836717257509008,0,,,,,,,,,,,,,,left,0,0.3836717257509008,,,,,,,,,1012,2019_Mar_06_1150,mf_amp_cond2,3.0.4,59.985224807361156,
refuejing,&&&&&&&&&,None,nonword,ittutable,,,,,,,,,,,,,0,86,86,27,,,,,,,,,,,,,,,AMP,left,0.46703729149885476,0,,,,,,,,,,,,,,left,0,0.46703729149885476,,,,,,,,,1012,2019_Mar_06_1150,mf_amp_cond2,3.0.4,59.985224807361156,
actively,&&&&&&,left,authority.virtue,sgrawl,,,,,,,,,,,,,0,87,87,272,,,,,,,,,,,,,,,AMP,left,0.6837735866429284,1,,,,,,,,,,,,,,left,1,0.6837735866429284,,,,,,,,,1012,2019_Mar_06_1150,mf_amp_cond2,3.0.4,59.985224807361156,
growth,&&&&&&,left,care.virtue,antral,,,,,,,,,,,,,0,88,88,186,,,,,,,,,,,,,,,AMP,left,0.4837025790475309,1,,,,,,,,,,,,,,left,1,0.4837025790475309,,,,,,,,,1012,2019_Mar_06_1150,mf_amp_cond2,3.0.4,59.985224807361156,
benefit,&&&&&&,left,fairness.virtue,gazily,,,,,,,,,,,,,0,89,89,136,,,,,,,,,,,,,,,AMP,right,0.41701577114872634,0,,,,,,,,,,,,,,right,0,0.41701577114872634,,,,,,,,,1012,2019_Mar_06_1150,mf_amp_cond2,3.0.4,59.985224807361156,
army,&&&&&&&&&&&&,right,loyalty.vice,nonobservalt,,,,,,,,,,,,,0,90,90,64,,,,,,,,,,,,,,,AMP,right,0.5503784825559705,1,,,,,,,,,,,,,,right,1,0.5503784825559705,,,,,,,,,1012,2019_Mar_06_1150,mf_amp_cond2,3.0.4,59.985224807361156,
prison,&&&&&&&&&,right,fairness.vice,metibolic,,,,,,,,,,,,,0,91,91,170,,,,,,,,,,,,,,,AMP,left,0.36681336420588195,0,,,,,,,,,,,,,,left,0,0.36681336420588195,,,,,,,,,1012,2019_Mar_06_1150,mf_amp_cond2,3.0.4,59.985224807361156,
fear,&&&&&&&&&&,right,sanctity.vice,galamitous,,,,,,,,,,,,,0,92,92,142,,,,,,,,,,,,,,,AMP,left,0.3503318497678265,0,,,,,,,,,,,,,,left,0,0.3503318497678265,,,,,,,,,1012,2019_Mar_06_1150,mf_amp_cond2,3.0.4,59.985224807361156,
pumber,&&&&&&,None,nonword,gazily,,,,,,,,,,,,,0,93,93,204,,,,,,,,,,,,,,,AMP,left,1.3505755973747,0,,,,,,,,,,,,,,left,0,1.3505755973747,,,,,,,,,1012,2019_Mar_06_1150,mf_amp_cond2,3.0.4,59.985224807361156,
protesters,&&&&&,right,authority.vice,touls,,,,,,,,,,,,,0,94,94,42,,,,,,,,,,,,,,,AMP,left,0.46702734916470945,0,,,,,,,,,,,,,,left,0,0.46702734916470945,,,,,,,,,1012,2019_Mar_06_1150,mf_amp_cond2,3.0.4,59.985224807361156,
promote,&&&&&&&&&,left,sanctity.virtue,ittutable,,,,,,,,,,,,,0,95,95,278,,,,,,,,,,,,,,,AMP,left,0.333660468342714,1,,,,,,,,,,,,,,left,1,0.333660468342714,,,,,,,,,1012,2019_Mar_06_1150,mf_amp_cond2,3.0.4,59.985224807361156,
killed,&&&&&&&&&,right,care.vice,tomedians,,,,,,,,,,,,,0,96,96,166,,,,,,,,,,,,,,,AMP,left,0.31698812497779727,0,,,,,,,,,,,,,,left,0,0.31698812497779727,,,,,,,,,1012,2019_Mar_06_1150,mf_amp_cond2,3.0.4,59.985224807361156,
betrayal,&&&&&&&&&,right,loyalty.vice,rivernoat,,,,,,,,,,,,,0,97,97,185,,,,,,,,,,,,,,,AMP,left,0.3836803851881996,0,,,,,,,,,,,,,,left,0,0.3836803851881996,,,,,,,,,1012,2019_Mar_06_1150,mf_amp_cond2,3.0.4,59.985224807361156,
died,&&&&&&,right,care.vice,antral,,,,,,,,,,,,,0,98,98,133,,,,,,,,,,,,,,,AMP,left,0.2836485696025193,0,,,,,,,,,,,,,,left,0,0.2836485696025193,,,,,,,,,1012,2019_Mar_06_1150,mf_amp_cond2,3.0.4,59.985224807361156,
conspiracy,&&&&&&&,right,sanctity.vice,reviked,,,,,,,,,,,,,0,99,99,80,,,,,,,,,,,,,,,AMP,left,0.4670177275547758,0,,,,,,,,,,,,,,left,0,0.4670177275547758,,,,,,,,,1012,2019_Mar_06_1150,mf_amp_cond2,3.0.4,59.985224807361156,
safety,&&&&&&&&&&&,left,care.virtue,egpeditious,,,,,,,,,,,,,0,100,100,119,,,,,,,,,,,,,,,AMP,right,0.20029102184344083,0,,,,,,,,,,,,,,right,0,0.20029102184344083,,,,,,,,,1012,2019_Mar_06_1150,mf_amp_cond2,3.0.4,59.985224807361156,
arrests,&&&&&&&,right,authority.vice,reviked,,,,,,,,,,,,,0,101,101,144,,,,,,,,,,,,,,,AMP,left,0.2169534229906276,0,,,,,,,,,,,,,,left,0,0.2169534229906276,,,,,,,,,1012,2019_Mar_06_1150,mf_amp_cond2,3.0.4,59.985224807361156,
hate,&&&&&,right,fairness.vice,scock,,,,,,,,,,,,,0,102,102,74,,,,,,,,,,,,,,,AMP,left,0.016933410079218447,0,,,,,,,,,,,,,,left,0,0.016933410079218447,,,,,,,,,1012,2019_Mar_06_1150,mf_amp_cond2,3.0.4,59.985224807361156,
love,&&&&&&&&&&&,left,loyalty.virtue,nomparisons,,,,,,,,,,,,,0,103,103,244,,,,,,,,,,,,,,,AMP,right,0.2835847462993115,0,,,,,,,,,,,,,,right,0,0.2835847462993115,,,,,,,,,1012,2019_Mar_06_1150,mf_amp_cond2,3.0.4,59.985224807361156,
suicide,&&&&&&&&,right,care.vice,glacenta,,,,,,,,,,,,,0,104,104,45,,,,,,,,,,,,,,,AMP,left,0.41701480897609144,0,,,,,,,,,,,,,,left,0,0.41701480897609144,,,,,,,,,1012,2019_Mar_06_1150,mf_amp_cond2,3.0.4,59.985224807361156,
praised,&&&&&&&&,left,loyalty.virtue,pullness,,,,,,,,,,,,,0,105,105,57,,,,,,,,,,,,,,,AMP,left,0.3503494893666357,1,,,,,,,,,,,,,,left,1,0.3503494893666357,,,,,,,,,1012,2019_Mar_06_1150,mf_amp_cond2,3.0.4,59.985224807361156,
shot,&&&&&,right,care.vice,leact,,,,,,,,,,,,,0,106,106,221,,,,,,,,,,,,,,,AMP,left,0.3503331325482577,0,,,,,,,,,,,,,,left,0,0.3503331325482577,,,,,,,,,1012,2019_Mar_06_1150,mf_amp_cond2,3.0.4,59.985224807361156,
disregord,&&&&&&&&,None,nonword,clamorek,,,,,,,,,,,,,0,107,107,280,,,,,,,,,,,,,,,AMP,left,0.35032960469834507,0,,,,,,,,,,,,,,left,0,0.35032960469834507,,,,,,,,,1012,2019_Mar_06_1150,mf_amp_cond2,3.0.4,59.985224807361156,
win,&&&&&&&&&,left,fairness.virtue,metibolic,,,,,,,,,,,,,0,108,108,323,,,,,,,,,,,,,,,AMP,right,0.13361576001625508,0,,,,,,,,,,,,,,right,0,0.13361576001625508,,,,,,,,,1012,2019_Mar_06_1150,mf_amp_cond2,3.0.4,59.985224807361156,
civilians,&&&&&&&&&&&&,right,care.vice,bruthfulness,,,,,,,,,,,,,0,109,109,28,,,,,,,,,,,,,,,AMP,right,0.4668820627266541,1,,,,,,,,,,,,,,right,1,0.4668820627266541,,,,,,,,,1012,2019_Mar_06_1150,mf_amp_cond2,3.0.4,59.985224807361156,
prison,&&&&,right,fairness.vice,yane,,,,,,,,,,,,,0,110,110,311,,,,,,,,,,,,,,,AMP,left,0.3169903700472787,0,,,,,,,,,,,,,,left,0,0.3169903700472787,,,,,,,,,1012,2019_Mar_06_1150,mf_amp_cond2,3.0.4,59.985224807361156,
allears,&&&&&&&&,None,nonword,epigrach,,,,,,,,,,,,,0,111,111,246,,,,,,,,,,,,,,,AMP,left,0.21696593111846596,0,,,,,,,,,,,,,,left,0,0.21696593111846596,,,,,,,,,1012,2019_Mar_06_1150,mf_amp_cond2,3.0.4,59.985224807361156,
black,&&&&&&&&&&&,right,loyalty.vice,shoirmaster,,,,,,,,,,,,,0,112,112,304,,,,,,,,,,,,,,,AMP,right,0.46703312220051885,1,,,,,,,,,,,,,,right,1,0.46703312220051885,,,,,,,,,1012,2019_Mar_06_1150,mf_amp_cond2,3.0.4,59.985224807361156,
fair,&&&&&&,left,fairness.virtue,chared,,,,,,,,,,,,,0,113,113,159,,,,,,,,,,,,,,,AMP,left,0.16703902336303145,1,,,,,,,,,,,,,,left,1,0.16703902336303145,,,,,,,,,1012,2019_Mar_06_1150,mf_amp_cond2,3.0.4,59.985224807361156,
freedom,&&&&&&&&&&,left,sanctity.virtue,Oregoniuns,,,,,,,,,,,,,0,114,114,143,,,,,,,,,,,,,,,AMP,right,0.16695435310248286,0,,,,,,,,,,,,,,right,0,0.16695435310248286,,,,,,,,,1012,2019_Mar_06_1150,mf_amp_cond2,3.0.4,59.985224807361156,
pumber,&&&&&&&&&&&,None,nonword,precificity,,,,,,,,,,,,,0,115,115,301,,,,,,,,,,,,,,,AMP,left,0.41702667553909123,0,,,,,,,,,,,,,,left,0,0.41702667553909123,,,,,,,,,1012,2019_Mar_06_1150,mf_amp_cond2,3.0.4,59.985224807361156,
integrity,&&&&&&&&,left,fairness.virtue,clamorek,,,,,,,,,,,,,0,116,116,210,,,,,,,,,,,,,,,AMP,right,0.36701734259258956,0,,,,,,,,,,,,,,right,0,0.36701734259258956,,,,,,,,,1012,2019_Mar_06_1150,mf_amp_cond2,3.0.4,59.985224807361156,
win,&&&&&&&&&&,left,fairness.virtue,lorthwhile,,,,,,,,,,,,,0,117,117,112,,,,,,,,,,,,,,,AMP,right,0.06693472503684461,0,,,,,,,,,,,,,,right,0,0.06693472503684461,,,,,,,,,1012,2019_Mar_06_1150,mf_amp_cond2,3.0.4,59.985224807361156,
suggists,&&&&&&&&,None,nonword,lachelor,,,,,,,,,,,,,0,118,118,59,,,,,,,,,,,,,,,AMP,left,0.2836485697189346,0,,,,,,,,,,,,,,left,0,0.2836485697189346,,,,,,,,,1012,2019_Mar_06_1150,mf_amp_cond2,3.0.4,59.985224807361156,
voter,&&&&&&&,right,fairness.vice,baklara,,,,,,,,,,,,,0,119,119,171,,,,,,,,,,,,,,,AMP,right,0.15028521686326712,1,,,,,,,,,,,,,,right,1,0.15028521686326712,,,,,,,,,1012,2019_Mar_06_1150,mf_amp_cond2,3.0.4,59.985224807361156,
clean,&&&&&&&&&&,left,sanctity.virtue,totalestic,,,,,,,,,,,,,0,120,120,141,,,,,,,,,,,,,,,AMP,left,0.35033537761773914,1,,,,,,,,,,,,,,left,1,0.35033537761773914,,,,,,,,,1012,2019_Mar_06_1150,mf_amp_cond2,3.0.4,59.985224807361156,
betrayal,&&&&&&&&,right,loyalty.vice,pullness,,,,,,,,,,,,,0,121,121,124,,,,,,,,,,,,,,,AMP,left,0.21698774013202637,0,,,,,,,,,,,,,,left,0,0.21698774013202637,,,,,,,,,1012,2019_Mar_06_1150,mf_amp_cond2,3.0.4,59.985224807361156,
benefit,&&&&,left,fairness.virtue,spag,,,,,,,,,,,,,0,122,122,200,,,,,,,,,,,,,,,AMP,left,0.30031738511752337,1,,,,,,,,,,,,,,left,1,0.30031738511752337,,,,,,,,,1012,2019_Mar_06_1150,mf_amp_cond2,3.0.4,59.985224807361156,
hate,&&&&&,right,fairness.vice,scock,,,,,,,,,,,,,0,123,123,321,,,,,,,,,,,,,,,AMP,left,0.2669688496971503,0,,,,,,,,,,,,,,left,0,0.2669688496971503,,,,,,,,,1012,2019_Mar_06_1150,mf_amp_cond2,3.0.4,59.985224807361156,
died,&&&&&&&&&,right,care.vice,metibolic,,,,,,,,,,,,,0,124,124,9,,,,,,,,,,,,,,,AMP,left,0.1669479387346655,0,,,,,,,,,,,,,,left,0,0.1669479387346655,,,,,,,,,1012,2019_Mar_06_1150,mf_amp_cond2,3.0.4,59.985224807361156,
fraud,&&&&,right,fairness.vice,spag,,,,,,,,,,,,,0,125,125,36,,,,,,,,,,,,,,,AMP,left,0.1836138677317649,0,,,,,,,,,,,,,,left,0,0.1836138677317649,,,,,,,,,1012,2019_Mar_06_1150,mf_amp_cond2,3.0.4,59.985224807361156,
suicide,&&&&,right,care.vice,tove,,,,,,,,,,,,,0,126,126,292,,,,,,,,,,,,,,,AMP,right,0.2836565877078101,1,,,,,,,,,,,,,,right,1,0.2836565877078101,,,,,,,,,1012,2019_Mar_06_1150,mf_amp_cond2,3.0.4,59.985224807361156,
freedom,&&&&&&&&&,left,sanctity.virtue,gillipede,,,,,,,,,,,,,0,127,127,298,,,,,,,,,,,,,,,AMP,right,0.11694181291386485,0,,,,,,,,,,,,,,right,0,0.11694181291386485,,,,,,,,,1012,2019_Mar_06_1150,mf_amp_cond2,3.0.4,59.985224807361156,
pafer,&&&&&&&&&,None,nonword,rivernoat,,,,,,,,,,,,,0,128,128,286,,,,,,,,,,,,,,,AMP,right,0.13360806263517588,0,,,,,,,,,,,,,,right,0,0.13360806263517588,,,,,,,,,1012,2019_Mar_06_1150,mf_amp_cond2,3.0.4,59.985224807361156,
perfect,&&&&&&&&&&,left,sanctity.virtue,honstables,,,,,,,,,,,,,0,129,129,169,,,,,,,,,,,,,,,AMP,right,0.40036235016305,0,,,,,,,,,,,,,,right,0,0.40036235016305,,,,,,,,,1012,2019_Mar_06_1150,mf_amp_cond2,3.0.4,59.985224807361156,
died,&&&&&&&,right,care.vice,reviked,,,,,,,,,,,,,0,130,130,214,,,,,,,,,,,,,,,AMP,left,0.21696208254434168,0,,,,,,,,,,,,,,left,0,0.21696208254434168,,,,,,,,,1012,2019_Mar_06_1150,mf_amp_cond2,3.0.4,59.985224807361156,
peaceful,&&&&&&&&&,left,authority.virtue,pescinded,,,,,,,,,,,,,0,131,131,231,,,,,,,,,,,,,,,AMP,left,0.06692253763321787,1,,,,,,,,,,,,,,left,1,0.06692253763321787,,,,,,,,,1012,2019_Mar_06_1150,mf_amp_cond2,3.0.4,59.985224807361156,
increase,&&&&&,left,care.virtue,noped,,,,,,,,,,,,,0,132,132,195,,,,,,,,,,,,,,,AMP,right,0.3669932885095477,0,,,,,,,,,,,,,,right,0,0.3669932885095477,,,,,,,,,1012,2019_Mar_06_1150,mf_amp_cond2,3.0.4,59.985224807361156,
conspiracy,&&&&&&&&&,right,sanctity.vice,pescinded,,,,,,,,,,,,,0,133,133,162,,,,,,,,,,,,,,,AMP,right,0.46704402659088373,1,,,,,,,,,,,,,,right,1,0.46704402659088373,,,,,,,,,1012,2019_Mar_06_1150,mf_amp_cond2,3.0.4,59.985224807361156,
loyalty,&&&&&&&&&,left,loyalty.virtue,reprisols,,,,,,,,,,,,,0,134,134,187,,,,,,,,,,,,,,,AMP,left,0.20029775716830045,1,,,,,,,,,,,,,,left,1,0.20029775716830045,,,,,,,,,1012,2019_Mar_06_1150,mf_amp_cond2,3.0.4,59.985224807361156,
strong,&&&&&,left,loyalty.virtue,infet,,,,,,,,,,,,,0,135,135,35,,,,,,,,,,,,,,,AMP,left,0.40033893764484674,1,,,,,,,,,,,,,,left,1,0.40033893764484674,,,,,,,,,1012,2019_Mar_06_1150,mf_amp_cond2,3.0.4,59.985224807361156,
care,&&&&&&&&&&&,left,care.virtue,shoirmaster,,,,,,,,,,,,,0,136,136,283,,,,,,,,,,,,,,,AMP,right,0.5003806953318417,0,,,,,,,,,,,,,,right,0,0.5003806953318417,,,,,,,,,1012,2019_Mar_06_1150,mf_amp_cond2,3.0.4,59.985224807361156,
killed,&&&&&&&&&&&,right,care.vice,shoirmaster,,,,,,,,,,,,,0,137,137,47,,,,,,,,,,,,,,,AMP,left,0.5170517559163272,0,,,,,,,,,,,,,,left,0,0.5170517559163272,,,,,,,,,1012,2019_Mar_06_1150,mf_amp_cond2,3.0.4,59.985224807361156,
hate,&&&&&,right,fairness.vice,touls,,,,,,,,,,,,,0,138,138,240,,,,,,,,,,,,,,,AMP,left,0.3336562990443781,0,,,,,,,,,,,,,,left,0,0.3336562990443781,,,,,,,,,1012,2019_Mar_06_1150,mf_amp_cond2,3.0.4,59.985224807361156,
embrace,&&&&&&&&,left,authority.virtue,proached,,,,,,,,,,,,,0,139,139,53,,,,,,,,,,,,,,,AMP,right,0.3837849401170388,0,,,,,,,,,,,,,,right,0,0.3837849401170388,,,,,,,,,1012,2019_Mar_06_1150,mf_amp_cond2,3.0.4,59.985224807361156,
ability,&&&&&&,left,authority.virtue,gazily,,,,,,,,,,,,,0,140,140,316,,,,,,,,,,,,,,,AMP,right,0.8170833790209144,0,,,,,,,,,,,,,,right,0,0.8170833790209144,,,,,,,,,1012,2019_Mar_06_1150,mf_amp_cond2,3.0.4,59.985224807361156,
suicide,&&&&&&&&&,right,care.vice,tomedians,,,,,,,,,,,,,0,141,141,89,,,,,,,,,,,,,,,AMP,right,0.6669331855373457,1,,,,,,,,,,,,,,right,1,0.6669331855373457,,,,,,,,,1012,2019_Mar_06_1150,mf_amp_cond2,3.0.4,59.985224807361156,
increase,&&&&&,left,care.virtue,noped,,,,,,,,,,,,,0,142,142,117,,,,,,,,,,,,,,,AMP,left,0.5503800860606134,1,,,,,,,,,,,,,,left,1,0.5503800860606134,,,,,,,,,1012,2019_Mar_06_1150,mf_amp_cond2,3.0.4,59.985224807361156,
hand,&&&&&&&,left,sanctity.virtue,chadows,,,,,,,,,,,,,0,143,143,17,,,,,,,,,,,,,,,AMP,left,0.7170967851998284,1,,,,,,,,,,,,,,left,1,0.7170967851998284,,,,,,,,,1012,2019_Mar_06_1150,mf_amp_cond2,3.0.4,59.985224807361156,
betrayal,&&&&&&&&,right,loyalty.vice,thadowed,,,,,,,,,,,,,0,144,144,15,,,,,,,,,,,,,,,AMP,left,0.36700547591317445,0,,,,,,,,,,,,,,left,0,0.36700547591317445,,,,,,,,,1012,2019_Mar_06_1150,mf_amp_cond2,3.0.4,59.985224807361156,
victims,&&&,right,care.vice,oam,,,,,,,,,,,,,0,145,145,282,,,,,,,,,,,,,,,AMP,left,0.28364440030418336,0,,,,,,,,,,,,,,left,0,0.28364440030418336,,,,,,,,,1012,2019_Mar_06_1150,mf_amp_cond2,3.0.4,59.985224807361156,
black,&&&&&&&&&&&&,right,loyalty.vice,nonobservalt,,,,,,,,,,,,,0,146,146,234,,,,,,,,,,,,,,,AMP,right,0.3003186680143699,1,,,,,,,,,,,,,,right,1,0.3003186680143699,,,,,,,,,1012,2019_Mar_06_1150,mf_amp_cond2,3.0.4,59.985224807361156,
civilians,&&&&,right,care.vice,tove,,,,,,,,,,,,,0,147,147,180,,,,,,,,,,,,,,,AMP,right,0.567050825804472,1,,,,,,,,,,,,,,right,1,0.567050825804472,,,,,,,,,1012,2019_Mar_06_1150,mf_amp_cond2,3.0.4,59.985224807361156,
intelligence,&&&&&&&,left,loyalty.virtue,baklara,,,,,,,,,,,,,0,148,148,320,,,,,,,,,,,,,,,AMP,right,0.15027816104702652,0,,,,,,,,,,,,,,right,0,0.15027816104702652,,,,,,,,,1012,2019_Mar_06_1150,mf_amp_cond2,3.0.4,59.985224807361156,
penalty,&&&&&,right,authority.vice,infet,,,,,,,,,,,,,0,149,149,197,,,,,,,,,,,,,,,AMP,left,0.26697943347971886,0,,,,,,,,,,,,,,left,0,0.26697943347971886,,,,,,,,,1012,2019_Mar_06_1150,mf_amp_cond2,3.0.4,59.985224807361156,
commitment,&&&&&&&&&,left,sanctity.virtue,tenuflect,,,,,,,,,,,,,0,150,150,241,,,,,,,,,,,,,,,AMP,right,0.050258853705599904,0,,,,,,,,,,,,,,right,0,0.050258853705599904,,,,,,,,,1012,2019_Mar_06_1150,mf_amp_cond2,3.0.4,59.985224807361156,
papert,&&&&&&&&&&&,None,nonword,cromiscuity,,,,,,,,,,,,,0,151,151,32,,,,,,,,,,,,,,,AMP,left,0.6170720255468041,0,,,,,,,,,,,,,,left,0,0.6170720255468041,,,,,,,,,1012,2019_Mar_06_1150,mf_amp_cond2,3.0.4,59.985224807361156,
officers,&&&&&&&&&,right,authority.vice,baladroit,,,,,,,,,,,,,0,152,152,222,,,,,,,,,,,,,,,AMP,right,0.10027395968791097,1,,,,,,,,,,,,,,right,1,0.10027395968791097,,,,,,,,,1012,2019_Mar_06_1150,mf_amp_cond2,3.0.4,59.985224807361156,
unpleasant,&&&&&,None,control,touls,,,,,,,,,,,,,0,153,153,305,,,,,,,,,,,,,,,AMP,left,0.23362737009301782,0,,,,,,,,,,,,,,left,0,0.23362737009301782,,,,,,,,,1012,2019_Mar_06_1150,mf_amp_cond2,3.0.4,59.985224807361156,
actively,&&&&&,left,authority.virtue,hasks,,,,,,,,,,,,,0,154,154,199,,,,,,,,,,,,,,,AMP,left,0.3170083303702995,1,,,,,,,,,,,,,,left,1,0.3170083303702995,,,,,,,,,1012,2019_Mar_06_1150,mf_amp_cond2,3.0.4,59.985224807361156,
forced,&&&&&&&&&&&,right,fairness.vice,blunderints,,,,,,,,,,,,,0,155,155,79,,,,,,,,,,,,,,,AMP,left,0.38370604277588427,0,,,,,,,,,,,,,,left,0,0.38370604277588427,,,,,,,,,1012,2019_Mar_06_1150,mf_amp_cond2,3.0.4,59.985224807361156,
hand,&&&&&&&&,left,sanctity.virtue,thadowed,,,,,,,,,,,,,0,156,156,151,,,,,,,,,,,,,,,AMP,left,0.33364988467656076,1,,,,,,,,,,,,,,left,1,0.33364988467656076,,,,,,,,,1012,2019_Mar_06_1150,mf_amp_cond2,3.0.4,59.985224807361156,
fraud,&&&&&,right,fairness.vice,lenon,,,,,,,,,,,,,0,157,157,128,,,,,,,,,,,,,,,AMP,left,0.41702539275866,0,,,,,,,,,,,,,,left,0,0.41702539275866,,,,,,,,,1012,2019_Mar_06_1150,mf_amp_cond2,3.0.4,59.985224807361156,
allears,&&&&&&&&&,None,nonword,baladroit,,,,,,,,,,,,,0,158,158,67,,,,,,,,,,,,,,,AMP,left,0.26697622623760253,0,,,,,,,,,,,,,,left,0,0.26697622623760253,,,,,,,,,1012,2019_Mar_06_1150,mf_amp_cond2,3.0.4,59.985224807361156,
disregord,&&&&&&&&&&,None,nonword,totalestic,,,,,,,,,,,,,0,159,159,201,,,,,,,,,,,,,,,AMP,left,0.5003887134371325,0,,,,,,,,,,,,,,left,0,0.5003887134371325,,,,,,,,,1012,2019_Mar_06_1150,mf_amp_cond2,3.0.4,59.985224807361156,
blamed,&&&&&&&&&,right,loyalty.vice,rivernoat,,,,,,,,,,,,,0,160,160,160,,,,,,,,,,,,,,,AMP,right,0.5670495430240408,1,,,,,,,,,,,,,,right,1,0.5670495430240408,,,,,,,,,1012,2019_Mar_06_1150,mf_amp_cond2,3.0.4,59.985224807361156,
fear,&&&&&&&&&,right,sanctity.vice,reprisols,,,,,,,,,,,,,0,161,161,77,,,,,,,,,,,,,,,AMP,left,0.33365790266543627,0,,,,,,,,,,,,,,left,0,0.33365790266543627,,,,,,,,,1012,2019_Mar_06_1150,mf_amp_cond2,3.0.4,59.985224807361156,
sharing,&&&&&&&,left,loyalty.virtue,hatigue,,,,,,,,,,,,,0,162,162,254,,,,,,,,,,,,,,,AMP,right,0.2002874941099435,0,,,,,,,,,,,,,,right,0,0.2002874941099435,,,,,,,,,1012,2019_Mar_06_1150,mf_amp_cond2,3.0.4,59.985224807361156,
arrests,&&&&&&&&&&,right,authority.vice,ammessment,,,,,,,,,,,,,0,163,163,317,,,,,,,,,,,,,,,AMP,left,0.2336341051850468,0,,,,,,,,,,,,,,left,0,0.2336341051850468,,,,,,,,,1012,2019_Mar_06_1150,mf_amp_cond2,3.0.4,59.985224807361156,
peaceful,&&&&&&&&&&,left,authority.virtue,Oregoniuns,,,,,,,,,,,,,0,164,164,68,,,,,,,,,,,,,,,AMP,right,0.30031481944024563,0,,,,,,,,,,,,,,right,0,0.30031481944024563,,,,,,,,,1012,2019_Mar_06_1150,mf_amp_cond2,3.0.4,59.985224807361156,
strong,&&&&&&&&&&&&&,left,loyalty.virtue,idexpressible,,,,,,,,,,,,,0,165,165,120,,,,,,,,,,,,,,,AMP,right,0.11697196075692773,0,,,,,,,,,,,,,,right,0,0.11697196075692773,,,,,,,,,1012,2019_Mar_06_1150,mf_amp_cond2,3.0.4,59.985224807361156,
promote,&&&&&&,left,sanctity.virtue,greaks,,,,,,,,,,,,,0,166,166,150,,,,,,,,,,,,,,,AMP,right,0.1502877826569602,0,,,,,,,,,,,,,,right,0,0.1502877826569602,,,,,,,,,1012,2019_Mar_06_1150,mf_amp_cond2,3.0.4,59.985224807361156,
accused,&&&&&&&&&&&&,right,fairness.vice,unreflectuve,,,,,,,,,,,,,0,167,167,75,,,,,,,,,,,,,,,AMP,left,0.20029005978722125,0,,,,,,,,,,,,,,left,0,0.20029005978722125,,,,,,,,,1012,2019_Mar_06_1150,mf_amp_cond2,3.0.4,59.985224807361156,
honored,&&&&,left,authority.virtue,tove,,,,,,,,,,,,,0,168,168,41,,,,,,,,,,,,,,,AMP,right,0.1502977249911055,0,,,,,,,,,,,,,,right,0,0.1502977249911055,,,,,,,,,1012,2019_Mar_06_1150,mf_amp_cond2,3.0.4,59.985224807361156,
black,&&&&&&&&&,right,loyalty.vice,baladroit,,,,,,,,,,,,,0,169,169,108,,,,,,,,,,,,,,,AMP,right,0.30018300330266356,1,,,,,,,,,,,,,,right,1,0.30018300330266356,,,,,,,,,1012,2019_Mar_06_1150,mf_amp_cond2,3.0.4,59.985224807361156,
promises,&&&&&,left,fairness.virtue,ablow,,,,,,,,,,,,,0,170,170,127,,,,,,,,,,,,,,,AMP,left,0.016950728953815997,1,,,,,,,,,,,,,,left,1,0.016950728953815997,,,,,,,,,1012,2019_Mar_06_1150,mf_amp_cond2,3.0.4,59.985224807361156,
pafer,&&&&&&&,None,nonword,smapper,,,,,,,,,,,,,0,171,171,97,,,,,,,,,,,,,,,AMP,left,0.5003569620894268,0,,,,,,,,,,,,,,left,0,0.5003569620894268,,,,,,,,,1012,2019_Mar_06_1150,mf_amp_cond2,3.0.4,59.985224807361156,
war,&&&&&&&&,right,sanctity.vice,proached,,,,,,,,,,,,,0,172,172,289,,,,,,,,,,,,,,,AMP,right,0.10026145144365728,1,,,,,,,,,,,,,,right,1,0.10026145144365728,,,,,,,,,1012,2019_Mar_06_1150,mf_amp_cond2,3.0.4,59.985224807361156,
perfect,&&&&&&,left,sanctity.virtue,letish,,,,,,,,,,,,,0,173,173,267,,,,,,,,,,,,,,,AMP,left,0.2669887343654409,1,,,,,,,,,,,,,,left,1,0.2669887343654409,,,,,,,,,1012,2019_Mar_06_1150,mf_amp_cond2,3.0.4,59.985224807361156,
killed,&&&&&&&&&,right,care.vice,gillipede,,,,,,,,,,,,,0,174,174,152,,,,,,,,,,,,,,,AMP,left,0.5837299044942483,0,,,,,,,,,,,,,,left,0,0.5837299044942483,,,,,,,,,1012,2019_Mar_06_1150,mf_amp_cond2,3.0.4,59.985224807361156,
free,&&&&&&&&&&&&,left,fairness.virtue,unreflectuve,,,,,,,,,,,,,0,175,175,121,,,,,,,,,,,,,,,AMP,right,0.2503099765162915,0,,,,,,,,,,,,,,right,0,0.2503099765162915,,,,,,,,,1012,2019_Mar_06_1150,mf_amp_cond2,3.0.4,59.985224807361156,
gusinesslike,&&&&,None,nonword,yane,,,,,,,,,,,,,0,176,176,216,,,,,,,,,,,,,,,AMP,left,0.3336816360242665,0,,,,,,,,,,,,,,left,0,0.3336816360242665,,,,,,,,,1012,2019_Mar_06_1150,mf_amp_cond2,3.0.4,59.985224807361156,
sharing,&&&&&&&&&&&&&,left,loyalty.virtue,synchronazers,,,,,,,,,,,,,0,177,177,193,,,,,,,,,,,,,,,AMP,right,0.23363346373662353,0,,,,,,,,,,,,,,right,0,0.23363346373662353,,,,,,,,,1012,2019_Mar_06_1150,mf_amp_cond2,3.0.4,59.985224807361156,
pleasant,&&&&&&&&,None,control,bluently,,,,,,,,,,,,,0,178,178,265,,,,,,,,,,,,,,,AMP,right,0.6504077321151271,0,,,,,,,,,,,,,,right,0,0.6504077321151271,,,,,,,,,1012,2019_Mar_06_1150,mf_amp_cond2,3.0.4,59.985224807361156,
papert,&&&&&&&&&,None,nonword,metibolic,,,,,,,,,,,,,0,179,179,135,,,,,,,,,,,,,,,AMP,left,0.3503347361693159,0,,,,,,,,,,,,,,left,0,0.3503347361693159,,,,,,,,,1012,2019_Mar_06_1150,mf_amp_cond2,3.0.4,59.985224807361156,
free,&&&&&&&&&&,left,fairness.virtue,imebreaker,,,,,,,,,,,,,0,180,180,217,,,,,,,,,,,,,,,AMP,right,0.5170482280664146,0,,,,,,,,,,,,,,right,0,0.5170482280664146,,,,,,,,,1012,2019_Mar_06_1150,mf_amp_cond2,3.0.4,59.985224807361156,
clean,&&&&&&&&&,left,sanctity.virtue,gillipede,,,,,,,,,,,,,0,181,181,219,,,,,,,,,,,,,,,AMP,right,0.26688770728651434,0,,,,,,,,,,,,,,right,0,0.26688770728651434,,,,,,,,,1012,2019_Mar_06_1150,mf_amp_cond2,3.0.4,59.985224807361156,
love,&&&&&&,left,loyalty.virtue,greaks,,,,,,,,,,,,,0,182,182,54,,,,,,,,,,,,,,,AMP,right,0.26695666229352355,0,,,,,,,,,,,,,,right,0,0.26695666229352355,,,,,,,,,1012,2019_Mar_06_1150,mf_amp_cond2,3.0.4,59.985224807361156,
strong,&&&&&&&&&&&&,left,loyalty.virtue,bruthfulness,,,,,,,,,,,,,0,183,183,233,,,,,,,,,,,,,,,AMP,right,0.23363570880610496,0,,,,,,,,,,,,,,right,0,0.23363570880610496,,,,,,,,,1012,2019_Mar_06_1150,mf_amp_cond2,3.0.4,59.985224807361156,
betrayal,&&&&&&&&&&,right,loyalty.vice,galamitous,,,,,,,,,,,,,0,184,184,274,,,,,,,,,,,,,,,AMP,left,0.18362413079012185,0,,,,,,,,,,,,,,left,0,0.18362413079012185,,,,,,,,,1012,2019_Mar_06_1150,mf_amp_cond2,3.0.4,59.985224807361156,
encourage,&&&&&&&&,left,authority.virtue,bluently,,,,,,,,,,,,,0,185,185,116,,,,,,,,,,,,,,,AMP,right,0.36700451374053955,0,,,,,,,,,,,,,,right,0,0.36700451374053955,,,,,,,,,1012,2019_Mar_06_1150,mf_amp_cond2,3.0.4,59.985224807361156,
prison,&&&&&,right,fairness.vice,hasks,,,,,,,,,,,,,0,186,186,82,,,,,,,,,,,,,,,AMP,left,0.2836456832010299,0,,,,,,,,,,,,,,left,0,0.2836456832010299,,,,,,,,,1012,2019_Mar_06_1150,mf_amp_cond2,3.0.4,59.985224807361156,
promote,&&&&&&&,left,sanctity.virtue,smapper,,,,,,,,,,,,,0,187,187,172,,,,,,,,,,,,,,,AMP,right,0.15028072684071958,0,,,,,,,,,,,,,,right,0,0.15028072684071958,,,,,,,,,1012,2019_Mar_06_1150,mf_amp_cond2,3.0.4,59.985224807361156,
drug,&&&&&&&,right,sanctity.vice,brudent,,,,,,,,,,,,,0,188,188,213,,,,,,,,,,,,,,,AMP,left,0.016915770480409265,0,,,,,,,,,,,,,,left,0,0.016915770480409265,,,,,,,,,1012,2019_Mar_06_1150,mf_amp_cond2,3.0.4,59.985224807361156,
honored,&&&&&&&&&&,left,authority.virtue,Oregoniuns,,,,,,,,,,,,,0,189,189,262,,,,,,,,,,,,,,,AMP,right,0.13360421394463629,0,,,,,,,,,,,,,,right,0,0.13360421394463629,,,,,,,,,1012,2019_Mar_06_1150,mf_amp_cond2,3.0.4,59.985224807361156,
war,&&&&&&&&&&,right,sanctity.vice,ammessment,,,,,,,,,,,,,0,190,190,183,,,,,,,,,,,,,,,AMP,left,0.08359199459664524,0,,,,,,,,,,,,,,left,0,0.08359199459664524,,,,,,,,,1012,2019_Mar_06_1150,mf_amp_cond2,3.0.4,59.985224807361156,
failure,&&&&&&&&&&,right,loyalty.vice,honstables,,,,,,,,,,,,,0,191,191,295,,,,,,,,,,,,,,,AMP,right,0.03358747239690274,1,,,,,,,,,,,,,,right,1,0.03358747239690274,,,,,,,,,1012,2019_Mar_06_1150,mf_amp_cond2,3.0.4,59.985224807361156,
rejected,&&&&&&&,right,authority.vice,sickyay,,,,,,,,,,,,,0,192,192,202,,,,,,,,,,,,,,,AMP,left,0.5170235325349495,0,,,,,,,,,,,,,,left,0,0.5170235325349495,,,,,,,,,1012,2019_Mar_06_1150,mf_amp_cond2,3.0.4,59.985224807361156,
men,&&&&&,right,loyalty.vice,noped,,,,,,,,,,,,,0,193,193,29,,,,,,,,,,,,,,,AMP,left,0.5337077426956967,0,,,,,,,,,,,,,,left,0,0.5337077426956967,,,,,,,,,1012,2019_Mar_06_1150,mf_amp_cond2,3.0.4,59.985224807361156,
peaceful,&&&&&&&&&,left,authority.virtue,unscothed,,,,,,,,,,,,,0,194,194,319,,,,,,,,,,,,,,,AMP,left,0.7337749014841393,1,,,,,,,,,,,,,,left,1,0.7337749014841393,,,,,,,,,1012,2019_Mar_06_1150,mf_amp_cond2,3.0.4,59.985224807361156,
death,&&&&&&&&&&,right,care.vice,lorthwhile,,,,,,,,,,,,,0,195,195,71,,,,,,,,,,,,,,,AMP,left,0.28365434263832867,0,,,,,,,,,,,,,,left,0,0.28365434263832867,,,,,,,,,1012,2019_Mar_06_1150,mf_amp_cond2,3.0.4,59.985224807361156,
gusinesslike,&&&&&&&&&,None,nonword,reprisols,,,,,,,,,,,,,0,196,196,309,,,,,,,,,,,,,,,AMP,left,0.3336482810555026,0,,,,,,,,,,,,,,left,0,0.3336482810555026,,,,,,,,,1012,2019_Mar_06_1150,mf_amp_cond2,3.0.4,59.985224807361156,
slavery,&&&&&&&&,right,loyalty.vice,sidearbs,,,,,,,,,,,,,0,197,197,146,,,,,,,,,,,,,,,AMP,left,0.15028842410538346,0,,,,,,,,,,,,,,left,0,0.15028842410538346,,,,,,,,,1012,2019_Mar_06_1150,mf_amp_cond2,3.0.4,59.985224807361156,
forced,&&&&&&&&&&&&,right,fairness.vice,unreflectuve,,,,,,,,,,,,,0,198,198,271,,,,,,,,,,,,,,,AMP,left,0.13360293116420507,0,,,,,,,,,,,,,,left,0,0.13360293116420507,,,,,,,,,1012,2019_Mar_06_1150,mf_amp_cond2,3.0.4,59.985224807361156,
great,&&&&&&&,left,loyalty.virtue,dramens,,,,,,,,,,,,,0,199,199,44,,,,,,,,,,,,,,,AMP,right,0.10026497940998524,0,,,,,,,,,,,,,,right,0,0.10026497940998524,,,,,,,,,1012,2019_Mar_06_1150,mf_amp_cond2,3.0.4,59.985224807361156,
rejected,&&&&&,right,authority.vice,tabin,,,,,,,,,,,,,0,200,200,288,,,,,,,,,,,,,,,AMP,left,0.08361733157653362,0,,,,,,,,,,,,,,left,0,0.08361733157653362,,,,,,,,,1012,2019_Mar_06_1150,mf_amp_cond2,3.0.4,59.985224807361156,
bycled,&&&&&&&,None,nonword,brudent,,,,,,,,,,,,,0,201,201,76,,,,,,,,,,,,,,,AMP,left,0.26697141549084336,0,,,,,,,,,,,,,,left,0,0.26697141549084336,,,,,,,,,1012,2019_Mar_06_1150,mf_amp_cond2,3.0.4,59.985224807361156,
charges,&&&&&&,right,fairness.vice,gikely,,,,,,,,,,,,,0,202,202,158,,,,,,,,,,,,,,,AMP,left,0.43368683161679655,0,,,,,,,,,,,,,,left,0,0.43368683161679655,,,,,,,,,1012,2019_Mar_06_1150,mf_amp_cond2,3.0.4,59.985224807361156,
intelligence,&&&&&&&,left,loyalty.virtue,halaise,,,,,,,,,,,,,0,203,203,84,,,,,,,,,,,,,,,AMP,right,0.31699678441509604,0,,,,,,,,,,,,,,right,0,0.31699678441509604,,,,,,,,,1012,2019_Mar_06_1150,mf_amp_cond2,3.0.4,59.985224807361156,
racist,&&&&&&&,right,sanctity.vice,baklara,,,,,,,,,,,,,0,204,204,46,,,,,,,,,,,,,,,AMP,left,0.15029612137004733,0,,,,,,,,,,,,,,left,0,0.15029612137004733,,,,,,,,,1012,2019_Mar_06_1150,mf_amp_cond2,3.0.4,59.985224807361156,
safe,&&&&&&&&&&&,left,care.virtue,fornicalion,,,,,,,,,,,,,0,205,205,205,,,,,,,,,,,,,,,AMP,right,0.26697847130708396,0,,,,,,,,,,,,,,right,0,0.26697847130708396,,,,,,,,,1012,2019_Mar_06_1150,mf_amp_cond2,3.0.4,59.985224807361156,
civilians,&&&&&,right,care.vice,atson,,,,,,,,,,,,,0,206,206,114,,,,,,,,,,,,,,,AMP,left,0.15031023311894387,0,,,,,,,,,,,,,,left,0,0.15031023311894387,,,,,,,,,1012,2019_Mar_06_1150,mf_amp_cond2,3.0.4,59.985224807361156,
drug,&&&&&&&&&&,right,sanctity.vice,honstables,,,,,,,,,,,,,0,207,207,2,,,,,,,,,,,,,,,AMP,left,0.3336710522416979,0,,,,,,,,,,,,,,left,0,0.3336710522416979,,,,,,,,,1012,2019_Mar_06_1150,mf_amp_cond2,3.0.4,59.985224807361156,
fair,&&&&&&&&&,left,fairness.virtue,gondensed,,,,,,,,,,,,,0,208,208,215,,,,,,,,,,,,,,,AMP,right,0.1836343938484788,0,,,,,,,,,,,,,,right,0,0.1836343938484788,,,,,,,,,1012,2019_Mar_06_1150,mf_amp_cond2,3.0.4,59.985224807361156,
fair,&&&&&&&&&&&&&,left,fairness.virtue,photocalkodes,,,,,,,,,,,,,0,209,209,285,,,,,,,,,,,,,,,AMP,left,0.4503572507528588,1,,,,,,,,,,,,,,left,1,0.4503572507528588,,,,,,,,,1012,2019_Mar_06_1150,mf_amp_cond2,3.0.4,59.985224807361156,
arrests,&&&&&,right,authority.vice,lenon,,,,,,,,,,,,,0,210,210,49,,,,,,,,,,,,,,,AMP,left,0.2669528137193993,0,,,,,,,,,,,,,,left,0,0.2669528137193993,,,,,,,,,1012,2019_Mar_06_1150,mf_amp_cond2,3.0.4,59.985224807361156,
fear,&&&&&&&&,right,sanctity.vice,glacenta,,,,,,,,,,,,,0,211,211,281,,,,,,,,,,,,,,,AMP,left,0.20029454992618412,0,,,,,,,,,,,,,,left,0,0.20029454992618412,,,,,,,,,1012,2019_Mar_06_1150,mf_amp_cond2,3.0.4,59.985224807361156,
help,&&&&&,left,care.virtue,mecan,,,,,,,,,,,,,0,212,212,251,,,,,,,,,,,,,,,AMP,left,0.26698841364122927,1,,,,,,,,,,,,,,left,1,0.26698841364122927,,,,,,,,,1012,2019_Mar_06_1150,mf_amp_cond2,3.0.4,59.985224807361156,
help,&&&&&&&&&&&,left,care.virtue,precificity,,,,,,,,,,,,,0,213,213,145,,,,,,,,,,,,,,,AMP,left,0.13360902480781078,1,,,,,,,,,,,,,,left,1,0.13360902480781078,,,,,,,,,1012,2019_Mar_06_1150,mf_amp_cond2,3.0.4,59.985224807361156,
death,&&&&&,right,care.vice,scock,,,,,,,,,,,,,0,214,214,87,,,,,,,,,,,,,,,AMP,left,0.2836613984545693,0,,,,,,,,,,,,,,left,0,0.2836613984545693,,,,,,,,,1012,2019_Mar_06_1150,mf_amp_cond2,3.0.4,59.985224807361156,
pleasant,&&&&&&&&&,None,control,gondensed,,,,,,,,,,,,,0,215,215,39,,,,,,,,,,,,,,,AMP,left,0.5670553159434348,0,,,,,,,,,,,,,,left,0,0.5670553159434348,,,,,,,,,1012,2019_Mar_06_1150,mf_amp_cond2,3.0.4,59.985224807361156,
peace,&&&&&&&&&,left,care.virtue,tenuflect,,,,,,,,,,,,,0,216,216,34,,,,,,,,,,,,,,,AMP,left,0.16697712428867817,1,,,,,,,,,,,,,,left,1,0.16697712428867817,,,,,,,,,1012,2019_Mar_06_1150,mf_amp_cond2,3.0.4,59.985224807361156,
serial,&&&&&&&&&&&&&,right,sanctity.vice,synchronazers,,,,,,,,,,,,,0,217,217,16,,,,,,,,,,,,,,,AMP,left,0.3836656319908798,0,,,,,,,,,,,,,,left,0,0.3836656319908798,,,,,,,,,1012,2019_Mar_06_1150,mf_amp_cond2,3.0.4,59.985224807361156,
refuejing,&&&&&&&&&&,None,nonword,imebreaker,,,,,,,,,,,,,0,218,218,312,,,,,,,,,,,,,,,AMP,left,0.11695624538697302,0,,,,,,,,,,,,,,left,0,0.11695624538697302,,,,,,,,,1012,2019_Mar_06_1150,mf_amp_cond2,3.0.4,59.985224807361156,
sharing,&&&&&,left,loyalty.virtue,leact,,,,,,,,,,,,,0,219,219,139,,,,,,,,,,,,,,,AMP,left,0.1001463127322495,1,,,,,,,,,,,,,,left,1,0.1001463127322495,,,,,,,,,1012,2019_Mar_06_1150,mf_amp_cond2,3.0.4,59.985224807361156,
unpleasant,&&&&&&&,None,control,halaise,,,,,,,,,,,,,0,220,220,175,,,,,,,,,,,,,,,AMP,left,0.5003733187913895,0,,,,,,,,,,,,,,left,0,0.5003733187913895,,,,,,,,,1012,2019_Mar_06_1150,mf_amp_cond2,3.0.4,59.985224807361156,
suggists,&&&&&&&,None,nonword,troubla,,,,,,,,,,,,,0,221,221,243,,,,,,,,,,,,,,,AMP,left,0.10027588391676545,0,,,,,,,,,,,,,,left,0,0.10027588391676545,,,,,,,,,1012,2019_Mar_06_1150,mf_amp_cond2,3.0.4,59.985224807361156,
powerful,&&&&&&&&&,left,authority.virtue,unscothed,,,,,,,,,,,,,0,222,222,165,,,,,,,,,,,,,,,AMP,right,0.5503836140269414,0,,,,,,,,,,,,,,right,0,0.5503836140269414,,,,,,,,,1012,2019_Mar_06_1150,mf_amp_cond2,3.0.4,59.985224807361156,
praised,&&&&&&&,left,loyalty.virtue,halaise,,,,,,,,,,,,,0,223,223,247,,,,,,,,,,,,,,,AMP,right,0.48369424033444375,0,,,,,,,,,,,,,,right,0,0.48369424033444375,,,,,,,,,1012,2019_Mar_06_1150,mf_amp_cond2,3.0.4,59.985224807361156,
clean,&&&&&&&,left,sanctity.virtue,brudent,,,,,,,,,,,,,0,224,224,324,,,,,,,,,,,,,,,AMP,right,0.05026687169447541,0,,,,,,,,,,,,,,right,0,0.05026687169447541,,,,,,,,,1012,2019_Mar_06_1150,mf_amp_cond2,3.0.4,59.985224807361156,
powerful,&&&&&,left,authority.virtue,infet,,,,,,,,,,,,,0,225,225,255,,,,,,,,,,,,,,,AMP,right,0.7004340633284301,0,,,,,,,,,,,,,,right,0,0.7004340633284301,,,,,,,,,1012,2019_Mar_06_1150,mf_amp_cond2,3.0.4,59.985224807361156,
charges,&&&&&&&&&&,right,fairness.vice,ammessment,,,,,,,,,,,,,0,226,226,37,,,,,,,,,,,,,,,AMP,left,0.6337350681424141,0,,,,,,,,,,,,,,left,0,0.6337350681424141,,,,,,,,,1012,2019_Mar_06_1150,mf_amp_cond2,3.0.4,59.985224807361156,
pumber,&&&&&&&&&&&,None,nonword,nomparisons,,,,,,,,,,,,,0,227,227,105,,,,,,,,,,,,,,,AMP,left,0.01690518669784069,0,,,,,,,,,,,,,,left,0,0.01690518669784069,,,,,,,,,1012,2019_Mar_06_1150,mf_amp_cond2,3.0.4,59.985224807361156,
hate,&&&&&&&&,right,fairness.vice,perified,,,,,,,,,,,,,0,228,228,106,,,,,,,,,,,,,,,AMP,left,0.016907110926695168,0,,,,,,,,,,,,,,left,0,0.016907110926695168,,,,,,,,,1012,2019_Mar_06_1150,mf_amp_cond2,3.0.4,59.985224807361156,
help,&&&,left,care.virtue,oam,,,,,,,,,,,,,0,229,229,22,,,,,,,,,,,,,,,AMP,left,0.30031193292234093,1,,,,,,,,,,,,,,left,1,0.30031193292234093,,,,,,,,,1012,2019_Mar_06_1150,mf_amp_cond2,3.0.4,59.985224807361156,
promote,&&&&&&&&&&&,left,sanctity.virtue,fornicalion,,,,,,,,,,,,,0,230,230,3,,,,,,,,,,,,,,,AMP,left,0.016869907383807003,1,,,,,,,,,,,,,,left,1,0.016869907383807003,,,,,,,,,1012,2019_Mar_06_1150,mf_amp_cond2,3.0.4,59.985224807361156,
embrace,&&&&&&&&&&&,left,authority.virtue,shoirmaster,,,,,,,,,,,,,0,231,231,203,,,,,,,,,,,,,,,AMP,left,1.1838855181122199,1,,,,,,,,,,,,,,left,1,1.1838855181122199,,,,,,,,,1012,2019_Mar_06_1150,mf_amp_cond2,3.0.4,59.985224807361156,
abuse,&&&&&&&,right,sanctity.vice,chadows,,,,,,,,,,,,,0,232,232,236,,,,,,,,,,,,,,,AMP,left,0.8170930006308481,0,,,,,,,,,,,,,,left,0,0.8170930006308481,,,,,,,,,1012,2019_Mar_06_1150,mf_amp_cond2,3.0.4,59.985224807361156,
commitment,&&&&&,left,sanctity.virtue,atson,,,,,,,,,,,,,0,233,233,48,,,,,,,,,,,,,,,AMP,left,0.4835438223090023,1,,,,,,,,,,,,,,left,1,0.4835438223090023,,,,,,,,,1012,2019_Mar_06_1150,mf_amp_cond2,3.0.4,59.985224807361156,
perfect,&&&&&&&&&,left,sanctity.virtue,tenuflect,,,,,,,,,,,,,0,234,234,85,,,,,,,,,,,,,,,AMP,right,0.16696076758671552,0,,,,,,,,,,,,,,right,0,0.16696076758671552,,,,,,,,,1012,2019_Mar_06_1150,mf_amp_cond2,3.0.4,59.985224807361156,
prosecution,&&&&&&&&,right,authority.vice,lachelor,,,,,,,,,,,,,0,235,235,314,,,,,,,,,,,,,,,AMP,left,0.18363695952575654,0,,,,,,,,,,,,,,left,0,0.18363695952575654,,,,,,,,,1012,2019_Mar_06_1150,mf_amp_cond2,3.0.4,59.985224807361156,
pleasant,&&&&&&&&&&&,None,control,blunderints,,,,,,,,,,,,,0,236,236,208,,,,,,,,,,,,,,,AMP,right,0.11692770116496831,0,,,,,,,,,,,,,,right,0,0.11692770116496831,,,,,,,,,1012,2019_Mar_06_1150,mf_amp_cond2,3.0.4,59.985224807361156,
fraud,&&&&&&&,right,fairness.vice,troubla,,,,,,,,,,,,,0,237,237,293,,,,,,,,,,,,,,,AMP,left,0.13365777430590242,0,,,,,,,,,,,,,,left,0,0.13365777430590242,,,,,,,,,1012,2019_Mar_06_1150,mf_amp_cond2,3.0.4,59.985224807361156,
civilians,&&&&&&&&&&&&,right,care.vice,rorroborated,,,,,,,,,,,,,0,238,238,261,,,,,,,,,,,,,,,AMP,left,0.4670299149584025,0,,,,,,,,,,,,,,left,0,0.4670299149584025,,,,,,,,,1012,2019_Mar_06_1150,mf_amp_cond2,3.0.4,59.985224807361156,
free,&&&&&&&&&&&,left,fairness.virtue,blunderints,,,,,,,,,,,,,0,239,239,279,,,,,,,,,,,,,,,AMP,right,0.06694595015142113,0,,,,,,,,,,,,,,right,0,0.06694595015142113,,,,,,,,,1012,2019_Mar_06_1150,mf_amp_cond2,3.0.4,59.985224807361156,
rejected,&&&&&&&&,right,authority.vice,lachelor,,,,,,,,,,,,,0,240,240,157,,,,,,,,,,,,,,,AMP,left,0.16695403237827122,0,,,,,,,,,,,,,,left,0,0.16695403237827122,,,,,,,,,1012,2019_Mar_06_1150,mf_amp_cond2,3.0.4,59.985224807361156,
powerful,&&&&&&&&&,left,authority.virtue,gillipede,,,,,,,,,,,,,0,241,241,18,,,,,,,,,,,,,,,AMP,right,0.18365075066685677,0,,,,,,,,,,,,,,right,0,0.18365075066685677,,,,,,,,,1012,2019_Mar_06_1150,mf_amp_cond2,3.0.4,59.985224807361156,
racist,&&&&&&&&&&&&&,right,sanctity.vice,synchronazers,,,,,,,,,,,,,0,242,242,109,,,,,,,,,,,,,,,AMP,left,0.18363311095163226,0,,,,,,,,,,,,,,left,0,0.18363311095163226,,,,,,,,,1012,2019_Mar_06_1150,mf_amp_cond2,3.0.4,59.985224807361156,
war,&&&&&&&&&&,right,sanctity.vice,totalestic,,,,,,,,,,,,,0,243,243,8,,,,,,,,,,,,,,,AMP,left,0.433689076686278,0,,,,,,,,,,,,,,left,0,0.433689076686278,,,,,,,,,1012,2019_Mar_06_1150,mf_amp_cond2,3.0.4,59.985224807361156,
hand,&&&&&&&&,left,sanctity.virtue,proached,,,,,,,,,,,,,0,244,244,164,,,,,,,,,,,,,,,AMP,left,0.367038510274142,1,,,,,,,,,,,,,,left,1,0.367038510274142,,,,,,,,,1012,2019_Mar_06_1150,mf_amp_cond2,3.0.4,59.985224807361156,
