words,mask,corr_ans,category,nonwords,tweets,topic,LDT_prac_loop.thisRepN,LDT_prac_loop.thisTrialN,LDT_prac_loop.thisN,LDT_prac_loop.thisIndex,LDT_loop.thisRepN,LDT_loop.thisTrialN,LDT_loop.thisN,LDT_loop.thisIndex,AMP_pracloop.thisRepN,AMP_pracloop.thisTrialN,AMP_pracloop.thisN,AMP_pracloop.thisIndex,AMP_loop.thisRepN,AMP_loop.thisTrialN,AMP_loop.thisN,AMP_loop.thisIndex,tweet_loop.thisRepN,tweet_loop.thisTrialN,tweet_loop.thisN,tweet_loop.thisIndex,begin_key.keys,begin_key.rt,key_resp_AMP_instr1.keys,key_resp_AMP_instr1.rt,key_resp_LDT_instr.keys,key_resp_LDT_instr.rt,resp_LDT_prac.keys,resp_LDT_prac.rt,task,keypress,RT,corr,resp_LDT_ready.keys,resp_LDT_ready.rt,resp_LDT.keys,resp_LDT.corr,resp_LDT.rt,LDT_rating.response,LDT_rating.rt,resp_AMP_ready1.keys,resp_AMP_ready1.rt,resp_AMP_prac.keys,resp_AMP_prac.rt,resp_AMP_ready.keys,resp_AMP_ready.rt,resp_AMP.keys,resp_AMP.corr,resp_AMP.rt,AMP_nonword_rating.response,AMP_nonword_rating.rt,AMP_word_rating.response,AMP_word_rating.rt,AMP_random_rating.response,AMP_random_rating.rt,key_resp_LDT_instr_2.keys,key_resp_LDT_instr_2.rt,resp_tweets.keys,resp_tweets.rt,participant,date,expName,psychopyVersion,frameRate,
,,,,,,,,,,,,,,,,,,,,,,,,,,,right,1296.1798718280625,,,,,,,,,,,,,,,,,,,,,,,,,,,,,,,,,,,,,1014,2019_Mar_06_1244,mf_amp_cond2,3.0.4,60.070203973553134,
,,,,,,,,,,,,,,,,,,,,,,,,,,,,,right,2.0674503319896758,,,,,,,,,,,,,,,,,,,,,,,,,,,,,,,,,,,1014,2019_Mar_06_1244,mf_amp_cond2,3.0.4,60.070203973553134,
,,,,,,,,,,,,,,,,,,,,,,,,,,,,,,,right,3.40110801870469,,,,,,,,,,,,,,,,,,,,,,,,,,,,,,,,,1014,2019_Mar_06_1244,mf_amp_cond2,3.0.4,60.070203973553134,
keyboard,&&&&&&&,,,,,,0,0,0,0,,,,,,,,,,,,,,,,,,,,,,,left,1.734014261746779,LDT_prac,left,1.734014261746779,0,,,,,,,,,,,,,,,,,,,,,,,,,,,1014,2019_Mar_06_1244,mf_amp_cond2,3.0.4,60.070203973553134,
bisebell,&&&&&&&,,,,,,0,1,1,1,,,,,,,,,,,,,,,,,,,,,,,left,2.2674802870023996,LDT_prac,left,2.2674802870023996,0,,,,,,,,,,,,,,,,,,,,,,,,,,,1014,2019_Mar_06_1244,mf_amp_cond2,3.0.4,60.070203973553134,
,,,,,,,,,,,,,,,,,,,,,,,,,,,,,,,,,,,,,,,right,1.7006707509281114,,,,,,,,,,,,,,,,,,,,,,,,,1014,2019_Mar_06_1244,mf_amp_cond2,3.0.4,60.070203973553134,
further,&&&&&&&,left,neutral,,,,,,,,0,0,0,75,,,,,,,,,,,,,,,,,,,,,LDT,left,1.51729346846696,1,,,left,1,1.51729346846696,,,,,,,,,,,,,,,,,,,,,,1014,2019_Mar_06_1244,mf_amp_cond2,3.0.4,60.070203973553134,
lachelor,&&&&&&&&,right,nonword,,,,,,,,0,1,1,73,,,,,,,,,,,,,,,,,,,,,LDT,left,1.4506042018765584,0,,,left,0,1.4506042018765584,,,,,,,,,,,,,,,,,,,,,,1014,2019_Mar_06_1244,mf_amp_cond2,3.0.4,60.070203973553134,
therefore,&&&&&&&&&,left,neutral,,,,,,,,0,2,2,170,,,,,,,,,,,,,,,,,,,,,LDT,right,0.9338460126891732,0,,,right,0,0.9338460126891732,,,,,,,,,,,,,,,,,,,,,,1014,2019_Mar_06_1244,mf_amp_cond2,3.0.4,60.070203973553134,
itself,&&&&&&,left,neutral,,,,,,,,0,3,3,32,,,,,,,,,,,,,,,,,,,,,LDT,left,1.4672774004284292,1,,,left,1,1.4672774004284292,,,,,,,,,,,,,,,,,,,,,,1014,2019_Mar_06_1244,mf_amp_cond2,3.0.4,60.070203973553134,
even,&&&&,left,neutral,,,,,,,,0,4,4,7,,,,,,,,,,,,,,,,,,,,,LDT,left,0.9171426665270701,1,,,left,1,0.9171426665270701,,,,,,,,,,,,,,,,,,,,,,1014,2019_Mar_06_1244,mf_amp_cond2,3.0.4,60.070203973553134,
great,&&&&&,left,loyalty.virtue,,,,,,,,0,5,5,184,,,,,,,,,,,,,,,,,,,,,LDT,right,0.6504163889912888,0,,,right,0,0.6504163889912888,,,,,,,,,,,,,,,,,,,,,,1014,2019_Mar_06_1244,mf_amp_cond2,3.0.4,60.070203973553134,
black,&&&&&,left,loyalty.vice,,,,,,,,0,6,6,159,,,,,,,,,,,,,,,,,,,,,LDT,right,0.8504700772464275,0,,,right,0,0.8504700772464275,,,,,,,,,,,,,,,,,,,,,,1014,2019_Mar_06_1244,mf_amp_cond2,3.0.4,60.070203973553134,
viscs,&&&&&,None,nonword,,,,,,,,0,7,7,88,,,,,,,,,,,,,,,,,,,,,LDT,left,0.7171178429853171,0,,,left,0,0.7171178429853171,,,,,,,,,,,,,,,,,,,,,,1014,2019_Mar_06_1244,mf_amp_cond2,3.0.4,60.070203973553134,
protect,&&&&&&&,left,fairness.virtue,,,,,,,,0,8,8,19,,,,,,,,,,,,,,,,,,,,,LDT,left,1.5006273256149143,1,,,left,1,1.5006273256149143,,,,,,,,,,,,,,,,,,,,,,1014,2019_Mar_06_1244,mf_amp_cond2,3.0.4,60.070203973553134,
less,&&&&,left,neutral,,,,,,,,0,9,9,22,,,,,,,,,,,,,,,,,,,,,LDT,right,0.6670850975206122,0,,,right,0,0.6670850975206122,,,,,,,,,,,,,,,,,,,,,,1014,2019_Mar_06_1244,mf_amp_cond2,3.0.4,60.070203973553134,
drumbled,&&&&&&&&,right,nonword,,,,,,,,0,10,10,117,,,,,,,,,,,,,,,,,,,,,LDT,left,0.9338495405390859,0,,,left,0,0.9338495405390859,,,,,,,,,,,,,,,,,,,,,,1014,2019_Mar_06_1244,mf_amp_cond2,3.0.4,60.070203973553134,
focomotive,&&&&&&&&&&,right,nonword,,,,,,,,0,11,11,133,,,,,,,,,,,,,,,,,,,,,LDT,left,0.8004527263110504,0,,,left,0,0.8004527263110504,,,,,,,,,,,,,,,,,,,,,,1014,2019_Mar_06_1244,mf_amp_cond2,3.0.4,60.070203973553134,
riot,&&&&,left,authority.vice,,,,,,,,0,12,12,78,,,,,,,,,,,,,,,,,,,,,LDT,left,0.6670815696706995,1,,,left,1,0.6670815696706995,,,,,,,,,,,,,,,,,,,,,,1014,2019_Mar_06_1244,mf_amp_cond2,3.0.4,60.070203973553134,
interests,&&&&&&&&&,left,fairness.virtue,,,,,,,,0,13,13,148,,,,,,,,,,,,,,,,,,,,,LDT,left,0.7337679497431964,1,,,left,1,0.7337679497431964,,,,,,,,,,,,,,,,,,,,,,1014,2019_Mar_06_1244,mf_amp_cond2,3.0.4,60.070203973553134,
fifteen,&&&&&&&,left,neutral,,,,,,,,0,14,14,30,,,,,,,,,,,,,,,,,,,,,LDT,left,0.6170757646905258,1,,,left,1,0.6170757646905258,,,,,,,,,,,,,,,,,,,,,,1014,2019_Mar_06_1244,mf_amp_cond2,3.0.4,60.070203973553134,
gikely,&&&&&&,right,nonword,,,,,,,,0,15,15,85,,,,,,,,,,,,,,,,,,,,,LDT,right,0.7838096752529964,1,,,right,1,0.7838096752529964,,,,,,,,,,,,,,,,,,,,,,1014,2019_Mar_06_1244,mf_amp_cond2,3.0.4,60.070203973553134,
brudent,&&&&&&&,right,nonword,,,,,,,,0,16,16,109,,,,,,,,,,,,,,,,,,,,,LDT,right,0.5837325745960698,1,,,right,1,0.5837325745960698,,,,,,,,,,,,,,,,,,,,,,1014,2019_Mar_06_1244,mf_amp_cond2,3.0.4,60.070203973553134,
faith,&&&&&,left,sanctity.virtue,,,,,,,,0,17,17,51,,,,,,,,,,,,,,,,,,,,,LDT,right,0.9671946549788117,0,,,right,0,0.9671946549788117,,,,,,,,,,,,,,,,,,,,,,1014,2019_Mar_06_1244,mf_amp_cond2,3.0.4,60.070203973553134,
stindig,&&&&&&&,right,nonword,,,,,,,,0,18,18,147,,,,,,,,,,,,,,,,,,,,,LDT,right,1.267212166218087,1,,,right,1,1.267212166218087,,,,,,,,,,,,,,,,,,,,,,1014,2019_Mar_06_1244,mf_amp_cond2,3.0.4,60.070203973553134,
pumber,&&&&&&,None,nonword,,,,,,,,0,19,19,98,,,,,,,,,,,,,,,,,,,,,LDT,right,0.6835873532108963,0,,,right,0,0.6835873532108963,,,,,,,,,,,,,,,,,,,,,,1014,2019_Mar_06_1244,mf_amp_cond2,3.0.4,60.070203973553134,
fangsters,&&&&&&&&&,right,nonword,,,,,,,,0,20,20,44,,,,,,,,,,,,,,,,,,,,,LDT,left,0.9838498934404925,0,,,left,0,0.9838498934404925,,,,,,,,,,,,,,,,,,,,,,1014,2019_Mar_06_1244,mf_amp_cond2,3.0.4,60.070203973553134,
there,&&&&&,left,neutral,,,,,,,,0,21,21,68,,,,,,,,,,,,,,,,,,,,,LDT,right,0.6504128611413762,0,,,right,0,0.6504128611413762,,,,,,,,,,,,,,,,,,,,,,1014,2019_Mar_06_1244,mf_amp_cond2,3.0.4,60.070203973553134,
fornicalion,&&&&&&&&&&&,right,nonword,,,,,,,,0,22,22,190,,,,,,,,,,,,,,,,,,,,,LDT,left,1.5006430408684537,0,,,left,0,1.5006430408684537,,,,,,,,,,,,,,,,,,,,,,1014,2019_Mar_06_1244,mf_amp_cond2,3.0.4,60.070203973553134,
done,&&&&,left,neutral,,,,,,,,0,23,23,153,,,,,,,,,,,,,,,,,,,,,LDT,right,1.2005469534778967,0,,,right,0,1.2005469534778967,,,,,,,,,,,,,,,,,,,,,,1014,2019_Mar_06_1244,mf_amp_cond2,3.0.4,60.070203973553134,
each,&&&&,left,neutral,,,,,,,,0,24,24,165,,,,,,,,,,,,,,,,,,,,,LDT,right,1.2005617065588012,0,,,right,0,1.2005617065588012,,,,,,,,,,,,,,,,,,,,,,1014,2019_Mar_06_1244,mf_amp_cond2,3.0.4,60.070203973553134,
noone,&&&&&,left,neutral,,,,,,,,0,25,25,151,,,,,,,,,,,,,,,,,,,,,LDT,left,4.0512453825213015,1,,,left,1,4.0512453825213015,,,,,,,,,,,,,,,,,,,,,,1014,2019_Mar_06_1244,mf_amp_cond2,3.0.4,60.070203973553134,
neputized,&&&&&&&&&,right,nonword,,,,,,,,0,26,26,135,,,,,,,,,,,,,,,,,,,,,LDT,left,0.9504791215294972,0,,,left,0,0.9504791215294972,,,,,,,,,,,,,,,,,,,,,,1014,2019_Mar_06_1244,mf_amp_cond2,3.0.4,60.070203973553134,
amoungst,&&&&&&&&,left,neutral,,,,,,,,0,27,27,119,,,,,,,,,,,,,,,,,,,,,LDT,left,0.9504887430230156,1,,,left,1,0.9504887430230156,,,,,,,,,,,,,,,,,,,,,,1014,2019_Mar_06_1244,mf_amp_cond2,3.0.4,60.070203973553134,
leact,&&&&&,right,nonword,,,,,,,,0,28,28,53,,,,,,,,,,,,,,,,,,,,,LDT,left,0.7837814521044493,0,,,left,0,0.7837814521044493,,,,,,,,,,,,,,,,,,,,,,1014,2019_Mar_06_1244,mf_amp_cond2,3.0.4,60.070203973553134,
saned,&&&&&,None,nonword,,,,,,,,0,29,29,196,,,,,,,,,,,,,,,,,,,,,LDT,left,0.9671532823704183,0,,,left,0,0.9671532823704183,,,,,,,,,,,,,,,,,,,,,,1014,2019_Mar_06_1244,mf_amp_cond2,3.0.4,60.070203973553134,
menizen,&&&&&&&,None,nonword,,,,,,,,0,30,30,141,,,,,,,,,,,,,,,,,,,,,LDT,left,1.100512251839973,0,,,left,0,1.100512251839973,,,,,,,,,,,,,,,,,,,,,,1014,2019_Mar_06_1244,mf_amp_cond2,3.0.4,60.070203973553134,
nackers,&&&&&&&,right,nonword,,,,,,,,0,31,31,60,,,,,,,,,,,,,,,,,,,,,LDT,left,0.6670838146237656,0,,,left,0,0.6670838146237656,,,,,,,,,,,,,,,,,,,,,,1014,2019_Mar_06_1244,mf_amp_cond2,3.0.4,60.070203973553134,
amount,&&&&&&,left,neutral,,,,,,,,0,32,32,94,,,,,,,,,,,,,,,,,,,,,LDT,right,0.5504054203629494,0,,,right,0,0.5504054203629494,,,,,,,,,,,,,,,,,,,,,,1014,2019_Mar_06_1244,mf_amp_cond2,3.0.4,60.070203973553134,
front,&&&&&,left,neutral,,,,,,,,0,33,33,2,,,,,,,,,,,,,,,,,,,,,LDT,right,0.8171281701652333,0,,,right,0,0.8171281701652333,,,,,,,,,,,,,,,,,,,,,,1014,2019_Mar_06_1244,mf_amp_cond2,3.0.4,60.070203973553134,
tenuflect,&&&&&&&&&,right,nonword,,,,,,,,0,34,34,121,,,,,,,,,,,,,,,,,,,,,LDT,left,0.8004536884836853,0,,,left,0,0.8004536884836853,,,,,,,,,,,,,,,,,,,,,,1014,2019_Mar_06_1244,mf_amp_cond2,3.0.4,60.070203973553134,
killed,&&&&&&,left,care.vice,,,,,,,,0,35,35,4,,,,,,,,,,,,,,,,,,,,,LDT,left,1.083842901745811,1,,,left,1,1.083842901745811,,,,,,,,,,,,,,,,,,,,,,1014,2019_Mar_06_1244,mf_amp_cond2,3.0.4,60.070203973553134,
shoirmaster,&&&&&&&&&&&,None,nonword,,,,,,,,0,36,36,186,,,,,,,,,,,,,,,,,,,,,LDT,left,1.0171693502925336,0,,,left,0,1.0171693502925336,,,,,,,,,,,,,,,,,,,,,,1014,2019_Mar_06_1244,mf_amp_cond2,3.0.4,60.070203973553134,
galamitous,&&&&&&&&&&,right,nonword,,,,,,,,0,37,37,131,,,,,,,,,,,,,,,,,,,,,LDT,left,0.7838058267952874,0,,,left,0,0.7838058267952874,,,,,,,,,,,,,,,,,,,,,,1014,2019_Mar_06_1244,mf_amp_cond2,3.0.4,60.070203973553134,
improve,&&&&&&&,left,care.virtue,,,,,,,,0,38,38,25,,,,,,,,,,,,,,,,,,,,,LDT,right,0.5670452642953023,0,,,right,0,0.5670452642953023,,,,,,,,,,,,,,,,,,,,,,1014,2019_Mar_06_1244,mf_amp_cond2,3.0.4,60.070203973553134,
everything,&&&&&&&&&&,left,neutral,,,,,,,,0,39,39,194,,,,,,,,,,,,,,,,,,,,,LDT,right,0.6004006416769698,0,,,right,0,0.6004006416769698,,,,,,,,,,,,,,,,,,,,,,1014,2019_Mar_06_1244,mf_amp_cond2,3.0.4,60.070203973553134,
crilfully,&&&&&&&&&,right,nonword,,,,,,,,0,40,40,191,,,,,,,,,,,,,,,,,,,,,LDT,left,1.3672590552596375,0,,,left,0,1.3672590552596375,,,,,,,,,,,,,,,,,,,,,,1014,2019_Mar_06_1244,mf_amp_cond2,3.0.4,60.070203973553134,
good,&&&&,left,care.virtue,,,,,,,,0,41,41,57,,,,,,,,,,,,,,,,,,,,,LDT,left,0.8671272399369627,1,,,left,1,0.8671272399369627,,,,,,,,,,,,,,,,,,,,,,1014,2019_Mar_06_1244,mf_amp_cond2,3.0.4,60.070203973553134,
photocalkodes,&&&&&&&&&&&&&,right,nonword,,,,,,,,0,42,42,118,,,,,,,,,,,,,,,,,,,,,LDT,left,1.1671992733608931,0,,,left,0,1.1671992733608931,,,,,,,,,,,,,,,,,,,,,,1014,2019_Mar_06_1244,mf_amp_cond2,3.0.4,60.070203973553134,
strong,&&&&&&,left,loyalty.virtue,,,,,,,,0,43,43,129,,,,,,,,,,,,,,,,,,,,,LDT,right,1.6339757113019004,0,,,right,0,1.6339757113019004,,,,,,,,,,,,,,,,,,,,,,1014,2019_Mar_06_1244,mf_amp_cond2,3.0.4,60.070203973553134,
Phintoism,&&&&&&&&&,right,nonword,,,,,,,,0,44,44,183,,,,,,,,,,,,,,,,,,,,,LDT,right,0.8838001178810373,1,,,right,1,0.8838001178810373,,,,,,,,,,,,,,,,,,,,,,1014,2019_Mar_06_1244,mf_amp_cond2,3.0.4,60.070203973553134,
reelectiob,&&&&&&&&&&,right,nonword,,,,,,,,0,45,45,18,,,,,,,,,,,,,,,,,,,,,LDT,right,0.5337129787076265,1,,,right,1,0.5337129787076265,,,,,,,,,,,,,,,,,,,,,,1014,2019_Mar_06_1244,mf_amp_cond2,3.0.4,60.070203973553134,
slavery,&&&&&&&,left,loyalty.vice,,,,,,,,0,46,46,0,,,,,,,,,,,,,,,,,,,,,LDT,right,0.7170995620545,0,,,right,0,0.7170995620545,,,,,,,,,,,,,,,,,,,,,,1014,2019_Mar_06_1244,mf_amp_cond2,3.0.4,60.070203973553134,
halaise,&&&&&&&,None,nonword,,,,,,,,0,47,47,161,,,,,,,,,,,,,,,,,,,,,LDT,right,0.8004427840933204,0,,,right,0,0.8004427840933204,,,,,,,,,,,,,,,,,,,,,,1014,2019_Mar_06_1244,mf_amp_cond2,3.0.4,60.070203973553134,
scalbel,&&&&&&&,right,nonword,,,,,,,,0,48,48,28,,,,,,,,,,,,,,,,,,,,,LDT,right,0.8004549714969471,1,,,right,1,0.8004549714969471,,,,,,,,,,,,,,,,,,,,,,1014,2019_Mar_06_1244,mf_amp_cond2,3.0.4,60.070203973553134,
myself,&&&&&&,left,neutral,,,,,,,,0,49,49,136,,,,,,,,,,,,,,,,,,,,,LDT,right,0.7671207614475861,0,,,right,0,0.7671207614475861,,,,,,,,,,,,,,,,,,,,,,1014,2019_Mar_06_1244,mf_amp_cond2,3.0.4,60.070203973553134,
ejanulated,&&&&&&&&&&,right,nonword,,,,,,,,0,50,50,12,,,,,,,,,,,,,,,,,,,,,LDT,left,0.9838258394738659,0,,,left,0,0.9838258394738659,,,,,,,,,,,,,,,,,,,,,,1014,2019_Mar_06_1244,mf_amp_cond2,3.0.4,60.070203973553134,
with,&&&&,left,neutral,,,,,,,,0,51,51,39,,,,,,,,,,,,,,,,,,,,,LDT,left,0.9504935538861901,1,,,left,1,0.9504935538861901,,,,,,,,,,,,,,,,,,,,,,1014,2019_Mar_06_1244,mf_amp_cond2,3.0.4,60.070203973553134,
synchronazers,&&&&&&&&&&&&&,right,nonword,,,,,,,,0,52,52,162,,,,,,,,,,,,,,,,,,,,,LDT,left,1.250583547516726,0,,,left,0,1.250583547516726,,,,,,,,,,,,,,,,,,,,,,1014,2019_Mar_06_1244,mf_amp_cond2,3.0.4,60.070203973553134,
terrorist,&&&&&&&&&,left,loyalty.vice,,,,,,,,0,53,53,189,,,,,,,,,,,,,,,,,,,,,LDT,right,0.9004717129282653,0,,,right,0,0.9004717129282653,,,,,,,,,,,,,,,,,,,,,,1014,2019_Mar_06_1244,mf_amp_cond2,3.0.4,60.070203973553134,
suicide,&&&&&&&,left,care.vice,,,,,,,,0,54,54,74,,,,,,,,,,,,,,,,,,,,,LDT,right,0.683752523153089,0,,,right,0,0.683752523153089,,,,,,,,,,,,,,,,,,,,,,1014,2019_Mar_06_1244,mf_amp_cond2,3.0.4,60.070203973553134,
besides,&&&&&&&,left,neutral,,,,,,,,0,55,55,61,,,,,,,,,,,,,,,,,,,,,LDT,right,0.7337679498596117,0,,,right,0,0.7337679498596117,,,,,,,,,,,,,,,,,,,,,,1014,2019_Mar_06_1244,mf_amp_cond2,3.0.4,60.070203973553134,
letish,&&&&&&,right,nonword,,,,,,,,0,56,56,185,,,,,,,,,,,,,,,,,,,,,LDT,left,0.9004784480202943,0,,,left,0,0.9004784480202943,,,,,,,,,,,,,,,,,,,,,,1014,2019_Mar_06_1244,mf_amp_cond2,3.0.4,60.070203973553134,
wherever,&&&&&&&&,left,neutral,,,,,,,,0,57,57,8,,,,,,,,,,,,,,,,,,,,,LDT,left,0.7504472420550883,1,,,left,1,0.7504472420550883,,,,,,,,,,,,,,,,,,,,,,1014,2019_Mar_06_1244,mf_amp_cond2,3.0.4,60.070203973553134,
promises,&&&&&&&&,left,fairness.virtue,,,,,,,,0,58,58,17,,,,,,,,,,,,,,,,,,,,,LDT,right,0.8671307679032907,0,,,right,0,0.8671307679032907,,,,,,,,,,,,,,,,,,,,,,1014,2019_Mar_06_1244,mf_amp_cond2,3.0.4,60.070203973553134,
tomedians,&&&&&&&&&,right,nonword,,,,,,,,0,59,59,66,,,,,,,,,,,,,,,,,,,,,LDT,left,1.1338605734054,0,,,left,0,1.1338605734054,,,,,,,,,,,,,,,,,,,,,,1014,2019_Mar_06_1244,mf_amp_cond2,3.0.4,60.070203973553134,
forty,&&&&&,left,neutral,,,,,,,,0,60,60,96,,,,,,,,,,,,,,,,,,,,,LDT,right,0.6837499574758112,0,,,right,0,0.6837499574758112,,,,,,,,,,,,,,,,,,,,,,1014,2019_Mar_06_1244,mf_amp_cond2,3.0.4,60.070203973553134,
could,&&&&&,left,neutral,,,,,,,,0,61,61,100,,,,,,,,,,,,,,,,,,,,,LDT,right,0.6337326066568494,0,,,right,0,0.6337326066568494,,,,,,,,,,,,,,,,,,,,,,1014,2019_Mar_06_1244,mf_amp_cond2,3.0.4,60.070203973553134,
bruthfulness,&&&&&&&&&&&&,right,nonword,,,,,,,,0,62,62,130,,,,,,,,,,,,,,,,,,,,,LDT,right,0.7837801692076027,1,,,right,1,0.7837801692076027,,,,,,,,,,,,,,,,,,,,,,1014,2019_Mar_06_1244,mf_amp_cond2,3.0.4,60.070203973553134,
officers,&&&&&&&&,left,authority.vice,,,,,,,,0,63,63,6,,,,,,,,,,,,,,,,,,,,,LDT,right,1.2672323716105893,0,,,right,0,1.2672323716105893,,,,,,,,,,,,,,,,,,,,,,1014,2019_Mar_06_1244,mf_amp_cond2,3.0.4,60.070203973553134,
forced,&&&&&&,left,fairness.vice,,,,,,,,0,64,64,143,,,,,,,,,,,,,,,,,,,,,LDT,right,0.9172196390572935,0,,,right,0,0.9172196390572935,,,,,,,,,,,,,,,,,,,,,,1014,2019_Mar_06_1244,mf_amp_cond2,3.0.4,60.070203973553134,
fair,&&&&,left,fairness.virtue,,,,,,,,0,65,65,123,,,,,,,,,,,,,,,,,,,,,LDT,right,1.017071851878427,0,,,right,0,1.017071851878427,,,,,,,,,,,,,,,,,,,,,,1014,2019_Mar_06_1244,mf_amp_cond2,3.0.4,60.070203973553134,
threatened,&&&&&&&&&&,left,fairness.vice,,,,,,,,0,66,66,126,,,,,,,,,,,,,,,,,,,,,LDT,right,0.9338116958970204,0,,,right,0,0.9338116958970204,,,,,,,,,,,,,,,,,,,,,,1014,2019_Mar_06_1244,mf_amp_cond2,3.0.4,60.070203973553134,
dumid,&&&&&,right,nonword,,,,,,,,0,67,67,152,,,,,,,,,,,,,,,,,,,,,LDT,right,1.0004926237743348,1,,,right,1,1.0004926237743348,,,,,,,,,,,,,,,,,,,,,,1014,2019_Mar_06_1244,mf_amp_cond2,3.0.4,60.070203973553134,
useful,&&&&&&,left,authority.virtue,,,,,,,,0,68,68,195,,,,,,,,,,,,,,,,,,,,,LDT,right,0.7837984501384199,0,,,right,0,0.7837984501384199,,,,,,,,,,,,,,,,,,,,,,1014,2019_Mar_06_1244,mf_amp_cond2,3.0.4,60.070203973553134,
scandal,&&&&&&&,left,sanctity.vice,,,,,,,,0,69,69,145,,,,,,,,,,,,,,,,,,,,,LDT,right,0.7671031219651923,0,,,right,0,0.7671031219651923,,,,,,,,,,,,,,,,,,,,,,1014,2019_Mar_06_1244,mf_amp_cond2,3.0.4,60.070203973553134,
fighters,&&&&&&&&,left,authority.vice,,,,,,,,0,70,70,187,,,,,,,,,,,,,,,,,,,,,LDT,right,0.6837544476147741,0,,,right,0,0.6837544476147741,,,,,,,,,,,,,,,,,,,,,,1014,2019_Mar_06_1244,mf_amp_cond2,3.0.4,60.070203973553134,
rejected,&&&&&&&&,left,authority.vice,,,,,,,,0,71,71,150,,,,,,,,,,,,,,,,,,,,,LDT,right,1.1005292498739436,0,,,right,0,1.1005292498739436,,,,,,,,,,,,,,,,,,,,,,1014,2019_Mar_06_1244,mf_amp_cond2,3.0.4,60.070203973553134,
gandbrake,&&&&&&&&&,right,nonword,,,,,,,,0,72,72,3,,,,,,,,,,,,,,,,,,,,,LDT,left,1.333903036545962,0,,,left,0,1.333903036545962,,,,,,,,,,,,,,,,,,,,,,1014,2019_Mar_06_1244,mf_amp_cond2,3.0.4,60.070203973553134,
gillipede,&&&&&&&&&,None,nonword,,,,,,,,0,73,73,49,,,,,,,,,,,,,,,,,,,,,LDT,right,0.8004556129453704,0,,,right,0,0.8004556129453704,,,,,,,,,,,,,,,,,,,,,,1014,2019_Mar_06_1244,mf_amp_cond2,3.0.4,60.070203973553134,
crinking,&&&&&&&&,right,nonword,,,,,,,,0,74,74,138,,,,,,,,,,,,,,,,,,,,,LDT,right,1.1505469215335324,1,,,right,1,1.1505469215335324,,,,,,,,,,,,,,,,,,,,,,1014,2019_Mar_06_1244,mf_amp_cond2,3.0.4,60.070203973553134,
help,&&&&,left,care.virtue,,,,,,,,0,75,75,56,,,,,,,,,,,,,,,,,,,,,LDT,right,0.7504610330797732,0,,,right,0,0.7504610330797732,,,,,,,,,,,,,,,,,,,,,,1014,2019_Mar_06_1244,mf_amp_cond2,3.0.4,60.070203973553134,
promised,&&&&&&&&,left,loyalty.virtue,,,,,,,,0,76,76,81,,,,,,,,,,,,,,,,,,,,,LDT,right,0.6004067353205755,0,,,right,0,0.6004067353205755,,,,,,,,,,,,,,,,,,,,,,1014,2019_Mar_06_1244,mf_amp_cond2,3.0.4,60.070203973553134,
hereby,&&&&&&,left,neutral,,,,,,,,0,77,77,114,,,,,,,,,,,,,,,,,,,,,LDT,right,0.6337338895536959,0,,,right,0,0.6337338895536959,,,,,,,,,,,,,,,,,,,,,,1014,2019_Mar_06_1244,mf_amp_cond2,3.0.4,60.070203973553134,
whither,&&&&&&&,left,neutral,,,,,,,,0,78,78,140,,,,,,,,,,,,,,,,,,,,,LDT,right,0.8171268872683868,0,,,right,0,0.8171268872683868,,,,,,,,,,,,,,,,,,,,,,1014,2019_Mar_06_1244,mf_amp_cond2,3.0.4,60.070203973553134,
thru,&&&&,left,neutral,,,,,,,,0,79,79,198,,,,,,,,,,,,,,,,,,,,,LDT,right,0.7671092154923826,0,,,right,0,0.7671092154923826,,,,,,,,,,,,,,,,,,,,,,1014,2019_Mar_06_1244,mf_amp_cond2,3.0.4,60.070203973553134,
chadows,&&&&&&&,right,nonword,,,,,,,,0,80,80,76,,,,,,,,,,,,,,,,,,,,,LDT,right,0.7837686233688146,1,,,right,1,0.7837686233688146,,,,,,,,,,,,,,,,,,,,,,1014,2019_Mar_06_1244,mf_amp_cond2,3.0.4,60.070203973553134,
been,&&&&,left,neutral,,,,,,,,0,81,81,14,,,,,,,,,,,,,,,,,,,,,LDT,right,0.6504211998544633,0,,,right,0,0.6504211998544633,,,,,,,,,,,,,,,,,,,,,,1014,2019_Mar_06_1244,mf_amp_cond2,3.0.4,60.070203973553134,
emassion,&&&&&&&&,right,nonword,,,,,,,,0,82,82,101,,,,,,,,,,,,,,,,,,,,,LDT,right,0.6337326065404341,1,,,right,1,0.6337326065404341,,,,,,,,,,,,,,,,,,,,,,1014,2019_Mar_06_1244,mf_amp_cond2,3.0.4,60.070203973553134,
serial,&&&&&&,left,sanctity.vice,,,,,,,,0,83,83,97,,,,,,,,,,,,,,,,,,,,,LDT,right,1.18392218335066,0,,,right,0,1.18392218335066,,,,,,,,,,,,,,,,,,,,,,1014,2019_Mar_06_1244,mf_amp_cond2,3.0.4,60.070203973553134,
divility,&&&&&&&&,right,nonword,,,,,,,,0,84,84,58,,,,,,,,,,,,,,,,,,,,,LDT,left,1.450600994634442,0,,,left,0,1.450600994634442,,,,,,,,,,,,,,,,,,,,,,1014,2019_Mar_06_1244,mf_amp_cond2,3.0.4,60.070203973553134,
baladroit,&&&&&&&&&,right,nonword,,,,,,,,0,85,85,106,,,,,,,,,,,,,,,,,,,,,LDT,left,0.7837776034139097,0,,,left,0,0.7837776034139097,,,,,,,,,,,,,,,,,,,,,,1014,2019_Mar_06_1244,mf_amp_cond2,3.0.4,60.070203973553134,
supervuned,&&&&&&&&&&,right,nonword,,,,,,,,0,86,86,87,,,,,,,,,,,,,,,,,,,,,LDT,left,0.7671188371023163,0,,,left,0,0.7671188371023163,,,,,,,,,,,,,,,,,,,,,,1014,2019_Mar_06_1244,mf_amp_cond2,3.0.4,60.070203973553134,
pharing,&&&&&&&,right,nonword,,,,,,,,0,87,87,13,,,,,,,,,,,,,,,,,,,,,LDT,left,1.2172243214445189,0,,,left,0,1.2172243214445189,,,,,,,,,,,,,,,,,,,,,,1014,2019_Mar_06_1244,mf_amp_cond2,3.0.4,60.070203973553134,
fifty,&&&&&,left,neutral,,,,,,,,0,88,88,193,,,,,,,,,,,,,,,,,,,,,LDT,left,1.1838856214890257,1,,,left,1,1.1838856214890257,,,,,,,,,,,,,,,,,,,,,,1014,2019_Mar_06_1244,mf_amp_cond2,3.0.4,60.070203973553134,
also,&&&&,left,neutral,,,,,,,,0,89,89,67,,,,,,,,,,,,,,,,,,,,,LDT,left,0.6670793247176334,1,,,left,1,0.6670793247176334,,,,,,,,,,,,,,,,,,,,,,1014,2019_Mar_06_1244,mf_amp_cond2,3.0.4,60.070203973553134,
Cunday,&&&&&&,None,nonword,,,,,,,,0,90,90,29,,,,,,,,,,,,,,,,,,,,,LDT,left,1.1005202697124332,0,,,left,0,1.1005202697124332,,,,,,,,,,,,,,,,,,,,,,1014,2019_Mar_06_1244,mf_amp_cond2,3.0.4,60.070203973553134,
although,&&&&&&&&,left,neutral,,,,,,,,0,91,91,82,,,,,,,,,,,,,,,,,,,,,LDT,right,1.2005594616057351,0,,,right,0,1.2005594616057351,,,,,,,,,,,,,,,,,,,,,,1014,2019_Mar_06_1244,mf_amp_cond2,3.0.4,60.070203973553134,
prison,&&&&&&,left,fairness.vice,,,,,,,,0,92,92,23,,,,,,,,,,,,,,,,,,,,,LDT,right,0.9838242359692231,0,,,right,0,0.9838242359692231,,,,,,,,,,,,,,,,,,,,,,1014,2019_Mar_06_1244,mf_amp_cond2,3.0.4,60.070203973553134,
celebrated,&&&&&&&&&&,left,authority.virtue,,,,,,,,0,93,93,37,,,,,,,,,,,,,,,,,,,,,LDT,left,1.1671902931993827,1,,,left,1,1.1671902931993827,,,,,,,,,,,,,,,,,,,,,,1014,2019_Mar_06_1244,mf_amp_cond2,3.0.4,60.070203973553134,
men,&&&,left,loyalty.vice,,,,,,,,0,94,94,11,,,,,,,,,,,,,,,,,,,,,LDT,right,1.0338435111334547,0,,,right,0,1.0338435111334547,,,,,,,,,,,,,,,,,,,,,,1014,2019_Mar_06_1244,mf_amp_cond2,3.0.4,60.070203973553134,
Loorish,&&&&&&&,right,nonword,,,,,,,,0,95,95,71,,,,,,,,,,,,,,,,,,,,,LDT,right,1.7505335153546184,1,,,right,1,1.7505335153546184,,,,,,,,,,,,,,,,,,,,,,1014,2019_Mar_06_1244,mf_amp_cond2,3.0.4,60.070203973553134,
friends,&&&&&&&,left,loyalty.virtue,,,,,,,,0,96,96,182,,,,,,,,,,,,,,,,,,,,,LDT,right,1.083857334102504,0,,,right,0,1.083857334102504,,,,,,,,,,,,,,,,,,,,,,1014,2019_Mar_06_1244,mf_amp_cond2,3.0.4,60.070203973553134,
hence,&&&&&,left,neutral,,,,,,,,0,97,97,31,,,,,,,,,,,,,,,,,,,,,LDT,right,0.9171442701481283,0,,,right,0,0.9171442701481283,,,,,,,,,,,,,,,,,,,,,,1014,2019_Mar_06_1244,mf_amp_cond2,3.0.4,60.070203973553134,
framatic,&&&&&&&&,right,nonword,,,,,,,,0,98,98,80,,,,,,,,,,,,,,,,,,,,,LDT,left,0.7669613643083721,0,,,left,0,0.7669613643083721,,,,,,,,,,,,,,,,,,,,,,1014,2019_Mar_06_1244,mf_amp_cond2,3.0.4,60.070203973553134,
pescinded,&&&&&&&&&,right,nonword,,,,,,,,0,99,99,52,,,,,,,,,,,,,,,,,,,,,LDT,right,0.8171336223604158,1,,,right,1,0.8171336223604158,,,,,,,,,,,,,,,,,,,,,,1014,2019_Mar_06_1244,mf_amp_cond2,3.0.4,60.070203973553134,
tislay,&&&&&&,right,nonword,,,,,,,,0,100,100,69,,,,,,,,,,,,,,,,,,,,,LDT,left,1.0005012832116336,0,,,left,0,1.0005012832116336,,,,,,,,,,,,,,,,,,,,,,1014,2019_Mar_06_1244,mf_amp_cond2,3.0.4,60.070203973553134,
health,&&&&&&,left,care.virtue,,,,,,,,0,101,101,55,,,,,,,,,,,,,,,,,,,,,LDT,right,0.7006011550547555,0,,,right,0,0.7006011550547555,,,,,,,,,,,,,,,,,,,,,,1014,2019_Mar_06_1244,mf_amp_cond2,3.0.4,60.070203973553134,
nonobservalt,&&&&&&&&&&&&,right,nonword,,,,,,,,0,102,102,93,,,,,,,,,,,,,,,,,,,,,LDT,left,0.7837689440930262,0,,,left,0,0.7837689440930262,,,,,,,,,,,,,,,,,,,,,,1014,2019_Mar_06_1244,mf_amp_cond2,3.0.4,60.070203973553134,
fegard,&&&&&&,right,nonword,,,,,,,,0,103,103,45,,,,,,,,,,,,,,,,,,,,,LDT,left,0.8170819865772501,0,,,left,0,0.8170819865772501,,,,,,,,,,,,,,,,,,,,,,1014,2019_Mar_06_1244,mf_amp_cond2,3.0.4,60.070203973553134,
sfumatoy,&&&&&&&&,None,nonword,,,,,,,,0,104,104,111,,,,,,,,,,,,,,,,,,,,,LDT,left,0.8338026516139507,0,,,left,0,0.8338026516139507,,,,,,,,,,,,,,,,,,,,,,1014,2019_Mar_06_1244,mf_amp_cond2,3.0.4,60.070203973553134,
suggists,&&&&&&&&,right,nonword,,,,,,,,0,105,105,24,,,,,,,,,,,,,,,,,,,,,LDT,left,1.2339093866758049,0,,,left,0,1.2339093866758049,,,,,,,,,,,,,,,,,,,,,,1014,2019_Mar_06_1244,mf_amp_cond2,3.0.4,60.070203973553134,
victims,&&&&&&&,left,care.vice,,,,,,,,0,106,106,176,,,,,,,,,,,,,,,,,,,,,LDT,left,0.7671011976199225,1,,,left,1,0.7671011976199225,,,,,,,,,,,,,,,,,,,,,,1014,2019_Mar_06_1244,mf_amp_cond2,3.0.4,60.070203973553134,
hasks,&&&&&,right,nonword,,,,,,,,0,107,107,20,,,,,,,,,,,,,,,,,,,,,LDT,left,0.8671352580422536,0,,,left,0,0.8671352580422536,,,,,,,,,,,,,,,,,,,,,,1014,2019_Mar_06_1244,mf_amp_cond2,3.0.4,60.070203973553134,
neutralust,&&&&&&&&&&,right,nonword,,,,,,,,0,108,108,64,,,,,,,,,,,,,,,,,,,,,LDT,left,0.8671336543047801,0,,,left,0,0.8671336543047801,,,,,,,,,,,,,,,,,,,,,,1014,2019_Mar_06_1244,mf_amp_cond2,3.0.4,60.070203973553134,
were,&&&&,left,neutral,,,,,,,,0,109,109,90,,,,,,,,,,,,,,,,,,,,,LDT,left,0.7170876953750849,1,,,left,1,0.7170876953750849,,,,,,,,,,,,,,,,,,,,,,1014,2019_Mar_06_1244,mf_amp_cond2,3.0.4,60.070203973553134,
elduringly,&&&&&&&&&&,right,nonword,,,,,,,,0,110,110,15,,,,,,,,,,,,,,,,,,,,,LDT,left,0.7337647426174954,0,,,left,0,0.7337647426174954,,,,,,,,,,,,,,,,,,,,,,1014,2019_Mar_06_1244,mf_amp_cond2,3.0.4,60.070203973553134,
ecgagement,&&&&&&&&&&,None,nonword,,,,,,,,0,111,111,173,,,,,,,,,,,,,,,,,,,,,LDT,right,0.7671031219651923,0,,,right,0,0.7671031219651923,,,,,,,,,,,,,,,,,,,,,,1014,2019_Mar_06_1244,mf_amp_cond2,3.0.4,60.070203973553134,
epigrach,&&&&&&&&,right,nonword,,,,,,,,0,112,112,42,,,,,,,,,,,,,,,,,,,,,LDT,left,1.4506048432085663,0,,,left,0,1.4506048432085663,,,,,,,,,,,,,,,,,,,,,,1014,2019_Mar_06_1244,mf_amp_cond2,3.0.4,60.070203973553134,
faspberry,&&&&&&&&&,None,nonword,,,,,,,,0,113,113,27,,,,,,,,,,,,,,,,,,,,,LDT,left,0.933818430872634,0,,,left,0,0.933818430872634,,,,,,,,,,,,,,,,,,,,,,1014,2019_Mar_06_1244,mf_amp_cond2,3.0.4,60.070203973553134,
chared,&&&&&&,right,nonword,,,,,,,,0,114,114,41,,,,,,,,,,,,,,,,,,,,,LDT,left,0.7504408276872709,0,,,left,0,0.7504408276872709,,,,,,,,,,,,,,,,,,,,,,1014,2019_Mar_06_1244,mf_amp_cond2,3.0.4,60.070203973553134,
greaks,&&&&&&,right,nonword,,,,,,,,0,115,115,144,,,,,,,,,,,,,,,,,,,,,LDT,left,0.9504788008052856,0,,,left,0,0.9504788008052856,,,,,,,,,,,,,,,,,,,,,,1014,2019_Mar_06_1244,mf_amp_cond2,3.0.4,60.070203973553134,
frojecting,&&&&&&&&&&,right,nonword,,,,,,,,0,116,116,47,,,,,,,,,,,,,,,,,,,,,LDT,left,0.8337895021541044,0,,,left,0,0.8337895021541044,,,,,,,,,,,,,,,,,,,,,,1014,2019_Mar_06_1244,mf_amp_cond2,3.0.4,60.070203973553134,
least,&&&&&,left,neutral,,,,,,,,0,117,117,86,,,,,,,,,,,,,,,,,,,,,LDT,left,0.8171204727841541,1,,,left,1,0.8171204727841541,,,,,,,,,,,,,,,,,,,,,,1014,2019_Mar_06_1244,mf_amp_cond2,3.0.4,60.070203973553134,
latterly,&&&&&&&&,left,neutral,,,,,,,,0,118,118,146,,,,,,,,,,,,,,,,,,,,,LDT,left,0.6504301798995584,1,,,left,1,0.6504301798995584,,,,,,,,,,,,,,,,,,,,,,1014,2019_Mar_06_1244,mf_amp_cond2,3.0.4,60.070203973553134,
squets,&&&&&&,right,nonword,,,,,,,,0,119,119,65,,,,,,,,,,,,,,,,,,,,,LDT,left,0.5170503637054935,0,,,left,0,0.5170503637054935,,,,,,,,,,,,,,,,,,,,,,1014,2019_Mar_06_1244,mf_amp_cond2,3.0.4,60.070203973553134,
pulge,&&&&&,right,nonword,,,,,,,,0,120,120,154,,,,,,,,,,,,,,,,,,,,,LDT,left,0.5337123371427879,0,,,left,0,0.5337123371427879,,,,,,,,,,,,,,,,,,,,,,1014,2019_Mar_06_1244,mf_amp_cond2,3.0.4,60.070203973553134,
dormandi,&&&&&&&&,None,nonword,,,,,,,,0,121,121,167,,,,,,,,,,,,,,,,,,,,,LDT,left,0.4170217555947602,0,,,left,0,0.4170217555947602,,,,,,,,,,,,,,,,,,,,,,1014,2019_Mar_06_1244,mf_amp_cond2,3.0.4,60.070203973553134,
perified,&&&&&&&&,right,nonword,,,,,,,,0,122,122,122,,,,,,,,,,,,,,,,,,,,,LDT,left,0.567054565064609,0,,,left,0,0.567054565064609,,,,,,,,,,,,,,,,,,,,,,1014,2019_Mar_06_1244,mf_amp_cond2,3.0.4,60.070203973553134,
sowntrodden,&&&&&&&&&&&,right,nonword,,,,,,,,0,123,123,103,,,,,,,,,,,,,,,,,,,,,LDT,left,0.5003819759003818,0,,,left,0,0.5003819759003818,,,,,,,,,,,,,,,,,,,,,,1014,2019_Mar_06_1244,mf_amp_cond2,3.0.4,60.070203973553134,
chreams,&&&&&&&,right,nonword,,,,,,,,0,124,124,84,,,,,,,,,,,,,,,,,,,,,LDT,left,0.4670298056444153,0,,,left,0,0.4670298056444153,,,,,,,,,,,,,,,,,,,,,,1014,2019_Mar_06_1244,mf_amp_cond2,3.0.4,60.070203973553134,
shoirmaster,&&&&&&&&&&&,right,nonword,,,,,,,,0,125,125,108,,,,,,,,,,,,,,,,,,,,,LDT,left,0.43368469132110476,0,,,left,0,0.43368469132110476,,,,,,,,,,,,,,,,,,,,,,1014,2019_Mar_06_1244,mf_amp_cond2,3.0.4,60.070203973553134,
gournful,&&&&&&&&,right,nonword,,,,,,,,0,126,126,48,,,,,,,,,,,,,,,,,,,,,LDT,left,4.301298140664585,0,,,left,0,4.301298140664585,,,,,,,,,,,,,,,,,,,,,,1014,2019_Mar_06_1244,mf_amp_cond2,3.0.4,60.070203973553134,
fontacts,&&&&&&&&,right,nonword,,,,,,,,0,127,127,166,,,,,,,,,,,,,,,,,,,,,LDT,left,0.5504390958230942,0,,,left,0,0.5504390958230942,,,,,,,,,,,,,,,,,,,,,,1014,2019_Mar_06_1244,mf_amp_cond2,3.0.4,60.070203973553134,
ilportation,&&&&&&&&&&&,right,nonword,,,,,,,,0,128,128,63,,,,,,,,,,,,,,,,,,,,,LDT,left,0.5503595576155931,0,,,left,0,0.5503595576155931,,,,,,,,,,,,,,,,,,,,,,1014,2019_Mar_06_1244,mf_amp_cond2,3.0.4,60.070203973553134,
clattening,&&&&&&&&&&,right,nonword,,,,,,,,0,129,129,158,,,,,,,,,,,,,,,,,,,,,LDT,left,0.5003819759003818,0,,,left,0,0.5003819759003818,,,,,,,,,,,,,,,,,,,,,,1014,2019_Mar_06_1244,mf_amp_cond2,3.0.4,60.070203973553134,
violations,&&&&&&&&&&,left,sanctity.vice,,,,,,,,0,130,130,169,,,,,,,,,,,,,,,,,,,,,LDT,left,0.5337251659948379,1,,,left,1,0.5337251659948379,,,,,,,,,,,,,,,,,,,,,,1014,2019_Mar_06_1244,mf_amp_cond2,3.0.4,60.070203973553134,
about,&&&&&,left,neutral,,,,,,,,0,131,131,70,,,,,,,,,,,,,,,,,,,,,LDT,left,0.5336995085235685,1,,,left,1,0.5336995085235685,,,,,,,,,,,,,,,,,,,,,,1014,2019_Mar_06_1244,mf_amp_cond2,3.0.4,60.070203973553134,
values,&&&&&&,left,sanctity.virtue,,,,,,,,0,132,132,180,,,,,,,,,,,,,,,,,,,,,LDT,left,0.5170401007635519,1,,,left,1,0.5170401007635519,,,,,,,,,,,,,,,,,,,,,,1014,2019_Mar_06_1244,mf_amp_cond2,3.0.4,60.070203973553134,
seem,&&&&,left,neutral,,,,,,,,0,133,133,104,,,,,,,,,,,,,,,,,,,,,LDT,left,0.4837174366693944,1,,,left,1,0.4837174366693944,,,,,,,,,,,,,,,,,,,,,,1014,2019_Mar_06_1244,mf_amp_cond2,3.0.4,60.070203973553134,
hatigue,&&&&&&&,right,nonword,,,,,,,,0,134,134,188,,,,,,,,,,,,,,,,,,,,,LDT,left,0.4837058908306062,0,,,left,0,0.4837058908306062,,,,,,,,,,,,,,,,,,,,,,1014,2019_Mar_06_1244,mf_amp_cond2,3.0.4,60.070203973553134,
ammessment,&&&&&&&&&&,right,nonword,,,,,,,,0,135,135,178,,,,,,,,,,,,,,,,,,,,,LDT,left,0.5170724933268502,0,,,left,0,0.5170724933268502,,,,,,,,,,,,,,,,,,,,,,1014,2019_Mar_06_1244,mf_amp_cond2,3.0.4,60.070203973553134,
give,&&&&,left,neutral,,,,,,,,0,136,136,16,,,,,,,,,,,,,,,,,,,,,LDT,left,0.4670368614606559,1,,,left,1,0.4670368614606559,,,,,,,,,,,,,,,,,,,,,,1014,2019_Mar_06_1244,mf_amp_cond2,3.0.4,60.070203973553134,
both,&&&&,left,neutral,,,,,,,,0,137,137,163,,,,,,,,,,,,,,,,,,,,,LDT,left,0.6004025660222396,1,,,left,1,0.6004025660222396,,,,,,,,,,,,,,,,,,,,,,1014,2019_Mar_06_1244,mf_amp_cond2,3.0.4,60.070203973553134,
coom,&&&&,right,nonword,,,,,,,,0,138,138,199,,,,,,,,,,,,,,,,,,,,,LDT,left,0.5503951574210078,0,,,left,0,0.5503951574210078,,,,,,,,,,,,,,,,,,,,,,1014,2019_Mar_06_1244,mf_amp_cond2,3.0.4,60.070203973553134,
elsewhere,&&&&&&&&&,left,neutral,,,,,,,,0,139,139,149,,,,,,,,,,,,,,,,,,,,,LDT,left,0.7504369791131467,1,,,left,1,0.7504369791131467,,,,,,,,,,,,,,,,,,,,,,1014,2019_Mar_06_1244,mf_amp_cond2,3.0.4,60.070203973553134,
trust,&&&&&,left,authority.virtue,,,,,,,,0,140,140,21,,,,,,,,,,,,,,,,,,,,,LDT,left,0.5503938745241612,1,,,left,1,0.5503938745241612,,,,,,,,,,,,,,,,,,,,,,1014,2019_Mar_06_1244,mf_amp_cond2,3.0.4,60.070203973553134,
whereafter,&&&&&&&&&&,left,neutral,,,,,,,,0,141,141,9,,,,,,,,,,,,,,,,,,,,,LDT,left,0.5337161858333275,1,,,left,1,0.5337161858333275,,,,,,,,,,,,,,,,,,,,,,1014,2019_Mar_06_1244,mf_amp_cond2,3.0.4,60.070203973553134,
become,&&&&&&,left,neutral,,,,,,,,0,142,142,181,,,,,,,,,,,,,,,,,,,,,LDT,right,0.7170976375928149,0,,,right,0,0.7170976375928149,,,,,,,,,,,,,,,,,,,,,,1014,2019_Mar_06_1244,mf_amp_cond2,3.0.4,60.070203973553134,
clamorek,&&&&&&&&,right,nonword,,,,,,,,0,143,143,83,,,,,,,,,,,,,,,,,,,,,LDT,left,1.4672899084398523,0,,,left,0,1.4672899084398523,,,,,,,,,,,,,,,,,,,,,,1014,2019_Mar_06_1244,mf_amp_cond2,3.0.4,60.070203973553134,
eight,&&&&&,left,neutral,,,,,,,,0,144,144,112,,,,,,,,,,,,,,,,,,,,,LDT,right,0.6837878023507074,0,,,right,0,0.6837878023507074,,,,,,,,,,,,,,,,,,,,,,1014,2019_Mar_06_1244,mf_amp_cond2,3.0.4,60.070203973553134,
atson,&&&&&,right,nonword,,,,,,,,0,145,145,99,,,,,,,,,,,,,,,,,,,,,LDT,left,0.8671336544211954,0,,,left,0,0.8671336544211954,,,,,,,,,,,,,,,,,,,,,,1014,2019_Mar_06_1244,mf_amp_cond2,3.0.4,60.070203973553134,
spag,&&&&,None,nonword,,,,,,,,0,146,146,26,,,,,,,,,,,,,,,,,,,,,LDT,right,0.7837846592301503,0,,,right,0,0.7837846592301503,,,,,,,,,,,,,,,,,,,,,,1014,2019_Mar_06_1244,mf_amp_cond2,3.0.4,60.070203973553134,
Lacedonia,&&&&&&&&&,right,nonword,,,,,,,,0,147,147,120,,,,,,,,,,,,,,,,,,,,,LDT,left,0.9504932331619784,0,,,left,0,0.9504932331619784,,,,,,,,,,,,,,,,,,,,,,1014,2019_Mar_06_1244,mf_amp_cond2,3.0.4,60.070203973553134,
counpy's,&&&&&&&&,right,nonword,,,,,,,,0,148,148,124,,,,,,,,,,,,,,,,,,,,,LDT,left,1.0171789719024673,0,,,left,0,1.0171789719024673,,,,,,,,,,,,,,,,,,,,,,1014,2019_Mar_06_1244,mf_amp_cond2,3.0.4,60.070203973553134,
anything,&&&&&&&&,left,neutral,,,,,,,,0,149,149,5,,,,,,,,,,,,,,,,,,,,,LDT,left,0.9671564894961193,1,,,left,1,0.9671564894961193,,,,,,,,,,,,,,,,,,,,,,1014,2019_Mar_06_1244,mf_amp_cond2,3.0.4,60.070203973553134,
tracious,&&&&&&&&,right,nonword,,,,,,,,0,150,150,115,,,,,,,,,,,,,,,,,,,,,LDT,left,1.2506056771380827,0,,,left,0,1.2506056771380827,,,,,,,,,,,,,,,,,,,,,,1014,2019_Mar_06_1244,mf_amp_cond2,3.0.4,60.070203973553134,
mostly,&&&&&&,left,neutral,,,,,,,,0,151,151,35,,,,,,,,,,,,,,,,,,,,,LDT,left,0.917153891758062,1,,,left,1,0.917153891758062,,,,,,,,,,,,,,,,,,,,,,1014,2019_Mar_06_1244,mf_amp_cond2,3.0.4,60.070203973553134,
latter,&&&&&&,left,neutral,,,,,,,,0,152,152,62,,,,,,,,,,,,,,,,,,,,,LDT,left,0.9171622303547338,1,,,left,1,0.9171622303547338,,,,,,,,,,,,,,,,,,,,,,1014,2019_Mar_06_1244,mf_amp_cond2,3.0.4,60.070203973553134,
civilians,&&&&&&&&&,left,care.vice,,,,,,,,0,153,153,89,,,,,,,,,,,,,,,,,,,,,LDT,left,0.6169554950902238,1,,,left,1,0.6169554950902238,,,,,,,,,,,,,,,,,,,,,,1014,2019_Mar_06_1244,mf_amp_cond2,3.0.4,60.070203973553134,
yane,&&&&,right,nonword,,,,,,,,0,154,154,10,,,,,,,,,,,,,,,,,,,,,LDT,left,0.6170510693918914,0,,,left,0,0.6170510693918914,,,,,,,,,,,,,,,,,,,,,,1014,2019_Mar_06_1244,mf_amp_cond2,3.0.4,60.070203973553134,
emports,&&&&&&&,right,nonword,,,,,,,,0,155,155,95,,,,,,,,,,,,,,,,,,,,,LDT,left,0.8504524377640337,0,,,left,0,0.8504524377640337,,,,,,,,,,,,,,,,,,,,,,1014,2019_Mar_06_1244,mf_amp_cond2,3.0.4,60.070203973553134,
toward,&&&&&&,left,neutral,,,,,,,,0,156,156,54,,,,,,,,,,,,,,,,,,,,,LDT,left,0.6504102953476831,1,,,left,1,0.6504102953476831,,,,,,,,,,,,,,,,,,,,,,1014,2019_Mar_06_1244,mf_amp_cond2,3.0.4,60.070203973553134,
sonvoy,&&&&&&,None,nonword,,,,,,,,0,157,157,132,,,,,,,,,,,,,,,,,,,,,LDT,left,0.5503521811915562,0,,,left,0,0.5503521811915562,,,,,,,,,,,,,,,,,,,,,,1014,2019_Mar_06_1244,mf_amp_cond2,3.0.4,60.070203973553134,
illegal,&&&&&&&,left,fairness.vice,,,,,,,,0,158,158,77,,,,,,,,,,,,,,,,,,,,,LDT,left,0.6003724184120074,1,,,left,1,0.6003724184120074,,,,,,,,,,,,,,,,,,,,,,1014,2019_Mar_06_1244,mf_amp_cond2,3.0.4,60.070203973553134,
ronviolence,&&&&&&&&&&&,right,nonword,,,,,,,,0,159,159,160,,,,,,,,,,,,,,,,,,,,,LDT,left,0.46703012636862695,0,,,left,0,0.46703012636862695,,,,,,,,,,,,,,,,,,,,,,1014,2019_Mar_06_1244,mf_amp_cond2,3.0.4,60.070203973553134,
somehow,&&&&&&&,left,neutral,,,,,,,,0,160,160,34,,,,,,,,,,,,,,,,,,,,,LDT,left,0.8504841888789088,1,,,left,1,0.8504841888789088,,,,,,,,,,,,,,,,,,,,,,1014,2019_Mar_06_1244,mf_amp_cond2,3.0.4,60.070203973553134,
bycled,&&&&&&,None,nonword,,,,,,,,0,161,161,128,,,,,,,,,,,,,,,,,,,,,LDT,left,0.5503848944790661,0,,,left,0,0.5503848944790661,,,,,,,,,,,,,,,,,,,,,,1014,2019_Mar_06_1244,mf_amp_cond2,3.0.4,60.070203973553134,
hope,&&&&,left,loyalty.virtue,,,,,,,,0,162,162,72,,,,,,,,,,,,,,,,,,,,,LDT,left,0.5170696068089455,1,,,left,1,0.5170696068089455,,,,,,,,,,,,,,,,,,,,,,1014,2019_Mar_06_1244,mf_amp_cond2,3.0.4,60.070203973553134,
else,&&&&,left,neutral,,,,,,,,0,163,163,197,,,,,,,,,,,,,,,,,,,,,LDT,left,0.6337435110472143,1,,,left,1,0.6337435110472143,,,,,,,,,,,,,,,,,,,,,,1014,2019_Mar_06_1244,mf_amp_cond2,3.0.4,60.070203973553134,
ability,&&&&&&&,left,authority.virtue,,,,,,,,0,164,164,50,,,,,,,,,,,,,,,,,,,,,LDT,left,0.5170814733719453,1,,,left,1,0.5170814733719453,,,,,,,,,,,,,,,,,,,,,,1014,2019_Mar_06_1244,mf_amp_cond2,3.0.4,60.070203973553134,
arrests,&&&&&&&,left,authority.vice,,,,,,,,0,165,165,79,,,,,,,,,,,,,,,,,,,,,LDT,left,0.5171180353499949,1,,,left,1,0.5171180353499949,,,,,,,,,,,,,,,,,,,,,,1014,2019_Mar_06_1244,mf_amp_cond2,3.0.4,60.070203973553134,
couldnt,&&&&&&&,left,neutral,,,,,,,,0,166,166,91,,,,,,,,,,,,,,,,,,,,,LDT,left,0.4003636307315901,1,,,left,1,0.4003636307315901,,,,,,,,,,,,,,,,,,,,,,1014,2019_Mar_06_1244,mf_amp_cond2,3.0.4,60.070203973553134,
safe,&&&&,left,care.virtue,,,,,,,,0,167,167,38,,,,,,,,,,,,,,,,,,,,,LDT,left,0.35032447101548314,1,,,left,1,0.35032447101548314,,,,,,,,,,,,,,,,,,,,,,1014,2019_Mar_06_1244,mf_amp_cond2,3.0.4,60.070203973553134,
wonderfujnoss,&&&&&&&&&&&&&,right,nonword,,,,,,,,0,168,168,33,,,,,,,,,,,,,,,,,,,,,LDT,left,0.5337283732369542,0,,,left,0,0.5337283732369542,,,,,,,,,,,,,,,,,,,,,,1014,2019_Mar_06_1244,mf_amp_cond2,3.0.4,60.070203973553134,
proached,&&&&&&&&,right,nonword,,,,,,,,0,169,169,110,,,,,,,,,,,,,,,,,,,,,LDT,left,0.38367792416829616,0,,,left,0,0.38367792416829616,,,,,,,,,,,,,,,,,,,,,,1014,2019_Mar_06_1244,mf_amp_cond2,3.0.4,60.070203973553134,
anyhow,&&&&&&,left,neutral,,,,,,,,0,170,170,139,,,,,,,,,,,,,,,,,,,,,LDT,left,0.5168951358646154,1,,,left,1,0.5168951358646154,,,,,,,,,,,,,,,,,,,,,,1014,2019_Mar_06_1244,mf_amp_cond2,3.0.4,60.070203973553134,
vurtain,&&&&&&&,right,nonword,,,,,,,,0,171,171,192,,,,,,,,,,,,,,,,,,,,,LDT,left,0.6003903787350282,0,,,left,0,0.6003903787350282,,,,,,,,,,,,,,,,,,,,,,1014,2019_Mar_06_1244,mf_amp_cond2,3.0.4,60.070203973553134,
attacks,&&&&&&&,left,care.vice,,,,,,,,0,172,172,1,,,,,,,,,,,,,,,,,,,,,LDT,left,0.600405452423729,1,,,left,1,0.600405452423729,,,,,,,,,,,,,,,,,,,,,,1014,2019_Mar_06_1244,mf_amp_cond2,3.0.4,60.070203973553134,
sidearbs,&&&&&&&&,right,nonword,,,,,,,,0,173,173,107,,,,,,,,,,,,,,,,,,,,,LDT,left,0.7337612147675827,0,,,left,0,0.7337612147675827,,,,,,,,,,,,,,,,,,,,,,1014,2019_Mar_06_1244,mf_amp_cond2,3.0.4,60.070203973553134,
either,&&&&&&,left,neutral,,,,,,,,0,174,174,59,,,,,,,,,,,,,,,,,,,,,LDT,left,0.5670654695713893,1,,,left,1,0.5670654695713893,,,,,,,,,,,,,,,,,,,,,,1014,2019_Mar_06_1244,mf_amp_cond2,3.0.4,60.070203973553134,
taxpayung,&&&&&&&&&,right,nonword,,,,,,,,0,175,175,174,,,,,,,,,,,,,,,,,,,,,LDT,left,0.5003691471647471,0,,,left,0,0.5003691471647471,,,,,,,,,,,,,,,,,,,,,,1014,2019_Mar_06_1244,mf_amp_cond2,3.0.4,60.070203973553134,
mecan,&&&&&,right,nonword,,,,,,,,0,176,176,175,,,,,,,,,,,,,,,,,,,,,LDT,left,0.5170439493376762,0,,,left,0,0.5170439493376762,,,,,,,,,,,,,,,,,,,,,,1014,2019_Mar_06_1244,mf_amp_cond2,3.0.4,60.070203973553134,
reviked,&&&&&&&,right,nonword,,,,,,,,0,177,177,137,,,,,,,,,,,,,,,,,,,,,LDT,left,0.4670407101511955,0,,,left,0,0.4670407101511955,,,,,,,,,,,,,,,,,,,,,,1014,2019_Mar_06_1244,mf_amp_cond2,3.0.4,60.070203973553134,
embrace,&&&&&&&,left,authority.virtue,,,,,,,,0,178,178,125,,,,,,,,,,,,,,,,,,,,,LDT,left,0.6836120485095307,1,,,left,1,0.6836120485095307,,,,,,,,,,,,,,,,,,,,,,1014,2019_Mar_06_1244,mf_amp_cond2,3.0.4,60.070203973553134,
tabin,&&&&&,right,nonword,,,,,,,,0,179,179,155,,,,,,,,,,,,,,,,,,,,,LDT,left,0.46703108854126185,0,,,left,0,0.46703108854126185,,,,,,,,,,,,,,,,,,,,,,1014,2019_Mar_06_1244,mf_amp_cond2,3.0.4,60.070203973553134,
betrayal,&&&&&&&&,left,loyalty.vice,,,,,,,,0,180,180,102,,,,,,,,,,,,,,,,,,,,,LDT,left,0.5170513258781284,1,,,left,1,0.5170513258781284,,,,,,,,,,,,,,,,,,,,,,1014,2019_Mar_06_1244,mf_amp_cond2,3.0.4,60.070203973553134,
discovars,&&&&&&&&&,right,nonword,,,,,,,,0,181,181,179,,,,,,,,,,,,,,,,,,,,,LDT,left,0.5337068849476054,0,,,left,0,0.5337068849476054,,,,,,,,,,,,,,,,,,,,,,1014,2019_Mar_06_1244,mf_amp_cond2,3.0.4,60.070203973553134,
perfect,&&&&&&&,left,sanctity.virtue,,,,,,,,0,182,182,164,,,,,,,,,,,,,,,,,,,,,LDT,left,0.5837261602282524,1,,,left,1,0.5837261602282524,,,,,,,,,,,,,,,,,,,,,,1014,2019_Mar_06_1244,mf_amp_cond2,3.0.4,60.070203973553134,
towards,&&&&&&&,left,neutral,,,,,,,,0,183,183,92,,,,,,,,,,,,,,,,,,,,,LDT,left,0.6669356427155435,1,,,left,1,0.6669356427155435,,,,,,,,,,,,,,,,,,,,,,1014,2019_Mar_06_1244,mf_amp_cond2,3.0.4,60.070203973553134,
simplustic,&&&&&&&&&&,right,nonword,,,,,,,,0,184,184,168,,,,,,,,,,,,,,,,,,,,,LDT,left,0.5337376740062609,0,,,left,0,0.5337376740062609,,,,,,,,,,,,,,,,,,,,,,1014,2019_Mar_06_1244,mf_amp_cond2,3.0.4,60.070203973553134,
hefurbished,&&&&&&&&&&&,right,nonword,,,,,,,,0,185,185,46,,,,,,,,,,,,,,,,,,,,,LDT,left,0.4503652664134279,0,,,left,0,0.4503652664134279,,,,,,,,,,,,,,,,,,,,,,1014,2019_Mar_06_1244,mf_amp_cond2,3.0.4,60.070203973553134,
seachwear,&&&&&&&&&,right,nonword,,,,,,,,0,186,186,156,,,,,,,,,,,,,,,,,,,,,LDT,left,0.4670516145415604,0,,,left,0,0.4670516145415604,,,,,,,,,,,,,,,,,,,,,,1014,2019_Mar_06_1244,mf_amp_cond2,3.0.4,60.070203973553134,
feleological,&&&&&&&&&&&&,right,nonword,,,,,,,,0,187,187,134,,,,,,,,,,,,,,,,,,,,,LDT,left,1.0671674581244588,0,,,left,0,1.0671674581244588,,,,,,,,,,,,,,,,,,,,,,1014,2019_Mar_06_1244,mf_amp_cond2,3.0.4,60.070203973553134,
energy,&&&&&&,left,sanctity.virtue,,,,,,,,0,188,188,157,,,,,,,,,,,,,,,,,,,,,LDT,right,0.6337399831973016,0,,,right,0,0.6337399831973016,,,,,,,,,,,,,,,,,,,,,,1014,2019_Mar_06_1244,mf_amp_cond2,3.0.4,60.070203973553134,
nomaric,&&&&&&&,None,nonword,,,,,,,,0,189,189,105,,,,,,,,,,,,,,,,,,,,,LDT,left,1.2839042872656137,0,,,left,0,1.2839042872656137,,,,,,,,,,,,,,,,,,,,,,1014,2019_Mar_06_1244,mf_amp_cond2,3.0.4,60.070203973553134,
vicissifude,&&&&&&&&&&&,right,nonword,,,,,,,,0,190,190,142,,,,,,,,,,,,,,,,,,,,,LDT,left,0.950484253000468,0,,,left,0,0.950484253000468,,,,,,,,,,,,,,,,,,,,,,1014,2019_Mar_06_1244,mf_amp_cond2,3.0.4,60.070203973553134,
gaultless,&&&&&&&&&,right,nonword,,,,,,,,0,191,191,40,,,,,,,,,,,,,,,,,,,,,LDT,left,0.85045564500615,0,,,left,0,0.85045564500615,,,,,,,,,,,,,,,,,,,,,,1014,2019_Mar_06_1244,mf_amp_cond2,3.0.4,60.070203973553134,
three,&&&&&,left,neutral,,,,,,,,0,192,192,43,,,,,,,,,,,,,,,,,,,,,LDT,right,0.5670584137551486,0,,,right,0,0.5670584137551486,,,,,,,,,,,,,,,,,,,,,,1014,2019_Mar_06_1244,mf_amp_cond2,3.0.4,60.070203973553134,
terrorists,&&&&&&&&&&,left,fairness.vice,,,,,,,,0,193,193,127,,,,,,,,,,,,,,,,,,,,,LDT,right,0.7504597500665113,0,,,right,0,0.7504597500665113,,,,,,,,,,,,,,,,,,,,,,1014,2019_Mar_06_1244,mf_amp_cond2,3.0.4,60.070203973553134,
gondensed,&&&&&&&&&,right,nonword,,,,,,,,0,194,194,177,,,,,,,,,,,,,,,,,,,,,LDT,left,0.767099273391068,0,,,left,0,0.767099273391068,,,,,,,,,,,,,,,,,,,,,,1014,2019_Mar_06_1244,mf_amp_cond2,3.0.4,60.070203973553134,
abuse,&&&&&,left,sanctity.vice,,,,,,,,0,195,195,171,,,,,,,,,,,,,,,,,,,,,LDT,right,0.6170680673094466,0,,,right,0,0.6170680673094466,,,,,,,,,,,,,,,,,,,,,,1014,2019_Mar_06_1244,mf_amp_cond2,3.0.4,60.070203973553134,
war,&&&,left,sanctity.vice,,,,,,,,0,196,196,172,,,,,,,,,,,,,,,,,,,,,LDT,right,0.8338520422112197,0,,,right,0,0.8338520422112197,,,,,,,,,,,,,,,,,,,,,,1014,2019_Mar_06_1244,mf_amp_cond2,3.0.4,60.070203973553134,
idexpressible,&&&&&&&&&&&&&,right,nonword,,,,,,,,0,197,197,116,,,,,,,,,,,,,,,,,,,,,LDT,left,1.517026309738867,0,,,left,0,1.517026309738867,,,,,,,,,,,,,,,,,,,,,,1014,2019_Mar_06_1244,mf_amp_cond2,3.0.4,60.070203973553134,
freedom,&&&&&&&,left,sanctity.virtue,,,,,,,,0,198,198,113,,,,,,,,,,,,,,,,,,,,,LDT,right,0.6504157475428656,0,,,right,0,0.6504157475428656,,,,,,,,,,,,,,,,,,,,,,1014,2019_Mar_06_1244,mf_amp_cond2,3.0.4,60.070203973553134,
integrity,&&&&&&&&&,left,fairness.virtue,,,,,,,,0,199,199,36,,,,,,,,,,,,,,,,,,,,,LDT,left,1.5172909026732668,1,,,left,1,1.5172909026732668,,,,,,,,,,,,,,,,,,,,,,1014,2019_Mar_06_1244,mf_amp_cond2,3.0.4,60.070203973553134,
,,,,,,,,,,,,,,,,,,,,,,,,,,,,,,,,,,,,,,,,,,,,6,14.922,,,,,,,,,,,,,,,,,,,,1014,2019_Mar_06_1244,mf_amp_cond2,3.0.4,60.070203973553134,
,,,,,,,,,,,,,,,,,,,,,,,,,,,,,,,,,,,,,,,,,,,,,,right,2.0342209968948737,,,,,,,,,,,,,,,,,,1014,2019_Mar_06_1244,mf_amp_cond2,3.0.4,60.070203973553134,
keyboard,&&&&,,,senk,,,,,,,,,,,0,0,0,2,,,,,,,,,,,,,,,,,AMP_prac,right,2.350827357848175,,,,,,,,,,,right,2.350827357848175,,,,,,,,,,,,,,,,1014,2019_Mar_06_1244,mf_amp_cond2,3.0.4,60.070203973553134,
scarf,&&&&&&&&,,,bisebell,,,,,,,,,,,0,1,1,3,,,,,,,,,,,,,,,,,AMP_prac,right,1.5673011977924034,,,,,,,,,,,right,1.5673011977924034,,,,,,,,,,,,,,,,1014,2019_Mar_06_1244,mf_amp_cond2,3.0.4,60.070203973553134,
car,&&&&&&&&,,,cemtuper,,,,,,,,,,,0,2,2,0,,,,,,,,,,,,,,,,,AMP_prac,right,1.1670632887398824,,,,,,,,,,,right,1.1670632887398824,,,,,,,,,,,,,,,,1014,2019_Mar_06_1244,mf_amp_cond2,3.0.4,60.070203973553134,
banana,&&&&&&,,,kacket,,,,,,,,,,,0,3,3,1,,,,,,,,,,,,,,,,,AMP_prac,left,0.7671047255862504,,,,,,,,,,,left,0.7671047255862504,,,,,,,,,,,,,,,,1014,2019_Mar_06_1244,mf_amp_cond2,3.0.4,60.070203973553134,
,,,,,,,,,,,,,,,,,,,,,,,,,,,,,,,,,,,,,,,,,,,,,,,,,,right,1.8006980761419982,,,,,,,,,,,,,,1014,2019_Mar_06_1244,mf_amp_cond2,3.0.4,60.070203973553134,
actively,&&&&&&&&,left,authority.virtue,bluently,,,,,,,,,,,,,,,0,0,0,117,,,,,,,,,,,,,AMP,right,0.950484253000468,0,,,,,,,,,,,,,,right,0,0.950484253000468,,,,,,,,,,,1014,2019_Mar_06_1244,mf_amp_cond2,3.0.4,60.070203973553134,
mightingale,&&&&&&&&&&&&,None,nonword,unreflectuve,,,,,,,,,,,,,,,0,1,1,168,,,,,,,,,,,,,AMP,left,0.8169739044969901,0,,,,,,,,,,,,,,left,0,0.8169739044969901,,,,,,,,,,,1014,2019_Mar_06_1244,mf_amp_cond2,3.0.4,60.070203973553134,
shot,&&&&&,right,care.vice,uller,,,,,,,,,,,,,,,0,2,2,246,,,,,,,,,,,,,AMP,left,0.5670632245019078,0,,,,,,,,,,,,,,left,0,0.5670632245019078,,,,,,,,,,,1014,2019_Mar_06_1244,mf_amp_cond2,3.0.4,60.070203973553134,
harassment,&&&&&&&&&&&,right,sanctity.vice,presentkess,,,,,,,,,,,,,,,0,3,3,180,,,,,,,,,,,,,AMP,left,1.083925326471217,0,,,,,,,,,,,,,,left,0,1.083925326471217,,,,,,,,,,,1014,2019_Mar_06_1244,mf_amp_cond2,3.0.4,60.070203973553134,
clean,&&&&,left,sanctity.virtue,alar,,,,,,,,,,,,,,,0,4,4,200,,,,,,,,,,,,,AMP,right,1.0005221298197284,0,,,,,,,,,,,,,,right,0,1.0005221298197284,,,,,,,,,,,1014,2019_Mar_06_1244,mf_amp_cond2,3.0.4,60.070203973553134,
peace,&&&&&&&&&&&,left,care.virtue,cromiscuity,,,,,,,,,,,,,,,0,5,5,176,,,,,,,,,,,,,AMP,right,1.4839412982109934,0,,,,,,,,,,,,,,right,0,1.4839412982109934,,,,,,,,,,,1014,2019_Mar_06_1244,mf_amp_cond2,3.0.4,60.070203973553134,
noped,&&&&&&&&&,None,nonword,godlaness,,,,,,,,,,,,,,,0,6,6,61,,,,,,,,,,,,,AMP,left,1.150532809784636,0,,,,,,,,,,,,,,left,0,1.150532809784636,,,,,,,,,,,1014,2019_Mar_06_1244,mf_amp_cond2,3.0.4,60.070203973553134,
growth,&&&&,left,care.virtue,alar,,,,,,,,,,,,,,,0,7,7,98,,,,,,,,,,,,,AMP,right,0.9170150206191465,0,,,,,,,,,,,,,,right,0,0.9170150206191465,,,,,,,,,,,1014,2019_Mar_06_1244,mf_amp_cond2,3.0.4,60.070203973553134,
voter,&&&&&&&&,right,fairness.vice,nuckheap,,,,,,,,,,,,,,,0,8,8,240,,,,,,,,,,,,,AMP,right,0.8504633422708139,1,,,,,,,,,,,,,,right,1,0.8504633422708139,,,,,,,,,,,1014,2019_Mar_06_1244,mf_amp_cond2,3.0.4,60.070203973553134,
ban,&&&&&&&&&&,right,loyalty.vice,imebreaker,,,,,,,,,,,,,,,0,9,9,206,,,,,,,,,,,,,AMP,right,0.8838026836747304,1,,,,,,,,,,,,,,right,1,0.8838026836747304,,,,,,,,,,,1014,2019_Mar_06_1244,mf_amp_cond2,3.0.4,60.070203973553134,
failure,&&&&&&&&,right,loyalty.vice,hescribe,,,,,,,,,,,,,,,0,10,10,94,,,,,,,,,,,,,AMP,right,0.9504861773457378,1,,,,,,,,,,,,,,right,1,0.9504861773457378,,,,,,,,,,,1014,2019_Mar_06_1244,mf_amp_cond2,3.0.4,60.070203973553134,
brotesque,&&&&&&&&&&&,None,nonword,lempestuous,,,,,,,,,,,,,,,0,11,11,134,,,,,,,,,,,,,AMP,left,0.6337124013807625,0,,,,,,,,,,,,,,left,0,0.6337124013807625,,,,,,,,,,,1014,2019_Mar_06_1244,mf_amp_cond2,3.0.4,60.070203973553134,
rebels,&&&&&&&&,right,authority.vice,ugeasily,,,,,,,,,,,,,,,0,12,12,15,,,,,,,,,,,,,AMP,left,0.6504006738541648,0,,,,,,,,,,,,,,left,0,0.6504006738541648,,,,,,,,,,,1014,2019_Mar_06_1244,mf_amp_cond2,3.0.4,60.070203973553134,
aubos,&&&&&&&&&&&,None,nonword,presentkess,,,,,,,,,,,,,,,0,13,13,118,,,,,,,,,,,,,AMP,left,0.5670689975377172,0,,,,,,,,,,,,,,left,0,0.5670689975377172,,,,,,,,,,,1014,2019_Mar_06_1244,mf_amp_cond2,3.0.4,60.070203973553134,
shot,&&&&&&&&&,right,care.vice,unscothed,,,,,,,,,,,,,,,0,14,14,228,,,,,,,,,,,,,AMP,right,0.9004598463652655,1,,,,,,,,,,,,,,right,1,0.9004598463652655,,,,,,,,,,,1014,2019_Mar_06_1244,mf_amp_cond2,3.0.4,60.070203973553134,
actively,&&&&&&,left,authority.virtue,erdest,,,,,,,,,,,,,,,0,15,15,297,,,,,,,,,,,,,AMP,right,0.5335709003265947,0,,,,,,,,,,,,,,right,0,0.5335709003265947,,,,,,,,,,,1014,2019_Mar_06_1244,mf_amp_cond2,3.0.4,60.070203973553134,
died,&&&&&&&,right,care.vice,lursuer,,,,,,,,,,,,,,,0,16,16,128,,,,,,,,,,,,,AMP,right,0.7337913622613996,1,,,,,,,,,,,,,,right,1,0.7337913622613996,,,,,,,,,,,1014,2019_Mar_06_1244,mf_amp_cond2,3.0.4,60.070203973553134,
benefit,&&&&&&&&,left,fairness.virtue,hescribe,,,,,,,,,,,,,,,0,17,17,39,,,,,,,,,,,,,AMP,right,0.5170404213713482,0,,,,,,,,,,,,,,right,0,0.5170404213713482,,,,,,,,,,,1014,2019_Mar_06_1244,mf_amp_cond2,3.0.4,60.070203973553134,
penalty,&&&&&&&&&&,right,authority.vice,fonderland,,,,,,,,,,,,,,,0,18,18,293,,,,,,,,,,,,,AMP,left,0.7671015183441341,0,,,,,,,,,,,,,,left,0,0.7671015183441341,,,,,,,,,,,1014,2019_Mar_06_1244,mf_amp_cond2,3.0.4,60.070203973553134,
charges,&&&&&&&&&,right,fairness.vice,reprisols,,,,,,,,,,,,,,,0,19,19,221,,,,,,,,,,,,,AMP,right,1.0838576548267156,1,,,,,,,,,,,,,,right,1,1.0838576548267156,,,,,,,,,,,1014,2019_Mar_06_1244,mf_amp_cond2,3.0.4,60.070203973553134,
promote,&&&&&,left,sanctity.virtue,touls,,,,,,,,,,,,,,,0,20,20,225,,,,,,,,,,,,,AMP,left,0.9836571415653452,1,,,,,,,,,,,,,,left,1,0.9836571415653452,,,,,,,,,,,1014,2019_Mar_06_1244,mf_amp_cond2,3.0.4,60.070203973553134,
army,&&&&&&,right,loyalty.vice,papert,,,,,,,,,,,,,,,0,21,21,57,,,,,,,,,,,,,AMP,left,0.7504347340436652,0,,,,,,,,,,,,,,left,0,0.7504347340436652,,,,,,,,,,,1014,2019_Mar_06_1244,mf_amp_cond2,3.0.4,60.070203973553134,
Daptist,&&&&&&,None,nonword,laming,,,,,,,,,,,,,,,0,22,22,260,,,,,,,,,,,,,AMP,left,1.1672367975115776,0,,,,,,,,,,,,,,left,0,1.1672367975115776,,,,,,,,,,,1014,2019_Mar_06_1244,mf_amp_cond2,3.0.4,60.070203973553134,
metibolic,&&&&&&,None,nonword,sgrawl,,,,,,,,,,,,,,,0,23,23,116,,,,,,,,,,,,,AMP,left,0.5670439813984558,0,,,,,,,,,,,,,,left,0,0.5670439813984558,,,,,,,,,,,1014,2019_Mar_06_1244,mf_amp_cond2,3.0.4,60.070203973553134,
Daptist,&&&&&&,None,nonword,prones,,,,,,,,,,,,,,,0,24,24,136,,,,,,,,,,,,,AMP,left,0.5336491556372494,0,,,,,,,,,,,,,,left,0,0.5336491556372494,,,,,,,,,,,1014,2019_Mar_06_1244,mf_amp_cond2,3.0.4,60.070203973553134,
praise,&&&&&&&&&&&&,left,authority.virtue,quarterbocks,,,,,,,,,,,,,,,0,25,25,179,,,,,,,,,,,,,AMP,right,0.483717757393606,0,,,,,,,,,,,,,,right,0,0.483717757393606,,,,,,,,,,,1014,2019_Mar_06_1244,mf_amp_cond2,3.0.4,60.070203973553134,
lies,&&&&&&&&&,right,fairness.vice,grovelire,,,,,,,,,,,,,,,0,26,26,219,,,,,,,,,,,,,AMP,right,1.2172137377783656,1,,,,,,,,,,,,,,right,1,1.2172137377783656,,,,,,,,,,,1014,2019_Mar_06_1244,mf_amp_cond2,3.0.4,60.070203973553134,
hate,&&&&&&&&,right,fairness.vice,ugeasily,,,,,,,,,,,,,,,0,27,27,290,,,,,,,,,,,,,AMP,left,0.8504517963156104,0,,,,,,,,,,,,,,left,0,0.8504517963156104,,,,,,,,,,,1014,2019_Mar_06_1244,mf_amp_cond2,3.0.4,60.070203973553134,
prosecution,&&&&&&&&&&&&,right,authority.vice,gusinesslike,,,,,,,,,,,,,,,0,28,28,124,,,,,,,,,,,,,AMP,left,0.7504318476421759,0,,,,,,,,,,,,,,left,0,0.7504318476421759,,,,,,,,,,,1014,2019_Mar_06_1244,mf_amp_cond2,3.0.4,60.070203973553134,
credit,&&&&&&&,left,fairness.virtue,carvels,,,,,,,,,,,,,,,0,29,29,172,,,,,,,,,,,,,AMP,left,0.5003758821403608,1,,,,,,,,,,,,,,left,1,0.5003758821403608,,,,,,,,,,,1014,2019_Mar_06_1244,mf_amp_cond2,3.0.4,60.070203973553134,
compassion,&&&&&&&&&&,left,care.virtue,totalestic,,,,,,,,,,,,,,,0,30,30,132,,,,,,,,,,,,,AMP,right,0.5337219587527215,0,,,,,,,,,,,,,,right,0,0.5337219587527215,,,,,,,,,,,1014,2019_Mar_06_1244,mf_amp_cond2,3.0.4,60.070203973553134,
party,&&&&,left,loyalty.virtue,erks,,,,,,,,,,,,,,,0,31,31,100,,,,,,,,,,,,,AMP,right,0.6504102953476831,0,,,,,,,,,,,,,,right,0,0.6504102953476831,,,,,,,,,,,1014,2019_Mar_06_1244,mf_amp_cond2,3.0.4,60.070203973553134,
hand,&&&&&&&&&&&&,left,sanctity.virtue,iptervention,,,,,,,,,,,,,,,0,32,32,230,,,,,,,,,,,,,AMP,right,0.7337496688123792,0,,,,,,,,,,,,,,right,0,0.7337496688123792,,,,,,,,,,,1014,2019_Mar_06_1244,mf_amp_cond2,3.0.4,60.070203973553134,
torture,&&&&&,right,care.vice,scock,,,,,,,,,,,,,,,0,33,33,312,,,,,,,,,,,,,AMP,left,0.4503553241956979,0,,,,,,,,,,,,,,left,0,0.4503553241956979,,,,,,,,,,,1014,2019_Mar_06_1244,mf_amp_cond2,3.0.4,60.070203973553134,
sharing,&&&,left,loyalty.virtue,asn,,,,,,,,,,,,,,,0,34,34,88,,,,,,,,,,,,,AMP,left,0.6670863804174587,1,,,,,,,,,,,,,,left,1,0.6670863804174587,,,,,,,,,,,1014,2019_Mar_06_1244,mf_amp_cond2,3.0.4,60.070203973553134,
hate,&&&&&&,right,fairness.vice,fostet,,,,,,,,,,,,,,,0,35,35,84,,,,,,,,,,,,,AMP,right,0.7504347341600806,1,,,,,,,,,,,,,,right,1,0.7504347341600806,,,,,,,,,,,1014,2019_Mar_06_1244,mf_amp_cond2,3.0.4,60.070203973553134,
promote,&&&&&&&&&&,left,sanctity.virtue,chonograph,,,,,,,,,,,,,,,0,36,36,86,,,,,,,,,,,,,AMP,right,0.5003630534047261,0,,,,,,,,,,,,,,right,0,0.5003630534047261,,,,,,,,,,,1014,2019_Mar_06_1244,mf_amp_cond2,3.0.4,60.070203973553134,
neneficence,&&&&,None,nonword,wump,,,,,,,,,,,,,,,0,37,37,266,,,,,,,,,,,,,AMP,right,0.6670783624285832,0,,,,,,,,,,,,,,right,0,0.6670783624285832,,,,,,,,,,,1014,2019_Mar_06_1244,mf_amp_cond2,3.0.4,60.070203973553134,
sexual,&&&&&&&&&&&&,right,sanctity.vice,edancipation,,,,,,,,,,,,,,,0,38,38,51,,,,,,,,,,,,,AMP,right,0.567074129008688,1,,,,,,,,,,,,,,right,1,0.567074129008688,,,,,,,,,,,1014,2019_Mar_06_1244,mf_amp_cond2,3.0.4,60.070203973553134,
refused,&&&&&&&&&&,right,authority.vice,imebreaker,,,,,,,,,,,,,,,0,39,39,106,,,,,,,,,,,,,AMP,right,1.2839100601850078,1,,,,,,,,,,,,,,right,1,1.2839100601850078,,,,,,,,,,,1014,2019_Mar_06_1244,mf_amp_cond2,3.0.4,60.070203973553134,
drug,&&&&&&,right,sanctity.vice,strofe,,,,,,,,,,,,,,,0,40,40,105,,,,,,,,,,,,,AMP,right,0.7337769300211221,1,,,,,,,,,,,,,,right,1,0.7337769300211221,,,,,,,,,,,1014,2019_Mar_06_1244,mf_amp_cond2,3.0.4,60.070203973553134,
critics,&&&&&&&,right,loyalty.vice,festate,,,,,,,,,,,,,,,0,41,41,284,,,,,,,,,,,,,AMP,left,1.3005842210259289,0,,,,,,,,,,,,,,left,0,1.3005842210259289,,,,,,,,,,,1014,2019_Mar_06_1244,mf_amp_cond2,3.0.4,60.070203973553134,
compassion,&&&&&&&,left,care.virtue,gedious,,,,,,,,,,,,,,,0,42,42,47,,,,,,,,,,,,,AMP,right,1.0338043834781274,0,,,,,,,,,,,,,,right,0,1.0338043834781274,,,,,,,,,,,1014,2019_Mar_06_1244,mf_amp_cond2,3.0.4,60.070203973553134,
neneficence,&&&&&&&,None,nonword,troubla,,,,,,,,,,,,,,,0,43,43,222,,,,,,,,,,,,,AMP,left,1.9673973491881043,0,,,,,,,,,,,,,,left,0,1.9673973491881043,,,,,,,,,,,1014,2019_Mar_06_1244,mf_amp_cond2,3.0.4,60.070203973553134,
compassion,&&&&,left,care.virtue,juck,,,,,,,,,,,,,,,0,44,44,255,,,,,,,,,,,,,AMP,left,1.0338605092838407,1,,,,,,,,,,,,,,left,1,1.0338605092838407,,,,,,,,,,,1014,2019_Mar_06_1244,mf_amp_cond2,3.0.4,60.070203973553134,
fraud,&&&&&&&&,right,fairness.vice,pullness,,,,,,,,,,,,,,,0,45,45,248,,,,,,,,,,,,,AMP,right,0.7504517321940511,1,,,,,,,,,,,,,,right,1,0.7504517321940511,,,,,,,,,,,1014,2019_Mar_06_1244,mf_amp_cond2,3.0.4,60.070203973553134,
restore,&&&&&&&&&&&,left,care.virtue,egpeditious,,,,,,,,,,,,,,,0,46,46,321,,,,,,,,,,,,,AMP,left,0.7337406886508688,1,,,,,,,,,,,,,,left,1,0.7337406886508688,,,,,,,,,,,1014,2019_Mar_06_1244,mf_amp_cond2,3.0.4,60.070203973553134,
loyalty,&&&&&&&&&&&,left,loyalty.virtue,nomparisons,,,,,,,,,,,,,,,0,47,47,71,,,,,,,,,,,,,AMP,right,1.1338583283359185,0,,,,,,,,,,,,,,right,0,1.1338583283359185,,,,,,,,,,,1014,2019_Mar_06_1244,mf_amp_cond2,3.0.4,60.070203973553134,
gun,&&&&&&&,right,authority.vice,smapper,,,,,,,,,,,,,,,0,48,48,281,,,,,,,,,,,,,AMP,right,0.8504546828335151,1,,,,,,,,,,,,,,right,1,0.8504546828335151,,,,,,,,,,,1014,2019_Mar_06_1244,mf_amp_cond2,3.0.4,60.070203973553134,
corruption,&&&&&,right,sanctity.vice,scock,,,,,,,,,,,,,,,0,49,49,244,,,,,,,,,,,,,AMP,right,1.1838724720291793,1,,,,,,,,,,,,,,right,1,1.1838724720291793,,,,,,,,,,,1014,2019_Mar_06_1244,mf_amp_cond2,3.0.4,60.070203973553134,
died,&&&&&&&&&&,right,care.vice,totalestic,,,,,,,,,,,,,,,0,50,50,38,,,,,,,,,,,,,AMP,right,0.8171175863826647,1,,,,,,,,,,,,,,right,1,0.8171175863826647,,,,,,,,,,,1014,2019_Mar_06_1244,mf_amp_cond2,3.0.4,60.070203973553134,
failure,&&&&&&&&&&,right,loyalty.vice,Oregoniuns,,,,,,,,,,,,,,,0,51,51,181,,,,,,,,,,,,,AMP,left,0.8837962691904977,0,,,,,,,,,,,,,,left,0,0.8837962691904977,,,,,,,,,,,1014,2019_Mar_06_1244,mf_amp_cond2,3.0.4,60.070203973553134,
growth,&&&&&&&&&&,left,care.virtue,abointment,,,,,,,,,,,,,,,0,52,52,232,,,,,,,,,,,,,AMP,left,0.850455324165523,1,,,,,,,,,,,,,,left,1,0.850455324165523,,,,,,,,,,,1014,2019_Mar_06_1244,mf_amp_cond2,3.0.4,60.070203973553134,
care,&&&&&&&&,left,care.virtue,gowlands,,,,,,,,,,,,,,,0,53,53,193,,,,,,,,,,,,,AMP,right,0.5669233911903575,0,,,,,,,,,,,,,,right,0,0.5669233911903575,,,,,,,,,,,1014,2019_Mar_06_1244,mf_amp_cond2,3.0.4,60.070203973553134,
win,&&&&&&&,left,fairness.virtue,allears,,,,,,,,,,,,,,,0,54,54,270,,,,,,,,,,,,,AMP,right,0.5670831090537831,0,,,,,,,,,,,,,,right,0,0.5670831090537831,,,,,,,,,,,1014,2019_Mar_06_1244,mf_amp_cond2,3.0.4,60.070203973553134,
honored,&&&&&&&&,left,authority.virtue,pullness,,,,,,,,,,,,,,,0,55,55,99,,,,,,,,,,,,,AMP,right,0.5170647960621864,0,,,,,,,,,,,,,,right,0,0.5170647960621864,,,,,,,,,,,1014,2019_Mar_06_1244,mf_amp_cond2,3.0.4,60.070203973553134,
ban,&&&&&&&&&,right,loyalty.vice,godlaness,,,,,,,,,,,,,,,0,56,56,311,,,,,,,,,,,,,AMP,right,1.067127047572285,1,,,,,,,,,,,,,,right,1,1.067127047572285,,,,,,,,,,,1014,2019_Mar_06_1244,mf_amp_cond2,3.0.4,60.070203973553134,
racist,&&&&&&&&,right,sanctity.vice,sliptery,,,,,,,,,,,,,,,0,57,57,287,,,,,,,,,,,,,AMP,left,0.6504045223118737,0,,,,,,,,,,,,,,left,0,0.6504045223118737,,,,,,,,,,,1014,2019_Mar_06_1244,mf_amp_cond2,3.0.4,60.070203973553134,
commitment,&&&&&&&&&&&,left,sanctity.virtue,lempestuous,,,,,,,,,,,,,,,0,58,58,24,,,,,,,,,,,,,AMP,left,1.0671671372838318,1,,,,,,,,,,,,,,left,1,1.0671671372838318,,,,,,,,,,,1014,2019_Mar_06_1244,mf_amp_cond2,3.0.4,60.070203973553134,
racist,&&&&&&&&&&,right,sanctity.vice,lorthwhile,,,,,,,,,,,,,,,0,59,59,169,,,,,,,,,,,,,AMP,left,0.80044663278386,0,,,,,,,,,,,,,,left,0,0.80044663278386,,,,,,,,,,,1014,2019_Mar_06_1244,mf_amp_cond2,3.0.4,60.070203973553134,
fraud,&&&&&&&&,right,fairness.vice,glacenta,,,,,,,,,,,,,,,0,60,60,109,,,,,,,,,,,,,AMP,left,1.73405018215999,0,,,,,,,,,,,,,,left,0,1.73405018215999,,,,,,,,,,,1014,2019_Mar_06_1244,mf_amp_cond2,3.0.4,60.070203973553134,
respect,&&&&&,left,sanctity.virtue,uller,,,,,,,,,,,,,,,0,61,61,119,,,,,,,,,,,,,AMP,right,0.5503387108910829,0,,,,,,,,,,,,,,right,0,0.5503387108910829,,,,,,,,,,,1014,2019_Mar_06_1244,mf_amp_cond2,3.0.4,60.070203973553134,
failure,&&&&&&,right,loyalty.vice,Boeinf,,,,,,,,,,,,,,,0,62,62,40,,,,,,,,,,,,,AMP,right,1.7840229532448575,1,,,,,,,,,,,,,,right,1,1.7840229532448575,,,,,,,,,,,1014,2019_Mar_06_1244,mf_amp_cond2,3.0.4,60.070203973553134,
love,&&&&&,left,loyalty.virtue,touls,,,,,,,,,,,,,,,0,63,63,314,,,,,,,,,,,,,AMP,right,1.2838866477832198,0,,,,,,,,,,,,,,right,0,1.2838866477832198,,,,,,,,,,,1014,2019_Mar_06_1244,mf_amp_cond2,3.0.4,60.070203973553134,
agreement,&&&&&&&&&,left,fairness.virtue,refuejing,,,,,,,,,,,,,,,0,64,64,187,,,,,,,,,,,,,AMP,right,0.9004226429387927,0,,,,,,,,,,,,,,right,0,0.9004226429387927,,,,,,,,,,,1014,2019_Mar_06_1244,mf_amp_cond2,3.0.4,60.070203973553134,
rebels,&&&,right,authority.vice,mih,,,,,,,,,,,,,,,0,65,65,112,,,,,,,,,,,,,AMP,right,0.917261011665687,1,,,,,,,,,,,,,,right,1,0.917261011665687,,,,,,,,,,,1014,2019_Mar_06_1244,mf_amp_cond2,3.0.4,60.070203973553134,
intelligence,&&&,left,loyalty.virtue,oam,,,,,,,,,,,,,,,0,66,66,4,,,,,,,,,,,,,AMP,right,0.8338116316590458,0,,,,,,,,,,,,,,right,0,0.8338116316590458,,,,,,,,,,,1014,2019_Mar_06_1244,mf_amp_cond2,3.0.4,60.070203973553134,
metibolic,&&&&&&,None,nonword,forepo,,,,,,,,,,,,,,,0,67,67,309,,,,,,,,,,,,,AMP,right,0.8337862949119881,0,,,,,,,,,,,,,,right,0,0.8337862949119881,,,,,,,,,,,1014,2019_Mar_06_1244,mf_amp_cond2,3.0.4,60.070203973553134,
intelligence,&&&&&,left,loyalty.virtue,infet,,,,,,,,,,,,,,,0,68,68,202,,,,,,,,,,,,,AMP,right,0.9838242359692231,0,,,,,,,,,,,,,,right,0,0.9838242359692231,,,,,,,,,,,1014,2019_Mar_06_1244,mf_amp_cond2,3.0.4,60.070203973553134,
sharing,&&&&&&&,left,loyalty.virtue,lursuer,,,,,,,,,,,,,,,0,69,69,56,,,,,,,,,,,,,AMP,right,0.8504569279029965,0,,,,,,,,,,,,,,right,0,0.8504569279029965,,,,,,,,,,,1014,2019_Mar_06_1244,mf_amp_cond2,3.0.4,60.070203973553134,
strength,&&&&&&,left,sanctity.virtue,prones,,,,,,,,,,,,,,,0,70,70,164,,,,,,,,,,,,,AMP,right,0.7837291749892756,0,,,,,,,,,,,,,,right,0,0.7837291749892756,,,,,,,,,,,1014,2019_Mar_06_1244,mf_amp_cond2,3.0.4,60.070203973553134,
ensure,&&&&&&&&&&,left,fairness.virtue,chonograph,,,,,,,,,,,,,,,0,71,71,77,,,,,,,,,,,,,AMP,right,0.7337785335257649,0,,,,,,,,,,,,,,right,0,0.7337785335257649,,,,,,,,,,,1014,2019_Mar_06_1244,mf_amp_cond2,3.0.4,60.070203973553134,
voter,&&&&&&&&,right,fairness.vice,gowlands,,,,,,,,,,,,,,,0,72,72,29,,,,,,,,,,,,,AMP,right,1.0004967930726707,1,,,,,,,,,,,,,,right,1,1.0004967930726707,,,,,,,,,,,1014,2019_Mar_06_1244,mf_amp_cond2,3.0.4,60.070203973553134,
torture,&&&&&&&&&,right,care.vice,rivernoat,,,,,,,,,,,,,,,0,73,73,233,,,,,,,,,,,,,AMP,left,0.6170587665401399,0,,,,,,,,,,,,,,left,0,0.6170587665401399,,,,,,,,,,,1014,2019_Mar_06_1244,mf_amp_cond2,3.0.4,60.070203973553134,
charges,&&&&&&&&,right,fairness.vice,thabbily,,,,,,,,,,,,,,,0,74,74,125,,,,,,,,,,,,,AMP,left,1.984070868580602,0,,,,,,,,,,,,,,left,0,1.984070868580602,,,,,,,,,,,1014,2019_Mar_06_1244,mf_amp_cond2,3.0.4,60.070203973553134,
rebels,&&&&&&&&&&,right,authority.vice,gationwide,,,,,,,,,,,,,,,0,75,75,175,,,,,,,,,,,,,AMP,right,0.7671329487347975,1,,,,,,,,,,,,,,right,1,0.7671329487347975,,,,,,,,,,,1014,2019_Mar_06_1244,mf_amp_cond2,3.0.4,60.070203973553134,
noped,&&&&&&&,None,nonword,festate,,,,,,,,,,,,,,,0,76,76,205,,,,,,,,,,,,,AMP,left,0.9004790894687176,0,,,,,,,,,,,,,,left,0,0.9004790894687176,,,,,,,,,,,1014,2019_Mar_06_1244,mf_amp_cond2,3.0.4,60.070203973553134,
free,&&&&&&&&&&&,left,fairness.virtue,precificity,,,,,,,,,,,,,,,0,77,77,201,,,,,,,,,,,,,AMP,right,0.7004401542944834,0,,,,,,,,,,,,,,right,0,0.7004401542944834,,,,,,,,,,,1014,2019_Mar_06_1244,mf_amp_cond2,3.0.4,60.070203973553134,
critics,&&&&&,right,loyalty.vice,infet,,,,,,,,,,,,,,,0,78,78,8,,,,,,,,,,,,,AMP,right,2.367488689837046,1,,,,,,,,,,,,,,right,1,2.367488689837046,,,,,,,,,,,1014,2019_Mar_06_1244,mf_amp_cond2,3.0.4,60.070203973553134,
praise,&&&&&,left,authority.virtue,pafer,,,,,,,,,,,,,,,0,79,79,142,,,,,,,,,,,,,AMP,right,0.7671127435751259,0,,,,,,,,,,,,,,right,0,0.7671127435751259,,,,,,,,,,,1014,2019_Mar_06_1244,mf_amp_cond2,3.0.4,60.070203973553134,
credit,&&&&&&,left,fairness.virtue,antral,,,,,,,,,,,,,,,0,80,80,277,,,,,,,,,,,,,AMP,right,1.1338548003695905,0,,,,,,,,,,,,,,right,0,1.1338548003695905,,,,,,,,,,,1014,2019_Mar_06_1244,mf_amp_cond2,3.0.4,60.070203973553134,
restore,&&&&&&&&,left,care.virtue,thadowed,,,,,,,,,,,,,,,0,81,81,163,,,,,,,,,,,,,AMP,right,0.7504498078487813,0,,,,,,,,,,,,,,right,0,0.7504498078487813,,,,,,,,,,,1014,2019_Mar_06_1244,mf_amp_cond2,3.0.4,60.070203973553134,
agreement,&&&&&&,left,fairness.virtue,gazily,,,,,,,,,,,,,,,0,82,82,318,,,,,,,,,,,,,AMP,right,1.1171783945756033,0,,,,,,,,,,,,,,right,0,1.1171783945756033,,,,,,,,,,,1014,2019_Mar_06_1244,mf_amp_cond2,3.0.4,60.070203973553134,
blamed,&&&&,right,loyalty.vice,juck,,,,,,,,,,,,,,,0,83,83,177,,,,,,,,,,,,,AMP,left,1.4506330664735287,0,,,,,,,,,,,,,,left,0,1.4506330664735287,,,,,,,,,,,1014,2019_Mar_06_1244,mf_amp_cond2,3.0.4,60.070203973553134,
unpleasant,&&&&,None,control,alar,,,,,,,,,,,,,,,0,84,84,55,,,,,,,,,,,,,AMP,left,0.917169606895186,0,,,,,,,,,,,,,,left,0,0.917169606895186,,,,,,,,,,,1014,2019_Mar_06_1244,mf_amp_cond2,3.0.4,60.070203973553134,
opportunity,&&&&&&&&&&,left,fairness.virtue,fonderland,,,,,,,,,,,,,,,0,85,85,186,,,,,,,,,,,,,AMP,right,5.751646729768254,0,,,,,,,,,,,,,,right,0,5.751646729768254,,,,,,,,,,,1014,2019_Mar_06_1244,mf_amp_cond2,3.0.4,60.070203973553134,
ning,&&&&&&&&,None,nonword,gowlands,,,,,,,,,,,,,,,0,86,86,114,,,,,,,,,,,,,AMP,right,0.5671106908703223,0,,,,,,,,,,,,,,right,0,0.5671106908703223,,,,,,,,,,,1014,2019_Mar_06_1244,mf_amp_cond2,3.0.4,60.070203973553134,
brotesque,&&&&&&&&&&&&&,None,nonword,esquisiteness,,,,,,,,,,,,,,,0,87,87,192,,,,,,,,,,,,,AMP,left,0.5170320827746764,0,,,,,,,,,,,,,,left,0,0.5170320827746764,,,,,,,,,,,1014,2019_Mar_06_1244,mf_amp_cond2,3.0.4,60.070203973553134,
compassion,&&&&&&,left,care.virtue,Boeinf,,,,,,,,,,,,,,,0,88,88,184,,,,,,,,,,,,,AMP,right,0.883812946616672,0,,,,,,,,,,,,,,right,0,0.883812946616672,,,,,,,,,,,1014,2019_Mar_06_1244,mf_amp_cond2,3.0.4,60.070203973553134,
prosecution,&&&&&&&,right,authority.vice,dramens,,,,,,,,,,,,,,,0,89,89,194,,,,,,,,,,,,,AMP,right,1.4839589376933873,1,,,,,,,,,,,,,,right,1,1.4839589376933873,,,,,,,,,,,1014,2019_Mar_06_1244,mf_amp_cond2,3.0.4,60.070203973553134,
ittutable,&&&&&&&&&&&,None,nonword,precificity,,,,,,,,,,,,,,,0,90,90,30,,,,,,,,,,,,,AMP,right,1.0838467504363507,0,,,,,,,,,,,,,,right,0,1.0838467504363507,,,,,,,,,,,1014,2019_Mar_06_1244,mf_amp_cond2,3.0.4,60.070203973553134,
increase,&&&&&&&&&,left,care.virtue,disregord,,,,,,,,,,,,,,,0,91,91,149,,,,,,,,,,,,,AMP,right,1.2338878986192867,0,,,,,,,,,,,,,,right,0,1.2338878986192867,,,,,,,,,,,1014,2019_Mar_06_1244,mf_amp_cond2,3.0.4,60.070203973553134,
honored,&&&&,left,authority.virtue,erks,,,,,,,,,,,,,,,0,92,92,20,,,,,,,,,,,,,AMP,left,0.7837756790686399,1,,,,,,,,,,,,,,left,1,0.7837756790686399,,,,,,,,,,,1014,2019_Mar_06_1244,mf_amp_cond2,3.0.4,60.070203973553134,
ittutable,&&&&&&&&&&&&,None,nonword,gusinesslike,,,,,,,,,,,,,,,0,93,93,188,,,,,,,,,,,,,AMP,left,0.5837046719389036,0,,,,,,,,,,,,,,left,0,0.5837046719389036,,,,,,,,,,,1014,2019_Mar_06_1244,mf_amp_cond2,3.0.4,60.070203973553134,
troops,&&&&&&&&&,right,loyalty.vice,refuejing,,,,,,,,,,,,,,,0,94,94,257,,,,,,,,,,,,,AMP,right,0.9671430193120614,1,,,,,,,,,,,,,,right,1,0.9671430193120614,,,,,,,,,,,1014,2019_Mar_06_1244,mf_amp_cond2,3.0.4,60.070203973553134,
ning,&&&&&&&&,None,nonword,hescribe,,,,,,,,,,,,,,,0,95,95,166,,,,,,,,,,,,,AMP,right,0.800462347920984,0,,,,,,,,,,,,,,right,0,0.800462347920984,,,,,,,,,,,1014,2019_Mar_06_1244,mf_amp_cond2,3.0.4,60.070203973553134,
powerful,&&&&&&,left,authority.virtue,openet,,,,,,,,,,,,,,,0,96,96,189,,,,,,,,,,,,,AMP,right,0.5837152557214722,0,,,,,,,,,,,,,,right,0,0.5837152557214722,,,,,,,,,,,1014,2019_Mar_06_1244,mf_amp_cond2,3.0.4,60.070203973553134,
respect,&&&&&&&&&,left,sanctity.virtue,chressing,,,,,,,,,,,,,,,0,97,97,25,,,,,,,,,,,,,AMP,right,0.5170340071199462,0,,,,,,,,,,,,,,right,0,0.5170340071199462,,,,,,,,,,,1014,2019_Mar_06_1244,mf_amp_cond2,3.0.4,60.070203973553134,
conspiracy,&&&&&&&&&&,right,sanctity.vice,lorthwhile,,,,,,,,,,,,,,,0,98,98,82,,,,,,,,,,,,,AMP,right,0.7670970282051712,1,,,,,,,,,,,,,,right,1,0.7670970282051712,,,,,,,,,,,1014,2019_Mar_06_1244,mf_amp_cond2,3.0.4,60.070203973553134,
injured,&&&&&&&&&&&,right,care.vice,cromiscuity,,,,,,,,,,,,,,,0,99,99,267,,,,,,,,,,,,,AMP,right,0.7837942807236686,1,,,,,,,,,,,,,,right,1,0.7837942807236686,,,,,,,,,,,1014,2019_Mar_06_1244,mf_amp_cond2,3.0.4,60.070203973553134,
ning,&&&&&&&&&&,None,nonword,totalestic,,,,,,,,,,,,,,,0,100,100,280,,,,,,,,,,,,,AMP,right,1.00049262389075,0,,,,,,,,,,,,,,right,0,1.00049262389075,,,,,,,,,,,1014,2019_Mar_06_1244,mf_amp_cond2,3.0.4,60.070203973553134,
care,&&&&&&&&&,left,care.virtue,unscothed,,,,,,,,,,,,,,,0,101,101,69,,,,,,,,,,,,,AMP,right,0.817150941118598,0,,,,,,,,,,,,,,right,0,0.817150941118598,,,,,,,,,,,1014,2019_Mar_06_1244,mf_amp_cond2,3.0.4,60.070203973553134,
mightingale,&&&&&&&&,None,nonword,hescribe,,,,,,,,,,,,,,,0,102,102,283,,,,,,,,,,,,,AMP,right,0.7337551210075617,0,,,,,,,,,,,,,,right,0,0.7337551210075617,,,,,,,,,,,1014,2019_Mar_06_1244,mf_amp_cond2,3.0.4,60.070203973553134,
free,&&&&&&&&&&,left,fairness.virtue,honstables,,,,,,,,,,,,,,,0,103,103,253,,,,,,,,,,,,,AMP,left,0.6837547682225704,1,,,,,,,,,,,,,,left,1,0.6837547682225704,,,,,,,,,,,1014,2019_Mar_06_1244,mf_amp_cond2,3.0.4,60.070203973553134,
accused,&&&,right,fairness.vice,asn,,,,,,,,,,,,,,,0,104,104,308,,,,,,,,,,,,,AMP,right,1.1172117493115366,1,,,,,,,,,,,,,,right,1,1.1172117493115366,,,,,,,,,,,1014,2019_Mar_06_1244,mf_amp_cond2,3.0.4,60.070203973553134,
victim,&&&&&&&&&&&&,right,care.vice,gusinesslike,,,,,,,,,,,,,,,0,105,105,265,,,,,,,,,,,,,AMP,left,0.6170655016321689,0,,,,,,,,,,,,,,left,0,0.6170655016321689,,,,,,,,,,,1014,2019_Mar_06_1244,mf_amp_cond2,3.0.4,60.070203973553134,
progress,&&&,left,authority.virtue,mih,,,,,,,,,,,,,,,0,106,106,173,,,,,,,,,,,,,AMP,right,0.7671111398376524,0,,,,,,,,,,,,,,right,0,0.7671111398376524,,,,,,,,,,,1014,2019_Mar_06_1244,mf_amp_cond2,3.0.4,60.070203973553134,
increase,&&&,left,care.virtue,oam,,,,,,,,,,,,,,,0,107,107,165,,,,,,,,,,,,,AMP,right,0.71709667542018,0,,,,,,,,,,,,,,right,0,0.71709667542018,,,,,,,,,,,1014,2019_Mar_06_1244,mf_amp_cond2,3.0.4,60.070203973553134,
free,&&&&&,left,fairness.virtue,framo,,,,,,,,,,,,,,,0,108,108,26,,,,,,,,,,,,,AMP,right,0.6502611611504108,0,,,,,,,,,,,,,,right,0,0.6502611611504108,,,,,,,,,,,1014,2019_Mar_06_1244,mf_amp_cond2,3.0.4,60.070203973553134,
ban,&&&&&&,right,loyalty.vice,antral,,,,,,,,,,,,,,,0,109,109,36,,,,,,,,,,,,,AMP,left,0.6003923029638827,0,,,,,,,,,,,,,,left,0,0.6003923029638827,,,,,,,,,,,1014,2019_Mar_06_1244,mf_amp_cond2,3.0.4,60.070203973553134,
aubos,&&&&&&&,None,nonword,dramens,,,,,,,,,,,,,,,0,110,110,250,,,,,,,,,,,,,AMP,left,0.6671053027966991,0,,,,,,,,,,,,,,left,0,0.6671053027966991,,,,,,,,,,,1014,2019_Mar_06_1244,mf_amp_cond2,3.0.4,60.070203973553134,
ensure,&&&&&&&&&&,left,fairness.virtue,frocessing,,,,,,,,,,,,,,,0,111,111,305,,,,,,,,,,,,,AMP,right,1.050505484570749,0,,,,,,,,,,,,,,right,0,1.050505484570749,,,,,,,,,,,1014,2019_Mar_06_1244,mf_amp_cond2,3.0.4,60.070203973553134,
party,&&&&&&&,left,loyalty.virtue,sickyay,,,,,,,,,,,,,,,0,112,112,17,,,,,,,,,,,,,AMP,left,0.8838058908004314,1,,,,,,,,,,,,,,left,1,0.8838058908004314,,,,,,,,,,,1014,2019_Mar_06_1244,mf_amp_cond2,3.0.4,60.070203973553134,
safety,&&&&&&,left,care.virtue,gazily,,,,,,,,,,,,,,,0,113,113,53,,,,,,,,,,,,,AMP,right,0.8004472742322832,0,,,,,,,,,,,,,,right,0,0.8004472742322832,,,,,,,,,,,1014,2019_Mar_06_1244,mf_amp_cond2,3.0.4,60.070203973553134,
army,&&&&&&&&&&&,right,loyalty.vice,cromiscuity,,,,,,,,,,,,,,,0,114,114,153,,,,,,,,,,,,,AMP,right,1.0338387003866956,1,,,,,,,,,,,,,,right,1,1.0338387003866956,,,,,,,,,,,1014,2019_Mar_06_1244,mf_amp_cond2,3.0.4,60.070203973553134,
prosecution,&&&&&&&&&&&&,right,authority.vice,iptervention,,,,,,,,,,,,,,,0,115,115,44,,,,,,,,,,,,,AMP,right,1.7173301585717127,1,,,,,,,,,,,,,,right,1,1.7173301585717127,,,,,,,,,,,1014,2019_Mar_06_1244,mf_amp_cond2,3.0.4,60.070203973553134,
win,&&&&&&&&&&&,left,fairness.virtue,nomparisons,,,,,,,,,,,,,,,0,116,116,196,,,,,,,,,,,,,AMP,right,0.9004688264103606,0,,,,,,,,,,,,,,right,0,0.9004688264103606,,,,,,,,,,,1014,2019_Mar_06_1244,mf_amp_cond2,3.0.4,60.070203973553134,
police,&&&&&&&&&&,right,authority.vice,gationwide,,,,,,,,,,,,,,,0,117,117,13,,,,,,,,,,,,,AMP,left,0.7671082534361631,0,,,,,,,,,,,,,,left,0,0.7671082534361631,,,,,,,,,,,1014,2019_Mar_06_1244,mf_amp_cond2,3.0.4,60.070203973553134,
neneficence,&&&&&,None,nonword,uller,,,,,,,,,,,,,,,0,118,118,64,,,,,,,,,,,,,AMP,left,0.9338161859195679,0,,,,,,,,,,,,,,left,0,0.9338161859195679,,,,,,,,,,,1014,2019_Mar_06_1244,mf_amp_cond2,3.0.4,60.070203973553134,
torture,&&&&&&&&&,right,care.vice,grovelire,,,,,,,,,,,,,,,0,119,119,85,,,,,,,,,,,,,AMP,left,0.5170336863957345,0,,,,,,,,,,,,,,left,0,0.5170336863957345,,,,,,,,,,,1014,2019_Mar_06_1244,mf_amp_cond2,3.0.4,60.070203973553134,
praised,&&&&&,left,loyalty.virtue,uller,,,,,,,,,,,,,,,0,120,120,182,,,,,,,,,,,,,AMP,right,0.41701951052527875,0,,,,,,,,,,,,,,right,0,0.41701951052527875,,,,,,,,,,,1014,2019_Mar_06_1244,mf_amp_cond2,3.0.4,60.070203973553134,
care,&&&&&&,left,care.virtue,Boeinf,,,,,,,,,,,,,,,0,121,121,140,,,,,,,,,,,,,AMP,right,0.6337332481052727,0,,,,,,,,,,,,,,right,0,0.6337332481052727,,,,,,,,,,,1014,2019_Mar_06_1244,mf_amp_cond2,3.0.4,60.070203973553134,
increase,&&&&&&&&&&,left,care.virtue,imebreaker,,,,,,,,,,,,,,,0,122,122,2,,,,,,,,,,,,,AMP,right,1.0171642188215628,0,,,,,,,,,,,,,,right,0,1.0171642188215628,,,,,,,,,,,1014,2019_Mar_06_1244,mf_amp_cond2,3.0.4,60.070203973553134,
agreement,&&&&&&&&,left,fairness.virtue,glacenta,,,,,,,,,,,,,,,0,123,123,80,,,,,,,,,,,,,AMP,right,0.8171201520599425,0,,,,,,,,,,,,,,right,0,0.8171201520599425,,,,,,,,,,,1014,2019_Mar_06_1244,mf_amp_cond2,3.0.4,60.070203973553134,
corruption,&&&&&&&&&&&,right,sanctity.vice,presentkess,,,,,,,,,,,,,,,0,124,124,258,,,,,,,,,,,,,AMP,left,0.7004193075699732,0,,,,,,,,,,,,,,left,0,0.7004193075699732,,,,,,,,,,,1014,2019_Mar_06_1244,mf_amp_cond2,3.0.4,60.070203973553134,
opportunity,&&&&&&&&,left,fairness.virtue,thabbily,,,,,,,,,,,,,,,0,125,125,23,,,,,,,,,,,,,AMP,left,0.6004153947578743,1,,,,,,,,,,,,,,left,1,0.6004153947578743,,,,,,,,,,,1014,2019_Mar_06_1244,mf_amp_cond2,3.0.4,60.070203973553134,
encourage,&&&&,left,authority.virtue,wump,,,,,,,,,,,,,,,0,126,126,89,,,,,,,,,,,,,AMP,right,0.38367503765039146,0,,,,,,,,,,,,,,right,0,0.38367503765039146,,,,,,,,,,,1014,2019_Mar_06_1244,mf_amp_cond2,3.0.4,60.070203973553134,
commitment,&&&&&&&&,left,sanctity.virtue,bluently,,,,,,,,,,,,,,,0,127,127,289,,,,,,,,,,,,,AMP,right,0.46706380182877183,0,,,,,,,,,,,,,,right,0,0.46706380182877183,,,,,,,,,,,1014,2019_Mar_06_1244,mf_amp_cond2,3.0.4,60.070203973553134,
victim,&&&&&&&&&&&,right,care.vice,blunderints,,,,,,,,,,,,,,,0,128,128,21,,,,,,,,,,,,,AMP,right,0.5503848944790661,1,,,,,,,,,,,,,,right,1,0.5503848944790661,,,,,,,,,,,1014,2019_Mar_06_1244,mf_amp_cond2,3.0.4,60.070203973553134,
rebels,&&&&&&&&,right,authority.vice,glacenta,,,,,,,,,,,,,,,0,129,129,326,,,,,,,,,,,,,AMP,right,0.617054597241804,1,,,,,,,,,,,,,,right,1,0.617054597241804,,,,,,,,,,,1014,2019_Mar_06_1244,mf_amp_cond2,3.0.4,60.070203973553134,
army,&&&&,right,loyalty.vice,tove,,,,,,,,,,,,,,,0,130,130,203,,,,,,,,,,,,,AMP,left,0.4836988348979503,0,,,,,,,,,,,,,,left,0,0.4836988348979503,,,,,,,,,,,1014,2019_Mar_06_1244,mf_amp_cond2,3.0.4,60.070203973553134,
loyalty,&&&&&&,left,loyalty.virtue,fostet,,,,,,,,,,,,,,,0,131,131,226,,,,,,,,,,,,,AMP,left,0.6670812489464879,1,,,,,,,,,,,,,,left,1,0.6670812489464879,,,,,,,,,,,1014,2019_Mar_06_1244,mf_amp_cond2,3.0.4,60.070203973553134,
pleasant,&&&&&,None,control,infet,,,,,,,,,,,,,,,0,132,132,249,,,,,,,,,,,,,AMP,left,0.4836991556221619,0,,,,,,,,,,,,,,left,0,0.4836991556221619,,,,,,,,,,,1014,2019_Mar_06_1244,mf_amp_cond2,3.0.4,60.070203973553134,
progress,&&&&&&&&&&&&,left,authority.virtue,rorroborated,,,,,,,,,,,,,,,0,133,133,302,,,,,,,,,,,,,AMP,left,0.3336714777396992,1,,,,,,,,,,,,,,left,1,0.3336714777396992,,,,,,,,,,,1014,2019_Mar_06_1244,mf_amp_cond2,3.0.4,60.070203973553134,
crime,&&&&&&&&&,right,fairness.vice,godlaness,,,,,,,,,,,,,,,0,134,134,223,,,,,,,,,,,,,AMP,right,0.6171046292874962,1,,,,,,,,,,,,,,right,1,0.6171046292874962,,,,,,,,,,,1014,2019_Mar_06_1244,mf_amp_cond2,3.0.4,60.070203973553134,
violence,&&&&&&&&,right,care.vice,sliptery,,,,,,,,,,,,,,,0,135,135,209,,,,,,,,,,,,,AMP,left,0.36694924114272,0,,,,,,,,,,,,,,left,0,0.36694924114272,,,,,,,,,,,1014,2019_Mar_06_1244,mf_amp_cond2,3.0.4,60.070203973553134,
police,&&&&&&&&&,right,authority.vice,rivernoat,,,,,,,,,,,,,,,0,136,136,138,,,,,,,,,,,,,AMP,left,0.4670262777945027,0,,,,,,,,,,,,,,left,0,0.4670262777945027,,,,,,,,,,,1014,2019_Mar_06_1244,mf_amp_cond2,3.0.4,60.070203973553134,
peace,&&&&&&&&&,left,care.virtue,unscothed,,,,,,,,,,,,,,,0,137,137,254,,,,,,,,,,,,,AMP,right,0.4337177253328264,0,,,,,,,,,,,,,,right,0,0.4337177253328264,,,,,,,,,,,1014,2019_Mar_06_1244,mf_amp_cond2,3.0.4,60.070203973553134,
respect,&&&&,left,sanctity.virtue,erks,,,,,,,,,,,,,,,0,138,138,299,,,,,,,,,,,,,AMP,right,0.4336914262967184,0,,,,,,,,,,,,,,right,0,0.4336914262967184,,,,,,,,,,,1014,2019_Mar_06_1244,mf_amp_cond2,3.0.4,60.070203973553134,
ensure,&&&&&,left,fairness.virtue,pafer,,,,,,,,,,,,,,,0,139,139,198,,,,,,,,,,,,,AMP,right,0.76709574542474,0,,,,,,,,,,,,,,right,0,0.76709574542474,,,,,,,,,,,1014,2019_Mar_06_1244,mf_amp_cond2,3.0.4,60.070203973553134,
praise,&&&&&&&,left,authority.virtue,carvels,,,,,,,,,,,,,,,0,140,140,70,,,,,,,,,,,,,AMP,right,0.4170211141463369,0,,,,,,,,,,,,,,right,0,0.4170211141463369,,,,,,,,,,,1014,2019_Mar_06_1244,mf_amp_cond2,3.0.4,60.070203973553134,
dignity,&&&&&&,left,sanctity.virtue,prones,,,,,,,,,,,,,,,0,141,141,292,,,,,,,,,,,,,AMP,right,0.7338157369522378,0,,,,,,,,,,,,,,right,0,0.7338157369522378,,,,,,,,,,,1014,2019_Mar_06_1244,mf_amp_cond2,3.0.4,60.070203973553134,
love,&&&&&&&,left,loyalty.virtue,dramens,,,,,,,,,,,,,,,0,142,142,49,,,,,,,,,,,,,AMP,right,0.433672824758105,0,,,,,,,,,,,,,,right,0,0.433672824758105,,,,,,,,,,,1014,2019_Mar_06_1244,mf_amp_cond2,3.0.4,60.070203973553134,
violence,&&&,right,care.vice,oam,,,,,,,,,,,,,,,0,143,143,103,,,,,,,,,,,,,AMP,left,0.4337209324585274,0,,,,,,,,,,,,,,left,0,0.4337209324585274,,,,,,,,,,,1014,2019_Mar_06_1244,mf_amp_cond2,3.0.4,60.070203973553134,
pleasant,&&&&&&&&&&&&,None,control,gusinesslike,,,,,,,,,,,,,,,0,144,144,37,,,,,,,,,,,,,AMP,right,0.7003763312241063,0,,,,,,,,,,,,,,right,0,0.7003763312241063,,,,,,,,,,,1014,2019_Mar_06_1244,mf_amp_cond2,3.0.4,60.070203973553134,
dignity,&&&&&&&&&&,left,sanctity.virtue,abointment,,,,,,,,,,,,,,,0,145,145,115,,,,,,,,,,,,,AMP,right,0.6337220229906961,0,,,,,,,,,,,,,,right,0,0.6337220229906961,,,,,,,,,,,1014,2019_Mar_06_1244,mf_amp_cond2,3.0.4,60.070203973553134,
groups,&&&&&&&&&&&,right,loyalty.vice,cromiscuity,,,,,,,,,,,,,,,0,146,146,41,,,,,,,,,,,,,AMP,right,0.7004590766737238,1,,,,,,,,,,,,,,right,1,0.7004590766737238,,,,,,,,,,,1014,2019_Mar_06_1244,mf_amp_cond2,3.0.4,60.070203973553134,
injured,&&&,right,care.vice,mih,,,,,,,,,,,,,,,0,147,147,59,,,,,,,,,,,,,AMP,left,0.650408691726625,0,,,,,,,,,,,,,,left,0,0.650408691726625,,,,,,,,,,,1014,2019_Mar_06_1244,mf_amp_cond2,3.0.4,60.070203973553134,
ning,&&&&&&&&,None,nonword,bluently,,,,,,,,,,,,,,,0,148,148,16,,,,,,,,,,,,,AMP,right,1.500610006856732,0,,,,,,,,,,,,,,right,0,1.500610006856732,,,,,,,,,,,1014,2019_Mar_06_1244,mf_amp_cond2,3.0.4,60.070203973553134,
growth,&&&&&&&&&&,left,care.virtue,pistraught,,,,,,,,,,,,,,,0,149,149,22,,,,,,,,,,,,,AMP,right,0.9838328954065219,0,,,,,,,,,,,,,,right,0,0.9838328954065219,,,,,,,,,,,1014,2019_Mar_06_1244,mf_amp_cond2,3.0.4,60.070203973553134,
refused,&&&&&&&,right,authority.vice,carvels,,,,,,,,,,,,,,,0,150,150,317,,,,,,,,,,,,,AMP,left,0.6670725895091891,0,,,,,,,,,,,,,,left,0,0.6670725895091891,,,,,,,,,,,1014,2019_Mar_06_1244,mf_amp_cond2,3.0.4,60.070203973553134,
protesters,&&&&&&,right,authority.vice,openet,,,,,,,,,,,,,,,0,151,151,154,,,,,,,,,,,,,AMP,right,0.8171102098422125,1,,,,,,,,,,,,,,right,1,0.8171102098422125,,,,,,,,,,,1014,2019_Mar_06_1244,mf_amp_cond2,3.0.4,60.070203973553134,
peace,&&&&&&&&&&&,left,care.virtue,blunderints,,,,,,,,,,,,,,,0,152,152,121,,,,,,,,,,,,,AMP,right,0.8504627007059753,0,,,,,,,,,,,,,,right,0,0.8504627007059753,,,,,,,,,,,1014,2019_Mar_06_1244,mf_amp_cond2,3.0.4,60.070203973553134,
peace,&&&&&,left,care.virtue,lenon,,,,,,,,,,,,,,,0,153,153,0,,,,,,,,,,,,,AMP,right,0.6337338895536959,0,,,,,,,,,,,,,,right,0,0.6337338895536959,,,,,,,,,,,1014,2019_Mar_06_1244,mf_amp_cond2,3.0.4,60.070203973553134,
racist,&&&&&&&,right,sanctity.vice,dramens,,,,,,,,,,,,,,,0,154,154,97,,,,,,,,,,,,,AMP,left,0.5003739579115063,0,,,,,,,,,,,,,,left,0,0.5003739579115063,,,,,,,,,,,1014,2019_Mar_06_1244,mf_amp_cond2,3.0.4,60.070203973553134,
fear,&&&&&&&&&&,right,sanctity.vice,lorthwhile,,,,,,,,,,,,,,,0,155,155,60,,,,,,,,,,,,,AMP,left,1.8340306824538857,0,,,,,,,,,,,,,,left,0,1.8340306824538857,,,,,,,,,,,1014,2019_Mar_06_1244,mf_amp_cond2,3.0.4,60.070203973553134,
mightingale,&&&&&&&,None,nonword,baklara,,,,,,,,,,,,,,,0,156,156,11,,,,,,,,,,,,,AMP,left,1.0004826815566048,0,,,,,,,,,,,,,,left,0,1.0004826815566048,,,,,,,,,,,1014,2019_Mar_06_1244,mf_amp_cond2,3.0.4,60.070203973553134,
support,&&&&&&&&&,left,loyalty.virtue,disregord,,,,,,,,,,,,,,,0,157,157,76,,,,,,,,,,,,,AMP,right,0.817102191853337,0,,,,,,,,,,,,,,right,0,0.817102191853337,,,,,,,,,,,1014,2019_Mar_06_1244,mf_amp_cond2,3.0.4,60.070203973553134,
drug,&&&&&,right,sanctity.vice,pafer,,,,,,,,,,,,,,,0,158,158,271,,,,,,,,,,,,,AMP,left,0.9004669020650908,0,,,,,,,,,,,,,,left,0,0.9004669020650908,,,,,,,,,,,1014,2019_Mar_06_1244,mf_amp_cond2,3.0.4,60.070203973553134,
ablow,&&&&&&&&&&&,None,nonword,nomparisons,,,,,,,,,,,,,,,0,159,159,252,,,,,,,,,,,,,AMP,right,1.06721428304445,0,,,,,,,,,,,,,,right,0,1.06721428304445,,,,,,,,,,,1014,2019_Mar_06_1244,mf_amp_cond2,3.0.4,60.070203973553134,
ittutable,&&&&&&&&&&&&,None,nonword,unreflectuve,,,,,,,,,,,,,,,0,160,160,90,,,,,,,,,,,,,AMP,left,1.017168388236314,0,,,,,,,,,,,,,,left,0,1.017168388236314,,,,,,,,,,,1014,2019_Mar_06_1244,mf_amp_cond2,3.0.4,60.070203973553134,
sexual,&&&&,right,sanctity.vice,erks,,,,,,,,,,,,,,,0,161,161,227,,,,,,,,,,,,,AMP,right,0.8004440671065822,1,,,,,,,,,,,,,,right,1,0.8004440671065822,,,,,,,,,,,1014,2019_Mar_06_1244,mf_amp_cond2,3.0.4,60.070203973553134,
support,&&&&&&&&&&,left,loyalty.virtue,chonograph,,,,,,,,,,,,,,,0,162,162,247,,,,,,,,,,,,,AMP,right,1.1005241182865575,0,,,,,,,,,,,,,,right,0,1.1005241182865575,,,,,,,,,,,1014,2019_Mar_06_1244,mf_amp_cond2,3.0.4,60.070203973553134,
hand,&&&&&&&&&&&&,left,sanctity.virtue,edancipation,,,,,,,,,,,,,,,0,163,163,259,,,,,,,,,,,,,AMP,right,1.333911375142634,0,,,,,,,,,,,,,,right,0,1.333911375142634,,,,,,,,,,,1014,2019_Mar_06_1244,mf_amp_cond2,3.0.4,60.070203973553134,
strength,&&&&&&&&,left,sanctity.virtue,ebbitter,,,,,,,,,,,,,,,0,164,164,272,,,,,,,,,,,,,AMP,right,1.150522867566906,0,,,,,,,,,,,,,,right,0,1.150522867566906,,,,,,,,,,,1014,2019_Mar_06_1244,mf_amp_cond2,3.0.4,60.070203973553134,
win,&&&&&&&&&&,left,fairness.virtue,fonderland,,,,,,,,,,,,,,,0,165,165,147,,,,,,,,,,,,,AMP,right,0.8671314092352986,0,,,,,,,,,,,,,,right,0,0.8671314092352986,,,,,,,,,,,1014,2019_Mar_06_1244,mf_amp_cond2,3.0.4,60.070203973553134,
clean,&&&&&&&&&&,left,sanctity.virtue,imebreaker,,,,,,,,,,,,,,,0,166,166,313,,,,,,,,,,,,,AMP,right,0.967150075128302,0,,,,,,,,,,,,,,right,0,0.967150075128302,,,,,,,,,,,1014,2019_Mar_06_1244,mf_amp_cond2,3.0.4,60.070203973553134,
harassment,&&&&&&&&,right,sanctity.vice,thadowed,,,,,,,,,,,,,,,0,167,167,279,,,,,,,,,,,,,AMP,left,0.4837020421400666,0,,,,,,,,,,,,,,left,0,0.4837020421400666,,,,,,,,,,,1014,2019_Mar_06_1244,mf_amp_cond2,3.0.4,60.070203973553134,
praised,&&&&&&,left,loyalty.virtue,sgrawl,,,,,,,,,,,,,,,0,168,168,288,,,,,,,,,,,,,AMP,right,0.7837330235633999,0,,,,,,,,,,,,,,right,0,0.7837330235633999,,,,,,,,,,,1014,2019_Mar_06_1244,mf_amp_cond2,3.0.4,60.070203973553134,
fear,&&&&&&&,right,sanctity.vice,troubla,,,,,,,,,,,,,,,0,169,169,93,,,,,,,,,,,,,AMP,left,0.6337393417488784,0,,,,,,,,,,,,,,left,0,0.6337393417488784,,,,,,,,,,,1014,2019_Mar_06_1244,mf_amp_cond2,3.0.4,60.070203973553134,
lies,&&&&&&&&&&,right,fairness.vice,gationwide,,,,,,,,,,,,,,,0,170,170,150,,,,,,,,,,,,,AMP,left,0.7337608940433711,0,,,,,,,,,,,,,,left,0,0.7337608940433711,,,,,,,,,,,1014,2019_Mar_06_1244,mf_amp_cond2,3.0.4,60.070203973553134,
encourage,&&&&&&,left,authority.virtue,gazily,,,,,,,,,,,,,,,0,171,171,245,,,,,,,,,,,,,AMP,right,1.0504981080302969,0,,,,,,,,,,,,,,right,0,1.0504981080302969,,,,,,,,,,,1014,2019_Mar_06_1244,mf_amp_cond2,3.0.4,60.070203973553134,
praise,&&&&,left,authority.virtue,alar,,,,,,,,,,,,,,,0,172,172,273,,,,,,,,,,,,,AMP,right,1.250550834229216,0,,,,,,,,,,,,,,right,0,1.250550834229216,,,,,,,,,,,1014,2019_Mar_06_1244,mf_amp_cond2,3.0.4,60.070203973553134,
died,&&&&&&,right,care.vice,laming,,,,,,,,,,,,,,,0,173,173,178,,,,,,,,,,,,,AMP,left,0.7004055166617036,0,,,,,,,,,,,,,,left,0,0.7004055166617036,,,,,,,,,,,1014,2019_Mar_06_1244,mf_amp_cond2,3.0.4,60.070203973553134,
victim,&&&&&&&&&&&&,right,care.vice,edancipation,,,,,,,,,,,,,,,0,174,174,211,,,,,,,,,,,,,AMP,left,0.9338100922759622,0,,,,,,,,,,,,,,left,0,0.9338100922759622,,,,,,,,,,,1014,2019_Mar_06_1244,mf_amp_cond2,3.0.4,60.070203973553134,
blamed,&&&&&&&&&,right,loyalty.vice,chressing,,,,,,,,,,,,,,,0,175,175,146,,,,,,,,,,,,,AMP,left,1.0338598678354174,0,,,,,,,,,,,,,,left,0,1.0338598678354174,,,,,,,,,,,1014,2019_Mar_06_1244,mf_amp_cond2,3.0.4,60.070203973553134,
violence,&&&&&&&&&&,right,care.vice,abointment,,,,,,,,,,,,,,,0,176,176,5,,,,,,,,,,,,,AMP,left,0.7504302440211177,0,,,,,,,,,,,,,,left,0,0.7504302440211177,,,,,,,,,,,1014,2019_Mar_06_1244,mf_amp_cond2,3.0.4,60.070203973553134,
corruption,&&&&&&&&&,right,sanctity.vice,grovelire,,,,,,,,,,,,,,,0,177,177,34,,,,,,,,,,,,,AMP,left,0.5170721726026386,0,,,,,,,,,,,,,,left,0,0.5170721726026386,,,,,,,,,,,1014,2019_Mar_06_1244,mf_amp_cond2,3.0.4,60.070203973553134,
accused,&&&&&&&&,right,fairness.vice,thabbily,,,,,,,,,,,,,,,0,178,178,204,,,,,,,,,,,,,AMP,left,0.6837505989242345,0,,,,,,,,,,,,,,left,0,0.6837505989242345,,,,,,,,,,,1014,2019_Mar_06_1244,mf_amp_cond2,3.0.4,60.070203973553134,
groups,&&&&&&&&,right,loyalty.vice,slending,,,,,,,,,,,,,,,0,179,179,264,,,,,,,,,,,,,AMP,right,0.9338149030227214,1,,,,,,,,,,,,,,right,1,0.9338149030227214,,,,,,,,,,,1014,2019_Mar_06_1244,mf_amp_cond2,3.0.4,60.070203973553134,
credit,&&&&&&,left,fairness.virtue,fostet,,,,,,,,,,,,,,,0,180,180,65,,,,,,,,,,,,,AMP,right,1.5672951041487977,0,,,,,,,,,,,,,,right,0,1.5672951041487977,,,,,,,,,,,1014,2019_Mar_06_1244,mf_amp_cond2,3.0.4,60.070203973553134,
benefit,&&&&&&&&&,left,fairness.virtue,chressing,,,,,,,,,,,,,,,0,181,181,320,,,,,,,,,,,,,AMP,right,0.8004379733465612,0,,,,,,,,,,,,,,right,0,0.8004379733465612,,,,,,,,,,,1014,2019_Mar_06_1244,mf_amp_cond2,3.0.4,60.070203973553134,
ensure,&&&&&&&&,left,fairness.virtue,ebbitter,,,,,,,,,,,,,,,0,182,182,104,,,,,,,,,,,,,AMP,left,1.3505961196497083,1,,,,,,,,,,,,,,left,1,1.3505961196497083,,,,,,,,,,,1014,2019_Mar_06_1244,mf_amp_cond2,3.0.4,60.070203973553134,
brotesque,&&&&&&&&&&,None,nonword,frocessing,,,,,,,,,,,,,,,0,183,183,14,,,,,,,,,,,,,AMP,left,0.8171422816812992,0,,,,,,,,,,,,,,left,0,0.8171422816812992,,,,,,,,,,,1014,2019_Mar_06_1244,mf_amp_cond2,3.0.4,60.070203973553134,
encourage,&&&&&&&,left,authority.virtue,festate,,,,,,,,,,,,,,,0,184,184,46,,,,,,,,,,,,,AMP,right,0.9838239152450114,0,,,,,,,,,,,,,,right,0,0.9838239152450114,,,,,,,,,,,1014,2019_Mar_06_1244,mf_amp_cond2,3.0.4,60.070203973553134,
fear,&&&&&&,right,sanctity.vice,fostet,,,,,,,,,,,,,,,0,185,185,327,,,,,,,,,,,,,AMP,right,0.7170941097429022,1,,,,,,,,,,,,,,right,1,0.7170941097429022,,,,,,,,,,,1014,2019_Mar_06_1244,mf_amp_cond2,3.0.4,60.070203973553134,
care,&&&&&&&&&&&,left,care.virtue,lempestuous,,,,,,,,,,,,,,,0,186,186,263,,,,,,,,,,,,,AMP,right,1.0171869898913428,0,,,,,,,,,,,,,,right,0,1.0171869898913428,,,,,,,,,,,1014,2019_Mar_06_1244,mf_amp_cond2,3.0.4,60.070203973553134,
powerful,&&&&&&&&&&&,left,authority.virtue,egpeditious,,,,,,,,,,,,,,,0,187,187,162,,,,,,,,,,,,,AMP,right,0.5837210286408663,0,,,,,,,,,,,,,,right,0,0.5837210286408663,,,,,,,,,,,1014,2019_Mar_06_1244,mf_amp_cond2,3.0.4,60.070203973553134,
lies,&&&&&&&&&&,right,fairness.vice,honstables,,,,,,,,,,,,,,,0,188,188,73,,,,,,,,,,,,,AMP,right,0.36703583516646177,1,,,,,,,,,,,,,,right,1,0.36703583516646177,,,,,,,,,,,1014,2019_Mar_06_1244,mf_amp_cond2,3.0.4,60.070203973553134,
shot,&&&&&&&&&,right,care.vice,rivernoat,,,,,,,,,,,,,,,0,189,189,48,,,,,,,,,,,,,AMP,right,0.8171060405438766,1,,,,,,,,,,,,,,right,1,0.8171060405438766,,,,,,,,,,,1014,2019_Mar_06_1244,mf_amp_cond2,3.0.4,60.070203973553134,
ittutable,&&&&&&&,None,nonword,lursuer,,,,,,,,,,,,,,,0,190,190,303,,,,,,,,,,,,,AMP,right,0.9671821469673887,0,,,,,,,,,,,,,,right,0,0.9671821469673887,,,,,,,,,,,1014,2019_Mar_06_1244,mf_amp_cond2,3.0.4,60.070203973553134,
death,&&&&,right,care.vice,wump,,,,,,,,,,,,,,,0,191,191,231,,,,,,,,,,,,,AMP,left,0.38368177274242043,0,,,,,,,,,,,,,,left,0,0.38368177274242043,,,,,,,,,,,1014,2019_Mar_06_1244,mf_amp_cond2,3.0.4,60.070203973553134,
sexual,&&&&&&&&&,right,sanctity.vice,unscothed,,,,,,,,,,,,,,,0,192,192,131,,,,,,,,,,,,,AMP,right,0.6837512403726578,1,,,,,,,,,,,,,,right,1,0.6837512403726578,,,,,,,,,,,1014,2019_Mar_06_1244,mf_amp_cond2,3.0.4,60.070203973553134,
conspiracy,&&&&&&,right,sanctity.vice,antral,,,,,,,,,,,,,,,0,193,193,207,,,,,,,,,,,,,AMP,left,0.583723915158771,0,,,,,,,,,,,,,,left,0,0.583723915158771,,,,,,,,,,,1014,2019_Mar_06_1244,mf_amp_cond2,3.0.4,60.070203973553134,
love,&&&&&&&&&&&,left,loyalty.virtue,nomparisons,,,,,,,,,,,,,,,0,194,194,101,,,,,,,,,,,,,AMP,right,0.7170889782719314,0,,,,,,,,,,,,,,right,0,0.7170889782719314,,,,,,,,,,,1014,2019_Mar_06_1244,mf_amp_cond2,3.0.4,60.070203973553134,
commitment,&&&&&&,left,sanctity.virtue,strofe,,,,,,,,,,,,,,,0,195,195,239,,,,,,,,,,,,,AMP,right,2.067445841850713,0,,,,,,,,,,,,,,right,0,2.067445841850713,,,,,,,,,,,1014,2019_Mar_06_1244,mf_amp_cond2,3.0.4,60.070203973553134,
praised,&&&&&&&&&&&&&,left,loyalty.virtue,esquisiteness,,,,,,,,,,,,,,,0,196,196,32,,,,,,,,,,,,,AMP,right,0.667102737003006,0,,,,,,,,,,,,,,right,0,0.667102737003006,,,,,,,,,,,1014,2019_Mar_06_1244,mf_amp_cond2,3.0.4,60.070203973553134,
voter,&&&&&&&&&&,right,fairness.vice,abointment,,,,,,,,,,,,,,,0,197,197,298,,,,,,,,,,,,,AMP,right,1.1671790680848062,1,,,,,,,,,,,,,,right,1,1.1671790680848062,,,,,,,,,,,1014,2019_Mar_06_1244,mf_amp_cond2,3.0.4,60.070203973553134,
crime,&&&&&&&&&&&&&,right,fairness.vice,esquisiteness,,,,,,,,,,,,,,,0,198,198,151,,,,,,,,,,,,,AMP,left,0.5504034961340949,0,,,,,,,,,,,,,,left,0,0.5504034961340949,,,,,,,,,,,1014,2019_Mar_06_1244,mf_amp_cond2,3.0.4,60.070203973553134,
shot,&&&&&&&,right,care.vice,carvels,,,,,,,,,,,,,,,0,199,199,159,,,,,,,,,,,,,AMP,left,0.650411257520318,0,,,,,,,,,,,,,,left,0,0.650411257520318,,,,,,,,,,,1014,2019_Mar_06_1244,mf_amp_cond2,3.0.4,60.070203973553134,
increase,&&&&&&&&&&,left,care.virtue,gationwide,,,,,,,,,,,,,,,0,200,200,307,,,,,,,,,,,,,AMP,right,1.9339079114142805,0,,,,,,,,,,,,,,right,0,1.9339079114142805,,,,,,,,,,,1014,2019_Mar_06_1244,mf_amp_cond2,3.0.4,60.070203973553134,
troops,&&&&&&&&&&&,right,loyalty.vice,egpeditious,,,,,,,,,,,,,,,0,201,201,19,,,,,,,,,,,,,AMP,left,1.5339913623174652,0,,,,,,,,,,,,,,left,0,1.5339913623174652,,,,,,,,,,,1014,2019_Mar_06_1244,mf_amp_cond2,3.0.4,60.070203973553134,
encourage,&&&&&&,left,authority.virtue,openet,,,,,,,,,,,,,,,0,202,202,325,,,,,,,,,,,,,AMP,right,0.7504385827342048,0,,,,,,,,,,,,,,right,0,0.7504385827342048,,,,,,,,,,,1014,2019_Mar_06_1244,mf_amp_cond2,3.0.4,60.070203973553134,
critics,&&&&&&&&&&&&,right,loyalty.vice,iptervention,,,,,,,,,,,,,,,0,203,203,111,,,,,,,,,,,,,AMP,right,0.9504765557358041,1,,,,,,,,,,,,,,right,1,0.9504765557358041,,,,,,,,,,,1014,2019_Mar_06_1244,mf_amp_cond2,3.0.4,60.070203973553134,
party,&&&&&&,left,loyalty.virtue,papert,,,,,,,,,,,,,,,0,204,204,236,,,,,,,,,,,,,AMP,right,0.9004813344217837,0,,,,,,,,,,,,,,right,0,0.9004813344217837,,,,,,,,,,,1014,2019_Mar_06_1244,mf_amp_cond2,3.0.4,60.070203973553134,
ablow,&&&&&&&,None,nonword,allears,,,,,,,,,,,,,,,0,205,205,135,,,,,,,,,,,,,AMP,right,1.367241095053032,0,,,,,,,,,,,,,,right,0,1.367241095053032,,,,,,,,,,,1014,2019_Mar_06_1244,mf_amp_cond2,3.0.4,60.070203973553134,
intelligence,&&&&&&&&&&&&,left,loyalty.virtue,edancipation,,,,,,,,,,,,,,,0,206,206,126,,,,,,,,,,,,,AMP,right,0.5003874280955642,0,,,,,,,,,,,,,,right,0,0.5003874280955642,,,,,,,,,,,1014,2019_Mar_06_1244,mf_amp_cond2,3.0.4,60.070203973553134,
growth,&&&&&&&&,left,care.virtue,gowlands,,,,,,,,,,,,,,,0,207,207,301,,,,,,,,,,,,,AMP,right,0.8170826280256733,0,,,,,,,,,,,,,,right,0,0.8170826280256733,,,,,,,,,,,1014,2019_Mar_06_1244,mf_amp_cond2,3.0.4,60.070203973553134,
clean,&&&&&&,left,sanctity.virtue,papert,,,,,,,,,,,,,,,0,208,208,144,,,,,,,,,,,,,AMP,right,0.7004135345341638,0,,,,,,,,,,,,,,right,0,0.7004135345341638,,,,,,,,,,,1014,2019_Mar_06_1244,mf_amp_cond2,3.0.4,60.070203973553134,
police,&&&&&&&&&,right,authority.vice,grovelire,,,,,,,,,,,,,,,0,209,209,294,,,,,,,,,,,,,AMP,left,0.5168890422210097,0,,,,,,,,,,,,,,left,0,0.5168890422210097,,,,,,,,,,,1014,2019_Mar_06_1244,mf_amp_cond2,3.0.4,60.070203973553134,
hate,&&&&&&&&&&&,right,fairness.vice,presentkess,,,,,,,,,,,,,,,0,210,210,1,,,,,,,,,,,,,AMP,left,0.683749316027388,0,,,,,,,,,,,,,,left,0,0.683749316027388,,,,,,,,,,,1014,2019_Mar_06_1244,mf_amp_cond2,3.0.4,60.070203973553134,
hand,&&&&&&&&&,left,sanctity.virtue,refuejing,,,,,,,,,,,,,,,0,211,211,81,,,,,,,,,,,,,AMP,right,0.7671015183441341,0,,,,,,,,,,,,,,right,0,0.7671015183441341,,,,,,,,,,,1014,2019_Mar_06_1244,mf_amp_cond2,3.0.4,60.070203973553134,
ban,&&&&&&&&&&,right,loyalty.vice,honstables,,,,,,,,,,,,,,,0,212,212,145,,,,,,,,,,,,,AMP,left,0.6505071523133665,0,,,,,,,,,,,,,,left,0,0.6505071523133665,,,,,,,,,,,1014,2019_Mar_06_1244,mf_amp_cond2,3.0.4,60.070203973553134,
love,&&&&&&&&,left,loyalty.virtue,slending,,,,,,,,,,,,,,,0,213,213,229,,,,,,,,,,,,,AMP,right,0.7504312061937526,0,,,,,,,,,,,,,,right,0,0.7504312061937526,,,,,,,,,,,1014,2019_Mar_06_1244,mf_amp_cond2,3.0.4,60.070203973553134,
credit,&&&&&,left,fairness.virtue,framo,,,,,,,,,,,,,,,0,214,214,155,,,,,,,,,,,,,AMP,right,1.117187054012902,0,,,,,,,,,,,,,,right,0,1.117187054012902,,,,,,,,,,,1014,2019_Mar_06_1244,mf_amp_cond2,3.0.4,60.070203973553134,
fraud,&&&&&&,right,fairness.vice,erdest,,,,,,,,,,,,,,,0,215,215,33,,,,,,,,,,,,,AMP,left,0.6337377381278202,0,,,,,,,,,,,,,,left,0,0.6337377381278202,,,,,,,,,,,1014,2019_Mar_06_1244,mf_amp_cond2,3.0.4,60.070203973553134,
safety,&&&&&&&&&,left,care.virtue,disregord,,,,,,,,,,,,,,,0,216,216,218,,,,,,,,,,,,,AMP,left,0.9671356427716091,1,,,,,,,,,,,,,,left,1,0.9671356427716091,,,,,,,,,,,1014,2019_Mar_06_1244,mf_amp_cond2,3.0.4,60.070203973553134,
support,&&&&&&,left,loyalty.virtue,forepo,,,,,,,,,,,,,,,0,217,217,158,,,,,,,,,,,,,AMP,right,0.65041767177172,0,,,,,,,,,,,,,,right,0,0.65041767177172,,,,,,,,,,,1014,2019_Mar_06_1244,mf_amp_cond2,3.0.4,60.070203973553134,
agreement,&&&&,left,fairness.virtue,juck,,,,,,,,,,,,,,,0,218,218,95,,,,,,,,,,,,,AMP,right,0.8671394273405895,0,,,,,,,,,,,,,,right,0,0.8671394273405895,,,,,,,,,,,1014,2019_Mar_06_1244,mf_amp_cond2,3.0.4,60.070203973553134,
blamed,&&&&&&&&&&&&,right,loyalty.vice,quarterbocks,,,,,,,,,,,,,,,0,219,219,278,,,,,,,,,,,,,AMP,right,1.2838860063347965,1,,,,,,,,,,,,,,right,1,1.2838860063347965,,,,,,,,,,,1014,2019_Mar_06_1244,mf_amp_cond2,3.0.4,60.070203973553134,
unpleasant,&&&&&&&&&,None,control,reprisols,,,,,,,,,,,,,,,0,220,220,96,,,,,,,,,,,,,AMP,right,1.0004993588663638,0,,,,,,,,,,,,,,right,0,1.0004993588663638,,,,,,,,,,,1014,2019_Mar_06_1244,mf_amp_cond2,3.0.4,60.070203973553134,
noped,&&&&&&,None,nonword,erdest,,,,,,,,,,,,,,,0,221,221,152,,,,,,,,,,,,,AMP,right,0.6670774002559483,0,,,,,,,,,,,,,,right,0,0.6670774002559483,,,,,,,,,,,1014,2019_Mar_06_1244,mf_amp_cond2,3.0.4,60.070203973553134,
penalty,&&&&&,right,authority.vice,lenon,,,,,,,,,,,,,,,0,222,222,171,,,,,,,,,,,,,AMP,right,0.6504231240833178,1,,,,,,,,,,,,,,right,1,0.6504231240833178,,,,,,,,,,,1014,2019_Mar_06_1244,mf_amp_cond2,3.0.4,60.070203973553134,
noped,&&&&&&&&&&&&,None,nonword,iptervention,,,,,,,,,,,,,,,0,223,223,310,,,,,,,,,,,,,AMP,left,0.6670786832692102,0,,,,,,,,,,,,,,left,0,0.6670786832692102,,,,,,,,,,,1014,2019_Mar_06_1244,mf_amp_cond2,3.0.4,60.070203973553134,
failure,&&&&&&&&&&,right,loyalty.vice,Oregoniuns,,,,,,,,,,,,,,,0,224,224,282,,,,,,,,,,,,,AMP,left,0.6504038809798658,0,,,,,,,,,,,,,,left,0,0.6504038809798658,,,,,,,,,,,1014,2019_Mar_06_1244,mf_amp_cond2,3.0.4,60.070203973553134,
actively,&&&&&,left,authority.virtue,touls,,,,,,,,,,,,,,,0,225,225,52,,,,,,,,,,,,,AMP,left,0.6670722687849775,1,,,,,,,,,,,,,,left,1,0.6670722687849775,,,,,,,,,,,1014,2019_Mar_06_1244,mf_amp_cond2,3.0.4,60.070203973553134,
injured,&&&&&&,right,care.vice,sgrawl,,,,,,,,,,,,,,,0,226,226,197,,,,,,,,,,,,,AMP,left,0.5003819757839665,0,,,,,,,,,,,,,,left,0,0.5003819757839665,,,,,,,,,,,1014,2019_Mar_06_1244,mf_amp_cond2,3.0.4,60.070203973553134,
opportunity,&&&&&&&&&&&,left,fairness.virtue,precificity,,,,,,,,,,,,,,,0,227,227,123,,,,,,,,,,,,,AMP,right,0.6003929445287213,0,,,,,,,,,,,,,,right,0,0.6003929445287213,,,,,,,,,,,1014,2019_Mar_06_1244,mf_amp_cond2,3.0.4,60.070203973553134,
peaceful,&&&&&&&,left,authority.virtue,troubla,,,,,,,,,,,,,,,0,228,228,274,,,,,,,,,,,,,AMP,left,0.43365775095298886,1,,,,,,,,,,,,,,left,1,0.43365775095298886,,,,,,,,,,,1014,2019_Mar_06_1244,mf_amp_cond2,3.0.4,60.070203973553134,
police,&&&&&&&,right,authority.vice,lursuer,,,,,,,,,,,,,,,0,229,229,220,,,,,,,,,,,,,AMP,left,0.8504822646500543,0,,,,,,,,,,,,,,left,0,0.8504822646500543,,,,,,,,,,,1014,2019_Mar_06_1244,mf_amp_cond2,3.0.4,60.070203973553134,
free,&&&&&&,left,fairness.virtue,gazily,,,,,,,,,,,,,,,0,230,230,120,,,,,,,,,,,,,AMP,left,1.0338210607878864,1,,,,,,,,,,,,,,left,1,1.0338210607878864,,,,,,,,,,,1014,2019_Mar_06_1244,mf_amp_cond2,3.0.4,60.070203973553134,
clean,&&&&&&,left,sanctity.virtue,prones,,,,,,,,,,,,,,,0,231,231,9,,,,,,,,,,,,,AMP,left,0.08360236277803779,1,,,,,,,,,,,,,,left,1,0.08360236277803779,,,,,,,,,,,1014,2019_Mar_06_1244,mf_amp_cond2,3.0.4,60.070203973553134,
sexual,&&&&&&&,right,sanctity.vice,gedious,,,,,,,,,,,,,,,0,232,232,322,,,,,,,,,,,,,AMP,right,0.7504408278036863,1,,,,,,,,,,,,,,right,1,0.7504408278036863,,,,,,,,,,,1014,2019_Mar_06_1244,mf_amp_cond2,3.0.4,60.070203973553134,
ablow,&&&&&&,None,nonword,openet,,,,,,,,,,,,,,,0,233,233,74,,,,,,,,,,,,,AMP,right,0.2668353219050914,0,,,,,,,,,,,,,,right,0,0.2668353219050914,,,,,,,,,,,1014,2019_Mar_06_1244,mf_amp_cond2,3.0.4,60.070203973553134,
benefit,&&&&&&&,left,fairness.virtue,sickyay,,,,,,,,,,,,,,,0,234,234,174,,,,,,,,,,,,,AMP,right,0.15028072497807443,0,,,,,,,,,,,,,,right,0,0.15028072497807443,,,,,,,,,,,1014,2019_Mar_06_1244,mf_amp_cond2,3.0.4,60.070203973553134,
gun,&&&,right,authority.vice,asn,,,,,,,,,,,,,,,0,235,235,35,,,,,,,,,,,,,AMP,right,0.18361012416426092,1,,,,,,,,,,,,,,right,1,0.18361012416426092,,,,,,,,,,,1014,2019_Mar_06_1244,mf_amp_cond2,3.0.4,60.070203973553134,
pleasant,&&&&&&&&,None,control,thadowed,,,,,,,,,,,,,,,0,236,236,238,,,,,,,,,,,,,AMP,left,0.10026497766375542,0,,,,,,,,,,,,,,left,0,0.10026497766375542,,,,,,,,,,,1014,2019_Mar_06_1244,mf_amp_cond2,3.0.4,60.070203973553134,
gun,&&&&&&&&,right,authority.vice,nuckheap,,,,,,,,,,,,,,,0,237,237,87,,,,,,,,,,,,,AMP,right,0.03359270910732448,1,,,,,,,,,,,,,,right,1,0.03359270910732448,,,,,,,,,,,1014,2019_Mar_06_1244,mf_amp_cond2,3.0.4,60.070203973553134,
blamed,&&&&&&&&,right,loyalty.vice,nuckheap,,,,,,,,,,,,,,,0,238,238,75,,,,,,,,,,,,,AMP,right,0.06693397497292608,1,,,,,,,,,,,,,,right,1,0.06693397497292608,,,,,,,,,,,1014,2019_Mar_06_1244,mf_amp_cond2,3.0.4,60.070203973553134,
brotesque,&&&&&&&&&&&,None,nonword,blunderints,,,,,,,,,,,,,,,0,239,239,316,,,,,,,,,,,,,AMP,left,0.31699282687623054,0,,,,,,,,,,,,,,left,0,0.31699282687623054,,,,,,,,,,,1014,2019_Mar_06_1244,mf_amp_cond2,3.0.4,60.070203973553134,
crime,&&&&&&&&&&&&,right,fairness.vice,rorroborated,,,,,,,,,,,,,,,0,240,240,7,,,,,,,,,,,,,AMP,left,0.0169195105554536,0,,,,,,,,,,,,,,left,0,0.0169195105554536,,,,,,,,,,,1014,2019_Mar_06_1244,mf_amp_cond2,3.0.4,60.070203973553134,
honored,&&&&&&&&&&&,left,authority.virtue,lempestuous,,,,,,,,,,,,,,,0,241,241,191,,,,,,,,,,,,,AMP,left,0.10027812712360173,1,,,,,,,,,,,,,,left,1,0.10027812712360173,,,,,,,,,,,1014,2019_Mar_06_1244,mf_amp_cond2,3.0.4,60.070203973553134,
