words,nonwords,mask,corr_ans,category,AMP_prac_loop.thisRepN,AMP_prac_loop.thisTrialN,AMP_prac_loop.thisN,AMP_prac_loop.thisIndex,AMP_trials.thisRepN,AMP_trials.thisTrialN,AMP_trials.thisN,AMP_trials.thisIndex,LDT_prac_loop.thisRepN,LDT_prac_loop.thisTrialN,LDT_prac_loop.thisN,LDT_prac_loop.thisIndex,LDT_loop.thisRepN,LDT_loop.thisTrialN,LDT_loop.thisN,LDT_loop.thisIndex,tweet_loop.thisRepN,tweet_loop.thisTrialN,tweet_loop.thisN,tweet_loop.thisIndex,tweets,topic,begin_key.keys,begin_key.rt,key_resp_AMP_instr1.keys,key_resp_AMP_instr1.rt,resp_AMP_ready1.keys,resp_AMP_ready1.rt,resp_AMP_prac.keys,resp_AMP_prac.rt,task,keypress,RT,resp_AMP_ready.keys,resp_AMP_ready.rt,resp_AMP.keys,resp_AMP.corr,resp_AMP.rt,corr,AMP_nonword_rating.response,AMP_nonword_rating.rt,AMP_word_rating.response,AMP_word_rating.rt,AMP_random_rating.response,AMP_random_rating.rt,key_resp_LDT_instr.keys,key_resp_LDT_instr.rt,resp_LDT_prac.keys,resp_LDT_prac.rt,resp_LDT_ready.keys,resp_LDT_ready.rt,resp_LDT.keys,resp_LDT.corr,resp_LDT.rt,LDT_rating.response,LDT_rating.rt,key_resp_LDT_instr_2.keys,key_resp_LDT_instr_2.rt,participant,date,expName,psychopyVersion,frameRate,
,,,,,,,,,,,,,,,,,,,,,,,,,,,right,1507.4360494914,,,,,,,,,,,,,,,,,,,,,,,,,,,,,,,,,,,1021,2019_Mar_06_1241,mf_amp_cond1,3.0.4,60.143706449975504,
,,,,,,,,,,,,,,,,,,,,,,,,,,,,,right,3.717876571812667,,,,,,,,,,,,,,,,,,,,,,,,,,,,,,,,,1021,2019_Mar_06_1241,mf_amp_cond1,3.0.4,60.143706449975504,
,,,,,,,,,,,,,,,,,,,,,,,,,,,,,,,right,2.2008651174837723,,,,,,,,,,,,,,,,,,,,,,,,,,,,,,,1021,2019_Mar_06_1241,mf_amp_cond1,3.0.4,60.143706449975504,
keyboard,senk,&&&&,,,0,0,0,2,,,,,,,,,,,,,,,,,,,,,,,,,left,1.9340683871414512,AMP_prac,left,1.9340683871414512,,,,,,,,,,,,,,,,,,,,,,,,,,1021,2019_Mar_06_1241,mf_amp_cond1,3.0.4,60.143706449975504,
scarf,bisebell,&&&&&&&&,,,0,1,1,3,,,,,,,,,,,,,,,,,,,,,,,,,left,2.850989012629725,AMP_prac,left,2.850989012629725,,,,,,,,,,,,,,,,,,,,,,,,,,1021,2019_Mar_06_1241,mf_amp_cond1,3.0.4,60.143706449975504,
banana,kacket,&&&&&&,,,0,2,2,1,,,,,,,,,,,,,,,,,,,,,,,,,left,0.817133842036128,AMP_prac,left,0.817133842036128,,,,,,,,,,,,,,,,,,,,,,,,,,1021,2019_Mar_06_1241,mf_amp_cond1,3.0.4,60.143706449975504,
car,cemtuper,&&&&&&&&,,,0,3,3,0,,,,,,,,,,,,,,,,,,,,,,,,,right,2.834271981846541,AMP_prac,right,2.834271981846541,,,,,,,,,,,,,,,,,,,,,,,,,,1021,2019_Mar_06_1241,mf_amp_cond1,3.0.4,60.143706449975504,
,,,,,,,,,,,,,,,,,,,,,,,,,,,,,,,,,,,,,,right,2.2174721404444426,,,,,,,,,,,,,,,,,,,,,,,,1021,2019_Mar_06_1241,mf_amp_cond1,3.0.4,60.143706449975504,
hate,reprisols,&&&&&&&&&,right,fairness.vice,,,,,0,0,0,0,,,,,,,,,,,,,,,,,,,,,,,AMP,left,2.300832147244364,,,left,0,2.300832147244364,0,,,,,,,,,,,,,,,,,,,,1021,2019_Mar_06_1241,mf_amp_cond1,3.0.4,60.143706449975504,
hand,totalestic,&&&&&&&&&&,left,sanctity.virtue,,,,,0,1,1,1,,,,,,,,,,,,,,,,,,,,,,,AMP,right,0.9504707888700068,,,right,0,0.9504707888700068,0,,,,,,,,,,,,,,,,,,,,1021,2019_Mar_06_1241,mf_amp_cond1,3.0.4,60.143706449975504,
groups,mecan,&&&&&,right,loyalty.vice,,,,,0,2,2,2,,,,,,,,,,,,,,,,,,,,,,,AMP,right,1.5006218813359737,,,right,1,1.5006218813359737,1,,,,,,,,,,,,,,,,,,,,1021,2019_Mar_06_1241,mf_amp_cond1,3.0.4,60.143706449975504,
riot,sickyay,&&&&&&&,right,authority.vice,,,,,0,3,3,3,,,,,,,,,,,,,,,,,,,,,,,AMP,right,1.4172583465697244,,,right,1,1.4172583465697244,1,,,,,,,,,,,,,,,,,,,,1021,2019_Mar_06_1241,mf_amp_cond1,3.0.4,60.143706449975504,
honored,simplustic,&&&&&&&&&&,left,authority.virtue,,,,,0,4,4,4,,,,,,,,,,,,,,,,,,,,,,,AMP,right,0.8004270744277164,,,right,0,0.8004270744277164,0,,,,,,,,,,,,,,,,,,,,1021,2019_Mar_06_1241,mf_amp_cond1,3.0.4,60.143706449975504,
terrorist,chadows,&&&&&&&,right,loyalty.vice,,,,,0,5,5,5,,,,,,,,,,,,,,,,,,,,,,,AMP,left,1.2672377242706716,,,left,0,1.2672377242706716,0,,,,,,,,,,,,,,,,,,,,1021,2019_Mar_06_1241,mf_amp_cond1,3.0.4,60.143706449975504,
shot,counpy's,&&&&&&&&,right,care.vice,,,,,0,6,6,6,,,,,,,,,,,,,,,,,,,,,,,AMP,left,2.0338882049545646,,,left,0,2.0338882049545646,0,,,,,,,,,,,,,,,,,,,,1021,2019_Mar_06_1241,mf_amp_cond1,3.0.4,60.143706449975504,
torture,asn,&&&,right,care.vice,,,,,0,7,7,7,,,,,,,,,,,,,,,,,,,,,,,AMP,left,0.950488107977435,,,left,0,0.950488107977435,0,,,,,,,,,,,,,,,,,,,,1021,2019_Mar_06_1241,mf_amp_cond1,3.0.4,60.143706449975504,
serial,lenon,&&&&&,right,sanctity.vice,,,,,0,8,8,8,,,,,,,,,,,,,,,,,,,,,,,AMP,right,2.3008616536390036,,,right,1,2.3008616536390036,1,,,,,,,,,,,,,,,,,,,,1021,2019_Mar_06_1241,mf_amp_cond1,3.0.4,60.143706449975504,
victims,tomedians,&&&&&&&&&,right,care.vice,,,,,0,9,9,9,,,,,,,,,,,,,,,,,,,,,,,AMP,right,1.8507212091935799,,,right,1,1.8507212091935799,1,,,,,,,,,,,,,,,,,,,,1021,2019_Mar_06_1241,mf_amp_cond1,3.0.4,60.143706449975504,
rorroborated,brudent,&&&&&&&,None,nonword,,,,,0,10,10,10,,,,,,,,,,,,,,,,,,,,,,,AMP,left,1.6839992712484673,,,left,0,1.6839992712484673,0,,,,,,,,,,,,,,,,,,,,1021,2019_Mar_06_1241,mf_amp_cond1,3.0.4,60.143706449975504,
values,Cunday,&&&&&&,left,sanctity.virtue,,,,,0,11,11,11,,,,,,,,,,,,,,,,,,,,,,,AMP,right,0.6504080556333065,,,right,0,0.6504080556333065,0,,,,,,,,,,,,,,,,,,,,1021,2019_Mar_06_1241,mf_amp_cond1,3.0.4,60.143706449975504,
dramens,bycled,&&&&&&,None,nonword,,,,,0,12,12,12,,,,,,,,,,,,,,,,,,,,,,,AMP,left,1.2005620345007628,,,left,0,1.2005620345007628,0,,,,,,,,,,,,,,,,,,,,1021,2019_Mar_06_1241,mf_amp_cond1,3.0.4,60.143706449975504,
perfect,dumid,&&&&&,left,sanctity.virtue,,,,,0,13,13,13,,,,,,,,,,,,,,,,,,,,,,,AMP,left,1.367164984345436,,,left,1,1.367164984345436,1,,,,,,,,,,,,,,,,,,,,1021,2019_Mar_06_1241,mf_amp_cond1,3.0.4,60.143706449975504,
grovelire,bluently,&&&&&&&&,None,nonword,,,,,0,14,14,14,,,,,,,,,,,,,,,,,,,,,,,AMP,right,2.6842853559646755,,,right,0,2.6842853559646755,0,,,,,,,,,,,,,,,,,,,,1021,2019_Mar_06_1241,mf_amp_cond1,3.0.4,60.143706449975504,
lursuer,stindig,&&&&&&&,None,nonword,,,,,0,15,15,15,,,,,,,,,,,,,,,,,,,,,,,AMP,right,1.233898275764659,,,right,0,1.233898275764659,0,,,,,,,,,,,,,,,,,,,,1021,2019_Mar_06_1241,mf_amp_cond1,3.0.4,60.143706449975504,
benefit,crinking,&&&&&&&&,left,fairness.virtue,,,,,0,16,16,16,,,,,,,,,,,,,,,,,,,,,,,AMP,right,0.6670830716611817,,,right,0,0.6670830716611817,0,,,,,,,,,,,,,,,,,,,,1021,2019_Mar_06_1241,mf_amp_cond1,3.0.4,60.143706449975504,
victim,ronviolence,&&&&&&&&&&&,right,care.vice,,,,,0,17,17,17,,,,,,,,,,,,,,,,,,,,,,,AMP,right,1.4672724904958159,,,right,1,1.4672724904958159,1,,,,,,,,,,,,,,,,,,,,1021,2019_Mar_06_1241,mf_amp_cond1,3.0.4,60.143706449975504,
embrace,gazily,&&&&&&,left,authority.virtue,,,,,0,18,18,18,,,,,,,,,,,,,,,,,,,,,,,AMP,right,1.26725023239851,,,right,0,1.26725023239851,0,,,,,,,,,,,,,,,,,,,,1021,2019_Mar_06_1241,mf_amp_cond1,3.0.4,60.143706449975504,
pleasant,frojecting,&&&&&&&&&&,None,control,,,,,0,19,19,19,,,,,,,,,,,,,,,,,,,,,,,AMP,right,1.2172447480261326,,,right,0,1.2172447480261326,0,,,,,,,,,,,,,,,,,,,,1021,2019_Mar_06_1241,mf_amp_cond1,3.0.4,60.143706449975504,
safe,laming,&&&&&&,left,care.virtue,,,,,0,20,20,20,,,,,,,,,,,,,,,,,,,,,,,AMP,left,1.133857159060426,,,left,1,1.133857159060426,1,,,,,,,,,,,,,,,,,,,,1021,2019_Mar_06_1241,mf_amp_cond1,3.0.4,60.143706449975504,
slavery,aubos,&&&&&,right,loyalty.vice,,,,,0,21,21,21,,,,,,,,,,,,,,,,,,,,,,,AMP,right,1.0671907702926546,,,right,1,1.0671907702926546,1,,,,,,,,,,,,,,,,,,,,1021,2019_Mar_06_1241,mf_amp_cond1,3.0.4,60.143706449975504,
actively,gillipede,&&&&&&&&&,left,authority.virtue,,,,,0,22,22,22,,,,,,,,,,,,,,,,,,,,,,,AMP,left,1.4673074493184686,,,left,1,1.4673074493184686,1,,,,,,,,,,,,,,,,,,,,1021,2019_Mar_06_1241,mf_amp_cond1,3.0.4,60.143706449975504,
thabbily,sliptery,&&&&&&&&,None,nonword,,,,,0,23,23,23,,,,,,,,,,,,,,,,,,,,,,,AMP,right,0.7671100765001029,,,right,0,0.7671100765001029,0,,,,,,,,,,,,,,,,,,,,1021,2019_Mar_06_1241,mf_amp_cond1,3.0.4,60.143706449975504,
forepo,erks,&&&&,None,nonword,,,,,0,24,24,24,,,,,,,,,,,,,,,,,,,,,,,AMP,right,1.0171657219761983,,,right,0,1.0171657219761983,0,,,,,,,,,,,,,,,,,,,,1021,2019_Mar_06_1241,mf_amp_cond1,3.0.4,60.143706449975504,
critics,brotesque,&&&&&&&&&,right,loyalty.vice,,,,,0,25,25,25,,,,,,,,,,,,,,,,,,,,,,,AMP,left,0.6004022504203022,,,left,0,0.6004022504203022,0,,,,,,,,,,,,,,,,,,,,1021,2019_Mar_06_1241,mf_amp_cond1,3.0.4,60.143706449975504,
fraud,infet,&&&&&,right,fairness.vice,,,,,0,26,26,26,,,,,,,,,,,,,,,,,,,,,,,AMP,left,2.2174756682943553,,,left,0,2.2174756682943553,0,,,,,,,,,,,,,,,,,,,,1021,2019_Mar_06_1241,mf_amp_cond1,3.0.4,60.143706449975504,
threatened,gationwide,&&&&&&&&&&,right,fairness.vice,,,,,0,27,27,27,,,,,,,,,,,,,,,,,,,,,,,AMP,right,2.2675555603345856,,,right,1,2.2675555603345856,1,,,,,,,,,,,,,,,,,,,,1021,2019_Mar_06_1241,mf_amp_cond1,3.0.4,60.143706449975504,
energy,egpeditious,&&&&&&&&&&&,left,sanctity.virtue,,,,,0,28,28,28,,,,,,,,,,,,,,,,,,,,,,,AMP,left,1.250560783664696,,,left,1,1.250560783664696,1,,,,,,,,,,,,,,,,,,,,1021,2019_Mar_06_1241,mf_amp_cond1,3.0.4,60.143706449975504,
health,galamitous,&&&&&&&&&&,left,care.virtue,,,,,0,29,29,29,,,,,,,,,,,,,,,,,,,,,,,AMP,right,1.6340030878782272,,,right,0,1.6340030878782272,0,,,,,,,,,,,,,,,,,,,,1021,2019_Mar_06_1241,mf_amp_cond1,3.0.4,60.143706449975504,
unpleasant,tabin,&&&&&,None,control,,,,,0,30,30,30,,,,,,,,,,,,,,,,,,,,,,,AMP,right,1.2339383660582826,,,right,0,1.2339383660582826,0,,,,,,,,,,,,,,,,,,,,1021,2019_Mar_06_1241,mf_amp_cond1,3.0.4,60.143706449975504,
scandal,letish,&&&&&&,right,sanctity.vice,,,,,0,31,31,31,,,,,,,,,,,,,,,,,,,,,,,AMP,left,1.017180475173518,,,left,0,1.017180475173518,0,,,,,,,,,,,,,,,,,,,,1021,2019_Mar_06_1241,mf_amp_cond1,3.0.4,60.143706449975504,
violence,carvels,&&&&&&&,right,care.vice,,,,,0,32,32,32,,,,,,,,,,,,,,,,,,,,,,,AMP,right,0.7837482095928863,,,right,1,0.7837482095928863,1,,,,,,,,,,,,,,,,,,,,1021,2019_Mar_06_1241,mf_amp_cond1,3.0.4,60.143706449975504,
men,wump,&&&&,right,loyalty.vice,,,,,0,33,33,33,,,,,,,,,,,,,,,,,,,,,,,AMP,right,0.7837725844001397,,,right,1,0.7837725844001397,1,,,,,,,,,,,,,,,,,,,,1021,2019_Mar_06_1241,mf_amp_cond1,3.0.4,60.143706449975504,
love,ugeasily,&&&&&&&&,left,loyalty.virtue,,,,,0,34,34,34,,,,,,,,,,,,,,,,,,,,,,,AMP,left,1.5339693478308618,,,left,1,1.5339693478308618,1,,,,,,,,,,,,,,,,,,,,1021,2019_Mar_06_1241,mf_amp_cond1,3.0.4,60.143706449975504,
dignity,clattening,&&&&&&&&&&,left,sanctity.virtue,,,,,0,35,35,35,,,,,,,,,,,,,,,,,,,,,,,AMP,left,1.4171278123976663,,,left,1,1.4171278123976663,1,,,,,,,,,,,,,,,,,,,,1021,2019_Mar_06_1241,mf_amp_cond1,3.0.4,60.143706449975504,
progress,refuejing,&&&&&&&&&,left,authority.virtue,,,,,0,36,36,36,,,,,,,,,,,,,,,,,,,,,,,AMP,left,1.1838677750201896,,,left,1,1.1838677750201896,1,,,,,,,,,,,,,,,,,,,,1021,2019_Mar_06_1241,mf_amp_cond1,3.0.4,60.143706449975504,
fair,halaise,&&&&&&&,left,fairness.virtue,,,,,0,37,37,37,,,,,,,,,,,,,,,,,,,,,,,AMP,right,0.6337487547425553,,,right,0,0.6337487547425553,0,,,,,,,,,,,,,,,,,,,,1021,2019_Mar_06_1241,mf_amp_cond1,3.0.4,60.143706449975504,
faith,pharing,&&&&&&&,left,sanctity.virtue,,,,,0,38,38,38,,,,,,,,,,,,,,,,,,,,,,,AMP,left,1.9005839719902724,,,left,1,1.9005839719902724,1,,,,,,,,,,,,,,,,,,,,1021,2019_Mar_06_1241,mf_amp_cond1,3.0.4,60.143706449975504,
arrests,metibolic,&&&&&&&&&,right,authority.vice,,,,,0,39,39,39,,,,,,,,,,,,,,,,,,,,,,,AMP,left,1.6673367633484304,,,left,0,1.6673367633484304,0,,,,,,,,,,,,,,,,,,,,1021,2019_Mar_06_1241,mf_amp_cond1,3.0.4,60.143706449975504,
help,tracious,&&&&&&&&,left,care.virtue,,,,,0,40,40,40,,,,,,,,,,,,,,,,,,,,,,,AMP,right,2.1007755716564134,,,right,0,2.1007755716564134,0,,,,,,,,,,,,,,,,,,,,1021,2019_Mar_06_1241,mf_amp_cond1,3.0.4,60.143706449975504,
sharing,ittutable,&&&&&&&&&,left,loyalty.virtue,,,,,0,41,41,41,,,,,,,,,,,,,,,,,,,,,,,AMP,right,2.0007646029116586,,,right,0,2.0007646029116586,0,,,,,,,,,,,,,,,,,,,,1021,2019_Mar_06_1241,mf_amp_cond1,3.0.4,60.143706449975504,
win,framatic,&&&&&&&&,left,fairness.virtue,,,,,0,42,42,42,,,,,,,,,,,,,,,,,,,,,,,AMP,right,1.5506597587373108,,,right,0,1.5506597587373108,0,,,,,,,,,,,,,,,,,,,,1021,2019_Mar_06_1241,mf_amp_cond1,3.0.4,60.143706449975504,
promote,discovars,&&&&&&&&&,left,sanctity.virtue,,,,,0,43,43,43,,,,,,,,,,,,,,,,,,,,,,,AMP,right,1.5005689621903002,,,right,0,1.5005689621903002,0,,,,,,,,,,,,,,,,,,,,1021,2019_Mar_06_1241,mf_amp_cond1,3.0.4,60.143706449975504,
integrity,shoirmaster,&&&&&&&&&&&,left,fairness.virtue,,,,,0,44,44,44,,,,,,,,,,,,,,,,,,,,,,,AMP,right,0.6337170032784343,,,right,0,0.6337170032784343,0,,,,,,,,,,,,,,,,,,,,1021,2019_Mar_06_1241,mf_amp_cond1,3.0.4,60.143706449975504,
corruption,suggists,&&&&&&&&,right,sanctity.vice,,,,,0,45,45,45,,,,,,,,,,,,,,,,,,,,,,,AMP,right,1.183847569511272,,,right,1,1.183847569511272,1,,,,,,,,,,,,,,,,,,,,1021,2019_Mar_06_1241,mf_amp_cond1,3.0.4,60.143706449975504,
growth,leact,&&&&&,left,care.virtue,,,,,0,46,46,46,,,,,,,,,,,,,,,,,,,,,,,AMP,right,1.383932047872804,,,right,0,1.383932047872804,0,,,,,,,,,,,,,,,,,,,,1021,2019_Mar_06_1241,mf_amp_cond1,3.0.4,60.143706449975504,
great,framo,&&&&&,left,loyalty.virtue,,,,,0,47,47,47,,,,,,,,,,,,,,,,,,,,,,,AMP,right,0.7337632514536381,,,right,0,0.7337632514536381,0,,,,,,,,,,,,,,,,,,,,1021,2019_Mar_06_1241,mf_amp_cond1,3.0.4,60.143706449975504,
praised,gandbrake,&&&&&&&&&,left,loyalty.virtue,,,,,0,48,48,48,,,,,,,,,,,,,,,,,,,,,,,AMP,left,0.7837915071286261,,,left,1,0.7837915071286261,1,,,,,,,,,,,,,,,,,,,,1021,2019_Mar_06_1241,mf_amp_cond1,3.0.4,60.143706449975504,
ban,frocessing,&&&&&&&&&&,right,loyalty.vice,,,,,0,49,49,49,,,,,,,,,,,,,,,,,,,,,,,AMP,left,2.4175344889517874,,,left,0,2.4175344889517874,0,,,,,,,,,,,,,,,,,,,,1021,2019_Mar_06_1241,mf_amp_cond1,3.0.4,60.143706449975504,
voter,divility,&&&&&&&&,right,fairness.vice,,,,,0,50,50,50,,,,,,,,,,,,,,,,,,,,,,,AMP,right,1.6840011957101524,,,right,1,1.6840011957101524,1,,,,,,,,,,,,,,,,,,,,1021,2019_Mar_06_1241,mf_amp_cond1,3.0.4,60.143706449975504,
drug,focomotive,&&&&&&&&&&,right,sanctity.vice,,,,,0,51,51,51,,,,,,,,,,,,,,,,,,,,,,,AMP,right,1.117197216837667,,,right,1,1.117197216837667,1,,,,,,,,,,,,,,,,,,,,1021,2019_Mar_06_1241,mf_amp_cond1,3.0.4,60.143706449975504,
fighters,hatigue,&&&&&&&,right,authority.vice,,,,,0,52,52,52,,,,,,,,,,,,,,,,,,,,,,,AMP,left,1.8006932742428035,,,left,0,1.8006932742428035,0,,,,,,,,,,,,,,,,,,,,1021,2019_Mar_06_1241,mf_amp_cond1,3.0.4,60.143706449975504,
prison,pullness,&&&&&&&&,right,fairness.vice,,,,,0,53,53,53,,,,,,,,,,,,,,,,,,,,,,,AMP,left,1.1838751516770571,,,left,0,1.1838751516770571,0,,,,,,,,,,,,,,,,,,,,1021,2019_Mar_06_1241,mf_amp_cond1,3.0.4,60.143706449975504,
compassion,precificity,&&&&&&&&&&&,left,care.virtue,,,,,0,54,54,54,,,,,,,,,,,,,,,,,,,,,,,AMP,right,0.583723385585472,,,right,0,0.583723385585472,0,,,,,,,,,,,,,,,,,,,,1021,2019_Mar_06_1241,mf_amp_cond1,3.0.4,60.143706449975504,
gun,Loorish,&&&&&&&,right,authority.vice,,,,,0,55,55,55,,,,,,,,,,,,,,,,,,,,,,,AMP,left,0.6003740269225091,,,left,0,0.6003740269225091,0,,,,,,,,,,,,,,,,,,,,1021,2019_Mar_06_1241,mf_amp_cond1,3.0.4,60.143706449975504,
attacks,prones,&&&&&&,right,care.vice,,,,,0,56,56,56,,,,,,,,,,,,,,,,,,,,,,,AMP,right,1.417291701771319,,,right,1,1.417291701771319,1,,,,,,,,,,,,,,,,,,,,1021,2019_Mar_06_1241,mf_amp_cond1,3.0.4,60.143706449975504,
ability,hefurbished,&&&&&&&&&&&,left,authority.virtue,,,,,0,57,57,57,,,,,,,,,,,,,,,,,,,,,,,AMP,left,1.133871270925738,,,left,1,1.133871270925738,1,,,,,,,,,,,,,,,,,,,,1021,2019_Mar_06_1241,mf_amp_cond1,3.0.4,60.143706449975504,
strong,taxpayung,&&&&&&&&&,left,loyalty.virtue,,,,,0,58,58,58,,,,,,,,,,,,,,,,,,,,,,,AMP,left,0.9504755997331813,,,left,1,0.9504755997331813,1,,,,,,,,,,,,,,,,,,,,1021,2019_Mar_06_1241,mf_amp_cond1,3.0.4,60.143706449975504,
violations,presentkess,&&&&&&&&&&&,right,sanctity.vice,,,,,0,59,59,59,,,,,,,,,,,,,,,,,,,,,,,AMP,right,1.683994460501708,,,right,1,1.683994460501708,1,,,,,,,,,,,,,,,,,,,,1021,2019_Mar_06_1241,mf_amp_cond1,3.0.4,60.143706449975504,
sexual,thadowed,&&&&&&&&,right,sanctity.vice,,,,,0,60,60,60,,,,,,,,,,,,,,,,,,,,,,,AMP,right,1.0004916680045426,,,right,1,1.0004916680045426,1,,,,,,,,,,,,,,,,,,,,1021,2019_Mar_06_1241,mf_amp_cond1,3.0.4,60.143706449975504,
crime,pulge,&&&&&,right,fairness.vice,,,,,0,61,61,61,,,,,,,,,,,,,,,,,,,,,,,AMP,left,1.4004560036119074,,,left,0,1.4004560036119074,0,,,,,,,,,,,,,,,,,,,,1021,2019_Mar_06_1241,mf_amp_cond1,3.0.4,60.143706449975504,
rebels,synchronazers,&&&&&&&&&&&&&,right,authority.vice,,,,,0,62,62,62,,,,,,,,,,,,,,,,,,,,,,,AMP,right,0.8838220399338752,,,right,1,0.8838220399338752,1,,,,,,,,,,,,,,,,,,,,1021,2019_Mar_06_1241,mf_amp_cond1,3.0.4,60.143706449975504,
viscs,ablow,&&&&&,None,nonword,,,,,0,63,63,63,,,,,,,,,,,,,,,,,,,,,,,AMP,left,0.9671560681890696,,,left,0,0.9671560681890696,0,,,,,,,,,,,,,,,,,,,,1021,2019_Mar_06_1241,mf_amp_cond1,3.0.4,60.143706449975504,
celebrated,sonvoy,&&&&&&,left,authority.virtue,,,,,0,64,64,64,,,,,,,,,,,,,,,,,,,,,,,AMP,right,0.56706183985807,,,right,0,0.56706183985807,0,,,,,,,,,,,,,,,,,,,,1021,2019_Mar_06_1241,mf_amp_cond1,3.0.4,60.143706449975504,
racist,chonograph,&&&&&&&&&&,right,sanctity.vice,,,,,0,65,65,65,,,,,,,,,,,,,,,,,,,,,,,AMP,left,1.5672946845879778,,,left,0,1.5672946845879778,0,,,,,,,,,,,,,,,,,,,,1021,2019_Mar_06_1241,mf_amp_cond1,3.0.4,60.143706449975504,
interests,yane,&&&&,left,fairness.virtue,,,,,0,66,66,66,,,,,,,,,,,,,,,,,,,,,,,AMP,left,1.3839006170164794,,,left,1,1.3839006170164794,1,,,,,,,,,,,,,,,,,,,,1021,2019_Mar_06_1241,mf_amp_cond1,3.0.4,60.143706449975504,
care,squets,&&&&&&,left,care.virtue,,,,,0,67,67,67,,,,,,,,,,,,,,,,,,,,,,,AMP,right,0.41702133254148066,,,right,0,0.41702133254148066,0,,,,,,,,,,,,,,,,,,,,1021,2019_Mar_06_1241,mf_amp_cond1,3.0.4,60.143706449975504,
useful,smapper,&&&&&&&,left,authority.virtue,,,,,0,68,68,68,,,,,,,,,,,,,,,,,,,,,,,AMP,right,0.5170419230125844,,,right,0,0.5170419230125844,0,,,,,,,,,,,,,,,,,,,,1021,2019_Mar_06_1241,mf_amp_cond1,3.0.4,60.143706449975504,
promises,faspberry,&&&&&&&&&,left,fairness.virtue,,,,,0,69,69,69,,,,,,,,,,,,,,,,,,,,,,,AMP,right,0.5503345459001139,,,right,0,0.5503345459001139,0,,,,,,,,,,,,,,,,,,,,1021,2019_Mar_06_1241,mf_amp_cond1,3.0.4,60.143706449975504,
prosecution,coom,&&&&,right,authority.vice,,,,,0,70,70,70,,,,,,,,,,,,,,,,,,,,,,,AMP,right,1.3839272370096296,,,right,1,1.3839272370096296,1,,,,,,,,,,,,,,,,,,,,1021,2019_Mar_06_1241,mf_amp_cond1,3.0.4,60.143706449975504,
improve,chressing,&&&&&&&&&,left,care.virtue,,,,,0,71,71,71,,,,,,,,,,,,,,,,,,,,,,,AMP,left,0.7504421162884682,,,left,1,0.7504421162884682,1,,,,,,,,,,,,,,,,,,,,1021,2019_Mar_06_1241,mf_amp_cond1,3.0.4,60.143706449975504,
died,mih,&&&,right,care.vice,,,,,0,72,72,72,,,,,,,,,,,,,,,,,,,,,,,AMP,right,0.7337725524557754,,,right,1,0.7337725524557754,1,,,,,,,,,,,,,,,,,,,,1021,2019_Mar_06_1241,mf_amp_cond1,3.0.4,60.143706449975504,
crilfully,gusinesslike,&&&&&&&&&&&&,None,nonword,,,,,0,73,73,73,,,,,,,,,,,,,,,,,,,,,,,AMP,right,1.3505672623869032,,,right,0,1.3505672623869032,0,,,,,,,,,,,,,,,,,,,,1021,2019_Mar_06_1241,mf_amp_cond1,3.0.4,60.143706449975504,
army,quarterbocks,&&&&&&&&&&&&,right,loyalty.vice,,,,,0,74,74,74,,,,,,,,,,,,,,,,,,,,,,,AMP,left,1.2672127077821642,,,left,0,1.2672127077821642,0,,,,,,,,,,,,,,,,,,,,1021,2019_Mar_06_1241,mf_amp_cond1,3.0.4,60.143706449975504,
saned,gowlands,&&&&&&&&,None,nonword,,,,,0,75,75,75,,,,,,,,,,,,,,,,,,,,,,,AMP,left,0.5503775227116421,,,left,0,0.5503775227116421,0,,,,,,,,,,,,,,,,,,,,1021,2019_Mar_06_1241,mf_amp_cond1,3.0.4,60.143706449975504,
lies,noped,&&&&&,right,fairness.vice,,,,,0,76,76,76,,,,,,,,,,,,,,,,,,,,,,,AMP,right,0.9670964138349518,,,right,1,0.9670964138349518,1,,,,,,,,,,,,,,,,,,,,1021,2019_Mar_06_1241,mf_amp_cond1,3.0.4,60.143706449975504,
nomaric,scock,&&&&&,None,nonword,,,,,0,77,77,77,,,,,,,,,,,,,,,,,,,,,,,AMP,left,1.267255363985896,,,left,0,1.267255363985896,0,,,,,,,,,,,,,,,,,,,,1021,2019_Mar_06_1241,mf_amp_cond1,3.0.4,60.143706449975504,
penalty,epigrach,&&&&&&&&,right,authority.vice,,,,,0,78,78,78,,,,,,,,,,,,,,,,,,,,,,,AMP,left,0.7837860549334437,,,left,0,0.7837860549334437,0,,,,,,,,,,,,,,,,,,,,1021,2019_Mar_06_1241,mf_amp_cond1,3.0.4,60.143706449975504,
protect,oam,&&&,left,fairness.virtue,,,,,0,79,79,79,,,,,,,,,,,,,,,,,,,,,,,AMP,right,0.9338089223019779,,,right,0,0.9338089223019779,0,,,,,,,,,,,,,,,,,,,,1021,2019_Mar_06_1241,mf_amp_cond1,3.0.4,60.143706449975504,
promised,unscothed,&&&&&&&&&,left,loyalty.virtue,,,,,0,80,80,80,,,,,,,,,,,,,,,,,,,,,,,AMP,right,1.2839281350607052,,,right,0,1.2839281350607052,0,,,,,,,,,,,,,,,,,,,,1021,2019_Mar_06_1241,mf_amp_cond1,3.0.4,60.143706449975504,
hope,spag,&&&&,left,loyalty.virtue,,,,,0,81,81,81,,,,,,,,,,,,,,,,,,,,,,,AMP,left,0.7671193773858249,,,left,1,0.7671193773858249,1,,,,,,,,,,,,,,,,,,,,1021,2019_Mar_06_1241,mf_amp_cond1,3.0.4,60.143706449975504,
riot,suggists,&&&&&&&&,right,authority.vice,,,,,0,82,82,82,,,,,,,,,,,,,,,,,,,,,,,AMP,left,1.600682562100701,,,left,0,1.600682562100701,0,,,,,,,,,,,,,,,,,,,,1021,2019_Mar_06_1241,mf_amp_cond1,3.0.4,60.143706449975504,
victim,aubos,&&&&&,right,care.vice,,,,,0,83,83,83,,,,,,,,,,,,,,,,,,,,,,,AMP,right,1.1171917645260692,,,right,1,1.1171917645260692,1,,,,,,,,,,,,,,,,,,,,1021,2019_Mar_06_1241,mf_amp_cond1,3.0.4,60.143706449975504,
ban,carvels,&&&&&&&,right,loyalty.vice,,,,,0,84,84,84,,,,,,,,,,,,,,,,,,,,,,,AMP,right,0.6504151114495471,,,right,1,0.6504151114495471,1,,,,,,,,,,,,,,,,,,,,1021,2019_Mar_06_1241,mf_amp_cond1,3.0.4,60.143706449975504,
values,yane,&&&&,left,sanctity.virtue,,,,,0,85,85,85,,,,,,,,,,,,,,,,,,,,,,,AMP,left,0.5337201463989913,,,left,1,0.5337201463989913,1,,,,,,,,,,,,,,,,,,,,1021,2019_Mar_06_1241,mf_amp_cond1,3.0.4,60.143706449975504,
useful,pullness,&&&&&&&&,left,authority.virtue,,,,,0,86,86,86,,,,,,,,,,,,,,,,,,,,,,,AMP,left,1.7673653718084097,,,left,1,1.7673653718084097,1,,,,,,,,,,,,,,,,,,,,1021,2019_Mar_06_1241,mf_amp_cond1,3.0.4,60.143706449975504,
energy,counpy's,&&&&&&&&,left,sanctity.virtue,,,,,0,87,87,87,,,,,,,,,,,,,,,,,,,,,,,AMP,left,2.5342429243028164,,,left,1,2.5342429243028164,1,,,,,,,,,,,,,,,,,,,,1021,2019_Mar_06_1241,mf_amp_cond1,3.0.4,60.143706449975504,
rorroborated,brudent,&&&&&&&,None,nonword,,,,,0,88,88,88,,,,,,,,,,,,,,,,,,,,,,,AMP,right,0.7671145666390657,,,right,0,0.7671145666390657,0,,,,,,,,,,,,,,,,,,,,1021,2019_Mar_06_1241,mf_amp_cond1,3.0.4,60.143706449975504,
terrorist,letish,&&&&&&,right,loyalty.vice,,,,,0,89,89,89,,,,,,,,,,,,,,,,,,,,,,,AMP,right,2.0007572263712063,,,right,1,2.0007572263712063,1,,,,,,,,,,,,,,,,,,,,1021,2019_Mar_06_1241,mf_amp_cond1,3.0.4,60.143706449975504,
fighters,chonograph,&&&&&&&&&&,right,authority.vice,,,,,0,90,90,90,,,,,,,,,,,,,,,,,,,,,,,AMP,right,1.684009213699028,,,right,1,1.684009213699028,1,,,,,,,,,,,,,,,,,,,,1021,2019_Mar_06_1241,mf_amp_cond1,3.0.4,60.143706449975504,
viscs,gowlands,&&&&&&&&,None,nonword,,,,,0,91,91,91,,,,,,,,,,,,,,,,,,,,,,,AMP,left,0.5670445208670571,,,left,0,0.5670445208670571,0,,,,,,,,,,,,,,,,,,,,1021,2019_Mar_06_1241,mf_amp_cond1,3.0.4,60.143706449975504,
growth,faspberry,&&&&&&&&&,left,care.virtue,,,,,0,92,92,92,,,,,,,,,,,,,,,,,,,,,,,AMP,right,0.5503791263327003,,,right,0,0.5503791263327003,0,,,,,,,,,,,,,,,,,,,,1021,2019_Mar_06_1241,mf_amp_cond1,3.0.4,60.143706449975504,
victims,divility,&&&&&&&&,right,care.vice,,,,,0,93,93,93,,,,,,,,,,,,,,,,,,,,,,,AMP,right,0.7003962208982557,,,right,1,0.7003962208982557,1,,,,,,,,,,,,,,,,,,,,1021,2019_Mar_06_1241,mf_amp_cond1,3.0.4,60.143706449975504,
integrity,taxpayung,&&&&&&&&&,left,fairness.virtue,,,,,0,94,94,94,,,,,,,,,,,,,,,,,,,,,,,AMP,left,0.5503977282205597,,,left,1,0.5503977282205597,1,,,,,,,,,,,,,,,,,,,,1021,2019_Mar_06_1241,mf_amp_cond1,3.0.4,60.143706449975504,
progress,erks,&&&&,left,authority.virtue,,,,,0,95,95,95,,,,,,,,,,,,,,,,,,,,,,,AMP,right,0.7671033412916586,,,right,0,0.7671033412916586,0,,,,,,,,,,,,,,,,,,,,1021,2019_Mar_06_1241,mf_amp_cond1,3.0.4,60.143706449975504,
fair,hatigue,&&&&&&&,left,fairness.virtue,,,,,0,96,96,96,,,,,,,,,,,,,,,,,,,,,,,AMP,left,1.4339583792025223,,,left,1,1.4339583792025223,1,,,,,,,,,,,,,,,,,,,,1021,2019_Mar_06_1241,mf_amp_cond1,3.0.4,60.143706449975504,
threatened,wump,&&&&,right,fairness.vice,,,,,0,97,97,97,,,,,,,,,,,,,,,,,,,,,,,AMP,right,0.4670370800886303,,,right,1,0.4670370800886303,1,,,,,,,,,,,,,,,,,,,,1021,2019_Mar_06_1241,mf_amp_cond1,3.0.4,60.143706449975504,
violations,ronviolence,&&&&&&&&&&&,right,sanctity.vice,,,,,0,98,98,98,,,,,,,,,,,,,,,,,,,,,,,AMP,left,2.100773647427559,,,left,0,2.100773647427559,0,,,,,,,,,,,,,,,,,,,,1021,2019_Mar_06_1241,mf_amp_cond1,3.0.4,60.143706449975504,
saned,oam,&&&,None,nonword,,,,,0,99,99,99,,,,,,,,,,,,,,,,,,,,,,,AMP,left,1.9007696703774855,,,left,0,1.9007696703774855,0,,,,,,,,,,,,,,,,,,,,1021,2019_Mar_06_1241,mf_amp_cond1,3.0.4,60.143706449975504,
hope,bluently,&&&&&&&&,left,loyalty.virtue,,,,,0,100,100,100,,,,,,,,,,,,,,,,,,,,,,,AMP,right,1.2672245744615793,,,right,0,1.2672245744615793,0,,,,,,,,,,,,,,,,,,,,1021,2019_Mar_06_1241,mf_amp_cond1,3.0.4,60.143706449975504,
dignity,prones,&&&&&&,left,sanctity.virtue,,,,,0,101,101,101,,,,,,,,,,,,,,,,,,,,,,,AMP,right,0.6337673566304147,,,right,0,0.6337673566304147,0,,,,,,,,,,,,,,,,,,,,1021,2019_Mar_06_1241,mf_amp_cond1,3.0.4,60.143706449975504,
lies,Loorish,&&&&&&&,right,fairness.vice,,,,,0,102,102,102,,,,,,,,,,,,,,,,,,,,,,,AMP,left,0.4836861176881939,,,left,0,0.4836861176881939,0,,,,,,,,,,,,,,,,,,,,1021,2019_Mar_06_1241,mf_amp_cond1,3.0.4,60.143706449975504,
unpleasant,reprisols,&&&&&&&&&,None,control,,,,,0,103,103,103,,,,,,,,,,,,,,,,,,,,,,,AMP,left,1.1338696671882644,,,left,0,1.1338696671882644,0,,,,,,,,,,,,,,,,,,,,1021,2019_Mar_06_1241,mf_amp_cond1,3.0.4,60.143706449975504,
gun,stindig,&&&&&&&,right,authority.vice,,,,,0,104,104,104,,,,,,,,,,,,,,,,,,,,,,,AMP,right,2.8843034447636455,,,right,1,2.8843034447636455,1,,,,,,,,,,,,,,,,,,,,1021,2019_Mar_06_1241,mf_amp_cond1,3.0.4,60.143706449975504,
torture,presentkess,&&&&&&&&&&&,right,care.vice,,,,,0,105,105,105,,,,,,,,,,,,,,,,,,,,,,,AMP,left,1.200547922635451,,,left,0,1.200547922635451,0,,,,,,,,,,,,,,,,,,,,1021,2019_Mar_06_1241,mf_amp_cond1,3.0.4,60.143706449975504,
safe,shoirmaster,&&&&&&&&&&&,left,care.virtue,,,,,0,106,106,106,,,,,,,,,,,,,,,,,,,,,,,AMP,right,0.63371026806999,,,right,0,0.63371026806999,0,,,,,,,,,,,,,,,,,,,,1021,2019_Mar_06_1241,mf_amp_cond1,3.0.4,60.143706449975504,
crime,gusinesslike,&&&&&&&&&&&&,right,fairness.vice,,,,,0,107,107,107,,,,,,,,,,,,,,,,,,,,,,,AMP,left,1.483955845469609,,,left,0,1.483955845469609,0,,,,,,,,,,,,,,,,,,,,1021,2019_Mar_06_1241,mf_amp_cond1,3.0.4,60.143706449975504,
protect,thadowed,&&&&&&&&,left,fairness.virtue,,,,,0,108,108,108,,,,,,,,,,,,,,,,,,,,,,,AMP,left,0.5337060345336795,,,left,1,0.5337060345336795,1,,,,,,,,,,,,,,,,,,,,1021,2019_Mar_06_1241,mf_amp_cond1,3.0.4,60.143706449975504,
slavery,focomotive,&&&&&&&&&&,right,loyalty.vice,,,,,0,109,109,109,,,,,,,,,,,,,,,,,,,,,,,AMP,right,3.35111890535336,,,right,1,3.35111890535336,1,,,,,,,,,,,,,,,,,,,,1021,2019_Mar_06_1241,mf_amp_cond1,3.0.4,60.143706449975504,
ability,hefurbished,&&&&&&&&&&&,left,authority.virtue,,,,,0,110,110,110,,,,,,,,,,,,,,,,,,,,,,,AMP,left,1.3505961273331195,,,left,1,1.3505961273331195,1,,,,,,,,,,,,,,,,,,,,1021,2019_Mar_06_1241,mf_amp_cond1,3.0.4,60.143706449975504,
drug,discovars,&&&&&&&&&,right,sanctity.vice,,,,,0,111,111,111,,,,,,,,,,,,,,,,,,,,,,,AMP,left,3.4677885334240273,,,left,0,3.4677885334240273,0,,,,,,,,,,,,,,,,,,,,1021,2019_Mar_06_1241,mf_amp_cond1,3.0.4,60.143706449975504,
hate,smapper,&&&&&&&,right,fairness.vice,,,,,0,112,112,112,,,,,,,,,,,,,,,,,,,,,,,AMP,right,2.2174593114759773,,,right,1,2.2174593114759773,1,,,,,,,,,,,,,,,,,,,,1021,2019_Mar_06_1241,mf_amp_cond1,3.0.4,60.143706449975504,
attacks,pharing,&&&&&&&,right,care.vice,,,,,0,113,113,113,,,,,,,,,,,,,,,,,,,,,,,AMP,right,1.0171631560660899,,,right,1,1.0171631560660899,1,,,,,,,,,,,,,,,,,,,,1021,2019_Mar_06_1241,mf_amp_cond1,3.0.4,60.143706449975504,
care,Cunday,&&&&&&,left,care.virtue,,,,,0,114,114,114,,,,,,,,,,,,,,,,,,,,,,,AMP,left,0.8837909299181774,,,left,1,0.8837909299181774,1,,,,,,,,,,,,,,,,,,,,1021,2019_Mar_06_1241,mf_amp_cond1,3.0.4,60.143706449975504,
corruption,unscothed,&&&&&&&&&,right,sanctity.vice,,,,,0,115,115,115,,,,,,,,,,,,,,,,,,,,,,,AMP,right,1.533983138971962,,,right,1,1.533983138971962,1,,,,,,,,,,,,,,,,,,,,1021,2019_Mar_06_1241,mf_amp_cond1,3.0.4,60.143706449975504,
praised,synchronazers,&&&&&&&&&&&&&,left,loyalty.virtue,,,,,0,116,116,116,,,,,,,,,,,,,,,,,,,,,,,AMP,left,1.017114085610956,,,left,1,1.017114085610956,1,,,,,,,,,,,,,,,,,,,,1021,2019_Mar_06_1241,mf_amp_cond1,3.0.4,60.143706449975504,
grovelire,ittutable,&&&&&&&&&,None,nonword,,,,,0,117,117,117,,,,,,,,,,,,,,,,,,,,,,,AMP,left,1.0338314370019361,,,left,0,1.0338314370019361,0,,,,,,,,,,,,,,,,,,,,1021,2019_Mar_06_1241,mf_amp_cond1,3.0.4,60.143706449975504,
critics,totalestic,&&&&&&&&&&,right,loyalty.vice,,,,,0,118,118,118,,,,,,,,,,,,,,,,,,,,,,,AMP,right,1.0671750550391153,,,right,1,1.0671750550391153,1,,,,,,,,,,,,,,,,,,,,1021,2019_Mar_06_1241,mf_amp_cond1,3.0.4,60.143706449975504,
groups,spag,&&&&,right,loyalty.vice,,,,,0,119,119,119,,,,,,,,,,,,,,,,,,,,,,,AMP,left,0.8504716869210824,,,left,0,0.8504716869210824,0,,,,,,,,,,,,,,,,,,,,1021,2019_Mar_06_1241,mf_amp_cond1,3.0.4,60.143706449975504,
benefit,lenon,&&&&&,left,fairness.virtue,,,,,0,120,120,120,,,,,,,,,,,,,,,,,,,,,,,AMP,right,0.767102058394812,,,right,0,0.767102058394812,0,,,,,,,,,,,,,,,,,,,,1021,2019_Mar_06_1241,mf_amp_cond1,3.0.4,60.143706449975504,
perfect,asn,&&&,left,sanctity.virtue,,,,,0,121,121,121,,,,,,,,,,,,,,,,,,,,,,,AMP,left,1.4339554926846176,,,left,1,1.4339554926846176,1,,,,,,,,,,,,,,,,,,,,1021,2019_Mar_06_1241,mf_amp_cond1,3.0.4,60.143706449975504,
lursuer,framatic,&&&&&&&&,None,nonword,,,,,0,122,122,122,,,,,,,,,,,,,,,,,,,,,,,AMP,right,2.6175884986296296,,,right,0,2.6175884986296296,0,,,,,,,,,,,,,,,,,,,,1021,2019_Mar_06_1241,mf_amp_cond1,3.0.4,60.143706449975504,
fraud,tomedians,&&&&&&&&&,right,fairness.vice,,,,,0,123,123,123,,,,,,,,,,,,,,,,,,,,,,,AMP,right,3.3844548258930445,,,right,1,3.3844548258930445,1,,,,,,,,,,,,,,,,,,,,1021,2019_Mar_06_1241,mf_amp_cond1,3.0.4,60.143706449975504,
racist,sonvoy,&&&&&&,right,sanctity.vice,,,,,0,124,124,124,,,,,,,,,,,,,,,,,,,,,,,AMP,left,0.5003553607966751,,,left,0,0.5003553607966751,0,,,,,,,,,,,,,,,,,,,,1021,2019_Mar_06_1241,mf_amp_cond1,3.0.4,60.143706449975504,
crilfully,quarterbocks,&&&&&&&&&&&&,None,nonword,,,,,0,125,125,125,,,,,,,,,,,,,,,,,,,,,,,AMP,left,2.7509514240082353,,,left,0,2.7509514240082353,0,,,,,,,,,,,,,,,,,,,,1021,2019_Mar_06_1241,mf_amp_cond1,3.0.4,60.143706449975504,
promised,dumid,&&&&&,left,loyalty.virtue,,,,,0,126,126,126,,,,,,,,,,,,,,,,,,,,,,,AMP,left,2.1174409661907703,,,left,1,2.1174409661907703,1,,,,,,,,,,,,,,,,,,,,1021,2019_Mar_06_1241,mf_amp_cond1,3.0.4,60.143706449975504,
violence,mih,&&&,right,care.vice,,,,,0,127,127,127,,,,,,,,,,,,,,,,,,,,,,,AMP,right,0.6837449382292107,,,right,1,0.6837449382292107,1,,,,,,,,,,,,,,,,,,,,1021,2019_Mar_06_1241,mf_amp_cond1,3.0.4,60.143706449975504,
scandal,chadows,&&&&&&&,right,sanctity.vice,,,,,0,128,128,128,,,,,,,,,,,,,,,,,,,,,,,AMP,left,0.5003672274760902,,,left,0,0.5003672274760902,0,,,,,,,,,,,,,,,,,,,,1021,2019_Mar_06_1241,mf_amp_cond1,3.0.4,60.143706449975504,
win,crinking,&&&&&&&&,left,fairness.virtue,,,,,0,129,129,129,,,,,,,,,,,,,,,,,,,,,,,AMP,right,1.9507321779383346,,,right,0,1.9507321779383346,0,,,,,,,,,,,,,,,,,,,,1021,2019_Mar_06_1241,mf_amp_cond1,3.0.4,60.143706449975504,
hand,coom,&&&&,left,sanctity.virtue,,,,,0,130,130,130,,,,,,,,,,,,,,,,,,,,,,,AMP,right,1.7006511954823509,,,right,0,1.7006511954823509,0,,,,,,,,,,,,,,,,,,,,1021,2019_Mar_06_1241,mf_amp_cond1,3.0.4,60.143706449975504,
forepo,frojecting,&&&&&&&&&&,None,nonword,,,,,0,131,131,131,,,,,,,,,,,,,,,,,,,,,,,AMP,left,0.9504986917600036,,,left,0,0.9504986917600036,0,,,,,,,,,,,,,,,,,,,,1021,2019_Mar_06_1241,mf_amp_cond1,3.0.4,60.143706449975504,
voter,brotesque,&&&&&&&&&,right,fairness.vice,,,,,0,132,132,132,,,,,,,,,,,,,,,,,,,,,,,AMP,left,0.4836995879886672,,,left,0,0.4836995879886672,0,,,,,,,,,,,,,,,,,,,,1021,2019_Mar_06_1241,mf_amp_cond1,3.0.4,60.143706449975504,
arrests,squets,&&&&&&,right,authority.vice,,,,,0,133,133,133,,,,,,,,,,,,,,,,,,,,,,,AMP,left,0.5337169390404597,,,left,0,0.5337169390404597,0,,,,,,,,,,,,,,,,,,,,1021,2019_Mar_06_1241,mf_amp_cond1,3.0.4,60.143706449975504,
health,sliptery,&&&&&&&&,left,care.virtue,,,,,0,134,134,134,,,,,,,,,,,,,,,,,,,,,,,AMP,left,1.0005061004776508,,,left,1,1.0005061004776508,1,,,,,,,,,,,,,,,,,,,,1021,2019_Mar_06_1241,mf_amp_cond1,3.0.4,60.143706449975504,
actively,laming,&&&&&&,left,authority.virtue,,,,,0,135,135,135,,,,,,,,,,,,,,,,,,,,,,,AMP,right,2.5342307368991897,,,right,0,2.5342307368991897,0,,,,,,,,,,,,,,,,,,,,1021,2019_Mar_06_1241,mf_amp_cond1,3.0.4,60.143706449975504,
army,simplustic,&&&&&&&&&&,right,loyalty.vice,,,,,0,136,136,136,,,,,,,,,,,,,,,,,,,,,,,AMP,right,0.9171374342404306,,,right,1,0.9171374342404306,1,,,,,,,,,,,,,,,,,,,,1021,2019_Mar_06_1241,mf_amp_cond1,3.0.4,60.143706449975504,
prosecution,leact,&&&&&,right,authority.vice,,,,,0,137,137,137,,,,,,,,,,,,,,,,,,,,,,,AMP,right,1.4006949421018362,,,right,1,1.4006949421018362,1,,,,,,,,,,,,,,,,,,,,1021,2019_Mar_06_1241,mf_amp_cond1,3.0.4,60.143706449975504,
serial,galamitous,&&&&&&&&&&,right,sanctity.vice,,,,,0,138,138,138,,,,,,,,,,,,,,,,,,,,,,,AMP,right,0.850306194042787,,,right,1,0.850306194042787,1,,,,,,,,,,,,,,,,,,,,1021,2019_Mar_06_1241,mf_amp_cond1,3.0.4,60.143706449975504,
interests,mecan,&&&&&,left,fairness.virtue,,,,,0,139,139,139,,,,,,,,,,,,,,,,,,,,,,,AMP,left,0.5170470544835553,,,left,1,0.5170470544835553,1,,,,,,,,,,,,,,,,,,,,1021,2019_Mar_06_1241,mf_amp_cond1,3.0.4,60.143706449975504,
celebrated,halaise,&&&&&&&,left,authority.virtue,,,,,0,140,140,140,,,,,,,,,,,,,,,,,,,,,,,AMP,right,0.5670490108896047,,,right,0,0.5670490108896047,0,,,,,,,,,,,,,,,,,,,,1021,2019_Mar_06_1241,mf_amp_cond1,3.0.4,60.143706449975504,
strong,framo,&&&&&,left,loyalty.virtue,,,,,0,141,141,141,,,,,,,,,,,,,,,,,,,,,,,AMP,right,0.6337423402583227,,,right,0,0.6337423402583227,0,,,,,,,,,,,,,,,,,,,,1021,2019_Mar_06_1241,mf_amp_cond1,3.0.4,60.143706449975504,
shot,metibolic,&&&&&&&&&,right,care.vice,,,,,0,142,142,142,,,,,,,,,,,,,,,,,,,,,,,AMP,right,1.7173739993013442,,,right,1,1.7173739993013442,1,,,,,,,,,,,,,,,,,,,,1021,2019_Mar_06_1241,mf_amp_cond1,3.0.4,60.143706449975504,
dramens,ablow,&&&&&,None,nonword,,,,,0,143,143,143,,,,,,,,,,,,,,,,,,,,,,,AMP,left,0.533726240042597,,,left,0,0.533726240042597,0,,,,,,,,,,,,,,,,,,,,1021,2019_Mar_06_1241,mf_amp_cond1,3.0.4,60.143706449975504,
faith,tabin,&&&&&,left,sanctity.virtue,,,,,0,144,144,144,,,,,,,,,,,,,,,,,,,,,,,AMP,left,0.7837680943775922,,,left,1,0.7837680943775922,1,,,,,,,,,,,,,,,,,,,,1021,2019_Mar_06_1241,mf_amp_cond1,3.0.4,60.143706449975504,
rebels,bycled,&&&&&&,right,authority.vice,,,,,0,145,145,145,,,,,,,,,,,,,,,,,,,,,,,AMP,left,0.9338560686446726,,,left,0,0.9338560686446726,0,,,,,,,,,,,,,,,,,,,,1021,2019_Mar_06_1241,mf_amp_cond1,3.0.4,60.143706449975504,
sharing,gandbrake,&&&&&&&&&,left,loyalty.virtue,,,,,0,146,146,146,,,,,,,,,,,,,,,,,,,,,,,AMP,right,0.783920437679626,,,right,0,0.783920437679626,0,,,,,,,,,,,,,,,,,,,,1021,2019_Mar_06_1241,mf_amp_cond1,3.0.4,60.143706449975504,
prison,chressing,&&&&&&&&&,right,fairness.vice,,,,,0,147,147,147,,,,,,,,,,,,,,,,,,,,,,,AMP,left,0.7004141813376918,,,left,0,0.7004141813376918,0,,,,,,,,,,,,,,,,,,,,1021,2019_Mar_06_1241,mf_amp_cond1,3.0.4,60.143706449975504,
promises,clattening,&&&&&&&&&&,left,fairness.virtue,,,,,0,148,148,148,,,,,,,,,,,,,,,,,,,,,,,AMP,right,1.9007687082048506,,,right,0,1.9007687082048506,0,,,,,,,,,,,,,,,,,,,,1021,2019_Mar_06_1241,mf_amp_cond1,3.0.4,60.143706449975504,
love,frocessing,&&&&&&&&&&,left,loyalty.virtue,,,,,0,149,149,149,,,,,,,,,,,,,,,,,,,,,,,AMP,right,0.7504116476047784,,,right,0,0.7504116476047784,0,,,,,,,,,,,,,,,,,,,,1021,2019_Mar_06_1241,mf_amp_cond1,3.0.4,60.143706449975504,
improve,noped,&&&&&,left,care.virtue,,,,,0,150,150,150,,,,,,,,,,,,,,,,,,,,,,,AMP,right,1.233885126071982,,,right,0,1.233885126071982,0,,,,,,,,,,,,,,,,,,,,1021,2019_Mar_06_1241,mf_amp_cond1,3.0.4,60.143706449975504,
penalty,pulge,&&&&&,right,authority.vice,,,,,0,151,151,151,,,,,,,,,,,,,,,,,,,,,,,AMP,right,1.5339680649340153,,,right,1,1.5339680649340153,1,,,,,,,,,,,,,,,,,,,,1021,2019_Mar_06_1241,mf_amp_cond1,3.0.4,60.143706449975504,
pleasant,tracious,&&&&&&&&,None,control,,,,,0,152,152,152,,,,,,,,,,,,,,,,,,,,,,,AMP,right,0.7338947477983311,,,right,0,0.7338947477983311,0,,,,,,,,,,,,,,,,,,,,1021,2019_Mar_06_1241,mf_amp_cond1,3.0.4,60.143706449975504,
honored,gationwide,&&&&&&&&&&,left,authority.virtue,,,,,0,153,153,153,,,,,,,,,,,,,,,,,,,,,,,AMP,left,0.45036495046224445,,,left,1,0.45036495046224445,1,,,,,,,,,,,,,,,,,,,,1021,2019_Mar_06_1241,mf_amp_cond1,3.0.4,60.143706449975504,
nomaric,refuejing,&&&&&&&&&,None,nonword,,,,,0,154,154,154,,,,,,,,,,,,,,,,,,,,,,,AMP,left,0.6170727765420452,,,left,0,0.6170727765420452,0,,,,,,,,,,,,,,,,,,,,1021,2019_Mar_06_1241,mf_amp_cond1,3.0.4,60.143706449975504,
help,sickyay,&&&&&&&,left,care.virtue,,,,,0,155,155,155,,,,,,,,,,,,,,,,,,,,,,,AMP,right,0.6504542395705357,,,right,0,0.6504542395705357,0,,,,,,,,,,,,,,,,,,,,1021,2019_Mar_06_1241,mf_amp_cond1,3.0.4,60.143706449975504,
thabbily,gillipede,&&&&&&&&&,None,nonword,,,,,0,156,156,156,,,,,,,,,,,,,,,,,,,,,,,AMP,right,1.950754307792522,,,right,0,1.950754307792522,0,,,,,,,,,,,,,,,,,,,,1021,2019_Mar_06_1241,mf_amp_cond1,3.0.4,60.143706449975504,
great,precificity,&&&&&&&&&&&,left,loyalty.virtue,,,,,0,157,157,157,,,,,,,,,,,,,,,,,,,,,,,AMP,right,3.367760887136683,,,right,0,3.367760887136683,0,,,,,,,,,,,,,,,,,,,,1021,2019_Mar_06_1241,mf_amp_cond1,3.0.4,60.143706449975504,
died,egpeditious,&&&&&&&&&&&,right,care.vice,,,,,0,158,158,158,,,,,,,,,,,,,,,,,,,,,,,AMP,left,0.33367864473257214,,,left,0,0.33367864473257214,0,,,,,,,,,,,,,,,,,,,,1021,2019_Mar_06_1241,mf_amp_cond1,3.0.4,60.143706449975504,
embrace,ugeasily,&&&&&&&&,left,authority.virtue,,,,,0,159,159,159,,,,,,,,,,,,,,,,,,,,,,,AMP,left,0.5837002935586497,,,left,1,0.5837002935586497,1,,,,,,,,,,,,,,,,,,,,1021,2019_Mar_06_1241,mf_amp_cond1,3.0.4,60.143706449975504,
men,infet,&&&&&,right,loyalty.vice,,,,,0,160,160,160,,,,,,,,,,,,,,,,,,,,,,,AMP,right,1.4673372764373198,,,right,1,1.4673372764373198,1,,,,,,,,,,,,,,,,,,,,1021,2019_Mar_06_1241,mf_amp_cond1,3.0.4,60.143706449975504,
compassion,gazily,&&&&&&,left,care.virtue,,,,,0,161,161,161,,,,,,,,,,,,,,,,,,,,,,,AMP,right,2.250818644766696,,,right,0,2.250818644766696,0,,,,,,,,,,,,,,,,,,,,1021,2019_Mar_06_1241,mf_amp_cond1,3.0.4,60.143706449975504,
sexual,scock,&&&&&,right,sanctity.vice,,,,,0,162,162,162,,,,,,,,,,,,,,,,,,,,,,,AMP,left,0.8504611030220985,,,left,0,0.8504611030220985,0,,,,,,,,,,,,,,,,,,,,1021,2019_Mar_06_1241,mf_amp_cond1,3.0.4,60.143706449975504,
promote,epigrach,&&&&&&&&,left,sanctity.virtue,,,,,0,163,163,163,,,,,,,,,,,,,,,,,,,,,,,AMP,left,1.9007356737274677,,,left,1,1.9007356737274677,1,,,,,,,,,,,,,,,,,,,,1021,2019_Mar_06_1241,mf_amp_cond1,3.0.4,60.143706449975504,
attacks,chadows,&&&&&&&,right,care.vice,,,,,0,164,164,164,,,,,,,,,,,,,,,,,,,,,,,AMP,left,1.150531854480505,,,left,0,1.150531854480505,0,,,,,,,,,,,,,,,,,,,,1021,2019_Mar_06_1241,mf_amp_cond1,3.0.4,60.143706449975504,
arrests,carvels,&&&&&&&,right,authority.vice,,,,,0,165,165,165,,,,,,,,,,,,,,,,,,,,,,,AMP,right,0.8337735787499696,,,right,1,0.8337735787499696,1,,,,,,,,,,,,,,,,,,,,1021,2019_Mar_06_1241,mf_amp_cond1,3.0.4,60.143706449975504,
compassion,pulge,&&&&&,left,care.virtue,,,,,0,166,166,166,,,,,,,,,,,,,,,,,,,,,,,AMP,left,1.5172908038366586,,,left,1,1.5172908038366586,1,,,,,,,,,,,,,,,,,,,,1021,2019_Mar_06_1241,mf_amp_cond1,3.0.4,60.143706449975504,
grovelire,halaise,&&&&&&&,None,nonword,,,,,0,167,167,167,,,,,,,,,,,,,,,,,,,,,,,AMP,right,0.36698954890016466,,,right,0,0.36698954890016466,0,,,,,,,,,,,,,,,,,,,,1021,2019_Mar_06_1241,mf_amp_cond1,3.0.4,60.143706449975504,
perfect,ugeasily,&&&&&&&&,left,sanctity.virtue,,,,,0,168,168,168,,,,,,,,,,,,,,,,,,,,,,,AMP,left,0.6003515763441101,,,left,1,0.6003515763441101,1,,,,,,,,,,,,,,,,,,,,1021,2019_Mar_06_1241,mf_amp_cond1,3.0.4,60.143706449975504,
thabbily,frojecting,&&&&&&&&&&,None,nonword,,,,,0,169,169,169,,,,,,,,,,,,,,,,,,,,,,,AMP,left,3.034431188600138,,,left,0,3.034431188600138,0,,,,,,,,,,,,,,,,,,,,1021,2019_Mar_06_1241,mf_amp_cond1,3.0.4,60.143706449975504,
prosecution,Loorish,&&&&&&&,right,authority.vice,,,,,0,170,170,170,,,,,,,,,,,,,,,,,,,,,,,AMP,left,0.45038162800483406,,,left,0,0.45038162800483406,0,,,,,,,,,,,,,,,,,,,,1021,2019_Mar_06_1241,mf_amp_cond1,3.0.4,60.143706449975504,
voter,gandbrake,&&&&&&&&&,right,fairness.vice,,,,,0,171,171,171,,,,,,,,,,,,,,,,,,,,,,,AMP,right,1.4505859282799065,,,right,1,1.4505859282799065,1,,,,,,,,,,,,,,,,,,,,1021,2019_Mar_06_1241,mf_amp_cond1,3.0.4,60.143706449975504,
serial,tomedians,&&&&&&&&&,right,sanctity.vice,,,,,0,172,172,172,,,,,,,,,,,,,,,,,,,,,,,AMP,right,0.9171563568525016,,,right,1,0.9171563568525016,1,,,,,,,,,,,,,,,,,,,,1021,2019_Mar_06_1241,mf_amp_cond1,3.0.4,60.143706449975504,
racist,framatic,&&&&&&&&,right,sanctity.vice,,,,,0,173,173,173,,,,,,,,,,,,,,,,,,,,,,,AMP,right,0.6337205312447622,,,right,1,0.6337205312447622,1,,,,,,,,,,,,,,,,,,,,1021,2019_Mar_06_1241,mf_amp_cond1,3.0.4,60.143706449975504,
lursuer,mecan,&&&&&,None,nonword,,,,,0,174,174,174,,,,,,,,,,,,,,,,,,,,,,,AMP,left,2.01742005511187,,,left,0,2.01742005511187,0,,,,,,,,,,,,,,,,,,,,1021,2019_Mar_06_1241,mf_amp_cond1,3.0.4,60.143706449975504,
sexual,yane,&&&&,right,sanctity.vice,,,,,0,175,175,175,,,,,,,,,,,,,,,,,,,,,,,AMP,left,1.8840536017669365,,,left,0,1.8840536017669365,0,,,,,,,,,,,,,,,,,,,,1021,2019_Mar_06_1241,mf_amp_cond1,3.0.4,60.143706449975504,
ability,pullness,&&&&&&&&,left,authority.virtue,,,,,0,176,176,176,,,,,,,,,,,,,,,,,,,,,,,AMP,right,2.6675901343114674,,,right,0,2.6675901343114674,0,,,,,,,,,,,,,,,,,,,,1021,2019_Mar_06_1241,mf_amp_cond1,3.0.4,60.143706449975504,
hate,bluently,&&&&&&&&,right,fairness.vice,,,,,0,177,177,177,,,,,,,,,,,,,,,,,,,,,,,AMP,left,0.9505006161052734,,,left,0,0.9505006161052734,0,,,,,,,,,,,,,,,,,,,,1021,2019_Mar_06_1241,mf_amp_cond1,3.0.4,60.143706449975504,
progress,epigrach,&&&&&&&&,left,authority.virtue,,,,,0,178,178,178,,,,,,,,,,,,,,,,,,,,,,,AMP,left,2.4507857386488467,,,left,1,2.4507857386488467,1,,,,,,,,,,,,,,,,,,,,1021,2019_Mar_06_1241,mf_amp_cond1,3.0.4,60.143706449975504,
ban,quarterbocks,&&&&&&&&&&&&,right,loyalty.vice,,,,,0,179,179,179,,,,,,,,,,,,,,,,,,,,,,,AMP,left,0.5170364707009867,,,left,0,0.5170364707009867,0,,,,,,,,,,,,,,,,,,,,1021,2019_Mar_06_1241,mf_amp_cond1,3.0.4,60.143706449975504,
victims,unscothed,&&&&&&&&&,right,care.vice,,,,,0,180,180,180,,,,,,,,,,,,,,,,,,,,,,,AMP,left,0.8838114561513066,,,left,0,0.8838114561513066,0,,,,,,,,,,,,,,,,,,,,1021,2019_Mar_06_1241,mf_amp_cond1,3.0.4,60.143706449975504,
great,reprisols,&&&&&&&&&,left,loyalty.virtue,,,,,0,181,181,181,,,,,,,,,,,,,,,,,,,,,,,AMP,left,0.7836458990350366,,,left,1,0.7836458990350366,1,,,,,,,,,,,,,,,,,,,,1021,2019_Mar_06_1241,mf_amp_cond1,3.0.4,60.143706449975504,
terrorist,infet,&&&&&,right,loyalty.vice,,,,,0,182,182,182,,,,,,,,,,,,,,,,,,,,,,,AMP,right,1.7506929214578122,,,right,1,1.7506929214578122,1,,,,,,,,,,,,,,,,,,,,1021,2019_Mar_06_1241,mf_amp_cond1,3.0.4,60.143706449975504,
useful,refuejing,&&&&&&&&&,left,authority.virtue,,,,,0,183,183,183,,,,,,,,,,,,,,,,,,,,,,,AMP,left,0.433535025222227,,,left,1,0.433535025222227,1,,,,,,,,,,,,,,,,,,,,1021,2019_Mar_06_1241,mf_amp_cond1,3.0.4,60.143706449975504,
dramens,faspberry,&&&&&&&&&,None,nonword,,,,,0,184,184,184,,,,,,,,,,,,,,,,,,,,,,,AMP,right,0.5337060345336795,,,right,0,0.5337060345336795,0,,,,,,,,,,,,,,,,,,,,1021,2019_Mar_06_1241,mf_amp_cond1,3.0.4,60.143706449975504,
health,Cunday,&&&&&&,left,care.virtue,,,,,0,185,185,185,,,,,,,,,,,,,,,,,,,,,,,AMP,left,1.834051645360887,,,left,1,1.834051645360887,1,,,,,,,,,,,,,,,,,,,,1021,2019_Mar_06_1241,mf_amp_cond1,3.0.4,60.143706449975504,
improve,hefurbished,&&&&&&&&&&&,left,care.virtue,,,,,0,186,186,186,,,,,,,,,,,,,,,,,,,,,,,AMP,left,1.0838452603202313,,,left,1,1.0838452603202313,1,,,,,,,,,,,,,,,,,,,,1021,2019_Mar_06_1241,mf_amp_cond1,3.0.4,60.143706449975504,
safe,gusinesslike,&&&&&&&&&&&&,left,care.virtue,,,,,0,187,187,187,,,,,,,,,,,,,,,,,,,,,,,AMP,right,2.167460883036256,,,right,0,2.167460883036256,0,,,,,,,,,,,,,,,,,,,,1021,2019_Mar_06_1241,mf_amp_cond1,3.0.4,60.143706449975504,
dignity,tracious,&&&&&&&&,left,sanctity.virtue,,,,,0,188,188,188,,,,,,,,,,,,,,,,,,,,,,,AMP,right,0.5170011912705377,,,right,0,0.5170011912705377,0,,,,,,,,,,,,,,,,,,,,1021,2019_Mar_06_1241,mf_amp_cond1,3.0.4,60.143706449975504,
love,dumid,&&&&&,left,loyalty.virtue,,,,,0,189,189,189,,,,,,,,,,,,,,,,,,,,,,,AMP,right,3.9845928008435294,,,right,0,3.9845928008435294,0,,,,,,,,,,,,,,,,,,,,1021,2019_Mar_06_1241,mf_amp_cond1,3.0.4,60.143706449975504,
victim,hatigue,&&&&&&&,right,care.vice,,,,,0,190,190,190,,,,,,,,,,,,,,,,,,,,,,,AMP,right,0.7837802818976343,,,right,1,0.7837802818976343,1,,,,,,,,,,,,,,,,,,,,1021,2019_Mar_06_1241,mf_amp_cond1,3.0.4,60.143706449975504,
integrity,asn,&&&,left,fairness.virtue,,,,,0,191,191,191,,,,,,,,,,,,,,,,,,,,,,,AMP,left,1.6673383669694886,,,left,1,1.6673383669694886,1,,,,,,,,,,,,,,,,,,,,1021,2019_Mar_06_1241,mf_amp_cond1,3.0.4,60.143706449975504,
win,precificity,&&&&&&&&&&&,left,fairness.virtue,,,,,0,192,192,192,,,,,,,,,,,,,,,,,,,,,,,AMP,left,3.0010009756078944,,,left,1,3.0010009756078944,1,,,,,,,,,,,,,,,,,,,,1021,2019_Mar_06_1241,mf_amp_cond1,3.0.4,60.143706449975504,
sharing,ittutable,&&&&&&&&&,left,loyalty.virtue,,,,,0,193,193,193,,,,,,,,,,,,,,,,,,,,,,,AMP,left,1.9173375652171671,,,left,1,1.9173375652171671,1,,,,,,,,,,,,,,,,,,,,1021,2019_Mar_06_1241,mf_amp_cond1,3.0.4,60.143706449975504,
violations,brudent,&&&&&&&,right,sanctity.vice,,,,,0,194,194,194,,,,,,,,,,,,,,,,,,,,,,,AMP,right,2.1174537950428203,,,right,1,2.1174537950428203,1,,,,,,,,,,,,,,,,,,,,1021,2019_Mar_06_1241,mf_amp_cond1,3.0.4,60.143706449975504,
nomaric,frocessing,&&&&&&&&&&,None,nonword,,,,,0,195,195,195,,,,,,,,,,,,,,,,,,,,,,,AMP,left,1.3839416694827378,,,left,0,1.3839416694827378,0,,,,,,,,,,,,,,,,,,,,1021,2019_Mar_06_1241,mf_amp_cond1,3.0.4,60.143706449975504,
fraud,taxpayung,&&&&&&&&&,right,fairness.vice,,,,,0,196,196,196,,,,,,,,,,,,,,,,,,,,,,,AMP,left,0.4169953539967537,,,left,0,0.4169953539967537,0,,,,,,,,,,,,,,,,,,,,1021,2019_Mar_06_1241,mf_amp_cond1,3.0.4,60.143706449975504,
strong,presentkess,&&&&&&&&&&&,left,loyalty.virtue,,,,,0,197,197,197,,,,,,,,,,,,,,,,,,,,,,,AMP,right,0.9504730339394882,,,right,0,0.9504730339394882,0,,,,,,,,,,,,,,,,,,,,1021,2019_Mar_06_1241,mf_amp_cond1,3.0.4,60.143706449975504,
army,oam,&&&,right,loyalty.vice,,,,,0,198,198,198,,,,,,,,,,,,,,,,,,,,,,,AMP,left,0.45035244221799076,,,left,0,0.45035244221799076,0,,,,,,,,,,,,,,,,,,,,1021,2019_Mar_06_1241,mf_amp_cond1,3.0.4,60.143706449975504,
protect,stindig,&&&&&&&,left,fairness.virtue,,,,,0,199,199,199,,,,,,,,,,,,,,,,,,,,,,,AMP,right,2.9510089616524056,,,right,0,2.9510089616524056,0,,,,,,,,,,,,,,,,,,,,1021,2019_Mar_06_1241,mf_amp_cond1,3.0.4,60.143706449975504,
scandal,egpeditious,&&&&&&&&&&&,right,sanctity.vice,,,,,0,200,200,200,,,,,,,,,,,,,,,,,,,,,,,AMP,left,0.3836741867708042,,,left,0,0.3836741867708042,0,,,,,,,,,,,,,,,,,,,,1021,2019_Mar_06_1241,mf_amp_cond1,3.0.4,60.143706449975504,
lies,metibolic,&&&&&&&&&,right,fairness.vice,,,,,0,201,201,201,,,,,,,,,,,,,,,,,,,,,,,AMP,right,0.7170824623899534,,,right,1,0.7170824623899534,1,,,,,,,,,,,,,,,,,,,,1021,2019_Mar_06_1241,mf_amp_cond1,3.0.4,60.143706449975504,
riot,coom,&&&&,right,authority.vice,,,,,0,202,202,202,,,,,,,,,,,,,,,,,,,,,,,AMP,left,1.267231309786439,,,left,0,1.267231309786439,0,,,,,,,,,,,,,,,,,,,,1021,2019_Mar_06_1241,mf_amp_cond1,3.0.4,60.143706449975504,
died,gowlands,&&&&&&&&,right,care.vice,,,,,0,203,203,203,,,,,,,,,,,,,,,,,,,,,,,AMP,left,1.1671837785979733,,,left,0,1.1671837785979733,0,,,,,,,,,,,,,,,,,,,,1021,2019_Mar_06_1241,mf_amp_cond1,3.0.4,60.143706449975504,
actively,laming,&&&&&&,left,authority.virtue,,,,,0,204,204,204,,,,,,,,,,,,,,,,,,,,,,,AMP,left,0.5503759190905839,,,left,1,0.5503759190905839,1,,,,,,,,,,,,,,,,,,,,1021,2019_Mar_06_1241,mf_amp_cond1,3.0.4,60.143706449975504,
fighters,lenon,&&&&&,right,authority.vice,,,,,0,205,205,205,,,,,,,,,,,,,,,,,,,,,,,AMP,right,0.4336831991095096,,,right,1,0.4336831991095096,1,,,,,,,,,,,,,,,,,,,,1021,2019_Mar_06_1241,mf_amp_cond1,3.0.4,60.143706449975504,
prison,scock,&&&&&,right,fairness.vice,,,,,0,206,206,206,,,,,,,,,,,,,,,,,,,,,,,AMP,left,0.4670143087860197,,,left,0,0.4670143087860197,0,,,,,,,,,,,,,,,,,,,,1021,2019_Mar_06_1241,mf_amp_cond1,3.0.4,60.143706449975504,
values,crinking,&&&&&&&&,left,sanctity.virtue,,,,,0,207,207,207,,,,,,,,,,,,,,,,,,,,,,,AMP,right,0.3503369833342731,,,right,0,0.3503369833342731,0,,,,,,,,,,,,,,,,,,,,1021,2019_Mar_06_1241,mf_amp_cond1,3.0.4,60.143706449975504,
gun,erks,&&&&,right,authority.vice,,,,,0,208,208,208,,,,,,,,,,,,,,,,,,,,,,,AMP,left,0.3836732245981693,,,left,0,0.3836732245981693,0,,,,,,,,,,,,,,,,,,,,1021,2019_Mar_06_1241,mf_amp_cond1,3.0.4,60.143706449975504,
rorroborated,suggists,&&&&&&&&,None,nonword,,,,,0,209,209,209,,,,,,,,,,,,,,,,,,,,,,,AMP,left,0.517039677943103,,,left,0,0.517039677943103,0,,,,,,,,,,,,,,,,,,,,1021,2019_Mar_06_1241,mf_amp_cond1,3.0.4,60.143706449975504,
fair,focomotive,&&&&&&&&&&,left,fairness.virtue,,,,,0,210,210,210,,,,,,,,,,,,,,,,,,,,,,,AMP,right,0.6169595613609999,,,right,0,0.6169595613609999,0,,,,,,,,,,,,,,,,,,,,1021,2019_Mar_06_1241,mf_amp_cond1,3.0.4,60.143706449975504,
crime,sonvoy,&&&&&&,right,fairness.vice,,,,,0,211,211,211,,,,,,,,,,,,,,,,,,,,,,,AMP,left,0.8671226488659158,,,left,0,0.8671226488659158,0,,,,,,,,,,,,,,,,,,,,1021,2019_Mar_06_1241,mf_amp_cond1,3.0.4,60.143706449975504,
interests,chressing,&&&&&&&&&,left,fairness.virtue,,,,,0,212,212,212,,,,,,,,,,,,,,,,,,,,,,,AMP,right,0.9004733226029202,,,right,0,0.9004733226029202,0,,,,,,,,,,,,,,,,,,,,1021,2019_Mar_06_1241,mf_amp_cond1,3.0.4,60.143706449975504,
violence,thadowed,&&&&&&&&,right,care.vice,,,,,0,213,213,213,,,,,,,,,,,,,,,,,,,,,,,AMP,left,0.5837224235292524,,,left,0,0.5837224235292524,0,,,,,,,,,,,,,,,,,,,,1021,2019_Mar_06_1241,mf_amp_cond1,3.0.4,60.143706449975504,
hope,aubos,&&&&&,left,loyalty.virtue,,,,,0,214,214,214,,,,,,,,,,,,,,,,,,,,,,,AMP,left,0.8838323031086475,,,left,1,0.8838323031086475,1,,,,,,,,,,,,,,,,,,,,1021,2019_Mar_06_1241,mf_amp_cond1,3.0.4,60.143706449975504,
drug,noped,&&&&&,right,sanctity.vice,,,,,0,215,215,215,,,,,,,,,,,,,,,,,,,,,,,AMP,right,3.2010264409473166,,,right,1,3.2010264409473166,1,,,,,,,,,,,,,,,,,,,,1021,2019_Mar_06_1241,mf_amp_cond1,3.0.4,60.143706449975504,
torture,leact,&&&&&,right,care.vice,,,,,0,216,216,216,,,,,,,,,,,,,,,,,,,,,,,AMP,left,1.8673263078089803,,,left,0,1.8673263078089803,0,,,,,,,,,,,,,,,,,,,,1021,2019_Mar_06_1241,mf_amp_cond1,3.0.4,60.143706449975504,
critics,tabin,&&&&&,right,loyalty.vice,,,,,0,217,217,217,,,,,,,,,,,,,,,,,,,,,,,AMP,right,2.0341082208324224,,,right,1,2.0341082208324224,1,,,,,,,,,,,,,,,,,,,,1021,2019_Mar_06_1241,mf_amp_cond1,3.0.4,60.143706449975504,
unpleasant,discovars,&&&&&&&&&,None,control,,,,,0,218,218,218,,,,,,,,,,,,,,,,,,,,,,,AMP,left,2.23418596398551,,,left,0,2.23418596398551,0,,,,,,,,,,,,,,,,,,,,1021,2019_Mar_06_1241,mf_amp_cond1,3.0.4,60.143706449975504,
corruption,sickyay,&&&&&&&,right,sanctity.vice,,,,,0,219,219,219,,,,,,,,,,,,,,,,,,,,,,,AMP,right,0.5503592415479943,,,right,1,0.5503592415479943,1,,,,,,,,,,,,,,,,,,,,1021,2019_Mar_06_1241,mf_amp_cond1,3.0.4,60.143706449975504,
viscs,chonograph,&&&&&&&&&&,None,nonword,,,,,0,220,220,220,,,,,,,,,,,,,,,,,,,,,,,AMP,right,1.2839140231953934,,,right,0,1.2839140231953934,0,,,,,,,,,,,,,,,,,,,,1021,2019_Mar_06_1241,mf_amp_cond1,3.0.4,60.143706449975504,
saned,pharing,&&&&&&&,None,nonword,,,,,0,221,221,221,,,,,,,,,,,,,,,,,,,,,,,AMP,right,1.033831757842563,,,right,0,1.033831757842563,0,,,,,,,,,,,,,,,,,,,,1021,2019_Mar_06_1241,mf_amp_cond1,3.0.4,60.143706449975504,
embrace,sliptery,&&&&&&&&,left,authority.virtue,,,,,0,222,222,222,,,,,,,,,,,,,,,,,,,,,,,AMP,right,0.4503527629422024,,,right,0,0.4503527629422024,0,,,,,,,,,,,,,,,,,,,,1021,2019_Mar_06_1241,mf_amp_cond1,3.0.4,60.143706449975504,
threatened,ronviolence,&&&&&&&&&&&,right,fairness.vice,,,,,0,223,223,223,,,,,,,,,,,,,,,,,,,,,,,AMP,left,1.8506987586151809,,,left,0,1.8506987586151809,0,,,,,,,,,,,,,,,,,,,,1021,2019_Mar_06_1241,mf_amp_cond1,3.0.4,60.143706449975504,
pleasant,brotesque,&&&&&&&&&,None,control,,,,,0,224,224,224,,,,,,,,,,,,,,,,,,,,,,,AMP,right,1.1171805392950773,,,right,0,1.1171805392950773,0,,,,,,,,,,,,,,,,,,,,1021,2019_Mar_06_1241,mf_amp_cond1,3.0.4,60.143706449975504,
care,gazily,&&&&&&,left,care.virtue,,,,,0,225,225,225,,,,,,,,,,,,,,,,,,,,,,,AMP,left,1.884064506390132,,,left,1,1.884064506390132,1,,,,,,,,,,,,,,,,,,,,1021,2019_Mar_06_1241,mf_amp_cond1,3.0.4,60.143706449975504,
rebels,gillipede,&&&&&&&&&,right,authority.vice,,,,,0,226,226,226,,,,,,,,,,,,,,,,,,,,,,,AMP,left,1.1005440099397674,,,left,0,1.1005440099397674,0,,,,,,,,,,,,,,,,,,,,1021,2019_Mar_06_1241,mf_amp_cond1,3.0.4,60.143706449975504,
groups,prones,&&&&&&,right,loyalty.vice,,,,,0,227,227,227,,,,,,,,,,,,,,,,,,,,,,,AMP,left,2.584247446502559,,,left,0,2.584247446502559,0,,,,,,,,,,,,,,,,,,,,1021,2019_Mar_06_1241,mf_amp_cond1,3.0.4,60.143706449975504,
help,synchronazers,&&&&&&&&&&&&&,left,care.virtue,,,,,0,228,228,228,,,,,,,,,,,,,,,,,,,,,,,AMP,right,2.1674814093858004,,,right,0,2.1674814093858004,0,,,,,,,,,,,,,,,,,,,,1021,2019_Mar_06_1241,mf_amp_cond1,3.0.4,60.143706449975504,
faith,divility,&&&&&&&&,left,sanctity.virtue,,,,,0,229,229,229,,,,,,,,,,,,,,,,,,,,,,,AMP,right,1.000507704098709,,,right,0,1.000507704098709,0,,,,,,,,,,,,,,,,,,,,1021,2019_Mar_06_1241,mf_amp_cond1,3.0.4,60.143706449975504,
penalty,ablow,&&&&&,right,authority.vice,,,,,0,230,230,230,,,,,,,,,,,,,,,,,,,,,,,AMP,left,1.9340812159935012,,,left,0,1.9340812159935012,0,,,,,,,,,,,,,,,,,,,,1021,2019_Mar_06_1241,mf_amp_cond1,3.0.4,60.143706449975504,
celebrated,simplustic,&&&&&&&&&&,left,authority.virtue,,,,,0,231,231,231,,,,,,,,,,,,,,,,,,,,,,,AMP,right,0.3670081509044394,,,right,0,0.3670081509044394,0,,,,,,,,,,,,,,,,,,,,1021,2019_Mar_06_1241,mf_amp_cond1,3.0.4,60.143706449975504,
promised,counpy's,&&&&&&&&,left,loyalty.virtue,,,,,0,232,232,232,,,,,,,,,,,,,,,,,,,,,,,AMP,left,3.317736480035819,,,left,1,3.317736480035819,1,,,,,,,,,,,,,,,,,,,,1021,2019_Mar_06_1241,mf_amp_cond1,3.0.4,60.143706449975504,
shot,mih,&&&,right,care.vice,,,,,0,233,233,233,,,,,,,,,,,,,,,,,,,,,,,AMP,right,0.5670499730622396,,,right,1,0.5670499730622396,1,,,,,,,,,,,,,,,,,,,,1021,2019_Mar_06_1241,mf_amp_cond1,3.0.4,60.143706449975504,
crilfully,bycled,&&&&&&,None,nonword,,,,,0,234,234,234,,,,,,,,,,,,,,,,,,,,,,,AMP,left,0.8337838418083265,,,left,0,0.8337838418083265,0,,,,,,,,,,,,,,,,,,,,1021,2019_Mar_06_1241,mf_amp_cond1,3.0.4,60.143706449975504,
praised,totalestic,&&&&&&&&&&,left,loyalty.virtue,,,,,0,235,235,235,,,,,,,,,,,,,,,,,,,,,,,AMP,right,0.46702874125912786,,,right,0,0.46702874125912786,0,,,,,,,,,,,,,,,,,,,,1021,2019_Mar_06_1241,mf_amp_cond1,3.0.4,60.143706449975504,
growth,smapper,&&&&&&&,left,care.virtue,,,,,0,236,236,236,,,,,,,,,,,,,,,,,,,,,,,AMP,right,0.45035148004535586,,,right,0,0.45035148004535586,0,,,,,,,,,,,,,,,,,,,,1021,2019_Mar_06_1241,mf_amp_cond1,3.0.4,60.143706449975504,
promises,spag,&&&&,left,fairness.virtue,,,,,0,237,237,237,,,,,,,,,,,,,,,,,,,,,,,AMP,left,1.3839237090433016,,,left,1,1.3839237090433016,1,,,,,,,,,,,,,,,,,,,,1021,2019_Mar_06_1241,mf_amp_cond1,3.0.4,60.143706449975504,
hand,shoirmaster,&&&&&&&&&&&,left,sanctity.virtue,,,,,0,238,238,238,,,,,,,,,,,,,,,,,,,,,,,AMP,right,0.41701331443618983,,,right,0,0.41701331443618983,0,,,,,,,,,,,,,,,,,,,,1021,2019_Mar_06_1241,mf_amp_cond1,3.0.4,60.143706449975504,
promote,gationwide,&&&&&&&&&&,left,sanctity.virtue,,,,,0,239,239,239,,,,,,,,,,,,,,,,,,,,,,,AMP,left,1.6006347744259983,,,left,1,1.6006347744259983,1,,,,,,,,,,,,,,,,,,,,1021,2019_Mar_06_1241,mf_amp_cond1,3.0.4,60.143706449975504,
slavery,letish,&&&&&&,right,loyalty.vice,,,,,0,240,240,240,,,,,,,,,,,,,,,,,,,,,,,AMP,right,1.8340263082645833,,,right,1,1.8340263082645833,1,,,,,,,,,,,,,,,,,,,,1021,2019_Mar_06_1241,mf_amp_cond1,3.0.4,60.143706449975504,
energy,wump,&&&&,left,sanctity.virtue,,,,,0,241,241,241,,,,,,,,,,,,,,,,,,,,,,,AMP,right,2.684266112628393,,,right,0,2.684266112628393,0,,,,,,,,,,,,,,,,,,,,1021,2019_Mar_06_1241,mf_amp_cond1,3.0.4,60.143706449975504,
honored,galamitous,&&&&&&&&&&,left,authority.virtue,,,,,0,242,242,242,,,,,,,,,,,,,,,,,,,,,,,AMP,right,1.267226819647476,,,right,0,1.267226819647476,0,,,,,,,,,,,,,,,,,,,,1021,2019_Mar_06_1241,mf_amp_cond1,3.0.4,60.143706449975504,
men,framo,&&&&&,right,loyalty.vice,,,,,0,243,243,243,,,,,,,,,,,,,,,,,,,,,,,AMP,left,1.9840786822605878,,,left,0,1.9840786822605878,0,,,,,,,,,,,,,,,,,,,,1021,2019_Mar_06_1241,mf_amp_cond1,3.0.4,60.143706449975504,
benefit,squets,&&&&&&,left,fairness.virtue,,,,,0,244,244,244,,,,,,,,,,,,,,,,,,,,,,,AMP,right,1.0837153675965965,,,right,0,1.0837153675965965,0,,,,,,,,,,,,,,,,,,,,1021,2019_Mar_06_1241,mf_amp_cond1,3.0.4,60.143706449975504,
forepo,clattening,&&&&&&&&&&,None,nonword,,,,,0,245,245,245,,,,,,,,,,,,,,,,,,,,,,,AMP,right,6.4852210965473205,,,right,0,6.4852210965473205,0,,,,,,,,,,,,,,,,,,,,1021,2019_Mar_06_1241,mf_amp_cond1,3.0.4,60.143706449975504,
safe,brotesque,&&&&&&&&&,left,care.virtue,,,,,0,246,246,246,,,,,,,,,,,,,,,,,,,,,,,AMP,left,2.0840992727316916,,,left,1,2.0840992727316916,1,,,,,,,,,,,,,,,,,,,,1021,2019_Mar_06_1241,mf_amp_cond1,3.0.4,60.143706449975504,
voter,Loorish,&&&&&&&,right,fairness.vice,,,,,0,247,247,247,,,,,,,,,,,,,,,,,,,,,,,AMP,left,1.7173659811960533,,,left,0,1.7173659811960533,0,,,,,,,,,,,,,,,,,,,,1021,2019_Mar_06_1241,mf_amp_cond1,3.0.4,60.143706449975504,
racist,noped,&&&&&,right,sanctity.vice,,,,,0,248,248,248,,,,,,,,,,,,,,,,,,,,,,,AMP,left,0.7837668114807457,,,left,0,0.7837668114807457,0,,,,,,,,,,,,,,,,,,,,1021,2019_Mar_06_1241,mf_amp_cond1,3.0.4,60.143706449975504,
growth,thadowed,&&&&&&&&,left,care.virtue,,,,,0,249,249,249,,,,,,,,,,,,,,,,,,,,,,,AMP,left,0.5503794470569119,,,left,1,0.5503794470569119,1,,,,,,,,,,,,,,,,,,,,1021,2019_Mar_06_1241,mf_amp_cond1,3.0.4,60.143706449975504,
protect,pullness,&&&&&&&&,left,fairness.virtue,,,,,0,250,250,250,,,,,,,,,,,,,,,,,,,,,,,AMP,right,0.7504209484905005,,,right,0,0.7504209484905005,0,,,,,,,,,,,,,,,,,,,,1021,2019_Mar_06_1241,mf_amp_cond1,3.0.4,60.143706449975504,
integrity,gazily,&&&&&&,left,fairness.virtue,,,,,0,251,251,251,,,,,,,,,,,,,,,,,,,,,,,AMP,right,0.35032158868853003,,,right,0,0.35032158868853003,0,,,,,,,,,,,,,,,,,,,,1021,2019_Mar_06_1241,mf_amp_cond1,3.0.4,60.143706449975504,
scandal,Cunday,&&&&&&,right,sanctity.vice,,,,,0,252,252,252,,,,,,,,,,,,,,,,,,,,,,,AMP,right,0.8004418276250362,,,right,1,0.8004418276250362,1,,,,,,,,,,,,,,,,,,,,1021,2019_Mar_06_1241,mf_amp_cond1,3.0.4,60.143706449975504,
thabbily,erks,&&&&,None,nonword,,,,,0,253,253,253,,,,,,,,,,,,,,,,,,,,,,,AMP,left,0.6170743801631033,,,left,0,0.6170743801631033,0,,,,,,,,,,,,,,,,,,,,1021,2019_Mar_06_1241,mf_amp_cond1,3.0.4,60.143706449975504,
compassion,gowlands,&&&&&&&&,left,care.virtue,,,,,0,254,254,254,,,,,,,,,,,,,,,,,,,,,,,AMP,right,1.5339590847725049,,,right,0,1.5339590847725049,0,,,,,,,,,,,,,,,,,,,,1021,2019_Mar_06_1241,mf_amp_cond1,3.0.4,60.143706449975504,
win,oam,&&&,left,fairness.virtue,,,,,0,255,255,255,,,,,,,,,,,,,,,,,,,,,,,AMP,left,0.3670026985928416,,,left,1,0.3670026985928416,1,,,,,,,,,,,,,,,,,,,,1021,2019_Mar_06_1241,mf_amp_cond1,3.0.4,60.143706449975504,
torture,carvels,&&&&&&&,right,care.vice,,,,,0,256,256,256,,,,,,,,,,,,,,,,,,,,,,,AMP,left,1.1838680957444012,,,left,0,1.1838680957444012,0,,,,,,,,,,,,,,,,,,,,1021,2019_Mar_06_1241,mf_amp_cond1,3.0.4,60.143706449975504,
lies,lenon,&&&&&,right,fairness.vice,,,,,0,257,257,257,,,,,,,,,,,,,,,,,,,,,,,AMP,right,0.6504077347926795,,,right,1,0.6504077347926795,1,,,,,,,,,,,,,,,,,,,,1021,2019_Mar_06_1241,mf_amp_cond1,3.0.4,60.143706449975504,
ability,presentkess,&&&&&&&&&&&,left,authority.virtue,,,,,0,258,258,258,,,,,,,,,,,,,,,,,,,,,,,AMP,left,0.8003946812823415,,,left,1,0.8003946812823415,1,,,,,,,,,,,,,,,,,,,,1021,2019_Mar_06_1241,mf_amp_cond1,3.0.4,60.143706449975504,
viscs,frocessing,&&&&&&&&&&,None,nonword,,,,,0,259,259,259,,,,,,,,,,,,,,,,,,,,,,,AMP,right,0.833808537456207,,,right,0,0.833808537456207,0,,,,,,,,,,,,,,,,,,,,1021,2019_Mar_06_1241,mf_amp_cond1,3.0.4,60.143706449975504,
great,squets,&&&&&&,left,loyalty.virtue,,,,,0,260,260,260,,,,,,,,,,,,,,,,,,,,,,,AMP,right,0.7170968948630616,,,right,0,0.7170968948630616,0,,,,,,,,,,,,,,,,,,,,1021,2019_Mar_06_1241,mf_amp_cond1,3.0.4,60.143706449975504,
crime,galamitous,&&&&&&&&&&,right,fairness.vice,,,,,0,261,261,261,,,,,,,,,,,,,,,,,,,,,,,AMP,right,0.6169348657131195,,,right,1,0.6169348657131195,1,,,,,,,,,,,,,,,,,,,,1021,2019_Mar_06_1241,mf_amp_cond1,3.0.4,60.143706449975504,
love,laming,&&&&&&,left,loyalty.virtue,,,,,0,262,262,262,,,,,,,,,,,,,,,,,,,,,,,AMP,right,1.9840754751348868,,,right,0,1.9840754751348868,0,,,,,,,,,,,,,,,,,,,,1021,2019_Mar_06_1241,mf_amp_cond1,3.0.4,60.143706449975504,
victim,gationwide,&&&&&&&&&&,right,care.vice,,,,,0,263,263,263,,,,,,,,,,,,,,,,,,,,,,,AMP,left,0.5837403839686885,,,left,0,0.5837403839686885,0,,,,,,,,,,,,,,,,,,,,1021,2019_Mar_06_1241,mf_amp_cond1,3.0.4,60.143706449975504,
hand,mecan,&&&&&,left,sanctity.virtue,,,,,0,264,264,264,,,,,,,,,,,,,,,,,,,,,,,AMP,left,1.7340374694904312,,,left,1,1.7340374694904312,1,,,,,,,,,,,,,,,,,,,,1021,2019_Mar_06_1241,mf_amp_cond1,3.0.4,60.143706449975504,
sharing,smapper,&&&&&&&,left,loyalty.virtue,,,,,0,265,265,265,,,,,,,,,,,,,,,,,,,,,,,AMP,right,3.134366787504405,,,right,0,3.134366787504405,0,,,,,,,,,,,,,,,,,,,,1021,2019_Mar_06_1241,mf_amp_cond1,3.0.4,60.143706449975504,
saned,stindig,&&&&&&&,None,nonword,,,,,0,266,266,266,,,,,,,,,,,,,,,,,,,,,,,AMP,right,1.5839693798916414,,,right,0,1.5839693798916414,0,,,,,,,,,,,,,,,,,,,,1021,2019_Mar_06_1241,mf_amp_cond1,3.0.4,60.143706449975504,
benefit,tabin,&&&&&,left,fairness.virtue,,,,,0,267,267,267,,,,,,,,,,,,,,,,,,,,,,,AMP,left,0.4336815954884514,,,left,1,0.4336815954884514,1,,,,,,,,,,,,,,,,,,,,1021,2019_Mar_06_1241,mf_amp_cond1,3.0.4,60.143706449975504,
prison,hatigue,&&&&&&&,right,fairness.vice,,,,,0,268,268,268,,,,,,,,,,,,,,,,,,,,,,,AMP,left,0.4670165537390858,,,left,0,0.4670165537390858,0,,,,,,,,,,,,,,,,,,,,1021,2019_Mar_06_1241,mf_amp_cond1,3.0.4,60.143706449975504,
honored,epigrach,&&&&&&&&,left,authority.virtue,,,,,0,269,269,269,,,,,,,,,,,,,,,,,,,,,,,AMP,right,1.9007180340122432,,,right,0,1.9007180340122432,0,,,,,,,,,,,,,,,,,,,,1021,2019_Mar_06_1241,mf_amp_cond1,3.0.4,60.143706449975504,
prosecution,crinking,&&&&&&&&,right,authority.vice,,,,,0,270,270,270,,,,,,,,,,,,,,,,,,,,,,,AMP,right,2.4341883374145254,,,right,1,2.4341883374145254,1,,,,,,,,,,,,,,,,,,,,1021,2019_Mar_06_1241,mf_amp_cond1,3.0.4,60.143706449975504,
dramens,suggists,&&&&&&&&,None,nonword,,,,,0,271,271,271,,,,,,,,,,,,,,,,,,,,,,,AMP,left,0.7838110711891204,,,left,0,0.7838110711891204,0,,,,,,,,,,,,,,,,,,,,1021,2019_Mar_06_1241,mf_amp_cond1,3.0.4,60.143706449975504,
actively,prones,&&&&&&,left,authority.virtue,,,,,0,272,272,272,,,,,,,,,,,,,,,,,,,,,,,AMP,right,0.883791891974397,,,right,0,0.883791891974397,0,,,,,,,,,,,,,,,,,,,,1021,2019_Mar_06_1241,mf_amp_cond1,3.0.4,60.143706449975504,
gun,gusinesslike,&&&&&&&&&&&&,right,authority.vice,,,,,0,273,273,273,,,,,,,,,,,,,,,,,,,,,,,AMP,left,1.3505268512526527,,,left,0,1.3505268512526527,0,,,,,,,,,,,,,,,,,,,,1021,2019_Mar_06_1241,mf_amp_cond1,3.0.4,60.143706449975504,
slavery,framo,&&&&&,right,loyalty.vice,,,,,0,274,274,274,,,,,,,,,,,,,,,,,,,,,,,AMP,right,1.7173409648239613,,,right,1,1.7173409648239613,1,,,,,,,,,,,,,,,,,,,,1021,2019_Mar_06_1241,mf_amp_cond1,3.0.4,60.143706449975504,
values,discovars,&&&&&&&&&,left,sanctity.virtue,,,,,0,275,275,275,,,,,,,,,,,,,,,,,,,,,,,AMP,right,3.617854377720505,,,right,0,3.617854377720505,0,,,,,,,,,,,,,,,,,,,,1021,2019_Mar_06_1241,mf_amp_cond1,3.0.4,60.143706449975504,
grovelire,infet,&&&&&,None,nonword,,,,,0,276,276,276,,,,,,,,,,,,,,,,,,,,,,,AMP,right,1.9674023832194507,,,right,0,1.9674023832194507,0,,,,,,,,,,,,,,,,,,,,1021,2019_Mar_06_1241,mf_amp_cond1,3.0.4,60.143706449975504,
violence,ronviolence,&&&&&&&&&&&,right,care.vice,,,,,0,277,277,277,,,,,,,,,,,,,,,,,,,,,,,AMP,left,0.4503508385969326,,,left,0,0.4503508385969326,0,,,,,,,,,,,,,,,,,,,,1021,2019_Mar_06_1241,mf_amp_cond1,3.0.4,60.143706449975504,
forepo,dumid,&&&&&,None,nonword,,,,,0,278,278,278,,,,,,,,,,,,,,,,,,,,,,,AMP,left,1.800697122933343,,,left,0,1.800697122933343,0,,,,,,,,,,,,,,,,,,,,1021,2019_Mar_06_1241,mf_amp_cond1,3.0.4,60.143706449975504,
critics,clattening,&&&&&&&&&&,right,loyalty.vice,,,,,0,279,279,279,,,,,,,,,,,,,,,,,,,,,,,AMP,left,1.150554305058904,,,left,0,1.150554305058904,0,,,,,,,,,,,,,,,,,,,,1021,2019_Mar_06_1241,mf_amp_cond1,3.0.4,60.143706449975504,
help,totalestic,&&&&&&&&&&,left,care.virtue,,,,,0,280,280,280,,,,,,,,,,,,,,,,,,,,,,,AMP,right,0.7837895827833563,,,right,0,0.7837895827833563,0,,,,,,,,,,,,,,,,,,,,1021,2019_Mar_06_1241,mf_amp_cond1,3.0.4,60.143706449975504,
victims,synchronazers,&&&&&&&&&&&&&,right,care.vice,,,,,0,281,281,281,,,,,,,,,,,,,,,,,,,,,,,AMP,right,0.6337503583636135,,,right,1,0.6337503583636135,1,,,,,,,,,,,,,,,,,,,,1021,2019_Mar_06_1241,mf_amp_cond1,3.0.4,60.143706449975504,
lursuer,tracious,&&&&&&&&,None,nonword,,,,,0,282,282,282,,,,,,,,,,,,,,,,,,,,,,,AMP,right,0.583736535278149,,,right,0,0.583736535278149,0,,,,,,,,,,,,,,,,,,,,1021,2019_Mar_06_1241,mf_amp_cond1,3.0.4,60.143706449975504,
embrace,metibolic,&&&&&&&&&,left,authority.virtue,,,,,0,283,283,283,,,,,,,,,,,,,,,,,,,,,,,AMP,right,1.3839516119332984,,,right,0,1.3839516119332984,0,,,,,,,,,,,,,,,,,,,,1021,2019_Mar_06_1241,mf_amp_cond1,3.0.4,60.143706449975504,
pleasant,coom,&&&&,None,control,,,,,0,284,284,284,,,,,,,,,,,,,,,,,,,,,,,AMP,left,0.7337561955209821,,,left,0,0.7337561955209821,0,,,,,,,,,,,,,,,,,,,,1021,2019_Mar_06_1241,mf_amp_cond1,3.0.4,60.143706449975504,
dignity,scock,&&&&&,left,sanctity.virtue,,,,,0,285,285,285,,,,,,,,,,,,,,,,,,,,,,,AMP,left,0.5837160090450197,,,left,1,0.5837160090450197,1,,,,,,,,,,,,,,,,,,,,1021,2019_Mar_06_1241,mf_amp_cond1,3.0.4,60.143706449975504,
hate,sickyay,&&&&&&&,right,fairness.vice,,,,,0,286,286,286,,,,,,,,,,,,,,,,,,,,,,,AMP,right,0.38368701573926955,,,right,1,0.38368701573926955,1,,,,,,,,,,,,,,,,,,,,1021,2019_Mar_06_1241,mf_amp_cond1,3.0.4,60.143706449975504,
improve,chonograph,&&&&&&&&&&,left,care.virtue,,,,,0,287,287,287,,,,,,,,,,,,,,,,,,,,,,,AMP,right,3.151043727993965,,,right,0,3.151043727993965,0,,,,,,,,,,,,,,,,,,,,1021,2019_Mar_06_1241,mf_amp_cond1,3.0.4,60.143706449975504,
interests,wump,&&&&,left,fairness.virtue,,,,,0,288,288,288,,,,,,,,,,,,,,,,,,,,,,,AMP,right,0.5337086003273726,,,right,0,0.5337086003273726,0,,,,,,,,,,,,,,,,,,,,1021,2019_Mar_06_1241,mf_amp_cond1,3.0.4,60.143706449975504,
serial,hefurbished,&&&&&&&&&&&,right,sanctity.vice,,,,,0,289,289,289,,,,,,,,,,,,,,,,,,,,,,,AMP,left,0.7004125777166337,,,left,0,0.7004125777166337,0,,,,,,,,,,,,,,,,,,,,1021,2019_Mar_06_1241,mf_amp_cond1,3.0.4,60.143706449975504,
groups,shoirmaster,&&&&&&&&&&&,right,loyalty.vice,,,,,0,290,290,290,,,,,,,,,,,,,,,,,,,,,,,AMP,right,0.28368085774127394,,,right,1,0.28368085774127394,1,,,,,,,,,,,,,,,,,,,,1021,2019_Mar_06_1241,mf_amp_cond1,3.0.4,60.143706449975504,
praised,sonvoy,&&&&&&,left,loyalty.virtue,,,,,0,291,291,291,,,,,,,,,,,,,,,,,,,,,,,AMP,right,0.7837652078596875,,,right,0,0.7837652078596875,0,,,,,,,,,,,,,,,,,,,,1021,2019_Mar_06_1241,mf_amp_cond1,3.0.4,60.143706449975504,
rebels,taxpayung,&&&&&&&&&,right,authority.vice,,,,,0,292,292,292,,,,,,,,,,,,,,,,,,,,,,,AMP,left,3.084369321237318,,,left,0,3.084369321237318,0,,,,,,,,,,,,,,,,,,,,1021,2019_Mar_06_1241,mf_amp_cond1,3.0.4,60.143706449975504,
celebrated,reprisols,&&&&&&&&&,left,authority.virtue,,,,,0,293,293,293,,,,,,,,,,,,,,,,,,,,,,,AMP,left,0.7504222315037623,,,left,1,0.7504222315037623,1,,,,,,,,,,,,,,,,,,,,1021,2019_Mar_06_1241,mf_amp_cond1,3.0.4,60.143706449975504,
perfect,bluently,&&&&&&&&,left,sanctity.virtue,,,,,0,294,294,294,,,,,,,,,,,,,,,,,,,,,,,AMP,left,0.8837902884697542,,,left,1,0.8837902884697542,1,,,,,,,,,,,,,,,,,,,,1021,2019_Mar_06_1241,mf_amp_cond1,3.0.4,60.143706449975504,
men,divility,&&&&&&&&,right,loyalty.vice,,,,,0,295,295,295,,,,,,,,,,,,,,,,,,,,,,,AMP,right,2.1174509085249156,,,right,1,2.1174509085249156,1,,,,,,,,,,,,,,,,,,,,1021,2019_Mar_06_1241,mf_amp_cond1,3.0.4,60.143706449975504,
corruption,letish,&&&&&&,right,sanctity.vice,,,,,0,296,296,296,,,,,,,,,,,,,,,,,,,,,,,AMP,right,3.7678663406986743,,,right,1,3.7678663406986743,1,,,,,,,,,,,,,,,,,,,,1021,2019_Mar_06_1241,mf_amp_cond1,3.0.4,60.143706449975504,
crilfully,pharing,&&&&&&&,None,nonword,,,,,0,297,297,297,,,,,,,,,,,,,,,,,,,,,,,AMP,right,3.2343995653791353,,,right,0,3.2343995653791353,0,,,,,,,,,,,,,,,,,,,,1021,2019_Mar_06_1241,mf_amp_cond1,3.0.4,60.143706449975504,
energy,halaise,&&&&&&&,left,sanctity.virtue,,,,,0,298,298,298,,,,,,,,,,,,,,,,,,,,,,,AMP,right,0.46703451417852193,,,right,0,0.46703451417852193,0,,,,,,,,,,,,,,,,,,,,1021,2019_Mar_06_1241,mf_amp_cond1,3.0.4,60.143706449975504,
progress,faspberry,&&&&&&&&&,left,authority.virtue,,,,,0,299,299,299,,,,,,,,,,,,,,,,,,,,,,,AMP,right,0.9504733547801152,,,right,0,0.9504733547801152,0,,,,,,,,,,,,,,,,,,,,1021,2019_Mar_06_1241,mf_amp_cond1,3.0.4,60.143706449975504,
attacks,sliptery,&&&&&&&&,right,care.vice,,,,,0,300,300,300,,,,,,,,,,,,,,,,,,,,,,,AMP,left,1.0505144712515175,,,left,0,1.0505144712515175,0,,,,,,,,,,,,,,,,,,,,1021,2019_Mar_06_1241,mf_amp_cond1,3.0.4,60.143706449975504,
promised,quarterbocks,&&&&&&&&&&&&,left,loyalty.virtue,,,,,0,301,301,301,,,,,,,,,,,,,,,,,,,,,,,AMP,left,0.6004054577788338,,,left,1,0.6004054577788338,1,,,,,,,,,,,,,,,,,,,,1021,2019_Mar_06_1241,mf_amp_cond1,3.0.4,60.143706449975504,
penalty,asn,&&&,right,authority.vice,,,,,0,302,302,302,,,,,,,,,,,,,,,,,,,,,,,AMP,left,0.5002302789362147,,,left,0,0.5002302789362147,0,,,,,,,,,,,,,,,,,,,,1021,2019_Mar_06_1241,mf_amp_cond1,3.0.4,60.143706449975504,
died,chadows,&&&&&&&,right,care.vice,,,,,0,303,303,303,,,,,,,,,,,,,,,,,,,,,,,AMP,left,0.5502835509832948,,,left,0,0.5502835509832948,0,,,,,,,,,,,,,,,,,,,,1021,2019_Mar_06_1241,mf_amp_cond1,3.0.4,60.143706449975504,
arrests,mih,&&&,right,authority.vice,,,,,0,304,304,304,,,,,,,,,,,,,,,,,,,,,,,AMP,right,0.5670653677079827,,,right,1,0.5670653677079827,1,,,,,,,,,,,,,,,,,,,,1021,2019_Mar_06_1241,mf_amp_cond1,3.0.4,60.143706449975504,
care,egpeditious,&&&&&&&&&&&,left,care.virtue,,,,,0,305,305,305,,,,,,,,,,,,,,,,,,,,,,,AMP,left,1.6005808929912746,,,left,1,1.6005808929912746,1,,,,,,,,,,,,,,,,,,,,1021,2019_Mar_06_1241,mf_amp_cond1,3.0.4,60.143706449975504,
violations,ugeasily,&&&&&&&&,right,sanctity.vice,,,,,0,306,306,306,,,,,,,,,,,,,,,,,,,,,,,AMP,left,4.267994950525463,,,left,0,4.267994950525463,0,,,,,,,,,,,,,,,,,,,,1021,2019_Mar_06_1241,mf_amp_cond1,3.0.4,60.143706449975504,
unpleasant,precificity,&&&&&&&&&&&,None,control,,,,,0,307,307,307,,,,,,,,,,,,,,,,,,,,,,,AMP,right,0.8669302151538432,,,right,0,0.8669302151538432,0,,,,,,,,,,,,,,,,,,,,1021,2019_Mar_06_1241,mf_amp_cond1,3.0.4,60.143706449975504,
strong,refuejing,&&&&&&&&&,left,loyalty.virtue,,,,,0,308,308,308,,,,,,,,,,,,,,,,,,,,,,,AMP,left,0.4335375908995047,,,left,1,0.4335375908995047,1,,,,,,,,,,,,,,,,,,,,1021,2019_Mar_06_1241,mf_amp_cond1,3.0.4,60.143706449975504,
faith,yane,&&&&,left,sanctity.virtue,,,,,0,309,309,309,,,,,,,,,,,,,,,,,,,,,,,AMP,right,1.2671360550448298,,,right,0,1.2671360550448298,0,,,,,,,,,,,,,,,,,,,,1021,2019_Mar_06_1241,mf_amp_cond1,3.0.4,60.143706449975504,
nomaric,leact,&&&&&,None,nonword,,,,,0,310,310,310,,,,,,,,,,,,,,,,,,,,,,,AMP,left,1.1505469285184518,,,left,0,1.1505469285184518,0,,,,,,,,,,,,,,,,,,,,1021,2019_Mar_06_1241,mf_amp_cond1,3.0.4,60.143706449975504,
fraud,spag,&&&&,right,fairness.vice,,,,,0,311,311,311,,,,,,,,,,,,,,,,,,,,,,,AMP,left,1.8340497210156173,,,left,0,1.8340497210156173,0,,,,,,,,,,,,,,,,,,,,1021,2019_Mar_06_1241,mf_amp_cond1,3.0.4,60.143706449975504,
riot,counpy's,&&&&&&&&,right,authority.vice,,,,,0,312,312,312,,,,,,,,,,,,,,,,,,,,,,,AMP,left,0.46703066548798233,,,left,0,0.46703066548798233,0,,,,,,,,,,,,,,,,,,,,1021,2019_Mar_06_1241,mf_amp_cond1,3.0.4,60.143706449975504,
hope,tomedians,&&&&&&&&&,left,loyalty.virtue,,,,,0,313,313,313,,,,,,,,,,,,,,,,,,,,,,,AMP,right,0.6170820774277672,,,right,0,0.6170820774277672,0,,,,,,,,,,,,,,,,,,,,1021,2019_Mar_06_1241,mf_amp_cond1,3.0.4,60.143706449975504,
fighters,focomotive,&&&&&&&&&&,right,authority.vice,,,,,0,314,314,314,,,,,,,,,,,,,,,,,,,,,,,AMP,right,0.4670175159117207,,,right,1,0.4670175159117207,1,,,,,,,,,,,,,,,,,,,,1021,2019_Mar_06_1241,mf_amp_cond1,3.0.4,60.143706449975504,
useful,pulge,&&&&&,left,authority.virtue,,,,,0,315,315,315,,,,,,,,,,,,,,,,,,,,,,,AMP,left,0.7504299288848415,,,left,1,0.7504299288848415,1,,,,,,,,,,,,,,,,,,,,1021,2019_Mar_06_1241,mf_amp_cond1,3.0.4,60.143706449975504,
health,ablow,&&&&&,left,care.virtue,,,,,0,316,316,316,,,,,,,,,,,,,,,,,,,,,,,AMP,left,0.46701719518750906,,,left,1,0.46701719518750906,1,,,,,,,,,,,,,,,,,,,,1021,2019_Mar_06_1241,mf_amp_cond1,3.0.4,60.143706449975504,
promote,gandbrake,&&&&&&&&&,left,sanctity.virtue,,,,,0,317,317,317,,,,,,,,,,,,,,,,,,,,,,,AMP,right,0.7337561955209821,,,right,0,0.7337561955209821,0,,,,,,,,,,,,,,,,,,,,1021,2019_Mar_06_1241,mf_amp_cond1,3.0.4,60.143706449975504,
army,aubos,&&&&&,right,loyalty.vice,,,,,0,318,318,318,,,,,,,,,,,,,,,,,,,,,,,AMP,left,0.7504238351248205,,,left,0,0.7504238351248205,0,,,,,,,,,,,,,,,,,,,,1021,2019_Mar_06_1241,mf_amp_cond1,3.0.4,60.143706449975504,
promises,chressing,&&&&&&&&&,left,fairness.virtue,,,,,0,319,319,319,,,,,,,,,,,,,,,,,,,,,,,AMP,left,0.9671483709244058,,,left,1,0.9671483709244058,1,,,,,,,,,,,,,,,,,,,,1021,2019_Mar_06_1241,mf_amp_cond1,3.0.4,60.143706449975504,
rorroborated,ittutable,&&&&&&&&&,None,nonword,,,,,0,320,320,320,,,,,,,,,,,,,,,,,,,,,,,AMP,right,0.5002193743130192,,,right,0,0.5002193743130192,0,,,,,,,,,,,,,,,,,,,,1021,2019_Mar_06_1241,mf_amp_cond1,3.0.4,60.143706449975504,
terrorist,gillipede,&&&&&&&&&,right,loyalty.vice,,,,,0,321,321,321,,,,,,,,,,,,,,,,,,,,,,,AMP,left,0.6837561634602025,,,left,0,0.6837561634602025,0,,,,,,,,,,,,,,,,,,,,1021,2019_Mar_06_1241,mf_amp_cond1,3.0.4,60.143706449975504,
ban,bycled,&&&&&&,right,loyalty.vice,,,,,0,322,322,322,,,,,,,,,,,,,,,,,,,,,,,AMP,left,1.6506630301009864,,,left,0,1.6506630301009864,0,,,,,,,,,,,,,,,,,,,,1021,2019_Mar_06_1241,mf_amp_cond1,3.0.4,60.143706449975504,
threatened,framatic,&&&&&&&&,right,fairness.vice,,,,,0,323,323,323,,,,,,,,,,,,,,,,,,,,,,,AMP,right,0.4835507726529613,,,right,1,0.4835507726529613,1,,,,,,,,,,,,,,,,,,,,1021,2019_Mar_06_1241,mf_amp_cond1,3.0.4,60.143706449975504,
drug,unscothed,&&&&&&&&&,right,sanctity.vice,,,,,0,324,324,324,,,,,,,,,,,,,,,,,,,,,,,AMP,left,0.5837240270338953,,,left,0,0.5837240270338953,0,,,,,,,,,,,,,,,,,,,,1021,2019_Mar_06_1241,mf_amp_cond1,3.0.4,60.143706449975504,
sexual,frojecting,&&&&&&&&&&,right,sanctity.vice,,,,,0,325,325,325,,,,,,,,,,,,,,,,,,,,,,,AMP,right,0.7171158174751326,,,right,1,0.7171158174751326,1,,,,,,,,,,,,,,,,,,,,1021,2019_Mar_06_1241,mf_amp_cond1,3.0.4,60.143706449975504,
fair,brudent,&&&&&&&,left,fairness.virtue,,,,,0,326,326,326,,,,,,,,,,,,,,,,,,,,,,,AMP,left,0.8504623860353604,,,left,1,0.8504623860353604,1,,,,,,,,,,,,,,,,,,,,1021,2019_Mar_06_1241,mf_amp_cond1,3.0.4,60.143706449975504,
shot,simplustic,&&&&&&&&&&,right,care.vice,,,,,0,327,327,327,,,,,,,,,,,,,,,,,,,,,,,AMP,right,1.3672618424752727,,,right,1,1.3672618424752727,1,,,,,,,,,,,,,,,,,,,,1021,2019_Mar_06_1241,mf_amp_cond1,3.0.4,60.143706449975504,
,,,,,,,,,,,,,,,,,,,,,,,,,,,,,,,,,,,,,,,,,,,,6,10.071,,,,,,,,,,,,,,,,,,1021,2019_Mar_06_1241,mf_amp_cond1,3.0.4,60.143706449975504,
,,,,,,,,,,,,,,,,,,,,,,,,,,,,,,,,,,,,,,,,,,,,,,3,8.337,,,,,,,,,,,,,,,,1021,2019_Mar_06_1241,mf_amp_cond1,3.0.4,60.143706449975504,
,,,,,,,,,,,,,,,,,,,,,,,,,,,,,,,,,,,,,,,,,,,,,,,,2,4.336,,,,,,,,,,,,,,1021,2019_Mar_06_1241,mf_amp_cond1,3.0.4,60.143706449975504,
,,,,,,,,,,,,,,,,,,,,,,,,,,,,,,,,,,,,,,,,,,,,,,,,,,right,4.134689434547909,,,,,,,,,,,,1021,2019_Mar_06_1241,mf_amp_cond1,3.0.4,60.143706449975504,
bisebell,,&&&&&&&,,,,,,,,,,,0,0,0,1,,,,,,,,,,,,,,,,,,,LDT_prac,left,2.1674570343457162,,,,,,0,,,,,,,,,left,2.1674570343457162,,,,,,,,,,1021,2019_Mar_06_1241,mf_amp_cond1,3.0.4,60.143706449975504,
keyboard,,&&&&&&&,,,,,,,,,,,0,1,1,0,,,,,,,,,,,,,,,,,,,LDT_prac,right,0.6337426610989496,,,,,,0,,,,,,,,,right,0.6337426610989496,,,,,,,,,,1021,2019_Mar_06_1241,mf_amp_cond1,3.0.4,60.143706449975504,
,,,,,,,,,,,,,,,,,,,,,,,,,,,,,,,,,,,,,,,,,,,,,,,,,,,,,,right,20.80553650809452,,,,,,,,1021,2019_Mar_06_1241,mf_amp_cond1,3.0.4,60.143706449975504,
ilportation,,&&&&&&&&&&&,right,nonword,,,,,,,,,,,,,0,0,0,4,,,,,,,,,,,,,,,LDT,left,1.0004894229350612,,,,,,0,,,,,,,,,,,,,left,0,1.0004894229350612,,,,,1021,2019_Mar_06_1241,mf_amp_cond1,3.0.4,60.143706449975504,
even,,&&&&,left,neutral,,,,,,,,,,,,,0,1,1,3,,,,,,,,,,,,,,,LDT,right,0.617067644954659,,,,,,0,,,,,,,,,,,,,right,0,0.617067644954659,,,,,1021,2019_Mar_06_1241,mf_amp_cond1,3.0.4,60.143706449975504,
strength,,&&&&&&&&,left,sanctity.virtue,,,,,,,,,,,,,0,2,2,163,,,,,,,,,,,,,,,LDT,right,0.6837487869197503,,,,,,0,,,,,,,,,,,,,right,0,0.6837487869197503,,,,,1021,2019_Mar_06_1241,mf_amp_cond1,3.0.4,60.143706449975504,
neneficence,,&&&&&&&&&&&,right,nonword,,,,,,,,,,,,,0,3,3,172,,,,,,,,,,,,,,,LDT,left,1.0671885253395885,,,,,,0,,,,,,,,,,,,,left,0,1.0671885253395885,,,,,1021,2019_Mar_06_1241,mf_amp_cond1,3.0.4,60.143706449975504,
troops,,&&&&&&,left,loyalty.vice,,,,,,,,,,,,,0,4,4,28,,,,,,,,,,,,,,,LDT,right,0.7670911540044472,,,,,,0,,,,,,,,,,,,,right,0,0.7670911540044472,,,,,1021,2019_Mar_06_1241,mf_amp_cond1,3.0.4,60.143706449975504,
injured,,&&&&&&&,left,care.vice,,,,,,,,,,,,,0,5,5,51,,,,,,,,,,,,,,,LDT,right,0.6504115833668038,,,,,,0,,,,,,,,,,,,,right,0,0.6504115833668038,,,,,1021,2019_Mar_06_1241,mf_amp_cond1,3.0.4,60.143706449975504,
intelligence,,&&&&&&&&&&&&,left,loyalty.virtue,,,,,,,,,,,,,0,6,6,10,,,,,,,,,,,,,,,LDT,right,1.6173187708482146,,,,,,0,,,,,,,,,,,,,right,0,1.6173187708482146,,,,,1021,2019_Mar_06_1241,mf_amp_cond1,3.0.4,60.143706449975504,
pafer,,&&&&&,right,nonword,,,,,,,,,,,,,0,7,7,110,,,,,,,,,,,,,,,LDT,left,0.8837915712501854,,,,,,0,,,,,,,,,,,,,left,0,0.8837915712501854,,,,,1021,2019_Mar_06_1241,mf_amp_cond1,3.0.4,60.143706449975504,
gaultless,,&&&&&&&&&,right,nonword,,,,,,,,,,,,,0,8,8,49,,,,,,,,,,,,,,,LDT,left,0.7171036299550906,,,,,,0,,,,,,,,,,,,,left,0,0.7171036299550906,,,,,1021,2019_Mar_06_1241,mf_amp_cond1,3.0.4,60.143706449975504,
hasks,,&&&&&,right,nonword,,,,,,,,,,,,,0,9,9,100,,,,,,,,,,,,,,,LDT,left,0.950487787136808,,,,,,0,,,,,,,,,,,,,left,0,0.950487787136808,,,,,1021,2019_Mar_06_1241,mf_amp_cond1,3.0.4,60.143706449975504,
ammessment,,&&&&&&&&&&,right,nonword,,,,,,,,,,,,,0,10,10,20,,,,,,,,,,,,,,,LDT,right,0.9171797696035355,,,,,,1,,,,,,,,,,,,,right,1,0.9171797696035355,,,,,1021,2019_Mar_06_1241,mf_amp_cond1,3.0.4,60.143706449975504,
feleological,,&&&&&&&&&&&&,right,nonword,,,,,,,,,,,,,0,11,11,92,,,,,,,,,,,,,,,LDT,right,1.9173959366744384,,,,,,1,,,,,,,,,,,,,right,1,1.9173959366744384,,,,,1021,2019_Mar_06_1241,mf_amp_cond1,3.0.4,60.143706449975504,
thru,,&&&&,left,neutral,,,,,,,,,,,,,0,12,12,133,,,,,,,,,,,,,,,LDT,left,1.4672750564059243,,,,,,1,,,,,,,,,,,,,left,1,1.4672750564059243,,,,,1021,2019_Mar_06_1241,mf_amp_cond1,3.0.4,60.143706449975504,
whereafter,,&&&&&&&&&&,left,neutral,,,,,,,,,,,,,0,13,13,97,,,,,,,,,,,,,,,LDT,right,0.633744906168431,,,,,,0,,,,,,,,,,,,,right,0,0.633744906168431,,,,,1021,2019_Mar_06_1241,mf_amp_cond1,3.0.4,60.143706449975504,
mightingale,,&&&&&&&&&&&,right,nonword,,,,,,,,,,,,,0,14,14,137,,,,,,,,,,,,,,,LDT,left,0.9338429189519957,,,,,,0,,,,,,,,,,,,,left,0,0.9338429189519957,,,,,1021,2019_Mar_06_1241,mf_amp_cond1,3.0.4,60.143706449975504,
forced,,&&&&&&,left,fairness.vice,,,,,,,,,,,,,0,15,15,193,,,,,,,,,,,,,,,LDT,right,0.7504357018042356,,,,,,0,,,,,,,,,,,,,right,0,0.7504357018042356,,,,,1021,2019_Mar_06_1241,mf_amp_cond1,3.0.4,60.143706449975504,
fifteen,,&&&&&&&,left,neutral,,,,,,,,,,,,,0,16,16,126,,,,,,,,,,,,,,,LDT,right,1.934080574545078,,,,,,0,,,,,,,,,,,,,right,0,1.934080574545078,,,,,1021,2019_Mar_06_1241,mf_amp_cond1,3.0.4,60.143706449975504,
eight,,&&&&&,left,neutral,,,,,,,,,,,,,0,17,17,83,,,,,,,,,,,,,,,LDT,right,0.667099428595975,,,,,,0,,,,,,,,,,,,,right,0,0.667099428595975,,,,,1021,2019_Mar_06_1241,mf_amp_cond1,3.0.4,60.143706449975504,
gikely,,&&&&&&,right,nonword,,,,,,,,,,,,,0,18,18,0,,,,,,,,,,,,,,,LDT,left,0.6170484016183764,,,,,,0,,,,,,,,,,,,,left,0,0.6170484016183764,,,,,1021,2019_Mar_06_1241,mf_amp_cond1,3.0.4,60.143706449975504,
elsewhere,,&&&&&&&&&,left,neutral,,,,,,,,,,,,,0,19,19,17,,,,,,,,,,,,,,,LDT,right,0.6337808270473033,,,,,,0,,,,,,,,,,,,,right,0,0.6337808270473033,,,,,1021,2019_Mar_06_1241,mf_amp_cond1,3.0.4,60.143706449975504,
forty,,&&&&&,left,neutral,,,,,,,,,,,,,0,20,20,184,,,,,,,,,,,,,,,LDT,left,1.0838519954122603,,,,,,1,,,,,,,,,,,,,left,1,1.0838519954122603,,,,,1021,2019_Mar_06_1241,mf_amp_cond1,3.0.4,60.143706449975504,
could,,&&&&&,left,neutral,,,,,,,,,,,,,0,21,21,19,,,,,,,,,,,,,,,LDT,right,1.1005222008097917,,,,,,0,,,,,,,,,,,,,right,0,1.1005222008097917,,,,,1021,2019_Mar_06_1241,mf_amp_cond1,3.0.4,60.143706449975504,
further,,&&&&&&&,left,neutral,,,,,,,,,,,,,0,22,22,96,,,,,,,,,,,,,,,LDT,right,0.617068286286667,,,,,,0,,,,,,,,,,,,,right,0,0.617068286286667,,,,,1021,2019_Mar_06_1241,mf_amp_cond1,3.0.4,60.143706449975504,
touls,,&&&&&,right,nonword,,,,,,,,,,,,,0,23,23,128,,,,,,,,,,,,,,,LDT,left,1.300563381635584,,,,,,0,,,,,,,,,,,,,left,0,1.300563381635584,,,,,1021,2019_Mar_06_1241,mf_amp_cond1,3.0.4,60.143706449975504,
hence,,&&&&&,left,neutral,,,,,,,,,,,,,0,24,24,111,,,,,,,,,,,,,,,LDT,right,0.6670833923853934,,,,,,0,,,,,,,,,,,,,right,0,0.6670833923853934,,,,,1021,2019_Mar_06_1241,mf_amp_cond1,3.0.4,60.143706449975504,
encourage,,&&&&&&&&&,left,authority.virtue,,,,,,,,,,,,,0,25,25,145,,,,,,,,,,,,,,,LDT,right,0.9338169404072687,,,,,,0,,,,,,,,,,,,,right,0,0.9338169404072687,,,,,1021,2019_Mar_06_1241,mf_amp_cond1,3.0.4,60.143706449975504,
charges,,&&&&&&&,left,fairness.vice,,,,,,,,,,,,,0,26,26,176,,,,,,,,,,,,,,,LDT,right,0.8504315966274589,,,,,,0,,,,,,,,,,,,,right,0,0.8504315966274589,,,,,1021,2019_Mar_06_1241,mf_amp_cond1,3.0.4,60.143706449975504,
therefore,,&&&&&&&&&,left,neutral,,,,,,,,,,,,,0,27,27,141,,,,,,,,,,,,,,,LDT,right,1.0672032785369083,,,,,,0,,,,,,,,,,,,,right,0,1.0672032785369083,,,,,1021,2019_Mar_06_1241,mf_amp_cond1,3.0.4,60.143706449975504,
gondensed,,&&&&&&&&&,right,nonword,,,,,,,,,,,,,0,28,28,109,,,,,,,,,,,,,,,LDT,left,0.5670528595801443,,,,,,0,,,,,,,,,,,,,left,0,0.5670528595801443,,,,,1021,2019_Mar_06_1241,mf_amp_cond1,3.0.4,60.143706449975504,
give,,&&&&,left,neutral,,,,,,,,,,,,,0,29,29,91,,,,,,,,,,,,,,,LDT,right,2.3675216280389577,,,,,,0,,,,,,,,,,,,,right,0,2.3675216280389577,,,,,1021,2019_Mar_06_1241,mf_amp_cond1,3.0.4,60.143706449975504,
menizen,,&&&&&&&,None,nonword,,,,,,,,,,,,,0,30,30,41,,,,,,,,,,,,,,,LDT,left,0.7337484982563183,,,,,,0,,,,,,,,,,,,,left,0,0.7337484982563183,,,,,1021,2019_Mar_06_1241,mf_amp_cond1,3.0.4,60.143706449975504,
restore,,&&&&&&&,left,care.virtue,,,,,,,,,,,,,0,31,31,99,,,,,,,,,,,,,,,LDT,right,0.8171248618746176,,,,,,0,,,,,,,,,,,,,right,0,0.8171248618746176,,,,,1021,2019_Mar_06_1241,mf_amp_cond1,3.0.4,60.143706449975504,
noone,,&&&&&,left,neutral,,,,,,,,,,,,,0,32,32,30,,,,,,,,,,,,,,,LDT,left,1.7173557181376964,,,,,,1,,,,,,,,,,,,,left,1,1.7173557181376964,,,,,1021,2019_Mar_06_1241,mf_amp_cond1,3.0.4,60.143706449975504,
nonobservalt,,&&&&&&&&&&&&,right,nonword,,,,,,,,,,,,,0,33,33,147,,,,,,,,,,,,,,,LDT,right,1.9340850646840408,,,,,,1,,,,,,,,,,,,,right,1,1.9340850646840408,,,,,1021,2019_Mar_06_1241,mf_amp_cond1,3.0.4,60.143706449975504,
good,,&&&&,left,care.virtue,,,,,,,,,,,,,0,34,34,195,,,,,,,,,,,,,,,LDT,right,1.3172778466250747,,,,,,0,,,,,,,,,,,,,right,0,1.3172778466250747,,,,,1021,2019_Mar_06_1241,mf_amp_cond1,3.0.4,60.143706449975504,
imebreaker,,&&&&&&&&&&,right,nonword,,,,,,,,,,,,,0,35,35,31,,,,,,,,,,,,,,,LDT,left,0.6337708845967427,,,,,,0,,,,,,,,,,,,,left,0,0.6337708845967427,,,,,1021,2019_Mar_06_1241,mf_amp_cond1,3.0.4,60.143706449975504,
neutralust,,&&&&&&&&&&,right,nonword,,,,,,,,,,,,,0,36,36,165,,,,,,,,,,,,,,,LDT,right,1.6173380141844973,,,,,,1,,,,,,,,,,,,,right,1,1.6173380141844973,,,,,1021,2019_Mar_06_1241,mf_amp_cond1,3.0.4,60.143706449975504,
either,,&&&&&&,left,neutral,,,,,,,,,,,,,0,37,37,95,,,,,,,,,,,,,,,LDT,right,0.6670753742801026,,,,,,0,,,,,,,,,,,,,right,0,0.6670753742801026,,,,,1021,2019_Mar_06_1241,mf_amp_cond1,3.0.4,60.143706449975504,
bruthfulness,,&&&&&&&&&&&&,right,nonword,,,,,,,,,,,,,0,38,38,9,,,,,,,,,,,,,,,LDT,left,0.6837622572202235,,,,,,0,,,,,,,,,,,,,left,0,0.6837622572202235,,,,,1021,2019_Mar_06_1241,mf_amp_cond1,3.0.4,60.143706449975504,
emports,,&&&&&&&,right,nonword,,,,,,,,,,,,,0,39,39,148,,,,,,,,,,,,,,,LDT,left,0.867165946518071,,,,,,0,,,,,,,,,,,,,left,0,0.867165946518071,,,,,1021,2019_Mar_06_1241,mf_amp_cond1,3.0.4,60.143706449975504,
police,,&&&&&&,left,authority.vice,,,,,,,,,,,,,0,40,40,56,,,,,,,,,,,,,,,LDT,right,1.3339239977067336,,,,,,0,,,,,,,,,,,,,right,0,1.3339239977067336,,,,,1021,2019_Mar_06_1241,mf_amp_cond1,3.0.4,60.143706449975504,
also,,&&&&,left,neutral,,,,,,,,,,,,,0,41,41,29,,,,,,,,,,,,,,,LDT,right,0.6337404159130529,,,,,,0,,,,,,,,,,,,,right,0,0.6337404159130529,,,,,1021,2019_Mar_06_1241,mf_amp_cond1,3.0.4,60.143706449975504,
killed,,&&&&&&,left,care.vice,,,,,,,,,,,,,0,42,42,127,,,,,,,,,,,,,,,LDT,right,0.8337838418083265,,,,,,0,,,,,,,,,,,,,right,0,0.8337838418083265,,,,,1021,2019_Mar_06_1241,mf_amp_cond1,3.0.4,60.143706449975504,
atson,,&&&&&,right,nonword,,,,,,,,,,,,,0,43,43,104,,,,,,,,,,,,,,,LDT,left,0.6337340015452355,,,,,,0,,,,,,,,,,,,,left,0,0.6337340015452355,,,,,1021,2019_Mar_06_1241,mf_amp_cond1,3.0.4,60.143706449975504,
baladroit,,&&&&&&&&&,right,nonword,,,,,,,,,,,,,0,44,44,94,,,,,,,,,,,,,,,LDT,left,0.8171222960809246,,,,,,0,,,,,,,,,,,,,left,0,0.8171222960809246,,,,,1021,2019_Mar_06_1241,mf_amp_cond1,3.0.4,60.143706449975504,
rivernoat,,&&&&&&&&&,right,nonword,,,,,,,,,,,,,0,45,45,64,,,,,,,,,,,,,,,LDT,left,0.7171116480603814,,,,,,0,,,,,,,,,,,,,left,0,0.7171116480603814,,,,,1021,2019_Mar_06_1241,mf_amp_cond1,3.0.4,60.143706449975504,
juck,,&&&&,right,nonword,,,,,,,,,,,,,0,46,46,101,,,,,,,,,,,,,,,LDT,left,0.6670731293270364,,,,,,0,,,,,,,,,,,,,left,0,0.6670731293270364,,,,,1021,2019_Mar_06_1241,mf_amp_cond1,3.0.4,60.143706449975504,
iptervention,,&&&&&&&&&&&&,right,nonword,,,,,,,,,,,,,0,47,47,2,,,,,,,,,,,,,,,LDT,left,0.7670905124396086,,,,,,0,,,,,,,,,,,,,left,0,0.7670905124396086,,,,,1021,2019_Mar_06_1241,mf_amp_cond1,3.0.4,60.143706449975504,
myself,,&&&&&&,left,neutral,,,,,,,,,,,,,0,48,48,93,,,,,,,,,,,,,,,LDT,right,0.6170551368268207,,,,,,0,,,,,,,,,,,,,right,0,0.6170551368268207,,,,,1021,2019_Mar_06_1241,mf_amp_cond1,3.0.4,60.143706449975504,
least,,&&&&&,left,neutral,,,,,,,,,,,,,0,49,49,11,,,,,,,,,,,,,,,LDT,right,1.3005749275907874,,,,,,0,,,,,,,,,,,,,right,0,1.3005749275907874,,,,,1021,2019_Mar_06_1241,mf_amp_cond1,3.0.4,60.143706449975504,
agreement,,&&&&&&&&&,left,fairness.virtue,,,,,,,,,,,,,0,50,50,85,,,,,,,,,,,,,,,LDT,right,1.7840358978137374,,,,,,0,,,,,,,,,,,,,right,0,1.7840358978137374,,,,,1021,2019_Mar_06_1241,mf_amp_cond1,3.0.4,60.143706449975504,
loyalty,,&&&&&&&,left,loyalty.virtue,,,,,,,,,,,,,0,51,51,72,,,,,,,,,,,,,,,LDT,right,1.8007121969712898,,,,,,0,,,,,,,,,,,,,right,0,1.8007121969712898,,,,,1021,2019_Mar_06_1241,mf_amp_cond1,3.0.4,60.143706449975504,
ensure,,&&&&&&,left,fairness.virtue,,,,,,,,,,,,,0,52,52,187,,,,,,,,,,,,,,,LDT,right,0.7837453230749816,,,,,,0,,,,,,,,,,,,,right,0,0.7837453230749816,,,,,1021,2019_Mar_06_1241,mf_amp_cond1,3.0.4,60.143706449975504,
fostet,,&&&&&&,right,nonword,,,,,,,,,,,,,0,53,53,155,,,,,,,,,,,,,,,LDT,left,0.5670923085417598,,,,,,0,,,,,,,,,,,,,left,0,0.5670923085417598,,,,,1021,2019_Mar_06_1241,mf_amp_cond1,3.0.4,60.143706449975504,
three,,&&&&&,left,neutral,,,,,,,,,,,,,0,54,54,112,,,,,,,,,,,,,,,LDT,right,0.9171521874377504,,,,,,0,,,,,,,,,,,,,right,0,0.9171521874377504,,,,,1021,2019_Mar_06_1241,mf_amp_cond1,3.0.4,60.143706449975504,
peaceful,,&&&&&&&&,left,authority.virtue,,,,,,,,,,,,,0,55,55,54,,,,,,,,,,,,,,,LDT,right,0.6504061311716214,,,,,,0,,,,,,,,,,,,,right,0,0.6504061311716214,,,,,1021,2019_Mar_06_1241,mf_amp_cond1,3.0.4,60.143706449975504,
wherever,,&&&&&&&&,left,neutral,,,,,,,,,,,,,0,56,56,188,,,,,,,,,,,,,,,LDT,right,0.600397118832916,,,,,,0,,,,,,,,,,,,,right,0,0.600397118832916,,,,,1021,2019_Mar_06_1241,mf_amp_cond1,3.0.4,60.143706449975504,
civilians,,&&&&&&&&&,left,care.vice,,,,,,,,,,,,,0,57,57,131,,,,,,,,,,,,,,,LDT,right,0.6337214933009818,,,,,,0,,,,,,,,,,,,,right,0,0.6337214933009818,,,,,1021,2019_Mar_06_1241,mf_amp_cond1,3.0.4,60.143706449975504,
commitment,,&&&&&&&&&&,left,sanctity.virtue,,,,,,,,,,,,,0,58,58,161,,,,,,,,,,,,,,,LDT,right,2.2341532503487542,,,,,,0,,,,,,,,,,,,,right,0,2.2341532503487542,,,,,1021,2019_Mar_06_1241,mf_amp_cond1,3.0.4,60.143706449975504,
although,,&&&&&&&&,left,neutral,,,,,,,,,,,,,0,59,59,55,,,,,,,,,,,,,,,LDT,right,0.6003955152118579,,,,,,0,,,,,,,,,,,,,right,0,0.6003955152118579,,,,,1021,2019_Mar_06_1241,mf_amp_cond1,3.0.4,60.143706449975504,
amoungst,,&&&&&&&&,left,neutral,,,,,,,,,,,,,0,60,60,23,,,,,,,,,,,,,,,LDT,right,0.7171029885066673,,,,,,0,,,,,,,,,,,,,right,0,0.7171029885066673,,,,,1021,2019_Mar_06_1241,mf_amp_cond1,3.0.4,60.143706449975504,
vicissifude,,&&&&&&&&&&&,right,nonword,,,,,,,,,,,,,0,61,61,170,,,,,,,,,,,,,,,LDT,left,0.5837484020739794,,,,,,0,,,,,,,,,,,,,left,0,0.5837484020739794,,,,,1021,2019_Mar_06_1241,mf_amp_cond1,3.0.4,60.143706449975504,
allears,,&&&&&&&,right,nonword,,,,,,,,,,,,,0,62,62,106,,,,,,,,,,,,,,,LDT,left,1.1338706294773147,,,,,,0,,,,,,,,,,,,,left,0,1.1338706294773147,,,,,1021,2019_Mar_06_1241,mf_amp_cond1,3.0.4,60.143706449975504,
fornicalion,,&&&&&&&&&&&,right,nonword,,,,,,,,,,,,,0,63,63,129,,,,,,,,,,,,,,,LDT,right,1.4506019644904882,,,,,,1,,,,,,,,,,,,,right,1,1.4506019644904882,,,,,1021,2019_Mar_06_1241,mf_amp_cond1,3.0.4,60.143706449975504,
wonderfujnoss,,&&&&&&&&&&&&&,right,nonword,,,,,,,,,,,,,0,64,64,36,,,,,,,,,,,,,,,LDT,right,0.8504501985153183,,,,,,1,,,,,,,,,,,,,right,1,0.8504501985153183,,,,,1021,2019_Mar_06_1241,mf_amp_cond1,3.0.4,60.143706449975504,
sgrawl,,&&&&&&,right,nonword,,,,,,,,,,,,,0,65,65,185,,,,,,,,,,,,,,,LDT,right,3.067693022079766,,,,,,1,,,,,,,,,,,,,right,1,3.067693022079766,,,,,1021,2019_Mar_06_1241,mf_amp_cond1,3.0.4,60.143706449975504,
uller,,&&&&&,right,nonword,,,,,,,,,,,,,0,66,66,68,,,,,,,,,,,,,,,LDT,left,0.7337731939041987,,,,,,0,,,,,,,,,,,,,left,0,0.7337731939041987,,,,,1021,2019_Mar_06_1241,mf_amp_cond1,3.0.4,60.143706449975504,
scalbel,,&&&&&&&,right,nonword,,,,,,,,,,,,,0,67,67,117,,,,,,,,,,,,,,,LDT,left,0.5504089535679668,,,,,,0,,,,,,,,,,,,,left,0,0.5504089535679668,,,,,1021,2019_Mar_06_1241,mf_amp_cond1,3.0.4,60.143706449975504,
there,,&&&&&,left,neutral,,,,,,,,,,,,,0,68,68,33,,,,,,,,,,,,,,,LDT,right,1.1338917971588671,,,,,,0,,,,,,,,,,,,,right,0,1.1338917971588671,,,,,1021,2019_Mar_06_1241,mf_amp_cond1,3.0.4,60.143706449975504,
openet,,&&&&&&,None,nonword,,,,,,,,,,,,,0,69,69,139,,,,,,,,,,,,,,,LDT,left,1.4672824329463765,,,,,,0,,,,,,,,,,,,,left,0,1.4672824329463765,,,,,1021,2019_Mar_06_1241,mf_amp_cond1,3.0.4,60.143706449975504,
protesters,,&&&&&&&&&&,left,authority.vice,,,,,,,,,,,,,0,70,70,135,,,,,,,,,,,,,,,LDT,right,1.2005777498707175,,,,,,0,,,,,,,,,,,,,right,0,1.2005777498707175,,,,,1021,2019_Mar_06_1241,mf_amp_cond1,3.0.4,60.143706449975504,
reviked,,&&&&&&&,right,nonword,,,,,,,,,,,,,0,71,71,43,,,,,,,,,,,,,,,LDT,left,1.183751673437655,,,,,,0,,,,,,,,,,,,,left,0,1.183751673437655,,,,,1021,2019_Mar_06_1241,mf_amp_cond1,3.0.4,60.143706449975504,
lempestuous,,&&&&&&&&&&&,right,nonword,,,,,,,,,,,,,0,72,72,199,,,,,,,,,,,,,,,LDT,left,1.3339086030609906,,,,,,0,,,,,,,,,,,,,left,0,1.3339086030609906,,,,,1021,2019_Mar_06_1241,mf_amp_cond1,3.0.4,60.143706449975504,
pistraught,,&&&&&&&&&&,right,nonword,,,,,,,,,,,,,0,73,73,82,,,,,,,,,,,,,,,LDT,left,0.7337959652068093,,,,,,0,,,,,,,,,,,,,left,0,0.7337959652068093,,,,,1021,2019_Mar_06_1241,mf_amp_cond1,3.0.4,60.143706449975504,
rejected,,&&&&&&&&,left,authority.vice,,,,,,,,,,,,,0,74,74,134,,,,,,,,,,,,,,,LDT,right,0.8337854454293847,,,,,,0,,,,,,,,,,,,,right,0,0.8337854454293847,,,,,1021,2019_Mar_06_1241,mf_amp_cond1,3.0.4,60.143706449975504,
itself,,&&&&&&,left,neutral,,,,,,,,,,,,,0,75,75,175,,,,,,,,,,,,,,,LDT,right,1.3339326572604477,,,,,,0,,,,,,,,,,,,,right,0,1.3339326572604477,,,,,1021,2019_Mar_06_1241,mf_amp_cond1,3.0.4,60.143706449975504,
each,,&&&&,left,neutral,,,,,,,,,,,,,0,76,76,65,,,,,,,,,,,,,,,LDT,right,0.9838474411517382,,,,,,0,,,,,,,,,,,,,right,0,0.9838474411517382,,,,,1021,2019_Mar_06_1241,mf_amp_cond1,3.0.4,60.143706449975504,
clean,,&&&&&,left,sanctity.virtue,,,,,,,,,,,,,0,77,77,12,,,,,,,,,,,,,,,LDT,right,0.6004080234561116,,,,,,0,,,,,,,,,,,,,right,0,0.6004080234561116,,,,,1021,2019_Mar_06_1241,mf_amp_cond1,3.0.4,60.143706449975504,
failure,,&&&&&&&,left,loyalty.vice,,,,,,,,,,,,,0,78,78,87,,,,,,,,,,,,,,,LDT,right,0.6337391331326216,,,,,,0,,,,,,,,,,,,,right,0,0.6337391331326216,,,,,1021,2019_Mar_06_1241,mf_amp_cond1,3.0.4,60.143706449975504,
hescribe,,&&&&&&&&,right,nonword,,,,,,,,,,,,,0,79,79,62,,,,,,,,,,,,,,,LDT,left,0.5170393571024761,,,,,,0,,,,,,,,,,,,,left,0,0.5170393571024761,,,,,1021,2019_Mar_06_1241,mf_amp_cond1,3.0.4,60.143706449975504,
drumbled,,&&&&&&&&,right,nonword,,,,,,,,,,,,,0,80,80,67,,,,,,,,,,,,,,,LDT,left,0.9338198270415887,,,,,,0,,,,,,,,,,,,,left,0,0.9338198270415887,,,,,1021,2019_Mar_06_1241,mf_amp_cond1,3.0.4,60.143706449975504,
toward,,&&&&&&,left,neutral,,,,,,,,,,,,,0,81,81,190,,,,,,,,,,,,,,,LDT,right,0.5837256307713687,,,,,,0,,,,,,,,,,,,,right,0,0.5837256307713687,,,,,1021,2019_Mar_06_1241,mf_amp_cond1,3.0.4,60.143706449975504,
whither,,&&&&&&&,left,neutral,,,,,,,,,,,,,0,82,82,120,,,,,,,,,,,,,,,LDT,left,0.867111102794297,,,,,,1,,,,,,,,,,,,,left,1,0.867111102794297,,,,,1021,2019_Mar_06_1241,mf_amp_cond1,3.0.4,60.143706449975504,
nackers,,&&&&&&&,right,nonword,,,,,,,,,,,,,0,83,83,63,,,,,,,,,,,,,,,LDT,left,0.6837494282517582,,,,,,0,,,,,,,,,,,,,left,0,0.6837494282517582,,,,,1021,2019_Mar_06_1241,mf_amp_cond1,3.0.4,60.143706449975504,
increase,,&&&&&&&&,left,care.virtue,,,,,,,,,,,,,0,84,84,37,,,,,,,,,,,,,,,LDT,right,0.8171158815966919,,,,,,0,,,,,,,,,,,,,right,0,0.8171158815966919,,,,,1021,2019_Mar_06_1241,mf_amp_cond1,3.0.4,60.143706449975504,
everything,,&&&&&&&&&&,left,neutral,,,,,,,,,,,,,0,85,85,160,,,,,,,,,,,,,,,LDT,right,0.8338107826421037,,,,,,0,,,,,,,,,,,,,right,0,0.8338107826421037,,,,,1021,2019_Mar_06_1241,mf_amp_cond1,3.0.4,60.143706449975504,
neputized,,&&&&&&&&&,right,nonword,,,,,,,,,,,,,0,86,86,197,,,,,,,,,,,,,,,LDT,left,0.48374031973071396,,,,,,0,,,,,,,,,,,,,left,0,0.48374031973071396,,,,,1021,2019_Mar_06_1241,mf_amp_cond1,3.0.4,60.143706449975504,
nomparisons,,&&&&&&&&&&&,right,nonword,,,,,,,,,,,,,0,87,87,121,,,,,,,,,,,,,,,LDT,left,0.6503997166873887,,,,,,0,,,,,,,,,,,,,left,0,0.6503997166873887,,,,,1021,2019_Mar_06_1241,mf_amp_cond1,3.0.4,60.143706449975504,
godlaness,,&&&&&&&&&,right,nonword,,,,,,,,,,,,,0,88,88,8,,,,,,,,,,,,,,,LDT,left,1.0005128355696797,,,,,,0,,,,,,,,,,,,,left,0,1.0005128355696797,,,,,1021,2019_Mar_06_1241,mf_amp_cond1,3.0.4,60.143706449975504,
amount,,&&&&&&,left,neutral,,,,,,,,,,,,,0,89,89,168,,,,,,,,,,,,,,,LDT,right,1.3505666208220646,,,,,,0,,,,,,,,,,,,,right,0,1.3505666208220646,,,,,1021,2019_Mar_06_1241,mf_amp_cond1,3.0.4,60.143706449975504,
ebbitter,,&&&&&&&&,right,nonword,,,,,,,,,,,,,0,90,90,52,,,,,,,,,,,,,,,LDT,left,1.8673663981026039,,,,,,0,,,,,,,,,,,,,left,0,1.8673663981026039,,,,,1021,2019_Mar_06_1241,mf_amp_cond1,3.0.4,60.143706449975504,
fifty,,&&&&&,left,neutral,,,,,,,,,,,,,0,91,91,182,,,,,,,,,,,,,,,LDT,right,2.567576920497231,,,,,,0,,,,,,,,,,,,,right,0,2.567576920497231,,,,,1021,2019_Mar_06_1241,mf_amp_cond1,3.0.4,60.143706449975504,
Daptist,,&&&&&&&,right,nonword,,,,,,,,,,,,,0,92,92,27,,,,,,,,,,,,,,,LDT,left,1.0671792243374512,,,,,,0,,,,,,,,,,,,,left,0,1.0671792243374512,,,,,1021,2019_Mar_06_1241,mf_amp_cond1,3.0.4,60.143706449975504,
antral,,&&&&&&,right,nonword,,,,,,,,,,,,,0,93,93,59,,,,,,,,,,,,,,,LDT,left,1.8173846473218873,,,,,,0,,,,,,,,,,,,,left,0,1.8173846473218873,,,,,1021,2019_Mar_06_1241,mf_amp_cond1,3.0.4,60.143706449975504,
sowntrodden,,&&&&&&&&&&&,right,nonword,,,,,,,,,,,,,0,94,94,89,,,,,,,,,,,,,,,LDT,right,0.8337998780189082,,,,,,1,,,,,,,,,,,,,right,1,0.8337998780189082,,,,,1021,2019_Mar_06_1241,mf_amp_cond1,3.0.4,60.143706449975504,
seem,,&&&&,left,neutral,,,,,,,,,,,,,0,95,95,13,,,,,,,,,,,,,,,LDT,right,1.7673737106379122,,,,,,0,,,,,,,,,,,,,right,0,1.7673737106379122,,,,,1021,2019_Mar_06_1241,mf_amp_cond1,3.0.4,60.143706449975504,
anyhow,,&&&&&&,left,neutral,,,,,,,,,,,,,0,96,96,189,,,,,,,,,,,,,,,LDT,right,1.5006205984391272,,,,,,0,,,,,,,,,,,,,right,0,1.5006205984391272,,,,,1021,2019_Mar_06_1241,mf_amp_cond1,3.0.4,60.143706449975504,
harassment,,&&&&&&&&&&,left,sanctity.vice,,,,,,,,,,,,,0,97,97,107,,,,,,,,,,,,,,,LDT,left,0.7836208825465292,,,,,,1,,,,,,,,,,,,,left,1,0.7836208825465292,,,,,1021,2019_Mar_06_1241,mf_amp_cond1,3.0.4,60.143706449975504,
idexpressible,,&&&&&&&&&&&&&,right,nonword,,,,,,,,,,,,,0,98,98,108,,,,,,,,,,,,,,,LDT,left,1.1672180958557874,,,,,,0,,,,,,,,,,,,,left,0,1.1672180958557874,,,,,1021,2019_Mar_06_1241,mf_amp_cond1,3.0.4,60.143706449975504,
festate,,&&&&&&&,right,nonword,,,,,,,,,,,,,0,99,99,118,,,,,,,,,,,,,,,LDT,left,1.0005044968565926,,,,,,0,,,,,,,,,,,,,left,0,1.0005044968565926,,,,,1021,2019_Mar_06_1241,mf_amp_cond1,3.0.4,60.143706449975504,
trust,,&&&&&,left,authority.virtue,,,,,,,,,,,,,0,100,100,156,,,,,,,,,,,,,,,LDT,right,0.46701815736014396,,,,,,0,,,,,,,,,,,,,right,0,0.46701815736014396,,,,,1021,2019_Mar_06_1241,mf_amp_cond1,3.0.4,60.143706449975504,
tenuflect,,&&&&&&&&&,right,nonword,,,,,,,,,,,,,0,101,101,180,,,,,,,,,,,,,,,LDT,left,0.70038724062033,,,,,,0,,,,,,,,,,,,,left,0,0.70038724062033,,,,,1021,2019_Mar_06_1241,mf_amp_cond1,3.0.4,60.143706449975504,
Lacedonia,,&&&&&&&&&,right,nonword,,,,,,,,,,,,,0,102,102,136,,,,,,,,,,,,,,,LDT,left,0.9672526057111099,,,,,,0,,,,,,,,,,,,,left,0,0.9672526057111099,,,,,1021,2019_Mar_06_1241,mf_amp_cond1,3.0.4,60.143706449975504,
baklara,,&&&&&&&,right,nonword,,,,,,,,,,,,,0,103,103,45,,,,,,,,,,,,,,,LDT,right,1.2339046901324764,,,,,,1,,,,,,,,,,,,,right,1,1.2339046901324764,,,,,1021,2019_Mar_06_1241,mf_amp_cond1,3.0.4,60.143706449975504,
sidearbs,,&&&&&&&&,right,nonword,,,,,,,,,,,,,0,104,104,79,,,,,,,,,,,,,,,LDT,left,0.717086311080493,,,,,,0,,,,,,,,,,,,,left,0,0.717086311080493,,,,,1021,2019_Mar_06_1241,mf_amp_cond1,3.0.4,60.143706449975504,
both,,&&&&,left,neutral,,,,,,,,,,,,,0,105,105,178,,,,,,,,,,,,,,,LDT,right,1.0005086662713438,,,,,,0,,,,,,,,,,,,,right,0,1.0005086662713438,,,,,1021,2019_Mar_06_1241,mf_amp_cond1,3.0.4,60.143706449975504,
refused,,&&&&&&&,left,authority.vice,,,,,,,,,,,,,0,106,106,44,,,,,,,,,,,,,,,LDT,right,1.0171577038709074,,,,,,0,,,,,,,,,,,,,right,0,1.0171577038709074,,,,,1021,2019_Mar_06_1241,mf_amp_cond1,3.0.4,60.143706449975504,
dormandi,,&&&&&&&&,None,nonword,,,,,,,,,,,,,0,107,107,183,,,,,,,,,,,,,,,LDT,right,1.6673354804515839,,,,,,0,,,,,,,,,,,,,right,0,1.6673354804515839,,,,,1021,2019_Mar_06_1241,mf_amp_cond1,3.0.4,60.143706449975504,
lorthwhile,,&&&&&&&&&&,right,nonword,,,,,,,,,,,,,0,108,108,179,,,,,,,,,,,,,,,LDT,left,2.884332309709862,,,,,,0,,,,,,,,,,,,,left,0,2.884332309709862,,,,,1021,2019_Mar_06_1241,mf_amp_cond1,3.0.4,60.143706449975504,
safety,,&&&&&&,left,care.virtue,,,,,,,,,,,,,0,109,109,146,,,,,,,,,,,,,,,LDT,right,0.6003788376692683,,,,,,0,,,,,,,,,,,,,right,0,0.6003788376692683,,,,,1021,2019_Mar_06_1241,mf_amp_cond1,3.0.4,60.143706449975504,
elduringly,,&&&&&&&&&&,right,nonword,,,,,,,,,,,,,0,110,110,88,,,,,,,,,,,,,,,LDT,left,1.2005501678213477,,,,,,0,,,,,,,,,,,,,left,0,1.2005501678213477,,,,,1021,2019_Mar_06_1241,mf_amp_cond1,3.0.4,60.143706449975504,
ning,,&&&&,right,nonword,,,,,,,,,,,,,0,111,111,40,,,,,,,,,,,,,,,LDT,right,0.9004912831587717,,,,,,1,,,,,,,,,,,,,right,1,0.9004912831587717,,,,,1021,2019_Mar_06_1241,mf_amp_cond1,3.0.4,60.143706449975504,
ecgagement,,&&&&&&&&&&,None,nonword,,,,,,,,,,,,,0,112,112,198,,,,,,,,,,,,,,,LDT,right,0.7004135398892686,,,,,,0,,,,,,,,,,,,,right,0,0.7004135398892686,,,,,1021,2019_Mar_06_1241,mf_amp_cond1,3.0.4,60.143706449975504,
pescinded,,&&&&&&&&&,right,nonword,,,,,,,,,,,,,0,113,113,166,,,,,,,,,,,,,,,LDT,left,1.3006538253976032,,,,,,0,,,,,,,,,,,,,left,0,1.3006538253976032,,,,,1021,2019_Mar_06_1241,mf_amp_cond1,3.0.4,60.143706449975504,
