words,mask,corr_ans,category,nonwords,tweets,topic,LDT_prac_loop.thisRepN,LDT_prac_loop.thisTrialN,LDT_prac_loop.thisN,LDT_prac_loop.thisIndex,LDT_loop.thisRepN,LDT_loop.thisTrialN,LDT_loop.thisN,LDT_loop.thisIndex,AMP_pracloop.thisRepN,AMP_pracloop.thisTrialN,AMP_pracloop.thisN,AMP_pracloop.thisIndex,AMP_loop.thisRepN,AMP_loop.thisTrialN,AMP_loop.thisN,AMP_loop.thisIndex,tweet_loop.thisRepN,tweet_loop.thisTrialN,tweet_loop.thisN,tweet_loop.thisIndex,begin_key.keys,begin_key.rt,key_resp_AMP_instr1.keys,key_resp_AMP_instr1.rt,key_resp_LDT_instr.keys,key_resp_LDT_instr.rt,resp_LDT_prac.keys,resp_LDT_prac.rt,task,keypress,RT,corr,resp_LDT_ready.keys,resp_LDT_ready.rt,resp_LDT.keys,resp_LDT.corr,resp_LDT.rt,LDT_rating.response,LDT_rating.rt,resp_AMP_ready1.keys,resp_AMP_ready1.rt,resp_AMP_prac.keys,resp_AMP_prac.rt,resp_AMP_ready.keys,resp_AMP_ready.rt,resp_AMP.keys,resp_AMP.corr,resp_AMP.rt,AMP_nonword_rating.response,AMP_nonword_rating.rt,AMP_word_rating.response,AMP_word_rating.rt,AMP_random_rating.response,AMP_random_rating.rt,key_resp_LDT_instr_2.keys,key_resp_LDT_instr_2.rt,resp_tweets.keys,resp_tweets.rt,participant,date,expName,psychopyVersion,frameRate,
,,,,,,,,,,,,,,,,,,,,,,,,,,,right,326.8110620981315,,,,,,,,,,,,,,,,,,,,,,,,,,,,,,,,,,,,,1022,2019_Mar_06_1501,mf_amp_cond2,3.0.4,60.04695141134329,
,,,,,,,,,,,,,,,,,,,,,,,,,,,,,right,7.835470709134825,,,,,,,,,,,,,,,,,,,,,,,,,,,,,,,,,,,1022,2019_Mar_06_1501,mf_amp_cond2,3.0.4,60.04695141134329,
,,,,,,,,,,,,,,,,,,,,,,,,,,,,,,,right,5.051520559121855,,,,,,,,,,,,,,,,,,,,,,,,,,,,,,,,,1022,2019_Mar_06_1501,mf_amp_cond2,3.0.4,60.04695141134329,
keyboard,&&&&&&&,,,,,,0,0,0,0,,,,,,,,,,,,,,,,,,,,,,,left,1.9340929660247639,LDT_prac,left,1.9340929660247639,0,,,,,,,,,,,,,,,,,,,,,,,,,,,1022,2019_Mar_06_1501,mf_amp_cond2,3.0.4,60.04695141134329,
bisebell,&&&&&&&,,,,,,0,1,1,1,,,,,,,,,,,,,,,,,,,,,,,left,1.3505868187639862,LDT_prac,left,1.3505868187639862,0,,,,,,,,,,,,,,,,,,,,,,,,,,,1022,2019_Mar_06_1501,mf_amp_cond2,3.0.4,60.04695141134329,
,,,,,,,,,,,,,,,,,,,,,,,,,,,,,,,,,,,,,,,right,2.1507624443620443,,,,,,,,,,,,,,,,,,,,,,,,,1022,2019_Mar_06_1501,mf_amp_cond2,3.0.4,60.04695141134329,
pulge,&&&&&,right,nonword,,,,,,,,0,0,0,130,,,,,,,,,,,,,,,,,,,,,LDT,left,0.7837073659757152,0,,,left,0,0.7837073659757152,,,,,,,,,,,,,,,,,,,,,,1022,2019_Mar_06_1501,mf_amp_cond2,3.0.4,60.04695141134329,
improve,&&&&&&&,left,care.virtue,,,,,,,,0,1,1,145,,,,,,,,,,,,,,,,,,,,,LDT,left,1.150586690637283,1,,,left,1,1.150586690637283,,,,,,,,,,,,,,,,,,,,,,1022,2019_Mar_06_1501,mf_amp_cond2,3.0.4,60.04695141134329,
epigrach,&&&&&&&&,right,nonword,,,,,,,,0,2,2,160,,,,,,,,,,,,,,,,,,,,,LDT,left,1.2005004493985325,0,,,left,0,1.2005004493985325,,,,,,,,,,,,,,,,,,,,,,1022,2019_Mar_06_1501,mf_amp_cond2,3.0.4,60.04695141134329,
support,&&&&&&&,left,loyalty.virtue,,,,,,,,0,3,3,63,,,,,,,,,,,,,,,,,,,,,LDT,left,1.4505884865066037,1,,,left,1,1.4505884865066037,,,,,,,,,,,,,,,,,,,,,,1022,2019_Mar_06_1501,mf_amp_cond2,3.0.4,60.04695141134329,
forty,&&&&&,left,neutral,,,,,,,,0,4,4,117,,,,,,,,,,,,,,,,,,,,,LDT,left,2.58418959856499,1,,,left,1,2.58418959856499,,,,,,,,,,,,,,,,,,,,,,1022,2019_Mar_06_1501,mf_amp_cond2,3.0.4,60.04695141134329,
mostly,&&&&&&,left,neutral,,,,,,,,0,5,5,178,,,,,,,,,,,,,,,,,,,,,LDT,left,1.7840049929218367,1,,,left,1,1.7840049929218367,,,,,,,,,,,,,,,,,,,,,,1022,2019_Mar_06_1501,mf_amp_cond2,3.0.4,60.04695141134329,
baladroit,&&&&&&&&&,right,nonword,,,,,,,,0,6,6,148,,,,,,,,,,,,,,,,,,,,,LDT,left,2.0674108834937215,0,,,left,0,2.0674108834937215,,,,,,,,,,,,,,,,,,,,,,1022,2019_Mar_06_1501,mf_amp_cond2,3.0.4,60.04695141134329,
safe,&&&&,left,care.virtue,,,,,,,,0,7,7,27,,,,,,,,,,,,,,,,,,,,,LDT,right,1.7006505456520244,0,,,right,0,1.7006505456520244,,,,,,,,,,,,,,,,,,,,,,1022,2019_Mar_06_1501,mf_amp_cond2,3.0.4,60.04695141134329,
both,&&&&,left,neutral,,,,,,,,0,8,8,151,,,,,,,,,,,,,,,,,,,,,LDT,right,1.2505389675498009,0,,,right,0,1.2505389675498009,,,,,,,,,,,,,,,,,,,,,,1022,2019_Mar_06_1501,mf_amp_cond2,3.0.4,60.04695141134329,
peace,&&&&&,left,care.virtue,,,,,,,,0,9,9,194,,,,,,,,,,,,,,,,,,,,,LDT,right,1.183878565672785,0,,,right,0,1.183878565672785,,,,,,,,,,,,,,,,,,,,,,1022,2019_Mar_06_1501,mf_amp_cond2,3.0.4,60.04695141134329,
corruption,&&&&&&&&&&,left,sanctity.vice,,,,,,,,0,10,10,180,,,,,,,,,,,,,,,,,,,,,LDT,right,1.3172224613372236,0,,,right,0,1.3172224613372236,,,,,,,,,,,,,,,,,,,,,,1022,2019_Mar_06_1501,mf_amp_cond2,3.0.4,60.04695141134329,
freedom,&&&&&&&,left,sanctity.virtue,,,,,,,,0,11,11,175,,,,,,,,,,,,,,,,,,,,,LDT,right,1.1005366264143959,0,,,right,0,1.1005366264143959,,,,,,,,,,,,,,,,,,,,,,1022,2019_Mar_06_1501,mf_amp_cond2,3.0.4,60.04695141134329,
latter,&&&&&&,left,neutral,,,,,,,,0,12,12,84,,,,,,,,,,,,,,,,,,,,,LDT,right,1.8173626153729856,0,,,right,0,1.8173626153729856,,,,,,,,,,,,,,,,,,,,,,1022,2019_Mar_06_1501,mf_amp_cond2,3.0.4,60.04695141134329,
whereafter,&&&&&&&&&&,left,neutral,,,,,,,,0,13,13,119,,,,,,,,,,,,,,,,,,,,,LDT,right,1.0338460769271478,0,,,right,0,1.0338460769271478,,,,,,,,,,,,,,,,,,,,,,1022,2019_Mar_06_1501,mf_amp_cond2,3.0.4,60.04695141134329,
even,&&&&,left,neutral,,,,,,,,0,14,14,85,,,,,,,,,,,,,,,,,,,,,LDT,left,1.0505327456630766,1,,,left,1,1.0505327456630766,,,,,,,,,,,,,,,,,,,,,,1022,2019_Mar_06_1501,mf_amp_cond2,3.0.4,60.04695141134329,
protect,&&&&&&&,left,fairness.virtue,,,,,,,,0,15,15,142,,,,,,,,,,,,,,,,,,,,,LDT,right,0.8004453498870134,0,,,right,0,0.8004453498870134,,,,,,,,,,,,,,,,,,,,,,1022,2019_Mar_06_1501,mf_amp_cond2,3.0.4,60.04695141134329,
fornicalion,&&&&&&&&&&&,right,nonword,,,,,,,,0,16,16,72,,,,,,,,,,,,,,,,,,,,,LDT,left,1.1005234769545496,0,,,left,0,1.1005234769545496,,,,,,,,,,,,,,,,,,,,,,1022,2019_Mar_06_1501,mf_amp_cond2,3.0.4,60.04695141134329,
promised,&&&&&&&&,left,loyalty.virtue,,,,,,,,0,17,17,78,,,,,,,,,,,,,,,,,,,,,LDT,right,1.0504968252498657,0,,,right,0,1.0504968252498657,,,,,,,,,,,,,,,,,,,,,,1022,2019_Mar_06_1501,mf_amp_cond2,3.0.4,60.04695141134329,
honored,&&&&&&&,left,authority.virtue,,,,,,,,0,18,18,191,,,,,,,,,,,,,,,,,,,,,LDT,right,1.1505148495780304,0,,,right,0,1.1505148495780304,,,,,,,,,,,,,,,,,,,,,,1022,2019_Mar_06_1501,mf_amp_cond2,3.0.4,60.04695141134329,
lempestuous,&&&&&&&&&&&,right,nonword,,,,,,,,0,19,19,88,,,,,,,,,,,,,,,,,,,,,LDT,left,1.4172032823553309,0,,,left,0,1.4172032823553309,,,,,,,,,,,,,,,,,,,,,,1022,2019_Mar_06_1501,mf_amp_cond2,3.0.4,60.04695141134329,
war,&&&,left,sanctity.vice,,,,,,,,0,20,20,116,,,,,,,,,,,,,,,,,,,,,LDT,right,0.7170758286956698,0,,,right,0,0.7170758286956698,,,,,,,,,,,,,,,,,,,,,,1022,2019_Mar_06_1501,mf_amp_cond2,3.0.4,60.04695141134329,
gationwide,&&&&&&&&&&,right,nonword,,,,,,,,0,21,21,176,,,,,,,,,,,,,,,,,,,,,LDT,left,1.2505402504466474,0,,,left,0,1.2505402504466474,,,,,,,,,,,,,,,,,,,,,,1022,2019_Mar_06_1501,mf_amp_cond2,3.0.4,60.04695141134329,
energy,&&&&&&,left,sanctity.virtue,,,,,,,,0,22,22,156,,,,,,,,,,,,,,,,,,,,,LDT,right,0.7004144967067987,0,,,right,0,0.7004144967067987,,,,,,,,,,,,,,,,,,,,,,1022,2019_Mar_06_1501,mf_amp_cond2,3.0.4,60.04695141134329,
frojecting,&&&&&&&&&&,right,nonword,,,,,,,,0,23,23,161,,,,,,,,,,,,,,,,,,,,,LDT,right,1.7173218199750409,1,,,right,1,1.7173218199750409,,,,,,,,,,,,,,,,,,,,,,1022,2019_Mar_06_1501,mf_amp_cond2,3.0.4,60.04695141134329,
hence,&&&&&,left,neutral,,,,,,,,0,24,24,127,,,,,,,,,,,,,,,,,,,,,LDT,right,1.3005579221062362,0,,,right,0,1.3005579221062362,,,,,,,,,,,,,,,,,,,,,,1022,2019_Mar_06_1501,mf_amp_cond2,3.0.4,60.04695141134329,
saned,&&&&&,None,nonword,,,,,,,,0,25,25,24,,,,,,,,,,,,,,,,,,,,,LDT,right,1.2005097501678392,0,,,right,0,1.2005097501678392,,,,,,,,,,,,,,,,,,,,,,1022,2019_Mar_06_1501,mf_amp_cond2,3.0.4,60.04695141134329,
commitment,&&&&&&&&&&,left,sanctity.virtue,,,,,,,,0,26,26,57,,,,,,,,,,,,,,,,,,,,,LDT,right,1.1171838467707857,0,,,right,0,1.1171838467707857,,,,,,,,,,,,,,,,,,,,,,1022,2019_Mar_06_1501,mf_amp_cond2,3.0.4,60.04695141134329,
framo,&&&&&,right,nonword,,,,,,,,0,27,27,115,,,,,,,,,,,,,,,,,,,,,LDT,left,0.8504389675799757,0,,,left,0,0.8504389675799757,,,,,,,,,,,,,,,,,,,,,,1022,2019_Mar_06_1501,mf_amp_cond2,3.0.4,60.04695141134329,
anything,&&&&&&&&,left,neutral,,,,,,,,0,28,28,60,,,,,,,,,,,,,,,,,,,,,LDT,right,0.8837722153402865,0,,,right,0,0.8837722153402865,,,,,,,,,,,,,,,,,,,,,,1022,2019_Mar_06_1501,mf_amp_cond2,3.0.4,60.04695141134329,
divility,&&&&&&&&,right,nonword,,,,,,,,0,29,29,121,,,,,,,,,,,,,,,,,,,,,LDT,right,2.7508940030820668,1,,,right,1,2.7508940030820668,,,,,,,,,,,,,,,,,,,,,,1022,2019_Mar_06_1501,mf_amp_cond2,3.0.4,60.04695141134329,
faith,&&&&&,left,sanctity.virtue,,,,,,,,0,30,30,169,,,,,,,,,,,,,,,,,,,,,LDT,right,0.5837130107684061,0,,,right,0,0.5837130107684061,,,,,,,,,,,,,,,,,,,,,,1022,2019_Mar_06_1501,mf_amp_cond2,3.0.4,60.04695141134329,
thru,&&&&,left,neutral,,,,,,,,0,31,31,90,,,,,,,,,,,,,,,,,,,,,LDT,left,1.6006344455527142,1,,,left,1,1.6006344455527142,,,,,,,,,,,,,,,,,,,,,,1022,2019_Mar_06_1501,mf_amp_cond2,3.0.4,60.04695141134329,
uller,&&&&&,right,nonword,,,,,,,,0,32,32,177,,,,,,,,,,,,,,,,,,,,,LDT,right,1.217194173950702,1,,,right,1,1.217194173950702,,,,,,,,,,,,,,,,,,,,,,1022,2019_Mar_06_1501,mf_amp_cond2,3.0.4,60.04695141134329,
therefore,&&&&&&&&&,left,neutral,,,,,,,,0,33,33,66,,,,,,,,,,,,,,,,,,,,,LDT,right,0.8004453498870134,0,,,right,0,0.8004453498870134,,,,,,,,,,,,,,,,,,,,,,1022,2019_Mar_06_1501,mf_amp_cond2,3.0.4,60.04695141134329,
lorthwhile,&&&&&&&&&&,right,nonword,,,,,,,,0,34,34,96,,,,,,,,,,,,,,,,,,,,,LDT,left,1.8840316766873002,0,,,left,0,1.8840316766873002,,,,,,,,,,,,,,,,,,,,,,1022,2019_Mar_06_1501,mf_amp_cond2,3.0.4,60.04695141134329,
tomedians,&&&&&&&&&,right,nonword,,,,,,,,0,35,35,20,,,,,,,,,,,,,,,,,,,,,LDT,left,1.400588775286451,0,,,left,0,1.400588775286451,,,,,,,,,,,,,,,,,,,,,,1022,2019_Mar_06_1501,mf_amp_cond2,3.0.4,60.04695141134329,
fangsters,&&&&&&&&&,right,nonword,,,,,,,,0,36,36,36,,,,,,,,,,,,,,,,,,,,,LDT,right,0.8504546827170998,1,,,right,1,0.8504546827170998,,,,,,,,,,,,,,,,,,,,,,1022,2019_Mar_06_1501,mf_amp_cond2,3.0.4,60.04695141134329,
hefurbished,&&&&&&&&&&&,right,nonword,,,,,,,,0,37,37,21,,,,,,,,,,,,,,,,,,,,,LDT,right,2.767578747589141,1,,,right,1,2.767578747589141,,,,,,,,,,,,,,,,,,,,,,1022,2019_Mar_06_1501,mf_amp_cond2,3.0.4,60.04695141134329,
powerful,&&&&&&&&,left,authority.virtue,,,,,,,,0,38,38,193,,,,,,,,,,,,,,,,,,,,,LDT,right,0.8171018711291254,0,,,right,0,0.8171018711291254,,,,,,,,,,,,,,,,,,,,,,1022,2019_Mar_06_1501,mf_amp_cond2,3.0.4,60.04695141134329,
there,&&&&&,left,neutral,,,,,,,,0,39,39,46,,,,,,,,,,,,,,,,,,,,,LDT,right,0.6837275071302429,0,,,right,0,0.6837275071302429,,,,,,,,,,,,,,,,,,,,,,1022,2019_Mar_06_1501,mf_amp_cond2,3.0.4,60.04695141134329,
troubla,&&&&&&&,right,nonword,,,,,,,,0,40,40,25,,,,,,,,,,,,,,,,,,,,,LDT,left,1.0171529937069863,0,,,left,0,1.0171529937069863,,,,,,,,,,,,,,,,,,,,,,1022,2019_Mar_06_1501,mf_amp_cond2,3.0.4,60.04695141134329,
godlaness,&&&&&&&&&,right,nonword,,,,,,,,0,41,41,87,,,,,,,,,,,,,,,,,,,,,LDT,right,1.1338666670490056,1,,,right,1,1.1338666670490056,,,,,,,,,,,,,,,,,,,,,,1022,2019_Mar_06_1501,mf_amp_cond2,3.0.4,60.04695141134329,
men,&&&,left,loyalty.vice,,,,,,,,0,42,42,112,,,,,,,,,,,,,,,,,,,,,LDT,right,0.6504224826348945,0,,,right,0,0.6504224826348945,,,,,,,,,,,,,,,,,,,,,,1022,2019_Mar_06_1501,mf_amp_cond2,3.0.4,60.04695141134329,
care,&&&&,left,care.virtue,,,,,,,,0,43,43,150,,,,,,,,,,,,,,,,,,,,,LDT,right,0.7504135665949434,0,,,right,0,0.7504135665949434,,,,,,,,,,,,,,,,,,,,,,1022,2019_Mar_06_1501,mf_amp_cond2,3.0.4,60.04695141134329,
disregord,&&&&&&&&&,right,nonword,,,,,,,,0,44,44,172,,,,,,,,,,,,,,,,,,,,,LDT,right,0.9004588841926306,1,,,right,1,0.9004588841926306,,,,,,,,,,,,,,,,,,,,,,1022,2019_Mar_06_1501,mf_amp_cond2,3.0.4,60.04695141134329,
terrorist,&&&&&&&&&,left,loyalty.vice,,,,,,,,0,45,45,75,,,,,,,,,,,,,,,,,,,,,LDT,right,0.633723626495339,0,,,right,0,0.633723626495339,,,,,,,,,,,,,,,,,,,,,,1022,2019_Mar_06_1501,mf_amp_cond2,3.0.4,60.04695141134329,
ebbitter,&&&&&&&&,right,nonword,,,,,,,,0,46,46,83,,,,,,,,,,,,,,,,,,,,,LDT,left,0.90045182837639,0,,,left,0,0.90045182837639,,,,,,,,,,,,,,,,,,,,,,1022,2019_Mar_06_1501,mf_amp_cond2,3.0.4,60.04695141134329,
chressing,&&&&&&&&&,None,nonword,,,,,,,,0,47,47,34,,,,,,,,,,,,,,,,,,,,,LDT,left,0.7504183774581179,0,,,left,0,0.7504183774581179,,,,,,,,,,,,,,,,,,,,,,1022,2019_Mar_06_1501,mf_amp_cond2,3.0.4,60.04695141134329,
unreflectuve,&&&&&&&&&&&&,right,nonword,,,,,,,,0,48,48,4,,,,,,,,,,,,,,,,,,,,,LDT,left,1.9673851619008929,0,,,left,0,1.9673851619008929,,,,,,,,,,,,,,,,,,,,,,1022,2019_Mar_06_1501,mf_amp_cond2,3.0.4,60.04695141134329,
unscothed,&&&&&&&&&,right,nonword,,,,,,,,0,49,49,10,,,,,,,,,,,,,,,,,,,,,LDT,left,4.117907067295164,0,,,left,0,4.117907067295164,,,,,,,,,,,,,,,,,,,,,,1022,2019_Mar_06_1501,mf_amp_cond2,3.0.4,60.04695141134329,
dumid,&&&&&,right,nonword,,,,,,,,0,50,50,106,,,,,,,,,,,,,,,,,,,,,LDT,left,0.9505243429448456,0,,,left,0,0.9505243429448456,,,,,,,,,,,,,,,,,,,,,,1022,2019_Mar_06_1501,mf_amp_cond2,3.0.4,60.04695141134329,
love,&&&&,left,loyalty.virtue,,,,,,,,0,51,51,128,,,,,,,,,,,,,,,,,,,,,LDT,right,0.5503916294546798,0,,,right,0,0.5503916294546798,,,,,,,,,,,,,,,,,,,,,,1022,2019_Mar_06_1501,mf_amp_cond2,3.0.4,60.04695141134329,
with,&&&&,left,neutral,,,,,,,,0,52,52,138,,,,,,,,,,,,,,,,,,,,,LDT,right,0.667041800566949,0,,,right,0,0.667041800566949,,,,,,,,,,,,,,,,,,,,,,1022,2019_Mar_06_1501,mf_amp_cond2,3.0.4,60.04695141134329,
proached,&&&&&&&&,right,nonword,,,,,,,,0,53,53,152,,,,,,,,,,,,,,,,,,,,,LDT,right,0.9838056343141943,1,,,right,1,0.9838056343141943,,,,,,,,,,,,,,,,,,,,,,1022,2019_Mar_06_1501,mf_amp_cond2,3.0.4,60.04695141134329,
nonobservalt,&&&&&&&&&&&&,right,nonword,,,,,,,,0,54,54,123,,,,,,,,,,,,,,,,,,,,,LDT,left,1.600629634805955,0,,,left,0,1.600629634805955,,,,,,,,,,,,,,,,,,,,,,1022,2019_Mar_06_1501,mf_amp_cond2,3.0.4,60.04695141134329,
towards,&&&&&&&,left,neutral,,,,,,,,0,55,55,92,,,,,,,,,,,,,,,,,,,,,LDT,right,1.1838573982240632,0,,,right,0,1.1838573982240632,,,,,,,,,,,,,,,,,,,,,,1022,2019_Mar_06_1501,mf_amp_cond2,3.0.4,60.04695141134329,
integrity,&&&&&&&&&,left,fairness.virtue,,,,,,,,0,56,56,53,,,,,,,,,,,,,,,,,,,,,LDT,right,0.7003994229016826,0,,,right,0,0.7003994229016826,,,,,,,,,,,,,,,,,,,,,,1022,2019_Mar_06_1501,mf_amp_cond2,3.0.4,60.04695141134329,
least,&&&&&,left,neutral,,,,,,,,0,57,57,61,,,,,,,,,,,,,,,,,,,,,LDT,right,1.2505389676662162,0,,,right,0,1.2505389676662162,,,,,,,,,,,,,,,,,,,,,,1022,2019_Mar_06_1501,mf_amp_cond2,3.0.4,60.04695141134329,
brudent,&&&&&&&,right,nonword,,,,,,,,0,58,58,51,,,,,,,,,,,,,,,,,,,,,LDT,right,1.9007007059408352,1,,,right,1,1.9007007059408352,,,,,,,,,,,,,,,,,,,,,,1022,2019_Mar_06_1501,mf_amp_cond2,3.0.4,60.04695141134329,
mecan,&&&&&,right,nonword,,,,,,,,0,59,59,183,,,,,,,,,,,,,,,,,,,,,LDT,right,0.8337292070500553,1,,,right,1,0.8337292070500553,,,,,,,,,,,,,,,,,,,,,,1022,2019_Mar_06_1501,mf_amp_cond2,3.0.4,60.04695141134329,
aubos,&&&&&,right,nonword,,,,,,,,0,60,60,163,,,,,,,,,,,,,,,,,,,,,LDT,left,1.0338229851331562,0,,,left,0,1.0338229851331562,,,,,,,,,,,,,,,,,,,,,,1022,2019_Mar_06_1501,mf_amp_cond2,3.0.4,60.04695141134329,
somehow,&&&&&&&,left,neutral,,,,,,,,0,61,61,146,,,,,,,,,,,,,,,,,,,,,LDT,right,0.6503756577149034,0,,,right,0,0.6503756577149034,,,,,,,,,,,,,,,,,,,,,,1022,2019_Mar_06_1501,mf_amp_cond2,3.0.4,60.04695141134329,
hope,&&&&,left,loyalty.virtue,,,,,,,,0,62,62,110,,,,,,,,,,,,,,,,,,,,,LDT,right,0.650408691726625,0,,,right,0,0.650408691726625,,,,,,,,,,,,,,,,,,,,,,1022,2019_Mar_06_1501,mf_amp_cond2,3.0.4,60.04695141134329,
blunderints,&&&&&&&&&&&,right,nonword,,,,,,,,0,63,63,141,,,,,,,,,,,,,,,,,,,,,LDT,left,1.200530917616561,0,,,left,0,1.200530917616561,,,,,,,,,,,,,,,,,,,,,,1022,2019_Mar_06_1501,mf_amp_cond2,3.0.4,60.04695141134329,
gournful,&&&&&&&&,right,nonword,,,,,,,,0,64,64,9,,,,,,,,,,,,,,,,,,,,,LDT,right,0.6837364872917533,1,,,right,1,0.6837364872917533,,,,,,,,,,,,,,,,,,,,,,1022,2019_Mar_06_1501,mf_amp_cond2,3.0.4,60.04695141134329,
groups,&&&&&&,left,loyalty.vice,,,,,,,,0,65,65,6,,,,,,,,,,,,,,,,,,,,,LDT,left,1.3172176504740492,1,,,left,1,1.3172176504740492,,,,,,,,,,,,,,,,,,,,,,1022,2019_Mar_06_1501,mf_amp_cond2,3.0.4,60.04695141134329,
openet,&&&&&&,None,nonword,,,,,,,,0,66,66,195,,,,,,,,,,,,,,,,,,,,,LDT,left,1.0171571630053222,0,,,left,0,1.0171571630053222,,,,,,,,,,,,,,,,,,,,,,1022,2019_Mar_06_1501,mf_amp_cond2,3.0.4,60.04695141134329,
framatic,&&&&&&&&,right,nonword,,,,,,,,0,67,67,107,,,,,,,,,,,,,,,,,,,,,LDT,left,2.5175134814344347,0,,,left,0,2.5175134814344347,,,,,,,,,,,,,,,,,,,,,,1022,2019_Mar_06_1501,mf_amp_cond2,3.0.4,60.04695141134329,
metibolic,&&&&&&&&&,right,nonword,,,,,,,,0,68,68,114,,,,,,,,,,,,,,,,,,,,,LDT,left,3.0343194574816152,0,,,left,0,3.0343194574816152,,,,,,,,,,,,,,,,,,,,,,1022,2019_Mar_06_1501,mf_amp_cond2,3.0.4,60.04695141134329,
gillipede,&&&&&&&&&,None,nonword,,,,,,,,0,69,69,140,,,,,,,,,,,,,,,,,,,,,LDT,left,1.750663406564854,0,,,left,0,1.750663406564854,,,,,,,,,,,,,,,,,,,,,,1022,2019_Mar_06_1501,mf_amp_cond2,3.0.4,60.04695141134329,
thabbily,&&&&&&&&,right,nonword,,,,,,,,0,70,70,86,,,,,,,,,,,,,,,,,,,,,LDT,left,1.0004929444985464,0,,,left,0,1.0004929444985464,,,,,,,,,,,,,,,,,,,,,,1022,2019_Mar_06_1501,mf_amp_cond2,3.0.4,60.04695141134329,
arrests,&&&&&&&,left,authority.vice,,,,,,,,0,71,71,166,,,,,,,,,,,,,,,,,,,,,LDT,right,0.5837210286408663,0,,,right,0,0.5837210286408663,,,,,,,,,,,,,,,,,,,,,,1022,2019_Mar_06_1501,mf_amp_cond2,3.0.4,60.04695141134329,
drug,&&&&,left,sanctity.vice,,,,,,,,0,72,72,103,,,,,,,,,,,,,,,,,,,,,LDT,right,0.6004025660222396,0,,,right,0,0.6004025660222396,,,,,,,,,,,,,,,,,,,,,,1022,2019_Mar_06_1501,mf_amp_cond2,3.0.4,60.04695141134329,
front,&&&&&,left,neutral,,,,,,,,0,73,73,165,,,,,,,,,,,,,,,,,,,,,LDT,right,0.71708673320245,0,,,right,0,0.71708673320245,,,,,,,,,,,,,,,,,,,,,,1022,2019_Mar_06_1501,mf_amp_cond2,3.0.4,60.04695141134329,
imebreaker,&&&&&&&&&&,right,nonword,,,,,,,,0,74,74,7,,,,,,,,,,,,,,,,,,,,,LDT,right,1.0171369577292353,1,,,right,1,1.0171369577292353,,,,,,,,,,,,,,,,,,,,,,1022,2019_Mar_06_1501,mf_amp_cond2,3.0.4,60.04695141134329,
either,&&&&&&,left,neutral,,,,,,,,0,75,75,171,,,,,,,,,,,,,,,,,,,,,LDT,right,0.7504196602385491,0,,,right,0,0.7504196602385491,,,,,,,,,,,,,,,,,,,,,,1022,2019_Mar_06_1501,mf_amp_cond2,3.0.4,60.04695141134329,
credit,&&&&&&,left,fairness.virtue,,,,,,,,0,76,76,109,,,,,,,,,,,,,,,,,,,,,LDT,right,0.8837831197306514,0,,,right,0,0.8837831197306514,,,,,,,,,,,,,,,,,,,,,,1022,2019_Mar_06_1501,mf_amp_cond2,3.0.4,60.04695141134329,
good,&&&&,left,care.virtue,,,,,,,,0,77,77,70,,,,,,,,,,,,,,,,,,,,,LDT,right,0.6670854182448238,0,,,right,0,0.6670854182448238,,,,,,,,,,,,,,,,,,,,,,1022,2019_Mar_06_1501,mf_amp_cond2,3.0.4,60.04695141134329,
fegard,&&&&&&,right,nonword,,,,,,,,0,78,78,55,,,,,,,,,,,,,,,,,,,,,LDT,left,1.6006245033349842,0,,,left,0,1.6006245033349842,,,,,,,,,,,,,,,,,,,,,,1022,2019_Mar_06_1501,mf_amp_cond2,3.0.4,60.04695141134329,
elduringly,&&&&&&&&&&,right,nonword,,,,,,,,0,79,79,158,,,,,,,,,,,,,,,,,,,,,LDT,left,0.71708673320245,0,,,left,0,0.71708673320245,,,,,,,,,,,,,,,,,,,,,,1022,2019_Mar_06_1501,mf_amp_cond2,3.0.4,60.04695141134329,
were,&&&&,left,neutral,,,,,,,,0,80,80,100,,,,,,,,,,,,,,,,,,,,,LDT,right,0.6337310030357912,0,,,right,0,0.6337310030357912,,,,,,,,,,,,,,,,,,,,,,1022,2019_Mar_06_1501,mf_amp_cond2,3.0.4,60.04695141134329,
crime,&&&&&,left,fairness.vice,,,,,,,,0,81,81,167,,,,,,,,,,,,,,,,,,,,,LDT,right,0.5503707828465849,0,,,right,0,0.5503707828465849,,,,,,,,,,,,,,,,,,,,,,1022,2019_Mar_06_1501,mf_amp_cond2,3.0.4,60.04695141134329,
gandbrake,&&&&&&&&&,right,nonword,,,,,,,,0,82,82,185,,,,,,,,,,,,,,,,,,,,,LDT,left,0.8671102419029921,0,,,left,0,0.8671102419029921,,,,,,,,,,,,,,,,,,,,,,1022,2019_Mar_06_1501,mf_amp_cond2,3.0.4,60.04695141134329,
sowntrodden,&&&&&&&&&&&,right,nonword,,,,,,,,0,83,83,49,,,,,,,,,,,,,,,,,,,,,LDT,right,0.9171272721141577,1,,,right,1,0.9171272721141577,,,,,,,,,,,,,,,,,,,,,,1022,2019_Mar_06_1501,mf_amp_cond2,3.0.4,60.04695141134329,
been,&&&&,left,neutral,,,,,,,,0,84,84,131,,,,,,,,,,,,,,,,,,,,,LDT,right,0.6670443662442267,0,,,right,0,0.6670443662442267,,,,,,,,,,,,,,,,,,,,,,1022,2019_Mar_06_1501,mf_amp_cond2,3.0.4,60.04695141134329,
failure,&&&&&&&,left,loyalty.vice,,,,,,,,0,85,85,74,,,,,,,,,,,,,,,,,,,,,LDT,right,0.6670642509125173,0,,,right,0,0.6670642509125173,,,,,,,,,,,,,,,,,,,,,,1022,2019_Mar_06_1501,mf_amp_cond2,3.0.4,60.04695141134329,
rebels,&&&&&&,left,authority.vice,,,,,,,,0,86,86,179,,,,,,,,,,,,,,,,,,,,,LDT,right,0.7170806395588443,0,,,right,0,0.7170806395588443,,,,,,,,,,,,,,,,,,,,,,1022,2019_Mar_06_1501,mf_amp_cond2,3.0.4,60.04695141134329,
pullness,&&&&&&&&,right,nonword,,,,,,,,0,87,87,186,,,,,,,,,,,,,,,,,,,,,LDT,left,1.0838489953894168,0,,,left,0,1.0838489953894168,,,,,,,,,,,,,,,,,,,,,,1022,2019_Mar_06_1501,mf_amp_cond2,3.0.4,60.04695141134329,
although,&&&&&&&&,left,neutral,,,,,,,,0,88,88,124,,,,,,,,,,,,,,,,,,,,,LDT,right,0.6837146783946082,0,,,right,0,0.6837146783946082,,,,,,,,,,,,,,,,,,,,,,1022,2019_Mar_06_1501,mf_amp_cond2,3.0.4,60.04695141134329,
give,&&&&,left,neutral,,,,,,,,0,89,89,30,,,,,,,,,,,,,,,,,,,,,LDT,right,2.167458734824322,0,,,right,0,2.167458734824322,,,,,,,,,,,,,,,,,,,,,,1022,2019_Mar_06_1501,mf_amp_cond2,3.0.4,60.04695141134329,
crinking,&&&&&&&&,right,nonword,,,,,,,,0,90,90,122,,,,,,,,,,,,,,,,,,,,,LDT,right,0.8004488777369261,1,,,right,1,0.8004488777369261,,,,,,,,,,,,,,,,,,,,,,1022,2019_Mar_06_1501,mf_amp_cond2,3.0.4,60.04695141134329,
suicide,&&&&&&&,left,care.vice,,,,,,,,0,91,91,31,,,,,,,,,,,,,,,,,,,,,LDT,right,0.6670741931302473,0,,,right,0,0.6670741931302473,,,,,,,,,,,,,,,,,,,,,,1022,2019_Mar_06_1501,mf_amp_cond2,3.0.4,60.04695141134329,
hasks,&&&&&,right,nonword,,,,,,,,0,92,92,95,,,,,,,,,,,,,,,,,,,,,LDT,left,1.7840271225431934,0,,,left,0,1.7840271225431934,,,,,,,,,,,,,,,,,,,,,,1022,2019_Mar_06_1501,mf_amp_cond2,3.0.4,60.04695141134329,
fostet,&&&&&&,right,nonword,,,,,,,,0,93,93,26,,,,,,,,,,,,,,,,,,,,,LDT,right,1.6339596754405648,1,,,right,1,1.6339596754405648,,,,,,,,,,,,,,,,,,,,,,1022,2019_Mar_06_1501,mf_amp_cond2,3.0.4,60.04695141134329,
thadowed,&&&&&&&&,right,nonword,,,,,,,,0,94,94,45,,,,,,,,,,,,,,,,,,,,,LDT,right,0.6504192753927782,1,,,right,1,0.6504192753927782,,,,,,,,,,,,,,,,,,,,,,1022,2019_Mar_06_1501,mf_amp_cond2,3.0.4,60.04695141134329,
about,&&&&&,left,neutral,,,,,,,,0,95,95,2,,,,,,,,,,,,,,,,,,,,,LDT,right,0.8504277424653992,0,,,right,0,0.8504277424653992,,,,,,,,,,,,,,,,,,,,,,1022,2019_Mar_06_1501,mf_amp_cond2,3.0.4,60.04695141134329,
gazily,&&&&&&,right,nonword,,,,,,,,0,96,96,164,,,,,,,,,,,,,,,,,,,,,LDT,left,0.8837959485827014,0,,,left,0,0.8837959485827014,,,,,,,,,,,,,,,,,,,,,,1022,2019_Mar_06_1501,mf_amp_cond2,3.0.4,60.04695141134329,
torture,&&&&&&&,left,care.vice,,,,,,,,0,97,97,168,,,,,,,,,,,,,,,,,,,,,LDT,right,0.7671916402177885,0,,,right,0,0.7671916402177885,,,,,,,,,,,,,,,,,,,,,,1022,2019_Mar_06_1501,mf_amp_cond2,3.0.4,60.04695141134329,
values,&&&&&&,left,sanctity.virtue,,,,,,,,0,98,98,89,,,,,,,,,,,,,,,,,,,,,LDT,right,0.950467575690709,0,,,right,0,0.950467575690709,,,,,,,,,,,,,,,,,,,,,,1022,2019_Mar_06_1501,mf_amp_cond2,3.0.4,60.04695141134329,
praise,&&&&&&,left,authority.virtue,,,,,,,,0,99,99,135,,,,,,,,,,,,,,,,,,,,,LDT,right,1.1171963548986241,0,,,right,0,1.1171963548986241,,,,,,,,,,,,,,,,,,,,,,1022,2019_Mar_06_1501,mf_amp_cond2,3.0.4,60.04695141134329,
drumbled,&&&&&&&&,right,nonword,,,,,,,,0,100,100,41,,,,,,,,,,,,,,,,,,,,,LDT,left,0.9004454140085727,0,,,left,0,0.9004454140085727,,,,,,,,,,,,,,,,,,,,,,1022,2019_Mar_06_1501,mf_amp_cond2,3.0.4,60.04695141134329,
officers,&&&&&&&&,left,authority.vice,,,,,,,,0,101,101,197,,,,,,,,,,,,,,,,,,,,,LDT,right,0.8837946656858549,0,,,right,0,0.8837946656858549,,,,,,,,,,,,,,,,,,,,,,1022,2019_Mar_06_1501,mf_amp_cond2,3.0.4,60.04695141134329,
tenuflect,&&&&&&&&&,right,nonword,,,,,,,,0,102,102,39,,,,,,,,,,,,,,,,,,,,,LDT,right,2.350811321870424,1,,,right,1,2.350811321870424,,,,,,,,,,,,,,,,,,,,,,1022,2019_Mar_06_1501,mf_amp_cond2,3.0.4,60.04695141134329,
noone,&&&&&,left,neutral,,,,,,,,0,103,103,139,,,,,,,,,,,,,,,,,,,,,LDT,right,0.9504707828164101,0,,,right,0,0.9504707828164101,,,,,,,,,,,,,,,,,,,,,,1022,2019_Mar_06_1501,mf_amp_cond2,3.0.4,60.04695141134329,
wonderfujnoss,&&&&&&&&&&&&&,right,nonword,,,,,,,,0,104,104,37,,,,,,,,,,,,,,,,,,,,,LDT,left,2.2174574839882553,0,,,left,0,2.2174574839882553,,,,,,,,,,,,,,,,,,,,,,1022,2019_Mar_06_1501,mf_amp_cond2,3.0.4,60.04695141134329,
nuckheap,&&&&&&&&,right,nonword,,,,,,,,0,105,105,188,,,,,,,,,,,,,,,,,,,,,LDT,left,0.9671353221638128,0,,,left,0,0.9671353221638128,,,,,,,,,,,,,,,,,,,,,,1022,2019_Mar_06_1501,mf_amp_cond2,3.0.4,60.04695141134329,
fifteen,&&&&&&&,left,neutral,,,,,,,,0,106,106,69,,,,,,,,,,,,,,,,,,,,,LDT,right,0.9837995405541733,0,,,right,0,0.9837995405541733,,,,,,,,,,,,,,,,,,,,,,1022,2019_Mar_06_1501,mf_amp_cond2,3.0.4,60.04695141134329,
supervuned,&&&&&&&&&&,right,nonword,,,,,,,,0,107,107,173,,,,,,,,,,,,,,,,,,,,,LDT,left,1.1838548325467855,0,,,left,0,1.1838548325467855,,,,,,,,,,,,,,,,,,,,,,1022,2019_Mar_06_1501,mf_amp_cond2,3.0.4,60.04695141134329,
nomaric,&&&&&&&,None,nonword,,,,,,,,0,108,108,40,,,,,,,,,,,,,,,,,,,,,LDT,left,1.1838663783855736,0,,,left,0,1.1838663783855736,,,,,,,,,,,,,,,,,,,,,,1022,2019_Mar_06_1501,mf_amp_cond2,3.0.4,60.04695141134329,
menizen,&&&&&&&,None,nonword,,,,,,,,0,109,109,105,,,,,,,,,,,,,,,,,,,,,LDT,right,0.7670915760099888,0,,,right,0,0.7670915760099888,,,,,,,,,,,,,,,,,,,,,,1022,2019_Mar_06_1501,mf_amp_cond2,3.0.4,60.04695141134329,
Lacedonia,&&&&&&&&&,right,nonword,,,,,,,,0,110,110,82,,,,,,,,,,,,,,,,,,,,,LDT,left,2.1174247064627707,0,,,left,0,2.1174247064627707,,,,,,,,,,,,,,,,,,,,,,1022,2019_Mar_06_1501,mf_amp_cond2,3.0.4,60.04695141134329,
opportunity,&&&&&&&&&&&,left,fairness.virtue,,,,,,,,0,111,111,28,,,,,,,,,,,,,,,,,,,,,LDT,right,1.4339335690019652,0,,,right,0,1.4339335690019652,,,,,,,,,,,,,,,,,,,,,,1022,2019_Mar_06_1501,mf_amp_cond2,3.0.4,60.04695141134329,
egpeditious,&&&&&&&&&&&,right,nonword,,,,,,,,0,112,112,67,,,,,,,,,,,,,,,,,,,,,LDT,left,1.5506145289400592,0,,,left,0,1.5506145289400592,,,,,,,,,,,,,,,,,,,,,,1022,2019_Mar_06_1501,mf_amp_cond2,3.0.4,60.04695141134329,
baklara,&&&&&&&,right,nonword,,,,,,,,0,113,113,62,,,,,,,,,,,,,,,,,,,,,LDT,left,0.750430885469541,0,,,left,0,0.750430885469541,,,,,,,,,,,,,,,,,,,,,,1022,2019_Mar_06_1501,mf_amp_cond2,3.0.4,60.04695141134329,
anyhow,&&&&&&,left,neutral,,,,,,,,0,114,114,97,,,,,,,,,,,,,,,,,,,,,LDT,right,0.9337844346882775,0,,,right,0,0.9337844346882775,,,,,,,,,,,,,,,,,,,,,,1022,2019_Mar_06_1501,mf_amp_cond2,3.0.4,60.04695141134329,
couldnt,&&&&&&&,left,neutral,,,,,,,,0,115,115,22,,,,,,,,,,,,,,,,,,,,,LDT,right,0.6337387003004551,0,,,right,0,0.6337387003004551,,,,,,,,,,,,,,,,,,,,,,1022,2019_Mar_06_1501,mf_amp_cond2,3.0.4,60.04695141134329,
tislay,&&&&&&,right,nonword,,,,,,,,0,116,116,155,,,,,,,,,,,,,,,,,,,,,LDT,left,1.2838273148518056,0,,,left,0,1.2838273148518056,,,,,,,,,,,,,,,,,,,,,,1022,2019_Mar_06_1501,mf_amp_cond2,3.0.4,60.04695141134329,
nomparisons,&&&&&&&&&&&,right,nonword,,,,,,,,0,117,117,157,,,,,,,,,,,,,,,,,,,,,LDT,left,5.101496216491796,0,,,left,0,5.101496216491796,,,,,,,,,,,,,,,,,,,,,,1022,2019_Mar_06_1501,mf_amp_cond2,3.0.4,60.04695141134329,
pistraught,&&&&&&&&&&,right,nonword,,,,,,,,0,118,118,104,,,,,,,,,,,,,,,,,,,,,LDT,left,0.7671101777814329,0,,,left,0,0.7671101777814329,,,,,,,,,,,,,,,,,,,,,,1022,2019_Mar_06_1501,mf_amp_cond2,3.0.4,60.04695141134329,
eight,&&&&&,left,neutral,,,,,,,,0,119,119,101,,,,,,,,,,,,,,,,,,,,,LDT,right,0.600373059976846,0,,,right,0,0.600373059976846,,,,,,,,,,,,,,,,,,,,,,1022,2019_Mar_06_1501,mf_amp_cond2,3.0.4,60.04695141134329,
seem,&&&&,left,neutral,,,,,,,,0,120,120,134,,,,,,,,,,,,,,,,,,,,,LDT,right,0.5670375670306385,0,,,right,0,0.5670375670306385,,,,,,,,,,,,,,,,,,,,,,1022,2019_Mar_06_1501,mf_amp_cond2,3.0.4,60.04695141134329,
police,&&&&&&,left,authority.vice,,,,,,,,0,121,121,35,,,,,,,,,,,,,,,,,,,,,LDT,right,0.8004610650241375,0,,,right,0,0.8004610650241375,,,,,,,,,,,,,,,,,,,,,,1022,2019_Mar_06_1501,mf_amp_cond2,3.0.4,60.04695141134329,
accused,&&&&&&&,left,fairness.vice,,,,,,,,0,122,122,153,,,,,,,,,,,,,,,,,,,,,LDT,right,0.6837368080159649,0,,,right,0,0.6837368080159649,,,,,,,,,,,,,,,,,,,,,,1022,2019_Mar_06_1501,mf_amp_cond2,3.0.4,60.04695141134329,
itself,&&&&&&,left,neutral,,,,,,,,0,123,123,162,,,,,,,,,,,,,,,,,,,,,LDT,right,0.8004475948400795,0,,,right,0,0.8004475948400795,,,,,,,,,,,,,,,,,,,,,,1022,2019_Mar_06_1501,mf_amp_cond2,3.0.4,60.04695141134329,
ning,&&&&,right,nonword,,,,,,,,0,124,124,136,,,,,,,,,,,,,,,,,,,,,LDT,right,1.8340075907763094,1,,,right,1,1.8340075907763094,,,,,,,,,,,,,,,,,,,,,,1022,2019_Mar_06_1501,mf_amp_cond2,3.0.4,60.04695141134329,
asn,&&&,right,nonword,,,,,,,,0,125,125,118,,,,,,,,,,,,,,,,,,,,,LDT,left,0.9005085956305265,0,,,left,0,0.9005085956305265,,,,,,,,,,,,,,,,,,,,,,1022,2019_Mar_06_1501,mf_amp_cond2,3.0.4,60.04695141134329,
reelectiob,&&&&&&&&&&,right,nonword,,,,,,,,0,126,126,17,,,,,,,,,,,,,,,,,,,,,LDT,left,0.8504424954298884,0,,,left,0,0.8504424954298884,,,,,,,,,,,,,,,,,,,,,,1022,2019_Mar_06_1501,mf_amp_cond2,3.0.4,60.04695141134329,
shoirmaster,&&&&&&&&&&&,None,nonword,,,,,,,,0,127,127,111,,,,,,,,,,,,,,,,,,,,,LDT,left,0.9672122945776209,0,,,left,0,0.9672122945776209,,,,,,,,,,,,,,,,,,,,,,1022,2019_Mar_06_1501,mf_amp_cond2,3.0.4,60.04695141134329,
myself,&&&&&&,left,neutral,,,,,,,,0,128,128,144,,,,,,,,,,,,,,,,,,,,,LDT,right,1.2172422817675397,0,,,right,0,1.2172422817675397,,,,,,,,,,,,,,,,,,,,,,1022,2019_Mar_06_1501,mf_amp_cond2,3.0.4,60.04695141134329,
greaks,&&&&&&,right,nonword,,,,,,,,0,129,129,99,,,,,,,,,,,,,,,,,,,,,LDT,left,1.150535375578329,0,,,left,0,1.150535375578329,,,,,,,,,,,,,,,,,,,,,,1022,2019_Mar_06_1501,mf_amp_cond2,3.0.4,60.04695141134329,
latterly,&&&&&&&&,left,neutral,,,,,,,,0,130,130,133,,,,,,,,,,,,,,,,,,,,,LDT,right,1.3838928056648,0,,,right,0,1.3838928056648,,,,,,,,,,,,,,,,,,,,,,1022,2019_Mar_06_1501,mf_amp_cond2,3.0.4,60.04695141134329,
injured,&&&&&&&,left,care.vice,,,,,,,,0,131,131,58,,,,,,,,,,,,,,,,,,,,,LDT,right,0.7504212639760226,0,,,right,0,0.7504212639760226,,,,,,,,,,,,,,,,,,,,,,1022,2019_Mar_06_1501,mf_amp_cond2,3.0.4,60.04695141134329,
totalestic,&&&&&&&&&&,None,nonword,,,,,,,,0,132,132,65,,,,,,,,,,,,,,,,,,,,,LDT,right,2.3675268554361537,0,,,right,0,2.3675268554361537,,,,,,,,,,,,,,,,,,,,,,1022,2019_Mar_06_1501,mf_amp_cond2,3.0.4,60.04695141134329,
crilfully,&&&&&&&&&,right,nonword,,,,,,,,0,133,133,43,,,,,,,,,,,,,,,,,,,,,LDT,right,0.8337731455685571,1,,,right,1,0.8337731455685571,,,,,,,,,,,,,,,,,,,,,,1022,2019_Mar_06_1501,mf_amp_cond2,3.0.4,60.04695141134329,
lenon,&&&&&,right,nonword,,,,,,,,0,134,134,71,,,,,,,,,,,,,,,,,,,,,LDT,left,0.8837946656858549,0,,,left,0,0.8837946656858549,,,,,,,,,,,,,,,,,,,,,,1022,2019_Mar_06_1501,mf_amp_cond2,3.0.4,60.04695141134329,
Boeinf,&&&&&&,right,nonword,,,,,,,,0,135,135,198,,,,,,,,,,,,,,,,,,,,,LDT,right,1.0171510693617165,1,,,right,1,1.0171510693617165,,,,,,,,,,,,,,,,,,,,,,1022,2019_Mar_06_1501,mf_amp_cond2,3.0.4,60.04695141134329,
dramens,&&&&&&&,right,nonword,,,,,,,,0,136,136,170,,,,,,,,,,,,,,,,,,,,,LDT,right,2.450835119234398,1,,,right,1,2.450835119234398,,,,,,,,,,,,,,,,,,,,,,1022,2019_Mar_06_1501,mf_amp_cond2,3.0.4,60.04695141134329,
trust,&&&&&,left,authority.virtue,,,,,,,,0,137,137,13,,,,,,,,,,,,,,,,,,,,,LDT,right,1.0171529937069863,0,,,right,0,1.0171529937069863,,,,,,,,,,,,,,,,,,,,,,1022,2019_Mar_06_1501,mf_amp_cond2,3.0.4,60.04695141134329,
toward,&&&&&&,left,neutral,,,,,,,,0,138,138,54,,,,,,,,,,,,,,,,,,,,,LDT,right,0.6504067673813552,0,,,right,0,0.6504067673813552,,,,,,,,,,,,,,,,,,,,,,1022,2019_Mar_06_1501,mf_amp_cond2,3.0.4,60.04695141134329,
sharing,&&&&&&&,left,loyalty.virtue,,,,,,,,0,139,139,18,,,,,,,,,,,,,,,,,,,,,LDT,right,0.8337734661763534,0,,,right,0,0.8337734661763534,,,,,,,,,,,,,,,,,,,,,,1022,2019_Mar_06_1501,mf_amp_cond2,3.0.4,60.04695141134329,
whither,&&&&&&&,left,neutral,,,,,,,,0,140,140,77,,,,,,,,,,,,,,,,,,,,,LDT,left,1.1505203017732129,1,,,left,1,1.1505203017732129,,,,,,,,,,,,,,,,,,,,,,1022,2019_Mar_06_1501,mf_amp_cond2,3.0.4,60.04695141134329,
stindig,&&&&&&&,right,nonword,,,,,,,,0,141,141,48,,,,,,,,,,,,,,,,,,,,,LDT,right,1.0504833549493924,1,,,right,1,1.0504833549493924,,,,,,,,,,,,,,,,,,,,,,1022,2019_Mar_06_1501,mf_amp_cond2,3.0.4,60.04695141134329,
could,&&&&&,left,neutral,,,,,,,,0,142,142,187,,,,,,,,,,,,,,,,,,,,,LDT,left,1.16720953641925,1,,,left,1,1.16720953641925,,,,,,,,,,,,,,,,,,,,,,1022,2019_Mar_06_1501,mf_amp_cond2,3.0.4,60.04695141134329,
also,&&&&,left,neutral,,,,,,,,0,143,143,192,,,,,,,,,,,,,,,,,,,,,LDT,right,1.5005862736143172,0,,,right,0,1.5005862736143172,,,,,,,,,,,,,,,,,,,,,,1022,2019_Mar_06_1501,mf_amp_cond2,3.0.4,60.04695141134329,
Daptist,&&&&&&&,right,nonword,,,,,,,,0,144,144,23,,,,,,,,,,,,,,,,,,,,,LDT,right,1.1005032716784626,1,,,right,1,1.1005032716784626,,,,,,,,,,,,,,,,,,,,,,1022,2019_Mar_06_1501,mf_amp_cond2,3.0.4,60.04695141134329,
less,&&&&,left,neutral,,,,,,,,0,145,145,44,,,,,,,,,,,,,,,,,,,,,LDT,right,1.1004888393217698,0,,,right,0,1.1004888393217698,,,,,,,,,,,,,,,,,,,,,,1022,2019_Mar_06_1501,mf_amp_cond2,3.0.4,60.04695141134329,
pumber,&&&&&&,None,nonword,,,,,,,,0,146,146,91,,,,,,,,,,,,,,,,,,,,,LDT,right,1.5505891921930015,0,,,right,0,1.5505891921930015,,,,,,,,,,,,,,,,,,,,,,1022,2019_Mar_06_1501,mf_amp_cond2,3.0.4,60.04695141134329,
quarterbocks,&&&&&&&&&&&&,right,nonword,,,,,,,,0,147,147,190,,,,,,,,,,,,,,,,,,,,,LDT,left,0.867111204075627,0,,,left,0,0.867111204075627,,,,,,,,,,,,,,,,,,,,,,1022,2019_Mar_06_1501,mf_amp_cond2,3.0.4,60.04695141134329,
ban,&&&,left,loyalty.vice,,,,,,,,0,148,148,79,,,,,,,,,,,,,,,,,,,,,LDT,left,5.86837868404109,1,,,left,1,5.86837868404109,,,,,,,,,,,,,,,,,,,,,,1022,2019_Mar_06_1501,mf_amp_cond2,3.0.4,60.04695141134329,
sliptery,&&&&&&&&,right,nonword,,,,,,,,0,149,149,93,,,,,,,,,,,,,,,,,,,,,LDT,right,0.9004543940536678,1,,,right,1,0.9004543940536678,,,,,,,,,,,,,,,,,,,,,,1022,2019_Mar_06_1501,mf_amp_cond2,3.0.4,60.04695141134329,
counpy's,&&&&&&&&,right,nonword,,,,,,,,0,150,150,147,,,,,,,,,,,,,,,,,,,,,LDT,right,0.7671137056313455,1,,,right,1,0.7671137056313455,,,,,,,,,,,,,,,,,,,,,,1022,2019_Mar_06_1501,mf_amp_cond2,3.0.4,60.04695141134329,
scandal,&&&&&&&,left,sanctity.vice,,,,,,,,0,151,151,32,,,,,,,,,,,,,,,,,,,,,LDT,right,0.8171018711291254,0,,,right,0,0.8171018711291254,,,,,,,,,,,,,,,,,,,,,,1022,2019_Mar_06_1501,mf_amp_cond2,3.0.4,60.04695141134329,
oam,&&&,right,nonword,,,,,,,,0,152,152,3,,,,,,,,,,,,,,,,,,,,,LDT,left,0.9337943770224229,0,,,left,0,0.9337943770224229,,,,,,,,,,,,,,,,,,,,,,1022,2019_Mar_06_1501,mf_amp_cond2,3.0.4,60.04695141134329,
death,&&&&&,left,care.vice,,,,,,,,0,153,153,184,,,,,,,,,,,,,,,,,,,,,LDT,right,0.683729110751301,0,,,right,0,0.683729110751301,,,,,,,,,,,,,,,,,,,,,,1022,2019_Mar_06_1501,mf_amp_cond2,3.0.4,60.04695141134329,
chonograph,&&&&&&&&&&,right,nonword,,,,,,,,0,154,154,14,,,,,,,,,,,,,,,,,,,,,LDT,right,1.0671629681019112,1,,,right,1,1.0671629681019112,,,,,,,,,,,,,,,,,,,,,,1022,2019_Mar_06_1501,mf_amp_cond2,3.0.4,60.04695141134329,
mightingale,&&&&&&&&&&&,right,nonword,,,,,,,,0,155,155,64,,,,,,,,,,,,,,,,,,,,,LDT,left,1.7340046401368454,0,,,left,0,1.7340046401368454,,,,,,,,,,,,,,,,,,,,,,1022,2019_Mar_06_1501,mf_amp_cond2,3.0.4,60.04695141134329,
done,&&&&,left,neutral,,,,,,,,0,156,156,0,,,,,,,,,,,,,,,,,,,,,LDT,right,0.7504219054244459,0,,,right,0,0.7504219054244459,,,,,,,,,,,,,,,,,,,,,,1022,2019_Mar_06_1501,mf_amp_cond2,3.0.4,60.04695141134329,
else,&&&&,left,neutral,,,,,,,,0,157,157,59,,,,,,,,,,,,,,,,,,,,,LDT,right,1.0004833228886127,0,,,right,0,1.0004833228886127,,,,,,,,,,,,,,,,,,,,,,1022,2019_Mar_06_1501,mf_amp_cond2,3.0.4,60.04695141134329,
bluently,&&&&&&&&,None,nonword,,,,,,,,0,158,158,182,,,,,,,,,,,,,,,,,,,,,LDT,right,2.834255506284535,0,,,right,0,2.834255506284535,,,,,,,,,,,,,,,,,,,,,,1022,2019_Mar_06_1501,mf_amp_cond2,3.0.4,60.04695141134329,
become,&&&&&&,left,neutral,,,,,,,,0,159,159,199,,,,,,,,,,,,,,,,,,,,,LDT,right,0.6170603701611981,0,,,right,0,0.6170603701611981,,,,,,,,,,,,,,,,,,,,,,1022,2019_Mar_06_1501,mf_amp_cond2,3.0.4,60.04695141134329,
tabin,&&&&&,right,nonword,,,,,,,,0,160,160,149,,,,,,,,,,,,,,,,,,,,,LDT,left,1.1505126046249643,0,,,left,0,1.1505126046249643,,,,,,,,,,,,,,,,,,,,,,1022,2019_Mar_06_1501,mf_amp_cond2,3.0.4,60.04695141134329,
sonvoy,&&&&&&,None,nonword,,,,,,,,0,161,161,154,,,,,,,,,,,,,,,,,,,,,LDT,right,0.8171551104169339,0,,,right,0,0.8171551104169339,,,,,,,,,,,,,,,,,,,,,,1022,2019_Mar_06_1501,mf_amp_cond2,3.0.4,60.04695141134329,
amoungst,&&&&&&&&,left,neutral,,,,,,,,0,162,162,137,,,,,,,,,,,,,,,,,,,,,LDT,left,0.9504881016910076,1,,,left,1,0.9504881016910076,,,,,,,,,,,,,,,,,,,,,,1022,2019_Mar_06_1501,mf_amp_cond2,3.0.4,60.04695141134329,
fraud,&&&&&,left,fairness.vice,,,,,,,,0,163,163,11,,,,,,,,,,,,,,,,,,,,,LDT,right,0.950474310782738,0,,,right,0,0.950474310782738,,,,,,,,,,,,,,,,,,,,,,1022,2019_Mar_06_1501,mf_amp_cond2,3.0.4,60.04695141134329,
conspiracy,&&&&&&&&&&,left,sanctity.vice,,,,,,,,0,164,164,81,,,,,,,,,,,,,,,,,,,,,LDT,right,2.167409664718434,0,,,right,0,2.167409664718434,,,,,,,,,,,,,,,,,,,,,,1022,2019_Mar_06_1501,mf_amp_cond2,3.0.4,60.04695141134329,
chadows,&&&&&&&,right,nonword,,,,,,,,0,165,165,12,,,,,,,,,,,,,,,,,,,,,LDT,left,1.8340233060298488,0,,,left,0,1.8340233060298488,,,,,,,,,,,,,,,,,,,,,,1022,2019_Mar_06_1501,mf_amp_cond2,3.0.4,60.04695141134329,
lies,&&&&,left,fairness.vice,,,,,,,,0,166,166,102,,,,,,,,,,,,,,,,,,,,,LDT,right,0.7504289611242712,0,,,right,0,0.7504289611242712,,,,,,,,,,,,,,,,,,,,,,1022,2019_Mar_06_1501,mf_amp_cond2,3.0.4,60.04695141134329,
gun,&&&,left,authority.vice,,,,,,,,0,167,167,181,,,,,,,,,,,,,,,,,,,,,LDT,right,0.9003982683643699,0,,,right,0,0.9003982683643699,,,,,,,,,,,,,,,,,,,,,,1022,2019_Mar_06_1501,mf_amp_cond2,3.0.4,60.04695141134329,
three,&&&&&,left,neutral,,,,,,,,0,168,168,56,,,,,,,,,,,,,,,,,,,,,LDT,right,1.0338194572832435,0,,,right,0,1.0338194572832435,,,,,,,,,,,,,,,,,,,,,,1022,2019_Mar_06_1501,mf_amp_cond2,3.0.4,60.04695141134329,
further,&&&&&&&,left,neutral,,,,,,,,0,169,169,15,,,,,,,,,,,,,,,,,,,,,LDT,right,0.9171250270446762,0,,,right,0,0.9171250270446762,,,,,,,,,,,,,,,,,,,,,,1022,2019_Mar_06_1501,mf_amp_cond2,3.0.4,60.04695141134329,
clattening,&&&&&&&&&&,right,nonword,,,,,,,,0,170,170,108,,,,,,,,,,,,,,,,,,,,,LDT,left,0.9337940562982112,0,,,left,0,0.9337940562982112,,,,,,,,,,,,,,,,,,,,,,1022,2019_Mar_06_1501,mf_amp_cond2,3.0.4,60.04695141134329,
voter,&&&&&,left,fairness.vice,,,,,,,,0,171,171,94,,,,,,,,,,,,,,,,,,,,,LDT,right,0.6003865301609039,0,,,right,0,0.6003865301609039,,,,,,,,,,,,,,,,,,,,,,1022,2019_Mar_06_1501,mf_amp_cond2,3.0.4,60.04695141134329,
promises,&&&&&&&&,left,fairness.virtue,,,,,,,,0,172,172,159,,,,,,,,,,,,,,,,,,,,,LDT,right,0.8336839857511222,0,,,right,0,0.8336839857511222,,,,,,,,,,,,,,,,,,,,,,1022,2019_Mar_06_1501,mf_amp_cond2,3.0.4,60.04695141134329,
hereby,&&&&&&,left,neutral,,,,,,,,0,173,173,132,,,,,,,,,,,,,,,,,,,,,LDT,right,0.983809162164107,0,,,right,0,0.983809162164107,,,,,,,,,,,,,,,,,,,,,,1022,2019_Mar_06_1501,mf_amp_cond2,3.0.4,60.04695141134329,
wherever,&&&&&&&&,left,neutral,,,,,,,,0,174,174,38,,,,,,,,,,,,,,,,,,,,,LDT,right,1.000483323005028,0,,,right,0,1.000483323005028,,,,,,,,,,,,,,,,,,,,,,1022,2019_Mar_06_1501,mf_amp_cond2,3.0.4,60.04695141134329,
ugeasily,&&&&&&&&,right,nonword,,,,,,,,0,175,175,120,,,,,,,,,,,,,,,,,,,,,LDT,left,1.167187727522105,0,,,left,0,1.167187727522105,,,,,,,,,,,,,,,,,,,,,,1022,2019_Mar_06_1501,mf_amp_cond2,3.0.4,60.04695141134329,
Cunday,&&&&&&,None,nonword,,,,,,,,0,176,176,113,,,,,,,,,,,,,,,,,,,,,LDT,left,0.7837654161266983,0,,,left,0,0.7837654161266983,,,,,,,,,,,,,,,,,,,,,,1022,2019_Mar_06_1501,mf_amp_cond2,3.0.4,60.04695141134329,
civilians,&&&&&&&&&,left,care.vice,,,,,,,,0,177,177,98,,,,,,,,,,,,,,,,,,,,,LDT,right,0.6837878023507074,0,,,right,0,0.6837878023507074,,,,,,,,,,,,,,,,,,,,,,1022,2019_Mar_06_1501,mf_amp_cond2,3.0.4,60.04695141134329,
antral,&&&&&&,right,nonword,,,,,,,,0,178,178,129,,,,,,,,,,,,,,,,,,,,,LDT,right,2.1007271332200617,1,,,right,1,2.1007271332200617,,,,,,,,,,,,,,,,,,,,,,1022,2019_Mar_06_1501,mf_amp_cond2,3.0.4,60.04695141134329,
ilportation,&&&&&&&&&&&,right,nonword,,,,,,,,0,179,179,73,,,,,,,,,,,,,,,,,,,,,LDT,right,1.1505110010039061,1,,,right,1,1.1505110010039061,,,,,,,,,,,,,,,,,,,,,,1022,2019_Mar_06_1501,mf_amp_cond2,3.0.4,60.04695141134329,
elsewhere,&&&&&&&&&,left,neutral,,,,,,,,0,180,180,5,,,,,,,,,,,,,,,,,,,,,LDT,right,0.7504337719874457,0,,,right,0,0.7504337719874457,,,,,,,,,,,,,,,,,,,,,,1022,2019_Mar_06_1501,mf_amp_cond2,3.0.4,60.04695141134329,
each,&&&&,left,neutral,,,,,,,,0,181,181,196,,,,,,,,,,,,,,,,,,,,,LDT,right,1.1338025232544169,0,,,right,0,1.1338025232544169,,,,,,,,,,,,,,,,,,,,,,1022,2019_Mar_06_1501,mf_amp_cond2,3.0.4,60.04695141134329,
cromiscuity,&&&&&&&&&&&,right,nonword,,,,,,,,0,182,182,16,,,,,,,,,,,,,,,,,,,,,LDT,right,0.7837609261041507,1,,,right,1,0.7837609261041507,,,,,,,,,,,,,,,,,,,,,,1022,2019_Mar_06_1501,mf_amp_cond2,3.0.4,60.04695141134329,
edancipation,&&&&&&&&&&&&,None,nonword,,,,,,,,0,183,183,29,,,,,,,,,,,,,,,,,,,,,LDT,right,1.0671543085481972,0,,,right,0,1.0671543085481972,,,,,,,,,,,,,,,,,,,,,,1022,2019_Mar_06_1501,mf_amp_cond2,3.0.4,60.04695141134329,
everything,&&&&&&&&&&,left,neutral,,,,,,,,0,184,184,189,,,,,,,,,,,,,,,,,,,,,LDT,left,1.3338882834650576,1,,,left,1,1.3338882834650576,,,,,,,,,,,,,,,,,,,,,,1022,2019_Mar_06_1501,mf_amp_cond2,3.0.4,60.04695141134329,
allears,&&&&&&&,right,nonword,,,,,,,,0,185,185,50,,,,,,,,,,,,,,,,,,,,,LDT,left,3.017626374377869,0,,,left,0,3.017626374377869,,,,,,,,,,,,,,,,,,,,,,1022,2019_Mar_06_1501,mf_amp_cond2,3.0.4,60.04695141134329,
besides,&&&&&&&,left,neutral,,,,,,,,0,186,186,76,,,,,,,,,,,,,,,,,,,,,LDT,right,1.217192570446059,0,,,right,0,1.217192570446059,,,,,,,,,,,,,,,,,,,,,,1022,2019_Mar_06_1501,mf_amp_cond2,3.0.4,60.04695141134329,
alar,&&&&,right,nonword,,,,,,,,0,187,187,52,,,,,,,,,,,,,,,,,,,,,LDT,right,1.1672124228207394,1,,,right,1,1.1672124228207394,,,,,,,,,,,,,,,,,,,,,,1022,2019_Mar_06_1501,mf_amp_cond2,3.0.4,60.04695141134329,
hatigue,&&&&&&&,right,nonword,,,,,,,,0,188,188,33,,,,,,,,,,,,,,,,,,,,,LDT,left,1.3338918113149703,0,,,left,0,1.3338918113149703,,,,,,,,,,,,,,,,,,,,,,1022,2019_Mar_06_1501,mf_amp_cond2,3.0.4,60.04695141134329,
strofe,&&&&&&,right,nonword,,,,,,,,0,189,189,80,,,,,,,,,,,,,,,,,,,,,LDT,left,0.9504707829328254,0,,,left,0,0.9504707829328254,,,,,,,,,,,,,,,,,,,,,,1022,2019_Mar_06_1501,mf_amp_cond2,3.0.4,60.04695141134329,
reviked,&&&&&&&,right,nonword,,,,,,,,0,190,190,19,,,,,,,,,,,,,,,,,,,,,LDT,right,1.0004823608323932,1,,,right,1,1.0004823608323932,,,,,,,,,,,,,,,,,,,,,,1022,2019_Mar_06_1501,mf_amp_cond2,3.0.4,60.04695141134329,
scalbel,&&&&&&&,right,nonword,,,,,,,,0,191,191,1,,,,,,,,,,,,,,,,,,,,,LDT,right,0.917052223929204,1,,,right,1,0.917052223929204,,,,,,,,,,,,,,,,,,,,,,1022,2019_Mar_06_1501,mf_amp_cond2,3.0.4,60.04695141134329,
amount,&&&&&&,left,neutral,,,,,,,,0,192,192,143,,,,,,,,,,,,,,,,,,,,,LDT,right,1.3172182920388877,0,,,right,0,1.3172182920388877,,,,,,,,,,,,,,,,,,,,,,1022,2019_Mar_06_1501,mf_amp_cond2,3.0.4,60.04695141134329,
precificity,&&&&&&&&&&&,right,nonword,,,,,,,,0,193,193,42,,,,,,,,,,,,,,,,,,,,,LDT,left,1.1338384436676279,0,,,left,0,1.1338384436676279,,,,,,,,,,,,,,,,,,,,,,1022,2019_Mar_06_1501,mf_amp_cond2,3.0.4,60.04695141134329,
wump,&&&&,right,nonword,,,,,,,,0,194,194,125,,,,,,,,,,,,,,,,,,,,,LDT,right,0.93379277351778,1,,,right,1,0.93379277351778,,,,,,,,,,,,,,,,,,,,,,1022,2019_Mar_06_1501,mf_amp_cond2,3.0.4,60.04695141134329,
fifty,&&&&&,left,neutral,,,,,,,,0,195,195,8,,,,,,,,,,,,,,,,,,,,,LDT,right,2.0340692970203236,0,,,right,0,2.0340692970203236,,,,,,,,,,,,,,,,,,,,,,1022,2019_Mar_06_1501,mf_amp_cond2,3.0.4,60.04695141134329,
focomotive,&&&&&&&&&&,right,nonword,,,,,,,,0,196,196,174,,,,,,,,,,,,,,,,,,,,,LDT,right,1.8672192862723023,1,,,right,1,1.8672192862723023,,,,,,,,,,,,,,,,,,,,,,1022,2019_Mar_06_1501,mf_amp_cond2,3.0.4,60.04695141134329,
ejanulated,&&&&&&&&&&,right,nonword,,,,,,,,0,197,197,68,,,,,,,,,,,,,,,,,,,,,LDT,left,2.750916453427635,0,,,left,0,2.750916453427635,,,,,,,,,,,,,,,,,,,,,,1022,2019_Mar_06_1501,mf_amp_cond2,3.0.4,60.04695141134329,
taxpayung,&&&&&&&&&,right,nonword,,,,,,,,0,198,198,126,,,,,,,,,,,,,,,,,,,,,LDT,left,0.6670697031076998,0,,,left,0,0.6670697031076998,,,,,,,,,,,,,,,,,,,,,,1022,2019_Mar_06_1501,mf_amp_cond2,3.0.4,60.04695141134329,
embrace,&&&&&&&,left,authority.virtue,,,,,,,,0,199,199,47,,,,,,,,,,,,,,,,,,,,,LDT,right,0.9504627649439499,0,,,right,0,0.9504627649439499,,,,,,,,,,,,,,,,,,,,,,1022,2019_Mar_06_1501,mf_amp_cond2,3.0.4,60.04695141134329,
,,,,,,,,,,,,,,,,,,,,,,,,,,,,,,,,,,,,,,,,,,,,5,18.173,,,,,,,,,,,,,,,,,,,,1022,2019_Mar_06_1501,mf_amp_cond2,3.0.4,60.04695141134329,
,,,,,,,,,,,,,,,,,,,,,,,,,,,,,,,,,,,,,,,,,,,,,,right,2.150800609961152,,,,,,,,,,,,,,,,,,1022,2019_Mar_06_1501,mf_amp_cond2,3.0.4,60.04695141134329,
banana,&&&&&&,,,kacket,,,,,,,,,,,0,0,0,1,,,,,,,,,,,,,,,,,AMP_prac,left,2.0007209754548967,,,,,,,,,,,left,2.0007209754548967,,,,,,,,,,,,,,,,1022,2019_Mar_06_1501,mf_amp_cond2,3.0.4,60.04695141134329,
scarf,&&&&&&&&,,,bisebell,,,,,,,,,,,0,1,1,3,,,,,,,,,,,,,,,,,AMP_prac,right,1.834028116776608,,,,,,,,,,,right,1.834028116776608,,,,,,,,,,,,,,,,1022,2019_Mar_06_1501,mf_amp_cond2,3.0.4,60.04695141134329,
keyboard,&&&&,,,senk,,,,,,,,,,,0,2,2,2,,,,,,,,,,,,,,,,,AMP_prac,right,2.90095439448487,,,,,,,,,,,right,2.90095439448487,,,,,,,,,,,,,,,,1022,2019_Mar_06_1501,mf_amp_cond2,3.0.4,60.04695141134329,
car,&&&&&&&&,,,cemtuper,,,,,,,,,,,0,3,3,0,,,,,,,,,,,,,,,,,AMP_prac,right,3.301036434364505,,,,,,,,,,,right,3.301036434364505,,,,,,,,,,,,,,,,1022,2019_Mar_06_1501,mf_amp_cond2,3.0.4,60.04695141134329,
,,,,,,,,,,,,,,,,,,,,,,,,,,,,,,,,,,,,,,,,,,,,,,,,,,right,1.7673452644376084,,,,,,,,,,,,,,1022,2019_Mar_06_1501,mf_amp_cond2,3.0.4,60.04695141134329,
fear,&&&&&&&&&,right,sanctity.vice,ittutable,,,,,,,,,,,,,,,0,0,0,11,,,,,,,,,,,,,AMP,left,2.5008444520644844,0,,,,,,,,,,,,,,left,0,2.5008444520644844,,,,,,,,,,,1022,2019_Mar_06_1501,mf_amp_cond2,3.0.4,60.04695141134329,
dignity,&&&&&&&&&,left,sanctity.virtue,seachwear,,,,,,,,,,,,,,,0,1,1,255,,,,,,,,,,,,,AMP,left,2.050734798423946,1,,,,,,,,,,,,,,left,1,2.050734798423946,,,,,,,,,,,1022,2019_Mar_06_1501,mf_amp_cond2,3.0.4,60.04695141134329,
free,&&&&&&&&&&,left,fairness.virtue,honstables,,,,,,,,,,,,,,,0,2,2,212,,,,,,,,,,,,,AMP,right,2.084072856931016,0,,,,,,,,,,,,,,right,0,2.084072856931016,,,,,,,,,,,1022,2019_Mar_06_1501,mf_amp_cond2,3.0.4,60.04695141134329,
died,&&&&,right,care.vice,coom,,,,,,,,,,,,,,,0,3,3,241,,,,,,,,,,,,,AMP,left,1.4005679284455255,0,,,,,,,,,,,,,,left,0,1.4005679284455255,,,,,,,,,,,1022,2019_Mar_06_1501,mf_amp_cond2,3.0.4,60.04695141134329,
restore,&&&&&&&&&,left,care.virtue,discovars,,,,,,,,,,,,,,,0,4,4,165,,,,,,,,,,,,,AMP,left,1.750673348782584,1,,,,,,,,,,,,,,left,1,1.750673348782584,,,,,,,,,,,1022,2019_Mar_06_1501,mf_amp_cond2,3.0.4,60.04695141134329,
actively,&&&&&&&&&,left,authority.virtue,Phintoism,,,,,,,,,,,,,,,0,5,5,297,,,,,,,,,,,,,AMP,left,2.4341814843937755,1,,,,,,,,,,,,,,left,1,2.4341814843937755,,,,,,,,,,,1022,2019_Mar_06_1501,mf_amp_cond2,3.0.4,60.04695141134329,
violence,&&&&&&&&,right,care.vice,slending,,,,,,,,,,,,,,,0,6,6,284,,,,,,,,,,,,,AMP,left,2.517368516535498,0,,,,,,,,,,,,,,left,0,2.517368516535498,,,,,,,,,,,1022,2019_Mar_06_1501,mf_amp_cond2,3.0.4,60.04695141134329,
rejected,&&&&&&&,right,authority.vice,emports,,,,,,,,,,,,,,,0,7,7,153,,,,,,,,,,,,,AMP,right,2.300791405257769,1,,,,,,,,,,,,,,right,1,2.300791405257769,,,,,,,,,,,1022,2019_Mar_06_1501,mf_amp_cond2,3.0.4,60.04695141134329,
victims,&&&&&&&&&&&,right,care.vice,vicissifude,,,,,,,,,,,,,,,0,8,8,82,,,,,,,,,,,,,AMP,left,3.1510013797087595,0,,,,,,,,,,,,,,left,0,3.1510013797087595,,,,,,,,,,,1022,2019_Mar_06_1501,mf_amp_cond2,3.0.4,60.04695141134329,
threatened,&&&&&&,right,fairness.vice,erdest,,,,,,,,,,,,,,,0,9,9,144,,,,,,,,,,,,,AMP,right,2.167430190835148,1,,,,,,,,,,,,,,right,1,2.167430190835148,,,,,,,,,,,1022,2019_Mar_06_1501,mf_amp_cond2,3.0.4,60.04695141134329,
slavery,&&&&&,right,loyalty.vice,viscs,,,,,,,,,,,,,,,0,10,10,211,,,,,,,,,,,,,AMP,left,1.7840011443477124,0,,,,,,,,,,,,,,left,0,1.7840011443477124,,,,,,,,,,,1022,2019_Mar_06_1501,mf_amp_cond2,3.0.4,60.04695141134329,
pleasant,&&&&&&&&,None,control,emassion,,,,,,,,,,,,,,,0,11,11,282,,,,,,,,,,,,,AMP,right,1.017161653144285,0,,,,,,,,,,,,,,right,0,1.017161653144285,,,,,,,,,,,1022,2019_Mar_06_1501,mf_amp_cond2,3.0.4,60.04695141134329,
hate,&&&&&&&&&&&,right,fairness.vice,ronviolence,,,,,,,,,,,,,,,0,12,12,148,,,,,,,,,,,,,AMP,left,1.9673585422569886,0,,,,,,,,,,,,,,left,0,1.9673585422569886,,,,,,,,,,,1022,2019_Mar_06_1501,mf_amp_cond2,3.0.4,60.04695141134329,
useful,&&&&&&&&&&,left,authority.virtue,neutralust,,,,,,,,,,,,,,,0,13,13,93,,,,,,,,,,,,,AMP,right,1.067162967985496,0,,,,,,,,,,,,,,right,0,1.067162967985496,,,,,,,,,,,1022,2019_Mar_06_1501,mf_amp_cond2,3.0.4,60.04695141134329,
strength,&&&&&&&&&,left,sanctity.virtue,neputized,,,,,,,,,,,,,,,0,14,14,319,,,,,,,,,,,,,AMP,left,1.6172896840143949,1,,,,,,,,,,,,,,left,1,1.6172896840143949,,,,,,,,,,,1022,2019_Mar_06_1501,mf_amp_cond2,3.0.4,60.04695141134329,
illegal,&&&&&,right,fairness.vice,noped,,,,,,,,,,,,,,,0,15,15,38,,,,,,,,,,,,,AMP,left,1.0838259035954252,0,,,,,,,,,,,,,,left,0,1.0838259035954252,,,,,,,,,,,1022,2019_Mar_06_1501,mf_amp_cond2,3.0.4,60.04695141134329,
interests,&&&&&,left,fairness.virtue,touls,,,,,,,,,,,,,,,0,16,16,146,,,,,,,,,,,,,AMP,right,1.2171954568475485,0,,,,,,,,,,,,,,right,0,1.2171954568475485,,,,,,,,,,,1022,2019_Mar_06_1501,mf_amp_cond2,3.0.4,60.04695141134329,
friends,&&&&&&,left,loyalty.virtue,forepo,,,,,,,,,,,,,,,0,17,17,129,,,,,,,,,,,,,AMP,right,1.8006852474063635,0,,,,,,,,,,,,,,right,0,1.8006852474063635,,,,,,,,,,,1022,2019_Mar_06_1501,mf_amp_cond2,3.0.4,60.04695141134329,
free,&&&&&&&&,left,fairness.virtue,perified,,,,,,,,,,,,,,,0,18,18,98,,,,,,,,,,,,,AMP,right,1.683976064203307,0,,,,,,,,,,,,,,right,0,1.683976064203307,,,,,,,,,,,1022,2019_Mar_06_1501,mf_amp_cond2,3.0.4,60.04695141134329,
violations,&&&,right,sanctity.vice,mih,,,,,,,,,,,,,,,0,19,19,327,,,,,,,,,,,,,AMP,left,1.6839763848111033,0,,,,,,,,,,,,,,left,0,1.6839763848111033,,,,,,,,,,,1022,2019_Mar_06_1501,mf_amp_cond2,3.0.4,60.04695141134329,
increase,&&&&&&&,left,care.virtue,lursuer,,,,,,,,,,,,,,,0,20,20,267,,,,,,,,,,,,,AMP,left,3.36773436027579,1,,,,,,,,,,,,,,left,1,3.36773436027579,,,,,,,,,,,1022,2019_Mar_06_1501,mf_amp_cond2,3.0.4,60.04695141134329,
unpleasant,&&&&&,None,control,noped,,,,,,,,,,,,,,,0,21,21,112,,,,,,,,,,,,,AMP,left,2.334136519697495,0,,,,,,,,,,,,,,left,0,2.334136519697495,,,,,,,,,,,1022,2019_Mar_06_1501,mf_amp_cond2,3.0.4,60.04695141134329,
safety,&&&&&&&&,left,care.virtue,slending,,,,,,,,,,,,,,,0,22,22,126,,,,,,,,,,,,,AMP,right,3.6011097505688667,0,,,,,,,,,,,,,,right,0,3.6011097505688667,,,,,,,,,,,1022,2019_Mar_06_1501,mf_amp_cond2,3.0.4,60.04695141134329,
attacks,&&&&&,right,care.vice,scock,,,,,,,,,,,,,,,0,23,23,23,,,,,,,,,,,,,AMP,right,1.8173433722695336,1,,,,,,,,,,,,,,right,1,1.8173433722695336,,,,,,,,,,,1022,2019_Mar_06_1501,mf_amp_cond2,3.0.4,60.04695141134329,
bruthfulness,&&&&&&&&,None,nonword,emassion,,,,,,,,,,,,,,,0,24,24,65,,,,,,,,,,,,,AMP,right,2.067381698056124,0,,,,,,,,,,,,,,right,0,2.067381698056124,,,,,,,,,,,1022,2019_Mar_06_1501,mf_amp_cond2,3.0.4,60.04695141134329,
help,&&&&&&,left,care.virtue,gikely,,,,,,,,,,,,,,,0,25,25,181,,,,,,,,,,,,,AMP,left,1.5006058374419808,1,,,,,,,,,,,,,,left,1,1.5006058374419808,,,,,,,,,,,1022,2019_Mar_06_1501,mf_amp_cond2,3.0.4,60.04695141134329,
refused,&&&&&&&&,right,authority.vice,clamorek,,,,,,,,,,,,,,,0,26,26,103,,,,,,,,,,,,,AMP,left,1.2005212960066274,0,,,,,,,,,,,,,,left,0,1.2005212960066274,,,,,,,,,,,1022,2019_Mar_06_1501,mf_amp_cond2,3.0.4,60.04695141134329,
riot,&&&&&&&&&&&,right,authority.vice,shoirmaster,,,,,,,,,,,,,,,0,27,27,80,,,,,,,,,,,,,AMP,right,4.951445446698926,1,,,,,,,,,,,,,,right,1,4.951445446698926,,,,,,,,,,,1022,2019_Mar_06_1501,mf_amp_cond2,3.0.4,60.04695141134329,
shot,&&&&&&&&&&&,right,care.vice,shoirmaster,,,,,,,,,,,,,,,0,28,28,152,,,,,,,,,,,,,AMP,left,2.2341431906679645,0,,,,,,,,,,,,,,left,0,2.2341431906679645,,,,,,,,,,,1022,2019_Mar_06_1501,mf_amp_cond2,3.0.4,60.04695141134329,
dormandi,&&&&&&&&,None,nonword,sfumatoy,,,,,,,,,,,,,,,0,29,29,245,,,,,,,,,,,,,AMP,left,2.3508520531468093,0,,,,,,,,,,,,,,left,0,2.3508520531468093,,,,,,,,,,,1022,2019_Mar_06_1501,mf_amp_cond2,3.0.4,60.04695141134329,
win,&&&&&&&,left,fairness.virtue,carvels,,,,,,,,,,,,,,,0,30,30,16,,,,,,,,,,,,,AMP,right,1.9340329917613417,0,,,,,,,,,,,,,,right,0,1.9340329917613417,,,,,,,,,,,1022,2019_Mar_06_1501,mf_amp_cond2,3.0.4,60.04695141134329,
ensure,&&&&&&&&&&&,left,fairness.virtue,ronviolence,,,,,,,,,,,,,,,0,31,31,222,,,,,,,,,,,,,AMP,left,1.6006350870011374,1,,,,,,,,,,,,,,left,1,1.6006350870011374,,,,,,,,,,,1022,2019_Mar_06_1501,mf_amp_cond2,3.0.4,60.04695141134329,
health,&&&&&&&,left,care.virtue,gedious,,,,,,,,,,,,,,,0,32,32,248,,,,,,,,,,,,,AMP,right,2.500855035847053,0,,,,,,,,,,,,,,right,0,2.500855035847053,,,,,,,,,,,1022,2019_Mar_06_1501,mf_amp_cond2,3.0.4,60.04695141134329,
gondensed,&&&&&&&&&&,None,nonword,simplustic,,,,,,,,,,,,,,,0,33,33,77,,,,,,,,,,,,,AMP,right,0.700392367085442,0,,,,,,,,,,,,,,right,0,0.700392367085442,,,,,,,,,,,1022,2019_Mar_06_1501,mf_amp_cond2,3.0.4,60.04695141134329,
killed,&&&&&&&&&,right,care.vice,seachwear,,,,,,,,,,,,,,,0,34,34,15,,,,,,,,,,,,,AMP,left,4.017739267204888,0,,,,,,,,,,,,,,left,0,4.017739267204888,,,,,,,,,,,1022,2019_Mar_06_1501,mf_amp_cond2,3.0.4,60.04695141134329,
fair,&&&&&&&,left,fairness.virtue,smapper,,,,,,,,,,,,,,,0,35,35,290,,,,,,,,,,,,,AMP,right,2.5507896413328126,0,,,,,,,,,,,,,,right,0,2.5507896413328126,,,,,,,,,,,1022,2019_Mar_06_1501,mf_amp_cond2,3.0.4,60.04695141134329,
progress,&&&&&&,left,authority.virtue,erdest,,,,,,,,,,,,,,,0,36,36,187,,,,,,,,,,,,,AMP,right,1.4839692007517442,0,,,,,,,,,,,,,,right,0,1.4839692007517442,,,,,,,,,,,1022,2019_Mar_06_1501,mf_amp_cond2,3.0.4,60.04695141134329,
peaceful,&&&&&&&&&,left,authority.virtue,rivernoat,,,,,,,,,,,,,,,0,37,37,55,,,,,,,,,,,,,AMP,right,1.300560808624141,0,,,,,,,,,,,,,,right,0,1.300560808624141,,,,,,,,,,,1022,2019_Mar_06_1501,mf_amp_cond2,3.0.4,60.04695141134329,
sickyay,&&&&,None,nonword,spag,,,,,,,,,,,,,,,0,38,38,68,,,,,,,,,,,,,AMP,left,1.1005064788041636,0,,,,,,,,,,,,,,left,0,1.1005064788041636,,,,,,,,,,,1022,2019_Mar_06_1501,mf_amp_cond2,3.0.4,60.04695141134329,
increase,&&&&&,left,care.virtue,ablow,,,,,,,,,,,,,,,0,39,39,218,,,,,,,,,,,,,AMP,right,1.0338140049716458,0,,,,,,,,,,,,,,right,0,1.0338140049716458,,,,,,,,,,,1022,2019_Mar_06_1501,mf_amp_cond2,3.0.4,60.04695141134329,
dormandi,&&&&&&,None,nonword,prones,,,,,,,,,,,,,,,0,40,40,261,,,,,,,,,,,,,AMP,left,2.1674212106736377,0,,,,,,,,,,,,,,left,0,2.1674212106736377,,,,,,,,,,,1022,2019_Mar_06_1501,mf_amp_cond2,3.0.4,60.04695141134329,
attacks,&&&&&,right,care.vice,viscs,,,,,,,,,,,,,,,0,41,41,299,,,,,,,,,,,,,AMP,right,2.2674703447846696,1,,,,,,,,,,,,,,right,1,2.2674703447846696,,,,,,,,,,,1022,2019_Mar_06_1501,mf_amp_cond2,3.0.4,60.04695141134329,
chreams,&&&&,None,nonword,yane,,,,,,,,,,,,,,,0,42,42,173,,,,,,,,,,,,,AMP,right,1.7506374282529578,0,,,,,,,,,,,,,,right,0,1.7506374282529578,,,,,,,,,,,1022,2019_Mar_06_1501,mf_amp_cond2,3.0.4,60.04695141134329,
hate,&&&&&&&&&&&&&,right,fairness.vice,synchronazers,,,,,,,,,,,,,,,0,43,43,215,,,,,,,,,,,,,AMP,left,0.9171250270446762,0,,,,,,,,,,,,,,left,0,0.9171250270446762,,,,,,,,,,,1022,2019_Mar_06_1501,mf_amp_cond2,3.0.4,60.04695141134329,
army,&&&&&,right,loyalty.vice,noped,,,,,,,,,,,,,,,0,44,44,254,,,,,,,,,,,,,AMP,left,1.5005974987288937,0,,,,,,,,,,,,,,left,0,1.5005974987288937,,,,,,,,,,,1022,2019_Mar_06_1501,mf_amp_cond2,3.0.4,60.04695141134329,
perfect,&&&&&&&,left,sanctity.virtue,halaise,,,,,,,,,,,,,,,0,45,45,276,,,,,,,,,,,,,AMP,right,0.5670343599049374,0,,,,,,,,,,,,,,right,0,0.5670343599049374,,,,,,,,,,,1022,2019_Mar_06_1501,mf_amp_cond2,3.0.4,60.04695141134329,
refuejing,&&&&&&&&,None,nonword,glacenta,,,,,,,,,,,,,,,0,46,46,300,,,,,,,,,,,,,AMP,right,1.750648974091746,0,,,,,,,,,,,,,,right,0,1.750648974091746,,,,,,,,,,,1022,2019_Mar_06_1501,mf_amp_cond2,3.0.4,60.04695141134329,
fair,&&&&&&&&,left,fairness.virtue,suggists,,,,,,,,,,,,,,,0,47,47,66,,,,,,,,,,,,,AMP,left,1.8006698528770357,1,,,,,,,,,,,,,,left,1,1.8006698528770357,,,,,,,,,,,1022,2019_Mar_06_1501,mf_amp_cond2,3.0.4,60.04695141134329,
ability,&&&&,left,authority.virtue,erks,,,,,,,,,,,,,,,0,48,48,102,,,,,,,,,,,,,AMP,left,1.3338728889357299,1,,,,,,,,,,,,,,left,1,1.3338728889357299,,,,,,,,,,,1022,2019_Mar_06_1501,mf_amp_cond2,3.0.4,60.04695141134329,
restore,&&&&&,left,care.virtue,scock,,,,,,,,,,,,,,,0,49,49,302,,,,,,,,,,,,,AMP,left,1.3005781273823231,1,,,,,,,,,,,,,,left,1,1.3005781273823231,,,,,,,,,,,1022,2019_Mar_06_1501,mf_amp_cond2,3.0.4,60.04695141134329,
growth,&&&&&&&&,left,care.virtue,sfumatoy,,,,,,,,,,,,,,,0,50,50,281,,,,,,,,,,,,,AMP,left,3.1843445698032156,1,,,,,,,,,,,,,,left,1,3.1843445698032156,,,,,,,,,,,1022,2019_Mar_06_1501,mf_amp_cond2,3.0.4,60.04695141134329,
racist,&&&&&&&&&&&&&,right,sanctity.vice,synchronazers,,,,,,,,,,,,,,,0,51,51,88,,,,,,,,,,,,,AMP,left,0.7837737548397854,0,,,,,,,,,,,,,,left,0,0.7837737548397854,,,,,,,,,,,1022,2019_Mar_06_1501,mf_amp_cond2,3.0.4,60.04695141134329,
friends,&&&&&&&,left,loyalty.virtue,carvels,,,,,,,,,,,,,,,0,52,52,234,,,,,,,,,,,,,AMP,right,0.9504675755742937,0,,,,,,,,,,,,,,right,0,0.9504675755742937,,,,,,,,,,,1022,2019_Mar_06_1501,mf_amp_cond2,3.0.4,60.04695141134329,
illegal,&&&&&,right,fairness.vice,infet,,,,,,,,,,,,,,,0,53,53,309,,,,,,,,,,,,,AMP,left,4.051207537646405,0,,,,,,,,,,,,,,left,0,4.051207537646405,,,,,,,,,,,1022,2019_Mar_06_1501,mf_amp_cond2,3.0.4,60.04695141134329,
terrorists,&&&&&&&,right,fairness.vice,festate,,,,,,,,,,,,,,,0,54,54,232,,,,,,,,,,,,,AMP,left,1.5506350549403578,0,,,,,,,,,,,,,,left,0,1.5506350549403578,,,,,,,,,,,1022,2019_Mar_06_1501,mf_amp_cond2,3.0.4,60.04695141134329,
great,&&&&,left,loyalty.virtue,tove,,,,,,,,,,,,,,,0,55,55,221,,,,,,,,,,,,,AMP,right,0.8004225788172334,0,,,,,,,,,,,,,,right,0,0.8004225788172334,,,,,,,,,,,1022,2019_Mar_06_1501,mf_amp_cond2,3.0.4,60.04695141134329,
tracious,&&&&&&&&,None,nonword,fontacts,,,,,,,,,,,,,,,0,56,56,136,,,,,,,,,,,,,AMP,right,0.7337474237428978,0,,,,,,,,,,,,,,right,0,0.7337474237428978,,,,,,,,,,,1022,2019_Mar_06_1501,mf_amp_cond2,3.0.4,60.04695141134329,
gondensed,&&&&&&&&&,None,nonword,discovars,,,,,,,,,,,,,,,0,57,57,285,,,,,,,,,,,,,AMP,left,0.9004595256410539,0,,,,,,,,,,,,,,left,0,0.9004595256410539,,,,,,,,,,,1022,2019_Mar_06_1501,mf_amp_cond2,3.0.4,60.04695141134329,
photocalkodes,&&&&&&,None,nonword,prones,,,,,,,,,,,,,,,0,58,58,75,,,,,,,,,,,,,AMP,left,0.8504364017862827,0,,,,,,,,,,,,,,left,0,0.8504364017862827,,,,,,,,,,,1022,2019_Mar_06_1501,mf_amp_cond2,3.0.4,60.04695141134329,
encourage,&&&&,left,authority.virtue,erks,,,,,,,,,,,,,,,0,59,59,29,,,,,,,,,,,,,AMP,left,2.3508049075026065,1,,,,,,,,,,,,,,left,1,2.3508049075026065,,,,,,,,,,,1022,2019_Mar_06_1501,mf_amp_cond2,3.0.4,60.04695141134329,
win,&&&&&&&&&,left,fairness.virtue,neputized,,,,,,,,,,,,,,,0,60,60,209,,,,,,,,,,,,,AMP,left,2.484241170110181,1,,,,,,,,,,,,,,left,1,2.484241170110181,,,,,,,,,,,1022,2019_Mar_06_1501,mf_amp_cond2,3.0.4,60.04695141134329,
shot,&&&&&,right,care.vice,touls,,,,,,,,,,,,,,,0,61,61,262,,,,,,,,,,,,,AMP,right,3.3343809072393924,1,,,,,,,,,,,,,,right,1,3.3343809072393924,,,,,,,,,,,1022,2019_Mar_06_1501,mf_amp_cond2,3.0.4,60.04695141134329,
killed,&&&&&&&&&&&&,right,care.vice,gusinesslike,,,,,,,,,,,,,,,0,62,62,194,,,,,,,,,,,,,AMP,right,2.034060316858813,1,,,,,,,,,,,,,,right,1,2.034060316858813,,,,,,,,,,,1022,2019_Mar_06_1501,mf_amp_cond2,3.0.4,60.04695141134329,
respect,&&&&&&&&,left,sanctity.virtue,perified,,,,,,,,,,,,,,,0,63,63,303,,,,,,,,,,,,,AMP,right,1.6006206546444446,0,,,,,,,,,,,,,,right,0,1.6006206546444446,,,,,,,,,,,1022,2019_Mar_06_1501,mf_amp_cond2,3.0.4,60.04695141134329,
prosecution,&&&&&&&&&&&,right,authority.vice,neneficence,,,,,,,,,,,,,,,0,64,64,227,,,,,,,,,,,,,AMP,right,1.4172558803111315,1,,,,,,,,,,,,,,right,1,1.4172558803111315,,,,,,,,,,,1022,2019_Mar_06_1501,mf_amp_cond2,3.0.4,60.04695141134329,
health,&&&&&&&&&&,left,care.virtue,honstables,,,,,,,,,,,,,,,0,65,65,49,,,,,,,,,,,,,AMP,left,2.050756286480464,1,,,,,,,,,,,,,,left,1,2.050756286480464,,,,,,,,,,,1022,2019_Mar_06_1501,mf_amp_cond2,3.0.4,60.04695141134329,
penalty,&&&&&&&&&&&,right,authority.vice,presentkess,,,,,,,,,,,,,,,0,66,66,105,,,,,,,,,,,,,AMP,left,1.3172173298662528,0,,,,,,,,,,,,,,left,0,1.3172173298662528,,,,,,,,,,,1022,2019_Mar_06_1501,mf_amp_cond2,3.0.4,60.04695141134329,
refuejing,&&&&,None,nonword,tove,,,,,,,,,,,,,,,0,67,67,147,,,,,,,,,,,,,AMP,right,1.1505052279680967,0,,,,,,,,,,,,,,right,0,1.1505052279680967,,,,,,,,,,,1022,2019_Mar_06_1501,mf_amp_cond2,3.0.4,60.04695141134329,
progress,&&&&&&&&&,left,authority.virtue,neputized,,,,,,,,,,,,,,,0,68,68,91,,,,,,,,,,,,,AMP,left,0.5668958093738183,1,,,,,,,,,,,,,,left,1,0.5668958093738183,,,,,,,,,,,1022,2019_Mar_06_1501,mf_amp_cond2,3.0.4,60.04695141134329,
sickyay,&&&&&,None,nonword,infet,,,,,,,,,,,,,,,0,69,69,94,,,,,,,,,,,,,AMP,left,4.001188903930597,0,,,,,,,,,,,,,,left,0,4.001188903930597,,,,,,,,,,,1022,2019_Mar_06_1501,mf_amp_cond2,3.0.4,60.04695141134329,
photocalkodes,&&&&,None,nonword,coom,,,,,,,,,,,,,,,0,70,70,116,,,,,,,,,,,,,AMP,left,1.133747038897127,0,,,,,,,,,,,,,,left,0,1.133747038897127,,,,,,,,,,,1022,2019_Mar_06_1501,mf_amp_cond2,3.0.4,60.04695141134329,
ensure,&&&&&&&,left,fairness.virtue,vurtain,,,,,,,,,,,,,,,0,71,71,155,,,,,,,,,,,,,AMP,left,0.6670931155094877,1,,,,,,,,,,,,,,left,1,0.6670931155094877,,,,,,,,,,,1022,2019_Mar_06_1501,mf_amp_cond2,3.0.4,60.04695141134329,
blamed,&&&&&&&&&&&&&,right,loyalty.vice,esquisiteness,,,,,,,,,,,,,,,0,72,72,272,,,,,,,,,,,,,AMP,right,0.6503881657263264,1,,,,,,,,,,,,,,right,1,0.6503881657263264,,,,,,,,,,,1022,2019_Mar_06_1501,mf_amp_cond2,3.0.4,60.04695141134329,
bruthfulness,&&&&&&&&,None,nonword,clamorek,,,,,,,,,,,,,,,0,73,73,312,,,,,,,,,,,,,AMP,right,2.100738358334638,0,,,,,,,,,,,,,,right,0,2.100738358334638,,,,,,,,,,,1022,2019_Mar_06_1501,mf_amp_cond2,3.0.4,60.04695141134329,
slavery,&&&,right,loyalty.vice,mih,,,,,,,,,,,,,,,0,74,74,25,,,,,,,,,,,,,AMP,left,3.0674990811385214,0,,,,,,,,,,,,,,left,0,3.0674990811385214,,,,,,,,,,,1022,2019_Mar_06_1501,mf_amp_cond2,3.0.4,60.04695141134329,
ensure,&&&&&&&&,left,fairness.virtue,hescribe,,,,,,,,,,,,,,,0,75,75,42,,,,,,,,,,,,,AMP,right,0.6670520636253059,0,,,,,,,,,,,,,,right,0,0.6670520636253059,,,,,,,,,,,1022,2019_Mar_06_1501,mf_amp_cond2,3.0.4,60.04695141134329,
free,&&&&,left,fairness.virtue,coom,,,,,,,,,,,,,,,0,76,76,41,,,,,,,,,,,,,AMP,left,0.8171012297971174,1,,,,,,,,,,,,,,left,1,0.8171012297971174,,,,,,,,,,,1022,2019_Mar_06_1501,mf_amp_cond2,3.0.4,60.04695141134329,
win,&&&&&&&&&&&,left,fairness.virtue,presentkess,,,,,,,,,,,,,,,0,77,77,305,,,,,,,,,,,,,AMP,right,0.6837897266959772,0,,,,,,,,,,,,,,right,0,0.6837897266959772,,,,,,,,,,,1022,2019_Mar_06_1501,mf_amp_cond2,3.0.4,60.04695141134329,
win,&&&&,left,fairness.virtue,juck,,,,,,,,,,,,,,,0,78,78,111,,,,,,,,,,,,,AMP,left,1.100360231124796,1,,,,,,,,,,,,,,left,1,1.100360231124796,,,,,,,,,,,1022,2019_Mar_06_1501,mf_amp_cond2,3.0.4,60.04695141134329,
compassion,&&&&&&&,left,care.virtue,lursuer,,,,,,,,,,,,,,,0,79,79,141,,,,,,,,,,,,,AMP,right,1.1671890104189515,0,,,,,,,,,,,,,,right,0,1.1671890104189515,,,,,,,,,,,1022,2019_Mar_06_1501,mf_amp_cond2,3.0.4,60.04695141134329,
pafer,&&&&&&&&&&&&,None,nonword,iptervention,,,,,,,,,,,,,,,0,80,80,257,,,,,,,,,,,,,AMP,left,0.967136604944244,0,,,,,,,,,,,,,,left,0,0.967136604944244,,,,,,,,,,,1022,2019_Mar_06_1501,mf_amp_cond2,3.0.4,60.04695141134329,
prison,&&&&&&&,right,fairness.vice,smapper,,,,,,,,,,,,,,,0,81,81,2,,,,,,,,,,,,,AMP,left,1.4839024912798777,0,,,,,,,,,,,,,,left,0,1.4839024912798777,,,,,,,,,,,1022,2019_Mar_06_1501,mf_amp_cond2,3.0.4,60.04695141134329,
forced,&&&&&&&&&,right,fairness.vice,Phintoism,,,,,,,,,,,,,,,0,82,82,3,,,,,,,,,,,,,AMP,left,0.7670880481600761,0,,,,,,,,,,,,,,left,0,0.7670880481600761,,,,,,,,,,,1022,2019_Mar_06_1501,mf_amp_cond2,3.0.4,60.04695141134329,
growth,&&&&&&&&&&&&&,left,care.virtue,idexpressible,,,,,,,,,,,,,,,0,83,83,202,,,,,,,,,,,,,AMP,right,1.0337960447650403,0,,,,,,,,,,,,,,right,0,1.0337960447650403,,,,,,,,,,,1022,2019_Mar_06_1501,mf_amp_cond2,3.0.4,60.04695141134329,
charges,&&&&,right,fairness.vice,tove,,,,,,,,,,,,,,,0,84,84,10,,,,,,,,,,,,,AMP,right,0.6170472207013518,1,,,,,,,,,,,,,,right,1,0.6170472207013518,,,,,,,,,,,1022,2019_Mar_06_1501,mf_amp_cond2,3.0.4,60.04695141134329,
black,&&&&&&&&&,right,loyalty.vice,grovelire,,,,,,,,,,,,,,,0,85,85,162,,,,,,,,,,,,,AMP,right,0.917134327813983,1,,,,,,,,,,,,,,right,1,0.917134327813983,,,,,,,,,,,1022,2019_Mar_06_1501,mf_amp_cond2,3.0.4,60.04695141134329,
perfect,&&&&&&,left,sanctity.virtue,gikely,,,,,,,,,,,,,,,0,86,86,149,,,,,,,,,,,,,AMP,left,1.9340496690711007,1,,,,,,,,,,,,,,left,1,1.9340496690711007,,,,,,,,,,,1022,2019_Mar_06_1501,mf_amp_cond2,3.0.4,60.04695141134329,
photocalkodes,&&&&&&&&,None,nonword,lachelor,,,,,,,,,,,,,,,0,87,87,298,,,,,,,,,,,,,AMP,left,1.9673755404073745,0,,,,,,,,,,,,,,left,0,1.9673755404073745,,,,,,,,,,,1022,2019_Mar_06_1501,mf_amp_cond2,3.0.4,60.04695141134329,
celebrated,&&&&&&&&&,left,authority.virtue,pescinded,,,,,,,,,,,,,,,0,88,88,217,,,,,,,,,,,,,AMP,right,3.1510231886059046,0,,,,,,,,,,,,,,right,0,3.1510231886059046,,,,,,,,,,,1022,2019_Mar_06_1501,mf_amp_cond2,3.0.4,60.04695141134329,
strong,&&&&&&&&&&&&,left,loyalty.virtue,iptervention,,,,,,,,,,,,,,,0,89,89,145,,,,,,,,,,,,,AMP,right,0.817095456761308,0,,,,,,,,,,,,,,right,0,0.817095456761308,,,,,,,,,,,1022,2019_Mar_06_1501,mf_amp_cond2,3.0.4,60.04695141134329,
party,&&&&&&&&&&,left,loyalty.virtue,simplustic,,,,,,,,,,,,,,,0,90,90,174,,,,,,,,,,,,,AMP,right,0.4503514755051583,0,,,,,,,,,,,,,,right,0,0.4503514755051583,,,,,,,,,,,1022,2019_Mar_06_1501,mf_amp_cond2,3.0.4,60.04695141134329,
prosecution,&&&&&&&&&,right,authority.vice,reprisols,,,,,,,,,,,,,,,0,91,91,154,,,,,,,,,,,,,AMP,left,0.5503868187079206,0,,,,,,,,,,,,,,left,0,0.5503868187079206,,,,,,,,,,,1022,2019_Mar_06_1501,mf_amp_cond2,3.0.4,60.04695141134329,
hand,&&&&&&&,left,sanctity.virtue,smapper,,,,,,,,,,,,,,,0,92,92,231,,,,,,,,,,,,,AMP,right,1.06715879868716,0,,,,,,,,,,,,,,right,0,1.06715879868716,,,,,,,,,,,1022,2019_Mar_06_1501,mf_amp_cond2,3.0.4,60.04695141134329,
fear,&&&&&&,right,sanctity.vice,letish,,,,,,,,,,,,,,,0,93,93,308,,,,,,,,,,,,,AMP,left,0.8671038275351748,0,,,,,,,,,,,,,,left,0,0.8671038275351748,,,,,,,,,,,1022,2019_Mar_06_1501,mf_amp_cond2,3.0.4,60.04695141134329,
betrayal,&&&&&&&,right,loyalty.vice,gedious,,,,,,,,,,,,,,,0,94,94,79,,,,,,,,,,,,,AMP,left,3.284374781535007,0,,,,,,,,,,,,,,left,0,3.284374781535007,,,,,,,,,,,1022,2019_Mar_06_1501,mf_amp_cond2,3.0.4,60.04695141134329,
intelligence,&&&&&&&,left,loyalty.virtue,lursuer,,,,,,,,,,,,,,,0,95,95,193,,,,,,,,,,,,,AMP,right,3.6011097505688667,0,,,,,,,,,,,,,,right,0,3.6011097505688667,,,,,,,,,,,1022,2019_Mar_06_1501,mf_amp_cond2,3.0.4,60.04695141134329,
great,&&&&&&&&&,left,loyalty.virtue,gaultless,,,,,,,,,,,,,,,0,96,96,132,,,,,,,,,,,,,AMP,left,1.9507238297956064,1,,,,,,,,,,,,,,left,1,1.9507238297956064,,,,,,,,,,,1022,2019_Mar_06_1501,mf_amp_cond2,3.0.4,60.04695141134329,
clean,&&&&&&&&&&&,left,sanctity.virtue,neneficence,,,,,,,,,,,,,,,0,97,97,45,,,,,,,,,,,,,AMP,left,1.267286893678829,1,,,,,,,,,,,,,,left,1,1.267286893678829,,,,,,,,,,,1022,2019_Mar_06_1501,mf_amp_cond2,3.0.4,60.04695141134329,
peaceful,&&&&&&,left,authority.virtue,bycled,,,,,,,,,,,,,,,0,98,98,326,,,,,,,,,,,,,AMP,right,0.5670375670306385,0,,,,,,,,,,,,,,right,0,0.5670375670306385,,,,,,,,,,,1022,2019_Mar_06_1501,mf_amp_cond2,3.0.4,60.04695141134329,
racist,&&&&&&&,right,sanctity.vice,nackers,,,,,,,,,,,,,,,0,99,99,228,,,,,,,,,,,,,AMP,left,2.9342780207516626,0,,,,,,,,,,,,,,left,0,2.9342780207516626,,,,,,,,,,,1022,2019_Mar_06_1501,mf_amp_cond2,3.0.4,60.04695141134329,
health,&&&&&&&&,left,care.virtue,suggists,,,,,,,,,,,,,,,0,100,100,195,,,,,,,,,,,,,AMP,right,2.6342181746149436,0,,,,,,,,,,,,,,right,0,2.6342181746149436,,,,,,,,,,,1022,2019_Mar_06_1501,mf_amp_cond2,3.0.4,60.04695141134329,
respect,&&&&&&&&&&,left,sanctity.virtue,galamitous,,,,,,,,,,,,,,,0,101,101,121,,,,,,,,,,,,,AMP,right,1.7006585636409,0,,,,,,,,,,,,,,right,0,1.7006585636409,,,,,,,,,,,1022,2019_Mar_06_1501,mf_amp_cond2,3.0.4,60.04695141134329,
sexual,&&&&&&&&&,right,sanctity.vice,reprisols,,,,,,,,,,,,,,,0,102,102,235,,,,,,,,,,,,,AMP,left,1.9840471353381872,0,,,,,,,,,,,,,,left,0,1.9840471353381872,,,,,,,,,,,1022,2019_Mar_06_1501,mf_amp_cond2,3.0.4,60.04695141134329,
betrayal,&&&&&,right,loyalty.vice,atson,,,,,,,,,,,,,,,0,103,103,168,,,,,,,,,,,,,AMP,right,1.5006061581661925,1,,,,,,,,,,,,,,right,1,1.5006061581661925,,,,,,,,,,,1022,2019_Mar_06_1501,mf_amp_cond2,3.0.4,60.04695141134329,
black,&&&&&&&,right,loyalty.vice,carvels,,,,,,,,,,,,,,,0,104,104,273,,,,,,,,,,,,,AMP,right,3.0510000326903537,1,,,,,,,,,,,,,,right,1,3.0510000326903537,,,,,,,,,,,1022,2019_Mar_06_1501,mf_amp_cond2,3.0.4,60.04695141134329,
strong,&&&&&&&&&&,left,loyalty.virtue,Oregoniuns,,,,,,,,,,,,,,,0,105,105,315,,,,,,,,,,,,,AMP,right,0.6670636093476787,0,,,,,,,,,,,,,,right,0,0.6670636093476787,,,,,,,,,,,1022,2019_Mar_06_1501,mf_amp_cond2,3.0.4,60.04695141134329,
celebrated,&&&&&&&&&&,left,authority.virtue,fonderland,,,,,,,,,,,,,,,0,106,106,278,,,,,,,,,,,,,AMP,right,1.4172363163670525,0,,,,,,,,,,,,,,right,0,1.4172363163670525,,,,,,,,,,,1022,2019_Mar_06_1501,mf_amp_cond2,3.0.4,60.04695141134329,
critics,&&&&&&&&,right,loyalty.vice,sfumatoy,,,,,,,,,,,,,,,0,107,107,110,,,,,,,,,,,,,AMP,left,1.2672054312424734,0,,,,,,,,,,,,,,left,0,1.2672054312424734,,,,,,,,,,,1022,2019_Mar_06_1501,mf_amp_cond2,3.0.4,60.04695141134329,
compassion,&&&&&&&&&&,left,care.virtue,abointment,,,,,,,,,,,,,,,0,108,108,24,,,,,,,,,,,,,AMP,left,3.0009676080662757,1,,,,,,,,,,,,,,left,1,3.0009676080662757,,,,,,,,,,,1022,2019_Mar_06_1501,mf_amp_cond2,3.0.4,60.04695141134329,
respect,&&&&&&&&&&&&&,left,sanctity.virtue,esquisiteness,,,,,,,,,,,,,,,0,109,109,7,,,,,,,,,,,,,AMP,right,0.6837368080159649,0,,,,,,,,,,,,,,right,0,0.6837368080159649,,,,,,,,,,,1022,2019_Mar_06_1501,mf_amp_cond2,3.0.4,60.04695141134329,
dignity,&&&&&&&&&&&&,left,sanctity.virtue,gusinesslike,,,,,,,,,,,,,,,0,110,110,21,,,,,,,,,,,,,AMP,right,0.7837198741035536,0,,,,,,,,,,,,,,right,0,0.7837198741035536,,,,,,,,,,,1022,2019_Mar_06_1501,mf_amp_cond2,3.0.4,60.04695141134329,
praised,&&&&&&&&,left,loyalty.virtue,glacenta,,,,,,,,,,,,,,,0,111,111,71,,,,,,,,,,,,,AMP,left,3.7344777000835165,1,,,,,,,,,,,,,,left,1,3.7344777000835165,,,,,,,,,,,1022,2019_Mar_06_1501,mf_amp_cond2,3.0.4,60.04695141134329,
free,&&&&&&&&,left,fairness.virtue,suggists,,,,,,,,,,,,,,,0,112,112,253,,,,,,,,,,,,,AMP,left,1.884030073066242,1,,,,,,,,,,,,,,left,1,1.884030073066242,,,,,,,,,,,1022,2019_Mar_06_1501,mf_amp_cond2,3.0.4,60.04695141134329,
useful,&&&&&&&&&&,left,authority.virtue,galamitous,,,,,,,,,,,,,,,0,113,113,280,,,,,,,,,,,,,AMP,right,0.8171544689685106,0,,,,,,,,,,,,,,right,0,0.8171544689685106,,,,,,,,,,,1022,2019_Mar_06_1501,mf_amp_cond2,3.0.4,60.04695141134329,
refused,&&&&&&&&&&&,right,authority.vice,shoirmaster,,,,,,,,,,,,,,,0,114,114,177,,,,,,,,,,,,,AMP,right,3.284368046442978,1,,,,,,,,,,,,,,right,1,3.284368046442978,,,,,,,,,,,1022,2019_Mar_06_1501,mf_amp_cond2,3.0.4,60.04695141134329,
hate,&&&&&&&&,right,fairness.vice,clamorek,,,,,,,,,,,,,,,0,115,115,22,,,,,,,,,,,,,AMP,left,3.017644655308686,0,,,,,,,,,,,,,,left,0,3.017644655308686,,,,,,,,,,,1022,2019_Mar_06_1501,mf_amp_cond2,3.0.4,60.04695141134329,
died,&&&&&&&&&,right,care.vice,grovelire,,,,,,,,,,,,,,,0,116,116,32,,,,,,,,,,,,,AMP,right,1.6006132781039923,1,,,,,,,,,,,,,,right,1,1.6006132781039923,,,,,,,,,,,1022,2019_Mar_06_1501,mf_amp_cond2,3.0.4,60.04695141134329,
harassment,&&&&&&&&,right,sanctity.vice,hescribe,,,,,,,,,,,,,,,0,117,117,274,,,,,,,,,,,,,AMP,left,2.13409854657948,0,,,,,,,,,,,,,,left,0,2.13409854657948,,,,,,,,,,,1022,2019_Mar_06_1501,mf_amp_cond2,3.0.4,60.04695141134329,
critics,&&&&,right,loyalty.vice,spag,,,,,,,,,,,,,,,0,118,118,288,,,,,,,,,,,,,AMP,left,0.9504666135180742,0,,,,,,,,,,,,,,left,0,0.9504666135180742,,,,,,,,,,,1022,2019_Mar_06_1501,mf_amp_cond2,3.0.4,60.04695141134329,
hate,&&&&&&&&,right,fairness.vice,fontacts,,,,,,,,,,,,,,,0,119,119,313,,,,,,,,,,,,,AMP,left,1.6839452751446515,0,,,,,,,,,,,,,,left,0,1.6839452751446515,,,,,,,,,,,1022,2019_Mar_06_1501,mf_amp_cond2,3.0.4,60.04695141134329,
victim,&&&&,right,care.vice,erks,,,,,,,,,,,,,,,0,120,120,320,,,,,,,,,,,,,AMP,left,0.7170809602830559,0,,,,,,,,,,,,,,left,0,0.7170809602830559,,,,,,,,,,,1022,2019_Mar_06_1501,mf_amp_cond2,3.0.4,60.04695141134329,
protesters,&&&&&&,right,authority.vice,squets,,,,,,,,,,,,,,,0,121,121,17,,,,,,,,,,,,,AMP,left,1.7006351511226967,0,,,,,,,,,,,,,,left,0,1.7006351511226967,,,,,,,,,,,1022,2019_Mar_06_1501,mf_amp_cond2,3.0.4,60.04695141134329,
shot,&&&&&&&&&&,right,care.vice,ecgagement,,,,,,,,,,,,,,,0,122,122,226,,,,,,,,,,,,,AMP,right,0.8671208255691454,1,,,,,,,,,,,,,,right,1,0.8671208255691454,,,,,,,,,,,1022,2019_Mar_06_1501,mf_amp_cond2,3.0.4,60.04695141134329,
ability,&&&&&&&&&&,left,authority.virtue,neutralust,,,,,,,,,,,,,,,0,123,123,291,,,,,,,,,,,,,AMP,left,1.533942613285035,1,,,,,,,,,,,,,,left,1,1.533942613285035,,,,,,,,,,,1022,2019_Mar_06_1501,mf_amp_cond2,3.0.4,60.04695141134329,
terrorists,&&&&,right,fairness.vice,yane,,,,,,,,,,,,,,,0,124,124,43,,,,,,,,,,,,,AMP,left,2.017396419076249,0,,,,,,,,,,,,,,left,0,2.017396419076249,,,,,,,,,,,1022,2019_Mar_06_1501,mf_amp_cond2,3.0.4,60.04695141134329,
gondensed,&&&&,None,nonword,spag,,,,,,,,,,,,,,,0,125,125,197,,,,,,,,,,,,,AMP,left,1.1505414692219347,0,,,,,,,,,,,,,,left,0,1.1505414692219347,,,,,,,,,,,1022,2019_Mar_06_1501,mf_amp_cond2,3.0.4,60.04695141134329,
black,&&&&&&&&,right,loyalty.vice,gowlands,,,,,,,,,,,,,,,0,126,126,74,,,,,,,,,,,,,AMP,right,1.2338680140674114,1,,,,,,,,,,,,,,right,1,1.2338680140674114,,,,,,,,,,,1022,2019_Mar_06_1501,mf_amp_cond2,3.0.4,60.04695141134329,
army,&&&&,right,loyalty.vice,juck,,,,,,,,,,,,,,,0,127,127,30,,,,,,,,,,,,,AMP,left,0.9337658330332488,0,,,,,,,,,,,,,,left,0,0.9337658330332488,,,,,,,,,,,1022,2019_Mar_06_1501,mf_amp_cond2,3.0.4,60.04695141134329,
encourage,&&&&&&&&&&&&,left,authority.virtue,feleological,,,,,,,,,,,,,,,0,128,128,124,,,,,,,,,,,,,AMP,right,1.1338544796453789,0,,,,,,,,,,,,,,right,0,1.1338544796453789,,,,,,,,,,,1022,2019_Mar_06_1501,mf_amp_cond2,3.0.4,60.04695141134329,
illegal,&&&&&,right,fairness.vice,atson,,,,,,,,,,,,,,,0,129,129,84,,,,,,,,,,,,,AMP,right,0.8671041481429711,1,,,,,,,,,,,,,,right,1,0.8671041481429711,,,,,,,,,,,1022,2019_Mar_06_1501,mf_amp_cond2,3.0.4,60.04695141134329,
promote,&&&&&&&&&&,left,sanctity.virtue,fonderland,,,,,,,,,,,,,,,0,130,130,130,,,,,,,,,,,,,AMP,right,1.1838461731094867,0,,,,,,,,,,,,,,right,0,1.1838461731094867,,,,,,,,,,,1022,2019_Mar_06_1501,mf_amp_cond2,3.0.4,60.04695141134329,
violations,&&&&&&&,right,sanctity.vice,Loorish,,,,,,,,,,,,,,,0,131,131,119,,,,,,,,,,,,,AMP,left,1.5005946123274043,0,,,,,,,,,,,,,,left,0,1.5005946123274043,,,,,,,,,,,1022,2019_Mar_06_1501,mf_amp_cond2,3.0.4,60.04695141134329,
progress,&&&&&&&&,left,authority.virtue,perified,,,,,,,,,,,,,,,0,132,132,62,,,,,,,,,,,,,AMP,right,1.7173231028718874,0,,,,,,,,,,,,,,right,0,1.7173231028718874,,,,,,,,,,,1022,2019_Mar_06_1501,mf_amp_cond2,3.0.4,60.04695141134329,
clean,&&&&&&&,left,sanctity.virtue,emports,,,,,,,,,,,,,,,0,133,133,243,,,,,,,,,,,,,AMP,right,1.033821702352725,0,,,,,,,,,,,,,,right,0,1.033821702352725,,,,,,,,,,,1022,2019_Mar_06_1501,mf_amp_cond2,3.0.4,60.04695141134329,
praised,&&&&&,left,loyalty.virtue,noped,,,,,,,,,,,,,,,0,134,134,188,,,,,,,,,,,,,AMP,left,0.7170758286956698,1,,,,,,,,,,,,,,left,1,0.7170758286956698,,,,,,,,,,,1022,2019_Mar_06_1501,mf_amp_cond2,3.0.4,60.04695141134329,
protesters,&&&&&&,right,authority.vice,bycled,,,,,,,,,,,,,,,0,135,135,176,,,,,,,,,,,,,AMP,right,0.5837255187798291,1,,,,,,,,,,,,,,right,1,0.5837255187798291,,,,,,,,,,,1022,2019_Mar_06_1501,mf_amp_cond2,3.0.4,60.04695141134329,
strength,&&&&&&&&&,left,sanctity.virtue,faspberry,,,,,,,,,,,,,,,0,136,136,159,,,,,,,,,,,,,AMP,left,1.0171520315343514,1,,,,,,,,,,,,,,left,1,1.0171520315343514,,,,,,,,,,,1022,2019_Mar_06_1501,mf_amp_cond2,3.0.4,60.04695141134329,
friends,&&&&&&&,left,loyalty.virtue,Loorish,,,,,,,,,,,,,,,0,137,137,310,,,,,,,,,,,,,AMP,right,2.734243896207772,0,,,,,,,,,,,,,,right,0,2.734243896207772,,,,,,,,,,,1022,2019_Mar_06_1501,mf_amp_cond2,3.0.4,60.04695141134329,
progress,&&&&&&&&&,left,authority.virtue,grovelire,,,,,,,,,,,,,,,0,138,138,283,,,,,,,,,,,,,AMP,left,3.4677546297898516,1,,,,,,,,,,,,,,left,1,3.4677546297898516,,,,,,,,,,,1022,2019_Mar_06_1501,mf_amp_cond2,3.0.4,60.04695141134329,
safety,&&&&,left,care.virtue,yane,,,,,,,,,,,,,,,0,139,139,277,,,,,,,,,,,,,AMP,right,2.5175019355956465,0,,,,,,,,,,,,,,right,0,2.5175019355956465,,,,,,,,,,,1022,2019_Mar_06_1501,mf_amp_cond2,3.0.4,60.04695141134329,
help,&&&&&&&,left,care.virtue,pharing,,,,,,,,,,,,,,,0,140,140,323,,,,,,,,,,,,,AMP,right,0.9170923137571663,0,,,,,,,,,,,,,,right,0,0.9170923137571663,,,,,,,,,,,1022,2019_Mar_06_1501,mf_amp_cond2,3.0.4,60.04695141134329,
restore,&&&&&&&&&&,left,care.virtue,Oregoniuns,,,,,,,,,,,,,,,0,141,141,19,,,,,,,,,,,,,AMP,right,0.9671353220473975,0,,,,,,,,,,,,,,right,0,0.9671353220473975,,,,,,,,,,,1022,2019_Mar_06_1501,mf_amp_cond2,3.0.4,60.04695141134329,
troops,&&&&&&&&&&&&&,right,loyalty.vice,synchronazers,,,,,,,,,,,,,,,0,142,142,269,,,,,,,,,,,,,AMP,left,1.4339310030918568,0,,,,,,,,,,,,,,left,0,1.4339310030918568,,,,,,,,,,,1022,2019_Mar_06_1501,mf_amp_cond2,3.0.4,60.04695141134329,
safety,&&&&&&,left,care.virtue,squets,,,,,,,,,,,,,,,0,143,143,229,,,,,,,,,,,,,AMP,left,1.0172174581093714,1,,,,,,,,,,,,,,left,1,1.0172174581093714,,,,,,,,,,,1022,2019_Mar_06_1501,mf_amp_cond2,3.0.4,60.04695141134329,
benefit,&&&&&&&&,left,fairness.virtue,sidearbs,,,,,,,,,,,,,,,0,144,144,295,,,,,,,,,,,,,AMP,left,0.9171407421818003,1,,,,,,,,,,,,,,left,1,0.9171407421818003,,,,,,,,,,,1022,2019_Mar_06_1501,mf_amp_cond2,3.0.4,60.04695141134329,
pafer,&&&&&,None,nonword,leact,,,,,,,,,,,,,,,0,145,145,33,,,,,,,,,,,,,AMP,right,1.0171677466714755,0,,,,,,,,,,,,,,right,0,1.0171677466714755,,,,,,,,,,,1022,2019_Mar_06_1501,mf_amp_cond2,3.0.4,60.04695141134329,
loyalty,&&&&&&,left,loyalty.virtue,forepo,,,,,,,,,,,,,,,0,146,146,70,,,,,,,,,,,,,AMP,right,0.8502821362344548,0,,,,,,,,,,,,,,right,0,0.8502821362344548,,,,,,,,,,,1022,2019_Mar_06_1501,mf_amp_cond2,3.0.4,60.04695141134329,
growth,&&&&&&,left,care.virtue,sgrawl,,,,,,,,,,,,,,,0,147,147,134,,,,,,,,,,,,,AMP,right,1.6506094615906477,0,,,,,,,,,,,,,,right,0,1.6506094615906477,,,,,,,,,,,1022,2019_Mar_06_1501,mf_amp_cond2,3.0.4,60.04695141134329,
dignity,&&&&&,left,sanctity.virtue,leact,,,,,,,,,,,,,,,0,148,148,210,,,,,,,,,,,,,AMP,right,1.2838767055654898,0,,,,,,,,,,,,,,right,0,1.2838767055654898,,,,,,,,,,,1022,2019_Mar_06_1501,mf_amp_cond2,3.0.4,60.04695141134329,
increase,&&&&&&,left,care.virtue,prones,,,,,,,,,,,,,,,0,149,149,86,,,,,,,,,,,,,AMP,left,1.9840474560623989,1,,,,,,,,,,,,,,left,1,1.9840474560623989,,,,,,,,,,,1022,2019_Mar_06_1501,mf_amp_cond2,3.0.4,60.04695141134329,
abuse,&&&&&&&&&&&,right,sanctity.vice,vicissifude,,,,,,,,,,,,,,,0,150,150,56,,,,,,,,,,,,,AMP,left,1.1338371608871967,0,,,,,,,,,,,,,,left,0,1.1338371608871967,,,,,,,,,,,1022,2019_Mar_06_1501,mf_amp_cond2,3.0.4,60.04695141134329,
pleasant,&&&&&&&&&&,None,control,fonderland,,,,,,,,,,,,,,,0,151,151,34,,,,,,,,,,,,,AMP,right,0.7169247703859583,0,,,,,,,,,,,,,,right,0,0.7169247703859583,,,,,,,,,,,1022,2019_Mar_06_1501,mf_amp_cond2,3.0.4,60.04695141134329,
chreams,&&&&&&&&,None,nonword,gowlands,,,,,,,,,,,,,,,0,152,152,156,,,,,,,,,,,,,AMP,right,2.15073582471814,0,,,,,,,,,,,,,,right,0,2.15073582471814,,,,,,,,,,,1022,2019_Mar_06_1501,mf_amp_cond2,3.0.4,60.04695141134329,
strong,&&&&&&,left,loyalty.virtue,letish,,,,,,,,,,,,,,,0,153,153,207,,,,,,,,,,,,,AMP,left,3.1010074412915856,1,,,,,,,,,,,,,,left,1,3.1010074412915856,,,,,,,,,,,1022,2019_Mar_06_1501,mf_amp_cond2,3.0.4,60.04695141134329,
celebrated,&&&&,left,authority.virtue,spag,,,,,,,,,,,,,,,0,154,154,150,,,,,,,,,,,,,AMP,left,0.8004228995414451,1,,,,,,,,,,,,,,left,1,0.8004228995414451,,,,,,,,,,,1022,2019_Mar_06_1501,mf_amp_cond2,3.0.4,60.04695141134329,
intelligence,&&&&&&&,left,loyalty.virtue,vurtain,,,,,,,,,,,,,,,0,155,155,256,,,,,,,,,,,,,AMP,left,2.984248867374845,1,,,,,,,,,,,,,,left,1,2.984248867374845,,,,,,,,,,,1022,2019_Mar_06_1501,mf_amp_cond2,3.0.4,60.04695141134329,
great,&&&&&&&&&,left,loyalty.virtue,neputized,,,,,,,,,,,,,,,0,156,156,14,,,,,,,,,,,,,AMP,left,0.6837319972692057,1,,,,,,,,,,,,,,left,1,0.6837319972692057,,,,,,,,,,,1022,2019_Mar_06_1501,mf_amp_cond2,3.0.4,60.04695141134329,
illegal,&&&&&&&&&&,right,fairness.vice,ammessment,,,,,,,,,,,,,,,0,157,157,185,,,,,,,,,,,,,AMP,right,1.9506375564960763,1,,,,,,,,,,,,,,right,1,1.9506375564960763,,,,,,,,,,,1022,2019_Mar_06_1501,mf_amp_cond2,3.0.4,60.04695141134329,
tracious,&&&&&&&&&&,None,nonword,ecgagement,,,,,,,,,,,,,,,0,158,158,31,,,,,,,,,,,,,AMP,left,2.7842349482234567,0,,,,,,,,,,,,,,left,0,2.7842349482234567,,,,,,,,,,,1022,2019_Mar_06_1501,mf_amp_cond2,3.0.4,60.04695141134329,
protesters,&&&&&&&,right,authority.vice,festate,,,,,,,,,,,,,,,0,159,159,131,,,,,,,,,,,,,AMP,right,0.7671076119877398,1,,,,,,,,,,,,,,right,1,0.7671076119877398,,,,,,,,,,,1022,2019_Mar_06_1501,mf_amp_cond2,3.0.4,60.04695141134329,
pleasant,&&&&&&&&&&,None,control,frocessing,,,,,,,,,,,,,,,0,160,160,113,,,,,,,,,,,,,AMP,left,0.9171234234236181,0,,,,,,,,,,,,,,left,0,0.9171234234236181,,,,,,,,,,,1022,2019_Mar_06_1501,mf_amp_cond2,3.0.4,60.04695141134329,
strong,&&&&&&&,left,loyalty.virtue,lursuer,,,,,,,,,,,,,,,0,161,161,51,,,,,,,,,,,,,AMP,left,0.6170510693918914,1,,,,,,,,,,,,,,left,1,0.6170510693918914,,,,,,,,,,,1022,2019_Mar_06_1501,mf_amp_cond2,3.0.4,60.04695141134329,
tracious,&&&&&&,None,nonword,prones,,,,,,,,,,,,,,,0,162,162,233,,,,,,,,,,,,,AMP,left,0.7004228354198858,0,,,,,,,,,,,,,,left,0,0.7004228354198858,,,,,,,,,,,1022,2019_Mar_06_1501,mf_amp_cond2,3.0.4,60.04695141134329,
victim,&&&&&&&&&,right,care.vice,rivernoat,,,,,,,,,,,,,,,0,163,163,203,,,,,,,,,,,,,AMP,right,0.9671314734732732,1,,,,,,,,,,,,,,right,1,0.9671314734732732,,,,,,,,,,,1022,2019_Mar_06_1501,mf_amp_cond2,3.0.4,60.04695141134329,
blamed,&&&&&&&&&&,right,loyalty.vice,galamitous,,,,,,,,,,,,,,,0,164,164,191,,,,,,,,,,,,,AMP,right,0.8837648389162496,1,,,,,,,,,,,,,,right,1,0.8837648389162496,,,,,,,,,,,1022,2019_Mar_06_1501,mf_amp_cond2,3.0.4,60.04695141134329,
actively,&&&&&&,left,authority.virtue,squets,,,,,,,,,,,,,,,0,165,165,128,,,,,,,,,,,,,AMP,left,2.1007434899220243,1,,,,,,,,,,,,,,left,1,2.1007434899220243,,,,,,,,,,,1022,2019_Mar_06_1501,mf_amp_cond2,3.0.4,60.04695141134329,
encourage,&&&&&&&&&&,left,authority.virtue,frocessing,,,,,,,,,,,,,,,0,166,166,166,,,,,,,,,,,,,AMP,right,0.7004023094195873,0,,,,,,,,,,,,,,right,0,0.7004023094195873,,,,,,,,,,,1022,2019_Mar_06_1501,mf_amp_cond2,3.0.4,60.04695141134329,
chreams,&&&&&&&&&,None,nonword,pescinded,,,,,,,,,,,,,,,0,167,167,268,,,,,,,,,,,,,AMP,right,1.233879239181988,0,,,,,,,,,,,,,,right,0,1.233879239181988,,,,,,,,,,,1022,2019_Mar_06_1501,mf_amp_cond2,3.0.4,60.04695141134329,
bruthfulness,&&&&&,None,nonword,leact,,,,,,,,,,,,,,,0,168,168,163,,,,,,,,,,,,,AMP,right,1.16711043426767,0,,,,,,,,,,,,,,right,0,1.16711043426767,,,,,,,,,,,1022,2019_Mar_06_1501,mf_amp_cond2,3.0.4,60.04695141134329,
threatened,&&&&&&&&&&&&&,right,fairness.vice,esquisiteness,,,,,,,,,,,,,,,0,169,169,204,,,,,,,,,,,,,AMP,right,0.6837220549350604,1,,,,,,,,,,,,,,right,1,0.6837220549350604,,,,,,,,,,,1022,2019_Mar_06_1501,mf_amp_cond2,3.0.4,60.04695141134329,
troops,&&&&&&&&,right,loyalty.vice,emassion,,,,,,,,,,,,,,,0,170,170,170,,,,,,,,,,,,,AMP,right,0.6837631070520729,1,,,,,,,,,,,,,,right,1,0.6837631070520729,,,,,,,,,,,1022,2019_Mar_06_1501,mf_amp_cond2,3.0.4,60.04695141134329,
clean,&&&&&&&,left,sanctity.virtue,nackers,,,,,,,,,,,,,,,0,171,171,160,,,,,,,,,,,,,AMP,right,1.0838358459295705,0,,,,,,,,,,,,,,right,0,1.0838358459295705,,,,,,,,,,,1022,2019_Mar_06_1501,mf_amp_cond2,3.0.4,60.04695141134329,
riot,&&&&&&&&&&,right,authority.vice,abointment,,,,,,,,,,,,,,,0,172,172,100,,,,,,,,,,,,,AMP,right,0.6004356000339612,1,,,,,,,,,,,,,,right,1,0.6004356000339612,,,,,,,,,,,1022,2019_Mar_06_1501,mf_amp_cond2,3.0.4,60.04695141134329,
strength,&&&&&&&&&&,left,sanctity.virtue,ammessment,,,,,,,,,,,,,,,0,173,173,63,,,,,,,,,,,,,AMP,right,1.4839207722106948,0,,,,,,,,,,,,,,right,0,1.4839207722106948,,,,,,,,,,,1022,2019_Mar_06_1501,mf_amp_cond2,3.0.4,60.04695141134329,
growth,&&&&&&&&&&,left,care.virtue,neutralust,,,,,,,,,,,,,,,0,174,174,28,,,,,,,,,,,,,AMP,right,1.5005965366726741,0,,,,,,,,,,,,,,right,0,1.5005965366726741,,,,,,,,,,,1022,2019_Mar_06_1501,mf_amp_cond2,3.0.4,60.04695141134329,
perfect,&&&&&&&,left,sanctity.virtue,nackers,,,,,,,,,,,,,,,0,175,175,57,,,,,,,,,,,,,AMP,right,1.4172523522283882,0,,,,,,,,,,,,,,right,0,1.4172523522283882,,,,,,,,,,,1022,2019_Mar_06_1501,mf_amp_cond2,3.0.4,60.04695141134329,
died,&&&&&&&&&&&&,right,care.vice,feleological,,,,,,,,,,,,,,,0,176,176,287,,,,,,,,,,,,,AMP,right,2.0507373641012236,1,,,,,,,,,,,,,,right,1,2.0507373641012236,,,,,,,,,,,1022,2019_Mar_06_1501,mf_amp_cond2,3.0.4,60.04695141134329,
intelligence,&&&&&&,left,loyalty.virtue,letish,,,,,,,,,,,,,,,0,177,177,143,,,,,,,,,,,,,AMP,left,0.9504739900585264,1,,,,,,,,,,,,,,left,1,0.9504739900585264,,,,,,,,,,,1022,2019_Mar_06_1501,mf_amp_cond2,3.0.4,60.04695141134329,
charges,&&&&&&&,right,fairness.vice,emports,,,,,,,,,,,,,,,0,178,178,247,,,,,,,,,,,,,AMP,right,0.9671452643815428,1,,,,,,,,,,,,,,right,1,0.9671452643815428,,,,,,,,,,,1022,2019_Mar_06_1501,mf_amp_cond2,3.0.4,60.04695141134329,
refuejing,&&&&&&&&,None,nonword,lachelor,,,,,,,,,,,,,,,0,179,179,76,,,,,,,,,,,,,AMP,left,1.6506357605103403,0,,,,,,,,,,,,,,left,0,1.6506357605103403,,,,,,,,,,,1022,2019_Mar_06_1501,mf_amp_cond2,3.0.4,60.04695141134329,
racist,&&&&&&&,right,sanctity.vice,emports,,,,,,,,,,,,,,,0,180,180,44,,,,,,,,,,,,,AMP,right,0.7837577188620344,1,,,,,,,,,,,,,,right,1,0.7837577188620344,,,,,,,,,,,1022,2019_Mar_06_1501,mf_amp_cond2,3.0.4,60.04695141134329,
fear,&&&&&&&&&&,right,sanctity.vice,Oregoniuns,,,,,,,,,,,,,,,0,181,181,169,,,,,,,,,,,,,AMP,right,0.7670825959648937,1,,,,,,,,,,,,,,right,1,0.7670825959648937,,,,,,,,,,,1022,2019_Mar_06_1501,mf_amp_cond2,3.0.4,60.04695141134329,
betrayal,&&&&&&&,right,loyalty.vice,nackers,,,,,,,,,,,,,,,0,182,182,246,,,,,,,,,,,,,AMP,right,0.6170414477819577,1,,,,,,,,,,,,,,right,1,0.6170414477819577,,,,,,,,,,,1022,2019_Mar_06_1501,mf_amp_cond2,3.0.4,60.04695141134329,
forced,&&&&&,right,fairness.vice,ablow,,,,,,,,,,,,,,,0,183,183,140,,,,,,,,,,,,,AMP,right,1.100496215862222,1,,,,,,,,,,,,,,right,1,1.100496215862222,,,,,,,,,,,1022,2019_Mar_06_1501,mf_amp_cond2,3.0.4,60.04695141134329,
loyalty,&&&&&&,left,loyalty.virtue,chared,,,,,,,,,,,,,,,0,184,184,225,,,,,,,,,,,,,AMP,right,1.750665010069497,0,,,,,,,,,,,,,,right,0,1.750665010069497,,,,,,,,,,,1022,2019_Mar_06_1501,mf_amp_cond2,3.0.4,60.04695141134329,
agreement,&&&&&&&&,left,fairness.virtue,fontacts,,,,,,,,,,,,,,,0,185,185,184,,,,,,,,,,,,,AMP,right,0.9171179712284356,0,,,,,,,,,,,,,,right,0,0.9171179712284356,,,,,,,,,,,1022,2019_Mar_06_1501,mf_amp_cond2,3.0.4,60.04695141134329,
chreams,&&&&&&&&&,None,nonword,reprisols,,,,,,,,,,,,,,,0,186,186,26,,,,,,,,,,,,,AMP,left,2.1174243858549744,0,,,,,,,,,,,,,,left,0,2.1174243858549744,,,,,,,,,,,1022,2019_Mar_06_1501,mf_amp_cond2,3.0.4,60.04695141134329,
fighters,&&&&&,right,authority.vice,viscs,,,,,,,,,,,,,,,0,187,187,99,,,,,,,,,,,,,AMP,left,0.5503749521449208,0,,,,,,,,,,,,,,left,0,0.5503749521449208,,,,,,,,,,,1022,2019_Mar_06_1501,mf_amp_cond2,3.0.4,60.04695141134329,
prosecution,&&&&&&&&&&&&,right,authority.vice,feleological,,,,,,,,,,,,,,,0,188,188,73,,,,,,,,,,,,,AMP,right,0.5670391706516966,1,,,,,,,,,,,,,,right,1,0.5670391706516966,,,,,,,,,,,1022,2019_Mar_06_1501,mf_amp_cond2,3.0.4,60.04695141134329,
victim,&&&&&&&&&,right,care.vice,discovars,,,,,,,,,,,,,,,0,189,189,60,,,,,,,,,,,,,AMP,left,0.8671038275351748,0,,,,,,,,,,,,,,left,0,0.8671038275351748,,,,,,,,,,,1022,2019_Mar_06_1501,mf_amp_cond2,3.0.4,60.04695141134329,
promote,&&&&&&&&&&&,left,sanctity.virtue,ronviolence,,,,,,,,,,,,,,,0,190,190,0,,,,,,,,,,,,,AMP,left,2.117413481348194,1,,,,,,,,,,,,,,left,1,2.117413481348194,,,,,,,,,,,1022,2019_Mar_06_1501,mf_amp_cond2,3.0.4,60.04695141134329,
prison,&&&&&&&&&&&,right,fairness.vice,vicissifude,,,,,,,,,,,,,,,0,191,191,216,,,,,,,,,,,,,AMP,left,1.4172177147120237,0,,,,,,,,,,,,,,left,0,1.4172177147120237,,,,,,,,,,,1022,2019_Mar_06_1501,mf_amp_cond2,3.0.4,60.04695141134329,
blamed,&&&&&&&&&,right,loyalty.vice,seachwear,,,,,,,,,,,,,,,0,192,192,133,,,,,,,,,,,,,AMP,right,1.3172157262451947,1,,,,,,,,,,,,,,right,1,1.3172157262451947,,,,,,,,,,,1022,2019_Mar_06_1501,mf_amp_cond2,3.0.4,60.04695141134329,
loyalty,&&&&&,left,loyalty.virtue,leact,,,,,,,,,,,,,,,0,193,193,293,,,,,,,,,,,,,AMP,right,1.6506508343154564,0,,,,,,,,,,,,,,right,0,1.6506508343154564,,,,,,,,,,,1022,2019_Mar_06_1501,mf_amp_cond2,3.0.4,60.04695141134329,
riot,&&&&&&&&&&&,right,authority.vice,ronviolence,,,,,,,,,,,,,,,0,194,194,271,,,,,,,,,,,,,AMP,right,1.4172513901721686,1,,,,,,,,,,,,,,right,1,1.4172513901721686,,,,,,,,,,,1022,2019_Mar_06_1501,mf_amp_cond2,3.0.4,60.04695141134329,
agreement,&&&&&&&&&&,left,fairness.virtue,abointment,,,,,,,,,,,,,,,0,195,195,252,,,,,,,,,,,,,AMP,right,0.7004019886953756,0,,,,,,,,,,,,,,right,0,0.7004019886953756,,,,,,,,,,,1022,2019_Mar_06_1501,mf_amp_cond2,3.0.4,60.04695141134329,
rejected,&&&&&&&&&,right,authority.vice,ittutable,,,,,,,,,,,,,,,0,196,196,260,,,,,,,,,,,,,AMP,left,1.1838513045804575,0,,,,,,,,,,,,,,left,0,1.1838513045804575,,,,,,,,,,,1022,2019_Mar_06_1501,mf_amp_cond2,3.0.4,60.04695141134329,
harassment,&&&&&&&&&,right,sanctity.vice,Phintoism,,,,,,,,,,,,,,,0,197,197,127,,,,,,,,,,,,,AMP,left,0.8504434576025233,0,,,,,,,,,,,,,,left,0,0.8504434576025233,,,,,,,,,,,1022,2019_Mar_06_1501,mf_amp_cond2,3.0.4,60.04695141134329,
penalty,&&&&&&,right,authority.vice,sgrawl,,,,,,,,,,,,,,,0,198,198,324,,,,,,,,,,,,,AMP,left,1.2505389676662162,0,,,,,,,,,,,,,,left,0,1.2505389676662162,,,,,,,,,,,1022,2019_Mar_06_1501,mf_amp_cond2,3.0.4,60.04695141134329,
threatened,&&&&,right,fairness.vice,coom,,,,,,,,,,,,,,,0,199,199,321,,,,,,,,,,,,,AMP,left,0.7337201627669856,0,,,,,,,,,,,,,,left,0,0.7337201627669856,,,,,,,,,,,1022,2019_Mar_06_1501,mf_amp_cond2,3.0.4,60.04695141134329,
terrorists,&&&,right,fairness.vice,mih,,,,,,,,,,,,,,,0,200,200,139,,,,,,,,,,,,,AMP,left,0.6170597287127748,0,,,,,,,,,,,,,,left,0,0.6170597287127748,,,,,,,,,,,1022,2019_Mar_06_1501,mf_amp_cond2,3.0.4,60.04695141134329,
hand,&&&&&&,left,sanctity.virtue,squets,,,,,,,,,,,,,,,0,201,201,250,,,,,,,,,,,,,AMP,left,1.5339564040768892,1,,,,,,,,,,,,,,left,1,1.5339564040768892,,,,,,,,,,,1022,2019_Mar_06_1501,mf_amp_cond2,3.0.4,60.04695141134329,
sexual,&&&&&&&&&&,right,sanctity.vice,Oregoniuns,,,,,,,,,,,,,,,0,202,202,120,,,,,,,,,,,,,AMP,right,1.3005011548520997,1,,,,,,,,,,,,,,right,1,1.3005011548520997,,,,,,,,,,,1022,2019_Mar_06_1501,mf_amp_cond2,3.0.4,60.04695141134329,
attacks,&&&&&&&&&&,right,care.vice,simplustic,,,,,,,,,,,,,,,0,203,203,85,,,,,,,,,,,,,AMP,left,1.9673912555444986,0,,,,,,,,,,,,,,left,0,1.9673912555444986,,,,,,,,,,,1022,2019_Mar_06_1501,mf_amp_cond2,3.0.4,60.04695141134329,
serial,&&&&&&&&&&&&,right,sanctity.vice,gusinesslike,,,,,,,,,,,,,,,0,204,204,286,,,,,,,,,,,,,AMP,right,1.0671347448369488,1,,,,,,,,,,,,,,right,1,1.0671347448369488,,,,,,,,,,,1022,2019_Mar_06_1501,mf_amp_cond2,3.0.4,60.04695141134329,
rejected,&&&&&&&&,right,authority.vice,gowlands,,,,,,,,,,,,,,,0,205,205,240,,,,,,,,,,,,,AMP,right,0.6337274750694633,1,,,,,,,,,,,,,,right,1,0.6337274750694633,,,,,,,,,,,1022,2019_Mar_06_1501,mf_amp_cond2,3.0.4,60.04695141134329,
threatened,&&&&&&&&&&&&&,right,fairness.vice,idexpressible,,,,,,,,,,,,,,,0,206,206,78,,,,,,,,,,,,,AMP,right,0.6837416187627241,1,,,,,,,,,,,,,,right,1,0.6837416187627241,,,,,,,,,,,1022,2019_Mar_06_1501,mf_amp_cond2,3.0.4,60.04695141134329,
respect,&&&&&,left,sanctity.virtue,touls,,,,,,,,,,,,,,,0,207,207,182,,,,,,,,,,,,,AMP,right,0.76710568764247,0,,,,,,,,,,,,,,right,0,0.76710568764247,,,,,,,,,,,1022,2019_Mar_06_1501,mf_amp_cond2,3.0.4,60.04695141134329,
critics,&&&&&&&&&,right,loyalty.vice,grovelire,,,,,,,,,,,,,,,0,208,208,167,,,,,,,,,,,,,AMP,right,1.3005409240722656,1,,,,,,,,,,,,,,right,1,1.3005409240722656,,,,,,,,,,,1022,2019_Mar_06_1501,mf_amp_cond2,3.0.4,60.04695141134329,
agreement,&&&&&&&&,left,fairness.virtue,fontacts,,,,,,,,,,,,,,,0,209,209,58,,,,,,,,,,,,,AMP,right,0.6170622943900526,0,,,,,,,,,,,,,,right,0,0.6170622943900526,,,,,,,,,,,1022,2019_Mar_06_1501,mf_amp_cond2,3.0.4,60.04695141134329,
benefit,&&&&&&&&,left,fairness.virtue,emassion,,,,,,,,,,,,,,,0,210,210,96,,,,,,,,,,,,,AMP,right,2.0507367226528004,0,,,,,,,,,,,,,,right,0,2.0507367226528004,,,,,,,,,,,1022,2019_Mar_06_1501,mf_amp_cond2,3.0.4,60.04695141134329,
loyalty,&&&&&&&&,left,loyalty.virtue,suggists,,,,,,,,,,,,,,,0,211,211,90,,,,,,,,,,,,,AMP,left,1.4839220551075414,1,,,,,,,,,,,,,,left,1,1.4839220551075414,,,,,,,,,,,1022,2019_Mar_06_1501,mf_amp_cond2,3.0.4,60.04695141134329,
bruthfulness,&&&&&&&,None,nonword,halaise,,,,,,,,,,,,,,,0,212,212,190,,,,,,,,,,,,,AMP,right,0.6837316765449941,0,,,,,,,,,,,,,,right,0,0.6837316765449941,,,,,,,,,,,1022,2019_Mar_06_1501,mf_amp_cond2,3.0.4,60.04695141134329,
protesters,&&&&&&&,right,authority.vice,festate,,,,,,,,,,,,,,,0,213,213,265,,,,,,,,,,,,,AMP,left,0.7504148496082053,0,,,,,,,,,,,,,,left,0,0.7504148496082053,,,,,,,,,,,1022,2019_Mar_06_1501,mf_amp_cond2,3.0.4,60.04695141134329,
penalty,&&&&&&&&,right,authority.vice,slending,,,,,,,,,,,,,,,0,214,214,223,,,,,,,,,,,,,AMP,right,1.0004823608323932,1,,,,,,,,,,,,,,right,1,1.0004823608323932,,,,,,,,,,,1022,2019_Mar_06_1501,mf_amp_cond2,3.0.4,60.04695141134329,
increase,&&&&&&&&&&&&,left,care.virtue,rorroborated,,,,,,,,,,,,,,,0,215,215,40,,,,,,,,,,,,,AMP,left,1.1505097181070596,1,,,,,,,,,,,,,,left,1,1.1505097181070596,,,,,,,,,,,1022,2019_Mar_06_1501,mf_amp_cond2,3.0.4,60.04695141134329,
intelligence,&&&&&&&&&,left,loyalty.virtue,faspberry,,,,,,,,,,,,,,,0,216,216,36,,,,,,,,,,,,,AMP,right,3.1176607554079965,0,,,,,,,,,,,,,,right,0,3.1176607554079965,,,,,,,,,,,1022,2019_Mar_06_1501,mf_amp_cond2,3.0.4,60.04695141134329,
forced,&&&&&&&&&&&,right,fairness.vice,shoirmaster,,,,,,,,,,,,,,,0,217,217,317,,,,,,,,,,,,,AMP,right,0.6670623265672475,1,,,,,,,,,,,,,,right,1,0.6670623265672475,,,,,,,,,,,1022,2019_Mar_06_1501,mf_amp_cond2,3.0.4,60.04695141134329,
useful,&&&&&&&&&,left,authority.virtue,brotesque,,,,,,,,,,,,,,,0,218,218,238,,,,,,,,,,,,,AMP,left,1.1505087559344247,1,,,,,,,,,,,,,,left,1,1.1505087559344247,,,,,,,,,,,1022,2019_Mar_06_1501,mf_amp_cond2,3.0.4,60.04695141134329,
ability,&&&&&,left,authority.virtue,viscs,,,,,,,,,,,,,,,0,219,219,47,,,,,,,,,,,,,AMP,left,0.6003740220330656,1,,,,,,,,,,,,,,left,1,0.6003740220330656,,,,,,,,,,,1022,2019_Mar_06_1501,mf_amp_cond2,3.0.4,60.04695141134329,
fighters,&&&&&&&&&&&,right,authority.vice,presentkess,,,,,,,,,,,,,,,0,220,220,5,,,,,,,,,,,,,AMP,left,0.5670205689966679,0,,,,,,,,,,,,,,left,0,0.5670205689966679,,,,,,,,,,,1022,2019_Mar_06_1501,mf_amp_cond2,3.0.4,60.04695141134329,
betrayal,&&&&&&&&&&&,right,loyalty.vice,neneficence,,,,,,,,,,,,,,,0,221,221,125,,,,,,,,,,,,,AMP,left,0.7004003851907328,0,,,,,,,,,,,,,,left,0,0.7004003851907328,,,,,,,,,,,1022,2019_Mar_06_1501,mf_amp_cond2,3.0.4,60.04695141134329,
violence,&&&&&,right,care.vice,infet,,,,,,,,,,,,,,,0,222,222,179,,,,,,,,,,,,,AMP,right,0.6003753049299121,1,,,,,,,,,,,,,,right,1,0.6003753049299121,,,,,,,,,,,1022,2019_Mar_06_1501,mf_amp_cond2,3.0.4,60.04695141134329,
prison,&&&&&&,right,fairness.vice,laming,,,,,,,,,,,,,,,0,223,223,104,,,,,,,,,,,,,AMP,left,0.7837638125056401,0,,,,,,,,,,,,,,left,0,0.7837638125056401,,,,,,,,,,,1022,2019_Mar_06_1501,mf_amp_cond2,3.0.4,60.04695141134329,
victims,&&&&&&&,right,care.vice,vurtain,,,,,,,,,,,,,,,0,224,224,50,,,,,,,,,,,,,AMP,left,0.5337505027418956,0,,,,,,,,,,,,,,left,0,0.5337505027418956,,,,,,,,,,,1022,2019_Mar_06_1501,mf_amp_cond2,3.0.4,60.04695141134329,
benefit,&&&&&&&,left,fairness.virtue,pharing,,,,,,,,,,,,,,,0,225,225,199,,,,,,,,,,,,,AMP,right,0.8004315589787439,0,,,,,,,,,,,,,,right,0,0.8004315589787439,,,,,,,,,,,1022,2019_Mar_06_1501,mf_amp_cond2,3.0.4,60.04695141134329,
papert,&&&&,None,nonword,erks,,,,,,,,,,,,,,,0,226,226,171,,,,,,,,,,,,,AMP,left,0.45035115478094667,0,,,,,,,,,,,,,,left,0,0.45035115478094667,,,,,,,,,,,1022,2019_Mar_06_1501,mf_amp_cond2,3.0.4,60.04695141134329,
black,&&&,right,loyalty.vice,mih,,,,,,,,,,,,,,,0,227,227,189,,,,,,,,,,,,,AMP,left,0.4002003849018365,0,,,,,,,,,,,,,,left,0,0.4002003849018365,,,,,,,,,,,1022,2019_Mar_06_1501,mf_amp_cond2,3.0.4,60.04695141134329,
serial,&&&&&&&&&&&&,right,sanctity.vice,iptervention,,,,,,,,,,,,,,,0,228,228,244,,,,,,,,,,,,,AMP,right,0.4503424954600632,1,,,,,,,,,,,,,,right,1,0.4503424954600632,,,,,,,,,,,1022,2019_Mar_06_1501,mf_amp_cond2,3.0.4,60.04695141134329,
praised,&&&&&&,left,loyalty.virtue,erdest,,,,,,,,,,,,,,,0,229,229,266,,,,,,,,,,,,,AMP,right,0.9504566713003442,0,,,,,,,,,,,,,,right,0,0.9504566713003442,,,,,,,,,,,1022,2019_Mar_06_1501,mf_amp_cond2,3.0.4,60.04695141134329,
army,&&&&&&&&&,right,loyalty.vice,brotesque,,,,,,,,,,,,,,,0,230,230,161,,,,,,,,,,,,,AMP,right,0.6337172121275216,1,,,,,,,,,,,,,,right,1,0.6337172121275216,,,,,,,,,,,1022,2019_Mar_06_1501,mf_amp_cond2,3.0.4,60.04695141134329,
shot,&&&&&&,right,care.vice,laming,,,,,,,,,,,,,,,0,231,231,39,,,,,,,,,,,,,AMP,left,1.2505424955161288,0,,,,,,,,,,,,,,left,0,1.2505424955161288,,,,,,,,,,,1022,2019_Mar_06_1501,mf_amp_cond2,3.0.4,60.04695141134329,
party,&&&&&&&&&,left,loyalty.virtue,brotesque,,,,,,,,,,,,,,,0,232,232,292,,,,,,,,,,,,,AMP,left,4.234751914511435,1,,,,,,,,,,,,,,left,1,4.234751914511435,,,,,,,,,,,1022,2019_Mar_06_1501,mf_amp_cond2,3.0.4,60.04695141134329,
refused,&&&&&&&&&,right,authority.vice,rivernoat,,,,,,,,,,,,,,,0,233,233,258,,,,,,,,,,,,,AMP,right,0.5503938745241612,1,,,,,,,,,,,,,,right,1,0.5503938745241612,,,,,,,,,,,1022,2019_Mar_06_1501,mf_amp_cond2,3.0.4,60.04695141134329,
sickyay,&&&&&&,None,nonword,forepo,,,,,,,,,,,,,,,0,234,234,198,,,,,,,,,,,,,AMP,right,0.7504151703324169,0,,,,,,,,,,,,,,right,0,0.7504151703324169,,,,,,,,,,,1022,2019_Mar_06_1501,mf_amp_cond2,3.0.4,60.04695141134329,
harassment,&&&&&&&&,right,sanctity.vice,slending,,,,,,,,,,,,,,,0,235,235,9,,,,,,,,,,,,,AMP,right,0.5670532821677625,1,,,,,,,,,,,,,,right,1,0.5670532821677625,,,,,,,,,,,1022,2019_Mar_06_1501,mf_amp_cond2,3.0.4,60.04695141134329,
fighters,&&&&&&&,right,authority.vice,Loorish,,,,,,,,,,,,,,,0,236,236,164,,,,,,,,,,,,,AMP,left,1.0504884865367785,0,,,,,,,,,,,,,,left,0,1.0504884865367785,,,,,,,,,,,1022,2019_Mar_06_1501,mf_amp_cond2,3.0.4,60.04695141134329,
riot,&&&&&&&&&&,right,authority.vice,fonderland,,,,,,,,,,,,,,,0,237,237,205,,,,,,,,,,,,,AMP,left,1.300556318485178,0,,,,,,,,,,,,,,left,0,1.300556318485178,,,,,,,,,,,1022,2019_Mar_06_1501,mf_amp_cond2,3.0.4,60.04695141134329,
forced,&&&&&&&&&,right,fairness.vice,faspberry,,,,,,,,,,,,,,,0,238,238,178,,,,,,,,,,,,,AMP,right,0.767079709446989,1,,,,,,,,,,,,,,right,1,0.767079709446989,,,,,,,,,,,1022,2019_Mar_06_1501,mf_amp_cond2,3.0.4,60.04695141134329,
abuse,&&&&&&&&&&&&,right,sanctity.vice,rorroborated,,,,,,,,,,,,,,,0,239,239,200,,,,,,,,,,,,,AMP,left,0.8004155230009928,0,,,,,,,,,,,,,,left,0,0.8004155230009928,,,,,,,,,,,1022,2019_Mar_06_1501,mf_amp_cond2,3.0.4,60.04695141134329,
papert,&&&&&&,None,nonword,gikely,,,,,,,,,,,,,,,0,240,240,53,,,,,,,,,,,,,AMP,right,1.5172655658097938,0,,,,,,,,,,,,,,right,0,1.5172655658097938,,,,,,,,,,,1022,2019_Mar_06_1501,mf_amp_cond2,3.0.4,60.04695141134329,
hand,&&&&&&&&&&,left,sanctity.virtue,ecgagement,,,,,,,,,,,,,,,0,241,241,138,,,,,,,,,,,,,AMP,right,0.7171293888241053,0,,,,,,,,,,,,,,right,0,0.7171293888241053,,,,,,,,,,,1022,2019_Mar_06_1501,mf_amp_cond2,3.0.4,60.04695141134329,
rejected,&&&&&&&&&,right,authority.vice,gaultless,,,,,,,,,,,,,,,0,242,242,18,,,,,,,,,,,,,AMP,right,1.9508043301757425,1,,,,,,,,,,,,,,right,1,1.9508043301757425,,,,,,,,,,,1022,2019_Mar_06_1501,mf_amp_cond2,3.0.4,60.04695141134329,
killed,&&&&&&&&&&&,right,care.vice,vicissifude,,,,,,,,,,,,,,,0,243,243,263,,,,,,,,,,,,,AMP,left,0.8004267481155694,0,,,,,,,,,,,,,,left,0,0.8004267481155694,,,,,,,,,,,1022,2019_Mar_06_1501,mf_amp_cond2,3.0.4,60.04695141134329,
