words,nonwords,mask,corr_ans,category,tweets,topic,AMP_prac_loop.thisRepN,AMP_prac_loop.thisTrialN,AMP_prac_loop.thisN,AMP_prac_loop.thisIndex,AMP_trials.thisRepN,AMP_trials.thisTrialN,AMP_trials.thisN,AMP_trials.thisIndex,LDT_prac_loop.thisRepN,LDT_prac_loop.thisTrialN,LDT_prac_loop.thisN,LDT_prac_loop.thisIndex,LDT_loop.thisRepN,LDT_loop.thisTrialN,LDT_loop.thisN,LDT_loop.thisIndex,tweet_loop.thisRepN,tweet_loop.thisTrialN,tweet_loop.thisN,tweet_loop.thisIndex,begin_key.keys,begin_key.rt,key_resp_AMP_instr1.keys,key_resp_AMP_instr1.rt,resp_AMP_ready1.keys,resp_AMP_ready1.rt,resp_AMP_prac.keys,resp_AMP_prac.rt,task,keypress,RT,resp_AMP_ready.keys,resp_AMP_ready.rt,resp_AMP.keys,resp_AMP.corr,resp_AMP.rt,corr,AMP_nonword_rating.response,AMP_nonword_rating.rt,AMP_word_rating.response,AMP_word_rating.rt,AMP_random_rating.response,AMP_random_rating.rt,key_resp_LDT_instr.keys,key_resp_LDT_instr.rt,resp_LDT_prac.keys,resp_LDT_prac.rt,resp_LDT_ready.keys,resp_LDT_ready.rt,resp_LDT.keys,resp_LDT.corr,resp_LDT.rt,LDT_rating.response,LDT_rating.rt,key_resp_LDT_instr_2.keys,key_resp_LDT_instr_2.rt,resp_tweets.keys,resp_tweets.rt,participant,date,expName,psychopyVersion,frameRate,
,,,,,,,,,,,,,,,,,,,,,,,,,,,right,291.27726705768146,,,,,,,,,,,,,,,,,,,,,,,,,,,,,,,,,,,,,1023,2019_Mar_06_1502,mf_amp_cond1,3.0.4,59.986474839409276,
,,,,,,,,,,,,,,,,,,,,,,,,,,,,,right,0.5169101028004661,,,,,,,,,,,,,,,,,,,,,,,,,,,,,,,,,,,1023,2019_Mar_06_1502,mf_amp_cond1,3.0.4,59.986474839409276,
,,,,,,,,,,,,,,,,,,,,,,,,,,,,,,,right,3.100993640255183,,,,,,,,,,,,,,,,,,,,,,,,,,,,,,,,,1023,2019_Mar_06_1502,mf_amp_cond1,3.0.4,59.986474839409276,
keyboard,senk,&&&&,,,,,0,0,0,2,,,,,,,,,,,,,,,,,,,,,,,right,1.6173290027072653,AMP_prac,right,1.6173290027072653,,,,,,,,,,,,,,,,,,,,,,,,,,,,1023,2019_Mar_06_1502,mf_amp_cond1,3.0.4,59.986474839409276,
banana,kacket,&&&&&&,,,,,0,1,1,1,,,,,,,,,,,,,,,,,,,,,,,right,1.4006281092297286,AMP_prac,right,1.4006281092297286,,,,,,,,,,,,,,,,,,,,,,,,,,,,1023,2019_Mar_06_1502,mf_amp_cond1,3.0.4,59.986474839409276,
car,cemtuper,&&&&&&&&,,,,,0,2,2,0,,,,,,,,,,,,,,,,,,,,,,,right,0.6837724655633792,AMP_prac,right,0.6837724655633792,,,,,,,,,,,,,,,,,,,,,,,,,,,,1023,2019_Mar_06_1502,mf_amp_cond1,3.0.4,59.986474839409276,
scarf,bisebell,&&&&&&&&,,,,,0,3,3,3,,,,,,,,,,,,,,,,,,,,,,,right,0.75042087235488,AMP_prac,right,0.75042087235488,,,,,,,,,,,,,,,,,,,,,,,,,,,,1023,2019_Mar_06_1502,mf_amp_cond1,3.0.4,59.986474839409276,
,,,,,,,,,,,,,,,,,,,,,,,,,,,,,,,,,,,,,,right,3.0177778262877837,,,,,,,,,,,,,,,,,,,,,,,,,,1023,2019_Mar_06_1502,mf_amp_cond1,3.0.4,59.986474839409276,
fighters,crilfully,&&&&&&&&&,right,authority.vice,,,,,,,0,0,0,0,,,,,,,,,,,,,,,,,,,,,AMP,left,0.6337347642984241,,,left,0,0.6337347642984241,0,,,,,,,,,,,,,,,,,,,,,,1023,2019_Mar_06_1502,mf_amp_cond1,3.0.4,59.986474839409276,
encourage,carvels,&&&&&&&,left,authority.virtue,,,,,,,0,1,1,1,,,,,,,,,,,,,,,,,,,,,AMP,right,0.2669573297025636,,,right,0,0.2669573297025636,0,,,,,,,,,,,,,,,,,,,,,,1023,2019_Mar_06_1502,mf_amp_cond1,3.0.4,59.986474839409276,
unpleasant,pharing,&&&&&&&,None,control,,,,,,,0,2,2,2,,,,,,,,,,,,,,,,,,,,,AMP,right,0.8671137155033648,,,right,0,0.8671137155033648,0,,,,,,,,,,,,,,,,,,,,,,1023,2019_Mar_06_1502,mf_amp_cond1,3.0.4,59.986474839409276,
refuejing,esquisiteness,&&&&&&&&&&&&&,None,nonword,,,,,,,0,3,3,3,,,,,,,,,,,,,,,,,,,,,AMP,right,1.1505316509865224,,,right,0,1.1505316509865224,0,,,,,,,,,,,,,,,,,,,,,,1023,2019_Mar_06_1502,mf_amp_cond1,3.0.4,59.986474839409276,
betrayal,blunderints,&&&&&&&&&&&,right,loyalty.vice,,,,,,,0,4,4,4,,,,,,,,,,,,,,,,,,,,,AMP,left,0.3003201804822311,,,left,0,0.3003201804822311,0,,,,,,,,,,,,,,,,,,,,,,1023,2019_Mar_06_1502,mf_amp_cond1,3.0.4,59.986474839409276,
rejected,disregord,&&&&&&&&&,right,authority.vice,,,,,,,0,5,5,5,,,,,,,,,,,,,,,,,,,,,AMP,left,0.517041279701516,,,left,0,0.517041279701516,0,,,,,,,,,,,,,,,,,,,,,,1023,2019_Mar_06_1502,mf_amp_cond1,3.0.4,59.986474839409276,
blamed,reviked,&&&&&&&,right,loyalty.vice,,,,,,,0,6,6,6,,,,,,,,,,,,,,,,,,,,,AMP,left,0.4170130236307159,,,left,0,0.4170130236307159,0,,,,,,,,,,,,,,,,,,,,,,1023,2019_Mar_06_1502,mf_amp_cond1,3.0.4,59.986474839409276,
slavery,frojecting,&&&&&&&&&&,right,loyalty.vice,,,,,,,0,7,7,7,,,,,,,,,,,,,,,,,,,,,AMP,left,2.0174356119241565,,,left,0,2.0174356119241565,0,,,,,,,,,,,,,,,,,,,,,,1023,2019_Mar_06_1502,mf_amp_cond1,3.0.4,59.986474839409276,
trust,ittutable,&&&&&&&&&,left,authority.virtue,,,,,,,0,8,8,8,,,,,,,,,,,,,,,,,,,,,AMP,right,0.11696417722851038,,,right,0,0.11696417722851038,0,,,,,,,,,,,,,,,,,,,,,,1023,2019_Mar_06_1502,mf_amp_cond1,3.0.4,59.986474839409276,
rebels,tabin,&&&&&,right,authority.vice,,,,,,,0,9,9,9,,,,,,,,,,,,,,,,,,,,,AMP,left,0.33364711003378034,,,left,0,0.33364711003378034,0,,,,,,,,,,,,,,,,,,,,,,1023,2019_Mar_06_1502,mf_amp_cond1,3.0.4,59.986474839409276,
egpeditious,chared,&&&&&&,None,nonword,,,,,,,0,10,10,10,,,,,,,,,,,,,,,,,,,,,AMP,right,0.9671493481146172,,,right,0,0.9671493481146172,0,,,,,,,,,,,,,,,,,,,,,,1023,2019_Mar_06_1502,mf_amp_cond1,3.0.4,59.986474839409276,
powerful,greaks,&&&&&&,left,authority.virtue,,,,,,,0,11,11,11,,,,,,,,,,,,,,,,,,,,,AMP,left,0.3836662092944607,,,left,1,0.3836662092944607,1,,,,,,,,,,,,,,,,,,,,,,1023,2019_Mar_06_1502,mf_amp_cond1,3.0.4,59.986474839409276,
conspiracy,gowlands,&&&&&&&&,right,sanctity.vice,,,,,,,0,12,12,12,,,,,,,,,,,,,,,,,,,,,AMP,left,0.9171363427303731,,,left,0,0.9171363427303731,0,,,,,,,,,,,,,,,,,,,,,,1023,2019_Mar_06_1502,mf_amp_cond1,3.0.4,59.986474839409276,
ecgagement,mecan,&&&&&,None,nonword,,,,,,,0,13,13,13,,,,,,,,,,,,,,,,,,,,,AMP,right,1.7340186386136338,,,right,0,1.7340186386136338,0,,,,,,,,,,,,,,,,,,,,,,1023,2019_Mar_06_1502,mf_amp_cond1,3.0.4,59.986474839409276,
halaise,spag,&&&&,None,nonword,,,,,,,0,14,14,14,,,,,,,,,,,,,,,,,,,,,AMP,left,0.7504356256686151,,,left,0,0.7504356256686151,0,,,,,,,,,,,,,,,,,,,,,,1023,2019_Mar_06_1502,mf_amp_cond1,3.0.4,59.986474839409276,
army,lachelor,&&&&&&&&,right,loyalty.vice,,,,,,,0,15,15,15,,,,,,,,,,,,,,,,,,,,,AMP,left,0.8671201301040128,,,left,0,0.8671201301040128,0,,,,,,,,,,,,,,,,,,,,,,1023,2019_Mar_06_1502,mf_amp_cond1,3.0.4,59.986474839409276,
peace,fonderland,&&&&&&&&&&,left,care.virtue,,,,,,,0,16,16,16,,,,,,,,,,,,,,,,,,,,,AMP,right,0.4170136651955545,,,right,0,0.4170136651955545,0,,,,,,,,,,,,,,,,,,,,,,1023,2019_Mar_06_1502,mf_amp_cond1,3.0.4,59.986474839409276,
protect,gandbrake,&&&&&&&&&,left,fairness.virtue,,,,,,,0,17,17,17,,,,,,,,,,,,,,,,,,,,,AMP,right,0.6004081555875018,,,right,0,0.6004081555875018,0,,,,,,,,,,,,,,,,,,,,,,1023,2019_Mar_06_1502,mf_amp_cond1,3.0.4,59.986474839409276,
suicide,unscothed,&&&&&&&&&,right,care.vice,,,,,,,0,18,18,18,,,,,,,,,,,,,,,,,,,,,AMP,left,0.4336519528878853,,,left,0,0.4336519528878853,0,,,,,,,,,,,,,,,,,,,,,,1023,2019_Mar_06_1502,mf_amp_cond1,3.0.4,59.986474839409276,
interests,thabbily,&&&&&&&&,left,fairness.virtue,,,,,,,0,19,19,19,,,,,,,,,,,,,,,,,,,,,AMP,right,1.0004913518205285,,,right,0,1.0004913518205285,0,,,,,,,,,,,,,,,,,,,,,,1023,2019_Mar_06_1502,mf_amp_cond1,3.0.4,59.986474839409276,
compassion,discovars,&&&&&&&&&,left,care.virtue,,,,,,,0,20,20,20,,,,,,,,,,,,,,,,,,,,,AMP,right,0.5170480149099603,,,right,0,0.5170480149099603,0,,,,,,,,,,,,,,,,,,,,,,1023,2019_Mar_06_1502,mf_amp_cond1,3.0.4,59.986474839409276,
harassment,synchronazers,&&&&&&&&&&&&&,right,sanctity.vice,,,,,,,0,21,21,21,,,,,,,,,,,,,,,,,,,,,AMP,left,0.8838206386426464,,,left,0,0.8838206386426464,0,,,,,,,,,,,,,,,,,,,,,,1023,2019_Mar_06_1502,mf_amp_cond1,3.0.4,59.986474839409276,
fangsters,wonderfujnoss,&&&&&&&&&&&&&,None,nonword,,,,,,,0,22,22,22,,,,,,,,,,,,,,,,,,,,,AMP,right,1.2005529953166842,,,right,0,1.2005529953166842,0,,,,,,,,,,,,,,,,,,,,,,1023,2019_Mar_06_1502,mf_amp_cond1,3.0.4,59.986474839409276,
respect,touls,&&&&&,left,sanctity.virtue,,,,,,,0,23,23,23,,,,,,,,,,,,,,,,,,,,,AMP,right,0.6503999930573627,,,right,0,0.6503999930573627,0,,,,,,,,,,,,,,,,,,,,,,1023,2019_Mar_06_1502,mf_amp_cond1,3.0.4,59.986474839409276,
sharing,emports,&&&&&&&,left,loyalty.virtue,,,,,,,0,24,24,24,,,,,,,,,,,,,,,,,,,,,AMP,right,0.6170640832278877,,,right,0,0.6170640832278877,0,,,,,,,,,,,,,,,,,,,,,,1023,2019_Mar_06_1502,mf_amp_cond1,3.0.4,59.986474839409276,
perfect,nonobservalt,&&&&&&&&&&&&,left,sanctity.virtue,,,,,,,0,25,25,25,,,,,,,,,,,,,,,,,,,,,AMP,right,0.6503983894363046,,,right,0,0.6503983894363046,0,,,,,,,,,,,,,,,,,,,,,,1023,2019_Mar_06_1502,mf_amp_cond1,3.0.4,59.986474839409276,
freedom,gaultless,&&&&&&&&&,left,sanctity.virtue,,,,,,,0,26,26,26,,,,,,,,,,,,,,,,,,,,,AMP,right,1.4005944330710918,,,right,0,1.4005944330710918,0,,,,,,,,,,,,,,,,,,,,,,1023,2019_Mar_06_1502,mf_amp_cond1,3.0.4,59.986474839409276,
Daptist,sgrawl,&&&&&&,None,nonword,,,,,,,0,27,27,27,,,,,,,,,,,,,,,,,,,,,AMP,left,0.5670549265341833,,,left,0,0.5670549265341833,0,,,,,,,,,,,,,,,,,,,,,,1023,2019_Mar_06_1502,mf_amp_cond1,3.0.4,59.986474839409276,
fair,totalestic,&&&&&&&&&&,left,fairness.virtue,,,,,,,0,28,28,28,,,,,,,,,,,,,,,,,,,,,AMP,right,1.0171748618595302,,,right,0,1.0171748618595302,0,,,,,,,,,,,,,,,,,,,,,,1023,2019_Mar_06_1502,mf_amp_cond1,3.0.4,59.986474839409276,
men,infet,&&&&&,right,loyalty.vice,,,,,,,0,29,29,29,,,,,,,,,,,,,,,,,,,,,AMP,right,0.9671557627152652,,,right,1,0.9671557627152652,1,,,,,,,,,,,,,,,,,,,,,,1023,2019_Mar_06_1502,mf_amp_cond1,3.0.4,59.986474839409276,
strong,viscs,&&&&&,left,loyalty.virtue,,,,,,,0,30,30,30,,,,,,,,,,,,,,,,,,,,,AMP,right,1.200551391695626,,,right,0,1.200551391695626,0,,,,,,,,,,,,,,,,,,,,,,1023,2019_Mar_06_1502,mf_amp_cond1,3.0.4,59.986474839409276,
troops,abointment,&&&&&&&&&&,right,loyalty.vice,,,,,,,0,31,31,31,,,,,,,,,,,,,,,,,,,,,AMP,left,0.5170342237688601,,,left,0,0.5170342237688601,0,,,,,,,,,,,,,,,,,,,,,,1023,2019_Mar_06_1502,mf_amp_cond1,3.0.4,59.986474839409276,
safe,presentkess,&&&&&&&&&&&,left,care.virtue,,,,,,,0,32,32,32,,,,,,,,,,,,,,,,,,,,,AMP,right,0.5836595381842926,,,right,0,0.5836595381842926,0,,,,,,,,,,,,,,,,,,,,,,1023,2019_Mar_06_1502,mf_amp_cond1,3.0.4,59.986474839409276,
free,scalbel,&&&&&&&,left,fairness.virtue,,,,,,,0,33,33,33,,,,,,,,,,,,,,,,,,,,,AMP,right,0.6004270783159882,,,right,0,0.6004270783159882,0,,,,,,,,,,,,,,,,,,,,,,1023,2019_Mar_06_1502,mf_amp_cond1,3.0.4,59.986474839409276,
growth,simplustic,&&&&&&&&&&,left,care.virtue,,,,,,,0,34,34,34,,,,,,,,,,,,,,,,,,,,,AMP,right,1.6673381594009697,,,right,0,1.6673381594009697,0,,,,,,,,,,,,,,,,,,,,,,1023,2019_Mar_06_1502,mf_amp_cond1,3.0.4,59.986474839409276,
dignity,stindig,&&&&&&&,left,sanctity.virtue,,,,,,,0,35,35,35,,,,,,,,,,,,,,,,,,,,,AMP,right,0.8337717119138688,,,right,0,0.8337717119138688,0,,,,,,,,,,,,,,,,,,,,,,1023,2019_Mar_06_1502,mf_amp_cond1,3.0.4,59.986474839409276,
forced,dormandi,&&&&&&&&,right,fairness.vice,,,,,,,0,36,36,36,,,,,,,,,,,,,,,,,,,,,AMP,left,1.2172185446834192,,,left,0,1.2172185446834192,0,,,,,,,,,,,,,,,,,,,,,,1023,2019_Mar_06_1502,mf_amp_cond1,3.0.4,59.986474839409276,
serial,lempestuous,&&&&&&&&&&&,right,sanctity.vice,,,,,,,0,37,37,37,,,,,,,,,,,,,,,,,,,,,AMP,left,3.2177515908842906,,,left,0,3.2177515908842906,0,,,,,,,,,,,,,,,,,,,,,,1023,2019_Mar_06_1502,mf_amp_cond1,3.0.4,59.986474839409276,
victims,sfumatoy,&&&&&&&&,right,care.vice,,,,,,,0,38,38,38,,,,,,,,,,,,,,,,,,,,,AMP,left,0.4336817804723978,,,left,0,0.4336817804723978,0,,,,,,,,,,,,,,,,,,,,,,1023,2019_Mar_06_1502,mf_amp_cond1,3.0.4,59.986474839409276,
corruption,tomedians,&&&&&&&&&,right,sanctity.vice,,,,,,,0,39,39,39,,,,,,,,,,,,,,,,,,,,,AMP,left,0.36700322560500354,,,left,0,0.36700322560500354,0,,,,,,,,,,,,,,,,,,,,,,1023,2019_Mar_06_1502,mf_amp_cond1,3.0.4,59.986474839409276,
intelligence,neputized,&&&&&&&&&,left,loyalty.virtue,,,,,,,0,40,40,40,,,,,,,,,,,,,,,,,,,,,AMP,right,0.41686869703698903,,,right,0,0.41686869703698903,0,,,,,,,,,,,,,,,,,,,,,,1023,2019_Mar_06_1502,mf_amp_cond1,3.0.4,59.986474839409276,
promised,erks,&&&&,left,loyalty.virtue,,,,,,,0,41,41,41,,,,,,,,,,,,,,,,,,,,,AMP,right,0.3336467893095687,,,right,0,0.3336467893095687,0,,,,,,,,,,,,,,,,,,,,,,1023,2019_Mar_06_1502,mf_amp_cond1,3.0.4,59.986474839409276,
officers,hasks,&&&&&,right,authority.vice,,,,,,,0,42,42,42,,,,,,,,,,,,,,,,,,,,,AMP,left,0.4170252112671733,,,left,0,0.4170252112671733,0,,,,,,,,,,,,,,,,,,,,,,1023,2019_Mar_06_1502,mf_amp_cond1,3.0.4,59.986474839409276,
health,ronviolence,&&&&&&&&&&&,left,care.virtue,,,,,,,0,43,43,43,,,,,,,,,,,,,,,,,,,,,AMP,right,1.0004374699201435,,,right,0,1.0004374699201435,0,,,,,,,,,,,,,,,,,,,,,,1023,2019_Mar_06_1502,mf_amp_cond1,3.0.4,59.986474839409276,
death,vurtain,&&&&&&&,right,care.vice,,,,,,,0,44,44,44,,,,,,,,,,,,,,,,,,,,,AMP,left,0.4003458706429228,,,left,0,0.4003458706429228,0,,,,,,,,,,,,,,,,,,,,,,1023,2019_Mar_06_1502,mf_amp_cond1,3.0.4,59.986474839409276,
victim,edancipation,&&&&&&&&&&&&,right,care.vice,,,,,,,0,45,45,45,,,,,,,,,,,,,,,,,,,,,AMP,left,1.2172265629051253,,,left,0,1.2172265629051253,0,,,,,,,,,,,,,,,,,,,,,,1023,2019_Mar_06_1502,mf_amp_cond1,3.0.4,59.986474839409276,
groups,pulge,&&&&&,right,loyalty.vice,,,,,,,0,46,46,46,,,,,,,,,,,,,,,,,,,,,AMP,left,0.6837452038889751,,,left,0,0.6837452038889751,0,,,,,,,,,,,,,,,,,,,,,,1023,2019_Mar_06_1502,mf_amp_cond1,3.0.4,59.986474839409276,
win,grovelire,&&&&&&&&&,left,fairness.virtue,,,,,,,0,47,47,47,,,,,,,,,,,,,,,,,,,,,AMP,right,1.0004913517041132,,,right,0,1.0004913517041132,0,,,,,,,,,,,,,,,,,,,,,,1023,2019_Mar_06_1502,mf_amp_cond1,3.0.4,59.986474839409276,
illegal,divility,&&&&&&&&,right,fairness.vice,,,,,,,0,48,48,48,,,,,,,,,,,,,,,,,,,,,AMP,left,0.40037088724784553,,,left,0,0.40037088724784553,0,,,,,,,,,,,,,,,,,,,,,,1023,2019_Mar_06_1502,mf_amp_cond1,3.0.4,59.986474839409276,
praised,nomparisons,&&&&&&&&&&&,left,loyalty.virtue,,,,,,,0,49,49,49,,,,,,,,,,,,,,,,,,,,,AMP,right,1.6673564407974482,,,right,0,1.6673564407974482,0,,,,,,,,,,,,,,,,,,,,,,1023,2019_Mar_06_1502,mf_amp_cond1,3.0.4,59.986474839409276,
accused,ning,&&&&,right,fairness.vice,,,,,,,0,50,50,50,,,,,,,,,,,,,,,,,,,,,AMP,left,0.683742958935909,,,left,0,0.683742958935909,0,,,,,,,,,,,,,,,,,,,,,,1023,2019_Mar_06_1502,mf_amp_cond1,3.0.4,59.986474839409276,
actively,ammessment,&&&&&&&&&&,left,authority.virtue,,,,,,,0,51,51,51,,,,,,,,,,,,,,,,,,,,,AMP,left,3.7345186499878764,,,left,1,3.7345186499878764,1,,,,,,,,,,,,,,,,,,,,,,1023,2019_Mar_06_1502,mf_amp_cond1,3.0.4,59.986474839409276,
riot,epigrach,&&&&&&&&,right,authority.vice,,,,,,,0,52,52,52,,,,,,,,,,,,,,,,,,,,,AMP,left,0.4003622275777161,,,left,0,0.4003622275777161,0,,,,,,,,,,,,,,,,,,,,,,1023,2019_Mar_06_1502,mf_amp_cond1,3.0.4,59.986474839409276,
help,gondensed,&&&&&&&&&,left,care.virtue,,,,,,,0,53,53,53,,,,,,,,,,,,,,,,,,,,,AMP,left,0.6003860253840685,,,left,1,0.6003860253840685,1,,,,,,,,,,,,,,,,,,,,,,1023,2019_Mar_06_1502,mf_amp_cond1,3.0.4,59.986474839409276,
love,lenon,&&&&&,left,loyalty.virtue,,,,,,,0,54,54,54,,,,,,,,,,,,,,,,,,,,,AMP,right,0.33364358195103705,,,right,0,0.33364358195103705,0,,,,,,,,,,,,,,,,,,,,,,1023,2019_Mar_06_1502,mf_amp_cond1,3.0.4,59.986474839409276,
war,asn,&&&,right,sanctity.vice,,,,,,,0,55,55,55,,,,,,,,,,,,,,,,,,,,,AMP,left,0.4836906164418906,,,left,0,0.4836906164418906,0,,,,,,,,,,,,,,,,,,,,,,1023,2019_Mar_06_1502,mf_amp_cond1,3.0.4,59.986474839409276,
voter,clamorek,&&&&&&&&,right,fairness.vice,,,,,,,0,56,56,56,,,,,,,,,,,,,,,,,,,,,AMP,left,1.5339842567918822,,,left,0,1.5339842567918822,0,,,,,,,,,,,,,,,,,,,,,,1023,2019_Mar_06_1502,mf_amp_cond1,3.0.4,59.986474839409276,
progress,wump,&&&&,left,authority.virtue,,,,,,,0,57,57,57,,,,,,,,,,,,,,,,,,,,,AMP,left,0.8170971821527928,,,left,1,0.8170971821527928,1,,,,,,,,,,,,,,,,,,,,,,1023,2019_Mar_06_1502,mf_amp_cond1,3.0.4,59.986474839409276,
attacks,Boeinf,&&&&&&,right,care.vice,,,,,,,0,58,58,58,,,,,,,,,,,,,,,,,,,,,AMP,left,0.6337370093679056,,,left,0,0.6337370093679056,0,,,,,,,,,,,,,,,,,,,,,,1023,2019_Mar_06_1502,mf_amp_cond1,3.0.4,59.986474839409276,
crime,leact,&&&&&,right,fairness.vice,,,,,,,0,59,59,59,,,,,,,,,,,,,,,,,,,,,AMP,left,0.11692440719343722,,,left,0,0.11692440719343722,0,,,,,,,,,,,,,,,,,,,,,,1023,2019_Mar_06_1502,mf_amp_cond1,3.0.4,59.986474839409276,
strength,juck,&&&&,left,sanctity.virtue,,,,,,,0,60,60,60,,,,,,,,,,,,,,,,,,,,,AMP,right,0.5503787930356339,,,right,0,0.5503787930356339,0,,,,,,,,,,,,,,,,,,,,,,1023,2019_Mar_06_1502,mf_amp_cond1,3.0.4,59.986474839409276,
support,proached,&&&&&&&&,left,loyalty.virtue,,,,,,,0,61,61,61,,,,,,,,,,,,,,,,,,,,,AMP,right,0.9838283681310713,,,right,0,0.9838283681310713,0,,,,,,,,,,,,,,,,,,,,,,1023,2019_Mar_06_1502,mf_amp_cond1,3.0.4,59.986474839409276,
pleasant,reprisols,&&&&&&&&&,None,control,,,,,,,0,62,62,62,,,,,,,,,,,,,,,,,,,,,AMP,right,0.40033207938540727,,,right,0,0.40033207938540727,0,,,,,,,,,,,,,,,,,,,,,,1023,2019_Mar_06_1502,mf_amp_cond1,3.0.4,59.986474839409276,
refused,sliptery,&&&&&&&&,right,authority.vice,,,,,,,0,63,63,63,,,,,,,,,,,,,,,,,,,,,AMP,left,0.9504777049878612,,,left,0,0.9504777049878612,0,,,,,,,,,,,,,,,,,,,,,,1023,2019_Mar_06_1502,mf_amp_cond1,3.0.4,59.986474839409276,
restore,frocessing,&&&&&&&&&&,left,care.virtue,,,,,,,0,64,64,64,,,,,,,,,,,,,,,,,,,,,AMP,left,0.5670459461398423,,,left,1,0.5670459461398423,1,,,,,,,,,,,,,,,,,,,,,,1023,2019_Mar_06_1502,mf_amp_cond1,3.0.4,59.986474839409276,
racist,saned,&&&&&,right,sanctity.vice,,,,,,,0,65,65,65,,,,,,,,,,,,,,,,,,,,,AMP,left,0.1335998991271481,,,left,0,0.1335998991271481,0,,,,,,,,,,,,,,,,,,,,,,1023,2019_Mar_06_1502,mf_amp_cond1,3.0.4,59.986474839409276,
praise,hescribe,&&&&&&&&,left,authority.virtue,,,,,,,0,66,66,66,,,,,,,,,,,,,,,,,,,,,AMP,right,0.7671066274633631,,,right,0,0.7671066274633631,0,,,,,,,,,,,,,,,,,,,,,,1023,2019_Mar_06_1502,mf_amp_cond1,3.0.4,59.986474839409276,
embrace,bluently,&&&&&&&&,left,authority.virtue,,,,,,,0,67,67,67,,,,,,,,,,,,,,,,,,,,,AMP,right,1.0004990492016077,,,right,0,1.0004990492016077,0,,,,,,,,,,,,,,,,,,,,,,1023,2019_Mar_06_1502,mf_amp_cond1,3.0.4,59.986474839409276,
charges,perified,&&&&&&&&,right,fairness.vice,,,,,,,0,68,68,68,,,,,,,,,,,,,,,,,,,,,AMP,left,0.583719193120487,,,left,0,0.583719193120487,0,,,,,,,,,,,,,,,,,,,,,,1023,2019_Mar_06_1502,mf_amp_cond1,3.0.4,59.986474839409276,
counpy's,sonvoy,&&&&&&,None,nonword,,,,,,,0,69,69,69,,,,,,,,,,,,,,,,,,,,,AMP,left,0.5837140614166856,,,left,0,0.5837140614166856,0,,,,,,,,,,,,,,,,,,,,,,1023,2019_Mar_06_1502,mf_amp_cond1,3.0.4,59.986474839409276,
taxpayung,lorthwhile,&&&&&&&&&&,None,nonword,,,,,,,0,70,70,70,,,,,,,,,,,,,,,,,,,,,AMP,left,0.48369189933873713,,,left,0,0.48369189933873713,0,,,,,,,,,,,,,,,,,,,,,,1023,2019_Mar_06_1502,mf_amp_cond1,3.0.4,59.986474839409276,
benefit,shoirmaster,&&&&&&&&&&&,left,fairness.virtue,,,,,,,0,71,71,71,,,,,,,,,,,,,,,,,,,,,AMP,left,1.6340157201047987,,,left,1,1.6340157201047987,1,,,,,,,,,,,,,,,,,,,,,,1023,2019_Mar_06_1502,mf_amp_cond1,3.0.4,59.986474839409276,
scock,imebreaker,&&&&&&&&&&,None,nonword,,,,,,,0,72,72,72,,,,,,,,,,,,,,,,,,,,,AMP,left,1.8507323290687054,,,left,0,1.8507323290687054,0,,,,,,,,,,,,,,,,,,,,,,1023,2019_Mar_06_1502,mf_amp_cond1,3.0.4,59.986474839409276,
scandal,gusinesslike,&&&&&&&&&&&&,right,sanctity.vice,,,,,,,0,73,73,73,,,,,,,,,,,,,,,,,,,,,AMP,left,0.35029694391414523,,,left,0,0.35029694391414523,0,,,,,,,,,,,,,,,,,,,,,,1023,2019_Mar_06_1502,mf_amp_cond1,3.0.4,59.986474839409276,
protesters,mih,&&&,right,authority.vice,,,,,,,0,74,74,74,,,,,,,,,,,,,,,,,,,,,AMP,left,0.9671544798184186,,,left,0,0.9671544798184186,0,,,,,,,,,,,,,,,,,,,,,,1023,2019_Mar_06_1502,mf_amp_cond1,3.0.4,59.986474839409276,
energy,chreams,&&&&&&&,left,sanctity.virtue,,,,,,,0,75,75,75,,,,,,,,,,,,,,,,,,,,,AMP,right,0.16696403292007744,,,right,0,0.16696403292007744,0,,,,,,,,,,,,,,,,,,,,,,1023,2019_Mar_06_1502,mf_amp_cond1,3.0.4,59.986474839409276,
died,menizen,&&&&&&&,right,care.vice,,,,,,,0,76,76,76,,,,,,,,,,,,,,,,,,,,,AMP,left,0.38352958008181304,,,left,0,0.38352958008181304,0,,,,,,,,,,,,,,,,,,,,,,1023,2019_Mar_06_1502,mf_amp_cond1,3.0.4,59.986474839409276,
terrorists,coom,&&&&,right,fairness.vice,,,,,,,0,77,77,77,,,,,,,,,,,,,,,,,,,,,AMP,left,0.5170531464973465,,,left,0,0.5170531464973465,0,,,,,,,,,,,,,,,,,,,,,,1023,2019_Mar_06_1502,mf_amp_cond1,3.0.4,59.986474839409276,
clean,tislay,&&&&&&,left,sanctity.virtue,,,,,,,0,78,78,78,,,,,,,,,,,,,,,,,,,,,AMP,right,0.38367518957238644,,,right,0,0.38367518957238644,0,,,,,,,,,,,,,,,,,,,,,,1023,2019_Mar_06_1502,mf_amp_cond1,3.0.4,59.986474839409276,
violence,sowntrodden,&&&&&&&&&&&,right,care.vice,,,,,,,0,79,79,79,,,,,,,,,,,,,,,,,,,,,AMP,left,0.7338534649461508,,,left,0,0.7338534649461508,0,,,,,,,,,,,,,,,,,,,,,,1023,2019_Mar_06_1502,mf_amp_cond1,3.0.4,59.986474839409276,
letish,faspberry,&&&&&&&&&,None,nonword,,,,,,,0,80,80,80,,,,,,,,,,,,,,,,,,,,,AMP,left,2.2341608804417774,,,left,0,2.2341608804417774,0,,,,,,,,,,,,,,,,,,,,,,1023,2019_Mar_06_1502,mf_amp_cond1,3.0.4,59.986474839409276,
ensure,uller,&&&&&,left,fairness.virtue,,,,,,,0,81,81,81,,,,,,,,,,,,,,,,,,,,,AMP,left,0.4837031246861443,,,left,1,0.4837031246861443,1,,,,,,,,,,,,,,,,,,,,,,1023,2019_Mar_06_1502,mf_amp_cond1,3.0.4,59.986474839409276,
clean,greaks,&&&&&&,left,sanctity.virtue,,,,,,,0,82,82,82,,,,,,,,,,,,,,,,,,,,,AMP,left,2.567596632288769,,,left,1,2.567596632288769,1,,,,,,,,,,,,,,,,,,,,,,1023,2019_Mar_06_1502,mf_amp_cond1,3.0.4,59.986474839409276,
riot,carvels,&&&&&&&,right,authority.vice,,,,,,,0,83,83,83,,,,,,,,,,,,,,,,,,,,,AMP,left,0.45031686103902757,,,left,0,0.45031686103902757,0,,,,,,,,,,,,,,,,,,,,,,1023,2019_Mar_06_1502,mf_amp_cond1,3.0.4,59.986474839409276,
intelligence,lachelor,&&&&&&&&,left,loyalty.virtue,,,,,,,0,84,84,84,,,,,,,,,,,,,,,,,,,,,AMP,right,0.6837426382116973,,,right,0,0.6837426382116973,0,,,,,,,,,,,,,,,,,,,,,,1023,2019_Mar_06_1502,mf_amp_cond1,3.0.4,59.986474839409276,
refuejing,gusinesslike,&&&&&&&&&&&&,None,nonword,,,,,,,0,85,85,85,,,,,,,,,,,,,,,,,,,,,AMP,left,0.6170756294159219,,,left,0,0.6170756294159219,0,,,,,,,,,,,,,,,,,,,,,,1023,2019_Mar_06_1502,mf_amp_cond1,3.0.4,59.986474839409276,
forced,divility,&&&&&&&&,right,fairness.vice,,,,,,,0,86,86,86,,,,,,,,,,,,,,,,,,,,,AMP,left,0.517050901427865,,,left,0,0.517050901427865,0,,,,,,,,,,,,,,,,,,,,,,1023,2019_Mar_06_1502,mf_amp_cond1,3.0.4,59.986474839409276,
conspiracy,chreams,&&&&&&&,right,sanctity.vice,,,,,,,0,87,87,87,,,,,,,,,,,,,,,,,,,,,AMP,right,0.8837940184166655,,,right,1,0.8837940184166655,1,,,,,,,,,,,,,,,,,,,,,,1023,2019_Mar_06_1502,mf_amp_cond1,3.0.4,59.986474839409276,
harassment,edancipation,&&&&&&&&&&&&,right,sanctity.vice,,,,,,,0,88,88,88,,,,,,,,,,,,,,,,,,,,,AMP,left,0.5837272112257779,,,left,0,0.5837272112257779,0,,,,,,,,,,,,,,,,,,,,,,1023,2019_Mar_06_1502,mf_amp_cond1,3.0.4,59.986474839409276,
troops,gandbrake,&&&&&&&&&,right,loyalty.vice,,,,,,,0,89,89,89,,,,,,,,,,,,,,,,,,,,,AMP,left,4.218040564795956,,,left,0,4.218040564795956,0,,,,,,,,,,,,,,,,,,,,,,1023,2019_Mar_06_1502,mf_amp_cond1,3.0.4,59.986474839409276,
rejected,lempestuous,&&&&&&&&&&&,right,authority.vice,,,,,,,0,90,90,90,,,,,,,,,,,,,,,,,,,,,AMP,left,0.9338150420226157,,,left,0,0.9338150420226157,0,,,,,,,,,,,,,,,,,,,,,,1023,2019_Mar_06_1502,mf_amp_cond1,3.0.4,59.986474839409276,
Daptist,reprisols,&&&&&&&&&,None,nonword,,,,,,,0,91,91,91,,,,,,,,,,,,,,,,,,,,,AMP,left,0.36698750988580287,,,left,0,0.36698750988580287,0,,,,,,,,,,,,,,,,,,,,,,1023,2019_Mar_06_1502,mf_amp_cond1,3.0.4,59.986474839409276,
army,hasks,&&&&&,right,loyalty.vice,,,,,,,0,92,92,92,,,,,,,,,,,,,,,,,,,,,AMP,left,0.40032213693484664,,,left,0,0.40032213693484664,0,,,,,,,,,,,,,,,,,,,,,,1023,2019_Mar_06_1502,mf_amp_cond1,3.0.4,59.986474839409276,
groups,asn,&&&,right,loyalty.vice,,,,,,,0,93,93,93,,,,,,,,,,,,,,,,,,,,,AMP,left,0.8004476689966395,,,left,0,0.8004476689966395,0,,,,,,,,,,,,,,,,,,,,,,1023,2019_Mar_06_1502,mf_amp_cond1,3.0.4,59.986474839409276,
progress,bluently,&&&&&&&&,left,authority.virtue,,,,,,,0,94,94,94,,,,,,,,,,,,,,,,,,,,,AMP,right,0.4670301985461265,,,right,0,0.4670301985461265,0,,,,,,,,,,,,,,,,,,,,,,1023,2019_Mar_06_1502,mf_amp_cond1,3.0.4,59.986474839409276,
accused,proached,&&&&&&&&,right,fairness.vice,,,,,,,0,95,95,95,,,,,,,,,,,,,,,,,,,,,AMP,left,0.8171093697892502,,,left,0,0.8171093697892502,0,,,,,,,,,,,,,,,,,,,,,,1023,2019_Mar_06_1502,mf_amp_cond1,3.0.4,59.986474839409276,
fair,nonobservalt,&&&&&&&&&&&&,left,fairness.virtue,,,,,,,0,96,96,96,,,,,,,,,,,,,,,,,,,,,AMP,right,1.8673882568255067,,,right,0,1.8673882568255067,0,,,,,,,,,,,,,,,,,,,,,,1023,2019_Mar_06_1502,mf_amp_cond1,3.0.4,59.986474839409276,
charges,mih,&&&,right,fairness.vice,,,,,,,0,97,97,97,,,,,,,,,,,,,,,,,,,,,AMP,left,1.4004411261994392,,,left,0,1.4004411261994392,0,,,,,,,,,,,,,,,,,,,,,,1023,2019_Mar_06_1502,mf_amp_cond1,3.0.4,59.986474839409276,
energy,discovars,&&&&&&&&&,left,sanctity.virtue,,,,,,,0,98,98,98,,,,,,,,,,,,,,,,,,,,,AMP,right,0.38367903826292604,,,right,0,0.38367903826292604,0,,,,,,,,,,,,,,,,,,,,,,1023,2019_Mar_06_1502,mf_amp_cond1,3.0.4,59.986474839409276,
men,abointment,&&&&&&&&&&,right,loyalty.vice,,,,,,,0,99,99,99,,,,,,,,,,,,,,,,,,,,,AMP,left,2.0673042907146737,,,left,0,2.0673042907146737,0,,,,,,,,,,,,,,,,,,,,,,1023,2019_Mar_06_1502,mf_amp_cond1,3.0.4,59.986474839409276,
ensure,vurtain,&&&&&&&,left,fairness.virtue,,,,,,,0,100,100,100,,,,,,,,,,,,,,,,,,,,,AMP,left,0.9171613593352959,,,left,1,0.9171613593352959,1,,,,,,,,,,,,,,,,,,,,,,1023,2019_Mar_06_1502,mf_amp_cond1,3.0.4,59.986474839409276,
fangsters,synchronazers,&&&&&&&&&&&&&,None,nonword,,,,,,,0,101,101,101,,,,,,,,,,,,,,,,,,,,,AMP,left,0.7171109413029626,,,left,0,0.7171109413029626,0,,,,,,,,,,,,,,,,,,,,,,1023,2019_Mar_06_1502,mf_amp_cond1,3.0.4,59.986474839409276,
victim,Boeinf,&&&&&&,right,care.vice,,,,,,,0,102,102,102,,,,,,,,,,,,,,,,,,,,,AMP,left,0.3836873770924285,,,left,0,0.3836873770924285,0,,,,,,,,,,,,,,,,,,,,,,1023,2019_Mar_06_1502,mf_amp_cond1,3.0.4,59.986474839409276,
actively,sfumatoy,&&&&&&&&,left,authority.virtue,,,,,,,0,103,103,103,,,,,,,,,,,,,,,,,,,,,AMP,left,0.517038393067196,,,left,1,0.517038393067196,1,,,,,,,,,,,,,,,,,,,,,,1023,2019_Mar_06_1502,mf_amp_cond1,3.0.4,59.986474839409276,
promised,frocessing,&&&&&&&&&&,left,loyalty.virtue,,,,,,,0,104,104,104,,,,,,,,,,,,,,,,,,,,,AMP,left,1.0505082058953121,,,left,1,1.0505082058953121,1,,,,,,,,,,,,,,,,,,,,,,1023,2019_Mar_06_1502,mf_amp_cond1,3.0.4,59.986474839409276,
war,disregord,&&&&&&&&&,right,sanctity.vice,,,,,,,0,105,105,105,,,,,,,,,,,,,,,,,,,,,AMP,left,0.616909172735177,,,left,0,0.616909172735177,0,,,,,,,,,,,,,,,,,,,,,,1023,2019_Mar_06_1502,mf_amp_cond1,3.0.4,59.986474839409276,
support,saned,&&&&&,left,loyalty.virtue,,,,,,,0,106,106,106,,,,,,,,,,,,,,,,,,,,,AMP,right,0.5503678884124383,,,right,0,0.5503678884124383,0,,,,,,,,,,,,,,,,,,,,,,1023,2019_Mar_06_1502,mf_amp_cond1,3.0.4,59.986474839409276,
scandal,ittutable,&&&&&&&&&,right,sanctity.vice,,,,,,,0,107,107,107,,,,,,,,,,,,,,,,,,,,,AMP,left,0.5670459462562576,,,left,0,0.5670459462562576,0,,,,,,,,,,,,,,,,,,,,,,1023,2019_Mar_06_1502,mf_amp_cond1,3.0.4,59.986474839409276,
suicide,sonvoy,&&&&&&,right,care.vice,,,,,,,0,108,108,108,,,,,,,,,,,,,,,,,,,,,AMP,left,0.383714318042621,,,left,0,0.383714318042621,0,,,,,,,,,,,,,,,,,,,,,,1023,2019_Mar_06_1502,mf_amp_cond1,3.0.4,59.986474839409276,
racist,leact,&&&&&,right,sanctity.vice,,,,,,,0,109,109,109,,,,,,,,,,,,,,,,,,,,,AMP,left,0.9338320404058322,,,left,0,0.9338320404058322,0,,,,,,,,,,,,,,,,,,,,,,1023,2019_Mar_06_1502,mf_amp_cond1,3.0.4,59.986474839409276,
safe,dormandi,&&&&&&&&,left,care.virtue,,,,,,,0,110,110,110,,,,,,,,,,,,,,,,,,,,,AMP,left,0.8504039059625939,,,left,1,0.8504039059625939,1,,,,,,,,,,,,,,,,,,,,,,1023,2019_Mar_06_1502,mf_amp_cond1,3.0.4,59.986474839409276,
perfect,tislay,&&&&&&,left,sanctity.virtue,,,,,,,0,111,111,111,,,,,,,,,,,,,,,,,,,,,AMP,right,0.48368837137240916,,,right,0,0.48368837137240916,0,,,,,,,,,,,,,,,,,,,,,,1023,2019_Mar_06_1502,mf_amp_cond1,3.0.4,59.986474839409276,
restore,mecan,&&&&&,left,care.virtue,,,,,,,0,112,112,112,,,,,,,,,,,,,,,,,,,,,AMP,left,0.5003619389608502,,,left,1,0.5003619389608502,1,,,,,,,,,,,,,,,,,,,,,,1023,2019_Mar_06_1502,mf_amp_cond1,3.0.4,59.986474839409276,
growth,crilfully,&&&&&&&&&,left,care.virtue,,,,,,,0,113,113,113,,,,,,,,,,,,,,,,,,,,,AMP,right,0.4503476506797597,,,right,0,0.4503476506797597,0,,,,,,,,,,,,,,,,,,,,,,1023,2019_Mar_06_1502,mf_amp_cond1,3.0.4,59.986474839409276,
praise,ronviolence,&&&&&&&&&&&,left,authority.virtue,,,,,,,0,114,114,114,,,,,,,,,,,,,,,,,,,,,AMP,left,1.4839622711297125,,,left,1,1.4839622711297125,1,,,,,,,,,,,,,,,,,,,,,,1023,2019_Mar_06_1502,mf_amp_cond1,3.0.4,59.986474839409276,
sharing,sowntrodden,&&&&&&&&&&&,left,loyalty.virtue,,,,,,,0,115,115,115,,,,,,,,,,,,,,,,,,,,,AMP,right,1.6339788365876302,,,right,0,1.6339788365876302,0,,,,,,,,,,,,,,,,,,,,,,1023,2019_Mar_06_1502,mf_amp_cond1,3.0.4,59.986474839409276,
trust,wonderfujnoss,&&&&&&&&&&&&&,left,authority.virtue,,,,,,,0,116,116,116,,,,,,,,,,,,,,,,,,,,,AMP,right,0.4503527822671458,,,right,0,0.4503527822671458,0,,,,,,,,,,,,,,,,,,,,,,1023,2019_Mar_06_1502,mf_amp_cond1,3.0.4,59.986474839409276,
pleasant,perified,&&&&&&&&,None,control,,,,,,,0,117,117,117,,,,,,,,,,,,,,,,,,,,,AMP,left,2.0841160911368206,,,left,0,2.0841160911368206,0,,,,,,,,,,,,,,,,,,,,,,1023,2019_Mar_06_1502,mf_amp_cond1,3.0.4,59.986474839409276,
compassion,grovelire,&&&&&&&&&,left,care.virtue,,,,,,,0,118,118,118,,,,,,,,,,,,,,,,,,,,,AMP,right,1.6173360586399212,,,right,0,1.6173360586399212,0,,,,,,,,,,,,,,,,,,,,,,1023,2019_Mar_06_1502,mf_amp_cond1,3.0.4,59.986474839409276,
refused,presentkess,&&&&&&&&&&&,right,authority.vice,,,,,,,0,119,119,119,,,,,,,,,,,,,,,,,,,,,AMP,left,11.670018464094028,,,left,0,11.670018464094028,0,,,,,,,,,,,,,,,,,,,,,,1023,2019_Mar_06_1502,mf_amp_cond1,3.0.4,59.986474839409276,
interests,coom,&&&&,left,fairness.virtue,,,,,,,0,120,120,120,,,,,,,,,,,,,,,,,,,,,AMP,right,0.38364921079482883,,,right,0,0.38364921079482883,0,,,,,,,,,,,,,,,,,,,,,,1023,2019_Mar_06_1502,mf_amp_cond1,3.0.4,59.986474839409276,
encourage,neputized,&&&&&&&&&,left,authority.virtue,,,,,,,0,121,121,121,,,,,,,,,,,,,,,,,,,,,AMP,left,1.3839359395205975,,,left,1,1.3839359395205975,1,,,,,,,,,,,,,,,,,,,,,,1023,2019_Mar_06_1502,mf_amp_cond1,3.0.4,59.986474839409276,
protesters,totalestic,&&&&&&&&&&,right,authority.vice,,,,,,,0,122,122,122,,,,,,,,,,,,,,,,,,,,,AMP,left,1.5839757736539468,,,left,0,1.5839757736539468,0,,,,,,,,,,,,,,,,,,,,,,1023,2019_Mar_06_1502,mf_amp_cond1,3.0.4,59.986474839409276,
attacks,touls,&&&&&,right,care.vice,,,,,,,0,123,123,123,,,,,,,,,,,,,,,,,,,,,AMP,left,0.9671714783180505,,,left,0,0.9671714783180505,0,,,,,,,,,,,,,,,,,,,,,,1023,2019_Mar_06_1502,mf_amp_cond1,3.0.4,59.986474839409276,
scock,clamorek,&&&&&&&&,None,nonword,,,,,,,0,124,124,124,,,,,,,,,,,,,,,,,,,,,AMP,left,0.6503849189030007,,,left,0,0.6503849189030007,0,,,,,,,,,,,,,,,,,,,,,,1023,2019_Mar_06_1502,mf_amp_cond1,3.0.4,59.986474839409276,
rebels,spag,&&&&,right,authority.vice,,,,,,,0,125,125,125,,,,,,,,,,,,,,,,,,,,,AMP,left,0.5170380723429844,,,left,0,0.5170380723429844,0,,,,,,,,,,,,,,,,,,,,,,1023,2019_Mar_06_1502,mf_amp_cond1,3.0.4,59.986474839409276,
protect,chared,&&&&&&,left,fairness.virtue,,,,,,,0,126,126,126,,,,,,,,,,,,,,,,,,,,,AMP,left,1.1839021991472691,,,left,1,1.1839021991472691,1,,,,,,,,,,,,,,,,,,,,,,1023,2019_Mar_06_1502,mf_amp_cond1,3.0.4,59.986474839409276,
blamed,thabbily,&&&&&&&&,right,loyalty.vice,,,,,,,0,127,127,127,,,,,,,,,,,,,,,,,,,,,AMP,left,0.43365644314326346,,,left,0,0.43365644314326346,0,,,,,,,,,,,,,,,,,,,,,,1023,2019_Mar_06_1502,mf_amp_cond1,3.0.4,59.986474839409276,
strength,infet,&&&&&,left,sanctity.virtue,,,,,,,0,128,128,128,,,,,,,,,,,,,,,,,,,,,AMP,right,0.1669406199362129,,,right,0,0.1669406199362129,0,,,,,,,,,,,,,,,,,,,,,,1023,2019_Mar_06_1502,mf_amp_cond1,3.0.4,59.986474839409276,
letish,erks,&&&&,None,nonword,,,,,,,0,129,129,129,,,,,,,,,,,,,,,,,,,,,AMP,left,1.5673269019462168,,,left,0,1.5673269019462168,0,,,,,,,,,,,,,,,,,,,,,,1023,2019_Mar_06_1502,mf_amp_cond1,3.0.4,59.986474839409276,
officers,gondensed,&&&&&&&&&,right,authority.vice,,,,,,,0,130,130,130,,,,,,,,,,,,,,,,,,,,,AMP,left,0.1669665987137705,,,left,0,0.1669665987137705,0,,,,,,,,,,,,,,,,,,,,,,1023,2019_Mar_06_1502,mf_amp_cond1,3.0.4,59.986474839409276,
health,ning,&&&&,left,care.virtue,,,,,,,0,131,131,131,,,,,,,,,,,,,,,,,,,,,AMP,left,0.5337645597755909,,,left,1,0.5337645597755909,1,,,,,,,,,,,,,,,,,,,,,,1023,2019_Mar_06_1502,mf_amp_cond1,3.0.4,59.986474839409276,
peace,simplustic,&&&&&&&&&&,left,care.virtue,,,,,,,0,132,132,132,,,,,,,,,,,,,,,,,,,,,AMP,right,0.300317614688538,,,right,0,0.300317614688538,0,,,,,,,,,,,,,,,,,,,,,,1023,2019_Mar_06_1502,mf_amp_cond1,3.0.4,59.986474839409276,
fighters,nomparisons,&&&&&&&&&&&,right,authority.vice,,,,,,,0,133,133,133,,,,,,,,,,,,,,,,,,,,,AMP,left,0.7836371514713392,,,left,0,0.7836371514713392,0,,,,,,,,,,,,,,,,,,,,,,1023,2019_Mar_06_1502,mf_amp_cond1,3.0.4,59.986474839409276,
crime,esquisiteness,&&&&&&&&&&&&&,right,fairness.vice,,,,,,,0,134,134,134,,,,,,,,,,,,,,,,,,,,,AMP,left,0.11692504864186049,,,left,0,0.11692504864186049,0,,,,,,,,,,,,,,,,,,,,,,1023,2019_Mar_06_1502,mf_amp_cond1,3.0.4,59.986474839409276,
respect,faspberry,&&&&&&&&&,left,sanctity.virtue,,,,,,,0,135,135,135,,,,,,,,,,,,,,,,,,,,,AMP,right,0.4503518200945109,,,right,0,0.4503518200945109,0,,,,,,,,,,,,,,,,,,,,,,1023,2019_Mar_06_1502,mf_amp_cond1,3.0.4,59.986474839409276,
dignity,sgrawl,&&&&&&,left,sanctity.virtue,,,,,,,0,136,136,136,,,,,,,,,,,,,,,,,,,,,AMP,left,1.5173103684792295,,,left,1,1.5173103684792295,1,,,,,,,,,,,,,,,,,,,,,,1023,2019_Mar_06_1502,mf_amp_cond1,3.0.4,59.986474839409276,
win,unscothed,&&&&&&&&&,left,fairness.virtue,,,,,,,0,137,137,137,,,,,,,,,,,,,,,,,,,,,AMP,right,0.8004486311692744,,,right,0,0.8004486311692744,0,,,,,,,,,,,,,,,,,,,,,,1023,2019_Mar_06_1502,mf_amp_cond1,3.0.4,59.986474839409276,
halaise,uller,&&&&&,None,nonword,,,,,,,0,138,138,138,,,,,,,,,,,,,,,,,,,,,AMP,left,0.6670809374190867,,,left,0,0.6670809374190867,0,,,,,,,,,,,,,,,,,,,,,,1023,2019_Mar_06_1502,mf_amp_cond1,3.0.4,59.986474839409276,
praised,tomedians,&&&&&&&&&,left,loyalty.virtue,,,,,,,0,139,139,139,,,,,,,,,,,,,,,,,,,,,AMP,right,0.5337405053433031,,,right,0,0.5337405053433031,0,,,,,,,,,,,,,,,,,,,,,,1023,2019_Mar_06_1502,mf_amp_cond1,3.0.4,59.986474839409276,
strong,shoirmaster,&&&&&&&&&&&,left,loyalty.virtue,,,,,,,0,140,140,140,,,,,,,,,,,,,,,,,,,,,AMP,right,0.4003455499187112,,,right,0,0.4003455499187112,0,,,,,,,,,,,,,,,,,,,,,,1023,2019_Mar_06_1502,mf_amp_cond1,3.0.4,59.986474839409276,
unpleasant,stindig,&&&&&&&,None,control,,,,,,,0,141,141,141,,,,,,,,,,,,,,,,,,,,,AMP,left,0.48369029571767896,,,left,0,0.48369029571767896,0,,,,,,,,,,,,,,,,,,,,,,1023,2019_Mar_06_1502,mf_amp_cond1,3.0.4,59.986474839409276,
slavery,imebreaker,&&&&&&&&&&,right,loyalty.vice,,,,,,,0,142,142,142,,,,,,,,,,,,,,,,,,,,,AMP,left,0.5170339030446485,,,left,0,0.5170339030446485,0,,,,,,,,,,,,,,,,,,,,,,1023,2019_Mar_06_1502,mf_amp_cond1,3.0.4,59.986474839409276,
love,pharing,&&&&&&&,left,loyalty.virtue,,,,,,,0,143,143,143,,,,,,,,,,,,,,,,,,,,,AMP,right,0.3836646055569872,,,right,0,0.3836646055569872,0,,,,,,,,,,,,,,,,,,,,,,1023,2019_Mar_06_1502,mf_amp_cond1,3.0.4,59.986474839409276,
ecgagement,lorthwhile,&&&&&&&&&&,None,nonword,,,,,,,0,144,144,144,,,,,,,,,,,,,,,,,,,,,AMP,right,1.0171812763437629,,,right,0,1.0171812763437629,0,,,,,,,,,,,,,,,,,,,,,,1023,2019_Mar_06_1502,mf_amp_cond1,3.0.4,59.986474839409276,
help,reviked,&&&&&&&,left,care.virtue,,,,,,,0,145,145,145,,,,,,,,,,,,,,,,,,,,,AMP,left,1.7340215251315385,,,left,1,1.7340215251315385,1,,,,,,,,,,,,,,,,,,,,,,1023,2019_Mar_06_1502,mf_amp_cond1,3.0.4,59.986474839409276,
egpeditious,pulge,&&&&&,None,nonword,,,,,,,0,146,146,146,,,,,,,,,,,,,,,,,,,,,AMP,left,0.6670729191973805,,,left,0,0.6670729191973805,0,,,,,,,,,,,,,,,,,,,,,,1023,2019_Mar_06_1502,mf_amp_cond1,3.0.4,59.986474839409276,
violence,epigrach,&&&&&&&&,right,care.vice,,,,,,,0,147,147,147,,,,,,,,,,,,,,,,,,,,,AMP,left,0.18360520724672824,,,left,0,0.18360520724672824,0,,,,,,,,,,,,,,,,,,,,,,1023,2019_Mar_06_1502,mf_amp_cond1,3.0.4,59.986474839409276,
freedom,juck,&&&&,left,sanctity.virtue,,,,,,,0,148,148,148,,,,,,,,,,,,,,,,,,,,,AMP,right,0.4503489335766062,,,right,0,0.4503489335766062,0,,,,,,,,,,,,,,,,,,,,,,1023,2019_Mar_06_1502,mf_amp_cond1,3.0.4,59.986474839409276,
benefit,ammessment,&&&&&&&&&&,left,fairness.virtue,,,,,,,0,149,149,149,,,,,,,,,,,,,,,,,,,,,AMP,right,4.584792982786894,,,right,0,4.584792982786894,0,,,,,,,,,,,,,,,,,,,,,,1023,2019_Mar_06_1502,mf_amp_cond1,3.0.4,59.986474839409276,
corruption,gowlands,&&&&&&&&,right,sanctity.vice,,,,,,,0,150,150,150,,,,,,,,,,,,,,,,,,,,,AMP,left,0.3836909051751718,,,left,0,0.3836909051751718,0,,,,,,,,,,,,,,,,,,,,,,1023,2019_Mar_06_1502,mf_amp_cond1,3.0.4,59.986474839409276,
victims,viscs,&&&&&,right,care.vice,,,,,,,0,151,151,151,,,,,,,,,,,,,,,,,,,,,AMP,left,0.43368883640505373,,,left,0,0.43368883640505373,0,,,,,,,,,,,,,,,,,,,,,,1023,2019_Mar_06_1502,mf_amp_cond1,3.0.4,59.986474839409276,
terrorists,scalbel,&&&&&&&,right,fairness.vice,,,,,,,0,152,152,152,,,,,,,,,,,,,,,,,,,,,AMP,left,1.784029719652608,,,left,0,1.784029719652608,0,,,,,,,,,,,,,,,,,,,,,,1023,2019_Mar_06_1502,mf_amp_cond1,3.0.4,59.986474839409276,
counpy's,wump,&&&&,None,nonword,,,,,,,0,153,153,153,,,,,,,,,,,,,,,,,,,,,AMP,left,0.5336709078401327,,,left,0,0.5336709078401327,0,,,,,,,,,,,,,,,,,,,,,,1023,2019_Mar_06_1502,mf_amp_cond1,3.0.4,59.986474839409276,
serial,gaultless,&&&&&&&&&,right,sanctity.vice,,,,,,,0,154,154,154,,,,,,,,,,,,,,,,,,,,,AMP,left,0.3169799568131566,,,left,0,0.3169799568131566,0,,,,,,,,,,,,,,,,,,,,,,1023,2019_Mar_06_1502,mf_amp_cond1,3.0.4,59.986474839409276,
powerful,sliptery,&&&&&&&&,left,authority.virtue,,,,,,,0,155,155,155,,,,,,,,,,,,,,,,,,,,,AMP,left,1.2338937160093337,,,left,1,1.2338937160093337,1,,,,,,,,,,,,,,,,,,,,,,1023,2019_Mar_06_1502,mf_amp_cond1,3.0.4,59.986474839409276,
voter,menizen,&&&&&&&,right,fairness.vice,,,,,,,0,156,156,156,,,,,,,,,,,,,,,,,,,,,AMP,left,0.3669980939012021,,,left,0,0.3669980939012021,0,,,,,,,,,,,,,,,,,,,,,,1023,2019_Mar_06_1502,mf_amp_cond1,3.0.4,59.986474839409276,
embrace,lenon,&&&&&,left,authority.virtue,,,,,,,0,157,157,157,,,,,,,,,,,,,,,,,,,,,AMP,left,0.5170448075514287,,,left,1,0.5170448075514287,1,,,,,,,,,,,,,,,,,,,,,,1023,2019_Mar_06_1502,mf_amp_cond1,3.0.4,59.986474839409276,
illegal,hescribe,&&&&&&&&,right,fairness.vice,,,,,,,0,158,158,158,,,,,,,,,,,,,,,,,,,,,AMP,left,0.1669569768710062,,,left,0,0.1669569768710062,0,,,,,,,,,,,,,,,,,,,,,,1023,2019_Mar_06_1502,mf_amp_cond1,3.0.4,59.986474839409276,
free,blunderints,&&&&&&&&&&&,left,fairness.virtue,,,,,,,0,159,159,159,,,,,,,,,,,,,,,,,,,,,AMP,right,1.9674219650914893,,,right,0,1.9674219650914893,0,,,,,,,,,,,,,,,,,,,,,,1023,2019_Mar_06_1502,mf_amp_cond1,3.0.4,59.986474839409276,
taxpayung,frojecting,&&&&&&&&&&,None,nonword,,,,,,,0,160,160,160,,,,,,,,,,,,,,,,,,,,,AMP,left,0.8004309912212193,,,left,0,0.8004309912212193,0,,,,,,,,,,,,,,,,,,,,,,1023,2019_Mar_06_1502,mf_amp_cond1,3.0.4,59.986474839409276,
died,tabin,&&&&&,right,care.vice,,,,,,,0,161,161,161,,,,,,,,,,,,,,,,,,,,,AMP,left,0.18361033871769905,,,left,0,0.18361033871769905,0,,,,,,,,,,,,,,,,,,,,,,1023,2019_Mar_06_1502,mf_amp_cond1,3.0.4,59.986474839409276,
death,emports,&&&&&&&,right,care.vice,,,,,,,0,162,162,162,,,,,,,,,,,,,,,,,,,,,AMP,left,0.45035598950926214,,,left,0,0.45035598950926214,0,,,,,,,,,,,,,,,,,,,,,,1023,2019_Mar_06_1502,mf_amp_cond1,3.0.4,59.986474839409276,
betrayal,fonderland,&&&&&&&&&&,right,loyalty.vice,,,,,,,0,163,163,163,,,,,,,,,,,,,,,,,,,,,AMP,left,0.4670196146471426,,,left,0,0.4670196146471426,0,,,,,,,,,,,,,,,,,,,,,,1023,2019_Mar_06_1502,mf_amp_cond1,3.0.4,59.986474839409276,
groups,viscs,&&&&&,right,loyalty.vice,,,,,,,0,164,164,164,,,,,,,,,,,,,,,,,,,,,AMP,left,0.4670112757012248,,,left,0,0.4670112757012248,0,,,,,,,,,,,,,,,,,,,,,,1023,2019_Mar_06_1502,mf_amp_cond1,3.0.4,59.986474839409276,
growth,totalestic,&&&&&&&&&&,left,care.virtue,,,,,,,0,165,165,165,,,,,,,,,,,,,,,,,,,,,AMP,right,0.38366685062646866,,,right,0,0.38366685062646866,0,,,,,,,,,,,,,,,,,,,,,,1023,2019_Mar_06_1502,mf_amp_cond1,3.0.4,59.986474839409276,
rebels,erks,&&&&,right,authority.vice,,,,,,,0,166,166,166,,,,,,,,,,,,,,,,,,,,,AMP,left,0.5670488327741623,,,left,0,0.5670488327741623,0,,,,,,,,,,,,,,,,,,,,,,1023,2019_Mar_06_1502,mf_amp_cond1,3.0.4,59.986474839409276,
protect,frojecting,&&&&&&&&&&,left,fairness.virtue,,,,,,,0,167,167,167,,,,,,,,,,,,,,,,,,,,,AMP,right,1.5006358388345689,,,right,0,1.5006358388345689,0,,,,,,,,,,,,,,,,,,,,,,1023,2019_Mar_06_1502,mf_amp_cond1,3.0.4,59.986474839409276,
troops,sonvoy,&&&&&&,right,loyalty.vice,,,,,,,0,168,168,168,,,,,,,,,,,,,,,,,,,,,AMP,left,0.35029918898362666,,,left,0,0.35029918898362666,0,,,,,,,,,,,,,,,,,,,,,,1023,2019_Mar_06_1502,mf_amp_cond1,3.0.4,59.986474839409276,
benefit,ning,&&&&,left,fairness.virtue,,,,,,,0,169,169,169,,,,,,,,,,,,,,,,,,,,,AMP,left,0.917141153709963,,,left,1,0.917141153709963,1,,,,,,,,,,,,,,,,,,,,,,1023,2019_Mar_06_1502,mf_amp_cond1,3.0.4,59.986474839409276,
love,Boeinf,&&&&&&,left,loyalty.virtue,,,,,,,0,170,170,170,,,,,,,,,,,,,,,,,,,,,AMP,right,0.1669454307993874,,,right,0,0.1669454307993874,0,,,,,,,,,,,,,,,,,,,,,,1023,2019_Mar_06_1502,mf_amp_cond1,3.0.4,59.986474839409276,
taxpayung,scalbel,&&&&&&&,None,nonword,,,,,,,0,171,171,171,,,,,,,,,,,,,,,,,,,,,AMP,left,0.6337354057468474,,,left,0,0.6337354057468474,0,,,,,,,,,,,,,,,,,,,,,,1023,2019_Mar_06_1502,mf_amp_cond1,3.0.4,59.986474839409276,
halaise,synchronazers,&&&&&&&&&&&&&,None,nonword,,,,,,,0,172,172,172,,,,,,,,,,,,,,,,,,,,,AMP,left,0.4003343244548887,,,left,0,0.4003343244548887,0,,,,,,,,,,,,,,,,,,,,,,1023,2019_Mar_06_1502,mf_amp_cond1,3.0.4,59.986474839409276,
riot,uller,&&&&&,right,authority.vice,,,,,,,0,173,173,173,,,,,,,,,,,,,,,,,,,,,AMP,left,0.8004422165686265,,,left,0,0.8004422165686265,0,,,,,,,,,,,,,,,,,,,,,,1023,2019_Mar_06_1502,mf_amp_cond1,3.0.4,59.986474839409276,
respect,sowntrodden,&&&&&&&&&&&,left,sanctity.virtue,,,,,,,0,174,174,174,,,,,,,,,,,,,,,,,,,,,AMP,right,1.050509488908574,,,right,0,1.050509488908574,0,,,,,,,,,,,,,,,,,,,,,,1023,2019_Mar_06_1502,mf_amp_cond1,3.0.4,59.986474839409276,
progress,gondensed,&&&&&&&&&,left,authority.virtue,,,,,,,0,175,175,175,,,,,,,,,,,,,,,,,,,,,AMP,left,1.133867063676007,,,left,1,1.133867063676007,1,,,,,,,,,,,,,,,,,,,,,,1023,2019_Mar_06_1502,mf_amp_cond1,3.0.4,59.986474839409276,
freedom,fonderland,&&&&&&&&&&,left,sanctity.virtue,,,,,,,0,176,176,176,,,,,,,,,,,,,,,,,,,,,AMP,right,0.2501599619863555,,,right,0,0.2501599619863555,0,,,,,,,,,,,,,,,,,,,,,,1023,2019_Mar_06_1502,mf_amp_cond1,3.0.4,59.986474839409276,
pleasant,sliptery,&&&&&&&&,None,control,,,,,,,0,177,177,177,,,,,,,,,,,,,,,,,,,,,AMP,left,0.5837188723962754,,,left,0,0.5837188723962754,0,,,,,,,,,,,,,,,,,,,,,,1023,2019_Mar_06_1502,mf_amp_cond1,3.0.4,59.986474839409276,
win,lorthwhile,&&&&&&&&&&,left,fairness.virtue,,,,,,,0,178,178,178,,,,,,,,,,,,,,,,,,,,,AMP,left,1.067183697829023,,,left,1,1.067183697829023,1,,,,,,,,,,,,,,,,,,,,,,1023,2019_Mar_06_1502,mf_amp_cond1,3.0.4,59.986474839409276,
forced,sfumatoy,&&&&&&&&,right,fairness.vice,,,,,,,0,179,179,179,,,,,,,,,,,,,,,,,,,,,AMP,left,0.16694543068297207,,,left,0,0.16694543068297207,0,,,,,,,,,,,,,,,,,,,,,,1023,2019_Mar_06_1502,mf_amp_cond1,3.0.4,59.986474839409276,
racist,gandbrake,&&&&&&&&&,right,sanctity.vice,,,,,,,0,180,180,180,,,,,,,,,,,,,,,,,,,,,AMP,left,0.16687583329621702,,,left,0,0.16687583329621702,0,,,,,,,,,,,,,,,,,,,,,,1023,2019_Mar_06_1502,mf_amp_cond1,3.0.4,59.986474839409276,
intelligence,clamorek,&&&&&&&&,left,loyalty.virtue,,,,,,,0,181,181,181,,,,,,,,,,,,,,,,,,,,,AMP,right,0.2336204577004537,,,right,0,0.2336204577004537,0,,,,,,,,,,,,,,,,,,,,,,1023,2019_Mar_06_1502,mf_amp_cond1,3.0.4,59.986474839409276,
slavery,pulge,&&&&&,right,loyalty.vice,,,,,,,0,182,182,182,,,,,,,,,,,,,,,,,,,,,AMP,left,0.33363845048006624,,,left,0,0.33363845048006624,0,,,,,,,,,,,,,,,,,,,,,,1023,2019_Mar_06_1502,mf_amp_cond1,3.0.4,59.986474839409276,
compassion,tislay,&&&&&&,left,care.virtue,,,,,,,0,183,183,183,,,,,,,,,,,,,,,,,,,,,AMP,right,0.8004281045868993,,,right,0,0.8004281045868993,0,,,,,,,,,,,,,,,,,,,,,,1023,2019_Mar_06_1502,mf_amp_cond1,3.0.4,59.986474839409276,
clean,tabin,&&&&&,left,sanctity.virtue,,,,,,,0,184,184,184,,,,,,,,,,,,,,,,,,,,,AMP,right,0.33366539131384343,,,right,0,0.33366539131384343,0,,,,,,,,,,,,,,,,,,,,,,1023,2019_Mar_06_1502,mf_amp_cond1,3.0.4,59.986474839409276,
counpy's,asn,&&&,None,nonword,,,,,,,0,185,185,185,,,,,,,,,,,,,,,,,,,,,AMP,left,0.2003179034218192,,,left,0,0.2003179034218192,0,,,,,,,,,,,,,,,,,,,,,,1023,2019_Mar_06_1502,mf_amp_cond1,3.0.4,59.986474839409276,
officers,presentkess,&&&&&&&&&&&,right,authority.vice,,,,,,,0,186,186,186,,,,,,,,,,,,,,,,,,,,,AMP,left,0.8671608621953055,,,left,0,0.8671608621953055,0,,,,,,,,,,,,,,,,,,,,,,1023,2019_Mar_06_1502,mf_amp_cond1,3.0.4,59.986474839409276,
support,lempestuous,&&&&&&&&&&&,left,loyalty.virtue,,,,,,,0,187,187,187,,,,,,,,,,,,,,,,,,,,,AMP,right,0.6004001373657957,,,right,0,0.6004001373657957,0,,,,,,,,,,,,,,,,,,,,,,1023,2019_Mar_06_1502,mf_amp_cond1,3.0.4,59.986474839409276,
safe,nonobservalt,&&&&&&&&&&&&,left,care.virtue,,,,,,,0,188,188,188,,,,,,,,,,,,,,,,,,,,,AMP,right,0.3336516001727432,,,right,0,0.3336516001727432,0,,,,,,,,,,,,,,,,,,,,,,1023,2019_Mar_06_1502,mf_amp_cond1,3.0.4,59.986474839409276,
victim,disregord,&&&&&&&&&,right,care.vice,,,,,,,0,189,189,189,,,,,,,,,,,,,,,,,,,,,AMP,left,0.5003606560640037,,,left,0,0.5003606560640037,0,,,,,,,,,,,,,,,,,,,,,,1023,2019_Mar_06_1502,mf_amp_cond1,3.0.4,59.986474839409276,
energy,mih,&&&,left,sanctity.virtue,,,,,,,0,190,190,190,,,,,,,,,,,,,,,,,,,,,AMP,right,0.5003872762899846,,,right,0,0.5003872762899846,0,,,,,,,,,,,,,,,,,,,,,,1023,2019_Mar_06_1502,mf_amp_cond1,3.0.4,59.986474839409276,
protesters,shoirmaster,&&&&&&&&&&&,right,authority.vice,,,,,,,0,191,191,191,,,,,,,,,,,,,,,,,,,,,AMP,left,1.7507040731143206,,,left,0,1.7507040731143206,0,,,,,,,,,,,,,,,,,,,,,,1023,2019_Mar_06_1502,mf_amp_cond1,3.0.4,59.986474839409276,
encourage,frocessing,&&&&&&&&&&,left,authority.virtue,,,,,,,0,192,192,192,,,,,,,,,,,,,,,,,,,,,AMP,right,0.28363153885584325,,,right,0,0.28363153885584325,0,,,,,,,,,,,,,,,,,,,,,,1023,2019_Mar_06_1502,mf_amp_cond1,3.0.4,59.986474839409276,
refused,stindig,&&&&&&&,right,authority.vice,,,,,,,0,193,193,193,,,,,,,,,,,,,,,,,,,,,AMP,left,0.6670764471637085,,,left,0,0.6670764471637085,0,,,,,,,,,,,,,,,,,,,,,,1023,2019_Mar_06_1502,mf_amp_cond1,3.0.4,59.986474839409276,
unpleasant,neputized,&&&&&&&&&,None,control,,,,,,,0,194,194,194,,,,,,,,,,,,,,,,,,,,,AMP,left,0.4003359281923622,,,left,0,0.4003359281923622,0,,,,,,,,,,,,,,,,,,,,,,1023,2019_Mar_06_1502,mf_amp_cond1,3.0.4,59.986474839409276,
letish,gusinesslike,&&&&&&&&&&&&,None,nonword,,,,,,,0,195,195,195,,,,,,,,,,,,,,,,,,,,,AMP,left,0.7504308148054406,,,left,0,0.7504308148054406,0,,,,,,,,,,,,,,,,,,,,,,1023,2019_Mar_06_1502,mf_amp_cond1,3.0.4,59.986474839409276,
terrorists,ronviolence,&&&&&&&&&&&,right,fairness.vice,,,,,,,0,196,196,196,,,,,,,,,,,,,,,,,,,,,AMP,left,1.1338321046205238,,,left,0,1.1338321046205238,0,,,,,,,,,,,,,,,,,,,,,,1023,2019_Mar_06_1502,mf_amp_cond1,3.0.4,59.986474839409276,
praised,mecan,&&&&&,left,loyalty.virtue,,,,,,,0,197,197,197,,,,,,,,,,,,,,,,,,,,,AMP,right,0.4003247026121244,,,right,0,0.4003247026121244,0,,,,,,,,,,,,,,,,,,,,,,1023,2019_Mar_06_1502,mf_amp_cond1,3.0.4,59.986474839409276,
fighters,bluently,&&&&&&&&,right,authority.vice,,,,,,,0,198,198,198,,,,,,,,,,,,,,,,,,,,,AMP,left,0.1169195962138474,,,left,0,0.1169195962138474,0,,,,,,,,,,,,,,,,,,,,,,1023,2019_Mar_06_1502,mf_amp_cond1,3.0.4,59.986474839409276,
crime,lachelor,&&&&&&&&,right,fairness.vice,,,,,,,0,199,199,199,,,,,,,,,,,,,,,,,,,,,AMP,left,0.4336760074365884,,,left,0,0.4336760074365884,0,,,,,,,,,,,,,,,,,,,,,,1023,2019_Mar_06_1502,mf_amp_cond1,3.0.4,59.986474839409276,
harassment,gaultless,&&&&&&&&&,right,sanctity.vice,,,,,,,0,200,200,200,,,,,,,,,,,,,,,,,,,,,AMP,left,1.5171554579865187,,,left,0,1.5171554579865187,0,,,,,,,,,,,,,,,,,,,,,,1023,2019_Mar_06_1502,mf_amp_cond1,3.0.4,59.986474839409276,
violence,reviked,&&&&&&&,right,care.vice,,,,,,,0,201,201,201,,,,,,,,,,,,,,,,,,,,,AMP,left,0.8337739569833502,,,left,0,0.8337739569833502,0,,,,,,,,,,,,,,,,,,,,,,1023,2019_Mar_06_1502,mf_amp_cond1,3.0.4,59.986474839409276,
suicide,abointment,&&&&&&&&&&,right,care.vice,,,,,,,0,202,202,202,,,,,,,,,,,,,,,,,,,,,AMP,left,0.13359476753976196,,,left,0,0.13359476753976196,0,,,,,,,,,,,,,,,,,,,,,,1023,2019_Mar_06_1502,mf_amp_cond1,3.0.4,59.986474839409276,
praise,reprisols,&&&&&&&&&,left,authority.virtue,,,,,,,0,203,203,203,,,,,,,,,,,,,,,,,,,,,AMP,right,0.4503476506797597,,,right,0,0.4503476506797597,0,,,,,,,,,,,,,,,,,,,,,,1023,2019_Mar_06_1502,mf_amp_cond1,3.0.4,59.986474839409276,
blamed,touls,&&&&&,right,loyalty.vice,,,,,,,0,204,204,204,,,,,,,,,,,,,,,,,,,,,AMP,left,0.3836565874516964,,,left,0,0.3836565874516964,0,,,,,,,,,,,,,,,,,,,,,,1023,2019_Mar_06_1502,mf_amp_cond1,3.0.4,59.986474839409276,
perfect,hescribe,&&&&&&&&,left,sanctity.virtue,,,,,,,0,205,205,205,,,,,,,,,,,,,,,,,,,,,AMP,right,1.1505220292601734,,,right,0,1.1505220292601734,0,,,,,,,,,,,,,,,,,,,,,,1023,2019_Mar_06_1502,mf_amp_cond1,3.0.4,59.986474839409276,
dignity,imebreaker,&&&&&&&&&&,left,sanctity.virtue,,,,,,,0,206,206,206,,,,,,,,,,,,,,,,,,,,,AMP,right,0.38367166148964316,,,right,0,0.38367166148964316,0,,,,,,,,,,,,,,,,,,,,,,1023,2019_Mar_06_1502,mf_amp_cond1,3.0.4,59.986474839409276,
interests,faspberry,&&&&&&&&&,left,fairness.virtue,,,,,,,0,207,207,207,,,,,,,,,,,,,,,,,,,,,AMP,right,0.6004549814388156,,,right,0,0.6004549814388156,0,,,,,,,,,,,,,,,,,,,,,,1023,2019_Mar_06_1502,mf_amp_cond1,3.0.4,59.986474839409276,
refuejing,wonderfujnoss,&&&&&&&&&&&&&,None,nonword,,,,,,,0,208,208,208,,,,,,,,,,,,,,,,,,,,,AMP,left,0.41702296619769186,,,left,0,0.41702296619769186,0,,,,,,,,,,,,,,,,,,,,,,1023,2019_Mar_06_1502,mf_amp_cond1,3.0.4,59.986474839409276,
voter,vurtain,&&&&&&&,right,fairness.vice,,,,,,,0,209,209,209,,,,,,,,,,,,,,,,,,,,,AMP,left,6.551973761990666,,,left,0,6.551973761990666,0,,,,,,,,,,,,,,,,,,,,,,1023,2019_Mar_06_1502,mf_amp_cond1,3.0.4,59.986474839409276,
fair,tomedians,&&&&&&&&&,left,fairness.virtue,,,,,,,0,210,210,210,,,,,,,,,,,,,,,,,,,,,AMP,right,0.3503235641401261,,,right,0,0.3503235641401261,0,,,,,,,,,,,,,,,,,,,,,,1023,2019_Mar_06_1502,mf_amp_cond1,3.0.4,59.986474839409276,
trust,leact,&&&&&,left,authority.virtue,,,,,,,0,211,211,211,,,,,,,,,,,,,,,,,,,,,AMP,right,0.35039476526435465,,,right,0,0.35039476526435465,0,,,,,,,,,,,,,,,,,,,,,,1023,2019_Mar_06_1502,mf_amp_cond1,3.0.4,59.986474839409276,
actively,perified,&&&&&&&&,left,authority.virtue,,,,,,,0,212,212,212,,,,,,,,,,,,,,,,,,,,,AMP,right,0.7170852832496166,,,right,0,0.7170852832496166,0,,,,,,,,,,,,,,,,,,,,,,1023,2019_Mar_06_1502,mf_amp_cond1,3.0.4,59.986474839409276,
illegal,proached,&&&&&&&&,right,fairness.vice,,,,,,,0,213,213,213,,,,,,,,,,,,,,,,,,,,,AMP,left,0.2002932074246928,,,left,0,0.2002932074246928,0,,,,,,,,,,,,,,,,,,,,,,1023,2019_Mar_06_1502,mf_amp_cond1,3.0.4,59.986474839409276,
promised,ammessment,&&&&&&&&&&,left,loyalty.virtue,,,,,,,0,214,214,214,,,,,,,,,,,,,,,,,,,,,AMP,right,0.2169600398046896,,,right,0,0.2169600398046896,0,,,,,,,,,,,,,,,,,,,,,,1023,2019_Mar_06_1502,mf_amp_cond1,3.0.4,59.986474839409276,
conspiracy,discovars,&&&&&&&&&,right,sanctity.vice,,,,,,,0,215,215,215,,,,,,,,,,,,,,,,,,,,,AMP,left,0.4670103135285899,,,left,0,0.4670103135285899,0,,,,,,,,,,,,,,,,,,,,,,1023,2019_Mar_06_1502,mf_amp_cond1,3.0.4,59.986474839409276,
charges,simplustic,&&&&&&&&&&,right,fairness.vice,,,,,,,0,216,216,216,,,,,,,,,,,,,,,,,,,,,AMP,left,0.1669521660078317,,,left,0,0.1669521660078317,0,,,,,,,,,,,,,,,,,,,,,,1023,2019_Mar_06_1502,mf_amp_cond1,3.0.4,59.986474839409276,
help,chared,&&&&&&,left,care.virtue,,,,,,,0,217,217,217,,,,,,,,,,,,,,,,,,,,,AMP,right,0.4670343679608777,,,right,0,0.4670343679608777,0,,,,,,,,,,,,,,,,,,,,,,1023,2019_Mar_06_1502,mf_amp_cond1,3.0.4,59.986474839409276,
strength,ittutable,&&&&&&&&&,left,sanctity.virtue,,,,,,,0,218,218,218,,,,,,,,,,,,,,,,,,,,,AMP,left,0.617068252642639,,,left,1,0.617068252642639,1,,,,,,,,,,,,,,,,,,,,,,1023,2019_Mar_06_1502,mf_amp_cond1,3.0.4,59.986474839409276,
died,divility,&&&&&&&&,right,care.vice,,,,,,,0,219,219,219,,,,,,,,,,,,,,,,,,,,,AMP,left,0.2669679136015475,,,left,0,0.2669679136015475,0,,,,,,,,,,,,,,,,,,,,,,1023,2019_Mar_06_1502,mf_amp_cond1,3.0.4,59.986474839409276,
egpeditious,coom,&&&&,None,nonword,,,,,,,0,220,220,220,,,,,,,,,,,,,,,,,,,,,AMP,left,0.7670870631700382,,,left,0,0.7670870631700382,0,,,,,,,,,,,,,,,,,,,,,,1023,2019_Mar_06_1502,mf_amp_cond1,3.0.4,59.986474839409276,
powerful,wump,&&&&,left,authority.virtue,,,,,,,0,221,221,221,,,,,,,,,,,,,,,,,,,,,AMP,left,1.3005741952219978,,,left,1,1.3005741952219978,1,,,,,,,,,,,,,,,,,,,,,,1023,2019_Mar_06_1502,mf_amp_cond1,3.0.4,59.986474839409276,
restore,gowlands,&&&&&&&&,left,care.virtue,,,,,,,0,222,222,222,,,,,,,,,,,,,,,,,,,,,AMP,left,0.5170387137914076,,,left,1,0.5170387137914076,1,,,,,,,,,,,,,,,,,,,,,,1023,2019_Mar_06_1502,mf_amp_cond1,3.0.4,59.986474839409276,
ensure,unscothed,&&&&&&&&&,left,fairness.virtue,,,,,,,0,223,223,223,,,,,,,,,,,,,,,,,,,,,AMP,left,4.501443426124752,,,left,1,4.501443426124752,1,,,,,,,,,,,,,,,,,,,,,,1023,2019_Mar_06_1502,mf_amp_cond1,3.0.4,59.986474839409276,
health,dormandi,&&&&&&&&,left,care.virtue,,,,,,,0,224,224,224,,,,,,,,,,,,,,,,,,,,,AMP,right,0.10028579866047949,,,right,0,0.10028579866047949,0,,,,,,,,,,,,,,,,,,,,,,1023,2019_Mar_06_1502,mf_amp_cond1,3.0.4,59.986474839409276,
free,epigrach,&&&&&&&&,left,fairness.virtue,,,,,,,0,225,225,225,,,,,,,,,,,,,,,,,,,,,AMP,right,0.11692793515976518,,,right,0,0.11692793515976518,0,,,,,,,,,,,,,,,,,,,,,,1023,2019_Mar_06_1502,mf_amp_cond1,3.0.4,59.986474839409276,
serial,esquisiteness,&&&&&&&&&&&&&,right,sanctity.vice,,,,,,,0,226,226,226,,,,,,,,,,,,,,,,,,,,,AMP,right,0.8671252616913989,,,right,1,0.8671252616913989,1,,,,,,,,,,,,,,,,,,,,,,1023,2019_Mar_06_1502,mf_amp_cond1,3.0.4,59.986474839409276,
ecgagement,spag,&&&&,None,nonword,,,,,,,0,227,227,227,,,,,,,,,,,,,,,,,,,,,AMP,right,1.6506921740947291,,,right,0,1.6506921740947291,0,,,,,,,,,,,,,,,,,,,,,,1023,2019_Mar_06_1502,mf_amp_cond1,3.0.4,59.986474839409276,
men,menizen,&&&&&&&,right,loyalty.vice,,,,,,,0,228,228,228,,,,,,,,,,,,,,,,,,,,,AMP,right,0.9671708368696272,,,right,1,0.9671708368696272,1,,,,,,,,,,,,,,,,,,,,,,1023,2019_Mar_06_1502,mf_amp_cond1,3.0.4,59.986474839409276,
embrace,carvels,&&&&&&&,left,authority.virtue,,,,,,,0,229,229,229,,,,,,,,,,,,,,,,,,,,,AMP,left,9.68616507947445,,,left,1,9.68616507947445,1,,,,,,,,,,,,,,,,,,,,,,1023,2019_Mar_06_1502,mf_amp_cond1,3.0.4,59.986474839409276,
sharing,edancipation,&&&&&&&&&&&&,left,loyalty.virtue,,,,,,,0,230,230,230,,,,,,,,,,,,,,,,,,,,,AMP,right,0.11691382329445332,,,right,0,0.11691382329445332,0,,,,,,,,,,,,,,,,,,,,,,1023,2019_Mar_06_1502,mf_amp_cond1,3.0.4,59.986474839409276,
rejected,lenon,&&&&&,right,authority.vice,,,,,,,0,231,231,231,,,,,,,,,,,,,,,,,,,,,AMP,left,0.3503290164517239,,,left,0,0.3503290164517239,0,,,,,,,,,,,,,,,,,,,,,,1023,2019_Mar_06_1502,mf_amp_cond1,3.0.4,59.986474839409276,
scandal,thabbily,&&&&&&&&,right,sanctity.vice,,,,,,,0,232,232,232,,,,,,,,,,,,,,,,,,,,,AMP,left,2.334198758122511,,,left,0,2.334198758122511,0,,,,,,,,,,,,,,,,,,,,,,1023,2019_Mar_06_1502,mf_amp_cond1,3.0.4,59.986474839409276,
victims,sgrawl,&&&&&&,right,care.vice,,,,,,,0,233,233,233,,,,,,,,,,,,,,,,,,,,,AMP,left,0.5337231861194596,,,left,0,0.5337231861194596,0,,,,,,,,,,,,,,,,,,,,,,1023,2019_Mar_06_1502,mf_amp_cond1,3.0.4,59.986474839409276,
death,chreams,&&&&&&&,right,care.vice,,,,,,,0,234,234,234,,,,,,,,,,,,,,,,,,,,,AMP,left,0.15027346671558917,,,left,0,0.15027346671558917,0,,,,,,,,,,,,,,,,,,,,,,1023,2019_Mar_06_1502,mf_amp_cond1,3.0.4,59.986474839409276,
fangsters,saned,&&&&&,None,nonword,,,,,,,0,235,235,235,,,,,,,,,,,,,,,,,,,,,AMP,left,0.9671583285089582,,,left,0,0.9671583285089582,0,,,,,,,,,,,,,,,,,,,,,,1023,2019_Mar_06_1502,mf_amp_cond1,3.0.4,59.986474839409276,
betrayal,nomparisons,&&&&&&&&&&&,right,loyalty.vice,,,,,,,0,236,236,236,,,,,,,,,,,,,,,,,,,,,AMP,left,0.18361065944191068,,,left,0,0.18361065944191068,0,,,,,,,,,,,,,,,,,,,,,,1023,2019_Mar_06_1502,mf_amp_cond1,3.0.4,59.986474839409276,
attacks,emports,&&&&&&&,right,care.vice,,,,,,,0,237,237,237,,,,,,,,,,,,,,,,,,,,,AMP,left,0.717110620578751,,,left,0,0.717110620578751,0,,,,,,,,,,,,,,,,,,,,,,1023,2019_Mar_06_1502,mf_amp_cond1,3.0.4,59.986474839409276,
Daptist,blunderints,&&&&&&&&&&&,None,nonword,,,,,,,0,238,238,238,,,,,,,,,,,,,,,,,,,,,AMP,left,0.4336731208022684,,,left,0,0.4336731208022684,0,,,,,,,,,,,,,,,,,,,,,,1023,2019_Mar_06_1502,mf_amp_cond1,3.0.4,59.986474839409276,
accused,juck,&&&&,right,fairness.vice,,,,,,,0,239,239,239,,,,,,,,,,,,,,,,,,,,,AMP,left,0.8004332362907007,,,left,0,0.8004332362907007,0,,,,,,,,,,,,,,,,,,,,,,1023,2019_Mar_06_1502,mf_amp_cond1,3.0.4,59.986474839409276,
army,pharing,&&&&&&&,right,loyalty.vice,,,,,,,0,240,240,240,,,,,,,,,,,,,,,,,,,,,AMP,left,0.4336788939544931,,,left,0,0.4336788939544931,0,,,,,,,,,,,,,,,,,,,,,,1023,2019_Mar_06_1502,mf_amp_cond1,3.0.4,59.986474839409276,
strong,crilfully,&&&&&&&&&,left,loyalty.virtue,,,,,,,0,241,241,241,,,,,,,,,,,,,,,,,,,,,AMP,right,0.2002864722162485,,,right,0,0.2002864722162485,0,,,,,,,,,,,,,,,,,,,,,,1023,2019_Mar_06_1502,mf_amp_cond1,3.0.4,59.986474839409276,
corruption,greaks,&&&&&&,right,sanctity.vice,,,,,,,0,242,242,242,,,,,,,,,,,,,,,,,,,,,AMP,left,0.3670106021454558,,,left,0,0.3670106021454558,0,,,,,,,,,,,,,,,,,,,,,,1023,2019_Mar_06_1502,mf_amp_cond1,3.0.4,59.986474839409276,
war,grovelire,&&&&&&&&&,right,sanctity.vice,,,,,,,0,243,243,243,,,,,,,,,,,,,,,,,,,,,AMP,left,0.4836848432896659,,,left,0,0.4836848432896659,0,,,,,,,,,,,,,,,,,,,,,,1023,2019_Mar_06_1502,mf_amp_cond1,3.0.4,59.986474839409276,
scock,hasks,&&&&&,None,nonword,,,,,,,0,244,244,244,,,,,,,,,,,,,,,,,,,,,AMP,left,0.33365705248434097,,,left,0,0.33365705248434097,0,,,,,,,,,,,,,,,,,,,,,,1023,2019_Mar_06_1502,mf_amp_cond1,3.0.4,59.986474839409276,
peace,infet,&&&&&,left,care.virtue,,,,,,,0,245,245,245,,,,,,,,,,,,,,,,,,,,,AMP,right,0.5835902614053339,,,right,0,0.5835902614053339,0,,,,,,,,,,,,,,,,,,,,,,1023,2019_Mar_06_1502,mf_amp_cond1,3.0.4,59.986474839409276,
protesters,saned,&&&&&,right,authority.vice,,,,,,,0,246,246,246,,,,,,,,,,,,,,,,,,,,,AMP,left,0.5670558887068182,,,left,0,0.5670558887068182,0,,,,,,,,,,,,,,,,,,,,,,1023,2019_Mar_06_1502,mf_amp_cond1,3.0.4,59.986474839409276,
rebels,hasks,&&&&&,right,authority.vice,,,,,,,0,247,247,247,,,,,,,,,,,,,,,,,,,,,AMP,left,0.9504728940082714,,,left,0,0.9504728940082714,0,,,,,,,,,,,,,,,,,,,,,,1023,2019_Mar_06_1502,mf_amp_cond1,3.0.4,59.986474839409276,
victims,sfumatoy,&&&&&&&&,right,care.vice,,,,,,,0,248,248,248,,,,,,,,,,,,,,,,,,,,,AMP,left,0.08358400722499937,,,left,0,0.08358400722499937,0,,,,,,,,,,,,,,,,,,,,,,1023,2019_Mar_06_1502,mf_amp_cond1,3.0.4,59.986474839409276,
suicide,bluently,&&&&&&&&,right,care.vice,,,,,,,0,249,249,249,,,,,,,,,,,,,,,,,,,,,AMP,left,0.03359249047935009,,,left,0,0.03359249047935009,0,,,,,,,,,,,,,,,,,,,,,,1023,2019_Mar_06_1502,mf_amp_cond1,3.0.4,59.986474839409276,
perfect,grovelire,&&&&&&&&&,left,sanctity.virtue,,,,,,,0,250,250,250,,,,,,,,,,,,,,,,,,,,,AMP,right,0.33363684674259275,,,right,0,0.33363684674259275,0,,,,,,,,,,,,,,,,,,,,,,1023,2019_Mar_06_1502,mf_amp_cond1,3.0.4,59.986474839409276,
Daptist,lorthwhile,&&&&&&&&&&,None,nonword,,,,,,,0,251,251,251,,,,,,,,,,,,,,,,,,,,,AMP,left,0.4003372109727934,,,left,0,0.4003372109727934,0,,,,,,,,,,,,,,,,,,,,,,1023,2019_Mar_06_1502,mf_amp_cond1,3.0.4,59.986474839409276,
energy,dormandi,&&&&&&&&,left,sanctity.virtue,,,,,,,0,252,252,252,,,,,,,,,,,,,,,,,,,,,AMP,right,0.1669444686267525,,,right,0,0.1669444686267525,0,,,,,,,,,,,,,,,,,,,,,,1023,2019_Mar_06_1502,mf_amp_cond1,3.0.4,59.986474839409276,
voter,lachelor,&&&&&&&&,right,fairness.vice,,,,,,,0,253,253,253,,,,,,,,,,,,,,,,,,,,,AMP,left,0.3503322238102555,,,left,0,0.3503322238102555,0,,,,,,,,,,,,,,,,,,,,,,1023,2019_Mar_06_1502,mf_amp_cond1,3.0.4,59.986474839409276,
violence,proached,&&&&&&&&,right,care.vice,,,,,,,0,254,254,254,,,,,,,,,,,,,,,,,,,,,AMP,left,0.6337366886436939,,,left,0,0.6337366886436939,0,,,,,,,,,,,,,,,,,,,,,,1023,2019_Mar_06_1502,mf_amp_cond1,3.0.4,59.986474839409276,
halaise,gondensed,&&&&&&&&&,None,nonword,,,,,,,0,255,255,255,,,,,,,,,,,,,,,,,,,,,AMP,left,0.40033464529551566,,,left,0,0.40033464529551566,0,,,,,,,,,,,,,,,,,,,,,,1023,2019_Mar_06_1502,mf_amp_cond1,3.0.4,59.986474839409276,
pleasant,neputized,&&&&&&&&&,None,control,,,,,,,0,256,256,256,,,,,,,,,,,,,,,,,,,,,AMP,right,0.7504337013233453,,,right,0,0.7504337013233453,0,,,,,,,,,,,,,,,,,,,,,,1023,2019_Mar_06_1502,mf_amp_cond1,3.0.4,59.986474839409276,
safe,thabbily,&&&&&&&&,left,care.virtue,,,,,,,0,257,257,257,,,,,,,,,,,,,,,,,,,,,AMP,right,0.4003343244548887,,,right,0,0.4003343244548887,0,,,,,,,,,,,,,,,,,,,,,,1023,2019_Mar_06_1502,mf_amp_cond1,3.0.4,59.986474839409276,
protect,pulge,&&&&&,left,fairness.virtue,,,,,,,0,258,258,258,,,,,,,,,,,,,,,,,,,,,AMP,right,0.3003028613748029,,,right,0,0.3003028613748029,0,,,,,,,,,,,,,,,,,,,,,,1023,2019_Mar_06_1502,mf_amp_cond1,3.0.4,59.986474839409276,
illegal,frocessing,&&&&&&&&&&,right,fairness.vice,,,,,,,0,259,259,259,,,,,,,,,,,,,,,,,,,,,AMP,left,1.0671869050711393,,,left,0,1.0671869050711393,0,,,,,,,,,,,,,,,,,,,,,,1023,2019_Mar_06_1502,mf_amp_cond1,3.0.4,59.986474839409276,
army,uller,&&&&&,right,loyalty.vice,,,,,,,0,260,260,260,,,,,,,,,,,,,,,,,,,,,AMP,left,0.5003702777903527,,,left,0,0.5003702777903527,0,,,,,,,,,,,,,,,,,,,,,,1023,2019_Mar_06_1502,mf_amp_cond1,3.0.4,59.986474839409276,
died,emports,&&&&&&&,right,care.vice,,,,,,,0,261,261,261,,,,,,,,,,,,,,,,,,,,,AMP,left,0.1169109366601333,,,left,0,0.1169109366601333,0,,,,,,,,,,,,,,,,,,,,,,1023,2019_Mar_06_1502,mf_amp_cond1,3.0.4,59.986474839409276,
counpy's,gaultless,&&&&&&&&&,None,nonword,,,,,,,0,262,262,262,,,,,,,,,,,,,,,,,,,,,AMP,left,0.4336939681088552,,,left,0,0.4336939681088552,0,,,,,,,,,,,,,,,,,,,,,,1023,2019_Mar_06_1502,mf_amp_cond1,3.0.4,59.986474839409276,
forced,crilfully,&&&&&&&&&,right,fairness.vice,,,,,,,0,263,263,263,,,,,,,,,,,,,,,,,,,,,AMP,left,0.4337125701131299,,,left,0,0.4337125701131299,0,,,,,,,,,,,,,,,,,,,,,,1023,2019_Mar_06_1502,mf_amp_cond1,3.0.4,59.986474839409276,
racist,vurtain,&&&&&&&,right,sanctity.vice,,,,,,,0,264,264,264,,,,,,,,,,,,,,,,,,,,,AMP,left,0.5170396760804579,,,left,0,0.5170396760804579,0,,,,,,,,,,,,,,,,,,,,,,1023,2019_Mar_06_1502,mf_amp_cond1,3.0.4,59.986474839409276,
powerful,ning,&&&&,left,authority.virtue,,,,,,,0,265,265,265,,,,,,,,,,,,,,,,,,,,,AMP,left,1.3172631576890126,,,left,1,1.3172631576890126,1,,,,,,,,,,,,,,,,,,,,,,1023,2019_Mar_06_1502,mf_amp_cond1,3.0.4,59.986474839409276,
love,stindig,&&&&&&&,left,loyalty.virtue,,,,,,,0,266,266,266,,,,,,,,,,,,,,,,,,,,,AMP,right,0.2669592540478334,,,right,0,0.2669592540478334,0,,,,,,,,,,,,,,,,,,,,,,1023,2019_Mar_06_1502,mf_amp_cond1,3.0.4,59.986474839409276,
refused,faspberry,&&&&&&&&&,right,authority.vice,,,,,,,0,267,267,267,,,,,,,,,,,,,,,,,,,,,AMP,right,0.9838415179401636,,,right,1,0.9838415179401636,1,,,,,,,,,,,,,,,,,,,,,,1023,2019_Mar_06_1502,mf_amp_cond1,3.0.4,59.986474839409276,
peace,gowlands,&&&&&&&&,left,care.virtue,,,,,,,0,268,268,268,,,,,,,,,,,,,,,,,,,,,AMP,left,4.418086813297123,,,left,1,4.418086813297123,1,,,,,,,,,,,,,,,,,,,,,,1023,2019_Mar_06_1502,mf_amp_cond1,3.0.4,59.986474839409276,
support,ammessment,&&&&&&&&&&,left,loyalty.virtue,,,,,,,0,269,269,269,,,,,,,,,,,,,,,,,,,,,AMP,right,0.7671124006155878,,,right,0,0.7671124006155878,0,,,,,,,,,,,,,,,,,,,,,,1023,2019_Mar_06_1502,mf_amp_cond1,3.0.4,59.986474839409276,
fighters,discovars,&&&&&&&&&,right,authority.vice,,,,,,,0,270,270,270,,,,,,,,,,,,,,,,,,,,,AMP,left,0.43367376225069165,,,left,0,0.43367376225069165,0,,,,,,,,,,,,,,,,,,,,,,1023,2019_Mar_06_1502,mf_amp_cond1,3.0.4,59.986474839409276,
corruption,ittutable,&&&&&&&&&,right,sanctity.vice,,,,,,,0,271,271,271,,,,,,,,,,,,,,,,,,,,,AMP,left,0.5670542850857601,,,left,0,0.5670542850857601,0,,,,,,,,,,,,,,,,,,,,,,1023,2019_Mar_06_1502,mf_amp_cond1,3.0.4,59.986474839409276,
intelligence,esquisiteness,&&&&&&&&&&&&&,left,loyalty.virtue,,,,,,,0,272,272,272,,,,,,,,,,,,,,,,,,,,,AMP,right,0.166939657763578,,,right,0,0.166939657763578,0,,,,,,,,,,,,,,,,,,,,,,1023,2019_Mar_06_1502,mf_amp_cond1,3.0.4,59.986474839409276,
clean,Boeinf,&&&&&&,left,sanctity.virtue,,,,,,,0,273,273,273,,,,,,,,,,,,,,,,,,,,,AMP,right,0.6337338022422045,,,right,0,0.6337338022422045,0,,,,,,,,,,,,,,,,,,,,,,1023,2019_Mar_06_1502,mf_amp_cond1,3.0.4,59.986474839409276,
rejected,reprisols,&&&&&&&&&,right,authority.vice,,,,,,,0,274,274,274,,,,,,,,,,,,,,,,,,,,,AMP,left,0.4336695928359404,,,left,0,0.4336695928359404,0,,,,,,,,,,,,,,,,,,,,,,1023,2019_Mar_06_1502,mf_amp_cond1,3.0.4,59.986474839409276,
respect,presentkess,&&&&&&&&&&&,left,sanctity.virtue,,,,,,,0,275,275,275,,,,,,,,,,,,,,,,,,,,,AMP,right,0.4003436255734414,,,right,0,0.4003436255734414,0,,,,,,,,,,,,,,,,,,,,,,1023,2019_Mar_06_1502,mf_amp_cond1,3.0.4,59.986474839409276,
unpleasant,disregord,&&&&&&&&&,None,control,,,,,,,0,276,276,276,,,,,,,,,,,,,,,,,,,,,AMP,left,5.284947476349771,,,left,0,5.284947476349771,0,,,,,,,,,,,,,,,,,,,,,,1023,2019_Mar_06_1502,mf_amp_cond1,3.0.4,59.986474839409276,
progress,sowntrodden,&&&&&&&&&&&,left,authority.virtue,,,,,,,0,277,277,277,,,,,,,,,,,,,,,,,,,,,AMP,right,1.3506009918637574,,,right,0,1.3506009918637574,0,,,,,,,,,,,,,,,,,,,,,,1023,2019_Mar_06_1502,mf_amp_cond1,3.0.4,59.986474839409276,
compassion,abointment,&&&&&&&&&&,left,care.virtue,,,,,,,0,278,278,278,,,,,,,,,,,,,,,,,,,,,AMP,right,0.41687158367130905,,,right,0,0.41687158367130905,0,,,,,,,,,,,,,,,,,,,,,,1023,2019_Mar_06_1502,mf_amp_cond1,3.0.4,59.986474839409276,
freedom,tabin,&&&&&,left,sanctity.virtue,,,,,,,0,279,279,279,,,,,,,,,,,,,,,,,,,,,AMP,right,0.11692087922710925,,,right,0,0.11692087922710925,0,,,,,,,,,,,,,,,,,,,,,,1023,2019_Mar_06_1502,mf_amp_cond1,3.0.4,59.986474839409276,
embrace,hescribe,&&&&&&&&,left,authority.virtue,,,,,,,0,280,280,280,,,,,,,,,,,,,,,,,,,,,AMP,right,0.10030536295380443,,,right,0,0.10030536295380443,0,,,,,,,,,,,,,,,,,,,,,,1023,2019_Mar_06_1502,mf_amp_cond1,3.0.4,59.986474839409276,
help,reviked,&&&&&&&,left,care.virtue,,,,,,,0,281,281,281,,,,,,,,,,,,,,,,,,,,,AMP,right,0.5670337586198002,,,right,0,0.5670337586198002,0,,,,,,,,,,,,,,,,,,,,,,1023,2019_Mar_06_1502,mf_amp_cond1,3.0.4,59.986474839409276,
war,erks,&&&&,right,sanctity.vice,,,,,,,0,282,282,282,,,,,,,,,,,,,,,,,,,,,AMP,left,0.43367536598816514,,,left,0,0.43367536598816514,0,,,,,,,,,,,,,,,,,,,,,,1023,2019_Mar_06_1502,mf_amp_cond1,3.0.4,59.986474839409276,
refuejing,chreams,&&&&&&&,None,nonword,,,,,,,0,283,283,283,,,,,,,,,,,,,,,,,,,,,AMP,right,0.3836607568664476,,,right,0,0.3836607568664476,0,,,,,,,,,,,,,,,,,,,,,,1023,2019_Mar_06_1502,mf_amp_cond1,3.0.4,59.986474839409276,
ecgagement,gusinesslike,&&&&&&&&&&&&,None,nonword,,,,,,,0,284,284,284,,,,,,,,,,,,,,,,,,,,,AMP,right,0.4836906164418906,,,right,0,0.4836906164418906,0,,,,,,,,,,,,,,,,,,,,,,1023,2019_Mar_06_1502,mf_amp_cond1,3.0.4,59.986474839409276,
praised,coom,&&&&,left,loyalty.virtue,,,,,,,0,285,285,285,,,,,,,,,,,,,,,,,,,,,AMP,right,0.15026993886567652,,,right,0,0.15026993886567652,0,,,,,,,,,,,,,,,,,,,,,,1023,2019_Mar_06_1502,mf_amp_cond1,3.0.4,59.986474839409276,
terrorists,pharing,&&&&&&&,right,fairness.vice,,,,,,,0,286,286,286,,,,,,,,,,,,,,,,,,,,,AMP,left,0.11691061593592167,,,left,0,0.11691061593592167,0,,,,,,,,,,,,,,,,,,,,,,1023,2019_Mar_06_1502,mf_amp_cond1,3.0.4,59.986474839409276,
letish,greaks,&&&&&&,None,nonword,,,,,,,0,287,287,287,,,,,,,,,,,,,,,,,,,,,AMP,left,0.1336162561783567,,,left,0,0.1336162561783567,0,,,,,,,,,,,,,,,,,,,,,,1023,2019_Mar_06_1502,mf_amp_cond1,3.0.4,59.986474839409276,
death,nomparisons,&&&&&&&&&&&,right,care.vice,,,,,,,0,288,288,288,,,,,,,,,,,,,,,,,,,,,AMP,left,0.11692761443555355,,,left,0,0.11692761443555355,0,,,,,,,,,,,,,,,,,,,,,,1023,2019_Mar_06_1502,mf_amp_cond1,3.0.4,59.986474839409276,
men,clamorek,&&&&&&&&,right,loyalty.vice,,,,,,,0,289,289,289,,,,,,,,,,,,,,,,,,,,,AMP,left,0.25030140206217766,,,left,0,0.25030140206217766,0,,,,,,,,,,,,,,,,,,,,,,1023,2019_Mar_06_1502,mf_amp_cond1,3.0.4,59.986474839409276,
restore,totalestic,&&&&&&&&&&,left,care.virtue,,,,,,,0,290,290,290,,,,,,,,,,,,,,,,,,,,,AMP,left,0.7837644795654342,,,left,1,0.7837644795654342,1,,,,,,,,,,,,,,,,,,,,,,1023,2019_Mar_06_1502,mf_amp_cond1,3.0.4,59.986474839409276,
fangsters,mih,&&&,None,nonword,,,,,,,0,291,291,291,,,,,,,,,,,,,,,,,,,,,AMP,left,0.16694895876571536,,,left,0,0.16694895876571536,0,,,,,,,,,,,,,,,,,,,,,,1023,2019_Mar_06_1502,mf_amp_cond1,3.0.4,59.986474839409276,
victim,shoirmaster,&&&&&&&&&&&,right,care.vice,,,,,,,0,292,292,292,,,,,,,,,,,,,,,,,,,,,AMP,left,0.683742638095282,,,left,0,0.683742638095282,0,,,,,,,,,,,,,,,,,,,,,,1023,2019_Mar_06_1502,mf_amp_cond1,3.0.4,59.986474839409276,
interests,divility,&&&&&&&&,left,fairness.virtue,,,,,,,0,293,293,293,,,,,,,,,,,,,,,,,,,,,AMP,left,0.4503296900074929,,,left,1,0.4503296900074929,1,,,,,,,,,,,,,,,,,,,,,,1023,2019_Mar_06_1502,mf_amp_cond1,3.0.4,59.986474839409276,
strong,tomedians,&&&&&&&&&,left,loyalty.virtue,,,,,,,0,294,294,294,,,,,,,,,,,,,,,,,,,,,AMP,right,0.5504076583310962,,,right,0,0.5504076583310962,0,,,,,,,,,,,,,,,,,,,,,,1023,2019_Mar_06_1502,mf_amp_cond1,3.0.4,59.986474839409276,
groups,mecan,&&&&&,right,loyalty.vice,,,,,,,0,295,295,295,,,,,,,,,,,,,,,,,,,,,AMP,left,0.4170040433527902,,,left,0,0.4170040433527902,0,,,,,,,,,,,,,,,,,,,,,,1023,2019_Mar_06_1502,mf_amp_cond1,3.0.4,59.986474839409276,
conspiracy,juck,&&&&,right,sanctity.vice,,,,,,,0,296,296,296,,,,,,,,,,,,,,,,,,,,,AMP,left,7.318857806036249,,,left,0,7.318857806036249,0,,,,,,,,,,,,,,,,,,,,,,1023,2019_Mar_06_1502,mf_amp_cond1,3.0.4,59.986474839409276,
blamed,chared,&&&&&&,right,loyalty.vice,,,,,,,0,297,297,297,,,,,,,,,,,,,,,,,,,,,AMP,right,0.15028854086995125,,,right,1,0.15028854086995125,1,,,,,,,,,,,,,,,,,,,,,,1023,2019_Mar_06_1502,mf_amp_cond1,3.0.4,59.986474839409276,
strength,sgrawl,&&&&&&,left,sanctity.virtue,,,,,,,0,298,298,298,,,,,,,,,,,,,,,,,,,,,AMP,left,0.38368705636821687,,,left,1,0.38368705636821687,1,,,,,,,,,,,,,,,,,,,,,,1023,2019_Mar_06_1502,mf_amp_cond1,3.0.4,59.986474839409276,
benefit,perified,&&&&&&&&,left,fairness.virtue,,,,,,,0,299,299,299,,,,,,,,,,,,,,,,,,,,,AMP,left,0.53371933742892,,,left,1,0.53371933742892,1,,,,,,,,,,,,,,,,,,,,,,1023,2019_Mar_06_1502,mf_amp_cond1,3.0.4,59.986474839409276,
harassment,sliptery,&&&&&&&&,right,sanctity.vice,,,,,,,0,300,300,300,,,,,,,,,,,,,,,,,,,,,AMP,left,7.152150353649631,,,left,0,7.152150353649631,0,,,,,,,,,,,,,,,,,,,,,,1023,2019_Mar_06_1502,mf_amp_cond1,3.0.4,59.986474839409276,
praise,nonobservalt,&&&&&&&&&&&&,left,authority.virtue,,,,,,,0,301,301,301,,,,,,,,,,,,,,,,,,,,,AMP,right,0.3670000183628872,,,right,0,0.3670000183628872,0,,,,,,,,,,,,,,,,,,,,,,1023,2019_Mar_06_1502,mf_amp_cond1,3.0.4,59.986474839409276,
troops,touls,&&&&&,right,loyalty.vice,,,,,,,0,302,302,302,,,,,,,,,,,,,,,,,,,,,AMP,left,0.1668966804863885,,,left,0,0.1668966804863885,0,,,,,,,,,,,,,,,,,,,,,,1023,2019_Mar_06_1502,mf_amp_cond1,3.0.4,59.986474839409276,
actively,epigrach,&&&&&&&&,left,authority.virtue,,,,,,,0,303,303,303,,,,,,,,,,,,,,,,,,,,,AMP,left,0.517070144880563,,,left,1,0.517070144880563,1,,,,,,,,,,,,,,,,,,,,,,1023,2019_Mar_06_1502,mf_amp_cond1,3.0.4,59.986474839409276,
accused,carvels,&&&&&&&,right,fairness.vice,,,,,,,0,304,304,304,,,,,,,,,,,,,,,,,,,,,AMP,left,9.686129158129916,,,left,0,9.686129158129916,0,,,,,,,,,,,,,,,,,,,,,,1023,2019_Mar_06_1502,mf_amp_cond1,3.0.4,59.986474839409276,
fair,blunderints,&&&&&&&&&&&,left,fairness.virtue,,,,,,,0,305,305,305,,,,,,,,,,,,,,,,,,,,,AMP,right,0.18361867766361684,,,right,0,0.18361867766361684,0,,,,,,,,,,,,,,,,,,,,,,1023,2019_Mar_06_1502,mf_amp_cond1,3.0.4,59.986474839409276,
sharing,edancipation,&&&&&&&&&&&&,left,loyalty.virtue,,,,,,,0,306,306,306,,,,,,,,,,,,,,,,,,,,,AMP,right,0.20028775511309505,,,right,0,0.20028775511309505,0,,,,,,,,,,,,,,,,,,,,,,1023,2019_Mar_06_1502,mf_amp_cond1,3.0.4,59.986474839409276,
dignity,lempestuous,&&&&&&&&&&&,left,sanctity.virtue,,,,,,,0,307,307,307,,,,,,,,,,,,,,,,,,,,,AMP,right,0.40033753169700503,,,right,0,0.40033753169700503,0,,,,,,,,,,,,,,,,,,,,,,1023,2019_Mar_06_1502,mf_amp_cond1,3.0.4,59.986474839409276,
free,gandbrake,&&&&&&&&&,left,fairness.virtue,,,,,,,0,308,308,308,,,,,,,,,,,,,,,,,,,,,AMP,right,0.016897113411687315,,,right,0,0.016897113411687315,0,,,,,,,,,,,,,,,,,,,,,,1023,2019_Mar_06_1502,mf_amp_cond1,3.0.4,59.986474839409276,
encourage,asn,&&&,left,authority.virtue,,,,,,,0,309,309,309,,,,,,,,,,,,,,,,,,,,,AMP,right,0.10026366857346147,,,right,0,0.10026366857346147,0,,,,,,,,,,,,,,,,,,,,,,1023,2019_Mar_06_1502,mf_amp_cond1,3.0.4,59.986474839409276,
egpeditious,leact,&&&&&,None,nonword,,,,,,,0,310,310,310,,,,,,,,,,,,,,,,,,,,,AMP,right,0.717094584251754,,,right,0,0.717094584251754,0,,,,,,,,,,,,,,,,,,,,,,1023,2019_Mar_06_1502,mf_amp_cond1,3.0.4,59.986474839409276,
win,scalbel,&&&&&&&,left,fairness.virtue,,,,,,,0,311,311,311,,,,,,,,,,,,,,,,,,,,,AMP,right,0.05024296569172293,,,right,0,0.05024296569172293,0,,,,,,,,,,,,,,,,,,,,,,1023,2019_Mar_06_1502,mf_amp_cond1,3.0.4,59.986474839409276,
growth,unscothed,&&&&&&&&&,left,care.virtue,,,,,,,0,312,312,312,,,,,,,,,,,,,,,,,,,,,AMP,right,0.1169385191751644,,,right,0,0.1169385191751644,0,,,,,,,,,,,,,,,,,,,,,,1023,2019_Mar_06_1502,mf_amp_cond1,3.0.4,59.986474839409276,
promised,lenon,&&&&&,left,loyalty.virtue,,,,,,,0,313,313,313,,,,,,,,,,,,,,,,,,,,,AMP,right,0.36698462336789817,,,right,0,0.36698462336789817,0,,,,,,,,,,,,,,,,,,,,,,1023,2019_Mar_06_1502,mf_amp_cond1,3.0.4,59.986474839409276,
health,frojecting,&&&&&&&&&&,left,care.virtue,,,,,,,0,314,314,314,,,,,,,,,,,,,,,,,,,,,AMP,right,0.13359476753976196,,,right,0,0.13359476753976196,0,,,,,,,,,,,,,,,,,,,,,,1023,2019_Mar_06_1502,mf_amp_cond1,3.0.4,59.986474839409276,
slavery,wump,&&&&,right,loyalty.vice,,,,,,,0,315,315,315,,,,,,,,,,,,,,,,,,,,,AMP,left,0.4669747130246833,,,left,0,0.4669747130246833,0,,,,,,,,,,,,,,,,,,,,,,1023,2019_Mar_06_1502,mf_amp_cond1,3.0.4,59.986474839409276,
attacks,fonderland,&&&&&&&&&&,right,care.vice,,,,,,,0,316,316,316,,,,,,,,,,,,,,,,,,,,,AMP,left,0.11691318184603006,,,left,0,0.11691318184603006,0,,,,,,,,,,,,,,,,,,,,,,1023,2019_Mar_06_1502,mf_amp_cond1,3.0.4,59.986474839409276,
scock,infet,&&&&&,None,nonword,,,,,,,0,317,317,317,,,,,,,,,,,,,,,,,,,,,AMP,left,0.3669974524527788,,,left,0,0.3669974524527788,0,,,,,,,,,,,,,,,,,,,,,,1023,2019_Mar_06_1502,mf_amp_cond1,3.0.4,59.986474839409276,
betrayal,tislay,&&&&&&,right,loyalty.vice,,,,,,,0,318,318,318,,,,,,,,,,,,,,,,,,,,,AMP,left,0.46701095497701317,,,left,0,0.46701095497701317,0,,,,,,,,,,,,,,,,,,,,,,1023,2019_Mar_06_1502,mf_amp_cond1,3.0.4,59.986474839409276,
riot,ronviolence,&&&&&&&&&&&,right,authority.vice,,,,,,,0,319,319,319,,,,,,,,,,,,,,,,,,,,,AMP,left,0.4336634990759194,,,left,0,0.4336634990759194,0,,,,,,,,,,,,,,,,,,,,,,1023,2019_Mar_06_1502,mf_amp_cond1,3.0.4,59.986474839409276,
serial,sonvoy,&&&&&&,right,sanctity.vice,,,,,,,0,320,320,320,,,,,,,,,,,,,,,,,,,,,AMP,left,11.303245840477757,,,left,0,11.303245840477757,0,,,,,,,,,,,,,,,,,,,,,,1023,2019_Mar_06_1502,mf_amp_cond1,3.0.4,59.986474839409276,
scandal,imebreaker,&&&&&&&&&&,right,sanctity.vice,,,,,,,0,321,321,321,,,,,,,,,,,,,,,,,,,,,AMP,left,0.3836739066755399,,,left,0,0.3836739066755399,0,,,,,,,,,,,,,,,,,,,,,,1023,2019_Mar_06_1502,mf_amp_cond1,3.0.4,59.986474839409276,
trust,simplustic,&&&&&&&&&&,left,authority.virtue,,,,,,,0,322,322,322,,,,,,,,,,,,,,,,,,,,,AMP,right,0.20030154625419527,,,right,0,0.20030154625419527,0,,,,,,,,,,,,,,,,,,,,,,1023,2019_Mar_06_1502,mf_amp_cond1,3.0.4,59.986474839409276,
crime,viscs,&&&&&,right,fairness.vice,,,,,,,0,323,323,323,,,,,,,,,,,,,,,,,,,,,AMP,left,0.116942367865704,,,left,0,0.116942367865704,0,,,,,,,,,,,,,,,,,,,,,,1023,2019_Mar_06_1502,mf_amp_cond1,3.0.4,59.986474839409276,
officers,synchronazers,&&&&&&&&&&&&&,right,authority.vice,,,,,,,0,324,324,324,,,,,,,,,,,,,,,,,,,,,AMP,left,0.20027941616717726,,,left,0,0.20027941616717726,0,,,,,,,,,,,,,,,,,,,,,,1023,2019_Mar_06_1502,mf_amp_cond1,3.0.4,59.986474839409276,
charges,wonderfujnoss,&&&&&&&&&&&&&,right,fairness.vice,,,,,,,0,325,325,325,,,,,,,,,,,,,,,,,,,,,AMP,left,0.23362558928783983,,,left,0,0.23362558928783983,0,,,,,,,,,,,,,,,,,,,,,,1023,2019_Mar_06_1502,mf_amp_cond1,3.0.4,59.986474839409276,
taxpayung,spag,&&&&,None,nonword,,,,,,,0,326,326,326,,,,,,,,,,,,,,,,,,,,,AMP,left,0.5670741701032966,,,left,0,0.5670741701032966,0,,,,,,,,,,,,,,,,,,,,,,1023,2019_Mar_06_1502,mf_amp_cond1,3.0.4,59.986474839409276,
ensure,menizen,&&&&&&&,left,fairness.virtue,,,,,,,0,327,327,327,,,,,,,,,,,,,,,,,,,,,AMP,left,0.7171215252019465,,,left,1,0.7171215252019465,1,,,,,,,,,,,,,,,,,,,,,,1023,2019_Mar_06_1502,mf_amp_cond1,3.0.4,59.986474839409276,
,,,,,,,,,,,,,,,,,,,,,,,,,,,,,,,,,,,,,,,,,,,,2,32.911,,,,,,,,,,,,,,,,,,,,1023,2019_Mar_06_1502,mf_amp_cond1,3.0.4,59.986474839409276,
,,,,,,,,,,,,,,,,,,,,,,,,,,,,,,,,,,,,,,,,,,,,,,2,4.586,,,,,,,,,,,,,,,,,,1023,2019_Mar_06_1502,mf_amp_cond1,3.0.4,59.986474839409276,
,,,,,,,,,,,,,,,,,,,,,,,,,,,,,,,,,,,,,,,,,,,,,,,,3,12.422,,,,,,,,,,,,,,,,1023,2019_Mar_06_1502,mf_amp_cond1,3.0.4,59.986474839409276,
,,,,,,,,,,,,,,,,,,,,,,,,,,,,,,,,,,,,,,,,,,,,,,,,,,right,0.7671367757720873,,,,,,,,,,,,,,1023,2019_Mar_06_1502,mf_amp_cond1,3.0.4,59.986474839409276,
bisebell,,&&&&&&&,,,,,,,,,,,,,0,0,0,1,,,,,,,,,,,,,,,,,LDT_prac,left,4.951558871311136,,,,,,0,,,,,,,,,left,4.951558871311136,,,,,,,,,,,,1023,2019_Mar_06_1502,mf_amp_cond1,3.0.4,59.986474839409276,
keyboard,,&&&&&&&,,,,,,,,,,,,,0,1,1,0,,,,,,,,,,,,,,,,,LDT_prac,right,1.4506468877661973,,,,,,0,,,,,,,,,right,1.4506468877661973,,,,,,,,,,,,1023,2019_Mar_06_1502,mf_amp_cond1,3.0.4,59.986474839409276,
,,,,,,,,,,,,,,,,,,,,,,,,,,,,,,,,,,,,,,,,,,,,,,,,,,,,,,right,1.5339848982403055,,,,,,,,,,1023,2019_Mar_06_1502,mf_amp_cond1,3.0.4,59.986474839409276,
whereafter,,&&&&&&&&&&,left,neutral,,,,,,,,,,,,,,,0,0,0,53,,,,,,,,,,,,,LDT,right,2.4176586446119472,,,,,,0,,,,,,,,,,,,,right,0,2.4176586446119472,,,,,,,1023,2019_Mar_06_1502,mf_amp_cond1,3.0.4,59.986474839409276,
towards,,&&&&&&&,left,neutral,,,,,,,,,,,,,,,0,1,1,154,,,,,,,,,,,,,LDT,right,0.8671429015230387,,,,,,0,,,,,,,,,,,,,right,0,0.8671429015230387,,,,,,,1023,2019_Mar_06_1502,mf_amp_cond1,3.0.4,59.986474839409276,
dramens,,&&&&&&&,right,nonword,,,,,,,,,,,,,,,0,2,2,55,,,,,,,,,,,,,LDT,right,4.3013910837471485,,,,,,1,,,,,,,,,,,,,right,1,4.3013910837471485,,,,,,,1023,2019_Mar_06_1502,mf_amp_cond1,3.0.4,59.986474839409276,
least,,&&&&&,left,neutral,,,,,,,,,,,,,,,0,3,3,71,,,,,,,,,,,,,LDT,right,0.9171421158825979,,,,,,0,,,,,,,,,,,,,right,0,0.9171421158825979,,,,,,,1023,2019_Mar_06_1502,mf_amp_cond1,3.0.4,59.986474839409276,
brotesque,,&&&&&&&&&,right,nonword,,,,,,,,,,,,,,,0,4,4,17,,,,,,,,,,,,,LDT,left,0.8671685596928,,,,,,0,,,,,,,,,,,,,left,0,0.8671685596928,,,,,,,1023,2019_Mar_06_1502,mf_amp_cond1,3.0.4,59.986474839409276,
arrests,,&&&&&&&,left,authority.vice,,,,,,,,,,,,,,,0,5,5,178,,,,,,,,,,,,,LDT,right,1.1172040801029652,,,,,,0,,,,,,,,,,,,,right,0,1.1172040801029652,,,,,,,1023,2019_Mar_06_1502,mf_amp_cond1,3.0.4,59.986474839409276,
prison,,&&&&&&,left,fairness.vice,,,,,,,,,,,,,,,0,6,6,190,,,,,,,,,,,,,LDT,right,1.1004958739504218,,,,,,0,,,,,,,,,,,,,right,0,1.1004958739504218,,,,,,,1023,2019_Mar_06_1502,mf_amp_cond1,3.0.4,59.986474839409276,
focomotive,,&&&&&&&&&&,right,nonword,,,,,,,,,,,,,,,0,7,7,163,,,,,,,,,,,,,LDT,right,1.067224430036731,,,,,,1,,,,,,,,,,,,,right,1,1.067224430036731,,,,,,,1023,2019_Mar_06_1502,mf_amp_cond1,3.0.4,59.986474839409276,
amoungst,,&&&&&&&&,left,neutral,,,,,,,,,,,,,,,0,8,8,16,,,,,,,,,,,,,LDT,right,0.8337912762071937,,,,,,0,,,,,,,,,,,,,right,0,0.8337912762071937,,,,,,,1023,2019_Mar_06_1502,mf_amp_cond1,3.0.4,59.986474839409276,
crinking,,&&&&&&&&,right,nonword,,,,,,,,,,,,,,,0,9,9,81,,,,,,,,,,,,,LDT,right,1.2505682457704097,,,,,,1,,,,,,,,,,,,,right,1,1.2505682457704097,,,,,,,1023,2019_Mar_06_1502,mf_amp_cond1,3.0.4,59.986474839409276,
fostet,,&&&&&&,right,nonword,,,,,,,,,,,,,,,0,10,10,137,,,,,,,,,,,,,LDT,right,2.450896412367001,,,,,,1,,,,,,,,,,,,,right,1,2.450896412367001,,,,,,,1023,2019_Mar_06_1502,mf_amp_cond1,3.0.4,59.986474839409276,
abuse,,&&&&&,left,sanctity.vice,,,,,,,,,,,,,,,0,11,11,194,,,,,,,,,,,,,LDT,right,0.6837419966468588,,,,,,0,,,,,,,,,,,,,right,0,0.6837419966468588,,,,,,,1023,2019_Mar_06_1502,mf_amp_cond1,3.0.4,59.986474839409276,
sidearbs,,&&&&&&&&,right,nonword,,,,,,,,,,,,,,,0,12,12,27,,,,,,,,,,,,,LDT,left,1.1838797483360395,,,,,,0,,,,,,,,,,,,,left,0,1.1838797483360395,,,,,,,1023,2019_Mar_06_1502,mf_amp_cond1,3.0.4,59.986474839409276,
mightingale,,&&&&&&&&&&&,right,nonword,,,,,,,,,,,,,,,0,13,13,110,,,,,,,,,,,,,LDT,left,1.4673194931820035,,,,,,0,,,,,,,,,,,,,left,0,1.4673194931820035,,,,,,,1023,2019_Mar_06_1502,mf_amp_cond1,3.0.4,59.986474839409276,
else,,&&&&,left,neutral,,,,,,,,,,,,,,,0,14,14,14,,,,,,,,,,,,,LDT,right,1.433976848027669,,,,,,0,,,,,,,,,,,,,right,0,1.433976848027669,,,,,,,1023,2019_Mar_06_1502,mf_amp_cond1,3.0.4,59.986474839409276,
each,,&&&&,left,neutral,,,,,,,,,,,,,,,0,15,15,130,,,,,,,,,,,,,LDT,right,0.8504940299317241,,,,,,0,,,,,,,,,,,,,right,0,0.8504940299317241,,,,,,,1023,2019_Mar_06_1502,mf_amp_cond1,3.0.4,59.986474839409276,
nuckheap,,&&&&&&&&,right,nonword,,,,,,,,,,,,,,,0,16,16,104,,,,,,,,,,,,,LDT,right,4.151328654377721,,,,,,1,,,,,,,,,,,,,right,1,4.151328654377721,,,,,,,1023,2019_Mar_06_1502,mf_amp_cond1,3.0.4,59.986474839409276,
prones,,&&&&&&,right,nonword,,,,,,,,,,,,,,,0,17,17,140,,,,,,,,,,,,,LDT,right,0.7004158850759268,,,,,,1,,,,,,,,,,,,,right,1,0.7004158850759268,,,,,,,1023,2019_Mar_06_1502,mf_amp_cond1,3.0.4,59.986474839409276,
everything,,&&&&&&&&&&,left,neutral,,,,,,,,,,,,,,,0,18,18,183,,,,,,,,,,,,,LDT,right,0.7670751963742077,,,,,,0,,,,,,,,,,,,,right,0,0.7670751963742077,,,,,,,1023,2019_Mar_06_1502,mf_amp_cond1,3.0.4,59.986474839409276,
nackers,,&&&&&&&,right,nonword,,,,,,,,,,,,,,,0,19,19,23,,,,,,,,,,,,,LDT,left,0.8171212365850806,,,,,,0,,,,,,,,,,,,,left,0,0.8171212365850806,,,,,,,1023,2019_Mar_06_1502,mf_amp_cond1,3.0.4,59.986474839409276,
hand,,&&&&,left,sanctity.virtue,,,,,,,,,,,,,,,0,20,20,116,,,,,,,,,,,,,LDT,right,0.7504612838383764,,,,,,0,,,,,,,,,,,,,right,0,0.7504612838383764,,,,,,,1023,2019_Mar_06_1502,mf_amp_cond1,3.0.4,59.986474839409276,
values,,&&&&&&,left,sanctity.virtue,,,,,,,,,,,,,,,0,21,21,128,,,,,,,,,,,,,LDT,right,1.1338237657910213,,,,,,0,,,,,,,,,,,,,right,0,1.1338237657910213,,,,,,,1023,2019_Mar_06_1502,mf_amp_cond1,3.0.4,59.986474839409276,
Lacedonia,,&&&&&&&&&,right,nonword,,,,,,,,,,,,,,,0,22,22,177,,,,,,,,,,,,,LDT,right,1.6673766465391964,,,,,,1,,,,,,,,,,,,,right,1,1.6673766465391964,,,,,,,1023,2019_Mar_06_1502,mf_amp_cond1,3.0.4,59.986474839409276,
good,,&&&&,left,care.virtue,,,,,,,,,,,,,,,0,23,23,189,,,,,,,,,,,,,LDT,left,0.8004479896044359,,,,,,1,,,,,,,,,,,,,left,1,0.8004479896044359,,,,,,,1023,2019_Mar_06_1502,mf_amp_cond1,3.0.4,59.986474839409276,
feleological,,&&&&&&&&&&&&,right,nonword,,,,,,,,,,,,,,,0,24,24,90,,,,,,,,,,,,,LDT,right,1.4339691506465897,,,,,,1,,,,,,,,,,,,,right,1,1.4339691506465897,,,,,,,1023,2019_Mar_06_1502,mf_amp_cond1,3.0.4,59.986474839409276,
useful,,&&&&&&,left,authority.virtue,,,,,,,,,,,,,,,0,25,25,76,,,,,,,,,,,,,LDT,right,0.7504221552517265,,,,,,0,,,,,,,,,,,,,right,0,0.7504221552517265,,,,,,,1023,2019_Mar_06_1502,mf_amp_cond1,3.0.4,59.986474839409276,
pafer,,&&&&&,right,nonword,,,,,,,,,,,,,,,0,26,26,165,,,,,,,,,,,,,LDT,right,2.1174734896048903,,,,,,1,,,,,,,,,,,,,right,1,2.1174734896048903,,,,,,,1023,2019_Mar_06_1502,mf_amp_cond1,3.0.4,59.986474839409276,
also,,&&&&,left,neutral,,,,,,,,,,,,,,,0,27,27,127,,,,,,,,,,,,,LDT,right,1.2338937160093337,,,,,,0,,,,,,,,,,,,,right,0,1.2338937160093337,,,,,,,1023,2019_Mar_06_1502,mf_amp_cond1,3.0.4,59.986474839409276,
fear,,&&&&,left,sanctity.vice,,,,,,,,,,,,,,,0,28,28,184,,,,,,,,,,,,,LDT,right,1.2339148839237168,,,,,,0,,,,,,,,,,,,,right,0,1.2339148839237168,,,,,,,1023,2019_Mar_06_1502,mf_amp_cond1,3.0.4,59.986474839409276,
pescinded,,&&&&&&&&&,right,nonword,,,,,,,,,,,,,,,0,29,29,84,,,,,,,,,,,,,LDT,right,0.9671961741987616,,,,,,1,,,,,,,,,,,,,right,1,0.9671961741987616,,,,,,,1023,2019_Mar_06_1502,mf_amp_cond1,3.0.4,59.986474839409276,
rorroborated,,&&&&&&&&&&&&,right,nonword,,,,,,,,,,,,,,,0,30,30,29,,,,,,,,,,,,,LDT,left,1.0672189777251333,,,,,,0,,,,,,,,,,,,,left,0,1.0672189777251333,,,,,,,1023,2019_Mar_06_1502,mf_amp_cond1,3.0.4,59.986474839409276,
framo,,&&&&&,right,nonword,,,,,,,,,,,,,,,0,31,31,121,,,,,,,,,,,,,LDT,right,0.6670825410401449,,,,,,1,,,,,,,,,,,,,right,1,0.6670825410401449,,,,,,,1023,2019_Mar_06_1502,mf_amp_cond1,3.0.4,59.986474839409276,
honored,,&&&&&&&,left,authority.virtue,,,,,,,,,,,,,,,0,32,32,88,,,,,,,,,,,,,LDT,right,1.684025838971138,,,,,,0,,,,,,,,,,,,,right,0,1.684025838971138,,,,,,,1023,2019_Mar_06_1502,mf_amp_cond1,3.0.4,59.986474839409276,
rivernoat,,&&&&&&&&&,right,nonword,,,,,,,,,,,,,,,0,33,33,30,,,,,,,,,,,,,LDT,right,1.4671530365012586,,,,,,1,,,,,,,,,,,,,right,1,1.4671530365012586,,,,,,,1023,2019_Mar_06_1502,mf_amp_cond1,3.0.4,59.986474839409276,
photocalkodes,,&&&&&&&&&&&&&,right,nonword,,,,,,,,,,,,,,,0,34,34,45,,,,,,,,,,,,,LDT,right,2.3341852877056226,,,,,,1,,,,,,,,,,,,,right,1,2.3341852877056226,,,,,,,1023,2019_Mar_06_1502,mf_amp_cond1,3.0.4,59.986474839409276,
integrity,,&&&&&&&&&,left,fairness.virtue,,,,,,,,,,,,,,,0,35,35,197,,,,,,,,,,,,,LDT,right,0.7337716799229383,,,,,,0,,,,,,,,,,,,,right,0,0.7337716799229383,,,,,,,1023,2019_Mar_06_1502,mf_amp_cond1,3.0.4,59.986474839409276,
wherever,,&&&&&&&&,left,neutral,,,,,,,,,,,,,,,0,36,36,33,,,,,,,,,,,,,LDT,left,0.8171517055016011,,,,,,1,,,,,,,,,,,,,left,1,0.8171517055016011,,,,,,,1023,2019_Mar_06_1502,mf_amp_cond1,3.0.4,59.986474839409276,
pistraught,,&&&&&&&&&&,right,nonword,,,,,,,,,,,,,,,0,37,37,60,,,,,,,,,,,,,LDT,right,0.6505295662209392,,,,,,1,,,,,,,,,,,,,right,1,0.6505295662209392,,,,,,,1023,2019_Mar_06_1502,mf_amp_cond1,3.0.4,59.986474839409276,
black,,&&&&&,left,loyalty.vice,,,,,,,,,,,,,,,0,38,38,40,,,,,,,,,,,,,LDT,right,0.6170576687436551,,,,,,0,,,,,,,,,,,,,right,0,0.6170576687436551,,,,,,,1023,2019_Mar_06_1502,mf_amp_cond1,3.0.4,59.986474839409276,
forty,,&&&&&,left,neutral,,,,,,,,,,,,,,,0,39,39,83,,,,,,,,,,,,,LDT,right,1.1672372911125422,,,,,,0,,,,,,,,,,,,,right,0,1.1672372911125422,,,,,,,1023,2019_Mar_06_1502,mf_amp_cond1,3.0.4,59.986474839409276,
squets,,&&&&&&,right,nonword,,,,,,,,,,,,,,,0,40,40,68,,,,,,,,,,,,,LDT,right,1.850730725331232,,,,,,1,,,,,,,,,,,,,right,1,1.850730725331232,,,,,,,1023,2019_Mar_06_1502,mf_amp_cond1,3.0.4,59.986474839409276,
improve,,&&&&&&&,left,care.virtue,,,,,,,,,,,,,,,0,41,41,147,,,,,,,,,,,,,LDT,right,0.9337858558865264,,,,,,0,,,,,,,,,,,,,right,0,0.9337858558865264,,,,,,,1023,2019_Mar_06_1502,mf_amp_cond1,3.0.4,59.986474839409276,
festate,,&&&&&&&,right,nonword,,,,,,,,,,,,,,,0,42,42,119,,,,,,,,,,,,,LDT,right,0.750440115807578,,,,,,1,,,,,,,,,,,,,right,1,0.750440115807578,,,,,,,1023,2019_Mar_06_1502,mf_amp_cond1,3.0.4,59.986474839409276,
shoirmaster,,&&&&&&&&&&&,right,nonword,,,,,,,,,,,,,,,0,43,43,43,,,,,,,,,,,,,LDT,right,0.6837461661780253,,,,,,1,,,,,,,,,,,,,right,1,0.6837461661780253,,,,,,,1023,2019_Mar_06_1502,mf_amp_cond1,3.0.4,59.986474839409276,
noped,,&&&&&,right,nonword,,,,,,,,,,,,,,,0,44,44,96,,,,,,,,,,,,,LDT,right,0.8337893518619239,,,,,,1,,,,,,,,,,,,,right,1,0.8337893518619239,,,,,,,1023,2019_Mar_06_1502,mf_amp_cond1,3.0.4,59.986474839409276,
threatened,,&&&&&&&&&&,left,fairness.vice,,,,,,,,,,,,,,,0,45,45,37,,,,,,,,,,,,,LDT,right,0.9671589699573815,,,,,,0,,,,,,,,,,,,,right,0,0.9671589699573815,,,,,,,1023,2019_Mar_06_1502,mf_amp_cond1,3.0.4,59.986474839409276,
police,,&&&&&&,left,authority.vice,,,,,,,,,,,,,,,0,46,46,35,,,,,,,,,,,,,LDT,right,0.717087528319098,,,,,,0,,,,,,,,,,,,,right,0,0.717087528319098,,,,,,,1023,2019_Mar_06_1502,mf_amp_cond1,3.0.4,59.986474839409276,
reelectiob,,&&&&&&&&&&,right,nonword,,,,,,,,,,,,,,,0,47,47,77,,,,,,,,,,,,,LDT,right,0.8004412545124069,,,,,,1,,,,,,,,,,,,,right,1,0.8004412545124069,,,,,,,1023,2019_Mar_06_1502,mf_amp_cond1,3.0.4,59.986474839409276,
therefore,,&&&&&&&&&,left,neutral,,,,,,,,,,,,,,,0,48,48,185,,,,,,,,,,,,,LDT,right,0.8671281482093036,,,,,,0,,,,,,,,,,,,,right,0,0.8671281482093036,,,,,,,1023,2019_Mar_06_1502,mf_amp_cond1,3.0.4,59.986474839409276,
fifteen,,&&&&&&&,left,neutral,,,,,,,,,,,,,,,0,49,49,144,,,,,,,,,,,,,LDT,right,0.7504397950833663,,,,,,0,,,,,,,,,,,,,right,0,0.7504397950833663,,,,,,,1023,2019_Mar_06_1502,mf_amp_cond1,3.0.4,59.986474839409276,
pullness,,&&&&&&&&,right,nonword,,,,,,,,,,,,,,,0,50,50,39,,,,,,,,,,,,,LDT,right,0.783798155724071,,,,,,1,,,,,,,,,,,,,right,1,0.783798155724071,,,,,,,1023,2019_Mar_06_1502,mf_amp_cond1,3.0.4,59.986474839409276,
bycled,,&&&&&&,None,nonword,,,,,,,,,,,,,,,0,51,51,10,,,,,,,,,,,,,LDT,right,0.6837410344742239,,,,,,0,,,,,,,,,,,,,right,0,0.6837410344742239,,,,,,,1023,2019_Mar_06_1502,mf_amp_cond1,3.0.4,59.986474839409276,
couldnt,,&&&&&&&,left,neutral,,,,,,,,,,,,,,,0,52,52,170,,,,,,,,,,,,,LDT,right,1.217242599115707,,,,,,0,,,,,,,,,,,,,right,0,1.217242599115707,,,,,,,1023,2019_Mar_06_1502,mf_amp_cond1,3.0.4,59.986474839409276,
cromiscuity,,&&&&&&&&&&&,right,nonword,,,,,,,,,,,,,,,0,53,53,48,,,,,,,,,,,,,LDT,right,0.700423582457006,,,,,,1,,,,,,,,,,,,,right,1,0.700423582457006,,,,,,,1023,2019_Mar_06_1502,mf_amp_cond1,3.0.4,59.986474839409276,
elsewhere,,&&&&&&&&&,left,neutral,,,,,,,,,,,,,,,0,54,54,74,,,,,,,,,,,,,LDT,right,0.5503864905331284,,,,,,0,,,,,,,,,,,,,right,0,0.5503864905331284,,,,,,,1023,2019_Mar_06_1502,mf_amp_cond1,3.0.4,59.986474839409276,
nomaric,,&&&&&&&,None,nonword,,,,,,,,,,,,,,,0,55,55,172,,,,,,,,,,,,,LDT,right,1.200554919661954,,,,,,0,,,,,,,,,,,,,right,0,1.200554919661954,,,,,,,1023,2019_Mar_06_1502,mf_amp_cond1,3.0.4,59.986474839409276,
with,,&&&&,left,neutral,,,,,,,,,,,,,,,0,56,56,65,,,,,,,,,,,,,LDT,right,1.6506758171599358,,,,,,0,,,,,,,,,,,,,right,0,1.6506758171599358,,,,,,,1023,2019_Mar_06_1502,mf_amp_cond1,3.0.4,59.986474839409276,
opportunity,,&&&&&&&&&&&,left,fairness.virtue,,,,,,,,,,,,,,,0,57,57,199,,,,,,,,,,,,,LDT,right,1.0005028978921473,,,,,,0,,,,,,,,,,,,,right,0,1.0005028978921473,,,,,,,1023,2019_Mar_06_1502,mf_amp_cond1,3.0.4,59.986474839409276,
fegard,,&&&&&&,right,nonword,,,,,,,,,,,,,,,0,58,58,87,,,,,,,,,,,,,LDT,right,1.2172246385598555,,,,,,1,,,,,,,,,,,,,right,1,1.2172246385598555,,,,,,,1023,2019_Mar_06_1502,mf_amp_cond1,3.0.4,59.986474839409276,
baklara,,&&&&&&&,right,nonword,,,,,,,,,,,,,,,0,59,59,112,,,,,,,,,,,,,LDT,right,0.9504930997500196,,,,,,1,,,,,,,,,,,,,right,1,0.9504930997500196,,,,,,,1023,2019_Mar_06_1502,mf_amp_cond1,3.0.4,59.986474839409276,
papert,,&&&&&&,right,nonword,,,,,,,,,,,,,,,0,60,60,85,,,,,,,,,,,,,LDT,right,0.6338120591826737,,,,,,1,,,,,,,,,,,,,right,1,0.6338120591826737,,,,,,,1023,2019_Mar_06_1502,mf_amp_cond1,3.0.4,59.986474839409276,
tenuflect,,&&&&&&&&&,right,nonword,,,,,,,,,,,,,,,0,61,61,118,,,,,,,,,,,,,LDT,right,0.48373134864959866,,,,,,1,,,,,,,,,,,,,right,1,0.48373134864959866,,,,,,,1023,2019_Mar_06_1502,mf_amp_cond1,3.0.4,59.986474839409276,
party,,&&&&&,left,loyalty.virtue,,,,,,,,,,,,,,,0,62,62,102,,,,,,,,,,,,,LDT,right,0.7004376943223178,,,,,,0,,,,,,,,,,,,,right,0,0.7004376943223178,,,,,,,1023,2019_Mar_06_1502,mf_amp_cond1,3.0.4,59.986474839409276,
drug,,&&&&,left,sanctity.vice,,,,,,,,,,,,,,,0,63,63,186,,,,,,,,,,,,,LDT,right,0.9004861881257966,,,,,,0,,,,,,,,,,,,,right,0,0.9004861881257966,,,,,,,1023,2019_Mar_06_1502,mf_amp_cond1,3.0.4,59.986474839409276,
injured,,&&&&&&&,left,care.vice,,,,,,,,,,,,,,,0,64,64,69,,,,,,,,,,,,,LDT,right,0.6504147463710979,,,,,,0,,,,,,,,,,,,,right,0,0.6504147463710979,,,,,,,1023,2019_Mar_06_1502,mf_amp_cond1,3.0.4,59.986474839409276,
thru,,&&&&,left,neutral,,,,,,,,,,,,,,,0,65,65,78,,,,,,,,,,,,,LDT,right,0.6337508006254211,,,,,,0,,,,,,,,,,,,,right,0,0.6337508006254211,,,,,,,1023,2019_Mar_06_1502,mf_amp_cond1,3.0.4,59.986474839409276,
supervuned,,&&&&&&&&&&,right,nonword,,,,,,,,,,,,,,,0,66,66,38,,,,,,,,,,,,,LDT,right,0.45035117864608765,,,,,,1,,,,,,,,,,,,,right,1,0.45035117864608765,,,,,,,1023,2019_Mar_06_1502,mf_amp_cond1,3.0.4,59.986474839409276,
although,,&&&&&&&&,left,neutral,,,,,,,,,,,,,,,0,67,67,114,,,,,,,,,,,,,LDT,right,0.5837207967415452,,,,,,0,,,,,,,,,,,,,right,0,0.5837207967415452,,,,,,,1023,2019_Mar_06_1502,mf_amp_cond1,3.0.4,59.986474839409276,
chressing,,&&&&&&&&&,None,nonword,,,,,,,,,,,,,,,0,68,68,21,,,,,,,,,,,,,LDT,right,1.250551888719201,,,,,,0,,,,,,,,,,,,,right,0,1.250551888719201,,,,,,,1023,2019_Mar_06_1502,mf_amp_cond1,3.0.4,59.986474839409276,
laming,,&&&&&&,right,nonword,,,,,,,,,,,,,,,0,69,69,72,,,,,,,,,,,,,LDT,right,1.0505556734278798,,,,,,1,,,,,,,,,,,,,right,1,1.0505556734278798,,,,,,,1023,2019_Mar_06_1502,mf_amp_cond1,3.0.4,59.986474839409276,
further,,&&&&&&&,left,neutral,,,,,,,,,,,,,,,0,70,70,97,,,,,,,,,,,,,LDT,left,0.5337087534135208,,,,,,1,,,,,,,,,,,,,left,1,0.5337087534135208,,,,,,,1023,2019_Mar_06_1502,mf_amp_cond1,3.0.4,59.986474839409276,
fifty,,&&&&&,left,neutral,,,,,,,,,,,,,,,0,71,71,56,,,,,,,,,,,,,LDT,right,0.8170997479464859,,,,,,0,,,,,,,,,,,,,right,0,0.8170997479464859,,,,,,,1023,2019_Mar_06_1502,mf_amp_cond1,3.0.4,59.986474839409276,
ilportation,,&&&&&&&&&&&,right,nonword,,,,,,,,,,,,,,,0,72,72,108,,,,,,,,,,,,,LDT,right,0.7504266453906894,,,,,,1,,,,,,,,,,,,,right,1,0.7504266453906894,,,,,,,1023,2019_Mar_06_1502,mf_amp_cond1,3.0.4,59.986474839409276,
ability,,&&&&&&&,left,authority.virtue,,,,,,,,,,,,,,,0,73,73,64,,,,,,,,,,,,,LDT,right,0.7504407573724166,,,,,,0,,,,,,,,,,,,,right,0,0.7504407573724166,,,,,,,1023,2019_Mar_06_1502,mf_amp_cond1,3.0.4,59.986474839409276,
oam,,&&&,right,nonword,,,,,,,,,,,,,,,0,74,74,171,,,,,,,,,,,,,LDT,right,0.5337225446710363,,,,,,1,,,,,,,,,,,,,right,1,0.5337225446710363,,,,,,,1023,2019_Mar_06_1502,mf_amp_cond1,3.0.4,59.986474839409276,
lursuer,,&&&&&&&,right,nonword,,,,,,,,,,,,,,,0,75,75,93,,,,,,,,,,,,,LDT,right,0.6670626560226083,,,,,,1,,,,,,,,,,,,,right,1,0.6670626560226083,,,,,,,1023,2019_Mar_06_1502,mf_amp_cond1,3.0.4,59.986474839409276,
neneficence,,&&&&&&&&&&&,right,nonword,,,,,,,,,,,,,,,0,76,76,117,,,,,,,,,,,,,LDT,right,0.5003632218576968,,,,,,1,,,,,,,,,,,,,right,1,0.5003632218576968,,,,,,,1023,2019_Mar_06_1502,mf_amp_cond1,3.0.4,59.986474839409276,
ban,,&&&,left,loyalty.vice,,,,,,,,,,,,,,,0,77,77,28,,,,,,,,,,,,,LDT,right,0.4336869119433686,,,,,,0,,,,,,,,,,,,,right,0,0.4336869119433686,,,,,,,1023,2019_Mar_06_1502,mf_amp_cond1,3.0.4,59.986474839409276,
galamitous,,&&&&&&&&&&,right,nonword,,,,,,,,,,,,,,,0,78,78,152,,,,,,,,,,,,,LDT,right,0.43369653378613293,,,,,,1,,,,,,,,,,,,,right,1,0.43369653378613293,,,,,,,1023,2019_Mar_06_1502,mf_amp_cond1,3.0.4,59.986474839409276,
gikely,,&&&&&&,right,nonword,,,,,,,,,,,,,,,0,79,79,70,,,,,,,,,,,,,LDT,right,0.7003931135404855,,,,,,1,,,,,,,,,,,,,right,1,0.7003931135404855,,,,,,,1023,2019_Mar_06_1502,mf_amp_cond1,3.0.4,59.986474839409276,
anyhow,,&&&&&&,left,neutral,,,,,,,,,,,,,,,0,80,80,62,,,,,,,,,,,,,LDT,right,0.4670074270106852,,,,,,0,,,,,,,,,,,,,right,0,0.4670074270106852,,,,,,,1023,2019_Mar_06_1502,mf_amp_cond1,3.0.4,59.986474839409276,
elduringly,,&&&&&&&&&&,right,nonword,,,,,,,,,,,,,,,0,81,81,25,,,,,,,,,,,,,LDT,right,0.7170862454222515,,,,,,1,,,,,,,,,,,,,right,1,0.7170862454222515,,,,,,,1023,2019_Mar_06_1502,mf_amp_cond1,3.0.4,59.986474839409276,
vicissifude,,&&&&&&&&&&&,right,nonword,,,,,,,,,,,,,,,0,82,82,26,,,,,,,,,,,,,LDT,right,0.5170598817057908,,,,,,1,,,,,,,,,,,,,right,1,0.5170598817057908,,,,,,,1023,2019_Mar_06_1502,mf_amp_cond1,3.0.4,59.986474839409276,
baladroit,,&&&&&&&&&,right,nonword,,,,,,,,,,,,,,,0,83,83,109,,,,,,,,,,,,,LDT,right,0.4170117407338694,,,,,,1,,,,,,,,,,,,,right,1,0.4170117407338694,,,,,,,1023,2019_Mar_06_1502,mf_amp_cond1,3.0.4,59.986474839409276,
sexual,,&&&&&&,left,sanctity.vice,,,,,,,,,,,,,,,0,84,84,131,,,,,,,,,,,,,LDT,right,0.33353549742605537,,,,,,0,,,,,,,,,,,,,right,0,0.33353549742605537,,,,,,,1023,2019_Mar_06_1502,mf_amp_cond1,3.0.4,59.986474839409276,
neutralust,,&&&&&&&&&&,right,nonword,,,,,,,,,,,,,,,0,85,85,75,,,,,,,,,,,,,LDT,right,0.23362013697624207,,,,,,1,,,,,,,,,,,,,right,1,0.23362013697624207,,,,,,,1023,2019_Mar_06_1502,mf_amp_cond1,3.0.4,59.986474839409276,
seem,,&&&&,left,neutral,,,,,,,,,,,,,,,0,86,86,125,,,,,,,,,,,,,LDT,right,0.33364711003378034,,,,,,0,,,,,,,,,,,,,right,0,0.33364711003378034,,,,,,,1023,2019_Mar_06_1502,mf_amp_cond1,3.0.4,59.986474839409276,
become,,&&&&&&,left,neutral,,,,,,,,,,,,,,,0,87,87,91,,,,,,,,,,,,,LDT,right,0.133613369660452,,,,,,0,,,,,,,,,,,,,right,0,0.133613369660452,,,,,,,1023,2019_Mar_06_1502,mf_amp_cond1,3.0.4,59.986474839409276,
smapper,,&&&&&&&,right,nonword,,,,,,,,,,,,,,,0,88,88,167,,,,,,,,,,,,,LDT,right,0.3003192183095962,,,,,,1,,,,,,,,,,,,,right,1,0.3003192183095962,,,,,,,1023,2019_Mar_06_1502,mf_amp_cond1,3.0.4,59.986474839409276,
yane,,&&&&,right,nonword,,,,,,,,,,,,,,,0,89,89,155,,,,,,,,,,,,,LDT,right,0.10024250065907836,,,,,,1,,,,,,,,,,,,,right,1,0.10024250065907836,,,,,,,1023,2019_Mar_06_1502,mf_amp_cond1,3.0.4,59.986474839409276,
Oregoniuns,,&&&&&&&&&&,right,nonword,,,,,,,,,,,,,,,0,90,90,124,,,,,,,,,,,,,LDT,right,0.3503351102117449,,,,,,1,,,,,,,,,,,,,right,1,0.3503351102117449,,,,,,,1023,2019_Mar_06_1502,mf_amp_cond1,3.0.4,59.986474839409276,
were,,&&&&,left,neutral,,,,,,,,,,,,,,,0,91,91,46,,,,,,,,,,,,,LDT,right,0.4503591967513785,,,,,,0,,,,,,,,,,,,,right,0,0.4503591967513785,,,,,,,1023,2019_Mar_06_1502,mf_amp_cond1,3.0.4,59.986474839409276,
brudent,,&&&&&&&,right,nonword,,,,,,,,,,,,,,,0,92,92,188,,,,,,,,,,,,,LDT,right,0.4670285949250683,,,,,,1,,,,,,,,,,,,,right,1,0.4670285949250683,,,,,,,1023,2019_Mar_06_1502,mf_amp_cond1,3.0.4,59.986474839409276,
even,,&&&&,left,neutral,,,,,,,,,,,,,,,0,93,93,160,,,,,,,,,,,,,LDT,right,0.36698815145064145,,,,,,0,,,,,,,,,,,,,right,0,0.36698815145064145,,,,,,,1023,2019_Mar_06_1502,mf_amp_cond1,3.0.4,59.986474839409276,
latter,,&&&&&&,left,neutral,,,,,,,,,,,,,,,0,94,94,135,,,,,,,,,,,,,LDT,right,0.633748234831728,,,,,,0,,,,,,,,,,,,,right,0,0.633748234831728,,,,,,,1023,2019_Mar_06_1502,mf_amp_cond1,3.0.4,59.986474839409276,
sickyay,,&&&&&&&,right,nonword,,,,,,,,,,,,,,,0,95,95,0,,,,,,,,,,,,,LDT,right,0.4837044075829908,,,,,,1,,,,,,,,,,,,,right,1,0.4837044075829908,,,,,,,1023,2019_Mar_06_1502,mf_amp_cond1,3.0.4,59.986474839409276,
eight,,&&&&&,left,neutral,,,,,,,,,,,,,,,0,96,96,187,,,,,,,,,,,,,LDT,right,1.6840213488321751,,,,,,0,,,,,,,,,,,,,right,0,1.6840213488321751,,,,,,,1023,2019_Mar_06_1502,mf_amp_cond1,3.0.4,59.986474839409276,
commitment,,&&&&&&&&&&,left,sanctity.virtue,,,,,,,,,,,,,,,0,97,97,5,,,,,,,,,,,,,LDT,right,0.8004688367946073,,,,,,0,,,,,,,,,,,,,right,0,0.8004688367946073,,,,,,,1023,2019_Mar_06_1502,mf_amp_cond1,3.0.4,59.986474839409276,
seachwear,,&&&&&&&&&,right,nonword,,,,,,,,,,,,,,,0,98,98,168,,,,,,,,,,,,,LDT,right,0.4670388582162559,,,,,,1,,,,,,,,,,,,,right,1,0.4670388582162559,,,,,,,1023,2019_Mar_06_1502,mf_amp_cond1,3.0.4,59.986474839409276,
care,,&&&&,left,care.virtue,,,,,,,,,,,,,,,0,99,99,179,,,,,,,,,,,,,LDT,right,0.48359632305800915,,,,,,0,,,,,,,,,,,,,right,0,0.48359632305800915,,,,,,,1023,2019_Mar_06_1502,mf_amp_cond1,3.0.4,59.986474839409276,
increase,,&&&&&&&&,left,care.virtue,,,,,,,,,,,,,,,0,100,100,173,,,,,,,,,,,,,LDT,right,0.33364711003378034,,,,,,0,,,,,,,,,,,,,right,0,0.33364711003378034,,,,,,,1023,2019_Mar_06_1502,mf_amp_cond1,3.0.4,59.986474839409276,
Cunday,,&&&&&&,None,nonword,,,,,,,,,,,,,,,0,101,101,123,,,,,,,,,,,,,LDT,right,0.3169863714138046,,,,,,0,,,,,,,,,,,,,right,0,0.3169863714138046,,,,,,,1023,2019_Mar_06_1502,mf_amp_cond1,3.0.4,59.986474839409276,
anything,,&&&&&&&&,left,neutral,,,,,,,,,,,,,,,0,102,102,159,,,,,,,,,,,,,LDT,right,0.33368174836505204,,,,,,0,,,,,,,,,,,,,right,0,0.33368174836505204,,,,,,,1023,2019_Mar_06_1502,mf_amp_cond1,3.0.4,59.986474839409276,
toward,,&&&&&&,left,neutral,,,,,,,,,,,,,,,0,103,103,129,,,,,,,,,,,,,LDT,right,0.16694414790254086,,,,,,0,,,,,,,,,,,,,right,0,0.16694414790254086,,,,,,,1023,2019_Mar_06_1502,mf_amp_cond1,3.0.4,59.986474839409276,
faith,,&&&&&,left,sanctity.virtue,,,,,,,,,,,,,,,0,104,104,133,,,,,,,,,,,,,LDT,right,0.11693819845095277,,,,,,0,,,,,,,,,,,,,right,0,0.11693819845095277,,,,,,,1023,2019_Mar_06_1502,mf_amp_cond1,3.0.4,59.986474839409276,
terrorist,,&&&&&&&&&,left,loyalty.vice,,,,,,,,,,,,,,,0,105,105,164,,,,,,,,,,,,,LDT,right,0.13359669188503176,,,,,,0,,,,,,,,,,,,,right,0,0.13359669188503176,,,,,,,1023,2019_Mar_06_1502,mf_amp_cond1,3.0.4,59.986474839409276,
whither,,&&&&&&&,left,neutral,,,,,,,,,,,,,,,0,106,106,145,,,,,,,,,,,,,LDT,right,0.01691539480816573,,,,,,0,,,,,,,,,,,,,right,0,0.01691539480816573,,,,,,,1023,2019_Mar_06_1502,mf_amp_cond1,3.0.4,59.986474839409276,
