words,nonwords,mask,corr_ans,category,tweets,topic,AMP_prac_loop.thisRepN,AMP_prac_loop.thisTrialN,AMP_prac_loop.thisN,AMP_prac_loop.thisIndex,AMP_trials.thisRepN,AMP_trials.thisTrialN,AMP_trials.thisN,AMP_trials.thisIndex,LDT_prac_loop.thisRepN,LDT_prac_loop.thisTrialN,LDT_prac_loop.thisN,LDT_prac_loop.thisIndex,LDT_loop.thisRepN,LDT_loop.thisTrialN,LDT_loop.thisN,LDT_loop.thisIndex,tweet_loop.thisRepN,tweet_loop.thisTrialN,tweet_loop.thisN,tweet_loop.thisIndex,begin_key.keys,begin_key.rt,key_resp_AMP_instr1.keys,key_resp_AMP_instr1.rt,resp_AMP_ready1.keys,resp_AMP_ready1.rt,resp_AMP_prac.keys,resp_AMP_prac.rt,task,keypress,RT,resp_AMP_ready.keys,resp_AMP_ready.rt,resp_AMP.keys,resp_AMP.corr,resp_AMP.rt,corr,AMP_nonword_rating.response,AMP_nonword_rating.rt,AMP_word_rating.response,AMP_word_rating.rt,AMP_random_rating.response,AMP_random_rating.rt,key_resp_LDT_instr.keys,key_resp_LDT_instr.rt,resp_LDT_prac.keys,resp_LDT_prac.rt,resp_LDT_ready.keys,resp_LDT_ready.rt,resp_LDT.keys,resp_LDT.corr,resp_LDT.rt,LDT_rating.response,LDT_rating.rt,key_resp_LDT_instr_2.keys,key_resp_LDT_instr_2.rt,resp_tweets.keys,resp_tweets.rt,participant,date,expName,psychopyVersion,frameRate,
,,,,,,,,,,,,,,,,,,,,,,,,,,,right,223.1390564654721,,,,,,,,,,,,,,,,,,,,,,,,,,,,,,,,,,,,,1025,2019_Mar_06_1503,mf_amp_cond1,3.0.4,59.98545565785454,
,,,,,,,,,,,,,,,,,,,,,,,,,,,,,right,2.6842691000783816,,,,,,,,,,,,,,,,,,,,,,,,,,,,,,,,,,,1025,2019_Mar_06_1503,mf_amp_cond1,3.0.4,59.98545565785454,
,,,,,,,,,,,,,,,,,,,,,,,,,,,,,,,right,1.7507307620253414,,,,,,,,,,,,,,,,,,,,,,,,,,,,,,,,,1025,2019_Mar_06_1503,mf_amp_cond1,3.0.4,59.98545565785454,
car,cemtuper,&&&&&&&&,,,,,0,0,0,0,,,,,,,,,,,,,,,,,,,,,,,right,3.267918824334629,AMP_prac,right,3.267918824334629,,,,,,,,,,,,,,,,,,,,,,,,,,,,1025,2019_Mar_06_1503,mf_amp_cond1,3.0.4,59.98545565785454,
scarf,bisebell,&&&&&&&&,,,,,0,1,1,3,,,,,,,,,,,,,,,,,,,,,,,right,1.2838846200611442,AMP_prac,right,1.2838846200611442,,,,,,,,,,,,,,,,,,,,,,,,,,,,1025,2019_Mar_06_1503,mf_amp_cond1,3.0.4,59.98545565785454,
keyboard,senk,&&&&,,,,,0,2,2,2,,,,,,,,,,,,,,,,,,,,,,,right,1.1506094654323533,AMP_prac,right,1.1506094654323533,,,,,,,,,,,,,,,,,,,,,,,,,,,,1025,2019_Mar_06_1503,mf_amp_cond1,3.0.4,59.98545565785454,
banana,kacket,&&&&&&,,,,,0,3,3,1,,,,,,,,,,,,,,,,,,,,,,,right,0.6670839242869988,AMP_prac,right,0.6670839242869988,,,,,,,,,,,,,,,,,,,,,,,,,,,,1025,2019_Mar_06_1503,mf_amp_cond1,3.0.4,59.98545565785454,
,,,,,,,,,,,,,,,,,,,,,,,,,,,,,,,,,,,,,,right,0.10019025159999728,,,,,,,,,,,,,,,,,,,,,,,,,,1025,2019_Mar_06_1503,mf_amp_cond1,3.0.4,59.98545565785454,
restore,ittutable,&&&&&&&&&,left,care.virtue,,,,,,,0,0,0,0,,,,,,,,,,,,,,,,,,,,,AMP,right,0.9671392806340009,,,right,0,0.9671392806340009,0,,,,,,,,,,,,,,,,,,,,,,1025,2019_Mar_06_1503,mf_amp_cond1,3.0.4,59.98545565785454,
harassment,infet,&&&&&,right,sanctity.vice,,,,,,,0,1,1,1,,,,,,,,,,,,,,,,,,,,,AMP,left,0.2002551011973992,,,left,0,0.2002551011973992,0,,,,,,,,,,,,,,,,,,,,,,1025,2019_Mar_06_1503,mf_amp_cond1,3.0.4,59.98545565785454,
powerful,atson,&&&&&,left,authority.virtue,,,,,,,0,2,2,2,,,,,,,,,,,,,,,,,,,,,AMP,left,0.8837871851865202,,,left,1,0.8837871851865202,1,,,,,,,,,,,,,,,,,,,,,,1025,2019_Mar_06_1503,mf_amp_cond1,3.0.4,59.98545565785454,
honored,gournful,&&&&&&&&,left,authority.virtue,,,,,,,0,3,3,3,,,,,,,,,,,,,,,,,,,,,AMP,right,0.28369731921702623,,,right,0,0.28369731921702623,0,,,,,,,,,,,,,,,,,,,,,,1025,2019_Mar_06_1503,mf_amp_cond1,3.0.4,59.98545565785454,
abuse,pumber,&&&&&&,right,sanctity.vice,,,,,,,0,4,4,4,,,,,,,,,,,,,,,,,,,,,AMP,left,0.050231592380441725,,,left,0,0.050231592380441725,0,,,,,,,,,,,,,,,,,,,,,,1025,2019_Mar_06_1503,mf_amp_cond1,3.0.4,59.98545565785454,
riot,ebbitter,&&&&&&&&,right,authority.vice,,,,,,,0,5,5,5,,,,,,,,,,,,,,,,,,,,,AMP,left,0.11695656611118466,,,left,0,0.11695656611118466,0,,,,,,,,,,,,,,,,,,,,,,1025,2019_Mar_06_1503,mf_amp_cond1,3.0.4,59.98545565785454,
interests,blunderints,&&&&&&&&&&&,left,fairness.virtue,,,,,,,0,6,6,6,,,,,,,,,,,,,,,,,,,,,AMP,right,0.4336884352378547,,,right,0,0.4336884352378547,0,,,,,,,,,,,,,,,,,,,,,,1025,2019_Mar_06_1503,mf_amp_cond1,3.0.4,59.98545565785454,
health,mecan,&&&&&,left,care.virtue,,,,,,,0,7,7,7,,,,,,,,,,,,,,,,,,,,,AMP,right,0.46704210224561393,,,right,0,0.46704210224561393,0,,,,,,,,,,,,,,,,,,,,,,1025,2019_Mar_06_1503,mf_amp_cond1,3.0.4,59.98545565785454,
war,vurtain,&&&&&&&,right,sanctity.vice,,,,,,,0,8,8,8,,,,,,,,,,,,,,,,,,,,,AMP,left,0.30032412020955235,,,left,0,0.30032412020955235,0,,,,,,,,,,,,,,,,,,,,,,1025,2019_Mar_06_1503,mf_amp_cond1,3.0.4,59.98545565785454,
growth,hasks,&&&&&,left,care.virtue,,,,,,,0,9,9,9,,,,,,,,,,,,,,,,,,,,,AMP,right,0.2002903805114329,,,right,0,0.2002903805114329,0,,,,,,,,,,,,,,,,,,,,,,1025,2019_Mar_06_1503,mf_amp_cond1,3.0.4,59.98545565785454,
illegal,gandbrake,&&&&&&&&&,right,fairness.vice,,,,,,,0,10,10,10,,,,,,,,,,,,,,,,,,,,,AMP,right,2.784120670519769,,,right,1,2.784120670519769,1,,,,,,,,,,,,,,,,,,,,,,1025,2019_Mar_06_1503,mf_amp_cond1,3.0.4,59.98545565785454,
perfect,lempestuous,&&&&&&&&&&&,left,sanctity.virtue,,,,,,,0,11,11,11,,,,,,,,,,,,,,,,,,,,,AMP,right,0.15028425480704755,,,right,0,0.15028425480704755,0,,,,,,,,,,,,,,,,,,,,,,1025,2019_Mar_06_1503,mf_amp_cond1,3.0.4,59.98545565785454,
civilians,viscs,&&&&&,right,care.vice,,,,,,,0,12,12,12,,,,,,,,,,,,,,,,,,,,,AMP,right,0.4170350143685937,,,right,1,0.4170350143685937,1,,,,,,,,,,,,,,,,,,,,,,1025,2019_Mar_06_1503,mf_amp_cond1,3.0.4,59.98545565785454,
improve,sowntrodden,&&&&&&&&&&&,left,care.virtue,,,,,,,0,13,13,13,,,,,,,,,,,,,,,,,,,,,AMP,right,0.48369937180541456,,,right,0,0.48369937180541456,0,,,,,,,,,,,,,,,,,,,,,,1025,2019_Mar_06_1503,mf_amp_cond1,3.0.4,59.98545565785454,
killed,synchronazers,&&&&&&&&&&&&&,right,care.vice,,,,,,,0,14,14,14,,,,,,,,,,,,,,,,,,,,,AMP,left,0.26698937581386417,,,left,0,0.26698937581386417,0,,,,,,,,,,,,,,,,,,,,,,1025,2019_Mar_06_1503,mf_amp_cond1,3.0.4,59.98545565785454,
rejected,clattening,&&&&&&&&&&,right,authority.vice,,,,,,,0,15,15,15,,,,,,,,,,,,,,,,,,,,,AMP,left,0.5837276594247669,,,left,0,0.5837276594247669,0,,,,,,,,,,,,,,,,,,,,,,1025,2019_Mar_06_1503,mf_amp_cond1,3.0.4,59.98545565785454,
celebrated,openet,&&&&&&,left,authority.virtue,,,,,,,0,16,16,16,,,,,,,,,,,,,,,,,,,,,AMP,right,0.6337373130954802,,,right,0,0.6337373130954802,0,,,,,,,,,,,,,,,,,,,,,,1025,2019_Mar_06_1503,mf_amp_cond1,3.0.4,59.98545565785454,
actively,smapper,&&&&&&&,left,authority.virtue,,,,,,,0,17,17,17,,,,,,,,,,,,,,,,,,,,,AMP,left,1.4672884157625958,,,left,1,1.4672884157625958,1,,,,,,,,,,,,,,,,,,,,,,1025,2019_Mar_06_1503,mf_amp_cond1,3.0.4,59.98545565785454,
injured,neutralust,&&&&&&&&&&,right,care.vice,,,,,,,0,18,18,18,,,,,,,,,,,,,,,,,,,,,AMP,left,0.4670299148419872,,,left,0,0.4670299148419872,0,,,,,,,,,,,,,,,,,,,,,,1025,2019_Mar_06_1503,mf_amp_cond1,3.0.4,59.98545565785454,
coom,nuckheap,&&&&&&&&,None,nonword,,,,,,,0,19,19,19,,,,,,,,,,,,,,,,,,,,,AMP,left,2.0339335300959647,,,left,0,2.0339335300959647,0,,,,,,,,,,,,,,,,,,,,,,1025,2019_Mar_06_1503,mf_amp_cond1,3.0.4,59.98545565785454,
crilfully,papert,&&&&&&,None,nonword,,,,,,,0,20,20,20,,,,,,,,,,,,,,,,,,,,,AMP,left,1.834035390871577,,,left,0,1.834035390871577,0,,,,,,,,,,,,,,,,,,,,,,1025,2019_Mar_06_1503,mf_amp_cond1,3.0.4,59.98545565785454,
ensure,frojecting,&&&&&&&&&&,left,fairness.virtue,,,,,,,0,21,21,21,,,,,,,,,,,,,,,,,,,,,AMP,left,1.400605135713704,,,left,1,1.400605135713704,1,,,,,,,,,,,,,,,,,,,,,,1025,2019_Mar_06_1503,mf_amp_cond1,3.0.4,59.98545565785454,
rebels,focomotive,&&&&&&&&&&,right,authority.vice,,,,,,,0,22,22,22,,,,,,,,,,,,,,,,,,,,,AMP,left,0.40035401144996285,,,left,0,0.40035401144996285,0,,,,,,,,,,,,,,,,,,,,,,1025,2019_Mar_06_1503,mf_amp_cond1,3.0.4,59.98545565785454,
progress,Cunday,&&&&&&,left,authority.virtue,,,,,,,0,23,23,23,,,,,,,,,,,,,,,,,,,,,AMP,right,0.31698203121777624,,,right,0,0.31698203121777624,0,,,,,,,,,,,,,,,,,,,,,,1025,2019_Mar_06_1503,mf_amp_cond1,3.0.4,59.98545565785454,
promises,Lacedonia,&&&&&&&&&,left,fairness.virtue,,,,,,,0,24,24,24,,,,,,,,,,,,,,,,,,,,,AMP,right,0.8337557223858312,,,right,0,0.8337557223858312,0,,,,,,,,,,,,,,,,,,,,,,1025,2019_Mar_06_1503,mf_amp_cond1,3.0.4,59.98545565785454,
terrorist,taxpayung,&&&&&&&&&,right,loyalty.vice,,,,,,,0,25,25,25,,,,,,,,,,,,,,,,,,,,,AMP,left,1.100564853171818,,,left,0,1.100564853171818,0,,,,,,,,,,,,,,,,,,,,,,1025,2019_Mar_06_1503,mf_amp_cond1,3.0.4,59.98545565785454,
party,gaultless,&&&&&&&&&,left,loyalty.virtue,,,,,,,0,26,26,26,,,,,,,,,,,,,,,,,,,,,AMP,right,1.6338502067374066,,,right,0,1.6338502067374066,0,,,,,,,,,,,,,,,,,,,,,,1025,2019_Mar_06_1503,mf_amp_cond1,3.0.4,59.98545565785454,
voter,chressing,&&&&&&&&&,right,fairness.vice,,,,,,,0,27,27,27,,,,,,,,,,,,,,,,,,,,,AMP,right,1.0671845664037392,,,right,1,1.0671845664037392,1,,,,,,,,,,,,,,,,,,,,,,1025,2019_Mar_06_1503,mf_amp_cond1,3.0.4,59.98545565785454,
accused,bruthfulness,&&&&&&&&&&&&,right,fairness.vice,,,,,,,0,28,28,28,,,,,,,,,,,,,,,,,,,,,AMP,left,0.36700419313274324,,,left,0,0.36700419313274324,0,,,,,,,,,,,,,,,,,,,,,,1025,2019_Mar_06_1503,mf_amp_cond1,3.0.4,59.98545565785454,
values,rorroborated,&&&&&&&&&&&&,left,sanctity.virtue,,,,,,,0,29,29,29,,,,,,,,,,,,,,,,,,,,,AMP,right,0.6337462932569906,,,right,0,0.6337462932569906,0,,,,,,,,,,,,,,,,,,,,,,1025,2019_Mar_06_1503,mf_amp_cond1,3.0.4,59.98545565785454,
arrests,gazily,&&&&&&,right,authority.vice,,,,,,,0,30,30,30,,,,,,,,,,,,,,,,,,,,,AMP,left,0.6004016064107418,,,left,0,0.6004016064107418,0,,,,,,,,,,,,,,,,,,,,,,1025,2019_Mar_06_1503,mf_amp_cond1,3.0.4,59.98545565785454,
loyalty,allears,&&&&&&&,left,loyalty.virtue,,,,,,,0,31,31,31,,,,,,,,,,,,,,,,,,,,,AMP,right,0.7170971059240401,,,right,0,0.7170971059240401,0,,,,,,,,,,,,,,,,,,,,,,1025,2019_Mar_06_1503,mf_amp_cond1,3.0.4,59.98545565785454,
black,sonvoy,&&&&&&,right,loyalty.vice,,,,,,,0,32,32,32,,,,,,,,,,,,,,,,,,,,,AMP,right,0.717094540130347,,,right,1,0.717094540130347,1,,,,,,,,,,,,,,,,,,,,,,1025,2019_Mar_06_1503,mf_amp_cond1,3.0.4,59.98545565785454,
praised,squets,&&&&&&,left,loyalty.virtue,,,,,,,0,33,33,33,,,,,,,,,,,,,,,,,,,,,AMP,right,0.7170955023029819,,,right,0,0.7170955023029819,0,,,,,,,,,,,,,,,,,,,,,,1025,2019_Mar_06_1503,mf_amp_cond1,3.0.4,59.98545565785454,
juck,ronviolence,&&&&&&&&&&&,None,nonword,,,,,,,0,34,34,34,,,,,,,,,,,,,,,,,,,,,AMP,left,1.0504798302426934,,,left,0,1.0504798302426934,0,,,,,,,,,,,,,,,,,,,,,,1025,2019_Mar_06_1503,mf_amp_cond1,3.0.4,59.98545565785454,
noped,sliptery,&&&&&&&&,None,nonword,,,,,,,0,35,35,35,,,,,,,,,,,,,,,,,,,,,AMP,left,0.61706336599309,,,left,0,0.61706336599309,0,,,,,,,,,,,,,,,,,,,,,,1025,2019_Mar_06_1503,mf_amp_cond1,3.0.4,59.98545565785454,
free,metibolic,&&&&&&&&&,left,fairness.virtue,,,,,,,0,36,36,36,,,,,,,,,,,,,,,,,,,,,AMP,right,0.6670791135402396,,,right,0,0.6670791135402396,0,,,,,,,,,,,,,,,,,,,,,,1025,2019_Mar_06_1503,mf_amp_cond1,3.0.4,59.98545565785454,
sexual,hescribe,&&&&&&&&,right,sanctity.vice,,,,,,,0,37,37,37,,,,,,,,,,,,,,,,,,,,,AMP,left,0.2669819991569966,,,left,0,0.2669819991569966,0,,,,,,,,,,,,,,,,,,,,,,1025,2019_Mar_06_1503,mf_amp_cond1,3.0.4,59.98545565785454,
edancipation,erdest,&&&&&&,None,nonword,,,,,,,0,38,38,38,,,,,,,,,,,,,,,,,,,,,AMP,left,2.0174212261335924,,,left,0,2.0174212261335924,0,,,,,,,,,,,,,,,,,,,,,,1025,2019_Mar_06_1503,mf_amp_cond1,3.0.4,59.98545565785454,
commitment,tracious,&&&&&&&&,left,sanctity.virtue,,,,,,,0,39,39,39,,,,,,,,,,,,,,,,,,,,,AMP,right,1.5506696968805045,,,right,0,1.5506696968805045,0,,,,,,,,,,,,,,,,,,,,,,1025,2019_Mar_06_1503,mf_amp_cond1,3.0.4,59.98545565785454,
death,carvels,&&&&&&&,right,care.vice,,,,,,,0,40,40,40,,,,,,,,,,,,,,,,,,,,,AMP,left,0.40036170883104205,,,left,0,0.40036170883104205,0,,,,,,,,,,,,,,,,,,,,,,1025,2019_Mar_06_1503,mf_amp_cond1,3.0.4,59.98545565785454,
support,tislay,&&&&&&,left,loyalty.virtue,,,,,,,0,41,41,41,,,,,,,,,,,,,,,,,,,,,AMP,right,0.38366242486517876,,,right,0,0.38366242486517876,0,,,,,,,,,,,,,,,,,,,,,,1025,2019_Mar_06_1503,mf_amp_cond1,3.0.4,59.98545565785454,
men,honstables,&&&&&&&&&&,right,loyalty.vice,,,,,,,0,42,42,42,,,,,,,,,,,,,,,,,,,,,AMP,left,1.1672102882293984,,,left,0,1.1672102882293984,0,,,,,,,,,,,,,,,,,,,,,,1025,2019_Mar_06_1503,mf_amp_cond1,3.0.4,59.98545565785454,
fear,supervuned,&&&&&&&&&&,right,sanctity.vice,,,,,,,0,43,43,43,,,,,,,,,,,,,,,,,,,,,AMP,left,2.6509176780236885,,,left,0,2.6509176780236885,0,,,,,,,,,,,,,,,,,,,,,,1025,2019_Mar_06_1503,mf_amp_cond1,3.0.4,59.98545565785454,
hate,gusinesslike,&&&&&&&&&&&&,right,fairness.vice,,,,,,,0,44,44,44,,,,,,,,,,,,,,,,,,,,,AMP,left,0.4003492007032037,,,left,0,0.4003492007032037,0,,,,,,,,,,,,,,,,,,,,,,1025,2019_Mar_06_1503,mf_amp_cond1,3.0.4,59.98545565785454,
trust,faspberry,&&&&&&&&&,left,authority.virtue,,,,,,,0,45,45,45,,,,,,,,,,,,,,,,,,,,,AMP,right,0.2836132904049009,,,right,0,0.2836132904049009,0,,,,,,,,,,,,,,,,,,,,,,1025,2019_Mar_06_1503,mf_amp_cond1,3.0.4,59.98545565785454,
promote,ablow,&&&&&,left,sanctity.virtue,,,,,,,0,46,46,46,,,,,,,,,,,,,,,,,,,,,AMP,right,0.9671607689233497,,,right,0,0.9671607689233497,0,,,,,,,,,,,,,,,,,,,,,,1025,2019_Mar_06_1503,mf_amp_cond1,3.0.4,59.98545565785454,
victims,Oregoniuns,&&&&&&&&&&,right,care.vice,,,,,,,0,47,47,47,,,,,,,,,,,,,,,,,,,,,AMP,right,0.8838061076821759,,,right,1,0.8838061076821759,1,,,,,,,,,,,,,,,,,,,,,,1025,2019_Mar_06_1503,mf_amp_cond1,3.0.4,59.98545565785454,
godlaness,asn,&&&,None,nonword,,,,,,,0,48,48,48,,,,,,,,,,,,,,,,,,,,,AMP,left,0.7337591862305999,,,left,0,0.7337591862305999,0,,,,,,,,,,,,,,,,,,,,,,1025,2019_Mar_06_1503,mf_amp_cond1,3.0.4,59.98545565785454,
pleasant,rivernoat,&&&&&&&&&,None,control,,,,,,,0,49,49,49,,,,,,,,,,,,,,,,,,,,,AMP,right,1.9173833170207217,,,right,0,1.9173833170207217,0,,,,,,,,,,,,,,,,,,,,,,1025,2019_Mar_06_1503,mf_amp_cond1,3.0.4,59.98545565785454,
love,tomedians,&&&&&&&&&,left,loyalty.virtue,,,,,,,0,50,50,50,,,,,,,,,,,,,,,,,,,,,AMP,right,0.9838449789676815,,,right,0,0.9838449789676815,0,,,,,,,,,,,,,,,,,,,,,,1025,2019_Mar_06_1503,mf_amp_cond1,3.0.4,59.98545565785454,
fighters,idexpressible,&&&&&&&&&&&&&,right,authority.vice,,,,,,,0,51,51,51,,,,,,,,,,,,,,,,,,,,,AMP,right,2.750936985365115,,,right,1,2.750936985365115,1,,,,,,,,,,,,,,,,,,,,,,1025,2019_Mar_06_1503,mf_amp_cond1,3.0.4,59.98545565785454,
ban,sfumatoy,&&&&&&&&,right,loyalty.vice,,,,,,,0,52,52,52,,,,,,,,,,,,,,,,,,,,,AMP,left,0.20030609576497227,,,left,0,0.20030609576497227,0,,,,,,,,,,,,,,,,,,,,,,1025,2019_Mar_06_1503,mf_amp_cond1,3.0.4,59.98545565785454,
divility,epigrach,&&&&&&&&,None,nonword,,,,,,,0,53,53,53,,,,,,,,,,,,,,,,,,,,,AMP,left,1.1839002713095397,,,left,0,1.1839002713095397,0,,,,,,,,,,,,,,,,,,,,,,1025,2019_Mar_06_1503,mf_amp_cond1,3.0.4,59.98545565785454,
blamed,wump,&&&&,right,loyalty.vice,,,,,,,0,54,54,54,,,,,,,,,,,,,,,,,,,,,AMP,left,0.36704684898722917,,,left,0,0.36704684898722917,0,,,,,,,,,,,,,,,,,,,,,,1025,2019_Mar_06_1503,mf_amp_cond1,3.0.4,59.98545565785454,
faith,neneficence,&&&&&&&&&&&,left,sanctity.virtue,,,,,,,0,55,55,55,,,,,,,,,,,,,,,,,,,,,AMP,right,1.7506839368725196,,,right,0,1.7506839368725196,0,,,,,,,,,,,,,,,,,,,,,,1025,2019_Mar_06_1503,mf_amp_cond1,3.0.4,59.98545565785454,
dignity,framo,&&&&&,left,sanctity.virtue,,,,,,,0,56,56,56,,,,,,,,,,,,,,,,,,,,,AMP,right,0.40033412689808756,,,right,0,0.40033412689808756,0,,,,,,,,,,,,,,,,,,,,,,1025,2019_Mar_06_1503,mf_amp_cond1,3.0.4,59.98545565785454,
benefit,sgrawl,&&&&&&,left,fairness.virtue,,,,,,,0,57,57,57,,,,,,,,,,,,,,,,,,,,,AMP,right,0.5170565667795017,,,right,0,0.5170565667795017,0,,,,,,,,,,,,,,,,,,,,,,1025,2019_Mar_06_1503,mf_amp_cond1,3.0.4,59.98545565785454,
opportunity,gikely,&&&&&&,left,fairness.virtue,,,,,,,0,58,58,58,,,,,,,,,,,,,,,,,,,,,AMP,right,0.5003697909414768,,,right,0,0.5003697909414768,0,,,,,,,,,,,,,,,,,,,,,,1025,2019_Mar_06_1503,mf_amp_cond1,3.0.4,59.98545565785454,
clean,gationwide,&&&&&&&&&&,left,sanctity.virtue,,,,,,,0,59,59,59,,,,,,,,,,,,,,,,,,,,,AMP,right,0.4336977362399921,,,right,0,0.4336977362399921,0,,,,,,,,,,,,,,,,,,,,,,1025,2019_Mar_06_1503,mf_amp_cond1,3.0.4,59.98545565785454,
officers,menizen,&&&&&&&,right,authority.vice,,,,,,,0,60,60,60,,,,,,,,,,,,,,,,,,,,,AMP,left,0.5003662629751489,,,left,0,0.5003662629751489,0,,,,,,,,,,,,,,,,,,,,,,1025,2019_Mar_06_1503,mf_amp_cond1,3.0.4,59.98545565785454,
hope,ejanulated,&&&&&&&&&&,left,loyalty.virtue,,,,,,,0,61,61,61,,,,,,,,,,,,,,,,,,,,,AMP,right,0.3836768572218716,,,right,0,0.3836768572218716,0,,,,,,,,,,,,,,,,,,,,,,1025,2019_Mar_06_1503,mf_amp_cond1,3.0.4,59.98545565785454,
compassion,bycled,&&&&&&,left,care.virtue,,,,,,,0,62,62,62,,,,,,,,,,,,,,,,,,,,,AMP,right,0.5003810160560533,,,right,0,0.5003810160560533,0,,,,,,,,,,,,,,,,,,,,,,1025,2019_Mar_06_1503,mf_amp_cond1,3.0.4,59.98545565785454,
army,lursuer,&&&&&&&,right,loyalty.vice,,,,,,,0,63,63,63,,,,,,,,,,,,,,,,,,,,,AMP,left,0.4170132053550333,,,left,0,0.4170132053550333,0,,,,,,,,,,,,,,,,,,,,,,1025,2019_Mar_06_1503,mf_amp_cond1,3.0.4,59.98545565785454,
promised,pullness,&&&&&&&&,left,loyalty.virtue,,,,,,,0,64,64,64,,,,,,,,,,,,,,,,,,,,,AMP,right,0.5670585231855512,,,right,0,0.5670585231855512,0,,,,,,,,,,,,,,,,,,,,,,1025,2019_Mar_06_1503,mf_amp_cond1,3.0.4,59.98545565785454,
suicide,oam,&&&,right,care.vice,,,,,,,0,65,65,65,,,,,,,,,,,,,,,,,,,,,AMP,left,0.7837739714886993,,,left,0,0.7837739714886993,0,,,,,,,,,,,,,,,,,,,,,,1025,2019_Mar_06_1503,mf_amp_cond1,3.0.4,59.98545565785454,
crime,feleological,&&&&&&&&&&&&,right,fairness.vice,,,,,,,0,66,66,66,,,,,,,,,,,,,,,,,,,,,AMP,left,0.5337154399603605,,,left,0,0.5337154399603605,0,,,,,,,,,,,,,,,,,,,,,,1025,2019_Mar_06_1503,mf_amp_cond1,3.0.4,59.98545565785454,
praise,festate,&&&&&&&,left,authority.virtue,,,,,,,0,67,67,67,,,,,,,,,,,,,,,,,,,,,AMP,right,0.6337774031562731,,,right,0,0.6337774031562731,0,,,,,,,,,,,,,,,,,,,,,,1025,2019_Mar_06_1503,mf_amp_cond1,3.0.4,59.98545565785454,
imebreaker,fornicalion,&&&&&&&&&&&,None,nonword,,,,,,,0,68,68,68,,,,,,,,,,,,,,,,,,,,,AMP,left,2.100806997390464,,,left,0,2.100806997390464,0,,,,,,,,,,,,,,,,,,,,,,1025,2019_Mar_06_1503,mf_amp_cond1,3.0.4,59.98545565785454,
terrorists,chreams,&&&&&&&,right,fairness.vice,,,,,,,0,69,69,69,,,,,,,,,,,,,,,,,,,,,AMP,left,0.567056919564493,,,left,0,0.567056919564493,0,,,,,,,,,,,,,,,,,,,,,,1025,2019_Mar_06_1503,mf_amp_cond1,3.0.4,59.98545565785454,
cromiscuity,pharing,&&&&&&&,None,nonword,,,,,,,0,70,70,70,,,,,,,,,,,,,,,,,,,,,AMP,left,1.5006853800732642,,,left,0,1.5006853800732642,0,,,,,,,,,,,,,,,,,,,,,,1025,2019_Mar_06_1503,mf_amp_cond1,3.0.4,59.98545565785454,
attacks,galamitous,&&&&&&&&&&,right,care.vice,,,,,,,0,71,71,71,,,,,,,,,,,,,,,,,,,,,AMP,left,0.38367108430247754,,,left,0,0.38367108430247754,0,,,,,,,,,,,,,,,,,,,,,,1025,2019_Mar_06_1503,mf_amp_cond1,3.0.4,59.98545565785454,
care,lachelor,&&&&&&&&,left,care.virtue,,,,,,,0,72,72,72,,,,,,,,,,,,,,,,,,,,,AMP,right,0.3336697693448514,,,right,0,0.3336697693448514,0,,,,,,,,,,,,,,,,,,,,,,1025,2019_Mar_06_1503,mf_amp_cond1,3.0.4,59.98545565785454,
conspiracy,simplustic,&&&&&&&&&&,right,sanctity.vice,,,,,,,0,73,73,73,,,,,,,,,,,,,,,,,,,,,AMP,left,0.7837752542691305,,,left,0,0.7837752542691305,0,,,,,,,,,,,,,,,,,,,,,,1025,2019_Mar_06_1503,mf_amp_cond1,3.0.4,59.98545565785454,
iptervention,bluently,&&&&&&&&,None,nonword,,,,,,,0,74,74,74,,,,,,,,,,,,,,,,,,,,,AMP,left,0.6670919422758743,,,left,0,0.6670919422758743,0,,,,,,,,,,,,,,,,,,,,,,1025,2019_Mar_06_1503,mf_amp_cond1,3.0.4,59.98545565785454,
unpleasant,scalbel,&&&&&&&,None,control,,,,,,,0,75,75,75,,,,,,,,,,,,,,,,,,,,,AMP,left,0.6337549526942894,,,left,0,0.6337549526942894,0,,,,,,,,,,,,,,,,,,,,,,1025,2019_Mar_06_1503,mf_amp_cond1,3.0.4,59.98545565785454,
scandal,yane,&&&&,right,sanctity.vice,,,,,,,0,76,76,76,,,,,,,,,,,,,,,,,,,,,AMP,left,0.36700932472012937,,,left,0,0.36700932472012937,0,,,,,,,,,,,,,,,,,,,,,,1025,2019_Mar_06_1503,mf_amp_cond1,3.0.4,59.98545565785454,
slavery,tove,&&&&,right,loyalty.vice,,,,,,,0,77,77,77,,,,,,,,,,,,,,,,,,,,,AMP,left,0.3668717354303226,,,left,0,0.3668717354303226,0,,,,,,,,,,,,,,,,,,,,,,1025,2019_Mar_06_1503,mf_amp_cond1,3.0.4,59.98545565785454,
protect,fangsters,&&&&&&&&&,left,fairness.virtue,,,,,,,0,78,78,78,,,,,,,,,,,,,,,,,,,,,AMP,left,2.367505479604006,,,left,1,2.367505479604006,1,,,,,,,,,,,,,,,,,,,,,,1025,2019_Mar_06_1503,mf_amp_cond1,3.0.4,59.98545565785454,
threatened,gondensed,&&&&&&&&&,right,fairness.vice,,,,,,,0,79,79,79,,,,,,,,,,,,,,,,,,,,,AMP,left,0.5337199300993234,,,left,0,0.5337199300993234,0,,,,,,,,,,,,,,,,,,,,,,1025,2019_Mar_06_1503,mf_amp_cond1,3.0.4,59.98545565785454,
gun,frocessing,&&&&&&&&&&,right,authority.vice,,,,,,,0,80,80,80,,,,,,,,,,,,,,,,,,,,,AMP,left,0.4835252205375582,,,left,0,0.4835252205375582,0,,,,,,,,,,,,,,,,,,,,,,1025,2019_Mar_06_1503,mf_amp_cond1,3.0.4,59.98545565785454,
safety,slending,&&&&&&&&,left,care.virtue,,,,,,,0,81,81,81,,,,,,,,,,,,,,,,,,,,,AMP,right,0.06688052311073989,,,right,0,0.06688052311073989,0,,,,,,,,,,,,,,,,,,,,,,1025,2019_Mar_06_1503,mf_amp_cond1,3.0.4,59.98545565785454,
slavery,gusinesslike,&&&&&&&&&&&&,right,loyalty.vice,,,,,,,0,82,82,82,,,,,,,,,,,,,,,,,,,,,AMP,left,0.6004044929286465,,,left,0,0.6004044929286465,0,,,,,,,,,,,,,,,,,,,,,,1025,2019_Mar_06_1503,mf_amp_cond1,3.0.4,59.98545565785454,
abuse,honstables,&&&&&&&&&&,right,sanctity.vice,,,,,,,0,83,83,83,,,,,,,,,,,,,,,,,,,,,AMP,left,0.3669887986034155,,,left,0,0.3669887986034155,0,,,,,,,,,,,,,,,,,,,,,,1025,2019_Mar_06_1503,mf_amp_cond1,3.0.4,59.98545565785454,
illegal,Cunday,&&&&&&,right,fairness.vice,,,,,,,0,84,84,84,,,,,,,,,,,,,,,,,,,,,AMP,left,0.5837186791468412,,,left,0,0.5837186791468412,0,,,,,,,,,,,,,,,,,,,,,,1025,2019_Mar_06_1503,mf_amp_cond1,3.0.4,59.98545565785454,
faith,festate,&&&&&&&,left,sanctity.virtue,,,,,,,0,85,85,85,,,,,,,,,,,,,,,,,,,,,AMP,right,0.3003459293395281,,,right,0,0.3003459293395281,0,,,,,,,,,,,,,,,,,,,,,,1025,2019_Mar_06_1503,mf_amp_cond1,3.0.4,59.98545565785454,
health,sfumatoy,&&&&&&&&,left,care.virtue,,,,,,,0,86,86,86,,,,,,,,,,,,,,,,,,,,,AMP,right,0.36701702198479325,,,right,0,0.36701702198479325,0,,,,,,,,,,,,,,,,,,,,,,1025,2019_Mar_06_1503,mf_amp_cond1,3.0.4,59.98545565785454,
fear,infet,&&&&&,right,sanctity.vice,,,,,,,0,87,87,87,,,,,,,,,,,,,,,,,,,,,AMP,left,2.0007492034928873,,,left,0,2.0007492034928873,0,,,,,,,,,,,,,,,,,,,,,,1025,2019_Mar_06_1503,mf_amp_cond1,3.0.4,59.98545565785454,
war,gazily,&&&&&&,right,sanctity.vice,,,,,,,0,88,88,88,,,,,,,,,,,,,,,,,,,,,AMP,left,0.20028909761458635,,,left,0,0.20028909761458635,0,,,,,,,,,,,,,,,,,,,,,,1025,2019_Mar_06_1503,mf_amp_cond1,3.0.4,59.98545565785454,
honored,carvels,&&&&&&&,left,authority.virtue,,,,,,,0,89,89,89,,,,,,,,,,,,,,,,,,,,,AMP,right,0.28364247595891356,,,right,0,0.28364247595891356,0,,,,,,,,,,,,,,,,,,,,,,1025,2019_Mar_06_1503,mf_amp_cond1,3.0.4,59.98545565785454,
free,faspberry,&&&&&&&&&,left,fairness.virtue,,,,,,,0,90,90,90,,,,,,,,,,,,,,,,,,,,,AMP,right,0.3503421127097681,,,right,0,0.3503421127097681,0,,,,,,,,,,,,,,,,,,,,,,1025,2019_Mar_06_1503,mf_amp_cond1,3.0.4,59.98545565785454,
conspiracy,fornicalion,&&&&&&&&&&&,right,sanctity.vice,,,,,,,0,91,91,91,,,,,,,,,,,,,,,,,,,,,AMP,left,0.9004822997376323,,,left,0,0.9004822997376323,0,,,,,,,,,,,,,,,,,,,,,,1025,2019_Mar_06_1503,mf_amp_cond1,3.0.4,59.98545565785454,
celebrated,sliptery,&&&&&&&&,left,authority.virtue,,,,,,,0,92,92,92,,,,,,,,,,,,,,,,,,,,,AMP,left,0.9338263452518731,,,left,1,0.9338263452518731,1,,,,,,,,,,,,,,,,,,,,,,1025,2019_Mar_06_1503,mf_amp_cond1,3.0.4,59.98545565785454,
pleasant,squets,&&&&&&,None,control,,,,,,,0,93,93,93,,,,,,,,,,,,,,,,,,,,,AMP,right,0.8671206146245822,,,right,0,0.8671206146245822,0,,,,,,,,,,,,,,,,,,,,,,1025,2019_Mar_06_1503,mf_amp_cond1,3.0.4,59.98545565785454,
trust,erdest,&&&&&&,left,authority.virtue,,,,,,,0,94,94,94,,,,,,,,,,,,,,,,,,,,,AMP,right,0.16696269181557,,,right,0,0.16696269181557,0,,,,,,,,,,,,,,,,,,,,,,1025,2019_Mar_06_1503,mf_amp_cond1,3.0.4,59.98545565785454,
imebreaker,gationwide,&&&&&&&&&&,None,nonword,,,,,,,0,95,95,95,,,,,,,,,,,,,,,,,,,,,AMP,left,1.1672186269424856,,,left,0,1.1672186269424856,0,,,,,,,,,,,,,,,,,,,,,,1025,2019_Mar_06_1503,mf_amp_cond1,3.0.4,59.98545565785454,
praise,ebbitter,&&&&&&&&,left,authority.virtue,,,,,,,0,96,96,96,,,,,,,,,,,,,,,,,,,,,AMP,left,2.100763058522716,,,left,1,2.100763058522716,1,,,,,,,,,,,,,,,,,,,,,,1025,2019_Mar_06_1503,mf_amp_cond1,3.0.4,59.98545565785454,
army,scalbel,&&&&&&&,right,loyalty.vice,,,,,,,0,97,97,97,,,,,,,,,,,,,,,,,,,,,AMP,left,0.38352355279494077,,,left,0,0.38352355279494077,0,,,,,,,,,,,,,,,,,,,,,,1025,2019_Mar_06_1503,mf_amp_cond1,3.0.4,59.98545565785454,
terrorist,pumber,&&&&&&,right,loyalty.vice,,,,,,,0,98,98,98,,,,,,,,,,,,,,,,,,,,,AMP,left,1.6174081407953054,,,left,0,1.6174081407953054,0,,,,,,,,,,,,,,,,,,,,,,1025,2019_Mar_06_1503,mf_amp_cond1,3.0.4,59.98545565785454,
restore,rorroborated,&&&&&&&&&&&&,left,care.virtue,,,,,,,0,99,99,99,,,,,,,,,,,,,,,,,,,,,AMP,right,0.3335517441155389,,,right,0,0.3335517441155389,0,,,,,,,,,,,,,,,,,,,,,,1025,2019_Mar_06_1503,mf_amp_cond1,3.0.4,59.98545565785454,
death,bycled,&&&&&&,right,care.vice,,,,,,,0,100,100,100,,,,,,,,,,,,,,,,,,,,,AMP,left,0.6337325022323057,,,left,0,0.6337325022323057,0,,,,,,,,,,,,,,,,,,,,,,1025,2019_Mar_06_1503,mf_amp_cond1,3.0.4,59.98545565785454,
ban,sonvoy,&&&&&&,right,loyalty.vice,,,,,,,0,101,101,101,,,,,,,,,,,,,,,,,,,,,AMP,left,0.5837238107342273,,,left,0,0.5837238107342273,0,,,,,,,,,,,,,,,,,,,,,,1025,2019_Mar_06_1503,mf_amp_cond1,3.0.4,59.98545565785454,
growth,mecan,&&&&&,left,care.virtue,,,,,,,0,102,102,102,,,,,,,,,,,,,,,,,,,,,AMP,right,0.33367746660951525,,,right,0,0.33367746660951525,0,,,,,,,,,,,,,,,,,,,,,,1025,2019_Mar_06_1503,mf_amp_cond1,3.0.4,59.98545565785454,
ensure,galamitous,&&&&&&&&&&,left,fairness.virtue,,,,,,,0,103,103,103,,,,,,,,,,,,,,,,,,,,,AMP,right,1.4672977166483179,,,right,0,1.4672977166483179,0,,,,,,,,,,,,,,,,,,,,,,1025,2019_Mar_06_1503,mf_amp_cond1,3.0.4,59.98545565785454,
crilfully,tracious,&&&&&&&&,None,nonword,,,,,,,0,104,104,104,,,,,,,,,,,,,,,,,,,,,AMP,left,0.5504009329015389,,,left,0,0.5504009329015389,0,,,,,,,,,,,,,,,,,,,,,,1025,2019_Mar_06_1503,mf_amp_cond1,3.0.4,59.98545565785454,
rebels,openet,&&&&&&,right,authority.vice,,,,,,,0,105,105,105,,,,,,,,,,,,,,,,,,,,,AMP,left,0.26697943347971886,,,left,0,0.26697943347971886,0,,,,,,,,,,,,,,,,,,,,,,1025,2019_Mar_06_1503,mf_amp_cond1,3.0.4,59.98545565785454,
care,ablow,&&&&&,left,care.virtue,,,,,,,0,106,106,106,,,,,,,,,,,,,,,,,,,,,AMP,right,0.18365652358625084,,,right,0,0.18365652358625084,0,,,,,,,,,,,,,,,,,,,,,,1025,2019_Mar_06_1503,mf_amp_cond1,3.0.4,59.98545565785454,
hate,lursuer,&&&&&&&,right,fairness.vice,,,,,,,0,107,107,107,,,,,,,,,,,,,,,,,,,,,AMP,left,0.46702157612890005,,,left,0,0.46702157612890005,0,,,,,,,,,,,,,,,,,,,,,,1025,2019_Mar_06_1503,mf_amp_cond1,3.0.4,59.98545565785454,
attacks,epigrach,&&&&&&&&,right,care.vice,,,,,,,0,108,108,108,,,,,,,,,,,,,,,,,,,,,AMP,left,0.9004563213093206,,,left,0,0.9004563213093206,0,,,,,,,,,,,,,,,,,,,,,,1025,2019_Mar_06_1503,mf_amp_cond1,3.0.4,59.98545565785454,
blamed,allears,&&&&&&&,right,loyalty.vice,,,,,,,0,109,109,109,,,,,,,,,,,,,,,,,,,,,AMP,left,0.43369452899787575,,,left,0,0.43369452899787575,0,,,,,,,,,,,,,,,,,,,,,,1025,2019_Mar_06_1503,mf_amp_cond1,3.0.4,59.98545565785454,
suicide,ittutable,&&&&&&&&&,right,care.vice,,,,,,,0,110,110,110,,,,,,,,,,,,,,,,,,,,,AMP,left,0.35032864240929484,,,left,0,0.35032864240929484,0,,,,,,,,,,,,,,,,,,,,,,1025,2019_Mar_06_1503,mf_amp_cond1,3.0.4,59.98545565785454,
scandal,sowntrodden,&&&&&&&&&&&,right,sanctity.vice,,,,,,,0,111,111,111,,,,,,,,,,,,,,,,,,,,,AMP,left,0.41701897827442735,,,left,0,0.41701897827442735,0,,,,,,,,,,,,,,,,,,,,,,1025,2019_Mar_06_1503,mf_amp_cond1,3.0.4,59.98545565785454,
civilians,idexpressible,&&&&&&&&&&&&&,right,care.vice,,,,,,,0,112,112,112,,,,,,,,,,,,,,,,,,,,,AMP,left,0.46705974196083844,,,left,0,0.46705974196083844,0,,,,,,,,,,,,,,,,,,,,,,1025,2019_Mar_06_1503,mf_amp_cond1,3.0.4,59.98545565785454,
injured,chreams,&&&&&&&,right,care.vice,,,,,,,0,113,113,113,,,,,,,,,,,,,,,,,,,,,AMP,left,0.6504186367383227,,,left,0,0.6504186367383227,0,,,,,,,,,,,,,,,,,,,,,,1025,2019_Mar_06_1503,mf_amp_cond1,3.0.4,59.98545565785454,
divility,frojecting,&&&&&&&&&&,None,nonword,,,,,,,0,114,114,114,,,,,,,,,,,,,,,,,,,,,AMP,left,0.4837253501173109,,,left,0,0.4837253501173109,0,,,,,,,,,,,,,,,,,,,,,,1025,2019_Mar_06_1503,mf_amp_cond1,3.0.4,59.98545565785454,
black,tomedians,&&&&&&&&&,right,loyalty.vice,,,,,,,0,115,115,115,,,,,,,,,,,,,,,,,,,,,AMP,right,1.0505096572451293,,,right,1,1.0505096572451293,1,,,,,,,,,,,,,,,,,,,,,,1025,2019_Mar_06_1503,mf_amp_cond1,3.0.4,59.98545565785454,
safety,taxpayung,&&&&&&&&&,left,care.virtue,,,,,,,0,116,116,116,,,,,,,,,,,,,,,,,,,,,AMP,right,0.2836655678693205,,,right,0,0.2836655678693205,0,,,,,,,,,,,,,,,,,,,,,,1025,2019_Mar_06_1503,mf_amp_cond1,3.0.4,59.98545565785454,
interests,pullness,&&&&&&&&,left,fairness.virtue,,,,,,,0,117,117,117,,,,,,,,,,,,,,,,,,,,,AMP,right,0.4837045033928007,,,right,0,0.4837045033928007,0,,,,,,,,,,,,,,,,,,,,,,1025,2019_Mar_06_1503,mf_amp_cond1,3.0.4,59.98545565785454,
promised,neutralust,&&&&&&&&&&,left,loyalty.virtue,,,,,,,0,118,118,118,,,,,,,,,,,,,,,,,,,,,AMP,right,0.7337633555289358,,,right,0,0.7337633555289358,0,,,,,,,,,,,,,,,,,,,,,,1025,2019_Mar_06_1503,mf_amp_cond1,3.0.4,59.98545565785454,
values,tove,&&&&,left,sanctity.virtue,,,,,,,0,119,119,119,,,,,,,,,,,,,,,,,,,,,AMP,right,0.617060158867389,,,right,0,0.617060158867389,0,,,,,,,,,,,,,,,,,,,,,,1025,2019_Mar_06_1503,mf_amp_cond1,3.0.4,59.98545565785454,
unpleasant,smapper,&&&&&&&,None,control,,,,,,,0,120,120,120,,,,,,,,,,,,,,,,,,,,,AMP,right,1.1672032324131578,,,right,0,1.1672032324131578,0,,,,,,,,,,,,,,,,,,,,,,1025,2019_Mar_06_1503,mf_amp_cond1,3.0.4,59.98545565785454,
coom,ronviolence,&&&&&&&&&&&,None,nonword,,,,,,,0,121,121,121,,,,,,,,,,,,,,,,,,,,,AMP,left,0.7671163812046871,,,left,0,0.7671163812046871,0,,,,,,,,,,,,,,,,,,,,,,1025,2019_Mar_06_1503,mf_amp_cond1,3.0.4,59.98545565785454,
commitment,Oregoniuns,&&&&&&&&&&,left,sanctity.virtue,,,,,,,0,122,122,122,,,,,,,,,,,,,,,,,,,,,AMP,left,1.617318980395794,,,left,1,1.617318980395794,1,,,,,,,,,,,,,,,,,,,,,,1025,2019_Mar_06_1503,mf_amp_cond1,3.0.4,59.98545565785454,
crime,bluently,&&&&&&&&,right,fairness.vice,,,,,,,0,123,123,123,,,,,,,,,,,,,,,,,,,,,AMP,left,0.3836778193945065,,,left,0,0.3836778193945065,0,,,,,,,,,,,,,,,,,,,,,,1025,2019_Mar_06_1503,mf_amp_cond1,3.0.4,59.98545565785454,
sexual,gikely,&&&&&&,right,sanctity.vice,,,,,,,0,124,124,124,,,,,,,,,,,,,,,,,,,,,AMP,left,0.2669739812845364,,,left,0,0.2669739812845364,0,,,,,,,,,,,,,,,,,,,,,,1025,2019_Mar_06_1503,mf_amp_cond1,3.0.4,59.98545565785454,
juck,ejanulated,&&&&&&&&&&,None,nonword,,,,,,,0,125,125,125,,,,,,,,,,,,,,,,,,,,,AMP,left,0.48365864041261375,,,left,0,0.48365864041261375,0,,,,,,,,,,,,,,,,,,,,,,1025,2019_Mar_06_1503,mf_amp_cond1,3.0.4,59.98545565785454,
promote,neneficence,&&&&&&&&&&&,left,sanctity.virtue,,,,,,,0,126,126,126,,,,,,,,,,,,,,,,,,,,,AMP,right,0.3003154607722536,,,right,0,0.3003154607722536,0,,,,,,,,,,,,,,,,,,,,,,1025,2019_Mar_06_1503,mf_amp_cond1,3.0.4,59.98545565785454,
arrests,chressing,&&&&&&&&&,right,authority.vice,,,,,,,0,127,127,127,,,,,,,,,,,,,,,,,,,,,AMP,left,0.15029483858961612,,,left,0,0.15029483858961612,0,,,,,,,,,,,,,,,,,,,,,,1025,2019_Mar_06_1503,mf_amp_cond1,3.0.4,59.98545565785454,
clean,lachelor,&&&&&&&&,left,sanctity.virtue,,,,,,,0,128,128,128,,,,,,,,,,,,,,,,,,,,,AMP,right,0.6003916640765965,,,right,0,0.6003916640765965,0,,,,,,,,,,,,,,,,,,,,,,1025,2019_Mar_06_1503,mf_amp_cond1,3.0.4,59.98545565785454,
praised,sgrawl,&&&&&&,left,loyalty.virtue,,,,,,,0,129,129,129,,,,,,,,,,,,,,,,,,,,,AMP,right,0.23364051966927946,,,right,0,0.23364051966927946,0,,,,,,,,,,,,,,,,,,,,,,1025,2019_Mar_06_1503,mf_amp_cond1,3.0.4,59.98545565785454,
progress,nuckheap,&&&&&&&&,left,authority.virtue,,,,,,,0,130,130,130,,,,,,,,,,,,,,,,,,,,,AMP,right,1.1838781414553523,,,right,0,1.1838781414553523,0,,,,,,,,,,,,,,,,,,,,,,1025,2019_Mar_06_1503,mf_amp_cond1,3.0.4,59.98545565785454,
perfect,clattening,&&&&&&&&&&,left,sanctity.virtue,,,,,,,0,131,131,131,,,,,,,,,,,,,,,,,,,,,AMP,right,0.40035240794532,,,right,0,0.40035240794532,0,,,,,,,,,,,,,,,,,,,,,,1025,2019_Mar_06_1503,mf_amp_cond1,3.0.4,59.98545565785454,
actively,wump,&&&&,left,authority.virtue,,,,,,,0,132,132,132,,,,,,,,,,,,,,,,,,,,,AMP,right,0.36700355168432,,,right,0,0.36700355168432,0,,,,,,,,,,,,,,,,,,,,,,1025,2019_Mar_06_1503,mf_amp_cond1,3.0.4,59.98545565785454,
threatened,papert,&&&&&&,right,fairness.vice,,,,,,,0,133,133,133,,,,,,,,,,,,,,,,,,,,,AMP,left,1.3839292643824592,,,left,0,1.3839292643824592,0,,,,,,,,,,,,,,,,,,,,,,1025,2019_Mar_06_1503,mf_amp_cond1,3.0.4,59.98545565785454,
loyalty,frocessing,&&&&&&&&&&,left,loyalty.virtue,,,,,,,0,134,134,134,,,,,,,,,,,,,,,,,,,,,AMP,right,0.11692898417823017,,,right,0,0.11692898417823017,0,,,,,,,,,,,,,,,,,,,,,,1025,2019_Mar_06_1503,mf_amp_cond1,3.0.4,59.98545565785454,
victims,synchronazers,&&&&&&&&&&&&&,right,care.vice,,,,,,,0,135,135,135,,,,,,,,,,,,,,,,,,,,,AMP,right,2.250811904319562,,,right,1,2.250811904319562,1,,,,,,,,,,,,,,,,,,,,,,1025,2019_Mar_06_1503,mf_amp_cond1,3.0.4,59.98545565785454,
compassion,metibolic,&&&&&&&&&,left,care.virtue,,,,,,,0,136,136,136,,,,,,,,,,,,,,,,,,,,,AMP,right,1.6839945630636066,,,right,0,1.6839945630636066,0,,,,,,,,,,,,,,,,,,,,,,1025,2019_Mar_06_1503,mf_amp_cond1,3.0.4,59.98545565785454,
improve,yane,&&&&,left,care.virtue,,,,,,,0,137,137,137,,,,,,,,,,,,,,,,,,,,,AMP,right,0.23364084027707577,,,right,0,0.23364084027707577,0,,,,,,,,,,,,,,,,,,,,,,1025,2019_Mar_06_1503,mf_amp_cond1,3.0.4,59.98545565785454,
accused,vurtain,&&&&&&&,right,fairness.vice,,,,,,,0,138,138,138,,,,,,,,,,,,,,,,,,,,,AMP,left,0.2336392366560176,,,left,0,0.2336392366560176,0,,,,,,,,,,,,,,,,,,,,,,1025,2019_Mar_06_1503,mf_amp_cond1,3.0.4,59.98545565785454,
powerful,rivernoat,&&&&&&&&&,left,authority.virtue,,,,,,,0,139,139,139,,,,,,,,,,,,,,,,,,,,,AMP,left,0.2669611524324864,,,left,1,0.2669611524324864,1,,,,,,,,,,,,,,,,,,,,,,1025,2019_Mar_06_1503,mf_amp_cond1,3.0.4,59.98545565785454,
terrorists,Lacedonia,&&&&&&&&&,right,fairness.vice,,,,,,,0,140,140,140,,,,,,,,,,,,,,,,,,,,,AMP,left,0.15029708354268223,,,left,0,0.15029708354268223,0,,,,,,,,,,,,,,,,,,,,,,1025,2019_Mar_06_1503,mf_amp_cond1,3.0.4,59.98545565785454,
support,gaultless,&&&&&&&&&,left,loyalty.virtue,,,,,,,0,141,141,141,,,,,,,,,,,,,,,,,,,,,AMP,right,0.40037549973931164,,,right,0,0.40037549973931164,0,,,,,,,,,,,,,,,,,,,,,,1025,2019_Mar_06_1503,mf_amp_cond1,3.0.4,59.98545565785454,
noped,atson,&&&&&,None,nonword,,,,,,,0,142,142,142,,,,,,,,,,,,,,,,,,,,,AMP,left,0.18363311095163226,,,left,0,0.18363311095163226,0,,,,,,,,,,,,,,,,,,,,,,1025,2019_Mar_06_1503,mf_amp_cond1,3.0.4,59.98545565785454,
love,tislay,&&&&&&,left,loyalty.virtue,,,,,,,0,143,143,143,,,,,,,,,,,,,,,,,,,,,AMP,right,1.583998347632587,,,right,0,1.583998347632587,0,,,,,,,,,,,,,,,,,,,,,,1025,2019_Mar_06_1503,mf_amp_cond1,3.0.4,59.98545565785454,
voter,slending,&&&&&&&&,right,fairness.vice,,,,,,,0,144,144,144,,,,,,,,,,,,,,,,,,,,,AMP,right,0.2169890230288729,,,right,1,0.2169890230288729,1,,,,,,,,,,,,,,,,,,,,,,1025,2019_Mar_06_1503,mf_amp_cond1,3.0.4,59.98545565785454,
promises,framo,&&&&&,left,fairness.virtue,,,,,,,0,145,145,145,,,,,,,,,,,,,,,,,,,,,AMP,right,0.06693280069157481,,,right,0,0.06693280069157481,0,,,,,,,,,,,,,,,,,,,,,,1025,2019_Mar_06_1503,mf_amp_cond1,3.0.4,59.98545565785454,
benefit,asn,&&&,left,fairness.virtue,,,,,,,0,146,146,146,,,,,,,,,,,,,,,,,,,,,AMP,right,0.4170353350928053,,,right,0,0.4170353350928053,0,,,,,,,,,,,,,,,,,,,,,,1025,2019_Mar_06_1503,mf_amp_cond1,3.0.4,59.98545565785454,
harassment,bruthfulness,&&&&&&&&&&&&,right,sanctity.vice,,,,,,,0,147,147,147,,,,,,,,,,,,,,,,,,,,,AMP,left,0.0669158025411889,,,left,0,0.0669158025411889,0,,,,,,,,,,,,,,,,,,,,,,1025,2019_Mar_06_1503,mf_amp_cond1,3.0.4,59.98545565785454,
men,feleological,&&&&&&&&&&&&,right,loyalty.vice,,,,,,,0,148,148,148,,,,,,,,,,,,,,,,,,,,,AMP,left,0.08365004498045892,,,left,0,0.08365004498045892,0,,,,,,,,,,,,,,,,,,,,,,1025,2019_Mar_06_1503,mf_amp_cond1,3.0.4,59.98545565785454,
gun,hasks,&&&&&,right,authority.vice,,,,,,,0,149,149,149,,,,,,,,,,,,,,,,,,,,,AMP,left,1.4672374211950228,,,left,0,1.4672374211950228,0,,,,,,,,,,,,,,,,,,,,,,1025,2019_Mar_06_1503,mf_amp_cond1,3.0.4,59.98545565785454,
protect,oam,&&&,left,fairness.virtue,,,,,,,0,150,150,150,,,,,,,,,,,,,,,,,,,,,AMP,right,0.6504042042652145,,,right,0,0.6504042042652145,0,,,,,,,,,,,,,,,,,,,,,,1025,2019_Mar_06_1503,mf_amp_cond1,3.0.4,59.98545565785454,
officers,gondensed,&&&&&&&&&,right,authority.vice,,,,,,,0,151,151,151,,,,,,,,,,,,,,,,,,,,,AMP,left,0.2169794013025239,,,left,0,0.2169794013025239,0,,,,,,,,,,,,,,,,,,,,,,1025,2019_Mar_06_1503,mf_amp_cond1,3.0.4,59.98545565785454,
godlaness,lempestuous,&&&&&&&&&&&,None,nonword,,,,,,,0,152,152,152,,,,,,,,,,,,,,,,,,,,,AMP,left,0.6337498212233186,,,left,0,0.6337498212233186,0,,,,,,,,,,,,,,,,,,,,,,1025,2019_Mar_06_1503,mf_amp_cond1,3.0.4,59.98545565785454,
opportunity,hescribe,&&&&&&&&,left,fairness.virtue,,,,,,,0,153,153,153,,,,,,,,,,,,,,,,,,,,,AMP,right,0.2502872054465115,,,right,0,0.2502872054465115,0,,,,,,,,,,,,,,,,,,,,,,1025,2019_Mar_06_1503,mf_amp_cond1,3.0.4,59.98545565785454,
killed,menizen,&&&&&&&,right,care.vice,,,,,,,0,154,154,154,,,,,,,,,,,,,,,,,,,,,AMP,left,0.2003032093634829,,,left,0,0.2003032093634829,0,,,,,,,,,,,,,,,,,,,,,,1025,2019_Mar_06_1503,mf_amp_cond1,3.0.4,59.98545565785454,
edancipation,blunderints,&&&&&&&&&&&,None,nonword,,,,,,,0,155,155,155,,,,,,,,,,,,,,,,,,,,,AMP,left,0.9338109506061301,,,left,0,0.9338109506061301,0,,,,,,,,,,,,,,,,,,,,,,1025,2019_Mar_06_1503,mf_amp_cond1,3.0.4,59.98545565785454,
iptervention,focomotive,&&&&&&&&&&,None,nonword,,,,,,,0,156,156,156,,,,,,,,,,,,,,,,,,,,,AMP,left,0.46704595093615353,,,left,0,0.46704595093615353,0,,,,,,,,,,,,,,,,,,,,,,1025,2019_Mar_06_1503,mf_amp_cond1,3.0.4,59.98545565785454,
riot,pharing,&&&&&&&,right,authority.vice,,,,,,,0,157,157,157,,,,,,,,,,,,,,,,,,,,,AMP,left,0.13359908247366548,,,left,0,0.13359908247366548,0,,,,,,,,,,,,,,,,,,,,,,1025,2019_Mar_06_1503,mf_amp_cond1,3.0.4,59.98545565785454,
fighters,supervuned,&&&&&&&&&&,right,authority.vice,,,,,,,0,158,158,158,,,,,,,,,,,,,,,,,,,,,AMP,left,0.3503645631717518,,,left,0,0.3503645631717518,0,,,,,,,,,,,,,,,,,,,,,,1025,2019_Mar_06_1503,mf_amp_cond1,3.0.4,59.98545565785454,
cromiscuity,gandbrake,&&&&&&&&&,None,nonword,,,,,,,0,159,159,159,,,,,,,,,,,,,,,,,,,,,AMP,left,0.36700932460371405,,,left,0,0.36700932460371405,0,,,,,,,,,,,,,,,,,,,,,,1025,2019_Mar_06_1503,mf_amp_cond1,3.0.4,59.98545565785454,
hope,fangsters,&&&&&&&&&,left,loyalty.virtue,,,,,,,0,160,160,160,,,,,,,,,,,,,,,,,,,,,AMP,right,0.10027780814561993,,,right,0,0.10027780814561993,0,,,,,,,,,,,,,,,,,,,,,,1025,2019_Mar_06_1503,mf_amp_cond1,3.0.4,59.98545565785454,
dignity,gournful,&&&&&&&&,left,sanctity.virtue,,,,,,,0,161,161,161,,,,,,,,,,,,,,,,,,,,,AMP,right,0.0669190096668899,,,right,0,0.0669190096668899,0,,,,,,,,,,,,,,,,,,,,,,1025,2019_Mar_06_1503,mf_amp_cond1,3.0.4,59.98545565785454,
party,simplustic,&&&&&&&&&&,left,loyalty.virtue,,,,,,,0,162,162,162,,,,,,,,,,,,,,,,,,,,,AMP,right,0.38367429142817855,,,right,0,0.38367429142817855,0,,,,,,,,,,,,,,,,,,,,,,1025,2019_Mar_06_1503,mf_amp_cond1,3.0.4,59.98545565785454,
rejected,viscs,&&&&&,right,authority.vice,,,,,,,0,163,163,163,,,,,,,,,,,,,,,,,,,,,AMP,left,1.5840326647739857,,,left,0,1.5840326647739857,0,,,,,,,,,,,,,,,,,,,,,,1025,2019_Mar_06_1503,mf_amp_cond1,3.0.4,59.98545565785454,
free,sonvoy,&&&&&&,left,fairness.virtue,,,,,,,0,164,164,164,,,,,,,,,,,,,,,,,,,,,AMP,right,0.15028906555380672,,,right,0,0.15028906555380672,0,,,,,,,,,,,,,,,,,,,,,,1025,2019_Mar_06_1503,mf_amp_cond1,3.0.4,59.98545565785454,
benefit,gationwide,&&&&&&&&&&,left,fairness.virtue,,,,,,,0,165,165,165,,,,,,,,,,,,,,,,,,,,,AMP,right,0.06693825300317258,,,right,0,0.06693825300317258,0,,,,,,,,,,,,,,,,,,,,,,1025,2019_Mar_06_1503,mf_amp_cond1,3.0.4,59.98545565785454,
commitment,frocessing,&&&&&&&&&&,left,sanctity.virtue,,,,,,,0,166,166,166,,,,,,,,,,,,,,,,,,,,,AMP,right,1.200545032741502,,,right,0,1.200545032741502,0,,,,,,,,,,,,,,,,,,,,,,1025,2019_Mar_06_1503,mf_amp_cond1,3.0.4,59.98545565785454,
unpleasant,pullness,&&&&&&&&,None,control,,,,,,,0,167,167,167,,,,,,,,,,,,,,,,,,,,,AMP,left,0.2669836027780548,,,left,0,0.2669836027780548,0,,,,,,,,,,,,,,,,,,,,,,1025,2019_Mar_06_1503,mf_amp_cond1,3.0.4,59.98545565785454,
imebreaker,idexpressible,&&&&&&&&&&&&&,None,nonword,,,,,,,0,168,168,168,,,,,,,,,,,,,,,,,,,,,AMP,left,0.5337273065233603,,,left,0,0.5337273065233603,0,,,,,,,,,,,,,,,,,,,,,,1025,2019_Mar_06_1503,mf_amp_cond1,3.0.4,59.98545565785454,
compassion,bycled,&&&&&&,left,care.virtue,,,,,,,0,169,169,169,,,,,,,,,,,,,,,,,,,,,AMP,right,0.15029131062328815,,,right,0,0.15029131062328815,0,,,,,,,,,,,,,,,,,,,,,,1025,2019_Mar_06_1503,mf_amp_cond1,3.0.4,59.98545565785454,
slavery,feleological,&&&&&&&&&&&&,right,loyalty.vice,,,,,,,0,170,170,170,,,,,,,,,,,,,,,,,,,,,AMP,left,0.36699745792429894,,,left,0,0.36699745792429894,0,,,,,,,,,,,,,,,,,,,,,,1025,2019_Mar_06_1503,mf_amp_cond1,3.0.4,59.98545565785454,
love,clattening,&&&&&&&&&&,left,loyalty.virtue,,,,,,,0,171,171,171,,,,,,,,,,,,,,,,,,,,,AMP,right,0.21696464822161943,,,right,0,0.21696464822161943,0,,,,,,,,,,,,,,,,,,,,,,1025,2019_Mar_06_1503,mf_amp_cond1,3.0.4,59.98545565785454,
godlaness,festate,&&&&&&&,None,nonword,,,,,,,0,172,172,172,,,,,,,,,,,,,,,,,,,,,AMP,right,1.8173566330224276,,,right,0,1.8173566330224276,0,,,,,,,,,,,,,,,,,,,,,,1025,2019_Mar_06_1503,mf_amp_cond1,3.0.4,59.98545565785454,
men,vurtain,&&&&&&&,right,loyalty.vice,,,,,,,0,173,173,173,,,,,,,,,,,,,,,,,,,,,AMP,left,0.10019826947245747,,,left,0,0.10019826947245747,0,,,,,,,,,,,,,,,,,,,,,,1025,2019_Mar_06_1503,mf_amp_cond1,3.0.4,59.98545565785454,
promote,infet,&&&&&,left,sanctity.virtue,,,,,,,0,174,174,174,,,,,,,,,,,,,,,,,,,,,AMP,right,0.1669575603445992,,,right,0,0.1669575603445992,0,,,,,,,,,,,,,,,,,,,,,,1025,2019_Mar_06_1503,mf_amp_cond1,3.0.4,59.98545565785454,
safety,lachelor,&&&&&&&&,left,care.virtue,,,,,,,0,175,175,175,,,,,,,,,,,,,,,,,,,,,AMP,right,0.4337060748366639,,,right,0,0.4337060748366639,0,,,,,,,,,,,,,,,,,,,,,,1025,2019_Mar_06_1503,mf_amp_cond1,3.0.4,59.98545565785454,
killed,menizen,&&&&&&&,right,care.vice,,,,,,,0,176,176,176,,,,,,,,,,,,,,,,,,,,,AMP,left,0.4170144882518798,,,left,0,0.4170144882518798,0,,,,,,,,,,,,,,,,,,,,,,1025,2019_Mar_06_1503,mf_amp_cond1,3.0.4,59.98545565785454,
clean,smapper,&&&&&&&,left,sanctity.virtue,,,,,,,0,177,177,177,,,,,,,,,,,,,,,,,,,,,AMP,right,3.9179105818038806,,,right,0,3.9179105818038806,0,,,,,,,,,,,,,,,,,,,,,,1025,2019_Mar_06_1503,mf_amp_cond1,3.0.4,59.98545565785454,
threatened,openet,&&&&&&,right,fairness.vice,,,,,,,0,178,178,178,,,,,,,,,,,,,,,,,,,,,AMP,right,0.3836813473608345,,,right,1,0.3836813473608345,1,,,,,,,,,,,,,,,,,,,,,,1025,2019_Mar_06_1503,mf_amp_cond1,3.0.4,59.98545565785454,
attacks,lursuer,&&&&&&&,right,care.vice,,,,,,,0,179,179,179,,,,,,,,,,,,,,,,,,,,,AMP,left,0.2836537011899054,,,left,0,0.2836537011899054,0,,,,,,,,,,,,,,,,,,,,,,1025,2019_Mar_06_1503,mf_amp_cond1,3.0.4,59.98545565785454,
interests,Oregoniuns,&&&&&&&&&&,left,fairness.virtue,,,,,,,0,180,180,180,,,,,,,,,,,,,,,,,,,,,AMP,right,0.5337128741666675,,,right,0,0.5337128741666675,0,,,,,,,,,,,,,,,,,,,,,,1025,2019_Mar_06_1503,mf_amp_cond1,3.0.4,59.98545565785454,
praised,lempestuous,&&&&&&&&&&&,left,loyalty.virtue,,,,,,,0,181,181,181,,,,,,,,,,,,,,,,,,,,,AMP,right,1.1505353789543733,,,right,0,1.1505353789543733,0,,,,,,,,,,,,,,,,,,,,,,1025,2019_Mar_06_1503,mf_amp_cond1,3.0.4,59.98545565785454,
protect,papert,&&&&&&,left,fairness.virtue,,,,,,,0,182,182,182,,,,,,,,,,,,,,,,,,,,,AMP,right,1.0505523129832,,,right,0,1.0505523129832,0,,,,,,,,,,,,,,,,,,,,,,1025,2019_Mar_06_1503,mf_amp_cond1,3.0.4,59.98545565785454,
illegal,yane,&&&&,right,fairness.vice,,,,,,,0,183,183,183,,,,,,,,,,,,,,,,,,,,,AMP,left,0.5670870674075559,,,left,0,0.5670870674075559,0,,,,,,,,,,,,,,,,,,,,,,1025,2019_Mar_06_1503,mf_amp_cond1,3.0.4,59.98545565785454,
voter,fornicalion,&&&&&&&&&&&,right,fairness.vice,,,,,,,0,184,184,184,,,,,,,,,,,,,,,,,,,,,AMP,right,1.2671122117899358,,,right,1,1.2671122117899358,1,,,,,,,,,,,,,,,,,,,,,,1025,2019_Mar_06_1503,mf_amp_cond1,3.0.4,59.98545565785454,
care,gikely,&&&&&&,left,care.virtue,,,,,,,0,185,185,185,,,,,,,,,,,,,,,,,,,,,AMP,right,0.3503299253061414,,,right,0,0.3503299253061414,0,,,,,,,,,,,,,,,,,,,,,,1025,2019_Mar_06_1503,mf_amp_cond1,3.0.4,59.98545565785454,
iptervention,carvels,&&&&&&&,None,nonword,,,,,,,0,186,186,186,,,,,,,,,,,,,,,,,,,,,AMP,left,0.33367842878215015,,,left,0,0.33367842878215015,0,,,,,,,,,,,,,,,,,,,,,,1025,2019_Mar_06_1503,mf_amp_cond1,3.0.4,59.98545565785454,
praise,epigrach,&&&&&&&&,left,authority.virtue,,,,,,,0,187,187,187,,,,,,,,,,,,,,,,,,,,,AMP,right,0.40035593579523265,,,right,0,0.40035593579523265,0,,,,,,,,,,,,,,,,,,,,,,1025,2019_Mar_06_1503,mf_amp_cond1,3.0.4,59.98545565785454,
rebels,ablow,&&&&&,right,authority.vice,,,,,,,0,188,188,188,,,,,,,,,,,,,,,,,,,,,AMP,left,0.18362894153688103,,,left,0,0.18362894153688103,0,,,,,,,,,,,,,,,,,,,,,,1025,2019_Mar_06_1503,mf_amp_cond1,3.0.4,59.98545565785454,
victims,framo,&&&&&,right,care.vice,,,,,,,0,189,189,189,,,,,,,,,,,,,,,,,,,,,AMP,right,0.9671639760490507,,,right,1,0.9671639760490507,1,,,,,,,,,,,,,,,,,,,,,,1025,2019_Mar_06_1503,mf_amp_cond1,3.0.4,59.98545565785454,
terrorist,wump,&&&&,right,loyalty.vice,,,,,,,0,190,190,190,,,,,,,,,,,,,,,,,,,,,AMP,left,0.13361768424510956,,,left,0,0.13361768424510956,0,,,,,,,,,,,,,,,,,,,,,,1025,2019_Mar_06_1503,mf_amp_cond1,3.0.4,59.98545565785454,
divility,tislay,&&&&&&,None,nonword,,,,,,,0,191,191,191,,,,,,,,,,,,,,,,,,,,,AMP,left,1.2338903609197587,,,left,0,1.2338903609197587,0,,,,,,,,,,,,,,,,,,,,,,1025,2019_Mar_06_1503,mf_amp_cond1,3.0.4,59.98545565785454,
loyalty,neutralust,&&&&&&&&&&,left,loyalty.virtue,,,,,,,0,192,192,192,,,,,,,,,,,,,,,,,,,,,AMP,right,0.20030481298454106,,,right,0,0.20030481298454106,0,,,,,,,,,,,,,,,,,,,,,,1025,2019_Mar_06_1503,mf_amp_cond1,3.0.4,59.98545565785454,
crilfully,gournful,&&&&&&&&,None,nonword,,,,,,,0,193,193,193,,,,,,,,,,,,,,,,,,,,,AMP,left,0.41702763771172613,,,left,0,0.41702763771172613,0,,,,,,,,,,,,,,,,,,,,,,1025,2019_Mar_06_1503,mf_amp_cond1,3.0.4,59.98545565785454,
rejected,tove,&&&&,right,authority.vice,,,,,,,0,194,194,194,,,,,,,,,,,,,,,,,,,,,AMP,right,0.2836389479925856,,,right,1,0.2836389479925856,1,,,,,,,,,,,,,,,,,,,,,,1025,2019_Mar_06_1503,mf_amp_cond1,3.0.4,59.98545565785454,
support,neneficence,&&&&&&&&&&&,left,loyalty.virtue,,,,,,,0,195,195,195,,,,,,,,,,,,,,,,,,,,,AMP,left,0.833796133287251,,,left,1,0.833796133287251,1,,,,,,,,,,,,,,,,,,,,,,1025,2019_Mar_06_1503,mf_amp_cond1,3.0.4,59.98545565785454,
blamed,sliptery,&&&&&&&&,right,loyalty.vice,,,,,,,0,196,196,196,,,,,,,,,,,,,,,,,,,,,AMP,left,0.3169993502087891,,,left,0,0.3169993502087891,0,,,,,,,,,,,,,,,,,,,,,,1025,2019_Mar_06_1503,mf_amp_cond1,3.0.4,59.98545565785454,
black,simplustic,&&&&&&&&&&,right,loyalty.vice,,,,,,,0,197,197,197,,,,,,,,,,,,,,,,,,,,,AMP,right,0.4503687967080623,,,right,1,0.4503687967080623,1,,,,,,,,,,,,,,,,,,,,,,1025,2019_Mar_06_1503,mf_amp_cond1,3.0.4,59.98545565785454,
values,bruthfulness,&&&&&&&&&&&&,left,sanctity.virtue,,,,,,,0,198,198,198,,,,,,,,,,,,,,,,,,,,,AMP,right,0.2836800003424287,,,right,0,0.2836800003424287,0,,,,,,,,,,,,,,,,,,,,,,1025,2019_Mar_06_1503,mf_amp_cond1,3.0.4,59.98545565785454,
conspiracy,chreams,&&&&&&&,right,sanctity.vice,,,,,,,0,199,199,199,,,,,,,,,,,,,,,,,,,,,AMP,left,0.36699842021334916,,,left,0,0.36699842021334916,0,,,,,,,,,,,,,,,,,,,,,,1025,2019_Mar_06_1503,mf_amp_cond1,3.0.4,59.98545565785454,
crime,mecan,&&&&&,right,fairness.vice,,,,,,,0,200,200,200,,,,,,,,,,,,,,,,,,,,,AMP,left,0.2836504940642044,,,left,0,0.2836504940642044,0,,,,,,,,,,,,,,,,,,,,,,1025,2019_Mar_06_1503,mf_amp_cond1,3.0.4,59.98545565785454,
opportunity,blunderints,&&&&&&&&&&&,left,fairness.virtue,,,,,,,0,201,201,201,,,,,,,,,,,,,,,,,,,,,AMP,right,0.08360225753858685,,,right,0,0.08360225753858685,0,,,,,,,,,,,,,,,,,,,,,,1025,2019_Mar_06_1503,mf_amp_cond1,3.0.4,59.98545565785454,
edancipation,ebbitter,&&&&&&&&,None,nonword,,,,,,,0,202,202,202,,,,,,,,,,,,,,,,,,,,,AMP,left,0.5337215336039662,,,left,0,0.5337215336039662,0,,,,,,,,,,,,,,,,,,,,,,1025,2019_Mar_06_1503,mf_amp_cond1,3.0.4,59.98545565785454,
scandal,honstables,&&&&&&&&&&,right,sanctity.vice,,,,,,,0,203,203,203,,,,,,,,,,,,,,,,,,,,,AMP,left,1.1005298946984112,,,left,0,1.1005298946984112,0,,,,,,,,,,,,,,,,,,,,,,1025,2019_Mar_06_1503,mf_amp_cond1,3.0.4,59.98545565785454,
war,scalbel,&&&&&&&,right,sanctity.vice,,,,,,,0,204,204,204,,,,,,,,,,,,,,,,,,,,,AMP,left,0.5337147985119373,,,left,0,0.5337147985119373,0,,,,,,,,,,,,,,,,,,,,,,1025,2019_Mar_06_1503,mf_amp_cond1,3.0.4,59.98545565785454,
harassment,squets,&&&&&&,right,sanctity.vice,,,,,,,0,205,205,205,,,,,,,,,,,,,,,,,,,,,AMP,left,0.2836662093177438,,,left,0,0.2836662093177438,0,,,,,,,,,,,,,,,,,,,,,,1025,2019_Mar_06_1503,mf_amp_cond1,3.0.4,59.98545565785454,
fighters,sgrawl,&&&&&&,right,authority.vice,,,,,,,0,206,206,206,,,,,,,,,,,,,,,,,,,,,AMP,left,0.15027302945964038,,,left,0,0.15027302945964038,0,,,,,,,,,,,,,,,,,,,,,,1025,2019_Mar_06_1503,mf_amp_cond1,3.0.4,59.98545565785454,
injured,frojecting,&&&&&&&&&&,right,care.vice,,,,,,,0,207,207,207,,,,,,,,,,,,,,,,,,,,,AMP,left,0.4003738962346688,,,left,0,0.4003738962346688,0,,,,,,,,,,,,,,,,,,,,,,1025,2019_Mar_06_1503,mf_amp_cond1,3.0.4,59.98545565785454,
dignity,oam,&&&,left,sanctity.virtue,,,,,,,0,208,208,208,,,,,,,,,,,,,,,,,,,,,AMP,left,0.4669952770927921,,,left,1,0.4669952770927921,1,,,,,,,,,,,,,,,,,,,,,,1025,2019_Mar_06_1503,mf_amp_cond1,3.0.4,59.98545565785454,
health,pumber,&&&&&&,left,care.virtue,,,,,,,0,209,209,209,,,,,,,,,,,,,,,,,,,,,AMP,left,0.48368814669083804,,,left,1,0.48368814669083804,1,,,,,,,,,,,,,,,,,,,,,,1025,2019_Mar_06_1503,mf_amp_cond1,3.0.4,59.98545565785454,
hate,ronviolence,&&&&&&&&&&&,right,fairness.vice,,,,,,,0,210,210,210,,,,,,,,,,,,,,,,,,,,,AMP,left,0.23363057721871883,,,left,0,0.23363057721871883,0,,,,,,,,,,,,,,,,,,,,,,1025,2019_Mar_06_1503,mf_amp_cond1,3.0.4,59.98545565785454,
perfect,Cunday,&&&&&&,left,sanctity.virtue,,,,,,,0,211,211,211,,,,,,,,,,,,,,,,,,,,,AMP,right,0.16696397471241653,,,right,0,0.16696397471241653,0,,,,,,,,,,,,,,,,,,,,,,1025,2019_Mar_06_1503,mf_amp_cond1,3.0.4,59.98545565785454,
promises,hescribe,&&&&&&&&,left,fairness.virtue,,,,,,,0,212,212,212,,,,,,,,,,,,,,,,,,,,,AMP,right,0.46704114018939435,,,right,0,0.46704114018939435,0,,,,,,,,,,,,,,,,,,,,,,1025,2019_Mar_06_1503,mf_amp_cond1,3.0.4,59.98545565785454,
pleasant,gandbrake,&&&&&&&&&,None,control,,,,,,,0,213,213,213,,,,,,,,,,,,,,,,,,,,,AMP,right,0.11694341653492302,,,right,0,0.11694341653492302,0,,,,,,,,,,,,,,,,,,,,,,1025,2019_Mar_06_1503,mf_amp_cond1,3.0.4,59.98545565785454,
terrorists,rorroborated,&&&&&&&&&&&&,right,fairness.vice,,,,,,,0,214,214,214,,,,,,,,,,,,,,,,,,,,,AMP,left,0.050284511293284595,,,left,0,0.050284511293284595,0,,,,,,,,,,,,,,,,,,,,,,1025,2019_Mar_06_1503,mf_amp_cond1,3.0.4,59.98545565785454,
fear,sfumatoy,&&&&&&&&,right,sanctity.vice,,,,,,,0,215,215,215,,,,,,,,,,,,,,,,,,,,,AMP,left,0.1169244940392673,,,left,0,0.1169244940392673,0,,,,,,,,,,,,,,,,,,,,,,1025,2019_Mar_06_1503,mf_amp_cond1,3.0.4,59.98545565785454,
sexual,rivernoat,&&&&&&&&&,right,sanctity.vice,,,,,,,0,216,216,216,,,,,,,,,,,,,,,,,,,,,AMP,left,0.5170722820330411,,,left,0,0.5170722820330411,0,,,,,,,,,,,,,,,,,,,,,,1025,2019_Mar_06_1503,mf_amp_cond1,3.0.4,59.98545565785454,
cromiscuity,tomedians,&&&&&&&&&,None,nonword,,,,,,,0,217,217,217,,,,,,,,,,,,,,,,,,,,,AMP,left,0.5337253822945058,,,left,0,0.5337253822945058,0,,,,,,,,,,,,,,,,,,,,,,1025,2019_Mar_06_1503,mf_amp_cond1,3.0.4,59.98545565785454,
accused,synchronazers,&&&&&&&&&&&&&,right,fairness.vice,,,,,,,0,218,218,218,,,,,,,,,,,,,,,,,,,,,AMP,left,0.3836685185087845,,,left,0,0.3836685185087845,0,,,,,,,,,,,,,,,,,,,,,,1025,2019_Mar_06_1503,mf_amp_cond1,3.0.4,59.98545565785454,
abuse,gaultless,&&&&&&&&&,right,sanctity.vice,,,,,,,0,219,219,219,,,,,,,,,,,,,,,,,,,,,AMP,left,0.45020587055478245,,,left,0,0.45020587055478245,0,,,,,,,,,,,,,,,,,,,,,,1025,2019_Mar_06_1503,mf_amp_cond1,3.0.4,59.98545565785454,
juck,faspberry,&&&&&&&&&,None,nonword,,,,,,,0,220,220,220,,,,,,,,,,,,,,,,,,,,,AMP,left,0.23363891593180597,,,left,0,0.23363891593180597,0,,,,,,,,,,,,,,,,,,,,,,1025,2019_Mar_06_1503,mf_amp_cond1,3.0.4,59.98545565785454,
improve,allears,&&&&&&&,left,care.virtue,,,,,,,0,221,221,221,,,,,,,,,,,,,,,,,,,,,AMP,left,0.4003366925753653,,,left,1,0.4003366925753653,1,,,,,,,,,,,,,,,,,,,,,,1025,2019_Mar_06_1503,mf_amp_cond1,3.0.4,59.98545565785454,
noped,slending,&&&&&&&&,None,nonword,,,,,,,0,222,222,222,,,,,,,,,,,,,,,,,,,,,AMP,left,0.517044379375875,,,left,0,0.517044379375875,0,,,,,,,,,,,,,,,,,,,,,,1025,2019_Mar_06_1503,mf_amp_cond1,3.0.4,59.98545565785454,
powerful,erdest,&&&&&&,left,authority.virtue,,,,,,,0,223,223,223,,,,,,,,,,,,,,,,,,,,,AMP,left,0.4503652687417343,,,left,1,0.4503652687417343,1,,,,,,,,,,,,,,,,,,,,,,1025,2019_Mar_06_1503,mf_amp_cond1,3.0.4,59.98545565785454,
civilians,sowntrodden,&&&&&&&&&&&,right,care.vice,,,,,,,0,224,224,224,,,,,,,,,,,,,,,,,,,,,AMP,right,0.6337437275797129,,,right,1,0.6337437275797129,1,,,,,,,,,,,,,,,,,,,,,,1025,2019_Mar_06_1503,mf_amp_cond1,3.0.4,59.98545565785454,
growth,asn,&&&,left,care.virtue,,,,,,,0,225,225,225,,,,,,,,,,,,,,,,,,,,,AMP,right,0.1335737454937771,,,right,0,0.1335737454937771,0,,,,,,,,,,,,,,,,,,,,,,1025,2019_Mar_06_1503,mf_amp_cond1,3.0.4,59.98545565785454,
honored,ittutable,&&&&&&&&&,left,authority.virtue,,,,,,,0,226,226,226,,,,,,,,,,,,,,,,,,,,,AMP,right,0.40037293394561857,,,right,0,0.40037293394561857,0,,,,,,,,,,,,,,,,,,,,,,1025,2019_Mar_06_1503,mf_amp_cond1,3.0.4,59.98545565785454,
death,chressing,&&&&&&&&&,right,care.vice,,,,,,,0,227,227,227,,,,,,,,,,,,,,,,,,,,,AMP,left,0.16696525760926306,,,left,0,0.16696525760926306,0,,,,,,,,,,,,,,,,,,,,,,1025,2019_Mar_06_1503,mf_amp_cond1,3.0.4,59.98545565785454,
gun,gazily,&&&&&&,right,authority.vice,,,,,,,0,228,228,228,,,,,,,,,,,,,,,,,,,,,AMP,left,0.13362249510828406,,,left,0,0.13362249510828406,0,,,,,,,,,,,,,,,,,,,,,,1025,2019_Mar_06_1503,mf_amp_cond1,3.0.4,59.98545565785454,
hope,viscs,&&&&&,left,loyalty.virtue,,,,,,,0,229,229,229,,,,,,,,,,,,,,,,,,,,,AMP,right,0.3668441534973681,,,right,0,0.3668441534973681,0,,,,,,,,,,,,,,,,,,,,,,1025,2019_Mar_06_1503,mf_amp_cond1,3.0.4,59.98545565785454,
progress,galamitous,&&&&&&&&&&,left,authority.virtue,,,,,,,0,230,230,230,,,,,,,,,,,,,,,,,,,,,AMP,left,2.717435786849819,,,left,1,2.717435786849819,1,,,,,,,,,,,,,,,,,,,,,,1025,2019_Mar_06_1503,mf_amp_cond1,3.0.4,59.98545565785454,
trust,focomotive,&&&&&&&&&&,left,authority.virtue,,,,,,,0,231,231,231,,,,,,,,,,,,,,,,,,,,,AMP,right,0.11694694450125098,,,right,0,0.11694694450125098,0,,,,,,,,,,,,,,,,,,,,,,1025,2019_Mar_06_1503,mf_amp_cond1,3.0.4,59.98545565785454,
celebrated,nuckheap,&&&&&&&&,left,authority.virtue,,,,,,,0,232,232,232,,,,,,,,,,,,,,,,,,,,,AMP,left,0.6837408730061725,,,left,1,0.6837408730061725,1,,,,,,,,,,,,,,,,,,,,,,1025,2019_Mar_06_1503,mf_amp_cond1,3.0.4,59.98545565785454,
party,pharing,&&&&&&&,left,loyalty.virtue,,,,,,,0,233,233,233,,,,,,,,,,,,,,,,,,,,,AMP,right,0.06693215924315155,,,right,0,0.06693215924315155,0,,,,,,,,,,,,,,,,,,,,,,1025,2019_Mar_06_1503,mf_amp_cond1,3.0.4,59.98545565785454,
restore,Lacedonia,&&&&&&&&&,left,care.virtue,,,,,,,0,234,234,234,,,,,,,,,,,,,,,,,,,,,AMP,right,0.45038803992792964,,,right,0,0.45038803992792964,0,,,,,,,,,,,,,,,,,,,,,,1025,2019_Mar_06_1503,mf_amp_cond1,3.0.4,59.98545565785454,
arrests,hasks,&&&&&,right,authority.vice,,,,,,,0,235,235,235,,,,,,,,,,,,,,,,,,,,,AMP,left,0.0503021510085091,,,left,0,0.0503021510085091,0,,,,,,,,,,,,,,,,,,,,,,1025,2019_Mar_06_1503,mf_amp_cond1,3.0.4,59.98545565785454,
promised,tracious,&&&&&&&&,left,loyalty.virtue,,,,,,,0,236,236,236,,,,,,,,,,,,,,,,,,,,,AMP,right,0.26697462261654437,,,right,0,0.26697462261654437,0,,,,,,,,,,,,,,,,,,,,,,1025,2019_Mar_06_1503,mf_amp_cond1,3.0.4,59.98545565785454,
army,gondensed,&&&&&&&&&,right,loyalty.vice,,,,,,,0,237,237,237,,,,,,,,,,,,,,,,,,,,,AMP,left,0.1836372803663835,,,left,0,0.1836372803663835,0,,,,,,,,,,,,,,,,,,,,,,1025,2019_Mar_06_1503,mf_amp_cond1,3.0.4,59.98545565785454,
suicide,metibolic,&&&&&&&&&,right,care.vice,,,,,,,0,238,238,238,,,,,,,,,,,,,,,,,,,,,AMP,left,0.0002886485308408737,,,left,0,0.0002886485308408737,0,,,,,,,,,,,,,,,,,,,,,,1025,2019_Mar_06_1503,mf_amp_cond1,3.0.4,59.98545565785454,
ensure,fangsters,&&&&&&&&&,left,fairness.virtue,,,,,,,0,239,239,239,,,,,,,,,,,,,,,,,,,,,AMP,right,0.5337244201218709,,,right,0,0.5337244201218709,0,,,,,,,,,,,,,,,,,,,,,,1025,2019_Mar_06_1503,mf_amp_cond1,3.0.4,59.98545565785454,
actively,bluently,&&&&&&&&,left,authority.virtue,,,,,,,0,240,240,240,,,,,,,,,,,,,,,,,,,,,AMP,right,0.333702482865192,,,right,0,0.333702482865192,0,,,,,,,,,,,,,,,,,,,,,,1025,2019_Mar_06_1503,mf_amp_cond1,3.0.4,59.98545565785454,
coom,supervuned,&&&&&&&&&&,None,nonword,,,,,,,0,241,241,241,,,,,,,,,,,,,,,,,,,,,AMP,left,0.2503119008615613,,,left,0,0.2503119008615613,0,,,,,,,,,,,,,,,,,,,,,,1025,2019_Mar_06_1503,mf_amp_cond1,3.0.4,59.98545565785454,
riot,atson,&&&&&,right,authority.vice,,,,,,,0,242,242,242,,,,,,,,,,,,,,,,,,,,,AMP,left,0.2836347786942497,,,left,0,0.2836347786942497,0,,,,,,,,,,,,,,,,,,,,,,1025,2019_Mar_06_1503,mf_amp_cond1,3.0.4,59.98545565785454,
ban,taxpayung,&&&&&&&&&,right,loyalty.vice,,,,,,,0,243,243,243,,,,,,,,,,,,,,,,,,,,,AMP,left,1.0505199203034863,,,left,0,1.0505199203034863,0,,,,,,,,,,,,,,,,,,,,,,1025,2019_Mar_06_1503,mf_amp_cond1,3.0.4,59.98545565785454,
officers,ejanulated,&&&&&&&&&&,right,authority.vice,,,,,,,0,244,244,244,,,,,,,,,,,,,,,,,,,,,AMP,left,0.13362730585504323,,,left,0,0.13362730585504323,0,,,,,,,,,,,,,,,,,,,,,,1025,2019_Mar_06_1503,mf_amp_cond1,3.0.4,59.98545565785454,
faith,gusinesslike,&&&&&&&&&&&&,left,sanctity.virtue,,,,,,,0,245,245,245,,,,,,,,,,,,,,,,,,,,,AMP,right,0.3670147767988965,,,right,0,0.3670147767988965,0,,,,,,,,,,,,,,,,,,,,,,1025,2019_Mar_06_1503,mf_amp_cond1,3.0.4,59.98545565785454,
ban,bycled,&&&&&&,right,loyalty.vice,,,,,,,0,246,246,246,,,,,,,,,,,,,,,,,,,,,AMP,left,0.016915770480409265,,,left,0,0.016915770480409265,0,,,,,,,,,,,,,,,,,,,,,,1025,2019_Mar_06_1503,mf_amp_cond1,3.0.4,59.98545565785454,
civilians,tislay,&&&&&&,right,care.vice,,,,,,,0,247,247,247,,,,,,,,,,,,,,,,,,,,,AMP,left,0.7004369498463348,,,left,0,0.7004369498463348,0,,,,,,,,,,,,,,,,,,,,,,1025,2019_Mar_06_1503,mf_amp_cond1,3.0.4,59.98545565785454,
accused,rivernoat,&&&&&&&&&,right,fairness.vice,,,,,,,0,248,248,248,,,,,,,,,,,,,,,,,,,,,AMP,left,0.8171183374943212,,,left,0,0.8171183374943212,0,,,,,,,,,,,,,,,,,,,,,,1025,2019_Mar_06_1503,mf_amp_cond1,3.0.4,59.98545565785454,
officers,taxpayung,&&&&&&&&&,right,authority.vice,,,,,,,0,249,249,249,,,,,,,,,,,,,,,,,,,,,AMP,left,0.2503090143436566,,,left,0,0.2503090143436566,0,,,,,,,,,,,,,,,,,,,,,,1025,2019_Mar_06_1503,mf_amp_cond1,3.0.4,59.98545565785454,
imebreaker,neneficence,&&&&&&&&&&&,None,nonword,,,,,,,0,250,250,250,,,,,,,,,,,,,,,,,,,,,AMP,left,0.6671054125763476,,,left,0,0.6671054125763476,0,,,,,,,,,,,,,,,,,,,,,,1025,2019_Mar_06_1503,mf_amp_cond1,3.0.4,59.98545565785454,
love,carvels,&&&&&&&,left,loyalty.virtue,,,,,,,0,251,251,251,,,,,,,,,,,,,,,,,,,,,AMP,right,2.200798722798936,,,right,0,2.200798722798936,0,,,,,,,,,,,,,,,,,,,,,,1025,2019_Mar_06_1503,mf_amp_cond1,3.0.4,59.98545565785454,
loyalty,asn,&&&,left,loyalty.virtue,,,,,,,0,252,252,252,,,,,,,,,,,,,,,,,,,,,AMP,right,0.06691933039110154,,,right,0,0.06691933039110154,0,,,,,,,,,,,,,,,,,,,,,,1025,2019_Mar_06_1503,mf_amp_cond1,3.0.4,59.98545565785454,
promised,metibolic,&&&&&&&&&,left,loyalty.virtue,,,,,,,0,253,253,253,,,,,,,,,,,,,,,,,,,,,AMP,right,0.0002867241855710745,,,right,0,0.0002867241855710745,0,,,,,,,,,,,,,,,,,,,,,,1025,2019_Mar_06_1503,mf_amp_cond1,3.0.4,59.98545565785454,
protect,rorroborated,&&&&&&&&&&&&,left,fairness.virtue,,,,,,,0,254,254,254,,,,,,,,,,,,,,,,,,,,,AMP,right,0.25030965579207987,,,right,0,0.25030965579207987,0,,,,,,,,,,,,,,,,,,,,,,1025,2019_Mar_06_1503,mf_amp_cond1,3.0.4,59.98545565785454,
praised,supervuned,&&&&&&&&&&,left,loyalty.virtue,,,,,,,0,255,255,255,,,,,,,,,,,,,,,,,,,,,AMP,right,0.5670565988402814,,,right,0,0.5670565988402814,0,,,,,,,,,,,,,,,,,,,,,,1025,2019_Mar_06_1503,mf_amp_cond1,3.0.4,59.98545565785454,
death,blunderints,&&&&&&&&&&&,right,care.vice,,,,,,,0,256,256,256,,,,,,,,,,,,,,,,,,,,,AMP,left,0.05027200316544622,,,left,0,0.05027200316544622,0,,,,,,,,,,,,,,,,,,,,,,1025,2019_Mar_06_1503,mf_amp_cond1,3.0.4,59.98545565785454,
pleasant,fornicalion,&&&&&&&&&&&,None,control,,,,,,,0,257,257,257,,,,,,,,,,,,,,,,,,,,,AMP,right,0.10027620464097708,,,right,0,0.10027620464097708,0,,,,,,,,,,,,,,,,,,,,,,1025,2019_Mar_06_1503,mf_amp_cond1,3.0.4,59.98545565785454,
hate,menizen,&&&&&&&,right,fairness.vice,,,,,,,0,258,258,258,,,,,,,,,,,,,,,,,,,,,AMP,left,0.3169294331455603,,,left,0,0.3169294331455603,0,,,,,,,,,,,,,,,,,,,,,,1025,2019_Mar_06_1503,mf_amp_cond1,3.0.4,59.98545565785454,
clean,Cunday,&&&&&&,left,sanctity.virtue,,,,,,,0,259,259,259,,,,,,,,,,,,,,,,,,,,,AMP,left,0.03359067963901907,,,left,1,0.03359067963901907,1,,,,,,,,,,,,,,,,,,,,,,1025,2019_Mar_06_1503,mf_amp_cond1,3.0.4,59.98545565785454,
dignity,sowntrodden,&&&&&&&&&&&,left,sanctity.virtue,,,,,,,0,260,260,260,,,,,,,,,,,,,,,,,,,,,AMP,right,0.4170096773887053,,,right,0,0.4170096773887053,0,,,,,,,,,,,,,,,,,,,,,,1025,2019_Mar_06_1503,mf_amp_cond1,3.0.4,59.98545565785454,
fear,atson,&&&&&,right,sanctity.vice,,,,,,,0,261,261,261,,,,,,,,,,,,,,,,,,,,,AMP,left,2.2007990434067324,,,left,0,2.2007990434067324,0,,,,,,,,,,,,,,,,,,,,,,1025,2019_Mar_06_1503,mf_amp_cond1,3.0.4,59.98545565785454,
voter,infet,&&&&&,right,fairness.vice,,,,,,,0,262,262,262,,,,,,,,,,,,,,,,,,,,,AMP,left,0.1003422731300816,,,left,0,0.1003422731300816,0,,,,,,,,,,,,,,,,,,,,,,1025,2019_Mar_06_1503,mf_amp_cond1,3.0.4,59.98545565785454,
faith,papert,&&&&&&,left,sanctity.virtue,,,,,,,0,263,263,263,,,,,,,,,,,,,,,,,,,,,AMP,right,0.5337362866848707,,,right,0,0.5337362866848707,0,,,,,,,,,,,,,,,,,,,,,,1025,2019_Mar_06_1503,mf_amp_cond1,3.0.4,59.98545565785454,
noped,pumber,&&&&&&,None,nonword,,,,,,,0,264,264,264,,,,,,,,,,,,,,,,,,,,,AMP,left,0.2503022792516276,,,left,0,0.2503022792516276,0,,,,,,,,,,,,,,,,,,,,,,1025,2019_Mar_06_1503,mf_amp_cond1,3.0.4,59.98545565785454,
sexual,gournful,&&&&&&&&,right,sanctity.vice,,,,,,,0,265,265,265,,,,,,,,,,,,,,,,,,,,,AMP,left,0.28365209756884724,,,left,0,0.28365209756884724,0,,,,,,,,,,,,,,,,,,,,,,1025,2019_Mar_06_1503,mf_amp_cond1,3.0.4,59.98545565785454,
celebrated,ebbitter,&&&&&&&&,left,authority.virtue,,,,,,,0,266,266,266,,,,,,,,,,,,,,,,,,,,,AMP,left,0.31699870887678117,,,left,1,0.31699870887678117,1,,,,,,,,,,,,,,,,,,,,,,1025,2019_Mar_06_1503,mf_amp_cond1,3.0.4,59.98545565785454,
suicide,gusinesslike,&&&&&&&&&&&&,right,care.vice,,,,,,,0,267,267,267,,,,,,,,,,,,,,,,,,,,,AMP,left,0.433695170446299,,,left,0,0.433695170446299,0,,,,,,,,,,,,,,,,,,,,,,1025,2019_Mar_06_1503,mf_amp_cond1,3.0.4,59.98545565785454,
party,openet,&&&&&&,left,loyalty.virtue,,,,,,,0,268,268,268,,,,,,,,,,,,,,,,,,,,,AMP,right,0.30032219598069787,,,right,0,0.30032219598069787,0,,,,,,,,,,,,,,,,,,,,,,1025,2019_Mar_06_1503,mf_amp_cond1,3.0.4,59.98545565785454,
godlaness,sonvoy,&&&&&&,None,nonword,,,,,,,0,269,269,269,,,,,,,,,,,,,,,,,,,,,AMP,left,0.717098068096675,,,left,0,0.717098068096675,0,,,,,,,,,,,,,,,,,,,,,,1025,2019_Mar_06_1503,mf_amp_cond1,3.0.4,59.98545565785454,
abuse,yane,&&&&,right,sanctity.vice,,,,,,,0,270,270,270,,,,,,,,,,,,,,,,,,,,,AMP,left,0.11695592466276139,,,left,0,0.11695592466276139,0,,,,,,,,,,,,,,,,,,,,,,1025,2019_Mar_06_1503,mf_amp_cond1,3.0.4,59.98545565785454,
black,hescribe,&&&&&&&&,right,loyalty.vice,,,,,,,0,271,271,271,,,,,,,,,,,,,,,,,,,,,AMP,right,0.23363442590925843,,,right,1,0.23363442590925843,1,,,,,,,,,,,,,,,,,,,,,,1025,2019_Mar_06_1503,mf_amp_cond1,3.0.4,59.98545565785454,
crime,fangsters,&&&&&&&&&,right,fairness.vice,,,,,,,0,272,272,272,,,,,,,,,,,,,,,,,,,,,AMP,left,0.6670650017913431,,,left,0,0.6670650017913431,0,,,,,,,,,,,,,,,,,,,,,,1025,2019_Mar_06_1503,mf_amp_cond1,3.0.4,59.98545565785454,
unpleasant,focomotive,&&&&&&&&&&,None,control,,,,,,,0,273,273,273,,,,,,,,,,,,,,,,,,,,,AMP,left,0.216962403152138,,,left,0,0.216962403152138,0,,,,,,,,,,,,,,,,,,,,,,1025,2019_Mar_06_1503,mf_amp_cond1,3.0.4,59.98545565785454,
injured,gationwide,&&&&&&&&&&,right,care.vice,,,,,,,0,274,274,274,,,,,,,,,,,,,,,,,,,,,AMP,left,0.6337482176022604,,,left,0,0.6337482176022604,0,,,,,,,,,,,,,,,,,,,,,,1025,2019_Mar_06_1503,mf_amp_cond1,3.0.4,59.98545565785454,
progress,clattening,&&&&&&&&&&,left,authority.virtue,,,,,,,0,275,275,275,,,,,,,,,,,,,,,,,,,,,AMP,left,0.5170469451695681,,,left,1,0.5170469451695681,1,,,,,,,,,,,,,,,,,,,,,,1025,2019_Mar_06_1503,mf_amp_cond1,3.0.4,59.98545565785454,
rebels,framo,&&&&&,right,authority.vice,,,,,,,0,276,276,276,,,,,,,,,,,,,,,,,,,,,AMP,left,0.233632180839777,,,left,0,0.233632180839777,0,,,,,,,,,,,,,,,,,,,,,,1025,2019_Mar_06_1503,mf_amp_cond1,3.0.4,59.98545565785454,
iptervention,feleological,&&&&&&&&&&&&,None,nonword,,,,,,,0,277,277,277,,,,,,,,,,,,,,,,,,,,,AMP,left,0.06694883666932583,,,left,0,0.06694883666932583,0,,,,,,,,,,,,,,,,,,,,,,1025,2019_Mar_06_1503,mf_amp_cond1,3.0.4,59.98545565785454,
riot,bruthfulness,&&&&&&&&&&&&,right,authority.vice,,,,,,,0,278,278,278,,,,,,,,,,,,,,,,,,,,,AMP,left,0.21697042125742882,,,left,0,0.21697042125742882,0,,,,,,,,,,,,,,,,,,,,,,1025,2019_Mar_06_1503,mf_amp_cond1,3.0.4,59.98545565785454,
juck,wump,&&&&,None,nonword,,,,,,,0,279,279,279,,,,,,,,,,,,,,,,,,,,,AMP,left,0.21678055461961776,,,left,0,0.21678055461961776,0,,,,,,,,,,,,,,,,,,,,,,1025,2019_Mar_06_1503,mf_amp_cond1,3.0.4,59.98545565785454,
opportunity,idexpressible,&&&&&&&&&&&&&,left,fairness.virtue,,,,,,,0,280,280,280,,,,,,,,,,,,,,,,,,,,,AMP,right,0.6003983991686255,,,right,0,0.6003983991686255,0,,,,,,,,,,,,,,,,,,,,,,1025,2019_Mar_06_1503,mf_amp_cond1,3.0.4,59.98545565785454,
illegal,ronviolence,&&&&&&&&&&&,right,fairness.vice,,,,,,,0,281,281,281,,,,,,,,,,,,,,,,,,,,,AMP,left,0.06693408358842134,,,left,0,0.06693408358842134,0,,,,,,,,,,,,,,,,,,,,,,1025,2019_Mar_06_1503,mf_amp_cond1,3.0.4,59.98545565785454,
scandal,sliptery,&&&&&&&&,right,sanctity.vice,,,,,,,0,282,282,282,,,,,,,,,,,,,,,,,,,,,AMP,left,0.30032476177439094,,,left,0,0.30032476177439094,0,,,,,,,,,,,,,,,,,,,,,,1025,2019_Mar_06_1503,mf_amp_cond1,3.0.4,59.98545565785454,
coom,gazily,&&&&&&,None,nonword,,,,,,,0,283,283,283,,,,,,,,,,,,,,,,,,,,,AMP,left,0.33367073140107095,,,left,0,0.33367073140107095,0,,,,,,,,,,,,,,,,,,,,,,1025,2019_Mar_06_1503,mf_amp_cond1,3.0.4,59.98545565785454,
edancipation,chressing,&&&&&&&&&,None,nonword,,,,,,,0,284,284,284,,,,,,,,,,,,,,,,,,,,,AMP,left,0.5003790918271989,,,left,0,0.5003790918271989,0,,,,,,,,,,,,,,,,,,,,,,1025,2019_Mar_06_1503,mf_amp_cond1,3.0.4,59.98545565785454,
growth,gandbrake,&&&&&&&&&,left,care.virtue,,,,,,,0,285,285,285,,,,,,,,,,,,,,,,,,,,,AMP,right,0.03358971734996885,,,right,0,0.03358971734996885,0,,,,,,,,,,,,,,,,,,,,,,1025,2019_Mar_06_1503,mf_amp_cond1,3.0.4,59.98545565785454,
harassment,gaultless,&&&&&&&&&,right,sanctity.vice,,,,,,,0,286,286,286,,,,,,,,,,,,,,,,,,,,,AMP,left,1.267227029777132,,,left,0,1.267227029777132,0,,,,,,,,,,,,,,,,,,,,,,1025,2019_Mar_06_1503,mf_amp_cond1,3.0.4,59.98545565785454,
rejected,lempestuous,&&&&&&&&&&&,right,authority.vice,,,,,,,0,287,287,287,,,,,,,,,,,,,,,,,,,,,AMP,left,0.06690874660853297,,,left,0,0.06690874660853297,0,,,,,,,,,,,,,,,,,,,,,,1025,2019_Mar_06_1503,mf_amp_cond1,3.0.4,59.98545565785454,
army,pullness,&&&&&&&&,right,loyalty.vice,,,,,,,0,288,288,288,,,,,,,,,,,,,,,,,,,,,AMP,left,0.3170022367266938,,,left,0,0.3170022367266938,0,,,,,,,,,,,,,,,,,,,,,,1025,2019_Mar_06_1503,mf_amp_cond1,3.0.4,59.98545565785454,
ensure,simplustic,&&&&&&&&&&,left,fairness.virtue,,,,,,,0,289,289,289,,,,,,,,,,,,,,,,,,,,,AMP,left,1.5006382340798154,,,left,1,1.5006382340798154,1,,,,,,,,,,,,,,,,,,,,,,1025,2019_Mar_06_1503,mf_amp_cond1,3.0.4,59.98545565785454,
actively,squets,&&&&&&,left,authority.virtue,,,,,,,0,290,290,290,,,,,,,,,,,,,,,,,,,,,AMP,right,0.266971736215055,,,right,0,0.266971736215055,0,,,,,,,,,,,,,,,,,,,,,,1025,2019_Mar_06_1503,mf_amp_cond1,3.0.4,59.98545565785454,
fighters,scalbel,&&&&&&&,right,authority.vice,,,,,,,0,291,291,291,,,,,,,,,,,,,,,,,,,,,AMP,left,0.08360610622912645,,,left,0,0.08360610622912645,0,,,,,,,,,,,,,,,,,,,,,,1025,2019_Mar_06_1503,mf_amp_cond1,3.0.4,59.98545565785454,
free,lachelor,&&&&&&&&,left,fairness.virtue,,,,,,,0,292,292,292,,,,,,,,,,,,,,,,,,,,,AMP,right,0.2169870986836031,,,right,0,0.2169870986836031,0,,,,,,,,,,,,,,,,,,,,,,1025,2019_Mar_06_1503,mf_amp_cond1,3.0.4,59.98545565785454,
praise,allears,&&&&&&&,left,authority.virtue,,,,,,,0,293,293,293,,,,,,,,,,,,,,,,,,,,,AMP,right,0.13360774202737957,,,right,0,0.13360774202737957,0,,,,,,,,,,,,,,,,,,,,,,1025,2019_Mar_06_1503,mf_amp_cond1,3.0.4,59.98545565785454,
war,smapper,&&&&&&&,right,sanctity.vice,,,,,,,0,294,294,294,,,,,,,,,,,,,,,,,,,,,AMP,left,0.03358651022426784,,,left,0,0.03358651022426784,0,,,,,,,,,,,,,,,,,,,,,,1025,2019_Mar_06_1503,mf_amp_cond1,3.0.4,59.98545565785454,
restore,lursuer,&&&&&&&,left,care.virtue,,,,,,,0,295,295,295,,,,,,,,,,,,,,,,,,,,,AMP,right,1.3672604489838704,,,right,0,1.3672604489838704,0,,,,,,,,,,,,,,,,,,,,,,1025,2019_Mar_06_1503,mf_amp_cond1,3.0.4,59.98545565785454,
support,ittutable,&&&&&&&&&,left,loyalty.virtue,,,,,,,0,296,296,296,,,,,,,,,,,,,,,,,,,,,AMP,right,1.0004916647449136,,,right,0,1.0004916647449136,0,,,,,,,,,,,,,,,,,,,,,,1025,2019_Mar_06_1503,mf_amp_cond1,3.0.4,59.98545565785454,
victims,mecan,&&&&&,right,care.vice,,,,,,,0,297,297,297,,,,,,,,,,,,,,,,,,,,,AMP,left,0.10027331812307239,,,left,0,0.10027331812307239,0,,,,,,,,,,,,,,,,,,,,,,1025,2019_Mar_06_1503,mf_amp_cond1,3.0.4,59.98545565785454,
interests,frojecting,&&&&&&&&&&,left,fairness.virtue,,,,,,,0,298,298,298,,,,,,,,,,,,,,,,,,,,,AMP,right,0.9671565995085984,,,right,0,0.9671565995085984,0,,,,,,,,,,,,,,,,,,,,,,1025,2019_Mar_06_1503,mf_amp_cond1,3.0.4,59.98545565785454,
compassion,frocessing,&&&&&&&&&&,left,care.virtue,,,,,,,0,299,299,299,,,,,,,,,,,,,,,,,,,,,AMP,right,0.7504543007817119,,,right,0,0.7504543007817119,0,,,,,,,,,,,,,,,,,,,,,,1025,2019_Mar_06_1503,mf_amp_cond1,3.0.4,59.98545565785454,
promote,faspberry,&&&&&&&&&,left,sanctity.virtue,,,,,,,0,300,300,300,,,,,,,,,,,,,,,,,,,,,AMP,right,0.21697266632691026,,,right,0,0.21697266632691026,0,,,,,,,,,,,,,,,,,,,,,,1025,2019_Mar_06_1503,mf_amp_cond1,3.0.4,59.98545565785454,
trust,chreams,&&&&&&&,left,authority.virtue,,,,,,,0,301,301,301,,,,,,,,,,,,,,,,,,,,,AMP,right,0.48370001337025315,,,right,0,0.48370001337025315,0,,,,,,,,,,,,,,,,,,,,,,1025,2019_Mar_06_1503,mf_amp_cond1,3.0.4,59.98545565785454,
terrorist,Lacedonia,&&&&&&&&&,right,loyalty.vice,,,,,,,0,302,302,302,,,,,,,,,,,,,,,,,,,,,AMP,left,0.5170501524116844,,,left,0,0.5170501524116844,0,,,,,,,,,,,,,,,,,,,,,,1025,2019_Mar_06_1503,mf_amp_cond1,3.0.4,59.98545565785454,
hope,slending,&&&&&&&&,left,loyalty.virtue,,,,,,,0,303,303,303,,,,,,,,,,,,,,,,,,,,,AMP,right,0.41703373147174716,,,right,0,0.41703373147174716,0,,,,,,,,,,,,,,,,,,,,,,1025,2019_Mar_06_1503,mf_amp_cond1,3.0.4,59.98545565785454,
values,epigrach,&&&&&&&&,left,sanctity.virtue,,,,,,,0,304,304,304,,,,,,,,,,,,,,,,,,,,,AMP,right,0.5003890342777595,,,right,0,0.5003890342777595,0,,,,,,,,,,,,,,,,,,,,,,1025,2019_Mar_06_1503,mf_amp_cond1,3.0.4,59.98545565785454,
honored,hasks,&&&&&,left,authority.virtue,,,,,,,0,305,305,305,,,,,,,,,,,,,,,,,,,,,AMP,right,0.4670318393036723,,,right,0,0.4670318393036723,0,,,,,,,,,,,,,,,,,,,,,,1025,2019_Mar_06_1503,mf_amp_cond1,3.0.4,59.98545565785454,
slavery,pharing,&&&&&&&,right,loyalty.vice,,,,,,,0,306,306,306,,,,,,,,,,,,,,,,,,,,,AMP,left,0.5003880721051246,,,left,0,0.5003880721051246,0,,,,,,,,,,,,,,,,,,,,,,1025,2019_Mar_06_1503,mf_amp_cond1,3.0.4,59.98545565785454,
perfect,synchronazers,&&&&&&&&&&&&&,left,sanctity.virtue,,,,,,,0,307,307,307,,,,,,,,,,,,,,,,,,,,,AMP,right,0.4003498420352116,,,right,0,0.4003498420352116,0,,,,,,,,,,,,,,,,,,,,,,1025,2019_Mar_06_1503,mf_amp_cond1,3.0.4,59.98545565785454,
benefit,erdest,&&&&&&,left,fairness.virtue,,,,,,,0,308,308,308,,,,,,,,,,,,,,,,,,,,,AMP,right,0.5670540330465883,,,right,0,0.5670540330465883,0,,,,,,,,,,,,,,,,,,,,,,1025,2019_Mar_06_1503,mf_amp_cond1,3.0.4,59.98545565785454,
care,tomedians,&&&&&&&&&,left,care.virtue,,,,,,,0,309,309,309,,,,,,,,,,,,,,,,,,,,,AMP,right,0.7837653120514005,,,right,0,0.7837653120514005,0,,,,,,,,,,,,,,,,,,,,,,1025,2019_Mar_06_1503,mf_amp_cond1,3.0.4,59.98545565785454,
promises,honstables,&&&&&&&&&&,left,fairness.virtue,,,,,,,0,310,310,310,,,,,,,,,,,,,,,,,,,,,AMP,right,0.4003604258177802,,,right,0,0.4003604258177802,0,,,,,,,,,,,,,,,,,,,,,,1025,2019_Mar_06_1503,mf_amp_cond1,3.0.4,59.98545565785454,
health,ablow,&&&&&,left,care.virtue,,,,,,,0,311,311,311,,,,,,,,,,,,,,,,,,,,,AMP,right,0.5670556366676465,,,right,0,0.5670556366676465,0,,,,,,,,,,,,,,,,,,,,,,1025,2019_Mar_06_1503,mf_amp_cond1,3.0.4,59.98545565785454,
killed,ejanulated,&&&&&&&&&&,right,care.vice,,,,,,,0,312,312,312,,,,,,,,,,,,,,,,,,,,,AMP,left,0.5337099877651781,,,left,0,0.5337099877651781,0,,,,,,,,,,,,,,,,,,,,,,1025,2019_Mar_06_1503,mf_amp_cond1,3.0.4,59.98545565785454,
powerful,gikely,&&&&&&,left,authority.virtue,,,,,,,0,313,313,313,,,,,,,,,,,,,,,,,,,,,AMP,left,1.6339865131303668,,,left,1,1.6339865131303668,1,,,,,,,,,,,,,,,,,,,,,,1025,2019_Mar_06_1503,mf_amp_cond1,3.0.4,59.98545565785454,
men,oam,&&&,right,loyalty.vice,,,,,,,0,314,314,314,,,,,,,,,,,,,,,,,,,,,AMP,left,0.4337137722177431,,,left,0,0.4337137722177431,0,,,,,,,,,,,,,,,,,,,,,,1025,2019_Mar_06_1503,mf_amp_cond1,3.0.4,59.98545565785454,
improve,sfumatoy,&&&&&&&&,left,care.virtue,,,,,,,0,315,315,315,,,,,,,,,,,,,,,,,,,,,AMP,right,0.5670626926003024,,,right,0,0.5670626926003024,0,,,,,,,,,,,,,,,,,,,,,,1025,2019_Mar_06_1503,mf_amp_cond1,3.0.4,59.98545565785454,
crilfully,neutralust,&&&&&&&&&&,None,nonword,,,,,,,0,316,316,316,,,,,,,,,,,,,,,,,,,,,AMP,left,0.9671588446944952,,,left,0,0.9671588446944952,0,,,,,,,,,,,,,,,,,,,,,,1025,2019_Mar_06_1503,mf_amp_cond1,3.0.4,59.98545565785454,
cromiscuity,gondensed,&&&&&&&&&,None,nonword,,,,,,,0,317,317,317,,,,,,,,,,,,,,,,,,,,,AMP,left,0.38365761400200427,,,left,0,0.38365761400200427,0,,,,,,,,,,,,,,,,,,,,,,1025,2019_Mar_06_1503,mf_amp_cond1,3.0.4,59.98545565785454,
gun,vurtain,&&&&&&&,right,authority.vice,,,,,,,0,318,318,318,,,,,,,,,,,,,,,,,,,,,AMP,left,0.4670260662678629,,,left,0,0.4670260662678629,0,,,,,,,,,,,,,,,,,,,,,,1025,2019_Mar_06_1503,mf_amp_cond1,3.0.4,59.98545565785454,
commitment,Oregoniuns,&&&&&&&&&&,left,sanctity.virtue,,,,,,,0,319,319,319,,,,,,,,,,,,,,,,,,,,,AMP,right,0.40014393941964954,,,right,0,0.40014393941964954,0,,,,,,,,,,,,,,,,,,,,,,1025,2019_Mar_06_1503,mf_amp_cond1,3.0.4,59.98545565785454,
safety,tracious,&&&&&&&&,left,care.virtue,,,,,,,0,320,320,320,,,,,,,,,,,,,,,,,,,,,AMP,right,0.35032960458192974,,,right,0,0.35032960458192974,0,,,,,,,,,,,,,,,,,,,,,,1025,2019_Mar_06_1503,mf_amp_cond1,3.0.4,59.98545565785454,
attacks,viscs,&&&&&,right,care.vice,,,,,,,0,321,321,321,,,,,,,,,,,,,,,,,,,,,AMP,left,0.3003186681307852,,,left,0,0.3003186681307852,0,,,,,,,,,,,,,,,,,,,,,,1025,2019_Mar_06_1503,mf_amp_cond1,3.0.4,59.98545565785454,
conspiracy,nuckheap,&&&&&&&&,right,sanctity.vice,,,,,,,0,322,322,322,,,,,,,,,,,,,,,,,,,,,AMP,left,1.0005009656306356,,,left,0,1.0005009656306356,0,,,,,,,,,,,,,,,,,,,,,,1025,2019_Mar_06_1503,mf_amp_cond1,3.0.4,59.98545565785454,
terrorists,tove,&&&&,right,fairness.vice,,,,,,,0,323,323,323,,,,,,,,,,,,,,,,,,,,,AMP,left,0.1336189671419561,,,left,0,0.1336189671419561,0,,,,,,,,,,,,,,,,,,,,,,1025,2019_Mar_06_1503,mf_amp_cond1,3.0.4,59.98545565785454,
divility,bluently,&&&&&&&&,None,nonword,,,,,,,0,324,324,324,,,,,,,,,,,,,,,,,,,,,AMP,left,0.8838102770969272,,,left,0,0.8838102770969272,0,,,,,,,,,,,,,,,,,,,,,,1025,2019_Mar_06_1503,mf_amp_cond1,3.0.4,59.98545565785454,
arrests,festate,&&&&&&&,right,authority.vice,,,,,,,0,325,325,325,,,,,,,,,,,,,,,,,,,,,AMP,left,0.6337344266939908,,,left,0,0.6337344266939908,0,,,,,,,,,,,,,,,,,,,,,,1025,2019_Mar_06_1503,mf_amp_cond1,3.0.4,59.98545565785454,
threatened,sgrawl,&&&&&&,right,fairness.vice,,,,,,,0,326,326,326,,,,,,,,,,,,,,,,,,,,,AMP,left,1.8840549868764356,,,left,0,1.8840549868764356,0,,,,,,,,,,,,,,,,,,,,,,1025,2019_Mar_06_1503,mf_amp_cond1,3.0.4,59.98545565785454,
blamed,galamitous,&&&&&&&&&&,right,loyalty.vice,,,,,,,0,327,327,327,,,,,,,,,,,,,,,,,,,,,AMP,left,0.4170343729201704,,,left,0,0.4170343729201704,0,,,,,,,,,,,,,,,,,,,,,,1025,2019_Mar_06_1503,mf_amp_cond1,3.0.4,59.98545565785454,
,,,,,,,,,,,,,,,,,,,,,,,,,,,,,,,,,,,,,,,,,,,,3,16.823,,,,,,,,,,,,,,,,,,,,1025,2019_Mar_06_1503,mf_amp_cond1,3.0.4,59.98545565785454,
,,,,,,,,,,,,,,,,,,,,,,,,,,,,,,,,,,,,,,,,,,,,,,6,6.504,,,,,,,,,,,,,,,,,,1025,2019_Mar_06_1503,mf_amp_cond1,3.0.4,59.98545565785454,
,,,,,,,,,,,,,,,,,,,,,,,,,,,,,,,,,,,,,,,,,,,,,,,,4,3.47,,,,,,,,,,,,,,,,1025,2019_Mar_06_1503,mf_amp_cond1,3.0.4,59.98545565785454,
,,,,,,,,,,,,,,,,,,,,,,,,,,,,,,,,,,,,,,,,,,,,,,,,,,right,1.4674144589807838,,,,,,,,,,,,,,1025,2019_Mar_06_1503,mf_amp_cond1,3.0.4,59.98545565785454,
bisebell,,&&&&&&&,,,,,,,,,,,,,0,0,0,1,,,,,,,,,,,,,,,,,LDT_prac,left,2.9509656579466537,,,,,,0,,,,,,,,,left,2.9509656579466537,,,,,,,,,,,,1025,2019_Mar_06_1503,mf_amp_cond1,3.0.4,59.98545565785454,
keyboard,,&&&&&&&,,,,,,,,,,,,,0,1,1,0,,,,,,,,,,,,,,,,,LDT_prac,left,1.0338337857974693,,,,,,0,,,,,,,,,left,1.0338337857974693,,,,,,,,,,,,1025,2019_Mar_06_1503,mf_amp_cond1,3.0.4,59.98545565785454,
,,,,,,,,,,,,,,,,,,,,,,,,,,,,,,,,,,,,,,,,,,,,,,,,,,,,,,right,1.66734595305752,,,,,,,,,,1025,2019_Mar_06_1503,mf_amp_cond1,3.0.4,59.98545565785454,
towards,,&&&&&&&,left,neutral,,,,,,,,,,,,,,,0,0,0,146,,,,,,,,,,,,,LDT,right,0.6837578712729737,,,,,,0,,,,,,,,,,,,,right,0,0.6837578712729737,,,,,,,1025,2019_Mar_06_1503,mf_amp_cond1,3.0.4,59.98545565785454,
tenuflect,,&&&&&&&&&,right,nonword,,,,,,,,,,,,,,,0,1,1,91,,,,,,,,,,,,,LDT,left,0.9171475874027237,,,,,,0,,,,,,,,,,,,,left,0,0.9171475874027237,,,,,,,1025,2019_Mar_06_1503,mf_amp_cond1,3.0.4,59.98545565785454,
unreflectuve,,&&&&&&&&&&&&,right,nonword,,,,,,,,,,,,,,,0,2,2,194,,,,,,,,,,,,,LDT,right,2.0674610276473686,,,,,,1,,,,,,,,,,,,,right,1,2.0674610276473686,,,,,,,1025,2019_Mar_06_1503,mf_amp_cond1,3.0.4,59.98545565785454,
were,,&&&&,left,neutral,,,,,,,,,,,,,,,0,3,3,158,,,,,,,,,,,,,LDT,right,0.46707770228385925,,,,,,0,,,,,,,,,,,,,right,0,0.46707770228385925,,,,,,,1025,2019_Mar_06_1503,mf_amp_cond1,3.0.4,59.98545565785454,
ilportation,,&&&&&&&&&&&,right,nonword,,,,,,,,,,,,,,,0,4,4,4,,,,,,,,,,,,,LDT,right,0.6837594748940319,,,,,,1,,,,,,,,,,,,,right,1,0.6837594748940319,,,,,,,1025,2019_Mar_06_1503,mf_amp_cond1,3.0.4,59.98545565785454,
thabbily,,&&&&&&&&,right,nonword,,,,,,,,,,,,,,,0,5,5,82,,,,,,,,,,,,,LDT,left,0.9338180064223707,,,,,,0,,,,,,,,,,,,,left,0,0.9338180064223707,,,,,,,1025,2019_Mar_06_1503,mf_amp_cond1,3.0.4,59.98545565785454,
freedom,,&&&&&&&,left,sanctity.virtue,,,,,,,,,,,,,,,0,6,6,188,,,,,,,,,,,,,LDT,right,0.583742733229883,,,,,,0,,,,,,,,,,,,,right,0,0.583742733229883,,,,,,,1025,2019_Mar_06_1503,mf_amp_cond1,3.0.4,59.98545565785454,
reprisols,,&&&&&&&&&,right,nonword,,,,,,,,,,,,,,,0,7,7,39,,,,,,,,,,,,,LDT,right,0.983904953696765,,,,,,1,,,,,,,,,,,,,right,1,0.983904953696765,,,,,,,1025,2019_Mar_06_1503,mf_amp_cond1,3.0.4,59.98545565785454,
torture,,&&&&&&&,left,care.vice,,,,,,,,,,,,,,,0,8,8,88,,,,,,,,,,,,,LDT,right,0.7170736931730062,,,,,,0,,,,,,,,,,,,,right,0,0.7170736931730062,,,,,,,1025,2019_Mar_06_1503,mf_amp_cond1,3.0.4,59.98545565785454,
friends,,&&&&&&&,left,loyalty.virtue,,,,,,,,,,,,,,,0,9,9,130,,,,,,,,,,,,,LDT,right,0.583749468321912,,,,,,0,,,,,,,,,,,,,right,0,0.583749468321912,,,,,,,1025,2019_Mar_06_1503,mf_amp_cond1,3.0.4,59.98545565785454,
embrace,,&&&&&&&,left,authority.virtue,,,,,,,,,,,,,,,0,10,10,179,,,,,,,,,,,,,LDT,right,0.41704239102546126,,,,,,0,,,,,,,,,,,,,right,0,0.41704239102546126,,,,,,,1025,2019_Mar_06_1503,mf_amp_cond1,3.0.4,59.98545565785454,
wherever,,&&&&&&&&,left,neutral,,,,,,,,,,,,,,,0,11,11,124,,,,,,,,,,,,,LDT,right,0.45038226689212024,,,,,,0,,,,,,,,,,,,,right,0,0.45038226689212024,,,,,,,1025,2019_Mar_06_1503,mf_amp_cond1,3.0.4,59.98545565785454,
failure,,&&&&&&&,left,loyalty.vice,,,,,,,,,,,,,,,0,12,12,78,,,,,,,,,,,,,LDT,right,0.4670331220841035,,,,,,0,,,,,,,,,,,,,right,0,0.4670331220841035,,,,,,,1025,2019_Mar_06_1503,mf_amp_cond1,3.0.4,59.98545565785454,
three,,&&&&&,left,neutral,,,,,,,,,,,,,,,0,13,13,164,,,,,,,,,,,,,LDT,right,1.2672344064339995,,,,,,0,,,,,,,,,,,,,right,0,1.2672344064339995,,,,,,,1025,2019_Mar_06_1503,mf_amp_cond1,3.0.4,59.98545565785454,
fostet,,&&&&&&,right,nonword,,,,,,,,,,,,,,,0,14,14,77,,,,,,,,,,,,,LDT,right,0.6171271895291284,,,,,,1,,,,,,,,,,,,,right,1,0.6171271895291284,,,,,,,1025,2019_Mar_06_1503,mf_amp_cond1,3.0.4,59.98545565785454,
critics,,&&&&&&&,left,loyalty.vice,,,,,,,,,,,,,,,0,15,15,32,,,,,,,,,,,,,LDT,right,0.5837331116199493,,,,,,0,,,,,,,,,,,,,right,0,0.5837331116199493,,,,,,,1025,2019_Mar_06_1503,mf_amp_cond1,3.0.4,59.98545565785454,
stindig,,&&&&&&&,right,nonword,,,,,,,,,,,,,,,0,16,16,183,,,,,,,,,,,,,LDT,right,0.583759090048261,,,,,,1,,,,,,,,,,,,,right,1,0.583759090048261,,,,,,,1025,2019_Mar_06_1503,mf_amp_cond1,3.0.4,59.98545565785454,
intelligence,,&&&&&&&&&&&&,left,loyalty.virtue,,,,,,,,,,,,,,,0,17,17,189,,,,,,,,,,,,,LDT,right,0.6337568770395592,,,,,,0,,,,,,,,,,,,,right,0,0.6337568770395592,,,,,,,1025,2019_Mar_06_1503,mf_amp_cond1,3.0.4,59.98545565785454,
ecgagement,,&&&&&&&&&&,None,nonword,,,,,,,,,,,,,,,0,18,18,71,,,,,,,,,,,,,LDT,right,0.583755562081933,,,,,,0,,,,,,,,,,,,,right,0,0.583755562081933,,,,,,,1025,2019_Mar_06_1503,mf_amp_cond1,3.0.4,59.98545565785454,
Phintoism,,&&&&&&&&&,right,nonword,,,,,,,,,,,,,,,0,19,19,184,,,,,,,,,,,,,LDT,left,0.6837588334456086,,,,,,0,,,,,,,,,,,,,left,0,0.6837588334456086,,,,,,,1025,2019_Mar_06_1503,mf_amp_cond1,3.0.4,59.98545565785454,
police,,&&&&&&,left,authority.vice,,,,,,,,,,,,,,,0,20,20,35,,,,,,,,,,,,,LDT,right,0.8004963472485542,,,,,,0,,,,,,,,,,,,,right,0,0.8004963472485542,,,,,,,1025,2019_Mar_06_1503,mf_amp_cond1,3.0.4,59.98545565785454,
either,,&&&&&&,left,neutral,,,,,,,,,,,,,,,0,21,21,109,,,,,,,,,,,,,LDT,right,0.6170736291678622,,,,,,0,,,,,,,,,,,,,right,0,0.6170736291678622,,,,,,,1025,2019_Mar_06_1503,mf_amp_cond1,3.0.4,59.98545565785454,
touls,,&&&&&,right,nonword,,,,,,,,,,,,,,,0,22,22,106,,,,,,,,,,,,,LDT,left,0.6670739818364382,,,,,,0,,,,,,,,,,,,,left,0,0.6670739818364382,,,,,,,1025,2019_Mar_06_1503,mf_amp_cond1,3.0.4,59.98545565785454,
drumbled,,&&&&&&&&,right,nonword,,,,,,,,,,,,,,,0,23,23,177,,,,,,,,,,,,,LDT,left,0.6004089830676094,,,,,,0,,,,,,,,,,,,,left,0,0.6004089830676094,,,,,,,1025,2019_Mar_06_1503,mf_amp_cond1,3.0.4,59.98545565785454,
disregord,,&&&&&&&&&,right,nonword,,,,,,,,,,,,,,,0,24,24,163,,,,,,,,,,,,,LDT,right,0.9504906706279144,,,,,,1,,,,,,,,,,,,,right,1,0.9504906706279144,,,,,,,1025,2019_Mar_06_1503,mf_amp_cond1,3.0.4,59.98545565785454,
pescinded,,&&&&&&&&&,right,nonword,,,,,,,,,,,,,,,0,25,25,43,,,,,,,,,,,,,LDT,left,0.9671710320981219,,,,,,0,,,,,,,,,,,,,left,0,0.9671710320981219,,,,,,,1025,2019_Mar_06_1503,mf_amp_cond1,3.0.4,59.98545565785454,
fifty,,&&&&&,left,neutral,,,,,,,,,,,,,,,0,26,26,190,,,,,,,,,,,,,LDT,right,1.4339466154342517,,,,,,0,,,,,,,,,,,,,right,0,1.4339466154342517,,,,,,,1025,2019_Mar_06_1503,mf_amp_cond1,3.0.4,59.98545565785454,
antral,,&&&&&&,right,nonword,,,,,,,,,,,,,,,0,27,27,25,,,,,,,,,,,,,LDT,left,0.7004372705705464,,,,,,0,,,,,,,,,,,,,left,0,0.7004372705705464,,,,,,,1025,2019_Mar_06_1503,mf_amp_cond1,3.0.4,59.98545565785454,
ability,,&&&&&&&,left,authority.virtue,,,,,,,,,,,,,,,0,28,28,69,,,,,,,,,,,,,LDT,right,0.45036655163858086,,,,,,0,,,,,,,,,,,,,right,0,0.45036655163858086,,,,,,,1025,2019_Mar_06_1503,mf_amp_cond1,3.0.4,59.98545565785454,
chonograph,,&&&&&&&&&&,right,nonword,,,,,,,,,,,,,,,0,29,29,142,,,,,,,,,,,,,LDT,right,0.5837247729068622,,,,,,1,,,,,,,,,,,,,right,1,0.5837247729068622,,,,,,,1025,2019_Mar_06_1503,mf_amp_cond1,3.0.4,59.98545565785454,
safe,,&&&&,left,care.virtue,,,,,,,,,,,,,,,0,30,30,92,,,,,,,,,,,,,LDT,right,0.5170370028354228,,,,,,0,,,,,,,,,,,,,right,0,0.5170370028354228,,,,,,,1025,2019_Mar_06_1503,mf_amp_cond1,3.0.4,59.98545565785454,
mightingale,,&&&&&&&&&&&,right,nonword,,,,,,,,,,,,,,,0,31,31,159,,,,,,,,,,,,,LDT,left,0.6670877729775384,,,,,,0,,,,,,,,,,,,,left,0,0.6670877729775384,,,,,,,1025,2019_Mar_06_1503,mf_amp_cond1,3.0.4,59.98545565785454,
charges,,&&&&&&&,left,fairness.vice,,,,,,,,,,,,,,,0,32,32,127,,,,,,,,,,,,,LDT,right,1.6006591451587155,,,,,,0,,,,,,,,,,,,,right,0,1.6006591451587155,,,,,,,1025,2019_Mar_06_1503,mf_amp_cond1,3.0.4,59.98545565785454,
sharing,,&&&&&&&,left,loyalty.virtue,,,,,,,,,,,,,,,0,33,33,141,,,,,,,,,,,,,LDT,right,0.4503691174322739,,,,,,0,,,,,,,,,,,,,right,0,0.4503691174322739,,,,,,,1025,2019_Mar_06_1503,mf_amp_cond1,3.0.4,59.98545565785454,
could,,&&&&&,left,neutral,,,,,,,,,,,,,,,0,34,34,133,,,,,,,,,,,,,LDT,right,0.5670713520376012,,,,,,0,,,,,,,,,,,,,right,0,0.5670713520376012,,,,,,,1025,2019_Mar_06_1503,mf_amp_cond1,3.0.4,59.98545565785454,
neputized,,&&&&&&&&&,right,nonword,,,,,,,,,,,,,,,0,35,35,168,,,,,,,,,,,,,LDT,left,0.6004102659644559,,,,,,0,,,,,,,,,,,,,left,0,0.6004102659644559,,,,,,,1025,2019_Mar_06_1503,mf_amp_cond1,3.0.4,59.98545565785454,
encourage,,&&&&&&&&&,left,authority.virtue,,,,,,,,,,,,,,,0,36,36,1,,,,,,,,,,,,,LDT,right,0.4170282791601494,,,,,,0,,,,,,,,,,,,,right,0,0.4170282791601494,,,,,,,1025,2019_Mar_06_1503,mf_amp_cond1,3.0.4,59.98545565785454,
chadows,,&&&&&&&,right,nonword,,,,,,,,,,,,,,,0,37,37,50,,,,,,,,,,,,,LDT,left,0.7504376233555377,,,,,,0,,,,,,,,,,,,,left,0,0.7504376233555377,,,,,,,1025,2019_Mar_06_1503,mf_amp_cond1,3.0.4,59.98545565785454,
besides,,&&&&&&&,left,neutral,,,,,,,,,,,,,,,0,38,38,61,,,,,,,,,,,,,LDT,right,0.3670144561911002,,,,,,0,,,,,,,,,,,,,right,0,0.3670144561911002,,,,,,,1025,2019_Mar_06_1503,mf_amp_cond1,3.0.4,59.98545565785454,
win,,&&&,left,fairness.virtue,,,,,,,,,,,,,,,0,39,39,19,,,,,,,,,,,,,LDT,right,0.35036199737805873,,,,,,0,,,,,,,,,,,,,right,0,0.35036199737805873,,,,,,,1025,2019_Mar_06_1503,mf_amp_cond1,3.0.4,59.98545565785454,
respect,,&&&&&&&,left,sanctity.virtue,,,,,,,,,,,,,,,0,40,40,134,,,,,,,,,,,,,LDT,right,0.3503360190661624,,,,,,0,,,,,,,,,,,,,right,0,0.3503360190661624,,,,,,,1025,2019_Mar_06_1503,mf_amp_cond1,3.0.4,59.98545565785454,
glacenta,,&&&&&&&&,right,nonword,,,,,,,,,,,,,,,0,41,41,85,,,,,,,,,,,,,LDT,left,0.7004282902926207,,,,,,0,,,,,,,,,,,,,left,0,0.7004282902926207,,,,,,,1025,2019_Mar_06_1503,mf_amp_cond1,3.0.4,59.98545565785454,
pafer,,&&&&&,right,nonword,,,,,,,,,,,,,,,0,42,42,57,,,,,,,,,,,,,LDT,right,0.6837572298245504,,,,,,1,,,,,,,,,,,,,right,1,0.6837572298245504,,,,,,,1025,2019_Mar_06_1503,mf_amp_cond1,3.0.4,59.98545565785454,
crinking,,&&&&&&&&,right,nonword,,,,,,,,,,,,,,,0,43,43,181,,,,,,,,,,,,,LDT,right,0.7171035202918574,,,,,,1,,,,,,,,,,,,,right,1,0.7171035202918574,,,,,,,1025,2019_Mar_06_1503,mf_amp_cond1,3.0.4,59.98545565785454,
agreement,,&&&&&&&&&,left,fairness.virtue,,,,,,,,,,,,,,,0,44,44,8,,,,,,,,,,,,,LDT,right,0.41702667565550655,,,,,,0,,,,,,,,,,,,,right,0,0.41702667565550655,,,,,,,1025,2019_Mar_06_1503,mf_amp_cond1,3.0.4,59.98545565785454,
unscothed,,&&&&&&&&&,right,nonword,,,,,,,,,,,,,,,0,45,45,161,,,,,,,,,,,,,LDT,right,0.5670620511518791,,,,,,1,,,,,,,,,,,,,right,1,0.5670620511518791,,,,,,,1025,2019_Mar_06_1503,mf_amp_cond1,3.0.4,59.98545565785454,
credit,,&&&&&&,left,fairness.virtue,,,,,,,,,,,,,,,0,46,46,74,,,,,,,,,,,,,LDT,right,0.3336858053226024,,,,,,0,,,,,,,,,,,,,right,0,0.3336858053226024,,,,,,,1025,2019_Mar_06_1503,mf_amp_cond1,3.0.4,59.98545565785454,
refused,,&&&&&&&,left,authority.vice,,,,,,,,,,,,,,,0,47,47,114,,,,,,,,,,,,,LDT,right,0.3670118903974071,,,,,,0,,,,,,,,,,,,,right,0,0.3670118903974071,,,,,,,1025,2019_Mar_06_1503,mf_amp_cond1,3.0.4,59.98545565785454,
protesters,,&&&&&&&&&&,left,authority.vice,,,,,,,,,,,,,,,0,48,48,75,,,,,,,,,,,,,LDT,right,0.8504117091652006,,,,,,0,,,,,,,,,,,,,right,0,0.8504117091652006,,,,,,,1025,2019_Mar_06_1503,mf_amp_cond1,3.0.4,59.98545565785454,
integrity,,&&&&&&&&&,left,fairness.virtue,,,,,,,,,,,,,,,0,49,49,115,,,,,,,,,,,,,LDT,right,0.4003546528983861,,,,,,0,,,,,,,,,,,,,right,0,0.4003546528983861,,,,,,,1025,2019_Mar_06_1503,mf_amp_cond1,3.0.4,59.98545565785454,
proached,,&&&&&&&&,right,nonword,,,,,,,,,,,,,,,0,50,50,26,,,,,,,,,,,,,LDT,left,0.6670973945874721,,,,,,0,,,,,,,,,,,,,left,0,0.6670973945874721,,,,,,,1025,2019_Mar_06_1503,mf_amp_cond1,3.0.4,59.98545565785454,
thru,,&&&&,left,neutral,,,,,,,,,,,,,,,0,51,51,59,,,,,,,,,,,,,LDT,right,1.3506221019197255,,,,,,0,,,,,,,,,,,,,right,0,1.3506221019197255,,,,,,,1025,2019_Mar_06_1503,mf_amp_cond1,3.0.4,59.98545565785454,
hand,,&&&&,left,sanctity.virtue,,,,,,,,,,,,,,,0,52,52,103,,,,,,,,,,,,,LDT,right,0.4670324807520956,,,,,,0,,,,,,,,,,,,,right,0,0.4670324807520956,,,,,,,1025,2019_Mar_06_1503,mf_amp_cond1,3.0.4,59.98545565785454,
strong,,&&&&&&,left,loyalty.virtue,,,,,,,,,,,,,,,0,53,53,138,,,,,,,,,,,,,LDT,right,0.4001997448503971,,,,,,0,,,,,,,,,,,,,right,0,0.4001997448503971,,,,,,,1025,2019_Mar_06_1503,mf_amp_cond1,3.0.4,59.98545565785454,
nomaric,,&&&&&&&,None,nonword,,,,,,,,,,,,,,,0,54,54,96,,,,,,,,,,,,,LDT,left,1.4006221338640898,,,,,,0,,,,,,,,,,,,,left,0,1.4006221338640898,,,,,,,1025,2019_Mar_06_1503,mf_amp_cond1,3.0.4,59.98545565785454,
even,,&&&&,left,neutral,,,,,,,,,,,,,,,0,55,55,197,,,,,,,,,,,,,LDT,right,0.4503639858448878,,,,,,0,,,,,,,,,,,,,right,0,0.4503639858448878,,,,,,,1025,2019_Mar_06_1503,mf_amp_cond1,3.0.4,59.98545565785454,
fraud,,&&&&&,left,fairness.vice,,,,,,,,,,,,,,,0,56,56,129,,,,,,,,,,,,,LDT,right,0.56704441155307,,,,,,0,,,,,,,,,,,,,right,0,0.56704441155307,,,,,,,1025,2019_Mar_06_1503,mf_amp_cond1,3.0.4,59.98545565785454,
ning,,&&&&,right,nonword,,,,,,,,,,,,,,,0,57,57,29,,,,,,,,,,,,,LDT,left,1.0504872066667303,,,,,,0,,,,,,,,,,,,,left,0,1.0504872066667303,,,,,,,1025,2019_Mar_06_1503,mf_amp_cond1,3.0.4,59.98545565785454,
gowlands,,&&&&&&&&,right,nonword,,,,,,,,,,,,,,,0,58,58,52,,,,,,,,,,,,,LDT,right,0.9004980149911717,,,,,,1,,,,,,,,,,,,,right,1,0.9004980149911717,,,,,,,1025,2019_Mar_06_1503,mf_amp_cond1,3.0.4,59.98545565785454,
also,,&&&&,left,neutral,,,,,,,,,,,,,,,0,59,59,165,,,,,,,,,,,,,LDT,left,1.4005993627943099,,,,,,1,,,,,,,,,,,,,left,1,1.4005993627943099,,,,,,,1025,2019_Mar_06_1503,mf_amp_cond1,3.0.4,59.98545565785454,
reelectiob,,&&&&&&&&&&,right,nonword,,,,,,,,,,,,,,,0,60,60,193,,,,,,,,,,,,,LDT,right,0.40028184931725264,,,,,,1,,,,,,,,,,,,,right,1,0.40028184931725264,,,,,,,1025,2019_Mar_06_1503,mf_amp_cond1,3.0.4,59.98545565785454,
become,,&&&&&&,left,neutral,,,,,,,,,,,,,,,0,61,61,131,,,,,,,,,,,,,LDT,right,1.1838829524349421,,,,,,0,,,,,,,,,,,,,right,0,1.1838829524349421,,,,,,,1025,2019_Mar_06_1503,mf_amp_cond1,3.0.4,59.98545565785454,
forty,,&&&&&,left,neutral,,,,,,,,,,,,,,,0,62,62,182,,,,,,,,,,,,,LDT,right,0.6171993516618386,,,,,,0,,,,,,,,,,,,,right,0,0.6171993516618386,,,,,,,1025,2019_Mar_06_1503,mf_amp_cond1,3.0.4,59.98545565785454,
emassion,,&&&&&&&&,right,nonword,,,,,,,,,,,,,,,0,63,63,90,,,,,,,,,,,,,LDT,left,1.3005916012916714,,,,,,0,,,,,,,,,,,,,left,0,1.3005916012916714,,,,,,,1025,2019_Mar_06_1503,mf_amp_cond1,3.0.4,59.98545565785454,
sidearbs,,&&&&&&&&,right,nonword,,,,,,,,,,,,,,,0,64,64,45,,,,,,,,,,,,,LDT,right,0.8171148096444085,,,,,,1,,,,,,,,,,,,,right,1,0.8171148096444085,,,,,,,1025,2019_Mar_06_1503,mf_amp_cond1,3.0.4,59.98545565785454,
brudent,,&&&&&&&,right,nonword,,,,,,,,,,,,,,,0,65,65,3,,,,,,,,,,,,,LDT,left,1.200551126501523,,,,,,0,,,,,,,,,,,,,left,0,1.200551126501523,,,,,,,1025,2019_Mar_06_1503,mf_amp_cond1,3.0.4,59.98545565785454,
therefore,,&&&&&&&&&,left,neutral,,,,,,,,,,,,,,,0,66,66,143,,,,,,,,,,,,,LDT,right,0.5670752007281408,,,,,,0,,,,,,,,,,,,,right,0,0.5670752007281408,,,,,,,1025,2019_Mar_06_1503,mf_amp_cond1,3.0.4,59.98545565785454,
forced,,&&&&&&,left,fairness.vice,,,,,,,,,,,,,,,0,67,67,149,,,,,,,,,,,,,LDT,right,0.550383613910526,,,,,,0,,,,,,,,,,,,,right,0,0.550383613910526,,,,,,,1025,2019_Mar_06_1503,mf_amp_cond1,3.0.4,59.98545565785454,
give,,&&&&,left,neutral,,,,,,,,,,,,,,,0,68,68,144,,,,,,,,,,,,,LDT,right,0.8504742496879771,,,,,,0,,,,,,,,,,,,,right,0,0.8504742496879771,,,,,,,1025,2019_Mar_06_1503,mf_amp_cond1,3.0.4,59.98545565785454,
less,,&&&&,left,neutral,,,,,,,,,,,,,,,0,69,69,105,,,,,,,,,,,,,LDT,right,0.35033152904361486,,,,,,0,,,,,,,,,,,,,right,0,0.35033152904361486,,,,,,,1025,2019_Mar_06_1503,mf_amp_cond1,3.0.4,59.98545565785454,
prison,,&&&&&&,left,fairness.vice,,,,,,,,,,,,,,,0,70,70,102,,,,,,,,,,,,,LDT,right,0.4003501628758386,,,,,,0,,,,,,,,,,,,,right,0,0.4003501628758386,,,,,,,1025,2019_Mar_06_1503,mf_amp_cond1,3.0.4,59.98545565785454,
esquisiteness,,&&&&&&&&&&&&&,right,nonword,,,,,,,,,,,,,,,0,71,71,132,,,,,,,,,,,,,LDT,right,1.5173012766754255,,,,,,1,,,,,,,,,,,,,right,1,1.5173012766754255,,,,,,,1025,2019_Mar_06_1503,mf_amp_cond1,3.0.4,59.98545565785454,
Daptist,,&&&&&&&,right,nonword,,,,,,,,,,,,,,,0,72,72,160,,,,,,,,,,,,,LDT,left,0.6170784400310367,,,,,,0,,,,,,,,,,,,,left,0,0.6170784400310367,,,,,,,1025,2019_Mar_06_1503,mf_amp_cond1,3.0.4,59.98545565785454,
halaise,,&&&&&&&,None,nonword,,,,,,,,,,,,,,,0,73,73,104,,,,,,,,,,,,,LDT,right,0.7837868003407493,,,,,,0,,,,,,,,,,,,,right,0,0.7837868003407493,,,,,,,1025,2019_Mar_06_1503,mf_amp_cond1,3.0.4,59.98545565785454,
Boeinf,,&&&&&&,right,nonword,,,,,,,,,,,,,,,0,74,74,191,,,,,,,,,,,,,LDT,left,0.6837501740083098,,,,,,0,,,,,,,,,,,,,left,0,0.6837501740083098,,,,,,,1025,2019_Mar_06_1503,mf_amp_cond1,3.0.4,59.98545565785454,
quarterbocks,,&&&&&&&&&&&&,right,nonword,,,,,,,,,,,,,,,0,75,75,195,,,,,,,,,,,,,LDT,right,0.6504167123930529,,,,,,1,,,,,,,,,,,,,right,1,0.6504167123930529,,,,,,,1025,2019_Mar_06_1503,mf_amp_cond1,3.0.4,59.98545565785454,
photocalkodes,,&&&&&&&&&&&&&,right,nonword,,,,,,,,,,,,,,,0,76,76,145,,,,,,,,,,,,,LDT,right,1.1672074017114937,,,,,,1,,,,,,,,,,,,,right,1,1.1672074017114937,,,,,,,1025,2019_Mar_06_1503,mf_amp_cond1,3.0.4,59.98545565785454,
thadowed,,&&&&&&&&,right,nonword,,,,,,,,,,,,,,,0,77,77,156,,,,,,,,,,,,,LDT,right,1.0672018852783367,,,,,,1,,,,,,,,,,,,,right,1,1.0672018852783367,,,,,,,1025,2019_Mar_06_1503,mf_amp_cond1,3.0.4,59.98545565785454,
anything,,&&&&&&&&,left,neutral,,,,,,,,,,,,,,,0,78,78,174,,,,,,,,,,,,,LDT,right,0.6337661779252812,,,,,,0,,,,,,,,,,,,,right,0,0.6337661779252812,,,,,,,1025,2019_Mar_06_1503,mf_amp_cond1,3.0.4,59.98545565785454,
with,,&&&&,left,neutral,,,,,,,,,,,,,,,0,79,79,173,,,,,,,,,,,,,LDT,right,0.7671183055499569,,,,,,0,,,,,,,,,,,,,right,0,0.7671183055499569,,,,,,,1025,2019_Mar_06_1503,mf_amp_cond1,3.0.4,59.98545565785454,
gillipede,,&&&&&&&&&,None,nonword,,,,,,,,,,,,,,,0,80,80,126,,,,,,,,,,,,,LDT,left,0.8504620622843504,,,,,,0,,,,,,,,,,,,,left,0,0.8504620622843504,,,,,,,1025,2019_Mar_06_1503,mf_amp_cond1,3.0.4,59.98545565785454,
sickyay,,&&&&&&&,right,nonword,,,,,,,,,,,,,,,0,81,81,122,,,,,,,,,,,,,LDT,left,0.6004291883436963,,,,,,0,,,,,,,,,,,,,left,0,0.6004291883436963,,,,,,,1025,2019_Mar_06_1503,mf_amp_cond1,3.0.4,59.98545565785454,
anyhow,,&&&&&&,left,neutral,,,,,,,,,,,,,,,0,82,82,31,,,,,,,,,,,,,LDT,right,0.9504897083388641,,,,,,0,,,,,,,,,,,,,right,0,0.9504897083388641,,,,,,,1025,2019_Mar_06_1503,mf_amp_cond1,3.0.4,59.98545565785454,
nomparisons,,&&&&&&&&&&&,right,nonword,,,,,,,,,,,,,,,0,83,83,108,,,,,,,,,,,,,LDT,left,0.9338234587339684,,,,,,0,,,,,,,,,,,,,left,0,0.9338234587339684,,,,,,,1025,2019_Mar_06_1503,mf_amp_cond1,3.0.4,59.98545565785454,
framatic,,&&&&&&&&,right,nonword,,,,,,,,,,,,,,,0,84,84,5,,,,,,,,,,,,,LDT,right,0.550315621192567,,,,,,1,,,,,,,,,,,,,right,1,0.550315621192567,,,,,,,1025,2019_Mar_06_1503,mf_amp_cond1,3.0.4,59.98545565785454,
serial,,&&&&&&,left,sanctity.vice,,,,,,,,,,,,,,,0,85,85,62,,,,,,,,,,,,,LDT,right,0.6170819678809494,,,,,,0,,,,,,,,,,,,,right,0,0.6170819678809494,,,,,,,1025,2019_Mar_06_1503,mf_amp_cond1,3.0.4,59.98545565785454,
victim,,&&&&&&,left,care.vice,,,,,,,,,,,,,,,0,86,86,154,,,,,,,,,,,,,LDT,right,0.5837924450170249,,,,,,0,,,,,,,,,,,,,right,0,0.5837924450170249,,,,,,,1025,2019_Mar_06_1503,mf_amp_cond1,3.0.4,59.98545565785454,
nackers,,&&&&&&&,right,nonword,,,,,,,,,,,,,,,0,87,87,64,,,,,,,,,,,,,LDT,left,0.5170360406627879,,,,,,0,,,,,,,,,,,,,left,0,0.5170360406627879,,,,,,,1025,2019_Mar_06_1503,mf_amp_cond1,3.0.4,59.98545565785454,
myself,,&&&&&&,left,neutral,,,,,,,,,,,,,,,0,88,88,139,,,,,,,,,,,,,LDT,right,0.5003669044235721,,,,,,0,,,,,,,,,,,,,right,0,0.5003669044235721,,,,,,,1025,2019_Mar_06_1503,mf_amp_cond1,3.0.4,59.98545565785454,
mostly,,&&&&&&,left,neutral,,,,,,,,,,,,,,,0,89,89,76,,,,,,,,,,,,,LDT,right,0.43369068030733615,,,,,,0,,,,,,,,,,,,,right,0,0.43369068030733615,,,,,,,1025,2019_Mar_06_1503,mf_amp_cond1,3.0.4,59.98545565785454,
violations,,&&&&&&&&&&,left,sanctity.vice,,,,,,,,,,,,,,,0,90,90,58,,,,,,,,,,,,,LDT,right,0.6337498212233186,,,,,,0,,,,,,,,,,,,,right,0,0.6337498212233186,,,,,,,1025,2019_Mar_06_1503,mf_amp_cond1,3.0.4,59.98545565785454,
dumid,,&&&&&,right,nonword,,,,,,,,,,,,,,,0,91,91,48,,,,,,,,,,,,,LDT,right,0.7504376233555377,,,,,,1,,,,,,,,,,,,,right,1,0.7504376233555377,,,,,,,1025,2019_Mar_06_1503,mf_amp_cond1,3.0.4,59.98545565785454,
ugeasily,,&&&&&&&&,right,nonword,,,,,,,,,,,,,,,0,92,92,150,,,,,,,,,,,,,LDT,left,1.650676175369881,,,,,,0,,,,,,,,,,,,,left,0,1.650676175369881,,,,,,,1025,2019_Mar_06_1503,mf_amp_cond1,3.0.4,59.98545565785454,
reviked,,&&&&&&&,right,nonword,,,,,,,,,,,,,,,0,93,93,38,,,,,,,,,,,,,LDT,right,0.6171028147218749,,,,,,1,,,,,,,,,,,,,right,1,0.6171028147218749,,,,,,,1025,2019_Mar_06_1503,mf_amp_cond1,3.0.4,59.98545565785454,
violence,,&&&&&&&&,left,care.vice,,,,,,,,,,,,,,,0,94,94,87,,,,,,,,,,,,,LDT,right,0.5670700691407546,,,,,,0,,,,,,,,,,,,,right,0,0.5670700691407546,,,,,,,1025,2019_Mar_06_1503,mf_amp_cond1,3.0.4,59.98545565785454,
been,,&&&&,left,neutral,,,,,,,,,,,,,,,0,95,95,49,,,,,,,,,,,,,LDT,right,0.6170781191904098,,,,,,0,,,,,,,,,,,,,right,0,0.6170781191904098,,,,,,,1025,2019_Mar_06_1503,mf_amp_cond1,3.0.4,59.98545565785454,
scock,,&&&&&,right,nonword,,,,,,,,,,,,,,,0,96,96,162,,,,,,,,,,,,,LDT,right,0.5170482280664146,,,,,,1,,,,,,,,,,,,,right,1,0.5170482280664146,,,,,,,1025,2019_Mar_06_1503,mf_amp_cond1,3.0.4,59.98545565785454,
front,,&&&&&,left,neutral,,,,,,,,,,,,,,,0,97,97,100,,,,,,,,,,,,,LDT,right,0.3670199083862826,,,,,,0,,,,,,,,,,,,,right,0,0.3670199083862826,,,,,,,1025,2019_Mar_06_1503,mf_amp_cond1,3.0.4,59.98545565785454,
eight,,&&&&&,left,neutral,,,,,,,,,,,,,,,0,98,98,167,,,,,,,,,,,,,LDT,right,0.517063943319954,,,,,,0,,,,,,,,,,,,,right,0,0.517063943319954,,,,,,,1025,2019_Mar_06_1503,mf_amp_cond1,3.0.4,59.98545565785454,
forepo,,&&&&&&,right,nonword,,,,,,,,,,,,,,,0,99,99,94,,,,,,,,,,,,,LDT,left,0.6170758742373437,,,,,,0,,,,,,,,,,,,,left,0,0.6170758742373437,,,,,,,1025,2019_Mar_06_1503,mf_amp_cond1,3.0.4,59.98545565785454,
died,,&&&&,left,care.vice,,,,,,,,,,,,,,,0,100,100,2,,,,,,,,,,,,,LDT,right,0.7169386699097231,,,,,,0,,,,,,,,,,,,,right,0,0.7169386699097231,,,,,,,1025,2019_Mar_06_1503,mf_amp_cond1,3.0.4,59.98545565785454,
betrayal,,&&&&&&&&,left,loyalty.vice,,,,,,,,,,,,,,,0,101,101,47,,,,,,,,,,,,,LDT,right,0.5837289423216134,,,,,,0,,,,,,,,,,,,,right,0,0.5837289423216134,,,,,,,1025,2019_Mar_06_1503,mf_amp_cond1,3.0.4,59.98545565785454,
fegard,,&&&&&&,right,nonword,,,,,,,,,,,,,,,0,102,102,101,,,,,,,,,,,,,LDT,right,0.5170616982504725,,,,,,1,,,,,,,,,,,,,right,1,0.5170616982504725,,,,,,,1025,2019_Mar_06_1503,mf_amp_cond1,3.0.4,59.98545565785454,
laming,,&&&&&&,right,nonword,,,,,,,,,,,,,,,0,103,103,128,,,,,,,,,,,,,LDT,right,0.5503941978095099,,,,,,1,,,,,,,,,,,,,right,1,0.5503941978095099,,,,,,,1025,2019_Mar_06_1503,mf_amp_cond1,3.0.4,59.98545565785454,
refuejing,,&&&&&&&&&,right,nonword,,,,,,,,,,,,,,,0,104,104,36,,,,,,,,,,,,,LDT,right,0.5670585231855512,,,,,,1,,,,,,,,,,,,,right,1,0.5670585231855512,,,,,,,1025,2019_Mar_06_1503,mf_amp_cond1,3.0.4,59.98545565785454,
baklara,,&&&&&&&,right,nonword,,,,,,,,,,,,,,,0,105,105,171,,,,,,,,,,,,,LDT,left,0.8171475231647491,,,,,,0,,,,,,,,,,,,,left,0,0.8171475231647491,,,,,,,1025,2019_Mar_06_1503,mf_amp_cond1,3.0.4,59.98545565785454,
precificity,,&&&&&&&&&&&,right,nonword,,,,,,,,,,,,,,,0,106,106,28,,,,,,,,,,,,,LDT,left,0.6337347474182025,,,,,,0,,,,,,,,,,,,,left,0,0.6337347474182025,,,,,,,1025,2019_Mar_06_1503,mf_amp_cond1,3.0.4,59.98545565785454,
emports,,&&&&&&&,right,nonword,,,,,,,,,,,,,,,0,107,107,23,,,,,,,,,,,,,LDT,right,0.45035949582234025,,,,,,1,,,,,,,,,,,,,right,1,0.45035949582234025,,,,,,,1025,2019_Mar_06_1503,mf_amp_cond1,3.0.4,59.98545565785454,
