words,mask,corr_ans,category,nonwords,tweets,topic,LDT_prac_loop.thisRepN,LDT_prac_loop.thisTrialN,LDT_prac_loop.thisN,LDT_prac_loop.thisIndex,LDT_loop.thisRepN,LDT_loop.thisTrialN,LDT_loop.thisN,LDT_loop.thisIndex,AMP_pracloop.thisRepN,AMP_pracloop.thisTrialN,AMP_pracloop.thisN,AMP_pracloop.thisIndex,AMP_loop.thisRepN,AMP_loop.thisTrialN,AMP_loop.thisN,AMP_loop.thisIndex,tweet_loop.thisRepN,tweet_loop.thisTrialN,tweet_loop.thisN,tweet_loop.thisIndex,begin_key.keys,begin_key.rt,key_resp_AMP_instr1.keys,key_resp_AMP_instr1.rt,key_resp_LDT_instr.keys,key_resp_LDT_instr.rt,resp_LDT_prac.keys,resp_LDT_prac.rt,task,keypress,RT,corr,resp_LDT_ready.keys,resp_LDT_ready.rt,resp_LDT.keys,resp_LDT.corr,resp_LDT.rt,LDT_rating.response,LDT_rating.rt,resp_AMP_ready1.keys,resp_AMP_ready1.rt,resp_AMP_prac.keys,resp_AMP_prac.rt,resp_AMP_ready.keys,resp_AMP_ready.rt,resp_AMP.keys,resp_AMP.corr,resp_AMP.rt,AMP_nonword_rating.response,AMP_nonword_rating.rt,AMP_word_rating.response,AMP_word_rating.rt,AMP_random_rating.response,AMP_random_rating.rt,key_resp_LDT_instr_2.keys,key_resp_LDT_instr_2.rt,resp_tweets.keys,resp_tweets.rt,participant,date,expName,psychopyVersion,frameRate,
,,,,,,,,,,,,,,,,,,,,,,,,,,,right,194.53251572826412,,,,,,,,,,,,,,,,,,,,,,,,,,,,,,,,,,,,,1026,2019_Mar_06_1503,mf_amp_cond2,3.0.4,59.984224643304984,
,,,,,,,,,,,,,,,,,,,,,,,,,,,,,right,7.252088860492222,,,,,,,,,,,,,,,,,,,,,,,,,,,,,,,,,,,1026,2019_Mar_06_1503,mf_amp_cond2,3.0.4,59.984224643304984,
,,,,,,,,,,,,,,,,,,,,,,,,,,,,,,,right,11.803278289036825,,,,,,,,,,,,,,,,,,,,,,,,,,,,,,,,,1026,2019_Mar_06_1503,mf_amp_cond2,3.0.4,59.984224643304984,
bisebell,&&&&&&&,,,,,,0,0,0,1,,,,,,,,,,,,,,,,,,,,,,,right,1.934081106679514,LDT_prac,right,1.934081106679514,0,,,,,,,,,,,,,,,,,,,,,,,,,,,1026,2019_Mar_06_1503,mf_amp_cond2,3.0.4,59.984224643304984,
keyboard,&&&&&&&,,,,,,0,1,1,0,,,,,,,,,,,,,,,,,,,,,,,right,0.9838385126786307,LDT_prac,right,0.9838385126786307,0,,,,,,,,,,,,,,,,,,,,,,,,,,,1026,2019_Mar_06_1503,mf_amp_cond2,3.0.4,59.984224643304984,
,,,,,,,,,,,,,,,,,,,,,,,,,,,,,,,,,,,,,,,right,5.718364652944729,,,,,,,,,,,,,,,,,,,,,,,,,1026,2019_Mar_06_1503,mf_amp_cond2,3.0.4,59.984224643304984,
were,&&&&,left,neutral,,,,,,,,0,0,0,194,,,,,,,,,,,,,,,,,,,,,LDT,right,1.2505699223838747,0,,,right,0,1.2505699223838747,,,,,,,,,,,,,,,,,,,,,,1026,2019_Mar_06_1503,mf_amp_cond2,3.0.4,59.984224643304984,
gillipede,&&&&&&&&&,None,nonword,,,,,,,,0,1,1,8,,,,,,,,,,,,,,,,,,,,,LDT,left,1.10053663153667,0,,,left,0,1.10053663153667,,,,,,,,,,,,,,,,,,,,,,1026,2019_Mar_06_1503,mf_amp_cond2,3.0.4,59.984224643304984,
gun,&&&,left,authority.vice,,,,,,,,0,2,2,87,,,,,,,,,,,,,,,,,,,,,LDT,right,0.5837519820779562,0,,,right,0,0.5837519820779562,,,,,,,,,,,,,,,,,,,,,,1026,2019_Mar_06_1503,mf_amp_cond2,3.0.4,59.984224643304984,
precificity,&&&&&&&&&&&,right,nonword,,,,,,,,0,3,3,140,,,,,,,,,,,,,,,,,,,,,LDT,right,1.13385191897396,1,,,right,1,1.13385191897396,,,,,,,,,,,,,,,,,,,,,,1026,2019_Mar_06_1503,mf_amp_cond2,3.0.4,59.984224643304984,
pullness,&&&&&&&&,right,nonword,,,,,,,,0,4,4,115,,,,,,,,,,,,,,,,,,,,,LDT,right,0.7671088990755379,1,,,right,1,0.7671088990755379,,,,,,,,,,,,,,,,,,,,,,1026,2019_Mar_06_1503,mf_amp_cond2,3.0.4,59.984224643304984,
synchronazers,&&&&&&&&&&&&&,right,nonword,,,,,,,,0,5,5,193,,,,,,,,,,,,,,,,,,,,,LDT,right,1.1839005403453484,1,,,right,1,1.1839005403453484,,,,,,,,,,,,,,,,,,,,,,1026,2019_Mar_06_1503,mf_amp_cond2,3.0.4,59.984224643304984,
sowntrodden,&&&&&&&&&&&,right,nonword,,,,,,,,0,6,6,93,,,,,,,,,,,,,,,,,,,,,LDT,right,0.8838195260614157,1,,,right,1,0.8838195260614157,,,,,,,,,,,,,,,,,,,,,,1026,2019_Mar_06_1503,mf_amp_cond2,3.0.4,59.984224643304984,
less,&&&&,left,neutral,,,,,,,,0,7,7,14,,,,,,,,,,,,,,,,,,,,,LDT,right,0.6837443489348516,0,,,right,0,0.6837443489348516,,,,,,,,,,,,,,,,,,,,,,1026,2019_Mar_06_1503,mf_amp_cond2,3.0.4,59.984224643304984,
sonvoy,&&&&&&,None,nonword,,,,,,,,0,8,8,137,,,,,,,,,,,,,,,,,,,,,LDT,right,0.7837918797740713,0,,,right,0,0.7837918797740713,,,,,,,,,,,,,,,,,,,,,,1026,2019_Mar_06_1503,mf_amp_cond2,3.0.4,59.984224643304984,
chadows,&&&&&&&,right,nonword,,,,,,,,0,9,9,18,,,,,,,,,,,,,,,,,,,,,LDT,right,0.7502899324754253,1,,,right,1,0.7502899324754253,,,,,,,,,,,,,,,,,,,,,,1026,2019_Mar_06_1503,mf_amp_cond2,3.0.4,59.984224643304984,
civilians,&&&&&&&&&,left,care.vice,,,,,,,,0,10,10,182,,,,,,,,,,,,,,,,,,,,,LDT,right,0.6836077214684337,0,,,right,0,0.6836077214684337,,,,,,,,,,,,,,,,,,,,,,1026,2019_Mar_06_1503,mf_amp_cond2,3.0.4,59.984224643304984,
faith,&&&&&,left,sanctity.virtue,,,,,,,,0,11,11,59,,,,,,,,,,,,,,,,,,,,,LDT,right,0.6171233957866207,0,,,right,0,0.6171233957866207,,,,,,,,,,,,,,,,,,,,,,1026,2019_Mar_06_1503,mf_amp_cond2,3.0.4,59.984224643304984,
ejanulated,&&&&&&&&&&,right,nonword,,,,,,,,0,12,12,35,,,,,,,,,,,,,,,,,,,,,LDT,right,1.3339303033426404,1,,,right,1,1.3339303033426404,,,,,,,,,,,,,,,,,,,,,,1026,2019_Mar_06_1503,mf_amp_cond2,3.0.4,59.984224643304984,
compassion,&&&&&&&&&&,left,care.virtue,,,,,,,,0,13,13,38,,,,,,,,,,,,,,,,,,,,,LDT,right,0.6504165533697233,0,,,right,0,0.6504165533697233,,,,,,,,,,,,,,,,,,,,,,1026,2019_Mar_06_1503,mf_amp_cond2,3.0.4,59.984224643304984,
discovars,&&&&&&&&&,right,nonword,,,,,,,,0,14,14,15,,,,,,,,,,,,,,,,,,,,,LDT,right,2.1174511732533574,1,,,right,1,2.1174511732533574,,,,,,,,,,,,,,,,,,,,,,1026,2019_Mar_06_1503,mf_amp_cond2,3.0.4,59.984224643304984,
terrorists,&&&&&&&&&&,left,fairness.vice,,,,,,,,0,15,15,7,,,,,,,,,,,,,,,,,,,,,LDT,right,0.9338431311771274,0,,,right,0,0.9338431311771274,,,,,,,,,,,,,,,,,,,,,,1026,2019_Mar_06_1503,mf_amp_cond2,3.0.4,59.984224643304984,
promised,&&&&&&&&,left,loyalty.virtue,,,,,,,,0,16,16,159,,,,,,,,,,,,,,,,,,,,,LDT,right,0.8004363740328699,0,,,right,0,0.8004363740328699,,,,,,,,,,,,,,,,,,,,,,1026,2019_Mar_06_1503,mf_amp_cond2,3.0.4,59.984224643304984,
ban,&&&,left,loyalty.vice,,,,,,,,0,17,17,172,,,,,,,,,,,,,,,,,,,,,LDT,right,0.7170862562488765,0,,,right,0,0.7170862562488765,,,,,,,,,,,,,,,,,,,,,,1026,2019_Mar_06_1503,mf_amp_cond2,3.0.4,59.984224643304984,
blamed,&&&&&&,left,loyalty.vice,,,,,,,,0,18,18,110,,,,,,,,,,,,,,,,,,,,,LDT,right,1.0338496097829193,0,,,right,0,1.0338496097829193,,,,,,,,,,,,,,,,,,,,,,1026,2019_Mar_06_1503,mf_amp_cond2,3.0.4,59.984224643304984,
bycled,&&&&&&,None,nonword,,,,,,,,0,19,19,130,,,,,,,,,,,,,,,,,,,,,LDT,right,1.3339145879726857,0,,,right,0,1.3339145879726857,,,,,,,,,,,,,,,,,,,,,,1026,2019_Mar_06_1503,mf_amp_cond2,3.0.4,59.984224643304984,
lursuer,&&&&&&&,right,nonword,,,,,,,,0,20,20,86,,,,,,,,,,,,,,,,,,,,,LDT,left,0.700443365611136,0,,,left,0,0.700443365611136,,,,,,,,,,,,,,,,,,,,,,1026,2019_Mar_06_1503,mf_amp_cond2,3.0.4,59.984224643304984,
harassment,&&&&&&&&&&,left,sanctity.vice,,,,,,,,0,21,21,16,,,,,,,,,,,,,,,,,,,,,LDT,right,0.6836555089103058,0,,,right,0,0.6836555089103058,,,,,,,,,,,,,,,,,,,,,,1026,2019_Mar_06_1503,mf_amp_cond2,3.0.4,59.984224643304984,
army,&&&&,left,loyalty.vice,,,,,,,,0,22,22,88,,,,,,,,,,,,,,,,,,,,,LDT,right,0.5670619454467669,0,,,right,0,0.5670619454467669,,,,,,,,,,,,,,,,,,,,,,1026,2019_Mar_06_1503,mf_amp_cond2,3.0.4,59.984224643304984,
celebrated,&&&&&&&&&&,left,authority.virtue,,,,,,,,0,23,23,126,,,,,,,,,,,,,,,,,,,,,LDT,right,0.6837542912689969,0,,,right,0,0.6837542912689969,,,,,,,,,,,,,,,,,,,,,,1026,2019_Mar_06_1503,mf_amp_cond2,3.0.4,59.984224643304984,
crilfully,&&&&&&&&&,right,nonword,,,,,,,,0,24,24,155,,,,,,,,,,,,,,,,,,,,,LDT,right,0.8171244862023741,1,,,right,1,0.8171244862023741,,,,,,,,,,,,,,,,,,,,,,1026,2019_Mar_06_1503,mf_amp_cond2,3.0.4,59.984224643304984,
vicissifude,&&&&&&&&&&&,right,nonword,,,,,,,,0,25,25,111,,,,,,,,,,,,,,,,,,,,,LDT,left,0.7170464866794646,0,,,left,0,0.7170464866794646,,,,,,,,,,,,,,,,,,,,,,1026,2019_Mar_06_1503,mf_amp_cond2,3.0.4,59.984224643304984,
thadowed,&&&&&&&&,right,nonword,,,,,,,,0,26,26,195,,,,,,,,,,,,,,,,,,,,,LDT,right,2.2341566687682644,1,,,right,1,2.2341566687682644,,,,,,,,,,,,,,,,,,,,,,1026,2019_Mar_06_1503,mf_amp_cond2,3.0.4,59.984224643304984,
actively,&&&&&&&&,left,authority.virtue,,,,,,,,0,27,27,58,,,,,,,,,,,,,,,,,,,,,LDT,right,0.5337116994196549,0,,,right,0,0.5337116994196549,,,,,,,,,,,,,,,,,,,,,,1026,2019_Mar_06_1503,mf_amp_cond2,3.0.4,59.984224643304984,
baladroit,&&&&&&&&&,right,nonword,,,,,,,,0,28,28,157,,,,,,,,,,,,,,,,,,,,,LDT,left,0.7004542702343315,0,,,left,0,0.7004542702343315,,,,,,,,,,,,,,,,,,,,,,1026,2019_Mar_06_1503,mf_amp_cond2,3.0.4,59.984224643304984,
Oregoniuns,&&&&&&&&&&,right,nonword,,,,,,,,0,29,29,185,,,,,,,,,,,,,,,,,,,,,LDT,left,1.017181702889502,0,,,left,0,1.017181702889502,,,,,,,,,,,,,,,,,,,,,,1026,2019_Mar_06_1503,mf_amp_cond2,3.0.4,59.984224643304984,
mightingale,&&&&&&&&&&&,right,nonword,,,,,,,,0,30,30,166,,,,,,,,,,,,,,,,,,,,,LDT,left,0.8505180296488106,0,,,left,0,0.8505180296488106,,,,,,,,,,,,,,,,,,,,,,1026,2019_Mar_06_1503,mf_amp_cond2,3.0.4,59.984224643304984,
festate,&&&&&&&,right,nonword,,,,,,,,0,31,31,187,,,,,,,,,,,,,,,,,,,,,LDT,left,2.7176164090633392,0,,,left,0,2.7176164090633392,,,,,,,,,,,,,,,,,,,,,,1026,2019_Mar_06_1503,mf_amp_cond2,3.0.4,59.984224643304984,
also,&&&&,left,neutral,,,,,,,,0,32,32,160,,,,,,,,,,,,,,,,,,,,,LDT,right,0.5504245072370395,0,,,right,0,0.5504245072370395,,,,,,,,,,,,,,,,,,,,,,1026,2019_Mar_06_1503,mf_amp_cond2,3.0.4,59.984224643304984,
even,&&&&,left,neutral,,,,,,,,0,33,33,170,,,,,,,,,,,,,,,,,,,,,LDT,right,0.5503735125530511,0,,,right,0,0.5503735125530511,,,,,,,,,,,,,,,,,,,,,,1026,2019_Mar_06_1503,mf_amp_cond2,3.0.4,59.984224643304984,
done,&&&&,left,neutral,,,,,,,,0,34,34,27,,,,,,,,,,,,,,,,,,,,,LDT,right,0.41698920587077737,0,,,right,0,0.41698920587077737,,,,,,,,,,,,,,,,,,,,,,1026,2019_Mar_06_1503,mf_amp_cond2,3.0.4,59.984224643304984,
godlaness,&&&&&&&&&,right,nonword,,,,,,,,0,35,35,151,,,,,,,,,,,,,,,,,,,,,LDT,right,2.0174552786629647,1,,,right,1,2.0174552786629647,,,,,,,,,,,,,,,,,,,,,,1026,2019_Mar_06_1503,mf_amp_cond2,3.0.4,59.984224643304984,
each,&&&&,left,neutral,,,,,,,,0,36,36,24,,,,,,,,,,,,,,,,,,,,,LDT,right,0.4337462732801214,0,,,right,0,0.4337462732801214,,,,,,,,,,,,,,,,,,,,,,1026,2019_Mar_06_1503,mf_amp_cond2,3.0.4,59.984224643304984,
hence,&&&&&,left,neutral,,,,,,,,0,37,37,178,,,,,,,,,,,,,,,,,,,,,LDT,right,0.4837044511223212,0,,,right,0,0.4837044511223212,,,,,,,,,,,,,,,,,,,,,,1026,2019_Mar_06_1503,mf_amp_cond2,3.0.4,59.984224643304984,
pafer,&&&&&,right,nonword,,,,,,,,0,38,38,144,,,,,,,,,,,,,,,,,,,,,LDT,right,2.2341922688065097,1,,,right,1,2.2341922688065097,,,,,,,,,,,,,,,,,,,,,,1026,2019_Mar_06_1503,mf_amp_cond2,3.0.4,59.984224643304984,
troubla,&&&&&&&,right,nonword,,,,,,,,0,39,39,192,,,,,,,,,,,,,,,,,,,,,LDT,left,0.5837317765690386,0,,,left,0,0.5837317765690386,,,,,,,,,,,,,,,,,,,,,,1026,2019_Mar_06_1503,mf_amp_cond2,3.0.4,59.984224643304984,
elsewhere,&&&&&&&&&,left,neutral,,,,,,,,0,40,40,9,,,,,,,,,,,,,,,,,,,,,LDT,right,0.7337657089810818,0,,,right,0,0.7337657089810818,,,,,,,,,,,,,,,,,,,,,,1026,2019_Mar_06_1503,mf_amp_cond2,3.0.4,59.984224643304984,
cromiscuity,&&&&&&&&&&&,right,nonword,,,,,,,,0,41,41,72,,,,,,,,,,,,,,,,,,,,,LDT,left,1.4839629527414218,0,,,left,0,1.4839629527414218,,,,,,,,,,,,,,,,,,,,,,1026,2019_Mar_06_1503,mf_amp_cond2,3.0.4,59.984224643304984,
leact,&&&&&,right,nonword,,,,,,,,0,42,42,39,,,,,,,,,,,,,,,,,,,,,LDT,left,0.9171938262879848,0,,,left,0,0.9171938262879848,,,,,,,,,,,,,,,,,,,,,,1026,2019_Mar_06_1503,mf_amp_cond2,3.0.4,59.984224643304984,
amount,&&&&&&,left,neutral,,,,,,,,0,43,43,11,,,,,,,,,,,,,,,,,,,,,LDT,right,0.4670378272421658,0,,,right,0,0.4670378272421658,,,,,,,,,,,,,,,,,,,,,,1026,2019_Mar_06_1503,mf_amp_cond2,3.0.4,59.984224643304984,
integrity,&&&&&&&&&,left,fairness.virtue,,,,,,,,0,44,44,28,,,,,,,,,,,,,,,,,,,,,LDT,right,0.5003710750024766,0,,,right,0,0.5003710750024766,,,,,,,,,,,,,,,,,,,,,,1026,2019_Mar_06_1503,mf_amp_cond2,3.0.4,59.984224643304984,
scock,&&&&&,right,nonword,,,,,,,,0,45,45,104,,,,,,,,,,,,,,,,,,,,,LDT,right,1.11720806628,1,,,right,1,1.11720806628,,,,,,,,,,,,,,,,,,,,,,1026,2019_Mar_06_1503,mf_amp_cond2,3.0.4,59.984224643304984,
Daptist,&&&&&&&,right,nonword,,,,,,,,0,46,46,124,,,,,,,,,,,,,,,,,,,,,LDT,left,0.8171514268033206,0,,,left,0,0.8171514268033206,,,,,,,,,,,,,,,,,,,,,,1026,2019_Mar_06_1503,mf_amp_cond2,3.0.4,59.984224643304984,
therefore,&&&&&&&&&,left,neutral,,,,,,,,0,47,47,163,,,,,,,,,,,,,,,,,,,,,LDT,right,0.7504355401033536,0,,,right,0,0.7504355401033536,,,,,,,,,,,,,,,,,,,,,,1026,2019_Mar_06_1503,mf_amp_cond2,3.0.4,59.984224643304984,
arrests,&&&&&&&,left,authority.vice,,,,,,,,0,48,48,117,,,,,,,,,,,,,,,,,,,,,LDT,right,0.5837452469859272,0,,,right,0,0.5837452469859272,,,,,,,,,,,,,,,,,,,,,,1026,2019_Mar_06_1503,mf_amp_cond2,3.0.4,59.984224643304984,
crinking,&&&&&&&&,right,nonword,,,,,,,,0,49,49,158,,,,,,,,,,,,,,,,,,,,,LDT,left,1.2672349427593872,0,,,left,0,1.2672349427593872,,,,,,,,,,,,,,,,,,,,,,1026,2019_Mar_06_1503,mf_amp_cond2,3.0.4,59.984224643304984,
uller,&&&&&,right,nonword,,,,,,,,0,50,50,148,,,,,,,,,,,,,,,,,,,,,LDT,left,0.7671194828581065,0,,,left,0,0.7671194828581065,,,,,,,,,,,,,,,,,,,,,,1026,2019_Mar_06_1503,mf_amp_cond2,3.0.4,59.984224643304984,
presentkess,&&&&&&&&&&&,right,nonword,,,,,,,,0,51,51,83,,,,,,,,,,,,,,,,,,,,,LDT,right,1.7006637015147135,1,,,right,1,1.7006637015147135,,,,,,,,,,,,,,,,,,,,,,1026,2019_Mar_06_1503,mf_amp_cond2,3.0.4,59.984224643304984,
gandbrake,&&&&&&&&&,right,nonword,,,,,,,,0,52,52,66,,,,,,,,,,,,,,,,,,,,,LDT,left,2.217466632137075,0,,,left,0,2.217466632137075,,,,,,,,,,,,,,,,,,,,,,1026,2019_Mar_06_1503,mf_amp_cond2,3.0.4,59.984224643304984,
gazily,&&&&&&,right,nonword,,,,,,,,0,53,53,34,,,,,,,,,,,,,,,,,,,,,LDT,left,1.900730860652402,0,,,left,0,1.900730860652402,,,,,,,,,,,,,,,,,,,,,,1026,2019_Mar_06_1503,mf_amp_cond2,3.0.4,59.984224643304984,
seem,&&&&,left,neutral,,,,,,,,0,54,54,56,,,,,,,,,,,,,,,,,,,,,LDT,right,0.6003967969445512,0,,,right,0,0.6003967969445512,,,,,,,,,,,,,,,,,,,,,,1026,2019_Mar_06_1503,mf_amp_cond2,3.0.4,59.984224643304984,
prones,&&&&&&,right,nonword,,,,,,,,0,55,55,54,,,,,,,,,,,,,,,,,,,,,LDT,right,0.4836877735797316,1,,,right,1,0.4836877735797316,,,,,,,,,,,,,,,,,,,,,,1026,2019_Mar_06_1503,mf_amp_cond2,3.0.4,59.984224643304984,
else,&&&&,left,neutral,,,,,,,,0,56,56,46,,,,,,,,,,,,,,,,,,,,,LDT,right,0.4336943163070828,0,,,right,0,0.4336943163070828,,,,,,,,,,,,,,,,,,,,,,1026,2019_Mar_06_1503,mf_amp_cond2,3.0.4,59.984224643304984,
abointment,&&&&&&&&&&,right,nonword,,,,,,,,0,57,57,120,,,,,,,,,,,,,,,,,,,,,LDT,right,0.7004218773217872,1,,,right,1,0.7004218773217872,,,,,,,,,,,,,,,,,,,,,,1026,2019_Mar_06_1503,mf_amp_cond2,3.0.4,59.984224643304984,
itself,&&&&&&,left,neutral,,,,,,,,0,58,58,91,,,,,,,,,,,,,,,,,,,,,LDT,right,0.45038339064922184,0,,,right,0,0.45038339064922184,,,,,,,,,,,,,,,,,,,,,,1026,2019_Mar_06_1503,mf_amp_cond2,3.0.4,59.984224643304984,
ebbitter,&&&&&&&&,right,nonword,,,,,,,,0,59,59,113,,,,,,,,,,,,,,,,,,,,,LDT,right,0.8838801424717531,1,,,right,1,0.8838801424717531,,,,,,,,,,,,,,,,,,,,,,1026,2019_Mar_06_1503,mf_amp_cond2,3.0.4,59.984224643304984,
could,&&&&&,left,neutral,,,,,,,,0,60,60,51,,,,,,,,,,,,,,,,,,,,,LDT,right,0.5503927557729185,0,,,right,0,0.5503927557729185,,,,,,,,,,,,,,,,,,,,,,1026,2019_Mar_06_1503,mf_amp_cond2,3.0.4,59.984224643304984,
nomparisons,&&&&&&&&&&&,right,nonword,,,,,,,,0,61,61,191,,,,,,,,,,,,,,,,,,,,,LDT,right,0.6670972889987752,1,,,right,1,0.6670972889987752,,,,,,,,,,,,,,,,,,,,,,1026,2019_Mar_06_1503,mf_amp_cond2,3.0.4,59.984224643304984,
forty,&&&&&,left,neutral,,,,,,,,0,62,62,138,,,,,,,,,,,,,,,,,,,,,LDT,right,0.8171363528817892,0,,,right,0,0.8171363528817892,,,,,,,,,,,,,,,,,,,,,,1026,2019_Mar_06_1503,mf_amp_cond2,3.0.4,59.984224643304984,
clean,&&&&&,left,sanctity.virtue,,,,,,,,0,63,63,165,,,,,,,,,,,,,,,,,,,,,LDT,right,0.45035484654363245,0,,,right,0,0.45035484654363245,,,,,,,,,,,,,,,,,,,,,,1026,2019_Mar_06_1503,mf_amp_cond2,3.0.4,59.984224643304984,
openet,&&&&&&,None,nonword,,,,,,,,0,64,64,188,,,,,,,,,,,,,,,,,,,,,LDT,left,0.9671638708095998,0,,,left,0,0.9671638708095998,,,,,,,,,,,,,,,,,,,,,,1026,2019_Mar_06_1503,mf_amp_cond2,3.0.4,59.984224643304984,
respect,&&&&&&&,left,sanctity.virtue,,,,,,,,0,65,65,53,,,,,,,,,,,,,,,,,,,,,LDT,right,0.6670867052162066,0,,,right,0,0.6670867052162066,,,,,,,,,,,,,,,,,,,,,,1026,2019_Mar_06_1503,mf_amp_cond2,3.0.4,59.984224643304984,
front,&&&&&,left,neutral,,,,,,,,0,66,66,92,,,,,,,,,,,,,,,,,,,,,LDT,right,0.7170994057087228,0,,,right,0,0.7170994057087228,,,,,,,,,,,,,,,,,,,,,,1026,2019_Mar_06_1503,mf_amp_cond2,3.0.4,59.984224643304984,
rivernoat,&&&&&&&&&,right,nonword,,,,,,,,0,67,67,142,,,,,,,,,,,,,,,,,,,,,LDT,right,2.0007668455364183,1,,,right,1,2.0007668455364183,,,,,,,,,,,,,,,,,,,,,,1026,2019_Mar_06_1503,mf_amp_cond2,3.0.4,59.984224643304984,
dignity,&&&&&&&,left,sanctity.virtue,,,,,,,,0,68,68,199,,,,,,,,,,,,,,,,,,,,,LDT,right,0.5670629076194018,0,,,right,0,0.5670629076194018,,,,,,,,,,,,,,,,,,,,,,1026,2019_Mar_06_1503,mf_amp_cond2,3.0.4,59.984224643304984,
perified,&&&&&&&&,right,nonword,,,,,,,,0,69,69,81,,,,,,,,,,,,,,,,,,,,,LDT,right,1.200562994927168,1,,,right,1,1.200562994927168,,,,,,,,,,,,,,,,,,,,,,1026,2019_Mar_06_1503,mf_amp_cond2,3.0.4,59.984224643304984,
photocalkodes,&&&&&&&&&&&&&,right,nonword,,,,,,,,0,70,70,30,,,,,,,,,,,,,,,,,,,,,LDT,left,0.9838372298981994,0,,,left,0,0.9838372298981994,,,,,,,,,,,,,,,,,,,,,,1026,2019_Mar_06_1503,mf_amp_cond2,3.0.4,59.984224643304984,
brotesque,&&&&&&&&&,right,nonword,,,,,,,,0,71,71,49,,,,,,,,,,,,,,,,,,,,,LDT,right,1.1005196332698688,1,,,right,1,1.1005196332698688,,,,,,,,,,,,,,,,,,,,,,1026,2019_Mar_06_1503,mf_amp_cond2,3.0.4,59.984224643304984,
charges,&&&&&&&,left,fairness.vice,,,,,,,,0,72,72,68,,,,,,,,,,,,,,,,,,,,,LDT,right,1.267231094185263,0,,,right,0,1.267231094185263,,,,,,,,,,,,,,,,,,,,,,1026,2019_Mar_06_1503,mf_amp_cond2,3.0.4,59.984224643304984,
there,&&&&&,left,neutral,,,,,,,,0,73,73,128,,,,,,,,,,,,,,,,,,,,,LDT,right,0.7504387473454699,0,,,right,0,0.7504387473454699,,,,,,,,,,,,,,,,,,,,,,1026,2019_Mar_06_1503,mf_amp_cond2,3.0.4,59.984224643304984,
anything,&&&&&&&&,left,neutral,,,,,,,,0,74,74,125,,,,,,,,,,,,,,,,,,,,,LDT,right,0.6003878166666254,0,,,right,0,0.6003878166666254,,,,,,,,,,,,,,,,,,,,,,1026,2019_Mar_06_1503,mf_amp_cond2,3.0.4,59.984224643304984,
stindig,&&&&&&&,right,nonword,,,,,,,,0,75,75,164,,,,,,,,,,,,,,,,,,,,,LDT,right,1.0671238447539508,1,,,right,1,1.0671238447539508,,,,,,,,,,,,,,,,,,,,,,1026,2019_Mar_06_1503,mf_amp_cond2,3.0.4,59.984224643304984,
tenuflect,&&&&&&&&&,right,nonword,,,,,,,,0,76,76,29,,,,,,,,,,,,,,,,,,,,,LDT,left,1.3506437526084483,0,,,left,0,1.3506437526084483,,,,,,,,,,,,,,,,,,,,,,1026,2019_Mar_06_1503,mf_amp_cond2,3.0.4,59.984224643304984,
emassion,&&&&&&&&,right,nonword,,,,,,,,0,77,77,36,,,,,,,,,,,,,,,,,,,,,LDT,left,1.4506380436941981,0,,,left,0,1.4506380436941981,,,,,,,,,,,,,,,,,,,,,,1026,2019_Mar_06_1503,mf_amp_cond2,3.0.4,59.984224643304984,
fonderland,&&&&&&&&&&,right,nonword,,,,,,,,0,78,78,118,,,,,,,,,,,,,,,,,,,,,LDT,left,1.0838520472170785,0,,,left,0,1.0838520472170785,,,,,,,,,,,,,,,,,,,,,,1026,2019_Mar_06_1503,mf_amp_cond2,3.0.4,59.984224643304984,
protesters,&&&&&&&&&&,left,authority.vice,,,,,,,,0,79,79,74,,,,,,,,,,,,,,,,,,,,,LDT,right,0.6005010313820094,0,,,right,0,0.6005010313820094,,,,,,,,,,,,,,,,,,,,,,1026,2019_Mar_06_1503,mf_amp_cond2,3.0.4,59.984224643304984,
myself,&&&&&&,left,neutral,,,,,,,,0,80,80,175,,,,,,,,,,,,,,,,,,,,,LDT,right,0.3837059906218201,0,,,right,0,0.3837059906218201,,,,,,,,,,,,,,,,,,,,,,1026,2019_Mar_06_1503,mf_amp_cond2,3.0.4,59.984224643304984,
fornicalion,&&&&&&&&&&&,right,nonword,,,,,,,,0,81,81,55,,,,,,,,,,,,,,,,,,,,,LDT,right,0.7668815074721351,1,,,right,1,0.7668815074721351,,,,,,,,,,,,,,,,,,,,,,1026,2019_Mar_06_1503,mf_amp_cond2,3.0.4,59.984224643304984,
sharing,&&&&&&&,left,loyalty.virtue,,,,,,,,0,82,82,147,,,,,,,,,,,,,,,,,,,,,LDT,right,0.4337055415380746,0,,,right,0,0.4337055415380746,,,,,,,,,,,,,,,,,,,,,,1026,2019_Mar_06_1503,mf_amp_cond2,3.0.4,59.984224643304984,
whereafter,&&&&&&&&&&,left,neutral,,,,,,,,0,83,83,122,,,,,,,,,,,,,,,,,,,,,LDT,right,0.9671702852938324,0,,,right,0,0.9671702852938324,,,,,,,,,,,,,,,,,,,,,,1026,2019_Mar_06_1503,mf_amp_cond2,3.0.4,59.984224643304984,
been,&&&&,left,neutral,,,,,,,,0,84,84,197,,,,,,,,,,,,,,,,,,,,,LDT,right,0.4837115069385618,0,,,right,0,0.4837115069385618,,,,,,,,,,,,,,,,,,,,,,1026,2019_Mar_06_1503,mf_amp_cond2,3.0.4,59.984224643304984,
besides,&&&&&&&,left,neutral,,,,,,,,0,85,85,97,,,,,,,,,,,,,,,,,,,,,LDT,right,0.46704135520849377,0,,,right,0,0.46704135520849377,,,,,,,,,,,,,,,,,,,,,,1026,2019_Mar_06_1503,mf_amp_cond2,3.0.4,59.984224643304984,
protect,&&&&&&&,left,fairness.virtue,,,,,,,,0,86,86,96,,,,,,,,,,,,,,,,,,,,,LDT,right,0.5003855074755847,0,,,right,0,0.5003855074755847,,,,,,,,,,,,,,,,,,,,,,1026,2019_Mar_06_1503,mf_amp_cond2,3.0.4,59.984224643304984,
fifteen,&&&&&&&,left,neutral,,,,,,,,0,87,87,23,,,,,,,,,,,,,,,,,,,,,LDT,right,0.583579754573293,0,,,right,0,0.583579754573293,,,,,,,,,,,,,,,,,,,,,,1026,2019_Mar_06_1503,mf_amp_cond2,3.0.4,59.984224643304984,
about,&&&&&,left,neutral,,,,,,,,0,88,88,189,,,,,,,,,,,,,,,,,,,,,LDT,right,0.38368835079018027,0,,,right,0,0.38368835079018027,,,,,,,,,,,,,,,,,,,,,,1026,2019_Mar_06_1503,mf_amp_cond2,3.0.4,59.984224643304984,
chressing,&&&&&&&&&,None,nonword,,,,,,,,0,89,89,17,,,,,,,,,,,,,,,,,,,,,LDT,right,0.6837908535962924,0,,,right,0,0.6837908535962924,,,,,,,,,,,,,,,,,,,,,,1026,2019_Mar_06_1503,mf_amp_cond2,3.0.4,59.984224643304984,
friends,&&&&&&&,left,loyalty.virtue,,,,,,,,0,90,90,4,,,,,,,,,,,,,,,,,,,,,LDT,right,0.4337013722397387,0,,,right,0,0.4337013722397387,,,,,,,,,,,,,,,,,,,,,,1026,2019_Mar_06_1503,mf_amp_cond2,3.0.4,59.984224643304984,
rorroborated,&&&&&&&&&&&&,right,nonword,,,,,,,,0,91,91,69,,,,,,,,,,,,,,,,,,,,,LDT,right,0.9838333812076598,1,,,right,1,0.9838333812076598,,,,,,,,,,,,,,,,,,,,,,1026,2019_Mar_06_1503,mf_amp_cond2,3.0.4,59.984224643304984,
gedious,&&&&&&&,right,nonword,,,,,,,,0,92,92,106,,,,,,,,,,,,,,,,,,,,,LDT,left,0.833776998333633,0,,,left,0,0.833776998333633,,,,,,,,,,,,,,,,,,,,,,1026,2019_Mar_06_1503,mf_amp_cond2,3.0.4,59.984224643304984,
gournful,&&&&&&&&,right,nonword,,,,,,,,0,93,93,57,,,,,,,,,,,,,,,,,,,,,LDT,left,0.8338013731408864,0,,,left,0,0.8338013731408864,,,,,,,,,,,,,,,,,,,,,,1026,2019_Mar_06_1503,mf_amp_cond2,3.0.4,59.984224643304984,
reviked,&&&&&&&,right,nonword,,,,,,,,0,94,94,177,,,,,,,,,,,,,,,,,,,,,LDT,left,1.0838584617013112,0,,,left,0,1.0838584617013112,,,,,,,,,,,,,,,,,,,,,,1026,2019_Mar_06_1503,mf_amp_cond2,3.0.4,59.984224643304984,
slending,&&&&&&&&,right,nonword,,,,,,,,0,95,95,3,,,,,,,,,,,,,,,,,,,,,LDT,right,1.3672629097709432,1,,,right,1,1.3672629097709432,,,,,,,,,,,,,,,,,,,,,,1026,2019_Mar_06_1503,mf_amp_cond2,3.0.4,59.984224643304984,
conspiracy,&&&&&&&&&&,left,sanctity.vice,,,,,,,,0,96,96,5,,,,,,,,,,,,,,,,,,,,,LDT,right,0.4337007306749001,0,,,right,0,0.4337007306749001,,,,,,,,,,,,,,,,,,,,,,1026,2019_Mar_06_1503,mf_amp_cond2,3.0.4,59.984224643304984,
tove,&&&&,right,nonword,,,,,,,,0,97,97,112,,,,,,,,,,,,,,,,,,,,,LDT,right,0.5503953215666115,1,,,right,1,0.5503953215666115,,,,,,,,,,,,,,,,,,,,,,1026,2019_Mar_06_1503,mf_amp_cond2,3.0.4,59.984224643304984,
menizen,&&&&&&&,None,nonword,,,,,,,,0,98,98,100,,,,,,,,,,,,,,,,,,,,,LDT,left,1.0005179656436667,0,,,left,0,1.0005179656436667,,,,,,,,,,,,,,,,,,,,,,1026,2019_Mar_06_1503,mf_amp_cond2,3.0.4,59.984224643304984,
faspberry,&&&&&&&&&,None,nonword,,,,,,,,0,99,99,109,,,,,,,,,,,,,,,,,,,,,LDT,right,2.150807833764702,0,,,right,0,2.150807833764702,,,,,,,,,,,,,,,,,,,,,,1026,2019_Mar_06_1503,mf_amp_cond2,3.0.4,59.984224643304984,
glacenta,&&&&&&&&,right,nonword,,,,,,,,0,100,100,107,,,,,,,,,,,,,,,,,,,,,LDT,left,0.6837539705447853,0,,,left,0,0.6837539705447853,,,,,,,,,,,,,,,,,,,,,,1026,2019_Mar_06_1503,mf_amp_cond2,3.0.4,59.984224643304984,
viscs,&&&&&,None,nonword,,,,,,,,0,101,101,21,,,,,,,,,,,,,,,,,,,,,LDT,left,0.8837957925861701,0,,,left,0,0.8837957925861701,,,,,,,,,,,,,,,,,,,,,,1026,2019_Mar_06_1503,mf_amp_cond2,3.0.4,59.984224643304984,
neputized,&&&&&&&&&,right,nonword,,,,,,,,0,102,102,101,,,,,,,,,,,,,,,,,,,,,LDT,left,1.5673133913660422,0,,,left,0,1.5673133913660422,,,,,,,,,,,,,,,,,,,,,,1026,2019_Mar_06_1503,mf_amp_cond2,3.0.4,59.984224643304984,
sidearbs,&&&&&&&&,right,nonword,,,,,,,,0,103,103,65,,,,,,,,,,,,,,,,,,,,,LDT,right,2.100796416052617,1,,,right,1,2.100796416052617,,,,,,,,,,,,,,,,,,,,,,1026,2019_Mar_06_1503,mf_amp_cond2,3.0.4,59.984224643304984,
pulge,&&&&&,right,nonword,,,,,,,,0,104,104,76,,,,,,,,,,,,,,,,,,,,,LDT,right,0.45040103036444634,1,,,right,1,0.45040103036444634,,,,,,,,,,,,,,,,,,,,,,1026,2019_Mar_06_1503,mf_amp_cond2,3.0.4,59.984224643304984,
alar,&&&&,right,nonword,,,,,,,,0,105,105,123,,,,,,,,,,,,,,,,,,,,,LDT,left,1.9007369542960078,0,,,left,0,1.9007369542960078,,,,,,,,,,,,,,,,,,,,,,1026,2019_Mar_06_1503,mf_amp_cond2,3.0.4,59.984224643304984,
police,&&&&&&,left,authority.vice,,,,,,,,0,106,106,174,,,,,,,,,,,,,,,,,,,,,LDT,right,0.5670439850073308,0,,,right,0,0.5670439850073308,,,,,,,,,,,,,,,,,,,,,,1026,2019_Mar_06_1503,mf_amp_cond2,3.0.4,59.984224643304984,
erks,&&&&,right,nonword,,,,,,,,0,107,107,171,,,,,,,,,,,,,,,,,,,,,LDT,right,1.4337995130335912,1,,,right,1,1.4337995130335912,,,,,,,,,,,,,,,,,,,,,,1026,2019_Mar_06_1503,mf_amp_cond2,3.0.4,59.984224643304984,
reelectiob,&&&&&&&&&&,right,nonword,,,,,,,,0,108,108,156,,,,,,,,,,,,,,,,,,,,,LDT,left,0.9338155491277575,0,,,left,0,0.9338155491277575,,,,,,,,,,,,,,,,,,,,,,1026,2019_Mar_06_1503,mf_amp_cond2,3.0.4,59.984224643304984,
support,&&&&&&&,left,loyalty.virtue,,,,,,,,0,109,109,67,,,,,,,,,,,,,,,,,,,,,LDT,right,0.9338267743587494,0,,,right,0,0.9338267743587494,,,,,,,,,,,,,,,,,,,,,,1026,2019_Mar_06_1503,mf_amp_cond2,3.0.4,59.984224643304984,
frojecting,&&&&&&&&&&,right,nonword,,,,,,,,0,110,110,62,,,,,,,,,,,,,,,,,,,,,LDT,left,2.3341679581208155,0,,,left,0,2.3341679581208155,,,,,,,,,,,,,,,,,,,,,,1026,2019_Mar_06_1503,mf_amp_cond2,3.0.4,59.984224643304984,
couldnt,&&&&&&&,left,neutral,,,,,,,,0,111,111,129,,,,,,,,,,,,,,,,,,,,,LDT,right,0.4503378482768312,0,,,right,0,0.4503378482768312,,,,,,,,,,,,,,,,,,,,,,1026,2019_Mar_06_1503,mf_amp_cond2,3.0.4,59.984224643304984,
towards,&&&&&&&,left,neutral,,,,,,,,0,112,112,60,,,,,,,,,,,,,,,,,,,,,LDT,right,0.38370855629909784,0,,,right,0,0.38370855629909784,,,,,,,,,,,,,,,,,,,,,,1026,2019_Mar_06_1503,mf_amp_cond2,3.0.4,59.984224643304984,
fegard,&&&&&&,right,nonword,,,,,,,,0,113,113,161,,,,,,,,,,,,,,,,,,,,,LDT,right,0.5503735125530511,1,,,right,1,0.5503735125530511,,,,,,,,,,,,,,,,,,,,,,1026,2019_Mar_06_1503,mf_amp_cond2,3.0.4,59.984224643304984,
iptervention,&&&&&&&&&&&&,right,nonword,,,,,,,,0,114,114,10,,,,,,,,,,,,,,,,,,,,,LDT,left,1.3505943614291027,0,,,left,0,1.3505943614291027,,,,,,,,,,,,,,,,,,,,,,1026,2019_Mar_06_1503,mf_amp_cond2,3.0.4,59.984224643304984,
baklara,&&&&&&&,right,nonword,,,,,,,,0,115,115,119,,,,,,,,,,,,,,,,,,,,,LDT,left,2.034091754583642,0,,,left,0,2.034091754583642,,,,,,,,,,,,,,,,,,,,,,1026,2019_Mar_06_1503,mf_amp_cond2,3.0.4,59.984224643304984,
gusinesslike,&&&&&&&&&&&&,right,nonword,,,,,,,,0,116,116,169,,,,,,,,,,,,,,,,,,,,,LDT,left,0.7171016507782042,0,,,left,0,0.7171016507782042,,,,,,,,,,,,,,,,,,,,,,1026,2019_Mar_06_1503,mf_amp_cond2,3.0.4,59.984224643304984,
useful,&&&&&&,left,authority.virtue,,,,,,,,0,117,117,149,,,,,,,,,,,,,,,,,,,,,LDT,right,0.9004678688943386,0,,,right,0,0.9004678688943386,,,,,,,,,,,,,,,,,,,,,,1026,2019_Mar_06_1503,mf_amp_cond2,3.0.4,59.984224643304984,
rejected,&&&&&&&&,left,authority.vice,,,,,,,,0,118,118,103,,,,,,,,,,,,,,,,,,,,,LDT,right,0.38371240498963743,0,,,right,0,0.38371240498963743,,,,,,,,,,,,,,,,,,,,,,1026,2019_Mar_06_1503,mf_amp_cond2,3.0.4,59.984224643304984,
noone,&&&&&,left,neutral,,,,,,,,0,119,119,105,,,,,,,,,,,,,,,,,,,,,LDT,right,0.48370990331750363,0,,,right,0,0.48370990331750363,,,,,,,,,,,,,,,,,,,,,,1026,2019_Mar_06_1503,mf_amp_cond2,3.0.4,59.984224643304984,
least,&&&&&,left,neutral,,,,,,,,0,120,120,22,,,,,,,,,,,,,,,,,,,,,LDT,right,0.8671118497150019,0,,,right,0,0.8671118497150019,,,,,,,,,,,,,,,,,,,,,,1026,2019_Mar_06_1503,mf_amp_cond2,3.0.4,59.984224643304984,
Loorish,&&&&&&&,right,nonword,,,,,,,,0,121,121,179,,,,,,,,,,,,,,,,,,,,,LDT,left,0.8337968831183389,0,,,left,0,0.8337968831183389,,,,,,,,,,,,,,,,,,,,,,1026,2019_Mar_06_1503,mf_amp_cond2,3.0.4,59.984224643304984,
either,&&&&&&,left,neutral,,,,,,,,0,122,122,42,,,,,,,,,,,,,,,,,,,,,LDT,right,0.48370509257074445,0,,,right,0,0.48370509257074445,,,,,,,,,,,,,,,,,,,,,,1026,2019_Mar_06_1503,mf_amp_cond2,3.0.4,59.984224643304984,
everything,&&&&&&&&&&,left,neutral,,,,,,,,0,123,123,121,,,,,,,,,,,,,,,,,,,,,LDT,right,0.983831777703017,0,,,right,0,0.983831777703017,,,,,,,,,,,,,,,,,,,,,,1026,2019_Mar_06_1503,mf_amp_cond2,3.0.4,59.984224643304984,
death,&&&&&,left,care.vice,,,,,,,,0,124,124,162,,,,,,,,,,,,,,,,,,,,,LDT,right,0.5503892279230058,0,,,right,0,0.5503892279230058,,,,,,,,,,,,,,,,,,,,,,1026,2019_Mar_06_1503,mf_amp_cond2,3.0.4,59.984224643304984,
Lacedonia,&&&&&&&&&,right,nonword,,,,,,,,0,125,125,183,,,,,,,,,,,,,,,,,,,,,LDT,left,1.3506033417070284,0,,,left,0,1.3506033417070284,,,,,,,,,,,,,,,,,,,,,,1026,2019_Mar_06_1503,mf_amp_cond2,3.0.4,59.984224643304984,
growth,&&&&&&,left,care.virtue,,,,,,,,0,126,126,77,,,,,,,,,,,,,,,,,,,,,LDT,right,0.4503798626828939,0,,,right,0,0.4503798626828939,,,,,,,,,,,,,,,,,,,,,,1026,2019_Mar_06_1503,mf_amp_cond2,3.0.4,59.984224643304984,
interests,&&&&&&&&&,left,fairness.virtue,,,,,,,,0,127,127,102,,,,,,,,,,,,,,,,,,,,,LDT,right,0.38369380310177803,0,,,right,0,0.38369380310177803,,,,,,,,,,,,,,,,,,,,,,1026,2019_Mar_06_1503,mf_amp_cond2,3.0.4,59.984224643304984,
ugeasily,&&&&&&&&,right,nonword,,,,,,,,0,128,128,31,,,,,,,,,,,,,,,,,,,,,LDT,right,1.5839857881655917,1,,,right,1,1.5839857881655917,,,,,,,,,,,,,,,,,,,,,,1026,2019_Mar_06_1503,mf_amp_cond2,3.0.4,59.984224643304984,
accused,&&&&&&&,left,fairness.vice,,,,,,,,0,129,129,79,,,,,,,,,,,,,,,,,,,,,LDT,left,1.5506393908290192,1,,,left,1,1.5506393908290192,,,,,,,,,,,,,,,,,,,,,,1026,2019_Mar_06_1503,mf_amp_cond2,3.0.4,59.984224643304984,
violence,&&&&&&&&,left,care.vice,,,,,,,,0,130,130,70,,,,,,,,,,,,,,,,,,,,,LDT,right,0.4837038096738979,0,,,right,0,0.4837038096738979,,,,,,,,,,,,,,,,,,,,,,1026,2019_Mar_06_1503,mf_amp_cond2,3.0.4,59.984224643304984,
latterly,&&&&&&&&,left,neutral,,,,,,,,0,131,131,168,,,,,,,,,,,,,,,,,,,,,LDT,right,0.6670626510167494,0,,,right,0,0.6670626510167494,,,,,,,,,,,,,,,,,,,,,,1026,2019_Mar_06_1503,mf_amp_cond2,3.0.4,59.984224643304984,
sliptery,&&&&&&&&,right,nonword,,,,,,,,0,132,132,153,,,,,,,,,,,,,,,,,,,,,LDT,right,0.8171501439064741,1,,,right,1,0.8171501439064741,,,,,,,,,,,,,,,,,,,,,,1026,2019_Mar_06_1503,mf_amp_cond2,3.0.4,59.984224643304984,
safety,&&&&&&,left,care.virtue,,,,,,,,0,133,133,41,,,,,,,,,,,,,,,,,,,,,LDT,right,0.5170479620574042,0,,,right,0,0.5170479620574042,,,,,,,,,,,,,,,,,,,,,,1026,2019_Mar_06_1503,mf_amp_cond2,3.0.4,59.984224643304984,
give,&&&&,left,neutral,,,,,,,,0,134,134,186,,,,,,,,,,,,,,,,,,,,,LDT,right,0.4003501639235765,0,,,right,0,0.4003501639235765,,,,,,,,,,,,,,,,,,,,,,1026,2019_Mar_06_1503,mf_amp_cond2,3.0.4,59.984224643304984,
blunderints,&&&&&&&&&&&,right,nonword,,,,,,,,0,135,135,32,,,,,,,,,,,,,,,,,,,,,LDT,right,2.084269626880996,1,,,right,1,2.084269626880996,,,,,,,,,,,,,,,,,,,,,,1026,2019_Mar_06_1503,mf_amp_cond2,3.0.4,59.984224643304984,
pharing,&&&&&&&,right,nonword,,,,,,,,0,136,136,20,,,,,,,,,,,,,,,,,,,,,LDT,left,1.8173746491083875,0,,,left,0,1.8173746491083875,,,,,,,,,,,,,,,,,,,,,,1026,2019_Mar_06_1503,mf_amp_cond2,3.0.4,59.984224643304984,
corruption,&&&&&&&&&&,left,sanctity.vice,,,,,,,,0,137,137,85,,,,,,,,,,,,,,,,,,,,,LDT,right,0.4670243568252772,0,,,right,0,0.4670243568252772,,,,,,,,,,,,,,,,,,,,,,1026,2019_Mar_06_1503,mf_amp_cond2,3.0.4,59.984224643304984,
with,&&&&,left,neutral,,,,,,,,0,138,138,167,,,,,,,,,,,,,,,,,,,,,LDT,right,0.4003912163898349,0,,,right,0,0.4003912163898349,,,,,,,,,,,,,,,,,,,,,,1026,2019_Mar_06_1503,mf_amp_cond2,3.0.4,59.984224643304984,
great,&&&&&,left,loyalty.virtue,,,,,,,,0,139,139,75,,,,,,,,,,,,,,,,,,,,,LDT,right,0.3503788363886997,0,,,right,0,0.3503788363886997,,,,,,,,,,,,,,,,,,,,,,1026,2019_Mar_06_1503,mf_amp_cond2,3.0.4,59.984224643304984,
fifty,&&&&&,left,neutral,,,,,,,,0,140,140,184,,,,,,,,,,,,,,,,,,,,,LDT,right,0.4003844811813906,0,,,right,0,0.4003844811813906,,,,,,,,,,,,,,,,,,,,,,1026,2019_Mar_06_1503,mf_amp_cond2,3.0.4,59.984224643304984,
both,&&&&,left,neutral,,,,,,,,0,141,141,131,,,,,,,,,,,,,,,,,,,,,LDT,right,0.5837179855443537,0,,,right,0,0.5837179855443537,,,,,,,,,,,,,,,,,,,,,,1026,2019_Mar_06_1503,mf_amp_cond2,3.0.4,59.984224643304984,
unscothed,&&&&&&&&&,right,nonword,,,,,,,,0,142,142,45,,,,,,,,,,,,,,,,,,,,,LDT,right,0.8171312214108184,1,,,right,1,0.8171312214108184,,,,,,,,,,,,,,,,,,,,,,1026,2019_Mar_06_1503,mf_amp_cond2,3.0.4,59.984224643304984,
thru,&&&&,left,neutral,,,,,,,,0,143,143,145,,,,,,,,,,,,,,,,,,,,,LDT,right,0.48371984565164894,0,,,right,0,0.48371984565164894,,,,,,,,,,,,,,,,,,,,,,1026,2019_Mar_06_1503,mf_amp_cond2,3.0.4,59.984224643304984,
latter,&&&&&&,left,neutral,,,,,,,,0,144,144,52,,,,,,,,,,,,,,,,,,,,,LDT,left,2.2508181610610336,1,,,left,1,2.2508181610610336,,,,,,,,,,,,,,,,,,,,,,1026,2019_Mar_06_1503,mf_amp_cond2,3.0.4,59.984224643304984,
progress,&&&&&&&&,left,authority.virtue,,,,,,,,0,145,145,114,,,,,,,,,,,,,,,,,,,,,LDT,right,0.5837337009143084,0,,,right,0,0.5837337009143084,,,,,,,,,,,,,,,,,,,,,,1026,2019_Mar_06_1503,mf_amp_cond2,3.0.4,59.984224643304984,
encourage,&&&&&&&&&,left,authority.virtue,,,,,,,,0,146,146,43,,,,,,,,,,,,,,,,,,,,,LDT,right,1.0338374223792925,0,,,right,0,1.0338374223792925,,,,,,,,,,,,,,,,,,,,,,1026,2019_Mar_06_1503,mf_amp_cond2,3.0.4,59.984224643304984,
chonograph,&&&&&&&&&&,right,nonword,,,,,,,,0,147,147,176,,,,,,,,,,,,,,,,,,,,,LDT,right,1.000508985365741,1,,,right,1,1.000508985365741,,,,,,,,,,,,,,,,,,,,,,1026,2019_Mar_06_1503,mf_amp_cond2,3.0.4,59.984224643304984,
seachwear,&&&&&&&&&,right,nonword,,,,,,,,0,148,148,25,,,,,,,,,,,,,,,,,,,,,LDT,left,1.9174035782925785,0,,,left,0,1.9174035782925785,,,,,,,,,,,,,,,,,,,,,,1026,2019_Mar_06_1503,mf_amp_cond2,3.0.4,59.984224643304984,
Phintoism,&&&&&&&&&,right,nonword,,,,,,,,0,149,149,173,,,,,,,,,,,,,,,,,,,,,LDT,left,0.8837791150435805,0,,,left,0,0.8837791150435805,,,,,,,,,,,,,,,,,,,,,,1026,2019_Mar_06_1503,mf_amp_cond2,3.0.4,59.984224643304984,
torture,&&&&&&&,left,care.vice,,,,,,,,0,150,150,80,,,,,,,,,,,,,,,,,,,,,LDT,right,0.8671455255243927,0,,,right,0,0.8671455255243927,,,,,,,,,,,,,,,,,,,,,,1026,2019_Mar_06_1503,mf_amp_cond2,3.0.4,59.984224643304984,
ilportation,&&&&&&&&&&&,right,nonword,,,,,,,,0,151,151,37,,,,,,,,,,,,,,,,,,,,,LDT,left,0.950552411028184,0,,,left,0,0.950552411028184,,,,,,,,,,,,,,,,,,,,,,1026,2019_Mar_06_1503,mf_amp_cond2,3.0.4,59.984224643304984,
although,&&&&&&&&,left,neutral,,,,,,,,0,152,152,6,,,,,,,,,,,,,,,,,,,,,LDT,right,0.5336991911754012,0,,,right,0,0.5336991911754012,,,,,,,,,,,,,,,,,,,,,,1026,2019_Mar_06_1503,mf_amp_cond2,3.0.4,59.984224643304984,
framo,&&&&&,right,nonword,,,,,,,,0,153,153,99,,,,,,,,,,,,,,,,,,,,,LDT,left,0.8838118287967518,0,,,left,0,0.8838118287967518,,,,,,,,,,,,,,,,,,,,,,1026,2019_Mar_06_1503,mf_amp_cond2,3.0.4,59.984224643304984,
mostly,&&&&&&,left,neutral,,,,,,,,0,154,154,134,,,,,,,,,,,,,,,,,,,,,LDT,right,0.7337557666469365,0,,,right,0,0.7337557666469365,,,,,,,,,,,,,,,,,,,,,,1026,2019_Mar_06_1503,mf_amp_cond2,3.0.4,59.984224643304984,
fraud,&&&&&,left,fairness.vice,,,,,,,,0,155,155,12,,,,,,,,,,,,,,,,,,,,,LDT,right,0.5670661148615181,0,,,right,0,0.5670661148615181,,,,,,,,,,,,,,,,,,,,,,1026,2019_Mar_06_1503,mf_amp_cond2,3.0.4,59.984224643304984,
freedom,&&&&&&&,left,sanctity.virtue,,,,,,,,0,156,156,135,,,,,,,,,,,,,,,,,,,,,LDT,right,0.5837183062685654,0,,,right,0,0.5837183062685654,,,,,,,,,,,,,,,,,,,,,,1026,2019_Mar_06_1503,mf_amp_cond2,3.0.4,59.984224643304984,
anyhow,&&&&&&,left,neutral,,,,,,,,0,157,157,63,,,,,,,,,,,,,,,,,,,,,LDT,right,0.8004572208737954,0,,,right,0,0.8004572208737954,,,,,,,,,,,,,,,,,,,,,,1026,2019_Mar_06_1503,mf_amp_cond2,3.0.4,59.984224643304984,
safe,&&&&,left,care.virtue,,,,,,,,0,158,158,26,,,,,,,,,,,,,,,,,,,,,LDT,right,0.666932117426768,0,,,right,0,0.666932117426768,,,,,,,,,,,,,,,,,,,,,,1026,2019_Mar_06_1503,mf_amp_cond2,3.0.4,59.984224643304984,
clamorek,&&&&&&&&,right,nonword,,,,,,,,0,159,159,154,,,,,,,,,,,,,,,,,,,,,LDT,left,0.783784503233619,0,,,left,0,0.783784503233619,,,,,,,,,,,,,,,,,,,,,,1026,2019_Mar_06_1503,mf_amp_cond2,3.0.4,59.984224643304984,
amoungst,&&&&&&&&,left,neutral,,,,,,,,0,160,160,152,,,,,,,,,,,,,,,,,,,,,LDT,right,0.6004016076913103,0,,,right,0,0.6004016076913103,,,,,,,,,,,,,,,,,,,,,,1026,2019_Mar_06_1503,mf_amp_cond2,3.0.4,59.984224643304984,
wonderfujnoss,&&&&&&&&&&&&&,right,nonword,,,,,,,,0,161,161,78,,,,,,,,,,,,,,,,,,,,,LDT,left,2.8009832045063376,0,,,left,0,2.8009832045063376,,,,,,,,,,,,,,,,,,,,,,1026,2019_Mar_06_1503,mf_amp_cond2,3.0.4,59.984224643304984,
whither,&&&&&&&,left,neutral,,,,,,,,0,162,162,141,,,,,,,,,,,,,,,,,,,,,LDT,right,0.45035580871626735,0,,,right,0,0.45035580871626735,,,,,,,,,,,,,,,,,,,,,,1026,2019_Mar_06_1503,mf_amp_cond2,3.0.4,59.984224643304984,
serial,&&&&&&,left,sanctity.vice,,,,,,,,0,163,163,1,,,,,,,,,,,,,,,,,,,,,LDT,right,0.350337463314645,0,,,right,0,0.350337463314645,,,,,,,,,,,,,,,,,,,,,,1026,2019_Mar_06_1503,mf_amp_cond2,3.0.4,59.984224643304984,
toward,&&&&&&,left,neutral,,,,,,,,0,164,164,47,,,,,,,,,,,,,,,,,,,,,LDT,right,0.4503740897634998,0,,,right,0,0.4503740897634998,,,,,,,,,,,,,,,,,,,,,,1026,2019_Mar_06_1503,mf_amp_cond2,3.0.4,59.984224643304984,
esquisiteness,&&&&&&&&&&&&&,right,nonword,,,,,,,,0,165,165,132,,,,,,,,,,,,,,,,,,,,,LDT,right,0.8171321835834533,1,,,right,1,0.8171321835834533,,,,,,,,,,,,,,,,,,,,,,1026,2019_Mar_06_1503,mf_amp_cond2,3.0.4,59.984224643304984,
win,&&&,left,fairness.virtue,,,,,,,,0,166,166,13,,,,,,,,,,,,,,,,,,,,,LDT,right,0.6502536266343668,0,,,right,0,0.6502536266343668,,,,,,,,,,,,,,,,,,,,,,1026,2019_Mar_06_1503,mf_amp_cond2,3.0.4,59.984224643304984,
tabin,&&&&&,right,nonword,,,,,,,,0,167,167,190,,,,,,,,,,,,,,,,,,,,,LDT,right,0.9004813390783966,1,,,right,1,0.9004813390783966,,,,,,,,,,,,,,,,,,,,,,1026,2019_Mar_06_1503,mf_amp_cond2,3.0.4,59.984224643304984,
clattening,&&&&&&&&&&,right,nonword,,,,,,,,0,168,168,64,,,,,,,,,,,,,,,,,,,,,LDT,right,0.8504737701732665,1,,,right,1,0.8504737701732665,,,,,,,,,,,,,,,,,,,,,,1026,2019_Mar_06_1503,mf_amp_cond2,3.0.4,59.984224643304984,
groups,&&&&&&,left,loyalty.vice,,,,,,,,0,169,169,98,,,,,,,,,,,,,,,,,,,,,LDT,right,0.3336676321923733,0,,,right,0,0.3336676321923733,,,,,,,,,,,,,,,,,,,,,,1026,2019_Mar_06_1503,mf_amp_cond2,3.0.4,59.984224643304984,
hescribe,&&&&&&&&,right,nonword,,,,,,,,0,170,170,61,,,,,,,,,,,,,,,,,,,,,LDT,left,3.184395093237981,0,,,left,0,3.184395093237981,,,,,,,,,,,,,,,,,,,,,,1026,2019_Mar_06_1503,mf_amp_cond2,3.0.4,59.984224643304984,
somehow,&&&&&&&,left,neutral,,,,,,,,0,171,171,198,,,,,,,,,,,,,,,,,,,,,LDT,left,0.33369585569016635,1,,,left,1,0.33369585569016635,,,,,,,,,,,,,,,,,,,,,,1026,2019_Mar_06_1503,mf_amp_cond2,3.0.4,59.984224643304984,
become,&&&&&&,left,neutral,,,,,,,,0,172,172,90,,,,,,,,,,,,,,,,,,,,,LDT,right,0.5837301729479805,0,,,right,0,0.5837301729479805,,,,,,,,,,,,,,,,,,,,,,1026,2019_Mar_06_1503,mf_amp_cond2,3.0.4,59.984224643304984,
bluently,&&&&&&&&,None,nonword,,,,,,,,0,173,173,116,,,,,,,,,,,,,,,,,,,,,LDT,left,1.3672702861949801,0,,,left,0,1.3672702861949801,,,,,,,,,,,,,,,,,,,,,,1026,2019_Mar_06_1503,mf_amp_cond2,3.0.4,59.984224643304984,
lachelor,&&&&&&&&,right,nonword,,,,,,,,0,174,174,143,,,,,,,,,,,,,,,,,,,,,LDT,left,1.133876614505425,0,,,left,0,1.133876614505425,,,,,,,,,,,,,,,,,,,,,,1026,2019_Mar_06_1503,mf_amp_cond2,3.0.4,59.984224643304984,
racist,&&&&&&,left,sanctity.vice,,,,,,,,0,175,175,40,,,,,,,,,,,,,,,,,,,,,LDT,right,0.43369207123760134,0,,,right,0,0.43369207123760134,,,,,,,,,,,,,,,,,,,,,,1026,2019_Mar_06_1503,mf_amp_cond2,3.0.4,59.984224643304984,
mecan,&&&&&,right,nonword,,,,,,,,0,176,176,94,,,,,,,,,,,,,,,,,,,,,LDT,right,1.3172553407493979,1,,,right,1,1.3172553407493979,,,,,,,,,,,,,,,,,,,,,,1026,2019_Mar_06_1503,mf_amp_cond2,3.0.4,59.984224643304984,
credit,&&&&&&,left,fairness.virtue,,,,,,,,0,177,177,44,,,,,,,,,,,,,,,,,,,,,LDT,right,0.45035484654363245,0,,,right,0,0.45035484654363245,,,,,,,,,,,,,,,,,,,,,,1026,2019_Mar_06_1503,mf_amp_cond2,3.0.4,59.984224643304984,
galamitous,&&&&&&&&&&,right,nonword,,,,,,,,0,178,178,95,,,,,,,,,,,,,,,,,,,,,LDT,left,1.017179137095809,0,,,left,0,1.017179137095809,,,,,,,,,,,,,,,,,,,,,,1026,2019_Mar_06_1503,mf_amp_cond2,3.0.4,59.984224643304984,
hereby,&&&&&&,left,neutral,,,,,,,,0,179,179,50,,,,,,,,,,,,,,,,,,,,,LDT,left,1.7673930585151538,1,,,left,1,1.7673930585151538,,,,,,,,,,,,,,,,,,,,,,1026,2019_Mar_06_1503,mf_amp_cond2,3.0.4,59.984224643304984,
sfumatoy,&&&&&&&&,None,nonword,,,,,,,,0,180,180,150,,,,,,,,,,,,,,,,,,,,,LDT,right,0.5337043228792027,0,,,right,0,0.5337043228792027,,,,,,,,,,,,,,,,,,,,,,1026,2019_Mar_06_1503,mf_amp_cond2,3.0.4,59.984224643304984,
pescinded,&&&&&&&&&,right,nonword,,,,,,,,0,181,181,136,,,,,,,,,,,,,,,,,,,,,LDT,left,3.3342596844304353,0,,,left,0,3.3342596844304353,,,,,,,,,,,,,,,,,,,,,,1026,2019_Mar_06_1503,mf_amp_cond2,3.0.4,59.984224643304984,
three,&&&&&,left,neutral,,,,,,,,0,182,182,127,,,,,,,,,,,,,,,,,,,,,LDT,right,0.4003472775220871,0,,,right,0,0.4003472775220871,,,,,,,,,,,,,,,,,,,,,,1026,2019_Mar_06_1503,mf_amp_cond2,3.0.4,59.984224643304984,
metibolic,&&&&&&&&&,right,nonword,,,,,,,,0,183,183,196,,,,,,,,,,,,,,,,,,,,,LDT,right,1.1505477285245433,1,,,right,1,1.1505477285245433,,,,,,,,,,,,,,,,,,,,,,1026,2019_Mar_06_1503,mf_amp_cond2,3.0.4,59.984224643304984,
ning,&&&&,right,nonword,,,,,,,,0,184,184,146,,,,,,,,,,,,,,,,,,,,,LDT,right,0.9504895495483652,1,,,right,1,0.9504895495483652,,,,,,,,,,,,,,,,,,,,,,1026,2019_Mar_06_1503,mf_amp_cond2,3.0.4,59.984224643304984,
eight,&&&&&,left,neutral,,,,,,,,0,185,185,82,,,,,,,,,,,,,,,,,,,,,LDT,right,0.5170607909094542,0,,,right,0,0.5170607909094542,,,,,,,,,,,,,,,,,,,,,,1026,2019_Mar_06_1503,mf_amp_cond2,3.0.4,59.984224643304984,
dumid,&&&&&,right,nonword,,,,,,,,0,186,186,133,,,,,,,,,,,,,,,,,,,,,LDT,left,1.3339261339278892,0,,,left,0,1.3339261339278892,,,,,,,,,,,,,,,,,,,,,,1026,2019_Mar_06_1503,mf_amp_cond2,3.0.4,59.984224643304984,
troops,&&&&&&,left,loyalty.vice,,,,,,,,0,187,187,180,,,,,,,,,,,,,,,,,,,,,LDT,right,0.41702929593157023,0,,,right,0,0.41702929593157023,,,,,,,,,,,,,,,,,,,,,,1026,2019_Mar_06_1503,mf_amp_cond2,3.0.4,59.984224643304984,
quarterbocks,&&&&&&&&&&&&,right,nonword,,,,,,,,0,188,188,73,,,,,,,,,,,,,,,,,,,,,LDT,right,0.8337965623941272,1,,,right,1,0.8337965623941272,,,,,,,,,,,,,,,,,,,,,,1026,2019_Mar_06_1503,mf_amp_cond2,3.0.4,59.984224643304984,
epigrach,&&&&&&&&,right,nonword,,,,,,,,0,189,189,84,,,,,,,,,,,,,,,,,,,,,LDT,right,0.48371278983540833,1,,,right,1,0.48371278983540833,,,,,,,,,,,,,,,,,,,,,,1026,2019_Mar_06_1503,mf_amp_cond2,3.0.4,59.984224643304984,
victim,&&&&&&,left,care.vice,,,,,,,,0,190,190,89,,,,,,,,,,,,,,,,,,,,,LDT,right,0.41705687809735537,0,,,right,0,0.41705687809735537,,,,,,,,,,,,,,,,,,,,,,1026,2019_Mar_06_1503,mf_amp_cond2,3.0.4,59.984224643304984,
spag,&&&&,None,nonword,,,,,,,,0,191,191,33,,,,,,,,,,,,,,,,,,,,,LDT,left,1.417298060725443,0,,,left,0,1.417298060725443,,,,,,,,,,,,,,,,,,,,,,1026,2019_Mar_06_1503,mf_amp_cond2,3.0.4,59.984224643304984,
proached,&&&&&&&&,right,nonword,,,,,,,,0,192,192,108,,,,,,,,,,,,,,,,,,,,,LDT,right,0.7837896347045898,1,,,right,1,0.7837896347045898,,,,,,,,,,,,,,,,,,,,,,1026,2019_Mar_06_1503,mf_amp_cond2,3.0.4,59.984224643304984,
care,&&&&,left,care.virtue,,,,,,,,0,193,193,139,,,,,,,,,,,,,,,,,,,,,LDT,right,0.9171585468575358,0,,,right,0,0.9171585468575358,,,,,,,,,,,,,,,,,,,,,,1026,2019_Mar_06_1503,mf_amp_cond2,3.0.4,59.984224643304984,
wherever,&&&&&&&&,left,neutral,,,,,,,,0,194,194,2,,,,,,,,,,,,,,,,,,,,,LDT,right,0.5003746029688045,0,,,right,0,0.5003746029688045,,,,,,,,,,,,,,,,,,,,,,1026,2019_Mar_06_1503,mf_amp_cond2,3.0.4,59.984224643304984,
further,&&&&&&&,left,neutral,,,,,,,,0,195,195,181,,,,,,,,,,,,,,,,,,,,,LDT,right,0.36700184224173427,0,,,right,0,0.36700184224173427,,,,,,,,,,,,,,,,,,,,,,1026,2019_Mar_06_1503,mf_amp_cond2,3.0.4,59.984224643304984,
bruthfulness,&&&&&&&&&&&&,right,nonword,,,,,,,,0,196,196,0,,,,,,,,,,,,,,,,,,,,,LDT,right,0.5170838828198612,1,,,right,1,0.5170838828198612,,,,,,,,,,,,,,,,,,,,,,1026,2019_Mar_06_1503,mf_amp_cond2,3.0.4,59.984224643304984,
smapper,&&&&&&&,right,nonword,,,,,,,,0,197,197,19,,,,,,,,,,,,,,,,,,,,,LDT,right,0.8004552965285257,1,,,right,1,0.8004552965285257,,,,,,,,,,,,,,,,,,,,,,1026,2019_Mar_06_1503,mf_amp_cond2,3.0.4,59.984224643304984,
threatened,&&&&&&&&&&,left,fairness.vice,,,,,,,,0,198,198,48,,,,,,,,,,,,,,,,,,,,,LDT,right,1.784043004969135,0,,,right,0,1.784043004969135,,,,,,,,,,,,,,,,,,,,,,1026,2019_Mar_06_1503,mf_amp_cond2,3.0.4,59.984224643304984,
hasks,&&&&&,right,nonword,,,,,,,,0,199,199,71,,,,,,,,,,,,,,,,,,,,,LDT,left,0.7506039189174771,0,,,left,0,0.7506039189174771,,,,,,,,,,,,,,,,,,,,,,1026,2019_Mar_06_1503,mf_amp_cond2,3.0.4,59.984224643304984,
,,,,,,,,,,,,,,,,,,,,,,,,,,,,,,,,,,,,,,,,,,,,2,21.758,,,,,,,,,,,,,,,,,,,,1026,2019_Mar_06_1503,mf_amp_cond2,3.0.4,59.984224643304984,
,,,,,,,,,,,,,,,,,,,,,,,,,,,,,,,,,,,,,,,,,,,,,,right,6.55191939114593,,,,,,,,,,,,,,,,,,1026,2019_Mar_06_1503,mf_amp_cond2,3.0.4,59.984224643304984,
keyboard,&&&&,,,senk,,,,,,,,,,,0,0,0,2,,,,,,,,,,,,,,,,,AMP_prac,left,7.968943234765902,,,,,,,,,,,left,7.968943234765902,,,,,,,,,,,,,,,,1026,2019_Mar_06_1503,mf_amp_cond2,3.0.4,59.984224643304984,
banana,&&&&&&,,,kacket,,,,,,,,,,,0,1,1,1,,,,,,,,,,,,,,,,,AMP_prac,left,1.634000413119793,,,,,,,,,,,left,1.634000413119793,,,,,,,,,,,,,,,,1026,2019_Mar_06_1503,mf_amp_cond2,3.0.4,59.984224643304984,
scarf,&&&&&&&&,,,bisebell,,,,,,,,,,,0,2,2,3,,,,,,,,,,,,,,,,,AMP_prac,right,1.3839497390436009,,,,,,,,,,,right,1.3839497390436009,,,,,,,,,,,,,,,,1026,2019_Mar_06_1503,mf_amp_cond2,3.0.4,59.984224643304984,
car,&&&&&&&&,,,cemtuper,,,,,,,,,,,0,3,3,0,,,,,,,,,,,,,,,,,AMP_prac,left,3.034352501388639,,,,,,,,,,,left,3.034352501388639,,,,,,,,,,,,,,,,1026,2019_Mar_06_1503,mf_amp_cond2,3.0.4,59.984224643304984,
,,,,,,,,,,,,,,,,,,,,,,,,,,,,,,,,,,,,,,,,,,,,,,,,,,right,6.4018726298818365,,,,,,,,,,,,,,1026,2019_Mar_06_1503,mf_amp_cond2,3.0.4,59.984224643304984,
restore,&&&&&&&&&&,left,care.virtue,ecgagement,,,,,,,,,,,,,,,0,0,0,71,,,,,,,,,,,,,AMP,left,2.58423787553329,1,,,,,,,,,,,,,,left,1,2.58423787553329,,,,,,,,,,,1026,2019_Mar_06_1503,mf_amp_cond2,3.0.4,59.984224643304984,
victims,&&&&&&&,right,care.vice,halaise,,,,,,,,,,,,,,,0,1,1,62,,,,,,,,,,,,,AMP,right,0.767130387481302,1,,,,,,,,,,,,,,right,1,0.767130387481302,,,,,,,,,,,1026,2019_Mar_06_1503,mf_amp_cond2,3.0.4,59.984224643304984,
fighters,&&&&&&&&&&&,right,authority.vice,ronviolence,,,,,,,,,,,,,,,0,2,2,109,,,,,,,,,,,,,AMP,right,2.034112280816771,1,,,,,,,,,,,,,,right,1,2.034112280816771,,,,,,,,,,,1026,2019_Mar_06_1503,mf_amp_cond2,3.0.4,59.984224643304984,
illegal,&&&&&&&&&&&,right,fairness.vice,shoirmaster,,,,,,,,,,,,,,,0,3,3,273,,,,,,,,,,,,,AMP,left,1.6340068274876103,0,,,,,,,,,,,,,,left,0,1.6340068274876103,,,,,,,,,,,1026,2019_Mar_06_1503,mf_amp_cond2,3.0.4,59.984224643304984,
fear,&&&&&&&&&&&&&,right,sanctity.vice,idexpressible,,,,,,,,,,,,,,,0,4,4,201,,,,,,,,,,,,,AMP,right,3.451092185685411,1,,,,,,,,,,,,,,right,1,3.451092185685411,,,,,,,,,,,1026,2019_Mar_06_1503,mf_amp_cond2,3.0.4,59.984224643304984,
honored,&&&&&&&,left,authority.virtue,scalbel,,,,,,,,,,,,,,,0,5,5,37,,,,,,,,,,,,,AMP,left,1.7173463614890352,1,,,,,,,,,,,,,,left,1,1.7173463614890352,,,,,,,,,,,1026,2019_Mar_06_1503,mf_amp_cond2,3.0.4,59.984224643304984,
victims,&&&&&,right,care.vice,noped,,,,,,,,,,,,,,,0,6,6,106,,,,,,,,,,,,,AMP,right,1.3839401174336672,1,,,,,,,,,,,,,,right,1,1.3839401174336672,,,,,,,,,,,1026,2019_Mar_06_1503,mf_amp_cond2,3.0.4,59.984224643304984,
loyalty,&&&&&&&,left,loyalty.virtue,hatigue,,,,,,,,,,,,,,,0,7,7,251,,,,,,,,,,,,,AMP,right,3.4010445264866576,0,,,,,,,,,,,,,,right,0,3.4010445264866576,,,,,,,,,,,1026,2019_Mar_06_1503,mf_amp_cond2,3.0.4,59.984224643304984,
forced,&&&&&,right,fairness.vice,aubos,,,,,,,,,,,,,,,0,8,8,323,,,,,,,,,,,,,AMP,right,3.467813973664306,1,,,,,,,,,,,,,,right,1,3.467813973664306,,,,,,,,,,,1026,2019_Mar_06_1503,mf_amp_cond2,3.0.4,59.984224643304984,
peaceful,&&&&&&&&&,left,authority.virtue,gaultless,,,,,,,,,,,,,,,0,9,9,49,,,,,,,,,,,,,AMP,left,1.417276893160306,1,,,,,,,,,,,,,,left,1,1.417276893160306,,,,,,,,,,,1026,2019_Mar_06_1503,mf_amp_cond2,3.0.4,59.984224643304984,
strong,&&&&&&&&&&,left,loyalty.virtue,honstables,,,,,,,,,,,,,,,0,10,10,275,,,,,,,,,,,,,AMP,left,3.0176852360600606,1,,,,,,,,,,,,,,left,1,3.0176852360600606,,,,,,,,,,,1026,2019_Mar_06_1503,mf_amp_cond2,3.0.4,59.984224643304984,
infet,&&&&&,None,nonword,aubos,,,,,,,,,,,,,,,0,11,11,217,,,,,,,,,,,,,AMP,right,1.2672381498850882,0,,,,,,,,,,,,,,right,0,1.2672381498850882,,,,,,,,,,,1026,2019_Mar_06_1503,mf_amp_cond2,3.0.4,59.984224643304984,
strength,&&&&&&&&&&,left,sanctity.virtue,gationwide,,,,,,,,,,,,,,,0,12,12,239,,,,,,,,,,,,,AMP,right,1.4172624606871977,0,,,,,,,,,,,,,,right,0,1.4172624606871977,,,,,,,,,,,1026,2019_Mar_06_1503,mf_amp_cond2,3.0.4,59.984224643304984,
values,&&&&&&&&&,left,sanctity.virtue,ittutable,,,,,,,,,,,,,,,0,13,13,307,,,,,,,,,,,,,AMP,left,3.501143052126281,1,,,,,,,,,,,,,,left,1,3.501143052126281,,,,,,,,,,,1026,2019_Mar_06_1503,mf_amp_cond2,3.0.4,59.984224643304984,
free,&&&&&&&,left,fairness.virtue,nackers,,,,,,,,,,,,,,,0,14,14,101,,,,,,,,,,,,,AMP,right,2.1841330635361373,0,,,,,,,,,,,,,,right,0,2.1841330635361373,,,,,,,,,,,1026,2019_Mar_06_1503,mf_amp_cond2,3.0.4,59.984224643304984,
energy,&&&&&&&&&&,left,sanctity.virtue,totalestic,,,,,,,,,,,,,,,0,15,15,303,,,,,,,,,,,,,AMP,left,2.0174193577840924,1,,,,,,,,,,,,,,left,1,2.0174193577840924,,,,,,,,,,,1026,2019_Mar_06_1503,mf_amp_cond2,3.0.4,59.984224643304984,
illegal,&&&&&&&,right,fairness.vice,vurtain,,,,,,,,,,,,,,,0,16,16,134,,,,,,,,,,,,,AMP,left,1.5673076183302328,0,,,,,,,,,,,,,,left,0,1.5673076183302328,,,,,,,,,,,1026,2019_Mar_06_1503,mf_amp_cond2,3.0.4,59.984224643304984,
improve,&&&&&&&&,left,care.virtue,fontacts,,,,,,,,,,,,,,,0,17,17,308,,,,,,,,,,,,,AMP,right,2.5175470049725845,0,,,,,,,,,,,,,,right,0,2.5175470049725845,,,,,,,,,,,1026,2019_Mar_06_1503,mf_amp_cond2,3.0.4,59.984224643304984,
opportunity,&&&&&&,left,fairness.virtue,pumber,,,,,,,,,,,,,,,0,18,18,147,,,,,,,,,,,,,AMP,right,1.9007228426635265,0,,,,,,,,,,,,,,right,0,1.9007228426635265,,,,,,,,,,,1026,2019_Mar_06_1503,mf_amp_cond2,3.0.4,59.984224643304984,
abuse,&&&&&&,right,sanctity.vice,chared,,,,,,,,,,,,,,,0,19,19,278,,,,,,,,,,,,,AMP,left,1.7007069988176227,0,,,,,,,,,,,,,,left,0,1.7007069988176227,,,,,,,,,,,1026,2019_Mar_06_1503,mf_amp_cond2,3.0.4,59.984224643304984,
rebels,&&&&&&&&&&,right,authority.vice,frocessing,,,,,,,,,,,,,,,0,20,20,99,,,,,,,,,,,,,AMP,left,1.0004323328612372,0,,,,,,,,,,,,,,left,0,1.0004323328612372,,,,,,,,,,,1026,2019_Mar_06_1503,mf_amp_cond2,3.0.4,59.984224643304984,
victims,&&&&&&&&&&,right,care.vice,frocessing,,,,,,,,,,,,,,,0,21,21,176,,,,,,,,,,,,,AMP,left,0.7671444992301986,0,,,,,,,,,,,,,,left,0,0.7671444992301986,,,,,,,,,,,1026,2019_Mar_06_1503,mf_amp_cond2,3.0.4,59.984224643304984,
sexual,&&&&&&&&,right,sanctity.vice,nuckheap,,,,,,,,,,,,,,,0,22,22,0,,,,,,,,,,,,,AMP,right,1.6173225638922304,1,,,,,,,,,,,,,,right,1,1.6173225638922304,,,,,,,,,,,1026,2019_Mar_06_1503,mf_amp_cond2,3.0.4,59.984224643304984,
honored,&&&&&&&&,left,authority.virtue,suggists,,,,,,,,,,,,,,,0,23,23,291,,,,,,,,,,,,,AMP,right,1.550641315174289,0,,,,,,,,,,,,,,right,0,1.550641315174289,,,,,,,,,,,1026,2019_Mar_06_1503,mf_amp_cond2,3.0.4,59.984224643304984,
violations,&&&&&&&&,right,sanctity.vice,dormandi,,,,,,,,,,,,,,,0,24,24,58,,,,,,,,,,,,,AMP,right,1.867394084809348,1,,,,,,,,,,,,,,right,1,1.867394084809348,,,,,,,,,,,1026,2019_Mar_06_1503,mf_amp_cond2,3.0.4,59.984224643304984,
critics,&&&&&&&&&,right,loyalty.vice,gondensed,,,,,,,,,,,,,,,0,25,25,302,,,,,,,,,,,,,AMP,left,1.5006568380631506,0,,,,,,,,,,,,,,left,0,1.5006568380631506,,,,,,,,,,,1026,2019_Mar_06_1503,mf_amp_cond2,3.0.4,59.984224643304984,
trust,&&&&&&&,left,authority.virtue,dramens,,,,,,,,,,,,,,,0,26,26,279,,,,,,,,,,,,,AMP,right,1.1505300888093188,0,,,,,,,,,,,,,,right,0,1.1505300888093188,,,,,,,,,,,1026,2019_Mar_06_1503,mf_amp_cond2,3.0.4,59.984224643304984,
failure,&&&&&&,right,loyalty.vice,gikely,,,,,,,,,,,,,,,0,27,27,131,,,,,,,,,,,,,AMP,right,1.6673192284069955,1,,,,,,,,,,,,,,right,1,1.6673192284069955,,,,,,,,,,,1026,2019_Mar_06_1503,mf_amp_cond2,3.0.4,59.984224643304984,
peace,&&&&&&&&,left,care.virtue,counpy's,,,,,,,,,,,,,,,0,28,28,33,,,,,,,,,,,,,AMP,right,1.4006044962443411,0,,,,,,,,,,,,,,right,0,1.4006044962443411,,,,,,,,,,,1026,2019_Mar_06_1503,mf_amp_cond2,3.0.4,59.984224643304984,
ablow,&&&&&&&&&&,None,nonword,focomotive,,,,,,,,,,,,,,,0,29,29,321,,,,,,,,,,,,,AMP,right,2.8343135657487437,0,,,,,,,,,,,,,,right,0,2.8343135657487437,,,,,,,,,,,1026,2019_Mar_06_1503,mf_amp_cond2,3.0.4,59.984224643304984,
promises,&&&&&&&&,left,fairness.virtue,gowlands,,,,,,,,,,,,,,,0,30,30,313,,,,,,,,,,,,,AMP,left,1.017171439831145,1,,,,,,,,,,,,,,left,1,1.017171439831145,,,,,,,,,,,1026,2019_Mar_06_1503,mf_amp_cond2,3.0.4,59.984224643304984,
lies,&&&&&,right,fairness.vice,aubos,,,,,,,,,,,,,,,0,31,31,123,,,,,,,,,,,,,AMP,right,2.134135116240941,1,,,,,,,,,,,,,,right,1,2.134135116240941,,,,,,,,,,,1026,2019_Mar_06_1503,mf_amp_cond2,3.0.4,59.984224643304984,
promote,&&&&&&&&&,left,sanctity.virtue,gondensed,,,,,,,,,,,,,,,0,32,32,25,,,,,,,,,,,,,AMP,left,1.3339226059615612,1,,,,,,,,,,,,,,left,1,1.3339226059615612,,,,,,,,,,,1026,2019_Mar_06_1503,mf_amp_cond2,3.0.4,59.984224643304984,
hefurbished,&&&&&&,None,nonword,sgrawl,,,,,,,,,,,,,,,0,33,33,218,,,,,,,,,,,,,AMP,left,1.4839687257772312,0,,,,,,,,,,,,,,left,0,1.4839687257772312,,,,,,,,,,,1026,2019_Mar_06_1503,mf_amp_cond2,3.0.4,59.984224643304984,
pleasant,&&&&&&&,None,control,carvels,,,,,,,,,,,,,,,0,34,34,105,,,,,,,,,,,,,AMP,right,2.1174604742554948,0,,,,,,,,,,,,,,right,0,2.1174604742554948,,,,,,,,,,,1026,2019_Mar_06_1503,mf_amp_cond2,3.0.4,59.984224643304984,
agreement,&&&&&&&&,left,fairness.virtue,drumbled,,,,,,,,,,,,,,,0,35,35,117,,,,,,,,,,,,,AMP,right,2.3175032584695145,0,,,,,,,,,,,,,,right,0,2.3175032584695145,,,,,,,,,,,1026,2019_Mar_06_1503,mf_amp_cond2,3.0.4,59.984224643304984,
suicide,&&&&&&&&&&&&,right,care.vice,feleological,,,,,,,,,,,,,,,0,36,36,295,,,,,,,,,,,,,AMP,right,1.867406913661398,1,,,,,,,,,,,,,,right,1,1.867406913661398,,,,,,,,,,,1026,2019_Mar_06_1503,mf_amp_cond2,3.0.4,59.984224643304984,
suicide,&&&&&&&&&,right,care.vice,tomedians,,,,,,,,,,,,,,,0,37,37,108,,,,,,,,,,,,,AMP,right,2.2843403139850125,1,,,,,,,,,,,,,,right,1,2.2843403139850125,,,,,,,,,,,1026,2019_Mar_06_1503,mf_amp_cond2,3.0.4,59.984224643304984,
betrayal,&&&&&&&&&&,right,loyalty.vice,honstables,,,,,,,,,,,,,,,0,38,38,57,,,,,,,,,,,,,AMP,left,0.800493462360464,0,,,,,,,,,,,,,,left,0,0.800493462360464,,,,,,,,,,,1026,2019_Mar_06_1503,mf_amp_cond2,3.0.4,59.984224643304984,
slavery,&&&,right,loyalty.vice,asn,,,,,,,,,,,,,,,0,39,39,32,,,,,,,,,,,,,AMP,left,1.1005626099649817,0,,,,,,,,,,,,,,left,0,1.1005626099649817,,,,,,,,,,,1026,2019_Mar_06_1503,mf_amp_cond2,3.0.4,59.984224643304984,
benefit,&&&&&&,left,fairness.virtue,letish,,,,,,,,,,,,,,,0,40,40,281,,,,,,,,,,,,,AMP,left,2.6509406125405803,1,,,,,,,,,,,,,,left,1,2.6509406125405803,,,,,,,,,,,1026,2019_Mar_06_1503,mf_amp_cond2,3.0.4,59.984224643304984,
terrorist,&&&&&&,right,loyalty.vice,forepo,,,,,,,,,,,,,,,0,41,41,160,,,,,,,,,,,,,AMP,left,1.9007366335717961,0,,,,,,,,,,,,,,left,0,1.9007366335717961,,,,,,,,,,,1026,2019_Mar_06_1503,mf_amp_cond2,3.0.4,59.984224643304984,
slavery,&&&,right,loyalty.vice,oam,,,,,,,,,,,,,,,0,42,42,112,,,,,,,,,,,,,AMP,right,5.268254837719724,1,,,,,,,,,,,,,,right,1,5.268254837719724,,,,,,,,,,,1026,2019_Mar_06_1503,mf_amp_cond2,3.0.4,59.984224643304984,
peace,&&&&&&,left,care.virtue,greaks,,,,,,,,,,,,,,,0,43,43,84,,,,,,,,,,,,,AMP,left,2.8676448892802,1,,,,,,,,,,,,,,left,1,2.8676448892802,,,,,,,,,,,1026,2019_Mar_06_1503,mf_amp_cond2,3.0.4,59.984224643304984,
peace,&&&&&&&&&,left,care.virtue,gondensed,,,,,,,,,,,,,,,0,44,44,166,,,,,,,,,,,,,AMP,left,0.6670767628820613,1,,,,,,,,,,,,,,left,1,0.6670767628820613,,,,,,,,,,,1026,2019_Mar_06_1503,mf_amp_cond2,3.0.4,59.984224643304984,
strong,&&&&&&&&,left,loyalty.virtue,thabbily,,,,,,,,,,,,,,,0,45,45,98,,,,,,,,,,,,,AMP,left,1.5839909197529778,1,,,,,,,,,,,,,,left,1,1.5839909197529778,,,,,,,,,,,1026,2019_Mar_06_1503,mf_amp_cond2,3.0.4,59.984224643304984,
penalty,&&&&&&&&&,right,authority.vice,fangsters,,,,,,,,,,,,,,,0,46,46,241,,,,,,,,,,,,,AMP,right,1.5506255998043343,1,,,,,,,,,,,,,,right,1,1.5506255998043343,,,,,,,,,,,1026,2019_Mar_06_1503,mf_amp_cond2,3.0.4,59.984224643304984,
critics,&&&&&&&,right,loyalty.vice,scalbel,,,,,,,,,,,,,,,0,47,47,214,,,,,,,,,,,,,AMP,left,0.6504155911970884,0,,,,,,,,,,,,,,left,0,0.6504155911970884,,,,,,,,,,,1026,2019_Mar_06_1503,mf_amp_cond2,3.0.4,59.984224643304984,
shot,&&&&&,right,care.vice,saned,,,,,,,,,,,,,,,0,48,48,248,,,,,,,,,,,,,AMP,left,2.850993980653584,0,,,,,,,,,,,,,,left,0,2.850993980653584,,,,,,,,,,,1026,2019_Mar_06_1503,mf_amp_cond2,3.0.4,59.984224643304984,
intelligence,&&&&&&&&&&,left,loyalty.virtue,ammessment,,,,,,,,,,,,,,,0,49,49,311,,,,,,,,,,,,,AMP,left,2.1174521355424076,1,,,,,,,,,,,,,,left,1,2.1174521355424076,,,,,,,,,,,1026,2019_Mar_06_1503,mf_amp_cond2,3.0.4,59.984224643304984,
neutralust,&&&&&&&,None,nonword,halaise,,,,,,,,,,,,,,,0,50,50,229,,,,,,,,,,,,,AMP,left,1.8507139907451347,0,,,,,,,,,,,,,,left,0,1.8507139907451347,,,,,,,,,,,1026,2019_Mar_06_1503,mf_amp_cond2,3.0.4,59.984224643304984,
loyalty,&&&&&&,left,loyalty.virtue,fostet,,,,,,,,,,,,,,,0,51,51,56,,,,,,,,,,,,,AMP,left,2.9676658003591,1,,,,,,,,,,,,,,left,1,2.9676658003591,,,,,,,,,,,1026,2019_Mar_06_1503,mf_amp_cond2,3.0.4,59.984224643304984,
ensure,&&&&&&&&,left,fairness.virtue,counpy's,,,,,,,,,,,,,,,0,52,52,249,,,,,,,,,,,,,AMP,right,0.7337718027411029,0,,,,,,,,,,,,,,right,0,0.7337718027411029,,,,,,,,,,,1026,2019_Mar_06_1503,mf_amp_cond2,3.0.4,59.984224643304984,
help,&&&&&&&,left,care.virtue,emports,,,,,,,,,,,,,,,0,53,53,52,,,,,,,,,,,,,AMP,right,1.517311595263891,0,,,,,,,,,,,,,,right,0,1.517311595263891,,,,,,,,,,,1026,2019_Mar_06_1503,mf_amp_cond2,3.0.4,59.984224643304984,
health,&&&&&&&,left,care.virtue,nackers,,,,,,,,,,,,,,,0,54,54,4,,,,,,,,,,,,,AMP,right,0.7504679330158979,0,,,,,,,,,,,,,,right,0,0.7504679330158979,,,,,,,,,,,1026,2019_Mar_06_1503,mf_amp_cond2,3.0.4,59.984224643304984,
promises,&&&&,left,fairness.virtue,yane,,,,,,,,,,,,,,,0,55,55,161,,,,,,,,,,,,,AMP,right,1.4006186079932377,0,,,,,,,,,,,,,,right,0,1.4006186079932377,,,,,,,,,,,1026,2019_Mar_06_1503,mf_amp_cond2,3.0.4,59.984224643304984,
party,&&&&&&,left,loyalty.virtue,Cunday,,,,,,,,,,,,,,,0,56,56,184,,,,,,,,,,,,,AMP,right,3.951252867234871,0,,,,,,,,,,,,,,right,0,3.951252867234871,,,,,,,,,,,1026,2019_Mar_06_1503,mf_amp_cond2,3.0.4,59.984224643304984,
black,&&&&&&&,right,loyalty.vice,allears,,,,,,,,,,,,,,,0,57,57,179,,,,,,,,,,,,,AMP,right,5.051459796843119,1,,,,,,,,,,,,,,right,1,5.051459796843119,,,,,,,,,,,1026,2019_Mar_06_1503,mf_amp_cond2,3.0.4,59.984224643304984,
tislay,&&&&&&,None,nonword,gikely,,,,,,,,,,,,,,,0,58,58,34,,,,,,,,,,,,,AMP,right,1.1505509357666597,0,,,,,,,,,,,,,,right,0,1.1505509357666597,,,,,,,,,,,1026,2019_Mar_06_1503,mf_amp_cond2,3.0.4,59.984224643304984,
penalty,&&&&&&&&&,right,authority.vice,tomedians,,,,,,,,,,,,,,,0,59,59,284,,,,,,,,,,,,,AMP,right,0.5336985498433933,1,,,,,,,,,,,,,,right,1,0.5336985498433933,,,,,,,,,,,1026,2019_Mar_06_1503,mf_amp_cond2,3.0.4,59.984224643304984,
embrace,&&&&&&&,left,authority.virtue,carvels,,,,,,,,,,,,,,,0,60,60,253,,,,,,,,,,,,,AMP,right,0.6170817019883543,0,,,,,,,,,,,,,,right,0,0.6170817019883543,,,,,,,,,,,1026,2019_Mar_06_1503,mf_amp_cond2,3.0.4,59.984224643304984,
promises,&&&&&&&&&&,left,fairness.virtue,lorthwhile,,,,,,,,,,,,,,,0,61,61,6,,,,,,,,,,,,,AMP,left,2.2006585699273273,1,,,,,,,,,,,,,,left,1,2.2006585699273273,,,,,,,,,,,1026,2019_Mar_06_1503,mf_amp_cond2,3.0.4,59.984224643304984,
prison,&&&&&&&&&,right,fairness.vice,gaultless,,,,,,,,,,,,,,,0,62,62,203,,,,,,,,,,,,,AMP,left,0.4336946370312944,0,,,,,,,,,,,,,,left,0,0.4336946370312944,,,,,,,,,,,1026,2019_Mar_06_1503,mf_amp_cond2,3.0.4,59.984224643304984,
health,&&&&&&&&,left,care.virtue,dormandi,,,,,,,,,,,,,,,0,63,63,126,,,,,,,,,,,,,AMP,right,0.9671696438454092,0,,,,,,,,,,,,,,right,0,0.9671696438454092,,,,,,,,,,,1026,2019_Mar_06_1503,mf_amp_cond2,3.0.4,59.984224643304984,
lies,&&&&&&&&,right,fairness.vice,dormandi,,,,,,,,,,,,,,,0,64,64,246,,,,,,,,,,,,,AMP,right,0.7171048580203205,1,,,,,,,,,,,,,,right,1,0.7171048580203205,,,,,,,,,,,1026,2019_Mar_06_1503,mf_amp_cond2,3.0.4,59.984224643304984,
peace,&&&&,left,care.virtue,yane,,,,,,,,,,,,,,,0,65,65,299,,,,,,,,,,,,,AMP,right,0.6337047076085582,0,,,,,,,,,,,,,,right,0,0.6337047076085582,,,,,,,,,,,1026,2019_Mar_06_1503,mf_amp_cond2,3.0.4,59.984224643304984,
crime,&&&&&&&&&&,right,fairness.vice,elduringly,,,,,,,,,,,,,,,0,66,66,326,,,,,,,,,,,,,AMP,left,3.451162744429894,0,,,,,,,,,,,,,,left,0,3.451162744429894,,,,,,,,,,,1026,2019_Mar_06_1503,mf_amp_cond2,3.0.4,59.984224643304984,
strength,&&&&&&&&,left,sanctity.virtue,gowlands,,,,,,,,,,,,,,,0,67,67,143,,,,,,,,,,,,,AMP,left,0.41703795548528433,1,,,,,,,,,,,,,,left,1,0.41703795548528433,,,,,,,,,,,1026,2019_Mar_06_1503,mf_amp_cond2,3.0.4,59.984224643304984,
hope,&&&&&&&&&&&&,left,loyalty.virtue,nonobservalt,,,,,,,,,,,,,,,0,68,68,116,,,,,,,,,,,,,AMP,left,1.267235904932022,1,,,,,,,,,,,,,,left,1,1.267235904932022,,,,,,,,,,,1026,2019_Mar_06_1503,mf_amp_cond2,3.0.4,59.984224643304984,
betrayal,&&&&&&&&,right,loyalty.vice,divility,,,,,,,,,,,,,,,0,69,69,319,,,,,,,,,,,,,AMP,right,2.7176051839487627,1,,,,,,,,,,,,,,right,1,2.7176051839487627,,,,,,,,,,,1026,2019_Mar_06_1503,mf_amp_cond2,3.0.4,59.984224643304984,
pleasant,&&&&&&&&&,None,control,refuejing,,,,,,,,,,,,,,,0,70,70,320,,,,,,,,,,,,,AMP,right,1.9174067854182795,0,,,,,,,,,,,,,,right,0,1.9174067854182795,,,,,,,,,,,1026,2019_Mar_06_1503,mf_amp_cond2,3.0.4,59.984224643304984,
injured,&&&&&&&,right,care.vice,allears,,,,,,,,,,,,,,,0,71,71,19,,,,,,,,,,,,,AMP,right,0.6504104596097022,1,,,,,,,,,,,,,,right,1,0.6504104596097022,,,,,,,,,,,1026,2019_Mar_06_1503,mf_amp_cond2,3.0.4,59.984224643304984,
health,&&&&&&&,left,care.virtue,nomaric,,,,,,,,,,,,,,,0,72,72,226,,,,,,,,,,,,,AMP,right,1.7673696458805352,0,,,,,,,,,,,,,,right,0,1.7673696458805352,,,,,,,,,,,1026,2019_Mar_06_1503,mf_amp_cond2,3.0.4,59.984224643304984,
died,&&&&,right,care.vice,juck,,,,,,,,,,,,,,,0,73,73,118,,,,,,,,,,,,,AMP,right,1.300423224340193,1,,,,,,,,,,,,,,right,1,1.300423224340193,,,,,,,,,,,1026,2019_Mar_06_1503,mf_amp_cond2,3.0.4,59.984224643304984,
benefit,&&&&&&&&,left,fairness.virtue,gowlands,,,,,,,,,,,,,,,0,74,74,22,,,,,,,,,,,,,AMP,left,0.5337421679869294,1,,,,,,,,,,,,,,left,1,0.5337421679869294,,,,,,,,,,,1026,2019_Mar_06_1503,mf_amp_cond2,3.0.4,59.984224643304984,
terrorist,&&&&&&,right,loyalty.vice,chared,,,,,,,,,,,,,,,0,75,75,191,,,,,,,,,,,,,AMP,left,1.467290876666084,0,,,,,,,,,,,,,,left,0,1.467290876666084,,,,,,,,,,,1026,2019_Mar_06_1503,mf_amp_cond2,3.0.4,59.984224643304984,
tislay,&&&&&&&,None,nonword,chreams,,,,,,,,,,,,,,,0,76,76,224,,,,,,,,,,,,,AMP,right,2.150817455491051,0,,,,,,,,,,,,,,right,0,2.150817455491051,,,,,,,,,,,1026,2019_Mar_06_1503,mf_amp_cond2,3.0.4,59.984224643304984,
fear,&&&&&&,right,sanctity.vice,chared,,,,,,,,,,,,,,,0,77,77,50,,,,,,,,,,,,,AMP,left,0.5837317765690386,0,,,,,,,,,,,,,,left,0,0.5837317765690386,,,,,,,,,,,1026,2019_Mar_06_1503,mf_amp_cond2,3.0.4,59.984224643304984,
died,&&&&&&,right,care.vice,greaks,,,,,,,,,,,,,,,0,78,78,81,,,,,,,,,,,,,AMP,left,0.8337378703290597,0,,,,,,,,,,,,,,left,0,0.8337378703290597,,,,,,,,,,,1026,2019_Mar_06_1503,mf_amp_cond2,3.0.4,59.984224643304984,
attacks,&&&&&,right,care.vice,aubos,,,,,,,,,,,,,,,0,79,79,70,,,,,,,,,,,,,AMP,right,0.6004208509111777,1,,,,,,,,,,,,,,right,1,0.6004208509111777,,,,,,,,,,,1026,2019_Mar_06_1503,mf_amp_cond2,3.0.4,59.984224643304984,
promote,&&&&&&&,left,sanctity.virtue,halaise,,,,,,,,,,,,,,,0,80,80,310,,,,,,,,,,,,,AMP,left,1.4673046676907688,1,,,,,,,,,,,,,,left,1,1.4673046676907688,,,,,,,,,,,1026,2019_Mar_06_1503,mf_amp_cond2,3.0.4,59.984224643304984,
hefurbished,&&&&&&&,None,nonword,chreams,,,,,,,,,,,,,,,0,81,81,293,,,,,,,,,,,,,AMP,right,0.6337595510995016,0,,,,,,,,,,,,,,right,0,0.6337595510995016,,,,,,,,,,,1026,2019_Mar_06_1503,mf_amp_cond2,3.0.4,59.984224643304984,
antral,&&&&&&&&&,None,nonword,gaultless,,,,,,,,,,,,,,,0,82,82,154,,,,,,,,,,,,,AMP,left,0.38369316165335476,0,,,,,,,,,,,,,,left,0,0.38369316165335476,,,,,,,,,,,1026,2019_Mar_06_1503,mf_amp_cond2,3.0.4,59.984224643304984,
praise,&&&&&&&&&&&&&,left,authority.virtue,idexpressible,,,,,,,,,,,,,,,0,83,83,125,,,,,,,,,,,,,AMP,left,3.284416325041093,1,,,,,,,,,,,,,,left,1,3.284416325041093,,,,,,,,,,,1026,2019_Mar_06_1503,mf_amp_cond2,3.0.4,59.984224643304984,
praised,&&&&&&&&&,left,loyalty.virtue,ittutable,,,,,,,,,,,,,,,0,84,84,141,,,,,,,,,,,,,AMP,left,1.5337710329331458,1,,,,,,,,,,,,,,left,1,1.5337710329331458,,,,,,,,,,,1026,2019_Mar_06_1503,mf_amp_cond2,3.0.4,59.984224643304984,
praise,&&&&&&&,left,authority.virtue,vurtain,,,,,,,,,,,,,,,0,85,85,47,,,,,,,,,,,,,AMP,left,1.0672043459489942,1,,,,,,,,,,,,,,left,1,1.0672043459489942,,,,,,,,,,,1026,2019_Mar_06_1503,mf_amp_cond2,3.0.4,59.984224643304984,
values,&&&&&&&&&,left,sanctity.virtue,reprisols,,,,,,,,,,,,,,,0,86,86,129,,,,,,,,,,,,,AMP,right,3.0010086697293445,0,,,,,,,,,,,,,,right,0,3.0010086697293445,,,,,,,,,,,1026,2019_Mar_06_1503,mf_amp_cond2,3.0.4,59.984224643304984,
Boeinf,&&&&&&&&,None,nonword,framatic,,,,,,,,,,,,,,,0,87,87,300,,,,,,,,,,,,,AMP,left,1.0004974394105375,0,,,,,,,,,,,,,,left,0,1.0004974394105375,,,,,,,,,,,1026,2019_Mar_06_1503,mf_amp_cond2,3.0.4,59.984224643304984,
shot,&&&&&&,right,care.vice,papert,,,,,,,,,,,,,,,0,88,88,128,,,,,,,,,,,,,AMP,right,1.8174083249177784,1,,,,,,,,,,,,,,right,1,1.8174083249177784,,,,,,,,,,,1026,2019_Mar_06_1503,mf_amp_cond2,3.0.4,59.984224643304984,
Boeinf,&&&&&&&&&&,None,nonword,ammessment,,,,,,,,,,,,,,,0,89,89,13,,,,,,,,,,,,,AMP,left,0.5503722296562046,0,,,,,,,,,,,,,,left,0,0.5503722296562046,,,,,,,,,,,1026,2019_Mar_06_1503,mf_amp_cond2,3.0.4,59.984224643304984,
coom,&&&&&&&&&&&,None,nonword,egpeditious,,,,,,,,,,,,,,,0,90,90,140,,,,,,,,,,,,,AMP,right,2.4175462992861867,0,,,,,,,,,,,,,,right,0,2.4175462992861867,,,,,,,,,,,1026,2019_Mar_06_1503,mf_amp_cond2,3.0.4,59.984224643304984,
infet,&&&&&&&&&&,None,nonword,ecgagement,,,,,,,,,,,,,,,0,91,91,298,,,,,,,,,,,,,AMP,left,0.9838327397592366,0,,,,,,,,,,,,,,left,0,0.9838327397592366,,,,,,,,,,,1026,2019_Mar_06_1503,mf_amp_cond2,3.0.4,59.984224643304984,
praise,&&&&&&&&&&&&,left,authority.virtue,unreflectuve,,,,,,,,,,,,,,,0,92,92,264,,,,,,,,,,,,,AMP,left,1.1338663514470682,1,,,,,,,,,,,,,,left,1,1.1338663514470682,,,,,,,,,,,1026,2019_Mar_06_1503,mf_amp_cond2,3.0.4,59.984224643304984,
lies,&&&&&&&&&&,right,fairness.vice,honstables,,,,,,,,,,,,,,,0,93,93,164,,,,,,,,,,,,,AMP,left,0.5337277355138212,0,,,,,,,,,,,,,,left,0,0.5337277355138212,,,,,,,,,,,1026,2019_Mar_06_1503,mf_amp_cond2,3.0.4,59.984224643304984,
died,&&&&&&&&&,right,care.vice,grovelire,,,,,,,,,,,,,,,0,94,94,272,,,,,,,,,,,,,AMP,left,0.8004533721832559,0,,,,,,,,,,,,,,left,0,0.8004533721832559,,,,,,,,,,,1026,2019_Mar_06_1503,mf_amp_cond2,3.0.4,59.984224643304984,
praised,&&&&&&&&&&,left,loyalty.virtue,focomotive,,,,,,,,,,,,,,,0,95,95,11,,,,,,,,,,,,,AMP,right,0.5170367368264124,0,,,,,,,,,,,,,,right,0,0.5170367368264124,,,,,,,,,,,1026,2019_Mar_06_1503,mf_amp_cond2,3.0.4,59.984224643304984,
ablow,&&&&&&&&,None,nonword,thabbily,,,,,,,,,,,,,,,0,96,96,220,,,,,,,,,,,,,AMP,left,0.5337203588569537,0,,,,,,,,,,,,,,left,0,0.5337203588569537,,,,,,,,,,,1026,2019_Mar_06_1503,mf_amp_cond2,3.0.4,59.984224643304984,
infet,&&&&&&&&&,None,nonword,fangsters,,,,,,,,,,,,,,,0,97,97,36,,,,,,,,,,,,,AMP,right,0.9171681684674695,0,,,,,,,,,,,,,,right,0,0.9171681684674695,,,,,,,,,,,1026,2019_Mar_06_1503,mf_amp_cond2,3.0.4,59.984224643304984,
loyalty,&&&&&&&&&&,left,loyalty.virtue,supervuned,,,,,,,,,,,,,,,0,98,98,137,,,,,,,,,,,,,AMP,left,1.633999450947158,1,,,,,,,,,,,,,,left,1,1.633999450947158,,,,,,,,,,,1026,2019_Mar_06_1503,mf_amp_cond2,3.0.4,59.984224643304984,
lies,&&&&&&&,right,fairness.vice,dramens,,,,,,,,,,,,,,,0,99,99,9,,,,,,,,,,,,,AMP,right,1.8340585919795558,1,,,,,,,,,,,,,,right,1,1.8340585919795558,,,,,,,,,,,1026,2019_Mar_06_1503,mf_amp_cond2,3.0.4,59.984224643304984,
taxpayung,&&&&&&&,None,nonword,hatigue,,,,,,,,,,,,,,,0,100,100,138,,,,,,,,,,,,,AMP,left,0.5170550178736448,0,,,,,,,,,,,,,,left,0,0.5170550178736448,,,,,,,,,,,1026,2019_Mar_06_1503,mf_amp_cond2,3.0.4,59.984224643304984,
antral,&&&&&&&,None,nonword,carvels,,,,,,,,,,,,,,,0,101,101,172,,,,,,,,,,,,,AMP,left,2.417520641698502,0,,,,,,,,,,,,,,left,0,2.417520641698502,,,,,,,,,,,1026,2019_Mar_06_1503,mf_amp_cond2,3.0.4,59.984224643304984,
love,&&&&&&&&&,left,loyalty.virtue,fangsters,,,,,,,,,,,,,,,0,102,102,103,,,,,,,,,,,,,AMP,right,0.5504123198334128,0,,,,,,,,,,,,,,right,0,0.5504123198334128,,,,,,,,,,,1026,2019_Mar_06_1503,mf_amp_cond2,3.0.4,59.984224643304984,
peaceful,&&&&&,left,authority.virtue,touls,,,,,,,,,,,,,,,0,103,103,296,,,,,,,,,,,,,AMP,right,1.0671937621664256,0,,,,,,,,,,,,,,right,0,1.0671937621664256,,,,,,,,,,,1026,2019_Mar_06_1503,mf_amp_cond2,3.0.4,59.984224643304984,
praise,&&&&&&&&&,left,authority.virtue,disregord,,,,,,,,,,,,,,,0,104,104,194,,,,,,,,,,,,,AMP,left,1.0171602146001533,1,,,,,,,,,,,,,,left,1,1.0171602146001533,,,,,,,,,,,1026,2019_Mar_06_1503,mf_amp_cond2,3.0.4,59.984224643304984,
fighters,&&&&&&&&,right,authority.vice,fontacts,,,,,,,,,,,,,,,0,105,105,182,,,,,,,,,,,,,AMP,left,0.6670857430435717,0,,,,,,,,,,,,,,left,0,0.6670857430435717,,,,,,,,,,,1026,2019_Mar_06_1503,mf_amp_cond2,3.0.4,59.984224643304984,
prosecution,&&&&&&&&&,right,authority.vice,disregord,,,,,,,,,,,,,,,0,106,106,290,,,,,,,,,,,,,AMP,left,0.8838054143125191,0,,,,,,,,,,,,,,left,0,0.8838054143125191,,,,,,,,,,,1026,2019_Mar_06_1503,mf_amp_cond2,3.0.4,59.984224643304984,
penalty,&&&&&&&&&&,right,authority.vice,pistraught,,,,,,,,,,,,,,,0,107,107,20,,,,,,,,,,,,,AMP,right,1.5506406737258658,1,,,,,,,,,,,,,,right,1,1.5506406737258658,,,,,,,,,,,1026,2019_Mar_06_1503,mf_amp_cond2,3.0.4,59.984224643304984,
men,&&&&&&&&&&,right,loyalty.vice,lorthwhile,,,,,,,,,,,,,,,0,108,108,207,,,,,,,,,,,,,AMP,left,0.567074132966809,0,,,,,,,,,,,,,,left,0,0.567074132966809,,,,,,,,,,,1026,2019_Mar_06_1503,mf_amp_cond2,3.0.4,59.984224643304984,
fair,&&&&&&&&&&,left,fairness.virtue,elduringly,,,,,,,,,,,,,,,0,109,109,183,,,,,,,,,,,,,AMP,left,1.43393934762571,1,,,,,,,,,,,,,,left,1,1.43393934762571,,,,,,,,,,,1026,2019_Mar_06_1503,mf_amp_cond2,3.0.4,59.984224643304984,
increase,&&&&&,left,care.virtue,atson,,,,,,,,,,,,,,,0,110,110,304,,,,,,,,,,,,,AMP,left,0.600408022175543,1,,,,,,,,,,,,,,left,1,0.600408022175543,,,,,,,,,,,1026,2019_Mar_06_1503,mf_amp_cond2,3.0.4,59.984224643304984,
perfect,&&&&&&&,left,sanctity.virtue,sickyay,,,,,,,,,,,,,,,0,111,111,41,,,,,,,,,,,,,AMP,right,0.6837651957757771,0,,,,,,,,,,,,,,right,0,0.6837651957757771,,,,,,,,,,,1026,2019_Mar_06_1503,mf_amp_cond2,3.0.4,59.984224643304984,
agreement,&&&&&&&&&&,left,fairness.virtue,imebreaker,,,,,,,,,,,,,,,0,112,112,28,,,,,,,,,,,,,AMP,right,1.317254378576763,0,,,,,,,,,,,,,,right,0,1.317254378576763,,,,,,,,,,,1026,2019_Mar_06_1503,mf_amp_cond2,3.0.4,59.984224643304984,
powerful,&&&&&&,left,authority.virtue,strofe,,,,,,,,,,,,,,,0,113,113,327,,,,,,,,,,,,,AMP,left,0.6170666280668229,1,,,,,,,,,,,,,,left,1,0.6170666280668229,,,,,,,,,,,1026,2019_Mar_06_1503,mf_amp_cond2,3.0.4,59.984224643304984,
hand,&&&&&&&,left,sanctity.virtue,dramens,,,,,,,,,,,,,,,0,114,114,94,,,,,,,,,,,,,AMP,right,0.5003707542782649,0,,,,,,,,,,,,,,right,0,0.5003707542782649,,,,,,,,,,,1026,2019_Mar_06_1503,mf_amp_cond2,3.0.4,59.984224643304984,
sexual,&&&&&&&&&&&&,right,sanctity.vice,edancipation,,,,,,,,,,,,,,,0,115,115,250,,,,,,,,,,,,,AMP,left,2.7176132019376382,0,,,,,,,,,,,,,,left,0,2.7176132019376382,,,,,,,,,,,1026,2019_Mar_06_1503,mf_amp_cond2,3.0.4,59.984224643304984,
loyalty,&&&&&&&,left,loyalty.virtue,nackers,,,,,,,,,,,,,,,0,116,116,185,,,,,,,,,,,,,AMP,right,4.151307518244721,0,,,,,,,,,,,,,,right,0,4.151307518244721,,,,,,,,,,,1026,2019_Mar_06_1503,mf_amp_cond2,3.0.4,59.984224643304984,
voter,&&&&&&&&&&,right,fairness.vice,simplustic,,,,,,,,,,,,,,,0,117,117,72,,,,,,,,,,,,,AMP,left,5.81838877114933,0,,,,,,,,,,,,,,left,0,5.81838877114933,,,,,,,,,,,1026,2019_Mar_06_1503,mf_amp_cond2,3.0.4,59.984224643304984,
hand,&&&&&&&&&&&,left,sanctity.virtue,egpeditious,,,,,,,,,,,,,,,0,118,118,76,,,,,,,,,,,,,AMP,left,2.5008781360229477,1,,,,,,,,,,,,,,left,1,2.5008781360229477,,,,,,,,,,,1026,2019_Mar_06_1503,mf_amp_cond2,3.0.4,59.984224643304984,
fair,&&&&&&&&&&&&,left,fairness.virtue,edancipation,,,,,,,,,,,,,,,0,119,119,114,,,,,,,,,,,,,AMP,left,1.9340685985516757,1,,,,,,,,,,,,,,left,1,1.9340685985516757,,,,,,,,,,,1026,2019_Mar_06_1503,mf_amp_cond2,3.0.4,59.984224643304984,
antral,&&&&&&&&&,None,nonword,reprisols,,,,,,,,,,,,,,,0,120,120,3,,,,,,,,,,,,,AMP,left,3.1343932972522452,0,,,,,,,,,,,,,,left,0,3.1343932972522452,,,,,,,,,,,1026,2019_Mar_06_1503,mf_amp_cond2,3.0.4,59.984224643304984,
unpleasant,&&&&&&,None,control,Cunday,,,,,,,,,,,,,,,0,121,121,2,,,,,,,,,,,,,AMP,left,1.6506660748273134,0,,,,,,,,,,,,,,left,0,1.6506660748273134,,,,,,,,,,,1026,2019_Mar_06_1503,mf_amp_cond2,3.0.4,59.984224643304984,
hefurbished,&&&&&&&&&&&&,None,nonword,unreflectuve,,,,,,,,,,,,,,,0,122,122,146,,,,,,,,,,,,,AMP,left,4.051269288291223,0,,,,,,,,,,,,,,left,0,4.051269288291223,,,,,,,,,,,1026,2019_Mar_06_1503,mf_amp_cond2,3.0.4,59.984224643304984,
victims,&&&&&&,right,care.vice,laming,,,,,,,,,,,,,,,0,123,123,257,,,,,,,,,,,,,AMP,left,5.785090481978841,0,,,,,,,,,,,,,,left,0,5.785090481978841,,,,,,,,,,,1026,2019_Mar_06_1503,mf_amp_cond2,3.0.4,59.984224643304984,
war,&&&&&&&&&,right,sanctity.vice,refuejing,,,,,,,,,,,,,,,0,124,124,223,,,,,,,,,,,,,AMP,left,7.018692302168347,0,,,,,,,,,,,,,,left,0,7.018692302168347,,,,,,,,,,,1026,2019_Mar_06_1503,mf_amp_cond2,3.0.4,59.984224643304984,
wump,&&&&&&&&&&&,None,nonword,egpeditious,,,,,,,,,,,,,,,0,125,125,286,,,,,,,,,,,,,AMP,left,1.6506715271389112,0,,,,,,,,,,,,,,left,0,1.6506715271389112,,,,,,,,,,,1026,2019_Mar_06_1503,mf_amp_cond2,3.0.4,59.984224643304984,
ensure,&&&&&,left,fairness.virtue,touls,,,,,,,,,,,,,,,0,126,126,78,,,,,,,,,,,,,AMP,right,1.2505619045114145,0,,,,,,,,,,,,,,right,0,1.2505619045114145,,,,,,,,,,,1026,2019_Mar_06_1503,mf_amp_cond2,3.0.4,59.984224643304984,
perfect,&&&&&&&&,left,sanctity.virtue,suggists,,,,,,,,,,,,,,,0,127,127,234,,,,,,,,,,,,,AMP,right,2.000763638294302,0,,,,,,,,,,,,,,right,0,2.000763638294302,,,,,,,,,,,1026,2019_Mar_06_1503,mf_amp_cond2,3.0.4,59.984224643304984,
ability,&&&&&&,left,authority.virtue,letish,,,,,,,,,,,,,,,0,128,128,91,,,,,,,,,,,,,AMP,left,0.4837057340191677,1,,,,,,,,,,,,,,left,1,0.4837057340191677,,,,,,,,,,,1026,2019_Mar_06_1503,mf_amp_cond2,3.0.4,59.984224643304984,
commitment,&&&&&&&&,left,sanctity.virtue,framatic,,,,,,,,,,,,,,,0,129,129,88,,,,,,,,,,,,,AMP,left,0.517046358436346,1,,,,,,,,,,,,,,left,1,0.517046358436346,,,,,,,,,,,1026,2019_Mar_06_1503,mf_amp_cond2,3.0.4,59.984224643304984,
intelligence,&&&&&&,left,loyalty.virtue,forepo,,,,,,,,,,,,,,,0,130,130,79,,,,,,,,,,,,,AMP,left,0.7837870690273121,1,,,,,,,,,,,,,,left,1,0.7837870690273121,,,,,,,,,,,1026,2019_Mar_06_1503,mf_amp_cond2,3.0.4,59.984224643304984,
unpleasant,&&&&&&&,None,control,emports,,,,,,,,,,,,,,,0,131,131,268,,,,,,,,,,,,,AMP,left,0.9004941680468619,0,,,,,,,,,,,,,,left,0,0.9004941680468619,,,,,,,,,,,1026,2019_Mar_06_1503,mf_amp_cond2,3.0.4,59.984224643304984,
abuse,&&&&&&&&,right,sanctity.vice,suggists,,,,,,,,,,,,,,,0,132,132,46,,,,,,,,,,,,,AMP,right,5.134901320328936,1,,,,,,,,,,,,,,right,1,5.134901320328936,,,,,,,,,,,1026,2019_Mar_06_1503,mf_amp_cond2,3.0.4,59.984224643304984,
betrayal,&&&,right,loyalty.vice,asn,,,,,,,,,,,,,,,0,133,133,221,,,,,,,,,,,,,AMP,left,1.0505338733782992,0,,,,,,,,,,,,,,left,0,1.0505338733782992,,,,,,,,,,,1026,2019_Mar_06_1503,mf_amp_cond2,3.0.4,59.984224643304984,
wump,&&&&&&,None,nonword,laming,,,,,,,,,,,,,,,0,134,134,169,,,,,,,,,,,,,AMP,left,4.017938285483979,0,,,,,,,,,,,,,,left,0,4.017938285483979,,,,,,,,,,,1026,2019_Mar_06_1503,mf_amp_cond2,3.0.4,59.984224643304984,
scandal,&&&&&&&&&&&&,right,sanctity.vice,unreflectuve,,,,,,,,,,,,,,,0,135,135,5,,,,,,,,,,,,,AMP,left,0.8337792434031144,0,,,,,,,,,,,,,,left,0,0.8337792434031144,,,,,,,,,,,1026,2019_Mar_06_1503,mf_amp_cond2,3.0.4,59.984224643304984,
prison,&&&&&&&,right,fairness.vice,nomaric,,,,,,,,,,,,,,,0,136,136,12,,,,,,,,,,,,,AMP,right,4.034602343570441,1,,,,,,,,,,,,,,right,1,4.034602343570441,,,,,,,,,,,1026,2019_Mar_06_1503,mf_amp_cond2,3.0.4,59.984224643304984,
taxpayung,&&&&&&&&&&,None,nonword,frocessing,,,,,,,,,,,,,,,0,137,137,283,,,,,,,,,,,,,AMP,left,3.234396247775294,0,,,,,,,,,,,,,,left,0,3.234396247775294,,,,,,,,,,,1026,2019_Mar_06_1503,mf_amp_cond2,3.0.4,59.984224643304984,
violations,&&&&&&,right,sanctity.vice,erdest,,,,,,,,,,,,,,,0,138,138,306,,,,,,,,,,,,,AMP,right,1.067174518830143,1,,,,,,,,,,,,,,right,1,1.067174518830143,,,,,,,,,,,1026,2019_Mar_06_1503,mf_amp_cond2,3.0.4,59.984224643304984,
promote,&&&&&&&&&&,left,sanctity.virtue,honstables,,,,,,,,,,,,,,,0,139,139,150,,,,,,,,,,,,,AMP,left,0.3836777670076117,1,,,,,,,,,,,,,,left,1,0.3836777670076117,,,,,,,,,,,1026,2019_Mar_06_1503,mf_amp_cond2,3.0.4,59.984224643304984,
wump,&&&&&&&&&&,None,nonword,ammessment,,,,,,,,,,,,,,,0,140,140,144,,,,,,,,,,,,,AMP,left,0.7671056918334216,0,,,,,,,,,,,,,,left,0,0.7671056918334216,,,,,,,,,,,1026,2019_Mar_06_1503,mf_amp_cond2,3.0.4,59.984224643304984,
hefurbished,&&&&&&&&,None,nonword,framatic,,,,,,,,,,,,,,,0,141,141,74,,,,,,,,,,,,,AMP,left,0.750437464332208,0,,,,,,,,,,,,,,left,0,0.750437464332208,,,,,,,,,,,1026,2019_Mar_06_1503,mf_amp_cond2,3.0.4,59.984224643304984,
restore,&&&&&&&&&&&&&,left,care.virtue,idexpressible,,,,,,,,,,,,,,,0,142,142,266,,,,,,,,,,,,,AMP,left,0.9338264536345378,1,,,,,,,,,,,,,,left,1,0.9338264536345378,,,,,,,,,,,1026,2019_Mar_06_1503,mf_amp_cond2,3.0.4,59.984224643304984,
party,&&&&&&,left,loyalty.virtue,fostet,,,,,,,,,,,,,,,0,143,143,93,,,,,,,,,,,,,AMP,left,1.6506542081478983,1,,,,,,,,,,,,,,left,1,1.6506542081478983,,,,,,,,,,,1026,2019_Mar_06_1503,mf_amp_cond2,3.0.4,59.984224643304984,
hate,&&&&&&&&&&&&,right,fairness.vice,nonobservalt,,,,,,,,,,,,,,,0,144,144,215,,,,,,,,,,,,,AMP,right,0.6504178361501545,1,,,,,,,,,,,,,,right,1,0.6504178361501545,,,,,,,,,,,1026,2019_Mar_06_1503,mf_amp_cond2,3.0.4,59.984224643304984,
killed,&&&&&&&,right,care.vice,nackers,,,,,,,,,,,,,,,0,145,145,263,,,,,,,,,,,,,AMP,right,0.5670580968726426,1,,,,,,,,,,,,,,right,1,0.5670580968726426,,,,,,,,,,,1026,2019_Mar_06_1503,mf_amp_cond2,3.0.4,59.984224643304984,
officers,&&&,right,authority.vice,oam,,,,,,,,,,,,,,,0,146,146,287,,,,,,,,,,,,,AMP,left,1.9340839931974187,0,,,,,,,,,,,,,,left,0,1.9340839931974187,,,,,,,,,,,1026,2019_Mar_06_1503,mf_amp_cond2,3.0.4,59.984224643304984,
attacks,&&&&&&&&,right,care.vice,suggists,,,,,,,,,,,,,,,0,147,147,130,,,,,,,,,,,,,AMP,right,0.9838430028175935,1,,,,,,,,,,,,,,right,1,0.9838430028175935,,,,,,,,,,,1026,2019_Mar_06_1503,mf_amp_cond2,3.0.4,59.984224643304984,
failure,&&&&&&&&&,right,loyalty.vice,gaultless,,,,,,,,,,,,,,,0,148,148,305,,,,,,,,,,,,,AMP,left,0.5170508484588936,0,,,,,,,,,,,,,,left,0,0.5170508484588936,,,,,,,,,,,1026,2019_Mar_06_1503,mf_amp_cond2,3.0.4,59.984224643304984,
help,&&&&&&&&&&&,left,care.virtue,neneficence,,,,,,,,,,,,,,,0,149,149,119,,,,,,,,,,,,,AMP,right,0.9671770203858614,0,,,,,,,,,,,,,,right,0,0.9671770203858614,,,,,,,,,,,1026,2019_Mar_06_1503,mf_amp_cond2,3.0.4,59.984224643304984,
scandal,&&&&&&&&&&,right,sanctity.vice,imebreaker,,,,,,,,,,,,,,,0,150,150,87,,,,,,,,,,,,,AMP,left,0.6337406284874305,0,,,,,,,,,,,,,,left,0,0.6337406284874305,,,,,,,,,,,1026,2019_Mar_06_1503,mf_amp_cond2,3.0.4,59.984224643304984,
black,&&&&&,right,loyalty.vice,touls,,,,,,,,,,,,,,,0,151,151,92,,,,,,,,,,,,,AMP,left,2.1841314600314945,0,,,,,,,,,,,,,,left,0,2.1841314600314945,,,,,,,,,,,1026,2019_Mar_06_1503,mf_amp_cond2,3.0.4,59.984224643304984,
increase,&&&&&,left,care.virtue,atson,,,,,,,,,,,,,,,0,152,152,73,,,,,,,,,,,,,AMP,left,2.4842480743536726,1,,,,,,,,,,,,,,left,1,2.4842480743536726,,,,,,,,,,,1026,2019_Mar_06_1503,mf_amp_cond2,3.0.4,59.984224643304984,
neutralust,&&&&&&&&,None,nonword,thabbily,,,,,,,,,,,,,,,0,153,153,60,,,,,,,,,,,,,AMP,right,2.934320685802959,0,,,,,,,,,,,,,,right,0,2.934320685802959,,,,,,,,,,,1026,2019_Mar_06_1503,mf_amp_cond2,3.0.4,59.984224643304984,
injured,&&&&&&&&&&,right,care.vice,lorthwhile,,,,,,,,,,,,,,,0,154,154,289,,,,,,,,,,,,,AMP,right,5.601672307122499,1,,,,,,,,,,,,,,right,1,5.601672307122499,,,,,,,,,,,1026,2019_Mar_06_1503,mf_amp_cond2,3.0.4,59.984224643304984,
agreement,&&&&&&&&,left,fairness.virtue,gowlands,,,,,,,,,,,,,,,0,155,155,186,,,,,,,,,,,,,AMP,left,0.43368116673082113,1,,,,,,,,,,,,,,left,1,0.43368116673082113,,,,,,,,,,,1026,2019_Mar_06_1503,mf_amp_cond2,3.0.4,59.984224643304984,
injured,&&&&&&&,right,care.vice,nomaric,,,,,,,,,,,,,,,0,156,156,127,,,,,,,,,,,,,AMP,left,2.4342068295227364,0,,,,,,,,,,,,,,left,0,2.4342068295227364,,,,,,,,,,,1026,2019_Mar_06_1503,mf_amp_cond2,3.0.4,59.984224643304984,
fighters,&&&&&&,right,authority.vice,papert,,,,,,,,,,,,,,,0,157,157,314,,,,,,,,,,,,,AMP,right,0.633739345590584,1,,,,,,,,,,,,,,right,1,0.633739345590584,,,,,,,,,,,1026,2019_Mar_06_1503,mf_amp_cond2,3.0.4,59.984224643304984,
powerful,&&&&&&&&&,left,authority.virtue,refuejing,,,,,,,,,,,,,,,0,158,158,102,,,,,,,,,,,,,AMP,right,1.817389723029919,0,,,,,,,,,,,,,,right,0,1.817389723029919,,,,,,,,,,,1026,2019_Mar_06_1503,mf_amp_cond2,3.0.4,59.984224643304984,
sexual,&&&&&&&&,right,sanctity.vice,counpy's,,,,,,,,,,,,,,,0,159,159,193,,,,,,,,,,,,,AMP,right,1.4673043469665572,1,,,,,,,,,,,,,,right,1,1.4673043469665572,,,,,,,,,,,1026,2019_Mar_06_1503,mf_amp_cond2,3.0.4,59.984224643304984,
party,&&&&&&,left,loyalty.virtue,squets,,,,,,,,,,,,,,,0,160,160,325,,,,,,,,,,,,,AMP,right,1.0005153997335583,0,,,,,,,,,,,,,,right,0,1.0005153997335583,,,,,,,,,,,1026,2019_Mar_06_1503,mf_amp_cond2,3.0.4,59.984224643304984,
opportunity,&&&&&&,left,fairness.virtue,gikely,,,,,,,,,,,,,,,0,161,161,254,,,,,,,,,,,,,AMP,left,0.48354248667601496,1,,,,,,,,,,,,,,left,1,0.48354248667601496,,,,,,,,,,,1026,2019_Mar_06_1503,mf_amp_cond2,3.0.4,59.984224643304984,
help,&&&&&&&&,left,care.virtue,dormandi,,,,,,,,,,,,,,,0,162,162,187,,,,,,,,,,,,,AMP,right,0.5670734915183857,0,,,,,,,,,,,,,,right,0,0.5670734915183857,,,,,,,,,,,1026,2019_Mar_06_1503,mf_amp_cond2,3.0.4,59.984224643304984,
party,&&&&&&,left,loyalty.virtue,sgrawl,,,,,,,,,,,,,,,0,163,163,14,,,,,,,,,,,,,AMP,left,1.0505515130935237,1,,,,,,,,,,,,,,left,1,1.0505515130935237,,,,,,,,,,,1026,2019_Mar_06_1503,mf_amp_cond2,3.0.4,59.984224643304984,
riot,&&&&&&&&&&,right,authority.vice,simplustic,,,,,,,,,,,,,,,0,164,164,190,,,,,,,,,,,,,AMP,left,0.7504454824374989,0,,,,,,,,,,,,,,left,0,0.7504454824374989,,,,,,,,,,,1026,2019_Mar_06_1503,mf_amp_cond2,3.0.4,59.984224643304984,
neutralust,&&&&&&&,None,nonword,sickyay,,,,,,,,,,,,,,,0,165,165,312,,,,,,,,,,,,,AMP,right,0.4503497149562463,0,,,,,,,,,,,,,,right,0,0.4503497149562463,,,,,,,,,,,1026,2019_Mar_06_1503,mf_amp_cond2,3.0.4,59.984224643304984,
critics,&&&&&&&,right,loyalty.vice,chreams,,,,,,,,,,,,,,,0,166,166,115,,,,,,,,,,,,,AMP,right,0.5337412058142945,1,,,,,,,,,,,,,,right,1,0.5337412058142945,,,,,,,,,,,1026,2019_Mar_06_1503,mf_amp_cond2,3.0.4,59.984224643304984,
penalty,&&&&&&&&&&,right,authority.vice,elduringly,,,,,,,,,,,,,,,0,167,167,121,,,,,,,,,,,,,AMP,left,0.46703012997750193,0,,,,,,,,,,,,,,left,0,0.46703012997750193,,,,,,,,,,,1026,2019_Mar_06_1503,mf_amp_cond2,3.0.4,59.984224643304984,
free,&&&&&&&&,left,fairness.virtue,tracious,,,,,,,,,,,,,,,0,168,168,38,,,,,,,,,,,,,AMP,right,1.600651770713739,0,,,,,,,,,,,,,,right,0,1.600651770713739,,,,,,,,,,,1026,2019_Mar_06_1503,mf_amp_cond2,3.0.4,59.984224643304984,
terrorist,&&&&&&&&,right,loyalty.vice,drumbled,,,,,,,,,,,,,,,0,169,169,297,,,,,,,,,,,,,AMP,right,1.9340827103005722,1,,,,,,,,,,,,,,right,1,1.9340827103005722,,,,,,,,,,,1026,2019_Mar_06_1503,mf_amp_cond2,3.0.4,59.984224643304984,
ablow,&&&&&&&&&,None,nonword,disregord,,,,,,,,,,,,,,,0,170,170,40,,,,,,,,,,,,,AMP,left,0.5837381910532713,0,,,,,,,,,,,,,,left,0,0.5837381910532713,,,,,,,,,,,1026,2019_Mar_06_1503,mf_amp_cond2,3.0.4,59.984224643304984,
ability,&&&&&&&,left,authority.virtue,dramens,,,,,,,,,,,,,,,0,171,171,200,,,,,,,,,,,,,AMP,right,0.3003196312347427,0,,,,,,,,,,,,,,right,0,0.3003196312347427,,,,,,,,,,,1026,2019_Mar_06_1503,mf_amp_cond2,3.0.4,59.984224643304984,
killed,&&&&&&,right,care.vice,squets,,,,,,,,,,,,,,,0,172,172,15,,,,,,,,,,,,,AMP,right,0.7504672915674746,1,,,,,,,,,,,,,,right,1,0.7504672915674746,,,,,,,,,,,1026,2019_Mar_06_1503,mf_amp_cond2,3.0.4,59.984224643304984,
refused,&&&&&&,right,authority.vice,forepo,,,,,,,,,,,,,,,0,173,173,173,,,,,,,,,,,,,AMP,left,0.40035080548841506,0,,,,,,,,,,,,,,left,0,0.40035080548841506,,,,,,,,,,,1026,2019_Mar_06_1503,mf_amp_cond2,3.0.4,59.984224643304984,
values,&&&,left,sanctity.virtue,mih,,,,,,,,,,,,,,,0,174,174,210,,,,,,,,,,,,,AMP,right,1.183882900630124,0,,,,,,,,,,,,,,right,0,1.183882900630124,,,,,,,,,,,1026,2019_Mar_06_1503,mf_amp_cond2,3.0.4,59.984224643304984,
embrace,&&&&&&&&&&,left,authority.virtue,focomotive,,,,,,,,,,,,,,,0,175,175,162,,,,,,,,,,,,,AMP,right,0.5337864275788888,0,,,,,,,,,,,,,,right,0,0.5337864275788888,,,,,,,,,,,1026,2019_Mar_06_1503,mf_amp_cond2,3.0.4,59.984224643304984,
perfect,&&&&&&,left,sanctity.virtue,sgrawl,,,,,,,,,,,,,,,0,176,176,159,,,,,,,,,,,,,AMP,left,0.8004569001495838,1,,,,,,,,,,,,,,left,1,0.8004569001495838,,,,,,,,,,,1026,2019_Mar_06_1503,mf_amp_cond2,3.0.4,59.984224643304984,
free,&&&&&&,left,fairness.virtue,fostet,,,,,,,,,,,,,,,0,177,177,269,,,,,,,,,,,,,AMP,left,0.5503693431382999,1,,,,,,,,,,,,,,left,1,0.5503693431382999,,,,,,,,,,,1026,2019_Mar_06_1503,mf_amp_cond2,3.0.4,59.984224643304984,
trust,&&&&&&&&&&&,left,authority.virtue,shoirmaster,,,,,,,,,,,,,,,0,178,178,107,,,,,,,,,,,,,AMP,left,0.6004012869670987,1,,,,,,,,,,,,,,left,1,0.6004012869670987,,,,,,,,,,,1026,2019_Mar_06_1503,mf_amp_cond2,3.0.4,59.984224643304984,
war,&&&&&&,right,sanctity.vice,laming,,,,,,,,,,,,,,,0,179,179,124,,,,,,,,,,,,,AMP,left,0.7004254051716998,0,,,,,,,,,,,,,,left,0,0.7004254051716998,,,,,,,,,,,1026,2019_Mar_06_1503,mf_amp_cond2,3.0.4,59.984224643304984,
shot,&&&&&&&&&&&,right,care.vice,neneficence,,,,,,,,,,,,,,,0,180,180,77,,,,,,,,,,,,,AMP,left,0.650399555102922,0,,,,,,,,,,,,,,left,0,0.650399555102922,,,,,,,,,,,1026,2019_Mar_06_1503,mf_amp_cond2,3.0.4,59.984224643304984,
taxpayung,&&&&&&,None,nonword,laming,,,,,,,,,,,,,,,0,181,181,55,,,,,,,,,,,,,AMP,left,0.6337467222474515,0,,,,,,,,,,,,,,left,0,0.6337467222474515,,,,,,,,,,,1026,2019_Mar_06_1503,mf_amp_cond2,3.0.4,59.984224643304984,
fair,&&&&&&&,left,fairness.virtue,hatigue,,,,,,,,,,,,,,,0,182,182,16,,,,,,,,,,,,,AMP,left,0.4837038096738979,1,,,,,,,,,,,,,,left,1,0.4837038096738979,,,,,,,,,,,1026,2019_Mar_06_1503,mf_amp_cond2,3.0.4,59.984224643304984,
war,&&&&&&&&&&,right,sanctity.vice,gationwide,,,,,,,,,,,,,,,0,183,183,10,,,,,,,,,,,,,AMP,right,0.7004282916896045,1,,,,,,,,,,,,,,right,1,0.7004282916896045,,,,,,,,,,,1026,2019_Mar_06_1503,mf_amp_cond2,3.0.4,59.984224643304984,
violations,&&&,right,sanctity.vice,asn,,,,,,,,,,,,,,,0,184,184,133,,,,,,,,,,,,,AMP,left,0.4503625438082963,0,,,,,,,,,,,,,,left,0,0.4503625438082963,,,,,,,,,,,1026,2019_Mar_06_1503,mf_amp_cond2,3.0.4,59.984224643304984,
benefit,&&&&&&&&&,left,fairness.virtue,ittutable,,,,,,,,,,,,,,,0,185,185,205,,,,,,,,,,,,,AMP,left,0.9838327397592366,1,,,,,,,,,,,,,,left,1,0.9838327397592366,,,,,,,,,,,1026,2019_Mar_06_1503,mf_amp_cond2,3.0.4,59.984224643304984,
failure,&&&&&&&&&&&&,right,loyalty.vice,unreflectuve,,,,,,,,,,,,,,,0,186,186,204,,,,,,,,,,,,,AMP,left,0.5337155479937792,0,,,,,,,,,,,,,,left,0,0.5337155479937792,,,,,,,,,,,1026,2019_Mar_06_1503,mf_amp_cond2,3.0.4,59.984224643304984,
fair,&&&&&&&&&&&,left,fairness.virtue,shoirmaster,,,,,,,,,,,,,,,0,187,187,261,,,,,,,,,,,,,AMP,left,0.4670416758162901,1,,,,,,,,,,,,,,left,1,0.4670416758162901,,,,,,,,,,,1026,2019_Mar_06_1503,mf_amp_cond2,3.0.4,59.984224643304984,
energy,&&&&&,left,sanctity.virtue,lenon,,,,,,,,,,,,,,,0,188,188,157,,,,,,,,,,,,,AMP,left,0.7337480692658573,1,,,,,,,,,,,,,,left,1,0.7337480692658573,,,,,,,,,,,1026,2019_Mar_06_1503,mf_amp_cond2,3.0.4,59.984224643304984,
taxpayung,&&&&&&,None,nonword,squets,,,,,,,,,,,,,,,0,189,189,209,,,,,,,,,,,,,AMP,right,0.3336794989882037,0,,,,,,,,,,,,,,right,0,0.3336794989882037,,,,,,,,,,,1026,2019_Mar_06_1503,mf_amp_cond2,3.0.4,59.984224643304984,
intelligence,&&&&&&&,left,loyalty.virtue,emports,,,,,,,,,,,,,,,0,190,190,139,,,,,,,,,,,,,AMP,left,0.03360746486578137,1,,,,,,,,,,,,,,left,1,0.03360746486578137,,,,,,,,,,,1026,2019_Mar_06_1503,mf_amp_cond2,3.0.4,59.984224643304984,
attacks,&&&&&&&&&&,right,care.vice,supervuned,,,,,,,,,,,,,,,0,191,191,277,,,,,,,,,,,,,AMP,right,1.4505764652276412,1,,,,,,,,,,,,,,right,1,1.4505764652276412,,,,,,,,,,,1026,2019_Mar_06_1503,mf_amp_cond2,3.0.4,59.984224643304984,
coom,&&&&&&&&&,None,nonword,grovelire,,,,,,,,,,,,,,,0,192,192,245,,,,,,,,,,,,,AMP,left,0.6504094975534827,0,,,,,,,,,,,,,,left,0,0.6504094975534827,,,,,,,,,,,1026,2019_Mar_06_1503,mf_amp_cond2,3.0.4,59.984224643304984,
ability,&&&&&&&&&&,left,authority.virtue,supervuned,,,,,,,,,,,,,,,0,193,193,68,,,,,,,,,,,,,AMP,right,4.568082161131315,0,,,,,,,,,,,,,,right,0,4.568082161131315,,,,,,,,,,,1026,2019_Mar_06_1503,mf_amp_cond2,3.0.4,59.984224643304984,
health,&&&&&&&,left,care.virtue,vurtain,,,,,,,,,,,,,,,0,194,194,318,,,,,,,,,,,,,AMP,left,0.5337232453748584,1,,,,,,,,,,,,,,left,1,0.5337232453748584,,,,,,,,,,,1026,2019_Mar_06_1503,mf_amp_cond2,3.0.4,59.984224643304984,
refused,&&&,right,authority.vice,mih,,,,,,,,,,,,,,,0,195,195,29,,,,,,,,,,,,,AMP,right,0.41699882748071104,1,,,,,,,,,,,,,,right,1,0.41699882748071104,,,,,,,,,,,1026,2019_Mar_06_1503,mf_amp_cond2,3.0.4,59.984224643304984,
benefit,&&&&&&&&&&,left,fairness.virtue,totalestic,,,,,,,,,,,,,,,0,196,196,82,,,,,,,,,,,,,AMP,left,0.5003707543946803,1,,,,,,,,,,,,,,left,1,0.5003707543946803,,,,,,,,,,,1026,2019_Mar_06_1503,mf_amp_cond2,3.0.4,59.984224643304984,
good,&&&&&&&&&,left,care.virtue,disregord,,,,,,,,,,,,,,,0,197,197,135,,,,,,,,,,,,,AMP,right,0.7337727649137378,0,,,,,,,,,,,,,,right,0,0.7337727649137378,,,,,,,,,,,1026,2019_Mar_06_1503,mf_amp_cond2,3.0.4,59.984224643304984,
crime,&&&&&&&&&&,right,fairness.vice,elduringly,,,,,,,,,,,,,,,0,198,198,31,,,,,,,,,,,,,AMP,left,0.7837713536573574,0,,,,,,,,,,,,,,left,0,0.7837713536573574,,,,,,,,,,,1026,2019_Mar_06_1503,mf_amp_cond2,3.0.4,59.984224643304984,
coom,&&&&&&&,None,nonword,chreams,,,,,,,,,,,,,,,0,199,199,66,,,,,,,,,,,,,AMP,right,0.6170704766409472,0,,,,,,,,,,,,,,right,0,0.6170704766409472,,,,,,,,,,,1026,2019_Mar_06_1503,mf_amp_cond2,3.0.4,59.984224643304984,
strong,&&&,left,loyalty.virtue,oam,,,,,,,,,,,,,,,0,200,200,80,,,,,,,,,,,,,AMP,left,0.817121920408681,1,,,,,,,,,,,,,,left,1,0.817121920408681,,,,,,,,,,,1026,2019_Mar_06_1503,mf_amp_cond2,3.0.4,59.984224643304984,
rebels,&&&&&,right,authority.vice,saned,,,,,,,,,,,,,,,0,201,201,30,,,,,,,,,,,,,AMP,left,0.5670539273414761,0,,,,,,,,,,,,,,left,0,0.5670539273414761,,,,,,,,,,,1026,2019_Mar_06_1503,mf_amp_cond2,3.0.4,59.984224643304984,
praised,&&&,left,loyalty.virtue,asn,,,,,,,,,,,,,,,0,202,202,274,,,,,,,,,,,,,AMP,left,0.36702525487635285,1,,,,,,,,,,,,,,left,1,0.36702525487635285,,,,,,,,,,,1026,2019_Mar_06_1503,mf_amp_cond2,3.0.4,59.984224643304984,
love,&&&&&&&,left,loyalty.virtue,emports,,,,,,,,,,,,,,,0,203,203,231,,,,,,,,,,,,,AMP,left,0.6504248920828104,1,,,,,,,,,,,,,,left,1,0.6504248920828104,,,,,,,,,,,1026,2019_Mar_06_1503,mf_amp_cond2,3.0.4,59.984224643304984,
drug,&&&&&&&&,right,sanctity.vice,drumbled,,,,,,,,,,,,,,,0,204,204,192,,,,,,,,,,,,,AMP,right,0.400338617968373,1,,,,,,,,,,,,,,right,1,0.400338617968373,,,,,,,,,,,1026,2019_Mar_06_1503,mf_amp_cond2,3.0.4,59.984224643304984,
energy,&&&&&&&&&&,left,sanctity.virtue,totalestic,,,,,,,,,,,,,,,0,205,205,23,,,,,,,,,,,,,AMP,left,0.38369668961968273,1,,,,,,,,,,,,,,left,1,0.38369668961968273,,,,,,,,,,,1026,2019_Mar_06_1503,mf_amp_cond2,3.0.4,59.984224643304984,
injured,&&&&&,right,care.vice,atson,,,,,,,,,,,,,,,0,206,206,242,,,,,,,,,,,,,AMP,left,0.7169509116793051,0,,,,,,,,,,,,,,left,0,0.7169509116793051,,,,,,,,,,,1026,2019_Mar_06_1503,mf_amp_cond2,3.0.4,59.984224643304984,
slavery,&&&&&&&,right,loyalty.vice,brudent,,,,,,,,,,,,,,,0,207,207,260,,,,,,,,,,,,,AMP,left,2.7841299205319956,0,,,,,,,,,,,,,,left,0,2.7841299205319956,,,,,,,,,,,1026,2019_Mar_06_1503,mf_amp_cond2,3.0.4,59.984224643304984,
rebels,&&&&&&&&,right,authority.vice,nuckheap,,,,,,,,,,,,,,,0,208,208,270,,,,,,,,,,,,,AMP,right,0.9504966054810211,1,,,,,,,,,,,,,,right,1,0.9504966054810211,,,,,,,,,,,1026,2019_Mar_06_1503,mf_amp_cond2,3.0.4,59.984224643304984,
black,&&&&&&&&,right,loyalty.vice,tracious,,,,,,,,,,,,,,,0,209,209,262,,,,,,,,,,,,,AMP,left,2.434254296356812,0,,,,,,,,,,,,,,left,0,2.434254296356812,,,,,,,,,,,1026,2019_Mar_06_1503,mf_amp_cond2,3.0.4,59.984224643304984,
ensure,&&&&&&&&&,left,fairness.virtue,tomedians,,,,,,,,,,,,,,,0,210,210,167,,,,,,,,,,,,,AMP,right,0.5835643598111346,0,,,,,,,,,,,,,,right,0,0.5835643598111346,,,,,,,,,,,1026,2019_Mar_06_1503,mf_amp_cond2,3.0.4,59.984224643304984,
hope,&&&&,left,loyalty.virtue,juck,,,,,,,,,,,,,,,0,211,211,316,,,,,,,,,,,,,AMP,right,0.5503988495329395,0,,,,,,,,,,,,,,right,0,0.5503988495329395,,,,,,,,,,,1026,2019_Mar_06_1503,mf_amp_cond2,3.0.4,59.984224643304984,
prosecution,&&&&&&&&&&&,right,authority.vice,shoirmaster,,,,,,,,,,,,,,,0,212,212,189,,,,,,,,,,,,,AMP,left,0.500247917836532,0,,,,,,,,,,,,,,left,0,0.500247917836532,,,,,,,,,,,1026,2019_Mar_06_1503,mf_amp_cond2,3.0.4,59.984224643304984,
prison,&&&&&&,right,fairness.vice,erdest,,,,,,,,,,,,,,,0,213,213,163,,,,,,,,,,,,,AMP,left,2.300853312248364,0,,,,,,,,,,,,,,left,0,2.300853312248364,,,,,,,,,,,1026,2019_Mar_06_1503,mf_amp_cond2,3.0.4,59.984224643304984,
commitment,&&&&&&,left,sanctity.virtue,papert,,,,,,,,,,,,,,,0,214,214,21,,,,,,,,,,,,,AMP,right,0.8671330173965544,0,,,,,,,,,,,,,,right,0,0.8671330173965544,,,,,,,,,,,1026,2019_Mar_06_1503,mf_amp_cond2,3.0.4,59.984224643304984,
prison,&&&&&&&&&&&,right,fairness.vice,ronviolence,,,,,,,,,,,,,,,0,215,215,285,,,,,,,,,,,,,AMP,left,2.284181877388619,0,,,,,,,,,,,,,,left,0,2.284181877388619,,,,,,,,,,,1026,2019_Mar_06_1503,mf_amp_cond2,3.0.4,59.984224643304984,
voter,&&&&&&&&&&,right,fairness.vice,gationwide,,,,,,,,,,,,,,,0,216,216,317,,,,,,,,,,,,,AMP,right,0.4336997685022652,1,,,,,,,,,,,,,,right,1,0.4336997685022652,,,,,,,,,,,1026,2019_Mar_06_1503,mf_amp_cond2,3.0.4,59.984224643304984,
illegal,&&&&&&&&&&&,right,fairness.vice,shoirmaster,,,,,,,,,,,,,,,0,217,217,7,,,,,,,,,,,,,AMP,left,0.4503416968509555,0,,,,,,,,,,,,,,left,0,0.4503416968509555,,,,,,,,,,,1026,2019_Mar_06_1503,mf_amp_cond2,3.0.4,59.984224643304984,
rebels,&&&&&&,right,authority.vice,strofe,,,,,,,,,,,,,,,0,218,218,188,,,,,,,,,,,,,AMP,left,0.5837272864300758,0,,,,,,,,,,,,,,left,0,0.5837272864300758,,,,,,,,,,,1026,2019_Mar_06_1503,mf_amp_cond2,3.0.4,59.984224643304984,
forced,&&&&&,right,fairness.vice,lenon,,,,,,,,,,,,,,,0,219,219,75,,,,,,,,,,,,,AMP,left,0.8004639559658244,0,,,,,,,,,,,,,,left,0,0.8004639559658244,,,,,,,,,,,1026,2019_Mar_06_1503,mf_amp_cond2,3.0.4,59.984224643304984,
pleasant,&&&&,None,control,yane,,,,,,,,,,,,,,,0,220,220,51,,,,,,,,,,,,,AMP,right,0.46702435694169253,0,,,,,,,,,,,,,,right,0,0.46702435694169253,,,,,,,,,,,1026,2019_Mar_06_1503,mf_amp_cond2,3.0.4,59.984224643304984,
ensure,&&&&&&&,left,fairness.virtue,halaise,,,,,,,,,,,,,,,0,221,221,153,,,,,,,,,,,,,AMP,left,0.4336904676165432,1,,,,,,,,,,,,,,left,1,0.4336904676165432,,,,,,,,,,,1026,2019_Mar_06_1503,mf_amp_cond2,3.0.4,59.984224643304984,
ability,&&&&&,left,authority.virtue,lenon,,,,,,,,,,,,,,,0,222,222,271,,,,,,,,,,,,,AMP,left,0.4503513185773045,1,,,,,,,,,,,,,,left,1,0.4503513185773045,,,,,,,,,,,1026,2019_Mar_06_1503,mf_amp_cond2,3.0.4,59.984224643304984,
suicide,&&&&&&&&&&,right,care.vice,ammessment,,,,,,,,,,,,,,,0,223,223,195,,,,,,,,,,,,,AMP,left,0.6836715451208875,0,,,,,,,,,,,,,,left,0,0.6836715451208875,,,,,,,,,,,1026,2019_Mar_06_1503,mf_amp_cond2,3.0.4,59.984224643304984,
officers,&&&&&&&&&,right,authority.vice,ittutable,,,,,,,,,,,,,,,0,224,224,45,,,,,,,,,,,,,AMP,left,0.5003874317044392,0,,,,,,,,,,,,,,left,0,0.5003874317044392,,,,,,,,,,,1026,2019_Mar_06_1503,mf_amp_cond2,3.0.4,59.984224643304984,
commitment,&&&&&&&&&&&,left,sanctity.virtue,neneficence,,,,,,,,,,,,,,,0,225,225,276,,,,,,,,,,,,,AMP,right,0.6170701560331509,0,,,,,,,,,,,,,,right,0,0.6170701560331509,,,,,,,,,,,1026,2019_Mar_06_1503,mf_amp_cond2,3.0.4,59.984224643304984,
honored,&&&&,left,authority.virtue,juck,,,,,,,,,,,,,,,0,226,226,180,,,,,,,,,,,,,AMP,right,0.5170383403310552,0,,,,,,,,,,,,,,right,0,0.5170383403310552,,,,,,,,,,,1026,2019_Mar_06_1503,mf_amp_cond2,3.0.4,59.984224643304984,
trust,&&&&&&&&&&&&,left,authority.virtue,edancipation,,,,,,,,,,,,,,,0,227,227,63,,,,,,,,,,,,,AMP,right,0.7837848239578307,0,,,,,,,,,,,,,,right,0,0.7837848239578307,,,,,,,,,,,1026,2019_Mar_06_1503,mf_amp_cond2,3.0.4,59.984224643304984,
war,&&&&&&&&&&&,right,sanctity.vice,lempestuous,,,,,,,,,,,,,,,0,228,228,282,,,,,,,,,,,,,AMP,right,1.5673117876285687,1,,,,,,,,,,,,,,right,1,1.5673117876285687,,,,,,,,,,,1026,2019_Mar_06_1503,mf_amp_cond2,3.0.4,59.984224643304984,
praised,&&&&&&&,left,loyalty.virtue,hatigue,,,,,,,,,,,,,,,0,229,229,177,,,,,,,,,,,,,AMP,left,0.633741911384277,1,,,,,,,,,,,,,,left,1,0.633741911384277,,,,,,,,,,,1026,2019_Mar_06_1503,mf_amp_cond2,3.0.4,59.984224643304984,
promote,&&&&&&,left,sanctity.virtue,letish,,,,,,,,,,,,,,,0,230,230,233,,,,,,,,,,,,,AMP,left,0.417015184299089,1,,,,,,,,,,,,,,left,1,0.417015184299089,,,,,,,,,,,1026,2019_Mar_06_1503,mf_amp_cond2,3.0.4,59.984224643304984,
embrace,&&&&,left,authority.virtue,yane,,,,,,,,,,,,,,,0,231,231,228,,,,,,,,,,,,,AMP,right,0.3670040871948004,0,,,,,,,,,,,,,,right,0,0.3670040871948004,,,,,,,,,,,1026,2019_Mar_06_1503,mf_amp_cond2,3.0.4,59.984224643304984,
officers,&&&&&&&,right,authority.vice,scalbel,,,,,,,,,,,,,,,0,232,232,96,,,,,,,,,,,,,AMP,left,0.8337917515309528,0,,,,,,,,,,,,,,left,0,0.8337917515309528,,,,,,,,,,,1026,2019_Mar_06_1503,mf_amp_cond2,3.0.4,59.984224643304984,
promises,&&&&&&&,left,fairness.virtue,sickyay,,,,,,,,,,,,,,,0,233,233,222,,,,,,,,,,,,,AMP,right,0.3170208929805085,0,,,,,,,,,,,,,,right,0,0.3170208929805085,,,,,,,,,,,1026,2019_Mar_06_1503,mf_amp_cond2,3.0.4,59.984224643304984,
values,&&&&&&&&&&,left,sanctity.virtue,frocessing,,,,,,,,,,,,,,,0,234,234,61,,,,,,,,,,,,,AMP,left,0.7003189256647602,1,,,,,,,,,,,,,,left,1,0.7003189256647602,,,,,,,,,,,1026,2019_Mar_06_1503,mf_amp_cond2,3.0.4,59.984224643304984,
men,&&&&&&&&,right,loyalty.vice,nuckheap,,,,,,,,,,,,,,,0,235,235,149,,,,,,,,,,,,,AMP,right,0.2668657921021804,1,,,,,,,,,,,,,,right,1,0.2668657921021804,,,,,,,,,,,1026,2019_Mar_06_1503,mf_amp_cond2,3.0.4,59.984224643304984,
Boeinf,&&&&&&&&&&&,None,nonword,ronviolence,,,,,,,,,,,,,,,0,236,236,178,,,,,,,,,,,,,AMP,left,0.3170077435206622,0,,,,,,,,,,,,,,left,0,0.3170077435206622,,,,,,,,,,,1026,2019_Mar_06_1503,mf_amp_cond2,3.0.4,59.984224643304984,
Boeinf,&&&&&&&,None,nonword,brudent,,,,,,,,,,,,,,,0,237,237,110,,,,,,,,,,,,,AMP,right,0.9171386621892452,0,,,,,,,,,,,,,,right,0,0.9171386621892452,,,,,,,,,,,1026,2019_Mar_06_1503,mf_amp_cond2,3.0.4,59.984224643304984,
riot,&&&&&&&&&&,right,authority.vice,imebreaker,,,,,,,,,,,,,,,0,238,238,322,,,,,,,,,,,,,AMP,right,1.0671918378211558,1,,,,,,,,,,,,,,right,1,1.0671918378211558,,,,,,,,,,,1026,2019_Mar_06_1503,mf_amp_cond2,3.0.4,59.984224643304984,
fear,&&&&&&&,right,sanctity.vice,sickyay,,,,,,,,,,,,,,,0,239,239,136,,,,,,,,,,,,,AMP,right,2.667621989734471,1,,,,,,,,,,,,,,right,1,2.667621989734471,,,,,,,,,,,1026,2019_Mar_06_1503,mf_amp_cond2,3.0.4,59.984224643304984,
failure,&&&&&&&&&&&&,right,loyalty.vice,feleological,,,,,,,,,,,,,,,0,240,240,39,,,,,,,,,,,,,AMP,left,1.1838915600674227,0,,,,,,,,,,,,,,left,0,1.1838915600674227,,,,,,,,,,,1026,2019_Mar_06_1503,mf_amp_cond2,3.0.4,59.984224643304984,
commitment,&&&&&,left,sanctity.virtue,touls,,,,,,,,,,,,,,,0,241,241,216,,,,,,,,,,,,,AMP,right,1.2005546560976654,0,,,,,,,,,,,,,,right,0,1.2005546560976654,,,,,,,,,,,1026,2019_Mar_06_1503,mf_amp_cond2,3.0.4,59.984224643304984,
