words,mask,corr_ans,category,nonwords,tweets,topic,LDT_prac_loop.thisRepN,LDT_prac_loop.thisTrialN,LDT_prac_loop.thisN,LDT_prac_loop.thisIndex,LDT_loop.thisRepN,LDT_loop.thisTrialN,LDT_loop.thisN,LDT_loop.thisIndex,AMP_pracloop.thisRepN,AMP_pracloop.thisTrialN,AMP_pracloop.thisN,AMP_pracloop.thisIndex,AMP_loop.thisRepN,AMP_loop.thisTrialN,AMP_loop.thisN,AMP_loop.thisIndex,tweet_loop.thisRepN,tweet_loop.thisTrialN,tweet_loop.thisN,tweet_loop.thisIndex,begin_key.keys,begin_key.rt,key_resp_AMP_instr1.keys,key_resp_AMP_instr1.rt,key_resp_LDT_instr.keys,key_resp_LDT_instr.rt,resp_LDT_prac.keys,resp_LDT_prac.rt,task,keypress,RT,corr,resp_LDT_ready.keys,resp_LDT_ready.rt,resp_LDT.keys,resp_LDT.corr,resp_LDT.rt,LDT_rating.response,LDT_rating.rt,resp_AMP_ready1.keys,resp_AMP_ready1.rt,resp_AMP_prac.keys,resp_AMP_prac.rt,resp_AMP_ready.keys,resp_AMP_ready.rt,resp_AMP.keys,resp_AMP.corr,resp_AMP.rt,AMP_nonword_rating.response,AMP_nonword_rating.rt,AMP_word_rating.response,AMP_word_rating.rt,AMP_random_rating.response,AMP_random_rating.rt,key_resp_LDT_instr_2.keys,key_resp_LDT_instr_2.rt,resp_tweets.keys,resp_tweets.rt,participant,date,expName,psychopyVersion,frameRate,
,,,,,,,,,,,,,,,,,,,,,,,,,,,right,136.36615514184814,,,,,,,,,,,,,,,,,,,,,,,,,,,,,,,,,,,,,1028,2019_Mar_06_1504,mf_amp_cond2,3.0.4,60.00038487152272,
,,,,,,,,,,,,,,,,,,,,,,,,,,,,,right,2.417454084381461,,,,,,,,,,,,,,,,,,,,,,,,,,,,,,,,,,,1028,2019_Mar_06_1504,mf_amp_cond2,3.0.4,60.00038487152272,
,,,,,,,,,,,,,,,,,,,,,,,,,,,,,,,right,1.767329870024696,,,,,,,,,,,,,,,,,,,,,,,,,,,,,,,,,1028,2019_Mar_06_1504,mf_amp_cond2,3.0.4,60.00038487152272,
keyboard,&&&&&&&,,,,,,0,0,0,0,,,,,,,,,,,,,,,,,,,,,,,right,4.901434830855578,LDT_prac,right,4.901434830855578,0,,,,,,,,,,,,,,,,,,,,,,,,,,,1028,2019_Mar_06_1504,mf_amp_cond2,3.0.4,60.00038487152272,
bisebell,&&&&&&&,,,,,,0,1,1,1,,,,,,,,,,,,,,,,,,,,,,,right,2.0674108834937215,LDT_prac,right,2.0674108834937215,0,,,,,,,,,,,,,,,,,,,,,,,,,,,1028,2019_Mar_06_1504,mf_amp_cond2,3.0.4,60.00038487152272,
,,,,,,,,,,,,,,,,,,,,,,,,,,,,,,,,,,,,,,,right,1.750642238999717,,,,,,,,,,,,,,,,,,,,,,,,,1028,2019_Mar_06_1504,mf_amp_cond2,3.0.4,60.00038487152272,
abuse,&&&&&,left,sanctity.vice,,,,,,,,0,0,0,185,,,,,,,,,,,,,,,,,,,,,LDT,right,1.8840291110100225,0,,,right,0,1.8840291110100225,,,,,,,,,,,,,,,,,,,,,,1028,2019_Mar_06_1504,mf_amp_cond2,3.0.4,60.00038487152272,
although,&&&&&&&&,left,neutral,,,,,,,,0,1,1,91,,,,,,,,,,,,,,,,,,,,,LDT,right,1.2005289932712913,0,,,right,0,1.2005289932712913,,,,,,,,,,,,,,,,,,,,,,1028,2019_Mar_06_1504,mf_amp_cond2,3.0.4,60.00038487152272,
even,&&&&,left,neutral,,,,,,,,0,2,2,4,,,,,,,,,,,,,,,,,,,,,LDT,right,0.633726192289032,0,,,right,0,0.633726192289032,,,,,,,,,,,,,,,,,,,,,,1028,2019_Mar_06_1504,mf_amp_cond2,3.0.4,60.00038487152272,
anyhow,&&&&&&,left,neutral,,,,,,,,0,3,3,117,,,,,,,,,,,,,,,,,,,,,LDT,right,0.8504457026720047,0,,,right,0,0.8504457026720047,,,,,,,,,,,,,,,,,,,,,,1028,2019_Mar_06_1504,mf_amp_cond2,3.0.4,60.00038487152272,
towards,&&&&&&&,left,neutral,,,,,,,,0,4,4,152,,,,,,,,,,,,,,,,,,,,,LDT,right,1.0504955423530191,0,,,right,0,1.0504955423530191,,,,,,,,,,,,,,,,,,,,,,1028,2019_Mar_06_1504,mf_amp_cond2,3.0.4,60.00038487152272,
aubos,&&&&&,right,nonword,,,,,,,,0,5,5,110,,,,,,,,,,,,,,,,,,,,,LDT,left,0.6670774003723636,0,,,left,0,0.6670774003723636,,,,,,,,,,,,,,,,,,,,,,1028,2019_Mar_06_1504,mf_amp_cond2,3.0.4,60.00038487152272,
frojecting,&&&&&&&&&&,right,nonword,,,,,,,,0,6,6,157,,,,,,,,,,,,,,,,,,,,,LDT,left,1.3839312917552888,0,,,left,0,1.3839312917552888,,,,,,,,,,,,,,,,,,,,,,1028,2019_Mar_06_1504,mf_amp_cond2,3.0.4,60.00038487152272,
Phintoism,&&&&&&&&&,right,nonword,,,,,,,,0,7,7,44,,,,,,,,,,,,,,,,,,,,,LDT,left,1.0838368081022054,0,,,left,0,1.0838368081022054,,,,,,,,,,,,,,,,,,,,,,1028,2019_Mar_06_1504,mf_amp_cond2,3.0.4,60.00038487152272,
conspiracy,&&&&&&&&&&,left,sanctity.vice,,,,,,,,0,8,8,162,,,,,,,,,,,,,,,,,,,,,LDT,right,0.6170616530580446,0,,,right,0,0.6170616530580446,,,,,,,,,,,,,,,,,,,,,,1028,2019_Mar_06_1504,mf_amp_cond2,3.0.4,60.00038487152272,
free,&&&&,left,fairness.virtue,,,,,,,,0,9,9,24,,,,,,,,,,,,,,,,,,,,,LDT,right,0.5670186446513981,0,,,right,0,0.5670186446513981,,,,,,,,,,,,,,,,,,,,,,1028,2019_Mar_06_1504,mf_amp_cond2,3.0.4,60.00038487152272,
gun,&&&,left,authority.vice,,,,,,,,0,10,10,198,,,,,,,,,,,,,,,,,,,,,LDT,right,0.6170549179660156,0,,,right,0,0.6170549179660156,,,,,,,,,,,,,,,,,,,,,,1028,2019_Mar_06_1504,mf_amp_cond2,3.0.4,60.00038487152272,
intelligence,&&&&&&&&&&&&,left,loyalty.virtue,,,,,,,,0,11,11,147,,,,,,,,,,,,,,,,,,,,,LDT,right,0.6837480331305414,0,,,right,0,0.6837480331305414,,,,,,,,,,,,,,,,,,,,,,1028,2019_Mar_06_1504,mf_amp_cond2,3.0.4,60.00038487152272,
framatic,&&&&&&&&,right,nonword,,,,,,,,0,12,12,102,,,,,,,,,,,,,,,,,,,,,LDT,left,1.7339818691834807,0,,,left,0,1.7339818691834807,,,,,,,,,,,,,,,,,,,,,,1028,2019_Mar_06_1504,mf_amp_cond2,3.0.4,60.00038487152272,
proached,&&&&&&&&,right,nonword,,,,,,,,0,13,13,46,,,,,,,,,,,,,,,,,,,,,LDT,right,2.2507650742772967,1,,,right,1,2.2507650742772967,,,,,,,,,,,,,,,,,,,,,,1028,2019_Mar_06_1504,mf_amp_cond2,3.0.4,60.00038487152272,
ensure,&&&&&&,left,fairness.virtue,,,,,,,,0,14,14,189,,,,,,,,,,,,,,,,,,,,,LDT,right,0.6503798271296546,0,,,right,0,0.6503798271296546,,,,,,,,,,,,,,,,,,,,,,1028,2019_Mar_06_1504,mf_amp_cond2,3.0.4,60.00038487152272,
pafer,&&&&&,right,nonword,,,,,,,,0,15,15,12,,,,,,,,,,,,,,,,,,,,,LDT,left,0.8004379733465612,0,,,left,0,0.8004379733465612,,,,,,,,,,,,,,,,,,,,,,1028,2019_Mar_06_1504,mf_amp_cond2,3.0.4,60.00038487152272,
taxpayung,&&&&&&&&&,right,nonword,,,,,,,,0,16,16,146,,,,,,,,,,,,,,,,,,,,,LDT,left,1.0338120807427913,0,,,left,0,1.0338120807427913,,,,,,,,,,,,,,,,,,,,,,1028,2019_Mar_06_1504,mf_amp_cond2,3.0.4,60.00038487152272,
clamorek,&&&&&&&&,right,nonword,,,,,,,,0,17,17,187,,,,,,,,,,,,,,,,,,,,,LDT,left,1.2172118134330958,0,,,left,0,1.2172118134330958,,,,,,,,,,,,,,,,,,,,,,1028,2019_Mar_06_1504,mf_amp_cond2,3.0.4,60.00038487152272,
were,&&&&,left,neutral,,,,,,,,0,18,18,29,,,,,,,,,,,,,,,,,,,,,LDT,right,0.6337451146682724,0,,,right,0,0.6337451146682724,,,,,,,,,,,,,,,,,,,,,,1028,2019_Mar_06_1504,mf_amp_cond2,3.0.4,60.00038487152272,
refused,&&&&&&&,left,authority.vice,,,,,,,,0,19,19,113,,,,,,,,,,,,,,,,,,,,,LDT,right,0.5503614819608629,0,,,right,0,0.5503614819608629,,,,,,,,,,,,,,,,,,,,,,1028,2019_Mar_06_1504,mf_amp_cond2,3.0.4,60.00038487152272,
embrace,&&&&&&&,left,authority.virtue,,,,,,,,0,20,20,123,,,,,,,,,,,,,,,,,,,,,LDT,right,1.4005900580668822,0,,,right,0,1.4005900580668822,,,,,,,,,,,,,,,,,,,,,,1028,2019_Mar_06_1504,mf_amp_cond2,3.0.4,60.00038487152272,
fifteen,&&&&&&&,left,neutral,,,,,,,,0,21,21,20,,,,,,,,,,,,,,,,,,,,,LDT,left,3.1343467828119174,1,,,left,1,3.1343467828119174,,,,,,,,,,,,,,,,,,,,,,1028,2019_Mar_06_1504,mf_amp_cond2,3.0.4,60.00038487152272,
unscothed,&&&&&&&&&,right,nonword,,,,,,,,0,22,22,161,,,,,,,,,,,,,,,,,,,,,LDT,left,0.9171510052401572,0,,,left,0,0.9171510052401572,,,,,,,,,,,,,,,,,,,,,,1028,2019_Mar_06_1504,mf_amp_cond2,3.0.4,60.00038487152272,
three,&&&&&,left,neutral,,,,,,,,0,23,23,140,,,,,,,,,,,,,,,,,,,,,LDT,right,0.5670426986180246,0,,,right,0,0.5670426986180246,,,,,,,,,,,,,,,,,,,,,,1028,2019_Mar_06_1504,mf_amp_cond2,3.0.4,60.00038487152272,
grovelire,&&&&&&&&&,right,nonword,,,,,,,,0,24,24,167,,,,,,,,,,,,,,,,,,,,,LDT,right,0.5004101991653442,1,,,right,1,0.5004101991653442,,,,,,,,,,,,,,,,,,,,,,1028,2019_Mar_06_1504,mf_amp_cond2,3.0.4,60.00038487152272,
lursuer,&&&&&&&,right,nonword,,,,,,,,0,25,25,92,,,,,,,,,,,,,,,,,,,,,LDT,right,1.0505109367659315,1,,,right,1,1.0505109367659315,,,,,,,,,,,,,,,,,,,,,,1028,2019_Mar_06_1504,mf_amp_cond2,3.0.4,60.00038487152272,
interests,&&&&&&&&&,left,fairness.virtue,,,,,,,,0,26,26,126,,,,,,,,,,,,,,,,,,,,,LDT,left,3.5677806719904765,1,,,left,1,3.5677806719904765,,,,,,,,,,,,,,,,,,,,,,1028,2019_Mar_06_1504,mf_amp_cond2,3.0.4,60.00038487152272,
greaks,&&&&&&,right,nonword,,,,,,,,0,27,27,64,,,,,,,,,,,,,,,,,,,,,LDT,left,1.4337744924705476,0,,,left,0,1.4337744924705476,,,,,,,,,,,,,,,,,,,,,,1028,2019_Mar_06_1504,mf_amp_cond2,3.0.4,60.00038487152272,
prones,&&&&&&,right,nonword,,,,,,,,0,28,28,142,,,,,,,,,,,,,,,,,,,,,LDT,right,0.6837387323612347,1,,,right,1,0.6837387323612347,,,,,,,,,,,,,,,,,,,,,,1028,2019_Mar_06_1504,mf_amp_cond2,3.0.4,60.00038487152272,
asn,&&&,right,nonword,,,,,,,,0,29,29,164,,,,,,,,,,,,,,,,,,,,,LDT,left,0.9504579540807754,0,,,left,0,0.9504579540807754,,,,,,,,,,,,,,,,,,,,,,1028,2019_Mar_06_1504,mf_amp_cond2,3.0.4,60.00038487152272,
dramens,&&&&&&&,right,nonword,,,,,,,,0,30,30,136,,,,,,,,,,,,,,,,,,,,,LDT,left,0.9337773789884523,0,,,left,0,0.9337773789884523,,,,,,,,,,,,,,,,,,,,,,1028,2019_Mar_06_1504,mf_amp_cond2,3.0.4,60.00038487152272,
wherever,&&&&&&&&,left,neutral,,,,,,,,0,31,31,115,,,,,,,,,,,,,,,,,,,,,LDT,left,0.9171166883315891,1,,,left,1,0.9171166883315891,,,,,,,,,,,,,,,,,,,,,,1028,2019_Mar_06_1504,mf_amp_cond2,3.0.4,60.00038487152272,
simplustic,&&&&&&&&&&,right,nonword,,,,,,,,0,32,32,119,,,,,,,,,,,,,,,,,,,,,LDT,left,1.10058505483903,0,,,left,0,1.10058505483903,,,,,,,,,,,,,,,,,,,,,,1028,2019_Mar_06_1504,mf_amp_cond2,3.0.4,60.00038487152272,
scock,&&&&&,right,nonword,,,,,,,,0,33,33,82,,,,,,,,,,,,,,,,,,,,,LDT,left,1.7506525020580739,0,,,left,0,1.7506525020580739,,,,,,,,,,,,,,,,,,,,,,1028,2019_Mar_06_1504,mf_amp_cond2,3.0.4,60.00038487152272,
each,&&&&,left,neutral,,,,,,,,0,34,34,17,,,,,,,,,,,,,,,,,,,,,LDT,left,2.050738326390274,1,,,left,1,2.050738326390274,,,,,,,,,,,,,,,,,,,,,,1028,2019_Mar_06_1504,mf_amp_cond2,3.0.4,60.00038487152272,
erdest,&&&&&&,right,nonword,,,,,,,,0,35,35,141,,,,,,,,,,,,,,,,,,,,,LDT,left,1.7339979050448164,0,,,left,0,1.7339979050448164,,,,,,,,,,,,,,,,,,,,,,1028,2019_Mar_06_1504,mf_amp_cond2,3.0.4,60.00038487152272,
drumbled,&&&&&&&&,right,nonword,,,,,,,,0,36,36,40,,,,,,,,,,,,,,,,,,,,,LDT,left,1.2172095683636144,0,,,left,0,1.2172095683636144,,,,,,,,,,,,,,,,,,,,,,1028,2019_Mar_06_1504,mf_amp_cond2,3.0.4,60.00038487152272,
therefore,&&&&&&&&&,left,neutral,,,,,,,,0,37,37,71,,,,,,,,,,,,,,,,,,,,,LDT,right,0.6504032394150272,0,,,right,0,0.6504032394150272,,,,,,,,,,,,,,,,,,,,,,1028,2019_Mar_06_1504,mf_amp_cond2,3.0.4,60.00038487152272,
nonobservalt,&&&&&&&&&&&&,right,nonword,,,,,,,,0,38,38,45,,,,,,,,,,,,,,,,,,,,,LDT,right,1.150515170302242,1,,,right,1,1.150515170302242,,,,,,,,,,,,,,,,,,,,,,1028,2019_Mar_06_1504,mf_amp_cond2,3.0.4,60.00038487152272,
iptervention,&&&&&&&&&&&&,right,nonword,,,,,,,,0,39,39,186,,,,,,,,,,,,,,,,,,,,,LDT,right,0.616885899216868,1,,,right,1,0.616885899216868,,,,,,,,,,,,,,,,,,,,,,1028,2019_Mar_06_1504,mf_amp_cond2,3.0.4,60.00038487152272,
galamitous,&&&&&&&&&&,right,nonword,,,,,,,,0,40,40,163,,,,,,,,,,,,,,,,,,,,,LDT,left,0.8337747490731999,0,,,left,0,0.8337747490731999,,,,,,,,,,,,,,,,,,,,,,1028,2019_Mar_06_1504,mf_amp_cond2,3.0.4,60.00038487152272,
toward,&&&&&&,left,neutral,,,,,,,,0,41,41,47,,,,,,,,,,,,,,,,,,,,,LDT,right,0.8171137376921251,0,,,right,0,0.8171137376921251,,,,,,,,,,,,,,,,,,,,,,1028,2019_Mar_06_1504,mf_amp_cond2,3.0.4,60.00038487152272,
Oregoniuns,&&&&&&&&&&,right,nonword,,,,,,,,0,42,42,194,,,,,,,,,,,,,,,,,,,,,LDT,left,0.6336793672526255,0,,,left,0,0.6336793672526255,,,,,,,,,,,,,,,,,,,,,,1028,2019_Mar_06_1504,mf_amp_cond2,3.0.4,60.00038487152272,
mostly,&&&&&&,left,neutral,,,,,,,,0,43,43,195,,,,,,,,,,,,,,,,,,,,,LDT,right,0.6337486426346004,0,,,right,0,0.6337486426346004,,,,,,,,,,,,,,,,,,,,,,1028,2019_Mar_06_1504,mf_amp_cond2,3.0.4,60.00038487152272,
hatigue,&&&&&&&,right,nonword,,,,,,,,0,44,44,125,,,,,,,,,,,,,,,,,,,,,LDT,right,1.08383969462011,1,,,right,1,1.08383969462011,,,,,,,,,,,,,,,,,,,,,,1028,2019_Mar_06_1504,mf_amp_cond2,3.0.4,60.00038487152272,
accused,&&&&&&&,left,fairness.vice,,,,,,,,0,45,45,60,,,,,,,,,,,,,,,,,,,,,LDT,right,0.6170603701611981,0,,,right,0,0.6170603701611981,,,,,,,,,,,,,,,,,,,,,,1028,2019_Mar_06_1504,mf_amp_cond2,3.0.4,60.00038487152272,
forty,&&&&&,left,neutral,,,,,,,,0,46,46,10,,,,,,,,,,,,,,,,,,,,,LDT,right,0.5003598462790251,0,,,right,0,0.5003598462790251,,,,,,,,,,,,,,,,,,,,,,1028,2019_Mar_06_1504,mf_amp_cond2,3.0.4,60.00038487152272,
metibolic,&&&&&&&&&,right,nonword,,,,,,,,0,47,47,183,,,,,,,,,,,,,,,,,,,,,LDT,left,1.1338442167034373,0,,,left,0,1.1338442167034373,,,,,,,,,,,,,,,,,,,,,,1028,2019_Mar_06_1504,mf_amp_cond2,3.0.4,60.00038487152272,
victims,&&&&&&&,left,care.vice,,,,,,,,0,48,48,138,,,,,,,,,,,,,,,,,,,,,LDT,right,0.5170324033824727,0,,,right,0,0.5170324033824727,,,,,,,,,,,,,,,,,,,,,,1028,2019_Mar_06_1504,mf_amp_cond2,3.0.4,60.00038487152272,
shoirmaster,&&&&&&&&&&&,None,nonword,,,,,,,,0,49,49,53,,,,,,,,,,,,,,,,,,,,,LDT,left,2.0173986641457304,0,,,left,0,2.0173986641457304,,,,,,,,,,,,,,,,,,,,,,1028,2019_Mar_06_1504,mf_amp_cond2,3.0.4,60.00038487152272,
pharing,&&&&&&&,right,nonword,,,,,,,,0,50,50,68,,,,,,,,,,,,,,,,,,,,,LDT,left,7.318548312061466,0,,,left,0,7.318548312061466,,,,,,,,,,,,,,,,,,,,,,1028,2019_Mar_06_1504,mf_amp_cond2,3.0.4,60.00038487152272,
strofe,&&&&&&,right,nonword,,,,,,,,0,51,51,19,,,,,,,,,,,,,,,,,,,,,LDT,right,0.4836866477271542,1,,,right,1,0.4836866477271542,,,,,,,,,,,,,,,,,,,,,,1028,2019_Mar_06_1504,mf_amp_cond2,3.0.4,60.00038487152272,
chonograph,&&&&&&&&&&,right,nonword,,,,,,,,0,52,52,98,,,,,,,,,,,,,,,,,,,,,LDT,right,1.2170617171796039,1,,,right,1,1.2170617171796039,,,,,,,,,,,,,,,,,,,,,,1028,2019_Mar_06_1504,mf_amp_cond2,3.0.4,60.00038487152272,
lenon,&&&&&,right,nonword,,,,,,,,0,53,53,156,,,,,,,,,,,,,,,,,,,,,LDT,left,0.7004122517537326,0,,,left,0,0.7004122517537326,,,,,,,,,,,,,,,,,,,,,,1028,2019_Mar_06_1504,mf_amp_cond2,3.0.4,60.00038487152272,
quarterbocks,&&&&&&&&&&&&,right,nonword,,,,,,,,0,54,54,72,,,,,,,,,,,,,,,,,,,,,LDT,left,0.6337130427127704,0,,,left,0,0.6337130427127704,,,,,,,,,,,,,,,,,,,,,,1028,2019_Mar_06_1504,mf_amp_cond2,3.0.4,60.00038487152272,
powerful,&&&&&&&&,left,authority.virtue,,,,,,,,0,55,55,94,,,,,,,,,,,,,,,,,,,,,LDT,right,0.7004125724779442,0,,,right,0,0.7004125724779442,,,,,,,,,,,,,,,,,,,,,,1028,2019_Mar_06_1504,mf_amp_cond2,3.0.4,60.00038487152272,
elduringly,&&&&&&&&&&,right,nonword,,,,,,,,0,56,56,76,,,,,,,,,,,,,,,,,,,,,LDT,left,0.6837329594418406,0,,,left,0,0.6837329594418406,,,,,,,,,,,,,,,,,,,,,,1028,2019_Mar_06_1504,mf_amp_cond2,3.0.4,60.00038487152272,
good,&&&&,left,care.virtue,,,,,,,,0,57,57,175,,,,,,,,,,,,,,,,,,,,,LDT,right,0.5002190507948399,0,,,right,0,0.5002190507948399,,,,,,,,,,,,,,,,,,,,,,1028,2019_Mar_06_1504,mf_amp_cond2,3.0.4,60.00038487152272,
viscs,&&&&&,None,nonword,,,,,,,,0,58,58,79,,,,,,,,,,,,,,,,,,,,,LDT,left,0.7004074408905581,0,,,left,0,0.7004074408905581,,,,,,,,,,,,,,,,,,,,,,1028,2019_Mar_06_1504,mf_amp_cond2,3.0.4,60.00038487152272,
mecan,&&&&&,right,nonword,,,,,,,,0,59,59,105,,,,,,,,,,,,,,,,,,,,,LDT,right,0.5170362520730123,1,,,right,1,0.5170362520730123,,,,,,,,,,,,,,,,,,,,,,1028,2019_Mar_06_1504,mf_amp_cond2,3.0.4,60.00038487152272,
ilportation,&&&&&&&&&&&,right,nonword,,,,,,,,0,60,60,160,,,,,,,,,,,,,,,,,,,,,LDT,left,0.5171234875451773,0,,,left,0,0.5171234875451773,,,,,,,,,,,,,,,,,,,,,,1028,2019_Mar_06_1504,mf_amp_cond2,3.0.4,60.00038487152272,
eight,&&&&&,left,neutral,,,,,,,,0,61,61,176,,,,,,,,,,,,,,,,,,,,,LDT,right,1.1505279990378767,0,,,right,0,1.1505279990378767,,,,,,,,,,,,,,,,,,,,,,1028,2019_Mar_06_1504,mf_amp_cond2,3.0.4,60.00038487152272,
slending,&&&&&&&&,right,nonword,,,,,,,,0,62,62,18,,,,,,,,,,,,,,,,,,,,,LDT,left,1.8006490061525255,0,,,left,0,1.8006490061525255,,,,,,,,,,,,,,,,,,,,,,1028,2019_Mar_06_1504,mf_amp_cond2,3.0.4,60.00038487152272,
both,&&&&,left,neutral,,,,,,,,0,63,63,32,,,,,,,,,,,,,,,,,,,,,LDT,right,0.7504305647453293,0,,,right,0,0.7504305647453293,,,,,,,,,,,,,,,,,,,,,,1028,2019_Mar_06_1504,mf_amp_cond2,3.0.4,60.00038487152272,
sexual,&&&&&&,left,sanctity.vice,,,,,,,,0,64,64,48,,,,,,,,,,,,,,,,,,,,,LDT,right,0.550367254880257,0,,,right,0,0.550367254880257,,,,,,,,,,,,,,,,,,,,,,1028,2019_Mar_06_1504,mf_amp_cond2,3.0.4,60.00038487152272,
menizen,&&&&&&&,None,nonword,,,,,,,,0,65,65,0,,,,,,,,,,,,,,,,,,,,,LDT,left,1.2172304150881246,0,,,left,0,1.2172304150881246,,,,,,,,,,,,,,,,,,,,,,1028,2019_Mar_06_1504,mf_amp_cond2,3.0.4,60.00038487152272,
itself,&&&&&&,left,neutral,,,,,,,,0,66,66,21,,,,,,,,,,,,,,,,,,,,,LDT,right,0.5503544261446223,0,,,right,0,0.5503544261446223,,,,,,,,,,,,,,,,,,,,,,1028,2019_Mar_06_1504,mf_amp_cond2,3.0.4,60.00038487152272,
edancipation,&&&&&&&&&&&&,None,nonword,,,,,,,,0,67,67,31,,,,,,,,,,,,,,,,,,,,,LDT,left,0.8004386147949845,0,,,left,0,0.8004386147949845,,,,,,,,,,,,,,,,,,,,,,1028,2019_Mar_06_1504,mf_amp_cond2,3.0.4,60.00038487152272,
clean,&&&&&,left,sanctity.virtue,,,,,,,,0,68,68,130,,,,,,,,,,,,,,,,,,,,,LDT,right,0.4670156941283494,0,,,right,0,0.4670156941283494,,,,,,,,,,,,,,,,,,,,,,1028,2019_Mar_06_1504,mf_amp_cond2,3.0.4,60.00038487152272,
latterly,&&&&&&&&,left,neutral,,,,,,,,0,69,69,80,,,,,,,,,,,,,,,,,,,,,LDT,left,0.9338084886549041,1,,,left,1,0.9338084886549041,,,,,,,,,,,,,,,,,,,,,,1028,2019_Mar_06_1504,mf_amp_cond2,3.0.4,60.00038487152272,
hope,&&&&,left,loyalty.virtue,,,,,,,,0,70,70,180,,,,,,,,,,,,,,,,,,,,,LDT,right,0.5003450931981206,0,,,right,0,0.5003450931981206,,,,,,,,,,,,,,,,,,,,,,1028,2019_Mar_06_1504,mf_amp_cond2,3.0.4,60.00038487152272,
front,&&&&&,left,neutral,,,,,,,,0,71,71,182,,,,,,,,,,,,,,,,,,,,,LDT,right,0.6504186340607703,0,,,right,0,0.6504186340607703,,,,,,,,,,,,,,,,,,,,,,1028,2019_Mar_06_1504,mf_amp_cond2,3.0.4,60.00038487152272,
imebreaker,&&&&&&&&&&,right,nonword,,,,,,,,0,72,72,166,,,,,,,,,,,,,,,,,,,,,LDT,left,1.350588743109256,0,,,left,0,1.350588743109256,,,,,,,,,,,,,,,,,,,,,,1028,2019_Mar_06_1504,mf_amp_cond2,3.0.4,60.00038487152272,
ban,&&&,left,loyalty.vice,,,,,,,,0,73,73,107,,,,,,,,,,,,,,,,,,,,,LDT,right,1.2505364018725231,0,,,right,0,1.2505364018725231,,,,,,,,,,,,,,,,,,,,,,1028,2019_Mar_06_1504,mf_amp_cond2,3.0.4,60.00038487152272,
supervuned,&&&&&&&&&&,right,nonword,,,,,,,,0,74,74,2,,,,,,,,,,,,,,,,,,,,,LDT,left,1.2172018712153658,0,,,left,0,1.2172018712153658,,,,,,,,,,,,,,,,,,,,,,1028,2019_Mar_06_1504,mf_amp_cond2,3.0.4,60.00038487152272,
harassment,&&&&&&&&&&,left,sanctity.vice,,,,,,,,0,75,75,86,,,,,,,,,,,,,,,,,,,,,LDT,right,0.6504003530135378,0,,,right,0,0.6504003530135378,,,,,,,,,,,,,,,,,,,,,,1028,2019_Mar_06_1504,mf_amp_cond2,3.0.4,60.00038487152272,
amount,&&&&&&,left,neutral,,,,,,,,0,76,76,104,,,,,,,,,,,,,,,,,,,,,LDT,right,0.7503991342382506,0,,,right,0,0.7503991342382506,,,,,,,,,,,,,,,,,,,,,,1028,2019_Mar_06_1504,mf_amp_cond2,3.0.4,60.00038487152272,
fraud,&&&&&,left,fairness.vice,,,,,,,,0,77,77,137,,,,,,,,,,,,,,,,,,,,,LDT,right,0.6837464296258986,0,,,right,0,0.6837464296258986,,,,,,,,,,,,,,,,,,,,,,1028,2019_Mar_06_1504,mf_amp_cond2,3.0.4,60.00038487152272,
killed,&&&&&&,left,care.vice,,,,,,,,0,78,78,112,,,,,,,,,,,,,,,,,,,,,LDT,right,0.43366384459659457,0,,,right,0,0.43366384459659457,,,,,,,,,,,,,,,,,,,,,,1028,2019_Mar_06_1504,mf_amp_cond2,3.0.4,60.00038487152272,
thru,&&&&,left,neutral,,,,,,,,0,79,79,135,,,,,,,,,,,,,,,,,,,,,LDT,left,1.5672716916305944,1,,,left,1,1.5672716916305944,,,,,,,,,,,,,,,,,,,,,,1028,2019_Mar_06_1504,mf_amp_cond2,3.0.4,60.00038487152272,
stindig,&&&&&&&,right,nonword,,,,,,,,0,80,80,28,,,,,,,,,,,,,,,,,,,,,LDT,right,0.8671102419029921,1,,,right,1,0.8671102419029921,,,,,,,,,,,,,,,,,,,,,,1028,2019_Mar_06_1504,mf_amp_cond2,3.0.4,60.00038487152272,
also,&&&&,left,neutral,,,,,,,,0,81,81,159,,,,,,,,,,,,,,,,,,,,,LDT,right,0.6670799660496414,0,,,right,0,0.6670799660496414,,,,,,,,,,,,,,,,,,,,,,1028,2019_Mar_06_1504,mf_amp_cond2,3.0.4,60.00038487152272,
freedom,&&&&&&&,left,sanctity.virtue,,,,,,,,0,82,82,192,,,,,,,,,,,,,,,,,,,,,LDT,right,0.46701216616202146,0,,,right,0,0.46701216616202146,,,,,,,,,,,,,,,,,,,,,,1028,2019_Mar_06_1504,mf_amp_cond2,3.0.4,60.00038487152272,
bycled,&&&&&&,None,nonword,,,,,,,,0,83,83,73,,,,,,,,,,,,,,,,,,,,,LDT,right,1.5506466008955613,0,,,right,0,1.5506466008955613,,,,,,,,,,,,,,,,,,,,,,1028,2019_Mar_06_1504,mf_amp_cond2,3.0.4,60.00038487152272,
festate,&&&&&&&,right,nonword,,,,,,,,0,84,84,27,,,,,,,,,,,,,,,,,,,,,LDT,right,0.7170832053525373,1,,,right,1,0.7170832053525373,,,,,,,,,,,,,,,,,,,,,,1028,2019_Mar_06_1504,mf_amp_cond2,3.0.4,60.00038487152272,
benefit,&&&&&&&,left,fairness.virtue,,,,,,,,0,85,85,58,,,,,,,,,,,,,,,,,,,,,LDT,right,0.48370524926576763,0,,,right,0,0.48370524926576763,,,,,,,,,,,,,,,,,,,,,,1028,2019_Mar_06_1504,mf_amp_cond2,3.0.4,60.00038487152272,
noone,&&&&&,left,neutral,,,,,,,,0,86,86,77,,,,,,,,,,,,,,,,,,,,,LDT,right,0.6337226644391194,0,,,right,0,0.6337226644391194,,,,,,,,,,,,,,,,,,,,,,1028,2019_Mar_06_1504,mf_amp_cond2,3.0.4,60.00038487152272,
illegal,&&&&&&&,left,fairness.vice,,,,,,,,0,87,87,129,,,,,,,,,,,,,,,,,,,,,LDT,right,0.5503807250643149,0,,,right,0,0.5503807250643149,,,,,,,,,,,,,,,,,,,,,,1028,2019_Mar_06_1504,mf_amp_cond2,3.0.4,60.00038487152272,
dormandi,&&&&&&&&,None,nonword,,,,,,,,0,88,88,89,,,,,,,,,,,,,,,,,,,,,LDT,left,0.6837249414529651,0,,,left,0,0.6837249414529651,,,,,,,,,,,,,,,,,,,,,,1028,2019_Mar_06_1504,mf_amp_cond2,3.0.4,60.00038487152272,
somehow,&&&&&&&,left,neutral,,,,,,,,0,89,89,177,,,,,,,,,,,,,,,,,,,,,LDT,right,1.1171809603692964,0,,,right,0,1.1171809603692964,,,,,,,,,,,,,,,,,,,,,,1028,2019_Mar_06_1504,mf_amp_cond2,3.0.4,60.00038487152272,
squets,&&&&&&,right,nonword,,,,,,,,0,90,90,56,,,,,,,,,,,,,,,,,,,,,LDT,left,1.3839098036987707,0,,,left,0,1.3839098036987707,,,,,,,,,,,,,,,,,,,,,,1028,2019_Mar_06_1504,mf_amp_cond2,3.0.4,60.00038487152272,
fegard,&&&&&&,right,nonword,,,,,,,,0,91,91,30,,,,,,,,,,,,,,,,,,,,,LDT,left,0.7170883368235081,0,,,left,0,0.7170883368235081,,,,,,,,,,,,,,,,,,,,,,1028,2019_Mar_06_1504,mf_amp_cond2,3.0.4,60.00038487152272,
victim,&&&&&&,left,care.vice,,,,,,,,0,92,92,173,,,,,,,,,,,,,,,,,,,,,LDT,right,3.451068281661719,0,,,right,0,3.451068281661719,,,,,,,,,,,,,,,,,,,,,,1028,2019_Mar_06_1504,mf_amp_cond2,3.0.4,60.00038487152272,
reelectiob,&&&&&&&&&&,right,nonword,,,,,,,,0,93,93,81,,,,,,,,,,,,,,,,,,,,,LDT,left,1.2505739260232076,0,,,left,0,1.2505739260232076,,,,,,,,,,,,,,,,,,,,,,1028,2019_Mar_06_1504,mf_amp_cond2,3.0.4,60.00038487152272,
rivernoat,&&&&&&&&&,right,nonword,,,,,,,,0,94,94,66,,,,,,,,,,,,,,,,,,,,,LDT,left,0.7670809924602509,0,,,left,0,0.7670809924602509,,,,,,,,,,,,,,,,,,,,,,1028,2019_Mar_06_1504,mf_amp_cond2,3.0.4,60.00038487152272,
war,&&&,left,sanctity.vice,,,,,,,,0,95,95,155,,,,,,,,,,,,,,,,,,,,,LDT,right,0.5670542444568127,0,,,right,0,0.5670542444568127,,,,,,,,,,,,,,,,,,,,,,1028,2019_Mar_06_1504,mf_amp_cond2,3.0.4,60.00038487152272,
coom,&&&&,right,nonword,,,,,,,,0,96,96,154,,,,,,,,,,,,,,,,,,,,,LDT,left,1.3837786297081038,0,,,left,0,1.3837786297081038,,,,,,,,,,,,,,,,,,,,,,1028,2019_Mar_06_1504,mf_amp_cond2,3.0.4,60.00038487152272,
values,&&&&&&,left,sanctity.virtue,,,,,,,,0,97,97,11,,,,,,,,,,,,,,,,,,,,,LDT,right,0.4170426023192704,0,,,right,0,0.4170426023192704,,,,,,,,,,,,,,,,,,,,,,1028,2019_Mar_06_1504,mf_amp_cond2,3.0.4,60.00038487152272,
amoungst,&&&&&&&&,left,neutral,,,,,,,,0,98,98,169,,,,,,,,,,,,,,,,,,,,,LDT,right,0.5003274537157267,0,,,right,0,0.5003274537157267,,,,,,,,,,,,,,,,,,,,,,1028,2019_Mar_06_1504,mf_amp_cond2,3.0.4,60.00038487152272,
neutralust,&&&&&&&&&&,right,nonword,,,,,,,,0,99,99,15,,,,,,,,,,,,,,,,,,,,,LDT,right,1.450585920829326,1,,,right,1,1.450585920829326,,,,,,,,,,,,,,,,,,,,,,1028,2019_Mar_06_1504,mf_amp_cond2,3.0.4,60.00038487152272,
critics,&&&&&&&,left,loyalty.vice,,,,,,,,0,100,100,36,,,,,,,,,,,,,,,,,,,,,LDT,right,0.6503718091407791,0,,,right,0,0.6503718091407791,,,,,,,,,,,,,,,,,,,,,,1028,2019_Mar_06_1504,mf_amp_cond2,3.0.4,60.00038487152272,
fangsters,&&&&&&&&&,right,nonword,,,,,,,,0,101,101,193,,,,,,,,,,,,,,,,,,,,,LDT,right,0.36703840096015483,1,,,right,1,0.36703840096015483,,,,,,,,,,,,,,,,,,,,,,1028,2019_Mar_06_1504,mf_amp_cond2,3.0.4,60.00038487152272,
perified,&&&&&&&&,right,nonword,,,,,,,,0,102,102,9,,,,,,,,,,,,,,,,,,,,,LDT,left,0.6170693502062932,0,,,left,0,0.6170693502062932,,,,,,,,,,,,,,,,,,,,,,1028,2019_Mar_06_1504,mf_amp_cond2,3.0.4,60.00038487152272,
ejanulated,&&&&&&&&&&,right,nonword,,,,,,,,0,103,103,59,,,,,,,,,,,,,,,,,,,,,LDT,left,0.6503997115651146,0,,,left,0,0.6503997115651146,,,,,,,,,,,,,,,,,,,,,,1028,2019_Mar_06_1504,mf_amp_cond2,3.0.4,60.00038487152272,
antral,&&&&&&,right,nonword,,,,,,,,0,104,104,131,,,,,,,,,,,,,,,,,,,,,LDT,right,0.4003196923295036,1,,,right,1,0.4003196923295036,,,,,,,,,,,,,,,,,,,,,,1028,2019_Mar_06_1504,mf_amp_cond2,3.0.4,60.00038487152272,
hence,&&&&&,left,neutral,,,,,,,,0,105,105,99,,,,,,,,,,,,,,,,,,,,,LDT,left,0.40032450307626277,1,,,left,1,0.40032450307626277,,,,,,,,,,,,,,,,,,,,,,1028,2019_Mar_06_1504,mf_amp_cond2,3.0.4,60.00038487152272,
faspberry,&&&&&&&&&,None,nonword,,,,,,,,0,106,106,181,,,,,,,,,,,,,,,,,,,,,LDT,right,0.48368793062400073,0,,,right,0,0.48368793062400073,,,,,,,,,,,,,,,,,,,,,,1028,2019_Mar_06_1504,mf_amp_cond2,3.0.4,60.00038487152272,
erks,&&&&,right,nonword,,,,,,,,0,107,107,171,,,,,,,,,,,,,,,,,,,,,LDT,right,0.7504219053080305,1,,,right,1,0.7504219053080305,,,,,,,,,,,,,,,,,,,,,,1028,2019_Mar_06_1504,mf_amp_cond2,3.0.4,60.00038487152272,
been,&&&&,left,neutral,,,,,,,,0,108,108,188,,,,,,,,,,,,,,,,,,,,,LDT,left,0.16696386586409062,1,,,left,1,0.16696386586409062,,,,,,,,,,,,,,,,,,,,,,1028,2019_Mar_06_1504,mf_amp_cond2,3.0.4,60.00038487152272,
framo,&&&&&,right,nonword,,,,,,,,0,109,109,158,,,,,,,,,,,,,,,,,,,,,LDT,right,0.0336376097984612,1,,,right,1,0.0336376097984612,,,,,,,,,,,,,,,,,,,,,,1028,2019_Mar_06_1504,mf_amp_cond2,3.0.4,60.00038487152272,
could,&&&&&,left,neutral,,,,,,,,0,110,110,62,,,,,,,,,,,,,,,,,,,,,LDT,right,0.2502949007321149,0,,,right,0,0.2502949007321149,,,,,,,,,,,,,,,,,,,,,,1028,2019_Mar_06_1504,mf_amp_cond2,3.0.4,60.00038487152272,
gournful,&&&&&&&&,right,nonword,,,,,,,,0,111,111,197,,,,,,,,,,,,,,,,,,,,,LDT,right,0.26695527066476643,1,,,right,1,0.26695527066476643,,,,,,,,,,,,,,,,,,,,,,1028,2019_Mar_06_1504,mf_amp_cond2,3.0.4,60.00038487152272,
besides,&&&&&&&,left,neutral,,,,,,,,0,112,112,128,,,,,,,,,,,,,,,,,,,,,LDT,right,0.00025368842761963606,0,,,right,0,0.00025368842761963606,,,,,,,,,,,,,,,,,,,,,,1028,2019_Mar_06_1504,mf_amp_cond2,3.0.4,60.00038487152272,
oam,&&&,right,nonword,,,,,,,,0,113,113,179,,,,,,,,,,,,,,,,,,,,,LDT,right,0.016929132165387273,1,,,right,1,0.016929132165387273,,,,,,,,,,,,,,,,,,,,,,1028,2019_Mar_06_1504,mf_amp_cond2,3.0.4,60.00038487152272,
idexpressible,&&&&&&&&&&&&&,right,nonword,,,,,,,,0,114,114,191,,,,,,,,,,,,,,,,,,,,,LDT,right,0.3003215524367988,1,,,right,1,0.3003215524367988,,,,,,,,,,,,,,,,,,,,,,1028,2019_Mar_06_1504,mf_amp_cond2,3.0.4,60.00038487152272,
tabin,&&&&&,right,nonword,,,,,,,,0,115,115,127,,,,,,,,,,,,,,,,,,,,,LDT,left,0.15026597201358527,0,,,left,0,0.15026597201358527,,,,,,,,,,,,,,,,,,,,,,1028,2019_Mar_06_1504,mf_amp_cond2,3.0.4,60.00038487152272,
anything,&&&&&&&&,left,neutral,,,,,,,,0,116,116,133,,,,,,,,,,,,,,,,,,,,,LDT,left,0.6003737013088539,1,,,left,1,0.6003737013088539,,,,,,,,,,,,,,,,,,,,,,1028,2019_Mar_06_1504,mf_amp_cond2,3.0.4,60.00038487152272,
tracious,&&&&&&&&,right,nonword,,,,,,,,0,117,117,87,,,,,,,,,,,,,,,,,,,,,LDT,left,0.18360146472696215,0,,,left,0,0.18360146472696215,,,,,,,,,,,,,,,,,,,,,,1028,2019_Mar_06_1504,mf_amp_cond2,3.0.4,60.00038487152272,
help,&&&&,left,care.virtue,,,,,,,,0,118,118,3,,,,,,,,,,,,,,,,,,,,,LDT,left,0.10024413093924522,1,,,left,1,0.10024413093924522,,,,,,,,,,,,,,,,,,,,,,1028,2019_Mar_06_1504,mf_amp_cond2,3.0.4,60.00038487152272,
energy,&&&&&&,left,sanctity.virtue,,,,,,,,0,119,119,33,,,,,,,,,,,,,,,,,,,,,LDT,right,0.2669450077228248,0,,,right,0,0.2669450077228248,,,,,,,,,,,,,,,,,,,,,,1028,2019_Mar_06_1504,mf_amp_cond2,3.0.4,60.00038487152272,
faith,&&&&&,left,sanctity.virtue,,,,,,,,0,120,120,26,,,,,,,,,,,,,,,,,,,,,LDT,left,0.16690741945058107,1,,,left,1,0.16690741945058107,,,,,,,,,,,,,,,,,,,,,,1028,2019_Mar_06_1504,mf_amp_cond2,3.0.4,60.00038487152272,
dumid,&&&&&,right,nonword,,,,,,,,0,121,121,190,,,,,,,,,,,,,,,,,,,,,LDT,left,0.16694205708336085,0,,,left,0,0.16694205708336085,,,,,,,,,,,,,,,,,,,,,,1028,2019_Mar_06_1504,mf_amp_cond2,3.0.4,60.00038487152272,
celebrated,&&&&&&&&&&,left,authority.virtue,,,,,,,,0,122,122,23,,,,,,,,,,,,,,,,,,,,,LDT,left,0.03356576873920858,1,,,left,1,0.03356576873920858,,,,,,,,,,,,,,,,,,,,,,1028,2019_Mar_06_1504,mf_amp_cond2,3.0.4,60.00038487152272,
crime,&&&&&,left,fairness.vice,,,,,,,,0,123,123,50,,,,,,,,,,,,,,,,,,,,,LDT,left,0.15023710718378425,1,,,left,1,0.15023710718378425,,,,,,,,,,,,,,,,,,,,,,1028,2019_Mar_06_1504,mf_amp_cond2,3.0.4,60.00038487152272,
restore,&&&&&&&,left,care.virtue,,,,,,,,0,124,124,67,,,,,,,,,,,,,,,,,,,,,LDT,left,0.3169844881631434,1,,,left,1,0.3169844881631434,,,,,,,,,,,,,,,,,,,,,,1028,2019_Mar_06_1504,mf_amp_cond2,3.0.4,60.00038487152272,
atson,&&&&&,right,nonword,,,,,,,,0,125,125,144,,,,,,,,,,,,,,,,,,,,,LDT,right,0.3503251124639064,1,,,right,1,0.3503251124639064,,,,,,,,,,,,,,,,,,,,,,1028,2019_Mar_06_1504,mf_amp_cond2,3.0.4,60.00038487152272,
Loorish,&&&&&&&,right,nonword,,,,,,,,0,126,126,93,,,,,,,,,,,,,,,,,,,,,LDT,left,0.13357449229806662,0,,,left,0,0.13357449229806662,,,,,,,,,,,,,,,,,,,,,,1028,2019_Mar_06_1504,mf_amp_cond2,3.0.4,60.00038487152272,
shot,&&&&,left,care.vice,,,,,,,,0,127,127,43,,,,,,,,,,,,,,,,,,,,,LDT,left,0.266972589539364,1,,,left,1,0.266972589539364,,,,,,,,,,,,,,,,,,,,,,1028,2019_Mar_06_1504,mf_amp_cond2,3.0.4,60.00038487152272,
gedious,&&&&&&&,right,nonword,,,,,,,,0,128,128,114,,,,,,,,,,,,,,,,,,,,,LDT,right,0.3169655656674877,1,,,right,1,0.3169655656674877,,,,,,,,,,,,,,,,,,,,,,1028,2019_Mar_06_1504,mf_amp_cond2,3.0.4,60.00038487152272,
elsewhere,&&&&&&&&&,left,neutral,,,,,,,,0,129,129,120,,,,,,,,,,,,,,,,,,,,,LDT,right,0.10025631834287196,0,,,right,0,0.10025631834287196,,,,,,,,,,,,,,,,,,,,,,1028,2019_Mar_06_1504,mf_amp_cond2,3.0.4,60.00038487152272,
focomotive,&&&&&&&&&&,right,nonword,,,,,,,,0,130,130,97,,,,,,,,,,,,,,,,,,,,,LDT,right,0.0002584991743788123,1,,,right,1,0.0002584991743788123,,,,,,,,,,,,,,,,,,,,,,1028,2019_Mar_06_1504,mf_amp_cond2,3.0.4,60.00038487152272,
precificity,&&&&&&&&&&&,right,nonword,,,,,,,,0,131,131,5,,,,,,,,,,,,,,,,,,,,,LDT,right,0.10025503544602543,1,,,right,1,0.10025503544602543,,,,,,,,,,,,,,,,,,,,,,1028,2019_Mar_06_1504,mf_amp_cond2,3.0.4,60.00038487152272,
least,&&&&&,left,neutral,,,,,,,,0,132,132,116,,,,,,,,,,,,,,,,,,,,,LDT,left,0.10025118687190115,1,,,left,1,0.10025118687190115,,,,,,,,,,,,,,,,,,,,,,1028,2019_Mar_06_1504,mf_amp_cond2,3.0.4,60.00038487152272,
protesters,&&&&&&&&&&,left,authority.vice,,,,,,,,0,133,133,149,,,,,,,,,,,,,,,,,,,,,LDT,right,0.10024445166345686,0,,,right,0,0.10024445166345686,,,,,,,,,,,,,,,,,,,,,,1028,2019_Mar_06_1504,mf_amp_cond2,3.0.4,60.00038487152272,
wump,&&&&,right,nonword,,,,,,,,0,134,134,41,,,,,,,,,,,,,,,,,,,,,LDT,right,0.21695042785722762,1,,,right,1,0.21695042785722762,,,,,,,,,,,,,,,,,,,,,,1028,2019_Mar_06_1504,mf_amp_cond2,3.0.4,60.00038487152272,
done,&&&&,left,neutral,,,,,,,,0,135,135,14,,,,,,,,,,,,,,,,,,,,,LDT,right,0.18361621780786663,0,,,right,0,0.18361621780786663,,,,,,,,,,,,,,,,,,,,,,1028,2019_Mar_06_1504,mf_amp_cond2,3.0.4,60.00038487152272,
opportunity,&&&&&&&&&&&,left,fairness.virtue,,,,,,,,0,136,136,134,,,,,,,,,,,,,,,,,,,,,LDT,right,0.9171481188386679,0,,,right,0,0.9171481188386679,,,,,,,,,,,,,,,,,,,,,,1028,2019_Mar_06_1504,mf_amp_cond2,3.0.4,60.00038487152272,
crilfully,&&&&&&&&&,right,nonword,,,,,,,,0,137,137,103,,,,,,,,,,,,,,,,,,,,,LDT,left,1.500598140177317,0,,,left,0,1.500598140177317,,,,,,,,,,,,,,,,,,,,,,1028,2019_Mar_06_1504,mf_amp_cond2,3.0.4,60.00038487152272,
nuckheap,&&&&&&&&,right,nonword,,,,,,,,0,138,138,7,,,,,,,,,,,,,,,,,,,,,LDT,right,0.5670590552035719,1,,,right,1,0.5670590552035719,,,,,,,,,,,,,,,,,,,,,,1028,2019_Mar_06_1504,mf_amp_cond2,3.0.4,60.00038487152272,
smapper,&&&&&&&,right,nonword,,,,,,,,0,139,139,121,,,,,,,,,,,,,,,,,,,,,LDT,right,0.7170838468009606,1,,,right,1,0.7170838468009606,,,,,,,,,,,,,,,,,,,,,,1028,2019_Mar_06_1504,mf_amp_cond2,3.0.4,60.00038487152272,
friends,&&&&&&&,left,loyalty.virtue,,,,,,,,0,140,140,51,,,,,,,,,,,,,,,,,,,,,LDT,right,1.2838799126911908,0,,,right,0,1.2838799126911908,,,,,,,,,,,,,,,,,,,,,,1028,2019_Mar_06_1504,mf_amp_cond2,3.0.4,60.00038487152272,
everything,&&&&&&&&&&,left,neutral,,,,,,,,0,141,141,84,,,,,,,,,,,,,,,,,,,,,LDT,left,0.7337769299047068,1,,,left,1,0.7337769299047068,,,,,,,,,,,,,,,,,,,,,,1028,2019_Mar_06_1504,mf_amp_cond2,3.0.4,60.00038487152272,
couldnt,&&&&&&&,left,neutral,,,,,,,,0,142,142,63,,,,,,,,,,,,,,,,,,,,,LDT,left,1.0504926559515297,1,,,left,1,1.0504926559515297,,,,,,,,,,,,,,,,,,,,,,1028,2019_Mar_06_1504,mf_amp_cond2,3.0.4,60.00038487152272,
black,&&&&&,left,loyalty.vice,,,,,,,,0,143,143,22,,,,,,,,,,,,,,,,,,,,,LDT,right,0.4503505134489387,0,,,right,0,0.4503505134489387,,,,,,,,,,,,,,,,,,,,,,1028,2019_Mar_06_1504,mf_amp_cond2,3.0.4,60.00038487152272,
openet,&&&&&&,None,nonword,,,,,,,,0,144,144,178,,,,,,,,,,,,,,,,,,,,,LDT,left,0.8836599639616907,0,,,left,0,0.8836599639616907,,,,,,,,,,,,,,,,,,,,,,1028,2019_Mar_06_1504,mf_amp_cond2,3.0.4,60.00038487152272,
spag,&&&&,None,nonword,,,,,,,,0,145,145,13,,,,,,,,,,,,,,,,,,,,,LDT,left,1.150535375578329,0,,,left,0,1.150535375578329,,,,,,,,,,,,,,,,,,,,,,1028,2019_Mar_06_1504,mf_amp_cond2,3.0.4,60.00038487152272,
myself,&&&&&&,left,neutral,,,,,,,,0,146,146,199,,,,,,,,,,,,,,,,,,,,,LDT,right,0.4670195425860584,0,,,right,0,0.4670195425860584,,,,,,,,,,,,,,,,,,,,,,1028,2019_Mar_06_1504,mf_amp_cond2,3.0.4,60.00038487152272,
presentkess,&&&&&&&&&&&,right,nonword,,,,,,,,0,147,147,52,,,,,,,,,,,,,,,,,,,,,LDT,left,1.6673163356026635,0,,,left,0,1.6673163356026635,,,,,,,,,,,,,,,,,,,,,,1028,2019_Mar_06_1504,mf_amp_cond2,3.0.4,60.00038487152272,
else,&&&&,left,neutral,,,,,,,,0,148,148,70,,,,,,,,,,,,,,,,,,,,,LDT,right,0.8005098142893985,0,,,right,0,0.8005098142893985,,,,,,,,,,,,,,,,,,,,,,1028,2019_Mar_06_1504,mf_amp_cond2,3.0.4,60.00038487152272,
fighters,&&&&&&&&,left,authority.vice,,,,,,,,0,149,149,37,,,,,,,,,,,,,,,,,,,,,LDT,left,0.7337711569853127,1,,,left,1,0.7337711569853127,,,,,,,,,,,,,,,,,,,,,,1028,2019_Mar_06_1504,mf_amp_cond2,3.0.4,60.00038487152272,
emports,&&&&&&&,right,nonword,,,,,,,,0,150,150,74,,,,,,,,,,,,,,,,,,,,,LDT,right,0.7504312061937526,1,,,right,1,0.7504312061937526,,,,,,,,,,,,,,,,,,,,,,1028,2019_Mar_06_1504,mf_amp_cond2,3.0.4,60.00038487152272,
saned,&&&&&,None,nonword,,,,,,,,0,151,151,85,,,,,,,,,,,,,,,,,,,,,LDT,right,1.2171989848138765,0,,,right,0,1.2171989848138765,,,,,,,,,,,,,,,,,,,,,,1028,2019_Mar_06_1504,mf_amp_cond2,3.0.4,60.00038487152272,
vurtain,&&&&&&&,right,nonword,,,,,,,,0,152,152,42,,,,,,,,,,,,,,,,,,,,,LDT,left,0.9671519994735718,0,,,left,0,0.9671519994735718,,,,,,,,,,,,,,,,,,,,,,1028,2019_Mar_06_1504,mf_amp_cond2,3.0.4,60.00038487152272,
tove,&&&&,right,nonword,,,,,,,,0,153,153,6,,,,,,,,,,,,,,,,,,,,,LDT,right,1.1338541590375826,1,,,right,1,1.1338541590375826,,,,,,,,,,,,,,,,,,,,,,1028,2019_Mar_06_1504,mf_amp_cond2,3.0.4,60.00038487152272,
chreams,&&&&&&&,right,nonword,,,,,,,,0,154,154,145,,,,,,,,,,,,,,,,,,,,,LDT,right,0.917091672308743,1,,,right,1,0.917091672308743,,,,,,,,,,,,,,,,,,,,,,1028,2019_Mar_06_1504,mf_amp_cond2,3.0.4,60.00038487152272,
further,&&&&&&&,left,neutral,,,,,,,,0,155,155,35,,,,,,,,,,,,,,,,,,,,,LDT,right,1.017168388236314,0,,,right,0,1.017168388236314,,,,,,,,,,,,,,,,,,,,,,1028,2019_Mar_06_1504,mf_amp_cond2,3.0.4,60.00038487152272,
whereafter,&&&&&&&&&&,left,neutral,,,,,,,,0,156,156,49,,,,,,,,,,,,,,,,,,,,,LDT,left,2.100757922162302,1,,,left,1,2.100757922162302,,,,,,,,,,,,,,,,,,,,,,1028,2019_Mar_06_1504,mf_amp_cond2,3.0.4,60.00038487152272,
terrorist,&&&&&&&&&,left,loyalty.vice,,,,,,,,0,157,157,151,,,,,,,,,,,,,,,,,,,,,LDT,right,0.6503916936926544,0,,,right,0,0.6503916936926544,,,,,,,,,,,,,,,,,,,,,,1028,2019_Mar_06_1504,mf_amp_cond2,3.0.4,60.00038487152272,
tislay,&&&&&&,right,nonword,,,,,,,,0,158,158,25,,,,,,,,,,,,,,,,,,,,,LDT,left,1.8673828527098522,0,,,left,0,1.8673828527098522,,,,,,,,,,,,,,,,,,,,,,1028,2019_Mar_06_1504,mf_amp_cond2,3.0.4,60.00038487152272,
about,&&&&&,left,neutral,,,,,,,,0,159,159,196,,,,,,,,,,,,,,,,,,,,,LDT,right,0.6170584458159283,0,,,right,0,0.6170584458159283,,,,,,,,,,,,,,,,,,,,,,1028,2019_Mar_06_1504,mf_amp_cond2,3.0.4,60.00038487152272,
either,&&&&&&,left,neutral,,,,,,,,0,160,160,106,,,,,,,,,,,,,,,,,,,,,LDT,left,0.8504232523264363,1,,,left,1,0.8504232523264363,,,,,,,,,,,,,,,,,,,,,,1028,2019_Mar_06_1504,mf_amp_cond2,3.0.4,60.00038487152272,
unreflectuve,&&&&&&&&&&&&,right,nonword,,,,,,,,0,161,161,1,,,,,,,,,,,,,,,,,,,,,LDT,right,1.683983440627344,1,,,right,1,1.683983440627344,,,,,,,,,,,,,,,,,,,,,,1028,2019_Mar_06_1504,mf_amp_cond2,3.0.4,60.00038487152272,
hereby,&&&&&&,left,neutral,,,,,,,,0,162,162,75,,,,,,,,,,,,,,,,,,,,,LDT,left,1.7840258396463469,1,,,left,1,1.7840258396463469,,,,,,,,,,,,,,,,,,,,,,1028,2019_Mar_06_1504,mf_amp_cond2,3.0.4,60.00038487152272,
Boeinf,&&&&&&,right,nonword,,,,,,,,0,163,163,57,,,,,,,,,,,,,,,,,,,,,LDT,right,3.6678022244013846,1,,,right,1,3.6678022244013846,,,,,,,,,,,,,,,,,,,,,,1028,2019_Mar_06_1504,mf_amp_cond2,3.0.4,60.00038487152272,
peace,&&&&&,left,care.virtue,,,,,,,,0,164,164,39,,,,,,,,,,,,,,,,,,,,,LDT,right,0.4336782768368721,0,,,right,0,0.4336782768368721,,,,,,,,,,,,,,,,,,,,,,1028,2019_Mar_06_1504,mf_amp_cond2,3.0.4,60.00038487152272,
gusinesslike,&&&&&&&&&&&&,right,nonword,,,,,,,,0,165,165,172,,,,,,,,,,,,,,,,,,,,,LDT,right,0.35032543318811804,1,,,right,1,0.35032543318811804,,,,,,,,,,,,,,,,,,,,,,1028,2019_Mar_06_1504,mf_amp_cond2,3.0.4,60.00038487152272,
forced,&&&&&&,left,fairness.vice,,,,,,,,0,166,166,111,,,,,,,,,,,,,,,,,,,,,LDT,left,0.4170028332155198,1,,,left,1,0.4170028332155198,,,,,,,,,,,,,,,,,,,,,,1028,2019_Mar_06_1504,mf_amp_cond2,3.0.4,60.00038487152272,
there,&&&&&,left,neutral,,,,,,,,0,167,167,34,,,,,,,,,,,,,,,,,,,,,LDT,right,0.18362968799192458,0,,,right,0,0.18362968799192458,,,,,,,,,,,,,,,,,,,,,,1028,2019_Mar_06_1504,mf_amp_cond2,3.0.4,60.00038487152272,
emassion,&&&&&&&&,right,nonword,,,,,,,,0,168,168,90,,,,,,,,,,,,,,,,,,,,,LDT,left,0.3336628183024004,0,,,left,0,0.3336628183024004,,,,,,,,,,,,,,,,,,,,,,1028,2019_Mar_06_1504,mf_amp_cond2,3.0.4,60.00038487152272,
ablow,&&&&&,right,nonword,,,,,,,,0,169,169,170,,,,,,,,,,,,,,,,,,,,,LDT,left,0.3169716593110934,0,,,left,0,0.3169716593110934,,,,,,,,,,,,,,,,,,,,,,1028,2019_Mar_06_1504,mf_amp_cond2,3.0.4,60.00038487152272,
safety,&&&&&&,left,care.virtue,,,,,,,,0,170,170,168,,,,,,,,,,,,,,,,,,,,,LDT,left,0.38367118895985186,1,,,left,1,0.38367118895985186,,,,,,,,,,,,,,,,,,,,,,1028,2019_Mar_06_1504,mf_amp_cond2,3.0.4,60.00038487152272,
ammessment,&&&&&&&&&&,right,nonword,,,,,,,,0,171,171,108,,,,,,,,,,,,,,,,,,,,,LDT,left,0.28362782788462937,0,,,left,0,0.28362782788462937,,,,,,,,,,,,,,,,,,,,,,1028,2019_Mar_06_1504,mf_amp_cond2,3.0.4,60.00038487152272,
fifty,&&&&&,left,neutral,,,,,,,,0,172,172,174,,,,,,,,,,,,,,,,,,,,,LDT,right,0.2836550888605416,0,,,right,0,0.2836550888605416,,,,,,,,,,,,,,,,,,,,,,1028,2019_Mar_06_1504,mf_amp_cond2,3.0.4,60.00038487152272,
seem,&&&&,left,neutral,,,,,,,,0,173,173,69,,,,,,,,,,,,,,,,,,,,,LDT,right,0.21699372481089085,0,,,right,0,0.21699372481089085,,,,,,,,,,,,,,,,,,,,,,1028,2019_Mar_06_1504,mf_amp_cond2,3.0.4,60.00038487152272,
thadowed,&&&&&&&&,right,nonword,,,,,,,,0,174,174,153,,,,,,,,,,,,,,,,,,,,,LDT,right,0.4169960981234908,1,,,right,1,0.4169960981234908,,,,,,,,,,,,,,,,,,,,,,1028,2019_Mar_06_1504,mf_amp_cond2,3.0.4,60.00038487152272,
injured,&&&&&&&,left,care.vice,,,,,,,,0,175,175,65,,,,,,,,,,,,,,,,,,,,,LDT,left,0.3503247917396948,1,,,left,1,0.3503247917396948,,,,,,,,,,,,,,,,,,,,,,1028,2019_Mar_06_1504,mf_amp_cond2,3.0.4,60.00038487152272,
riot,&&&&,left,authority.vice,,,,,,,,0,176,176,88,,,,,,,,,,,,,,,,,,,,,LDT,left,0.36698580300435424,1,,,left,1,0.36698580300435424,,,,,,,,,,,,,,,,,,,,,,1028,2019_Mar_06_1504,mf_amp_cond2,3.0.4,60.00038487152272,
tomedians,&&&&&&&&&,right,nonword,,,,,,,,0,177,177,122,,,,,,,,,,,,,,,,,,,,,LDT,right,0.266965854447335,1,,,right,1,0.266965854447335,,,,,,,,,,,,,,,,,,,,,,1028,2019_Mar_06_1504,mf_amp_cond2,3.0.4,60.00038487152272,
whither,&&&&&&&,left,neutral,,,,,,,,0,178,178,184,,,,,,,,,,,,,,,,,,,,,LDT,right,0.2836303935619071,0,,,right,0,0.2836303935619071,,,,,,,,,,,,,,,,,,,,,,1028,2019_Mar_06_1504,mf_amp_cond2,3.0.4,60.00038487152272,
honstables,&&&&&&&&&&,right,nonword,,,,,,,,0,179,179,143,,,,,,,,,,,,,,,,,,,,,LDT,right,0.2836352044250816,1,,,right,1,0.2836352044250816,,,,,,,,,,,,,,,,,,,,,,1028,2019_Mar_06_1504,mf_amp_cond2,3.0.4,60.00038487152272,
give,&&&&,left,neutral,,,,,,,,0,180,180,55,,,,,,,,,,,,,,,,,,,,,LDT,left,0.4170028332155198,1,,,left,1,0.4170028332155198,,,,,,,,,,,,,,,,,,,,,,1028,2019_Mar_06_1504,mf_amp_cond2,3.0.4,60.00038487152272,
failure,&&&&&&&,left,loyalty.vice,,,,,,,,0,181,181,78,,,,,,,,,,,,,,,,,,,,,LDT,right,0.28361275407951325,0,,,right,0,0.28361275407951325,,,,,,,,,,,,,,,,,,,,,,1028,2019_Mar_06_1504,mf_amp_cond2,3.0.4,60.00038487152272,
latter,&&&&&&,left,neutral,,,,,,,,0,182,182,150,,,,,,,,,,,,,,,,,,,,,LDT,right,0.2169574835570529,0,,,right,0,0.2169574835570529,,,,,,,,,,,,,,,,,,,,,,1028,2019_Mar_06_1504,mf_amp_cond2,3.0.4,60.00038487152272,
carvels,&&&&&&&,None,nonword,,,,,,,,0,183,183,100,,,,,,,,,,,,,,,,,,,,,LDT,left,0.41700347466394305,0,,,left,0,0.41700347466394305,,,,,,,,,,,,,,,,,,,,,,1028,2019_Mar_06_1504,mf_amp_cond2,3.0.4,60.00038487152272,
letish,&&&&&&,right,nonword,,,,,,,,0,184,184,54,,,,,,,,,,,,,,,,,,,,,LDT,right,0.5670699595939368,1,,,right,1,0.5670699595939368,,,,,,,,,,,,,,,,,,,,,,1028,2019_Mar_06_1504,mf_amp_cond2,3.0.4,60.00038487152272,
peaceful,&&&&&&&&,left,authority.virtue,,,,,,,,0,185,185,148,,,,,,,,,,,,,,,,,,,,,LDT,right,0.2502888070885092,0,,,right,0,0.2502888070885092,,,,,,,,,,,,,,,,,,,,,,1028,2019_Mar_06_1504,mf_amp_cond2,3.0.4,60.00038487152272,
sgrawl,&&&&&&,right,nonword,,,,,,,,0,186,186,139,,,,,,,,,,,,,,,,,,,,,LDT,right,0.03358821908477694,1,,,right,1,0.03358821908477694,,,,,,,,,,,,,,,,,,,,,,1028,2019_Mar_06_1504,mf_amp_cond2,3.0.4,60.00038487152272,
baladroit,&&&&&&&&&,right,nonword,,,,,,,,0,187,187,165,,,,,,,,,,,,,,,,,,,,,LDT,right,0.03360265144146979,1,,,right,1,0.03360265144146979,,,,,,,,,,,,,,,,,,,,,,1028,2019_Mar_06_1504,mf_amp_cond2,3.0.4,60.00038487152272,
become,&&&&&&,left,neutral,,,,,,,,0,188,188,109,,,,,,,,,,,,,,,,,,,,,LDT,left,0.16693788778502494,1,,,left,1,0.16693788778502494,,,,,,,,,,,,,,,,,,,,,,1028,2019_Mar_06_1504,mf_amp_cond2,3.0.4,60.00038487152272,
less,&&&&,left,neutral,,,,,,,,0,189,189,83,,,,,,,,,,,,,,,,,,,,,LDT,right,0.033580842544324696,0,,,right,0,0.033580842544324696,,,,,,,,,,,,,,,,,,,,,,1028,2019_Mar_06_1504,mf_amp_cond2,3.0.4,60.00038487152272,
leact,&&&&&,right,nonword,,,,,,,,0,190,190,8,,,,,,,,,,,,,,,,,,,,,LDT,left,0.13364184321835637,0,,,left,0,0.13364184321835637,,,,,,,,,,,,,,,,,,,,,,1028,2019_Mar_06_1504,mf_amp_cond2,3.0.4,60.00038487152272,
pescinded,&&&&&&&&&,right,nonword,,,,,,,,0,191,191,124,,,,,,,,,,,,,,,,,,,,,LDT,left,0.6837214136030525,0,,,left,0,0.6837214136030525,,,,,,,,,,,,,,,,,,,,,,1028,2019_Mar_06_1504,mf_amp_cond2,3.0.4,60.00038487152272,
fostet,&&&&&&,right,nonword,,,,,,,,0,192,192,16,,,,,,,,,,,,,,,,,,,,,LDT,left,0.36697682295925915,0,,,left,0,0.36697682295925915,,,,,,,,,,,,,,,,,,,,,,1028,2019_Mar_06_1504,mf_amp_cond2,3.0.4,60.00038487152272,
sharing,&&&&&&&,left,loyalty.virtue,,,,,,,,0,193,193,38,,,,,,,,,,,,,,,,,,,,,LDT,left,0.083590496215038,1,,,left,1,0.083590496215038,,,,,,,,,,,,,,,,,,,,,,1028,2019_Mar_06_1504,mf_amp_cond2,3.0.4,60.00038487152272,
gowlands,&&&&&&&&,right,nonword,,,,,,,,0,194,194,96,,,,,,,,,,,,,,,,,,,,,LDT,left,0.18361268984153867,0,,,left,0,0.18361268984153867,,,,,,,,,,,,,,,,,,,,,,1028,2019_Mar_06_1504,mf_amp_cond2,3.0.4,60.00038487152272,
with,&&&&,left,neutral,,,,,,,,0,195,195,61,,,,,,,,,,,,,,,,,,,,,LDT,right,0.18362904665991664,0,,,right,0,0.18362904665991664,,,,,,,,,,,,,,,,,,,,,,1028,2019_Mar_06_1504,mf_amp_cond2,3.0.4,60.00038487152272,
ability,&&&&&&&,left,authority.virtue,,,,,,,,0,196,196,132,,,,,,,,,,,,,,,,,,,,,LDT,right,0.133590207551606,0,,,right,0,0.133590207551606,,,,,,,,,,,,,,,,,,,,,,1028,2019_Mar_06_1504,mf_amp_cond2,3.0.4,60.00038487152272,
mightingale,&&&&&&&&&&&,right,nonword,,,,,,,,0,197,197,101,,,,,,,,,,,,,,,,,,,,,LDT,left,0.016888400772586465,0,,,left,0,0.016888400772586465,,,,,,,,,,,,,,,,,,,,,,1028,2019_Mar_06_1504,mf_amp_cond2,3.0.4,60.00038487152272,
support,&&&&&&&,left,loyalty.virtue,,,,,,,,0,198,198,95,,,,,,,,,,,,,,,,,,,,,LDT,right,0.06692884338553995,0,,,right,0,0.06692884338553995,,,,,,,,,,,,,,,,,,,,,,1028,2019_Mar_06_1504,mf_amp_cond2,3.0.4,60.00038487152272,
ronviolence,&&&&&&&&&&&,right,nonword,,,,,,,,0,199,199,118,,,,,,,,,,,,,,,,,,,,,LDT,right,0.2502605839399621,1,,,right,1,0.2502605839399621,,,,,,,,,,,,,,,,,,,,,,1028,2019_Mar_06_1504,mf_amp_cond2,3.0.4,60.00038487152272,
,,,,,,,,,,,,,,,,,,,,,,,,,,,,,,,,,,,,,,,,,,,,3,19.19,,,,,,,,,,,,,,,,,,,,1028,2019_Mar_06_1504,mf_amp_cond2,3.0.4,60.00038487152272,
,,,,,,,,,,,,,,,,,,,,,,,,,,,,,,,,,,,,,,,,,,,,,,right,1.0338387003866956,,,,,,,,,,,,,,,,,,1028,2019_Mar_06_1504,mf_amp_cond2,3.0.4,60.00038487152272,
car,&&&&&&&&,,,cemtuper,,,,,,,,,,,0,0,0,0,,,,,,,,,,,,,,,,,AMP_prac,left,7.985547777730972,,,,,,,,,,,left,7.985547777730972,,,,,,,,,,,,,,,,1028,2019_Mar_06_1504,mf_amp_cond2,3.0.4,60.00038487152272,
keyboard,&&&&,,,senk,,,,,,,,,,,0,1,1,2,,,,,,,,,,,,,,,,,AMP_prac,left,3.051024407381192,,,,,,,,,,,left,3.051024407381192,,,,,,,,,,,,,,,,1028,2019_Mar_06_1504,mf_amp_cond2,3.0.4,60.00038487152272,
banana,&&&&&&,,,kacket,,,,,,,,,,,0,2,2,1,,,,,,,,,,,,,,,,,AMP_prac,left,2.9010464407037944,,,,,,,,,,,left,2.9010464407037944,,,,,,,,,,,,,,,,1028,2019_Mar_06_1504,mf_amp_cond2,3.0.4,60.00038487152272,
scarf,&&&&&&&&,,,bisebell,,,,,,,,,,,0,3,3,3,,,,,,,,,,,,,,,,,AMP_prac,right,1.1839109582360834,,,,,,,,,,,right,1.1839109582360834,,,,,,,,,,,,,,,,1028,2019_Mar_06_1504,mf_amp_cond2,3.0.4,60.00038487152272,
,,,,,,,,,,,,,,,,,,,,,,,,,,,,,,,,,,,,,,,,,,,,,,,,,,right,1.433907590690069,,,,,,,,,,,,,,1028,2019_Mar_06_1504,mf_amp_cond2,3.0.4,60.00038487152272,
thabbily,&&&&&&&,None,nonword,sickyay,,,,,,,,,,,,,,,0,0,0,2,,,,,,,,,,,,,AMP,right,5.634943319368176,0,,,,,,,,,,,,,,right,0,5.634943319368176,,,,,,,,,,,1028,2019_Mar_06_1504,mf_amp_cond2,3.0.4,60.00038487152272,
army,&&&&&&&&&,right,loyalty.vice,neputized,,,,,,,,,,,,,,,0,1,1,171,,,,,,,,,,,,,AMP,left,1.9173771118512377,0,,,,,,,,,,,,,,left,0,1.9173771118512377,,,,,,,,,,,1028,2019_Mar_06_1504,mf_amp_cond2,3.0.4,60.00038487152272,
strong,&&&&&&&&,left,loyalty.virtue,ebbitter,,,,,,,,,,,,,,,0,2,2,123,,,,,,,,,,,,,AMP,left,1.6172938533127308,1,,,,,,,,,,,,,,left,1,1.6172938533127308,,,,,,,,,,,1028,2019_Mar_06_1504,mf_amp_cond2,3.0.4,60.00038487152272,
hand,&&&&&&&&&&&,left,sanctity.virtue,lempestuous,,,,,,,,,,,,,,,0,3,3,299,,,,,,,,,,,,,AMP,right,1.3838931262725964,0,,,,,,,,,,,,,,right,0,1.3838931262725964,,,,,,,,,,,1028,2019_Mar_06_1504,mf_amp_cond2,3.0.4,60.00038487152272,
terrorists,&&&&&&&&,right,fairness.vice,counpy's,,,,,,,,,,,,,,,0,4,4,286,,,,,,,,,,,,,AMP,left,5.184836552129127,0,,,,,,,,,,,,,,left,0,5.184836552129127,,,,,,,,,,,1028,2019_Mar_06_1504,mf_amp_cond2,3.0.4,60.00038487152272,
arrests,&&&&&&&&&&&&,right,authority.vice,bruthfulness,,,,,,,,,,,,,,,0,5,5,133,,,,,,,,,,,,,AMP,left,0.7837596432073042,0,,,,,,,,,,,,,,left,0,0.7837596432073042,,,,,,,,,,,1028,2019_Mar_06_1504,mf_amp_cond2,3.0.4,60.00038487152272,
fair,&&&&&&&&&,left,fairness.virtue,reprisols,,,,,,,,,,,,,,,0,6,6,47,,,,,,,,,,,,,AMP,left,0.7670963868731633,1,,,,,,,,,,,,,,left,1,0.7670963868731633,,,,,,,,,,,1028,2019_Mar_06_1504,mf_amp_cond2,3.0.4,60.00038487152272,
dignity,&&&&&&&,left,sanctity.virtue,troubla,,,,,,,,,,,,,,,0,7,7,188,,,,,,,,,,,,,AMP,left,0.9838152558077127,1,,,,,,,,,,,,,,left,1,0.9838152558077127,,,,,,,,,,,1028,2019_Mar_06_1504,mf_amp_cond2,3.0.4,60.00038487152272,
violations,&&&&&&,right,sanctity.vice,gazily,,,,,,,,,,,,,,,0,8,8,324,,,,,,,,,,,,,AMP,right,0.7004096859600395,1,,,,,,,,,,,,,,right,1,0.7004096859600395,,,,,,,,,,,1028,2019_Mar_06_1504,mf_amp_cond2,3.0.4,60.00038487152272,
racist,&&&&&&&&&,right,sanctity.vice,gandbrake,,,,,,,,,,,,,,,0,9,9,197,,,,,,,,,,,,,AMP,left,2.5508582750335336,0,,,,,,,,,,,,,,left,0,2.5508582750335336,,,,,,,,,,,1028,2019_Mar_06_1504,mf_amp_cond2,3.0.4,60.00038487152272,
protect,&&&&&&&,left,fairness.virtue,allears,,,,,,,,,,,,,,,0,10,10,305,,,,,,,,,,,,,AMP,left,0.9838027476798743,1,,,,,,,,,,,,,,left,1,0.9838027476798743,,,,,,,,,,,1028,2019_Mar_06_1504,mf_amp_cond2,3.0.4,60.00038487152272,
safe,&&&&&&&&&,left,care.virtue,seachwear,,,,,,,,,,,,,,,0,11,11,251,,,,,,,,,,,,,AMP,right,1.500626684166491,0,,,,,,,,,,,,,,right,0,1.500626684166491,,,,,,,,,,,1028,2019_Mar_06_1504,mf_amp_cond2,3.0.4,60.00038487152272,
racist,&&&&&&&&&&&,right,sanctity.vice,cromiscuity,,,,,,,,,,,,,,,0,12,12,55,,,,,,,,,,,,,AMP,left,1.6839744604658335,0,,,,,,,,,,,,,,left,0,1.6839744604658335,,,,,,,,,,,1028,2019_Mar_06_1504,mf_amp_cond2,3.0.4,60.00038487152272,
drug,&&&&&&,right,sanctity.vice,sonvoy,,,,,,,,,,,,,,,0,13,13,275,,,,,,,,,,,,,AMP,right,0.8837795918807387,1,,,,,,,,,,,,,,right,1,0.8837795918807387,,,,,,,,,,,1028,2019_Mar_06_1504,mf_amp_cond2,3.0.4,60.00038487152272,
hate,&&&&&&,right,fairness.vice,Cunday,,,,,,,,,,,,,,,0,14,14,186,,,,,,,,,,,,,AMP,right,1.1338487067259848,1,,,,,,,,,,,,,,right,1,1.1338487067259848,,,,,,,,,,,1028,2019_Mar_06_1504,mf_amp_cond2,3.0.4,60.00038487152272,
attacks,&&&&&&&&&,right,care.vice,chressing,,,,,,,,,,,,,,,0,15,15,77,,,,,,,,,,,,,AMP,right,0.6670793246012181,1,,,,,,,,,,,,,,right,1,0.6670793246012181,,,,,,,,,,,1028,2019_Mar_06_1504,mf_amp_cond2,3.0.4,60.00038487152272,
betrayal,&&&&&&&&&,right,loyalty.vice,gondensed,,,,,,,,,,,,,,,0,16,16,60,,,,,,,,,,,,,AMP,left,1.650638647028245,0,,,,,,,,,,,,,,left,0,1.650638647028245,,,,,,,,,,,1028,2019_Mar_06_1504,mf_amp_cond2,3.0.4,60.00038487152272,
hescribe,&&&&&&&&&&&,None,nonword,vicissifude,,,,,,,,,,,,,,,0,17,17,31,,,,,,,,,,,,,AMP,left,0.5670426985016093,0,,,,,,,,,,,,,,left,0,0.5670426985016093,,,,,,,,,,,1028,2019_Mar_06_1504,mf_amp_cond2,3.0.4,60.00038487152272,
groups,&&&&&&&&&,right,loyalty.vice,godlaness,,,,,,,,,,,,,,,0,18,18,125,,,,,,,,,,,,,AMP,left,1.3670919608557597,0,,,,,,,,,,,,,,left,0,1.3670919608557597,,,,,,,,,,,1028,2019_Mar_06_1504,mf_amp_cond2,3.0.4,60.00038487152272,
violations,&&&&&&,right,sanctity.vice,gazily,,,,,,,,,,,,,,,0,19,19,46,,,,,,,,,,,,,AMP,right,2.167423455626704,1,,,,,,,,,,,,,,right,1,2.167423455626704,,,,,,,,,,,1028,2019_Mar_06_1504,mf_amp_cond2,3.0.4,60.00038487152272,
safe,&&&&&&&&,left,care.virtue,bluently,,,,,,,,,,,,,,,0,20,20,151,,,,,,,,,,,,,AMP,left,1.350559236947447,1,,,,,,,,,,,,,,left,1,1.350559236947447,,,,,,,,,,,1028,2019_Mar_06_1504,mf_amp_cond2,3.0.4,60.00038487152272,
threatened,&&&&&&&&,right,fairness.vice,divility,,,,,,,,,,,,,,,0,21,21,221,,,,,,,,,,,,,AMP,left,0.7004112894646823,0,,,,,,,,,,,,,,left,0,0.7004112894646823,,,,,,,,,,,1028,2019_Mar_06_1504,mf_amp_cond2,3.0.4,60.00038487152272,
prison,&&&&&&&,right,fairness.vice,baklara,,,,,,,,,,,,,,,0,22,22,131,,,,,,,,,,,,,AMP,left,1.0004826815566048,0,,,,,,,,,,,,,,left,0,1.0004826815566048,,,,,,,,,,,1028,2019_Mar_06_1504,mf_amp_cond2,3.0.4,60.00038487152272,
men,&&&&&&&&&&&,right,loyalty.vice,sowntrodden,,,,,,,,,,,,,,,0,23,23,306,,,,,,,,,,,,,AMP,left,1.317225347738713,0,,,,,,,,,,,,,,left,0,1.317225347738713,,,,,,,,,,,1028,2019_Mar_06_1504,mf_amp_cond2,3.0.4,60.00038487152272,
growth,&&&&&&&&&&&,left,care.virtue,cromiscuity,,,,,,,,,,,,,,,0,24,24,95,,,,,,,,,,,,,AMP,left,3.084317886037752,1,,,,,,,,,,,,,,left,1,3.084317886037752,,,,,,,,,,,1028,2019_Mar_06_1504,mf_amp_cond2,3.0.4,60.00038487152272,
troops,&&&&&&&&&,right,loyalty.vice,tenuflect,,,,,,,,,,,,,,,0,25,25,256,,,,,,,,,,,,,AMP,left,1.9840769622242078,0,,,,,,,,,,,,,,left,0,1.9840769622242078,,,,,,,,,,,1028,2019_Mar_06_1504,mf_amp_cond2,3.0.4,60.00038487152272,
hand,&&&&&&&&&&&&&,left,sanctity.virtue,photocalkodes,,,,,,,,,,,,,,,0,26,26,37,,,,,,,,,,,,,AMP,left,1.8006846059579402,1,,,,,,,,,,,,,,left,1,1.8006846059579402,,,,,,,,,,,1028,2019_Mar_06_1504,mf_amp_cond2,3.0.4,60.00038487152272,
terrorists,&&&&&&&,right,fairness.vice,troubla,,,,,,,,,,,,,,,0,27,27,119,,,,,,,,,,,,,AMP,left,0.9838046720251441,0,,,,,,,,,,,,,,left,0,0.9838046720251441,,,,,,,,,,,1028,2019_Mar_06_1504,mf_amp_cond2,3.0.4,60.00038487152272,
trust,&&&&&&&&,left,authority.virtue,suggists,,,,,,,,,,,,,,,0,28,28,193,,,,,,,,,,,,,AMP,left,1.2171948153991252,1,,,,,,,,,,,,,,left,1,1.2171948153991252,,,,,,,,,,,1028,2019_Mar_06_1504,mf_amp_cond2,3.0.4,60.00038487152272,
perfect,&&&&&&&&&,left,sanctity.virtue,gondensed,,,,,,,,,,,,,,,0,29,29,271,,,,,,,,,,,,,AMP,right,0.46701505256351084,0,,,,,,,,,,,,,,right,0,0.46701505256351084,,,,,,,,,,,1028,2019_Mar_06_1504,mf_amp_cond2,3.0.4,60.00038487152272,
perfect,&&&&&&&&&&,left,sanctity.virtue,totalestic,,,,,,,,,,,,,,,0,30,30,136,,,,,,,,,,,,,AMP,left,5.401554459007457,1,,,,,,,,,,,,,,left,1,5.401554459007457,,,,,,,,,,,1028,2019_Mar_06_1504,mf_amp_cond2,3.0.4,60.00038487152272,
credit,&&&&&&&&&&&,left,fairness.virtue,hefurbished,,,,,,,,,,,,,,,0,31,31,303,,,,,,,,,,,,,AMP,left,1.1671210180502385,1,,,,,,,,,,,,,,left,1,1.1671210180502385,,,,,,,,,,,1028,2019_Mar_06_1504,mf_amp_cond2,3.0.4,60.00038487152272,
threatened,&&&&&&&,right,fairness.vice,allears,,,,,,,,,,,,,,,0,32,32,160,,,,,,,,,,,,,AMP,left,0.7670893310569227,0,,,,,,,,,,,,,,left,0,0.7670893310569227,,,,,,,,,,,1028,2019_Mar_06_1504,mf_amp_cond2,3.0.4,60.00038487152272,
strong,&&&&&&&&&&&,left,loyalty.virtue,fornicalion,,,,,,,,,,,,,,,0,33,33,74,,,,,,,,,,,,,AMP,left,2.7008904431713745,1,,,,,,,,,,,,,,left,1,2.7008904431713745,,,,,,,,,,,1028,2019_Mar_06_1504,mf_amp_cond2,3.0.4,60.00038487152272,
unpleasant,&&&&,None,control,juck,,,,,,,,,,,,,,,0,34,34,291,,,,,,,,,,,,,AMP,right,0.8337657689116895,0,,,,,,,,,,,,,,right,0,0.8337657689116895,,,,,,,,,,,1028,2019_Mar_06_1504,mf_amp_cond2,3.0.4,60.00038487152272,
groups,&&&&&&&&&&&,right,loyalty.vice,cromiscuity,,,,,,,,,,,,,,,0,35,35,249,,,,,,,,,,,,,AMP,left,1.017155559384264,0,,,,,,,,,,,,,,left,0,1.017155559384264,,,,,,,,,,,1028,2019_Mar_06_1504,mf_amp_cond2,3.0.4,60.00038487152272,
promised,&&&&&&&&&,left,loyalty.virtue,gillipede,,,,,,,,,,,,,,,0,36,36,76,,,,,,,,,,,,,AMP,right,0.700417703948915,0,,,,,,,,,,,,,,right,0,0.700417703948915,,,,,,,,,,,1028,2019_Mar_06_1504,mf_amp_cond2,3.0.4,60.00038487152272,
died,&&&&,right,care.vice,ning,,,,,,,,,,,,,,,0,37,37,250,,,,,,,,,,,,,AMP,left,1.033814005088061,0,,,,,,,,,,,,,,left,0,1.033814005088061,,,,,,,,,,,1028,2019_Mar_06_1504,mf_amp_cond2,3.0.4,60.00038487152272,
prison,&&&&&&&&&&&,right,fairness.vice,blunderints,,,,,,,,,,,,,,,0,38,38,11,,,,,,,,,,,,,AMP,left,0.4503424954600632,0,,,,,,,,,,,,,,left,0,0.4503424954600632,,,,,,,,,,,1028,2019_Mar_06_1504,mf_amp_cond2,3.0.4,60.00038487152272,
neneficence,&&&&&&&&&&,None,nonword,lorthwhile,,,,,,,,,,,,,,,0,39,39,205,,,,,,,,,,,,,AMP,left,1.2005315590649843,0,,,,,,,,,,,,,,left,0,1.2005315590649843,,,,,,,,,,,1028,2019_Mar_06_1504,mf_amp_cond2,3.0.4,60.00038487152272,
trust,&&&&&&&&&&,left,authority.virtue,totalestic,,,,,,,,,,,,,,,0,40,40,296,,,,,,,,,,,,,AMP,right,2.134085076395422,0,,,,,,,,,,,,,,right,0,2.134085076395422,,,,,,,,,,,1028,2019_Mar_06_1504,mf_amp_cond2,3.0.4,60.00038487152272,
agreement,&&&&&,left,fairness.virtue,noped,,,,,,,,,,,,,,,0,41,41,308,,,,,,,,,,,,,AMP,left,1.400569532182999,1,,,,,,,,,,,,,,left,1,1.400569532182999,,,,,,,,,,,1028,2019_Mar_06_1504,mf_amp_cond2,3.0.4,60.00038487152272,
respect,&&&&&&&&&,left,sanctity.virtue,Lacedonia,,,,,,,,,,,,,,,0,42,42,217,,,,,,,,,,,,,AMP,left,0.7004109687404707,1,,,,,,,,,,,,,,left,1,0.7004109687404707,,,,,,,,,,,1028,2019_Mar_06_1504,mf_amp_cond2,3.0.4,60.00038487152272,
promised,&&&&&&&&&&&,left,loyalty.virtue,cromiscuity,,,,,,,,,,,,,,,0,43,43,219,,,,,,,,,,,,,AMP,left,0.45034089172258973,1,,,,,,,,,,,,,,left,1,0.45034089172258973,,,,,,,,,,,1028,2019_Mar_06_1504,mf_amp_cond2,3.0.4,60.00038487152272,
actively,&&&&&,left,authority.virtue,noped,,,,,,,,,,,,,,,0,44,44,83,,,,,,,,,,,,,AMP,left,0.3335210606455803,1,,,,,,,,,,,,,,left,1,0.3335210606455803,,,,,,,,,,,1028,2019_Mar_06_1504,mf_amp_cond2,3.0.4,60.00038487152272,
threatened,&&&&&&&&&&&,right,fairness.vice,blunderints,,,,,,,,,,,,,,,0,45,45,284,,,,,,,,,,,,,AMP,left,0.26681383373215795,0,,,,,,,,,,,,,,left,0,0.26681383373215795,,,,,,,,,,,1028,2019_Mar_06_1504,mf_amp_cond2,3.0.4,60.00038487152272,
rejected,&&&&&&&&&&&,right,authority.vice,blunderints,,,,,,,,,,,,,,,0,46,46,194,,,,,,,,,,,,,AMP,left,0.3837603487772867,0,,,,,,,,,,,,,,left,0,0.3837603487772867,,,,,,,,,,,1028,2019_Mar_06_1504,mf_amp_cond2,3.0.4,60.00038487152272,
lies,&&&&&&&,right,fairness.vice,scalbel,,,,,,,,,,,,,,,0,47,47,85,,,,,,,,,,,,,AMP,left,0.3336487066699192,0,,,,,,,,,,,,,,left,0,0.3336487066699192,,,,,,,,,,,1028,2019_Mar_06_1504,mf_amp_cond2,3.0.4,60.00038487152272,
rejected,&&&&&&&&&,right,authority.vice,neputized,,,,,,,,,,,,,,,0,48,48,108,,,,,,,,,,,,,AMP,left,0.300297177862376,0,,,,,,,,,,,,,,left,0,0.300297177862376,,,,,,,,,,,1028,2019_Mar_06_1504,mf_amp_cond2,3.0.4,60.00038487152272,
commitment,&&&&&,left,sanctity.virtue,uller,,,,,,,,,,,,,,,0,49,49,288,,,,,,,,,,,,,AMP,right,0.2836371286539361,0,,,,,,,,,,,,,,right,0,0.2836371286539361,,,,,,,,,,,1028,2019_Mar_06_1504,mf_amp_cond2,3.0.4,60.00038487152272,
reviked,&&&&&&&&&,None,nonword,reprisols,,,,,,,,,,,,,,,0,50,50,278,,,,,,,,,,,,,AMP,left,0.4503402503905818,0,,,,,,,,,,,,,,left,0,0.4503402503905818,,,,,,,,,,,1028,2019_Mar_06_1504,mf_amp_cond2,3.0.4,60.00038487152272,
hate,&&&&&&&&&,right,fairness.vice,gondensed,,,,,,,,,,,,,,,0,51,51,118,,,,,,,,,,,,,AMP,left,0.300316420965828,0,,,,,,,,,,,,,,left,0,0.300316420965828,,,,,,,,,,,1028,2019_Mar_06_1504,mf_amp_cond2,3.0.4,60.00038487152272,
strength,&&&&&,left,sanctity.virtue,pulge,,,,,,,,,,,,,,,0,52,52,30,,,,,,,,,,,,,AMP,right,0.21693695767316967,0,,,,,,,,,,,,,,right,0,0.21693695767316967,,,,,,,,,,,1028,2019_Mar_06_1504,mf_amp_cond2,3.0.4,60.00038487152272,
army,&&&&&&&,right,loyalty.vice,nomaric,,,,,,,,,,,,,,,0,53,53,267,,,,,,,,,,,,,AMP,right,1.317231441498734,1,,,,,,,,,,,,,,right,1,1.317231441498734,,,,,,,,,,,1028,2019_Mar_06_1504,mf_amp_cond2,3.0.4,60.00038487152272,
mih,&&&&&&&&&&,None,nonword,fonderland,,,,,,,,,,,,,,,0,54,54,242,,,,,,,,,,,,,AMP,left,0.43367955973371863,0,,,,,,,,,,,,,,left,0,0.43367955973371863,,,,,,,,,,,1028,2019_Mar_06_1504,mf_amp_cond2,3.0.4,60.00038487152272,
arrests,&&&&&&&,right,authority.vice,Daptist,,,,,,,,,,,,,,,0,55,55,317,,,,,,,,,,,,,AMP,left,0.600389416445978,0,,,,,,,,,,,,,,left,0,0.600389416445978,,,,,,,,,,,1028,2019_Mar_06_1504,mf_amp_cond2,3.0.4,60.00038487152272,
actively,&&&&&&&&&&&,left,authority.virtue,lempestuous,,,,,,,,,,,,,,,0,56,56,216,,,,,,,,,,,,,AMP,right,0.2336364551447332,0,,,,,,,,,,,,,,right,0,0.2336364551447332,,,,,,,,,,,1028,2019_Mar_06_1504,mf_amp_cond2,3.0.4,60.00038487152272,
progress,&&&&&&&&&,left,authority.virtue,gondensed,,,,,,,,,,,,,,,0,57,57,199,,,,,,,,,,,,,AMP,left,0.7337342743994668,1,,,,,,,,,,,,,,left,1,0.7337342743994668,,,,,,,,,,,1028,2019_Mar_06_1504,mf_amp_cond2,3.0.4,60.00038487152272,
thabbily,&&&&,None,nonword,juck,,,,,,,,,,,,,,,0,58,58,87,,,,,,,,,,,,,AMP,right,0.26681864459533244,0,,,,,,,,,,,,,,right,0,0.26681864459533244,,,,,,,,,,,1028,2019_Mar_06_1504,mf_amp_cond2,3.0.4,60.00038487152272,
fear,&&&&&&&&&&,right,sanctity.vice,frocessing,,,,,,,,,,,,,,,0,59,59,16,,,,,,,,,,,,,AMP,left,0.4170066819060594,0,,,,,,,,,,,,,,left,0,0.4170066819060594,,,,,,,,,,,1028,2019_Mar_06_1504,mf_amp_cond2,3.0.4,60.00038487152272,
suicide,&&&&&&&&&,right,care.vice,brotesque,,,,,,,,,,,,,,,0,60,60,148,,,,,,,,,,,,,AMP,left,0.3503279989818111,0,,,,,,,,,,,,,,left,0,0.3503279989818111,,,,,,,,,,,1028,2019_Mar_06_1504,mf_amp_cond2,3.0.4,60.00038487152272,
encourage,&&&&&&&&&&,left,authority.virtue,clattening,,,,,,,,,,,,,,,0,61,61,262,,,,,,,,,,,,,AMP,left,1.0171635774895549,1,,,,,,,,,,,,,,left,1,1.0171635774895549,,,,,,,,,,,1028,2019_Mar_06_1504,mf_amp_cond2,3.0.4,60.00038487152272,
agreement,&&&&&&&&&,left,fairness.virtue,reprisols,,,,,,,,,,,,,,,0,62,62,165,,,,,,,,,,,,,AMP,left,0.38363109913188964,1,,,,,,,,,,,,,,left,1,0.38363109913188964,,,,,,,,,,,1028,2019_Mar_06_1504,mf_amp_cond2,3.0.4,60.00038487152272,
chared,&&&&&&&,None,nonword,nomaric,,,,,,,,,,,,,,,0,63,63,68,,,,,,,,,,,,,AMP,left,0.48368825123179704,0,,,,,,,,,,,,,,left,0,0.48368825123179704,,,,,,,,,,,1028,2019_Mar_06_1504,mf_amp_cond2,3.0.4,60.00038487152272,
died,&&&&&&&&&&,right,care.vice,fonderland,,,,,,,,,,,,,,,0,64,64,140,,,,,,,,,,,,,AMP,left,0.4003325210651383,0,,,,,,,,,,,,,,left,0,0.4003325210651383,,,,,,,,,,,1028,2019_Mar_06_1504,mf_amp_cond2,3.0.4,60.00038487152272,
honored,&&&&&&&,left,authority.virtue,baklara,,,,,,,,,,,,,,,0,65,65,26,,,,,,,,,,,,,AMP,left,0.5170163676375523,1,,,,,,,,,,,,,,left,1,0.5170163676375523,,,,,,,,,,,1028,2019_Mar_06_1504,mf_amp_cond2,3.0.4,60.00038487152272,
civilians,&&&&&&&&&,right,care.vice,chressing,,,,,,,,,,,,,,,0,66,66,127,,,,,,,,,,,,,AMP,right,0.2836361664813012,1,,,,,,,,,,,,,,right,1,0.2836361664813012,,,,,,,,,,,1028,2019_Mar_06_1504,mf_amp_cond2,3.0.4,60.00038487152272,
fear,&&&&&&,right,sanctity.vice,gikely,,,,,,,,,,,,,,,0,67,67,304,,,,,,,,,,,,,AMP,left,0.40032931393943727,0,,,,,,,,,,,,,,left,0,0.40032931393943727,,,,,,,,,,,1028,2019_Mar_06_1504,mf_amp_cond2,3.0.4,60.00038487152272,
lies,&&&&&&&&&&&&,right,fairness.vice,bruthfulness,,,,,,,,,,,,,,,0,68,68,21,,,,,,,,,,,,,AMP,left,0.36697970936074853,0,,,,,,,,,,,,,,left,0,0.36697970936074853,,,,,,,,,,,1028,2019_Mar_06_1504,mf_amp_cond2,3.0.4,60.00038487152272,
loyalty,&&&&&&&&&&,left,loyalty.virtue,lorthwhile,,,,,,,,,,,,,,,0,69,69,325,,,,,,,,,,,,,AMP,right,0.21696069079916924,0,,,,,,,,,,,,,,right,0,0.21696069079916924,,,,,,,,,,,1028,2019_Mar_06_1504,mf_amp_cond2,3.0.4,60.00038487152272,
unpleasant,&&&&&&&&&,None,control,seachwear,,,,,,,,,,,,,,,0,70,70,116,,,,,,,,,,,,,AMP,left,0.4170025126077235,0,,,,,,,,,,,,,,left,0,0.4170025126077235,,,,,,,,,,,1028,2019_Mar_06_1504,mf_amp_cond2,3.0.4,60.00038487152272,
chared,&&&&&&&,None,nonword,brudent,,,,,,,,,,,,,,,0,71,71,268,,,,,,,,,,,,,AMP,left,0.7004151381552219,0,,,,,,,,,,,,,,left,0,0.7004151381552219,,,,,,,,,,,1028,2019_Mar_06_1504,mf_amp_cond2,3.0.4,60.00038487152272,
betrayal,&&&&&&,right,loyalty.vice,gikely,,,,,,,,,,,,,,,0,72,72,98,,,,,,,,,,,,,AMP,left,0.31695915141608566,0,,,,,,,,,,,,,,left,0,0.31695915141608566,,,,,,,,,,,1028,2019_Mar_06_1504,mf_amp_cond2,3.0.4,60.00038487152272,
trust,&&&&&&&&,left,authority.virtue,divility,,,,,,,,,,,,,,,0,73,73,15,,,,,,,,,,,,,AMP,left,0.6170494657708332,1,,,,,,,,,,,,,,left,1,0.6170494657708332,,,,,,,,,,,1028,2019_Mar_06_1504,mf_amp_cond2,3.0.4,60.00038487152272,
torture,&&&&&&&&&,right,care.vice,refuejing,,,,,,,,,,,,,,,0,74,74,93,,,,,,,,,,,,,AMP,left,0.2503109367098659,0,,,,,,,,,,,,,,left,0,0.2503109367098659,,,,,,,,,,,1028,2019_Mar_06_1504,mf_amp_cond2,3.0.4,60.00038487152272,
party,&&&&&&&&&&&,left,loyalty.virtue,vicissifude,,,,,,,,,,,,,,,0,75,75,174,,,,,,,,,,,,,AMP,left,0.316971980035305,1,,,,,,,,,,,,,,left,1,0.316971980035305,,,,,,,,,,,1028,2019_Mar_06_1504,mf_amp_cond2,3.0.4,60.00038487152272,
suicide,&&&&&&&&,right,care.vice,bluently,,,,,,,,,,,,,,,0,76,76,7,,,,,,,,,,,,,AMP,left,0.3503122837282717,0,,,,,,,,,,,,,,left,0,0.3503122837282717,,,,,,,,,,,1028,2019_Mar_06_1504,mf_amp_cond2,3.0.4,60.00038487152272,
groups,&&&&&&&&,right,loyalty.vice,pullness,,,,,,,,,,,,,,,0,77,77,196,,,,,,,,,,,,,AMP,left,0.3336487066699192,0,,,,,,,,,,,,,,left,0,0.3336487066699192,,,,,,,,,,,1028,2019_Mar_06_1504,mf_amp_cond2,3.0.4,60.00038487152272,
army,&&&&&&&&,right,loyalty.vice,glacenta,,,,,,,,,,,,,,,0,78,78,27,,,,,,,,,,,,,AMP,left,0.31697614945005625,0,,,,,,,,,,,,,,left,0,0.31697614945005625,,,,,,,,,,,1028,2019_Mar_06_1504,mf_amp_cond2,3.0.4,60.00038487152272,
scandal,&&&&&&&,right,sanctity.vice,scalbel,,,,,,,,,,,,,,,0,79,79,300,,,,,,,,,,,,,AMP,left,0.4003296346636489,0,,,,,,,,,,,,,,left,0,0.4003296346636489,,,,,,,,,,,1028,2019_Mar_06_1504,mf_amp_cond2,3.0.4,60.00038487152272,
progress,&&&&&,left,authority.virtue,uller,,,,,,,,,,,,,,,0,80,80,79,,,,,,,,,,,,,AMP,left,0.2834536776645109,1,,,,,,,,,,,,,,left,1,0.2834536776645109,,,,,,,,,,,1028,2019_Mar_06_1504,mf_amp_cond2,3.0.4,60.00038487152272,
integrity,&&&&&,left,fairness.virtue,noped,,,,,,,,,,,,,,,0,81,81,65,,,,,,,,,,,,,AMP,left,0.48367830901406705,1,,,,,,,,,,,,,,left,1,0.48367830901406705,,,,,,,,,,,1028,2019_Mar_06_1504,mf_amp_cond2,3.0.4,60.00038487152272,
dignity,&&&&&&&&&&,left,sanctity.virtue,ecgagement,,,,,,,,,,,,,,,0,82,82,146,,,,,,,,,,,,,AMP,left,0.367079132120125,1,,,,,,,,,,,,,,left,1,0.367079132120125,,,,,,,,,,,1028,2019_Mar_06_1504,mf_amp_cond2,3.0.4,60.00038487152272,
reviked,&&&&&&&&&&&&,None,nonword,feleological,,,,,,,,,,,,,,,0,83,83,23,,,,,,,,,,,,,AMP,left,0.3003350227372721,0,,,,,,,,,,,,,,left,0,0.3003350227372721,,,,,,,,,,,1028,2019_Mar_06_1504,mf_amp_cond2,3.0.4,60.00038487152272,
pleasant,&&&&&&&&&,None,control,disregord,,,,,,,,,,,,,,,0,84,84,97,,,,,,,,,,,,,AMP,left,0.3669995939126238,0,,,,,,,,,,,,,,left,0,0.3669995939126238,,,,,,,,,,,1028,2019_Mar_06_1504,mf_amp_cond2,3.0.4,60.00038487152272,
pistraught,&&&&&&&,None,nonword,sickyay,,,,,,,,,,,,,,,0,85,85,190,,,,,,,,,,,,,AMP,left,0.7170748666394502,0,,,,,,,,,,,,,,left,0,0.7170748666394502,,,,,,,,,,,1028,2019_Mar_06_1504,mf_amp_cond2,3.0.4,60.00038487152272,
torture,&&&&&&&&,right,care.vice,sidearbs,,,,,,,,,,,,,,,0,86,86,315,,,,,,,,,,,,,AMP,left,0.3669851616723463,0,,,,,,,,,,,,,,left,0,0.3669851616723463,,,,,,,,,,,1028,2019_Mar_06_1504,mf_amp_cond2,3.0.4,60.00038487152272,
hate,&&&&&&&&,right,fairness.vice,divility,,,,,,,,,,,,,,,0,87,87,252,,,,,,,,,,,,,AMP,left,0.333617917727679,0,,,,,,,,,,,,,,left,0,0.333617917727679,,,,,,,,,,,1028,2019_Mar_06_1504,mf_amp_cond2,3.0.4,60.00038487152272,
men,&&&&&&&,right,loyalty.vice,chadows,,,,,,,,,,,,,,,0,88,88,229,,,,,,,,,,,,,AMP,right,0.6503894486231729,1,,,,,,,,,,,,,,right,1,0.6503894486231729,,,,,,,,,,,1028,2019_Mar_06_1504,mf_amp_cond2,3.0.4,60.00038487152272,
suicide,&&&&&&&&&,right,care.vice,tenuflect,,,,,,,,,,,,,,,0,89,89,181,,,,,,,,,,,,,AMP,left,0.4336731453659013,0,,,,,,,,,,,,,,left,0,0.4336731453659013,,,,,,,,,,,1028,2019_Mar_06_1504,mf_amp_cond2,3.0.4,60.00038487152272,
fontacts,&&&&&&&&&&&,None,nonword,hefurbished,,,,,,,,,,,,,,,0,90,90,59,,,,,,,,,,,,,AMP,left,0.3836756790988147,0,,,,,,,,,,,,,,left,0,0.3836756790988147,,,,,,,,,,,1028,2019_Mar_06_1504,mf_amp_cond2,3.0.4,60.00038487152272,
perfect,&&&&&&&&&&&&&,left,sanctity.virtue,esquisiteness,,,,,,,,,,,,,,,0,91,91,191,,,,,,,,,,,,,AMP,right,0.38381262589246035,0,,,,,,,,,,,,,,right,0,0.38381262589246035,,,,,,,,,,,1028,2019_Mar_06_1504,mf_amp_cond2,3.0.4,60.00038487152272,
officers,&&&&&&,right,authority.vice,gikely,,,,,,,,,,,,,,,0,92,92,33,,,,,,,,,,,,,AMP,left,0.6003858885960653,0,,,,,,,,,,,,,,left,0,0.6003858885960653,,,,,,,,,,,1028,2019_Mar_06_1504,mf_amp_cond2,3.0.4,60.00038487152272,
slavery,&&&&&&,right,loyalty.vice,papert,,,,,,,,,,,,,,,0,93,93,201,,,,,,,,,,,,,AMP,left,0.5670529615599662,0,,,,,,,,,,,,,,left,0,0.5670529615599662,,,,,,,,,,,1028,2019_Mar_06_1504,mf_amp_cond2,3.0.4,60.00038487152272,
penalty,&&&&&,right,authority.vice,touls,,,,,,,,,,,,,,,0,94,94,38,,,,,,,,,,,,,AMP,left,0.33365223451983184,0,,,,,,,,,,,,,,left,0,0.33365223451983184,,,,,,,,,,,1028,2019_Mar_06_1504,mf_amp_cond2,3.0.4,60.00038487152272,
arrests,&&&&&&&&&&&,right,authority.vice,nomparisons,,,,,,,,,,,,,,,0,95,95,10,,,,,,,,,,,,,AMP,left,0.5503701413981616,0,,,,,,,,,,,,,,left,0,0.5503701413981616,,,,,,,,,,,1028,2019_Mar_06_1504,mf_amp_cond2,3.0.4,60.00038487152272,
officers,&&&&&&,right,authority.vice,sonvoy,,,,,,,,,,,,,,,0,96,96,207,,,,,,,,,,,,,AMP,left,0.46703493711538613,0,,,,,,,,,,,,,,left,0,0.46703493711538613,,,,,,,,,,,1028,2019_Mar_06_1504,mf_amp_cond2,3.0.4,60.00038487152272,
praised,&&&&&&&&&&,left,loyalty.virtue,gationwide,,,,,,,,,,,,,,,0,97,97,163,,,,,,,,,,,,,AMP,left,0.9004592049168423,1,,,,,,,,,,,,,,left,1,0.9004592049168423,,,,,,,,,,,1028,2019_Mar_06_1504,mf_amp_cond2,3.0.4,60.00038487152272,
violations,&&&&&&,right,sanctity.vice,sonvoy,,,,,,,,,,,,,,,0,98,98,156,,,,,,,,,,,,,AMP,left,0.583713972941041,0,,,,,,,,,,,,,,left,0,0.583713972941041,,,,,,,,,,,1028,2019_Mar_06_1504,mf_amp_cond2,3.0.4,60.00038487152272,
great,&&&&&&&&&&,left,loyalty.virtue,abointment,,,,,,,,,,,,,,,0,99,99,245,,,,,,,,,,,,,AMP,left,2.034068014123477,1,,,,,,,,,,,,,,left,1,2.034068014123477,,,,,,,,,,,1028,2019_Mar_06_1504,mf_amp_cond2,3.0.4,60.00038487152272,
thabbily,&&&&&&&&&,None,nonword,gandbrake,,,,,,,,,,,,,,,0,100,100,302,,,,,,,,,,,,,AMP,left,3.4510702058905736,0,,,,,,,,,,,,,,left,0,3.4510702058905736,,,,,,,,,,,1028,2019_Mar_06_1504,mf_amp_cond2,3.0.4,60.00038487152272,
penalty,&&&&&&&&&&&,right,authority.vice,egpeditious,,,,,,,,,,,,,,,0,101,101,106,,,,,,,,,,,,,AMP,left,0.5002254651626572,0,,,,,,,,,,,,,,left,0,0.5002254651626572,,,,,,,,,,,1028,2019_Mar_06_1504,mf_amp_cond2,3.0.4,60.00038487152272,
death,&&&&&&&&&&&&&,right,care.vice,wonderfujnoss,,,,,,,,,,,,,,,0,102,102,13,,,,,,,,,,,,,AMP,left,1.3172131604515016,0,,,,,,,,,,,,,,left,0,1.3172131604515016,,,,,,,,,,,1028,2019_Mar_06_1504,mf_amp_cond2,3.0.4,60.00038487152272,
police,&&&&&&&&,right,authority.vice,epigrach,,,,,,,,,,,,,,,0,103,103,292,,,,,,,,,,,,,AMP,left,1.2005257861455902,0,,,,,,,,,,,,,,left,0,1.2005257861455902,,,,,,,,,,,1028,2019_Mar_06_1504,mf_amp_cond2,3.0.4,60.00038487152272,
civilians,&&&&&&&,right,care.vice,Daptist,,,,,,,,,,,,,,,0,104,104,237,,,,,,,,,,,,,AMP,left,0.3836904321797192,0,,,,,,,,,,,,,,left,0,0.3836904321797192,,,,,,,,,,,1028,2019_Mar_06_1504,mf_amp_cond2,3.0.4,60.00038487152272,
slavery,&&&&&&&&,right,loyalty.vice,ebbitter,,,,,,,,,,,,,,,0,105,105,35,,,,,,,,,,,,,AMP,left,0.7004199490183964,0,,,,,,,,,,,,,,left,0,0.7004199490183964,,,,,,,,,,,1028,2019_Mar_06_1504,mf_amp_cond2,3.0.4,60.00038487152272,
great,&&&&&&,left,loyalty.virtue,gazily,,,,,,,,,,,,,,,0,106,106,150,,,,,,,,,,,,,AMP,left,1.5005984609015286,1,,,,,,,,,,,,,,left,1,1.5005984609015286,,,,,,,,,,,1028,2019_Mar_06_1504,mf_amp_cond2,3.0.4,60.00038487152272,
loyalty,&&&&&&,left,loyalty.virtue,laming,,,,,,,,,,,,,,,0,107,107,137,,,,,,,,,,,,,AMP,left,0.600383002194576,1,,,,,,,,,,,,,,left,1,0.600383002194576,,,,,,,,,,,1028,2019_Mar_06_1504,mf_amp_cond2,3.0.4,60.00038487152272,
care,&&&&&&&,left,care.virtue,brudent,,,,,,,,,,,,,,,0,108,108,238,,,,,,,,,,,,,AMP,left,1.5339089377084747,1,,,,,,,,,,,,,,left,1,1.5339089377084747,,,,,,,,,,,1028,2019_Mar_06_1504,mf_amp_cond2,3.0.4,60.00038487152272,
encourage,&&&&&&&&,left,authority.virtue,ugeasily,,,,,,,,,,,,,,,0,109,109,110,,,,,,,,,,,,,AMP,left,0.8004293140256777,1,,,,,,,,,,,,,,left,1,0.8004293140256777,,,,,,,,,,,1028,2019_Mar_06_1504,mf_amp_cond2,3.0.4,60.00038487152272,
officers,&&&&&&&&&&,right,authority.vice,gationwide,,,,,,,,,,,,,,,0,110,110,314,,,,,,,,,,,,,AMP,left,0.26697740028612316,0,,,,,,,,,,,,,,left,0,0.26697740028612316,,,,,,,,,,,1028,2019_Mar_06_1504,mf_amp_cond2,3.0.4,60.00038487152272,
threatened,&&&&&&&&,right,fairness.vice,sidearbs,,,,,,,,,,,,,,,0,111,111,54,,,,,,,,,,,,,AMP,left,0.41700251249130815,0,,,,,,,,,,,,,,left,0,0.41700251249130815,,,,,,,,,,,1028,2019_Mar_06_1504,mf_amp_cond2,3.0.4,60.00038487152272,
troops,&&&&&,right,loyalty.vice,infet,,,,,,,,,,,,,,,0,112,112,121,,,,,,,,,,,,,AMP,left,0.3003141760127619,0,,,,,,,,,,,,,,left,0,0.3003141760127619,,,,,,,,,,,1028,2019_Mar_06_1504,mf_amp_cond2,3.0.4,60.00038487152272,
growth,&&&&&&&&,left,care.virtue,bluently,,,,,,,,,,,,,,,0,113,113,307,,,,,,,,,,,,,AMP,left,0.333650631015189,1,,,,,,,,,,,,,,left,1,0.333650631015189,,,,,,,,,,,1028,2019_Mar_06_1504,mf_amp_cond2,3.0.4,60.00038487152272,
attacks,&&&&&&&,right,care.vice,allears,,,,,,,,,,,,,,,0,114,114,189,,,,,,,,,,,,,AMP,left,0.3169783945195377,0,,,,,,,,,,,,,,left,0,0.3169783945195377,,,,,,,,,,,1028,2019_Mar_06_1504,mf_amp_cond2,3.0.4,60.00038487152272,
unpleasant,&&&&&&,None,control,sonvoy,,,,,,,,,,,,,,,0,115,115,57,,,,,,,,,,,,,AMP,left,0.2836352043086663,0,,,,,,,,,,,,,,left,0,0.2836352043086663,,,,,,,,,,,1028,2019_Mar_06_1504,mf_amp_cond2,3.0.4,60.00038487152272,
civilians,&&&&&&&&&&,right,care.vice,clattening,,,,,,,,,,,,,,,0,116,116,18,,,,,,,,,,,,,AMP,left,0.3336567245423794,0,,,,,,,,,,,,,,left,0,0.3336567245423794,,,,,,,,,,,1028,2019_Mar_06_1504,mf_amp_cond2,3.0.4,60.00038487152272,
pleasant,&&&&&&&&,None,control,ebbitter,,,,,,,,,,,,,,,0,117,117,232,,,,,,,,,,,,,AMP,left,0.3003061580238864,0,,,,,,,,,,,,,,left,0,0.3003061580238864,,,,,,,,,,,1028,2019_Mar_06_1504,mf_amp_cond2,3.0.4,60.00038487152272,
troops,&&&&&&&&,right,loyalty.vice,sidearbs,,,,,,,,,,,,,,,0,118,118,210,,,,,,,,,,,,,AMP,left,0.3336499895667657,0,,,,,,,,,,,,,,left,0,0.3336499895667657,,,,,,,,,,,1028,2019_Mar_06_1504,mf_amp_cond2,3.0.4,60.00038487152272,
promises,&&&&&&&,left,fairness.virtue,chadows,,,,,,,,,,,,,,,0,119,119,5,,,,,,,,,,,,,AMP,left,0.3836458522127941,1,,,,,,,,,,,,,,left,1,0.3836458522127941,,,,,,,,,,,1028,2019_Mar_06_1504,mf_amp_cond2,3.0.4,60.00038487152272,
drug,&&&&&&&&&&&,right,sanctity.vice,egpeditious,,,,,,,,,,,,,,,0,120,120,44,,,,,,,,,,,,,AMP,left,0.25030323944520205,0,,,,,,,,,,,,,,left,0,0.25030323944520205,,,,,,,,,,,1028,2019_Mar_06_1504,mf_amp_cond2,3.0.4,60.00038487152272,
useful,&&&&,left,authority.virtue,yane,,,,,,,,,,,,,,,0,121,121,41,,,,,,,,,,,,,AMP,left,0.3836638124193996,1,,,,,,,,,,,,,,left,1,0.3836638124193996,,,,,,,,,,,1028,2019_Mar_06_1504,mf_amp_cond2,3.0.4,60.00038487152272,
chared,&&&&&&&&&,None,nonword,godlaness,,,,,,,,,,,,,,,0,122,122,202,,,,,,,,,,,,,AMP,left,0.2502936178352684,0,,,,,,,,,,,,,,left,0,0.2502936178352684,,,,,,,,,,,1028,2019_Mar_06_1504,mf_amp_cond2,3.0.4,60.00038487152272,
dignity,&&&&&&&&&&&&,left,sanctity.virtue,bruthfulness,,,,,,,,,,,,,,,0,123,123,279,,,,,,,,,,,,,AMP,left,0.3003116102190688,1,,,,,,,,,,,,,,left,1,0.3003116102190688,,,,,,,,,,,1028,2019_Mar_06_1504,mf_amp_cond2,3.0.4,60.00038487152272,
army,&&&&&&&&&&&&&,right,loyalty.vice,esquisiteness,,,,,,,,,,,,,,,0,124,124,143,,,,,,,,,,,,,AMP,left,0.41698872158303857,0,,,,,,,,,,,,,,left,0,0.41698872158303857,,,,,,,,,,,1028,2019_Mar_06_1504,mf_amp_cond2,3.0.4,60.00038487152272,
protect,&&&&&&&,left,fairness.virtue,halaise,,,,,,,,,,,,,,,0,125,125,102,,,,,,,,,,,,,AMP,left,0.31697230075951666,1,,,,,,,,,,,,,,left,1,0.31697230075951666,,,,,,,,,,,1028,2019_Mar_06_1504,mf_amp_cond2,3.0.4,60.00038487152272,
died,&&&&,right,care.vice,alar,,,,,,,,,,,,,,,0,126,126,166,,,,,,,,,,,,,AMP,left,0.3003112894948572,0,,,,,,,,,,,,,,left,0,0.3003112894948572,,,,,,,,,,,1028,2019_Mar_06_1504,mf_amp_cond2,3.0.4,60.00038487152272,
terrorists,&&&&&,right,fairness.vice,infet,,,,,,,,,,,,,,,0,127,127,81,,,,,,,,,,,,,AMP,left,0.13357192662078887,0,,,,,,,,,,,,,,left,0,0.13357192662078887,,,,,,,,,,,1028,2019_Mar_06_1504,mf_amp_cond2,3.0.4,60.00038487152272,
rorroborated,&&&&&,None,nonword,pulge,,,,,,,,,,,,,,,0,128,128,122,,,,,,,,,,,,,AMP,left,0.40035080211237073,0,,,,,,,,,,,,,,left,0,0.40035080211237073,,,,,,,,,,,1028,2019_Mar_06_1504,mf_amp_cond2,3.0.4,60.00038487152272,
loyalty,&&&&&&&&&&,left,loyalty.virtue,fonderland,,,,,,,,,,,,,,,0,129,129,61,,,,,,,,,,,,,AMP,right,0.4336632031481713,0,,,,,,,,,,,,,,right,0,0.4336632031481713,,,,,,,,,,,1028,2019_Mar_06_1504,mf_amp_cond2,3.0.4,60.00038487152272,
increase,&&&&&&&&&,left,care.virtue,disregord,,,,,,,,,,,,,,,0,130,130,29,,,,,,,,,,,,,AMP,left,0.6170436927350238,1,,,,,,,,,,,,,,left,1,0.6170436927350238,,,,,,,,,,,1028,2019_Mar_06_1504,mf_amp_cond2,3.0.4,60.00038487152272,
fear,&&&&&,right,sanctity.vice,noped,,,,,,,,,,,,,,,0,131,131,220,,,,,,,,,,,,,AMP,left,0.6337172121275216,0,,,,,,,,,,,,,,left,0,0.6337172121275216,,,,,,,,,,,1028,2019_Mar_06_1504,mf_amp_cond2,3.0.4,60.00038487152272,
police,&&&&&&&&&&,right,authority.vice,gationwide,,,,,,,,,,,,,,,0,132,132,45,,,,,,,,,,,,,AMP,left,0.36701370554510504,0,,,,,,,,,,,,,,left,0,0.36701370554510504,,,,,,,,,,,1028,2019_Mar_06_1504,mf_amp_cond2,3.0.4,60.00038487152272,
hasks,&&&&,None,nonword,alar,,,,,,,,,,,,,,,0,133,133,6,,,,,,,,,,,,,AMP,left,0.31697903596796095,0,,,,,,,,,,,,,,left,0,0.31697903596796095,,,,,,,,,,,1028,2019_Mar_06_1504,mf_amp_cond2,3.0.4,60.00038487152272,
strength,&&&&&&&&&&,left,sanctity.virtue,frocessing,,,,,,,,,,,,,,,0,134,134,89,,,,,,,,,,,,,AMP,right,0.4336712210206315,0,,,,,,,,,,,,,,right,0,0.4336712210206315,,,,,,,,,,,1028,2019_Mar_06_1504,mf_amp_cond2,3.0.4,60.00038487152272,
fair,&&&&&&&&,left,fairness.virtue,lachelor,,,,,,,,,,,,,,,0,135,135,138,,,,,,,,,,,,,AMP,right,0.2836480331607163,0,,,,,,,,,,,,,,right,0,0.2836480331607163,,,,,,,,,,,1028,2019_Mar_06_1504,mf_amp_cond2,3.0.4,60.00038487152272,
corruption,&&&&&&&&&&&,right,sanctity.vice,nomparisons,,,,,,,,,,,,,,,0,136,136,218,,,,,,,,,,,,,AMP,left,0.4336741075385362,0,,,,,,,,,,,,,,left,0,0.4336741075385362,,,,,,,,,,,1028,2019_Mar_06_1504,mf_amp_cond2,3.0.4,60.00038487152272,
mih,&&&&&&&,None,nonword,baklara,,,,,,,,,,,,,,,0,137,137,273,,,,,,,,,,,,,AMP,left,2.317460434511304,0,,,,,,,,,,,,,,left,0,2.317460434511304,,,,,,,,,,,1028,2019_Mar_06_1504,mf_amp_cond2,3.0.4,60.00038487152272,
men,&&&&&&&&,right,loyalty.vice,lachelor,,,,,,,,,,,,,,,0,138,138,8,,,,,,,,,,,,,AMP,right,2.967630832339637,1,,,,,,,,,,,,,,right,1,2.967630832339637,,,,,,,,,,,1028,2019_Mar_06_1504,mf_amp_cond2,3.0.4,60.00038487152272,
encourage,&&&&&&&,left,authority.virtue,brudent,,,,,,,,,,,,,,,0,139,139,66,,,,,,,,,,,,,AMP,left,3.1509949654573575,1,,,,,,,,,,,,,,left,1,3.1509949654573575,,,,,,,,,,,1028,2019_Mar_06_1504,mf_amp_cond2,3.0.4,60.00038487152272,
integrity,&&&&&&&&&,left,fairness.virtue,brotesque,,,,,,,,,,,,,,,0,140,140,185,,,,,,,,,,,,,AMP,left,0.45035115478094667,1,,,,,,,,,,,,,,left,1,0.45035115478094667,,,,,,,,,,,1028,2019_Mar_06_1504,mf_amp_cond2,3.0.4,60.00038487152272,
agreement,&&&&&&&&&&&,left,fairness.virtue,nomparisons,,,,,,,,,,,,,,,0,141,141,126,,,,,,,,,,,,,AMP,left,0.06692307046614587,1,,,,,,,,,,,,,,left,1,0.06692307046614587,,,,,,,,,,,1028,2019_Mar_06_1504,mf_amp_cond2,3.0.4,60.00038487152272,
progress,&&&&&&&&&&&&&,left,authority.virtue,esquisiteness,,,,,,,,,,,,,,,0,142,142,319,,,,,,,,,,,,,AMP,left,0.6170414476655424,1,,,,,,,,,,,,,,left,1,0.6170414476655424,,,,,,,,,,,1028,2019_Mar_06_1504,mf_amp_cond2,3.0.4,60.00038487152272,
pistraught,&&&&&&&&&,None,nonword,discovars,,,,,,,,,,,,,,,0,143,143,270,,,,,,,,,,,,,AMP,left,0.5503755935933441,0,,,,,,,,,,,,,,left,0,0.5503755935933441,,,,,,,,,,,1028,2019_Mar_06_1504,mf_amp_cond2,3.0.4,60.00038487152272,
corruption,&&&&&&&&&&,right,sanctity.vice,frocessing,,,,,,,,,,,,,,,0,144,144,289,,,,,,,,,,,,,AMP,left,0.4670189011376351,0,,,,,,,,,,,,,,left,0,0.4670189011376351,,,,,,,,,,,1028,2019_Mar_06_1504,mf_amp_cond2,3.0.4,60.00038487152272,
torture,&&&&&&&&&&&,right,care.vice,sowntrodden,,,,,,,,,,,,,,,0,145,145,3,,,,,,,,,,,,,AMP,left,0.28365188173484057,0,,,,,,,,,,,,,,left,0,0.28365188173484057,,,,,,,,,,,1028,2019_Mar_06_1504,mf_amp_cond2,3.0.4,60.00038487152272,
charges,&&&&&&&&&&&,right,fairness.vice,vicissifude,,,,,,,,,,,,,,,0,146,146,141,,,,,,,,,,,,,AMP,left,0.033587898360565305,0,,,,,,,,,,,,,,left,0,0.033587898360565305,,,,,,,,,,,1028,2019_Mar_06_1504,mf_amp_cond2,3.0.4,60.00038487152272,
increase,&&&&&&,left,care.virtue,gikely,,,,,,,,,,,,,,,0,147,147,239,,,,,,,,,,,,,AMP,left,0.050230949418619275,1,,,,,,,,,,,,,,left,1,0.050230949418619275,,,,,,,,,,,1028,2019_Mar_06_1504,mf_amp_cond2,3.0.4,60.00038487152272,
care,&&&&&&,left,care.virtue,forepo,,,,,,,,,,,,,,,0,148,148,103,,,,,,,,,,,,,AMP,left,0.5837049926631153,1,,,,,,,,,,,,,,left,1,0.5837049926631153,,,,,,,,,,,1028,2019_Mar_06_1504,mf_amp_cond2,3.0.4,60.00038487152272,
safe,&&&&&&&&&&,left,care.virtue,ecgagement,,,,,,,,,,,,,,,0,149,149,63,,,,,,,,,,,,,AMP,left,0.4503341567469761,1,,,,,,,,,,,,,,left,1,0.4503341567469761,,,,,,,,,,,1028,2019_Mar_06_1504,mf_amp_cond2,3.0.4,60.00038487152272,
violence,&&&&&&&&&,right,care.vice,refuejing,,,,,,,,,,,,,,,0,150,150,230,,,,,,,,,,,,,AMP,right,0.1003085954580456,1,,,,,,,,,,,,,,right,1,0.1003085954580456,,,,,,,,,,,1028,2019_Mar_06_1504,mf_amp_cond2,3.0.4,60.00038487152272,
great,&&&&&&&,left,loyalty.virtue,allears,,,,,,,,,,,,,,,0,151,151,32,,,,,,,,,,,,,AMP,left,0.4169887216994539,1,,,,,,,,,,,,,,left,1,0.4169887216994539,,,,,,,,,,,1028,2019_Mar_06_1504,mf_amp_cond2,3.0.4,60.00038487152272,
betrayal,&&&&&&,right,loyalty.vice,laming,,,,,,,,,,,,,,,0,152,152,215,,,,,,,,,,,,,AMP,left,0.41702367994003,0,,,,,,,,,,,,,,left,0,0.41702367994003,,,,,,,,,,,1028,2019_Mar_06_1504,mf_amp_cond2,3.0.4,60.00038487152272,
growth,&&&&&&&&&&&,left,care.virtue,hefurbished,,,,,,,,,,,,,,,0,153,153,187,,,,,,,,,,,,,AMP,right,0.5337187515106052,0,,,,,,,,,,,,,,right,0,0.5337187515106052,,,,,,,,,,,1028,2019_Mar_06_1504,mf_amp_cond2,3.0.4,60.00038487152272,
growth,&&&&&&,left,care.virtue,papert,,,,,,,,,,,,,,,0,154,154,43,,,,,,,,,,,,,AMP,left,0.2336303616175428,1,,,,,,,,,,,,,,left,1,0.2336303616175428,,,,,,,,,,,1028,2019_Mar_06_1504,mf_amp_cond2,3.0.4,60.00038487152272,
death,&&&&&,right,care.vice,pulge,,,,,,,,,,,,,,,0,155,155,176,,,,,,,,,,,,,AMP,left,0.5503643683623523,0,,,,,,,,,,,,,,left,0,0.5503643683623523,,,,,,,,,,,1028,2019_Mar_06_1504,mf_amp_cond2,3.0.4,60.00038487152272,
great,&&&&&&&&,left,loyalty.virtue,pullness,,,,,,,,,,,,,,,0,156,156,311,,,,,,,,,,,,,AMP,left,0.7504190189065412,1,,,,,,,,,,,,,,left,1,0.7504190189065412,,,,,,,,,,,1028,2019_Mar_06_1504,mf_amp_cond2,3.0.4,60.00038487152272,
promises,&&&&&&&&&,left,fairness.virtue,gillipede,,,,,,,,,,,,,,,0,157,157,316,,,,,,,,,,,,,AMP,left,1.0336793032474816,1,,,,,,,,,,,,,,left,1,1.0336793032474816,,,,,,,,,,,1028,2019_Mar_06_1504,mf_amp_cond2,3.0.4,60.00038487152272,
drug,&&&&&&&&&&&,right,sanctity.vice,lempestuous,,,,,,,,,,,,,,,0,158,158,120,,,,,,,,,,,,,AMP,left,0.3503090764861554,0,,,,,,,,,,,,,,left,0,0.3503090764861554,,,,,,,,,,,1028,2019_Mar_06_1504,mf_amp_cond2,3.0.4,60.00038487152272,
love,&&&&&&&&&,left,loyalty.virtue,neputized,,,,,,,,,,,,,,,0,159,159,12,,,,,,,,,,,,,AMP,right,0.2502926556626335,0,,,,,,,,,,,,,,right,0,0.2502926556626335,,,,,,,,,,,1028,2019_Mar_06_1504,mf_amp_cond2,3.0.4,60.00038487152272,
useful,&&&&&&&&&,left,authority.virtue,gaultless,,,,,,,,,,,,,,,0,160,160,285,,,,,,,,,,,,,AMP,left,0.15028200787492096,1,,,,,,,,,,,,,,left,1,0.15028200787492096,,,,,,,,,,,1028,2019_Mar_06_1504,mf_amp_cond2,3.0.4,60.00038487152272,
respect,&&&&&&&&&&&,left,sanctity.virtue,shoirmaster,,,,,,,,,,,,,,,0,161,161,75,,,,,,,,,,,,,AMP,left,0.6168990486767143,1,,,,,,,,,,,,,,left,1,0.6168990486767143,,,,,,,,,,,1028,2019_Mar_06_1504,mf_amp_cond2,3.0.4,60.00038487152272,
prison,&&&&,right,fairness.vice,alar,,,,,,,,,,,,,,,0,162,162,323,,,,,,,,,,,,,AMP,left,0.36694892041850835,0,,,,,,,,,,,,,,left,0,0.36694892041850835,,,,,,,,,,,1028,2019_Mar_06_1504,mf_amp_cond2,3.0.4,60.00038487152272,
promote,&&&&&&,left,sanctity.virtue,pumber,,,,,,,,,,,,,,,0,163,163,147,,,,,,,,,,,,,AMP,left,0.48368728905916214,1,,,,,,,,,,,,,,left,1,0.48368728905916214,,,,,,,,,,,1028,2019_Mar_06_1504,mf_amp_cond2,3.0.4,60.00038487152272,
penalty,&&&&&&,right,authority.vice,pumber,,,,,,,,,,,,,,,0,164,164,287,,,,,,,,,,,,,AMP,left,0.20027979498263448,0,,,,,,,,,,,,,,left,0,0.20027979498263448,,,,,,,,,,,1028,2019_Mar_06_1504,mf_amp_cond2,3.0.4,60.00038487152272,
protect,&&&&&&&&,left,fairness.virtue,counpy's,,,,,,,,,,,,,,,0,165,165,34,,,,,,,,,,,,,AMP,left,0.13345678860787302,1,,,,,,,,,,,,,,left,1,0.13345678860787302,,,,,,,,,,,1028,2019_Mar_06_1504,mf_amp_cond2,3.0.4,60.00038487152272,
voter,&&&&&&&,right,fairness.vice,scalbel,,,,,,,,,,,,,,,0,166,166,203,,,,,,,,,,,,,AMP,left,11.75309220852796,0,,,,,,,,,,,,,,left,0,11.75309220852796,,,,,,,,,,,1028,2019_Mar_06_1504,mf_amp_cond2,3.0.4,60.00038487152272,
integrity,&&&&&&&&,left,fairness.virtue,suggists,,,,,,,,,,,,,,,0,167,167,153,,,,,,,,,,,,,AMP,left,0.48369017557706684,1,,,,,,,,,,,,,,left,1,0.48369017557706684,,,,,,,,,,,1028,2019_Mar_06_1504,mf_amp_cond2,3.0.4,60.00038487152272,
fontacts,&&&&&,None,nonword,uller,,,,,,,,,,,,,,,0,168,168,240,,,,,,,,,,,,,AMP,left,0.783794280840084,0,,,,,,,,,,,,,,left,0,0.783794280840084,,,,,,,,,,,1028,2019_Mar_06_1504,mf_amp_cond2,3.0.4,60.00038487152272,
win,&&&&&&&&&&&&&,left,fairness.virtue,synchronazers,,,,,,,,,,,,,,,0,169,169,50,,,,,,,,,,,,,AMP,left,0.7504350548842922,1,,,,,,,,,,,,,,left,1,0.7504350548842922,,,,,,,,,,,1028,2019_Mar_06_1504,mf_amp_cond2,3.0.4,60.00038487152272,
health,&&&&&&&&&&,left,care.virtue,gationwide,,,,,,,,,,,,,,,0,170,170,179,,,,,,,,,,,,,AMP,left,1.117164282943122,1,,,,,,,,,,,,,,left,1,1.117164282943122,,,,,,,,,,,1028,2019_Mar_06_1504,mf_amp_cond2,3.0.4,60.00038487152272,
health,&&&&&&&&&&,left,care.virtue,fonderland,,,,,,,,,,,,,,,0,171,171,294,,,,,,,,,,,,,AMP,left,0.10027139203157276,1,,,,,,,,,,,,,,left,1,0.10027139203157276,,,,,,,,,,,1028,2019_Mar_06_1504,mf_amp_cond2,3.0.4,60.00038487152272,
voter,&&&&&&&&,right,fairness.vice,crinking,,,,,,,,,,,,,,,0,172,172,246,,,,,,,,,,,,,AMP,left,0.083590496215038,0,,,,,,,,,,,,,,left,0,0.083590496215038,,,,,,,,,,,1028,2019_Mar_06_1504,mf_amp_cond2,3.0.4,60.00038487152272,
blamed,&&&&&&&&,right,loyalty.vice,sfumatoy,,,,,,,,,,,,,,,0,173,173,211,,,,,,,,,,,,,AMP,right,0.7337467824108899,1,,,,,,,,,,,,,,right,1,0.7337467824108899,,,,,,,,,,,1028,2019_Mar_06_1504,mf_amp_cond2,3.0.4,60.00038487152272,
pistraught,&&&&&&&&&&,None,nonword,totalestic,,,,,,,,,,,,,,,0,174,174,51,,,,,,,,,,,,,AMP,left,0.266985738882795,0,,,,,,,,,,,,,,left,0,0.266985738882795,,,,,,,,,,,1028,2019_Mar_06_1504,mf_amp_cond2,3.0.4,60.00038487152272,
rorroborated,&&&&&&&&,None,nonword,lachelor,,,,,,,,,,,,,,,0,175,175,309,,,,,,,,,,,,,AMP,right,0.33364229230210185,0,,,,,,,,,,,,,,right,0,0.33364229230210185,,,,,,,,,,,1028,2019_Mar_06_1504,mf_amp_cond2,3.0.4,60.00038487152272,
betrayal,&&&&&&&&&,right,loyalty.vice,ittutable,,,,,,,,,,,,,,,0,176,176,310,,,,,,,,,,,,,AMP,left,0.41699834319297224,0,,,,,,,,,,,,,,left,0,0.41699834319297224,,,,,,,,,,,1028,2019_Mar_06_1504,mf_amp_cond2,3.0.4,60.00038487152272,
scandal,&&&&&&&&&&&,right,sanctity.vice,sowntrodden,,,,,,,,,,,,,,,0,177,177,145,,,,,,,,,,,,,AMP,left,0.40032835176680237,0,,,,,,,,,,,,,,left,0,0.40032835176680237,,,,,,,,,,,1028,2019_Mar_06_1504,mf_amp_cond2,3.0.4,60.00038487152272,
win,&&&&&&&&&,left,fairness.virtue,gaultless,,,,,,,,,,,,,,,0,178,178,213,,,,,,,,,,,,,AMP,left,0.6670052387053147,1,,,,,,,,,,,,,,left,1,0.6670052387053147,,,,,,,,,,,1028,2019_Mar_06_1504,mf_amp_cond2,3.0.4,60.00038487152272,
hasks,&&&&&&&&&&&&&,None,nonword,photocalkodes,,,,,,,,,,,,,,,0,179,179,128,,,,,,,,,,,,,AMP,left,0.01690539892297238,0,,,,,,,,,,,,,,left,0,0.01690539892297238,,,,,,,,,,,1028,2019_Mar_06_1504,mf_amp_cond2,3.0.4,60.00038487152272,
health,&&&&&&&&&,left,care.virtue,gandbrake,,,,,,,,,,,,,,,0,180,180,9,,,,,,,,,,,,,AMP,left,0.06694776576478034,1,,,,,,,,,,,,,,left,1,0.06694776576478034,,,,,,,,,,,1028,2019_Mar_06_1504,mf_amp_cond2,3.0.4,60.00038487152272,
torture,&&&&&,right,care.vice,infet,,,,,,,,,,,,,,,0,181,181,223,,,,,,,,,,,,,AMP,left,0.1169490807224065,0,,,,,,,,,,,,,,left,0,0.1169490807224065,,,,,,,,,,,1028,2019_Mar_06_1504,mf_amp_cond2,3.0.4,60.00038487152272,
prosecution,&&&&&&&&,right,authority.vice,counpy's,,,,,,,,,,,,,,,0,182,182,152,,,,,,,,,,,,,AMP,right,0.6003743427572772,1,,,,,,,,,,,,,,right,1,0.6003743427572772,,,,,,,,,,,1028,2019_Mar_06_1504,mf_amp_cond2,3.0.4,60.00038487152272,
increase,&&&&&&&&&&&&&,left,care.virtue,photocalkodes,,,,,,,,,,,,,,,0,183,183,253,,,,,,,,,,,,,AMP,right,0.6504009944619611,0,,,,,,,,,,,,,,right,0,0.6504009944619611,,,,,,,,,,,1028,2019_Mar_06_1504,mf_amp_cond2,3.0.4,60.00038487152272,
improve,&&&&&&&&&&,left,care.virtue,ecgagement,,,,,,,,,,,,,,,0,184,184,231,,,,,,,,,,,,,AMP,left,1.033827154431492,1,,,,,,,,,,,,,,left,1,1.033827154431492,,,,,,,,,,,1028,2019_Mar_06_1504,mf_amp_cond2,3.0.4,60.00038487152272,
useful,&&&&&&&&&,left,authority.virtue,discovars,,,,,,,,,,,,,,,0,185,185,142,,,,,,,,,,,,,AMP,left,0.533701432752423,1,,,,,,,,,,,,,,left,1,0.533701432752423,,,,,,,,,,,1028,2019_Mar_06_1504,mf_amp_cond2,3.0.4,60.00038487152272,
win,&&&&&&&&&&&,left,fairness.virtue,shoirmaster,,,,,,,,,,,,,,,0,186,186,96,,,,,,,,,,,,,AMP,right,0.4336731453659013,0,,,,,,,,,,,,,,right,0,0.4336731453659013,,,,,,,,,,,1028,2019_Mar_06_1504,mf_amp_cond2,3.0.4,60.00038487152272,
charges,&&&&,right,fairness.vice,yane,,,,,,,,,,,,,,,0,187,187,168,,,,,,,,,,,,,AMP,left,0.6170581250917166,0,,,,,,,,,,,,,,left,0,0.6170581250917166,,,,,,,,,,,1028,2019_Mar_06_1504,mf_amp_cond2,3.0.4,60.00038487152272,
praise,&&&&&&&&&&&,left,authority.virtue,shoirmaster,,,,,,,,,,,,,,,0,188,188,241,,,,,,,,,,,,,AMP,left,0.5170250269584358,1,,,,,,,,,,,,,,left,1,0.5170250269584358,,,,,,,,,,,1028,2019_Mar_06_1504,mf_amp_cond2,3.0.4,60.00038487152272,
promote,&&&&&&&&&,left,sanctity.virtue,ittutable,,,,,,,,,,,,,,,0,189,189,48,,,,,,,,,,,,,AMP,right,0.5670391706516966,0,,,,,,,,,,,,,,right,0,0.5670391706516966,,,,,,,,,,,1028,2019_Mar_06_1504,mf_amp_cond2,3.0.4,60.00038487152272,
charges,&&&&&&&&&,right,fairness.vice,disregord,,,,,,,,,,,,,,,0,190,190,259,,,,,,,,,,,,,AMP,left,0.3669793886365369,0,,,,,,,,,,,,,,left,0,0.3669793886365369,,,,,,,,,,,1028,2019_Mar_06_1504,mf_amp_cond2,3.0.4,60.00038487152272,
commitment,&&&&&&&,left,sanctity.virtue,nomaric,,,,,,,,,,,,,,,0,191,191,184,,,,,,,,,,,,,AMP,right,0.25028912781272084,0,,,,,,,,,,,,,,right,0,0.25028912781272084,,,,,,,,,,,1028,2019_Mar_06_1504,mf_amp_cond2,3.0.4,60.00038487152272,
actively,&&&&&&&&&&&&&,left,authority.virtue,wonderfujnoss,,,,,,,,,,,,,,,0,192,192,297,,,,,,,,,,,,,AMP,right,0.3336608939571306,0,,,,,,,,,,,,,,right,0,0.3336608939571306,,,,,,,,,,,1028,2019_Mar_06_1504,mf_amp_cond2,3.0.4,60.00038487152272,
perfect,&&&&&&&,left,sanctity.virtue,halaise,,,,,,,,,,,,,,,0,193,193,42,,,,,,,,,,,,,AMP,right,0.3336406886810437,0,,,,,,,,,,,,,,right,0,0.3336406886810437,,,,,,,,,,,1028,2019_Mar_06_1504,mf_amp_cond2,3.0.4,60.00038487152272,
promised,&&&&&&&&&&&,left,loyalty.virtue,fornicalion,,,,,,,,,,,,,,,0,194,194,313,,,,,,,,,,,,,AMP,right,0.45034666475839913,0,,,,,,,,,,,,,,right,0,0.45034666475839913,,,,,,,,,,,1028,2019_Mar_06_1504,mf_amp_cond2,3.0.4,60.00038487152272,
compassion,&&&&&&&&&&&&&,left,care.virtue,photocalkodes,,,,,,,,,,,,,,,0,195,195,183,,,,,,,,,,,,,AMP,right,0.7336053454782814,0,,,,,,,,,,,,,,right,0,0.7336053454782814,,,,,,,,,,,1028,2019_Mar_06_1504,mf_amp_cond2,3.0.4,60.00038487152272,
hate,&&&&&&,right,fairness.vice,pumber,,,,,,,,,,,,,,,0,196,196,22,,,,,,,,,,,,,AMP,left,0.41700539900921285,0,,,,,,,,,,,,,,left,0,0.41700539900921285,,,,,,,,,,,1028,2019_Mar_06_1504,mf_amp_cond2,3.0.4,60.00038487152272,
improve,&&&&,left,care.virtue,ning,,,,,,,,,,,,,,,0,197,197,109,,,,,,,,,,,,,AMP,right,0.8671092797303572,0,,,,,,,,,,,,,,right,0,0.8671092797303572,,,,,,,,,,,1028,2019_Mar_06_1504,mf_amp_cond2,3.0.4,60.00038487152272,
voter,&&&&&&&&,right,fairness.vice,epigrach,,,,,,,,,,,,,,,0,198,198,101,,,,,,,,,,,,,AMP,right,0.5170263098552823,1,,,,,,,,,,,,,,right,1,0.5170263098552823,,,,,,,,,,,1028,2019_Mar_06_1504,mf_amp_cond2,3.0.4,60.00038487152272,
death,&&&&&&&,right,care.vice,brudent,,,,,,,,,,,,,,,0,199,199,157,,,,,,,,,,,,,AMP,left,0.41701149253640324,0,,,,,,,,,,,,,,left,0,0.41701149253640324,,,,,,,,,,,1028,2019_Mar_06_1504,mf_amp_cond2,3.0.4,60.00038487152272,
compassion,&&&&&,left,care.virtue,touls,,,,,,,,,,,,,,,0,200,200,248,,,,,,,,,,,,,AMP,left,0.4336712211370468,1,,,,,,,,,,,,,,left,1,0.4336712211370468,,,,,,,,,,,1028,2019_Mar_06_1504,mf_amp_cond2,3.0.4,60.00038487152272,
corruption,&&&&&&&&,right,sanctity.vice,crinking,,,,,,,,,,,,,,,0,201,201,104,,,,,,,,,,,,,AMP,left,0.333634595037438,0,,,,,,,,,,,,,,left,0,0.333634595037438,,,,,,,,,,,1028,2019_Mar_06_1504,mf_amp_cond2,3.0.4,60.00038487152272,
violations,&&&&&&&&&&&,right,sanctity.vice,fornicalion,,,,,,,,,,,,,,,0,202,202,167,,,,,,,,,,,,,AMP,left,1.3172061047516763,0,,,,,,,,,,,,,,left,0,1.3172061047516763,,,,,,,,,,,1028,2019_Mar_06_1504,mf_amp_cond2,3.0.4,60.00038487152272,
protect,&&&&&&&&,left,fairness.virtue,counpy's,,,,,,,,,,,,,,,0,203,203,169,,,,,,,,,,,,,AMP,right,0.3836615674663335,0,,,,,,,,,,,,,,right,0,0.3836615674663335,,,,,,,,,,,1028,2019_Mar_06_1504,mf_amp_cond2,3.0.4,60.00038487152272,
serial,&&&&&,right,sanctity.vice,infet,,,,,,,,,,,,,,,0,204,204,263,,,,,,,,,,,,,AMP,left,0.3336615354055539,0,,,,,,,,,,,,,,left,0,0.3336615354055539,,,,,,,,,,,1028,2019_Mar_06_1504,mf_amp_cond2,3.0.4,60.00038487152272,
suicide,&&&&&&&,right,care.vice,chadows,,,,,,,,,,,,,,,0,205,205,272,,,,,,,,,,,,,AMP,left,0.45034313679207116,0,,,,,,,,,,,,,,left,0,0.45034313679207116,,,,,,,,,,,1028,2019_Mar_06_1504,mf_amp_cond2,3.0.4,60.00038487152272,
love,&&&&&&&&&&&,left,loyalty.virtue,nomparisons,,,,,,,,,,,,,,,0,206,206,264,,,,,,,,,,,,,AMP,right,0.6670568743720651,0,,,,,,,,,,,,,,right,0,0.6670568743720651,,,,,,,,,,,1028,2019_Mar_06_1504,mf_amp_cond2,3.0.4,60.00038487152272,
hasks,&&&&&&&,None,nonword,nackers,,,,,,,,,,,,,,,0,207,207,321,,,,,,,,,,,,,AMP,left,0.7170601135585457,0,,,,,,,,,,,,,,left,0,0.7170601135585457,,,,,,,,,,,1028,2019_Mar_06_1504,mf_amp_cond2,3.0.4,60.00038487152272,
promises,&&&&,left,fairness.virtue,yane,,,,,,,,,,,,,,,0,208,208,86,,,,,,,,,,,,,AMP,left,0.3836785655003041,1,,,,,,,,,,,,,,left,1,0.3836785655003041,,,,,,,,,,,1028,2019_Mar_06_1504,mf_amp_cond2,3.0.4,60.00038487152272,
integrity,&&&&&&&&,left,fairness.virtue,glacenta,,,,,,,,,,,,,,,0,209,209,327,,,,,,,,,,,,,AMP,left,0.38365483237430453,1,,,,,,,,,,,,,,left,1,0.38365483237430453,,,,,,,,,,,1028,2019_Mar_06_1504,mf_amp_cond2,3.0.4,60.00038487152272,
fair,&&&&&&&&&&&&,left,fairness.virtue,feleological,,,,,,,,,,,,,,,0,210,210,261,,,,,,,,,,,,,AMP,left,0.4169999468140304,1,,,,,,,,,,,,,,left,1,0.4169999468140304,,,,,,,,,,,1028,2019_Mar_06_1504,mf_amp_cond2,3.0.4,60.00038487152272,
credit,&&&&&&&&&,left,fairness.virtue,gaultless,,,,,,,,,,,,,,,0,211,211,162,,,,,,,,,,,,,AMP,left,0.8337888607056811,1,,,,,,,,,,,,,,left,1,0.8337888607056811,,,,,,,,,,,1028,2019_Mar_06_1504,mf_amp_cond2,3.0.4,60.00038487152272,
improve,&&&&&&&,left,care.virtue,halaise,,,,,,,,,,,,,,,0,212,212,320,,,,,,,,,,,,,AMP,left,0.6503977873362601,1,,,,,,,,,,,,,,left,1,0.6503977873362601,,,,,,,,,,,1028,2019_Mar_06_1504,mf_amp_cond2,3.0.4,60.00038487152272,
respect,&&&&&&,left,sanctity.virtue,Cunday,,,,,,,,,,,,,,,0,213,213,159,,,,,,,,,,,,,AMP,left,0.3503260746365413,1,,,,,,,,,,,,,,left,1,0.3503260746365413,,,,,,,,,,,1028,2019_Mar_06_1504,mf_amp_cond2,3.0.4,60.00038487152272,
fear,&&&&&&&&&&&,right,sanctity.vice,hefurbished,,,,,,,,,,,,,,,0,214,214,117,,,,,,,,,,,,,AMP,left,0.1669946548063308,0,,,,,,,,,,,,,,left,0,0.1669946548063308,,,,,,,,,,,1028,2019_Mar_06_1504,mf_amp_cond2,3.0.4,60.00038487152272,
pleasant,&&&&&&&&,None,control,sliptery,,,,,,,,,,,,,,,0,215,215,301,,,,,,,,,,,,,AMP,left,0.3836577187757939,0,,,,,,,,,,,,,,left,0,0.3836577187757939,,,,,,,,,,,1028,2019_Mar_06_1504,mf_amp_cond2,3.0.4,60.00038487152272,
praised,&&&&&&&&&,left,loyalty.virtue,brotesque,,,,,,,,,,,,,,,0,216,216,283,,,,,,,,,,,,,AMP,left,0.21695940801873803,1,,,,,,,,,,,,,,left,1,0.21695940801873803,,,,,,,,,,,1028,2019_Mar_06_1504,mf_amp_cond2,3.0.4,60.00038487152272,
care,&&&&&&,left,care.virtue,papert,,,,,,,,,,,,,,,0,217,217,282,,,,,,,,,,,,,AMP,left,0.3003173831384629,1,,,,,,,,,,,,,,left,1,0.3003173831384629,,,,,,,,,,,1028,2019_Mar_06_1504,mf_amp_cond2,3.0.4,60.00038487152272,
officers,&&&&&&&,right,authority.vice,nackers,,,,,,,,,,,,,,,0,218,218,82,,,,,,,,,,,,,AMP,left,0.36700183898210526,0,,,,,,,,,,,,,,left,0,0.36700183898210526,,,,,,,,,,,1028,2019_Mar_06_1504,mf_amp_cond2,3.0.4,60.00038487152272,
penalty,&&&&&&&&&,right,authority.vice,ittutable,,,,,,,,,,,,,,,0,219,219,175,,,,,,,,,,,,,AMP,left,0.26698734250385314,0,,,,,,,,,,,,,,left,0,0.26698734250385314,,,,,,,,,,,1028,2019_Mar_06_1504,mf_amp_cond2,3.0.4,60.00038487152272,
compassion,&&&&&&&&,left,care.virtue,sliptery,,,,,,,,,,,,,,,0,220,220,25,,,,,,,,,,,,,AMP,left,0.5170606266474351,1,,,,,,,,,,,,,,left,1,0.5170606266474351,,,,,,,,,,,1028,2019_Mar_06_1504,mf_amp_cond2,3.0.4,60.00038487152272,
mih,&&&&&&&&&&&&&,None,nonword,synchronazers,,,,,,,,,,,,,,,0,221,221,84,,,,,,,,,,,,,AMP,left,0.46701697690878063,0,,,,,,,,,,,,,,left,0,0.46701697690878063,,,,,,,,,,,1028,2019_Mar_06_1504,mf_amp_cond2,3.0.4,60.00038487152272,
blamed,&&&&&&&&&,right,loyalty.vice,tenuflect,,,,,,,,,,,,,,,0,222,222,56,,,,,,,,,,,,,AMP,left,0.36699093447532505,0,,,,,,,,,,,,,,left,0,0.36699093447532505,,,,,,,,,,,1028,2019_Mar_06_1504,mf_amp_cond2,3.0.4,60.00038487152272,
serial,&&&&&&&&&&&,right,sanctity.vice,blunderints,,,,,,,,,,,,,,,0,223,223,105,,,,,,,,,,,,,AMP,left,0.4170079648029059,0,,,,,,,,,,,,,,left,0,0.4170079648029059,,,,,,,,,,,1028,2019_Mar_06_1504,mf_amp_cond2,3.0.4,60.00038487152272,
rebels,&&&&&&&&&&&&&,right,authority.vice,wonderfujnoss,,,,,,,,,,,,,,,0,224,224,209,,,,,,,,,,,,,AMP,left,0.4668841994134709,0,,,,,,,,,,,,,,left,0,0.4668841994134709,,,,,,,,,,,1028,2019_Mar_06_1504,mf_amp_cond2,3.0.4,60.00038487152272,
respect,&&&&&,left,sanctity.virtue,pulge,,,,,,,,,,,,,,,0,225,225,266,,,,,,,,,,,,,AMP,left,0.4170025126077235,1,,,,,,,,,,,,,,left,1,0.4170025126077235,,,,,,,,,,,1028,2019_Mar_06_1504,mf_amp_cond2,3.0.4,60.00038487152272,
prosecution,&&&&&&&&&&&,right,authority.vice,lempestuous,,,,,,,,,,,,,,,0,226,226,28,,,,,,,,,,,,,AMP,right,0.21695491787977517,1,,,,,,,,,,,,,,right,1,0.21695491787977517,,,,,,,,,,,1028,2019_Mar_06_1504,mf_amp_cond2,3.0.4,60.00038487152272,
dignity,&&&&&&&&&&&&&,left,sanctity.virtue,esquisiteness,,,,,,,,,,,,,,,0,227,227,70,,,,,,,,,,,,,AMP,right,0.3669983111321926,0,,,,,,,,,,,,,,right,0,0.3669983111321926,,,,,,,,,,,1028,2019_Mar_06_1504,mf_amp_cond2,3.0.4,60.00038487152272,
chared,&&&&&&&&&,None,nonword,ittutable,,,,,,,,,,,,,,,0,228,228,111,,,,,,,,,,,,,AMP,left,2.100745414267294,0,,,,,,,,,,,,,,left,0,2.100745414267294,,,,,,,,,,,1028,2019_Mar_06_1504,mf_amp_cond2,3.0.4,60.00038487152272,
men,&&&&&&&&,right,loyalty.vice,divility,,,,,,,,,,,,,,,0,229,229,91,,,,,,,,,,,,,AMP,left,0.8837786297081038,0,,,,,,,,,,,,,,left,0,0.8837786297081038,,,,,,,,,,,1028,2019_Mar_06_1504,mf_amp_cond2,3.0.4,60.00038487152272,
racist,&&&&&&&&,right,sanctity.vice,sfumatoy,,,,,,,,,,,,,,,0,230,230,298,,,,,,,,,,,,,AMP,left,0.4503614178393036,0,,,,,,,,,,,,,,left,0,0.4503614178393036,,,,,,,,,,,1028,2019_Mar_06_1504,mf_amp_cond2,3.0.4,60.00038487152272,
commitment,&&&&&&&&&,left,sanctity.virtue,gandbrake,,,,,,,,,,,,,,,0,231,231,135,,,,,,,,,,,,,AMP,right,0.46701633546035737,0,,,,,,,,,,,,,,right,0,0.46701633546035737,,,,,,,,,,,1028,2019_Mar_06_1504,mf_amp_cond2,3.0.4,60.00038487152272,
trust,&&&&&&&&&,left,authority.virtue,gillipede,,,,,,,,,,,,,,,0,232,232,114,,,,,,,,,,,,,AMP,right,0.41702143487054855,0,,,,,,,,,,,,,,right,0,0.41702143487054855,,,,,,,,,,,1028,2019_Mar_06_1504,mf_amp_cond2,3.0.4,60.00038487152272,
praise,&&&&&&&&,left,authority.virtue,pullness,,,,,,,,,,,,,,,0,233,233,158,,,,,,,,,,,,,AMP,left,0.5837178215151653,1,,,,,,,,,,,,,,left,1,0.5837178215151653,,,,,,,,,,,1028,2019_Mar_06_1504,mf_amp_cond2,3.0.4,60.00038487152272,
rebels,&&&&&&&&&&&&&,right,authority.vice,synchronazers,,,,,,,,,,,,,,,0,234,234,295,,,,,,,,,,,,,AMP,left,0.41699962597340345,0,,,,,,,,,,,,,,left,0,0.41699962597340345,,,,,,,,,,,1028,2019_Mar_06_1504,mf_amp_cond2,3.0.4,60.00038487152272,
slavery,&&&&&&&&,right,loyalty.vice,ebbitter,,,,,,,,,,,,,,,0,235,235,280,,,,,,,,,,,,,AMP,left,0.050254361936822534,0,,,,,,,,,,,,,,left,0,0.050254361936822534,,,,,,,,,,,1028,2019_Mar_06_1504,mf_amp_cond2,3.0.4,60.00038487152272,
praised,&&&&&&&,left,loyalty.virtue,troubla,,,,,,,,,,,,,,,0,236,236,69,,,,,,,,,,,,,AMP,left,0.6170472207013518,1,,,,,,,,,,,,,,left,1,0.6170472207013518,,,,,,,,,,,1028,2019_Mar_06_1504,mf_amp_cond2,3.0.4,60.00038487152272,
violence,&&&&&&&&&,right,care.vice,refuejing,,,,,,,,,,,,,,,0,237,237,258,,,,,,,,,,,,,AMP,right,0.4503444196889177,1,,,,,,,,,,,,,,right,1,0.4503444196889177,,,,,,,,,,,1028,2019_Mar_06_1504,mf_amp_cond2,3.0.4,60.00038487152272,
hescribe,&&&&&&&&&,None,nonword,Lacedonia,,,,,,,,,,,,,,,0,238,238,293,,,,,,,,,,,,,AMP,left,0.23362523003015667,0,,,,,,,,,,,,,,left,0,0.23362523003015667,,,,,,,,,,,1028,2019_Mar_06_1504,mf_amp_cond2,3.0.4,60.00038487152272,
hand,&&&&&&&&&,left,sanctity.virtue,chressing,,,,,,,,,,,,,,,0,239,239,204,,,,,,,,,,,,,AMP,left,0.016896098153665662,1,,,,,,,,,,,,,,left,1,0.016896098153665662,,,,,,,,,,,1028,2019_Mar_06_1504,mf_amp_cond2,3.0.4,60.00038487152272,
drug,&&&&,right,sanctity.vice,ning,,,,,,,,,,,,,,,0,240,240,182,,,,,,,,,,,,,AMP,left,0.5837158971698955,0,,,,,,,,,,,,,,left,0,0.5837158971698955,,,,,,,,,,,1028,2019_Mar_06_1504,mf_amp_cond2,3.0.4,60.00038487152272,
mih,&&&&&&&&,None,nonword,crinking,,,,,,,,,,,,,,,0,241,241,80,,,,,,,,,,,,,AMP,left,0.2503025979967788,0,,,,,,,,,,,,,,left,0,0.2503025979967788,,,,,,,,,,,1028,2019_Mar_06_1504,mf_amp_cond2,3.0.4,60.00038487152272,
lies,&&&&&&&&&&,right,fairness.vice,frocessing,,,,,,,,,,,,,,,0,242,242,208,,,,,,,,,,,,,AMP,left,0.10026978852692991,0,,,,,,,,,,,,,,left,0,0.10026978852692991,,,,,,,,,,,1028,2019_Mar_06_1504,mf_amp_cond2,3.0.4,60.00038487152272,
