words,nonwords,mask,corr_ans,category,tweets,topic,AMP_prac_loop.thisRepN,AMP_prac_loop.thisTrialN,AMP_prac_loop.thisN,AMP_prac_loop.thisIndex,AMP_trials.thisRepN,AMP_trials.thisTrialN,AMP_trials.thisN,AMP_trials.thisIndex,LDT_prac_loop.thisRepN,LDT_prac_loop.thisTrialN,LDT_prac_loop.thisN,LDT_prac_loop.thisIndex,LDT_loop.thisRepN,LDT_loop.thisTrialN,LDT_loop.thisN,LDT_loop.thisIndex,tweet_loop.thisRepN,tweet_loop.thisTrialN,tweet_loop.thisN,tweet_loop.thisIndex,begin_key.keys,begin_key.rt,key_resp_AMP_instr1.keys,key_resp_AMP_instr1.rt,resp_AMP_ready1.keys,resp_AMP_ready1.rt,resp_AMP_prac.keys,resp_AMP_prac.rt,task,keypress,RT,resp_AMP_ready.keys,resp_AMP_ready.rt,resp_AMP.keys,resp_AMP.corr,resp_AMP.rt,corr,AMP_nonword_rating.response,AMP_nonword_rating.rt,AMP_word_rating.response,AMP_word_rating.rt,AMP_random_rating.response,AMP_random_rating.rt,key_resp_LDT_instr.keys,key_resp_LDT_instr.rt,resp_LDT_prac.keys,resp_LDT_prac.rt,resp_LDT_ready.keys,resp_LDT_ready.rt,resp_LDT.keys,resp_LDT.corr,resp_LDT.rt,LDT_rating.response,LDT_rating.rt,key_resp_LDT_instr_2.keys,key_resp_LDT_instr_2.rt,resp_tweets.keys,resp_tweets.rt,participant,date,expName,psychopyVersion,frameRate,
,,,,,,,,,,,,,,,,,,,,,,,,,,,right,94.01578821777366,,,,,,,,,,,,,,,,,,,,,,,,,,,,,,,,,,,,,1029,2019_Mar_06_1505,mf_amp_cond1,3.0.4,59.968457440273916,
,,,,,,,,,,,,,,,,,,,,,,,,,,,,,right,2.084110818686895,,,,,,,,,,,,,,,,,,,,,,,,,,,,,,,,,,,1029,2019_Mar_06_1505,mf_amp_cond1,3.0.4,59.968457440273916,
,,,,,,,,,,,,,,,,,,,,,,,,,,,,,,,right,2.2674760210793465,,,,,,,,,,,,,,,,,,,,,,,,,,,,,,,,,1029,2019_Mar_06_1505,mf_amp_cond1,3.0.4,59.968457440273916,
keyboard,senk,&&&&,,,,,0,0,0,2,,,,,,,,,,,,,,,,,,,,,,,right,1.5839684177190065,AMP_prac,right,1.5839684177190065,,,,,,,,,,,,,,,,,,,,,,,,,,,,1029,2019_Mar_06_1505,mf_amp_cond1,3.0.4,59.968457440273916,
banana,kacket,&&&&&&,,,,,0,1,1,1,,,,,,,,,,,,,,,,,,,,,,,left,1.8840503945248201,AMP_prac,left,1.8840503945248201,,,,,,,,,,,,,,,,,,,,,,,,,,,,1029,2019_Mar_06_1505,mf_amp_cond1,3.0.4,59.968457440273916,
scarf,bisebell,&&&&&&&&,,,,,0,2,2,3,,,,,,,,,,,,,,,,,,,,,,,left,1.083838525111787,AMP_prac,left,1.083838525111787,,,,,,,,,,,,,,,,,,,,,,,,,,,,1029,2019_Mar_06_1505,mf_amp_cond1,3.0.4,59.968457440273916,
car,cemtuper,&&&&&&&&,,,,,0,3,3,0,,,,,,,,,,,,,,,,,,,,,,,right,1.1505584744736552,AMP_prac,right,1.1505584744736552,,,,,,,,,,,,,,,,,,,,,,,,,,,,1029,2019_Mar_06_1505,mf_amp_cond1,3.0.4,59.968457440273916,
,,,,,,,,,,,,,,,,,,,,,,,,,,,,,,,,,,,,,,right,1.5172856722492725,,,,,,,,,,,,,,,,,,,,,,,,,,1029,2019_Mar_06_1505,mf_amp_cond1,3.0.4,59.968457440273916,
honored,chonograph,&&&&&&&&&&,left,authority.virtue,,,,,,,0,0,0,0,,,,,,,,,,,,,,,,,,,,,AMP,right,1.5673171350499615,,,right,0,1.5673171350499615,0,,,,,,,,,,,,,,,,,,,,,,1029,2019_Mar_06_1505,mf_amp_cond1,3.0.4,59.968457440273916,
threatened,unreflectuve,&&&&&&&&&&&&,right,fairness.vice,,,,,,,0,1,1,1,,,,,,,,,,,,,,,,,,,,,AMP,left,1.250693883630447,,,left,0,1.250693883630447,0,,,,,,,,,,,,,,,,,,,,,,1029,2019_Mar_06_1505,mf_amp_cond1,3.0.4,59.968457440273916,
strong,sickyay,&&&&&&&,left,loyalty.virtue,,,,,,,0,2,2,2,,,,,,,,,,,,,,,,,,,,,AMP,left,0.8337713336804882,,,left,1,0.8337713336804882,1,,,,,,,,,,,,,,,,,,,,,,1029,2019_Mar_06_1505,mf_amp_cond1,3.0.4,59.968457440273916,
hate,mecan,&&&&&,right,fairness.vice,,,,,,,0,3,3,3,,,,,,,,,,,,,,,,,,,,,AMP,left,0.6837744446238503,,,left,0,0.6837744446238503,0,,,,,,,,,,,,,,,,,,,,,,1029,2019_Mar_06_1505,mf_amp_cond1,3.0.4,59.968457440273916,
fair,chreams,&&&&&&&,left,fairness.virtue,,,,,,,0,4,4,4,,,,,,,,,,,,,,,,,,,,,AMP,right,0.4670293827075511,,,right,0,0.4670293827075511,0,,,,,,,,,,,,,,,,,,,,,,1029,2019_Mar_06_1505,mf_amp_cond1,3.0.4,59.968457440273916,
racist,hefurbished,&&&&&&&&&&&,right,sanctity.vice,,,,,,,0,5,5,5,,,,,,,,,,,,,,,,,,,,,AMP,left,0.7504235142841935,,,left,0,0.7504235142841935,0,,,,,,,,,,,,,,,,,,,,,,1029,2019_Mar_06_1505,mf_amp_cond1,3.0.4,59.968457440273916,
praise,shoirmaster,&&&&&&&&&&&,left,authority.virtue,,,,,,,0,6,6,6,,,,,,,,,,,,,,,,,,,,,AMP,left,0.7671001340495422,,,left,1,0.7671001340495422,1,,,,,,,,,,,,,,,,,,,,,,1029,2019_Mar_06_1505,mf_amp_cond1,3.0.4,59.968457440273916,
promises,ittutable,&&&&&&&&&,left,fairness.virtue,,,,,,,0,7,7,7,,,,,,,,,,,,,,,,,,,,,AMP,left,0.6003884592792019,,,left,1,0.6003884592792019,1,,,,,,,,,,,,,,,,,,,,,,1029,2019_Mar_06_1505,mf_amp_cond1,3.0.4,59.968457440273916,
progress,hescribe,&&&&&&&&,left,authority.virtue,,,,,,,0,8,8,8,,,,,,,,,,,,,,,,,,,,,AMP,left,0.4336998766520992,,,left,1,0.4336998766520992,1,,,,,,,,,,,,,,,,,,,,,,1029,2019_Mar_06_1505,mf_amp_cond1,3.0.4,59.968457440273916,
hand,ilportation,&&&&&&&&&&&,left,sanctity.virtue,,,,,,,0,9,9,9,,,,,,,,,,,,,,,,,,,,,AMP,left,2.0172446196665987,,,left,1,2.0172446196665987,1,,,,,,,,,,,,,,,,,,,,,,1029,2019_Mar_06_1505,mf_amp_cond1,3.0.4,59.968457440273916,
promised,scalbel,&&&&&&&,left,loyalty.virtue,,,,,,,0,10,10,10,,,,,,,,,,,,,,,,,,,,,AMP,left,0.8671104613458738,,,left,1,0.8671104613458738,1,,,,,,,,,,,,,,,,,,,,,,1029,2019_Mar_06_1505,mf_amp_cond1,3.0.4,59.968457440273916,
ensure,carvels,&&&&&&&,left,fairness.virtue,,,,,,,0,11,11,11,,,,,,,,,,,,,,,,,,,,,AMP,right,0.6003907044650987,,,right,0,0.6003907044650987,0,,,,,,,,,,,,,,,,,,,,,,1029,2019_Mar_06_1505,mf_amp_cond1,3.0.4,59.968457440273916,
crime,counpy's,&&&&&&&&,right,fairness.vice,,,,,,,0,12,12,12,,,,,,,,,,,,,,,,,,,,,AMP,left,0.8838008721359074,,,left,0,0.8838008721359074,0,,,,,,,,,,,,,,,,,,,,,,1029,2019_Mar_06_1505,mf_amp_cond1,3.0.4,59.968457440273916,
victims,esquisiteness,&&&&&&&&&&&&&,right,care.vice,,,,,,,0,13,13,13,,,,,,,,,,,,,,,,,,,,,AMP,left,0.8671184794511646,,,left,0,0.8671184794511646,0,,,,,,,,,,,,,,,,,,,,,,1029,2019_Mar_06_1505,mf_amp_cond1,3.0.4,59.968457440273916,
health,tabin,&&&&&,left,care.virtue,,,,,,,0,14,14,14,,,,,,,,,,,,,,,,,,,,,AMP,left,0.600349651882425,,,left,1,0.600349651882425,1,,,,,,,,,,,,,,,,,,,,,,1029,2019_Mar_06_1505,mf_amp_cond1,3.0.4,59.968457440273916,
corruption,ronviolence,&&&&&&&&&&&,right,sanctity.vice,,,,,,,0,15,15,15,,,,,,,,,,,,,,,,,,,,,AMP,left,0.5170374328736216,,,left,0,0.5170374328736216,0,,,,,,,,,,,,,,,,,,,,,,1029,2019_Mar_06_1505,mf_amp_cond1,3.0.4,59.968457440273916,
strofe,supervuned,&&&&&&&&&&,None,nonword,,,,,,,0,16,16,16,,,,,,,,,,,,,,,,,,,,,AMP,left,0.6337237383704633,,,left,0,0.6337237383704633,0,,,,,,,,,,,,,,,,,,,,,,1029,2019_Mar_06_1505,mf_amp_cond1,3.0.4,59.968457440273916,
officers,shoirmaster,&&&&&&&&&&&,right,authority.vice,,,,,,,0,17,17,17,,,,,,,,,,,,,,,,,,,,,AMP,left,1.7006832676706836,,,left,0,1.7006832676706836,0,,,,,,,,,,,,,,,,,,,,,,1029,2019_Mar_06_1505,mf_amp_cond1,3.0.4,59.968457440273916,
betrayal,leact,&&&&&,right,loyalty.vice,,,,,,,0,18,18,18,,,,,,,,,,,,,,,,,,,,,AMP,left,1.683856870396994,,,left,0,1.683856870396994,0,,,,,,,,,,,,,,,,,,,,,,1029,2019_Mar_06_1505,mf_amp_cond1,3.0.4,59.968457440273916,
charges,fostet,&&&&&&,right,fairness.vice,,,,,,,0,19,19,19,,,,,,,,,,,,,,,,,,,,,AMP,left,0.5336948093026876,,,left,0,0.5336948093026876,0,,,,,,,,,,,,,,,,,,,,,,1029,2019_Mar_06_1505,mf_amp_cond1,3.0.4,59.968457440273916,
promote,pumber,&&&&&&,left,sanctity.virtue,,,,,,,0,20,20,20,,,,,,,,,,,,,,,,,,,,,AMP,left,0.4669222612865269,,,left,1,0.4669222612865269,1,,,,,,,,,,,,,,,,,,,,,,1029,2019_Mar_06_1505,mf_amp_cond1,3.0.4,59.968457440273916,
killed,reprisols,&&&&&&&&&,right,care.vice,,,,,,,0,21,21,21,,,,,,,,,,,,,,,,,,,,,AMP,left,0.817095996811986,,,left,0,0.817095996811986,0,,,,,,,,,,,,,,,,,,,,,,1029,2019_Mar_06_1505,mf_amp_cond1,3.0.4,59.968457440273916,
drumbled,letish,&&&&&&,None,nonword,,,,,,,0,22,22,22,,,,,,,,,,,,,,,,,,,,,AMP,left,0.4837005501613021,,,left,0,0.4837005501613021,0,,,,,,,,,,,,,,,,,,,,,,1029,2019_Mar_06_1505,mf_amp_cond1,3.0.4,59.968457440273916,
egpeditious,thabbily,&&&&&&&&,None,nonword,,,,,,,0,23,23,23,,,,,,,,,,,,,,,,,,,,,AMP,left,0.6003849314292893,,,left,0,0.6003849314292893,0,,,,,,,,,,,,,,,,,,,,,,1029,2019_Mar_06_1505,mf_amp_cond1,3.0.4,59.968457440273916,
troops,Oregoniuns,&&&&&&&&&&,right,loyalty.vice,,,,,,,0,24,24,24,,,,,,,,,,,,,,,,,,,,,AMP,right,1.000504176132381,,,right,1,1.000504176132381,1,,,,,,,,,,,,,,,,,,,,,,1029,2019_Mar_06_1505,mf_amp_cond1,3.0.4,59.968457440273916,
interests,Phintoism,&&&&&&&&&,left,fairness.virtue,,,,,,,0,25,25,25,,,,,,,,,,,,,,,,,,,,,AMP,left,1.7006540818838403,,,left,1,1.7006540818838403,1,,,,,,,,,,,,,,,,,,,,,,1029,2019_Mar_06_1505,mf_amp_cond1,3.0.4,59.968457440273916,
peaceful,halaise,&&&&&&&,left,authority.virtue,,,,,,,0,26,26,26,,,,,,,,,,,,,,,,,,,,,AMP,left,0.6170650790445507,,,left,1,0.6170650790445507,1,,,,,,,,,,,,,,,,,,,,,,1029,2019_Mar_06_1505,mf_amp_cond1,3.0.4,59.968457440273916,
terrorists,dramens,&&&&&&&,right,fairness.vice,,,,,,,0,27,27,27,,,,,,,,,,,,,,,,,,,,,AMP,left,0.6170484016183764,,,left,0,0.6170484016183764,0,,,,,,,,,,,,,,,,,,,,,,1029,2019_Mar_06_1505,mf_amp_cond1,3.0.4,59.968457440273916,
failure,baladroit,&&&&&&&&&,right,loyalty.vice,,,,,,,0,28,28,28,,,,,,,,,,,,,,,,,,,,,AMP,left,0.45035725296474993,,,left,0,0.45035725296474993,0,,,,,,,,,,,,,,,,,,,,,,1029,2019_Mar_06_1505,mf_amp_cond1,3.0.4,59.968457440273916,
support,feleological,&&&&&&&&&&&&,left,loyalty.virtue,,,,,,,0,29,29,29,,,,,,,,,,,,,,,,,,,,,AMP,left,0.950472392491065,,,left,1,0.950472392491065,1,,,,,,,,,,,,,,,,,,,,,,1029,2019_Mar_06_1505,mf_amp_cond1,3.0.4,59.968457440273916,
penalty,Boeinf,&&&&&&,right,authority.vice,,,,,,,0,30,30,30,,,,,,,,,,,,,,,,,,,,,AMP,left,0.35032672027591616,,,left,0,0.35032672027591616,0,,,,,,,,,,,,,,,,,,,,,,1029,2019_Mar_06_1505,mf_amp_cond1,3.0.4,59.968457440273916,
edancipation,lenon,&&&&&,None,nonword,,,,,,,0,31,31,31,,,,,,,,,,,,,,,,,,,,,AMP,left,0.5670464450959116,,,left,0,0.5670464450959116,0,,,,,,,,,,,,,,,,,,,,,,1029,2019_Mar_06_1505,mf_amp_cond1,3.0.4,59.968457440273916,
attacks,ablow,&&&&&,right,care.vice,,,,,,,0,32,32,32,,,,,,,,,,,,,,,,,,,,,AMP,left,0.7837687358260155,,,left,0,0.7837687358260155,0,,,,,,,,,,,,,,,,,,,,,,1029,2019_Mar_06_1505,mf_amp_cond1,3.0.4,59.968457440273916,
riot,openet,&&&&&&,right,authority.vice,,,,,,,0,33,33,33,,,,,,,,,,,,,,,,,,,,,AMP,left,0.5003611338324845,,,left,0,0.5003611338324845,0,,,,,,,,,,,,,,,,,,,,,,1029,2019_Mar_06_1505,mf_amp_cond1,3.0.4,59.968457440273916,
hope,grovelire,&&&&&&&&&,left,loyalty.virtue,,,,,,,0,34,34,34,,,,,,,,,,,,,,,,,,,,,AMP,left,0.5504188959021121,,,left,1,0.5504188959021121,1,,,,,,,,,,,,,,,,,,,,,,1029,2019_Mar_06_1505,mf_amp_cond1,3.0.4,59.968457440273916,
ban,vurtain,&&&&&&&,right,loyalty.vice,,,,,,,0,35,35,35,,,,,,,,,,,,,,,,,,,,,AMP,left,0.8171059391461313,,,left,0,0.8171059391461313,0,,,,,,,,,,,,,,,,,,,,,,1029,2019_Mar_06_1505,mf_amp_cond1,3.0.4,59.968457440273916,
embrace,unscothed,&&&&&&&&&,left,authority.virtue,,,,,,,0,36,36,36,,,,,,,,,,,,,,,,,,,,,AMP,left,0.5336819803342223,,,left,1,0.5336819803342223,1,,,,,,,,,,,,,,,,,,,,,,1029,2019_Mar_06_1505,mf_amp_cond1,3.0.4,59.968457440273916,
prosecution,noped,&&&&&,right,authority.vice,,,,,,,0,37,37,37,,,,,,,,,,,,,,,,,,,,,AMP,left,0.6837362786754966,,,left,0,0.6837362786754966,0,,,,,,,,,,,,,,,,,,,,,,1029,2019_Mar_06_1505,mf_amp_cond1,3.0.4,59.968457440273916,
black,gationwide,&&&&&&&&&&,right,loyalty.vice,,,,,,,0,38,38,38,,,,,,,,,,,,,,,,,,,,,AMP,left,1.1338590834056959,,,left,0,1.1338590834056959,0,,,,,,,,,,,,,,,,,,,,,,1029,2019_Mar_06_1505,mf_amp_cond1,3.0.4,59.968457440273916,
ecgagement,lachelor,&&&&&&&&,None,nonword,,,,,,,0,39,39,39,,,,,,,,,,,,,,,,,,,,,AMP,left,0.733757157693617,,,left,0,0.733757157693617,0,,,,,,,,,,,,,,,,,,,,,,1029,2019_Mar_06_1505,mf_amp_cond1,3.0.4,59.968457440273916,
abuse,pistraught,&&&&&&&&&&,right,sanctity.vice,,,,,,,0,40,40,40,,,,,,,,,,,,,,,,,,,,,AMP,left,0.7337513846578076,,,left,0,0.7337513846578076,0,,,,,,,,,,,,,,,,,,,,,,1029,2019_Mar_06_1505,mf_amp_cond1,3.0.4,59.968457440273916,
good,sliptery,&&&&&&&&,left,care.virtue,,,,,,,0,41,41,41,,,,,,,,,,,,,,,,,,,,,AMP,left,1.6506809905404225,,,left,1,1.6506809905404225,1,,,,,,,,,,,,,,,,,,,,,,1029,2019_Mar_06_1505,mf_amp_cond1,3.0.4,59.968457440273916,
growth,touls,&&&&&,left,care.virtue,,,,,,,0,42,42,42,,,,,,,,,,,,,,,,,,,,,AMP,right,1.9507344228914008,,,right,0,1.9507344228914008,0,,,,,,,,,,,,,,,,,,,,,,1029,2019_Mar_06_1505,mf_amp_cond1,3.0.4,59.968457440273916,
praised,suggists,&&&&&&&&,left,loyalty.virtue,,,,,,,0,43,43,43,,,,,,,,,,,,,,,,,,,,,AMP,right,0.8004267535870895,,,right,0,0.8004267535870895,0,,,,,,,,,,,,,,,,,,,,,,1029,2019_Mar_06_1505,mf_amp_cond1,3.0.4,59.968457440273916,
fear,uller,&&&&&,right,sanctity.vice,,,,,,,0,44,44,44,,,,,,,,,,,,,,,,,,,,,AMP,left,0.5670355405891314,,,left,0,0.5670355405891314,0,,,,,,,,,,,,,,,,,,,,,,1029,2019_Mar_06_1505,mf_amp_cond1,3.0.4,59.968457440273916,
conspiracy,laming,&&&&&&,right,sanctity.vice,,,,,,,0,45,45,45,,,,,,,,,,,,,,,,,,,,,AMP,left,0.43366652156692,,,left,0,0.43366652156692,0,,,,,,,,,,,,,,,,,,,,,,1029,2019_Mar_06_1505,mf_amp_cond1,3.0.4,59.968457440273916,
sexual,quarterbocks,&&&&&&&&&&&&,right,sanctity.vice,,,,,,,0,46,46,46,,,,,,,,,,,,,,,,,,,,,AMP,left,0.7503981773043051,,,left,0,0.7503981773043051,0,,,,,,,,,,,,,,,,,,,,,,1029,2019_Mar_06_1505,mf_amp_cond1,3.0.4,59.968457440273916,
useful,iptervention,&&&&&&&&&&&&,left,authority.virtue,,,,,,,0,47,47,47,,,,,,,,,,,,,,,,,,,,,AMP,left,3.1843806107062846,,,left,1,3.1843806107062846,1,,,,,,,,,,,,,,,,,,,,,,1029,2019_Mar_06_1505,mf_amp_cond1,3.0.4,59.968457440273916,
rejected,fangsters,&&&&&&&&&,right,authority.vice,,,,,,,0,48,48,48,,,,,,,,,,,,,,,,,,,,,AMP,left,0.4336825576610863,,,left,0,0.4336825576610863,0,,,,,,,,,,,,,,,,,,,,,,1029,2019_Mar_06_1505,mf_amp_cond1,3.0.4,59.968457440273916,
loyalty,neputized,&&&&&&&&&,left,loyalty.virtue,,,,,,,0,49,49,49,,,,,,,,,,,,,,,,,,,,,AMP,right,0.36697094701230526,,,right,0,0.36697094701230526,0,,,,,,,,,,,,,,,,,,,,,,1029,2019_Mar_06_1505,mf_amp_cond1,3.0.4,59.968457440273916,
forced,Lacedonia,&&&&&&&&&,right,fairness.vice,,,,,,,0,50,50,50,,,,,,,,,,,,,,,,,,,,,AMP,left,0.40035882452502847,,,left,0,0.40035882452502847,0,,,,,,,,,,,,,,,,,,,,,,1029,2019_Mar_06_1505,mf_amp_cond1,3.0.4,59.968457440273916,
dumid,asn,&&&,None,nonword,,,,,,,0,51,51,51,,,,,,,,,,,,,,,,,,,,,AMP,right,0.567039389279671,,,right,0,0.567039389279671,0,,,,,,,,,,,,,,,,,,,,,,1029,2019_Mar_06_1505,mf_amp_cond1,3.0.4,59.968457440273916,
pleasant,abointment,&&&&&&&&&&,None,control,,,,,,,0,52,52,52,,,,,,,,,,,,,,,,,,,,,AMP,right,0.5336839045630768,,,right,0,0.5336839045630768,0,,,,,,,,,,,,,,,,,,,,,,1029,2019_Mar_06_1505,mf_amp_cond1,3.0.4,59.968457440273916,
epigrach,sfumatoy,&&&&&&&&,None,nonword,,,,,,,0,53,53,53,,,,,,,,,,,,,,,,,,,,,AMP,left,1.0338256641989574,,,left,0,1.0338256641989574,0,,,,,,,,,,,,,,,,,,,,,,1029,2019_Mar_06_1505,mf_amp_cond1,3.0.4,59.968457440273916,
sharing,synchronazers,&&&&&&&&&&&&&,left,loyalty.virtue,,,,,,,0,54,54,54,,,,,,,,,,,,,,,,,,,,,AMP,right,1.4005987251875922,,,right,0,1.4005987251875922,0,,,,,,,,,,,,,,,,,,,,,,1029,2019_Mar_06_1505,mf_amp_cond1,3.0.4,59.968457440273916,
increase,crilfully,&&&&&&&&&,left,care.virtue,,,,,,,0,55,55,55,,,,,,,,,,,,,,,,,,,,,AMP,right,0.8838047209428623,,,right,0,0.8838047209428623,0,,,,,,,,,,,,,,,,,,,,,,1029,2019_Mar_06_1505,mf_amp_cond1,3.0.4,59.968457440273916,
hatigue,Loorish,&&&&&&&,None,nonword,,,,,,,0,56,56,56,,,,,,,,,,,,,,,,,,,,,AMP,left,0.8837950992165133,,,left,0,0.8837950992165133,0,,,,,,,,,,,,,,,,,,,,,,1029,2019_Mar_06_1505,mf_amp_cond1,3.0.4,59.968457440273916,
juck,sonvoy,&&&&&&,None,nonword,,,,,,,0,57,57,57,,,,,,,,,,,,,,,,,,,,,AMP,left,0.3169882339425385,,,left,0,0.3169882339425385,0,,,,,,,,,,,,,,,,,,,,,,1029,2019_Mar_06_1505,mf_amp_cond1,3.0.4,59.968457440273916,
dignity,nuckheap,&&&&&&&&,left,sanctity.virtue,,,,,,,0,58,58,58,,,,,,,,,,,,,,,,,,,,,AMP,left,1.2505665567005053,,,left,1,1.2505665567005053,1,,,,,,,,,,,,,,,,,,,,,,1029,2019_Mar_06_1505,mf_amp_cond1,3.0.4,59.968457440273916,
died,thadowed,&&&&&&&&,right,care.vice,,,,,,,0,59,59,59,,,,,,,,,,,,,,,,,,,,,AMP,left,0.5170412815641612,,,left,0,0.5170412815641612,0,,,,,,,,,,,,,,,,,,,,,,1029,2019_Mar_06_1505,mf_amp_cond1,3.0.4,59.968457440273916,
restore,reelectiob,&&&&&&&&&&,left,care.virtue,,,,,,,0,60,60,60,,,,,,,,,,,,,,,,,,,,,AMP,left,1.784024351858534,,,left,1,1.784024351858534,1,,,,,,,,,,,,,,,,,,,,,,1029,2019_Mar_06_1505,mf_amp_cond1,3.0.4,59.968457440273916,
voter,greaks,&&&&&&,right,fairness.vice,,,,,,,0,61,61,61,,,,,,,,,,,,,,,,,,,,,AMP,right,2.400836060056463,,,right,1,2.400836060056463,1,,,,,,,,,,,,,,,,,,,,,,1029,2019_Mar_06_1505,mf_amp_cond1,3.0.4,59.968457440273916,
improve,smapper,&&&&&&&,left,care.virtue,,,,,,,0,62,62,62,,,,,,,,,,,,,,,,,,,,,AMP,right,1.1171770113287494,,,right,0,1.1171770113287494,0,,,,,,,,,,,,,,,,,,,,,,1029,2019_Mar_06_1505,mf_amp_cond1,3.0.4,59.968457440273916,
drug,pullness,&&&&&&&&,right,sanctity.vice,,,,,,,0,63,63,63,,,,,,,,,,,,,,,,,,,,,AMP,left,0.5003467013593763,,,left,0,0.5003467013593763,0,,,,,,,,,,,,,,,,,,,,,,1029,2019_Mar_06_1505,mf_amp_cond1,3.0.4,59.968457440273916,
commitment,emassion,&&&&&&&&,left,sanctity.virtue,,,,,,,0,64,64,64,,,,,,,,,,,,,,,,,,,,,AMP,right,0.6837423723191023,,,right,0,0.6837423723191023,0,,,,,,,,,,,,,,,,,,,,,,1029,2019_Mar_06_1505,mf_amp_cond1,3.0.4,59.968457440273916,
faith,precificity,&&&&&&&&&&&,left,sanctity.virtue,,,,,,,0,65,65,65,,,,,,,,,,,,,,,,,,,,,AMP,right,0.4003161684377119,,,right,0,0.4003161684377119,0,,,,,,,,,,,,,,,,,,,,,,1029,2019_Mar_06_1505,mf_amp_cond1,3.0.4,59.968457440273916,
energy,fornicalion,&&&&&&&&&&&,left,sanctity.virtue,,,,,,,0,66,66,66,,,,,,,,,,,,,,,,,,,,,AMP,left,0.6837442967807874,,,left,1,0.6837442967807874,1,,,,,,,,,,,,,,,,,,,,,,1029,2019_Mar_06_1505,mf_amp_cond1,3.0.4,59.968457440273916,
opportunity,coom,&&&&,left,fairness.virtue,,,,,,,0,67,67,67,,,,,,,,,,,,,,,,,,,,,AMP,left,1.0838439774233848,,,left,1,1.0838439774233848,1,,,,,,,,,,,,,,,,,,,,,,1029,2019_Mar_06_1505,mf_amp_cond1,3.0.4,59.968457440273916,
gun,photocalkodes,&&&&&&&&&&&&&,right,authority.vice,,,,,,,0,68,68,68,,,,,,,,,,,,,,,,,,,,,AMP,left,0.8169728392967954,,,left,0,0.8169728392967954,0,,,,,,,,,,,,,,,,,,,,,,1029,2019_Mar_06_1505,mf_amp_cond1,3.0.4,59.968457440273916,
chressing,hasks,&&&&&,None,nonword,,,,,,,0,69,69,69,,,,,,,,,,,,,,,,,,,,,AMP,left,1.3839211432496086,,,left,0,1.3839211432496086,0,,,,,,,,,,,,,,,,,,,,,,1029,2019_Mar_06_1505,mf_amp_cond1,3.0.4,59.968457440273916,
agreement,forepo,&&&&&&,left,fairness.virtue,,,,,,,0,70,70,70,,,,,,,,,,,,,,,,,,,,,AMP,left,1.083835959318094,,,left,1,1.083835959318094,1,,,,,,,,,,,,,,,,,,,,,,1029,2019_Mar_06_1505,mf_amp_cond1,3.0.4,59.968457440273916,
slavery,spag,&&&&,right,loyalty.vice,,,,,,,0,71,71,71,,,,,,,,,,,,,,,,,,,,,AMP,left,0.21694711735472083,,,left,0,0.21694711735472083,0,,,,,,,,,,,,,,,,,,,,,,1029,2019_Mar_06_1505,mf_amp_cond1,3.0.4,59.968457440273916,
clean,antral,&&&&&&,left,sanctity.virtue,,,,,,,0,72,72,72,,,,,,,,,,,,,,,,,,,,,AMP,left,0.3668526003602892,,,left,1,0.3668526003602892,1,,,,,,,,,,,,,,,,,,,,,,1029,2019_Mar_06_1505,mf_amp_cond1,3.0.4,59.968457440273916,
torture,prones,&&&&&&,right,care.vice,,,,,,,0,73,73,73,,,,,,,,,,,,,,,,,,,,,AMP,left,0.5837256307713687,,,left,0,0.5837256307713687,0,,,,,,,,,,,,,,,,,,,,,,1029,2019_Mar_06_1505,mf_amp_cond1,3.0.4,59.968457440273916,
civilians,ammessment,&&&&&&&&&&,right,care.vice,,,,,,,0,74,74,74,,,,,,,,,,,,,,,,,,,,,AMP,left,0.45037489279638976,,,left,0,0.45037489279638976,0,,,,,,,,,,,,,,,,,,,,,,1029,2019_Mar_06_1505,mf_amp_cond1,3.0.4,59.968457440273916,
death,ning,&&&&,right,care.vice,,,,,,,0,75,75,75,,,,,,,,,,,,,,,,,,,,,AMP,left,0.26696671347599477,,,left,0,0.26696671347599477,0,,,,,,,,,,,,,,,,,,,,,,1029,2019_Mar_06_1505,mf_amp_cond1,3.0.4,59.968457440273916,
care,pafer,&&&&&,left,care.virtue,,,,,,,0,76,76,76,,,,,,,,,,,,,,,,,,,,,AMP,left,0.9338599173352122,,,left,1,0.9338599173352122,1,,,,,,,,,,,,,,,,,,,,,,1029,2019_Mar_06_1505,mf_amp_cond1,3.0.4,59.968457440273916,
unpleasant,reviked,&&&&&&&,None,control,,,,,,,0,77,77,77,,,,,,,,,,,,,,,,,,,,,AMP,left,0.38366296142339706,,,left,0,0.38366296142339706,0,,,,,,,,,,,,,,,,,,,,,,1029,2019_Mar_06_1505,mf_amp_cond1,3.0.4,59.968457440273916,
men,scock,&&&&&,right,loyalty.vice,,,,,,,0,78,78,78,,,,,,,,,,,,,,,,,,,,,AMP,right,1.050516716320999,,,right,1,1.050516716320999,1,,,,,,,,,,,,,,,,,,,,,,1029,2019_Mar_06_1505,mf_amp_cond1,3.0.4,59.968457440273916,
actively,framo,&&&&&,left,authority.virtue,,,,,,,0,79,79,79,,,,,,,,,,,,,,,,,,,,,AMP,left,0.38365526404231787,,,left,1,0.38365526404231787,1,,,,,,,,,,,,,,,,,,,,,,1029,2019_Mar_06_1505,mf_amp_cond1,3.0.4,59.968457440273916,
win,bluently,&&&&&&&&,left,fairness.virtue,,,,,,,0,80,80,80,,,,,,,,,,,,,,,,,,,,,AMP,left,0.8504578958963975,,,left,1,0.8504578958963975,1,,,,,,,,,,,,,,,,,,,,,,1029,2019_Mar_06_1505,mf_amp_cond1,3.0.4,59.968457440273916,
rebels,ugeasily,&&&&&&&&,right,authority.vice,,,,,,,0,81,81,81,,,,,,,,,,,,,,,,,,,,,AMP,left,0.6003984018461779,,,left,0,0.6003984018461779,0,,,,,,,,,,,,,,,,,,,,,,1029,2019_Mar_06_1505,mf_amp_cond1,3.0.4,59.968457440273916,
increase,unreflectuve,&&&&&&&&&&&&,left,care.virtue,,,,,,,0,82,82,82,,,,,,,,,,,,,,,,,,,,,AMP,left,0.7337597234873101,,,left,1,0.7337597234873101,1,,,,,,,,,,,,,,,,,,,,,,1029,2019_Mar_06_1505,mf_amp_cond1,3.0.4,59.968457440273916,
slavery,neputized,&&&&&&&&&,right,loyalty.vice,,,,,,,0,83,83,83,,,,,,,,,,,,,,,,,,,,,AMP,left,0.3169619346735999,,,left,0,0.3169619346735999,0,,,,,,,,,,,,,,,,,,,,,,1029,2019_Mar_06_1505,mf_amp_cond1,3.0.4,59.968457440273916,
health,reprisols,&&&&&&&&&,left,care.virtue,,,,,,,0,84,84,84,,,,,,,,,,,,,,,,,,,,,AMP,left,0.8337889733957127,,,left,1,0.8337889733957127,1,,,,,,,,,,,,,,,,,,,,,,1029,2019_Mar_06_1505,mf_amp_cond1,3.0.4,59.968457440273916,
hope,counpy's,&&&&&&&&,left,loyalty.virtue,,,,,,,0,85,85,85,,,,,,,,,,,,,,,,,,,,,AMP,right,0.733758119866252,,,right,0,0.733758119866252,0,,,,,,,,,,,,,,,,,,,,,,1029,2019_Mar_06_1505,mf_amp_cond1,3.0.4,59.968457440273916,
promises,uller,&&&&&,left,fairness.virtue,,,,,,,0,86,86,86,,,,,,,,,,,,,,,,,,,,,AMP,left,0.46687864302657545,,,left,1,0.46687864302657545,1,,,,,,,,,,,,,,,,,,,,,,1029,2019_Mar_06_1505,mf_amp_cond1,3.0.4,59.968457440273916,
embrace,suggists,&&&&&&&&,left,authority.virtue,,,,,,,0,87,87,87,,,,,,,,,,,,,,,,,,,,,AMP,left,3.4344516507117078,,,left,1,3.4344516507117078,1,,,,,,,,,,,,,,,,,,,,,,1029,2019_Mar_06_1505,mf_amp_cond1,3.0.4,59.968457440273916,
clean,tabin,&&&&&,left,sanctity.virtue,,,,,,,0,88,88,88,,,,,,,,,,,,,,,,,,,,,AMP,right,1.4005929521517828,,,right,0,1.4005929521517828,0,,,,,,,,,,,,,,,,,,,,,,1029,2019_Mar_06_1505,mf_amp_cond1,3.0.4,59.968457440273916,
black,ronviolence,&&&&&&&&&&&,right,loyalty.vice,,,,,,,0,89,89,89,,,,,,,,,,,,,,,,,,,,,AMP,left,0.3669754371512681,,,left,0,0.3669754371512681,0,,,,,,,,,,,,,,,,,,,,,,1029,2019_Mar_06_1505,mf_amp_cond1,3.0.4,59.968457440273916,
officers,lachelor,&&&&&&&&,right,authority.vice,,,,,,,0,90,90,90,,,,,,,,,,,,,,,,,,,,,AMP,left,0.8004379789344966,,,left,0,0.8004379789344966,0,,,,,,,,,,,,,,,,,,,,,,1029,2019_Mar_06_1505,mf_amp_cond1,3.0.4,59.968457440273916,
penalty,ittutable,&&&&&&&&&,right,authority.vice,,,,,,,0,91,91,91,,,,,,,,,,,,,,,,,,,,,AMP,left,0.9171380755724385,,,left,0,0.9171380755724385,0,,,,,,,,,,,,,,,,,,,,,,1029,2019_Mar_06_1505,mf_amp_cond1,3.0.4,59.968457440273916,
unpleasant,pistraught,&&&&&&&&&&,None,control,,,,,,,0,92,92,92,,,,,,,,,,,,,,,,,,,,,AMP,left,0.4503473106306046,,,left,0,0.4503473106306046,0,,,,,,,,,,,,,,,,,,,,,,1029,2019_Mar_06_1505,mf_amp_cond1,3.0.4,59.968457440273916,
restore,scock,&&&&&,left,care.virtue,,,,,,,0,93,93,93,,,,,,,,,,,,,,,,,,,,,AMP,right,1.4672657552873716,,,right,0,1.4672657552873716,0,,,,,,,,,,,,,,,,,,,,,,1029,2019_Mar_06_1505,mf_amp_cond1,3.0.4,59.968457440273916,
praise,gationwide,&&&&&&&&&&,left,authority.virtue,,,,,,,0,94,94,94,,,,,,,,,,,,,,,,,,,,,AMP,right,0.21698175533674657,,,right,0,0.21698175533674657,0,,,,,,,,,,,,,,,,,,,,,,1029,2019_Mar_06_1505,mf_amp_cond1,3.0.4,59.968457440273916,
civilians,scalbel,&&&&&&&,right,care.vice,,,,,,,0,95,95,95,,,,,,,,,,,,,,,,,,,,,AMP,left,1.400591989979148,,,left,0,1.400591989979148,0,,,,,,,,,,,,,,,,,,,,,,1029,2019_Mar_06_1505,mf_amp_cond1,3.0.4,59.968457440273916,
energy,vurtain,&&&&&&&,left,sanctity.virtue,,,,,,,0,96,96,96,,,,,,,,,,,,,,,,,,,,,AMP,right,0.5503775227116421,,,right,0,0.5503775227116421,0,,,,,,,,,,,,,,,,,,,,,,1029,2019_Mar_06_1505,mf_amp_cond1,3.0.4,59.968457440273916,
gun,antral,&&&&&&,right,authority.vice,,,,,,,0,97,97,97,,,,,,,,,,,,,,,,,,,,,AMP,left,0.30032027373090386,,,left,0,0.30032027373090386,0,,,,,,,,,,,,,,,,,,,,,,1029,2019_Mar_06_1505,mf_amp_cond1,3.0.4,59.968457440273916,
attacks,pullness,&&&&&&&&,right,care.vice,,,,,,,0,98,98,98,,,,,,,,,,,,,,,,,,,,,AMP,left,1.7006816641660407,,,left,0,1.7006816641660407,0,,,,,,,,,,,,,,,,,,,,,,1029,2019_Mar_06_1505,mf_amp_cond1,3.0.4,59.968457440273916,
care,asn,&&&,left,care.virtue,,,,,,,0,99,99,99,,,,,,,,,,,,,,,,,,,,,AMP,right,1.3839464803459123,,,right,0,1.3839464803459123,0,,,,,,,,,,,,,,,,,,,,,,1029,2019_Mar_06_1505,mf_amp_cond1,3.0.4,59.968457440273916,
interests,synchronazers,&&&&&&&&&&&&&,left,fairness.virtue,,,,,,,0,100,100,100,,,,,,,,,,,,,,,,,,,,,AMP,right,0.8004504871787503,,,right,0,0.8004504871787503,0,,,,,,,,,,,,,,,,,,,,,,1029,2019_Mar_06_1505,mf_amp_cond1,3.0.4,59.968457440273916,
peaceful,framo,&&&&&,left,authority.virtue,,,,,,,0,101,101,101,,,,,,,,,,,,,,,,,,,,,AMP,left,0.5670467659365386,,,left,1,0.5670467659365386,1,,,,,,,,,,,,,,,,,,,,,,1029,2019_Mar_06_1505,mf_amp_cond1,3.0.4,59.968457440273916,
death,ugeasily,&&&&&&&&,right,care.vice,,,,,,,0,102,102,102,,,,,,,,,,,,,,,,,,,,,AMP,left,0.4170322371646762,,,left,0,0.4170322371646762,0,,,,,,,,,,,,,,,,,,,,,,1029,2019_Mar_06_1505,mf_amp_cond1,3.0.4,59.968457440273916,
corruption,touls,&&&&&,right,sanctity.vice,,,,,,,0,103,103,103,,,,,,,,,,,,,,,,,,,,,AMP,left,0.5003614545566961,,,left,0,0.5003614545566961,0,,,,,,,,,,,,,,,,,,,,,,1029,2019_Mar_06_1505,mf_amp_cond1,3.0.4,59.968457440273916,
drug,sickyay,&&&&&&&,right,sanctity.vice,,,,,,,0,104,104,104,,,,,,,,,,,,,,,,,,,,,AMP,left,0.6337593386415392,,,left,0,0.6337593386415392,0,,,,,,,,,,,,,,,,,,,,,,1029,2019_Mar_06_1505,mf_amp_cond1,3.0.4,59.968457440273916,
hatigue,emassion,&&&&&&&&,None,nonword,,,,,,,0,105,105,105,,,,,,,,,,,,,,,,,,,,,AMP,right,0.6836929811397567,,,right,0,0.6836929811397567,0,,,,,,,,,,,,,,,,,,,,,,1029,2019_Mar_06_1505,mf_amp_cond1,3.0.4,59.968457440273916,
loyalty,lenon,&&&&&,left,loyalty.virtue,,,,,,,0,106,106,106,,,,,,,,,,,,,,,,,,,,,AMP,left,0.28364974772557616,,,left,1,0.28364974772557616,1,,,,,,,,,,,,,,,,,,,,,,1029,2019_Mar_06_1505,mf_amp_cond1,3.0.4,59.968457440273916,
dignity,Phintoism,&&&&&&&&&,left,sanctity.virtue,,,,,,,0,107,107,107,,,,,,,,,,,,,,,,,,,,,AMP,left,0.35032575810328126,,,left,1,0.35032575810328126,1,,,,,,,,,,,,,,,,,,,,,,1029,2019_Mar_06_1505,mf_amp_cond1,3.0.4,59.968457440273916,
pleasant,coom,&&&&,None,control,,,,,,,0,108,108,108,,,,,,,,,,,,,,,,,,,,,AMP,left,1.1505257608368993,,,left,0,1.1505257608368993,0,,,,,,,,,,,,,,,,,,,,,,1029,2019_Mar_06_1505,mf_amp_cond1,3.0.4,59.968457440273916,
rejected,openet,&&&&&&,right,authority.vice,,,,,,,0,109,109,109,,,,,,,,,,,,,,,,,,,,,AMP,left,0.7504228728357702,,,left,0,0.7504228728357702,0,,,,,,,,,,,,,,,,,,,,,,1029,2019_Mar_06_1505,mf_amp_cond1,3.0.4,59.968457440273916,
useful,chreams,&&&&&&&,left,authority.virtue,,,,,,,0,110,110,110,,,,,,,,,,,,,,,,,,,,,AMP,right,0.3503222301369533,,,right,0,0.3503222301369533,0,,,,,,,,,,,,,,,,,,,,,,1029,2019_Mar_06_1505,mf_amp_cond1,3.0.4,59.968457440273916,
conspiracy,unscothed,&&&&&&&&&,right,sanctity.vice,,,,,,,0,111,111,111,,,,,,,,,,,,,,,,,,,,,AMP,left,0.9005634457571432,,,left,0,0.9005634457571432,0,,,,,,,,,,,,,,,,,,,,,,1029,2019_Mar_06_1505,mf_amp_cond1,3.0.4,59.968457440273916,
killed,dramens,&&&&&&&,right,care.vice,,,,,,,0,112,112,112,,,,,,,,,,,,,,,,,,,,,AMP,right,0.7504456442547962,,,right,1,0.7504456442547962,1,,,,,,,,,,,,,,,,,,,,,,1029,2019_Mar_06_1505,mf_amp_cond1,3.0.4,59.968457440273916,
racist,esquisiteness,&&&&&&&&&&&&&,right,sanctity.vice,,,,,,,0,113,113,113,,,,,,,,,,,,,,,,,,,,,AMP,left,0.40033990191295743,,,left,0,0.40033990191295743,0,,,,,,,,,,,,,,,,,,,,,,1029,2019_Mar_06_1505,mf_amp_cond1,3.0.4,59.968457440273916,
faith,shoirmaster,&&&&&&&&&&&,left,sanctity.virtue,,,,,,,0,114,114,114,,,,,,,,,,,,,,,,,,,,,AMP,left,0.8004155283560976,,,left,1,0.8004155283560976,1,,,,,,,,,,,,,,,,,,,,,,1029,2019_Mar_06_1505,mf_amp_cond1,3.0.4,59.968457440273916,
dumid,carvels,&&&&&&&,None,nonword,,,,,,,0,115,115,115,,,,,,,,,,,,,,,,,,,,,AMP,left,1.3839275577338412,,,left,0,1.3839275577338412,0,,,,,,,,,,,,,,,,,,,,,,1029,2019_Mar_06_1505,mf_amp_cond1,3.0.4,59.968457440273916,
honored,shoirmaster,&&&&&&&&&&&,left,authority.virtue,,,,,,,0,116,116,116,,,,,,,,,,,,,,,,,,,,,AMP,left,0.5670377856586128,,,left,1,0.5670377856586128,1,,,,,,,,,,,,,,,,,,,,,,1029,2019_Mar_06_1505,mf_amp_cond1,3.0.4,59.968457440273916,
praised,prones,&&&&&&,left,loyalty.virtue,,,,,,,0,117,117,117,,,,,,,,,,,,,,,,,,,,,AMP,right,0.36698634177446365,,,right,0,0.36698634177446365,0,,,,,,,,,,,,,,,,,,,,,,1029,2019_Mar_06_1505,mf_amp_cond1,3.0.4,59.968457440273916,
prosecution,laming,&&&&&&,right,authority.vice,,,,,,,0,118,118,118,,,,,,,,,,,,,,,,,,,,,AMP,left,0.55036822182592,,,left,0,0.55036822182592,0,,,,,,,,,,,,,,,,,,,,,,1029,2019_Mar_06_1505,mf_amp_cond1,3.0.4,59.968457440273916,
opportunity,sfumatoy,&&&&&&&&,left,fairness.virtue,,,,,,,0,119,119,119,,,,,,,,,,,,,,,,,,,,,AMP,right,1.1671956453938037,,,right,0,1.1671956453938037,0,,,,,,,,,,,,,,,,,,,,,,1029,2019_Mar_06_1505,mf_amp_cond1,3.0.4,59.968457440273916,
crime,reelectiob,&&&&&&&&&&,right,fairness.vice,,,,,,,0,120,120,120,,,,,,,,,,,,,,,,,,,,,AMP,left,0.35030908044427633,,,left,0,0.35030908044427633,0,,,,,,,,,,,,,,,,,,,,,,1029,2019_Mar_06_1505,mf_amp_cond1,3.0.4,59.968457440273916,
sexual,grovelire,&&&&&&&&&,right,sanctity.vice,,,,,,,0,121,121,121,,,,,,,,,,,,,,,,,,,,,AMP,left,0.31697989511303604,,,left,0,0.31697989511303604,0,,,,,,,,,,,,,,,,,,,,,,1029,2019_Mar_06_1505,mf_amp_cond1,3.0.4,59.968457440273916,
rebels,mecan,&&&&&,right,authority.vice,,,,,,,0,122,122,122,,,,,,,,,,,,,,,,,,,,,AMP,left,1.6673248965526,,,left,0,1.6673248965526,0,,,,,,,,,,,,,,,,,,,,,,1029,2019_Mar_06_1505,mf_amp_cond1,3.0.4,59.968457440273916,
epigrach,supervuned,&&&&&&&&&&,None,nonword,,,,,,,0,123,123,123,,,,,,,,,,,,,,,,,,,,,AMP,right,1.3172412841813639,,,right,0,1.3172412841813639,0,,,,,,,,,,,,,,,,,,,,,,1029,2019_Mar_06_1505,mf_amp_cond1,3.0.4,59.968457440273916,
progress,abointment,&&&&&&&&&&,left,authority.virtue,,,,,,,0,124,124,124,,,,,,,,,,,,,,,,,,,,,AMP,right,0.2669747315812856,,,right,0,0.2669747315812856,0,,,,,,,,,,,,,,,,,,,,,,1029,2019_Mar_06_1505,mf_amp_cond1,3.0.4,59.968457440273916,
voter,thabbily,&&&&&&&&,right,fairness.vice,,,,,,,0,125,125,125,,,,,,,,,,,,,,,,,,,,,AMP,right,0.6837475040229037,,,right,1,0.6837475040229037,1,,,,,,,,,,,,,,,,,,,,,,1029,2019_Mar_06_1505,mf_amp_cond1,3.0.4,59.968457440273916,
torture,hasks,&&&&&,right,care.vice,,,,,,,0,126,126,126,,,,,,,,,,,,,,,,,,,,,AMP,left,0.316983423079364,,,left,0,0.316983423079364,0,,,,,,,,,,,,,,,,,,,,,,1029,2019_Mar_06_1505,mf_amp_cond1,3.0.4,59.968457440273916,
fear,photocalkodes,&&&&&&&&&&&&&,right,sanctity.vice,,,,,,,0,127,127,127,,,,,,,,,,,,,,,,,,,,,AMP,left,0.48368836264126003,,,left,0,0.48368836264126003,0,,,,,,,,,,,,,,,,,,,,,,1029,2019_Mar_06_1505,mf_amp_cond1,3.0.4,59.968457440273916,
hate,Lacedonia,&&&&&&&&&,right,fairness.vice,,,,,,,0,128,128,128,,,,,,,,,,,,,,,,,,,,,AMP,left,0.4170059378957376,,,left,0,0.4170059378957376,0,,,,,,,,,,,,,,,,,,,,,,1029,2019_Mar_06_1505,mf_amp_cond1,3.0.4,59.968457440273916,
threatened,Boeinf,&&&&&&,right,fairness.vice,,,,,,,0,129,129,129,,,,,,,,,,,,,,,,,,,,,AMP,left,0.5503569964785129,,,left,0,0.5503569964785129,0,,,,,,,,,,,,,,,,,,,,,,1029,2019_Mar_06_1505,mf_amp_cond1,3.0.4,59.968457440273916,
promised,baladroit,&&&&&&&&&,left,loyalty.virtue,,,,,,,0,130,130,130,,,,,,,,,,,,,,,,,,,,,AMP,right,0.6670686390716583,,,right,0,0.6670686390716583,0,,,,,,,,,,,,,,,,,,,,,,1029,2019_Mar_06_1505,mf_amp_cond1,3.0.4,59.968457440273916,
chressing,iptervention,&&&&&&&&&&&&,None,nonword,,,,,,,0,131,131,131,,,,,,,,,,,,,,,,,,,,,AMP,right,0.5336925641167909,,,right,0,0.5336925641167909,0,,,,,,,,,,,,,,,,,,,,,,1029,2019_Mar_06_1505,mf_amp_cond1,3.0.4,59.968457440273916,
victims,quarterbocks,&&&&&&&&&&&&,right,care.vice,,,,,,,0,132,132,132,,,,,,,,,,,,,,,,,,,,,AMP,left,0.45036398817319423,,,left,0,0.45036398817319423,0,,,,,,,,,,,,,,,,,,,,,,1029,2019_Mar_06_1505,mf_amp_cond1,3.0.4,59.968457440273916,
betrayal,halaise,&&&&&&&,right,loyalty.vice,,,,,,,0,133,133,133,,,,,,,,,,,,,,,,,,,,,AMP,left,1.6505905467784032,,,left,0,1.6505905467784032,0,,,,,,,,,,,,,,,,,,,,,,1029,2019_Mar_06_1505,mf_amp_cond1,3.0.4,59.968457440273916,
fair,ning,&&&&,left,fairness.virtue,,,,,,,0,134,134,134,,,,,,,,,,,,,,,,,,,,,AMP,right,0.617013122071512,,,right,0,0.617013122071512,0,,,,,,,,,,,,,,,,,,,,,,1029,2019_Mar_06_1505,mf_amp_cond1,3.0.4,59.968457440273916,
juck,spag,&&&&,None,nonword,,,,,,,0,135,135,135,,,,,,,,,,,,,,,,,,,,,AMP,left,0.15027527639176697,,,left,0,0.15027527639176697,0,,,,,,,,,,,,,,,,,,,,,,1029,2019_Mar_06_1505,mf_amp_cond1,3.0.4,59.968457440273916,
troops,Loorish,&&&&&&&,right,loyalty.vice,,,,,,,0,136,136,136,,,,,,,,,,,,,,,,,,,,,AMP,right,0.40034214698243886,,,right,1,0.40034214698243886,1,,,,,,,,,,,,,,,,,,,,,,1029,2019_Mar_06_1505,mf_amp_cond1,3.0.4,59.968457440273916,
failure,letish,&&&&&&,right,loyalty.vice,,,,,,,0,137,137,137,,,,,,,,,,,,,,,,,,,,,AMP,left,0.18365641869604588,,,left,0,0.18365641869604588,0,,,,,,,,,,,,,,,,,,,,,,1029,2019_Mar_06_1505,mf_amp_cond1,3.0.4,59.968457440273916,
abuse,crilfully,&&&&&&&&&,right,sanctity.vice,,,,,,,0,138,138,138,,,,,,,,,,,,,,,,,,,,,AMP,left,0.8004443934187293,,,left,0,0.8004443934187293,0,,,,,,,,,,,,,,,,,,,,,,1029,2019_Mar_06_1505,mf_amp_cond1,3.0.4,59.968457440273916,
strofe,chonograph,&&&&&&&&&&,None,nonword,,,,,,,0,139,139,139,,,,,,,,,,,,,,,,,,,,,AMP,left,0.10027748928405344,,,left,0,0.10027748928405344,0,,,,,,,,,,,,,,,,,,,,,,1029,2019_Mar_06_1505,mf_amp_cond1,3.0.4,59.968457440273916,
drumbled,fornicalion,&&&&&&&&&&&,None,nonword,,,,,,,0,140,140,140,,,,,,,,,,,,,,,,,,,,,AMP,left,0.4003046224825084,,,left,0,0.4003046224825084,0,,,,,,,,,,,,,,,,,,,,,,1029,2019_Mar_06_1505,mf_amp_cond1,3.0.4,59.968457440273916,
terrorists,ammessment,&&&&&&&&&&,right,fairness.vice,,,,,,,0,141,141,141,,,,,,,,,,,,,,,,,,,,,AMP,left,1.400594555772841,,,left,0,1.400594555772841,0,,,,,,,,,,,,,,,,,,,,,,1029,2019_Mar_06_1505,mf_amp_cond1,3.0.4,59.968457440273916,
men,thadowed,&&&&&&&&,right,loyalty.vice,,,,,,,0,142,142,142,,,,,,,,,,,,,,,,,,,,,AMP,right,0.4670216853264719,,,right,1,0.4670216853264719,1,,,,,,,,,,,,,,,,,,,,,,1029,2019_Mar_06_1505,mf_amp_cond1,3.0.4,59.968457440273916,
strong,precificity,&&&&&&&&&&&,left,loyalty.virtue,,,,,,,0,143,143,143,,,,,,,,,,,,,,,,,,,,,AMP,left,0.4169164561899379,,,left,1,0.4169164561899379,1,,,,,,,,,,,,,,,,,,,,,,1029,2019_Mar_06_1505,mf_amp_cond1,3.0.4,59.968457440273916,
ban,feleological,&&&&&&&&&&&&,right,loyalty.vice,,,,,,,0,144,144,144,,,,,,,,,,,,,,,,,,,,,AMP,right,0.9671538231195882,,,right,1,0.9671538231195882,1,,,,,,,,,,,,,,,,,,,,,,1029,2019_Mar_06_1505,mf_amp_cond1,3.0.4,59.968457440273916,
growth,greaks,&&&&&&,left,care.virtue,,,,,,,0,145,145,145,,,,,,,,,,,,,,,,,,,,,AMP,left,1.3005713996244594,,,left,1,1.3005713996244594,1,,,,,,,,,,,,,,,,,,,,,,1029,2019_Mar_06_1505,mf_amp_cond1,3.0.4,59.968457440273916,
charges,fostet,&&&&&&,right,fairness.vice,,,,,,,0,146,146,146,,,,,,,,,,,,,,,,,,,,,AMP,left,0.5003713968908414,,,left,0,0.5003713968908414,0,,,,,,,,,,,,,,,,,,,,,,1029,2019_Mar_06_1505,mf_amp_cond1,3.0.4,59.968457440273916,
ensure,bluently,&&&&&&&&,left,fairness.virtue,,,,,,,0,147,147,147,,,,,,,,,,,,,,,,,,,,,AMP,left,0.3001579879783094,,,left,1,0.3001579879783094,1,,,,,,,,,,,,,,,,,,,,,,1029,2019_Mar_06_1505,mf_amp_cond1,3.0.4,59.968457440273916,
riot,smapper,&&&&&&&,right,authority.vice,,,,,,,0,148,148,148,,,,,,,,,,,,,,,,,,,,,AMP,left,0.3503145327558741,,,left,0,0.3503145327558741,0,,,,,,,,,,,,,,,,,,,,,,1029,2019_Mar_06_1505,mf_amp_cond1,3.0.4,59.968457440273916,
good,pafer,&&&&&,left,care.virtue,,,,,,,0,149,149,149,,,,,,,,,,,,,,,,,,,,,AMP,right,0.2169714921619743,,,right,0,0.2169714921619743,0,,,,,,,,,,,,,,,,,,,,,,1029,2019_Mar_06_1505,mf_amp_cond1,3.0.4,59.968457440273916,
ecgagement,hescribe,&&&&&&&&,None,nonword,,,,,,,0,150,150,150,,,,,,,,,,,,,,,,,,,,,AMP,left,0.8337735787499696,,,left,0,0.8337735787499696,0,,,,,,,,,,,,,,,,,,,,,,1029,2019_Mar_06_1505,mf_amp_cond1,3.0.4,59.968457440273916,
hand,ilportation,&&&&&&&&&&&,left,sanctity.virtue,,,,,,,0,151,151,151,,,,,,,,,,,,,,,,,,,,,AMP,left,1.0171743815299124,,,left,1,1.0171743815299124,1,,,,,,,,,,,,,,,,,,,,,,1029,2019_Mar_06_1505,mf_amp_cond1,3.0.4,59.968457440273916,
died,pumber,&&&&&&,right,care.vice,,,,,,,0,152,152,152,,,,,,,,,,,,,,,,,,,,,AMP,left,1.3672474100021645,,,left,0,1.3672474100021645,0,,,,,,,,,,,,,,,,,,,,,,1029,2019_Mar_06_1505,mf_amp_cond1,3.0.4,59.968457440273916,
forced,fangsters,&&&&&&&&&,right,fairness.vice,,,,,,,0,153,153,153,,,,,,,,,,,,,,,,,,,,,AMP,left,1.0171593073755503,,,left,0,1.0171593073755503,0,,,,,,,,,,,,,,,,,,,,,,1029,2019_Mar_06_1505,mf_amp_cond1,3.0.4,59.968457440273916,
commitment,reviked,&&&&&&&,left,sanctity.virtue,,,,,,,0,154,154,154,,,,,,,,,,,,,,,,,,,,,AMP,left,0.783779640449211,,,left,1,0.783779640449211,1,,,,,,,,,,,,,,,,,,,,,,1029,2019_Mar_06_1505,mf_amp_cond1,3.0.4,59.968457440273916,
sharing,noped,&&&&&,left,loyalty.virtue,,,,,,,0,155,155,155,,,,,,,,,,,,,,,,,,,,,AMP,right,0.3336626086384058,,,right,0,0.3336626086384058,0,,,,,,,,,,,,,,,,,,,,,,1029,2019_Mar_06_1505,mf_amp_cond1,3.0.4,59.968457440273916,
agreement,Oregoniuns,&&&&&&&&&&,left,fairness.virtue,,,,,,,0,156,156,156,,,,,,,,,,,,,,,,,,,,,AMP,left,0.31699945928994566,,,left,1,0.31699945928994566,1,,,,,,,,,,,,,,,,,,,,,,1029,2019_Mar_06_1505,mf_amp_cond1,3.0.4,59.968457440273916,
win,nuckheap,&&&&&&&&,left,fairness.virtue,,,,,,,0,157,157,157,,,,,,,,,,,,,,,,,,,,,AMP,right,0.6837144695455208,,,right,0,0.6837144695455208,0,,,,,,,,,,,,,,,,,,,,,,1029,2019_Mar_06_1505,mf_amp_cond1,3.0.4,59.968457440273916,
promote,forepo,&&&&&&,left,sanctity.virtue,,,,,,,0,158,158,158,,,,,,,,,,,,,,,,,,,,,AMP,left,0.2669651098549366,,,left,1,0.2669651098549366,1,,,,,,,,,,,,,,,,,,,,,,1029,2019_Mar_06_1505,mf_amp_cond1,3.0.4,59.968457440273916,
improve,ablow,&&&&&,left,care.virtue,,,,,,,0,159,159,159,,,,,,,,,,,,,,,,,,,,,AMP,left,0.9003892933251336,,,left,1,0.9003892933251336,1,,,,,,,,,,,,,,,,,,,,,,1029,2019_Mar_06_1505,mf_amp_cond1,3.0.4,59.968457440273916,
egpeditious,sliptery,&&&&&&&&,None,nonword,,,,,,,0,160,160,160,,,,,,,,,,,,,,,,,,,,,AMP,left,0.6170535330893472,,,left,0,0.6170535330893472,0,,,,,,,,,,,,,,,,,,,,,,1029,2019_Mar_06_1505,mf_amp_cond1,3.0.4,59.968457440273916,
edancipation,hefurbished,&&&&&&&&&&&,None,nonword,,,,,,,0,161,161,161,,,,,,,,,,,,,,,,,,,,,AMP,left,0.4003485614666715,,,left,0,0.4003485614666715,0,,,,,,,,,,,,,,,,,,,,,,1029,2019_Mar_06_1505,mf_amp_cond1,3.0.4,59.968457440273916,
actively,leact,&&&&&,left,authority.virtue,,,,,,,0,162,162,162,,,,,,,,,,,,,,,,,,,,,AMP,left,0.7504081196384504,,,left,1,0.7504081196384504,1,,,,,,,,,,,,,,,,,,,,,,1029,2019_Mar_06_1505,mf_amp_cond1,3.0.4,59.968457440273916,
support,sonvoy,&&&&&&,left,loyalty.virtue,,,,,,,0,163,163,163,,,,,,,,,,,,,,,,,,,,,AMP,left,0.4670143087860197,,,left,1,0.4670143087860197,1,,,,,,,,,,,,,,,,,,,,,,1029,2019_Mar_06_1505,mf_amp_cond1,3.0.4,59.968457440273916,
abuse,emassion,&&&&&&&&,right,sanctity.vice,,,,,,,0,164,164,164,,,,,,,,,,,,,,,,,,,,,AMP,left,1.350572393857874,,,left,0,1.350572393857874,0,,,,,,,,,,,,,,,,,,,,,,1029,2019_Mar_06_1505,mf_amp_cond1,3.0.4,59.968457440273916,
juck,ammessment,&&&&&&&&&&,None,nonword,,,,,,,0,165,165,165,,,,,,,,,,,,,,,,,,,,,AMP,left,0.40034118480980396,,,left,0,0.40034118480980396,0,,,,,,,,,,,,,,,,,,,,,,1029,2019_Mar_06_1505,mf_amp_cond1,3.0.4,59.968457440273916,
hand,Boeinf,&&&&&&,left,sanctity.virtue,,,,,,,0,166,166,166,,,,,,,,,,,,,,,,,,,,,AMP,left,0.3003148215357214,,,left,1,0.3003148215357214,1,,,,,,,,,,,,,,,,,,,,,,1029,2019_Mar_06_1505,mf_amp_cond1,3.0.4,59.968457440273916,
hope,bluently,&&&&&&&&,left,loyalty.virtue,,,,,,,0,167,167,167,,,,,,,,,,,,,,,,,,,,,AMP,left,0.4170158802298829,,,left,1,0.4170158802298829,1,,,,,,,,,,,,,,,,,,,,,,1029,2019_Mar_06_1505,mf_amp_cond1,3.0.4,59.968457440273916,
promised,leact,&&&&&,left,loyalty.virtue,,,,,,,0,168,168,168,,,,,,,,,,,,,,,,,,,,,AMP,left,0.5170351876877248,,,left,1,0.5170351876877248,1,,,,,,,,,,,,,,,,,,,,,,1029,2019_Mar_06_1505,mf_amp_cond1,3.0.4,59.968457440273916,
edancipation,fangsters,&&&&&&&&&,None,nonword,,,,,,,0,169,169,169,,,,,,,,,,,,,,,,,,,,,AMP,left,0.7004112948197871,,,left,0,0.7004112948197871,0,,,,,,,,,,,,,,,,,,,,,,1029,2019_Mar_06_1505,mf_amp_cond1,3.0.4,59.968457440273916,
fair,Loorish,&&&&&&&,left,fairness.virtue,,,,,,,0,170,170,170,,,,,,,,,,,,,,,,,,,,,AMP,right,0.21694840025156736,,,right,0,0.21694840025156736,0,,,,,,,,,,,,,,,,,,,,,,1029,2019_Mar_06_1505,mf_amp_cond1,3.0.4,59.968457440273916,
win,ronviolence,&&&&&&&&&&&,left,fairness.virtue,,,,,,,0,171,171,171,,,,,,,,,,,,,,,,,,,,,AMP,right,1.183802347513847,,,right,0,1.183802347513847,0,,,,,,,,,,,,,,,,,,,,,,1029,2019_Mar_06_1505,mf_amp_cond1,3.0.4,59.968457440273916,
commitment,chonograph,&&&&&&&&&&,left,sanctity.virtue,,,,,,,0,172,172,172,,,,,,,,,,,,,,,,,,,,,AMP,right,0.8671232901979238,,,right,0,0.8671232901979238,0,,,,,,,,,,,,,,,,,,,,,,1029,2019_Mar_06_1505,mf_amp_cond1,3.0.4,59.968457440273916,
crime,unscothed,&&&&&&&&&,right,fairness.vice,,,,,,,0,173,173,173,,,,,,,,,,,,,,,,,,,,,AMP,left,0.43366363493259996,,,left,0,0.43366363493259996,0,,,,,,,,,,,,,,,,,,,,,,1029,2019_Mar_06_1505,mf_amp_cond1,3.0.4,59.968457440273916,
riot,fornicalion,&&&&&&&&&&&,right,authority.vice,,,,,,,0,174,174,174,,,,,,,,,,,,,,,,,,,,,AMP,left,0.617049363674596,,,left,0,0.617049363674596,0,,,,,,,,,,,,,,,,,,,,,,1029,2019_Mar_06_1505,mf_amp_cond1,3.0.4,59.968457440273916,
strofe,ugeasily,&&&&&&&&,None,nonword,,,,,,,0,175,175,175,,,,,,,,,,,,,,,,,,,,,AMP,left,0.5337195048341528,,,left,0,0.5337195048341528,0,,,,,,,,,,,,,,,,,,,,,,1029,2019_Mar_06_1505,mf_amp_cond1,3.0.4,59.968457440273916,
gun,vurtain,&&&&&&&,right,authority.vice,,,,,,,0,176,176,176,,,,,,,,,,,,,,,,,,,,,AMP,left,0.4170052964473143,,,left,0,0.4170052964473143,0,,,,,,,,,,,,,,,,,,,,,,1029,2019_Mar_06_1505,mf_amp_cond1,3.0.4,59.968457440273916,
victims,ilportation,&&&&&&&&&&&,right,care.vice,,,,,,,0,177,177,177,,,,,,,,,,,,,,,,,,,,,AMP,left,0.5503563549136743,,,left,0,0.5503563549136743,0,,,,,,,,,,,,,,,,,,,,,,1029,2019_Mar_06_1505,mf_amp_cond1,3.0.4,59.968457440273916,
opportunity,reelectiob,&&&&&&&&&&,left,fairness.virtue,,,,,,,0,178,178,178,,,,,,,,,,,,,,,,,,,,,AMP,left,1.1005282944533974,,,left,1,1.1005282944533974,1,,,,,,,,,,,,,,,,,,,,,,1029,2019_Mar_06_1505,mf_amp_cond1,3.0.4,59.968457440273916,
health,pullness,&&&&&&&&,left,care.virtue,,,,,,,0,179,179,179,,,,,,,,,,,,,,,,,,,,,AMP,left,0.6170480807777494,,,left,1,0.6170480807777494,1,,,,,,,,,,,,,,,,,,,,,,1029,2019_Mar_06_1505,mf_amp_cond1,3.0.4,59.968457440273916,
strong,baladroit,&&&&&&&&&,left,loyalty.virtue,,,,,,,0,180,180,180,,,,,,,,,,,,,,,,,,,,,AMP,left,1.2505360880168155,,,left,1,1.2505360880168155,1,,,,,,,,,,,,,,,,,,,,,,1029,2019_Mar_06_1505,mf_amp_cond1,3.0.4,59.968457440273916,
officers,iptervention,&&&&&&&&&&&&,right,authority.vice,,,,,,,0,181,181,181,,,,,,,,,,,,,,,,,,,,,AMP,right,0.3169843853684142,,,right,1,0.3169843853684142,1,,,,,,,,,,,,,,,,,,,,,,1029,2019_Mar_06_1505,mf_amp_cond1,3.0.4,59.968457440273916,
increase,pistraught,&&&&&&&&&&,left,care.virtue,,,,,,,0,182,182,182,,,,,,,,,,,,,,,,,,,,,AMP,right,0.5670294468291104,,,right,0,0.5670294468291104,0,,,,,,,,,,,,,,,,,,,,,,1029,2019_Mar_06_1505,mf_amp_cond1,3.0.4,59.968457440273916,
threatened,hefurbished,&&&&&&&&&&&,right,fairness.vice,,,,,,,0,183,183,183,,,,,,,,,,,,,,,,,,,,,AMP,left,1.1505703412694857,,,left,0,1.1505703412694857,0,,,,,,,,,,,,,,,,,,,,,,1029,2019_Mar_06_1505,mf_amp_cond1,3.0.4,59.968457440273916,
corruption,sliptery,&&&&&&&&,right,sanctity.vice,,,,,,,0,184,184,184,,,,,,,,,,,,,,,,,,,,,AMP,left,0.46698608505539596,,,left,0,0.46698608505539596,0,,,,,,,,,,,,,,,,,,,,,,1029,2019_Mar_06_1505,mf_amp_cond1,3.0.4,59.968457440273916,
ensure,scock,&&&&&,left,fairness.virtue,,,,,,,0,185,185,185,,,,,,,,,,,,,,,,,,,,,AMP,left,0.9504765619058162,,,left,1,0.9504765619058162,1,,,,,,,,,,,,,,,,,,,,,,1029,2019_Mar_06_1505,mf_amp_cond1,3.0.4,59.968457440273916,
loyalty,openet,&&&&&&,left,loyalty.virtue,,,,,,,0,186,186,186,,,,,,,,,,,,,,,,,,,,,AMP,right,0.3169853474246338,,,right,0,0.3169853474246338,0,,,,,,,,,,,,,,,,,,,,,,1029,2019_Mar_06_1505,mf_amp_cond1,3.0.4,59.968457440273916,
conspiracy,suggists,&&&&&&&&,right,sanctity.vice,,,,,,,0,187,187,187,,,,,,,,,,,,,,,,,,,,,AMP,right,1.01716604270041,,,right,1,1.01716604270041,1,,,,,,,,,,,,,,,,,,,,,,1029,2019_Mar_06_1505,mf_amp_cond1,3.0.4,59.968457440273916,
drumbled,thabbily,&&&&&&&&,None,nonword,,,,,,,0,188,188,188,,,,,,,,,,,,,,,,,,,,,AMP,left,0.6504244124516845,,,left,0,0.6504244124516845,0,,,,,,,,,,,,,,,,,,,,,,1029,2019_Mar_06_1505,mf_amp_cond1,3.0.4,59.968457440273916,
died,forepo,&&&&&&,right,care.vice,,,,,,,0,189,189,189,,,,,,,,,,,,,,,,,,,,,AMP,left,1.283907287986949,,,left,0,1.283907287986949,0,,,,,,,,,,,,,,,,,,,,,,1029,2019_Mar_06_1505,mf_amp_cond1,3.0.4,59.968457440273916,
progress,lenon,&&&&&,left,authority.virtue,,,,,,,0,190,190,190,,,,,,,,,,,,,,,,,,,,,AMP,right,1.0505144713679329,,,right,0,1.0505144713679329,0,,,,,,,,,,,,,,,,,,,,,,1029,2019_Mar_06_1505,mf_amp_cond1,3.0.4,59.968457440273916,
egpeditious,gationwide,&&&&&&&&&&,None,nonword,,,,,,,0,191,191,191,,,,,,,,,,,,,,,,,,,,,AMP,right,1.6173091491218656,,,right,0,1.6173091491218656,0,,,,,,,,,,,,,,,,,,,,,,1029,2019_Mar_06_1505,mf_amp_cond1,3.0.4,59.968457440273916,
useful,abointment,&&&&&&&&&&,left,authority.virtue,,,,,,,0,192,192,192,,,,,,,,,,,,,,,,,,,,,AMP,right,1.5506536649772897,,,right,0,1.5506536649772897,0,,,,,,,,,,,,,,,,,,,,,,1029,2019_Mar_06_1505,mf_amp_cond1,3.0.4,59.968457440273916,
torture,fostet,&&&&&&,right,care.vice,,,,,,,0,193,193,193,,,,,,,,,,,,,,,,,,,,,AMP,left,0.20030545629560947,,,left,0,0.20030545629560947,0,,,,,,,,,,,,,,,,,,,,,,1029,2019_Mar_06_1505,mf_amp_cond1,3.0.4,59.968457440273916,
terrorists,letish,&&&&&&,right,fairness.vice,,,,,,,0,194,194,194,,,,,,,,,,,,,,,,,,,,,AMP,left,0.46701398806180805,,,left,0,0.46701398806180805,0,,,,,,,,,,,,,,,,,,,,,,1029,2019_Mar_06_1505,mf_amp_cond1,3.0.4,59.968457440273916,
actively,mecan,&&&&&,left,authority.virtue,,,,,,,0,195,195,195,,,,,,,,,,,,,,,,,,,,,AMP,right,1.4672837157268077,,,right,0,1.4672837157268077,0,,,,,,,,,,,,,,,,,,,,,,1029,2019_Mar_06_1505,mf_amp_cond1,3.0.4,59.968457440273916,
unpleasant,asn,&&&,None,control,,,,,,,0,196,196,196,,,,,,,,,,,,,,,,,,,,,AMP,left,0.33364432747475803,,,left,0,0.33364432747475803,0,,,,,,,,,,,,,,,,,,,,,,1029,2019_Mar_06_1505,mf_amp_cond1,3.0.4,59.968457440273916,
slavery,Oregoniuns,&&&&&&&&&&,right,loyalty.vice,,,,,,,0,197,197,197,,,,,,,,,,,,,,,,,,,,,AMP,left,0.10024734144099057,,,left,0,0.10024734144099057,0,,,,,,,,,,,,,,,,,,,,,,1029,2019_Mar_06_1505,mf_amp_cond1,3.0.4,59.968457440273916,
troops,scalbel,&&&&&&&,right,loyalty.vice,,,,,,,0,198,198,198,,,,,,,,,,,,,,,,,,,,,AMP,right,0.4336706908652559,,,right,1,0.4336706908652559,1,,,,,,,,,,,,,,,,,,,,,,1029,2019_Mar_06_1505,mf_amp_cond1,3.0.4,59.968457440273916,
ban,sickyay,&&&&&&&,right,loyalty.vice,,,,,,,0,199,199,199,,,,,,,,,,,,,,,,,,,,,AMP,left,0.2836920830886811,,,left,0,0.2836920830886811,0,,,,,,,,,,,,,,,,,,,,,,1029,2019_Mar_06_1505,mf_amp_cond1,3.0.4,59.968457440273916,
sharing,sonvoy,&&&&&&,left,loyalty.virtue,,,,,,,0,200,200,200,,,,,,,,,,,,,,,,,,,,,AMP,left,0.6670817887643352,,,left,1,0.6670817887643352,1,,,,,,,,,,,,,,,,,,,,,,1029,2019_Mar_06_1505,mf_amp_cond1,3.0.4,59.968457440273916,
betrayal,tabin,&&&&&,right,loyalty.vice,,,,,,,0,201,201,201,,,,,,,,,,,,,,,,,,,,,AMP,left,1.05050998122897,,,left,0,1.05050998122897,0,,,,,,,,,,,,,,,,,,,,,,1029,2019_Mar_06_1505,mf_amp_cond1,3.0.4,59.968457440273916,
penalty,supervuned,&&&&&&&&&&,right,authority.vice,,,,,,,0,202,202,202,,,,,,,,,,,,,,,,,,,,,AMP,left,0.8504473119974136,,,left,0,0.8504473119974136,0,,,,,,,,,,,,,,,,,,,,,,1029,2019_Mar_06_1505,mf_amp_cond1,3.0.4,59.968457440273916,
praise,photocalkodes,&&&&&&&&&&&&&,left,authority.virtue,,,,,,,0,203,203,203,,,,,,,,,,,,,,,,,,,,,AMP,right,0.46702777908649296,,,right,0,0.46702777908649296,0,,,,,,,,,,,,,,,,,,,,,,1029,2019_Mar_06_1505,mf_amp_cond1,3.0.4,59.968457440273916,
praised,shoirmaster,&&&&&&&&&&&,left,loyalty.virtue,,,,,,,0,204,204,204,,,,,,,,,,,,,,,,,,,,,AMP,left,0.6170692484593019,,,left,1,0.6170692484593019,1,,,,,,,,,,,,,,,,,,,,,,1029,2019_Mar_06_1505,mf_amp_cond1,3.0.4,59.968457440273916,
support,thadowed,&&&&&&&&,left,loyalty.virtue,,,,,,,0,205,205,205,,,,,,,,,,,,,,,,,,,,,AMP,left,1.7839518684195355,,,left,1,1.7839518684195355,1,,,,,,,,,,,,,,,,,,,,,,1029,2019_Mar_06_1505,mf_amp_cond1,3.0.4,59.968457440273916,
black,synchronazers,&&&&&&&&&&&&&,right,loyalty.vice,,,,,,,0,206,206,206,,,,,,,,,,,,,,,,,,,,,AMP,left,2.2174804791575298,,,left,0,2.2174804791575298,0,,,,,,,,,,,,,,,,,,,,,,1029,2019_Mar_06_1505,mf_amp_cond1,3.0.4,59.968457440273916,
promote,reviked,&&&&&&&,left,sanctity.virtue,,,,,,,0,207,207,207,,,,,,,,,,,,,,,,,,,,,AMP,left,0.31695263378787786,,,left,1,0.31695263378787786,1,,,,,,,,,,,,,,,,,,,,,,1029,2019_Mar_06_1505,mf_amp_cond1,3.0.4,59.968457440273916,
failure,noped,&&&&&,right,loyalty.vice,,,,,,,0,208,208,208,,,,,,,,,,,,,,,,,,,,,AMP,left,1.3172640554839745,,,left,0,1.3172640554839745,0,,,,,,,,,,,,,,,,,,,,,,1029,2019_Mar_06_1505,mf_amp_cond1,3.0.4,59.968457440273916,
honored,hescribe,&&&&&&&&,left,authority.virtue,,,,,,,0,209,209,209,,,,,,,,,,,,,,,,,,,,,AMP,right,1.3505781668936834,,,right,0,1.3505781668936834,0,,,,,,,,,,,,,,,,,,,,,,1029,2019_Mar_06_1505,mf_amp_cond1,3.0.4,59.968457440273916,
good,touls,&&&&&,left,care.virtue,,,,,,,0,210,210,210,,,,,,,,,,,,,,,,,,,,,AMP,right,0.533697695704177,,,right,0,0.533697695704177,0,,,,,,,,,,,,,,,,,,,,,,1029,2019_Mar_06_1505,mf_amp_cond1,3.0.4,59.968457440273916,
improve,quarterbocks,&&&&&&&&&&&&,left,care.virtue,,,,,,,0,211,211,211,,,,,,,,,,,,,,,,,,,,,AMP,right,0.6170503258472309,,,right,0,0.6170503258472309,0,,,,,,,,,,,,,,,,,,,,,,1029,2019_Mar_06_1505,mf_amp_cond1,3.0.4,59.968457440273916,
men,Phintoism,&&&&&&&&&,right,loyalty.vice,,,,,,,0,212,212,212,,,,,,,,,,,,,,,,,,,,,AMP,right,0.41703961382154375,,,right,1,0.41703961382154375,1,,,,,,,,,,,,,,,,,,,,,,1029,2019_Mar_06_1505,mf_amp_cond1,3.0.4,59.968457440273916,
promises,counpy's,&&&&&&&&,left,fairness.virtue,,,,,,,0,213,213,213,,,,,,,,,,,,,,,,,,,,,AMP,left,0.7504264009185135,,,left,1,0.7504264009185135,1,,,,,,,,,,,,,,,,,,,,,,1029,2019_Mar_06_1505,mf_amp_cond1,3.0.4,59.968457440273916,
forced,lachelor,&&&&&&&&,right,fairness.vice,,,,,,,0,214,214,214,,,,,,,,,,,,,,,,,,,,,AMP,left,0.7003898062976077,,,left,0,0.7003898062976077,0,,,,,,,,,,,,,,,,,,,,,,1029,2019_Mar_06_1505,mf_amp_cond1,3.0.4,59.968457440273916,
rebels,Lacedonia,&&&&&&&&&,right,authority.vice,,,,,,,0,215,215,215,,,,,,,,,,,,,,,,,,,,,AMP,left,0.51704994100146,,,left,0,0.51704994100146,0,,,,,,,,,,,,,,,,,,,,,,1029,2019_Mar_06_1505,mf_amp_cond1,3.0.4,59.968457440273916,
prosecution,carvels,&&&&&&&,right,authority.vice,,,,,,,0,216,216,216,,,,,,,,,,,,,,,,,,,,,AMP,left,0.40033637394662946,,,left,0,0.40033637394662946,0,,,,,,,,,,,,,,,,,,,,,,1029,2019_Mar_06_1505,mf_amp_cond1,3.0.4,59.968457440273916,
killed,shoirmaster,&&&&&&&&&&&,right,care.vice,,,,,,,0,217,217,217,,,,,,,,,,,,,,,,,,,,,AMP,left,2.0674271431053057,,,left,0,2.0674271431053057,0,,,,,,,,,,,,,,,,,,,,,,1029,2019_Mar_06_1505,mf_amp_cond1,3.0.4,59.968457440273916,
civilians,prones,&&&&&&,right,care.vice,,,,,,,0,218,218,218,,,,,,,,,,,,,,,,,,,,,AMP,right,0.6670737706590444,,,right,1,0.6670737706590444,1,,,,,,,,,,,,,,,,,,,,,,1029,2019_Mar_06_1505,mf_amp_cond1,3.0.4,59.968457440273916,
growth,framo,&&&&&,left,care.virtue,,,,,,,0,219,219,219,,,,,,,,,,,,,,,,,,,,,AMP,left,0.3169776501599699,,,left,1,0.3169776501599699,1,,,,,,,,,,,,,,,,,,,,,,1029,2019_Mar_06_1505,mf_amp_cond1,3.0.4,59.968457440273916,
dumid,spag,&&&&,None,nonword,,,,,,,0,220,220,220,,,,,,,,,,,,,,,,,,,,,AMP,left,0.6170647584367543,,,left,0,0.6170647584367543,0,,,,,,,,,,,,,,,,,,,,,,1029,2019_Mar_06_1505,mf_amp_cond1,3.0.4,59.968457440273916,
hatigue,esquisiteness,&&&&&&&&&&&&&,None,nonword,,,,,,,0,221,221,221,,,,,,,,,,,,,,,,,,,,,AMP,left,0.38366841373499483,,,left,0,0.38366841373499483,0,,,,,,,,,,,,,,,,,,,,,,1029,2019_Mar_06_1505,mf_amp_cond1,3.0.4,59.968457440273916,
clean,nuckheap,&&&&&&&&,left,sanctity.virtue,,,,,,,0,222,222,222,,,,,,,,,,,,,,,,,,,,,AMP,left,0.917155715287663,,,left,1,0.917155715287663,1,,,,,,,,,,,,,,,,,,,,,,1029,2019_Mar_06_1505,mf_amp_cond1,3.0.4,59.968457440273916,
embrace,coom,&&&&,left,authority.virtue,,,,,,,0,223,223,223,,,,,,,,,,,,,,,,,,,,,AMP,left,0.4169866945594549,,,left,1,0.4169866945594549,1,,,,,,,,,,,,,,,,,,,,,,1029,2019_Mar_06_1505,mf_amp_cond1,3.0.4,59.968457440273916,
fear,smapper,&&&&&&&,right,sanctity.vice,,,,,,,0,224,224,224,,,,,,,,,,,,,,,,,,,,,AMP,left,1.5006308616138995,,,left,0,1.5006308616138995,0,,,,,,,,,,,,,,,,,,,,,,1029,2019_Mar_06_1505,mf_amp_cond1,3.0.4,59.968457440273916,
racist,precificity,&&&&&&&&&&&,right,sanctity.vice,,,,,,,0,225,225,225,,,,,,,,,,,,,,,,,,,,,AMP,left,0.3003209150629118,,,left,0,0.3003209150629118,0,,,,,,,,,,,,,,,,,,,,,,1029,2019_Mar_06_1505,mf_amp_cond1,3.0.4,59.968457440273916,
voter,antral,&&&&&&,right,fairness.vice,,,,,,,0,226,226,226,,,,,,,,,,,,,,,,,,,,,AMP,left,0.6670734500512481,,,left,0,0.6670734500512481,0,,,,,,,,,,,,,,,,,,,,,,1029,2019_Mar_06_1505,mf_amp_cond1,3.0.4,59.968457440273916,
charges,crilfully,&&&&&&&&&,right,fairness.vice,,,,,,,0,227,227,227,,,,,,,,,,,,,,,,,,,,,AMP,left,0.5337300887331367,,,left,0,0.5337300887331367,0,,,,,,,,,,,,,,,,,,,,,,1029,2019_Mar_06_1505,mf_amp_cond1,3.0.4,59.968457440273916,
epigrach,sfumatoy,&&&&&&&&,None,nonword,,,,,,,0,228,228,228,,,,,,,,,,,,,,,,,,,,,AMP,left,0.48369445640128106,,,left,0,0.48369445640128106,0,,,,,,,,,,,,,,,,,,,,,,1029,2019_Mar_06_1505,mf_amp_cond1,3.0.4,59.968457440273916,
agreement,ittutable,&&&&&&&&&,left,fairness.virtue,,,,,,,0,229,229,229,,,,,,,,,,,,,,,,,,,,,AMP,right,0.6336255972273648,,,right,0,0.6336255972273648,0,,,,,,,,,,,,,,,,,,,,,,1029,2019_Mar_06_1505,mf_amp_cond1,3.0.4,59.968457440273916,
interests,ablow,&&&&&,left,fairness.virtue,,,,,,,0,230,230,230,,,,,,,,,,,,,,,,,,,,,AMP,right,0.4336735773831606,,,right,0,0.4336735773831606,0,,,,,,,,,,,,,,,,,,,,,,1029,2019_Mar_06_1505,mf_amp_cond1,3.0.4,59.968457440273916,
care,grovelire,&&&&&&&&&,left,care.virtue,,,,,,,0,231,231,231,,,,,,,,,,,,,,,,,,,,,AMP,right,0.4336844820063561,,,right,0,0.4336844820063561,0,,,,,,,,,,,,,,,,,,,,,,1029,2019_Mar_06_1505,mf_amp_cond1,3.0.4,59.968457440273916,
drug,ning,&&&&,right,sanctity.vice,,,,,,,0,232,232,232,,,,,,,,,,,,,,,,,,,,,AMP,left,0.26696863782126456,,,left,0,0.26696863782126456,0,,,,,,,,,,,,,,,,,,,,,,1029,2019_Mar_06_1505,mf_amp_cond1,3.0.4,59.968457440273916,
dignity,dramens,&&&&&&&,left,sanctity.virtue,,,,,,,0,233,233,233,,,,,,,,,,,,,,,,,,,,,AMP,right,0.8504768185084686,,,right,0,0.8504768185084686,0,,,,,,,,,,,,,,,,,,,,,,1029,2019_Mar_06_1505,mf_amp_cond1,3.0.4,59.968457440273916,
death,feleological,&&&&&&&&&&&&,right,care.vice,,,,,,,0,234,234,234,,,,,,,,,,,,,,,,,,,,,AMP,left,0.3001627988414839,,,left,0,0.3001627988414839,0,,,,,,,,,,,,,,,,,,,,,,1029,2019_Mar_06_1505,mf_amp_cond1,3.0.4,59.968457440273916,
energy,greaks,&&&&&&,left,sanctity.virtue,,,,,,,0,235,235,235,,,,,,,,,,,,,,,,,,,,,AMP,right,0.45032710512168705,,,right,0,0.45032710512168705,0,,,,,,,,,,,,,,,,,,,,,,1029,2019_Mar_06_1505,mf_amp_cond1,3.0.4,59.968457440273916,
rejected,reprisols,&&&&&&&&&,right,authority.vice,,,,,,,0,236,236,236,,,,,,,,,,,,,,,,,,,,,AMP,left,0.46701013925485313,,,left,0,0.46701013925485313,0,,,,,,,,,,,,,,,,,,,,,,1029,2019_Mar_06_1505,mf_amp_cond1,3.0.4,59.968457440273916,
restore,uller,&&&&&,left,care.virtue,,,,,,,0,237,237,237,,,,,,,,,,,,,,,,,,,,,AMP,right,1.0671378511469811,,,right,0,1.0671378511469811,0,,,,,,,,,,,,,,,,,,,,,,1029,2019_Mar_06_1505,mf_amp_cond1,3.0.4,59.968457440273916,
chressing,unreflectuve,&&&&&&&&&&&&,None,nonword,,,,,,,0,238,238,238,,,,,,,,,,,,,,,,,,,,,AMP,left,1.5172834270633757,,,left,0,1.5172834270633757,0,,,,,,,,,,,,,,,,,,,,,,1029,2019_Mar_06_1505,mf_amp_cond1,3.0.4,59.968457440273916,
sexual,chreams,&&&&&&&,right,sanctity.vice,,,,,,,0,239,239,239,,,,,,,,,,,,,,,,,,,,,AMP,right,0.7837998459581286,,,right,1,0.7837998459581286,1,,,,,,,,,,,,,,,,,,,,,,1029,2019_Mar_06_1505,mf_amp_cond1,3.0.4,59.968457440273916,
ecgagement,pafer,&&&&&,None,nonword,,,,,,,0,240,240,240,,,,,,,,,,,,,,,,,,,,,AMP,left,1.0504974729847163,,,left,0,1.0504974729847163,0,,,,,,,,,,,,,,,,,,,,,,1029,2019_Mar_06_1505,mf_amp_cond1,3.0.4,59.968457440273916,
hate,neputized,&&&&&&&&&,right,fairness.vice,,,,,,,0,241,241,241,,,,,,,,,,,,,,,,,,,,,AMP,left,0.5670544632012025,,,left,0,0.5670544632012025,0,,,,,,,,,,,,,,,,,,,,,,1029,2019_Mar_06_1505,mf_amp_cond1,3.0.4,59.968457440273916,
peaceful,halaise,&&&&&&&,left,authority.virtue,,,,,,,0,242,242,242,,,,,,,,,,,,,,,,,,,,,AMP,right,1.0339180321898311,,,right,0,1.0339180321898311,0,,,,,,,,,,,,,,,,,,,,,,1029,2019_Mar_06_1505,mf_amp_cond1,3.0.4,59.968457440273916,
attacks,hasks,&&&&&,right,care.vice,,,,,,,0,243,243,243,,,,,,,,,,,,,,,,,,,,,AMP,left,0.8671210452448577,,,left,0,0.8671210452448577,0,,,,,,,,,,,,,,,,,,,,,,1029,2019_Mar_06_1505,mf_amp_cond1,3.0.4,59.968457440273916,
pleasant,laming,&&&&&&,None,control,,,,,,,0,244,244,244,,,,,,,,,,,,,,,,,,,,,AMP,left,1.967405590461567,,,left,0,1.967405590461567,0,,,,,,,,,,,,,,,,,,,,,,1029,2019_Mar_06_1505,mf_amp_cond1,3.0.4,59.968457440273916,
faith,pumber,&&&&&&,left,sanctity.virtue,,,,,,,0,245,245,245,,,,,,,,,,,,,,,,,,,,,AMP,left,2.484213385847397,,,left,1,2.484213385847397,1,,,,,,,,,,,,,,,,,,,,,,1029,2019_Mar_06_1505,mf_amp_cond1,3.0.4,59.968457440273916,
promised,sfumatoy,&&&&&&&&,left,loyalty.virtue,,,,,,,0,246,246,246,,,,,,,,,,,,,,,,,,,,,AMP,right,0.983810558100231,,,right,0,0.983810558100231,0,,,,,,,,,,,,,,,,,,,,,,1029,2019_Mar_06_1505,mf_amp_cond1,3.0.4,59.968457440273916,
fair,nuckheap,&&&&&&&&,left,fairness.virtue,,,,,,,0,247,247,247,,,,,,,,,,,,,,,,,,,,,AMP,left,1.3839240297675133,,,left,1,1.3839240297675133,1,,,,,,,,,,,,,,,,,,,,,,1029,2019_Mar_06_1505,mf_amp_cond1,3.0.4,59.968457440273916,
progress,Phintoism,&&&&&&&&&,left,authority.virtue,,,,,,,0,248,248,248,,,,,,,,,,,,,,,,,,,,,AMP,left,2.5842480880673975,,,left,1,2.5842480880673975,1,,,,,,,,,,,,,,,,,,,,,,1029,2019_Mar_06_1505,mf_amp_cond1,3.0.4,59.968457440273916,
crime,chreams,&&&&&&&,right,fairness.vice,,,,,,,0,249,249,249,,,,,,,,,,,,,,,,,,,,,AMP,right,1.0171086332993582,,,right,1,1.0171086332993582,1,,,,,,,,,,,,,,,,,,,,,,1029,2019_Mar_06_1505,mf_amp_cond1,3.0.4,59.968457440273916,
officers,ronviolence,&&&&&&&&&&&,right,authority.vice,,,,,,,0,250,250,250,,,,,,,,,,,,,,,,,,,,,AMP,left,0.7337132187094539,,,left,0,0.7337132187094539,0,,,,,,,,,,,,,,,,,,,,,,1029,2019_Mar_06_1505,mf_amp_cond1,3.0.4,59.968457440273916,
support,ilportation,&&&&&&&&&&&,left,loyalty.virtue,,,,,,,0,251,251,251,,,,,,,,,,,,,,,,,,,,,AMP,right,0.9004316286882386,,,right,0,0.9004316286882386,0,,,,,,,,,,,,,,,,,,,,,,1029,2019_Mar_06_1505,mf_amp_cond1,3.0.4,59.968457440273916,
care,shoirmaster,&&&&&&&&&&&,left,care.virtue,,,,,,,0,252,252,252,,,,,,,,,,,,,,,,,,,,,AMP,right,0.5837089531123638,,,right,0,0.5837089531123638,0,,,,,,,,,,,,,,,,,,,,,,1029,2019_Mar_06_1505,mf_amp_cond1,3.0.4,59.968457440273916,
dignity,neputized,&&&&&&&&&,left,sanctity.virtue,,,,,,,0,253,253,253,,,,,,,,,,,,,,,,,,,,,AMP,left,1.1171786150662228,,,left,1,1.1171786150662228,1,,,,,,,,,,,,,,,,,,,,,,1029,2019_Mar_06_1505,mf_amp_cond1,3.0.4,59.968457440273916,
win,unreflectuve,&&&&&&&&&&&&,left,fairness.virtue,,,,,,,0,254,254,254,,,,,,,,,,,,,,,,,,,,,AMP,left,0.9671454842900857,,,left,1,0.9671454842900857,1,,,,,,,,,,,,,,,,,,,,,,1029,2019_Mar_06_1505,mf_amp_cond1,3.0.4,59.968457440273916,
death,suggists,&&&&&&&&,right,care.vice,,,,,,,0,255,255,255,,,,,,,,,,,,,,,,,,,,,AMP,left,1.3839314064243808,,,left,0,1.3839314064243808,0,,,,,,,,,,,,,,,,,,,,,,1029,2019_Mar_06_1505,mf_amp_cond1,3.0.4,59.968457440273916,
torture,dramens,&&&&&&&,right,care.vice,,,,,,,0,256,256,256,,,,,,,,,,,,,,,,,,,,,AMP,right,0.817105618538335,,,right,1,0.817105618538335,1,,,,,,,,,,,,,,,,,,,,,,1029,2019_Mar_06_1505,mf_amp_cond1,3.0.4,59.968457440273916,
betrayal,pullness,&&&&&&&&,right,loyalty.vice,,,,,,,0,257,257,257,,,,,,,,,,,,,,,,,,,,,AMP,left,1.4672859607962891,,,left,0,1.4672859607962891,0,,,,,,,,,,,,,,,,,,,,,,1029,2019_Mar_06_1505,mf_amp_cond1,3.0.4,59.968457440273916,
racist,vurtain,&&&&&&&,right,sanctity.vice,,,,,,,0,258,258,258,,,,,,,,,,,,,,,,,,,,,AMP,left,2.7342552401823923,,,left,0,2.7342552401823923,0,,,,,,,,,,,,,,,,,,,,,,1029,2019_Mar_06_1505,mf_amp_cond1,3.0.4,59.968457440273916,
sexual,touls,&&&&&,right,sanctity.vice,,,,,,,0,259,259,259,,,,,,,,,,,,,,,,,,,,,AMP,left,1.1005170691059902,,,left,0,1.1005170691059902,0,,,,,,,,,,,,,,,,,,,,,,1029,2019_Mar_06_1505,mf_amp_cond1,3.0.4,59.968457440273916,
unpleasant,ammessment,&&&&&&&&&&,None,control,,,,,,,0,260,260,260,,,,,,,,,,,,,,,,,,,,,AMP,left,1.8007086688885465,,,left,0,1.8007086688885465,0,,,,,,,,,,,,,,,,,,,,,,1029,2019_Mar_06_1505,mf_amp_cond1,3.0.4,59.968457440273916,
useful,photocalkodes,&&&&&&&&&&&&&,left,authority.virtue,,,,,,,0,261,261,261,,,,,,,,,,,,,,,,,,,,,AMP,left,0.9504727132152766,,,left,1,0.9504727132152766,1,,,,,,,,,,,,,,,,,,,,,,1029,2019_Mar_06_1505,mf_amp_cond1,3.0.4,59.968457440273916,
faith,ugeasily,&&&&&&&&,left,sanctity.virtue,,,,,,,0,262,262,262,,,,,,,,,,,,,,,,,,,,,AMP,left,0.9171342268818989,,,left,1,0.9171342268818989,1,,,,,,,,,,,,,,,,,,,,,,1029,2019_Mar_06_1505,mf_amp_cond1,3.0.4,59.968457440273916,
killed,lenon,&&&&&,right,care.vice,,,,,,,0,263,263,263,,,,,,,,,,,,,,,,,,,,,AMP,left,0.7170968948630616,,,left,0,0.7170968948630616,0,,,,,,,,,,,,,,,,,,,,,,1029,2019_Mar_06_1505,mf_amp_cond1,3.0.4,59.968457440273916,
promote,uller,&&&&&,left,sanctity.virtue,,,,,,,0,264,264,264,,,,,,,,,,,,,,,,,,,,,AMP,right,1.083860975690186,,,right,0,1.083860975690186,0,,,,,,,,,,,,,,,,,,,,,,1029,2019_Mar_06_1505,mf_amp_cond1,3.0.4,59.968457440273916,
drumbled,emassion,&&&&&&&&,None,nonword,,,,,,,0,265,265,265,,,,,,,,,,,,,,,,,,,,,AMP,left,1.4839404507074505,,,left,0,1.4839404507074505,0,,,,,,,,,,,,,,,,,,,,,,1029,2019_Mar_06_1505,mf_amp_cond1,3.0.4,59.968457440273916,
failure,feleological,&&&&&&&&&&&&,right,loyalty.vice,,,,,,,0,266,266,266,,,,,,,,,,,,,,,,,,,,,AMP,left,0.4170001648599282,,,left,0,0.4170001648599282,0,,,,,,,,,,,,,,,,,,,,,,1029,2019_Mar_06_1505,mf_amp_cond1,3.0.4,59.968457440273916,
hope,smapper,&&&&&&&,left,loyalty.virtue,,,,,,,0,267,267,267,,,,,,,,,,,,,,,,,,,,,AMP,left,0.9504727132152766,,,left,1,0.9504727132152766,1,,,,,,,,,,,,,,,,,,,,,,1029,2019_Mar_06_1505,mf_amp_cond1,3.0.4,59.968457440273916,
health,halaise,&&&&&&&,left,care.virtue,,,,,,,0,268,268,268,,,,,,,,,,,,,,,,,,,,,AMP,left,0.5170271696988493,,,left,1,0.5170271696988493,1,,,,,,,,,,,,,,,,,,,,,,1029,2019_Mar_06_1505,mf_amp_cond1,3.0.4,59.968457440273916,
charges,grovelire,&&&&&&&&&,right,fairness.vice,,,,,,,0,269,269,269,,,,,,,,,,,,,,,,,,,,,AMP,left,1.6172902265097946,,,left,0,1.6172902265097946,0,,,,,,,,,,,,,,,,,,,,,,1029,2019_Mar_06_1505,mf_amp_cond1,3.0.4,59.968457440273916,
opportunity,gationwide,&&&&&&&&&&,left,fairness.virtue,,,,,,,0,270,270,270,,,,,,,,,,,,,,,,,,,,,AMP,right,0.8837585367728025,,,right,0,0.8837585367728025,0,,,,,,,,,,,,,,,,,,,,,,1029,2019_Mar_06_1505,mf_amp_cond1,3.0.4,59.968457440273916,
threatened,pafer,&&&&&,right,fairness.vice,,,,,,,0,271,271,271,,,,,,,,,,,,,,,,,,,,,AMP,left,0.8671396471327171,,,left,0,0.8671396471327171,0,,,,,,,,,,,,,,,,,,,,,,1029,2019_Mar_06_1505,mf_amp_cond1,3.0.4,59.968457440273916,
clean,spag,&&&&,left,sanctity.virtue,,,,,,,0,272,272,272,,,,,,,,,,,,,,,,,,,,,AMP,left,0.900465625221841,,,left,1,0.900465625221841,1,,,,,,,,,,,,,,,,,,,,,,1029,2019_Mar_06_1505,mf_amp_cond1,3.0.4,59.968457440273916,
victims,noped,&&&&&,right,care.vice,,,,,,,0,273,273,273,,,,,,,,,,,,,,,,,,,,,AMP,left,0.5170383950462565,,,left,0,0.5170383950462565,0,,,,,,,,,,,,,,,,,,,,,,1029,2019_Mar_06_1505,mf_amp_cond1,3.0.4,59.968457440273916,
forced,antral,&&&&&&,right,fairness.vice,,,,,,,0,274,274,274,,,,,,,,,,,,,,,,,,,,,AMP,left,0.35034243564587086,,,left,0,0.35034243564587086,0,,,,,,,,,,,,,,,,,,,,,,1029,2019_Mar_06_1505,mf_amp_cond1,3.0.4,59.968457440273916,
prosecution,chonograph,&&&&&&&&&&,right,authority.vice,,,,,,,0,275,275,275,,,,,,,,,,,,,,,,,,,,,AMP,left,0.917149942368269,,,left,0,0.917149942368269,0,,,,,,,,,,,,,,,,,,,,,,1029,2019_Mar_06_1505,mf_amp_cond1,3.0.4,59.968457440273916,
strofe,sliptery,&&&&&&&&,None,nonword,,,,,,,0,276,276,276,,,,,,,,,,,,,,,,,,,,,AMP,left,2.0674239358631894,,,left,0,2.0674239358631894,0,,,,,,,,,,,,,,,,,,,,,,1029,2019_Mar_06_1505,mf_amp_cond1,3.0.4,59.968457440273916,
edancipation,hescribe,&&&&&&&&,None,nonword,,,,,,,0,277,277,277,,,,,,,,,,,,,,,,,,,,,AMP,left,1.383878487162292,,,left,0,1.383878487162292,0,,,,,,,,,,,,,,,,,,,,,,1029,2019_Mar_06_1505,mf_amp_cond1,3.0.4,59.968457440273916,
men,tabin,&&&&&,right,loyalty.vice,,,,,,,0,278,278,278,,,,,,,,,,,,,,,,,,,,,AMP,left,0.9171335854334757,,,left,0,0.9171335854334757,0,,,,,,,,,,,,,,,,,,,,,,1029,2019_Mar_06_1505,mf_amp_cond1,3.0.4,59.968457440273916,
drug,fostet,&&&&&&,right,sanctity.vice,,,,,,,0,279,279,279,,,,,,,,,,,,,,,,,,,,,AMP,left,1.8840779766906053,,,left,0,1.8840779766906053,0,,,,,,,,,,,,,,,,,,,,,,1029,2019_Mar_06_1505,mf_amp_cond1,3.0.4,59.968457440273916,
epigrach,carvels,&&&&&&&,None,nonword,,,,,,,0,280,280,280,,,,,,,,,,,,,,,,,,,,,AMP,right,1.1338578005088493,,,right,0,1.1338578005088493,0,,,,,,,,,,,,,,,,,,,,,,1029,2019_Mar_06_1505,mf_amp_cond1,3.0.4,59.968457440273916,
interests,prones,&&&&&&,left,fairness.virtue,,,,,,,0,281,281,281,,,,,,,,,,,,,,,,,,,,,AMP,right,0.5837445533834398,,,right,0,0.5837445533834398,0,,,,,,,,,,,,,,,,,,,,,,1029,2019_Mar_06_1505,mf_amp_cond1,3.0.4,59.968457440273916,
good,openet,&&&&&&,left,care.virtue,,,,,,,0,282,282,282,,,,,,,,,,,,,,,,,,,,,AMP,right,0.3169757258147001,,,right,0,0.3169757258147001,0,,,,,,,,,,,,,,,,,,,,,,1029,2019_Mar_06_1505,mf_amp_cond1,3.0.4,59.968457440273916,
rejected,esquisiteness,&&&&&&&&&&&&&,right,authority.vice,,,,,,,0,283,283,283,,,,,,,,,,,,,,,,,,,,,AMP,left,0.4836880420334637,,,left,0,0.4836880420334637,0,,,,,,,,,,,,,,,,,,,,,,1029,2019_Mar_06_1505,mf_amp_cond1,3.0.4,59.968457440273916,
terrorists,ittutable,&&&&&&&&&,right,fairness.vice,,,,,,,0,284,284,284,,,,,,,,,,,,,,,,,,,,,AMP,left,0.35032479593064636,,,left,0,0.35032479593064636,0,,,,,,,,,,,,,,,,,,,,,,1029,2019_Mar_06_1505,mf_amp_cond1,3.0.4,59.968457440273916,
civilians,coom,&&&&,right,care.vice,,,,,,,0,285,285,285,,,,,,,,,,,,,,,,,,,,,AMP,left,0.6004250218393281,,,left,0,0.6004250218393281,0,,,,,,,,,,,,,,,,,,,,,,1029,2019_Mar_06_1505,mf_amp_cond1,3.0.4,59.968457440273916,
peaceful,Lacedonia,&&&&&&&&&,left,authority.virtue,,,,,,,0,286,286,286,,,,,,,,,,,,,,,,,,,,,AMP,left,0.18361440394073725,,,left,1,0.18361440394073725,1,,,,,,,,,,,,,,,,,,,,,,1029,2019_Mar_06_1505,mf_amp_cond1,3.0.4,59.968457440273916,
conspiracy,reelectiob,&&&&&&&&&&,right,sanctity.vice,,,,,,,0,287,287,287,,,,,,,,,,,,,,,,,,,,,AMP,left,0.9838108788244426,,,left,0,0.9838108788244426,0,,,,,,,,,,,,,,,,,,,,,,1029,2019_Mar_06_1505,mf_amp_cond1,3.0.4,59.968457440273916,
actively,synchronazers,&&&&&&&&&&&&&,left,authority.virtue,,,,,,,0,288,288,288,,,,,,,,,,,,,,,,,,,,,AMP,right,0.6003919873619452,,,right,0,0.6003919873619452,0,,,,,,,,,,,,,,,,,,,,,,1029,2019_Mar_06_1505,mf_amp_cond1,3.0.4,59.968457440273916,
praised,Loorish,&&&&&&&,left,loyalty.virtue,,,,,,,0,289,289,289,,,,,,,,,,,,,,,,,,,,,AMP,right,0.7004266895819455,,,right,0,0.7004266895819455,0,,,,,,,,,,,,,,,,,,,,,,1029,2019_Mar_06_1505,mf_amp_cond1,3.0.4,59.968457440273916,
ban,Boeinf,&&&&&&,right,loyalty.vice,,,,,,,0,290,290,290,,,,,,,,,,,,,,,,,,,,,AMP,left,0.8671204037964344,,,left,0,0.8671204037964344,0,,,,,,,,,,,,,,,,,,,,,,1029,2019_Mar_06_1505,mf_amp_cond1,3.0.4,59.968457440273916,
corruption,thabbily,&&&&&&&&,right,sanctity.vice,,,,,,,0,291,291,291,,,,,,,,,,,,,,,,,,,,,AMP,left,0.3169590481556952,,,left,0,0.3169590481556952,0,,,,,,,,,,,,,,,,,,,,,,1029,2019_Mar_06_1505,mf_amp_cond1,3.0.4,59.968457440273916,
chressing,scock,&&&&&,None,nonword,,,,,,,0,292,292,292,,,,,,,,,,,,,,,,,,,,,AMP,left,0.6670843545580283,,,left,0,0.6670843545580283,0,,,,,,,,,,,,,,,,,,,,,,1029,2019_Mar_06_1505,mf_amp_cond1,3.0.4,59.968457440273916,
juck,fangsters,&&&&&&&&&,None,nonword,,,,,,,0,293,293,293,,,,,,,,,,,,,,,,,,,,,AMP,left,1.4339461916824803,,,left,0,1.4339461916824803,0,,,,,,,,,,,,,,,,,,,,,,1029,2019_Mar_06_1505,mf_amp_cond1,3.0.4,59.968457440273916,
sharing,thadowed,&&&&&&&&,left,loyalty.virtue,,,,,,,0,294,294,294,,,,,,,,,,,,,,,,,,,,,AMP,right,0.7504302496090531,,,right,0,0.7504302496090531,0,,,,,,,,,,,,,,,,,,,,,,1029,2019_Mar_06_1505,mf_amp_cond1,3.0.4,59.968457440273916,
hand,leact,&&&&&,left,sanctity.virtue,,,,,,,0,295,295,295,,,,,,,,,,,,,,,,,,,,,AMP,left,0.3503183814464137,,,left,1,0.3503183814464137,1,,,,,,,,,,,,,,,,,,,,,,1029,2019_Mar_06_1505,mf_amp_cond1,3.0.4,59.968457440273916,
black,greaks,&&&&&&,right,loyalty.vice,,,,,,,0,296,296,296,,,,,,,,,,,,,,,,,,,,,AMP,left,0.3503126084106043,,,left,0,0.3503126084106043,0,,,,,,,,,,,,,,,,,,,,,,1029,2019_Mar_06_1505,mf_amp_cond1,3.0.4,59.968457440273916,
penalty,sonvoy,&&&&&&,right,authority.vice,,,,,,,0,297,297,297,,,,,,,,,,,,,,,,,,,,,AMP,left,0.4169809215236455,,,left,0,0.4169809215236455,0,,,,,,,,,,,,,,,,,,,,,,1029,2019_Mar_06_1505,mf_amp_cond1,3.0.4,59.968457440273916,
hatigue,sickyay,&&&&&&&,None,nonword,,,,,,,0,298,298,298,,,,,,,,,,,,,,,,,,,,,AMP,left,0.36699211469385773,,,left,0,0.36699211469385773,0,,,,,,,,,,,,,,,,,,,,,,1029,2019_Mar_06_1505,mf_amp_cond1,3.0.4,59.968457440273916,
dumid,laming,&&&&&&,None,nonword,,,,,,,0,299,299,299,,,,,,,,,,,,,,,,,,,,,AMP,left,0.717111968784593,,,left,0,0.717111968784593,0,,,,,,,,,,,,,,,,,,,,,,1029,2019_Mar_06_1505,mf_amp_cond1,3.0.4,59.968457440273916,
loyalty,supervuned,&&&&&&&&&&,left,loyalty.virtue,,,,,,,0,300,300,300,,,,,,,,,,,,,,,,,,,,,AMP,right,0.4503518007695675,,,right,0,0.4503518007695675,0,,,,,,,,,,,,,,,,,,,,,,1029,2019_Mar_06_1505,mf_amp_cond1,3.0.4,59.968457440273916,
ensure,ablow,&&&&&,left,fairness.virtue,,,,,,,0,301,301,301,,,,,,,,,,,,,,,,,,,,,AMP,right,1.533874093205668,,,right,0,1.533874093205668,0,,,,,,,,,,,,,,,,,,,,,,1029,2019_Mar_06_1505,mf_amp_cond1,3.0.4,59.968457440273916,
growth,forepo,&&&&&&,left,care.virtue,,,,,,,0,302,302,302,,,,,,,,,,,,,,,,,,,,,AMP,right,1.2338777494151145,,,right,0,1.2338777494151145,0,,,,,,,,,,,,,,,,,,,,,,1029,2019_Mar_06_1505,mf_amp_cond1,3.0.4,59.968457440273916,
praise,pumber,&&&&&&,left,authority.virtue,,,,,,,0,303,303,303,,,,,,,,,,,,,,,,,,,,,AMP,right,0.4503813071642071,,,right,0,0.4503813071642071,0,,,,,,,,,,,,,,,,,,,,,,1029,2019_Mar_06_1505,mf_amp_cond1,3.0.4,59.968457440273916,
fear,precificity,&&&&&&&&&&&,right,sanctity.vice,,,,,,,0,304,304,304,,,,,,,,,,,,,,,,,,,,,AMP,left,0.7337834569625556,,,left,0,0.7337834569625556,0,,,,,,,,,,,,,,,,,,,,,,1029,2019_Mar_06_1505,mf_amp_cond1,3.0.4,59.968457440273916,
pleasant,lachelor,&&&&&&&&,None,control,,,,,,,0,305,305,305,,,,,,,,,,,,,,,,,,,,,AMP,left,0.5837233857018873,,,left,0,0.5837233857018873,0,,,,,,,,,,,,,,,,,,,,,,1029,2019_Mar_06_1505,mf_amp_cond1,3.0.4,59.968457440273916,
voter,reprisols,&&&&&&&&&,right,fairness.vice,,,,,,,0,306,306,306,,,,,,,,,,,,,,,,,,,,,AMP,left,1.5339879497187212,,,left,0,1.5339879497187212,0,,,,,,,,,,,,,,,,,,,,,,1029,2019_Mar_06_1505,mf_amp_cond1,3.0.4,59.968457440273916,
promises,bluently,&&&&&&&&,left,fairness.virtue,,,,,,,0,307,307,307,,,,,,,,,,,,,,,,,,,,,AMP,right,2.5842323725810274,,,right,0,2.5842323725810274,0,,,,,,,,,,,,,,,,,,,,,,1029,2019_Mar_06_1505,mf_amp_cond1,3.0.4,59.968457440273916,
gun,iptervention,&&&&&&&&&&&&,right,authority.vice,,,,,,,0,308,308,308,,,,,,,,,,,,,,,,,,,,,AMP,left,0.20028877875301987,,,left,0,0.20028877875301987,0,,,,,,,,,,,,,,,,,,,,,,1029,2019_Mar_06_1505,mf_amp_cond1,3.0.4,59.968457440273916,
energy,letish,&&&&&&,left,sanctity.virtue,,,,,,,0,309,309,309,,,,,,,,,,,,,,,,,,,,,AMP,left,0.5670329747954383,,,left,1,0.5670329747954383,1,,,,,,,,,,,,,,,,,,,,,,1029,2019_Mar_06_1505,mf_amp_cond1,3.0.4,59.968457440273916,
died,Oregoniuns,&&&&&&&&&&,right,care.vice,,,,,,,0,310,310,310,,,,,,,,,,,,,,,,,,,,,AMP,left,0.3002779382513836,,,left,0,0.3002779382513836,0,,,,,,,,,,,,,,,,,,,,,,1029,2019_Mar_06_1505,mf_amp_cond1,3.0.4,59.968457440273916,
attacks,counpy's,&&&&&&&&,right,care.vice,,,,,,,0,311,311,311,,,,,,,,,,,,,,,,,,,,,AMP,left,0.7837610385613516,,,left,0,0.7837610385613516,0,,,,,,,,,,,,,,,,,,,,,,1029,2019_Mar_06_1505,mf_amp_cond1,3.0.4,59.968457440273916,
improve,abointment,&&&&&&&&&&,left,care.virtue,,,,,,,0,312,312,312,,,,,,,,,,,,,,,,,,,,,AMP,right,0.9504919565515593,,,right,0,0.9504919565515593,0,,,,,,,,,,,,,,,,,,,,,,1029,2019_Mar_06_1505,mf_amp_cond1,3.0.4,59.968457440273916,
troops,reviked,&&&&&&&,right,loyalty.vice,,,,,,,0,313,313,313,,,,,,,,,,,,,,,,,,,,,AMP,left,0.25028432079125196,,,left,0,0.25028432079125196,0,,,,,,,,,,,,,,,,,,,,,,1029,2019_Mar_06_1505,mf_amp_cond1,3.0.4,59.968457440273916,
agreement,unscothed,&&&&&&&&&,left,fairness.virtue,,,,,,,0,314,314,314,,,,,,,,,,,,,,,,,,,,,AMP,left,0.900443174643442,,,left,1,0.900443174643442,1,,,,,,,,,,,,,,,,,,,,,,1029,2019_Mar_06_1505,mf_amp_cond1,3.0.4,59.968457440273916,
embrace,framo,&&&&&,left,authority.virtue,,,,,,,0,315,315,315,,,,,,,,,,,,,,,,,,,,,AMP,left,0.6504398070974275,,,left,1,0.6504398070974275,1,,,,,,,,,,,,,,,,,,,,,,1029,2019_Mar_06_1505,mf_amp_cond1,3.0.4,59.968457440273916,
rebels,asn,&&&,right,authority.vice,,,,,,,0,316,316,316,,,,,,,,,,,,,,,,,,,,,AMP,left,1.0005198915023357,,,left,0,1.0005198915023357,0,,,,,,,,,,,,,,,,,,,,,,1029,2019_Mar_06_1505,mf_amp_cond1,3.0.4,59.968457440273916,
ecgagement,crilfully,&&&&&&&&&,None,nonword,,,,,,,0,317,317,317,,,,,,,,,,,,,,,,,,,,,AMP,left,0.5670409929007292,,,left,0,0.5670409929007292,0,,,,,,,,,,,,,,,,,,,,,,1029,2019_Mar_06_1505,mf_amp_cond1,3.0.4,59.968457440273916,
commitment,fornicalion,&&&&&&&&&&&,left,sanctity.virtue,,,,,,,0,318,318,318,,,,,,,,,,,,,,,,,,,,,AMP,left,1.383920822525397,,,left,1,1.383920822525397,1,,,,,,,,,,,,,,,,,,,,,,1029,2019_Mar_06_1505,mf_amp_cond1,3.0.4,59.968457440273916,
restore,hefurbished,&&&&&&&&&&&,left,care.virtue,,,,,,,0,319,319,319,,,,,,,,,,,,,,,,,,,,,AMP,right,0.7837706601712853,,,right,0,0.7837706601712853,0,,,,,,,,,,,,,,,,,,,,,,1029,2019_Mar_06_1505,mf_amp_cond1,3.0.4,59.968457440273916,
strong,hasks,&&&&&,left,loyalty.virtue,,,,,,,0,320,320,320,,,,,,,,,,,,,,,,,,,,,AMP,right,0.4169943918241188,,,right,0,0.4169943918241188,0,,,,,,,,,,,,,,,,,,,,,,1029,2019_Mar_06_1505,mf_amp_cond1,3.0.4,59.968457440273916,
abuse,pistraught,&&&&&&&&&&,right,sanctity.vice,,,,,,,0,321,321,321,,,,,,,,,,,,,,,,,,,,,AMP,left,0.3836748282192275,,,left,0,0.3836748282192275,0,,,,,,,,,,,,,,,,,,,,,,1029,2019_Mar_06_1505,mf_amp_cond1,3.0.4,59.968457440273916,
riot,scalbel,&&&&&&&,right,authority.vice,,,,,,,0,322,322,322,,,,,,,,,,,,,,,,,,,,,AMP,left,1.0171724571846426,,,left,0,1.0171724571846426,0,,,,,,,,,,,,,,,,,,,,,,1029,2019_Mar_06_1505,mf_amp_cond1,3.0.4,59.968457440273916,
slavery,baladroit,&&&&&&&&&,right,loyalty.vice,,,,,,,0,323,323,323,,,,,,,,,,,,,,,,,,,,,AMP,left,0.26694522507023066,,,left,0,0.26694522507023066,0,,,,,,,,,,,,,,,,,,,,,,1029,2019_Mar_06_1505,mf_amp_cond1,3.0.4,59.968457440273916,
hate,mecan,&&&&&,right,fairness.vice,,,,,,,0,324,324,324,,,,,,,,,,,,,,,,,,,,,AMP,left,0.7504446820821613,,,left,0,0.7504446820821613,0,,,,,,,,,,,,,,,,,,,,,,1029,2019_Mar_06_1505,mf_amp_cond1,3.0.4,59.968457440273916,
egpeditious,ning,&&&&,None,nonword,,,,,,,0,325,325,325,,,,,,,,,,,,,,,,,,,,,AMP,left,0.783763924962841,,,left,0,0.783763924962841,0,,,,,,,,,,,,,,,,,,,,,,1029,2019_Mar_06_1505,mf_amp_cond1,3.0.4,59.968457440273916,
increase,quarterbocks,&&&&&&&&&&&&,left,care.virtue,,,,,,,0,326,326,326,,,,,,,,,,,,,,,,,,,,,AMP,left,0.6837850285228342,,,left,1,0.6837850285228342,1,,,,,,,,,,,,,,,,,,,,,,1029,2019_Mar_06_1505,mf_amp_cond1,3.0.4,59.968457440273916,
honored,shoirmaster,&&&&&&&&&&&,left,authority.virtue,,,,,,,0,327,327,327,,,,,,,,,,,,,,,,,,,,,AMP,left,0.4670322692254558,,,left,1,0.4670322692254558,1,,,,,,,,,,,,,,,,,,,,,,1029,2019_Mar_06_1505,mf_amp_cond1,3.0.4,59.968457440273916,
,,,,,,,,,,,,,,,,,,,,,,,,,,,,,,,,,,,,,,,,,,,,3,26.042,,,,,,,,,,,,,,,,,,,,1029,2019_Mar_06_1505,mf_amp_cond1,3.0.4,59.968457440273916,
,,,,,,,,,,,,,,,,,,,,,,,,,,,,,,,,,,,,,,,,,,,,,,5,5.103,,,,,,,,,,,,,,,,,,1029,2019_Mar_06_1505,mf_amp_cond1,3.0.4,59.968457440273916,
,,,,,,,,,,,,,,,,,,,,,,,,,,,,,,,,,,,,,,,,,,,,,,,,5,5.27,,,,,,,,,,,,,,,,1029,2019_Mar_06_1505,mf_amp_cond1,3.0.4,59.968457440273916,
,,,,,,,,,,,,,,,,,,,,,,,,,,,,,,,,,,,,,,,,,,,,,,,,,,right,1.467333107138984,,,,,,,,,,,,,,1029,2019_Mar_06_1505,mf_amp_cond1,3.0.4,59.968457440273916,
bisebell,,&&&&&&&,,,,,,,,,,,,,0,0,0,1,,,,,,,,,,,,,,,,,LDT_prac,right,2.01744956150651,,,,,,0,,,,,,,,,right,2.01744956150651,,,,,,,,,,,,1029,2019_Mar_06_1505,mf_amp_cond1,3.0.4,59.968457440273916,
keyboard,,&&&&&&&,,,,,,,,,,,,,0,1,1,0,,,,,,,,,,,,,,,,,LDT_prac,right,1.1505251192720607,,,,,,0,,,,,,,,,right,1.1505251192720607,,,,,,,,,,,,1029,2019_Mar_06_1505,mf_amp_cond1,3.0.4,59.968457440273916,
,,,,,,,,,,,,,,,,,,,,,,,,,,,,,,,,,,,,,,,,,,,,,,,,,,,,,,right,1.4839401300996542,,,,,,,,,,1029,2019_Mar_06_1505,mf_amp_cond1,3.0.4,59.968457440273916,
freedom,,&&&&&&&,left,sanctity.virtue,,,,,,,,,,,,,,,0,0,0,160,,,,,,,,,,,,,LDT,right,0.6837365993997082,,,,,,0,,,,,,,,,,,,,right,0,0.6837365993997082,,,,,,,1029,2019_Mar_06_1505,mf_amp_cond1,3.0.4,59.968457440273916,
fonderland,,&&&&&&&&&&,right,nonword,,,,,,,,,,,,,,,0,1,1,154,,,,,,,,,,,,,LDT,right,0.8504518021363765,,,,,,1,,,,,,,,,,,,,right,1,0.8504518021363765,,,,,,,1029,2019_Mar_06_1505,mf_amp_cond1,3.0.4,59.968457440273916,
tracious,,&&&&&&&&,right,nonword,,,,,,,,,,,,,,,0,2,2,102,,,,,,,,,,,,,LDT,right,0.7837738674134016,,,,,,1,,,,,,,,,,,,,right,1,0.7837738674134016,,,,,,,1029,2019_Mar_06_1505,mf_amp_cond1,3.0.4,59.968457440273916,
presentkess,,&&&&&&&&&&&,right,nonword,,,,,,,,,,,,,,,0,3,3,114,,,,,,,,,,,,,LDT,right,0.8004838422639295,,,,,,1,,,,,,,,,,,,,right,1,0.8004838422639295,,,,,,,1029,2019_Mar_06_1505,mf_amp_cond1,3.0.4,59.968457440273916,
elsewhere,,&&&&&&&&&,left,neutral,,,,,,,,,,,,,,,0,4,4,128,,,,,,,,,,,,,LDT,left,0.950485221343115,,,,,,1,,,,,,,,,,,,,left,1,0.950485221343115,,,,,,,1029,2019_Mar_06_1505,mf_amp_cond1,3.0.4,59.968457440273916,
thru,,&&&&,left,neutral,,,,,,,,,,,,,,,0,5,5,1,,,,,,,,,,,,,LDT,left,0.8171229375293478,,,,,,1,,,,,,,,,,,,,left,1,0.8171229375293478,,,,,,,1029,2019_Mar_06_1505,mf_amp_cond1,3.0.4,59.968457440273916,
safety,,&&&&&&,left,care.virtue,,,,,,,,,,,,,,,0,6,6,130,,,,,,,,,,,,,LDT,right,0.6337340015452355,,,,,,0,,,,,,,,,,,,,right,0,0.6337340015452355,,,,,,,1029,2019_Mar_06_1505,mf_amp_cond1,3.0.4,59.968457440273916,
clamorek,,&&&&&&&&,right,nonword,,,,,,,,,,,,,,,0,7,7,67,,,,,,,,,,,,,LDT,left,0.6671436883043498,,,,,,0,,,,,,,,,,,,,left,0,0.6671436883043498,,,,,,,1029,2019_Mar_06_1505,mf_amp_cond1,3.0.4,59.968457440273916,
focomotive,,&&&&&&&&&&,right,nonword,,,,,,,,,,,,,,,0,8,8,134,,,,,,,,,,,,,LDT,left,0.6503942644922063,,,,,,0,,,,,,,,,,,,,left,0,0.6503942644922063,,,,,,,1029,2019_Mar_06_1505,mf_amp_cond1,3.0.4,59.968457440273916,
tove,,&&&&,right,nonword,,,,,,,,,,,,,,,0,9,9,54,,,,,,,,,,,,,LDT,right,1.017180475173518,,,,,,1,,,,,,,,,,,,,right,1,1.017180475173518,,,,,,,1029,2019_Mar_06_1505,mf_amp_cond1,3.0.4,59.968457440273916,
else,,&&&&,left,neutral,,,,,,,,,,,,,,,0,10,10,46,,,,,,,,,,,,,LDT,left,0.5670406720601022,,,,,,1,,,,,,,,,,,,,left,1,0.5670406720601022,,,,,,,1029,2019_Mar_06_1505,mf_amp_cond1,3.0.4,59.968457440273916,
done,,&&&&,left,neutral,,,,,,,,,,,,,,,0,11,11,93,,,,,,,,,,,,,LDT,right,0.7170978569192812,,,,,,0,,,,,,,,,,,,,right,0,0.7170978569192812,,,,,,,1029,2019_Mar_06_1505,mf_amp_cond1,3.0.4,59.968457440273916,
tislay,,&&&&&&,right,nonword,,,,,,,,,,,,,,,0,12,12,175,,,,,,,,,,,,,LDT,left,1.1005282945698127,,,,,,0,,,,,,,,,,,,,left,0,1.1005282945698127,,,,,,,1029,2019_Mar_06_1505,mf_amp_cond1,3.0.4,59.968457440273916,
fighters,,&&&&&&&&,left,authority.vice,,,,,,,,,,,,,,,0,13,13,95,,,,,,,,,,,,,LDT,left,1.3839349342742935,,,,,,1,,,,,,,,,,,,,left,1,1.3839349342742935,,,,,,,1029,2019_Mar_06_1505,mf_amp_cond1,3.0.4,59.968457440273916,
also,,&&&&,left,neutral,,,,,,,,,,,,,,,0,14,14,19,,,,,,,,,,,,,LDT,right,0.6837596915429458,,,,,,0,,,,,,,,,,,,,right,0,0.6837596915429458,,,,,,,1029,2019_Mar_06_1505,mf_amp_cond1,3.0.4,59.968457440273916,
everything,,&&&&&&&&&&,left,neutral,,,,,,,,,,,,,,,0,15,15,111,,,,,,,,,,,,,LDT,left,0.6504292231984437,,,,,,1,,,,,,,,,,,,,left,1,0.6504292231984437,,,,,,,1029,2019_Mar_06_1505,mf_amp_cond1,3.0.4,59.968457440273916,
anyhow,,&&&&&&,left,neutral,,,,,,,,,,,,,,,0,16,16,97,,,,,,,,,,,,,LDT,left,0.7002778742462397,,,,,,1,,,,,,,,,,,,,left,1,0.7002778742462397,,,,,,,1029,2019_Mar_06_1505,mf_amp_cond1,3.0.4,59.968457440273916,
illegal,,&&&&&&&,left,fairness.vice,,,,,,,,,,,,,,,0,17,17,194,,,,,,,,,,,,,LDT,right,0.6504061311716214,,,,,,0,,,,,,,,,,,,,right,0,0.6504061311716214,,,,,,,1029,2019_Mar_06_1505,mf_amp_cond1,3.0.4,59.968457440273916,
intelligence,,&&&&&&&&&&&&,left,loyalty.virtue,,,,,,,,,,,,,,,0,18,18,139,,,,,,,,,,,,,LDT,left,0.7337671001441777,,,,,,1,,,,,,,,,,,,,left,1,0.7337671001441777,,,,,,,1029,2019_Mar_06_1505,mf_amp_cond1,3.0.4,59.968457440273916,
shot,,&&&&,left,care.vice,,,,,,,,,,,,,,,0,19,19,27,,,,,,,,,,,,,LDT,right,0.7004703077254817,,,,,,0,,,,,,,,,,,,,right,0,0.7004703077254817,,,,,,,1029,2019_Mar_06_1505,mf_amp_cond1,3.0.4,59.968457440273916,
army,,&&&&,left,loyalty.vice,,,,,,,,,,,,,,,0,20,20,155,,,,,,,,,,,,,LDT,left,0.4837005502777174,,,,,,1,,,,,,,,,,,,,left,1,0.4837005502777174,,,,,,,1029,2019_Mar_06_1505,mf_amp_cond1,3.0.4,59.968457440273916,
injured,,&&&&&&&,left,care.vice,,,,,,,,,,,,,,,0,21,21,159,,,,,,,,,,,,,LDT,left,0.7004132191650569,,,,,,1,,,,,,,,,,,,,left,1,0.7004132191650569,,,,,,,1029,2019_Mar_06_1505,mf_amp_cond1,3.0.4,59.968457440273916,
whereafter,,&&&&&&&&&&,left,neutral,,,,,,,,,,,,,,,0,22,22,138,,,,,,,,,,,,,LDT,left,2.3008257327601314,,,,,,1,,,,,,,,,,,,,left,1,2.3008257327601314,,,,,,,1029,2019_Mar_06_1505,mf_amp_cond1,3.0.4,59.968457440273916,
chared,,&&&&&&,right,nonword,,,,,,,,,,,,,,,0,23,23,187,,,,,,,,,,,,,LDT,right,0.4670486260438338,,,,,,1,,,,,,,,,,,,,right,1,0.4670486260438338,,,,,,,1029,2019_Mar_06_1505,mf_amp_cond1,3.0.4,59.968457440273916,
there,,&&&&&,left,neutral,,,,,,,,,,,,,,,0,24,24,21,,,,,,,,,,,,,LDT,right,1.1005148241529241,,,,,,0,,,,,,,,,,,,,right,0,1.1005148241529241,,,,,,,1029,2019_Mar_06_1505,mf_amp_cond1,3.0.4,59.968457440273916,
with,,&&&&,left,neutral,,,,,,,,,,,,,,,0,25,25,171,,,,,,,,,,,,,LDT,right,0.5503797677811235,,,,,,0,,,,,,,,,,,,,right,0,0.5503797677811235,,,,,,,1029,2019_Mar_06_1505,mf_amp_cond1,3.0.4,59.968457440273916,
either,,&&&&&&,left,neutral,,,,,,,,,,,,,,,0,26,26,64,,,,,,,,,,,,,LDT,right,0.7837674529291689,,,,,,0,,,,,,,,,,,,,right,0,0.7837674529291689,,,,,,,1029,2019_Mar_06_1505,mf_amp_cond1,3.0.4,59.968457440273916,
become,,&&&&&&,left,neutral,,,,,,,,,,,,,,,0,27,27,43,,,,,,,,,,,,,LDT,right,0.7004234823398292,,,,,,0,,,,,,,,,,,,,right,0,0.7004234823398292,,,,,,,1029,2019_Mar_06_1505,mf_amp_cond1,3.0.4,59.968457440273916,
gusinesslike,,&&&&&&&&&&&&,right,nonword,,,,,,,,,,,,,,,0,28,28,83,,,,,,,,,,,,,LDT,right,0.6003955152118579,,,,,,1,,,,,,,,,,,,,right,1,0.6003955152118579,,,,,,,1029,2019_Mar_06_1505,mf_amp_cond1,3.0.4,59.968457440273916,
peace,,&&&&&,left,care.virtue,,,,,,,,,,,,,,,0,29,29,123,,,,,,,,,,,,,LDT,right,0.8171168437693268,,,,,,0,,,,,,,,,,,,,right,0,0.8171168437693268,,,,,,,1029,2019_Mar_06_1505,mf_amp_cond1,3.0.4,59.968457440273916,
terrorist,,&&&&&&&&&,left,loyalty.vice,,,,,,,,,,,,,,,0,30,30,80,,,,,,,,,,,,,LDT,right,0.6003871764987707,,,,,,0,,,,,,,,,,,,,right,0,0.6003871764987707,,,,,,,1029,2019_Mar_06_1505,mf_amp_cond1,3.0.4,59.968457440273916,
eight,,&&&&&,left,neutral,,,,,,,,,,,,,,,0,31,31,96,,,,,,,,,,,,,LDT,right,0.5837281964486465,,,,,,0,,,,,,,,,,,,,right,0,0.5837281964486465,,,,,,,1029,2019_Mar_06_1505,mf_amp_cond1,3.0.4,59.968457440273916,
party,,&&&&&,left,loyalty.virtue,,,,,,,,,,,,,,,0,32,32,193,,,,,,,,,,,,,LDT,right,0.5170419228961691,,,,,,0,,,,,,,,,,,,,right,0,0.5170419228961691,,,,,,,1029,2019_Mar_06_1505,mf_amp_cond1,3.0.4,59.968457440273916,
rorroborated,,&&&&&&&&&&&&,right,nonword,,,,,,,,,,,,,,,0,33,33,120,,,,,,,,,,,,,LDT,right,0.8838044001022354,,,,,,1,,,,,,,,,,,,,right,1,0.8838044001022354,,,,,,,1029,2019_Mar_06_1505,mf_amp_cond1,3.0.4,59.968457440273916,
amoungst,,&&&&&&&&,left,neutral,,,,,,,,,,,,,,,0,34,34,172,,,,,,,,,,,,,LDT,right,0.9004518341971561,,,,,,0,,,,,,,,,,,,,right,0,0.9004518341971561,,,,,,,1029,2019_Mar_06_1505,mf_amp_cond1,3.0.4,59.968457440273916,
simplustic,,&&&&&&&&&&,right,nonword,,,,,,,,,,,,,,,0,35,35,164,,,,,,,,,,,,,LDT,left,0.6337330393726006,,,,,,0,,,,,,,,,,,,,left,0,0.6337330393726006,,,,,,,1029,2019_Mar_06_1505,mf_amp_cond1,3.0.4,59.968457440273916,
gazily,,&&&&&&,right,nonword,,,,,,,,,,,,,,,0,36,36,28,,,,,,,,,,,,,LDT,right,1.1839293537195772,,,,,,1,,,,,,,,,,,,,right,1,1.1839293537195772,,,,,,,1029,2019_Mar_06_1505,mf_amp_cond1,3.0.4,59.968457440273916,
powerful,,&&&&&&&&,left,authority.virtue,,,,,,,,,,,,,,,0,37,37,158,,,,,,,,,,,,,LDT,right,0.6504067726200446,,,,,,0,,,,,,,,,,,,,right,0,0.6504067726200446,,,,,,,1029,2019_Mar_06_1505,mf_amp_cond1,3.0.4,59.968457440273916,
friends,,&&&&&&&,left,loyalty.virtue,,,,,,,,,,,,,,,0,38,38,142,,,,,,,,,,,,,LDT,right,0.6837738032918423,,,,,,0,,,,,,,,,,,,,right,0,0.6837738032918423,,,,,,,1029,2019_Mar_06_1505,mf_amp_cond1,3.0.4,59.968457440273916,
nomaric,,&&&&&&&,None,nonword,,,,,,,,,,,,,,,0,39,39,90,,,,,,,,,,,,,LDT,right,0.6670997492037714,,,,,,0,,,,,,,,,,,,,right,0,0.6670997492037714,,,,,,,1029,2019_Mar_06_1505,mf_amp_cond1,3.0.4,59.968457440273916,
serial,,&&&&&&,left,sanctity.vice,,,,,,,,,,,,,,,0,40,40,125,,,,,,,,,,,,,LDT,right,0.9171278125140816,,,,,,0,,,,,,,,,,,,,right,0,0.9171278125140816,,,,,,,1029,2019_Mar_06_1505,mf_amp_cond1,3.0.4,59.968457440273916,
brudent,,&&&&&&&,right,nonword,,,,,,,,,,,,,,,0,41,41,173,,,,,,,,,,,,,LDT,right,1.383942310931161,,,,,,1,,,,,,,,,,,,,right,1,1.383942310931161,,,,,,,1029,2019_Mar_06_1505,mf_amp_cond1,3.0.4,59.968457440273916,
viscs,,&&&&&,None,nonword,,,,,,,,,,,,,,,0,42,42,168,,,,,,,,,,,,,LDT,right,0.867108537000604,,,,,,0,,,,,,,,,,,,,right,0,0.867108537000604,,,,,,,1029,2019_Mar_06_1505,mf_amp_cond1,3.0.4,59.968457440273916,
mightingale,,&&&&&&&&&&&,right,nonword,,,,,,,,,,,,,,,0,43,43,73,,,,,,,,,,,,,LDT,right,1.133866780786775,,,,,,1,,,,,,,,,,,,,right,1,1.133866780786775,,,,,,,1029,2019_Mar_06_1505,mf_amp_cond1,3.0.4,59.968457440273916,
sidearbs,,&&&&&&&&,right,nonword,,,,,,,,,,,,,,,0,44,44,198,,,,,,,,,,,,,LDT,right,2.0341014857403934,,,,,,1,,,,,,,,,,,,,right,1,2.0341014857403934,,,,,,,1029,2019_Mar_06_1505,mf_amp_cond1,3.0.4,59.968457440273916,
totalestic,,&&&&&&&&&&,None,nonword,,,,,,,,,,,,,,,0,45,45,0,,,,,,,,,,,,,LDT,right,0.9504765619058162,,,,,,0,,,,,,,,,,,,,right,0,0.9504765619058162,,,,,,,1029,2019_Mar_06_1505,mf_amp_cond1,3.0.4,59.968457440273916,
frojecting,,&&&&&&&&&&,right,nonword,,,,,,,,,,,,,,,0,46,46,144,,,,,,,,,,,,,LDT,right,1.0838449394796044,,,,,,1,,,,,,,,,,,,,right,1,1.0838449394796044,,,,,,,1029,2019_Mar_06_1505,mf_amp_cond1,3.0.4,59.968457440273916,
refused,,&&&&&&&,left,authority.vice,,,,,,,,,,,,,,,0,47,47,31,,,,,,,,,,,,,LDT,right,1.5173071606550366,,,,,,0,,,,,,,,,,,,,right,0,1.5173071606550366,,,,,,,1029,2019_Mar_06_1505,mf_amp_cond1,3.0.4,59.968457440273916,
war,,&&&,left,sanctity.vice,,,,,,,,,,,,,,,0,48,48,17,,,,,,,,,,,,,LDT,right,0.5337195048341528,,,,,,0,,,,,,,,,,,,,right,0,0.5337195048341528,,,,,,,1029,2019_Mar_06_1505,mf_amp_cond1,3.0.4,59.968457440273916,
towards,,&&&&&&&,left,neutral,,,,,,,,,,,,,,,0,49,49,39,,,,,,,,,,,,,LDT,right,0.7004167471313849,,,,,,0,,,,,,,,,,,,,right,0,0.7004167471313849,,,,,,,1029,2019_Mar_06_1505,mf_amp_cond1,3.0.4,59.968457440273916,
mostly,,&&&&&&,left,neutral,,,,,,,,,,,,,,,0,50,50,192,,,,,,,,,,,,,LDT,right,0.7670911538880318,,,,,,0,,,,,,,,,,,,,right,0,0.7670911538880318,,,,,,,1029,2019_Mar_06_1505,mf_amp_cond1,3.0.4,59.968457440273916,
critics,,&&&&&&&,left,loyalty.vice,,,,,,,,,,,,,,,0,51,51,66,,,,,,,,,,,,,LDT,right,1.8173410289455205,,,,,,0,,,,,,,,,,,,,right,0,1.8173410289455205,,,,,,,1029,2019_Mar_06_1505,mf_amp_cond1,3.0.4,59.968457440273916,
help,,&&&&,left,care.virtue,,,,,,,,,,,,,,,0,52,52,179,,,,,,,,,,,,,LDT,right,0.400292755686678,,,,,,0,,,,,,,,,,,,,right,0,0.400292755686678,,,,,,,1029,2019_Mar_06_1505,mf_amp_cond1,3.0.4,59.968457440273916,
front,,&&&&&,left,neutral,,,,,,,,,,,,,,,0,53,53,48,,,,,,,,,,,,,LDT,right,0.5337076380383223,,,,,,0,,,,,,,,,,,,,right,0,0.5337076380383223,,,,,,,1029,2019_Mar_06_1505,mf_amp_cond1,3.0.4,59.968457440273916,
perified,,&&&&&&&&,right,nonword,,,,,,,,,,,,,,,0,54,54,101,,,,,,,,,,,,,LDT,right,0.6670814681565389,,,,,,1,,,,,,,,,,,,,right,1,0.6670814681565389,,,,,,,1029,2019_Mar_06_1505,mf_amp_cond1,3.0.4,59.968457440273916,
wherever,,&&&&&&&&,left,neutral,,,,,,,,,,,,,,,0,55,55,131,,,,,,,,,,,,,LDT,right,0.5837201783433557,,,,,,0,,,,,,,,,,,,,right,0,0.5837201783433557,,,,,,,1029,2019_Mar_06_1505,mf_amp_cond1,3.0.4,59.968457440273916,
gedious,,&&&&&&&,right,nonword,,,,,,,,,,,,,,,0,56,56,129,,,,,,,,,,,,,LDT,right,0.7504289665957913,,,,,,1,,,,,,,,,,,,,right,1,0.7504289665957913,,,,,,,1029,2019_Mar_06_1505,mf_amp_cond1,3.0.4,59.968457440273916,
could,,&&&&&,left,neutral,,,,,,,,,,,,,,,0,57,57,5,,,,,,,,,,,,,LDT,right,0.41707457252778113,,,,,,0,,,,,,,,,,,,,right,0,0.41707457252778113,,,,,,,1029,2019_Mar_06_1505,mf_amp_cond1,3.0.4,59.968457440273916,
gaultless,,&&&&&&&&&,right,nonword,,,,,,,,,,,,,,,0,58,58,55,,,,,,,,,,,,,LDT,right,0.8671450994443148,,,,,,1,,,,,,,,,,,,,right,1,0.8671450994443148,,,,,,,1029,2019_Mar_06_1505,mf_amp_cond1,3.0.4,59.968457440273916,
squets,,&&&&&&,right,nonword,,,,,,,,,,,,,,,0,59,59,151,,,,,,,,,,,,,LDT,right,1.033819891163148,,,,,,1,,,,,,,,,,,,,right,1,1.033819891163148,,,,,,,1029,2019_Mar_06_1505,mf_amp_cond1,3.0.4,59.968457440273916,
framatic,,&&&&&&&&,right,nonword,,,,,,,,,,,,,,,0,60,60,195,,,,,,,,,,,,,LDT,right,0.8004466384882107,,,,,,1,,,,,,,,,,,,,right,1,0.8004466384882107,,,,,,,1029,2019_Mar_06_1505,mf_amp_cond1,3.0.4,59.968457440273916,
rivernoat,,&&&&&&&&&,right,nonword,,,,,,,,,,,,,,,0,61,61,181,,,,,,,,,,,,,LDT,left,1.1672113607637584,,,,,,0,,,,,,,,,,,,,left,0,1.1672113607637584,,,,,,,1029,2019_Mar_06_1505,mf_amp_cond1,3.0.4,59.968457440273916,
gillipede,,&&&&&&&&&,None,nonword,,,,,,,,,,,,,,,0,62,62,100,,,,,,,,,,,,,LDT,left,0.4170322371646762,,,,,,0,,,,,,,,,,,,,left,0,0.4170322371646762,,,,,,,1029,2019_Mar_06_1505,mf_amp_cond1,3.0.4,59.968457440273916,
latter,,&&&&&&,left,neutral,,,,,,,,,,,,,,,0,63,63,167,,,,,,,,,,,,,LDT,right,0.683751352597028,,,,,,0,,,,,,,,,,,,,right,0,0.683751352597028,,,,,,,1029,2019_Mar_06_1505,mf_amp_cond1,3.0.4,59.968457440273916,
stindig,,&&&&&&&,right,nonword,,,,,,,,,,,,,,,0,64,64,124,,,,,,,,,,,,,LDT,right,0.6337416989263147,,,,,,1,,,,,,,,,,,,,right,1,0.6337416989263147,,,,,,,1029,2019_Mar_06_1505,mf_amp_cond1,3.0.4,59.968457440273916,
crinking,,&&&&&&&&,right,nonword,,,,,,,,,,,,,,,0,65,65,196,,,,,,,,,,,,,LDT,right,0.6337439438793808,,,,,,1,,,,,,,,,,,,,right,1,0.6337439438793808,,,,,,,1029,2019_Mar_06_1505,mf_amp_cond1,3.0.4,59.968457440273916,
lorthwhile,,&&&&&&&&&&,right,nonword,,,,,,,,,,,,,,,0,66,66,44,,,,,,,,,,,,,LDT,right,0.6504090176895261,,,,,,1,,,,,,,,,,,,,right,1,0.6504090176895261,,,,,,,1029,2019_Mar_06_1505,mf_amp_cond1,3.0.4,59.968457440273916,
disregord,,&&&&&&&&&,right,nonword,,,,,,,,,,,,,,,0,67,67,60,,,,,,,,,,,,,LDT,right,0.6337275870610029,,,,,,1,,,,,,,,,,,,,right,1,0.6337275870610029,,,,,,,1029,2019_Mar_06_1505,mf_amp_cond1,3.0.4,59.968457440273916,
love,,&&&&,left,loyalty.virtue,,,,,,,,,,,,,,,0,68,68,186,,,,,,,,,,,,,LDT,right,1.0005009688902646,,,,,,0,,,,,,,,,,,,,right,0,1.0005009688902646,,,,,,,1029,2019_Mar_06_1505,mf_amp_cond1,3.0.4,59.968457440273916,
troubla,,&&&&&&&,right,nonword,,,,,,,,,,,,,,,0,69,69,166,,,,,,,,,,,,,LDT,left,0.4170024099294096,,,,,,0,,,,,,,,,,,,,left,0,0.4170024099294096,,,,,,,1029,2019_Mar_06_1505,mf_amp_cond1,3.0.4,59.968457440273916,
perfect,,&&&&&&&,left,sanctity.virtue,,,,,,,,,,,,,,,0,70,70,104,,,,,,,,,,,,,LDT,right,0.7504334567347541,,,,,,0,,,,,,,,,,,,,right,0,0.7504334567347541,,,,,,,1029,2019_Mar_06_1505,mf_amp_cond1,3.0.4,59.968457440273916,
integrity,,&&&&&&&&&,left,fairness.virtue,,,,,,,,,,,,,,,0,71,71,75,,,,,,,,,,,,,LDT,right,0.833728036028333,,,,,,0,,,,,,,,,,,,,right,0,0.833728036028333,,,,,,,1029,2019_Mar_06_1505,mf_amp_cond1,3.0.4,59.968457440273916,
aubos,,&&&&&,right,nonword,,,,,,,,,,,,,,,0,72,72,85,,,,,,,,,,,,,LDT,right,1.1505616817157716,,,,,,1,,,,,,,,,,,,,right,1,1.1505616817157716,,,,,,,1029,2019_Mar_06_1505,mf_amp_cond1,3.0.4,59.968457440273916,
ejanulated,,&&&&&&&&&&,right,nonword,,,,,,,,,,,,,,,0,73,73,52,,,,,,,,,,,,,LDT,right,0.7671196982264519,,,,,,1,,,,,,,,,,,,,right,1,0.7671196982264519,,,,,,,1029,2019_Mar_06_1505,mf_amp_cond1,3.0.4,59.968457440273916,
victim,,&&&&&&,left,care.vice,,,,,,,,,,,,,,,0,74,74,2,,,,,,,,,,,,,LDT,right,0.8337880112230778,,,,,,0,,,,,,,,,,,,,right,0,0.8337880112230778,,,,,,,1029,2019_Mar_06_1505,mf_amp_cond1,3.0.4,59.968457440273916,
blunderints,,&&&&&&&&&&&,right,nonword,,,,,,,,,,,,,,,0,75,75,119,,,,,,,,,,,,,LDT,left,0.9838089544791728,,,,,,0,,,,,,,,,,,,,left,0,0.9838089544791728,,,,,,,1029,2019_Mar_06_1505,mf_amp_cond1,3.0.4,59.968457440273916,
lempestuous,,&&&&&&&&&&&,right,nonword,,,,,,,,,,,,,,,0,76,76,72,,,,,,,,,,,,,LDT,left,0.4670290619833395,,,,,,0,,,,,,,,,,,,,left,0,0.4670290619833395,,,,,,,1029,2019_Mar_06_1505,mf_amp_cond1,3.0.4,59.968457440273916,
frocessing,,&&&&&&&&&&,right,nonword,,,,,,,,,,,,,,,0,77,77,56,,,,,,,,,,,,,LDT,left,0.7170815001009032,,,,,,0,,,,,,,,,,,,,left,0,0.7170815001009032,,,,,,,1029,2019_Mar_06_1505,mf_amp_cond1,3.0.4,59.968457440273916,
neutralust,,&&&&&&&&&&,right,nonword,,,,,,,,,,,,,,,0,78,78,51,,,,,,,,,,,,,LDT,left,1.2505681603215635,,,,,,0,,,,,,,,,,,,,left,0,1.2505681603215635,,,,,,,1029,2019_Mar_06_1505,mf_amp_cond1,3.0.4,59.968457440273916,
brotesque,,&&&&&&&&&,right,nonword,,,,,,,,,,,,,,,0,79,79,174,,,,,,,,,,,,,LDT,right,0.9338265620172024,,,,,,1,,,,,,,,,,,,,right,1,0.9338265620172024,,,,,,,1029,2019_Mar_06_1505,mf_amp_cond1,3.0.4,59.968457440273916,
scandal,,&&&&&&&,left,sanctity.vice,,,,,,,,,,,,,,,0,80,80,81,,,,,,,,,,,,,LDT,left,2.56758654222358,,,,,,1,,,,,,,,,,,,,left,1,2.56758654222358,,,,,,,1029,2019_Mar_06_1505,mf_amp_cond1,3.0.4,59.968457440273916,
imebreaker,,&&&&&&&&&&,right,nonword,,,,,,,,,,,,,,,0,81,81,87,,,,,,,,,,,,,LDT,right,0.41700978646986187,,,,,,1,,,,,,,,,,,,,right,1,0.41700978646986187,,,,,,,1029,2019_Mar_06_1505,mf_amp_cond1,3.0.4,59.968457440273916,
itself,,&&&&&&,left,neutral,,,,,,,,,,,,,,,0,82,82,132,,,,,,,,,,,,,LDT,left,1.2672248953022063,,,,,,1,,,,,,,,,,,,,left,1,1.2672248953022063,,,,,,,1029,2019_Mar_06_1505,mf_amp_cond1,3.0.4,59.968457440273916,
whither,,&&&&&&&,left,neutral,,,,,,,,,,,,,,,0,83,83,103,,,,,,,,,,,,,LDT,left,1.2673246399499476,,,,,,1,,,,,,,,,,,,,left,1,1.2673246399499476,,,,,,,1029,2019_Mar_06_1505,mf_amp_cond1,3.0.4,59.968457440273916,
emports,,&&&&&&&,right,nonword,,,,,,,,,,,,,,,0,84,84,140,,,,,,,,,,,,,LDT,left,0.5170377535978332,,,,,,0,,,,,,,,,,,,,left,0,0.5170377535978332,,,,,,,1029,2019_Mar_06_1505,mf_amp_cond1,3.0.4,59.968457440273916,
fifty,,&&&&&,left,neutral,,,,,,,,,,,,,,,0,85,85,133,,,,,,,,,,,,,LDT,right,1.2338841638993472,,,,,,0,,,,,,,,,,,,,right,0,1.2338841638993472,,,,,,,1029,2019_Mar_06_1505,mf_amp_cond1,3.0.4,59.968457440273916,
erks,,&&&&,right,nonword,,,,,,,,,,,,,,,0,86,86,148,,,,,,,,,,,,,LDT,right,0.4836999087128788,,,,,,1,,,,,,,,,,,,,right,1,0.4836999087128788,,,,,,,1029,2019_Mar_06_1505,mf_amp_cond1,3.0.4,59.968457440273916,
allears,,&&&&&&&,right,nonword,,,,,,,,,,,,,,,0,87,87,11,,,,,,,,,,,,,LDT,left,0.7671190567780286,,,,,,0,,,,,,,,,,,,,left,0,0.7671190567780286,,,,,,,1029,2019_Mar_06_1505,mf_amp_cond1,3.0.4,59.968457440273916,
infet,,&&&&&,right,nonword,,,,,,,,,,,,,,,0,88,88,84,,,,,,,,,,,,,LDT,right,0.600390383740887,,,,,,1,,,,,,,,,,,,,right,1,0.600390383740887,,,,,,,1029,2019_Mar_06_1505,mf_amp_cond1,3.0.4,59.968457440273916,
gowlands,,&&&&&&&&,right,nonword,,,,,,,,,,,,,,,0,89,89,165,,,,,,,,,,,,,LDT,left,0.6004009676398709,,,,,,0,,,,,,,,,,,,,left,0,0.6004009676398709,,,,,,,1029,2019_Mar_06_1505,mf_amp_cond1,3.0.4,59.968457440273916,
noone,,&&&&&,left,neutral,,,,,,,,,,,,,,,0,90,90,141,,,,,,,,,,,,,LDT,right,1.2005431118886918,,,,,,0,,,,,,,,,,,,,right,0,1.2005431118886918,,,,,,,1029,2019_Mar_06_1505,mf_amp_cond1,3.0.4,59.968457440273916,
sowntrodden,,&&&&&&&&&&&,right,nonword,,,,,,,,,,,,,,,0,91,91,188,,,,,,,,,,,,,LDT,left,0.6337506790878251,,,,,,0,,,,,,,,,,,,,left,0,0.6337506790878251,,,,,,,1029,2019_Mar_06_1505,mf_amp_cond1,3.0.4,59.968457440273916,
free,,&&&&,left,fairness.virtue,,,,,,,,,,,,,,,0,92,92,12,,,,,,,,,,,,,LDT,right,0.667096541961655,,,,,,0,,,,,,,,,,,,,right,0,0.667096541961655,,,,,,,1029,2019_Mar_06_1505,mf_amp_cond1,3.0.4,59.968457440273916,
suicide,,&&&&&&&,left,care.vice,,,,,,,,,,,,,,,0,93,93,126,,,,,,,,,,,,,LDT,left,0.700419312925078,,,,,,1,,,,,,,,,,,,,left,1,0.700419312925078,,,,,,,1029,2019_Mar_06_1505,mf_amp_cond1,3.0.4,59.968457440273916,
toward,,&&&&&&,left,neutral,,,,,,,,,,,,,,,0,94,94,9,,,,,,,,,,,,,LDT,right,0.8837944577680901,,,,,,0,,,,,,,,,,,,,right,0,0.8837944577680901,,,,,,,1029,2019_Mar_06_1505,mf_amp_cond1,3.0.4,59.968457440273916,
glacenta,,&&&&&&&&,right,nonword,,,,,,,,,,,,,,,0,95,95,20,,,,,,,,,,,,,LDT,left,0.8504578957799822,,,,,,0,,,,,,,,,,,,,left,0,0.8504578957799822,,,,,,,1029,2019_Mar_06_1505,mf_amp_cond1,3.0.4,59.968457440273916,
great,,&&&&&,left,loyalty.virtue,,,,,,,,,,,,,,,0,96,96,6,,,,,,,,,,,,,LDT,right,0.6837471832986921,,,,,,0,,,,,,,,,,,,,right,0,0.6837471832986921,,,,,,,1029,2019_Mar_06_1505,mf_amp_cond1,3.0.4,59.968457440273916,
besides,,&&&&&&&,left,neutral,,,,,,,,,,,,,,,0,97,97,190,,,,,,,,,,,,,LDT,right,1.033839775947854,,,,,,0,,,,,,,,,,,,,right,0,1.033839775947854,,,,,,,1029,2019_Mar_06_1505,mf_amp_cond1,3.0.4,59.968457440273916,
hence,,&&&&&,left,neutral,,,,,,,,,,,,,,,0,98,98,176,,,,,,,,,,,,,LDT,right,0.8337835210841149,,,,,,0,,,,,,,,,,,,,right,0,0.8337835210841149,,,,,,,1029,2019_Mar_06_1505,mf_amp_cond1,3.0.4,59.968457440273916,
strength,,&&&&&&&&,left,sanctity.virtue,,,,,,,,,,,,,,,0,99,99,62,,,,,,,,,,,,,LDT,right,0.8837242195149884,,,,,,0,,,,,,,,,,,,,right,0,0.8837242195149884,,,,,,,1029,2019_Mar_06_1505,mf_amp_cond1,3.0.4,59.968457440273916,
somehow,,&&&&&&&,left,neutral,,,,,,,,,,,,,,,0,100,100,105,,,,,,,,,,,,,LDT,right,1.3005922465818003,,,,,,0,,,,,,,,,,,,,right,0,1.3005922465818003,,,,,,,1029,2019_Mar_06_1505,mf_amp_cond1,3.0.4,59.968457440273916,
fontacts,,&&&&&&&&,right,nonword,,,,,,,,,,,,,,,0,101,101,118,,,,,,,,,,,,,LDT,left,0.6837587292538956,,,,,,0,,,,,,,,,,,,,left,0,0.6837587292538956,,,,,,,1029,2019_Mar_06_1505,mf_amp_cond1,3.0.4,59.968457440273916,
nackers,,&&&&&&&,right,nonword,,,,,,,,,,,,,,,0,102,102,180,,,,,,,,,,,,,LDT,right,0.3336558735463768,,,,,,1,,,,,,,,,,,,,right,1,0.3336558735463768,,,,,,,1029,2019_Mar_06_1505,mf_amp_cond1,3.0.4,59.968457440273916,
three,,&&&&&,left,neutral,,,,,,,,,,,,,,,0,103,103,76,,,,,,,,,,,,,LDT,left,0.3336545906495303,,,,,,1,,,,,,,,,,,,,left,1,0.3336545906495303,,,,,,,1029,2019_Mar_06_1505,mf_amp_cond1,3.0.4,59.968457440273916,
police,,&&&&&&,left,authority.vice,,,,,,,,,,,,,,,0,104,104,110,,,,,,,,,,,,,LDT,left,0.3503357005538419,,,,,,1,,,,,,,,,,,,,left,1,0.3503357005538419,,,,,,,1029,2019_Mar_06_1505,mf_amp_cond1,3.0.4,59.968457440273916,
trust,,&&&&&,left,authority.virtue,,,,,,,,,,,,,,,0,105,105,92,,,,,,,,,,,,,LDT,left,0.5837124810786918,,,,,,1,,,,,,,,,,,,,left,1,0.5837124810786918,,,,,,,1029,2019_Mar_06_1505,mf_amp_cond1,3.0.4,59.968457440273916,
vicissifude,,&&&&&&&&&&&,right,nonword,,,,,,,,,,,,,,,0,106,106,197,,,,,,,,,,,,,LDT,left,0.9005698601249605,,,,,,0,,,,,,,,,,,,,left,0,0.9005698601249605,,,,,,,1029,2019_Mar_06_1505,mf_amp_cond1,3.0.4,59.968457440273916,
bycled,,&&&&&&,None,nonword,,,,,,,,,,,,,,,0,107,107,112,,,,,,,,,,,,,LDT,left,0.36700205702800304,,,,,,0,,,,,,,,,,,,,left,0,0.36700205702800304,,,,,,,1029,2019_Mar_06_1505,mf_amp_cond1,3.0.4,59.968457440273916,
