words,nonwords,mask,corr_ans,category,tweets,topic,AMP_prac_loop.thisRepN,AMP_prac_loop.thisTrialN,AMP_prac_loop.thisN,AMP_prac_loop.thisIndex,AMP_trials.thisRepN,AMP_trials.thisTrialN,AMP_trials.thisN,AMP_trials.thisIndex,LDT_prac_loop.thisRepN,LDT_prac_loop.thisTrialN,LDT_prac_loop.thisN,LDT_prac_loop.thisIndex,LDT_loop.thisRepN,LDT_loop.thisTrialN,LDT_loop.thisN,LDT_loop.thisIndex,tweet_loop.thisRepN,tweet_loop.thisTrialN,tweet_loop.thisN,tweet_loop.thisIndex,begin_key.keys,begin_key.rt,key_resp_AMP_instr1.keys,key_resp_AMP_instr1.rt,resp_AMP_ready1.keys,resp_AMP_ready1.rt,resp_AMP_prac.keys,resp_AMP_prac.rt,task,keypress,RT,resp_AMP_ready.keys,resp_AMP_ready.rt,resp_AMP.keys,resp_AMP.corr,resp_AMP.rt,corr,AMP_nonword_rating.response,AMP_nonword_rating.rt,AMP_word_rating.response,AMP_word_rating.rt,AMP_random_rating.response,AMP_random_rating.rt,key_resp_LDT_instr.keys,key_resp_LDT_instr.rt,resp_LDT_prac.keys,resp_LDT_prac.rt,resp_LDT_ready.keys,resp_LDT_ready.rt,resp_LDT.keys,resp_LDT.corr,resp_LDT.rt,LDT_rating.response,LDT_rating.rt,key_resp_LDT_instr_2.keys,key_resp_LDT_instr_2.rt,resp_tweets.keys,resp_tweets.rt,participant,date,expName,psychopyVersion,frameRate,
,,,,,,,,,,,,,,,,,,,,,,,,,,,right,441.68850863289373,,,,,,,,,,,,,,,,,,,,,,,,,,,,,,,,,,,,,1031,2019_Mar_07_1359,mf_amp_cond1,3.0.4,59.985070865292094,
,,,,,,,,,,,,,,,,,,,,,,,,,,,,,right,1.7173528315647673,,,,,,,,,,,,,,,,,,,,,,,,,,,,,,,,,,,1031,2019_Mar_07_1359,mf_amp_cond1,3.0.4,59.985070865292094,
,,,,,,,,,,,,,,,,,,,,,,,,,,,,,,,right,2.8343005261776852,,,,,,,,,,,,,,,,,,,,,,,,,,,,,,,,,1031,2019_Mar_07_1359,mf_amp_cond1,3.0.4,59.985070865292094,
car,cemtuper,&&&&&&&&,,,,,0,0,0,0,,,,,,,,,,,,,,,,,,,,,,,left,4.1346535136137845,AMP_prac,left,4.1346535136137845,,,,,,,,,,,,,,,,,,,,,,,,,,,,1031,2019_Mar_07_1359,mf_amp_cond1,3.0.4,59.985070865292094,
keyboard,senk,&&&&,,,,,0,1,1,2,,,,,,,,,,,,,,,,,,,,,,,left,3.584602165904812,AMP_prac,left,3.584602165904812,,,,,,,,,,,,,,,,,,,,,,,,,,,,1031,2019_Mar_07_1359,mf_amp_cond1,3.0.4,59.985070865292094,
scarf,bisebell,&&&&&&&&,,,,,0,2,2,3,,,,,,,,,,,,,,,,,,,,,,,right,1.8173708561821513,AMP_prac,right,1.8173708561821513,,,,,,,,,,,,,,,,,,,,,,,,,,,,1031,2019_Mar_07_1359,mf_amp_cond1,3.0.4,59.985070865292094,
banana,kacket,&&&&&&,,,,,0,3,3,1,,,,,,,,,,,,,,,,,,,,,,,right,1.2505623873059903,AMP_prac,right,1.2505623873059903,,,,,,,,,,,,,,,,,,,,,,,,,,,,1031,2019_Mar_07_1359,mf_amp_cond1,3.0.4,59.985070865292094,
,,,,,,,,,,,,,,,,,,,,,,,,,,,,,,,,,,,,,,right,2.067459536016827,,,,,,,,,,,,,,,,,,,,,,,,,,1031,2019_Mar_07_1359,mf_amp_cond1,3.0.4,59.985070865292094,
free,asn,&&&,left,fairness.virtue,,,,,,,0,0,0,0,,,,,,,,,,,,,,,,,,,,,AMP,left,2.06742650157571,,,left,1,2.06742650157571,1,,,,,,,,,,,,,,,,,,,,,,1031,2019_Mar_07_1359,mf_amp_cond1,3.0.4,59.985070865292094,
betrayal,epigrach,&&&&&&&&,right,loyalty.vice,,,,,,,0,1,1,1,,,,,,,,,,,,,,,,,,,,,AMP,left,1.35057592180533,,,left,0,1.35057592180533,0,,,,,,,,,,,,,,,,,,,,,,1031,2019_Mar_07_1359,mf_amp_cond1,3.0.4,59.985070865292094,
support,emports,&&&&&&&,left,loyalty.virtue,,,,,,,0,2,2,2,,,,,,,,,,,,,,,,,,,,,AMP,right,1.4670511918377542,,,right,0,1.4670511918377542,0,,,,,,,,,,,,,,,,,,,,,,1031,2019_Mar_07_1359,mf_amp_cond1,3.0.4,59.985070865292094,
promises,lempestuous,&&&&&&&&&&&,left,fairness.virtue,,,,,,,0,3,3,3,,,,,,,,,,,,,,,,,,,,,AMP,left,1.233870052130328,,,left,1,1.233870052130328,1,,,,,,,,,,,,,,,,,,,,,,1031,2019_Mar_07_1359,mf_amp_cond1,3.0.4,59.985070865292094,
unpleasant,abointment,&&&&&&&&&&,None,control,,,,,,,0,4,4,4,,,,,,,,,,,,,,,,,,,,,AMP,left,2.0674290673575797,,,left,0,2.0674290673575797,0,,,,,,,,,,,,,,,,,,,,,,1031,2019_Mar_07_1359,mf_amp_cond1,3.0.4,59.985070865292094,
hatigue,troubla,&&&&&&&,None,nonword,,,,,,,0,5,5,5,,,,,,,,,,,,,,,,,,,,,AMP,left,1.467276018471125,,,left,0,1.467276018471125,0,,,,,,,,,,,,,,,,,,,,,,1031,2019_Mar_07_1359,mf_amp_cond1,3.0.4,59.985070865292094,
actively,gowlands,&&&&&&&&,left,authority.virtue,,,,,,,0,6,6,6,,,,,,,,,,,,,,,,,,,,,AMP,left,1.6506710481668279,,,left,1,1.6506710481668279,1,,,,,,,,,,,,,,,,,,,,,,1031,2019_Mar_07_1359,mf_amp_cond1,3.0.4,59.985070865292094,
blamed,galamitous,&&&&&&&&&&,right,loyalty.vice,,,,,,,0,7,7,7,,,,,,,,,,,,,,,,,,,,,AMP,left,1.0004887814396852,,,left,0,1.0004887814396852,0,,,,,,,,,,,,,,,,,,,,,,1031,2019_Mar_07_1359,mf_amp_cond1,3.0.4,59.985070865292094,
officers,ammessment,&&&&&&&&&&,right,authority.vice,,,,,,,0,8,8,8,,,,,,,,,,,,,,,,,,,,,AMP,left,1.8674003947454594,,,left,0,1.8674003947454594,0,,,,,,,,,,,,,,,,,,,,,,1031,2019_Mar_07_1359,mf_amp_cond1,3.0.4,59.985070865292094,
care,gazily,&&&&&&,left,care.virtue,,,,,,,0,9,9,9,,,,,,,,,,,,,,,,,,,,,AMP,left,3.2010690971462736,,,left,1,3.2010690971462736,1,,,,,,,,,,,,,,,,,,,,,,1031,2019_Mar_07_1359,mf_amp_cond1,3.0.4,59.985070865292094,
charges,tabin,&&&&&,right,fairness.vice,,,,,,,0,10,10,10,,,,,,,,,,,,,,,,,,,,,AMP,right,1.5506228756128166,,,right,1,1.5506228756128166,1,,,,,,,,,,,,,,,,,,,,,,1031,2019_Mar_07_1359,mf_amp_cond1,3.0.4,59.985070865292094,
violations,honstables,&&&&&&&&&&,right,sanctity.vice,,,,,,,0,11,11,11,,,,,,,,,,,,,,,,,,,,,AMP,left,0.8838044001875005,,,left,0,0.8838044001875005,0,,,,,,,,,,,,,,,,,,,,,,1031,2019_Mar_07_1359,mf_amp_cond1,3.0.4,59.985070865292094,
praised,Phintoism,&&&&&&&&&,left,loyalty.virtue,,,,,,,0,12,12,12,,,,,,,,,,,,,,,,,,,,,AMP,right,0.7670911538898508,,,right,0,0.7670911538898508,0,,,,,,,,,,,,,,,,,,,,,,1031,2019_Mar_07_1359,mf_amp_cond1,3.0.4,59.985070865292094,
promised,vicissifude,&&&&&&&&&&&,left,loyalty.virtue,,,,,,,0,13,13,13,,,,,,,,,,,,,,,,,,,,,AMP,left,2.03408512879264,,,left,1,2.03408512879264,1,,,,,,,,,,,,,,,,,,,,,,1031,2019_Mar_07_1359,mf_amp_cond1,3.0.4,59.985070865292094,
useful,suggists,&&&&&&&&,left,authority.virtue,,,,,,,0,14,14,14,,,,,,,,,,,,,,,,,,,,,AMP,right,2.367514892759914,,,right,0,2.367514892759914,0,,,,,,,,,,,,,,,,,,,,,,1031,2019_Mar_07_1359,mf_amp_cond1,3.0.4,59.985070865292094,
faith,juck,&&&&,left,sanctity.virtue,,,,,,,0,15,15,15,,,,,,,,,,,,,,,,,,,,,AMP,right,1.6004926942569,,,right,0,1.6004926942569,0,,,,,,,,,,,,,,,,,,,,,,1031,2019_Mar_07_1359,mf_amp_cond1,3.0.4,59.985070865292094,
energy,ugeasily,&&&&&&&&,left,sanctity.virtue,,,,,,,0,16,16,16,,,,,,,,,,,,,,,,,,,,,AMP,left,1.1671956453550365,,,left,1,1.1671956453550365,1,,,,,,,,,,,,,,,,,,,,,,1031,2019_Mar_07_1359,mf_amp_cond1,3.0.4,59.985070865292094,
promote,neutralust,&&&&&&&&&&,left,sanctity.virtue,,,,,,,0,17,17,17,,,,,,,,,,,,,,,,,,,,,AMP,left,1.4672660760663803,,,left,1,1.4672660760663803,1,,,,,,,,,,,,,,,,,,,,,,1031,2019_Mar_07_1359,mf_amp_cond1,3.0.4,59.985070865292094,
respect,focomotive,&&&&&&&&&&,left,sanctity.virtue,,,,,,,0,18,18,18,,,,,,,,,,,,,,,,,,,,,AMP,right,2.517546419804262,,,right,0,2.517546419804262,0,,,,,,,,,,,,,,,,,,,,,,1031,2019_Mar_07_1359,mf_amp_cond1,3.0.4,59.985070865292094,
intelligence,counpy's,&&&&&&&&,left,loyalty.virtue,,,,,,,0,19,19,19,,,,,,,,,,,,,,,,,,,,,AMP,right,0.7671075107490424,,,right,0,0.7671075107490424,0,,,,,,,,,,,,,,,,,,,,,,1031,2019_Mar_07_1359,mf_amp_cond1,3.0.4,59.985070865292094,
integrity,quarterbocks,&&&&&&&&&&&&,left,fairness.virtue,,,,,,,0,20,20,20,,,,,,,,,,,,,,,,,,,,,AMP,right,0.767095644008009,,,right,0,0.767095644008009,0,,,,,,,,,,,,,,,,,,,,,,1031,2019_Mar_07_1359,mf_amp_cond1,3.0.4,59.985070865292094,
scandal,yane,&&&&,right,sanctity.vice,,,,,,,0,21,21,21,,,,,,,,,,,,,,,,,,,,,AMP,left,0.7004205957873637,,,left,0,0.7004205957873637,0,,,,,,,,,,,,,,,,,,,,,,1031,2019_Mar_07_1359,mf_amp_cond1,3.0.4,59.985070865292094,
abuse,Cunday,&&&&&&,right,sanctity.vice,,,,,,,0,22,22,22,,,,,,,,,,,,,,,,,,,,,AMP,right,0.6837317885616585,,,right,1,0.6837317885616585,1,,,,,,,,,,,,,,,,,,,,,,1031,2019_Mar_07_1359,mf_amp_cond1,3.0.4,59.985070865292094,
honored,sidearbs,&&&&&&&&,left,authority.virtue,,,,,,,0,23,23,23,,,,,,,,,,,,,,,,,,,,,AMP,left,1.6840072893861588,,,left,1,1.6840072893861588,1,,,,,,,,,,,,,,,,,,,,,,1031,2019_Mar_07_1359,mf_amp_cond1,3.0.4,59.985070865292094,
rejected,discovars,&&&&&&&&&,right,authority.vice,,,,,,,0,24,24,24,,,,,,,,,,,,,,,,,,,,,AMP,left,0.8171203717305389,,,left,0,0.8171203717305389,0,,,,,,,,,,,,,,,,,,,,,,1031,2019_Mar_07_1359,mf_amp_cond1,3.0.4,59.985070865292094,
prosecution,Loorish,&&&&&&&,right,authority.vice,,,,,,,0,25,25,25,,,,,,,,,,,,,,,,,,,,,AMP,left,0.8337764652377473,,,left,0,0.8337764652377473,0,,,,,,,,,,,,,,,,,,,,,,1031,2019_Mar_07_1359,mf_amp_cond1,3.0.4,59.985070865292094,
scalbel,bruthfulness,&&&&&&&&&&&&,None,nonword,,,,,,,0,26,26,26,,,,,,,,,,,,,,,,,,,,,AMP,left,1.1005228421935271,,,left,0,1.1005228421935271,0,,,,,,,,,,,,,,,,,,,,,,1031,2019_Mar_07_1359,mf_amp_cond1,3.0.4,59.985070865292094,
embrace,totalestic,&&&&&&&&&&,left,authority.virtue,,,,,,,0,27,27,27,,,,,,,,,,,,,,,,,,,,,AMP,right,0.5670445208048704,,,right,0,0.5670445208048704,0,,,,,,,,,,,,,,,,,,,,,,1031,2019_Mar_07_1359,mf_amp_cond1,3.0.4,59.985070865292094,
metibolic,forepo,&&&&&&,None,nonword,,,,,,,0,28,28,28,,,,,,,,,,,,,,,,,,,,,AMP,left,0.8671332327119217,,,left,0,0.8671332327119217,0,,,,,,,,,,,,,,,,,,,,,,1031,2019_Mar_07_1359,mf_amp_cond1,3.0.4,59.985070865292094,
hescribe,Oregoniuns,&&&&&&&&&&,None,nonword,,,,,,,0,29,29,29,,,,,,,,,,,,,,,,,,,,,AMP,left,0.8837983064557875,,,left,0,0.8837983064557875,0,,,,,,,,,,,,,,,,,,,,,,1031,2019_Mar_07_1359,mf_amp_cond1,3.0.4,59.985070865292094,
prones,simplustic,&&&&&&&&&&,None,nonword,,,,,,,0,30,30,30,,,,,,,,,,,,,,,,,,,,,AMP,right,1.3839067107383016,,,right,0,1.3839067107383016,0,,,,,,,,,,,,,,,,,,,,,,1031,2019_Mar_07_1359,mf_amp_cond1,3.0.4,59.985070865292094,
iptervention,drumbled,&&&&&&&&,None,nonword,,,,,,,0,31,31,31,,,,,,,,,,,,,,,,,,,,,AMP,left,0.8504655931862999,,,left,0,0.8504655931862999,0,,,,,,,,,,,,,,,,,,,,,,1031,2019_Mar_07_1359,mf_amp_cond1,3.0.4,59.985070865292094,
restore,squets,&&&&&&,left,care.virtue,,,,,,,0,32,32,32,,,,,,,,,,,,,,,,,,,,,AMP,left,0.9838147274593894,,,left,1,0.9838147274593894,1,,,,,,,,,,,,,,,,,,,,,,1031,2019_Mar_07_1359,mf_amp_cond1,3.0.4,59.985070865292094,
interests,baladroit,&&&&&&&&&,left,fairness.virtue,,,,,,,0,33,33,33,,,,,,,,,,,,,,,,,,,,,AMP,left,0.7337462531567098,,,left,1,0.7337462531567098,1,,,,,,,,,,,,,,,,,,,,,,1031,2019_Mar_07_1359,mf_amp_cond1,3.0.4,59.985070865292094,
hand,viscs,&&&&&,left,sanctity.virtue,,,,,,,0,34,34,34,,,,,,,,,,,,,,,,,,,,,AMP,left,0.6337317564893965,,,left,1,0.6337317564893965,1,,,,,,,,,,,,,,,,,,,,,,1031,2019_Mar_07_1359,mf_amp_cond1,3.0.4,59.985070865292094,
drug,framatic,&&&&&&&&,right,sanctity.vice,,,,,,,0,35,35,35,,,,,,,,,,,,,,,,,,,,,AMP,left,1.6339950698502435,,,left,0,1.6339950698502435,0,,,,,,,,,,,,,,,,,,,,,,1031,2019_Mar_07_1359,mf_amp_cond1,3.0.4,59.985070865292094,
strong,brotesque,&&&&&&&&&,left,loyalty.virtue,,,,,,,0,36,36,36,,,,,,,,,,,,,,,,,,,,,AMP,right,0.5170409607826514,,,right,0,0.5170409607826514,0,,,,,,,,,,,,,,,,,,,,,,1031,2019_Mar_07_1359,mf_amp_cond1,3.0.4,59.985070865292094,
praise,lachelor,&&&&&&&&,left,authority.virtue,,,,,,,0,37,37,37,,,,,,,,,,,,,,,,,,,,,AMP,right,0.5503800885065857,,,right,0,0.5503800885065857,0,,,,,,,,,,,,,,,,,,,,,,1031,2019_Mar_07_1359,mf_amp_cond1,3.0.4,59.985070865292094,
strength,thabbily,&&&&&&&&,left,sanctity.virtue,,,,,,,0,38,38,38,,,,,,,,,,,,,,,,,,,,,AMP,right,0.5837458362171901,,,right,0,0.5837458362171901,0,,,,,,,,,,,,,,,,,,,,,,1031,2019_Mar_07_1359,mf_amp_cond1,3.0.4,59.985070865292094,
fear,ilportation,&&&&&&&&&&&,right,sanctity.vice,,,,,,,0,39,39,39,,,,,,,,,,,,,,,,,,,,,AMP,left,0.7004125777191348,,,left,0,0.7004125777191348,0,,,,,,,,,,,,,,,,,,,,,,1031,2019_Mar_07_1359,mf_amp_cond1,3.0.4,59.985070865292094,
carvels,vurtain,&&&&&&&,None,nonword,,,,,,,0,40,40,40,,,,,,,,,,,,,,,,,,,,,AMP,left,1.3672470892809088,,,left,0,1.3672470892809088,0,,,,,,,,,,,,,,,,,,,,,,1031,2019_Mar_07_1359,mf_amp_cond1,3.0.4,59.985070865292094,
riot,saned,&&&&&,right,authority.vice,,,,,,,0,41,41,41,,,,,,,,,,,,,,,,,,,,,AMP,left,2.0007405487822325,,,left,0,2.0007405487822325,0,,,,,,,,,,,,,,,,,,,,,,1031,2019_Mar_07_1359,mf_amp_cond1,3.0.4,59.985070865292094,
slavery,gationwide,&&&&&&&&&&,right,loyalty.vice,,,,,,,0,42,42,42,,,,,,,,,,,,,,,,,,,,,AMP,left,0.8671284218710298,,,left,0,0.8671284218710298,0,,,,,,,,,,,,,,,,,,,,,,1031,2019_Mar_07_1359,mf_amp_cond1,3.0.4,59.985070865292094,
sharing,letish,&&&&&&,left,loyalty.virtue,,,,,,,0,43,43,43,,,,,,,,,,,,,,,,,,,,,AMP,left,1.5839713042959147,,,left,1,1.5839713042959147,1,,,,,,,,,,,,,,,,,,,,,,1031,2019_Mar_07_1359,mf_amp_cond1,3.0.4,59.985070865292094,
injured,Daptist,&&&&&&&,right,care.vice,,,,,,,0,44,44,44,,,,,,,,,,,,,,,,,,,,,AMP,left,1.3672586352990947,,,left,0,1.3672586352990947,0,,,,,,,,,,,,,,,,,,,,,,1031,2019_Mar_07_1359,mf_amp_cond1,3.0.4,59.985070865292094,
fair,sonvoy,&&&&&&,left,fairness.virtue,,,,,,,0,45,45,45,,,,,,,,,,,,,,,,,,,,,AMP,right,0.7502791891359948,,,right,0,0.7502791891359948,0,,,,,,,,,,,,,,,,,,,,,,1031,2019_Mar_07_1359,mf_amp_cond1,3.0.4,59.985070865292094,
critics,refuejing,&&&&&&&&&,right,loyalty.vice,,,,,,,0,46,46,46,,,,,,,,,,,,,,,,,,,,,AMP,right,2.7342661447011096,,,right,1,2.7342661447011096,1,,,,,,,,,,,,,,,,,,,,,,1031,2019_Mar_07_1359,mf_amp_cond1,3.0.4,59.985070865292094,
opportunity,chared,&&&&&&,left,fairness.virtue,,,,,,,0,47,47,47,,,,,,,,,,,,,,,,,,,,,AMP,right,0.4670101393284085,,,right,0,0.4670101393284085,0,,,,,,,,,,,,,,,,,,,,,,1031,2019_Mar_07_1359,mf_amp_cond1,3.0.4,59.985070865292094,
good,nomaric,&&&&&&&,left,care.virtue,,,,,,,0,48,48,48,,,,,,,,,,,,,,,,,,,,,AMP,right,0.6670702427678634,,,right,0,0.6670702427678634,0,,,,,,,,,,,,,,,,,,,,,,1031,2019_Mar_07_1359,mf_amp_cond1,3.0.4,59.985070865292094,
groups,bluently,&&&&&&&&,right,loyalty.vice,,,,,,,0,49,49,49,,,,,,,,,,,,,,,,,,,,,AMP,right,1.167072808549733,,,right,1,1.167072808549733,1,,,,,,,,,,,,,,,,,,,,,,1031,2019_Mar_07_1359,mf_amp_cond1,3.0.4,59.985070865292094,
died,brudent,&&&&&&&,right,care.vice,,,,,,,0,50,50,50,,,,,,,,,,,,,,,,,,,,,AMP,left,0.6170670034683781,,,left,0,0.6170670034683781,0,,,,,,,,,,,,,,,,,,,,,,1031,2019_Mar_07_1359,mf_amp_cond1,3.0.4,59.985070865292094,
growth,nuckheap,&&&&&&&&,left,care.virtue,,,,,,,0,51,51,51,,,,,,,,,,,,,,,,,,,,,AMP,left,2.0339003925005272,,,left,1,2.0339003925005272,1,,,,,,,,,,,,,,,,,,,,,,1031,2019_Mar_07_1359,mf_amp_cond1,3.0.4,59.985070865292094,
mecan,pafer,&&&&&,None,nonword,,,,,,,0,52,52,52,,,,,,,,,,,,,,,,,,,,,AMP,left,0.483692852822287,,,left,0,0.483692852822287,0,,,,,,,,,,,,,,,,,,,,,,1031,2019_Mar_07_1359,mf_amp_cond1,3.0.4,59.985070865292094,
touls,grovelire,&&&&&&&&&,None,nonword,,,,,,,0,53,53,53,,,,,,,,,,,,,,,,,,,,,AMP,left,0.6337442646757836,,,left,0,0.6337442646757836,0,,,,,,,,,,,,,,,,,,,,,,1031,2019_Mar_07_1359,mf_amp_cond1,3.0.4,59.985070865292094,
lursuer,shoirmaster,&&&&&&&&&&&,None,nonword,,,,,,,0,54,54,54,,,,,,,,,,,,,,,,,,,,,AMP,left,0.7670972476216775,,,left,0,0.7670972476216775,0,,,,,,,,,,,,,,,,,,,,,,1031,2019_Mar_07_1359,mf_amp_cond1,3.0.4,59.985070865292094,
victim,divility,&&&&&&&&,right,care.vice,,,,,,,0,55,55,55,,,,,,,,,,,,,,,,,,,,,AMP,left,0.31697829156132684,,,left,0,0.31697829156132684,0,,,,,,,,,,,,,,,,,,,,,,1031,2019_Mar_07_1359,mf_amp_cond1,3.0.4,59.985070865292094,
prison,chonograph,&&&&&&&&&&,right,fairness.vice,,,,,,,0,56,56,56,,,,,,,,,,,,,,,,,,,,,AMP,left,0.7837664907609678,,,left,0,0.7837664907609678,0,,,,,,,,,,,,,,,,,,,,,,1031,2019_Mar_07_1359,mf_amp_cond1,3.0.4,59.985070865292094,
compassion,reprisols,&&&&&&&&&,left,care.virtue,,,,,,,0,57,57,57,,,,,,,,,,,,,,,,,,,,,AMP,right,0.6504096591423831,,,right,0,0.6504096591423831,0,,,,,,,,,,,,,,,,,,,,,,1031,2019_Mar_07_1359,mf_amp_cond1,3.0.4,59.985070865292094,
great,strofe,&&&&&&,left,loyalty.virtue,,,,,,,0,58,58,58,,,,,,,,,,,,,,,,,,,,,AMP,right,0.6337173239664935,,,right,0,0.6337173239664935,0,,,,,,,,,,,,,,,,,,,,,,1031,2019_Mar_07_1359,mf_amp_cond1,3.0.4,59.985070865292094,
increase,dramens,&&&&&&&,left,care.virtue,,,,,,,0,59,59,59,,,,,,,,,,,,,,,,,,,,,AMP,left,0.6670721671042656,,,left,1,0.6670721671042656,1,,,,,,,,,,,,,,,,,,,,,,1031,2019_Mar_07_1359,mf_amp_cond1,3.0.4,59.985070865292094,
progress,aubos,&&&&&,left,authority.virtue,,,,,,,0,60,60,60,,,,,,,,,,,,,,,,,,,,,AMP,left,1.033814759531765,,,left,1,1.033814759531765,1,,,,,,,,,,,,,,,,,,,,,,1031,2019_Mar_07_1359,mf_amp_cond1,3.0.4,59.985070865292094,
commitment,gikely,&&&&&&,left,sanctity.virtue,,,,,,,0,61,61,61,,,,,,,,,,,,,,,,,,,,,AMP,left,1.1005119376206949,,,left,1,1.1005119376206949,1,,,,,,,,,,,,,,,,,,,,,,1031,2019_Mar_07_1359,mf_amp_cond1,3.0.4,59.985070865292094,
racist,disregord,&&&&&&&&&,right,sanctity.vice,,,,,,,0,62,62,62,,,,,,,,,,,,,,,,,,,,,AMP,left,0.583585795575118,,,left,0,0.583585795575118,0,,,,,,,,,,,,,,,,,,,,,,1031,2019_Mar_07_1359,mf_amp_cond1,3.0.4,59.985070865292094,
shot,taxpayung,&&&&&&&&&,right,care.vice,,,,,,,0,63,63,63,,,,,,,,,,,,,,,,,,,,,AMP,left,1.3506182572056105,,,left,0,1.3506182572056105,0,,,,,,,,,,,,,,,,,,,,,,1031,2019_Mar_07_1359,mf_amp_cond1,3.0.4,59.985070865292094,
win,fonderland,&&&&&&&&&&,left,fairness.virtue,,,,,,,0,64,64,64,,,,,,,,,,,,,,,,,,,,,AMP,left,0.9004752469404593,,,left,1,0.9004752469404593,1,,,,,,,,,,,,,,,,,,,,,,1031,2019_Mar_07_1359,mf_amp_cond1,3.0.4,59.985070865292094,
forced,sliptery,&&&&&&&&,right,fairness.vice,,,,,,,0,65,65,65,,,,,,,,,,,,,,,,,,,,,AMP,left,1.0004852534896145,,,left,0,1.0004852534896145,0,,,,,,,,,,,,,,,,,,,,,,1031,2019_Mar_07_1359,mf_amp_cond1,3.0.4,59.985070865292094,
penalty,edancipation,&&&&&&&&&&&&,right,authority.vice,,,,,,,0,66,66,66,,,,,,,,,,,,,,,,,,,,,AMP,right,0.7337597235114117,,,right,1,0.7337597235114117,1,,,,,,,,,,,,,,,,,,,,,,1031,2019_Mar_07_1359,mf_amp_cond1,3.0.4,59.985070865292094,
conspiracy,gondensed,&&&&&&&&&,right,sanctity.vice,,,,,,,0,67,67,67,,,,,,,,,,,,,,,,,,,,,AMP,left,1.7840211446081184,,,left,0,1.7840211446081184,0,,,,,,,,,,,,,,,,,,,,,,1031,2019_Mar_07_1359,mf_amp_cond1,3.0.4,59.985070865292094,
black,egpeditious,&&&&&&&&&&&,right,loyalty.vice,,,,,,,0,68,68,68,,,,,,,,,,,,,,,,,,,,,AMP,right,1.9173936916404273,,,right,1,1.9173936916404273,1,,,,,,,,,,,,,,,,,,,,,,1031,2019_Mar_07_1359,mf_amp_cond1,3.0.4,59.985070865292094,
threatened,sickyay,&&&&&&&,right,fairness.vice,,,,,,,0,69,69,69,,,,,,,,,,,,,,,,,,,,,AMP,left,0.8171129951077774,,,left,0,0.8171129951077774,0,,,,,,,,,,,,,,,,,,,,,,1031,2019_Mar_07_1359,mf_amp_cond1,3.0.4,59.985070865292094,
civilians,emassion,&&&&&&&&,right,care.vice,,,,,,,0,70,70,70,,,,,,,,,,,,,,,,,,,,,AMP,right,1.3005723617828835,,,right,1,1.3005723617828835,1,,,,,,,,,,,,,,,,,,,,,,1031,2019_Mar_07_1359,mf_amp_cond1,3.0.4,59.985070865292094,
ability,feleological,&&&&&&&&&&&&,left,authority.virtue,,,,,,,0,71,71,71,,,,,,,,,,,,,,,,,,,,,AMP,left,0.8837986271784075,,,left,1,0.8837986271784075,1,,,,,,,,,,,,,,,,,,,,,,1031,2019_Mar_07_1359,mf_amp_cond1,3.0.4,59.985070865292094,
killed,leact,&&&&&,right,care.vice,,,,,,,0,72,72,72,,,,,,,,,,,,,,,,,,,,,AMP,left,0.5003595301797077,,,left,0,0.5003595301797077,0,,,,,,,,,,,,,,,,,,,,,,1031,2019_Mar_07_1359,mf_amp_cond1,3.0.4,59.985070865292094,
pleasant,supervuned,&&&&&&&&&&,None,control,,,,,,,0,73,73,73,,,,,,,,,,,,,,,,,,,,,AMP,left,0.6003781962425592,,,left,0,0.6003781962425592,0,,,,,,,,,,,,,,,,,,,,,,1031,2019_Mar_07_1359,mf_amp_cond1,3.0.4,59.985070865292094,
peace,coom,&&&&,left,care.virtue,,,,,,,0,74,74,74,,,,,,,,,,,,,,,,,,,,,AMP,left,0.8004302816137852,,,left,1,0.8004302816137852,1,,,,,,,,,,,,,,,,,,,,,,1031,2019_Mar_07_1359,mf_amp_cond1,3.0.4,59.985070865292094,
terrorists,unreflectuve,&&&&&&&&&&&&,right,fairness.vice,,,,,,,0,75,75,75,,,,,,,,,,,,,,,,,,,,,AMP,left,0.8004450348593082,,,left,0,0.8004450348593082,0,,,,,,,,,,,,,,,,,,,,,,1031,2019_Mar_07_1359,mf_amp_cond1,3.0.4,59.985070865292094,
refused,presentkess,&&&&&&&&&&&,right,authority.vice,,,,,,,0,76,76,76,,,,,,,,,,,,,,,,,,,,,AMP,left,0.6004115514064097,,,left,0,0.6004115514064097,0,,,,,,,,,,,,,,,,,,,,,,1031,2019_Mar_07_1359,mf_amp_cond1,3.0.4,59.985070865292094,
crime,elduringly,&&&&&&&&&&,right,fairness.vice,,,,,,,0,77,77,77,,,,,,,,,,,,,,,,,,,,,AMP,left,0.45020939987011843,,,left,0,0.45020939987011843,0,,,,,,,,,,,,,,,,,,,,,,1031,2019_Mar_07_1359,mf_amp_cond1,3.0.4,59.985070865292094,
ban,papert,&&&&&&,right,loyalty.vice,,,,,,,0,78,78,78,,,,,,,,,,,,,,,,,,,,,AMP,left,0.6003881386471903,,,left,0,0.6003881386471903,0,,,,,,,,,,,,,,,,,,,,,,1031,2019_Mar_07_1359,mf_amp_cond1,3.0.4,59.985070865292094,
fighters,seachwear,&&&&&&&&&,right,authority.vice,,,,,,,0,79,79,79,,,,,,,,,,,,,,,,,,,,,AMP,left,0.5503848993475913,,,left,0,0.5503848993475913,0,,,,,,,,,,,,,,,,,,,,,,1031,2019_Mar_07_1359,mf_amp_cond1,3.0.4,59.985070865292094,
torture,noped,&&&&&,right,care.vice,,,,,,,0,80,80,80,,,,,,,,,,,,,,,,,,,,,AMP,left,0.4836835518631233,,,left,0,0.4836835518631233,0,,,,,,,,,,,,,,,,,,,,,,1031,2019_Mar_07_1359,mf_amp_cond1,3.0.4,59.985070865292094,
voter,openet,&&&&&&,right,fairness.vice,,,,,,,0,81,81,81,,,,,,,,,,,,,,,,,,,,,AMP,left,0.6837369201252841,,,left,0,0.6837369201252841,0,,,,,,,,,,,,,,,,,,,,,,1031,2019_Mar_07_1359,mf_amp_cond1,3.0.4,59.985070865292094,
died,saned,&&&&&,right,care.vice,,,,,,,0,82,82,82,,,,,,,,,,,,,,,,,,,,,AMP,left,0.5502341596647966,,,left,0,0.5502341596647966,0,,,,,,,,,,,,,,,,,,,,,,1031,2019_Mar_07_1359,mf_amp_cond1,3.0.4,59.985070865292094,
useful,neutralust,&&&&&&&&&&,left,authority.virtue,,,,,,,0,83,83,83,,,,,,,,,,,,,,,,,,,,,AMP,left,0.5337130904264313,,,left,1,0.5337130904264313,1,,,,,,,,,,,,,,,,,,,,,,1031,2019_Mar_07_1359,mf_amp_cond1,3.0.4,59.985070865292094,
energy,letish,&&&&&&,left,sanctity.virtue,,,,,,,0,84,84,84,,,,,,,,,,,,,,,,,,,,,AMP,left,0.5003656239116481,,,left,1,0.5003656239116481,1,,,,,,,,,,,,,,,,,,,,,,1031,2019_Mar_07_1359,mf_amp_cond1,3.0.4,59.985070865292094,
fear,brudent,&&&&&&&,right,sanctity.vice,,,,,,,0,85,85,85,,,,,,,,,,,,,,,,,,,,,AMP,left,0.9171746380162631,,,left,0,0.9171746380162631,0,,,,,,,,,,,,,,,,,,,,,,1031,2019_Mar_07_1359,mf_amp_cond1,3.0.4,59.985070865292094,
intelligence,papert,&&&&&&,left,loyalty.virtue,,,,,,,0,86,86,86,,,,,,,,,,,,,,,,,,,,,AMP,left,0.6837436553026919,,,left,1,0.6837436553026919,1,,,,,,,,,,,,,,,,,,,,,,1031,2019_Mar_07_1359,mf_amp_cond1,3.0.4,59.985070865292094,
commitment,gationwide,&&&&&&&&&&,left,sanctity.virtue,,,,,,,0,87,87,87,,,,,,,,,,,,,,,,,,,,,AMP,right,0.5503807299521668,,,right,0,0.5503807299521668,0,,,,,,,,,,,,,,,,,,,,,,1031,2019_Mar_07_1359,mf_amp_cond1,3.0.4,59.985070865292094,
compassion,strofe,&&&&&&,left,care.virtue,,,,,,,0,88,88,88,,,,,,,,,,,,,,,,,,,,,AMP,right,0.7004138606100696,,,right,0,0.7004138606100696,0,,,,,,,,,,,,,,,,,,,,,,1031,2019_Mar_07_1359,mf_amp_cond1,3.0.4,59.985070865292094,
peace,pafer,&&&&&,left,care.virtue,,,,,,,0,89,89,89,,,,,,,,,,,,,,,,,,,,,AMP,left,0.7671219432718317,,,left,1,0.7671219432718317,1,,,,,,,,,,,,,,,,,,,,,,1031,2019_Mar_07_1359,mf_amp_cond1,3.0.4,59.985070865292094,
integrity,nuckheap,&&&&&&&&,left,fairness.virtue,,,,,,,0,90,90,90,,,,,,,,,,,,,,,,,,,,,AMP,right,0.6837417309662897,,,right,0,0.6837417309662897,0,,,,,,,,,,,,,,,,,,,,,,1031,2019_Mar_07_1359,mf_amp_cond1,3.0.4,59.985070865292094,
carvels,focomotive,&&&&&&&&&&,None,nonword,,,,,,,0,91,91,91,,,,,,,,,,,,,,,,,,,,,AMP,left,0.4003405433941225,,,left,0,0.4003405433941225,0,,,,,,,,,,,,,,,,,,,,,,1031,2019_Mar_07_1359,mf_amp_cond1,3.0.4,59.985070865292094,
racist,squets,&&&&&&,right,sanctity.vice,,,,,,,0,92,92,92,,,,,,,,,,,,,,,,,,,,,AMP,left,0.6337304735984617,,,left,0,0.6337304735984617,0,,,,,,,,,,,,,,,,,,,,,,1031,2019_Mar_07_1359,mf_amp_cond1,3.0.4,59.985070865292094,
slavery,feleological,&&&&&&&&&&&&,right,loyalty.vice,,,,,,,0,93,93,93,,,,,,,,,,,,,,,,,,,,,AMP,left,0.9504813727446617,,,left,0,0.9504813727446617,0,,,,,,,,,,,,,,,,,,,,,,1031,2019_Mar_07_1359,mf_amp_cond1,3.0.4,59.985070865292094,
great,leact,&&&&&,left,loyalty.virtue,,,,,,,0,94,94,94,,,,,,,,,,,,,,,,,,,,,AMP,left,0.6837375615707515,,,left,1,0.6837375615707515,1,,,,,,,,,,,,,,,,,,,,,,1031,2019_Mar_07_1359,mf_amp_cond1,3.0.4,59.985070865292094,
pleasant,taxpayung,&&&&&&&&&,None,control,,,,,,,0,95,95,95,,,,,,,,,,,,,,,,,,,,,AMP,left,0.38359464752250005,,,left,0,0.38359464752250005,0,,,,,,,,,,,,,,,,,,,,,,1031,2019_Mar_07_1359,mf_amp_cond1,3.0.4,59.985070865292094,
strong,coom,&&&&,left,loyalty.virtue,,,,,,,0,96,96,96,,,,,,,,,,,,,,,,,,,,,AMP,left,0.8004479213639115,,,left,1,0.8004479213639115,1,,,,,,,,,,,,,,,,,,,,,,1031,2019_Mar_07_1359,mf_amp_cond1,3.0.4,59.985070865292094,
black,Cunday,&&&&&&,right,loyalty.vice,,,,,,,0,97,97,97,,,,,,,,,,,,,,,,,,,,,AMP,left,0.8004498457003137,,,left,0,0.8004498457003137,0,,,,,,,,,,,,,,,,,,,,,,1031,2019_Mar_07_1359,mf_amp_cond1,3.0.4,59.985070865292094,
praise,reprisols,&&&&&&&&&,left,authority.virtue,,,,,,,0,98,98,98,,,,,,,,,,,,,,,,,,,,,AMP,left,0.683741410243556,,,left,1,0.683741410243556,1,,,,,,,,,,,,,,,,,,,,,,1031,2019_Mar_07_1359,mf_amp_cond1,3.0.4,59.985070865292094,
restore,Phintoism,&&&&&&&&&,left,care.virtue,,,,,,,0,99,99,99,,,,,,,,,,,,,,,,,,,,,AMP,left,0.45035661160284235,,,left,1,0.45035661160284235,1,,,,,,,,,,,,,,,,,,,,,,1031,2019_Mar_07_1359,mf_amp_cond1,3.0.4,59.985070865292094,
fair,tabin,&&&&&,left,fairness.virtue,,,,,,,0,100,100,100,,,,,,,,,,,,,,,,,,,,,AMP,left,0.5335626714663704,,,left,1,0.5335626714663704,1,,,,,,,,,,,,,,,,,,,,,,1031,2019_Mar_07_1359,mf_amp_cond1,3.0.4,59.985070865292094,
growth,simplustic,&&&&&&&&&&,left,care.virtue,,,,,,,0,101,101,101,,,,,,,,,,,,,,,,,,,,,AMP,left,1.083837242195159,,,left,1,1.083837242195159,1,,,,,,,,,,,,,,,,,,,,,,1031,2019_Mar_07_1359,mf_amp_cond1,3.0.4,59.985070865292094,
increase,lempestuous,&&&&&&&&&&&,left,care.virtue,,,,,,,0,102,102,102,,,,,,,,,,,,,,,,,,,,,AMP,left,1.050538846257723,,,left,1,1.050538846257723,1,,,,,,,,,,,,,,,,,,,,,,1031,2019_Mar_07_1359,mf_amp_cond1,3.0.4,59.985070865292094,
violations,fonderland,&&&&&&&&&&,right,sanctity.vice,,,,,,,0,103,103,103,,,,,,,,,,,,,,,,,,,,,AMP,left,0.4003488821851988,,,left,0,0.4003488821851988,0,,,,,,,,,,,,,,,,,,,,,,1031,2019_Mar_07_1359,mf_amp_cond1,3.0.4,59.985070865292094,
strength,asn,&&&,left,sanctity.virtue,,,,,,,0,104,104,104,,,,,,,,,,,,,,,,,,,,,AMP,left,1.1837314678389248,,,left,1,1.1837314678389248,1,,,,,,,,,,,,,,,,,,,,,,1031,2019_Mar_07_1359,mf_amp_cond1,3.0.4,59.985070865292094,
progress,unreflectuve,&&&&&&&&&&&&,left,authority.virtue,,,,,,,0,105,105,105,,,,,,,,,,,,,,,,,,,,,AMP,left,0.6170609097364377,,,left,1,0.6170609097364377,1,,,,,,,,,,,,,,,,,,,,,,1031,2019_Mar_07_1359,mf_amp_cond1,3.0.4,59.985070865292094,
crime,sickyay,&&&&&&&,right,fairness.vice,,,,,,,0,106,106,106,,,,,,,,,,,,,,,,,,,,,AMP,left,0.7170866316994307,,,left,0,0.7170866316994307,0,,,,,,,,,,,,,,,,,,,,,,1031,2019_Mar_07_1359,mf_amp_cond1,3.0.4,59.985070865292094,
riot,drumbled,&&&&&&&&,right,authority.vice,,,,,,,0,107,107,107,,,,,,,,,,,,,,,,,,,,,AMP,left,0.8837983064556738,,,left,0,0.8837983064556738,0,,,,,,,,,,,,,,,,,,,,,,1031,2019_Mar_07_1359,mf_amp_cond1,3.0.4,59.985070865292094,
free,galamitous,&&&&&&&&&&,left,fairness.virtue,,,,,,,0,108,108,108,,,,,,,,,,,,,,,,,,,,,AMP,left,0.7170972155493018,,,left,1,0.7170972155493018,1,,,,,,,,,,,,,,,,,,,,,,1031,2019_Mar_07_1359,mf_amp_cond1,3.0.4,59.985070865292094,
praised,seachwear,&&&&&&&&&,left,loyalty.virtue,,,,,,,0,109,109,109,,,,,,,,,,,,,,,,,,,,,AMP,left,0.5670515767048983,,,left,1,0.5670515767048983,1,,,,,,,,,,,,,,,,,,,,,,1031,2019_Mar_07_1359,mf_amp_cond1,3.0.4,59.985070865292094,
groups,ilportation,&&&&&&&&&&&,right,loyalty.vice,,,,,,,0,110,110,110,,,,,,,,,,,,,,,,,,,,,AMP,left,0.567078196691682,,,left,0,0.567078196691682,0,,,,,,,,,,,,,,,,,,,,,,1031,2019_Mar_07_1359,mf_amp_cond1,3.0.4,59.985070865292094,
blamed,honstables,&&&&&&&&&&,right,loyalty.vice,,,,,,,0,111,111,111,,,,,,,,,,,,,,,,,,,,,AMP,left,0.4836967014950915,,,left,0,0.4836967014950915,0,,,,,,,,,,,,,,,,,,,,,,1031,2019_Mar_07_1359,mf_amp_cond1,3.0.4,59.985070865292094,
iptervention,lachelor,&&&&&&&&,None,nonword,,,,,,,0,112,112,112,,,,,,,,,,,,,,,,,,,,,AMP,left,0.4503473106435649,,,left,0,0.4503473106435649,0,,,,,,,,,,,,,,,,,,,,,,1031,2019_Mar_07_1359,mf_amp_cond1,3.0.4,59.985070865292094,
scalbel,gondensed,&&&&&&&&&,None,nonword,,,,,,,0,113,113,113,,,,,,,,,,,,,,,,,,,,,AMP,left,0.7170911218174751,,,left,0,0.7170911218174751,0,,,,,,,,,,,,,,,,,,,,,,1031,2019_Mar_07_1359,mf_amp_cond1,3.0.4,59.985070865292094,
ban,vurtain,&&&&&&&,right,loyalty.vice,,,,,,,0,114,114,114,,,,,,,,,,,,,,,,,,,,,AMP,left,0.517025566091661,,,left,0,0.517025566091661,0,,,,,,,,,,,,,,,,,,,,,,1031,2019_Mar_07_1359,mf_amp_cond1,3.0.4,59.985070865292094,
critics,supervuned,&&&&&&&&&&,right,loyalty.vice,,,,,,,0,115,115,115,,,,,,,,,,,,,,,,,,,,,AMP,left,0.4336790296727031,,,left,0,0.4336790296727031,0,,,,,,,,,,,,,,,,,,,,,,1031,2019_Mar_07_1359,mf_amp_cond1,3.0.4,59.985070865292094,
win,presentkess,&&&&&&&&&&&,left,fairness.virtue,,,,,,,0,116,116,116,,,,,,,,,,,,,,,,,,,,,AMP,left,0.4003459956804818,,,left,1,0.4003459956804818,1,,,,,,,,,,,,,,,,,,,,,,1031,2019_Mar_07_1359,mf_amp_cond1,3.0.4,59.985070865292094,
threatened,elduringly,&&&&&&&&&&,right,fairness.vice,,,,,,,0,117,117,117,,,,,,,,,,,,,,,,,,,,,AMP,left,0.40034342989861216,,,left,0,0.40034342989861216,0,,,,,,,,,,,,,,,,,,,,,,1031,2019_Mar_07_1359,mf_amp_cond1,3.0.4,59.985070865292094,
voter,divility,&&&&&&&&,right,fairness.vice,,,,,,,0,118,118,118,,,,,,,,,,,,,,,,,,,,,AMP,left,0.7504546244690573,,,left,0,0.7504546244690573,0,,,,,,,,,,,,,,,,,,,,,,1031,2019_Mar_07_1359,mf_amp_cond1,3.0.4,59.985070865292094,
good,emports,&&&&&&&,left,care.virtue,,,,,,,0,119,119,119,,,,,,,,,,,,,,,,,,,,,AMP,left,0.5003726798115622,,,left,1,0.5003726798115622,1,,,,,,,,,,,,,,,,,,,,,,1031,2019_Mar_07_1359,mf_amp_cond1,3.0.4,59.985070865292094,
opportunity,Loorish,&&&&&&&,left,fairness.virtue,,,,,,,0,120,120,120,,,,,,,,,,,,,,,,,,,,,AMP,left,0.3670164896384449,,,left,1,0.3670164896384449,1,,,,,,,,,,,,,,,,,,,,,,1031,2019_Mar_07_1359,mf_amp_cond1,3.0.4,59.985070865292094,
actively,aubos,&&&&&,left,authority.virtue,,,,,,,0,121,121,121,,,,,,,,,,,,,,,,,,,,,AMP,left,0.2836250520372232,,,left,1,0.2836250520372232,1,,,,,,,,,,,,,,,,,,,,,,1031,2019_Mar_07_1359,mf_amp_cond1,3.0.4,59.985070865292094,
betrayal,abointment,&&&&&&&&&&,right,loyalty.vice,,,,,,,0,122,122,122,,,,,,,,,,,,,,,,,,,,,AMP,left,0.31698598890693575,,,left,0,0.31698598890693575,0,,,,,,,,,,,,,,,,,,,,,,1031,2019_Mar_07_1359,mf_amp_cond1,3.0.4,59.985070865292094,
prones,emassion,&&&&&&&&,None,nonword,,,,,,,0,123,123,123,,,,,,,,,,,,,,,,,,,,,AMP,left,0.5003656239116481,,,left,0,0.5003656239116481,0,,,,,,,,,,,,,,,,,,,,,,1031,2019_Mar_07_1359,mf_amp_cond1,3.0.4,59.985070865292094,
lursuer,troubla,&&&&&&&,None,nonword,,,,,,,0,124,124,124,,,,,,,,,,,,,,,,,,,,,AMP,left,0.8004469591955967,,,left,0,0.8004469591955967,0,,,,,,,,,,,,,,,,,,,,,,1031,2019_Mar_07_1359,mf_amp_cond1,3.0.4,59.985070865292094,
shot,juck,&&&&,right,care.vice,,,,,,,0,125,125,125,,,,,,,,,,,,,,,,,,,,,AMP,left,0.266994295625409,,,left,0,0.266994295625409,0,,,,,,,,,,,,,,,,,,,,,,1031,2019_Mar_07_1359,mf_amp_cond1,3.0.4,59.985070865292094,
hand,Daptist,&&&&&&&,left,sanctity.virtue,,,,,,,0,126,126,126,,,,,,,,,,,,,,,,,,,,,AMP,left,0.35033666264916974,,,left,1,0.35033666264916974,1,,,,,,,,,,,,,,,,,,,,,,1031,2019_Mar_07_1359,mf_amp_cond1,3.0.4,59.985070865292094,
torture,baladroit,&&&&&&&&&,right,care.vice,,,,,,,0,127,127,127,,,,,,,,,,,,,,,,,,,,,AMP,left,0.43366876654522457,,,left,0,0.43366876654522457,0,,,,,,,,,,,,,,,,,,,,,,1031,2019_Mar_07_1359,mf_amp_cond1,3.0.4,59.985070865292094,
officers,disregord,&&&&&&&&&,right,authority.vice,,,,,,,0,128,128,128,,,,,,,,,,,,,,,,,,,,,AMP,left,0.5170473752373255,,,left,0,0.5170473752373255,0,,,,,,,,,,,,,,,,,,,,,,1031,2019_Mar_07_1359,mf_amp_cond1,3.0.4,59.985070865292094,
rejected,nomaric,&&&&&&&,right,authority.vice,,,,,,,0,129,129,129,,,,,,,,,,,,,,,,,,,,,AMP,left,0.1502714276457482,,,left,0,0.1502714276457482,0,,,,,,,,,,,,,,,,,,,,,,1031,2019_Mar_07_1359,mf_amp_cond1,3.0.4,59.985070865292094,
terrorists,grovelire,&&&&&&&&&,right,fairness.vice,,,,,,,0,130,130,130,,,,,,,,,,,,,,,,,,,,,AMP,left,0.4670220060693282,,,left,0,0.4670220060693282,0,,,,,,,,,,,,,,,,,,,,,,1031,2019_Mar_07_1359,mf_amp_cond1,3.0.4,59.985070865292094,
support,discovars,&&&&&&&&&,left,loyalty.virtue,,,,,,,0,131,131,131,,,,,,,,,,,,,,,,,,,,,AMP,left,0.03357806615736081,,,left,1,0.03357806615736081,1,,,,,,,,,,,,,,,,,,,,,,1031,2019_Mar_07_1359,mf_amp_cond1,3.0.4,59.985070865292094,
prison,vicissifude,&&&&&&&&&&&,right,fairness.vice,,,,,,,0,132,132,132,,,,,,,,,,,,,,,,,,,,,AMP,left,0.8171088257122392,,,left,0,0.8171088257122392,0,,,,,,,,,,,,,,,,,,,,,,1031,2019_Mar_07_1359,mf_amp_cond1,3.0.4,59.985070865292094,
forced,refuejing,&&&&&&&&&,right,fairness.vice,,,,,,,0,133,133,133,,,,,,,,,,,,,,,,,,,,,AMP,left,0.3503385869853446,,,left,0,0.3503385869853446,0,,,,,,,,,,,,,,,,,,,,,,1031,2019_Mar_07_1359,mf_amp_cond1,3.0.4,59.985070865292094,
conspiracy,ammessment,&&&&&&&&&&,right,sanctity.vice,,,,,,,0,134,134,134,,,,,,,,,,,,,,,,,,,,,AMP,left,0.38366264074124956,,,left,0,0.38366264074124956,0,,,,,,,,,,,,,,,,,,,,,,1031,2019_Mar_07_1359,mf_amp_cond1,3.0.4,59.985070865292094,
honored,chonograph,&&&&&&&&&&,left,authority.virtue,,,,,,,0,135,135,135,,,,,,,,,,,,,,,,,,,,,AMP,left,0.08358290907062838,,,left,1,0.08358290907062838,1,,,,,,,,,,,,,,,,,,,,,,1031,2019_Mar_07_1359,mf_amp_cond1,3.0.4,59.985070865292094,
injured,sidearbs,&&&&&&&&,right,care.vice,,,,,,,0,136,136,136,,,,,,,,,,,,,,,,,,,,,AMP,left,0.18360189585632725,,,left,0,0.18360189585632725,0,,,,,,,,,,,,,,,,,,,,,,1031,2019_Mar_07_1359,mf_amp_cond1,3.0.4,59.985070865292094,
hatigue,gikely,&&&&&&,None,nonword,,,,,,,0,137,137,137,,,,,,,,,,,,,,,,,,,,,AMP,left,0.06692264616776811,,,left,0,0.06692264616776811,0,,,,,,,,,,,,,,,,,,,,,,1031,2019_Mar_07_1359,mf_amp_cond1,3.0.4,59.985070865292094,
fighters,epigrach,&&&&&&&&,right,authority.vice,,,,,,,0,138,138,138,,,,,,,,,,,,,,,,,,,,,AMP,left,0.5837131224986933,,,left,0,0.5837131224986933,0,,,,,,,,,,,,,,,,,,,,,,1031,2019_Mar_07_1359,mf_amp_cond1,3.0.4,59.985070865292094,
sharing,suggists,&&&&&&&&,left,loyalty.virtue,,,,,,,0,139,139,139,,,,,,,,,,,,,,,,,,,,,AMP,left,0.10027139557359988,,,left,1,0.10027139557359988,1,,,,,,,,,,,,,,,,,,,,,,1031,2019_Mar_07_1359,mf_amp_cond1,3.0.4,59.985070865292094,
interests,chared,&&&&&&,left,fairness.virtue,,,,,,,0,140,140,140,,,,,,,,,,,,,,,,,,,,,AMP,left,0.7170994606083241,,,left,1,0.7170994606083241,1,,,,,,,,,,,,,,,,,,,,,,1031,2019_Mar_07_1359,mf_amp_cond1,3.0.4,59.985070865292094,
faith,noped,&&&&&,left,sanctity.virtue,,,,,,,0,141,141,141,,,,,,,,,,,,,,,,,,,,,AMP,left,0.7671280370036584,,,left,1,0.7671280370036584,1,,,,,,,,,,,,,,,,,,,,,,1031,2019_Mar_07_1359,mf_amp_cond1,3.0.4,59.985070865292094,
unpleasant,bruthfulness,&&&&&&&&&&&&,None,control,,,,,,,0,142,142,142,,,,,,,,,,,,,,,,,,,,,AMP,left,0.46707941543786546,,,left,0,0.46707941543786546,0,,,,,,,,,,,,,,,,,,,,,,1031,2019_Mar_07_1359,mf_amp_cond1,3.0.4,59.985070865292094,
ability,totalestic,&&&&&&&&&&,left,authority.virtue,,,,,,,0,143,143,143,,,,,,,,,,,,,,,,,,,,,AMP,left,0.8504675175227021,,,left,1,0.8504675175227021,1,,,,,,,,,,,,,,,,,,,,,,1031,2019_Mar_07_1359,mf_amp_cond1,3.0.4,59.985070865292094,
promote,gowlands,&&&&&&&&,left,sanctity.virtue,,,,,,,0,144,144,144,,,,,,,,,,,,,,,,,,,,,AMP,left,0.8838079281376849,,,left,1,0.8838079281376849,1,,,,,,,,,,,,,,,,,,,,,,1031,2019_Mar_07_1359,mf_amp_cond1,3.0.4,59.985070865292094,
charges,counpy's,&&&&&&&&,right,fairness.vice,,,,,,,0,145,145,145,,,,,,,,,,,,,,,,,,,,,AMP,left,0.16695895198063226,,,left,0,0.16695895198063226,0,,,,,,,,,,,,,,,,,,,,,,1031,2019_Mar_07_1359,mf_amp_cond1,3.0.4,59.985070865292094,
prosecution,openet,&&&&&&,right,authority.vice,,,,,,,0,146,146,146,,,,,,,,,,,,,,,,,,,,,AMP,left,0.43369346219537874,,,left,0,0.43369346219537874,0,,,,,,,,,,,,,,,,,,,,,,1031,2019_Mar_07_1359,mf_amp_cond1,3.0.4,59.985070865292094,
mecan,gazily,&&&&&&,None,nonword,,,,,,,0,147,147,147,,,,,,,,,,,,,,,,,,,,,AMP,left,0.21697437874422576,,,left,0,0.21697437874422576,0,,,,,,,,,,,,,,,,,,,,,,1031,2019_Mar_07_1359,mf_amp_cond1,3.0.4,59.985070865292094,
refused,brotesque,&&&&&&&&&,right,authority.vice,,,,,,,0,148,148,148,,,,,,,,,,,,,,,,,,,,,AMP,left,0.1502861808914986,,,left,0,0.1502861808914986,0,,,,,,,,,,,,,,,,,,,,,,1031,2019_Mar_07_1359,mf_amp_cond1,3.0.4,59.985070865292094,
respect,thabbily,&&&&&&&&,left,sanctity.virtue,,,,,,,0,149,149,149,,,,,,,,,,,,,,,,,,,,,AMP,left,0.35034949155829054,,,left,1,0.35034949155829054,1,,,,,,,,,,,,,,,,,,,,,,1031,2019_Mar_07_1359,mf_amp_cond1,3.0.4,59.985070865292094,
hescribe,viscs,&&&&&,None,nonword,,,,,,,0,150,150,150,,,,,,,,,,,,,,,,,,,,,AMP,left,0.18366732329309343,,,left,0,0.18366732329309343,0,,,,,,,,,,,,,,,,,,,,,,1031,2019_Mar_07_1359,mf_amp_cond1,3.0.4,59.985070865292094,
embrace,ugeasily,&&&&&&&&,left,authority.virtue,,,,,,,0,151,151,151,,,,,,,,,,,,,,,,,,,,,AMP,left,0.08360054882064105,,,left,1,0.08360054882064105,1,,,,,,,,,,,,,,,,,,,,,,1031,2019_Mar_07_1359,mf_amp_cond1,3.0.4,59.985070865292094,
penalty,bluently,&&&&&&&&,right,authority.vice,,,,,,,0,152,152,152,,,,,,,,,,,,,,,,,,,,,AMP,left,0.2336641481379047,,,left,0,0.2336641481379047,0,,,,,,,,,,,,,,,,,,,,,,1031,2019_Mar_07_1359,mf_amp_cond1,3.0.4,59.985070865292094,
drug,sonvoy,&&&&&&,right,sanctity.vice,,,,,,,0,153,153,153,,,,,,,,,,,,,,,,,,,,,AMP,left,0.6170827188821022,,,left,0,0.6170827188821022,0,,,,,,,,,,,,,,,,,,,,,,1031,2019_Mar_07_1359,mf_amp_cond1,3.0.4,59.985070865292094,
scandal,edancipation,&&&&&&&&&&&&,right,sanctity.vice,,,,,,,0,154,154,154,,,,,,,,,,,,,,,,,,,,,AMP,left,0.5003845465525956,,,left,0,0.5003845465525956,0,,,,,,,,,,,,,,,,,,,,,,1031,2019_Mar_07_1359,mf_amp_cond1,3.0.4,59.985070865292094,
promised,yane,&&&&,left,loyalty.virtue,,,,,,,0,155,155,155,,,,,,,,,,,,,,,,,,,,,AMP,right,0.6004141171881656,,,right,0,0.6004141171881656,0,,,,,,,,,,,,,,,,,,,,,,1031,2019_Mar_07_1359,mf_amp_cond1,3.0.4,59.985070865292094,
civilians,framatic,&&&&&&&&,right,care.vice,,,,,,,0,156,156,156,,,,,,,,,,,,,,,,,,,,,AMP,right,0.4503466691980975,,,right,1,0.4503466691980975,1,,,,,,,,,,,,,,,,,,,,,,1031,2019_Mar_07_1359,mf_amp_cond1,3.0.4,59.985070865292094,
victim,Oregoniuns,&&&&&&&&&&,right,care.vice,,,,,,,0,157,157,157,,,,,,,,,,,,,,,,,,,,,AMP,left,0.4503383304072486,,,left,0,0.4503383304072486,0,,,,,,,,,,,,,,,,,,,,,,1031,2019_Mar_07_1359,mf_amp_cond1,3.0.4,59.985070865292094,
promises,sliptery,&&&&&&&&,left,fairness.virtue,,,,,,,0,158,158,158,,,,,,,,,,,,,,,,,,,,,AMP,left,0.43367486027727864,,,left,1,0.43367486027727864,1,,,,,,,,,,,,,,,,,,,,,,1031,2019_Mar_07_1359,mf_amp_cond1,3.0.4,59.985070865292094,
care,quarterbocks,&&&&&&&&&&&&,left,care.virtue,,,,,,,0,159,159,159,,,,,,,,,,,,,,,,,,,,,AMP,left,0.5670717822367806,,,left,1,0.5670717822367806,1,,,,,,,,,,,,,,,,,,,,,,1031,2019_Mar_07_1359,mf_amp_cond1,3.0.4,59.985070865292094,
abuse,dramens,&&&&&&&,right,sanctity.vice,,,,,,,0,160,160,160,,,,,,,,,,,,,,,,,,,,,AMP,left,0.3670007742246071,,,left,0,0.3670007742246071,0,,,,,,,,,,,,,,,,,,,,,,1031,2019_Mar_07_1359,mf_amp_cond1,3.0.4,59.985070865292094,
touls,forepo,&&&&&&,None,nonword,,,,,,,0,161,161,161,,,,,,,,,,,,,,,,,,,,,AMP,left,0.5670502938139634,,,left,0,0.5670502938139634,0,,,,,,,,,,,,,,,,,,,,,,1031,2019_Mar_07_1359,mf_amp_cond1,3.0.4,59.985070865292094,
metibolic,egpeditious,&&&&&&&&&&&,None,nonword,,,,,,,0,162,162,162,,,,,,,,,,,,,,,,,,,,,AMP,left,0.533735861740297,,,left,0,0.533735861740297,0,,,,,,,,,,,,,,,,,,,,,,1031,2019_Mar_07_1359,mf_amp_cond1,3.0.4,59.985070865292094,
killed,shoirmaster,&&&&&&&&&&&,right,care.vice,,,,,,,0,163,163,163,,,,,,,,,,,,,,,,,,,,,AMP,left,0.3503401905991268,,,left,0,0.3503401905991268,0,,,,,,,,,,,,,,,,,,,,,,1031,2019_Mar_07_1359,mf_amp_cond1,3.0.4,59.985070865292094,
metibolic,focomotive,&&&&&&&&&&,None,nonword,,,,,,,0,164,164,164,,,,,,,,,,,,,,,,,,,,,AMP,left,0.20030128693201732,,,left,0,0.20030128693201732,0,,,,,,,,,,,,,,,,,,,,,,1031,2019_Mar_07_1359,mf_amp_cond1,3.0.4,59.985070865292094,
ability,gikely,&&&&&&,left,authority.virtue,,,,,,,0,165,165,165,,,,,,,,,,,,,,,,,,,,,AMP,left,0.750443078450644,,,left,1,0.750443078450644,1,,,,,,,,,,,,,,,,,,,,,,1031,2019_Mar_07_1359,mf_amp_cond1,3.0.4,59.985070865292094,
slavery,shoirmaster,&&&&&&&&&&&,right,loyalty.vice,,,,,,,0,166,166,166,,,,,,,,,,,,,,,,,,,,,AMP,left,0.2503151100818286,,,left,0,0.2503151100818286,0,,,,,,,,,,,,,,,,,,,,,,1031,2019_Mar_07_1359,mf_amp_cond1,3.0.4,59.985070865292094,
support,yane,&&&&,left,loyalty.virtue,,,,,,,0,167,167,167,,,,,,,,,,,,,,,,,,,,,AMP,left,0.08361433989807665,,,left,1,0.08361433989807665,1,,,,,,,,,,,,,,,,,,,,,,1031,2019_Mar_07_1359,mf_amp_cond1,3.0.4,59.985070865292094,
drug,squets,&&&&&&,right,sanctity.vice,,,,,,,0,168,168,168,,,,,,,,,,,,,,,,,,,,,AMP,left,0.4671015453063774,,,left,0,0.4671015453063774,0,,,,,,,,,,,,,,,,,,,,,,1031,2019_Mar_07_1359,mf_amp_cond1,3.0.4,59.985070865292094,
touls,openet,&&&&&&,None,nonword,,,,,,,0,169,169,169,,,,,,,,,,,,,,,,,,,,,AMP,left,0.06693996519516077,,,left,0,0.06693996519516077,0,,,,,,,,,,,,,,,,,,,,,,1031,2019_Mar_07_1359,mf_amp_cond1,3.0.4,59.985070865292094,
useful,chared,&&&&&&,left,authority.virtue,,,,,,,0,170,170,170,,,,,,,,,,,,,,,,,,,,,AMP,left,0.03356042640734813,,,left,1,0.03356042640734813,1,,,,,,,,,,,,,,,,,,,,,,1031,2019_Mar_07_1359,mf_amp_cond1,3.0.4,59.985070865292094,
prison,brudent,&&&&&&&,right,fairness.vice,,,,,,,0,171,171,171,,,,,,,,,,,,,,,,,,,,,AMP,left,0.5837188955079,,,left,0,0.5837188955079,0,,,,,,,,,,,,,,,,,,,,,,1031,2019_Mar_07_1359,mf_amp_cond1,3.0.4,59.985070865292094,
fair,neutralust,&&&&&&&&&&,left,fairness.virtue,,,,,,,0,172,172,172,,,,,,,,,,,,,,,,,,,,,AMP,left,0.6337317564893965,,,left,1,0.6337317564893965,1,,,,,,,,,,,,,,,,,,,,,,1031,2019_Mar_07_1359,mf_amp_cond1,3.0.4,59.985070865292094,
died,noped,&&&&&,right,care.vice,,,,,,,0,173,173,173,,,,,,,,,,,,,,,,,,,,,AMP,left,0.3670177725293797,,,left,0,0.3670177725293797,0,,,,,,,,,,,,,,,,,,,,,,1031,2019_Mar_07_1359,mf_amp_cond1,3.0.4,59.985070865292094,
groups,galamitous,&&&&&&&&&&,right,loyalty.vice,,,,,,,0,174,174,174,,,,,,,,,,,,,,,,,,,,,AMP,left,0.33361321736856553,,,left,0,0.33361321736856553,0,,,,,,,,,,,,,,,,,,,,,,1031,2019_Mar_07_1359,mf_amp_cond1,3.0.4,59.985070865292094,
respect,Phintoism,&&&&&&&&&,left,sanctity.virtue,,,,,,,0,175,175,175,,,,,,,,,,,,,,,,,,,,,AMP,left,0.06692072183136588,,,left,1,0.06692072183136588,1,,,,,,,,,,,,,,,,,,,,,,1031,2019_Mar_07_1359,mf_amp_cond1,3.0.4,59.985070865292094,
fear,disregord,&&&&&&&&&,right,sanctity.vice,,,,,,,0,176,176,176,,,,,,,,,,,,,,,,,,,,,AMP,left,0.30023688580786256,,,left,0,0.30023688580786256,0,,,,,,,,,,,,,,,,,,,,,,1031,2019_Mar_07_1359,mf_amp_cond1,3.0.4,59.985070865292094,
integrity,Loorish,&&&&&&&,left,fairness.virtue,,,,,,,0,177,177,177,,,,,,,,,,,,,,,,,,,,,AMP,left,0.4670197610100786,,,left,1,0.4670197610100786,1,,,,,,,,,,,,,,,,,,,,,,1031,2019_Mar_07_1359,mf_amp_cond1,3.0.4,59.985070865292094,
forced,vurtain,&&&&&&&,right,fairness.vice,,,,,,,0,178,178,178,,,,,,,,,,,,,,,,,,,,,AMP,left,0.06692489122701772,,,left,0,0.06692489122701772,0,,,,,,,,,,,,,,,,,,,,,,1031,2019_Mar_07_1359,mf_amp_cond1,3.0.4,59.985070865292094,
torture,aubos,&&&&&,right,care.vice,,,,,,,0,179,179,179,,,,,,,,,,,,,,,,,,,,,AMP,left,0.23362534068769492,,,left,0,0.23362534068769492,0,,,,,,,,,,,,,,,,,,,,,,1031,2019_Mar_07_1359,mf_amp_cond1,3.0.4,59.985070865292094,
lursuer,viscs,&&&&&,None,nonword,,,,,,,0,180,180,180,,,,,,,,,,,,,,,,,,,,,AMP,left,0.23360353154225777,,,left,0,0.23360353154225777,0,,,,,,,,,,,,,,,,,,,,,,1031,2019_Mar_07_1359,mf_amp_cond1,3.0.4,59.985070865292094,
refused,abointment,&&&&&&&&&&,right,authority.vice,,,,,,,0,181,181,181,,,,,,,,,,,,,,,,,,,,,AMP,left,0.21696924718025912,,,left,0,0.21696924718025912,0,,,,,,,,,,,,,,,,,,,,,,1031,2019_Mar_07_1359,mf_amp_cond1,3.0.4,59.985070865292094,
scandal,strofe,&&&&&&,right,sanctity.vice,,,,,,,0,182,182,182,,,,,,,,,,,,,,,,,,,,,AMP,left,0.500356322952257,,,left,0,0.500356322952257,0,,,,,,,,,,,,,,,,,,,,,,1031,2019_Mar_07_1359,mf_amp_cond1,3.0.4,59.985070865292094,
promises,asn,&&&,left,fairness.virtue,,,,,,,0,183,183,183,,,,,,,,,,,,,,,,,,,,,AMP,left,0.05024442279204777,,,left,1,0.05024442279204777,1,,,,,,,,,,,,,,,,,,,,,,1031,2019_Mar_07_1359,mf_amp_cond1,3.0.4,59.985070865292094,
promote,nuckheap,&&&&&&&&,left,sanctity.virtue,,,,,,,0,184,184,184,,,,,,,,,,,,,,,,,,,,,AMP,left,0.05024570568298259,,,left,1,0.05024570568298259,1,,,,,,,,,,,,,,,,,,,,,,1031,2019_Mar_07_1359,mf_amp_cond1,3.0.4,59.985070865292094,
hatigue,seachwear,&&&&&&&&&,None,nonword,,,,,,,0,185,185,185,,,,,,,,,,,,,,,,,,,,,AMP,left,0.11696308930390842,,,left,0,0.11696308930390842,0,,,,,,,,,,,,,,,,,,,,,,1031,2019_Mar_07_1359,mf_amp_cond1,3.0.4,59.985070865292094,
peace,sidearbs,&&&&&&&&,left,care.virtue,,,,,,,0,186,186,186,,,,,,,,,,,,,,,,,,,,,AMP,left,0.4003674841032989,,,left,1,0.4003674841032989,1,,,,,,,,,,,,,,,,,,,,,,1031,2019_Mar_07_1359,mf_amp_cond1,3.0.4,59.985070865292094,
critics,papert,&&&&&&,right,loyalty.vice,,,,,,,0,187,187,187,,,,,,,,,,,,,,,,,,,,,AMP,left,0.3169959313115669,,,left,0,0.3169959313115669,0,,,,,,,,,,,,,,,,,,,,,,1031,2019_Mar_07_1359,mf_amp_cond1,3.0.4,59.985070865292094,
abuse,feleological,&&&&&&&&&&&&,right,sanctity.vice,,,,,,,0,188,188,188,,,,,,,,,,,,,,,,,,,,,AMP,left,0.1669493302988485,,,left,0,0.1669493302988485,0,,,,,,,,,,,,,,,,,,,,,,1031,2019_Mar_07_1359,mf_amp_cond1,3.0.4,59.985070865292094,
honored,supervuned,&&&&&&&&&&,left,authority.virtue,,,,,,,0,189,189,189,,,,,,,,,,,,,,,,,,,,,AMP,left,0.6837452589163604,,,left,1,0.6837452589163604,1,,,,,,,,,,,,,,,,,,,,,,1031,2019_Mar_07_1359,mf_amp_cond1,3.0.4,59.985070865292094,
great,fonderland,&&&&&&&&&&,left,loyalty.virtue,,,,,,,0,190,190,190,,,,,,,,,,,,,,,,,,,,,AMP,left,0.5170473752373255,,,left,1,0.5170473752373255,1,,,,,,,,,,,,,,,,,,,,,,1031,2019_Mar_07_1359,mf_amp_cond1,3.0.4,59.985070865292094,
conspiracy,ilportation,&&&&&&&&&&&,right,sanctity.vice,,,,,,,0,191,191,191,,,,,,,,,,,,,,,,,,,,,AMP,left,0.5337118075353828,,,left,0,0.5337118075353828,0,,,,,,,,,,,,,,,,,,,,,,1031,2019_Mar_07_1359,mf_amp_cond1,3.0.4,59.985070865292094,
intelligence,totalestic,&&&&&&&&&&,left,loyalty.virtue,,,,,,,0,192,192,192,,,,,,,,,,,,,,,,,,,,,AMP,left,0.4337139884503358,,,left,1,0.4337139884503358,1,,,,,,,,,,,,,,,,,,,,,,1031,2019_Mar_07_1359,mf_amp_cond1,3.0.4,59.985070865292094,
pleasant,baladroit,&&&&&&&&&,None,control,,,,,,,0,193,193,193,,,,,,,,,,,,,,,,,,,,,AMP,left,0.5837310829715534,,,left,0,0.5837310829715534,0,,,,,,,,,,,,,,,,,,,,,,1031,2019_Mar_07_1359,mf_amp_cond1,3.0.4,59.985070865292094,
hescribe,bruthfulness,&&&&&&&&&&&&,None,nonword,,,,,,,0,194,194,194,,,,,,,,,,,,,,,,,,,,,AMP,left,0.6169986895267812,,,left,0,0.6169986895267812,0,,,,,,,,,,,,,,,,,,,,,,1031,2019_Mar_07_1359,mf_amp_cond1,3.0.4,59.985070865292094,
actively,egpeditious,&&&&&&&&&&&,left,authority.virtue,,,,,,,0,195,195,195,,,,,,,,,,,,,,,,,,,,,AMP,left,0.5503980489795595,,,left,1,0.5503980489795595,1,,,,,,,,,,,,,,,,,,,,,,1031,2019_Mar_07_1359,mf_amp_cond1,3.0.4,59.985070865292094,
sharing,suggists,&&&&&&&&,left,loyalty.virtue,,,,,,,0,196,196,196,,,,,,,,,,,,,,,,,,,,,AMP,left,0.4836963807722441,,,left,1,0.4836963807722441,1,,,,,,,,,,,,,,,,,,,,,,1031,2019_Mar_07_1359,mf_amp_cond1,3.0.4,59.985070865292094,
voter,Cunday,&&&&&&,right,fairness.vice,,,,,,,0,197,197,197,,,,,,,,,,,,,,,,,,,,,AMP,left,0.5837259514078141,,,left,0,0.5837259514078141,0,,,,,,,,,,,,,,,,,,,,,,1031,2019_Mar_07_1359,mf_amp_cond1,3.0.4,59.985070865292094,
restore,gowlands,&&&&&&&&,left,care.virtue,,,,,,,0,198,198,198,,,,,,,,,,,,,,,,,,,,,AMP,left,0.5337361824631444,,,left,1,0.5337361824631444,1,,,,,,,,,,,,,,,,,,,,,,1031,2019_Mar_07_1359,mf_amp_cond1,3.0.4,59.985070865292094,
growth,honstables,&&&&&&&&&&,left,care.virtue,,,,,,,0,199,199,199,,,,,,,,,,,,,,,,,,,,,AMP,left,0.4336918585818239,,,left,1,0.4336918585818239,1,,,,,,,,,,,,,,,,,,,,,,1031,2019_Mar_07_1359,mf_amp_cond1,3.0.4,59.985070865292094,
increase,letish,&&&&&&,left,care.virtue,,,,,,,0,200,200,200,,,,,,,,,,,,,,,,,,,,,AMP,left,0.333669343846168,,,left,1,0.333669343846168,1,,,,,,,,,,,,,,,,,,,,,,1031,2019_Mar_07_1359,mf_amp_cond1,3.0.4,59.985070865292094,
shot,saned,&&&&&,right,care.vice,,,,,,,0,201,201,201,,,,,,,,,,,,,,,,,,,,,AMP,left,0.16697242233544785,,,left,0,0.16697242233544785,0,,,,,,,,,,,,,,,,,,,,,,1031,2019_Mar_07_1359,mf_amp_cond1,3.0.4,59.985070865292094,
carvels,sliptery,&&&&&&&&,None,nonword,,,,,,,0,202,202,202,,,,,,,,,,,,,,,,,,,,,AMP,left,0.5503986904250269,,,left,0,0.5503986904250269,0,,,,,,,,,,,,,,,,,,,,,,1031,2019_Mar_07_1359,mf_amp_cond1,3.0.4,59.985070865292094,
iptervention,gazily,&&&&&&,None,nonword,,,,,,,0,203,203,203,,,,,,,,,,,,,,,,,,,,,AMP,left,0.18362595006078664,,,left,0,0.18362595006078664,0,,,,,,,,,,,,,,,,,,,,,,1031,2019_Mar_07_1359,mf_amp_cond1,3.0.4,59.985070865292094,
charges,presentkess,&&&&&&&&&&&,right,fairness.vice,,,,,,,0,204,204,204,,,,,,,,,,,,,,,,,,,,,AMP,left,0.21696924718025912,,,left,0,0.21696924718025912,0,,,,,,,,,,,,,,,,,,,,,,1031,2019_Mar_07_1359,mf_amp_cond1,3.0.4,59.985070865292094,
crime,quarterbocks,&&&&&&&&&&&&,right,fairness.vice,,,,,,,0,205,205,205,,,,,,,,,,,,,,,,,,,,,AMP,left,0.2002993625956151,,,left,0,0.2002993625956151,0,,,,,,,,,,,,,,,,,,,,,,1031,2019_Mar_07_1359,mf_amp_cond1,3.0.4,59.985070865292094,
commitment,lachelor,&&&&&&&&,left,sanctity.virtue,,,,,,,0,206,206,206,,,,,,,,,,,,,,,,,,,,,AMP,left,0.26699750285274604,,,left,1,0.26699750285274604,1,,,,,,,,,,,,,,,,,,,,,,1031,2019_Mar_07_1359,mf_amp_cond1,3.0.4,59.985070865292094,
blamed,thabbily,&&&&&&&&,right,loyalty.vice,,,,,,,0,207,207,207,,,,,,,,,,,,,,,,,,,,,AMP,left,0.4503671954530546,,,left,0,0.4503671954530546,0,,,,,,,,,,,,,,,,,,,,,,1031,2019_Mar_07_1359,mf_amp_cond1,3.0.4,59.985070865292094,
faith,gondensed,&&&&&&&&&,left,sanctity.virtue,,,,,,,0,208,208,208,,,,,,,,,,,,,,,,,,,,,AMP,left,0.5503868236839935,,,left,1,0.5503868236839935,1,,,,,,,,,,,,,,,,,,,,,,1031,2019_Mar_07_1359,mf_amp_cond1,3.0.4,59.985070865292094,
officers,juck,&&&&,right,authority.vice,,,,,,,0,209,209,209,,,,,,,,,,,,,,,,,,,,,AMP,left,0.3503578303491395,,,left,0,0.3503578303491395,0,,,,,,,,,,,,,,,,,,,,,,1031,2019_Mar_07_1359,mf_amp_cond1,3.0.4,59.985070865292094,
terrorists,discovars,&&&&&&&&&,right,fairness.vice,,,,,,,0,210,210,210,,,,,,,,,,,,,,,,,,,,,AMP,left,0.31699240336160983,,,left,0,0.31699240336160983,0,,,,,,,,,,,,,,,,,,,,,,1031,2019_Mar_07_1359,mf_amp_cond1,3.0.4,59.985070865292094,
progress,unreflectuve,&&&&&&&&&&&&,left,authority.virtue,,,,,,,0,211,211,211,,,,,,,,,,,,,,,,,,,,,AMP,left,0.2836503891328448,,,left,1,0.2836503891328448,1,,,,,,,,,,,,,,,,,,,,,,1031,2019_Mar_07_1359,mf_amp_cond1,3.0.4,59.985070865292094,
scalbel,leact,&&&&&,None,nonword,,,,,,,0,212,212,212,,,,,,,,,,,,,,,,,,,,,AMP,left,0.28362793854194024,,,left,0,0.28362793854194024,0,,,,,,,,,,,,,,,,,,,,,,1031,2019_Mar_07_1359,mf_amp_cond1,3.0.4,59.985070865292094,
promised,sickyay,&&&&&&&,left,loyalty.virtue,,,,,,,0,213,213,213,,,,,,,,,,,,,,,,,,,,,AMP,left,0.21695898405300795,,,left,1,0.21695898405300795,1,,,,,,,,,,,,,,,,,,,,,,1031,2019_Mar_07_1359,mf_amp_cond1,3.0.4,59.985070865292094,
interests,coom,&&&&,left,fairness.virtue,,,,,,,0,214,214,214,,,,,,,,,,,,,,,,,,,,,AMP,left,0.767090191721536,,,left,1,0.767090191721536,1,,,,,,,,,,,,,,,,,,,,,,1031,2019_Mar_07_1359,mf_amp_cond1,3.0.4,59.985070865292094,
riot,reprisols,&&&&&&&&&,right,authority.vice,,,,,,,0,215,215,215,,,,,,,,,,,,,,,,,,,,,AMP,left,0.3670071886790538,,,left,0,0.3670071886790538,0,,,,,,,,,,,,,,,,,,,,,,1031,2019_Mar_07_1359,mf_amp_cond1,3.0.4,59.985070865292094,
black,edancipation,&&&&&&&&&&&&,right,loyalty.vice,,,,,,,0,216,216,216,,,,,,,,,,,,,,,,,,,,,AMP,left,0.23365228139687133,,,left,0,0.23365228139687133,0,,,,,,,,,,,,,,,,,,,,,,1031,2019_Mar_07_1359,mf_amp_cond1,3.0.4,59.985070865292094,
racist,dramens,&&&&&&&,right,sanctity.vice,,,,,,,0,217,217,217,,,,,,,,,,,,,,,,,,,,,AMP,left,0.517066297878273,,,left,0,0.517066297878273,0,,,,,,,,,,,,,,,,,,,,,,1031,2019_Mar_07_1359,mf_amp_cond1,3.0.4,59.985070865292094,
strong,grovelire,&&&&&&&&&,left,loyalty.virtue,,,,,,,0,218,218,218,,,,,,,,,,,,,,,,,,,,,AMP,left,0.4170271055606918,,,left,1,0.4170271055606918,1,,,,,,,,,,,,,,,,,,,,,,1031,2019_Mar_07_1359,mf_amp_cond1,3.0.4,59.985070865292094,
ban,chonograph,&&&&&&&&&&,right,loyalty.vice,,,,,,,0,219,219,219,,,,,,,,,,,,,,,,,,,,,AMP,left,0.06691045870411472,,,left,0,0.06691045870411472,0,,,,,,,,,,,,,,,,,,,,,,1031,2019_Mar_07_1359,mf_amp_cond1,3.0.4,59.985070865292094,
betrayal,tabin,&&&&&,right,loyalty.vice,,,,,,,0,220,220,220,,,,,,,,,,,,,,,,,,,,,AMP,left,0.23363913176490314,,,left,0,0.23363913176490314,0,,,,,,,,,,,,,,,,,,,,,,1031,2019_Mar_07_1359,mf_amp_cond1,3.0.4,59.985070865292094,
civilians,divility,&&&&&&&&,right,care.vice,,,,,,,0,221,221,221,,,,,,,,,,,,,,,,,,,,,AMP,left,0.883663602909337,,,left,0,0.883663602909337,0,,,,,,,,,,,,,,,,,,,,,,1031,2019_Mar_07_1359,mf_amp_cond1,3.0.4,59.985070865292094,
embrace,troubla,&&&&&&&,left,authority.virtue,,,,,,,0,222,222,222,,,,,,,,,,,,,,,,,,,,,AMP,left,0.7338091148117201,,,left,1,0.7338091148117201,1,,,,,,,,,,,,,,,,,,,,,,1031,2019_Mar_07_1359,mf_amp_cond1,3.0.4,59.985070865292094,
threatened,drumbled,&&&&&&&&,right,fairness.vice,,,,,,,0,223,223,223,,,,,,,,,,,,,,,,,,,,,AMP,left,0.23364907416976166,,,left,0,0.23364907416976166,0,,,,,,,,,,,,,,,,,,,,,,1031,2019_Mar_07_1359,mf_amp_cond1,3.0.4,59.985070865292094,
good,pafer,&&&&&,left,care.virtue,,,,,,,0,224,224,224,,,,,,,,,,,,,,,,,,,,,AMP,left,0.21698015175320506,,,left,1,0.21698015175320506,1,,,,,,,,,,,,,,,,,,,,,,1031,2019_Mar_07_1359,mf_amp_cond1,3.0.4,59.985070865292094,
praise,emassion,&&&&&&&&,left,authority.virtue,,,,,,,0,225,225,225,,,,,,,,,,,,,,,,,,,,,AMP,left,0.2836580864784537,,,left,1,0.2836580864784537,1,,,,,,,,,,,,,,,,,,,,,,1031,2019_Mar_07_1359,mf_amp_cond1,3.0.4,59.985070865292094,
care,vicissifude,&&&&&&&&&&&,left,care.virtue,,,,,,,0,226,226,226,,,,,,,,,,,,,,,,,,,,,AMP,left,0.1835977264606754,,,left,1,0.1835977264606754,1,,,,,,,,,,,,,,,,,,,,,,1031,2019_Mar_07_1359,mf_amp_cond1,3.0.4,59.985070865292094,
killed,forepo,&&&&&&,right,care.vice,,,,,,,0,227,227,227,,,,,,,,,,,,,,,,,,,,,AMP,left,0.933817581891617,,,left,0,0.933817581891617,0,,,,,,,,,,,,,,,,,,,,,,1031,2019_Mar_07_1359,mf_amp_cond1,3.0.4,59.985070865292094,
strength,emports,&&&&&&&,left,sanctity.virtue,,,,,,,0,228,228,228,,,,,,,,,,,,,,,,,,,,,AMP,left,0.20032502041408407,,,left,1,0.20032502041408407,1,,,,,,,,,,,,,,,,,,,,,,1031,2019_Mar_07_1359,mf_amp_cond1,3.0.4,59.985070865292094,
prosecution,framatic,&&&&&&&&,right,authority.vice,,,,,,,0,229,229,229,,,,,,,,,,,,,,,,,,,,,AMP,left,0.5837179333395852,,,left,0,0.5837179333395852,0,,,,,,,,,,,,,,,,,,,,,,1031,2019_Mar_07_1359,mf_amp_cond1,3.0.4,59.985070865292094,
win,lempestuous,&&&&&&&&&&&,left,fairness.virtue,,,,,,,0,230,230,230,,,,,,,,,,,,,,,,,,,,,AMP,left,0.06693675796782372,,,left,1,0.06693675796782372,1,,,,,,,,,,,,,,,,,,,,,,1031,2019_Mar_07_1359,mf_amp_cond1,3.0.4,59.985070865292094,
unpleasant,Oregoniuns,&&&&&&&&&&,None,control,,,,,,,0,231,231,231,,,,,,,,,,,,,,,,,,,,,AMP,left,0.7504196656914246,,,left,0,0.7504196656914246,0,,,,,,,,,,,,,,,,,,,,,,1031,2019_Mar_07_1359,mf_amp_cond1,3.0.4,59.985070865292094,
praised,epigrach,&&&&&&&&,left,loyalty.virtue,,,,,,,0,232,232,232,,,,,,,,,,,,,,,,,,,,,AMP,left,0.3836818841048171,,,left,1,0.3836818841048171,1,,,,,,,,,,,,,,,,,,,,,,1031,2019_Mar_07_1359,mf_amp_cond1,3.0.4,59.985070865292094,
free,Daptist,&&&&&&&,left,fairness.virtue,,,,,,,0,233,233,233,,,,,,,,,,,,,,,,,,,,,AMP,left,0.8171312763033711,,,left,1,0.8171312763033711,1,,,,,,,,,,,,,,,,,,,,,,1031,2019_Mar_07_1359,mf_amp_cond1,3.0.4,59.985070865292094,
injured,ugeasily,&&&&&&&&,right,care.vice,,,,,,,0,234,234,234,,,,,,,,,,,,,,,,,,,,,AMP,left,0.7002765912818631,,,left,0,0.7002765912818631,0,,,,,,,,,,,,,,,,,,,,,,1031,2019_Mar_07_1359,mf_amp_cond1,3.0.4,59.985070865292094,
opportunity,gationwide,&&&&&&&&&&,left,fairness.virtue,,,,,,,0,235,235,235,,,,,,,,,,,,,,,,,,,,,AMP,left,0.016903370731824907,,,left,1,0.016903370731824907,1,,,,,,,,,,,,,,,,,,,,,,1031,2019_Mar_07_1359,mf_amp_cond1,3.0.4,59.985070865292094,
hand,refuejing,&&&&&&&&&,left,sanctity.virtue,,,,,,,0,236,236,236,,,,,,,,,,,,,,,,,,,,,AMP,left,0.43368768918617207,,,left,1,0.43368768918617207,1,,,,,,,,,,,,,,,,,,,,,,1031,2019_Mar_07_1359,mf_amp_cond1,3.0.4,59.985070865292094,
violations,nomaric,&&&&&&&,right,sanctity.vice,,,,,,,0,237,237,237,,,,,,,,,,,,,,,,,,,,,AMP,left,0.3169821402339039,,,left,0,0.3169821402339039,0,,,,,,,,,,,,,,,,,,,,,,1031,2019_Mar_07_1359,mf_amp_cond1,3.0.4,59.985070865292094,
rejected,sonvoy,&&&&&&,right,authority.vice,,,,,,,0,238,238,238,,,,,,,,,,,,,,,,,,,,,AMP,left,1.1171815014827189,,,left,0,1.1171815014827189,0,,,,,,,,,,,,,,,,,,,,,,1031,2019_Mar_07_1359,mf_amp_cond1,3.0.4,59.985070865292094,
compassion,bluently,&&&&&&&&,left,care.virtue,,,,,,,0,239,239,239,,,,,,,,,,,,,,,,,,,,,AMP,left,0.15030863148263052,,,left,1,0.15030863148263052,1,,,,,,,,,,,,,,,,,,,,,,1031,2019_Mar_07_1359,mf_amp_cond1,3.0.4,59.985070865292094,
energy,simplustic,&&&&&&&&&&,left,sanctity.virtue,,,,,,,0,240,240,240,,,,,,,,,,,,,,,,,,,,,AMP,left,0.45036238461193534,,,left,1,0.45036238461193534,1,,,,,,,,,,,,,,,,,,,,,,1031,2019_Mar_07_1359,mf_amp_cond1,3.0.4,59.985070865292094,
victim,brotesque,&&&&&&&&&,right,care.vice,,,,,,,0,241,241,241,,,,,,,,,,,,,,,,,,,,,AMP,left,0.46703130702849194,,,left,0,0.46703130702849194,0,,,,,,,,,,,,,,,,,,,,,,1031,2019_Mar_07_1359,mf_amp_cond1,3.0.4,59.985070865292094,
penalty,ammessment,&&&&&&&&&&,right,authority.vice,,,,,,,0,242,242,242,,,,,,,,,,,,,,,,,,,,,AMP,left,0.9171579604342242,,,left,0,0.9171579604342242,0,,,,,,,,,,,,,,,,,,,,,,1031,2019_Mar_07_1359,mf_amp_cond1,3.0.4,59.985070865292094,
prones,elduringly,&&&&&&&&&&,None,nonword,,,,,,,0,243,243,243,,,,,,,,,,,,,,,,,,,,,AMP,left,0.10026337750537095,,,left,0,0.10026337750537095,0,,,,,,,,,,,,,,,,,,,,,,1031,2019_Mar_07_1359,mf_amp_cond1,3.0.4,59.985070865292094,
fighters,taxpayung,&&&&&&&&&,right,authority.vice,,,,,,,0,244,244,244,,,,,,,,,,,,,,,,,,,,,AMP,left,0.13356882934272107,,,left,0,0.13356882934272107,0,,,,,,,,,,,,,,,,,,,,,,1031,2019_Mar_07_1359,mf_amp_cond1,3.0.4,59.985070865292094,
mecan,counpy's,&&&&&&&&,None,nonword,,,,,,,0,245,245,245,,,,,,,,,,,,,,,,,,,,,AMP,left,0.30032508455860807,,,left,0,0.30032508455860807,0,,,,,,,,,,,,,,,,,,,,,,1031,2019_Mar_07_1359,mf_amp_cond1,3.0.4,59.985070865292094,
fair,Daptist,&&&&&&&,left,fairness.virtue,,,,,,,0,246,246,246,,,,,,,,,,,,,,,,,,,,,AMP,left,0.13362046570227903,,,left,1,0.13362046570227903,1,,,,,,,,,,,,,,,,,,,,,,1031,2019_Mar_07_1359,mf_amp_cond1,3.0.4,59.985070865292094,
scalbel,discovars,&&&&&&&&&,None,nonword,,,,,,,0,247,247,247,,,,,,,,,,,,,,,,,,,,,AMP,left,0.3669869831471715,,,left,0,0.3669869831471715,0,,,,,,,,,,,,,,,,,,,,,,1031,2019_Mar_07_1359,mf_amp_cond1,3.0.4,59.985070865292094,
support,vicissifude,&&&&&&&&&&&,left,loyalty.virtue,,,,,,,0,248,248,248,,,,,,,,,,,,,,,,,,,,,AMP,left,0.2169567389939857,,,left,1,0.2169567389939857,1,,,,,,,,,,,,,,,,,,,,,,1031,2019_Mar_07_1359,mf_amp_cond1,3.0.4,59.985070865292094,
refused,Cunday,&&&&&&,right,authority.vice,,,,,,,0,249,249,249,,,,,,,,,,,,,,,,,,,,,AMP,left,0.3670174518067597,,,left,0,0.3670174518067597,0,,,,,,,,,,,,,,,,,,,,,,1031,2019_Mar_07_1359,mf_amp_cond1,3.0.4,59.985070865292094,
growth,focomotive,&&&&&&&&&&,left,care.virtue,,,,,,,0,250,250,250,,,,,,,,,,,,,,,,,,,,,AMP,left,0.28364140889652845,,,left,1,0.28364140889652845,1,,,,,,,,,,,,,,,,,,,,,,1031,2019_Mar_07_1359,mf_amp_cond1,3.0.4,59.985070865292094,
conspiracy,brudent,&&&&&&&,right,sanctity.vice,,,,,,,0,251,251,251,,,,,,,,,,,,,,,,,,,,,AMP,left,0.517058279810044,,,left,0,0.517058279810044,0,,,,,,,,,,,,,,,,,,,,,,1031,2019_Mar_07_1359,mf_amp_cond1,3.0.4,59.985070865292094,
victim,quarterbocks,&&&&&&&&&&&&,right,care.vice,,,,,,,0,252,252,252,,,,,,,,,,,,,,,,,,,,,AMP,left,0.41702069110624507,,,left,0,0.41702069110624507,0,,,,,,,,,,,,,,,,,,,,,,1031,2019_Mar_07_1359,mf_amp_cond1,3.0.4,59.985070865292094,
unpleasant,pafer,&&&&&,None,control,,,,,,,0,253,253,253,,,,,,,,,,,,,,,,,,,,,AMP,left,0.46701174294207703,,,left,0,0.46701174294207703,0,,,,,,,,,,,,,,,,,,,,,,1031,2019_Mar_07_1359,mf_amp_cond1,3.0.4,59.985070865292094,
win,sidearbs,&&&&&&&&,left,fairness.virtue,,,,,,,0,254,254,254,,,,,,,,,,,,,,,,,,,,,AMP,left,0.46701174294184966,,,left,1,0.46701174294184966,1,,,,,,,,,,,,,,,,,,,,,,1031,2019_Mar_07_1359,mf_amp_cond1,3.0.4,59.985070865292094,
increase,taxpayung,&&&&&&&&&,left,care.virtue,,,,,,,0,255,255,255,,,,,,,,,,,,,,,,,,,,,AMP,left,0.2836532756375618,,,left,1,0.2836532756375618,1,,,,,,,,,,,,,,,,,,,,,,1031,2019_Mar_07_1359,mf_amp_cond1,3.0.4,59.985070865292094,
energy,thabbily,&&&&&&&&,left,sanctity.virtue,,,,,,,0,256,256,256,,,,,,,,,,,,,,,,,,,,,AMP,left,1.2672181600908061,,,left,1,1.2672181600908061,1,,,,,,,,,,,,,,,,,,,,,,1031,2019_Mar_07_1359,mf_amp_cond1,3.0.4,59.985070865292094,
metibolic,drumbled,&&&&&&&&,None,nonword,,,,,,,0,257,257,257,,,,,,,,,,,,,,,,,,,,,AMP,left,0.40032835593024174,,,left,0,0.40032835593024174,0,,,,,,,,,,,,,,,,,,,,,,1031,2019_Mar_07_1359,mf_amp_cond1,3.0.4,59.985070865292094,
ability,sonvoy,&&&&&&,left,authority.virtue,,,,,,,0,258,258,258,,,,,,,,,,,,,,,,,,,,,AMP,left,0.6335835825884715,,,left,1,0.6335835825884715,1,,,,,,,,,,,,,,,,,,,,,,1031,2019_Mar_07_1359,mf_amp_cond1,3.0.4,59.985070865292094,
compassion,brotesque,&&&&&&&&&,left,care.virtue,,,,,,,0,259,259,259,,,,,,,,,,,,,,,,,,,,,AMP,left,0.7671068693036887,,,left,1,0.7671068693036887,1,,,,,,,,,,,,,,,,,,,,,,1031,2019_Mar_07_1359,mf_amp_cond1,3.0.4,59.985070865292094,
promises,divility,&&&&&&&&,left,fairness.virtue,,,,,,,0,260,260,260,,,,,,,,,,,,,,,,,,,,,AMP,left,0.6837587292709486,,,left,1,0.6837587292709486,1,,,,,,,,,,,,,,,,,,,,,,1031,2019_Mar_07_1359,mf_amp_cond1,3.0.4,59.985070865292094,
hatigue,nomaric,&&&&&&&,None,nonword,,,,,,,0,261,261,261,,,,,,,,,,,,,,,,,,,,,AMP,left,0.633713154571069,,,left,0,0.633713154571069,0,,,,,,,,,,,,,,,,,,,,,,1031,2019_Mar_07_1359,mf_amp_cond1,3.0.4,59.985070865292094,
lursuer,chonograph,&&&&&&&&&&,None,nonword,,,,,,,0,262,262,262,,,,,,,,,,,,,,,,,,,,,AMP,left,0.7337606856794991,,,left,0,0.7337606856794991,0,,,,,,,,,,,,,,,,,,,,,,1031,2019_Mar_07_1359,mf_amp_cond1,3.0.4,59.985070865292094,
prison,forepo,&&&&&&,right,fairness.vice,,,,,,,0,263,263,263,,,,,,,,,,,,,,,,,,,,,AMP,left,0.36699692555203,,,left,0,0.36699692555203,0,,,,,,,,,,,,,,,,,,,,,,1031,2019_Mar_07_1359,mf_amp_cond1,3.0.4,59.985070865292094,
prones,supervuned,&&&&&&&&&&,None,nonword,,,,,,,0,264,264,264,,,,,,,,,,,,,,,,,,,,,AMP,left,0.15028297366416155,,,left,0,0.15028297366416155,0,,,,,,,,,,,,,,,,,,,,,,1031,2019_Mar_07_1359,mf_amp_cond1,3.0.4,59.985070865292094,
forced,gikely,&&&&&&,right,fairness.vice,,,,,,,0,265,265,265,,,,,,,,,,,,,,,,,,,,,AMP,right,0.6503753418103315,,,right,1,0.6503753418103315,1,,,,,,,,,,,,,,,,,,,,,,1031,2019_Mar_07_1359,mf_amp_cond1,3.0.4,59.985070865292094,
strength,neutralust,&&&&&&&&&&,left,sanctity.virtue,,,,,,,0,266,266,266,,,,,,,,,,,,,,,,,,,,,AMP,right,0.46702553401928526,,,right,0,0.46702553401928526,0,,,,,,,,,,,,,,,,,,,,,,1031,2019_Mar_07_1359,mf_amp_cond1,3.0.4,59.985070865292094,
violations,fonderland,&&&&&&&&&&,right,sanctity.vice,,,,,,,0,267,267,267,,,,,,,,,,,,,,,,,,,,,AMP,left,0.6504224880513902,,,left,0,0.6504224880513902,0,,,,,,,,,,,,,,,,,,,,,,1031,2019_Mar_07_1359,mf_amp_cond1,3.0.4,59.985070865292094,
ban,disregord,&&&&&&&&&,right,loyalty.vice,,,,,,,0,268,268,268,,,,,,,,,,,,,,,,,,,,,AMP,left,0.36700654723381376,,,left,0,0.36700654723381376,0,,,,,,,,,,,,,,,,,,,,,,1031,2019_Mar_07_1359,mf_amp_cond1,3.0.4,59.985070865292094,
good,Phintoism,&&&&&&&&&,left,care.virtue,,,,,,,0,269,269,269,,,,,,,,,,,,,,,,,,,,,AMP,left,0.48371594485888636,,,left,1,0.48371594485888636,1,,,,,,,,,,,,,,,,,,,,,,1031,2019_Mar_07_1359,mf_amp_cond1,3.0.4,59.985070865292094,
hescribe,vurtain,&&&&&&&,None,nonword,,,,,,,0,270,270,270,,,,,,,,,,,,,,,,,,,,,AMP,left,0.7671152080945376,,,left,0,0.7671152080945376,0,,,,,,,,,,,,,,,,,,,,,,1031,2019_Mar_07_1359,mf_amp_cond1,3.0.4,59.985070865292094,
promote,saned,&&&&&,left,sanctity.virtue,,,,,,,0,271,271,271,,,,,,,,,,,,,,,,,,,,,AMP,left,0.36698537953361665,,,left,1,0.36698537953361665,1,,,,,,,,,,,,,,,,,,,,,,1031,2019_Mar_07_1359,mf_amp_cond1,3.0.4,59.985070865292094,
critics,nuckheap,&&&&&&&&,right,loyalty.vice,,,,,,,0,272,272,272,,,,,,,,,,,,,,,,,,,,,AMP,left,0.21696507778483465,,,left,0,0.21696507778483465,0,,,,,,,,,,,,,,,,,,,,,,1031,2019_Mar_07_1359,mf_amp_cond1,3.0.4,59.985070865292094,
integrity,emassion,&&&&&&&&,left,fairness.virtue,,,,,,,0,273,273,273,,,,,,,,,,,,,,,,,,,,,AMP,left,0.8004459970275093,,,left,1,0.8004459970275093,1,,,,,,,,,,,,,,,,,,,,,,1031,2019_Mar_07_1359,mf_amp_cond1,3.0.4,59.985070865292094,
useful,openet,&&&&&&,left,authority.virtue,,,,,,,0,274,274,274,,,,,,,,,,,,,,,,,,,,,AMP,right,1.050475663879979,,,right,0,1.050475663879979,0,,,,,,,,,,,,,,,,,,,,,,1031,2019_Mar_07_1359,mf_amp_cond1,3.0.4,59.985070865292094,
officers,shoirmaster,&&&&&&&&&&&,right,authority.vice,,,,,,,0,275,275,275,,,,,,,,,,,,,,,,,,,,,AMP,left,0.617084643218277,,,left,0,0.617084643218277,0,,,,,,,,,,,,,,,,,,,,,,1031,2019_Mar_07_1359,mf_amp_cond1,3.0.4,59.985070865292094,
carvels,sliptery,&&&&&&&&,None,nonword,,,,,,,0,276,276,276,,,,,,,,,,,,,,,,,,,,,AMP,left,0.3003221980541184,,,left,0,0.3003221980541184,0,,,,,,,,,,,,,,,,,,,,,,1031,2019_Mar_07_1359,mf_amp_cond1,3.0.4,59.985070865292094,
prosecution,bluently,&&&&&&&&,right,authority.vice,,,,,,,0,277,277,277,,,,,,,,,,,,,,,,,,,,,AMP,left,0.2669692792526348,,,left,0,0.2669692792526348,0,,,,,,,,,,,,,,,,,,,,,,1031,2019_Mar_07_1359,mf_amp_cond1,3.0.4,59.985070865292094,
abuse,juck,&&&&,right,sanctity.vice,,,,,,,0,278,278,278,,,,,,,,,,,,,,,,,,,,,AMP,left,0.5670743480188776,,,left,0,0.5670743480188776,0,,,,,,,,,,,,,,,,,,,,,,1031,2019_Mar_07_1359,mf_amp_cond1,3.0.4,59.985070865292094,
drug,presentkess,&&&&&&&&&&&,right,sanctity.vice,,,,,,,0,279,279,279,,,,,,,,,,,,,,,,,,,,,AMP,left,0.23363047225143418,,,left,0,0.23363047225143418,0,,,,,,,,,,,,,,,,,,,,,,1031,2019_Mar_07_1359,mf_amp_cond1,3.0.4,59.985070865292094,
iptervention,papert,&&&&&&,None,nonword,,,,,,,0,280,280,280,,,,,,,,,,,,,,,,,,,,,AMP,left,0.316788423705475,,,left,0,0.316788423705475,0,,,,,,,,,,,,,,,,,,,,,,1031,2019_Mar_07_1359,mf_amp_cond1,3.0.4,59.985070865292094,
black,elduringly,&&&&&&&&&&,right,loyalty.vice,,,,,,,0,281,281,281,,,,,,,,,,,,,,,,,,,,,AMP,left,0.8171460295486668,,,left,0,0.8171460295486668,0,,,,,,,,,,,,,,,,,,,,,,1031,2019_Mar_07_1359,mf_amp_cond1,3.0.4,59.985070865292094,
voter,gazily,&&&&&&,right,fairness.vice,,,,,,,0,282,282,282,,,,,,,,,,,,,,,,,,,,,AMP,left,0.20028140212275503,,,left,0,0.20028140212275503,0,,,,,,,,,,,,,,,,,,,,,,1031,2019_Mar_07_1359,mf_amp_cond1,3.0.4,59.985070865292094,
blamed,baladroit,&&&&&&&&&,right,loyalty.vice,,,,,,,0,283,283,283,,,,,,,,,,,,,,,,,,,,,AMP,left,0.31698598890693575,,,left,0,0.31698598890693575,0,,,,,,,,,,,,,,,,,,,,,,1031,2019_Mar_07_1359,mf_amp_cond1,3.0.4,59.985070865292094,
praise,lachelor,&&&&&&&&,left,authority.virtue,,,,,,,0,284,284,284,,,,,,,,,,,,,,,,,,,,,AMP,left,0.26695837467991623,,,left,1,0.26695837467991623,1,,,,,,,,,,,,,,,,,,,,,,1031,2019_Mar_07_1359,mf_amp_cond1,3.0.4,59.985070865292094,
mecan,noped,&&&&&,None,nonword,,,,,,,0,285,285,285,,,,,,,,,,,,,,,,,,,,,AMP,left,0.33364240313699156,,,left,0,0.33364240313699156,0,,,,,,,,,,,,,,,,,,,,,,1031,2019_Mar_07_1359,mf_amp_cond1,3.0.4,59.985070865292094,
crime,sickyay,&&&&&&&,right,fairness.vice,,,,,,,0,286,286,286,,,,,,,,,,,,,,,,,,,,,AMP,left,0.5337150147629472,,,left,0,0.5337150147629472,0,,,,,,,,,,,,,,,,,,,,,,1031,2019_Mar_07_1359,mf_amp_cond1,3.0.4,59.985070865292094,
betrayal,ammessment,&&&&&&&&&&,right,loyalty.vice,,,,,,,0,287,287,287,,,,,,,,,,,,,,,,,,,,,AMP,left,0.06694188953156299,,,left,0,0.06694188953156299,0,,,,,,,,,,,,,,,,,,,,,,1031,2019_Mar_07_1359,mf_amp_cond1,3.0.4,59.985070865292094,
progress,chared,&&&&&&,left,authority.virtue,,,,,,,0,288,288,288,,,,,,,,,,,,,,,,,,,,,AMP,left,0.18358682188795683,,,left,1,0.18358682188795683,1,,,,,,,,,,,,,,,,,,,,,,1031,2019_Mar_07_1359,mf_amp_cond1,3.0.4,59.985070865292094,
commitment,letish,&&&&&&,left,sanctity.virtue,,,,,,,0,289,289,289,,,,,,,,,,,,,,,,,,,,,AMP,left,0.43370180098645505,,,left,1,0.43370180098645505,1,,,,,,,,,,,,,,,,,,,,,,1031,2019_Mar_07_1359,mf_amp_cond1,3.0.4,59.985070865292094,
torture,gondensed,&&&&&&&&&,right,care.vice,,,,,,,0,290,290,290,,,,,,,,,,,,,,,,,,,,,AMP,left,0.383652377613771,,,left,0,0.383652377613771,0,,,,,,,,,,,,,,,,,,,,,,1031,2019_Mar_07_1359,mf_amp_cond1,3.0.4,59.985070865292094,
promised,yane,&&&&,left,loyalty.virtue,,,,,,,0,291,291,291,,,,,,,,,,,,,,,,,,,,,AMP,left,0.4336780675043883,,,left,1,0.4336780675043883,1,,,,,,,,,,,,,,,,,,,,,,1031,2019_Mar_07_1359,mf_amp_cond1,3.0.4,59.985070865292094,
racist,reprisols,&&&&&&&&&,right,sanctity.vice,,,,,,,0,292,292,292,,,,,,,,,,,,,,,,,,,,,AMP,left,0.16694516090319667,,,left,0,0.16694516090319667,0,,,,,,,,,,,,,,,,,,,,,,1031,2019_Mar_07_1359,mf_amp_cond1,3.0.4,59.985070865292094,
rejected,counpy's,&&&&&&&&,right,authority.vice,,,,,,,0,293,293,293,,,,,,,,,,,,,,,,,,,,,AMP,left,0.35031870217630967,,,left,0,0.35031870217630967,0,,,,,,,,,,,,,,,,,,,,,,1031,2019_Mar_07_1359,mf_amp_cond1,3.0.4,59.985070865292094,
embrace,dramens,&&&&&&&,left,authority.virtue,,,,,,,0,294,294,294,,,,,,,,,,,,,,,,,,,,,AMP,left,0.3836661686912066,,,left,1,0.3836661686912066,1,,,,,,,,,,,,,,,,,,,,,,1031,2019_Mar_07_1359,mf_amp_cond1,3.0.4,59.985070865292094,
threatened,asn,&&&,right,fairness.vice,,,,,,,0,295,295,295,,,,,,,,,,,,,,,,,,,,,AMP,left,0.3669950012156278,,,left,0,0.3669950012156278,0,,,,,,,,,,,,,,,,,,,,,,1031,2019_Mar_07_1359,mf_amp_cond1,3.0.4,59.985070865292094,
interests,seachwear,&&&&&&&&&,left,fairness.virtue,,,,,,,0,296,296,296,,,,,,,,,,,,,,,,,,,,,AMP,left,0.050273608560473804,,,left,1,0.050273608560473804,1,,,,,,,,,,,,,,,,,,,,,,1031,2019_Mar_07_1359,mf_amp_cond1,3.0.4,59.985070865292094,
fighters,edancipation,&&&&&&&&&&&&,right,authority.vice,,,,,,,0,297,297,297,,,,,,,,,,,,,,,,,,,,,AMP,left,0.5337146940400999,,,left,0,0.5337146940400999,0,,,,,,,,,,,,,,,,,,,,,,1031,2019_Mar_07_1359,mf_amp_cond1,3.0.4,59.985070865292094,
riot,suggists,&&&&&&&&,right,authority.vice,,,,,,,0,298,298,298,,,,,,,,,,,,,,,,,,,,,AMP,left,0.21696539850768204,,,left,0,0.21696539850768204,0,,,,,,,,,,,,,,,,,,,,,,1031,2019_Mar_07_1359,mf_amp_cond1,3.0.4,59.985070865292094,
actively,leact,&&&&&,left,authority.virtue,,,,,,,0,299,299,299,,,,,,,,,,,,,,,,,,,,,AMP,left,0.033540862320705855,,,left,1,0.033540862320705855,1,,,,,,,,,,,,,,,,,,,,,,1031,2019_Mar_07_1359,mf_amp_cond1,3.0.4,59.985070865292094,
terrorists,troubla,&&&&&&&,right,fairness.vice,,,,,,,0,300,300,300,,,,,,,,,,,,,,,,,,,,,AMP,left,0.25032280742721014,,,left,0,0.25032280742721014,0,,,,,,,,,,,,,,,,,,,,,,1031,2019_Mar_07_1359,mf_amp_cond1,3.0.4,59.985070865292094,
touls,gationwide,&&&&&&&&&&,None,nonword,,,,,,,0,301,301,301,,,,,,,,,,,,,,,,,,,,,AMP,left,0.10027075412813247,,,left,0,0.10027075412813247,0,,,,,,,,,,,,,,,,,,,,,,1031,2019_Mar_07_1359,mf_amp_cond1,3.0.4,59.985070865292094,
penalty,refuejing,&&&&&&&&&,right,authority.vice,,,,,,,0,302,302,302,,,,,,,,,,,,,,,,,,,,,AMP,left,0.3003141799856621,,,left,0,0.3003141799856621,0,,,,,,,,,,,,,,,,,,,,,,1031,2019_Mar_07_1359,mf_amp_cond1,3.0.4,59.985070865292094,
sharing,ilportation,&&&&&&&&&&&,left,loyalty.virtue,,,,,,,0,303,303,303,,,,,,,,,,,,,,,,,,,,,AMP,left,0.333658118550602,,,left,1,0.333658118550602,1,,,,,,,,,,,,,,,,,,,,,,1031,2019_Mar_07_1359,mf_amp_cond1,3.0.4,59.985070865292094,
groups,totalestic,&&&&&&&&&&,right,loyalty.vice,,,,,,,0,304,304,304,,,,,,,,,,,,,,,,,,,,,AMP,left,0.23362758574694453,,,left,0,0.23362758574694453,0,,,,,,,,,,,,,,,,,,,,,,1031,2019_Mar_07_1359,mf_amp_cond1,3.0.4,59.985070865292094,
strong,simplustic,&&&&&&&&&&,left,loyalty.virtue,,,,,,,0,305,305,305,,,,,,,,,,,,,,,,,,,,,AMP,left,0.7838014495384868,,,left,1,0.7838014495384868,1,,,,,,,,,,,,,,,,,,,,,,1031,2019_Mar_07_1359,mf_amp_cond1,3.0.4,59.985070865292094,
free,tabin,&&&&&,left,fairness.virtue,,,,,,,0,306,306,306,,,,,,,,,,,,,,,,,,,,,AMP,left,0.15027046547766076,,,left,1,0.15027046547766076,1,,,,,,,,,,,,,,,,,,,,,,1031,2019_Mar_07_1359,mf_amp_cond1,3.0.4,59.985070865292094,
peace,Loorish,&&&&&&&,left,care.virtue,,,,,,,0,307,307,307,,,,,,,,,,,,,,,,,,,,,AMP,left,1.2172110721185163,,,left,1,1.2172110721185163,1,,,,,,,,,,,,,,,,,,,,,,1031,2019_Mar_07_1359,mf_amp_cond1,3.0.4,59.985070865292094,
scandal,strofe,&&&&&&,right,sanctity.vice,,,,,,,0,308,308,308,,,,,,,,,,,,,,,,,,,,,AMP,left,0.6837407687980885,,,left,0,0.6837407687980885,0,,,,,,,,,,,,,,,,,,,,,,1031,2019_Mar_07_1359,mf_amp_cond1,3.0.4,59.985070865292094,
great,honstables,&&&&&&&&&&,left,loyalty.virtue,,,,,,,0,309,309,309,,,,,,,,,,,,,,,,,,,,,AMP,left,0.23361219105572673,,,left,1,0.23361219105572673,1,,,,,,,,,,,,,,,,,,,,,,1031,2019_Mar_07_1359,mf_amp_cond1,3.0.4,59.985070865292094,
charges,gowlands,&&&&&&&&,right,fairness.vice,,,,,,,0,310,310,310,,,,,,,,,,,,,,,,,,,,,AMP,left,0.15028938811883563,,,left,0,0.15028938811883563,0,,,,,,,,,,,,,,,,,,,,,,1031,2019_Mar_07_1359,mf_amp_cond1,3.0.4,59.985070865292094,
injured,framatic,&&&&&&&&,right,care.vice,,,,,,,0,311,311,311,,,,,,,,,,,,,,,,,,,,,AMP,left,0.300307444808368,,,left,0,0.300307444808368,0,,,,,,,,,,,,,,,,,,,,,,1031,2019_Mar_07_1359,mf_amp_cond1,3.0.4,59.985070865292094,
respect,aubos,&&&&&,left,sanctity.virtue,,,,,,,0,312,312,312,,,,,,,,,,,,,,,,,,,,,AMP,right,1.1838915084808832,,,right,0,1.1838915084808832,0,,,,,,,,,,,,,,,,,,,,,,1031,2019_Mar_07_1359,mf_amp_cond1,3.0.4,59.985070865292094,
praised,grovelire,&&&&&&&&&,left,loyalty.virtue,,,,,,,0,313,313,313,,,,,,,,,,,,,,,,,,,,,AMP,right,0.7170853488082685,,,right,0,0.7170853488082685,0,,,,,,,,,,,,,,,,,,,,,,1031,2019_Mar_07_1359,mf_amp_cond1,3.0.4,59.985070865292094,
pleasant,unreflectuve,&&&&&&&&&&&&,None,control,,,,,,,0,314,314,314,,,,,,,,,,,,,,,,,,,,,AMP,right,0.4336787089498557,,,right,0,0.4336787089498557,0,,,,,,,,,,,,,,,,,,,,,,1031,2019_Mar_07_1359,mf_amp_cond1,3.0.4,59.985070865292094,
shot,lempestuous,&&&&&&&&&&&,right,care.vice,,,,,,,0,315,315,315,,,,,,,,,,,,,,,,,,,,,AMP,left,0.1502743141506926,,,left,0,0.1502743141506926,0,,,,,,,,,,,,,,,,,,,,,,1031,2019_Mar_07_1359,mf_amp_cond1,3.0.4,59.985070865292094,
civilians,abointment,&&&&&&&&&&,right,care.vice,,,,,,,0,316,316,316,,,,,,,,,,,,,,,,,,,,,AMP,left,0.6837779726347435,,,left,0,0.6837779726347435,0,,,,,,,,,,,,,,,,,,,,,,1031,2019_Mar_07_1359,mf_amp_cond1,3.0.4,59.985070865292094,
restore,squets,&&&&&&,left,care.virtue,,,,,,,0,317,317,317,,,,,,,,,,,,,,,,,,,,,AMP,left,0.0002918576838055742,,,left,1,0.0002918576838055742,1,,,,,,,,,,,,,,,,,,,,,,1031,2019_Mar_07_1359,mf_amp_cond1,3.0.4,59.985070865292094,
killed,egpeditious,&&&&&&&&&&&,right,care.vice,,,,,,,0,318,318,318,,,,,,,,,,,,,,,,,,,,,AMP,left,0.60041764513835,,,left,0,0.60041764513835,0,,,,,,,,,,,,,,,,,,,,,,1031,2019_Mar_07_1359,mf_amp_cond1,3.0.4,59.985070865292094,
hand,ugeasily,&&&&&&&&,left,sanctity.virtue,,,,,,,0,319,319,319,,,,,,,,,,,,,,,,,,,,,AMP,left,0.8671030847754082,,,left,1,0.8671030847754082,1,,,,,,,,,,,,,,,,,,,,,,1031,2019_Mar_07_1359,mf_amp_cond1,3.0.4,59.985070865292094,
died,Oregoniuns,&&&&&&&&&&,right,care.vice,,,,,,,0,320,320,320,,,,,,,,,,,,,,,,,,,,,AMP,left,0.3836568677320429,,,left,0,0.3836568677320429,0,,,,,,,,,,,,,,,,,,,,,,1031,2019_Mar_07_1359,mf_amp_cond1,3.0.4,59.985070865292094,
faith,coom,&&&&,left,sanctity.virtue,,,,,,,0,321,321,321,,,,,,,,,,,,,,,,,,,,,AMP,left,0.5336960921217724,,,left,1,0.5336960921217724,1,,,,,,,,,,,,,,,,,,,,,,1031,2019_Mar_07_1359,mf_amp_cond1,3.0.4,59.985070865292094,
fear,viscs,&&&&&,right,sanctity.vice,,,,,,,0,322,322,322,,,,,,,,,,,,,,,,,,,,,AMP,left,0.33364208241414417,,,left,0,0.33364208241414417,0,,,,,,,,,,,,,,,,,,,,,,1031,2019_Mar_07_1359,mf_amp_cond1,3.0.4,59.985070865292094,
opportunity,galamitous,&&&&&&&&&&,left,fairness.virtue,,,,,,,0,323,323,323,,,,,,,,,,,,,,,,,,,,,AMP,left,0.41700657930618945,,,left,1,0.41700657930618945,1,,,,,,,,,,,,,,,,,,,,,,1031,2019_Mar_07_1359,mf_amp_cond1,3.0.4,59.985070865292094,
honored,emports,&&&&&&&,left,authority.virtue,,,,,,,0,324,324,324,,,,,,,,,,,,,,,,,,,,,AMP,left,0.2502936216587841,,,left,1,0.2502936216587841,1,,,,,,,,,,,,,,,,,,,,,,1031,2019_Mar_07_1359,mf_amp_cond1,3.0.4,59.985070865292094,
intelligence,feleological,&&&&&&&&&&&&,left,loyalty.virtue,,,,,,,0,325,325,325,,,,,,,,,,,,,,,,,,,,,AMP,left,0.5336992993493368,,,left,1,0.5336992993493368,1,,,,,,,,,,,,,,,,,,,,,,1031,2019_Mar_07_1359,mf_amp_cond1,3.0.4,59.985070865292094,
care,bruthfulness,&&&&&&&&&&&&,left,care.virtue,,,,,,,0,326,326,326,,,,,,,,,,,,,,,,,,,,,AMP,left,0.03355304978458662,,,left,1,0.03355304978458662,1,,,,,,,,,,,,,,,,,,,,,,1031,2019_Mar_07_1359,mf_amp_cond1,3.0.4,59.985070865292094,
slavery,epigrach,&&&&&&&&,right,loyalty.vice,,,,,,,0,327,327,327,,,,,,,,,,,,,,,,,,,,,AMP,left,0.5337086003082732,,,left,0,0.5337086003082732,0,,,,,,,,,,,,,,,,,,,,,,1031,2019_Mar_07_1359,mf_amp_cond1,3.0.4,59.985070865292094,
,,,,,,,,,,,,,,,,,,,,,,,,,,,,,,,,,,,,,,,,,,,,5,15.222,,,,,,,,,,,,,,,,,,,,1031,2019_Mar_07_1359,mf_amp_cond1,3.0.4,59.985070865292094,
,,,,,,,,,,,,,,,,,,,,,,,,,,,,,,,,,,,,,,,,,,,,,,5,7.537,,,,,,,,,,,,,,,,,,1031,2019_Mar_07_1359,mf_amp_cond1,3.0.4,59.985070865292094,
,,,,,,,,,,,,,,,,,,,,,,,,,,,,,,,,,,,,,,,,,,,,,,,,4,6.57,,,,,,,,,,,,,,,,1031,2019_Mar_07_1359,mf_amp_cond1,3.0.4,59.985070865292094,
,,,,,,,,,,,,,,,,,,,,,,,,,,,,,,,,,,,,,,,,,,,,,,,,,,right,1.884104275939535,,,,,,,,,,,,,,1031,2019_Mar_07_1359,mf_amp_cond1,3.0.4,59.985070865292094,
keyboard,,&&&&&&&,,,,,,,,,,,,,0,0,0,0,,,,,,,,,,,,,,,,,LDT_prac,left,2.134159921333321,,,,,,0,,,,,,,,,left,2.134159921333321,,,,,,,,,,,,1031,2019_Mar_07_1359,mf_amp_cond1,3.0.4,59.985070865292094,
bisebell,,&&&&&&&,,,,,,,,,,,,,0,1,1,1,,,,,,,,,,,,,,,,,LDT_prac,left,1.1672363771417622,,,,,,0,,,,,,,,,left,1.1672363771417622,,,,,,,,,,,,1031,2019_Mar_07_1359,mf_amp_cond1,3.0.4,59.985070865292094,
,,,,,,,,,,,,,,,,,,,,,,,,,,,,,,,,,,,,,,,,,,,,,,,,,,,,,,right,2.0007613957598096,,,,,,,,,,1031,2019_Mar_07_1359,mf_amp_cond1,3.0.4,59.985070865292094,
tislay,,&&&&&&,right,nonword,,,,,,,,,,,,,,,0,0,0,62,,,,,,,,,,,,,LDT,left,1.500637276063344,,,,,,0,,,,,,,,,,,,,left,0,1.500637276063344,,,,,,,1031,2019_Mar_07_1359,mf_amp_cond1,3.0.4,59.985070865292094,
give,,&&&&,left,neutral,,,,,,,,,,,,,,,0,1,1,10,,,,,,,,,,,,,LDT,right,0.8838024758510983,,,,,,0,,,,,,,,,,,,,right,0,0.8838024758510983,,,,,,,1031,2019_Mar_07_1359,mf_amp_cond1,3.0.4,59.985070865292094,
smapper,,&&&&&&&,right,nonword,,,,,,,,,,,,,,,0,2,2,180,,,,,,,,,,,,,LDT,left,0.8171348042533282,,,,,,0,,,,,,,,,,,,,left,0,0.8171348042533282,,,,,,,1031,2019_Mar_07_1359,mf_amp_cond1,3.0.4,59.985070865292094,
fifty,,&&&&&,left,neutral,,,,,,,,,,,,,,,0,3,3,118,,,,,,,,,,,,,LDT,right,0.7336407353786853,,,,,,0,,,,,,,,,,,,,right,0,0.7336407353786853,,,,,,,1031,2019_Mar_07_1359,mf_amp_cond1,3.0.4,59.985070865292094,
freedom,,&&&&&&&,left,sanctity.virtue,,,,,,,,,,,,,,,0,4,4,183,,,,,,,,,,,,,LDT,right,0.6004060991199367,,,,,,0,,,,,,,,,,,,,right,0,0.6004060991199367,,,,,,,1031,2019_Mar_07_1359,mf_amp_cond1,3.0.4,59.985070865292094,
mostly,,&&&&&&,left,neutral,,,,,,,,,,,,,,,0,5,5,162,,,,,,,,,,,,,LDT,right,0.5003758870388992,,,,,,0,,,,,,,,,,,,,right,0,0.5003758870388992,,,,,,,1031,2019_Mar_07_1359,mf_amp_cond1,3.0.4,59.985070865292094,
precificity,,&&&&&&&&&&&,right,nonword,,,,,,,,,,,,,,,0,6,6,2,,,,,,,,,,,,,LDT,right,0.8171704044762009,,,,,,1,,,,,,,,,,,,,right,1,0.8171704044762009,,,,,,,1031,2019_Mar_07_1359,mf_amp_cond1,3.0.4,59.985070865292094,
values,,&&&&&&,left,sanctity.virtue,,,,,,,,,,,,,,,0,7,7,18,,,,,,,,,,,,,LDT,right,0.5003790942660089,,,,,,0,,,,,,,,,,,,,right,0,0.5003790942660089,,,,,,,1031,2019_Mar_07_1359,mf_amp_cond1,3.0.4,59.985070865292094,
stindig,,&&&&&&&,right,nonword,,,,,,,,,,,,,,,0,8,8,31,,,,,,,,,,,,,LDT,right,1.3839323685565432,,,,,,1,,,,,,,,,,,,,right,1,1.3839323685565432,,,,,,,1031,2019_Mar_07_1359,mf_amp_cond1,3.0.4,59.985070865292094,
myself,,&&&&&&,left,neutral,,,,,,,,,,,,,,,0,9,9,196,,,,,,,,,,,,,LDT,right,0.5170778438964589,,,,,,0,,,,,,,,,,,,,right,0,0.5170778438964589,,,,,,,1031,2019_Mar_07_1359,mf_amp_cond1,3.0.4,59.985070865292094,
besides,,&&&&&&&,left,neutral,,,,,,,,,,,,,,,0,10,10,144,,,,,,,,,,,,,LDT,right,0.6504013203514205,,,,,,0,,,,,,,,,,,,,right,0,0.6504013203514205,,,,,,,1031,2019_Mar_07_1359,mf_amp_cond1,3.0.4,59.985070865292094,
tove,,&&&&,right,nonword,,,,,,,,,,,,,,,0,11,11,199,,,,,,,,,,,,,LDT,left,0.8004735791823805,,,,,,0,,,,,,,,,,,,,left,0,0.8004735791823805,,,,,,,1031,2019_Mar_07_1359,mf_amp_cond1,3.0.4,59.985070865292094,
become,,&&&&&&,left,neutral,,,,,,,,,,,,,,,0,12,12,91,,,,,,,,,,,,,LDT,right,0.8338034059472648,,,,,,0,,,,,,,,,,,,,right,0,0.8338034059472648,,,,,,,1031,2019_Mar_07_1359,mf_amp_cond1,3.0.4,59.985070865292094,
gandbrake,,&&&&&&&&&,right,nonword,,,,,,,,,,,,,,,0,13,13,128,,,,,,,,,,,,,LDT,left,0.8838204363239583,,,,,,0,,,,,,,,,,,,,left,0,0.8838204363239583,,,,,,,1031,2019_Mar_07_1359,mf_amp_cond1,3.0.4,59.985070865292094,
pullness,,&&&&&&&&,right,nonword,,,,,,,,,,,,,,,0,14,14,173,,,,,,,,,,,,,LDT,right,0.7837931107476379,,,,,,1,,,,,,,,,,,,,right,1,0.7837931107476379,,,,,,,1031,2019_Mar_07_1359,mf_amp_cond1,3.0.4,59.985070865292094,
tracious,,&&&&&&&&,right,nonword,,,,,,,,,,,,,,,0,15,15,4,,,,,,,,,,,,,LDT,left,3.667723554967779,,,,,,0,,,,,,,,,,,,,left,0,3.667723554967779,,,,,,,1031,2019_Mar_07_1359,mf_amp_cond1,3.0.4,59.985070865292094,
alar,,&&&&,right,nonword,,,,,,,,,,,,,,,0,16,16,160,,,,,,,,,,,,,LDT,left,0.9504929187628477,,,,,,0,,,,,,,,,,,,,left,0,0.9504929187628477,,,,,,,1031,2019_Mar_07_1359,mf_amp_cond1,3.0.4,59.985070865292094,
whereafter,,&&&&&&&&&&,left,neutral,,,,,,,,,,,,,,,0,17,17,9,,,,,,,,,,,,,LDT,right,0.9171640541662782,,,,,,0,,,,,,,,,,,,,right,0,0.9171640541662782,,,,,,,1031,2019_Mar_07_1359,mf_amp_cond1,3.0.4,59.985070865292094,
ittutable,,&&&&&&&&&,right,nonword,,,,,,,,,,,,,,,0,18,18,6,,,,,,,,,,,,,LDT,left,0.8171056184849022,,,,,,0,,,,,,,,,,,,,left,0,0.8171056184849022,,,,,,,1031,2019_Mar_07_1359,mf_amp_cond1,3.0.4,59.985070865292094,
blunderints,,&&&&&&&&&&&,right,nonword,,,,,,,,,,,,,,,0,19,19,177,,,,,,,,,,,,,LDT,right,0.8004485628093789,,,,,,1,,,,,,,,,,,,,right,1,0.8004485628093789,,,,,,,1031,2019_Mar_07_1359,mf_amp_cond1,3.0.4,59.985070865292094,
hate,,&&&&,left,fairness.vice,,,,,,,,,,,,,,,0,20,20,24,,,,,,,,,,,,,LDT,right,0.8170587929664634,,,,,,0,,,,,,,,,,,,,right,0,0.8170587929664634,,,,,,,1031,2019_Mar_07_1359,mf_amp_cond1,3.0.4,59.985070865292094,
fifteen,,&&&&&&&,left,neutral,,,,,,,,,,,,,,,0,21,21,35,,,,,,,,,,,,,LDT,right,0.45035597015726125,,,,,,0,,,,,,,,,,,,,right,0,0.45035597015726125,,,,,,,1031,2019_Mar_07_1359,mf_amp_cond1,3.0.4,59.985070865292094,
improve,,&&&&&&&,left,care.virtue,,,,,,,,,,,,,,,0,22,22,21,,,,,,,,,,,,,LDT,right,0.40034342989861216,,,,,,0,,,,,,,,,,,,,right,0,0.40034342989861216,,,,,,,1031,2019_Mar_07_1359,mf_amp_cond1,3.0.4,59.985070865292094,
ensure,,&&&&&&,left,fairness.virtue,,,,,,,,,,,,,,,0,23,23,76,,,,,,,,,,,,,LDT,right,0.5003649824659533,,,,,,0,,,,,,,,,,,,,right,0,0.5003649824659533,,,,,,,1031,2019_Mar_07_1359,mf_amp_cond1,3.0.4,59.985070865292094,
faspberry,,&&&&&&&&&,None,nonword,,,,,,,,,,,,,,,0,24,24,93,,,,,,,,,,,,,LDT,right,0.5835886820796077,,,,,,0,,,,,,,,,,,,,right,0,0.5835886820796077,,,,,,,1031,2019_Mar_07_1359,mf_amp_cond1,3.0.4,59.985070865292094,
esquisiteness,,&&&&&&&&&&&&&,right,nonword,,,,,,,,,,,,,,,0,25,25,116,,,,,,,,,,,,,LDT,left,2.1007861555542604,,,,,,0,,,,,,,,,,,,,left,0,2.1007861555542604,,,,,,,1031,2019_Mar_07_1359,mf_amp_cond1,3.0.4,59.985070865292094,
fornicalion,,&&&&&&&&&&&,right,nonword,,,,,,,,,,,,,,,0,26,26,69,,,,,,,,,,,,,LDT,left,1.017151289401454,,,,,,0,,,,,,,,,,,,,left,0,1.017151289401454,,,,,,,1031,2019_Mar_07_1359,mf_amp_cond1,3.0.4,59.985070865292094,
troops,,&&&&&&,left,loyalty.vice,,,,,,,,,,,,,,,0,27,27,48,,,,,,,,,,,,,LDT,right,0.9004800577813512,,,,,,0,,,,,,,,,,,,,right,0,0.9004800577813512,,,,,,,1031,2019_Mar_07_1359,mf_amp_cond1,3.0.4,59.985070865292094,
fostet,,&&&&&&,right,nonword,,,,,,,,,,,,,,,0,28,28,157,,,,,,,,,,,,,LDT,left,0.8171251825715444,,,,,,0,,,,,,,,,,,,,left,0,0.8171251825715444,,,,,,,1031,2019_Mar_07_1359,mf_amp_cond1,3.0.4,59.985070865292094,
godlaness,,&&&&&&&&&,right,nonword,,,,,,,,,,,,,,,0,29,29,99,,,,,,,,,,,,,LDT,left,0.6837571256573938,,,,,,0,,,,,,,,,,,,,left,0,0.6837571256573938,,,,,,,1031,2019_Mar_07_1359,mf_amp_cond1,3.0.4,59.985070865292094,
clamorek,,&&&&&&&&,right,nonword,,,,,,,,,,,,,,,0,30,30,37,,,,,,,,,,,,,LDT,left,0.5670567082686375,,,,,,0,,,,,,,,,,,,,left,0,0.5670567082686375,,,,,,,1031,2019_Mar_07_1359,mf_amp_cond1,3.0.4,59.985070865292094,
framo,,&&&&&,right,nonword,,,,,,,,,,,,,,,0,31,31,102,,,,,,,,,,,,,LDT,left,1.0171763057744556,,,,,,0,,,,,,,,,,,,,left,0,1.0171763057744556,,,,,,,1031,2019_Mar_07_1359,mf_amp_cond1,3.0.4,59.985070865292094,
tenuflect,,&&&&&&&&&,right,nonword,,,,,,,,,,,,,,,0,32,32,189,,,,,,,,,,,,,LDT,left,0.5837503263353483,,,,,,0,,,,,,,,,,,,,left,0,0.5837503263353483,,,,,,,1031,2019_Mar_07_1359,mf_amp_cond1,3.0.4,59.985070865292094,
mightingale,,&&&&&&&&&&&,right,nonword,,,,,,,,,,,,,,,0,33,33,80,,,,,,,,,,,,,LDT,left,0.5670839697006613,,,,,,0,,,,,,,,,,,,,left,0,0.5670839697006613,,,,,,,1031,2019_Mar_07_1359,mf_amp_cond1,3.0.4,59.985070865292094,
eight,,&&&&&,left,neutral,,,,,,,,,,,,,,,0,34,34,7,,,,,,,,,,,,,LDT,right,0.5837131224986933,,,,,,0,,,,,,,,,,,,,right,0,0.5837131224986933,,,,,,,1031,2019_Mar_07_1359,mf_amp_cond1,3.0.4,59.985070865292094,
pescinded,,&&&&&&&&&,right,nonword,,,,,,,,,,,,,,,0,35,35,108,,,,,,,,,,,,,LDT,left,0.7004401598737786,,,,,,0,,,,,,,,,,,,,left,0,0.7004401598737786,,,,,,,1031,2019_Mar_07_1359,mf_amp_cond1,3.0.4,59.985070865292094,
were,,&&&&,left,neutral,,,,,,,,,,,,,,,0,36,36,64,,,,,,,,,,,,,LDT,right,0.9004730018814371,,,,,,0,,,,,,,,,,,,,right,0,0.9004730018814371,,,,,,,1031,2019_Mar_07_1359,mf_amp_cond1,3.0.4,59.985070865292094,
love,,&&&&,left,loyalty.virtue,,,,,,,,,,,,,,,0,37,37,112,,,,,,,,,,,,,LDT,right,0.6170779080412103,,,,,,0,,,,,,,,,,,,,right,0,0.6170779080412103,,,,,,,1031,2019_Mar_07_1359,mf_amp_cond1,3.0.4,59.985070865292094,
ablow,,&&&&&,right,nonword,,,,,,,,,,,,,,,0,38,38,74,,,,,,,,,,,,,LDT,right,0.6504247331104125,,,,,,1,,,,,,,,,,,,,right,1,0.6504247331104125,,,,,,,1031,2019_Mar_07_1359,mf_amp_cond1,3.0.4,59.985070865292094,
ejanulated,,&&&&&&&&&&,right,nonword,,,,,,,,,,,,,,,0,39,39,77,,,,,,,,,,,,,LDT,right,0.9171345476750048,,,,,,1,,,,,,,,,,,,,right,1,0.9171345476750048,,,,,,,1031,2019_Mar_07_1359,mf_amp_cond1,3.0.4,59.985070865292094,
about,,&&&&&,left,neutral,,,,,,,,,,,,,,,0,40,40,56,,,,,,,,,,,,,LDT,right,0.46704509810592754,,,,,,0,,,,,,,,,,,,,right,0,0.46704509810592754,,,,,,,1031,2019_Mar_07_1359,mf_amp_cond1,3.0.4,59.985070865292094,
harassment,,&&&&&&&&&&,left,sanctity.vice,,,,,,,,,,,,,,,0,41,41,111,,,,,,,,,,,,,LDT,right,0.5670547839324627,,,,,,0,,,,,,,,,,,,,right,0,0.5670547839324627,,,,,,,1031,2019_Mar_07_1359,mf_amp_cond1,3.0.4,59.985070865292094,
could,,&&&&&,left,neutral,,,,,,,,,,,,,,,0,42,42,120,,,,,,,,,,,,,LDT,right,0.6505870188118479,,,,,,0,,,,,,,,,,,,,right,0,0.6505870188118479,,,,,,,1031,2019_Mar_07_1359,mf_amp_cond1,3.0.4,59.985070865292094,
else,,&&&&,left,neutral,,,,,,,,,,,,,,,0,43,43,143,,,,,,,,,,,,,LDT,right,0.7504709813281352,,,,,,0,,,,,,,,,,,,,right,0,0.7504709813281352,,,,,,,1031,2019_Mar_07_1359,mf_amp_cond1,3.0.4,59.985070865292094,
dumid,,&&&&&,right,nonword,,,,,,,,,,,,,,,0,44,44,127,,,,,,,,,,,,,LDT,left,0.9171598847708538,,,,,,0,,,,,,,,,,,,,left,0,0.9171598847708538,,,,,,,1031,2019_Mar_07_1359,mf_amp_cond1,3.0.4,59.985070865292094,
serial,,&&&&&&,left,sanctity.vice,,,,,,,,,,,,,,,0,45,45,130,,,,,,,,,,,,,LDT,right,1.0505263380712222,,,,,,0,,,,,,,,,,,,,right,0,1.0505263380712222,,,,,,,1031,2019_Mar_07_1359,mf_amp_cond1,3.0.4,59.985070865292094,
fontacts,,&&&&&&&&,right,nonword,,,,,,,,,,,,,,,0,46,46,171,,,,,,,,,,,,,LDT,left,0.7671238676082339,,,,,,0,,,,,,,,,,,,,left,0,0.7671238676082339,,,,,,,1031,2019_Mar_07_1359,mf_amp_cond1,3.0.4,59.985070865292094,
powerful,,&&&&&&&&,left,authority.virtue,,,,,,,,,,,,,,,0,47,47,174,,,,,,,,,,,,,LDT,right,0.4337191200138477,,,,,,0,,,,,,,,,,,,,right,0,0.4337191200138477,,,,,,,1031,2019_Mar_07_1359,mf_amp_cond1,3.0.4,59.985070865292094,
encourage,,&&&&&&&&&,left,authority.virtue,,,,,,,,,,,,,,,0,48,48,140,,,,,,,,,,,,,LDT,right,0.6004141171881656,,,,,,0,,,,,,,,,,,,,right,0,0.6004141171881656,,,,,,,1031,2019_Mar_07_1359,mf_amp_cond1,3.0.4,59.985070865292094,
further,,&&&&&&&,left,neutral,,,,,,,,,,,,,,,0,49,49,187,,,,,,,,,,,,,LDT,right,0.7337776839842718,,,,,,0,,,,,,,,,,,,,right,0,0.7337776839842718,,,,,,,1031,2019_Mar_07_1359,mf_amp_cond1,3.0.4,59.985070865292094,
rivernoat,,&&&&&&&&&,right,nonword,,,,,,,,,,,,,,,0,50,50,158,,,,,,,,,,,,,LDT,left,1.350597730950767,,,,,,0,,,,,,,,,,,,,left,0,1.350597730950767,,,,,,,1031,2019_Mar_07_1359,mf_amp_cond1,3.0.4,59.985070865292094,
with,,&&&&,left,neutral,,,,,,,,,,,,,,,0,51,51,159,,,,,,,,,,,,,LDT,right,0.7171055543403781,,,,,,0,,,,,,,,,,,,,right,0,0.7171055543403781,,,,,,,1031,2019_Mar_07_1359,mf_amp_cond1,3.0.4,59.985070865292094,
anyhow,,&&&&&&,left,neutral,,,,,,,,,,,,,,,0,52,52,8,,,,,,,,,,,,,LDT,right,0.38368861928233855,,,,,,0,,,,,,,,,,,,,right,0,0.38368861928233855,,,,,,,1031,2019_Mar_07_1359,mf_amp_cond1,3.0.4,59.985070865292094,
imebreaker,,&&&&&&&&&&,right,nonword,,,,,,,,,,,,,,,0,53,53,186,,,,,,,,,,,,,LDT,right,0.7837437194471022,,,,,,1,,,,,,,,,,,,,right,1,0.7837437194471022,,,,,,,1031,2019_Mar_07_1359,mf_amp_cond1,3.0.4,59.985070865292094,
there,,&&&&&,left,neutral,,,,,,,,,,,,,,,0,54,54,23,,,,,,,,,,,,,LDT,right,0.7170770100174195,,,,,,0,,,,,,,,,,,,,right,0,0.7170770100174195,,,,,,,1031,2019_Mar_07_1359,mf_amp_cond1,3.0.4,59.985070865292094,
forty,,&&&&&,left,neutral,,,,,,,,,,,,,,,0,55,55,39,,,,,,,,,,,,,LDT,right,0.8171238996803822,,,,,,0,,,,,,,,,,,,,right,0,0.8171238996803822,,,,,,,1031,2019_Mar_07_1359,mf_amp_cond1,3.0.4,59.985070865292094,
gaultless,,&&&&&&&&&,right,nonword,,,,,,,,,,,,,,,0,56,56,133,,,,,,,,,,,,,LDT,right,0.7504546244690573,,,,,,1,,,,,,,,,,,,,right,1,0.7504546244690573,,,,,,,1031,2019_Mar_07_1359,mf_amp_cond1,3.0.4,59.985070865292094,
amount,,&&&&&&,left,neutral,,,,,,,,,,,,,,,0,57,57,154,,,,,,,,,,,,,LDT,right,0.733788267834143,,,,,,0,,,,,,,,,,,,,right,0,0.733788267834143,,,,,,,1031,2019_Mar_07_1359,mf_amp_cond1,3.0.4,59.985070865292094,
couldnt,,&&&&&&&,left,neutral,,,,,,,,,,,,,,,0,58,58,126,,,,,,,,,,,,,LDT,right,0.5503932381384402,,,,,,0,,,,,,,,,,,,,right,0,0.5503932381384402,,,,,,,1031,2019_Mar_07_1359,mf_amp_cond1,3.0.4,59.985070865292094,
crinking,,&&&&&&&&,right,nonword,,,,,,,,,,,,,,,0,59,59,33,,,,,,,,,,,,,LDT,right,1.3339384302162216,,,,,,1,,,,,,,,,,,,,right,1,1.3339384302162216,,,,,,,1031,2019_Mar_07_1359,mf_amp_cond1,3.0.4,59.985070865292094,
although,,&&&&&&&&,left,neutral,,,,,,,,,,,,,,,0,60,60,72,,,,,,,,,,,,,LDT,right,0.500397054738869,,,,,,0,,,,,,,,,,,,,right,0,0.500397054738869,,,,,,,1031,2019_Mar_07_1359,mf_amp_cond1,3.0.4,59.985070865292094,
latter,,&&&&&&,left,neutral,,,,,,,,,,,,,,,0,61,61,124,,,,,,,,,,,,,LDT,left,1.0005096284171486,,,,,,1,,,,,,,,,,,,,left,1,1.0005096284171486,,,,,,,1031,2019_Mar_07_1359,mf_amp_cond1,3.0.4,59.985070865292094,
antral,,&&&&&&,right,nonword,,,,,,,,,,,,,,,0,62,62,88,,,,,,,,,,,,,LDT,left,0.6004195694747523,,,,,,0,,,,,,,,,,,,,left,0,0.6004195694747523,,,,,,,1031,2019_Mar_07_1359,mf_amp_cond1,3.0.4,59.985070865292094,
lenon,,&&&&&,right,nonword,,,,,,,,,,,,,,,0,63,63,65,,,,,,,,,,,,,LDT,left,0.7171116480722048,,,,,,0,,,,,,,,,,,,,left,0,0.7171116480722048,,,,,,,1031,2019_Mar_07_1359,mf_amp_cond1,3.0.4,59.985070865292094,
help,,&&&&,left,care.virtue,,,,,,,,,,,,,,,0,64,64,163,,,,,,,,,,,,,LDT,right,0.5003944889572267,,,,,,0,,,,,,,,,,,,,right,0,0.5003944889572267,,,,,,,1031,2019_Mar_07_1359,mf_amp_cond1,3.0.4,59.985070865292094,
chreams,,&&&&&&&,right,nonword,,,,,,,,,,,,,,,0,65,65,141,,,,,,,,,,,,,LDT,right,0.5003823014935733,,,,,,1,,,,,,,,,,,,,right,1,0.5003823014935733,,,,,,,1031,2019_Mar_07_1359,mf_amp_cond1,3.0.4,59.985070865292094,
glacenta,,&&&&&&&&,right,nonword,,,,,,,,,,,,,,,0,66,66,53,,,,,,,,,,,,,LDT,right,1.433954209774356,,,,,,1,,,,,,,,,,,,,right,1,1.433954209774356,,,,,,,1031,2019_Mar_07_1359,mf_amp_cond1,3.0.4,59.985070865292094,
death,,&&&&&,left,care.vice,,,,,,,,,,,,,,,0,67,67,70,,,,,,,,,,,,,LDT,right,0.6337558106940833,,,,,,0,,,,,,,,,,,,,right,0,0.6337558106940833,,,,,,,1031,2019_Mar_07_1359,mf_amp_cond1,3.0.4,59.985070865292094,
safe,,&&&&,left,care.virtue,,,,,,,,,,,,,,,0,68,68,156,,,,,,,,,,,,,LDT,right,0.4003459956804818,,,,,,0,,,,,,,,,,,,,right,0,0.4003459956804818,,,,,,,1031,2019_Mar_07_1359,mf_amp_cond1,3.0.4,59.985070865292094,
sowntrodden,,&&&&&&&&&&&,right,nonword,,,,,,,,,,,,,,,0,69,69,32,,,,,,,,,,,,,LDT,left,1.050527620962157,,,,,,0,,,,,,,,,,,,,left,0,1.050527620962157,,,,,,,1031,2019_Mar_07_1359,mf_amp_cond1,3.0.4,59.985070865292094,
violence,,&&&&&&&&,left,care.vice,,,,,,,,,,,,,,,0,70,70,98,,,,,,,,,,,,,LDT,right,0.6670699220451297,,,,,,0,,,,,,,,,,,,,right,0,0.6670699220451297,,,,,,,1031,2019_Mar_07_1359,mf_amp_cond1,3.0.4,59.985070865292094,
halaise,,&&&&&&&,None,nonword,,,,,,,,,,,,,,,0,71,71,119,,,,,,,,,,,,,LDT,right,0.5837477605534787,,,,,,0,,,,,,,,,,,,,right,0,0.5837477605534787,,,,,,,1031,2019_Mar_07_1359,mf_amp_cond1,3.0.4,59.985070865292094,
friends,,&&&&&&&,left,loyalty.virtue,,,,,,,,,,,,,,,0,72,72,86,,,,,,,,,,,,,LDT,right,0.46704606027401496,,,,,,0,,,,,,,,,,,,,right,0,0.46704606027401496,,,,,,,1031,2019_Mar_07_1359,mf_amp_cond1,3.0.4,59.985070865292094,
failure,,&&&&&&&,left,loyalty.vice,,,,,,,,,,,,,,,0,73,73,89,,,,,,,,,,,,,LDT,right,0.4503739306301213,,,,,,0,,,,,,,,,,,,,right,0,0.4503739306301213,,,,,,,1031,2019_Mar_07_1359,mf_amp_cond1,3.0.4,59.985070865292094,
wump,,&&&&,right,nonword,,,,,,,,,,,,,,,0,74,74,44,,,,,,,,,,,,,LDT,right,0.767127074835571,,,,,,1,,,,,,,,,,,,,right,1,0.767127074835571,,,,,,,1031,2019_Mar_07_1359,mf_amp_cond1,3.0.4,59.985070865292094,
fraud,,&&&&&,left,fairness.vice,,,,,,,,,,,,,,,0,75,75,139,,,,,,,,,,,,,LDT,right,0.6004051369518493,,,,,,0,,,,,,,,,,,,,right,0,0.6004051369518493,,,,,,,1031,2019_Mar_07_1359,mf_amp_cond1,3.0.4,59.985070865292094,
photocalkodes,,&&&&&&&&&&&&&,right,nonword,,,,,,,,,,,,,,,0,76,76,190,,,,,,,,,,,,,LDT,right,0.7004064839873081,,,,,,1,,,,,,,,,,,,,right,1,0.7004064839873081,,,,,,,1031,2019_Mar_07_1359,mf_amp_cond1,3.0.4,59.985070865292094,
oam,,&&&,right,nonword,,,,,,,,,,,,,,,0,77,77,46,,,,,,,,,,,,,LDT,right,0.7170946497676596,,,,,,1,,,,,,,,,,,,,right,1,0.7170946497676596,,,,,,,1031,2019_Mar_07_1359,mf_amp_cond1,3.0.4,59.985070865292094,
nonobservalt,,&&&&&&&&&&&&,right,nonword,,,,,,,,,,,,,,,0,78,78,43,,,,,,,,,,,,,LDT,left,1.3840167186344843,,,,,,0,,,,,,,,,,,,,left,0,1.3840167186344843,,,,,,,1031,2019_Mar_07_1359,mf_amp_cond1,3.0.4,59.985070865292094,
clean,,&&&&&,left,sanctity.virtue,,,,,,,,,,,,,,,0,79,79,179,,,,,,,,,,,,,LDT,right,0.8004973126644472,,,,,,0,,,,,,,,,,,,,right,0,0.8004973126644472,,,,,,,1031,2019_Mar_07_1359,mf_amp_cond1,3.0.4,59.985070865292094,
peaceful,,&&&&&&&&,left,authority.virtue,,,,,,,,,,,,,,,0,80,80,75,,,,,,,,,,,,,LDT,left,0.5337108453672954,,,,,,1,,,,,,,,,,,,,left,1,0.5337108453672954,,,,,,,1031,2019_Mar_07_1359,mf_amp_cond1,3.0.4,59.985070865292094,
noone,,&&&&&,left,neutral,,,,,,,,,,,,,,,0,81,81,192,,,,,,,,,,,,,LDT,right,1.2005501677699613,,,,,,0,,,,,,,,,,,,,right,0,1.2005501677699613,,,,,,,1031,2019_Mar_07_1359,mf_amp_cond1,3.0.4,59.985070865292094,
fegard,,&&&&&&,right,nonword,,,,,,,,,,,,,,,0,82,82,47,,,,,,,,,,,,,LDT,left,0.5837391010397823,,,,,,0,,,,,,,,,,,,,left,0,0.5837391010397823,,,,,,,1031,2019_Mar_07_1359,mf_amp_cond1,3.0.4,59.985070865292094,
neputized,,&&&&&&&&&,right,nonword,,,,,,,,,,,,,,,0,83,83,146,,,,,,,,,,,,,LDT,left,0.40020102900666643,,,,,,0,,,,,,,,,,,,,left,0,0.40020102900666643,,,,,,,1031,2019_Mar_07_1359,mf_amp_cond1,3.0.4,59.985070865292094,
elsewhere,,&&&&&&&&&,left,neutral,,,,,,,,,,,,,,,0,84,84,25,,,,,,,,,,,,,LDT,left,0.9504832970810639,,,,,,1,,,,,,,,,,,,,left,1,0.9504832970810639,,,,,,,1031,2019_Mar_07_1359,mf_amp_cond1,3.0.4,59.985070865292094,
uller,,&&&&&,right,nonword,,,,,,,,,,,,,,,0,85,85,60,,,,,,,,,,,,,LDT,left,0.45036334678002277,,,,,,0,,,,,,,,,,,,,left,0,0.45036334678002277,,,,,,,1031,2019_Mar_07_1359,mf_amp_cond1,3.0.4,59.985070865292094,
either,,&&&&&&,left,neutral,,,,,,,,,,,,,,,0,86,86,81,,,,,,,,,,,,,LDT,left,0.8504562922271361,,,,,,1,,,,,,,,,,,,,left,1,0.8504562922271361,,,,,,,1031,2019_Mar_07_1359,mf_amp_cond1,3.0.4,59.985070865292094,
suicide,,&&&&&&&,left,care.vice,,,,,,,,,,,,,,,0,87,87,27,,,,,,,,,,,,,LDT,right,0.7504270423141861,,,,,,0,,,,,,,,,,,,,right,0,0.7504270423141861,,,,,,,1031,2019_Mar_07_1359,mf_amp_cond1,3.0.4,59.985070865292094,
erdest,,&&&&&&,right,nonword,,,,,,,,,,,,,,,0,88,88,101,,,,,,,,,,,,,LDT,left,2.984336864062925,,,,,,0,,,,,,,,,,,,,left,0,2.984336864062925,,,,,,,1031,2019_Mar_07_1359,mf_amp_cond1,3.0.4,59.985070865292094,
somehow,,&&&&&&&,left,neutral,,,,,,,,,,,,,,,0,89,89,167,,,,,,,,,,,,,LDT,right,0.8171197302849578,,,,,,0,,,,,,,,,,,,,right,0,0.8171197302849578,,,,,,,1031,2019_Mar_07_1359,mf_amp_cond1,3.0.4,59.985070865292094,
pistraught,,&&&&&&&&&&,right,nonword,,,,,,,,,,,,,,,0,90,90,109,,,,,,,,,,,,,LDT,left,0.6837423724116434,,,,,,0,,,,,,,,,,,,,left,0,0.6837423724116434,,,,,,,1031,2019_Mar_07_1359,mf_amp_cond1,3.0.4,59.985070865292094,
hence,,&&&&&,left,neutral,,,,,,,,,,,,,,,0,91,91,55,,,,,,,,,,,,,LDT,right,0.5003723590889422,,,,,,0,,,,,,,,,,,,,right,0,0.5003723590889422,,,,,,,1031,2019_Mar_07_1359,mf_amp_cond1,3.0.4,59.985070865292094,
each,,&&&&,left,neutral,,,,,,,,,,,,,,,0,92,92,66,,,,,,,,,,,,,LDT,right,0.3836661686912066,,,,,,0,,,,,,,,,,,,,right,0,0.3836661686912066,,,,,,,1031,2019_Mar_07_1359,mf_amp_cond1,3.0.4,59.985070865292094,
hereby,,&&&&&&,left,neutral,,,,,,,,,,,,,,,0,93,93,67,,,,,,,,,,,,,LDT,right,0.45034859353449974,,,,,,0,,,,,,,,,,,,,right,0,0.45034859353449974,,,,,,,1031,2019_Mar_07_1359,mf_amp_cond1,3.0.4,59.985070865292094,
pharing,,&&&&&&&,right,nonword,,,,,,,,,,,,,,,0,94,94,40,,,,,,,,,,,,,LDT,right,0.3836578299001303,,,,,,1,,,,,,,,,,,,,right,1,0.3836578299001303,,,,,,,1031,2019_Mar_07_1359,mf_amp_cond1,3.0.4,59.985070865292094,
everything,,&&&&&&&&&&,left,neutral,,,,,,,,,,,,,,,0,95,95,134,,,,,,,,,,,,,LDT,right,0.5670464451413864,,,,,,0,,,,,,,,,,,,,right,0,0.5670464451413864,,,,,,,1031,2019_Mar_07_1359,mf_amp_cond1,3.0.4,59.985070865292094,
less,,&&&&,left,neutral,,,,,,,,,,,,,,,0,96,96,136,,,,,,,,,,,,,LDT,right,0.3670091130156834,,,,,,0,,,,,,,,,,,,,right,0,0.3670091130156834,,,,,,,1031,2019_Mar_07_1359,mf_amp_cond1,3.0.4,59.985070865292094,
whither,,&&&&&&&,left,neutral,,,,,,,,,,,,,,,0,97,97,42,,,,,,,,,,,,,LDT,right,0.38366937591854366,,,,,,0,,,,,,,,,,,,,right,0,0.38366937591854366,,,,,,,1031,2019_Mar_07_1359,mf_amp_cond1,3.0.4,59.985070865292094,
ebbitter,,&&&&&&&&,right,nonword,,,,,,,,,,,,,,,0,98,98,45,,,,,,,,,,,,,LDT,right,0.6837542391526767,,,,,,1,,,,,,,,,,,,,right,1,0.6837542391526767,,,,,,,1031,2019_Mar_07_1359,mf_amp_cond1,3.0.4,59.985070865292094,
credit,,&&&&&&,left,fairness.virtue,,,,,,,,,,,,,,,0,99,99,184,,,,,,,,,,,,,LDT,right,0.41685968829597186,,,,,,0,,,,,,,,,,,,,right,0,0.41685968829597186,,,,,,,1031,2019_Mar_07_1359,mf_amp_cond1,3.0.4,59.985070865292094,
sfumatoy,,&&&&&&&&,None,nonword,,,,,,,,,,,,,,,0,100,100,22,,,,,,,,,,,,,LDT,right,0.5503772020019824,,,,,,0,,,,,,,,,,,,,right,0,0.5503772020019824,,,,,,,1031,2019_Mar_07_1359,mf_amp_cond1,3.0.4,59.985070865292094,
gun,,&&&,left,authority.vice,,,,,,,,,,,,,,,0,101,101,191,,,,,,,,,,,,,LDT,right,0.5837317244170208,,,,,,0,,,,,,,,,,,,,right,0,0.5837317244170208,,,,,,,1031,2019_Mar_07_1359,mf_amp_cond1,3.0.4,59.985070865292094,
corruption,,&&&&&&&&&&,left,sanctity.vice,,,,,,,,,,,,,,,0,102,102,90,,,,,,,,,,,,,LDT,right,1.4504884286445758,,,,,,0,,,,,,,,,,,,,right,0,1.4504884286445758,,,,,,,1031,2019_Mar_07_1359,mf_amp_cond1,3.0.4,59.985070865292094,
synchronazers,,&&&&&&&&&&&&&,right,nonword,,,,,,,,,,,,,,,0,103,103,51,,,,,,,,,,,,,LDT,left,0.483704398840473,,,,,,0,,,,,,,,,,,,,left,0,0.483704398840473,,,,,,,1031,2019_Mar_07_1359,mf_amp_cond1,3.0.4,59.985070865292094,
perfect,,&&&&&&&,left,sanctity.virtue,,,,,,,,,,,,,,,0,104,104,176,,,,,,,,,,,,,LDT,right,0.6170670034682644,,,,,,0,,,,,,,,,,,,,right,0,0.6170670034682644,,,,,,,1031,2019_Mar_07_1359,mf_amp_cond1,3.0.4,59.985070865292094,
reelectiob,,&&&&&&&&&&,right,nonword,,,,,,,,,,,,,,,0,105,105,41,,,,,,,,,,,,,LDT,left,0.5670640848916264,,,,,,0,,,,,,,,,,,,,left,0,0.5670640848916264,,,,,,,1031,2019_Mar_07_1359,mf_amp_cond1,3.0.4,59.985070865292094,
thru,,&&&&,left,neutral,,,,,,,,,,,,,,,0,106,106,181,,,,,,,,,,,,,LDT,right,0.5837535335626853,,,,,,0,,,,,,,,,,,,,right,0,0.5837535335626853,,,,,,,1031,2019_Mar_07_1359,mf_amp_cond1,3.0.4,59.985070865292094,
itself,,&&&&&&,left,neutral,,,,,,,,,,,,,,,0,107,107,97,,,,,,,,,,,,,LDT,right,0.4837024745040708,,,,,,0,,,,,,,,,,,,,right,0,0.4837024745040708,,,,,,,1031,2019_Mar_07_1359,mf_amp_cond1,3.0.4,59.985070865292094,
