words,nonwords,mask,corr_ans,category,AMP_prac_loop.thisRepN,AMP_prac_loop.thisTrialN,AMP_prac_loop.thisN,AMP_prac_loop.thisIndex,AMP_trials.thisRepN,AMP_trials.thisTrialN,AMP_trials.thisN,AMP_trials.thisIndex,LDT_prac_loop.thisRepN,LDT_prac_loop.thisTrialN,LDT_prac_loop.thisN,LDT_prac_loop.thisIndex,LDT_loop.thisRepN,LDT_loop.thisTrialN,LDT_loop.thisN,LDT_loop.thisIndex,tweet_loop.thisRepN,tweet_loop.thisTrialN,tweet_loop.thisN,tweet_loop.thisIndex,tweets,topic,begin_key.keys,begin_key.rt,key_resp_AMP_instr1.keys,key_resp_AMP_instr1.rt,resp_AMP_ready1.keys,resp_AMP_ready1.rt,resp_AMP_prac.keys,resp_AMP_prac.rt,task,keypress,RT,resp_AMP_ready.keys,resp_AMP_ready.rt,resp_AMP.keys,resp_AMP.corr,resp_AMP.rt,corr,AMP_nonword_rating.response,AMP_nonword_rating.rt,AMP_word_rating.response,AMP_word_rating.rt,AMP_random_rating.response,AMP_random_rating.rt,key_resp_LDT_instr.keys,key_resp_LDT_instr.rt,resp_LDT_prac.keys,resp_LDT_prac.rt,resp_LDT_ready.keys,resp_LDT_ready.rt,resp_LDT.keys,resp_LDT.corr,resp_LDT.rt,LDT_rating.response,LDT_rating.rt,key_resp_LDT_instr_2.keys,key_resp_LDT_instr_2.rt,participant,date,expName,psychopyVersion,frameRate,
,,,,,,,,,,,,,,,,,,,,,,,,,,,right,309.15198041569505,,,,,,,,,,,,,,,,,,,,,,,,,,,,,,,,,,,1033,2019_Mar_07_1401,mf_amp_cond1,3.0.4,59.992361477233565,
,,,,,,,,,,,,,,,,,,,,,,,,,,,,,right,18.388032804288173,,,,,,,,,,,,,,,,,,,,,,,,,,,,,,,,,1033,2019_Mar_07_1401,mf_amp_cond1,3.0.4,59.992361477233565,
,,,,,,,,,,,,,,,,,,,,,,,,,,,,,,,right,2.1674653071657985,,,,,,,,,,,,,,,,,,,,,,,,,,,,,,,1033,2019_Mar_07_1401,mf_amp_cond1,3.0.4,59.992361477233565,
car,cemtuper,&&&&&&&&,,,0,0,0,0,,,,,,,,,,,,,,,,,,,,,,,,,right,3.21768360366093,AMP_prac,right,3.21768360366093,,,,,,,,,,,,,,,,,,,,,,,,,,1033,2019_Mar_07_1401,mf_amp_cond1,3.0.4,59.992361477233565,
keyboard,senk,&&&&,,,0,1,1,2,,,,,,,,,,,,,,,,,,,,,,,,,left,2.450834780037326,AMP_prac,left,2.450834780037326,,,,,,,,,,,,,,,,,,,,,,,,,,1033,2019_Mar_07_1401,mf_amp_cond1,3.0.4,59.992361477233565,
banana,kacket,&&&&&&,,,0,2,2,1,,,,,,,,,,,,,,,,,,,,,,,,,left,1.1171847914389446,AMP_prac,left,1.1171847914389446,,,,,,,,,,,,,,,,,,,,,,,,,,1033,2019_Mar_07_1401,mf_amp_cond1,3.0.4,59.992361477233565,
scarf,bisebell,&&&&&&&&,,,0,3,3,3,,,,,,,,,,,,,,,,,,,,,,,,,left,1.6839481117264086,AMP_prac,left,1.6839481117264086,,,,,,,,,,,,,,,,,,,,,,,,,,1033,2019_Mar_07_1401,mf_amp_cond1,3.0.4,59.992361477233565,
,,,,,,,,,,,,,,,,,,,,,,,,,,,,,,,,,,,,,,right,1.6673147302107054,,,,,,,,,,,,,,,,,,,,,,,,1033,2019_Mar_07_1401,mf_amp_cond1,3.0.4,59.992361477233565,
encourage,epigrach,&&&&&&&&,left,authority.virtue,,,,,0,0,0,0,,,,,,,,,,,,,,,,,,,,,,,AMP,right,2.084094423136321,,,right,0,2.084094423136321,0,,,,,,,,,,,,,,,,,,,,1033,2019_Mar_07_1401,mf_amp_cond1,3.0.4,59.992361477233565,
troubla,fornicalion,&&&&&&&&&&&,None,nonword,,,,,0,1,1,1,,,,,,,,,,,,,,,,,,,,,,,AMP,left,0.8838325250712842,,,left,0,0.8838325250712842,0,,,,,,,,,,,,,,,,,,,,1033,2019_Mar_07_1401,mf_amp_cond1,3.0.4,59.992361477233565,
violations,yane,&&&&,right,sanctity.vice,,,,,0,2,2,2,,,,,,,,,,,,,,,,,,,,,,,AMP,left,1.0338434134367844,,,left,0,1.0338434134367844,0,,,,,,,,,,,,,,,,,,,,1033,2019_Mar_07_1401,mf_amp_cond1,3.0.4,59.992361477233565,
arrests,ejanulated,&&&&&&&&&&,right,authority.vice,,,,,0,3,3,3,,,,,,,,,,,,,,,,,,,,,,,AMP,left,1.1505564291550172,,,left,0,1.1505564291550172,0,,,,,,,,,,,,,,,,,,,,1033,2019_Mar_07_1401,mf_amp_cond1,3.0.4,59.992361477233565,
useful,pulge,&&&&&,left,authority.virtue,,,,,0,4,4,4,,,,,,,,,,,,,,,,,,,,,,,AMP,left,0.933826960619399,,,left,1,0.933826960619399,1,,,,,,,,,,,,,,,,,,,,1033,2019_Mar_07_1401,mf_amp_cond1,3.0.4,59.992361477233565,
help,mightingale,&&&&&&&&&&&,left,care.virtue,,,,,0,5,5,5,,,,,,,,,,,,,,,,,,,,,,,AMP,left,0.9671549807296742,,,left,1,0.9671549807296742,1,,,,,,,,,,,,,,,,,,,,1033,2019_Mar_07_1401,mf_amp_cond1,3.0.4,59.992361477233565,
support,chadows,&&&&&&&,left,loyalty.virtue,,,,,0,6,6,6,,,,,,,,,,,,,,,,,,,,,,,AMP,right,0.9504760573020121,,,right,0,0.9504760573020121,0,,,,,,,,,,,,,,,,,,,,1033,2019_Mar_07_1401,mf_amp_cond1,3.0.4,59.992361477233565,
erdest,carvels,&&&&&&&,None,nonword,,,,,0,7,7,7,,,,,,,,,,,,,,,,,,,,,,,AMP,right,0.7337658318277818,,,right,0,0.7337658318277818,0,,,,,,,,,,,,,,,,,,,,1033,2019_Mar_07_1401,mf_amp_cond1,3.0.4,59.992361477233565,
suicide,Loorish,&&&&&&&,right,care.vice,,,,,0,8,8,8,,,,,,,,,,,,,,,,,,,,,,,AMP,right,3.484423864346695,,,right,1,3.484423864346695,1,,,,,,,,,,,,,,,,,,,,1033,2019_Mar_07_1401,mf_amp_cond1,3.0.4,59.992361477233565,
victims,pharing,&&&&&&&,right,care.vice,,,,,0,9,9,9,,,,,,,,,,,,,,,,,,,,,,,AMP,right,0.9171554136986515,,,right,1,0.9171554136986515,1,,,,,,,,,,,,,,,,,,,,1033,2019_Mar_07_1401,mf_amp_cond1,3.0.4,59.992361477233565,
vurtain,forepo,&&&&&&,None,nonword,,,,,0,10,10,10,,,,,,,,,,,,,,,,,,,,,,,AMP,left,0.8337822846452809,,,left,0,0.8337822846452809,0,,,,,,,,,,,,,,,,,,,,1033,2019_Mar_07_1401,mf_amp_cond1,3.0.4,59.992361477233565,
values,bycled,&&&&&&,left,sanctity.virtue,,,,,0,11,11,11,,,,,,,,,,,,,,,,,,,,,,,AMP,left,0.8504422857292866,,,left,1,0.8504422857292866,1,,,,,,,,,,,,,,,,,,,,1033,2019_Mar_07_1401,mf_amp_cond1,3.0.4,59.992361477233565,
lies,dumid,&&&&&,right,fairness.vice,,,,,0,12,12,12,,,,,,,,,,,,,,,,,,,,,,,AMP,right,1.1838584711323392,,,right,1,1.1838584711323392,1,,,,,,,,,,,,,,,,,,,,1033,2019_Mar_07_1401,mf_amp_cond1,3.0.4,59.992361477233565,
blamed,refuejing,&&&&&&&&&,right,loyalty.vice,,,,,0,13,13,13,,,,,,,,,,,,,,,,,,,,,,,AMP,left,0.7837746996718806,,,left,0,0.7837746996718806,0,,,,,,,,,,,,,,,,,,,,1033,2019_Mar_07_1401,mf_amp_cond1,3.0.4,59.992361477233565,
violence,clamorek,&&&&&&&&,right,care.vice,,,,,0,14,14,14,,,,,,,,,,,,,,,,,,,,,,,AMP,left,1.0838606199408787,,,left,0,1.0838606199408787,0,,,,,,,,,,,,,,,,,,,,1033,2019_Mar_07_1401,mf_amp_cond1,3.0.4,59.992361477233565,
celebrated,Phintoism,&&&&&&&&&,left,authority.virtue,,,,,0,15,15,15,,,,,,,,,,,,,,,,,,,,,,,AMP,right,0.70047341138104,,,right,0,0.70047341138104,0,,,,,,,,,,,,,,,,,,,,1033,2019_Mar_07_1401,mf_amp_cond1,3.0.4,59.992361477233565,
chared,gazily,&&&&&&,None,nonword,,,,,0,16,16,16,,,,,,,,,,,,,,,,,,,,,,,AMP,right,0.6503891748799333,,,right,0,0.6503891748799333,0,,,,,,,,,,,,,,,,,,,,1033,2019_Mar_07_1401,mf_amp_cond1,3.0.4,59.992361477233565,
drug,emports,&&&&&&&,right,sanctity.vice,,,,,0,17,17,17,,,,,,,,,,,,,,,,,,,,,,,AMP,right,2.4675069683935362,,,right,1,2.4675069683935362,1,,,,,,,,,,,,,,,,,,,,1033,2019_Mar_07_1401,mf_amp_cond1,3.0.4,59.992361477233565,
voter,pescinded,&&&&&&&&&,right,fairness.vice,,,,,0,18,18,18,,,,,,,,,,,,,,,,,,,,,,,AMP,right,0.8671192848509008,,,right,1,0.8671192848509008,1,,,,,,,,,,,,,,,,,,,,1033,2019_Mar_07_1401,mf_amp_cond1,3.0.4,59.992361477233565,
harassment,focomotive,&&&&&&&&&&,right,sanctity.vice,,,,,0,19,19,19,,,,,,,,,,,,,,,,,,,,,,,AMP,left,0.9671613950835081,,,left,0,0.9671613950835081,0,,,,,,,,,,,,,,,,,,,,1033,2019_Mar_07_1401,mf_amp_cond1,3.0.4,59.992361477233565,
good,divility,&&&&&&&&,left,care.virtue,,,,,0,20,20,20,,,,,,,,,,,,,,,,,,,,,,,AMP,right,0.5670545319493385,,,right,0,0.5670545319493385,0,,,,,,,,,,,,,,,,,,,,1033,2019_Mar_07_1401,mf_amp_cond1,3.0.4,59.992361477233565,
shoirmaster,unreflectuve,&&&&&&&&&&&&,None,nonword,,,,,0,21,21,21,,,,,,,,,,,,,,,,,,,,,,,AMP,right,0.6503978342575465,,,right,0,0.6503978342575465,0,,,,,,,,,,,,,,,,,,,,1033,2019_Mar_07_1401,mf_amp_cond1,3.0.4,59.992361477233565,
interests,Lacedonia,&&&&&&&&&,left,fairness.virtue,,,,,0,22,22,22,,,,,,,,,,,,,,,,,,,,,,,AMP,right,0.70041407860856,,,right,0,0.70041407860856,0,,,,,,,,,,,,,,,,,,,,1033,2019_Mar_07_1401,mf_amp_cond1,3.0.4,59.992361477233565,
improve,wonderfujnoss,&&&&&&&&&&&&&,left,care.virtue,,,,,0,23,23,23,,,,,,,,,,,,,,,,,,,,,,,AMP,right,0.5503881165116127,,,right,0,0.5503881165116127,0,,,,,,,,,,,,,,,,,,,,1033,2019_Mar_07_1401,mf_amp_cond1,3.0.4,59.992361477233565,
protect,noped,&&&&&,left,fairness.virtue,,,,,0,24,24,24,,,,,,,,,,,,,,,,,,,,,,,AMP,left,5.734918491202848,,,left,1,5.734918491202848,1,,,,,,,,,,,,,,,,,,,,1033,2019_Mar_07_1401,mf_amp_cond1,3.0.4,59.992361477233565,
troops,honstables,&&&&&&&&&&,right,loyalty.vice,,,,,0,25,25,25,,,,,,,,,,,,,,,,,,,,,,,AMP,right,0.9504869617034046,,,right,1,0.9504869617034046,1,,,,,,,,,,,,,,,,,,,,1033,2019_Mar_07_1401,mf_amp_cond1,3.0.4,59.992361477233565,
restore,hescribe,&&&&&&&&,left,care.virtue,,,,,0,26,26,26,,,,,,,,,,,,,,,,,,,,,,,AMP,right,0.6004062851687877,,,right,0,0.6004062851687877,0,,,,,,,,,,,,,,,,,,,,1033,2019_Mar_07_1401,mf_amp_cond1,3.0.4,59.992361477233565,
strength,rivernoat,&&&&&&&&&,left,sanctity.virtue,,,,,0,27,27,27,,,,,,,,,,,,,,,,,,,,,,,AMP,right,1.8340247472183364,,,right,0,1.8340247472183364,0,,,,,,,,,,,,,,,,,,,,1033,2019_Mar_07_1401,mf_amp_cond1,3.0.4,59.992361477233565,
prosecution,tove,&&&&,right,authority.vice,,,,,0,28,28,28,,,,,,,,,,,,,,,,,,,,,,,AMP,left,0.5503743256509779,,,left,0,0.5503743256509779,0,,,,,,,,,,,,,,,,,,,,1033,2019_Mar_07_1401,mf_amp_cond1,3.0.4,59.992361477233565,
shot,saned,&&&&&,right,care.vice,,,,,0,29,29,29,,,,,,,,,,,,,,,,,,,,,,,AMP,right,1.4005917882801668,,,right,1,1.4005917882801668,1,,,,,,,,,,,,,,,,,,,,1033,2019_Mar_07_1401,mf_amp_cond1,3.0.4,59.992361477233565,
torture,quarterbocks,&&&&&&&&&&&&,right,care.vice,,,,,0,30,30,30,,,,,,,,,,,,,,,,,,,,,,,AMP,right,0.6338321241742051,,,right,1,0.6338321241742051,1,,,,,,,,,,,,,,,,,,,,1033,2019_Mar_07_1401,mf_amp_cond1,3.0.4,59.992361477233565,
perfect,infet,&&&&&,left,sanctity.virtue,,,,,0,31,31,31,,,,,,,,,,,,,,,,,,,,,,,AMP,left,0.7504453966909068,,,left,1,0.7504453966909068,1,,,,,,,,,,,,,,,,,,,,1033,2019_Mar_07_1401,mf_amp_cond1,3.0.4,59.992361477233565,
opportunity,gaultless,&&&&&&&&&,left,fairness.virtue,,,,,0,32,32,32,,,,,,,,,,,,,,,,,,,,,,,AMP,left,0.717087549835469,,,left,1,0.717087549835469,1,,,,,,,,,,,,,,,,,,,,1033,2019_Mar_07_1401,mf_amp_cond1,3.0.4,59.992361477233565,
tenuflect,spag,&&&&,None,nonword,,,,,0,33,33,33,,,,,,,,,,,,,,,,,,,,,,,AMP,left,0.7004050985132153,,,left,0,0.7004050985132153,0,,,,,,,,,,,,,,,,,,,,1033,2019_Mar_07_1401,mf_amp_cond1,3.0.4,59.992361477233565,
powerful,reprisols,&&&&&&&&&,left,authority.virtue,,,,,0,34,34,34,,,,,,,,,,,,,,,,,,,,,,,AMP,right,0.7837827176141445,,,right,0,0.7837827176141445,0,,,,,,,,,,,,,,,,,,,,1033,2019_Mar_07_1401,mf_amp_cond1,3.0.4,59.992361477233565,
faith,galamitous,&&&&&&&&&&,left,sanctity.virtue,,,,,0,35,35,35,,,,,,,,,,,,,,,,,,,,,,,AMP,right,0.4670342305197437,,,right,0,0.4670342305197437,0,,,,,,,,,,,,,,,,,,,,1033,2019_Mar_07_1401,mf_amp_cond1,3.0.4,59.992361477233565,
growth,idexpressible,&&&&&&&&&&&&&,left,care.virtue,,,,,0,36,36,36,,,,,,,,,,,,,,,,,,,,,,,AMP,right,4.067736538115582,,,right,0,4.067736538115582,0,,,,,,,,,,,,,,,,,,,,1033,2019_Mar_07_1401,mf_amp_cond1,3.0.4,59.992361477233565,
love,lorthwhile,&&&&&&&&&&,left,loyalty.virtue,,,,,0,37,37,37,,,,,,,,,,,,,,,,,,,,,,,AMP,right,3.017481359086105,,,right,0,3.017481359086105,0,,,,,,,,,,,,,,,,,,,,1033,2019_Mar_07_1401,mf_amp_cond1,3.0.4,59.992361477233565,
protesters,unscothed,&&&&&&&&&,right,authority.vice,,,,,0,38,38,38,,,,,,,,,,,,,,,,,,,,,,,AMP,left,0.6504045693289982,,,left,0,0.6504045693289982,0,,,,,,,,,,,,,,,,,,,,1033,2019_Mar_07_1401,mf_amp_cond1,3.0.4,59.992361477233565,
embrace,faspberry,&&&&&&&&&,left,authority.virtue,,,,,0,39,39,39,,,,,,,,,,,,,,,,,,,,,,,AMP,right,0.6504148322951551,,,right,0,0.6504148322951551,0,,,,,,,,,,,,,,,,,,,,1033,2019_Mar_07_1401,mf_amp_cond1,3.0.4,59.992361477233565,
integrity,tracious,&&&&&&&&,left,fairness.virtue,,,,,0,40,40,40,,,,,,,,,,,,,,,,,,,,,,,AMP,right,3.3010548084080256,,,right,0,3.3010548084080256,0,,,,,,,,,,,,,,,,,,,,1033,2019_Mar_07_1401,mf_amp_cond1,3.0.4,59.992361477233565,
died,gusinesslike,&&&&&&&&&&&&,right,care.vice,,,,,0,41,41,41,,,,,,,,,,,,,,,,,,,,,,,AMP,right,0.800443680851231,,,right,1,0.800443680851231,1,,,,,,,,,,,,,,,,,,,,1033,2019_Mar_07_1401,mf_amp_cond1,3.0.4,59.992361477233565,
friends,pumber,&&&&&&,left,loyalty.virtue,,,,,0,42,42,42,,,,,,,,,,,,,,,,,,,,,,,AMP,left,0.850461849508406,,,left,1,0.850461849508406,1,,,,,,,,,,,,,,,,,,,,1033,2019_Mar_07_1401,mf_amp_cond1,3.0.4,59.992361477233565,
fonderland,ugeasily,&&&&&&&&,None,nonword,,,,,0,43,43,43,,,,,,,,,,,,,,,,,,,,,,,AMP,right,0.8004440015689624,,,right,0,0.8004440015689624,0,,,,,,,,,,,,,,,,,,,,1033,2019_Mar_07_1401,mf_amp_cond1,3.0.4,59.992361477233565,
ban,squets,&&&&&&,right,loyalty.vice,,,,,0,44,44,44,,,,,,,,,,,,,,,,,,,,,,,AMP,left,0.36697832942650166,,,left,0,0.36697832942650166,0,,,,,,,,,,,,,,,,,,,,1033,2019_Mar_07_1401,mf_amp_cond1,3.0.4,59.992361477233565,
gun,elduringly,&&&&&&&&&&,right,authority.vice,,,,,0,45,45,45,,,,,,,,,,,,,,,,,,,,,,,AMP,right,0.5837276824587434,,,right,1,0.5837276824587434,1,,,,,,,,,,,,,,,,,,,,1033,2019_Mar_07_1401,mf_amp_cond1,3.0.4,59.992361477233565,
accused,bluently,&&&&&&&&,right,fairness.vice,,,,,0,46,46,46,,,,,,,,,,,,,,,,,,,,,,,AMP,right,1.634009481056296,,,right,1,1.634009481056296,1,,,,,,,,,,,,,,,,,,,,1033,2019_Mar_07_1401,mf_amp_cond1,3.0.4,59.992361477233565,
promised,dormandi,&&&&&&&&,left,loyalty.virtue,,,,,0,47,47,47,,,,,,,,,,,,,,,,,,,,,,,AMP,left,0.46702396755358677,,,left,1,0.46702396755358677,1,,,,,,,,,,,,,,,,,,,,1033,2019_Mar_07_1401,mf_amp_cond1,3.0.4,59.992361477233565,
ensure,sgrawl,&&&&&&,left,fairness.virtue,,,,,0,48,48,48,,,,,,,,,,,,,,,,,,,,,,,AMP,left,0.5337085516484876,,,left,1,0.5337085516484876,1,,,,,,,,,,,,,,,,,,,,1033,2019_Mar_07_1401,mf_amp_cond1,3.0.4,59.992361477233565,
terrorist,viscs,&&&&&,right,loyalty.vice,,,,,0,49,49,49,,,,,,,,,,,,,,,,,,,,,,,AMP,right,0.5171088454900428,,,right,1,0.5171088454900428,1,,,,,,,,,,,,,,,,,,,,1033,2019_Mar_07_1401,mf_amp_cond1,3.0.4,59.992361477233565,
proached,sidearbs,&&&&&&&&,None,nonword,,,,,0,50,50,50,,,,,,,,,,,,,,,,,,,,,,,AMP,right,1.2505780134554243,,,right,0,1.2505780134554243,0,,,,,,,,,,,,,,,,,,,,1033,2019_Mar_07_1401,mf_amp_cond1,3.0.4,59.992361477233565,
pleasant,pullness,&&&&&&&&,None,control,,,,,0,51,51,51,,,,,,,,,,,,,,,,,,,,,,,AMP,right,0.7170881912709319,,,right,0,0.7170881912709319,0,,,,,,,,,,,,,,,,,,,,1033,2019_Mar_07_1401,mf_amp_cond1,3.0.4,59.992361477233565,
slavery,gikely,&&&&&&,right,loyalty.vice,,,,,0,52,52,52,,,,,,,,,,,,,,,,,,,,,,,AMP,right,0.6337452096804554,,,right,1,0.6337452096804554,1,,,,,,,,,,,,,,,,,,,,1033,2019_Mar_07_1401,mf_amp_cond1,3.0.4,59.992361477233565,
riot,nomparisons,&&&&&&&&&&&,right,authority.vice,,,,,0,53,53,53,,,,,,,,,,,,,,,,,,,,,,,AMP,right,0.9338266399016675,,,right,1,0.9338266399016675,1,,,,,,,,,,,,,,,,,,,,1033,2019_Mar_07_1401,mf_amp_cond1,3.0.4,59.992361477233565,
strong,leact,&&&&&,left,loyalty.virtue,,,,,0,54,54,54,,,,,,,,,,,,,,,,,,,,,,,AMP,left,0.5837228716933396,,,left,1,0.5837228716933396,1,,,,,,,,,,,,,,,,,,,,1033,2019_Mar_07_1401,mf_amp_cond1,3.0.4,59.992361477233565,
groups,framo,&&&&&,right,loyalty.vice,,,,,0,55,55,55,,,,,,,,,,,,,,,,,,,,,,,AMP,left,0.5503929272769028,,,left,0,0.5503929272769028,0,,,,,,,,,,,,,,,,,,,,1033,2019_Mar_07_1401,mf_amp_cond1,3.0.4,59.992361477233565,
army,abointment,&&&&&&&&&&,right,loyalty.vice,,,,,0,56,56,56,,,,,,,,,,,,,,,,,,,,,,,AMP,right,0.9669997533680998,,,right,1,0.9669997533680998,1,,,,,,,,,,,,,,,,,,,,1033,2019_Mar_07_1401,mf_amp_cond1,3.0.4,59.992361477233565,
frocessing,fostet,&&&&&&,None,nonword,,,,,0,57,57,57,,,,,,,,,,,,,,,,,,,,,,,AMP,right,5.418210414537157,,,right,0,5.418210414537157,0,,,,,,,,,,,,,,,,,,,,1033,2019_Mar_07_1401,mf_amp_cond1,3.0.4,59.992361477233565,
victim,reviked,&&&&&&&,right,care.vice,,,,,0,58,58,58,,,,,,,,,,,,,,,,,,,,,,,AMP,left,1.2839156550963935,,,left,0,1.2839156550963935,0,,,,,,,,,,,,,,,,,,,,1033,2019_Mar_07_1401,mf_amp_cond1,3.0.4,59.992361477233565,
presentkess,pistraught,&&&&&&&&&&,None,nonword,,,,,0,59,59,59,,,,,,,,,,,,,,,,,,,,,,,AMP,left,0.7504380201839922,,,left,0,0.7504380201839922,0,,,,,,,,,,,,,,,,,,,,1033,2019_Mar_07_1401,mf_amp_cond1,3.0.4,59.992361477233565,
safety,erks,&&&&,left,care.virtue,,,,,0,60,60,60,,,,,,,,,,,,,,,,,,,,,,,AMP,left,0.5003641749360668,,,left,1,0.5003641749360668,1,,,,,,,,,,,,,,,,,,,,1033,2019_Mar_07_1401,mf_amp_cond1,3.0.4,59.992361477233565,
racist,perified,&&&&&&&&,right,sanctity.vice,,,,,0,61,61,61,,,,,,,,,,,,,,,,,,,,,,,AMP,right,0.9004710380701226,,,right,1,0.9004710380701226,1,,,,,,,,,,,,,,,,,,,,1033,2019_Mar_07_1401,mf_amp_cond1,3.0.4,59.992361477233565,
illegal,clattening,&&&&&&&&&&,right,fairness.vice,,,,,0,62,62,62,,,,,,,,,,,,,,,,,,,,,,,AMP,left,1.2338939585447406,,,left,0,1.2338939585447406,0,,,,,,,,,,,,,,,,,,,,1033,2019_Mar_07_1401,mf_amp_cond1,3.0.4,59.992361477233565,
crime,coom,&&&&,right,fairness.vice,,,,,0,63,63,63,,,,,,,,,,,,,,,,,,,,,,,AMP,left,1.834022502194557,,,left,0,1.834022502194557,0,,,,,,,,,,,,,,,,,,,,1033,2019_Mar_07_1401,mf_amp_cond1,3.0.4,59.992361477233565,
respect,cromiscuity,&&&&&&&&&&&,left,sanctity.virtue,,,,,0,64,64,64,,,,,,,,,,,,,,,,,,,,,,,AMP,right,0.43368921237185987,,,right,0,0.43368921237185987,0,,,,,,,,,,,,,,,,,,,,1033,2019_Mar_07_1401,mf_amp_cond1,3.0.4,59.992361477233565,
dignity,Oregoniuns,&&&&&&&&&&,left,sanctity.virtue,,,,,0,65,65,65,,,,,,,,,,,,,,,,,,,,,,,AMP,right,0.6337564347995794,,,right,0,0.6337564347995794,0,,,,,,,,,,,,,,,,,,,,1033,2019_Mar_07_1401,mf_amp_cond1,3.0.4,59.992361477233565,
unpleasant,counpy's,&&&&&&&&,None,control,,,,,0,66,66,66,,,,,,,,,,,,,,,,,,,,,,,AMP,left,0.5170376461630894,,,left,0,0.5170376461630894,0,,,,,,,,,,,,,,,,,,,,1033,2019_Mar_07_1401,mf_amp_cond1,3.0.4,59.992361477233565,
sharing,baklara,&&&&&&&,left,loyalty.virtue,,,,,0,67,67,67,,,,,,,,,,,,,,,,,,,,,,,AMP,left,1.1670612028773348,,,left,1,1.1670612028773348,1,,,,,,,,,,,,,,,,,,,,1033,2019_Mar_07_1401,mf_amp_cond1,3.0.4,59.992361477233565,
war,ablow,&&&&&,right,sanctity.vice,,,,,0,68,68,68,,,,,,,,,,,,,,,,,,,,,,,AMP,right,0.4837093053351964,,,right,1,0.4837093053351964,1,,,,,,,,,,,,,,,,,,,,1033,2019_Mar_07_1401,mf_amp_cond1,3.0.4,59.992361477233565,
trust,feleological,&&&&&&&&&&&&,left,authority.virtue,,,,,0,69,69,69,,,,,,,,,,,,,,,,,,,,,,,AMP,left,1.8173727640765946,,,left,1,1.8173727640765946,1,,,,,,,,,,,,,,,,,,,,1033,2019_Mar_07_1401,mf_amp_cond1,3.0.4,59.992361477233565,
commitment,ittutable,&&&&&&&&&,left,sanctity.virtue,,,,,0,70,70,70,,,,,,,,,,,,,,,,,,,,,,,AMP,left,0.5003811729736753,,,left,1,0.5003811729736753,1,,,,,,,,,,,,,,,,,,,,1033,2019_Mar_07_1401,mf_amp_cond1,3.0.4,59.992361477233565,
conspiracy,aubos,&&&&&,right,sanctity.vice,,,,,0,71,71,71,,,,,,,,,,,,,,,,,,,,,,,AMP,left,0.8504711503213684,,,left,0,0.8504711503213684,0,,,,,,,,,,,,,,,,,,,,1033,2019_Mar_07_1401,mf_amp_cond1,3.0.4,59.992361477233565,
increase,grovelire,&&&&&&&&&,left,care.virtue,,,,,0,72,72,72,,,,,,,,,,,,,,,,,,,,,,,AMP,right,1.0338309054469619,,,right,0,1.0338309054469619,0,,,,,,,,,,,,,,,,,,,,1033,2019_Mar_07_1401,mf_amp_cond1,3.0.4,59.992361477233565,
fair,ebbitter,&&&&&&&&,left,fairness.virtue,,,,,0,73,73,73,,,,,,,,,,,,,,,,,,,,,,,AMP,left,0.7171013406961038,,,left,1,0.7171013406961038,1,,,,,,,,,,,,,,,,,,,,1033,2019_Mar_07_1401,mf_amp_cond1,3.0.4,59.992361477233565,
intelligence,prones,&&&&&&,left,loyalty.virtue,,,,,0,74,74,74,,,,,,,,,,,,,,,,,,,,,,,AMP,right,0.9504773401727107,,,right,0,0.9504773401727107,0,,,,,,,,,,,,,,,,,,,,1033,2019_Mar_07_1401,mf_amp_cond1,3.0.4,59.992361477233565,
honored,touls,&&&&&,left,authority.virtue,,,,,0,75,75,75,,,,,,,,,,,,,,,,,,,,,,,AMP,left,1.9007199149968983,,,left,1,1.9007199149968983,1,,,,,,,,,,,,,,,,,,,,1033,2019_Mar_07_1401,mf_amp_cond1,3.0.4,59.992361477233565,
promises,precificity,&&&&&&&&&&&,left,fairness.virtue,,,,,0,76,76,76,,,,,,,,,,,,,,,,,,,,,,,AMP,right,0.5670596634324738,,,right,0,0.5670596634324738,0,,,,,,,,,,,,,,,,,,,,1033,2019_Mar_07_1401,mf_amp_cond1,3.0.4,59.992361477233565,
hate,crinking,&&&&&&&&,right,fairness.vice,,,,,0,77,77,77,,,,,,,,,,,,,,,,,,,,,,,AMP,right,1.583958919912675,,,right,1,1.583958919912675,1,,,,,,,,,,,,,,,,,,,,1033,2019_Mar_07_1401,mf_amp_cond1,3.0.4,59.992361477233565,
refused,oam,&&&,right,authority.vice,,,,,0,78,78,78,,,,,,,,,,,,,,,,,,,,,,,AMP,left,0.667094076440435,,,left,0,0.667094076440435,0,,,,,,,,,,,,,,,,,,,,1033,2019_Mar_07_1401,mf_amp_cond1,3.0.4,59.992361477233565,
fighters,simplustic,&&&&&&&&&&,right,authority.vice,,,,,0,79,79,79,,,,,,,,,,,,,,,,,,,,,,,AMP,right,0.8171190763844152,,,right,1,0.8171190763844152,1,,,,,,,,,,,,,,,,,,,,1033,2019_Mar_07_1401,mf_amp_cond1,3.0.4,59.992361477233565,
threatened,antral,&&&&&&,right,fairness.vice,,,,,0,80,80,80,,,,,,,,,,,,,,,,,,,,,,,AMP,left,0.6003960222026308,,,left,0,0.6003960222026308,0,,,,,,,,,,,,,,,,,,,,1033,2019_Mar_07_1401,mf_amp_cond1,3.0.4,59.992361477233565,
abuse,egpeditious,&&&&&&&&&&&,right,sanctity.vice,,,,,0,81,81,81,,,,,,,,,,,,,,,,,,,,,,,AMP,left,0.8171136241836621,,,left,0,0.8171136241836621,0,,,,,,,,,,,,,,,,,,,,1033,2019_Mar_07_1401,mf_amp_cond1,3.0.4,59.992361477233565,
suicide,abointment,&&&&&&&&&&,right,care.vice,,,,,0,82,82,82,,,,,,,,,,,,,,,,,,,,,,,AMP,left,1.1171841500034816,,,left,0,1.1171841500034816,0,,,,,,,,,,,,,,,,,,,,1033,2019_Mar_07_1401,mf_amp_cond1,3.0.4,59.992361477233565,
celebrated,feleological,&&&&&&&&&&&&,left,authority.virtue,,,,,0,83,83,83,,,,,,,,,,,,,,,,,,,,,,,AMP,left,0.6337413610682461,,,left,1,0.6337413610682461,1,,,,,,,,,,,,,,,,,,,,1033,2019_Mar_07_1401,mf_amp_cond1,3.0.4,59.992361477233565,
shot,clamorek,&&&&&&&&,right,care.vice,,,,,0,84,84,84,,,,,,,,,,,,,,,,,,,,,,,AMP,left,1.2005357909715713,,,left,0,1.2005357909715713,0,,,,,,,,,,,,,,,,,,,,1033,2019_Mar_07_1401,mf_amp_cond1,3.0.4,59.992361477233565,
terrorist,fornicalion,&&&&&&&&&&&,right,loyalty.vice,,,,,0,85,85,85,,,,,,,,,,,,,,,,,,,,,,,AMP,left,1.1339015595539195,,,left,0,1.1339015595539195,0,,,,,,,,,,,,,,,,,,,,1033,2019_Mar_07_1401,mf_amp_cond1,3.0.4,59.992361477233565,
gun,cromiscuity,&&&&&&&&&&&,right,authority.vice,,,,,0,86,86,86,,,,,,,,,,,,,,,,,,,,,,,AMP,right,0.5503807400048117,,,right,1,0.5503807400048117,1,,,,,,,,,,,,,,,,,,,,1033,2019_Mar_07_1401,mf_amp_cond1,3.0.4,59.992361477233565,
torture,ittutable,&&&&&&&&&,right,care.vice,,,,,0,87,87,87,,,,,,,,,,,,,,,,,,,,,,,AMP,left,3.034326093559116,,,left,0,3.034326093559116,0,,,,,,,,,,,,,,,,,,,,1033,2019_Mar_07_1401,mf_amp_cond1,3.0.4,59.992361477233565,
blamed,chadows,&&&&&&&,right,loyalty.vice,,,,,0,88,88,88,,,,,,,,,,,,,,,,,,,,,,,AMP,right,0.566870439995796,,,right,1,0.566870439995796,1,,,,,,,,,,,,,,,,,,,,1033,2019_Mar_07_1401,mf_amp_cond1,3.0.4,59.992361477233565,
commitment,sgrawl,&&&&&&,left,sanctity.virtue,,,,,0,89,89,89,,,,,,,,,,,,,,,,,,,,,,,AMP,right,0.9172019177634638,,,right,0,0.9172019177634638,0,,,,,,,,,,,,,,,,,,,,1033,2019_Mar_07_1401,mf_amp_cond1,3.0.4,59.992361477233565,
protesters,gusinesslike,&&&&&&&&&&&&,right,authority.vice,,,,,0,90,90,90,,,,,,,,,,,,,,,,,,,,,,,AMP,right,0.8671378864769395,,,right,1,0.8671378864769395,1,,,,,,,,,,,,,,,,,,,,1033,2019_Mar_07_1401,mf_amp_cond1,3.0.4,59.992361477233565,
voter,baklara,&&&&&&&,right,fairness.vice,,,,,0,91,91,91,,,,,,,,,,,,,,,,,,,,,,,AMP,left,0.9004716795054719,,,left,0,0.9004716795054719,0,,,,,,,,,,,,,,,,,,,,1033,2019_Mar_07_1401,mf_amp_cond1,3.0.4,59.992361477233565,
honored,clattening,&&&&&&&&&&,left,authority.virtue,,,,,0,92,92,92,,,,,,,,,,,,,,,,,,,,,,,AMP,left,0.7837836797672253,,,left,1,0.7837836797672253,1,,,,,,,,,,,,,,,,,,,,1033,2019_Mar_07_1401,mf_amp_cond1,3.0.4,59.992361477233565,
integrity,dormandi,&&&&&&&&,left,fairness.virtue,,,,,0,93,93,93,,,,,,,,,,,,,,,,,,,,,,,AMP,right,0.6003248228757911,,,right,0,0.6003248228757911,0,,,,,,,,,,,,,,,,,,,,1033,2019_Mar_07_1401,mf_amp_cond1,3.0.4,59.992361477233565,
groups,epigrach,&&&&&&&&,right,loyalty.vice,,,,,0,94,94,94,,,,,,,,,,,,,,,,,,,,,,,AMP,left,0.8838004533024559,,,left,0,0.8838004533024559,0,,,,,,,,,,,,,,,,,,,,1033,2019_Mar_07_1401,mf_amp_cond1,3.0.4,59.992361477233565,
respect,honstables,&&&&&&&&&&,left,sanctity.virtue,,,,,0,95,95,95,,,,,,,,,,,,,,,,,,,,,,,AMP,right,0.5170305903739063,,,right,0,0.5170305903739063,0,,,,,,,,,,,,,,,,,,,,1033,2019_Mar_07_1401,mf_amp_cond1,3.0.4,59.992361477233565,
victims,egpeditious,&&&&&&&&&&&,right,care.vice,,,,,0,96,96,96,,,,,,,,,,,,,,,,,,,,,,,AMP,left,0.5337133624138914,,,left,0,0.5337133624138914,0,,,,,,,,,,,,,,,,,,,,1033,2019_Mar_07_1401,mf_amp_cond1,3.0.4,59.992361477233565,
fighters,nomparisons,&&&&&&&&&&&,right,authority.vice,,,,,0,97,97,97,,,,,,,,,,,,,,,,,,,,,,,AMP,left,2.284142402502539,,,left,0,2.284142402502539,0,,,,,,,,,,,,,,,,,,,,1033,2019_Mar_07_1401,mf_amp_cond1,3.0.4,59.992361477233565,
fonderland,unscothed,&&&&&&&&&,None,nonword,,,,,0,98,98,98,,,,,,,,,,,,,,,,,,,,,,,AMP,left,0.6503962306692301,,,left,0,0.6503962306692301,0,,,,,,,,,,,,,,,,,,,,1033,2019_Mar_07_1401,mf_amp_cond1,3.0.4,59.992361477233565,
harassment,wonderfujnoss,&&&&&&&&&&&&&,right,sanctity.vice,,,,,0,99,99,99,,,,,,,,,,,,,,,,,,,,,,,AMP,right,0.4003448356593253,,,right,1,0.4003448356593253,1,,,,,,,,,,,,,,,,,,,,1033,2019_Mar_07_1401,mf_amp_cond1,3.0.4,59.992361477233565,
unpleasant,bluently,&&&&&&&&,None,control,,,,,0,100,100,100,,,,,,,,,,,,,,,,,,,,,,,AMP,right,0.6670472516577775,,,right,0,0.6670472516577775,0,,,,,,,,,,,,,,,,,,,,1033,2019_Mar_07_1401,mf_amp_cond1,3.0.4,59.992361477233565,
ban,ebbitter,&&&&&&&&,right,loyalty.vice,,,,,0,101,101,101,,,,,,,,,,,,,,,,,,,,,,,AMP,left,0.5170337975507664,,,left,0,0.5170337975507664,0,,,,,,,,,,,,,,,,,,,,1033,2019_Mar_07_1401,mf_amp_cond1,3.0.4,59.992361477233565,
threatened,forepo,&&&&&&,right,fairness.vice,,,,,0,102,102,102,,,,,,,,,,,,,,,,,,,,,,,AMP,left,0.6504052107643474,,,left,0,0.6504052107643474,0,,,,,,,,,,,,,,,,,,,,1033,2019_Mar_07_1401,mf_amp_cond1,3.0.4,59.992361477233565,
sharing,carvels,&&&&&&&,left,loyalty.virtue,,,,,0,103,103,103,,,,,,,,,,,,,,,,,,,,,,,AMP,right,0.26698849617719134,,,right,0,0.26698849617719134,0,,,,,,,,,,,,,,,,,,,,1033,2019_Mar_07_1401,mf_amp_cond1,3.0.4,59.992361477233565,
chared,Lacedonia,&&&&&&&&&,None,nonword,,,,,0,104,104,104,,,,,,,,,,,,,,,,,,,,,,,AMP,right,0.6003777412943236,,,right,0,0.6003777412943236,0,,,,,,,,,,,,,,,,,,,,1033,2019_Mar_07_1401,mf_amp_cond1,3.0.4,59.992361477233565,
proached,grovelire,&&&&&&&&&,None,nonword,,,,,0,105,105,105,,,,,,,,,,,,,,,,,,,,,,,AMP,left,1.0671746407240335,,,left,0,1.0671746407240335,0,,,,,,,,,,,,,,,,,,,,1033,2019_Mar_07_1401,mf_amp_cond1,3.0.4,59.992361477233565,
strength,crinking,&&&&&&&&,left,sanctity.virtue,,,,,0,106,106,106,,,,,,,,,,,,,,,,,,,,,,,AMP,right,0.9171342463309884,,,right,0,0.9171342463309884,0,,,,,,,,,,,,,,,,,,,,1033,2019_Mar_07_1401,mf_amp_cond1,3.0.4,59.992361477233565,
riot,Loorish,&&&&&&&,right,authority.vice,,,,,0,107,107,107,,,,,,,,,,,,,,,,,,,,,,,AMP,right,0.7837817554611775,,,right,1,0.7837817554611775,1,,,,,,,,,,,,,,,,,,,,1033,2019_Mar_07_1401,mf_amp_cond1,3.0.4,59.992361477233565,
trust,lorthwhile,&&&&&&&&&&,left,authority.virtue,,,,,0,108,108,108,,,,,,,,,,,,,,,,,,,,,,,AMP,right,0.567051004054747,,,right,0,0.567051004054747,0,,,,,,,,,,,,,,,,,,,,1033,2019_Mar_07_1401,mf_amp_cond1,3.0.4,59.992361477233565,
help,tracious,&&&&&&&&,left,care.virtue,,,,,0,109,109,109,,,,,,,,,,,,,,,,,,,,,,,AMP,right,0.6504087386590527,,,right,0,0.6504087386590527,0,,,,,,,,,,,,,,,,,,,,1033,2019_Mar_07_1401,mf_amp_cond1,3.0.4,59.992361477233565,
arrests,counpy's,&&&&&&&&,right,authority.vice,,,,,0,110,110,110,,,,,,,,,,,,,,,,,,,,,,,AMP,left,1.1837234489853472,,,left,0,1.1837234489853472,0,,,,,,,,,,,,,,,,,,,,1033,2019_Mar_07_1401,mf_amp_cond1,3.0.4,59.992361477233565,
growth,tove,&&&&,left,care.virtue,,,,,0,111,111,111,,,,,,,,,,,,,,,,,,,,,,,AMP,left,0.7337719254639978,,,left,1,0.7337719254639978,1,,,,,,,,,,,,,,,,,,,,1033,2019_Mar_07_1401,mf_amp_cond1,3.0.4,59.992361477233565,
died,touls,&&&&&,right,care.vice,,,,,0,112,112,112,,,,,,,,,,,,,,,,,,,,,,,AMP,left,0.40034387350647194,,,left,0,0.40034387350647194,0,,,,,,,,,,,,,,,,,,,,1033,2019_Mar_07_1401,mf_amp_cond1,3.0.4,59.992361477233565,
safety,aubos,&&&&&,left,care.virtue,,,,,0,113,113,113,,,,,,,,,,,,,,,,,,,,,,,AMP,right,0.6837409280990414,,,right,0,0.6837409280990414,0,,,,,,,,,,,,,,,,,,,,1033,2019_Mar_07_1401,mf_amp_cond1,3.0.4,59.992361477233565,
intelligence,Phintoism,&&&&&&&&&,left,loyalty.virtue,,,,,0,114,114,114,,,,,,,,,,,,,,,,,,,,,,,AMP,right,0.5837254374348504,,,right,0,0.5837254374348504,0,,,,,,,,,,,,,,,,,,,,1033,2019_Mar_07_1401,mf_amp_cond1,3.0.4,59.992361477233565,
prosecution,refuejing,&&&&&&&&&,right,authority.vice,,,,,0,115,115,115,,,,,,,,,,,,,,,,,,,,,,,AMP,left,1.0005227698334238,,,left,0,1.0005227698334238,0,,,,,,,,,,,,,,,,,,,,1033,2019_Mar_07_1401,mf_amp_cond1,3.0.4,59.992361477233565,
victim,rivernoat,&&&&&&&&&,right,care.vice,,,,,0,116,116,116,,,,,,,,,,,,,,,,,,,,,,,AMP,left,0.6337525861872564,,,left,0,0.6337525861872564,0,,,,,,,,,,,,,,,,,,,,1033,2019_Mar_07_1401,mf_amp_cond1,3.0.4,59.992361477233565,
racist,pistraught,&&&&&&&&&&,right,sanctity.vice,,,,,0,117,117,117,,,,,,,,,,,,,,,,,,,,,,,AMP,right,0.6837604918782745,,,right,1,0.6837604918782745,1,,,,,,,,,,,,,,,,,,,,1033,2019_Mar_07_1401,mf_amp_cond1,3.0.4,59.992361477233565,
vurtain,ugeasily,&&&&&&&&,None,nonword,,,,,0,118,118,118,,,,,,,,,,,,,,,,,,,,,,,AMP,left,3.084325981307984,,,left,0,3.084325981307984,0,,,,,,,,,,,,,,,,,,,,1033,2019_Mar_07_1401,mf_amp_cond1,3.0.4,59.992361477233565,
opportunity,yane,&&&&,left,fairness.virtue,,,,,0,119,119,119,,,,,,,,,,,,,,,,,,,,,,,AMP,left,0.4837073810290349,,,left,1,0.4837073810290349,1,,,,,,,,,,,,,,,,,,,,1033,2019_Mar_07_1401,mf_amp_cond1,3.0.4,59.992361477233565,
pleasant,gikely,&&&&&&,None,control,,,,,0,120,120,120,,,,,,,,,,,,,,,,,,,,,,,AMP,right,0.43369498529023076,,,right,0,0.43369498529023076,0,,,,,,,,,,,,,,,,,,,,1033,2019_Mar_07_1401,mf_amp_cond1,3.0.4,59.992361477233565,
dignity,reviked,&&&&&&&,left,sanctity.virtue,,,,,0,121,121,121,,,,,,,,,,,,,,,,,,,,,,,AMP,left,0.483699363086771,,,left,1,0.483699363086771,1,,,,,,,,,,,,,,,,,,,,1033,2019_Mar_07_1401,mf_amp_cond1,3.0.4,59.992361477233565,
protect,ablow,&&&&&,left,fairness.virtue,,,,,0,122,122,122,,,,,,,,,,,,,,,,,,,,,,,AMP,right,0.5337534521249836,,,right,0,0.5337534521249836,0,,,,,,,,,,,,,,,,,,,,1033,2019_Mar_07_1401,mf_amp_cond1,3.0.4,59.992361477233565,
lies,gazily,&&&&&&,right,fairness.vice,,,,,0,123,123,123,,,,,,,,,,,,,,,,,,,,,,,AMP,right,0.5837231924110711,,,right,1,0.5837231924110711,1,,,,,,,,,,,,,,,,,,,,1033,2019_Mar_07_1401,mf_amp_cond1,3.0.4,59.992361477233565,
troops,framo,&&&&&,right,loyalty.vice,,,,,0,124,124,124,,,,,,,,,,,,,,,,,,,,,,,AMP,right,0.9171342463309884,,,right,1,0.9171342463309884,1,,,,,,,,,,,,,,,,,,,,1033,2019_Mar_07_1401,mf_amp_cond1,3.0.4,59.992361477233565,
support,gaultless,&&&&&&&&&,left,loyalty.virtue,,,,,0,125,125,125,,,,,,,,,,,,,,,,,,,,,,,AMP,left,1.0838506776926806,,,left,1,1.0838506776926806,1,,,,,,,,,,,,,,,,,,,,1033,2019_Mar_07_1401,mf_amp_cond1,3.0.4,59.992361477233565,
promised,leact,&&&&&,left,loyalty.virtue,,,,,0,126,126,126,,,,,,,,,,,,,,,,,,,,,,,AMP,left,1.2338827334256166,,,left,1,1.2338827334256166,1,,,,,,,,,,,,,,,,,,,,1033,2019_Mar_07_1401,mf_amp_cond1,3.0.4,59.992361477233565,
violence,noped,&&&&&,right,care.vice,,,,,0,127,127,127,,,,,,,,,,,,,,,,,,,,,,,AMP,left,0.5670481175955047,,,left,0,0.5670481175955047,0,,,,,,,,,,,,,,,,,,,,1033,2019_Mar_07_1401,mf_amp_cond1,3.0.4,59.992361477233565,
illegal,unreflectuve,&&&&&&&&&&&&,right,fairness.vice,,,,,0,128,128,128,,,,,,,,,,,,,,,,,,,,,,,AMP,right,0.7171154522745837,,,right,1,0.7171154522745837,1,,,,,,,,,,,,,,,,,,,,1033,2019_Mar_07_1401,mf_amp_cond1,3.0.4,59.992361477233565,
interests,mightingale,&&&&&&&&&&&,left,fairness.virtue,,,,,0,129,129,129,,,,,,,,,,,,,,,,,,,,,,,AMP,right,0.6503975135399287,,,right,0,0.6503975135399287,0,,,,,,,,,,,,,,,,,,,,1033,2019_Mar_07_1401,mf_amp_cond1,3.0.4,59.992361477233565,
frocessing,squets,&&&&&&,None,nonword,,,,,0,130,130,130,,,,,,,,,,,,,,,,,,,,,,,AMP,left,0.433683439453489,,,left,0,0.433683439453489,0,,,,,,,,,,,,,,,,,,,,1033,2019_Mar_07_1401,mf_amp_cond1,3.0.4,59.992361477233565,
love,divility,&&&&&&&&,left,loyalty.virtue,,,,,0,131,131,131,,,,,,,,,,,,,,,,,,,,,,,AMP,right,0.6337724706838799,,,right,0,0.6337724706838799,0,,,,,,,,,,,,,,,,,,,,1033,2019_Mar_07_1401,mf_amp_cond1,3.0.4,59.992361477233565,
hate,viscs,&&&&&,right,fairness.vice,,,,,0,132,132,132,,,,,,,,,,,,,,,,,,,,,,,AMP,left,0.5503749670863272,,,left,0,0.5503749670863272,0,,,,,,,,,,,,,,,,,,,,1033,2019_Mar_07_1401,mf_amp_cond1,3.0.4,59.992361477233565,
increase,fostet,&&&&&&,left,care.virtue,,,,,0,133,133,133,,,,,,,,,,,,,,,,,,,,,,,AMP,left,0.850452227977712,,,left,1,0.850452227977712,1,,,,,,,,,,,,,,,,,,,,1033,2019_Mar_07_1401,mf_amp_cond1,3.0.4,59.992361477233565,
troubla,erks,&&&&,None,nonword,,,,,0,134,134,134,,,,,,,,,,,,,,,,,,,,,,,AMP,left,1.0838583749170994,,,left,0,1.0838583749170994,0,,,,,,,,,,,,,,,,,,,,1033,2019_Mar_07_1401,mf_amp_cond1,3.0.4,59.992361477233565,
strong,elduringly,&&&&&&&&&&,left,loyalty.virtue,,,,,0,135,135,135,,,,,,,,,,,,,,,,,,,,,,,AMP,right,0.6004043608625125,,,right,0,0.6004043608625125,0,,,,,,,,,,,,,,,,,,,,1033,2019_Mar_07_1401,mf_amp_cond1,3.0.4,59.992361477233565,
faith,infet,&&&&&,left,sanctity.virtue,,,,,0,136,136,136,,,,,,,,,,,,,,,,,,,,,,,AMP,left,0.8504377956815006,,,left,1,0.8504377956815006,1,,,,,,,,,,,,,,,,,,,,1033,2019_Mar_07_1401,mf_amp_cond1,3.0.4,59.992361477233565,
drug,idexpressible,&&&&&&&&&&&&&,right,sanctity.vice,,,,,0,137,137,137,,,,,,,,,,,,,,,,,,,,,,,AMP,right,0.6170547404160516,,,right,1,0.6170547404160516,1,,,,,,,,,,,,,,,,,,,,1033,2019_Mar_07_1401,mf_amp_cond1,3.0.4,59.992361477233565,
encourage,reprisols,&&&&&&&&&,left,authority.virtue,,,,,0,138,138,138,,,,,,,,,,,,,,,,,,,,,,,AMP,right,0.5503772121101065,,,right,0,0.5503772121101065,0,,,,,,,,,,,,,,,,,,,,1033,2019_Mar_07_1401,mf_amp_cond1,3.0.4,59.992361477233565,
tenuflect,bycled,&&&&&&,None,nonword,,,,,0,139,139,139,,,,,,,,,,,,,,,,,,,,,,,AMP,left,1.1171822256974338,,,left,0,1.1171822256974338,0,,,,,,,,,,,,,,,,,,,,1033,2019_Mar_07_1401,mf_amp_cond1,3.0.4,59.992361477233565,
abuse,pharing,&&&&&&&,right,sanctity.vice,,,,,0,140,140,140,,,,,,,,,,,,,,,,,,,,,,,AMP,right,0.6337545104934179,,,right,1,0.6337545104934179,1,,,,,,,,,,,,,,,,,,,,1033,2019_Mar_07_1401,mf_amp_cond1,3.0.4,59.992361477233565,
accused,galamitous,&&&&&&&&&&,right,fairness.vice,,,,,0,141,141,141,,,,,,,,,,,,,,,,,,,,,,,AMP,right,0.7671057184927577,,,right,1,0.7671057184927577,1,,,,,,,,,,,,,,,,,,,,1033,2019_Mar_07_1401,mf_amp_cond1,3.0.4,59.992361477233565,
powerful,faspberry,&&&&&&&&&,left,authority.virtue,,,,,0,142,142,142,,,,,,,,,,,,,,,,,,,,,,,AMP,left,0.750416532098825,,,left,1,0.750416532098825,1,,,,,,,,,,,,,,,,,,,,1033,2019_Mar_07_1401,mf_amp_cond1,3.0.4,59.992361477233565,
war,emports,&&&&&&&,right,sanctity.vice,,,,,0,143,143,143,,,,,,,,,,,,,,,,,,,,,,,AMP,left,1.2505568460878749,,,left,0,1.2505568460878749,0,,,,,,,,,,,,,,,,,,,,1033,2019_Mar_07_1401,mf_amp_cond1,3.0.4,59.992361477233565,
crime,coom,&&&&,right,fairness.vice,,,,,0,144,144,144,,,,,,,,,,,,,,,,,,,,,,,AMP,left,0.517046305540589,,,left,0,0.517046305540589,0,,,,,,,,,,,,,,,,,,,,1033,2019_Mar_07_1401,mf_amp_cond1,3.0.4,59.992361477233565,
perfect,antral,&&&&&&,left,sanctity.virtue,,,,,0,145,145,145,,,,,,,,,,,,,,,,,,,,,,,AMP,left,0.450369739387952,,,left,1,0.450369739387952,1,,,,,,,,,,,,,,,,,,,,1033,2019_Mar_07_1401,mf_amp_cond1,3.0.4,59.992361477233565,
embrace,prones,&&&&&&,left,authority.virtue,,,,,0,146,146,146,,,,,,,,,,,,,,,,,,,,,,,AMP,right,0.6003841556482712,,,right,0,0.6003841556482712,0,,,,,,,,,,,,,,,,,,,,1033,2019_Mar_07_1401,mf_amp_cond1,3.0.4,59.992361477233565,
friends,sidearbs,&&&&&&&&,left,loyalty.virtue,,,,,0,147,147,147,,,,,,,,,,,,,,,,,,,,,,,AMP,right,0.4837121917942113,,,right,0,0.4837121917942113,0,,,,,,,,,,,,,,,,,,,,1033,2019_Mar_07_1401,mf_amp_cond1,3.0.4,59.992361477233565,
values,Oregoniuns,&&&&&&&&&&,left,sanctity.virtue,,,,,0,148,148,148,,,,,,,,,,,,,,,,,,,,,,,AMP,right,0.3501839476305122,,,right,0,0.3501839476305122,0,,,,,,,,,,,,,,,,,,,,1033,2019_Mar_07_1401,mf_amp_cond1,3.0.4,59.992361477233565,
army,ejanulated,&&&&&&&&&&,right,loyalty.vice,,,,,0,149,149,149,,,,,,,,,,,,,,,,,,,,,,,AMP,right,0.8837911524894935,,,right,1,0.8837911524894935,1,,,,,,,,,,,,,,,,,,,,1033,2019_Mar_07_1401,mf_amp_cond1,3.0.4,59.992361477233565,
erdest,saned,&&&&&,None,nonword,,,,,0,150,150,150,,,,,,,,,,,,,,,,,,,,,,,AMP,right,0.8004289278374017,,,right,0,0.8004289278374017,0,,,,,,,,,,,,,,,,,,,,1033,2019_Mar_07_1401,mf_amp_cond1,3.0.4,59.992361477233565,
conspiracy,oam,&&&,right,sanctity.vice,,,,,0,151,151,151,,,,,,,,,,,,,,,,,,,,,,,AMP,left,0.9671751859441429,,,left,0,0.9671751859441429,0,,,,,,,,,,,,,,,,,,,,1033,2019_Mar_07_1401,mf_amp_cond1,3.0.4,59.992361477233565,
presentkess,precificity,&&&&&&&&&&&,None,nonword,,,,,0,152,152,152,,,,,,,,,,,,,,,,,,,,,,,AMP,right,0.7337449851779638,,,right,0,0.7337449851779638,0,,,,,,,,,,,,,,,,,,,,1033,2019_Mar_07_1401,mf_amp_cond1,3.0.4,59.992361477233565,
improve,pumber,&&&&&&,left,care.virtue,,,,,0,153,153,153,,,,,,,,,,,,,,,,,,,,,,,AMP,left,0.7170897948592483,,,left,1,0.7170897948592483,1,,,,,,,,,,,,,,,,,,,,1033,2019_Mar_07_1401,mf_amp_cond1,3.0.4,59.992361477233565,
ensure,spag,&&&&,left,fairness.virtue,,,,,0,154,154,154,,,,,,,,,,,,,,,,,,,,,,,AMP,left,0.4837147575358358,,,left,1,0.4837147575358358,1,,,,,,,,,,,,,,,,,,,,1033,2019_Mar_07_1401,mf_amp_cond1,3.0.4,59.992361477233565,
shoirmaster,dumid,&&&&&,None,nonword,,,,,0,155,155,155,,,,,,,,,,,,,,,,,,,,,,,AMP,left,0.9504702843837549,,,left,0,0.9504702843837549,0,,,,,,,,,,,,,,,,,,,,1033,2019_Mar_07_1401,mf_amp_cond1,3.0.4,59.992361477233565,
good,pullness,&&&&&&&&,left,care.virtue,,,,,0,156,156,156,,,,,,,,,,,,,,,,,,,,,,,AMP,left,0.6504068143528912,,,left,1,0.6504068143528912,1,,,,,,,,,,,,,,,,,,,,1033,2019_Mar_07_1401,mf_amp_cond1,3.0.4,59.992361477233565,
useful,pescinded,&&&&&&&&&,left,authority.virtue,,,,,0,157,157,157,,,,,,,,,,,,,,,,,,,,,,,AMP,right,0.4837157196889166,,,right,0,0.4837157196889166,0,,,,,,,,,,,,,,,,,,,,1033,2019_Mar_07_1401,mf_amp_cond1,3.0.4,59.992361477233565,
refused,pulge,&&&&&,right,authority.vice,,,,,0,158,158,158,,,,,,,,,,,,,,,,,,,,,,,AMP,left,2.9676597903724087,,,left,0,2.9676597903724087,0,,,,,,,,,,,,,,,,,,,,1033,2019_Mar_07_1401,mf_amp_cond1,3.0.4,59.992361477233565,
restore,simplustic,&&&&&&&&&&,left,care.virtue,,,,,0,159,159,159,,,,,,,,,,,,,,,,,,,,,,,AMP,right,0.5670519662078277,,,right,0,0.5670519662078277,0,,,,,,,,,,,,,,,,,,,,1033,2019_Mar_07_1401,mf_amp_cond1,3.0.4,59.992361477233565,
fair,focomotive,&&&&&&&&&&,left,fairness.virtue,,,,,0,160,160,160,,,,,,,,,,,,,,,,,,,,,,,AMP,left,1.1005472405929595,,,left,1,1.1005472405929595,1,,,,,,,,,,,,,,,,,,,,1033,2019_Mar_07_1401,mf_amp_cond1,3.0.4,59.992361477233565,
slavery,perified,&&&&&&&&,right,loyalty.vice,,,,,0,161,161,161,,,,,,,,,,,,,,,,,,,,,,,AMP,right,0.7670938519379433,,,right,1,0.7670938519379433,1,,,,,,,,,,,,,,,,,,,,1033,2019_Mar_07_1401,mf_amp_cond1,3.0.4,59.992361477233565,
violations,hescribe,&&&&&&&&,right,sanctity.vice,,,,,0,162,162,162,,,,,,,,,,,,,,,,,,,,,,,AMP,left,3.0843208498249624,,,left,0,3.0843208498249624,0,,,,,,,,,,,,,,,,,,,,1033,2019_Mar_07_1401,mf_amp_cond1,3.0.4,59.992361477233565,
promises,quarterbocks,&&&&&&&&&&&&,left,fairness.virtue,,,,,0,163,163,163,,,,,,,,,,,,,,,,,,,,,,,AMP,right,0.46702749544829203,,,right,0,0.46702749544829203,0,,,,,,,,,,,,,,,,,,,,1033,2019_Mar_07_1401,mf_amp_cond1,3.0.4,59.992361477233565,
chared,quarterbocks,&&&&&&&&&&&&,None,nonword,,,,,0,164,164,164,,,,,,,,,,,,,,,,,,,,,,,AMP,right,0.63373526743203,,,right,0,0.63373526743203,0,,,,,,,,,,,,,,,,,,,,1033,2019_Mar_07_1401,mf_amp_cond1,3.0.4,59.992361477233565,
prosecution,lorthwhile,&&&&&&&&&&,right,authority.vice,,,,,0,165,165,165,,,,,,,,,,,,,,,,,,,,,,,AMP,right,0.4670310233427699,,,right,1,0.4670310233427699,1,,,,,,,,,,,,,,,,,,,,1033,2019_Mar_07_1401,mf_amp_cond1,3.0.4,59.992361477233565,
promises,tove,&&&&,left,fairness.virtue,,,,,0,166,166,166,,,,,,,,,,,,,,,,,,,,,,,AMP,left,0.4670303819075343,,,left,1,0.4670303819075343,1,,,,,,,,,,,,,,,,,,,,1033,2019_Mar_07_1401,mf_amp_cond1,3.0.4,59.992361477233565,
gun,cromiscuity,&&&&&&&&&&&,right,authority.vice,,,,,0,167,167,167,,,,,,,,,,,,,,,,,,,,,,,AMP,right,0.36700334540614676,,,right,1,0.36700334540614676,1,,,,,,,,,,,,,,,,,,,,1033,2019_Mar_07_1401,mf_amp_cond1,3.0.4,59.992361477233565,
trust,elduringly,&&&&&&&&&&,left,authority.virtue,,,,,0,168,168,168,,,,,,,,,,,,,,,,,,,,,,,AMP,right,0.5503900408177742,,,right,0,0.5503900408177742,0,,,,,,,,,,,,,,,,,,,,1033,2019_Mar_07_1401,mf_amp_cond1,3.0.4,59.992361477233565,
protect,counpy's,&&&&&&&&,left,fairness.virtue,,,,,0,169,169,169,,,,,,,,,,,,,,,,,,,,,,,AMP,left,0.48371122964135793,,,left,1,0.48371122964135793,1,,,,,,,,,,,,,,,,,,,,1033,2019_Mar_07_1401,mf_amp_cond1,3.0.4,59.992361477233565,
drug,reviked,&&&&&&&,right,sanctity.vice,,,,,0,170,170,170,,,,,,,,,,,,,,,,,,,,,,,AMP,right,0.28364785582584773,,,right,1,0.28364785582584773,1,,,,,,,,,,,,,,,,,,,,1033,2019_Mar_07_1401,mf_amp_cond1,3.0.4,59.992361477233565,
opportunity,aubos,&&&&&,left,fairness.virtue,,,,,0,171,171,171,,,,,,,,,,,,,,,,,,,,,,,AMP,left,1.0338337919060905,,,left,1,1.0338337919060905,1,,,,,,,,,,,,,,,,,,,,1033,2019_Mar_07_1401,mf_amp_cond1,3.0.4,59.992361477233565,
intelligence,unreflectuve,&&&&&&&&&&&&,left,loyalty.virtue,,,,,0,172,172,172,,,,,,,,,,,,,,,,,,,,,,,AMP,right,0.883632076515596,,,right,0,0.883632076515596,0,,,,,,,,,,,,,,,,,,,,1033,2019_Mar_07_1401,mf_amp_cond1,3.0.4,59.992361477233565,
conspiracy,Loorish,&&&&&&&,right,sanctity.vice,,,,,0,173,173,173,,,,,,,,,,,,,,,,,,,,,,,AMP,left,0.6170707763005794,,,left,0,0.6170707763005794,0,,,,,,,,,,,,,,,,,,,,1033,2019_Mar_07_1401,mf_amp_cond1,3.0.4,59.992361477233565,
threatened,gazily,&&&&&&,right,fairness.vice,,,,,0,174,174,174,,,,,,,,,,,,,,,,,,,,,,,AMP,right,0.6003617054097958,,,right,1,0.6003617054097958,1,,,,,,,,,,,,,,,,,,,,1033,2019_Mar_07_1401,mf_amp_cond1,3.0.4,59.992361477233565,
fair,pescinded,&&&&&&&&&,left,fairness.virtue,,,,,0,175,175,175,,,,,,,,,,,,,,,,,,,,,,,AMP,right,0.48370321169886665,,,right,0,0.48370321169886665,0,,,,,,,,,,,,,,,,,,,,1033,2019_Mar_07_1401,mf_amp_cond1,3.0.4,59.992361477233565,
love,fostet,&&&&&&,left,loyalty.virtue,,,,,0,176,176,176,,,,,,,,,,,,,,,,,,,,,,,AMP,left,0.983819151143507,,,left,1,0.983819151143507,1,,,,,,,,,,,,,,,,,,,,1033,2019_Mar_07_1401,mf_amp_cond1,3.0.4,59.992361477233565,
arrests,sgrawl,&&&&&&,right,authority.vice,,,,,0,177,177,177,,,,,,,,,,,,,,,,,,,,,,,AMP,left,0.7004217758330924,,,left,0,0.7004217758330924,0,,,,,,,,,,,,,,,,,,,,1033,2019_Mar_07_1401,mf_amp_cond1,3.0.4,59.992361477233565,
interests,faspberry,&&&&&&&&&,left,fairness.virtue,,,,,0,178,178,178,,,,,,,,,,,,,,,,,,,,,,,AMP,right,0.4336850430420327,,,right,0,0.4336850430420327,0,,,,,,,,,,,,,,,,,,,,1033,2019_Mar_07_1401,mf_amp_cond1,3.0.4,59.992361477233565,
troubla,squets,&&&&&&,None,nonword,,,,,0,179,179,179,,,,,,,,,,,,,,,,,,,,,,,AMP,left,0.517039570469251,,,left,0,0.517039570469251,0,,,,,,,,,,,,,,,,,,,,1033,2019_Mar_07_1401,mf_amp_cond1,3.0.4,59.992361477233565,
help,refuejing,&&&&&&&&&,left,care.virtue,,,,,0,180,180,180,,,,,,,,,,,,,,,,,,,,,,,AMP,right,2.0507481221177386,,,right,0,2.0507481221177386,0,,,,,,,,,,,,,,,,,,,,1033,2019_Mar_07_1401,mf_amp_cond1,3.0.4,59.992361477233565,
ban,clattening,&&&&&&&&&&,right,loyalty.vice,,,,,0,181,181,181,,,,,,,,,,,,,,,,,,,,,,,AMP,left,0.5670346474528287,,,left,0,0.5670346474528287,0,,,,,,,,,,,,,,,,,,,,1033,2019_Mar_07_1401,mf_amp_cond1,3.0.4,59.992361477233565,
torture,sidearbs,&&&&&&&&,right,care.vice,,,,,0,182,182,182,,,,,,,,,,,,,,,,,,,,,,,AMP,right,1.100501698681228,,,right,1,1.100501698681228,1,,,,,,,,,,,,,,,,,,,,1033,2019_Mar_07_1401,mf_amp_cond1,3.0.4,59.992361477233565,
proached,chadows,&&&&&&&,None,nonword,,,,,0,183,183,183,,,,,,,,,,,,,,,,,,,,,,,AMP,right,0.5837228716934533,,,right,0,0.5837228716934533,0,,,,,,,,,,,,,,,,,,,,1033,2019_Mar_07_1401,mf_amp_cond1,3.0.4,59.992361477233565,
harassment,gaultless,&&&&&&&&&,right,sanctity.vice,,,,,0,184,184,184,,,,,,,,,,,,,,,,,,,,,,,AMP,right,0.7170897948594757,,,right,1,0.7170897948594757,1,,,,,,,,,,,,,,,,,,,,1033,2019_Mar_07_1401,mf_amp_cond1,3.0.4,59.992361477233565,
suicide,fornicalion,&&&&&&&&&&&,right,care.vice,,,,,0,185,185,185,,,,,,,,,,,,,,,,,,,,,,,AMP,left,1.0338347540591712,,,left,0,1.0338347540591712,0,,,,,,,,,,,,,,,,,,,,1033,2019_Mar_07_1401,mf_amp_cond1,3.0.4,59.992361477233565,
improve,perified,&&&&&&&&,left,care.virtue,,,,,0,186,186,186,,,,,,,,,,,,,,,,,,,,,,,AMP,left,0.900459812950885,,,left,1,0.900459812950885,1,,,,,,,,,,,,,,,,,,,,1033,2019_Mar_07_1401,mf_amp_cond1,3.0.4,59.992361477233565,
faith,ablow,&&&&&,left,sanctity.virtue,,,,,0,187,187,187,,,,,,,,,,,,,,,,,,,,,,,AMP,left,0.7504348130071321,,,left,1,0.7504348130071321,1,,,,,,,,,,,,,,,,,,,,1033,2019_Mar_07_1401,mf_amp_cond1,3.0.4,59.992361477233565,
embrace,prones,&&&&&&,left,authority.virtue,,,,,0,188,188,188,,,,,,,,,,,,,,,,,,,,,,,AMP,left,0.5503890786646934,,,left,1,0.5503890786646934,1,,,,,,,,,,,,,,,,,,,,1033,2019_Mar_07_1401,mf_amp_cond1,3.0.4,59.992361477233565,
protesters,antral,&&&&&&,right,authority.vice,,,,,0,189,189,189,,,,,,,,,,,,,,,,,,,,,,,AMP,left,1.233884978449396,,,left,0,1.233884978449396,0,,,,,,,,,,,,,,,,,,,,1033,2019_Mar_07_1401,mf_amp_cond1,3.0.4,59.992361477233565,
presentkess,ejanulated,&&&&&&&&&&,None,nonword,,,,,0,190,190,190,,,,,,,,,,,,,,,,,,,,,,,AMP,left,6.751919094472896,,,left,0,6.751919094472896,0,,,,,,,,,,,,,,,,,,,,1033,2019_Mar_07_1401,mf_amp_cond1,3.0.4,59.992361477233565,
troops,ebbitter,&&&&&&&&,right,loyalty.vice,,,,,0,191,191,191,,,,,,,,,,,,,,,,,,,,,,,AMP,left,0.33366891094215134,,,left,0,0.33366891094215134,0,,,,,,,,,,,,,,,,,,,,1033,2019_Mar_07_1401,mf_amp_cond1,3.0.4,59.992361477233565,
blamed,mightingale,&&&&&&&&&&&,right,loyalty.vice,,,,,0,192,192,192,,,,,,,,,,,,,,,,,,,,,,,AMP,left,0.417078281094291,,,left,0,0.417078281094291,0,,,,,,,,,,,,,,,,,,,,1033,2019_Mar_07_1401,mf_amp_cond1,3.0.4,59.992361477233565,
celebrated,egpeditious,&&&&&&&&&&&,left,authority.virtue,,,,,0,193,193,193,,,,,,,,,,,,,,,,,,,,,,,AMP,left,0.6335784364821393,,,left,1,0.6335784364821393,1,,,,,,,,,,,,,,,,,,,,1033,2019_Mar_07_1401,mf_amp_cond1,3.0.4,59.992361477233565,
shoirmaster,infet,&&&&&,None,nonword,,,,,0,194,194,194,,,,,,,,,,,,,,,,,,,,,,,AMP,left,0.8337877368458066,,,left,0,0.8337877368458066,0,,,,,,,,,,,,,,,,,,,,1033,2019_Mar_07_1401,mf_amp_cond1,3.0.4,59.992361477233565,
violations,pullness,&&&&&&&&,right,sanctity.vice,,,,,0,195,195,195,,,,,,,,,,,,,,,,,,,,,,,AMP,left,0.45035723139812944,,,left,0,0.45035723139812944,0,,,,,,,,,,,,,,,,,,,,1033,2019_Mar_07_1401,mf_amp_cond1,3.0.4,59.992361477233565,
unpleasant,bluently,&&&&&&&&,None,control,,,,,0,196,196,196,,,,,,,,,,,,,,,,,,,,,,,AMP,left,2.3341685891020916,,,left,0,2.3341685891020916,0,,,,,,,,,,,,,,,,,,,,1033,2019_Mar_07_1401,mf_amp_cond1,3.0.4,59.992361477233565,
abuse,unscothed,&&&&&&&&&,right,sanctity.vice,,,,,0,197,197,197,,,,,,,,,,,,,,,,,,,,,,,AMP,left,0.6670879828043326,,,left,0,0.6670879828043326,0,,,,,,,,,,,,,,,,,,,,1033,2019_Mar_07_1401,mf_amp_cond1,3.0.4,59.992361477233565,
commitment,rivernoat,&&&&&&&&&,left,sanctity.virtue,,,,,0,198,198,198,,,,,,,,,,,,,,,,,,,,,,,AMP,left,1.834033406595836,,,left,1,1.834033406595836,1,,,,,,,,,,,,,,,,,,,,1033,2019_Mar_07_1401,mf_amp_cond1,3.0.4,59.992361477233565,
strong,forepo,&&&&&&,left,loyalty.virtue,,,,,0,199,199,199,,,,,,,,,,,,,,,,,,,,,,,AMP,left,0.8504525486955572,,,left,1,0.8504525486955572,1,,,,,,,,,,,,,,,,,,,,1033,2019_Mar_07_1401,mf_amp_cond1,3.0.4,59.992361477233565,
crime,galamitous,&&&&&&&&&&,right,fairness.vice,,,,,0,200,200,200,,,,,,,,,,,,,,,,,,,,,,,AMP,right,0.8837898696185675,,,right,1,0.8837898696185675,1,,,,,,,,,,,,,,,,,,,,1033,2019_Mar_07_1401,mf_amp_cond1,3.0.4,59.992361477233565,
victims,emports,&&&&&&&,right,care.vice,,,,,0,201,201,201,,,,,,,,,,,,,,,,,,,,,,,AMP,right,0.8171197178196508,,,right,1,0.8171197178196508,1,,,,,,,,,,,,,,,,,,,,1033,2019_Mar_07_1401,mf_amp_cond1,3.0.4,59.992361477233565,
honored,coom,&&&&,left,authority.virtue,,,,,0,202,202,202,,,,,,,,,,,,,,,,,,,,,,,AMP,left,1.2338076854862265,,,left,1,1.2338076854862265,1,,,,,,,,,,,,,,,,,,,,1033,2019_Mar_07_1401,mf_amp_cond1,3.0.4,59.992361477233565,
riot,saned,&&&&&,right,authority.vice,,,,,0,203,203,203,,,,,,,,,,,,,,,,,,,,,,,AMP,left,1.0338180767394078,,,left,0,1.0338180767394078,0,,,,,,,,,,,,,,,,,,,,1033,2019_Mar_07_1401,mf_amp_cond1,3.0.4,59.992361477233565,
fonderland,divility,&&&&&&&&,None,nonword,,,,,0,204,204,204,,,,,,,,,,,,,,,,,,,,,,,AMP,right,0.5003596848882808,,,right,0,0.5003596848882808,0,,,,,,,,,,,,,,,,,,,,1033,2019_Mar_07_1401,mf_amp_cond1,3.0.4,59.992361477233565,
ensure,reprisols,&&&&&&&&&,left,fairness.virtue,,,,,0,205,205,205,,,,,,,,,,,,,,,,,,,,,,,AMP,right,0.6170710970179698,,,right,0,0.6170710970179698,0,,,,,,,,,,,,,,,,,,,,1033,2019_Mar_07_1401,mf_amp_cond1,3.0.4,59.992361477233565,
army,hescribe,&&&&&&&&,right,loyalty.vice,,,,,0,206,206,206,,,,,,,,,,,,,,,,,,,,,,,AMP,left,1.0005198833741815,,,left,0,1.0005198833741815,0,,,,,,,,,,,,,,,,,,,,1033,2019_Mar_07_1401,mf_amp_cond1,3.0.4,59.992361477233565,
hate,pistraught,&&&&&&&&&&,right,fairness.vice,,,,,0,207,207,207,,,,,,,,,,,,,,,,,,,,,,,AMP,left,1.6340072360326303,,,left,0,1.6340072360326303,0,,,,,,,,,,,,,,,,,,,,1033,2019_Mar_07_1401,mf_amp_cond1,3.0.4,59.992361477233565,
victim,ugeasily,&&&&&&&&,right,care.vice,,,,,0,208,208,208,,,,,,,,,,,,,,,,,,,,,,,AMP,right,0.5837315310709528,,,right,1,0.5837315310709528,1,,,,,,,,,,,,,,,,,,,,1033,2019_Mar_07_1401,mf_amp_cond1,3.0.4,59.992361477233565,
good,honstables,&&&&&&&&&&,left,care.virtue,,,,,0,209,209,209,,,,,,,,,,,,,,,,,,,,,,,AMP,right,0.5503839471816718,,,right,0,0.5503839471816718,0,,,,,,,,,,,,,,,,,,,,1033,2019_Mar_07_1401,mf_amp_cond1,3.0.4,59.992361477233565,
perfect,leact,&&&&&,left,sanctity.virtue,,,,,0,210,210,210,,,,,,,,,,,,,,,,,,,,,,,AMP,left,0.8671247370514266,,,left,1,0.8671247370514266,1,,,,,,,,,,,,,,,,,,,,1033,2019_Mar_07_1401,mf_amp_cond1,3.0.4,59.992361477233565,
lies,touls,&&&&&,right,fairness.vice,,,,,0,211,211,211,,,,,,,,,,,,,,,,,,,,,,,AMP,left,0.5170414947754125,,,left,0,0.5170414947754125,0,,,,,,,,,,,,,,,,,,,,1033,2019_Mar_07_1401,mf_amp_cond1,3.0.4,59.992361477233565,
encourage,noped,&&&&&,left,authority.virtue,,,,,0,212,212,212,,,,,,,,,,,,,,,,,,,,,,,AMP,left,0.533719776767839,,,left,1,0.533719776767839,1,,,,,,,,,,,,,,,,,,,,1033,2019_Mar_07_1401,mf_amp_cond1,3.0.4,59.992361477233565,
dignity,carvels,&&&&&&&,left,sanctity.virtue,,,,,0,213,213,213,,,,,,,,,,,,,,,,,,,,,,,AMP,right,0.48369711806299165,,,right,0,0.48369711806299165,0,,,,,,,,,,,,,,,,,,,,1033,2019_Mar_07_1401,mf_amp_cond1,3.0.4,59.992361477233565,
violence,Phintoism,&&&&&&&&&,right,care.vice,,,,,0,214,214,214,,,,,,,,,,,,,,,,,,,,,,,AMP,left,0.9505090912239211,,,left,0,0.9505090912239211,0,,,,,,,,,,,,,,,,,,,,1033,2019_Mar_07_1401,mf_amp_cond1,3.0.4,59.992361477233565,
values,precificity,&&&&&&&&&&&,left,sanctity.virtue,,,,,0,215,215,215,,,,,,,,,,,,,,,,,,,,,,,AMP,right,1.8340241057828734,,,right,0,1.8340241057828734,0,,,,,,,,,,,,,,,,,,,,1033,2019_Mar_07_1401,mf_amp_cond1,3.0.4,59.992361477233565,
refused,crinking,&&&&&&&&,right,authority.vice,,,,,0,216,216,216,,,,,,,,,,,,,,,,,,,,,,,AMP,left,0.6337468132687718,,,left,0,0.6337468132687718,0,,,,,,,,,,,,,,,,,,,,1033,2019_Mar_07_1401,mf_amp_cond1,3.0.4,59.992361477233565,
pleasant,pumber,&&&&&&,None,control,,,,,0,217,217,217,,,,,,,,,,,,,,,,,,,,,,,AMP,left,0.5170350804216923,,,left,0,0.5170350804216923,0,,,,,,,,,,,,,,,,,,,,1033,2019_Mar_07_1401,mf_amp_cond1,3.0.4,59.992361477233565,
tenuflect,viscs,&&&&&,None,nonword,,,,,0,218,218,218,,,,,,,,,,,,,,,,,,,,,,,AMP,left,0.4836884586852648,,,left,0,0.4836884586852648,0,,,,,,,,,,,,,,,,,,,,1033,2019_Mar_07_1401,mf_amp_cond1,3.0.4,59.992361477233565,
friends,spag,&&&&,left,loyalty.virtue,,,,,0,219,219,219,,,,,,,,,,,,,,,,,,,,,,,AMP,left,0.46690915062094973,,,left,1,0.46690915062094973,1,,,,,,,,,,,,,,,,,,,,1033,2019_Mar_07_1401,mf_amp_cond1,3.0.4,59.992361477233565,
restore,clamorek,&&&&&&&&,left,care.virtue,,,,,0,220,220,220,,,,,,,,,,,,,,,,,,,,,,,AMP,right,0.9338292056431783,,,right,0,0.9338292056431783,0,,,,,,,,,,,,,,,,,,,,1033,2019_Mar_07_1401,mf_amp_cond1,3.0.4,59.992361477233565,
racist,abointment,&&&&&&&&&&,right,sanctity.vice,,,,,0,221,221,221,,,,,,,,,,,,,,,,,,,,,,,AMP,left,3.917852012519461,,,left,0,3.917852012519461,0,,,,,,,,,,,,,,,,,,,,1033,2019_Mar_07_1401,mf_amp_cond1,3.0.4,59.992361477233565,
increase,erks,&&&&,left,care.virtue,,,,,0,222,222,222,,,,,,,,,,,,,,,,,,,,,,,AMP,left,0.31710512516497147,,,left,1,0.31710512516497147,1,,,,,,,,,,,,,,,,,,,,1033,2019_Mar_07_1401,mf_amp_cond1,3.0.4,59.992361477233565,
vurtain,baklara,&&&&&&&,None,nonword,,,,,0,223,223,223,,,,,,,,,,,,,,,,,,,,,,,AMP,left,0.5337050237537824,,,left,0,0.5337050237537824,0,,,,,,,,,,,,,,,,,,,,1033,2019_Mar_07_1401,mf_amp_cond1,3.0.4,59.992361477233565,
accused,gusinesslike,&&&&&&&&&&&&,right,fairness.vice,,,,,0,224,224,224,,,,,,,,,,,,,,,,,,,,,,,AMP,left,0.5837001007373601,,,left,0,0.5837001007373601,0,,,,,,,,,,,,,,,,,,,,1033,2019_Mar_07_1401,mf_amp_cond1,3.0.4,59.992361477233565,
died,idexpressible,&&&&&&&&&&&&&,right,care.vice,,,,,0,225,225,225,,,,,,,,,,,,,,,,,,,,,,,AMP,left,0.483703211699094,,,left,0,0.483703211699094,0,,,,,,,,,,,,,,,,,,,,1033,2019_Mar_07_1401,mf_amp_cond1,3.0.4,59.992361477233565,
useful,yane,&&&&,left,authority.virtue,,,,,0,226,226,226,,,,,,,,,,,,,,,,,,,,,,,AMP,left,0.5337075894954069,,,left,1,0.5337075894954069,1,,,,,,,,,,,,,,,,,,,,1033,2019_Mar_07_1401,mf_amp_cond1,3.0.4,59.992361477233565,
slavery,ittutable,&&&&&&&&&,right,loyalty.vice,,,,,0,227,227,227,,,,,,,,,,,,,,,,,,,,,,,AMP,left,1.4005831289025537,,,left,0,1.4005831289025537,0,,,,,,,,,,,,,,,,,,,,1033,2019_Mar_07_1401,mf_amp_cond1,3.0.4,59.992361477233565,
safety,wonderfujnoss,&&&&&&&&&&&&&,left,care.virtue,,,,,0,228,228,228,,,,,,,,,,,,,,,,,,,,,,,AMP,left,14.437068935380921,,,left,1,14.437068935380921,1,,,,,,,,,,,,,,,,,,,,1033,2019_Mar_07_1401,mf_amp_cond1,3.0.4,59.992361477233565,
frocessing,bycled,&&&&&&,None,nonword,,,,,0,229,229,229,,,,,,,,,,,,,,,,,,,,,,,AMP,left,0.48370257026363106,,,left,0,0.48370257026363106,0,,,,,,,,,,,,,,,,,,,,1033,2019_Mar_07_1401,mf_amp_cond1,3.0.4,59.992361477233565,
terrorist,tracious,&&&&&&&&,right,loyalty.vice,,,,,0,230,230,230,,,,,,,,,,,,,,,,,,,,,,,AMP,right,0.5003712307252499,,,right,1,0.5003712307252499,1,,,,,,,,,,,,,,,,,,,,1033,2019_Mar_07_1401,mf_amp_cond1,3.0.4,59.992361477233565,
voter,epigrach,&&&&&&&&,right,fairness.vice,,,,,0,231,231,231,,,,,,,,,,,,,,,,,,,,,,,AMP,left,0.5170783773096446,,,left,0,0.5170783773096446,0,,,,,,,,,,,,,,,,,,,,1033,2019_Mar_07_1401,mf_amp_cond1,3.0.4,59.992361477233565,
growth,grovelire,&&&&&&&&&,left,care.virtue,,,,,0,232,232,232,,,,,,,,,,,,,,,,,,,,,,,AMP,left,0.5503800985695761,,,left,1,0.5503800985695761,1,,,,,,,,,,,,,,,,,,,,1033,2019_Mar_07_1401,mf_amp_cond1,3.0.4,59.992361477233565,
illegal,pulge,&&&&&,right,fairness.vice,,,,,0,233,233,233,,,,,,,,,,,,,,,,,,,,,,,AMP,right,0.8337963962235335,,,right,1,0.8337963962235335,1,,,,,,,,,,,,,,,,,,,,1033,2019_Mar_07_1401,mf_amp_cond1,3.0.4,59.992361477233565,
sharing,simplustic,&&&&&&&&&&,left,loyalty.virtue,,,,,0,234,234,234,,,,,,,,,,,,,,,,,,,,,,,AMP,right,0.4670419277442761,,,right,0,0.4670419277442761,0,,,,,,,,,,,,,,,,,,,,1033,2019_Mar_07_1401,mf_amp_cond1,3.0.4,59.992361477233565,
promised,feleological,&&&&&&&&&&&&,left,loyalty.virtue,,,,,0,235,235,235,,,,,,,,,,,,,,,,,,,,,,,AMP,left,0.5670545319494522,,,left,1,0.5670545319494522,1,,,,,,,,,,,,,,,,,,,,1033,2019_Mar_07_1401,mf_amp_cond1,3.0.4,59.992361477233565,
shot,dumid,&&&&&,right,care.vice,,,,,0,236,236,236,,,,,,,,,,,,,,,,,,,,,,,AMP,right,0.45033606403058,,,right,1,0.45033606403058,1,,,,,,,,,,,,,,,,,,,,1033,2019_Mar_07_1401,mf_amp_cond1,3.0.4,59.992361477233565,
strength,Oregoniuns,&&&&&&&&&&,left,sanctity.virtue,,,,,0,237,237,237,,,,,,,,,,,,,,,,,,,,,,,AMP,right,0.6003973050733293,,,right,0,0.6003973050733293,0,,,,,,,,,,,,,,,,,,,,1033,2019_Mar_07_1401,mf_amp_cond1,3.0.4,59.992361477233565,
war,nomparisons,&&&&&&&&&&&,right,sanctity.vice,,,,,0,238,238,238,,,,,,,,,,,,,,,,,,,,,,,AMP,left,1.617320294662477,,,left,0,1.617320294662477,0,,,,,,,,,,,,,,,,,,,,1033,2019_Mar_07_1401,mf_amp_cond1,3.0.4,59.992361477233565,
support,oam,&&&,left,loyalty.virtue,,,,,0,239,239,239,,,,,,,,,,,,,,,,,,,,,,,AMP,left,1.3672486944385582,,,left,1,1.3672486944385582,1,,,,,,,,,,,,,,,,,,,,1033,2019_Mar_07_1401,mf_amp_cond1,3.0.4,59.992361477233565,
fighters,focomotive,&&&&&&&&&&,right,authority.vice,,,,,0,240,240,240,,,,,,,,,,,,,,,,,,,,,,,AMP,left,6.468482912322088,,,left,0,6.468482912322088,0,,,,,,,,,,,,,,,,,,,,1033,2019_Mar_07_1401,mf_amp_cond1,3.0.4,59.992361477233565,
powerful,pharing,&&&&&&&,left,authority.virtue,,,,,0,241,241,241,,,,,,,,,,,,,,,,,,,,,,,AMP,right,1.4172886718984046,,,right,0,1.4172886718984046,0,,,,,,,,,,,,,,,,,,,,1033,2019_Mar_07_1401,mf_amp_cond1,3.0.4,59.992361477233565,
groups,Lacedonia,&&&&&&&&&,right,loyalty.vice,,,,,0,242,242,242,,,,,,,,,,,,,,,,,,,,,,,AMP,right,0.3336535164930865,,,right,1,0.3336535164930865,1,,,,,,,,,,,,,,,,,,,,1033,2019_Mar_07_1401,mf_amp_cond1,3.0.4,59.992361477233565,
integrity,dormandi,&&&&&&&&,left,fairness.virtue,,,,,0,243,243,243,,,,,,,,,,,,,,,,,,,,,,,AMP,right,0.6837354758986294,,,right,0,0.6837354758986294,0,,,,,,,,,,,,,,,,,,,,1033,2019_Mar_07_1401,mf_amp_cond1,3.0.4,59.992361477233565,
erdest,gikely,&&&&&&,None,nonword,,,,,0,244,244,244,,,,,,,,,,,,,,,,,,,,,,,AMP,right,0.3336833432381354,,,right,0,0.3336833432381354,0,,,,,,,,,,,,,,,,,,,,1033,2019_Mar_07_1401,mf_amp_cond1,3.0.4,59.992361477233565,
respect,framo,&&&&&,left,sanctity.virtue,,,,,0,245,245,245,,,,,,,,,,,,,,,,,,,,,,,AMP,right,0.6003953807671678,,,right,0,0.6003953807671678,0,,,,,,,,,,,,,,,,,,,,1033,2019_Mar_07_1401,mf_amp_cond1,3.0.4,59.992361477233565,
tenuflect,epigrach,&&&&&&&&,None,nonword,,,,,0,246,246,246,,,,,,,,,,,,,,,,,,,,,,,AMP,right,0.41701413755640715,,,right,0,0.41701413755640715,0,,,,,,,,,,,,,,,,,,,,1033,2019_Mar_07_1401,mf_amp_cond1,3.0.4,59.992361477233565,
love,precificity,&&&&&&&&&&&,left,loyalty.virtue,,,,,0,247,247,247,,,,,,,,,,,,,,,,,,,,,,,AMP,right,0.2669923447895144,,,right,0,0.2669923447895144,0,,,,,,,,,,,,,,,,,,,,1033,2019_Mar_07_1401,mf_amp_cond1,3.0.4,59.992361477233565,
ban,wonderfujnoss,&&&&&&&&&&&&&,right,loyalty.vice,,,,,0,248,248,248,,,,,,,,,,,,,,,,,,,,,,,AMP,right,0.45034857202040257,,,right,1,0.45034857202040257,1,,,,,,,,,,,,,,,,,,,,1033,2019_Mar_07_1401,mf_amp_cond1,3.0.4,59.992361477233565,
shot,pullness,&&&&&&&&,right,care.vice,,,,,0,249,249,249,,,,,,,,,,,,,,,,,,,,,,,AMP,right,2.134120930453264,,,right,1,2.134120930453264,1,,,,,,,,,,,,,,,,,,,,1033,2019_Mar_07_1401,mf_amp_cond1,3.0.4,59.992361477233565,
chared,lorthwhile,&&&&&&&&&&,None,nonword,,,,,0,250,250,250,,,,,,,,,,,,,,,,,,,,,,,AMP,right,0.5170312318091419,,,right,0,0.5170312318091419,0,,,,,,,,,,,,,,,,,,,,1033,2019_Mar_07_1401,mf_amp_cond1,3.0.4,59.992361477233565,
frocessing,feleological,&&&&&&&&&&&&,None,nonword,,,,,0,251,251,251,,,,,,,,,,,,,,,,,,,,,,,AMP,left,1.517289088831376,,,left,0,1.517289088831376,0,,,,,,,,,,,,,,,,,,,,1033,2019_Mar_07_1401,mf_amp_cond1,3.0.4,59.992361477233565,
died,emports,&&&&&&&,right,care.vice,,,,,0,252,252,252,,,,,,,,,,,,,,,,,,,,,,,AMP,left,1.3505902969429826,,,left,0,1.3505902969429826,0,,,,,,,,,,,,,,,,,,,,1033,2019_Mar_07_1401,mf_amp_cond1,3.0.4,59.992361477233565,
commitment,pulge,&&&&&,left,sanctity.virtue,,,,,0,253,253,253,,,,,,,,,,,,,,,,,,,,,,,AMP,right,0.8504570387431158,,,right,0,0.8504570387431158,0,,,,,,,,,,,,,,,,,,,,1033,2019_Mar_07_1401,mf_amp_cond1,3.0.4,59.992361477233565,
troubla,grovelire,&&&&&&&&&,None,nonword,,,,,0,254,254,254,,,,,,,,,,,,,,,,,,,,,,,AMP,right,0.5003673821131542,,,right,0,0.5003673821131542,0,,,,,,,,,,,,,,,,,,,,1033,2019_Mar_07_1401,mf_amp_cond1,3.0.4,59.992361477233565,
crime,baklara,&&&&&&&,right,fairness.vice,,,,,0,255,255,255,,,,,,,,,,,,,,,,,,,,,,,AMP,left,0.7171067928968569,,,left,0,0.7171067928968569,0,,,,,,,,,,,,,,,,,,,,1033,2019_Mar_07_1401,mf_amp_cond1,3.0.4,59.992361477233565,
honored,gusinesslike,&&&&&&&&&&&&,left,authority.virtue,,,,,0,256,256,256,,,,,,,,,,,,,,,,,,,,,,,AMP,left,0.5337473584888812,,,left,1,0.5337473584888812,1,,,,,,,,,,,,,,,,,,,,1033,2019_Mar_07_1401,mf_amp_cond1,3.0.4,59.992361477233565,
integrity,perified,&&&&&&&&,left,fairness.virtue,,,,,0,257,257,257,,,,,,,,,,,,,,,,,,,,,,,AMP,right,1.0671570012511893,,,right,0,1.0671570012511893,0,,,,,,,,,,,,,,,,,,,,1033,2019_Mar_07_1401,mf_amp_cond1,3.0.4,59.992361477233565,
accused,idexpressible,&&&&&&&&&&&&&,right,fairness.vice,,,,,0,258,258,258,,,,,,,,,,,,,,,,,,,,,,,AMP,left,2.950973169720328,,,left,0,2.950973169720328,0,,,,,,,,,,,,,,,,,,,,1033,2019_Mar_07_1401,mf_amp_cond1,3.0.4,59.992361477233565,
arrests,reprisols,&&&&&&&&&,right,authority.vice,,,,,0,259,259,259,,,,,,,,,,,,,,,,,,,,,,,AMP,right,0.7671114914110149,,,right,1,0.7671114914110149,1,,,,,,,,,,,,,,,,,,,,1033,2019_Mar_07_1401,mf_amp_cond1,3.0.4,59.992361477233565,
proached,sidearbs,&&&&&&&&,None,nonword,,,,,0,260,260,260,,,,,,,,,,,,,,,,,,,,,,,AMP,left,0.8671256992047347,,,left,0,0.8671256992047347,0,,,,,,,,,,,,,,,,,,,,1033,2019_Mar_07_1401,mf_amp_cond1,3.0.4,59.992361477233565,
trust,ablow,&&&&&,left,authority.virtue,,,,,0,261,261,261,,,,,,,,,,,,,,,,,,,,,,,AMP,left,0.46704898353345925,,,left,1,0.46704898353345925,1,,,,,,,,,,,,,,,,,,,,1033,2019_Mar_07_1401,mf_amp_cond1,3.0.4,59.992361477233565,
erdest,honstables,&&&&&&&&&&,None,nonword,,,,,0,262,262,262,,,,,,,,,,,,,,,,,,,,,,,AMP,left,0.7337603796270287,,,left,0,0.7337603796270287,0,,,,,,,,,,,,,,,,,,,,1033,2019_Mar_07_1401,mf_amp_cond1,3.0.4,59.992361477233565,
terrorist,elduringly,&&&&&&&&&&,right,loyalty.vice,,,,,0,263,263,263,,,,,,,,,,,,,,,,,,,,,,,AMP,right,0.5837302482002542,,,right,1,0.5837302482002542,1,,,,,,,,,,,,,,,,,,,,1033,2019_Mar_07_1401,mf_amp_cond1,3.0.4,59.992361477233565,
troops,cromiscuity,&&&&&&&&&&&,right,loyalty.vice,,,,,0,264,264,264,,,,,,,,,,,,,,,,,,,,,,,AMP,right,0.41703562564157437,,,right,1,0.41703562564157437,1,,,,,,,,,,,,,,,,,,,,1033,2019_Mar_07_1401,mf_amp_cond1,3.0.4,59.992361477233565,
hate,abointment,&&&&&&&&&&,right,fairness.vice,,,,,0,265,265,265,,,,,,,,,,,,,,,,,,,,,,,AMP,right,0.5670596634324738,,,right,1,0.5670596634324738,1,,,,,,,,,,,,,,,,,,,,1033,2019_Mar_07_1401,mf_amp_cond1,3.0.4,59.992361477233565,
vurtain,ebbitter,&&&&&&&&,None,nonword,,,,,0,266,266,266,,,,,,,,,,,,,,,,,,,,,,,AMP,left,0.38370087045996115,,,left,0,0.38370087045996115,0,,,,,,,,,,,,,,,,,,,,1033,2019_Mar_07_1401,mf_amp_cond1,3.0.4,59.992361477233565,
strength,focomotive,&&&&&&&&&&,left,sanctity.virtue,,,,,0,267,267,267,,,,,,,,,,,,,,,,,,,,,,,AMP,left,0.5337194560499938,,,left,1,0.5337194560499938,1,,,,,,,,,,,,,,,,,,,,1033,2019_Mar_07_1401,mf_amp_cond1,3.0.4,59.992361477233565,
protesters,hescribe,&&&&&&&&,right,authority.vice,,,,,0,268,268,268,,,,,,,,,,,,,,,,,,,,,,,AMP,left,0.35036451168957683,,,left,0,0.35036451168957683,0,,,,,,,,,,,,,,,,,,,,1033,2019_Mar_07_1401,mf_amp_cond1,3.0.4,59.992361477233565,
violence,aubos,&&&&&,right,care.vice,,,,,0,269,269,269,,,,,,,,,,,,,,,,,,,,,,,AMP,left,0.933815094064812,,,left,0,0.933815094064812,0,,,,,,,,,,,,,,,,,,,,1033,2019_Mar_07_1401,mf_amp_cond1,3.0.4,59.992361477233565,
voter,crinking,&&&&&&&&,right,fairness.vice,,,,,0,270,270,270,,,,,,,,,,,,,,,,,,,,,,,AMP,left,0.483687496532184,,,left,0,0.483687496532184,0,,,,,,,,,,,,,,,,,,,,1033,2019_Mar_07_1401,mf_amp_cond1,3.0.4,59.992361477233565,
presentkess,antral,&&&&&&,None,nonword,,,,,0,271,271,271,,,,,,,,,,,,,,,,,,,,,,,AMP,left,0.4336997960556346,,,left,0,0.4336997960556346,0,,,,,,,,,,,,,,,,,,,,1033,2019_Mar_07_1401,mf_amp_cond1,3.0.4,59.992361477233565,
promises,unreflectuve,&&&&&&&&&&&&,left,fairness.virtue,,,,,0,272,272,272,,,,,,,,,,,,,,,,,,,,,,,AMP,right,0.5503948515829507,,,right,0,0.5503948515829507,0,,,,,,,,,,,,,,,,,,,,1033,2019_Mar_07_1401,mf_amp_cond1,3.0.4,59.992361477233565,
suicide,quarterbocks,&&&&&&&&&&&&,right,care.vice,,,,,0,273,273,273,,,,,,,,,,,,,,,,,,,,,,,AMP,right,0.700267831342444,,,right,1,0.700267831342444,1,,,,,,,,,,,,,,,,,,,,1033,2019_Mar_07_1401,mf_amp_cond1,3.0.4,59.992361477233565,
violations,framo,&&&&&,right,sanctity.vice,,,,,0,274,274,274,,,,,,,,,,,,,,,,,,,,,,,AMP,left,2.917617888606401,,,left,0,2.917617888606401,0,,,,,,,,,,,,,,,,,,,,1033,2019_Mar_07_1401,mf_amp_cond1,3.0.4,59.992361477233565,
interests,tove,&&&&,left,fairness.virtue,,,,,0,275,275,275,,,,,,,,,,,,,,,,,,,,,,,AMP,left,0.6004223210532018,,,left,1,0.6004223210532018,1,,,,,,,,,,,,,,,,,,,,1033,2019_Mar_07_1401,mf_amp_cond1,3.0.4,59.992361477233565,
embrace,clattening,&&&&&&&&&&,left,authority.virtue,,,,,0,276,276,276,,,,,,,,,,,,,,,,,,,,,,,AMP,left,0.4837077017466527,,,left,1,0.4837077017466527,1,,,,,,,,,,,,,,,,,,,,1033,2019_Mar_07_1401,mf_amp_cond1,3.0.4,59.992361477233565,
respect,squets,&&&&&&,left,sanctity.virtue,,,,,0,277,277,277,,,,,,,,,,,,,,,,,,,,,,,AMP,left,0.6337471339863896,,,left,1,0.6337471339863896,1,,,,,,,,,,,,,,,,,,,,1033,2019_Mar_07_1401,mf_amp_cond1,3.0.4,59.992361477233565,
support,Loorish,&&&&&&&,left,loyalty.virtue,,,,,0,278,278,278,,,,,,,,,,,,,,,,,,,,,,,AMP,right,0.5337117588255751,,,right,0,0.5337117588255751,0,,,,,,,,,,,,,,,,,,,,1033,2019_Mar_07_1401,mf_amp_cond1,3.0.4,59.992361477233565,
victims,saned,&&&&&,right,care.vice,,,,,0,279,279,279,,,,,,,,,,,,,,,,,,,,,,,AMP,left,0.46703006118968915,,,left,0,0.46703006118968915,0,,,,,,,,,,,,,,,,,,,,1033,2019_Mar_07_1401,mf_amp_cond1,3.0.4,59.992361477233565,
torture,refuejing,&&&&&&&&&,right,care.vice,,,,,0,280,280,280,,,,,,,,,,,,,,,,,,,,,,,AMP,left,0.5503922858415535,,,left,0,0.5503922858415535,0,,,,,,,,,,,,,,,,,,,,1033,2019_Mar_07_1401,mf_amp_cond1,3.0.4,59.992361477233565,
useful,dormandi,&&&&&&&&,left,authority.virtue,,,,,0,281,281,281,,,,,,,,,,,,,,,,,,,,,,,AMP,right,0.5003843801505354,,,right,0,0.5003843801505354,0,,,,,,,,,,,,,,,,,,,,1033,2019_Mar_07_1401,mf_amp_cond1,3.0.4,59.992361477233565,
help,rivernoat,&&&&&&&&&,left,care.virtue,,,,,0,282,282,282,,,,,,,,,,,,,,,,,,,,,,,AMP,left,1.583997085317833,,,left,1,1.583997085317833,1,,,,,,,,,,,,,,,,,,,,1033,2019_Mar_07_1401,mf_amp_cond1,3.0.4,59.992361477233565,
lies,chadows,&&&&&&&,right,fairness.vice,,,,,0,283,283,283,,,,,,,,,,,,,,,,,,,,,,,AMP,right,0.41702472124029555,,,right,1,0.41702472124029555,1,,,,,,,,,,,,,,,,,,,,1033,2019_Mar_07_1401,mf_amp_cond1,3.0.4,59.992361477233565,
refused,faspberry,&&&&&&&&&,right,authority.vice,,,,,0,284,284,284,,,,,,,,,,,,,,,,,,,,,,,AMP,right,8.752356232683269,,,right,1,8.752356232683269,1,,,,,,,,,,,,,,,,,,,,1033,2019_Mar_07_1401,mf_amp_cond1,3.0.4,59.992361477233565,
drug,erks,&&&&,right,sanctity.vice,,,,,0,285,285,285,,,,,,,,,,,,,,,,,,,,,,,AMP,left,0.43368440160656974,,,left,0,0.43368440160656974,0,,,,,,,,,,,,,,,,,,,,1033,2019_Mar_07_1401,mf_amp_cond1,3.0.4,59.992361477233565,
prosecution,reviked,&&&&&&&,right,authority.vice,,,,,0,286,286,286,,,,,,,,,,,,,,,,,,,,,,,AMP,left,1.5839640513956965,,,left,0,1.5839640513956965,0,,,,,,,,,,,,,,,,,,,,1033,2019_Mar_07_1401,mf_amp_cond1,3.0.4,59.992361477233565,
growth,oam,&&&,left,care.virtue,,,,,0,287,287,287,,,,,,,,,,,,,,,,,,,,,,,AMP,left,0.33365479936378506,,,left,1,0.33365479936378506,1,,,,,,,,,,,,,,,,,,,,1033,2019_Mar_07_1401,mf_amp_cond1,3.0.4,59.992361477233565,
conspiracy,gaultless,&&&&&&&&&,right,sanctity.vice,,,,,0,288,288,288,,,,,,,,,,,,,,,,,,,,,,,AMP,right,0.5503762499572531,,,right,1,0.5503762499572531,1,,,,,,,,,,,,,,,,,,,,1033,2019_Mar_07_1401,mf_amp_cond1,3.0.4,59.992361477233565,
sharing,pescinded,&&&&&&&&&,left,loyalty.virtue,,,,,0,289,289,289,,,,,,,,,,,,,,,,,,,,,,,AMP,right,0.4336824773004082,,,right,0,0.4336824773004082,0,,,,,,,,,,,,,,,,,,,,1033,2019_Mar_07_1401,mf_amp_cond1,3.0.4,59.992361477233565,
groups,viscs,&&&&&,right,loyalty.vice,,,,,0,290,290,290,,,,,,,,,,,,,,,,,,,,,,,AMP,left,0.6170791149602337,,,left,0,0.6170791149602337,0,,,,,,,,,,,,,,,,,,,,1033,2019_Mar_07_1401,mf_amp_cond1,3.0.4,59.992361477233565,
slavery,ugeasily,&&&&&&&&,right,loyalty.vice,,,,,0,291,291,291,,,,,,,,,,,,,,,,,,,,,,,AMP,left,2.9009428137908344,,,left,0,2.9009428137908344,0,,,,,,,,,,,,,,,,,,,,1033,2019_Mar_07_1401,mf_amp_cond1,3.0.4,59.992361477233565,
riot,unscothed,&&&&&&&&&,right,authority.vice,,,,,0,292,292,292,,,,,,,,,,,,,,,,,,,,,,,AMP,left,0.5170337975507664,,,left,0,0.5170337975507664,0,,,,,,,,,,,,,,,,,,,,1033,2019_Mar_07_1401,mf_amp_cond1,3.0.4,59.992361477233565,
dignity,divility,&&&&&&&&,left,sanctity.virtue,,,,,0,293,293,293,,,,,,,,,,,,,,,,,,,,,,,AMP,right,0.38374480878337636,,,right,0,0.38374480878337636,0,,,,,,,,,,,,,,,,,,,,1033,2019_Mar_07_1401,mf_amp_cond1,3.0.4,59.992361477233565,
racist,bycled,&&&&&&,right,sanctity.vice,,,,,0,294,294,294,,,,,,,,,,,,,,,,,,,,,,,AMP,left,12.486615969752393,,,left,0,12.486615969752393,0,,,,,,,,,,,,,,,,,,,,1033,2019_Mar_07_1401,mf_amp_cond1,3.0.4,59.992361477233565,
shoirmaster,nomparisons,&&&&&&&&&&&,None,nonword,,,,,0,295,295,295,,,,,,,,,,,,,,,,,,,,,,,AMP,left,0.6670664947193927,,,left,0,0.6670664947193927,0,,,,,,,,,,,,,,,,,,,,1033,2019_Mar_07_1401,mf_amp_cond1,3.0.4,59.992361477233565,
ensure,mightingale,&&&&&&&&&&&,left,fairness.virtue,,,,,0,296,296,296,,,,,,,,,,,,,,,,,,,,,,,AMP,left,0.6170480053444862,,,left,1,0.6170480053444862,1,,,,,,,,,,,,,,,,,,,,1033,2019_Mar_07_1401,mf_amp_cond1,3.0.4,59.992361477233565,
faith,ejanulated,&&&&&&&&&&,left,sanctity.virtue,,,,,0,297,297,297,,,,,,,,,,,,,,,,,,,,,,,AMP,left,0.4336997960556346,,,left,1,0.4336997960556346,1,,,,,,,,,,,,,,,,,,,,1033,2019_Mar_07_1401,mf_amp_cond1,3.0.4,59.992361477233565,
fair,tracious,&&&&&&&&,left,fairness.virtue,,,,,0,298,298,298,,,,,,,,,,,,,,,,,,,,,,,AMP,right,0.3503321192031308,,,right,0,0.3503321192031308,0,,,,,,,,,,,,,,,,,,,,1033,2019_Mar_07_1401,mf_amp_cond1,3.0.4,59.992361477233565,
restore,bluently,&&&&&&&&,left,care.virtue,,,,,0,299,299,299,,,,,,,,,,,,,,,,,,,,,,,AMP,right,0.4003528536018166,,,right,0,0.4003528536018166,0,,,,,,,,,,,,,,,,,,,,1033,2019_Mar_07_1401,mf_amp_cond1,3.0.4,59.992361477233565,
improve,counpy's,&&&&&&&&,left,care.virtue,,,,,0,300,300,300,,,,,,,,,,,,,,,,,,,,,,,AMP,left,0.5337274739922577,,,left,1,0.5337274739922577,1,,,,,,,,,,,,,,,,,,,,1033,2019_Mar_07_1401,mf_amp_cond1,3.0.4,59.992361477233565,
opportunity,galamitous,&&&&&&&&&&,left,fairness.virtue,,,,,0,301,301,301,,,,,,,,,,,,,,,,,,,,,,,AMP,right,0.2669753467519058,,,right,0,0.2669753467519058,0,,,,,,,,,,,,,,,,,,,,1033,2019_Mar_07_1401,mf_amp_cond1,3.0.4,59.992361477233565,
blamed,forepo,&&&&&&,right,loyalty.vice,,,,,0,302,302,302,,,,,,,,,,,,,,,,,,,,,,,AMP,left,0.66711588524322,,,left,0,0.66711588524322,0,,,,,,,,,,,,,,,,,,,,1033,2019_Mar_07_1401,mf_amp_cond1,3.0.4,59.992361477233565,
fonderland,prones,&&&&&&,None,nonword,,,,,0,303,303,303,,,,,,,,,,,,,,,,,,,,,,,AMP,right,0.36702066416137313,,,right,0,0.36702066416137313,0,,,,,,,,,,,,,,,,,,,,1033,2019_Mar_07_1401,mf_amp_cond1,3.0.4,59.992361477233565,
abuse,spag,&&&&,right,sanctity.vice,,,,,0,304,304,304,,,,,,,,,,,,,,,,,,,,,,,AMP,left,0.8671475080075197,,,left,0,0.8671475080075197,0,,,,,,,,,,,,,,,,,,,,1033,2019_Mar_07_1401,mf_amp_cond1,3.0.4,59.992361477233565,
safety,leact,&&&&&,left,care.virtue,,,,,0,305,305,305,,,,,,,,,,,,,,,,,,,,,,,AMP,left,0.700416323632453,,,left,1,0.700416323632453,1,,,,,,,,,,,,,,,,,,,,1033,2019_Mar_07_1401,mf_amp_cond1,3.0.4,59.992361477233565,
victim,touls,&&&&&,right,care.vice,,,,,0,306,306,306,,,,,,,,,,,,,,,,,,,,,,,AMP,left,0.5003827765619917,,,left,0,0.5003827765619917,0,,,,,,,,,,,,,,,,,,,,1033,2019_Mar_07_1401,mf_amp_cond1,3.0.4,59.992361477233565,
unpleasant,noped,&&&&&,None,control,,,,,0,307,307,307,,,,,,,,,,,,,,,,,,,,,,,AMP,left,2.2174632706082775,,,left,0,2.2174632706082775,0,,,,,,,,,,,,,,,,,,,,1033,2019_Mar_07_1401,mf_amp_cond1,3.0.4,59.992361477233565,
increase,yane,&&&&,left,care.virtue,,,,,0,308,308,308,,,,,,,,,,,,,,,,,,,,,,,AMP,left,0.3836822688340362,,,left,1,0.3836822688340362,1,,,,,,,,,,,,,,,,,,,,1033,2019_Mar_07_1401,mf_amp_cond1,3.0.4,59.992361477233565,
war,gazily,&&&&&&,right,sanctity.vice,,,,,0,309,309,309,,,,,,,,,,,,,,,,,,,,,,,AMP,right,0.40035734364937525,,,right,1,0.40035734364937525,1,,,,,,,,,,,,,,,,,,,,1033,2019_Mar_07_1401,mf_amp_cond1,3.0.4,59.992361477233565,
pleasant,Oregoniuns,&&&&&&&&&&,None,control,,,,,0,310,310,310,,,,,,,,,,,,,,,,,,,,,,,AMP,right,0.48366440485847306,,,right,0,0.48366440485847306,0,,,,,,,,,,,,,,,,,,,,1033,2019_Mar_07_1401,mf_amp_cond1,3.0.4,59.992361477233565,
threatened,fornicalion,&&&&&&&&&&&,right,fairness.vice,,,,,0,311,311,311,,,,,,,,,,,,,,,,,,,,,,,AMP,right,0.45037038082341496,,,right,1,0.45037038082341496,1,,,,,,,,,,,,,,,,,,,,1033,2019_Mar_07_1401,mf_amp_cond1,3.0.4,59.992361477233565,
harassment,Phintoism,&&&&&&&&&,right,sanctity.vice,,,,,0,312,312,312,,,,,,,,,,,,,,,,,,,,,,,AMP,right,0.9671649229780996,,,right,1,0.9671649229780996,1,,,,,,,,,,,,,,,,,,,,1033,2019_Mar_07_1401,mf_amp_cond1,3.0.4,59.992361477233565,
protect,ittutable,&&&&&&&&&,left,fairness.virtue,,,,,0,313,313,313,,,,,,,,,,,,,,,,,,,,,,,AMP,right,0.3003745661890207,,,right,0,0.3003745661890207,0,,,,,,,,,,,,,,,,,,,,1033,2019_Mar_07_1401,mf_amp_cond1,3.0.4,59.992361477233565,
gun,dumid,&&&&&,right,authority.vice,,,,,0,314,314,314,,,,,,,,,,,,,,,,,,,,,,,AMP,right,0.6837521532183928,,,right,1,0.6837521532183928,1,,,,,,,,,,,,,,,,,,,,1033,2019_Mar_07_1401,mf_amp_cond1,3.0.4,59.992361477233565,
friends,clamorek,&&&&&&&&,left,loyalty.virtue,,,,,0,315,315,315,,,,,,,,,,,,,,,,,,,,,,,AMP,left,0.36700911832463134,,,left,1,0.36700911832463134,1,,,,,,,,,,,,,,,,,,,,1033,2019_Mar_07_1401,mf_amp_cond1,3.0.4,59.992361477233565,
strong,coom,&&&&,left,loyalty.virtue,,,,,0,316,316,316,,,,,,,,,,,,,,,,,,,,,,,AMP,left,0.5170527198945365,,,left,1,0.5170527198945365,1,,,,,,,,,,,,,,,,,,,,1033,2019_Mar_07_1401,mf_amp_cond1,3.0.4,59.992361477233565,
perfect,infet,&&&&&,left,sanctity.virtue,,,,,0,317,317,317,,,,,,,,,,,,,,,,,,,,,,,AMP,right,0.9003023405655313,,,right,0,0.9003023405655313,0,,,,,,,,,,,,,,,,,,,,1033,2019_Mar_07_1401,mf_amp_cond1,3.0.4,59.992361477233565,
fighters,sgrawl,&&&&&&,right,authority.vice,,,,,0,318,318,318,,,,,,,,,,,,,,,,,,,,,,,AMP,left,1.300561223884415,,,left,0,1.300561223884415,0,,,,,,,,,,,,,,,,,,,,1033,2019_Mar_07_1401,mf_amp_cond1,3.0.4,59.992361477233565,
illegal,pistraught,&&&&&&&&&&,right,fairness.vice,,,,,0,319,319,319,,,,,,,,,,,,,,,,,,,,,,,AMP,left,0.6671049808419411,,,left,0,0.6671049808419411,0,,,,,,,,,,,,,,,,,,,,1033,2019_Mar_07_1401,mf_amp_cond1,3.0.4,59.992361477233565,
promised,Lacedonia,&&&&&&&&&,left,loyalty.virtue,,,,,0,320,320,320,,,,,,,,,,,,,,,,,,,,,,,AMP,left,2.6175415898680967,,,left,1,2.6175415898680967,1,,,,,,,,,,,,,,,,,,,,1033,2019_Mar_07_1401,mf_amp_cond1,3.0.4,59.992361477233565,
powerful,pharing,&&&&&&&,left,authority.virtue,,,,,0,321,321,321,,,,,,,,,,,,,,,,,,,,,,,AMP,right,0.9671476042226459,,,right,0,0.9671476042226459,0,,,,,,,,,,,,,,,,,,,,1033,2019_Mar_07_1401,mf_amp_cond1,3.0.4,59.992361477233565,
army,gikely,&&&&&&,right,loyalty.vice,,,,,0,322,322,322,,,,,,,,,,,,,,,,,,,,,,,AMP,right,0.5170511163059928,,,right,1,0.5170511163059928,1,,,,,,,,,,,,,,,,,,,,1033,2019_Mar_07_1401,mf_amp_cond1,3.0.4,59.992361477233565,
celebrated,egpeditious,&&&&&&&&&&&,left,authority.virtue,,,,,0,323,323,323,,,,,,,,,,,,,,,,,,,,,,,AMP,left,0.5670558148203781,,,left,1,0.5670558148203781,1,,,,,,,,,,,,,,,,,,,,1033,2019_Mar_07_1401,mf_amp_cond1,3.0.4,59.992361477233565,
good,pumber,&&&&&&,left,care.virtue,,,,,0,324,324,324,,,,,,,,,,,,,,,,,,,,,,,AMP,left,0.5170456641053534,,,left,1,0.5170456641053534,1,,,,,,,,,,,,,,,,,,,,1033,2019_Mar_07_1401,mf_amp_cond1,3.0.4,59.992361477233565,
encourage,fostet,&&&&&&,left,authority.virtue,,,,,0,325,325,325,,,,,,,,,,,,,,,,,,,,,,,AMP,left,0.4336850430420327,,,left,1,0.4336850430420327,1,,,,,,,,,,,,,,,,,,,,1033,2019_Mar_07_1401,mf_amp_cond1,3.0.4,59.992361477233565,
intelligence,simplustic,&&&&&&&&&&,left,loyalty.virtue,,,,,0,326,326,326,,,,,,,,,,,,,,,,,,,,,,,AMP,right,0.3670219470320717,,,right,0,0.3670219470320717,0,,,,,,,,,,,,,,,,,,,,1033,2019_Mar_07_1401,mf_amp_cond1,3.0.4,59.992361477233565,
values,carvels,&&&&&&&,left,sanctity.virtue,,,,,0,327,327,327,,,,,,,,,,,,,,,,,,,,,,,AMP,left,0.6502576806274192,,,left,1,0.6502576806274192,1,,,,,,,,,,,,,,,,,,,,1033,2019_Mar_07_1401,mf_amp_cond1,3.0.4,59.992361477233565,
,,,,,,,,,,,,,,,,,,,,,,,,,,,,,,,,,,,,,,,,,,,,6,9.021,,,,,,,,,,,,,,,,,,1033,2019_Mar_07_1401,mf_amp_cond1,3.0.4,59.992361477233565,
,,,,,,,,,,,,,,,,,,,,,,,,,,,,,,,,,,,,,,,,,,,,,,5,6.637,,,,,,,,,,,,,,,,1033,2019_Mar_07_1401,mf_amp_cond1,3.0.4,59.992361477233565,
,,,,,,,,,,,,,,,,,,,,,,,,,,,,,,,,,,,,,,,,,,,,,,,,4,4.653,,,,,,,,,,,,,,1033,2019_Mar_07_1401,mf_amp_cond1,3.0.4,59.992361477233565,
,,,,,,,,,,,,,,,,,,,,,,,,,,,,,,,,,,,,,,,,,,,,,,,,,,right,1.3672730689827404,,,,,,,,,,,,1033,2019_Mar_07_1401,mf_amp_cond1,3.0.4,59.992361477233565,
bisebell,,&&&&&&&,,,,,,,,,,,0,0,0,1,,,,,,,,,,,,,,,,,,,LDT_prac,left,2.8175757783737936,,,,,,0,,,,,,,,,left,2.8175757783737936,,,,,,,,,,1033,2019_Mar_07_1401,mf_amp_cond1,3.0.4,59.992361477233565,
keyboard,,&&&&&&&,,,,,,,,,,,0,1,1,0,,,,,,,,,,,,,,,,,,,LDT_prac,left,2.134110667487221,,,,,,0,,,,,,,,,left,2.134110667487221,,,,,,,,,,1033,2019_Mar_07_1401,mf_amp_cond1,3.0.4,59.992361477233565,
,,,,,,,,,,,,,,,,,,,,,,,,,,,,,,,,,,,,,,,,,,,,,,,,,,,,,,right,2.0340916489283245,,,,,,,,1033,2019_Mar_07_1401,mf_amp_cond1,3.0.4,59.992361477233565,
gondensed,,&&&&&&&&&,right,nonword,,,,,,,,,,,,,0,0,0,72,,,,,,,,,,,,,,,LDT,left,1.1005203003071529,,,,,,0,,,,,,,,,,,,,left,0,1.1005203003071529,,,,,1033,2019_Mar_07_1401,mf_amp_cond1,3.0.4,59.992361477233565,
hatigue,,&&&&&&&,right,nonword,,,,,,,,,,,,,0,1,1,34,,,,,,,,,,,,,,,LDT,left,0.7004195308090857,,,,,,0,,,,,,,,,,,,,left,0,0.7004195308090857,,,,,1033,2019_Mar_07_1401,mf_amp_cond1,3.0.4,59.992361477233565,
amount,,&&&&&&,left,neutral,,,,,,,,,,,,,0,2,2,60,,,,,,,,,,,,,,,LDT,right,0.7169829958688752,,,,,,0,,,,,,,,,,,,,right,0,0.7169829958688752,,,,,1033,2019_Mar_07_1401,mf_amp_cond1,3.0.4,59.992361477233565,
officers,,&&&&&&&&,left,authority.vice,,,,,,,,,,,,,0,3,3,11,,,,,,,,,,,,,,,LDT,right,0.7170923606008728,,,,,,0,,,,,,,,,,,,,right,0,0.7170923606008728,,,,,1033,2019_Mar_07_1401,mf_amp_cond1,3.0.4,59.992361477233565,
else,,&&&&,left,neutral,,,,,,,,,,,,,0,4,4,44,,,,,,,,,,,,,,,LDT,right,0.6004053230155932,,,,,,0,,,,,,,,,,,,,right,0,0.6004053230155932,,,,,1033,2019_Mar_07_1401,mf_amp_cond1,3.0.4,59.992361477233565,
although,,&&&&&&&&,left,neutral,,,,,,,,,,,,,0,5,5,0,,,,,,,,,,,,,,,LDT,right,0.8671301892522933,,,,,,0,,,,,,,,,,,,,right,0,0.8671301892522933,,,,,1033,2019_Mar_07_1401,mf_amp_cond1,3.0.4,59.992361477233565,
Daptist,,&&&&&&&,right,nonword,,,,,,,,,,,,,0,6,6,139,,,,,,,,,,,,,,,LDT,left,0.5670708885515978,,,,,,0,,,,,,,,,,,,,left,0,0.5670708885515978,,,,,1033,2019_Mar_07_1401,mf_amp_cond1,3.0.4,59.992361477233565,
done,,&&&&,left,neutral,,,,,,,,,,,,,0,7,7,141,,,,,,,,,,,,,,,LDT,left,0.7337696804399911,,,,,,1,,,,,,,,,,,,,left,1,0.7337696804399911,,,,,1033,2019_Mar_07_1401,mf_amp_cond1,3.0.4,59.992361477233565,
towards,,&&&&&&&,left,neutral,,,,,,,,,,,,,0,8,8,101,,,,,,,,,,,,,,,LDT,left,0.950495941798863,,,,,,1,,,,,,,,,,,,,left,1,0.950495941798863,,,,,1033,2019_Mar_07_1401,mf_amp_cond1,3.0.4,59.992361477233565,
therefore,,&&&&&&&&&,left,neutral,,,,,,,,,,,,,0,9,9,123,,,,,,,,,,,,,,,LDT,left,0.8004343800382685,,,,,,1,,,,,,,,,,,,,left,1,0.8004343800382685,,,,,1033,2019_Mar_07_1401,mf_amp_cond1,3.0.4,59.992361477233565,
framatic,,&&&&&&&&,right,nonword,,,,,,,,,,,,,0,10,10,38,,,,,,,,,,,,,,,LDT,left,1.3672778797481442,,,,,,0,,,,,,,,,,,,,left,0,1.3672778797481442,,,,,1033,2019_Mar_07_1401,mf_amp_cond1,3.0.4,59.992361477233565,
compassion,,&&&&&&&&&&,left,care.virtue,,,,,,,,,,,,,0,11,11,124,,,,,,,,,,,,,,,LDT,right,1.1005331290148206,,,,,,0,,,,,,,,,,,,,right,0,1.1005331290148206,,,,,1033,2019_Mar_07_1401,mf_amp_cond1,3.0.4,59.992361477233565,
seachwear,,&&&&&&&&&,right,nonword,,,,,,,,,,,,,0,12,12,99,,,,,,,,,,,,,,,LDT,right,0.6837954501065724,,,,,,1,,,,,,,,,,,,,right,1,0.6837954501065724,,,,,1033,2019_Mar_07_1401,mf_amp_cond1,3.0.4,59.992361477233565,
praised,,&&&&&&&,left,loyalty.virtue,,,,,,,,,,,,,0,13,13,153,,,,,,,,,,,,,,,LDT,right,0.7504296815241105,,,,,,0,,,,,,,,,,,,,right,0,0.7504296815241105,,,,,1033,2019_Mar_07_1401,mf_amp_cond1,3.0.4,59.992361477233565,
least,,&&&&&,left,neutral,,,,,,,,,,,,,0,14,14,167,,,,,,,,,,,,,,,LDT,right,0.7171209044752231,,,,,,0,,,,,,,,,,,,,right,0,0.7171209044752231,,,,,1033,2019_Mar_07_1401,mf_amp_cond1,3.0.4,59.992361477233565,
taxpayung,,&&&&&&&&&,right,nonword,,,,,,,,,,,,,0,15,15,128,,,,,,,,,,,,,,,LDT,right,0.8004626031947737,,,,,,1,,,,,,,,,,,,,right,1,0.8004626031947737,,,,,1033,2019_Mar_07_1401,mf_amp_cond1,3.0.4,59.992361477233565,
imebreaker,,&&&&&&&&&&,right,nonword,,,,,,,,,,,,,0,16,16,176,,,,,,,,,,,,,,,LDT,left,1.9840859882610857,,,,,,0,,,,,,,,,,,,,left,0,1.9840859882610857,,,,,1033,2019_Mar_07_1401,mf_amp_cond1,3.0.4,59.992361477233565,
amoungst,,&&&&&&&&,left,neutral,,,,,,,,,,,,,0,17,17,198,,,,,,,,,,,,,,,LDT,right,0.7171135279684222,,,,,,0,,,,,,,,,,,,,right,0,0.7171135279684222,,,,,1033,2019_Mar_07_1401,mf_amp_cond1,3.0.4,59.992361477233565,
wump,,&&&&,right,nonword,,,,,,,,,,,,,0,18,18,30,,,,,,,,,,,,,,,LDT,left,1.0671707921117104,,,,,,0,,,,,,,,,,,,,left,0,1.0671707921117104,,,,,1033,2019_Mar_07_1401,mf_amp_cond1,3.0.4,59.992361477233565,
hereby,,&&&&&&,left,neutral,,,,,,,,,,,,,0,19,19,71,,,,,,,,,,,,,,,LDT,left,0.9838210754498959,,,,,,1,,,,,,,,,,,,,left,1,0.9838210754498959,,,,,1033,2019_Mar_07_1401,mf_amp_cond1,3.0.4,59.992361477233565,
men,,&&&,left,loyalty.vice,,,,,,,,,,,,,0,20,20,196,,,,,,,,,,,,,,,LDT,right,0.6504058521998104,,,,,,0,,,,,,,,,,,,,right,0,0.6504058521998104,,,,,1033,2019_Mar_07_1401,mf_amp_cond1,3.0.4,59.992361477233565,
whither,,&&&&&&&,left,neutral,,,,,,,,,,,,,0,21,21,136,,,,,,,,,,,,,,,LDT,left,1.233911277299967,,,,,,1,,,,,,,,,,,,,left,1,1.233911277299967,,,,,1033,2019_Mar_07_1401,mf_amp_cond1,3.0.4,59.992361477233565,
suggists,,&&&&&&&&,right,nonword,,,,,,,,,,,,,0,22,22,194,,,,,,,,,,,,,,,LDT,right,0.650422208801956,,,,,,1,,,,,,,,,,,,,right,1,0.650422208801956,,,,,1033,2019_Mar_07_1401,mf_amp_cond1,3.0.4,59.992361477233565,
juck,,&&&&,right,nonword,,,,,,,,,,,,,0,23,23,185,,,,,,,,,,,,,,,LDT,right,1.1005142066712779,,,,,,1,,,,,,,,,,,,,right,1,1.1005142066712779,,,,,1033,2019_Mar_07_1401,mf_amp_cond1,3.0.4,59.992361477233565,
safe,,&&&&,left,care.virtue,,,,,,,,,,,,,0,24,24,177,,,,,,,,,,,,,,,LDT,right,0.900464302998671,,,,,,0,,,,,,,,,,,,,right,0,0.900464302998671,,,,,1033,2019_Mar_07_1401,mf_amp_cond1,3.0.4,59.992361477233565,
fear,,&&&&,left,sanctity.vice,,,,,,,,,,,,,0,25,25,158,,,,,,,,,,,,,,,LDT,right,0.683755681113098,,,,,,0,,,,,,,,,,,,,right,0,0.683755681113098,,,,,1033,2019_Mar_07_1401,mf_amp_cond1,3.0.4,59.992361477233565,
gationwide,,&&&&&&&&&&,right,nonword,,,,,,,,,,,,,0,26,26,199,,,,,,,,,,,,,,,LDT,left,0.7504200599935302,,,,,,0,,,,,,,,,,,,,left,0,0.7504200599935302,,,,,1033,2019_Mar_07_1401,mf_amp_cond1,3.0.4,59.992361477233565,
anything,,&&&&&&&&,left,neutral,,,,,,,,,,,,,0,27,27,96,,,,,,,,,,,,,,,LDT,right,0.6504113044006772,,,,,,0,,,,,,,,,,,,,right,0,0.6504113044006772,,,,,1033,2019_Mar_07_1401,mf_amp_cond1,3.0.4,59.992361477233565,
sliptery,,&&&&&&&&,right,nonword,,,,,,,,,,,,,0,28,28,55,,,,,,,,,,,,,,,LDT,left,0.7337866784775997,,,,,,0,,,,,,,,,,,,,left,0,0.7337866784775997,,,,,1033,2019_Mar_07_1401,mf_amp_cond1,3.0.4,59.992361477233565,
somehow,,&&&&&&&,left,neutral,,,,,,,,,,,,,0,29,29,107,,,,,,,,,,,,,,,LDT,left,0.8337700973729625,,,,,,1,,,,,,,,,,,,,left,1,0.8337700973729625,,,,,1033,2019_Mar_07_1401,mf_amp_cond1,3.0.4,59.992361477233565,
clean,,&&&&&,left,sanctity.virtue,,,,,,,,,,,,,0,30,30,130,,,,,,,,,,,,,,,LDT,right,0.6170730213241313,,,,,,0,,,,,,,,,,,,,right,0,0.6170730213241313,,,,,1033,2019_Mar_07_1401,mf_amp_cond1,3.0.4,59.992361477233565,
itself,,&&&&&&,left,neutral,,,,,,,,,,,,,0,31,31,9,,,,,,,,,,,,,,,LDT,right,0.7003983634417636,,,,,,0,,,,,,,,,,,,,right,0,0.7003983634417636,,,,,1033,2019_Mar_07_1401,mf_amp_cond1,3.0.4,59.992361477233565,
esquisiteness,,&&&&&&&&&&&&&,right,nonword,,,,,,,,,,,,,0,32,32,168,,,,,,,,,,,,,,,LDT,left,1.1672112987560013,,,,,,0,,,,,,,,,,,,,left,0,1.1672112987560013,,,,,1033,2019_Mar_07_1401,mf_amp_cond1,3.0.4,59.992361477233565,
ronviolence,,&&&&&&&&&&&,right,nonword,,,,,,,,,,,,,0,33,33,143,,,,,,,,,,,,,,,LDT,left,0.8004677346777953,,,,,,0,,,,,,,,,,,,,left,0,0.8004677346777953,,,,,1033,2019_Mar_07_1401,mf_amp_cond1,3.0.4,59.992361477233565,
with,,&&&&,left,neutral,,,,,,,,,,,,,0,34,34,147,,,,,,,,,,,,,,,LDT,left,0.8671266613575881,,,,,,1,,,,,,,,,,,,,left,1,0.8671266613575881,,,,,1033,2019_Mar_07_1401,mf_amp_cond1,3.0.4,59.992361477233565,
vicissifude,,&&&&&&&&&&&,right,nonword,,,,,,,,,,,,,0,35,35,129,,,,,,,,,,,,,,,LDT,left,0.7171029442845338,,,,,,0,,,,,,,,,,,,,left,0,0.7171029442845338,,,,,1033,2019_Mar_07_1401,mf_amp_cond1,3.0.4,59.992361477233565,
hope,,&&&&,left,loyalty.virtue,,,,,,,,,,,,,0,36,36,78,,,,,,,,,,,,,,,LDT,right,0.6670796441444509,,,,,,0,,,,,,,,,,,,,right,0,0.6670796441444509,,,,,1033,2019_Mar_07_1401,mf_amp_cond1,3.0.4,59.992361477233565,
benefit,,&&&&&&&,left,fairness.virtue,,,,,,,,,,,,,0,37,37,88,,,,,,,,,,,,,,,LDT,right,0.6003883249779847,,,,,,0,,,,,,,,,,,,,right,0,0.6003883249779847,,,,,1033,2019_Mar_07_1401,mf_amp_cond1,3.0.4,59.992361477233565,
tabin,,&&&&&,right,nonword,,,,,,,,,,,,,0,38,38,73,,,,,,,,,,,,,,,LDT,left,0.7004243415747169,,,,,,0,,,,,,,,,,,,,left,0,0.7004243415747169,,,,,1033,2019_Mar_07_1401,mf_amp_cond1,3.0.4,59.992361477233565,
credit,,&&&&&&,left,fairness.virtue,,,,,,,,,,,,,0,39,39,40,,,,,,,,,,,,,,,LDT,right,0.9171480371917369,,,,,,0,,,,,,,,,,,,,right,0,0.9171480371917369,,,,,1033,2019_Mar_07_1401,mf_amp_cond1,3.0.4,59.992361477233565,
chreams,,&&&&&&&,right,nonword,,,,,,,,,,,,,0,40,40,121,,,,,,,,,,,,,,,LDT,right,0.8671394900652558,,,,,,1,,,,,,,,,,,,,right,1,0.8671394900652558,,,,,1033,2019_Mar_07_1401,mf_amp_cond1,3.0.4,59.992361477233565,
discovars,,&&&&&&&&&,right,nonword,,,,,,,,,,,,,0,41,41,193,,,,,,,,,,,,,,,LDT,right,0.867139169347638,,,,,,1,,,,,,,,,,,,,right,1,0.867139169347638,,,,,1033,2019_Mar_07_1401,mf_amp_cond1,3.0.4,59.992361477233565,
death,,&&&&&,left,care.vice,,,,,,,,,,,,,0,42,42,64,,,,,,,,,,,,,,,LDT,left,0.8171190763844152,,,,,,1,,,,,,,,,,,,,left,1,0.8171190763844152,,,,,1033,2019_Mar_07_1401,mf_amp_cond1,3.0.4,59.992361477233565,
disregord,,&&&&&&&&&,right,nonword,,,,,,,,,,,,,0,43,43,190,,,,,,,,,,,,,,,LDT,right,0.7837734168012958,,,,,,1,,,,,,,,,,,,,right,1,0.7837734168012958,,,,,1033,2019_Mar_07_1401,mf_amp_cond1,3.0.4,59.992361477233565,
about,,&&&&&,left,neutral,,,,,,,,,,,,,0,44,44,15,,,,,,,,,,,,,,,LDT,left,0.900464302998671,,,,,,1,,,,,,,,,,,,,left,1,0.900464302998671,,,,,1033,2019_Mar_07_1401,mf_amp_cond1,3.0.4,59.992361477233565,
besides,,&&&&&&&,left,neutral,,,,,,,,,,,,,0,45,45,76,,,,,,,,,,,,,,,LDT,left,0.6504113044004498,,,,,,1,,,,,,,,,,,,,left,1,0.6504113044004498,,,,,1033,2019_Mar_07_1401,mf_amp_cond1,3.0.4,59.992361477233565,
energy,,&&&&&&,left,sanctity.virtue,,,,,,,,,,,,,0,46,46,148,,,,,,,,,,,,,,,LDT,left,0.8337896611521955,,,,,,1,,,,,,,,,,,,,left,1,0.8337896611521955,,,,,1033,2019_Mar_07_1401,mf_amp_cond1,3.0.4,59.992361477233565,
gedious,,&&&&&&&,right,nonword,,,,,,,,,,,,,0,47,47,161,,,,,,,,,,,,,,,LDT,right,0.717091398447792,,,,,,1,,,,,,,,,,,,,right,1,0.717091398447792,,,,,1033,2019_Mar_07_1401,mf_amp_cond1,3.0.4,59.992361477233565,
toward,,&&&&&&,left,neutral,,,,,,,,,,,,,0,48,48,84,,,,,,,,,,,,,,,LDT,right,0.7004220965507102,,,,,,0,,,,,,,,,,,,,right,0,0.7004220965507102,,,,,1033,2019_Mar_07_1401,mf_amp_cond1,3.0.4,59.992361477233565,
blunderints,,&&&&&&&&&&&,right,nonword,,,,,,,,,,,,,0,49,49,180,,,,,,,,,,,,,,,LDT,right,0.6003251435931816,,,,,,1,,,,,,,,,,,,,right,1,0.6003251435931816,,,,,1033,2019_Mar_07_1401,mf_amp_cond1,3.0.4,59.992361477233565,
great,,&&&&&,left,loyalty.virtue,,,,,,,,,,,,,0,50,50,92,,,,,,,,,,,,,,,LDT,right,0.8171235664319738,,,,,,0,,,,,,,,,,,,,right,0,0.8171235664319738,,,,,1033,2019_Mar_07_1401,mf_amp_cond1,3.0.4,59.992361477233565,
pafer,,&&&&&,right,nonword,,,,,,,,,,,,,0,51,51,13,,,,,,,,,,,,,,,LDT,right,0.6171041309401062,,,,,,1,,,,,,,,,,,,,right,1,0.6171041309401062,,,,,1033,2019_Mar_07_1401,mf_amp_cond1,3.0.4,59.992361477233565,
papert,,&&&&&&,right,nonword,,,,,,,,,,,,,0,52,52,179,,,,,,,,,,,,,,,LDT,right,0.7504418687963152,,,,,,1,,,,,,,,,,,,,right,1,0.7504418687963152,,,,,1033,2019_Mar_07_1401,mf_amp_cond1,3.0.4,59.992361477233565,
lachelor,,&&&&&&&&,right,nonword,,,,,,,,,,,,,0,53,53,22,,,,,,,,,,,,,,,LDT,left,0.9169915269592366,,,,,,0,,,,,,,,,,,,,left,0,0.9169915269592366,,,,,1033,2019_Mar_07_1401,mf_amp_cond1,3.0.4,59.992361477233565,
loyalty,,&&&&&&&,left,loyalty.virtue,,,,,,,,,,,,,0,54,54,17,,,,,,,,,,,,,,,LDT,left,0.6504138701420743,,,,,,1,,,,,,,,,,,,,left,1,0.6504138701420743,,,,,1033,2019_Mar_07_1401,mf_amp_cond1,3.0.4,59.992361477233565,
smapper,,&&&&&&&,right,nonword,,,,,,,,,,,,,0,55,55,12,,,,,,,,,,,,,,,LDT,right,0.5337704501625922,,,,,,1,,,,,,,,,,,,,right,1,0.5337704501625922,,,,,1033,2019_Mar_07_1401,mf_amp_cond1,3.0.4,59.992361477233565,
thadowed,,&&&&&&&&,right,nonword,,,,,,,,,,,,,0,56,56,152,,,,,,,,,,,,,,,LDT,left,1.4005940333040598,,,,,,0,,,,,,,,,,,,,left,0,1.4005940333040598,,,,,1033,2019_Mar_07_1401,mf_amp_cond1,3.0.4,59.992361477233565,
laming,,&&&&&&,right,nonword,,,,,,,,,,,,,0,57,57,63,,,,,,,,,,,,,,,LDT,left,0.8338121113902162,,,,,,0,,,,,,,,,,,,,left,0,0.8338121113902162,,,,,1033,2019_Mar_07_1401,mf_amp_cond1,3.0.4,59.992361477233565,
latterly,,&&&&&&&&,left,neutral,,,,,,,,,,,,,0,58,58,21,,,,,,,,,,,,,,,LDT,right,0.8504660188382331,,,,,,0,,,,,,,,,,,,,right,0,0.8504660188382331,,,,,1033,2019_Mar_07_1401,mf_amp_cond1,3.0.4,59.992361477233565,
freedom,,&&&&&&&,left,sanctity.virtue,,,,,,,,,,,,,0,59,59,192,,,,,,,,,,,,,,,LDT,right,0.8837988497139122,,,,,,0,,,,,,,,,,,,,right,0,0.8837988497139122,,,,,1033,2019_Mar_07_1401,mf_amp_cond1,3.0.4,59.992361477233565,
hence,,&&&&&,left,neutral,,,,,,,,,,,,,0,60,60,86,,,,,,,,,,,,,,,LDT,right,0.7004496782722072,,,,,,0,,,,,,,,,,,,,right,0,0.7004496782722072,,,,,1033,2019_Mar_07_1401,mf_amp_cond1,3.0.4,59.992361477233565,
either,,&&&&&&,left,neutral,,,,,,,,,,,,,0,61,61,85,,,,,,,,,,,,,,,LDT,right,0.7337732083346964,,,,,,0,,,,,,,,,,,,,right,0,0.7337732083346964,,,,,1033,2019_Mar_07_1401,mf_amp_cond1,3.0.4,59.992361477233565,
sexual,,&&&&&&,left,sanctity.vice,,,,,,,,,,,,,0,62,62,91,,,,,,,,,,,,,,,LDT,right,0.6837515117829298,,,,,,0,,,,,,,,,,,,,right,0,0.6837515117829298,,,,,1033,2019_Mar_07_1401,mf_amp_cond1,3.0.4,59.992361477233565,
black,,&&&&&,left,loyalty.vice,,,,,,,,,,,,,0,63,63,62,,,,,,,,,,,,,,,LDT,left,0.6337561140817343,,,,,,1,,,,,,,,,,,,,left,1,0.6337561140817343,,,,,1033,2019_Mar_07_1401,mf_amp_cond1,3.0.4,59.992361477233565,
neneficence,,&&&&&&&&&&&,right,nonword,,,,,,,,,,,,,0,64,64,42,,,,,,,,,,,,,,,LDT,left,1.46727765524588,,,,,,0,,,,,,,,,,,,,left,0,1.46727765524588,,,,,1033,2019_Mar_07_1401,mf_amp_cond1,3.0.4,59.992361477233565,
frojecting,,&&&&&&&&&&,right,nonword,,,,,,,,,,,,,0,65,65,48,,,,,,,,,,,,,,,LDT,right,0.6335819643766172,,,,,,1,,,,,,,,,,,,,right,1,0.6335819643766172,,,,,1033,2019_Mar_07_1401,mf_amp_cond1,3.0.4,59.992361477233565,
serial,,&&&&&&,left,sanctity.vice,,,,,,,,,,,,,0,66,66,80,,,,,,,,,,,,,,,LDT,right,0.8671484701606005,,,,,,0,,,,,,,,,,,,,right,0,0.8671484701606005,,,,,1033,2019_Mar_07_1401,mf_amp_cond1,3.0.4,59.992361477233565,
each,,&&&&,left,neutral,,,,,,,,,,,,,0,67,67,33,,,,,,,,,,,,,,,LDT,left,0.517062020707499,,,,,,1,,,,,,,,,,,,,left,1,0.517062020707499,,,,,1033,2019_Mar_07_1401,mf_amp_cond1,3.0.4,59.992361477233565,
Boeinf,,&&&&&&,right,nonword,,,,,,,,,,,,,0,68,68,119,,,,,,,,,,,,,,,LDT,left,0.6170678898411097,,,,,,0,,,,,,,,,,,,,left,0,0.6170678898411097,,,,,1033,2019_Mar_07_1401,mf_amp_cond1,3.0.4,59.992361477233565,
atson,,&&&&&,right,nonword,,,,,,,,,,,,,0,69,69,114,,,,,,,,,,,,,,,LDT,right,0.6670802855799138,,,,,,1,,,,,,,,,,,,,right,1,0.6670802855799138,,,,,1033,2019_Mar_07_1401,mf_amp_cond1,3.0.4,59.992361477233565,
attacks,,&&&&&&&,left,care.vice,,,,,,,,,,,,,0,70,70,134,,,,,,,,,,,,,,,LDT,left,0.717092681318718,,,,,,1,,,,,,,,,,,,,left,1,0.717092681318718,,,,,1033,2019_Mar_07_1401,mf_amp_cond1,3.0.4,59.992361477233565,
couldnt,,&&&&&&&,left,neutral,,,,,,,,,,,,,0,71,71,98,,,,,,,,,,,,,,,LDT,left,1.3672599195574549,,,,,,1,,,,,,,,,,,,,left,1,1.3672599195574549,,,,,1033,2019_Mar_07_1401,mf_amp_cond1,3.0.4,59.992361477233565,
gandbrake,,&&&&&&&&&,right,nonword,,,,,,,,,,,,,0,72,72,54,,,,,,,,,,,,,,,LDT,left,1.3672519016154183,,,,,,0,,,,,,,,,,,,,left,0,1.3672519016154183,,,,,1033,2019_Mar_07_1401,mf_amp_cond1,3.0.4,59.992361477233565,
anyhow,,&&&&&&,left,neutral,,,,,,,,,,,,,0,73,73,181,,,,,,,,,,,,,,,LDT,left,0.9338333749731191,,,,,,1,,,,,,,,,,,,,left,1,0.9338333749731191,,,,,1033,2019_Mar_07_1401,mf_amp_cond1,3.0.4,59.992361477233565,
noone,,&&&&&,left,neutral,,,,,,,,,,,,,0,74,74,184,,,,,,,,,,,,,,,LDT,left,0.7504479624324176,,,,,,1,,,,,,,,,,,,,left,1,0.7504479624324176,,,,,1033,2019_Mar_07_1401,mf_amp_cond1,3.0.4,59.992361477233565,
terrorists,,&&&&&&&&&&,left,fairness.vice,,,,,,,,,,,,,0,75,75,82,,,,,,,,,,,,,,,LDT,right,1.133868846349742,,,,,,0,,,,,,,,,,,,,right,0,1.133868846349742,,,,,1033,2019_Mar_07_1401,mf_amp_cond1,3.0.4,59.992361477233565,
nonobservalt,,&&&&&&&&&&&&,right,nonword,,,,,,,,,,,,,0,76,76,183,,,,,,,,,,,,,,,LDT,right,0.9671607536479314,,,,,,1,,,,,,,,,,,,,right,1,0.9671607536479314,,,,,1033,2019_Mar_07_1401,mf_amp_cond1,3.0.4,59.992361477233565,
promote,,&&&&&&&,left,sanctity.virtue,,,,,,,,,,,,,0,77,77,66,,,,,,,,,,,,,,,LDT,right,0.8504605666375937,,,,,,0,,,,,,,,,,,,,right,0,0.8504605666375937,,,,,1033,2019_Mar_07_1401,mf_amp_cond1,3.0.4,59.992361477233565,
godlaness,,&&&&&&&&&,right,nonword,,,,,,,,,,,,,0,78,78,105,,,,,,,,,,,,,,,LDT,right,0.7337619832155724,,,,,,1,,,,,,,,,,,,,right,1,0.7337619832155724,,,,,1033,2019_Mar_07_1401,mf_amp_cond1,3.0.4,59.992361477233565,
peaceful,,&&&&&&&&,left,authority.virtue,,,,,,,,,,,,,0,79,79,191,,,,,,,,,,,,,,,LDT,right,0.7504293608064927,,,,,,0,,,,,,,,,,,,,right,0,0.7504293608064927,,,,,1033,2019_Mar_07_1401,mf_amp_cond1,3.0.4,59.992361477233565,
rorroborated,,&&&&&&&&&&&&,right,nonword,,,,,,,,,,,,,0,80,80,94,,,,,,,,,,,,,,,LDT,right,1.0338424512838174,,,,,,1,,,,,,,,,,,,,right,1,1.0338424512838174,,,,,1033,2019_Mar_07_1401,mf_amp_cond1,3.0.4,59.992361477233565,
wherever,,&&&&&&&&,left,neutral,,,,,,,,,,,,,0,81,81,14,,,,,,,,,,,,,,,LDT,right,0.9338173390885913,,,,,,0,,,,,,,,,,,,,right,0,0.9338173390885913,,,,,1033,2019_Mar_07_1401,mf_amp_cond1,3.0.4,59.992361477233565,
latter,,&&&&&&,left,neutral,,,,,,,,,,,,,0,82,82,116,,,,,,,,,,,,,,,LDT,right,1.433945145088046,,,,,,0,,,,,,,,,,,,,right,0,1.433945145088046,,,,,1033,2019_Mar_07_1401,mf_amp_cond1,3.0.4,59.992361477233565,
brotesque,,&&&&&&&&&,right,nonword,,,,,,,,,,,,,0,83,83,106,,,,,,,,,,,,,,,LDT,left,0.683751832500775,,,,,,0,,,,,,,,,,,,,left,0,0.683751832500775,,,,,1033,2019_Mar_07_1401,mf_amp_cond1,3.0.4,59.992361477233565,
baladroit,,&&&&&&&&&,right,nonword,,,,,,,,,,,,,0,84,84,95,,,,,,,,,,,,,,,LDT,left,0.7504049862620832,,,,,,0,,,,,,,,,,,,,left,0,0.7504049862620832,,,,,1033,2019_Mar_07_1401,mf_amp_cond1,3.0.4,59.992361477233565,
strofe,,&&&&&&,right,nonword,,,,,,,,,,,,,0,85,85,122,,,,,,,,,,,,,,,LDT,left,0.6170156128578128,,,,,,0,,,,,,,,,,,,,left,0,0.6170156128578128,,,,,1033,2019_Mar_07_1401,mf_amp_cond1,3.0.4,59.992361477233565,
were,,&&&&,left,neutral,,,,,,,,,,,,,0,86,86,138,,,,,,,,,,,,,,,LDT,left,1.2838938462934948,,,,,,1,,,,,,,,,,,,,left,1,1.2838938462934948,,,,,1033,2019_Mar_07_1401,mf_amp_cond1,3.0.4,59.992361477233565,
openet,,&&&&&&,None,nonword,,,,,,,,,,,,,0,87,87,100,,,,,,,,,,,,,,,LDT,right,0.5836988178666616,,,,,,0,,,,,,,,,,,,,right,0,0.5836988178666616,,,,,1033,2019_Mar_07_1401,mf_amp_cond1,3.0.4,59.992361477233565,
sowntrodden,,&&&&&&&&&&&,right,nonword,,,,,,,,,,,,,0,88,88,115,,,,,,,,,,,,,,,LDT,left,0.750436095878058,,,,,,0,,,,,,,,,,,,,left,0,0.750436095878058,,,,,1033,2019_Mar_07_1401,mf_amp_cond1,3.0.4,59.992361477233565,
glacenta,,&&&&&&&&,right,nonword,,,,,,,,,,,,,0,89,89,188,,,,,,,,,,,,,,,LDT,left,0.7504386616194552,,,,,,0,,,,,,,,,,,,,left,0,0.7504386616194552,,,,,1033,2019_Mar_07_1401,mf_amp_cond1,3.0.4,59.992361477233565,
bruthfulness,,&&&&&&&&&&&&,right,nonword,,,,,,,,,,,,,0,90,90,149,,,,,,,,,,,,,,,LDT,left,0.8171514688710886,,,,,,0,,,,,,,,,,,,,left,0,0.8171514688710886,,,,,1033,2019_Mar_07_1401,mf_amp_cond1,3.0.4,59.992361477233565,
greaks,,&&&&&&,right,nonword,,,,,,,,,,,,,0,91,91,51,,,,,,,,,,,,,,,LDT,right,0.6837710755619355,,,,,,1,,,,,,,,,,,,,right,1,0.6837710755619355,,,,,1033,2019_Mar_07_1401,mf_amp_cond1,3.0.4,59.992361477233565,
seem,,&&&&,left,neutral,,,,,,,,,,,,,0,92,92,56,,,,,,,,,,,,,,,LDT,right,0.6337468132687718,,,,,,0,,,,,,,,,,,,,right,0,0.6337468132687718,,,,,1033,2019_Mar_07_1401,mf_amp_cond1,3.0.4,59.992361477233565,
gowlands,,&&&&&&&&,right,nonword,,,,,,,,,,,,,0,93,93,50,,,,,,,,,,,,,,,LDT,left,0.7504665640585699,,,,,,0,,,,,,,,,,,,,left,0,0.7504665640585699,,,,,1033,2019_Mar_07_1401,mf_amp_cond1,3.0.4,59.992361477233565,
ilportation,,&&&&&&&&&&&,right,nonword,,,,,,,,,,,,,0,94,94,2,,,,,,,,,,,,,,,LDT,left,0.8170812316971023,,,,,,0,,,,,,,,,,,,,left,0,0.8170812316971023,,,,,1033,2019_Mar_07_1401,mf_amp_cond1,3.0.4,59.992361477233565,
Cunday,,&&&&&&,None,nonword,,,,,,,,,,,,,0,95,95,3,,,,,,,,,,,,,,,LDT,left,0.7004166443498434,,,,,,0,,,,,,,,,,,,,left,0,0.7004166443498434,,,,,1033,2019_Mar_07_1401,mf_amp_cond1,3.0.4,59.992361477233565,
rejected,,&&&&&&&&,left,authority.vice,,,,,,,,,,,,,0,96,96,5,,,,,,,,,,,,,,,LDT,left,0.650418360189633,,,,,,1,,,,,,,,,,,,,left,1,0.650418360189633,,,,,1033,2019_Mar_07_1401,mf_amp_cond1,3.0.4,59.992361477233565,
mostly,,&&&&&&,left,neutral,,,,,,,,,,,,,0,97,97,151,,,,,,,,,,,,,,,LDT,left,0.767114698587875,,,,,,1,,,,,,,,,,,,,left,1,0.767114698587875,,,,,1033,2019_Mar_07_1401,mf_amp_cond1,3.0.4,59.992361477233565,
less,,&&&&,left,neutral,,,,,,,,,,,,,0,98,98,144,,,,,,,,,,,,,,,LDT,right,0.5504035109609049,,,,,,0,,,,,,,,,,,,,right,0,0.5504035109609049,,,,,1033,2019_Mar_07_1401,mf_amp_cond1,3.0.4,59.992361477233565,
progress,,&&&&&&&&,left,authority.virtue,,,,,,,,,,,,,0,99,99,109,,,,,,,,,,,,,,,LDT,right,0.4670371169788723,,,,,,0,,,,,,,,,,,,,right,0,0.4670371169788723,,,,,1033,2019_Mar_07_1401,mf_amp_cond1,3.0.4,59.992361477233565,
win,,&&&,left,fairness.virtue,,,,,,,,,,,,,0,100,100,46,,,,,,,,,,,,,,,LDT,left,0.45035113776202707,,,,,,1,,,,,,,,,,,,,left,1,0.45035113776202707,,,,,1033,2019_Mar_07_1401,mf_amp_cond1,3.0.4,59.992361477233565,
charges,,&&&&&&&,left,fairness.vice,,,,,,,,,,,,,0,101,101,57,,,,,,,,,,,,,,,LDT,left,0.5337143245667448,,,,,,1,,,,,,,,,,,,,left,1,0.5337143245667448,,,,,1033,2019_Mar_07_1401,mf_amp_cond1,3.0.4,59.992361477233565,
festate,,&&&&&&&,right,nonword,,,,,,,,,,,,,0,102,102,163,,,,,,,,,,,,,,,LDT,left,0.8671369243238587,,,,,,0,,,,,,,,,,,,,left,0,0.8671369243238587,,,,,1033,2019_Mar_07_1401,mf_amp_cond1,3.0.4,59.992361477233565,
been,,&&&&,left,neutral,,,,,,,,,,,,,0,103,103,1,,,,,,,,,,,,,,,LDT,left,1.4506272756925682,,,,,,1,,,,,,,,,,,,,left,1,1.4506272756925682,,,,,1033,2019_Mar_07_1401,mf_amp_cond1,3.0.4,59.992361477233565,
photocalkodes,,&&&&&&&&&&&&&,right,nonword,,,,,,,,,,,,,0,104,104,166,,,,,,,,,,,,,,,LDT,right,1.100526714660873,,,,,,1,,,,,,,,,,,,,right,1,1.100526714660873,,,,,1033,2019_Mar_07_1401,mf_amp_cond1,3.0.4,59.992361477233565,
party,,&&&&&,left,loyalty.virtue,,,,,,,,,,,,,0,105,105,126,,,,,,,,,,,,,,,LDT,left,1.16722220315728,,,,,,1,,,,,,,,,,,,,left,1,1.16722220315728,,,,,1033,2019_Mar_07_1401,mf_amp_cond1,3.0.4,59.992361477233565,
forty,,&&&&&,left,neutral,,,,,,,,,,,,,0,106,106,8,,,,,,,,,,,,,,,LDT,left,0.6337420025035954,,,,,,1,,,,,,,,,,,,,left,1,0.6337420025035954,,,,,1033,2019_Mar_07_1401,mf_amp_cond1,3.0.4,59.992361477233565,
front,,&&&&&,left,neutral,,,,,,,,,,,,,0,107,107,7,,,,,,,,,,,,,,,LDT,left,0.567051004054747,,,,,,1,,,,,,,,,,,,,left,1,0.567051004054747,,,,,1033,2019_Mar_07_1401,mf_amp_cond1,3.0.4,59.992361477233565,
letish,,&&&&&&,right,nonword,,,,,,,,,,,,,0,108,108,52,,,,,,,,,,,,,,,LDT,right,0.567089169459905,,,,,,1,,,,,,,,,,,,,right,1,0.567089169459905,,,,,1033,2019_Mar_07_1401,mf_amp_cond1,3.0.4,59.992361477233565,
also,,&&&&,left,neutral,,,,,,,,,,,,,0,109,109,157,,,,,,,,,,,,,,,LDT,right,0.8838119991391977,,,,,,0,,,,,,,,,,,,,right,0,0.8838119991391977,,,,,1033,2019_Mar_07_1401,mf_amp_cond1,3.0.4,59.992361477233565,
reelectiob,,&&&&&&&&&&,right,nonword,,,,,,,,,,,,,0,110,110,69,,,,,,,,,,,,,,,LDT,right,0.6004255282300619,,,,,,1,,,,,,,,,,,,,right,1,0.6004255282300619,,,,,1033,2019_Mar_07_1401,mf_amp_cond1,3.0.4,59.992361477233565,
ning,,&&&&,right,nonword,,,,,,,,,,,,,0,111,111,187,,,,,,,,,,,,,,,LDT,left,0.7171228287813847,,,,,,0,,,,,,,,,,,,,left,0,0.7171228287813847,,,,,1033,2019_Mar_07_1401,mf_amp_cond1,3.0.4,59.992361477233565,
