words,mask,corr_ans,category,nonwords,tweets,topic,LDT_prac_loop.thisRepN,LDT_prac_loop.thisTrialN,LDT_prac_loop.thisN,LDT_prac_loop.thisIndex,LDT_loop.thisRepN,LDT_loop.thisTrialN,LDT_loop.thisN,LDT_loop.thisIndex,AMP_pracloop.thisRepN,AMP_pracloop.thisTrialN,AMP_pracloop.thisN,AMP_pracloop.thisIndex,AMP_loop.thisRepN,AMP_loop.thisTrialN,AMP_loop.thisN,AMP_loop.thisIndex,tweet_loop.thisRepN,tweet_loop.thisTrialN,tweet_loop.thisN,tweet_loop.thisIndex,begin_key.keys,begin_key.rt,key_resp_AMP_instr1.keys,key_resp_AMP_instr1.rt,key_resp_LDT_instr.keys,key_resp_LDT_instr.rt,resp_LDT_prac.keys,resp_LDT_prac.rt,task,keypress,RT,corr,resp_LDT_ready.keys,resp_LDT_ready.rt,resp_LDT.keys,resp_LDT.corr,resp_LDT.rt,LDT_rating.response,LDT_rating.rt,resp_AMP_ready1.keys,resp_AMP_ready1.rt,resp_AMP_prac.keys,resp_AMP_prac.rt,resp_AMP_ready.keys,resp_AMP_ready.rt,resp_AMP.keys,resp_AMP.corr,resp_AMP.rt,AMP_nonword_rating.response,AMP_nonword_rating.rt,AMP_word_rating.response,AMP_word_rating.rt,AMP_random_rating.response,AMP_random_rating.rt,key_resp_LDT_instr_2.keys,key_resp_LDT_instr_2.rt,resp_tweets.keys,resp_tweets.rt,participant,date,expName,psychopyVersion,frameRate,
,,,,,,,,,,,,,,,,,,,,,,,,,,,right,295.3231453204609,,,,,,,,,,,,,,,,,,,,,,,,,,,,,,,,,,,,,1034,2019_Mar_07_1401,mf_amp_cond2,3.0.4,59.98326305097247,
,,,,,,,,,,,,,,,,,,,,,,,,,,,,,right,0.5337138363388476,,,,,,,,,,,,,,,,,,,,,,,,,,,,,,,,,,,1034,2019_Mar_07_1401,mf_amp_cond2,3.0.4,59.98326305097247,
,,,,,,,,,,,,,,,,,,,,,,,,,,,,,,,right,2.084111562044427,,,,,,,,,,,,,,,,,,,,,,,,,,,,,,,,,1034,2019_Mar_07_1401,mf_amp_cond2,3.0.4,59.98326305097247,
keyboard,&&&&&&&,,,,,,0,0,0,0,,,,,,,,,,,,,,,,,,,,,,,left,2.2841386308690517,LDT_prac,left,2.2841386308690517,0,,,,,,,,,,,,,,,,,,,,,,,,,,,1034,2019_Mar_07_1401,mf_amp_cond2,3.0.4,59.98326305097247,
bisebell,&&&&&&&,,,,,,0,1,1,1,,,,,,,,,,,,,,,,,,,,,,,left,1.9173717710643814,LDT_prac,left,1.9173717710643814,0,,,,,,,,,,,,,,,,,,,,,,,,,,,1034,2019_Mar_07_1401,mf_amp_cond2,3.0.4,59.98326305097247,
,,,,,,,,,,,,,,,,,,,,,,,,,,,,,,,,,,,,,,,right,1.9340543775484775,,,,,,,,,,,,,,,,,,,,,,,,,1034,2019_Mar_07_1401,mf_amp_cond2,3.0.4,59.98326305097247,
arrests,&&&&&&&,left,authority.vice,,,,,,,,0,0,0,20,,,,,,,,,,,,,,,,,,,,,LDT,right,2.3674868777136453,0,,,right,0,2.3674868777136453,,,,,,,,,,,,,,,,,,,,,,1034,2019_Mar_07_1401,mf_amp_cond2,3.0.4,59.98326305097247,
metibolic,&&&&&&&&&,right,nonword,,,,,,,,0,1,1,175,,,,,,,,,,,,,,,,,,,,,LDT,left,2.867649803815084,0,,,left,0,2.867649803815084,,,,,,,,,,,,,,,,,,,,,,1034,2019_Mar_07_1401,mf_amp_cond2,3.0.4,59.98326305097247,
somehow,&&&&&&&,left,neutral,,,,,,,,0,2,2,174,,,,,,,,,,,,,,,,,,,,,LDT,right,0.8004642752450764,0,,,right,0,0.8004642752450764,,,,,,,,,,,,,,,,,,,,,,1034,2019_Mar_07_1401,mf_amp_cond2,3.0.4,59.98326305097247,
seachwear,&&&&&&&&&,right,nonword,,,,,,,,0,3,3,148,,,,,,,,,,,,,,,,,,,,,LDT,right,2.9843340780467997,1,,,right,1,2.9843340780467997,,,,,,,,,,,,,,,,,,,,,,1034,2019_Mar_07_1401,mf_amp_cond2,3.0.4,59.98326305097247,
loyalty,&&&&&&&,left,loyalty.virtue,,,,,,,,0,4,4,17,,,,,,,,,,,,,,,,,,,,,LDT,right,0.8171077538070222,0,,,right,0,0.8171077538070222,,,,,,,,,,,,,,,,,,,,,,1034,2019_Mar_07_1401,mf_amp_cond2,3.0.4,59.98326305097247,
mecan,&&&&&,right,nonword,,,,,,,,0,5,5,130,,,,,,,,,,,,,,,,,,,,,LDT,left,2.25080933861625,0,,,left,0,2.25080933861625,,,,,,,,,,,,,,,,,,,,,,1034,2019_Mar_07_1401,mf_amp_cond2,3.0.4,59.98326305097247,
whither,&&&&&&&,left,neutral,,,,,,,,0,6,6,24,,,,,,,,,,,,,,,,,,,,,LDT,left,1.6839936009811254,1,,,left,1,1.6839936009811254,,,,,,,,,,,,,,,,,,,,,,1034,2019_Mar_07_1401,mf_amp_cond2,3.0.4,59.98326305097247,
injured,&&&&&&&,left,care.vice,,,,,,,,0,7,7,182,,,,,,,,,,,,,,,,,,,,,LDT,right,0.6170665732728366,0,,,right,0,0.6170665732728366,,,,,,,,,,,,,,,,,,,,,,1034,2019_Mar_07_1401,mf_amp_cond2,3.0.4,59.98326305097247,
Boeinf,&&&&&&,right,nonword,,,,,,,,0,8,8,134,,,,,,,,,,,,,,,,,,,,,LDT,left,2.2507705314149007,0,,,left,0,2.2507705314149007,,,,,,,,,,,,,,,,,,,,,,1034,2019_Mar_07_1401,mf_amp_cond2,3.0.4,59.98326305097247,
tislay,&&&&&&,right,nonword,,,,,,,,0,9,9,6,,,,,,,,,,,,,,,,,,,,,LDT,right,1.9007610060109528,1,,,right,1,1.9007610060109528,,,,,,,,,,,,,,,,,,,,,,1034,2019_Mar_07_1401,mf_amp_cond2,3.0.4,59.98326305097247,
strength,&&&&&&&&,left,sanctity.virtue,,,,,,,,0,10,10,107,,,,,,,,,,,,,,,,,,,,,LDT,right,0.6671050918255332,0,,,right,0,0.6671050918255332,,,,,,,,,,,,,,,,,,,,,,1034,2019_Mar_07_1401,mf_amp_cond2,3.0.4,59.98326305097247,
fifteen,&&&&&&&,left,neutral,,,,,,,,0,11,11,128,,,,,,,,,,,,,,,,,,,,,LDT,right,0.9337945938040093,0,,,right,0,0.9337945938040093,,,,,,,,,,,,,,,,,,,,,,1034,2019_Mar_07_1401,mf_amp_cond2,3.0.4,59.98326305097247,
myself,&&&&&&,left,neutral,,,,,,,,0,12,12,78,,,,,,,,,,,,,,,,,,,,,LDT,right,1.6506578943148043,0,,,right,0,1.6506578943148043,,,,,,,,,,,,,,,,,,,,,,1034,2019_Mar_07_1401,mf_amp_cond2,3.0.4,59.98326305097247,
shoirmaster,&&&&&&&&&&&,right,nonword,,,,,,,,0,13,13,14,,,,,,,,,,,,,,,,,,,,,LDT,right,4.401344396913714,1,,,right,1,4.401344396913714,,,,,,,,,,,,,,,,,,,,,,1034,2019_Mar_07_1401,mf_amp_cond2,3.0.4,59.98326305097247,
Phintoism,&&&&&&&&&,right,nonword,,,,,,,,0,14,14,83,,,,,,,,,,,,,,,,,,,,,LDT,left,1.6339804193614782,0,,,left,0,1.6339804193614782,,,,,,,,,,,,,,,,,,,,,,1034,2019_Mar_07_1401,mf_amp_cond2,3.0.4,59.98326305097247,
sowntrodden,&&&&&&&&&&&,right,nonword,,,,,,,,0,15,15,171,,,,,,,,,,,,,,,,,,,,,LDT,left,2.567553715901795,0,,,left,0,2.567553715901795,,,,,,,,,,,,,,,,,,,,,,1034,2019_Mar_07_1401,mf_amp_cond2,3.0.4,59.98326305097247,
amount,&&&&&&,left,neutral,,,,,,,,0,16,16,137,,,,,,,,,,,,,,,,,,,,,LDT,right,0.7004135372347946,0,,,right,0,0.7004135372347946,,,,,,,,,,,,,,,,,,,,,,1034,2019_Mar_07_1401,mf_amp_cond2,3.0.4,59.98326305097247,
victims,&&&&&&&,left,care.vice,,,,,,,,0,17,17,162,,,,,,,,,,,,,,,,,,,,,LDT,right,1.0338251264120117,0,,,right,0,1.0338251264120117,,,,,,,,,,,,,,,,,,,,,,1034,2019_Mar_07_1401,mf_amp_cond2,3.0.4,59.98326305097247,
erdest,&&&&&&,right,nonword,,,,,,,,0,18,18,60,,,,,,,,,,,,,,,,,,,,,LDT,left,1.0838116882159738,0,,,left,0,1.0838116882159738,,,,,,,,,,,,,,,,,,,,,,1034,2019_Mar_07_1401,mf_amp_cond2,3.0.4,59.98326305097247,
death,&&&&&,left,care.vice,,,,,,,,0,19,19,147,,,,,,,,,,,,,,,,,,,,,LDT,right,0.650396506967013,0,,,right,0,0.650396506967013,,,,,,,,,,,,,,,,,,,,,,1034,2019_Mar_07_1401,mf_amp_cond2,3.0.4,59.98326305097247,
officers,&&&&&&&&,left,authority.vice,,,,,,,,0,20,20,160,,,,,,,,,,,,,,,,,,,,,LDT,right,1.4672755869348748,0,,,right,0,1.4672755869348748,,,,,,,,,,,,,,,,,,,,,,1034,2019_Mar_07_1401,mf_amp_cond2,3.0.4,59.98326305097247,
prones,&&&&&&,right,nonword,,,,,,,,0,21,21,179,,,,,,,,,,,,,,,,,,,,,LDT,left,1.9507382669152094,0,,,left,0,1.9507382669152094,,,,,,,,,,,,,,,,,,,,,,1034,2019_Mar_07_1401,mf_amp_cond2,3.0.4,59.98326305097247,
troops,&&&&&&,left,loyalty.vice,,,,,,,,0,22,22,102,,,,,,,,,,,,,,,,,,,,,LDT,right,1.6339794571995299,0,,,right,0,1.6339794571995299,,,,,,,,,,,,,,,,,,,,,,1034,2019_Mar_07_1401,mf_amp_cond2,3.0.4,59.98326305097247,
praise,&&&&&&,left,authority.virtue,,,,,,,,0,23,23,57,,,,,,,,,,,,,,,,,,,,,LDT,right,1.4672823220690816,0,,,right,0,1.4672823220690816,,,,,,,,,,,,,,,,,,,,,,1034,2019_Mar_07_1401,mf_amp_cond2,3.0.4,59.98326305097247,
whereafter,&&&&&&&&&&,left,neutral,,,,,,,,0,24,24,125,,,,,,,,,,,,,,,,,,,,,LDT,left,3.234378818580467,1,,,left,1,3.234378818580467,,,,,,,,,,,,,,,,,,,,,,1034,2019_Mar_07_1401,mf_amp_cond2,3.0.4,59.98326305097247,
sickyay,&&&&&&&,right,nonword,,,,,,,,0,25,25,106,,,,,,,,,,,,,,,,,,,,,LDT,left,1.5173195577390288,0,,,left,0,1.5173195577390288,,,,,,,,,,,,,,,,,,,,,,1034,2019_Mar_07_1401,mf_amp_cond2,3.0.4,59.98326305097247,
promises,&&&&&&&&,left,fairness.virtue,,,,,,,,0,26,26,104,,,,,,,,,,,,,,,,,,,,,LDT,right,2.1507714294327798,0,,,right,0,2.1507714294327798,,,,,,,,,,,,,,,,,,,,,,1034,2019_Mar_07_1401,mf_amp_cond2,3.0.4,59.98326305097247,
tenuflect,&&&&&&&&&,right,nonword,,,,,,,,0,27,27,84,,,,,,,,,,,,,,,,,,,,,LDT,right,1.3172354006345586,1,,,right,1,1.3172354006345586,,,,,,,,,,,,,,,,,,,,,,1034,2019_Mar_07_1401,mf_amp_cond2,3.0.4,59.98326305097247,
chressing,&&&&&&&&&,None,nonword,,,,,,,,0,28,28,197,,,,,,,,,,,,,,,,,,,,,LDT,right,2.2674803991561703,0,,,right,0,2.2674803991561703,,,,,,,,,,,,,,,,,,,,,,1034,2019_Mar_07_1401,mf_amp_cond2,3.0.4,59.98326305097247,
gournful,&&&&&&&&,right,nonword,,,,,,,,0,29,29,103,,,,,,,,,,,,,,,,,,,,,LDT,right,4.418005835833355,1,,,right,1,4.418005835833355,,,,,,,,,,,,,,,,,,,,,,1034,2019_Mar_07_1401,mf_amp_cond2,3.0.4,59.98326305097247,
nonobservalt,&&&&&&&&&&&&,right,nonword,,,,,,,,0,30,30,135,,,,,,,,,,,,,,,,,,,,,LDT,left,3.36778065784938,0,,,left,0,3.36778065784938,,,,,,,,,,,,,,,,,,,,,,1034,2019_Mar_07_1401,mf_amp_cond2,3.0.4,59.98326305097247,
squets,&&&&&&,right,nonword,,,,,,,,0,31,31,44,,,,,,,,,,,,,,,,,,,,,LDT,right,0.950468540830002,1,,,right,1,0.950468540830002,,,,,,,,,,,,,,,,,,,,,,1034,2019_Mar_07_1401,mf_amp_cond2,3.0.4,59.98326305097247,
honored,&&&&&&&,left,authority.virtue,,,,,,,,0,32,32,156,,,,,,,,,,,,,,,,,,,,,LDT,right,1.2505611008159576,0,,,right,0,1.2505611008159576,,,,,,,,,,,,,,,,,,,,,,1034,2019_Mar_07_1401,mf_amp_cond2,3.0.4,59.98326305097247,
fear,&&&&,left,sanctity.vice,,,,,,,,0,33,33,192,,,,,,,,,,,,,,,,,,,,,LDT,right,0.833790039570431,0,,,right,0,0.833790039570431,,,,,,,,,,,,,,,,,,,,,,1034,2019_Mar_07_1401,mf_amp_cond2,3.0.4,59.98326305097247,
been,&&&&,left,neutral,,,,,,,,0,34,34,140,,,,,,,,,,,,,,,,,,,,,LDT,right,0.6837527397563008,0,,,right,0,0.6837527397563008,,,,,,,,,,,,,,,,,,,,,,1034,2019_Mar_07_1401,mf_amp_cond2,3.0.4,59.98326305097247,
precificity,&&&&&&&&&&&,right,nonword,,,,,,,,0,35,35,49,,,,,,,,,,,,,,,,,,,,,LDT,left,1.4839469681954824,0,,,left,0,1.4839469681954824,,,,,,,,,,,,,,,,,,,,,,1034,2019_Mar_07_1401,mf_amp_cond2,3.0.4,59.98326305097247,
each,&&&&,left,neutral,,,,,,,,0,36,36,98,,,,,,,,,,,,,,,,,,,,,LDT,right,0.6837591541697066,0,,,right,0,0.6837591541697066,,,,,,,,,,,,,,,,,,,,,,1034,2019_Mar_07_1401,mf_amp_cond2,3.0.4,59.98326305097247,
festate,&&&&&&&,right,nonword,,,,,,,,0,37,37,122,,,,,,,,,,,,,,,,,,,,,LDT,left,0.8337740035369734,0,,,left,0,0.8337740035369734,,,,,,,,,,,,,,,,,,,,,,1034,2019_Mar_07_1401,mf_amp_cond2,3.0.4,59.98326305097247,
rivernoat,&&&&&&&&&,right,nonword,,,,,,,,0,38,38,126,,,,,,,,,,,,,,,,,,,,,LDT,right,0.8504687974066201,1,,,right,1,0.8504687974066201,,,,,,,,,,,,,,,,,,,,,,1034,2019_Mar_07_1401,mf_amp_cond2,3.0.4,59.98326305097247,
although,&&&&&&&&,left,neutral,,,,,,,,0,39,39,169,,,,,,,,,,,,,,,,,,,,,LDT,right,1.6506630258455743,0,,,right,0,1.6506630258455743,,,,,,,,,,,,,,,,,,,,,,1034,2019_Mar_07_1401,mf_amp_cond2,3.0.4,59.98326305097247,
hence,&&&&&,left,neutral,,,,,,,,0,40,40,118,,,,,,,,,,,,,,,,,,,,,LDT,right,1.300563698653491,0,,,right,0,1.300563698653491,,,,,,,,,,,,,,,,,,,,,,1034,2019_Mar_07_1401,mf_amp_cond2,3.0.4,59.98326305097247,
were,&&&&,left,neutral,,,,,,,,0,41,41,159,,,,,,,,,,,,,,,,,,,,,LDT,right,0.9838177177645093,0,,,right,0,0.9838177177645093,,,,,,,,,,,,,,,,,,,,,,1034,2019_Mar_07_1401,mf_amp_cond2,3.0.4,59.98326305097247,
police,&&&&&&,left,authority.vice,,,,,,,,0,42,42,36,,,,,,,,,,,,,,,,,,,,,LDT,right,0.750439226960566,0,,,right,0,0.750439226960566,,,,,,,,,,,,,,,,,,,,,,1034,2019_Mar_07_1401,mf_amp_cond2,3.0.4,59.98326305097247,
troubla,&&&&&&&,right,nonword,,,,,,,,0,43,43,186,,,,,,,,,,,,,,,,,,,,,LDT,right,0.7170801076852058,1,,,right,1,0.7170801076852058,,,,,,,,,,,,,,,,,,,,,,1034,2019_Mar_07_1401,mf_amp_cond2,3.0.4,59.98326305097247,
reelectiob,&&&&&&&&&&,right,nonword,,,,,,,,0,44,44,138,,,,,,,,,,,,,,,,,,,,,LDT,left,0.7504228702063074,0,,,left,0,0.7504228702063074,,,,,,,,,,,,,,,,,,,,,,1034,2019_Mar_07_1401,mf_amp_cond2,3.0.4,59.98326305097247,
thabbily,&&&&&&&&,right,nonword,,,,,,,,0,45,45,152,,,,,,,,,,,,,,,,,,,,,LDT,right,1.800688458994955,1,,,right,1,1.800688458994955,,,,,,,,,,,,,,,,,,,,,,1034,2019_Mar_07_1401,mf_amp_cond2,3.0.4,59.98326305097247,
viscs,&&&&&,None,nonword,,,,,,,,0,46,46,115,,,,,,,,,,,,,,,,,,,,,LDT,right,0.9338122334410173,0,,,right,0,0.9338122334410173,,,,,,,,,,,,,,,,,,,,,,1034,2019_Mar_07_1401,mf_amp_cond2,3.0.4,59.98326305097247,
fifty,&&&&&,left,neutral,,,,,,,,0,47,47,178,,,,,,,,,,,,,,,,,,,,,LDT,right,0.667068850389569,0,,,right,0,0.667068850389569,,,,,,,,,,,,,,,,,,,,,,1034,2019_Mar_07_1401,mf_amp_cond2,3.0.4,59.98326305097247,
pumber,&&&&&&,None,nonword,,,,,,,,0,48,48,123,,,,,,,,,,,,,,,,,,,,,LDT,right,1.0171598388442362,0,,,right,0,1.0171598388442362,,,,,,,,,,,,,,,,,,,,,,1034,2019_Mar_07_1401,mf_amp_cond2,3.0.4,59.98326305097247,
forty,&&&&&,left,neutral,,,,,,,,0,49,49,190,,,,,,,,,,,,,,,,,,,,,LDT,right,0.7504328125470465,0,,,right,0,0.7504328125470465,,,,,,,,,,,,,,,,,,,,,,1034,2019_Mar_07_1401,mf_amp_cond2,3.0.4,59.98326305097247,
pescinded,&&&&&&&&&,right,nonword,,,,,,,,0,50,50,69,,,,,,,,,,,,,,,,,,,,,LDT,left,1.233909924957743,0,,,left,0,1.233909924957743,,,,,,,,,,,,,,,,,,,,,,1034,2019_Mar_07_1401,mf_amp_cond2,3.0.4,59.98326305097247,
gusinesslike,&&&&&&&&&&&&,right,nonword,,,,,,,,0,51,51,19,,,,,,,,,,,,,,,,,,,,,LDT,right,1.2839439534210442,1,,,right,1,1.2839439534210442,,,,,,,,,,,,,,,,,,,,,,1034,2019_Mar_07_1401,mf_amp_cond2,3.0.4,59.98326305097247,
hate,&&&&,left,fairness.vice,,,,,,,,0,52,52,196,,,,,,,,,,,,,,,,,,,,,LDT,right,0.5836927008465409,0,,,right,0,0.5836927008465409,,,,,,,,,,,,,,,,,,,,,,1034,2019_Mar_07_1401,mf_amp_cond2,3.0.4,59.98326305097247,
anything,&&&&&&&&,left,neutral,,,,,,,,0,53,53,58,,,,,,,,,,,,,,,,,,,,,LDT,right,0.9338026118208518,0,,,right,0,0.9338026118208518,,,,,,,,,,,,,,,,,,,,,,1034,2019_Mar_07_1401,mf_amp_cond2,3.0.4,59.98326305097247,
front,&&&&&,left,neutral,,,,,,,,0,54,54,142,,,,,,,,,,,,,,,,,,,,,LDT,right,0.9338285901952759,0,,,right,0,0.9338285901952759,,,,,,,,,,,,,,,,,,,,,,1034,2019_Mar_07_1401,mf_amp_cond2,3.0.4,59.98326305097247,
compassion,&&&&&&&&&&,left,care.virtue,,,,,,,,0,55,55,95,,,,,,,,,,,,,,,,,,,,,LDT,right,0.8671132381306279,0,,,right,0,0.8671132381306279,,,,,,,,,,,,,,,,,,,,,,1034,2019_Mar_07_1401,mf_amp_cond2,3.0.4,59.98326305097247,
strofe,&&&&&&,right,nonword,,,,,,,,0,56,56,170,,,,,,,,,,,,,,,,,,,,,LDT,right,1.7506954827775871,1,,,right,1,1.7506954827775871,,,,,,,,,,,,,,,,,,,,,,1034,2019_Mar_07_1401,mf_amp_cond2,3.0.4,59.98326305097247,
failure,&&&&&&&,left,loyalty.vice,,,,,,,,0,57,57,158,,,,,,,,,,,,,,,,,,,,,LDT,right,1.3672569209917356,0,,,right,0,1.3672569209917356,,,,,,,,,,,,,,,,,,,,,,1034,2019_Mar_07_1401,mf_amp_cond2,3.0.4,59.98326305097247,
done,&&&&,left,neutral,,,,,,,,0,58,58,117,,,,,,,,,,,,,,,,,,,,,LDT,right,0.68374375957751,0,,,right,0,0.68374375957751,,,,,,,,,,,,,,,,,,,,,,1034,2019_Mar_07_1401,mf_amp_cond2,3.0.4,59.98326305097247,
mostly,&&&&&&,left,neutral,,,,,,,,0,59,59,8,,,,,,,,,,,,,,,,,,,,,LDT,right,1.0838395909142946,0,,,right,0,1.0838395909142946,,,,,,,,,,,,,,,,,,,,,,1034,2019_Mar_07_1401,mf_amp_cond2,3.0.4,59.98326305097247,
perified,&&&&&&&&,right,nonword,,,,,,,,0,60,60,167,,,,,,,,,,,,,,,,,,,,,LDT,right,0.916995565715979,1,,,right,1,0.916995565715979,,,,,,,,,,,,,,,,,,,,,,1034,2019_Mar_07_1401,mf_amp_cond2,3.0.4,59.98326305097247,
credit,&&&&&&,left,fairness.virtue,,,,,,,,0,61,61,194,,,,,,,,,,,,,,,,,,,,,LDT,right,1.1672038737925732,0,,,right,0,1.1672038737925732,,,,,,,,,,,,,,,,,,,,,,1034,2019_Mar_07_1401,mf_amp_cond2,3.0.4,59.98326305097247,
divility,&&&&&&&&,right,nonword,,,,,,,,0,62,62,124,,,,,,,,,,,,,,,,,,,,,LDT,left,0.9504816903775009,0,,,left,0,0.9504816903775009,,,,,,,,,,,,,,,,,,,,,,1034,2019_Mar_07_1401,mf_amp_cond2,3.0.4,59.98326305097247,
fontacts,&&&&&&&&,right,nonword,,,,,,,,0,63,63,119,,,,,,,,,,,,,,,,,,,,,LDT,right,0.6837578712870709,1,,,right,1,0.6837578712870709,,,,,,,,,,,,,,,,,,,,,,1034,2019_Mar_07_1401,mf_amp_cond2,3.0.4,59.98326305097247,
dormandi,&&&&&&&&,None,nonword,,,,,,,,0,64,64,70,,,,,,,,,,,,,,,,,,,,,LDT,left,0.8171269970473531,0,,,left,0,0.8171269970473531,,,,,,,,,,,,,,,,,,,,,,1034,2019_Mar_07_1401,mf_amp_cond2,3.0.4,59.98326305097247,
anyhow,&&&&&&,left,neutral,,,,,,,,0,65,65,7,,,,,,,,,,,,,,,,,,,,,LDT,right,0.6337369923712686,0,,,right,0,0.6337369923712686,,,,,,,,,,,,,,,,,,,,,,1034,2019_Mar_07_1401,mf_amp_cond2,3.0.4,59.98326305097247,
thru,&&&&,left,neutral,,,,,,,,0,66,66,97,,,,,,,,,,,,,,,,,,,,,LDT,right,0.767095534349437,0,,,right,0,0.767095534349437,,,,,,,,,,,,,,,,,,,,,,1034,2019_Mar_07_1401,mf_amp_cond2,3.0.4,59.98326305097247,
gun,&&&,left,authority.vice,,,,,,,,0,67,67,110,,,,,,,,,,,,,,,,,,,,,LDT,right,0.8837817329051632,0,,,right,0,0.8837817329051632,,,,,,,,,,,,,,,,,,,,,,1034,2019_Mar_07_1401,mf_amp_cond2,3.0.4,59.98326305097247,
latter,&&&&&&,left,neutral,,,,,,,,0,68,68,114,,,,,,,,,,,,,,,,,,,,,LDT,right,1.3672755227906919,0,,,right,0,1.3672755227906919,,,,,,,,,,,,,,,,,,,,,,1034,2019_Mar_07_1401,mf_amp_cond2,3.0.4,59.98326305097247,
seem,&&&&,left,neutral,,,,,,,,0,69,69,133,,,,,,,,,,,,,,,,,,,,,LDT,right,0.7337566204764698,0,,,right,0,0.7337566204764698,,,,,,,,,,,,,,,,,,,,,,1034,2019_Mar_07_1401,mf_amp_cond2,3.0.4,59.98326305097247,
friends,&&&&&&&,left,loyalty.virtue,,,,,,,,0,70,70,86,,,,,,,,,,,,,,,,,,,,,LDT,right,1.483939912340702,0,,,right,0,1.483939912340702,,,,,,,,,,,,,,,,,,,,,,1034,2019_Mar_07_1401,mf_amp_cond2,3.0.4,59.98326305097247,
iptervention,&&&&&&&&&&&&,right,nonword,,,,,,,,0,71,71,41,,,,,,,,,,,,,,,,,,,,,LDT,right,1.4839408745026503,1,,,right,1,1.4839408745026503,,,,,,,,,,,,,,,,,,,,,,1034,2019_Mar_07_1401,mf_amp_cond2,3.0.4,59.98326305097247,
integrity,&&&&&&&&&,left,fairness.virtue,,,,,,,,0,72,72,166,,,,,,,,,,,,,,,,,,,,,LDT,right,1.1505421141522447,0,,,right,0,1.1505421141522447,,,,,,,,,,,,,,,,,,,,,,1034,2019_Mar_07_1401,mf_amp_cond2,3.0.4,59.98326305097247,
sexual,&&&&&&,left,sanctity.vice,,,,,,,,0,73,73,93,,,,,,,,,,,,,,,,,,,,,LDT,left,5.001485257432819,1,,,left,1,5.001485257432819,,,,,,,,,,,,,,,,,,,,,,1034,2019_Mar_07_1401,mf_amp_cond2,3.0.4,59.98326305097247,
hatigue,&&&&&&&,right,nonword,,,,,,,,0,74,74,67,,,,,,,,,,,,,,,,,,,,,LDT,left,2.684235424368012,0,,,left,0,2.684235424368012,,,,,,,,,,,,,,,,,,,,,,1034,2019_Mar_07_1401,mf_amp_cond2,3.0.4,59.98326305097247,
conspiracy,&&&&&&&&&&,left,sanctity.vice,,,,,,,,0,75,75,33,,,,,,,,,,,,,,,,,,,,,LDT,right,1.2005328453248012,0,,,right,0,1.2005328453248012,,,,,,,,,,,,,,,,,,,,,,1034,2019_Mar_07_1401,mf_amp_cond2,3.0.4,59.98326305097247,
infet,&&&&&,right,nonword,,,,,,,,0,76,76,65,,,,,,,,,,,,,,,,,,,,,LDT,right,1.6673225404413188,1,,,right,1,1.6673225404413188,,,,,,,,,,,,,,,,,,,,,,1034,2019_Mar_07_1401,mf_amp_cond2,3.0.4,59.98326305097247,
hescribe,&&&&&&&&,right,nonword,,,,,,,,0,77,77,143,,,,,,,,,,,,,,,,,,,,,LDT,right,1.0672038096483902,1,,,right,1,1.0672038096483902,,,,,,,,,,,,,,,,,,,,,,1034,2019_Mar_07_1401,mf_amp_cond2,3.0.4,59.98326305097247,
Daptist,&&&&&&&,right,nonword,,,,,,,,0,78,78,111,,,,,,,,,,,,,,,,,,,,,LDT,right,1.2005427876655403,1,,,right,1,1.2005427876655403,,,,,,,,,,,,,,,,,,,,,,1034,2019_Mar_07_1401,mf_amp_cond2,3.0.4,59.98326305097247,
drumbled,&&&&&&&&,right,nonword,,,,,,,,0,79,79,144,,,,,,,,,,,,,,,,,,,,,LDT,right,1.2505399332516163,1,,,right,1,1.2505399332516163,,,,,,,,,,,,,,,,,,,,,,1034,2019_Mar_07_1401,mf_amp_cond2,3.0.4,59.98326305097247,
even,&&&&,left,neutral,,,,,,,,0,80,80,71,,,,,,,,,,,,,,,,,,,,,LDT,right,1.4839325357652342,0,,,right,0,1.4839325357652342,,,,,,,,,,,,,,,,,,,,,,1034,2019_Mar_07_1401,mf_amp_cond2,3.0.4,59.98326305097247,
ebbitter,&&&&&&&&,right,nonword,,,,,,,,0,81,81,52,,,,,,,,,,,,,,,,,,,,,LDT,right,1.0505083743374826,1,,,right,1,1.0505083743374826,,,,,,,,,,,,,,,,,,,,,,1034,2019_Mar_07_1401,mf_amp_cond2,3.0.4,59.98326305097247,
gazily,&&&&&&,right,nonword,,,,,,,,0,82,82,54,,,,,,,,,,,,,,,,,,,,,LDT,left,1.650646027649941,0,,,left,0,1.650646027649941,,,,,,,,,,,,,,,,,,,,,,1034,2019_Mar_07_1401,mf_amp_cond2,3.0.4,59.98326305097247,
openet,&&&&&&,None,nonword,,,,,,,,0,83,83,164,,,,,,,,,,,,,,,,,,,,,LDT,left,2.717589412112602,0,,,left,0,2.717589412112602,,,,,,,,,,,,,,,,,,,,,,1034,2019_Mar_07_1401,mf_amp_cond2,3.0.4,59.98326305097247,
violence,&&&&&&&&,left,care.vice,,,,,,,,0,84,84,16,,,,,,,,,,,,,,,,,,,,,LDT,left,1.9840678798889257,1,,,left,1,1.9840678798889257,,,,,,,,,,,,,,,,,,,,,,1034,2019_Mar_07_1401,mf_amp_cond2,3.0.4,59.98326305097247,
abuse,&&&&&,left,sanctity.vice,,,,,,,,0,85,85,39,,,,,,,,,,,,,,,,,,,,,LDT,right,2.3174874870829854,0,,,right,0,2.3174874870829854,,,,,,,,,,,,,,,,,,,,,,1034,2019_Mar_07_1401,mf_amp_cond2,3.0.4,59.98326305097247,
also,&&&&,left,neutral,,,,,,,,0,86,86,9,,,,,,,,,,,,,,,,,,,,,LDT,right,1.000484929656409,0,,,right,0,1.000484929656409,,,,,,,,,,,,,,,,,,,,,,1034,2019_Mar_07_1401,mf_amp_cond2,3.0.4,59.98326305097247,
noone,&&&&&,left,neutral,,,,,,,,0,87,87,1,,,,,,,,,,,,,,,,,,,,,LDT,left,1.9507244759263358,1,,,left,1,1.9507244759263358,,,,,,,,,,,,,,,,,,,,,,1034,2019_Mar_07_1401,mf_amp_cond2,3.0.4,59.98326305097247,
Lacedonia,&&&&&&&&&,right,nonword,,,,,,,,0,88,88,51,,,,,,,,,,,,,,,,,,,,,LDT,left,1.5172817126996279,0,,,left,0,1.5172817126996279,,,,,,,,,,,,,,,,,,,,,,1034,2019_Mar_07_1401,mf_amp_cond2,3.0.4,59.98326305097247,
commitment,&&&&&&&&&&,left,sanctity.virtue,,,,,,,,0,89,89,74,,,,,,,,,,,,,,,,,,,,,LDT,right,0.8504431397527696,0,,,right,0,0.8504431397527696,,,,,,,,,,,,,,,,,,,,,,1034,2019_Mar_07_1401,mf_amp_cond2,3.0.4,59.98326305097247,
chared,&&&&&&,right,nonword,,,,,,,,0,90,90,113,,,,,,,,,,,,,,,,,,,,,LDT,right,0.8837852608324965,1,,,right,1,0.8837852608324965,,,,,,,,,,,,,,,,,,,,,,1034,2019_Mar_07_1401,mf_amp_cond2,3.0.4,59.98326305097247,
gandbrake,&&&&&&&&&,right,nonword,,,,,,,,0,91,91,96,,,,,,,,,,,,,,,,,,,,,LDT,right,0.8838045040729412,1,,,right,1,0.8838045040729412,,,,,,,,,,,,,,,,,,,,,,1034,2019_Mar_07_1401,mf_amp_cond2,3.0.4,59.98326305097247,
promised,&&&&&&&&,left,loyalty.virtue,,,,,,,,0,92,92,100,,,,,,,,,,,,,,,,,,,,,LDT,right,1.4672675689180323,0,,,right,0,1.4672675689180323,,,,,,,,,,,,,,,,,,,,,,1034,2019_Mar_07_1401,mf_amp_cond2,3.0.4,59.98326305097247,
tracious,&&&&&&&&,right,nonword,,,,,,,,0,93,93,99,,,,,,,,,,,,,,,,,,,,,LDT,right,0.7337508475043251,1,,,right,1,0.7337508475043251,,,,,,,,,,,,,,,,,,,,,,1034,2019_Mar_07_1401,mf_amp_cond2,3.0.4,59.98326305097247,
ecgagement,&&&&&&&&&&,None,nonword,,,,,,,,0,94,94,37,,,,,,,,,,,,,,,,,,,,,LDT,right,1.017147330738112,0,,,right,0,1.017147330738112,,,,,,,,,,,,,,,,,,,,,,1034,2019_Mar_07_1401,mf_amp_cond2,3.0.4,59.98326305097247,
lempestuous,&&&&&&&&&&&,right,nonword,,,,,,,,0,95,95,136,,,,,,,,,,,,,,,,,,,,,LDT,right,0.9671527509174211,1,,,right,1,0.9671527509174211,,,,,,,,,,,,,,,,,,,,,,1034,2019_Mar_07_1401,mf_amp_cond2,3.0.4,59.98326305097247,
give,&&&&,left,neutral,,,,,,,,0,96,96,173,,,,,,,,,,,,,,,,,,,,,LDT,right,0.6504074114699279,0,,,right,0,0.6504074114699279,,,,,,,,,,,,,,,,,,,,,,1034,2019_Mar_07_1401,mf_amp_cond2,3.0.4,59.98326305097247,
juck,&&&&,right,nonword,,,,,,,,0,97,97,176,,,,,,,,,,,,,,,,,,,,,LDT,right,0.6837370244434169,1,,,right,1,0.6837370244434169,,,,,,,,,,,,,,,,,,,,,,1034,2019_Mar_07_1401,mf_amp_cond2,3.0.4,59.98326305097247,
proached,&&&&&&&&,right,nonword,,,,,,,,0,98,98,129,,,,,,,,,,,,,,,,,,,,,LDT,right,1.1338745815396578,1,,,right,1,1.1338745815396578,,,,,,,,,,,,,,,,,,,,,,1034,2019_Mar_07_1401,mf_amp_cond2,3.0.4,59.98326305097247,
neneficence,&&&&&&&&&&&,right,nonword,,,,,,,,0,99,99,72,,,,,,,,,,,,,,,,,,,,,LDT,left,1.4672800770242702,0,,,left,0,1.4672800770242702,,,,,,,,,,,,,,,,,,,,,,1034,2019_Mar_07_1401,mf_amp_cond2,3.0.4,59.98326305097247,
less,&&&&,left,neutral,,,,,,,,0,100,100,11,,,,,,,,,,,,,,,,,,,,,LDT,right,0.6670743026410264,0,,,right,0,0.6670743026410264,,,,,,,,,,,,,,,,,,,,,,1034,2019_Mar_07_1401,mf_amp_cond2,3.0.4,59.98326305097247,
chonograph,&&&&&&&&&&,right,nonword,,,,,,,,0,101,101,35,,,,,,,,,,,,,,,,,,,,,LDT,left,0.9504823318188755,0,,,left,0,0.9504823318188755,,,,,,,,,,,,,,,,,,,,,,1034,2019_Mar_07_1401,mf_amp_cond2,3.0.4,59.98326305097247,
smapper,&&&&&&&,right,nonword,,,,,,,,0,102,102,183,,,,,,,,,,,,,,,,,,,,,LDT,right,2.2674803991561703,1,,,right,1,2.2674803991561703,,,,,,,,,,,,,,,,,,,,,,1034,2019_Mar_07_1401,mf_amp_cond2,3.0.4,59.98326305097247,
drug,&&&&,left,sanctity.vice,,,,,,,,0,103,103,12,,,,,,,,,,,,,,,,,,,,,LDT,right,0.9171273819122234,0,,,right,0,0.9171273819122234,,,,,,,,,,,,,,,,,,,,,,1034,2019_Mar_07_1401,mf_amp_cond2,3.0.4,59.98326305097247,
accused,&&&&&&&,left,fairness.vice,,,,,,,,0,104,104,127,,,,,,,,,,,,,,,,,,,,,LDT,right,1.367243771444123,0,,,right,0,1.367243771444123,,,,,,,,,,,,,,,,,,,,,,1034,2019_Mar_07_1401,mf_amp_cond2,3.0.4,59.98326305097247,
presentkess,&&&&&&&&&&&,right,nonword,,,,,,,,0,105,105,30,,,,,,,,,,,,,,,,,,,,,LDT,right,1.333914799911895,1,,,right,1,1.333914799911895,,,,,,,,,,,,,,,,,,,,,,1034,2019_Mar_07_1401,mf_amp_cond2,3.0.4,59.98326305097247,
ablow,&&&&&,right,nonword,,,,,,,,0,106,106,109,,,,,,,,,,,,,,,,,,,,,LDT,right,1.200544391268977,1,,,right,1,1.200544391268977,,,,,,,,,,,,,,,,,,,,,,1034,2019_Mar_07_1401,mf_amp_cond2,3.0.4,59.98326305097247,
fegard,&&&&&&,right,nonword,,,,,,,,0,107,107,55,,,,,,,,,,,,,,,,,,,,,LDT,left,1.8673730218749824,0,,,left,0,1.8673730218749824,,,,,,,,,,,,,,,,,,,,,,1034,2019_Mar_07_1401,mf_amp_cond2,3.0.4,59.98326305097247,
simplustic,&&&&&&&&&&,right,nonword,,,,,,,,0,108,108,48,,,,,,,,,,,,,,,,,,,,,LDT,right,2.9509839389502304,1,,,right,1,2.9509839389502304,,,,,,,,,,,,,,,,,,,,,,1034,2019_Mar_07_1401,mf_amp_cond2,3.0.4,59.98326305097247,
celebrated,&&&&&&&&&&,left,authority.virtue,,,,,,,,0,109,109,168,,,,,,,,,,,,,,,,,,,,,LDT,right,3.0176627288582267,0,,,right,0,3.0176627288582267,,,,,,,,,,,,,,,,,,,,,,1034,2019_Mar_07_1401,mf_amp_cond2,3.0.4,59.98326305097247,
reviked,&&&&&&&,right,nonword,,,,,,,,0,110,110,155,,,,,,,,,,,,,,,,,,,,,LDT,right,2.2840934092544103,1,,,right,1,2.2840934092544103,,,,,,,,,,,,,,,,,,,,,,1034,2019_Mar_07_1401,mf_amp_cond2,3.0.4,59.98326305097247,
imebreaker,&&&&&&&&&&,right,nonword,,,,,,,,0,111,111,68,,,,,,,,,,,,,,,,,,,,,LDT,left,3.517790375685763,0,,,left,0,3.517790375685763,,,,,,,,,,,,,,,,,,,,,,1034,2019_Mar_07_1401,mf_amp_cond2,3.0.4,59.98326305097247,
reprisols,&&&&&&&&&,right,nonword,,,,,,,,0,112,112,46,,,,,,,,,,,,,,,,,,,,,LDT,right,1.717342136474258,1,,,right,1,1.717342136474258,,,,,,,,,,,,,,,,,,,,,,1034,2019_Mar_07_1401,mf_amp_cond2,3.0.4,59.98326305097247,
attacks,&&&&&&&,left,care.vice,,,,,,,,0,113,113,149,,,,,,,,,,,,,,,,,,,,,LDT,right,2.884301621114787,0,,,right,0,2.884301621114787,,,,,,,,,,,,,,,,,,,,,,1034,2019_Mar_07_1401,mf_amp_cond2,3.0.4,59.98326305097247,
amoungst,&&&&&&&&,left,neutral,,,,,,,,0,114,114,22,,,,,,,,,,,,,,,,,,,,,LDT,right,0.8838160500170034,0,,,right,0,0.8838160500170034,,,,,,,,,,,,,,,,,,,,,,1034,2019_Mar_07_1401,mf_amp_cond2,3.0.4,59.98326305097247,
scock,&&&&&,right,nonword,,,,,,,,0,115,115,38,,,,,,,,,,,,,,,,,,,,,LDT,right,0.5836872485951972,1,,,right,1,0.5836872485951972,,,,,,,,,,,,,,,,,,,,,,1034,2019_Mar_07_1401,mf_amp_cond2,3.0.4,59.98326305097247,
greaks,&&&&&&,right,nonword,,,,,,,,0,116,116,25,,,,,,,,,,,,,,,,,,,,,LDT,right,0.7504437170500751,1,,,right,1,0.7504437170500751,,,,,,,,,,,,,,,,,,,,,,1034,2019_Mar_07_1401,mf_amp_cond2,3.0.4,59.98326305097247,
brotesque,&&&&&&&&&,right,nonword,,,,,,,,0,117,117,185,,,,,,,,,,,,,,,,,,,,,LDT,right,0.9171200053367556,1,,,right,1,0.9171200053367556,,,,,,,,,,,,,,,,,,,,,,1034,2019_Mar_07_1401,mf_amp_cond2,3.0.4,59.98326305097247,
counpy's,&&&&&&&&,right,nonword,,,,,,,,0,118,118,75,,,,,,,,,,,,,,,,,,,,,LDT,right,1.083861720640698,1,,,right,1,1.083861720640698,,,,,,,,,,,,,,,,,,,,,,1034,2019_Mar_07_1401,mf_amp_cond2,3.0.4,59.98326305097247,
about,&&&&&,left,neutral,,,,,,,,0,119,119,59,,,,,,,,,,,,,,,,,,,,,LDT,right,1.1671798197421595,0,,,right,0,1.1671798197421595,,,,,,,,,,,,,,,,,,,,,,1034,2019_Mar_07_1401,mf_amp_cond2,3.0.4,59.98326305097247,
voter,&&&&&,left,fairness.vice,,,,,,,,0,120,120,88,,,,,,,,,,,,,,,,,,,,,LDT,right,0.8504530820937362,0,,,right,0,0.8504530820937362,,,,,,,,,,,,,,,,,,,,,,1034,2019_Mar_07_1401,mf_amp_cond2,3.0.4,59.98326305097247,
charges,&&&&&&&,left,fairness.vice,,,,,,,,0,121,121,76,,,,,,,,,,,,,,,,,,,,,LDT,right,0.7670647451650439,0,,,right,0,0.7670647451650439,,,,,,,,,,,,,,,,,,,,,,1034,2019_Mar_07_1401,mf_amp_cond2,3.0.4,59.98326305097247,
frocessing,&&&&&&&&&&,right,nonword,,,,,,,,0,122,122,40,,,,,,,,,,,,,,,,,,,,,LDT,right,1.1671836683901802,1,,,right,1,1.1671836683901802,,,,,,,,,,,,,,,,,,,,,,1034,2019_Mar_07_1401,mf_amp_cond2,3.0.4,59.98326305097247,
nackers,&&&&&&&,right,nonword,,,,,,,,0,123,123,56,,,,,,,,,,,,,,,,,,,,,LDT,right,0.9838199628093207,1,,,right,1,0.9838199628093207,,,,,,,,,,,,,,,,,,,,,,1034,2019_Mar_07_1401,mf_amp_cond2,3.0.4,59.98326305097247,
betrayal,&&&&&&&&,left,loyalty.vice,,,,,,,,0,124,124,101,,,,,,,,,,,,,,,,,,,,,LDT,right,1.1171871642457063,0,,,right,0,1.1171871642457063,,,,,,,,,,,,,,,,,,,,,,1034,2019_Mar_07_1401,mf_amp_cond2,3.0.4,59.98326305097247,
become,&&&&&&,left,neutral,,,,,,,,0,125,125,121,,,,,,,,,,,,,,,,,,,,,LDT,right,0.8504553271382065,0,,,right,0,0.8504553271382065,,,,,,,,,,,,,,,,,,,,,,1034,2019_Mar_07_1401,mf_amp_cond2,3.0.4,59.98326305097247,
strong,&&&&&&,left,loyalty.virtue,,,,,,,,0,126,126,161,,,,,,,,,,,,,,,,,,,,,LDT,right,1.1505315303700172,0,,,right,0,1.1505315303700172,,,,,,,,,,,,,,,,,,,,,,1034,2019_Mar_07_1401,mf_amp_cond2,3.0.4,59.98326305097247,
therefore,&&&&&&&&&,left,neutral,,,,,,,,0,127,127,89,,,,,,,,,,,,,,,,,,,,,LDT,right,0.6503929790396796,0,,,right,0,0.6503929790396796,,,,,,,,,,,,,,,,,,,,,,1034,2019_Mar_07_1401,mf_amp_cond2,3.0.4,59.98326305097247,
fonderland,&&&&&&&&&&,right,nonword,,,,,,,,0,128,128,34,,,,,,,,,,,,,,,,,,,,,LDT,left,0.9338285901951622,0,,,left,0,0.9338285901951622,,,,,,,,,,,,,,,,,,,,,,1034,2019_Mar_07_1401,mf_amp_cond2,3.0.4,59.98326305097247,
tabin,&&&&&,right,nonword,,,,,,,,0,129,129,0,,,,,,,,,,,,,,,,,,,,,LDT,left,1.8673242723327803,0,,,left,0,1.8673242723327803,,,,,,,,,,,,,,,,,,,,,,1034,2019_Mar_07_1401,mf_amp_cond2,3.0.4,59.98326305097247,
else,&&&&,left,neutral,,,,,,,,0,130,130,53,,,,,,,,,,,,,,,,,,,,,LDT,right,0.6837440802980836,0,,,right,0,0.6837440802980836,,,,,,,,,,,,,,,,,,,,,,1034,2019_Mar_07_1401,mf_amp_cond2,3.0.4,59.98326305097247,
respect,&&&&&&&,left,sanctity.virtue,,,,,,,,0,131,131,26,,,,,,,,,,,,,,,,,,,,,LDT,right,0.6503945826430027,0,,,right,0,0.6503945826430027,,,,,,,,,,,,,,,,,,,,,,1034,2019_Mar_07_1401,mf_amp_cond2,3.0.4,59.98326305097247,
gikely,&&&&&&,right,nonword,,,,,,,,0,132,132,82,,,,,,,,,,,,,,,,,,,,,LDT,right,0.4503373660750185,1,,,right,1,0.4503373660750185,,,,,,,,,,,,,,,,,,,,,,1034,2019_Mar_07_1401,mf_amp_cond2,3.0.4,59.98326305097247,
towards,&&&&&&&,left,neutral,,,,,,,,0,133,133,199,,,,,,,,,,,,,,,,,,,,,LDT,right,0.5503858590407162,0,,,right,0,0.5503858590407162,,,,,,,,,,,,,,,,,,,,,,1034,2019_Mar_07_1401,mf_amp_cond2,3.0.4,59.98326305097247,
toward,&&&&&&,left,neutral,,,,,,,,0,134,134,47,,,,,,,,,,,,,,,,,,,,,LDT,right,1.017139954162758,0,,,right,0,1.017139954162758,,,,,,,,,,,,,,,,,,,,,,1034,2019_Mar_07_1401,mf_amp_cond2,3.0.4,59.98326305097247,
fostet,&&&&&&,right,nonword,,,,,,,,0,135,135,3,,,,,,,,,,,,,,,,,,,,,LDT,right,0.6003788352579704,1,,,right,1,0.6003788352579704,,,,,,,,,,,,,,,,,,,,,,1034,2019_Mar_07_1401,mf_amp_cond2,3.0.4,59.98326305097247,
couldnt,&&&&&&&,left,neutral,,,,,,,,0,136,136,32,,,,,,,,,,,,,,,,,,,,,LDT,right,0.6170383498538285,0,,,right,0,0.6170383498538285,,,,,,,,,,,,,,,,,,,,,,1034,2019_Mar_07_1401,mf_amp_cond2,3.0.4,59.98326305097247,
hereby,&&&&&&,left,neutral,,,,,,,,0,137,137,154,,,,,,,,,,,,,,,,,,,,,LDT,right,1.0171498965032697,0,,,right,0,1.0171498965032697,,,,,,,,,,,,,,,,,,,,,,1034,2019_Mar_07_1401,mf_amp_cond2,3.0.4,59.98326305097247,
crilfully,&&&&&&&&&,right,nonword,,,,,,,,0,138,138,5,,,,,,,,,,,,,,,,,,,,,LDT,right,0.81709620786296,1,,,right,1,0.81709620786296,,,,,,,,,,,,,,,,,,,,,,1034,2019_Mar_07_1401,mf_amp_cond2,3.0.4,59.98326305097247,
mightingale,&&&&&&&&&&&,right,nonword,,,,,,,,0,139,139,80,,,,,,,,,,,,,,,,,,,,,LDT,left,1.0505032428068262,0,,,left,0,1.0505032428068262,,,,,,,,,,,,,,,,,,,,,,1034,2019_Mar_07_1401,mf_amp_cond2,3.0.4,59.98326305097247,
itself,&&&&&&,left,neutral,,,,,,,,0,140,140,87,,,,,,,,,,,,,,,,,,,,,LDT,right,0.46701644463178127,0,,,right,0,0.46701644463178127,,,,,,,,,,,,,,,,,,,,,,1034,2019_Mar_07_1401,mf_amp_cond2,3.0.4,59.98326305097247,
crime,&&&&&,left,fairness.vice,,,,,,,,0,141,141,116,,,,,,,,,,,,,,,,,,,,,LDT,right,0.46704466805090306,0,,,right,0,0.46704466805090306,,,,,,,,,,,,,,,,,,,,,,1034,2019_Mar_07_1401,mf_amp_cond2,3.0.4,59.98326305097247,
atson,&&&&&,right,nonword,,,,,,,,0,142,142,13,,,,,,,,,,,,,,,,,,,,,LDT,right,0.9504646921818676,1,,,right,1,0.9504646921818676,,,,,,,,,,,,,,,,,,,,,,1034,2019_Mar_07_1401,mf_amp_cond2,3.0.4,59.98326305097247,
sonvoy,&&&&&&,None,nonword,,,,,,,,0,143,143,157,,,,,,,,,,,,,,,,,,,,,LDT,right,0.5837212449864637,0,,,right,0,0.5837212449864637,,,,,,,,,,,,,,,,,,,,,,1034,2019_Mar_07_1401,mf_amp_cond2,3.0.4,59.98326305097247,
either,&&&&&&,left,neutral,,,,,,,,0,144,144,10,,,,,,,,,,,,,,,,,,,,,LDT,right,0.900469150199342,0,,,right,0,0.900469150199342,,,,,,,,,,,,,,,,,,,,,,1034,2019_Mar_07_1401,mf_amp_cond2,3.0.4,59.98326305097247,
chreams,&&&&&&&,right,nonword,,,,,,,,0,145,145,181,,,,,,,,,,,,,,,,,,,,,LDT,right,0.7504302467816615,1,,,right,1,0.7504302467816615,,,,,,,,,,,,,,,,,,,,,,1034,2019_Mar_07_1401,mf_amp_cond2,3.0.4,59.98326305097247,
yane,&&&&,right,nonword,,,,,,,,0,146,146,90,,,,,,,,,,,,,,,,,,,,,LDT,right,0.9171523981246992,1,,,right,1,0.9171523981246992,,,,,,,,,,,,,,,,,,,,,,1034,2019_Mar_07_1401,mf_amp_cond2,3.0.4,59.98326305097247,
opportunity,&&&&&&&&&&&,left,fairness.virtue,,,,,,,,0,147,147,195,,,,,,,,,,,,,,,,,,,,,LDT,right,0.4336884352615016,0,,,right,0,0.4336884352615016,,,,,,,,,,,,,,,,,,,,,,1034,2019_Mar_07_1401,mf_amp_cond2,3.0.4,59.98326305097247,
embrace,&&&&&&&,left,authority.virtue,,,,,,,,0,148,148,172,,,,,,,,,,,,,,,,,,,,,LDT,right,0.4336839451721062,0,,,right,0,0.4336839451721062,,,,,,,,,,,,,,,,,,,,,,1034,2019_Mar_07_1401,mf_amp_cond2,3.0.4,59.98326305097247,
cromiscuity,&&&&&&&&&&&,right,nonword,,,,,,,,0,149,149,165,,,,,,,,,,,,,,,,,,,,,LDT,left,0.7670875163325945,0,,,left,0,0.7670875163325945,,,,,,,,,,,,,,,,,,,,,,1034,2019_Mar_07_1401,mf_amp_cond2,3.0.4,59.98326305097247,
elsewhere,&&&&&&&&&,left,neutral,,,,,,,,0,150,150,131,,,,,,,,,,,,,,,,,,,,,LDT,right,0.817118337589136,0,,,right,0,0.817118337589136,,,,,,,,,,,,,,,,,,,,,,1034,2019_Mar_07_1401,mf_amp_cond2,3.0.4,59.98326305097247,
dignity,&&&&&&&,left,sanctity.virtue,,,,,,,,0,151,151,153,,,,,,,,,,,,,,,,,,,,,LDT,right,0.5670463357982953,0,,,right,0,0.5670463357982953,,,,,,,,,,,,,,,,,,,,,,1034,2019_Mar_07_1401,mf_amp_cond2,3.0.4,59.98326305097247,
nomparisons,&&&&&&&&&&&,right,nonword,,,,,,,,0,152,152,105,,,,,,,,,,,,,,,,,,,,,LDT,left,1.033843728210968,0,,,left,0,1.033843728210968,,,,,,,,,,,,,,,,,,,,,,1034,2019_Mar_07_1401,mf_amp_cond2,3.0.4,59.98326305097247,
progress,&&&&&&&&,left,authority.virtue,,,,,,,,0,153,153,180,,,,,,,,,,,,,,,,,,,,,LDT,right,0.6003817217440428,0,,,right,0,0.6003817217440428,,,,,,,,,,,,,,,,,,,,,,1034,2019_Mar_07_1401,mf_amp_cond2,3.0.4,59.98326305097247,
least,&&&&&,left,neutral,,,,,,,,0,154,154,163,,,,,,,,,,,,,,,,,,,,,LDT,right,0.6337267293099558,0,,,right,0,0.6337267293099558,,,,,,,,,,,,,,,,,,,,,,1034,2019_Mar_07_1401,mf_amp_cond2,3.0.4,59.98326305097247,
disregord,&&&&&&&&&,right,nonword,,,,,,,,0,155,155,31,,,,,,,,,,,,,,,,,,,,,LDT,right,0.45037809760037817,1,,,right,1,0.45037809760037817,,,,,,,,,,,,,,,,,,,,,,1034,2019_Mar_07_1401,mf_amp_cond2,3.0.4,59.98326305097247,
nomaric,&&&&&&&,None,nonword,,,,,,,,0,156,156,2,,,,,,,,,,,,,,,,,,,,,LDT,right,0.567045373636347,0,,,right,0,0.567045373636347,,,,,,,,,,,,,,,,,,,,,,1034,2019_Mar_07_1401,mf_amp_cond2,3.0.4,59.98326305097247,
emports,&&&&&&&,right,nonword,,,,,,,,0,157,157,91,,,,,,,,,,,,,,,,,,,,,LDT,right,0.7004051984972648,1,,,right,1,0.7004051984972648,,,,,,,,,,,,,,,,,,,,,,1034,2019_Mar_07_1401,mf_amp_cond2,3.0.4,59.98326305097247,
lenon,&&&&&,right,nonword,,,,,,,,0,158,158,79,,,,,,,,,,,,,,,,,,,,,LDT,right,0.567043770033024,1,,,right,1,0.567043770033024,,,,,,,,,,,,,,,,,,,,,,1034,2019_Mar_07_1401,mf_amp_cond2,3.0.4,59.98326305097247,
neputized,&&&&&&&&&,right,nonword,,,,,,,,0,159,159,198,,,,,,,,,,,,,,,,,,,,,LDT,right,0.7671561505567297,1,,,right,1,0.7671561505567297,,,,,,,,,,,,,,,,,,,,,,1034,2019_Mar_07_1401,mf_amp_cond2,3.0.4,59.98326305097247,
energy,&&&&&&,left,sanctity.virtue,,,,,,,,0,160,160,62,,,,,,,,,,,,,,,,,,,,,LDT,right,0.5670559574186882,0,,,right,0,0.5670559574186882,,,,,,,,,,,,,,,,,,,,,,1034,2019_Mar_07_1401,mf_amp_cond2,3.0.4,59.98326305097247,
hefurbished,&&&&&&&&&&&,right,nonword,,,,,,,,0,161,161,188,,,,,,,,,,,,,,,,,,,,,LDT,right,0.5003627350802162,1,,,right,1,0.5003627350802162,,,,,,,,,,,,,,,,,,,,,,1034,2019_Mar_07_1401,mf_amp_cond2,3.0.4,59.98326305097247,
ilportation,&&&&&&&&&&&,right,nonword,,,,,,,,0,162,162,139,,,,,,,,,,,,,,,,,,,,,LDT,right,0.4503620615669206,1,,,right,1,0.4503620615669206,,,,,,,,,,,,,,,,,,,,,,1034,2019_Mar_07_1401,mf_amp_cond2,3.0.4,59.98326305097247,
baladroit,&&&&&&&&&,right,nonword,,,,,,,,0,163,163,27,,,,,,,,,,,,,,,,,,,,,LDT,right,0.45036109940497226,1,,,right,1,0.45036109940497226,,,,,,,,,,,,,,,,,,,,,,1034,2019_Mar_07_1401,mf_amp_cond2,3.0.4,59.98326305097247,
bycled,&&&&&&,None,nonword,,,,,,,,0,164,164,66,,,,,,,,,,,,,,,,,,,,,LDT,right,0.4336810586860338,0,,,right,0,0.4336810586860338,,,,,,,,,,,,,,,,,,,,,,1034,2019_Mar_07_1401,mf_amp_cond2,3.0.4,59.98326305097247,
everything,&&&&&&&&&&,left,neutral,,,,,,,,0,165,165,21,,,,,,,,,,,,,,,,,,,,,LDT,right,0.5837254143550581,0,,,right,0,0.5837254143550581,,,,,,,,,,,,,,,,,,,,,,1034,2019_Mar_07_1401,mf_amp_cond2,3.0.4,59.98326305097247,
tomedians,&&&&&&&&&,right,nonword,,,,,,,,0,166,166,42,,,,,,,,,,,,,,,,,,,,,LDT,right,0.6504048457045428,1,,,right,1,0.6504048457045428,,,,,,,,,,,,,,,,,,,,,,1034,2019_Mar_07_1401,mf_amp_cond2,3.0.4,59.98326305097247,
three,&&&&&,left,neutral,,,,,,,,0,167,167,94,,,,,,,,,,,,,,,,,,,,,LDT,right,0.700417385882929,0,,,right,0,0.700417385882929,,,,,,,,,,,,,,,,,,,,,,1034,2019_Mar_07_1401,mf_amp_cond2,3.0.4,59.98326305097247,
could,&&&&&,left,neutral,,,,,,,,0,168,168,184,,,,,,,,,,,,,,,,,,,,,LDT,right,0.48368301508230616,0,,,right,0,0.48368301508230616,,,,,,,,,,,,,,,,,,,,,,1034,2019_Mar_07_1401,mf_amp_cond2,3.0.4,59.98326305097247,
unreflectuve,&&&&&&&&&&&&,right,nonword,,,,,,,,0,169,169,177,,,,,,,,,,,,,,,,,,,,,LDT,right,0.6170806849825112,1,,,right,1,0.6170806849825112,,,,,,,,,,,,,,,,,,,,,,1034,2019_Mar_07_1401,mf_amp_cond2,3.0.4,59.98326305097247,
fighters,&&&&&&&&,left,authority.vice,,,,,,,,0,170,170,108,,,,,,,,,,,,,,,,,,,,,LDT,right,0.6003897397608853,0,,,right,0,0.6003897397608853,,,,,,,,,,,,,,,,,,,,,,1034,2019_Mar_07_1401,mf_amp_cond2,3.0.4,59.98326305097247,
both,&&&&,left,neutral,,,,,,,,0,171,171,29,,,,,,,,,,,,,,,,,,,,,LDT,right,0.7837685192134813,0,,,right,0,0.7837685192134813,,,,,,,,,,,,,,,,,,,,,,1034,2019_Mar_07_1401,mf_amp_cond2,3.0.4,59.98326305097247,
besides,&&&&&&&,left,neutral,,,,,,,,0,172,172,146,,,,,,,,,,,,,,,,,,,,,LDT,right,0.8338086413693873,0,,,right,0,0.8338086413693873,,,,,,,,,,,,,,,,,,,,,,1034,2019_Mar_07_1401,mf_amp_cond2,3.0.4,59.98326305097247,
there,&&&&&,left,neutral,,,,,,,,0,173,173,81,,,,,,,,,,,,,,,,,,,,,LDT,right,0.8171192997513117,0,,,right,0,0.8171192997513117,,,,,,,,,,,,,,,,,,,,,,1034,2019_Mar_07_1401,mf_amp_cond2,3.0.4,59.98326305097247,
terrorist,&&&&&&&&&,left,loyalty.vice,,,,,,,,0,174,174,132,,,,,,,,,,,,,,,,,,,,,LDT,right,0.8004585022729316,0,,,right,0,0.8004585022729316,,,,,,,,,,,,,,,,,,,,,,1034,2019_Mar_07_1401,mf_amp_cond2,3.0.4,59.98326305097247,
halaise,&&&&&&&,None,nonword,,,,,,,,0,175,175,45,,,,,,,,,,,,,,,,,,,,,LDT,right,1.1004378478617127,0,,,right,0,1.1004378478617127,,,,,,,,,,,,,,,,,,,,,,1034,2019_Mar_07_1401,mf_amp_cond2,3.0.4,59.98326305097247,
abointment,&&&&&&&&&&,right,nonword,,,,,,,,0,176,176,50,,,,,,,,,,,,,,,,,,,,,LDT,left,1.5673356258446347,0,,,left,0,1.5673356258446347,,,,,,,,,,,,,,,,,,,,,,1034,2019_Mar_07_1401,mf_amp_cond2,3.0.4,59.98326305097247,
black,&&&&&,left,loyalty.vice,,,,,,,,0,177,177,18,,,,,,,,,,,,,,,,,,,,,LDT,right,0.7837595390346905,0,,,right,0,0.7837595390346905,,,,,,,,,,,,,,,,,,,,,,1034,2019_Mar_07_1401,mf_amp_cond2,3.0.4,59.98326305097247,
eight,&&&&&,left,neutral,,,,,,,,0,178,178,43,,,,,,,,,,,,,,,,,,,,,LDT,right,0.7004484957881232,0,,,right,0,0.7004484957881232,,,,,,,,,,,,,,,,,,,,,,1034,2019_Mar_07_1401,mf_amp_cond2,3.0.4,59.98326305097247,
latterly,&&&&&&&&,left,neutral,,,,,,,,0,179,179,77,,,,,,,,,,,,,,,,,,,,,LDT,right,0.7004164237207533,0,,,right,0,0.7004164237207533,,,,,,,,,,,,,,,,,,,,,,1034,2019_Mar_07_1401,mf_amp_cond2,3.0.4,59.98326305097247,
wonderfujnoss,&&&&&&&&&&&&&,right,nonword,,,,,,,,0,180,180,120,,,,,,,,,,,,,,,,,,,,,LDT,right,0.8171032637176268,1,,,right,1,0.8171032637176268,,,,,,,,,,,,,,,,,,,,,,1034,2019_Mar_07_1401,mf_amp_cond2,3.0.4,59.98326305097247,
edancipation,&&&&&&&&&&&&,None,nonword,,,,,,,,0,181,181,92,,,,,,,,,,,,,,,,,,,,,LDT,left,1.2337437916496583,0,,,left,0,1.2337437916496583,,,,,,,,,,,,,,,,,,,,,,1034,2019_Mar_07_1401,mf_amp_cond2,3.0.4,59.98326305097247,
improve,&&&&&&&,left,care.virtue,,,,,,,,0,182,182,150,,,,,,,,,,,,,,,,,,,,,LDT,right,0.6670669260654449,0,,,right,0,0.6670669260654449,,,,,,,,,,,,,,,,,,,,,,1034,2019_Mar_07_1401,mf_amp_cond2,3.0.4,59.98326305097247,
gaultless,&&&&&&&&&,right,nonword,,,,,,,,0,183,183,145,,,,,,,,,,,,,,,,,,,,,LDT,right,0.9171427765043063,1,,,right,1,0.9171427765043063,,,,,,,,,,,,,,,,,,,,,,1034,2019_Mar_07_1401,mf_amp_cond2,3.0.4,59.98326305097247,
great,&&&&&,left,loyalty.virtue,,,,,,,,0,184,184,64,,,,,,,,,,,,,,,,,,,,,LDT,right,1.7173482301670902,0,,,right,0,1.7173482301670902,,,,,,,,,,,,,,,,,,,,,,1034,2019_Mar_07_1401,mf_amp_cond2,3.0.4,59.98326305097247,
wherever,&&&&&&&&,left,neutral,,,,,,,,0,185,185,151,,,,,,,,,,,,,,,,,,,,,LDT,right,0.7670942514666876,0,,,right,0,0.7670942514666876,,,,,,,,,,,,,,,,,,,,,,1034,2019_Mar_07_1401,mf_amp_cond2,3.0.4,59.98326305097247,
Cunday,&&&&&&,None,nonword,,,,,,,,0,186,186,141,,,,,,,,,,,,,,,,,,,,,LDT,right,1.7339997267458784,0,,,right,0,1.7339997267458784,,,,,,,,,,,,,,,,,,,,,,1034,2019_Mar_07_1401,mf_amp_cond2,3.0.4,59.98326305097247,
bluently,&&&&&&&&,None,nonword,,,,,,,,0,187,187,73,,,,,,,,,,,,,,,,,,,,,LDT,right,0.8171074330864485,0,,,right,0,0.8171074330864485,,,,,,,,,,,,,,,,,,,,,,1034,2019_Mar_07_1401,mf_amp_cond2,3.0.4,59.98326305097247,
ammessment,&&&&&&&&&&,right,nonword,,,,,,,,0,188,188,189,,,,,,,,,,,,,,,,,,,,,LDT,left,0.9671533923587958,0,,,left,0,0.9671533923587958,,,,,,,,,,,,,,,,,,,,,,1034,2019_Mar_07_1401,mf_amp_cond2,3.0.4,59.98326305097247,
further,&&&&&&&,left,neutral,,,,,,,,0,189,189,187,,,,,,,,,,,,,,,,,,,,,LDT,right,0.6504096565145119,0,,,right,0,0.6504096565145119,,,,,,,,,,,,,,,,,,,,,,1034,2019_Mar_07_1401,mf_amp_cond2,3.0.4,59.98326305097247,
with,&&&&,left,neutral,,,,,,,,0,190,190,193,,,,,,,,,,,,,,,,,,,,,LDT,right,0.750423832368142,0,,,right,0,0.750423832368142,,,,,,,,,,,,,,,,,,,,,,1034,2019_Mar_07_1401,mf_amp_cond2,3.0.4,59.98326305097247,
antral,&&&&&&,right,nonword,,,,,,,,0,191,191,191,,,,,,,,,,,,,,,,,,,,,LDT,right,0.8171321285781232,1,,,right,1,0.8171321285781232,,,,,,,,,,,,,,,,,,,,,,1034,2019_Mar_07_1401,mf_amp_cond2,3.0.4,59.98326305097247,
pafer,&&&&&,right,nonword,,,,,,,,0,192,192,112,,,,,,,,,,,,,,,,,,,,,LDT,right,0.8004395797534016,1,,,right,1,0.8004395797534016,,,,,,,,,,,,,,,,,,,,,,1034,2019_Mar_07_1401,mf_amp_cond2,3.0.4,59.98326305097247,
interests,&&&&&&&&&,left,fairness.virtue,,,,,,,,0,193,193,23,,,,,,,,,,,,,,,,,,,,,LDT,right,0.7837637084035123,0,,,right,0,0.7837637084035123,,,,,,,,,,,,,,,,,,,,,,1034,2019_Mar_07_1401,mf_amp_cond2,3.0.4,59.98326305097247,
safe,&&&&,left,care.virtue,,,,,,,,0,194,194,28,,,,,,,,,,,,,,,,,,,,,LDT,right,1.3672133029804172,0,,,right,0,1.3672133029804172,,,,,,,,,,,,,,,,,,,,,,1034,2019_Mar_07_1401,mf_amp_cond2,3.0.4,59.98326305097247,
health,&&&&&&,left,care.virtue,,,,,,,,0,195,195,63,,,,,,,,,,,,,,,,,,,,,LDT,left,1.033822881367314,1,,,left,1,1.033822881367314,,,,,,,,,,,,,,,,,,,,,,1034,2019_Mar_07_1401,mf_amp_cond2,3.0.4,59.98326305097247,
erks,&&&&,right,nonword,,,,,,,,0,196,196,61,,,,,,,,,,,,,,,,,,,,,LDT,right,0.9004595285791765,1,,,right,1,0.9004595285791765,,,,,,,,,,,,,,,,,,,,,,1034,2019_Mar_07_1401,mf_amp_cond2,3.0.4,59.98326305097247,
aubos,&&&&&,right,nonword,,,,,,,,0,197,197,4,,,,,,,,,,,,,,,,,,,,,LDT,left,0.9838077754236565,0,,,left,0,0.9838077754236565,,,,,,,,,,,,,,,,,,,,,,1034,2019_Mar_07_1401,mf_amp_cond2,3.0.4,59.98326305097247,
gillipede,&&&&&&&&&,None,nonword,,,,,,,,0,198,198,85,,,,,,,,,,,,,,,,,,,,,LDT,left,0.6837148947170135,0,,,left,0,0.6837148947170135,,,,,,,,,,,,,,,,,,,,,,1034,2019_Mar_07_1401,mf_amp_cond2,3.0.4,59.98326305097247,
restore,&&&&&&&,left,care.virtue,,,,,,,,0,199,199,15,,,,,,,,,,,,,,,,,,,,,LDT,right,0.9504768795675318,0,,,right,0,0.9504768795675318,,,,,,,,,,,,,,,,,,,,,,1034,2019_Mar_07_1401,mf_amp_cond2,3.0.4,59.98326305097247,
,,,,,,,,,,,,,,,,,,,,,,,,,,,,,,,,,,,,,,,,,,,,2,8.271,,,,,,,,,,,,,,,,,,,,1034,2019_Mar_07_1401,mf_amp_cond2,3.0.4,59.98326305097247,
,,,,,,,,,,,,,,,,,,,,,,,,,,,,,,,,,,,,,,,,,,,,,,right,5.5183243756050615,,,,,,,,,,,,,,,,,,1034,2019_Mar_07_1401,mf_amp_cond2,3.0.4,59.98326305097247,
keyboard,&&&&,,,senk,,,,,,,,,,,0,0,0,2,,,,,,,,,,,,,,,,,AMP_prac,left,1.4005980799095141,,,,,,,,,,,left,1.4005980799095141,,,,,,,,,,,,,,,,1034,2019_Mar_07_1401,mf_amp_cond2,3.0.4,59.98326305097247,
scarf,&&&&&&&&,,,bisebell,,,,,,,,,,,0,1,1,3,,,,,,,,,,,,,,,,,AMP_prac,left,1.1505017033475724,,,,,,,,,,,left,1.1505017033475724,,,,,,,,,,,,,,,,1034,2019_Mar_07_1401,mf_amp_cond2,3.0.4,59.98326305097247,
banana,&&&&&&,,,kacket,,,,,,,,,,,0,2,2,1,,,,,,,,,,,,,,,,,AMP_prac,left,0.7003997462456937,,,,,,,,,,,left,0.7003997462456937,,,,,,,,,,,,,,,,1034,2019_Mar_07_1401,mf_amp_cond2,3.0.4,59.98326305097247,
car,&&&&&&&&,,,cemtuper,,,,,,,,,,,0,3,3,0,,,,,,,,,,,,,,,,,AMP_prac,left,0.9171251368675257,,,,,,,,,,,left,0.9171251368675257,,,,,,,,,,,,,,,,1034,2019_Mar_07_1401,mf_amp_cond2,3.0.4,59.98326305097247,
,,,,,,,,,,,,,,,,,,,,,,,,,,,,,,,,,,,,,,,,,,,,,,,,,,right,1.8173114114340478,,,,,,,,,,,,,,1034,2019_Mar_07_1401,mf_amp_cond2,3.0.4,59.98326305097247,
promote,&&&&&&&&&&&&,left,sanctity.virtue,feleological,,,,,,,,,,,,,,,0,0,0,15,,,,,,,,,,,,,AMP,left,0.7837742921853987,1,,,,,,,,,,,,,,left,1,0.7837742921853987,,,,,,,,,,,1034,2019_Mar_07_1401,mf_amp_cond2,3.0.4,59.98326305097247,
protect,&&&&&&&&&&,left,fairness.virtue,Oregoniuns,,,,,,,,,,,,,,,0,1,1,48,,,,,,,,,,,,,AMP,left,0.6503868853469612,1,,,,,,,,,,,,,,left,1,0.6503868853469612,,,,,,,,,,,1034,2019_Mar_07_1401,mf_amp_cond2,3.0.4,59.98326305097247,
powerful,&&&&&&&&&&&&&,left,authority.virtue,esquisiteness,,,,,,,,,,,,,,,0,2,2,30,,,,,,,,,,,,,AMP,right,0.48370963489787755,0,,,,,,,,,,,,,,right,0,0.48370963489787755,,,,,,,,,,,1034,2019_Mar_07_1401,mf_amp_cond2,3.0.4,59.98326305097247,
refused,&&&&&&,right,authority.vice,laming,,,,,,,,,,,,,,,0,3,3,282,,,,,,,,,,,,,AMP,left,0.5504099130910163,0,,,,,,,,,,,,,,left,0,0.5504099130910163,,,,,,,,,,,1034,2019_Mar_07_1401,mf_amp_cond2,3.0.4,59.98326305097247,
serial,&&&&&&&,right,sanctity.vice,allears,,,,,,,,,,,,,,,0,4,4,76,,,,,,,,,,,,,AMP,right,1.8840411959288303,1,,,,,,,,,,,,,,right,1,1.8840411959288303,,,,,,,,,,,1034,2019_Mar_07_1401,mf_amp_cond2,3.0.4,59.98326305097247,
faith,&&&&&&&&&&&&,left,sanctity.virtue,bruthfulness,,,,,,,,,,,,,,,0,5,5,210,,,,,,,,,,,,,AMP,left,0.5670934817371744,1,,,,,,,,,,,,,,left,1,0.5670934817371744,,,,,,,,,,,1034,2019_Mar_07_1401,mf_amp_cond2,3.0.4,59.98326305097247,
ronviolence,&&&&&&&&&&&,None,nonword,vicissifude,,,,,,,,,,,,,,,0,6,6,172,,,,,,,,,,,,,AMP,left,0.8671071444377958,0,,,,,,,,,,,,,,left,0,0.8671071444377958,,,,,,,,,,,1034,2019_Mar_07_1401,mf_amp_cond2,3.0.4,59.98326305097247,
threatened,&&&&&&&&,right,fairness.vice,nuckheap,,,,,,,,,,,,,,,0,7,7,119,,,,,,,,,,,,,AMP,left,0.5837106612041225,0,,,,,,,,,,,,,,left,0,0.5837106612041225,,,,,,,,,,,1034,2019_Mar_07_1401,mf_amp_cond2,3.0.4,59.98326305097247,
party,&&&&&,left,loyalty.virtue,pulge,,,,,,,,,,,,,,,0,8,8,208,,,,,,,,,,,,,AMP,left,0.7337562997556688,1,,,,,,,,,,,,,,left,1,0.7337562997556688,,,,,,,,,,,1034,2019_Mar_07_1401,mf_amp_cond2,3.0.4,59.98326305097247,
encourage,&&&&&&&&&&,left,authority.virtue,honstables,,,,,,,,,,,,,,,0,9,9,291,,,,,,,,,,,,,AMP,left,1.533959829094556,1,,,,,,,,,,,,,,left,1,1.533959829094556,,,,,,,,,,,1034,2019_Mar_07_1401,mf_amp_cond2,3.0.4,59.98326305097247,
lies,&&&&&,right,fairness.vice,saned,,,,,,,,,,,,,,,0,10,10,279,,,,,,,,,,,,,AMP,left,0.5670572403012102,0,,,,,,,,,,,,,,left,0,0.5670572403012102,,,,,,,,,,,1034,2019_Mar_07_1401,mf_amp_cond2,3.0.4,59.98326305097247,
riot,&&&&&&&,right,authority.vice,stindig,,,,,,,,,,,,,,,0,11,11,217,,,,,,,,,,,,,AMP,left,1.0004785152430031,0,,,,,,,,,,,,,,left,0,1.0004785152430031,,,,,,,,,,,1034,2019_Mar_07_1401,mf_amp_cond2,3.0.4,59.98326305097247,
increase,&&&&&&&&&&,left,care.virtue,neutralust,,,,,,,,,,,,,,,0,12,12,257,,,,,,,,,,,,,AMP,right,1.0505000356001801,0,,,,,,,,,,,,,,right,0,1.0505000356001801,,,,,,,,,,,1034,2019_Mar_07_1401,mf_amp_cond2,3.0.4,59.98326305097247,
safety,&&&&&&&&,left,care.virtue,crinking,,,,,,,,,,,,,,,0,13,13,177,,,,,,,,,,,,,AMP,left,1.4339071667600365,1,,,,,,,,,,,,,,left,1,1.4339071667600365,,,,,,,,,,,1034,2019_Mar_07_1401,mf_amp_cond2,3.0.4,59.98326305097247,
prosecution,&&&&&,right,authority.vice,hasks,,,,,,,,,,,,,,,0,14,14,313,,,,,,,,,,,,,AMP,right,0.7004048777764638,1,,,,,,,,,,,,,,right,1,0.7004048777764638,,,,,,,,,,,1034,2019_Mar_07_1401,mf_amp_cond2,3.0.4,59.98326305097247,
clean,&&&&&&&&&&,left,sanctity.virtue,supervuned,,,,,,,,,,,,,,,0,15,15,193,,,,,,,,,,,,,AMP,left,2.8676109966138483,1,,,,,,,,,,,,,,left,1,2.8676109966138483,,,,,,,,,,,1034,2019_Mar_07_1401,mf_amp_cond2,3.0.4,59.98326305097247,
torture,&&&&&&&&,right,care.vice,gowlands,,,,,,,,,,,,,,,0,16,16,135,,,,,,,,,,,,,AMP,left,0.8504540442556845,0,,,,,,,,,,,,,,left,0,0.8504540442556845,,,,,,,,,,,1034,2019_Mar_07_1401,mf_amp_cond2,3.0.4,59.98326305097247,
focomotive,&&&&&,None,nonword,leact,,,,,,,,,,,,,,,0,17,17,300,,,,,,,,,,,,,AMP,right,1.5839524845910091,0,,,,,,,,,,,,,,right,0,1.5839524845910091,,,,,,,,,,,1034,2019_Mar_07_1401,mf_amp_cond2,3.0.4,59.98326305097247,
brudent,&&&&&&&&&&,None,nonword,pistraught,,,,,,,,,,,,,,,0,18,18,298,,,,,,,,,,,,,AMP,right,0.5670274132787654,0,,,,,,,,,,,,,,right,0,0.5670274132787654,,,,,,,,,,,1034,2019_Mar_07_1401,mf_amp_cond2,3.0.4,59.98326305097247,
killed,&&&&&&,right,care.vice,letish,,,,,,,,,,,,,,,0,19,19,92,,,,,,,,,,,,,AMP,right,1.66717853685941,1,,,,,,,,,,,,,,right,1,1.66717853685941,,,,,,,,,,,1034,2019_Mar_07_1401,mf_amp_cond2,3.0.4,59.98326305097247,
suicide,&&&&&&&&&&&&&,right,care.vice,esquisiteness,,,,,,,,,,,,,,,0,20,20,255,,,,,,,,,,,,,AMP,right,0.867100088583129,1,,,,,,,,,,,,,,right,1,0.867100088583129,,,,,,,,,,,1034,2019_Mar_07_1401,mf_amp_cond2,3.0.4,59.98326305097247,
pleasant,&&&,None,control,oam,,,,,,,,,,,,,,,0,21,21,306,,,,,,,,,,,,,AMP,right,1.1338405851483913,0,,,,,,,,,,,,,,right,0,1.1338405851483913,,,,,,,,,,,1034,2019_Mar_07_1401,mf_amp_cond2,3.0.4,59.98326305097247,
powerful,&&&&&&&&&&&,left,authority.virtue,shoirmaster,,,,,,,,,,,,,,,0,22,22,164,,,,,,,,,,,,,AMP,right,1.1505122871296862,0,,,,,,,,,,,,,,right,0,1.1505122871296862,,,,,,,,,,,1034,2019_Mar_07_1401,mf_amp_cond2,3.0.4,59.98326305097247,
ensure,&&&&&&&&&&&&&,left,fairness.virtue,photocalkodes,,,,,,,,,,,,,,,0,23,23,323,,,,,,,,,,,,,AMP,right,0.8171003772317817,0,,,,,,,,,,,,,,right,0,0.8171003772317817,,,,,,,,,,,1034,2019_Mar_07_1401,mf_amp_cond2,3.0.4,59.98326305097247,
brudent,&&&&&&&&&&,None,nonword,totalestic,,,,,,,,,,,,,,,0,24,24,52,,,,,,,,,,,,,AMP,right,0.5170331541787618,0,,,,,,,,,,,,,,right,0,0.5170331541787618,,,,,,,,,,,1034,2019_Mar_07_1401,mf_amp_cond2,3.0.4,59.98326305097247,
blamed,&&&&&&&,right,loyalty.vice,dramens,,,,,,,,,,,,,,,0,25,25,51,,,,,,,,,,,,,AMP,left,0.5336868958022478,0,,,,,,,,,,,,,,left,0,0.5336868958022478,,,,,,,,,,,1034,2019_Mar_07_1401,mf_amp_cond2,3.0.4,59.98326305097247,
useful,&&&&&&,left,authority.virtue,letish,,,,,,,,,,,,,,,0,26,26,220,,,,,,,,,,,,,AMP,right,0.4503373660750185,0,,,,,,,,,,,,,,right,0,0.4503373660750185,,,,,,,,,,,1034,2019_Mar_07_1401,mf_amp_cond2,3.0.4,59.98326305097247,
pleasant,&&&&&&&&&&&&,None,control,bruthfulness,,,,,,,,,,,,,,,0,27,27,53,,,,,,,,,,,,,AMP,left,2.2508090178955626,0,,,,,,,,,,,,,,left,0,2.2508090178955626,,,,,,,,,,,1034,2019_Mar_07_1401,mf_amp_cond2,3.0.4,59.98326305097247,
threatened,&&&&&&&&,right,fairness.vice,sliptery,,,,,,,,,,,,,,,0,28,28,2,,,,,,,,,,,,,AMP,right,0.6504045249839692,1,,,,,,,,,,,,,,right,1,0.6504045249839692,,,,,,,,,,,1034,2019_Mar_07_1401,mf_amp_cond2,3.0.4,59.98326305097247,
gationwide,&&&&&&&,None,nonword,menizen,,,,,,,,,,,,,,,0,29,29,192,,,,,,,,,,,,,AMP,right,0.4003354096789735,0,,,,,,,,,,,,,,right,0,0.4003354096789735,,,,,,,,,,,1034,2019_Mar_07_1401,mf_amp_cond2,3.0.4,59.98326305097247,
gationwide,&&&&&&&,None,nonword,dramens,,,,,,,,,,,,,,,0,30,30,111,,,,,,,,,,,,,AMP,right,0.5003527927392497,0,,,,,,,,,,,,,,right,0,0.5003527927392497,,,,,,,,,,,1034,2019_Mar_07_1401,mf_amp_cond2,3.0.4,59.98326305097247,
serial,&&&&&&&&&&&&,right,sanctity.vice,quarterbocks,,,,,,,,,,,,,,,0,31,31,275,,,,,,,,,,,,,AMP,right,0.6504051664251165,1,,,,,,,,,,,,,,right,1,0.6504051664251165,,,,,,,,,,,1034,2019_Mar_07_1401,mf_amp_cond2,3.0.4,59.98326305097247,
peace,&&&&&&&&,left,care.virtue,glacenta,,,,,,,,,,,,,,,0,32,32,278,,,,,,,,,,,,,AMP,right,0.6003874947161876,0,,,,,,,,,,,,,,right,0,0.6003874947161876,,,,,,,,,,,1034,2019_Mar_07_1401,mf_amp_cond2,3.0.4,59.98326305097247,
protesters,&&&&&&&,right,authority.vice,lursuer,,,,,,,,,,,,,,,0,33,33,309,,,,,,,,,,,,,AMP,right,0.833793246777077,1,,,,,,,,,,,,,,right,1,0.833793246777077,,,,,,,,,,,1034,2019_Mar_07_1401,mf_amp_cond2,3.0.4,59.98326305097247,
faspberry,&&&&&&,None,nonword,sgrawl,,,,,,,,,,,,,,,0,34,34,109,,,,,,,,,,,,,AMP,right,1.0838492125346875,0,,,,,,,,,,,,,,right,0,1.0838492125346875,,,,,,,,,,,1034,2019_Mar_07_1401,mf_amp_cond2,3.0.4,59.98326305097247,
racist,&&&&&,right,sanctity.vice,pulge,,,,,,,,,,,,,,,0,35,35,262,,,,,,,,,,,,,AMP,left,0.4670247833691974,0,,,,,,,,,,,,,,left,0,0.4670247833691974,,,,,,,,,,,1034,2019_Mar_07_1401,mf_amp_cond2,3.0.4,59.98326305097247,
fraud,&&&&&&&,right,fairness.vice,menizen,,,,,,,,,,,,,,,0,36,36,63,,,,,,,,,,,,,AMP,left,0.6003797974199188,0,,,,,,,,,,,,,,left,0,0.6003797974199188,,,,,,,,,,,1034,2019_Mar_07_1401,mf_amp_cond2,3.0.4,59.98326305097247,
win,&&&&&&&&&&&&,left,fairness.virtue,feleological,,,,,,,,,,,,,,,0,37,37,205,,,,,,,,,,,,,AMP,right,0.5670742384968435,0,,,,,,,,,,,,,,right,0,0.5670742384968435,,,,,,,,,,,1034,2019_Mar_07_1401,mf_amp_cond2,3.0.4,59.98326305097247,
grovelire,&&&&&&&,None,nonword,gedious,,,,,,,,,,,,,,,0,38,38,286,,,,,,,,,,,,,AMP,right,0.6503884889502842,0,,,,,,,,,,,,,,right,0,0.6503884889502842,,,,,,,,,,,1034,2019_Mar_07_1401,mf_amp_cond2,3.0.4,59.98326305097247,
rebels,&&&&&,right,authority.vice,framo,,,,,,,,,,,,,,,0,39,39,249,,,,,,,,,,,,,AMP,left,0.8504457055182684,0,,,,,,,,,,,,,,left,0,0.8504457055182684,,,,,,,,,,,1034,2019_Mar_07_1401,mf_amp_cond2,3.0.4,59.98326305097247,
praised,&&&&&&&,left,loyalty.virtue,allears,,,,,,,,,,,,,,,0,40,40,93,,,,,,,,,,,,,AMP,right,1.0338119768646266,0,,,,,,,,,,,,,,right,0,1.0338119768646266,,,,,,,,,,,1034,2019_Mar_07_1401,mf_amp_cond2,3.0.4,59.98326305097247,
gationwide,&&&&&,None,nonword,framo,,,,,,,,,,,,,,,0,41,41,78,,,,,,,,,,,,,AMP,right,0.5670521087704401,0,,,,,,,,,,,,,,right,0,0.5670521087704401,,,,,,,,,,,1034,2019_Mar_07_1401,mf_amp_cond2,3.0.4,59.98326305097247,
benefit,&&&&&&&&,left,fairness.virtue,thadowed,,,,,,,,,,,,,,,0,42,42,199,,,,,,,,,,,,,AMP,right,0.5670479394016184,0,,,,,,,,,,,,,,right,0,0.5670479394016184,,,,,,,,,,,1034,2019_Mar_07_1401,mf_amp_cond2,3.0.4,59.98326305097247,
freedom,&&&&&&&&&,left,sanctity.virtue,godlaness,,,,,,,,,,,,,,,0,43,43,17,,,,,,,,,,,,,AMP,right,0.6504279375928945,0,,,,,,,,,,,,,,right,0,0.6504279375928945,,,,,,,,,,,1034,2019_Mar_07_1401,mf_amp_cond2,3.0.4,59.98326305097247,
asn,&&&&&&&&&,None,nonword,ittutable,,,,,,,,,,,,,,,0,44,44,248,,,,,,,,,,,,,AMP,right,0.46701099238043753,0,,,,,,,,,,,,,,right,0,0.46701099238043753,,,,,,,,,,,1034,2019_Mar_07_1401,mf_amp_cond2,3.0.4,59.98326305097247,
blamed,&&&&&&&&&&,right,loyalty.vice,ejanulated,,,,,,,,,,,,,,,0,45,45,97,,,,,,,,,,,,,AMP,right,0.5503614842696152,1,,,,,,,,,,,,,,right,1,0.5503614842696152,,,,,,,,,,,1034,2019_Mar_07_1401,mf_amp_cond2,3.0.4,59.98326305097247,
party,&&&&&&,left,loyalty.virtue,forepo,,,,,,,,,,,,,,,0,46,46,284,,,,,,,,,,,,,AMP,right,0.3503437163444687,0,,,,,,,,,,,,,,right,0,0.3503437163444687,,,,,,,,,,,1034,2019_Mar_07_1401,mf_amp_cond2,3.0.4,59.98326305097247,
agreement,&&&&&&&&&&&&&,left,fairness.virtue,synchronazers,,,,,,,,,,,,,,,0,47,47,28,,,,,,,,,,,,,AMP,left,1.0838290071321808,1,,,,,,,,,,,,,,left,1,1.0838290071321808,,,,,,,,,,,1034,2019_Mar_07_1401,mf_amp_cond2,3.0.4,59.98326305097247,
grovelire,&&&&&&&&,None,nonword,sfumatoy,,,,,,,,,,,,,,,0,48,48,230,,,,,,,,,,,,,AMP,left,1.0671528150617178,0,,,,,,,,,,,,,,left,0,1.0671528150617178,,,,,,,,,,,1034,2019_Mar_07_1401,mf_amp_cond2,3.0.4,59.98326305097247,
ban,&&&&&&&&&&,right,loyalty.vice,Oregoniuns,,,,,,,,,,,,,,,0,49,49,103,,,,,,,,,,,,,AMP,right,0.5503653329176359,1,,,,,,,,,,,,,,right,1,0.5503653329176359,,,,,,,,,,,1034,2019_Mar_07_1401,mf_amp_cond2,3.0.4,59.98326305097247,
corruption,&&&&&&&&&,right,sanctity.vice,unscothed,,,,,,,,,,,,,,,0,50,50,320,,,,,,,,,,,,,AMP,left,0.48367788355153607,0,,,,,,,,,,,,,,left,0,0.48367788355153607,,,,,,,,,,,1034,2019_Mar_07_1401,mf_amp_cond2,3.0.4,59.98326305097247,
ronviolence,&&&&&&&,None,nonword,lursuer,,,,,,,,,,,,,,,0,51,51,152,,,,,,,,,,,,,AMP,left,0.5337119120147236,0,,,,,,,,,,,,,,left,0,0.5337119120147236,,,,,,,,,,,1034,2019_Mar_07_1401,mf_amp_cond2,3.0.4,59.98326305097247,
win,&&&&&,left,fairness.virtue,noped,,,,,,,,,,,,,,,0,52,52,297,,,,,,,,,,,,,AMP,left,1.2838762813591984,1,,,,,,,,,,,,,,left,1,1.2838762813591984,,,,,,,,,,,1034,2019_Mar_07_1401,mf_amp_cond2,3.0.4,59.98326305097247,
illegal,&&&&,right,fairness.vice,spag,,,,,,,,,,,,,,,0,53,53,212,,,,,,,,,,,,,AMP,left,0.6837565884045489,0,,,,,,,,,,,,,,left,0,0.6837565884045489,,,,,,,,,,,1034,2019_Mar_07_1401,mf_amp_cond2,3.0.4,59.98326305097247,
pullness,&&&&&&&&&&&&,None,nonword,quarterbocks,,,,,,,,,,,,,,,0,54,54,24,,,,,,,,,,,,,AMP,right,1.0171402748833316,0,,,,,,,,,,,,,,right,0,1.0171402748833316,,,,,,,,,,,1034,2019_Mar_07_1401,mf_amp_cond2,3.0.4,59.98326305097247,
clean,&&&&&&&&,left,sanctity.virtue,slending,,,,,,,,,,,,,,,0,55,55,325,,,,,,,,,,,,,AMP,right,0.6003977577777277,0,,,,,,,,,,,,,,right,0,0.6003977577777277,,,,,,,,,,,1034,2019_Mar_07_1401,mf_amp_cond2,3.0.4,59.98326305097247,
riot,&&&&&&&&,right,authority.vice,slending,,,,,,,,,,,,,,,0,56,56,33,,,,,,,,,,,,,AMP,right,1.4339270514415148,1,,,,,,,,,,,,,,right,1,1.4339270514415148,,,,,,,,,,,1034,2019_Mar_07_1401,mf_amp_cond2,3.0.4,59.98326305097247,
help,&&&&,left,care.virtue,wump,,,,,,,,,,,,,,,0,57,57,8,,,,,,,,,,,,,AMP,left,2.7842556939144743,1,,,,,,,,,,,,,,left,1,2.7842556939144743,,,,,,,,,,,1034,2019_Mar_07_1401,mf_amp_cond2,3.0.4,59.98326305097247,
penalty,&&&&&&&,right,authority.vice,scalbel,,,,,,,,,,,,,,,0,58,58,228,,,,,,,,,,,,,AMP,left,0.8837733941675197,0,,,,,,,,,,,,,,left,0,0.8837733941675197,,,,,,,,,,,1034,2019_Mar_07_1401,mf_amp_cond2,3.0.4,59.98326305097247,
lies,&&&&,right,fairness.vice,tove,,,,,,,,,,,,,,,0,59,59,29,,,,,,,,,,,,,AMP,left,0.6670406269704472,0,,,,,,,,,,,,,,left,0,0.6670406269704472,,,,,,,,,,,1034,2019_Mar_07_1401,mf_amp_cond2,3.0.4,59.98326305097247,
refused,&&&&&&&&&,right,authority.vice,gondensed,,,,,,,,,,,,,,,0,60,60,27,,,,,,,,,,,,,AMP,left,0.41702410985590177,0,,,,,,,,,,,,,,left,0,0.41702410985590177,,,,,,,,,,,1034,2019_Mar_07_1401,mf_amp_cond2,3.0.4,59.98326305097247,
civilians,&&&&&&&&&,right,care.vice,discovars,,,,,,,,,,,,,,,0,61,61,32,,,,,,,,,,,,,AMP,right,0.5170312298546378,1,,,,,,,,,,,,,,right,1,0.5170312298546378,,,,,,,,,,,1034,2019_Mar_07_1401,mf_amp_cond2,3.0.4,59.98326305097247,
praised,&&&&&&,left,loyalty.virtue,sgrawl,,,,,,,,,,,,,,,0,62,62,250,,,,,,,,,,,,,AMP,right,0.6170543858872861,0,,,,,,,,,,,,,,right,0,0.6170543858872861,,,,,,,,,,,1034,2019_Mar_07_1401,mf_amp_cond2,3.0.4,59.98326305097247,
love,&&&&&&&&,left,loyalty.virtue,gowlands,,,,,,,,,,,,,,,0,63,63,272,,,,,,,,,,,,,AMP,left,1.0671569844303121,1,,,,,,,,,,,,,,left,1,1.0671569844303121,,,,,,,,,,,1034,2019_Mar_07_1401,mf_amp_cond2,3.0.4,59.98326305097247,
help,&&&&&&&&&&&&&,left,care.virtue,synchronazers,,,,,,,,,,,,,,,0,64,64,304,,,,,,,,,,,,,AMP,right,1.1838547289301005,0,,,,,,,,,,,,,,right,0,1.1838547289301005,,,,,,,,,,,1034,2019_Mar_07_1401,mf_amp_cond2,3.0.4,59.98326305097247,
actively,&&&&&&,left,authority.virtue,papert,,,,,,,,,,,,,,,0,65,65,229,,,,,,,,,,,,,AMP,right,0.7004084057041382,0,,,,,,,,,,,,,,right,0,0.7004084057041382,,,,,,,,,,,1034,2019_Mar_07_1401,mf_amp_cond2,3.0.4,59.98326305097247,
sharing,&&&&&,left,loyalty.virtue,leact,,,,,,,,,,,,,,,0,66,66,96,,,,,,,,,,,,,AMP,right,0.4836878258922752,0,,,,,,,,,,,,,,right,0,0.4836878258922752,,,,,,,,,,,1034,2019_Mar_07_1401,mf_amp_cond2,3.0.4,59.98326305097247,
penalty,&&&&&&&,right,authority.vice,Loorish,,,,,,,,,,,,,,,0,67,67,290,,,,,,,,,,,,,AMP,left,0.8502981740089126,0,,,,,,,,,,,,,,left,0,0.8502981740089126,,,,,,,,,,,1034,2019_Mar_07_1401,mf_amp_cond2,3.0.4,59.98326305097247,
suicide,&&&,right,care.vice,oam,,,,,,,,,,,,,,,0,68,68,12,,,,,,,,,,,,,AMP,right,2.050738972500767,1,,,,,,,,,,,,,,right,1,2.050738972500767,,,,,,,,,,,1034,2019_Mar_07_1401,mf_amp_cond2,3.0.4,59.98326305097247,
good,&&&&&&&,left,care.virtue,baklara,,,,,,,,,,,,,,,0,69,69,131,,,,,,,,,,,,,AMP,right,0.7170554121933037,0,,,,,,,,,,,,,,right,0,0.7170554121933037,,,,,,,,,,,1034,2019_Mar_07_1401,mf_amp_cond2,3.0.4,59.98326305097247,
fraud,&&&&,right,fairness.vice,coom,,,,,,,,,,,,,,,0,70,70,163,,,,,,,,,,,,,AMP,right,0.6337174284103639,1,,,,,,,,,,,,,,right,1,0.6337174284103639,,,,,,,,,,,1034,2019_Mar_07_1401,mf_amp_cond2,3.0.4,59.98326305097247,
growth,&&&&,left,care.virtue,ning,,,,,,,,,,,,,,,0,71,71,268,,,,,,,,,,,,,AMP,right,0.8170772853432027,0,,,,,,,,,,,,,,right,0,0.8170772853432027,,,,,,,,,,,1034,2019_Mar_07_1401,mf_amp_cond2,3.0.4,59.98326305097247,
violations,&&&&&&&&&&&,right,sanctity.vice,blunderints,,,,,,,,,,,,,,,0,72,72,101,,,,,,,,,,,,,AMP,right,0.38367781940723944,1,,,,,,,,,,,,,,right,1,0.38367781940723944,,,,,,,,,,,1034,2019_Mar_07_1401,mf_amp_cond2,3.0.4,59.98326305097247,
racist,&&&&&,right,sanctity.vice,leact,,,,,,,,,,,,,,,0,73,73,3,,,,,,,,,,,,,AMP,right,0.3836986662511208,1,,,,,,,,,,,,,,right,1,0.3836986662511208,,,,,,,,,,,1034,2019_Mar_07_1401,mf_amp_cond2,3.0.4,59.98326305097247,
terrorists,&&&&&&&&,right,fairness.vice,lachelor,,,,,,,,,,,,,,,0,74,74,56,,,,,,,,,,,,,AMP,left,0.5003566413874978,0,,,,,,,,,,,,,,left,0,0.5003566413874978,,,,,,,,,,,1034,2019_Mar_07_1401,mf_amp_cond2,3.0.4,59.98326305097247,
encourage,&&&&&&&&&&,left,authority.virtue,elduringly,,,,,,,,,,,,,,,0,75,75,198,,,,,,,,,,,,,AMP,left,0.6837302893093238,1,,,,,,,,,,,,,,left,1,0.6837302893093238,,,,,,,,,,,1034,2019_Mar_07_1401,mf_amp_cond2,3.0.4,59.98326305097247,
protesters,&&&&&&&&&&&&,right,authority.vice,rorroborated,,,,,,,,,,,,,,,0,76,76,244,,,,,,,,,,,,,AMP,right,0.5670270925579644,1,,,,,,,,,,,,,,right,1,0.5670270925579644,,,,,,,,,,,1034,2019_Mar_07_1401,mf_amp_cond2,3.0.4,59.98326305097247,
support,&&&&&&&&,left,loyalty.virtue,glacenta,,,,,,,,,,,,,,,0,77,77,26,,,,,,,,,,,,,AMP,right,0.35032960463468044,0,,,,,,,,,,,,,,right,0,0.35032960463468044,,,,,,,,,,,1034,2019_Mar_07_1401,mf_amp_cond2,3.0.4,59.98326305097247,
illegal,&&&&&&&&&&&,right,fairness.vice,shoirmaster,,,,,,,,,,,,,,,0,78,78,280,,,,,,,,,,,,,AMP,right,0.23364821688915072,1,,,,,,,,,,,,,,right,1,0.23364821688915072,,,,,,,,,,,1034,2019_Mar_07_1401,mf_amp_cond2,3.0.4,59.98326305097247,
peace,&&&&&&&,left,care.virtue,carvels,,,,,,,,,,,,,,,0,79,79,122,,,,,,,,,,,,,AMP,right,0.4004226457018376,0,,,,,,,,,,,,,,right,0,0.4004226457018376,,,,,,,,,,,1034,2019_Mar_07_1401,mf_amp_cond2,3.0.4,59.98326305097247,
blamed,&&&&&&&,right,loyalty.vice,stindig,,,,,,,,,,,,,,,0,80,80,281,,,,,,,,,,,,,AMP,right,0.350421972188542,1,,,,,,,,,,,,,,right,1,0.350421972188542,,,,,,,,,,,1034,2019_Mar_07_1401,mf_amp_cond2,3.0.4,59.98326305097247,
civilians,&&&&&&&&,right,care.vice,clamorek,,,,,,,,,,,,,,,0,81,81,256,,,,,,,,,,,,,AMP,right,0.3169836349070465,1,,,,,,,,,,,,,,right,1,0.3169836349070465,,,,,,,,,,,1034,2019_Mar_07_1401,mf_amp_cond2,3.0.4,59.98326305097247,
killed,&&&&&&&&&&&&&,right,care.vice,idexpressible,,,,,,,,,,,,,,,0,82,82,5,,,,,,,,,,,,,AMP,left,0.6504635375877115,0,,,,,,,,,,,,,,left,0,0.6504635375877115,,,,,,,,,,,1034,2019_Mar_07_1401,mf_amp_cond2,3.0.4,59.98326305097247,
rejected,&&&&&&&&&,right,authority.vice,godlaness,,,,,,,,,,,,,,,0,83,83,261,,,,,,,,,,,,,AMP,right,0.30033598697627895,1,,,,,,,,,,,,,,right,1,0.30033598697627895,,,,,,,,,,,1034,2019_Mar_07_1401,mf_amp_cond2,3.0.4,59.98326305097247,
protect,&&&&&&&&&&,left,fairness.virtue,ejanulated,,,,,,,,,,,,,,,0,84,84,314,,,,,,,,,,,,,AMP,left,0.6170495750770897,1,,,,,,,,,,,,,,left,1,0.6170495750770897,,,,,,,,,,,1034,2019_Mar_07_1401,mf_amp_cond2,3.0.4,59.98326305097247,
hand,&&&&&&,left,sanctity.virtue,letish,,,,,,,,,,,,,,,0,85,85,307,,,,,,,,,,,,,AMP,left,0.7503994575972683,1,,,,,,,,,,,,,,left,1,0.7503994575972683,,,,,,,,,,,1034,2019_Mar_07_1401,mf_amp_cond2,3.0.4,59.98326305097247,
died,&&&&&&&&&&&&,right,care.vice,rorroborated,,,,,,,,,,,,,,,0,86,86,61,,,,,,,,,,,,,AMP,left,0.7504446792120234,0,,,,,,,,,,,,,,left,0,0.7504446792120234,,,,,,,,,,,1034,2019_Mar_07_1401,mf_amp_cond2,3.0.4,59.98326305097247,
hope,&&&&&&&&&&&&&,left,loyalty.virtue,photocalkodes,,,,,,,,,,,,,,,0,87,87,242,,,,,,,,,,,,,AMP,left,0.8671360092982923,1,,,,,,,,,,,,,,left,1,0.8671360092982923,,,,,,,,,,,1034,2019_Mar_07_1401,mf_amp_cond2,3.0.4,59.98326305097247,
hope,&&&&&&&&&,left,loyalty.virtue,taxpayung,,,,,,,,,,,,,,,0,88,88,120,,,,,,,,,,,,,AMP,left,0.4670129167043342,1,,,,,,,,,,,,,,left,1,0.4670129167043342,,,,,,,,,,,1034,2019_Mar_07_1401,mf_amp_cond2,3.0.4,59.98326305097247,
slavery,&&&&&&&&&&&,right,loyalty.vice,egpeditious,,,,,,,,,,,,,,,0,89,89,50,,,,,,,,,,,,,AMP,left,0.4336810586860338,0,,,,,,,,,,,,,,left,0,0.4336810586860338,,,,,,,,,,,1034,2019_Mar_07_1401,mf_amp_cond2,3.0.4,59.98326305097247,
praised,&&&&&&&&&&&,left,loyalty.virtue,blunderints,,,,,,,,,,,,,,,0,90,90,11,,,,,,,,,,,,,AMP,left,0.6337389166953926,1,,,,,,,,,,,,,,left,1,0.6337389166953926,,,,,,,,,,,1034,2019_Mar_07_1401,mf_amp_cond2,3.0.4,59.98326305097247,
dumid,&&&&&&&&&,None,nonword,fangsters,,,,,,,,,,,,,,,0,91,91,247,,,,,,,,,,,,,AMP,left,0.5837032846288821,0,,,,,,,,,,,,,,left,0,0.5837032846288821,,,,,,,,,,,1034,2019_Mar_07_1401,mf_amp_cond2,3.0.4,59.98326305097247,
unpleasant,&&&&&&&&,None,control,nuckheap,,,,,,,,,,,,,,,0,92,92,203,,,,,,,,,,,,,AMP,left,0.45036462733219196,0,,,,,,,,,,,,,,left,0,0.45036462733219196,,,,,,,,,,,1034,2019_Mar_07_1401,mf_amp_cond2,3.0.4,59.98326305097247,
corruption,&&&&&&&&,right,sanctity.vice,clamorek,,,,,,,,,,,,,,,0,93,93,44,,,,,,,,,,,,,AMP,left,0.900447982634887,0,,,,,,,,,,,,,,left,0,0.900447982634887,,,,,,,,,,,1034,2019_Mar_07_1401,mf_amp_cond2,3.0.4,59.98326305097247,
penalty,&&&&&&&&&&,right,authority.vice,supervuned,,,,,,,,,,,,,,,0,94,94,39,,,,,,,,,,,,,AMP,right,0.8504489127249144,1,,,,,,,,,,,,,,right,1,0.8504489127249144,,,,,,,,,,,1034,2019_Mar_07_1401,mf_amp_cond2,3.0.4,59.98326305097247,
rejected,&&&&&&&&&&&&,right,authority.vice,rorroborated,,,,,,,,,,,,,,,0,95,95,140,,,,,,,,,,,,,AMP,left,0.36701958769435805,0,,,,,,,,,,,,,,left,0,0.36701958769435805,,,,,,,,,,,1034,2019_Mar_07_1401,mf_amp_cond2,3.0.4,59.98326305097247,
encourage,&&&&,left,authority.virtue,alar,,,,,,,,,,,,,,,0,96,96,117,,,,,,,,,,,,,AMP,left,0.6337761202933052,1,,,,,,,,,,,,,,left,1,0.6337761202933052,,,,,,,,,,,1034,2019_Mar_07_1401,mf_amp_cond2,3.0.4,59.98326305097247,
faith,&&&&&&&&&&&&,left,sanctity.virtue,rorroborated,,,,,,,,,,,,,,,0,97,97,296,,,,,,,,,,,,,AMP,left,0.3336575819328118,1,,,,,,,,,,,,,,left,1,0.3336575819328118,,,,,,,,,,,1034,2019_Mar_07_1401,mf_amp_cond2,3.0.4,59.98326305097247,
groups,&&&&&&&&&&,right,loyalty.vice,galamitous,,,,,,,,,,,,,,,0,98,98,245,,,,,,,,,,,,,AMP,left,0.4336810586860338,0,,,,,,,,,,,,,,left,0,0.4336810586860338,,,,,,,,,,,1034,2019_Mar_07_1401,mf_amp_cond2,3.0.4,59.98326305097247,
rebels,&&&&&&&&&,right,authority.vice,godlaness,,,,,,,,,,,,,,,0,99,99,221,,,,,,,,,,,,,AMP,left,0.36702696426982584,0,,,,,,,,,,,,,,left,0,0.36702696426982584,,,,,,,,,,,1034,2019_Mar_07_1401,mf_amp_cond2,3.0.4,59.98326305097247,
critics,&&&&&&&&,right,loyalty.vice,ugeasily,,,,,,,,,,,,,,,0,100,100,322,,,,,,,,,,,,,AMP,right,1.183784170382296,1,,,,,,,,,,,,,,right,1,1.183784170382296,,,,,,,,,,,1034,2019_Mar_07_1401,mf_amp_cond2,3.0.4,59.98326305097247,
dumid,&&&&&&&&&&&,None,nonword,blunderints,,,,,,,,,,,,,,,0,101,101,169,,,,,,,,,,,,,AMP,right,0.30035747526108025,0,,,,,,,,,,,,,,right,0,0.30035747526108025,,,,,,,,,,,1034,2019_Mar_07_1401,mf_amp_cond2,3.0.4,59.98326305097247,
forced,&&&&&&&&,right,fairness.vice,crinking,,,,,,,,,,,,,,,0,102,102,258,,,,,,,,,,,,,AMP,left,0.3503212658974917,0,,,,,,,,,,,,,,left,0,0.3503212658974917,,,,,,,,,,,1034,2019_Mar_07_1401,mf_amp_cond2,3.0.4,59.98326305097247,
ronviolence,&&&&&&&&&&,None,nonword,frojecting,,,,,,,,,,,,,,,0,103,103,288,,,,,,,,,,,,,AMP,left,0.7837791029955952,0,,,,,,,,,,,,,,left,0,0.7837791029955952,,,,,,,,,,,1034,2019_Mar_07_1401,mf_amp_cond2,3.0.4,59.98326305097247,
support,&&&&&&&&&,left,loyalty.virtue,fangsters,,,,,,,,,,,,,,,0,104,104,155,,,,,,,,,,,,,AMP,left,0.36697468680017664,1,,,,,,,,,,,,,,left,1,0.36697468680017664,,,,,,,,,,,1034,2019_Mar_07_1401,mf_amp_cond2,3.0.4,59.98326305097247,
safety,&&&&&&&&&,left,care.virtue,gondensed,,,,,,,,,,,,,,,0,105,105,267,,,,,,,,,,,,,AMP,right,0.333668165715153,0,,,,,,,,,,,,,,right,0,0.333668165715153,,,,,,,,,,,1034,2019_Mar_07_1401,mf_amp_cond2,3.0.4,59.98326305097247,
intelligence,&&&&&&&&,left,loyalty.virtue,sidearbs,,,,,,,,,,,,,,,0,106,106,326,,,,,,,,,,,,,AMP,left,0.5836955873326133,1,,,,,,,,,,,,,,left,1,0.5836955873326133,,,,,,,,,,,1034,2019_Mar_07_1401,mf_amp_cond2,3.0.4,59.98326305097247,
illegal,&&&&&&,right,fairness.vice,sgrawl,,,,,,,,,,,,,,,0,107,107,38,,,,,,,,,,,,,AMP,right,0.7670487091313589,1,,,,,,,,,,,,,,right,1,0.7670487091313589,,,,,,,,,,,1034,2019_Mar_07_1401,mf_amp_cond2,3.0.4,59.98326305097247,
men,&&&&&&&&,right,loyalty.vice,sfumatoy,,,,,,,,,,,,,,,0,108,108,263,,,,,,,,,,,,,AMP,left,1.167192969289772,0,,,,,,,,,,,,,,left,0,1.167192969289772,,,,,,,,,,,1034,2019_Mar_07_1401,mf_amp_cond2,3.0.4,59.98326305097247,
grovelire,&&&&&&&&&&&,None,nonword,fornicalion,,,,,,,,,,,,,,,0,109,109,4,,,,,,,,,,,,,AMP,left,0.8671283120020234,0,,,,,,,,,,,,,,left,0,0.8671283120020234,,,,,,,,,,,1034,2019_Mar_07_1401,mf_amp_cond2,3.0.4,59.98326305097247,
ability,&&&&&&&&,left,authority.virtue,crinking,,,,,,,,,,,,,,,0,110,110,23,,,,,,,,,,,,,AMP,left,0.46702350048644803,1,,,,,,,,,,,,,,left,1,0.46702350048644803,,,,,,,,,,,1034,2019_Mar_07_1401,mf_amp_cond2,3.0.4,59.98326305097247,
growth,&&&&&&&&,left,care.virtue,sidearbs,,,,,,,,,,,,,,,0,111,111,58,,,,,,,,,,,,,AMP,right,0.7003904453463292,0,,,,,,,,,,,,,,right,0,0.7003904453463292,,,,,,,,,,,1034,2019_Mar_07_1401,mf_amp_cond2,3.0.4,59.98326305097247,
care,&&&,left,care.virtue,oam,,,,,,,,,,,,,,,0,112,112,115,,,,,,,,,,,,,AMP,right,0.4170189783249043,0,,,,,,,,,,,,,,right,0,0.4170189783249043,,,,,,,,,,,1034,2019_Mar_07_1401,mf_amp_cond2,3.0.4,59.98326305097247,
corruption,&&&&,right,sanctity.vice,wump,,,,,,,,,,,,,,,0,113,113,107,,,,,,,,,,,,,AMP,left,0.5835942396001883,0,,,,,,,,,,,,,,left,0,0.5835942396001883,,,,,,,,,,,1034,2019_Mar_07_1401,mf_amp_cond2,3.0.4,59.98326305097247,
encourage,&&&&&&&&&&,left,authority.virtue,ejanulated,,,,,,,,,,,,,,,0,114,114,64,,,,,,,,,,,,,AMP,left,0.8170731159743809,1,,,,,,,,,,,,,,left,1,0.8170731159743809,,,,,,,,,,,1034,2019_Mar_07_1401,mf_amp_cond2,3.0.4,59.98326305097247,
protesters,&&&&&&&&&&,right,authority.vice,elduringly,,,,,,,,,,,,,,,0,115,115,137,,,,,,,,,,,,,AMP,right,0.9504682201093146,1,,,,,,,,,,,,,,right,1,0.9504682201093146,,,,,,,,,,,1034,2019_Mar_07_1401,mf_amp_cond2,3.0.4,59.98326305097247,
blamed,&&&&&&&&&&,right,loyalty.vice,honstables,,,,,,,,,,,,,,,0,116,116,241,,,,,,,,,,,,,AMP,left,0.500345736884583,0,,,,,,,,,,,,,,left,0,0.500345736884583,,,,,,,,,,,1034,2019_Mar_07_1401,mf_amp_cond2,3.0.4,59.98326305097247,
useful,&&&&&&&&&&&,left,authority.virtue,fornicalion,,,,,,,,,,,,,,,0,117,117,312,,,,,,,,,,,,,AMP,left,0.6837254784991273,1,,,,,,,,,,,,,,left,1,0.6837254784991273,,,,,,,,,,,1034,2019_Mar_07_1401,mf_amp_cond2,3.0.4,59.98326305097247,
critics,&&&&&&&&,right,loyalty.vice,sfumatoy,,,,,,,,,,,,,,,0,118,118,160,,,,,,,,,,,,,AMP,right,0.4670122752629595,1,,,,,,,,,,,,,,right,1,0.4670122752629595,,,,,,,,,,,1034,2019_Mar_07_1401,mf_amp_cond2,3.0.4,59.98326305097247,
died,&&&&,right,care.vice,alar,,,,,,,,,,,,,,,0,119,119,176,,,,,,,,,,,,,AMP,left,0.6670560215627575,0,,,,,,,,,,,,,,left,0,0.6670560215627575,,,,,,,,,,,1034,2019_Mar_07_1401,mf_amp_cond2,3.0.4,59.98326305097247,
lorthwhile,&&&&&&&&,None,nonword,suggists,,,,,,,,,,,,,,,0,120,120,36,,,,,,,,,,,,,AMP,left,0.5837157927348926,0,,,,,,,,,,,,,,left,0,0.5837157927348926,,,,,,,,,,,1034,2019_Mar_07_1401,mf_amp_cond2,3.0.4,59.98326305097247,
harassment,&&&&&&&&,right,sanctity.vice,gowlands,,,,,,,,,,,,,,,0,121,121,185,,,,,,,,,,,,,AMP,left,0.5170107037315574,0,,,,,,,,,,,,,,left,0,0.5170107037315574,,,,,,,,,,,1034,2019_Mar_07_1401,mf_amp_cond2,3.0.4,59.98326305097247,
serial,&&&&&&&&,right,sanctity.vice,glacenta,,,,,,,,,,,,,,,0,122,122,236,,,,,,,,,,,,,AMP,left,0.46702446264862374,0,,,,,,,,,,,,,,left,0,0.46702446264862374,,,,,,,,,,,1034,2019_Mar_07_1401,mf_amp_cond2,3.0.4,59.98326305097247,
free,&&&&&&&,left,fairness.virtue,chadows,,,,,,,,,,,,,,,0,123,123,81,,,,,,,,,,,,,AMP,left,0.6502422403236778,1,,,,,,,,,,,,,,left,1,0.6502422403236778,,,,,,,,,,,1034,2019_Mar_07_1401,mf_amp_cond2,3.0.4,59.98326305097247,
unpleasant,&&&&&&&&&&,None,control,clattening,,,,,,,,,,,,,,,0,124,124,287,,,,,,,,,,,,,AMP,left,0.21696689328791763,0,,,,,,,,,,,,,,left,0,0.21696689328791763,,,,,,,,,,,1034,2019_Mar_07_1401,mf_amp_cond2,3.0.4,59.98326305097247,
men,&&&&&&&&&&&&&,right,loyalty.vice,esquisiteness,,,,,,,,,,,,,,,0,125,125,87,,,,,,,,,,,,,AMP,left,0.2169749113047601,0,,,,,,,,,,,,,,left,0,0.2169749113047601,,,,,,,,,,,1034,2019_Mar_07_1401,mf_amp_cond2,3.0.4,59.98326305097247,
trust,&&&&&&&&&&&,left,authority.virtue,egpeditious,,,,,,,,,,,,,,,0,126,126,293,,,,,,,,,,,,,AMP,right,0.4336836244515325,0,,,,,,,,,,,,,,right,0,0.4336836244515325,,,,,,,,,,,1034,2019_Mar_07_1401,mf_amp_cond2,3.0.4,59.98326305097247,
died,&&&&&&&,right,care.vice,baklara,,,,,,,,,,,,,,,0,127,127,308,,,,,,,,,,,,,AMP,left,1.117177863345887,0,,,,,,,,,,,,,,left,0,1.117177863345887,,,,,,,,,,,1034,2019_Mar_07_1401,mf_amp_cond2,3.0.4,59.98326305097247,
victim,&&&&&&&,right,care.vice,gedious,,,,,,,,,,,,,,,0,128,128,55,,,,,,,,,,,,,AMP,right,0.6337334644438215,1,,,,,,,,,,,,,,right,1,0.6337334644438215,,,,,,,,,,,1034,2019_Mar_07_1401,mf_amp_cond2,3.0.4,59.98326305097247,
pullness,&&&&&&&&,None,nonword,sliptery,,,,,,,,,,,,,,,0,129,129,139,,,,,,,,,,,,,AMP,right,0.7837640291238586,0,,,,,,,,,,,,,,right,0,0.7837640291238586,,,,,,,,,,,1034,2019_Mar_07_1401,mf_amp_cond2,3.0.4,59.98326305097247,
fraud,&&&&,right,fairness.vice,coom,,,,,,,,,,,,,,,0,130,130,222,,,,,,,,,,,,,AMP,right,0.4336675884178476,1,,,,,,,,,,,,,,right,1,0.4336675884178476,,,,,,,,,,,1034,2019_Mar_07_1401,mf_amp_cond2,3.0.4,59.98326305097247,
peace,&&&&&&&,left,care.virtue,chadows,,,,,,,,,,,,,,,0,131,131,182,,,,,,,,,,,,,AMP,right,0.3503405091375953,0,,,,,,,,,,,,,,right,0,0.3503405091375953,,,,,,,,,,,1034,2019_Mar_07_1401,mf_amp_cond2,3.0.4,59.98326305097247,
protect,&&&&&&&&&,left,fairness.virtue,gondensed,,,,,,,,,,,,,,,0,132,132,142,,,,,,,,,,,,,AMP,right,0.550370143727605,0,,,,,,,,,,,,,,right,0,0.550370143727605,,,,,,,,,,,1034,2019_Mar_07_1401,mf_amp_cond2,3.0.4,59.98326305097247,
groups,&&&&&&&&&&,right,loyalty.vice,clattening,,,,,,,,,,,,,,,0,133,133,151,,,,,,,,,,,,,AMP,right,0.5503656536382096,1,,,,,,,,,,,,,,right,1,0.5503656536382096,,,,,,,,,,,1034,2019_Mar_07_1401,mf_amp_cond2,3.0.4,59.98326305097247,
agreement,&&&&&,left,fairness.virtue,hasks,,,,,,,,,,,,,,,0,134,134,128,,,,,,,,,,,,,AMP,right,0.48367788355153607,0,,,,,,,,,,,,,,right,0,0.48367788355153607,,,,,,,,,,,1034,2019_Mar_07_1401,mf_amp_cond2,3.0.4,59.98326305097247,
focomotive,&&&&&,None,nonword,touls,,,,,,,,,,,,,,,0,135,135,83,,,,,,,,,,,,,AMP,right,0.4835755736569354,0,,,,,,,,,,,,,,right,0,0.4835755736569354,,,,,,,,,,,1034,2019_Mar_07_1401,mf_amp_cond2,3.0.4,59.98326305097247,
prison,&&&&&&&,right,fairness.vice,Loorish,,,,,,,,,,,,,,,0,136,136,224,,,,,,,,,,,,,AMP,right,0.5170158352625549,1,,,,,,,,,,,,,,right,1,0.5170158352625549,,,,,,,,,,,1034,2019_Mar_07_1401,mf_amp_cond2,3.0.4,59.98326305097247,
refused,&&&&&&&&,right,authority.vice,emassion,,,,,,,,,,,,,,,0,137,137,237,,,,,,,,,,,,,AMP,right,0.3336604684188842,1,,,,,,,,,,,,,,right,1,0.3336604684188842,,,,,,,,,,,1034,2019_Mar_07_1401,mf_amp_cond2,3.0.4,59.98326305097247,
groups,&&&&&,right,loyalty.vice,saned,,,,,,,,,,,,,,,0,138,138,43,,,,,,,,,,,,,AMP,left,0.3336784287766932,0,,,,,,,,,,,,,,left,0,0.3336784287766932,,,,,,,,,,,1034,2019_Mar_07_1401,mf_amp_cond2,3.0.4,59.98326305097247,
ban,&&&&&&&&&,right,loyalty.vice,ittutable,,,,,,,,,,,,,,,0,139,139,25,,,,,,,,,,,,,AMP,left,0.5170347577820849,0,,,,,,,,,,,,,,left,0,0.5170347577820849,,,,,,,,,,,1034,2019_Mar_07_1401,mf_amp_cond2,3.0.4,59.98326305097247,
unpleasant,&&&&&&&&,None,control,ugeasily,,,,,,,,,,,,,,,0,140,140,35,,,,,,,,,,,,,AMP,left,0.5337122327355246,0,,,,,,,,,,,,,,left,0,0.5337122327355246,,,,,,,,,,,1034,2019_Mar_07_1401,mf_amp_cond2,3.0.4,59.98326305097247,
intelligence,&&&&&&,left,loyalty.virtue,letish,,,,,,,,,,,,,,,0,141,141,65,,,,,,,,,,,,,AMP,left,1.2338791357731225,1,,,,,,,,,,,,,,left,1,1.2338791357731225,,,,,,,,,,,1034,2019_Mar_07_1401,mf_amp_cond2,3.0.4,59.98326305097247,
slavery,&&&&&,right,loyalty.vice,saned,,,,,,,,,,,,,,,0,142,142,85,,,,,,,,,,,,,AMP,left,0.7003968597596213,0,,,,,,,,,,,,,,left,0,0.7003968597596213,,,,,,,,,,,1034,2019_Mar_07_1401,mf_amp_cond2,3.0.4,59.98326305097247,
faspberry,&&&&&&&,None,nonword,pharing,,,,,,,,,,,,,,,0,143,143,289,,,,,,,,,,,,,AMP,right,0.5836843621088974,0,,,,,,,,,,,,,,right,0,0.5836843621088974,,,,,,,,,,,1034,2019_Mar_07_1401,mf_amp_cond2,3.0.4,59.98326305097247,
peaceful,&&&&&,left,authority.virtue,uller,,,,,,,,,,,,,,,0,144,144,277,,,,,,,,,,,,,AMP,right,0.517020646072524,0,,,,,,,,,,,,,,right,0,0.517020646072524,,,,,,,,,,,1034,2019_Mar_07_1401,mf_amp_cond2,3.0.4,59.98326305097247,
love,&&&&&&&&&&,left,loyalty.virtue,frojecting,,,,,,,,,,,,,,,0,145,145,141,,,,,,,,,,,,,AMP,left,1.1004891631691862,1,,,,,,,,,,,,,,left,1,1.1004891631691862,,,,,,,,,,,1034,2019_Mar_07_1401,mf_amp_cond2,3.0.4,59.98326305097247,
asn,&&&&&&&,None,nonword,chadows,,,,,,,,,,,,,,,0,146,146,116,,,,,,,,,,,,,AMP,right,0.883790713083954,0,,,,,,,,,,,,,,right,0,0.883790713083954,,,,,,,,,,,1034,2019_Mar_07_1401,mf_amp_cond2,3.0.4,59.98326305097247,
grovelire,&&&&&&&&,None,nonword,clamorek,,,,,,,,,,,,,,,0,147,147,156,,,,,,,,,,,,,AMP,left,0.48368814661284887,0,,,,,,,,,,,,,,left,0,0.48368814661284887,,,,,,,,,,,1034,2019_Mar_07_1401,mf_amp_cond2,3.0.4,59.98326305097247,
fair,&&&&&&&&&&,left,fairness.virtue,clattening,,,,,,,,,,,,,,,0,148,148,216,,,,,,,,,,,,,AMP,right,0.500326493644252,0,,,,,,,,,,,,,,right,0,0.500326493644252,,,,,,,,,,,1034,2019_Mar_07_1401,mf_amp_cond2,3.0.4,59.98326305097247,
peace,&&&&&&,left,care.virtue,papert,,,,,,,,,,,,,,,0,149,149,59,,,,,,,,,,,,,AMP,right,0.45036302372886894,0,,,,,,,,,,,,,,right,0,0.45036302372886894,,,,,,,,,,,1034,2019_Mar_07_1401,mf_amp_cond2,3.0.4,59.98326305097247,
harassment,&&&&&,right,sanctity.vice,uller,,,,,,,,,,,,,,,0,150,150,123,,,,,,,,,,,,,AMP,right,0.4670286320174455,1,,,,,,,,,,,,,,right,1,0.4670286320174455,,,,,,,,,,,1034,2019_Mar_07_1401,mf_amp_cond2,3.0.4,59.98326305097247,
scandal,&&&,right,sanctity.vice,oam,,,,,,,,,,,,,,,0,151,151,174,,,,,,,,,,,,,AMP,right,0.4170128846321859,1,,,,,,,,,,,,,,right,1,0.4170128846321859,,,,,,,,,,,1034,2019_Mar_07_1401,mf_amp_cond2,3.0.4,59.98326305097247,
slavery,&&&&&&&&,right,loyalty.vice,framatic,,,,,,,,,,,,,,,0,152,152,246,,,,,,,,,,,,,AMP,right,0.35033441544487687,1,,,,,,,,,,,,,,right,1,0.35033441544487687,,,,,,,,,,,1034,2019_Mar_07_1401,mf_amp_cond2,3.0.4,59.98326305097247,
dumid,&&&&&&&,None,nonword,scalbel,,,,,,,,,,,,,,,0,153,153,134,,,,,,,,,,,,,AMP,right,0.3836329185132854,0,,,,,,,,,,,,,,right,0,0.3836329185132854,,,,,,,,,,,1034,2019_Mar_07_1401,mf_amp_cond2,3.0.4,59.98326305097247,
corruption,&&&&&,right,sanctity.vice,noped,,,,,,,,,,,,,,,0,154,154,239,,,,,,,,,,,,,AMP,left,0.4003556150814802,0,,,,,,,,,,,,,,left,0,0.4003556150814802,,,,,,,,,,,1034,2019_Mar_07_1401,mf_amp_cond2,3.0.4,59.98326305097247,
faspberry,&&&&&,None,nonword,hasks,,,,,,,,,,,,,,,0,155,155,42,,,,,,,,,,,,,AMP,right,0.26697526409748207,0,,,,,,,,,,,,,,right,0,0.26697526409748207,,,,,,,,,,,1034,2019_Mar_07_1401,mf_amp_cond2,3.0.4,59.98326305097247,
scandal,&&&&&&&&,right,sanctity.vice,framatic,,,,,,,,,,,,,,,0,156,156,54,,,,,,,,,,,,,AMP,left,0.4003495213885344,0,,,,,,,,,,,,,,left,0,0.4003495213885344,,,,,,,,,,,1034,2019_Mar_07_1401,mf_amp_cond2,3.0.4,59.98326305097247,
benefit,&&&&&&&,left,fairness.virtue,chadows,,,,,,,,,,,,,,,0,157,157,301,,,,,,,,,,,,,AMP,right,0.1503509646315706,0,,,,,,,,,,,,,,right,0,0.1503509646315706,,,,,,,,,,,1034,2019_Mar_07_1401,mf_amp_cond2,3.0.4,59.98326305097247,
useful,&&&&&&&&&,left,authority.virtue,fangsters,,,,,,,,,,,,,,,0,158,158,74,,,,,,,,,,,,,AMP,right,0.38367429148001975,0,,,,,,,,,,,,,,right,0,0.38367429148001975,,,,,,,,,,,1034,2019_Mar_07_1401,mf_amp_cond2,3.0.4,59.98326305097247,
prosecution,&&&&&&&&&,right,authority.vice,ittutable,,,,,,,,,,,,,,,0,159,159,100,,,,,,,,,,,,,AMP,right,0.38368038517273817,1,,,,,,,,,,,,,,right,1,0.38368038517273817,,,,,,,,,,,1034,2019_Mar_07_1401,mf_amp_cond2,3.0.4,59.98326305097247,
win,&&&&&&&&&&&&&,left,fairness.virtue,idexpressible,,,,,,,,,,,,,,,0,160,160,102,,,,,,,,,,,,,AMP,right,0.3836948176031001,0,,,,,,,,,,,,,,right,0,0.3836948176031001,,,,,,,,,,,1034,2019_Mar_07_1401,mf_amp_cond2,3.0.4,59.98326305097247,
protect,&&&&&&&,left,fairness.virtue,dramens,,,,,,,,,,,,,,,0,161,161,215,,,,,,,,,,,,,AMP,right,0.617049254356516,0,,,,,,,,,,,,,,right,0,0.617049254356516,,,,,,,,,,,1034,2019_Mar_07_1401,mf_amp_cond2,3.0.4,59.98326305097247,
army,&&&&,right,loyalty.vice,wump,,,,,,,,,,,,,,,0,162,162,251,,,,,,,,,,,,,AMP,left,0.5003463783259576,0,,,,,,,,,,,,,,left,0,0.5003463783259576,,,,,,,,,,,1034,2019_Mar_07_1401,mf_amp_cond2,3.0.4,59.98326305097247,
perfect,&&&&&&&&&,left,sanctity.virtue,gondensed,,,,,,,,,,,,,,,0,163,163,181,,,,,,,,,,,,,AMP,right,0.35033120823800346,0,,,,,,,,,,,,,,right,0,0.35033120823800346,,,,,,,,,,,1034,2019_Mar_07_1401,mf_amp_cond2,3.0.4,59.98326305097247,
values,&&&&&&&&&&,left,sanctity.virtue,Oregoniuns,,,,,,,,,,,,,,,0,164,164,318,,,,,,,,,,,,,AMP,right,0.3836739707592187,0,,,,,,,,,,,,,,right,0,0.3836739707592187,,,,,,,,,,,1034,2019_Mar_07_1401,mf_amp_cond2,3.0.4,59.98326305097247,
hand,&&&&,left,sanctity.virtue,wump,,,,,,,,,,,,,,,0,165,165,186,,,,,,,,,,,,,AMP,left,0.3836887239101543,1,,,,,,,,,,,,,,left,1,0.3836887239101543,,,,,,,,,,,1034,2019_Mar_07_1401,mf_amp_cond2,3.0.4,59.98326305097247,
good,&&&&&&&&,left,care.virtue,suggists,,,,,,,,,,,,,,,0,166,166,234,,,,,,,,,,,,,AMP,right,0.5837215657070374,0,,,,,,,,,,,,,,right,0,0.5837215657070374,,,,,,,,,,,1034,2019_Mar_07_1401,mf_amp_cond2,3.0.4,59.98326305097247,
prosecution,&&&&&,right,authority.vice,noped,,,,,,,,,,,,,,,0,167,167,20,,,,,,,,,,,,,AMP,left,0.36701285256026495,0,,,,,,,,,,,,,,left,0,0.36701285256026495,,,,,,,,,,,1034,2019_Mar_07_1401,mf_amp_cond2,3.0.4,59.98326305097247,
died,&&&&&&&&&,right,care.vice,godlaness,,,,,,,,,,,,,,,0,168,168,124,,,,,,,,,,,,,AMP,left,0.45019272105173513,0,,,,,,,,,,,,,,left,0,0.45019272105173513,,,,,,,,,,,1034,2019_Mar_07_1401,mf_amp_cond2,3.0.4,59.98326305097247,
scandal,&&&&&&&&&&&,right,sanctity.vice,vicissifude,,,,,,,,,,,,,,,0,169,169,118,,,,,,,,,,,,,AMP,left,0.33365661977109085,0,,,,,,,,,,,,,,left,0,0.33365661977109085,,,,,,,,,,,1034,2019_Mar_07_1401,mf_amp_cond2,3.0.4,59.98326305097247,
focomotive,&&&&&&&&&,None,nonword,refuejing,,,,,,,,,,,,,,,0,170,170,14,,,,,,,,,,,,,AMP,right,0.9337856136253322,0,,,,,,,,,,,,,,right,0,0.9337856136253322,,,,,,,,,,,1034,2019_Mar_07_1401,mf_amp_cond2,3.0.4,59.98326305097247,
brudent,&&&&,None,nonword,tove,,,,,,,,,,,,,,,0,171,171,196,,,,,,,,,,,,,AMP,left,0.7004125750727326,0,,,,,,,,,,,,,,left,0,0.7004125750727326,,,,,,,,,,,1034,2019_Mar_07_1401,mf_amp_cond2,3.0.4,59.98326305097247,
actively,&&&&&&&&,left,authority.virtue,emassion,,,,,,,,,,,,,,,0,172,172,34,,,,,,,,,,,,,AMP,right,0.3836858374243093,0,,,,,,,,,,,,,,right,0,0.3836858374243093,,,,,,,,,,,1034,2019_Mar_07_1401,mf_amp_cond2,3.0.4,59.98326305097247,
support,&&&&&&&&,left,loyalty.virtue,sliptery,,,,,,,,,,,,,,,0,173,173,180,,,,,,,,,,,,,AMP,right,0.5337131948974729,0,,,,,,,,,,,,,,right,0,0.5337131948974729,,,,,,,,,,,1034,2019_Mar_07_1401,mf_amp_cond2,3.0.4,59.98326305097247,
lies,&&&&&&&&,right,fairness.vice,lachelor,,,,,,,,,,,,,,,0,174,174,113,,,,,,,,,,,,,AMP,left,0.6337177491309376,0,,,,,,,,,,,,,,left,0,0.6337177491309376,,,,,,,,,,,1034,2019_Mar_07_1401,mf_amp_cond2,3.0.4,59.98326305097247,
support,&&&&&&&&&&&&&,left,loyalty.virtue,idexpressible,,,,,,,,,,,,,,,0,175,175,305,,,,,,,,,,,,,AMP,left,0.4503441012091116,1,,,,,,,,,,,,,,left,1,0.4503441012091116,,,,,,,,,,,1034,2019_Mar_07_1401,mf_amp_cond2,3.0.4,59.98326305097247,
agreement,&&&&&&&&&,left,fairness.virtue,discovars,,,,,,,,,,,,,,,0,176,176,266,,,,,,,,,,,,,AMP,left,0.46703857435818463,1,,,,,,,,,,,,,,left,1,0.46703857435818463,,,,,,,,,,,1034,2019_Mar_07_1401,mf_amp_cond2,3.0.4,59.98326305097247,
torture,&&&&&&&&&,right,care.vice,taxpayung,,,,,,,,,,,,,,,0,177,177,49,,,,,,,,,,,,,AMP,right,0.4336791343621371,1,,,,,,,,,,,,,,right,1,0.4336791343621371,,,,,,,,,,,1034,2019_Mar_07_1401,mf_amp_cond2,3.0.4,59.98326305097247,
rebels,&&&&,right,authority.vice,alar,,,,,,,,,,,,,,,0,178,178,73,,,,,,,,,,,,,AMP,right,0.417018016162956,1,,,,,,,,,,,,,,right,1,0.417018016162956,,,,,,,,,,,1034,2019_Mar_07_1401,mf_amp_cond2,3.0.4,59.98326305097247,
growth,&&&&&&&,left,care.virtue,carvels,,,,,,,,,,,,,,,0,179,179,183,,,,,,,,,,,,,AMP,right,0.3837195130947748,0,,,,,,,,,,,,,,right,0,0.3837195130947748,,,,,,,,,,,1034,2019_Mar_07_1401,mf_amp_cond2,3.0.4,59.98326305097247,
critics,&&&&&,right,loyalty.vice,leact,,,,,,,,,,,,,,,0,180,180,168,,,,,,,,,,,,,AMP,right,0.43368394517233355,1,,,,,,,,,,,,,,right,1,0.43368394517233355,,,,,,,,,,,1034,2019_Mar_07_1401,mf_amp_cond2,3.0.4,59.98326305097247,
trust,&&&&&&&,left,authority.virtue,menizen,,,,,,,,,,,,,,,0,181,181,94,,,,,,,,,,,,,AMP,right,0.3836447851779212,0,,,,,,,,,,,,,,right,0,0.3836447851779212,,,,,,,,,,,1034,2019_Mar_07_1401,mf_amp_cond2,3.0.4,59.98326305097247,
hope,&&&&&&&,left,loyalty.virtue,scalbel,,,,,,,,,,,,,,,0,182,182,70,,,,,,,,,,,,,AMP,right,0.40035112499185743,0,,,,,,,,,,,,,,right,0,0.40035112499185743,,,,,,,,,,,1034,2019_Mar_07_1401,mf_amp_cond2,3.0.4,59.98326305097247,
actively,&&&&&&&&&,left,authority.virtue,discovars,,,,,,,,,,,,,,,0,183,183,121,,,,,,,,,,,,,AMP,right,0.38365504823968877,0,,,,,,,,,,,,,,right,0,0.38365504823968877,,,,,,,,,,,1034,2019_Mar_07_1401,mf_amp_cond2,3.0.4,59.98326305097247,
racist,&&&&&&&&&,right,sanctity.vice,unscothed,,,,,,,,,,,,,,,0,184,184,98,,,,,,,,,,,,,AMP,right,0.016925071312243745,1,,,,,,,,,,,,,,right,1,0.016925071312243745,,,,,,,,,,,1034,2019_Mar_07_1401,mf_amp_cond2,3.0.4,59.98326305097247,
illegal,&&&&,right,fairness.vice,spag,,,,,,,,,,,,,,,0,185,185,133,,,,,,,,,,,,,AMP,left,0.5503970842644321,0,,,,,,,,,,,,,,left,0,0.5503970842644321,,,,,,,,,,,1034,2019_Mar_07_1401,mf_amp_cond2,3.0.4,59.98326305097247,
care,&&&&&&&,left,care.virtue,baklara,,,,,,,,,,,,,,,0,186,186,219,,,,,,,,,,,,,AMP,left,0.6003836460681669,1,,,,,,,,,,,,,,left,1,0.6003836460681669,,,,,,,,,,,1034,2019_Mar_07_1401,mf_amp_cond2,3.0.4,59.98326305097247,
intelligence,&&&&&&&&,left,loyalty.virtue,framatic,,,,,,,,,,,,,,,0,187,187,104,,,,,,,,,,,,,AMP,left,0.3335129369097558,1,,,,,,,,,,,,,,left,1,0.3335129369097558,,,,,,,,,,,1034,2019_Mar_07_1401,mf_amp_cond2,3.0.4,59.98326305097247,
sharing,&&&&&&&&&,left,loyalty.virtue,discovars,,,,,,,,,,,,,,,0,188,188,202,,,,,,,,,,,,,AMP,left,0.40034086193054463,1,,,,,,,,,,,,,,left,1,0.40034086193054463,,,,,,,,,,,1034,2019_Mar_07_1401,mf_amp_cond2,3.0.4,59.98326305097247,
fair,&&&&&&&,left,fairness.virtue,vurtain,,,,,,,,,,,,,,,0,189,189,90,,,,,,,,,,,,,AMP,left,0.15028329256961115,1,,,,,,,,,,,,,,left,1,0.15028329256961115,,,,,,,,,,,1034,2019_Mar_07_1401,mf_amp_cond2,3.0.4,59.98326305097247,
love,&&&&&&&&&,left,loyalty.virtue,ittutable,,,,,,,,,,,,,,,0,190,190,240,,,,,,,,,,,,,AMP,right,0.21697362842201073,0,,,,,,,,,,,,,,right,0,0.21697362842201073,,,,,,,,,,,1034,2019_Mar_07_1401,mf_amp_cond2,3.0.4,59.98326305097247,
gationwide,&&&&&&&,None,nonword,menizen,,,,,,,,,,,,,,,0,191,191,299,,,,,,,,,,,,,AMP,left,0.5003450954432083,0,,,,,,,,,,,,,,left,0,0.5003450954432083,,,,,,,,,,,1034,2019_Mar_07_1401,mf_amp_cond2,3.0.4,59.98326305097247,
intelligence,&&&&&&&,left,loyalty.virtue,gedious,,,,,,,,,,,,,,,0,192,192,170,,,,,,,,,,,,,AMP,right,0.5003377188677405,0,,,,,,,,,,,,,,right,0,0.5003377188677405,,,,,,,,,,,1034,2019_Mar_07_1401,mf_amp_cond2,3.0.4,59.98326305097247,
threatened,&&&&&&&&,right,fairness.vice,emassion,,,,,,,,,,,,,,,0,193,193,260,,,,,,,,,,,,,AMP,right,0.40033829616481853,1,,,,,,,,,,,,,,right,1,0.40033829616481853,,,,,,,,,,,1034,2019_Mar_07_1401,mf_amp_cond2,3.0.4,59.98326305097247,
hand,&&&&&&,left,sanctity.virtue,forepo,,,,,,,,,,,,,,,0,194,194,130,,,,,,,,,,,,,AMP,right,0.35032832175215844,0,,,,,,,,,,,,,,right,0,0.35032832175215844,,,,,,,,,,,1034,2019_Mar_07_1401,mf_amp_cond2,3.0.4,59.98326305097247,
focomotive,&&&&&,None,nonword,framo,,,,,,,,,,,,,,,0,195,195,173,,,,,,,,,,,,,AMP,right,0.2503163909429986,0,,,,,,,,,,,,,,right,0,0.2503163909429986,,,,,,,,,,,1034,2019_Mar_07_1401,mf_amp_cond2,3.0.4,59.98326305097247,
serial,&&&,right,sanctity.vice,mih,,,,,,,,,,,,,,,0,196,196,138,,,,,,,,,,,,,AMP,right,0.016920260502274687,1,,,,,,,,,,,,,,right,1,0.016920260502274687,,,,,,,,,,,1034,2019_Mar_07_1401,mf_amp_cond2,3.0.4,59.98326305097247,
praised,&&&&&&&&,left,loyalty.virtue,sidearbs,,,,,,,,,,,,,,,0,197,197,233,,,,,,,,,,,,,AMP,right,0.2669778298627534,0,,,,,,,,,,,,,,right,0,0.2669778298627534,,,,,,,,,,,1034,2019_Mar_07_1401,mf_amp_cond2,3.0.4,59.98326305097247,
prison,&&&&&&&&&,right,fairness.vice,refuejing,,,,,,,,,,,,,,,0,198,198,89,,,,,,,,,,,,,AMP,left,0.833771117050901,0,,,,,,,,,,,,,,left,0,0.833771117050901,,,,,,,,,,,1034,2019_Mar_07_1401,mf_amp_cond2,3.0.4,59.98326305097247,
increase,&&&&&&&&&&&&&,left,care.virtue,esquisiteness,,,,,,,,,,,,,,,0,199,199,188,,,,,,,,,,,,,AMP,right,0.41700005580537436,0,,,,,,,,,,,,,,right,0,0.41700005580537436,,,,,,,,,,,1034,2019_Mar_07_1401,mf_amp_cond2,3.0.4,59.98326305097247,
protesters,&&&&&&&&,right,authority.vice,sfumatoy,,,,,,,,,,,,,,,0,200,200,7,,,,,,,,,,,,,AMP,right,0.5003746017450794,1,,,,,,,,,,,,,,right,1,0.5003746017450794,,,,,,,,,,,1034,2019_Mar_07_1401,mf_amp_cond2,3.0.4,59.98326305097247,
freedom,&&&&&&&&,left,sanctity.virtue,emassion,,,,,,,,,,,,,,,0,201,201,95,,,,,,,,,,,,,AMP,right,0.36698527058229047,0,,,,,,,,,,,,,,right,0,0.36698527058229047,,,,,,,,,,,1034,2019_Mar_07_1401,mf_amp_cond2,3.0.4,59.98326305097247,
victim,&&&&&&&&&&&,right,care.vice,egpeditious,,,,,,,,,,,,,,,0,202,202,86,,,,,,,,,,,,,AMP,right,0.20029294626192495,1,,,,,,,,,,,,,,right,1,0.20029294626192495,,,,,,,,,,,1034,2019_Mar_07_1401,mf_amp_cond2,3.0.4,59.98326305097247,
lorthwhile,&&&&&&&&&&,None,nonword,pistraught,,,,,,,,,,,,,,,0,203,203,147,,,,,,,,,,,,,AMP,left,0.48370001327793943,0,,,,,,,,,,,,,,left,0,0.48370001327793943,,,,,,,,,,,1034,2019_Mar_07_1401,mf_amp_cond2,3.0.4,59.98326305097247,
unpleasant,&&&&&&&&&&&&,None,control,quarterbocks,,,,,,,,,,,,,,,0,204,204,150,,,,,,,,,,,,,AMP,right,0.03362178950578709,0,,,,,,,,,,,,,,right,0,0.03362178950578709,,,,,,,,,,,1034,2019_Mar_07_1401,mf_amp_cond2,3.0.4,59.98326305097247,
forced,&&&&&&&&&,right,fairness.vice,fangsters,,,,,,,,,,,,,,,0,205,205,167,,,,,,,,,,,,,AMP,left,0.550389707688737,0,,,,,,,,,,,,,,left,0,0.550389707688737,,,,,,,,,,,1034,2019_Mar_07_1401,mf_amp_cond2,3.0.4,59.98326305097247,
violations,&&&&&&&,right,sanctity.vice,Loorish,,,,,,,,,,,,,,,0,206,206,80,,,,,,,,,,,,,AMP,right,0.25029137473075025,1,,,,,,,,,,,,,,right,1,0.25029137473075025,,,,,,,,,,,1034,2019_Mar_07_1401,mf_amp_cond2,3.0.4,59.98326305097247,
war,&&&&&&&&&&,right,sanctity.vice,galamitous,,,,,,,,,,,,,,,0,207,207,9,,,,,,,,,,,,,AMP,right,0.75044147200515,1,,,,,,,,,,,,,,right,1,0.75044147200515,,,,,,,,,,,1034,2019_Mar_07_1401,mf_amp_cond2,3.0.4,59.98326305097247,
army,&&&&&&,right,loyalty.vice,papert,,,,,,,,,,,,,,,0,208,208,110,,,,,,,,,,,,,AMP,right,0.417018016162956,1,,,,,,,,,,,,,,right,1,0.417018016162956,,,,,,,,,,,1034,2019_Mar_07_1401,mf_amp_cond2,3.0.4,59.98326305097247,
pleasant,&&&&&&&,None,control,gedious,,,,,,,,,,,,,,,0,209,209,161,,,,,,,,,,,,,AMP,right,0.13363917256651803,0,,,,,,,,,,,,,,right,0,0.13363917256651803,,,,,,,,,,,1034,2019_Mar_07_1401,mf_amp_cond2,3.0.4,59.98326305097247,
growth,&&&&&&&&,left,care.virtue,thadowed,,,,,,,,,,,,,,,0,210,210,144,,,,,,,,,,,,,AMP,left,0.4670308770619158,1,,,,,,,,,,,,,,left,1,0.4670308770619158,,,,,,,,,,,1034,2019_Mar_07_1401,mf_amp_cond2,3.0.4,59.98326305097247,
fraud,&&&&&&&,right,fairness.vice,carvels,,,,,,,,,,,,,,,0,211,211,316,,,,,,,,,,,,,AMP,right,0.4336871523787522,1,,,,,,,,,,,,,,right,1,0.4336871523787522,,,,,,,,,,,1034,2019_Mar_07_1401,mf_amp_cond2,3.0.4,59.98326305097247,
values,&&&&&&&&,left,sanctity.virtue,slending,,,,,,,,,,,,,,,0,212,212,231,,,,,,,,,,,,,AMP,right,0.3169894078789639,0,,,,,,,,,,,,,,right,0,0.3169894078789639,,,,,,,,,,,1034,2019_Mar_07_1401,mf_amp_cond2,3.0.4,59.98326305097247,
violations,&&&&&&&&,right,sanctity.vice,clamorek,,,,,,,,,,,,,,,0,213,213,201,,,,,,,,,,,,,AMP,left,0.6336930536392629,0,,,,,,,,,,,,,,left,0,0.6336930536392629,,,,,,,,,,,1034,2019_Mar_07_1401,mf_amp_cond2,3.0.4,59.98326305097247,
ban,&&&&&&&&&&&&,right,loyalty.vice,quarterbocks,,,,,,,,,,,,,,,0,214,214,171,,,,,,,,,,,,,AMP,right,0.45038034264507587,1,,,,,,,,,,,,,,right,1,0.45038034264507587,,,,,,,,,,,1034,2019_Mar_07_1401,mf_amp_cond2,3.0.4,59.98326305097247,
help,&&&&&&&,left,care.virtue,allears,,,,,,,,,,,,,,,0,215,215,243,,,,,,,,,,,,,AMP,left,0.6003762694924717,1,,,,,,,,,,,,,,left,1,0.6003762694924717,,,,,,,,,,,1034,2019_Mar_07_1401,mf_amp_cond2,3.0.4,59.98326305097247,
brudent,&&&&&&&&,None,nonword,glacenta,,,,,,,,,,,,,,,0,216,216,91,,,,,,,,,,,,,AMP,right,0.15029612139642268,0,,,,,,,,,,,,,,right,0,0.15029612139642268,,,,,,,,,,,1034,2019_Mar_07_1401,mf_amp_cond2,3.0.4,59.98326305097247,
peaceful,&&&&&&&&&&,left,authority.virtue,neutralust,,,,,,,,,,,,,,,0,217,217,1,,,,,,,,,,,,,AMP,right,0.7004863408274105,0,,,,,,,,,,,,,,right,0,0.7004863408274105,,,,,,,,,,,1034,2019_Mar_07_1401,mf_amp_cond2,3.0.4,59.98326305097247,
peaceful,&&&&&&&,left,authority.virtue,stindig,,,,,,,,,,,,,,,0,218,218,158,,,,,,,,,,,,,AMP,right,0.4836878258922752,0,,,,,,,,,,,,,,right,0,0.4836878258922752,,,,,,,,,,,1034,2019_Mar_07_1401,mf_amp_cond2,3.0.4,59.98326305097247,
pleasant,&&&&&&&&&&&,None,control,fornicalion,,,,,,,,,,,,,,,0,219,219,179,,,,,,,,,,,,,AMP,left,0.5837250936342571,0,,,,,,,,,,,,,,left,0,0.5837250936342571,,,,,,,,,,,1034,2019_Mar_07_1401,mf_amp_cond2,3.0.4,59.98326305097247,
men,&&&&&,right,loyalty.vice,saned,,,,,,,,,,,,,,,0,220,220,197,,,,,,,,,,,,,AMP,left,0.7837659534479826,0,,,,,,,,,,,,,,left,0,0.7837659534479826,,,,,,,,,,,1034,2019_Mar_07_1401,mf_amp_cond2,3.0.4,59.98326305097247,
perfect,&&&&&&&&&&,left,sanctity.virtue,supervuned,,,,,,,,,,,,,,,0,221,221,265,,,,,,,,,,,,,AMP,right,0.6170579138147332,0,,,,,,,,,,,,,,right,0,0.6170579138147332,,,,,,,,,,,1034,2019_Mar_07_1401,mf_amp_cond2,3.0.4,59.98326305097247,
benefit,&&&&&&,left,fairness.virtue,forepo,,,,,,,,,,,,,,,0,222,222,18,,,,,,,,,,,,,AMP,left,0.7837633876827113,1,,,,,,,,,,,,,,left,1,0.7837633876827113,,,,,,,,,,,1034,2019_Mar_07_1401,mf_amp_cond2,3.0.4,59.98326305097247,
win,&&&&&&&,left,fairness.virtue,pharing,,,,,,,,,,,,,,,0,223,223,19,,,,,,,,,,,,,AMP,left,0.6003765902132727,1,,,,,,,,,,,,,,left,1,0.6003765902132727,,,,,,,,,,,1034,2019_Mar_07_1401,mf_amp_cond2,3.0.4,59.98326305097247,
racist,&&&&&,right,sanctity.vice,uller,,,,,,,,,,,,,,,0,224,224,194,,,,,,,,,,,,,AMP,left,0.41704335309623275,0,,,,,,,,,,,,,,left,0,0.41704335309623275,,,,,,,,,,,1034,2019_Mar_07_1401,mf_amp_cond2,3.0.4,59.98326305097247,
asn,&&&&&&&&&,None,nonword,unscothed,,,,,,,,,,,,,,,0,225,225,207,,,,,,,,,,,,,AMP,left,0.8504582136245062,0,,,,,,,,,,,,,,left,0,0.8504582136245062,,,,,,,,,,,1034,2019_Mar_07_1401,mf_amp_cond2,3.0.4,59.98326305097247,
ensure,&&&&&&&&,left,fairness.virtue,crinking,,,,,,,,,,,,,,,0,226,226,88,,,,,,,,,,,,,AMP,left,0.46699976715672165,1,,,,,,,,,,,,,,left,1,0.46699976715672165,,,,,,,,,,,1034,2019_Mar_07_1401,mf_amp_cond2,3.0.4,59.98326305097247,
torture,&&&&&&&&&,right,care.vice,taxpayung,,,,,,,,,,,,,,,0,227,227,227,,,,,,,,,,,,,AMP,left,0.9171065350685694,0,,,,,,,,,,,,,,left,0,0.9171065350685694,,,,,,,,,,,1034,2019_Mar_07_1401,mf_amp_cond2,3.0.4,59.98326305097247,
threatened,&&&&&&,right,fairness.vice,forepo,,,,,,,,,,,,,,,0,228,228,226,,,,,,,,,,,,,AMP,left,0.7504129278654545,0,,,,,,,,,,,,,,left,0,0.7504129278654545,,,,,,,,,,,1034,2019_Mar_07_1401,mf_amp_cond2,3.0.4,59.98326305097247,
violations,&&&&,right,sanctity.vice,tove,,,,,,,,,,,,,,,0,229,229,271,,,,,,,,,,,,,AMP,left,0.517024494720772,0,,,,,,,,,,,,,,left,0,0.517024494720772,,,,,,,,,,,1034,2019_Mar_07_1401,mf_amp_cond2,3.0.4,59.98326305097247,
increase,&&&&,left,care.virtue,ning,,,,,,,,,,,,,,,0,230,230,125,,,,,,,,,,,,,AMP,left,0.8337489873244976,1,,,,,,,,,,,,,,left,1,0.8337489873244976,,,,,,,,,,,1034,2019_Mar_07_1401,mf_amp_cond2,3.0.4,59.98326305097247,
promote,&&&,left,sanctity.virtue,mih,,,,,,,,,,,,,,,0,231,231,303,,,,,,,,,,,,,AMP,right,0.6170675354348987,0,,,,,,,,,,,,,,right,0,0.6170675354348987,,,,,,,,,,,1034,2019_Mar_07_1401,mf_amp_cond2,3.0.4,59.98326305097247,
victim,&&&&&&&,right,care.vice,allears,,,,,,,,,,,,,,,0,232,232,292,,,,,,,,,,,,,AMP,left,0.6504003556151474,0,,,,,,,,,,,,,,left,0,0.6504003556151474,,,,,,,,,,,1034,2019_Mar_07_1401,mf_amp_cond2,3.0.4,59.98326305097247,
men,&&&&&,right,loyalty.vice,touls,,,,,,,,,,,,,,,0,233,233,47,,,,,,,,,,,,,AMP,left,0.5670684655246987,0,,,,,,,,,,,,,,left,0,0.5670684655246987,,,,,,,,,,,1034,2019_Mar_07_1401,mf_amp_cond2,3.0.4,59.98326305097247,
terrorists,&&&&&&&&&&&,right,fairness.vice,egpeditious,,,,,,,,,,,,,,,0,234,234,206,,,,,,,,,,,,,AMP,left,0.6337427653436407,0,,,,,,,,,,,,,,left,0,0.6337427653436407,,,,,,,,,,,1034,2019_Mar_07_1401,mf_amp_cond2,3.0.4,59.98326305097247,
suicide,&&&&&&&&&&&&&,right,care.vice,synchronazers,,,,,,,,,,,,,,,0,235,235,165,,,,,,,,,,,,,AMP,right,1.6506630258454607,1,,,,,,,,,,,,,,right,1,1.6506630258454607,,,,,,,,,,,1034,2019_Mar_07_1401,mf_amp_cond2,3.0.4,59.98326305097247,
promote,&&&&&&&,left,sanctity.virtue,pharing,,,,,,,,,,,,,,,0,236,236,136,,,,,,,,,,,,,AMP,left,0.4503553264328275,1,,,,,,,,,,,,,,left,1,0.4503553264328275,,,,,,,,,,,1034,2019_Mar_07_1401,mf_amp_cond2,3.0.4,59.98326305097247,
freedom,&&&&&&&&&&&,left,sanctity.virtue,vicissifude,,,,,,,,,,,,,,,0,237,237,310,,,,,,,,,,,,,AMP,left,0.5003739603037047,1,,,,,,,,,,,,,,left,1,0.5003739603037047,,,,,,,,,,,1034,2019_Mar_07_1401,mf_amp_cond2,3.0.4,59.98326305097247,
care,&&&&&&&&,left,care.virtue,nuckheap,,,,,,,,,,,,,,,0,238,238,40,,,,,,,,,,,,,AMP,left,0.48369873039519007,1,,,,,,,,,,,,,,left,1,0.48369873039519007,,,,,,,,,,,1034,2019_Mar_07_1401,mf_amp_cond2,3.0.4,59.98326305097247,
army,&&&&&&&,right,loyalty.vice,pharing,,,,,,,,,,,,,,,0,239,239,204,,,,,,,,,,,,,AMP,right,0.4670231797658744,1,,,,,,,,,,,,,,right,1,0.4670231797658744,,,,,,,,,,,1034,2019_Mar_07_1401,mf_amp_cond2,3.0.4,59.98326305097247,
rejected,&&&,right,authority.vice,mih,,,,,,,,,,,,,,,0,240,240,223,,,,,,,,,,,,,AMP,left,0.48372470876961415,0,,,,,,,,,,,,,,left,0,0.48372470876961415,,,,,,,,,,,1034,2019_Mar_07_1401,mf_amp_cond2,3.0.4,59.98326305097247,
rebels,&&&&&&&&&&,right,authority.vice,supervuned,,,,,,,,,,,,,,,0,241,241,84,,,,,,,,,,,,,AMP,right,0.3670327372419706,1,,,,,,,,,,,,,,right,1,0.3670327372419706,,,,,,,,,,,1034,2019_Mar_07_1401,mf_amp_cond2,3.0.4,59.98326305097247,
torture,&&&&&&&&&&,right,care.vice,totalestic,,,,,,,,,,,,,,,0,242,242,324,,,,,,,,,,,,,AMP,right,0.45035404355007813,1,,,,,,,,,,,,,,right,1,0.45035404355007813,,,,,,,,,,,1034,2019_Mar_07_1401,mf_amp_cond2,3.0.4,59.98326305097247,
