words,mask,corr_ans,category,nonwords,tweets,topic,LDT_prac_loop.thisRepN,LDT_prac_loop.thisTrialN,LDT_prac_loop.thisN,LDT_prac_loop.thisIndex,LDT_loop.thisRepN,LDT_loop.thisTrialN,LDT_loop.thisN,LDT_loop.thisIndex,AMP_pracloop.thisRepN,AMP_pracloop.thisTrialN,AMP_pracloop.thisN,AMP_pracloop.thisIndex,AMP_loop.thisRepN,AMP_loop.thisTrialN,AMP_loop.thisN,AMP_loop.thisIndex,tweet_loop.thisRepN,tweet_loop.thisTrialN,tweet_loop.thisN,tweet_loop.thisIndex,begin_key.keys,begin_key.rt,key_resp_AMP_instr1.keys,key_resp_AMP_instr1.rt,key_resp_LDT_instr.keys,key_resp_LDT_instr.rt,resp_LDT_prac.keys,resp_LDT_prac.rt,task,keypress,RT,corr,resp_LDT_ready.keys,resp_LDT_ready.rt,resp_LDT.keys,resp_LDT.corr,resp_LDT.rt,LDT_rating.response,LDT_rating.rt,resp_AMP_ready1.keys,resp_AMP_ready1.rt,resp_AMP_prac.keys,resp_AMP_prac.rt,resp_AMP_ready.keys,resp_AMP_ready.rt,resp_AMP.keys,resp_AMP.corr,resp_AMP.rt,AMP_nonword_rating.response,AMP_nonword_rating.rt,AMP_word_rating.response,AMP_word_rating.rt,AMP_random_rating.response,AMP_random_rating.rt,key_resp_LDT_instr_2.keys,key_resp_LDT_instr_2.rt,resp_tweets.keys,resp_tweets.rt,participant,date,expName,psychopyVersion,frameRate,
,,,,,,,,,,,,,,,,,,,,,,,,,,,right,658.6330024330091,,,,,,,,,,,,,,,,,,,,,,,,,,,,,,,,,,,,,1036,2019_Mar_08_1456,mf_amp_cond2,3.0.4,59.985878694633655,
,,,,,,,,,,,,,,,,,,,,,,,,,,,,,right,6.285255927112303,,,,,,,,,,,,,,,,,,,,,,,,,,,,,,,,,,,1036,2019_Mar_08_1456,mf_amp_cond2,3.0.4,59.985878694633655,
,,,,,,,,,,,,,,,,,,,,,,,,,,,,,,,right,3.267792253769585,,,,,,,,,,,,,,,,,,,,,,,,,,,,,,,,,1036,2019_Mar_08_1456,mf_amp_cond2,3.0.4,59.985878694633655,
keyboard,&&&&&&&,,,,,,0,0,0,0,,,,,,,,,,,,,,,,,,,,,,,right,3.7845872202160535,LDT_prac,right,3.7845872202160535,0,,,,,,,,,,,,,,,,,,,,,,,,,,,1036,2019_Mar_08_1456,mf_amp_cond2,3.0.4,59.985878694633655,
bisebell,&&&&&&&,,,,,,0,1,1,1,,,,,,,,,,,,,,,,,,,,,,,right,3.1510674614692107,LDT_prac,right,3.1510674614692107,0,,,,,,,,,,,,,,,,,,,,,,,,,,,1036,2019_Mar_08_1456,mf_amp_cond2,3.0.4,59.985878694633655,
,,,,,,,,,,,,,,,,,,,,,,,,,,,,,,,,,,,,,,,right,2.0341159181843977,,,,,,,,,,,,,,,,,,,,,,,,,1036,2019_Mar_08_1456,mf_amp_cond2,3.0.4,59.985878694633655,
chadows,&&&&&&&,right,nonword,,,,,,,,0,0,0,11,,,,,,,,,,,,,,,,,,,,,LDT,right,0.8838172290998045,1,,,right,1,0.8838172290998045,,,,,,,,,,,,,,,,,,,,,,1036,2019_Mar_08_1456,mf_amp_cond2,3.0.4,59.985878694633655,
three,&&&&&,left,neutral,,,,,,,,0,1,1,18,,,,,,,,,,,,,,,,,,,,,LDT,right,2.2008298379805638,0,,,right,0,2.2008298379805638,,,,,,,,,,,,,,,,,,,,,,1036,2019_Mar_08_1456,mf_amp_cond2,3.0.4,59.985878694633655,
celebrated,&&&&&&&&&&,left,authority.virtue,,,,,,,,0,2,2,49,,,,,,,,,,,,,,,,,,,,,LDT,left,8.53580740984762,1,,,left,1,8.53580740984762,,,,,,,,,,,,,,,,,,,,,,1036,2019_Mar_08_1456,mf_amp_cond2,3.0.4,59.985878694633655,
ensure,&&&&&&,left,fairness.virtue,,,,,,,,0,3,3,40,,,,,,,,,,,,,,,,,,,,,LDT,right,6.985407436528476,0,,,right,0,6.985407436528476,,,,,,,,,,,,,,,,,,,,,,1036,2019_Mar_08_1456,mf_amp_cond2,3.0.4,59.985878694633655,
carvels,&&&&&&&,None,nonword,,,,,,,,0,4,4,167,,,,,,,,,,,,,,,,,,,,,LDT,right,12.170030834284262,0,,,right,0,12.170030834284262,,,,,,,,,,,,,,,,,,,,,,1036,2019_Mar_08_1456,mf_amp_cond2,3.0.4,59.985878694633655,
injured,&&&&&&&,left,care.vice,,,,,,,,0,5,5,120,,,,,,,,,,,,,,,,,,,,,LDT,right,1.6673534409346757,0,,,right,0,1.6673534409346757,,,,,,,,,,,,,,,,,,,,,,1036,2019_Mar_08_1456,mf_amp_cond2,3.0.4,59.985878694633655,
atson,&&&&&,right,nonword,,,,,,,,0,6,6,58,,,,,,,,,,,,,,,,,,,,,LDT,left,1.1172206296469085,0,,,left,0,1.1172206296469085,,,,,,,,,,,,,,,,,,,,,,1036,2019_Mar_08_1456,mf_amp_cond2,3.0.4,59.985878694633655,
praised,&&&&&&&,left,loyalty.virtue,,,,,,,,0,7,7,108,,,,,,,,,,,,,,,,,,,,,LDT,right,1.383944876739406,0,,,right,0,1.383944876739406,,,,,,,,,,,,,,,,,,,,,,1036,2019_Mar_08_1456,mf_amp_cond2,3.0.4,59.985878694633655,
reelectiob,&&&&&&&&&&,right,nonword,,,,,,,,0,8,8,0,,,,,,,,,,,,,,,,,,,,,LDT,right,1.734057033478166,1,,,right,1,1.734057033478166,,,,,,,,,,,,,,,,,,,,,,1036,2019_Mar_08_1456,mf_amp_cond2,3.0.4,59.985878694633655,
amount,&&&&&&,left,neutral,,,,,,,,0,9,9,182,,,,,,,,,,,,,,,,,,,,,LDT,right,0.9671798016497632,0,,,right,0,0.9671798016497632,,,,,,,,,,,,,,,,,,,,,,1036,2019_Mar_08_1456,mf_amp_cond2,3.0.4,59.985878694633655,
lies,&&&&,left,fairness.vice,,,,,,,,0,10,10,75,,,,,,,,,,,,,,,,,,,,,LDT,right,0.7838088261632947,0,,,right,0,0.7838088261632947,,,,,,,,,,,,,,,,,,,,,,1036,2019_Mar_08_1456,mf_amp_cond2,3.0.4,59.985878694633655,
sharing,&&&&&&&,left,loyalty.virtue,,,,,,,,0,11,11,13,,,,,,,,,,,,,,,,,,,,,LDT,right,0.7004420842131367,0,,,right,0,0.7004420842131367,,,,,,,,,,,,,,,,,,,,,,1036,2019_Mar_08_1456,mf_amp_cond2,3.0.4,59.985878694633655,
both,&&&&,left,neutral,,,,,,,,0,12,12,176,,,,,,,,,,,,,,,,,,,,,LDT,right,0.8337873698183103,0,,,right,0,0.8337873698183103,,,,,,,,,,,,,,,,,,,,,,1036,2019_Mar_08_1456,mf_amp_cond2,3.0.4,59.985878694633655,
abointment,&&&&&&&&&&,right,nonword,,,,,,,,0,13,13,45,,,,,,,,,,,,,,,,,,,,,LDT,left,2.0341168803424807,0,,,left,0,2.0341168803424807,,,,,,,,,,,,,,,,,,,,,,1036,2019_Mar_08_1456,mf_amp_cond2,3.0.4,59.985878694633655,
least,&&&&&,left,neutral,,,,,,,,0,14,14,56,,,,,,,,,,,,,,,,,,,,,LDT,right,0.6671180304547306,0,,,right,0,0.6671180304547306,,,,,,,,,,,,,,,,,,,,,,1036,2019_Mar_08_1456,mf_amp_cond2,3.0.4,59.985878694633655,
asn,&&&,right,nonword,,,,,,,,0,15,15,47,,,,,,,,,,,,,,,,,,,,,LDT,left,1.63399154189392,0,,,left,0,1.63399154189392,,,,,,,,,,,,,,,,,,,,,,1036,2019_Mar_08_1456,mf_amp_cond2,3.0.4,59.985878694633655,
whereafter,&&&&&&&&&&,left,neutral,,,,,,,,0,16,16,116,,,,,,,,,,,,,,,,,,,,,LDT,right,0.7837812439975096,0,,,right,0,0.7837812439975096,,,,,,,,,,,,,,,,,,,,,,1036,2019_Mar_08_1456,mf_amp_cond2,3.0.4,59.985878694633655,
fonderland,&&&&&&&&&&,right,nonword,,,,,,,,0,17,17,27,,,,,,,,,,,,,,,,,,,,,LDT,right,1.5006594059377676,1,,,right,1,1.5006594059377676,,,,,,,,,,,,,,,,,,,,,,1036,2019_Mar_08_1456,mf_amp_cond2,3.0.4,59.985878694633655,
were,&&&&,left,neutral,,,,,,,,0,18,18,50,,,,,,,,,,,,,,,,,,,,,LDT,right,0.8171441052109003,0,,,right,0,0.8171441052109003,,,,,,,,,,,,,,,,,,,,,,1036,2019_Mar_08_1456,mf_amp_cond2,3.0.4,59.985878694633655,
emassion,&&&&&&&&,right,nonword,,,,,,,,0,19,19,186,,,,,,,,,,,,,,,,,,,,,LDT,left,0.917153470320045,0,,,left,0,0.917153470320045,,,,,,,,,,,,,,,,,,,,,,1036,2019_Mar_08_1456,mf_amp_cond2,3.0.4,59.985878694633655,
Loorish,&&&&&&&,right,nonword,,,,,,,,0,20,20,100,,,,,,,,,,,,,,,,,,,,,LDT,left,0.7337722316879081,0,,,left,0,0.7337722316879081,,,,,,,,,,,,,,,,,,,,,,1036,2019_Mar_08_1456,mf_amp_cond2,3.0.4,59.985878694633655,
safety,&&&&&&,left,care.virtue,,,,,,,,0,21,21,6,,,,,,,,,,,,,,,,,,,,,LDT,right,0.6504022825101856,0,,,right,0,0.6504022825101856,,,,,,,,,,,,,,,,,,,,,,1036,2019_Mar_08_1456,mf_amp_cond2,3.0.4,59.985878694633655,
elsewhere,&&&&&&&&&,left,neutral,,,,,,,,0,22,22,92,,,,,,,,,,,,,,,,,,,,,LDT,right,0.850472969817929,0,,,right,0,0.850472969817929,,,,,,,,,,,,,,,,,,,,,,1036,2019_Mar_08_1456,mf_amp_cond2,3.0.4,59.985878694633655,
thru,&&&&,left,neutral,,,,,,,,0,23,23,10,,,,,,,,,,,,,,,,,,,,,LDT,left,1.0838641829031985,1,,,left,1,1.0838641829031985,,,,,,,,,,,,,,,,,,,,,,1036,2019_Mar_08_1456,mf_amp_cond2,3.0.4,59.985878694633655,
increase,&&&&&&&&,left,care.virtue,,,,,,,,0,24,24,158,,,,,,,,,,,,,,,,,,,,,LDT,right,0.5837413460976677,0,,,right,0,0.5837413460976677,,,,,,,,,,,,,,,,,,,,,,1036,2019_Mar_08_1456,mf_amp_cond2,3.0.4,59.985878694633655,
although,&&&&&&&&,left,neutral,,,,,,,,0,25,25,122,,,,,,,,,,,,,,,,,,,,,LDT,right,1.9674309275578707,0,,,right,0,1.9674309275578707,,,,,,,,,,,,,,,,,,,,,,1036,2019_Mar_08_1456,mf_amp_cond2,3.0.4,59.985878694633655,
growth,&&&&&&,left,care.virtue,,,,,,,,0,26,26,74,,,,,,,,,,,,,,,,,,,,,LDT,right,0.6670782608271111,0,,,right,0,0.6670782608271111,,,,,,,,,,,,,,,,,,,,,,1036,2019_Mar_08_1456,mf_amp_cond2,3.0.4,59.985878694633655,
noped,&&&&&,right,nonword,,,,,,,,0,27,27,83,,,,,,,,,,,,,,,,,,,,,LDT,left,1.0505471850483445,0,,,left,0,1.0505471850483445,,,,,,,,,,,,,,,,,,,,,,1036,2019_Mar_08_1456,mf_amp_cond2,3.0.4,59.985878694633655,
touls,&&&&&,right,nonword,,,,,,,,0,28,28,149,,,,,,,,,,,,,,,,,,,,,LDT,left,0.8671175173076335,0,,,left,0,0.8671175173076335,,,,,,,,,,,,,,,,,,,,,,1036,2019_Mar_08_1456,mf_amp_cond2,3.0.4,59.985878694633655,
pescinded,&&&&&&&&&,right,nonword,,,,,,,,0,29,29,3,,,,,,,,,,,,,,,,,,,,,LDT,left,0.7337998138391413,0,,,left,0,0.7337998138391413,,,,,,,,,,,,,,,,,,,,,,1036,2019_Mar_08_1456,mf_amp_cond2,3.0.4,59.985878694633655,
also,&&&&,left,neutral,,,,,,,,0,30,30,42,,,,,,,,,,,,,,,,,,,,,LDT,right,0.5337236742780078,0,,,right,0,0.5337236742780078,,,,,,,,,,,,,,,,,,,,,,1036,2019_Mar_08_1456,mf_amp_cond2,3.0.4,59.985878694633655,
letish,&&&&&&,right,nonword,,,,,,,,0,31,31,154,,,,,,,,,,,,,,,,,,,,,LDT,left,0.7004369526403025,0,,,left,0,0.7004369526403025,,,,,,,,,,,,,,,,,,,,,,1036,2019_Mar_08_1456,mf_amp_cond2,3.0.4,59.985878694633655,
conspiracy,&&&&&&&&&&,left,sanctity.vice,,,,,,,,0,32,32,73,,,,,,,,,,,,,,,,,,,,,LDT,right,0.7337885885499418,0,,,right,0,0.7337885885499418,,,,,,,,,,,,,,,,,,,,,,1036,2019_Mar_08_1456,mf_amp_cond2,3.0.4,59.985878694633655,
cromiscuity,&&&&&&&&&&&,right,nonword,,,,,,,,0,33,33,62,,,,,,,,,,,,,,,,,,,,,LDT,right,1.3839307649468537,1,,,right,1,1.3839307649468537,,,,,,,,,,,,,,,,,,,,,,1036,2019_Mar_08_1456,mf_amp_cond2,3.0.4,59.985878694633655,
ecgagement,&&&&&&&&&&,None,nonword,,,,,,,,0,34,34,69,,,,,,,,,,,,,,,,,,,,,LDT,right,0.6504247331176884,0,,,right,0,0.6504247331176884,,,,,,,,,,,,,,,,,,,,,,1036,2019_Mar_08_1456,mf_amp_cond2,3.0.4,59.985878694633655,
sidearbs,&&&&&&&&,right,nonword,,,,,,,,0,35,35,99,,,,,,,,,,,,,,,,,,,,,LDT,left,0.750441474840045,0,,,left,0,0.750441474840045,,,,,,,,,,,,,,,,,,,,,,1036,2019_Mar_08_1456,mf_amp_cond2,3.0.4,59.985878694633655,
baladroit,&&&&&&&&&,right,nonword,,,,,,,,0,36,36,86,,,,,,,,,,,,,,,,,,,,,LDT,left,0.5837320451391861,0,,,left,0,0.5837320451391861,,,,,,,,,,,,,,,,,,,,,,1036,2019_Mar_08_1456,mf_amp_cond2,3.0.4,59.985878694633655,
scalbel,&&&&&&&,right,nonword,,,,,,,,0,37,37,162,,,,,,,,,,,,,,,,,,,,,LDT,left,0.5504140851116972,0,,,left,0,0.5504140851116972,,,,,,,,,,,,,,,,,,,,,,1036,2019_Mar_08_1456,mf_amp_cond2,3.0.4,59.985878694633655,
whither,&&&&&&&,left,neutral,,,,,,,,0,38,38,7,,,,,,,,,,,,,,,,,,,,,LDT,right,0.5837451947736554,0,,,right,0,0.5837451947736554,,,,,,,,,,,,,,,,,,,,,,1036,2019_Mar_08_1456,mf_amp_cond2,3.0.4,59.985878694633655,
refuejing,&&&&&&&&&,right,nonword,,,,,,,,0,39,39,115,,,,,,,,,,,,,,,,,,,,,LDT,left,1.033862226497149,0,,,left,0,1.033862226497149,,,,,,,,,,,,,,,,,,,,,,1036,2019_Mar_08_1456,mf_amp_cond2,3.0.4,59.985878694633655,
been,&&&&,left,neutral,,,,,,,,0,40,40,96,,,,,,,,,,,,,,,,,,,,,LDT,right,0.5003845465398626,0,,,right,0,0.5003845465398626,,,,,,,,,,,,,,,,,,,,,,1036,2019_Mar_08_1456,mf_amp_cond2,3.0.4,59.985878694633655,
fegard,&&&&&&,right,nonword,,,,,,,,0,41,41,70,,,,,,,,,,,,,,,,,,,,,LDT,right,0.9171573189960327,1,,,right,1,0.9171573189960327,,,,,,,,,,,,,,,,,,,,,,1036,2019_Mar_08_1456,mf_amp_cond2,3.0.4,59.985878694633655,
troubla,&&&&&&&,right,nonword,,,,,,,,0,42,42,30,,,,,,,,,,,,,,,,,,,,,LDT,left,0.6002624153479701,0,,,left,0,0.6002624153479701,,,,,,,,,,,,,,,,,,,,,,1036,2019_Mar_08_1456,mf_amp_cond2,3.0.4,59.985878694633655,
blamed,&&&&&&,left,loyalty.vice,,,,,,,,0,43,43,178,,,,,,,,,,,,,,,,,,,,,LDT,right,0.5337233535537962,0,,,right,0,0.5337233535537962,,,,,,,,,,,,,,,,,,,,,,1036,2019_Mar_08_1456,mf_amp_cond2,3.0.4,59.985878694633655,
coom,&&&&,right,nonword,,,,,,,,0,44,44,39,,,,,,,,,,,,,,,,,,,,,LDT,left,0.7004459328745725,0,,,left,0,0.7004459328745725,,,,,,,,,,,,,,,,,,,,,,1036,2019_Mar_08_1456,mf_amp_cond2,3.0.4,59.985878694633655,
perified,&&&&&&&&,right,nonword,,,,,,,,0,45,45,188,,,,,,,,,,,,,,,,,,,,,LDT,right,2.4008761503500864,1,,,right,1,2.4008761503500864,,,,,,,,,,,,,,,,,,,,,,1036,2019_Mar_08_1456,mf_amp_cond2,3.0.4,59.985878694633655,
latter,&&&&&&,left,neutral,,,,,,,,0,46,46,85,,,,,,,,,,,,,,,,,,,,,LDT,right,0.7171296085434733,0,,,right,0,0.7171296085434733,,,,,,,,,,,,,,,,,,,,,,1036,2019_Mar_08_1456,mf_amp_cond2,3.0.4,59.985878694633655,
gun,&&&,left,authority.vice,,,,,,,,0,47,47,119,,,,,,,,,,,,,,,,,,,,,LDT,right,0.5503951624705223,0,,,right,0,0.5503951624705223,,,,,,,,,,,,,,,,,,,,,,1036,2019_Mar_08_1456,mf_amp_cond2,3.0.4,59.985878694633655,
unreflectuve,&&&&&&&&&&&&,right,nonword,,,,,,,,0,48,48,24,,,,,,,,,,,,,,,,,,,,,LDT,left,2.517590679548448,0,,,left,0,2.517590679548448,,,,,,,,,,,,,,,,,,,,,,1036,2019_Mar_08_1456,mf_amp_cond2,3.0.4,59.985878694633655,
papert,&&&&&&,right,nonword,,,,,,,,0,49,49,79,,,,,,,,,,,,,,,,,,,,,LDT,left,1.200584164384054,0,,,left,0,1.200584164384054,,,,,,,,,,,,,,,,,,,,,,1036,2019_Mar_08_1456,mf_amp_cond2,3.0.4,59.985878694633655,
godlaness,&&&&&&&&&,right,nonword,,,,,,,,0,50,50,114,,,,,,,,,,,,,,,,,,,,,LDT,left,0.6504401277925353,0,,,left,0,0.6504401277925353,,,,,,,,,,,,,,,,,,,,,,1036,2019_Mar_08_1456,mf_amp_cond2,3.0.4,59.985878694633655,
died,&&&&,left,care.vice,,,,,,,,0,51,51,84,,,,,,,,,,,,,,,,,,,,,LDT,right,0.583724027077551,0,,,right,0,0.583724027077551,,,,,,,,,,,,,,,,,,,,,,1036,2019_Mar_08_1456,mf_amp_cond2,3.0.4,59.985878694633655,
dumid,&&&&&,right,nonword,,,,,,,,0,52,52,184,,,,,,,,,,,,,,,,,,,,,LDT,right,1.600670053929207,1,,,right,1,1.600670053929207,,,,,,,,,,,,,,,,,,,,,,1036,2019_Mar_08_1456,mf_amp_cond2,3.0.4,59.985878694633655,
could,&&&&&,left,neutral,,,,,,,,0,53,53,21,,,,,,,,,,,,,,,,,,,,,LDT,right,1.5006414454692276,0,,,right,0,1.5006414454692276,,,,,,,,,,,,,,,,,,,,,,1036,2019_Mar_08_1456,mf_amp_cond2,3.0.4,59.985878694633655,
ablow,&&&&&,right,nonword,,,,,,,,0,54,54,43,,,,,,,,,,,,,,,,,,,,,LDT,left,2.700970314544975,0,,,left,0,2.700970314544975,,,,,,,,,,,,,,,,,,,,,,1036,2019_Mar_08_1456,mf_amp_cond2,3.0.4,59.985878694633655,
less,&&&&,left,neutral,,,,,,,,0,55,55,177,,,,,,,,,,,,,,,,,,,,,LDT,right,0.5671064202906564,0,,,right,0,0.5671064202906564,,,,,,,,,,,,,,,,,,,,,,1036,2019_Mar_08_1456,mf_amp_cond2,3.0.4,59.985878694633655,
tove,&&&&,right,nonword,,,,,,,,0,56,56,146,,,,,,,,,,,,,,,,,,,,,LDT,right,0.7838476336182794,1,,,right,1,0.7838476336182794,,,,,,,,,,,,,,,,,,,,,,1036,2019_Mar_08_1456,mf_amp_cond2,3.0.4,59.985878694633655,
crilfully,&&&&&&&&&,right,nonword,,,,,,,,0,57,57,15,,,,,,,,,,,,,,,,,,,,,LDT,right,1.4173459039593581,1,,,right,1,1.4173459039593581,,,,,,,,,,,,,,,,,,,,,,1036,2019_Mar_08_1456,mf_amp_cond2,3.0.4,59.985878694633655,
erdest,&&&&&&,right,nonword,,,,,,,,0,58,58,132,,,,,,,,,,,,,,,,,,,,,LDT,left,0.5837413460976677,0,,,left,0,0.5837413460976677,,,,,,,,,,,,,,,,,,,,,,1036,2019_Mar_08_1456,mf_amp_cond2,3.0.4,59.985878694633655,
further,&&&&&&&,left,neutral,,,,,,,,0,59,59,52,,,,,,,,,,,,,,,,,,,,,LDT,right,0.5670721029600827,0,,,right,0,0.5670721029600827,,,,,,,,,,,,,,,,,,,,,,1036,2019_Mar_08_1456,mf_amp_cond2,3.0.4,59.985878694633655,
proached,&&&&&&&&,right,nonword,,,,,,,,0,60,60,151,,,,,,,,,,,,,,,,,,,,,LDT,right,0.6837702752818586,1,,,right,1,0.6837702752818586,,,,,,,,,,,,,,,,,,,,,,1036,2019_Mar_08_1456,mf_amp_cond2,3.0.4,59.985878694633655,
strength,&&&&&&&&,left,sanctity.virtue,,,,,,,,0,61,61,155,,,,,,,,,,,,,,,,,,,,,LDT,right,0.8671444580104435,0,,,right,0,0.8671444580104435,,,,,,,,,,,,,,,,,,,,,,1036,2019_Mar_08_1456,mf_amp_cond2,3.0.4,59.985878694633655,
reprisols,&&&&&&&&&,right,nonword,,,,,,,,0,62,62,33,,,,,,,,,,,,,,,,,,,,,LDT,left,0.5837445533252321,0,,,left,0,0.5837445533252321,,,,,,,,,,,,,,,,,,,,,,1036,2019_Mar_08_1456,mf_amp_cond2,3.0.4,59.985878694633655,
sowntrodden,&&&&&&&&&&&,right,nonword,,,,,,,,0,63,63,44,,,,,,,,,,,,,,,,,,,,,LDT,right,0.6336002601601649,1,,,right,1,0.6336002601601649,,,,,,,,,,,,,,,,,,,,,,1036,2019_Mar_08_1456,mf_amp_cond2,3.0.4,59.985878694633655,
terrorist,&&&&&&&&&,left,loyalty.vice,,,,,,,,0,64,64,187,,,,,,,,,,,,,,,,,,,,,LDT,right,1.9507757961982861,0,,,right,0,1.9507757961982861,,,,,,,,,,,,,,,,,,,,,,1036,2019_Mar_08_1456,mf_amp_cond2,3.0.4,59.985878694633655,
hand,&&&&,left,sanctity.virtue,,,,,,,,0,65,65,66,,,,,,,,,,,,,,,,,,,,,LDT,right,0.6005157862819033,0,,,right,0,0.6005157862819033,,,,,,,,,,,,,,,,,,,,,,1036,2019_Mar_08_1456,mf_amp_cond2,3.0.4,59.985878694633655,
fifty,&&&&&,left,neutral,,,,,,,,0,66,66,97,,,,,,,,,,,,,,,,,,,,,LDT,right,0.8338306673831539,0,,,right,0,0.8338306673831539,,,,,,,,,,,,,,,,,,,,,,1036,2019_Mar_08_1456,mf_amp_cond2,3.0.4,59.985878694633655,
honstables,&&&&&&&&&&,right,nonword,,,,,,,,0,67,67,8,,,,,,,,,,,,,,,,,,,,,LDT,left,0.500409242202295,0,,,left,0,0.500409242202295,,,,,,,,,,,,,,,,,,,,,,1036,2019_Mar_08_1456,mf_amp_cond2,3.0.4,59.985878694633655,
faith,&&&&&,left,sanctity.virtue,,,,,,,,0,68,68,194,,,,,,,,,,,,,,,,,,,,,LDT,right,0.6504250538273482,0,,,right,0,0.6504250538273482,,,,,,,,,,,,,,,,,,,,,,1036,2019_Mar_08_1456,mf_amp_cond2,3.0.4,59.985878694633655,
amoungst,&&&&&&&&,left,neutral,,,,,,,,0,69,69,141,,,,,,,,,,,,,,,,,,,,,LDT,right,1.0338760175800417,0,,,right,0,1.0338760175800417,,,,,,,,,,,,,,,,,,,,,,1036,2019_Mar_08_1456,mf_amp_cond2,3.0.4,59.985878694633655,
fraud,&&&&&,left,fairness.vice,,,,,,,,0,70,70,4,,,,,,,,,,,,,,,,,,,,,LDT,right,0.6671045601106016,0,,,right,0,0.6671045601106016,,,,,,,,,,,,,,,,,,,,,,1036,2019_Mar_08_1456,mf_amp_cond2,3.0.4,59.985878694633655,
there,&&&&&,left,neutral,,,,,,,,0,71,71,107,,,,,,,,,,,,,,,,,,,,,LDT,right,0.9171672614029376,0,,,right,0,0.9171672614029376,,,,,,,,,,,,,,,,,,,,,,1036,2019_Mar_08_1456,mf_amp_cond2,3.0.4,59.985878694633655,
else,&&&&,left,neutral,,,,,,,,0,72,72,54,,,,,,,,,,,,,,,,,,,,,LDT,right,0.6670715256477706,0,,,right,0,0.6670715256477706,,,,,,,,,,,,,,,,,,,,,,1036,2019_Mar_08_1456,mf_amp_cond2,3.0.4,59.985878694633655,
illegal,&&&&&&&,left,fairness.vice,,,,,,,,0,73,73,197,,,,,,,,,,,,,,,,,,,,,LDT,right,0.6170586646767333,0,,,right,0,0.6170586646767333,,,,,,,,,,,,,,,,,,,,,,1036,2019_Mar_08_1456,mf_amp_cond2,3.0.4,59.985878694633655,
terrorists,&&&&&&&&&&,left,fairness.vice,,,,,,,,0,74,74,127,,,,,,,,,,,,,,,,,,,,,LDT,right,0.6504221673239954,0,,,right,0,0.6504221673239954,,,,,,,,,,,,,,,,,,,,,,1036,2019_Mar_08_1456,mf_amp_cond2,3.0.4,59.985878694633655,
death,&&&&&,left,care.vice,,,,,,,,0,75,75,143,,,,,,,,,,,,,,,,,,,,,LDT,right,0.5670778759667883,0,,,right,0,0.5670778759667883,,,,,,,,,,,,,,,,,,,,,,1036,2019_Mar_08_1456,mf_amp_cond2,3.0.4,59.985878694633655,
sliptery,&&&&&&&&,right,nonword,,,,,,,,0,76,76,198,,,,,,,,,,,,,,,,,,,,,LDT,left,0.7504706605977844,0,,,left,0,0.7504706605977844,,,,,,,,,,,,,,,,,,,,,,1036,2019_Mar_08_1456,mf_amp_cond2,3.0.4,59.985878694633655,
everything,&&&&&&&&&&,left,neutral,,,,,,,,0,77,77,91,,,,,,,,,,,,,,,,,,,,,LDT,right,0.6670949384279083,0,,,right,0,0.6670949384279083,,,,,,,,,,,,,,,,,,,,,,1036,2019_Mar_08_1456,mf_amp_cond2,3.0.4,59.985878694633655,
chonograph,&&&&&&&&&&,right,nonword,,,,,,,,0,78,78,117,,,,,,,,,,,,,,,,,,,,,LDT,left,1.1005424062750535,0,,,left,0,1.1005424062750535,,,,,,,,,,,,,,,,,,,,,,1036,2019_Mar_08_1456,mf_amp_cond2,3.0.4,59.985878694633655,
chared,&&&&&&,right,nonword,,,,,,,,0,79,79,175,,,,,,,,,,,,,,,,,,,,,LDT,right,0.5837317244149745,1,,,right,1,0.5837317244149745,,,,,,,,,,,,,,,,,,,,,,1036,2019_Mar_08_1456,mf_amp_cond2,3.0.4,59.985878694633655,
blunderints,&&&&&&&&&&&,right,nonword,,,,,,,,0,80,80,157,,,,,,,,,,,,,,,,,,,,,LDT,right,2.0007739039429,1,,,right,1,2.0007739039429,,,,,,,,,,,,,,,,,,,,,,1036,2019_Mar_08_1456,mf_amp_cond2,3.0.4,59.985878694633655,
even,&&&&,left,neutral,,,,,,,,0,81,81,131,,,,,,,,,,,,,,,,,,,,,LDT,right,2.3342011021304643,0,,,right,0,2.3342011021304643,,,,,,,,,,,,,,,,,,,,,,1036,2019_Mar_08_1456,mf_amp_cond2,3.0.4,59.985878694633655,
with,&&&&,left,neutral,,,,,,,,0,82,82,156,,,,,,,,,,,,,,,,,,,,,LDT,right,0.900497697526589,0,,,right,0,0.900497697526589,,,,,,,,,,,,,,,,,,,,,,1036,2019_Mar_08_1456,mf_amp_cond2,3.0.4,59.985878694633655,
laming,&&&&&&,right,nonword,,,,,,,,0,83,83,195,,,,,,,,,,,,,,,,,,,,,LDT,left,0.8171322384732775,0,,,left,0,0.8171322384732775,,,,,,,,,,,,,,,,,,,,,,1036,2019_Mar_08_1456,mf_amp_cond2,3.0.4,59.985878694633655,
become,&&&&&&,left,neutral,,,,,,,,0,84,84,128,,,,,,,,,,,,,,,,,,,,,LDT,right,0.5003072523686569,0,,,right,0,0.5003072523686569,,,,,,,,,,,,,,,,,,,,,,1036,2019_Mar_08_1456,mf_amp_cond2,3.0.4,59.985878694633655,
army,&&&&,left,loyalty.vice,,,,,,,,0,85,85,129,,,,,,,,,,,,,,,,,,,,,LDT,right,0.6170900955039542,0,,,right,0,0.6170900955039542,,,,,,,,,,,,,,,,,,,,,,1036,2019_Mar_08_1456,mf_amp_cond2,3.0.4,59.985878694633655,
rorroborated,&&&&&&&&&&&&,right,nonword,,,,,,,,0,86,86,46,,,,,,,,,,,,,,,,,,,,,LDT,right,1.0171785508282483,1,,,right,1,1.0171785508282483,,,,,,,,,,,,,,,,,,,,,,1036,2019_Mar_08_1456,mf_amp_cond2,3.0.4,59.985878694633655,
yane,&&&&,right,nonword,,,,,,,,0,87,87,171,,,,,,,,,,,,,,,,,,,,,LDT,right,1.6173611062113196,1,,,right,1,1.6173611062113196,,,,,,,,,,,,,,,,,,,,,,1036,2019_Mar_08_1456,mf_amp_cond2,3.0.4,59.985878694633655,
drug,&&&&,left,sanctity.vice,,,,,,,,0,88,88,72,,,,,,,,,,,,,,,,,,,,,LDT,right,0.5003819807752734,0,,,right,0,0.5003819807752734,,,,,,,,,,,,,,,,,,,,,,1036,2019_Mar_08_1456,mf_amp_cond2,3.0.4,59.985878694633655,
couldnt,&&&&&&&,left,neutral,,,,,,,,0,89,89,181,,,,,,,,,,,,,,,,,,,,,LDT,right,1.2172396164387465,0,,,right,0,1.2172396164387465,,,,,,,,,,,,,,,,,,,,,,1036,2019_Mar_08_1456,mf_amp_cond2,3.0.4,59.985878694633655,
fangsters,&&&&&&&&&,right,nonword,,,,,,,,0,90,90,48,,,,,,,,,,,,,,,,,,,,,LDT,right,0.6670978249312611,1,,,right,1,0.6670978249312611,,,,,,,,,,,,,,,,,,,,,,1036,2019_Mar_08_1456,mf_amp_cond2,3.0.4,59.985878694633655,
shoirmaster,&&&&&&&&&&&,right,nonword,,,,,,,,0,91,91,191,,,,,,,,,,,,,,,,,,,,,LDT,left,0.5671102689666441,0,,,left,0,0.5671102689666441,,,,,,,,,,,,,,,,,,,,,,1036,2019_Mar_08_1456,mf_amp_cond2,3.0.4,59.985878694633655,
gationwide,&&&&&&&&&&,right,nonword,,,,,,,,0,92,92,190,,,,,,,,,,,,,,,,,,,,,LDT,left,0.6837782933580456,0,,,left,0,0.6837782933580456,,,,,,,,,,,,,,,,,,,,,,1036,2019_Mar_08_1456,mf_amp_cond2,3.0.4,59.985878694633655,
fighters,&&&&&&&&,left,authority.vice,,,,,,,,0,93,93,65,,,,,,,,,,,,,,,,,,,,,LDT,right,0.7338055868603988,0,,,right,0,0.7338055868603988,,,,,,,,,,,,,,,,,,,,,,1036,2019_Mar_08_1456,mf_amp_cond2,3.0.4,59.985878694633655,
rebels,&&&&&&,left,authority.vice,,,,,,,,0,94,94,111,,,,,,,,,,,,,,,,,,,,,LDT,right,0.5170627699262695,0,,,right,0,0.5170627699262695,,,,,,,,,,,,,,,,,,,,,,1036,2019_Mar_08_1456,mf_amp_cond2,3.0.4,59.985878694633655,
gaultless,&&&&&&&&&,right,nonword,,,,,,,,0,95,95,77,,,,,,,,,,,,,,,,,,,,,LDT,left,0.7004327832546551,0,,,left,0,0.7004327832546551,,,,,,,,,,,,,,,,,,,,,,1036,2019_Mar_08_1456,mf_amp_cond2,3.0.4,59.985878694633655,
viscs,&&&&&,None,nonword,,,,,,,,0,96,96,31,,,,,,,,,,,,,,,,,,,,,LDT,right,0.7504498136258917,0,,,right,0,0.7504498136258917,,,,,,,,,,,,,,,,,,,,,,1036,2019_Mar_08_1456,mf_amp_cond2,3.0.4,59.985878694633655,
serial,&&&&&&,left,sanctity.vice,,,,,,,,0,97,97,63,,,,,,,,,,,,,,,,,,,,,LDT,right,0.5503993318707217,0,,,right,0,0.5503993318707217,,,,,,,,,,,,,,,,,,,,,,1036,2019_Mar_08_1456,mf_amp_cond2,3.0.4,59.985878694633655,
pistraught,&&&&&&&&&&,right,nonword,,,,,,,,0,98,98,32,,,,,,,,,,,,,,,,,,,,,LDT,right,1.050560334668262,1,,,right,1,1.050560334668262,,,,,,,,,,,,,,,,,,,,,,1036,2019_Mar_08_1456,mf_amp_cond2,3.0.4,59.985878694633655,
great,&&&&&,left,loyalty.virtue,,,,,,,,0,99,99,166,,,,,,,,,,,,,,,,,,,,,LDT,right,0.600410268525593,0,,,right,0,0.600410268525593,,,,,,,,,,,,,,,,,,,,,,1036,2019_Mar_08_1456,mf_amp_cond2,3.0.4,59.985878694633655,
drumbled,&&&&&&&&,right,nonword,,,,,,,,0,100,100,164,,,,,,,,,,,,,,,,,,,,,LDT,right,0.8504623859626008,1,,,right,1,0.8504623859626008,,,,,,,,,,,,,,,,,,,,,,1036,2019_Mar_08_1456,mf_amp_cond2,3.0.4,59.985878694633655,
hence,&&&&&,left,neutral,,,,,,,,0,101,101,163,,,,,,,,,,,,,,,,,,,,,LDT,right,0.8338101411209209,0,,,right,0,0.8338101411209209,,,,,,,,,,,,,,,,,,,,,,1036,2019_Mar_08_1456,mf_amp_cond2,3.0.4,59.985878694633655,
sfumatoy,&&&&&&&&,None,nonword,,,,,,,,0,102,102,9,,,,,,,,,,,,,,,,,,,,,LDT,left,0.6170795116486261,0,,,left,0,0.6170795116486261,,,,,,,,,,,,,,,,,,,,,,1036,2019_Mar_08_1456,mf_amp_cond2,3.0.4,59.985878694633655,
hefurbished,&&&&&&&&&&&,right,nonword,,,,,,,,0,103,103,94,,,,,,,,,,,,,,,,,,,,,LDT,right,0.5003842258302029,1,,,right,1,0.5003842258302029,,,,,,,,,,,,,,,,,,,,,,1036,2019_Mar_08_1456,mf_amp_cond2,3.0.4,59.985878694633655,
praise,&&&&&&,left,authority.virtue,,,,,,,,0,104,104,76,,,,,,,,,,,,,,,,,,,,,LDT,right,0.7171148553024977,0,,,right,0,0.7171148553024977,,,,,,,,,,,,,,,,,,,,,,1036,2019_Mar_08_1456,mf_amp_cond2,3.0.4,59.985878694633655,
each,&&&&,left,neutral,,,,,,,,0,105,105,135,,,,,,,,,,,,,,,,,,,,,LDT,left,0.850477459927788,1,,,left,1,0.850477459927788,,,,,,,,,,,,,,,,,,,,,,1036,2019_Mar_08_1456,mf_amp_cond2,3.0.4,59.985878694633655,
peaceful,&&&&&&&&,left,authority.virtue,,,,,,,,0,106,106,98,,,,,,,,,,,,,,,,,,,,,LDT,right,0.5503993318707217,0,,,right,0,0.5503993318707217,,,,,,,,,,,,,,,,,,,,,,1036,2019_Mar_08_1456,mf_amp_cond2,3.0.4,59.985878694633655,
energy,&&&&&&,left,sanctity.virtue,,,,,,,,0,107,107,153,,,,,,,,,,,,,,,,,,,,,LDT,right,0.5837342901941156,0,,,right,0,0.5837342901941156,,,,,,,,,,,,,,,,,,,,,,1036,2019_Mar_08_1456,mf_amp_cond2,3.0.4,59.985878694633655,
besides,&&&&&&&,left,neutral,,,,,,,,0,108,108,26,,,,,,,,,,,,,,,,,,,,,LDT,right,0.583742949704174,0,,,right,0,0.583742949704174,,,,,,,,,,,,,,,,,,,,,,1036,2019_Mar_08_1456,mf_amp_cond2,3.0.4,59.985878694633655,
fear,&&&&,left,sanctity.vice,,,,,,,,0,109,109,173,,,,,,,,,,,,,,,,,,,,,LDT,right,0.5170637320989044,0,,,right,0,0.5170637320989044,,,,,,,,,,,,,,,,,,,,,,1036,2019_Mar_08_1456,mf_amp_cond2,3.0.4,59.985878694633655,
interests,&&&&&&&&&,left,fairness.virtue,,,,,,,,0,110,110,81,,,,,,,,,,,,,,,,,,,,,LDT,right,0.683795933102374,0,,,right,0,0.683795933102374,,,,,,,,,,,,,,,,,,,,,,1036,2019_Mar_08_1456,mf_amp_cond2,3.0.4,59.985878694633655,
towards,&&&&&&&,left,neutral,,,,,,,,0,111,111,134,,,,,,,,,,,,,,,,,,,,,LDT,right,0.7337840984400827,0,,,right,0,0.7337840984400827,,,,,,,,,,,,,,,,,,,,,,1036,2019_Mar_08_1456,mf_amp_cond2,3.0.4,59.985878694633655,
failure,&&&&&&&,left,loyalty.vice,,,,,,,,0,112,112,12,,,,,,,,,,,,,,,,,,,,,LDT,right,0.6671241241856478,0,,,right,0,0.6671241241856478,,,,,,,,,,,,,,,,,,,,,,1036,2019_Mar_08_1456,mf_amp_cond2,3.0.4,59.985878694633655,
chressing,&&&&&&&&&,None,nonword,,,,,,,,0,113,113,2,,,,,,,,,,,,,,,,,,,,,LDT,left,1.0672019956546137,0,,,left,0,1.0672019956546137,,,,,,,,,,,,,,,,,,,,,,1036,2019_Mar_08_1456,mf_amp_cond2,3.0.4,59.985878694633655,
counpy's,&&&&&&&&,right,nonword,,,,,,,,0,114,114,193,,,,,,,,,,,,,,,,,,,,,LDT,left,0.7171001020615222,0,,,left,0,0.7171001020615222,,,,,,,,,,,,,,,,,,,,,,1036,2019_Mar_08_1456,mf_amp_cond2,3.0.4,59.985878694633655,
metibolic,&&&&&&&&&,right,nonword,,,,,,,,0,115,115,67,,,,,,,,,,,,,,,,,,,,,LDT,left,0.9004935281263897,0,,,left,0,0.9004935281263897,,,,,,,,,,,,,,,,,,,,,,1036,2019_Mar_08_1456,mf_amp_cond2,3.0.4,59.985878694633655,
violence,&&&&&&&&,left,care.vice,,,,,,,,0,116,116,140,,,,,,,,,,,,,,,,,,,,,LDT,right,0.5337400311400415,0,,,right,0,0.5337400311400415,,,,,,,,,,,,,,,,,,,,,,1036,2019_Mar_08_1456,mf_amp_cond2,3.0.4,59.985878694633655,
either,&&&&&&,left,neutral,,,,,,,,0,117,117,59,,,,,,,,,,,,,,,,,,,,,LDT,right,0.5503945210220991,0,,,right,0,0.5503945210220991,,,,,,,,,,,,,,,,,,,,,,1036,2019_Mar_08_1456,mf_amp_cond2,3.0.4,59.985878694633655,
crinking,&&&&&&&&,right,nonword,,,,,,,,0,118,118,144,,,,,,,,,,,,,,,,,,,,,LDT,right,0.6004314362216974,1,,,right,1,0.6004314362216974,,,,,,,,,,,,,,,,,,,,,,1036,2019_Mar_08_1456,mf_amp_cond2,3.0.4,59.985878694633655,
clamorek,&&&&&&&&,right,nonword,,,,,,,,0,119,119,19,,,,,,,,,,,,,,,,,,,,,LDT,left,1.5173171030473895,0,,,left,0,1.5173171030473895,,,,,,,,,,,,,,,,,,,,,,1036,2019_Mar_08_1456,mf_amp_cond2,3.0.4,59.985878694633655,
myself,&&&&&&,left,neutral,,,,,,,,0,120,120,17,,,,,,,,,,,,,,,,,,,,,LDT,right,0.5337348995817592,0,,,right,0,0.5337348995817592,,,,,,,,,,,,,,,,,,,,,,1036,2019_Mar_08_1456,mf_amp_cond2,3.0.4,59.985878694633655,
about,&&&&&,left,neutral,,,,,,,,0,121,121,196,,,,,,,,,,,,,,,,,,,,,LDT,right,0.8004636367841158,0,,,right,0,0.8004636367841158,,,,,,,,,,,,,,,,,,,,,,1036,2019_Mar_08_1456,mf_amp_cond2,3.0.4,59.985878694633655,
presentkess,&&&&&&&&&&&,right,nonword,,,,,,,,0,122,122,126,,,,,,,,,,,,,,,,,,,,,LDT,left,0.600267867630464,0,,,left,0,0.600267867630464,,,,,,,,,,,,,,,,,,,,,,1036,2019_Mar_08_1456,mf_amp_cond2,3.0.4,59.985878694633655,
antral,&&&&&&,right,nonword,,,,,,,,0,123,123,68,,,,,,,,,,,,,,,,,,,,,LDT,right,0.5503964453673689,1,,,right,1,0.5503964453673689,,,,,,,,,,,,,,,,,,,,,,1036,2019_Mar_08_1456,mf_amp_cond2,3.0.4,59.985878694633655,
wherever,&&&&&&&&,left,neutral,,,,,,,,0,124,124,123,,,,,,,,,,,,,,,,,,,,,LDT,right,1.183743013854837,0,,,right,0,1.183743013854837,,,,,,,,,,,,,,,,,,,,,,1036,2019_Mar_08_1456,mf_amp_cond2,3.0.4,59.985878694633655,
therefore,&&&&&&&&&,left,neutral,,,,,,,,0,125,125,61,,,,,,,,,,,,,,,,,,,,,LDT,right,0.7671203396457713,0,,,right,0,0.7671203396457713,,,,,,,,,,,,,,,,,,,,,,1036,2019_Mar_08_1456,mf_amp_cond2,3.0.4,59.985878694633655,
prones,&&&&&&,right,nonword,,,,,,,,0,126,126,38,,,,,,,,,,,,,,,,,,,,,LDT,left,0.6004134757386055,0,,,left,0,0.6004134757386055,,,,,,,,,,,,,,,,,,,,,,1036,2019_Mar_08_1456,mf_amp_cond2,3.0.4,59.985878694633655,
egpeditious,&&&&&&&&&&&,right,nonword,,,,,,,,0,127,127,199,,,,,,,,,,,,,,,,,,,,,LDT,left,0.9004903209133772,0,,,left,0,0.9004903209133772,,,,,,,,,,,,,,,,,,,,,,1036,2019_Mar_08_1456,mf_amp_cond2,3.0.4,59.985878694633655,
shot,&&&&,left,care.vice,,,,,,,,0,128,128,145,,,,,,,,,,,,,,,,,,,,,LDT,right,0.5337201463262318,0,,,right,0,0.5337201463262318,,,,,,,,,,,,,,,,,,,,,,1036,2019_Mar_08_1456,mf_amp_cond2,3.0.4,59.985878694633655,
gondensed,&&&&&&&&&,right,nonword,,,,,,,,0,129,129,41,,,,,,,,,,,,,,,,,,,,,LDT,left,2.5509474470163696,0,,,left,0,2.5509474470163696,,,,,,,,,,,,,,,,,,,,,,1036,2019_Mar_08_1456,mf_amp_cond2,3.0.4,59.985878694633655,
mostly,&&&&&&,left,neutral,,,,,,,,0,130,130,37,,,,,,,,,,,,,,,,,,,,,LDT,right,0.6837555220408831,0,,,right,0,0.6837555220408831,,,,,,,,,,,,,,,,,,,,,,1036,2019_Mar_08_1456,mf_amp_cond2,3.0.4,59.985878694633655,
actively,&&&&&&&&,left,authority.virtue,,,,,,,,0,131,131,71,,,,,,,,,,,,,,,,,,,,,LDT,right,0.7004315003578085,0,,,right,0,0.7004315003578085,,,,,,,,,,,,,,,,,,,,,,1036,2019_Mar_08_1456,mf_amp_cond2,3.0.4,59.985878694633655,
gandbrake,&&&&&&&&&,right,nonword,,,,,,,,0,132,132,139,,,,,,,,,,,,,,,,,,,,,LDT,left,0.6504231294966303,0,,,left,0,0.6504231294966303,,,,,,,,,,,,,,,,,,,,,,1036,2019_Mar_08_1456,mf_amp_cond2,3.0.4,59.985878694633655,
somehow,&&&&&&&,left,neutral,,,,,,,,0,133,133,136,,,,,,,,,,,,,,,,,,,,,LDT,right,0.4837358296645107,0,,,right,0,0.4837358296645107,,,,,,,,,,,,,,,,,,,,,,1036,2019_Mar_08_1456,mf_amp_cond2,3.0.4,59.985878694633655,
nackers,&&&&&&&,right,nonword,,,,,,,,0,134,134,142,,,,,,,,,,,,,,,,,,,,,LDT,left,0.8171341628039954,0,,,left,0,0.8171341628039954,,,,,,,,,,,,,,,,,,,,,,1036,2019_Mar_08_1456,mf_amp_cond2,3.0.4,59.985878694633655,
health,&&&&&&,left,care.virtue,,,,,,,,0,135,135,64,,,,,,,,,,,,,,,,,,,,,LDT,right,0.5003694725892274,0,,,right,0,0.5003694725892274,,,,,,,,,,,,,,,,,,,,,,1036,2019_Mar_08_1456,mf_amp_cond2,3.0.4,59.985878694633655,
aubos,&&&&&,right,nonword,,,,,,,,0,136,136,168,,,,,,,,,,,,,,,,,,,,,LDT,left,0.7338014174601994,0,,,left,0,0.7338014174601994,,,,,,,,,,,,,,,,,,,,,,1036,2019_Mar_08_1456,mf_amp_cond2,3.0.4,59.985878694633655,
eight,&&&&&,left,neutral,,,,,,,,0,137,137,14,,,,,,,,,,,,,,,,,,,,,LDT,right,0.683789518661797,0,,,right,0,0.683789518661797,,,,,,,,,,,,,,,,,,,,,,1036,2019_Mar_08_1456,mf_amp_cond2,3.0.4,59.985878694633655,
give,&&&&,left,neutral,,,,,,,,0,138,138,189,,,,,,,,,,,,,,,,,,,,,LDT,right,1.533977686689468,0,,,right,0,1.533977686689468,,,,,,,,,,,,,,,,,,,,,,1036,2019_Mar_08_1456,mf_amp_cond2,3.0.4,59.985878694633655,
simplustic,&&&&&&&&&&,right,nonword,,,,,,,,0,139,139,51,,,,,,,,,,,,,,,,,,,,,LDT,right,2.0341248984186677,1,,,right,1,2.0341248984186677,,,,,,,,,,,,,,,,,,,,,,1036,2019_Mar_08_1456,mf_amp_cond2,3.0.4,59.985878694633655,
squets,&&&&&&,right,nonword,,,,,,,,0,140,140,150,,,,,,,,,,,,,,,,,,,,,LDT,left,0.6504202429932775,0,,,left,0,0.6504202429932775,,,,,,,,,,,,,,,,,,,,,,1036,2019_Mar_08_1456,mf_amp_cond2,3.0.4,59.985878694633655,
frocessing,&&&&&&&&&&,right,nonword,,,,,,,,0,141,141,165,,,,,,,,,,,,,,,,,,,,,LDT,left,0.700428293144796,0,,,left,0,0.700428293144796,,,,,,,,,,,,,,,,,,,,,,1036,2019_Mar_08_1456,mf_amp_cond2,3.0.4,59.985878694633655,
hate,&&&&,left,fairness.vice,,,,,,,,0,142,142,159,,,,,,,,,,,,,,,,,,,,,LDT,right,0.5337381068093237,0,,,right,0,0.5337381068093237,,,,,,,,,,,,,,,,,,,,,,1036,2019_Mar_08_1456,mf_amp_cond2,3.0.4,59.985878694633655,
pafer,&&&&&,right,nonword,,,,,,,,0,143,143,152,,,,,,,,,,,,,,,,,,,,,LDT,right,1.083868352288846,1,,,right,1,1.083868352288846,,,,,,,,,,,,,,,,,,,,,,1036,2019_Mar_08_1456,mf_amp_cond2,3.0.4,59.985878694633655,
officers,&&&&&&&&,left,authority.vice,,,,,,,,0,144,144,20,,,,,,,,,,,,,,,,,,,,,LDT,right,1.033859660718008,0,,,right,0,1.033859660718008,,,,,,,,,,,,,,,,,,,,,,1036,2019_Mar_08_1456,mf_amp_cond2,3.0.4,59.985878694633655,
latterly,&&&&&&&&,left,neutral,,,,,,,,0,145,145,130,,,,,,,,,,,,,,,,,,,,,LDT,left,1.017182399504236,1,,,left,1,1.017182399504236,,,,,,,,,,,,,,,,,,,,,,1036,2019_Mar_08_1456,mf_amp_cond2,3.0.4,59.985878694633655,
protect,&&&&&&&,left,fairness.virtue,,,,,,,,0,146,146,180,,,,,,,,,,,,,,,,,,,,,LDT,right,0.5337243157118792,0,,,right,0,0.5337243157118792,,,,,,,,,,,,,,,,,,,,,,1036,2019_Mar_08_1456,mf_amp_cond2,3.0.4,59.985878694633655,
anyhow,&&&&&&,left,neutral,,,,,,,,0,147,147,102,,,,,,,,,,,,,,,,,,,,,LDT,left,0.6337574143108213,1,,,left,1,0.6337574143108213,,,,,,,,,,,,,,,,,,,,,,1036,2019_Mar_08_1456,mf_amp_cond2,3.0.4,59.985878694633655,
ebbitter,&&&&&&&&,right,nonword,,,,,,,,0,148,148,35,,,,,,,,,,,,,,,,,,,,,LDT,right,1.3505999760091072,1,,,right,1,1.3505999760091072,,,,,,,,,,,,,,,,,,,,,,1036,2019_Mar_08_1456,mf_amp_cond2,3.0.4,59.985878694633655,
nomaric,&&&&&&&,None,nonword,,,,,,,,0,149,149,124,,,,,,,,,,,,,,,,,,,,,LDT,left,0.6837616157863522,0,,,left,0,0.6837616157863522,,,,,,,,,,,,,,,,,,,,,,1036,2019_Mar_08_1456,mf_amp_cond2,3.0.4,59.985878694633655,
abuse,&&&&&,left,sanctity.vice,,,,,,,,0,150,150,138,,,,,,,,,,,,,,,,,,,,,LDT,right,0.7171318535984028,0,,,right,0,0.7171318535984028,,,,,,,,,,,,,,,,,,,,,,1036,2019_Mar_08_1456,mf_amp_cond2,3.0.4,59.985878694633655,
mightingale,&&&&&&&&&&&,right,nonword,,,,,,,,0,151,151,101,,,,,,,,,,,,,,,,,,,,,LDT,left,0.8671944907546276,0,,,left,0,0.8671944907546276,,,,,,,,,,,,,,,,,,,,,,1036,2019_Mar_08_1456,mf_amp_cond2,3.0.4,59.985878694633655,
slending,&&&&&&&&,right,nonword,,,,,,,,0,152,152,95,,,,,,,,,,,,,,,,,,,,,LDT,left,0.7171174210816389,0,,,left,0,0.7171174210816389,,,,,,,,,,,,,,,,,,,,,,1036,2019_Mar_08_1456,mf_amp_cond2,3.0.4,59.985878694633655,
baklara,&&&&&&&,right,nonword,,,,,,,,0,153,153,1,,,,,,,,,,,,,,,,,,,,,LDT,left,0.6504481458687223,0,,,left,0,0.6504481458687223,,,,,,,,,,,,,,,,,,,,,,1036,2019_Mar_08_1456,mf_amp_cond2,3.0.4,59.985878694633655,
bluently,&&&&&&&&,None,nonword,,,,,,,,0,154,154,160,,,,,,,,,,,,,,,,,,,,,LDT,left,1.150572907019523,0,,,left,0,1.150572907019523,,,,,,,,,,,,,,,,,,,,,,1036,2019_Mar_08_1456,mf_amp_cond2,3.0.4,59.985878694633655,
thabbily,&&&&&&&&,right,nonword,,,,,,,,0,155,155,109,,,,,,,,,,,,,,,,,,,,,LDT,left,1.5006449734210037,0,,,left,0,1.5006449734210037,,,,,,,,,,,,,,,,,,,,,,1036,2019_Mar_08_1456,mf_amp_cond2,3.0.4,59.985878694633655,
ittutable,&&&&&&&&&,right,nonword,,,,,,,,0,156,156,25,,,,,,,,,,,,,,,,,,,,,LDT,left,0.6837651437235763,0,,,left,0,0.6837651437235763,,,,,,,,,,,,,,,,,,,,,,1036,2019_Mar_08_1456,mf_amp_cond2,3.0.4,59.985878694633655,
critics,&&&&&&&,left,loyalty.vice,,,,,,,,0,157,157,82,,,,,,,,,,,,,,,,,,,,,LDT,right,0.41703544434858486,0,,,right,0,0.41703544434858486,,,,,,,,,,,,,,,,,,,,,,1036,2019_Mar_08_1456,mf_amp_cond2,3.0.4,59.985878694633655,
rejected,&&&&&&&&,left,authority.vice,,,,,,,,0,158,158,53,,,,,,,,,,,,,,,,,,,,,LDT,right,0.4837149826926179,0,,,right,0,0.4837149826926179,,,,,,,,,,,,,,,,,,,,,,1036,2019_Mar_08_1456,mf_amp_cond2,3.0.4,59.985878694633655,
promises,&&&&&&&&,left,fairness.virtue,,,,,,,,0,159,159,104,,,,,,,,,,,,,,,,,,,,,LDT,right,0.6004404164559674,0,,,right,0,0.6004404164559674,,,,,,,,,,,,,,,,,,,,,,1036,2019_Mar_08_1456,mf_amp_cond2,3.0.4,59.985878694633655,
tomedians,&&&&&&&&&,right,nonword,,,,,,,,0,160,160,183,,,,,,,,,,,,,,,,,,,,,LDT,left,0.5670541424915427,0,,,left,0,0.5670541424915427,,,,,,,,,,,,,,,,,,,,,,1036,2019_Mar_08_1456,mf_amp_cond2,3.0.4,59.985878694633655,
fifteen,&&&&&&&,left,neutral,,,,,,,,0,161,161,22,,,,,,,,,,,,,,,,,,,,,LDT,right,0.550428517643013,0,,,right,0,0.550428517643013,,,,,,,,,,,,,,,,,,,,,,1036,2019_Mar_08_1456,mf_amp_cond2,3.0.4,59.985878694633655,
tenuflect,&&&&&&&&&,right,nonword,,,,,,,,0,162,162,34,,,,,,,,,,,,,,,,,,,,,LDT,left,1.1005340674892068,0,,,left,0,1.1005340674892068,,,,,,,,,,,,,,,,,,,,,,1036,2019_Mar_08_1456,mf_amp_cond2,3.0.4,59.985878694633655,
support,&&&&&&&,left,loyalty.virtue,,,,,,,,0,163,163,60,,,,,,,,,,,,,,,,,,,,,LDT,right,0.7837902242317796,0,,,right,0,0.7837902242317796,,,,,,,,,,,,,,,,,,,,,,1036,2019_Mar_08_1456,mf_amp_cond2,3.0.4,59.985878694633655,
front,&&&&&,left,neutral,,,,,,,,0,164,164,29,,,,,,,,,,,,,,,,,,,,,LDT,right,1.433958058434655,0,,,right,0,1.433958058434655,,,,,,,,,,,,,,,,,,,,,,1036,2019_Mar_08_1456,mf_amp_cond2,3.0.4,59.985878694633655,
disregord,&&&&&&&&&,right,nonword,,,,,,,,0,165,165,105,,,,,,,,,,,,,,,,,,,,,LDT,right,0.8838092110236175,1,,,right,1,0.8838092110236175,,,,,,,,,,,,,,,,,,,,,,1036,2019_Mar_08_1456,mf_amp_cond2,3.0.4,59.985878694633655,
itself,&&&&&&,left,neutral,,,,,,,,0,166,166,192,,,,,,,,,,,,,,,,,,,,,LDT,right,0.8171357664105017,0,,,right,0,0.8171357664105017,,,,,,,,,,,,,,,,,,,,,,1036,2019_Mar_08_1456,mf_amp_cond2,3.0.4,59.985878694633655,
lorthwhile,&&&&&&&&&&,right,nonword,,,,,,,,0,167,167,80,,,,,,,,,,,,,,,,,,,,,LDT,right,0.8504646310175303,1,,,right,1,0.8504646310175303,,,,,,,,,,,,,,,,,,,,,,1036,2019_Mar_08_1456,mf_amp_cond2,3.0.4,59.985878694633655,
forty,&&&&&,left,neutral,,,,,,,,0,168,168,172,,,,,,,,,,,,,,,,,,,,,LDT,right,0.7336349623801652,0,,,right,0,0.7336349623801652,,,,,,,,,,,,,,,,,,,,,,1036,2019_Mar_08_1456,mf_amp_cond2,3.0.4,59.985878694633655,
dormandi,&&&&&&&&,None,nonword,,,,,,,,0,169,169,93,,,,,,,,,,,,,,,,,,,,,LDT,left,0.8337992365413811,0,,,left,0,0.8337992365413811,,,,,,,,,,,,,,,,,,,,,,1036,2019_Mar_08_1456,mf_amp_cond2,3.0.4,59.985878694633655,
unscothed,&&&&&&&&&,right,nonword,,,,,,,,0,170,170,90,,,,,,,,,,,,,,,,,,,,,LDT,right,0.43369859375525266,1,,,right,1,0.43369859375525266,,,,,,,,,,,,,,,,,,,,,,1036,2019_Mar_08_1456,mf_amp_cond2,3.0.4,59.985878694633655,
sonvoy,&&&&&&,None,nonword,,,,,,,,0,171,171,110,,,,,,,,,,,,,,,,,,,,,LDT,left,1.9174132557382109,0,,,left,0,1.9174132557382109,,,,,,,,,,,,,,,,,,,,,,1036,2019_Mar_08_1456,mf_amp_cond2,3.0.4,59.985878694633655,
done,&&&&,left,neutral,,,,,,,,0,172,172,28,,,,,,,,,,,,,,,,,,,,,LDT,right,0.8503344175987877,0,,,right,0,0.8503344175987877,,,,,,,,,,,,,,,,,,,,,,1036,2019_Mar_08_1456,mf_amp_cond2,3.0.4,59.985878694633655,
wonderfujnoss,&&&&&&&&&&&&&,right,nonword,,,,,,,,0,173,173,57,,,,,,,,,,,,,,,,,,,,,LDT,right,0.8838852223125286,1,,,right,1,0.8838852223125286,,,,,,,,,,,,,,,,,,,,,,1036,2019_Mar_08_1456,mf_amp_cond2,3.0.4,59.985878694633655,
mecan,&&&&&,right,nonword,,,,,,,,0,174,174,16,,,,,,,,,,,,,,,,,,,,,LDT,left,1.0171830409526592,0,,,left,0,1.0171830409526592,,,,,,,,,,,,,,,,,,,,,,1036,2019_Mar_08_1456,mf_amp_cond2,3.0.4,59.985878694633655,
frojecting,&&&&&&&&&&,right,nonword,,,,,,,,0,175,175,125,,,,,,,,,,,,,,,,,,,,,LDT,right,0.7004395184339955,1,,,right,1,0.7004395184339955,,,,,,,,,,,,,,,,,,,,,,1036,2019_Mar_08_1456,mf_amp_cond2,3.0.4,59.985878694633655,
hereby,&&&&&&,left,neutral,,,,,,,,0,176,176,169,,,,,,,,,,,,,,,,,,,,,LDT,left,1.2339043694664724,1,,,left,1,1.2339043694664724,,,,,,,,,,,,,,,,,,,,,,1036,2019_Mar_08_1456,mf_amp_cond2,3.0.4,59.985878694633655,
strofe,&&&&&&,right,nonword,,,,,,,,0,177,177,103,,,,,,,,,,,,,,,,,,,,,LDT,right,0.7838036945904605,1,,,right,1,0.7838036945904605,,,,,,,,,,,,,,,,,,,,,,1036,2019_Mar_08_1456,mf_amp_cond2,3.0.4,59.985878694633655,
erks,&&&&,right,nonword,,,,,,,,0,178,178,137,,,,,,,,,,,,,,,,,,,,,LDT,left,0.900481661388767,0,,,left,0,0.900481661388767,,,,,,,,,,,,,,,,,,,,,,1036,2019_Mar_08_1456,mf_amp_cond2,3.0.4,59.985878694633655,
lursuer,&&&&&&&,right,nonword,,,,,,,,0,179,179,87,,,,,,,,,,,,,,,,,,,,,LDT,left,1.4506240943592275,0,,,left,0,1.4506240943592275,,,,,,,,,,,,,,,,,,,,,,1036,2019_Mar_08_1456,mf_amp_cond2,3.0.4,59.985878694633655,
promote,&&&&&&&,left,sanctity.virtue,,,,,,,,0,180,180,78,,,,,,,,,,,,,,,,,,,,,LDT,left,0.7671261126670288,1,,,left,1,0.7671261126670288,,,,,,,,,,,,,,,,,,,,,,1036,2019_Mar_08_1456,mf_amp_cond2,3.0.4,59.985878694633655,
Boeinf,&&&&&&,right,nonword,,,,,,,,0,181,181,36,,,,,,,,,,,,,,,,,,,,,LDT,left,0.5670621605531778,0,,,left,0,0.5670621605531778,,,,,,,,,,,,,,,,,,,,,,1036,2019_Mar_08_1456,mf_amp_cond2,3.0.4,59.985878694633655,
pulge,&&&&&,right,nonword,,,,,,,,0,182,182,5,,,,,,,,,,,,,,,,,,,,,LDT,left,0.6170804738358129,0,,,left,0,0.6170804738358129,,,,,,,,,,,,,,,,,,,,,,1036,2019_Mar_08_1456,mf_amp_cond2,3.0.4,59.985878694633655,
festate,&&&&&&&,right,nonword,,,,,,,,0,183,183,89,,,,,,,,,,,,,,,,,,,,,LDT,left,0.633757735020481,0,,,left,0,0.633757735020481,,,,,,,,,,,,,,,,,,,,,,1036,2019_Mar_08_1456,mf_amp_cond2,3.0.4,59.985878694633655,
idexpressible,&&&&&&&&&&&&&,right,nonword,,,,,,,,0,184,184,55,,,,,,,,,,,,,,,,,,,,,LDT,left,0.5836486572370632,0,,,left,0,0.5836486572370632,,,,,,,,,,,,,,,,,,,,,,1036,2019_Mar_08_1456,mf_amp_cond2,3.0.4,59.985878694633655,
brudent,&&&&&&&,right,nonword,,,,,,,,0,185,185,118,,,,,,,,,,,,,,,,,,,,,LDT,left,0.5837320451391861,0,,,left,0,0.5837320451391861,,,,,,,,,,,,,,,,,,,,,,1036,2019_Mar_08_1456,mf_amp_cond2,3.0.4,59.985878694633655,
forepo,&&&&&&,right,nonword,,,,,,,,0,186,186,179,,,,,,,,,,,,,,,,,,,,,LDT,left,0.5503942003124394,0,,,left,0,0.5503942003124394,,,,,,,,,,,,,,,,,,,,,,1036,2019_Mar_08_1456,mf_amp_cond2,3.0.4,59.985878694633655,
pumber,&&&&&&,None,nonword,,,,,,,,0,187,187,147,,,,,,,,,,,,,,,,,,,,,LDT,left,0.7504527001292445,0,,,left,0,0.7504527001292445,,,,,,,,,,,,,,,,,,,,,,1036,2019_Mar_08_1456,mf_amp_cond2,3.0.4,59.985878694633655,
grovelire,&&&&&&&&&,right,nonword,,,,,,,,0,188,188,121,,,,,,,,,,,,,,,,,,,,,LDT,left,0.5003800564300036,0,,,left,0,0.5003800564300036,,,,,,,,,,,,,,,,,,,,,,1036,2019_Mar_08_1456,mf_amp_cond2,3.0.4,59.985878694633655,
help,&&&&,left,care.virtue,,,,,,,,0,189,189,185,,,,,,,,,,,,,,,,,,,,,LDT,right,1.0005141185392858,0,,,right,0,1.0005141185392858,,,,,,,,,,,,,,,,,,,,,,1036,2019_Mar_08_1456,mf_amp_cond2,3.0.4,59.985878694633655,
toward,&&&&&&,left,neutral,,,,,,,,0,190,190,113,,,,,,,,,,,,,,,,,,,,,LDT,right,0.6002720370161114,0,,,right,0,0.6002720370161114,,,,,,,,,,,,,,,,,,,,,,1036,2019_Mar_08_1456,mf_amp_cond2,3.0.4,59.985878694633655,
noone,&&&&&,left,neutral,,,,,,,,0,191,191,148,,,,,,,,,,,,,,,,,,,,,LDT,left,0.5837381388701033,1,,,left,1,0.5837381388701033,,,,,,,,,,,,,,,,,,,,,,1036,2019_Mar_08_1456,mf_amp_cond2,3.0.4,59.985878694633655,
useful,&&&&&&,left,authority.virtue,,,,,,,,0,192,192,174,,,,,,,,,,,,,,,,,,,,,LDT,right,0.5837307622423396,0,,,right,0,0.5837307622423396,,,,,,,,,,,,,,,,,,,,,,1036,2019_Mar_08_1456,mf_amp_cond2,3.0.4,59.985878694633655,
pharing,&&&&&&&,right,nonword,,,,,,,,0,193,193,133,,,,,,,,,,,,,,,,,,,,,LDT,right,0.6670910897373687,1,,,right,1,0.6670910897373687,,,,,,,,,,,,,,,,,,,,,,1036,2019_Mar_08_1456,mf_amp_cond2,3.0.4,59.985878694633655,
seem,&&&&,left,neutral,,,,,,,,0,194,194,88,,,,,,,,,,,,,,,,,,,,,LDT,right,0.7671148873632774,0,,,right,0,0.7671148873632774,,,,,,,,,,,,,,,,,,,,,,1036,2019_Mar_08_1456,mf_amp_cond2,3.0.4,59.985878694633655,
gournful,&&&&&&&&,right,nonword,,,,,,,,0,195,195,170,,,,,,,,,,,,,,,,,,,,,LDT,left,0.933830731533817,0,,,left,0,0.933830731533817,,,,,,,,,,,,,,,,,,,,,,1036,2019_Mar_08_1456,mf_amp_cond2,3.0.4,59.985878694633655,
integrity,&&&&&&&&&,left,fairness.virtue,,,,,,,,0,196,196,106,,,,,,,,,,,,,,,,,,,,,LDT,right,0.7004359904822195,0,,,right,0,0.7004359904822195,,,,,,,,,,,,,,,,,,,,,,1036,2019_Mar_08_1456,mf_amp_cond2,3.0.4,59.985878694633655,
tabin,&&&&&,right,nonword,,,,,,,,0,197,197,23,,,,,,,,,,,,,,,,,,,,,LDT,left,0.6837667473446345,0,,,left,0,0.6837667473446345,,,,,,,,,,,,,,,,,,,,,,1036,2019_Mar_08_1456,mf_amp_cond2,3.0.4,59.985878694633655,
anything,&&&&&&&&,left,neutral,,,,,,,,0,198,198,161,,,,,,,,,,,,,,,,,,,,,LDT,right,0.6504382034618175,0,,,right,0,0.6504382034618175,,,,,,,,,,,,,,,,,,,,,,1036,2019_Mar_08_1456,mf_amp_cond2,3.0.4,59.985878694633655,
intelligence,&&&&&&&&&&&&,left,loyalty.virtue,,,,,,,,0,199,199,112,,,,,,,,,,,,,,,,,,,,,LDT,right,0.7671036620740779,0,,,right,0,0.7671036620740779,,,,,,,,,,,,,,,,,,,,,,1036,2019_Mar_08_1456,mf_amp_cond2,3.0.4,59.985878694633655,
,,,,,,,,,,,,,,,,,,,,,,,,,,,,,,,,,,,,,,,,,,,,5,12.939,,,,,,,,,,,,,,,,,,,,1036,2019_Mar_08_1456,mf_amp_cond2,3.0.4,59.985878694633655,
,,,,,,,,,,,,,,,,,,,,,,,,,,,,,,,,,,,,,,,,,,,,,,right,0.6504378827521577,,,,,,,,,,,,,,,,,,1036,2019_Mar_08_1456,mf_amp_cond2,3.0.4,59.985878694633655,
scarf,&&&&&&&&,,,bisebell,,,,,,,,,,,0,0,0,3,,,,,,,,,,,,,,,,,AMP_prac,right,1.7507589903398184,,,,,,,,,,,right,1.7507589903398184,,,,,,,,,,,,,,,,1036,2019_Mar_08_1456,mf_amp_cond2,3.0.4,59.985878694633655,
car,&&&&&&&&,,,cemtuper,,,,,,,,,,,0,1,1,0,,,,,,,,,,,,,,,,,AMP_prac,right,0.6504410899651702,,,,,,,,,,,right,0.6504410899651702,,,,,,,,,,,,,,,,1036,2019_Mar_08_1456,mf_amp_cond2,3.0.4,59.985878694633655,
banana,&&&&&&,,,kacket,,,,,,,,,,,0,2,2,1,,,,,,,,,,,,,,,,,AMP_prac,right,0.5004063556989422,,,,,,,,,,,right,0.5004063556989422,,,,,,,,,,,,,,,,1036,2019_Mar_08_1456,mf_amp_cond2,3.0.4,59.985878694633655,
keyboard,&&&&,,,senk,,,,,,,,,,,0,3,3,2,,,,,,,,,,,,,,,,,AMP_prac,right,0.41706847879686393,,,,,,,,,,,right,0.41706847879686393,,,,,,,,,,,,,,,,1036,2019_Mar_08_1456,mf_amp_cond2,3.0.4,59.985878694633655,
,,,,,,,,,,,,,,,,,,,,,,,,,,,,,,,,,,,,,,,,,,,,,,,,,,right,1.067199750614236,,,,,,,,,,,,,,1036,2019_Mar_08_1456,mf_amp_cond2,3.0.4,59.985878694633655,
progress,&&&&&&&&&,left,authority.virtue,faspberry,,,,,,,,,,,,,,,0,0,0,252,,,,,,,,,,,,,AMP,right,1.7173727163753938,0,,,,,,,,,,,,,,right,0,1.7173727163753938,,,,,,,,,,,1036,2019_Mar_08_1456,mf_amp_cond2,3.0.4,59.985878694633655,
refused,&&&&&&&,right,authority.vice,dramens,,,,,,,,,,,,,,,0,1,1,72,,,,,,,,,,,,,AMP,left,0.5504057463258505,0,,,,,,,,,,,,,,left,0,0.5504057463258505,,,,,,,,,,,1036,2019_Mar_08_1456,mf_amp_cond2,3.0.4,59.985878694633655,
prosecution,&&&&&&,right,authority.vice,tislay,,,,,,,,,,,,,,,0,2,2,115,,,,,,,,,,,,,AMP,left,0.8171457088319585,0,,,,,,,,,,,,,,left,0,0.8171457088319585,,,,,,,,,,,1036,2019_Mar_08_1456,mf_amp_cond2,3.0.4,59.985878694633655,
party,&&&&&&&&,left,loyalty.virtue,suggists,,,,,,,,,,,,,,,0,3,3,206,,,,,,,,,,,,,AMP,right,2.3175296139379498,0,,,,,,,,,,,,,,right,0,2.3175296139379498,,,,,,,,,,,1036,2019_Mar_08_1456,mf_amp_cond2,3.0.4,59.985878694633655,
good,&&&&&&&&&&,left,care.virtue,imebreaker,,,,,,,,,,,,,,,0,4,4,280,,,,,,,,,,,,,AMP,right,0.5337397104158299,0,,,,,,,,,,,,,,right,0,0.5337397104158299,,,,,,,,,,,1036,2019_Mar_08_1456,mf_amp_cond2,3.0.4,59.985878694633655,
killed,&&&&&&&&&,right,care.vice,seachwear,,,,,,,,,,,,,,,0,5,5,142,,,,,,,,,,,,,AMP,left,0.400375822908245,0,,,,,,,,,,,,,,left,0,0.400375822908245,,,,,,,,,,,1036,2019_Mar_08_1456,mf_amp_cond2,3.0.4,59.985878694633655,
perfect,&&&&&&&&,left,sanctity.virtue,hescribe,,,,,,,,,,,,,,,0,6,6,4,,,,,,,,,,,,,AMP,right,0.45037072339619044,0,,,,,,,,,,,,,,right,0,0.45037072339619044,,,,,,,,,,,1036,2019_Mar_08_1456,mf_amp_cond2,3.0.4,59.985878694633655,
scandal,&&&&,right,sanctity.vice,juck,,,,,,,,,,,,,,,0,7,7,189,,,,,,,,,,,,,AMP,left,1.450639809772838,0,,,,,,,,,,,,,,left,0,1.450639809772838,,,,,,,,,,,1036,2019_Mar_08_1456,mf_amp_cond2,3.0.4,59.985878694633655,
promised,&&&&&&,left,loyalty.virtue,gazily,,,,,,,,,,,,,,,0,8,8,192,,,,,,,,,,,,,AMP,right,0.5337518978776643,0,,,,,,,,,,,,,,right,0,0.5337518978776643,,,,,,,,,,,1036,2019_Mar_08_1456,mf_amp_cond2,3.0.4,59.985878694633655,
ronviolence,&&&&&&&,None,nonword,allears,,,,,,,,,,,,,,,0,9,9,273,,,,,,,,,,,,,AMP,left,1.0838946515577845,0,,,,,,,,,,,,,,left,0,1.0838946515577845,,,,,,,,,,,1036,2019_Mar_08_1456,mf_amp_cond2,3.0.4,59.985878694633655,
men,&&&&&,right,loyalty.vice,scock,,,,,,,,,,,,,,,0,10,10,23,,,,,,,,,,,,,AMP,left,2.7843229446880287,0,,,,,,,,,,,,,,left,0,2.7843229446880287,,,,,,,,,,,1036,2019_Mar_08_1456,mf_amp_cond2,3.0.4,59.985878694633655,
ban,&&&&&&&&&&,right,loyalty.vice,supervuned,,,,,,,,,,,,,,,0,11,11,10,,,,,,,,,,,,,AMP,left,0.7504886210663244,0,,,,,,,,,,,,,,left,0,0.7504886210663244,,,,,,,,,,,1036,2019_Mar_08_1456,mf_amp_cond2,3.0.4,59.985878694633655,
troops,&&&&&&&,right,loyalty.vice,vurtain,,,,,,,,,,,,,,,0,12,12,40,,,,,,,,,,,,,AMP,left,1.067206165054813,0,,,,,,,,,,,,,,left,0,1.067206165054813,,,,,,,,,,,1036,2019_Mar_08_1456,mf_amp_cond2,3.0.4,59.985878694633655,
friends,&&&&&&&&,left,loyalty.virtue,suggists,,,,,,,,,,,,,,,0,13,13,148,,,,,,,,,,,,,AMP,right,0.38369984457676765,0,,,,,,,,,,,,,,right,0,0.38369984457676765,,,,,,,,,,,1036,2019_Mar_08_1456,mf_amp_cond2,3.0.4,59.985878694633655,
accused,&&&&&,right,fairness.vice,framo,,,,,,,,,,,,,,,0,14,14,198,,,,,,,,,,,,,AMP,left,2.300869992468506,0,,,,,,,,,,,,,,left,0,2.300869992468506,,,,,,,,,,,1036,2019_Mar_08_1456,mf_amp_cond2,3.0.4,59.985878694633655,
improve,&&&&&,left,care.virtue,hasks,,,,,,,,,,,,,,,0,15,15,202,,,,,,,,,,,,,AMP,right,0.5337461248709587,0,,,,,,,,,,,,,,right,0,0.5337461248709587,,,,,,,,,,,1036,2019_Mar_08_1456,mf_amp_cond2,3.0.4,59.985878694633655,
trust,&&&&&&,left,authority.virtue,gikely,,,,,,,,,,,,,,,0,16,16,131,,,,,,,,,,,,,AMP,right,1.0505398084205808,0,,,,,,,,,,,,,,right,0,1.0505398084205808,,,,,,,,,,,1036,2019_Mar_08_1456,mf_amp_cond2,3.0.4,59.985878694633655,
ability,&&&,left,authority.virtue,mih,,,,,,,,,,,,,,,0,17,17,31,,,,,,,,,,,,,AMP,right,1.717383300230722,0,,,,,,,,,,,,,,right,0,1.717383300230722,,,,,,,,,,,1036,2019_Mar_08_1456,mf_amp_cond2,3.0.4,59.985878694633655,
charges,&&&&&&&&&&&&,right,fairness.vice,nonobservalt,,,,,,,,,,,,,,,0,18,18,225,,,,,,,,,,,,,AMP,left,2.167332593948231,0,,,,,,,,,,,,,,left,0,2.167332593948231,,,,,,,,,,,1036,2019_Mar_08_1456,mf_amp_cond2,3.0.4,59.985878694633655,
dignity,&&&&&&&&,left,sanctity.virtue,glacenta,,,,,,,,,,,,,,,0,19,19,3,,,,,,,,,,,,,AMP,right,0.6504346755245933,0,,,,,,,,,,,,,,right,0,0.6504346755245933,,,,,,,,,,,1036,2019_Mar_08_1456,mf_amp_cond2,3.0.4,59.985878694633655,
protesters,&&&&&&&&&&&,right,authority.vice,vicissifude,,,,,,,,,,,,,,,0,20,20,32,,,,,,,,,,,,,AMP,left,1.3006057169550331,0,,,,,,,,,,,,,,left,0,1.3006057169550331,,,,,,,,,,,1036,2019_Mar_08_1456,mf_amp_cond2,3.0.4,59.985878694633655,
benefit,&&&&&&&,left,fairness.virtue,sickyay,,,,,,,,,,,,,,,0,21,21,281,,,,,,,,,,,,,AMP,right,0.4837332638853695,0,,,,,,,,,,,,,,right,0,0.4837332638853695,,,,,,,,,,,1036,2019_Mar_08_1456,mf_amp_cond2,3.0.4,59.985878694633655,
party,&&&&&&&&&&&,left,loyalty.virtue,neneficence,,,,,,,,,,,,,,,0,22,22,259,,,,,,,,,,,,,AMP,right,1.5840585408732295,0,,,,,,,,,,,,,,right,0,1.5840585408732295,,,,,,,,,,,1036,2019_Mar_08_1456,mf_amp_cond2,3.0.4,59.985878694633655,
betrayal,&&&&&&&&,right,loyalty.vice,framatic,,,,,,,,,,,,,,,0,23,23,165,,,,,,,,,,,,,AMP,left,0.4170338407420786,0,,,,,,,,,,,,,,left,0,0.4170338407420786,,,,,,,,,,,1036,2019_Mar_08_1456,mf_amp_cond2,3.0.4,59.985878694633655,
riot,&&&&&&&&&&,right,authority.vice,clattening,,,,,,,,,,,,,,,0,24,24,103,,,,,,,,,,,,,AMP,left,0.40037101204507053,0,,,,,,,,,,,,,,left,0,0.40037101204507053,,,,,,,,,,,1036,2019_Mar_08_1456,mf_amp_cond2,3.0.4,59.985878694633655,
violations,&&&&&&&&,right,sanctity.vice,hescribe,,,,,,,,,,,,,,,0,25,25,110,,,,,,,,,,,,,AMP,left,0.35035013299784623,0,,,,,,,,,,,,,,left,0,0.35035013299784623,,,,,,,,,,,1036,2019_Mar_08_1456,mf_amp_cond2,3.0.4,59.985878694633655,
hatigue,&&&&&&&&&&&&,None,nonword,gusinesslike,,,,,,,,,,,,,,,0,26,26,96,,,,,,,,,,,,,AMP,left,1.2339117460796842,0,,,,,,,,,,,,,,left,0,1.2339117460796842,,,,,,,,,,,1036,2019_Mar_08_1456,mf_amp_cond2,3.0.4,59.985878694633655,
penalty,&&&&&&&&,right,authority.vice,divility,,,,,,,,,,,,,,,0,27,27,291,,,,,,,,,,,,,AMP,left,0.36702771493582986,0,,,,,,,,,,,,,,left,0,0.36702771493582986,,,,,,,,,,,1036,2019_Mar_08_1456,mf_amp_cond2,3.0.4,59.985878694633655,
killed,&&&&&&&&,right,care.vice,suggists,,,,,,,,,,,,,,,0,28,28,62,,,,,,,,,,,,,AMP,left,0.33368794576381333,0,,,,,,,,,,,,,,left,0,0.33368794576381333,,,,,,,,,,,1036,2019_Mar_08_1456,mf_amp_cond2,3.0.4,59.985878694633655,
esquisiteness,&&&&&&&&&&&&,None,nonword,feleological,,,,,,,,,,,,,,,0,29,29,304,,,,,,,,,,,,,AMP,left,0.8504967032931745,0,,,,,,,,,,,,,,left,0,0.8504967032931745,,,,,,,,,,,1036,2019_Mar_08_1456,mf_amp_cond2,3.0.4,59.985878694633655,
wump,&&&&&&&&&&,None,nonword,ejanulated,,,,,,,,,,,,,,,0,30,30,160,,,,,,,,,,,,,AMP,left,1.7673836530302651,0,,,,,,,,,,,,,,left,0,1.7673836530302651,,,,,,,,,,,1036,2019_Mar_08_1456,mf_amp_cond2,3.0.4,59.985878694633655,
slavery,&&&&&&&,right,loyalty.vice,menizen,,,,,,,,,,,,,,,0,31,31,56,,,,,,,,,,,,,AMP,left,0.3670392609637929,0,,,,,,,,,,,,,,left,0,0.3670392609637929,,,,,,,,,,,1036,2019_Mar_08_1456,mf_amp_cond2,3.0.4,59.985878694633655,
suicide,&&&&&&&&,right,care.vice,ugeasily,,,,,,,,,,,,,,,0,32,32,77,,,,,,,,,,,,,AMP,left,0.3670309221633943,0,,,,,,,,,,,,,,left,0,0.3670309221633943,,,,,,,,,,,1036,2019_Mar_08_1456,mf_amp_cond2,3.0.4,59.985878694633655,
values,&&&&&&&&&&,left,sanctity.virtue,ammessment,,,,,,,,,,,,,,,0,33,33,177,,,,,,,,,,,,,AMP,right,0.3170113259984646,0,,,,,,,,,,,,,,right,0,0.3170113259984646,,,,,,,,,,,1036,2019_Mar_08_1456,mf_amp_cond2,3.0.4,59.985878694633655,
freedom,&&&&&&,left,sanctity.virtue,gikely,,,,,,,,,,,,,,,0,34,34,59,,,,,,,,,,,,,AMP,right,0.4170203703833977,0,,,,,,,,,,,,,,right,0,0.4170203703833977,,,,,,,,,,,1036,2019_Mar_08_1456,mf_amp_cond2,3.0.4,59.985878694633655,
protesters,&&&&&,right,authority.vice,lenon,,,,,,,,,,,,,,,0,35,35,182,,,,,,,,,,,,,AMP,left,3.017718006463838,0,,,,,,,,,,,,,,left,0,3.017718006463838,,,,,,,,,,,1036,2019_Mar_08_1456,mf_amp_cond2,3.0.4,59.985878694633655,
corruption,&&&&&&&&,right,sanctity.vice,nuckheap,,,,,,,,,,,,,,,0,36,36,241,,,,,,,,,,,,,AMP,left,0.3336937187850708,0,,,,,,,,,,,,,,left,0,0.3336937187850708,,,,,,,,,,,1036,2019_Mar_08_1456,mf_amp_cond2,3.0.4,59.985878694633655,
progress,&&&&&&&&&,left,authority.virtue,faspberry,,,,,,,,,,,,,,,0,37,37,170,,,,,,,,,,,,,AMP,right,0.35031164626707323,0,,,,,,,,,,,,,,right,0,0.35031164626707323,,,,,,,,,,,1036,2019_Mar_08_1456,mf_amp_cond2,3.0.4,59.985878694633655,
dignity,&&&&&&&&,left,sanctity.virtue,glacenta,,,,,,,,,,,,,,,0,38,38,246,,,,,,,,,,,,,AMP,right,0.4503133140387945,0,,,,,,,,,,,,,,right,0,0.4503133140387945,,,,,,,,,,,1036,2019_Mar_08_1456,mf_amp_cond2,3.0.4,59.985878694633655,
care,&&&&&&&,left,care.virtue,chreams,,,,,,,,,,,,,,,0,39,39,63,,,,,,,,,,,,,AMP,right,0.3837043347011786,0,,,,,,,,,,,,,,right,0,0.3837043347011786,,,,,,,,,,,1036,2019_Mar_08_1456,mf_amp_cond2,3.0.4,59.985878694633655,
arrests,&&&&&,right,authority.vice,framo,,,,,,,,,,,,,,,0,40,40,14,,,,,,,,,,,,,AMP,left,0.6837863114196807,0,,,,,,,,,,,,,,left,0,0.6837863114196807,,,,,,,,,,,1036,2019_Mar_08_1456,mf_amp_cond2,3.0.4,59.985878694633655,
torture,&&&&&&&,right,care.vice,gedious,,,,,,,,,,,,,,,0,41,41,60,,,,,,,,,,,,,AMP,left,0.3501804706756957,0,,,,,,,,,,,,,,left,0,0.3501804706756957,,,,,,,,,,,1036,2019_Mar_08_1456,mf_amp_cond2,3.0.4,59.985878694633655,
betrayal,&&&&&&&&,right,loyalty.vice,lachelor,,,,,,,,,,,,,,,0,42,42,19,,,,,,,,,,,,,AMP,left,0.36702450770826545,0,,,,,,,,,,,,,,left,0,0.36702450770826545,,,,,,,,,,,1036,2019_Mar_08_1456,mf_amp_cond2,3.0.4,59.985878694633655,
suicide,&&&&&&&,right,care.vice,reviked,,,,,,,,,,,,,,,0,43,43,175,,,,,,,,,,,,,AMP,left,0.35037579081836157,0,,,,,,,,,,,,,,left,0,0.35037579081836157,,,,,,,,,,,1036,2019_Mar_08_1456,mf_amp_cond2,3.0.4,59.985878694633655,
men,&&&&&&&&&&&,right,loyalty.vice,fornicalion,,,,,,,,,,,,,,,0,44,44,173,,,,,,,,,,,,,AMP,left,0.33369724672229495,0,,,,,,,,,,,,,,left,0,0.33369724672229495,,,,,,,,,,,1036,2019_Mar_08_1456,mf_amp_cond2,3.0.4,59.985878694633655,
accused,&&&&&&&&&&,right,fairness.vice,Oregoniuns,,,,,,,,,,,,,,,0,45,45,290,,,,,,,,,,,,,AMP,left,2.7009667865931988,0,,,,,,,,,,,,,,left,0,2.7009667865931988,,,,,,,,,,,1036,2019_Mar_08_1456,mf_amp_cond2,3.0.4,59.985878694633655,
fostet,&&&&&&&&&&,None,nonword,totalestic,,,,,,,,,,,,,,,0,46,46,199,,,,,,,,,,,,,AMP,left,0.3670402231218759,0,,,,,,,,,,,,,,left,0,0.3670402231218759,,,,,,,,,,,1036,2019_Mar_08_1456,mf_amp_cond2,3.0.4,59.985878694633655,
racist,&&&&&,right,sanctity.vice,saned,,,,,,,,,,,,,,,0,47,47,169,,,,,,,,,,,,,AMP,left,0.3003430450335145,0,,,,,,,,,,,,,,left,0,0.3003430450335145,,,,,,,,,,,1036,2019_Mar_08_1456,mf_amp_cond2,3.0.4,59.985878694633655,
loyalty,&&&&&&&,left,loyalty.virtue,menizen,,,,,,,,,,,,,,,0,48,48,104,,,,,,,,,,,,,AMP,right,0.41707072385179345,0,,,,,,,,,,,,,,right,0,0.41707072385179345,,,,,,,,,,,1036,2019_Mar_08_1456,mf_amp_cond2,3.0.4,59.985878694633655,
unpleasant,&&&,None,control,oam,,,,,,,,,,,,,,,0,49,49,27,,,,,,,,,,,,,AMP,left,0.3670312428876059,0,,,,,,,,,,,,,,left,0,0.3670312428876059,,,,,,,,,,,1036,2019_Mar_08_1456,mf_amp_cond2,3.0.4,59.985878694633655,
police,&&&&&&&&&,right,authority.vice,neputized,,,,,,,,,,,,,,,0,50,50,168,,,,,,,,,,,,,AMP,left,0.4003783886873862,0,,,,,,,,,,,,,,left,0,0.4003783886873862,,,,,,,,,,,1036,2019_Mar_08_1456,mf_amp_cond2,3.0.4,59.985878694633655,
photocalkodes,&&&&&&&,None,nonword,gedious,,,,,,,,,,,,,,,0,51,51,172,,,,,,,,,,,,,AMP,left,1.2172582183702616,0,,,,,,,,,,,,,,left,0,1.2172582183702616,,,,,,,,,,,1036,2019_Mar_08_1456,mf_amp_cond2,3.0.4,59.985878694633655,
photocalkodes,&&&&&&&&,None,nonword,pullness,,,,,,,,,,,,,,,0,52,52,315,,,,,,,,,,,,,AMP,left,0.4670871127891587,0,,,,,,,,,,,,,,left,0,0.4670871127891587,,,,,,,,,,,1036,2019_Mar_08_1456,mf_amp_cond2,3.0.4,59.985878694633655,
agreement,&&&&&&&&&&,left,fairness.virtue,galamitous,,,,,,,,,,,,,,,0,53,53,83,,,,,,,,,,,,,AMP,right,0.36702675276319496,0,,,,,,,,,,,,,,right,0,0.36702675276319496,,,,,,,,,,,1036,2019_Mar_08_1456,mf_amp_cond2,3.0.4,59.985878694633655,
stindig,&&&&&&,None,nonword,greaks,,,,,,,,,,,,,,,0,54,54,242,,,,,,,,,,,,,AMP,left,0.550412481505191,0,,,,,,,,,,,,,,left,0,0.550412481505191,,,,,,,,,,,1036,2019_Mar_08_1456,mf_amp_cond2,3.0.4,59.985878694633655,
civilians,&&&&&&&&&&&&,right,care.vice,edancipation,,,,,,,,,,,,,,,0,55,55,140,,,,,,,,,,,,,AMP,right,0.3837020896462491,1,,,,,,,,,,,,,,right,1,0.3837020896462491,,,,,,,,,,,1036,2019_Mar_08_1456,mf_amp_cond2,3.0.4,59.985878694633655,
men,&&&&&&,right,loyalty.vice,bycled,,,,,,,,,,,,,,,0,56,56,261,,,,,,,,,,,,,AMP,right,1.3006207909202203,1,,,,,,,,,,,,,,right,1,1.3006207909202203,,,,,,,,,,,1036,2019_Mar_08_1456,mf_amp_cond2,3.0.4,59.985878694633655,
thadowed,&&&&&&&&&&,None,nonword,Oregoniuns,,,,,,,,,,,,,,,0,57,57,2,,,,,,,,,,,,,AMP,left,0.9171691857336555,0,,,,,,,,,,,,,,left,0,0.9171691857336555,,,,,,,,,,,1036,2019_Mar_08_1456,mf_amp_cond2,3.0.4,59.985878694633655,
powerful,&&&&&&,left,authority.virtue,bycled,,,,,,,,,,,,,,,0,58,58,112,,,,,,,,,,,,,AMP,right,0.4670608135202201,0,,,,,,,,,,,,,,right,0,0.4670608135202201,,,,,,,,,,,1036,2019_Mar_08_1456,mf_amp_cond2,3.0.4,59.985878694633655,
strong,&&&&&&&&&&&,left,loyalty.virtue,neneficence,,,,,,,,,,,,,,,0,59,59,67,,,,,,,,,,,,,AMP,right,0.38370593830768485,0,,,,,,,,,,,,,,right,0,0.38370593830768485,,,,,,,,,,,1036,2019_Mar_08_1456,mf_amp_cond2,3.0.4,59.985878694633655,
penalty,&&&&&&&&&&&&,right,authority.vice,bruthfulness,,,,,,,,,,,,,,,0,60,60,88,,,,,,,,,,,,,AMP,left,0.38369792024604976,0,,,,,,,,,,,,,,left,0,0.38369792024604976,,,,,,,,,,,1036,2019_Mar_08_1456,mf_amp_cond2,3.0.4,59.985878694633655,
strong,&&&&&&&&,left,loyalty.virtue,fontacts,,,,,,,,,,,,,,,0,61,61,100,,,,,,,,,,,,,AMP,right,0.3336898700945312,0,,,,,,,,,,,,,,right,0,0.3336898700945312,,,,,,,,,,,1036,2019_Mar_08_1456,mf_amp_cond2,3.0.4,59.985878694633655,
ban,&&&&&&&&&&,right,loyalty.vice,neutralust,,,,,,,,,,,,,,,0,62,62,181,,,,,,,,,,,,,AMP,left,1.467310656531481,0,,,,,,,,,,,,,,left,0,1.467310656531481,,,,,,,,,,,1036,2019_Mar_08_1456,mf_amp_cond2,3.0.4,59.985878694633655,
harassment,&&&&&&&&&,right,sanctity.vice,gillipede,,,,,,,,,,,,,,,0,63,63,211,,,,,,,,,,,,,AMP,left,1.183908827501,0,,,,,,,,,,,,,,left,0,1.183908827501,,,,,,,,,,,1036,2019_Mar_08_1456,mf_amp_cond2,3.0.4,59.985878694633655,
sexual,&&&&&&,right,sanctity.vice,gazily,,,,,,,,,,,,,,,0,64,64,1,,,,,,,,,,,,,AMP,left,1.2339274614932947,0,,,,,,,,,,,,,,left,0,1.2339274614932947,,,,,,,,,,,1036,2019_Mar_08_1456,mf_amp_cond2,3.0.4,59.985878694633655,
promised,&&&&&&&&&&&,left,loyalty.virtue,ilportation,,,,,,,,,,,,,,,0,65,65,256,,,,,,,,,,,,,AMP,right,2.317536669841502,0,,,,,,,,,,,,,,right,0,2.317536669841502,,,,,,,,,,,1036,2019_Mar_08_1456,mf_amp_cond2,3.0.4,59.985878694633655,
peace,&&&&&&&&&&&,left,care.virtue,nomparisons,,,,,,,,,,,,,,,0,66,66,57,,,,,,,,,,,,,AMP,right,0.5837872094416525,0,,,,,,,,,,,,,,right,0,0.5837872094416525,,,,,,,,,,,1036,2019_Mar_08_1456,mf_amp_cond2,3.0.4,59.985878694633655,
opportunity,&&&&&&&&,left,fairness.virtue,epigrach,,,,,,,,,,,,,,,0,67,67,152,,,,,,,,,,,,,AMP,right,0.5170586005260702,0,,,,,,,,,,,,,,right,0,0.5170586005260702,,,,,,,,,,,1036,2019_Mar_08_1456,mf_amp_cond2,3.0.4,59.985878694633655,
groups,&&&&&&&,right,loyalty.vice,halaise,,,,,,,,,,,,,,,0,68,68,73,,,,,,,,,,,,,AMP,right,1.2005812778807012,1,,,,,,,,,,,,,,right,1,1.2005812778807012,,,,,,,,,,,1036,2019_Mar_08_1456,mf_amp_cond2,3.0.4,59.985878694633655,
freedom,&&&&&&&&&,left,sanctity.virtue,gillipede,,,,,,,,,,,,,,,0,69,69,117,,,,,,,,,,,,,AMP,right,0.41702838844503276,0,,,,,,,,,,,,,,right,0,0.41702838844503276,,,,,,,,,,,1036,2019_Mar_08_1456,mf_amp_cond2,3.0.4,59.985878694633655,
peace,&&&&&&&,left,care.virtue,Daptist,,,,,,,,,,,,,,,0,70,70,121,,,,,,,,,,,,,AMP,right,1.0838827848201618,0,,,,,,,,,,,,,,right,0,1.0838827848201618,,,,,,,,,,,1036,2019_Mar_08_1456,mf_amp_cond2,3.0.4,59.985878694633655,
trust,&&&&&&&&,left,authority.virtue,divility,,,,,,,,,,,,,,,0,71,71,43,,,,,,,,,,,,,AMP,right,0.2836757262411993,0,,,,,,,,,,,,,,right,0,0.2836757262411993,,,,,,,,,,,1036,2019_Mar_08_1456,mf_amp_cond2,3.0.4,59.985878694633655,
wump,&&&&&&&&,None,nonword,glacenta,,,,,,,,,,,,,,,0,72,72,234,,,,,,,,,,,,,AMP,left,0.6504208844417008,0,,,,,,,,,,,,,,left,0,0.6504208844417008,,,,,,,,,,,1036,2019_Mar_08_1456,mf_amp_cond2,3.0.4,59.985878694633655,
promised,&&&&&&&&,left,loyalty.virtue,lachelor,,,,,,,,,,,,,,,0,73,73,109,,,,,,,,,,,,,AMP,left,1.500645614854875,1,,,,,,,,,,,,,,left,1,1.500645614854875,,,,,,,,,,,1036,2019_Mar_08_1456,mf_amp_cond2,3.0.4,59.985878694633655,
progress,&&&&&&&&&,left,authority.virtue,neputized,,,,,,,,,,,,,,,0,74,74,102,,,,,,,,,,,,,AMP,right,0.300323801668128,0,,,,,,,,,,,,,,right,0,0.300323801668128,,,,,,,,,,,1036,2019_Mar_08_1456,mf_amp_cond2,3.0.4,59.985878694633655,
perfect,&&&&&&&&&,left,sanctity.virtue,discovars,,,,,,,,,,,,,,,0,75,75,180,,,,,,,,,,,,,AMP,right,0.4670665865269257,0,,,,,,,,,,,,,,right,0,0.4670665865269257,,,,,,,,,,,1036,2019_Mar_08_1456,mf_amp_cond2,3.0.4,59.985878694633655,
credit,&&&&&&&&&&,left,fairness.virtue,neutralust,,,,,,,,,,,,,,,0,76,76,30,,,,,,,,,,,,,AMP,left,1.33392367696797,1,,,,,,,,,,,,,,left,1,1.33392367696797,,,,,,,,,,,1036,2019_Mar_08_1456,mf_amp_cond2,3.0.4,59.985878694633655,
killed,&&&&&&&&&&&,right,care.vice,shoirmaster,,,,,,,,,,,,,,,0,77,77,244,,,,,,,,,,,,,AMP,left,0.20030481487629004,0,,,,,,,,,,,,,,left,0,0.20030481487629004,,,,,,,,,,,1036,2019_Mar_08_1456,mf_amp_cond2,3.0.4,59.985878694633655,
photocalkodes,&&&&&&&&&,None,nonword,neputized,,,,,,,,,,,,,,,0,78,78,45,,,,,,,,,,,,,AMP,left,0.38368060121138114,0,,,,,,,,,,,,,,left,0,0.38368060121138114,,,,,,,,,,,1036,2019_Mar_08_1456,mf_amp_cond2,3.0.4,59.985878694633655,
hatigue,&&&&&,None,nonword,infet,,,,,,,,,,,,,,,0,79,79,230,,,,,,,,,,,,,AMP,left,0.333671268177568,0,,,,,,,,,,,,,,left,0,0.333671268177568,,,,,,,,,,,1036,2019_Mar_08_1456,mf_amp_cond2,3.0.4,59.985878694633655,
restore,&&&&&,left,care.virtue,saned,,,,,,,,,,,,,,,0,80,80,12,,,,,,,,,,,,,AMP,right,1.033864150827867,0,,,,,,,,,,,,,,right,0,1.033864150827867,,,,,,,,,,,1036,2019_Mar_08_1456,mf_amp_cond2,3.0.4,59.985878694633655,
respect,&&&&&&&&,left,sanctity.virtue,nuckheap,,,,,,,,,,,,,,,0,81,81,257,,,,,,,,,,,,,AMP,right,0.3003706271847477,0,,,,,,,,,,,,,,right,0,0.3003706271847477,,,,,,,,,,,1036,2019_Mar_08_1456,mf_amp_cond2,3.0.4,59.985878694633655,
good,&&&&&&&&&&&&,left,care.virtue,quarterbocks,,,,,,,,,,,,,,,0,82,82,124,,,,,,,,,,,,,AMP,left,0.9838339708221611,1,,,,,,,,,,,,,,left,1,0.9838339708221611,,,,,,,,,,,1036,2019_Mar_08_1456,mf_amp_cond2,3.0.4,59.985878694633655,
fair,&&&&&&&&,left,fairness.virtue,pullness,,,,,,,,,,,,,,,0,83,83,195,,,,,,,,,,,,,AMP,right,0.5170566761953523,0,,,,,,,,,,,,,,right,0,0.5170566761953523,,,,,,,,,,,1036,2019_Mar_08_1456,mf_amp_cond2,3.0.4,59.985878694633655,
racist,&&&&&&&&&&,right,sanctity.vice,totalestic,,,,,,,,,,,,,,,0,84,84,47,,,,,,,,,,,,,AMP,left,1.500633106668829,0,,,,,,,,,,,,,,left,0,1.500633106668829,,,,,,,,,,,1036,2019_Mar_08_1456,mf_amp_cond2,3.0.4,59.985878694633655,
black,&&&&&&&&&&&,right,loyalty.vice,shoirmaster,,,,,,,,,,,,,,,0,85,85,28,,,,,,,,,,,,,AMP,right,1.3172611690097256,1,,,,,,,,,,,,,,right,1,1.3172611690097256,,,,,,,,,,,1036,2019_Mar_08_1456,mf_amp_cond2,3.0.4,59.985878694633655,
friends,&&&&&&&&&&,left,loyalty.virtue,focomotive,,,,,,,,,,,,,,,0,86,86,317,,,,,,,,,,,,,AMP,right,0.5504881720698904,0,,,,,,,,,,,,,,right,0,0.5504881720698904,,,,,,,,,,,1036,2019_Mar_08_1456,mf_amp_cond2,3.0.4,59.985878694633655,
care,&&&&&&&&&,left,care.virtue,discovars,,,,,,,,,,,,,,,0,87,87,299,,,,,,,,,,,,,AMP,right,0.817139935810701,0,,,,,,,,,,,,,,right,0,0.817139935810701,,,,,,,,,,,1036,2019_Mar_08_1456,mf_amp_cond2,3.0.4,59.985878694633655,
voter,&&&&&&&&&&&&,right,fairness.vice,quarterbocks,,,,,,,,,,,,,,,0,88,88,208,,,,,,,,,,,,,AMP,right,0.8338236114796018,1,,,,,,,,,,,,,,right,1,0.8338236114796018,,,,,,,,,,,1036,2019_Mar_08_1456,mf_amp_cond2,3.0.4,59.985878694633655,
ability,&&&&&&&&&&,left,authority.virtue,ammessment,,,,,,,,,,,,,,,0,89,89,271,,,,,,,,,,,,,AMP,right,0.4670483053341741,0,,,,,,,,,,,,,,right,0,0.4670483053341741,,,,,,,,,,,1036,2019_Mar_08_1456,mf_amp_cond2,3.0.4,59.985878694633655,
war,&&&&&&&&,right,sanctity.vice,divility,,,,,,,,,,,,,,,0,90,90,144,,,,,,,,,,,,,AMP,left,0.38369663734920323,0,,,,,,,,,,,,,,left,0,0.38369663734920323,,,,,,,,,,,1036,2019_Mar_08_1456,mf_amp_cond2,3.0.4,59.985878694633655,
credit,&&&&&&&&&&&,left,fairness.virtue,ilportation,,,,,,,,,,,,,,,0,91,91,143,,,,,,,,,,,,,AMP,right,0.550386502960464,0,,,,,,,,,,,,,,right,0,0.550386502960464,,,,,,,,,,,1036,2019_Mar_08_1456,mf_amp_cond2,3.0.4,59.985878694633655,
improve,&&&&&&&&,left,care.virtue,lachelor,,,,,,,,,,,,,,,0,92,92,251,,,,,,,,,,,,,AMP,right,0.8171222960809246,0,,,,,,,,,,,,,,right,0,0.8171222960809246,,,,,,,,,,,1036,2019_Mar_08_1456,mf_amp_cond2,3.0.4,59.985878694633655,
police,&&&&&&&&&&,right,authority.vice,ejanulated,,,,,,,,,,,,,,,0,93,93,308,,,,,,,,,,,,,AMP,left,0.4504210768791381,0,,,,,,,,,,,,,,left,0,0.4504210768791381,,,,,,,,,,,1036,2019_Mar_08_1456,mf_amp_cond2,3.0.4,59.985878694633655,
embrace,&&&&&&,left,authority.virtue,openet,,,,,,,,,,,,,,,0,94,94,186,,,,,,,,,,,,,AMP,right,0.8838143425964518,0,,,,,,,,,,,,,,right,0,0.8838143425964518,,,,,,,,,,,1036,2019_Mar_08_1456,mf_amp_cond2,3.0.4,59.985878694633655,
commitment,&&&&&&&&,left,sanctity.virtue,tracious,,,,,,,,,,,,,,,0,95,95,0,,,,,,,,,,,,,AMP,right,0.4170248604932567,0,,,,,,,,,,,,,,right,0,0.4170248604932567,,,,,,,,,,,1036,2019_Mar_08_1456,mf_amp_cond2,3.0.4,59.985878694633655,
love,&&&&&&&&&&,left,loyalty.virtue,imebreaker,,,,,,,,,,,,,,,0,96,96,13,,,,,,,,,,,,,AMP,right,0.367025790605112,0,,,,,,,,,,,,,,right,0,0.367025790605112,,,,,,,,,,,1036,2019_Mar_08_1456,mf_amp_cond2,3.0.4,59.985878694633655,
forced,&&&&&,right,fairness.vice,leact,,,,,,,,,,,,,,,0,97,97,84,,,,,,,,,,,,,AMP,right,0.43373708048602566,1,,,,,,,,,,,,,,right,1,0.43373708048602566,,,,,,,,,,,1036,2019_Mar_08_1456,mf_amp_cond2,3.0.4,59.985878694633655,
police,&&&&&,right,authority.vice,uller,,,,,,,,,,,,,,,0,98,98,66,,,,,,,,,,,,,AMP,left,0.5836723907123087,0,,,,,,,,,,,,,,left,0,0.5836723907123087,,,,,,,,,,,1036,2019_Mar_08_1456,mf_amp_cond2,3.0.4,59.985878694633655,
harassment,&&&&&&,right,sanctity.vice,openet,,,,,,,,,,,,,,,0,99,99,70,,,,,,,,,,,,,AMP,left,0.6004054576769704,0,,,,,,,,,,,,,,left,0,0.6004054576769704,,,,,,,,,,,1036,2019_Mar_08_1456,mf_amp_cond2,3.0.4,59.985878694633655,
encourage,&&&&&&&&&,left,authority.virtue,Lacedonia,,,,,,,,,,,,,,,0,100,100,283,,,,,,,,,,,,,AMP,right,0.5003726798167918,0,,,,,,,,,,,,,,right,0,0.5003726798167918,,,,,,,,,,,1036,2019_Mar_08_1456,mf_amp_cond2,3.0.4,59.985878694633655,
Cunday,&&&&&&&&&,None,nonword,rivernoat,,,,,,,,,,,,,,,0,101,101,200,,,,,,,,,,,,,AMP,left,0.4670483053341741,0,,,,,,,,,,,,,,left,0,0.4670483053341741,,,,,,,,,,,1036,2019_Mar_08_1456,mf_amp_cond2,3.0.4,59.985878694633655,
clean,&&&&&&&&&&&&,left,sanctity.virtue,bruthfulness,,,,,,,,,,,,,,,0,102,102,223,,,,,,,,,,,,,AMP,right,0.500382301499485,0,,,,,,,,,,,,,,right,0,0.500382301499485,,,,,,,,,,,1036,2019_Mar_08_1456,mf_amp_cond2,3.0.4,59.985878694633655,
loyalty,&&&&&&&,left,loyalty.virtue,Daptist,,,,,,,,,,,,,,,0,103,103,183,,,,,,,,,,,,,AMP,left,1.8007211771328002,1,,,,,,,,,,,,,,left,1,1.8007211771328002,,,,,,,,,,,1036,2019_Mar_08_1456,mf_amp_cond2,3.0.4,59.985878694633655,
victims,&&&&&&&&&,right,care.vice,discovars,,,,,,,,,,,,,,,0,104,104,54,,,,,,,,,,,,,AMP,left,0.4170248604932567,0,,,,,,,,,,,,,,left,0,0.4170248604932567,,,,,,,,,,,1036,2019_Mar_08_1456,mf_amp_cond2,3.0.4,59.985878694633655,
hatigue,&&&,None,nonword,oam,,,,,,,,,,,,,,,0,105,105,310,,,,,,,,,,,,,AMP,left,0.5003723590925802,0,,,,,,,,,,,,,,left,0,0.5003723590925802,,,,,,,,,,,1036,2019_Mar_08_1456,mf_amp_cond2,3.0.4,59.985878694633655,
powerful,&&&&,left,authority.virtue,alar,,,,,,,,,,,,,,,0,106,106,286,,,,,,,,,,,,,AMP,right,0.7170959326613229,0,,,,,,,,,,,,,,right,0,0.7170959326613229,,,,,,,,,,,1036,2019_Mar_08_1456,mf_amp_cond2,3.0.4,59.985878694633655,
perfect,&&&&&,left,sanctity.virtue,lenon,,,,,,,,,,,,,,,0,107,107,118,,,,,,,,,,,,,AMP,right,0.6671193133370252,0,,,,,,,,,,,,,,right,0,0.6671193133370252,,,,,,,,,,,1036,2019_Mar_08_1456,mf_amp_cond2,3.0.4,59.985878694633655,
victim,&&&&&&,right,care.vice,tislay,,,,,,,,,,,,,,,0,108,108,327,,,,,,,,,,,,,AMP,left,0.43378679250599816,0,,,,,,,,,,,,,,left,0,0.43378679250599816,,,,,,,,,,,1036,2019_Mar_08_1456,mf_amp_cond2,3.0.4,59.985878694633655,
benefit,&&&&&&&&&&&,left,fairness.virtue,fornicalion,,,,,,,,,,,,,,,0,109,109,93,,,,,,,,,,,,,AMP,right,0.5336928848992102,0,,,,,,,,,,,,,,right,0,0.5336928848992102,,,,,,,,,,,1036,2019_Mar_08_1456,mf_amp_cond2,3.0.4,59.985878694633655,
crime,&&&&&&&&&&&&,right,fairness.vice,quarterbocks,,,,,,,,,,,,,,,0,110,110,58,,,,,,,,,,,,,AMP,left,0.36702771493582986,0,,,,,,,,,,,,,,left,0,0.36702771493582986,,,,,,,,,,,1036,2019_Mar_08_1456,mf_amp_cond2,3.0.4,59.985878694633655,
restore,&&&&&&&&&&,left,care.virtue,clattening,,,,,,,,,,,,,,,0,111,111,171,,,,,,,,,,,,,AMP,right,0.6337837135797599,0,,,,,,,,,,,,,,right,0,0.6337837135797599,,,,,,,,,,,1036,2019_Mar_08_1456,mf_amp_cond2,3.0.4,59.985878694633655,
respect,&&&&,left,sanctity.virtue,alar,,,,,,,,,,,,,,,0,112,112,22,,,,,,,,,,,,,AMP,right,0.7671331685705809,0,,,,,,,,,,,,,,right,0,0.7671331685705809,,,,,,,,,,,1036,2019_Mar_08_1456,mf_amp_cond2,3.0.4,59.985878694633655,
agreement,&&&&&&,left,fairness.virtue,gikely,,,,,,,,,,,,,,,0,113,113,221,,,,,,,,,,,,,AMP,right,0.5837644381390419,0,,,,,,,,,,,,,,right,0,0.5837644381390419,,,,,,,,,,,1036,2019_Mar_08_1456,mf_amp_cond2,3.0.4,59.985878694633655,
protesters,&&&&&,right,authority.vice,uller,,,,,,,,,,,,,,,0,114,114,295,,,,,,,,,,,,,AMP,left,1.5173289697995642,0,,,,,,,,,,,,,,left,0,1.5173289697995642,,,,,,,,,,,1036,2019_Mar_08_1456,mf_amp_cond2,3.0.4,59.985878694633655,
commitment,&&&&&&&,left,sanctity.virtue,sickyay,,,,,,,,,,,,,,,0,115,115,137,,,,,,,,,,,,,AMP,right,2.9343560753623024,0,,,,,,,,,,,,,,right,0,2.9343560753623024,,,,,,,,,,,1036,2019_Mar_08_1456,mf_amp_cond2,3.0.4,59.985878694633655,
clean,&&&&&&&&&&,left,sanctity.virtue,clattening,,,,,,,,,,,,,,,0,116,116,300,,,,,,,,,,,,,AMP,right,0.46709352722973563,0,,,,,,,,,,,,,,right,0,0.46709352722973563,,,,,,,,,,,1036,2019_Mar_08_1456,mf_amp_cond2,3.0.4,59.985878694633655,
slavery,&&&&&&&,right,loyalty.vice,vurtain,,,,,,,,,,,,,,,0,117,117,318,,,,,,,,,,,,,AMP,left,0.46704189087904524,0,,,,,,,,,,,,,,left,0,0.46704189087904524,,,,,,,,,,,1036,2019_Mar_08_1456,mf_amp_cond2,3.0.4,59.985878694633655,
safe,&&&&&&&,left,care.virtue,chreams,,,,,,,,,,,,,,,0,118,118,178,,,,,,,,,,,,,AMP,right,0.48369285282387864,0,,,,,,,,,,,,,,right,0,0.48369285282387864,,,,,,,,,,,1036,2019_Mar_08_1456,mf_amp_cond2,3.0.4,59.985878694633655,
pleasant,&&&&&&&&&&&&,None,control,edancipation,,,,,,,,,,,,,,,0,119,119,76,,,,,,,,,,,,,AMP,right,0.800482238701079,0,,,,,,,,,,,,,,right,0,0.800482238701079,,,,,,,,,,,1036,2019_Mar_08_1456,mf_amp_cond2,3.0.4,59.985878694633655,
powerful,&&&&&&&,left,authority.virtue,menizen,,,,,,,,,,,,,,,0,120,120,222,,,,,,,,,,,,,AMP,right,0.5837516092287842,0,,,,,,,,,,,,,,right,0,0.5837516092287842,,,,,,,,,,,1036,2019_Mar_08_1456,mf_amp_cond2,3.0.4,59.985878694633655,
values,&&&&&&&,left,sanctity.virtue,Daptist,,,,,,,,,,,,,,,0,121,121,17,,,,,,,,,,,,,AMP,right,0.850494458238245,0,,,,,,,,,,,,,,right,0,0.850494458238245,,,,,,,,,,,1036,2019_Mar_08_1456,mf_amp_cond2,3.0.4,59.985878694633655,
charges,&&&&,right,fairness.vice,ning,,,,,,,,,,,,,,,0,122,122,132,,,,,,,,,,,,,AMP,left,0.4835706574667711,0,,,,,,,,,,,,,,left,0,0.4835706574667711,,,,,,,,,,,1036,2019_Mar_08_1456,mf_amp_cond2,3.0.4,59.985878694633655,
dignity,&&&&&&&&&,left,sanctity.virtue,Phintoism,,,,,,,,,,,,,,,0,123,123,86,,,,,,,,,,,,,AMP,right,0.8838287751132157,0,,,,,,,,,,,,,,right,0,0.8838287751132157,,,,,,,,,,,1036,2019_Mar_08_1456,mf_amp_cond2,3.0.4,59.985878694633655,
good,&&&&&&&,left,care.virtue,sickyay,,,,,,,,,,,,,,,0,124,124,235,,,,,,,,,,,,,AMP,right,0.5837525713868672,0,,,,,,,,,,,,,,right,0,0.5837525713868672,,,,,,,,,,,1036,2019_Mar_08_1456,mf_amp_cond2,3.0.4,59.985878694633655,
groups,&&&&&&&,right,loyalty.vice,chreams,,,,,,,,,,,,,,,0,125,125,293,,,,,,,,,,,,,AMP,right,1.1005587631370872,1,,,,,,,,,,,,,,right,1,1.1005587631370872,,,,,,,,,,,1036,2019_Mar_08_1456,mf_amp_cond2,3.0.4,59.985878694633655,
slavery,&&&,right,loyalty.vice,mih,,,,,,,,,,,,,,,0,126,126,163,,,,,,,,,,,,,AMP,left,0.500400261968025,0,,,,,,,,,,,,,,left,0,0.500400261968025,,,,,,,,,,,1036,2019_Mar_08_1456,mf_amp_cond2,3.0.4,59.985878694633655,
dignity,&&&&&&,left,sanctity.virtue,sgrawl,,,,,,,,,,,,,,,0,127,127,201,,,,,,,,,,,,,AMP,right,2.534254470388987,0,,,,,,,,,,,,,,right,0,2.534254470388987,,,,,,,,,,,1036,2019_Mar_08_1456,mf_amp_cond2,3.0.4,59.985878694633655,
clean,&&&&&&&&,left,sanctity.virtue,nuckheap,,,,,,,,,,,,,,,0,128,128,16,,,,,,,,,,,,,AMP,right,0.6837750861304812,0,,,,,,,,,,,,,,right,0,0.6837750861304812,,,,,,,,,,,1036,2019_Mar_08_1456,mf_amp_cond2,3.0.4,59.985878694633655,
trust,&&&&&&&,left,authority.virtue,allears,,,,,,,,,,,,,,,0,129,129,167,,,,,,,,,,,,,AMP,right,0.5503906723461114,0,,,,,,,,,,,,,,right,0,0.5503906723461114,,,,,,,,,,,1036,2019_Mar_08_1456,mf_amp_cond2,3.0.4,59.985878694633655,
win,&&&&&&&&&&&,left,fairness.virtue,neneficence,,,,,,,,,,,,,,,0,130,130,187,,,,,,,,,,,,,AMP,right,0.983843913229066,0,,,,,,,,,,,,,,right,0,0.983843913229066,,,,,,,,,,,1036,2019_Mar_08_1456,mf_amp_cond2,3.0.4,59.985878694633655,
harassment,&&&&&&&&&&,right,sanctity.vice,neutralust,,,,,,,,,,,,,,,0,131,131,289,,,,,,,,,,,,,AMP,left,0.567037785629509,0,,,,,,,,,,,,,,left,0,0.567037785629509,,,,,,,,,,,1036,2019_Mar_08_1456,mf_amp_cond2,3.0.4,59.985878694633655,
thadowed,&&&&&&&&&&&&&,None,nonword,synchronazers,,,,,,,,,,,,,,,0,132,132,218,,,,,,,,,,,,,AMP,left,0.6171305065654451,0,,,,,,,,,,,,,,left,0,0.6171305065654451,,,,,,,,,,,1036,2019_Mar_08_1456,mf_amp_cond2,3.0.4,59.985878694633655,
free,&&&&&&&&&&&&,left,fairness.virtue,iptervention,,,,,,,,,,,,,,,0,133,133,204,,,,,,,,,,,,,AMP,right,0.5004268819466233,0,,,,,,,,,,,,,,right,0,0.5004268819466233,,,,,,,,,,,1036,2019_Mar_08_1456,mf_amp_cond2,3.0.4,59.985878694633655,
peace,&&&,left,care.virtue,mih,,,,,,,,,,,,,,,0,134,134,233,,,,,,,,,,,,,AMP,right,0.5170643735473277,0,,,,,,,,,,,,,,right,0,0.5170643735473277,,,,,,,,,,,1036,2019_Mar_08_1456,mf_amp_cond2,3.0.4,59.985878694633655,
wump,&&&&&,None,nonword,leact,,,,,,,,,,,,,,,0,135,135,270,,,,,,,,,,,,,AMP,left,0.5337474077532534,0,,,,,,,,,,,,,,left,0,0.5337474077532534,,,,,,,,,,,1036,2019_Mar_08_1456,mf_amp_cond2,3.0.4,59.985878694633655,
groups,&&&&&&&&,right,loyalty.vice,glacenta,,,,,,,,,,,,,,,0,136,136,155,,,,,,,,,,,,,AMP,right,0.6671125781722367,1,,,,,,,,,,,,,,right,1,0.6671125781722367,,,,,,,,,,,1036,2019_Mar_08_1456,mf_amp_cond2,3.0.4,59.985878694633655,
Cunday,&&&&&&&&&&,None,nonword,elduringly,,,,,,,,,,,,,,,0,137,137,298,,,,,,,,,,,,,AMP,left,0.5170688636717387,0,,,,,,,,,,,,,,left,0,0.5170688636717387,,,,,,,,,,,1036,2019_Mar_08_1456,mf_amp_cond2,3.0.4,59.985878694633655,
civilians,&&&&&&&&&,right,care.vice,rivernoat,,,,,,,,,,,,,,,0,138,138,326,,,,,,,,,,,,,AMP,right,1.3172759222507011,1,,,,,,,,,,,,,,right,1,1.3172759222507011,,,,,,,,,,,1036,2019_Mar_08_1456,mf_amp_cond2,3.0.4,59.985878694633655,
groups,&&&&&&&&&&,right,loyalty.vice,ejanulated,,,,,,,,,,,,,,,0,139,139,193,,,,,,,,,,,,,AMP,left,1.3172630933404434,0,,,,,,,,,,,,,,left,0,1.3172630933404434,,,,,,,,,,,1036,2019_Mar_08_1456,mf_amp_cond2,3.0.4,59.985878694633655,
violations,&&&&&&&&&&&,right,sanctity.vice,precificity,,,,,,,,,,,,,,,0,140,140,64,,,,,,,,,,,,,AMP,left,0.533726240057149,0,,,,,,,,,,,,,,left,0,0.533726240057149,,,,,,,,,,,1036,2019_Mar_08_1456,mf_amp_cond2,3.0.4,59.985878694633655,
war,&&&&,right,sanctity.vice,spag,,,,,,,,,,,,,,,0,141,141,179,,,,,,,,,,,,,AMP,left,0.350361999735469,0,,,,,,,,,,,,,,left,0,0.350361999735469,,,,,,,,,,,1036,2019_Mar_08_1456,mf_amp_cond2,3.0.4,59.985878694633655,
violations,&&&&&&&&&&,right,sanctity.vice,totalestic,,,,,,,,,,,,,,,0,142,142,296,,,,,,,,,,,,,AMP,left,1.1839030544942943,0,,,,,,,,,,,,,,left,0,1.1839030544942943,,,,,,,,,,,1036,2019_Mar_08_1456,mf_amp_cond2,3.0.4,59.985878694633655,
safe,&&&&&&&,left,care.virtue,allears,,,,,,,,,,,,,,,0,143,143,94,,,,,,,,,,,,,AMP,right,0.5337595952296397,0,,,,,,,,,,,,,,right,0,0.5337595952296397,,,,,,,,,,,1036,2019_Mar_08_1456,mf_amp_cond2,3.0.4,59.985878694633655,
killed,&&&&&&&&&&&&,right,care.vice,iptervention,,,,,,,,,,,,,,,0,144,144,303,,,,,,,,,,,,,AMP,left,0.43372264796926174,0,,,,,,,,,,,,,,left,0,0.43372264796926174,,,,,,,,,,,1036,2019_Mar_08_1456,mf_amp_cond2,3.0.4,59.985878694633655,
unpleasant,&&&&&&&&&&,None,control,Oregoniuns,,,,,,,,,,,,,,,0,145,145,89,,,,,,,,,,,,,AMP,left,1.55067130473617,0,,,,,,,,,,,,,,left,0,1.55067130473617,,,,,,,,,,,1036,2019_Mar_08_1456,mf_amp_cond2,3.0.4,59.985878694633655,
pleasant,&&&&&&&,None,control,halaise,,,,,,,,,,,,,,,0,146,146,220,,,,,,,,,,,,,AMP,right,0.46705022966489196,0,,,,,,,,,,,,,,right,0,0.46705022966489196,,,,,,,,,,,1036,2019_Mar_08_1456,mf_amp_cond2,3.0.4,59.985878694633655,
victim,&&&&&&&&&&&&,right,care.vice,gusinesslike,,,,,,,,,,,,,,,0,147,147,236,,,,,,,,,,,,,AMP,left,0.5170534689677879,0,,,,,,,,,,,,,,left,0,0.5170534689677879,,,,,,,,,,,1036,2019_Mar_08_1456,mf_amp_cond2,3.0.4,59.985878694633655,
betrayal,&&&&&&&&&&,right,loyalty.vice,elduringly,,,,,,,,,,,,,,,0,148,148,87,,,,,,,,,,,,,AMP,left,0.4837258872721577,0,,,,,,,,,,,,,,left,0,0.4837258872721577,,,,,,,,,,,1036,2019_Mar_08_1456,mf_amp_cond2,3.0.4,59.985878694633655,
ability,&&&&&,left,authority.virtue,infet,,,,,,,,,,,,,,,0,149,149,156,,,,,,,,,,,,,AMP,right,0.6504382034618175,0,,,,,,,,,,,,,,right,0,0.6504382034618175,,,,,,,,,,,1036,2019_Mar_08_1456,mf_amp_cond2,3.0.4,59.985878694633655,
racist,&&&&,right,sanctity.vice,alar,,,,,,,,,,,,,,,0,150,150,157,,,,,,,,,,,,,AMP,left,0.4003809544519754,0,,,,,,,,,,,,,,left,0,0.4003809544519754,,,,,,,,,,,1036,2019_Mar_08_1456,mf_amp_cond2,3.0.4,59.985878694633655,
voter,&&&&&&&&,right,fairness.vice,pullness,,,,,,,,,,,,,,,0,151,151,158,,,,,,,,,,,,,AMP,right,0.7004388769855723,1,,,,,,,,,,,,,,right,1,0.7004388769855723,,,,,,,,,,,1036,2019_Mar_08_1456,mf_amp_cond2,3.0.4,59.985878694633655,
freedom,&&&&&&&&,left,sanctity.virtue,fontacts,,,,,,,,,,,,,,,0,152,152,203,,,,,,,,,,,,,AMP,right,1.067216107461718,0,,,,,,,,,,,,,,right,0,1.067216107461718,,,,,,,,,,,1036,2019_Mar_08_1456,mf_amp_cond2,3.0.4,59.985878694633655,
gowlands,&&&&&&&&&&&,None,nonword,precificity,,,,,,,,,,,,,,,0,153,153,128,,,,,,,,,,,,,AMP,left,0.6170310825255001,0,,,,,,,,,,,,,,left,0,0.6170310825255001,,,,,,,,,,,1036,2019_Mar_08_1456,mf_amp_cond2,3.0.4,59.985878694633655,
free,&&&&&,left,fairness.virtue,uller,,,,,,,,,,,,,,,0,154,154,92,,,,,,,,,,,,,AMP,right,0.9671919891115976,0,,,,,,,,,,,,,,right,0,0.9671919891115976,,,,,,,,,,,1036,2019_Mar_08_1456,mf_amp_cond2,3.0.4,59.985878694633655,
good,&&&&&,left,care.virtue,leact,,,,,,,,,,,,,,,0,155,155,74,,,,,,,,,,,,,AMP,right,0.4670560026715975,0,,,,,,,,,,,,,,right,0,0.4670560026715975,,,,,,,,,,,1036,2019_Mar_08_1456,mf_amp_cond2,3.0.4,59.985878694633655,
opportunity,&&&&&,left,fairness.virtue,hasks,,,,,,,,,,,,,,,0,156,156,313,,,,,,,,,,,,,AMP,right,0.5670923084835522,0,,,,,,,,,,,,,,right,0,0.5670923084835522,,,,,,,,,,,1036,2019_Mar_08_1456,mf_amp_cond2,3.0.4,59.985878694633655,
sexual,&&&&,right,sanctity.vice,juck,,,,,,,,,,,,,,,0,157,157,147,,,,,,,,,,,,,AMP,left,0.4003726156661287,0,,,,,,,,,,,,,,left,0,0.4003726156661287,,,,,,,,,,,1036,2019_Mar_08_1456,mf_amp_cond2,3.0.4,59.985878694633655,
agreement,&&&&&&&&&&&&,left,fairness.virtue,gusinesslike,,,,,,,,,,,,,,,0,158,158,55,,,,,,,,,,,,,AMP,right,0.4837348675064277,0,,,,,,,,,,,,,,right,0,0.4837348675064277,,,,,,,,,,,1036,2019_Mar_08_1456,mf_amp_cond2,3.0.4,59.985878694633655,
slavery,&&&&&&&&,right,loyalty.vice,ugeasily,,,,,,,,,,,,,,,0,159,159,228,,,,,,,,,,,,,AMP,left,0.4837290944851702,0,,,,,,,,,,,,,,left,0,0.4837290944851702,,,,,,,,,,,1036,2019_Mar_08_1456,mf_amp_cond2,3.0.4,59.985878694633655,
promised,&&&&&&&&&&&&,left,loyalty.virtue,bruthfulness,,,,,,,,,,,,,,,0,160,160,61,,,,,,,,,,,,,AMP,left,1.834078586049145,1,,,,,,,,,,,,,,left,1,1.834078586049145,,,,,,,,,,,1036,2019_Mar_08_1456,mf_amp_cond2,3.0.4,59.985878694633655,
prison,&&&&&&&&&,right,fairness.vice,Phintoism,,,,,,,,,,,,,,,0,161,161,79,,,,,,,,,,,,,AMP,left,3.551204987365054,0,,,,,,,,,,,,,,left,0,3.551204987365054,,,,,,,,,,,1036,2019_Mar_08_1456,mf_amp_cond2,3.0.4,59.985878694633655,
voter,&&&&&&&&,right,fairness.vice,suggists,,,,,,,,,,,,,,,0,162,162,260,,,,,,,,,,,,,AMP,right,0.8838258886098629,1,,,,,,,,,,,,,,right,1,0.8838258886098629,,,,,,,,,,,1036,2019_Mar_08_1456,mf_amp_cond2,3.0.4,59.985878694633655,
stindig,&&&&&&&&&&,None,nonword,neutralust,,,,,,,,,,,,,,,0,163,163,111,,,,,,,,,,,,,AMP,left,1.217248917397228,0,,,,,,,,,,,,,,left,0,1.217248917397228,,,,,,,,,,,1036,2019_Mar_08_1456,mf_amp_cond2,3.0.4,59.985878694633655,
protesters,&&&&&&&&,right,authority.vice,ugeasily,,,,,,,,,,,,,,,0,164,164,97,,,,,,,,,,,,,AMP,left,1.3005989817611407,0,,,,,,,,,,,,,,left,0,1.3005989817611407,,,,,,,,,,,1036,2019_Mar_08_1456,mf_amp_cond2,3.0.4,59.985878694633655,
refused,&&&&&&&,right,authority.vice,gedious,,,,,,,,,,,,,,,0,165,165,320,,,,,,,,,,,,,AMP,left,0.7171507762395777,0,,,,,,,,,,,,,,left,0,0.7171507762395777,,,,,,,,,,,1036,2019_Mar_08_1456,mf_amp_cond2,3.0.4,59.985878694633655,
respect,&&&&&&&&&&,left,sanctity.virtue,imebreaker,,,,,,,,,,,,,,,0,166,166,126,,,,,,,,,,,,,AMP,right,0.5337605573877227,0,,,,,,,,,,,,,,right,0,0.5337605573877227,,,,,,,,,,,1036,2019_Mar_08_1456,mf_amp_cond2,3.0.4,59.985878694633655,
honored,&&&&&,left,authority.virtue,lenon,,,,,,,,,,,,,,,0,167,167,316,,,,,,,,,,,,,AMP,right,0.8338223285827553,0,,,,,,,,,,,,,,right,0,0.8338223285827553,,,,,,,,,,,1036,2019_Mar_08_1456,mf_amp_cond2,3.0.4,59.985878694633655,
civilians,&&&&,right,care.vice,juck,,,,,,,,,,,,,,,0,168,168,37,,,,,,,,,,,,,AMP,right,2.134155110499705,1,,,,,,,,,,,,,,right,1,2.134155110499705,,,,,,,,,,,1036,2019_Mar_08_1456,mf_amp_cond2,3.0.4,59.985878694633655,
suicide,&&&&&,right,care.vice,scock,,,,,,,,,,,,,,,0,169,169,114,,,,,,,,,,,,,AMP,left,0.3336853799846722,0,,,,,,,,,,,,,,left,0,0.3336853799846722,,,,,,,,,,,1036,2019_Mar_08_1456,mf_amp_cond2,3.0.4,59.985878694633655,
prosecution,&&&&&&,right,authority.vice,bycled,,,,,,,,,,,,,,,0,170,170,184,,,,,,,,,,,,,AMP,left,2.450899595176452,0,,,,,,,,,,,,,,left,0,2.450899595176452,,,,,,,,,,,1036,2019_Mar_08_1456,mf_amp_cond2,3.0.4,59.985878694633655,
troops,&&&&&&&&&&&&,right,loyalty.vice,quarterbocks,,,,,,,,,,,,,,,0,171,171,265,,,,,,,,,,,,,AMP,left,1.6006921837979462,0,,,,,,,,,,,,,,left,0,1.6006921837979462,,,,,,,,,,,1036,2019_Mar_08_1456,mf_amp_cond2,3.0.4,59.985878694633655,
unpleasant,&&&&&&&&&,None,control,Phintoism,,,,,,,,,,,,,,,0,172,172,214,,,,,,,,,,,,,AMP,left,0.6504391656344524,0,,,,,,,,,,,,,,left,0,0.6504391656344524,,,,,,,,,,,1036,2019_Mar_08_1456,mf_amp_cond2,3.0.4,59.985878694633655,
corruption,&&&&&&&,right,sanctity.vice,vurtain,,,,,,,,,,,,,,,0,173,173,149,,,,,,,,,,,,,AMP,left,0.5670881390979048,0,,,,,,,,,,,,,,left,0,0.5670881390979048,,,,,,,,,,,1036,2019_Mar_08_1456,mf_amp_cond2,3.0.4,59.985878694633655,
credit,&&&&&&,left,fairness.virtue,sgrawl,,,,,,,,,,,,,,,0,174,174,274,,,,,,,,,,,,,AMP,left,1.0005330411804607,1,,,,,,,,,,,,,,left,1,1.0005330411804607,,,,,,,,,,,1036,2019_Mar_08_1456,mf_amp_cond2,3.0.4,59.985878694633655,
victims,&&&&&&&&&,right,care.vice,neputized,,,,,,,,,,,,,,,0,175,175,250,,,,,,,,,,,,,AMP,left,0.4504191525338683,0,,,,,,,,,,,,,,left,0,0.4504191525338683,,,,,,,,,,,1036,2019_Mar_08_1456,mf_amp_cond2,3.0.4,59.985878694633655,
hope,&&&&&&&&,left,loyalty.virtue,fontacts,,,,,,,,,,,,,,,0,176,176,39,,,,,,,,,,,,,AMP,left,2.634277947305236,1,,,,,,,,,,,,,,left,1,2.634277947305236,,,,,,,,,,,1036,2019_Mar_08_1456,mf_amp_cond2,3.0.4,59.985878694633655,
scandal,&&&&&,right,sanctity.vice,lenon,,,,,,,,,,,,,,,0,177,177,24,,,,,,,,,,,,,AMP,left,1.900754596441402,0,,,,,,,,,,,,,,left,0,1.900754596441402,,,,,,,,,,,1036,2019_Mar_08_1456,mf_amp_cond2,3.0.4,59.985878694633655,
strong,&&&&&&&&&&&&,left,loyalty.virtue,edancipation,,,,,,,,,,,,,,,0,178,178,287,,,,,,,,,,,,,AMP,right,0.4170437831344316,0,,,,,,,,,,,,,,right,0,0.4170437831344316,,,,,,,,,,,1036,2019_Mar_08_1456,mf_amp_cond2,3.0.4,59.985878694633655,
free,&&&&&&&&&&&&&,left,fairness.virtue,synchronazers,,,,,,,,,,,,,,,0,179,179,29,,,,,,,,,,,,,AMP,right,0.7337645343650365,0,,,,,,,,,,,,,,right,0,0.7337645343650365,,,,,,,,,,,1036,2019_Mar_08_1456,mf_amp_cond2,3.0.4,59.985878694633655,
perfect,&&&&&&&&&&&,left,sanctity.virtue,precificity,,,,,,,,,,,,,,,0,180,180,305,,,,,,,,,,,,,AMP,right,0.4170396137487842,0,,,,,,,,,,,,,,right,0,0.4170396137487842,,,,,,,,,,,1036,2019_Mar_08_1456,mf_amp_cond2,3.0.4,59.985878694633655,
gowlands,&&&&&&&&&,None,nonword,seachwear,,,,,,,,,,,,,,,0,181,181,231,,,,,,,,,,,,,AMP,left,0.6837843870889628,0,,,,,,,,,,,,,,left,0,0.6837843870889628,,,,,,,,,,,1036,2019_Mar_08_1456,mf_amp_cond2,3.0.4,59.985878694633655,
war,&&&&&&&&,right,sanctity.vice,epigrach,,,,,,,,,,,,,,,0,182,182,314,,,,,,,,,,,,,AMP,left,0.4170479525346309,0,,,,,,,,,,,,,,left,0,0.4170479525346309,,,,,,,,,,,1036,2019_Mar_08_1456,mf_amp_cond2,3.0.4,59.985878694633655,
ban,&&&&&&&&&&&&,right,loyalty.vice,feleological,,,,,,,,,,,,,,,0,183,183,159,,,,,,,,,,,,,AMP,left,0.9838583457458299,0,,,,,,,,,,,,,,left,0,0.9838583457458299,,,,,,,,,,,1036,2019_Mar_08_1456,mf_amp_cond2,3.0.4,59.985878694633655,
compassion,&&&&&&&,left,care.virtue,emports,,,,,,,,,,,,,,,0,184,184,216,,,,,,,,,,,,,AMP,right,1.0838956137449713,0,,,,,,,,,,,,,,right,0,1.0838956137449713,,,,,,,,,,,1036,2019_Mar_08_1456,mf_amp_cond2,3.0.4,59.985878694633655,
love,&&&&&&&,left,loyalty.virtue,gedious,,,,,,,,,,,,,,,0,185,185,90,,,,,,,,,,,,,AMP,right,1.1505581537639955,0,,,,,,,,,,,,,,right,0,1.1505581537639955,,,,,,,,,,,1036,2019_Mar_08_1456,mf_amp_cond2,3.0.4,59.985878694633655,
improve,&&&&&&,left,care.virtue,tislay,,,,,,,,,,,,,,,0,186,186,71,,,,,,,,,,,,,AMP,right,0.5003874330577673,0,,,,,,,,,,,,,,right,0,0.5003874330577673,,,,,,,,,,,1036,2019_Mar_08_1456,mf_amp_cond2,3.0.4,59.985878694633655,
threatened,&&&&&&&&&&,right,fairness.vice,imebreaker,,,,,,,,,,,,,,,0,187,187,232,,,,,,,,,,,,,AMP,left,0.5670445207942976,0,,,,,,,,,,,,,,left,0,0.5670445207942976,,,,,,,,,,,1036,2019_Mar_08_1456,mf_amp_cond2,3.0.4,59.985878694633655,
credit,&&&&&&&&,left,fairness.virtue,divility,,,,,,,,,,,,,,,0,188,188,188,,,,,,,,,,,,,AMP,left,1.5506677767989459,1,,,,,,,,,,,,,,left,1,1.5506677767989459,,,,,,,,,,,1036,2019_Mar_08_1456,mf_amp_cond2,3.0.4,59.985878694633655,
improve,&&&&&&,left,care.virtue,openet,,,,,,,,,,,,,,,0,189,189,161,,,,,,,,,,,,,AMP,right,0.6671369530959055,0,,,,,,,,,,,,,,right,0,0.6671369530959055,,,,,,,,,,,1036,2019_Mar_08_1456,mf_amp_cond2,3.0.4,59.985878694633655,
corruption,&&&&&&,right,sanctity.vice,bycled,,,,,,,,,,,,,,,0,190,190,46,,,,,,,,,,,,,AMP,left,0.40038223734882195,0,,,,,,,,,,,,,,left,0,0.40038223734882195,,,,,,,,,,,1036,2019_Mar_08_1456,mf_amp_cond2,3.0.4,59.985878694633655,
progress,&&&&&&,left,authority.virtue,sgrawl,,,,,,,,,,,,,,,0,191,191,53,,,,,,,,,,,,,AMP,right,0.41704634892812464,0,,,,,,,,,,,,,,right,0,0.41704634892812464,,,,,,,,,,,1036,2019_Mar_08_1456,mf_amp_cond2,3.0.4,59.985878694633655,
prison,&&&&&&&,right,fairness.vice,chreams,,,,,,,,,,,,,,,0,192,192,107,,,,,,,,,,,,,AMP,left,0.33369436021894217,0,,,,,,,,,,,,,,left,0,0.33369436021894217,,,,,,,,,,,1036,2019_Mar_08_1456,mf_amp_cond2,3.0.4,59.985878694633655,
penalty,&&&&&&&&&&,right,authority.vice,ammessment,,,,,,,,,,,,,,,0,193,193,21,,,,,,,,,,,,,AMP,left,1.3005976988788461,0,,,,,,,,,,,,,,left,0,1.3005976988788461,,,,,,,,,,,1036,2019_Mar_08_1456,mf_amp_cond2,3.0.4,59.985878694633655,
police,&&&&&&&&&,right,authority.vice,Lacedonia,,,,,,,,,,,,,,,0,194,194,119,,,,,,,,,,,,,AMP,left,0.38368990216986276,0,,,,,,,,,,,,,,left,0,0.38368990216986276,,,,,,,,,,,1036,2019_Mar_08_1456,mf_amp_cond2,3.0.4,59.985878694633655,
attacks,&&&&&&&,right,care.vice,smapper,,,,,,,,,,,,,,,0,195,195,123,,,,,,,,,,,,,AMP,left,1.2672604955005227,0,,,,,,,,,,,,,,left,0,1.2672604955005227,,,,,,,,,,,1036,2019_Mar_08_1456,mf_amp_cond2,3.0.4,59.985878694633655,
corruption,&&&&&&&&&&&&&,right,sanctity.vice,synchronazers,,,,,,,,,,,,,,,0,196,196,307,,,,,,,,,,,,,AMP,left,0.367048241183511,0,,,,,,,,,,,,,,left,0,0.367048241183511,,,,,,,,,,,1036,2019_Mar_08_1456,mf_amp_cond2,3.0.4,59.985878694633655,
embrace,&&&&&&&&&,left,authority.virtue,brotesque,,,,,,,,,,,,,,,0,197,197,133,,,,,,,,,,,,,AMP,right,0.35036456552916206,0,,,,,,,,,,,,,,right,0,0.35036456552916206,,,,,,,,,,,1036,2019_Mar_08_1456,mf_amp_cond2,3.0.4,59.985878694633655,
threatened,&&&&&&,right,fairness.vice,openet,,,,,,,,,,,,,,,0,198,198,258,,,,,,,,,,,,,AMP,left,0.633766715269303,0,,,,,,,,,,,,,,left,0,0.633766715269303,,,,,,,,,,,1036,2019_Mar_08_1456,mf_amp_cond2,3.0.4,59.985878694633655,
values,&&&&&,left,sanctity.virtue,saned,,,,,,,,,,,,,,,0,199,199,136,,,,,,,,,,,,,AMP,right,0.5337393896916183,0,,,,,,,,,,,,,,right,0,0.5337393896916183,,,,,,,,,,,1036,2019_Mar_08_1456,mf_amp_cond2,3.0.4,59.985878694633655,
arrests,&&&&&&,right,authority.vice,gazily,,,,,,,,,,,,,,,0,200,200,129,,,,,,,,,,,,,AMP,left,0.40037101204507053,0,,,,,,,,,,,,,,left,0,0.40037101204507053,,,,,,,,,,,1036,2019_Mar_08_1456,mf_amp_cond2,3.0.4,59.985878694633655,
safe,&&&&&&&,left,care.virtue,halaise,,,,,,,,,,,,,,,0,201,201,325,,,,,,,,,,,,,AMP,right,0.36702643203898333,0,,,,,,,,,,,,,,right,0,0.36702643203898333,,,,,,,,,,,1036,2019_Mar_08_1456,mf_amp_cond2,3.0.4,59.985878694633655,
peace,&&&&&&&,left,care.virtue,Daptist,,,,,,,,,,,,,,,0,202,202,254,,,,,,,,,,,,,AMP,right,0.46706241712672636,0,,,,,,,,,,,,,,right,0,0.46706241712672636,,,,,,,,,,,1036,2019_Mar_08_1456,mf_amp_cond2,3.0.4,59.985878694633655,
strong,&&&&&&&,left,loyalty.virtue,vurtain,,,,,,,,,,,,,,,0,203,203,213,,,,,,,,,,,,,AMP,right,0.43372874168562703,0,,,,,,,,,,,,,,right,0,0.43372874168562703,,,,,,,,,,,1036,2019_Mar_08_1456,mf_amp_cond2,3.0.4,59.985878694633655,
riot,&&&&&&&&,right,authority.vice,hescribe,,,,,,,,,,,,,,,0,204,204,209,,,,,,,,,,,,,AMP,left,0.4003726156661287,0,,,,,,,,,,,,,,left,0,0.4003726156661287,,,,,,,,,,,1036,2019_Mar_08_1456,mf_amp_cond2,3.0.4,59.985878694633655,
encourage,&&&&&&&&&&,left,authority.virtue,galamitous,,,,,,,,,,,,,,,0,205,205,11,,,,,,,,,,,,,AMP,right,0.467052795458585,0,,,,,,,,,,,,,,right,0,0.467052795458585,,,,,,,,,,,1036,2019_Mar_08_1456,mf_amp_cond2,3.0.4,59.985878694633655,
black,&&&&&&&&,right,loyalty.vice,epigrach,,,,,,,,,,,,,,,0,206,206,239,,,,,,,,,,,,,AMP,right,1.23390821814246,1,,,,,,,,,,,,,,right,1,1.23390821814246,,,,,,,,,,,1036,2019_Mar_08_1456,mf_amp_cond2,3.0.4,59.985878694633655,
victim,&&&&&&&,right,care.vice,emports,,,,,,,,,,,,,,,0,207,207,41,,,,,,,,,,,,,AMP,left,0.6004218145244522,0,,,,,,,,,,,,,,left,0,0.6004218145244522,,,,,,,,,,,1036,2019_Mar_08_1456,mf_amp_cond2,3.0.4,59.985878694633655,
friends,&&&&,left,loyalty.virtue,alar,,,,,,,,,,,,,,,0,208,208,237,,,,,,,,,,,,,AMP,right,0.35035622674331535,0,,,,,,,,,,,,,,right,0,0.35035622674331535,,,,,,,,,,,1036,2019_Mar_08_1456,mf_amp_cond2,3.0.4,59.985878694633655,
powerful,&&&&&&&&,left,authority.virtue,framatic,,,,,,,,,,,,,,,0,209,209,65,,,,,,,,,,,,,AMP,right,0.6837770104611991,0,,,,,,,,,,,,,,right,0,0.6837770104611991,,,,,,,,,,,1036,2019_Mar_08_1456,mf_amp_cond2,3.0.4,59.985878694633655,
crime,&&&&&&&,right,fairness.vice,dramens,,,,,,,,,,,,,,,0,210,210,95,,,,,,,,,,,,,AMP,left,0.8338341953203781,0,,,,,,,,,,,,,,left,0,0.8338341953203781,,,,,,,,,,,1036,2019_Mar_08_1456,mf_amp_cond2,3.0.4,59.985878694633655,
benefit,&&&&&&&&&&,left,fairness.virtue,Oregoniuns,,,,,,,,,,,,,,,0,211,211,215,,,,,,,,,,,,,AMP,right,0.43371366773499176,0,,,,,,,,,,,,,,right,0,0.43371366773499176,,,,,,,,,,,1036,2019_Mar_08_1456,mf_amp_cond2,3.0.4,59.985878694633655,
love,&&&&&&&&&&&&,left,loyalty.virtue,edancipation,,,,,,,,,,,,,,,0,212,212,243,,,,,,,,,,,,,AMP,right,0.6171035658626352,0,,,,,,,,,,,,,,right,0,0.6171035658626352,,,,,,,,,,,1036,2019_Mar_08_1456,mf_amp_cond2,3.0.4,59.985878694633655,
threatened,&&&&&&&,right,fairness.vice,reviked,,,,,,,,,,,,,,,0,213,213,6,,,,,,,,,,,,,AMP,left,0.7504668119217968,0,,,,,,,,,,,,,,left,0,0.7504668119217968,,,,,,,,,,,1036,2019_Mar_08_1456,mf_amp_cond2,3.0.4,59.985878694633655,
stindig,&&&&&&&&&&,None,nonword,ejanulated,,,,,,,,,,,,,,,0,214,214,49,,,,,,,,,,,,,AMP,left,0.9005310526990797,0,,,,,,,,,,,,,,left,0,0.9005310526990797,,,,,,,,,,,1036,2019_Mar_08_1456,mf_amp_cond2,3.0.4,59.985878694633655,
win,&&&&&&&,left,fairness.virtue,allears,,,,,,,,,,,,,,,0,215,215,78,,,,,,,,,,,,,AMP,right,0.5337490113743115,0,,,,,,,,,,,,,,right,0,0.5337490113743115,,,,,,,,,,,1036,2019_Mar_08_1456,mf_amp_cond2,3.0.4,59.985878694633655,
victim,&&&&&&&&&&,right,care.vice,ammessment,,,,,,,,,,,,,,,0,216,216,154,,,,,,,,,,,,,AMP,left,0.9171733551193029,0,,,,,,,,,,,,,,left,0,0.9171733551193029,,,,,,,,,,,1036,2019_Mar_08_1456,mf_amp_cond2,3.0.4,59.985878694633655,
restore,&&&&&,left,care.virtue,framo,,,,,,,,,,,,,,,0,217,217,321,,,,,,,,,,,,,AMP,right,0.6004243803181453,0,,,,,,,,,,,,,,right,0,0.6004243803181453,,,,,,,,,,,1036,2019_Mar_08_1456,mf_amp_cond2,3.0.4,59.985878694633655,
fair,&&&&&,left,fairness.virtue,hasks,,,,,,,,,,,,,,,0,218,218,52,,,,,,,,,,,,,AMP,right,0.5337490113743115,0,,,,,,,,,,,,,,right,0,0.5337490113743115,,,,,,,,,,,1036,2019_Mar_08_1456,mf_amp_cond2,3.0.4,59.985878694633655,
victims,&&&&&,right,care.vice,uller,,,,,,,,,,,,,,,0,219,219,164,,,,,,,,,,,,,AMP,left,0.6504436557443114,0,,,,,,,,,,,,,,left,0,0.6504436557443114,,,,,,,,,,,1036,2019_Mar_08_1456,mf_amp_cond2,3.0.4,59.985878694633655,
prosecution,&&&&&&&&&&&,right,authority.vice,lempestuous,,,,,,,,,,,,,,,0,220,220,15,,,,,,,,,,,,,AMP,left,0.7336295100831194,0,,,,,,,,,,,,,,left,0,0.7336295100831194,,,,,,,,,,,1036,2019_Mar_08_1456,mf_amp_cond2,3.0.4,59.985878694633655,
forced,&&&&&&&&&&&,right,fairness.vice,ilportation,,,,,,,,,,,,,,,0,221,221,191,,,,,,,,,,,,,AMP,right,0.5004086007684236,1,,,,,,,,,,,,,,right,1,0.5004086007684236,,,,,,,,,,,1036,2019_Mar_08_1456,mf_amp_cond2,3.0.4,59.985878694633655,
safe,&&&&&&&,left,care.virtue,smapper,,,,,,,,,,,,,,,0,222,222,34,,,,,,,,,,,,,AMP,left,1.7007021903409623,1,,,,,,,,,,,,,,left,1,1.7007021903409623,,,,,,,,,,,1036,2019_Mar_08_1456,mf_amp_cond2,3.0.4,59.985878694633655,
restore,&&&&&&&&&,left,care.virtue,discovars,,,,,,,,,,,,,,,0,223,223,98,,,,,,,,,,,,,AMP,right,0.8171373700315598,0,,,,,,,,,,,,,,right,0,0.8171373700315598,,,,,,,,,,,1036,2019_Mar_08_1456,mf_amp_cond2,3.0.4,59.985878694633655,
stindig,&&&&&&&&&&&,None,nonword,shoirmaster,,,,,,,,,,,,,,,0,224,224,249,,,,,,,,,,,,,AMP,left,0.36702835638425313,0,,,,,,,,,,,,,,left,0,0.36702835638425313,,,,,,,,,,,1036,2019_Mar_08_1456,mf_amp_cond2,3.0.4,59.985878694633655,
compassion,&&&&&&&&&,left,care.virtue,seachwear,,,,,,,,,,,,,,,0,225,225,18,,,,,,,,,,,,,AMP,right,0.38371812576951925,0,,,,,,,,,,,,,,right,0,0.38371812576951925,,,,,,,,,,,1036,2019_Mar_08_1456,mf_amp_cond2,3.0.4,59.985878694633655,
refused,&&&&&&&,right,authority.vice,emports,,,,,,,,,,,,,,,0,226,226,108,,,,,,,,,,,,,AMP,left,0.733797248074552,0,,,,,,,,,,,,,,left,0,0.733797248074552,,,,,,,,,,,1036,2019_Mar_08_1456,mf_amp_cond2,3.0.4,59.985878694633655,
victims,&&&&&&&&&&&&&,right,care.vice,synchronazers,,,,,,,,,,,,,,,0,227,227,85,,,,,,,,,,,,,AMP,left,0.7337943615566473,0,,,,,,,,,,,,,,left,0,0.7337943615566473,,,,,,,,,,,1036,2019_Mar_08_1456,mf_amp_cond2,3.0.4,59.985878694633655,
opportunity,&&&&&&&&&&,left,fairness.virtue,elduringly,,,,,,,,,,,,,,,0,228,228,75,,,,,,,,,,,,,AMP,right,0.6337388123938581,0,,,,,,,,,,,,,,right,0,0.6337388123938581,,,,,,,,,,,1036,2019_Mar_08_1456,mf_amp_cond2,3.0.4,59.985878694633655,
penalty,&&&&&&&&&&,right,authority.vice,focomotive,,,,,,,,,,,,,,,0,229,229,219,,,,,,,,,,,,,AMP,left,1.317293882719241,0,,,,,,,,,,,,,,left,0,1.317293882719241,,,,,,,,,,,1036,2019_Mar_08_1456,mf_amp_cond2,3.0.4,59.985878694633655,
care,&&&&&&&&&,left,care.virtue,brotesque,,,,,,,,,,,,,,,0,230,230,190,,,,,,,,,,,,,AMP,right,0.9672061009187018,0,,,,,,,,,,,,,,right,0,0.9672061009187018,,,,,,,,,,,1036,2019_Mar_08_1456,mf_amp_cond2,3.0.4,59.985878694633655,
racist,&&&,right,sanctity.vice,mih,,,,,,,,,,,,,,,0,231,231,278,,,,,,,,,,,,,AMP,left,0.5670785174152115,0,,,,,,,,,,,,,,left,0,0.5670785174152115,,,,,,,,,,,1036,2019_Mar_08_1456,mf_amp_cond2,3.0.4,59.985878694633655,
fair,&&&&&&&,left,fairness.virtue,menizen,,,,,,,,,,,,,,,0,232,232,263,,,,,,,,,,,,,AMP,right,0.6004218145390041,0,,,,,,,,,,,,,,right,0,0.6004218145390041,,,,,,,,,,,1036,2019_Mar_08_1456,mf_amp_cond2,3.0.4,59.985878694633655,
Cunday,&&&&,None,nonword,spag,,,,,,,,,,,,,,,0,233,233,48,,,,,,,,,,,,,AMP,left,0.4502353784046136,0,,,,,,,,,,,,,,left,0,0.4502353784046136,,,,,,,,,,,1036,2019_Mar_08_1456,mf_amp_cond2,3.0.4,59.985878694633655,
trust,&&&&&&,left,authority.virtue,gikely,,,,,,,,,,,,,,,0,234,234,266,,,,,,,,,,,,,AMP,right,1.1672354149632156,0,,,,,,,,,,,,,,right,0,1.1672354149632156,,,,,,,,,,,1036,2019_Mar_08_1456,mf_amp_cond2,3.0.4,59.985878694633655,
torture,&&&&&,right,care.vice,infet,,,,,,,,,,,,,,,0,235,235,285,,,,,,,,,,,,,AMP,left,0.2836747640540125,0,,,,,,,,,,,,,,left,0,0.2836747640540125,,,,,,,,,,,1036,2019_Mar_08_1456,mf_amp_cond2,3.0.4,59.985878694633655,
wump,&&&&&&&&&&,None,nonword,focomotive,,,,,,,,,,,,,,,0,236,236,42,,,,,,,,,,,,,AMP,left,0.7671517704875441,0,,,,,,,,,,,,,,left,0,0.7671517704875441,,,,,,,,,,,1036,2019_Mar_08_1456,mf_amp_cond2,3.0.4,59.985878694633655,
ban,&&&&&&&,right,loyalty.vice,emports,,,,,,,,,,,,,,,0,237,237,253,,,,,,,,,,,,,AMP,left,0.8004989162873244,0,,,,,,,,,,,,,,left,0,0.8004989162873244,,,,,,,,,,,1036,2019_Mar_08_1456,mf_amp_cond2,3.0.4,59.985878694633655,
honored,&&&&&&&&&&&,left,authority.virtue,precificity,,,,,,,,,,,,,,,0,238,238,176,,,,,,,,,,,,,AMP,right,0.4837290944997221,0,,,,,,,,,,,,,,right,0,0.4837290944997221,,,,,,,,,,,1036,2019_Mar_08_1456,mf_amp_cond2,3.0.4,59.985878694633655,
encourage,&&&&&&&,left,authority.virtue,halaise,,,,,,,,,,,,,,,0,239,239,130,,,,,,,,,,,,,AMP,right,0.8171245411358541,0,,,,,,,,,,,,,,right,0,0.8171245411358541,,,,,,,,,,,1036,2019_Mar_08_1456,mf_amp_cond2,3.0.4,59.985878694633655,
compassion,&&&&&&&&&&&&,left,care.virtue,nonobservalt,,,,,,,,,,,,,,,0,240,240,135,,,,,,,,,,,,,AMP,right,0.9338560686301207,0,,,,,,,,,,,,,,right,0,0.9338560686301207,,,,,,,,,,,1036,2019_Mar_08_1456,mf_amp_cond2,3.0.4,59.985878694633655,
hatigue,&&&&&&,None,nonword,greaks,,,,,,,,,,,,,,,0,241,241,9,,,,,,,,,,,,,AMP,left,0.5170714294363279,0,,,,,,,,,,,,,,left,0,0.5170714294363279,,,,,,,,,,,1036,2019_Mar_08_1456,mf_amp_cond2,3.0.4,59.985878694633655,
