words,mask,corr_ans,category,nonwords,tweets,topic,LDT_prac_loop.thisRepN,LDT_prac_loop.thisTrialN,LDT_prac_loop.thisN,LDT_prac_loop.thisIndex,LDT_loop.thisRepN,LDT_loop.thisTrialN,LDT_loop.thisN,LDT_loop.thisIndex,AMP_pracloop.thisRepN,AMP_pracloop.thisTrialN,AMP_pracloop.thisN,AMP_pracloop.thisIndex,AMP_loop.thisRepN,AMP_loop.thisTrialN,AMP_loop.thisN,AMP_loop.thisIndex,tweet_loop.thisRepN,tweet_loop.thisTrialN,tweet_loop.thisN,tweet_loop.thisIndex,begin_key.keys,begin_key.rt,key_resp_AMP_instr1.keys,key_resp_AMP_instr1.rt,key_resp_LDT_instr.keys,key_resp_LDT_instr.rt,resp_LDT_prac.keys,resp_LDT_prac.rt,task,keypress,RT,corr,resp_LDT_ready.keys,resp_LDT_ready.rt,resp_LDT.keys,resp_LDT.corr,resp_LDT.rt,LDT_rating.response,LDT_rating.rt,resp_AMP_ready1.keys,resp_AMP_ready1.rt,resp_AMP_prac.keys,resp_AMP_prac.rt,resp_AMP_ready.keys,resp_AMP_ready.rt,resp_AMP.keys,resp_AMP.corr,resp_AMP.rt,AMP_nonword_rating.response,AMP_nonword_rating.rt,AMP_word_rating.response,AMP_word_rating.rt,AMP_random_rating.response,AMP_random_rating.rt,key_resp_LDT_instr_2.keys,key_resp_LDT_instr_2.rt,resp_tweets.keys,resp_tweets.rt,participant,date,expName,psychopyVersion,frameRate,
,,,,,,,,,,,,,,,,,,,,,,,,,,,right,567.4109253122297,,,,,,,,,,,,,,,,,,,,,,,,,,,,,,,,,,,,,1038,2019_Mar_08_1457,mf_amp_cond2,3.0.4,60.03128628210804,
,,,,,,,,,,,,,,,,,,,,,,,,,,,,,right,3.2343529055506224,,,,,,,,,,,,,,,,,,,,,,,,,,,,,,,,,,,1038,2019_Mar_08_1457,mf_amp_cond2,3.0.4,60.03128628210804,
,,,,,,,,,,,,,,,,,,,,,,,,,,,,,,,right,2.0841111004556296,,,,,,,,,,,,,,,,,,,,,,,,,,,,,,,,,1038,2019_Mar_08_1457,mf_amp_cond2,3.0.4,60.03128628210804,
bisebell,&&&&&&&,,,,,,0,0,0,1,,,,,,,,,,,,,,,,,,,,,,,left,1.3172404680371983,LDT_prac,left,1.3172404680371983,0,,,,,,,,,,,,,,,,,,,,,,,,,,,1038,2019_Mar_08_1457,mf_amp_cond2,3.0.4,60.03128628210804,
keyboard,&&&&&&&,,,,,,0,1,1,0,,,,,,,,,,,,,,,,,,,,,,,left,1.3672486944269622,LDT_prac,left,1.3672486944269622,0,,,,,,,,,,,,,,,,,,,,,,,,,,,1038,2019_Mar_08_1457,mf_amp_cond2,3.0.4,60.03128628210804,
,,,,,,,,,,,,,,,,,,,,,,,,,,,,,,,,,,,,,,,right,1.4172732774459291,,,,,,,,,,,,,,,,,,,,,,,,,1038,2019_Mar_08_1457,mf_amp_cond2,3.0.4,60.03128628210804,
fonderland,&&&&&&&&&&,right,nonword,,,,,,,,0,0,0,15,,,,,,,,,,,,,,,,,,,,,LDT,left,0.6670543074578745,0,,,left,0,0.6670543074578745,,,,,,,,,,,,,,,,,,,,,,1038,2019_Mar_08_1457,mf_amp_cond2,3.0.4,60.03128628210804,
fair,&&&&,left,fairness.virtue,,,,,,,,0,1,1,40,,,,,,,,,,,,,,,,,,,,,LDT,left,1.117193130092346,1,,,left,1,1.117193130092346,,,,,,,,,,,,,,,,,,,,,,1038,2019_Mar_08_1457,mf_amp_cond2,3.0.4,60.03128628210804,
integrity,&&&&&&&&&,left,fairness.virtue,,,,,,,,0,2,2,90,,,,,,,,,,,,,,,,,,,,,LDT,right,1.5006143347272882,0,,,right,0,1.5006143347272882,,,,,,,,,,,,,,,,,,,,,,1038,2019_Mar_08_1457,mf_amp_cond2,3.0.4,60.03128628210804,
less,&&&&,left,neutral,,,,,,,,0,3,3,139,,,,,,,,,,,,,,,,,,,,,LDT,left,1.317245599508169,1,,,left,1,1.317245599508169,,,,,,,,,,,,,,,,,,,,,,1038,2019_Mar_08_1457,mf_amp_cond2,3.0.4,60.03128628210804,
love,&&&&,left,loyalty.virtue,,,,,,,,0,4,4,6,,,,,,,,,,,,,,,,,,,,,LDT,right,0.733774811931653,0,,,right,0,0.733774811931653,,,,,,,,,,,,,,,,,,,,,,1038,2019_Mar_08_1457,mf_amp_cond2,3.0.4,60.03128628210804,
clean,&&&&&,left,sanctity.virtue,,,,,,,,0,5,5,13,,,,,,,,,,,,,,,,,,,,,LDT,right,1.283901864226209,0,,,right,0,1.283901864226209,,,,,,,,,,,,,,,,,,,,,,1038,2019_Mar_08_1457,mf_amp_cond2,3.0.4,60.03128628210804,
scandal,&&&&&&&,left,sanctity.vice,,,,,,,,0,6,6,170,,,,,,,,,,,,,,,,,,,,,LDT,right,0.8837959632510319,0,,,right,0,0.8837959632510319,,,,,,,,,,,,,,,,,,,,,,1038,2019_Mar_08_1457,mf_amp_cond2,3.0.4,60.03128628210804,
intelligence,&&&&&&&&&&&&,left,loyalty.virtue,,,,,,,,0,7,7,165,,,,,,,,,,,,,,,,,,,,,LDT,right,0.6003976257925387,0,,,right,0,0.6003976257925387,,,,,,,,,,,,,,,,,,,,,,1038,2019_Mar_08_1457,mf_amp_cond2,3.0.4,60.03128628210804,
killed,&&&&&&,left,care.vice,,,,,,,,0,8,8,156,,,,,,,,,,,,,,,,,,,,,LDT,right,0.4503623628843343,0,,,right,0,0.4503623628843343,,,,,,,,,,,,,,,,,,,,,,1038,2019_Mar_08_1457,mf_amp_cond2,3.0.4,60.03128628210804,
simplustic,&&&&&&&&&&,right,nonword,,,,,,,,0,9,9,81,,,,,,,,,,,,,,,,,,,,,LDT,left,0.7337690390122589,0,,,left,0,0.7337690390122589,,,,,,,,,,,,,,,,,,,,,,1038,2019_Mar_08_1457,mf_amp_cond2,3.0.4,60.03128628210804,
least,&&&&&,left,neutral,,,,,,,,0,10,10,99,,,,,,,,,,,,,,,,,,,,,LDT,right,0.4337052482587751,0,,,right,0,0.4337052482587751,,,,,,,,,,,,,,,,,,,,,,1038,2019_Mar_08_1457,mf_amp_cond2,3.0.4,60.03128628210804,
elsewhere,&&&&&&&&&,left,neutral,,,,,,,,0,11,11,120,,,,,,,,,,,,,,,,,,,,,LDT,right,0.8337893404386705,0,,,right,0,0.8337893404386705,,,,,,,,,,,,,,,,,,,,,,1038,2019_Mar_08_1457,mf_amp_cond2,3.0.4,60.03128628210804,
besides,&&&&&&&,left,neutral,,,,,,,,0,12,12,152,,,,,,,,,,,,,,,,,,,,,LDT,right,0.4003592679509893,0,,,right,0,0.4003592679509893,,,,,,,,,,,,,,,,,,,,,,1038,2019_Mar_08_1457,mf_amp_cond2,3.0.4,60.03128628210804,
sickyay,&&&&&&&,right,nonword,,,,,,,,0,13,13,95,,,,,,,,,,,,,,,,,,,,,LDT,left,1.2172240152140148,0,,,left,0,1.2172240152140148,,,,,,,,,,,,,,,,,,,,,,1038,2019_Mar_08_1457,mf_amp_cond2,3.0.4,60.03128628210804,
hope,&&&&,left,loyalty.virtue,,,,,,,,0,14,14,9,,,,,,,,,,,,,,,,,,,,,LDT,right,0.4670499456842663,0,,,right,0,0.4670499456842663,,,,,,,,,,,,,,,,,,,,,,1038,2019_Mar_08_1457,mf_amp_cond2,3.0.4,60.03128628210804,
each,&&&&,left,neutral,,,,,,,,0,15,15,35,,,,,,,,,,,,,,,,,,,,,LDT,right,0.5837571884912904,0,,,right,0,0.5837571884912904,,,,,,,,,,,,,,,,,,,,,,1038,2019_Mar_08_1457,mf_amp_cond2,3.0.4,60.03128628210804,
growth,&&&&&&,left,care.virtue,,,,,,,,0,16,16,129,,,,,,,,,,,,,,,,,,,,,LDT,right,0.517060096404748,0,,,right,0,0.517060096404748,,,,,,,,,,,,,,,,,,,,,,1038,2019_Mar_08_1457,mf_amp_cond2,3.0.4,60.03128628210804,
prones,&&&&&&,right,nonword,,,,,,,,0,17,17,21,,,,,,,,,,,,,,,,,,,,,LDT,left,0.9338413929217495,0,,,left,0,0.9338413929217495,,,,,,,,,,,,,,,,,,,,,,1038,2019_Mar_08_1457,mf_amp_cond2,3.0.4,60.03128628210804,
pumber,&&&&&&,None,nonword,,,,,,,,0,18,18,60,,,,,,,,,,,,,,,,,,,,,LDT,right,0.48369968379847705,0,,,right,0,0.48369968379847705,,,,,,,,,,,,,,,,,,,,,,1038,2019_Mar_08_1457,mf_amp_cond2,3.0.4,60.03128628210804,
spag,&&&&,None,nonword,,,,,,,,0,19,19,67,,,,,,,,,,,,,,,,,,,,,LDT,right,0.8671301892463816,0,,,right,0,0.8671301892463816,,,,,,,,,,,,,,,,,,,,,,1038,2019_Mar_08_1457,mf_amp_cond2,3.0.4,60.03128628210804,
chressing,&&&&&&&&&,None,nonword,,,,,,,,0,20,20,110,,,,,,,,,,,,,,,,,,,,,LDT,right,0.8004452844470507,0,,,right,0,0.8004452844470507,,,,,,,,,,,,,,,,,,,,,,1038,2019_Mar_08_1457,mf_amp_cond2,3.0.4,60.03128628210804,
ugeasily,&&&&&&&&,right,nonword,,,,,,,,0,21,21,122,,,,,,,,,,,,,,,,,,,,,LDT,right,0.833776191007928,1,,,right,1,0.833776191007928,,,,,,,,,,,,,,,,,,,,,,1038,2019_Mar_08_1457,mf_amp_cond2,3.0.4,60.03128628210804,
become,&&&&&&,left,neutral,,,,,,,,0,22,22,178,,,,,,,,,,,,,,,,,,,,,LDT,right,0.38367232658492867,0,,,right,0,0.38367232658492867,,,,,,,,,,,,,,,,,,,,,,1038,2019_Mar_08_1457,mf_amp_cond2,3.0.4,60.03128628210804,
serial,&&&&&&,left,sanctity.vice,,,,,,,,0,23,23,154,,,,,,,,,,,,,,,,,,,,,LDT,right,0.3670043075544527,0,,,right,0,0.3670043075544527,,,,,,,,,,,,,,,,,,,,,,1038,2019_Mar_08_1457,mf_amp_cond2,3.0.4,60.03128628210804,
gaultless,&&&&&&&&&,right,nonword,,,,,,,,0,24,24,4,,,,,,,,,,,,,,,,,,,,,LDT,right,1.0670248655660544,1,,,right,1,1.0670248655660544,,,,,,,,,,,,,,,,,,,,,,1038,2019_Mar_08_1457,mf_amp_cond2,3.0.4,60.03128628210804,
letish,&&&&&&,right,nonword,,,,,,,,0,25,25,109,,,,,,,,,,,,,,,,,,,,,LDT,left,1.0172016932629049,0,,,left,0,1.0172016932629049,,,,,,,,,,,,,,,,,,,,,,1038,2019_Mar_08_1457,mf_amp_cond2,3.0.4,60.03128628210804,
emassion,&&&&&&&&,right,nonword,,,,,,,,0,26,26,5,,,,,,,,,,,,,,,,,,,,,LDT,left,1.017168338628835,0,,,left,0,1.017168338628835,,,,,,,,,,,,,,,,,,,,,,1038,2019_Mar_08_1457,mf_amp_cond2,3.0.4,60.03128628210804,
brudent,&&&&&&&,right,nonword,,,,,,,,0,27,27,20,,,,,,,,,,,,,,,,,,,,,LDT,right,0.5003818144177785,1,,,right,1,0.5003818144177785,,,,,,,,,,,,,,,,,,,,,,1038,2019_Mar_08_1457,mf_amp_cond2,3.0.4,60.03128628210804,
terrorist,&&&&&&&&&,left,loyalty.vice,,,,,,,,0,28,28,132,,,,,,,,,,,,,,,,,,,,,LDT,right,0.41687238033046015,0,,,right,0,0.41687238033046015,,,,,,,,,,,,,,,,,,,,,,1038,2019_Mar_08_1457,mf_amp_cond2,3.0.4,60.03128628210804,
festate,&&&&&&&,right,nonword,,,,,,,,0,29,29,134,,,,,,,,,,,,,,,,,,,,,LDT,right,1.0004958295467077,1,,,right,1,1.0004958295467077,,,,,,,,,,,,,,,,,,,,,,1038,2019_Mar_08_1457,mf_amp_cond2,3.0.4,60.03128628210804,
amoungst,&&&&&&&&,left,neutral,,,,,,,,0,30,30,51,,,,,,,,,,,,,,,,,,,,,LDT,right,1.3838663607748458,0,,,right,0,1.3838663607748458,,,,,,,,,,,,,,,,,,,,,,1038,2019_Mar_08_1457,mf_amp_cond2,3.0.4,60.03128628210804,
sidearbs,&&&&&&&&,right,nonword,,,,,,,,0,31,31,44,,,,,,,,,,,,,,,,,,,,,LDT,right,1.0838487533910666,1,,,right,1,1.0838487533910666,,,,,,,,,,,,,,,,,,,,,,1038,2019_Mar_08_1457,mf_amp_cond2,3.0.4,60.03128628210804,
metibolic,&&&&&&&&&,right,nonword,,,,,,,,0,32,32,73,,,,,,,,,,,,,,,,,,,,,LDT,right,0.517055285628885,1,,,right,1,0.517055285628885,,,,,,,,,,,,,,,,,,,,,,1038,2019_Mar_08_1457,mf_amp_cond2,3.0.4,60.03128628210804,
although,&&&&&&&&,left,neutral,,,,,,,,0,33,33,148,,,,,,,,,,,,,,,,,,,,,LDT,right,0.5503958137414884,0,,,right,0,0.5503958137414884,,,,,,,,,,,,,,,,,,,,,,1038,2019_Mar_08_1457,mf_amp_cond2,3.0.4,60.03128628210804,
else,&&&&,left,neutral,,,,,,,,0,34,34,41,,,,,,,,,,,,,,,,,,,,,LDT,right,0.46702685400669,0,,,right,0,0.46702685400669,,,,,,,,,,,,,,,,,,,,,,1038,2019_Mar_08_1457,mf_amp_cond2,3.0.4,60.03128628210804,
sexual,&&&&&&,left,sanctity.vice,,,,,,,,0,35,35,56,,,,,,,,,,,,,,,,,,,,,LDT,left,0.45036941867147107,1,,,left,1,0.45036941867147107,,,,,,,,,,,,,,,,,,,,,,1038,2019_Mar_08_1457,mf_amp_cond2,3.0.4,60.03128628210804,
police,&&&&&&,left,authority.vice,,,,,,,,0,36,36,97,,,,,,,,,,,,,,,,,,,,,LDT,right,0.5170867159758927,0,,,right,0,0.5170867159758927,,,,,,,,,,,,,,,,,,,,,,1038,2019_Mar_08_1457,mf_amp_cond2,3.0.4,60.03128628210804,
credit,&&&&&&,left,fairness.virtue,,,,,,,,0,37,37,118,,,,,,,,,,,,,,,,,,,,,LDT,right,0.6504212466388708,0,,,right,0,0.6504212466388708,,,,,,,,,,,,,,,,,,,,,,1038,2019_Mar_08_1457,mf_amp_cond2,3.0.4,60.03128628210804,
Phintoism,&&&&&&&&&,right,nonword,,,,,,,,0,38,38,8,,,,,,,,,,,,,,,,,,,,,LDT,right,1.1338595455308678,1,,,right,1,1.1338595455308678,,,,,,,,,,,,,,,,,,,,,,1038,2019_Mar_08_1457,mf_amp_cond2,3.0.4,60.03128628210804,
Oregoniuns,&&&&&&&&&&,right,nonword,,,,,,,,0,39,39,135,,,,,,,,,,,,,,,,,,,,,LDT,left,0.7504527731944108,0,,,left,0,0.7504527731944108,,,,,,,,,,,,,,,,,,,,,,1038,2019_Mar_08_1457,mf_amp_cond2,3.0.4,60.03128628210804,
juck,&&&&,right,nonword,,,,,,,,0,40,40,155,,,,,,,,,,,,,,,,,,,,,LDT,left,0.7004237001383444,0,,,left,0,0.7004237001383444,,,,,,,,,,,,,,,,,,,,,,1038,2019_Mar_08_1457,mf_amp_cond2,3.0.4,60.03128628210804,
reelectiob,&&&&&&&&&&,right,nonword,,,,,,,,0,41,41,66,,,,,,,,,,,,,,,,,,,,,LDT,right,1.000473058578791,1,,,right,1,1.000473058578791,,,,,,,,,,,,,,,,,,,,,,1038,2019_Mar_08_1457,mf_amp_cond2,3.0.4,60.03128628210804,
benefit,&&&&&&&,left,fairness.virtue,,,,,,,,0,42,42,10,,,,,,,,,,,,,,,,,,,,,LDT,right,0.4503527413617121,0,,,right,0,0.4503527413617121,,,,,,,,,,,,,,,,,,,,,,1038,2019_Mar_08_1457,mf_amp_cond2,3.0.4,60.03128628210804,
thru,&&&&,left,neutral,,,,,,,,0,43,43,183,,,,,,,,,,,,,,,,,,,,,LDT,right,0.5170424569369061,0,,,right,0,0.5170424569369061,,,,,,,,,,,,,,,,,,,,,,1038,2019_Mar_08_1457,mf_amp_cond2,3.0.4,60.03128628210804,
either,&&&&&&,left,neutral,,,,,,,,0,44,44,92,,,,,,,,,,,,,,,,,,,,,LDT,right,0.5503868336381856,0,,,right,0,0.5503868336381856,,,,,,,,,,,,,,,,,,,,,,1038,2019_Mar_08_1457,mf_amp_cond2,3.0.4,60.03128628210804,
pescinded,&&&&&&&&&,right,nonword,,,,,,,,0,45,45,62,,,,,,,,,,,,,,,,,,,,,LDT,right,0.9004729623702588,1,,,right,1,0.9004729623702588,,,,,,,,,,,,,,,,,,,,,,1038,2019_Mar_08_1457,mf_amp_cond2,3.0.4,60.03128628210804,
death,&&&&&,left,care.vice,,,,,,,,0,46,46,175,,,,,,,,,,,,,,,,,,,,,LDT,right,0.5337210596480872,0,,,right,0,0.5337210596480872,,,,,,,,,,,,,,,,,,,,,,1038,2019_Mar_08_1457,mf_amp_cond2,3.0.4,60.03128628210804,
shoirmaster,&&&&&&&&&&&,right,nonword,,,,,,,,0,47,47,113,,,,,,,,,,,,,,,,,,,,,LDT,right,0.40035606078163255,1,,,right,1,0.40035606078163255,,,,,,,,,,,,,,,,,,,,,,1038,2019_Mar_08_1457,mf_amp_cond2,3.0.4,60.03128628210804,
grovelire,&&&&&&&&&,right,nonword,,,,,,,,0,48,48,54,,,,,,,,,,,,,,,,,,,,,LDT,right,0.6837313065625494,1,,,right,1,0.6837313065625494,,,,,,,,,,,,,,,,,,,,,,1038,2019_Mar_08_1457,mf_amp_cond2,3.0.4,60.03128628210804,
latter,&&&&&&,left,neutral,,,,,,,,0,49,49,106,,,,,,,,,,,,,,,,,,,,,LDT,right,0.6504068143549375,0,,,right,0,0.6504068143549375,,,,,,,,,,,,,,,,,,,,,,1038,2019_Mar_08_1457,mf_amp_cond2,3.0.4,60.03128628210804,
laming,&&&&&&,right,nonword,,,,,,,,0,50,50,87,,,,,,,,,,,,,,,,,,,,,LDT,right,0.5335757745197043,1,,,right,1,0.5335757745197043,,,,,,,,,,,,,,,,,,,,,,1038,2019_Mar_08_1457,mf_amp_cond2,3.0.4,60.03128628210804,
fifteen,&&&&&&&,left,neutral,,,,,,,,0,51,51,70,,,,,,,,,,,,,,,,,,,,,LDT,right,0.4170269662718056,0,,,right,0,0.4170269662718056,,,,,,,,,,,,,,,,,,,,,,1038,2019_Mar_08_1457,mf_amp_cond2,3.0.4,60.03128628210804,
three,&&&&&,left,neutral,,,,,,,,0,52,52,158,,,,,,,,,,,,,,,,,,,,,LDT,right,0.6003976257925387,0,,,right,0,0.6003976257925387,,,,,,,,,,,,,,,,,,,,,,1038,2019_Mar_08_1457,mf_amp_cond2,3.0.4,60.03128628210804,
framo,&&&&&,right,nonword,,,,,,,,0,53,53,17,,,,,,,,,,,,,,,,,,,,,LDT,left,0.8504660188482376,0,,,left,0,0.8504660188482376,,,,,,,,,,,,,,,,,,,,,,1038,2019_Mar_08_1457,mf_amp_cond2,3.0.4,60.03128628210804,
gedious,&&&&&&&,right,nonword,,,,,,,,0,54,54,163,,,,,,,,,,,,,,,,,,,,,LDT,left,0.8337979998032097,0,,,left,0,0.8337979998032097,,,,,,,,,,,,,,,,,,,,,,1038,2019_Mar_08_1457,mf_amp_cond2,3.0.4,60.03128628210804,
perified,&&&&&&&&,right,nonword,,,,,,,,0,55,55,22,,,,,,,,,,,,,,,,,,,,,LDT,right,0.3670017418189673,1,,,right,1,0.3670017418189673,,,,,,,,,,,,,,,,,,,,,,1038,2019_Mar_08_1457,mf_amp_cond2,3.0.4,60.03128628210804,
ejanulated,&&&&&&&&&&,right,nonword,,,,,,,,0,56,56,111,,,,,,,,,,,,,,,,,,,,,LDT,right,0.7170949263381772,1,,,right,1,0.7170949263381772,,,,,,,,,,,,,,,,,,,,,,1038,2019_Mar_08_1457,mf_amp_cond2,3.0.4,60.03128628210804,
gationwide,&&&&&&&&&&,right,nonword,,,,,,,,0,57,57,144,,,,,,,,,,,,,,,,,,,,,LDT,right,0.4170237590878969,1,,,right,1,0.4170237590878969,,,,,,,,,,,,,,,,,,,,,,1038,2019_Mar_08_1457,mf_amp_cond2,3.0.4,60.03128628210804,
give,&&&&,left,neutral,,,,,,,,0,58,58,53,,,,,,,,,,,,,,,,,,,,,LDT,right,0.45036460791016,0,,,right,0,0.45036460791016,,,,,,,,,,,,,,,,,,,,,,1038,2019_Mar_08_1457,mf_amp_cond2,3.0.4,60.03128628210804,
reprisols,&&&&&&&&&,right,nonword,,,,,,,,0,59,59,105,,,,,,,,,,,,,,,,,,,,,LDT,left,0.41702536267985124,0,,,left,0,0.41702536267985124,,,,,,,,,,,,,,,,,,,,,,1038,2019_Mar_08_1457,mf_amp_cond2,3.0.4,60.03128628210804,
forced,&&&&&&,left,fairness.vice,,,,,,,,0,60,60,172,,,,,,,,,,,,,,,,,,,,,LDT,right,0.5837514155573444,0,,,right,0,0.5837514155573444,,,,,,,,,,,,,,,,,,,,,,1038,2019_Mar_08_1457,mf_amp_cond2,3.0.4,60.03128628210804,
fegard,&&&&&&,right,nonword,,,,,,,,0,61,61,180,,,,,,,,,,,,,,,,,,,,,LDT,right,0.5170674729015445,1,,,right,1,0.5170674729015445,,,,,,,,,,,,,,,,,,,,,,1038,2019_Mar_08_1457,mf_amp_cond2,3.0.4,60.03128628210804,
blunderints,&&&&&&&&&&&,right,nonword,,,,,,,,0,62,62,141,,,,,,,,,,,,,,,,,,,,,LDT,right,0.9004784145654412,1,,,right,1,0.9004784145654412,,,,,,,,,,,,,,,,,,,,,,1038,2019_Mar_08_1457,mf_amp_cond2,3.0.4,60.03128628210804,
idexpressible,&&&&&&&&&&&&&,right,nonword,,,,,,,,0,63,63,79,,,,,,,,,,,,,,,,,,,,,LDT,right,0.4837025702581741,1,,,right,1,0.4837025702581741,,,,,,,,,,,,,,,,,,,,,,1038,2019_Mar_08_1457,mf_amp_cond2,3.0.4,60.03128628210804,
gusinesslike,&&&&&&&&&&&&,right,nonword,,,,,,,,0,64,64,167,,,,,,,,,,,,,,,,,,,,,LDT,right,0.9005040719930548,1,,,right,1,0.9005040719930548,,,,,,,,,,,,,,,,,,,,,,1038,2019_Mar_08_1457,mf_amp_cond2,3.0.4,60.03128628210804,
vicissifude,&&&&&&&&&&&,right,nonword,,,,,,,,0,65,65,166,,,,,,,,,,,,,,,,,,,,,LDT,left,0.7170965299301315,0,,,left,0,0.7170965299301315,,,,,,,,,,,,,,,,,,,,,,1038,2019_Mar_08_1457,mf_amp_cond2,3.0.4,60.03128628210804,
trust,&&&&&,left,authority.virtue,,,,,,,,0,66,66,171,,,,,,,,,,,,,,,,,,,,,LDT,right,0.5170354011352174,0,,,right,0,0.5170354011352174,,,,,,,,,,,,,,,,,,,,,,1038,2019_Mar_08_1457,mf_amp_cond2,3.0.4,60.03128628210804,
safety,&&&&&&,left,care.virtue,,,,,,,,0,67,67,151,,,,,,,,,,,,,,,,,,,,,LDT,right,0.5836988178634783,0,,,right,0,0.5836988178634783,,,,,,,,,,,,,,,,,,,,,,1038,2019_Mar_08_1457,mf_amp_cond2,3.0.4,60.03128628210804,
chreams,&&&&&&&,right,nonword,,,,,,,,0,68,68,75,,,,,,,,,,,,,,,,,,,,,LDT,right,0.4837089846114395,1,,,right,1,0.4837089846114395,,,,,,,,,,,,,,,,,,,,,,1038,2019_Mar_08_1457,mf_amp_cond2,3.0.4,60.03128628210804,
useful,&&&&&&,left,authority.virtue,,,,,,,,0,69,69,173,,,,,,,,,,,,,,,,,,,,,LDT,right,0.36701360838196706,0,,,right,0,0.36701360838196706,,,,,,,,,,,,,,,,,,,,,,1038,2019_Mar_08_1457,mf_amp_cond2,3.0.4,60.03128628210804,
charges,&&&&&&&,left,fairness.vice,,,,,,,,0,70,70,48,,,,,,,,,,,,,,,,,,,,,LDT,right,0.3670046282786643,0,,,right,0,0.3670046282786643,,,,,,,,,,,,,,,,,,,,,,1038,2019_Mar_08_1457,mf_amp_cond2,3.0.4,60.03128628210804,
itself,&&&&&&,left,neutral,,,,,,,,0,71,71,29,,,,,,,,,,,,,,,,,,,,,LDT,right,0.4336834394489415,0,,,right,0,0.4336834394489415,,,,,,,,,,,,,,,,,,,,,,1038,2019_Mar_08_1457,mf_amp_cond2,3.0.4,60.03128628210804,
vurtain,&&&&&&&,right,nonword,,,,,,,,0,72,72,37,,,,,,,,,,,,,,,,,,,,,LDT,right,0.3503340435127029,1,,,right,1,0.3503340435127029,,,,,,,,,,,,,,,,,,,,,,1038,2019_Mar_08_1457,mf_amp_cond2,3.0.4,60.03128628210804,
latterly,&&&&&&&&,left,neutral,,,,,,,,0,73,73,43,,,,,,,,,,,,,,,,,,,,,LDT,right,0.9171332841797266,0,,,right,0,0.9171332841797266,,,,,,,,,,,,,,,,,,,,,,1038,2019_Mar_08_1457,mf_amp_cond2,3.0.4,60.03128628210804,
wherever,&&&&&&&&,left,neutral,,,,,,,,0,74,74,130,,,,,,,,,,,,,,,,,,,,,LDT,right,0.6337397574825445,0,,,right,0,0.6337397574825445,,,,,,,,,,,,,,,,,,,,,,1038,2019_Mar_08_1457,mf_amp_cond2,3.0.4,60.03128628210804,
saned,&&&&&,None,nonword,,,,,,,,0,75,75,36,,,,,,,,,,,,,,,,,,,,,LDT,right,0.6670927935629152,0,,,right,0,0.6670927935629152,,,,,,,,,,,,,,,,,,,,,,1038,2019_Mar_08_1457,mf_amp_cond2,3.0.4,60.03128628210804,
totalestic,&&&&&&&&&&,None,nonword,,,,,,,,0,76,76,133,,,,,,,,,,,,,,,,,,,,,LDT,right,0.6504154737340286,0,,,right,0,0.6504154737340286,,,,,,,,,,,,,,,,,,,,,,1038,2019_Mar_08_1457,mf_amp_cond2,3.0.4,60.03128628210804,
chared,&&&&&&,right,nonword,,,,,,,,0,77,77,31,,,,,,,,,,,,,,,,,,,,,LDT,right,0.5504355827288236,1,,,right,1,0.5504355827288236,,,,,,,,,,,,,,,,,,,,,,1038,2019_Mar_08_1457,mf_amp_cond2,3.0.4,60.03128628210804,
Daptist,&&&&&&&,right,nonword,,,,,,,,0,78,78,104,,,,,,,,,,,,,,,,,,,,,LDT,right,0.6337333431292791,1,,,right,1,0.6337333431292791,,,,,,,,,,,,,,,,,,,,,,1038,2019_Mar_08_1457,mf_amp_cond2,3.0.4,60.03128628210804,
there,&&&&&,left,neutral,,,,,,,,0,79,79,16,,,,,,,,,,,,,,,,,,,,,LDT,right,0.5170379668707028,0,,,right,0,0.5170379668707028,,,,,,,,,,,,,,,,,,,,,,1038,2019_Mar_08_1457,mf_amp_cond2,3.0.4,60.03128628210804,
terrorists,&&&&&&&&&&,left,fairness.vice,,,,,,,,0,80,80,101,,,,,,,,,,,,,,,,,,,,,LDT,right,0.46703166476800106,0,,,right,0,0.46703166476800106,,,,,,,,,,,,,,,,,,,,,,1038,2019_Mar_08_1457,mf_amp_cond2,3.0.4,60.03128628210804,
toward,&&&&&&,left,neutral,,,,,,,,0,81,81,96,,,,,,,,,,,,,,,,,,,,,LDT,left,1.5339734644512646,1,,,left,1,1.5339734644512646,,,,,,,,,,,,,,,,,,,,,,1038,2019_Mar_08_1457,mf_amp_cond2,3.0.4,60.03128628210804,
honstables,&&&&&&&&&&,right,nonword,,,,,,,,0,82,82,49,,,,,,,,,,,,,,,,,,,,,LDT,right,0.5003741171822185,1,,,right,1,0.5003741171822185,,,,,,,,,,,,,,,,,,,,,,1038,2019_Mar_08_1457,mf_amp_cond2,3.0.4,60.03128628210804,
baklara,&&&&&&&,right,nonword,,,,,,,,0,83,83,27,,,,,,,,,,,,,,,,,,,,,LDT,right,0.833802489854861,1,,,right,1,0.833802489854861,,,,,,,,,,,,,,,,,,,,,,1038,2019_Mar_08_1457,mf_amp_cond2,3.0.4,60.03128628210804,
ronviolence,&&&&&&&&&&&,right,nonword,,,,,,,,0,84,84,7,,,,,,,,,,,,,,,,,,,,,LDT,left,0.9171403399668634,0,,,left,0,0.9171403399668634,,,,,,,,,,,,,,,,,,,,,,1038,2019_Mar_08_1457,mf_amp_cond2,3.0.4,60.03128628210804,
emports,&&&&&&&,right,nonword,,,,,,,,0,85,85,123,,,,,,,,,,,,,,,,,,,,,LDT,right,0.5171120526792947,1,,,right,1,0.5171120526792947,,,,,,,,,,,,,,,,,,,,,,1038,2019_Mar_08_1457,mf_amp_cond2,3.0.4,60.03128628210804,
eight,&&&&&,left,neutral,,,,,,,,0,86,86,194,,,,,,,,,,,,,,,,,,,,,LDT,right,0.7837551358970813,0,,,right,0,0.7837551358970813,,,,,,,,,,,,,,,,,,,,,,1038,2019_Mar_08_1457,mf_amp_cond2,3.0.4,60.03128628210804,
riot,&&&&,left,authority.vice,,,,,,,,0,87,87,140,,,,,,,,,,,,,,,,,,,,,LDT,left,0.900466868741205,1,,,left,1,0.900466868741205,,,,,,,,,,,,,,,,,,,,,,1038,2019_Mar_08_1457,mf_amp_cond2,3.0.4,60.03128628210804,
been,&&&&,left,neutral,,,,,,,,0,88,88,137,,,,,,,,,,,,,,,,,,,,,LDT,right,1.0005205248016864,0,,,right,0,1.0005205248016864,,,,,,,,,,,,,,,,,,,,,,1038,2019_Mar_08_1457,mf_amp_cond2,3.0.4,60.03128628210804,
fighters,&&&&&&&&,left,authority.vice,,,,,,,,0,89,89,102,,,,,,,,,,,,,,,,,,,,,LDT,right,0.5337473584950203,0,,,right,0,0.5337473584950203,,,,,,,,,,,,,,,,,,,,,,1038,2019_Mar_08_1457,mf_amp_cond2,3.0.4,60.03128628210804,
pafer,&&&&&,right,nonword,,,,,,,,0,90,90,98,,,,,,,,,,,,,,,,,,,,,LDT,right,0.6004319425846916,1,,,right,1,0.6004319425846916,,,,,,,,,,,,,,,,,,,,,,1038,2019_Mar_08_1457,mf_amp_cond2,3.0.4,60.03128628210804,
wump,&&&&,right,nonword,,,,,,,,0,91,91,38,,,,,,,,,,,,,,,,,,,,,LDT,left,0.6837380416400265,0,,,left,0,0.6837380416400265,,,,,,,,,,,,,,,,,,,,,,1038,2019_Mar_08_1457,mf_amp_cond2,3.0.4,60.03128628210804,
civilians,&&&&&&&&&,left,care.vice,,,,,,,,0,92,92,33,,,,,,,,,,,,,,,,,,,,,LDT,right,0.4336991546297213,0,,,right,0,0.4336991546297213,,,,,,,,,,,,,,,,,,,,,,1038,2019_Mar_08_1457,mf_amp_cond2,3.0.4,60.03128628210804,
anyhow,&&&&&&,left,neutral,,,,,,,,0,93,93,186,,,,,,,,,,,,,,,,,,,,,LDT,right,0.4003188575152308,0,,,right,0,0.4003188575152308,,,,,,,,,,,,,,,,,,,,,,1038,2019_Mar_08_1457,mf_amp_cond2,3.0.4,60.03128628210804,
violations,&&&&&&&&&&,left,sanctity.vice,,,,,,,,0,94,94,64,,,,,,,,,,,,,,,,,,,,,LDT,right,0.5337082309415564,0,,,right,0,0.5337082309415564,,,,,,,,,,,,,,,,,,,,,,1038,2019_Mar_08_1457,mf_amp_cond2,3.0.4,60.03128628210804,
could,&&&&&,left,neutral,,,,,,,,0,95,95,114,,,,,,,,,,,,,,,,,,,,,LDT,right,0.4336917781183729,0,,,right,0,0.4336917781183729,,,,,,,,,,,,,,,,,,,,,,1038,2019_Mar_08_1457,mf_amp_cond2,3.0.4,60.03128628210804,
glacenta,&&&&&&&&,right,nonword,,,,,,,,0,96,96,76,,,,,,,,,,,,,,,,,,,,,LDT,left,1.0338235289382283,0,,,left,0,1.0338235289382283,,,,,,,,,,,,,,,,,,,,,,1038,2019_Mar_08_1457,mf_amp_cond2,3.0.4,60.03128628210804,
everything,&&&&&&&&&&,left,neutral,,,,,,,,0,97,97,59,,,,,,,,,,,,,,,,,,,,,LDT,left,0.8338040934468154,1,,,left,1,0.8338040934468154,,,,,,,,,,,,,,,,,,,,,,1038,2019_Mar_08_1457,mf_amp_cond2,3.0.4,60.03128628210804,
tislay,&&&&&&,right,nonword,,,,,,,,0,98,98,47,,,,,,,,,,,,,,,,,,,,,LDT,right,0.5335241389839211,1,,,right,1,0.5335241389839211,,,,,,,,,,,,,,,,,,,,,,1038,2019_Mar_08_1457,mf_amp_cond2,3.0.4,60.03128628210804,
also,&&&&,left,neutral,,,,,,,,0,99,99,191,,,,,,,,,,,,,,,,,,,,,LDT,right,0.8171450545196421,0,,,right,0,0.8171450545196421,,,,,,,,,,,,,,,,,,,,,,1038,2019_Mar_08_1457,mf_amp_cond2,3.0.4,60.03128628210804,
proached,&&&&&&&&,right,nonword,,,,,,,,0,100,100,187,,,,,,,,,,,,,,,,,,,,,LDT,right,0.6170880950521678,1,,,right,1,0.6170880950521678,,,,,,,,,,,,,,,,,,,,,,1038,2019_Mar_08_1457,mf_amp_cond2,3.0.4,60.03128628210804,
epigrach,&&&&&&&&,right,nonword,,,,,,,,0,101,101,1,,,,,,,,,,,,,,,,,,,,,LDT,right,0.6837944879516726,1,,,right,1,0.6837944879516726,,,,,,,,,,,,,,,,,,,,,,1038,2019_Mar_08_1457,mf_amp_cond2,3.0.4,60.03128628210804,
atson,&&&&&,right,nonword,,,,,,,,0,102,102,2,,,,,,,,,,,,,,,,,,,,,LDT,left,0.7671063599264016,0,,,left,0,0.7671063599264016,,,,,,,,,,,,,,,,,,,,,,1038,2019_Mar_08_1457,mf_amp_cond2,3.0.4,60.03128628210804,
encourage,&&&&&&&&&,left,authority.virtue,,,,,,,,0,103,103,71,,,,,,,,,,,,,,,,,,,,,LDT,left,0.7170974920736626,1,,,left,1,0.7170974920736626,,,,,,,,,,,,,,,,,,,,,,1038,2019_Mar_08_1457,mf_amp_cond2,3.0.4,60.03128628210804,
Cunday,&&&&&&,None,nonword,,,,,,,,0,104,104,169,,,,,,,,,,,,,,,,,,,,,LDT,right,0.6003973050683271,0,,,right,0,0.6003973050683271,,,,,,,,,,,,,,,,,,,,,,1038,2019_Mar_08_1457,mf_amp_cond2,3.0.4,60.03128628210804,
allears,&&&&&&&,right,nonword,,,,,,,,0,105,105,103,,,,,,,,,,,,,,,,,,,,,LDT,right,1.150526281693601,1,,,right,1,1.150526281693601,,,,,,,,,,,,,,,,,,,,,,1038,2019_Mar_08_1457,mf_amp_cond2,3.0.4,60.03128628210804,
strength,&&&&&&&&,left,sanctity.virtue,,,,,,,,0,106,106,174,,,,,,,,,,,,,,,,,,,,,LDT,right,0.40036472016072366,0,,,right,0,0.40036472016072366,,,,,,,,,,,,,,,,,,,,,,1038,2019_Mar_08_1457,mf_amp_cond2,3.0.4,60.03128628210804,
about,&&&&&,left,neutral,,,,,,,,0,107,107,195,,,,,,,,,,,,,,,,,,,,,LDT,right,0.40036087154294364,0,,,right,0,0.40036087154294364,,,,,,,,,,,,,,,,,,,,,,1038,2019_Mar_08_1457,mf_amp_cond2,3.0.4,60.03128628210804,
antral,&&&&&&,right,nonword,,,,,,,,0,108,108,11,,,,,,,,,,,,,,,,,,,,,LDT,right,0.5003712307370733,1,,,right,1,0.5003712307370733,,,,,,,,,,,,,,,,,,,,,,1038,2019_Mar_08_1457,mf_amp_cond2,3.0.4,60.03128628210804,
done,&&&&,left,neutral,,,,,,,,0,109,109,12,,,,,,,,,,,,,,,,,,,,,LDT,right,0.3836764959123684,0,,,right,0,0.3836764959123684,,,,,,,,,,,,,,,,,,,,,,1038,2019_Mar_08_1457,mf_amp_cond2,3.0.4,60.03128628210804,
injured,&&&&&&&,left,care.vice,,,,,,,,0,110,110,68,,,,,,,,,,,,,,,,,,,,,LDT,right,0.5670529283670476,0,,,right,0,0.5670529283670476,,,,,,,,,,,,,,,,,,,,,,1038,2019_Mar_08_1457,mf_amp_cond2,3.0.4,60.03128628210804,
myself,&&&&&&,left,neutral,,,,,,,,0,111,111,164,,,,,,,,,,,,,,,,,,,,,LDT,right,0.35034142002405133,0,,,right,0,0.35034142002405133,,,,,,,,,,,,,,,,,,,,,,1038,2019_Mar_08_1457,mf_amp_cond2,3.0.4,60.03128628210804,
fifty,&&&&&,left,neutral,,,,,,,,0,112,112,192,,,,,,,,,,,,,,,,,,,,,LDT,right,0.3836777787801111,0,,,right,0,0.3836777787801111,,,,,,,,,,,,,,,,,,,,,,1038,2019_Mar_08_1457,mf_amp_cond2,3.0.4,60.03128628210804,
hasks,&&&&&,right,nonword,,,,,,,,0,113,113,159,,,,,,,,,,,,,,,,,,,,,LDT,right,0.33368719184363727,1,,,right,1,0.33368719184363727,,,,,,,,,,,,,,,,,,,,,,1038,2019_Mar_08_1457,mf_amp_cond2,3.0.4,60.03128628210804,
neneficence,&&&&&&&&&&&,right,nonword,,,,,,,,0,114,114,72,,,,,,,,,,,,,,,,,,,,,LDT,left,0.4504502395284362,0,,,left,0,0.4504502395284362,,,,,,,,,,,,,,,,,,,,,,1038,2019_Mar_08_1457,mf_amp_cond2,3.0.4,60.03128628210804,
praise,&&&&&&,left,authority.virtue,,,,,,,,0,115,115,198,,,,,,,,,,,,,,,,,,,,,LDT,left,0.3670043075690046,1,,,left,1,0.3670043075690046,,,,,,,,,,,,,,,,,,,,,,1038,2019_Mar_08_1457,mf_amp_cond2,3.0.4,60.03128628210804,
hatigue,&&&&&&&,right,nonword,,,,,,,,0,116,116,83,,,,,,,,,,,,,,,,,,,,,LDT,right,0.10027687558613252,1,,,right,1,0.10027687558613252,,,,,,,,,,,,,,,,,,,,,,1038,2019_Mar_08_1457,mf_amp_cond2,3.0.4,60.03128628210804,
sowntrodden,&&&&&&&&&&&,right,nonword,,,,,,,,0,117,117,125,,,,,,,,,,,,,,,,,,,,,LDT,right,0.36702098487876356,1,,,right,1,0.36702098487876356,,,,,,,,,,,,,,,,,,,,,,1038,2019_Mar_08_1457,mf_amp_cond2,3.0.4,60.03128628210804,
tenuflect,&&&&&&&&&,right,nonword,,,,,,,,0,118,118,65,,,,,,,,,,,,,,,,,,,,,LDT,right,0.6172715455759317,1,,,right,1,0.6172715455759317,,,,,,,,,,,,,,,,,,,,,,1038,2019_Mar_08_1457,mf_amp_cond2,3.0.4,60.03128628210804,
even,&&&&,left,neutral,,,,,,,,0,119,119,196,,,,,,,,,,,,,,,,,,,,,LDT,right,0.4170263248233823,0,,,right,0,0.4170263248233823,,,,,,,,,,,,,,,,,,,,,,1038,2019_Mar_08_1457,mf_amp_cond2,3.0.4,60.03128628210804,
lies,&&&&,left,fairness.vice,,,,,,,,0,120,120,116,,,,,,,,,,,,,,,,,,,,,LDT,right,0.6837547189643374,0,,,right,0,0.6837547189643374,,,,,,,,,,,,,,,,,,,,,,1038,2019_Mar_08_1457,mf_amp_cond2,3.0.4,60.03128628210804,
Loorish,&&&&&&&,right,nonword,,,,,,,,0,121,121,168,,,,,,,,,,,,,,,,,,,,,LDT,right,0.8171181142242858,1,,,right,1,0.8171181142242858,,,,,,,,,,,,,,,,,,,,,,1038,2019_Mar_08_1457,mf_amp_cond2,3.0.4,60.03128628210804,
hereby,&&&&&&,left,neutral,,,,,,,,0,122,122,153,,,,,,,,,,,,,,,,,,,,,LDT,right,0.43372288772661705,0,,,right,0,0.43372288772661705,,,,,,,,,,,,,,,,,,,,,,1038,2019_Mar_08_1457,mf_amp_cond2,3.0.4,60.03128628210804,
Lacedonia,&&&&&&&&&,right,nonword,,,,,,,,0,123,123,57,,,,,,,,,,,,,,,,,,,,,LDT,right,0.4003515707299812,1,,,right,1,0.4003515707299812,,,,,,,,,,,,,,,,,,,,,,1038,2019_Mar_08_1457,mf_amp_cond2,3.0.4,60.03128628210804,
troubla,&&&&&&&,right,nonword,,,,,,,,0,124,124,119,,,,,,,,,,,,,,,,,,,,,LDT,right,0.3670104011980584,1,,,right,1,0.3670104011980584,,,,,,,,,,,,,,,,,,,,,,1038,2019_Mar_08_1457,mf_amp_cond2,3.0.4,60.03128628210804,
black,&&&&&,left,loyalty.vice,,,,,,,,0,125,125,147,,,,,,,,,,,,,,,,,,,,,LDT,right,0.5837360211153282,0,,,right,0,0.5837360211153282,,,,,,,,,,,,,,,,,,,,,,1038,2019_Mar_08_1457,mf_amp_cond2,3.0.4,60.03128628210804,
both,&&&&,left,neutral,,,,,,,,0,126,126,30,,,,,,,,,,,,,,,,,,,,,LDT,right,0.5337255496851867,0,,,right,0,0.5337255496851867,,,,,,,,,,,,,,,,,,,,,,1038,2019_Mar_08_1457,mf_amp_cond2,3.0.4,60.03128628210804,
fostet,&&&&&&,right,nonword,,,,,,,,0,127,127,39,,,,,,,,,,,,,,,,,,,,,LDT,right,0.6670918314193841,1,,,right,1,0.6670918314193841,,,,,,,,,,,,,,,,,,,,,,1038,2019_Mar_08_1457,mf_amp_cond2,3.0.4,60.03128628210804,
care,&&&&,left,care.virtue,,,,,,,,0,128,128,46,,,,,,,,,,,,,,,,,,,,,LDT,right,0.5336941193527309,0,,,right,0,0.5336941193527309,,,,,,,,,,,,,,,,,,,,,,1038,2019_Mar_08_1457,mf_amp_cond2,3.0.4,60.03128628210804,
fornicalion,&&&&&&&&&&&,right,nonword,,,,,,,,0,129,129,199,,,,,,,,,,,,,,,,,,,,,LDT,right,0.5170427776465658,1,,,right,1,0.5170427776465658,,,,,,,,,,,,,,,,,,,,,,1038,2019_Mar_08_1457,mf_amp_cond2,3.0.4,60.03128628210804,
refused,&&&&&&&,left,authority.vice,,,,,,,,0,130,130,145,,,,,,,,,,,,,,,,,,,,,LDT,right,0.617053778260015,0,,,right,0,0.617053778260015,,,,,,,,,,,,,,,,,,,,,,1038,2019_Mar_08_1457,mf_amp_cond2,3.0.4,60.03128628210804,
tabin,&&&&&,right,nonword,,,,,,,,0,131,131,190,,,,,,,,,,,,,,,,,,,,,LDT,right,0.567082755107549,1,,,right,1,0.567082755107549,,,,,,,,,,,,,,,,,,,,,,1038,2019_Mar_08_1457,mf_amp_cond2,3.0.4,60.03128628210804,
Boeinf,&&&&&&,right,nonword,,,,,,,,0,132,132,94,,,,,,,,,,,,,,,,,,,,,LDT,right,0.5504237161803758,1,,,right,1,0.5504237161803758,,,,,,,,,,,,,,,,,,,,,,1038,2019_Mar_08_1457,mf_amp_cond2,3.0.4,60.03128628210804,
accused,&&&&&&&,left,fairness.vice,,,,,,,,0,133,133,88,,,,,,,,,,,,,,,,,,,,,LDT,right,0.5502457178663462,0,,,right,0,0.5502457178663462,,,,,,,,,,,,,,,,,,,,,,1038,2019_Mar_08_1457,mf_amp_cond2,3.0.4,60.03128628210804,
noped,&&&&&,right,nonword,,,,,,,,0,134,134,162,,,,,,,,,,,,,,,,,,,,,LDT,right,0.600386721387622,1,,,right,1,0.600386721387622,,,,,,,,,,,,,,,,,,,,,,1038,2019_Mar_08_1457,mf_amp_cond2,3.0.4,60.03128628210804,
iptervention,&&&&&&&&&&&&,right,nonword,,,,,,,,0,135,135,18,,,,,,,,,,,,,,,,,,,,,LDT,right,0.3670046282786643,1,,,right,1,0.3670046282786643,,,,,,,,,,,,,,,,,,,,,,1038,2019_Mar_08_1457,mf_amp_cond2,3.0.4,60.03128628210804,
prosecution,&&&&&&&&&&&,left,authority.vice,,,,,,,,0,136,136,45,,,,,,,,,,,,,,,,,,,,,LDT,left,0.9503894635272445,1,,,left,1,0.9503894635272445,,,,,,,,,,,,,,,,,,,,,,1038,2019_Mar_08_1457,mf_amp_cond2,3.0.4,60.03128628210804,
rivernoat,&&&&&&&&&,right,nonword,,,,,,,,0,137,137,126,,,,,,,,,,,,,,,,,,,,,LDT,left,0.36704151080630254,0,,,left,0,0.36704151080630254,,,,,,,,,,,,,,,,,,,,,,1038,2019_Mar_08_1457,mf_amp_cond2,3.0.4,60.03128628210804,
precificity,&&&&&&&&&&&,right,nonword,,,,,,,,0,138,138,189,,,,,,,,,,,,,,,,,,,,,LDT,left,0.4837125125195598,0,,,left,0,0.4837125125195598,,,,,,,,,,,,,,,,,,,,,,1038,2019_Mar_08_1457,mf_amp_cond2,3.0.4,60.03128628210804,
mostly,&&&&&&,left,neutral,,,,,,,,0,139,139,52,,,,,,,,,,,,,,,,,,,,,LDT,left,0.8004472087486647,1,,,left,1,0.8004472087486647,,,,,,,,,,,,,,,,,,,,,,1038,2019_Mar_08_1457,mf_amp_cond2,3.0.4,60.03128628210804,
health,&&&&&&,left,care.virtue,,,,,,,,0,140,140,14,,,,,,,,,,,,,,,,,,,,,LDT,right,0.9671681301551871,0,,,right,0,0.9671681301551871,,,,,,,,,,,,,,,,,,,,,,1038,2019_Mar_08_1457,mf_amp_cond2,3.0.4,60.03128628210804,
pullness,&&&&&&&&,right,nonword,,,,,,,,0,141,141,128,,,,,,,,,,,,,,,,,,,,,LDT,right,0.5503900408220943,1,,,right,1,0.5503900408220943,,,,,,,,,,,,,,,,,,,,,,1038,2019_Mar_08_1457,mf_amp_cond2,3.0.4,60.03128628210804,
somehow,&&&&&&&,left,neutral,,,,,,,,0,142,142,84,,,,,,,,,,,,,,,,,,,,,LDT,right,0.6670905485516414,0,,,right,0,0.6670905485516414,,,,,,,,,,,,,,,,,,,,,,1038,2019_Mar_08_1457,mf_amp_cond2,3.0.4,60.03128628210804,
shot,&&&&,left,care.vice,,,,,,,,0,143,143,23,,,,,,,,,,,,,,,,,,,,,LDT,right,0.9171470750297885,0,,,right,0,0.9171470750297885,,,,,,,,,,,,,,,,,,,,,,1038,2019_Mar_08_1457,mf_amp_cond2,3.0.4,60.03128628210804,
noone,&&&&&,left,neutral,,,,,,,,0,144,144,176,,,,,,,,,,,,,,,,,,,,,LDT,right,0.6670177456253441,0,,,right,0,0.6670177456253441,,,,,,,,,,,,,,,,,,,,,,1038,2019_Mar_08_1457,mf_amp_cond2,3.0.4,60.03128628210804,
chadows,&&&&&&&,right,nonword,,,,,,,,0,145,145,136,,,,,,,,,,,,,,,,,,,,,LDT,right,0.35034302360145375,1,,,right,1,0.35034302360145375,,,,,,,,,,,,,,,,,,,,,,1038,2019_Mar_08_1457,mf_amp_cond2,3.0.4,60.03128628210804,
conspiracy,&&&&&&&&&&,left,sanctity.vice,,,,,,,,0,146,146,25,,,,,,,,,,,,,,,,,,,,,LDT,right,0.4003496464283671,0,,,right,0,0.4003496464283671,,,,,,,,,,,,,,,,,,,,,,1038,2019_Mar_08_1457,mf_amp_cond2,3.0.4,60.03128628210804,
discovars,&&&&&&&&&,right,nonword,,,,,,,,0,147,147,86,,,,,,,,,,,,,,,,,,,,,LDT,right,0.5170616999967024,1,,,right,1,0.5170616999967024,,,,,,,,,,,,,,,,,,,,,,1038,2019_Mar_08_1457,mf_amp_cond2,3.0.4,60.03128628210804,
sonvoy,&&&&&&,None,nonword,,,,,,,,0,148,148,28,,,,,,,,,,,,,,,,,,,,,LDT,right,0.4170199104846688,0,,,right,0,0.4170199104846688,,,,,,,,,,,,,,,,,,,,,,1038,2019_Mar_08_1457,mf_amp_cond2,3.0.4,60.03128628210804,
ning,&&&&,right,nonword,,,,,,,,0,149,149,74,,,,,,,,,,,,,,,,,,,,,LDT,right,0.45036941867147107,1,,,right,1,0.45036941867147107,,,,,,,,,,,,,,,,,,,,,,1038,2019_Mar_08_1457,mf_amp_cond2,3.0.4,60.03128628210804,
great,&&&&&,left,loyalty.virtue,,,,,,,,0,150,150,78,,,,,,,,,,,,,,,,,,,,,LDT,right,0.4502398487238679,0,,,right,0,0.4502398487238679,,,,,,,,,,,,,,,,,,,,,,1038,2019_Mar_08_1457,mf_amp_cond2,3.0.4,60.03128628210804,
hand,&&&&,left,sanctity.virtue,,,,,,,,0,151,151,184,,,,,,,,,,,,,,,,,,,,,LDT,right,0.46707784812315367,0,,,right,0,0.46707784812315367,,,,,,,,,,,,,,,,,,,,,,1038,2019_Mar_08_1457,mf_amp_cond2,3.0.4,60.03128628210804,
actively,&&&&&&&&,left,authority.virtue,,,,,,,,0,152,152,34,,,,,,,,,,,,,,,,,,,,,LDT,left,0.35033692997239996,1,,,left,1,0.35033692997239996,,,,,,,,,,,,,,,,,,,,,,1038,2019_Mar_08_1457,mf_amp_cond2,3.0.4,60.03128628210804,
army,&&&&,left,loyalty.vice,,,,,,,,0,153,153,157,,,,,,,,,,,,,,,,,,,,,LDT,left,1.1005170931312023,1,,,left,1,1.1005170931312023,,,,,,,,,,,,,,,,,,,,,,1038,2019_Mar_08_1457,mf_amp_cond2,3.0.4,60.03128628210804,
carvels,&&&&&&&,None,nonword,,,,,,,,0,154,154,138,,,,,,,,,,,,,,,,,,,,,LDT,right,0.6503910991887096,0,,,right,0,0.6503910991887096,,,,,,,,,,,,,,,,,,,,,,1038,2019_Mar_08_1457,mf_amp_cond2,3.0.4,60.03128628210804,
towards,&&&&&&&,left,neutral,,,,,,,,0,155,155,42,,,,,,,,,,,,,,,,,,,,,LDT,left,0.983830376266269,1,,,left,1,0.983830376266269,,,,,,,,,,,,,,,,,,,,,,1038,2019_Mar_08_1457,mf_amp_cond2,3.0.4,60.03128628210804,
with,&&&&,left,neutral,,,,,,,,0,156,156,115,,,,,,,,,,,,,,,,,,,,,LDT,right,0.6003944186086301,0,,,right,0,0.6003944186086301,,,,,,,,,,,,,,,,,,,,,,1038,2019_Mar_08_1457,mf_amp_cond2,3.0.4,60.03128628210804,
free,&&&&,left,fairness.virtue,,,,,,,,0,157,157,50,,,,,,,,,,,,,,,,,,,,,LDT,left,1.083849394824938,1,,,left,1,1.083849394824938,,,,,,,,,,,,,,,,,,,,,,1038,2019_Mar_08_1457,mf_amp_cond2,3.0.4,60.03128628210804,
touls,&&&&&,right,nonword,,,,,,,,0,158,158,127,,,,,,,,,,,,,,,,,,,,,LDT,right,0.48369679733878,1,,,right,1,0.48369679733878,,,,,,,,,,,,,,,,,,,,,,1038,2019_Mar_08_1457,mf_amp_cond2,3.0.4,60.03128628210804,
nonobservalt,&&&&&&&&&&&&,right,nonword,,,,,,,,0,159,159,177,,,,,,,,,,,,,,,,,,,,,LDT,left,0.7504351337265689,0,,,left,0,0.7504351337265689,,,,,,,,,,,,,,,,,,,,,,1038,2019_Mar_08_1457,mf_amp_cond2,3.0.4,60.03128628210804,
whither,&&&&&&&,left,neutral,,,,,,,,0,160,160,69,,,,,,,,,,,,,,,,,,,,,LDT,left,0.5003776450757869,1,,,left,1,0.5003776450757869,,,,,,,,,,,,,,,,,,,,,,1038,2019_Mar_08_1457,mf_amp_cond2,3.0.4,60.03128628210804,
hefurbished,&&&&&&&&&&&,right,nonword,,,,,,,,0,161,161,82,,,,,,,,,,,,,,,,,,,,,LDT,left,0.5003731550241355,0,,,left,0,0.5003731550241355,,,,,,,,,,,,,,,,,,,,,,1038,2019_Mar_08_1457,mf_amp_cond2,3.0.4,60.03128628210804,
elduringly,&&&&&&&&&&,right,nonword,,,,,,,,0,162,162,193,,,,,,,,,,,,,,,,,,,,,LDT,left,0.4003297619346995,0,,,left,0,0.4003297619346995,,,,,,,,,,,,,,,,,,,,,,1038,2019_Mar_08_1457,mf_amp_cond2,3.0.4,60.03128628210804,
nuckheap,&&&&&&&&,right,nonword,,,,,,,,0,163,163,188,,,,,,,,,,,,,,,,,,,,,LDT,right,0.4170240797975566,1,,,right,1,0.4170240797975566,,,,,,,,,,,,,,,,,,,,,,1038,2019_Mar_08_1457,mf_amp_cond2,3.0.4,60.03128628210804,
brotesque,&&&&&&&&&,right,nonword,,,,,,,,0,164,164,24,,,,,,,,,,,,,,,,,,,,,LDT,left,0.350360342359636,0,,,left,0,0.350360342359636,,,,,,,,,,,,,,,,,,,,,,1038,2019_Mar_08_1457,mf_amp_cond2,3.0.4,60.03128628210804,
anything,&&&&&&&&,left,neutral,,,,,,,,0,165,165,107,,,,,,,,,,,,,,,,,,,,,LDT,left,0.38371722705778666,1,,,left,1,0.38371722705778666,,,,,,,,,,,,,,,,,,,,,,1038,2019_Mar_08_1457,mf_amp_cond2,3.0.4,60.03128628210804,
suggists,&&&&&&&&,right,nonword,,,,,,,,0,166,166,19,,,,,,,,,,,,,,,,,,,,,LDT,left,0.4003749831172172,0,,,left,0,0.4003749831172172,,,,,,,,,,,,,,,,,,,,,,1038,2019_Mar_08_1457,mf_amp_cond2,3.0.4,60.03128628210804,
hence,&&&&&,left,neutral,,,,,,,,0,167,167,161,,,,,,,,,,,,,,,,,,,,,LDT,left,0.7170885119849117,1,,,left,1,0.7170885119849117,,,,,,,,,,,,,,,,,,,,,,1038,2019_Mar_08_1457,mf_amp_cond2,3.0.4,60.03128628210804,
crinking,&&&&&&&&,right,nonword,,,,,,,,0,168,168,85,,,,,,,,,,,,,,,,,,,,,LDT,left,0.5003737964725588,0,,,left,0,0.5003737964725588,,,,,,,,,,,,,,,,,,,,,,1038,2019_Mar_08_1457,mf_amp_cond2,3.0.4,60.03128628210804,
respect,&&&&&&&,left,sanctity.virtue,,,,,,,,0,169,169,89,,,,,,,,,,,,,,,,,,,,,LDT,left,0.5003702685644384,1,,,left,1,0.5003702685644384,,,,,,,,,,,,,,,,,,,,,,1038,2019_Mar_08_1457,mf_amp_cond2,3.0.4,60.03128628210804,
halaise,&&&&&&&,None,nonword,,,,,,,,0,170,170,0,,,,,,,,,,,,,,,,,,,,,LDT,right,0.6670636082562851,0,,,right,0,0.6670636082562851,,,,,,,,,,,,,,,,,,,,,,1038,2019_Mar_08_1457,mf_amp_cond2,3.0.4,60.03128628210804,
supervuned,&&&&&&&&&&,right,nonword,,,,,,,,0,171,171,197,,,,,,,,,,,,,,,,,,,,,LDT,left,0.41704364359611645,0,,,left,0,0.41704364359611645,,,,,,,,,,,,,,,,,,,,,,1038,2019_Mar_08_1457,mf_amp_cond2,3.0.4,60.03128628210804,
amount,&&&&&&,left,neutral,,,,,,,,0,172,172,77,,,,,,,,,,,,,,,,,,,,,LDT,left,0.7671211129345465,1,,,left,1,0.7671211129345465,,,,,,,,,,,,,,,,,,,,,,1038,2019_Mar_08_1457,mf_amp_cond2,3.0.4,60.03128628210804,
imebreaker,&&&&&&&&&&,right,nonword,,,,,,,,0,173,173,3,,,,,,,,,,,,,,,,,,,,,LDT,left,0.5337111174012534,0,,,left,0,0.5337111174012534,,,,,,,,,,,,,,,,,,,,,,1038,2019_Mar_08_1457,mf_amp_cond2,3.0.4,60.03128628210804,
faith,&&&&&,left,sanctity.virtue,,,,,,,,0,174,174,100,,,,,,,,,,,,,,,,,,,,,LDT,right,0.7004259451641701,0,,,right,0,0.7004259451641701,,,,,,,,,,,,,,,,,,,,,,1038,2019_Mar_08_1457,mf_amp_cond2,3.0.4,60.03128628210804,
good,&&&&,left,care.virtue,,,,,,,,0,175,175,26,,,,,,,,,,,,,,,,,,,,,LDT,right,0.4337065311265178,0,,,right,0,0.4337065311265178,,,,,,,,,,,,,,,,,,,,,,1038,2019_Mar_08_1457,mf_amp_cond2,3.0.4,60.03128628210804,
cromiscuity,&&&&&&&&&&&,right,nonword,,,,,,,,0,176,176,150,,,,,,,,,,,,,,,,,,,,,LDT,right,0.6671235824614996,1,,,right,1,0.6671235824614996,,,,,,,,,,,,,,,,,,,,,,1038,2019_Mar_08_1457,mf_amp_cond2,3.0.4,60.03128628210804,
shoirmaster,&&&&&&&&&&&,None,nonword,,,,,,,,0,177,177,80,,,,,,,,,,,,,,,,,,,,,LDT,right,0.3836909282108536,0,,,right,0,0.3836909282108536,,,,,,,,,,,,,,,,,,,,,,1038,2019_Mar_08_1457,mf_amp_cond2,3.0.4,60.03128628210804,
neputized,&&&&&&&&&,right,nonword,,,,,,,,0,178,178,131,,,,,,,,,,,,,,,,,,,,,LDT,left,0.4837256619503023,0,,,left,0,0.4837256619503023,,,,,,,,,,,,,,,,,,,,,,1038,2019_Mar_08_1457,mf_amp_cond2,3.0.4,60.03128628210804,
failure,&&&&&&&,left,loyalty.vice,,,,,,,,0,179,179,121,,,,,,,,,,,,,,,,,,,,,LDT,left,0.35035296584828757,1,,,left,1,0.35035296584828757,,,,,,,,,,,,,,,,,,,,,,1038,2019_Mar_08_1457,mf_amp_cond2,3.0.4,60.03128628210804,
troops,&&&&&&,left,loyalty.vice,,,,,,,,0,180,180,61,,,,,,,,,,,,,,,,,,,,,LDT,left,0.6670357058319496,1,,,left,1,0.6670357058319496,,,,,,,,,,,,,,,,,,,,,,1038,2019_Mar_08_1457,mf_amp_cond2,3.0.4,60.03128628210804,
couldnt,&&&&&&&,left,neutral,,,,,,,,0,181,181,181,,,,,,,,,,,,,,,,,,,,,LDT,left,0.6337776021682657,1,,,left,1,0.6337776021682657,,,,,,,,,,,,,,,,,,,,,,1038,2019_Mar_08_1457,mf_amp_cond2,3.0.4,60.03128628210804,
forepo,&&&&&&,right,nonword,,,,,,,,0,182,182,58,,,,,,,,,,,,,,,,,,,,,LDT,left,0.6337429646664532,0,,,left,0,0.6337429646664532,,,,,,,,,,,,,,,,,,,,,,1038,2019_Mar_08_1457,mf_amp_cond2,3.0.4,60.03128628210804,
loyalty,&&&&&&&,left,loyalty.virtue,,,,,,,,0,183,183,179,,,,,,,,,,,,,,,,,,,,,LDT,right,0.8838075090898201,0,,,right,0,0.8838075090898201,,,,,,,,,,,,,,,,,,,,,,1038,2019_Mar_08_1457,mf_amp_cond2,3.0.4,60.03128628210804,
therefore,&&&&&&&&&,left,neutral,,,,,,,,0,184,184,93,,,,,,,,,,,,,,,,,,,,,LDT,right,0.33371605644060764,0,,,right,0,0.33371605644060764,,,,,,,,,,,,,,,,,,,,,,1038,2019_Mar_08_1457,mf_amp_cond2,3.0.4,60.03128628210804,
erdest,&&&&&&,right,nonword,,,,,,,,0,185,185,182,,,,,,,,,,,,,,,,,,,,,LDT,right,0.7336779551842483,1,,,right,1,0.7336779551842483,,,,,,,,,,,,,,,,,,,,,,1038,2019_Mar_08_1457,mf_amp_cond2,3.0.4,60.03128628210804,
front,&&&&&,left,neutral,,,,,,,,0,186,186,55,,,,,,,,,,,,,,,,,,,,,LDT,right,0.9004752073960844,0,,,right,0,0.9004752073960844,,,,,,,,,,,,,,,,,,,,,,1038,2019_Mar_08_1457,mf_amp_cond2,3.0.4,60.03128628210804,
forty,&&&&&,left,neutral,,,,,,,,0,187,187,112,,,,,,,,,,,,,,,,,,,,,LDT,right,0.650440489713219,0,,,right,0,0.650440489713219,,,,,,,,,,,,,,,,,,,,,,1038,2019_Mar_08_1457,mf_amp_cond2,3.0.4,60.03128628210804,
seem,&&&&,left,neutral,,,,,,,,0,188,188,160,,,,,,,,,,,,,,,,,,,,,LDT,left,0.500382455837098,1,,,left,1,0.500382455837098,,,,,,,,,,,,,,,,,,,,,,1038,2019_Mar_08_1457,mf_amp_cond2,3.0.4,60.03128628210804,
whereafter,&&&&&&&&&&,left,neutral,,,,,,,,0,189,189,185,,,,,,,,,,,,,,,,,,,,,LDT,right,0.3003511537972372,0,,,right,0,0.3003511537972372,,,,,,,,,,,,,,,,,,,,,,1038,2019_Mar_08_1457,mf_amp_cond2,3.0.4,60.03128628210804,
seachwear,&&&&&&&&&,right,nonword,,,,,,,,0,190,190,117,,,,,,,,,,,,,,,,,,,,,LDT,right,0.6837938465178013,1,,,right,1,0.6837938465178013,,,,,,,,,,,,,,,,,,,,,,1038,2019_Mar_08_1457,mf_amp_cond2,3.0.4,60.03128628210804,
further,&&&&&&&,left,neutral,,,,,,,,0,191,191,32,,,,,,,,,,,,,,,,,,,,,LDT,right,0.4837160403985763,0,,,right,0,0.4837160403985763,,,,,,,,,,,,,,,,,,,,,,1038,2019_Mar_08_1457,mf_amp_cond2,3.0.4,60.03128628210804,
baladroit,&&&&&&&&&,right,nonword,,,,,,,,0,192,192,143,,,,,,,,,,,,,,,,,,,,,LDT,left,0.5670750578865409,0,,,left,0,0.5670750578865409,,,,,,,,,,,,,,,,,,,,,,1038,2019_Mar_08_1457,mf_amp_cond2,3.0.4,60.03128628210804,
presentkess,&&&&&&&&&&&,right,nonword,,,,,,,,0,193,193,146,,,,,,,,,,,,,,,,,,,,,LDT,left,0.28371777228312567,0,,,left,0,0.28371777228312567,,,,,,,,,,,,,,,,,,,,,,1038,2019_Mar_08_1457,mf_amp_cond2,3.0.4,60.03128628210804,
were,&&&&,left,neutral,,,,,,,,0,194,194,149,,,,,,,,,,,,,,,,,,,,,LDT,right,0.7004262658883817,0,,,right,0,0.7004262658883817,,,,,,,,,,,,,,,,,,,,,,1038,2019_Mar_08_1457,mf_amp_cond2,3.0.4,60.03128628210804,
sliptery,&&&&&&&&,right,nonword,,,,,,,,0,195,195,142,,,,,,,,,,,,,,,,,,,,,LDT,left,0.6837601711595198,0,,,left,0,0.6837601711595198,,,,,,,,,,,,,,,,,,,,,,1038,2019_Mar_08_1457,mf_amp_cond2,3.0.4,60.03128628210804,
stindig,&&&&&&&,right,nonword,,,,,,,,0,196,196,91,,,,,,,,,,,,,,,,,,,,,LDT,left,1.0505091874365462,0,,,left,0,1.0505091874365462,,,,,,,,,,,,,,,,,,,,,,1038,2019_Mar_08_1457,mf_amp_cond2,3.0.4,60.03128628210804,
pulge,&&&&&,right,nonword,,,,,,,,0,197,197,124,,,,,,,,,,,,,,,,,,,,,LDT,right,0.6170794356730767,1,,,right,1,0.6170794356730767,,,,,,,,,,,,,,,,,,,,,,1038,2019_Mar_08_1457,mf_amp_cond2,3.0.4,60.03128628210804,
aubos,&&&&&,right,nonword,,,,,,,,0,198,198,63,,,,,,,,,,,,,,,,,,,,,LDT,right,0.8671321135479957,1,,,right,1,0.8671321135479957,,,,,,,,,,,,,,,,,,,,,,1038,2019_Mar_08_1457,mf_amp_cond2,3.0.4,60.03128628210804,
divility,&&&&&&&&,right,nonword,,,,,,,,0,199,199,108,,,,,,,,,,,,,,,,,,,,,LDT,left,0.9505010732827941,0,,,left,0,0.9505010732827941,,,,,,,,,,,,,,,,,,,,,,1038,2019_Mar_08_1457,mf_amp_cond2,3.0.4,60.03128628210804,
,,,,,,,,,,,,,,,,,,,,,,,,,,,,,,,,,,,,,,,,,,,,6,8.804,,,,,,,,,,,,,,,,,,,,1038,2019_Mar_08_1457,mf_amp_cond2,3.0.4,60.03128628210804,
,,,,,,,,,,,,,,,,,,,,,,,,,,,,,,,,,,,,,,,,,,,,,,right,1.750702291566995,,,,,,,,,,,,,,,,,,1038,2019_Mar_08_1457,mf_amp_cond2,3.0.4,60.03128628210804,
car,&&&&&&&&,,,cemtuper,,,,,,,,,,,0,0,0,0,,,,,,,,,,,,,,,,,AMP_prac,right,2.934332732402254,,,,,,,,,,,right,2.934332732402254,,,,,,,,,,,,,,,,1038,2019_Mar_08_1457,mf_amp_cond2,3.0.4,60.03128628210804,
scarf,&&&&&&&&,,,bisebell,,,,,,,,,,,0,1,1,3,,,,,,,,,,,,,,,,,AMP_prac,right,1.1005677665234543,,,,,,,,,,,right,1.1005677665234543,,,,,,,,,,,,,,,,1038,2019_Mar_08_1457,mf_amp_cond2,3.0.4,60.03128628210804,
banana,&&&&&&,,,kacket,,,,,,,,,,,0,2,2,1,,,,,,,,,,,,,,,,,AMP_prac,right,2.2341829251818126,,,,,,,,,,,right,2.2341829251818126,,,,,,,,,,,,,,,,1038,2019_Mar_08_1457,mf_amp_cond2,3.0.4,60.03128628210804,
keyboard,&&&&,,,senk,,,,,,,,,,,0,3,3,2,,,,,,,,,,,,,,,,,AMP_prac,right,1.1338858443778008,,,,,,,,,,,right,1.1338858443778008,,,,,,,,,,,,,,,,1038,2019_Mar_08_1457,mf_amp_cond2,3.0.4,60.03128628210804,
,,,,,,,,,,,,,,,,,,,,,,,,,,,,,,,,,,,,,,,,,,,,,,,,,,right,0.8671337171545019,,,,,,,,,,,,,,1038,2019_Mar_08_1457,mf_amp_cond2,3.0.4,60.03128628210804,
ability,&&&&&&&&&&,left,authority.virtue,ammessment,,,,,,,,,,,,,,,0,0,0,215,,,,,,,,,,,,,AMP,right,0.9838454499986256,0,,,,,,,,,,,,,,right,0,0.9838454499986256,,,,,,,,,,,1038,2019_Mar_08_1457,mf_amp_cond2,3.0.4,60.03128628210804,
disregord,&&&,None,nonword,asn,,,,,,,,,,,,,,,0,1,1,39,,,,,,,,,,,,,AMP,left,0.7504283986490918,0,,,,,,,,,,,,,,left,0,0.7504283986490918,,,,,,,,,,,1038,2019_Mar_08_1457,mf_amp_cond2,3.0.4,60.03128628210804,
arrests,&&&&&&&&&&,right,authority.vice,clattening,,,,,,,,,,,,,,,0,2,2,86,,,,,,,,,,,,,AMP,right,0.5170398911868688,1,,,,,,,,,,,,,,right,1,0.5170398911868688,,,,,,,,,,,1038,2019_Mar_08_1457,mf_amp_cond2,3.0.4,60.03128628210804,
penalty,&&&&&&&&&,right,authority.vice,fangsters,,,,,,,,,,,,,,,0,3,3,155,,,,,,,,,,,,,AMP,left,0.900468793042819,0,,,,,,,,,,,,,,left,0,0.900468793042819,,,,,,,,,,,1038,2019_Mar_08_1457,mf_amp_cond2,3.0.4,60.03128628210804,
compassion,&&&&&,left,care.virtue,lenon,,,,,,,,,,,,,,,0,4,4,282,,,,,,,,,,,,,AMP,right,0.5837219095410546,0,,,,,,,,,,,,,,right,0,0.5837219095410546,,,,,,,,,,,1038,2019_Mar_08_1457,mf_amp_cond2,3.0.4,60.03128628210804,
war,&&&&&&&&&&&&,right,sanctity.vice,quarterbocks,,,,,,,,,,,,,,,0,5,5,195,,,,,,,,,,,,,AMP,left,0.5837607163848588,0,,,,,,,,,,,,,,left,0,0.5837607163848588,,,,,,,,,,,1038,2019_Mar_08_1457,mf_amp_cond2,3.0.4,60.03128628210804,
rejected,&&&&&&&&&,right,authority.vice,taxpayung,,,,,,,,,,,,,,,0,6,6,31,,,,,,,,,,,,,AMP,right,1.2172047721396666,1,,,,,,,,,,,,,,right,1,1.2172047721396666,,,,,,,,,,,1038,2019_Mar_08_1457,mf_amp_cond2,3.0.4,60.03128628210804,
wonderfujnoss,&&&&&&&&&,None,nonword,gondensed,,,,,,,,,,,,,,,0,7,7,266,,,,,,,,,,,,,AMP,left,0.38367553376883734,0,,,,,,,,,,,,,,left,0,0.38367553376883734,,,,,,,,,,,1038,2019_Mar_08_1457,mf_amp_cond2,3.0.4,60.03128628210804,
suicide,&&&&&&&&&,right,care.vice,gandbrake,,,,,,,,,,,,,,,0,8,8,99,,,,,,,,,,,,,AMP,left,2.767418097530026,0,,,,,,,,,,,,,,left,0,2.767418097530026,,,,,,,,,,,1038,2019_Mar_08_1457,mf_amp_cond2,3.0.4,60.03128628210804,
racist,&&&&&&&&,right,sanctity.vice,tracious,,,,,,,,,,,,,,,0,9,9,106,,,,,,,,,,,,,AMP,right,0.48369326945976354,1,,,,,,,,,,,,,,right,1,0.48369326945976354,,,,,,,,,,,1038,2019_Mar_08_1457,mf_amp_cond2,3.0.4,60.03128628210804,
promised,&&&&&&,left,loyalty.virtue,bycled,,,,,,,,,,,,,,,0,10,10,162,,,,,,,,,,,,,AMP,right,0.35032345983199775,0,,,,,,,,,,,,,,right,0,0.35032345983199775,,,,,,,,,,,1038,2019_Mar_08_1457,mf_amp_cond2,3.0.4,60.03128628210804,
dignity,&&&&&&&&&&,left,sanctity.virtue,galamitous,,,,,,,,,,,,,,,0,11,11,321,,,,,,,,,,,,,AMP,left,0.48370096668077167,1,,,,,,,,,,,,,,left,1,0.48370096668077167,,,,,,,,,,,1038,2019_Mar_08_1457,mf_amp_cond2,3.0.4,60.03128628210804,
slavery,&&&,right,loyalty.vice,asn,,,,,,,,,,,,,,,0,12,12,185,,,,,,,,,,,,,AMP,left,0.6837450974271633,0,,,,,,,,,,,,,,left,0,0.6837450974271633,,,,,,,,,,,1038,2019_Mar_08_1457,mf_amp_cond2,3.0.4,60.03128628210804,
embrace,&&&&&&&,left,authority.virtue,lursuer,,,,,,,,,,,,,,,0,13,13,160,,,,,,,,,,,,,AMP,left,1.5672822415072005,1,,,,,,,,,,,,,,left,1,1.5672822415072005,,,,,,,,,,,1038,2019_Mar_08_1457,mf_amp_cond2,3.0.4,60.03128628210804,
suicide,&&&&&&&&&&&&&,right,care.vice,photocalkodes,,,,,,,,,,,,,,,0,14,14,248,,,,,,,,,,,,,AMP,right,1.41728610615246,1,,,,,,,,,,,,,,right,1,1.41728610615246,,,,,,,,,,,1038,2019_Mar_08_1457,mf_amp_cond2,3.0.4,60.03128628210804,
critics,&&&&&&&&&,right,loyalty.vice,tomedians,,,,,,,,,,,,,,,0,15,15,190,,,,,,,,,,,,,AMP,left,0.767123678670032,0,,,,,,,,,,,,,,left,0,0.767123678670032,,,,,,,,,,,1038,2019_Mar_08_1457,mf_amp_cond2,3.0.4,60.03128628210804,
protesters,&&&&&&&&&&&&,right,authority.vice,quarterbocks,,,,,,,,,,,,,,,0,16,16,5,,,,,,,,,,,,,AMP,right,0.5670773028978147,1,,,,,,,,,,,,,,right,1,0.5670773028978147,,,,,,,,,,,1038,2019_Mar_08_1457,mf_amp_cond2,3.0.4,60.03128628210804,
illegal,&&&&&&&&,right,fairness.vice,thabbily,,,,,,,,,,,,,,,0,17,17,305,,,,,,,,,,,,,AMP,right,1.0671717542718397,1,,,,,,,,,,,,,,right,1,1.0671717542718397,,,,,,,,,,,1038,2019_Mar_08_1457,mf_amp_cond2,3.0.4,60.03128628210804,
critics,&&&&&&&&,right,loyalty.vice,clamorek,,,,,,,,,,,,,,,0,18,18,116,,,,,,,,,,,,,AMP,left,0.46702268467925023,0,,,,,,,,,,,,,,left,0,0.46702268467925023,,,,,,,,,,,1038,2019_Mar_08_1457,mf_amp_cond2,3.0.4,60.03128628210804,
restore,&&&&&&,left,care.virtue,papert,,,,,,,,,,,,,,,0,19,19,252,,,,,,,,,,,,,AMP,left,0.7170817769219866,1,,,,,,,,,,,,,,left,1,0.7170817769219866,,,,,,,,,,,1038,2019_Mar_08_1457,mf_amp_cond2,3.0.4,60.03128628210804,
honored,&&&&&&,left,authority.virtue,squets,,,,,,,,,,,,,,,0,20,20,318,,,,,,,,,,,,,AMP,right,1.1005039437004598,0,,,,,,,,,,,,,,right,0,1.1005039437004598,,,,,,,,,,,1038,2019_Mar_08_1457,mf_amp_cond2,3.0.4,60.03128628210804,
infet,&&&&&&&&,None,nonword,framatic,,,,,,,,,,,,,,,0,21,21,317,,,,,,,,,,,,,AMP,left,0.7837734168133466,0,,,,,,,,,,,,,,left,0,0.7837734168133466,,,,,,,,,,,1038,2019_Mar_08_1457,mf_amp_cond2,3.0.4,60.03128628210804,
friends,&&&&&&&&,left,loyalty.virtue,clamorek,,,,,,,,,,,,,,,0,22,22,28,,,,,,,,,,,,,AMP,right,0.35033211919653695,0,,,,,,,,,,,,,,right,0,0.35033211919653695,,,,,,,,,,,1038,2019_Mar_08_1457,mf_amp_cond2,3.0.4,60.03128628210804,
chonograph,&&&&&&&&&,None,nonword,taxpayung,,,,,,,,,,,,,,,0,23,23,129,,,,,,,,,,,,,AMP,right,0.7337578138831304,0,,,,,,,,,,,,,,right,0,0.7337578138831304,,,,,,,,,,,1038,2019_Mar_08_1457,mf_amp_cond2,3.0.4,60.03128628210804,
increase,&&&&&,left,care.virtue,ablow,,,,,,,,,,,,,,,0,24,24,94,,,,,,,,,,,,,AMP,right,0.717087229117169,0,,,,,,,,,,,,,,right,0,0.717087229117169,,,,,,,,,,,1038,2019_Mar_08_1457,mf_amp_cond2,3.0.4,60.03128628210804,
fraud,&&&&&&,right,fairness.vice,openet,,,,,,,,,,,,,,,0,25,25,15,,,,,,,,,,,,,AMP,right,0.4003493257041555,1,,,,,,,,,,,,,,right,1,0.4003493257041555,,,,,,,,,,,1038,2019_Mar_08_1457,mf_amp_cond2,3.0.4,60.03128628210804,
blamed,&&&&&&&,right,loyalty.vice,nomaric,,,,,,,,,,,,,,,0,26,26,47,,,,,,,,,,,,,AMP,right,0.4170215140620712,1,,,,,,,,,,,,,,right,1,0.4170215140620712,,,,,,,,,,,1038,2019_Mar_08_1457,mf_amp_cond2,3.0.4,60.03128628210804,
embrace,&&&&&&&&&&,left,authority.virtue,galamitous,,,,,,,,,,,,,,,0,27,27,221,,,,,,,,,,,,,AMP,right,0.4670268540212419,0,,,,,,,,,,,,,,right,0,0.4670268540212419,,,,,,,,,,,1038,2019_Mar_08_1457,mf_amp_cond2,3.0.4,60.03128628210804,
protesters,&&&&&&&&&&&&&,right,authority.vice,esquisiteness,,,,,,,,,,,,,,,0,28,28,323,,,,,,,,,,,,,AMP,right,0.48369230730168056,1,,,,,,,,,,,,,,right,1,0.48369230730168056,,,,,,,,,,,1038,2019_Mar_08_1457,mf_amp_cond2,3.0.4,60.03128628210804,
powerful,&&&&&&&,left,authority.virtue,lursuer,,,,,,,,,,,,,,,0,29,29,217,,,,,,,,,,,,,AMP,right,0.30031395054538734,0,,,,,,,,,,,,,,right,0,0.30031395054538734,,,,,,,,,,,1038,2019_Mar_08_1457,mf_amp_cond2,3.0.4,60.03128628210804,
chonograph,&&&&&,None,nonword,viscs,,,,,,,,,,,,,,,0,30,30,33,,,,,,,,,,,,,AMP,right,0.3669946860172786,0,,,,,,,,,,,,,,right,0,0.3669946860172786,,,,,,,,,,,1038,2019_Mar_08_1457,mf_amp_cond2,3.0.4,60.03128628210804,
corruption,&&&&&&&,right,sanctity.vice,nackers,,,,,,,,,,,,,,,0,31,31,270,,,,,,,,,,,,,AMP,right,0.48369711806299165,1,,,,,,,,,,,,,,right,1,0.48369711806299165,,,,,,,,,,,1038,2019_Mar_08_1457,mf_amp_cond2,3.0.4,60.03128628210804,
abuse,&&&&,right,sanctity.vice,yane,,,,,,,,,,,,,,,0,32,32,194,,,,,,,,,,,,,AMP,right,0.4003666444623377,1,,,,,,,,,,,,,,right,1,0.4003666444623377,,,,,,,,,,,1038,2019_Mar_08_1457,mf_amp_cond2,3.0.4,60.03128628210804,
officers,&&&&&&,right,authority.vice,gikely,,,,,,,,,,,,,,,0,33,33,262,,,,,,,,,,,,,AMP,left,0.5170398911868688,0,,,,,,,,,,,,,,left,0,0.5170398911868688,,,,,,,,,,,1038,2019_Mar_08_1457,mf_amp_cond2,3.0.4,60.03128628210804,
opportunity,&&&&&,left,fairness.virtue,scock,,,,,,,,,,,,,,,0,34,34,279,,,,,,,,,,,,,AMP,left,0.483702570272726,1,,,,,,,,,,,,,,left,1,0.483702570272726,,,,,,,,,,,1038,2019_Mar_08_1457,mf_amp_cond2,3.0.4,60.03128628210804,
support,&&&&&&,left,loyalty.virtue,strofe,,,,,,,,,,,,,,,0,35,35,96,,,,,,,,,,,,,AMP,left,0.43368664663285017,1,,,,,,,,,,,,,,left,1,0.43368664663285017,,,,,,,,,,,1038,2019_Mar_08_1457,mf_amp_cond2,3.0.4,60.03128628210804,
sharing,&&&&&&&&,left,loyalty.virtue,fontacts,,,,,,,,,,,,,,,0,36,36,91,,,,,,,,,,,,,AMP,right,0.7170885119849117,0,,,,,,,,,,,,,,right,0,0.7170885119849117,,,,,,,,,,,1038,2019_Mar_08_1457,mf_amp_cond2,3.0.4,60.03128628210804,
opportunity,&&&&&&&&&,left,fairness.virtue,unscothed,,,,,,,,,,,,,,,0,37,37,56,,,,,,,,,,,,,AMP,left,0.48370192883885466,1,,,,,,,,,,,,,,left,1,0.48370192883885466,,,,,,,,,,,1038,2019_Mar_08_1457,mf_amp_cond2,3.0.4,60.03128628210804,
voter,&&&&&&&&,right,fairness.vice,ebbitter,,,,,,,,,,,,,,,0,38,38,150,,,,,,,,,,,,,AMP,left,0.517032835399732,0,,,,,,,,,,,,,,left,0,0.517032835399732,,,,,,,,,,,1038,2019_Mar_08_1457,mf_amp_cond2,3.0.4,60.03128628210804,
racist,&&&&&&&&&,right,sanctity.vice,gandbrake,,,,,,,,,,,,,,,0,39,39,55,,,,,,,,,,,,,AMP,right,0.3670469630160369,1,,,,,,,,,,,,,,right,1,0.3670469630160369,,,,,,,,,,,1038,2019_Mar_08_1457,mf_amp_cond2,3.0.4,60.03128628210804,
pleasant,&&&&&&&&&&&&&,None,control,synchronazers,,,,,,,,,,,,,,,0,40,40,125,,,,,,,,,,,,,AMP,right,0.4670345512276981,0,,,,,,,,,,,,,,right,0,0.4670345512276981,,,,,,,,,,,1038,2019_Mar_08_1457,mf_amp_cond2,3.0.4,60.03128628210804,
wonderfujnoss,&&&&&&&,None,nonword,menizen,,,,,,,,,,,,,,,0,41,41,159,,,,,,,,,,,,,AMP,left,0.3003264585422585,0,,,,,,,,,,,,,,left,0,0.3003264585422585,,,,,,,,,,,1038,2019_Mar_08_1457,mf_amp_cond2,3.0.4,60.03128628210804,
harassment,&&&&&&&,right,sanctity.vice,menizen,,,,,,,,,,,,,,,0,42,42,199,,,,,,,,,,,,,AMP,left,0.4836929487355519,0,,,,,,,,,,,,,,left,0,0.4836929487355519,,,,,,,,,,,1038,2019_Mar_08_1457,mf_amp_cond2,3.0.4,60.03128628210804,
racist,&&&&&&&&&,right,sanctity.vice,faspberry,,,,,,,,,,,,,,,0,43,43,311,,,,,,,,,,,,,AMP,right,0.5837289653281914,1,,,,,,,,,,,,,,right,1,0.5837289653281914,,,,,,,,,,,1038,2019_Mar_08_1457,mf_amp_cond2,3.0.4,60.03128628210804,
infet,&&&&&&,None,nonword,gazily,,,,,,,,,,,,,,,0,44,44,118,,,,,,,,,,,,,AMP,left,0.45031425522756763,0,,,,,,,,,,,,,,left,0,0.45031425522756763,,,,,,,,,,,1038,2019_Mar_08_1457,mf_amp_cond2,3.0.4,60.03128628210804,
torture,&&&&&&&&,right,care.vice,ebbitter,,,,,,,,,,,,,,,0,45,45,290,,,,,,,,,,,,,AMP,left,0.7671060392167419,0,,,,,,,,,,,,,,left,0,0.7671060392167419,,,,,,,,,,,1038,2019_Mar_08_1457,mf_amp_cond2,3.0.4,60.03128628210804,
gournful,&&&&&&&&&&,None,nonword,abointment,,,,,,,,,,,,,,,0,46,46,261,,,,,,,,,,,,,AMP,right,0.38369124893506523,0,,,,,,,,,,,,,,right,0,0.38369124893506523,,,,,,,,,,,1038,2019_Mar_08_1457,mf_amp_cond2,3.0.4,60.03128628210804,
ability,&&&&&&&&&&&,left,authority.virtue,nomparisons,,,,,,,,,,,,,,,0,47,47,24,,,,,,,,,,,,,AMP,right,1.3004220324073685,0,,,,,,,,,,,,,,right,0,1.3004220324073685,,,,,,,,,,,1038,2019_Mar_08_1457,mf_amp_cond2,3.0.4,60.03128628210804,
rorroborated,&&&&&&&&,None,nonword,gowlands,,,,,,,,,,,,,,,0,48,48,271,,,,,,,,,,,,,AMP,left,1.7506862556765554,0,,,,,,,,,,,,,,left,0,1.7506862556765554,,,,,,,,,,,1038,2019_Mar_08_1457,mf_amp_cond2,3.0.4,60.03128628210804,
interests,&&&&&&,left,fairness.virtue,squets,,,,,,,,,,,,,,,0,49,49,46,,,,,,,,,,,,,AMP,right,0.18361793286749162,0,,,,,,,,,,,,,,right,0,0.18361793286749162,,,,,,,,,,,1038,2019_Mar_08_1457,mf_amp_cond2,3.0.4,60.03128628210804,
victim,&&&&&&&&&&,right,care.vice,frojecting,,,,,,,,,,,,,,,0,50,50,14,,,,,,,,,,,,,AMP,left,0.9004614165314706,0,,,,,,,,,,,,,,left,0,0.9004614165314706,,,,,,,,,,,1038,2019_Mar_08_1457,mf_amp_cond2,3.0.4,60.03128628210804,
progress,&&&&&&&,left,authority.virtue,dramens,,,,,,,,,,,,,,,0,51,51,41,,,,,,,,,,,,,AMP,right,0.3836761751881568,0,,,,,,,,,,,,,,right,0,0.3836761751881568,,,,,,,,,,,1038,2019_Mar_08_1457,mf_amp_cond2,3.0.4,60.03128628210804,
chonograph,&&&&,None,nonword,erks,,,,,,,,,,,,,,,0,52,52,302,,,,,,,,,,,,,AMP,left,0.33366602448222693,0,,,,,,,,,,,,,,left,0,0.33366602448222693,,,,,,,,,,,1038,2019_Mar_08_1457,mf_amp_cond2,3.0.4,60.03128628210804,
groups,&&&&&&&&&&&&,right,loyalty.vice,unreflectuve,,,,,,,,,,,,,,,0,53,53,264,,,,,,,,,,,,,AMP,left,0.9171393778087804,0,,,,,,,,,,,,,,left,0,0.9171393778087804,,,,,,,,,,,1038,2019_Mar_08_1457,mf_amp_cond2,3.0.4,60.03128628210804,
voter,&&&&&&&,right,fairness.vice,smapper,,,,,,,,,,,,,,,0,54,54,275,,,,,,,,,,,,,AMP,left,1.2172099036397412,0,,,,,,,,,,,,,,left,0,1.2172099036397412,,,,,,,,,,,1038,2019_Mar_08_1457,mf_amp_cond2,3.0.4,60.03128628210804,
energy,&&&&&&&&&&,left,sanctity.virtue,clattening,,,,,,,,,,,,,,,0,55,55,306,,,,,,,,,,,,,AMP,right,0.5503781742590945,0,,,,,,,,,,,,,,right,0,0.5503781742590945,,,,,,,,,,,1038,2019_Mar_08_1457,mf_amp_cond2,3.0.4,60.03128628210804,
torture,&&&&&&&&,right,care.vice,tracious,,,,,,,,,,,,,,,0,56,56,223,,,,,,,,,,,,,AMP,left,0.5003721928806044,0,,,,,,,,,,,,,,left,0,0.5003721928806044,,,,,,,,,,,1038,2019_Mar_08_1457,mf_amp_cond2,3.0.4,60.03128628210804,
men,&&&&&&&&&&,right,loyalty.vice,pistraught,,,,,,,,,,,,,,,0,57,57,300,,,,,,,,,,,,,AMP,left,0.8838020568946376,0,,,,,,,,,,,,,,left,0,0.8838020568946376,,,,,,,,,,,1038,2019_Mar_08_1457,mf_amp_cond2,3.0.4,60.03128628210804,
peace,&&&&&&,left,care.virtue,bycled,,,,,,,,,,,,,,,0,58,58,286,,,,,,,,,,,,,AMP,right,0.2836475351068657,0,,,,,,,,,,,,,,right,0,0.2836475351068657,,,,,,,,,,,1038,2019_Mar_08_1457,mf_amp_cond2,3.0.4,60.03128628210804,
rorroborated,&&&&&&&,None,nonword,pharing,,,,,,,,,,,,,,,0,59,59,183,,,,,,,,,,,,,AMP,left,0.46702653329703026,0,,,,,,,,,,,,,,left,0,0.46702653329703026,,,,,,,,,,,1038,2019_Mar_08_1457,mf_amp_cond2,3.0.4,60.03128628210804,
crime,&&&&&&,right,fairness.vice,papert,,,,,,,,,,,,,,,0,60,60,140,,,,,,,,,,,,,AMP,right,1.2172115072316956,1,,,,,,,,,,,,,,right,1,1.2172115072316956,,,,,,,,,,,1038,2019_Mar_08_1457,mf_amp_cond2,3.0.4,60.03128628210804,
increase,&&&&&&&,left,care.virtue,pharing,,,,,,,,,,,,,,,0,61,61,267,,,,,,,,,,,,,AMP,left,2.034077216638252,1,,,,,,,,,,,,,,left,1,2.034077216638252,,,,,,,,,,,1038,2019_Mar_08_1457,mf_amp_cond2,3.0.4,60.03128628210804,
values,&&&&,left,sanctity.virtue,yane,,,,,,,,,,,,,,,0,62,62,273,,,,,,,,,,,,,AMP,left,1.0338437341561075,1,,,,,,,,,,,,,,left,1,1.0338437341561075,,,,,,,,,,,1038,2019_Mar_08_1457,mf_amp_cond2,3.0.4,60.03128628210804,
fear,&&&&&&&&,right,sanctity.vice,fontacts,,,,,,,,,,,,,,,0,63,63,309,,,,,,,,,,,,,AMP,right,0.38367809950432274,1,,,,,,,,,,,,,,right,1,0.38367809950432274,,,,,,,,,,,1038,2019_Mar_08_1457,mf_amp_cond2,3.0.4,60.03128628210804,
gournful,&&&&&&&&,None,nonword,dormandi,,,,,,,,,,,,,,,0,64,64,197,,,,,,,,,,,,,AMP,right,0.7837673231697408,0,,,,,,,,,,,,,,right,0,0.7837673231697408,,,,,,,,,,,1038,2019_Mar_08_1457,mf_amp_cond2,3.0.4,60.03128628210804,
ability,&&&&&&&,left,authority.virtue,nomaric,,,,,,,,,,,,,,,0,65,65,90,,,,,,,,,,,,,AMP,right,0.3836559699848294,0,,,,,,,,,,,,,,right,0,0.3836559699848294,,,,,,,,,,,1038,2019_Mar_08_1457,mf_amp_cond2,3.0.4,60.03128628210804,
praised,&&&&&&&,left,loyalty.virtue,pharing,,,,,,,,,,,,,,,0,66,66,152,,,,,,,,,,,,,AMP,right,0.3836787409381941,0,,,,,,,,,,,,,,right,0,0.3836787409381941,,,,,,,,,,,1038,2019_Mar_08_1457,mf_amp_cond2,3.0.4,60.03128628210804,
commitment,&&&&&&&&&&,left,sanctity.virtue,clattening,,,,,,,,,,,,,,,0,67,67,187,,,,,,,,,,,,,AMP,right,0.23362391426053364,0,,,,,,,,,,,,,,right,0,0.23362391426053364,,,,,,,,,,,1038,2019_Mar_08_1457,mf_amp_cond2,3.0.4,60.03128628210804,
hescribe,&&&&&&&&&,None,nonword,godlaness,,,,,,,,,,,,,,,0,68,68,178,,,,,,,,,,,,,AMP,right,0.9504827923810808,0,,,,,,,,,,,,,,right,0,0.9504827923810808,,,,,,,,,,,1038,2019_Mar_08_1457,mf_amp_cond2,3.0.4,60.03128628210804,
party,&&&&&&&&&,left,loyalty.virtue,fangsters,,,,,,,,,,,,,,,0,69,69,299,,,,,,,,,,,,,AMP,right,0.4168739839224145,0,,,,,,,,,,,,,,right,0,0.4168739839224145,,,,,,,,,,,1038,2019_Mar_08_1457,mf_amp_cond2,3.0.4,60.03128628210804,
fear,&&&&&&&&&&&,right,sanctity.vice,egpeditious,,,,,,,,,,,,,,,0,70,70,88,,,,,,,,,,,,,AMP,left,0.43368183585698716,0,,,,,,,,,,,,,,left,0,0.43368183585698716,,,,,,,,,,,1038,2019_Mar_08_1457,mf_amp_cond2,3.0.4,60.03128628210804,
suicide,&&&&&,right,care.vice,uller,,,,,,,,,,,,,,,0,71,71,3,,,,,,,,,,,,,AMP,left,0.1669399715901818,0,,,,,,,,,,,,,,left,0,0.1669399715901818,,,,,,,,,,,1038,2019_Mar_08_1457,mf_amp_cond2,3.0.4,60.03128628210804,
infet,&&&&&&&&&&,None,nonword,abointment,,,,,,,,,,,,,,,0,72,72,173,,,,,,,,,,,,,AMP,left,0.5503987002011854,0,,,,,,,,,,,,,,left,0,0.5503987002011854,,,,,,,,,,,1038,2019_Mar_08_1457,mf_amp_cond2,3.0.4,60.03128628210804,
slavery,&&&&,right,loyalty.vice,yane,,,,,,,,,,,,,,,0,73,73,66,,,,,,,,,,,,,AMP,left,0.5337063066253904,0,,,,,,,,,,,,,,left,0,0.5337063066253904,,,,,,,,,,,1038,2019_Mar_08_1457,mf_amp_cond2,3.0.4,60.03128628210804,
died,&&&&&&&&&,right,care.vice,gondensed,,,,,,,,,,,,,,,0,74,74,103,,,,,,,,,,,,,AMP,left,0.5837065150990384,0,,,,,,,,,,,,,,left,0,0.5837065150990384,,,,,,,,,,,1038,2019_Mar_08_1457,mf_amp_cond2,3.0.4,60.03128628210804,
agreement,&&&&&&&&,left,fairness.virtue,dormandi,,,,,,,,,,,,,,,0,75,75,320,,,,,,,,,,,,,AMP,left,1.0838426597474609,1,,,,,,,,,,,,,,left,1,1.0838426597474609,,,,,,,,,,,1038,2019_Mar_08_1457,mf_amp_cond2,3.0.4,60.03128628210804,
rorroborated,&&&&&&&&&,None,nonword,gondensed,,,,,,,,,,,,,,,0,76,76,80,,,,,,,,,,,,,AMP,left,0.3836678365478292,0,,,,,,,,,,,,,,left,0,0.3836678365478292,,,,,,,,,,,1038,2019_Mar_08_1457,mf_amp_cond2,3.0.4,60.03128628210804,
celebrated,&&&&&&&&,left,authority.virtue,bluently,,,,,,,,,,,,,,,0,77,77,257,,,,,,,,,,,,,AMP,left,0.7836236416478641,1,,,,,,,,,,,,,,left,1,0.7836236416478641,,,,,,,,,,,1038,2019_Mar_08_1457,mf_amp_cond2,3.0.4,60.03128628210804,
interests,&&&&&,left,fairness.virtue,mecan,,,,,,,,,,,,,,,0,78,78,189,,,,,,,,,,,,,AMP,right,0.3836777787801111,0,,,,,,,,,,,,,,right,0,0.3836777787801111,,,,,,,,,,,1038,2019_Mar_08_1457,mf_amp_cond2,3.0.4,60.03128628210804,
friends,&&&&&&&&&,left,loyalty.virtue,gillipede,,,,,,,,,,,,,,,0,79,79,278,,,,,,,,,,,,,AMP,right,0.5503743256413145,0,,,,,,,,,,,,,,right,0,0.5503743256413145,,,,,,,,,,,1038,2019_Mar_08_1457,mf_amp_cond2,3.0.4,60.03128628210804,
safe,&&&&&&&,left,care.virtue,scalbel,,,,,,,,,,,,,,,0,80,80,130,,,,,,,,,,,,,AMP,right,0.36701008047384676,0,,,,,,,,,,,,,,right,0,0.36701008047384676,,,,,,,,,,,1038,2019_Mar_08_1457,mf_amp_cond2,3.0.4,60.03128628210804,
torture,&&&&&&&&&&,right,care.vice,ammessment,,,,,,,,,,,,,,,0,81,81,42,,,,,,,,,,,,,AMP,right,0.2503259293443989,1,,,,,,,,,,,,,,right,1,0.2503259293443989,,,,,,,,,,,1038,2019_Mar_08_1457,mf_amp_cond2,3.0.4,60.03128628210804,
unpleasant,&&&&,None,control,erks,,,,,,,,,,,,,,,0,82,82,22,,,,,,,,,,,,,AMP,right,0.6837213643157156,0,,,,,,,,,,,,,,right,0,0.6837213643157156,,,,,,,,,,,1038,2019_Mar_08_1457,mf_amp_cond2,3.0.4,60.03128628210804,
racist,&&&&&&&&&,right,sanctity.vice,gandbrake,,,,,,,,,,,,,,,0,83,83,177,,,,,,,,,,,,,AMP,right,0.683752153228852,1,,,,,,,,,,,,,,right,1,0.683752153228852,,,,,,,,,,,1038,2019_Mar_08_1457,mf_amp_cond2,3.0.4,60.03128628210804,
frocessing,&&&&&&&,None,nonword,nackers,,,,,,,,,,,,,,,0,84,84,144,,,,,,,,,,,,,AMP,right,0.7336176602548221,0,,,,,,,,,,,,,,right,0,0.7336176602548221,,,,,,,,,,,1038,2019_Mar_08_1457,mf_amp_cond2,3.0.4,60.03128628210804,
compassion,&&&&&&&&,left,care.virtue,gowlands,,,,,,,,,,,,,,,0,85,85,40,,,,,,,,,,,,,AMP,right,0.48369872164039407,0,,,,,,,,,,,,,,right,0,0.48369872164039407,,,,,,,,,,,1038,2019_Mar_08_1457,mf_amp_cond2,3.0.4,60.03128628210804,
interests,&&&&&&&&&&&&&,left,fairness.virtue,esquisiteness,,,,,,,,,,,,,,,0,86,86,111,,,,,,,,,,,,,AMP,right,0.3670081561722327,0,,,,,,,,,,,,,,right,0,0.3670081561722327,,,,,,,,,,,1038,2019_Mar_08_1457,mf_amp_cond2,3.0.4,60.03128628210804,
officers,&&&&&&&&&&&,right,authority.vice,ilportation,,,,,,,,,,,,,,,0,87,87,231,,,,,,,,,,,,,AMP,right,0.33367243883549236,1,,,,,,,,,,,,,,right,1,0.33367243883549236,,,,,,,,,,,1038,2019_Mar_08_1457,mf_amp_cond2,3.0.4,60.03128628210804,
pleasant,&&&&&&&&,None,control,thabbily,,,,,,,,,,,,,,,0,88,88,59,,,,,,,,,,,,,AMP,right,0.2836728718102677,0,,,,,,,,,,,,,,right,0,0.2836728718102677,,,,,,,,,,,1038,2019_Mar_08_1457,mf_amp_cond2,3.0.4,60.03128628210804,
peaceful,&&&&&&&&&&,left,authority.virtue,abointment,,,,,,,,,,,,,,,0,89,89,51,,,,,,,,,,,,,AMP,right,0.3670017418189673,0,,,,,,,,,,,,,,right,0,0.3670017418189673,,,,,,,,,,,1038,2019_Mar_08_1457,mf_amp_cond2,3.0.4,60.03128628210804,
drug,&&&&&&&&,right,sanctity.vice,dormandi,,,,,,,,,,,,,,,0,90,90,65,,,,,,,,,,,,,AMP,right,0.2669807989441324,1,,,,,,,,,,,,,,right,1,0.2669807989441324,,,,,,,,,,,1038,2019_Mar_08_1457,mf_amp_cond2,3.0.4,60.03128628210804,
strong,&&&&&&&&&&&&,left,loyalty.virtue,feleological,,,,,,,,,,,,,,,0,91,91,315,,,,,,,,,,,,,AMP,right,0.5003744378918782,0,,,,,,,,,,,,,,right,0,0.5003744378918782,,,,,,,,,,,1038,2019_Mar_08_1457,mf_amp_cond2,3.0.4,60.03128628210804,
illegal,&&&&&,right,fairness.vice,ablow,,,,,,,,,,,,,,,0,92,92,58,,,,,,,,,,,,,AMP,right,1.8006794083630666,1,,,,,,,,,,,,,,right,1,1.8006794083630666,,,,,,,,,,,1038,2019_Mar_08_1457,mf_amp_cond2,3.0.4,60.03128628210804,
opportunity,&&&&&&&&&,left,fairness.virtue,tomedians,,,,,,,,,,,,,,,0,93,93,107,,,,,,,,,,,,,AMP,right,1.417220679752063,0,,,,,,,,,,,,,,right,0,1.417220679752063,,,,,,,,,,,1038,2019_Mar_08_1457,mf_amp_cond2,3.0.4,60.03128628210804,
groups,&&&&&&&&&&&&,right,loyalty.vice,feleological,,,,,,,,,,,,,,,0,94,94,244,,,,,,,,,,,,,AMP,right,0.8171482616889989,1,,,,,,,,,,,,,,right,1,0.8171482616889989,,,,,,,,,,,1038,2019_Mar_08_1457,mf_amp_cond2,3.0.4,60.03128628210804,
commitment,&&&&&&&,left,sanctity.virtue,dramens,,,,,,,,,,,,,,,0,95,95,156,,,,,,,,,,,,,AMP,right,1.1171623411937617,0,,,,,,,,,,,,,,right,0,1.1171623411937617,,,,,,,,,,,1038,2019_Mar_08_1457,mf_amp_cond2,3.0.4,60.03128628210804,
hescribe,&&&&,None,nonword,yane,,,,,,,,,,,,,,,0,96,96,148,,,,,,,,,,,,,AMP,right,0.500367702828953,0,,,,,,,,,,,,,,right,0,0.500367702828953,,,,,,,,,,,1038,2019_Mar_08_1457,mf_amp_cond2,3.0.4,60.03128628210804,
fear,&&&&&&,right,sanctity.vice,squets,,,,,,,,,,,,,,,0,97,97,226,,,,,,,,,,,,,AMP,right,0.3836662329558749,1,,,,,,,,,,,,,,right,1,0.3836662329558749,,,,,,,,,,,1038,2019_Mar_08_1457,mf_amp_cond2,3.0.4,60.03128628210804,
gournful,&&&&&&&&&,None,nonword,godlaness,,,,,,,,,,,,,,,0,98,98,73,,,,,,,,,,,,,AMP,right,0.36700302468671,0,,,,,,,,,,,,,,right,0,0.36700302468671,,,,,,,,,,,1038,2019_Mar_08_1457,mf_amp_cond2,3.0.4,60.03128628210804,
betrayal,&&&&&&&&&&,right,loyalty.vice,lorthwhile,,,,,,,,,,,,,,,0,99,99,89,,,,,,,,,,,,,AMP,right,0.13361515865835827,1,,,,,,,,,,,,,,right,1,0.13361515865835827,,,,,,,,,,,1038,2019_Mar_08_1457,mf_amp_cond2,3.0.4,60.03128628210804,
blamed,&&&&,right,loyalty.vice,tove,,,,,,,,,,,,,,,0,100,100,153,,,,,,,,,,,,,AMP,left,1.1005119616456795,0,,,,,,,,,,,,,,left,0,1.1005119616456795,,,,,,,,,,,1038,2019_Mar_08_1457,mf_amp_cond2,3.0.4,60.03128628210804,
protesters,&&&&&,right,authority.vice,uller,,,,,,,,,,,,,,,0,101,101,147,,,,,,,,,,,,,AMP,right,0.433694664563518,1,,,,,,,,,,,,,,right,1,0.433694664563518,,,,,,,,,,,1038,2019_Mar_08_1457,mf_amp_cond2,3.0.4,60.03128628210804,
penalty,&&&&&&&&&&,right,authority.vice,neutralust,,,,,,,,,,,,,,,0,102,102,25,,,,,,,,,,,,,AMP,right,0.6503949477919377,1,,,,,,,,,,,,,,right,1,0.6503949477919377,,,,,,,,,,,1038,2019_Mar_08_1457,mf_amp_cond2,3.0.4,60.03128628210804,
suicide,&&&&&&,right,care.vice,gikely,,,,,,,,,,,,,,,0,103,103,206,,,,,,,,,,,,,AMP,right,0.11695900617633015,1,,,,,,,,,,,,,,right,1,0.11695900617633015,,,,,,,,,,,1038,2019_Mar_08_1457,mf_amp_cond2,3.0.4,60.03128628210804,
critics,&&&&&&&&&,right,loyalty.vice,tomedians,,,,,,,,,,,,,,,0,104,104,53,,,,,,,,,,,,,AMP,right,0.16696017680806108,1,,,,,,,,,,,,,,right,1,0.16696017680806108,,,,,,,,,,,1038,2019_Mar_08_1457,mf_amp_cond2,3.0.4,60.03128628210804,
celebrated,&&&&&,left,authority.virtue,ablow,,,,,,,,,,,,,,,0,105,105,192,,,,,,,,,,,,,AMP,right,0.1667828199279029,0,,,,,,,,,,,,,,right,0,0.1667828199279029,,,,,,,,,,,1038,2019_Mar_08_1457,mf_amp_cond2,3.0.4,60.03128628210804,
unpleasant,&&&&&,None,control,viscs,,,,,,,,,,,,,,,0,106,106,235,,,,,,,,,,,,,AMP,right,0.2836757582554128,0,,,,,,,,,,,,,,right,0,0.2836757582554128,,,,,,,,,,,1038,2019_Mar_08_1457,mf_amp_cond2,3.0.4,60.03128628210804,
help,&&&&&&&&&,left,care.virtue,taxpayung,,,,,,,,,,,,,,,0,107,107,284,,,,,,,,,,,,,AMP,right,0.6003957014763728,0,,,,,,,,,,,,,,right,0,0.6003957014763728,,,,,,,,,,,1038,2019_Mar_08_1457,mf_amp_cond2,3.0.4,60.03128628210804,
protect,&&&&&&&&&&,left,fairness.virtue,clattening,,,,,,,,,,,,,,,0,108,108,1,,,,,,,,,,,,,AMP,right,0.28367158892797306,0,,,,,,,,,,,,,,right,0,0.28367158892797306,,,,,,,,,,,1038,2019_Mar_08_1457,mf_amp_cond2,3.0.4,60.03128628210804,
unpleasant,&&&&&&&&&&&&,None,control,quarterbocks,,,,,,,,,,,,,,,0,109,109,158,,,,,,,,,,,,,AMP,right,0.16695215886284132,0,,,,,,,,,,,,,,right,0,0.16695215886284132,,,,,,,,,,,1038,2019_Mar_08_1457,mf_amp_cond2,3.0.4,60.03128628210804,
victims,&&&&&&,right,care.vice,papert,,,,,,,,,,,,,,,0,110,110,78,,,,,,,,,,,,,AMP,left,0.5003699478547787,0,,,,,,,,,,,,,,left,0,0.5003699478547787,,,,,,,,,,,1038,2019_Mar_08_1457,mf_amp_cond2,3.0.4,60.03128628210804,
penalty,&&&&&&&&&&&&,right,authority.vice,edancipation,,,,,,,,,,,,,,,0,111,111,269,,,,,,,,,,,,,AMP,left,0.4170173447346315,0,,,,,,,,,,,,,,left,0,0.4170173447346315,,,,,,,,,,,1038,2019_Mar_08_1457,mf_amp_cond2,3.0.4,60.03128628210804,
improve,&&&&&&&,left,care.virtue,scalbel,,,,,,,,,,,,,,,0,112,112,193,,,,,,,,,,,,,AMP,right,0.3336583272612188,0,,,,,,,,,,,,,,right,0,0.3336583272612188,,,,,,,,,,,1038,2019_Mar_08_1457,mf_amp_cond2,3.0.4,60.03128628210804,
blamed,&&&&&&&&,right,loyalty.vice,slending,,,,,,,,,,,,,,,0,113,113,175,,,,,,,,,,,,,AMP,right,0.016914330219151452,1,,,,,,,,,,,,,,right,1,0.016914330219151452,,,,,,,,,,,1038,2019_Mar_08_1457,mf_amp_cond2,3.0.4,60.03128628210804,
promises,&&&&&&&&&&,left,fairness.virtue,ammessment,,,,,,,,,,,,,,,0,114,114,326,,,,,,,,,,,,,AMP,right,0.0836037250701338,0,,,,,,,,,,,,,,right,0,0.0836037250701338,,,,,,,,,,,1038,2019_Mar_08_1457,mf_amp_cond2,3.0.4,60.03128628210804,
promote,&&&&&&,left,sanctity.virtue,strofe,,,,,,,,,,,,,,,0,115,115,301,,,,,,,,,,,,,AMP,right,0.500365778527339,0,,,,,,,,,,,,,,right,0,0.500365778527339,,,,,,,,,,,1038,2019_Mar_08_1457,mf_amp_cond2,3.0.4,60.03128628210804,
groups,&&&&&&,right,loyalty.vice,squets,,,,,,,,,,,,,,,0,116,116,101,,,,,,,,,,,,,AMP,right,0.7170952470478369,1,,,,,,,,,,,,,,right,1,0.7170952470478369,,,,,,,,,,,1038,2019_Mar_08_1457,mf_amp_cond2,3.0.4,60.03128628210804,
arrests,&&&&&&,right,authority.vice,greaks,,,,,,,,,,,,,,,0,117,117,325,,,,,,,,,,,,,AMP,right,0.01691882025625091,1,,,,,,,,,,,,,,right,1,0.01691882025625091,,,,,,,,,,,1038,2019_Mar_08_1457,mf_amp_cond2,3.0.4,60.03128628210804,
praised,&&&&&&&&&,left,loyalty.virtue,unscothed,,,,,,,,,,,,,,,0,118,118,222,,,,,,,,,,,,,AMP,right,0.4670329476502957,0,,,,,,,,,,,,,,right,0,0.4670329476502957,,,,,,,,,,,1038,2019_Mar_08_1457,mf_amp_cond2,3.0.4,60.03128628210804,
hescribe,&&&&&,None,nonword,dumid,,,,,,,,,,,,,,,0,119,119,258,,,,,,,,,,,,,AMP,right,0.4169881594280014,0,,,,,,,,,,,,,,right,0,0.4169881594280014,,,,,,,,,,,1038,2019_Mar_08_1457,mf_amp_cond2,3.0.4,60.03128628210804,
voter,&&&&&&&,right,fairness.vice,reviked,,,,,,,,,,,,,,,0,120,120,225,,,,,,,,,,,,,AMP,right,0.08375253807753325,1,,,,,,,,,,,,,,right,1,0.08375253807753325,,,,,,,,,,,1038,2019_Mar_08_1457,mf_amp_cond2,3.0.4,60.03128628210804,
gournful,&&&&&&&&&&&&,None,nonword,bruthfulness,,,,,,,,,,,,,,,0,121,121,139,,,,,,,,,,,,,AMP,right,0.383673930176883,0,,,,,,,,,,,,,,right,0,0.383673930176883,,,,,,,,,,,1038,2019_Mar_08_1457,mf_amp_cond2,3.0.4,60.03128628210804,
drug,&&&&&&,right,sanctity.vice,papert,,,,,,,,,,,,,,,0,122,122,208,,,,,,,,,,,,,AMP,right,0.4336831187392818,1,,,,,,,,,,,,,,right,1,0.4336831187392818,,,,,,,,,,,1038,2019_Mar_08_1457,mf_amp_cond2,3.0.4,60.03128628210804,
agreement,&&&,left,fairness.virtue,oam,,,,,,,,,,,,,,,0,123,123,67,,,,,,,,,,,,,AMP,left,0.5170209688512841,1,,,,,,,,,,,,,,left,1,0.5170209688512841,,,,,,,,,,,1038,2019_Mar_08_1457,mf_amp_cond2,3.0.4,60.03128628210804,
peaceful,&&&&&&&&&&&&&,left,authority.virtue,synchronazers,,,,,,,,,,,,,,,0,124,124,259,,,,,,,,,,,,,AMP,right,0.26698721329739783,0,,,,,,,,,,,,,,right,0,0.26698721329739783,,,,,,,,,,,1038,2019_Mar_08_1457,mf_amp_cond2,3.0.4,60.03128628210804,
increase,&&&&,left,care.virtue,tove,,,,,,,,,,,,,,,0,125,125,227,,,,,,,,,,,,,AMP,right,0.36699179957213346,0,,,,,,,,,,,,,,right,0,0.36699179957213346,,,,,,,,,,,1038,2019_Mar_08_1457,mf_amp_cond2,3.0.4,60.03128628210804,
perfect,&&&&&&&,left,sanctity.virtue,dramens,,,,,,,,,,,,,,,0,126,126,265,,,,,,,,,,,,,AMP,right,0.3836800238204887,0,,,,,,,,,,,,,,right,0,0.3836800238204887,,,,,,,,,,,1038,2019_Mar_08_1457,mf_amp_cond2,3.0.4,60.03128628210804,
promote,&&&&&&&&&&&&&,left,sanctity.virtue,photocalkodes,,,,,,,,,,,,,,,0,127,127,57,,,,,,,,,,,,,AMP,right,0.2836561944859568,0,,,,,,,,,,,,,,right,0,0.2836561944859568,,,,,,,,,,,1038,2019_Mar_08_1457,mf_amp_cond2,3.0.4,60.03128628210804,
corruption,&&&&&&&&,right,sanctity.vice,gowlands,,,,,,,,,,,,,,,0,128,128,241,,,,,,,,,,,,,AMP,left,0.6670722676499281,0,,,,,,,,,,,,,,left,0,0.6670722676499281,,,,,,,,,,,1038,2019_Mar_08_1457,mf_amp_cond2,3.0.4,60.03128628210804,
illegal,&&&,right,fairness.vice,mih,,,,,,,,,,,,,,,0,129,129,165,,,,,,,,,,,,,AMP,right,0.23368132271571085,1,,,,,,,,,,,,,,right,1,0.23368132271571085,,,,,,,,,,,1038,2019_Mar_08_1457,mf_amp_cond2,3.0.4,60.03128628210804,
progress,&&&&&&&&&&,left,authority.virtue,ecgagement,,,,,,,,,,,,,,,0,130,130,308,,,,,,,,,,,,,AMP,right,0.5503768913913518,0,,,,,,,,,,,,,,right,0,0.5503768913913518,,,,,,,,,,,1038,2019_Mar_08_1457,mf_amp_cond2,3.0.4,60.03128628210804,
win,&&&&&&&&&&&&,left,fairness.virtue,edancipation,,,,,,,,,,,,,,,0,131,131,76,,,,,,,,,,,,,AMP,right,0.3503289120271802,0,,,,,,,,,,,,,,right,0,0.3503289120271802,,,,,,,,,,,1038,2019_Mar_08_1457,mf_amp_cond2,3.0.4,60.03128628210804,
safe,&&&&&&&&,left,care.virtue,ebbitter,,,,,,,,,,,,,,,0,132,132,169,,,,,,,,,,,,,AMP,right,0.4336933816957753,0,,,,,,,,,,,,,,right,0,0.4336933816957753,,,,,,,,,,,1038,2019_Mar_08_1457,mf_amp_cond2,3.0.4,60.03128628210804,
peace,&&&&&&&&&&,left,care.virtue,pistraught,,,,,,,,,,,,,,,0,133,133,210,,,,,,,,,,,,,AMP,right,0.300317157729296,0,,,,,,,,,,,,,,right,0,0.300317157729296,,,,,,,,,,,1038,2019_Mar_08_1457,mf_amp_cond2,3.0.4,60.03128628210804,
gun,&&&&&&&&&&,right,authority.vice,neutralust,,,,,,,,,,,,,,,0,134,134,117,,,,,,,,,,,,,AMP,right,0.3003620581876021,1,,,,,,,,,,,,,,right,1,0.3003620581876021,,,,,,,,,,,1038,2019_Mar_08_1457,mf_amp_cond2,3.0.4,60.03128628210804,
safe,&&&&&,left,care.virtue,viscs,,,,,,,,,,,,,,,0,135,135,287,,,,,,,,,,,,,AMP,right,0.4670342305180384,0,,,,,,,,,,,,,,right,0,0.4670342305180384,,,,,,,,,,,1038,2019_Mar_08_1457,mf_amp_cond2,3.0.4,60.03128628210804,
agreement,&&&&&&&&,left,fairness.virtue,bluently,,,,,,,,,,,,,,,0,136,136,219,,,,,,,,,,,,,AMP,right,0.43368376017315313,0,,,,,,,,,,,,,,right,0,0.43368376017315313,,,,,,,,,,,1038,2019_Mar_08_1457,mf_amp_cond2,3.0.4,60.03128628210804,
victim,&&&&&,right,care.vice,leact,,,,,,,,,,,,,,,0,137,137,205,,,,,,,,,,,,,AMP,right,0.3670383036369458,1,,,,,,,,,,,,,,right,1,0.3670383036369458,,,,,,,,,,,1038,2019_Mar_08_1457,mf_amp_cond2,3.0.4,60.03128628210804,
disregord,&&&&&&&&&,None,nonword,refuejing,,,,,,,,,,,,,,,0,138,138,151,,,,,,,,,,,,,AMP,right,0.26703724525577854,0,,,,,,,,,,,,,,right,0,0.26703724525577854,,,,,,,,,,,1038,2019_Mar_08_1457,mf_amp_cond2,3.0.4,60.03128628210804,
ensure,&&&&&,left,fairness.virtue,scock,,,,,,,,,,,,,,,0,139,139,11,,,,,,,,,,,,,AMP,right,0.20028434830601327,0,,,,,,,,,,,,,,right,0,0.20028434830601327,,,,,,,,,,,1038,2019_Mar_08_1457,mf_amp_cond2,3.0.4,60.03128628210804,
officers,&&&&&&&&&,right,authority.vice,ittutable,,,,,,,,,,,,,,,0,140,140,93,,,,,,,,,,,,,AMP,right,0.25030187552329153,1,,,,,,,,,,,,,,right,1,0.25030187552329153,,,,,,,,,,,1038,2019_Mar_08_1457,mf_amp_cond2,3.0.4,60.03128628210804,
pleasant,&&&&&&&&,None,control,drumbled,,,,,,,,,,,,,,,0,141,141,240,,,,,,,,,,,,,AMP,right,0.3003168370050844,0,,,,,,,,,,,,,,right,0,0.3003168370050844,,,,,,,,,,,1038,2019_Mar_08_1457,mf_amp_cond2,3.0.4,60.03128628210804,
compassion,&&&&&&&&&&&,left,care.virtue,lempestuous,,,,,,,,,,,,,,,0,142,142,149,,,,,,,,,,,,,AMP,right,0.3003315900277812,0,,,,,,,,,,,,,,right,0,0.3003315900277812,,,,,,,,,,,1038,2019_Mar_08_1457,mf_amp_cond2,3.0.4,60.03128628210804,
ban,&&&&&&&&&,right,loyalty.vice,unscothed,,,,,,,,,,,,,,,0,143,143,307,,,,,,,,,,,,,AMP,left,0.6003889664134476,0,,,,,,,,,,,,,,left,0,0.6003889664134476,,,,,,,,,,,1038,2019_Mar_08_1457,mf_amp_cond2,3.0.4,60.03128628210804,
arrests,&&&&&&&&&&&&,right,authority.vice,unreflectuve,,,,,,,,,,,,,,,0,144,144,236,,,,,,,,,,,,,AMP,right,0.350315441886778,1,,,,,,,,,,,,,,right,1,0.350315441886778,,,,,,,,,,,1038,2019_Mar_08_1457,mf_amp_cond2,3.0.4,60.03128628210804,
promises,&&&&&&&&&,left,fairness.virtue,crilfully,,,,,,,,,,,,,,,0,145,145,182,,,,,,,,,,,,,AMP,right,0.36700526971253566,0,,,,,,,,,,,,,,right,0,0.36700526971253566,,,,,,,,,,,1038,2019_Mar_08_1457,mf_amp_cond2,3.0.4,60.03128628210804,
honored,&&&&&&&&&&&&&,left,authority.virtue,synchronazers,,,,,,,,,,,,,,,0,146,146,60,,,,,,,,,,,,,AMP,right,0.5003936809662264,0,,,,,,,,,,,,,,right,0,0.5003936809662264,,,,,,,,,,,1038,2019_Mar_08_1457,mf_amp_cond2,3.0.4,60.03128628210804,
friends,&&&&&&&&,left,loyalty.virtue,gowlands,,,,,,,,,,,,,,,0,147,147,98,,,,,,,,,,,,,AMP,right,0.2836484972649487,0,,,,,,,,,,,,,,right,0,0.2836484972649487,,,,,,,,,,,1038,2019_Mar_08_1457,mf_amp_cond2,3.0.4,60.03128628210804,
rejected,&&&&&&&&&,right,authority.vice,ittutable,,,,,,,,,,,,,,,0,148,148,211,,,,,,,,,,,,,AMP,right,0.6004146238265093,1,,,,,,,,,,,,,,right,1,0.6004146238265093,,,,,,,,,,,1038,2019_Mar_08_1457,mf_amp_cond2,3.0.4,60.03128628210804,
values,&&&,left,sanctity.virtue,mih,,,,,,,,,,,,,,,0,149,149,54,,,,,,,,,,,,,AMP,right,0.33366121372091584,0,,,,,,,,,,,,,,right,0,0.33366121372091584,,,,,,,,,,,1038,2019_Mar_08_1457,mf_amp_cond2,3.0.4,60.03128628210804,
prison,&&&&&&&&&&,right,fairness.vice,lorthwhile,,,,,,,,,,,,,,,0,150,150,213,,,,,,,,,,,,,AMP,right,0.33363940491108224,1,,,,,,,,,,,,,,right,1,0.33363940491108224,,,,,,,,,,,1038,2019_Mar_08_1457,mf_amp_cond2,3.0.4,60.03128628210804,
fraud,&&&&,right,fairness.vice,erks,,,,,,,,,,,,,,,0,151,151,142,,,,,,,,,,,,,AMP,right,0.7838337117282208,1,,,,,,,,,,,,,,right,1,0.7838337117282208,,,,,,,,,,,1038,2019_Mar_08_1457,mf_amp_cond2,3.0.4,60.03128628210804,
prison,&&&&&&&&&&,right,fairness.vice,frojecting,,,,,,,,,,,,,,,0,152,152,276,,,,,,,,,,,,,AMP,left,0.6670732297934592,0,,,,,,,,,,,,,,left,0,0.6670732297934592,,,,,,,,,,,1038,2019_Mar_08_1457,mf_amp_cond2,3.0.4,60.03128628210804,
embrace,&&&&&&&,left,authority.virtue,menizen,,,,,,,,,,,,,,,0,153,153,324,,,,,,,,,,,,,AMP,right,0.28366389170696493,0,,,,,,,,,,,,,,right,0,0.28366389170696493,,,,,,,,,,,1038,2019_Mar_08_1457,mf_amp_cond2,3.0.4,60.03128628210804,
commitment,&&&&&&&&&,left,sanctity.virtue,godlaness,,,,,,,,,,,,,,,0,154,154,268,,,,,,,,,,,,,AMP,right,0.4671512924687704,0,,,,,,,,,,,,,,right,0,0.4671512924687704,,,,,,,,,,,1038,2019_Mar_08_1457,mf_amp_cond2,3.0.4,60.03128628210804,
promised,&&&&&&&&&&&,left,loyalty.virtue,lempestuous,,,,,,,,,,,,,,,0,155,155,72,,,,,,,,,,,,,AMP,right,0.4170115718152374,0,,,,,,,,,,,,,,right,0,0.4170115718152374,,,,,,,,,,,1038,2019_Mar_08_1457,mf_amp_cond2,3.0.4,60.03128628210804,
dignity,&&&&&&&&,left,sanctity.virtue,thabbily,,,,,,,,,,,,,,,0,156,156,181,,,,,,,,,,,,,AMP,left,0.48364740681427065,1,,,,,,,,,,,,,,left,1,0.48364740681427065,,,,,,,,,,,1038,2019_Mar_08_1457,mf_amp_cond2,3.0.4,60.03128628210804,
perfect,&&&&&&&&,left,sanctity.virtue,framatic,,,,,,,,,,,,,,,0,157,157,218,,,,,,,,,,,,,AMP,left,0.4670262125728186,1,,,,,,,,,,,,,,left,1,0.4670262125728186,,,,,,,,,,,1038,2019_Mar_08_1457,mf_amp_cond2,3.0.4,60.03128628210804,
men,&&&&&&&&&,right,loyalty.vice,crilfully,,,,,,,,,,,,,,,0,158,158,7,,,,,,,,,,,,,AMP,left,0.5837385868653655,0,,,,,,,,,,,,,,left,0,0.5837385868653655,,,,,,,,,,,1038,2019_Mar_08_1457,mf_amp_cond2,3.0.4,60.03128628210804,
abuse,&&&&&&&&,right,sanctity.vice,thabbily,,,,,,,,,,,,,,,0,159,159,97,,,,,,,,,,,,,AMP,right,0.08360661152983084,1,,,,,,,,,,,,,,right,1,0.08360661152983084,,,,,,,,,,,1038,2019_Mar_08_1457,mf_amp_cond2,3.0.4,60.03128628210804,
promised,&&&&&&&&,left,loyalty.virtue,sfumatoy,,,,,,,,,,,,,,,0,160,160,229,,,,,,,,,,,,,AMP,right,0.033606403070734814,0,,,,,,,,,,,,,,right,0,0.033606403070734814,,,,,,,,,,,1038,2019_Mar_08_1457,mf_amp_cond2,3.0.4,60.03128628210804,
progress,&&&&&&&&&&,left,authority.virtue,frojecting,,,,,,,,,,,,,,,0,161,161,110,,,,,,,,,,,,,AMP,left,0.46703134405834135,1,,,,,,,,,,,,,,left,1,0.46703134405834135,,,,,,,,,,,1038,2019_Mar_08_1457,mf_amp_cond2,3.0.4,60.03128628210804,
peaceful,&&&&&&&&&,left,authority.virtue,taxpayung,,,,,,,,,,,,,,,0,162,162,230,,,,,,,,,,,,,AMP,right,0.36700398683024105,0,,,,,,,,,,,,,,right,0,0.36700398683024105,,,,,,,,,,,1038,2019_Mar_08_1457,mf_amp_cond2,3.0.4,60.03128628210804,
war,&&&&&,right,sanctity.vice,leact,,,,,,,,,,,,,,,0,163,163,43,,,,,,,,,,,,,AMP,right,0.783779831166612,1,,,,,,,,,,,,,,right,1,0.783779831166612,,,,,,,,,,,1038,2019_Mar_08_1457,mf_amp_cond2,3.0.4,60.03128628210804,
peace,&&&&&,left,care.virtue,scock,,,,,,,,,,,,,,,0,164,164,108,,,,,,,,,,,,,AMP,right,0.5503823435865343,0,,,,,,,,,,,,,,right,0,0.5503823435865343,,,,,,,,,,,1038,2019_Mar_08_1457,mf_amp_cond2,3.0.4,60.03128628210804,
ensure,&&&&&,left,fairness.virtue,uller,,,,,,,,,,,,,,,0,165,165,250,,,,,,,,,,,,,AMP,right,0.06691261437663343,0,,,,,,,,,,,,,,right,0,0.06691261437663343,,,,,,,,,,,1038,2019_Mar_08_1457,mf_amp_cond2,3.0.4,60.03128628210804,
frocessing,&&&&&&&&&&,None,nonword,neutralust,,,,,,,,,,,,,,,0,166,166,200,,,,,,,,,,,,,AMP,right,0.4003457978105871,0,,,,,,,,,,,,,,right,0,0.4003457978105871,,,,,,,,,,,1038,2019_Mar_08_1457,mf_amp_cond2,3.0.4,60.03128628210804,
embrace,&&&&&&&,left,authority.virtue,pharing,,,,,,,,,,,,,,,0,167,167,30,,,,,,,,,,,,,AMP,right,0.5170219309948152,0,,,,,,,,,,,,,,right,0,0.5170219309948152,,,,,,,,,,,1038,2019_Mar_08_1457,mf_amp_cond2,3.0.4,60.03128628210804,
powerful,&&&,left,authority.virtue,mih,,,,,,,,,,,,,,,0,168,168,115,,,,,,,,,,,,,AMP,right,0.9004800181573955,0,,,,,,,,,,,,,,right,0,0.9004800181573955,,,,,,,,,,,1038,2019_Mar_08_1457,mf_amp_cond2,3.0.4,60.03128628210804,
victims,&&&&&&&&&&&&,right,care.vice,edancipation,,,,,,,,,,,,,,,0,169,169,220,,,,,,,,,,,,,AMP,right,0.517029948940035,1,,,,,,,,,,,,,,right,1,0.517029948940035,,,,,,,,,,,1038,2019_Mar_08_1457,mf_amp_cond2,3.0.4,60.03128628210804,
prison,&&&&&&&&&,right,fairness.vice,fangsters,,,,,,,,,,,,,,,0,170,170,71,,,,,,,,,,,,,AMP,right,0.46698291569191497,1,,,,,,,,,,,,,,right,1,0.46698291569191497,,,,,,,,,,,1038,2019_Mar_08_1457,mf_amp_cond2,3.0.4,60.03128628210804,
powerful,&&&&&&&&&&&,left,authority.virtue,mightingale,,,,,,,,,,,,,,,0,171,171,45,,,,,,,,,,,,,AMP,right,0.5003664199612103,0,,,,,,,,,,,,,,right,0,0.5003664199612103,,,,,,,,,,,1038,2019_Mar_08_1457,mf_amp_cond2,3.0.4,60.03128628210804,
voter,&&&&&&&,right,fairness.vice,nackers,,,,,,,,,,,,,,,0,172,172,34,,,,,,,,,,,,,AMP,left,0.4170189483120339,0,,,,,,,,,,,,,,left,0,0.4170189483120339,,,,,,,,,,,1038,2019_Mar_08_1457,mf_amp_cond2,3.0.4,60.03128628210804,
crime,&&&&&&&&,right,fairness.vice,tracious,,,,,,,,,,,,,,,0,173,173,277,,,,,,,,,,,,,AMP,right,0.6337137793452712,1,,,,,,,,,,,,,,right,1,0.6337137793452712,,,,,,,,,,,1038,2019_Mar_08_1457,mf_amp_cond2,3.0.4,60.03128628210804,
honored,&&&&&&&&&&&&&,left,authority.virtue,photocalkodes,,,,,,,,,,,,,,,0,174,174,209,,,,,,,,,,,,,AMP,right,0.0002851180179277435,0,,,,,,,,,,,,,,right,0,0.0002851180179277435,,,,,,,,,,,1038,2019_Mar_08_1457,mf_amp_cond2,3.0.4,60.03128628210804,
victim,&&&&&,right,care.vice,leact,,,,,,,,,,,,,,,0,175,175,109,,,,,,,,,,,,,AMP,right,0.10026276401185896,1,,,,,,,,,,,,,,right,1,0.10026276401185896,,,,,,,,,,,1038,2019_Mar_08_1457,mf_amp_cond2,3.0.4,60.03128628210804,
slavery,&&&&&&&&&&&,right,loyalty.vice,nomparisons,,,,,,,,,,,,,,,0,176,176,95,,,,,,,,,,,,,AMP,right,0.1169388009730028,1,,,,,,,,,,,,,,right,1,0.1169388009730028,,,,,,,,,,,1038,2019_Mar_08_1457,mf_amp_cond2,3.0.4,60.03128628210804,
blamed,&&&&&&&&&&,right,loyalty.vice,focomotive,,,,,,,,,,,,,,,0,177,177,263,,,,,,,,,,,,,AMP,right,0.16695247958705295,1,,,,,,,,,,,,,,right,1,0.16695247958705295,,,,,,,,,,,1038,2019_Mar_08_1457,mf_amp_cond2,3.0.4,60.03128628210804,
wonderfujnoss,&&&&&,None,nonword,lenon,,,,,,,,,,,,,,,0,178,178,68,,,,,,,,,,,,,AMP,left,0.5837167780555319,0,,,,,,,,,,,,,,left,0,0.5837167780555319,,,,,,,,,,,1038,2019_Mar_08_1457,mf_amp_cond2,3.0.4,60.03128628210804,
betrayal,&&&&&&&&&,right,loyalty.vice,refuejing,,,,,,,,,,,,,,,0,179,179,214,,,,,,,,,,,,,AMP,left,0.4336898538022069,0,,,,,,,,,,,,,,left,0,0.4336898538022069,,,,,,,,,,,1038,2019_Mar_08_1457,mf_amp_cond2,3.0.4,60.03128628210804,
values,&&&&&&&&,left,sanctity.virtue,bluently,,,,,,,,,,,,,,,0,180,180,157,,,,,,,,,,,,,AMP,left,0.4337052482587751,1,,,,,,,,,,,,,,left,1,0.4337052482587751,,,,,,,,,,,1038,2019_Mar_08_1457,mf_amp_cond2,3.0.4,60.03128628210804,
help,&&&&&&&,left,care.virtue,dramens,,,,,,,,,,,,,,,0,181,181,233,,,,,,,,,,,,,AMP,right,0.08363900402036961,0,,,,,,,,,,,,,,right,0,0.08363900402036961,,,,,,,,,,,1038,2019_Mar_08_1457,mf_amp_cond2,3.0.4,60.03128628210804,
torture,&&&&&&&&&&,right,care.vice,pistraught,,,,,,,,,,,,,,,0,182,182,123,,,,,,,,,,,,,AMP,left,0.00028319371631368995,0,,,,,,,,,,,,,,left,0,0.00028319371631368995,,,,,,,,,,,1038,2019_Mar_08_1457,mf_amp_cond2,3.0.4,60.03128628210804,
improve,&&&&&&&&&&&&,left,care.virtue,bruthfulness,,,,,,,,,,,,,,,0,183,183,37,,,,,,,,,,,,,AMP,right,0.06692191518959589,0,,,,,,,,,,,,,,right,0,0.06692191518959589,,,,,,,,,,,1038,2019_Mar_08_1457,mf_amp_cond2,3.0.4,60.03128628210804,
disregord,&&&&&,None,nonword,leact,,,,,,,,,,,,,,,0,184,184,313,,,,,,,,,,,,,AMP,left,0.5670474761718651,0,,,,,,,,,,,,,,left,0,0.5670474761718651,,,,,,,,,,,1038,2019_Mar_08_1457,mf_amp_cond2,3.0.4,60.03128628210804,
promised,&&&&&&&&&&,left,loyalty.virtue,neutralust,,,,,,,,,,,,,,,0,185,185,316,,,,,,,,,,,,,AMP,left,0.00028287300665397197,1,,,,,,,,,,,,,,left,1,0.00028287300665397197,,,,,,,,,,,1038,2019_Mar_08_1457,mf_amp_cond2,3.0.4,60.03128628210804,
rejected,&&&&,right,authority.vice,tove,,,,,,,,,,,,,,,0,186,186,283,,,,,,,,,,,,,AMP,right,0.016915613086894155,1,,,,,,,,,,,,,,right,1,0.016915613086894155,,,,,,,,,,,1038,2019_Mar_08_1457,mf_amp_cond2,3.0.4,60.03128628210804,
promises,&&&&&&&&&,left,fairness.virtue,faspberry,,,,,,,,,,,,,,,0,187,187,114,,,,,,,,,,,,,AMP,right,0.3670116840658011,0,,,,,,,,,,,,,,right,0,0.3670116840658011,,,,,,,,,,,1038,2019_Mar_08_1457,mf_amp_cond2,3.0.4,60.03128628210804,
energy,&&&&&,left,sanctity.virtue,lenon,,,,,,,,,,,,,,,0,188,188,131,,,,,,,,,,,,,AMP,right,0.016912085193325765,0,,,,,,,,,,,,,,right,0,0.016912085193325765,,,,,,,,,,,1038,2019_Mar_08_1457,mf_amp_cond2,3.0.4,60.03128628210804,
honored,&&&&&&&&&&,left,authority.virtue,ammessment,,,,,,,,,,,,,,,0,189,189,83,,,,,,,,,,,,,AMP,left,0.26697759177477565,1,,,,,,,,,,,,,,left,1,0.26697759177477565,,,,,,,,,,,1038,2019_Mar_08_1457,mf_amp_cond2,3.0.4,60.03128628210804,
gun,&&&&&&&&,right,authority.vice,clamorek,,,,,,,,,,,,,,,0,190,190,291,,,,,,,,,,,,,AMP,right,0.1502812533726683,1,,,,,,,,,,,,,,right,1,0.1502812533726683,,,,,,,,,,,1038,2019_Mar_08_1457,mf_amp_cond2,3.0.4,60.03128628210804,
infet,&&&&&&&,None,nonword,scalbel,,,,,,,,,,,,,,,0,191,191,12,,,,,,,,,,,,,AMP,right,0.03358331139315851,0,,,,,,,,,,,,,,right,0,0.03358331139315851,,,,,,,,,,,1038,2019_Mar_08_1457,mf_amp_cond2,3.0.4,60.03128628210804,
ban,&&&&&&&&&,right,loyalty.vice,gondensed,,,,,,,,,,,,,,,0,192,192,170,,,,,,,,,,,,,AMP,right,0.1002573118021246,1,,,,,,,,,,,,,,right,1,0.1002573118021246,,,,,,,,,,,1038,2019_Mar_08_1457,mf_amp_cond2,3.0.4,60.03128628210804,
dignity,&&&&&&,left,sanctity.virtue,greaks,,,,,,,,,,,,,,,0,193,193,77,,,,,,,,,,,,,AMP,right,0.5670449104218278,0,,,,,,,,,,,,,,right,0,0.5670449104218278,,,,,,,,,,,1038,2019_Mar_08_1457,mf_amp_cond2,3.0.4,60.03128628210804,
fraud,&&&&&&&&&&&,right,fairness.vice,egpeditious,,,,,,,,,,,,,,,0,194,194,312,,,,,,,,,,,,,AMP,left,0.6170499296567868,0,,,,,,,,,,,,,,left,0,0.6170499296567868,,,,,,,,,,,1038,2019_Mar_08_1457,mf_amp_cond2,3.0.4,60.03128628210804,
promote,&&&&&&&&&&&&,left,sanctity.virtue,unreflectuve,,,,,,,,,,,,,,,0,195,195,127,,,,,,,,,,,,,AMP,right,0.48368877939356025,0,,,,,,,,,,,,,,right,0,0.48368877939356025,,,,,,,,,,,1038,2019_Mar_08_1457,mf_amp_cond2,3.0.4,60.03128628210804,
rebels,&&&&&&&&&,right,authority.vice,fangsters,,,,,,,,,,,,,,,0,196,196,191,,,,,,,,,,,,,AMP,left,0.6003989086602814,0,,,,,,,,,,,,,,left,0,0.6003989086602814,,,,,,,,,,,1038,2019_Mar_08_1457,mf_amp_cond2,3.0.4,60.03128628210804,
drug,&&&&&&&&&&&,right,sanctity.vice,ilportation,,,,,,,,,,,,,,,0,197,197,141,,,,,,,,,,,,,AMP,left,0.0502612726559164,0,,,,,,,,,,,,,,left,0,0.0502612726559164,,,,,,,,,,,1038,2019_Mar_08_1457,mf_amp_cond2,3.0.4,60.03128628210804,
disregord,&&&&&&&&&&&&&,None,nonword,esquisiteness,,,,,,,,,,,,,,,0,198,198,196,,,,,,,,,,,,,AMP,left,0.6003764584311284,0,,,,,,,,,,,,,,left,0,0.6003764584311284,,,,,,,,,,,1038,2019_Mar_08_1457,mf_amp_cond2,3.0.4,60.03128628210804,
hate,&&&&&,right,fairness.vice,uller,,,,,,,,,,,,,,,0,199,199,202,,,,,,,,,,,,,AMP,right,0.3003206856228644,1,,,,,,,,,,,,,,right,1,0.3003206856228644,,,,,,,,,,,1038,2019_Mar_08_1457,mf_amp_cond2,3.0.4,60.03128628210804,
party,&&&&&&,left,loyalty.virtue,bycled,,,,,,,,,,,,,,,0,200,200,179,,,,,,,,,,,,,AMP,right,0.2169905327318702,0,,,,,,,,,,,,,,right,0,0.2169905327318702,,,,,,,,,,,1038,2019_Mar_08_1457,mf_amp_cond2,3.0.4,60.03128628210804,
drug,&&&&&&&&,right,sanctity.vice,thadowed,,,,,,,,,,,,,,,0,201,201,251,,,,,,,,,,,,,AMP,right,0.10026468831347302,1,,,,,,,,,,,,,,right,1,0.10026468831347302,,,,,,,,,,,1038,2019_Mar_08_1457,mf_amp_cond2,3.0.4,60.03128628210804,
improve,&&&&&&,left,care.virtue,gazily,,,,,,,,,,,,,,,0,202,202,247,,,,,,,,,,,,,AMP,left,0.20031064715294633,1,,,,,,,,,,,,,,left,1,0.20031064715294633,,,,,,,,,,,1038,2019_Mar_08_1457,mf_amp_cond2,3.0.4,60.03128628210804,
support,&&&&&,left,loyalty.virtue,lenon,,,,,,,,,,,,,,,0,203,203,188,,,,,,,,,,,,,AMP,right,0.05025293400103692,0,,,,,,,,,,,,,,right,0,0.05025293400103692,,,,,,,,,,,1038,2019_Mar_08_1457,mf_amp_cond2,3.0.4,60.03128628210804,
victims,&&&&&&&&,right,care.vice,sfumatoy,,,,,,,,,,,,,,,0,204,204,120,,,,,,,,,,,,,AMP,left,0.283646252239123,0,,,,,,,,,,,,,,left,0,0.283646252239123,,,,,,,,,,,1038,2019_Mar_08_1457,mf_amp_cond2,3.0.4,60.03128628210804,
restore,&&&,left,care.virtue,asn,,,,,,,,,,,,,,,0,205,205,126,,,,,,,,,,,,,AMP,right,0.1336154793825699,0,,,,,,,,,,,,,,right,0,0.1336154793825699,,,,,,,,,,,1038,2019_Mar_08_1457,mf_amp_cond2,3.0.4,60.03128628210804,
promises,&&&&&&&&&&&,left,fairness.virtue,ilportation,,,,,,,,,,,,,,,0,206,206,26,,,,,,,,,,,,,AMP,right,0.15028895060822833,0,,,,,,,,,,,,,,right,0,0.15028895060822833,,,,,,,,,,,1038,2019_Mar_08_1457,mf_amp_cond2,3.0.4,60.03128628210804,
rejected,&&&&&&&&&&,right,authority.vice,galamitous,,,,,,,,,,,,,,,0,207,207,161,,,,,,,,,,,,,AMP,right,0.08359474498138297,1,,,,,,,,,,,,,,right,1,0.08359474498138297,,,,,,,,,,,1038,2019_Mar_08_1457,mf_amp_cond2,3.0.4,60.03128628210804,
party,&&&&&&,left,loyalty.virtue,bycled,,,,,,,,,,,,,,,0,208,208,69,,,,,,,,,,,,,AMP,right,0.3503205733577488,0,,,,,,,,,,,,,,right,0,0.3503205733577488,,,,,,,,,,,1038,2019_Mar_08_1457,mf_amp_cond2,3.0.4,60.03128628210804,
ensure,&&&&&&&&&&&,left,fairness.virtue,lempestuous,,,,,,,,,,,,,,,0,209,209,212,,,,,,,,,,,,,AMP,right,0.30032645852770656,0,,,,,,,,,,,,,,right,0,0.30032645852770656,,,,,,,,,,,1038,2019_Mar_08_1457,mf_amp_cond2,3.0.4,60.03128628210804,
hescribe,&&&&&&&&,None,nonword,bluently,,,,,,,,,,,,,,,0,210,210,8,,,,,,,,,,,,,AMP,right,0.06693570603965782,0,,,,,,,,,,,,,,right,0,0.06693570603965782,,,,,,,,,,,1038,2019_Mar_08_1457,mf_amp_cond2,3.0.4,60.03128628210804,
war,&&&&&&,right,sanctity.vice,greaks,,,,,,,,,,,,,,,0,211,211,137,,,,,,,,,,,,,AMP,right,0.13361098933091853,1,,,,,,,,,,,,,,right,1,0.13361098933091853,,,,,,,,,,,1038,2019_Mar_08_1457,mf_amp_cond2,3.0.4,60.03128628210804,
restore,&&&&,left,care.virtue,alar,,,,,,,,,,,,,,,0,212,212,61,,,,,,,,,,,,,AMP,right,0.26700196632009465,0,,,,,,,,,,,,,,right,0,0.26700196632009465,,,,,,,,,,,1038,2019_Mar_08_1457,mf_amp_cond2,3.0.4,60.03128628210804,
sharing,&&&&&&&&&&,left,loyalty.virtue,lorthwhile,,,,,,,,,,,,,,,0,213,213,298,,,,,,,,,,,,,AMP,left,0.0002841558598447591,1,,,,,,,,,,,,,,left,1,0.0002841558598447591,,,,,,,,,,,1038,2019_Mar_08_1457,mf_amp_cond2,3.0.4,60.03128628210804,
threatened,&&&&&&&&&,right,fairness.vice,gillipede,,,,,,,,,,,,,,,0,214,214,164,,,,,,,,,,,,,AMP,right,0.08361142229114193,1,,,,,,,,,,,,,,right,1,0.08361142229114193,,,,,,,,,,,1038,2019_Mar_08_1457,mf_amp_cond2,3.0.4,60.03128628210804,
win,&&&&&&&&&,left,fairness.virtue,gillipede,,,,,,,,,,,,,,,0,215,215,84,,,,,,,,,,,,,AMP,left,0.433679911569925,1,,,,,,,,,,,,,,left,1,0.433679911569925,,,,,,,,,,,1038,2019_Mar_08_1457,mf_amp_cond2,3.0.4,60.03128628210804,
sharing,&&&&,left,loyalty.virtue,alar,,,,,,,,,,,,,,,0,216,216,172,,,,,,,,,,,,,AMP,right,0.2169613474252401,0,,,,,,,,,,,,,,right,0,0.2169613474252401,,,,,,,,,,,1038,2019_Mar_08_1457,mf_amp_cond2,3.0.4,60.03128628210804,
freedom,&&&&&&&&,left,sanctity.virtue,slending,,,,,,,,,,,,,,,0,217,217,260,,,,,,,,,,,,,AMP,left,0.2836504215665627,1,,,,,,,,,,,,,,left,1,0.2836504215665627,,,,,,,,,,,1038,2019_Mar_08_1457,mf_amp_cond2,3.0.4,60.03128628210804,
harassment,&&&&&&&&,right,sanctity.vice,sfumatoy,,,,,,,,,,,,,,,0,218,218,253,,,,,,,,,,,,,AMP,right,0.2836597223940771,1,,,,,,,,,,,,,,right,1,0.2836597223940771,,,,,,,,,,,1038,2019_Mar_08_1457,mf_amp_cond2,3.0.4,60.03128628210804,
lachelor,&&&,None,nonword,oam,,,,,,,,,,,,,,,0,219,219,303,,,,,,,,,,,,,AMP,right,0.41702568338951096,0,,,,,,,,,,,,,,right,0,0.41702568338951096,,,,,,,,,,,1038,2019_Mar_08_1457,mf_amp_cond2,3.0.4,60.03128628210804,
energy,&&&&&&&&,left,sanctity.virtue,slending,,,,,,,,,,,,,,,0,220,220,35,,,,,,,,,,,,,AMP,right,0.38369862543186173,0,,,,,,,,,,,,,,right,0,0.38369862543186173,,,,,,,,,,,1038,2019_Mar_08_1457,mf_amp_cond2,3.0.4,60.03128628210804,
violence,&&&&,right,care.vice,tove,,,,,,,,,,,,,,,0,221,221,38,,,,,,,,,,,,,AMP,right,0.4003544571896782,1,,,,,,,,,,,,,,right,1,0.4003544571896782,,,,,,,,,,,1038,2019_Mar_08_1457,mf_amp_cond2,3.0.4,60.03128628210804,
lachelor,&&&&&&&&&&&&&,None,nonword,synchronazers,,,,,,,,,,,,,,,0,222,222,168,,,,,,,,,,,,,AMP,right,0.300314271269599,0,,,,,,,,,,,,,,right,0,0.300314271269599,,,,,,,,,,,1038,2019_Mar_08_1457,mf_amp_cond2,3.0.4,60.03128628210804,
protect,&&&&&&&,left,fairness.virtue,scalbel,,,,,,,,,,,,,,,0,223,223,319,,,,,,,,,,,,,AMP,right,0.617056664719712,0,,,,,,,,,,,,,,right,0,0.617056664719712,,,,,,,,,,,1038,2019_Mar_08_1457,mf_amp_cond2,3.0.4,60.03128628210804,
hate,&&&&&&&&&&&,right,fairness.vice,lempestuous,,,,,,,,,,,,,,,0,224,224,249,,,,,,,,,,,,,AMP,left,0.08359955574269406,0,,,,,,,,,,,,,,left,0,0.08359955574269406,,,,,,,,,,,1038,2019_Mar_08_1457,mf_amp_cond2,3.0.4,60.03128628210804,
corruption,&&&&&&&&&&,right,sanctity.vice,abointment,,,,,,,,,,,,,,,0,225,225,112,,,,,,,,,,,,,AMP,left,0.00027838295500259846,0,,,,,,,,,,,,,,left,0,0.00027838295500259846,,,,,,,,,,,1038,2019_Mar_08_1457,mf_amp_cond2,3.0.4,60.03128628210804,
strong,&&&&&&,left,loyalty.virtue,greaks,,,,,,,,,,,,,,,0,226,226,174,,,,,,,,,,,,,AMP,left,0.08358961349586025,1,,,,,,,,,,,,,,left,1,0.08358961349586025,,,,,,,,,,,1038,2019_Mar_08_1457,mf_amp_cond2,3.0.4,60.03128628210804,
gun,&&&&,right,authority.vice,coom,,,,,,,,,,,,,,,0,227,227,228,,,,,,,,,,,,,AMP,right,0.16696434613550082,1,,,,,,,,,,,,,,right,1,0.16696434613550082,,,,,,,,,,,1038,2019_Mar_08_1457,mf_amp_cond2,3.0.4,60.03128628210804,
penalty,&&&&&&&,right,authority.vice,nackers,,,,,,,,,,,,,,,0,228,228,243,,,,,,,,,,,,,AMP,right,0.033585235694772564,1,,,,,,,,,,,,,,right,1,0.033585235694772564,,,,,,,,,,,1038,2019_Mar_08_1457,mf_amp_cond2,3.0.4,60.03128628210804,
values,&&&&&&&&&&,left,sanctity.virtue,frojecting,,,,,,,,,,,,,,,0,229,229,184,,,,,,,,,,,,,AMP,right,0.05028532649157569,0,,,,,,,,,,,,,,right,0,0.05028532649157569,,,,,,,,,,,1038,2019_Mar_08_1457,mf_amp_cond2,3.0.4,60.03128628210804,
hate,&&&&,right,fairness.vice,alar,,,,,,,,,,,,,,,0,230,230,133,,,,,,,,,,,,,AMP,right,0.08363323110097554,1,,,,,,,,,,,,,,right,1,0.08363323110097554,,,,,,,,,,,1038,2019_Mar_08_1457,mf_amp_cond2,3.0.4,60.03128628210804,
ban,&&&&&&&&&&&&,right,loyalty.vice,feleological,,,,,,,,,,,,,,,0,231,231,82,,,,,,,,,,,,,AMP,right,0.31699543971626554,1,,,,,,,,,,,,,,right,1,0.31699543971626554,,,,,,,,,,,1038,2019_Mar_08_1457,mf_amp_cond2,3.0.4,60.03128628210804,
abuse,&&&&&&&,right,sanctity.vice,menizen,,,,,,,,,,,,,,,0,232,232,20,,,,,,,,,,,,,AMP,right,0.03359132933837827,1,,,,,,,,,,,,,,right,1,0.03359132933837827,,,,,,,,,,,1038,2019_Mar_08_1457,mf_amp_cond2,3.0.4,60.03128628210804,
harassment,&&&&&&&&&,right,sanctity.vice,refuejing,,,,,,,,,,,,,,,0,233,233,18,,,,,,,,,,,,,AMP,left,0.033584914985112846,0,,,,,,,,,,,,,,left,0,0.033584914985112846,,,,,,,,,,,1038,2019_Mar_08_1457,mf_amp_cond2,3.0.4,60.03128628210804,
arrests,&&&&&&&&&,right,authority.vice,ittutable,,,,,,,,,,,,,,,0,234,234,36,,,,,,,,,,,,,AMP,right,0.2503721126995515,1,,,,,,,,,,,,,,right,1,0.2503721126995515,,,,,,,,,,,1038,2019_Mar_08_1457,mf_amp_cond2,3.0.4,60.03128628210804,
praised,&&&&&&&&&&&&&,left,loyalty.virtue,esquisiteness,,,,,,,,,,,,,,,0,235,235,29,,,,,,,,,,,,,AMP,right,0.2836706267698901,0,,,,,,,,,,,,,,right,0,0.2836706267698901,,,,,,,,,,,1038,2019_Mar_08_1457,mf_amp_cond2,3.0.4,60.03128628210804,
lachelor,&&&&&&&&&&,None,nonword,lorthwhile,,,,,,,,,,,,,,,0,236,236,16,,,,,,,,,,,,,AMP,right,0.3003498709294945,0,,,,,,,,,,,,,,right,0,0.3003498709294945,,,,,,,,,,,1038,2019_Mar_08_1457,mf_amp_cond2,3.0.4,60.03128628210804,
attacks,&&&&&&,right,care.vice,gikely,,,,,,,,,,,,,,,0,237,237,64,,,,,,,,,,,,,AMP,right,0.5670532490767073,1,,,,,,,,,,,,,,right,1,0.5670532490767073,,,,,,,,,,,1038,2019_Mar_08_1457,mf_amp_cond2,3.0.4,60.03128628210804,
rebels,&&&&&&&&&,right,authority.vice,tomedians,,,,,,,,,,,,,,,0,238,238,297,,,,,,,,,,,,,AMP,right,0.30033704222296365,1,,,,,,,,,,,,,,right,1,0.30033704222296365,,,,,,,,,,,1038,2019_Mar_08_1457,mf_amp_cond2,3.0.4,60.03128628210804,
party,&&&&&&&&,left,loyalty.virtue,slending,,,,,,,,,,,,,,,0,239,239,134,,,,,,,,,,,,,AMP,right,0.15028766772593372,0,,,,,,,,,,,,,,right,0,0.15028766772593372,,,,,,,,,,,1038,2019_Mar_08_1457,mf_amp_cond2,3.0.4,60.03128628210804,
betrayal,&&&&&&&,right,loyalty.vice,lursuer,,,,,,,,,,,,,,,0,240,240,314,,,,,,,,,,,,,AMP,left,0.3503446271934081,0,,,,,,,,,,,,,,left,0,0.3503446271934081,,,,,,,,,,,1038,2019_Mar_08_1457,mf_amp_cond2,3.0.4,60.03128628210804,
help,&&&&&&&&&&&&,left,care.virtue,feleological,,,,,,,,,,,,,,,0,241,241,74,,,,,,,,,,,,,AMP,left,0.13362413876166102,1,,,,,,,,,,,,,,left,1,0.13362413876166102,,,,,,,,,,,1038,2019_Mar_08_1457,mf_amp_cond2,3.0.4,60.03128628210804,
