words,nonwords,mask,corr_ans,category,tweets,topic,AMP_prac_loop.thisRepN,AMP_prac_loop.thisTrialN,AMP_prac_loop.thisN,AMP_prac_loop.thisIndex,AMP_trials.thisRepN,AMP_trials.thisTrialN,AMP_trials.thisN,AMP_trials.thisIndex,LDT_prac_loop.thisRepN,LDT_prac_loop.thisTrialN,LDT_prac_loop.thisN,LDT_prac_loop.thisIndex,LDT_loop.thisRepN,LDT_loop.thisTrialN,LDT_loop.thisN,LDT_loop.thisIndex,tweet_loop.thisRepN,tweet_loop.thisTrialN,tweet_loop.thisN,tweet_loop.thisIndex,begin_key.keys,begin_key.rt,key_resp_AMP_instr1.keys,key_resp_AMP_instr1.rt,resp_AMP_ready1.keys,resp_AMP_ready1.rt,resp_AMP_prac.keys,resp_AMP_prac.rt,task,keypress,RT,resp_AMP_ready.keys,resp_AMP_ready.rt,resp_AMP.keys,resp_AMP.corr,resp_AMP.rt,corr,AMP_nonword_rating.response,AMP_nonword_rating.rt,AMP_word_rating.response,AMP_word_rating.rt,AMP_random_rating.response,AMP_random_rating.rt,key_resp_LDT_instr.keys,key_resp_LDT_instr.rt,resp_LDT_prac.keys,resp_LDT_prac.rt,resp_LDT_ready.keys,resp_LDT_ready.rt,resp_LDT.keys,resp_LDT.corr,resp_LDT.rt,LDT_rating.response,LDT_rating.rt,key_resp_LDT_instr_2.keys,key_resp_LDT_instr_2.rt,resp_tweets.keys,resp_tweets.rt,participant,date,expName,psychopyVersion,frameRate,
,,,,,,,,,,,,,,,,,,,,,,,,,,,right,464.03259901127603,,,,,,,,,,,,,,,,,,,,,,,,,,,,,,,,,,,,,1039,2019_Mar_08_1459,mf_amp_cond1,3.0.4,60.00173194327287,
,,,,,,,,,,,,,,,,,,,,,,,,,,,,,right,0.6836276586982422,,,,,,,,,,,,,,,,,,,,,,,,,,,,,,,,,,,1039,2019_Mar_08_1459,mf_amp_cond1,3.0.4,60.00173194327287,
,,,,,,,,,,,,,,,,,,,,,,,,,,,,,,,right,2.867676423629746,,,,,,,,,,,,,,,,,,,,,,,,,,,,,,,,,1039,2019_Mar_08_1459,mf_amp_cond1,3.0.4,60.00173194327287,
keyboard,senk,&&&&,,,,,0,0,0,2,,,,,,,,,,,,,,,,,,,,,,,left,8.7024218900915,AMP_prac,left,8.7024218900915,,,,,,,,,,,,,,,,,,,,,,,,,,,,1039,2019_Mar_08_1459,mf_amp_cond1,3.0.4,60.00173194327287,
banana,kacket,&&&&&&,,,,,0,1,1,1,,,,,,,,,,,,,,,,,,,,,,,left,2.084117655744194,AMP_prac,left,2.084117655744194,,,,,,,,,,,,,,,,,,,,,,,,,,,,1039,2019_Mar_08_1459,mf_amp_cond1,3.0.4,60.00173194327287,
scarf,bisebell,&&&&&&&&,,,,,0,2,2,3,,,,,,,,,,,,,,,,,,,,,,,left,1.3505900298187044,AMP_prac,left,1.3505900298187044,,,,,,,,,,,,,,,,,,,,,,,,,,,,1039,2019_Mar_08_1459,mf_amp_cond1,3.0.4,60.00173194327287,
car,cemtuper,&&&&&&&&,,,,,0,3,3,0,,,,,,,,,,,,,,,,,,,,,,,left,0.700429252552567,AMP_prac,left,0.700429252552567,,,,,,,,,,,,,,,,,,,,,,,,,,,,1039,2019_Mar_08_1459,mf_amp_cond1,3.0.4,60.00173194327287,
,,,,,,,,,,,,,,,,,,,,,,,,,,,,,,,,,,,,,,right,1.8340527097898303,,,,,,,,,,,,,,,,,,,,,,,,,,1039,2019_Mar_08_1459,mf_amp_cond1,3.0.4,60.00173194327287,
accused,photocalkodes,&&&&&&&&&&&&&,right,fairness.vice,,,,,,,0,0,0,0,,,,,,,,,,,,,,,,,,,,,AMP,left,4.768105163035216,,,left,0,4.768105163035216,0,,,,,,,,,,,,,,,,,,,,,,1039,2019_Mar_08_1459,mf_amp_cond1,3.0.4,60.00173194327287,
clamorek,drumbled,&&&&&&&&,None,nonword,,,,,,,0,1,1,1,,,,,,,,,,,,,,,,,,,,,AMP,left,2.6342318643728504,,,left,0,2.6342318643728504,0,,,,,,,,,,,,,,,,,,,,,,1039,2019_Mar_08_1459,mf_amp_cond1,3.0.4,60.00173194327287,
voter,ronviolence,&&&&&&&&&&&,right,fairness.vice,,,,,,,0,2,2,2,,,,,,,,,,,,,,,,,,,,,AMP,left,2.834297419685754,,,left,0,2.834297419685754,0,,,,,,,,,,,,,,,,,,,,,,1039,2019_Mar_08_1459,mf_amp_cond1,3.0.4,60.00173194327287,
scandal,gedious,&&&&&&&,right,sanctity.vice,,,,,,,0,3,3,3,,,,,,,,,,,,,,,,,,,,,AMP,left,1.6673254269262543,,,left,0,1.6673254269262543,0,,,,,,,,,,,,,,,,,,,,,,1039,2019_Mar_08_1459,mf_amp_cond1,3.0.4,60.00173194327287,
men,ejanulated,&&&&&&&&&&,right,loyalty.vice,,,,,,,0,4,4,4,,,,,,,,,,,,,,,,,,,,,AMP,left,2.5008813404128887,,,left,0,2.5008813404128887,0,,,,,,,,,,,,,,,,,,,,,,1039,2019_Mar_08_1459,mf_amp_cond1,3.0.4,60.00173194327287,
troops,smapper,&&&&&&&,right,loyalty.vice,,,,,,,0,5,5,5,,,,,,,,,,,,,,,,,,,,,AMP,left,0.9504662957770051,,,left,0,0.9504662957770051,0,,,,,,,,,,,,,,,,,,,,,,1039,2019_Mar_08_1459,mf_amp_cond1,3.0.4,60.00173194327287,
fraud,noped,&&&&&,right,fairness.vice,,,,,,,0,6,6,6,,,,,,,,,,,,,,,,,,,,,AMP,left,1.1005526658555027,,,left,0,1.1005526658555027,0,,,,,,,,,,,,,,,,,,,,,,1039,2019_Mar_08_1459,mf_amp_cond1,3.0.4,60.00173194327287,
dumid,chonograph,&&&&&&&&&&,None,nonword,,,,,,,0,7,7,7,,,,,,,,,,,,,,,,,,,,,AMP,left,2.7676061216625385,,,left,0,2.7676061216625385,0,,,,,,,,,,,,,,,,,,,,,,1039,2019_Mar_08_1459,mf_amp_cond1,3.0.4,60.00173194327287,
hand,Oregoniuns,&&&&&&&&&&,left,sanctity.virtue,,,,,,,0,8,8,8,,,,,,,,,,,,,,,,,,,,,AMP,left,4.784808937067282,,,left,1,4.784808937067282,1,,,,,,,,,,,,,,,,,,,,,,1039,2019_Mar_08_1459,mf_amp_cond1,3.0.4,60.00173194327287,
growth,wump,&&&&,left,care.virtue,,,,,,,0,9,9,9,,,,,,,,,,,,,,,,,,,,,AMP,right,2.8509918928175466,,,right,0,2.8509918928175466,0,,,,,,,,,,,,,,,,,,,,,,1039,2019_Mar_08_1459,mf_amp_cond1,3.0.4,60.00173194327287,
help,focomotive,&&&&&&&&&&,left,care.virtue,,,,,,,0,10,10,10,,,,,,,,,,,,,,,,,,,,,AMP,right,0.817101339387591,,,right,0,0.817101339387591,0,,,,,,,,,,,,,,,,,,,,,,1039,2019_Mar_08_1459,mf_amp_cond1,3.0.4,60.00173194327287,
promised,supervuned,&&&&&&&&&&,left,loyalty.virtue,,,,,,,0,11,11,11,,,,,,,,,,,,,,,,,,,,,AMP,left,4.601399368431885,,,left,1,4.601399368431885,1,,,,,,,,,,,,,,,,,,,,,,1039,2019_Mar_08_1459,mf_amp_cond1,3.0.4,60.00173194327287,
perified,alar,&&&&,None,nonword,,,,,,,0,12,12,12,,,,,,,,,,,,,,,,,,,,,AMP,right,5.184881676512305,,,right,0,5.184881676512305,0,,,,,,,,,,,,,,,,,,,,,,1039,2019_Mar_08_1459,mf_amp_cond1,3.0.4,60.00173194327287,
fair,abointment,&&&&&&&&&&,left,fairness.virtue,,,,,,,0,13,13,13,,,,,,,,,,,,,,,,,,,,,AMP,right,1.9507353804219747,,,right,0,1.9507353804219747,0,,,,,,,,,,,,,,,,,,,,,,1039,2019_Mar_08_1459,mf_amp_cond1,3.0.4,60.00173194327287,
abuse,feleological,&&&&&&&&&&&&,right,sanctity.vice,,,,,,,0,14,14,14,,,,,,,,,,,,,,,,,,,,,AMP,left,1.2505591764929704,,,left,0,1.2505591764929704,0,,,,,,,,,,,,,,,,,,,,,,1039,2019_Mar_08_1459,mf_amp_cond1,3.0.4,60.00173194327287,
police,ammessment,&&&&&&&&&&,right,authority.vice,,,,,,,0,15,15,15,,,,,,,,,,,,,,,,,,,,,AMP,left,0.8004604266025126,,,left,0,0.8004604266025126,0,,,,,,,,,,,,,,,,,,,,,,1039,2019_Mar_08_1459,mf_amp_cond1,3.0.4,60.00173194327287,
powerful,gusinesslike,&&&&&&&&&&&&,left,authority.virtue,,,,,,,0,16,16,16,,,,,,,,,,,,,,,,,,,,,AMP,right,1.0505102986644488,,,right,0,1.0505102986644488,0,,,,,,,,,,,,,,,,,,,,,,1039,2019_Mar_08_1459,mf_amp_cond1,3.0.4,60.00173194327287,
drug,pulge,&&&&&,right,sanctity.vice,,,,,,,0,17,17,17,,,,,,,,,,,,,,,,,,,,,AMP,left,0.9171424557862338,,,left,0,0.9171424557862338,0,,,,,,,,,,,,,,,,,,,,,,1039,2019_Mar_08_1459,mf_amp_cond1,3.0.4,60.00173194327287,
increase,allears,&&&&&&&,left,care.virtue,,,,,,,0,18,18,18,,,,,,,,,,,,,,,,,,,,,AMP,left,2.6509349969710456,,,left,1,2.6509349969710456,1,,,,,,,,,,,,,,,,,,,,,,1039,2019_Mar_08_1459,mf_amp_cond1,3.0.4,60.00173194327287,
violence,forepo,&&&&&&,right,care.vice,,,,,,,0,19,19,19,,,,,,,,,,,,,,,,,,,,,AMP,left,0.4503559678851161,,,left,0,0.4503559678851161,0,,,,,,,,,,,,,,,,,,,,,,1039,2019_Mar_08_1459,mf_amp_cond1,3.0.4,60.00173194327287,
conspiracy,fornicalion,&&&&&&&&&&&,right,sanctity.vice,,,,,,,0,20,20,20,,,,,,,,,,,,,,,,,,,,,AMP,left,1.400454717775574,,,left,0,1.400454717775574,0,,,,,,,,,,,,,,,,,,,,,,1039,2019_Mar_08_1459,mf_amp_cond1,3.0.4,60.00173194327287,
ensure,blunderints,&&&&&&&&&&&,left,fairness.virtue,,,,,,,0,21,21,21,,,,,,,,,,,,,,,,,,,,,AMP,right,0.68374824966304,,,right,0,0.68374824966304,0,,,,,,,,,,,,,,,,,,,,,,1039,2019_Mar_08_1459,mf_amp_cond1,3.0.4,60.00173194327287,
credit,dormandi,&&&&&&&&,left,fairness.virtue,,,,,,,0,22,22,22,,,,,,,,,,,,,,,,,,,,,AMP,left,2.3174955051072175,,,left,1,2.3174955051072175,1,,,,,,,,,,,,,,,,,,,,,,1039,2019_Mar_08_1459,mf_amp_cond1,3.0.4,60.00173194327287,
health,synchronazers,&&&&&&&&&&&&&,left,care.virtue,,,,,,,0,23,23,23,,,,,,,,,,,,,,,,,,,,,AMP,left,4.701405526284361,,,left,1,4.701405526284361,1,,,,,,,,,,,,,,,,,,,,,,1039,2019_Mar_08_1459,mf_amp_cond1,3.0.4,60.00173194327287,
friends,ilportation,&&&&&&&&&&&,left,loyalty.virtue,,,,,,,0,24,24,24,,,,,,,,,,,,,,,,,,,,,AMP,right,0.8504598172294209,,,right,0,0.8504598172294209,0,,,,,,,,,,,,,,,,,,,,,,1039,2019_Mar_08_1459,mf_amp_cond1,3.0.4,60.00173194327287,
protect,unscothed,&&&&&&&&&,left,fairness.virtue,,,,,,,0,25,25,25,,,,,,,,,,,,,,,,,,,,,AMP,right,0.7504254359664628,,,right,0,0.7504254359664628,0,,,,,,,,,,,,,,,,,,,,,,1039,2019_Mar_08_1459,mf_amp_cond1,3.0.4,60.00173194327287,
rebels,tabin,&&&&&,right,authority.vice,,,,,,,0,26,26,26,,,,,,,,,,,,,,,,,,,,,AMP,left,0.650424088948057,,,left,0,0.650424088948057,0,,,,,,,,,,,,,,,,,,,,,,1039,2019_Mar_08_1459,mf_amp_cond1,3.0.4,60.00173194327287,
fonderland,frojecting,&&&&&&&&&&,None,nonword,,,,,,,0,27,27,27,,,,,,,,,,,,,,,,,,,,,AMP,right,3.184362429761677,,,right,0,3.184362429761677,0,,,,,,,,,,,,,,,,,,,,,,1039,2019_Mar_08_1459,mf_amp_cond1,3.0.4,60.00173194327287,
praise,metibolic,&&&&&&&&&,left,authority.virtue,,,,,,,0,28,28,28,,,,,,,,,,,,,,,,,,,,,AMP,right,0.3836701221152907,,,right,0,0.3836701221152907,0,,,,,,,,,,,,,,,,,,,,,,1039,2019_Mar_08_1459,mf_amp_cond1,3.0.4,60.00173194327287,
actively,touls,&&&&&,left,authority.virtue,,,,,,,0,29,29,29,,,,,,,,,,,,,,,,,,,,,AMP,right,0.8169990294991294,,,right,0,0.8169990294991294,0,,,,,,,,,,,,,,,,,,,,,,1039,2019_Mar_08_1459,mf_amp_cond1,3.0.4,60.00173194327287,
pleasant,elduringly,&&&&&&&&&&,None,control,,,,,,,0,30,30,30,,,,,,,,,,,,,,,,,,,,,AMP,right,2.067281103329151,,,right,0,2.067281103329151,0,,,,,,,,,,,,,,,,,,,,,,1039,2019_Mar_08_1459,mf_amp_cond1,3.0.4,60.00173194327287,
fear,lachelor,&&&&&&&&,right,sanctity.vice,,,,,,,0,31,31,31,,,,,,,,,,,,,,,,,,,,,AMP,left,1.0671823213633616,,,left,0,1.0671823213633616,0,,,,,,,,,,,,,,,,,,,,,,1039,2019_Mar_08_1459,mf_amp_cond1,3.0.4,60.00173194327287,
commitment,juck,&&&&,left,sanctity.virtue,,,,,,,0,32,32,32,,,,,,,,,,,,,,,,,,,,,AMP,right,0.6170649696578039,,,right,0,0.6170649696578039,0,,,,,,,,,,,,,,,,,,,,,,1039,2019_Mar_08_1459,mf_amp_cond1,3.0.4,60.00173194327287,
ban,erks,&&&&,right,loyalty.vice,,,,,,,0,33,33,33,,,,,,,,,,,,,,,,,,,,,AMP,left,1.86738360565505,,,left,0,1.86738360565505,0,,,,,,,,,,,,,,,,,,,,,,1039,2019_Mar_08_1459,mf_amp_cond1,3.0.4,60.00173194327287,
opportunity,precificity,&&&&&&&&&&&,left,fairness.virtue,,,,,,,0,34,34,34,,,,,,,,,,,,,,,,,,,,,AMP,right,0.6004070586786838,,,right,0,0.6004070586786838,0,,,,,,,,,,,,,,,,,,,,,,1039,2019_Mar_08_1459,mf_amp_cond1,3.0.4,60.00173194327287,
faspberry,sgrawl,&&&&&&,None,nonword,,,,,,,0,35,35,35,,,,,,,,,,,,,,,,,,,,,AMP,left,1.1005529865797143,,,left,0,1.1005529865797143,0,,,,,,,,,,,,,,,,,,,,,,1039,2019_Mar_08_1459,mf_amp_cond1,3.0.4,60.00173194327287,
victims,rivernoat,&&&&&&&&&,right,care.vice,,,,,,,0,36,36,36,,,,,,,,,,,,,,,,,,,,,AMP,left,1.583966596313985,,,left,0,1.583966596313985,0,,,,,,,,,,,,,,,,,,,,,,1039,2019_Mar_08_1459,mf_amp_cond1,3.0.4,60.00173194327287,
racist,discovars,&&&&&&&&&,right,sanctity.vice,,,,,,,0,37,37,37,,,,,,,,,,,,,,,,,,,,,AMP,left,0.43371216859668493,,,left,0,0.43371216859668493,0,,,,,,,,,,,,,,,,,,,,,,1039,2019_Mar_08_1459,mf_amp_cond1,3.0.4,60.00173194327287,
torture,vurtain,&&&&&&&,right,care.vice,,,,,,,0,38,38,38,,,,,,,,,,,,,,,,,,,,,AMP,left,1.1005626082042,,,left,0,1.1005626082042,0,,,,,,,,,,,,,,,,,,,,,,1039,2019_Mar_08_1459,mf_amp_cond1,3.0.4,60.00173194327287,
safety,gillipede,&&&&&&&&&,left,care.virtue,,,,,,,0,39,39,39,,,,,,,,,,,,,,,,,,,,,AMP,right,0.9671466572326608,,,right,0,0.9671466572326608,0,,,,,,,,,,,,,,,,,,,,,,1039,2019_Mar_08_1459,mf_amp_cond1,3.0.4,60.00173194327287,
black,ugeasily,&&&&&&&&,right,loyalty.vice,,,,,,,0,40,40,40,,,,,,,,,,,,,,,,,,,,,AMP,right,1.3005899977433728,,,right,1,1.3005899977433728,1,,,,,,,,,,,,,,,,,,,,,,1039,2019_Mar_08_1459,mf_amp_cond1,3.0.4,60.00173194327287,
injured,Boeinf,&&&&&&,right,care.vice,,,,,,,0,41,41,41,,,,,,,,,,,,,,,,,,,,,AMP,left,0.6003746658971068,,,left,0,0.6003746658971068,0,,,,,,,,,,,,,,,,,,,,,,1039,2019_Mar_08_1459,mf_amp_cond1,3.0.4,60.00173194327287,
crime,bycled,&&&&&&,right,fairness.vice,,,,,,,0,42,42,42,,,,,,,,,,,,,,,,,,,,,AMP,left,0.5503848968801321,,,left,0,0.5503848968801321,0,,,,,,,,,,,,,,,,,,,,,,1039,2019_Mar_08_1459,mf_amp_cond1,3.0.4,60.00173194327287,
threatened,fostet,&&&&&&,right,fairness.vice,,,,,,,0,43,43,43,,,,,,,,,,,,,,,,,,,,,AMP,left,1.48394985467894,,,left,0,1.48394985467894,0,,,,,,,,,,,,,,,,,,,,,,1039,2019_Mar_08_1459,mf_amp_cond1,3.0.4,60.00173194327287,
slavery,neputized,&&&&&&&&&,right,loyalty.vice,,,,,,,0,44,44,44,,,,,,,,,,,,,,,,,,,,,AMP,left,0.40034471057879273,,,left,0,0.40034471057879273,0,,,,,,,,,,,,,,,,,,,,,,1039,2019_Mar_08_1459,mf_amp_cond1,3.0.4,60.00173194327287,
killed,emassion,&&&&&&&&,right,care.vice,,,,,,,0,45,45,45,,,,,,,,,,,,,,,,,,,,,AMP,left,1.3837759599264245,,,left,0,1.3837759599264245,0,,,,,,,,,,,,,,,,,,,,,,1039,2019_Mar_08_1459,mf_amp_cond1,3.0.4,60.00173194327287,
slending,neutralust,&&&&&&&&&&,None,nonword,,,,,,,0,46,46,46,,,,,,,,,,,,,,,,,,,,,AMP,left,1.8673855299857678,,,left,0,1.8673855299857678,0,,,,,,,,,,,,,,,,,,,,,,1039,2019_Mar_08_1459,mf_amp_cond1,3.0.4,60.00173194327287,
died,gationwide,&&&&&&&&&&,right,care.vice,,,,,,,0,47,47,47,,,,,,,,,,,,,,,,,,,,,AMP,left,0.5503768788621528,,,left,0,0.5503768788621528,0,,,,,,,,,,,,,,,,,,,,,,1039,2019_Mar_08_1459,mf_amp_cond1,3.0.4,60.00173194327287,
intelligence,pumber,&&&&&&,left,loyalty.virtue,,,,,,,0,48,48,48,,,,,,,,,,,,,,,,,,,,,AMP,right,0.7004128957923967,,,right,0,0.7004128957923967,0,,,,,,,,,,,,,,,,,,,,,,1039,2019_Mar_08_1459,mf_amp_cond1,3.0.4,60.00173194327287,
restore,strofe,&&&&&&,left,care.virtue,,,,,,,0,49,49,49,,,,,,,,,,,,,,,,,,,,,AMP,right,1.217232770723058,,,right,0,1.217232770723058,0,,,,,,,,,,,,,,,,,,,,,,1039,2019_Mar_08_1459,mf_amp_cond1,3.0.4,60.00173194327287,
loyalty,seachwear,&&&&&&&&&,left,loyalty.virtue,,,,,,,0,50,50,50,,,,,,,,,,,,,,,,,,,,,AMP,right,0.43371569651935715,,,right,0,0.43371569651935715,0,,,,,,,,,,,,,,,,,,,,,,1039,2019_Mar_08_1459,mf_amp_cond1,3.0.4,60.00173194327287,
lies,gournful,&&&&&&&&,right,fairness.vice,,,,,,,0,51,51,51,,,,,,,,,,,,,,,,,,,,,AMP,left,0.6837569091294426,,,left,0,0.6837569091294426,0,,,,,,,,,,,,,,,,,,,,,,1039,2019_Mar_08_1459,mf_amp_cond1,3.0.4,60.00173194327287,
protesters,gikely,&&&&&&,right,authority.vice,,,,,,,0,52,52,52,,,,,,,,,,,,,,,,,,,,,AMP,left,2.934333725250326,,,left,0,2.934333725250326,0,,,,,,,,,,,,,,,,,,,,,,1039,2019_Mar_08_1459,mf_amp_cond1,3.0.4,60.00173194327287,
respect,pafer,&&&&&,left,sanctity.virtue,,,,,,,0,53,53,53,,,,,,,,,,,,,,,,,,,,,AMP,right,0.48369808895222377,,,right,0,0.48369808895222377,0,,,,,,,,,,,,,,,,,,,,,,1039,2019_Mar_08_1459,mf_amp_cond1,3.0.4,60.00173194327287,
betrayal,ebbitter,&&&&&&&&,right,loyalty.vice,,,,,,,0,54,54,54,,,,,,,,,,,,,,,,,,,,,AMP,left,0.4837166907527717,,,left,0,0.4837166907527717,0,,,,,,,,,,,,,,,,,,,,,,1039,2019_Mar_08_1459,mf_amp_cond1,3.0.4,60.00173194327287,
faith,proached,&&&&&&&&,left,sanctity.virtue,,,,,,,0,55,55,55,,,,,,,,,,,,,,,,,,,,,AMP,right,0.7171089725452475,,,right,0,0.7171089725452475,0,,,,,,,,,,,,,,,,,,,,,,1039,2019_Mar_08_1459,mf_amp_cond1,3.0.4,60.00173194327287,
promote,spag,&&&&,left,sanctity.virtue,,,,,,,0,56,56,56,,,,,,,,,,,,,,,,,,,,,AMP,right,0.817117054699338,,,right,0,0.817117054699338,0,,,,,,,,,,,,,,,,,,,,,,1039,2019_Mar_08_1459,mf_amp_cond1,3.0.4,60.00173194327287,
prosecution,imebreaker,&&&&&&&&&&,right,authority.vice,,,,,,,0,57,57,57,,,,,,,,,,,,,,,,,,,,,AMP,left,0.5170421343500493,,,left,0,0.5170421343500493,0,,,,,,,,,,,,,,,,,,,,,,1039,2019_Mar_08_1459,mf_amp_cond1,3.0.4,60.00173194327287,
embrace,tove,&&&&,left,authority.virtue,,,,,,,0,58,58,58,,,,,,,,,,,,,,,,,,,,,AMP,right,0.5170402100338833,,,right,0,0.5170402100338833,0,,,,,,,,,,,,,,,,,,,,,,1039,2019_Mar_08_1459,mf_amp_cond1,3.0.4,60.00173194327287,
useful,edancipation,&&&&&&&&&&&&,left,authority.virtue,,,,,,,0,59,59,59,,,,,,,,,,,,,,,,,,,,,AMP,right,1.3839177184709115,,,right,0,1.3839177184709115,0,,,,,,,,,,,,,,,,,,,,,,1039,2019_Mar_08_1459,mf_amp_cond1,3.0.4,60.00173194327287,
love,sonvoy,&&&&&&,left,loyalty.virtue,,,,,,,0,60,60,60,,,,,,,,,,,,,,,,,,,,,AMP,right,0.6337530284072272,,,right,0,0.6337530284072272,0,,,,,,,,,,,,,,,,,,,,,,1039,2019_Mar_08_1459,mf_amp_cond1,3.0.4,60.00173194327287,
honored,mecan,&&&&&,left,authority.virtue,,,,,,,0,61,61,61,,,,,,,,,,,,,,,,,,,,,AMP,right,0.5503826518397545,,,right,0,0.5503826518397545,0,,,,,,,,,,,,,,,,,,,,,,1039,2019_Mar_08_1459,mf_amp_cond1,3.0.4,60.00173194327287,
charges,divility,&&&&&&&&,right,fairness.vice,,,,,,,0,62,62,62,,,,,,,,,,,,,,,,,,,,,AMP,left,1.8840860968193738,,,left,0,1.8840860968193738,0,,,,,,,,,,,,,,,,,,,,,,1039,2019_Mar_08_1459,mf_amp_cond1,3.0.4,60.00173194327287,
suicide,emports,&&&&&&&,right,care.vice,,,,,,,0,63,63,63,,,,,,,,,,,,,,,,,,,,,AMP,left,0.5003662630042527,,,left,0,0.5003662630042527,0,,,,,,,,,,,,,,,,,,,,,,1039,2019_Mar_08_1459,mf_amp_cond1,3.0.4,60.00173194327287,
sexual,coom,&&&&,right,sanctity.vice,,,,,,,0,64,64,64,,,,,,,,,,,,,,,,,,,,,AMP,left,1.7006630579126067,,,left,0,1.7006630579126067,0,,,,,,,,,,,,,,,,,,,,,,1039,2019_Mar_08_1459,mf_amp_cond1,3.0.4,60.00173194327287,
agreement,frocessing,&&&&&&&&&&,left,fairness.virtue,,,,,,,0,65,65,65,,,,,,,,,,,,,,,,,,,,,AMP,right,1.5006154629663797,,,right,0,1.5006154629663797,0,,,,,,,,,,,,,,,,,,,,,,1039,2019_Mar_08_1459,mf_amp_cond1,3.0.4,60.00173194327287,
promises,papert,&&&&&&,left,fairness.virtue,,,,,,,0,66,66,66,,,,,,,,,,,,,,,,,,,,,AMP,left,2.5508791274332907,,,left,1,2.5508791274332907,1,,,,,,,,,,,,,,,,,,,,,,1039,2019_Mar_08_1459,mf_amp_cond1,3.0.4,60.00173194327287,
peace,stindig,&&&&&&&,left,care.virtue,,,,,,,0,67,67,67,,,,,,,,,,,,,,,,,,,,,AMP,right,0.4336781721940497,,,right,0,0.4336781721940497,0,,,,,,,,,,,,,,,,,,,,,,1039,2019_Mar_08_1459,mf_amp_cond1,3.0.4,60.00173194327287,
clean,reprisols,&&&&&&&&&,left,sanctity.virtue,,,,,,,0,68,68,68,,,,,,,,,,,,,,,,,,,,,AMP,right,0.43369292534771375,,,right,0,0.43369292534771375,0,,,,,,,,,,,,,,,,,,,,,,1039,2019_Mar_08_1459,mf_amp_cond1,3.0.4,60.00173194327287,
tenuflect,tracious,&&&&&&&&,None,nonword,,,,,,,0,69,69,69,,,,,,,,,,,,,,,,,,,,,AMP,left,1.4506093372037867,,,left,0,1.4506093372037867,0,,,,,,,,,,,,,,,,,,,,,,1039,2019_Mar_08_1459,mf_amp_cond1,3.0.4,60.00173194327287,
critics,menizen,&&&&&&&,right,loyalty.vice,,,,,,,0,70,70,70,,,,,,,,,,,,,,,,,,,,,AMP,left,0.7504376233555377,,,left,0,0.7504376233555377,0,,,,,,,,,,,,,,,,,,,,,,1039,2019_Mar_08_1459,mf_amp_cond1,3.0.4,60.00173194327287,
penalty,grovelire,&&&&&&&&&,right,authority.vice,,,,,,,0,71,71,71,,,,,,,,,,,,,,,,,,,,,AMP,left,0.6837514568760525,,,left,0,0.6837514568760525,0,,,,,,,,,,,,,,,,,,,,,,1039,2019_Mar_08_1459,mf_amp_cond1,3.0.4,60.00173194327287,
rejected,nomparisons,&&&&&&&&&&&,right,authority.vice,,,,,,,0,72,72,72,,,,,,,,,,,,,,,,,,,,,AMP,left,1.250604077387834,,,left,0,1.250604077387834,0,,,,,,,,,,,,,,,,,,,,,,1039,2019_Mar_08_1459,mf_amp_cond1,3.0.4,60.00173194327287,
ability,antral,&&&&&&,left,authority.virtue,,,,,,,0,73,73,73,,,,,,,,,,,,,,,,,,,,,AMP,right,3.9679029165708926,,,right,0,3.9679029165708926,0,,,,,,,,,,,,,,,,,,,,,,1039,2019_Mar_08_1459,mf_amp_cond1,3.0.4,60.00173194327287,
unpleasant,chadows,&&&&&&&,None,control,,,,,,,0,74,74,74,,,,,,,,,,,,,,,,,,,,,AMP,left,0.5170373235450825,,,left,0,0.5170373235450825,0,,,,,,,,,,,,,,,,,,,,,,1039,2019_Mar_08_1459,mf_amp_cond1,3.0.4,60.00173194327287,
great,uller,&&&&&,left,loyalty.virtue,,,,,,,0,75,75,75,,,,,,,,,,,,,,,,,,,,,AMP,right,0.4003434276964981,,,right,0,0.4003434276964981,0,,,,,,,,,,,,,,,,,,,,,,1039,2019_Mar_08_1459,mf_amp_cond1,3.0.4,60.00173194327287,
freedom,gandbrake,&&&&&&&&&,left,sanctity.virtue,,,,,,,0,76,76,76,,,,,,,,,,,,,,,,,,,,,AMP,right,0.4837041826394852,,,right,0,0.4837041826394852,0,,,,,,,,,,,,,,,,,,,,,,1039,2019_Mar_08_1459,mf_amp_cond1,3.0.4,60.00173194327287,
baladroit,nonobservalt,&&&&&&&&&&&&,None,nonword,,,,,,,0,77,77,77,,,,,,,,,,,,,,,,,,,,,AMP,left,1.050507412175648,,,left,0,1.050507412175648,0,,,,,,,,,,,,,,,,,,,,,,1039,2019_Mar_08_1459,mf_amp_cond1,3.0.4,60.00173194327287,
hatigue,baklara,&&&&&&&,None,nonword,,,,,,,0,78,78,78,,,,,,,,,,,,,,,,,,,,,AMP,left,0.4503242165374104,,,left,0,0.4503242165374104,0,,,,,,,,,,,,,,,,,,,,,,1039,2019_Mar_08_1459,mf_amp_cond1,3.0.4,60.00173194327287,
sfumatoy,tomedians,&&&&&&&&&,None,nonword,,,,,,,0,79,79,79,,,,,,,,,,,,,,,,,,,,,AMP,left,0.6170691390434513,,,left,0,0.6170691390434513,0,,,,,,,,,,,,,,,,,,,,,,1039,2019_Mar_08_1459,mf_amp_cond1,3.0.4,60.00173194327287,
officers,disregord,&&&&&&&&&,right,authority.vice,,,,,,,0,80,80,80,,,,,,,,,,,,,,,,,,,,,AMP,left,1.7506900305306772,,,left,0,1.7506900305306772,0,,,,,,,,,,,,,,,,,,,,,,1039,2019_Mar_08_1459,mf_amp_cond1,3.0.4,60.00173194327287,
party,gowlands,&&&&&&&&,left,loyalty.virtue,,,,,,,0,81,81,81,,,,,,,,,,,,,,,,,,,,,AMP,right,0.4003456727368757,,,right,0,0.4003456727368757,0,,,,,,,,,,,,,,,,,,,,,,1039,2019_Mar_08_1459,mf_amp_cond1,3.0.4,60.00173194327287,
fraud,feleological,&&&&&&&&&&&&,right,fairness.vice,,,,,,,0,82,82,82,,,,,,,,,,,,,,,,,,,,,AMP,left,0.5837305458844639,,,left,0,0.5837305458844639,0,,,,,,,,,,,,,,,,,,,,,,1039,2019_Mar_08_1459,mf_amp_cond1,3.0.4,60.00173194327287,
dumid,erks,&&&&,None,nonword,,,,,,,0,83,83,83,,,,,,,,,,,,,,,,,,,,,AMP,left,1.3505605235113762,,,left,0,1.3505605235113762,0,,,,,,,,,,,,,,,,,,,,,,1039,2019_Mar_08_1459,mf_amp_cond1,3.0.4,60.00173194327287,
critics,allears,&&&&&&&,right,loyalty.vice,,,,,,,0,84,84,84,,,,,,,,,,,,,,,,,,,,,AMP,left,0.3836774986848468,,,left,0,0.3836774986848468,0,,,,,,,,,,,,,,,,,,,,,,1039,2019_Mar_08_1459,mf_amp_cond1,3.0.4,60.00173194327287,
honored,strofe,&&&&&&,left,authority.virtue,,,,,,,0,85,85,85,,,,,,,,,,,,,,,,,,,,,AMP,right,0.4003543321887264,,,right,0,0.4003543321887264,0,,,,,,,,,,,,,,,,,,,,,,1039,2019_Mar_08_1459,mf_amp_cond1,3.0.4,60.00173194327287,
sexual,stindig,&&&&&&&,right,sanctity.vice,,,,,,,0,86,86,86,,,,,,,,,,,,,,,,,,,,,AMP,left,0.6170646489481442,,,left,0,0.6170646489481442,0,,,,,,,,,,,,,,,,,,,,,,1039,2019_Mar_08_1459,mf_amp_cond1,3.0.4,60.00173194327287,
praise,photocalkodes,&&&&&&&&&&&&&,left,authority.virtue,,,,,,,0,87,87,87,,,,,,,,,,,,,,,,,,,,,AMP,right,2.5842180413019378,,,right,0,2.5842180413019378,0,,,,,,,,,,,,,,,,,,,,,,1039,2019_Mar_08_1459,mf_amp_cond1,3.0.4,60.00173194327287,
slavery,gowlands,&&&&&&&&,right,loyalty.vice,,,,,,,0,88,88,88,,,,,,,,,,,,,,,,,,,,,AMP,left,1.1170386705780402,,,left,0,1.1170386705780402,0,,,,,,,,,,,,,,,,,,,,,,1039,2019_Mar_08_1459,mf_amp_cond1,3.0.4,60.00173194327287,
embrace,frocessing,&&&&&&&&&&,left,authority.virtue,,,,,,,0,89,89,89,,,,,,,,,,,,,,,,,,,,,AMP,right,0.6670762269641273,,,right,0,0.6670762269641273,0,,,,,,,,,,,,,,,,,,,,,,1039,2019_Mar_08_1459,mf_amp_cond1,3.0.4,60.00173194327287,
safety,emports,&&&&&&&,left,care.virtue,,,,,,,0,90,90,90,,,,,,,,,,,,,,,,,,,,,AMP,right,0.7170922950754175,,,right,0,0.7170922950754175,0,,,,,,,,,,,,,,,,,,,,,,1039,2019_Mar_08_1459,mf_amp_cond1,3.0.4,60.00173194327287,
charges,spag,&&&&,right,fairness.vice,,,,,,,0,91,91,91,,,,,,,,,,,,,,,,,,,,,AMP,left,1.600668125305674,,,left,0,1.600668125305674,0,,,,,,,,,,,,,,,,,,,,,,1039,2019_Mar_08_1459,mf_amp_cond1,3.0.4,60.00173194327287,
freedom,Boeinf,&&&&&&,left,sanctity.virtue,,,,,,,0,92,92,92,,,,,,,,,,,,,,,,,,,,,AMP,right,0.5003624143719207,,,right,0,0.5003624143719207,0,,,,,,,,,,,,,,,,,,,,,,1039,2019_Mar_08_1459,mf_amp_cond1,3.0.4,60.00173194327287,
useful,divility,&&&&&&&&,left,authority.virtue,,,,,,,0,93,93,93,,,,,,,,,,,,,,,,,,,,,AMP,right,1.4839549862081185,,,right,0,1.4839549862081185,0,,,,,,,,,,,,,,,,,,,,,,1039,2019_Mar_08_1459,mf_amp_cond1,3.0.4,60.00173194327287,
baladroit,ammessment,&&&&&&&&&&,None,nonword,,,,,,,0,94,94,94,,,,,,,,,,,,,,,,,,,,,AMP,left,1.5673452474729856,,,left,0,1.5673452474729856,0,,,,,,,,,,,,,,,,,,,,,,1039,2019_Mar_08_1459,mf_amp_cond1,3.0.4,60.00173194327287,
conspiracy,blunderints,&&&&&&&&&&&,right,sanctity.vice,,,,,,,0,95,95,95,,,,,,,,,,,,,,,,,,,,,AMP,left,0.6170845336164348,,,left,0,0.6170845336164348,0,,,,,,,,,,,,,,,,,,,,,,1039,2019_Mar_08_1459,mf_amp_cond1,3.0.4,60.00173194327287,
love,ejanulated,&&&&&&&&&&,left,loyalty.virtue,,,,,,,0,96,96,96,,,,,,,,,,,,,,,,,,,,,AMP,right,0.48370129616523627,,,right,0,0.48370129616523627,0,,,,,,,,,,,,,,,,,,,,,,1039,2019_Mar_08_1459,mf_amp_cond1,3.0.4,60.00173194327287,
officers,papert,&&&&&&,right,authority.vice,,,,,,,0,97,97,97,,,,,,,,,,,,,,,,,,,,,AMP,left,0.8171462402970064,,,left,0,0.8171462402970064,0,,,,,,,,,,,,,,,,,,,,,,1039,2019_Mar_08_1459,mf_amp_cond1,3.0.4,60.00173194327287,
police,rivernoat,&&&&&&&&&,right,authority.vice,,,,,,,0,98,98,98,,,,,,,,,,,,,,,,,,,,,AMP,left,0.7671038730768487,,,left,0,0.7671038730768487,0,,,,,,,,,,,,,,,,,,,,,,1039,2019_Mar_08_1459,mf_amp_cond1,3.0.4,60.00173194327287,
unpleasant,neputized,&&&&&&&&&,None,control,,,,,,,0,99,99,99,,,,,,,,,,,,,,,,,,,,,AMP,left,3.8010406102839625,,,left,0,3.8010406102839625,0,,,,,,,,,,,,,,,,,,,,,,1039,2019_Mar_08_1459,mf_amp_cond1,3.0.4,60.00173194327287,
racist,synchronazers,&&&&&&&&&&&&&,right,sanctity.vice,,,,,,,0,100,100,100,,,,,,,,,,,,,,,,,,,,,AMP,left,0.18365042985533364,,,left,0,0.18365042985533364,0,,,,,,,,,,,,,,,,,,,,,,1039,2019_Mar_08_1459,mf_amp_cond1,3.0.4,60.00173194327287,
violence,nomparisons,&&&&&&&&&&&,right,care.vice,,,,,,,0,101,101,101,,,,,,,,,,,,,,,,,,,,,AMP,left,0.6003945505799493,,,left,0,0.6003945505799493,0,,,,,,,,,,,,,,,,,,,,,,1039,2019_Mar_08_1459,mf_amp_cond1,3.0.4,60.00173194327287,
penalty,bycled,&&&&&&,right,authority.vice,,,,,,,0,102,102,102,,,,,,,,,,,,,,,,,,,,,AMP,left,0.9338093469559681,,,left,0,0.9338093469559681,0,,,,,,,,,,,,,,,,,,,,,,1039,2019_Mar_08_1459,mf_amp_cond1,3.0.4,60.00173194327287,
rejected,edancipation,&&&&&&&&&&&&,right,authority.vice,,,,,,,0,103,103,103,,,,,,,,,,,,,,,,,,,,,AMP,left,0.5837016810255591,,,left,0,0.5837016810255591,0,,,,,,,,,,,,,,,,,,,,,,1039,2019_Mar_08_1459,mf_amp_cond1,3.0.4,60.00173194327287,
promises,lachelor,&&&&&&&&,left,fairness.virtue,,,,,,,0,104,104,104,,,,,,,,,,,,,,,,,,,,,AMP,right,0.5670652583212359,,,right,0,0.5670652583212359,0,,,,,,,,,,,,,,,,,,,,,,1039,2019_Mar_08_1459,mf_amp_cond1,3.0.4,60.00173194327287,
powerful,elduringly,&&&&&&&&&&,left,authority.virtue,,,,,,,0,105,105,105,,,,,,,,,,,,,,,,,,,,,AMP,right,2.6842370279773604,,,right,0,2.6842370279773604,0,,,,,,,,,,,,,,,,,,,,,,1039,2019_Mar_08_1459,mf_amp_cond1,3.0.4,60.00173194327287,
clean,ugeasily,&&&&&&&&,left,sanctity.virtue,,,,,,,0,106,106,106,,,,,,,,,,,,,,,,,,,,,AMP,right,0.9171418143378105,,,right,0,0.9171418143378105,0,,,,,,,,,,,,,,,,,,,,,,1039,2019_Mar_08_1459,mf_amp_cond1,3.0.4,60.00173194327287,
betrayal,pulge,&&&&&,right,loyalty.vice,,,,,,,0,107,107,107,,,,,,,,,,,,,,,,,,,,,AMP,left,1.217213206764427,,,left,0,1.217213206764427,0,,,,,,,,,,,,,,,,,,,,,,1039,2019_Mar_08_1459,mf_amp_cond1,3.0.4,60.00173194327287,
promised,disregord,&&&&&&&&&,left,loyalty.virtue,,,,,,,0,108,108,108,,,,,,,,,,,,,,,,,,,,,AMP,left,1.5839752557658358,,,left,1,1.5839752557658358,1,,,,,,,,,,,,,,,,,,,,,,1039,2019_Mar_08_1459,mf_amp_cond1,3.0.4,60.00173194327287,
fonderland,ebbitter,&&&&&&&&,None,nonword,,,,,,,0,109,109,109,,,,,,,,,,,,,,,,,,,,,AMP,left,1.2838993732439121,,,left,0,1.2838993732439121,0,,,,,,,,,,,,,,,,,,,,,,1039,2019_Mar_08_1459,mf_amp_cond1,3.0.4,60.00173194327287,
respect,precificity,&&&&&&&&&&&,left,sanctity.virtue,,,,,,,0,110,110,110,,,,,,,,,,,,,,,,,,,,,AMP,right,0.4670077851624228,,,right,0,0.4670077851624228,0,,,,,,,,,,,,,,,,,,,,,,1039,2019_Mar_08_1459,mf_amp_cond1,3.0.4,60.00173194327287,
black,smapper,&&&&&&&,right,loyalty.vice,,,,,,,0,111,111,111,,,,,,,,,,,,,,,,,,,,,AMP,right,1.250545706221601,,,right,1,1.250545706221601,1,,,,,,,,,,,,,,,,,,,,,,1039,2019_Mar_08_1459,mf_amp_cond1,3.0.4,60.00173194327287,
injured,gikely,&&&&&&,right,care.vice,,,,,,,0,112,112,112,,,,,,,,,,,,,,,,,,,,,AMP,left,1.6173237912589684,,,left,0,1.6173237912589684,0,,,,,,,,,,,,,,,,,,,,,,1039,2019_Mar_08_1459,mf_amp_cond1,3.0.4,60.00173194327287,
victims,menizen,&&&&&&&,right,care.vice,,,,,,,0,113,113,113,,,,,,,,,,,,,,,,,,,,,AMP,left,0.8004418247874128,,,left,0,0.8004418247874128,0,,,,,,,,,,,,,,,,,,,,,,1039,2019_Mar_08_1459,mf_amp_cond1,3.0.4,60.00173194327287,
troops,frojecting,&&&&&&&&&&,right,loyalty.vice,,,,,,,0,114,114,114,,,,,,,,,,,,,,,,,,,,,AMP,left,4.151317616735469,,,left,0,4.151317616735469,0,,,,,,,,,,,,,,,,,,,,,,1039,2019_Mar_08_1459,mf_amp_cond1,3.0.4,60.00173194327287,
faspberry,coom,&&&&,None,nonword,,,,,,,0,115,115,115,,,,,,,,,,,,,,,,,,,,,AMP,left,0.5503788031928707,,,left,0,0.5503788031928707,0,,,,,,,,,,,,,,,,,,,,,,1039,2019_Mar_08_1459,mf_amp_cond1,3.0.4,60.00173194327287,
clamorek,chonograph,&&&&&&&&&&,None,nonword,,,,,,,0,116,116,116,,,,,,,,,,,,,,,,,,,,,AMP,left,0.6504080529120984,,,left,0,0.6504080529120984,0,,,,,,,,,,,,,,,,,,,,,,1039,2019_Mar_08_1459,mf_amp_cond1,3.0.4,60.00173194327287,
pleasant,unscothed,&&&&&&&&&,None,control,,,,,,,0,117,117,117,,,,,,,,,,,,,,,,,,,,,AMP,left,2.1507820132246707,,,left,0,2.1507820132246707,0,,,,,,,,,,,,,,,,,,,,,,1039,2019_Mar_08_1459,mf_amp_cond1,3.0.4,60.00173194327287,
hatigue,forepo,&&&&&&,None,nonword,,,,,,,0,118,118,118,,,,,,,,,,,,,,,,,,,,,AMP,left,0.433696453270386,,,left,0,0.433696453270386,0,,,,,,,,,,,,,,,,,,,,,,1039,2019_Mar_08_1459,mf_amp_cond1,3.0.4,60.00173194327287,
loyalty,gandbrake,&&&&&&&&&,left,loyalty.virtue,,,,,,,0,119,119,119,,,,,,,,,,,,,,,,,,,,,AMP,right,0.4336922838992905,,,right,0,0.4336922838992905,0,,,,,,,,,,,,,,,,,,,,,,1039,2019_Mar_08_1459,mf_amp_cond1,3.0.4,60.00173194327287,
lies,abointment,&&&&&&&&&&,right,fairness.vice,,,,,,,0,120,120,120,,,,,,,,,,,,,,,,,,,,,AMP,left,0.6837517775857123,,,left,0,0.6837517775857123,0,,,,,,,,,,,,,,,,,,,,,,1039,2019_Mar_08_1459,mf_amp_cond1,3.0.4,60.00173194327287,
help,neutralust,&&&&&&&&&&,left,care.virtue,,,,,,,0,121,121,121,,,,,,,,,,,,,,,,,,,,,AMP,right,0.700439515610924,,,right,0,0.700439515610924,0,,,,,,,,,,,,,,,,,,,,,,1039,2019_Mar_08_1459,mf_amp_cond1,3.0.4,60.00173194327287,
killed,gedious,&&&&&&&,right,care.vice,,,,,,,0,122,122,122,,,,,,,,,,,,,,,,,,,,,AMP,left,1.2672626298153773,,,left,0,1.2672626298153773,0,,,,,,,,,,,,,,,,,,,,,,1039,2019_Mar_08_1459,mf_amp_cond1,3.0.4,60.00173194327287,
abuse,fostet,&&&&&&,right,sanctity.vice,,,,,,,0,123,123,123,,,,,,,,,,,,,,,,,,,,,AMP,left,0.7170996716449736,,,left,0,0.7170996716449736,0,,,,,,,,,,,,,,,,,,,,,,1039,2019_Mar_08_1459,mf_amp_cond1,3.0.4,60.00173194327287,
crime,antral,&&&&&&,right,fairness.vice,,,,,,,0,124,124,124,,,,,,,,,,,,,,,,,,,,,AMP,left,0.6170656111062272,,,left,0,0.6170656111062272,0,,,,,,,,,,,,,,,,,,,,,,1039,2019_Mar_08_1459,mf_amp_cond1,3.0.4,60.00173194327287,
opportunity,wump,&&&&,left,fairness.virtue,,,,,,,0,125,125,125,,,,,,,,,,,,,,,,,,,,,AMP,right,0.5170392478758004,,,right,0,0.5170392478758004,0,,,,,,,,,,,,,,,,,,,,,,1039,2019_Mar_08_1459,mf_amp_cond1,3.0.4,60.00173194327287,
actively,sgrawl,&&&&&&,left,authority.virtue,,,,,,,0,126,126,126,,,,,,,,,,,,,,,,,,,,,AMP,right,0.550388745527016,,,right,0,0.550388745527016,0,,,,,,,,,,,,,,,,,,,,,,1039,2019_Mar_08_1459,mf_amp_cond1,3.0.4,60.00173194327287,
protesters,discovars,&&&&&&&&&,right,authority.vice,,,,,,,0,127,127,127,,,,,,,,,,,,,,,,,,,,,AMP,left,0.5670517880498664,,,left,0,0.5670517880498664,0,,,,,,,,,,,,,,,,,,,,,,1039,2019_Mar_08_1459,mf_amp_cond1,3.0.4,60.00173194327287,
intelligence,tove,&&&&,left,loyalty.virtue,,,,,,,0,128,128,128,,,,,,,,,,,,,,,,,,,,,AMP,right,0.7337838817329612,,,right,0,0.7337838817329612,0,,,,,,,,,,,,,,,,,,,,,,1039,2019_Mar_08_1459,mf_amp_cond1,3.0.4,60.00173194327287,
protect,imebreaker,&&&&&&&&&&,left,fairness.virtue,,,,,,,0,129,129,129,,,,,,,,,,,,,,,,,,,,,AMP,right,0.7170839563332265,,,right,0,0.7170839563332265,0,,,,,,,,,,,,,,,,,,,,,,1039,2019_Mar_08_1459,mf_amp_cond1,3.0.4,60.00173194327287,
sfumatoy,drumbled,&&&&&&&&,None,nonword,,,,,,,0,130,130,130,,,,,,,,,,,,,,,,,,,,,AMP,left,0.8671443480416201,,,left,0,0.8671443480416201,0,,,,,,,,,,,,,,,,,,,,,,1039,2019_Mar_08_1459,mf_amp_cond1,3.0.4,60.00173194327287,
peace,fornicalion,&&&&&&&&&&&,left,care.virtue,,,,,,,0,131,131,131,,,,,,,,,,,,,,,,,,,,,AMP,right,0.7170823527412722,,,right,0,0.7170823527412722,0,,,,,,,,,,,,,,,,,,,,,,1039,2019_Mar_08_1459,mf_amp_cond1,3.0.4,60.00173194327287,
voter,focomotive,&&&&&&&&&&,right,fairness.vice,,,,,,,0,132,132,132,,,,,,,,,,,,,,,,,,,,,AMP,left,1.1505331339722034,,,left,0,1.1505331339722034,0,,,,,,,,,,,,,,,,,,,,,,1039,2019_Mar_08_1459,mf_amp_cond1,3.0.4,60.00173194327287,
growth,gillipede,&&&&&&&&&,left,care.virtue,,,,,,,0,133,133,133,,,,,,,,,,,,,,,,,,,,,AMP,right,0.6671211278589908,,,right,0,0.6671211278589908,0,,,,,,,,,,,,,,,,,,,,,,1039,2019_Mar_08_1459,mf_amp_cond1,3.0.4,60.00173194327287,
prosecution,pumber,&&&&&&,right,authority.vice,,,,,,,0,134,134,134,,,,,,,,,,,,,,,,,,,,,AMP,left,2.3174990330298897,,,left,0,2.3174990330298897,0,,,,,,,,,,,,,,,,,,,,,,1039,2019_Mar_08_1459,mf_amp_cond1,3.0.4,60.00173194327287,
friends,Oregoniuns,&&&&&&&&&&,left,loyalty.virtue,,,,,,,0,135,135,135,,,,,,,,,,,,,,,,,,,,,AMP,right,1.0338424453220796,,,right,0,1.0338424453220796,0,,,,,,,,,,,,,,,,,,,,,,1039,2019_Mar_08_1459,mf_amp_cond1,3.0.4,60.00173194327287,
health,alar,&&&&,left,care.virtue,,,,,,,0,136,136,136,,,,,,,,,,,,,,,,,,,,,AMP,right,0.6004109073255677,,,right,0,0.6004109073255677,0,,,,,,,,,,,,,,,,,,,,,,1039,2019_Mar_08_1459,mf_amp_cond1,3.0.4,60.00173194327287,
great,ilportation,&&&&&&&&&&&,left,loyalty.virtue,,,,,,,0,137,137,137,,,,,,,,,,,,,,,,,,,,,AMP,right,0.6671002810180653,,,right,0,0.6671002810180653,0,,,,,,,,,,,,,,,,,,,,,,1039,2019_Mar_08_1459,mf_amp_cond1,3.0.4,60.00173194327287,
increase,gusinesslike,&&&&&&&&&&&&,left,care.virtue,,,,,,,0,138,138,138,,,,,,,,,,,,,,,,,,,,,AMP,right,0.6670784720190568,,,right,0,0.6670784720190568,0,,,,,,,,,,,,,,,,,,,,,,1039,2019_Mar_08_1459,mf_amp_cond1,3.0.4,60.00173194327287,
ability,uller,&&&&&,left,authority.virtue,,,,,,,0,139,139,139,,,,,,,,,,,,,,,,,,,,,AMP,right,0.733755337583716,,,right,0,0.733755337583716,0,,,,,,,,,,,,,,,,,,,,,,1039,2019_Mar_08_1459,mf_amp_cond1,3.0.4,60.00173194327287,
scandal,gationwide,&&&&&&&&&&,right,sanctity.vice,,,,,,,0,140,140,140,,,,,,,,,,,,,,,,,,,,,AMP,left,1.7340115934057394,,,left,0,1.7340115934057394,0,,,,,,,,,,,,,,,,,,,,,,1039,2019_Mar_08_1459,mf_amp_cond1,3.0.4,60.00173194327287,
slending,emassion,&&&&&&&&,None,nonword,,,,,,,0,141,141,141,,,,,,,,,,,,,,,,,,,,,AMP,left,1.4006099465768784,,,left,0,1.4006099465768784,0,,,,,,,,,,,,,,,,,,,,,,1039,2019_Mar_08_1459,mf_amp_cond1,3.0.4,60.00173194327287,
died,touls,&&&&&,right,care.vice,,,,,,,0,142,142,142,,,,,,,,,,,,,,,,,,,,,AMP,left,0.6504215231689159,,,left,0,0.6504215231689159,0,,,,,,,,,,,,,,,,,,,,,,1039,2019_Mar_08_1459,mf_amp_cond1,3.0.4,60.00173194327287,
torture,baklara,&&&&&&&,right,care.vice,,,,,,,0,143,143,143,,,,,,,,,,,,,,,,,,,,,AMP,left,1.9007180294429418,,,left,0,1.9007180294429418,0,,,,,,,,,,,,,,,,,,,,,,1039,2019_Mar_08_1459,mf_amp_cond1,3.0.4,60.00173194327287,
restore,noped,&&&&&,left,care.virtue,,,,,,,0,144,144,144,,,,,,,,,,,,,,,,,,,,,AMP,left,1.5506562265800312,,,left,1,1.5506562265800312,1,,,,,,,,,,,,,,,,,,,,,,1039,2019_Mar_08_1459,mf_amp_cond1,3.0.4,60.00173194327287,
party,tomedians,&&&&&&&&&,left,loyalty.virtue,,,,,,,0,145,145,145,,,,,,,,,,,,,,,,,,,,,AMP,right,0.5503852176043438,,,right,0,0.5503852176043438,0,,,,,,,,,,,,,,,,,,,,,,1039,2019_Mar_08_1459,mf_amp_cond1,3.0.4,60.00173194327287,
agreement,reprisols,&&&&&&&&&,left,fairness.virtue,,,,,,,0,146,146,146,,,,,,,,,,,,,,,,,,,,,AMP,right,0.5670508258917835,,,right,0,0.5670508258917835,0,,,,,,,,,,,,,,,,,,,,,,1039,2019_Mar_08_1459,mf_amp_cond1,3.0.4,60.00173194327287,
faith,nonobservalt,&&&&&&&&&&&&,left,sanctity.virtue,,,,,,,0,147,147,147,,,,,,,,,,,,,,,,,,,,,AMP,right,0.5170386064273771,,,right,0,0.5170386064273771,0,,,,,,,,,,,,,,,,,,,,,,1039,2019_Mar_08_1459,mf_amp_cond1,3.0.4,60.00173194327287,
suicide,vurtain,&&&&&&&,right,care.vice,,,,,,,0,148,148,148,,,,,,,,,,,,,,,,,,,,,AMP,left,0.6337369923712686,,,left,0,0.6337369923712686,0,,,,,,,,,,,,,,,,,,,,,,1039,2019_Mar_08_1459,mf_amp_cond1,3.0.4,60.00173194327287,
drug,grovelire,&&&&&&&&&,right,sanctity.vice,,,,,,,0,149,149,149,,,,,,,,,,,,,,,,,,,,,AMP,left,0.8671642327244626,,,left,0,0.8671642327244626,0,,,,,,,,,,,,,,,,,,,,,,1039,2019_Mar_08_1459,mf_amp_cond1,3.0.4,60.00173194327287,
fair,seachwear,&&&&&&&&&,left,fairness.virtue,,,,,,,0,150,150,150,,,,,,,,,,,,,,,,,,,,,AMP,right,0.2169476500566816,,,right,0,0.2169476500566816,0,,,,,,,,,,,,,,,,,,,,,,1039,2019_Mar_08_1459,mf_amp_cond1,3.0.4,60.00173194327287,
tenuflect,juck,&&&&,None,nonword,,,,,,,0,151,151,151,,,,,,,,,,,,,,,,,,,,,AMP,left,1.567334663690417,,,left,0,1.567334663690417,0,,,,,,,,,,,,,,,,,,,,,,1039,2019_Mar_08_1459,mf_amp_cond1,3.0.4,60.00173194327287,
rebels,tabin,&&&&&,right,authority.vice,,,,,,,0,152,152,152,,,,,,,,,,,,,,,,,,,,,AMP,left,0.7004257246298948,,,left,0,0.7004257246298948,0,,,,,,,,,,,,,,,,,,,,,,1039,2019_Mar_08_1459,mf_amp_cond1,3.0.4,60.00173194327287,
accused,mecan,&&&&&,right,fairness.vice,,,,,,,0,153,153,153,,,,,,,,,,,,,,,,,,,,,AMP,left,0.6003945505653974,,,left,0,0.6003945505653974,0,,,,,,,,,,,,,,,,,,,,,,1039,2019_Mar_08_1459,mf_amp_cond1,3.0.4,60.00173194327287,
ban,chadows,&&&&&&&,right,loyalty.vice,,,,,,,0,154,154,154,,,,,,,,,,,,,,,,,,,,,AMP,left,0.6836068118427647,,,left,0,0.6836068118427647,0,,,,,,,,,,,,,,,,,,,,,,1039,2019_Mar_08_1459,mf_amp_cond1,3.0.4,60.00173194327287,
promote,supervuned,&&&&&&&&&&,left,sanctity.virtue,,,,,,,0,155,155,155,,,,,,,,,,,,,,,,,,,,,AMP,right,0.867162949842168,,,right,0,0.867162949842168,0,,,,,,,,,,,,,,,,,,,,,,1039,2019_Mar_08_1459,mf_amp_cond1,3.0.4,60.00173194327287,
threatened,tracious,&&&&&&&&,right,fairness.vice,,,,,,,0,156,156,156,,,,,,,,,,,,,,,,,,,,,AMP,left,0.7837829516502097,,,left,0,0.7837829516502097,0,,,,,,,,,,,,,,,,,,,,,,1039,2019_Mar_08_1459,mf_amp_cond1,3.0.4,60.00173194327287,
credit,metibolic,&&&&&&&&&,left,fairness.virtue,,,,,,,0,157,157,157,,,,,,,,,,,,,,,,,,,,,AMP,left,0.8838215022697113,,,left,1,0.8838215022697113,1,,,,,,,,,,,,,,,,,,,,,,1039,2019_Mar_08_1459,mf_amp_cond1,3.0.4,60.00173194327287,
hand,pafer,&&&&&,left,sanctity.virtue,,,,,,,0,158,158,158,,,,,,,,,,,,,,,,,,,,,AMP,left,1.2839048254973022,,,left,1,1.2839048254973022,1,,,,,,,,,,,,,,,,,,,,,,1039,2019_Mar_08_1459,mf_amp_cond1,3.0.4,60.00173194327287,
perified,gournful,&&&&&&&&,None,nonword,,,,,,,0,159,159,159,,,,,,,,,,,,,,,,,,,,,AMP,left,0.7004151408473263,,,left,0,0.7004151408473263,0,,,,,,,,,,,,,,,,,,,,,,1039,2019_Mar_08_1459,mf_amp_cond1,3.0.4,60.00173194327287,
fear,sonvoy,&&&&&&,right,sanctity.vice,,,,,,,0,160,160,160,,,,,,,,,,,,,,,,,,,,,AMP,left,1.16719232784817,,,left,0,1.16719232784817,0,,,,,,,,,,,,,,,,,,,,,,1039,2019_Mar_08_1459,mf_amp_cond1,3.0.4,60.00173194327287,
men,dormandi,&&&&&&&&,right,loyalty.vice,,,,,,,0,161,161,161,,,,,,,,,,,,,,,,,,,,,AMP,left,1.1338636770378798,,,left,0,1.1338636770378798,0,,,,,,,,,,,,,,,,,,,,,,1039,2019_Mar_08_1459,mf_amp_cond1,3.0.4,60.00173194327287,
ensure,proached,&&&&&&&&,left,fairness.virtue,,,,,,,0,162,162,162,,,,,,,,,,,,,,,,,,,,,AMP,left,0.7504437170427991,,,left,1,0.7504437170427991,1,,,,,,,,,,,,,,,,,,,,,,1039,2019_Mar_08_1459,mf_amp_cond1,3.0.4,60.00173194327287,
commitment,ronviolence,&&&&&&&&&&&,left,sanctity.virtue,,,,,,,0,163,163,163,,,,,,,,,,,,,,,,,,,,,AMP,right,1.8172196853265632,,,right,0,1.8172196853265632,0,,,,,,,,,,,,,,,,,,,,,,1039,2019_Mar_08_1459,mf_amp_cond1,3.0.4,60.00173194327287,
promised,seachwear,&&&&&&&&&,left,loyalty.virtue,,,,,,,0,164,164,164,,,,,,,,,,,,,,,,,,,,,AMP,left,0.6337373130954802,,,left,1,0.6337373130954802,1,,,,,,,,,,,,,,,,,,,,,,1039,2019_Mar_08_1459,mf_amp_cond1,3.0.4,60.00173194327287,
threatened,antral,&&&&&&,right,fairness.vice,,,,,,,0,165,165,165,,,,,,,,,,,,,,,,,,,,,AMP,left,0.9338074226398021,,,left,0,0.9338074226398021,0,,,,,,,,,,,,,,,,,,,,,,1039,2019_Mar_08_1459,mf_amp_cond1,3.0.4,60.00173194327287,
commitment,divility,&&&&&&&&,left,sanctity.virtue,,,,,,,0,166,166,166,,,,,,,,,,,,,,,,,,,,,AMP,right,0.7171031995676458,,,right,0,0.7171031995676458,0,,,,,,,,,,,,,,,,,,,,,,1039,2019_Mar_08_1459,mf_amp_cond1,3.0.4,60.00173194327287,
faith,forepo,&&&&&&,left,sanctity.virtue,,,,,,,0,167,167,167,,,,,,,,,,,,,,,,,,,,,AMP,right,0.7337870889314217,,,right,0,0.7337870889314217,0,,,,,,,,,,,,,,,,,,,,,,1039,2019_Mar_08_1459,mf_amp_cond1,3.0.4,60.00173194327287,
fonderland,touls,&&&&&,None,nonword,,,,,,,0,168,168,168,,,,,,,,,,,,,,,,,,,,,AMP,left,2.2674752676248318,,,left,0,2.2674752676248318,0,,,,,,,,,,,,,,,,,,,,,,1039,2019_Mar_08_1459,mf_amp_cond1,3.0.4,60.00173194327287,
sexual,precificity,&&&&&&&&&&&,right,sanctity.vice,,,,,,,0,169,169,169,,,,,,,,,,,,,,,,,,,,,AMP,left,4.2513131908053765,,,left,0,4.2513131908053765,0,,,,,,,,,,,,,,,,,,,,,,1039,2019_Mar_08_1459,mf_amp_cond1,3.0.4,60.00173194327287,
drug,chonograph,&&&&&&&&&&,right,sanctity.vice,,,,,,,0,170,170,170,,,,,,,,,,,,,,,,,,,,,AMP,left,0.7170897293108283,,,left,0,0.7170897293108283,0,,,,,,,,,,,,,,,,,,,,,,1039,2019_Mar_08_1459,mf_amp_cond1,3.0.4,60.00173194327287,
opportunity,edancipation,&&&&&&&&&&&&,left,fairness.virtue,,,,,,,0,171,171,171,,,,,,,,,,,,,,,,,,,,,AMP,right,2.0841022611566586,,,right,0,2.0841022611566586,0,,,,,,,,,,,,,,,,,,,,,,1039,2019_Mar_08_1459,mf_amp_cond1,3.0.4,60.00173194327287,
troops,pafer,&&&&&,right,loyalty.vice,,,,,,,0,172,172,172,,,,,,,,,,,,,,,,,,,,,AMP,left,0.36701413545233663,,,left,0,0.36701413545233663,0,,,,,,,,,,,,,,,,,,,,,,1039,2019_Mar_08_1459,mf_amp_cond1,3.0.4,60.00173194327287,
police,disregord,&&&&&&&&&,right,authority.vice,,,,,,,0,173,173,173,,,,,,,,,,,,,,,,,,,,,AMP,left,0.8838221437181346,,,left,0,0.8838221437181346,0,,,,,,,,,,,,,,,,,,,,,,1039,2019_Mar_08_1459,mf_amp_cond1,3.0.4,60.00173194327287,
baladroit,nonobservalt,&&&&&&&&&&&&,None,nonword,,,,,,,0,174,174,174,,,,,,,,,,,,,,,,,,,,,AMP,left,0.9004960907332134,,,left,0,0.9004960907332134,0,,,,,,,,,,,,,,,,,,,,,,1039,2019_Mar_08_1459,mf_amp_cond1,3.0.4,60.00173194327287,
protesters,tracious,&&&&&&&&,right,authority.vice,,,,,,,0,175,175,175,,,,,,,,,,,,,,,,,,,,,AMP,left,0.8004469563311432,,,left,0,0.8004469563311432,0,,,,,,,,,,,,,,,,,,,,,,1039,2019_Mar_08_1459,mf_amp_cond1,3.0.4,60.00173194327287,
hand,juck,&&&&,left,sanctity.virtue,,,,,,,0,176,176,176,,,,,,,,,,,,,,,,,,,,,AMP,left,1.1838787829765351,,,left,1,1.1838787829765351,1,,,,,,,,,,,,,,,,,,,,,,1039,2019_Mar_08_1459,mf_amp_cond1,3.0.4,60.00173194327287,
party,gationwide,&&&&&&&&&&,left,loyalty.virtue,,,,,,,0,177,177,177,,,,,,,,,,,,,,,,,,,,,AMP,right,0.8004479184892261,,,right,0,0.8004479184892261,0,,,,,,,,,,,,,,,,,,,,,,1039,2019_Mar_08_1459,mf_amp_cond1,3.0.4,60.00173194327287,
men,dormandi,&&&&&&&&,right,loyalty.vice,,,,,,,0,178,178,178,,,,,,,,,,,,,,,,,,,,,AMP,left,1.2505492341588251,,,left,0,1.2505492341588251,0,,,,,,,,,,,,,,,,,,,,,,1039,2019_Mar_08_1459,mf_amp_cond1,3.0.4,60.00173194327287,
scandal,papert,&&&&&&,right,sanctity.vice,,,,,,,0,179,179,179,,,,,,,,,,,,,,,,,,,,,AMP,left,1.567304195225006,,,left,0,1.567304195225006,0,,,,,,,,,,,,,,,,,,,,,,1039,2019_Mar_08_1459,mf_amp_cond1,3.0.4,60.00173194327287,
love,grovelire,&&&&&&&&&,left,loyalty.virtue,,,,,,,0,180,180,180,,,,,,,,,,,,,,,,,,,,,AMP,right,0.6837450424645795,,,right,0,0.6837450424645795,0,,,,,,,,,,,,,,,,,,,,,,1039,2019_Mar_08_1459,mf_amp_cond1,3.0.4,60.00173194327287,
intelligence,erks,&&&&,left,loyalty.virtue,,,,,,,0,181,181,181,,,,,,,,,,,,,,,,,,,,,AMP,right,0.767096175783081,,,right,0,0.767096175783081,0,,,,,,,,,,,,,,,,,,,,,,1039,2019_Mar_08_1459,mf_amp_cond1,3.0.4,60.00173194327287,
peace,vurtain,&&&&&&&,left,care.virtue,,,,,,,0,182,182,182,,,,,,,,,,,,,,,,,,,,,AMP,right,0.4670164446288254,,,right,0,0.4670164446288254,0,,,,,,,,,,,,,,,,,,,,,,1039,2019_Mar_08_1459,mf_amp_cond1,3.0.4,60.00173194327287,
sfumatoy,ejanulated,&&&&&&&&&&,None,nonword,,,,,,,0,183,183,183,,,,,,,,,,,,,,,,,,,,,AMP,left,2.300819633746869,,,left,0,2.300819633746869,0,,,,,,,,,,,,,,,,,,,,,,1039,2019_Mar_08_1459,mf_amp_cond1,3.0.4,60.00173194327287,
protect,tomedians,&&&&&&&&&,left,fairness.virtue,,,,,,,0,184,184,184,,,,,,,,,,,,,,,,,,,,,AMP,right,0.7004202723765047,,,right,0,0.7004202723765047,0,,,,,,,,,,,,,,,,,,,,,,1039,2019_Mar_08_1459,mf_amp_cond1,3.0.4,60.00173194327287,
safety,allears,&&&&&&&,left,care.virtue,,,,,,,0,185,185,185,,,,,,,,,,,,,,,,,,,,,AMP,right,0.7337643177743303,,,right,0,0.7337643177743303,0,,,,,,,,,,,,,,,,,,,,,,1039,2019_Mar_08_1459,mf_amp_cond1,3.0.4,60.00173194327287,
useful,blunderints,&&&&&&&&&&&,left,authority.virtue,,,,,,,0,186,186,186,,,,,,,,,,,,,,,,,,,,,AMP,right,0.7337745808326872,,,right,0,0.7337745808326872,0,,,,,,,,,,,,,,,,,,,,,,1039,2019_Mar_08_1459,mf_amp_cond1,3.0.4,60.00173194327287,
clean,stindig,&&&&&&&,left,sanctity.virtue,,,,,,,0,187,187,187,,,,,,,,,,,,,,,,,,,,,AMP,right,0.5003617729089456,,,right,0,0.5003617729089456,0,,,,,,,,,,,,,,,,,,,,,,1039,2019_Mar_08_1459,mf_amp_cond1,3.0.4,60.00173194327287,
died,gandbrake,&&&&&&&&&,right,care.vice,,,,,,,0,188,188,188,,,,,,,,,,,,,,,,,,,,,AMP,left,0.8503106821153779,,,left,0,0.8503106821153779,0,,,,,,,,,,,,,,,,,,,,,,1039,2019_Mar_08_1459,mf_amp_cond1,3.0.4,60.00173194327287,
lies,ilportation,&&&&&&&&&&&,right,fairness.vice,,,,,,,0,189,189,189,,,,,,,,,,,,,,,,,,,,,AMP,left,0.850447629840346,,,left,0,0.850447629840346,0,,,,,,,,,,,,,,,,,,,,,,1039,2019_Mar_08_1459,mf_amp_cond1,3.0.4,60.00173194327287,
suicide,gusinesslike,&&&&&&&&&&&&,right,care.vice,,,,,,,0,190,190,190,,,,,,,,,,,,,,,,,,,,,AMP,left,0.5170174388622399,,,left,0,0.5170174388622399,0,,,,,,,,,,,,,,,,,,,,,,1039,2019_Mar_08_1459,mf_amp_cond1,3.0.4,60.00173194327287,
great,alar,&&&&,left,loyalty.virtue,,,,,,,0,191,191,191,,,,,,,,,,,,,,,,,,,,,AMP,right,0.4336887559911702,,,right,0,0.4336887559911702,0,,,,,,,,,,,,,,,,,,,,,,1039,2019_Mar_08_1459,mf_amp_cond1,3.0.4,60.00173194327287,
killed,focomotive,&&&&&&&&&&,right,care.vice,,,,,,,0,192,192,192,,,,,,,,,,,,,,,,,,,,,AMP,left,1.1672086846083403,,,left,0,1.1672086846083403,0,,,,,,,,,,,,,,,,,,,,,,1039,2019_Mar_08_1459,mf_amp_cond1,3.0.4,60.00173194327287,
agreement,frocessing,&&&&&&&&&&,left,fairness.virtue,,,,,,,0,193,193,193,,,,,,,,,,,,,,,,,,,,,AMP,right,3.051001963453018,,,right,0,3.051001963453018,0,,,,,,,,,,,,,,,,,,,,,,1039,2019_Mar_08_1459,mf_amp_cond1,3.0.4,60.00173194327287,
penalty,baklara,&&&&&&&,right,authority.vice,,,,,,,0,194,194,194,,,,,,,,,,,,,,,,,,,,,AMP,left,0.18361996140447445,,,left,0,0.18361996140447445,0,,,,,,,,,,,,,,,,,,,,,,1039,2019_Mar_08_1459,mf_amp_cond1,3.0.4,60.00173194327287,
betrayal,bycled,&&&&&&,right,loyalty.vice,,,,,,,0,195,195,195,,,,,,,,,,,,,,,,,,,,,AMP,left,0.5837206035357667,,,left,0,0.5837206035357667,0,,,,,,,,,,,,,,,,,,,,,,1039,2019_Mar_08_1459,mf_amp_cond1,3.0.4,60.00173194327287,
loyalty,neputized,&&&&&&&&&,left,loyalty.virtue,,,,,,,0,196,196,196,,,,,,,,,,,,,,,,,,,,,AMP,right,0.41701192247273866,,,right,0,0.41701192247273866,0,,,,,,,,,,,,,,,,,,,,,,1039,2019_Mar_08_1459,mf_amp_cond1,3.0.4,60.00173194327287,
fraud,smapper,&&&&&&&,right,fairness.vice,,,,,,,0,197,197,197,,,,,,,,,,,,,,,,,,,,,AMP,left,1.5506498121540062,,,left,0,1.5506498121540062,0,,,,,,,,,,,,,,,,,,,,,,1039,2019_Mar_08_1459,mf_amp_cond1,3.0.4,60.00173194327287,
promises,tabin,&&&&&,left,fairness.virtue,,,,,,,0,198,198,198,,,,,,,,,,,,,,,,,,,,,AMP,left,1.6839971289155073,,,left,1,1.6839971289155073,1,,,,,,,,,,,,,,,,,,,,,,1039,2019_Mar_08_1459,mf_amp_cond1,3.0.4,60.00173194327287,
violence,rivernoat,&&&&&&&&&,right,care.vice,,,,,,,0,199,199,199,,,,,,,,,,,,,,,,,,,,,AMP,left,0.5170366820966592,,,left,0,0.5170366820966592,0,,,,,,,,,,,,,,,,,,,,,,1039,2019_Mar_08_1459,mf_amp_cond1,3.0.4,60.00173194327287,
credit,reprisols,&&&&&&&&&,left,fairness.virtue,,,,,,,0,200,200,200,,,,,,,,,,,,,,,,,,,,,AMP,left,0.6005064820783446,,,left,1,0.6005064820783446,1,,,,,,,,,,,,,,,,,,,,,,1039,2019_Mar_08_1459,mf_amp_cond1,3.0.4,60.00173194327287,
abuse,chadows,&&&&&&&,right,sanctity.vice,,,,,,,0,201,201,201,,,,,,,,,,,,,,,,,,,,,AMP,left,0.38369770409190096,,,left,0,0.38369770409190096,0,,,,,,,,,,,,,,,,,,,,,,1039,2019_Mar_08_1459,mf_amp_cond1,3.0.4,60.00173194327287,
slending,neutralust,&&&&&&&&&&,None,nonword,,,,,,,0,202,202,202,,,,,,,,,,,,,,,,,,,,,AMP,left,0.5336939516564598,,,left,0,0.5336939516564598,0,,,,,,,,,,,,,,,,,,,,,,1039,2019_Mar_08_1459,mf_amp_cond1,3.0.4,60.00173194327287,
tenuflect,abointment,&&&&&&&&&&,None,nonword,,,,,,,0,203,203,203,,,,,,,,,,,,,,,,,,,,,AMP,left,0.65039169616648,,,left,0,0.65039169616648,0,,,,,,,,,,,,,,,,,,,,,,1039,2019_Mar_08_1459,mf_amp_cond1,3.0.4,60.00173194327287,
hatigue,spag,&&&&,None,nonword,,,,,,,0,204,204,204,,,,,,,,,,,,,,,,,,,,,AMP,left,0.8504537235276075,,,left,0,0.8504537235276075,0,,,,,,,,,,,,,,,,,,,,,,1039,2019_Mar_08_1459,mf_amp_cond1,3.0.4,60.00173194327287,
voter,frojecting,&&&&&&&&&&,right,fairness.vice,,,,,,,0,205,205,205,,,,,,,,,,,,,,,,,,,,,AMP,left,0.8169974258926231,,,left,0,0.8169974258926231,0,,,,,,,,,,,,,,,,,,,,,,1039,2019_Mar_08_1459,mf_amp_cond1,3.0.4,60.00173194327287,
crime,gedious,&&&&&&&,right,fairness.vice,,,,,,,0,206,206,206,,,,,,,,,,,,,,,,,,,,,AMP,left,1.1672086845937883,,,left,0,1.1672086845937883,0,,,,,,,,,,,,,,,,,,,,,,1039,2019_Mar_08_1459,mf_amp_cond1,3.0.4,60.00173194327287,
ban,Boeinf,&&&&&&,right,loyalty.vice,,,,,,,0,207,207,207,,,,,,,,,,,,,,,,,,,,,AMP,left,2.217463368884637,,,left,0,2.217463368884637,0,,,,,,,,,,,,,,,,,,,,,,1039,2019_Mar_08_1459,mf_amp_cond1,3.0.4,60.00173194327287,
actively,fostet,&&&&&&,left,authority.virtue,,,,,,,0,208,208,208,,,,,,,,,,,,,,,,,,,,,AMP,left,1.28390674982802,,,left,1,1.28390674982802,1,,,,,,,,,,,,,,,,,,,,,,1039,2019_Mar_08_1459,mf_amp_cond1,3.0.4,60.00173194327287,
torture,imebreaker,&&&&&&&&&&,right,care.vice,,,,,,,0,209,209,209,,,,,,,,,,,,,,,,,,,,,AMP,left,1.2172106409998378,,,left,0,1.2172106409998378,0,,,,,,,,,,,,,,,,,,,,,,1039,2019_Mar_08_1459,mf_amp_cond1,3.0.4,60.00173194327287,
racist,supervuned,&&&&&&&&&&,right,sanctity.vice,,,,,,,0,210,210,210,,,,,,,,,,,,,,,,,,,,,AMP,left,0.6837161776056746,,,left,0,0.6837161776056746,0,,,,,,,,,,,,,,,,,,,,,,1039,2019_Mar_08_1459,mf_amp_cond1,3.0.4,60.00173194327287,
growth,pulge,&&&&&,left,care.virtue,,,,,,,0,211,211,211,,,,,,,,,,,,,,,,,,,,,AMP,right,1.46730862116965,,,right,0,1.46730862116965,0,,,,,,,,,,,,,,,,,,,,,,1039,2019_Mar_08_1459,mf_amp_cond1,3.0.4,60.00173194327287,
accused,ebbitter,&&&&&&&&,right,fairness.vice,,,,,,,0,212,212,212,,,,,,,,,,,,,,,,,,,,,AMP,left,0.8837971275061136,,,left,0,0.8837971275061136,0,,,,,,,,,,,,,,,,,,,,,,1039,2019_Mar_08_1459,mf_amp_cond1,3.0.4,60.00173194327287,
increase,metibolic,&&&&&&&&&,left,care.virtue,,,,,,,0,213,213,213,,,,,,,,,,,,,,,,,,,,,AMP,right,0.6170678561611567,,,right,0,0.6170678561611567,0,,,,,,,,,,,,,,,,,,,,,,1039,2019_Mar_08_1459,mf_amp_cond1,3.0.4,60.00173194327287,
conspiracy,synchronazers,&&&&&&&&&&&&&,right,sanctity.vice,,,,,,,0,214,214,214,,,,,,,,,,,,,,,,,,,,,AMP,left,0.483676600662875,,,left,0,0.483676600662875,0,,,,,,,,,,,,,,,,,,,,,,1039,2019_Mar_08_1459,mf_amp_cond1,3.0.4,60.00173194327287,
friends,noped,&&&&&,left,loyalty.virtue,,,,,,,0,215,215,215,,,,,,,,,,,,,,,,,,,,,AMP,right,0.46702991490019485,,,right,0,0.46702991490019485,0,,,,,,,,,,,,,,,,,,,,,,1039,2019_Mar_08_1459,mf_amp_cond1,3.0.4,60.00173194327287,
fear,coom,&&&&,right,sanctity.vice,,,,,,,0,216,216,216,,,,,,,,,,,,,,,,,,,,,AMP,left,1.033824484969955,,,left,0,1.033824484969955,0,,,,,,,,,,,,,,,,,,,,,,1039,2019_Mar_08_1459,mf_amp_cond1,3.0.4,60.00173194327287,
promote,ronviolence,&&&&&&&&&&&,left,sanctity.virtue,,,,,,,0,217,217,217,,,,,,,,,,,,,,,,,,,,,AMP,right,0.7670971379557159,,,right,0,0.7670971379557159,0,,,,,,,,,,,,,,,,,,,,,,1039,2019_Mar_08_1459,mf_amp_cond1,3.0.4,60.00173194327287,
critics,gournful,&&&&&&&&,right,loyalty.vice,,,,,,,0,218,218,218,,,,,,,,,,,,,,,,,,,,,AMP,left,2.1674652611400234,,,left,0,2.1674652611400234,0,,,,,,,,,,,,,,,,,,,,,,1039,2019_Mar_08_1459,mf_amp_cond1,3.0.4,60.00173194327287,
help,gikely,&&&&&&,left,care.virtue,,,,,,,0,219,219,219,,,,,,,,,,,,,,,,,,,,,AMP,right,0.8171282799303299,,,right,0,0.8171282799303299,0,,,,,,,,,,,,,,,,,,,,,,1039,2019_Mar_08_1459,mf_amp_cond1,3.0.4,60.00173194327287,
freedom,emassion,&&&&&&&&,left,sanctity.virtue,,,,,,,0,220,220,220,,,,,,,,,,,,,,,,,,,,,AMP,right,0.5170578496763483,,,right,0,0.5170578496763483,0,,,,,,,,,,,,,,,,,,,,,,1039,2019_Mar_08_1459,mf_amp_cond1,3.0.4,60.00173194327287,
rejected,tove,&&&&,right,authority.vice,,,,,,,0,221,221,221,,,,,,,,,,,,,,,,,,,,,AMP,left,0.817118016857421,,,left,0,0.817118016857421,0,,,,,,,,,,,,,,,,,,,,,,1039,2019_Mar_08_1459,mf_amp_cond1,3.0.4,60.00173194327287,
powerful,strofe,&&&&&&,left,authority.virtue,,,,,,,0,222,222,222,,,,,,,,,,,,,,,,,,,,,AMP,right,0.816948355641216,,,right,0,0.816948355641216,0,,,,,,,,,,,,,,,,,,,,,,1039,2019_Mar_08_1459,mf_amp_cond1,3.0.4,60.00173194327287,
charges,feleological,&&&&&&&&&&&&,right,fairness.vice,,,,,,,0,223,223,223,,,,,,,,,,,,,,,,,,,,,AMP,left,2.9843263807561016,,,left,0,2.9843263807561016,0,,,,,,,,,,,,,,,,,,,,,,1039,2019_Mar_08_1459,mf_amp_cond1,3.0.4,60.00173194327287,
rebels,drumbled,&&&&&&&&,right,authority.vice,,,,,,,0,224,224,224,,,,,,,,,,,,,,,,,,,,,AMP,left,0.5837241314584389,,,left,0,0.5837241314584389,0,,,,,,,,,,,,,,,,,,,,,,1039,2019_Mar_08_1459,mf_amp_cond1,3.0.4,60.00173194327287,
perified,lachelor,&&&&&&&&,None,nonword,,,,,,,0,225,225,225,,,,,,,,,,,,,,,,,,,,,AMP,left,0.533747512003174,,,left,0,0.533747512003174,0,,,,,,,,,,,,,,,,,,,,,,1039,2019_Mar_08_1459,mf_amp_cond1,3.0.4,60.00173194327287,
prosecution,discovars,&&&&&&&&&,right,authority.vice,,,,,,,0,226,226,226,,,,,,,,,,,,,,,,,,,,,AMP,left,0.5170427757984726,,,left,0,0.5170427757984726,0,,,,,,,,,,,,,,,,,,,,,,1039,2019_Mar_08_1459,mf_amp_cond1,3.0.4,60.00173194327287,
slavery,elduringly,&&&&&&&&&&,right,loyalty.vice,,,,,,,0,227,227,227,,,,,,,,,,,,,,,,,,,,,AMP,left,0.4835579340142431,,,left,0,0.4835579340142431,0,,,,,,,,,,,,,,,,,,,,,,1039,2019_Mar_08_1459,mf_amp_cond1,3.0.4,60.00173194327287,
restore,ammessment,&&&&&&&&&&,left,care.virtue,,,,,,,0,228,228,228,,,,,,,,,,,,,,,,,,,,,AMP,left,0.5837308666086756,,,left,1,0.5837308666086756,1,,,,,,,,,,,,,,,,,,,,,,1039,2019_Mar_08_1459,mf_amp_cond1,3.0.4,60.00173194327287,
ensure,unscothed,&&&&&&&&&,left,fairness.virtue,,,,,,,0,229,229,229,,,,,,,,,,,,,,,,,,,,,AMP,left,0.5837292630021693,,,left,1,0.5837292630021693,1,,,,,,,,,,,,,,,,,,,,,,1039,2019_Mar_08_1459,mf_amp_cond1,3.0.4,60.00173194327287,
unpleasant,nomparisons,&&&&&&&&&&&,None,control,,,,,,,0,230,230,230,,,,,,,,,,,,,,,,,,,,,AMP,left,1.0171617631713161,,,left,0,1.0171617631713161,0,,,,,,,,,,,,,,,,,,,,,,1039,2019_Mar_08_1459,mf_amp_cond1,3.0.4,60.00173194327287,
pleasant,sonvoy,&&&&&&,None,control,,,,,,,0,231,231,231,,,,,,,,,,,,,,,,,,,,,AMP,right,0.45036943814193364,,,right,0,0.45036943814193364,0,,,,,,,,,,,,,,,,,,,,,,1039,2019_Mar_08_1459,mf_amp_cond1,3.0.4,60.00173194327287,
faspberry,ugeasily,&&&&&&&&,None,nonword,,,,,,,0,232,232,232,,,,,,,,,,,,,,,,,,,,,AMP,left,0.4503918885893654,,,left,0,0.4503918885893654,0,,,,,,,,,,,,,,,,,,,,,,1039,2019_Mar_08_1459,mf_amp_cond1,3.0.4,60.00173194327287,
praise,sgrawl,&&&&&&,left,authority.virtue,,,,,,,0,233,233,233,,,,,,,,,,,,,,,,,,,,,AMP,right,1.6340346211654833,,,right,0,1.6340346211654833,0,,,,,,,,,,,,,,,,,,,,,,1039,2019_Mar_08_1459,mf_amp_cond1,3.0.4,60.00173194327287,
health,fornicalion,&&&&&&&&&&&,left,care.virtue,,,,,,,0,234,234,234,,,,,,,,,,,,,,,,,,,,,AMP,right,0.5170430965226842,,,right,0,0.5170430965226842,0,,,,,,,,,,,,,,,,,,,,,,1039,2019_Mar_08_1459,mf_amp_cond1,3.0.4,60.00173194327287,
honored,uller,&&&&&,left,authority.virtue,,,,,,,0,235,235,235,,,,,,,,,,,,,,,,,,,,,AMP,right,0.5337061390455347,,,right,0,0.5337061390455347,0,,,,,,,,,,,,,,,,,,,,,,1039,2019_Mar_08_1459,mf_amp_cond1,3.0.4,60.00173194327287,
injured,proached,&&&&&&&&,right,care.vice,,,,,,,0,236,236,236,,,,,,,,,,,,,,,,,,,,,AMP,left,1.5672997051296989,,,left,0,1.5672997051296989,0,,,,,,,,,,,,,,,,,,,,,,1039,2019_Mar_08_1459,mf_amp_cond1,3.0.4,60.00173194327287,
respect,wump,&&&&,left,sanctity.virtue,,,,,,,0,237,237,237,,,,,,,,,,,,,,,,,,,,,AMP,right,0.40034471057879273,,,right,0,0.40034471057879273,0,,,,,,,,,,,,,,,,,,,,,,1039,2019_Mar_08_1459,mf_amp_cond1,3.0.4,60.00173194327287,
dumid,gowlands,&&&&&&&&,None,nonword,,,,,,,0,238,238,238,,,,,,,,,,,,,,,,,,,,,AMP,right,0.4837016168894479,,,right,0,0.4837016168894479,0,,,,,,,,,,,,,,,,,,,,,,1039,2019_Mar_08_1459,mf_amp_cond1,3.0.4,60.00173194327287,
victims,emports,&&&&&&&,right,care.vice,,,,,,,0,239,239,239,,,,,,,,,,,,,,,,,,,,,AMP,left,1.6173257155751344,,,left,0,1.6173257155751344,0,,,,,,,,,,,,,,,,,,,,,,1039,2019_Mar_08_1459,mf_amp_cond1,3.0.4,60.00173194327287,
ability,pumber,&&&&&&,left,authority.virtue,,,,,,,0,240,240,240,,,,,,,,,,,,,,,,,,,,,AMP,left,1.150539869107888,,,left,1,1.150539869107888,1,,,,,,,,,,,,,,,,,,,,,,1039,2019_Mar_08_1459,mf_amp_cond1,3.0.4,60.00173194327287,
black,mecan,&&&&&,right,loyalty.vice,,,,,,,0,241,241,241,,,,,,,,,,,,,,,,,,,,,AMP,right,0.7171554770466173,,,right,1,0.7171554770466173,1,,,,,,,,,,,,,,,,,,,,,,1039,2019_Mar_08_1459,mf_amp_cond1,3.0.4,60.00173194327287,
clamorek,photocalkodes,&&&&&&&&&&&&&,None,nonword,,,,,,,0,242,242,242,,,,,,,,,,,,,,,,,,,,,AMP,left,1.0671832835359965,,,left,0,1.0671832835359965,0,,,,,,,,,,,,,,,,,,,,,,1039,2019_Mar_08_1459,mf_amp_cond1,3.0.4,60.00173194327287,
fair,gillipede,&&&&&&&&&,left,fairness.virtue,,,,,,,0,243,243,243,,,,,,,,,,,,,,,,,,,,,AMP,right,0.2503106179792667,,,right,0,0.2503106179792667,0,,,,,,,,,,,,,,,,,,,,,,1039,2019_Mar_08_1459,mf_amp_cond1,3.0.4,60.00173194327287,
embrace,Oregoniuns,&&&&&&&&&&,left,authority.virtue,,,,,,,0,244,244,244,,,,,,,,,,,,,,,,,,,,,AMP,right,0.8838003347045742,,,right,0,0.8838003347045742,0,,,,,,,,,,,,,,,,,,,,,,1039,2019_Mar_08_1459,mf_amp_cond1,3.0.4,60.00173194327287,
officers,menizen,&&&&&&&,right,authority.vice,,,,,,,0,245,245,245,,,,,,,,,,,,,,,,,,,,,AMP,left,3.95128060557181,,,left,0,3.95128060557181,0,,,,,,,,,,,,,,,,,,,,,,1039,2019_Mar_08_1459,mf_amp_cond1,3.0.4,60.00173194327287,
baladroit,emassion,&&&&&&&&,None,nonword,,,,,,,0,246,246,246,,,,,,,,,,,,,,,,,,,,,AMP,left,0.4170157711196225,,,left,0,0.4170157711196225,0,,,,,,,,,,,,,,,,,,,,,,1039,2019_Mar_08_1459,mf_amp_cond1,3.0.4,60.00173194327287,
freedom,reprisols,&&&&&&&&&,left,sanctity.virtue,,,,,,,0,247,247,247,,,,,,,,,,,,,,,,,,,,,AMP,right,0.30032508246949874,,,right,0,0.30032508246949874,0,,,,,,,,,,,,,,,,,,,,,,1039,2019_Mar_08_1459,mf_amp_cond1,3.0.4,60.00173194327287,
fair,stindig,&&&&&&&,left,fairness.virtue,,,,,,,0,248,248,248,,,,,,,,,,,,,,,,,,,,,AMP,right,0.8170814547193004,,,right,0,0.8170814547193004,0,,,,,,,,,,,,,,,,,,,,,,1039,2019_Mar_08_1459,mf_amp_cond1,3.0.4,60.00173194327287,
protesters,noped,&&&&&,right,authority.vice,,,,,,,0,249,249,249,,,,,,,,,,,,,,,,,,,,,AMP,left,0.4670446680538589,,,left,0,0.4670446680538589,0,,,,,,,,,,,,,,,,,,,,,,1039,2019_Mar_08_1459,mf_amp_cond1,3.0.4,60.00173194327287,
health,gedious,&&&&&&&,left,care.virtue,,,,,,,0,250,250,250,,,,,,,,,,,,,,,,,,,,,AMP,right,0.5337144777877256,,,right,0,0.5337144777877256,0,,,,,,,,,,,,,,,,,,,,,,1039,2019_Mar_08_1459,mf_amp_cond1,3.0.4,60.00173194327287,
prosecution,unscothed,&&&&&&&&&,right,authority.vice,,,,,,,0,251,251,251,,,,,,,,,,,,,,,,,,,,,AMP,left,0.7004205931007164,,,left,0,0.7004205931007164,0,,,,,,,,,,,,,,,,,,,,,,1039,2019_Mar_08_1459,mf_amp_cond1,3.0.4,60.00173194327287,
powerful,emports,&&&&&&&,left,authority.virtue,,,,,,,0,252,252,252,,,,,,,,,,,,,,,,,,,,,AMP,right,1.1838710856827674,,,right,0,1.1838710856827674,0,,,,,,,,,,,,,,,,,,,,,,1039,2019_Mar_08_1459,mf_amp_cond1,3.0.4,60.00173194327287,
friends,frojecting,&&&&&&&&&&,left,loyalty.virtue,,,,,,,0,253,253,253,,,,,,,,,,,,,,,,,,,,,AMP,right,2.6175701047177427,,,right,0,2.6175701047177427,0,,,,,,,,,,,,,,,,,,,,,,1039,2019_Mar_08_1459,mf_amp_cond1,3.0.4,60.00173194327287,
torture,ejanulated,&&&&&&&&&&,right,care.vice,,,,,,,0,254,254,254,,,,,,,,,,,,,,,,,,,,,AMP,left,1.2505601386510534,,,left,0,1.2505601386510534,0,,,,,,,,,,,,,,,,,,,,,,1039,2019_Mar_08_1459,mf_amp_cond1,3.0.4,60.00173194327287,
promised,strofe,&&&&&&,left,loyalty.virtue,,,,,,,0,255,255,255,,,,,,,,,,,,,,,,,,,,,AMP,right,0.3335254450212233,,,right,0,0.3335254450212233,0,,,,,,,,,,,,,,,,,,,,,,1039,2019_Mar_08_1459,mf_amp_cond1,3.0.4,60.00173194327287,
ensure,juck,&&&&,left,fairness.virtue,,,,,,,0,256,256,256,,,,,,,,,,,,,,,,,,,,,AMP,left,1.167199704432278,,,left,1,1.167199704432278,1,,,,,,,,,,,,,,,,,,,,,,1039,2019_Mar_08_1459,mf_amp_cond1,3.0.4,60.00173194327287,
racist,spag,&&&&,right,sanctity.vice,,,,,,,0,257,257,257,,,,,,,,,,,,,,,,,,,,,AMP,left,1.1005228388385149,,,left,0,1.1005228388385149,0,,,,,,,,,,,,,,,,,,,,,,1039,2019_Mar_08_1459,mf_amp_cond1,3.0.4,60.00173194327287,
drug,neutralust,&&&&&&&&&&,right,sanctity.vice,,,,,,,0,258,258,258,,,,,,,,,,,,,,,,,,,,,AMP,left,0.4003347682300955,,,left,0,0.4003347682300955,0,,,,,,,,,,,,,,,,,,,,,,1039,2019_Mar_08_1459,mf_amp_cond1,3.0.4,60.00173194327287,
threatened,bycled,&&&&&&,right,fairness.vice,,,,,,,0,259,259,259,,,,,,,,,,,,,,,,,,,,,AMP,left,0.316975296169403,,,left,0,0.316975296169403,0,,,,,,,,,,,,,,,,,,,,,,1039,2019_Mar_08_1459,mf_amp_cond1,3.0.4,60.00173194327287,
faspberry,gationwide,&&&&&&&&&&,None,nonword,,,,,,,0,260,260,260,,,,,,,,,,,,,,,,,,,,,AMP,left,0.38369417616922874,,,left,0,0.38369417616922874,0,,,,,,,,,,,,,,,,,,,,,,1039,2019_Mar_08_1459,mf_amp_cond1,3.0.4,60.00173194327287,
charges,wump,&&&&,right,fairness.vice,,,,,,,0,261,261,261,,,,,,,,,,,,,,,,,,,,,AMP,left,1.0838476089265896,,,left,0,1.0838476089265896,0,,,,,,,,,,,,,,,,,,,,,,1039,2019_Mar_08_1459,mf_amp_cond1,3.0.4,60.00173194327287,
opportunity,abointment,&&&&&&&&&&,left,fairness.virtue,,,,,,,0,262,262,262,,,,,,,,,,,,,,,,,,,,,AMP,right,1.0838402323570335,,,right,0,1.0838402323570335,0,,,,,,,,,,,,,,,,,,,,,,1039,2019_Mar_08_1459,mf_amp_cond1,3.0.4,60.00173194327287,
suicide,chadows,&&&&&&&,right,care.vice,,,,,,,0,263,263,263,,,,,,,,,,,,,,,,,,,,,AMP,left,0.7504328125505708,,,left,0,0.7504328125505708,0,,,,,,,,,,,,,,,,,,,,,,1039,2019_Mar_08_1459,mf_amp_cond1,3.0.4,60.00173194327287,
party,gillipede,&&&&&&&&&,left,loyalty.virtue,,,,,,,0,264,264,264,,,,,,,,,,,,,,,,,,,,,AMP,right,0.6504115808347706,,,right,0,0.6504115808347706,0,,,,,,,,,,,,,,,,,,,,,,1039,2019_Mar_08_1459,mf_amp_cond1,3.0.4,60.00173194327287,
fonderland,sonvoy,&&&&&&,None,nonword,,,,,,,0,265,265,265,,,,,,,,,,,,,,,,,,,,,AMP,left,0.600420849659713,,,left,0,0.600420849659713,0,,,,,,,,,,,,,,,,,,,,,,1039,2019_Mar_08_1459,mf_amp_cond1,3.0.4,60.00173194327287,
killed,proached,&&&&&&&&,right,care.vice,,,,,,,0,266,266,266,,,,,,,,,,,,,,,,,,,,,AMP,left,1.617316735399072,,,left,0,1.617316735399072,0,,,,,,,,,,,,,,,,,,,,,,1039,2019_Mar_08_1459,mf_amp_cond1,3.0.4,60.00173194327287,
tenuflect,Boeinf,&&&&&&,None,nonword,,,,,,,0,267,267,267,,,,,,,,,,,,,,,,,,,,,AMP,left,1.1838698028004728,,,left,0,1.1838698028004728,0,,,,,,,,,,,,,,,,,,,,,,1039,2019_Mar_08_1459,mf_amp_cond1,3.0.4,60.00173194327287,
pleasant,tracious,&&&&&&&&,None,control,,,,,,,0,268,268,268,,,,,,,,,,,,,,,,,,,,,AMP,right,0.36705358409381006,,,right,0,0.36705358409381006,0,,,,,,,,,,,,,,,,,,,,,,1039,2019_Mar_08_1459,mf_amp_cond1,3.0.4,60.00173194327287,
men,frocessing,&&&&&&&&&&,right,loyalty.vice,,,,,,,0,269,269,269,,,,,,,,,,,,,,,,,,,,,AMP,left,1.00050032424042,,,left,0,1.00050032424042,0,,,,,,,,,,,,,,,,,,,,,,1039,2019_Mar_08_1459,mf_amp_cond1,3.0.4,60.00173194327287,
accused,vurtain,&&&&&&&,right,fairness.vice,,,,,,,0,270,270,270,,,,,,,,,,,,,,,,,,,,,AMP,left,1.6506546871096361,,,left,0,1.6506546871096361,0,,,,,,,,,,,,,,,,,,,,,,1039,2019_Mar_08_1459,mf_amp_cond1,3.0.4,60.00173194327287,
actively,gikely,&&&&&&,left,authority.virtue,,,,,,,0,271,271,271,,,,,,,,,,,,,,,,,,,,,AMP,right,0.6837537019164301,,,right,0,0.6837537019164301,0,,,,,,,,,,,,,,,,,,,,,,1039,2019_Mar_08_1459,mf_amp_cond1,3.0.4,60.00173194327287,
perified,rivernoat,&&&&&&&&&,None,nonword,,,,,,,0,272,272,272,,,,,,,,,,,,,,,,,,,,,AMP,left,0.8504530820937362,,,left,0,0.8504530820937362,0,,,,,,,,,,,,,,,,,,,,,,1039,2019_Mar_08_1459,mf_amp_cond1,3.0.4,60.00173194327287,
commitment,sgrawl,&&&&&&,left,sanctity.virtue,,,,,,,0,273,273,273,,,,,,,,,,,,,,,,,,,,,AMP,right,1.0171604802890215,,,right,0,1.0171604802890215,0,,,,,,,,,,,,,,,,,,,,,,1039,2019_Mar_08_1459,mf_amp_cond1,3.0.4,60.00173194327287,
intelligence,tomedians,&&&&&&&&&,left,loyalty.virtue,,,,,,,0,274,274,274,,,,,,,,,,,,,,,,,,,,,AMP,right,0.8504575721890433,,,right,0,0.8504575721890433,0,,,,,,,,,,,,,,,,,,,,,,1039,2019_Mar_08_1459,mf_amp_cond1,3.0.4,60.00173194327287,
scandal,chonograph,&&&&&&&&&&,right,sanctity.vice,,,,,,,0,275,275,275,,,,,,,,,,,,,,,,,,,,,AMP,left,1.450611902968376,,,left,0,1.450611902968376,0,,,,,,,,,,,,,,,,,,,,,,1039,2019_Mar_08_1459,mf_amp_cond1,3.0.4,60.00173194327287,
ability,supervuned,&&&&&&&&&&,left,authority.virtue,,,,,,,0,276,276,276,,,,,,,,,,,,,,,,,,,,,AMP,right,1.9505955462082056,,,right,0,1.9505955462082056,0,,,,,,,,,,,,,,,,,,,,,,1039,2019_Mar_08_1459,mf_amp_cond1,3.0.4,60.00173194327287,
peace,focomotive,&&&&&&&&&&,left,care.virtue,,,,,,,0,277,277,277,,,,,,,,,,,,,,,,,,,,,AMP,right,0.4503591750835767,,,right,0,0.4503591750835767,0,,,,,,,,,,,,,,,,,,,,,,1039,2019_Mar_08_1459,mf_amp_cond1,3.0.4,60.00173194327287,
restore,uller,&&&&&,left,care.virtue,,,,,,,0,278,278,278,,,,,,,,,,,,,,,,,,,,,AMP,right,1.2005504849657882,,,right,0,1.2005504849657882,0,,,,,,,,,,,,,,,,,,,,,,1039,2019_Mar_08_1459,mf_amp_cond1,3.0.4,60.00173194327287,
penalty,disregord,&&&&&&&&&,right,authority.vice,,,,,,,0,279,279,279,,,,,,,,,,,,,,,,,,,,,AMP,left,0.433687152370112,,,left,0,0.433687152370112,0,,,,,,,,,,,,,,,,,,,,,,1039,2019_Mar_08_1459,mf_amp_cond1,3.0.4,60.00173194327287,
agreement,menizen,&&&&&&&,left,fairness.virtue,,,,,,,0,280,280,280,,,,,,,,,,,,,,,,,,,,,AMP,right,0.5337122327327961,,,right,0,0.5337122327327961,0,,,,,,,,,,,,,,,,,,,,,,1039,2019_Mar_08_1459,mf_amp_cond1,3.0.4,60.00173194327287,
slavery,gusinesslike,&&&&&&&&&&&&,right,loyalty.vice,,,,,,,0,281,281,281,,,,,,,,,,,,,,,,,,,,,AMP,left,0.450343139047618,,,left,0,0.450343139047618,0,,,,,,,,,,,,,,,,,,,,,,1039,2019_Mar_08_1459,mf_amp_cond1,3.0.4,60.00173194327287,
voter,ilportation,&&&&&&&&&&&,right,fairness.vice,,,,,,,0,282,282,282,,,,,,,,,,,,,,,,,,,,,AMP,left,0.6170643282239325,,,left,0,0.6170643282239325,0,,,,,,,,,,,,,,,,,,,,,,1039,2019_Mar_08_1459,mf_amp_cond1,3.0.4,60.00173194327287,
respect,dormandi,&&&&&&&&,left,sanctity.virtue,,,,,,,0,283,283,283,,,,,,,,,,,,,,,,,,,,,AMP,right,0.8838019383110804,,,right,0,0.8838019383110804,0,,,,,,,,,,,,,,,,,,,,,,1039,2019_Mar_08_1459,mf_amp_cond1,3.0.4,60.00173194327287,
critics,discovars,&&&&&&&&&,right,loyalty.vice,,,,,,,0,284,284,284,,,,,,,,,,,,,,,,,,,,,AMP,left,0.6169180795986904,,,left,0,0.6169180795986904,0,,,,,,,,,,,,,,,,,,,,,,1039,2019_Mar_08_1459,mf_amp_cond1,3.0.4,60.00173194327287,
died,forepo,&&&&&&,right,care.vice,,,,,,,0,285,285,285,,,,,,,,,,,,,,,,,,,,,AMP,left,1.0005009656888433,,,left,0,1.0005009656888433,0,,,,,,,,,,,,,,,,,,,,,,1039,2019_Mar_08_1459,mf_amp_cond1,3.0.4,60.00173194327287,
safety,imebreaker,&&&&&&&&&&,left,care.virtue,,,,,,,0,286,286,286,,,,,,,,,,,,,,,,,,,,,AMP,left,0.7837694813788403,,,left,1,0.7837694813788403,1,,,,,,,,,,,,,,,,,,,,,,1039,2019_Mar_08_1459,mf_amp_cond1,3.0.4,60.00173194327287,
officers,touls,&&&&&,right,authority.vice,,,,,,,0,287,287,287,,,,,,,,,,,,,,,,,,,,,AMP,left,1.2172241112566553,,,left,0,1.2172241112566553,0,,,,,,,,,,,,,,,,,,,,,,1039,2019_Mar_08_1459,mf_amp_cond1,3.0.4,60.00173194327287,
honored,ugeasily,&&&&&&&&,left,authority.virtue,,,,,,,0,288,288,288,,,,,,,,,,,,,,,,,,,,,AMP,right,0.41702282696496695,,,right,0,0.41702282696496695,0,,,,,,,,,,,,,,,,,,,,,,1039,2019_Mar_08_1459,mf_amp_cond1,3.0.4,60.00173194327287,
black,elduringly,&&&&&&&&&&,right,loyalty.vice,,,,,,,0,289,289,289,,,,,,,,,,,,,,,,,,,,,AMP,right,1.3504508370388066,,,right,1,1.3504508370388066,1,,,,,,,,,,,,,,,,,,,,,,1039,2019_Mar_08_1459,mf_amp_cond1,3.0.4,60.00173194327287,
clamorek,nomparisons,&&&&&&&&&&&,None,nonword,,,,,,,0,290,290,290,,,,,,,,,,,,,,,,,,,,,AMP,left,0.4836974475183524,,,left,0,0.4836974475183524,0,,,,,,,,,,,,,,,,,,,,,,1039,2019_Mar_08_1459,mf_amp_cond1,3.0.4,60.00173194327287,
police,feleological,&&&&&&&&&&&&,right,authority.vice,,,,,,,0,291,291,291,,,,,,,,,,,,,,,,,,,,,AMP,left,0.9504967642424162,,,left,0,0.9504967642424162,0,,,,,,,,,,,,,,,,,,,,,,1039,2019_Mar_08_1459,mf_amp_cond1,3.0.4,60.00173194327287,
loyalty,antral,&&&&&&,left,loyalty.virtue,,,,,,,0,292,292,292,,,,,,,,,,,,,,,,,,,,,AMP,right,2.700916747970041,,,right,0,2.700916747970041,0,,,,,,,,,,,,,,,,,,,,,,1039,2019_Mar_08_1459,mf_amp_cond1,3.0.4,60.00173194327287,
growth,photocalkodes,&&&&&&&&&&&&&,left,care.virtue,,,,,,,0,293,293,293,,,,,,,,,,,,,,,,,,,,,AMP,left,3.2677276747854194,,,left,1,3.2677276747854194,1,,,,,,,,,,,,,,,,,,,,,,1039,2019_Mar_08_1459,mf_amp_cond1,3.0.4,60.00173194327287,
protect,allears,&&&&&&&,left,fairness.virtue,,,,,,,0,294,294,294,,,,,,,,,,,,,,,,,,,,,AMP,right,0.6004000028187875,,,right,0,0.6004000028187875,0,,,,,,,,,,,,,,,,,,,,,,1039,2019_Mar_08_1459,mf_amp_cond1,3.0.4,60.00173194327287,
increase,drumbled,&&&&&&&&,left,care.virtue,,,,,,,0,295,295,295,,,,,,,,,,,,,,,,,,,,,AMP,right,1.0338347480283119,,,right,0,1.0338347480283119,0,,,,,,,,,,,,,,,,,,,,,,1039,2019_Mar_08_1459,mf_amp_cond1,3.0.4,60.00173194327287,
abuse,alar,&&&&,right,sanctity.vice,,,,,,,0,296,296,296,,,,,,,,,,,,,,,,,,,,,AMP,left,0.8337893981224624,,,left,0,0.8337893981224624,0,,,,,,,,,,,,,,,,,,,,,,1039,2019_Mar_08_1459,mf_amp_cond1,3.0.4,60.00173194327287,
rejected,tabin,&&&&&,right,authority.vice,,,,,,,0,297,297,297,,,,,,,,,,,,,,,,,,,,,AMP,left,0.4336675884114811,,,left,0,0.4336675884114811,0,,,,,,,,,,,,,,,,,,,,,,1039,2019_Mar_08_1459,mf_amp_cond1,3.0.4,60.00173194327287,
sexual,gowlands,&&&&&&&&,right,sanctity.vice,,,,,,,0,298,298,298,,,,,,,,,,,,,,,,,,,,,AMP,left,2.367499385814881,,,left,0,2.367499385814881,0,,,,,,,,,,,,,,,,,,,,,,1039,2019_Mar_08_1459,mf_amp_cond1,3.0.4,60.00173194327287,
sfumatoy,neputized,&&&&&&&&&,None,nonword,,,,,,,0,299,299,299,,,,,,,,,,,,,,,,,,,,,AMP,left,0.9671832193853334,,,left,0,0.9671832193853334,0,,,,,,,,,,,,,,,,,,,,,,1039,2019_Mar_08_1459,mf_amp_cond1,3.0.4,60.00173194327287,
credit,blunderints,&&&&&&&&&&&,left,fairness.virtue,,,,,,,0,300,300,300,,,,,,,,,,,,,,,,,,,,,AMP,left,0.2836306093231542,,,left,1,0.2836306093231542,1,,,,,,,,,,,,,,,,,,,,,,1039,2019_Mar_08_1459,mf_amp_cond1,3.0.4,60.00173194327287,
fear,tove,&&&&,right,sanctity.vice,,,,,,,0,301,301,301,,,,,,,,,,,,,,,,,,,,,AMP,left,0.4670388950908091,,,left,0,0.4670388950908091,0,,,,,,,,,,,,,,,,,,,,,,1039,2019_Mar_08_1459,mf_amp_cond1,3.0.4,60.00173194327287,
great,mecan,&&&&&,left,loyalty.virtue,,,,,,,0,302,302,302,,,,,,,,,,,,,,,,,,,,,AMP,right,0.13362506085832138,,,right,0,0.13362506085832138,0,,,,,,,,,,,,,,,,,,,,,,1039,2019_Mar_08_1459,mf_amp_cond1,3.0.4,60.00173194327287,
slending,lachelor,&&&&&&&&,None,nonword,,,,,,,0,303,303,303,,,,,,,,,,,,,,,,,,,,,AMP,left,0.6670823206659406,,,left,0,0.6670823206659406,0,,,,,,,,,,,,,,,,,,,,,,1039,2019_Mar_08_1459,mf_amp_cond1,3.0.4,60.00173194327287,
praise,papert,&&&&&&,left,authority.virtue,,,,,,,0,304,304,304,,,,,,,,,,,,,,,,,,,,,AMP,right,1.2672667991864728,,,right,0,1.2672667991864728,0,,,,,,,,,,,,,,,,,,,,,,1039,2019_Mar_08_1459,mf_amp_cond1,3.0.4,60.00173194327287,
rebels,baklara,&&&&&&&,right,authority.vice,,,,,,,0,305,305,305,,,,,,,,,,,,,,,,,,,,,AMP,left,2.0841080341197085,,,left,0,2.0841080341197085,0,,,,,,,,,,,,,,,,,,,,,,1039,2019_Mar_08_1459,mf_amp_cond1,3.0.4,60.00173194327287,
clean,precificity,&&&&&&&&&&&,left,sanctity.virtue,,,,,,,0,306,306,306,,,,,,,,,,,,,,,,,,,,,AMP,right,0.4337031884060707,,,right,0,0.4337031884060707,0,,,,,,,,,,,,,,,,,,,,,,1039,2019_Mar_08_1459,mf_amp_cond1,3.0.4,60.00173194327287,
violence,ammessment,&&&&&&&&&&,right,care.vice,,,,,,,0,307,307,307,,,,,,,,,,,,,,,,,,,,,AMP,left,0.9838283015560592,,,left,0,0.9838283015560592,0,,,,,,,,,,,,,,,,,,,,,,1039,2019_Mar_08_1459,mf_amp_cond1,3.0.4,60.00173194327287,
promote,erks,&&&&,left,sanctity.virtue,,,,,,,0,308,308,308,,,,,,,,,,,,,,,,,,,,,AMP,right,0.6504016385006253,,,right,0,0.6504016385006253,0,,,,,,,,,,,,,,,,,,,,,,1039,2019_Mar_08_1459,mf_amp_cond1,3.0.4,60.00173194327287,
useful,synchronazers,&&&&&&&&&&&&&,left,authority.virtue,,,,,,,0,309,309,309,,,,,,,,,,,,,,,,,,,,,AMP,left,0.9504877840663539,,,left,1,0.9504877840663539,1,,,,,,,,,,,,,,,,,,,,,,1039,2019_Mar_08_1459,mf_amp_cond1,3.0.4,60.00173194327287,
love,gandbrake,&&&&&&&&&,left,loyalty.virtue,,,,,,,0,310,310,310,,,,,,,,,,,,,,,,,,,,,AMP,right,0.40033957903506234,,,right,0,0.40033957903506234,0,,,,,,,,,,,,,,,,,,,,,,1039,2019_Mar_08_1459,mf_amp_cond1,3.0.4,60.00173194327287,
victims,pulge,&&&&&,right,care.vice,,,,,,,0,311,311,311,,,,,,,,,,,,,,,,,,,,,AMP,left,1.0505115815467434,,,left,0,1.0505115815467434,0,,,,,,,,,,,,,,,,,,,,,,1039,2019_Mar_08_1459,mf_amp_cond1,3.0.4,60.00173194327287,
conspiracy,pumber,&&&&&&,right,sanctity.vice,,,,,,,0,312,312,312,,,,,,,,,,,,,,,,,,,,,AMP,left,6.201809955047793,,,left,0,6.201809955047793,0,,,,,,,,,,,,,,,,,,,,,,1039,2019_Mar_08_1459,mf_amp_cond1,3.0.4,60.00173194327287,
embrace,pafer,&&&&&,left,authority.virtue,,,,,,,0,313,313,313,,,,,,,,,,,,,,,,,,,,,AMP,right,0.18364465689228382,,,right,0,0.18364465689228382,0,,,,,,,,,,,,,,,,,,,,,,1039,2019_Mar_08_1459,mf_amp_cond1,3.0.4,60.00173194327287,
unpleasant,smapper,&&&&&&&,None,control,,,,,,,0,314,314,314,,,,,,,,,,,,,,,,,,,,,AMP,left,0.5670687862439081,,,left,0,0.5670687862439081,0,,,,,,,,,,,,,,,,,,,,,,1039,2019_Mar_08_1459,mf_amp_cond1,3.0.4,60.00173194327287,
help,gournful,&&&&&&&&,left,care.virtue,,,,,,,0,315,315,315,,,,,,,,,,,,,,,,,,,,,AMP,right,0.23363891599001363,,,right,0,0.23363891599001363,0,,,,,,,,,,,,,,,,,,,,,,1039,2019_Mar_08_1459,mf_amp_cond1,3.0.4,60.00173194327287,
hatigue,fornicalion,&&&&&&&&&&&,None,nonword,,,,,,,0,316,316,316,,,,,,,,,,,,,,,,,,,,,AMP,left,0.6670739819237497,,,left,0,0.6670739819237497,0,,,,,,,,,,,,,,,,,,,,,,1039,2019_Mar_08_1459,mf_amp_cond1,3.0.4,60.00173194327287,
fraud,edancipation,&&&&&&&&&&&&,right,fairness.vice,,,,,,,0,317,317,317,,,,,,,,,,,,,,,,,,,,,AMP,left,2.2007871768291807,,,left,0,2.2007871768291807,0,,,,,,,,,,,,,,,,,,,,,,1039,2019_Mar_08_1459,mf_amp_cond1,3.0.4,60.00173194327287,
lies,ebbitter,&&&&&&&&,right,fairness.vice,,,,,,,0,318,318,318,,,,,,,,,,,,,,,,,,,,,AMP,left,1.283900335401995,,,left,0,1.283900335401995,0,,,,,,,,,,,,,,,,,,,,,,1039,2019_Mar_08_1459,mf_amp_cond1,3.0.4,60.00173194327287,
troops,divility,&&&&&&&&,right,loyalty.vice,,,,,,,0,319,319,319,,,,,,,,,,,,,,,,,,,,,AMP,left,0.6170640075142728,,,left,0,0.6170640075142728,0,,,,,,,,,,,,,,,,,,,,,,1039,2019_Mar_08_1459,mf_amp_cond1,3.0.4,60.00173194327287,
crime,metibolic,&&&&&&&&&,right,fairness.vice,,,,,,,0,320,320,320,,,,,,,,,,,,,,,,,,,,,AMP,left,0.6003935884073144,,,left,0,0.6003935884073144,0,,,,,,,,,,,,,,,,,,,,,,1039,2019_Mar_08_1459,mf_amp_cond1,3.0.4,60.00173194327287,
dumid,grovelire,&&&&&&&&&,None,nonword,,,,,,,0,321,321,321,,,,,,,,,,,,,,,,,,,,,AMP,left,0.5837218864326132,,,left,0,0.5837218864326132,0,,,,,,,,,,,,,,,,,,,,,,1039,2019_Mar_08_1459,mf_amp_cond1,3.0.4,60.00173194327287,
promises,fostet,&&&&&&,left,fairness.virtue,,,,,,,0,322,322,322,,,,,,,,,,,,,,,,,,,,,AMP,left,6.385170453417231,,,left,1,6.385170453417231,1,,,,,,,,,,,,,,,,,,,,,,1039,2019_Mar_08_1459,mf_amp_cond1,3.0.4,60.00173194327287,
betrayal,ronviolence,&&&&&&&&&&&,right,loyalty.vice,,,,,,,0,323,323,323,,,,,,,,,,,,,,,,,,,,,AMP,left,1.4339366730710026,,,left,0,1.4339366730710026,0,,,,,,,,,,,,,,,,,,,,,,1039,2019_Mar_08_1459,mf_amp_cond1,3.0.4,60.00173194327287,
hand,Oregoniuns,&&&&&&&&&&,left,sanctity.virtue,,,,,,,0,324,324,324,,,,,,,,,,,,,,,,,,,,,AMP,right,1.6673481980978977,,,right,0,1.6673481980978977,0,,,,,,,,,,,,,,,,,,,,,,1039,2019_Mar_08_1459,mf_amp_cond1,3.0.4,60.00173194327287,
faith,nonobservalt,&&&&&&&&&&&&,left,sanctity.virtue,,,,,,,0,325,325,325,,,,,,,,,,,,,,,,,,,,,AMP,right,0.15030285652028397,,,right,0,0.15030285652028397,0,,,,,,,,,,,,,,,,,,,,,,1039,2019_Mar_08_1459,mf_amp_cond1,3.0.4,60.00173194327287,
ban,coom,&&&&,right,loyalty.vice,,,,,,,0,326,326,326,,,,,,,,,,,,,,,,,,,,,AMP,left,0.5837260558037087,,,left,0,0.5837260558037087,0,,,,,,,,,,,,,,,,,,,,,,1039,2019_Mar_08_1459,mf_amp_cond1,3.0.4,60.00173194327287,
injured,seachwear,&&&&&&&&&,right,care.vice,,,,,,,0,327,327,327,,,,,,,,,,,,,,,,,,,,,AMP,left,0.8504857955995249,,,left,0,0.8504857955995249,0,,,,,,,,,,,,,,,,,,,,,,1039,2019_Mar_08_1459,mf_amp_cond1,3.0.4,60.00173194327287,
,,,,,,,,,,,,,,,,,,,,,,,,,,,,,,,,,,,,,,,,,,,,5,25.942,,,,,,,,,,,,,,,,,,,,1039,2019_Mar_08_1459,mf_amp_cond1,3.0.4,60.00173194327287,
,,,,,,,,,,,,,,,,,,,,,,,,,,,,,,,,,,,,,,,,,,,,,,7,13.889,,,,,,,,,,,,,,,,,,1039,2019_Mar_08_1459,mf_amp_cond1,3.0.4,60.00173194327287,
,,,,,,,,,,,,,,,,,,,,,,,,,,,,,,,,,,,,,,,,,,,,,,,,2,9.988,,,,,,,,,,,,,,,,1039,2019_Mar_08_1459,mf_amp_cond1,3.0.4,60.00173194327287,
,,,,,,,,,,,,,,,,,,,,,,,,,,,,,,,,,,,,,,,,,,,,,,,,,,right,2.967705352639314,,,,,,,,,,,,,,1039,2019_Mar_08_1459,mf_amp_cond1,3.0.4,60.00173194327287,
bisebell,,&&&&&&&,,,,,,,,,,,,,0,0,0,1,,,,,,,,,,,,,,,,,LDT_prac,left,5.21826869850338,,,,,,0,,,,,,,,,left,5.21826869850338,,,,,,,,,,,,1039,2019_Mar_08_1459,mf_amp_cond1,3.0.4,60.00173194327287,
keyboard,,&&&&&&&,,,,,,,,,,,,,0,1,1,0,,,,,,,,,,,,,,,,,LDT_prac,right,1.2339227537886472,,,,,,0,,,,,,,,,right,1.2339227537886472,,,,,,,,,,,,1039,2019_Mar_08_1459,mf_amp_cond1,3.0.4,60.00173194327287,
,,,,,,,,,,,,,,,,,,,,,,,,,,,,,,,,,,,,,,,,,,,,,,,,,,,,,,right,1.7173684355657315,,,,,,,,,,1039,2019_Mar_08_1459,mf_amp_cond1,3.0.4,60.00173194327287,
vicissifude,,&&&&&&&&&&&,right,nonword,,,,,,,,,,,,,,,0,0,0,57,,,,,,,,,,,,,LDT,right,2.1508070294221397,,,,,,1,,,,,,,,,,,,,right,1,2.1508070294221397,,,,,,,1039,2019_Mar_08_1459,mf_amp_cond1,3.0.4,60.00173194327287,
values,,&&&&&&,left,sanctity.virtue,,,,,,,,,,,,,,,0,1,1,21,,,,,,,,,,,,,LDT,right,0.8004668410139857,,,,,,0,,,,,,,,,,,,,right,0,0.8004668410139857,,,,,,,1039,2019_Mar_08_1459,mf_amp_cond1,3.0.4,60.00173194327287,
illegal,,&&&&&&&,left,fairness.vice,,,,,,,,,,,,,,,0,2,2,38,,,,,,,,,,,,,LDT,right,0.7671150983078405,,,,,,0,,,,,,,,,,,,,right,0,0.7671150983078405,,,,,,,1039,2019_Mar_08_1459,mf_amp_cond1,3.0.4,60.00173194327287,
myself,,&&&&&&,left,neutral,,,,,,,,,,,,,,,0,3,3,56,,,,,,,,,,,,,LDT,right,0.7504398684104672,,,,,,0,,,,,,,,,,,,,right,0,0.7504398684104672,,,,,,,1039,2019_Mar_08_1459,mf_amp_cond1,3.0.4,60.00173194327287,
dramens,,&&&&&&&,right,nonword,,,,,,,,,,,,,,,0,4,4,60,,,,,,,,,,,,,LDT,left,7.1353694605932105,,,,,,0,,,,,,,,,,,,,left,0,7.1353694605932105,,,,,,,1039,2019_Mar_08_1459,mf_amp_cond1,3.0.4,60.00173194327287,
good,,&&&&,left,care.virtue,,,,,,,,,,,,,,,0,5,5,24,,,,,,,,,,,,,LDT,right,0.567060447516269,,,,,,0,,,,,,,,,,,,,right,0,0.567060447516269,,,,,,,1039,2019_Mar_08_1459,mf_amp_cond1,3.0.4,60.00173194327287,
reviked,,&&&&&&&,right,nonword,,,,,,,,,,,,,,,0,6,6,2,,,,,,,,,,,,,LDT,left,2.0174773523031035,,,,,,0,,,,,,,,,,,,,left,0,2.0174773523031035,,,,,,,1039,2019_Mar_08_1459,mf_amp_cond1,3.0.4,60.00173194327287,
also,,&&&&,left,neutral,,,,,,,,,,,,,,,0,7,7,148,,,,,,,,,,,,,LDT,right,1.1505373033432988,,,,,,0,,,,,,,,,,,,,right,0,1.1505373033432988,,,,,,,1039,2019_Mar_08_1459,mf_amp_cond1,3.0.4,60.00173194327287,
terrorist,,&&&&&&&&&,left,loyalty.vice,,,,,,,,,,,,,,,0,8,8,166,,,,,,,,,,,,,LDT,right,0.8171074330894044,,,,,,0,,,,,,,,,,,,,right,0,0.8171074330894044,,,,,,,1039,2019_Mar_08_1459,mf_amp_cond1,3.0.4,60.00173194327287,
sliptery,,&&&&&&&&,right,nonword,,,,,,,,,,,,,,,0,9,9,185,,,,,,,,,,,,,LDT,right,1.3339183278294513,,,,,,1,,,,,,,,,,,,,right,1,1.3339183278294513,,,,,,,1039,2019_Mar_08_1459,mf_amp_cond1,3.0.4,60.00173194327287,
hereby,,&&&&&&,left,neutral,,,,,,,,,,,,,,,0,10,10,119,,,,,,,,,,,,,LDT,right,1.1172035210038302,,,,,,0,,,,,,,,,,,,,right,0,1.1172035210038302,,,,,,,1039,2019_Mar_08_1459,mf_amp_cond1,3.0.4,60.00173194327287,
eight,,&&&&&,left,neutral,,,,,,,,,,,,,,,0,11,11,174,,,,,,,,,,,,,LDT,right,0.5170469451695681,,,,,,0,,,,,,,,,,,,,right,0,0.5170469451695681,,,,,,,1039,2019_Mar_08_1459,mf_amp_cond1,3.0.4,60.00173194327287,
idexpressible,,&&&&&&&&&&&&&,right,nonword,,,,,,,,,,,,,,,0,12,12,39,,,,,,,,,,,,,LDT,left,2.4175269998668227,,,,,,0,,,,,,,,,,,,,left,0,2.4175269998668227,,,,,,,1039,2019_Mar_08_1459,mf_amp_cond1,3.0.4,60.00173194327287,
neneficence,,&&&&&&&&&&&,right,nonword,,,,,,,,,,,,,,,0,13,13,97,,,,,,,,,,,,,LDT,left,1.8507260153855896,,,,,,0,,,,,,,,,,,,,left,0,1.8507260153855896,,,,,,,1039,2019_Mar_08_1459,mf_amp_cond1,3.0.4,60.00173194327287,
fangsters,,&&&&&&&&&,right,nonword,,,,,,,,,,,,,,,0,14,14,145,,,,,,,,,,,,,LDT,left,0.6004381685779663,,,,,,0,,,,,,,,,,,,,left,0,0.6004381685779663,,,,,,,1039,2019_Mar_08_1459,mf_amp_cond1,3.0.4,60.00173194327287,
ittutable,,&&&&&&&&&,right,nonword,,,,,,,,,,,,,,,0,15,15,83,,,,,,,,,,,,,LDT,left,0.6337517455103807,,,,,,0,,,,,,,,,,,,,left,0,0.6337517455103807,,,,,,,1039,2019_Mar_08_1459,mf_amp_cond1,3.0.4,60.00173194327287,
brudent,,&&&&&&&,right,nonword,,,,,,,,,,,,,,,0,16,16,61,,,,,,,,,,,,,LDT,left,1.3005717166670365,,,,,,0,,,,,,,,,,,,,left,0,1.3005717166670365,,,,,,,1039,2019_Mar_08_1459,mf_amp_cond1,3.0.4,60.00173194327287,
itself,,&&&&&&,left,neutral,,,,,,,,,,,,,,,0,17,17,103,,,,,,,,,,,,,LDT,left,3.701194492066861,,,,,,1,,,,,,,,,,,,,left,1,3.701194492066861,,,,,,,1039,2019_Mar_08_1459,mf_amp_cond1,3.0.4,60.00173194327287,
dignity,,&&&&&&&,left,sanctity.virtue,,,,,,,,,,,,,,,0,18,18,62,,,,,,,,,,,,,LDT,right,0.68375947487948,,,,,,0,,,,,,,,,,,,,right,0,0.68375947487948,,,,,,,1039,2019_Mar_08_1459,mf_amp_cond1,3.0.4,60.00173194327287,
squets,,&&&&&&,right,nonword,,,,,,,,,,,,,,,0,19,19,10,,,,,,,,,,,,,LDT,left,2.2007695371867158,,,,,,0,,,,,,,,,,,,,left,0,2.2007695371867158,,,,,,,1039,2019_Mar_08_1459,mf_amp_cond1,3.0.4,60.00173194327287,
laming,,&&&&&&,right,nonword,,,,,,,,,,,,,,,0,20,20,165,,,,,,,,,,,,,LDT,right,0.8671491588465869,,,,,,1,,,,,,,,,,,,,right,1,0.8671491588465869,,,,,,,1039,2019_Mar_08_1459,mf_amp_cond1,3.0.4,60.00173194327287,
brotesque,,&&&&&&&&&,right,nonword,,,,,,,,,,,,,,,0,21,21,98,,,,,,,,,,,,,LDT,left,0.8671449894900434,,,,,,0,,,,,,,,,,,,,left,0,0.8671449894900434,,,,,,,1039,2019_Mar_08_1459,mf_amp_cond1,3.0.4,60.00173194327287,
thabbily,,&&&&&&&&,right,nonword,,,,,,,,,,,,,,,0,22,22,25,,,,,,,,,,,,,LDT,left,0.6504401249840157,,,,,,0,,,,,,,,,,,,,left,0,0.6504401249840157,,,,,,,1039,2019_Mar_08_1459,mf_amp_cond1,3.0.4,60.00173194327287,
gaultless,,&&&&&&&&&,right,nonword,,,,,,,,,,,,,,,0,23,23,42,,,,,,,,,,,,,LDT,left,1.5506440391764045,,,,,,0,,,,,,,,,,,,,left,0,1.5506440391764045,,,,,,,1039,2019_Mar_08_1459,mf_amp_cond1,3.0.4,60.00173194327287,
cromiscuity,,&&&&&&&&&&&,right,nonword,,,,,,,,,,,,,,,0,24,24,73,,,,,,,,,,,,,LDT,left,1.083879680983955,,,,,,0,,,,,,,,,,,,,left,0,1.083879680983955,,,,,,,1039,2019_Mar_08_1459,mf_amp_cond1,3.0.4,60.00173194327287,
interests,,&&&&&&&&&,left,fairness.virtue,,,,,,,,,,,,,,,0,25,25,90,,,,,,,,,,,,,LDT,right,1.1838720478408504,,,,,,0,,,,,,,,,,,,,right,0,1.1838720478408504,,,,,,,1039,2019_Mar_08_1459,mf_amp_cond1,3.0.4,60.00173194327287,
riot,,&&&&,left,authority.vice,,,,,,,,,,,,,,,0,26,26,157,,,,,,,,,,,,,LDT,right,0.6004025685833767,,,,,,0,,,,,,,,,,,,,right,0,0.6004025685833767,,,,,,,1039,2019_Mar_08_1459,mf_amp_cond1,3.0.4,60.00173194327287,
sidearbs,,&&&&&&&&,right,nonword,,,,,,,,,,,,,,,0,27,27,94,,,,,,,,,,,,,LDT,left,0.9004659429920139,,,,,,0,,,,,,,,,,,,,left,0,0.9004659429920139,,,,,,,1039,2019_Mar_08_1459,mf_amp_cond1,3.0.4,60.00173194327287,
noone,,&&&&&,left,neutral,,,,,,,,,,,,,,,0,28,28,51,,,,,,,,,,,,,LDT,left,1.1171942201035563,,,,,,1,,,,,,,,,,,,,left,1,1.1171942201035563,,,,,,,1039,2019_Mar_08_1459,mf_amp_cond1,3.0.4,60.00173194327287,
refused,,&&&&&&&,left,authority.vice,,,,,,,,,,,,,,,0,29,29,33,,,,,,,,,,,,,LDT,left,2.9509884290455375,,,,,,1,,,,,,,,,,,,,left,1,2.9509884290455375,,,,,,,1039,2019_Mar_08_1459,mf_amp_cond1,3.0.4,60.00173194327287,
scock,,&&&&&,right,nonword,,,,,,,,,,,,,,,0,30,30,64,,,,,,,,,,,,,LDT,left,1.00056318550196,,,,,,0,,,,,,,,,,,,,left,0,1.00056318550196,,,,,,,1039,2019_Mar_08_1459,mf_amp_cond1,3.0.4,60.00173194327287,
forced,,&&&&&&,left,fairness.vice,,,,,,,,,,,,,,,0,31,31,123,,,,,,,,,,,,,LDT,left,1.3672614110837458,,,,,,1,,,,,,,,,,,,,left,1,1.3672614110837458,,,,,,,1039,2019_Mar_08_1459,mf_amp_cond1,3.0.4,60.00173194327287,
trust,,&&&&&,left,authority.virtue,,,,,,,,,,,,,,,0,32,32,52,,,,,,,,,,,,,LDT,right,0.7337803538102889,,,,,,0,,,,,,,,,,,,,right,0,0.7337803538102889,,,,,,,1039,2019_Mar_08_1459,mf_amp_cond1,3.0.4,60.00173194327287,
each,,&&&&,left,neutral,,,,,,,,,,,,,,,0,33,33,55,,,,,,,,,,,,,LDT,left,1.450608054321492,,,,,,1,,,,,,,,,,,,,left,1,1.450608054321492,,,,,,,1039,2019_Mar_08_1459,mf_amp_cond1,3.0.4,60.00173194327287,
else,,&&&&,left,neutral,,,,,,,,,,,,,,,0,34,34,8,,,,,,,,,,,,,LDT,left,1.9674186283664312,,,,,,1,,,,,,,,,,,,,left,1,1.9674186283664312,,,,,,,1039,2019_Mar_08_1459,mf_amp_cond1,3.0.4,60.00173194327287,
progress,,&&&&&&&&,left,authority.virtue,,,,,,,,,,,,,,,0,35,35,37,,,,,,,,,,,,,LDT,right,0.800452729294193,,,,,,0,,,,,,,,,,,,,right,0,0.800452729294193,,,,,,,1039,2019_Mar_08_1459,mf_amp_cond1,3.0.4,60.00173194327287,
Cunday,,&&&&&&,None,nonword,,,,,,,,,,,,,,,0,36,36,40,,,,,,,,,,,,,LDT,left,0.8838150878582383,,,,,,0,,,,,,,,,,,,,left,0,0.8838150878582383,,,,,,,1039,2019_Mar_08_1459,mf_amp_cond1,3.0.4,60.00173194327287,
win,,&&&,left,fairness.virtue,,,,,,,,,,,,,,,0,37,37,50,,,,,,,,,,,,,LDT,right,1.0671880943409633,,,,,,0,,,,,,,,,,,,,right,0,1.0671880943409633,,,,,,,1039,2019_Mar_08_1459,mf_amp_cond1,3.0.4,60.00173194327287,
with,,&&&&,left,neutral,,,,,,,,,,,,,,,0,38,38,152,,,,,,,,,,,,,LDT,left,4.117970364124631,,,,,,1,,,,,,,,,,,,,left,1,4.117970364124631,,,,,,,1039,2019_Mar_08_1459,mf_amp_cond1,3.0.4,60.00173194327287,
shot,,&&&&,left,care.vice,,,,,,,,,,,,,,,0,39,39,43,,,,,,,,,,,,,LDT,left,1.6506216528796358,,,,,,1,,,,,,,,,,,,,left,1,1.6506216528796358,,,,,,,1039,2019_Mar_08_1459,mf_amp_cond1,3.0.4,60.00173194327287,
been,,&&&&,left,neutral,,,,,,,,,,,,,,,0,40,40,118,,,,,,,,,,,,,LDT,left,3.06768200416991,,,,,,1,,,,,,,,,,,,,left,1,3.06768200416991,,,,,,,1039,2019_Mar_08_1459,mf_amp_cond1,3.0.4,60.00173194327287,
blamed,,&&&&&&,left,loyalty.vice,,,,,,,,,,,,,,,0,41,41,198,,,,,,,,,,,,,LDT,right,1.3005800553946756,,,,,,0,,,,,,,,,,,,,right,0,1.3005800553946756,,,,,,,1039,2019_Mar_08_1459,mf_amp_cond1,3.0.4,60.00173194327287,
totalestic,,&&&&&&&&&&,None,nonword,,,,,,,,,,,,,,,0,42,42,81,,,,,,,,,,,,,LDT,left,1.1505411519901827,,,,,,0,,,,,,,,,,,,,left,0,1.1505411519901827,,,,,,,1039,2019_Mar_08_1459,mf_amp_cond1,3.0.4,60.00173194327287,
Daptist,,&&&&&&&,right,nonword,,,,,,,,,,,,,,,0,43,43,141,,,,,,,,,,,,,LDT,left,1.3672623732418288,,,,,,0,,,,,,,,,,,,,left,0,1.3672623732418288,,,,,,,1039,2019_Mar_08_1459,mf_amp_cond1,3.0.4,60.00173194327287,
less,,&&&&,left,neutral,,,,,,,,,,,,,,,0,44,44,26,,,,,,,,,,,,,LDT,right,0.7169543851778144,,,,,,0,,,,,,,,,,,,,right,0,0.7169543851778144,,,,,,,1039,2019_Mar_08_1459,mf_amp_cond1,3.0.4,60.00173194327287,
scalbel,,&&&&&&&,right,nonword,,,,,,,,,,,,,,,0,45,45,19,,,,,,,,,,,,,LDT,right,1.4172800449596252,,,,,,1,,,,,,,,,,,,,right,1,1.4172800449596252,,,,,,,1039,2019_Mar_08_1459,mf_amp_cond1,3.0.4,60.00173194327287,
forty,,&&&&&,left,neutral,,,,,,,,,,,,,,,0,46,46,9,,,,,,,,,,,,,LDT,right,0.7004270074976375,,,,,,0,,,,,,,,,,,,,right,0,0.7004270074976375,,,,,,,1039,2019_Mar_08_1459,mf_amp_cond1,3.0.4,60.00173194327287,
iptervention,,&&&&&&&&&&&&,right,nonword,,,,,,,,,,,,,,,0,47,47,35,,,,,,,,,,,,,LDT,left,1.4172752341401065,,,,,,0,,,,,,,,,,,,,left,0,1.4172752341401065,,,,,,,1039,2019_Mar_08_1459,mf_amp_cond1,3.0.4,60.00173194327287,
ecgagement,,&&&&&&&&&&,None,nonword,,,,,,,,,,,,,,,0,48,48,110,,,,,,,,,,,,,LDT,left,1.283917012886377,,,,,,0,,,,,,,,,,,,,left,0,1.283917012886377,,,,,,,1039,2019_Mar_08_1459,mf_amp_cond1,3.0.4,60.00173194327287,
pistraught,,&&&&&&&&&&,right,nonword,,,,,,,,,,,,,,,0,49,49,122,,,,,,,,,,,,,LDT,left,0.650426013264223,,,,,,0,,,,,,,,,,,,,left,0,0.650426013264223,,,,,,,1039,2019_Mar_08_1459,mf_amp_cond1,3.0.4,60.00173194327287,
death,,&&&&&,left,care.vice,,,,,,,,,,,,,,,0,50,50,168,,,,,,,,,,,,,LDT,left,0.8004633130767616,,,,,,1,,,,,,,,,,,,,left,1,0.8004633130767616,,,,,,,1039,2019_Mar_08_1459,mf_amp_cond1,3.0.4,60.00173194327287,
framatic,,&&&&&&&&,right,nonword,,,,,,,,,,,,,,,0,51,51,86,,,,,,,,,,,,,LDT,left,0.9171469458815409,,,,,,0,,,,,,,,,,,,,left,0,0.9171469458815409,,,,,,,1039,2019_Mar_08_1459,mf_amp_cond1,3.0.4,60.00173194327287,
greaks,,&&&&&&,right,nonword,,,,,,,,,,,,,,,0,52,52,154,,,,,,,,,,,,,LDT,left,0.5503874626447214,,,,,,0,,,,,,,,,,,,,left,0,0.5503874626447214,,,,,,,1039,2019_Mar_08_1459,mf_amp_cond1,3.0.4,60.00173194327287,
further,,&&&&&&&,left,neutral,,,,,,,,,,,,,,,0,53,53,161,,,,,,,,,,,,,LDT,right,0.7837957804731559,,,,,,0,,,,,,,,,,,,,right,0,0.7837957804731559,,,,,,,1039,2019_Mar_08_1459,mf_amp_cond1,3.0.4,60.00173194327287,
shoirmaster,,&&&&&&&&&&&,None,nonword,,,,,,,,,,,,,,,0,54,54,72,,,,,,,,,,,,,LDT,left,0.5837343945313478,,,,,,0,,,,,,,,,,,,,left,0,0.5837343945313478,,,,,,,1039,2019_Mar_08_1459,mf_amp_cond1,3.0.4,60.00173194327287,
openet,,&&&&&&,None,nonword,,,,,,,,,,,,,,,0,55,55,100,,,,,,,,,,,,,LDT,left,0.9504832939710468,,,,,,0,,,,,,,,,,,,,left,0,0.9504832939710468,,,,,,,1039,2019_Mar_08_1459,mf_amp_cond1,3.0.4,60.00173194327287,
groups,,&&&&&&,left,loyalty.vice,,,,,,,,,,,,,,,0,56,56,46,,,,,,,,,,,,,LDT,right,0.7837851966905873,,,,,,0,,,,,,,,,,,,,right,0,0.7837851966905873,,,,,,,1039,2019_Mar_08_1459,mf_amp_cond1,3.0.4,60.00173194327287,
aubos,,&&&&&,right,nonword,,,,,,,,,,,,,,,0,57,57,163,,,,,,,,,,,,,LDT,left,0.6004336784826592,,,,,,0,,,,,,,,,,,,,left,0,0.6004336784826592,,,,,,,1039,2019_Mar_08_1459,mf_amp_cond1,3.0.4,60.00173194327287,
terrorists,,&&&&&&&&&&,left,fairness.vice,,,,,,,,,,,,,,,0,58,58,188,,,,,,,,,,,,,LDT,left,0.7171198770520277,,,,,,1,,,,,,,,,,,,,left,1,0.7171198770520277,,,,,,,1039,2019_Mar_08_1459,mf_amp_cond1,3.0.4,60.00173194327287,
strength,,&&&&&&&&,left,sanctity.virtue,,,,,,,,,,,,,,,0,59,59,121,,,,,,,,,,,,,LDT,right,2.0340961353795137,,,,,,0,,,,,,,,,,,,,right,0,2.0340961353795137,,,,,,,1039,2019_Mar_08_1459,mf_amp_cond1,3.0.4,60.00173194327287,
clattening,,&&&&&&&&&&,right,nonword,,,,,,,,,,,,,,,0,60,60,89,,,,,,,,,,,,,LDT,left,0.5503977257176302,,,,,,0,,,,,,,,,,,,,left,0,0.5503977257176302,,,,,,,1039,2019_Mar_08_1459,mf_amp_cond1,3.0.4,60.00173194327287,
lorthwhile,,&&&&&&&&&&,right,nonword,,,,,,,,,,,,,,,0,61,61,76,,,,,,,,,,,,,LDT,left,1.5339797137712594,,,,,,0,,,,,,,,,,,,,left,0,1.5339797137712594,,,,,,,1039,2019_Mar_08_1459,mf_amp_cond1,3.0.4,60.00173194327287,
whither,,&&&&&&&,left,neutral,,,,,,,,,,,,,,,0,62,62,138,,,,,,,,,,,,,LDT,left,0.7837842345325043,,,,,,1,,,,,,,,,,,,,left,1,0.7837842345325043,,,,,,,1039,2019_Mar_08_1459,mf_amp_cond1,3.0.4,60.00173194327287,
carvels,,&&&&&&&,None,nonword,,,,,,,,,,,,,,,0,63,63,78,,,,,,,,,,,,,LDT,left,0.6170826093002688,,,,,,0,,,,,,,,,,,,,left,0,0.6170826093002688,,,,,,,1039,2019_Mar_08_1459,mf_amp_cond1,3.0.4,60.00173194327287,
support,,&&&&&&&,left,loyalty.virtue,,,,,,,,,,,,,,,0,64,64,32,,,,,,,,,,,,,LDT,right,0.5502569293312263,,,,,,0,,,,,,,,,,,,,right,0,0.5502569293312263,,,,,,,1039,2019_Mar_08_1459,mf_amp_cond1,3.0.4,60.00173194327287,
galamitous,,&&&&&&&&&&,right,nonword,,,,,,,,,,,,,,,0,65,65,160,,,,,,,,,,,,,LDT,left,0.833782342277118,,,,,,0,,,,,,,,,,,,,left,0,0.833782342277118,,,,,,,1039,2019_Mar_08_1459,mf_amp_cond1,3.0.4,60.00173194327287,
leact,,&&&&&,right,nonword,,,,,,,,,,,,,,,0,66,66,65,,,,,,,,,,,,,LDT,right,1.9840967447526054,,,,,,1,,,,,,,,,,,,,right,1,1.9840967447526054,,,,,,,1039,2019_Mar_08_1459,mf_amp_cond1,3.0.4,60.00173194327287,
couldnt,,&&&&&&&,left,neutral,,,,,,,,,,,,,,,0,67,67,193,,,,,,,,,,,,,LDT,right,0.9004800546972547,,,,,,0,,,,,,,,,,,,,right,0,0.9004800546972547,,,,,,,1039,2019_Mar_08_1459,mf_amp_cond1,3.0.4,60.00173194327287,
even,,&&&&,left,neutral,,,,,,,,,,,,,,,0,68,68,153,,,,,,,,,,,,,LDT,right,0.6838508802902652,,,,,,0,,,,,,,,,,,,,right,0,0.6838508802902652,,,,,,,1039,2019_Mar_08_1459,mf_amp_cond1,3.0.4,60.00173194327287,
troubla,,&&&&&&&,right,nonword,,,,,,,,,,,,,,,0,69,69,136,,,,,,,,,,,,,LDT,right,1.5006488179205917,,,,,,1,,,,,,,,,,,,,right,1,1.5006488179205917,,,,,,,1039,2019_Mar_08_1459,mf_amp_cond1,3.0.4,60.00173194327287,
victim,,&&&&&&,left,care.vice,,,,,,,,,,,,,,,0,70,70,14,,,,,,,,,,,,,LDT,right,0.8004530500184046,,,,,,0,,,,,,,,,,,,,right,0,0.8004530500184046,,,,,,,1039,2019_Mar_08_1459,mf_amp_cond1,3.0.4,60.00173194327287,
fegard,,&&&&&&,right,nonword,,,,,,,,,,,,,,,0,71,71,113,,,,,,,,,,,,,LDT,left,1.5506543022347614,,,,,,0,,,,,,,,,,,,,left,0,1.5506543022347614,,,,,,,1039,2019_Mar_08_1459,mf_amp_cond1,3.0.4,60.00173194327287,
pharing,,&&&&&&&,right,nonword,,,,,,,,,,,,,,,0,72,72,134,,,,,,,,,,,,,LDT,left,2.067413560973364,,,,,,0,,,,,,,,,,,,,left,0,2.067413560973364,,,,,,,1039,2019_Mar_08_1459,mf_amp_cond1,3.0.4,60.00173194327287,
somehow,,&&&&&&&,left,neutral,,,,,,,,,,,,,,,0,73,73,173,,,,,,,,,,,,,LDT,right,0.6003990406607045,,,,,,0,,,,,,,,,,,,,right,0,0.6003990406607045,,,,,,,1039,2019_Mar_08_1459,mf_amp_cond1,3.0.4,60.00173194327287,
sharing,,&&&&&&&,left,loyalty.virtue,,,,,,,,,,,,,,,0,74,74,143,,,,,,,,,,,,,LDT,right,1.2339019069331698,,,,,,0,,,,,,,,,,,,,right,0,1.2339019069331698,,,,,,,1039,2019_Mar_08_1459,mf_amp_cond1,3.0.4,60.00173194327287,
violations,,&&&&&&&&&&,left,sanctity.vice,,,,,,,,,,,,,,,0,75,75,196,,,,,,,,,,,,,LDT,right,0.9004800547118066,,,,,,0,,,,,,,,,,,,,right,0,0.9004800547118066,,,,,,,1039,2019_Mar_08_1459,mf_amp_cond1,3.0.4,60.00173194327287,
lempestuous,,&&&&&&&&&&&,right,nonword,,,,,,,,,,,,,,,0,76,76,139,,,,,,,,,,,,,LDT,left,0.8838118806452258,,,,,,0,,,,,,,,,,,,,left,0,0.8838118806452258,,,,,,,1039,2019_Mar_08_1459,mf_amp_cond1,3.0.4,60.00173194327287,
festate,,&&&&&&&,right,nonword,,,,,,,,,,,,,,,0,77,77,109,,,,,,,,,,,,,LDT,left,0.7170926157996291,,,,,,0,,,,,,,,,,,,,left,0,0.7170926157996291,,,,,,,1039,2019_Mar_08_1459,mf_amp_cond1,3.0.4,60.00173194327287,
crinking,,&&&&&&&&,right,nonword,,,,,,,,,,,,,,,0,78,78,58,,,,,,,,,,,,,LDT,left,1.5172502820641967,,,,,,0,,,,,,,,,,,,,left,0,1.5172502820641967,,,,,,,1039,2019_Mar_08_1459,mf_amp_cond1,3.0.4,60.00173194327287,
hasks,,&&&&&,right,nonword,,,,,,,,,,,,,,,0,79,79,88,,,,,,,,,,,,,LDT,left,0.9838440168678062,,,,,,0,,,,,,,,,,,,,left,0,0.9838440168678062,,,,,,,1039,2019_Mar_08_1459,mf_amp_cond1,3.0.4,60.00173194327287,
civilians,,&&&&&&&&&,left,care.vice,,,,,,,,,,,,,,,0,80,80,186,,,,,,,,,,,,,LDT,right,1.3005790932511445,,,,,,0,,,,,,,,,,,,,right,0,1.3005790932511445,,,,,,,1039,2019_Mar_08_1459,mf_amp_cond1,3.0.4,60.00173194327287,
praised,,&&&&&&&,left,loyalty.virtue,,,,,,,,,,,,,,,0,81,81,34,,,,,,,,,,,,,LDT,right,0.4837102763267467,,,,,,0,,,,,,,,,,,,,right,0,0.4837102763267467,,,,,,,1039,2019_Mar_08_1459,mf_amp_cond1,3.0.4,60.00173194327287,
benefit,,&&&&&&&,left,fairness.virtue,,,,,,,,,,,,,,,0,82,82,156,,,,,,,,,,,,,LDT,right,0.633752386958804,,,,,,0,,,,,,,,,,,,,right,0,0.633752386958804,,,,,,,1039,2019_Mar_08_1459,mf_amp_cond1,3.0.4,60.00173194327287,
mih,,&&&,right,nonword,,,,,,,,,,,,,,,0,83,83,137,,,,,,,,,,,,,LDT,left,0.867162949842168,,,,,,0,,,,,,,,,,,,,left,0,0.867162949842168,,,,,,,1039,2019_Mar_08_1459,mf_amp_cond1,3.0.4,60.00173194327287,
strong,,&&&&&&,left,loyalty.virtue,,,,,,,,,,,,,,,0,84,84,170,,,,,,,,,,,,,LDT,right,0.6671214485832024,,,,,,0,,,,,,,,,,,,,right,0,0.6671214485832024,,,,,,,1039,2019_Mar_08_1459,mf_amp_cond1,3.0.4,60.00173194327287,
atson,,&&&&&,right,nonword,,,,,,,,,,,,,,,0,85,85,75,,,,,,,,,,,,,LDT,left,0.8838256716408068,,,,,,0,,,,,,,,,,,,,left,0,0.8838256716408068,,,,,,,1039,2019_Mar_08_1459,mf_amp_cond1,3.0.4,60.00173194327287,
fifteen,,&&&&&&&,left,neutral,,,,,,,,,,,,,,,0,86,86,184,,,,,,,,,,,,,LDT,left,0.883804183351458,,,,,,1,,,,,,,,,,,,,left,1,0.883804183351458,,,,,,,1039,2019_Mar_08_1459,mf_amp_cond1,3.0.4,60.00173194327287,
either,,&&&&&&,left,neutral,,,,,,,,,,,,,,,0,87,87,80,,,,,,,,,,,,,LDT,right,0.6835920586891007,,,,,,0,,,,,,,,,,,,,right,0,0.6835920586891007,,,,,,,1039,2019_Mar_08_1459,mf_amp_cond1,3.0.4,60.00173194327287,
ning,,&&&&,right,nonword,,,,,,,,,,,,,,,0,88,88,125,,,,,,,,,,,,,LDT,left,1.0671993195574032,,,,,,0,,,,,,,,,,,,,left,0,1.0671993195574032,,,,,,,1039,2019_Mar_08_1459,mf_amp_cond1,3.0.4,60.00173194327287,
become,,&&&&&&,left,neutral,,,,,,,,,,,,,,,0,89,89,54,,,,,,,,,,,,,LDT,right,0.983834074519109,,,,,,0,,,,,,,,,,,,,right,0,0.983834074519109,,,,,,,1039,2019_Mar_08_1459,mf_amp_cond1,3.0.4,60.00173194327287,
besides,,&&&&&&&,left,neutral,,,,,,,,,,,,,,,0,90,90,167,,,,,,,,,,,,,LDT,right,0.8504649487585993,,,,,,0,,,,,,,,,,,,,right,0,0.8504649487585993,,,,,,,1039,2019_Mar_08_1459,mf_amp_cond1,3.0.4,60.00173194327287,
sowntrodden,,&&&&&&&&&&&,right,nonword,,,,,,,,,,,,,,,0,91,91,23,,,,,,,,,,,,,LDT,left,0.7837807065952802,,,,,,0,,,,,,,,,,,,,left,0,0.7837807065952802,,,,,,,1039,2019_Mar_08_1459,mf_amp_cond1,3.0.4,60.00173194327287,
arrests,,&&&&&&&,left,authority.vice,,,,,,,,,,,,,,,0,92,92,150,,,,,,,,,,,,,LDT,left,1.067179114164901,,,,,,1,,,,,,,,,,,,,left,1,1.067179114164901,,,,,,,1039,2019_Mar_08_1459,mf_amp_cond1,3.0.4,60.00173194327287,
prison,,&&&&&&,left,fairness.vice,,,,,,,,,,,,,,,0,93,93,129,,,,,,,,,,,,,LDT,right,0.7004375912802061,,,,,,0,,,,,,,,,,,,,right,0,0.7004375912802061,,,,,,,1039,2019_Mar_08_1459,mf_amp_cond1,3.0.4,60.00173194327287,
glacenta,,&&&&&&&&,right,nonword,,,,,,,,,,,,,,,0,94,94,189,,,,,,,,,,,,,LDT,left,1.184002260430134,,,,,,0,,,,,,,,,,,,,left,0,1.184002260430134,,,,,,,1039,2019_Mar_08_1459,mf_amp_cond1,3.0.4,60.00173194327287,
latter,,&&&&&&,left,neutral,,,,,,,,,,,,,,,0,95,95,162,,,,,,,,,,,,,LDT,left,0.7004712669586297,,,,,,1,,,,,,,,,,,,,left,1,0.7004712669586297,,,,,,,1039,2019_Mar_08_1459,mf_amp_cond1,3.0.4,60.00173194327287,
safe,,&&&&,left,care.virtue,,,,,,,,,,,,,,,0,96,96,30,,,,,,,,,,,,,LDT,right,0.8671748165070312,,,,,,0,,,,,,,,,,,,,right,0,0.8671748165070312,,,,,,,1039,2019_Mar_08_1459,mf_amp_cond1,3.0.4,60.00173194327287,
front,,&&&&&,left,neutral,,,,,,,,,,,,,,,0,97,97,41,,,,,,,,,,,,,LDT,right,0.7837890453374712,,,,,,0,,,,,,,,,,,,,right,0,0.7837890453374712,,,,,,,1039,2019_Mar_08_1459,mf_amp_cond1,3.0.4,60.00173194327287,
hate,,&&&&,left,fairness.vice,,,,,,,,,,,,,,,0,98,98,59,,,,,,,,,,,,,LDT,right,0.7337662420904962,,,,,,0,,,,,,,,,,,,,right,0,0.7337662420904962,,,,,,,1039,2019_Mar_08_1459,mf_amp_cond1,3.0.4,60.00173194327287,
free,,&&&&,left,fairness.virtue,,,,,,,,,,,,,,,0,99,99,175,,,,,,,,,,,,,LDT,right,0.783768839930417,,,,,,0,,,,,,,,,,,,,right,0,0.783768839930417,,,,,,,1039,2019_Mar_08_1459,mf_amp_cond1,3.0.4,60.00173194327287,
godlaness,,&&&&&&&&&,right,nonword,,,,,,,,,,,,,,,0,100,100,3,,,,,,,,,,,,,LDT,left,0.7504360197490314,,,,,,0,,,,,,,,,,,,,left,0,0.7504360197490314,,,,,,,1039,2019_Mar_08_1459,mf_amp_cond1,3.0.4,60.00173194327287,
ablow,,&&&&&,right,nonword,,,,,,,,,,,,,,,0,101,101,116,,,,,,,,,,,,,LDT,left,1.2839368975546677,,,,,,0,,,,,,,,,,,,,left,0,1.2839368975546677,,,,,,,1039,2019_Mar_08_1459,mf_amp_cond1,3.0.4,60.00173194327287,
pescinded,,&&&&&&&&&,right,nonword,,,,,,,,,,,,,,,0,102,102,71,,,,,,,,,,,,,LDT,left,0.6337777238950366,,,,,,0,,,,,,,,,,,,,left,0,0.6337777238950366,,,,,,,1039,2019_Mar_08_1459,mf_amp_cond1,3.0.4,60.00173194327287,
Phintoism,,&&&&&&&&&,right,nonword,,,,,,,,,,,,,,,0,103,103,82,,,,,,,,,,,,,LDT,left,0.5837273386714514,,,,,,0,,,,,,,,,,,,,left,0,0.5837273386714514,,,,,,,1039,2019_Mar_08_1459,mf_amp_cond1,3.0.4,60.00173194327287,
fontacts,,&&&&&&&&,right,nonword,,,,,,,,,,,,,,,0,104,104,171,,,,,,,,,,,,,LDT,left,0.7337739393988159,,,,,,0,,,,,,,,,,,,,left,0,0.7337739393988159,,,,,,,1039,2019_Mar_08_1459,mf_amp_cond1,3.0.4,60.00173194327287,
pullness,,&&&&&&&&,right,nonword,,,,,,,,,,,,,,,0,105,105,132,,,,,,,,,,,,,LDT,left,0.4670648734609131,,,,,,0,,,,,,,,,,,,,left,0,0.4670648734609131,,,,,,,1039,2019_Mar_08_1459,mf_amp_cond1,3.0.4,60.00173194327287,
lenon,,&&&&&,right,nonword,,,,,,,,,,,,,,,0,106,106,192,,,,,,,,,,,,,LDT,left,0.8171099988394417,,,,,,0,,,,,,,,,,,,,left,0,0.8171099988394417,,,,,,,1039,2019_Mar_08_1459,mf_amp_cond1,3.0.4,60.00173194327287,
elsewhere,,&&&&&&&&&,left,neutral,,,,,,,,,,,,,,,0,107,107,151,,,,,,,,,,,,,LDT,left,0.9838398474821588,,,,,,1,,,,,,,,,,,,,left,1,0.9838398474821588,,,,,,,1039,2019_Mar_08_1459,mf_amp_cond1,3.0.4,60.00173194327287,
war,,&&&,left,sanctity.vice,,,,,,,,,,,,,,,0,108,108,104,,,,,,,,,,,,,LDT,left,0.8504979829885997,,,,,,1,,,,,,,,,,,,,left,1,0.8504979829885997,,,,,,,1039,2019_Mar_08_1459,mf_amp_cond1,3.0.4,60.00173194327287,
towards,,&&&&&&&,left,neutral,,,,,,,,,,,,,,,0,109,109,177,,,,,,,,,,,,,LDT,left,1.1171977480262285,,,,,,1,,,,,,,,,,,,,left,1,1.1171977480262285,,,,,,,1039,2019_Mar_08_1459,mf_amp_cond1,3.0.4,60.00173194327287,
nomaric,,&&&&&&&,None,nonword,,,,,,,,,,,,,,,0,110,110,36,,,,,,,,,,,,,LDT,left,0.667081037783646,,,,,,0,,,,,,,,,,,,,left,0,0.667081037783646,,,,,,,1039,2019_Mar_08_1459,mf_amp_cond1,3.0.4,60.00173194327287,
