words,nonwords,mask,corr_ans,category,AMP_prac_loop.thisRepN,AMP_prac_loop.thisTrialN,AMP_prac_loop.thisN,AMP_prac_loop.thisIndex,AMP_trials.thisRepN,AMP_trials.thisTrialN,AMP_trials.thisN,AMP_trials.thisIndex,LDT_prac_loop.thisRepN,LDT_prac_loop.thisTrialN,LDT_prac_loop.thisN,LDT_prac_loop.thisIndex,LDT_loop.thisRepN,LDT_loop.thisTrialN,LDT_loop.thisN,LDT_loop.thisIndex,tweet_loop.thisRepN,tweet_loop.thisTrialN,tweet_loop.thisN,tweet_loop.thisIndex,tweets,topic,begin_key.keys,begin_key.rt,key_resp_AMP_instr1.keys,key_resp_AMP_instr1.rt,resp_AMP_ready1.keys,resp_AMP_ready1.rt,resp_AMP_prac.keys,resp_AMP_prac.rt,task,keypress,RT,resp_AMP_ready.keys,resp_AMP_ready.rt,resp_AMP.keys,resp_AMP.corr,resp_AMP.rt,corr,AMP_nonword_rating.response,AMP_nonword_rating.rt,AMP_word_rating.response,AMP_word_rating.rt,AMP_random_rating.response,AMP_random_rating.rt,key_resp_LDT_instr.keys,key_resp_LDT_instr.rt,resp_LDT_prac.keys,resp_LDT_prac.rt,resp_LDT_ready.keys,resp_LDT_ready.rt,resp_LDT.keys,resp_LDT.corr,resp_LDT.rt,LDT_rating.response,LDT_rating.rt,key_resp_LDT_instr_2.keys,key_resp_LDT_instr_2.rt,participant,date,expName,psychopyVersion,frameRate,
,,,,,,,,,,,,,,,,,,,,,,,,,,,right,469.4514236469986,,,,,,,,,,,,,,,,,,,,,,,,,,,,,,,,,,,1041,2019_Mar_08_1459,mf_amp_cond1,3.0.4,59.99261150617951,
,,,,,,,,,,,,,,,,,,,,,,,,,,,,,right,3.1510988852387527,,,,,,,,,,,,,,,,,,,,,,,,,,,,,,,,,1041,2019_Mar_08_1459,mf_amp_cond1,3.0.4,59.99261150617951,
,,,,,,,,,,,,,,,,,,,,,,,,,,,,,,,right,1.867448391232756,,,,,,,,,,,,,,,,,,,,,,,,,,,,,,,1041,2019_Mar_08_1459,mf_amp_cond1,3.0.4,59.99261150617951,
scarf,bisebell,&&&&&&&&,,,0,0,0,3,,,,,,,,,,,,,,,,,,,,,,,,,right,1.8507423721457599,AMP_prac,right,1.8507423721457599,,,,,,,,,,,,,,,,,,,,,,,,,,1041,2019_Mar_08_1459,mf_amp_cond1,3.0.4,59.99261150617951,
keyboard,senk,&&&&,,,0,1,1,2,,,,,,,,,,,,,,,,,,,,,,,,,right,2.234142768153106,AMP_prac,right,2.234142768153106,,,,,,,,,,,,,,,,,,,,,,,,,,1041,2019_Mar_08_1459,mf_amp_cond1,3.0.4,59.99261150617951,
car,cemtuper,&&&&&&&&,,,0,2,2,0,,,,,,,,,,,,,,,,,,,,,,,,,left,1.500606803514529,AMP_prac,left,1.500606803514529,,,,,,,,,,,,,,,,,,,,,,,,,,1041,2019_Mar_08_1459,mf_amp_cond1,3.0.4,59.99261150617951,
banana,kacket,&&&&&&,,,0,3,3,1,,,,,,,,,,,,,,,,,,,,,,,,,left,1.1838775001087924,AMP_prac,left,1.1838775001087924,,,,,,,,,,,,,,,,,,,,,,,,,,1041,2019_Mar_08_1459,mf_amp_cond1,3.0.4,59.99261150617951,
,,,,,,,,,,,,,,,,,,,,,,,,,,,,,,,,,,,,,,right,2.767640759484493,,,,,,,,,,,,,,,,,,,,,,,,1041,2019_Mar_08_1459,mf_amp_cond1,3.0.4,59.99261150617951,
threatened,ilportation,&&&&&&&&&&&,right,fairness.vice,,,,,0,0,0,0,,,,,,,,,,,,,,,,,,,,,,,AMP,left,0.9504778417176567,,,left,0,0.9504778417176567,0,,,,,,,,,,,,,,,,,,,,1041,2019_Mar_08_1459,mf_amp_cond1,3.0.4,59.99261150617951,
serial,totalestic,&&&&&&&&&&,right,sanctity.vice,,,,,0,1,1,1,,,,,,,,,,,,,,,,,,,,,,,AMP,left,0.9504893876728602,,,left,0,0.9504893876728602,0,,,,,,,,,,,,,,,,,,,,1041,2019_Mar_08_1459,mf_amp_cond1,3.0.4,59.99261150617951,
racist,rivernoat,&&&&&&&&&,right,sanctity.vice,,,,,0,2,2,2,,,,,,,,,,,,,,,,,,,,,,,AMP,left,1.1171836363209877,,,left,0,1.1171836363209877,0,,,,,,,,,,,,,,,,,,,,1041,2019_Mar_08_1459,mf_amp_cond1,3.0.4,59.99261150617951,
prosecution,allears,&&&&&&&,right,authority.vice,,,,,0,3,3,3,,,,,,,,,,,,,,,,,,,,,,,AMP,right,1.3672793714358704,,,right,1,1.3672793714358704,1,,,,,,,,,,,,,,,,,,,,1041,2019_Mar_08_1459,mf_amp_cond1,3.0.4,59.99261150617951,
perfect,sliptery,&&&&&&&&,left,sanctity.virtue,,,,,0,4,4,4,,,,,,,,,,,,,,,,,,,,,,,AMP,left,1.3005733202735428,,,left,1,1.3005733202735428,1,,,,,,,,,,,,,,,,,,,,1041,2019_Mar_08_1459,mf_amp_cond1,3.0.4,59.99261150617951,
injured,supervuned,&&&&&&&&&&,right,care.vice,,,,,0,5,5,5,,,,,,,,,,,,,,,,,,,,,,,AMP,left,1.150539869107888,,,left,0,1.150539869107888,0,,,,,,,,,,,,,,,,,,,,1041,2019_Mar_08_1459,mf_amp_cond1,3.0.4,59.99261150617951,
lies,thadowed,&&&&&&&&,right,fairness.vice,,,,,0,6,6,6,,,,,,,,,,,,,,,,,,,,,,,AMP,left,1.5339944669249235,,,left,0,1.5339944669249235,0,,,,,,,,,,,,,,,,,,,,1041,2019_Mar_08_1459,mf_amp_cond1,3.0.4,59.99261150617951,
good,frojecting,&&&&&&&&&&,left,care.virtue,,,,,0,7,7,7,,,,,,,,,,,,,,,,,,,,,,,AMP,left,0.8504614208359271,,,left,1,0.8504614208359271,1,,,,,,,,,,,,,,,,,,,,1041,2019_Mar_08_1459,mf_amp_cond1,3.0.4,59.99261150617951,
victims,lenon,&&&&&,right,care.vice,,,,,0,8,8,8,,,,,,,,,,,,,,,,,,,,,,,AMP,right,0.5670408835430862,,,right,1,0.5670408835430862,1,,,,,,,,,,,,,,,,,,,,1041,2019_Mar_08_1459,mf_amp_cond1,3.0.4,59.99261150617951,
harassment,precificity,&&&&&&&&&&&,right,sanctity.vice,,,,,0,9,9,9,,,,,,,,,,,,,,,,,,,,,,,AMP,right,0.6837723037169781,,,right,1,0.6837723037169781,1,,,,,,,,,,,,,,,,,,,,1041,2019_Mar_08_1459,mf_amp_cond1,3.0.4,59.99261150617951,
energy,hatigue,&&&&&&&,left,sanctity.virtue,,,,,0,10,10,10,,,,,,,,,,,,,,,,,,,,,,,AMP,left,0.533705818321323,,,left,1,0.533705818321323,1,,,,,,,,,,,,,,,,,,,,1041,2019_Mar_08_1459,mf_amp_cond1,3.0.4,59.99261150617951,
gedious,fangsters,&&&&&&&&&,None,nonword,,,,,0,11,11,11,,,,,,,,,,,,,,,,,,,,,,,AMP,right,1.0336833678884432,,,right,0,1.0336833678884432,0,,,,,,,,,,,,,,,,,,,,1041,2019_Mar_08_1459,mf_amp_cond1,3.0.4,59.99261150617951,
fraud,gowlands,&&&&&&&&,right,fairness.vice,,,,,0,12,12,12,,,,,,,,,,,,,,,,,,,,,,,AMP,right,0.9504816903790925,,,right,1,0.9504816903790925,1,,,,,,,,,,,,,,,,,,,,1041,2019_Mar_08_1459,mf_amp_cond1,3.0.4,59.99261150617951,
improve,gikely,&&&&&&,left,care.virtue,,,,,0,13,13,13,,,,,,,,,,,,,,,,,,,,,,,AMP,right,1.1171890885743778,,,right,0,1.1171890885743778,0,,,,,,,,,,,,,,,,,,,,1041,2019_Mar_08_1459,mf_amp_cond1,3.0.4,59.99261150617951,
killed,pumber,&&&&&&,right,care.vice,,,,,0,14,14,14,,,,,,,,,,,,,,,,,,,,,,,AMP,left,1.1505690546910046,,,left,0,1.1505690546910046,0,,,,,,,,,,,,,,,,,,,,1041,2019_Mar_08_1459,mf_amp_cond1,3.0.4,59.99261150617951,
prison,chreams,&&&&&&&,right,fairness.vice,,,,,0,15,15,15,,,,,,,,,,,,,,,,,,,,,,,AMP,right,1.9174205206072656,,,right,1,1.9174205206072656,1,,,,,,,,,,,,,,,,,,,,1041,2019_Mar_08_1459,mf_amp_cond1,3.0.4,59.99261150617951,
love,nomaric,&&&&&&&,left,loyalty.virtue,,,,,0,16,16,16,,,,,,,,,,,,,,,,,,,,,,,AMP,right,0.8171292421029648,,,right,0,0.8171292421029648,0,,,,,,,,,,,,,,,,,,,,1041,2019_Mar_08_1459,mf_amp_cond1,3.0.4,59.99261150617951,
neputized,clamorek,&&&&&&&&,None,nonword,,,,,0,17,17,17,,,,,,,,,,,,,,,,,,,,,,,AMP,right,0.917169075604761,,,right,0,0.917169075604761,0,,,,,,,,,,,,,,,,,,,,1041,2019_Mar_08_1459,mf_amp_cond1,3.0.4,59.99261150617951,
useful,focomotive,&&&&&&&&&&,left,authority.virtue,,,,,0,18,18,18,,,,,,,,,,,,,,,,,,,,,,,AMP,right,0.8504643073101761,,,right,0,0.8504643073101761,0,,,,,,,,,,,,,,,,,,,,1041,2019_Mar_08_1459,mf_amp_cond1,3.0.4,59.99261150617951,
arrests,egpeditious,&&&&&&&&&&&,right,authority.vice,,,,,0,19,19,19,,,,,,,,,,,,,,,,,,,,,,,AMP,left,0.767111891094828,,,left,0,0.767111891094828,0,,,,,,,,,,,,,,,,,,,,1041,2019_Mar_08_1459,mf_amp_cond1,3.0.4,59.99261150617951,
betrayal,unreflectuve,&&&&&&&&&&&&,right,loyalty.vice,,,,,0,20,20,20,,,,,,,,,,,,,,,,,,,,,,,AMP,left,0.7670997037203051,,,left,0,0.7670997037203051,0,,,,,,,,,,,,,,,,,,,,1041,2019_Mar_08_1459,mf_amp_cond1,3.0.4,59.99261150617951,
progress,coom,&&&&,left,authority.virtue,,,,,0,21,21,21,,,,,,,,,,,,,,,,,,,,,,,AMP,right,0.6837434388580732,,,right,0,0.6837434388580732,0,,,,,,,,,,,,,,,,,,,,1041,2019_Mar_08_1459,mf_amp_cond1,3.0.4,59.99261150617951,
dumid,sidearbs,&&&&&&&&,None,nonword,,,,,0,22,22,22,,,,,,,,,,,,,,,,,,,,,,,AMP,right,1.1005103307397803,,,right,0,1.1005103307397803,0,,,,,,,,,,,,,,,,,,,,1041,2019_Mar_08_1459,mf_amp_cond1,3.0.4,59.99261150617951,
great,vicissifude,&&&&&&&&&&&,left,loyalty.virtue,,,,,0,23,23,23,,,,,,,,,,,,,,,,,,,,,,,AMP,left,0.7671346622664714,,,left,1,0.7671346622664714,1,,,,,,,,,,,,,,,,,,,,1041,2019_Mar_08_1459,mf_amp_cond1,3.0.4,59.99261150617951,
respect,presentkess,&&&&&&&&&&&,left,sanctity.virtue,,,,,0,24,24,24,,,,,,,,,,,,,,,,,,,,,,,AMP,left,0.7004151408473263,,,left,1,0.7004151408473263,1,,,,,,,,,,,,,,,,,,,,1041,2019_Mar_08_1459,mf_amp_cond1,3.0.4,59.99261150617951,
praised,edancipation,&&&&&&&&&&&&,left,loyalty.virtue,,,,,0,25,25,25,,,,,,,,,,,,,,,,,,,,,,,AMP,left,0.767092327150749,,,left,1,0.767092327150749,1,,,,,,,,,,,,,,,,,,,,1041,2019_Mar_08_1459,mf_amp_cond1,3.0.4,59.99261150617951,
refused,ablow,&&&&&,right,authority.vice,,,,,0,26,26,26,,,,,,,,,,,,,,,,,,,,,,,AMP,right,0.5337167228281032,,,right,1,0.5337167228281032,1,,,,,,,,,,,,,,,,,,,,1041,2019_Mar_08_1459,mf_amp_cond1,3.0.4,59.99261150617951,
abuse,baladroit,&&&&&&&&&,right,sanctity.vice,,,,,0,27,27,27,,,,,,,,,,,,,,,,,,,,,,,AMP,right,0.617067535436945,,,right,1,0.617067535436945,1,,,,,,,,,,,,,,,,,,,,1041,2019_Mar_08_1459,mf_amp_cond1,3.0.4,59.99261150617951,
slavery,Phintoism,&&&&&&&&&,right,loyalty.vice,,,,,0,28,28,28,,,,,,,,,,,,,,,,,,,,,,,AMP,left,0.9171652269433253,,,left,0,0.9171652269433253,0,,,,,,,,,,,,,,,,,,,,1041,2019_Mar_08_1459,mf_amp_cond1,3.0.4,59.99261150617951,
peaceful,framo,&&&&&,left,authority.virtue,,,,,0,29,29,29,,,,,,,,,,,,,,,,,,,,,,,AMP,right,0.9338308352307649,,,right,0,0.9338308352307649,0,,,,,,,,,,,,,,,,,,,,1041,2019_Mar_08_1459,mf_amp_cond1,3.0.4,59.99261150617951,
erdest,antral,&&&&&&,None,nonword,,,,,0,30,30,30,,,,,,,,,,,,,,,,,,,,,,,AMP,right,0.6670720576075837,,,right,0,0.6670720576075837,0,,,,,,,,,,,,,,,,,,,,1041,2019_Mar_08_1459,mf_amp_cond1,3.0.4,59.99261150617951,
terrorist,squets,&&&&&&,right,loyalty.vice,,,,,0,31,31,31,,,,,,,,,,,,,,,,,,,,,,,AMP,left,0.7671401145344134,,,left,0,0.7671401145344134,0,,,,,,,,,,,,,,,,,,,,1041,2019_Mar_08_1459,mf_amp_cond1,3.0.4,59.99261150617951,
dignity,tove,&&&&,left,sanctity.virtue,,,,,0,32,32,32,,,,,,,,,,,,,,,,,,,,,,,AMP,right,0.46705396895413287,,,right,0,0.46705396895413287,0,,,,,,,,,,,,,,,,,,,,1041,2019_Mar_08_1459,mf_amp_cond1,3.0.4,59.99261150617951,
freedom,ronviolence,&&&&&&&&&&&,left,sanctity.virtue,,,,,0,33,33,33,,,,,,,,,,,,,,,,,,,,,,,AMP,right,0.8171055087586865,,,right,0,0.8171055087586865,0,,,,,,,,,,,,,,,,,,,,1041,2019_Mar_08_1459,mf_amp_cond1,3.0.4,59.99261150617951,
values,pescinded,&&&&&&&&&,left,sanctity.virtue,,,,,0,34,34,34,,,,,,,,,,,,,,,,,,,,,,,AMP,right,0.517079337965697,,,right,0,0.517079337965697,0,,,,,,,,,,,,,,,,,,,,1041,2019_Mar_08_1459,mf_amp_cond1,3.0.4,59.99261150617951,
blunderints,gusinesslike,&&&&&&&&&&&&,None,nonword,,,,,0,35,35,35,,,,,,,,,,,,,,,,,,,,,,,AMP,left,0.7170942193915835,,,left,0,0.7170942193915835,0,,,,,,,,,,,,,,,,,,,,1041,2019_Mar_08_1459,mf_amp_cond1,3.0.4,59.99261150617951,
accused,crilfully,&&&&&&&&&,right,fairness.vice,,,,,0,36,36,36,,,,,,,,,,,,,,,,,,,,,,,AMP,left,0.9338180064078188,,,left,0,0.9338180064078188,0,,,,,,,,,,,,,,,,,,,,1041,2019_Mar_08_1459,mf_amp_cond1,3.0.4,59.99261150617951,
compassion,alar,&&&&,left,care.virtue,,,,,0,37,37,37,,,,,,,,,,,,,,,,,,,,,,,AMP,right,0.9004749231826281,,,right,0,0.9004749231826281,0,,,,,,,,,,,,,,,,,,,,1041,2019_Mar_08_1459,mf_amp_cond1,3.0.4,59.99261150617951,
protesters,reviked,&&&&&&&,right,authority.vice,,,,,0,38,38,38,,,,,,,,,,,,,,,,,,,,,,,AMP,left,1.867381681324332,,,left,0,1.867381681324332,0,,,,,,,,,,,,,,,,,,,,1041,2019_Mar_08_1459,mf_amp_cond1,3.0.4,59.99261150617951,
increase,rorroborated,&&&&&&&&&&&&,left,care.virtue,,,,,0,39,39,39,,,,,,,,,,,,,,,,,,,,,,,AMP,left,1.0838793602742953,,,left,1,1.0838793602742953,1,,,,,,,,,,,,,,,,,,,,1041,2019_Mar_08_1459,mf_amp_cond1,3.0.4,59.99261150617951,
groups,crinking,&&&&&&&&,right,loyalty.vice,,,,,0,40,40,40,,,,,,,,,,,,,,,,,,,,,,,AMP,right,0.7838297768612392,,,right,1,0.7838297768612392,1,,,,,,,,,,,,,,,,,,,,1041,2019_Mar_08_1459,mf_amp_cond1,3.0.4,59.99261150617951,
ensure,sfumatoy,&&&&&&&&,left,fairness.virtue,,,,,0,41,41,41,,,,,,,,,,,,,,,,,,,,,,,AMP,right,0.6504109394008992,,,right,0,0.6504109394008992,0,,,,,,,,,,,,,,,,,,,,1041,2019_Mar_08_1459,mf_amp_cond1,3.0.4,59.99261150617951,
promote,glacenta,&&&&&&&&,left,sanctity.virtue,,,,,0,42,42,42,,,,,,,,,,,,,,,,,,,,,,,AMP,left,0.6170729876903351,,,left,1,0.6170729876903351,1,,,,,,,,,,,,,,,,,,,,1041,2019_Mar_08_1459,mf_amp_cond1,3.0.4,59.99261150617951,
ban,lursuer,&&&&&&&,right,loyalty.vice,,,,,0,43,43,43,,,,,,,,,,,,,,,,,,,,,,,AMP,left,0.8504521199356532,,,left,0,0.8504521199356532,0,,,,,,,,,,,,,,,,,,,,1041,2019_Mar_08_1459,mf_amp_cond1,3.0.4,59.99261150617951,
unpleasant,aubos,&&&&&,None,control,,,,,0,44,44,44,,,,,,,,,,,,,,,,,,,,,,,AMP,right,0.7669617938372539,,,right,0,0.7669617938372539,0,,,,,,,,,,,,,,,,,,,,1041,2019_Mar_08_1459,mf_amp_cond1,3.0.4,59.99261150617951,
safe,fornicalion,&&&&&&&&&&&,left,care.virtue,,,,,0,45,45,45,,,,,,,,,,,,,,,,,,,,,,,AMP,right,0.6170707426499575,,,right,0,0.6170707426499575,0,,,,,,,,,,,,,,,,,,,,1041,2019_Mar_08_1459,mf_amp_cond1,3.0.4,59.99261150617951,
credit,baklara,&&&&&&&,left,fairness.virtue,,,,,0,46,46,46,,,,,,,,,,,,,,,,,,,,,,,AMP,right,0.5837135476904223,,,right,0,0.5837135476904223,0,,,,,,,,,,,,,,,,,,,,1041,2019_Mar_08_1459,mf_amp_cond1,3.0.4,59.99261150617951,
victim,sickyay,&&&&&&&,right,care.vice,,,,,0,47,47,47,,,,,,,,,,,,,,,,,,,,,,,AMP,right,0.6003971163299866,,,right,1,0.6003971163299866,1,,,,,,,,,,,,,,,,,,,,1041,2019_Mar_08_1459,mf_amp_cond1,3.0.4,59.99261150617951,
army,chonograph,&&&&&&&&&&,right,loyalty.vice,,,,,0,48,48,48,,,,,,,,,,,,,,,,,,,,,,,AMP,left,0.5003787711029872,,,left,0,0.5003787711029872,0,,,,,,,,,,,,,,,,,,,,1041,2019_Mar_08_1459,mf_amp_cond1,3.0.4,59.99261150617951,
gazily,leact,&&&&&,None,nonword,,,,,0,49,49,49,,,,,,,,,,,,,,,,,,,,,,,AMP,right,0.5335714363609441,,,right,0,0.5335714363609441,0,,,,,,,,,,,,,,,,,,,,1041,2019_Mar_08_1459,mf_amp_cond1,3.0.4,59.99261150617951,
violations,idexpressible,&&&&&&&&&&&&&,right,sanctity.vice,,,,,0,50,50,50,,,,,,,,,,,,,,,,,,,,,,,AMP,left,0.6170691390288994,,,left,0,0.6170691390288994,0,,,,,,,,,,,,,,,,,,,,1041,2019_Mar_08_1459,mf_amp_cond1,3.0.4,59.99261150617951,
support,unscothed,&&&&&&&&&,left,loyalty.virtue,,,,,0,51,51,51,,,,,,,,,,,,,,,,,,,,,,,AMP,left,0.8671385750640184,,,left,1,0.8671385750640184,1,,,,,,,,,,,,,,,,,,,,1041,2019_Mar_08_1459,mf_amp_cond1,3.0.4,59.99261150617951,
attacks,Cunday,&&&&&&,right,care.vice,,,,,0,52,52,52,,,,,,,,,,,,,,,,,,,,,,,AMP,left,0.7170945401157951,,,left,0,0.7170945401157951,0,,,,,,,,,,,,,,,,,,,,1041,2019_Mar_08_1459,mf_amp_cond1,3.0.4,59.99261150617951,
fair,viscs,&&&&&,left,fairness.virtue,,,,,0,53,53,53,,,,,,,,,,,,,,,,,,,,,,,AMP,left,0.7170906914689112,,,left,1,0.7170906914689112,1,,,,,,,,,,,,,,,,,,,,1041,2019_Mar_08_1459,mf_amp_cond1,3.0.4,59.99261150617951,
men,taxpayung,&&&&&&&&&,right,loyalty.vice,,,,,0,54,54,54,,,,,,,,,,,,,,,,,,,,,,,AMP,left,0.46703183923091274,,,left,0,0.46703183923091274,0,,,,,,,,,,,,,,,,,,,,1041,2019_Mar_08_1459,mf_amp_cond1,3.0.4,59.99261150617951,
shot,disregord,&&&&&&&&&,right,care.vice,,,,,0,55,55,55,,,,,,,,,,,,,,,,,,,,,,,AMP,right,0.7004824921896216,,,right,1,0.7004824921896216,1,,,,,,,,,,,,,,,,,,,,1041,2019_Mar_08_1459,mf_amp_cond1,3.0.4,59.99261150617951,
war,gandbrake,&&&&&&&&&,right,sanctity.vice,,,,,0,56,56,56,,,,,,,,,,,,,,,,,,,,,,,AMP,right,0.46704723381844815,,,right,1,0.46704723381844815,1,,,,,,,,,,,,,,,,,,,,1041,2019_Mar_08_1459,mf_amp_cond1,3.0.4,59.99261150617951,
fighters,atson,&&&&&,right,authority.vice,,,,,0,57,57,57,,,,,,,,,,,,,,,,,,,,,,,AMP,left,0.6170745912968414,,,left,0,0.6170745912968414,0,,,,,,,,,,,,,,,,,,,,1041,2019_Mar_08_1459,mf_amp_cond1,3.0.4,59.99261150617951,
sexual,counpy's,&&&&&&&&,right,sanctity.vice,,,,,0,58,58,58,,,,,,,,,,,,,,,,,,,,,,,AMP,right,1.3339096683921525,,,right,1,1.3339096683921525,1,,,,,,,,,,,,,,,,,,,,1041,2019_Mar_08_1459,mf_amp_cond1,3.0.4,59.99261150617951,
police,saned,&&&&&,right,authority.vice,,,,,0,59,59,59,,,,,,,,,,,,,,,,,,,,,,,AMP,left,0.8671308777702507,,,left,0,0.8671308777702507,0,,,,,,,,,,,,,,,,,,,,1041,2019_Mar_08_1459,mf_amp_cond1,3.0.4,59.99261150617951,
free,lachelor,&&&&&&&&,left,fairness.virtue,,,,,0,60,60,60,,,,,,,,,,,,,,,,,,,,,,,AMP,right,0.7337620727339527,,,right,0,0.7337620727339527,0,,,,,,,,,,,,,,,,,,,,1041,2019_Mar_08_1459,mf_amp_cond1,3.0.4,59.99261150617951,
powerful,sonvoy,&&&&&&,left,authority.virtue,,,,,0,61,61,61,,,,,,,,,,,,,,,,,,,,,,,AMP,right,0.41703148643136956,,,right,0,0.41703148643136956,0,,,,,,,,,,,,,,,,,,,,1041,2019_Mar_08_1459,mf_amp_cond1,3.0.4,59.99261150617951,
civilians,ning,&&&&,right,care.vice,,,,,0,62,62,62,,,,,,,,,,,,,,,,,,,,,,,AMP,right,0.3836807058978593,,,right,1,0.3836807058978593,1,,,,,,,,,,,,,,,,,,,,1041,2019_Mar_08_1459,mf_amp_cond1,3.0.4,59.99261150617951,
voter,papert,&&&&&&,right,fairness.vice,,,,,0,63,63,63,,,,,,,,,,,,,,,,,,,,,,,AMP,right,0.30032091309840325,,,right,1,0.30032091309840325,1,,,,,,,,,,,,,,,,,,,,1041,2019_Mar_08_1459,mf_amp_cond1,3.0.4,59.99261150617951,
hope,hescribe,&&&&&&&&,left,loyalty.virtue,,,,,0,64,64,64,,,,,,,,,,,,,,,,,,,,,,,AMP,left,0.717079786962131,,,left,1,0.717079786962131,1,,,,,,,,,,,,,,,,,,,,1041,2019_Mar_08_1459,mf_amp_cond1,3.0.4,59.99261150617951,
dormandi,cromiscuity,&&&&&&&&&&&,None,nonword,,,,,0,65,65,65,,,,,,,,,,,,,,,,,,,,,,,AMP,left,0.5170786965172738,,,left,0,0.5170786965172738,0,,,,,,,,,,,,,,,,,,,,1041,2019_Mar_08_1459,mf_amp_cond1,3.0.4,59.99261150617951,
praise,tabin,&&&&&,left,authority.virtue,,,,,0,66,66,66,,,,,,,,,,,,,,,,,,,,,,,AMP,right,0.4670273491356056,,,right,0,0.4670273491356056,0,,,,,,,,,,,,,,,,,,,,1041,2019_Mar_08_1459,mf_amp_cond1,3.0.4,59.99261150617951,
sharing,quarterbocks,&&&&&&&&&&&&,left,loyalty.virtue,,,,,0,67,67,67,,,,,,,,,,,,,,,,,,,,,,,AMP,right,0.6337405202939408,,,right,0,0.6337405202939408,0,,,,,,,,,,,,,,,,,,,,1041,2019_Mar_08_1459,mf_amp_cond1,3.0.4,59.99261150617951,
ugeasily,Lacedonia,&&&&&&&&&,None,nonword,,,,,0,68,68,68,,,,,,,,,,,,,,,,,,,,,,,AMP,right,0.7337688078550855,,,right,0,0.7337688078550855,0,,,,,,,,,,,,,,,,,,,,1041,2019_Mar_08_1459,mf_amp_cond1,3.0.4,59.99261150617951,
win,bluently,&&&&&&&&,left,fairness.virtue,,,,,0,69,69,69,,,,,,,,,,,,,,,,,,,,,,,AMP,right,0.5337555300211534,,,right,0,0.5337555300211534,0,,,,,,,,,,,,,,,,,,,,1041,2019_Mar_08_1459,mf_amp_cond1,3.0.4,59.99261150617951,
lempestuous,smapper,&&&&&&&,None,nonword,,,,,0,70,70,70,,,,,,,,,,,,,,,,,,,,,,,AMP,right,0.5670678240712732,,,right,0,0.5670678240712732,0,,,,,,,,,,,,,,,,,,,,1041,2019_Mar_08_1459,mf_amp_cond1,3.0.4,59.99261150617951,
interests,prones,&&&&&&,left,fairness.virtue,,,,,0,71,71,71,,,,,,,,,,,,,,,,,,,,,,,AMP,right,0.46702799056947697,,,right,0,0.46702799056947697,0,,,,,,,,,,,,,,,,,,,,1041,2019_Mar_08_1459,mf_amp_cond1,3.0.4,59.99261150617951,
care,lorthwhile,&&&&&&&&&&,left,care.virtue,,,,,0,72,72,72,,,,,,,,,,,,,,,,,,,,,,,AMP,right,0.7170823527267203,,,right,0,0.7170823527267203,0,,,,,,,,,,,,,,,,,,,,1041,2019_Mar_08_1459,mf_amp_cond1,3.0.4,59.99261150617951,
trust,nomparisons,&&&&&&&&&&&,left,authority.virtue,,,,,0,73,73,73,,,,,,,,,,,,,,,,,,,,,,,AMP,right,0.5503784824686591,,,right,0,0.5503784824686591,0,,,,,,,,,,,,,,,,,,,,1041,2019_Mar_08_1459,mf_amp_cond1,3.0.4,59.99261150617951,
safety,fontacts,&&&&&&&&,left,care.virtue,,,,,0,74,74,74,,,,,,,,,,,,,,,,,,,,,,,AMP,left,0.8004482392134378,,,left,1,0.8004482392134378,1,,,,,,,,,,,,,,,,,,,,1041,2019_Mar_08_1459,mf_amp_cond1,3.0.4,59.99261150617951,
penalty,halaise,&&&&&&&,right,authority.vice,,,,,0,75,75,75,,,,,,,,,,,,,,,,,,,,,,,AMP,left,0.4170112810243154,,,left,0,0.4170112810243154,0,,,,,,,,,,,,,,,,,,,,1041,2019_Mar_08_1459,mf_amp_cond1,3.0.4,59.99261150617951,
party,slending,&&&&&&&&,left,loyalty.virtue,,,,,0,76,76,76,,,,,,,,,,,,,,,,,,,,,,,AMP,right,0.4336858694878174,,,right,0,0.4336858694878174,0,,,,,,,,,,,,,,,,,,,,1041,2019_Mar_08_1459,mf_amp_cond1,3.0.4,59.99261150617951,
forced,uller,&&&&&,right,fairness.vice,,,,,0,77,77,77,,,,,,,,,,,,,,,,,,,,,,,AMP,right,0.8837910338043002,,,right,1,0.8837910338043002,1,,,,,,,,,,,,,,,,,,,,1041,2019_Mar_08_1459,mf_amp_cond1,3.0.4,59.99261150617951,
pleasant,gournful,&&&&&&&&,None,control,,,,,0,78,78,78,,,,,,,,,,,,,,,,,,,,,,,AMP,right,0.4837202186899958,,,right,0,0.4837202186899958,0,,,,,,,,,,,,,,,,,,,,1041,2019_Mar_08_1459,mf_amp_cond1,3.0.4,59.99261150617951,
protect,ecgagement,&&&&&&&&&&,left,fairness.virtue,,,,,0,79,79,79,,,,,,,,,,,,,,,,,,,,,,,AMP,left,1.017175874876557,,,left,1,1.017175874876557,1,,,,,,,,,,,,,,,,,,,,1041,2019_Mar_08_1459,mf_amp_cond1,3.0.4,59.99261150617951,
elduringly,laming,&&&&&&,None,nonword,,,,,0,80,80,80,,,,,,,,,,,,,,,,,,,,,,,AMP,right,0.5503945185046177,,,right,0,0.5503945185046177,0,,,,,,,,,,,,,,,,,,,,1041,2019_Mar_08_1459,mf_amp_cond1,3.0.4,59.99261150617951,
actively,strofe,&&&&&&,left,authority.virtue,,,,,0,81,81,81,,,,,,,,,,,,,,,,,,,,,,,AMP,right,1.1505376240675105,,,right,0,1.1505376240675105,0,,,,,,,,,,,,,,,,,,,,1041,2019_Mar_08_1459,mf_amp_cond1,3.0.4,59.99261150617951,
fighters,coom,&&&&,right,authority.vice,,,,,0,82,82,82,,,,,,,,,,,,,,,,,,,,,,,AMP,right,0.3336867675097892,,,right,1,0.3336867675097892,1,,,,,,,,,,,,,,,,,,,,1041,2019_Mar_08_1459,mf_amp_cond1,3.0.4,59.99261150617951,
blunderints,antral,&&&&&&,None,nonword,,,,,0,83,83,83,,,,,,,,,,,,,,,,,,,,,,,AMP,right,0.6504064493055921,,,right,0,0.6504064493055921,0,,,,,,,,,,,,,,,,,,,,1041,2019_Mar_08_1459,mf_amp_cond1,3.0.4,59.99261150617951,
racist,glacenta,&&&&&&&&,right,sanctity.vice,,,,,0,84,84,84,,,,,,,,,,,,,,,,,,,,,,,AMP,left,0.5837161134550115,,,left,0,0.5837161134550115,0,,,,,,,,,,,,,,,,,,,,1041,2019_Mar_08_1459,mf_amp_cond1,3.0.4,59.99261150617951,
erdest,nomaric,&&&&&&&,None,nonword,,,,,0,85,85,85,,,,,,,,,,,,,,,,,,,,,,,AMP,left,0.7838018741749693,,,left,0,0.7838018741749693,0,,,,,,,,,,,,,,,,,,,,1041,2019_Mar_08_1459,mf_amp_cond1,3.0.4,59.99261150617951,
compassion,unreflectuve,&&&&&&&&&&&&,left,care.virtue,,,,,0,86,86,86,,,,,,,,,,,,,,,,,,,,,,,AMP,left,0.7002711372624617,,,left,1,0.7002711372624617,1,,,,,,,,,,,,,,,,,,,,1041,2019_Mar_08_1459,mf_amp_cond1,3.0.4,59.99261150617951,
hope,tove,&&&&,left,loyalty.virtue,,,,,0,87,87,87,,,,,,,,,,,,,,,,,,,,,,,AMP,right,0.4503582129109418,,,right,0,0.4503582129109418,0,,,,,,,,,,,,,,,,,,,,1041,2019_Mar_08_1459,mf_amp_cond1,3.0.4,59.99261150617951,
attacks,leact,&&&&&,right,care.vice,,,,,0,88,88,88,,,,,,,,,,,,,,,,,,,,,,,AMP,right,1.0838504954153905,,,right,1,1.0838504954153905,1,,,,,,,,,,,,,,,,,,,,1041,2019_Mar_08_1459,mf_amp_cond1,3.0.4,59.99261150617951,
ensure,presentkess,&&&&&&&&&&&,left,fairness.virtue,,,,,0,89,89,89,,,,,,,,,,,,,,,,,,,,,,,AMP,right,0.5670418457011692,,,right,0,0.5670418457011692,0,,,,,,,,,,,,,,,,,,,,1041,2019_Mar_08_1459,mf_amp_cond1,3.0.4,59.99261150617951,
refused,lachelor,&&&&&&&&,right,authority.vice,,,,,0,90,90,90,,,,,,,,,,,,,,,,,,,,,,,AMP,right,0.5003678666107589,,,right,1,0.5003678666107589,1,,,,,,,,,,,,,,,,,,,,1041,2019_Mar_08_1459,mf_amp_cond1,3.0.4,59.99261150617951,
peaceful,allears,&&&&&&&,left,authority.virtue,,,,,0,91,91,91,,,,,,,,,,,,,,,,,,,,,,,AMP,right,0.4837028997571906,,,right,0,0.4837028997571906,0,,,,,,,,,,,,,,,,,,,,1041,2019_Mar_08_1459,mf_amp_cond1,3.0.4,59.99261150617951,
slavery,hescribe,&&&&&&&&,right,loyalty.vice,,,,,0,92,92,92,,,,,,,,,,,,,,,,,,,,,,,AMP,left,0.6337382752535632,,,left,0,0.6337382752535632,0,,,,,,,,,,,,,,,,,,,,1041,2019_Mar_08_1459,mf_amp_cond1,3.0.4,59.99261150617951,
killed,alar,&&&&,right,care.vice,,,,,0,93,93,93,,,,,,,,,,,,,,,,,,,,,,,AMP,right,0.4837028997571906,,,right,1,0.4837028997571906,1,,,,,,,,,,,,,,,,,,,,1041,2019_Mar_08_1459,mf_amp_cond1,3.0.4,59.99261150617951,
threatened,Phintoism,&&&&&&&&&,right,fairness.vice,,,,,0,94,94,94,,,,,,,,,,,,,,,,,,,,,,,AMP,left,0.5003624143573688,,,left,0,0.5003624143573688,0,,,,,,,,,,,,,,,,,,,,1041,2019_Mar_08_1459,mf_amp_cond1,3.0.4,59.99261150617951,
betrayal,sonvoy,&&&&&&,right,loyalty.vice,,,,,0,95,95,95,,,,,,,,,,,,,,,,,,,,,,,AMP,right,0.41697632246359717,,,right,1,0.41697632246359717,1,,,,,,,,,,,,,,,,,,,,1041,2019_Mar_08_1459,mf_amp_cond1,3.0.4,59.99261150617951,
victims,vicissifude,&&&&&&&&&&&,right,care.vice,,,,,0,96,96,96,,,,,,,,,,,,,,,,,,,,,,,AMP,left,0.41702282696496695,,,left,0,0.41702282696496695,0,,,,,,,,,,,,,,,,,,,,1041,2019_Mar_08_1459,mf_amp_cond1,3.0.4,59.99261150617951,
serial,slending,&&&&&&&&,right,sanctity.vice,,,,,0,97,97,97,,,,,,,,,,,,,,,,,,,,,,,AMP,right,0.3670455660612788,,,right,1,0.3670455660612788,1,,,,,,,,,,,,,,,,,,,,1041,2019_Mar_08_1459,mf_amp_cond1,3.0.4,59.99261150617951,
terrorist,crinking,&&&&&&&&,right,loyalty.vice,,,,,0,98,98,98,,,,,,,,,,,,,,,,,,,,,,,AMP,right,0.48369905111030675,,,right,1,0.48369905111030675,1,,,,,,,,,,,,,,,,,,,,1041,2019_Mar_08_1459,mf_amp_cond1,3.0.4,59.99261150617951,
protesters,crilfully,&&&&&&&&&,right,authority.vice,,,,,0,99,99,99,,,,,,,,,,,,,,,,,,,,,,,AMP,left,0.8504713631700724,,,left,0,0.8504713631700724,0,,,,,,,,,,,,,,,,,,,,1041,2019_Mar_08_1459,mf_amp_cond1,3.0.4,59.99261150617951,
actively,baladroit,&&&&&&&&&,left,authority.virtue,,,,,0,100,100,100,,,,,,,,,,,,,,,,,,,,,,,AMP,right,0.9171414936135989,,,right,0,0.9171414936135989,0,,,,,,,,,,,,,,,,,,,,1041,2019_Mar_08_1459,mf_amp_cond1,3.0.4,59.99261150617951,
police,halaise,&&&&&&&,right,authority.vice,,,,,0,101,101,101,,,,,,,,,,,,,,,,,,,,,,,AMP,left,0.417038542276714,,,left,0,0.417038542276714,0,,,,,,,,,,,,,,,,,,,,1041,2019_Mar_08_1459,mf_amp_cond1,3.0.4,59.99261150617951,
credit,gournful,&&&&&&&&,left,fairness.virtue,,,,,0,102,102,102,,,,,,,,,,,,,,,,,,,,,,,AMP,right,0.8338105657021515,,,right,0,0.8338105657021515,0,,,,,,,,,,,,,,,,,,,,1041,2019_Mar_08_1459,mf_amp_cond1,3.0.4,59.99261150617951,
pleasant,clamorek,&&&&&&&&,None,control,,,,,0,103,103,103,,,,,,,,,,,,,,,,,,,,,,,AMP,right,0.7004135372262681,,,right,0,0.7004135372262681,0,,,,,,,,,,,,,,,,,,,,1041,2019_Mar_08_1459,mf_amp_cond1,3.0.4,59.99261150617951,
shot,supervuned,&&&&&&&&&&,right,care.vice,,,,,0,104,104,104,,,,,,,,,,,,,,,,,,,,,,,AMP,left,0.5003758846287383,,,left,0,0.5003758846287383,0,,,,,,,,,,,,,,,,,,,,1041,2019_Mar_08_1459,mf_amp_cond1,3.0.4,59.99261150617951,
elduringly,saned,&&&&&,None,nonword,,,,,0,105,105,105,,,,,,,,,,,,,,,,,,,,,,,AMP,right,0.5837321494764183,,,right,0,0.5837321494764183,0,,,,,,,,,,,,,,,,,,,,1041,2019_Mar_08_1459,mf_amp_cond1,3.0.4,59.99261150617951,
gazily,ronviolence,&&&&&&&&&&&,None,nonword,,,,,0,106,106,106,,,,,,,,,,,,,,,,,,,,,,,AMP,left,0.8171148096589604,,,left,0,0.8171148096589604,0,,,,,,,,,,,,,,,,,,,,1041,2019_Mar_08_1459,mf_amp_cond1,3.0.4,59.99261150617951,
improve,strofe,&&&&&&,left,care.virtue,,,,,0,107,107,107,,,,,,,,,,,,,,,,,,,,,,,AMP,right,0.5503836139978375,,,right,0,0.5503836139978375,0,,,,,,,,,,,,,,,,,,,,1041,2019_Mar_08_1459,mf_amp_cond1,3.0.4,59.99261150617951,
victim,lorthwhile,&&&&&&&&&&,right,care.vice,,,,,0,108,108,108,,,,,,,,,,,,,,,,,,,,,,,AMP,right,1.0336904237192357,,,right,1,1.0336904237192357,1,,,,,,,,,,,,,,,,,,,,1041,2019_Mar_08_1459,mf_amp_cond1,3.0.4,59.99261150617951,
safety,gandbrake,&&&&&&&&&,left,care.virtue,,,,,0,109,109,109,,,,,,,,,,,,,,,,,,,,,,,AMP,left,0.9838279808172956,,,left,1,0.9838279808172956,1,,,,,,,,,,,,,,,,,,,,1041,2019_Mar_08_1459,mf_amp_cond1,3.0.4,59.99261150617951,
civilians,totalestic,&&&&&&&&&&,right,care.vice,,,,,0,110,110,110,,,,,,,,,,,,,,,,,,,,,,,AMP,left,0.9338151199335698,,,left,0,0.9338151199335698,0,,,,,,,,,,,,,,,,,,,,1041,2019_Mar_08_1459,mf_amp_cond1,3.0.4,59.99261150617951,
harassment,quarterbocks,&&&&&&&&&&&&,right,sanctity.vice,,,,,0,111,111,111,,,,,,,,,,,,,,,,,,,,,,,AMP,right,0.5837260558037087,,,right,1,0.5837260558037087,1,,,,,,,,,,,,,,,,,,,,1041,2019_Mar_08_1459,mf_amp_cond1,3.0.4,59.99261150617951,
war,edancipation,&&&&&&&&&&&&,right,sanctity.vice,,,,,0,112,112,112,,,,,,,,,,,,,,,,,,,,,,,AMP,left,0.6504051664232975,,,left,0,0.6504051664232975,0,,,,,,,,,,,,,,,,,,,,1041,2019_Mar_08_1459,mf_amp_cond1,3.0.4,59.99261150617951,
great,frojecting,&&&&&&&&&&,left,loyalty.virtue,,,,,0,113,113,113,,,,,,,,,,,,,,,,,,,,,,,AMP,right,0.43368170013127383,,,right,0,0.43368170013127383,0,,,,,,,,,,,,,,,,,,,,1041,2019_Mar_08_1459,mf_amp_cond1,3.0.4,59.99261150617951,
sexual,bluently,&&&&&&&&,right,sanctity.vice,,,,,0,114,114,114,,,,,,,,,,,,,,,,,,,,,,,AMP,right,0.6670752648060443,,,right,1,0.6670752648060443,1,,,,,,,,,,,,,,,,,,,,1041,2019_Mar_08_1459,mf_amp_cond1,3.0.4,59.99261150617951,
dumid,Cunday,&&&&&&,None,nonword,,,,,0,115,115,115,,,,,,,,,,,,,,,,,,,,,,,AMP,right,0.5337744525459129,,,right,0,0.5337744525459129,0,,,,,,,,,,,,,,,,,,,,1041,2019_Mar_08_1459,mf_amp_cond1,3.0.4,59.99261150617951,
prosecution,precificity,&&&&&&&&&&&,right,authority.vice,,,,,0,116,116,116,,,,,,,,,,,,,,,,,,,,,,,AMP,left,0.5003620936331572,,,left,0,0.5003620936331572,0,,,,,,,,,,,,,,,,,,,,1041,2019_Mar_08_1459,mf_amp_cond1,3.0.4,59.99261150617951,
sharing,gusinesslike,&&&&&&&&&&&&,left,loyalty.virtue,,,,,0,117,117,117,,,,,,,,,,,,,,,,,,,,,,,AMP,right,0.9171386071393499,,,right,0,0.9171386071393499,0,,,,,,,,,,,,,,,,,,,,1041,2019_Mar_08_1459,mf_amp_cond1,3.0.4,59.99261150617951,
unpleasant,fornicalion,&&&&&&&&&&&,None,control,,,,,0,118,118,118,,,,,,,,,,,,,,,,,,,,,,,AMP,right,0.7337582240870688,,,right,0,0.7337582240870688,0,,,,,,,,,,,,,,,,,,,,1041,2019_Mar_08_1459,mf_amp_cond1,3.0.4,59.99261150617951,
values,chreams,&&&&&&&,left,sanctity.virtue,,,,,0,119,119,119,,,,,,,,,,,,,,,,,,,,,,,AMP,right,0.5337523228081409,,,right,0,0.5337523228081409,0,,,,,,,,,,,,,,,,,,,,1041,2019_Mar_08_1459,mf_amp_cond1,3.0.4,59.99261150617951,
accused,uller,&&&&&,right,fairness.vice,,,,,0,120,120,120,,,,,,,,,,,,,,,,,,,,,,,AMP,left,1.367254675948061,,,left,0,1.367254675948061,0,,,,,,,,,,,,,,,,,,,,1041,2019_Mar_08_1459,mf_amp_cond1,3.0.4,59.99261150617951,
increase,Lacedonia,&&&&&&&&&,left,care.virtue,,,,,0,121,121,121,,,,,,,,,,,,,,,,,,,,,,,AMP,right,0.8838048247998813,,,right,0,0.8838048247998813,0,,,,,,,,,,,,,,,,,,,,1041,2019_Mar_08_1459,mf_amp_cond1,3.0.4,59.99261150617951,
promote,papert,&&&&&&,left,sanctity.virtue,,,,,0,122,122,122,,,,,,,,,,,,,,,,,,,,,,,AMP,right,0.45035885435936507,,,right,0,0.45035885435936507,0,,,,,,,,,,,,,,,,,,,,1041,2019_Mar_08_1459,mf_amp_cond1,3.0.4,59.99261150617951,
powerful,sfumatoy,&&&&&&&&,left,authority.virtue,,,,,0,123,123,123,,,,,,,,,,,,,,,,,,,,,,,AMP,right,0.5837273386714514,,,right,0,0.5837273386714514,0,,,,,,,,,,,,,,,,,,,,1041,2019_Mar_08_1459,mf_amp_cond1,3.0.4,59.99261150617951,
penalty,cromiscuity,&&&&&&&&&&&,right,authority.vice,,,,,0,124,124,124,,,,,,,,,,,,,,,,,,,,,,,AMP,right,0.9338237793854205,,,right,1,0.9338237793854205,1,,,,,,,,,,,,,,,,,,,,1041,2019_Mar_08_1459,mf_amp_cond1,3.0.4,59.99261150617951,
safe,reviked,&&&&&&&,left,care.virtue,,,,,0,125,125,125,,,,,,,,,,,,,,,,,,,,,,,AMP,left,0.567054995248327,,,left,1,0.567054995248327,1,,,,,,,,,,,,,,,,,,,,1041,2019_Mar_08_1459,mf_amp_cond1,3.0.4,59.99261150617951,
trust,focomotive,&&&&&&&&&&,left,authority.virtue,,,,,0,126,126,126,,,,,,,,,,,,,,,,,,,,,,,AMP,right,0.7004250831669196,,,right,0,0.7004250831669196,0,,,,,,,,,,,,,,,,,,,,1041,2019_Mar_08_1459,mf_amp_cond1,3.0.4,59.99261150617951,
energy,ning,&&&&,left,sanctity.virtue,,,,,0,127,127,127,,,,,,,,,,,,,,,,,,,,,,,AMP,right,0.4170648413710296,,,right,0,0.4170648413710296,0,,,,,,,,,,,,,,,,,,,,1041,2019_Mar_08_1459,mf_amp_cond1,3.0.4,59.99261150617951,
lies,counpy's,&&&&&&&&,right,fairness.vice,,,,,0,128,128,128,,,,,,,,,,,,,,,,,,,,,,,AMP,left,0.4168643909652019,,,left,0,0.4168643909652019,0,,,,,,,,,,,,,,,,,,,,1041,2019_Mar_08_1459,mf_amp_cond1,3.0.4,59.99261150617951,
progress,pumber,&&&&&&,left,authority.virtue,,,,,0,129,129,129,,,,,,,,,,,,,,,,,,,,,,,AMP,right,0.46702670770173427,,,right,0,0.46702670770173427,0,,,,,,,,,,,,,,,,,,,,1041,2019_Mar_08_1459,mf_amp_cond1,3.0.4,59.99261150617951,
good,baklara,&&&&&&&,left,care.virtue,,,,,0,130,130,130,,,,,,,,,,,,,,,,,,,,,,,AMP,right,0.33365982698160224,,,right,0,0.33365982698160224,0,,,,,,,,,,,,,,,,,,,,1041,2019_Mar_08_1459,mf_amp_cond1,3.0.4,59.99261150617951,
gedious,framo,&&&&&,None,nonword,,,,,0,131,131,131,,,,,,,,,,,,,,,,,,,,,,,AMP,left,0.4503582129109418,,,left,0,0.4503582129109418,0,,,,,,,,,,,,,,,,,,,,1041,2019_Mar_08_1459,mf_amp_cond1,3.0.4,59.99261150617951,
groups,fontacts,&&&&&&&&,right,loyalty.vice,,,,,0,132,132,132,,,,,,,,,,,,,,,,,,,,,,,AMP,right,0.550387783368933,,,right,1,0.550387783368933,1,,,,,,,,,,,,,,,,,,,,1041,2019_Mar_08_1459,mf_amp_cond1,3.0.4,59.99261150617951,
army,chonograph,&&&&&&&&&&,right,loyalty.vice,,,,,0,133,133,133,,,,,,,,,,,,,,,,,,,,,,,AMP,right,0.5669276691478444,,,right,1,0.5669276691478444,1,,,,,,,,,,,,,,,,,,,,1041,2019_Mar_08_1459,mf_amp_cond1,3.0.4,59.99261150617951,
ugeasily,ablow,&&&&&,None,nonword,,,,,0,134,134,134,,,,,,,,,,,,,,,,,,,,,,,AMP,right,0.4003703682246851,,,right,0,0.4003703682246851,0,,,,,,,,,,,,,,,,,,,,1041,2019_Mar_08_1459,mf_amp_cond1,3.0.4,59.99261150617951,
support,sliptery,&&&&&&&&,left,loyalty.virtue,,,,,0,135,135,135,,,,,,,,,,,,,,,,,,,,,,,AMP,left,0.8837974482157733,,,left,1,0.8837974482157733,1,,,,,,,,,,,,,,,,,,,,1041,2019_Mar_08_1459,mf_amp_cond1,3.0.4,59.99261150617951,
praise,taxpayung,&&&&&&&&&,left,authority.virtue,,,,,0,136,136,136,,,,,,,,,,,,,,,,,,,,,,,AMP,left,1.000506738666445,,,left,1,1.000506738666445,1,,,,,,,,,,,,,,,,,,,,1041,2019_Mar_08_1459,mf_amp_cond1,3.0.4,59.99261150617951,
respect,tabin,&&&&&,left,sanctity.virtue,,,,,0,137,137,137,,,,,,,,,,,,,,,,,,,,,,,AMP,right,0.567060447516269,,,right,0,0.567060447516269,0,,,,,,,,,,,,,,,,,,,,1041,2019_Mar_08_1459,mf_amp_cond1,3.0.4,59.99261150617951,
arrests,sickyay,&&&&&&&,right,authority.vice,,,,,0,138,138,138,,,,,,,,,,,,,,,,,,,,,,,AMP,left,0.7337771465972764,,,left,0,0.7337771465972764,0,,,,,,,,,,,,,,,,,,,,1041,2019_Mar_08_1459,mf_amp_cond1,3.0.4,59.99261150617951,
dormandi,pescinded,&&&&&&&&&,None,nonword,,,,,0,139,139,139,,,,,,,,,,,,,,,,,,,,,,,AMP,left,0.7337582240870688,,,left,0,0.7337582240870688,0,,,,,,,,,,,,,,,,,,,,1041,2019_Mar_08_1459,mf_amp_cond1,3.0.4,59.99261150617951,
neputized,sidearbs,&&&&&&&&,None,nonword,,,,,0,140,140,140,,,,,,,,,,,,,,,,,,,,,,,AMP,right,0.8838138049759436,,,right,0,0.8838138049759436,0,,,,,,,,,,,,,,,,,,,,1041,2019_Mar_08_1459,mf_amp_cond1,3.0.4,59.99261150617951,
voter,lursuer,&&&&&&&,right,fairness.vice,,,,,0,141,141,141,,,,,,,,,,,,,,,,,,,,,,,AMP,right,0.4837057862459915,,,right,1,0.4837057862459915,1,,,,,,,,,,,,,,,,,,,,1041,2019_Mar_08_1459,mf_amp_cond1,3.0.4,59.99261150617951,
party,egpeditious,&&&&&&&&&&&,left,loyalty.virtue,,,,,0,142,142,142,,,,,,,,,,,,,,,,,,,,,,,AMP,left,0.6170608003012603,,,left,1,0.6170608003012603,1,,,,,,,,,,,,,,,,,,,,1041,2019_Mar_08_1459,mf_amp_cond1,3.0.4,59.99261150617951,
protect,unscothed,&&&&&&&&&,left,fairness.virtue,,,,,0,143,143,143,,,,,,,,,,,,,,,,,,,,,,,AMP,right,0.5503807275090367,,,right,0,0.5503807275090367,0,,,,,,,,,,,,,,,,,,,,1041,2019_Mar_08_1459,mf_amp_cond1,3.0.4,59.99261150617951,
free,squets,&&&&&&,left,fairness.virtue,,,,,0,144,144,144,,,,,,,,,,,,,,,,,,,,,,,AMP,right,0.650401959210285,,,right,0,0.650401959210285,0,,,,,,,,,,,,,,,,,,,,1041,2019_Mar_08_1459,mf_amp_cond1,3.0.4,59.99261150617951,
win,atson,&&&&&,left,fairness.virtue,,,,,0,145,145,145,,,,,,,,,,,,,,,,,,,,,,,AMP,right,0.6670765476883389,,,right,0,0.6670765476883389,0,,,,,,,,,,,,,,,,,,,,1041,2019_Mar_08_1459,mf_amp_cond1,3.0.4,59.99261150617951,
lempestuous,laming,&&&&&&,None,nonword,,,,,0,146,146,146,,,,,,,,,,,,,,,,,,,,,,,AMP,right,0.7504350575909484,,,right,0,0.7504350575909484,0,,,,,,,,,,,,,,,,,,,,1041,2019_Mar_08_1459,mf_amp_cond1,3.0.4,59.99261150617951,
praised,thadowed,&&&&&&&&,left,loyalty.virtue,,,,,0,147,147,147,,,,,,,,,,,,,,,,,,,,,,,AMP,right,1.6006453541340306,,,right,0,1.6006453541340306,0,,,,,,,,,,,,,,,,,,,,1041,2019_Mar_08_1459,mf_amp_cond1,3.0.4,59.99261150617951,
prison,prones,&&&&&&,right,fairness.vice,,,,,0,148,148,148,,,,,,,,,,,,,,,,,,,,,,,AMP,right,0.5670524294837378,,,right,1,0.5670524294837378,1,,,,,,,,,,,,,,,,,,,,1041,2019_Mar_08_1459,mf_amp_cond1,3.0.4,59.99261150617951,
forced,lenon,&&&&&,right,fairness.vice,,,,,0,149,149,149,,,,,,,,,,,,,,,,,,,,,,,AMP,right,0.40042777723283507,,,right,1,0.40042777723283507,1,,,,,,,,,,,,,,,,,,,,1041,2019_Mar_08_1459,mf_amp_cond1,3.0.4,59.99261150617951,
ban,fangsters,&&&&&&&&&,right,loyalty.vice,,,,,0,150,150,150,,,,,,,,,,,,,,,,,,,,,,,AMP,right,0.5003431711083977,,,right,1,0.5003431711083977,1,,,,,,,,,,,,,,,,,,,,1041,2019_Mar_08_1459,mf_amp_cond1,3.0.4,59.99261150617951,
violations,gikely,&&&&&&,right,sanctity.vice,,,,,0,151,151,151,,,,,,,,,,,,,,,,,,,,,,,AMP,left,0.5837485062365886,,,left,0,0.5837485062365886,0,,,,,,,,,,,,,,,,,,,,1041,2019_Mar_08_1459,mf_amp_cond1,3.0.4,59.99261150617951,
useful,gowlands,&&&&&&&&,left,authority.virtue,,,,,0,152,152,152,,,,,,,,,,,,,,,,,,,,,,,AMP,left,0.9671556374087231,,,left,1,0.9671556374087231,1,,,,,,,,,,,,,,,,,,,,1041,2019_Mar_08_1459,mf_amp_cond1,3.0.4,59.99261150617951,
perfect,aubos,&&&&&,left,sanctity.virtue,,,,,0,153,153,153,,,,,,,,,,,,,,,,,,,,,,,AMP,left,0.6004032100318,,,left,1,0.6004032100318,1,,,,,,,,,,,,,,,,,,,,1041,2019_Mar_08_1459,mf_amp_cond1,3.0.4,59.99261150617951,
fair,rivernoat,&&&&&&&&&,left,fairness.virtue,,,,,0,154,154,154,,,,,,,,,,,,,,,,,,,,,,,AMP,right,0.683750173979206,,,right,0,0.683750173979206,0,,,,,,,,,,,,,,,,,,,,1041,2019_Mar_08_1459,mf_amp_cond1,3.0.4,59.99261150617951,
love,hatigue,&&&&&&&,left,loyalty.virtue,,,,,0,155,155,155,,,,,,,,,,,,,,,,,,,,,,,AMP,right,1.0171890244237147,,,right,0,1.0171890244237147,0,,,,,,,,,,,,,,,,,,,,1041,2019_Mar_08_1459,mf_amp_cond1,3.0.4,59.99261150617951,
fraud,idexpressible,&&&&&&&&&&&&&,right,fairness.vice,,,,,0,156,156,156,,,,,,,,,,,,,,,,,,,,,,,AMP,right,0.53371608137968,,,right,1,0.53371608137968,1,,,,,,,,,,,,,,,,,,,,1041,2019_Mar_08_1459,mf_amp_cond1,3.0.4,59.99261150617951,
dignity,nomparisons,&&&&&&&&&&&,left,sanctity.virtue,,,,,0,157,157,157,,,,,,,,,,,,,,,,,,,,,,,AMP,right,0.6504221646318911,,,right,0,0.6504221646318911,0,,,,,,,,,,,,,,,,,,,,1041,2019_Mar_08_1459,mf_amp_cond1,3.0.4,59.99261150617951,
men,rorroborated,&&&&&&&&&&&&,right,loyalty.vice,,,,,0,158,158,158,,,,,,,,,,,,,,,,,,,,,,,AMP,right,0.5837122648081277,,,right,1,0.5837122648081277,1,,,,,,,,,,,,,,,,,,,,1041,2019_Mar_08_1459,mf_amp_cond1,3.0.4,59.99261150617951,
care,disregord,&&&&&&&&&,left,care.virtue,,,,,0,159,159,159,,,,,,,,,,,,,,,,,,,,,,,AMP,left,0.36703369941096753,,,left,1,0.36703369941096753,1,,,,,,,,,,,,,,,,,,,,1041,2019_Mar_08_1459,mf_amp_cond1,3.0.4,59.99261150617951,
interests,ecgagement,&&&&&&&&&&,left,fairness.virtue,,,,,0,160,160,160,,,,,,,,,,,,,,,,,,,,,,,AMP,left,0.833792605335475,,,left,1,0.833792605335475,1,,,,,,,,,,,,,,,,,,,,1041,2019_Mar_08_1459,mf_amp_cond1,3.0.4,59.99261150617951,
freedom,smapper,&&&&&&&,left,sanctity.virtue,,,,,0,161,161,161,,,,,,,,,,,,,,,,,,,,,,,AMP,right,0.5504034986661281,,,right,0,0.5504034986661281,0,,,,,,,,,,,,,,,,,,,,1041,2019_Mar_08_1459,mf_amp_cond1,3.0.4,59.99261150617951,
abuse,ilportation,&&&&&&&&&&&,right,sanctity.vice,,,,,0,162,162,162,,,,,,,,,,,,,,,,,,,,,,,AMP,right,0.75043537831516,,,right,1,0.75043537831516,1,,,,,,,,,,,,,,,,,,,,1041,2019_Mar_08_1459,mf_amp_cond1,3.0.4,59.99261150617951,
injured,viscs,&&&&&,right,care.vice,,,,,0,163,163,163,,,,,,,,,,,,,,,,,,,,,,,AMP,left,0.8171212240704335,,,left,0,0.8171212240704335,0,,,,,,,,,,,,,,,,,,,,1041,2019_Mar_08_1459,mf_amp_cond1,3.0.4,59.99261150617951,
support,disregord,&&&&&&&&&,left,loyalty.virtue,,,,,0,164,164,164,,,,,,,,,,,,,,,,,,,,,,,AMP,left,0.9169942828302737,,,left,1,0.9169942828302737,1,,,,,,,,,,,,,,,,,,,,1041,2019_Mar_08_1459,mf_amp_cond1,3.0.4,59.99261150617951,
racist,clamorek,&&&&&&&&,right,sanctity.vice,,,,,0,165,165,165,,,,,,,,,,,,,,,,,,,,,,,AMP,right,0.5837263765279204,,,right,1,0.5837263765279204,1,,,,,,,,,,,,,,,,,,,,1041,2019_Mar_08_1459,mf_amp_cond1,3.0.4,59.99261150617951,
accused,papert,&&&&&&,right,fairness.vice,,,,,0,166,166,166,,,,,,,,,,,,,,,,,,,,,,,AMP,right,0.2836184219340794,,,right,1,0.2836184219340794,1,,,,,,,,,,,,,,,,,,,,1041,2019_Mar_08_1459,mf_amp_cond1,3.0.4,59.99261150617951,
fair,sonvoy,&&&&&&,left,fairness.virtue,,,,,0,167,167,167,,,,,,,,,,,,,,,,,,,,,,,AMP,right,0.25035038734495174,,,right,0,0.25035038734495174,0,,,,,,,,,,,,,,,,,,,,1041,2019_Mar_08_1459,mf_amp_cond1,3.0.4,59.99261150617951,
victim,ning,&&&&,right,care.vice,,,,,0,168,168,168,,,,,,,,,,,,,,,,,,,,,,,AMP,right,0.16681580178556032,,,right,1,0.16681580178556032,1,,,,,,,,,,,,,,,,,,,,1041,2019_Mar_08_1459,mf_amp_cond1,3.0.4,59.99261150617951,
neputized,gournful,&&&&&&&&,None,nonword,,,,,0,169,169,169,,,,,,,,,,,,,,,,,,,,,,,AMP,left,0.38369096895621624,,,left,0,0.38369096895621624,0,,,,,,,,,,,,,,,,,,,,1041,2019_Mar_08_1459,mf_amp_cond1,3.0.4,59.99261150617951,
army,pescinded,&&&&&&&&&,right,loyalty.vice,,,,,0,170,170,170,,,,,,,,,,,,,,,,,,,,,,,AMP,left,0.6337045995896915,,,left,0,0.6337045995896915,0,,,,,,,,,,,,,,,,,,,,1041,2019_Mar_08_1459,mf_amp_cond1,3.0.4,59.99261150617951,
interests,crinking,&&&&&&&&,left,fairness.virtue,,,,,0,171,171,171,,,,,,,,,,,,,,,,,,,,,,,AMP,right,0.7004186687699985,,,right,0,0.7004186687699985,0,,,,,,,,,,,,,,,,,,,,1041,2019_Mar_08_1459,mf_amp_cond1,3.0.4,59.99261150617951,
civilians,baklara,&&&&&&&,right,care.vice,,,,,0,172,172,172,,,,,,,,,,,,,,,,,,,,,,,AMP,right,0.3836592176085105,,,right,1,0.3836592176085105,1,,,,,,,,,,,,,,,,,,,,1041,2019_Mar_08_1459,mf_amp_cond1,3.0.4,59.99261150617951,
protect,halaise,&&&&&&&,left,fairness.virtue,,,,,0,173,173,173,,,,,,,,,,,,,,,,,,,,,,,AMP,left,0.45036430661275517,,,left,1,0.45036430661275517,1,,,,,,,,,,,,,,,,,,,,1041,2019_Mar_08_1459,mf_amp_cond1,3.0.4,59.99261150617951,
threatened,rorroborated,&&&&&&&&&&&&,right,fairness.vice,,,,,0,174,174,174,,,,,,,,,,,,,,,,,,,,,,,AMP,left,0.8504678352474002,,,left,0,0.8504678352474002,0,,,,,,,,,,,,,,,,,,,,1041,2019_Mar_08_1459,mf_amp_cond1,3.0.4,59.99261150617951,
hope,laming,&&&&&&,left,loyalty.virtue,,,,,0,175,175,175,,,,,,,,,,,,,,,,,,,,,,,AMP,right,0.6002402839367278,,,right,0,0.6002402839367278,0,,,,,,,,,,,,,,,,,,,,1041,2019_Mar_08_1459,mf_amp_cond1,3.0.4,59.99261150617951,
praised,frojecting,&&&&&&&&&&,left,loyalty.virtue,,,,,0,176,176,176,,,,,,,,,,,,,,,,,,,,,,,AMP,right,0.8171141682105372,,,right,0,0.8171141682105372,0,,,,,,,,,,,,,,,,,,,,1041,2019_Mar_08_1459,mf_amp_cond1,3.0.4,59.99261150617951,
refused,thadowed,&&&&&&&&,right,authority.vice,,,,,0,177,177,177,,,,,,,,,,,,,,,,,,,,,,,AMP,right,0.8671026543452172,,,right,1,0.8671026543452172,1,,,,,,,,,,,,,,,,,,,,1041,2019_Mar_08_1459,mf_amp_cond1,3.0.4,59.99261150617951,
safe,aubos,&&&&&,left,care.virtue,,,,,0,178,178,178,,,,,,,,,,,,,,,,,,,,,,,AMP,left,0.5337147984973853,,,left,1,0.5337147984973853,1,,,,,,,,,,,,,,,,,,,,1041,2019_Mar_08_1459,mf_amp_cond1,3.0.4,59.99261150617951,
respect,leact,&&&&&,left,sanctity.virtue,,,,,0,179,179,179,,,,,,,,,,,,,,,,,,,,,,,AMP,right,0.8838045040756697,,,right,0,0.8838045040756697,0,,,,,,,,,,,,,,,,,,,,1041,2019_Mar_08_1459,mf_amp_cond1,3.0.4,59.99261150617951,
penalty,lachelor,&&&&&&&&,right,authority.vice,,,,,0,180,180,180,,,,,,,,,,,,,,,,,,,,,,,AMP,right,0.45035083634138573,,,right,1,0.45035083634138573,1,,,,,,,,,,,,,,,,,,,,1041,2019_Mar_08_1459,mf_amp_cond1,3.0.4,59.99261150617951,
violations,taxpayung,&&&&&&&&&,right,sanctity.vice,,,,,0,181,181,181,,,,,,,,,,,,,,,,,,,,,,,AMP,left,0.8504588550713379,,,left,0,0.8504588550713379,0,,,,,,,,,,,,,,,,,,,,1041,2019_Mar_08_1459,mf_amp_cond1,3.0.4,59.99261150617951,
fraud,Phintoism,&&&&&&&&&,right,fairness.vice,,,,,0,182,182,182,,,,,,,,,,,,,,,,,,,,,,,AMP,left,0.9671893130725948,,,left,0,0.9671893130725948,0,,,,,,,,,,,,,,,,,,,,1041,2019_Mar_08_1459,mf_amp_cond1,3.0.4,59.99261150617951,
injured,glacenta,&&&&&&&&,right,care.vice,,,,,0,183,183,183,,,,,,,,,,,,,,,,,,,,,,,AMP,left,0.5670809736329829,,,left,0,0.5670809736329829,0,,,,,,,,,,,,,,,,,,,,1041,2019_Mar_08_1459,mf_amp_cond1,3.0.4,59.99261150617951,
party,totalestic,&&&&&&&&&&,left,loyalty.virtue,,,,,0,184,184,184,,,,,,,,,,,,,,,,,,,,,,,AMP,left,0.6837504947179696,,,left,1,0.6837504947179696,1,,,,,,,,,,,,,,,,,,,,1041,2019_Mar_08_1459,mf_amp_cond1,3.0.4,59.99261150617951,
gedious,supervuned,&&&&&&&&&&,None,nonword,,,,,0,185,185,185,,,,,,,,,,,,,,,,,,,,,,,AMP,left,0.4003431069868384,,,left,0,0.4003431069868384,0,,,,,,,,,,,,,,,,,,,,1041,2019_Mar_08_1459,mf_amp_cond1,3.0.4,59.99261150617951,
lempestuous,counpy's,&&&&&&&&,None,nonword,,,,,0,186,186,186,,,,,,,,,,,,,,,,,,,,,,,AMP,left,0.6837581920117373,,,left,0,0.6837581920117373,0,,,,,,,,,,,,,,,,,,,,1041,2019_Mar_08_1459,mf_amp_cond1,3.0.4,59.99261150617951,
ensure,saned,&&&&&,left,fairness.virtue,,,,,0,187,187,187,,,,,,,,,,,,,,,,,,,,,,,AMP,right,1.000497437766171,,,right,0,1.000497437766171,0,,,,,,,,,,,,,,,,,,,,1041,2019_Mar_08_1459,mf_amp_cond1,3.0.4,59.99261150617951,
voter,ablow,&&&&&,right,fairness.vice,,,,,0,188,188,188,,,,,,,,,,,,,,,,,,,,,,,AMP,right,0.7004350255156169,,,right,1,0.7004350255156169,1,,,,,,,,,,,,,,,,,,,,1041,2019_Mar_08_1459,mf_amp_cond1,3.0.4,59.99261150617951,
dormandi,cromiscuity,&&&&&&&&&&&,None,nonword,,,,,0,189,189,189,,,,,,,,,,,,,,,,,,,,,,,AMP,right,0.9671408842550591,,,right,0,0.9671408842550591,0,,,,,,,,,,,,,,,,,,,,1041,2019_Mar_08_1459,mf_amp_cond1,3.0.4,59.99261150617951,
care,unscothed,&&&&&&&&&,left,care.virtue,,,,,0,190,190,190,,,,,,,,,,,,,,,,,,,,,,,AMP,left,0.6504096565040527,,,left,1,0.6504096565040527,1,,,,,,,,,,,,,,,,,,,,1041,2019_Mar_08_1459,mf_amp_cond1,3.0.4,59.99261150617951,
freedom,sliptery,&&&&&&&&,left,sanctity.virtue,,,,,0,191,191,191,,,,,,,,,,,,,,,,,,,,,,,AMP,left,0.6504038835410029,,,left,1,0.6504038835410029,1,,,,,,,,,,,,,,,,,,,,1041,2019_Mar_08_1459,mf_amp_cond1,3.0.4,59.99261150617951,
attacks,lorthwhile,&&&&&&&&&&,right,care.vice,,,,,0,192,192,192,,,,,,,,,,,,,,,,,,,,,,,AMP,left,0.850380919946474,,,left,0,0.850380919946474,0,,,,,,,,,,,,,,,,,,,,1041,2019_Mar_08_1459,mf_amp_cond1,3.0.4,59.99261150617951,
betrayal,alar,&&&&,right,loyalty.vice,,,,,0,193,193,193,,,,,,,,,,,,,,,,,,,,,,,AMP,right,0.8837955238996074,,,right,1,0.8837955238996074,1,,,,,,,,,,,,,,,,,,,,1041,2019_Mar_08_1459,mf_amp_cond1,3.0.4,59.99261150617951,
promote,vicissifude,&&&&&&&&&&&,left,sanctity.virtue,,,,,0,194,194,194,,,,,,,,,,,,,,,,,,,,,,,AMP,right,0.8004604266025126,,,right,0,0.8004604266025126,0,,,,,,,,,,,,,,,,,,,,1041,2019_Mar_08_1459,mf_amp_cond1,3.0.4,59.99261150617951,
actively,pumber,&&&&&&,left,authority.virtue,,,,,0,195,195,195,,,,,,,,,,,,,,,,,,,,,,,AMP,right,0.41700518733705394,,,right,0,0.41700518733705394,0,,,,,,,,,,,,,,,,,,,,1041,2019_Mar_08_1459,mf_amp_cond1,3.0.4,59.99261150617951,
abuse,rivernoat,&&&&&&&&&,right,sanctity.vice,,,,,0,196,196,196,,,,,,,,,,,,,,,,,,,,,,,AMP,right,0.0835974468063796,,,right,1,0.0835974468063796,1,,,,,,,,,,,,,,,,,,,,1041,2019_Mar_08_1459,mf_amp_cond1,3.0.4,59.99261150617951,
harassment,uller,&&&&&,right,sanctity.vice,,,,,0,197,197,197,,,,,,,,,,,,,,,,,,,,,,,AMP,right,0.2336398781480966,,,right,1,0.2336398781480966,1,,,,,,,,,,,,,,,,,,,,1041,2019_Mar_08_1459,mf_amp_cond1,3.0.4,59.99261150617951,
ban,quarterbocks,&&&&&&&&&&&&,right,loyalty.vice,,,,,0,198,198,198,,,,,,,,,,,,,,,,,,,,,,,AMP,right,0.3169938979699509,,,right,1,0.3169938979699509,1,,,,,,,,,,,,,,,,,,,,1041,2019_Mar_08_1459,mf_amp_cond1,3.0.4,59.99261150617951,
elduringly,bluently,&&&&&&&&,None,nonword,,,,,0,199,199,199,,,,,,,,,,,,,,,,,,,,,,,AMP,right,0.4170077531016432,,,right,0,0.4170077531016432,0,,,,,,,,,,,,,,,,,,,,1041,2019_Mar_08_1459,mf_amp_cond1,3.0.4,59.99261150617951,
gazily,precificity,&&&&&&&&&&&,None,nonword,,,,,0,200,200,200,,,,,,,,,,,,,,,,,,,,,,,AMP,right,0.4503550057124812,,,right,0,0.4503550057124812,0,,,,,,,,,,,,,,,,,,,,1041,2019_Mar_08_1459,mf_amp_cond1,3.0.4,59.99261150617951,
love,hescribe,&&&&&&&&,left,loyalty.virtue,,,,,0,201,201,201,,,,,,,,,,,,,,,,,,,,,,,AMP,left,0.500366904452676,,,left,1,0.500366904452676,1,,,,,,,,,,,,,,,,,,,,1041,2019_Mar_08_1459,mf_amp_cond1,3.0.4,59.99261150617951,
shot,sfumatoy,&&&&&&&&,right,care.vice,,,,,0,202,202,202,,,,,,,,,,,,,,,,,,,,,,,AMP,right,0.4670568554283818,,,right,1,0.4670568554283818,1,,,,,,,,,,,,,,,,,,,,1041,2019_Mar_08_1459,mf_amp_cond1,3.0.4,59.99261150617951,
useful,viscs,&&&&&,left,authority.virtue,,,,,0,203,203,203,,,,,,,,,,,,,,,,,,,,,,,AMP,left,0.38369449687888846,,,left,1,0.38369449687888846,1,,,,,,,,,,,,,,,,,,,,1041,2019_Mar_08_1459,mf_amp_cond1,3.0.4,59.99261150617951,
compassion,presentkess,&&&&&&&&&&&,left,care.virtue,,,,,0,204,204,204,,,,,,,,,,,,,,,,,,,,,,,AMP,right,1.1838345235300949,,,right,0,1.1838345235300949,0,,,,,,,,,,,,,,,,,,,,1041,2019_Mar_08_1459,mf_amp_cond1,3.0.4,59.99261150617951,
peaceful,reviked,&&&&&&&,left,authority.virtue,,,,,0,205,205,205,,,,,,,,,,,,,,,,,,,,,,,AMP,left,0.8504546856856905,,,left,1,0.8504546856856905,1,,,,,,,,,,,,,,,,,,,,1041,2019_Mar_08_1459,mf_amp_cond1,3.0.4,59.99261150617951,
dumid,lursuer,&&&&&&&,None,nonword,,,,,0,206,206,206,,,,,,,,,,,,,,,,,,,,,,,AMP,left,0.8171334114595084,,,left,0,0.8171334114595084,0,,,,,,,,,,,,,,,,,,,,1041,2019_Mar_08_1459,mf_amp_cond1,3.0.4,59.99261150617951,
progress,tove,&&&&,left,authority.virtue,,,,,0,207,207,207,,,,,,,,,,,,,,,,,,,,,,,AMP,right,0.3169945394038223,,,right,0,0.3169945394038223,0,,,,,,,,,,,,,,,,,,,,1041,2019_Mar_08_1459,mf_amp_cond1,3.0.4,59.99261150617951,
good,sidearbs,&&&&&&&&,left,care.virtue,,,,,0,208,208,208,,,,,,,,,,,,,,,,,,,,,,,AMP,left,0.5503881040931446,,,left,1,0.5503881040931446,1,,,,,,,,,,,,,,,,,,,,1041,2019_Mar_08_1459,mf_amp_cond1,3.0.4,59.99261150617951,
powerful,ecgagement,&&&&&&&&&&,left,authority.virtue,,,,,0,209,209,209,,,,,,,,,,,,,,,,,,,,,,,AMP,left,0.5337273066106718,,,left,1,0.5337273066106718,1,,,,,,,,,,,,,,,,,,,,1041,2019_Mar_08_1459,mf_amp_cond1,3.0.4,59.99261150617951,
lies,strofe,&&&&&&,right,fairness.vice,,,,,0,210,210,210,,,,,,,,,,,,,,,,,,,,,,,AMP,right,0.9838343952433206,,,right,1,0.9838343952433206,1,,,,,,,,,,,,,,,,,,,,1041,2019_Mar_08_1459,mf_amp_cond1,3.0.4,59.99261150617951,
dignity,gandbrake,&&&&&&&&&,left,sanctity.virtue,,,,,0,211,211,211,,,,,,,,,,,,,,,,,,,,,,,AMP,right,0.8004443905665539,,,right,0,0.8004443905665539,0,,,,,,,,,,,,,,,,,,,,1041,2019_Mar_08_1459,mf_amp_cond1,3.0.4,59.99261150617951,
values,fontacts,&&&&&&&&,left,sanctity.virtue,,,,,0,212,212,212,,,,,,,,,,,,,,,,,,,,,,,AMP,right,0.5670687862439081,,,right,0,0.5670687862439081,0,,,,,,,,,,,,,,,,,,,,1041,2019_Mar_08_1459,mf_amp_cond1,3.0.4,59.99261150617951,
prosecution,chonograph,&&&&&&&&&&,right,authority.vice,,,,,0,213,213,213,,,,,,,,,,,,,,,,,,,,,,,AMP,left,1.1171980687504401,,,left,0,1.1171980687504401,0,,,,,,,,,,,,,,,,,,,,1041,2019_Mar_08_1459,mf_amp_cond1,3.0.4,59.99261150617951,
killed,egpeditious,&&&&&&&&&&&,right,care.vice,,,,,0,214,214,214,,,,,,,,,,,,,,,,,,,,,,,AMP,left,0.8838099563290598,,,left,0,0.8838099563290598,0,,,,,,,,,,,,,,,,,,,,1041,2019_Mar_08_1459,mf_amp_cond1,3.0.4,59.99261150617951,
men,focomotive,&&&&&&&&&&,right,loyalty.vice,,,,,0,215,215,215,,,,,,,,,,,,,,,,,,,,,,,AMP,right,0.4670555725460872,,,right,1,0.4670555725460872,1,,,,,,,,,,,,,,,,,,,,1041,2019_Mar_08_1459,mf_amp_cond1,3.0.4,59.99261150617951,
ugeasily,gikely,&&&&&&,None,nonword,,,,,0,216,216,216,,,,,,,,,,,,,,,,,,,,,,,AMP,left,1.1672375494672451,,,left,0,1.1672375494672451,0,,,,,,,,,,,,,,,,,,,,1041,2019_Mar_08_1459,mf_amp_cond1,3.0.4,59.99261150617951,
perfect,prones,&&&&&&,left,sanctity.virtue,,,,,0,217,217,217,,,,,,,,,,,,,,,,,,,,,,,AMP,left,0.7504571873141686,,,left,1,0.7504571873141686,1,,,,,,,,,,,,,,,,,,,,1041,2019_Mar_08_1459,mf_amp_cond1,3.0.4,59.99261150617951,
police,antral,&&&&&&,right,authority.vice,,,,,0,218,218,218,,,,,,,,,,,,,,,,,,,,,,,AMP,right,1.417351565673016,,,right,1,1.417351565673016,1,,,,,,,,,,,,,,,,,,,,1041,2019_Mar_08_1459,mf_amp_cond1,3.0.4,59.99261150617951,
great,squets,&&&&&&,left,loyalty.virtue,,,,,0,219,219,219,,,,,,,,,,,,,,,,,,,,,,,AMP,left,0.6504420493001817,,,left,1,0.6504420493001817,1,,,,,,,,,,,,,,,,,,,,1041,2019_Mar_08_1459,mf_amp_cond1,3.0.4,59.99261150617951,
war,allears,&&&&&&&,right,sanctity.vice,,,,,0,220,220,220,,,,,,,,,,,,,,,,,,,,,,,AMP,right,0.8671645534341224,,,right,1,0.8671645534341224,1,,,,,,,,,,,,,,,,,,,,1041,2019_Mar_08_1459,mf_amp_cond1,3.0.4,59.99261150617951,
groups,framo,&&&&&,right,loyalty.vice,,,,,0,221,221,221,,,,,,,,,,,,,,,,,,,,,,,AMP,right,0.4170144882373279,,,right,1,0.4170144882373279,1,,,,,,,,,,,,,,,,,,,,1041,2019_Mar_08_1459,mf_amp_cond1,3.0.4,59.99261150617951,
blunderints,slending,&&&&&&&&,None,nonword,,,,,0,222,222,222,,,,,,,,,,,,,,,,,,,,,,,AMP,right,0.3669955336517887,,,right,0,0.3669955336517887,0,,,,,,,,,,,,,,,,,,,,1041,2019_Mar_08_1459,mf_amp_cond1,3.0.4,59.99261150617951,
improve,atson,&&&&&,left,care.virtue,,,,,0,223,223,223,,,,,,,,,,,,,,,,,,,,,,,AMP,right,0.9838555627939058,,,right,0,0.9838555627939058,0,,,,,,,,,,,,,,,,,,,,1041,2019_Mar_08_1459,mf_amp_cond1,3.0.4,59.99261150617951,
trust,crilfully,&&&&&&&&&,left,authority.virtue,,,,,0,224,224,224,,,,,,,,,,,,,,,,,,,,,,,AMP,left,0.4003815934556769,,,left,1,0.4003815934556769,1,,,,,,,,,,,,,,,,,,,,1041,2019_Mar_08_1459,mf_amp_cond1,3.0.4,59.99261150617951,
pleasant,tabin,&&&&&,None,control,,,,,0,225,225,225,,,,,,,,,,,,,,,,,,,,,,,AMP,left,1.2672334442322608,,,left,0,1.2672334442322608,0,,,,,,,,,,,,,,,,,,,,1041,2019_Mar_08_1459,mf_amp_cond1,3.0.4,59.99261150617951,
slavery,gusinesslike,&&&&&&&&&&&&,right,loyalty.vice,,,,,0,226,226,226,,,,,,,,,,,,,,,,,,,,,,,AMP,left,1.183878782991087,,,left,0,1.183878782991087,0,,,,,,,,,,,,,,,,,,,,1041,2019_Mar_08_1459,mf_amp_cond1,3.0.4,59.99261150617951,
increase,gowlands,&&&&&&&&,left,care.virtue,,,,,0,227,227,227,,,,,,,,,,,,,,,,,,,,,,,AMP,left,1.3339128755906131,,,left,1,1.3339128755906131,1,,,,,,,,,,,,,,,,,,,,1041,2019_Mar_08_1459,mf_amp_cond1,3.0.4,59.99261150617951,
win,nomparisons,&&&&&&&&&&&,left,fairness.virtue,,,,,0,228,228,228,,,,,,,,,,,,,,,,,,,,,,,AMP,left,1.1505478871258674,,,left,1,1.1505478871258674,1,,,,,,,,,,,,,,,,,,,,1041,2019_Mar_08_1459,mf_amp_cond1,3.0.4,59.99261150617951,
safety,smapper,&&&&&&&,left,care.virtue,,,,,0,229,229,229,,,,,,,,,,,,,,,,,,,,,,,AMP,right,0.5503874626447214,,,right,0,0.5503874626447214,0,,,,,,,,,,,,,,,,,,,,1041,2019_Mar_08_1459,mf_amp_cond1,3.0.4,59.99261150617951,
praise,ilportation,&&&&&&&&&&&,left,authority.virtue,,,,,0,230,230,230,,,,,,,,,,,,,,,,,,,,,,,AMP,right,0.48370450336369686,,,right,0,0.48370450336369686,0,,,,,,,,,,,,,,,,,,,,1041,2019_Mar_08_1459,mf_amp_cond1,3.0.4,59.99261150617951,
terrorist,unreflectuve,&&&&&&&&&&&&,right,loyalty.vice,,,,,0,231,231,231,,,,,,,,,,,,,,,,,,,,,,,AMP,left,0.517049831643817,,,left,0,0.517049831643817,0,,,,,,,,,,,,,,,,,,,,1041,2019_Mar_08_1459,mf_amp_cond1,3.0.4,59.99261150617951,
unpleasant,ronviolence,&&&&&&&&&&&,None,control,,,,,0,232,232,232,,,,,,,,,,,,,,,,,,,,,,,AMP,left,0.850457892898703,,,left,0,0.850457892898703,0,,,,,,,,,,,,,,,,,,,,1041,2019_Mar_08_1459,mf_amp_cond1,3.0.4,59.99261150617951,
credit,edancipation,&&&&&&&&&&&&,left,fairness.virtue,,,,,0,233,233,233,,,,,,,,,,,,,,,,,,,,,,,AMP,left,0.48370963489287533,,,left,1,0.48370963489287533,1,,,,,,,,,,,,,,,,,,,,1041,2019_Mar_08_1459,mf_amp_cond1,3.0.4,59.99261150617951,
fighters,chreams,&&&&&&&,right,authority.vice,,,,,0,234,234,234,,,,,,,,,,,,,,,,,,,,,,,AMP,right,0.4170135260792449,,,right,1,0.4170135260792449,1,,,,,,,,,,,,,,,,,,,,1041,2019_Mar_08_1459,mf_amp_cond1,3.0.4,59.99261150617951,
protesters,idexpressible,&&&&&&&&&&&&&,right,authority.vice,,,,,0,235,235,235,,,,,,,,,,,,,,,,,,,,,,,AMP,left,0.5003739603125723,,,left,0,0.5003739603125723,0,,,,,,,,,,,,,,,,,,,,1041,2019_Mar_08_1459,mf_amp_cond1,3.0.4,59.99261150617951,
victims,fornicalion,&&&&&&&&&&&,right,care.vice,,,,,0,236,236,236,,,,,,,,,,,,,,,,,,,,,,,AMP,right,0.4003424655238632,,,right,1,0.4003424655238632,1,,,,,,,,,,,,,,,,,,,,1041,2019_Mar_08_1459,mf_amp_cond1,3.0.4,59.99261150617951,
energy,Lacedonia,&&&&&&&&&,left,sanctity.virtue,,,,,0,237,237,237,,,,,,,,,,,,,,,,,,,,,,,AMP,right,0.46704178156505805,,,right,0,0.46704178156505805,0,,,,,,,,,,,,,,,,,,,,1041,2019_Mar_08_1459,mf_amp_cond1,3.0.4,59.99261150617951,
forced,coom,&&&&,right,fairness.vice,,,,,0,238,238,238,,,,,,,,,,,,,,,,,,,,,,,AMP,right,0.30031514013535343,,,right,1,0.30031514013535343,1,,,,,,,,,,,,,,,,,,,,1041,2019_Mar_08_1459,mf_amp_cond1,3.0.4,59.99261150617951,
sexual,fangsters,&&&&&&&&&,right,sanctity.vice,,,,,0,239,239,239,,,,,,,,,,,,,,,,,,,,,,,AMP,right,0.3836515203147428,,,right,1,0.3836515203147428,1,,,,,,,,,,,,,,,,,,,,1041,2019_Mar_08_1459,mf_amp_cond1,3.0.4,59.99261150617951,
free,Cunday,&&&&&&,left,fairness.virtue,,,,,0,240,240,240,,,,,,,,,,,,,,,,,,,,,,,AMP,right,0.38369000679813325,,,right,0,0.38369000679813325,0,,,,,,,,,,,,,,,,,,,,1041,2019_Mar_08_1459,mf_amp_cond1,3.0.4,59.99261150617951,
prison,baladroit,&&&&&&&&&,right,fairness.vice,,,,,0,241,241,241,,,,,,,,,,,,,,,,,,,,,,,AMP,right,0.8504732874862384,,,right,1,0.8504732874862384,1,,,,,,,,,,,,,,,,,,,,1041,2019_Mar_08_1459,mf_amp_cond1,3.0.4,59.99261150617951,
serial,sickyay,&&&&&&&,right,sanctity.vice,,,,,0,242,242,242,,,,,,,,,,,,,,,,,,,,,,,AMP,right,0.3503382640919881,,,right,1,0.3503382640919881,1,,,,,,,,,,,,,,,,,,,,1041,2019_Mar_08_1459,mf_amp_cond1,3.0.4,59.99261150617951,
arrests,hatigue,&&&&&&&,right,authority.vice,,,,,0,243,243,243,,,,,,,,,,,,,,,,,,,,,,,AMP,right,0.45036975885159336,,,right,1,0.45036975885159336,1,,,,,,,,,,,,,,,,,,,,1041,2019_Mar_08_1459,mf_amp_cond1,3.0.4,59.99261150617951,
sharing,nomaric,&&&&&&&,left,loyalty.virtue,,,,,0,244,244,244,,,,,,,,,,,,,,,,,,,,,,,AMP,right,0.35036616679280996,,,right,0,0.35036616679280996,0,,,,,,,,,,,,,,,,,,,,1041,2019_Mar_08_1459,mf_amp_cond1,3.0.4,59.99261150617951,
erdest,lenon,&&&&&,None,nonword,,,,,0,245,245,245,,,,,,,,,,,,,,,,,,,,,,,AMP,right,0.45036077869008295,,,right,0,0.45036077869008295,0,,,,,,,,,,,,,,,,,,,,1041,2019_Mar_08_1459,mf_amp_cond1,3.0.4,59.99261150617951,
fair,squets,&&&&&&,left,fairness.virtue,,,,,0,246,246,246,,,,,,,,,,,,,,,,,,,,,,,AMP,left,0.36699585436144844,,,left,1,0.36699585436144844,1,,,,,,,,,,,,,,,,,,,,1041,2019_Mar_08_1459,mf_amp_cond1,3.0.4,59.99261150617951,
safety,bluently,&&&&&&&&,left,care.virtue,,,,,0,247,247,247,,,,,,,,,,,,,,,,,,,,,,,AMP,right,0.46705172389920335,,,right,0,0.46705172389920335,0,,,,,,,,,,,,,,,,,,,,1041,2019_Mar_08_1459,mf_amp_cond1,3.0.4,59.99261150617951,
army,taxpayung,&&&&&&&&&,right,loyalty.vice,,,,,0,248,248,248,,,,,,,,,,,,,,,,,,,,,,,AMP,left,0.6504090150701813,,,left,0,0.6504090150701813,0,,,,,,,,,,,,,,,,,,,,1041,2019_Mar_08_1459,mf_amp_cond1,3.0.4,59.99261150617951,
ban,laming,&&&&&&,right,loyalty.vice,,,,,0,249,249,249,,,,,,,,,,,,,,,,,,,,,,,AMP,right,0.733760789851658,,,right,1,0.733760789851658,1,,,,,,,,,,,,,,,,,,,,1041,2019_Mar_08_1459,mf_amp_cond1,3.0.4,59.99261150617951,
fighters,aubos,&&&&&,right,authority.vice,,,,,0,250,250,250,,,,,,,,,,,,,,,,,,,,,,,AMP,left,0.46703023560985457,,,left,0,0.46703023560985457,0,,,,,,,,,,,,,,,,,,,,1041,2019_Mar_08_1459,mf_amp_cond1,3.0.4,59.99261150617951,
promote,sonvoy,&&&&&&,left,sanctity.virtue,,,,,0,251,251,251,,,,,,,,,,,,,,,,,,,,,,,AMP,left,0.8337910017435206,,,left,1,0.8337910017435206,1,,,,,,,,,,,,,,,,,,,,1041,2019_Mar_08_1459,mf_amp_cond1,3.0.4,59.99261150617951,
actively,baladroit,&&&&&&&&&,left,authority.virtue,,,,,0,252,252,252,,,,,,,,,,,,,,,,,,,,,,,AMP,right,0.8003023112978553,,,right,0,0.8003023112978553,0,,,,,,,,,,,,,,,,,,,,1041,2019_Mar_08_1459,mf_amp_cond1,3.0.4,59.99261150617951,
party,smapper,&&&&&&&,left,loyalty.virtue,,,,,0,253,253,253,,,,,,,,,,,,,,,,,,,,,,,AMP,right,0.3336713729222538,,,right,0,0.3336713729222538,0,,,,,,,,,,,,,,,,,,,,1041,2019_Mar_08_1459,mf_amp_cond1,3.0.4,59.99261150617951,
freedom,presentkess,&&&&&&&&&&&,left,sanctity.virtue,,,,,0,254,254,254,,,,,,,,,,,,,,,,,,,,,,,AMP,left,0.41702795850869734,,,left,1,0.41702795850869734,1,,,,,,,,,,,,,,,,,,,,1041,2019_Mar_08_1459,mf_amp_cond1,3.0.4,59.99261150617951,
great,fontacts,&&&&&&&&,left,loyalty.virtue,,,,,0,255,255,255,,,,,,,,,,,,,,,,,,,,,,,AMP,right,0.5503611635358538,,,right,0,0.5503611635358538,0,,,,,,,,,,,,,,,,,,,,1041,2019_Mar_08_1459,mf_amp_cond1,3.0.4,59.99261150617951,
good,baklara,&&&&&&&,left,care.virtue,,,,,0,256,256,256,,,,,,,,,,,,,,,,,,,,,,,AMP,right,0.33364603598602116,,,right,0,0.33364603598602116,0,,,,,,,,,,,,,,,,,,,,1041,2019_Mar_08_1459,mf_amp_cond1,3.0.4,59.99261150617951,
unpleasant,clamorek,&&&&&&&&,None,control,,,,,0,257,257,257,,,,,,,,,,,,,,,,,,,,,,,AMP,right,0.6837331757997163,,,right,0,0.6837331757997163,0,,,,,,,,,,,,,,,,,,,,1041,2019_Mar_08_1459,mf_amp_cond1,3.0.4,59.99261150617951,
praised,nomaric,&&&&&&&,left,loyalty.virtue,,,,,0,258,258,258,,,,,,,,,,,,,,,,,,,,,,,AMP,right,0.500366904452676,,,right,0,0.500366904452676,0,,,,,,,,,,,,,,,,,,,,1041,2019_Mar_08_1459,mf_amp_cond1,3.0.4,59.99261150617951,
respect,chonograph,&&&&&&&&&&,left,sanctity.virtue,,,,,0,259,259,259,,,,,,,,,,,,,,,,,,,,,,,AMP,right,0.48370642769441474,,,right,0,0.48370642769441474,0,,,,,,,,,,,,,,,,,,,,1041,2019_Mar_08_1459,mf_amp_cond1,3.0.4,59.99261150617951,
credit,egpeditious,&&&&&&&&&&&,left,fairness.virtue,,,,,0,260,260,260,,,,,,,,,,,,,,,,,,,,,,,AMP,left,0.383681026607519,,,left,1,0.383681026607519,1,,,,,,,,,,,,,,,,,,,,1041,2019_Mar_08_1459,mf_amp_cond1,3.0.4,59.99261150617951,
praise,gikely,&&&&&&,left,authority.virtue,,,,,0,261,261,261,,,,,,,,,,,,,,,,,,,,,,,AMP,left,0.7671045145398239,,,left,1,0.7671045145398239,1,,,,,,,,,,,,,,,,,,,,1041,2019_Mar_08_1459,mf_amp_cond1,3.0.4,59.99261150617951,
trust,ronviolence,&&&&&&&&&&&,left,authority.virtue,,,,,0,262,262,262,,,,,,,,,,,,,,,,,,,,,,,AMP,right,1.0171662532520713,,,right,0,1.0171662532520713,0,,,,,,,,,,,,,,,,,,,,1041,2019_Mar_08_1459,mf_amp_cond1,3.0.4,59.99261150617951,
arrests,Phintoism,&&&&&&&&&,right,authority.vice,,,,,0,263,263,263,,,,,,,,,,,,,,,,,,,,,,,AMP,left,0.3336649585107807,,,left,0,0.3336649585107807,0,,,,,,,,,,,,,,,,,,,,1041,2019_Mar_08_1459,mf_amp_cond1,3.0.4,59.99261150617951,
fraud,antral,&&&&&&,right,fairness.vice,,,,,0,264,264,264,,,,,,,,,,,,,,,,,,,,,,,AMP,left,0.8004437491181307,,,left,0,0.8004437491181307,0,,,,,,,,,,,,,,,,,,,,1041,2019_Mar_08_1459,mf_amp_cond1,3.0.4,59.99261150617951,
ensure,coom,&&&&,left,fairness.virtue,,,,,0,265,265,265,,,,,,,,,,,,,,,,,,,,,,,AMP,right,0.2836556255497271,,,right,0,0.2836556255497271,0,,,,,,,,,,,,,,,,,,,,1041,2019_Mar_08_1459,mf_amp_cond1,3.0.4,59.99261150617951,
prosecution,ilportation,&&&&&&&&&&&,right,authority.vice,,,,,0,266,266,266,,,,,,,,,,,,,,,,,,,,,,,AMP,left,0.317008651123615,,,left,0,0.317008651123615,0,,,,,,,,,,,,,,,,,,,,1041,2019_Mar_08_1459,mf_amp_cond1,3.0.4,59.99261150617951,
care,precificity,&&&&&&&&&&&,left,care.virtue,,,,,0,267,267,267,,,,,,,,,,,,,,,,,,,,,,,AMP,left,0.7671102875028737,,,left,1,0.7671102875028737,1,,,,,,,,,,,,,,,,,,,,1041,2019_Mar_08_1459,mf_amp_cond1,3.0.4,59.99261150617951,
harassment,uller,&&&&&,right,sanctity.vice,,,,,0,268,268,268,,,,,,,,,,,,,,,,,,,,,,,AMP,right,0.43368009651021566,,,right,1,0.43368009651021566,1,,,,,,,,,,,,,,,,,,,,1041,2019_Mar_08_1459,mf_amp_cond1,3.0.4,59.99261150617951,
protesters,framo,&&&&&,right,authority.vice,,,,,0,269,269,269,,,,,,,,,,,,,,,,,,,,,,,AMP,left,0.5003778089449042,,,left,0,0.5003778089449042,0,,,,,,,,,,,,,,,,,,,,1041,2019_Mar_08_1459,mf_amp_cond1,3.0.4,59.99261150617951,
serial,halaise,&&&&&&&,right,sanctity.vice,,,,,0,270,270,270,,,,,,,,,,,,,,,,,,,,,,,AMP,left,0.8504521199356532,,,left,0,0.8504521199356532,0,,,,,,,,,,,,,,,,,,,,1041,2019_Mar_08_1459,mf_amp_cond1,3.0.4,59.99261150617951,
threatened,unreflectuve,&&&&&&&&&&&&,right,fairness.vice,,,,,0,271,271,271,,,,,,,,,,,,,,,,,,,,,,,AMP,left,0.467019651827286,,,left,0,0.467019651827286,0,,,,,,,,,,,,,,,,,,,,1041,2019_Mar_08_1459,mf_amp_cond1,3.0.4,59.99261150617951,
violations,rorroborated,&&&&&&&&&&&&,right,sanctity.vice,,,,,0,272,272,272,,,,,,,,,,,,,,,,,,,,,,,AMP,left,0.833782342277118,,,left,0,0.833782342277118,0,,,,,,,,,,,,,,,,,,,,1041,2019_Mar_08_1459,mf_amp_cond1,3.0.4,59.99261150617951,
peaceful,crinking,&&&&&&&&,left,authority.virtue,,,,,0,273,273,273,,,,,,,,,,,,,,,,,,,,,,,AMP,right,1.934054056822788,,,right,0,1.934054056822788,0,,,,,,,,,,,,,,,,,,,,1041,2019_Mar_08_1459,mf_amp_cond1,3.0.4,59.99261150617951,
terrorist,tove,&&&&,right,loyalty.vice,,,,,0,274,274,274,,,,,,,,,,,,,,,,,,,,,,,AMP,right,0.3668518507911358,,,right,1,0.3668518507911358,1,,,,,,,,,,,,,,,,,,,,1041,2019_Mar_08_1459,mf_amp_cond1,3.0.4,59.99261150617951,
free,disregord,&&&&&&&&&,left,fairness.virtue,,,,,0,275,275,275,,,,,,,,,,,,,,,,,,,,,,,AMP,right,0.5503884248028044,,,right,0,0.5503884248028044,0,,,,,,,,,,,,,,,,,,,,1041,2019_Mar_08_1459,mf_amp_cond1,3.0.4,59.99261150617951,
men,sfumatoy,&&&&&&&&,right,loyalty.vice,,,,,0,276,276,276,,,,,,,,,,,,,,,,,,,,,,,AMP,right,0.2669787920167437,,,right,1,0.2669787920167437,1,,,,,,,,,,,,,,,,,,,,1041,2019_Mar_08_1459,mf_amp_cond1,3.0.4,59.99261150617951,
safe,ablow,&&&&&,left,care.virtue,,,,,0,277,277,277,,,,,,,,,,,,,,,,,,,,,,,AMP,right,0.23349459169548936,,,right,0,0.23349459169548936,0,,,,,,,,,,,,,,,,,,,,1041,2019_Mar_08_1459,mf_amp_cond1,3.0.4,59.99261150617951,
progress,ning,&&&&,left,authority.virtue,,,,,0,278,278,278,,,,,,,,,,,,,,,,,,,,,,,AMP,right,0.20029038049688097,,,right,0,0.20029038049688097,0,,,,,,,,,,,,,,,,,,,,1041,2019_Mar_08_1459,mf_amp_cond1,3.0.4,59.99261150617951,
erdest,Lacedonia,&&&&&&&&&,None,nonword,,,,,0,279,279,279,,,,,,,,,,,,,,,,,,,,,,,AMP,right,0.23363602950121276,,,right,0,0.23363602950121276,0,,,,,,,,,,,,,,,,,,,,1041,2019_Mar_08_1459,mf_amp_cond1,3.0.4,59.99261150617951,
refused,totalestic,&&&&&&&&&&,right,authority.vice,,,,,0,280,280,280,,,,,,,,,,,,,,,,,,,,,,,AMP,right,0.3336662413930753,,,right,1,0.3336662413930753,1,,,,,,,,,,,,,,,,,,,,1041,2019_Mar_08_1459,mf_amp_cond1,3.0.4,59.99261150617951,
victims,gowlands,&&&&&&&&,right,care.vice,,,,,0,281,281,281,,,,,,,,,,,,,,,,,,,,,,,AMP,left,0.33367714589985553,,,left,0,0.33367714589985553,0,,,,,,,,,,,,,,,,,,,,1041,2019_Mar_08_1459,mf_amp_cond1,3.0.4,59.99261150617951,
abuse,frojecting,&&&&&&&&&&,right,sanctity.vice,,,,,0,282,282,282,,,,,,,,,,,,,,,,,,,,,,,AMP,right,0.41701737472612876,,,right,1,0.41701737472612876,1,,,,,,,,,,,,,,,,,,,,1041,2019_Mar_08_1459,mf_amp_cond1,3.0.4,59.99261150617951,
gedious,pumber,&&&&&&,None,nonword,,,,,0,283,283,283,,,,,,,,,,,,,,,,,,,,,,,AMP,right,0.5170578496763483,,,right,0,0.5170578496763483,0,,,,,,,,,,,,,,,,,,,,1041,2019_Mar_08_1459,mf_amp_cond1,3.0.4,59.99261150617951,
sharing,gusinesslike,&&&&&&&&&&&&,left,loyalty.virtue,,,,,0,284,284,284,,,,,,,,,,,,,,,,,,,,,,,AMP,left,0.583729583726381,,,left,1,0.583729583726381,1,,,,,,,,,,,,,,,,,,,,1041,2019_Mar_08_1459,mf_amp_cond1,3.0.4,59.99261150617951,
compassion,thadowed,&&&&&&&&,left,care.virtue,,,,,0,285,285,285,,,,,,,,,,,,,,,,,,,,,,,AMP,right,0.35033666048548184,,,right,0,0.35033666048548184,0,,,,,,,,,,,,,,,,,,,,1041,2019_Mar_08_1459,mf_amp_cond1,3.0.4,59.99261150617951,
accused,leact,&&&&&,right,fairness.vice,,,,,0,286,286,286,,,,,,,,,,,,,,,,,,,,,,,AMP,right,0.5837497891334351,,,right,1,0.5837497891334351,1,,,,,,,,,,,,,,,,,,,,1041,2019_Mar_08_1459,mf_amp_cond1,3.0.4,59.99261150617951,
improve,glacenta,&&&&&&&&,left,care.virtue,,,,,0,287,287,287,,,,,,,,,,,,,,,,,,,,,,,AMP,left,0.3503228695044527,,,left,1,0.3503228695044527,1,,,,,,,,,,,,,,,,,,,,1041,2019_Mar_08_1459,mf_amp_cond1,3.0.4,59.99261150617951,
penalty,cromiscuity,&&&&&&&&&&&,right,authority.vice,,,,,0,288,288,288,,,,,,,,,,,,,,,,,,,,,,,AMP,left,0.6837463253468741,,,left,0,0.6837463253468741,0,,,,,,,,,,,,,,,,,,,,1041,2019_Mar_08_1459,mf_amp_cond1,3.0.4,59.99261150617951,
gazily,strofe,&&&&&&,None,nonword,,,,,0,289,289,289,,,,,,,,,,,,,,,,,,,,,,,AMP,right,1.1838681991939666,,,right,0,1.1838681991939666,0,,,,,,,,,,,,,,,,,,,,1041,2019_Mar_08_1459,mf_amp_cond1,3.0.4,59.99261150617951,
neputized,prones,&&&&&&,None,nonword,,,,,0,290,290,290,,,,,,,,,,,,,,,,,,,,,,,AMP,left,0.8171260348899523,,,left,0,0.8171260348899523,0,,,,,,,,,,,,,,,,,,,,1041,2019_Mar_08_1459,mf_amp_cond1,3.0.4,59.99261150617951,
blunderints,reviked,&&&&&&&,None,nonword,,,,,0,291,291,291,,,,,,,,,,,,,,,,,,,,,,,AMP,right,1.0838578719849465,,,right,0,1.0838578719849465,0,,,,,,,,,,,,,,,,,,,,1041,2019_Mar_08_1459,mf_amp_cond1,3.0.4,59.99261150617951,
powerful,supervuned,&&&&&&&&&&,left,authority.virtue,,,,,0,292,292,292,,,,,,,,,,,,,,,,,,,,,,,AMP,right,0.5337090255343355,,,right,0,0.5337090255343355,0,,,,,,,,,,,,,,,,,,,,1041,2019_Mar_08_1459,mf_amp_cond1,3.0.4,59.99261150617951,
forced,sickyay,&&&&&&&,right,fairness.vice,,,,,0,293,293,293,,,,,,,,,,,,,,,,,,,,,,,AMP,right,0.26698135779588483,,,right,1,0.26698135779588483,1,,,,,,,,,,,,,,,,,,,,1041,2019_Mar_08_1459,mf_amp_cond1,3.0.4,59.99261150617951,
groups,papert,&&&&&&,right,loyalty.vice,,,,,0,294,294,294,,,,,,,,,,,,,,,,,,,,,,,AMP,right,0.2169684968976071,,,right,1,0.2169684968976071,1,,,,,,,,,,,,,,,,,,,,1041,2019_Mar_08_1459,mf_amp_cond1,3.0.4,59.99261150617951,
pleasant,rivernoat,&&&&&&&&&,None,control,,,,,0,295,295,295,,,,,,,,,,,,,,,,,,,,,,,AMP,right,0.26698039562324993,,,right,0,0.26698039562324993,0,,,,,,,,,,,,,,,,,,,,1041,2019_Mar_08_1459,mf_amp_cond1,3.0.4,59.99261150617951,
civilians,ecgagement,&&&&&&&&&&,right,care.vice,,,,,0,296,296,296,,,,,,,,,,,,,,,,,,,,,,,AMP,right,0.4170048666128423,,,right,1,0.4170048666128423,1,,,,,,,,,,,,,,,,,,,,1041,2019_Mar_08_1459,mf_amp_cond1,3.0.4,59.99261150617951,
lies,hatigue,&&&&&&&,right,fairness.vice,,,,,0,297,297,297,,,,,,,,,,,,,,,,,,,,,,,AMP,right,0.3670093246328179,,,right,1,0.3670093246328179,1,,,,,,,,,,,,,,,,,,,,1041,2019_Mar_08_1459,mf_amp_cond1,3.0.4,59.99261150617951,
war,lorthwhile,&&&&&&&&&&,right,sanctity.vice,,,,,0,298,298,298,,,,,,,,,,,,,,,,,,,,,,,AMP,right,0.45031908499368,,,right,1,0.45031908499368,1,,,,,,,,,,,,,,,,,,,,1041,2019_Mar_08_1459,mf_amp_cond1,3.0.4,59.99261150617951,
killed,alar,&&&&,right,care.vice,,,,,0,299,299,299,,,,,,,,,,,,,,,,,,,,,,,AMP,right,0.38367268787987996,,,right,1,0.38367268787987996,1,,,,,,,,,,,,,,,,,,,,1041,2019_Mar_08_1459,mf_amp_cond1,3.0.4,59.99261150617951,
hope,lachelor,&&&&&&&&,left,loyalty.virtue,,,,,0,300,300,300,,,,,,,,,,,,,,,,,,,,,,,AMP,right,0.31702019706426654,,,right,0,0.31702019706426654,0,,,,,,,,,,,,,,,,,,,,1041,2019_Mar_08_1459,mf_amp_cond1,3.0.4,59.99261150617951,
victim,idexpressible,&&&&&&&&&&&&&,right,care.vice,,,,,0,301,301,301,,,,,,,,,,,,,,,,,,,,,,,AMP,right,0.5503948392288294,,,right,1,0.5503948392288294,1,,,,,,,,,,,,,,,,,,,,1041,2019_Mar_08_1459,mf_amp_cond1,3.0.4,59.99261150617951,
attacks,lenon,&&&&&,right,care.vice,,,,,0,302,302,302,,,,,,,,,,,,,,,,,,,,,,,AMP,right,0.33365341255557723,,,right,1,0.33365341255557723,1,,,,,,,,,,,,,,,,,,,,1041,2019_Mar_08_1459,mf_amp_cond1,3.0.4,59.99261150617951,
dormandi,hescribe,&&&&&&&&,None,nonword,,,,,0,303,303,303,,,,,,,,,,,,,,,,,,,,,,,AMP,left,0.21696496896038298,,,left,0,0.21696496896038298,0,,,,,,,,,,,,,,,,,,,,1041,2019_Mar_08_1459,mf_amp_cond1,3.0.4,59.99261150617951,
lempestuous,nomparisons,&&&&&&&&&&&,None,nonword,,,,,0,304,304,304,,,,,,,,,,,,,,,,,,,,,,,AMP,left,0.5503948392142775,,,left,0,0.5503948392142775,0,,,,,,,,,,,,,,,,,,,,1041,2019_Mar_08_1459,mf_amp_cond1,3.0.4,59.99261150617951,
shot,focomotive,&&&&&&&&&&,right,care.vice,,,,,0,305,305,305,,,,,,,,,,,,,,,,,,,,,,,AMP,right,0.4002789628430037,,,right,1,0.4002789628430037,1,,,,,,,,,,,,,,,,,,,,1041,2019_Mar_08_1459,mf_amp_cond1,3.0.4,59.99261150617951,
voter,allears,&&&&&&&,right,fairness.vice,,,,,0,306,306,306,,,,,,,,,,,,,,,,,,,,,,,AMP,right,0.41701256390661,,,right,1,0.41701256390661,1,,,,,,,,,,,,,,,,,,,,1041,2019_Mar_08_1459,mf_amp_cond1,3.0.4,59.99261150617951,
betrayal,sliptery,&&&&&&&&,right,loyalty.vice,,,,,0,307,307,307,,,,,,,,,,,,,,,,,,,,,,,AMP,left,0.45036206157237757,,,left,0,0.45036206157237757,0,,,,,,,,,,,,,,,,,,,,1041,2019_Mar_08_1459,mf_amp_cond1,3.0.4,59.99261150617951,
energy,saned,&&&&&,left,sanctity.virtue,,,,,0,308,308,308,,,,,,,,,,,,,,,,,,,,,,,AMP,right,0.5170463037211448,,,right,0,0.5170463037211448,0,,,,,,,,,,,,,,,,,,,,1041,2019_Mar_08_1459,mf_amp_cond1,3.0.4,59.99261150617951,
perfect,gandbrake,&&&&&&&&&,left,sanctity.virtue,,,,,0,309,309,309,,,,,,,,,,,,,,,,,,,,,,,AMP,right,0.4170904990314739,,,right,0,0.4170904990314739,0,,,,,,,,,,,,,,,,,,,,1041,2019_Mar_08_1459,mf_amp_cond1,3.0.4,59.99261150617951,
sexual,unscothed,&&&&&&&&&,right,sanctity.vice,,,,,0,310,310,310,,,,,,,,,,,,,,,,,,,,,,,AMP,left,0.5837558828206966,,,left,0,0.5837558828206966,0,,,,,,,,,,,,,,,,,,,,1041,2019_Mar_08_1459,mf_amp_cond1,3.0.4,59.99261150617951,
interests,quarterbocks,&&&&&&&&&&&&,left,fairness.virtue,,,,,0,311,311,311,,,,,,,,,,,,,,,,,,,,,,,AMP,right,0.26697590554249473,,,right,0,0.26697590554249473,0,,,,,,,,,,,,,,,,,,,,1041,2019_Mar_08_1459,mf_amp_cond1,3.0.4,59.99261150617951,
useful,atson,&&&&&,left,authority.virtue,,,,,0,312,312,312,,,,,,,,,,,,,,,,,,,,,,,AMP,right,0.46705813832522836,,,right,0,0.46705813832522836,0,,,,,,,,,,,,,,,,,,,,1041,2019_Mar_08_1459,mf_amp_cond1,3.0.4,59.99261150617951,
dumid,fangsters,&&&&&&&&&,None,nonword,,,,,0,313,313,313,,,,,,,,,,,,,,,,,,,,,,,AMP,right,0.3336704107496189,,,right,0,0.3336704107496189,0,,,,,,,,,,,,,,,,,,,,1041,2019_Mar_08_1459,mf_amp_cond1,3.0.4,59.99261150617951,
prison,counpy's,&&&&&&&&,right,fairness.vice,,,,,0,314,314,314,,,,,,,,,,,,,,,,,,,,,,,AMP,left,0.4336999812076101,,,left,0,0.4336999812076101,0,,,,,,,,,,,,,,,,,,,,1041,2019_Mar_08_1459,mf_amp_cond1,3.0.4,59.99261150617951,
ugeasily,Cunday,&&&&&&,None,nonword,,,,,0,315,315,315,,,,,,,,,,,,,,,,,,,,,,,AMP,right,0.38366948066686746,,,right,0,0.38366948066686746,0,,,,,,,,,,,,,,,,,,,,1041,2019_Mar_08_1459,mf_amp_cond1,3.0.4,59.99261150617951,
dignity,edancipation,&&&&&&&&&&&&,left,sanctity.virtue,,,,,0,316,316,316,,,,,,,,,,,,,,,,,,,,,,,AMP,right,0.6337305779597955,,,right,0,0.6337305779597955,0,,,,,,,,,,,,,,,,,,,,1041,2019_Mar_08_1459,mf_amp_cond1,3.0.4,59.99261150617951,
values,pescinded,&&&&&&&&&,left,sanctity.virtue,,,,,0,317,317,317,,,,,,,,,,,,,,,,,,,,,,,AMP,right,0.40035497363714967,,,right,0,0.40035497363714967,0,,,,,,,,,,,,,,,,,,,,1041,2019_Mar_08_1459,mf_amp_cond1,3.0.4,59.99261150617951,
racist,sidearbs,&&&&&&&&,right,sanctity.vice,,,,,0,318,318,318,,,,,,,,,,,,,,,,,,,,,,,AMP,left,0.3003279689582996,,,left,0,0.3003279689582996,0,,,,,,,,,,,,,,,,,,,,1041,2019_Mar_08_1459,mf_amp_cond1,3.0.4,59.99261150617951,
increase,crilfully,&&&&&&&&&,left,care.virtue,,,,,0,319,319,319,,,,,,,,,,,,,,,,,,,,,,,AMP,left,0.5003797332756221,,,left,1,0.5003797332756221,1,,,,,,,,,,,,,,,,,,,,1041,2019_Mar_08_1459,mf_amp_cond1,3.0.4,59.99261150617951,
support,tabin,&&&&&,left,loyalty.virtue,,,,,0,320,320,320,,,,,,,,,,,,,,,,,,,,,,,AMP,left,0.6004137938143685,,,left,1,0.6004137938143685,1,,,,,,,,,,,,,,,,,,,,1041,2019_Mar_08_1459,mf_amp_cond1,3.0.4,59.99261150617951,
protect,chreams,&&&&&&&,left,fairness.virtue,,,,,0,321,321,321,,,,,,,,,,,,,,,,,,,,,,,AMP,right,0.36699842012603767,,,right,0,0.36699842012603767,0,,,,,,,,,,,,,,,,,,,,1041,2019_Mar_08_1459,mf_amp_cond1,3.0.4,59.99261150617951,
injured,lursuer,&&&&&&&,right,care.vice,,,,,0,322,322,322,,,,,,,,,,,,,,,,,,,,,,,AMP,left,0.48370642769441474,,,left,0,0.48370642769441474,0,,,,,,,,,,,,,,,,,,,,1041,2019_Mar_08_1459,mf_amp_cond1,3.0.4,59.99261150617951,
elduringly,viscs,&&&&&,None,nonword,,,,,0,323,323,323,,,,,,,,,,,,,,,,,,,,,,,AMP,left,0.36700258949713316,,,left,0,0.36700258949713316,0,,,,,,,,,,,,,,,,,,,,1041,2019_Mar_08_1459,mf_amp_cond1,3.0.4,59.99261150617951,
love,fornicalion,&&&&&&&&&&&,left,loyalty.virtue,,,,,0,324,324,324,,,,,,,,,,,,,,,,,,,,,,,AMP,right,0.10024284968676511,,,right,0,0.10024284968676511,0,,,,,,,,,,,,,,,,,,,,1041,2019_Mar_08_1459,mf_amp_cond1,3.0.4,59.99261150617951,
police,vicissifude,&&&&&&&&&&&,right,authority.vice,,,,,0,325,325,325,,,,,,,,,,,,,,,,,,,,,,,AMP,left,0.5837299044505926,,,left,0,0.5837299044505926,0,,,,,,,,,,,,,,,,,,,,1041,2019_Mar_08_1459,mf_amp_cond1,3.0.4,59.99261150617951,
slavery,gournful,&&&&&&&&,right,loyalty.vice,,,,,0,326,326,326,,,,,,,,,,,,,,,,,,,,,,,AMP,left,0.8838077112886822,,,left,0,0.8838077112886822,0,,,,,,,,,,,,,,,,,,,,1041,2019_Mar_08_1459,mf_amp_cond1,3.0.4,59.99261150617951,
win,slending,&&&&&&&&,left,fairness.virtue,,,,,0,327,327,327,,,,,,,,,,,,,,,,,,,,,,,AMP,right,0.7337697700277204,,,right,0,0.7337697700277204,0,,,,,,,,,,,,,,,,,,,,1041,2019_Mar_08_1459,mf_amp_cond1,3.0.4,59.99261150617951,
,,,,,,,,,,,,,,,,,,,,,,,,,,,,,,,,,,,,,,,,,,,,7,19.79,,,,,,,,,,,,,,,,,,1041,2019_Mar_08_1459,mf_amp_cond1,3.0.4,59.99261150617951,
,,,,,,,,,,,,,,,,,,,,,,,,,,,,,,,,,,,,,,,,,,,,,,1,7.204,,,,,,,,,,,,,,,,1041,2019_Mar_08_1459,mf_amp_cond1,3.0.4,59.99261150617951,
,,,,,,,,,,,,,,,,,,,,,,,,,,,,,,,,,,,,,,,,,,,,,,,,1,6.387,,,,,,,,,,,,,,1041,2019_Mar_08_1459,mf_amp_cond1,3.0.4,59.99261150617951,
,,,,,,,,,,,,,,,,,,,,,,,,,,,,,,,,,,,,,,,,,,,,,,,,,,right,1.3173046762967715,,,,,,,,,,,,1041,2019_Mar_08_1459,mf_amp_cond1,3.0.4,59.99261150617951,
keyboard,,&&&&&&&,,,,,,,,,,,0,0,0,0,,,,,,,,,,,,,,,,,,,LDT_prac,left,1.884077437367523,,,,,,0,,,,,,,,,left,1.884077437367523,,,,,,,,,,1041,2019_Mar_08_1459,mf_amp_cond1,3.0.4,59.99261150617951,
bisebell,,&&&&&&&,,,,,,,,,,,0,1,1,1,,,,,,,,,,,,,,,,,,,LDT_prac,left,1.1005247631692328,,,,,,0,,,,,,,,,left,1.1005247631692328,,,,,,,,,,1041,2019_Mar_08_1459,mf_amp_cond1,3.0.4,59.99261150617951,
,,,,,,,,,,,,,,,,,,,,,,,,,,,,,,,,,,,,,,,,,,,,,,,,,,,,,,right,4.434723721584305,,,,,,,,1041,2019_Mar_08_1459,mf_amp_cond1,3.0.4,59.99261150617951,
whereafter,,&&&&&&&&&&,left,neutral,,,,,,,,,,,,,0,0,0,97,,,,,,,,,,,,,,,LDT,left,1.4506285804527579,,,,,,1,,,,,,,,,,,,,left,1,1.4506285804527579,,,,,1041,2019_Mar_08_1459,mf_amp_cond1,3.0.4,59.99261150617951,
noped,,&&&&&,right,nonword,,,,,,,,,,,,,0,1,1,127,,,,,,,,,,,,,,,LDT,left,0.933828910914599,,,,,,0,,,,,,,,,,,,,left,0,0.933828910914599,,,,,1041,2019_Mar_08_1459,mf_amp_cond1,3.0.4,59.99261150617951,
failure,,&&&&&&&,left,loyalty.vice,,,,,,,,,,,,,0,2,2,73,,,,,,,,,,,,,,,LDT,right,0.5670565988693852,,,,,,0,,,,,,,,,,,,,right,0,0.5670565988693852,,,,,1041,2019_Mar_08_1459,mf_amp_cond1,3.0.4,59.99261150617951,
fegard,,&&&&&&,right,nonword,,,,,,,,,,,,,0,3,3,129,,,,,,,,,,,,,,,LDT,right,0.6504276168707293,,,,,,1,,,,,,,,,,,,,right,1,0.6504276168707293,,,,,1041,2019_Mar_08_1459,mf_amp_cond1,3.0.4,59.99261150617951,
noone,,&&&&&,left,neutral,,,,,,,,,,,,,0,4,4,5,,,,,,,,,,,,,,,LDT,left,0.8838045040756697,,,,,,1,,,,,,,,,,,,,left,1,0.8838045040756697,,,,,1041,2019_Mar_08_1459,mf_amp_cond1,3.0.4,59.99261150617951,
anything,,&&&&&&&&,left,neutral,,,,,,,,,,,,,0,5,5,184,,,,,,,,,,,,,,,LDT,right,0.5503941977804061,,,,,,0,,,,,,,,,,,,,right,0,0.5503941977804061,,,,,1041,2019_Mar_08_1459,mf_amp_cond1,3.0.4,59.99261150617951,
intelligence,,&&&&&&&&&&&&,left,loyalty.virtue,,,,,,,,,,,,,0,6,6,70,,,,,,,,,,,,,,,LDT,right,0.683756588405231,,,,,,0,,,,,,,,,,,,,right,0,0.683756588405231,,,,,1041,2019_Mar_08_1459,mf_amp_cond1,3.0.4,59.99261150617951,
clattening,,&&&&&&&&&&,right,nonword,,,,,,,,,,,,,0,7,7,104,,,,,,,,,,,,,,,LDT,right,0.5336955552629661,,,,,,1,,,,,,,,,,,,,right,1,0.5336955552629661,,,,,1041,2019_Mar_08_1459,mf_amp_cond1,3.0.4,59.99261150617951,
clean,,&&&&&,left,sanctity.virtue,,,,,,,,,,,,,0,8,8,139,,,,,,,,,,,,,,,LDT,right,0.5503951599384891,,,,,,0,,,,,,,,,,,,,right,0,0.5503951599384891,,,,,1041,2019_Mar_08_1459,mf_amp_cond1,3.0.4,59.99261150617951,
corruption,,&&&&&&&&&&,left,sanctity.vice,,,,,,,,,,,,,0,9,9,143,,,,,,,,,,,,,,,LDT,right,1.4006041736138286,,,,,,0,,,,,,,,,,,,,right,0,1.4006041736138286,,,,,1041,2019_Mar_08_1459,mf_amp_cond1,3.0.4,59.99261150617951,
emports,,&&&&&&&,right,nonword,,,,,,,,,,,,,0,10,10,188,,,,,,,,,,,,,,,LDT,left,0.6004064172302606,,,,,,0,,,,,,,,,,,,,left,0,0.6004064172302606,,,,,1041,2019_Mar_08_1459,mf_amp_cond1,3.0.4,59.99261150617951,
greaks,,&&&&&&,right,nonword,,,,,,,,,,,,,0,11,11,100,,,,,,,,,,,,,,,LDT,right,0.9671694283897523,,,,,,1,,,,,,,,,,,,,right,1,0.9671694283897523,,,,,1041,2019_Mar_08_1459,mf_amp_cond1,3.0.4,59.99261150617951,
ammessment,,&&&&&&&&&&,right,nonword,,,,,,,,,,,,,0,12,12,69,,,,,,,,,,,,,,,LDT,right,0.517073885697755,,,,,,1,,,,,,,,,,,,,right,1,0.517073885697755,,,,,1041,2019_Mar_08_1459,mf_amp_cond1,3.0.4,59.99261150617951,
letish,,&&&&&&,right,nonword,,,,,,,,,,,,,0,13,13,83,,,,,,,,,,,,,,,LDT,right,0.5670793700264767,,,,,,1,,,,,,,,,,,,,right,1,0.5670793700264767,,,,,1041,2019_Mar_08_1459,mf_amp_cond1,3.0.4,59.99261150617951,
amoungst,,&&&&&&&&,left,neutral,,,,,,,,,,,,,0,14,14,63,,,,,,,,,,,,,,,LDT,left,0.4336986983253155,,,,,,1,,,,,,,,,,,,,left,1,0.4336986983253155,,,,,1041,2019_Mar_08_1459,mf_amp_cond1,3.0.4,59.99261150617951,
Oregoniuns,,&&&&&&&&&&,right,nonword,,,,,,,,,,,,,0,15,15,23,,,,,,,,,,,,,,,LDT,right,0.3169698439305648,,,,,,1,,,,,,,,,,,,,right,1,0.3169698439305648,,,,,1041,2019_Mar_08_1459,mf_amp_cond1,3.0.4,59.99261150617951,
promises,,&&&&&&&&,left,fairness.virtue,,,,,,,,,,,,,0,16,16,191,,,,,,,,,,,,,,,LDT,right,0.6004067379544722,,,,,,0,,,,,,,,,,,,,right,0,0.6004067379544722,,,,,1041,2019_Mar_08_1459,mf_amp_cond1,3.0.4,59.99261150617951,
friends,,&&&&&&&,left,loyalty.virtue,,,,,,,,,,,,,0,17,17,147,,,,,,,,,,,,,,,LDT,right,0.6002585650130641,,,,,,0,,,,,,,,,,,,,right,0,0.6002585650130641,,,,,1041,2019_Mar_08_1459,mf_amp_cond1,3.0.4,59.99261150617951,
give,,&&&&,left,neutral,,,,,,,,,,,,,0,18,18,103,,,,,,,,,,,,,,,LDT,left,0.7004244417330483,,,,,,1,,,,,,,,,,,,,left,1,0.7004244417330483,,,,,1041,2019_Mar_08_1459,mf_amp_cond1,3.0.4,59.99261150617951,
sgrawl,,&&&&&&,right,nonword,,,,,,,,,,,,,0,19,19,179,,,,,,,,,,,,,,,LDT,right,0.4670619869721122,,,,,,1,,,,,,,,,,,,,right,1,0.4670619869721122,,,,,1041,2019_Mar_08_1459,mf_amp_cond1,3.0.4,59.99261150617951,
although,,&&&&&&&&,left,neutral,,,,,,,,,,,,,0,20,20,37,,,,,,,,,,,,,,,LDT,left,0.6170794021018082,,,,,,1,,,,,,,,,,,,,left,1,0.6170794021018082,,,,,1041,2019_Mar_08_1459,mf_amp_cond1,3.0.4,59.99261150617951,
about,,&&&&&,left,neutral,,,,,,,,,,,,,0,21,21,36,,,,,,,,,,,,,,,LDT,right,0.550388745527016,,,,,,0,,,,,,,,,,,,,right,0,0.550388745527016,,,,,1041,2019_Mar_08_1459,mf_amp_cond1,3.0.4,59.99261150617951,
death,,&&&&&,left,care.vice,,,,,,,,,,,,,0,22,22,182,,,,,,,,,,,,,,,LDT,left,0.6837562676810194,,,,,,1,,,,,,,,,,,,,left,1,0.6837562676810194,,,,,1041,2019_Mar_08_1459,mf_amp_cond1,3.0.4,59.99261150617951,
wump,,&&&&,right,nonword,,,,,,,,,,,,,0,23,23,86,,,,,,,,,,,,,,,LDT,right,1.2005565786530497,,,,,,1,,,,,,,,,,,,,right,1,1.2005565786530497,,,,,1041,2019_Mar_08_1459,mf_amp_cond1,3.0.4,59.99261150617951,
emassion,,&&&&&&&&,right,nonword,,,,,,,,,,,,,0,24,24,18,,,,,,,,,,,,,,,LDT,right,0.6504109394008992,,,,,,1,,,,,,,,,,,,,right,1,0.6504109394008992,,,,,1041,2019_Mar_08_1459,mf_amp_cond1,3.0.4,59.99261150617951,
stindig,,&&&&&&&,right,nonword,,,,,,,,,,,,,0,25,25,161,,,,,,,,,,,,,,,LDT,right,0.6504202403011732,,,,,,1,,,,,,,,,,,,,right,1,0.6504202403011732,,,,,1041,2019_Mar_08_1459,mf_amp_cond1,3.0.4,59.99261150617951,
there,,&&&&&,left,neutral,,,,,,,,,,,,,0,26,26,52,,,,,,,,,,,,,,,LDT,left,0.36702536066877656,,,,,,1,,,,,,,,,,,,,left,1,0.36702536066877656,,,,,1041,2019_Mar_08_1459,mf_amp_cond1,3.0.4,59.99261150617951,
sowntrodden,,&&&&&&&&&&&,right,nonword,,,,,,,,,,,,,0,27,27,111,,,,,,,,,,,,,,,LDT,left,0.3668550579895964,,,,,,0,,,,,,,,,,,,,left,0,0.3668550579895964,,,,,1041,2019_Mar_08_1459,mf_amp_cond1,3.0.4,59.99261150617951,
amount,,&&&&&&,left,neutral,,,,,,,,,,,,,0,28,28,66,,,,,,,,,,,,,,,LDT,right,0.21697555274295155,,,,,,0,,,,,,,,,,,,,right,0,0.21697555274295155,,,,,1041,2019_Mar_08_1459,mf_amp_cond1,3.0.4,59.99261150617951,
vurtain,,&&&&&&&,right,nonword,,,,,,,,,,,,,0,29,29,160,,,,,,,,,,,,,,,LDT,left,0.4170225062407553,,,,,,0,,,,,,,,,,,,,left,0,0.4170225062407553,,,,,1041,2019_Mar_08_1459,mf_amp_cond1,3.0.4,59.99261150617951,
blamed,,&&&&&&,left,loyalty.vice,,,,,,,,,,,,,0,30,30,59,,,,,,,,,,,,,,,LDT,left,0.7504568666045088,,,,,,1,,,,,,,,,,,,,left,1,0.7504568666045088,,,,,1041,2019_Mar_08_1459,mf_amp_cond1,3.0.4,59.99261150617951,
health,,&&&&&&,left,care.virtue,,,,,,,,,,,,,0,31,31,64,,,,,,,,,,,,,,,LDT,right,0.3336726558045484,,,,,,0,,,,,,,,,,,,,right,0,0.3336726558045484,,,,,1041,2019_Mar_08_1459,mf_amp_cond1,3.0.4,59.99261150617951,
neutralust,,&&&&&&&&&&,right,nonword,,,,,,,,,,,,,0,32,32,19,,,,,,,,,,,,,,,LDT,right,0.883804183351458,,,,,,1,,,,,,,,,,,,,right,1,0.883804183351458,,,,,1041,2019_Mar_08_1459,mf_amp_cond1,3.0.4,59.99261150617951,
become,,&&&&&&,left,neutral,,,,,,,,,,,,,0,33,33,146,,,,,,,,,,,,,,,LDT,right,0.40035240787256043,,,,,,0,,,,,,,,,,,,,right,0,0.40035240787256043,,,,,1041,2019_Mar_08_1459,mf_amp_cond1,3.0.4,59.99261150617951,
ejanulated,,&&&&&&&&&&,right,nonword,,,,,,,,,,,,,0,34,34,60,,,,,,,,,,,,,,,LDT,right,0.35039439021784347,,,,,,1,,,,,,,,,,,,,right,1,0.35039439021784347,,,,,1041,2019_Mar_08_1459,mf_amp_cond1,3.0.4,59.99261150617951,
simplustic,,&&&&&&&&&&,right,nonword,,,,,,,,,,,,,0,35,35,120,,,,,,,,,,,,,,,LDT,right,0.3170057646348141,,,,,,1,,,,,,,,,,,,,right,1,0.3170057646348141,,,,,1041,2019_Mar_08_1459,mf_amp_cond1,3.0.4,59.99261150617951,
strong,,&&&&&&,left,loyalty.virtue,,,,,,,,,,,,,0,36,36,176,,,,,,,,,,,,,,,LDT,left,0.567054033090244,,,,,,1,,,,,,,,,,,,,left,1,0.567054033090244,,,,,1041,2019_Mar_08_1459,mf_amp_cond1,3.0.4,59.99261150617951,
yane,,&&&&,right,nonword,,,,,,,,,,,,,0,37,37,76,,,,,,,,,,,,,,,LDT,right,0.7504283224552637,,,,,,1,,,,,,,,,,,,,right,1,0.7504283224552637,,,,,1041,2019_Mar_08_1459,mf_amp_cond1,3.0.4,59.99261150617951,
less,,&&&&,left,neutral,,,,,,,,,,,,,0,38,38,75,,,,,,,,,,,,,,,LDT,right,1.0005044936260674,,,,,,0,,,,,,,,,,,,,right,0,1.0005044936260674,,,,,1041,2019_Mar_08_1459,mf_amp_cond1,3.0.4,59.99261150617951,
reelectiob,,&&&&&&&&&&,right,nonword,,,,,,,,,,,,,0,39,39,98,,,,,,,,,,,,,,,LDT,right,1.0338450111012207,,,,,,1,,,,,,,,,,,,,right,1,1.0338450111012207,,,,,1041,2019_Mar_08_1459,mf_amp_cond1,3.0.4,59.99261150617951,
rebels,,&&&&&&,left,authority.vice,,,,,,,,,,,,,0,40,40,174,,,,,,,,,,,,,,,LDT,left,0.6004314334568335,,,,,,1,,,,,,,,,,,,,left,1,0.6004314334568335,,,,,1041,2019_Mar_08_1459,mf_amp_cond1,3.0.4,59.99261150617951,
pharing,,&&&&&&&,right,nonword,,,,,,,,,,,,,0,41,41,150,,,,,,,,,,,,,,,LDT,right,0.23364372679498047,,,,,,1,,,,,,,,,,,,,right,1,0.23364372679498047,,,,,1041,2019_Mar_08_1459,mf_amp_cond1,3.0.4,59.99261150617951,
violence,,&&&&&&&&,left,care.vice,,,,,,,,,,,,,0,42,42,1,,,,,,,,,,,,,,,LDT,left,0.31681172862590756,,,,,,1,,,,,,,,,,,,,left,1,0.31681172862590756,,,,,1041,2019_Mar_08_1459,mf_amp_cond1,3.0.4,59.99261150617951,
conspiracy,,&&&&&&&&&&,left,sanctity.vice,,,,,,,,,,,,,0,43,43,29,,,,,,,,,,,,,,,LDT,right,0.2836569084174698,,,,,,0,,,,,,,,,,,,,right,0,0.2836569084174698,,,,,1041,2019_Mar_08_1459,mf_amp_cond1,3.0.4,59.99261150617951,
openet,,&&&&&&,None,nonword,,,,,,,,,,,,,0,44,44,54,,,,,,,,,,,,,,,LDT,left,0.40035176642413717,,,,,,0,,,,,,,,,,,,,left,0,0.40035176642413717,,,,,1041,2019_Mar_08_1459,mf_amp_cond1,3.0.4,59.99261150617951,
oam,,&&&,right,nonword,,,,,,,,,,,,,0,45,45,131,,,,,,,,,,,,,,,LDT,right,0.500415974704083,,,,,,1,,,,,,,,,,,,,right,1,0.500415974704083,,,,,1041,2019_Mar_08_1459,mf_amp_cond1,3.0.4,59.99261150617951,
perified,,&&&&&&&&,right,nonword,,,,,,,,,,,,,0,46,46,25,,,,,,,,,,,,,,,LDT,right,0.3336745801352663,,,,,,1,,,,,,,,,,,,,right,1,0.3336745801352663,,,,,1041,2019_Mar_08_1459,mf_amp_cond1,3.0.4,59.99261150617951,
juck,,&&&&,right,nonword,,,,,,,,,,,,,0,47,47,61,,,,,,,,,,,,,,,LDT,right,0.933820572172408,,,,,,1,,,,,,,,,,,,,right,1,0.933820572172408,,,,,1041,2019_Mar_08_1459,mf_amp_cond1,3.0.4,59.99261150617951,
discovars,,&&&&&&&&&,right,nonword,,,,,,,,,,,,,0,48,48,50,,,,,,,,,,,,,,,LDT,left,0.6004269433615264,,,,,,0,,,,,,,,,,,,,left,0,0.6004269433615264,,,,,1041,2019_Mar_08_1459,mf_amp_cond1,3.0.4,59.99261150617951,
further,,&&&&&&&,left,neutral,,,,,,,,,,,,,0,49,49,155,,,,,,,,,,,,,,,LDT,left,0.9338250622677151,,,,,,1,,,,,,,,,,,,,left,1,0.9338250622677151,,,,,1041,2019_Mar_08_1459,mf_amp_cond1,3.0.4,59.99261150617951,
illegal,,&&&&&&&,left,fairness.vice,,,,,,,,,,,,,0,50,50,116,,,,,,,,,,,,,,,LDT,right,0.5837456197623396,,,,,,0,,,,,,,,,,,,,right,0,0.5837456197623396,,,,,1041,2019_Mar_08_1459,mf_amp_cond1,3.0.4,59.99261150617951,
Daptist,,&&&&&&&,right,nonword,,,,,,,,,,,,,0,51,51,197,,,,,,,,,,,,,,,LDT,left,0.517097939751693,,,,,,0,,,,,,,,,,,,,left,0,0.517097939751693,,,,,1041,2019_Mar_08_1459,mf_amp_cond1,3.0.4,59.99261150617951,
both,,&&&&,left,neutral,,,,,,,,,,,,,0,52,52,41,,,,,,,,,,,,,,,LDT,right,0.7004241210088367,,,,,,0,,,,,,,,,,,,,right,0,0.7004241210088367,,,,,1041,2019_Mar_08_1459,mf_amp_cond1,3.0.4,59.99261150617951,
integrity,,&&&&&&&&&,left,fairness.virtue,,,,,,,,,,,,,0,53,53,108,,,,,,,,,,,,,,,LDT,right,0.4003562565194443,,,,,,0,,,,,,,,,,,,,right,0,0.4003562565194443,,,,,1041,2019_Mar_08_1459,mf_amp_cond1,3.0.4,59.99261150617951,
wherever,,&&&&&&&&,left,neutral,,,,,,,,,,,,,0,54,54,126,,,,,,,,,,,,,,,LDT,right,0.41702378913760185,,,,,,0,,,,,,,,,,,,,right,0,0.41702378913760185,,,,,1041,2019_Mar_08_1459,mf_amp_cond1,3.0.4,59.99261150617951,
fostet,,&&&&&&,right,nonword,,,,,,,,,,,,,0,55,55,151,,,,,,,,,,,,,,,LDT,right,0.4168746540090069,,,,,,1,,,,,,,,,,,,,right,1,0.4168746540090069,,,,,1041,2019_Mar_08_1459,mf_amp_cond1,3.0.4,59.99261150617951,
chressing,,&&&&&&&&&,None,nonword,,,,,,,,,,,,,0,56,56,53,,,,,,,,,,,,,,,LDT,left,0.4503633444546722,,,,,,0,,,,,,,,,,,,,left,0,0.4503633444546722,,,,,1041,2019_Mar_08_1459,mf_amp_cond1,3.0.4,59.99261150617951,
brudent,,&&&&&&&,right,nonword,,,,,,,,,,,,,0,57,57,4,,,,,,,,,,,,,,,LDT,right,0.5670569195790449,,,,,,1,,,,,,,,,,,,,right,1,0.5670569195790449,,,,,1041,2019_Mar_08_1459,mf_amp_cond1,3.0.4,59.99261150617951,
hasks,,&&&&&,right,nonword,,,,,,,,,,,,,0,58,58,109,,,,,,,,,,,,,,,LDT,right,0.8171183375816327,,,,,,1,,,,,,,,,,,,,right,1,0.8171183375816327,,,,,1041,2019_Mar_08_1459,mf_amp_cond1,3.0.4,59.99261150617951,
ebbitter,,&&&&&&&&,right,nonword,,,,,,,,,,,,,0,59,59,71,,,,,,,,,,,,,,,LDT,right,0.5337176849861862,,,,,,1,,,,,,,,,,,,,right,1,0.5337176849861862,,,,,1041,2019_Mar_08_1459,mf_amp_cond1,3.0.4,59.99261150617951,
fifty,,&&&&&,left,neutral,,,,,,,,,,,,,0,60,60,114,,,,,,,,,,,,,,,LDT,left,0.45038034264871385,,,,,,1,,,,,,,,,,,,,left,1,0.45038034264871385,,,,,1041,2019_Mar_08_1459,mf_amp_cond1,3.0.4,59.99261150617951,
faith,,&&&&&,left,sanctity.virtue,,,,,,,,,,,,,0,61,61,21,,,,,,,,,,,,,,,LDT,right,0.43370799922558945,,,,,,0,,,,,,,,,,,,,right,0,0.43370799922558945,,,,,1041,2019_Mar_08_1459,mf_amp_cond1,3.0.4,59.99261150617951,
nackers,,&&&&&&&,right,nonword,,,,,,,,,,,,,0,62,62,130,,,,,,,,,,,,,,,LDT,left,0.4670328013889957,,,,,,0,,,,,,,,,,,,,left,0,0.4670328013889957,,,,,1041,2019_Mar_08_1459,mf_amp_cond1,3.0.4,59.99261150617951,
framatic,,&&&&&&&&,right,nonword,,,,,,,,,,,,,0,63,63,138,,,,,,,,,,,,,,,LDT,right,0.41702475129568484,,,,,,1,,,,,,,,,,,,,right,1,0.41702475129568484,,,,,1041,2019_Mar_08_1459,mf_amp_cond1,3.0.4,59.99261150617951,
promised,,&&&&&&&&,left,loyalty.virtue,,,,,,,,,,,,,0,64,64,107,,,,,,,,,,,,,,,LDT,left,0.7671179847966414,,,,,,1,,,,,,,,,,,,,left,1,0.7671179847966414,,,,,1041,2019_Mar_08_1459,mf_amp_cond1,3.0.4,59.99261150617951,
bycled,,&&&&&&,None,nonword,,,,,,,,,,,,,0,65,65,9,,,,,,,,,,,,,,,LDT,right,0.53371608137968,,,,,,0,,,,,,,,,,,,,right,0,0.53371608137968,,,,,1041,2019_Mar_08_1459,mf_amp_cond1,3.0.4,59.99261150617951,
reprisols,,&&&&&&&&&,right,nonword,,,,,,,,,,,,,0,66,66,48,,,,,,,,,,,,,,,LDT,left,0.4003549736517016,,,,,,0,,,,,,,,,,,,,left,0,0.4003549736517016,,,,,1041,2019_Mar_08_1459,mf_amp_cond1,3.0.4,59.99261150617951,
everything,,&&&&&&&&&&,left,neutral,,,,,,,,,,,,,0,67,67,106,,,,,,,,,,,,,,,LDT,right,0.31699550156190526,,,,,,0,,,,,,,,,,,,,right,0,0.31699550156190526,,,,,1041,2019_Mar_08_1459,mf_amp_cond1,3.0.4,59.99261150617951,
loyalty,,&&&&&&&,left,loyalty.virtue,,,,,,,,,,,,,0,68,68,82,,,,,,,,,,,,,,,LDT,left,0.30032412031141575,,,,,,1,,,,,,,,,,,,,left,1,0.30032412031141575,,,,,1041,2019_Mar_08_1459,mf_amp_cond1,3.0.4,59.99261150617951,
pullness,,&&&&&&&&,right,nonword,,,,,,,,,,,,,0,69,69,55,,,,,,,,,,,,,,,LDT,right,0.30031963021610864,,,,,,1,,,,,,,,,,,,,right,1,0.30031963021610864,,,,,1041,2019_Mar_08_1459,mf_amp_cond1,3.0.4,59.99261150617951,
therefore,,&&&&&&&&&,left,neutral,,,,,,,,,,,,,0,70,70,152,,,,,,,,,,,,,,,LDT,right,1.1838893667591037,,,,,,0,,,,,,,,,,,,,right,0,1.1838893667591037,,,,,1041,2019_Mar_08_1459,mf_amp_cond1,3.0.4,59.99261150617951,
hate,,&&&&,left,fairness.vice,,,,,,,,,,,,,0,71,71,10,,,,,,,,,,,,,,,LDT,right,0.35033666048548184,,,,,,0,,,,,,,,,,,,,right,0,0.35033666048548184,,,,,1041,2019_Mar_08_1459,mf_amp_cond1,3.0.4,59.99261150617951,
dramens,,&&&&&&&,right,nonword,,,,,,,,,,,,,0,72,72,101,,,,,,,,,,,,,,,LDT,left,0.45036847598385066,,,,,,0,,,,,,,,,,,,,left,0,0.45036847598385066,,,,,1041,2019_Mar_08_1459,mf_amp_cond1,3.0.4,59.99261150617951,
forty,,&&&&&,left,neutral,,,,,,,,,,,,,0,73,73,14,,,,,,,,,,,,,,,LDT,left,0.46703632932621986,,,,,,1,,,,,,,,,,,,,left,1,0.46703632932621986,,,,,1041,2019_Mar_08_1459,mf_amp_cond1,3.0.4,59.99261150617951,
besides,,&&&&&&&,left,neutral,,,,,,,,,,,,,0,74,74,145,,,,,,,,,,,,,,,LDT,right,0.2002720994205447,,,,,,0,,,,,,,,,,,,,right,0,0.2002720994205447,,,,,1041,2019_Mar_08_1459,mf_amp_cond1,3.0.4,59.99261150617951,
peace,,&&&&&,left,care.virtue,,,,,,,,,,,,,0,75,75,186,,,,,,,,,,,,,,,LDT,right,0.48369456102955155,,,,,,0,,,,,,,,,,,,,right,0,0.48369456102955155,,,,,1041,2019_Mar_08_1459,mf_amp_cond1,3.0.4,59.99261150617951,
myself,,&&&&&&,left,neutral,,,,,,,,,,,,,0,76,76,133,,,,,,,,,,,,,,,LDT,left,0.18363760103238747,,,,,,1,,,,,,,,,,,,,left,1,0.18363760103238747,,,,,1041,2019_Mar_08_1459,mf_amp_cond1,3.0.4,59.99261150617951,
restore,,&&&&&&&,left,care.virtue,,,,,,,,,,,,,0,77,77,124,,,,,,,,,,,,,,,LDT,right,0.21696913833147846,,,,,,0,,,,,,,,,,,,,right,0,0.21696913833147846,,,,,1041,2019_Mar_08_1459,mf_amp_cond1,3.0.4,59.99261150617951,
pulge,,&&&&&,right,nonword,,,,,,,,,,,,,0,78,78,67,,,,,,,,,,,,,,,LDT,left,0.25031607021810487,,,,,,0,,,,,,,,,,,,,left,0,0.25031607021810487,,,,,1041,2019_Mar_08_1459,mf_amp_cond1,3.0.4,59.99261150617951,
iptervention,,&&&&&&&&&&&&,right,nonword,,,,,,,,,,,,,0,79,79,123,,,,,,,,,,,,,,,LDT,right,0.5503919527254766,,,,,,1,,,,,,,,,,,,,right,1,0.5503919527254766,,,,,1041,2019_Mar_08_1459,mf_amp_cond1,3.0.4,59.99261150617951,
commitment,,&&&&&&&&&&,left,sanctity.virtue,,,,,,,,,,,,,0,80,80,12,,,,,,,,,,,,,,,LDT,right,0.4670424229989294,,,,,,0,,,,,,,,,,,,,right,0,0.4670424229989294,,,,,1041,2019_Mar_08_1459,mf_amp_cond1,3.0.4,59.99261150617951,
strength,,&&&&&&&&,left,sanctity.virtue,,,,,,,,,,,,,0,81,81,196,,,,,,,,,,,,,,,LDT,left,0.7837835930840811,,,,,,1,,,,,,,,,,,,,left,1,0.7837835930840811,,,,,1041,2019_Mar_08_1459,mf_amp_cond1,3.0.4,59.99261150617951,
esquisiteness,,&&&&&&&&&&&&&,right,nonword,,,,,,,,,,,,,0,82,82,87,,,,,,,,,,,,,,,LDT,left,0.5337231372395763,,,,,,0,,,,,,,,,,,,,left,0,0.5337231372395763,,,,,1041,2019_Mar_08_1459,mf_amp_cond1,3.0.4,59.99261150617951,
done,,&&&&,left,neutral,,,,,,,,,,,,,0,83,83,165,,,,,,,,,,,,,,,LDT,right,0.3336684864334529,,,,,,0,,,,,,,,,,,,,right,0,0.3336684864334529,,,,,1041,2019_Mar_08_1459,mf_amp_cond1,3.0.4,59.99261150617951,
scalbel,,&&&&&&&,right,nonword,,,,,,,,,,,,,0,84,84,15,,,,,,,,,,,,,,,LDT,left,0.35033666048548184,,,,,,0,,,,,,,,,,,,,left,0,0.35033666048548184,,,,,1041,2019_Mar_08_1459,mf_amp_cond1,3.0.4,59.99261150617951,
neneficence,,&&&&&&&&&&&,right,nonword,,,,,,,,,,,,,0,85,85,144,,,,,,,,,,,,,,,LDT,right,0.33366976931574754,,,,,,1,,,,,,,,,,,,,right,1,0.33366976931574754,,,,,1041,2019_Mar_08_1459,mf_amp_cond1,3.0.4,59.99261150617951,
somehow,,&&&&&&&,left,neutral,,,,,,,,,,,,,0,86,86,162,,,,,,,,,,,,,,,LDT,left,0.4170340521959588,,,,,,1,,,,,,,,,,,,,left,1,0.4170340521959588,,,,,1041,2019_Mar_08_1459,mf_amp_cond1,3.0.4,59.99261150617951,
hand,,&&&&,left,sanctity.virtue,,,,,,,,,,,,,0,87,87,44,,,,,,,,,,,,,,,LDT,right,0.36701958770572674,,,,,,0,,,,,,,,,,,,,right,0,0.36701958770572674,,,,,1041,2019_Mar_08_1459,mf_amp_cond1,3.0.4,59.99261150617951,
synchronazers,,&&&&&&&&&&&&&,right,nonword,,,,,,,,,,,,,0,88,88,57,,,,,,,,,,,,,,,LDT,left,0.9838687123410637,,,,,,0,,,,,,,,,,,,,left,0,0.9838687123410637,,,,,1041,2019_Mar_08_1459,mf_amp_cond1,3.0.4,59.99261150617951,
Loorish,,&&&&&&&,right,nonword,,,,,,,,,,,,,0,89,89,154,,,,,,,,,,,,,,,LDT,left,0.5670950853382237,,,,,,0,,,,,,,,,,,,,left,0,0.5670950853382237,,,,,1041,2019_Mar_08_1459,mf_amp_cond1,3.0.4,59.99261150617951,
menizen,,&&&&&&&,None,nonword,,,,,,,,,,,,,0,90,90,167,,,,,,,,,,,,,,,LDT,right,0.2669819992297562,,,,,,0,,,,,,,,,,,,,right,0,0.2669819992297562,,,,,1041,2019_Mar_08_1459,mf_amp_cond1,3.0.4,59.99261150617951,
were,,&&&&,left,neutral,,,,,,,,,,,,,0,91,91,119,,,,,,,,,,,,,,,LDT,left,0.21697555274295155,,,,,,1,,,,,,,,,,,,,left,1,0.21697555274295155,,,,,1041,2019_Mar_08_1459,mf_amp_cond1,3.0.4,59.99261150617951,
galamitous,,&&&&&&&&&&,right,nonword,,,,,,,,,,,,,0,92,92,16,,,,,,,,,,,,,,,LDT,right,0.38372272030392196,,,,,,1,,,,,,,,,,,,,right,1,0.38372272030392196,,,,,1041,2019_Mar_08_1459,mf_amp_cond1,3.0.4,59.99261150617951,
infet,,&&&&&,right,nonword,,,,,,,,,,,,,0,93,93,142,,,,,,,,,,,,,,,LDT,left,0.28364536247681826,,,,,,0,,,,,,,,,,,,,left,0,0.28364536247681826,,,,,1041,2019_Mar_08_1459,mf_amp_cond1,3.0.4,59.99261150617951,
hefurbished,,&&&&&&&&&&&,right,nonword,,,,,,,,,,,,,0,94,94,92,,,,,,,,,,,,,,,LDT,right,0.26699130013003014,,,,,,1,,,,,,,,,,,,,right,1,0.26699130013003014,,,,,1041,2019_Mar_08_1459,mf_amp_cond1,3.0.4,59.99261150617951,
ability,,&&&&&&&,left,authority.virtue,,,,,,,,,,,,,0,95,95,178,,,,,,,,,,,,,,,LDT,left,1.0338626507291337,,,,,,1,,,,,,,,,,,,,left,1,1.0338626507291337,,,,,1041,2019_Mar_08_1459,mf_amp_cond1,3.0.4,59.99261150617951,
agreement,,&&&&&&&&&,left,fairness.virtue,,,,,,,,,,,,,0,96,96,135,,,,,,,,,,,,,,,LDT,left,0.18363214877899736,,,,,,1,,,,,,,,,,,,,left,1,0.18363214877899736,,,,,1041,2019_Mar_08_1459,mf_amp_cond1,3.0.4,59.99261150617951,
mih,,&&&,right,nonword,,,,,,,,,,,,,0,97,97,168,,,,,,,,,,,,,,,LDT,left,0.6670794341771398,,,,,,0,,,,,,,,,,,,,left,0,0.6670794341771398,,,,,1041,2019_Mar_08_1459,mf_amp_cond1,3.0.4,59.99261150617951,
rejected,,&&&&&&&&,left,authority.vice,,,,,,,,,,,,,0,98,98,121,,,,,,,,,,,,,,,LDT,right,0.200289418338798,,,,,,0,,,,,,,,,,,,,right,0,0.200289418338798,,,,,1041,2019_Mar_08_1459,mf_amp_cond1,3.0.4,59.99261150617951,
gun,,&&&,left,authority.vice,,,,,,,,,,,,,0,99,99,112,,,,,,,,,,,,,,,LDT,left,0.4336974154430209,,,,,,1,,,,,,,,,,,,,left,1,0.4336974154430209,,,,,1041,2019_Mar_08_1459,mf_amp_cond1,3.0.4,59.99261150617951,
gaultless,,&&&&&&&&&,right,nonword,,,,,,,,,,,,,0,100,100,91,,,,,,,,,,,,,,,LDT,right,0.0836019368871348,,,,,,1,,,,,,,,,,,,,right,1,0.0836019368871348,,,,,1041,2019_Mar_08_1459,mf_amp_cond1,3.0.4,59.99261150617951,
either,,&&&&&&,left,neutral,,,,,,,,,,,,,0,101,101,89,,,,,,,,,,,,,,,LDT,right,0.15028970697312616,,,,,,0,,,,,,,,,,,,,right,0,0.15028970697312616,,,,,1041,2019_Mar_08_1459,mf_amp_cond1,3.0.4,59.99261150617951,
photocalkodes,,&&&&&&&&&&&&&,right,nonword,,,,,,,,,,,,,0,102,102,164,,,,,,,,,,,,,,,LDT,right,0.5170427757984726,,,,,,1,,,,,,,,,,,,,right,1,0.5170427757984726,,,,,1041,2019_Mar_08_1459,mf_amp_cond1,3.0.4,59.99261150617951,
forepo,,&&&&&&,right,nonword,,,,,,,,,,,,,0,103,103,40,,,,,,,,,,,,,,,LDT,right,0.21697491129452828,,,,,,1,,,,,,,,,,,,,right,1,0.21697491129452828,,,,,1041,2019_Mar_08_1459,mf_amp_cond1,3.0.4,59.99261150617951,
festate,,&&&&&&&,right,nonword,,,,,,,,,,,,,0,104,104,32,,,,,,,,,,,,,,,LDT,left,0.2336658565182006,,,,,,0,,,,,,,,,,,,,left,0,0.2336658565182006,,,,,1041,2019_Mar_08_1459,mf_amp_cond1,3.0.4,59.99261150617951,
erks,,&&&&,right,nonword,,,,,,,,,,,,,0,105,105,42,,,,,,,,,,,,,,,LDT,right,0.5337715660571121,,,,,,1,,,,,,,,,,,,,right,1,0.5337715660571121,,,,,1041,2019_Mar_08_1459,mf_amp_cond1,3.0.4,59.99261150617951,
feleological,,&&&&&&&&&&&&,right,nonword,,,,,,,,,,,,,0,106,106,58,,,,,,,,,,,,,,,LDT,right,0.2670615379611263,,,,,,1,,,,,,,,,,,,,right,1,0.2670615379611263,,,,,1041,2019_Mar_08_1459,mf_amp_cond1,3.0.4,59.99261150617951,
drumbled,,&&&&&&&&,right,nonword,,,,,,,,,,,,,0,107,107,153,,,,,,,,,,,,,,,LDT,right,0.05027585185598582,,,,,,1,,,,,,,,,,,,,right,1,0.05027585185598582,,,,,1041,2019_Mar_08_1459,mf_amp_cond1,3.0.4,59.99261150617951,
fifteen,,&&&&&&&,left,neutral,,,,,,,,,,,,,0,108,108,192,,,,,,,,,,,,,,,LDT,left,0.550388745527016,,,,,,1,,,,,,,,,,,,,left,1,0.550388745527016,,,,,1041,2019_Mar_08_1459,mf_amp_cond1,3.0.4,59.99261150617951,
thabbily,,&&&&&&&&,right,nonword,,,,,,,,,,,,,0,109,109,122,,,,,,,,,,,,,,,LDT,right,0.3003215545468265,,,,,,1,,,,,,,,,,,,,right,1,0.3003215545468265,,,,,1041,2019_Mar_08_1459,mf_amp_cond1,3.0.4,59.99261150617951,
grovelire,,&&&&&&&&&,right,nonword,,,,,,,,,,,,,0,110,110,74,,,,,,,,,,,,,,,LDT,right,0.233663611477823,,,,,,1,,,,,,,,,,,,,right,1,0.233663611477823,,,,,1041,2019_Mar_08_1459,mf_amp_cond1,3.0.4,59.99261150617951,
godlaness,,&&&&&&&&&,right,nonword,,,,,,,,,,,,,0,111,111,78,,,,,,,,,,,,,,,LDT,right,0.4170398251590086,,,,,,1,,,,,,,,,,,,,right,1,0.4170398251590086,,,,,1041,2019_Mar_08_1459,mf_amp_cond1,3.0.4,59.99261150617951,
drug,,&&&&,left,sanctity.vice,,,,,,,,,,,,,0,112,112,2,,,,,,,,,,,,,,,LDT,left,0.13362185364530887,,,,,,1,,,,,,,,,,,,,left,1,0.13362185364530887,,,,,1041,2019_Mar_08_1459,mf_amp_cond1,3.0.4,59.99261150617951,
