words,mask,corr_ans,category,nonwords,tweets,topic,LDT_pracloop.thisRepN,LDT_pracloop.thisTrialN,LDT_pracloop.thisN,LDT_pracloop.thisIndex,LDT_trials.thisRepN,LDT_trials.thisTrialN,LDT_trials.thisN,LDT_trials.thisIndex,AMP_pracloop.thisRepN,AMP_pracloop.thisTrialN,AMP_pracloop.thisN,AMP_pracloop.thisIndex,AMP_trials.thisRepN,AMP_trials.thisTrialN,AMP_trials.thisN,AMP_trials.thisIndex,tweet_loop.thisRepN,tweet_loop.thisTrialN,tweet_loop.thisN,tweet_loop.thisIndex,begin_key.keys,begin_key.rt,key_resp_AMP_instr1.keys,key_resp_AMP_instr1.rt,key_resp_LDT_instr.keys,key_resp_LDT_instr.rt,resp_LDT_prac.keys,resp_LDT_prac.rt,task,keypress,RT,corr,resp_LDT_ready.keys,resp_LDT_ready.rt,resp_LDT.keys,resp_LDT.corr,resp_LDT.rt,LDT_rating.response,LDT_rating.rt,resp_AMP_ready1.keys,resp_AMP_ready1.rt,resp_AMP_prac.keys,resp_AMP_prac.rt,resp_AMP_ready.keys,resp_AMP_ready.rt,resp_AMP.keys,resp_AMP.corr,resp_AMP.rt,AMP_nonword_rating.response,AMP_nonword_rating.rt,AMP_word_rating.response,AMP_word_rating.rt,AMP_random_rating.response,AMP_random_rating.rt,key_resp_LDT_instr_2.keys,key_resp_LDT_instr_2.rt,resp_tweets.keys,resp_tweets.rt,participant,date,expName,psychopyVersion,frameRate,
,,,,,,,,,,,,,,,,,,,,,,,,,,,right,926.2253712157835,,,,,,,,,,,,,,,,,,,,,,,,,,,,,,,,,,,,,1044,2019_Mar_13_0950,mf_amp_cond2,3.0.4,59.987686927202226,
,,,,,,,,,,,,,,,,,,,,,,,,,,,,,right,3.051006447087275,,,,,,,,,,,,,,,,,,,,,,,,,,,,,,,,,,,1044,2019_Mar_13_0950,mf_amp_cond2,3.0.4,59.987686927202226,
,,,,,,,,,,,,,,,,,,,,,,,,,,,,,,,right,3.534445820696419,,,,,,,,,,,,,,,,,,,,,,,,,,,,,,,,,1044,2019_Mar_13_0950,mf_amp_cond2,3.0.4,59.987686927202226,
keyboard,&&&&&&&,,,,,,0,0,0,0,,,,,,,,,,,,,,,,,,,,,,,left,1.5006350228504743,LDT_prac,left,1.5006350228504743,0,,,,,,,,,,,,,,,,,,,,,,,,,,,1044,2019_Mar_13_0950,mf_amp_cond2,3.0.4,59.987686927202226,
bisebell,&&&&&&&,,,,,,0,1,1,1,,,,,,,,,,,,,,,,,,,,,,,left,0.9504771972133312,LDT_prac,left,0.9504771972133312,0,,,,,,,,,,,,,,,,,,,,,,,,,,,1044,2019_Mar_13_0950,mf_amp_cond2,3.0.4,59.987686927202226,
,,,,,,,,,,,,,,,,,,,,,,,,,,,,,,,,,,,,,,,right,2.0674182600632776,,,,,,,,,,,,,,,,,,,,,,,,,1044,2019_Mar_13_0950,mf_amp_cond2,3.0.4,59.987686927202226,
hope,&&&&,left,loyalty.virtue,,,,,,,,0,0,0,106,,,,,,,,,,,,,,,,,,,,,LDT,left,1.0171282983501442,1,,,left,1,1.0171282983501442,,,,,,,,,,,,,,,,,,,,,,1044,2019_Mar_13_0950,mf_amp_cond2,3.0.4,59.987686927202226,
iptervention,&&&&&&&&&&&&,right,nonword,,,,,,,,0,1,1,68,,,,,,,,,,,,,,,,,,,,,LDT,left,0.5503784800239373,0,,,left,0,0.5503784800239373,,,,,,,,,,,,,,,,,,,,,,1044,2019_Mar_13_0950,mf_amp_cond2,3.0.4,59.987686927202226,
men,&&&,left,loyalty.vice,,,,,,,,0,2,2,14,,,,,,,,,,,,,,,,,,,,,LDT,left,0.5670510372438002,1,,,left,1,0.5670510372438002,,,,,,,,,,,,,,,,,,,,,,1044,2019_Mar_13_0950,mf_amp_cond2,3.0.4,59.987686927202226,
blamed,&&&&&&,left,loyalty.vice,,,,,,,,0,3,3,81,,,,,,,,,,,,,,,,,,,,,LDT,left,0.4003504813008476,1,,,left,1,0.4003504813008476,,,,,,,,,,,,,,,,,,,,,,1044,2019_Mar_13_0950,mf_amp_cond2,3.0.4,59.987686927202226,
wherever,&&&&&&&&,left,neutral,,,,,,,,0,4,4,98,,,,,,,,,,,,,,,,,,,,,LDT,left,0.4168764700880274,1,,,left,1,0.4168764700880274,,,,,,,,,,,,,,,,,,,,,,1044,2019_Mar_13_0950,mf_amp_cond2,3.0.4,59.987686927202226,
gaultless,&&&&&&&&&,right,nonword,,,,,,,,0,5,5,42,,,,,,,,,,,,,,,,,,,,,LDT,left,0.5503678963286802,0,,,left,0,0.5503678963286802,,,,,,,,,,,,,,,,,,,,,,1044,2019_Mar_13_0950,mf_amp_cond2,3.0.4,59.987686927202226,
elduringly,&&&&&&&&&&,right,nonword,,,,,,,,0,6,6,20,,,,,,,,,,,,,,,,,,,,,LDT,left,0.5837200665555429,0,,,left,0,0.5837200665555429,,,,,,,,,,,,,,,,,,,,,,1044,2019_Mar_13_0950,mf_amp_cond2,3.0.4,59.987686927202226,
unreflectuve,&&&&&&&&&&&&,right,nonword,,,,,,,,0,7,7,148,,,,,,,,,,,,,,,,,,,,,LDT,left,0.5503765557077713,0,,,left,0,0.5503765557077713,,,,,,,,,,,,,,,,,,,,,,1044,2019_Mar_13_0950,mf_amp_cond2,3.0.4,59.987686927202226,
pullness,&&&&&&&&,right,nonword,,,,,,,,0,8,8,117,,,,,,,,,,,,,,,,,,,,,LDT,left,1.683984082104871,0,,,left,0,1.683984082104871,,,,,,,,,,,,,,,,,,,,,,1044,2019_Mar_13_0950,mf_amp_cond2,3.0.4,59.987686927202226,
lempestuous,&&&&&&&&&&&,right,nonword,,,,,,,,0,9,9,85,,,,,,,,,,,,,,,,,,,,,LDT,left,0.8337757111876272,0,,,left,0,0.8337757111876272,,,,,,,,,,,,,,,,,,,,,,1044,2019_Mar_13_0950,mf_amp_cond2,3.0.4,59.987686927202226,
neputized,&&&&&&&&&,right,nonword,,,,,,,,0,10,10,83,,,,,,,,,,,,,,,,,,,,,LDT,left,0.4836943449045066,0,,,left,0,0.4836943449045066,,,,,,,,,,,,,,,,,,,,,,1044,2019_Mar_13_0950,mf_amp_cond2,3.0.4,59.987686927202226,
sonvoy,&&&&&&,None,nonword,,,,,,,,0,11,11,25,,,,,,,,,,,,,,,,,,,,,LDT,left,0.48369402418029495,0,,,left,0,0.48369402418029495,,,,,,,,,,,,,,,,,,,,,,1044,2019_Mar_13_0950,mf_amp_cond2,3.0.4,59.987686927202226,
chressing,&&&&&&&&&,None,nonword,,,,,,,,0,12,12,34,,,,,,,,,,,,,,,,,,,,,LDT,left,0.26697772095212713,0,,,left,0,0.26697772095212713,,,,,,,,,,,,,,,,,,,,,,1044,2019_Mar_13_0950,mf_amp_cond2,3.0.4,59.987686927202226,
tomedians,&&&&&&&&&,right,nonword,,,,,,,,0,13,13,177,,,,,,,,,,,,,,,,,,,,,LDT,left,0.3836737547535449,0,,,left,0,0.3836737547535449,,,,,,,,,,,,,,,,,,,,,,1044,2019_Mar_13_0950,mf_amp_cond2,3.0.4,59.987686927202226,
forced,&&&&&&,left,fairness.vice,,,,,,,,0,14,14,158,,,,,,,,,,,,,,,,,,,,,LDT,left,0.35032447104458697,1,,,left,1,0.35032447104458697,,,,,,,,,,,,,,,,,,,,,,1044,2019_Mar_13_0950,mf_amp_cond2,3.0.4,59.987686927202226,
vurtain,&&&&&&&,right,nonword,,,,,,,,0,15,15,180,,,,,,,,,,,,,,,,,,,,,LDT,left,0.31697871518554166,0,,,left,0,0.31697871518554166,,,,,,,,,,,,,,,,,,,,,,1044,2019_Mar_13_0950,mf_amp_cond2,3.0.4,59.987686927202226,
were,&&&&,left,neutral,,,,,,,,0,16,16,22,,,,,,,,,,,,,,,,,,,,,LDT,left,0.3003106480464339,1,,,left,1,0.3003106480464339,,,,,,,,,,,,,,,,,,,,,,1044,2019_Mar_13_0950,mf_amp_cond2,3.0.4,59.987686927202226,
oam,&&&,right,nonword,,,,,,,,0,17,17,114,,,,,,,,,,,,,,,,,,,,,LDT,left,0.4336798804870341,0,,,left,0,0.4336798804870341,,,,,,,,,,,,,,,,,,,,,,1044,2019_Mar_13_0950,mf_amp_cond2,3.0.4,59.987686927202226,
care,&&&&,left,care.virtue,,,,,,,,0,18,18,71,,,,,,,,,,,,,,,,,,,,,LDT,right,0.5002411803870928,0,,,right,0,0.5002411803870928,,,,,,,,,,,,,,,,,,,,,,1044,2019_Mar_13_0950,mf_amp_cond2,3.0.4,59.987686927202226,
forty,&&&&&,left,neutral,,,,,,,,0,19,19,183,,,,,,,,,,,,,,,,,,,,,LDT,right,1.25055660714861,0,,,right,0,1.25055660714861,,,,,,,,,,,,,,,,,,,,,,1044,2019_Mar_13_0950,mf_amp_cond2,3.0.4,59.987686927202226,
done,&&&&,left,neutral,,,,,,,,0,20,20,40,,,,,,,,,,,,,,,,,,,,,LDT,left,0.4336834083951544,1,,,left,1,0.4336834083951544,,,,,,,,,,,,,,,,,,,,,,1044,2019_Mar_13_0950,mf_amp_cond2,3.0.4,59.987686927202226,
about,&&&&&,left,neutral,,,,,,,,0,21,21,55,,,,,,,,,,,,,,,,,,,,,LDT,right,0.6504029188072309,0,,,right,0,0.6504029188072309,,,,,,,,,,,,,,,,,,,,,,1044,2019_Mar_13_0950,mf_amp_cond2,3.0.4,59.987686927202226,
celebrated,&&&&&&&&&&,left,authority.virtue,,,,,,,,0,22,22,93,,,,,,,,,,,,,,,,,,,,,LDT,right,0.6003791535331402,0,,,right,0,0.6003791535331402,,,,,,,,,,,,,,,,,,,,,,1044,2019_Mar_13_0950,mf_amp_cond2,3.0.4,59.987686927202226,
tabin,&&&&&,right,nonword,,,,,,,,0,23,23,23,,,,,,,,,,,,,,,,,,,,,LDT,left,4.184538604575209,0,,,left,0,4.184538604575209,,,,,,,,,,,,,,,,,,,,,,1044,2019_Mar_13_0950,mf_amp_cond2,3.0.4,59.987686927202226,
erdest,&&&&&&,right,nonword,,,,,,,,0,24,24,82,,,,,,,,,,,,,,,,,,,,,LDT,left,5.001482682157075,0,,,left,0,5.001482682157075,,,,,,,,,,,,,,,,,,,,,,1044,2019_Mar_13_0950,mf_amp_cond2,3.0.4,59.987686927202226,
sexual,&&&&&&,left,sanctity.vice,,,,,,,,0,25,25,107,,,,,,,,,,,,,,,,,,,,,LDT,right,1.8007436181942467,0,,,right,0,1.8007436181942467,,,,,,,,,,,,,,,,,,,,,,1044,2019_Mar_13_0950,mf_amp_cond2,3.0.4,59.987686927202226,
gusinesslike,&&&&&&&&&&&&,right,nonword,,,,,,,,0,26,26,95,,,,,,,,,,,,,,,,,,,,,LDT,left,2.150765330850845,0,,,left,0,2.150765330850845,,,,,,,,,,,,,,,,,,,,,,1044,2019_Mar_13_0950,mf_amp_cond2,3.0.4,59.987686927202226,
alar,&&&&,right,nonword,,,,,,,,0,27,27,64,,,,,,,,,,,,,,,,,,,,,LDT,left,0.3336663461814169,0,,,left,0,0.3336663461814169,,,,,,,,,,,,,,,,,,,,,,1044,2019_Mar_13_0950,mf_amp_cond2,3.0.4,59.987686927202226,
killed,&&&&&&,left,care.vice,,,,,,,,0,28,28,108,,,,,,,,,,,,,,,,,,,,,LDT,left,0.4003408597491216,1,,,left,1,0.4003408597491216,,,,,,,,,,,,,,,,,,,,,,1044,2019_Mar_13_0950,mf_amp_cond2,3.0.4,59.987686927202226,
gondensed,&&&&&&&&&,right,nonword,,,,,,,,0,29,29,3,,,,,,,,,,,,,,,,,,,,,LDT,left,0.36703519374714233,0,,,left,0,0.36703519374714233,,,,,,,,,,,,,,,,,,,,,,1044,2019_Mar_13_0950,mf_amp_cond2,3.0.4,59.987686927202226,
corruption,&&&&&&&&&&,left,sanctity.vice,,,,,,,,0,30,30,162,,,,,,,,,,,,,,,,,,,,,LDT,left,0.9504755936213769,1,,,left,1,0.9504755936213769,,,,,,,,,,,,,,,,,,,,,,1044,2019_Mar_13_0950,mf_amp_cond2,3.0.4,59.987686927202226,
strength,&&&&&&&&,left,sanctity.virtue,,,,,,,,0,31,31,73,,,,,,,,,,,,,,,,,,,,,LDT,left,0.3669912552868482,1,,,left,1,0.3669912552868482,,,,,,,,,,,,,,,,,,,,,,1044,2019_Mar_13_0950,mf_amp_cond2,3.0.4,59.987686927202226,
interests,&&&&&&&&&,left,fairness.virtue,,,,,,,,0,32,32,8,,,,,,,,,,,,,,,,,,,,,LDT,left,0.8504697565513197,1,,,left,1,0.8504697565513197,,,,,,,,,,,,,,,,,,,,,,1044,2019_Mar_13_0950,mf_amp_cond2,3.0.4,59.987686927202226,
nonobservalt,&&&&&&&&&&&&,right,nonword,,,,,,,,0,33,33,197,,,,,,,,,,,,,,,,,,,,,LDT,left,0.3503254331590142,0,,,left,0,0.3503254331590142,,,,,,,,,,,,,,,,,,,,,,1044,2019_Mar_13_0950,mf_amp_cond2,3.0.4,59.987686927202226,
lenon,&&&&&,right,nonword,,,,,,,,0,34,34,138,,,,,,,,,,,,,,,,,,,,,LDT,right,0.5503428802767303,1,,,right,1,0.5503428802767303,,,,,,,,,,,,,,,,,,,,,,1044,2019_Mar_13_0950,mf_amp_cond2,3.0.4,59.987686927202226,
tove,&&&&,right,nonword,,,,,,,,0,35,35,80,,,,,,,,,,,,,,,,,,,,,LDT,left,0.35033024396398105,0,,,left,0,0.35033024396398105,,,,,,,,,,,,,,,,,,,,,,1044,2019_Mar_13_0950,mf_amp_cond2,3.0.4,59.987686927202226,
greaks,&&&&&&,right,nonword,,,,,,,,0,36,36,192,,,,,,,,,,,,,,,,,,,,,LDT,right,0.9671503958525136,1,,,right,1,0.9671503958525136,,,,,,,,,,,,,,,,,,,,,,1044,2019_Mar_13_0950,mf_amp_cond2,3.0.4,59.987686927202226,
fighters,&&&&&&&&,left,authority.vice,,,,,,,,0,37,37,66,,,,,,,,,,,,,,,,,,,,,LDT,left,0.4003363696683664,1,,,left,1,0.4003363696683664,,,,,,,,,,,,,,,,,,,,,,1044,2019_Mar_13_0950,mf_amp_cond2,3.0.4,59.987686927202226,
ittutable,&&&&&&&&&,right,nonword,,,,,,,,0,38,38,132,,,,,,,,,,,,,,,,,,,,,LDT,left,0.35033697905601,0,,,left,0,0.35033697905601,,,,,,,,,,,,,,,,,,,,,,1044,2019_Mar_13_0950,mf_amp_cond2,3.0.4,59.987686927202226,
besides,&&&&&&&,left,neutral,,,,,,,,0,39,39,110,,,,,,,,,,,,,,,,,,,,,LDT,left,1.9673851619008929,1,,,left,1,1.9673851619008929,,,,,,,,,,,,,,,,,,,,,,1044,2019_Mar_13_0950,mf_amp_cond2,3.0.4,59.987686927202226,
forepo,&&&&&&,right,nonword,,,,,,,,0,40,40,49,,,,,,,,,,,,,,,,,,,,,LDT,left,1.483960862067761,0,,,left,0,1.483960862067761,,,,,,,,,,,,,,,,,,,,,,1044,2019_Mar_13_0950,mf_amp_cond2,3.0.4,59.987686927202226,
seem,&&&&,left,neutral,,,,,,,,0,41,41,36,,,,,,,,,,,,,,,,,,,,,LDT,left,0.667073551681824,1,,,left,1,0.667073551681824,,,,,,,,,,,,,,,,,,,,,,1044,2019_Mar_13_0950,mf_amp_cond2,3.0.4,59.987686927202226,
been,&&&&,left,neutral,,,,,,,,0,42,42,39,,,,,,,,,,,,,,,,,,,,,LDT,left,2.4842203234147746,1,,,left,1,2.4842203234147746,,,,,,,,,,,,,,,,,,,,,,1044,2019_Mar_13_0950,mf_amp_cond2,3.0.4,59.987686927202226,
perified,&&&&&&&&,right,nonword,,,,,,,,0,43,43,185,,,,,,,,,,,,,,,,,,,,,LDT,right,1.000492303079227,1,,,right,1,1.000492303079227,,,,,,,,,,,,,,,,,,,,,,1044,2019_Mar_13_0950,mf_amp_cond2,3.0.4,59.987686927202226,
amount,&&&&&&,left,neutral,,,,,,,,0,44,44,44,,,,,,,,,,,,,,,,,,,,,LDT,left,0.6669452642381657,1,,,left,1,0.6669452642381657,,,,,,,,,,,,,,,,,,,,,,1044,2019_Mar_13_0950,mf_amp_cond2,3.0.4,59.987686927202226,
Cunday,&&&&&&,None,nonword,,,,,,,,0,45,45,150,,,,,,,,,,,,,,,,,,,,,LDT,left,2.067451614799211,0,,,left,0,2.067451614799211,,,,,,,,,,,,,,,,,,,,,,1044,2019_Mar_13_0950,mf_amp_cond2,3.0.4,59.987686927202226,
eight,&&&&&,left,neutral,,,,,,,,0,46,46,151,,,,,,,,,,,,,,,,,,,,,LDT,left,0.3503427519754041,1,,,left,1,0.3503427519754041,,,,,,,,,,,,,,,,,,,,,,1044,2019_Mar_13_0950,mf_amp_cond2,3.0.4,59.987686927202226,
ugeasily,&&&&&&&&,right,nonword,,,,,,,,0,47,47,174,,,,,,,,,,,,,,,,,,,,,LDT,left,0.4170156619802583,0,,,left,0,0.4170156619802583,,,,,,,,,,,,,,,,,,,,,,1044,2019_Mar_13_0950,mf_amp_cond2,3.0.4,59.987686927202226,
rejected,&&&&&&&&,left,authority.vice,,,,,,,,0,48,48,58,,,,,,,,,,,,,,,,,,,,,LDT,left,0.3169944304099772,1,,,left,1,0.3169944304099772,,,,,,,,,,,,,,,,,,,,,,1044,2019_Mar_13_0950,mf_amp_cond2,3.0.4,59.987686927202226,
pharing,&&&&&&&,right,nonword,,,,,,,,0,49,49,77,,,,,,,,,,,,,,,,,,,,,LDT,right,0.9004810137848835,1,,,right,1,0.9004810137848835,,,,,,,,,,,,,,,,,,,,,,1044,2019_Mar_13_0950,mf_amp_cond2,3.0.4,59.987686927202226,
ablow,&&&&&,right,nonword,,,,,,,,0,50,50,50,,,,,,,,,,,,,,,,,,,,,LDT,right,0.4170028332155198,1,,,right,1,0.4170028332155198,,,,,,,,,,,,,,,,,,,,,,1044,2019_Mar_13_0950,mf_amp_cond2,3.0.4,59.987686927202226,
fraud,&&&&&,left,fairness.vice,,,,,,,,0,51,51,91,,,,,,,,,,,,,,,,,,,,,LDT,right,0.4003376525652129,0,,,right,0,0.4003376525652129,,,,,,,,,,,,,,,,,,,,,,1044,2019_Mar_13_0950,mf_amp_cond2,3.0.4,59.987686927202226,
nomparisons,&&&&&&&&&&&,right,nonword,,,,,,,,0,52,52,86,,,,,,,,,,,,,,,,,,,,,LDT,right,0.3669845201948192,1,,,right,1,0.3669845201948192,,,,,,,,,,,,,,,,,,,,,,1044,2019_Mar_13_0950,mf_amp_cond2,3.0.4,59.987686927202226,
victim,&&&&&&,left,care.vice,,,,,,,,0,53,53,21,,,,,,,,,,,,,,,,,,,,,LDT,right,0.4170307357562706,0,,,right,0,0.4170307357562706,,,,,,,,,,,,,,,,,,,,,,1044,2019_Mar_13_0950,mf_amp_cond2,3.0.4,59.987686927202226,
viscs,&&&&&,None,nonword,,,,,,,,0,54,54,159,,,,,,,,,,,,,,,,,,,,,LDT,right,2.117332980997162,0,,,right,0,2.117332980997162,,,,,,,,,,,,,,,,,,,,,,1044,2019_Mar_13_0950,mf_amp_cond2,3.0.4,59.987686927202226,
rorroborated,&&&&&&&&&&&&,right,nonword,,,,,,,,0,55,55,4,,,,,,,,,,,,,,,,,,,,,LDT,right,0.4002048750407994,1,,,right,1,0.4002048750407994,,,,,,,,,,,,,,,,,,,,,,1044,2019_Mar_13_0950,mf_amp_cond2,3.0.4,59.987686927202226,
coom,&&&&,right,nonword,,,,,,,,0,56,56,54,,,,,,,,,,,,,,,,,,,,,LDT,right,0.3503312061075121,1,,,right,1,0.3503312061075121,,,,,,,,,,,,,,,,,,,,,,1044,2019_Mar_13_0950,mf_amp_cond2,3.0.4,59.987686927202226,
further,&&&&&&&,left,neutral,,,,,,,,0,57,57,18,,,,,,,,,,,,,,,,,,,,,LDT,right,0.6504074088588823,0,,,right,0,0.6504074088588823,,,,,,,,,,,,,,,,,,,,,,1044,2019_Mar_13_0950,mf_amp_cond2,3.0.4,59.987686927202226,
gikely,&&&&&&,right,nonword,,,,,,,,0,58,58,157,,,,,,,,,,,,,,,,,,,,,LDT,right,0.3503392240672838,1,,,right,1,0.3503392240672838,,,,,,,,,,,,,,,,,,,,,,1044,2019_Mar_13_0950,mf_amp_cond2,3.0.4,59.987686927202226,
divility,&&&&&&&&,right,nonword,,,,,,,,0,59,59,120,,,,,,,,,,,,,,,,,,,,,LDT,right,0.36699317960301414,1,,,right,1,0.36699317960301414,,,,,,,,,,,,,,,,,,,,,,1044,2019_Mar_13_0950,mf_amp_cond2,3.0.4,59.987686927202226,
also,&&&&,left,neutral,,,,,,,,0,60,60,163,,,,,,,,,,,,,,,,,,,,,LDT,right,0.38367888625361957,0,,,right,0,0.38367888625361957,,,,,,,,,,,,,,,,,,,,,,1044,2019_Mar_13_0950,mf_amp_cond2,3.0.4,59.987686927202226,
strofe,&&&&&&,right,nonword,,,,,,,,0,61,61,170,,,,,,,,,,,,,,,,,,,,,LDT,right,0.3669954246142879,1,,,right,1,0.3669954246142879,,,,,,,,,,,,,,,,,,,,,,1044,2019_Mar_13_0950,mf_amp_cond2,3.0.4,59.987686927202226,
ban,&&&,left,loyalty.vice,,,,,,,,0,62,62,145,,,,,,,,,,,,,,,,,,,,,LDT,left,0.40032193734077737,1,,,left,1,0.40032193734077737,,,,,,,,,,,,,,,,,,,,,,1044,2019_Mar_13_0950,mf_amp_cond2,3.0.4,59.987686927202226,
papert,&&&&&&,right,nonword,,,,,,,,0,63,63,128,,,,,,,,,,,,,,,,,,,,,LDT,left,0.6337358138116542,0,,,left,0,0.6337358138116542,,,,,,,,,,,,,,,,,,,,,,1044,2019_Mar_13_0950,mf_amp_cond2,3.0.4,59.987686927202226,
slavery,&&&&&&&,left,loyalty.vice,,,,,,,,0,64,64,144,,,,,,,,,,,,,,,,,,,,,LDT,right,0.10029640817083418,0,,,right,0,0.10029640817083418,,,,,,,,,,,,,,,,,,,,,,1044,2019_Mar_13_0950,mf_amp_cond2,3.0.4,59.987686927202226,
frojecting,&&&&&&&&&&,right,nonword,,,,,,,,0,65,65,19,,,,,,,,,,,,,,,,,,,,,LDT,right,0.15029002583469264,1,,,right,1,0.15029002583469264,,,,,,,,,,,,,,,,,,,,,,1044,2019_Mar_13_0950,mf_amp_cond2,3.0.4,59.987686927202226,
with,&&&&,left,neutral,,,,,,,,0,66,66,92,,,,,,,,,,,,,,,,,,,,,LDT,right,0.20027113551623188,0,,,right,0,0.20027113551623188,,,,,,,,,,,,,,,,,,,,,,1044,2019_Mar_13_0950,mf_amp_cond2,3.0.4,59.987686927202226,
drumbled,&&&&&&&&,right,nonword,,,,,,,,0,67,67,69,,,,,,,,,,,,,,,,,,,,,LDT,right,0.5837046720262151,1,,,right,1,0.5837046720262151,,,,,,,,,,,,,,,,,,,,,,1044,2019_Mar_13_0950,mf_amp_cond2,3.0.4,59.987686927202226,
fonderland,&&&&&&&&&&,right,nonword,,,,,,,,0,68,68,24,,,,,,,,,,,,,,,,,,,,,LDT,right,5.018140165571822,1,,,right,1,5.018140165571822,,,,,,,,,,,,,,,,,,,,,,1044,2019_Mar_13_0950,mf_amp_cond2,3.0.4,59.987686927202226,
peace,&&&&&,left,care.virtue,,,,,,,,0,69,69,33,,,,,,,,,,,,,,,,,,,,,LDT,right,0.8170964189048391,0,,,right,0,0.8170964189048391,,,,,,,,,,,,,,,,,,,,,,1044,2019_Mar_13_0950,mf_amp_cond2,3.0.4,59.987686927202226,
else,&&&&,left,neutral,,,,,,,,0,70,70,41,,,,,,,,,,,,,,,,,,,,,LDT,right,0.800449839909561,0,,,right,0,0.800449839909561,,,,,,,,,,,,,,,,,,,,,,1044,2019_Mar_13_0950,mf_amp_cond2,3.0.4,59.987686927202226,
give,&&&&,left,neutral,,,,,,,,0,71,71,195,,,,,,,,,,,,,,,,,,,,,LDT,right,0.6003807571541984,0,,,right,0,0.6003807571541984,,,,,,,,,,,,,,,,,,,,,,1044,2019_Mar_13_0950,mf_amp_cond2,3.0.4,59.987686927202226,
emports,&&&&&&&,right,nonword,,,,,,,,0,72,72,2,,,,,,,,,,,,,,,,,,,,,LDT,right,0.6337268336792476,1,,,right,1,0.6337268336792476,,,,,,,,,,,,,,,,,,,,,,1044,2019_Mar_13_0950,mf_amp_cond2,3.0.4,59.987686927202226,
thadowed,&&&&&&&&,right,nonword,,,,,,,,0,73,73,152,,,,,,,,,,,,,,,,,,,,,LDT,right,1.0171562008617911,1,,,right,1,1.0171562008617911,,,,,,,,,,,,,,,,,,,,,,1044,2019_Mar_13_0950,mf_amp_cond2,3.0.4,59.987686927202226,
violence,&&&&&&&&,left,care.vice,,,,,,,,0,74,74,56,,,,,,,,,,,,,,,,,,,,,LDT,right,0.6504080502782017,0,,,right,0,0.6504080502782017,,,,,,,,,,,,,,,,,,,,,,1044,2019_Mar_13_0950,mf_amp_cond2,3.0.4,59.987686927202226,
troubla,&&&&&&&,right,nonword,,,,,,,,0,75,75,0,,,,,,,,,,,,,,,,,,,,,LDT,right,0.2836400151718408,1,,,right,1,0.2836400151718408,,,,,,,,,,,,,,,,,,,,,,1044,2019_Mar_13_0950,mf_amp_cond2,3.0.4,59.987686927202226,
crinking,&&&&&&&&,right,nonword,,,,,,,,0,76,76,113,,,,,,,,,,,,,,,,,,,,,LDT,right,0.3836673403857276,1,,,right,1,0.3836673403857276,,,,,,,,,,,,,,,,,,,,,,1044,2019_Mar_13_0950,mf_amp_cond2,3.0.4,59.987686927202226,
frocessing,&&&&&&&&&&,right,nonword,,,,,,,,0,77,77,67,,,,,,,,,,,,,,,,,,,,,LDT,right,0.40033348320866935,1,,,right,1,0.40033348320866935,,,,,,,,,,,,,,,,,,,,,,1044,2019_Mar_13_0950,mf_amp_cond2,3.0.4,59.987686927202226,
gedious,&&&&&&&,right,nonword,,,,,,,,0,78,78,188,,,,,,,,,,,,,,,,,,,,,LDT,right,0.2502814305771608,1,,,right,1,0.2502814305771608,,,,,,,,,,,,,,,,,,,,,,1044,2019_Mar_13_0950,mf_amp_cond2,3.0.4,59.987686927202226,
saned,&&&&&,None,nonword,,,,,,,,0,79,79,167,,,,,,,,,,,,,,,,,,,,,LDT,right,0.3503308853833005,0,,,right,0,0.3503308853833005,,,,,,,,,,,,,,,,,,,,,,1044,2019_Mar_13_0950,mf_amp_cond2,3.0.4,59.987686927202226,
friends,&&&&&&&,left,loyalty.virtue,,,,,,,,0,80,80,74,,,,,,,,,,,,,,,,,,,,,LDT,right,0.3836217983334791,0,,,right,0,0.3836217983334791,,,,,,,,,,,,,,,,,,,,,,1044,2019_Mar_13_0950,mf_amp_cond2,3.0.4,59.987686927202226,
epigrach,&&&&&&&&,right,nonword,,,,,,,,0,81,81,32,,,,,,,,,,,,,,,,,,,,,LDT,right,10.769523906026734,1,,,right,1,10.769523906026734,,,,,,,,,,,,,,,,,,,,,,1044,2019_Mar_13_0950,mf_amp_cond2,3.0.4,59.987686927202226,
sharing,&&&&&&&,left,loyalty.virtue,,,,,,,,0,82,82,6,,,,,,,,,,,,,,,,,,,,,LDT,left,0.46702082554111257,1,,,left,1,0.46702082554111257,,,,,,,,,,,,,,,,,,,,,,1044,2019_Mar_13_0950,mf_amp_cond2,3.0.4,59.987686927202226,
died,&&&&,left,care.vice,,,,,,,,0,83,83,141,,,,,,,,,,,,,,,,,,,,,LDT,left,0.2669536670728121,1,,,left,1,0.2669536670728121,,,,,,,,,,,,,,,,,,,,,,1044,2019_Mar_13_0950,mf_amp_cond2,3.0.4,59.987686927202226,
crime,&&&&&,left,fairness.vice,,,,,,,,0,84,84,12,,,,,,,,,,,,,,,,,,,,,LDT,left,0.23364254884654656,1,,,left,1,0.23364254884654656,,,,,,,,,,,,,,,,,,,,,,1044,2019_Mar_13_0950,mf_amp_cond2,3.0.4,59.987686927202226,
prosecution,&&&&&&&&&&&,left,authority.vice,,,,,,,,0,85,85,118,,,,,,,,,,,,,,,,,,,,,LDT,left,0.35032671605586074,1,,,left,1,0.35032671605586074,,,,,,,,,,,,,,,,,,,,,,1044,2019_Mar_13_0950,mf_amp_cond2,3.0.4,59.987686927202226,
reprisols,&&&&&&&&&,right,nonword,,,,,,,,0,86,86,109,,,,,,,,,,,,,,,,,,,,,LDT,left,1.6840068531164434,0,,,left,0,1.6840068531164434,,,,,,,,,,,,,,,,,,,,,,1044,2019_Mar_13_0950,mf_amp_cond2,3.0.4,59.987686927202226,
refuejing,&&&&&&&&&,right,nonword,,,,,,,,0,87,87,5,,,,,,,,,,,,,,,,,,,,,LDT,left,0.43369206780334935,0,,,left,0,0.43369206780334935,,,,,,,,,,,,,,,,,,,,,,1044,2019_Mar_13_0950,mf_amp_cond2,3.0.4,59.987686927202226,
therefore,&&&&&&&&&,left,neutral,,,,,,,,0,88,88,61,,,,,,,,,,,,,,,,,,,,,LDT,left,0.483694986323826,1,,,left,1,0.483694986323826,,,,,,,,,,,,,,,,,,,,,,1044,2019_Mar_13_0950,mf_amp_cond2,3.0.4,59.987686927202226,
shoirmaster,&&&&&&&&&&&,right,nonword,,,,,,,,0,89,89,65,,,,,,,,,,,,,,,,,,,,,LDT,left,0.5170333656424191,0,,,left,0,0.5170333656424191,,,,,,,,,,,,,,,,,,,,,,1044,2019_Mar_13_0950,mf_amp_cond2,3.0.4,59.987686927202226,
safe,&&&&,left,care.virtue,,,,,,,,0,90,90,96,,,,,,,,,,,,,,,,,,,,,LDT,left,0.5503749521449208,1,,,left,1,0.5503749521449208,,,,,,,,,,,,,,,,,,,,,,1044,2019_Mar_13_0950,mf_amp_cond2,3.0.4,59.987686927202226,
whither,&&&&&&&,left,neutral,,,,,,,,0,91,91,187,,,,,,,,,,,,,,,,,,,,,LDT,left,0.6337826387316454,1,,,left,1,0.6337826387316454,,,,,,,,,,,,,,,,,,,,,,1044,2019_Mar_13_0950,mf_amp_cond2,3.0.4,59.987686927202226,
edancipation,&&&&&&&&&&&&,None,nonword,,,,,,,,0,92,92,131,,,,,,,,,,,,,,,,,,,,,LDT,left,0.6003727391653229,0,,,left,0,0.6003727391653229,,,,,,,,,,,,,,,,,,,,,,1044,2019_Mar_13_0950,mf_amp_cond2,3.0.4,59.987686927202226,
gationwide,&&&&&&&&&&,right,nonword,,,,,,,,0,93,93,166,,,,,,,,,,,,,,,,,,,,,LDT,left,0.5337302974658087,0,,,left,0,0.5337302974658087,,,,,,,,,,,,,,,,,,,,,,1044,2019_Mar_13_0950,mf_amp_cond2,3.0.4,59.987686927202226,
freedom,&&&&&&&,left,sanctity.virtue,,,,,,,,0,94,94,46,,,,,,,,,,,,,,,,,,,,,LDT,left,0.6837339215853717,1,,,left,1,0.6837339215853717,,,,,,,,,,,,,,,,,,,,,,1044,2019_Mar_13_0950,mf_amp_cond2,3.0.4,59.987686927202226,
reviked,&&&&&&&,right,nonword,,,,,,,,0,95,95,126,,,,,,,,,,,,,,,,,,,,,LDT,left,0.7670970282924827,0,,,left,0,0.7670970282924827,,,,,,,,,,,,,,,,,,,,,,1044,2019_Mar_13_0950,mf_amp_cond2,3.0.4,59.987686927202226,
both,&&&&,left,neutral,,,,,,,,0,96,96,194,,,,,,,,,,,,,,,,,,,,,LDT,left,0.3836695854261052,1,,,left,1,0.3836695854261052,,,,,,,,,,,,,,,,,,,,,,1044,2019_Mar_13_0950,mf_amp_cond2,3.0.4,59.987686927202226,
totalestic,&&&&&&&&&&,None,nonword,,,,,,,,0,97,97,142,,,,,,,,,,,,,,,,,,,,,LDT,left,0.5503739899722859,0,,,left,0,0.5503739899722859,,,,,,,,,,,,,,,,,,,,,,1044,2019_Mar_13_0950,mf_amp_cond2,3.0.4,59.987686927202226,
pistraught,&&&&&&&&&&,right,nonword,,,,,,,,0,98,98,30,,,,,,,,,,,,,,,,,,,,,LDT,left,0.28366438977536745,0,,,left,0,0.28366438977536745,,,,,,,,,,,,,,,,,,,,,,1044,2019_Mar_13_0950,mf_amp_cond2,3.0.4,59.987686927202226,
hatigue,&&&&&&&,right,nonword,,,,,,,,0,99,99,171,,,,,,,,,,,,,,,,,,,,,LDT,left,0.1836251979402732,0,,,left,0,0.1836251979402732,,,,,,,,,,,,,,,,,,,,,,1044,2019_Mar_13_0950,mf_amp_cond2,3.0.4,59.987686927202226,
opportunity,&&&&&&&&&&&,left,fairness.virtue,,,,,,,,0,100,100,154,,,,,,,,,,,,,,,,,,,,,LDT,left,0.2669671372277662,1,,,left,1,0.2669671372277662,,,,,,,,,,,,,,,,,,,,,,1044,2019_Mar_13_0950,mf_amp_cond2,3.0.4,59.987686927202226,
respect,&&&&&&&,left,sanctity.virtue,,,,,,,,0,101,101,134,,,,,,,,,,,,,,,,,,,,,LDT,left,0.35032767822849564,1,,,left,1,0.35032767822849564,,,,,,,,,,,,,,,,,,,,,,1044,2019_Mar_13_0950,mf_amp_cond2,3.0.4,59.987686927202226,
somehow,&&&&&&&,left,neutral,,,,,,,,0,102,102,52,,,,,,,,,,,,,,,,,,,,,LDT,right,0.7837808106269222,0,,,right,0,0.7837808106269222,,,,,,,,,,,,,,,,,,,,,,1044,2019_Mar_13_0950,mf_amp_cond2,3.0.4,59.987686927202226,
chadows,&&&&&&&,right,nonword,,,,,,,,0,103,103,164,,,,,,,,,,,,,,,,,,,,,LDT,left,1.0171555594424717,0,,,left,0,1.0171555594424717,,,,,,,,,,,,,,,,,,,,,,1044,2019_Mar_13_0950,mf_amp_cond2,3.0.4,59.987686927202226,
counpy's,&&&&&&&&,right,nonword,,,,,,,,0,104,104,45,,,,,,,,,,,,,,,,,,,,,LDT,right,0.3003221939143259,1,,,right,1,0.3003221939143259,,,,,,,,,,,,,,,,,,,,,,1044,2019_Mar_13_0950,mf_amp_cond2,3.0.4,59.987686927202226,
abointment,&&&&&&&&&&,right,nonword,,,,,,,,0,105,105,186,,,,,,,,,,,,,,,,,,,,,LDT,right,0.6170658223563805,1,,,right,1,0.6170658223563805,,,,,,,,,,,,,,,,,,,,,,1044,2019_Mar_13_0950,mf_amp_cond2,3.0.4,59.987686927202226,
useful,&&&&&&,left,authority.virtue,,,,,,,,0,106,106,191,,,,,,,,,,,,,,,,,,,,,LDT,right,0.567066752439132,0,,,right,0,0.567066752439132,,,,,,,,,,,,,,,,,,,,,,1044,2019_Mar_13_0950,mf_amp_cond2,3.0.4,59.987686927202226,
noone,&&&&&,left,neutral,,,,,,,,0,107,107,139,,,,,,,,,,,,,,,,,,,,,LDT,right,0.25034204640542157,0,,,right,0,0.25034204640542157,,,,,,,,,,,,,,,,,,,,,,1044,2019_Mar_13_0950,mf_amp_cond2,3.0.4,59.987686927202226,
fifteen,&&&&&&&,left,neutral,,,,,,,,0,108,108,181,,,,,,,,,,,,,,,,,,,,,LDT,right,0.2336361344496254,0,,,right,0,0.2336361344496254,,,,,,,,,,,,,,,,,,,,,,1044,2019_Mar_13_0950,mf_amp_cond2,3.0.4,59.987686927202226,
elsewhere,&&&&&&&&&,left,neutral,,,,,,,,0,109,109,143,,,,,,,,,,,,,,,,,,,,,LDT,right,0.20026696618879214,0,,,right,0,0.20026696618879214,,,,,,,,,,,,,,,,,,,,,,1044,2019_Mar_13_0950,mf_amp_cond2,3.0.4,59.987686927202226,
accused,&&&&&&&,left,fairness.vice,,,,,,,,0,110,110,133,,,,,,,,,,,,,,,,,,,,,LDT,right,0.05026430421276018,0,,,right,0,0.05026430421276018,,,,,,,,,,,,,,,,,,,,,,1044,2019_Mar_13_0950,mf_amp_cond2,3.0.4,59.987686927202226,
perfect,&&&&&&&,left,sanctity.virtue,,,,,,,,0,111,111,59,,,,,,,,,,,,,,,,,,,,,LDT,right,0.133638956816867,0,,,right,0,0.133638956816867,,,,,,,,,,,,,,,,,,,,,,1044,2019_Mar_13_0950,mf_amp_cond2,3.0.4,59.987686927202226,
although,&&&&&&&&,left,neutral,,,,,,,,0,112,112,38,,,,,,,,,,,,,,,,,,,,,LDT,right,0.050250513304490596,0,,,right,0,0.050250513304490596,,,,,,,,,,,,,,,,,,,,,,1044,2019_Mar_13_0950,mf_amp_cond2,3.0.4,59.987686927202226,
serial,&&&&&&,left,sanctity.vice,,,,,,,,0,113,113,129,,,,,,,,,,,,,,,,,,,,,LDT,right,0.30032155249500647,0,,,right,0,0.30032155249500647,,,,,,,,,,,,,,,,,,,,,,1044,2019_Mar_13_0950,mf_amp_cond2,3.0.4,59.987686927202226,
good,&&&&,left,care.virtue,,,,,,,,0,114,114,193,,,,,,,,,,,,,,,,,,,,,LDT,right,0.3336679497442674,0,,,right,0,0.3336679497442674,,,,,,,,,,,,,,,,,,,,,,1044,2019_Mar_13_0950,mf_amp_cond2,3.0.4,59.987686927202226,
fear,&&&&,left,sanctity.vice,,,,,,,,0,115,115,116,,,,,,,,,,,,,,,,,,,,,LDT,right,0.33368943791720085,0,,,right,0,0.33368943791720085,,,,,,,,,,,,,,,,,,,,,,1044,2019_Mar_13_0950,mf_amp_cond2,3.0.4,59.987686927202226,
tenuflect,&&&&&&&&&,right,nonword,,,,,,,,0,116,116,87,,,,,,,,,,,,,,,,,,,,,LDT,right,1.5506257541128434,1,,,right,1,1.5506257541128434,,,,,,,,,,,,,,,,,,,,,,1044,2019_Mar_13_0950,mf_amp_cond2,3.0.4,59.987686927202226,
three,&&&&&,left,neutral,,,,,,,,0,117,117,115,,,,,,,,,,,,,,,,,,,,,LDT,right,0.6504000323475339,0,,,right,0,0.6504000323475339,,,,,,,,,,,,,,,,,,,,,,1044,2019_Mar_13_0950,mf_amp_cond2,3.0.4,59.987686927202226,
erks,&&&&,right,nonword,,,,,,,,0,118,118,175,,,,,,,,,,,,,,,,,,,,,LDT,right,0.48371968168066815,1,,,right,1,0.48371968168066815,,,,,,,,,,,,,,,,,,,,,,1044,2019_Mar_13_0950,mf_amp_cond2,3.0.4,59.987686927202226,
less,&&&&,left,neutral,,,,,,,,0,119,119,146,,,,,,,,,,,,,,,,,,,,,LDT,right,0.5170413836021908,0,,,right,0,0.5170413836021908,,,,,,,,,,,,,,,,,,,,,,1044,2019_Mar_13_0950,mf_amp_cond2,3.0.4,59.987686927202226,
mostly,&&&&&&,left,neutral,,,,,,,,0,120,120,29,,,,,,,,,,,,,,,,,,,,,LDT,right,0.2669879839522764,0,,,right,0,0.2669879839522764,,,,,,,,,,,,,,,,,,,,,,1044,2019_Mar_13_0950,mf_amp_cond2,3.0.4,59.987686927202226,
smapper,&&&&&&&,right,nonword,,,,,,,,0,121,121,160,,,,,,,,,,,,,,,,,,,,,LDT,right,0.2169616529427003,1,,,right,1,0.2169616529427003,,,,,,,,,,,,,,,,,,,,,,1044,2019_Mar_13_0950,mf_amp_cond2,3.0.4,59.987686927202226,
suicide,&&&&&&&,left,care.vice,,,,,,,,0,122,122,28,,,,,,,,,,,,,,,,,,,,,LDT,right,0.23363773804157972,0,,,right,0,0.23363773804157972,,,,,,,,,,,,,,,,,,,,,,1044,2019_Mar_13_0950,mf_amp_cond2,3.0.4,59.987686927202226,
fifty,&&&&&,left,neutral,,,,,,,,0,123,123,136,,,,,,,,,,,,,,,,,,,,,LDT,right,0.2503038808936253,0,,,right,0,0.2503038808936253,,,,,,,,,,,,,,,,,,,,,,1044,2019_Mar_13_0950,mf_amp_cond2,3.0.4,59.987686927202226,
front,&&&&&,left,neutral,,,,,,,,0,124,124,196,,,,,,,,,,,,,,,,,,,,,LDT,right,0.15028264932334423,0,,,right,0,0.15028264932334423,,,,,,,,,,,,,,,,,,,,,,1044,2019_Mar_13_0950,mf_amp_cond2,3.0.4,59.987686927202226,
asn,&&&,right,nonword,,,,,,,,0,125,125,137,,,,,,,,,,,,,,,,,,,,,LDT,right,0.2502628288930282,1,,,right,1,0.2502628288930282,,,,,,,,,,,,,,,,,,,,,,1044,2019_Mar_13_0950,mf_amp_cond2,3.0.4,59.987686927202226,
framatic,&&&&&&&&,right,nonword,,,,,,,,0,126,126,189,,,,,,,,,,,,,,,,,,,,,LDT,right,0.15034198225475848,1,,,right,1,0.15034198225475848,,,,,,,,,,,,,,,,,,,,,,1044,2019_Mar_13_0950,mf_amp_cond2,3.0.4,59.987686927202226,
least,&&&&&,left,neutral,,,,,,,,0,127,127,26,,,,,,,,,,,,,,,,,,,,,LDT,right,0.28365027817199007,0,,,right,0,0.28365027817199007,,,,,,,,,,,,,,,,,,,,,,1044,2019_Mar_13_0950,mf_amp_cond2,3.0.4,59.987686927202226,
even,&&&&,left,neutral,,,,,,,,0,128,128,10,,,,,,,,,,,,,,,,,,,,,LDT,right,0.1169436285563279,0,,,right,0,0.1169436285563279,,,,,,,,,,,,,,,,,,,,,,1044,2019_Mar_13_0950,mf_amp_cond2,3.0.4,59.987686927202226,
agreement,&&&&&&&&&,left,fairness.virtue,,,,,,,,0,129,129,172,,,,,,,,,,,,,,,,,,,,,LDT,right,0.1502778385183774,0,,,right,0,0.1502778385183774,,,,,,,,,,,,,,,,,,,,,,1044,2019_Mar_13_0950,mf_amp_cond2,3.0.4,59.987686927202226,
conspiracy,&&&&&&&&&&,left,sanctity.vice,,,,,,,,0,130,130,16,,,,,,,,,,,,,,,,,,,,,LDT,right,0.3002801797701977,0,,,right,0,0.3002801797701977,,,,,,,,,,,,,,,,,,,,,,1044,2019_Mar_13_0950,mf_amp_cond2,3.0.4,59.987686927202226,
leact,&&&&&,right,nonword,,,,,,,,0,131,131,100,,,,,,,,,,,,,,,,,,,,,LDT,right,0.08362192663480528,1,,,right,1,0.08362192663480528,,,,,,,,,,,,,,,,,,,,,,1044,2019_Mar_13_0950,mf_amp_cond2,3.0.4,59.987686927202226,
emassion,&&&&&&&&,right,nonword,,,,,,,,0,132,132,123,,,,,,,,,,,,,,,,,,,,,LDT,right,0.06689997875946574,1,,,right,1,0.06689997875946574,,,,,,,,,,,,,,,,,,,,,,1044,2019_Mar_13_0950,mf_amp_cond2,3.0.4,59.987686927202226,
gazily,&&&&&&,right,nonword,,,,,,,,0,133,133,37,,,,,,,,,,,,,,,,,,,,,LDT,right,0.16696803524973802,1,,,right,1,0.16696803524973802,,,,,,,,,,,,,,,,,,,,,,1044,2019_Mar_13_0950,mf_amp_cond2,3.0.4,59.987686927202226,
hereby,&&&&&&,left,neutral,,,,,,,,0,134,134,53,,,,,,,,,,,,,,,,,,,,,LDT,right,0.7170822431507986,0,,,right,0,0.7170822431507986,,,,,,,,,,,,,,,,,,,,,,1044,2019_Mar_13_0950,mf_amp_cond2,3.0.4,59.987686927202226,
crilfully,&&&&&&&&&,right,nonword,,,,,,,,0,135,135,199,,,,,,,,,,,,,,,,,,,,,LDT,right,0.13361137500032783,1,,,right,1,0.13361137500032783,,,,,,,,,,,,,,,,,,,,,,1044,2019_Mar_13_0950,mf_amp_cond2,3.0.4,59.987686927202226,
bruthfulness,&&&&&&&&&&&&,right,nonword,,,,,,,,0,136,136,112,,,,,,,,,,,,,,,,,,,,,LDT,right,0.15027847996680066,1,,,right,1,0.15027847996680066,,,,,,,,,,,,,,,,,,,,,,1044,2019_Mar_13_0950,mf_amp_cond2,3.0.4,59.987686927202226,
chreams,&&&&&&&,right,nonword,,,,,,,,0,137,137,182,,,,,,,,,,,,,,,,,,,,,LDT,right,1.2338782770384569,1,,,right,1,1.2338782770384569,,,,,,,,,,,,,,,,,,,,,,1044,2019_Mar_13_0950,mf_amp_cond2,3.0.4,59.987686927202226,
dormandi,&&&&&&&&,None,nonword,,,,,,,,0,138,138,75,,,,,,,,,,,,,,,,,,,,,LDT,right,0.3500727069331333,0,,,right,0,0.3500727069331333,,,,,,,,,,,,,,,,,,,,,,1044,2019_Mar_13_0950,mf_amp_cond2,3.0.4,59.987686927202226,
brudent,&&&&&&&,right,nonword,,,,,,,,0,139,139,78,,,,,,,,,,,,,,,,,,,,,LDT,right,0.45035179625847377,1,,,right,1,0.45035179625847377,,,,,,,,,,,,,,,,,,,,,,1044,2019_Mar_13_0950,mf_amp_cond2,3.0.4,59.987686927202226,
anything,&&&&&&&&,left,neutral,,,,,,,,0,140,140,119,,,,,,,,,,,,,,,,,,,,,LDT,right,0.6835870324575808,0,,,right,0,0.6835870324575808,,,,,,,,,,,,,,,,,,,,,,1044,2019_Mar_13_0950,mf_amp_cond2,3.0.4,59.987686927202226,
each,&&&&,left,neutral,,,,,,,,0,141,141,60,,,,,,,,,,,,,,,,,,,,,LDT,right,1.0005073768552393,0,,,right,0,1.0005073768552393,,,,,,,,,,,,,,,,,,,,,,1044,2019_Mar_13_0950,mf_amp_cond2,3.0.4,59.987686927202226,
hence,&&&&&,left,neutral,,,,,,,,0,142,142,90,,,,,,,,,,,,,,,,,,,,,LDT,right,0.2003195640281774,0,,,right,0,0.2003195640281774,,,,,,,,,,,,,,,,,,,,,,1044,2019_Mar_13_0950,mf_amp_cond2,3.0.4,59.987686927202226,
officers,&&&&&&&&,left,authority.vice,,,,,,,,0,143,143,9,,,,,,,,,,,,,,,,,,,,,LDT,right,0.20028460570028983,0,,,right,0,0.20028460570028983,,,,,,,,,,,,,,,,,,,,,,1044,2019_Mar_13_0950,mf_amp_cond2,3.0.4,59.987686927202226,
neutralust,&&&&&&&&&&,right,nonword,,,,,,,,0,144,144,48,,,,,,,,,,,,,,,,,,,,,LDT,right,0.05004300837754272,1,,,right,1,0.05004300837754272,,,,,,,,,,,,,,,,,,,,,,1044,2019_Mar_13_0950,mf_amp_cond2,3.0.4,59.987686927202226,
laming,&&&&&&,right,nonword,,,,,,,,0,145,145,62,,,,,,,,,,,,,,,,,,,,,LDT,right,0.03358084260253236,1,,,right,1,0.03358084260253236,,,,,,,,,,,,,,,,,,,,,,1044,2019_Mar_13_0950,mf_amp_cond2,3.0.4,59.987686927202226,
mih,&&&,right,nonword,,,,,,,,0,146,146,140,,,,,,,,,,,,,,,,,,,,,LDT,right,0.1836495725729037,1,,,right,1,0.1836495725729037,,,,,,,,,,,,,,,,,,,,,,1044,2019_Mar_13_0950,mf_amp_cond2,3.0.4,59.987686927202226,
whereafter,&&&&&&&&&&,left,neutral,,,,,,,,0,147,147,121,,,,,,,,,,,,,,,,,,,,,LDT,right,0.11693721418851055,0,,,right,0,0.11693721418851055,,,,,,,,,,,,,,,,,,,,,,1044,2019_Mar_13_0950,mf_amp_cond2,3.0.4,59.987686927202226,
terrorists,&&&&&&&&&&,left,fairness.vice,,,,,,,,0,148,148,149,,,,,,,,,,,,,,,,,,,,,LDT,right,0.0002527262840885669,0,,,right,0,0.0002527262840885669,,,,,,,,,,,,,,,,,,,,,,1044,2019_Mar_13_0950,mf_amp_cond2,3.0.4,59.987686927202226,
peaceful,&&&&&&&&,left,authority.virtue,,,,,,,,0,149,149,135,,,,,,,,,,,,,,,,,,,,,LDT,right,0.20028845433262177,0,,,right,0,0.20028845433262177,,,,,,,,,,,,,,,,,,,,,,1044,2019_Mar_13_0950,mf_amp_cond2,3.0.4,59.987686927202226,
could,&&&&&,left,neutral,,,,,,,,0,150,150,84,,,,,,,,,,,,,,,,,,,,,LDT,right,0.250295542209642,0,,,right,0,0.250295542209642,,,,,,,,,,,,,,,,,,,,,,1044,2019_Mar_13_0950,mf_amp_cond2,3.0.4,59.987686927202226,
mecan,&&&&&,right,nonword,,,,,,,,0,151,151,76,,,,,,,,,,,,,,,,,,,,,LDT,right,0.5503771971561946,1,,,right,1,0.5503771971561946,,,,,,,,,,,,,,,,,,,,,,1044,2019_Mar_13_0950,mf_amp_cond2,3.0.4,59.987686927202226,
couldnt,&&&&&&&,left,neutral,,,,,,,,0,152,152,122,,,,,,,,,,,,,,,,,,,,,LDT,right,0.1336232415633276,0,,,right,0,0.1336232415633276,,,,,,,,,,,,,,,,,,,,,,1044,2019_Mar_13_0950,mf_amp_cond2,3.0.4,59.987686927202226,
egpeditious,&&&&&&&&&&&,right,nonword,,,,,,,,0,153,153,156,,,,,,,,,,,,,,,,,,,,,LDT,right,0.18364315820508637,1,,,right,1,0.18364315820508637,,,,,,,,,,,,,,,,,,,,,,1044,2019_Mar_13_0950,mf_amp_cond2,3.0.4,59.987686927202226,
chared,&&&&&&,right,nonword,,,,,,,,0,154,154,97,,,,,,,,,,,,,,,,,,,,,LDT,right,0.16694205705425702,1,,,right,1,0.16694205705425702,,,,,,,,,,,,,,,,,,,,,,1044,2019_Mar_13_0950,mf_amp_cond2,3.0.4,59.987686927202226,
pulge,&&&&&,right,nonword,,,,,,,,0,155,155,165,,,,,,,,,,,,,,,,,,,,,LDT,right,0.1669539236172568,1,,,right,1,0.1669539236172568,,,,,,,,,,,,,,,,,,,,,,1044,2019_Mar_13_0950,mf_amp_cond2,3.0.4,59.987686927202226,
thru,&&&&,left,neutral,,,,,,,,0,156,156,94,,,,,,,,,,,,,,,,,,,,,LDT,right,0.5003816551470663,0,,,right,0,0.5003816551470663,,,,,,,,,,,,,,,,,,,,,,1044,2019_Mar_13_0950,mf_amp_cond2,3.0.4,59.987686927202226,
itself,&&&&&&,left,neutral,,,,,,,,0,157,157,7,,,,,,,,,,,,,,,,,,,,,LDT,right,0.050248268264112994,0,,,right,0,0.050248268264112994,,,,,,,,,,,,,,,,,,,,,,1044,2019_Mar_13_0950,mf_amp_cond2,3.0.4,59.987686927202226,
scalbel,&&&&&&&,right,nonword,,,,,,,,0,158,158,17,,,,,,,,,,,,,,,,,,,,,LDT,right,0.050252437620656565,1,,,right,1,0.050252437620656565,,,,,,,,,,,,,,,,,,,,,,1044,2019_Mar_13_0950,mf_amp_cond2,3.0.4,59.987686927202226,
riot,&&&&,left,authority.vice,,,,,,,,0,159,159,47,,,,,,,,,,,,,,,,,,,,,LDT,right,0.05026622852892615,0,,,right,0,0.05026622852892615,,,,,,,,,,,,,,,,,,,,,,1044,2019_Mar_13_0950,mf_amp_cond2,3.0.4,59.987686927202226,
squets,&&&&&&,right,nonword,,,,,,,,0,160,160,99,,,,,,,,,,,,,,,,,,,,,LDT,right,0.08347856541513465,1,,,right,1,0.08347856541513465,,,,,,,,,,,,,,,,,,,,,,1044,2019_Mar_13_0950,mf_amp_cond2,3.0.4,59.987686927202226,
amoungst,&&&&&&&&,left,neutral,,,,,,,,0,161,161,79,,,,,,,,,,,,,,,,,,,,,LDT,right,1.3839393097732682,0,,,right,0,1.3839393097732682,,,,,,,,,,,,,,,,,,,,,,1044,2019_Mar_13_0950,mf_amp_cond2,3.0.4,59.987686927202226,
toward,&&&&&&,left,neutral,,,,,,,,0,162,162,178,,,,,,,,,,,,,,,,,,,,,LDT,right,0.26698381459573284,0,,,right,0,0.26698381459573284,,,,,,,,,,,,,,,,,,,,,,1044,2019_Mar_13_0950,mf_amp_cond2,3.0.4,59.987686927202226,
troops,&&&&&&,left,loyalty.vice,,,,,,,,0,163,163,168,,,,,,,,,,,,,,,,,,,,,LDT,right,0.0336122729931958,0,,,right,0,0.0336122729931958,,,,,,,,,,,,,,,,,,,,,,1044,2019_Mar_13_0950,mf_amp_cond2,3.0.4,59.987686927202226,
towards,&&&&&&&,left,neutral,,,,,,,,0,164,164,63,,,,,,,,,,,,,,,,,,,,,LDT,right,0.00025272625498473644,0,,,right,0,0.00025272625498473644,,,,,,,,,,,,,,,,,,,,,,1044,2019_Mar_13_0950,mf_amp_cond2,3.0.4,59.987686927202226,
values,&&&&&&,left,sanctity.virtue,,,,,,,,0,165,165,147,,,,,,,,,,,,,,,,,,,,,LDT,right,0.3003257218224462,0,,,right,0,0.3003257218224462,,,,,,,,,,,,,,,,,,,,,,1044,2019_Mar_13_0950,mf_amp_cond2,3.0.4,59.987686927202226,
pafer,&&&&&,right,nonword,,,,,,,,0,166,166,161,,,,,,,,,,,,,,,,,,,,,LDT,right,0.08364886697381735,1,,,right,1,0.08364886697381735,,,,,,,,,,,,,,,,,,,,,,1044,2019_Mar_13_0950,mf_amp_cond2,3.0.4,59.987686927202226,
progress,&&&&&&&&,left,authority.virtue,,,,,,,,0,167,167,176,,,,,,,,,,,,,,,,,,,,,LDT,right,0.0835930619505234,0,,,right,0,0.0835930619505234,,,,,,,,,,,,,,,,,,,,,,1044,2019_Mar_13_0950,mf_amp_cond2,3.0.4,59.987686927202226,
latter,&&&&&&,left,neutral,,,,,,,,0,168,168,111,,,,,,,,,,,,,,,,,,,,,LDT,right,0.4336997650389094,0,,,right,0,0.4336997650389094,,,,,,,,,,,,,,,,,,,,,,1044,2019_Mar_13_0950,mf_amp_cond2,3.0.4,59.987686927202226,
blunderints,&&&&&&&&&&&,right,nonword,,,,,,,,0,169,169,72,,,,,,,,,,,,,,,,,,,,,LDT,right,0.2169520313909743,1,,,right,1,0.2169520313909743,,,,,,,,,,,,,,,,,,,,,,1044,2019_Mar_13_0950,mf_amp_cond2,3.0.4,59.987686927202226,
idexpressible,&&&&&&&&&&&&&,right,nonword,,,,,,,,0,170,170,88,,,,,,,,,,,,,,,,,,,,,LDT,right,0.4336811633547768,1,,,right,1,0.4336811633547768,,,,,,,,,,,,,,,,,,,,,,1044,2019_Mar_13_0950,mf_amp_cond2,3.0.4,59.987686927202226,
myself,&&&&&&,left,neutral,,,,,,,,0,171,171,130,,,,,,,,,,,,,,,,,,,,,LDT,right,0.2503106159856543,0,,,right,0,0.2503106159856543,,,,,,,,,,,,,,,,,,,,,,1044,2019_Mar_13_0950,mf_amp_cond2,3.0.4,59.987686927202226,
presentkess,&&&&&&&&&&&,right,nonword,,,,,,,,0,172,172,155,,,,,,,,,,,,,,,,,,,,,LDT,right,0.36699350029812194,1,,,right,1,0.36699350029812194,,,,,,,,,,,,,,,,,,,,,,1044,2019_Mar_13_0950,mf_amp_cond2,3.0.4,59.987686927202226,
latterly,&&&&&&&&,left,neutral,,,,,,,,0,173,173,15,,,,,,,,,,,,,,,,,,,,,LDT,right,0.23363164442707784,0,,,right,0,0.23363164442707784,,,,,,,,,,,,,,,,,,,,,,1044,2019_Mar_13_0950,mf_amp_cond2,3.0.4,59.987686927202226,
there,&&&&&,left,neutral,,,,,,,,0,174,174,31,,,,,,,,,,,,,,,,,,,,,LDT,right,0.2336233057139907,0,,,right,0,0.2336233057139907,,,,,,,,,,,,,,,,,,,,,,1044,2019_Mar_13_0950,mf_amp_cond2,3.0.4,59.987686927202226,
everything,&&&&&&&&&&,left,neutral,,,,,,,,0,175,175,89,,,,,,,,,,,,,,,,,,,,,LDT,right,0.4170086061640177,0,,,right,0,0.4170086061640177,,,,,,,,,,,,,,,,,,,,,,1044,2019_Mar_13_0950,mf_amp_cond2,3.0.4,59.987686927202226,
pescinded,&&&&&&&&&,right,nonword,,,,,,,,0,176,176,27,,,,,,,,,,,,,,,,,,,,,LDT,right,0.3669915760110598,1,,,right,1,0.3669915760110598,,,,,,,,,,,,,,,,,,,,,,1044,2019_Mar_13_0950,mf_amp_cond2,3.0.4,59.987686927202226,
nomaric,&&&&&&&,None,nonword,,,,,,,,0,177,177,35,,,,,,,,,,,,,,,,,,,,,LDT,right,0.2836358458152972,0,,,right,0,0.2836358458152972,,,,,,,,,,,,,,,,,,,,,,1044,2019_Mar_13_0950,mf_amp_cond2,3.0.4,59.987686927202226,
great,&&&&&,left,loyalty.virtue,,,,,,,,0,178,178,173,,,,,,,,,,,,,,,,,,,,,LDT,right,0.4170159826753661,0,,,right,0,0.4170159826753661,,,,,,,,,,,,,,,,,,,,,,1044,2019_Mar_13_0950,mf_amp_cond2,3.0.4,59.987686927202226,
fair,&&&&,left,fairness.virtue,,,,,,,,0,179,179,124,,,,,,,,,,,,,,,,,,,,,LDT,right,1.300562091433676,0,,,right,0,1.300562091433676,,,,,,,,,,,,,,,,,,,,,,1044,2019_Mar_13_0950,mf_amp_cond2,3.0.4,59.987686927202226,
gowlands,&&&&&&&&,right,nonword,,,,,,,,0,180,180,125,,,,,,,,,,,,,,,,,,,,,LDT,right,0.5671620058710687,1,,,right,1,0.5671620058710687,,,,,,,,,,,,,,,,,,,,,,1044,2019_Mar_13_0950,mf_amp_cond2,3.0.4,59.987686927202226,
antral,&&&&&&,right,nonword,,,,,,,,0,181,181,43,,,,,,,,,,,,,,,,,,,,,LDT,right,0.31699507182929665,1,,,right,1,0.31699507182929665,,,,,,,,,,,,,,,,,,,,,,1044,2019_Mar_13_0950,mf_amp_cond2,3.0.4,59.987686927202226,
baladroit,&&&&&&&&&,right,nonword,,,,,,,,0,182,182,179,,,,,,,,,,,,,,,,,,,,,LDT,right,0.38366669896640815,1,,,right,1,0.38366669896640815,,,,,,,,,,,,,,,,,,,,,,1044,2019_Mar_13_0950,mf_amp_cond2,3.0.4,59.987686927202226,
brotesque,&&&&&&&&&,right,nonword,,,,,,,,0,183,183,1,,,,,,,,,,,,,,,,,,,,,LDT,right,0.46704038936877623,1,,,right,1,0.46704038936877623,,,,,,,,,,,,,,,,,,,,,,1044,2019_Mar_13_0950,mf_amp_cond2,3.0.4,59.987686927202226,
simplustic,&&&&&&&&&&,right,nonword,,,,,,,,0,184,184,13,,,,,,,,,,,,,,,,,,,,,LDT,right,0.3336573660490103,1,,,right,1,0.3336573660490103,,,,,,,,,,,,,,,,,,,,,,1044,2019_Mar_13_0950,mf_amp_cond2,3.0.4,59.987686927202226,
increase,&&&&&&&&,left,care.virtue,,,,,,,,0,185,185,153,,,,,,,,,,,,,,,,,,,,,LDT,right,0.2503106159856543,0,,,right,0,0.2503106159856543,,,,,,,,,,,,,,,,,,,,,,1044,2019_Mar_13_0950,mf_amp_cond2,3.0.4,59.987686927202226,
trust,&&&&&,left,authority.virtue,,,,,,,,0,186,186,190,,,,,,,,,,,,,,,,,,,,,LDT,right,1.0504663569445256,0,,,right,0,1.0504663569445256,,,,,,,,,,,,,,,,,,,,,,1044,2019_Mar_13_0950,mf_amp_cond2,3.0.4,59.987686927202226,
anyhow,&&&&&&,left,neutral,,,,,,,,0,187,187,57,,,,,,,,,,,,,,,,,,,,,LDT,right,0.16694494351395406,0,,,right,0,0.16694494351395406,,,,,,,,,,,,,,,,,,,,,,1044,2019_Mar_13_0950,mf_amp_cond2,3.0.4,59.987686927202226,
glacenta,&&&&&&&&,right,nonword,,,,,,,,0,188,188,198,,,,,,,,,,,,,,,,,,,,,LDT,right,0.35032671605586074,1,,,right,1,0.35032671605586074,,,,,,,,,,,,,,,,,,,,,,1044,2019_Mar_13_0950,mf_amp_cond2,3.0.4,59.987686927202226,
unscothed,&&&&&&&&&,right,nonword,,,,,,,,0,189,189,103,,,,,,,,,,,,,,,,,,,,,LDT,right,0.20029102006810717,1,,,right,1,0.20029102006810717,,,,,,,,,,,,,,,,,,,,,,1044,2019_Mar_13_0950,mf_amp_cond2,3.0.4,59.987686927202226,
esquisiteness,&&&&&&&&&&&&&,right,nonword,,,,,,,,0,190,190,11,,,,,,,,,,,,,,,,,,,,,LDT,right,0.25028816566918977,1,,,right,1,0.25028816566918977,,,,,,,,,,,,,,,,,,,,,,1044,2019_Mar_13_0950,mf_amp_cond2,3.0.4,59.987686927202226,
party,&&&&&,left,loyalty.virtue,,,,,,,,0,191,191,102,,,,,,,,,,,,,,,,,,,,,LDT,right,0.2836461088154465,0,,,right,0,0.2836461088154465,,,,,,,,,,,,,,,,,,,,,,1044,2019_Mar_13_0950,mf_amp_cond2,3.0.4,59.987686927202226,
framo,&&&&&,right,nonword,,,,,,,,0,192,192,51,,,,,,,,,,,,,,,,,,,,,LDT,right,0.4170246421126649,1,,,right,1,0.4170246421126649,,,,,,,,,,,,,,,,,,,,,,1044,2019_Mar_13_0950,mf_amp_cond2,3.0.4,59.987686927202226,
benefit,&&&&&&&,left,fairness.virtue,,,,,,,,0,193,193,70,,,,,,,,,,,,,,,,,,,,,LDT,right,0.21696710516698658,0,,,right,0,0.21696710516698658,,,,,,,,,,,,,,,,,,,,,,1044,2019_Mar_13_0950,mf_amp_cond2,3.0.4,59.987686927202226,
Daptist,&&&&&&&,right,nonword,,,,,,,,0,194,194,184,,,,,,,,,,,,,,,,,,,,,LDT,right,0.28366086186724715,1,,,right,1,0.28366086186724715,,,,,,,,,,,,,,,,,,,,,,1044,2019_Mar_13_0950,mf_amp_cond2,3.0.4,59.987686927202226,
either,&&&&&&,left,neutral,,,,,,,,0,195,195,104,,,,,,,,,,,,,,,,,,,,,LDT,right,0.15029740237514488,0,,,right,0,0.15029740237514488,,,,,,,,,,,,,,,,,,,,,,1044,2019_Mar_13_0950,mf_amp_cond2,3.0.4,59.987686927202226,
become,&&&&&&,left,neutral,,,,,,,,0,196,196,127,,,,,,,,,,,,,,,,,,,,,LDT,right,0.2336229850188829,0,,,right,0,0.2336229850188829,,,,,,,,,,,,,,,,,,,,,,1044,2019_Mar_13_0950,mf_amp_cond2,3.0.4,59.987686927202226,
letish,&&&&&&,right,nonword,,,,,,,,0,197,197,105,,,,,,,,,,,,,,,,,,,,,LDT,right,0.16695167860598303,1,,,right,1,0.16695167860598303,,,,,,,,,,,,,,,,,,,,,,1044,2019_Mar_13_0950,mf_amp_cond2,3.0.4,59.987686927202226,
spag,&&&&,None,nonword,,,,,,,,0,198,198,101,,,,,,,,,,,,,,,,,,,,,LDT,right,0.050266869977349415,0,,,right,0,0.050266869977349415,,,,,,,,,,,,,,,,,,,,,,1044,2019_Mar_13_0950,mf_amp_cond2,3.0.4,59.987686927202226,
hescribe,&&&&&&&&,right,nonword,,,,,,,,0,199,199,169,,,,,,,,,,,,,,,,,,,,,LDT,right,0.26698028668761253,1,,,right,1,0.26698028668761253,,,,,,,,,,,,,,,,,,,,,,1044,2019_Mar_13_0950,mf_amp_cond2,3.0.4,59.987686927202226,
,,,,,,,,,,,,,,,,,,,,,,,,,,,,,,,,,,,,,,,,,,,,4,10.738,,,,,,,,,,,,,,,,,,,,1044,2019_Mar_13_0950,mf_amp_cond2,3.0.4,59.987686927202226,
,,,,,,,,,,,,,,,,,,,,,,,,,,,,,,,,,,,,,,,,,,,,,,right,1.7673795814043842,,,,,,,,,,,,,,,,,,1044,2019_Mar_13_0950,mf_amp_cond2,3.0.4,59.987686927202226,
car,&&&&&&&&,,,cemtuper,,,,,,,,,,,0,0,0,0,,,,,,,,,,,,,,,,,AMP_prac,right,3.1010071205964778,,,,,,,,,,,right,3.1010071205964778,,,,,,,,,,,,,,,,1044,2019_Mar_13_0950,mf_amp_cond2,3.0.4,59.987686927202226,
scarf,&&&&&&&&,,,bisebell,,,,,,,,,,,0,1,1,3,,,,,,,,,,,,,,,,,AMP_prac,left,2.0507283840270247,,,,,,,,,,,left,2.0507283840270247,,,,,,,,,,,,,,,,1044,2019_Mar_13_0950,mf_amp_cond2,3.0.4,59.987686927202226,
banana,&&&&&&,,,kacket,,,,,,,,,,,0,2,2,1,,,,,,,,,,,,,,,,,AMP_prac,right,0.7170726215990726,,,,,,,,,,,right,0.7170726215990726,,,,,,,,,,,,,,,,1044,2019_Mar_13_0950,mf_amp_cond2,3.0.4,59.987686927202226,
keyboard,&&&&,,,senk,,,,,,,,,,,0,3,3,2,,,,,,,,,,,,,,,,,AMP_prac,right,0.7838087131385691,,,,,,,,,,,right,0.7838087131385691,,,,,,,,,,,,,,,,1044,2019_Mar_13_0950,mf_amp_cond2,3.0.4,59.987686927202226,
,,,,,,,,,,,,,,,,,,,,,,,,,,,,,,,,,,,,,,,,,,,,,,,,,,right,3.017673519992968,,,,,,,,,,,,,,1044,2019_Mar_13_0950,mf_amp_cond2,3.0.4,59.987686927202226,
restore,&&&&&&&,left,care.virtue,stindig,,,,,,,,,,,,,,,0,0,0,327,,,,,,,,,,,,,AMP,right,0.4336750697111711,0,,,,,,,,,,,,,,right,0,0.4336750697111711,,,,,,,,,,,1044,2019_Mar_13_0950,mf_amp_cond2,3.0.4,59.987686927202226,
threatened,&&&&&&&&,right,fairness.vice,clamorek,,,,,,,,,,,,,,,0,1,1,241,,,,,,,,,,,,,AMP,left,0.4503174793499056,0,,,,,,,,,,,,,,left,0,0.4503174793499056,,,,,,,,,,,1044,2019_Mar_13_0950,mf_amp_cond2,3.0.4,59.987686927202226,
protesters,&&&&&&&&&,right,authority.vice,Phintoism,,,,,,,,,,,,,,,0,2,2,268,,,,,,,,,,,,,AMP,left,0.6837445053097326,0,,,,,,,,,,,,,,left,0,0.6837445053097326,,,,,,,,,,,1044,2019_Mar_13_0950,mf_amp_cond2,3.0.4,59.987686927202226,
improve,&&&&&&&&&&,left,care.virtue,galamitous,,,,,,,,,,,,,,,0,3,3,89,,,,,,,,,,,,,AMP,right,0.3336807785090059,0,,,,,,,,,,,,,,right,0,0.3336807785090059,,,,,,,,,,,1044,2019_Mar_13_0950,mf_amp_cond2,3.0.4,59.987686927202226,
embrace,&&&&&&&&&&,left,authority.virtue,focomotive,,,,,,,,,,,,,,,0,4,4,67,,,,,,,,,,,,,AMP,right,0.3003077615867369,0,,,,,,,,,,,,,,right,0,0.3003077615867369,,,,,,,,,,,1044,2019_Mar_13_0950,mf_amp_cond2,3.0.4,59.987686927202226,
scandal,&&&&&&&&&,right,sanctity.vice,disregord,,,,,,,,,,,,,,,0,5,5,278,,,,,,,,,,,,,AMP,left,0.450363983574789,0,,,,,,,,,,,,,,left,0,0.450363983574789,,,,,,,,,,,1044,2019_Mar_13_0950,mf_amp_cond2,3.0.4,59.987686927202226,
honored,&&&&&&&&,left,authority.virtue,proached,,,,,,,,,,,,,,,0,6,6,299,,,,,,,,,,,,,AMP,right,0.18361846287734807,0,,,,,,,,,,,,,,right,0,0.18361846287734807,,,,,,,,,,,1044,2019_Mar_13_0950,mf_amp_cond2,3.0.4,59.987686927202226,
sidearbs,&&&&&&&&,None,nonword,tracious,,,,,,,,,,,,,,,0,7,7,303,,,,,,,,,,,,,AMP,right,0.7170899404154625,0,,,,,,,,,,,,,,right,0,0.7170899404154625,,,,,,,,,,,1044,2019_Mar_13_0950,mf_amp_cond2,3.0.4,59.987686927202226,
support,&&&&&&&&&,left,loyalty.virtue,metibolic,,,,,,,,,,,,,,,0,8,8,5,,,,,,,,,,,,,AMP,right,0.2002890957519412,0,,,,,,,,,,,,,,right,0,0.2002890957519412,,,,,,,,,,,1044,2019_Mar_13_0950,mf_amp_cond2,3.0.4,59.987686927202226,
violations,&&&&&&&,right,sanctity.vice,Loorish,,,,,,,,,,,,,,,0,9,9,287,,,,,,,,,,,,,AMP,right,0.40033444538130425,1,,,,,,,,,,,,,,right,1,0.40033444538130425,,,,,,,,,,,1044,2019_Mar_13_0950,mf_amp_cond2,3.0.4,59.987686927202226,
hand,&&&&&&&&,left,sanctity.virtue,gournful,,,,,,,,,,,,,,,0,10,10,58,,,,,,,,,,,,,AMP,right,0.2336197778058704,0,,,,,,,,,,,,,,right,0,0.2336197778058704,,,,,,,,,,,1044,2019_Mar_13_0950,mf_amp_cond2,3.0.4,59.987686927202226,
gillipede,&&&&&&&&&,None,nonword,fangsters,,,,,,,,,,,,,,,0,11,11,305,,,,,,,,,,,,,AMP,right,0.25028816566918977,0,,,,,,,,,,,,,,right,0,0.25028816566918977,,,,,,,,,,,1044,2019_Mar_13_0950,mf_amp_cond2,3.0.4,59.987686927202226,
gillipede,&&&&&&&&&&&&&,None,nonword,photocalkodes,,,,,,,,,,,,,,,0,12,12,150,,,,,,,,,,,,,AMP,right,0.3003690188343171,0,,,,,,,,,,,,,,right,0,0.3003690188343171,,,,,,,,,,,1044,2019_Mar_13_0950,mf_amp_cond2,3.0.4,59.987686927202226,
sidearbs,&&&&&,None,nonword,infet,,,,,,,,,,,,,,,0,13,13,114,,,,,,,,,,,,,AMP,right,0.3669704085914418,0,,,,,,,,,,,,,,right,0,0.3669704085914418,,,,,,,,,,,1044,2019_Mar_13_0950,mf_amp_cond2,3.0.4,59.987686927202226,
bluently,&&&&&&&&&&&&,None,nonword,feleological,,,,,,,,,,,,,,,0,14,14,24,,,,,,,,,,,,,AMP,right,0.3170258608297445,0,,,,,,,,,,,,,,right,0,0.3170258608297445,,,,,,,,,,,1044,2019_Mar_13_0950,mf_amp_cond2,3.0.4,59.987686927202226,
love,&&&&&,left,loyalty.virtue,aubos,,,,,,,,,,,,,,,0,15,15,297,,,,,,,,,,,,,AMP,right,0.3503135665960144,0,,,,,,,,,,,,,,right,0,0.3503135665960144,,,,,,,,,,,1044,2019_Mar_13_0950,mf_amp_cond2,3.0.4,59.987686927202226,
attacks,&&&&&&&,right,care.vice,dramens,,,,,,,,,,,,,,,0,16,16,117,,,,,,,,,,,,,AMP,left,0.5670734875311609,0,,,,,,,,,,,,,,left,0,0.5670734875311609,,,,,,,,,,,1044,2019_Mar_13_0950,mf_amp_cond2,3.0.4,59.987686927202226,
promises,&&&&&,left,fairness.virtue,infet,,,,,,,,,,,,,,,0,17,17,33,,,,,,,,,,,,,AMP,right,0.20027915347600356,0,,,,,,,,,,,,,,right,0,0.20027915347600356,,,,,,,,,,,1044,2019_Mar_13_0950,mf_amp_cond2,3.0.4,59.987686927202226,
illegal,&&&&&&&&&&,right,fairness.vice,galamitous,,,,,,,,,,,,,,,0,18,18,0,,,,,,,,,,,,,AMP,right,1.1338564039906487,1,,,,,,,,,,,,,,right,1,1.1338564039906487,,,,,,,,,,,1044,2019_Mar_13_0950,mf_amp_cond2,3.0.4,59.987686927202226,
encourage,&&&&&&&&,left,authority.virtue,nuckheap,,,,,,,,,,,,,,,0,19,19,295,,,,,,,,,,,,,AMP,right,1.017144013545476,0,,,,,,,,,,,,,,right,0,1.017144013545476,,,,,,,,,,,1044,2019_Mar_13_0950,mf_amp_cond2,3.0.4,59.987686927202226,
penalty,&&&&,right,authority.vice,juck,,,,,,,,,,,,,,,0,20,20,277,,,,,,,,,,,,,AMP,left,0.5837091620778665,0,,,,,,,,,,,,,,left,0,0.5837091620778665,,,,,,,,,,,1044,2019_Mar_13_0950,mf_amp_cond2,3.0.4,59.987686927202226,
actively,&&&&&&,left,authority.virtue,openet,,,,,,,,,,,,,,,0,21,21,310,,,,,,,,,,,,,AMP,right,0.30021635675802827,0,,,,,,,,,,,,,,right,0,0.30021635675802827,,,,,,,,,,,1044,2019_Mar_13_0950,mf_amp_cond2,3.0.4,59.987686927202226,
win,&&&&&&&&&&,left,fairness.virtue,Oregoniuns,,,,,,,,,,,,,,,0,22,22,255,,,,,,,,,,,,,AMP,right,0.23362715434632264,0,,,,,,,,,,,,,,right,0,0.23362715434632264,,,,,,,,,,,1044,2019_Mar_13_0950,mf_amp_cond2,3.0.4,59.987686927202226,
promote,&&&&&&,left,sanctity.virtue,Boeinf,,,,,,,,,,,,,,,0,23,23,313,,,,,,,,,,,,,AMP,right,0.4170041161123663,0,,,,,,,,,,,,,,right,0,0.4170041161123663,,,,,,,,,,,1044,2019_Mar_13_0950,mf_amp_cond2,3.0.4,59.987686927202226,
embrace,&&&&&&,left,authority.virtue,bycled,,,,,,,,,,,,,,,0,24,24,250,,,,,,,,,,,,,AMP,right,0.3669893309706822,0,,,,,,,,,,,,,,right,0,0.3669893309706822,,,,,,,,,,,1044,2019_Mar_13_0950,mf_amp_cond2,3.0.4,59.987686927202226,
commitment,&&&&&&&&&&&,left,sanctity.virtue,shoirmaster,,,,,,,,,,,,,,,0,25,25,320,,,,,,,,,,,,,AMP,right,0.43367474898695946,0,,,,,,,,,,,,,,right,0,0.43367474898695946,,,,,,,,,,,1044,2019_Mar_13_0950,mf_amp_cond2,3.0.4,59.987686927202226,
hand,&&&&&&&&,left,sanctity.virtue,gournful,,,,,,,,,,,,,,,0,26,26,108,,,,,,,,,,,,,AMP,right,0.8504450612235814,0,,,,,,,,,,,,,,right,0,0.8504450612235814,,,,,,,,,,,1044,2019_Mar_13_0950,mf_amp_cond2,3.0.4,59.987686927202226,
actively,&&&&&&&&&&,left,authority.virtue,imebreaker,,,,,,,,,,,,,,,0,27,27,209,,,,,,,,,,,,,AMP,left,1.2506008663331158,1,,,,,,,,,,,,,,left,1,1.2506008663331158,,,,,,,,,,,1044,2019_Mar_13_0950,mf_amp_cond2,3.0.4,59.987686927202226,
war,&&&&&&,right,sanctity.vice,tislay,,,,,,,,,,,,,,,0,28,28,129,,,,,,,,,,,,,AMP,right,0.6003913408494554,1,,,,,,,,,,,,,,right,1,0.6003913408494554,,,,,,,,,,,1044,2019_Mar_13_0950,mf_amp_cond2,3.0.4,59.987686927202226,
praise,&&&&&&&,left,authority.virtue,allears,,,,,,,,,,,,,,,0,29,29,54,,,,,,,,,,,,,AMP,right,0.7170825639041141,0,,,,,,,,,,,,,,right,0,0.7170825639041141,,,,,,,,,,,1044,2019_Mar_13_0950,mf_amp_cond2,3.0.4,59.987686927202226,
safety,&&&&&&&,left,care.virtue,dramens,,,,,,,,,,,,,,,0,30,30,307,,,,,,,,,,,,,AMP,right,0.30032026959815994,0,,,,,,,,,,,,,,right,0,0.30032026959815994,,,,,,,,,,,1044,2019_Mar_13_0950,mf_amp_cond2,3.0.4,59.987686927202226,
prison,&&&&&,right,fairness.vice,atson,,,,,,,,,,,,,,,0,31,31,160,,,,,,,,,,,,,AMP,left,0.10025375257828273,0,,,,,,,,,,,,,,left,0,0.10025375257828273,,,,,,,,,,,1044,2019_Mar_13_0950,mf_amp_cond2,3.0.4,59.987686927202226,
pleasant,&&&&&&&&,None,control,sliptery,,,,,,,,,,,,,,,0,32,32,12,,,,,,,,,,,,,AMP,right,0.6170578043966088,0,,,,,,,,,,,,,,right,0,0.6170578043966088,,,,,,,,,,,1044,2019_Mar_13_0950,mf_amp_cond2,3.0.4,59.987686927202226,
strong,&&&&&&&&&&&,left,loyalty.virtue,mightingale,,,,,,,,,,,,,,,0,33,33,38,,,,,,,,,,,,,AMP,right,1.200497562851524,0,,,,,,,,,,,,,,right,0,1.200497562851524,,,,,,,,,,,1044,2019_Mar_13_0950,mf_amp_cond2,3.0.4,59.987686927202226,
torture,&&&&&&&&,right,care.vice,sliptery,,,,,,,,,,,,,,,0,34,34,300,,,,,,,,,,,,,AMP,left,0.3003093651786912,0,,,,,,,,,,,,,,left,0,0.3003093651786912,,,,,,,,,,,1044,2019_Mar_13_0950,mf_amp_cond2,3.0.4,59.987686927202226,
faith,&&&&&&&&,left,sanctity.virtue,fontacts,,,,,,,,,,,,,,,0,35,35,292,,,,,,,,,,,,,AMP,right,0.2169552386039868,0,,,,,,,,,,,,,,right,0,0.2169552386039868,,,,,,,,,,,1044,2019_Mar_13_0950,mf_amp_cond2,3.0.4,59.987686927202226,
actively,&&&&&&&&&,left,authority.virtue,rivernoat,,,,,,,,,,,,,,,0,36,36,87,,,,,,,,,,,,,AMP,right,0.40032514452468604,0,,,,,,,,,,,,,,right,0,0.40032514452468604,,,,,,,,,,,1044,2019_Mar_13_0950,mf_amp_cond2,3.0.4,59.987686927202226,
help,&&&&&&&&&&,left,care.virtue,clattening,,,,,,,,,,,,,,,0,37,37,177,,,,,,,,,,,,,AMP,right,0.483690175547963,0,,,,,,,,,,,,,,right,0,0.483690175547963,,,,,,,,,,,1044,2019_Mar_13_0950,mf_amp_cond2,3.0.4,59.987686927202226,
gun,&&&&&&&&&&,right,authority.vice,honstables,,,,,,,,,,,,,,,0,38,38,148,,,,,,,,,,,,,AMP,left,0.3836830555810593,0,,,,,,,,,,,,,,left,0,0.3836830555810593,,,,,,,,,,,1044,2019_Mar_13_0950,mf_amp_cond2,3.0.4,59.987686927202226,
prison,&&&&&&&&&&&&&,right,fairness.vice,photocalkodes,,,,,,,,,,,,,,,0,39,39,214,,,,,,,,,,,,,AMP,left,0.5170256683777552,0,,,,,,,,,,,,,,left,0,0.5170256683777552,,,,,,,,,,,1044,2019_Mar_13_0950,mf_amp_cond2,3.0.4,59.987686927202226,
black,&&&&,right,loyalty.vice,ning,,,,,,,,,,,,,,,0,40,40,191,,,,,,,,,,,,,AMP,left,0.583715255750576,0,,,,,,,,,,,,,,left,0,0.583715255750576,,,,,,,,,,,1044,2019_Mar_13_0950,mf_amp_cond2,3.0.4,59.987686927202226,
terrorist,&&&&&&&&&&&,right,loyalty.vice,precificity,,,,,,,,,,,,,,,0,41,41,113,,,,,,,,,,,,,AMP,right,0.6170424098963849,1,,,,,,,,,,,,,,right,1,0.6170424098963849,,,,,,,,,,,1044,2019_Mar_13_0950,mf_amp_cond2,3.0.4,59.987686927202226,
chonograph,&&&&&&&&&,None,nonword,godlaness,,,,,,,,,,,,,,,0,42,42,257,,,,,,,,,,,,,AMP,right,0.5836825424630661,0,,,,,,,,,,,,,,right,0,0.5836825424630661,,,,,,,,,,,1044,2019_Mar_13_0950,mf_amp_cond2,3.0.4,59.987686927202226,
encourage,&&&&&,left,authority.virtue,noped,,,,,,,,,,,,,,,0,43,43,90,,,,,,,,,,,,,AMP,right,0.20029294438427314,0,,,,,,,,,,,,,,right,0,0.20029294438427314,,,,,,,,,,,1044,2019_Mar_13_0950,mf_amp_cond2,3.0.4,59.987686927202226,
sidearbs,&&&&&&&,None,nonword,nackers,,,,,,,,,,,,,,,0,44,44,66,,,,,,,,,,,,,AMP,right,0.5336722474021371,0,,,,,,,,,,,,,,right,0,0.5336722474021371,,,,,,,,,,,1044,2019_Mar_13_0950,mf_amp_cond2,3.0.4,59.987686927202226,
strong,&&&&&&&,left,loyalty.virtue,allears,,,,,,,,,,,,,,,0,45,45,186,,,,,,,,,,,,,AMP,right,0.11693208271753974,0,,,,,,,,,,,,,,right,0,0.11693208271753974,,,,,,,,,,,1044,2019_Mar_13_0950,mf_amp_cond2,3.0.4,59.987686927202226,
growth,&&&&&&&&,left,care.virtue,clamorek,,,,,,,,,,,,,,,0,46,46,140,,,,,,,,,,,,,AMP,right,0.5670353220193647,0,,,,,,,,,,,,,,right,0,0.5670353220193647,,,,,,,,,,,1044,2019_Mar_13_0950,mf_amp_cond2,3.0.4,59.987686927202226,
win,&&&&&&&,left,fairness.virtue,sickyay,,,,,,,,,,,,,,,0,47,47,26,,,,,,,,,,,,,AMP,right,0.400437396048801,0,,,,,,,,,,,,,,right,0,0.400437396048801,,,,,,,,,,,1044,2019_Mar_13_0950,mf_amp_cond2,3.0.4,59.987686927202226,
victims,&&&&&&&,right,care.vice,carvels,,,,,,,,,,,,,,,0,48,48,206,,,,,,,,,,,,,AMP,left,0.21701585440314375,0,,,,,,,,,,,,,,left,0,0.21701585440314375,,,,,,,,,,,1044,2019_Mar_13_0950,mf_amp_cond2,3.0.4,59.987686927202226,
protesters,&&&&&&&&&&&&,right,authority.vice,feleological,,,,,,,,,,,,,,,0,49,49,204,,,,,,,,,,,,,AMP,right,0.03358148402185179,1,,,,,,,,,,,,,,right,1,0.03358148402185179,,,,,,,,,,,1044,2019_Mar_13_0950,mf_amp_cond2,3.0.4,59.987686927202226,
integrity,&&&&,left,fairness.virtue,yane,,,,,,,,,,,,,,,0,50,50,316,,,,,,,,,,,,,AMP,right,0.2836422602122184,0,,,,,,,,,,,,,,right,0,0.2836422602122184,,,,,,,,,,,1044,2019_Mar_13_0950,mf_amp_cond2,3.0.4,59.987686927202226,
embrace,&&&&&&,left,authority.virtue,openet,,,,,,,,,,,,,,,0,51,51,196,,,,,,,,,,,,,AMP,left,0.30034111632267013,1,,,,,,,,,,,,,,left,1,0.30034111632267013,,,,,,,,,,,1044,2019_Mar_13_0950,mf_amp_cond2,3.0.4,59.987686927202226,
rebels,&&&&&&&,right,authority.vice,stindig,,,,,,,,,,,,,,,0,52,52,111,,,,,,,,,,,,,AMP,right,0.5503890637482982,1,,,,,,,,,,,,,,right,1,0.5503890637482982,,,,,,,,,,,1044,2019_Mar_13_0950,mf_amp_cond2,3.0.4,59.987686927202226,
dignity,&&&&&&&&&&&,left,sanctity.virtue,ronviolence,,,,,,,,,,,,,,,0,53,53,298,,,,,,,,,,,,,AMP,right,0.1502916294557508,0,,,,,,,,,,,,,,right,0,0.1502916294557508,,,,,,,,,,,1044,2019_Mar_13_0950,mf_amp_cond2,3.0.4,59.987686927202226,
sfumatoy,&&&&&&&&,None,nonword,suggists,,,,,,,,,,,,,,,0,54,54,132,,,,,,,,,,,,,AMP,right,0.20028268138412386,0,,,,,,,,,,,,,,right,0,0.20028268138412386,,,,,,,,,,,1044,2019_Mar_13_0950,mf_amp_cond2,3.0.4,59.987686927202226,
sfumatoy,&&&&&&&&&&&&&,None,nonword,synchronazers,,,,,,,,,,,,,,,0,55,55,227,,,,,,,,,,,,,AMP,right,0.45021805659052916,0,,,,,,,,,,,,,,right,0,0.45021805659052916,,,,,,,,,,,1044,2019_Mar_13_0950,mf_amp_cond2,3.0.4,59.987686927202226,
promises,&&&&&,left,fairness.virtue,noped,,,,,,,,,,,,,,,0,56,56,188,,,,,,,,,,,,,AMP,right,0.46702274985727854,0,,,,,,,,,,,,,,right,0,0.46702274985727854,,,,,,,,,,,1044,2019_Mar_13_0950,mf_amp_cond2,3.0.4,59.987686927202226,
arrests,&&&&&&&&,right,authority.vice,sliptery,,,,,,,,,,,,,,,0,57,57,179,,,,,,,,,,,,,AMP,right,0.5003553562273737,1,,,,,,,,,,,,,,right,1,0.5003553562273737,,,,,,,,,,,1044,2019_Mar_13_0950,mf_amp_cond2,3.0.4,59.987686927202226,
credit,&&&&&&&&&&,left,fairness.virtue,imebreaker,,,,,,,,,,,,,,,0,58,58,155,,,,,,,,,,,,,AMP,right,0.7504158116644248,0,,,,,,,,,,,,,,right,0,0.7504158116644248,,,,,,,,,,,1044,2019_Mar_13_0950,mf_amp_cond2,3.0.4,59.987686927202226,
sowntrodden,&&&&&&&&&&&,None,nonword,precificity,,,,,,,,,,,,,,,0,59,59,244,,,,,,,,,,,,,AMP,right,0.733743895922089,0,,,,,,,,,,,,,,right,0,0.733743895922089,,,,,,,,,,,1044,2019_Mar_13_0950,mf_amp_cond2,3.0.4,59.987686927202226,
health,&&&&&&&&&&,left,care.virtue,ecgagement,,,,,,,,,,,,,,,0,60,60,280,,,,,,,,,,,,,AMP,right,0.18361365210148506,0,,,,,,,,,,,,,,right,0,0.18361365210148506,,,,,,,,,,,1044,2019_Mar_13_0950,mf_amp_cond2,3.0.4,59.987686927202226,
groups,&&&&&&&&&&,right,loyalty.vice,supervuned,,,,,,,,,,,,,,,0,61,61,243,,,,,,,,,,,,,AMP,right,0.550330692960415,1,,,,,,,,,,,,,,right,1,0.550330692960415,,,,,,,,,,,1044,2019_Mar_13_0950,mf_amp_cond2,3.0.4,59.987686927202226,
promises,&&&&&&&&,left,fairness.virtue,fontacts,,,,,,,,,,,,,,,0,62,62,133,,,,,,,,,,,,,AMP,right,0.6002588840492535,0,,,,,,,,,,,,,,right,0,0.6002588840492535,,,,,,,,,,,1044,2019_Mar_13_0950,mf_amp_cond2,3.0.4,59.987686927202226,
encourage,&&&&&&,left,authority.virtue,prones,,,,,,,,,,,,,,,0,63,63,168,,,,,,,,,,,,,AMP,right,0.8171108512615319,0,,,,,,,,,,,,,,right,0,0.8171108512615319,,,,,,,,,,,1044,2019_Mar_13_0950,mf_amp_cond2,3.0.4,59.987686927202226,
free,&&&&&&&&,left,fairness.virtue,clamorek,,,,,,,,,,,,,,,0,64,64,284,,,,,,,,,,,,,AMP,right,0.9337956599192694,0,,,,,,,,,,,,,,right,0,0.9337956599192694,,,,,,,,,,,1044,2019_Mar_13_0950,mf_amp_cond2,3.0.4,59.987686927202226,
health,&&&&&,left,care.virtue,atson,,,,,,,,,,,,,,,0,65,65,70,,,,,,,,,,,,,AMP,right,0.4836751017719507,0,,,,,,,,,,,,,,right,0,0.4836751017719507,,,,,,,,,,,1044,2019_Mar_13_0950,mf_amp_cond2,3.0.4,59.987686927202226,
refused,&&&&&,right,authority.vice,hasks,,,,,,,,,,,,,,,0,66,66,324,,,,,,,,,,,,,AMP,right,0.6670587986300234,1,,,,,,,,,,,,,,right,1,0.6670587986300234,,,,,,,,,,,1044,2019_Mar_13_0950,mf_amp_cond2,3.0.4,59.987686927202226,
attacks,&&&&&&,right,care.vice,Boeinf,,,,,,,,,,,,,,,0,67,67,52,,,,,,,,,,,,,AMP,right,0.2835056340554729,1,,,,,,,,,,,,,,right,1,0.2835056340554729,,,,,,,,,,,1044,2019_Mar_13_0950,mf_amp_cond2,3.0.4,59.987686927202226,
energy,&&&&&&&&&,left,sanctity.virtue,metibolic,,,,,,,,,,,,,,,0,68,68,271,,,,,,,,,,,,,AMP,right,0.8504434576316271,0,,,,,,,,,,,,,,right,0,0.8504434576316271,,,,,,,,,,,1044,2019_Mar_13_0950,mf_amp_cond2,3.0.4,59.987686927202226,
faith,&&&&&,left,sanctity.virtue,aubos,,,,,,,,,,,,,,,0,69,69,235,,,,,,,,,,,,,AMP,right,0.4169996260316111,0,,,,,,,,,,,,,,right,0,0.4169996260316111,,,,,,,,,,,1044,2019_Mar_13_0950,mf_amp_cond2,3.0.4,59.987686927202226,
praise,&&&&&&&&&&&,left,authority.virtue,fornicalion,,,,,,,,,,,,,,,0,70,70,270,,,,,,,,,,,,,AMP,right,0.3669973489595577,0,,,,,,,,,,,,,,right,0,0.3669973489595577,,,,,,,,,,,1044,2019_Mar_13_0950,mf_amp_cond2,3.0.4,59.987686927202226,
torture,&&&&&&&&&&,right,care.vice,clattening,,,,,,,,,,,,,,,0,71,71,142,,,,,,,,,,,,,AMP,left,0.4836898548237514,0,,,,,,,,,,,,,,left,0,0.4836898548237514,,,,,,,,,,,1044,2019_Mar_13_0950,mf_amp_cond2,3.0.4,59.987686927202226,
safety,&&&&&&,left,care.virtue,pumber,,,,,,,,,,,,,,,0,72,72,176,,,,,,,,,,,,,AMP,right,0.30039371419115923,0,,,,,,,,,,,,,,right,0,0.30039371419115923,,,,,,,,,,,1044,2019_Mar_13_0950,mf_amp_cond2,3.0.4,59.987686927202226,
ability,&&&&,left,authority.virtue,yane,,,,,,,,,,,,,,,0,73,73,80,,,,,,,,,,,,,AMP,right,0.3670069705112837,0,,,,,,,,,,,,,,right,0,0.3670069705112837,,,,,,,,,,,1044,2019_Mar_13_0950,mf_amp_cond2,3.0.4,59.987686927202226,
support,&&&&&&&&&,left,loyalty.virtue,disregord,,,,,,,,,,,,,,,0,74,74,178,,,,,,,,,,,,,AMP,left,0.3836766412423458,1,,,,,,,,,,,,,,left,1,0.3836766412423458,,,,,,,,,,,1044,2019_Mar_13_0950,mf_amp_cond2,3.0.4,59.987686927202226,
charges,&&&&&&&&&&,right,fairness.vice,ammessment,,,,,,,,,,,,,,,0,75,75,119,,,,,,,,,,,,,AMP,right,0.4170050782558974,1,,,,,,,,,,,,,,right,1,0.4170050782558974,,,,,,,,,,,1044,2019_Mar_13_0950,mf_amp_cond2,3.0.4,59.987686927202226,
voter,&&&&&,right,fairness.vice,scock,,,,,,,,,,,,,,,0,76,76,304,,,,,,,,,,,,,AMP,left,0.7337721191579476,0,,,,,,,,,,,,,,left,0,0.7337721191579476,,,,,,,,,,,1044,2019_Mar_13_0950,mf_amp_cond2,3.0.4,59.987686927202226,
praised,&&&&&&&&&&&,left,loyalty.virtue,precificity,,,,,,,,,,,,,,,0,77,77,269,,,,,,,,,,,,,AMP,right,0.21694337201188318,0,,,,,,,,,,,,,,right,0,0.21694337201188318,,,,,,,,,,,1044,2019_Mar_13_0950,mf_amp_cond2,3.0.4,59.987686927202226,
chonograph,&&&&&&&,None,nonword,lursuer,,,,,,,,,,,,,,,0,78,78,234,,,,,,,,,,,,,AMP,left,0.6337316444551107,0,,,,,,,,,,,,,,left,0,0.6337316444551107,,,,,,,,,,,1044,2019_Mar_13_0950,mf_amp_cond2,3.0.4,59.987686927202226,
injured,&&&&&&&,right,care.vice,baklara,,,,,,,,,,,,,,,0,79,79,20,,,,,,,,,,,,,AMP,left,0.8671278814144898,0,,,,,,,,,,,,,,left,0,0.8671278814144898,,,,,,,,,,,1044,2019_Mar_13_0950,mf_amp_cond2,3.0.4,59.987686927202226,
violations,&&&&,right,sanctity.vice,wump,,,,,,,,,,,,,,,0,80,80,172,,,,,,,,,,,,,AMP,right,0.550360519788228,1,,,,,,,,,,,,,,right,1,0.550360519788228,,,,,,,,,,,1044,2019_Mar_13_0950,mf_amp_cond2,3.0.4,59.987686927202226,
intelligence,&&&&&&&&&,left,loyalty.virtue,discovars,,,,,,,,,,,,,,,0,81,81,260,,,,,,,,,,,,,AMP,left,0.4336811633547768,1,,,,,,,,,,,,,,left,1,0.4336811633547768,,,,,,,,,,,1044,2019_Mar_13_0950,mf_amp_cond2,3.0.4,59.987686927202226,
promote,&&&&&&&&,left,sanctity.virtue,proached,,,,,,,,,,,,,,,0,82,82,86,,,,,,,,,,,,,AMP,right,0.5170266305503901,0,,,,,,,,,,,,,,right,0,0.5170266305503901,,,,,,,,,,,1044,2019_Mar_13_0950,mf_amp_cond2,3.0.4,59.987686927202226,
gun,&&&&&&,right,authority.vice,sgrawl,,,,,,,,,,,,,,,0,83,83,247,,,,,,,,,,,,,AMP,right,0.41700475753168575,1,,,,,,,,,,,,,,right,1,0.41700475753168575,,,,,,,,,,,1044,2019_Mar_13_0950,mf_amp_cond2,3.0.4,59.987686927202226,
protesters,&&&&&&&&&&&,right,authority.vice,ilportation,,,,,,,,,,,,,,,0,84,84,62,,,,,,,,,,,,,AMP,right,0.5837213494232856,1,,,,,,,,,,,,,,right,1,0.5837213494232856,,,,,,,,,,,1044,2019_Mar_13_0950,mf_amp_cond2,3.0.4,59.987686927202226,
promote,&&&&&&&,left,sanctity.virtue,halaise,,,,,,,,,,,,,,,0,85,85,181,,,,,,,,,,,,,AMP,right,0.8504627007350791,0,,,,,,,,,,,,,,right,0,0.8504627007350791,,,,,,,,,,,1044,2019_Mar_13_0950,mf_amp_cond2,3.0.4,59.987686927202226,
festate,&&&&&&&&&,None,nonword,gandbrake,,,,,,,,,,,,,,,0,86,86,226,,,,,,,,,,,,,AMP,right,0.06688650857540779,0,,,,,,,,,,,,,,right,0,0.06688650857540779,,,,,,,,,,,1044,2019_Mar_13_0950,mf_amp_cond2,3.0.4,59.987686927202226,
love,&&&&&,left,loyalty.virtue,touls,,,,,,,,,,,,,,,0,87,87,59,,,,,,,,,,,,,AMP,right,0.2836429016315378,0,,,,,,,,,,,,,,right,0,0.2836429016315378,,,,,,,,,,,1044,2019_Mar_13_0950,mf_amp_cond2,3.0.4,59.987686927202226,
festate,&&&&&&&&&,None,nonword,rivernoat,,,,,,,,,,,,,,,0,88,88,285,,,,,,,,,,,,,AMP,right,0.2502932971692644,0,,,,,,,,,,,,,,right,0,0.2502932971692644,,,,,,,,,,,1044,2019_Mar_13_0950,mf_amp_cond2,3.0.4,59.987686927202226,
lies,&&&&&&&&&&&,right,fairness.vice,ilportation,,,,,,,,,,,,,,,0,89,89,84,,,,,,,,,,,,,AMP,right,0.15027976283454336,1,,,,,,,,,,,,,,right,1,0.15027976283454336,,,,,,,,,,,1044,2019_Mar_13_0950,mf_amp_cond2,3.0.4,59.987686927202226,
improve,&&&&&&&&&&&&&,left,care.virtue,wonderfujnoss,,,,,,,,,,,,,,,0,90,90,28,,,,,,,,,,,,,AMP,right,1.2670697672001552,0,,,,,,,,,,,,,,right,0,1.2670697672001552,,,,,,,,,,,1044,2019_Mar_13_0950,mf_amp_cond2,3.0.4,59.987686927202226,
help,&&&&&,left,care.virtue,dumid,,,,,,,,,,,,,,,0,91,91,151,,,,,,,,,,,,,AMP,right,1.4339233059145045,0,,,,,,,,,,,,,,right,0,1.4339233059145045,,,,,,,,,,,1044,2019_Mar_13_0950,mf_amp_cond2,3.0.4,59.987686927202226,
win,&&&&&&,left,fairness.virtue,tislay,,,,,,,,,,,,,,,0,92,92,242,,,,,,,,,,,,,AMP,right,0.36701113983872347,0,,,,,,,,,,,,,,right,0,0.36701113983872347,,,,,,,,,,,1044,2019_Mar_13_0950,mf_amp_cond2,3.0.4,59.987686927202226,
abuse,&&&&&&&&&&,right,sanctity.vice,ejanulated,,,,,,,,,,,,,,,0,93,93,167,,,,,,,,,,,,,AMP,right,0.4503473062068224,1,,,,,,,,,,,,,,right,1,0.4503473062068224,,,,,,,,,,,1044,2019_Mar_13_0950,mf_amp_cond2,3.0.4,59.987686927202226,
powerful,&&&&&,left,authority.virtue,hasks,,,,,,,,,,,,,,,0,94,94,78,,,,,,,,,,,,,AMP,right,0.23363837951910682,0,,,,,,,,,,,,,,right,0,0.23363837951910682,,,,,,,,,,,1044,2019_Mar_13_0950,mf_amp_cond2,3.0.4,59.987686927202226,
slending,&&&&&&&&,None,nonword,thabbily,,,,,,,,,,,,,,,0,95,95,326,,,,,,,,,,,,,AMP,left,0.16694173635914922,0,,,,,,,,,,,,,,left,0,0.16694173635914922,,,,,,,,,,,1044,2019_Mar_13_0950,mf_amp_cond2,3.0.4,59.987686927202226,
hand,&&&&&&&&&&,left,sanctity.virtue,supervuned,,,,,,,,,,,,,,,0,96,96,258,,,,,,,,,,,,,AMP,right,0.5170099531824235,0,,,,,,,,,,,,,,right,0,0.5170099531824235,,,,,,,,,,,1044,2019_Mar_13_0950,mf_amp_cond2,3.0.4,59.987686927202226,
safety,&&&&&&&&&,left,care.virtue,fangsters,,,,,,,,,,,,,,,0,97,97,85,,,,,,,,,,,,,AMP,right,0.30027184111531824,0,,,,,,,,,,,,,,right,0,0.30027184111531824,,,,,,,,,,,1044,2019_Mar_13_0950,mf_amp_cond2,3.0.4,59.987686927202226,
praise,&&&&&&&&&&,left,authority.virtue,reelectiob,,,,,,,,,,,,,,,0,98,98,220,,,,,,,,,,,,,AMP,right,0.2336245885817334,0,,,,,,,,,,,,,,right,0,0.2336245885817334,,,,,,,,,,,1044,2019_Mar_13_0950,mf_amp_cond2,3.0.4,59.987686927202226,
rebels,&&&&&&&,right,authority.vice,lursuer,,,,,,,,,,,,,,,0,99,99,43,,,,,,,,,,,,,AMP,right,0.06692307052435353,1,,,,,,,,,,,,,,right,1,0.06692307052435353,,,,,,,,,,,1044,2019_Mar_13_0950,mf_amp_cond2,3.0.4,59.987686927202226,
harassment,&&&&&&&&&&&,right,sanctity.vice,hefurbished,,,,,,,,,,,,,,,0,100,100,51,,,,,,,,,,,,,AMP,right,0.5503771971852984,1,,,,,,,,,,,,,,right,1,0.5503771971852984,,,,,,,,,,,1044,2019_Mar_13_0950,mf_amp_cond2,3.0.4,59.987686927202226,
ability,&&&&&&,left,authority.virtue,fostet,,,,,,,,,,,,,,,0,101,101,306,,,,,,,,,,,,,AMP,right,0.1835918432334438,0,,,,,,,,,,,,,,right,0,0.1835918432334438,,,,,,,,,,,1044,2019_Mar_13_0950,mf_amp_cond2,3.0.4,59.987686927202226,
faith,&&&&&&&&,left,sanctity.virtue,suggists,,,,,,,,,,,,,,,0,102,102,60,,,,,,,,,,,,,AMP,right,0.7004167417762801,0,,,,,,,,,,,,,,right,0,0.7004167417762801,,,,,,,,,,,1044,2019_Mar_13_0950,mf_amp_cond2,3.0.4,59.987686927202226,
army,&&&&&&,right,loyalty.vice,openet,,,,,,,,,,,,,,,0,103,103,30,,,,,,,,,,,,,AMP,right,0.783767340471968,1,,,,,,,,,,,,,,right,1,0.783767340471968,,,,,,,,,,,1044,2019_Mar_13_0950,mf_amp_cond2,3.0.4,59.987686927202226,
honored,&&&&&&&,left,authority.virtue,halaise,,,,,,,,,,,,,,,0,104,104,9,,,,,,,,,,,,,AMP,left,0.4670121661329176,1,,,,,,,,,,,,,,left,1,0.4670121661329176,,,,,,,,,,,1044,2019_Mar_13_0950,mf_amp_cond2,3.0.4,59.987686927202226,
intelligence,&&&&&&&&,left,loyalty.virtue,ebbitter,,,,,,,,,,,,,,,0,105,105,25,,,,,,,,,,,,,AMP,right,0.2502823927497957,0,,,,,,,,,,,,,,right,0,0.2502823927497957,,,,,,,,,,,1044,2019_Mar_13_0950,mf_amp_cond2,3.0.4,59.987686927202226,
voter,&&&&&&&&&&,right,fairness.vice,Oregoniuns,,,,,,,,,,,,,,,0,106,106,135,,,,,,,,,,,,,AMP,right,0.5503804043692071,1,,,,,,,,,,,,,,right,1,0.5503804043692071,,,,,,,,,,,1044,2019_Mar_13_0950,mf_amp_cond2,3.0.4,59.987686927202226,
love,&&&&&&&,left,loyalty.virtue,dramens,,,,,,,,,,,,,,,0,107,107,199,,,,,,,,,,,,,AMP,right,0.3836484180064872,0,,,,,,,,,,,,,,right,0,0.3836484180064872,,,,,,,,,,,1044,2019_Mar_13_0950,mf_amp_cond2,3.0.4,59.987686927202226,
credit,&&&&&&&&&&&,left,fairness.virtue,cromiscuity,,,,,,,,,,,,,,,0,108,108,238,,,,,,,,,,,,,AMP,right,0.4003363696974702,0,,,,,,,,,,,,,,right,0,0.4003363696974702,,,,,,,,,,,1044,2019_Mar_13_0950,mf_amp_cond2,3.0.4,59.987686927202226,
encourage,&&&&&&&&&&&&&,left,authority.virtue,synchronazers,,,,,,,,,,,,,,,0,109,109,35,,,,,,,,,,,,,AMP,right,0.43366769317071885,0,,,,,,,,,,,,,,right,0,0.43366769317071885,,,,,,,,,,,1044,2019_Mar_13_0950,mf_amp_cond2,3.0.4,59.987686927202226,
hate,&&&&&&&&&&,right,fairness.vice,Oregoniuns,,,,,,,,,,,,,,,0,110,110,216,,,,,,,,,,,,,AMP,right,0.20028396425186656,1,,,,,,,,,,,,,,right,1,0.20028396425186656,,,,,,,,,,,1044,2019_Mar_13_0950,mf_amp_cond2,3.0.4,59.987686927202226,
clean,&&&&&&&&&&&&&,left,sanctity.virtue,synchronazers,,,,,,,,,,,,,,,0,111,111,312,,,,,,,,,,,,,AMP,right,0.517062230326701,0,,,,,,,,,,,,,,right,0,0.517062230326701,,,,,,,,,,,1044,2019_Mar_13_0950,mf_amp_cond2,3.0.4,59.987686927202226,
uller,&&&&,None,nonword,ning,,,,,,,,,,,,,,,0,112,112,319,,,,,,,,,,,,,AMP,right,0.300309685873799,0,,,,,,,,,,,,,,right,0,0.300309685873799,,,,,,,,,,,1044,2019_Mar_13_0950,mf_amp_cond2,3.0.4,59.987686927202226,
promised,&&&&&&&&&&&&,left,loyalty.virtue,quarterbocks,,,,,,,,,,,,,,,0,113,113,110,,,,,,,,,,,,,AMP,right,0.2503000322612934,0,,,,,,,,,,,,,,right,0,0.2503000322612934,,,,,,,,,,,1044,2019_Mar_13_0950,mf_amp_cond2,3.0.4,59.987686927202226,
honored,&&&&&&&&,left,authority.virtue,lachelor,,,,,,,,,,,,,,,0,114,114,221,,,,,,,,,,,,,AMP,left,0.23366371626616456,1,,,,,,,,,,,,,,left,1,0.23366371626616456,,,,,,,,,,,1044,2019_Mar_13_0950,mf_amp_cond2,3.0.4,59.987686927202226,
seachwear,&&&&&&&&&,None,nonword,disregord,,,,,,,,,,,,,,,0,115,115,18,,,,,,,,,,,,,AMP,left,0.48367542249616235,0,,,,,,,,,,,,,,left,0,0.48367542249616235,,,,,,,,,,,1044,2019_Mar_13_0950,mf_amp_cond2,3.0.4,59.987686927202226,
betrayal,&&&&&&&&&&&,right,loyalty.vice,mightingale,,,,,,,,,,,,,,,0,116,116,237,,,,,,,,,,,,,AMP,left,0.6670607229461893,0,,,,,,,,,,,,,,left,0,0.6670607229461893,,,,,,,,,,,1044,2019_Mar_13_0950,mf_amp_cond2,3.0.4,59.987686927202226,
death,&&&&&&&&&,right,care.vice,taxpayung,,,,,,,,,,,,,,,0,117,117,137,,,,,,,,,,,,,AMP,right,0.20029198221163824,1,,,,,,,,,,,,,,right,1,0.20029198221163824,,,,,,,,,,,1044,2019_Mar_13_0950,mf_amp_cond2,3.0.4,59.987686927202226,
bluently,&&&&&&&&&&,None,nonword,ejanulated,,,,,,,,,,,,,,,0,118,118,275,,,,,,,,,,,,,AMP,left,0.2502830341691151,0,,,,,,,,,,,,,,left,0,0.2502830341691151,,,,,,,,,,,1044,2019_Mar_13_0950,mf_amp_cond2,3.0.4,59.987686927202226,
attacks,&&&&&&&&&&,right,care.vice,galamitous,,,,,,,,,,,,,,,0,119,119,218,,,,,,,,,,,,,AMP,left,0.11694074209663086,0,,,,,,,,,,,,,,left,0,0.11694074209663086,,,,,,,,,,,1044,2019_Mar_13_0950,mf_amp_cond2,3.0.4,59.987686927202226,
racist,&&&&&&&,right,sanctity.vice,nackers,,,,,,,,,,,,,,,0,120,120,249,,,,,,,,,,,,,AMP,left,0.45037424654583447,0,,,,,,,,,,,,,,left,0,0.45037424654583447,,,,,,,,,,,1044,2019_Mar_13_0950,mf_amp_cond2,3.0.4,59.987686927202226,
free,&&&&&&&&&&&,left,fairness.virtue,fornicalion,,,,,,,,,,,,,,,0,121,121,4,,,,,,,,,,,,,AMP,right,0.10025792190572247,0,,,,,,,,,,,,,,right,0,0.10025792190572247,,,,,,,,,,,1044,2019_Mar_13_0950,mf_amp_cond2,3.0.4,59.987686927202226,
penalty,&&&&&&&&,right,authority.vice,tracious,,,,,,,,,,,,,,,0,122,122,45,,,,,,,,,,,,,AMP,left,0.10029031446902081,0,,,,,,,,,,,,,,left,0,0.10029031446902081,,,,,,,,,,,1044,2019_Mar_13_0950,mf_amp_cond2,3.0.4,59.987686927202226,
commitment,&&&&&&&,left,sanctity.virtue,Loorish,,,,,,,,,,,,,,,0,123,123,116,,,,,,,,,,,,,AMP,right,0.050249230436747894,0,,,,,,,,,,,,,,right,0,0.050249230436747894,,,,,,,,,,,1044,2019_Mar_13_0950,mf_amp_cond2,3.0.4,59.987686927202226,
refused,&&&&&&&&&&&,right,authority.vice,neneficence,,,,,,,,,,,,,,,0,124,124,101,,,,,,,,,,,,,AMP,left,0.25032665190519765,0,,,,,,,,,,,,,,left,0,0.25032665190519765,,,,,,,,,,,1044,2019_Mar_13_0950,mf_amp_cond2,3.0.4,59.987686927202226,
drug,&&&&&&,right,sanctity.vice,pumber,,,,,,,,,,,,,,,0,125,125,22,,,,,,,,,,,,,AMP,right,0.01690636106650345,1,,,,,,,,,,,,,,right,1,0.01690636106650345,,,,,,,,,,,1044,2019_Mar_13_0950,mf_amp_cond2,3.0.4,59.987686927202226,
civilians,&&&&&&&&&,right,care.vice,faspberry,,,,,,,,,,,,,,,0,126,126,223,,,,,,,,,,,,,AMP,left,0.06692820199532434,0,,,,,,,,,,,,,,left,0,0.06692820199532434,,,,,,,,,,,1044,2019_Mar_13_0950,mf_amp_cond2,3.0.4,59.987686927202226,
sidearbs,&&&&&&&&&&,None,nonword,ecgagement,,,,,,,,,,,,,,,0,127,127,236,,,,,,,,,,,,,AMP,right,0.7504340926243458,0,,,,,,,,,,,,,,right,0,0.7504340926243458,,,,,,,,,,,1044,2019_Mar_13_0950,mf_amp_cond2,3.0.4,59.987686927202226,
torture,&&&&&&&&&&&,right,care.vice,fornicalion,,,,,,,,,,,,,,,0,128,128,228,,,,,,,,,,,,,AMP,left,0.05024506110930815,0,,,,,,,,,,,,,,left,0,0.05024506110930815,,,,,,,,,,,1044,2019_Mar_13_0950,mf_amp_cond2,3.0.4,59.987686927202226,
police,&&&&&&&&&&&,right,authority.vice,neneficence,,,,,,,,,,,,,,,0,129,129,69,,,,,,,,,,,,,AMP,right,0.16694911287049763,1,,,,,,,,,,,,,,right,1,0.16694911287049763,,,,,,,,,,,1044,2019_Mar_13_0950,mf_amp_cond2,3.0.4,59.987686927202226,
army,&&&&&&&&&&&,right,loyalty.vice,ronviolence,,,,,,,,,,,,,,,0,130,130,212,,,,,,,,,,,,,AMP,left,0.11693593132076785,0,,,,,,,,,,,,,,left,0,0.11693593132076785,,,,,,,,,,,1044,2019_Mar_13_0950,mf_amp_cond2,3.0.4,59.987686927202226,
betrayal,&&&&&&&&&,right,loyalty.vice,taxpayung,,,,,,,,,,,,,,,0,131,131,74,,,,,,,,,,,,,AMP,right,0.1335995084082242,1,,,,,,,,,,,,,,right,1,0.1335995084082242,,,,,,,,,,,1044,2019_Mar_13_0950,mf_amp_cond2,3.0.4,59.987686927202226,
credit,&&&&&,left,fairness.virtue,touls,,,,,,,,,,,,,,,0,132,132,290,,,,,,,,,,,,,AMP,right,0.5003794101066887,0,,,,,,,,,,,,,,right,0,0.5003794101066887,,,,,,,,,,,1044,2019_Mar_13_0950,mf_amp_cond2,3.0.4,59.987686927202226,
loyalty,&&&&&&&&&&,left,loyalty.virtue,Oregoniuns,,,,,,,,,,,,,,,0,133,133,68,,,,,,,,,,,,,AMP,left,0.23362972008180805,1,,,,,,,,,,,,,,left,1,0.23362972008180805,,,,,,,,,,,1044,2019_Mar_13_0950,mf_amp_cond2,3.0.4,59.987686927202226,
terrorist,&&&&&&&&&&&&,right,loyalty.vice,quarterbocks,,,,,,,,,,,,,,,0,134,134,10,,,,,,,,,,,,,AMP,right,0.1002839001303073,1,,,,,,,,,,,,,,right,1,0.1002839001303073,,,,,,,,,,,1044,2019_Mar_13_0950,mf_amp_cond2,3.0.4,59.987686927202226,
racist,&&&&&&,right,sanctity.vice,fostet,,,,,,,,,,,,,,,0,135,135,6,,,,,,,,,,,,,AMP,left,0.11693881780956872,0,,,,,,,,,,,,,,left,0,0.11693881780956872,,,,,,,,,,,1044,2019_Mar_13_0950,mf_amp_cond2,3.0.4,59.987686927202226,
promised,&&&&&&&&&&,left,loyalty.virtue,reelectiob,,,,,,,,,,,,,,,0,136,136,47,,,,,,,,,,,,,AMP,right,0.016923359158681706,0,,,,,,,,,,,,,,right,0,0.016923359158681706,,,,,,,,,,,1044,2019_Mar_13_0950,mf_amp_cond2,3.0.4,59.987686927202226,
growth,&&&&,left,care.virtue,ning,,,,,,,,,,,,,,,0,137,137,81,,,,,,,,,,,,,AMP,right,0.033542677061632276,0,,,,,,,,,,,,,,right,0,0.033542677061632276,,,,,,,,,,,1044,2019_Mar_13_0950,mf_amp_cond2,3.0.4,59.987686927202226,
arrests,&&&&&&&&,right,authority.vice,lachelor,,,,,,,,,,,,,,,0,138,138,251,,,,,,,,,,,,,AMP,right,0.26695943999220617,1,,,,,,,,,,,,,,right,1,0.26695943999220617,,,,,,,,,,,1044,2019_Mar_13_0950,mf_amp_cond2,3.0.4,59.987686927202226,
bluently,&&&&&&&&&,None,nonword,disregord,,,,,,,,,,,,,,,0,139,139,144,,,,,,,,,,,,,AMP,right,0.033580521878320724,0,,,,,,,,,,,,,,right,0,0.033580521878320724,,,,,,,,,,,1044,2019_Mar_13_0950,mf_amp_cond2,3.0.4,59.987686927202226,
civilians,&&&&&&,right,care.vice,fegard,,,,,,,,,,,,,,,0,140,140,294,,,,,,,,,,,,,AMP,right,0.06691761830006726,1,,,,,,,,,,,,,,right,1,0.06691761830006726,,,,,,,,,,,1044,2019_Mar_13_0950,mf_amp_cond2,3.0.4,59.987686927202226,
ability,&&&&,left,authority.virtue,juck,,,,,,,,,,,,,,,0,141,141,240,,,,,,,,,,,,,AMP,left,0.6337242679437622,1,,,,,,,,,,,,,,left,1,0.6337242679437622,,,,,,,,,,,1044,2019_Mar_13_0950,mf_amp_cond2,3.0.4,59.987686927202226,
loyalty,&&&&&&,left,loyalty.virtue,fegard,,,,,,,,,,,,,,,0,142,142,115,,,,,,,,,,,,,AMP,right,0.2002794742002152,0,,,,,,,,,,,,,,right,0,0.2002794742002152,,,,,,,,,,,1044,2019_Mar_13_0950,mf_amp_cond2,3.0.4,59.987686927202226,
faith,&&&&&&&&&&,left,sanctity.virtue,ejanulated,,,,,,,,,,,,,,,0,143,143,128,,,,,,,,,,,,,AMP,right,0.16694141560583375,0,,,,,,,,,,,,,,right,0,0.16694141560583375,,,,,,,,,,,1044,2019_Mar_13_0950,mf_amp_cond2,3.0.4,59.987686927202226,
slending,&&&&&&&&&,None,nonword,grovelire,,,,,,,,,,,,,,,0,144,144,180,,,,,,,,,,,,,AMP,right,0.5670417364162859,0,,,,,,,,,,,,,,right,0,0.5670417364162859,,,,,,,,,,,1044,2019_Mar_13_0950,mf_amp_cond2,3.0.4,59.987686927202226,
win,&&&&&,left,fairness.virtue,aubos,,,,,,,,,,,,,,,0,145,145,146,,,,,,,,,,,,,AMP,right,0.1502659719553776,0,,,,,,,,,,,,,,right,0,0.1502659719553776,,,,,,,,,,,1044,2019_Mar_13_0950,mf_amp_cond2,3.0.4,59.987686927202226,
groups,&&&&,right,loyalty.vice,yane,,,,,,,,,,,,,,,0,146,146,120,,,,,,,,,,,,,AMP,right,0.21696550157503225,1,,,,,,,,,,,,,,right,1,0.21696550157503225,,,,,,,,,,,1044,2019_Mar_13_0950,mf_amp_cond2,3.0.4,59.987686927202226,
commitment,&&&&,left,sanctity.virtue,wump,,,,,,,,,,,,,,,0,147,147,63,,,,,,,,,,,,,AMP,right,0.1502730277425144,0,,,,,,,,,,,,,,right,0,0.1502730277425144,,,,,,,,,,,1044,2019_Mar_13_0950,mf_amp_cond2,3.0.4,59.987686927202226,
uller,&&&&&&&,None,nonword,menizen,,,,,,,,,,,,,,,0,148,148,161,,,,,,,,,,,,,AMP,right,0.46704167223651893,0,,,,,,,,,,,,,,right,0,0.46704167223651893,,,,,,,,,,,1044,2019_Mar_13_0950,mf_amp_cond2,3.0.4,59.987686927202226,
terrorist,&&&&&&,right,loyalty.vice,bycled,,,,,,,,,,,,,,,0,149,149,200,,,,,,,,,,,,,AMP,left,0.18362808442907408,0,,,,,,,,,,,,,,left,0,0.18362808442907408,,,,,,,,,,,1044,2019_Mar_13_0950,mf_amp_cond2,3.0.4,59.987686927202226,
slending,&&&&&&&&&&,None,nonword,ejanulated,,,,,,,,,,,,,,,0,150,150,53,,,,,,,,,,,,,AMP,right,0.6003852472058497,0,,,,,,,,,,,,,,right,0,0.6003852472058497,,,,,,,,,,,1044,2019_Mar_13_0950,mf_amp_cond2,3.0.4,59.987686927202226,
racist,&&&&,right,sanctity.vice,wump,,,,,,,,,,,,,,,0,151,151,106,,,,,,,,,,,,,AMP,left,0.21696293583954684,0,,,,,,,,,,,,,,left,0,0.21696293583954684,,,,,,,,,,,1044,2019_Mar_13_0950,mf_amp_cond2,3.0.4,59.987686927202226,
charges,&&&&&&&&&,right,fairness.vice,Phintoism,,,,,,,,,,,,,,,0,152,152,21,,,,,,,,,,,,,AMP,right,0.4003200130246114,1,,,,,,,,,,,,,,right,1,0.4003200130246114,,,,,,,,,,,1044,2019_Mar_13_0950,mf_amp_cond2,3.0.4,59.987686927202226,
sfumatoy,&&&&&&&&&&&&&,None,nonword,photocalkodes,,,,,,,,,,,,,,,0,153,153,3,,,,,,,,,,,,,AMP,left,0.133590207551606,0,,,,,,,,,,,,,,left,0,0.133590207551606,,,,,,,,,,,1044,2019_Mar_13_0950,mf_amp_cond2,3.0.4,59.987686927202226,
threatened,&&&&&,right,fairness.vice,dumid,,,,,,,,,,,,,,,0,154,154,264,,,,,,,,,,,,,AMP,right,0.3836532287823502,1,,,,,,,,,,,,,,right,1,0.3836532287823502,,,,,,,,,,,1044,2019_Mar_13_0950,mf_amp_cond2,3.0.4,59.987686927202226,
actively,&&&&&,left,authority.virtue,aubos,,,,,,,,,,,,,,,0,155,155,50,,,,,,,,,,,,,AMP,right,0.5003595255839173,0,,,,,,,,,,,,,,right,0,0.5003595255839173,,,,,,,,,,,1044,2019_Mar_13_0950,mf_amp_cond2,3.0.4,59.987686927202226,
compassion,&&&&&&&&&&,left,care.virtue,ecgagement,,,,,,,,,,,,,,,0,156,156,99,,,,,,,,,,,,,AMP,left,0.38365483237430453,1,,,,,,,,,,,,,,left,1,0.38365483237430453,,,,,,,,,,,1044,2019_Mar_13_0950,mf_amp_cond2,3.0.4,59.987686927202226,
loyalty,&&&&&&&&&,left,loyalty.virtue,Lacedonia,,,,,,,,,,,,,,,0,157,157,286,,,,,,,,,,,,,AMP,right,0.333668270468479,0,,,,,,,,,,,,,,right,0,0.333668270468479,,,,,,,,,,,1044,2019_Mar_13_0950,mf_amp_cond2,3.0.4,59.987686927202226,
lies,&&&&&&&,right,fairness.vice,carvels,,,,,,,,,,,,,,,0,158,158,321,,,,,,,,,,,,,AMP,left,0.3003067994432058,0,,,,,,,,,,,,,,left,0,0.3003067994432058,,,,,,,,,,,1044,2019_Mar_13_0950,mf_amp_cond2,3.0.4,59.987686927202226,
torture,&&&&&&,right,care.vice,prones,,,,,,,,,,,,,,,0,159,159,64,,,,,,,,,,,,,AMP,left,0.23362523003015667,0,,,,,,,,,,,,,,left,0,0.23362523003015667,,,,,,,,,,,1044,2019_Mar_13_0950,mf_amp_cond2,3.0.4,59.987686927202226,
clean,&&&&&&&&&&,left,sanctity.virtue,reelectiob,,,,,,,,,,,,,,,0,160,160,109,,,,,,,,,,,,,AMP,right,0.5670378877839539,0,,,,,,,,,,,,,,right,0,0.5670378877839539,,,,,,,,,,,1044,2019_Mar_13_0950,mf_amp_cond2,3.0.4,59.987686927202226,
bluently,&&&&&&&,None,nonword,Loorish,,,,,,,,,,,,,,,0,161,161,174,,,,,,,,,,,,,AMP,right,0.633728437271202,0,,,,,,,,,,,,,,right,0,0.633728437271202,,,,,,,,,,,1044,2019_Mar_13_0950,mf_amp_cond2,3.0.4,59.987686927202226,
voter,&&&&&&&&&,right,fairness.vice,Phintoism,,,,,,,,,,,,,,,0,162,162,205,,,,,,,,,,,,,AMP,right,0.5670439814275596,1,,,,,,,,,,,,,,right,1,0.5670439814275596,,,,,,,,,,,1044,2019_Mar_13_0950,mf_amp_cond2,3.0.4,59.987686927202226,
scandal,&&&&&&&&,right,sanctity.vice,nuckheap,,,,,,,,,,,,,,,0,163,163,157,,,,,,,,,,,,,AMP,left,0.6170869897759985,0,,,,,,,,,,,,,,left,0,0.6170869897759985,,,,,,,,,,,1044,2019_Mar_13_0950,mf_amp_cond2,3.0.4,59.987686927202226,
shot,&&&&&&&&&,right,care.vice,rivernoat,,,,,,,,,,,,,,,0,164,164,245,,,,,,,,,,,,,AMP,left,0.38368786638602614,0,,,,,,,,,,,,,,left,0,0.38368786638602614,,,,,,,,,,,1044,2019_Mar_13_0950,mf_amp_cond2,3.0.4,59.987686927202226,
refused,&&&&&&&&&,right,authority.vice,discovars,,,,,,,,,,,,,,,0,165,165,34,,,,,,,,,,,,,AMP,left,0.15023742799530737,0,,,,,,,,,,,,,,left,0,0.15023742799530737,,,,,,,,,,,1044,2019_Mar_13_0950,mf_amp_cond2,3.0.4,59.987686927202226,
rebels,&&&&&&&,right,authority.vice,sickyay,,,,,,,,,,,,,,,0,166,166,187,,,,,,,,,,,,,AMP,left,0.36698997241910547,0,,,,,,,,,,,,,,left,0,0.36698997241910547,,,,,,,,,,,1044,2019_Mar_13_0950,mf_amp_cond2,3.0.4,59.987686927202226,
harassment,&&&&&&&&&,right,sanctity.vice,metibolic,,,,,,,,,,,,,,,0,167,167,93,,,,,,,,,,,,,AMP,left,0.33364549942780286,0,,,,,,,,,,,,,,left,0,0.33364549942780286,,,,,,,,,,,1044,2019_Mar_13_0950,mf_amp_cond2,3.0.4,59.987686927202226,
police,&&&&&&&,right,authority.vice,menizen,,,,,,,,,,,,,,,0,168,168,266,,,,,,,,,,,,,AMP,right,0.5336988670460414,1,,,,,,,,,,,,,,right,1,0.5336988670460414,,,,,,,,,,,1044,2019_Mar_13_0950,mf_amp_cond2,3.0.4,59.987686927202226,
gun,&&&&&,right,authority.vice,scock,,,,,,,,,,,,,,,0,169,169,79,,,,,,,,,,,,,AMP,left,0.2502945800370071,0,,,,,,,,,,,,,,left,0,0.2502945800370071,,,,,,,,,,,1044,2019_Mar_13_0950,mf_amp_cond2,3.0.4,59.987686927202226,
illegal,&&&&&&&&,right,fairness.vice,suggists,,,,,,,,,,,,,,,0,170,170,203,,,,,,,,,,,,,AMP,left,0.4336667310271878,0,,,,,,,,,,,,,,left,0,0.4336667310271878,,,,,,,,,,,1044,2019_Mar_13_0950,mf_amp_cond2,3.0.4,59.987686927202226,
improve,&&&&&&&,left,care.virtue,allears,,,,,,,,,,,,,,,0,171,171,276,,,,,,,,,,,,,AMP,right,0.31695626486907713,0,,,,,,,,,,,,,,right,0,0.31695626486907713,,,,,,,,,,,1044,2019_Mar_13_0950,mf_amp_cond2,3.0.4,59.987686927202226,
energy,&&&&&&&&,left,sanctity.virtue,nuckheap,,,,,,,,,,,,,,,0,172,172,27,,,,,,,,,,,,,AMP,left,0.16681633537518792,1,,,,,,,,,,,,,,left,1,0.16681633537518792,,,,,,,,,,,1044,2019_Mar_13_0950,mf_amp_cond2,3.0.4,59.987686927202226,
war,&&&&&&&&,right,sanctity.vice,proached,,,,,,,,,,,,,,,0,173,173,56,,,,,,,,,,,,,AMP,left,0.48367895040428266,0,,,,,,,,,,,,,,left,0,0.48367895040428266,,,,,,,,,,,1044,2019_Mar_13_0950,mf_amp_cond2,3.0.4,59.987686927202226,
police,&&&&&&&&&,right,authority.vice,godlaness,,,,,,,,,,,,,,,0,174,174,153,,,,,,,,,,,,,AMP,right,0.3669976696546655,1,,,,,,,,,,,,,,right,1,0.3669976696546655,,,,,,,,,,,1044,2019_Mar_13_0950,mf_amp_cond2,3.0.4,59.987686927202226,
death,&&&&&&&&&&,right,care.vice,imebreaker,,,,,,,,,,,,,,,0,175,175,55,,,,,,,,,,,,,AMP,right,1.5673185165505856,1,,,,,,,,,,,,,,right,1,1.5673185165505856,,,,,,,,,,,1044,2019_Mar_13_0950,mf_amp_cond2,3.0.4,59.987686927202226,
penalty,&&&&&&&&&&&,right,authority.vice,hefurbished,,,,,,,,,,,,,,,0,176,176,91,,,,,,,,,,,,,AMP,left,1.4672600816120394,0,,,,,,,,,,,,,,left,0,1.4672600816120394,,,,,,,,,,,1044,2019_Mar_13_0950,mf_amp_cond2,3.0.4,59.987686927202226,
scandal,&&&&&&&&&&&,right,sanctity.vice,shoirmaster,,,,,,,,,,,,,,,0,177,177,40,,,,,,,,,,,,,AMP,left,0.6170812168566044,0,,,,,,,,,,,,,,left,0,0.6170812168566044,,,,,,,,,,,1044,2019_Mar_13_0950,mf_amp_cond2,3.0.4,59.987686927202226,
growth,&&&&&&&&&&&,left,care.virtue,vicissifude,,,,,,,,,,,,,,,0,178,178,232,,,,,,,,,,,,,AMP,right,0.2669783624005504,0,,,,,,,,,,,,,,right,0,0.2669783624005504,,,,,,,,,,,1044,2019_Mar_13_0950,mf_amp_cond2,3.0.4,59.987686927202226,
charges,&&&&&&&&&,right,fairness.vice,taxpayung,,,,,,,,,,,,,,,0,179,179,201,,,,,,,,,,,,,AMP,right,1.267218580644112,1,,,,,,,,,,,,,,right,1,1.267218580644112,,,,,,,,,,,1044,2019_Mar_13_0950,mf_amp_cond2,3.0.4,59.987686927202226,
illegal,&&&&&&&&&&&,right,fairness.vice,ilportation,,,,,,,,,,,,,,,0,180,180,308,,,,,,,,,,,,,AMP,left,0.26697772095212713,0,,,,,,,,,,,,,,left,0,0.26697772095212713,,,,,,,,,,,1044,2019_Mar_13_0950,mf_amp_cond2,3.0.4,59.987686927202226,
chonograph,&&&&&&,None,nonword,Boeinf,,,,,,,,,,,,,,,0,181,181,94,,,,,,,,,,,,,AMP,left,1.2838545759150293,0,,,,,,,,,,,,,,left,0,1.2838545759150293,,,,,,,,,,,1044,2019_Mar_13_0950,mf_amp_cond2,3.0.4,59.987686927202226,
integrity,&&&&&&&,left,fairness.virtue,allears,,,,,,,,,,,,,,,0,182,182,126,,,,,,,,,,,,,AMP,right,0.6337322859035339,0,,,,,,,,,,,,,,right,0,0.6337322859035339,,,,,,,,,,,1044,2019_Mar_13_0950,mf_amp_cond2,3.0.4,59.987686927202226,
protect,&&&&&&&,left,fairness.virtue,stindig,,,,,,,,,,,,,,,0,183,183,210,,,,,,,,,,,,,AMP,left,0.23362490930594504,1,,,,,,,,,,,,,,left,1,0.23362490930594504,,,,,,,,,,,1044,2019_Mar_13_0950,mf_amp_cond2,3.0.4,59.987686927202226,
clean,&&&&&&&,left,sanctity.virtue,Loorish,,,,,,,,,,,,,,,0,184,184,1,,,,,,,,,,,,,AMP,right,0.5837219908135012,0,,,,,,,,,,,,,,right,0,0.5837219908135012,,,,,,,,,,,1044,2019_Mar_13_0950,mf_amp_cond2,3.0.4,59.987686927202226,
victims,&&&&&&,right,care.vice,tislay,,,,,,,,,,,,,,,0,185,185,15,,,,,,,,,,,,,AMP,right,0.5670519993873313,1,,,,,,,,,,,,,,right,1,0.5670519993873313,,,,,,,,,,,1044,2019_Mar_13_0950,mf_amp_cond2,3.0.4,59.987686927202226,
illegal,&&&&&&&&&&&,right,fairness.vice,cromiscuity,,,,,,,,,,,,,,,0,186,186,156,,,,,,,,,,,,,AMP,right,0.050255644804565236,1,,,,,,,,,,,,,,right,1,0.050255644804565236,,,,,,,,,,,1044,2019_Mar_13_0950,mf_amp_cond2,3.0.4,59.987686927202226,
harassment,&&&&&,right,sanctity.vice,scock,,,,,,,,,,,,,,,0,187,187,219,,,,,,,,,,,,,AMP,right,0.016913096158532426,1,,,,,,,,,,,,,,right,1,0.016913096158532426,,,,,,,,,,,1044,2019_Mar_13_0950,mf_amp_cond2,3.0.4,59.987686927202226,
health,&&&&,left,care.virtue,ning,,,,,,,,,,,,,,,0,188,188,162,,,,,,,,,,,,,AMP,right,0.28362718640710227,0,,,,,,,,,,,,,,right,0,0.28362718640710227,,,,,,,,,,,1044,2019_Mar_13_0950,mf_amp_cond2,3.0.4,59.987686927202226,
ensure,&&&&&,left,fairness.virtue,dumid,,,,,,,,,,,,,,,0,189,189,8,,,,,,,,,,,,,AMP,right,0.16694333992199972,0,,,,,,,,,,,,,,right,0,0.16694333992199972,,,,,,,,,,,1044,2019_Mar_13_0950,mf_amp_cond2,3.0.4,59.987686927202226,
ensure,&&&&&,left,fairness.virtue,atson,,,,,,,,,,,,,,,0,190,190,301,,,,,,,,,,,,,AMP,right,0.016913737606955692,0,,,,,,,,,,,,,,right,0,0.016913737606955692,,,,,,,,,,,1044,2019_Mar_13_0950,mf_amp_cond2,3.0.4,59.987686927202226,
violations,&&&&&&&&&,right,sanctity.vice,grovelire,,,,,,,,,,,,,,,0,191,191,36,,,,,,,,,,,,,AMP,right,0.23363036155933514,1,,,,,,,,,,,,,,right,1,0.23363036155933514,,,,,,,,,,,1044,2019_Mar_13_0950,mf_amp_cond2,3.0.4,59.987686927202226,
powerful,&&&&&&&,left,authority.virtue,lursuer,,,,,,,,,,,,,,,0,192,192,134,,,,,,,,,,,,,AMP,right,0.7337448580656201,0,,,,,,,,,,,,,,right,0,0.7337448580656201,,,,,,,,,,,1044,2019_Mar_13_0950,mf_amp_cond2,3.0.4,59.987686927202226,
powerful,&&&&&&&&&&,left,authority.virtue,imebreaker,,,,,,,,,,,,,,,0,193,193,311,,,,,,,,,,,,,AMP,right,1.5839554739941377,0,,,,,,,,,,,,,,right,0,1.5839554739941377,,,,,,,,,,,1044,2019_Mar_13_0950,mf_amp_cond2,3.0.4,59.987686927202226,
abuse,&&&&&&&&&&&&&,right,sanctity.vice,wonderfujnoss,,,,,,,,,,,,,,,0,194,194,124,,,,,,,,,,,,,AMP,left,0.18361750070471317,0,,,,,,,,,,,,,,left,0,0.18361750070471317,,,,,,,,,,,1044,2019_Mar_13_0950,mf_amp_cond2,3.0.4,59.987686927202226,
army,&&&&&&&&&,right,loyalty.vice,grovelire,,,,,,,,,,,,,,,0,195,195,98,,,,,,,,,,,,,AMP,left,0.7504174152563792,0,,,,,,,,,,,,,,left,0,0.7504174152563792,,,,,,,,,,,1044,2019_Mar_13_0950,mf_amp_cond2,3.0.4,59.987686927202226,
black,&&&&&&&&&&&,right,loyalty.vice,ronviolence,,,,,,,,,,,,,,,0,196,196,88,,,,,,,,,,,,,AMP,right,0.5670433400082402,1,,,,,,,,,,,,,,right,1,0.5670433400082402,,,,,,,,,,,1044,2019_Mar_13_0950,mf_amp_cond2,3.0.4,59.987686927202226,
support,&&&&&&&&,left,loyalty.virtue,suggists,,,,,,,,,,,,,,,0,197,197,279,,,,,,,,,,,,,AMP,right,0.9004505455086473,0,,,,,,,,,,,,,,right,0,0.9004505455086473,,,,,,,,,,,1044,2019_Mar_13_0950,mf_amp_cond2,3.0.4,59.987686927202226,
integrity,&&&&&&&&,left,fairness.virtue,nuckheap,,,,,,,,,,,,,,,0,198,198,233,,,,,,,,,,,,,AMP,right,0.25029842866933905,0,,,,,,,,,,,,,,right,0,0.25029842866933905,,,,,,,,,,,1044,2019_Mar_13_0950,mf_amp_cond2,3.0.4,59.987686927202226,
ability,&&&&&&&&&&&,left,authority.virtue,mightingale,,,,,,,,,,,,,,,0,199,199,92,,,,,,,,,,,,,AMP,right,0.20028685074066743,0,,,,,,,,,,,,,,right,0,0.20028685074066743,,,,,,,,,,,1044,2019_Mar_13_0950,mf_amp_cond2,3.0.4,59.987686927202226,
seachwear,&&&&&&&&&&,None,nonword,focomotive,,,,,,,,,,,,,,,0,200,200,192,,,,,,,,,,,,,AMP,right,0.10025150753790513,0,,,,,,,,,,,,,,right,0,0.10025150753790513,,,,,,,,,,,1044,2019_Mar_13_0950,mf_amp_cond2,3.0.4,59.987686927202226,
charges,&&&&&&&&&&,right,fairness.vice,honstables,,,,,,,,,,,,,,,0,201,201,253,,,,,,,,,,,,,AMP,right,0.26700466132024303,1,,,,,,,,,,,,,,right,1,0.26700466132024303,,,,,,,,,,,1044,2019_Mar_13_0950,mf_amp_cond2,3.0.4,59.987686927202226,
groups,&&&&&&&&&&&,right,loyalty.vice,vicissifude,,,,,,,,,,,,,,,0,202,202,57,,,,,,,,,,,,,AMP,right,0.03357731466530822,1,,,,,,,,,,,,,,right,1,0.03357731466530822,,,,,,,,,,,1044,2019_Mar_13_0950,mf_amp_cond2,3.0.4,59.987686927202226,
growth,&&&&&&&&&,left,care.virtue,taxpayung,,,,,,,,,,,,,,,0,203,203,246,,,,,,,,,,,,,AMP,right,0.5670439814275596,0,,,,,,,,,,,,,,right,0,0.5670439814275596,,,,,,,,,,,1044,2019_Mar_13_0950,mf_amp_cond2,3.0.4,59.987686927202226,
commitment,&&&&&&&,left,sanctity.virtue,menizen,,,,,,,,,,,,,,,0,204,204,194,,,,,,,,,,,,,AMP,right,0.6003769085218664,0,,,,,,,,,,,,,,right,0,0.6003769085218664,,,,,,,,,,,1044,2019_Mar_13_0950,mf_amp_cond2,3.0.4,59.987686927202226,
pleasant,&&&&&,None,control,noped,,,,,,,,,,,,,,,0,205,205,281,,,,,,,,,,,,,AMP,right,0.20028588856803253,0,,,,,,,,,,,,,,right,0,0.20028588856803253,,,,,,,,,,,1044,2019_Mar_13_0950,mf_amp_cond2,3.0.4,59.987686927202226,
failure,&&&&&&&&&&,right,loyalty.vice,focomotive,,,,,,,,,,,,,,,0,206,206,259,,,,,,,,,,,,,AMP,right,0.1335959805001039,1,,,,,,,,,,,,,,right,1,0.1335959805001039,,,,,,,,,,,1044,2019_Mar_13_0950,mf_amp_cond2,3.0.4,59.987686927202226,
gun,&&&&&,right,authority.vice,atson,,,,,,,,,,,,,,,0,207,207,222,,,,,,,,,,,,,AMP,right,0.0669195425871294,1,,,,,,,,,,,,,,right,1,0.0669195425871294,,,,,,,,,,,1044,2019_Mar_13_0950,mf_amp_cond2,3.0.4,59.987686927202226,
praise,&&&&&&&&&&&,left,authority.virtue,shoirmaster,,,,,,,,,,,,,,,0,208,208,149,,,,,,,,,,,,,AMP,right,0.08359081693924963,0,,,,,,,,,,,,,,right,0,0.08359081693924963,,,,,,,,,,,1044,2019_Mar_13_0950,mf_amp_cond2,3.0.4,59.987686927202226,
festate,&&&&&&&,None,nonword,nackers,,,,,,,,,,,,,,,0,209,209,136,,,,,,,,,,,,,AMP,right,0.016924642026424408,0,,,,,,,,,,,,,,right,0,0.016924642026424408,,,,,,,,,,,1044,2019_Mar_13_0950,mf_amp_cond2,3.0.4,59.987686927202226,
scandal,&&&&&&&&&,right,sanctity.vice,metibolic,,,,,,,,,,,,,,,0,210,210,208,,,,,,,,,,,,,AMP,right,0.016927207761909813,1,,,,,,,,,,,,,,right,1,0.016927207761909813,,,,,,,,,,,1044,2019_Mar_13_0950,mf_amp_cond2,3.0.4,59.987686927202226,
violations,&&&&&&&&&,right,sanctity.vice,Phintoism,,,,,,,,,,,,,,,0,211,211,131,,,,,,,,,,,,,AMP,right,0.01690828538266942,1,,,,,,,,,,,,,,right,1,0.01690828538266942,,,,,,,,,,,1044,2019_Mar_13_0950,mf_amp_cond2,3.0.4,59.987686927202226,
unpleasant,&&&&&&&&&&&,None,control,vicissifude,,,,,,,,,,,,,,,0,212,212,289,,,,,,,,,,,,,AMP,right,0.05024345751735382,0,,,,,,,,,,,,,,right,0,0.05024345751735382,,,,,,,,,,,1044,2019_Mar_13_0950,mf_amp_cond2,3.0.4,59.987686927202226,
integrity,&&&&&&,left,fairness.virtue,sgrawl,,,,,,,,,,,,,,,0,213,213,73,,,,,,,,,,,,,AMP,right,0.3169767908693757,0,,,,,,,,,,,,,,right,0,0.3169767908693757,,,,,,,,,,,1044,2019_Mar_13_0950,mf_amp_cond2,3.0.4,59.987686927202226,
restore,&&&&&&,left,care.virtue,fegard,,,,,,,,,,,,,,,0,214,214,211,,,,,,,,,,,,,AMP,right,0.0002456704678479582,0,,,,,,,,,,,,,,right,0,0.0002456704678479582,,,,,,,,,,,1044,2019_Mar_13_0950,mf_amp_cond2,3.0.4,59.987686927202226,
restore,&&&&&&&&&&,left,care.virtue,lorthwhile,,,,,,,,,,,,,,,0,215,215,95,,,,,,,,,,,,,AMP,right,0.08360877717495896,0,,,,,,,,,,,,,,right,0,0.08360877717495896,,,,,,,,,,,1044,2019_Mar_13_0950,mf_amp_cond2,3.0.4,59.987686927202226,
black,&&&&&&&&&,right,loyalty.vice,gandbrake,,,,,,,,,,,,,,,0,216,216,252,,,,,,,,,,,,,AMP,right,0.3169723008177243,1,,,,,,,,,,,,,,right,1,0.3169723008177243,,,,,,,,,,,1044,2019_Mar_13_0950,mf_amp_cond2,3.0.4,59.987686927202226,
strong,&&&&&&,left,loyalty.virtue,sgrawl,,,,,,,,,,,,,,,0,217,217,159,,,,,,,,,,,,,AMP,right,0.4170191898883786,0,,,,,,,,,,,,,,right,0,0.4170191898883786,,,,,,,,,,,1044,2019_Mar_13_0950,mf_amp_cond2,3.0.4,59.987686927202226,
death,&&&&&&&,right,care.vice,nackers,,,,,,,,,,,,,,,0,218,218,224,,,,,,,,,,,,,AMP,right,0.10025439399760216,1,,,,,,,,,,,,,,right,1,0.10025439399760216,,,,,,,,,,,1044,2019_Mar_13_0950,mf_amp_cond2,3.0.4,59.987686927202226,
harassment,&&&&,right,sanctity.vice,wump,,,,,,,,,,,,,,,0,219,219,272,,,,,,,,,,,,,AMP,right,0.10026529844617471,1,,,,,,,,,,,,,,right,1,0.10026529844617471,,,,,,,,,,,1044,2019_Mar_13_0950,mf_amp_cond2,3.0.4,59.987686927202226,
chonograph,&&&&&&&&&&&,None,nonword,ronviolence,,,,,,,,,,,,,,,0,220,220,42,,,,,,,,,,,,,AMP,right,0.08360204208292998,0,,,,,,,,,,,,,,right,0,0.08360204208292998,,,,,,,,,,,1044,2019_Mar_13_0950,mf_amp_cond2,3.0.4,59.987686927202226,
love,&&&&&&&,left,loyalty.virtue,sickyay,,,,,,,,,,,,,,,0,221,221,145,,,,,,,,,,,,,AMP,right,0.21696742589119822,0,,,,,,,,,,,,,,right,0,0.21696742589119822,,,,,,,,,,,1044,2019_Mar_13_0950,mf_amp_cond2,3.0.4,59.987686927202226,
promised,&&&&&&&&&&&,left,loyalty.virtue,hefurbished,,,,,,,,,,,,,,,0,222,222,170,,,,,,,,,,,,,AMP,right,0.11693593132076785,0,,,,,,,,,,,,,,right,0,0.11693593132076785,,,,,,,,,,,1044,2019_Mar_13_0950,mf_amp_cond2,3.0.4,59.987686927202226,
unpleasant,&&&&&,None,control,hasks,,,,,,,,,,,,,,,0,223,223,195,,,,,,,,,,,,,AMP,right,0.133590207551606,0,,,,,,,,,,,,,,right,0,0.133590207551606,,,,,,,,,,,1044,2019_Mar_13_0950,mf_amp_cond2,3.0.4,59.987686927202226,
energy,&&&&&&,left,sanctity.virtue,Boeinf,,,,,,,,,,,,,,,0,224,224,225,,,,,,,,,,,,,AMP,right,0.0169207934231963,0,,,,,,,,,,,,,,right,0,0.0169207934231963,,,,,,,,,,,1044,2019_Mar_13_0950,mf_amp_cond2,3.0.4,59.987686927202226,
betrayal,&&&&&&&,right,loyalty.vice,baklara,,,,,,,,,,,,,,,0,225,225,262,,,,,,,,,,,,,AMP,right,0.03356705166515894,1,,,,,,,,,,,,,,right,1,0.03356705166515894,,,,,,,,,,,1044,2019_Mar_13_0950,mf_amp_cond2,3.0.4,59.987686927202226,
abuse,&&&&&&&&&&&,right,sanctity.vice,mightingale,,,,,,,,,,,,,,,0,226,226,318,,,,,,,,,,,,,AMP,right,0.0002482362324371934,1,,,,,,,,,,,,,,right,1,0.0002482362324371934,,,,,,,,,,,1044,2019_Mar_13_0950,mf_amp_cond2,3.0.4,59.987686927202226,
dignity,&&&&&&&&&&&&,left,sanctity.virtue,feleological,,,,,,,,,,,,,,,0,227,227,139,,,,,,,,,,,,,AMP,right,0.13359886695980094,0,,,,,,,,,,,,,,right,0,0.13359886695980094,,,,,,,,,,,1044,2019_Mar_13_0950,mf_amp_cond2,3.0.4,59.987686927202226,
clean,&&&&&&&&&&,left,sanctity.virtue,honstables,,,,,,,,,,,,,,,0,228,228,213,,,,,,,,,,,,,AMP,right,0.08357959176646546,0,,,,,,,,,,,,,,right,0,0.08357959176646546,,,,,,,,,,,1044,2019_Mar_13_0950,mf_amp_cond2,3.0.4,59.987686927202226,
drug,&&&&&&,right,sanctity.vice,fostet,,,,,,,,,,,,,,,0,229,229,189,,,,,,,,,,,,,AMP,right,0.3169460018980317,1,,,,,,,,,,,,,,right,1,0.3169460018980317,,,,,,,,,,,1044,2019_Mar_13_0950,mf_amp_cond2,3.0.4,59.987686927202226,
ensure,&&&&&&&&&,left,fairness.virtue,gandbrake,,,,,,,,,,,,,,,0,230,230,112,,,,,,,,,,,,,AMP,right,0.10026658131391741,0,,,,,,,,,,,,,,right,0,0.10026658131391741,,,,,,,,,,,1044,2019_Mar_13_0950,mf_amp_cond2,3.0.4,59.987686927202226,
hate,&&&&&&&&&&&&,right,fairness.vice,quarterbocks,,,,,,,,,,,,,,,0,231,231,314,,,,,,,,,,,,,AMP,right,0.08359723127796315,1,,,,,,,,,,,,,,right,1,0.08359723127796315,,,,,,,,,,,1044,2019_Mar_13_0950,mf_amp_cond2,3.0.4,59.987686927202226,
lies,&&&&&&&&,right,fairness.vice,tracious,,,,,,,,,,,,,,,0,232,232,183,,,,,,,,,,,,,AMP,right,0.7670944625569973,1,,,,,,,,,,,,,,right,1,0.7670944625569973,,,,,,,,,,,1044,2019_Mar_13_0950,mf_amp_cond2,3.0.4,59.987686927202226,
terrorist,&&&&&&&&&&,right,loyalty.vice,galamitous,,,,,,,,,,,,,,,0,233,233,315,,,,,,,,,,,,,AMP,right,0.21697095379931852,1,,,,,,,,,,,,,,right,1,0.21697095379931852,,,,,,,,,,,1044,2019_Mar_13_0950,mf_amp_cond2,3.0.4,59.987686927202226,
sowntrodden,&&&&&&&&&&,None,nonword,focomotive,,,,,,,,,,,,,,,0,234,234,105,,,,,,,,,,,,,AMP,right,0.2335986103862524,0,,,,,,,,,,,,,,right,0,0.2335986103862524,,,,,,,,,,,1044,2019_Mar_13_0950,mf_amp_cond2,3.0.4,59.987686927202226,
prison,&&&&&&&&&&&,right,fairness.vice,cromiscuity,,,,,,,,,,,,,,,0,235,235,274,,,,,,,,,,,,,AMP,right,0.3669941417465452,1,,,,,,,,,,,,,,right,1,0.3669941417465452,,,,,,,,,,,1044,2019_Mar_13_0950,mf_amp_cond2,3.0.4,59.987686927202226,
praised,&&&&&&&&&,left,loyalty.virtue,discovars,,,,,,,,,,,,,,,0,236,236,107,,,,,,,,,,,,,AMP,right,0.933794056327315,0,,,,,,,,,,,,,,right,0,0.933794056327315,,,,,,,,,,,1044,2019_Mar_13_0950,mf_amp_cond2,3.0.4,59.987686927202226,
unpleasant,&&&&&&,None,control,bycled,,,,,,,,,,,,,,,0,237,237,100,,,,,,,,,,,,,AMP,right,0.06695257659885101,0,,,,,,,,,,,,,,right,0,0.06695257659885101,,,,,,,,,,,1044,2019_Mar_13_0950,mf_amp_cond2,3.0.4,59.987686927202226,
civilians,&&&&&&&,right,care.vice,menizen,,,,,,,,,,,,,,,0,238,238,39,,,,,,,,,,,,,AMP,right,0.3336426129681058,1,,,,,,,,,,,,,,right,1,0.3336426129681058,,,,,,,,,,,1044,2019_Mar_13_0950,mf_amp_cond2,3.0.4,59.987686927202226,
