words,mask,corr_ans,category,nonwords,tweets,topic,LDT_pracloop.thisRepN,LDT_pracloop.thisTrialN,LDT_pracloop.thisN,LDT_pracloop.thisIndex,LDT_trials.thisRepN,LDT_trials.thisTrialN,LDT_trials.thisN,LDT_trials.thisIndex,AMP_pracloop.thisRepN,AMP_pracloop.thisTrialN,AMP_pracloop.thisN,AMP_pracloop.thisIndex,AMP_trials.thisRepN,AMP_trials.thisTrialN,AMP_trials.thisN,AMP_trials.thisIndex,tweet_loop.thisRepN,tweet_loop.thisTrialN,tweet_loop.thisN,tweet_loop.thisIndex,begin_key.keys,begin_key.rt,key_resp_AMP_instr1.keys,key_resp_AMP_instr1.rt,key_resp_LDT_instr.keys,key_resp_LDT_instr.rt,resp_LDT_prac.keys,resp_LDT_prac.rt,task,keypress,RT,corr,resp_LDT_ready.keys,resp_LDT_ready.rt,resp_LDT.keys,resp_LDT.corr,resp_LDT.rt,LDT_rating.response,LDT_rating.rt,resp_AMP_ready1.keys,resp_AMP_ready1.rt,resp_AMP_prac.keys,resp_AMP_prac.rt,resp_AMP_ready.keys,resp_AMP_ready.rt,resp_AMP.keys,resp_AMP.corr,resp_AMP.rt,AMP_nonword_rating.response,AMP_nonword_rating.rt,AMP_word_rating.response,AMP_word_rating.rt,AMP_random_rating.response,AMP_random_rating.rt,key_resp_LDT_instr_2.keys,key_resp_LDT_instr_2.rt,resp_tweets.keys,resp_tweets.rt,participant,date,expName,psychopyVersion,frameRate,
,,,,,,,,,,,,,,,,,,,,,,,,,,,right,862.9241310234356,,,,,,,,,,,,,,,,,,,,,,,,,,,,,,,,,,,,,1046,2019_Mar_13_0951,mf_amp_cond2,3.0.4,59.98566734567433,
,,,,,,,,,,,,,,,,,,,,,,,,,,,,,right,2.317511153756641,,,,,,,,,,,,,,,,,,,,,,,,,,,,,,,,,,,1046,2019_Mar_13_0951,mf_amp_cond2,3.0.4,59.98566734567433,
,,,,,,,,,,,,,,,,,,,,,,,,,,,,,,,right,3.217715675418731,,,,,,,,,,,,,,,,,,,,,,,,,,,,,,,,,1046,2019_Mar_13_0951,mf_amp_cond2,3.0.4,59.98566734567433,
bisebell,&&&&&&&,,,,,,0,0,0,1,,,,,,,,,,,,,,,,,,,,,,,left,1.467262902209768,LDT_prac,left,1.467262902209768,0,,,,,,,,,,,,,,,,,,,,,,,,,,,1046,2019_Mar_13_0951,mf_amp_cond2,3.0.4,59.98566734567433,
keyboard,&&&&&&&,,,,,,0,1,1,0,,,,,,,,,,,,,,,,,,,,,,,right,2.400821742863627,LDT_prac,right,2.400821742863627,0,,,,,,,,,,,,,,,,,,,,,,,,,,,1046,2019_Mar_13_0951,mf_amp_cond2,3.0.4,59.98566734567433,
,,,,,,,,,,,,,,,,,,,,,,,,,,,,,,,,,,,,,,,right,2.9509548888308927,,,,,,,,,,,,,,,,,,,,,,,,,1046,2019_Mar_13_0951,mf_amp_cond2,3.0.4,59.98566734567433,
care,&&&&,left,care.virtue,,,,,,,,0,0,0,0,,,,,,,,,,,,,,,,,,,,,LDT,right,0.9671460006211419,0,,,right,0,0.9671460006211419,,,,,,,,,,,,,,,,,,,,,,1046,2019_Mar_13_0951,mf_amp_cond2,3.0.4,59.98566734567433,
asn,&&&,right,nonword,,,,,,,,0,1,1,136,,,,,,,,,,,,,,,,,,,,,LDT,left,1.1838616783206817,0,,,left,0,1.1838616783206817,,,,,,,,,,,,,,,,,,,,,,1046,2019_Mar_13_0951,mf_amp_cond2,3.0.4,59.98566734567433,
death,&&&&&,left,care.vice,,,,,,,,0,2,2,160,,,,,,,,,,,,,,,,,,,,,LDT,right,0.7004256244399585,0,,,right,0,0.7004256244399585,,,,,,,,,,,,,,,,,,,,,,1046,2019_Mar_13_0951,mf_amp_cond2,3.0.4,59.98566734567433,
hereby,&&&&&&,left,neutral,,,,,,,,0,3,3,96,,,,,,,,,,,,,,,,,,,,,LDT,left,1.267237693828065,1,,,left,1,1.267237693828065,,,,,,,,,,,,,,,,,,,,,,1046,2019_Mar_13_0951,mf_amp_cond2,3.0.4,59.98566734567433,
sowntrodden,&&&&&&&&&&&,right,nonword,,,,,,,,0,4,4,157,,,,,,,,,,,,,,,,,,,,,LDT,left,0.9171233419328928,0,,,left,0,0.9171233419328928,,,,,,,,,,,,,,,,,,,,,,1046,2019_Mar_13_0951,mf_amp_cond2,3.0.4,59.98566734567433,
improve,&&&&&&&,left,care.virtue,,,,,,,,0,5,5,73,,,,,,,,,,,,,,,,,,,,,LDT,right,0.6837162328301929,0,,,right,0,0.6837162328301929,,,,,,,,,,,,,,,,,,,,,,1046,2019_Mar_13_0951,mf_amp_cond2,3.0.4,59.98566734567433,
rebels,&&&&&&,left,authority.vice,,,,,,,,0,6,6,92,,,,,,,,,,,,,,,,,,,,,LDT,left,1.684031177603174,1,,,left,1,1.684031177603174,,,,,,,,,,,,,,,,,,,,,,1046,2019_Mar_13_0951,mf_amp_cond2,3.0.4,59.98566734567433,
gournful,&&&&&&&&,right,nonword,,,,,,,,0,7,7,101,,,,,,,,,,,,,,,,,,,,,LDT,left,0.7837625123793259,0,,,left,0,0.7837625123793259,,,,,,,,,,,,,,,,,,,,,,1046,2019_Mar_13_0951,mf_amp_cond2,3.0.4,59.98566734567433,
sharing,&&&&&&&,left,loyalty.virtue,,,,,,,,0,8,8,138,,,,,,,,,,,,,,,,,,,,,LDT,right,0.5337287568545435,0,,,right,0,0.5337287568545435,,,,,,,,,,,,,,,,,,,,,,1046,2019_Mar_13_0951,mf_amp_cond2,3.0.4,59.98566734567433,
emassion,&&&&&&&&,right,nonword,,,,,,,,0,9,9,33,,,,,,,,,,,,,,,,,,,,,LDT,right,0.5837097222683951,1,,,right,1,0.5837097222683951,,,,,,,,,,,,,,,,,,,,,,1046,2019_Mar_13_0951,mf_amp_cond2,3.0.4,59.98566734567433,
amount,&&&&&&,left,neutral,,,,,,,,0,10,10,32,,,,,,,,,,,,,,,,,,,,,LDT,right,0.467028778308304,0,,,right,0,0.467028778308304,,,,,,,,,,,,,,,,,,,,,,1046,2019_Mar_13_0951,mf_amp_cond2,3.0.4,59.98566734567433,
scalbel,&&&&&&&,right,nonword,,,,,,,,0,11,11,89,,,,,,,,,,,,,,,,,,,,,LDT,left,0.9004437770636287,0,,,left,0,0.9004437770636287,,,,,,,,,,,,,,,,,,,,,,1046,2019_Mar_13_0951,mf_amp_cond2,3.0.4,59.98566734567433,
Lacedonia,&&&&&&&&&,right,nonword,,,,,,,,0,12,12,149,,,,,,,,,,,,,,,,,,,,,LDT,left,0.7004121542850044,0,,,left,0,0.7004121542850044,,,,,,,,,,,,,,,,,,,,,,1046,2019_Mar_13_0951,mf_amp_cond2,3.0.4,59.98566734567433,
lempestuous,&&&&&&&&&&&,right,nonword,,,,,,,,0,13,13,197,,,,,,,,,,,,,,,,,,,,,LDT,left,0.7004031742108054,0,,,left,0,0.7004031742108054,,,,,,,,,,,,,,,,,,,,,,1046,2019_Mar_13_0951,mf_amp_cond2,3.0.4,59.98566734567433,
pulge,&&&&&,right,nonword,,,,,,,,0,14,14,180,,,,,,,,,,,,,,,,,,,,,LDT,right,0.5837042700732127,1,,,right,1,0.5837042700732127,,,,,,,,,,,,,,,,,,,,,,1046,2019_Mar_13_0951,mf_amp_cond2,3.0.4,59.98566734567433,
riot,&&&&,left,authority.vice,,,,,,,,0,15,15,132,,,,,,,,,,,,,,,,,,,,,LDT,right,0.633722759434022,0,,,right,0,0.633722759434022,,,,,,,,,,,,,,,,,,,,,,1046,2019_Mar_13_0951,mf_amp_cond2,3.0.4,59.98566734567433,
disregord,&&&&&&&&&,right,nonword,,,,,,,,0,16,16,142,,,,,,,,,,,,,,,,,,,,,LDT,right,1.117171642021276,1,,,right,1,1.117171642021276,,,,,,,,,,,,,,,,,,,,,,1046,2019_Mar_13_0951,mf_amp_cond2,3.0.4,59.98566734567433,
chared,&&&&&&,right,nonword,,,,,,,,0,17,17,170,,,,,,,,,,,,,,,,,,,,,LDT,right,1.2005322630575392,1,,,right,1,1.2005322630575392,,,,,,,,,,,,,,,,,,,,,,1046,2019_Mar_13_0951,mf_amp_cond2,3.0.4,59.98566734567433,
about,&&&&&,left,neutral,,,,,,,,0,18,18,155,,,,,,,,,,,,,,,,,,,,,LDT,left,0.667076436948264,1,,,left,1,0.667076436948264,,,,,,,,,,,,,,,,,,,,,,1046,2019_Mar_13_0951,mf_amp_cond2,3.0.4,59.98566734567433,
embrace,&&&&&&&,left,authority.virtue,,,,,,,,0,19,19,48,,,,,,,,,,,,,,,,,,,,,LDT,right,1.0338225667946972,0,,,right,0,1.0338225667946972,,,,,,,,,,,,,,,,,,,,,,1046,2019_Mar_13_0951,mf_amp_cond2,3.0.4,59.98566734567433,
three,&&&&&,left,neutral,,,,,,,,0,20,20,67,,,,,,,,,,,,,,,,,,,,,LDT,right,0.6337298152211588,0,,,right,0,0.6337298152211588,,,,,,,,,,,,,,,,,,,,,,1046,2019_Mar_13_0951,mf_amp_cond2,3.0.4,59.98566734567433,
nackers,&&&&&&&,right,nonword,,,,,,,,0,21,21,68,,,,,,,,,,,,,,,,,,,,,LDT,left,1.2005338666785974,0,,,left,0,1.2005338666785974,,,,,,,,,,,,,,,,,,,,,,1046,2019_Mar_13_0951,mf_amp_cond2,3.0.4,59.98566734567433,
slending,&&&&&&&&,right,nonword,,,,,,,,0,22,22,3,,,,,,,,,,,,,,,,,,,,,LDT,left,0.950474774435861,0,,,left,0,0.950474774435861,,,,,,,,,,,,,,,,,,,,,,1046,2019_Mar_13_0951,mf_amp_cond2,3.0.4,59.98566734567433,
besides,&&&&&&&,left,neutral,,,,,,,,0,23,23,99,,,,,,,,,,,,,,,,,,,,,LDT,right,0.5503653455525637,0,,,right,0,0.5503653455525637,,,,,,,,,,,,,,,,,,,,,,1046,2019_Mar_13_0951,mf_amp_cond2,3.0.4,59.98566734567433,
also,&&&&,left,neutral,,,,,,,,0,24,24,177,,,,,,,,,,,,,,,,,,,,,LDT,right,0.6504164358775597,0,,,right,0,0.6504164358775597,,,,,,,,,,,,,,,,,,,,,,1046,2019_Mar_13_0951,mf_amp_cond2,3.0.4,59.98566734567433,
ronviolence,&&&&&&&&&&&,right,nonword,,,,,,,,0,25,25,20,,,,,,,,,,,,,,,,,,,,,LDT,left,1.8173605767951813,0,,,left,0,1.8173605767951813,,,,,,,,,,,,,,,,,,,,,,1046,2019_Mar_13_0951,mf_amp_cond2,3.0.4,59.98566734567433,
perfect,&&&&&&&,left,sanctity.virtue,,,,,,,,0,26,26,161,,,,,,,,,,,,,,,,,,,,,LDT,right,0.4836929487355519,0,,,right,0,0.4836929487355519,,,,,,,,,,,,,,,,,,,,,,1046,2019_Mar_13_0951,mf_amp_cond2,3.0.4,59.98566734567433,
ilportation,&&&&&&&&&&&,right,nonword,,,,,,,,0,27,27,143,,,,,,,,,,,,,,,,,,,,,LDT,right,1.8173583317839075,1,,,right,1,1.8173583317839075,,,,,,,,,,,,,,,,,,,,,,1046,2019_Mar_13_0951,mf_amp_cond2,3.0.4,59.98566734567433,
threatened,&&&&&&&&&&,left,fairness.vice,,,,,,,,0,28,28,165,,,,,,,,,,,,,,,,,,,,,LDT,right,0.5837167780555319,0,,,right,0,0.5837167780555319,,,,,,,,,,,,,,,,,,,,,,1046,2019_Mar_13_0951,mf_amp_cond2,3.0.4,59.98566734567433,
chressing,&&&&&&&&&,None,nonword,,,,,,,,0,29,29,190,,,,,,,,,,,,,,,,,,,,,LDT,left,0.9171271905361209,0,,,left,0,0.9171271905361209,,,,,,,,,,,,,,,,,,,,,,1046,2019_Mar_13_0951,mf_amp_cond2,3.0.4,59.98566734567433,
crilfully,&&&&&&&&&,right,nonword,,,,,,,,0,30,30,130,,,,,,,,,,,,,,,,,,,,,LDT,right,0.9337544784066267,1,,,right,1,0.9337544784066267,,,,,,,,,,,,,,,,,,,,,,1046,2019_Mar_13_0951,mf_amp_cond2,3.0.4,59.98566734567433,
pistraught,&&&&&&&&&&,right,nonword,,,,,,,,0,31,31,54,,,,,,,,,,,,,,,,,,,,,LDT,left,0.8170273511204869,0,,,left,0,0.8170273511204869,,,,,,,,,,,,,,,,,,,,,,1046,2019_Mar_13_0951,mf_amp_cond2,3.0.4,59.98566734567433,
lachelor,&&&&&&&&,right,nonword,,,,,,,,0,32,32,24,,,,,,,,,,,,,,,,,,,,,LDT,left,1.1672132230596617,0,,,left,0,1.1672132230596617,,,,,,,,,,,,,,,,,,,,,,1046,2019_Mar_13_0951,mf_amp_cond2,3.0.4,59.98566734567433,
suicide,&&&&&&&,left,care.vice,,,,,,,,0,33,33,55,,,,,,,,,,,,,,,,,,,,,LDT,right,0.5337470377562568,0,,,right,0,0.5337470377562568,,,,,,,,,,,,,,,,,,,,,,1046,2019_Mar_13_0951,mf_amp_cond2,3.0.4,59.98566734567433,
agreement,&&&&&&&&&,left,fairness.virtue,,,,,,,,0,34,34,69,,,,,,,,,,,,,,,,,,,,,LDT,right,3.1176533599791583,0,,,right,0,3.1176533599791583,,,,,,,,,,,,,,,,,,,,,,1046,2019_Mar_13_0951,mf_amp_cond2,3.0.4,59.98566734567433,
gedious,&&&&&&&,right,nonword,,,,,,,,0,35,35,141,,,,,,,,,,,,,,,,,,,,,LDT,left,0.7337395329959691,0,,,left,0,0.7337395329959691,,,,,,,,,,,,,,,,,,,,,,1046,2019_Mar_13_0951,mf_amp_cond2,3.0.4,59.98566734567433,
sexual,&&&&&&,left,sanctity.vice,,,,,,,,0,36,36,57,,,,,,,,,,,,,,,,,,,,,LDT,right,0.5670423446863424,0,,,right,0,0.5670423446863424,,,,,,,,,,,,,,,,,,,,,,1046,2019_Mar_13_0951,mf_amp_cond2,3.0.4,59.98566734567433,
vicissifude,&&&&&&&&&&&,right,nonword,,,,,,,,0,37,37,76,,,,,,,,,,,,,,,,,,,,,LDT,left,1.050490906520281,0,,,left,0,1.050490906520281,,,,,,,,,,,,,,,,,,,,,,1046,2019_Mar_13_0951,mf_amp_cond2,3.0.4,59.98566734567433,
civilians,&&&&&&&&&,left,care.vice,,,,,,,,0,38,38,191,,,,,,,,,,,,,,,,,,,,,LDT,left,2.4841721009870525,1,,,left,1,2.4841721009870525,,,,,,,,,,,,,,,,,,,,,,1046,2019_Mar_13_0951,mf_amp_cond2,3.0.4,59.98566734567433,
sgrawl,&&&&&&,right,nonword,,,,,,,,0,39,39,63,,,,,,,,,,,,,,,,,,,,,LDT,left,0.9671322097710799,0,,,left,0,0.9671322097710799,,,,,,,,,,,,,,,,,,,,,,1046,2019_Mar_13_0951,mf_amp_cond2,3.0.4,59.98566734567433,
eight,&&&&&,left,neutral,,,,,,,,0,40,40,27,,,,,,,,,,,,,,,,,,,,,LDT,right,0.5837180609232746,0,,,right,0,0.5837180609232746,,,,,,,,,,,,,,,,,,,,,,1046,2019_Mar_13_0951,mf_amp_cond2,3.0.4,59.98566734567433,
injured,&&&&&&&,left,care.vice,,,,,,,,0,41,41,146,,,,,,,,,,,,,,,,,,,,,LDT,right,0.9004594922298566,0,,,right,0,0.9004594922298566,,,,,,,,,,,,,,,,,,,,,,1046,2019_Mar_13_0951,mf_amp_cond2,3.0.4,59.98566734567433,
whither,&&&&&&&,left,neutral,,,,,,,,0,42,42,15,,,,,,,,,,,,,,,,,,,,,LDT,left,1.1171838292793836,1,,,left,1,1.1171838292793836,,,,,,,,,,,,,,,,,,,,,,1046,2019_Mar_13_0951,mf_amp_cond2,3.0.4,59.98566734567433,
Cunday,&&&&&&,None,nonword,,,,,,,,0,43,43,139,,,,,,,,,,,,,,,,,,,,,LDT,left,1.3837746355275158,0,,,left,0,1.3837746355275158,,,,,,,,,,,,,,,,,,,,,,1046,2019_Mar_13_0951,mf_amp_cond2,3.0.4,59.98566734567433,
greaks,&&&&&&,right,nonword,,,,,,,,0,44,44,45,,,,,,,,,,,,,,,,,,,,,LDT,left,0.8004513780761044,0,,,left,0,0.8004513780761044,,,,,,,,,,,,,,,,,,,,,,1046,2019_Mar_13_0951,mf_amp_cond2,3.0.4,59.98566734567433,
thru,&&&&,left,neutral,,,,,,,,0,45,45,40,,,,,,,,,,,,,,,,,,,,,LDT,left,1.5672658848925494,1,,,left,1,1.5672658848925494,,,,,,,,,,,,,,,,,,,,,,1046,2019_Mar_13_0951,mf_amp_cond2,3.0.4,59.98566734567433,
ittutable,&&&&&&&&&,right,nonword,,,,,,,,0,46,46,8,,,,,,,,,,,,,,,,,,,,,LDT,left,0.7170827390800696,0,,,left,0,0.7170827390800696,,,,,,,,,,,,,,,,,,,,,,1046,2019_Mar_13_0951,mf_amp_cond2,3.0.4,59.98566734567433,
Daptist,&&&&&&&,right,nonword,,,,,,,,0,47,47,118,,,,,,,,,,,,,,,,,,,,,LDT,left,0.7337513995589688,0,,,left,0,0.7337513995589688,,,,,,,,,,,,,,,,,,,,,,1046,2019_Mar_13_0951,mf_amp_cond2,3.0.4,59.98566734567433,
health,&&&&&&,left,care.virtue,,,,,,,,0,48,48,127,,,,,,,,,,,,,,,,,,,,,LDT,right,0.5003616091853473,0,,,right,0,0.5003616091853473,,,,,,,,,,,,,,,,,,,,,,1046,2019_Mar_13_0951,mf_amp_cond2,3.0.4,59.98566734567433,
lies,&&&&,left,fairness.vice,,,,,,,,0,49,49,126,,,,,,,,,,,,,,,,,,,,,LDT,right,0.6837467010191176,0,,,right,0,0.6837467010191176,,,,,,,,,,,,,,,,,,,,,,1046,2019_Mar_13_0951,mf_amp_cond2,3.0.4,59.98566734567433,
mecan,&&&&&,right,nonword,,,,,,,,0,50,50,111,,,,,,,,,,,,,,,,,,,,,LDT,left,0.6003841556375846,0,,,left,0,0.6003841556375846,,,,,,,,,,,,,,,,,,,,,,1046,2019_Mar_13_0951,mf_amp_cond2,3.0.4,59.98566734567433,
been,&&&&,left,neutral,,,,,,,,0,51,51,88,,,,,,,,,,,,,,,,,,,,,LDT,right,0.5503800985461567,0,,,right,0,0.5503800985461567,,,,,,,,,,,,,,,,,,,,,,1046,2019_Mar_13_0951,mf_amp_cond2,3.0.4,59.98566734567433,
men,&&&,left,loyalty.vice,,,,,,,,0,52,52,179,,,,,,,,,,,,,,,,,,,,,LDT,right,0.600385759229539,0,,,right,0,0.600385759229539,,,,,,,,,,,,,,,,,,,,,,1046,2019_Mar_13_0951,mf_amp_cond2,3.0.4,59.98566734567433,
sliptery,&&&&&&&&,right,nonword,,,,,,,,0,53,53,50,,,,,,,,,,,,,,,,,,,,,LDT,left,1.1338111171789933,0,,,left,0,1.1338111171789933,,,,,,,,,,,,,,,,,,,,,,1046,2019_Mar_13_0951,mf_amp_cond2,3.0.4,59.98566734567433,
voter,&&&&&,left,fairness.vice,,,,,,,,0,54,54,9,,,,,,,,,,,,,,,,,,,,,LDT,right,0.5503845886269119,0,,,right,0,0.5503845886269119,,,,,,,,,,,,,,,,,,,,,,1046,2019_Mar_13_0951,mf_amp_cond2,3.0.4,59.98566734567433,
friends,&&&&&&&,left,loyalty.virtue,,,,,,,,0,55,55,22,,,,,,,,,,,,,,,,,,,,,LDT,right,0.7004038156592287,0,,,right,0,0.7004038156592287,,,,,,,,,,,,,,,,,,,,,,1046,2019_Mar_13_0951,mf_amp_cond2,3.0.4,59.98566734567433,
loyalty,&&&&&&&,left,loyalty.virtue,,,,,,,,0,56,56,182,,,,,,,,,,,,,,,,,,,,,LDT,right,0.5670529283524957,0,,,right,0,0.5670529283524957,,,,,,,,,,,,,,,,,,,,,,1046,2019_Mar_13_0951,mf_amp_cond2,3.0.4,59.98566734567433,
each,&&&&,left,neutral,,,,,,,,0,57,57,16,,,,,,,,,,,,,,,,,,,,,LDT,right,0.4670233261131216,0,,,right,0,0.4670233261131216,,,,,,,,,,,,,,,,,,,,,,1046,2019_Mar_13_0951,mf_amp_cond2,3.0.4,59.98566734567433,
gusinesslike,&&&&&&&&&&&&,right,nonword,,,,,,,,0,58,58,140,,,,,,,,,,,,,,,,,,,,,LDT,left,0.8504509450867772,0,,,left,0,0.8504509450867772,,,,,,,,,,,,,,,,,,,,,,1046,2019_Mar_13_0951,mf_amp_cond2,3.0.4,59.98566734567433,
noone,&&&&&,left,neutral,,,,,,,,0,59,59,122,,,,,,,,,,,,,,,,,,,,,LDT,left,1.100506509450497,1,,,left,1,1.100506509450497,,,,,,,,,,,,,,,,,,,,,,1046,2019_Mar_13_0951,mf_amp_cond2,3.0.4,59.98566734567433,
hefurbished,&&&&&&&&&&&,right,nonword,,,,,,,,0,60,60,46,,,,,,,,,,,,,,,,,,,,,LDT,left,1.5506289754994214,0,,,left,0,1.5506289754994214,,,,,,,,,,,,,,,,,,,,,,1046,2019_Mar_13_0951,mf_amp_cond2,3.0.4,59.98566734567433,
become,&&&&&&,left,neutral,,,,,,,,0,61,61,105,,,,,,,,,,,,,,,,,,,,,LDT,right,0.4670246089808643,0,,,right,0,0.4670246089808643,,,,,,,,,,,,,,,,,,,,,,1046,2019_Mar_13_0951,mf_amp_cond2,3.0.4,59.98566734567433,
neneficence,&&&&&&&&&&&,right,nonword,,,,,,,,0,62,62,159,,,,,,,,,,,,,,,,,,,,,LDT,left,0.950467077200301,0,,,left,0,0.950467077200301,,,,,,,,,,,,,,,,,,,,,,1046,2019_Mar_13_0951,mf_amp_cond2,3.0.4,59.98566734567433,
anything,&&&&&&&&,left,neutral,,,,,,,,0,63,63,199,,,,,,,,,,,,,,,,,,,,,LDT,right,0.6003459902422037,0,,,right,0,0.6003459902422037,,,,,,,,,,,,,,,,,,,,,,1046,2019_Mar_13_0951,mf_amp_cond2,3.0.4,59.98566734567433,
seachwear,&&&&&&&&&,right,nonword,,,,,,,,0,64,64,2,,,,,,,,,,,,,,,,,,,,,LDT,left,0.8337832467805129,0,,,left,0,0.8337832467805129,,,,,,,,,,,,,,,,,,,,,,1046,2019_Mar_13_0951,mf_amp_cond2,3.0.4,59.98566734567433,
therefore,&&&&&&&&&,left,neutral,,,,,,,,0,65,65,4,,,,,,,,,,,,,,,,,,,,,LDT,right,0.600415906694252,0,,,right,0,0.600415906694252,,,,,,,,,,,,,,,,,,,,,,1046,2019_Mar_13_0951,mf_amp_cond2,3.0.4,59.98566734567433,
supervuned,&&&&&&&&&&,right,nonword,,,,,,,,0,66,66,94,,,,,,,,,,,,,,,,,,,,,LDT,left,1.0004781900788657,0,,,left,0,1.0004781900788657,,,,,,,,,,,,,,,,,,,,,,1046,2019_Mar_13_0951,mf_amp_cond2,3.0.4,59.98566734567433,
less,&&&&,left,neutral,,,,,,,,0,67,67,35,,,,,,,,,,,,,,,,,,,,,LDT,right,0.7670951347972732,0,,,right,0,0.7670951347972732,,,,,,,,,,,,,,,,,,,,,,1046,2019_Mar_13_0951,mf_amp_cond2,3.0.4,59.98566734567433,
framatic,&&&&&&&&,right,nonword,,,,,,,,0,68,68,58,,,,,,,,,,,,,,,,,,,,,LDT,left,1.1005190174328163,0,,,left,0,1.1005190174328163,,,,,,,,,,,,,,,,,,,,,,1046,2019_Mar_13_0951,mf_amp_cond2,3.0.4,59.98566734567433,
either,&&&&&&,left,neutral,,,,,,,,0,69,69,121,,,,,,,,,,,,,,,,,,,,,LDT,left,2.300801120727556,1,,,left,1,2.300801120727556,,,,,,,,,,,,,,,,,,,,,,1046,2019_Mar_13_0951,mf_amp_cond2,3.0.4,59.98566734567433,
benefit,&&&&&&&,left,fairness.virtue,,,,,,,,0,70,70,102,,,,,,,,,,,,,,,,,,,,,LDT,right,0.717081456183223,0,,,right,0,0.717081456183223,,,,,,,,,,,,,,,,,,,,,,1046,2019_Mar_13_0951,mf_amp_cond2,3.0.4,59.98566734567433,
Boeinf,&&&&&&,right,nonword,,,,,,,,0,71,71,31,,,,,,,,,,,,,,,,,,,,,LDT,left,0.7504158906522207,0,,,left,0,0.7504158906522207,,,,,,,,,,,,,,,,,,,,,,1046,2019_Mar_13_0951,mf_amp_cond2,3.0.4,59.98566734567433,
towards,&&&&&&&,left,neutral,,,,,,,,0,72,72,98,,,,,,,,,,,,,,,,,,,,,LDT,left,1.0838352832361124,1,,,left,1,1.0838352832361124,,,,,,,,,,,,,,,,,,,,,,1046,2019_Mar_13_0951,mf_amp_cond2,3.0.4,59.98566734567433,
photocalkodes,&&&&&&&&&&&&&,right,nonword,,,,,,,,0,73,73,93,,,,,,,,,,,,,,,,,,,,,LDT,left,0.800423475651769,0,,,left,0,0.800423475651769,,,,,,,,,,,,,,,,,,,,,,1046,2019_Mar_13_0951,mf_amp_cond2,3.0.4,59.98566734567433,
further,&&&&&&&,left,neutral,,,,,,,,0,74,74,117,,,,,,,,,,,,,,,,,,,,,LDT,left,2.2174427446734626,1,,,left,1,2.2174427446734626,,,,,,,,,,,,,,,,,,,,,,1046,2019_Mar_13_0951,mf_amp_cond2,3.0.4,59.98566734567433,
crinking,&&&&&&&&,right,nonword,,,,,,,,0,75,75,74,,,,,,,,,,,,,,,,,,,,,LDT,left,1.9006987476313952,0,,,left,0,1.9006987476313952,,,,,,,,,,,,,,,,,,,,,,1046,2019_Mar_13_0951,mf_amp_cond2,3.0.4,59.98566734567433,
coom,&&&&,right,nonword,,,,,,,,0,76,76,62,,,,,,,,,,,,,,,,,,,,,LDT,left,0.8671183226979338,0,,,left,0,0.8671183226979338,,,,,,,,,,,,,,,,,,,,,,1046,2019_Mar_13_0951,mf_amp_cond2,3.0.4,59.98566734567433,
erdest,&&&&&&,right,nonword,,,,,,,,0,77,77,187,,,,,,,,,,,,,,,,,,,,,LDT,left,0.8671208884334192,0,,,left,0,0.8671208884334192,,,,,,,,,,,,,,,,,,,,,,1046,2019_Mar_13_0951,mf_amp_cond2,3.0.4,59.98566734567433,
toward,&&&&&&,left,neutral,,,,,,,,0,78,78,198,,,,,,,,,,,,,,,,,,,,,LDT,right,0.5670317609910853,0,,,right,0,0.5670317609910853,,,,,,,,,,,,,,,,,,,,,,1046,2019_Mar_13_0951,mf_amp_cond2,3.0.4,59.98566734567433,
pullness,&&&&&&&&,right,nonword,,,,,,,,0,79,79,59,,,,,,,,,,,,,,,,,,,,,LDT,left,1.3672483737173025,0,,,left,0,1.3672483737173025,,,,,,,,,,,,,,,,,,,,,,1046,2019_Mar_13_0951,mf_amp_cond2,3.0.4,59.98566734567433,
chreams,&&&&&&&,right,nonword,,,,,,,,0,80,80,134,,,,,,,,,,,,,,,,,,,,,LDT,right,1.7339710911328439,1,,,right,1,1.7339710911328439,,,,,,,,,,,,,,,,,,,,,,1046,2019_Mar_13_0951,mf_amp_cond2,3.0.4,59.98566734567433,
clamorek,&&&&&&&&,right,nonword,,,,,,,,0,81,81,90,,,,,,,,,,,,,,,,,,,,,LDT,left,0.7004086264059879,0,,,left,0,0.7004086264059879,,,,,,,,,,,,,,,,,,,,,,1046,2019_Mar_13_0951,mf_amp_cond2,3.0.4,59.98566734567433,
faspberry,&&&&&&&&&,None,nonword,,,,,,,,0,82,82,176,,,,,,,,,,,,,,,,,,,,,LDT,right,0.6170624376391061,0,,,right,0,0.6170624376391061,,,,,,,,,,,,,,,,,,,,,,1046,2019_Mar_13_0951,mf_amp_cond2,3.0.4,59.98566734567433,
wherever,&&&&&&&&,left,neutral,,,,,,,,0,83,83,71,,,,,,,,,,,,,,,,,,,,,LDT,right,1.3339174671564251,0,,,right,0,1.3339174671564251,,,,,,,,,,,,,,,,,,,,,,1046,2019_Mar_13_0951,mf_amp_cond2,3.0.4,59.98566734567433,
whereafter,&&&&&&&&&&,left,neutral,,,,,,,,0,84,84,119,,,,,,,,,,,,,,,,,,,,,LDT,left,1.1838700169755612,1,,,left,1,1.1838700169755612,,,,,,,,,,,,,,,,,,,,,,1046,2019_Mar_13_0951,mf_amp_cond2,3.0.4,59.98566734567433,
lorthwhile,&&&&&&&&&&,right,nonword,,,,,,,,0,85,85,56,,,,,,,,,,,,,,,,,,,,,LDT,left,1.0004852458660025,0,,,left,0,1.0004852458660025,,,,,,,,,,,,,,,,,,,,,,1046,2019_Mar_13_0951,mf_amp_cond2,3.0.4,59.98566734567433,
fonderland,&&&&&&&&&&,right,nonword,,,,,,,,0,86,86,173,,,,,,,,,,,,,,,,,,,,,LDT,left,1.2172070171800442,0,,,left,0,1.2172070171800442,,,,,,,,,,,,,,,,,,,,,,1046,2019_Mar_13_0951,mf_amp_cond2,3.0.4,59.98566734567433,
honored,&&&&&&&,left,authority.virtue,,,,,,,,0,87,87,87,,,,,,,,,,,,,,,,,,,,,LDT,left,3.03430941622355,1,,,left,1,3.03430941622355,,,,,,,,,,,,,,,,,,,,,,1046,2019_Mar_13_0951,mf_amp_cond2,3.0.4,59.98566734567433,
dormandi,&&&&&&&&,None,nonword,,,,,,,,0,88,88,51,,,,,,,,,,,,,,,,,,,,,LDT,left,0.9671629986842163,0,,,left,0,0.9671629986842163,,,,,,,,,,,,,,,,,,,,,,1046,2019_Mar_13_0951,mf_amp_cond2,3.0.4,59.98566734567433,
elsewhere,&&&&&&&&&,left,neutral,,,,,,,,0,89,89,23,,,,,,,,,,,,,,,,,,,,,LDT,right,0.6337230801582336,0,,,right,0,0.6337230801582336,,,,,,,,,,,,,,,,,,,,,,1046,2019_Mar_13_0951,mf_amp_cond2,3.0.4,59.98566734567433,
slavery,&&&&&&&,left,loyalty.vice,,,,,,,,0,90,90,53,,,,,,,,,,,,,,,,,,,,,LDT,right,0.6670610425062478,0,,,right,0,0.6670610425062478,,,,,,,,,,,,,,,,,,,,,,1046,2019_Mar_13_0951,mf_amp_cond2,3.0.4,59.98566734567433,
strofe,&&&&&&,right,nonword,,,,,,,,0,91,91,84,,,,,,,,,,,,,,,,,,,,,LDT,left,0.9838024738128297,0,,,left,0,0.9838024738128297,,,,,,,,,,,,,,,,,,,,,,1046,2019_Mar_13_0951,mf_amp_cond2,3.0.4,59.98566734567433,
antral,&&&&&&,right,nonword,,,,,,,,0,92,92,193,,,,,,,,,,,,,,,,,,,,,LDT,left,0.7671015491650905,0,,,left,0,0.7671015491650905,,,,,,,,,,,,,,,,,,,,,,1046,2019_Mar_13_0951,mf_amp_cond2,3.0.4,59.98566734567433,
mightingale,&&&&&&&&&&&,right,nonword,,,,,,,,0,93,93,162,,,,,,,,,,,,,,,,,,,,,LDT,left,0.8504496622190345,0,,,left,0,0.8504496622190345,,,,,,,,,,,,,,,,,,,,,,1046,2019_Mar_13_0951,mf_amp_cond2,3.0.4,59.98566734567433,
everything,&&&&&&&&&&,left,neutral,,,,,,,,0,94,94,100,,,,,,,,,,,,,,,,,,,,,LDT,right,0.6170682105585001,0,,,right,0,0.6170682105585001,,,,,,,,,,,,,,,,,,,,,,1046,2019_Mar_13_0951,mf_amp_cond2,3.0.4,59.98566734567433,
baladroit,&&&&&&&&&,right,nonword,,,,,,,,0,95,95,144,,,,,,,,,,,,,,,,,,,,,LDT,left,0.8170706480159424,0,,,left,0,0.8170706480159424,,,,,,,,,,,,,,,,,,,,,,1046,2019_Mar_13_0951,mf_amp_cond2,3.0.4,59.98566734567433,
itself,&&&&&&,left,neutral,,,,,,,,0,96,96,183,,,,,,,,,,,,,,,,,,,,,LDT,right,0.6503997585678007,0,,,right,0,0.6503997585678007,,,,,,,,,,,,,,,,,,,,,,1046,2019_Mar_13_0951,mf_amp_cond2,3.0.4,59.98566734567433,
frocessing,&&&&&&&&&&,right,nonword,,,,,,,,0,97,97,30,,,,,,,,,,,,,,,,,,,,,LDT,right,1.5506164675171021,1,,,right,1,1.5506164675171021,,,,,,,,,,,,,,,,,,,,,,1046,2019_Mar_13_0951,mf_amp_cond2,3.0.4,59.98566734567433,
gaultless,&&&&&&&&&,right,nonword,,,,,,,,0,98,98,181,,,,,,,,,,,,,,,,,,,,,LDT,left,1.9507400079455692,0,,,left,0,1.9507400079455692,,,,,,,,,,,,,,,,,,,,,,1046,2019_Mar_13_0951,mf_amp_cond2,3.0.4,59.98566734567433,
dramens,&&&&&&&,right,nonword,,,,,,,,0,99,99,189,,,,,,,,,,,,,,,,,,,,,LDT,right,0.6504459419229534,1,,,right,1,0.6504459419229534,,,,,,,,,,,,,,,,,,,,,,1046,2019_Mar_13_0951,mf_amp_cond2,3.0.4,59.98566734567433,
unscothed,&&&&&&&&&,right,nonword,,,,,,,,0,100,100,86,,,,,,,,,,,,,,,,,,,,,LDT,right,1.2839092407666612,1,,,right,1,1.2839092407666612,,,,,,,,,,,,,,,,,,,,,,1046,2019_Mar_13_0951,mf_amp_cond2,3.0.4,59.98566734567433,
unreflectuve,&&&&&&&&&&&&,right,nonword,,,,,,,,0,101,101,39,,,,,,,,,,,,,,,,,,,,,LDT,left,1.8173483895370737,0,,,left,0,1.8173483895370737,,,,,,,,,,,,,,,,,,,,,,1046,2019_Mar_13_0951,mf_amp_cond2,3.0.4,59.98566734567433,
baklara,&&&&&&&,right,nonword,,,,,,,,0,102,102,95,,,,,,,,,,,,,,,,,,,,,LDT,left,0.9670735184336081,0,,,left,0,0.9670735184336081,,,,,,,,,,,,,,,,,,,,,,1046,2019_Mar_13_0951,mf_amp_cond2,3.0.4,59.98566734567433,
fostet,&&&&&&,right,nonword,,,,,,,,0,103,103,25,,,,,,,,,,,,,,,,,,,,,LDT,left,1.7839959948614705,0,,,left,0,1.7839959948614705,,,,,,,,,,,,,,,,,,,,,,1046,2019_Mar_13_0951,mf_amp_cond2,3.0.4,59.98566734567433,
reelectiob,&&&&&&&&&&,right,nonword,,,,,,,,0,104,104,175,,,,,,,,,,,,,,,,,,,,,LDT,left,1.9673884632065892,0,,,left,0,1.9673884632065892,,,,,,,,,,,,,,,,,,,,,,1046,2019_Mar_13_0951,mf_amp_cond2,3.0.4,59.98566734567433,
drug,&&&&,left,sanctity.vice,,,,,,,,0,105,105,156,,,,,,,,,,,,,,,,,,,,,LDT,right,0.6170576268923469,0,,,right,0,0.6170576268923469,,,,,,,,,,,,,,,,,,,,,,1046,2019_Mar_13_0951,mf_amp_cond2,3.0.4,59.98566734567433,
amoungst,&&&&&&&&,left,neutral,,,,,,,,0,106,106,41,,,,,,,,,,,,,,,,,,,,,LDT,right,1.20052745231078,0,,,right,0,1.20052745231078,,,,,,,,,,,,,,,,,,,,,,1046,2019_Mar_13_0951,mf_amp_cond2,3.0.4,59.98566734567433,
forty,&&&&&,left,neutral,,,,,,,,0,107,107,164,,,,,,,,,,,,,,,,,,,,,LDT,right,0.8504547937191091,0,,,right,0,0.8504547937191091,,,,,,,,,,,,,,,,,,,,,,1046,2019_Mar_13_0951,mf_amp_cond2,3.0.4,59.98566734567433,
ban,&&&,left,loyalty.vice,,,,,,,,0,108,108,185,,,,,,,,,,,,,,,,,,,,,LDT,right,0.6670664947014302,0,,,right,0,0.6670664947014302,,,,,,,,,,,,,,,,,,,,,,1046,2019_Mar_13_0951,mf_amp_cond2,3.0.4,59.98566734567433,
actively,&&&&&&&&,left,authority.virtue,,,,,,,,0,109,109,154,,,,,,,,,,,,,,,,,,,,,LDT,right,0.550386512913974,0,,,right,0,0.550386512913974,,,,,,,,,,,,,,,,,,,,,,1046,2019_Mar_13_0951,mf_amp_cond2,3.0.4,59.98566734567433,
viscs,&&&&&,None,nonword,,,,,,,,0,110,110,12,,,,,,,,,,,,,,,,,,,,,LDT,left,0.917013977188617,0,,,left,0,0.917013977188617,,,,,,,,,,,,,,,,,,,,,,1046,2019_Mar_13_0951,mf_amp_cond2,3.0.4,59.98566734567433,
interests,&&&&&&&&&,left,fairness.virtue,,,,,,,,0,111,111,97,,,,,,,,,,,,,,,,,,,,,LDT,left,1.8173554453242105,1,,,left,1,1.8173554453242105,,,,,,,,,,,,,,,,,,,,,,1046,2019_Mar_13_0951,mf_amp_cond2,3.0.4,59.98566734567433,
neputized,&&&&&&&&&,right,nonword,,,,,,,,0,112,112,18,,,,,,,,,,,,,,,,,,,,,LDT,left,1.817344220209634,0,,,left,0,1.817344220209634,,,,,,,,,,,,,,,,,,,,,,1046,2019_Mar_13_0951,mf_amp_cond2,3.0.4,59.98566734567433,
energy,&&&&&&,left,sanctity.virtue,,,,,,,,0,113,113,184,,,,,,,,,,,,,,,,,,,,,LDT,right,0.9337977753020823,0,,,right,0,0.9337977753020823,,,,,,,,,,,,,,,,,,,,,,1046,2019_Mar_13_0951,mf_amp_cond2,3.0.4,59.98566734567433,
least,&&&&&,left,neutral,,,,,,,,0,114,114,107,,,,,,,,,,,,,,,,,,,,,LDT,right,0.633739436743781,0,,,right,0,0.633739436743781,,,,,,,,,,,,,,,,,,,,,,1046,2019_Mar_13_0951,mf_amp_cond2,3.0.4,59.98566734567433,
somehow,&&&&&&&,left,neutral,,,,,,,,0,115,115,75,,,,,,,,,,,,,,,,,,,,,LDT,right,0.6670485345239285,0,,,right,0,0.6670485345239285,,,,,,,,,,,,,,,,,,,,,,1046,2019_Mar_13_0951,mf_amp_cond2,3.0.4,59.98566734567433,
epigrach,&&&&&&&&,right,nonword,,,,,,,,0,116,116,104,,,,,,,,,,,,,,,,,,,,,LDT,left,1.2338423229812179,0,,,left,0,1.2338423229812179,,,,,,,,,,,,,,,,,,,,,,1046,2019_Mar_13_0951,mf_amp_cond2,3.0.4,59.98566734567433,
faith,&&&&&,left,sanctity.virtue,,,,,,,,0,117,117,153,,,,,,,,,,,,,,,,,,,,,LDT,right,0.5836869513150305,0,,,right,0,0.5836869513150305,,,,,,,,,,,,,,,,,,,,,,1046,2019_Mar_13_0951,mf_amp_cond2,3.0.4,59.98566734567433,
iptervention,&&&&&&&&&&&&,right,nonword,,,,,,,,0,118,118,1,,,,,,,,,,,,,,,,,,,,,LDT,left,1.4839341284241527,0,,,left,0,1.4839341284241527,,,,,,,,,,,,,,,,,,,,,,1046,2019_Mar_13_0951,mf_amp_cond2,3.0.4,59.98566734567433,
latterly,&&&&&&&&,left,neutral,,,,,,,,0,119,119,66,,,,,,,,,,,,,,,,,,,,,LDT,left,1.2171996406686958,1,,,left,1,1.2171996406686958,,,,,,,,,,,,,,,,,,,,,,1046,2019_Mar_13_0951,mf_amp_cond2,3.0.4,59.98566734567433,
accused,&&&&&&&,left,fairness.vice,,,,,,,,0,120,120,116,,,,,,,,,,,,,,,,,,,,,LDT,right,0.6337346259970218,0,,,right,0,0.6337346259970218,,,,,,,,,,,,,,,,,,,,,,1046,2019_Mar_13_0951,mf_amp_cond2,3.0.4,59.98566734567433,
sfumatoy,&&&&&&&&,None,nonword,,,,,,,,0,121,121,128,,,,,,,,,,,,,,,,,,,,,LDT,left,1.9340543494618032,0,,,left,0,1.9340543494618032,,,,,,,,,,,,,,,,,,,,,,1046,2019_Mar_13_0951,mf_amp_cond2,3.0.4,59.98566734567433,
perified,&&&&&&&&,right,nonword,,,,,,,,0,122,122,13,,,,,,,,,,,,,,,,,,,,,LDT,right,1.2838906391116325,1,,,right,1,1.2838906391116325,,,,,,,,,,,,,,,,,,,,,,1046,2019_Mar_13_0951,mf_amp_cond2,3.0.4,59.98566734567433,
grovelire,&&&&&&&&&,right,nonword,,,,,,,,0,123,123,103,,,,,,,,,,,,,,,,,,,,,LDT,left,1.1671959043014795,0,,,left,0,1.1671959043014795,,,,,,,,,,,,,,,,,,,,,,1046,2019_Mar_13_0951,mf_amp_cond2,3.0.4,59.98566734567433,
mostly,&&&&&&,left,neutral,,,,,,,,0,124,124,10,,,,,,,,,,,,,,,,,,,,,LDT,right,0.750421342876507,0,,,right,0,0.750421342876507,,,,,,,,,,,,,,,,,,,,,,1046,2019_Mar_13_0951,mf_amp_cond2,3.0.4,59.98566734567433,
erks,&&&&,right,nonword,,,,,,,,0,125,125,152,,,,,,,,,,,,,,,,,,,,,LDT,left,1.0505165639624465,0,,,left,0,1.0505165639624465,,,,,,,,,,,,,,,,,,,,,,1046,2019_Mar_13_0951,mf_amp_cond2,3.0.4,59.98566734567433,
glacenta,&&&&&&&&,right,nonword,,,,,,,,0,126,126,124,,,,,,,,,,,,,,,,,,,,,LDT,left,1.2005277730349917,0,,,left,0,1.2005277730349917,,,,,,,,,,,,,,,,,,,,,,1046,2019_Mar_13_0951,mf_amp_cond2,3.0.4,59.98566734567433,
ensure,&&&&&&,left,fairness.virtue,,,,,,,,0,127,127,34,,,,,,,,,,,,,,,,,,,,,LDT,right,0.8837837759638205,0,,,right,0,0.8837837759638205,,,,,,,,,,,,,,,,,,,,,,1046,2019_Mar_13_0951,mf_amp_cond2,3.0.4,59.98566734567433,
compassion,&&&&&&&&&&,left,care.virtue,,,,,,,,0,128,128,133,,,,,,,,,,,,,,,,,,,,,LDT,right,0.9838043981289957,0,,,right,0,0.9838043981289957,,,,,,,,,,,,,,,,,,,,,,1046,2019_Mar_13_0951,mf_amp_cond2,3.0.4,59.98566734567433,
values,&&&&&&,left,sanctity.virtue,,,,,,,,0,129,129,110,,,,,,,,,,,,,,,,,,,,,LDT,left,2.867671240004711,1,,,left,1,2.867671240004711,,,,,,,,,,,,,,,,,,,,,,1046,2019_Mar_13_0951,mf_amp_cond2,3.0.4,59.98566734567433,
with,&&&&,left,neutral,,,,,,,,0,130,130,60,,,,,,,,,,,,,,,,,,,,,LDT,right,0.8503630684572272,0,,,right,0,0.8503630684572272,,,,,,,,,,,,,,,,,,,,,,1046,2019_Mar_13_0951,mf_amp_cond2,3.0.4,59.98566734567433,
alar,&&&&,right,nonword,,,,,,,,0,131,131,137,,,,,,,,,,,,,,,,,,,,,LDT,left,1.1171803013712633,0,,,left,0,1.1171803013712633,,,,,,,,,,,,,,,,,,,,,,1046,2019_Mar_13_0951,mf_amp_cond2,3.0.4,59.98566734567433,
fair,&&&&,left,fairness.virtue,,,,,,,,0,132,132,113,,,,,,,,,,,,,,,,,,,,,LDT,right,0.8338175636017695,0,,,right,0,0.8338175636017695,,,,,,,,,,,,,,,,,,,,,,1046,2019_Mar_13_0951,mf_amp_cond2,3.0.4,59.98566734567433,
praise,&&&&&&,left,authority.virtue,,,,,,,,0,133,133,29,,,,,,,,,,,,,,,,,,,,,LDT,right,0.6504331131873187,0,,,right,0,0.6504331131873187,,,,,,,,,,,,,,,,,,,,,,1046,2019_Mar_13_0951,mf_amp_cond2,3.0.4,59.98566734567433,
fifty,&&&&&,left,neutral,,,,,,,,0,134,134,108,,,,,,,,,,,,,,,,,,,,,LDT,left,1.2171996406686958,1,,,left,1,1.2171996406686958,,,,,,,,,,,,,,,,,,,,,,1046,2019_Mar_13_0951,mf_amp_cond2,3.0.4,59.98566734567433,
lursuer,&&&&&&&,right,nonword,,,,,,,,0,135,135,5,,,,,,,,,,,,,,,,,,,,,LDT,left,1.2672097914037295,0,,,left,0,1.2672097914037295,,,,,,,,,,,,,,,,,,,,,,1046,2019_Mar_13_0951,mf_amp_cond2,3.0.4,59.98566734567433,
cromiscuity,&&&&&&&&&&&,right,nonword,,,,,,,,0,136,136,171,,,,,,,,,,,,,,,,,,,,,LDT,left,1.2005143028800376,0,,,left,0,1.2005143028800376,,,,,,,,,,,,,,,,,,,,,,1046,2019_Mar_13_0951,mf_amp_cond2,3.0.4,59.98566734567433,
presentkess,&&&&&&&&&&&,right,nonword,,,,,,,,0,137,137,77,,,,,,,,,,,,,,,,,,,,,LDT,left,1.0504921894171275,0,,,left,0,1.0504921894171275,,,,,,,,,,,,,,,,,,,,,,1046,2019_Mar_13_0951,mf_amp_cond2,3.0.4,59.98566734567433,
myself,&&&&&&,left,neutral,,,,,,,,0,138,138,194,,,,,,,,,,,,,,,,,,,,,LDT,right,1.0838340003683697,0,,,right,0,1.0838340003683697,,,,,,,,,,,,,,,,,,,,,,1046,2019_Mar_13_0951,mf_amp_cond2,3.0.4,59.98566734567433,
encourage,&&&&&&&&&,left,authority.virtue,,,,,,,,0,139,139,158,,,,,,,,,,,,,,,,,,,,,LDT,right,1.4339207705343142,0,,,right,0,1.4339207705343142,,,,,,,,,,,,,,,,,,,,,,1046,2019_Mar_13_0951,mf_amp_cond2,3.0.4,59.98566734567433,
tracious,&&&&&&&&,right,nonword,,,,,,,,0,140,140,123,,,,,,,,,,,,,,,,,,,,,LDT,left,1.4172479407279752,0,,,left,0,1.4172479407279752,,,,,,,,,,,,,,,,,,,,,,1046,2019_Mar_13_0951,mf_amp_cond2,3.0.4,59.98566734567433,
could,&&&&&,left,neutral,,,,,,,,0,141,141,7,,,,,,,,,,,,,,,,,,,,,LDT,right,0.8837879453203641,0,,,right,0,0.8837879453203641,,,,,,,,,,,,,,,,,,,,,,1046,2019_Mar_13_0951,mf_amp_cond2,3.0.4,59.98566734567433,
give,&&&&,left,neutral,,,,,,,,0,142,142,169,,,,,,,,,,,,,,,,,,,,,LDT,right,0.9838076053129043,0,,,right,0,0.9838076053129043,,,,,,,,,,,,,,,,,,,,,,1046,2019_Mar_13_0951,mf_amp_cond2,3.0.4,59.98566734567433,
racist,&&&&&&,left,sanctity.vice,,,,,,,,0,143,143,163,,,,,,,,,,,,,,,,,,,,,LDT,right,1.2172079793235753,0,,,right,0,1.2172079793235753,,,,,,,,,,,,,,,,,,,,,,1046,2019_Mar_13_0951,mf_amp_cond2,3.0.4,59.98566734567433,
abointment,&&&&&&&&&&,right,nonword,,,,,,,,0,144,144,172,,,,,,,,,,,,,,,,,,,,,LDT,right,2.2507839142053854,1,,,right,1,2.2507839142053854,,,,,,,,,,,,,,,,,,,,,,1046,2019_Mar_13_0951,mf_amp_cond2,3.0.4,59.98566734567433,
both,&&&&,left,neutral,,,,,,,,0,145,145,166,,,,,,,,,,,,,,,,,,,,,LDT,right,0.6837681891047396,0,,,right,0,0.6837681891047396,,,,,,,,,,,,,,,,,,,,,,1046,2019_Mar_13_0951,mf_amp_cond2,3.0.4,59.98566734567433,
fighters,&&&&&&&&,left,authority.vice,,,,,,,,0,146,146,42,,,,,,,,,,,,,,,,,,,,,LDT,right,0.6170592304551974,0,,,right,0,0.6170592304551974,,,,,,,,,,,,,,,,,,,,,,1046,2019_Mar_13_0951,mf_amp_cond2,3.0.4,59.98566734567433,
gandbrake,&&&&&&&&&,right,nonword,,,,,,,,0,147,147,21,,,,,,,,,,,,,,,,,,,,,LDT,left,1.0671829794009682,0,,,left,0,1.0671829794009682,,,,,,,,,,,,,,,,,,,,,,1046,2019_Mar_13_0951,mf_amp_cond2,3.0.4,59.98566734567433,
restore,&&&&&&&,left,care.virtue,,,,,,,,0,148,148,178,,,,,,,,,,,,,,,,,,,,,LDT,right,0.7002703970647417,0,,,right,0,0.7002703970647417,,,,,,,,,,,,,,,,,,,,,,1046,2019_Mar_13_0951,mf_amp_cond2,3.0.4,59.98566734567433,
victim,&&&&&&,left,care.vice,,,,,,,,0,149,149,109,,,,,,,,,,,,,,,,,,,,,LDT,right,1.2005338666785974,0,,,right,0,1.2005338666785974,,,,,,,,,,,,,,,,,,,,,,1046,2019_Mar_13_0951,mf_amp_cond2,3.0.4,59.98566734567433,
forced,&&&&&&,left,fairness.vice,,,,,,,,0,150,150,125,,,,,,,,,,,,,,,,,,,,,LDT,right,0.9171262283925898,0,,,right,0,0.9171262283925898,,,,,,,,,,,,,,,,,,,,,,1046,2019_Mar_13_0951,mf_amp_cond2,3.0.4,59.98566734567433,
groups,&&&&&&,left,loyalty.vice,,,,,,,,0,151,151,147,,,,,,,,,,,,,,,,,,,,,LDT,right,0.7504357751458883,0,,,right,0,0.7504357751458883,,,,,,,,,,,,,,,,,,,,,,1046,2019_Mar_13_0951,mf_amp_cond2,3.0.4,59.98566734567433,
ejanulated,&&&&&&&&&&,right,nonword,,,,,,,,0,152,152,52,,,,,,,,,,,,,,,,,,,,,LDT,right,1.0004884530208074,1,,,right,1,1.0004884530208074,,,,,,,,,,,,,,,,,,,,,,1046,2019_Mar_13_0951,mf_amp_cond2,3.0.4,59.98566734567433,
freedom,&&&&&&&,left,sanctity.virtue,,,,,,,,0,153,153,129,,,,,,,,,,,,,,,,,,,,,LDT,right,0.8671170398301911,0,,,right,0,0.8671170398301911,,,,,,,,,,,,,,,,,,,,,,1046,2019_Mar_13_0951,mf_amp_cond2,3.0.4,59.98566734567433,
lenon,&&&&&,right,nonword,,,,,,,,0,154,154,14,,,,,,,,,,,,,,,,,,,,,LDT,left,0.667058797494974,0,,,left,0,0.667058797494974,,,,,,,,,,,,,,,,,,,,,,1046,2019_Mar_13_0951,mf_amp_cond2,3.0.4,59.98566734567433,
fifteen,&&&&&&&,left,neutral,,,,,,,,0,155,155,112,,,,,,,,,,,,,,,,,,,,,LDT,left,1.5506193539476953,1,,,left,1,1.5506193539476953,,,,,,,,,,,,,,,,,,,,,,1046,2019_Mar_13_0951,mf_amp_cond2,3.0.4,59.98566734567433,
were,&&&&,left,neutral,,,,,,,,0,156,156,186,,,,,,,,,,,,,,,,,,,,,LDT,right,0.6004075680393726,0,,,right,0,0.6004075680393726,,,,,,,,,,,,,,,,,,,,,,1046,2019_Mar_13_0951,mf_amp_cond2,3.0.4,59.98566734567433,
front,&&&&&,left,neutral,,,,,,,,0,157,157,192,,,,,,,,,,,,,,,,,,,,,LDT,right,0.6670414787367918,0,,,right,0,0.6670414787367918,,,,,,,,,,,,,,,,,,,,,,1046,2019_Mar_13_0951,mf_amp_cond2,3.0.4,59.98566734567433,
sidearbs,&&&&&&&&,right,nonword,,,,,,,,0,158,158,106,,,,,,,,,,,,,,,,,,,,,LDT,left,0.8171100962790661,0,,,left,0,0.8171100962790661,,,,,,,,,,,,,,,,,,,,,,1046,2019_Mar_13_0951,mf_amp_cond2,3.0.4,59.98566734567433,
betrayal,&&&&&&&&,left,loyalty.vice,,,,,,,,0,159,159,115,,,,,,,,,,,,,,,,,,,,,LDT,right,0.8837853795557749,0,,,right,0,0.8837853795557749,,,,,,,,,,,,,,,,,,,,,,1046,2019_Mar_13_0951,mf_amp_cond2,3.0.4,59.98566734567433,
party,&&&&&,left,loyalty.virtue,,,,,,,,0,160,160,78,,,,,,,,,,,,,,,,,,,,,LDT,right,0.650343953690026,0,,,right,0,0.650343953690026,,,,,,,,,,,,,,,,,,,,,,1046,2019_Mar_13_0951,mf_amp_cond2,3.0.4,59.98566734567433,
festate,&&&&&&&,right,nonword,,,,,,,,0,161,161,72,,,,,,,,,,,,,,,,,,,,,LDT,left,1.1171774149406701,0,,,left,0,1.1171774149406701,,,,,,,,,,,,,,,,,,,,,,1046,2019_Mar_13_0951,mf_amp_cond2,3.0.4,59.98566734567433,
done,&&&&,left,neutral,,,,,,,,0,162,162,174,,,,,,,,,,,,,,,,,,,,,LDT,right,0.7337802640977316,0,,,right,0,0.7337802640977316,,,,,,,,,,,,,,,,,,,,,,1046,2019_Mar_13_0951,mf_amp_cond2,3.0.4,59.98566734567433,
mih,&&&,right,nonword,,,,,,,,0,163,163,70,,,,,,,,,,,,,,,,,,,,,LDT,left,0.7671018698893022,0,,,left,0,0.7671018698893022,,,,,,,,,,,,,,,,,,,,,,1046,2019_Mar_13_0951,mf_amp_cond2,3.0.4,59.98566734567433,
hatigue,&&&&&&&,right,nonword,,,,,,,,0,164,164,85,,,,,,,,,,,,,,,,,,,,,LDT,left,2.0674100475152954,0,,,left,0,2.0674100475152954,,,,,,,,,,,,,,,,,,,,,,1046,2019_Mar_13_0951,mf_amp_cond2,3.0.4,59.98566734567433,
anyhow,&&&&&&,left,neutral,,,,,,,,0,165,165,43,,,,,,,,,,,,,,,,,,,,,LDT,right,0.8504586423514411,0,,,right,0,0.8504586423514411,,,,,,,,,,,,,,,,,,,,,,1046,2019_Mar_13_0951,mf_amp_cond2,3.0.4,59.98566734567433,
although,&&&&&&&&,left,neutral,,,,,,,,0,166,166,120,,,,,,,,,,,,,,,,,,,,,LDT,right,0.9169860747351777,0,,,right,0,0.9169860747351777,,,,,,,,,,,,,,,,,,,,,,1046,2019_Mar_13_0951,mf_amp_cond2,3.0.4,59.98566734567433,
chonograph,&&&&&&&&&&,right,nonword,,,,,,,,0,167,167,79,,,,,,,,,,,,,,,,,,,,,LDT,left,1.3505716953077354,0,,,left,0,1.3505716953077354,,,,,,,,,,,,,,,,,,,,,,1046,2019_Mar_13_0951,mf_amp_cond2,3.0.4,59.98566734567433,
corruption,&&&&&&&&&&,left,sanctity.vice,,,,,,,,0,168,168,131,,,,,,,,,,,,,,,,,,,,,LDT,right,0.8837924353429116,0,,,right,0,0.8837924353429116,,,,,,,,,,,,,,,,,,,,,,1046,2019_Mar_13_0951,mf_amp_cond2,3.0.4,59.98566734567433,
war,&&&,left,sanctity.vice,,,,,,,,0,169,169,36,,,,,,,,,,,,,,,,,,,,,LDT,right,2.0007103896932676,0,,,right,0,2.0007103896932676,,,,,,,,,,,,,,,,,,,,,,1046,2019_Mar_13_0951,mf_amp_cond2,3.0.4,59.98566734567433,
nomaric,&&&&&&&,None,nonword,,,,,,,,0,170,170,61,,,,,,,,,,,,,,,,,,,,,LDT,left,0.9004774524073582,0,,,left,0,0.9004774524073582,,,,,,,,,,,,,,,,,,,,,,1046,2019_Mar_13_0951,mf_amp_cond2,3.0.4,59.98566734567433,
else,&&&&,left,neutral,,,,,,,,0,171,171,44,,,,,,,,,,,,,,,,,,,,,LDT,right,0.900463020108873,0,,,right,0,0.900463020108873,,,,,,,,,,,,,,,,,,,,,,1046,2019_Mar_13_0951,mf_amp_cond2,3.0.4,59.98566734567433,
frojecting,&&&&&&&&&&,right,nonword,,,,,,,,0,172,172,151,,,,,,,,,,,,,,,,,,,,,LDT,left,1.250547224568436,0,,,left,0,1.250547224568436,,,,,,,,,,,,,,,,,,,,,,1046,2019_Mar_13_0951,mf_amp_cond2,3.0.4,59.98566734567433,
juck,&&&&,right,nonword,,,,,,,,0,173,173,114,,,,,,,,,,,,,,,,,,,,,LDT,right,0.9504744537116494,1,,,right,1,0.9504744537116494,,,,,,,,,,,,,,,,,,,,,,1046,2019_Mar_13_0951,mf_amp_cond2,3.0.4,59.98566734567433,
atson,&&&&&,right,nonword,,,,,,,,0,174,174,47,,,,,,,,,,,,,,,,,,,,,LDT,left,0.8169994486961514,0,,,left,0,0.8169994486961514,,,,,,,,,,,,,,,,,,,,,,1046,2019_Mar_13_0951,mf_amp_cond2,3.0.4,59.98566734567433,
papert,&&&&&&,right,nonword,,,,,,,,0,175,175,196,,,,,,,,,,,,,,,,,,,,,LDT,left,1.2338288528553676,0,,,left,0,1.2338288528553676,,,,,,,,,,,,,,,,,,,,,,1046,2019_Mar_13_0951,mf_amp_cond2,3.0.4,59.98566734567433,
wonderfujnoss,&&&&&&&&&&&&&,right,nonword,,,,,,,,0,176,176,6,,,,,,,,,,,,,,,,,,,,,LDT,left,1.3839192792074755,0,,,left,0,1.3839192792074755,,,,,,,,,,,,,,,,,,,,,,1046,2019_Mar_13_0951,mf_amp_cond2,3.0.4,59.98566734567433,
penalty,&&&&&&&,left,authority.vice,,,,,,,,0,177,177,28,,,,,,,,,,,,,,,,,,,,,LDT,right,0.6337317395373248,0,,,right,0,0.6337317395373248,,,,,,,,,,,,,,,,,,,,,,1046,2019_Mar_13_0951,mf_amp_cond2,3.0.4,59.98566734567433,
menizen,&&&&&&&,None,nonword,,,,,,,,0,178,178,17,,,,,,,,,,,,,,,,,,,,,LDT,left,1.1838616783206817,0,,,left,0,1.1838616783206817,,,,,,,,,,,,,,,,,,,,,,1046,2019_Mar_13_0951,mf_amp_cond2,3.0.4,59.98566734567433,
pescinded,&&&&&&&&&,right,nonword,,,,,,,,0,179,179,145,,,,,,,,,,,,,,,,,,,,,LDT,left,4.23460691398941,0,,,left,0,4.23460691398941,,,,,,,,,,,,,,,,,,,,,,1046,2019_Mar_13_0951,mf_amp_cond2,3.0.4,59.98566734567433,
leact,&&&&&,right,nonword,,,,,,,,0,180,180,49,,,,,,,,,,,,,,,,,,,,,LDT,left,1.4672673922905233,0,,,left,0,1.4672673922905233,,,,,,,,,,,,,,,,,,,,,,1046,2019_Mar_13_0951,mf_amp_cond2,3.0.4,59.98566734567433,
reprisols,&&&&&&&&&,right,nonword,,,,,,,,0,181,181,38,,,,,,,,,,,,,,,,,,,,,LDT,left,1.4505971282196697,0,,,left,0,1.4505971282196697,,,,,,,,,,,,,,,,,,,,,,1046,2019_Mar_13_0951,mf_amp_cond2,3.0.4,59.98566734567433,
praised,&&&&&&&,left,loyalty.virtue,,,,,,,,0,182,182,91,,,,,,,,,,,,,,,,,,,,,LDT,right,0.8671497530303895,0,,,right,0,0.8671497530303895,,,,,,,,,,,,,,,,,,,,,,1046,2019_Mar_13_0951,mf_amp_cond2,3.0.4,59.98566734567433,
hence,&&&&&,left,neutral,,,,,,,,0,183,183,135,,,,,,,,,,,,,,,,,,,,,LDT,right,0.800467413966544,0,,,right,0,0.800467413966544,,,,,,,,,,,,,,,,,,,,,,1046,2019_Mar_13_0951,mf_amp_cond2,3.0.4,59.98566734567433,
sickyay,&&&&&&&,right,nonword,,,,,,,,0,184,184,37,,,,,,,,,,,,,,,,,,,,,LDT,left,1.2172066964558326,0,,,left,0,1.2172066964558326,,,,,,,,,,,,,,,,,,,,,,1046,2019_Mar_13_0951,mf_amp_cond2,3.0.4,59.98566734567433,
there,&&&&&,left,neutral,,,,,,,,0,185,185,64,,,,,,,,,,,,,,,,,,,,,LDT,right,0.7337902063736692,0,,,right,0,0.7337902063736692,,,,,,,,,,,,,,,,,,,,,,1046,2019_Mar_13_0951,mf_amp_cond2,3.0.4,59.98566734567433,
even,&&&&,left,neutral,,,,,,,,0,186,186,81,,,,,,,,,,,,,,,,,,,,,LDT,right,1.8340048627287615,0,,,right,0,1.8340048627287615,,,,,,,,,,,,,,,,,,,,,,1046,2019_Mar_13_0951,mf_amp_cond2,3.0.4,59.98566734567433,
latter,&&&&&&,left,neutral,,,,,,,,0,187,187,19,,,,,,,,,,,,,,,,,,,,,LDT,right,2.0507311240944546,0,,,right,0,2.0507311240944546,,,,,,,,,,,,,,,,,,,,,,1046,2019_Mar_13_0951,mf_amp_cond2,3.0.4,59.98566734567433,
neutralust,&&&&&&&&&&,right,nonword,,,,,,,,0,188,188,150,,,,,,,,,,,,,,,,,,,,,LDT,left,1.3839144684607163,0,,,left,0,1.3839144684607163,,,,,,,,,,,,,,,,,,,,,,1046,2019_Mar_13_0951,mf_amp_cond2,3.0.4,59.98566734567433,
tenuflect,&&&&&&&&&,right,nonword,,,,,,,,0,189,189,148,,,,,,,,,,,,,,,,,,,,,LDT,left,1.5671507472579833,0,,,left,0,1.5671507472579833,,,,,,,,,,,,,,,,,,,,,,1046,2019_Mar_13_0951,mf_amp_cond2,3.0.4,59.98566734567433,
gun,&&&,left,authority.vice,,,,,,,,0,190,190,26,,,,,,,,,,,,,,,,,,,,,LDT,right,0.7337754533800762,0,,,right,0,0.7337754533800762,,,,,,,,,,,,,,,,,,,,,,1046,2019_Mar_13_0951,mf_amp_cond2,3.0.4,59.98566734567433,
letish,&&&&&&,right,nonword,,,,,,,,0,191,191,80,,,,,,,,,,,,,,,,,,,,,LDT,left,1.9007045205507893,0,,,left,0,1.9007045205507893,,,,,,,,,,,,,,,,,,,,,,1046,2019_Mar_13_0951,mf_amp_cond2,3.0.4,59.98566734567433,
couldnt,&&&&&&&,left,neutral,,,,,,,,0,192,192,167,,,,,,,,,,,,,,,,,,,,,LDT,right,0.8504329849383794,0,,,right,0,0.8504329849383794,,,,,,,,,,,,,,,,,,,,,,1046,2019_Mar_13_0951,mf_amp_cond2,3.0.4,59.98566734567433,
bycled,&&&&&&,None,nonword,,,,,,,,0,193,193,65,,,,,,,,,,,,,,,,,,,,,LDT,left,1.367246770154452,0,,,left,0,1.367246770154452,,,,,,,,,,,,,,,,,,,,,,1046,2019_Mar_13_0951,mf_amp_cond2,3.0.4,59.98566734567433,
uller,&&&&&,right,nonword,,,,,,,,0,194,194,83,,,,,,,,,,,,,,,,,,,,,LDT,left,1.4337889555899892,0,,,left,0,1.4337889555899892,,,,,,,,,,,,,,,,,,,,,,1046,2019_Mar_13_0951,mf_amp_cond2,3.0.4,59.98566734567433,
prones,&&&&&&,right,nonword,,,,,,,,0,195,195,168,,,,,,,,,,,,,,,,,,,,,LDT,left,1.2838778104051016,0,,,left,0,1.2838778104051016,,,,,,,,,,,,,,,,,,,,,,1046,2019_Mar_13_0951,mf_amp_cond2,3.0.4,59.98566734567433,
nonobservalt,&&&&&&&&&&&&,right,nonword,,,,,,,,0,196,196,188,,,,,,,,,,,,,,,,,,,,,LDT,left,2.500851345103001,0,,,left,0,2.500851345103001,,,,,,,,,,,,,,,,,,,,,,1046,2019_Mar_13_0951,mf_amp_cond2,3.0.4,59.98566734567433,
suggists,&&&&&&&&,right,nonword,,,,,,,,0,197,197,11,,,,,,,,,,,,,,,,,,,,,LDT,left,1.150520508759655,0,,,left,0,1.150520508759655,,,,,,,,,,,,,,,,,,,,,,1046,2019_Mar_13_0951,mf_amp_cond2,3.0.4,59.98566734567433,
seem,&&&&,left,neutral,,,,,,,,0,198,198,82,,,,,,,,,,,,,,,,,,,,,LDT,right,0.6003973050683271,0,,,right,0,0.6003973050683271,,,,,,,,,,,,,,,,,,,,,,1046,2019_Mar_13_0951,mf_amp_cond2,3.0.4,59.98566734567433,
clattening,&&&&&&&&&&,right,nonword,,,,,,,,0,199,199,195,,,,,,,,,,,,,,,,,,,,,LDT,right,1.2171948298928328,1,,,right,1,1.2171948298928328,,,,,,,,,,,,,,,,,,,,,,1046,2019_Mar_13_0951,mf_amp_cond2,3.0.4,59.98566734567433,
,,,,,,,,,,,,,,,,,,,,,,,,,,,,,,,,,,,,,,,,,,,,3,17.423,,,,,,,,,,,,,,,,,,,,1046,2019_Mar_13_0951,mf_amp_cond2,3.0.4,59.98566734567433,
,,,,,,,,,,,,,,,,,,,,,,,,,,,,,,,,,,,,,,,,,,,,,,right,1.7173713849915657,,,,,,,,,,,,,,,,,,1046,2019_Mar_13_0951,mf_amp_cond2,3.0.4,59.98566734567433,
keyboard,&&&&,,,senk,,,,,,,,,,,0,0,0,2,,,,,,,,,,,,,,,,,AMP_prac,right,4.78472370331292,,,,,,,,,,,right,4.78472370331292,,,,,,,,,,,,,,,,1046,2019_Mar_13_0951,mf_amp_cond2,3.0.4,59.98566734567433,
car,&&&&&&&&,,,cemtuper,,,,,,,,,,,0,1,1,0,,,,,,,,,,,,,,,,,AMP_prac,right,1.8340000519528985,,,,,,,,,,,right,1.8340000519528985,,,,,,,,,,,,,,,,1046,2019_Mar_13_0951,mf_amp_cond2,3.0.4,59.98566734567433,
banana,&&&&&&,,,kacket,,,,,,,,,,,0,2,2,1,,,,,,,,,,,,,,,,,AMP_prac,right,3.0342885695863515,,,,,,,,,,,right,3.0342885695863515,,,,,,,,,,,,,,,,1046,2019_Mar_13_0951,mf_amp_cond2,3.0.4,59.98566734567433,
scarf,&&&&&&&&,,,bisebell,,,,,,,,,,,0,3,3,3,,,,,,,,,,,,,,,,,AMP_prac,right,1.6339584869565442,,,,,,,,,,,right,1.6339584869565442,,,,,,,,,,,,,,,,1046,2019_Mar_13_0951,mf_amp_cond2,3.0.4,59.98566734567433,
,,,,,,,,,,,,,,,,,,,,,,,,,,,,,,,,,,,,,,,,,,,,,,,,,,right,2.5175126290414482,,,,,,,,,,,,,,1046,2019_Mar_13_0951,mf_amp_cond2,3.0.4,59.98566734567433,
refused,&&&&&&&&&&,right,authority.vice,honstables,,,,,,,,,,,,,,,0,0,0,270,,,,,,,,,,,,,AMP,right,3.8344496981590055,1,,,,,,,,,,,,,,right,1,3.8344496981590055,,,,,,,,,,,1046,2019_Mar_13_0951,mf_amp_cond2,3.0.4,59.98566734567433,
troops,&&&&&&&,right,loyalty.vice,stindig,,,,,,,,,,,,,,,0,1,1,198,,,,,,,,,,,,,AMP,left,1.2003670934645925,0,,,,,,,,,,,,,,left,0,1.2003670934645925,,,,,,,,,,,1046,2019_Mar_13_0951,mf_amp_cond2,3.0.4,59.98566734567433,
terrorists,&&&&&&&,right,fairness.vice,stindig,,,,,,,,,,,,,,,0,2,2,118,,,,,,,,,,,,,AMP,left,1.667298694315832,0,,,,,,,,,,,,,,left,0,1.667298694315832,,,,,,,,,,,1046,2019_Mar_13_0951,mf_amp_cond2,3.0.4,59.98566734567433,
critics,&&&&&,right,loyalty.vice,pafer,,,,,,,,,,,,,,,0,3,3,196,,,,,,,,,,,,,AMP,right,2.317459197482094,1,,,,,,,,,,,,,,right,1,2.317459197482094,,,,,,,,,,,1046,2019_Mar_13_0951,mf_amp_cond2,3.0.4,59.98566734567433,
counpy's,&&&&&&&&,None,nonword,divility,,,,,,,,,,,,,,,0,4,4,202,,,,,,,,,,,,,AMP,right,1.2672312794602476,0,,,,,,,,,,,,,,right,0,1.2672312794602476,,,,,,,,,,,1046,2019_Mar_13_0951,mf_amp_cond2,3.0.4,59.98566734567433,
prison,&&&&&&&&&,right,fairness.vice,gillipede,,,,,,,,,,,,,,,0,5,5,95,,,,,,,,,,,,,AMP,right,3.3677519004850183,1,,,,,,,,,,,,,,right,1,3.3677519004850183,,,,,,,,,,,1046,2019_Mar_13_0951,mf_amp_cond2,3.0.4,59.98566734567433,
support,&&&&&&&&&&,left,loyalty.virtue,elduringly,,,,,,,,,,,,,,,0,6,6,93,,,,,,,,,,,,,AMP,right,2.317456311051501,0,,,,,,,,,,,,,,right,0,2.317456311051501,,,,,,,,,,,1046,2019_Mar_13_0951,mf_amp_cond2,3.0.4,59.98566734567433,
torture,&&&,right,care.vice,oam,,,,,,,,,,,,,,,0,7,7,253,,,,,,,,,,,,,AMP,left,2.0340525213687215,0,,,,,,,,,,,,,,left,0,2.0340525213687215,,,,,,,,,,,1046,2019_Mar_13_0951,mf_amp_cond2,3.0.4,59.98566734567433,
celebrated,&&&&&&,left,authority.virtue,sonvoy,,,,,,,,,,,,,,,0,8,8,190,,,,,,,,,,,,,AMP,left,3.2510167552391067,1,,,,,,,,,,,,,,left,1,3.2510167552391067,,,,,,,,,,,1046,2019_Mar_13_0951,mf_amp_cond2,3.0.4,59.98566734567433,
promote,&&&&&&&&&&,left,sanctity.virtue,elduringly,,,,,,,,,,,,,,,0,9,9,169,,,,,,,,,,,,,AMP,right,1.0004576641367748,0,,,,,,,,,,,,,,right,0,1.0004576641367748,,,,,,,,,,,1046,2019_Mar_13_0951,mf_amp_cond2,3.0.4,59.98566734567433,
hand,&&&&&&&&&&,left,sanctity.virtue,simplustic,,,,,,,,,,,,,,,0,10,10,302,,,,,,,,,,,,,AMP,right,0.9338035482214764,0,,,,,,,,,,,,,,right,0,0.9338035482214764,,,,,,,,,,,1046,2019_Mar_13_0951,mf_amp_cond2,3.0.4,59.98566734567433,
promised,&&&&&&&&,left,loyalty.virtue,drumbled,,,,,,,,,,,,,,,0,11,11,154,,,,,,,,,,,,,AMP,left,1.050480002129916,1,,,,,,,,,,,,,,left,1,1.050480002129916,,,,,,,,,,,1046,2019_Mar_13_0951,mf_amp_cond2,3.0.4,59.98566734567433,
violence,&&&&&&&,right,care.vice,allears,,,,,,,,,,,,,,,0,12,12,278,,,,,,,,,,,,,AMP,left,1.133832925959723,0,,,,,,,,,,,,,,left,0,1.133832925959723,,,,,,,,,,,1046,2019_Mar_13_0951,mf_amp_cond2,3.0.4,59.98566734567433,
officers,&&&&&&&,right,authority.vice,vurtain,,,,,,,,,,,,,,,0,13,13,52,,,,,,,,,,,,,AMP,left,0.6670636082417332,0,,,,,,,,,,,,,,left,0,0.6670636082417332,,,,,,,,,,,1046,2019_Mar_13_0951,mf_amp_cond2,3.0.4,59.98566734567433,
help,&&&&&&&&&&,left,care.virtue,focomotive,,,,,,,,,,,,,,,0,14,14,232,,,,,,,,,,,,,AMP,left,0.9004639822815079,1,,,,,,,,,,,,,,left,1,0.9004639822815079,,,,,,,,,,,1046,2019_Mar_13_0951,mf_amp_cond2,3.0.4,59.98566734567433,
pleasant,&&&&&&&,None,control,vurtain,,,,,,,,,,,,,,,0,15,15,180,,,,,,,,,,,,,AMP,left,1.7506772755587008,0,,,,,,,,,,,,,,left,0,1.7506772755587008,,,,,,,,,,,1046,2019_Mar_13_0951,mf_amp_cond2,3.0.4,59.98566734567433,
army,&&&&&&&&&,right,loyalty.vice,rivernoat,,,,,,,,,,,,,,,0,16,16,97,,,,,,,,,,,,,AMP,left,2.1340773128613364,0,,,,,,,,,,,,,,left,0,2.1340773128613364,,,,,,,,,,,1046,2019_Mar_13_0951,mf_amp_cond2,3.0.4,59.98566734567433,
rejected,&&&&&&&&&&&&,right,authority.vice,feleological,,,,,,,,,,,,,,,0,17,17,131,,,,,,,,,,,,,AMP,left,3.6677791294350754,0,,,,,,,,,,,,,,left,0,3.6677791294350754,,,,,,,,,,,1046,2019_Mar_13_0951,mf_amp_cond2,3.0.4,59.98566734567433,
critics,&&&&,right,loyalty.vice,ning,,,,,,,,,,,,,,,0,18,18,132,,,,,,,,,,,,,AMP,left,2.8676154350978322,0,,,,,,,,,,,,,,left,0,2.8676154350978322,,,,,,,,,,,1046,2019_Mar_13_0951,mf_amp_cond2,3.0.4,59.98566734567433,
troops,&&&&&&&&&&&,right,loyalty.vice,blunderints,,,,,,,,,,,,,,,0,19,19,269,,,,,,,,,,,,,AMP,left,1.1505128115531988,0,,,,,,,,,,,,,,left,0,1.1505128115531988,,,,,,,,,,,1046,2019_Mar_13_0951,mf_amp_cond2,3.0.4,59.98566734567433,
nomparisons,&&&&&&&,None,nonword,carvels,,,,,,,,,,,,,,,0,20,20,285,,,,,,,,,,,,,AMP,right,0.8171052855323069,0,,,,,,,,,,,,,,right,0,0.8171052855323069,,,,,,,,,,,1046,2019_Mar_13_0951,mf_amp_cond2,3.0.4,59.98566734567433,
serial,&&&&&,right,sanctity.vice,pafer,,,,,,,,,,,,,,,0,21,21,311,,,,,,,,,,,,,AMP,left,3.234325003111735,0,,,,,,,,,,,,,,left,0,3.234325003111735,,,,,,,,,,,1046,2019_Mar_13_0951,mf_amp_cond2,3.0.4,59.98566734567433,
dignity,&&&&&&&&&&,left,sanctity.virtue,gationwide,,,,,,,,,,,,,,,0,22,22,263,,,,,,,,,,,,,AMP,right,3.9845292200916447,0,,,,,,,,,,,,,,right,0,3.9845292200916447,,,,,,,,,,,1046,2019_Mar_13_0951,mf_amp_cond2,3.0.4,59.98566734567433,
edancipation,&&&&&&&,None,nonword,allears,,,,,,,,,,,,,,,0,23,23,151,,,,,,,,,,,,,AMP,right,5.134797644772334,0,,,,,,,,,,,,,,right,0,5.134797644772334,,,,,,,,,,,1046,2019_Mar_13_0951,mf_amp_cond2,3.0.4,59.98566734567433,
great,&&&&&,left,loyalty.virtue,tabin,,,,,,,,,,,,,,,0,24,24,176,,,,,,,,,,,,,AMP,right,0.9004643030057196,0,,,,,,,,,,,,,,right,0,0.9004643030057196,,,,,,,,,,,1046,2019_Mar_13_0951,mf_amp_cond2,3.0.4,59.98566734567433,
clean,&&&&&&,left,sanctity.virtue,fegard,,,,,,,,,,,,,,,0,25,25,255,,,,,,,,,,,,,AMP,right,2.5841952888586093,0,,,,,,,,,,,,,,right,0,2.5841952888586093,,,,,,,,,,,1046,2019_Mar_13_0951,mf_amp_cond2,3.0.4,59.98566734567433,
yane,&&&&&&,None,nonword,gazily,,,,,,,,,,,,,,,0,26,26,194,,,,,,,,,,,,,AMP,right,2.0674052367394324,0,,,,,,,,,,,,,,right,0,2.0674052367394324,,,,,,,,,,,1046,2019_Mar_13_0951,mf_amp_cond2,3.0.4,59.98566734567433,
promises,&&&&&&,left,fairness.virtue,pumber,,,,,,,,,,,,,,,0,27,27,324,,,,,,,,,,,,,AMP,left,0.6170531368115917,1,,,,,,,,,,,,,,left,1,0.6170531368115917,,,,,,,,,,,1046,2019_Mar_13_0951,mf_amp_cond2,3.0.4,59.98566734567433,
integrity,&&&&&&&&&&&,left,fairness.virtue,egpeditious,,,,,,,,,,,,,,,0,28,28,229,,,,,,,,,,,,,AMP,left,1.8173503138532396,1,,,,,,,,,,,,,,left,1,1.8173503138532396,,,,,,,,,,,1046,2019_Mar_13_0951,mf_amp_cond2,3.0.4,59.98566734567433,
hope,&&&&&&&&&,left,loyalty.virtue,fangsters,,,,,,,,,,,,,,,0,29,29,160,,,,,,,,,,,,,AMP,left,0.9838050395774189,1,,,,,,,,,,,,,,left,1,0.9838050395774189,,,,,,,,,,,1046,2019_Mar_13_0951,mf_amp_cond2,3.0.4,59.98566734567433,
victims,&&&&&&&&&,right,care.vice,gondensed,,,,,,,,,,,,,,,0,30,30,283,,,,,,,,,,,,,AMP,left,0.600357215385884,0,,,,,,,,,,,,,,left,0,0.600357215385884,,,,,,,,,,,1046,2019_Mar_13_0951,mf_amp_cond2,3.0.4,59.98566734567433,
police,&&&&&&&&&,right,authority.vice,rivernoat,,,,,,,,,,,,,,,0,31,31,256,,,,,,,,,,,,,AMP,left,2.20076766985585,0,,,,,,,,,,,,,,left,0,2.20076766985585,,,,,,,,,,,1046,2019_Mar_13_0951,mf_amp_cond2,3.0.4,59.98566734567433,
hope,&&&&&&,left,loyalty.virtue,gazily,,,,,,,,,,,,,,,0,32,32,304,,,,,,,,,,,,,AMP,left,2.134103932417929,1,,,,,,,,,,,,,,left,1,2.134103932417929,,,,,,,,,,,1046,2019_Mar_13_0951,mf_amp_cond2,3.0.4,59.98566734567433,
useful,&&&&&&&&&&&,left,authority.virtue,precificity,,,,,,,,,,,,,,,0,33,33,31,,,,,,,,,,,,,AMP,left,4.2177753289288376,1,,,,,,,,,,,,,,left,1,4.2177753289288376,,,,,,,,,,,1046,2019_Mar_13_0951,mf_amp_cond2,3.0.4,59.98566734567433,
shot,&&&&&&&&,right,care.vice,ebbitter,,,,,,,,,,,,,,,0,34,34,141,,,,,,,,,,,,,AMP,left,1.4839232240337878,0,,,,,,,,,,,,,,left,0,1.4839232240337878,,,,,,,,,,,1046,2019_Mar_13_0951,mf_amp_cond2,3.0.4,59.98566734567433,
violence,&&&&&&&&,right,care.vice,ugeasily,,,,,,,,,,,,,,,0,35,35,11,,,,,,,,,,,,,AMP,left,1.9007109348895028,0,,,,,,,,,,,,,,left,0,1.9007109348895028,,,,,,,,,,,1046,2019_Mar_13_0951,mf_amp_cond2,3.0.4,59.98566734567433,
edancipation,&&&&&&&,None,nonword,brudent,,,,,,,,,,,,,,,0,36,36,184,,,,,,,,,,,,,AMP,left,1.11716971770511,0,,,,,,,,,,,,,,left,0,1.11716971770511,,,,,,,,,,,1046,2019_Mar_13_0951,mf_amp_cond2,3.0.4,59.98566734567433,
police,&&&&&&&&&&&,right,authority.vice,blunderints,,,,,,,,,,,,,,,0,37,37,14,,,,,,,,,,,,,AMP,left,0.8337739460112061,0,,,,,,,,,,,,,,left,0,0.8337739460112061,,,,,,,,,,,1046,2019_Mar_13_0951,mf_amp_cond2,3.0.4,59.98566734567433,
promote,&&&&&&&&&,left,sanctity.virtue,fangsters,,,,,,,,,,,,,,,0,38,38,259,,,,,,,,,,,,,AMP,left,0.7670428578276187,1,,,,,,,,,,,,,,left,1,0.7670428578276187,,,,,,,,,,,1046,2019_Mar_13_0951,mf_amp_cond2,3.0.4,59.98566734567433,
promised,&&&&&&&&&&,left,loyalty.virtue,ammessment,,,,,,,,,,,,,,,0,39,39,178,,,,,,,,,,,,,AMP,right,1.4839277140854392,0,,,,,,,,,,,,,,right,0,1.4839277140854392,,,,,,,,,,,1046,2019_Mar_13_0951,mf_amp_cond2,3.0.4,59.98566734567433,
integrity,&&&&&&&&&&,left,fairness.virtue,honstables,,,,,,,,,,,,,,,0,40,40,48,,,,,,,,,,,,,AMP,left,1.4339214119827375,1,,,,,,,,,,,,,,left,1,1.4339214119827375,,,,,,,,,,,1046,2019_Mar_13_0951,mf_amp_cond2,3.0.4,59.98566734567433,
attacks,&&&&&,right,care.vice,pafer,,,,,,,,,,,,,,,0,41,41,104,,,,,,,,,,,,,AMP,left,1.0670267898822203,0,,,,,,,,,,,,,,left,0,1.0670267898822203,,,,,,,,,,,1046,2019_Mar_13_0951,mf_amp_cond2,3.0.4,59.98566734567433,
hope,&&&&&&&&,left,loyalty.virtue,thadowed,,,,,,,,,,,,,,,0,42,42,203,,,,,,,,,,,,,AMP,right,1.2005184722074773,0,,,,,,,,,,,,,,right,0,1.2005184722074773,,,,,,,,,,,1046,2019_Mar_13_0951,mf_amp_cond2,3.0.4,59.98566734567433,
crime,&&&&&&,right,fairness.vice,tislay,,,,,,,,,,,,,,,0,43,43,298,,,,,,,,,,,,,AMP,left,5.051441193034407,0,,,,,,,,,,,,,,left,0,5.051441193034407,,,,,,,,,,,1046,2019_Mar_13_0951,mf_amp_cond2,3.0.4,59.98566734567433,
trust,&&&&&&&&&&,left,authority.virtue,ecgagement,,,,,,,,,,,,,,,0,44,44,314,,,,,,,,,,,,,AMP,right,1.050483209284721,0,,,,,,,,,,,,,,right,0,1.050483209284721,,,,,,,,,,,1046,2019_Mar_13_0951,mf_amp_cond2,3.0.4,59.98566734567433,
fear,&&&&&&&&&&,right,sanctity.vice,simplustic,,,,,,,,,,,,,,,0,45,45,7,,,,,,,,,,,,,AMP,right,2.1007422369439155,1,,,,,,,,,,,,,,right,1,2.1007422369439155,,,,,,,,,,,1046,2019_Mar_13_0951,mf_amp_cond2,3.0.4,59.98566734567433,
protesters,&&&,right,authority.vice,oam,,,,,,,,,,,,,,,0,46,46,236,,,,,,,,,,,,,AMP,right,1.5839387146988884,1,,,,,,,,,,,,,,right,1,1.5839387146988884,,,,,,,,,,,1046,2019_Mar_13_0951,mf_amp_cond2,3.0.4,59.98566734567433,
conspiracy,&&&&&&&,right,sanctity.vice,emports,,,,,,,,,,,,,,,0,47,47,28,,,,,,,,,,,,,AMP,left,3.0676419264054857,0,,,,,,,,,,,,,,left,0,3.0676419264054857,,,,,,,,,,,1046,2019_Mar_13_0951,mf_amp_cond2,3.0.4,59.98566734567433,
free,&&&&&&&&&&&,left,fairness.virtue,shoirmaster,,,,,,,,,,,,,,,0,48,48,102,,,,,,,,,,,,,AMP,left,1.1005154895537999,1,,,,,,,,,,,,,,left,1,1.1005154895537999,,,,,,,,,,,1046,2019_Mar_13_0951,mf_amp_cond2,3.0.4,59.98566734567433,
respect,&&&&&&&&&,left,sanctity.virtue,Phintoism,,,,,,,,,,,,,,,0,49,49,177,,,,,,,,,,,,,AMP,left,1.6172923922422342,1,,,,,,,,,,,,,,left,1,1.6172923922422342,,,,,,,,,,,1046,2019_Mar_13_0951,mf_amp_cond2,3.0.4,59.98566734567433,
celebrated,&&&&&&&&,left,authority.virtue,ugeasily,,,,,,,,,,,,,,,0,50,50,163,,,,,,,,,,,,,AMP,right,1.15051377369673,0,,,,,,,,,,,,,,right,0,1.15051377369673,,,,,,,,,,,1046,2019_Mar_13_0951,mf_amp_cond2,3.0.4,59.98566734567433,
prosecution,&&&&&&,right,authority.vice,laming,,,,,,,,,,,,,,,0,51,51,140,,,,,,,,,,,,,AMP,left,2.600854007061571,0,,,,,,,,,,,,,,left,0,2.600854007061571,,,,,,,,,,,1046,2019_Mar_13_0951,mf_amp_cond2,3.0.4,59.98566734567433,
yane,&&&&&&&,None,nonword,emports,,,,,,,,,,,,,,,0,52,52,89,,,,,,,,,,,,,AMP,left,1.1505346203339286,0,,,,,,,,,,,,,,left,0,1.1505346203339286,,,,,,,,,,,1046,2019_Mar_13_0951,mf_amp_cond2,3.0.4,59.98566734567433,
noped,&&&&&&&,None,nonword,Loorish,,,,,,,,,,,,,,,0,53,53,249,,,,,,,,,,,,,AMP,right,1.333900148398243,0,,,,,,,,,,,,,,right,0,1.333900148398243,,,,,,,,,,,1046,2019_Mar_13_0951,mf_amp_cond2,3.0.4,59.98566734567433,
violations,&&&,right,sanctity.vice,oam,,,,,,,,,,,,,,,0,54,54,117,,,,,,,,,,,,,AMP,right,1.1504977378062904,1,,,,,,,,,,,,,,right,1,1.1504977378062904,,,,,,,,,,,1046,2019_Mar_13_0951,mf_amp_cond2,3.0.4,59.98566734567433,
pleasant,&&&&,None,control,wump,,,,,,,,,,,,,,,0,55,55,297,,,,,,,,,,,,,AMP,right,1.3338857160997577,0,,,,,,,,,,,,,,right,0,1.3338857160997577,,,,,,,,,,,1046,2019_Mar_13_0951,mf_amp_cond2,3.0.4,59.98566734567433,
promised,&&&&&&&&&,left,loyalty.virtue,Phintoism,,,,,,,,,,,,,,,0,56,56,38,,,,,,,,,,,,,AMP,left,0.700365650234744,1,,,,,,,,,,,,,,left,1,0.700365650234744,,,,,,,,,,,1046,2019_Mar_13_0951,mf_amp_cond2,3.0.4,59.98566734567433,
serial,&&&&&&,right,sanctity.vice,fegard,,,,,,,,,,,,,,,0,57,57,201,,,,,,,,,,,,,AMP,left,1.5339615978882648,0,,,,,,,,,,,,,,left,0,1.5339615978882648,,,,,,,,,,,1046,2019_Mar_13_0951,mf_amp_cond2,3.0.4,59.98566734567433,
harassment,&&&&&&&,right,sanctity.vice,halaise,,,,,,,,,,,,,,,0,58,58,119,,,,,,,,,,,,,AMP,left,1.1838543018093333,0,,,,,,,,,,,,,,left,0,1.1838543018093333,,,,,,,,,,,1046,2019_Mar_13_0951,mf_amp_cond2,3.0.4,59.98566734567433,
abuse,&&&&&&&&&&&,right,sanctity.vice,fornicalion,,,,,,,,,,,,,,,0,59,59,323,,,,,,,,,,,,,AMP,left,1.1171889607794583,0,,,,,,,,,,,,,,left,0,1.1171889607794583,,,,,,,,,,,1046,2019_Mar_13_0951,mf_amp_cond2,3.0.4,59.98566734567433,
fear,&&&&&&&&&&&&,right,sanctity.vice,quarterbocks,,,,,,,,,,,,,,,0,60,60,101,,,,,,,,,,,,,AMP,right,0.8837818516767584,1,,,,,,,,,,,,,,right,1,0.8837818516767584,,,,,,,,,,,1046,2019_Mar_13_0951,mf_amp_cond2,3.0.4,59.98566734567433,
nomparisons,&&&&&&&&&,None,nonword,discovars,,,,,,,,,,,,,,,0,61,61,147,,,,,,,,,,,,,AMP,right,1.4505708293872885,0,,,,,,,,,,,,,,right,0,1.4505708293872885,,,,,,,,,,,1046,2019_Mar_13_0951,mf_amp_cond2,3.0.4,59.98566734567433,
smapper,&&&&&&&,None,nonword,emports,,,,,,,,,,,,,,,0,62,62,240,,,,,,,,,,,,,AMP,right,0.8504374749609269,0,,,,,,,,,,,,,,right,0,0.8504374749609269,,,,,,,,,,,1046,2019_Mar_13_0951,mf_amp_cond2,3.0.4,59.98566734567433,
protect,&&&&&&&&&&,left,fairness.virtue,focomotive,,,,,,,,,,,,,,,0,63,63,265,,,,,,,,,,,,,AMP,right,3.100966097874334,0,,,,,,,,,,,,,,right,0,3.100966097874334,,,,,,,,,,,1046,2019_Mar_13_0951,mf_amp_cond2,3.0.4,59.98566734567433,
refused,&&&&&&&,right,authority.vice,carvels,,,,,,,,,,,,,,,0,64,64,86,,,,,,,,,,,,,AMP,right,1.867225442401832,1,,,,,,,,,,,,,,right,1,1.867225442401832,,,,,,,,,,,1046,2019_Mar_13_0951,mf_amp_cond2,3.0.4,59.98566734567433,
integrity,&&&&&&&&,left,fairness.virtue,nuckheap,,,,,,,,,,,,,,,0,65,65,289,,,,,,,,,,,,,AMP,left,1.3505492450785823,1,,,,,,,,,,,,,,left,1,1.3505492450785823,,,,,,,,,,,1046,2019_Mar_13_0951,mf_amp_cond2,3.0.4,59.98566734567433,
safety,&&&&&&&&,left,care.virtue,proached,,,,,,,,,,,,,,,0,66,66,209,,,,,,,,,,,,,AMP,right,1.6173196532472502,0,,,,,,,,,,,,,,right,0,1.6173196532472502,,,,,,,,,,,1046,2019_Mar_13_0951,mf_amp_cond2,3.0.4,59.98566734567433,
prosecution,&&&&&&&&&,right,authority.vice,rivernoat,,,,,,,,,,,,,,,0,67,67,205,,,,,,,,,,,,,AMP,left,1.2338622074748855,0,,,,,,,,,,,,,,left,0,1.2338622074748855,,,,,,,,,,,1046,2019_Mar_13_0951,mf_amp_cond2,3.0.4,59.98566734567433,
credit,&&&&&&&&&,left,fairness.virtue,taxpayung,,,,,,,,,,,,,,,0,68,68,84,,,,,,,,,,,,,AMP,left,1.6839846735529136,1,,,,,,,,,,,,,,left,1,1.6839846735529136,,,,,,,,,,,1046,2019_Mar_13_0951,mf_amp_cond2,3.0.4,59.98566734567433,
attacks,&&&&&&&,right,care.vice,carvels,,,,,,,,,,,,,,,0,69,69,168,,,,,,,,,,,,,AMP,right,2.634213136800099,1,,,,,,,,,,,,,,right,1,2.634213136800099,,,,,,,,,,,1046,2019_Mar_13_0951,mf_amp_cond2,3.0.4,59.98566734567433,
idexpressible,&&&&&&&&&&&&,None,nonword,quarterbocks,,,,,,,,,,,,,,,0,70,70,273,,,,,,,,,,,,,AMP,right,2.184094519354403,0,,,,,,,,,,,,,,right,0,2.184094519354403,,,,,,,,,,,1046,2019_Mar_13_0951,mf_amp_cond2,3.0.4,59.98566734567433,
celebrated,&&&&&&&&&,left,authority.virtue,godlaness,,,,,,,,,,,,,,,0,71,71,326,,,,,,,,,,,,,AMP,right,2.5341713472735137,0,,,,,,,,,,,,,,right,0,2.5341713472735137,,,,,,,,,,,1046,2019_Mar_13_0951,mf_amp_cond2,3.0.4,59.98566734567433,
army,&&&&&,right,loyalty.vice,tabin,,,,,,,,,,,,,,,0,72,72,287,,,,,,,,,,,,,AMP,left,1.7339800712361466,0,,,,,,,,,,,,,,left,0,1.7339800712361466,,,,,,,,,,,1046,2019_Mar_13_0951,mf_amp_cond2,3.0.4,59.98566734567433,
fraud,&&&&&&,right,fairness.vice,pumber,,,,,,,,,,,,,,,0,73,73,162,,,,,,,,,,,,,AMP,left,2.1174121802905574,0,,,,,,,,,,,,,,left,0,2.1174121802905574,,,,,,,,,,,1046,2019_Mar_13_0951,mf_amp_cond2,3.0.4,59.98566734567433,
charges,&&&&&&&&,right,fairness.vice,divility,,,,,,,,,,,,,,,0,74,74,126,,,,,,,,,,,,,AMP,left,3.1843356990721077,0,,,,,,,,,,,,,,left,0,3.1843356990721077,,,,,,,,,,,1046,2019_Mar_13_0951,mf_amp_cond2,3.0.4,59.98566734567433,
conspiracy,&&&&,right,sanctity.vice,tove,,,,,,,,,,,,,,,0,75,75,222,,,,,,,,,,,,,AMP,right,4.451307517912937,1,,,,,,,,,,,,,,right,1,4.451307517912937,,,,,,,,,,,1046,2019_Mar_13_0951,mf_amp_cond2,3.0.4,59.98566734567433,
scandal,&&&&&&&&,right,sanctity.vice,gowlands,,,,,,,,,,,,,,,0,76,76,197,,,,,,,,,,,,,AMP,right,0.8837709472863935,1,,,,,,,,,,,,,,right,1,0.8837709472863935,,,,,,,,,,,1046,2019_Mar_13_0951,mf_amp_cond2,3.0.4,59.98566734567433,
help,&&&&&&&&&,left,care.virtue,tomedians,,,,,,,,,,,,,,,0,77,77,327,,,,,,,,,,,,,AMP,right,0.8671035697043408,0,,,,,,,,,,,,,,right,0,0.8671035697043408,,,,,,,,,,,1046,2019_Mar_13_0951,mf_amp_cond2,3.0.4,59.98566734567433,
noped,&&&&&&&&&&,None,nonword,imebreaker,,,,,,,,,,,,,,,0,78,78,10,,,,,,,,,,,,,AMP,right,0.7337411365879234,0,,,,,,,,,,,,,,right,0,0.7337411365879234,,,,,,,,,,,1046,2019_Mar_13_0951,mf_amp_cond2,3.0.4,59.98566734567433,
useful,&&&&&&&&&,left,authority.virtue,fangsters,,,,,,,,,,,,,,,0,79,79,214,,,,,,,,,,,,,AMP,left,0.8671138326462824,1,,,,,,,,,,,,,,left,1,0.8671138326462824,,,,,,,,,,,1046,2019_Mar_13_0951,mf_amp_cond2,3.0.4,59.98566734567433,
terrorist,&&&&&&&,right,loyalty.vice,reviked,,,,,,,,,,,,,,,0,80,80,106,,,,,,,,,,,,,AMP,left,2.3507997255946975,0,,,,,,,,,,,,,,left,0,2.3507997255946975,,,,,,,,,,,1046,2019_Mar_13_0951,mf_amp_cond2,3.0.4,59.98566734567433,
safety,&&&&&&&&&&&&,left,care.virtue,rorroborated,,,,,,,,,,,,,,,0,81,81,54,,,,,,,,,,,,,AMP,left,4.6347112113726325,1,,,,,,,,,,,,,,left,1,4.6347112113726325,,,,,,,,,,,1046,2019_Mar_13_0951,mf_amp_cond2,3.0.4,59.98566734567433,
strength,&&&&&&&&&&,left,sanctity.virtue,totalestic,,,,,,,,,,,,,,,0,82,82,247,,,,,,,,,,,,,AMP,left,2.250790328544099,1,,,,,,,,,,,,,,left,1,2.250790328544099,,,,,,,,,,,1046,2019_Mar_13_0951,mf_amp_cond2,3.0.4,59.98566734567433,
protect,&&&&&&&&&,left,fairness.virtue,discovars,,,,,,,,,,,,,,,0,83,83,223,,,,,,,,,,,,,AMP,right,1.4672478284919634,0,,,,,,,,,,,,,,right,0,1.4672478284919634,,,,,,,,,,,1046,2019_Mar_13_0951,mf_amp_cond2,3.0.4,59.98566734567433,
hate,&&&&&&&&&&&&,right,fairness.vice,rorroborated,,,,,,,,,,,,,,,0,84,84,125,,,,,,,,,,,,,AMP,left,1.583947694802191,0,,,,,,,,,,,,,,left,0,1.583947694802191,,,,,,,,,,,1046,2019_Mar_13_0951,mf_amp_cond2,3.0.4,59.98566734567433,
unpleasant,&&&&&&&,None,control,brudent,,,,,,,,,,,,,,,0,85,85,284,,,,,,,,,,,,,AMP,left,1.8340212193434127,0,,,,,,,,,,,,,,left,0,1.8340212193434127,,,,,,,,,,,1046,2019_Mar_13_0951,mf_amp_cond2,3.0.4,59.98566734567433,
trust,&&&&&&&&&&&,left,authority.virtue,shoirmaster,,,,,,,,,,,,,,,0,86,86,134,,,,,,,,,,,,,AMP,left,1.7839979191776365,1,,,,,,,,,,,,,,left,1,1.7839979191776365,,,,,,,,,,,1046,2019_Mar_13_0951,mf_amp_cond2,3.0.4,59.98566734567433,
free,&&&&&,left,fairness.virtue,infet,,,,,,,,,,,,,,,0,87,87,308,,,,,,,,,,,,,AMP,right,3.2510276596294716,0,,,,,,,,,,,,,,right,0,3.2510276596294716,,,,,,,,,,,1046,2019_Mar_13_0951,mf_amp_cond2,3.0.4,59.98566734567433,
prosecution,&&&&&&&,right,authority.vice,vurtain,,,,,,,,,,,,,,,0,88,88,250,,,,,,,,,,,,,AMP,left,1.2672062634665053,0,,,,,,,,,,,,,,left,0,1.2672062634665053,,,,,,,,,,,1046,2019_Mar_13_0951,mf_amp_cond2,3.0.4,59.98566734567433,
support,&&&&&,left,loyalty.virtue,infet,,,,,,,,,,,,,,,0,89,89,187,,,,,,,,,,,,,AMP,left,1.7507164031267166,1,,,,,,,,,,,,,,left,1,1.7507164031267166,,,,,,,,,,,1046,2019_Mar_13_0951,mf_amp_cond2,3.0.4,59.98566734567433,
strength,&&&&&,left,sanctity.virtue,saned,,,,,,,,,,,,,,,0,90,90,143,,,,,,,,,,,,,AMP,right,0.9504635492921807,0,,,,,,,,,,,,,,right,0,0.9504635492921807,,,,,,,,,,,1046,2019_Mar_13_0951,mf_amp_cond2,3.0.4,59.98566734567433,
yane,&&&&&&&&,None,nonword,bluently,,,,,,,,,,,,,,,0,91,91,76,,,,,,,,,,,,,AMP,left,1.2005559961835388,0,,,,,,,,,,,,,,left,0,1.2005559961835388,,,,,,,,,,,1046,2019_Mar_13_0951,mf_amp_cond2,3.0.4,59.98566734567433,
attacks,&&&&&,right,care.vice,dumid,,,,,,,,,,,,,,,0,92,92,319,,,,,,,,,,,,,AMP,right,1.767327334411675,1,,,,,,,,,,,,,,right,1,1.767327334411675,,,,,,,,,,,1046,2019_Mar_13_0951,mf_amp_cond2,3.0.4,59.98566734567433,
good,&&&&&&&&,left,care.virtue,ugeasily,,,,,,,,,,,,,,,0,93,93,173,,,,,,,,,,,,,AMP,left,1.1338390196033288,1,,,,,,,,,,,,,,left,1,1.1338390196033288,,,,,,,,,,,1046,2019_Mar_13_0951,mf_amp_cond2,3.0.4,59.98566734567433,
smapper,&&&&&&,None,nonword,forepo,,,,,,,,,,,,,,,0,94,94,82,,,,,,,,,,,,,AMP,left,1.98404204993858,0,,,,,,,,,,,,,,left,0,1.98404204993858,,,,,,,,,,,1046,2019_Mar_13_0951,mf_amp_cond2,3.0.4,59.98566734567433,
charges,&&&&&&&&&&,right,fairness.vice,Oregoniuns,,,,,,,,,,,,,,,0,95,95,281,,,,,,,,,,,,,AMP,left,0.9337804565439001,0,,,,,,,,,,,,,,left,0,0.9337804565439001,,,,,,,,,,,1046,2019_Mar_13_0951,mf_amp_cond2,3.0.4,59.98566734567433,
harassment,&&&&&&&,right,sanctity.vice,chadows,,,,,,,,,,,,,,,0,96,96,306,,,,,,,,,,,,,AMP,left,1.0171795637579635,0,,,,,,,,,,,,,,left,0,1.0171795637579635,,,,,,,,,,,1046,2019_Mar_13_0951,mf_amp_cond2,3.0.4,59.98566734567433,
hand,&&&&&&&&,left,sanctity.virtue,ebbitter,,,,,,,,,,,,,,,0,97,97,206,,,,,,,,,,,,,AMP,right,1.2672110742423683,0,,,,,,,,,,,,,,right,0,1.2672110742423683,,,,,,,,,,,1046,2019_Mar_13_0951,mf_amp_cond2,3.0.4,59.98566734567433,
safety,&&&&&&&&&,left,care.virtue,tomedians,,,,,,,,,,,,,,,0,98,98,90,,,,,,,,,,,,,AMP,right,1.0171862988208886,0,,,,,,,,,,,,,,right,0,1.0171862988208886,,,,,,,,,,,1046,2019_Mar_13_0951,mf_amp_cond2,3.0.4,59.98566734567433,
growth,&&&&&&&&&&&&,left,care.virtue,feleological,,,,,,,,,,,,,,,0,99,99,21,,,,,,,,,,,,,AMP,left,1.700649485370377,1,,,,,,,,,,,,,,left,1,1.700649485370377,,,,,,,,,,,1046,2019_Mar_13_0951,mf_amp_cond2,3.0.4,59.98566734567433,
support,&&&&&&&&,left,loyalty.virtue,bluently,,,,,,,,,,,,,,,0,100,100,258,,,,,,,,,,,,,AMP,left,4.251270122244023,1,,,,,,,,,,,,,,left,1,4.251270122244023,,,,,,,,,,,1046,2019_Mar_13_0951,mf_amp_cond2,3.0.4,59.98566734567433,
killed,&&&&&&&&&&&,right,care.vice,egpeditious,,,,,,,,,,,,,,,0,101,101,5,,,,,,,,,,,,,AMP,left,0.8171004747564439,0,,,,,,,,,,,,,,left,0,0.8171004747564439,,,,,,,,,,,1046,2019_Mar_13_0951,mf_amp_cond2,3.0.4,59.98566734567433,
protect,&&&&&&&,left,fairness.virtue,Loorish,,,,,,,,,,,,,,,0,102,102,136,,,,,,,,,,,,,AMP,left,1.383900356857339,1,,,,,,,,,,,,,,left,1,1.383900356857339,,,,,,,,,,,1046,2019_Mar_13_0951,mf_amp_cond2,3.0.4,59.98566734567433,
terrorists,&&&&&&&&,right,fairness.vice,thadowed,,,,,,,,,,,,,,,0,103,103,267,,,,,,,,,,,,,AMP,left,0.7170692689542193,0,,,,,,,,,,,,,,left,0,0.7170692689542193,,,,,,,,,,,1046,2019_Mar_13_0951,mf_amp_cond2,3.0.4,59.98566734567433,
intelligence,&&&&&&,left,loyalty.virtue,forepo,,,,,,,,,,,,,,,0,104,104,33,,,,,,,,,,,,,AMP,right,0.7837060660822317,0,,,,,,,,,,,,,,right,0,0.7837060660822317,,,,,,,,,,,1046,2019_Mar_13_0951,mf_amp_cond2,3.0.4,59.98566734567433,
clean,&&&&&&,left,sanctity.virtue,fegard,,,,,,,,,,,,,,,0,105,105,137,,,,,,,,,,,,,AMP,right,1.1505140944209415,0,,,,,,,,,,,,,,right,0,1.1505140944209415,,,,,,,,,,,1046,2019_Mar_13_0951,mf_amp_cond2,3.0.4,59.98566734567433,
safe,&&&&&,left,care.virtue,aubos,,,,,,,,,,,,,,,0,106,106,46,,,,,,,,,,,,,AMP,right,1.233862528228201,0,,,,,,,,,,,,,,right,0,1.233862528228201,,,,,,,,,,,1046,2019_Mar_13_0951,mf_amp_cond2,3.0.4,59.98566734567433,
increase,&&&&&&&&&,left,care.virtue,discovars,,,,,,,,,,,,,,,0,107,107,300,,,,,,,,,,,,,AMP,right,0.8171107377274893,0,,,,,,,,,,,,,,right,0,0.8171107377274893,,,,,,,,,,,1046,2019_Mar_13_0951,mf_amp_cond2,3.0.4,59.98566734567433,
smapper,&&&&&,None,nonword,aubos,,,,,,,,,,,,,,,0,108,108,310,,,,,,,,,,,,,AMP,left,1.800662410329096,0,,,,,,,,,,,,,,left,0,1.800662410329096,,,,,,,,,,,1046,2019_Mar_13_0951,mf_amp_cond2,3.0.4,59.98566734567433,
love,&&&&&&&&&&&,left,loyalty.virtue,egpeditious,,,,,,,,,,,,,,,0,109,109,262,,,,,,,,,,,,,AMP,right,1.3005570545501541,0,,,,,,,,,,,,,,right,0,1.3005570545501541,,,,,,,,,,,1046,2019_Mar_13_0951,mf_amp_cond2,3.0.4,59.98566734567433,
strong,&&&&&&&&&,left,loyalty.virtue,brotesque,,,,,,,,,,,,,,,0,110,110,215,,,,,,,,,,,,,AMP,left,1.100491114979377,1,,,,,,,,,,,,,,left,1,1.100491114979377,,,,,,,,,,,1046,2019_Mar_13_0951,mf_amp_cond2,3.0.4,59.98566734567433,
rejected,&&&&&&&,right,authority.vice,carvels,,,,,,,,,,,,,,,0,111,111,50,,,,,,,,,,,,,AMP,left,1.6673012600513175,0,,,,,,,,,,,,,,left,0,1.6673012600513175,,,,,,,,,,,1046,2019_Mar_13_0951,mf_amp_cond2,3.0.4,59.98566734567433,
credit,&&&&,left,fairness.virtue,wump,,,,,,,,,,,,,,,0,112,112,59,,,,,,,,,,,,,AMP,right,1.2172025271283928,0,,,,,,,,,,,,,,right,0,1.2172025271283928,,,,,,,,,,,1046,2019_Mar_13_0951,mf_amp_cond2,3.0.4,59.98566734567433,
failure,&&&&&&&,right,loyalty.vice,halaise,,,,,,,,,,,,,,,0,113,113,45,,,,,,,,,,,,,AMP,left,3.517752846615622,0,,,,,,,,,,,,,,left,0,3.517752846615622,,,,,,,,,,,1046,2019_Mar_13_0951,mf_amp_cond2,3.0.4,59.98566734567433,
peace,&&&&&&&,left,care.virtue,troubla,,,,,,,,,,,,,,,0,114,114,294,,,,,,,,,,,,,AMP,left,1.1338515276147518,1,,,,,,,,,,,,,,left,1,1.1338515276147518,,,,,,,,,,,1046,2019_Mar_13_0951,mf_amp_cond2,3.0.4,59.98566734567433,
crime,&&&&&&&&&&&&,right,fairness.vice,feleological,,,,,,,,,,,,,,,0,115,115,218,,,,,,,,,,,,,AMP,left,1.7839966363098938,0,,,,,,,,,,,,,,left,0,1.7839966363098938,,,,,,,,,,,1046,2019_Mar_13_0951,mf_amp_cond2,3.0.4,59.98566734567433,
harassment,&&&&&&,right,sanctity.vice,laming,,,,,,,,,,,,,,,0,116,116,9,,,,,,,,,,,,,AMP,left,1.3672307342349086,0,,,,,,,,,,,,,,left,0,1.3672307342349086,,,,,,,,,,,1046,2019_Mar_13_0951,mf_amp_cond2,3.0.4,59.98566734567433,
great,&&&&&&&&,left,loyalty.virtue,gowlands,,,,,,,,,,,,,,,0,117,117,252,,,,,,,,,,,,,AMP,right,0.8671090218995232,0,,,,,,,,,,,,,,right,0,0.8671090218995232,,,,,,,,,,,1046,2019_Mar_13_0951,mf_amp_cond2,3.0.4,59.98566734567433,
win,&&&&&&&&&&&,left,fairness.virtue,fornicalion,,,,,,,,,,,,,,,0,118,118,165,,,,,,,,,,,,,AMP,right,1.2671809267776553,0,,,,,,,,,,,,,,right,0,1.2671809267776553,,,,,,,,,,,1046,2019_Mar_13_0951,mf_amp_cond2,3.0.4,59.98566734567433,
violations,&&&&&&&&&&&&&,right,sanctity.vice,synchronazers,,,,,,,,,,,,,,,0,119,119,56,,,,,,,,,,,,,AMP,right,1.6006131480680779,1,,,,,,,,,,,,,,right,1,1.6006131480680779,,,,,,,,,,,1046,2019_Mar_13_0951,mf_amp_cond2,3.0.4,59.98566734567433,
clean,&&&&&,left,sanctity.virtue,ablow,,,,,,,,,,,,,,,0,120,120,235,,,,,,,,,,,,,AMP,right,0.6003896078618709,0,,,,,,,,,,,,,,right,0,0.6003896078618709,,,,,,,,,,,1046,2019_Mar_13_0951,mf_amp_cond2,3.0.4,59.98566734567433,
progress,&&&&&&&&&&&&,left,authority.virtue,bruthfulness,,,,,,,,,,,,,,,0,121,121,277,,,,,,,,,,,,,AMP,right,4.784720496129012,0,,,,,,,,,,,,,,right,0,4.784720496129012,,,,,,,,,,,1046,2019_Mar_13_0951,mf_amp_cond2,3.0.4,59.98566734567433,
army,&&&&&&&,right,loyalty.vice,reviked,,,,,,,,,,,,,,,0,122,122,39,,,,,,,,,,,,,AMP,right,1.5005976574320812,1,,,,,,,,,,,,,,right,1,1.5005976574320812,,,,,,,,,,,1046,2019_Mar_13_0951,mf_amp_cond2,3.0.4,59.98566734567433,
great,&&&&&&&&&&&&,left,loyalty.virtue,quarterbocks,,,,,,,,,,,,,,,0,123,123,16,,,,,,,,,,,,,AMP,right,0.8504390785528813,0,,,,,,,,,,,,,,right,0,0.8504390785528813,,,,,,,,,,,1046,2019_Mar_13_0951,mf_amp_cond2,3.0.4,59.98566734567433,
promises,&&&&&&&,left,fairness.virtue,vurtain,,,,,,,,,,,,,,,0,124,124,113,,,,,,,,,,,,,AMP,right,0.8504345885012299,0,,,,,,,,,,,,,,right,0,0.8504345885012299,,,,,,,,,,,1046,2019_Mar_13_0951,mf_amp_cond2,3.0.4,59.98566734567433,
progress,&&&&&&&&,left,authority.virtue,fontacts,,,,,,,,,,,,,,,0,125,125,188,,,,,,,,,,,,,AMP,left,1.1838626404642127,1,,,,,,,,,,,,,,left,1,1.1838626404642127,,,,,,,,,,,1046,2019_Mar_13_0951,mf_amp_cond2,3.0.4,59.98566734567433,
powerful,&&&&&&&&&&,left,authority.virtue,galamitous,,,,,,,,,,,,,,,0,126,126,108,,,,,,,,,,,,,AMP,right,0.767085513274651,0,,,,,,,,,,,,,,right,0,0.767085513274651,,,,,,,,,,,1046,2019_Mar_13_0951,mf_amp_cond2,3.0.4,59.98566734567433,
police,&&&&&&&&&&,right,authority.vice,galamitous,,,,,,,,,,,,,,,0,127,127,244,,,,,,,,,,,,,AMP,left,0.46701434603892267,0,,,,,,,,,,,,,,left,0,0.46701434603892267,,,,,,,,,,,1046,2019_Mar_13_0951,mf_amp_cond2,3.0.4,59.98566734567433,
win,&&&&&&&&,left,fairness.virtue,gowlands,,,,,,,,,,,,,,,0,128,128,41,,,,,,,,,,,,,AMP,right,0.6503837226773612,0,,,,,,,,,,,,,,right,0,0.6503837226773612,,,,,,,,,,,1046,2019_Mar_13_0951,mf_amp_cond2,3.0.4,59.98566734567433,
peace,&&&&&&&&&,left,care.virtue,taxpayung,,,,,,,,,,,,,,,0,129,129,227,,,,,,,,,,,,,AMP,left,1.1505112079612445,1,,,,,,,,,,,,,,left,1,1.1505112079612445,,,,,,,,,,,1046,2019_Mar_13_0951,mf_amp_cond2,3.0.4,59.98566734567433,
safe,&&&&&,left,care.virtue,dumid,,,,,,,,,,,,,,,0,130,130,138,,,,,,,,,,,,,AMP,right,2.5174898581171874,0,,,,,,,,,,,,,,right,0,2.5174898581171874,,,,,,,,,,,1046,2019_Mar_13_0951,mf_amp_cond2,3.0.4,59.98566734567433,
clean,&&&&&&&&&&,left,sanctity.virtue,gationwide,,,,,,,,,,,,,,,0,131,131,62,,,,,,,,,,,,,AMP,right,1.1171636240615044,0,,,,,,,,,,,,,,right,0,1.1171636240615044,,,,,,,,,,,1046,2019_Mar_13_0951,mf_amp_cond2,3.0.4,59.98566734567433,
gikely,&&&&&&&,None,nonword,Loorish,,,,,,,,,,,,,,,0,132,132,6,,,,,,,,,,,,,AMP,left,1.1505670128390193,0,,,,,,,,,,,,,,left,0,1.1505670128390193,,,,,,,,,,,1046,2019_Mar_13_0951,mf_amp_cond2,3.0.4,59.98566734567433,
died,&&&&&&&&,right,care.vice,ugeasily,,,,,,,,,,,,,,,0,133,133,251,,,,,,,,,,,,,AMP,left,1.1004984915198293,0,,,,,,,,,,,,,,left,0,1.1004984915198293,,,,,,,,,,,1046,2019_Mar_13_0951,mf_amp_cond2,3.0.4,59.98566734567433,
gikely,&&&&&&&&,None,nonword,hescribe,,,,,,,,,,,,,,,0,134,134,94,,,,,,,,,,,,,AMP,left,1.2338740740669891,0,,,,,,,,,,,,,,left,0,1.2338740740669891,,,,,,,,,,,1046,2019_Mar_13_0951,mf_amp_cond2,3.0.4,59.98566734567433,
ability,&&&&&&&&,left,authority.virtue,thabbily,,,,,,,,,,,,,,,0,135,135,274,,,,,,,,,,,,,AMP,right,1.8840300871815998,0,,,,,,,,,,,,,,right,0,1.8840300871815998,,,,,,,,,,,1046,2019_Mar_13_0951,mf_amp_cond2,3.0.4,59.98566734567433,
counpy's,&&&&&,None,nonword,framo,,,,,,,,,,,,,,,0,136,136,8,,,,,,,,,,,,,AMP,left,0.8004257206630427,0,,,,,,,,,,,,,,left,0,0.8004257206630427,,,,,,,,,,,1046,2019_Mar_13_0951,mf_amp_cond2,3.0.4,59.98566734567433,
win,&&&&&&,left,fairness.virtue,forepo,,,,,,,,,,,,,,,0,137,137,280,,,,,,,,,,,,,AMP,left,2.7842580212454777,1,,,,,,,,,,,,,,left,1,2.7842580212454777,,,,,,,,,,,1046,2019_Mar_13_0951,mf_amp_cond2,3.0.4,59.98566734567433,
violations,&&&&&&&,right,sanctity.vice,halaise,,,,,,,,,,,,,,,0,138,138,275,,,,,,,,,,,,,AMP,left,1.8173333157901652,0,,,,,,,,,,,,,,left,0,1.8173333157901652,,,,,,,,,,,1046,2019_Mar_13_0951,mf_amp_cond2,3.0.4,59.98566734567433,
serial,&&&&&&&&,right,sanctity.vice,thadowed,,,,,,,,,,,,,,,0,139,139,32,,,,,,,,,,,,,AMP,left,3.567759790137643,0,,,,,,,,,,,,,,left,0,3.567759790137643,,,,,,,,,,,1046,2019_Mar_13_0951,mf_amp_cond2,3.0.4,59.98566734567433,
increase,&&&&&&&&&&&,left,care.virtue,blunderints,,,,,,,,,,,,,,,0,140,140,92,,,,,,,,,,,,,AMP,left,1.1838491703383625,1,,,,,,,,,,,,,,left,1,1.1838491703383625,,,,,,,,,,,1046,2019_Mar_13_0951,mf_amp_cond2,3.0.4,59.98566734567433,
peaceful,&&&&&,left,authority.virtue,infet,,,,,,,,,,,,,,,0,141,141,103,,,,,,,,,,,,,AMP,right,1.1838469252979849,0,,,,,,,,,,,,,,right,0,1.1838469252979849,,,,,,,,,,,1046,2019_Mar_13_0951,mf_amp_cond2,3.0.4,59.98566734567433,
ability,&&&&&&&&&&,left,authority.virtue,Oregoniuns,,,,,,,,,,,,,,,0,142,142,23,,,,,,,,,,,,,AMP,left,1.317222187120933,1,,,,,,,,,,,,,,left,1,1.317222187120933,,,,,,,,,,,1046,2019_Mar_13_0951,mf_amp_cond2,3.0.4,59.98566734567433,
love,&&&&&&&,left,loyalty.virtue,troubla,,,,,,,,,,,,,,,0,143,143,2,,,,,,,,,,,,,AMP,left,1.6672993357642554,1,,,,,,,,,,,,,,left,1,1.6672993357642554,,,,,,,,,,,1046,2019_Mar_13_0951,mf_amp_cond2,3.0.4,59.98566734567433,
powerful,&&&&&,left,authority.virtue,infet,,,,,,,,,,,,,,,0,144,144,29,,,,,,,,,,,,,AMP,left,0.8004500952083617,1,,,,,,,,,,,,,,left,1,0.8004500952083617,,,,,,,,,,,1046,2019_Mar_13_0951,mf_amp_cond2,3.0.4,59.98566734567433,
counpy's,&&&&&&&&&&,None,nonword,imebreaker,,,,,,,,,,,,,,,0,145,145,145,,,,,,,,,,,,,AMP,left,1.050483209284721,0,,,,,,,,,,,,,,left,0,1.050483209284721,,,,,,,,,,,1046,2019_Mar_13_0951,mf_amp_cond2,3.0.4,59.98566734567433,
great,&&&&&&&,left,loyalty.virtue,pharing,,,,,,,,,,,,,,,0,146,146,159,,,,,,,,,,,,,AMP,right,0.8004372665018309,0,,,,,,,,,,,,,,right,0,0.8004372665018309,,,,,,,,,,,1046,2019_Mar_13_0951,mf_amp_cond2,3.0.4,59.98566734567433,
prison,&&&&&,right,fairness.vice,pafer,,,,,,,,,,,,,,,0,147,147,51,,,,,,,,,,,,,AMP,left,1.000543295784155,0,,,,,,,,,,,,,,left,0,1.000543295784155,,,,,,,,,,,1046,2019_Mar_13_0951,mf_amp_cond2,3.0.4,59.98566734567433,
metibolic,&&&&&&&&&&&&&,None,nonword,esquisiteness,,,,,,,,,,,,,,,0,148,148,43,,,,,,,,,,,,,AMP,left,0.8337736252578907,0,,,,,,,,,,,,,,left,0,0.8337736252578907,,,,,,,,,,,1046,2019_Mar_13_0951,mf_amp_cond2,3.0.4,59.98566734567433,
conspiracy,&&&&&&&&,right,sanctity.vice,thabbily,,,,,,,,,,,,,,,0,149,149,116,,,,,,,,,,,,,AMP,right,1.1504820226400625,1,,,,,,,,,,,,,,right,1,1.1504820226400625,,,,,,,,,,,1046,2019_Mar_13_0951,mf_amp_cond2,3.0.4,59.98566734567433,
unpleasant,&&&&&&&&&,None,control,gillipede,,,,,,,,,,,,,,,0,150,150,239,,,,,,,,,,,,,AMP,right,1.8840175791992806,0,,,,,,,,,,,,,,right,0,1.8840175791992806,,,,,,,,,,,1046,2019_Mar_13_0951,mf_amp_cond2,3.0.4,59.98566734567433,
serial,&&&&&,right,sanctity.vice,aubos,,,,,,,,,,,,,,,0,151,151,152,,,,,,,,,,,,,AMP,left,1.083825982437702,0,,,,,,,,,,,,,,left,0,1.083825982437702,,,,,,,,,,,1046,2019_Mar_13_0951,mf_amp_cond2,3.0.4,59.98566734567433,
torture,&&&&&&&&,right,care.vice,thabbily,,,,,,,,,,,,,,,0,152,152,192,,,,,,,,,,,,,AMP,left,0.9671524149598554,0,,,,,,,,,,,,,,left,0,0.9671524149598554,,,,,,,,,,,1046,2019_Mar_13_0951,mf_amp_cond2,3.0.4,59.98566734567433,
shot,&&&&&&&&&&,right,care.vice,gationwide,,,,,,,,,,,,,,,0,153,153,207,,,,,,,,,,,,,AMP,left,0.6503753840224817,0,,,,,,,,,,,,,,left,0,0.6503753840224817,,,,,,,,,,,1046,2019_Mar_13_0951,mf_amp_cond2,3.0.4,59.98566734567433,
prison,&&&&&&&&&,right,fairness.vice,gillipede,,,,,,,,,,,,,,,0,154,154,307,,,,,,,,,,,,,AMP,left,1.784005295688985,0,,,,,,,,,,,,,,left,0,1.784005295688985,,,,,,,,,,,1046,2019_Mar_13_0951,mf_amp_cond2,3.0.4,59.98566734567433,
attacks,&&&&&&,right,care.vice,openet,,,,,,,,,,,,,,,0,155,155,68,,,,,,,,,,,,,AMP,left,0.9338000203133561,0,,,,,,,,,,,,,,left,0,0.9338000203133561,,,,,,,,,,,1046,2019_Mar_13_0951,mf_amp_cond2,3.0.4,59.98566734567433,
violence,&&&&&&,right,care.vice,openet,,,,,,,,,,,,,,,0,156,156,174,,,,,,,,,,,,,AMP,left,2.5008394785691053,0,,,,,,,,,,,,,,left,0,2.5008394785691053,,,,,,,,,,,1046,2019_Mar_13_0951,mf_amp_cond2,3.0.4,59.98566734567433,
protect,&&&&,left,fairness.virtue,ning,,,,,,,,,,,,,,,0,157,157,47,,,,,,,,,,,,,AMP,left,2.2174039378296584,1,,,,,,,,,,,,,,left,1,2.2174039378296584,,,,,,,,,,,1046,2019_Mar_13_0951,mf_amp_cond2,3.0.4,59.98566734567433,
killed,&&&&&,right,care.vice,scock,,,,,,,,,,,,,,,0,158,158,91,,,,,,,,,,,,,AMP,left,0.6503843641257845,0,,,,,,,,,,,,,,left,0,0.6503843641257845,,,,,,,,,,,1046,2019_Mar_13_0951,mf_amp_cond2,3.0.4,59.98566734567433,
edancipation,&&&&&,None,nonword,saned,,,,,,,,,,,,,,,0,159,159,322,,,,,,,,,,,,,AMP,left,2.1507530290982686,0,,,,,,,,,,,,,,left,0,2.1507530290982686,,,,,,,,,,,1046,2019_Mar_13_0951,mf_amp_cond2,3.0.4,59.98566734567433,
refuejing,&&&&&&&,None,nonword,pharing,,,,,,,,,,,,,,,0,160,160,183,,,,,,,,,,,,,AMP,left,0.6337141000549309,0,,,,,,,,,,,,,,left,0,0.6337141000549309,,,,,,,,,,,1046,2019_Mar_13_0951,mf_amp_cond2,3.0.4,59.98566734567433,
shot,&&&&&,right,care.vice,framo,,,,,,,,,,,,,,,0,161,161,261,,,,,,,,,,,,,AMP,left,1.017159679235192,0,,,,,,,,,,,,,,left,0,1.017159679235192,,,,,,,,,,,1046,2019_Mar_13_0951,mf_amp_cond2,3.0.4,59.98566734567433,
strong,&&&&&&&&&&,left,loyalty.virtue,elduringly,,,,,,,,,,,,,,,0,162,162,79,,,,,,,,,,,,,AMP,right,0.7004047778027598,0,,,,,,,,,,,,,,right,0,0.7004047778027598,,,,,,,,,,,1046,2019_Mar_13_0951,mf_amp_cond2,3.0.4,59.98566734567433,
gikely,&&&&&&&,None,nonword,allears,,,,,,,,,,,,,,,0,163,163,212,,,,,,,,,,,,,AMP,left,1.2005171893397346,0,,,,,,,,,,,,,,left,0,1.2005171893397346,,,,,,,,,,,1046,2019_Mar_13_0951,mf_amp_cond2,3.0.4,59.98566734567433,
terrorist,&&&&&&&&,right,loyalty.vice,hescribe,,,,,,,,,,,,,,,0,164,164,248,,,,,,,,,,,,,AMP,left,0.4503437612729613,0,,,,,,,,,,,,,,left,0,0.4503437612729613,,,,,,,,,,,1046,2019_Mar_13_0951,mf_amp_cond2,3.0.4,59.98566734567433,
yane,&&&&&,None,nonword,touls,,,,,,,,,,,,,,,0,165,165,301,,,,,,,,,,,,,AMP,right,2.0840713314537425,0,,,,,,,,,,,,,,right,0,2.0840713314537425,,,,,,,,,,,1046,2019_Mar_13_0951,mf_amp_cond2,3.0.4,59.98566734567433,
love,&&&&,left,loyalty.virtue,wump,,,,,,,,,,,,,,,0,166,166,179,,,,,,,,,,,,,AMP,right,0.43353911649319343,0,,,,,,,,,,,,,,right,0,0.43353911649319343,,,,,,,,,,,1046,2019_Mar_13_0951,mf_amp_cond2,3.0.4,59.98566734567433,
nomparisons,&&&&&&&&&&,None,nonword,ecgagement,,,,,,,,,,,,,,,0,167,167,58,,,,,,,,,,,,,AMP,left,1.0005057717789896,0,,,,,,,,,,,,,,left,0,1.0005057717789896,,,,,,,,,,,1046,2019_Mar_13_0951,mf_amp_cond2,3.0.4,59.98566734567433,
trust,&&&&&&&&&,left,authority.virtue,fangsters,,,,,,,,,,,,,,,0,168,168,44,,,,,,,,,,,,,AMP,left,2.9509481537388638,1,,,,,,,,,,,,,,left,1,2.9509481537388638,,,,,,,,,,,1046,2019_Mar_13_0951,mf_amp_cond2,3.0.4,59.98566734567433,
illegal,&&&&&&&&,right,fairness.vice,bluently,,,,,,,,,,,,,,,0,169,169,156,,,,,,,,,,,,,AMP,left,0.8837638914992567,0,,,,,,,,,,,,,,left,0,0.8837638914992567,,,,,,,,,,,1046,2019_Mar_13_0951,mf_amp_cond2,3.0.4,59.98566734567433,
victims,&&&&&&&,right,care.vice,pharing,,,,,,,,,,,,,,,0,170,170,75,,,,,,,,,,,,,AMP,left,0.8004289278469514,0,,,,,,,,,,,,,,left,0,0.8004289278469514,,,,,,,,,,,1046,2019_Mar_13_0951,mf_amp_cond2,3.0.4,59.98566734567433,
killed,&&&&&&&&&&,right,care.vice,ammessment,,,,,,,,,,,,,,,0,171,171,291,,,,,,,,,,,,,AMP,left,0.8837796066363808,0,,,,,,,,,,,,,,left,0,0.8837796066363808,,,,,,,,,,,1046,2019_Mar_13_0951,mf_amp_cond2,3.0.4,59.98566734567433,
intelligence,&&&&&&&&&&&&,left,loyalty.virtue,bruthfulness,,,,,,,,,,,,,,,0,172,172,204,,,,,,,,,,,,,AMP,left,2.667537949717371,1,,,,,,,,,,,,,,left,1,2.667537949717371,,,,,,,,,,,1046,2019_Mar_13_0951,mf_amp_cond2,3.0.4,59.98566734567433,
torture,&&&&&&&&&&,right,care.vice,Oregoniuns,,,,,,,,,,,,,,,0,173,173,139,,,,,,,,,,,,,AMP,left,2.4341564980277326,0,,,,,,,,,,,,,,left,0,2.4341564980277326,,,,,,,,,,,1046,2019_Mar_13_0951,mf_amp_cond2,3.0.4,59.98566734567433,
intelligence,&&&&,left,loyalty.virtue,wump,,,,,,,,,,,,,,,0,174,174,146,,,,,,,,,,,,,AMP,left,1.7673340694746003,1,,,,,,,,,,,,,,left,1,1.7673340694746003,,,,,,,,,,,1046,2019_Mar_13_0951,mf_amp_cond2,3.0.4,59.98566734567433,
free,&&&&&&&&&,left,fairness.virtue,brotesque,,,,,,,,,,,,,,,0,175,175,20,,,,,,,,,,,,,AMP,left,1.433914035471389,1,,,,,,,,,,,,,,left,1,1.433914035471389,,,,,,,,,,,1046,2019_Mar_13_0951,mf_amp_cond2,3.0.4,59.98566734567433,
gikely,&&&&&&&&&,None,nonword,taxpayung,,,,,,,,,,,,,,,0,176,176,271,,,,,,,,,,,,,AMP,left,1.7507087059202604,0,,,,,,,,,,,,,,left,0,1.7507087059202604,,,,,,,,,,,1046,2019_Mar_13_0951,mf_amp_cond2,3.0.4,59.98566734567433,
died,&&&&,right,care.vice,tove,,,,,,,,,,,,,,,0,177,177,112,,,,,,,,,,,,,AMP,left,1.2838694717502221,0,,,,,,,,,,,,,,left,0,1.2838694717502221,,,,,,,,,,,1046,2019_Mar_13_0951,mf_amp_cond2,3.0.4,59.98566734567433,
opportunity,&&&&&&&&,left,fairness.virtue,nuckheap,,,,,,,,,,,,,,,0,178,178,72,,,,,,,,,,,,,AMP,right,1.1338935416133609,0,,,,,,,,,,,,,,right,0,1.1338935416133609,,,,,,,,,,,1046,2019_Mar_13_0951,mf_amp_cond2,3.0.4,59.98566734567433,
credit,&&&&&&&&&&,left,fairness.virtue,imebreaker,,,,,,,,,,,,,,,0,179,179,226,,,,,,,,,,,,,AMP,right,1.9173869718506467,0,,,,,,,,,,,,,,right,0,1.9173869718506467,,,,,,,,,,,1046,2019_Mar_13_0951,mf_amp_cond2,3.0.4,59.98566734567433,
growth,&&&&&&&&&&,left,care.virtue,ecgagement,,,,,,,,,,,,,,,0,180,180,181,,,,,,,,,,,,,AMP,right,1.083867996436311,0,,,,,,,,,,,,,,right,0,1.083867996436311,,,,,,,,,,,1046,2019_Mar_13_0951,mf_amp_cond2,3.0.4,59.98566734567433,
opportunity,&&&&,left,fairness.virtue,spag,,,,,,,,,,,,,,,0,181,181,99,,,,,,,,,,,,,AMP,left,3.1676708872255404,1,,,,,,,,,,,,,,left,1,3.1676708872255404,,,,,,,,,,,1046,2019_Mar_13_0951,mf_amp_cond2,3.0.4,59.98566734567433,
abuse,&&&&&&&&&&,right,sanctity.vice,totalestic,,,,,,,,,,,,,,,0,182,182,100,,,,,,,,,,,,,AMP,left,1.0338084551913198,0,,,,,,,,,,,,,,left,0,1.0338084551913198,,,,,,,,,,,1046,2019_Mar_13_0951,mf_amp_cond2,3.0.4,59.98566734567433,
smapper,&&&&&,None,nonword,scock,,,,,,,,,,,,,,,0,183,183,77,,,,,,,,,,,,,AMP,left,3.3176930006884504,0,,,,,,,,,,,,,,left,0,3.3176930006884504,,,,,,,,,,,1046,2019_Mar_13_0951,mf_amp_cond2,3.0.4,59.98566734567433,
dignity,&&&&&&&&&&&,left,sanctity.virtue,precificity,,,,,,,,,,,,,,,0,184,184,135,,,,,,,,,,,,,AMP,right,1.1505169808806386,0,,,,,,,,,,,,,,right,0,1.1505169808806386,,,,,,,,,,,1046,2019_Mar_13_0951,mf_amp_cond2,3.0.4,59.98566734567433,
fear,&&&&&&&,right,sanctity.vice,emports,,,,,,,,,,,,,,,0,185,185,286,,,,,,,,,,,,,AMP,left,1.1838405109301675,0,,,,,,,,,,,,,,left,0,1.1838405109301675,,,,,,,,,,,1046,2019_Mar_13_0951,mf_amp_cond2,3.0.4,59.98566734567433,
strong,&&&&&,left,loyalty.virtue,hasks,,,,,,,,,,,,,,,0,186,186,288,,,,,,,,,,,,,AMP,left,0.9004973369301297,1,,,,,,,,,,,,,,left,1,0.9004973369301297,,,,,,,,,,,1046,2019_Mar_13_0951,mf_amp_cond2,3.0.4,59.98566734567433,
metibolic,&&&&&&,None,nonword,squets,,,,,,,,,,,,,,,0,187,187,133,,,,,,,,,,,,,AMP,left,1.283880376140587,0,,,,,,,,,,,,,,left,0,1.283880376140587,,,,,,,,,,,1046,2019_Mar_13_0951,mf_amp_cond2,3.0.4,59.98566734567433,
powerful,&&&&,left,authority.virtue,spag,,,,,,,,,,,,,,,0,188,188,309,,,,,,,,,,,,,AMP,left,3.3010198501870036,1,,,,,,,,,,,,,,left,1,3.3010198501870036,,,,,,,,,,,1046,2019_Mar_13_0951,mf_amp_cond2,3.0.4,59.98566734567433,
troops,&&&&&&&,right,loyalty.vice,chadows,,,,,,,,,,,,,,,0,189,189,161,,,,,,,,,,,,,AMP,left,0.7670819853956345,0,,,,,,,,,,,,,,left,0,0.7670819853956345,,,,,,,,,,,1046,2019_Mar_13_0951,mf_amp_cond2,3.0.4,59.98566734567433,
rejected,&&&&&,right,authority.vice,touls,,,,,,,,,,,,,,,0,190,190,233,,,,,,,,,,,,,AMP,left,1.033821925346274,0,,,,,,,,,,,,,,left,0,1.033821925346274,,,,,,,,,,,1046,2019_Mar_13_0951,mf_amp_cond2,3.0.4,59.98566734567433,
illegal,&&&&&,right,fairness.vice,hasks,,,,,,,,,,,,,,,0,191,191,185,,,,,,,,,,,,,AMP,left,0.9338000203424599,0,,,,,,,,,,,,,,left,0,0.9338000203424599,,,,,,,,,,,1046,2019_Mar_13_0951,mf_amp_cond2,3.0.4,59.98566734567433,
help,&&&&&&&&&,left,care.virtue,godlaness,,,,,,,,,,,,,,,0,192,192,87,,,,,,,,,,,,,AMP,left,0.9838043981289957,1,,,,,,,,,,,,,,left,1,0.9838043981289957,,,,,,,,,,,1046,2019_Mar_13_0951,mf_amp_cond2,3.0.4,59.98566734567433,
terrorist,&&&,right,loyalty.vice,oam,,,,,,,,,,,,,,,0,193,193,17,,,,,,,,,,,,,AMP,left,1.9006945782748517,0,,,,,,,,,,,,,,left,0,1.9006945782748517,,,,,,,,,,,1046,2019_Mar_13_0951,mf_amp_cond2,3.0.4,59.98566734567433,
strength,&&&&&&&,left,sanctity.virtue,troubla,,,,,,,,,,,,,,,0,194,194,237,,,,,,,,,,,,,AMP,left,0.7337318357313052,1,,,,,,,,,,,,,,left,1,0.7337318357313052,,,,,,,,,,,1046,2019_Mar_13_0951,mf_amp_cond2,3.0.4,59.98566734567433,
ability,&&&&&&,left,authority.virtue,squets,,,,,,,,,,,,,,,0,195,195,182,,,,,,,,,,,,,AMP,left,1.300553205946926,1,,,,,,,,,,,,,,left,1,1.300553205946926,,,,,,,,,,,1046,2019_Mar_13_0951,mf_amp_cond2,3.0.4,59.98566734567433,
edancipation,&&&&&&,None,nonword,pumber,,,,,,,,,,,,,,,0,196,196,49,,,,,,,,,,,,,AMP,left,1.3839042054896709,0,,,,,,,,,,,,,,left,0,1.3839042054896709,,,,,,,,,,,1046,2019_Mar_13_0951,mf_amp_cond2,3.0.4,59.98566734567433,
failure,&&&&&&&&&,right,loyalty.vice,Phintoism,,,,,,,,,,,,,,,0,197,197,299,,,,,,,,,,,,,AMP,left,0.9504654736374505,0,,,,,,,,,,,,,,left,0,0.9504654736374505,,,,,,,,,,,1046,2019_Mar_13_0951,mf_amp_cond2,3.0.4,59.98566734567433,
officers,&&&&&&,right,authority.vice,laming,,,,,,,,,,,,,,,0,198,198,260,,,,,,,,,,,,,AMP,left,0.5003638542257249,0,,,,,,,,,,,,,,left,0,0.5003638542257249,,,,,,,,,,,1046,2019_Mar_13_0951,mf_amp_cond2,3.0.4,59.98566734567433,
violations,&&&&&&&&&&&,right,sanctity.vice,shoirmaster,,,,,,,,,,,,,,,0,199,199,230,,,,,,,,,,,,,AMP,right,1.6006234110391233,1,,,,,,,,,,,,,,right,1,1.6006234110391233,,,,,,,,,,,1046,2019_Mar_13_0951,mf_amp_cond2,3.0.4,59.98566734567433,
peaceful,&&&&&&&&&&&&,left,authority.virtue,rorroborated,,,,,,,,,,,,,,,0,200,200,320,,,,,,,,,,,,,AMP,right,0.5170261003368068,0,,,,,,,,,,,,,,right,0,0.5170261003368068,,,,,,,,,,,1046,2019_Mar_13_0951,mf_amp_cond2,3.0.4,59.98566734567433,
failure,&&&&&&&&&&,right,loyalty.vice,simplustic,,,,,,,,,,,,,,,0,201,201,107,,,,,,,,,,,,,AMP,left,2.5508432149363216,0,,,,,,,,,,,,,,left,0,2.5508432149363216,,,,,,,,,,,1046,2019_Mar_13_0951,mf_amp_cond2,3.0.4,59.98566734567433,
black,&&&&&&,right,loyalty.vice,pumber,,,,,,,,,,,,,,,0,202,202,170,,,,,,,,,,,,,AMP,left,0.7670813439472113,0,,,,,,,,,,,,,,left,0,0.7670813439472113,,,,,,,,,,,1046,2019_Mar_13_0951,mf_amp_cond2,3.0.4,59.98566734567433,
hate,&&&&&&&&&,right,fairness.vice,gillipede,,,,,,,,,,,,,,,0,203,203,15,,,,,,,,,,,,,AMP,left,2.150767140672542,0,,,,,,,,,,,,,,left,0,2.150767140672542,,,,,,,,,,,1046,2019_Mar_13_0951,mf_amp_cond2,3.0.4,59.98566734567433,
love,&&&&&&,left,loyalty.virtue,gazily,,,,,,,,,,,,,,,0,204,204,96,,,,,,,,,,,,,AMP,right,0.7670835889875889,0,,,,,,,,,,,,,,right,0,0.7670835889875889,,,,,,,,,,,1046,2019_Mar_13_0951,mf_amp_cond2,3.0.4,59.98566734567433,
good,&&&&&&&&&&&,left,care.virtue,shoirmaster,,,,,,,,,,,,,,,0,205,205,272,,,,,,,,,,,,,AMP,right,0.7670819853956345,0,,,,,,,,,,,,,,right,0,0.7670819853956345,,,,,,,,,,,1046,2019_Mar_13_0951,mf_amp_cond2,3.0.4,59.98566734567433,
scandal,&&&&&&&&&,right,sanctity.vice,brotesque,,,,,,,,,,,,,,,0,206,206,325,,,,,,,,,,,,,AMP,left,0.8838344493706245,0,,,,,,,,,,,,,,left,0,0.8838344493706245,,,,,,,,,,,1046,2019_Mar_13_0951,mf_amp_cond2,3.0.4,59.98566734567433,
illegal,&&&&,right,fairness.vice,spag,,,,,,,,,,,,,,,0,207,207,0,,,,,,,,,,,,,AMP,left,3.0509565886168275,0,,,,,,,,,,,,,,left,0,3.0509565886168275,,,,,,,,,,,1046,2019_Mar_13_0951,mf_amp_cond2,3.0.4,59.98566734567433,
peaceful,&&&&&&,left,authority.virtue,gazily,,,,,,,,,,,,,,,0,208,208,12,,,,,,,,,,,,,AMP,right,0.6337205144227482,0,,,,,,,,,,,,,,right,0,0.6337205144227482,,,,,,,,,,,1046,2019_Mar_13_0951,mf_amp_cond2,3.0.4,59.98566734567433,
officers,&&&&,right,authority.vice,spag,,,,,,,,,,,,,,,0,209,209,211,,,,,,,,,,,,,AMP,left,2.7842410231824033,0,,,,,,,,,,,,,,left,0,2.7842410231824033,,,,,,,,,,,1046,2019_Mar_13_0951,mf_amp_cond2,3.0.4,59.98566734567433,
protesters,&&&&&&&&&&,right,authority.vice,gationwide,,,,,,,,,,,,,,,0,210,210,155,,,,,,,,,,,,,AMP,right,0.6337298152211588,1,,,,,,,,,,,,,,right,1,0.6337298152211588,,,,,,,,,,,1046,2019_Mar_13_0951,mf_amp_cond2,3.0.4,59.98566734567433,
refuejing,&&&&&&&&,None,nonword,proached,,,,,,,,,,,,,,,0,211,211,61,,,,,,,,,,,,,AMP,left,1.0338437341270037,0,,,,,,,,,,,,,,left,0,1.0338437341270037,,,,,,,,,,,1046,2019_Mar_13_0951,mf_amp_cond2,3.0.4,59.98566734567433,
good,&&&&&&&&&&,left,care.virtue,ecgagement,,,,,,,,,,,,,,,0,212,212,128,,,,,,,,,,,,,AMP,right,0.950452324206708,0,,,,,,,,,,,,,,right,0,0.950452324206708,,,,,,,,,,,1046,2019_Mar_13_0951,mf_amp_cond2,3.0.4,59.98566734567433,
noped,&&&&&&&&&&&&&,None,nonword,esquisiteness,,,,,,,,,,,,,,,0,213,213,245,,,,,,,,,,,,,AMP,left,3.7345031618024223,0,,,,,,,,,,,,,,left,0,3.7345031618024223,,,,,,,,,,,1046,2019_Mar_13_0951,mf_amp_cond2,3.0.4,59.98566734567433,
metibolic,&&&&,None,nonword,ning,,,,,,,,,,,,,,,0,214,214,315,,,,,,,,,,,,,AMP,right,1.6172872607421596,0,,,,,,,,,,,,,,right,0,1.6172872607421596,,,,,,,,,,,1046,2019_Mar_13_0951,mf_amp_cond2,3.0.4,59.98566734567433,
commitment,&&&&&&,left,sanctity.virtue,tislay,,,,,,,,,,,,,,,0,215,215,37,,,,,,,,,,,,,AMP,right,0.5837042700732127,0,,,,,,,,,,,,,,right,0,0.5837042700732127,,,,,,,,,,,1046,2019_Mar_13_0951,mf_amp_cond2,3.0.4,59.98566734567433,
respect,&&&&&&&&,left,sanctity.virtue,ebbitter,,,,,,,,,,,,,,,0,216,216,257,,,,,,,,,,,,,AMP,right,0.3503167247399688,0,,,,,,,,,,,,,,right,0,0.3503167247399688,,,,,,,,,,,1046,2019_Mar_13_0951,mf_amp_cond2,3.0.4,59.98566734567433,
promised,&&&&&,left,loyalty.virtue,ablow,,,,,,,,,,,,,,,0,217,217,296,,,,,,,,,,,,,AMP,right,1.0671512283443008,0,,,,,,,,,,,,,,right,0,1.0671512283443008,,,,,,,,,,,1046,2019_Mar_13_0951,mf_amp_cond2,3.0.4,59.98566734567433,
peaceful,&&&&&&&,left,authority.virtue,Loorish,,,,,,,,,,,,,,,0,218,218,241,,,,,,,,,,,,,AMP,right,1.3172180177934933,0,,,,,,,,,,,,,,right,0,1.3172180177934933,,,,,,,,,,,1046,2019_Mar_13_0951,mf_amp_cond2,3.0.4,59.98566734567433,
unpleasant,&&&&&&&,None,control,brudent,,,,,,,,,,,,,,,0,219,219,57,,,,,,,,,,,,,AMP,left,2.417510287836194,0,,,,,,,,,,,,,,left,0,2.417510287836194,,,,,,,,,,,1046,2019_Mar_13_0951,mf_amp_cond2,3.0.4,59.98566734567433,
safe,&&&&&,left,care.virtue,dumid,,,,,,,,,,,,,,,0,220,220,208,,,,,,,,,,,,,AMP,right,0.5670449104218278,0,,,,,,,,,,,,,,right,0,0.5670449104218278,,,,,,,,,,,1046,2019_Mar_13_0951,mf_amp_cond2,3.0.4,59.98566734567433,
idexpressible,&&&&&,None,nonword,touls,,,,,,,,,,,,,,,0,221,221,120,,,,,,,,,,,,,AMP,left,1.0171879023837391,0,,,,,,,,,,,,,,left,0,1.0171879023837391,,,,,,,,,,,1046,2019_Mar_13_0951,mf_amp_cond2,3.0.4,59.98566734567433,
protesters,&&&&&&&&,right,authority.vice,divility,,,,,,,,,,,,,,,0,222,222,292,,,,,,,,,,,,,AMP,left,1.0838455462362617,0,,,,,,,,,,,,,,left,0,1.0838455462362617,,,,,,,,,,,1046,2019_Mar_13_0951,mf_amp_cond2,3.0.4,59.98566734567433,
trust,&&&&&&&&&&,left,authority.virtue,Oregoniuns,,,,,,,,,,,,,,,0,223,223,189,,,,,,,,,,,,,AMP,left,1.8840178998943884,1,,,,,,,,,,,,,,left,1,1.8840178998943884,,,,,,,,,,,1046,2019_Mar_13_0951,mf_amp_cond2,3.0.4,59.98566734567433,
refuejing,&&&&&&&&&&,None,nonword,focomotive,,,,,,,,,,,,,,,0,224,224,129,,,,,,,,,,,,,AMP,left,1.283871716761496,0,,,,,,,,,,,,,,left,0,1.283871716761496,,,,,,,,,,,1046,2019_Mar_13_0951,mf_amp_cond2,3.0.4,59.98566734567433,
conspiracy,&&&&&&&,right,sanctity.vice,reviked,,,,,,,,,,,,,,,0,225,225,303,,,,,,,,,,,,,AMP,right,3.7511262803454883,1,,,,,,,,,,,,,,right,1,3.7511262803454883,,,,,,,,,,,1046,2019_Mar_13_0951,mf_amp_cond2,3.0.4,59.98566734567433,
progress,&&&&&&&&&&&,left,authority.virtue,egpeditious,,,,,,,,,,,,,,,0,226,226,114,,,,,,,,,,,,,AMP,left,1.0671489833039232,1,,,,,,,,,,,,,,left,1,1.0671489833039232,,,,,,,,,,,1046,2019_Mar_13_0951,mf_amp_cond2,3.0.4,59.98566734567433,
harassment,&&&&&&&,right,sanctity.vice,chadows,,,,,,,,,,,,,,,0,227,227,216,,,,,,,,,,,,,AMP,right,1.517293258162681,1,,,,,,,,,,,,,,right,1,1.517293258162681,,,,,,,,,,,1046,2019_Mar_13_0951,mf_amp_cond2,3.0.4,59.98566734567433,
free,&&&&&&&&&&&,left,fairness.virtue,shoirmaster,,,,,,,,,,,,,,,0,228,228,228,,,,,,,,,,,,,AMP,left,2.950935966480756,1,,,,,,,,,,,,,,left,1,2.950935966480756,,,,,,,,,,,1046,2019_Mar_13_0951,mf_amp_cond2,3.0.4,59.98566734567433,
killed,&&&&&,right,care.vice,framo,,,,,,,,,,,,,,,0,229,229,231,,,,,,,,,,,,,AMP,left,2.8342479667335283,0,,,,,,,,,,,,,,left,0,2.8342479667335283,,,,,,,,,,,1046,2019_Mar_13_0951,mf_amp_cond2,3.0.4,59.98566734567433,
pleasant,&&&&&&,None,control,tislay,,,,,,,,,,,,,,,0,230,230,124,,,,,,,,,,,,,AMP,right,0.7337501166621223,0,,,,,,,,,,,,,,right,0,0.7337501166621223,,,,,,,,,,,1046,2019_Mar_13_0951,mf_amp_cond2,3.0.4,59.98566734567433,
black,&&&&&&,right,loyalty.vice,openet,,,,,,,,,,,,,,,0,231,231,305,,,,,,,,,,,,,AMP,right,1.0170176012907177,1,,,,,,,,,,,,,,right,1,1.0170176012907177,,,,,,,,,,,1046,2019_Mar_13_0951,mf_amp_cond2,3.0.4,59.98566734567433,
black,&&&&&&&&&&,right,loyalty.vice,ammessment,,,,,,,,,,,,,,,0,232,232,63,,,,,,,,,,,,,AMP,left,2.7508998536504805,0,,,,,,,,,,,,,,left,0,2.7508998536504805,,,,,,,,,,,1046,2019_Mar_13_0951,mf_amp_cond2,3.0.4,59.98566734567433,
help,&&&&&&,left,care.virtue,fegard,,,,,,,,,,,,,,,0,233,233,26,,,,,,,,,,,,,AMP,left,1.233811854821397,1,,,,,,,,,,,,,,left,1,1.233811854821397,,,,,,,,,,,1046,2019_Mar_13_0951,mf_amp_cond2,3.0.4,59.98566734567433,
blamed,&&&&&,right,loyalty.vice,tabin,,,,,,,,,,,,,,,0,234,234,85,,,,,,,,,,,,,AMP,left,1.4339400136086624,0,,,,,,,,,,,,,,left,0,1.4339400136086624,,,,,,,,,,,1046,2019_Mar_13_0951,mf_amp_cond2,3.0.4,59.98566734567433,
refused,&&&&&&&&&&&&,right,authority.vice,rorroborated,,,,,,,,,,,,,,,0,235,235,171,,,,,,,,,,,,,AMP,right,2.2841148207662627,1,,,,,,,,,,,,,,right,1,2.2841148207662627,,,,,,,,,,,1046,2019_Mar_13_0951,mf_amp_cond2,3.0.4,59.98566734567433,
crime,&&&&&&&&,right,fairness.vice,thadowed,,,,,,,,,,,,,,,0,236,236,127,,,,,,,,,,,,,AMP,right,1.033809096639743,1,,,,,,,,,,,,,,right,1,1.033809096639743,,,,,,,,,,,1046,2019_Mar_13_0951,mf_amp_cond2,3.0.4,59.98566734567433,
useful,&&&&&&&,left,authority.virtue,stindig,,,,,,,,,,,,,,,0,237,237,316,,,,,,,,,,,,,AMP,right,1.3672336207237095,0,,,,,,,,,,,,,,right,0,1.3672336207237095,,,,,,,,,,,1046,2019_Mar_13_0951,mf_amp_cond2,3.0.4,59.98566734567433,
commitment,&&&&&,left,sanctity.virtue,aubos,,,,,,,,,,,,,,,0,238,238,213,,,,,,,,,,,,,AMP,right,1.0172218984807841,0,,,,,,,,,,,,,,right,0,1.0172218984807841,,,,,,,,,,,1046,2019_Mar_13_0951,mf_amp_cond2,3.0.4,59.98566734567433,
victims,&&&&&&&,right,care.vice,reviked,,,,,,,,,,,,,,,0,239,239,234,,,,,,,,,,,,,AMP,left,0.8004613203229383,0,,,,,,,,,,,,,,left,0,0.8004613203229383,,,,,,,,,,,1046,2019_Mar_13_0951,mf_amp_cond2,3.0.4,59.98566734567433,
fraud,&&&&&&&&,right,fairness.vice,thabbily,,,,,,,,,,,,,,,0,240,240,24,,,,,,,,,,,,,AMP,left,1.7506541839102283,0,,,,,,,,,,,,,,left,0,1.7506541839102283,,,,,,,,,,,1046,2019_Mar_13_0951,mf_amp_cond2,3.0.4,59.98566734567433,
blamed,&&&&&&&&&&&,right,loyalty.vice,shoirmaster,,,,,,,,,,,,,,,0,241,241,30,,,,,,,,,,,,,AMP,left,1.1004972086520866,0,,,,,,,,,,,,,,left,0,1.1004972086520866,,,,,,,,,,,1046,2019_Mar_13_0951,mf_amp_cond2,3.0.4,59.98566734567433,
terrorists,&&&&&&&&&,right,fairness.vice,godlaness,,,,,,,,,,,,,,,0,242,242,55,,,,,,,,,,,,,AMP,left,0.8503768593072891,0,,,,,,,,,,,,,,left,0,0.8503768593072891,,,,,,,,,,,1046,2019_Mar_13_0951,mf_amp_cond2,3.0.4,59.98566734567433,
arrests,&&&&&,right,authority.vice,hasks,,,,,,,,,,,,,,,0,243,243,4,,,,,,,,,,,,,AMP,left,1.783987656206591,0,,,,,,,,,,,,,,left,0,1.783987656206591,,,,,,,,,,,1046,2019_Mar_13_0951,mf_amp_cond2,3.0.4,59.98566734567433,
charges,&&&&&&&&&&&,right,fairness.vice,shoirmaster,,,,,,,,,,,,,,,0,244,244,40,,,,,,,,,,,,,AMP,left,1.9340274091809988,0,,,,,,,,,,,,,,left,0,1.9340274091809988,,,,,,,,,,,1046,2019_Mar_13_0951,mf_amp_cond2,3.0.4,59.98566734567433,
