words,nonwords,mask,corr_ans,category,tweets,topic,AMP_pracloop.thisRepN,AMP_pracloop.thisTrialN,AMP_pracloop.thisN,AMP_pracloop.thisIndex,AMP_trials.thisRepN,AMP_trials.thisTrialN,AMP_trials.thisN,AMP_trials.thisIndex,LDT_pracloop.thisRepN,LDT_pracloop.thisTrialN,LDT_pracloop.thisN,LDT_pracloop.thisIndex,LDT_trials.thisRepN,LDT_trials.thisTrialN,LDT_trials.thisN,LDT_trials.thisIndex,tweet_loop.thisRepN,tweet_loop.thisTrialN,tweet_loop.thisN,tweet_loop.thisIndex,begin_key.keys,begin_key.rt,key_resp_AMP_instr1.keys,key_resp_AMP_instr1.rt,resp_AMP_ready1.keys,resp_AMP_ready1.rt,resp_AMP_prac.keys,resp_AMP_prac.rt,task,keypress,RT,resp_AMP_ready.keys,resp_AMP_ready.rt,resp_AMP.keys,resp_AMP.corr,resp_AMP.rt,corr,AMP_nonword_rating.response,AMP_nonword_rating.rt,AMP_word_rating.response,AMP_word_rating.rt,AMP_random_rating.response,AMP_random_rating.rt,key_resp_LDT_instr.keys,key_resp_LDT_instr.rt,resp_LDT_prac.keys,resp_LDT_prac.rt,resp_LDT_ready.keys,resp_LDT_ready.rt,resp_LDT.keys,resp_LDT.corr,resp_LDT.rt,LDT_rating.response,LDT_rating.rt,key_resp_LDT_instr_2.keys,key_resp_LDT_instr_2.rt,resp_tweets.keys,resp_tweets.rt,participant,date,expName,psychopyVersion,frameRate,
,,,,,,,,,,,,,,,,,,,,,,,,,,,right,1377.465583625628,,,,,,,,,,,,,,,,,,,,,,,,,,,,,,,,,,,,,1049,2019_Mar_13_1143,mf_amp_cond1,3.0.4,59.99505485772638,
,,,,,,,,,,,,,,,,,,,,,,,,,,,,,right,2.584243039251305,,,,,,,,,,,,,,,,,,,,,,,,,,,,,,,,,,,1049,2019_Mar_13_1143,mf_amp_cond1,3.0.4,59.99505485772638,
,,,,,,,,,,,,,,,,,,,,,,,,,,,,,,,right,2.48424044137937,,,,,,,,,,,,,,,,,,,,,,,,,,,,,,,,,1049,2019_Mar_13_1143,mf_amp_cond1,3.0.4,59.99505485772638,
scarf,bisebell,&&&&&&&&,,,,,0,0,0,3,,,,,,,,,,,,,,,,,,,,,,,left,3.934580071712844,AMP_prac,left,3.934580071712844,,,,,,,,,,,,,,,,,,,,,,,,,,,,1049,2019_Mar_13_1143,mf_amp_cond1,3.0.4,59.99505485772638,
banana,kacket,&&&&&&,,,,,0,1,1,1,,,,,,,,,,,,,,,,,,,,,,,left,1.2003993651014753,AMP_prac,left,1.2003993651014753,,,,,,,,,,,,,,,,,,,,,,,,,,,,1049,2019_Mar_13_1143,mf_amp_cond1,3.0.4,59.99505485772638,
car,cemtuper,&&&&&&&&,,,,,0,2,2,0,,,,,,,,,,,,,,,,,,,,,,,right,2.5175700436520856,AMP_prac,right,2.5175700436520856,,,,,,,,,,,,,,,,,,,,,,,,,,,,1049,2019_Mar_13_1143,mf_amp_cond1,3.0.4,59.99505485772638,
keyboard,senk,&&&&,,,,,0,3,3,2,,,,,,,,,,,,,,,,,,,,,,,right,1.067175248870626,AMP_prac,right,1.067175248870626,,,,,,,,,,,,,,,,,,,,,,,,,,,,1049,2019_Mar_13_1143,mf_amp_cond1,3.0.4,59.99505485772638,
,,,,,,,,,,,,,,,,,,,,,,,,,,,,,,,,,,,,,,right,1.5006111389375292,,,,,,,,,,,,,,,,,,,,,,,,,,1049,2019_Mar_13_1143,mf_amp_cond1,3.0.4,59.99505485772638,
hate,edancipation,&&&&&&&&&&&&,right,fairness.vice,,,,,,,0,0,0,0,,,,,,,,,,,,,,,,,,,,,AMP,left,1.1338662049965933,,,left,0,1.1338662049965933,0,,,,,,,,,,,,,,,,,,,,,,1049,2019_Mar_13_1143,mf_amp_cond1,3.0.4,59.99505485772638,
penalty,taxpayung,&&&&&&&&&,right,authority.vice,,,,,,,0,1,1,1,,,,,,,,,,,,,,,,,,,,,AMP,left,0.8004633815435227,,,left,0,0.8004633815435227,0,,,,,,,,,,,,,,,,,,,,,,1049,2019_Mar_13_1143,mf_amp_cond1,3.0.4,59.99505485772638,
opportunity,viscs,&&&&&,left,fairness.virtue,,,,,,,0,2,2,2,,,,,,,,,,,,,,,,,,,,,AMP,right,1.1338774303440005,,,right,0,1.1338774303440005,0,,,,,,,,,,,,,,,,,,,,,,1049,2019_Mar_13_1143,mf_amp_cond1,3.0.4,59.99505485772638,
restore,smapper,&&&&&&&,left,care.virtue,,,,,,,0,3,3,3,,,,,,,,,,,,,,,,,,,,,AMP,right,1.6174879704776686,,,right,0,1.6174879704776686,0,,,,,,,,,,,,,,,,,,,,,,1049,2019_Mar_13_1143,mf_amp_cond1,3.0.4,59.99505485772638,
growth,scock,&&&&&,left,care.virtue,,,,,,,0,4,4,4,,,,,,,,,,,,,,,,,,,,,AMP,left,1.0005154029058758,,,left,1,1.0005154029058758,1,,,,,,,,,,,,,,,,,,,,,,1049,2019_Mar_13_1143,mf_amp_cond1,3.0.4,59.99505485772638,
groups,asn,&&&,right,loyalty.vice,,,,,,,0,5,5,5,,,,,,,,,,,,,,,,,,,,,AMP,right,3.017696889844956,,,right,1,3.017696889844956,1,,,,,,,,,,,,,,,,,,,,,,1049,2019_Mar_13_1143,mf_amp_cond1,3.0.4,59.99505485772638,
fear,slending,&&&&&&&&,right,sanctity.vice,,,,,,,0,6,6,6,,,,,,,,,,,,,,,,,,,,,AMP,left,0.6170649359701201,,,left,0,0.6170649359701201,0,,,,,,,,,,,,,,,,,,,,,,1049,2019_Mar_13_1143,mf_amp_cond1,3.0.4,59.99505485772638,
love,strofe,&&&&&&,left,loyalty.virtue,,,,,,,0,7,7,7,,,,,,,,,,,,,,,,,,,,,AMP,right,0.7837709981831722,,,right,0,0.7837709981831722,0,,,,,,,,,,,,,,,,,,,,,,1049,2019_Mar_13_1143,mf_amp_cond1,3.0.4,59.99505485772638,
respect,disregord,&&&&&&&&&,left,sanctity.virtue,,,,,,,0,8,8,8,,,,,,,,,,,,,,,,,,,,,AMP,left,0.6837696832371876,,,left,1,0.6837696832371876,1,,,,,,,,,,,,,,,,,,,,,,1049,2019_Mar_13_1143,mf_amp_cond1,3.0.4,59.99505485772638,
improve,dumid,&&&&&,left,care.virtue,,,,,,,0,9,9,9,,,,,,,,,,,,,,,,,,,,,AMP,left,0.9505514682969078,,,left,1,0.9505514682969078,1,,,,,,,,,,,,,,,,,,,,,,1049,2019_Mar_13_1143,mf_amp_cond1,3.0.4,59.99505485772638,
free,focomotive,&&&&&&&&&&,left,fairness.virtue,,,,,,,0,10,10,10,,,,,,,,,,,,,,,,,,,,,AMP,left,0.9338077691500075,,,left,1,0.9338077691500075,1,,,,,,,,,,,,,,,,,,,,,,1049,2019_Mar_13_1143,mf_amp_cond1,3.0.4,59.99505485772638,
commitment,mightingale,&&&&&&&&&&&,left,sanctity.virtue,,,,,,,0,11,11,11,,,,,,,,,,,,,,,,,,,,,AMP,left,2.2675085448718164,,,left,1,2.2675085448718164,1,,,,,,,,,,,,,,,,,,,,,,1049,2019_Mar_13_1143,mf_amp_cond1,3.0.4,59.99505485772638,
army,precificity,&&&&&&&&&&&,right,loyalty.vice,,,,,,,0,12,12,12,,,,,,,,,,,,,,,,,,,,,AMP,right,3.434471506770933,,,right,1,3.434471506770933,1,,,,,,,,,,,,,,,,,,,,,,1049,2019_Mar_13_1143,mf_amp_cond1,3.0.4,59.99505485772638,
loyalty,rorroborated,&&&&&&&&&&&&,left,loyalty.virtue,,,,,,,0,13,13,13,,,,,,,,,,,,,,,,,,,,,AMP,right,1.150527478166623,,,right,0,1.150527478166623,0,,,,,,,,,,,,,,,,,,,,,,1049,2019_Mar_13_1143,mf_amp_cond1,3.0.4,59.99505485772638,
values,gazily,&&&&&&,left,sanctity.virtue,,,,,,,0,14,14,14,,,,,,,,,,,,,,,,,,,,,AMP,left,1.3172152591578197,,,left,1,1.3172152591578197,1,,,,,,,,,,,,,,,,,,,,,,1049,2019_Mar_13_1143,mf_amp_cond1,3.0.4,59.99505485772638,
gationwide,reprisols,&&&&&&&&&,None,nonword,,,,,,,0,15,15,15,,,,,,,,,,,,,,,,,,,,,AMP,left,0.7504471689462662,,,left,0,0.7504471689462662,0,,,,,,,,,,,,,,,,,,,,,,1049,2019_Mar_13_1143,mf_amp_cond1,3.0.4,59.99505485772638,
unpleasant,epigrach,&&&&&&&&,None,control,,,,,,,0,16,16,16,,,,,,,,,,,,,,,,,,,,,AMP,left,0.7171008890727535,,,left,0,0.7171008890727535,0,,,,,,,,,,,,,,,,,,,,,,1049,2019_Mar_13_1143,mf_amp_cond1,3.0.4,59.99505485772638,
safety,dormandi,&&&&&&&&,left,care.virtue,,,,,,,0,17,17,17,,,,,,,,,,,,,,,,,,,,,AMP,right,0.6670772998477332,,,right,0,0.6670772998477332,0,,,,,,,,,,,,,,,,,,,,,,1049,2019_Mar_13_1143,mf_amp_cond1,3.0.4,59.99505485772638,
progress,oam,&&&,left,authority.virtue,,,,,,,0,18,18,18,,,,,,,,,,,,,,,,,,,,,AMP,right,1.1672500095446594,,,right,0,1.1672500095446594,0,,,,,,,,,,,,,,,,,,,,,,1049,2019_Mar_13_1143,mf_amp_cond1,3.0.4,59.99505485772638,
sexual,Cunday,&&&&&&,right,sanctity.vice,,,,,,,0,19,19,19,,,,,,,,,,,,,,,,,,,,,AMP,right,1.5506485192745458,,,right,1,1.5506485192745458,1,,,,,,,,,,,,,,,,,,,,,,1049,2019_Mar_13_1143,mf_amp_cond1,3.0.4,59.99505485772638,
presentkess,antral,&&&&&&,None,nonword,,,,,,,0,20,20,20,,,,,,,,,,,,,,,,,,,,,AMP,left,0.6337563571578357,,,left,0,0.6337563571578357,0,,,,,,,,,,,,,,,,,,,,,,1049,2019_Mar_13_1143,mf_amp_cond1,3.0.4,59.99505485772638,
lies,baklara,&&&&&&&,right,fairness.vice,,,,,,,0,21,21,21,,,,,,,,,,,,,,,,,,,,,AMP,right,1.1338777510391083,,,right,1,1.1338777510391083,1,,,,,,,,,,,,,,,,,,,,,,1049,2019_Mar_13_1143,mf_amp_cond1,3.0.4,59.99505485772638,
help,sowntrodden,&&&&&&&&&&&,left,care.virtue,,,,,,,0,22,22,22,,,,,,,,,,,,,,,,,,,,,AMP,left,1.2339188357582316,,,left,1,1.2339188357582316,1,,,,,,,,,,,,,,,,,,,,,,1049,2019_Mar_13_1143,mf_amp_cond1,3.0.4,59.99505485772638,
prosecution,Lacedonia,&&&&&&&&&,right,authority.vice,,,,,,,0,23,23,23,,,,,,,,,,,,,,,,,,,,,AMP,left,0.7671434009971563,,,left,0,0.7671434009971563,0,,,,,,,,,,,,,,,,,,,,,,1049,2019_Mar_13_1143,mf_amp_cond1,3.0.4,59.99505485772638,
promised,imebreaker,&&&&&&&&&&,left,loyalty.virtue,,,,,,,0,24,24,24,,,,,,,,,,,,,,,,,,,,,AMP,left,0.9671518039540388,,,left,1,0.9671518039540388,1,,,,,,,,,,,,,,,,,,,,,,1049,2019_Mar_13_1143,mf_amp_cond1,3.0.4,59.99505485772638,
protesters,brudent,&&&&&&&,right,authority.vice,,,,,,,0,25,25,25,,,,,,,,,,,,,,,,,,,,,AMP,left,0.9671652743709274,,,left,0,0.9671652743709274,0,,,,,,,,,,,,,,,,,,,,,,1049,2019_Mar_13_1143,mf_amp_cond1,3.0.4,59.99505485772638,
elduringly,neutralust,&&&&&&&&&&,None,nonword,,,,,,,0,26,26,26,,,,,,,,,,,,,,,,,,,,,AMP,right,1.0005307976389304,,,right,0,1.0005307976389304,0,,,,,,,,,,,,,,,,,,,,,,1049,2019_Mar_13_1143,mf_amp_cond1,3.0.4,59.99505485772638,
fraud,shoirmaster,&&&&&&&&&&&,right,fairness.vice,,,,,,,0,27,27,27,,,,,,,,,,,,,,,,,,,,,AMP,left,0.9004502639581915,,,left,0,0.9004502639581915,0,,,,,,,,,,,,,,,,,,,,,,1049,2019_Mar_13_1143,mf_amp_cond1,3.0.4,59.99505485772638,
strong,brotesque,&&&&&&&&&,left,loyalty.virtue,,,,,,,0,28,28,28,,,,,,,,,,,,,,,,,,,,,AMP,right,2.450942270050291,,,right,0,2.450942270050291,0,,,,,,,,,,,,,,,,,,,,,,1049,2019_Mar_13_1143,mf_amp_cond1,3.0.4,59.99505485772638,
ensure,Oregoniuns,&&&&&&&&&&,left,fairness.virtue,,,,,,,0,29,29,29,,,,,,,,,,,,,,,,,,,,,AMP,left,1.9507599386561196,,,left,1,1.9507599386561196,1,,,,,,,,,,,,,,,,,,,,,,1049,2019_Mar_13_1143,mf_amp_cond1,3.0.4,59.99505485772638,
gun,discovars,&&&&&&&&&,right,authority.vice,,,,,,,0,30,30,30,,,,,,,,,,,,,,,,,,,,,AMP,left,0.6004068700422067,,,left,0,0.6004068700422067,0,,,,,,,,,,,,,,,,,,,,,,1049,2019_Mar_13_1143,mf_amp_cond1,3.0.4,59.99505485772638,
win,tomedians,&&&&&&&&&,left,fairness.virtue,,,,,,,0,31,31,31,,,,,,,,,,,,,,,,,,,,,AMP,right,2.6509256565768737,,,right,0,2.6509256565768737,0,,,,,,,,,,,,,,,,,,,,,,1049,2019_Mar_13_1143,mf_amp_cond1,3.0.4,59.99505485772638,
agreement,erdest,&&&&&&,left,fairness.virtue,,,,,,,0,32,32,32,,,,,,,,,,,,,,,,,,,,,AMP,right,0.683756212820299,,,right,0,0.683756212820299,0,,,,,,,,,,,,,,,,,,,,,,1049,2019_Mar_13_1143,mf_amp_cond1,3.0.4,59.99505485772638,
terrorist,wump,&&&&,right,loyalty.vice,,,,,,,0,33,33,33,,,,,,,,,,,,,,,,,,,,,AMP,left,0.6504201961215585,,,left,0,0.6504201961215585,0,,,,,,,,,,,,,,,,,,,,,,1049,2019_Mar_13_1143,mf_amp_cond1,3.0.4,59.99505485772638,
rejected,gowlands,&&&&&&&&,right,authority.vice,,,,,,,0,34,34,34,,,,,,,,,,,,,,,,,,,,,AMP,right,1.1672176164574921,,,right,1,1.1672176164574921,1,,,,,,,,,,,,,,,,,,,,,,1049,2019_Mar_13_1143,mf_amp_cond1,3.0.4,59.99505485772638,
support,seachwear,&&&&&&&&&,left,loyalty.virtue,,,,,,,0,35,35,35,,,,,,,,,,,,,,,,,,,,,AMP,right,2.117443550232565,,,right,0,2.117443550232565,0,,,,,,,,,,,,,,,,,,,,,,1049,2019_Mar_13_1143,mf_amp_cond1,3.0.4,59.99505485772638,
civilians,fangsters,&&&&&&&&&,right,care.vice,,,,,,,0,36,36,36,,,,,,,,,,,,,,,,,,,,,AMP,left,0.6837514019571245,,,left,0,0.6837514019571245,0,,,,,,,,,,,,,,,,,,,,,,1049,2019_Mar_13_1143,mf_amp_cond1,3.0.4,59.99505485772638,
troops,saned,&&&&&,right,loyalty.vice,,,,,,,0,37,37,37,,,,,,,,,,,,,,,,,,,,,AMP,right,1.617335947463289,,,right,1,1.617335947463289,1,,,,,,,,,,,,,,,,,,,,,,1049,2019_Mar_13_1143,mf_amp_cond1,3.0.4,59.99505485772638,
powerful,Loorish,&&&&&&&,left,authority.virtue,,,,,,,0,38,38,38,,,,,,,,,,,,,,,,,,,,,AMP,right,2.6009155377396382,,,right,0,2.6009155377396382,0,,,,,,,,,,,,,,,,,,,,,,1049,2019_Mar_13_1143,mf_amp_cond1,3.0.4,59.99505485772638,
drug,touls,&&&&&,right,sanctity.vice,,,,,,,0,39,39,39,,,,,,,,,,,,,,,,,,,,,AMP,left,0.6504381566192023,,,left,0,0.6504381566192023,0,,,,,,,,,,,,,,,,,,,,,,1049,2019_Mar_13_1143,mf_amp_cond1,3.0.4,59.99505485772638,
sharing,ebbitter,&&&&&&&&,left,loyalty.virtue,,,,,,,0,40,40,40,,,,,,,,,,,,,,,,,,,,,AMP,left,0.7004665567073971,,,left,1,0.7004665567073971,1,,,,,,,,,,,,,,,,,,,,,,1049,2019_Mar_13_1143,mf_amp_cond1,3.0.4,59.99505485772638,
betrayal,sfumatoy,&&&&&&&&,right,loyalty.vice,,,,,,,0,41,41,41,,,,,,,,,,,,,,,,,,,,,AMP,left,0.6170649359410163,,,left,0,0.6170649359410163,0,,,,,,,,,,,,,,,,,,,,,,1049,2019_Mar_13_1143,mf_amp_cond1,3.0.4,59.99505485772638,
protect,squets,&&&&&&,left,fairness.virtue,,,,,,,0,42,42,42,,,,,,,,,,,,,,,,,,,,,AMP,right,0.5837459175963886,,,right,0,0.5837459175963886,0,,,,,,,,,,,,,,,,,,,,,,1049,2019_Mar_13_1143,mf_amp_cond1,3.0.4,59.99505485772638,
faith,mecan,&&&&&,left,sanctity.virtue,,,,,,,0,43,43,43,,,,,,,,,,,,,,,,,,,,,AMP,right,1.0671579297923017,,,right,0,1.0671579297923017,0,,,,,,,,,,,,,,,,,,,,,,1049,2019_Mar_13_1143,mf_amp_cond1,3.0.4,59.99505485772638,
trust,fegard,&&&&&&,left,authority.virtue,,,,,,,0,44,44,44,,,,,,,,,,,,,,,,,,,,,AMP,right,0.8504956302931532,,,right,0,0.8504956302931532,0,,,,,,,,,,,,,,,,,,,,,,1049,2019_Mar_13_1143,mf_amp_cond1,3.0.4,59.99505485772638,
charges,emassion,&&&&&&&&,right,fairness.vice,,,,,,,0,45,45,45,,,,,,,,,,,,,,,,,,,,,AMP,right,0.6337990133906715,,,right,1,0.6337990133906715,1,,,,,,,,,,,,,,,,,,,,,,1049,2019_Mar_13_1143,mf_amp_cond1,3.0.4,59.99505485772638,
metibolic,thadowed,&&&&&&&&,None,nonword,,,,,,,0,46,46,46,,,,,,,,,,,,,,,,,,,,,AMP,left,0.5837520113273058,,,left,0,0.5837520113273058,0,,,,,,,,,,,,,,,,,,,,,,1049,2019_Mar_13_1143,mf_amp_cond1,3.0.4,59.99505485772638,
abuse,clattening,&&&&&&&&&&,right,sanctity.vice,,,,,,,0,47,47,47,,,,,,,,,,,,,,,,,,,,,AMP,left,0.43370305286953226,,,left,0,0.43370305286953226,0,,,,,,,,,,,,,,,,,,,,,,1049,2019_Mar_13_1143,mf_amp_cond1,3.0.4,59.99505485772638,
pleasant,scalbel,&&&&&&&,None,control,,,,,,,0,48,48,48,,,,,,,,,,,,,,,,,,,,,AMP,left,0.600400455557974,,,left,0,0.600400455557974,0,,,,,,,,,,,,,,,,,,,,,,1049,2019_Mar_13_1143,mf_amp_cond1,3.0.4,59.99505485772638,
actively,bluently,&&&&&&&&,left,authority.virtue,,,,,,,0,49,49,49,,,,,,,,,,,,,,,,,,,,,AMP,right,1.5006384004373103,,,right,0,1.5006384004373103,0,,,,,,,,,,,,,,,,,,,,,,1049,2019_Mar_13_1143,mf_amp_cond1,3.0.4,59.99505485772638,
gondensed,gournful,&&&&&&&&,None,nonword,,,,,,,0,50,50,50,,,,,,,,,,,,,,,,,,,,,AMP,left,1.1005465451744385,,,left,0,1.1005465451744385,0,,,,,,,,,,,,,,,,,,,,,,1049,2019_Mar_13_1143,mf_amp_cond1,3.0.4,59.99505485772638,
gedious,nomparisons,&&&&&&&&&&&,None,nonword,,,,,,,0,51,51,51,,,,,,,,,,,,,,,,,,,,,AMP,left,1.4506202635238878,,,left,0,1.4506202635238878,0,,,,,,,,,,,,,,,,,,,,,,1049,2019_Mar_13_1143,mf_amp_cond1,3.0.4,59.99505485772638,
died,halaise,&&&&&&&,right,care.vice,,,,,,,0,52,52,52,,,,,,,,,,,,,,,,,,,,,AMP,left,1.1505650028411765,,,left,0,1.1505650028411765,0,,,,,,,,,,,,,,,,,,,,,,1049,2019_Mar_13_1143,mf_amp_cond1,3.0.4,59.99505485772638,
failure,photocalkodes,&&&&&&&&&&&&&,right,loyalty.vice,,,,,,,0,53,53,53,,,,,,,,,,,,,,,,,,,,,AMP,left,0.6004068700131029,,,left,0,0.6004068700131029,0,,,,,,,,,,,,,,,,,,,,,,1049,2019_Mar_13_1143,mf_amp_cond1,3.0.4,59.99505485772638,
energy,nonobservalt,&&&&&&&&&&&&,left,sanctity.virtue,,,,,,,0,54,54,54,,,,,,,,,,,,,,,,,,,,,AMP,left,1.0338738702994306,,,left,1,1.0338738702994306,1,,,,,,,,,,,,,,,,,,,,,,1049,2019_Mar_13_1143,mf_amp_cond1,3.0.4,59.99505485772638,
encourage,pullness,&&&&&&&&,left,authority.virtue,,,,,,,0,55,55,55,,,,,,,,,,,,,,,,,,,,,AMP,right,0.38368202943820506,,,right,0,0.38368202943820506,0,,,,,,,,,,,,,,,,,,,,,,1049,2019_Mar_13_1143,mf_amp_cond1,3.0.4,59.99505485772638,
celebrated,coom,&&&&,left,authority.virtue,,,,,,,0,56,56,56,,,,,,,,,,,,,,,,,,,,,AMP,right,0.9004839399131015,,,right,0,0.9004839399131015,0,,,,,,,,,,,,,,,,,,,,,,1049,2019_Mar_13_1143,mf_amp_cond1,3.0.4,59.99505485772638,
corruption,supervuned,&&&&&&&&&&,right,sanctity.vice,,,,,,,0,57,57,57,,,,,,,,,,,,,,,,,,,,,AMP,left,0.3836983863438945,,,left,0,0.3836983863438945,0,,,,,,,,,,,,,,,,,,,,,,1049,2019_Mar_13_1143,mf_amp_cond1,3.0.4,59.99505485772638,
vurtain,lorthwhile,&&&&&&&&&&,None,nonword,,,,,,,0,58,58,58,,,,,,,,,,,,,,,,,,,,,AMP,left,1.2505676006840076,,,left,0,1.2505676006840076,0,,,,,,,,,,,,,,,,,,,,,,1049,2019_Mar_13_1143,mf_amp_cond1,3.0.4,59.99505485772638,
death,lursuer,&&&&&&&,right,care.vice,,,,,,,0,59,59,59,,,,,,,,,,,,,,,,,,,,,AMP,left,0.33366774118621834,,,left,0,0.33366774118621834,0,,,,,,,,,,,,,,,,,,,,,,1049,2019_Mar_13_1143,mf_amp_cond1,3.0.4,59.99505485772638,
neneficence,tracious,&&&&&&&&,None,nonword,,,,,,,0,60,60,60,,,,,,,,,,,,,,,,,,,,,AMP,left,1.1838830590131693,,,left,0,1.1838830590131693,0,,,,,,,,,,,,,,,,,,,,,,1049,2019_Mar_13_1143,mf_amp_cond1,3.0.4,59.99505485772638,
officers,alar,&&&&,right,authority.vice,,,,,,,0,61,61,61,,,,,,,,,,,,,,,,,,,,,AMP,right,1.2005497844947968,,,right,1,1.2005497844947968,1,,,,,,,,,,,,,,,,,,,,,,1049,2019_Mar_13_1143,mf_amp_cond1,3.0.4,59.99505485772638,
openet,ning,&&&&,None,nonword,,,,,,,0,62,62,62,,,,,,,,,,,,,,,,,,,,,AMP,left,1.0005118749395479,,,left,0,1.0005118749395479,0,,,,,,,,,,,,,,,,,,,,,,1049,2019_Mar_13_1143,mf_amp_cond1,3.0.4,59.99505485772638,
strength,leact,&&&&&,left,sanctity.virtue,,,,,,,0,63,63,63,,,,,,,,,,,,,,,,,,,,,AMP,right,0.8004499111557379,,,right,0,0.8004499111557379,0,,,,,,,,,,,,,,,,,,,,,,1049,2019_Mar_13_1143,mf_amp_cond1,3.0.4,59.99505485772638,
dignity,gaultless,&&&&&&&&&,left,sanctity.virtue,,,,,,,0,64,64,64,,,,,,,,,,,,,,,,,,,,,AMP,right,2.717637459776597,,,right,0,2.717637459776597,0,,,,,,,,,,,,,,,,,,,,,,1049,2019_Mar_13_1143,mf_amp_cond1,3.0.4,59.99505485772638,
injured,esquisiteness,&&&&&&&&&&&&&,right,care.vice,,,,,,,0,65,65,65,,,,,,,,,,,,,,,,,,,,,AMP,left,1.3172508594871033,,,left,0,1.3172508594871033,0,,,,,,,,,,,,,,,,,,,,,,1049,2019_Mar_13_1143,mf_amp_cond1,3.0.4,59.99505485772638,
good,nuckheap,&&&&&&&&,left,care.virtue,,,,,,,0,66,66,66,,,,,,,,,,,,,,,,,,,,,AMP,right,1.1672147299395874,,,right,0,1.1672147299395874,0,,,,,,,,,,,,,,,,,,,,,,1049,2019_Mar_13_1143,mf_amp_cond1,3.0.4,59.99505485772638,
critics,totalestic,&&&&&&&&&&,right,loyalty.vice,,,,,,,0,67,67,67,,,,,,,,,,,,,,,,,,,,,AMP,right,1.4172502500878181,,,right,1,1.4172502500878181,1,,,,,,,,,,,,,,,,,,,,,,1049,2019_Mar_13_1143,mf_amp_cond1,3.0.4,59.99505485772638,
interests,chadows,&&&&&&&,left,fairness.virtue,,,,,,,0,68,68,68,,,,,,,,,,,,,,,,,,,,,AMP,right,1.0838477473589592,,,right,0,1.0838477473589592,0,,,,,,,,,,,,,,,,,,,,,,1049,2019_Mar_13_1143,mf_amp_cond1,3.0.4,59.99505485772638,
care,glacenta,&&&&&&&&,left,care.virtue,,,,,,,0,69,69,69,,,,,,,,,,,,,,,,,,,,,AMP,right,1.200554916053079,,,right,0,1.200554916053079,0,,,,,,,,,,,,,,,,,,,,,,1049,2019_Mar_13_1143,mf_amp_cond1,3.0.4,59.99505485772638,
threatened,laming,&&&&&&,right,fairness.vice,,,,,,,0,70,70,70,,,,,,,,,,,,,,,,,,,,,AMP,left,2.0507756861916278,,,left,0,2.0507756861916278,0,,,,,,,,,,,,,,,,,,,,,,1049,2019_Mar_13_1143,mf_amp_cond1,3.0.4,59.99505485772638,
refused,pumber,&&&&&&,right,authority.vice,,,,,,,0,71,71,71,,,,,,,,,,,,,,,,,,,,,AMP,right,0.5837308435875457,,,right,1,0.5837308435875457,1,,,,,,,,,,,,,,,,,,,,,,1049,2019_Mar_13_1143,mf_amp_cond1,3.0.4,59.99505485772638,
conspiracy,blunderints,&&&&&&&&&&&,right,sanctity.vice,,,,,,,0,72,72,72,,,,,,,,,,,,,,,,,,,,,AMP,left,1.4506311681179795,,,left,0,1.4506311681179795,0,,,,,,,,,,,,,,,,,,,,,,1049,2019_Mar_13_1143,mf_amp_cond1,3.0.4,59.99505485772638,
peaceful,atson,&&&&&,left,authority.virtue,,,,,,,0,73,73,73,,,,,,,,,,,,,,,,,,,,,AMP,right,0.5504147117317189,,,right,0,0.5504147117317189,0,,,,,,,,,,,,,,,,,,,,,,1049,2019_Mar_13_1143,mf_amp_cond1,3.0.4,59.99505485772638,
shot,proached,&&&&&&&&,right,care.vice,,,,,,,0,74,74,74,,,,,,,,,,,,,,,,,,,,,AMP,left,0.4670429182879161,,,left,0,0.4670429182879161,0,,,,,,,,,,,,,,,,,,,,,,1049,2019_Mar_13_1143,mf_amp_cond1,3.0.4,59.99505485772638,
accused,ilportation,&&&&&&&&&&&,right,fairness.vice,,,,,,,0,75,75,75,,,,,,,,,,,,,,,,,,,,,AMP,left,1.4339535380713642,,,left,0,1.4339535380713642,0,,,,,,,,,,,,,,,,,,,,,,1049,2019_Mar_13_1143,mf_amp_cond1,3.0.4,59.99505485772638,
suicide,infet,&&&&&,right,care.vice,,,,,,,0,76,76,76,,,,,,,,,,,,,,,,,,,,,AMP,left,1.0505332190950867,,,left,0,1.0505332190950867,0,,,,,,,,,,,,,,,,,,,,,,1049,2019_Mar_13_1143,mf_amp_cond1,3.0.4,59.99505485772638,
friends,frocessing,&&&&&&&&&&,left,loyalty.virtue,,,,,,,0,77,77,77,,,,,,,,,,,,,,,,,,,,,AMP,right,0.7004255040665157,,,right,0,0.7004255040665157,0,,,,,,,,,,,,,,,,,,,,,,1049,2019_Mar_13_1143,mf_amp_cond1,3.0.4,59.99505485772638,
killed,reelectiob,&&&&&&&&&&,right,care.vice,,,,,,,0,78,78,78,,,,,,,,,,,,,,,,,,,,,AMP,left,0.3336802494013682,,,left,0,0.3336802494013682,0,,,,,,,,,,,,,,,,,,,,,,1049,2019_Mar_13_1143,mf_amp_cond1,3.0.4,59.99505485772638,
serial,troubla,&&&&&&&,right,sanctity.vice,,,,,,,0,79,79,79,,,,,,,,,,,,,,,,,,,,,AMP,left,1.0838586519530509,,,left,0,1.0838586519530509,0,,,,,,,,,,,,,,,,,,,,,,1049,2019_Mar_13_1143,mf_amp_cond1,3.0.4,59.99505485772638,
honstables,fonderland,&&&&&&&&&&,None,nonword,,,,,,,0,80,80,80,,,,,,,,,,,,,,,,,,,,,AMP,left,1.4839495450432878,,,left,0,1.4839495450432878,0,,,,,,,,,,,,,,,,,,,,,,1049,2019_Mar_13_1143,mf_amp_cond1,3.0.4,59.99505485772638,
prison,tislay,&&&&&&,right,fairness.vice,,,,,,,0,81,81,81,,,,,,,,,,,,,,,,,,,,,AMP,left,0.33367094842833467,,,left,0,0.33367094842833467,0,,,,,,,,,,,,,,,,,,,,,,1049,2019_Mar_13_1143,mf_amp_cond1,3.0.4,59.99505485772638,
shot,discovars,&&&&&&&&&,right,care.vice,,,,,,,0,82,82,82,,,,,,,,,,,,,,,,,,,,,AMP,left,0.38367401136201806,,,left,0,0.38367401136201806,0,,,,,,,,,,,,,,,,,,,,,,1049,2019_Mar_13_1143,mf_amp_cond1,3.0.4,59.99505485772638,
ensure,mightingale,&&&&&&&&&&&,left,fairness.virtue,,,,,,,0,83,83,83,,,,,,,,,,,,,,,,,,,,,AMP,right,0.7337733875901904,,,right,0,0.7337733875901904,0,,,,,,,,,,,,,,,,,,,,,,1049,2019_Mar_13_1143,mf_amp_cond1,3.0.4,59.99505485772638,
army,strofe,&&&&&&,right,loyalty.vice,,,,,,,0,84,84,84,,,,,,,,,,,,,,,,,,,,,AMP,left,1.0171792418695986,,,left,0,1.0171792418695986,0,,,,,,,,,,,,,,,,,,,,,,1049,2019_Mar_13_1143,mf_amp_cond1,3.0.4,59.99505485772638,
sexual,tomedians,&&&&&&&&&,right,sanctity.vice,,,,,,,0,85,85,85,,,,,,,,,,,,,,,,,,,,,AMP,left,0.6170582007616758,,,left,0,0.6170582007616758,0,,,,,,,,,,,,,,,,,,,,,,1049,2019_Mar_13_1143,mf_amp_cond1,3.0.4,59.99505485772638,
drug,viscs,&&&&&,right,sanctity.vice,,,,,,,0,86,86,86,,,,,,,,,,,,,,,,,,,,,AMP,right,1.3505942528136075,,,right,1,1.3505942528136075,1,,,,,,,,,,,,,,,,,,,,,,1049,2019_Mar_13_1143,mf_amp_cond1,3.0.4,59.99505485772638,
faith,proached,&&&&&&&&,left,sanctity.virtue,,,,,,,0,87,87,87,,,,,,,,,,,,,,,,,,,,,AMP,right,1.2005610098131,,,right,0,1.2005610098131,0,,,,,,,,,,,,,,,,,,,,,,1049,2019_Mar_13_1143,mf_amp_cond1,3.0.4,59.99505485772638,
killed,chadows,&&&&&&&,right,care.vice,,,,,,,0,88,88,88,,,,,,,,,,,,,,,,,,,,,AMP,left,0.23362569432356395,,,left,0,0.23362569432356395,0,,,,,,,,,,,,,,,,,,,,,,1049,2019_Mar_13_1143,mf_amp_cond1,3.0.4,59.99505485772638,
vurtain,troubla,&&&&&&&,None,nonword,,,,,,,0,89,89,89,,,,,,,,,,,,,,,,,,,,,AMP,left,0.867118095891783,,,left,0,0.867118095891783,0,,,,,,,,,,,,,,,,,,,,,,1049,2019_Mar_13_1143,mf_amp_cond1,3.0.4,59.99505485772638,
friends,Cunday,&&&&&&,left,loyalty.virtue,,,,,,,0,90,90,90,,,,,,,,,,,,,,,,,,,,,AMP,right,0.4170103487849701,,,right,0,0.4170103487849701,0,,,,,,,,,,,,,,,,,,,,,,1049,2019_Mar_13_1143,mf_amp_cond1,3.0.4,59.99505485772638,
death,disregord,&&&&&&&&&,right,care.vice,,,,,,,0,91,91,91,,,,,,,,,,,,,,,,,,,,,AMP,left,0.4836980976979248,,,left,0,0.4836980976979248,0,,,,,,,,,,,,,,,,,,,,,,1049,2019_Mar_13_1143,mf_amp_cond1,3.0.4,59.99505485772638,
fear,erdest,&&&&&&,right,sanctity.vice,,,,,,,0,92,92,92,,,,,,,,,,,,,,,,,,,,,AMP,left,0.2836361338850111,,,left,0,0.2836361338850111,0,,,,,,,,,,,,,,,,,,,,,,1049,2019_Mar_13_1143,mf_amp_cond1,3.0.4,59.99505485772638,
restore,oam,&&&,left,care.virtue,,,,,,,0,93,93,93,,,,,,,,,,,,,,,,,,,,,AMP,right,1.0171474902308546,,,right,0,1.0171474902308546,0,,,,,,,,,,,,,,,,,,,,,,1049,2019_Mar_13_1143,mf_amp_cond1,3.0.4,59.99505485772638,
protect,touls,&&&&&,left,fairness.virtue,,,,,,,0,94,94,94,,,,,,,,,,,,,,,,,,,,,AMP,left,1.450643997057341,,,left,1,1.450643997057341,1,,,,,,,,,,,,,,,,,,,,,,1049,2019_Mar_13_1143,mf_amp_cond1,3.0.4,59.99505485772638,
strength,alar,&&&&,left,sanctity.virtue,,,,,,,0,95,95,95,,,,,,,,,,,,,,,,,,,,,AMP,right,0.7004408988286741,,,right,0,0.7004408988286741,0,,,,,,,,,,,,,,,,,,,,,,1049,2019_Mar_13_1143,mf_amp_cond1,3.0.4,59.99505485772638,
peaceful,sfumatoy,&&&&&&&&,left,authority.virtue,,,,,,,0,96,96,96,,,,,,,,,,,,,,,,,,,,,AMP,right,0.4670467669493519,,,right,0,0.4670467669493519,0,,,,,,,,,,,,,,,,,,,,,,1049,2019_Mar_13_1143,mf_amp_cond1,3.0.4,59.99505485772638,
interests,precificity,&&&&&&&&&&&,left,fairness.virtue,,,,,,,0,97,97,97,,,,,,,,,,,,,,,,,,,,,AMP,right,1.2338902913325,,,right,0,1.2338902913325,0,,,,,,,,,,,,,,,,,,,,,,1049,2019_Mar_13_1143,mf_amp_cond1,3.0.4,59.99505485772638,
serial,Oregoniuns,&&&&&&&&&&,right,sanctity.vice,,,,,,,0,98,98,98,,,,,,,,,,,,,,,,,,,,,AMP,left,0.5670609108929057,,,left,0,0.5670609108929057,0,,,,,,,,,,,,,,,,,,,,,,1049,2019_Mar_13_1143,mf_amp_cond1,3.0.4,59.99505485772638,
protesters,fangsters,&&&&&&&&&,right,authority.vice,,,,,,,0,99,99,99,,,,,,,,,,,,,,,,,,,,,AMP,left,0.8671309248602483,,,left,0,0.8671309248602483,0,,,,,,,,,,,,,,,,,,,,,,1049,2019_Mar_13_1143,mf_amp_cond1,3.0.4,59.99505485772638,
values,asn,&&&,left,sanctity.virtue,,,,,,,0,100,100,100,,,,,,,,,,,,,,,,,,,,,AMP,left,1.7506752034823876,,,left,1,1.7506752034823876,1,,,,,,,,,,,,,,,,,,,,,,1049,2019_Mar_13_1143,mf_amp_cond1,3.0.4,59.99505485772638,
love,edancipation,&&&&&&&&&&&&,left,loyalty.virtue,,,,,,,0,101,101,101,,,,,,,,,,,,,,,,,,,,,AMP,right,0.43366873543709517,,,right,0,0.43366873543709517,0,,,,,,,,,,,,,,,,,,,,,,1049,2019_Mar_13_1143,mf_amp_cond1,3.0.4,59.99505485772638,
safety,photocalkodes,&&&&&&&&&&&&&,left,care.virtue,,,,,,,0,102,102,102,,,,,,,,,,,,,,,,,,,,,AMP,right,1.267236250481801,,,right,0,1.267236250481801,0,,,,,,,,,,,,,,,,,,,,,,1049,2019_Mar_13_1143,mf_amp_cond1,3.0.4,59.99505485772638,
betrayal,neutralust,&&&&&&&&&&,right,loyalty.vice,,,,,,,0,103,103,103,,,,,,,,,,,,,,,,,,,,,AMP,left,0.8004444588150363,,,left,0,0.8004444588150363,0,,,,,,,,,,,,,,,,,,,,,,1049,2019_Mar_13_1143,mf_amp_cond1,3.0.4,59.99505485772638,
help,nomparisons,&&&&&&&&&&&,left,care.virtue,,,,,,,0,104,104,104,,,,,,,,,,,,,,,,,,,,,AMP,right,1.0505383506824728,,,right,0,1.0505383506824728,0,,,,,,,,,,,,,,,,,,,,,,1049,2019_Mar_13_1143,mf_amp_cond1,3.0.4,59.99505485772638,
actively,lursuer,&&&&&&&,left,authority.virtue,,,,,,,0,105,105,105,,,,,,,,,,,,,,,,,,,,,AMP,left,0.9671450687455945,,,left,1,0.9671450687455945,1,,,,,,,,,,,,,,,,,,,,,,1049,2019_Mar_13_1143,mf_amp_cond1,3.0.4,59.99505485772638,
encourage,laming,&&&&&&,left,authority.virtue,,,,,,,0,106,106,106,,,,,,,,,,,,,,,,,,,,,AMP,left,1.917425204825122,,,left,1,1.917425204825122,1,,,,,,,,,,,,,,,,,,,,,,1049,2019_Mar_13_1143,mf_amp_cond1,3.0.4,59.99505485772638,
pleasant,brotesque,&&&&&&&&&,None,control,,,,,,,0,107,107,107,,,,,,,,,,,,,,,,,,,,,AMP,left,0.7337874993972946,,,left,0,0.7337874993972946,0,,,,,,,,,,,,,,,,,,,,,,1049,2019_Mar_13_1143,mf_amp_cond1,3.0.4,59.99505485772638,
failure,infet,&&&&&,right,loyalty.vice,,,,,,,0,108,108,108,,,,,,,,,,,,,,,,,,,,,AMP,left,0.9171432887378614,,,left,0,0.9171432887378614,0,,,,,,,,,,,,,,,,,,,,,,1049,2019_Mar_13_1143,mf_amp_cond1,3.0.4,59.99505485772638,
powerful,sowntrodden,&&&&&&&&&&&,left,authority.virtue,,,,,,,0,109,109,109,,,,,,,,,,,,,,,,,,,,,AMP,left,1.0005208552174736,,,left,1,1.0005208552174736,1,,,,,,,,,,,,,,,,,,,,,,1049,2019_Mar_13_1143,mf_amp_cond1,3.0.4,59.99505485772638,
commitment,halaise,&&&&&&&,left,sanctity.virtue,,,,,,,0,110,110,110,,,,,,,,,,,,,,,,,,,,,AMP,right,3.2844254348019604,,,right,0,3.2844254348019604,0,,,,,,,,,,,,,,,,,,,,,,1049,2019_Mar_13_1143,mf_amp_cond1,3.0.4,59.99505485772638,
rejected,squets,&&&&&&,right,authority.vice,,,,,,,0,111,111,111,,,,,,,,,,,,,,,,,,,,,AMP,left,0.8837998953822535,,,left,0,0.8837998953822535,0,,,,,,,,,,,,,,,,,,,,,,1049,2019_Mar_13_1143,mf_amp_cond1,3.0.4,59.99505485772638,
respect,totalestic,&&&&&&&&&&,left,sanctity.virtue,,,,,,,0,112,112,112,,,,,,,,,,,,,,,,,,,,,AMP,right,0.4170119524351321,,,right,0,0.4170119524351321,0,,,,,,,,,,,,,,,,,,,,,,1049,2019_Mar_13_1143,mf_amp_cond1,3.0.4,59.99505485772638,
gun,frocessing,&&&&&&&&&&,right,authority.vice,,,,,,,0,113,113,113,,,,,,,,,,,,,,,,,,,,,AMP,left,0.38364354262012057,,,left,0,0.38364354262012057,0,,,,,,,,,,,,,,,,,,,,,,1049,2019_Mar_13_1143,mf_amp_cond1,3.0.4,59.99505485772638,
progress,baklara,&&&&&&&,left,authority.virtue,,,,,,,0,114,114,114,,,,,,,,,,,,,,,,,,,,,AMP,right,0.5003683511167765,,,right,0,0.5003683511167765,0,,,,,,,,,,,,,,,,,,,,,,1049,2019_Mar_13_1143,mf_amp_cond1,3.0.4,59.99505485772638,
energy,ilportation,&&&&&&&&&&&,left,sanctity.virtue,,,,,,,0,115,115,115,,,,,,,,,,,,,,,,,,,,,AMP,right,2.2174846349225845,,,right,0,2.2174846349225845,0,,,,,,,,,,,,,,,,,,,,,,1049,2019_Mar_13_1143,mf_amp_cond1,3.0.4,59.99505485772638,
gationwide,reelectiob,&&&&&&&&&&,None,nonword,,,,,,,0,116,116,116,,,,,,,,,,,,,,,,,,,,,AMP,left,2.3675313483399805,,,left,0,2.3675313483399805,0,,,,,,,,,,,,,,,,,,,,,,1049,2019_Mar_13_1143,mf_amp_cond1,3.0.4,59.99505485772638,
metibolic,seachwear,&&&&&&&&&,None,nonword,,,,,,,0,117,117,117,,,,,,,,,,,,,,,,,,,,,AMP,left,0.6170569178648293,,,left,0,0.6170569178648293,0,,,,,,,,,,,,,,,,,,,,,,1049,2019_Mar_13_1143,mf_amp_cond1,3.0.4,59.99505485772638,
suicide,taxpayung,&&&&&&&&&,right,care.vice,,,,,,,0,118,118,118,,,,,,,,,,,,,,,,,,,,,AMP,left,0.7838027498219162,,,left,0,0.7838027498219162,0,,,,,,,,,,,,,,,,,,,,,,1049,2019_Mar_13_1143,mf_amp_cond1,3.0.4,59.99505485772638,
sharing,brudent,&&&&&&&,left,loyalty.virtue,,,,,,,0,119,119,119,,,,,,,,,,,,,,,,,,,,,AMP,left,1.5506514057633467,,,left,1,1.5506514057633467,1,,,,,,,,,,,,,,,,,,,,,,1049,2019_Mar_13_1143,mf_amp_cond1,3.0.4,59.99505485772638,
died,pullness,&&&&&&&&,right,care.vice,,,,,,,0,120,120,120,,,,,,,,,,,,,,,,,,,,,AMP,left,0.7670981789706275,,,left,0,0.7670981789706275,0,,,,,,,,,,,,,,,,,,,,,,1049,2019_Mar_13_1143,mf_amp_cond1,3.0.4,59.99505485772638,
civilians,pumber,&&&&&&,right,care.vice,,,,,,,0,121,121,121,,,,,,,,,,,,,,,,,,,,,AMP,left,2.033915885083843,,,left,0,2.033915885083843,0,,,,,,,,,,,,,,,,,,,,,,1049,2019_Mar_13_1143,mf_amp_cond1,3.0.4,59.99505485772638,
prosecution,Loorish,&&&&&&&,right,authority.vice,,,,,,,0,122,122,122,,,,,,,,,,,,,,,,,,,,,AMP,left,2.017388674430549,,,left,0,2.017388674430549,0,,,,,,,,,,,,,,,,,,,,,,1049,2019_Mar_13_1143,mf_amp_cond1,3.0.4,59.99505485772638,
officers,antral,&&&&&&,right,authority.vice,,,,,,,0,123,123,123,,,,,,,,,,,,,,,,,,,,,AMP,left,1.1505441557965241,,,left,0,1.1505441557965241,0,,,,,,,,,,,,,,,,,,,,,,1049,2019_Mar_13_1143,mf_amp_cond1,3.0.4,59.99505485772638,
corruption,slending,&&&&&&&&,right,sanctity.vice,,,,,,,0,124,124,124,,,,,,,,,,,,,,,,,,,,,AMP,left,1.5339785865799058,,,left,0,1.5339785865799058,0,,,,,,,,,,,,,,,,,,,,,,1049,2019_Mar_13_1143,mf_amp_cond1,3.0.4,59.99505485772638,
hate,gowlands,&&&&&&&&,right,fairness.vice,,,,,,,0,125,125,125,,,,,,,,,,,,,,,,,,,,,AMP,left,1.083867311506765,,,left,0,1.083867311506765,0,,,,,,,,,,,,,,,,,,,,,,1049,2019_Mar_13_1143,mf_amp_cond1,3.0.4,59.99505485772638,
troops,gaultless,&&&&&&&&&,right,loyalty.vice,,,,,,,0,126,126,126,,,,,,,,,,,,,,,,,,,,,AMP,left,0.8171175987808965,,,left,0,0.8171175987808965,0,,,,,,,,,,,,,,,,,,,,,,1049,2019_Mar_13_1143,mf_amp_cond1,3.0.4,59.99505485772638,
charges,reprisols,&&&&&&&&&,right,fairness.vice,,,,,,,0,127,127,127,,,,,,,,,,,,,,,,,,,,,AMP,left,1.1005340369592886,,,left,0,1.1005340369592886,0,,,,,,,,,,,,,,,,,,,,,,1049,2019_Mar_13_1143,mf_amp_cond1,3.0.4,59.99505485772638,
threatened,epigrach,&&&&&&&&,right,fairness.vice,,,,,,,0,128,128,128,,,,,,,,,,,,,,,,,,,,,AMP,left,0.5170584894076455,,,left,0,0.5170584894076455,0,,,,,,,,,,,,,,,,,,,,,,1049,2019_Mar_13_1143,mf_amp_cond1,3.0.4,59.99505485772638,
prison,tislay,&&&&&&,right,fairness.vice,,,,,,,0,129,129,129,,,,,,,,,,,,,,,,,,,,,AMP,left,1.4005264358129352,,,left,0,1.4005264358129352,0,,,,,,,,,,,,,,,,,,,,,,1049,2019_Mar_13_1143,mf_amp_cond1,3.0.4,59.99505485772638,
care,dumid,&&&&&,left,care.virtue,,,,,,,0,130,130,130,,,,,,,,,,,,,,,,,,,,,AMP,left,1.0338565512211062,,,left,1,1.0338565512211062,1,,,,,,,,,,,,,,,,,,,,,,1049,2019_Mar_13_1143,mf_amp_cond1,3.0.4,59.99505485772638,
injured,scock,&&&&&,right,care.vice,,,,,,,0,131,131,131,,,,,,,,,,,,,,,,,,,,,AMP,left,0.6337348686647601,,,left,0,0.6337348686647601,0,,,,,,,,,,,,,,,,,,,,,,1049,2019_Mar_13_1143,mf_amp_cond1,3.0.4,59.99505485772638,
loyalty,smapper,&&&&&&&,left,loyalty.virtue,,,,,,,0,132,132,132,,,,,,,,,,,,,,,,,,,,,AMP,right,0.8671588278084528,,,right,0,0.8671588278084528,0,,,,,,,,,,,,,,,,,,,,,,1049,2019_Mar_13_1143,mf_amp_cond1,3.0.4,59.99505485772638,
neneficence,tracious,&&&&&&&&,None,nonword,,,,,,,0,133,133,133,,,,,,,,,,,,,,,,,,,,,AMP,left,2.084147944668075,,,left,0,2.084147944668075,0,,,,,,,,,,,,,,,,,,,,,,1049,2019_Mar_13_1143,mf_amp_cond1,3.0.4,59.99505485772638,
elduringly,fonderland,&&&&&&&&&&,None,nonword,,,,,,,0,134,134,134,,,,,,,,,,,,,,,,,,,,,AMP,right,0.9671575769898482,,,right,0,0.9671575769898482,0,,,,,,,,,,,,,,,,,,,,,,1049,2019_Mar_13_1143,mf_amp_cond1,3.0.4,59.99505485772638,
agreement,blunderints,&&&&&&&&&&&,left,fairness.virtue,,,,,,,0,135,135,135,,,,,,,,,,,,,,,,,,,,,AMP,right,0.9839307827060111,,,right,0,0.9839307827060111,0,,,,,,,,,,,,,,,,,,,,,,1049,2019_Mar_13_1143,mf_amp_cond1,3.0.4,59.99505485772638,
free,nuckheap,&&&&&&&&,left,fairness.virtue,,,,,,,0,136,136,136,,,,,,,,,,,,,,,,,,,,,AMP,right,0.7671456460666377,,,right,0,0.7671456460666377,0,,,,,,,,,,,,,,,,,,,,,,1049,2019_Mar_13_1143,mf_amp_cond1,3.0.4,59.99505485772638,
critics,gournful,&&&&&&&&,right,loyalty.vice,,,,,,,0,137,137,137,,,,,,,,,,,,,,,,,,,,,AMP,left,0.5504208054917399,,,left,0,0.5504208054917399,0,,,,,,,,,,,,,,,,,,,,,,1049,2019_Mar_13_1143,mf_amp_cond1,3.0.4,59.99505485772638,
presentkess,focomotive,&&&&&&&&&&,None,nonword,,,,,,,0,138,138,138,,,,,,,,,,,,,,,,,,,,,AMP,right,1.5173022393719293,,,right,0,1.5173022393719293,0,,,,,,,,,,,,,,,,,,,,,,1049,2019_Mar_13_1143,mf_amp_cond1,3.0.4,59.99505485772638,
dignity,saned,&&&&&,left,sanctity.virtue,,,,,,,0,139,139,139,,,,,,,,,,,,,,,,,,,,,AMP,left,1.2672554939053953,,,left,1,1.2672554939053953,1,,,,,,,,,,,,,,,,,,,,,,1049,2019_Mar_13_1143,mf_amp_cond1,3.0.4,59.99505485772638,
lies,imebreaker,&&&&&&&&&&,right,fairness.vice,,,,,,,0,140,140,140,,,,,,,,,,,,,,,,,,,,,AMP,right,1.4006082203413825,,,right,1,1.4006082203413825,1,,,,,,,,,,,,,,,,,,,,,,1049,2019_Mar_13_1143,mf_amp_cond1,3.0.4,59.99505485772638,
accused,supervuned,&&&&&&&&&&,right,fairness.vice,,,,,,,0,141,141,141,,,,,,,,,,,,,,,,,,,,,AMP,left,1.6340382732450962,,,left,0,1.6340382732450962,0,,,,,,,,,,,,,,,,,,,,,,1049,2019_Mar_13_1143,mf_amp_cond1,3.0.4,59.99505485772638,
good,scalbel,&&&&&&&,left,care.virtue,,,,,,,0,142,142,142,,,,,,,,,,,,,,,,,,,,,AMP,right,0.43369022393017076,,,right,0,0.43369022393017076,0,,,,,,,,,,,,,,,,,,,,,,1049,2019_Mar_13_1143,mf_amp_cond1,3.0.4,59.99505485772638,
openet,esquisiteness,&&&&&&&&&&&&&,None,nonword,,,,,,,0,143,143,143,,,,,,,,,,,,,,,,,,,,,AMP,left,1.8007186775794253,,,left,0,1.8007186775794253,0,,,,,,,,,,,,,,,,,,,,,,1049,2019_Mar_13_1143,mf_amp_cond1,3.0.4,59.99505485772638,
win,shoirmaster,&&&&&&&&&&&,left,fairness.virtue,,,,,,,0,144,144,144,,,,,,,,,,,,,,,,,,,,,AMP,right,1.283953008853132,,,right,0,1.283953008853132,0,,,,,,,,,,,,,,,,,,,,,,1049,2019_Mar_13_1143,mf_amp_cond1,3.0.4,59.99505485772638,
growth,ebbitter,&&&&&&&&,left,care.virtue,,,,,,,0,145,145,145,,,,,,,,,,,,,,,,,,,,,AMP,left,1.2839199742884375,,,left,1,1.2839199742884375,1,,,,,,,,,,,,,,,,,,,,,,1049,2019_Mar_13_1143,mf_amp_cond1,3.0.4,59.99505485772638,
support,leact,&&&&&,left,loyalty.virtue,,,,,,,0,146,146,146,,,,,,,,,,,,,,,,,,,,,AMP,right,2.150802659045439,,,right,0,2.150802659045439,0,,,,,,,,,,,,,,,,,,,,,,1049,2019_Mar_13_1143,mf_amp_cond1,3.0.4,59.99505485772638,
honstables,fegard,&&&&&&,None,nonword,,,,,,,0,147,147,147,,,,,,,,,,,,,,,,,,,,,AMP,left,0.9838339241687208,,,left,0,0.9838339241687208,0,,,,,,,,,,,,,,,,,,,,,,1049,2019_Mar_13_1143,mf_amp_cond1,3.0.4,59.99505485772638,
refused,thadowed,&&&&&&&&,right,authority.vice,,,,,,,0,148,148,148,,,,,,,,,,,,,,,,,,,,,AMP,left,1.633988240355393,,,left,0,1.633988240355393,0,,,,,,,,,,,,,,,,,,,,,,1049,2019_Mar_13_1143,mf_amp_cond1,3.0.4,59.99505485772638,
fraud,nonobservalt,&&&&&&&&&&&&,right,fairness.vice,,,,,,,0,149,149,149,,,,,,,,,,,,,,,,,,,,,AMP,left,0.5337204040260985,,,left,0,0.5337204040260985,0,,,,,,,,,,,,,,,,,,,,,,1049,2019_Mar_13_1143,mf_amp_cond1,3.0.4,59.99505485772638,
gondensed,glacenta,&&&&&&&&,None,nonword,,,,,,,0,150,150,150,,,,,,,,,,,,,,,,,,,,,AMP,left,1.0839003460423555,,,left,0,1.0839003460423555,0,,,,,,,,,,,,,,,,,,,,,,1049,2019_Mar_13_1143,mf_amp_cond1,3.0.4,59.99505485772638,
penalty,dormandi,&&&&&&&&,right,authority.vice,,,,,,,0,151,151,151,,,,,,,,,,,,,,,,,,,,,AMP,left,0.600403983524302,,,left,0,0.600403983524302,0,,,,,,,,,,,,,,,,,,,,,,1049,2019_Mar_13_1143,mf_amp_cond1,3.0.4,59.99505485772638,
trust,gazily,&&&&&&,left,authority.virtue,,,,,,,0,152,152,152,,,,,,,,,,,,,,,,,,,,,AMP,left,1.6840285072103143,,,left,1,1.6840285072103143,1,,,,,,,,,,,,,,,,,,,,,,1049,2019_Mar_13_1143,mf_amp_cond1,3.0.4,59.99505485772638,
promised,emassion,&&&&&&&&,left,loyalty.virtue,,,,,,,0,153,153,153,,,,,,,,,,,,,,,,,,,,,AMP,right,0.8838178559090011,,,right,0,0.8838178559090011,0,,,,,,,,,,,,,,,,,,,,,,1049,2019_Mar_13_1143,mf_amp_cond1,3.0.4,59.99505485772638,
improve,coom,&&&&,left,care.virtue,,,,,,,0,154,154,154,,,,,,,,,,,,,,,,,,,,,AMP,right,1.6673665925918613,,,right,0,1.6673665925918613,0,,,,,,,,,,,,,,,,,,,,,,1049,2019_Mar_13_1143,mf_amp_cond1,3.0.4,59.99505485772638,
terrorist,Lacedonia,&&&&&&&&&,right,loyalty.vice,,,,,,,0,155,155,155,,,,,,,,,,,,,,,,,,,,,AMP,left,0.6337569985771552,,,left,0,0.6337569985771552,0,,,,,,,,,,,,,,,,,,,,,,1049,2019_Mar_13_1143,mf_amp_cond1,3.0.4,59.99505485772638,
gedious,atson,&&&&&,None,nonword,,,,,,,0,156,156,156,,,,,,,,,,,,,,,,,,,,,AMP,left,1.7006913839722984,,,left,0,1.7006913839722984,0,,,,,,,,,,,,,,,,,,,,,,1049,2019_Mar_13_1143,mf_amp_cond1,3.0.4,59.99505485772638,
opportunity,rorroborated,&&&&&&&&&&&&,left,fairness.virtue,,,,,,,0,157,157,157,,,,,,,,,,,,,,,,,,,,,AMP,right,0.7504712232330348,,,right,0,0.7504712232330348,0,,,,,,,,,,,,,,,,,,,,,,1049,2019_Mar_13_1143,mf_amp_cond1,3.0.4,59.99505485772638,
conspiracy,mecan,&&&&&,right,sanctity.vice,,,,,,,0,158,158,158,,,,,,,,,,,,,,,,,,,,,AMP,left,1.0505303326062858,,,left,0,1.0505303326062858,0,,,,,,,,,,,,,,,,,,,,,,1049,2019_Mar_13_1143,mf_amp_cond1,3.0.4,59.99505485772638,
abuse,bluently,&&&&&&&&,right,sanctity.vice,,,,,,,0,159,159,159,,,,,,,,,,,,,,,,,,,,,AMP,left,1.0005070641054772,,,left,0,1.0005070641054772,0,,,,,,,,,,,,,,,,,,,,,,1049,2019_Mar_13_1143,mf_amp_cond1,3.0.4,59.99505485772638,
unpleasant,ning,&&&&,None,control,,,,,,,0,160,160,160,,,,,,,,,,,,,,,,,,,,,AMP,right,0.8504754246969242,,,right,0,0.8504754246969242,0,,,,,,,,,,,,,,,,,,,,,,1049,2019_Mar_13_1143,mf_amp_cond1,3.0.4,59.99505485772638,
strong,wump,&&&&,left,loyalty.virtue,,,,,,,0,161,161,161,,,,,,,,,,,,,,,,,,,,,AMP,right,1.8840651338396128,,,right,0,1.8840651338396128,0,,,,,,,,,,,,,,,,,,,,,,1049,2019_Mar_13_1143,mf_amp_cond1,3.0.4,59.99505485772638,
celebrated,lorthwhile,&&&&&&&&&&,left,authority.virtue,,,,,,,0,162,162,162,,,,,,,,,,,,,,,,,,,,,AMP,right,4.00126493407879,,,right,0,4.00126493407879,0,,,,,,,,,,,,,,,,,,,,,,1049,2019_Mar_13_1143,mf_amp_cond1,3.0.4,59.99505485772638,
groups,clattening,&&&&&&&&&&,right,loyalty.vice,,,,,,,0,163,163,163,,,,,,,,,,,,,,,,,,,,,AMP,right,1.2172226037073415,,,right,1,1.2172226037073415,1,,,,,,,,,,,,,,,,,,,,,,1049,2019_Mar_13_1143,mf_amp_cond1,3.0.4,59.99505485772638,
officers,edancipation,&&&&&&&&&&&&,right,authority.vice,,,,,,,0,164,164,164,,,,,,,,,,,,,,,,,,,,,AMP,left,3.134399247705005,,,left,0,3.134399247705005,0,,,,,,,,,,,,,,,,,,,,,,1049,2019_Mar_13_1143,mf_amp_cond1,3.0.4,59.99505485772638,
penalty,gaultless,&&&&&&&&&,right,authority.vice,,,,,,,0,165,165,165,,,,,,,,,,,,,,,,,,,,,AMP,left,1.0838570483319927,,,left,0,1.0838570483319927,0,,,,,,,,,,,,,,,,,,,,,,1049,2019_Mar_13_1143,mf_amp_cond1,3.0.4,59.99505485772638,
improve,pullness,&&&&&&&&,left,care.virtue,,,,,,,0,166,166,166,,,,,,,,,,,,,,,,,,,,,AMP,right,0.683752684853971,,,right,0,0.683752684853971,0,,,,,,,,,,,,,,,,,,,,,,1049,2019_Mar_13_1143,mf_amp_cond1,3.0.4,59.99505485772638,
powerful,shoirmaster,&&&&&&&&&&&,left,authority.virtue,,,,,,,0,167,167,167,,,,,,,,,,,,,,,,,,,,,AMP,right,1.1838801725243684,,,right,0,1.1838801725243684,0,,,,,,,,,,,,,,,,,,,,,,1049,2019_Mar_13_1143,mf_amp_cond1,3.0.4,59.99505485772638,
prison,ning,&&&&,right,fairness.vice,,,,,,,0,168,168,168,,,,,,,,,,,,,,,,,,,,,AMP,left,1.3506205521698575,,,left,0,1.3506205521698575,0,,,,,,,,,,,,,,,,,,,,,,1049,2019_Mar_13_1143,mf_amp_cond1,3.0.4,59.99505485772638,
presentkess,scock,&&&&&,None,nonword,,,,,,,0,169,169,169,,,,,,,,,,,,,,,,,,,,,AMP,left,0.5003725205315277,,,left,0,0.5003725205315277,0,,,,,,,,,,,,,,,,,,,,,,1049,2019_Mar_13_1143,mf_amp_cond1,3.0.4,59.99505485772638,
celebrated,supervuned,&&&&&&&&&&,left,authority.virtue,,,,,,,0,170,170,170,,,,,,,,,,,,,,,,,,,,,AMP,right,1.200552350259386,,,right,0,1.200552350259386,0,,,,,,,,,,,,,,,,,,,,,,1049,2019_Mar_13_1143,mf_amp_cond1,3.0.4,59.99505485772638,
accused,oam,&&&,right,fairness.vice,,,,,,,0,171,171,171,,,,,,,,,,,,,,,,,,,,,AMP,left,0.9505040012008976,,,left,0,0.9505040012008976,0,,,,,,,,,,,,,,,,,,,,,,1049,2019_Mar_13_1143,mf_amp_cond1,3.0.4,59.99505485772638,
threatened,nuckheap,&&&&&&&&,right,fairness.vice,,,,,,,0,172,172,172,,,,,,,,,,,,,,,,,,,,,AMP,left,1.7507043893274385,,,left,0,1.7507043893274385,0,,,,,,,,,,,,,,,,,,,,,,1049,2019_Mar_13_1143,mf_amp_cond1,3.0.4,59.99505485772638,
interests,Lacedonia,&&&&&&&&&,left,fairness.virtue,,,,,,,0,173,173,173,,,,,,,,,,,,,,,,,,,,,AMP,right,1.3006194136105478,,,right,0,1.3006194136105478,0,,,,,,,,,,,,,,,,,,,,,,1049,2019_Mar_13_1143,mf_amp_cond1,3.0.4,59.99505485772638,
suicide,thadowed,&&&&&&&&,right,care.vice,,,,,,,0,174,174,174,,,,,,,,,,,,,,,,,,,,,AMP,left,1.017172827385366,,,left,0,1.017172827385366,0,,,,,,,,,,,,,,,,,,,,,,1049,2019_Mar_13_1143,mf_amp_cond1,3.0.4,59.99505485772638,
promised,erdest,&&&&&&,left,loyalty.virtue,,,,,,,0,175,175,175,,,,,,,,,,,,,,,,,,,,,AMP,right,1.0838855927577242,,,right,0,1.0838855927577242,0,,,,,,,,,,,,,,,,,,,,,,1049,2019_Mar_13_1143,mf_amp_cond1,3.0.4,59.99505485772638,
gationwide,infet,&&&&&,None,nonword,,,,,,,0,176,176,176,,,,,,,,,,,,,,,,,,,,,AMP,left,0.8337859278544784,,,left,0,0.8337859278544784,0,,,,,,,,,,,,,,,,,,,,,,1049,2019_Mar_13_1143,mf_amp_cond1,3.0.4,59.99505485772638,
fear,gowlands,&&&&&&&&,right,sanctity.vice,,,,,,,0,177,177,177,,,,,,,,,,,,,,,,,,,,,AMP,left,2.4508899920911063,,,left,0,2.4508899920911063,0,,,,,,,,,,,,,,,,,,,,,,1049,2019_Mar_13_1143,mf_amp_cond1,3.0.4,59.99505485772638,
win,emassion,&&&&&&&&,left,fairness.virtue,,,,,,,0,178,178,178,,,,,,,,,,,,,,,,,,,,,AMP,right,0.7004444267658982,,,right,0,0.7004444267658982,0,,,,,,,,,,,,,,,,,,,,,,1049,2019_Mar_13_1143,mf_amp_cond1,3.0.4,59.99505485772638,
growth,totalestic,&&&&&&&&&&,left,care.virtue,,,,,,,0,179,179,179,,,,,,,,,,,,,,,,,,,,,AMP,left,1.2005767252703663,,,left,1,1.2005767252703663,1,,,,,,,,,,,,,,,,,,,,,,1049,2019_Mar_13_1143,mf_amp_cond1,3.0.4,59.99505485772638,
gedious,viscs,&&&&&,None,nonword,,,,,,,0,180,180,180,,,,,,,,,,,,,,,,,,,,,AMP,right,1.217247620166745,,,right,0,1.217247620166745,0,,,,,,,,,,,,,,,,,,,,,,1049,2019_Mar_13_1143,mf_amp_cond1,3.0.4,59.99505485772638,
agreement,taxpayung,&&&&&&&&&,left,fairness.virtue,,,,,,,0,181,181,181,,,,,,,,,,,,,,,,,,,,,AMP,left,1.0671909643278923,,,left,1,1.0671909643278923,1,,,,,,,,,,,,,,,,,,,,,,1049,2019_Mar_13_1143,mf_amp_cond1,3.0.4,59.99505485772638,
help,discovars,&&&&&&&&&,left,care.virtue,,,,,,,0,182,182,182,,,,,,,,,,,,,,,,,,,,,AMP,left,0.7337650487606879,,,left,1,0.7337650487606879,1,,,,,,,,,,,,,,,,,,,,,,1049,2019_Mar_13_1143,mf_amp_cond1,3.0.4,59.99505485772638,
good,disregord,&&&&&&&&&,left,care.virtue,,,,,,,0,183,183,183,,,,,,,,,,,,,,,,,,,,,AMP,right,1.35059008342796,,,right,0,1.35059008342796,0,,,,,,,,,,,,,,,,,,,,,,1049,2019_Mar_13_1143,mf_amp_cond1,3.0.4,59.99505485772638,
openet,bluently,&&&&&&&&,None,nonword,,,,,,,0,184,184,184,,,,,,,,,,,,,,,,,,,,,AMP,left,1.7006865731382277,,,left,0,1.7006865731382277,0,,,,,,,,,,,,,,,,,,,,,,1049,2019_Mar_13_1143,mf_amp_cond1,3.0.4,59.99505485772638,
serial,antral,&&&&&&,right,sanctity.vice,,,,,,,0,185,185,185,,,,,,,,,,,,,,,,,,,,,AMP,left,0.5004414761206135,,,left,0,0.5004414761206135,0,,,,,,,,,,,,,,,,,,,,,,1049,2019_Mar_13_1143,mf_amp_cond1,3.0.4,59.99505485772638,
progress,Cunday,&&&&&&,left,authority.virtue,,,,,,,0,186,186,186,,,,,,,,,,,,,,,,,,,,,AMP,right,0.48370836084359325,,,right,0,0.48370836084359325,0,,,,,,,,,,,,,,,,,,,,,,1049,2019_Mar_13_1143,mf_amp_cond1,3.0.4,59.99505485772638,
refused,sowntrodden,&&&&&&&&&&&,right,authority.vice,,,,,,,0,187,187,187,,,,,,,,,,,,,,,,,,,,,AMP,left,1.083890082896687,,,left,0,1.083890082896687,0,,,,,,,,,,,,,,,,,,,,,,1049,2019_Mar_13_1143,mf_amp_cond1,3.0.4,59.99505485772638,
died,precificity,&&&&&&&&&&&,right,care.vice,,,,,,,0,188,188,188,,,,,,,,,,,,,,,,,,,,,AMP,left,2.150834731408395,,,left,0,2.150834731408395,0,,,,,,,,,,,,,,,,,,,,,,1049,2019_Mar_13_1143,mf_amp_cond1,3.0.4,59.99505485772638,
conspiracy,nonobservalt,&&&&&&&&&&&&,right,sanctity.vice,,,,,,,0,189,189,189,,,,,,,,,,,,,,,,,,,,,AMP,left,0.7504660916456487,,,left,0,0.7504660916456487,0,,,,,,,,,,,,,,,,,,,,,,1049,2019_Mar_13_1143,mf_amp_cond1,3.0.4,59.99505485772638,
army,Loorish,&&&&&&&,right,loyalty.vice,,,,,,,0,190,190,190,,,,,,,,,,,,,,,,,,,,,AMP,left,0.5003677096683532,,,left,0,0.5003677096683532,0,,,,,,,,,,,,,,,,,,,,,,1049,2019_Mar_13_1143,mf_amp_cond1,3.0.4,59.99505485772638,
drug,epigrach,&&&&&&&&,right,sanctity.vice,,,,,,,0,191,191,191,,,,,,,,,,,,,,,,,,,,,AMP,left,0.733764086588053,,,left,0,0.733764086588053,0,,,,,,,,,,,,,,,,,,,,,,1049,2019_Mar_13_1143,mf_amp_cond1,3.0.4,59.99505485772638,
restore,leact,&&&&&,left,care.virtue,,,,,,,0,192,192,192,,,,,,,,,,,,,,,,,,,,,AMP,left,1.4006050130992662,,,left,1,1.4006050130992662,1,,,,,,,,,,,,,,,,,,,,,,1049,2019_Mar_13_1143,mf_amp_cond1,3.0.4,59.99505485772638,
gondensed,pumber,&&&&&&,None,nonword,,,,,,,0,193,193,193,,,,,,,,,,,,,,,,,,,,,AMP,right,0.8504616336140316,,,right,0,0.8504616336140316,0,,,,,,,,,,,,,,,,,,,,,,1049,2019_Mar_13_1143,mf_amp_cond1,3.0.4,59.99505485772638,
sharing,photocalkodes,&&&&&&&&&&&&&,left,loyalty.virtue,,,,,,,0,194,194,194,,,,,,,,,,,,,,,,,,,,,AMP,right,1.2339066482381895,,,right,0,1.2339066482381895,0,,,,,,,,,,,,,,,,,,,,,,1049,2019_Mar_13_1143,mf_amp_cond1,3.0.4,59.99505485772638,
troops,coom,&&&&,right,loyalty.vice,,,,,,,0,195,195,195,,,,,,,,,,,,,,,,,,,,,AMP,left,0.5503848844382446,,,left,0,0.5503848844382446,0,,,,,,,,,,,,,,,,,,,,,,1049,2019_Mar_13_1143,mf_amp_cond1,3.0.4,59.99505485772638,
protesters,imebreaker,&&&&&&&&&&,right,authority.vice,,,,,,,0,196,196,196,,,,,,,,,,,,,,,,,,,,,AMP,left,2.3675736838486046,,,left,0,2.3675736838486046,0,,,,,,,,,,,,,,,,,,,,,,1049,2019_Mar_13_1143,mf_amp_cond1,3.0.4,59.99505485772638,
injured,fonderland,&&&&&&&&&&,right,care.vice,,,,,,,0,197,197,197,,,,,,,,,,,,,,,,,,,,,AMP,left,1.1339499138703104,,,left,0,1.1339499138703104,0,,,,,,,,,,,,,,,,,,,,,,1049,2019_Mar_13_1143,mf_amp_cond1,3.0.4,59.99505485772638,
failure,rorroborated,&&&&&&&&&&&&,right,loyalty.vice,,,,,,,0,198,198,198,,,,,,,,,,,,,,,,,,,,,AMP,left,1.1505508909758646,,,left,0,1.1505508909758646,0,,,,,,,,,,,,,,,,,,,,,,1049,2019_Mar_13_1143,mf_amp_cond1,3.0.4,59.99505485772638,
opportunity,squets,&&&&&&,left,fairness.virtue,,,,,,,0,199,199,199,,,,,,,,,,,,,,,,,,,,,AMP,right,1.7673890753358137,,,right,0,1.7673890753358137,0,,,,,,,,,,,,,,,,,,,,,,1049,2019_Mar_13_1143,mf_amp_cond1,3.0.4,59.99505485772638,
peaceful,mightingale,&&&&&&&&&&&,left,authority.virtue,,,,,,,0,200,200,200,,,,,,,,,,,,,,,,,,,,,AMP,left,2.8843284479517024,,,left,1,2.8843284479517024,1,,,,,,,,,,,,,,,,,,,,,,1049,2019_Mar_13_1143,mf_amp_cond1,3.0.4,59.99505485772638,
charges,chadows,&&&&&&&,right,fairness.vice,,,,,,,0,201,201,201,,,,,,,,,,,,,,,,,,,,,AMP,left,1.58398453600239,,,left,0,1.58398453600239,0,,,,,,,,,,,,,,,,,,,,,,1049,2019_Mar_13_1143,mf_amp_cond1,3.0.4,59.99505485772638,
care,Oregoniuns,&&&&&&&&&&,left,care.virtue,,,,,,,0,202,202,202,,,,,,,,,,,,,,,,,,,,,AMP,right,2.750972193578491,,,right,0,2.750972193578491,0,,,,,,,,,,,,,,,,,,,,,,1049,2019_Mar_13_1143,mf_amp_cond1,3.0.4,59.99505485772638,
vurtain,ebbitter,&&&&&&&&,None,nonword,,,,,,,0,203,203,203,,,,,,,,,,,,,,,,,,,,,AMP,left,1.2338960643683095,,,left,0,1.2338960643683095,0,,,,,,,,,,,,,,,,,,,,,,1049,2019_Mar_13_1143,mf_amp_cond1,3.0.4,59.99505485772638,
prosecution,focomotive,&&&&&&&&&&,right,authority.vice,,,,,,,0,204,204,204,,,,,,,,,,,,,,,,,,,,,AMP,left,1.1171972344745882,,,left,0,1.1171972344745882,0,,,,,,,,,,,,,,,,,,,,,,1049,2019_Mar_13_1143,mf_amp_cond1,3.0.4,59.99505485772638,
sexual,gazily,&&&&&&,right,sanctity.vice,,,,,,,0,205,205,205,,,,,,,,,,,,,,,,,,,,,AMP,right,0.667047472554259,,,right,1,0.667047472554259,1,,,,,,,,,,,,,,,,,,,,,,1049,2019_Mar_13_1143,mf_amp_cond1,3.0.4,59.99505485772638,
dignity,troubla,&&&&&&&,left,sanctity.virtue,,,,,,,0,206,206,206,,,,,,,,,,,,,,,,,,,,,AMP,left,1.2339024788234383,,,left,1,1.2339024788234383,1,,,,,,,,,,,,,,,,,,,,,,1049,2019_Mar_13_1143,mf_amp_cond1,3.0.4,59.99505485772638,
respect,reprisols,&&&&&&&&&,left,sanctity.virtue,,,,,,,0,207,207,207,,,,,,,,,,,,,,,,,,,,,AMP,right,1.500644173444016,,,right,0,1.500644173444016,0,,,,,,,,,,,,,,,,,,,,,,1049,2019_Mar_13_1143,mf_amp_cond1,3.0.4,59.99505485772638,
strength,lorthwhile,&&&&&&&&&&,left,sanctity.virtue,,,,,,,0,208,208,208,,,,,,,,,,,,,,,,,,,,,AMP,left,0.883815290115308,,,left,1,0.883815290115308,1,,,,,,,,,,,,,,,,,,,,,,1049,2019_Mar_13_1143,mf_amp_cond1,3.0.4,59.99505485772638,
abuse,tislay,&&&&&&,right,sanctity.vice,,,,,,,0,209,209,209,,,,,,,,,,,,,,,,,,,,,AMP,left,0.4003570937202312,,,left,0,0.4003570937202312,0,,,,,,,,,,,,,,,,,,,,,,1049,2019_Mar_13_1143,mf_amp_cond1,3.0.4,59.99505485772638,
values,halaise,&&&&&&&,left,sanctity.virtue,,,,,,,0,210,210,210,,,,,,,,,,,,,,,,,,,,,AMP,right,0.583720901136985,,,right,0,0.583720901136985,0,,,,,,,,,,,,,,,,,,,,,,1049,2019_Mar_13_1143,mf_amp_cond1,3.0.4,59.99505485772638,
gun,tomedians,&&&&&&&&&,right,authority.vice,,,,,,,0,211,211,211,,,,,,,,,,,,,,,,,,,,,AMP,left,0.8337862486077938,,,left,0,0.8337862486077938,0,,,,,,,,,,,,,,,,,,,,,,1049,2019_Mar_13_1143,mf_amp_cond1,3.0.4,59.99505485772638,
protect,neutralust,&&&&&&&&&&,left,fairness.virtue,,,,,,,0,212,212,212,,,,,,,,,,,,,,,,,,,,,AMP,right,1.4506119246943854,,,right,0,1.4506119246943854,0,,,,,,,,,,,,,,,,,,,,,,1049,2019_Mar_13_1143,mf_amp_cond1,3.0.4,59.99505485772638,
rejected,scalbel,&&&&&&&,right,authority.vice,,,,,,,0,213,213,213,,,,,,,,,,,,,,,,,,,,,AMP,left,1.2172277352656238,,,left,0,1.2172277352656238,0,,,,,,,,,,,,,,,,,,,,,,1049,2019_Mar_13_1143,mf_amp_cond1,3.0.4,59.99505485772638,
killed,glacenta,&&&&&&&&,right,care.vice,,,,,,,0,214,214,214,,,,,,,,,,,,,,,,,,,,,AMP,left,2.3175023068033624,,,left,0,2.3175023068033624,0,,,,,,,,,,,,,,,,,,,,,,1049,2019_Mar_13_1143,mf_amp_cond1,3.0.4,59.99505485772638,
love,touls,&&&&&,left,loyalty.virtue,,,,,,,0,215,215,215,,,,,,,,,,,,,,,,,,,,,AMP,right,0.45037843787577003,,,right,0,0.45037843787577003,0,,,,,,,,,,,,,,,,,,,,,,1049,2019_Mar_13_1143,mf_amp_cond1,3.0.4,59.99505485772638,
safety,alar,&&&&,left,care.virtue,,,,,,,0,216,216,216,,,,,,,,,,,,,,,,,,,,,AMP,right,0.5335545898997225,,,right,0,0.5335545898997225,0,,,,,,,,,,,,,,,,,,,,,,1049,2019_Mar_13_1143,mf_amp_cond1,3.0.4,59.99505485772638,
free,frocessing,&&&&&&&&&&,left,fairness.virtue,,,,,,,0,217,217,217,,,,,,,,,,,,,,,,,,,,,AMP,right,0.9004505846532993,,,right,0,0.9004505846532993,0,,,,,,,,,,,,,,,,,,,,,,1049,2019_Mar_13_1143,mf_amp_cond1,3.0.4,59.99505485772638,
trust,baklara,&&&&&&&,left,authority.virtue,,,,,,,0,218,218,218,,,,,,,,,,,,,,,,,,,,,AMP,left,1.5173012772283982,,,left,1,1.5173012772283982,1,,,,,,,,,,,,,,,,,,,,,,1049,2019_Mar_13_1143,mf_amp_cond1,3.0.4,59.99505485772638,
hate,gournful,&&&&&&&&,right,fairness.vice,,,,,,,0,219,219,219,,,,,,,,,,,,,,,,,,,,,AMP,left,1.7673919618537184,,,left,0,1.7673919618537184,0,,,,,,,,,,,,,,,,,,,,,,1049,2019_Mar_13_1143,mf_amp_cond1,3.0.4,59.99505485772638,
honstables,asn,&&&,None,nonword,,,,,,,0,220,220,220,,,,,,,,,,,,,,,,,,,,,AMP,left,1.3006062639178708,,,left,0,1.3006062639178708,0,,,,,,,,,,,,,,,,,,,,,,1049,2019_Mar_13_1143,mf_amp_cond1,3.0.4,59.99505485772638,
pleasant,dormandi,&&&&&&&&,None,control,,,,,,,0,221,221,221,,,,,,,,,,,,,,,,,,,,,AMP,right,0.6836057934269775,,,right,0,0.6836057934269775,0,,,,,,,,,,,,,,,,,,,,,,1049,2019_Mar_13_1143,mf_amp_cond1,3.0.4,59.99505485772638,
corruption,atson,&&&&&,right,sanctity.vice,,,,,,,0,222,222,222,,,,,,,,,,,,,,,,,,,,,AMP,left,0.8671633179183118,,,left,0,0.8671633179183118,0,,,,,,,,,,,,,,,,,,,,,,1049,2019_Mar_13_1143,mf_amp_cond1,3.0.4,59.99505485772638,
shot,esquisiteness,&&&&&&&&&&&&&,right,care.vice,,,,,,,0,223,223,223,,,,,,,,,,,,,,,,,,,,,AMP,left,0.4670624824066181,,,left,0,0.4670624824066181,0,,,,,,,,,,,,,,,,,,,,,,1049,2019_Mar_13_1143,mf_amp_cond1,3.0.4,59.99505485772638,
metibolic,dumid,&&&&&,None,nonword,,,,,,,0,224,224,224,,,,,,,,,,,,,,,,,,,,,AMP,left,1.2338335232634563,,,left,0,1.2338335232634563,0,,,,,,,,,,,,,,,,,,,,,,1049,2019_Mar_13_1143,mf_amp_cond1,3.0.4,59.99505485772638,
civilians,mecan,&&&&&,right,care.vice,,,,,,,0,225,225,225,,,,,,,,,,,,,,,,,,,,,AMP,left,1.017196560947923,,,left,0,1.017196560947923,0,,,,,,,,,,,,,,,,,,,,,,1049,2019_Mar_13_1143,mf_amp_cond1,3.0.4,59.99505485772638,
loyalty,wump,&&&&,left,loyalty.virtue,,,,,,,0,226,226,226,,,,,,,,,,,,,,,,,,,,,AMP,right,0.6837661552708596,,,right,0,0.6837661552708596,0,,,,,,,,,,,,,,,,,,,,,,1049,2019_Mar_13_1143,mf_amp_cond1,3.0.4,59.99505485772638,
support,fangsters,&&&&&&&&&,left,loyalty.virtue,,,,,,,0,227,227,227,,,,,,,,,,,,,,,,,,,,,AMP,left,1.5506478777970187,,,left,1,1.5506478777970187,1,,,,,,,,,,,,,,,,,,,,,,1049,2019_Mar_13_1143,mf_amp_cond1,3.0.4,59.99505485772638,
unpleasant,ilportation,&&&&&&&&&&&,None,control,,,,,,,0,228,228,228,,,,,,,,,,,,,,,,,,,,,AMP,left,1.6506658704020083,,,left,0,1.6506658704020083,0,,,,,,,,,,,,,,,,,,,,,,1049,2019_Mar_13_1143,mf_amp_cond1,3.0.4,59.99505485772638,
friends,lursuer,&&&&&&&,left,loyalty.virtue,,,,,,,0,229,229,229,,,,,,,,,,,,,,,,,,,,,AMP,right,0.5503499255282804,,,right,0,0.5503499255282804,0,,,,,,,,,,,,,,,,,,,,,,1049,2019_Mar_13_1143,mf_amp_cond1,3.0.4,59.99505485772638,
fraud,blunderints,&&&&&&&&&&&,right,fairness.vice,,,,,,,0,230,230,230,,,,,,,,,,,,,,,,,,,,,AMP,left,1.2172408849583007,,,left,0,1.2172408849583007,0,,,,,,,,,,,,,,,,,,,,,,1049,2019_Mar_13_1143,mf_amp_cond1,3.0.4,59.99505485772638,
terrorist,clattening,&&&&&&&&&&,right,loyalty.vice,,,,,,,0,231,231,231,,,,,,,,,,,,,,,,,,,,,AMP,left,1.0505159000458661,,,left,0,1.0505159000458661,0,,,,,,,,,,,,,,,,,,,,,,1049,2019_Mar_13_1143,mf_amp_cond1,3.0.4,59.99505485772638,
actively,seachwear,&&&&&&&&&,left,authority.virtue,,,,,,,0,232,232,232,,,,,,,,,,,,,,,,,,,,,AMP,right,2.134161270747427,,,right,0,2.134161270747427,0,,,,,,,,,,,,,,,,,,,,,,1049,2019_Mar_13_1143,mf_amp_cond1,3.0.4,59.99505485772638,
critics,slending,&&&&&&&&,right,loyalty.vice,,,,,,,0,233,233,233,,,,,,,,,,,,,,,,,,,,,AMP,right,1.3005783609696664,,,right,1,1.3005783609696664,1,,,,,,,,,,,,,,,,,,,,,,1049,2019_Mar_13_1143,mf_amp_cond1,3.0.4,59.99505485772638,
elduringly,brotesque,&&&&&&&&&,None,nonword,,,,,,,0,234,234,234,,,,,,,,,,,,,,,,,,,,,AMP,left,0.9671899700770155,,,left,0,0.9671899700770155,0,,,,,,,,,,,,,,,,,,,,,,1049,2019_Mar_13_1143,mf_amp_cond1,3.0.4,59.99505485772638,
betrayal,smapper,&&&&&&&,right,loyalty.vice,,,,,,,0,235,235,235,,,,,,,,,,,,,,,,,,,,,AMP,right,1.0505184658395592,,,right,1,1.0505184658395592,1,,,,,,,,,,,,,,,,,,,,,,1049,2019_Mar_13_1143,mf_amp_cond1,3.0.4,59.99505485772638,
death,proached,&&&&&&&&,right,care.vice,,,,,,,0,236,236,236,,,,,,,,,,,,,,,,,,,,,AMP,left,0.8337894558208063,,,left,0,0.8337894558208063,0,,,,,,,,,,,,,,,,,,,,,,1049,2019_Mar_13_1143,mf_amp_cond1,3.0.4,59.99505485772638,
neneficence,brudent,&&&&&&&,None,nonword,,,,,,,0,237,237,237,,,,,,,,,,,,,,,,,,,,,AMP,left,1.2172383191646077,,,left,0,1.2172383191646077,0,,,,,,,,,,,,,,,,,,,,,,1049,2019_Mar_13_1143,mf_amp_cond1,3.0.4,59.99505485772638,
faith,strofe,&&&&&&,left,sanctity.virtue,,,,,,,0,238,238,238,,,,,,,,,,,,,,,,,,,,,AMP,left,0.8504641993786208,,,left,1,0.8504641993786208,1,,,,,,,,,,,,,,,,,,,,,,1049,2019_Mar_13_1143,mf_amp_cond1,3.0.4,59.99505485772638,
commitment,fegard,&&&&&&,left,sanctity.virtue,,,,,,,0,239,239,239,,,,,,,,,,,,,,,,,,,,,AMP,left,1.5839806873118505,,,left,1,1.5839806873118505,1,,,,,,,,,,,,,,,,,,,,,,1049,2019_Mar_13_1143,mf_amp_cond1,3.0.4,59.99505485772638,
strong,sfumatoy,&&&&&&&&,left,loyalty.virtue,,,,,,,0,240,240,240,,,,,,,,,,,,,,,,,,,,,AMP,left,1.2672186106792651,,,left,1,1.2672186106792651,1,,,,,,,,,,,,,,,,,,,,,,1049,2019_Mar_13_1143,mf_amp_cond1,3.0.4,59.99505485772638,
encourage,nomparisons,&&&&&&&&&&&,left,authority.virtue,,,,,,,0,241,241,241,,,,,,,,,,,,,,,,,,,,,AMP,right,1.1005638642527629,,,right,0,1.1005638642527629,0,,,,,,,,,,,,,,,,,,,,,,1049,2019_Mar_13_1143,mf_amp_cond1,3.0.4,59.99505485772638,
energy,tracious,&&&&&&&&,left,sanctity.virtue,,,,,,,0,242,242,242,,,,,,,,,,,,,,,,,,,,,AMP,right,0.8504985168401618,,,right,0,0.8504985168401618,0,,,,,,,,,,,,,,,,,,,,,,1049,2019_Mar_13_1143,mf_amp_cond1,3.0.4,59.99505485772638,
lies,saned,&&&&&,right,fairness.vice,,,,,,,0,243,243,243,,,,,,,,,,,,,,,,,,,,,AMP,left,0.41702253627590835,,,left,0,0.41702253627590835,0,,,,,,,,,,,,,,,,,,,,,,1049,2019_Mar_13_1143,mf_amp_cond1,3.0.4,59.99505485772638,
groups,laming,&&&&&&,right,loyalty.vice,,,,,,,0,244,244,244,,,,,,,,,,,,,,,,,,,,,AMP,left,0.8504795941116754,,,left,0,0.8504795941116754,0,,,,,,,,,,,,,,,,,,,,,,1049,2019_Mar_13_1143,mf_amp_cond1,3.0.4,59.99505485772638,
ensure,reelectiob,&&&&&&&&&&,left,fairness.virtue,,,,,,,0,245,245,245,,,,,,,,,,,,,,,,,,,,,AMP,right,0.7004187688871752,,,right,0,0.7004187688871752,0,,,,,,,,,,,,,,,,,,,,,,1049,2019_Mar_13_1143,mf_amp_cond1,3.0.4,59.99505485772638,
rejected,pullness,&&&&&&&&,right,authority.vice,,,,,,,0,246,246,246,,,,,,,,,,,,,,,,,,,,,AMP,right,1.0505219937767833,,,right,1,1.0505219937767833,1,,,,,,,,,,,,,,,,,,,,,,1049,2019_Mar_13_1143,mf_amp_cond1,3.0.4,59.99505485772638,
good,strofe,&&&&&&,left,care.virtue,,,,,,,0,247,247,247,,,,,,,,,,,,,,,,,,,,,AMP,left,0.5503861673059873,,,left,1,0.5503861673059873,1,,,,,,,,,,,,,,,,,,,,,,1049,2019_Mar_13_1143,mf_amp_cond1,3.0.4,59.99505485772638,
drug,leact,&&&&&,right,sanctity.vice,,,,,,,0,248,248,248,,,,,,,,,,,,,,,,,,,,,AMP,right,2.534242542111315,,,right,1,2.534242542111315,1,,,,,,,,,,,,,,,,,,,,,,1049,2019_Mar_13_1143,mf_amp_cond1,3.0.4,59.99505485772638,
interests,gowlands,&&&&&&&&,left,fairness.virtue,,,,,,,0,249,249,249,,,,,,,,,,,,,,,,,,,,,AMP,left,2.634258289675927,,,left,1,2.634258289675927,1,,,,,,,,,,,,,,,,,,,,,,1049,2019_Mar_13_1143,mf_amp_cond1,3.0.4,59.99505485772638,
trust,fegard,&&&&&&,left,authority.virtue,,,,,,,0,250,250,250,,,,,,,,,,,,,,,,,,,,,AMP,right,2.01742844414548,,,right,0,2.01742844414548,0,,,,,,,,,,,,,,,,,,,,,,1049,2019_Mar_13_1143,mf_amp_cond1,3.0.4,59.99505485772638,
serial,photocalkodes,&&&&&&&&&&&&&,right,sanctity.vice,,,,,,,0,251,251,251,,,,,,,,,,,,,,,,,,,,,AMP,left,0.4670506156689953,,,left,0,0.4670506156689953,0,,,,,,,,,,,,,,,,,,,,,,1049,2019_Mar_13_1143,mf_amp_cond1,3.0.4,59.99505485772638,
threatened,reelectiob,&&&&&&&&&&,right,fairness.vice,,,,,,,0,252,252,252,,,,,,,,,,,,,,,,,,,,,AMP,left,0.45038421091157943,,,left,0,0.45038421091157943,0,,,,,,,,,,,,,,,,,,,,,,1049,2019_Mar_13_1143,mf_amp_cond1,3.0.4,59.99505485772638,
groups,halaise,&&&&&&&,right,loyalty.vice,,,,,,,0,253,253,253,,,,,,,,,,,,,,,,,,,,,AMP,right,0.8671264347212855,,,right,1,0.8671264347212855,1,,,,,,,,,,,,,,,,,,,,,,1049,2019_Mar_13_1143,mf_amp_cond1,3.0.4,59.99505485772638,
gondensed,gazily,&&&&&&,None,nonword,,,,,,,0,254,254,254,,,,,,,,,,,,,,,,,,,,,AMP,left,0.5337467033823486,,,left,0,0.5337467033823486,0,,,,,,,,,,,,,,,,,,,,,,1049,2019_Mar_13_1143,mf_amp_cond1,3.0.4,59.99505485772638,
safety,chadows,&&&&&&&,left,care.virtue,,,,,,,0,255,255,255,,,,,,,,,,,,,,,,,,,,,AMP,left,1.2505746565875597,,,left,1,1.2505746565875597,1,,,,,,,,,,,,,,,,,,,,,,1049,2019_Mar_13_1143,mf_amp_cond1,3.0.4,59.99505485772638,
faith,nonobservalt,&&&&&&&&&&&&,left,sanctity.virtue,,,,,,,0,256,256,256,,,,,,,,,,,,,,,,,,,,,AMP,left,1.7840458583377767,,,left,1,1.7840458583377767,1,,,,,,,,,,,,,,,,,,,,,,1049,2019_Mar_13_1143,mf_amp_cond1,3.0.4,59.99505485772638,
failure,frocessing,&&&&&&&&&&,right,loyalty.vice,,,,,,,0,257,257,257,,,,,,,,,,,,,,,,,,,,,AMP,left,1.4839796930609737,,,left,0,1.4839796930609737,0,,,,,,,,,,,,,,,,,,,,,,1049,2019_Mar_13_1143,mf_amp_cond1,3.0.4,59.99505485772638,
progress,emassion,&&&&&&&&,left,authority.virtue,,,,,,,0,258,258,258,,,,,,,,,,,,,,,,,,,,,AMP,right,0.8338000397197902,,,right,0,0.8338000397197902,0,,,,,,,,,,,,,,,,,,,,,,1049,2019_Mar_13_1143,mf_amp_cond1,3.0.4,59.99505485772638,
conspiracy,Oregoniuns,&&&&&&&&&&,right,sanctity.vice,,,,,,,0,259,259,259,,,,,,,,,,,,,,,,,,,,,AMP,left,0.5337181589566171,,,left,0,0.5337181589566171,0,,,,,,,,,,,,,,,,,,,,,,1049,2019_Mar_13_1143,mf_amp_cond1,3.0.4,59.99505485772638,
troops,glacenta,&&&&&&&&,right,loyalty.vice,,,,,,,0,260,260,260,,,,,,,,,,,,,,,,,,,,,AMP,right,1.8173741776845418,,,right,1,1.8173741776845418,1,,,,,,,,,,,,,,,,,,,,,,1049,2019_Mar_13_1143,mf_amp_cond1,3.0.4,59.99505485772638,
elduringly,mecan,&&&&&,None,nonword,,,,,,,0,261,261,261,,,,,,,,,,,,,,,,,,,,,AMP,left,0.9338177115714643,,,left,0,0.9338177115714643,0,,,,,,,,,,,,,,,,,,,,,,1049,2019_Mar_13_1143,mf_amp_cond1,3.0.4,59.99505485772638,
protesters,esquisiteness,&&&&&&&&&&&&&,right,authority.vice,,,,,,,0,262,262,262,,,,,,,,,,,,,,,,,,,,,AMP,right,1.4839261322049424,,,right,1,1.4839261322049424,1,,,,,,,,,,,,,,,,,,,,,,1049,2019_Mar_13_1143,mf_amp_cond1,3.0.4,59.99505485772638,
loyalty,erdest,&&&&&&,left,loyalty.virtue,,,,,,,0,263,263,263,,,,,,,,,,,,,,,,,,,,,AMP,left,1.6340052387095056,,,left,1,1.6340052387095056,1,,,,,,,,,,,,,,,,,,,,,,1049,2019_Mar_13_1143,mf_amp_cond1,3.0.4,59.99505485772638,
gun,brudent,&&&&&&&,right,authority.vice,,,,,,,0,264,264,264,,,,,,,,,,,,,,,,,,,,,AMP,left,3.4011332449445035,,,left,0,3.4011332449445035,0,,,,,,,,,,,,,,,,,,,,,,1049,2019_Mar_13_1143,mf_amp_cond1,3.0.4,59.99505485772638,
injured,precificity,&&&&&&&&&&&,right,care.vice,,,,,,,0,265,265,265,,,,,,,,,,,,,,,,,,,,,AMP,right,2.784297947131563,,,right,1,2.784297947131563,1,,,,,,,,,,,,,,,,,,,,,,1049,2019_Mar_13_1143,mf_amp_cond1,3.0.4,59.99505485772638,
actively,supervuned,&&&&&&&&&&,left,authority.virtue,,,,,,,0,266,266,266,,,,,,,,,,,,,,,,,,,,,AMP,right,1.8673916731786449,,,right,0,1.8673916731786449,0,,,,,,,,,,,,,,,,,,,,,,1049,2019_Mar_13_1143,mf_amp_cond1,3.0.4,59.99505485772638,
died,sfumatoy,&&&&&&&&,right,care.vice,,,,,,,0,267,267,267,,,,,,,,,,,,,,,,,,,,,AMP,left,0.3836743320862297,,,left,0,0.3836743320862297,0,,,,,,,,,,,,,,,,,,,,,,1049,2019_Mar_13_1143,mf_amp_cond1,3.0.4,59.99505485772638,
promised,scalbel,&&&&&&&,left,loyalty.virtue,,,,,,,0,268,268,268,,,,,,,,,,,,,,,,,,,,,AMP,right,0.5837324472086038,,,right,0,0.5837324472086038,0,,,,,,,,,,,,,,,,,,,,,,1049,2019_Mar_13_1143,mf_amp_cond1,3.0.4,59.99505485772638,
friends,clattening,&&&&&&&&&&,left,loyalty.virtue,,,,,,,0,269,269,269,,,,,,,,,,,,,,,,,,,,,AMP,right,0.8838306848483626,,,right,0,0.8838306848483626,0,,,,,,,,,,,,,,,,,,,,,,1049,2019_Mar_13_1143,mf_amp_cond1,3.0.4,59.99505485772638,
unpleasant,imebreaker,&&&&&&&&&&,None,control,,,,,,,0,270,270,270,,,,,,,,,,,,,,,,,,,,,AMP,left,3.3177826192986686,,,left,0,3.3177826192986686,0,,,,,,,,,,,,,,,,,,,,,,1049,2019_Mar_13_1143,mf_amp_cond1,3.0.4,59.99505485772638,
terrorist,touls,&&&&&,right,loyalty.vice,,,,,,,0,271,271,271,,,,,,,,,,,,,,,,,,,,,AMP,left,0.6504246862314176,,,left,0,0.6504246862314176,0,,,,,,,,,,,,,,,,,,,,,,1049,2019_Mar_13_1143,mf_amp_cond1,3.0.4,59.99505485772638,
support,fangsters,&&&&&&&&&,left,loyalty.virtue,,,,,,,0,272,272,272,,,,,,,,,,,,,,,,,,,,,AMP,right,0.9838310376508161,,,right,0,0.9838310376508161,0,,,,,,,,,,,,,,,,,,,,,,1049,2019_Mar_13_1143,mf_amp_cond1,3.0.4,59.99505485772638,
death,totalestic,&&&&&&&&&&,right,care.vice,,,,,,,0,273,273,273,,,,,,,,,,,,,,,,,,,,,AMP,left,0.750290335068712,,,left,0,0.750290335068712,0,,,,,,,,,,,,,,,,,,,,,,1049,2019_Mar_13_1143,mf_amp_cond1,3.0.4,59.99505485772638,
abuse,tracious,&&&&&&&&,right,sanctity.vice,,,,,,,0,274,274,274,,,,,,,,,,,,,,,,,,,,,AMP,left,1.4172807188297156,,,left,0,1.4172807188297156,0,,,,,,,,,,,,,,,,,,,,,,1049,2019_Mar_13_1143,mf_amp_cond1,3.0.4,59.99505485772638,
fraud,disregord,&&&&&&&&&,right,fairness.vice,,,,,,,0,275,275,275,,,,,,,,,,,,,,,,,,,,,AMP,left,1.367260978295235,,,left,0,1.367260978295235,0,,,,,,,,,,,,,,,,,,,,,,1049,2019_Mar_13_1143,mf_amp_cond1,3.0.4,59.99505485772638,
charges,viscs,&&&&&,right,fairness.vice,,,,,,,0,276,276,276,,,,,,,,,,,,,,,,,,,,,AMP,left,1.5339686441293452,,,left,0,1.5339686441293452,0,,,,,,,,,,,,,,,,,,,,,,1049,2019_Mar_13_1143,mf_amp_cond1,3.0.4,59.99505485772638,
values,squets,&&&&&&,left,sanctity.virtue,,,,,,,0,277,277,277,,,,,,,,,,,,,,,,,,,,,AMP,right,0.6837639101722743,,,right,0,0.6837639101722743,0,,,,,,,,,,,,,,,,,,,,,,1049,2019_Mar_13_1143,mf_amp_cond1,3.0.4,59.99505485772638,
restore,dumid,&&&&&,left,care.virtue,,,,,,,0,278,278,278,,,,,,,,,,,,,,,,,,,,,AMP,right,1.0172058619500604,,,right,0,1.0172058619500604,0,,,,,,,,,,,,,,,,,,,,,,1049,2019_Mar_13_1143,mf_amp_cond1,3.0.4,59.99505485772638,
sharing,scock,&&&&&,left,loyalty.virtue,,,,,,,0,279,279,279,,,,,,,,,,,,,,,,,,,,,AMP,left,0.6670981468923856,,,left,1,0.6670981468923856,1,,,,,,,,,,,,,,,,,,,,,,1049,2019_Mar_13_1143,mf_amp_cond1,3.0.4,59.99505485772638,
opportunity,asn,&&&,left,fairness.virtue,,,,,,,0,280,280,280,,,,,,,,,,,,,,,,,,,,,AMP,left,1.4506154526607133,,,left,1,1.4506154526607133,1,,,,,,,,,,,,,,,,,,,,,,1049,2019_Mar_13_1143,mf_amp_cond1,3.0.4,59.99505485772638,
openet,fonderland,&&&&&&&&&&,None,nonword,,,,,,,0,281,281,281,,,,,,,,,,,,,,,,,,,,,AMP,left,1.8674099544296041,,,left,0,1.8674099544296041,0,,,,,,,,,,,,,,,,,,,,,,1049,2019_Mar_13_1143,mf_amp_cond1,3.0.4,59.99505485772638,
sexual,antral,&&&&&&,right,sanctity.vice,,,,,,,0,282,282,282,,,,,,,,,,,,,,,,,,,,,AMP,left,1.2505714493745472,,,left,0,1.2505714493745472,0,,,,,,,,,,,,,,,,,,,,,,1049,2019_Mar_13_1143,mf_amp_cond1,3.0.4,59.99505485772638,
pleasant,taxpayung,&&&&&&&&&,None,control,,,,,,,0,283,283,283,,,,,,,,,,,,,,,,,,,,,AMP,left,1.8007292614493053,,,left,0,1.8007292614493053,0,,,,,,,,,,,,,,,,,,,,,,1049,2019_Mar_13_1143,mf_amp_cond1,3.0.4,59.99505485772638,
fear,troubla,&&&&&&&,right,sanctity.vice,,,,,,,0,284,284,284,,,,,,,,,,,,,,,,,,,,,AMP,left,0.4836987391463481,,,left,0,0.4836987391463481,0,,,,,,,,,,,,,,,,,,,,,,1049,2019_Mar_13_1143,mf_amp_cond1,3.0.4,59.99505485772638,
shot,ebbitter,&&&&&&&&,right,care.vice,,,,,,,0,285,285,285,,,,,,,,,,,,,,,,,,,,,AMP,left,0.3169965255947318,,,left,0,0.3169965255947318,0,,,,,,,,,,,,,,,,,,,,,,1049,2019_Mar_13_1143,mf_amp_cond1,3.0.4,59.99505485772638,
energy,focomotive,&&&&&&&&&&,left,sanctity.virtue,,,,,,,0,286,286,286,,,,,,,,,,,,,,,,,,,,,AMP,right,1.417304131668061,,,right,0,1.417304131668061,0,,,,,,,,,,,,,,,,,,,,,,1049,2019_Mar_13_1143,mf_amp_cond1,3.0.4,59.99505485772638,
army,gournful,&&&&&&&&,right,loyalty.vice,,,,,,,0,287,287,287,,,,,,,,,,,,,,,,,,,,,AMP,left,0.48370258780778386,,,left,0,0.48370258780778386,0,,,,,,,,,,,,,,,,,,,,,,1049,2019_Mar_13_1143,mf_amp_cond1,3.0.4,59.99505485772638,
agreement,gaultless,&&&&&&&&&,left,fairness.virtue,,,,,,,0,288,288,288,,,,,,,,,,,,,,,,,,,,,AMP,left,1.917424242652487,,,left,1,1.917424242652487,1,,,,,,,,,,,,,,,,,,,,,,1049,2019_Mar_13_1143,mf_amp_cond1,3.0.4,59.99505485772638,
dignity,laming,&&&&&&,left,sanctity.virtue,,,,,,,0,289,289,289,,,,,,,,,,,,,,,,,,,,,AMP,right,1.0005186101479921,,,right,0,1.0005186101479921,0,,,,,,,,,,,,,,,,,,,,,,1049,2019_Mar_13_1143,mf_amp_cond1,3.0.4,59.99505485772638,
protect,lursuer,&&&&&&&,left,fairness.virtue,,,,,,,0,290,290,290,,,,,,,,,,,,,,,,,,,,,AMP,left,0.8504997997079045,,,left,1,0.8504997997079045,1,,,,,,,,,,,,,,,,,,,,,,1049,2019_Mar_13_1143,mf_amp_cond1,3.0.4,59.99505485772638,
killed,mightingale,&&&&&&&&&&&,right,care.vice,,,,,,,0,291,291,291,,,,,,,,,,,,,,,,,,,,,AMP,left,0.7837039669393562,,,left,0,0.7837039669393562,0,,,,,,,,,,,,,,,,,,,,,,1049,2019_Mar_13_1143,mf_amp_cond1,3.0.4,59.99505485772638,
prison,baklara,&&&&&&&,right,fairness.vice,,,,,,,0,292,292,292,,,,,,,,,,,,,,,,,,,,,AMP,left,0.9504979074408766,,,left,0,0.9504979074408766,0,,,,,,,,,,,,,,,,,,,,,,1049,2019_Mar_13_1143,mf_amp_cond1,3.0.4,59.99505485772638,
neneficence,reprisols,&&&&&&&&&,None,nonword,,,,,,,0,293,293,293,,,,,,,,,,,,,,,,,,,,,AMP,left,2.500899148755707,,,left,0,2.500899148755707,0,,,,,,,,,,,,,,,,,,,,,,1049,2019_Mar_13_1143,mf_amp_cond1,3.0.4,59.99505485772638,
growth,discovars,&&&&&&&&&,left,care.virtue,,,,,,,0,294,294,294,,,,,,,,,,,,,,,,,,,,,AMP,right,1.4172800773812924,,,right,0,1.4172800773812924,0,,,,,,,,,,,,,,,,,,,,,,1049,2019_Mar_13_1143,mf_amp_cond1,3.0.4,59.99505485772638,
gationwide,epigrach,&&&&&&&&,None,nonword,,,,,,,0,295,295,295,,,,,,,,,,,,,,,,,,,,,AMP,left,2.1341269533440936,,,left,0,2.1341269533440936,0,,,,,,,,,,,,,,,,,,,,,,1049,2019_Mar_13_1143,mf_amp_cond1,3.0.4,59.99505485772638,
suicide,shoirmaster,&&&&&&&&&&&,right,care.vice,,,,,,,0,296,296,296,,,,,,,,,,,,,,,,,,,,,AMP,left,0.8838217045995407,,,left,0,0.8838217045995407,0,,,,,,,,,,,,,,,,,,,,,,1049,2019_Mar_13_1143,mf_amp_cond1,3.0.4,59.99505485772638,
hate,nomparisons,&&&&&&&&&&&,right,fairness.vice,,,,,,,0,297,297,297,,,,,,,,,,,,,,,,,,,,,AMP,left,2.1508103564265184,,,left,0,2.1508103564265184,0,,,,,,,,,,,,,,,,,,,,,,1049,2019_Mar_13_1143,mf_amp_cond1,3.0.4,59.99505485772638,
commitment,pumber,&&&&&&,left,sanctity.virtue,,,,,,,0,298,298,298,,,,,,,,,,,,,,,,,,,,,AMP,left,1.1838458550628275,,,left,1,1.1838458550628275,1,,,,,,,,,,,,,,,,,,,,,,1049,2019_Mar_13_1143,mf_amp_cond1,3.0.4,59.99505485772638,
officers,alar,&&&&,right,authority.vice,,,,,,,0,299,299,299,,,,,,,,,,,,,,,,,,,,,AMP,left,0.6003895509347785,,,left,0,0.6003895509347785,0,,,,,,,,,,,,,,,,,,,,,,1049,2019_Mar_13_1143,mf_amp_cond1,3.0.4,59.99505485772638,
betrayal,Cunday,&&&&&&,right,loyalty.vice,,,,,,,0,300,300,300,,,,,,,,,,,,,,,,,,,,,AMP,right,1.0005044983117841,,,right,1,1.0005044983117841,1,,,,,,,,,,,,,,,,,,,,,,1049,2019_Mar_13_1143,mf_amp_cond1,3.0.4,59.99505485772638,
encourage,proached,&&&&&&&&,left,authority.virtue,,,,,,,0,301,301,301,,,,,,,,,,,,,,,,,,,,,AMP,left,1.0838679529551882,,,left,1,1.0838679529551882,1,,,,,,,,,,,,,,,,,,,,,,1049,2019_Mar_13_1143,mf_amp_cond1,3.0.4,59.99505485772638,
corruption,rorroborated,&&&&&&&&&&&&,right,sanctity.vice,,,,,,,0,302,302,302,,,,,,,,,,,,,,,,,,,,,AMP,left,1.2339236465923022,,,left,0,1.2339236465923022,0,,,,,,,,,,,,,,,,,,,,,,1049,2019_Mar_13_1143,mf_amp_cond1,3.0.4,59.99505485772638,
vurtain,coom,&&&&,None,nonword,,,,,,,0,303,303,303,,,,,,,,,,,,,,,,,,,,,AMP,left,1.0171705823449884,,,left,0,1.0171705823449884,0,,,,,,,,,,,,,,,,,,,,,,1049,2019_Mar_13_1143,mf_amp_cond1,3.0.4,59.99505485772638,
civilians,ning,&&&&,right,care.vice,,,,,,,0,304,304,304,,,,,,,,,,,,,,,,,,,,,AMP,right,1.2172270938463043,,,right,1,1.2172270938463043,1,,,,,,,,,,,,,,,,,,,,,,1049,2019_Mar_13_1143,mf_amp_cond1,3.0.4,59.99505485772638,
strength,edancipation,&&&&&&&&&&&&,left,sanctity.virtue,,,,,,,0,305,305,305,,,,,,,,,,,,,,,,,,,,,AMP,left,1.2338976679893676,,,left,1,1.2338976679893676,1,,,,,,,,,,,,,,,,,,,,,,1049,2019_Mar_13_1143,mf_amp_cond1,3.0.4,59.99505485772638,
prosecution,oam,&&&,right,authority.vice,,,,,,,0,306,306,306,,,,,,,,,,,,,,,,,,,,,AMP,left,0.7504404337669257,,,left,0,0.7504404337669257,0,,,,,,,,,,,,,,,,,,,,,,1049,2019_Mar_13_1143,mf_amp_cond1,3.0.4,59.99505485772638,
lies,smapper,&&&&&&&,right,fairness.vice,,,,,,,0,307,307,307,,,,,,,,,,,,,,,,,,,,,AMP,right,1.2338934985746164,,,right,1,1.2338934985746164,1,,,,,,,,,,,,,,,,,,,,,,1049,2019_Mar_13_1143,mf_amp_cond1,3.0.4,59.99505485772638,
refused,slending,&&&&&&&&,right,authority.vice,,,,,,,0,308,308,308,,,,,,,,,,,,,,,,,,,,,AMP,left,1.3672981822455768,,,left,0,1.3672981822455768,0,,,,,,,,,,,,,,,,,,,,,,1049,2019_Mar_13_1143,mf_amp_cond1,3.0.4,59.99505485772638,
gedious,blunderints,&&&&&&&&&&&,None,nonword,,,,,,,0,309,309,309,,,,,,,,,,,,,,,,,,,,,AMP,left,1.133856903994456,,,left,0,1.133856903994456,0,,,,,,,,,,,,,,,,,,,,,,1049,2019_Mar_13_1143,mf_amp_cond1,3.0.4,59.99505485772638,
win,saned,&&&&&,left,fairness.virtue,,,,,,,0,310,310,310,,,,,,,,,,,,,,,,,,,,,AMP,right,2.150812601496,,,right,0,2.150812601496,0,,,,,,,,,,,,,,,,,,,,,,1049,2019_Mar_13_1143,mf_amp_cond1,3.0.4,59.99505485772638,
celebrated,Loorish,&&&&&&&,left,authority.virtue,,,,,,,0,311,311,311,,,,,,,,,,,,,,,,,,,,,AMP,right,0.7337740290095098,,,right,0,0.7337740290095098,0,,,,,,,,,,,,,,,,,,,,,,1049,2019_Mar_13_1143,mf_amp_cond1,3.0.4,59.99505485772638,
critics,lorthwhile,&&&&&&&&&&,right,loyalty.vice,,,,,,,0,312,312,312,,,,,,,,,,,,,,,,,,,,,AMP,left,0.4670304100436624,,,left,0,0.4670304100436624,0,,,,,,,,,,,,,,,,,,,,,,1049,2019_Mar_13_1143,mf_amp_cond1,3.0.4,59.99505485772638,
peaceful,ilportation,&&&&&&&&&&&,left,authority.virtue,,,,,,,0,313,313,313,,,,,,,,,,,,,,,,,,,,,AMP,right,0.5503823186154477,,,right,0,0.5503823186154477,0,,,,,,,,,,,,,,,,,,,,,,1049,2019_Mar_13_1143,mf_amp_cond1,3.0.4,59.99505485772638,
strong,thadowed,&&&&&&&&,left,loyalty.virtue,,,,,,,0,314,314,314,,,,,,,,,,,,,,,,,,,,,AMP,right,0.6002574128215201,,,right,0,0.6002574128215201,0,,,,,,,,,,,,,,,,,,,,,,1049,2019_Mar_13_1143,mf_amp_cond1,3.0.4,59.99505485772638,
free,infet,&&&&&,left,fairness.virtue,,,,,,,0,315,315,315,,,,,,,,,,,,,,,,,,,,,AMP,right,0.8004438173957169,,,right,0,0.8004438173957169,0,,,,,,,,,,,,,,,,,,,,,,1049,2019_Mar_13_1143,mf_amp_cond1,3.0.4,59.99505485772638,
metibolic,nuckheap,&&&&&&&&,None,nonword,,,,,,,0,316,316,316,,,,,,,,,,,,,,,,,,,,,AMP,left,1.0004961595113855,,,left,0,1.0004961595113855,0,,,,,,,,,,,,,,,,,,,,,,1049,2019_Mar_13_1143,mf_amp_cond1,3.0.4,59.99505485772638,
help,Lacedonia,&&&&&&&&&,left,care.virtue,,,,,,,0,317,317,317,,,,,,,,,,,,,,,,,,,,,AMP,right,3.117746313364478,,,right,0,3.117746313364478,0,,,,,,,,,,,,,,,,,,,,,,1049,2019_Mar_13_1143,mf_amp_cond1,3.0.4,59.99505485772638,
powerful,wump,&&&&,left,authority.virtue,,,,,,,0,318,318,318,,,,,,,,,,,,,,,,,,,,,AMP,right,0.900475601083599,,,right,0,0.900475601083599,0,,,,,,,,,,,,,,,,,,,,,,1049,2019_Mar_13_1143,mf_amp_cond1,3.0.4,59.99505485772638,
love,tomedians,&&&&&&&&&,left,loyalty.virtue,,,,,,,0,319,319,319,,,,,,,,,,,,,,,,,,,,,AMP,right,1.967412552301539,,,right,0,1.967412552301539,0,,,,,,,,,,,,,,,,,,,,,,1049,2019_Mar_13_1143,mf_amp_cond1,3.0.4,59.99505485772638,
honstables,neutralust,&&&&&&&&&&,None,nonword,,,,,,,0,320,320,320,,,,,,,,,,,,,,,,,,,,,AMP,right,1.3672686756472103,,,right,0,1.3672686756472103,0,,,,,,,,,,,,,,,,,,,,,,1049,2019_Mar_13_1143,mf_amp_cond1,3.0.4,59.99505485772638,
respect,sowntrodden,&&&&&&&&&&&,left,sanctity.virtue,,,,,,,0,321,321,321,,,,,,,,,,,,,,,,,,,,,AMP,right,0.9338305405399296,,,right,0,0.9338305405399296,0,,,,,,,,,,,,,,,,,,,,,,1049,2019_Mar_13_1143,mf_amp_cond1,3.0.4,59.99505485772638,
improve,seachwear,&&&&&&&&&,left,care.virtue,,,,,,,0,322,322,322,,,,,,,,,,,,,,,,,,,,,AMP,right,1.3506032330624294,,,right,0,1.3506032330624294,0,,,,,,,,,,,,,,,,,,,,,,1049,2019_Mar_13_1143,mf_amp_cond1,3.0.4,59.99505485772638,
care,bluently,&&&&&&&&,left,care.virtue,,,,,,,0,323,323,323,,,,,,,,,,,,,,,,,,,,,AMP,right,0.9004505846532993,,,right,0,0.9004505846532993,0,,,,,,,,,,,,,,,,,,,,,,1049,2019_Mar_13_1143,mf_amp_cond1,3.0.4,59.99505485772638,
penalty,atson,&&&&&,right,authority.vice,,,,,,,0,324,324,324,,,,,,,,,,,,,,,,,,,,,AMP,left,1.1672253138094675,,,left,0,1.1672253138094675,0,,,,,,,,,,,,,,,,,,,,,,1049,2019_Mar_13_1143,mf_amp_cond1,3.0.4,59.99505485772638,
presentkess,tislay,&&&&&&,None,nonword,,,,,,,0,325,325,325,,,,,,,,,,,,,,,,,,,,,AMP,left,2.1674661772849504,,,left,0,2.1674661772849504,0,,,,,,,,,,,,,,,,,,,,,,1049,2019_Mar_13_1143,mf_amp_cond1,3.0.4,59.99505485772638,
ensure,brotesque,&&&&&&&&&,left,fairness.virtue,,,,,,,0,326,326,326,,,,,,,,,,,,,,,,,,,,,AMP,left,0.5670561000297312,,,left,1,0.5670561000297312,1,,,,,,,,,,,,,,,,,,,,,,1049,2019_Mar_13_1143,mf_amp_cond1,3.0.4,59.99505485772638,
accused,dormandi,&&&&&&&&,right,fairness.vice,,,,,,,0,327,327,327,,,,,,,,,,,,,,,,,,,,,AMP,left,2.117456058447715,,,left,0,2.117456058447715,0,,,,,,,,,,,,,,,,,,,,,,1049,2019_Mar_13_1143,mf_amp_cond1,3.0.4,59.99505485772638,
,,,,,,,,,,,,,,,,,,,,,,,,,,,,,,,,,,,,,,,,,,,,5,16.089,,,,,,,,,,,,,,,,,,,,1049,2019_Mar_13_1143,mf_amp_cond1,3.0.4,59.99505485772638,
,,,,,,,,,,,,,,,,,,,,,,,,,,,,,,,,,,,,,,,,,,,,,,6,7.154,,,,,,,,,,,,,,,,,,1049,2019_Mar_13_1143,mf_amp_cond1,3.0.4,59.99505485772638,
,,,,,,,,,,,,,,,,,,,,,,,,,,,,,,,,,,,,,,,,,,,,,,,,2,9.038,,,,,,,,,,,,,,,,1049,2019_Mar_13_1143,mf_amp_cond1,3.0.4,59.99505485772638,
,,,,,,,,,,,,,,,,,,,,,,,,,,,,,,,,,,,,,,,,,,,,,,,,,,right,1.0672204708971549,,,,,,,,,,,,,,1049,2019_Mar_13_1143,mf_amp_cond1,3.0.4,59.99505485772638,
bisebell,,&&&&&&&,,,,,,,,,,,,,0,0,0,1,,,,,,,,,,,,,,,,,LDT_prac,left,1.7506803350406699,,,,,,0,,,,,,,,,left,1.7506803350406699,,,,,,,,,,,,1049,2019_Mar_13_1143,mf_amp_cond1,3.0.4,59.99505485772638,
keyboard,,&&&&&&&,,,,,,,,,,,,,0,1,1,0,,,,,,,,,,,,,,,,,LDT_prac,right,1.2338934985746164,,,,,,0,,,,,,,,,right,1.2338934985746164,,,,,,,,,,,,1049,2019_Mar_13_1143,mf_amp_cond1,3.0.4,59.99505485772638,
,,,,,,,,,,,,,,,,,,,,,,,,,,,,,,,,,,,,,,,,,,,,,,,,,,,,,,right,1.0172087484388612,,,,,,,,,,1049,2019_Mar_13_1143,mf_amp_cond1,3.0.4,59.99505485772638,
terrorists,,&&&&&&&&&&,left,fairness.vice,,,,,,,,,,,,,,,0,0,0,177,,,,,,,,,,,,,LDT,right,1.2505438671505544,,,,,,0,,,,,,,,,,,,,right,0,1.2505438671505544,,,,,,,1049,2019_Mar_13_1143,mf_amp_cond1,3.0.4,59.99505485772638,
less,,&&&&,left,neutral,,,,,,,,,,,,,,,0,1,1,194,,,,,,,,,,,,,LDT,right,0.7670853500021622,,,,,,0,,,,,,,,,,,,,right,0,0.7670853500021622,,,,,,,1049,2019_Mar_13_1143,mf_amp_cond1,3.0.4,59.99505485772638,
black,,&&&&&,left,loyalty.vice,,,,,,,,,,,,,,,0,2,2,183,,,,,,,,,,,,,LDT,right,0.6670663952536415,,,,,,0,,,,,,,,,,,,,right,0,0.6670663952536415,,,,,,,1049,2019_Mar_13_1143,mf_amp_cond1,3.0.4,59.99505485772638,
hereby,,&&&&&&,left,neutral,,,,,,,,,,,,,,,0,3,3,89,,,,,,,,,,,,,LDT,left,0.9338222017104272,,,,,,1,,,,,,,,,,,,,left,1,0.9338222017104272,,,,,,,1049,2019_Mar_13_1143,mf_amp_cond1,3.0.4,59.99505485772638,
crinking,,&&&&&&&&,right,nonword,,,,,,,,,,,,,,,0,4,4,58,,,,,,,,,,,,,LDT,left,2.2007906479702797,,,,,,0,,,,,,,,,,,,,left,0,2.2007906479702797,,,,,,,1049,2019_Mar_13_1143,mf_amp_cond1,3.0.4,59.99505485772638,
yane,,&&&&,right,nonword,,,,,,,,,,,,,,,0,5,5,92,,,,,,,,,,,,,LDT,left,1.067167551489547,,,,,,0,,,,,,,,,,,,,left,0,1.067167551489547,,,,,,,1049,2019_Mar_13_1143,mf_amp_cond1,3.0.4,59.99505485772638,
three,,&&&&&,left,neutral,,,,,,,,,,,,,,,0,6,6,179,,,,,,,,,,,,,LDT,right,0.8837784068891779,,,,,,0,,,,,,,,,,,,,right,0,0.8837784068891779,,,,,,,1049,2019_Mar_13_1143,mf_amp_cond1,3.0.4,59.99505485772638,
embrace,,&&&&&&&,left,authority.virtue,,,,,,,,,,,,,,,0,7,7,27,,,,,,,,,,,,,LDT,right,0.7337826885632239,,,,,,0,,,,,,,,,,,,,right,0,0.7337826885632239,,,,,,,1049,2019_Mar_13_1143,mf_amp_cond1,3.0.4,59.99505485772638,
seem,,&&&&,left,neutral,,,,,,,,,,,,,,,0,8,8,167,,,,,,,,,,,,,LDT,right,1.4673113639873918,,,,,,0,,,,,,,,,,,,,right,0,1.4673113639873918,,,,,,,1049,2019_Mar_13_1143,mf_amp_cond1,3.0.4,59.99505485772638,
become,,&&&&&&,left,neutral,,,,,,,,,,,,,,,0,9,9,11,,,,,,,,,,,,,LDT,right,0.6837488361634314,,,,,,0,,,,,,,,,,,,,right,0,0.6837488361634314,,,,,,,1049,2019_Mar_13_1143,mf_amp_cond1,3.0.4,59.99505485772638,
thabbily,,&&&&&&&&,right,nonword,,,,,,,,,,,,,,,0,10,10,169,,,,,,,,,,,,,LDT,left,0.817144539556466,,,,,,0,,,,,,,,,,,,,left,0,0.817144539556466,,,,,,,1049,2019_Mar_13_1143,mf_amp_cond1,3.0.4,59.99505485772638,
useful,,&&&&&&,left,authority.virtue,,,,,,,,,,,,,,,0,11,11,85,,,,,,,,,,,,,LDT,right,0.800425215420546,,,,,,0,,,,,,,,,,,,,right,0,0.800425215420546,,,,,,,1049,2019_Mar_13_1143,mf_amp_cond1,3.0.4,59.99505485772638,
forty,,&&&&&,left,neutral,,,,,,,,,,,,,,,0,12,12,60,,,,,,,,,,,,,LDT,right,0.7171047377632931,,,,,,0,,,,,,,,,,,,,right,0,0.7171047377632931,,,,,,,1049,2019_Mar_13_1143,mf_amp_cond1,3.0.4,59.99505485772638,
perified,,&&&&&&&&,right,nonword,,,,,,,,,,,,,,,0,13,13,54,,,,,,,,,,,,,LDT,left,1.7840176346944645,,,,,,0,,,,,,,,,,,,,left,0,1.7840176346944645,,,,,,,1049,2019_Mar_13_1143,mf_amp_cond1,3.0.4,59.99505485772638,
peace,,&&&&&,left,care.virtue,,,,,,,,,,,,,,,0,14,14,145,,,,,,,,,,,,,LDT,right,0.7504224732401781,,,,,,0,,,,,,,,,,,,,right,0,0.7504224732401781,,,,,,,1049,2019_Mar_13_1143,mf_amp_cond1,3.0.4,59.99505485772638,
papert,,&&&&&&,right,nonword,,,,,,,,,,,,,,,0,15,15,56,,,,,,,,,,,,,LDT,left,2.5008722079801373,,,,,,0,,,,,,,,,,,,,left,0,2.5008722079801373,,,,,,,1049,2019_Mar_13_1143,mf_amp_cond1,3.0.4,59.99505485772638,
carvels,,&&&&&&&,None,nonword,,,,,,,,,,,,,,,0,16,16,137,,,,,,,,,,,,,LDT,right,1.233871047908906,,,,,,0,,,,,,,,,,,,,right,0,1.233871047908906,,,,,,,1049,2019_Mar_13_1143,mf_amp_cond1,3.0.4,59.99505485772638,
sgrawl,,&&&&&&,right,nonword,,,,,,,,,,,,,,,0,17,17,49,,,,,,,,,,,,,LDT,left,0.9338260504009668,,,,,,0,,,,,,,,,,,,,left,0,0.9338260504009668,,,,,,,1049,2019_Mar_13_1143,mf_amp_cond1,3.0.4,59.99505485772638,
pescinded,,&&&&&&&&&,right,nonword,,,,,,,,,,,,,,,0,18,18,87,,,,,,,,,,,,,LDT,right,2.6009116890490986,,,,,,1,,,,,,,,,,,,,right,1,2.6009116890490986,,,,,,,1049,2019_Mar_13_1143,mf_amp_cond1,3.0.4,59.99505485772638,
rebels,,&&&&&&,left,authority.vice,,,,,,,,,,,,,,,0,19,19,53,,,,,,,,,,,,,LDT,right,0.9337840355874505,,,,,,0,,,,,,,,,,,,,right,0,0.9337840355874505,,,,,,,1049,2019_Mar_13_1143,mf_amp_cond1,3.0.4,59.99505485772638,
promises,,&&&&&&&&,left,fairness.virtue,,,,,,,,,,,,,,,0,20,20,10,,,,,,,,,,,,,LDT,right,0.8504398243676405,,,,,,0,,,,,,,,,,,,,right,0,0.8504398243676405,,,,,,,1049,2019_Mar_13_1143,mf_amp_cond1,3.0.4,59.99505485772638,
give,,&&&&,left,neutral,,,,,,,,,,,,,,,0,21,21,119,,,,,,,,,,,,,LDT,right,0.7337586342764553,,,,,,0,,,,,,,,,,,,,right,0,0.7337586342764553,,,,,,,1049,2019_Mar_13_1143,mf_amp_cond1,3.0.4,59.99505485772638,
forepo,,&&&&&&,right,nonword,,,,,,,,,,,,,,,0,22,22,171,,,,,,,,,,,,,LDT,left,1.050495694449637,,,,,,0,,,,,,,,,,,,,left,0,1.050495694449637,,,,,,,1049,2019_Mar_13_1143,mf_amp_cond1,3.0.4,59.99505485772638,
godlaness,,&&&&&&&&&,right,nonword,,,,,,,,,,,,,,,0,23,23,116,,,,,,,,,,,,,LDT,left,2.2508126335742418,,,,,,0,,,,,,,,,,,,,left,0,2.2508126335742418,,,,,,,1049,2019_Mar_13_1143,mf_amp_cond1,3.0.4,59.99505485772638,
credit,,&&&&&&,left,fairness.virtue,,,,,,,,,,,,,,,0,24,24,39,,,,,,,,,,,,,LDT,right,0.6670795449172147,,,,,,0,,,,,,,,,,,,,right,0,0.6670795449172147,,,,,,,1049,2019_Mar_13_1143,mf_amp_cond1,3.0.4,59.99505485772638,
attacks,,&&&&&&&,left,care.vice,,,,,,,,,,,,,,,0,25,25,123,,,,,,,,,,,,,LDT,right,1.417260192509275,,,,,,0,,,,,,,,,,,,,right,0,1.417260192509275,,,,,,,1049,2019_Mar_13_1143,mf_amp_cond1,3.0.4,59.99505485772638,
harassment,,&&&&&&&&&&,left,sanctity.vice,,,,,,,,,,,,,,,0,26,26,74,,,,,,,,,,,,,LDT,right,1.3339474122039974,,,,,,0,,,,,,,,,,,,,right,0,1.3339474122039974,,,,,,,1049,2019_Mar_13_1143,mf_amp_cond1,3.0.4,59.99505485772638,
chreams,,&&&&&&&,right,nonword,,,,,,,,,,,,,,,0,27,27,41,,,,,,,,,,,,,LDT,right,2.484223122301046,,,,,,1,,,,,,,,,,,,,right,1,2.484223122301046,,,,,,,1049,2019_Mar_13_1143,mf_amp_cond1,3.0.4,59.99505485772638,
everything,,&&&&&&&&&&,left,neutral,,,,,,,,,,,,,,,0,28,28,192,,,,,,,,,,,,,LDT,right,1.8840426831739023,,,,,,0,,,,,,,,,,,,,right,0,1.8840426831739023,,,,,,,1049,2019_Mar_13_1143,mf_amp_cond1,3.0.4,59.99505485772638,
fontacts,,&&&&&&&&,right,nonword,,,,,,,,,,,,,,,0,29,29,71,,,,,,,,,,,,,LDT,left,2.0007447203388438,,,,,,0,,,,,,,,,,,,,left,0,2.0007447203388438,,,,,,,1049,2019_Mar_13_1143,mf_amp_cond1,3.0.4,59.99505485772638,
lempestuous,,&&&&&&&&&&&,right,nonword,,,,,,,,,,,,,,,0,30,30,157,,,,,,,,,,,,,LDT,left,1.0338235166855156,,,,,,0,,,,,,,,,,,,,left,0,1.0338235166855156,,,,,,,1049,2019_Mar_13_1143,mf_amp_cond1,3.0.4,59.99505485772638,
freedom,,&&&&&&&,left,sanctity.virtue,,,,,,,,,,,,,,,0,31,31,32,,,,,,,,,,,,,LDT,right,0.7670847085537389,,,,,,0,,,,,,,,,,,,,right,0,0.7670847085537389,,,,,,,1049,2019_Mar_13_1143,mf_amp_cond1,3.0.4,59.99505485772638,
sliptery,,&&&&&&&&,right,nonword,,,,,,,,,,,,,,,0,32,32,106,,,,,,,,,,,,,LDT,right,1.9840645244694315,,,,,,1,,,,,,,,,,,,,right,1,1.9840645244694315,,,,,,,1049,2019_Mar_13_1143,mf_amp_cond1,3.0.4,59.99505485772638,
were,,&&&&,left,neutral,,,,,,,,,,,,,,,0,33,33,140,,,,,,,,,,,,,LDT,right,1.4005880147742573,,,,,,0,,,,,,,,,,,,,right,0,1.4005880147742573,,,,,,,1049,2019_Mar_13_1143,mf_amp_cond1,3.0.4,59.99505485772638,
Daptist,,&&&&&&&,right,nonword,,,,,,,,,,,,,,,0,34,34,78,,,,,,,,,,,,,LDT,left,1.4506318095664028,,,,,,0,,,,,,,,,,,,,left,0,1.4506318095664028,,,,,,,1049,2019_Mar_13_1143,mf_amp_cond1,3.0.4,59.99505485772638,
stindig,,&&&&&&&,right,nonword,,,,,,,,,,,,,,,0,35,35,128,,,,,,,,,,,,,LDT,right,2.934319002641132,,,,,,1,,,,,,,,,,,,,right,1,2.934319002641132,,,,,,,1049,2019_Mar_13_1143,mf_amp_cond1,3.0.4,59.99505485772638,
letish,,&&&&&&,right,nonword,,,,,,,,,,,,,,,0,36,36,158,,,,,,,,,,,,,LDT,left,1.500628137291642,,,,,,0,,,,,,,,,,,,,left,0,1.500628137291642,,,,,,,1049,2019_Mar_13_1143,mf_amp_cond1,3.0.4,59.99505485772638,
tenuflect,,&&&&&&&&&,right,nonword,,,,,,,,,,,,,,,0,37,37,17,,,,,,,,,,,,,LDT,left,1.467332531727152,,,,,,0,,,,,,,,,,,,,left,0,1.467332531727152,,,,,,,1049,2019_Mar_13_1143,mf_amp_cond1,3.0.4,59.99505485772638,
suggists,,&&&&&&&&,right,nonword,,,,,,,,,,,,,,,0,38,38,151,,,,,,,,,,,,,LDT,left,2.2008092499454506,,,,,,0,,,,,,,,,,,,,left,0,2.2008092499454506,,,,,,,1049,2019_Mar_13_1143,mf_amp_cond1,3.0.4,59.99505485772638,
sickyay,,&&&&&&&,right,nonword,,,,,,,,,,,,,,,0,39,39,115,,,,,,,,,,,,,LDT,right,3.6345039639854804,,,,,,1,,,,,,,,,,,,,right,1,3.6345039639854804,,,,,,,1049,2019_Mar_13_1143,mf_amp_cond1,3.0.4,59.99505485772638,
else,,&&&&,left,neutral,,,,,,,,,,,,,,,0,40,40,96,,,,,,,,,,,,,LDT,right,1.4339275594102219,,,,,,0,,,,,,,,,,,,,right,0,1.4339275594102219,,,,,,,1049,2019_Mar_13_1143,mf_amp_cond1,3.0.4,59.99505485772638,
further,,&&&&&&&,left,neutral,,,,,,,,,,,,,,,0,41,41,94,,,,,,,,,,,,,LDT,right,3.31778294002288,,,,,,0,,,,,,,,,,,,,right,0,3.31778294002288,,,,,,,1049,2019_Mar_13_1143,mf_amp_cond1,3.0.4,59.99505485772638,
idexpressible,,&&&&&&&&&&&&&,right,nonword,,,,,,,,,,,,,,,0,42,42,154,,,,,,,,,,,,,LDT,left,2.4508691450755578,,,,,,0,,,,,,,,,,,,,left,0,2.4508691450755578,,,,,,,1049,2019_Mar_13_1143,mf_amp_cond1,3.0.4,59.99505485772638,
war,,&&&,left,sanctity.vice,,,,,,,,,,,,,,,0,43,43,187,,,,,,,,,,,,,LDT,right,1.7340646046504844,,,,,,0,,,,,,,,,,,,,right,0,1.7340646046504844,,,,,,,1049,2019_Mar_13_1143,mf_amp_cond1,3.0.4,59.99505485772638,
menizen,,&&&&&&&,None,nonword,,,,,,,,,,,,,,,0,44,44,23,,,,,,,,,,,,,LDT,left,0.8671200202370528,,,,,,0,,,,,,,,,,,,,left,0,0.8671200202370528,,,,,,,1049,2019_Mar_13_1143,mf_amp_cond1,3.0.4,59.99505485772638,
ablow,,&&&&&,right,nonword,,,,,,,,,,,,,,,0,45,45,80,,,,,,,,,,,,,LDT,left,1.9840241133060772,,,,,,0,,,,,,,,,,,,,left,0,1.9840241133060772,,,,,,,1049,2019_Mar_13_1143,mf_amp_cond1,3.0.4,59.99505485772638,
gandbrake,,&&&&&&&&&,right,nonword,,,,,,,,,,,,,,,0,46,46,125,,,,,,,,,,,,,LDT,right,2.0174297270423267,,,,,,1,,,,,,,,,,,,,right,1,2.0174297270423267,,,,,,,1049,2019_Mar_13_1143,mf_amp_cond1,3.0.4,59.99505485772638,
bruthfulness,,&&&&&&&&&&&&,right,nonword,,,,,,,,,,,,,,,0,47,47,141,,,,,,,,,,,,,LDT,left,1.8840548706939444,,,,,,0,,,,,,,,,,,,,left,0,1.8840548706939444,,,,,,,1049,2019_Mar_13_1143,mf_amp_cond1,3.0.4,59.99505485772638,
health,,&&&&&&,left,care.virtue,,,,,,,,,,,,,,,0,48,48,156,,,,,,,,,,,,,LDT,right,1.3172261637228075,,,,,,0,,,,,,,,,,,,,right,0,1.3172261637228075,,,,,,,1049,2019_Mar_13_1143,mf_amp_cond1,3.0.4,59.99505485772638,
hand,,&&&&,left,sanctity.virtue,,,,,,,,,,,,,,,0,49,49,118,,,,,,,,,,,,,LDT,right,1.73400847800076,,,,,,0,,,,,,,,,,,,,right,0,1.73400847800076,,,,,,,1049,2019_Mar_13_1143,mf_amp_cond1,3.0.4,59.99505485772638,
there,,&&&&&,left,neutral,,,,,,,,,,,,,,,0,50,50,83,,,,,,,,,,,,,LDT,right,1.1838820968405344,,,,,,0,,,,,,,,,,,,,right,0,1.1838820968405344,,,,,,,1049,2019_Mar_13_1143,mf_amp_cond1,3.0.4,59.99505485772638,
lachelor,,&&&&&&&&,right,nonword,,,,,,,,,,,,,,,0,51,51,18,,,,,,,,,,,,,LDT,right,3.6845188936858904,,,,,,1,,,,,,,,,,,,,right,1,3.6845188936858904,,,,,,,1049,2019_Mar_13_1143,mf_amp_cond1,3.0.4,59.99505485772638,
gillipede,,&&&&&&&&&,None,nonword,,,,,,,,,,,,,,,0,52,52,104,,,,,,,,,,,,,LDT,left,0.8837809726828709,,,,,,0,,,,,,,,,,,,,left,0,0.8837809726828709,,,,,,,1049,2019_Mar_13_1143,mf_amp_cond1,3.0.4,59.99505485772638,
chressing,,&&&&&&&&&,None,nonword,,,,,,,,,,,,,,,0,53,53,69,,,,,,,,,,,,,LDT,left,1.734043757605832,,,,,,0,,,,,,,,,,,,,left,0,1.734043757605832,,,,,,,1049,2019_Mar_13_1143,mf_amp_cond1,3.0.4,59.99505485772638,
synchronazers,,&&&&&&&&&&&&&,right,nonword,,,,,,,,,,,,,,,0,54,54,180,,,,,,,,,,,,,LDT,left,1.5006092145631555,,,,,,0,,,,,,,,,,,,,left,0,1.5006092145631555,,,,,,,1049,2019_Mar_13_1143,mf_amp_cond1,3.0.4,59.99505485772638,
reviked,,&&&&&&&,right,nonword,,,,,,,,,,,,,,,0,55,55,112,,,,,,,,,,,,,LDT,right,1.350570839975262,,,,,,1,,,,,,,,,,,,,right,1,1.350570839975262,,,,,,,1049,2019_Mar_13_1143,mf_amp_cond1,3.0.4,59.99505485772638,
sidearbs,,&&&&&&&&,right,nonword,,,,,,,,,,,,,,,0,56,56,113,,,,,,,,,,,,,LDT,left,1.167204466793919,,,,,,0,,,,,,,,,,,,,left,0,1.167204466793919,,,,,,,1049,2019_Mar_13_1143,mf_amp_cond1,3.0.4,59.99505485772638,
ugeasily,,&&&&&&&&,right,nonword,,,,,,,,,,,,,,,0,57,57,38,,,,,,,,,,,,,LDT,left,1.9007382737763692,,,,,,0,,,,,,,,,,,,,left,0,1.9007382737763692,,,,,,,1049,2019_Mar_13_1143,mf_amp_cond1,3.0.4,59.99505485772638,
fair,,&&&&,left,fairness.virtue,,,,,,,,,,,,,,,0,58,58,50,,,,,,,,,,,,,LDT,right,0.9671453894989099,,,,,,0,,,,,,,,,,,,,right,0,0.9671453894989099,,,,,,,1049,2019_Mar_13_1143,mf_amp_cond1,3.0.4,59.99505485772638,
praised,,&&&&&&&,left,loyalty.virtue,,,,,,,,,,,,,,,0,59,59,130,,,,,,,,,,,,,LDT,left,3.134365892445203,,,,,,1,,,,,,,,,,,,,left,1,3.134365892445203,,,,,,,1049,2019_Mar_13_1143,mf_amp_cond1,3.0.4,59.99505485772638,
drumbled,,&&&&&&&&,right,nonword,,,,,,,,,,,,,,,0,60,60,142,,,,,,,,,,,,,LDT,right,2.584099355066428,,,,,,1,,,,,,,,,,,,,right,1,2.584099355066428,,,,,,,1049,2019_Mar_13_1143,mf_amp_cond1,3.0.4,59.99505485772638,
abointment,,&&&&&&&&&&,right,nonword,,,,,,,,,,,,,,,0,61,61,161,,,,,,,,,,,,,LDT,right,2.6175681513850577,,,,,,1,,,,,,,,,,,,,right,1,2.6175681513850577,,,,,,,1049,2019_Mar_13_1143,mf_amp_cond1,3.0.4,59.99505485772638,
ability,,&&&&&&&,left,authority.virtue,,,,,,,,,,,,,,,0,62,62,174,,,,,,,,,,,,,LDT,right,1.634001390018966,,,,,,0,,,,,,,,,,,,,right,0,1.634001390018966,,,,,,,1049,2019_Mar_13_1143,mf_amp_cond1,3.0.4,59.99505485772638,
neputized,,&&&&&&&&&,right,nonword,,,,,,,,,,,,,,,0,63,63,36,,,,,,,,,,,,,LDT,left,1.2505326418031473,,,,,,0,,,,,,,,,,,,,left,0,1.2505326418031473,,,,,,,1049,2019_Mar_13_1143,mf_amp_cond1,3.0.4,59.99505485772638,
ejanulated,,&&&&&&&&&&,right,nonword,,,,,,,,,,,,,,,0,64,64,165,,,,,,,,,,,,,LDT,left,1.4839408854895737,,,,,,0,,,,,,,,,,,,,left,0,1.4839408854895737,,,,,,,1049,2019_Mar_13_1143,mf_amp_cond1,3.0.4,59.99505485772638,
crime,,&&&&&,left,fairness.vice,,,,,,,,,,,,,,,0,65,65,162,,,,,,,,,,,,,LDT,right,0.9671518039831426,,,,,,0,,,,,,,,,,,,,right,0,0.9671518039831426,,,,,,,1049,2019_Mar_13_1143,mf_amp_cond1,3.0.4,59.99505485772638,
with,,&&&&,left,neutral,,,,,,,,,,,,,,,0,66,66,159,,,,,,,,,,,,,LDT,right,1.36722313289647,,,,,,0,,,,,,,,,,,,,right,0,1.36722313289647,,,,,,,1049,2019_Mar_13_1143,mf_amp_cond1,3.0.4,59.99505485772638,
noped,,&&&&&,right,nonword,,,,,,,,,,,,,,,0,67,67,95,,,,,,,,,,,,,LDT,left,1.3672452628379688,,,,,,0,,,,,,,,,,,,,left,0,1.3672452628379688,,,,,,,1049,2019_Mar_13_1143,mf_amp_cond1,3.0.4,59.99505485772638,
sonvoy,,&&&&&&,None,nonword,,,,,,,,,,,,,,,0,68,68,111,,,,,,,,,,,,,LDT,left,1.0671588919649366,,,,,,0,,,,,,,,,,,,,left,0,1.0671588919649366,,,,,,,1049,2019_Mar_13_1143,mf_amp_cond1,3.0.4,59.99505485772638,
noone,,&&&&&,left,neutral,,,,,,,,,,,,,,,0,69,69,61,,,,,,,,,,,,,LDT,right,0.7170697788824327,,,,,,0,,,,,,,,,,,,,right,0,0.7170697788824327,,,,,,,1049,2019_Mar_13_1143,mf_amp_cond1,3.0.4,59.99505485772638,
counpy's,,&&&&&&&&,right,nonword,,,,,,,,,,,,,,,0,70,70,82,,,,,,,,,,,,,LDT,left,2.0507615743554197,,,,,,0,,,,,,,,,,,,,left,0,2.0507615743554197,,,,,,,1049,2019_Mar_13_1143,mf_amp_cond1,3.0.4,59.99505485772638,
iptervention,,&&&&&&&&&&&&,right,nonword,,,,,,,,,,,,,,,0,71,71,90,,,,,,,,,,,,,LDT,right,3.3010944053239655,,,,,,1,,,,,,,,,,,,,right,1,3.3010944053239655,,,,,,,1049,2019_Mar_13_1143,mf_amp_cond1,3.0.4,59.99505485772638,
fifteen,,&&&&&&&,left,neutral,,,,,,,,,,,,,,,0,72,72,65,,,,,,,,,,,,,LDT,right,3.6845724545419216,,,,,,0,,,,,,,,,,,,,right,0,3.6845724545419216,,,,,,,1049,2019_Mar_13_1143,mf_amp_cond1,3.0.4,59.99505485772638,
been,,&&&&,left,neutral,,,,,,,,,,,,,,,0,73,73,107,,,,,,,,,,,,,LDT,right,1.2838818081945647,,,,,,0,,,,,,,,,,,,,right,0,1.2838818081945647,,,,,,,1049,2019_Mar_13_1143,mf_amp_cond1,3.0.4,59.99505485772638,
mih,,&&&,right,nonword,,,,,,,,,,,,,,,0,74,74,173,,,,,,,,,,,,,LDT,left,1.383920327090891,,,,,,0,,,,,,,,,,,,,left,0,1.383920327090891,,,,,,,1049,2019_Mar_13_1143,mf_amp_cond1,3.0.4,59.99505485772638,
riot,,&&&&,left,authority.vice,,,,,,,,,,,,,,,0,75,75,22,,,,,,,,,,,,,LDT,right,1.1838529109954834,,,,,,0,,,,,,,,,,,,,right,0,1.1838529109954834,,,,,,,1049,2019_Mar_13_1143,mf_amp_cond1,3.0.4,59.99505485772638,
each,,&&&&,left,neutral,,,,,,,,,,,,,,,0,76,76,34,,,,,,,,,,,,,LDT,right,1.1671996559307445,,,,,,0,,,,,,,,,,,,,right,0,1.1671996559307445,,,,,,,1049,2019_Mar_13_1143,mf_amp_cond1,3.0.4,59.99505485772638,
Phintoism,,&&&&&&&&&,right,nonword,,,,,,,,,,,,,,,0,77,77,110,,,,,,,,,,,,,LDT,left,1.1338578661670908,,,,,,0,,,,,,,,,,,,,left,0,1.1338578661670908,,,,,,,1049,2019_Mar_13_1143,mf_amp_cond1,3.0.4,59.99505485772638,
violence,,&&&&&&&&,left,care.vice,,,,,,,,,,,,,,,0,78,78,8,,,,,,,,,,,,,LDT,right,2.2508145578904077,,,,,,0,,,,,,,,,,,,,right,0,2.2508145578904077,,,,,,,1049,2019_Mar_13_1143,mf_amp_cond1,3.0.4,59.99505485772638,
gikely,,&&&&&&,right,nonword,,,,,,,,,,,,,,,0,79,79,139,,,,,,,,,,,,,LDT,left,1.5673062644782476,,,,,,0,,,,,,,,,,,,,left,0,1.5673062644782476,,,,,,,1049,2019_Mar_13_1143,mf_amp_cond1,3.0.4,59.99505485772638,
refuejing,,&&&&&&&&&,right,nonword,,,,,,,,,,,,,,,0,80,80,127,,,,,,,,,,,,,LDT,left,1.583964330406161,,,,,,0,,,,,,,,,,,,,left,0,1.583964330406161,,,,,,,1049,2019_Mar_13_1143,mf_amp_cond1,3.0.4,59.99505485772638,
victims,,&&&&&&&,left,care.vice,,,,,,,,,,,,,,,0,81,81,148,,,,,,,,,,,,,LDT,right,1.7840519520977978,,,,,,0,,,,,,,,,,,,,right,0,1.7840519520977978,,,,,,,1049,2019_Mar_13_1143,mf_amp_cond1,3.0.4,59.99505485772638,
ittutable,,&&&&&&&&&,right,nonword,,,,,,,,,,,,,,,0,82,82,103,,,,,,,,,,,,,LDT,left,1.1338610734092072,,,,,,0,,,,,,,,,,,,,left,0,1.1338610734092072,,,,,,,1049,2019_Mar_13_1143,mf_amp_cond1,3.0.4,59.99505485772638,
galamitous,,&&&&&&&&&&,right,nonword,,,,,,,,,,,,,,,0,83,83,30,,,,,,,,,,,,,LDT,left,1.7673736805736553,,,,,,0,,,,,,,,,,,,,left,0,1.7673736805736553,,,,,,,1049,2019_Mar_13_1143,mf_amp_cond1,3.0.4,59.99505485772638,
towards,,&&&&&&&,left,neutral,,,,,,,,,,,,,,,0,84,84,12,,,,,,,,,,,,,LDT,right,1.4673168162698857,,,,,,0,,,,,,,,,,,,,right,0,1.4673168162698857,,,,,,,1049,2019_Mar_13_1143,mf_amp_cond1,3.0.4,59.99505485772638,
thru,,&&&&,left,neutral,,,,,,,,,,,,,,,0,85,85,76,,,,,,,,,,,,,LDT,left,1.9340739697800018,,,,,,1,,,,,,,,,,,,,left,1,1.9340739697800018,,,,,,,1049,2019_Mar_13_1143,mf_amp_cond1,3.0.4,59.99505485772638,
party,,&&&&&,left,loyalty.virtue,,,,,,,,,,,,,,,0,86,86,102,,,,,,,,,,,,,LDT,right,1.3506824518262874,,,,,,0,,,,,,,,,,,,,right,0,1.3506824518262874,,,,,,,1049,2019_Mar_13_1143,mf_amp_cond1,3.0.4,59.99505485772638,
blamed,,&&&&&&,left,loyalty.vice,,,,,,,,,,,,,,,0,87,87,28,,,,,,,,,,,,,LDT,right,1.7006647638918366,,,,,,0,,,,,,,,,,,,,right,0,1.7006647638918366,,,,,,,1049,2019_Mar_13_1143,mf_amp_cond1,3.0.4,59.99505485772638,
both,,&&&&,left,neutral,,,,,,,,,,,,,,,0,88,88,33,,,,,,,,,,,,,LDT,right,1.4006258601439185,,,,,,0,,,,,,,,,,,,,right,0,1.4006258601439185,,,,,,,1049,2019_Mar_13_1143,mf_amp_cond1,3.0.4,59.99505485772638,
juck,,&&&&,right,nonword,,,,,,,,,,,,,,,0,89,89,181,,,,,,,,,,,,,LDT,left,0.9004865057067946,,,,,,0,,,,,,,,,,,,,left,0,0.9004865057067946,,,,,,,1049,2019_Mar_13_1143,mf_amp_cond1,3.0.4,59.99505485772638,
crilfully,,&&&&&&&&&,right,nonword,,,,,,,,,,,,,,,0,90,90,172,,,,,,,,,,,,,LDT,right,1.5339676819567103,,,,,,1,,,,,,,,,,,,,right,1,1.5339676819567103,,,,,,,1049,2019_Mar_13_1143,mf_amp_cond1,3.0.4,59.99505485772638,
spag,,&&&&,None,nonword,,,,,,,,,,,,,,,0,91,91,4,,,,,,,,,,,,,LDT,left,1.4005325295438524,,,,,,0,,,,,,,,,,,,,left,0,1.4005325295438524,,,,,,,1049,2019_Mar_13_1143,mf_amp_cond1,3.0.4,59.99505485772638,
anything,,&&&&&&&&,left,neutral,,,,,,,,,,,,,,,0,92,92,150,,,,,,,,,,,,,LDT,right,1.317266254191054,,,,,,0,,,,,,,,,,,,,right,0,1.317266254191054,,,,,,,1049,2019_Mar_13_1143,mf_amp_cond1,3.0.4,59.99505485772638,
grovelire,,&&&&&&&&&,right,nonword,,,,,,,,,,,,,,,0,93,93,1,,,,,,,,,,,,,LDT,left,0.9504722495330498,,,,,,0,,,,,,,,,,,,,left,0,0.9504722495330498,,,,,,,1049,2019_Mar_13_1143,mf_amp_cond1,3.0.4,59.99505485772638,
rivernoat,,&&&&&&&&&,right,nonword,,,,,,,,,,,,,,,0,94,94,121,,,,,,,,,,,,,LDT,left,2.8009585788531695,,,,,,0,,,,,,,,,,,,,left,0,2.8009585788531695,,,,,,,1049,2019_Mar_13_1143,mf_amp_cond1,3.0.4,59.99505485772638,
framatic,,&&&&&&&&,right,nonword,,,,,,,,,,,,,,,0,95,95,72,,,,,,,,,,,,,LDT,right,4.784798276028596,,,,,,1,,,,,,,,,,,,,right,1,4.784798276028596,,,,,,,1049,2019_Mar_13_1143,mf_amp_cond1,3.0.4,59.99505485772638,
either,,&&&&&&,left,neutral,,,,,,,,,,,,,,,0,96,96,81,,,,,,,,,,,,,LDT,right,3.1177087886899244,,,,,,0,,,,,,,,,,,,,right,0,3.1177087886899244,,,,,,,1049,2019_Mar_13_1143,mf_amp_cond1,3.0.4,59.99505485772638,
therefore,,&&&&&&&&&,left,neutral,,,,,,,,,,,,,,,0,97,97,24,,,,,,,,,,,,,LDT,right,1.2672214972262736,,,,,,0,,,,,,,,,,,,,right,0,1.2672214972262736,,,,,,,1049,2019_Mar_13_1143,mf_amp_cond1,3.0.4,59.99505485772638,
honored,,&&&&&&&,left,authority.virtue,,,,,,,,,,,,,,,0,98,98,64,,,,,,,,,,,,,LDT,right,2.1841441280848812,,,,,,0,,,,,,,,,,,,,right,0,2.1841441280848812,,,,,,,1049,2019_Mar_13_1143,mf_amp_cond1,3.0.4,59.99505485772638,
quarterbocks,,&&&&&&&&&&&&,right,nonword,,,,,,,,,,,,,,,0,99,99,91,,,,,,,,,,,,,LDT,right,1.6339863160101231,,,,,,1,,,,,,,,,,,,,right,1,1.6339863160101231,,,,,,,1049,2019_Mar_13_1143,mf_amp_cond1,3.0.4,59.99505485772638,
could,,&&&&&,left,neutral,,,,,,,,,,,,,,,0,100,100,182,,,,,,,,,,,,,LDT,right,1.3839084603241645,,,,,,0,,,,,,,,,,,,,right,0,1.3839084603241645,,,,,,,1049,2019_Mar_13_1143,mf_amp_cond1,3.0.4,59.99505485772638,
mostly,,&&&&&&,left,neutral,,,,,,,,,,,,,,,0,101,101,189,,,,,,,,,,,,,LDT,right,1.0171696201723535,,,,,,0,,,,,,,,,,,,,right,0,1.0171696201723535,,,,,,,1049,2019_Mar_13_1143,mf_amp_cond1,3.0.4,59.99505485772638,
least,,&&&&&,left,neutral,,,,,,,,,,,,,,,0,102,102,135,,,,,,,,,,,,,LDT,right,0.650397103978321,,,,,,0,,,,,,,,,,,,,right,0,0.650397103978321,,,,,,,1049,2019_Mar_13_1143,mf_amp_cond1,3.0.4,59.99505485772638,
police,,&&&&&&,left,authority.vice,,,,,,,,,,,,,,,0,103,103,6,,,,,,,,,,,,,LDT,right,0.8337477617315017,,,,,,0,,,,,,,,,,,,,right,0,0.8337477617315017,,,,,,,1049,2019_Mar_13_1143,mf_amp_cond1,3.0.4,59.99505485772638,
racist,,&&&&&&,left,sanctity.vice,,,,,,,,,,,,,,,0,104,104,35,,,,,,,,,,,,,LDT,right,0.9838239817181602,,,,,,0,,,,,,,,,,,,,right,0,0.9838239817181602,,,,,,,1049,2019_Mar_13_1143,mf_amp_cond1,3.0.4,59.99505485772638,
unreflectuve,,&&&&&&&&&&&&,right,nonword,,,,,,,,,,,,,,,0,105,105,100,,,,,,,,,,,,,LDT,right,2.984344516211422,,,,,,1,,,,,,,,,,,,,right,1,2.984344516211422,,,,,,,1049,2019_Mar_13_1143,mf_amp_cond1,3.0.4,59.99505485772638,
voter,,&&&&&,left,fairness.vice,,,,,,,,,,,,,,,0,106,106,73,,,,,,,,,,,,,LDT,left,0.7837700360105373,,,,,,1,,,,,,,,,,,,,left,1,0.7837700360105373,,,,,,,1049,2019_Mar_13_1143,mf_amp_cond1,3.0.4,59.99505485772638,
intelligence,,&&&&&&&&&&&&,left,loyalty.virtue,,,,,,,,,,,,,,,0,107,107,108,,,,,,,,,,,,,LDT,right,5.118093657074496,,,,,,0,,,,,,,,,,,,,right,0,5.118093657074496,,,,,,,1049,2019_Mar_13_1143,mf_amp_cond1,3.0.4,59.99505485772638,
baladroit,,&&&&&&&&&,right,nonword,,,,,,,,,,,,,,,0,108,108,52,,,,,,,,,,,,,LDT,left,1.7507047100516502,,,,,,0,,,,,,,,,,,,,left,0,1.7507047100516502,,,,,,,1049,2019_Mar_13_1143,mf_amp_cond1,3.0.4,59.99505485772638,
nomaric,,&&&&&&&,None,nonword,,,,,,,,,,,,,,,0,109,109,5,,,,,,,,,,,,,LDT,left,1.6006461298675276,,,,,,0,,,,,,,,,,,,,left,0,1.6006461298675276,,,,,,,1049,2019_Mar_13_1143,mf_amp_cond1,3.0.4,59.99505485772638,
