words,mask,corr_ans,category,nonwords,tweets,topic,LDT_pracloop.thisRepN,LDT_pracloop.thisTrialN,LDT_pracloop.thisN,LDT_pracloop.thisIndex,LDT_trials.thisRepN,LDT_trials.thisTrialN,LDT_trials.thisN,LDT_trials.thisIndex,AMP_pracloop.thisRepN,AMP_pracloop.thisTrialN,AMP_pracloop.thisN,AMP_pracloop.thisIndex,AMP_trials.thisRepN,AMP_trials.thisTrialN,AMP_trials.thisN,AMP_trials.thisIndex,tweet_loop.thisRepN,tweet_loop.thisTrialN,tweet_loop.thisN,tweet_loop.thisIndex,begin_key.keys,begin_key.rt,key_resp_AMP_instr1.keys,key_resp_AMP_instr1.rt,key_resp_LDT_instr.keys,key_resp_LDT_instr.rt,resp_LDT_prac.keys,resp_LDT_prac.rt,task,keypress,RT,corr,resp_LDT_ready.keys,resp_LDT_ready.rt,resp_LDT.keys,resp_LDT.corr,resp_LDT.rt,LDT_rating.response,LDT_rating.rt,resp_AMP_ready1.keys,resp_AMP_ready1.rt,resp_AMP_prac.keys,resp_AMP_prac.rt,resp_AMP_ready.keys,resp_AMP_ready.rt,resp_AMP.keys,resp_AMP.corr,resp_AMP.rt,AMP_nonword_rating.response,AMP_nonword_rating.rt,AMP_word_rating.response,AMP_word_rating.rt,AMP_random_rating.response,AMP_random_rating.rt,key_resp_LDT_instr_2.keys,key_resp_LDT_instr_2.rt,resp_tweets.keys,resp_tweets.rt,participant,date,expName,psychopyVersion,frameRate,
,,,,,,,,,,,,,,,,,,,,,,,,,,,right,1321.8382407557801,,,,,,,,,,,,,,,,,,,,,,,,,,,,,,,,,,,,,1050,2019_Mar_13_1144,mf_amp_cond2,3.0.4,60.00084670291221,
,,,,,,,,,,,,,,,,,,,,,,,,,,,,,right,0.9004563184571452,,,,,,,,,,,,,,,,,,,,,,,,,,,,,,,,,,,1050,2019_Mar_13_1144,mf_amp_cond2,3.0.4,60.00084670291221,
,,,,,,,,,,,,,,,,,,,,,,,,,,,,,,,right,1.7506662929372396,,,,,,,,,,,,,,,,,,,,,,,,,,,,,,,,,1050,2019_Mar_13_1144,mf_amp_cond2,3.0.4,60.00084670291221,
keyboard,&&&&&&&,,,,,,0,0,0,0,,,,,,,,,,,,,,,,,,,,,,,left,2.767583237699,LDT_prac,left,2.767583237699,0,,,,,,,,,,,,,,,,,,,,,,,,,,,1050,2019_Mar_13_1144,mf_amp_cond2,3.0.4,60.00084670291221,
bisebell,&&&&&&&,,,,,,0,1,1,1,,,,,,,,,,,,,,,,,,,,,,,right,2.7509013796807267,LDT_prac,right,2.7509013796807267,0,,,,,,,,,,,,,,,,,,,,,,,,,,,1050,2019_Mar_13_1144,mf_amp_cond2,3.0.4,60.00084670291221,
,,,,,,,,,,,,,,,,,,,,,,,,,,,,,,,,,,,,,,,right,1.4339117600466125,,,,,,,,,,,,,,,,,,,,,,,,,1050,2019_Mar_13_1144,mf_amp_cond2,3.0.4,60.00084670291221,
also,&&&&,left,neutral,,,,,,,,0,0,0,57,,,,,,,,,,,,,,,,,,,,,LDT,left,1.2171871181344613,1,,,left,1,1.2171871181344613,,,,,,,,,,,,,,,,,,,,,,1050,2019_Mar_13_1144,mf_amp_cond2,3.0.4,60.00084670291221,
strong,&&&&&&,left,loyalty.virtue,,,,,,,,0,1,1,120,,,,,,,,,,,,,,,,,,,,,LDT,right,1.1004987815977074,0,,,right,0,1.1004987815977074,,,,,,,,,,,,,,,,,,,,,,1050,2019_Mar_13_1144,mf_amp_cond2,3.0.4,60.00084670291221,
friends,&&&&&&&,left,loyalty.virtue,,,,,,,,0,2,2,192,,,,,,,,,,,,,,,,,,,,,LDT,right,1.2005132780759595,0,,,right,0,1.2005132780759595,,,,,,,,,,,,,,,,,,,,,,1050,2019_Mar_13_1144,mf_amp_cond2,3.0.4,60.00084670291221,
frojecting,&&&&&&&&&&,right,nonword,,,,,,,,0,3,3,178,,,,,,,,,,,,,,,,,,,,,LDT,left,1.2672108833794482,0,,,left,0,1.2672108833794482,,,,,,,,,,,,,,,,,,,,,,1050,2019_Mar_13_1144,mf_amp_cond2,3.0.4,60.00084670291221,
hence,&&&&&,left,neutral,,,,,,,,0,4,4,83,,,,,,,,,,,,,,,,,,,,,LDT,right,1.7173125191184226,0,,,right,0,1.7173125191184226,,,,,,,,,,,,,,,,,,,,,,1050,2019_Mar_13_1144,mf_amp_cond2,3.0.4,60.00084670291221,
lursuer,&&&&&&&,right,nonword,,,,,,,,0,5,5,1,,,,,,,,,,,,,,,,,,,,,LDT,right,1.400560231268173,1,,,right,1,1.400560231268173,,,,,,,,,,,,,,,,,,,,,,1050,2019_Mar_13_1144,mf_amp_cond2,3.0.4,60.00084670291221,
protesters,&&&&&&&&&&,left,authority.vice,,,,,,,,0,6,6,150,,,,,,,,,,,,,,,,,,,,,LDT,left,1.550602341623744,1,,,left,1,1.550602341623744,,,,,,,,,,,,,,,,,,,,,,1050,2019_Mar_13_1144,mf_amp_cond2,3.0.4,60.00084670291221,
sfumatoy,&&&&&&&&,None,nonword,,,,,,,,0,7,7,133,,,,,,,,,,,,,,,,,,,,,LDT,right,1.517259151529288,0,,,right,0,1.517259151529288,,,,,,,,,,,,,,,,,,,,,,1050,2019_Mar_13_1144,mf_amp_cond2,3.0.4,60.00084670291221,
nomaric,&&&&&&&,None,nonword,,,,,,,,0,8,8,17,,,,,,,,,,,,,,,,,,,,,LDT,right,0.8671246742305811,0,,,right,0,0.8671246742305811,,,,,,,,,,,,,,,,,,,,,,1050,2019_Mar_13_1144,mf_amp_cond2,3.0.4,60.00084670291221,
tomedians,&&&&&&&&&,right,nonword,,,,,,,,0,9,9,104,,,,,,,,,,,,,,,,,,,,,LDT,right,1.3505579541670159,1,,,right,1,1.3505579541670159,,,,,,,,,,,,,,,,,,,,,,1050,2019_Mar_13_1144,mf_amp_cond2,3.0.4,60.00084670291221,
riot,&&&&,left,authority.vice,,,,,,,,0,10,10,94,,,,,,,,,,,,,,,,,,,,,LDT,left,1.367180479282979,1,,,left,1,1.367180479282979,,,,,,,,,,,,,,,,,,,,,,1050,2019_Mar_13_1144,mf_amp_cond2,3.0.4,60.00084670291221,
noone,&&&&&,left,neutral,,,,,,,,0,11,11,193,,,,,,,,,,,,,,,,,,,,,LDT,right,1.5339570454962086,0,,,right,0,1.5339570454962086,,,,,,,,,,,,,,,,,,,,,,1050,2019_Mar_13_1144,mf_amp_cond2,3.0.4,60.00084670291221,
mightingale,&&&&&&&&&&&,right,nonword,,,,,,,,0,12,12,28,,,,,,,,,,,,,,,,,,,,,LDT,right,1.750659237120999,1,,,right,1,1.750659237120999,,,,,,,,,,,,,,,,,,,,,,1050,2019_Mar_13_1144,mf_amp_cond2,3.0.4,60.00084670291221,
nackers,&&&&&&&,right,nonword,,,,,,,,0,13,13,198,,,,,,,,,,,,,,,,,,,,,LDT,right,0.8004289932141546,1,,,right,1,0.8004289932141546,,,,,,,,,,,,,,,,,,,,,,1050,2019_Mar_13_1144,mf_amp_cond2,3.0.4,60.00084670291221,
precificity,&&&&&&&&&&&,right,nonword,,,,,,,,0,14,14,59,,,,,,,,,,,,,,,,,,,,,LDT,left,1.31720289750956,0,,,left,0,1.31720289750956,,,,,,,,,,,,,,,,,,,,,,1050,2019_Mar_13_1144,mf_amp_cond2,3.0.4,60.00084670291221,
progress,&&&&&&&&,left,authority.virtue,,,,,,,,0,15,15,3,,,,,,,,,,,,,,,,,,,,,LDT,right,0.9504569919372443,0,,,right,0,0.9504569919372443,,,,,,,,,,,,,,,,,,,,,,1050,2019_Mar_13_1144,mf_amp_cond2,3.0.4,60.00084670291221,
towards,&&&&&&&,left,neutral,,,,,,,,0,16,16,163,,,,,,,,,,,,,,,,,,,,,LDT,right,1.3505512190749869,0,,,right,0,1.3505512190749869,,,,,,,,,,,,,,,,,,,,,,1050,2019_Mar_13_1144,mf_amp_cond2,3.0.4,60.00084670291221,
abointment,&&&&&&&&&&,right,nonword,,,,,,,,0,17,17,38,,,,,,,,,,,,,,,,,,,,,LDT,left,0.9837918433477171,0,,,left,0,0.9837918433477171,,,,,,,,,,,,,,,,,,,,,,1050,2019_Mar_13_1144,mf_amp_cond2,3.0.4,60.00084670291221,
gondensed,&&&&&&&&&,right,nonword,,,,,,,,0,18,18,95,,,,,,,,,,,,,,,,,,,,,LDT,right,2.200748044095235,1,,,right,1,2.200748044095235,,,,,,,,,,,,,,,,,,,,,,1050,2019_Mar_13_1144,mf_amp_cond2,3.0.4,60.00084670291221,
galamitous,&&&&&&&&&&,right,nonword,,,,,,,,0,19,19,160,,,,,,,,,,,,,,,,,,,,,LDT,right,1.4672793247445952,1,,,right,1,1.4672793247445952,,,,,,,,,,,,,,,,,,,,,,1050,2019_Mar_13_1144,mf_amp_cond2,3.0.4,60.00084670291221,
infet,&&&&&,right,nonword,,,,,,,,0,20,20,118,,,,,,,,,,,,,,,,,,,,,LDT,left,1.8673501394223422,0,,,left,0,1.8673501394223422,,,,,,,,,,,,,,,,,,,,,,1050,2019_Mar_13_1144,mf_amp_cond2,3.0.4,60.00084670291221,
victim,&&&&&&,left,care.vice,,,,,,,,0,21,21,172,,,,,,,,,,,,,,,,,,,,,LDT,right,1.5839423245051876,0,,,right,0,1.5839423245051876,,,,,,,,,,,,,,,,,,,,,,1050,2019_Mar_13_1144,mf_amp_cond2,3.0.4,60.00084670291221,
bluently,&&&&&&&&,None,nonword,,,,,,,,0,22,22,31,,,,,,,,,,,,,,,,,,,,,LDT,right,2.2507750165532343,0,,,right,0,2.2507750165532343,,,,,,,,,,,,,,,,,,,,,,1050,2019_Mar_13_1144,mf_amp_cond2,3.0.4,60.00084670291221,
baklara,&&&&&&&,right,nonword,,,,,,,,0,23,23,81,,,,,,,,,,,,,,,,,,,,,LDT,right,1.8006615141930524,1,,,right,1,1.8006615141930524,,,,,,,,,,,,,,,,,,,,,,1050,2019_Mar_13_1144,mf_amp_cond2,3.0.4,60.00084670291221,
victims,&&&&&&&,left,care.vice,,,,,,,,0,24,24,123,,,,,,,,,,,,,,,,,,,,,LDT,left,0.8837677252886351,1,,,left,1,0.8837677252886351,,,,,,,,,,,,,,,,,,,,,,1050,2019_Mar_13_1144,mf_amp_cond2,3.0.4,60.00084670291221,
racist,&&&&&&,left,sanctity.vice,,,,,,,,0,25,25,196,,,,,,,,,,,,,,,,,,,,,LDT,right,0.700760552106658,0,,,right,0,0.700760552106658,,,,,,,,,,,,,,,,,,,,,,1050,2019_Mar_13_1144,mf_amp_cond2,3.0.4,60.00084670291221,
everything,&&&&&&&&&&,left,neutral,,,,,,,,0,26,26,186,,,,,,,,,,,,,,,,,,,,,LDT,right,0.7670854823954869,0,,,right,0,0.7670854823954869,,,,,,,,,,,,,,,,,,,,,,1050,2019_Mar_13_1144,mf_amp_cond2,3.0.4,60.00084670291221,
voter,&&&&&,left,fairness.vice,,,,,,,,0,27,27,47,,,,,,,,,,,,,,,,,,,,,LDT,right,0.7837634918105323,0,,,right,0,0.7837634918105323,,,,,,,,,,,,,,,,,,,,,,1050,2019_Mar_13_1144,mf_amp_cond2,3.0.4,60.00084670291221,
front,&&&&&,left,neutral,,,,,,,,0,28,28,169,,,,,,,,,,,,,,,,,,,,,LDT,left,0.9338184309308417,1,,,left,1,0.9338184309308417,,,,,,,,,,,,,,,,,,,,,,1050,2019_Mar_13_1144,mf_amp_cond2,3.0.4,60.00084670291221,
eight,&&&&&,left,neutral,,,,,,,,0,29,29,122,,,,,,,,,,,,,,,,,,,,,LDT,right,1.3838902398420032,0,,,right,0,1.3838902398420032,,,,,,,,,,,,,,,,,,,,,,1050,2019_Mar_13_1144,mf_amp_cond2,3.0.4,60.00084670291221,
benefit,&&&&&&&,left,fairness.virtue,,,,,,,,0,30,30,110,,,,,,,,,,,,,,,,,,,,,LDT,right,1.0004810779355466,0,,,right,0,1.0004810779355466,,,,,,,,,,,,,,,,,,,,,,1050,2019_Mar_13_1144,mf_amp_cond2,3.0.4,60.00084670291221,
myself,&&&&&&,left,neutral,,,,,,,,0,31,31,13,,,,,,,,,,,,,,,,,,,,,LDT,left,1.133838764479151,1,,,left,1,1.133838764479151,,,,,,,,,,,,,,,,,,,,,,1050,2019_Mar_13_1144,mf_amp_cond2,3.0.4,60.00084670291221,
done,&&&&,left,neutral,,,,,,,,0,32,32,100,,,,,,,,,,,,,,,,,,,,,LDT,right,0.9837860703992192,0,,,right,0,0.9837860703992192,,,,,,,,,,,,,,,,,,,,,,1050,2019_Mar_13_1144,mf_amp_cond2,3.0.4,60.00084670291221,
fontacts,&&&&&&&&,right,nonword,,,,,,,,0,33,33,166,,,,,,,,,,,,,,,,,,,,,LDT,right,1.2838552173343487,1,,,right,1,1.2838552173343487,,,,,,,,,,,,,,,,,,,,,,1050,2019_Mar_13_1144,mf_amp_cond2,3.0.4,60.00084670291221,
fighters,&&&&&&&&,left,authority.vice,,,,,,,,0,34,34,62,,,,,,,,,,,,,,,,,,,,,LDT,left,1.3838912019855343,1,,,left,1,1.3838912019855343,,,,,,,,,,,,,,,,,,,,,,1050,2019_Mar_13_1144,mf_amp_cond2,3.0.4,60.00084670291221,
hand,&&&&,left,sanctity.virtue,,,,,,,,0,35,35,15,,,,,,,,,,,,,,,,,,,,,LDT,left,0.9004011548531707,1,,,left,1,0.9004011548531707,,,,,,,,,,,,,,,,,,,,,,1050,2019_Mar_13_1144,mf_amp_cond2,3.0.4,60.00084670291221,
stindig,&&&&&&&,right,nonword,,,,,,,,0,36,36,131,,,,,,,,,,,,,,,,,,,,,LDT,right,0.5837197458022274,1,,,right,1,0.5837197458022274,,,,,,,,,,,,,,,,,,,,,,1050,2019_Mar_13_1144,mf_amp_cond2,3.0.4,60.00084670291221,
yane,&&&&,right,nonword,,,,,,,,0,37,37,80,,,,,,,,,,,,,,,,,,,,,LDT,right,0.7004007058276329,1,,,right,1,0.7004007058276329,,,,,,,,,,,,,,,,,,,,,,1050,2019_Mar_13_1144,mf_amp_cond2,3.0.4,60.00084670291221,
scandal,&&&&&&&,left,sanctity.vice,,,,,,,,0,38,38,155,,,,,,,,,,,,,,,,,,,,,LDT,right,1.5505882300203666,0,,,right,0,1.5505882300203666,,,,,,,,,,,,,,,,,,,,,,1050,2019_Mar_13_1144,mf_amp_cond2,3.0.4,60.00084670291221,
opportunity,&&&&&&&&&&&,left,fairness.virtue,,,,,,,,0,39,39,26,,,,,,,,,,,,,,,,,,,,,LDT,left,1.4339053456787951,1,,,left,1,1.4339053456787951,,,,,,,,,,,,,,,,,,,,,,1050,2019_Mar_13_1144,mf_amp_cond2,3.0.4,60.00084670291221,
give,&&&&,left,neutral,,,,,,,,0,40,40,129,,,,,,,,,,,,,,,,,,,,,LDT,right,0.9838088414398953,0,,,right,0,0.9838088414398953,,,,,,,,,,,,,,,,,,,,,,1050,2019_Mar_13_1144,mf_amp_cond2,3.0.4,60.00084670291221,
toward,&&&&&&,left,neutral,,,,,,,,0,41,41,30,,,,,,,,,,,,,,,,,,,,,LDT,right,1.1004936500976328,0,,,right,0,1.1004936500976328,,,,,,,,,,,,,,,,,,,,,,1050,2019_Mar_13_1144,mf_amp_cond2,3.0.4,60.00084670291221,
alar,&&&&,right,nonword,,,,,,,,0,42,42,149,,,,,,,,,,,,,,,,,,,,,LDT,left,0.6670591193251312,0,,,left,0,0.6670591193251312,,,,,,,,,,,,,,,,,,,,,,1050,2019_Mar_13_1144,mf_amp_cond2,3.0.4,60.00084670291221,
Cunday,&&&&&&,None,nonword,,,,,,,,0,43,43,126,,,,,,,,,,,,,,,,,,,,,LDT,left,0.35031998096383177,0,,,left,0,0.35031998096383177,,,,,,,,,,,,,,,,,,,,,,1050,2019_Mar_13_1144,mf_amp_cond2,3.0.4,60.00084670291221,
tenuflect,&&&&&&&&&,right,nonword,,,,,,,,0,44,44,128,,,,,,,,,,,,,,,,,,,,,LDT,right,0.4503671907586977,1,,,right,1,0.4503671907586977,,,,,,,,,,,,,,,,,,,,,,1050,2019_Mar_13_1144,mf_amp_cond2,3.0.4,60.00084670291221,
vurtain,&&&&&&&,right,nonword,,,,,,,,0,45,45,50,,,,,,,,,,,,,,,,,,,,,LDT,right,0.41699417380732484,1,,,right,1,0.41699417380732484,,,,,,,,,,,,,,,,,,,,,,1050,2019_Mar_13_1144,mf_amp_cond2,3.0.4,60.00084670291221,
idexpressible,&&&&&&&&&&&&&,right,nonword,,,,,,,,0,46,46,147,,,,,,,,,,,,,,,,,,,,,LDT,right,0.41699417383642867,1,,,right,1,0.41699417383642867,,,,,,,,,,,,,,,,,,,,,,1050,2019_Mar_13_1144,mf_amp_cond2,3.0.4,60.00084670291221,
police,&&&&&&,left,authority.vice,,,,,,,,0,47,47,158,,,,,,,,,,,,,,,,,,,,,LDT,right,0.3003090444544796,0,,,right,0,0.3003090444544796,,,,,,,,,,,,,,,,,,,,,,1050,2019_Mar_13_1144,mf_amp_cond2,3.0.4,60.00084670291221,
epigrach,&&&&&&&&,right,nonword,,,,,,,,0,48,48,173,,,,,,,,,,,,,,,,,,,,,LDT,right,0.9337844347464852,1,,,right,1,0.9337844347464852,,,,,,,,,,,,,,,,,,,,,,1050,2019_Mar_13_1144,mf_amp_cond2,3.0.4,60.00084670291221,
uller,&&&&&,right,nonword,,,,,,,,0,49,49,41,,,,,,,,,,,,,,,,,,,,,LDT,right,0.6503820720827207,1,,,right,1,0.6503820720827207,,,,,,,,,,,,,,,,,,,,,,1050,2019_Mar_13_1144,mf_amp_cond2,3.0.4,60.00084670291221,
party,&&&&&,left,loyalty.virtue,,,,,,,,0,50,50,151,,,,,,,,,,,,,,,,,,,,,LDT,left,0.9504672549664974,1,,,left,1,0.9504672549664974,,,,,,,,,,,,,,,,,,,,,,1050,2019_Mar_13_1144,mf_amp_cond2,3.0.4,60.00084670291221,
wherever,&&&&&&&&,left,neutral,,,,,,,,0,51,51,23,,,,,,,,,,,,,,,,,,,,,LDT,right,0.9671401328814682,0,,,right,0,0.9671401328814682,,,,,,,,,,,,,,,,,,,,,,1050,2019_Mar_13_1144,mf_amp_cond2,3.0.4,60.00084670291221,
emassion,&&&&&&&&,right,nonword,,,,,,,,0,52,52,33,,,,,,,,,,,,,,,,,,,,,LDT,left,0.7004055166034959,0,,,left,0,0.7004055166034959,,,,,,,,,,,,,,,,,,,,,,1050,2019_Mar_13_1144,mf_amp_cond2,3.0.4,60.00084670291221,
spag,&&&&,None,nonword,,,,,,,,0,53,53,189,,,,,,,,,,,,,,,,,,,,,LDT,right,0.416984231560491,0,,,right,0,0.416984231560491,,,,,,,,,,,,,,,,,,,,,,1050,2019_Mar_13_1144,mf_amp_cond2,3.0.4,60.00084670291221,
slending,&&&&&&&&,right,nonword,,,,,,,,0,54,54,69,,,,,,,,,,,,,,,,,,,,,LDT,right,0.31697037650155835,1,,,right,1,0.31697037650155835,,,,,,,,,,,,,,,,,,,,,,1050,2019_Mar_13_1144,mf_amp_cond2,3.0.4,60.00084670291221,
could,&&&&&,left,neutral,,,,,,,,0,55,55,188,,,,,,,,,,,,,,,,,,,,,LDT,right,0.2669494977162685,0,,,right,0,0.2669494977162685,,,,,,,,,,,,,,,,,,,,,,1050,2019_Mar_13_1144,mf_amp_cond2,3.0.4,60.00084670291221,
even,&&&&,left,neutral,,,,,,,,0,56,56,171,,,,,,,,,,,,,,,,,,,,,LDT,right,1.1004984608734958,0,,,right,0,1.1004984608734958,,,,,,,,,,,,,,,,,,,,,,1050,2019_Mar_13_1144,mf_amp_cond2,3.0.4,60.00084670291221,
mih,&&&,right,nonword,,,,,,,,0,57,57,162,,,,,,,,,,,,,,,,,,,,,LDT,right,1.600612315989565,1,,,right,1,1.600612315989565,,,,,,,,,,,,,,,,,,,,,,1050,2019_Mar_13_1144,mf_amp_cond2,3.0.4,60.00084670291221,
fifteen,&&&&&&&,left,neutral,,,,,,,,0,58,58,49,,,,,,,,,,,,,,,,,,,,,LDT,right,2.317454020201694,0,,,right,0,2.317454020201694,,,,,,,,,,,,,,,,,,,,,,1050,2019_Mar_13_1144,mf_amp_cond2,3.0.4,60.00084670291221,
men,&&&,left,loyalty.vice,,,,,,,,0,59,59,34,,,,,,,,,,,,,,,,,,,,,LDT,right,1.0004916616599075,0,,,right,0,1.0004916616599075,,,,,,,,,,,,,,,,,,,,,,1050,2019_Mar_13_1144,mf_amp_cond2,3.0.4,60.00084670291221,
praise,&&&&&&,left,authority.virtue,,,,,,,,0,60,60,70,,,,,,,,,,,,,,,,,,,,,LDT,left,0.7837477766152006,1,,,left,1,0.7837477766152006,,,,,,,,,,,,,,,,,,,,,,1050,2019_Mar_13_1144,mf_amp_cond2,3.0.4,60.00084670291221,
couldnt,&&&&&&&,left,neutral,,,,,,,,0,61,61,159,,,,,,,,,,,,,,,,,,,,,LDT,right,1.0504907315480523,0,,,right,0,1.0504907315480523,,,,,,,,,,,,,,,,,,,,,,1050,2019_Mar_13_1144,mf_amp_cond2,3.0.4,60.00084670291221,
civilians,&&&&&&&&&,left,care.vice,,,,,,,,0,62,62,51,,,,,,,,,,,,,,,,,,,,,LDT,right,1.2838680460990872,0,,,right,0,1.2838680460990872,,,,,,,,,,,,,,,,,,,,,,1050,2019_Mar_13_1144,mf_amp_cond2,3.0.4,60.00084670291221,
corruption,&&&&&&&&&&,left,sanctity.vice,,,,,,,,0,63,63,39,,,,,,,,,,,,,,,,,,,,,LDT,left,1.5339342744846363,1,,,left,1,1.5339342744846363,,,,,,,,,,,,,,,,,,,,,,1050,2019_Mar_13_1144,mf_amp_cond2,3.0.4,60.00084670291221,
safety,&&&&&&,left,care.virtue,,,,,,,,0,64,64,139,,,,,,,,,,,,,,,,,,,,,LDT,left,0.9671295491571072,1,,,left,1,0.9671295491571072,,,,,,,,,,,,,,,,,,,,,,1050,2019_Mar_13_1144,mf_amp_cond2,3.0.4,60.00084670291221,
allears,&&&&&&&,right,nonword,,,,,,,,0,65,65,98,,,,,,,,,,,,,,,,,,,,,LDT,left,0.9004415653762408,0,,,left,0,0.9004415653762408,,,,,,,,,,,,,,,,,,,,,,1050,2019_Mar_13_1144,mf_amp_cond2,3.0.4,60.00084670291221,
gedious,&&&&&&&,right,nonword,,,,,,,,0,66,66,91,,,,,,,,,,,,,,,,,,,,,LDT,right,0.5503903466160409,1,,,right,1,0.5503903466160409,,,,,,,,,,,,,,,,,,,,,,1050,2019_Mar_13_1144,mf_amp_cond2,3.0.4,60.00084670291221,
peace,&&&&&,left,care.virtue,,,,,,,,0,67,67,46,,,,,,,,,,,,,,,,,,,,,LDT,right,0.7337426130543463,0,,,right,0,0.7337426130543463,,,,,,,,,,,,,,,,,,,,,,1050,2019_Mar_13_1144,mf_amp_cond2,3.0.4,60.00084670291221,
elduringly,&&&&&&&&&&,right,nonword,,,,,,,,0,68,68,73,,,,,,,,,,,,,,,,,,,,,LDT,left,0.900488390296232,0,,,left,0,0.900488390296232,,,,,,,,,,,,,,,,,,,,,,1050,2019_Mar_13_1144,mf_amp_cond2,3.0.4,60.00084670291221,
refuejing,&&&&&&&&&,right,nonword,,,,,,,,0,69,69,60,,,,,,,,,,,,,,,,,,,,,LDT,left,1.4339104771788698,0,,,left,0,1.4339104771788698,,,,,,,,,,,,,,,,,,,,,,1050,2019_Mar_13_1144,mf_amp_cond2,3.0.4,60.00084670291221,
egpeditious,&&&&&&&&&&&,right,nonword,,,,,,,,0,70,70,185,,,,,,,,,,,,,,,,,,,,,LDT,right,0.7670902932004537,1,,,right,1,0.7670902932004537,,,,,,,,,,,,,,,,,,,,,,1050,2019_Mar_13_1144,mf_amp_cond2,3.0.4,60.00084670291221,
taxpayung,&&&&&&&&&,right,nonword,,,,,,,,0,71,71,102,,,,,,,,,,,,,,,,,,,,,LDT,right,1.2672067140520085,1,,,right,1,1.2672067140520085,,,,,,,,,,,,,,,,,,,,,,1050,2019_Mar_13_1144,mf_amp_cond2,3.0.4,60.00084670291221,
commitment,&&&&&&&&&&,left,sanctity.virtue,,,,,,,,0,72,72,105,,,,,,,,,,,,,,,,,,,,,LDT,right,1.050495863048127,0,,,right,0,1.050495863048127,,,,,,,,,,,,,,,,,,,,,,1050,2019_Mar_13_1144,mf_amp_cond2,3.0.4,60.00084670291221,
values,&&&&&&,left,sanctity.virtue,,,,,,,,0,73,73,194,,,,,,,,,,,,,,,,,,,,,LDT,left,1.3172080290096346,1,,,left,1,1.3172080290096346,,,,,,,,,,,,,,,,,,,,,,1050,2019_Mar_13_1144,mf_amp_cond2,3.0.4,60.00084670291221,
whereafter,&&&&&&&&&&,left,neutral,,,,,,,,0,74,74,54,,,,,,,,,,,,,,,,,,,,,LDT,left,0.7003173190169036,1,,,left,1,0.7003173190169036,,,,,,,,,,,,,,,,,,,,,,1050,2019_Mar_13_1144,mf_amp_cond2,3.0.4,60.00084670291221,
pumber,&&&&&&,None,nonword,,,,,,,,0,75,75,109,,,,,,,,,,,,,,,,,,,,,LDT,left,0.7337204834911972,0,,,left,0,0.7337204834911972,,,,,,,,,,,,,,,,,,,,,,1050,2019_Mar_13_1144,mf_amp_cond2,3.0.4,60.00084670291221,
fonderland,&&&&&&&&&&,right,nonword,,,,,,,,0,76,76,141,,,,,,,,,,,,,,,,,,,,,LDT,right,1.1838541910401545,1,,,right,1,1.1838541910401545,,,,,,,,,,,,,,,,,,,,,,1050,2019_Mar_13_1144,mf_amp_cond2,3.0.4,60.00084670291221,
fifty,&&&&&,left,neutral,,,,,,,,0,77,77,37,,,,,,,,,,,,,,,,,,,,,LDT,right,0.7337503102899063,0,,,right,0,0.7337503102899063,,,,,,,,,,,,,,,,,,,,,,1050,2019_Mar_13_1144,mf_amp_cond2,3.0.4,60.00084670291221,
interests,&&&&&&&&&,left,fairness.virtue,,,,,,,,0,78,78,157,,,,,,,,,,,,,,,,,,,,,LDT,right,0.9171314414124936,0,,,right,0,0.9171314414124936,,,,,,,,,,,,,,,,,,,,,,1050,2019_Mar_13_1144,mf_amp_cond2,3.0.4,60.00084670291221,
about,&&&&&,left,neutral,,,,,,,,0,79,79,72,,,,,,,,,,,,,,,,,,,,,LDT,right,0.7003939707356039,0,,,right,0,0.7003939707356039,,,,,,,,,,,,,,,,,,,,,,1050,2019_Mar_13_1144,mf_amp_cond2,3.0.4,60.00084670291221,
tislay,&&&&&&,right,nonword,,,,,,,,0,80,80,79,,,,,,,,,,,,,,,,,,,,,LDT,right,0.9004383581923321,1,,,right,1,0.9004383581923321,,,,,,,,,,,,,,,,,,,,,,1050,2019_Mar_13_1144,mf_amp_cond2,3.0.4,60.00084670291221,
Lacedonia,&&&&&&&&&,right,nonword,,,,,,,,0,81,81,137,,,,,,,,,,,,,,,,,,,,,LDT,right,0.8504428162123077,1,,,right,1,0.8504428162123077,,,,,,,,,,,,,,,,,,,,,,1050,2019_Mar_13_1144,mf_amp_cond2,3.0.4,60.00084670291221,
laming,&&&&&&,right,nonword,,,,,,,,0,82,82,61,,,,,,,,,,,,,,,,,,,,,LDT,right,0.8837795919098426,1,,,right,1,0.8837795919098426,,,,,,,,,,,,,,,,,,,,,,1050,2019_Mar_13_1144,mf_amp_cond2,3.0.4,60.00084670291221,
gillipede,&&&&&&&&&,None,nonword,,,,,,,,0,83,83,2,,,,,,,,,,,,,,,,,,,,,LDT,right,0.8170989846694283,0,,,right,0,0.8170989846694283,,,,,,,,,,,,,,,,,,,,,,1050,2019_Mar_13_1144,mf_amp_cond2,3.0.4,60.00084670291221,
thadowed,&&&&&&&&,right,nonword,,,,,,,,0,84,84,96,,,,,,,,,,,,,,,,,,,,,LDT,right,0.9004473383247387,1,,,right,1,0.9004473383247387,,,,,,,,,,,,,,,,,,,,,,1050,2019_Mar_13_1144,mf_amp_cond2,3.0.4,60.00084670291221,
become,&&&&&&,left,neutral,,,,,,,,0,85,85,174,,,,,,,,,,,,,,,,,,,,,LDT,right,1.150519018934574,0,,,right,0,1.150519018934574,,,,,,,,,,,,,,,,,,,,,,1050,2019_Mar_13_1144,mf_amp_cond2,3.0.4,60.00084670291221,
chadows,&&&&&&&,right,nonword,,,,,,,,0,86,86,64,,,,,,,,,,,,,,,,,,,,,LDT,left,0.733741971605923,0,,,left,0,0.733741971605923,,,,,,,,,,,,,,,,,,,,,,1050,2019_Mar_13_1144,mf_amp_cond2,3.0.4,60.00084670291221,
supervuned,&&&&&&&&&&,right,nonword,,,,,,,,0,87,87,187,,,,,,,,,,,,,,,,,,,,,LDT,right,1.2338555059977807,1,,,right,1,1.2338555059977807,,,,,,,,,,,,,,,,,,,,,,1050,2019_Mar_13_1144,mf_amp_cond2,3.0.4,60.00084670291221,
hatigue,&&&&&&&,right,nonword,,,,,,,,0,88,88,154,,,,,,,,,,,,,,,,,,,,,LDT,right,1.683970611920813,1,,,right,1,1.683970611920813,,,,,,,,,,,,,,,,,,,,,,1050,2019_Mar_13_1144,mf_amp_cond2,3.0.4,60.00084670291221,
amount,&&&&&&,left,neutral,,,,,,,,0,89,89,90,,,,,,,,,,,,,,,,,,,,,LDT,right,0.8504344774992205,0,,,right,0,0.8504344774992205,,,,,,,,,,,,,,,,,,,,,,1050,2019_Mar_13_1144,mf_amp_cond2,3.0.4,60.00084670291221,
menizen,&&&&&&&,None,nonword,,,,,,,,0,90,90,113,,,,,,,,,,,,,,,,,,,,,LDT,right,1.4839210929640103,0,,,right,0,1.4839210929640103,,,,,,,,,,,,,,,,,,,,,,1050,2019_Mar_13_1144,mf_amp_cond2,3.0.4,60.00084670291221,
threatened,&&&&&&&&&&,left,fairness.vice,,,,,,,,0,91,91,168,,,,,,,,,,,,,,,,,,,,,LDT,right,1.6338313879678026,0,,,right,0,1.6338313879678026,,,,,,,,,,,,,,,,,,,,,,1050,2019_Mar_13_1144,mf_amp_cond2,3.0.4,60.00084670291221,
thru,&&&&,left,neutral,,,,,,,,0,92,92,182,,,,,,,,,,,,,,,,,,,,,LDT,right,1.4505811100825667,0,,,right,0,1.4505811100825667,,,,,,,,,,,,,,,,,,,,,,1050,2019_Mar_13_1144,mf_amp_cond2,3.0.4,60.00084670291221,
gationwide,&&&&&&&&&&,right,nonword,,,,,,,,0,93,93,65,,,,,,,,,,,,,,,,,,,,,LDT,left,0.5670317941403482,0,,,left,0,0.5670317941403482,,,,,,,,,,,,,,,,,,,,,,1050,2019_Mar_13_1144,mf_amp_cond2,3.0.4,60.00084670291221,
faith,&&&&&,left,sanctity.virtue,,,,,,,,0,94,94,53,,,,,,,,,,,,,,,,,,,,,LDT,left,0.6837230171367992,1,,,left,1,0.6837230171367992,,,,,,,,,,,,,,,,,,,,,,1050,2019_Mar_13_1144,mf_amp_cond2,3.0.4,60.00084670291221,
scock,&&&&&,right,nonword,,,,,,,,0,95,95,170,,,,,,,,,,,,,,,,,,,,,LDT,right,0.6670565535896458,1,,,right,1,0.6670565535896458,,,,,,,,,,,,,,,,,,,,,,1050,2019_Mar_13_1144,mf_amp_cond2,3.0.4,60.00084670291221,
perified,&&&&&&&&,right,nonword,,,,,,,,0,96,96,42,,,,,,,,,,,,,,,,,,,,,LDT,right,1.0004711356305052,1,,,right,1,1.0004711356305052,,,,,,,,,,,,,,,,,,,,,,1050,2019_Mar_13_1144,mf_amp_cond2,3.0.4,60.00084670291221,
amoungst,&&&&&&&&,left,neutral,,,,,,,,0,97,97,144,,,,,,,,,,,,,,,,,,,,,LDT,left,0.8171105305373203,1,,,left,1,0.8171105305373203,,,,,,,,,,,,,,,,,,,,,,1050,2019_Mar_13_1144,mf_amp_cond2,3.0.4,60.00084670291221,
atson,&&&&&,right,nonword,,,,,,,,0,98,98,45,,,,,,,,,,,,,,,,,,,,,LDT,right,1.1338262564386241,1,,,right,1,1.1338262564386241,,,,,,,,,,,,,,,,,,,,,,1050,2019_Mar_13_1144,mf_amp_cond2,3.0.4,60.00084670291221,
restore,&&&&&&&,left,care.virtue,,,,,,,,0,99,99,99,,,,,,,,,,,,,,,,,,,,,LDT,right,1.2338612789462786,0,,,right,0,1.2338612789462786,,,,,,,,,,,,,,,,,,,,,,1050,2019_Mar_13_1144,mf_amp_cond2,3.0.4,60.00084670291221,
metibolic,&&&&&&&&&,right,nonword,,,,,,,,0,100,100,9,,,,,,,,,,,,,,,,,,,,,LDT,right,1.1005000644654501,1,,,right,1,1.1005000644654501,,,,,,,,,,,,,,,,,,,,,,1050,2019_Mar_13_1144,mf_amp_cond2,3.0.4,60.00084670291221,
although,&&&&&&&&,left,neutral,,,,,,,,0,101,101,74,,,,,,,,,,,,,,,,,,,,,LDT,right,1.6506117066019215,0,,,right,0,1.6506117066019215,,,,,,,,,,,,,,,,,,,,,,1050,2019_Mar_13_1144,mf_amp_cond2,3.0.4,60.00084670291221,
promises,&&&&&&&&,left,fairness.virtue,,,,,,,,0,102,102,145,,,,,,,,,,,,,,,,,,,,,LDT,left,0.21693888193112798,1,,,left,1,0.21693888193112798,,,,,,,,,,,,,,,,,,,,,,1050,2019_Mar_13_1144,mf_amp_cond2,3.0.4,60.00084670291221,
papert,&&&&&&,right,nonword,,,,,,,,0,103,103,116,,,,,,,,,,,,,,,,,,,,,LDT,left,0.9171288756479044,0,,,left,0,0.9171288756479044,,,,,,,,,,,,,,,,,,,,,,1050,2019_Mar_13_1144,mf_amp_cond2,3.0.4,60.00084670291221,
grovelire,&&&&&&&&&,right,nonword,,,,,,,,0,104,104,88,,,,,,,,,,,,,,,,,,,,,LDT,right,0.4669942058972083,1,,,right,1,0.4669942058972083,,,,,,,,,,,,,,,,,,,,,,1050,2019_Mar_13_1144,mf_amp_cond2,3.0.4,60.00084670291221,
noped,&&&&&,right,nonword,,,,,,,,0,105,105,67,,,,,,,,,,,,,,,,,,,,,LDT,left,0.5336863590055145,0,,,left,0,0.5336863590055145,,,,,,,,,,,,,,,,,,,,,,1050,2019_Mar_13_1144,mf_amp_cond2,3.0.4,60.00084670291221,
trust,&&&&&,left,authority.virtue,,,,,,,,0,106,106,12,,,,,,,,,,,,,,,,,,,,,LDT,left,0.9504512190178502,1,,,left,1,0.9504512190178502,,,,,,,,,,,,,,,,,,,,,,1050,2019_Mar_13_1144,mf_amp_cond2,3.0.4,60.00084670291221,
seem,&&&&,left,neutral,,,,,,,,0,107,107,164,,,,,,,,,,,,,,,,,,,,,LDT,left,1.7673305114440154,1,,,left,1,1.7673305114440154,,,,,,,,,,,,,,,,,,,,,,1050,2019_Mar_13_1144,mf_amp_cond2,3.0.4,60.00084670291221,
festate,&&&&&&&,right,nonword,,,,,,,,0,108,108,75,,,,,,,,,,,,,,,,,,,,,LDT,left,1.8340168916329276,0,,,left,0,1.8340168916329276,,,,,,,,,,,,,,,,,,,,,,1050,2019_Mar_13_1144,mf_amp_cond2,3.0.4,60.00084670291221,
iptervention,&&&&&&&&&&&&,right,nonword,,,,,,,,0,109,109,161,,,,,,,,,,,,,,,,,,,,,LDT,right,3.2343824466806836,1,,,right,1,3.2343824466806836,,,,,,,,,,,,,,,,,,,,,,1050,2019_Mar_13_1144,mf_amp_cond2,3.0.4,60.00084670291221,
least,&&&&&,left,neutral,,,,,,,,0,110,110,148,,,,,,,,,,,,,,,,,,,,,LDT,right,1.150502662290819,0,,,right,0,1.150502662290819,,,,,,,,,,,,,,,,,,,,,,1050,2019_Mar_13_1144,mf_amp_cond2,3.0.4,60.00084670291221,
great,&&&&&,left,loyalty.virtue,,,,,,,,0,111,111,191,,,,,,,,,,,,,,,,,,,,,LDT,left,0.9337924527062569,1,,,left,1,0.9337924527062569,,,,,,,,,,,,,,,,,,,,,,1050,2019_Mar_13_1144,mf_amp_cond2,3.0.4,60.00084670291221,
prison,&&&&&&,left,fairness.vice,,,,,,,,0,112,112,112,,,,,,,,,,,,,,,,,,,,,LDT,left,1.00048941661953,1,,,left,1,1.00048941661953,,,,,,,,,,,,,,,,,,,,,,1050,2019_Mar_13_1144,mf_amp_cond2,3.0.4,60.00084670291221,
integrity,&&&&&&&&&,left,fairness.virtue,,,,,,,,0,113,113,77,,,,,,,,,,,,,,,,,,,,,LDT,right,0.717055944231106,0,,,right,0,0.717055944231106,,,,,,,,,,,,,,,,,,,,,,1050,2019_Mar_13_1144,mf_amp_cond2,3.0.4,60.00084670291221,
ban,&&&,left,loyalty.vice,,,,,,,,0,114,114,190,,,,,,,,,,,,,,,,,,,,,LDT,right,1.1671777852461673,0,,,right,0,1.1671777852461673,,,,,,,,,,,,,,,,,,,,,,1050,2019_Mar_13_1144,mf_amp_cond2,3.0.4,60.00084670291221,
else,&&&&,left,neutral,,,,,,,,0,115,115,14,,,,,,,,,,,,,,,,,,,,,LDT,left,1.0838204514584504,1,,,left,1,1.0838204514584504,,,,,,,,,,,,,,,,,,,,,,1050,2019_Mar_13_1144,mf_amp_cond2,3.0.4,60.00084670291221,
hescribe,&&&&&&&&,right,nonword,,,,,,,,0,116,116,29,,,,,,,,,,,,,,,,,,,,,LDT,left,0.900446055456996,0,,,left,0,0.900446055456996,,,,,,,,,,,,,,,,,,,,,,1050,2019_Mar_13_1144,mf_amp_cond2,3.0.4,60.00084670291221,
reelectiob,&&&&&&&&&&,right,nonword,,,,,,,,0,117,117,101,,,,,,,,,,,,,,,,,,,,,LDT,left,0.6503798270714469,0,,,left,0,0.6503798270714469,,,,,,,,,,,,,,,,,,,,,,1050,2019_Mar_13_1144,mf_amp_cond2,3.0.4,60.00084670291221,
mostly,&&&&&&,left,neutral,,,,,,,,0,118,118,115,,,,,,,,,,,,,,,,,,,,,LDT,right,0.9504662927938625,0,,,right,0,0.9504662927938625,,,,,,,,,,,,,,,,,,,,,,1050,2019_Mar_13_1144,mf_amp_cond2,3.0.4,60.00084670291221,
ilportation,&&&&&&&&&&&,right,nonword,,,,,,,,0,119,119,10,,,,,,,,,,,,,,,,,,,,,LDT,left,0.7504132459289394,0,,,left,0,0.7504132459289394,,,,,,,,,,,,,,,,,,,,,,1050,2019_Mar_13_1144,mf_amp_cond2,3.0.4,60.00084670291221,
squets,&&&&&&,right,nonword,,,,,,,,0,120,120,111,,,,,,,,,,,,,,,,,,,,,LDT,left,0.8504331946314778,0,,,left,0,0.8504331946314778,,,,,,,,,,,,,,,,,,,,,,1050,2019_Mar_13_1144,mf_amp_cond2,3.0.4,60.00084670291221,
chonograph,&&&&&&&&&&,right,nonword,,,,,,,,0,121,121,114,,,,,,,,,,,,,,,,,,,,,LDT,right,1.3339020743442234,1,,,right,1,1.3339020743442234,,,,,,,,,,,,,,,,,,,,,,1050,2019_Mar_13_1144,mf_amp_cond2,3.0.4,60.00084670291221,
touls,&&&&&,right,nonword,,,,,,,,0,122,122,25,,,,,,,,,,,,,,,,,,,,,LDT,right,0.6003900579817127,1,,,right,1,0.6003900579817127,,,,,,,,,,,,,,,,,,,,,,1050,2019_Mar_13_1144,mf_amp_cond2,3.0.4,60.00084670291221,
pistraught,&&&&&&&&&&,right,nonword,,,,,,,,0,123,123,134,,,,,,,,,,,,,,,,,,,,,LDT,left,1.1171623586851638,0,,,left,0,1.1171623586851638,,,,,,,,,,,,,,,,,,,,,,1050,2019_Mar_13_1144,mf_amp_cond2,3.0.4,60.00084670291221,
three,&&&&&,left,neutral,,,,,,,,0,124,124,36,,,,,,,,,,,,,,,,,,,,,LDT,right,0.2502814305771608,0,,,right,0,0.2502814305771608,,,,,,,,,,,,,,,,,,,,,,1050,2019_Mar_13_1144,mf_amp_cond2,3.0.4,60.00084670291221,
were,&&&&,left,neutral,,,,,,,,0,125,125,68,,,,,,,,,,,,,,,,,,,,,LDT,right,2.4341529404337052,0,,,right,0,2.4341529404337052,,,,,,,,,,,,,,,,,,,,,,1050,2019_Mar_13_1144,mf_amp_cond2,3.0.4,60.00084670291221,
tove,&&&&,right,nonword,,,,,,,,0,126,126,119,,,,,,,,,,,,,,,,,,,,,LDT,left,1.1838586811209098,0,,,left,0,1.1838586811209098,,,,,,,,,,,,,,,,,,,,,,1050,2019_Mar_13_1144,mf_amp_cond2,3.0.4,60.00084670291221,
nuckheap,&&&&&&&&,right,nonword,,,,,,,,0,127,127,7,,,,,,,,,,,,,,,,,,,,,LDT,left,0.9004457347327843,0,,,left,0,0.9004457347327843,,,,,,,,,,,,,,,,,,,,,,1050,2019_Mar_13_1144,mf_amp_cond2,3.0.4,60.00084670291221,
Boeinf,&&&&&&,right,nonword,,,,,,,,0,128,128,8,,,,,,,,,,,,,,,,,,,,,LDT,right,0.5503579540527426,1,,,right,1,0.5503579540527426,,,,,,,,,,,,,,,,,,,,,,1050,2019_Mar_13_1144,mf_amp_cond2,3.0.4,60.00084670291221,
itself,&&&&&&,left,neutral,,,,,,,,0,129,129,19,,,,,,,,,,,,,,,,,,,,,LDT,left,0.6837259035964962,1,,,left,1,0.6837259035964962,,,,,,,,,,,,,,,,,,,,,,1050,2019_Mar_13_1144,mf_amp_cond2,3.0.4,60.00084670291221,
sexual,&&&&&&,left,sanctity.vice,,,,,,,,0,130,130,135,,,,,,,,,,,,,,,,,,,,,LDT,right,0.11690289730904624,0,,,right,0,0.11690289730904624,,,,,,,,,,,,,,,,,,,,,,1050,2019_Mar_13_1144,mf_amp_cond2,3.0.4,60.00084670291221,
latter,&&&&&&,left,neutral,,,,,,,,0,131,131,35,,,,,,,,,,,,,,,,,,,,,LDT,left,0.03356352375703864,1,,,left,1,0.03356352375703864,,,,,,,,,,,,,,,,,,,,,,1050,2019_Mar_13_1144,mf_amp_cond2,3.0.4,60.00084670291221,
rivernoat,&&&&&&&&&,right,nonword,,,,,,,,0,132,132,56,,,,,,,,,,,,,,,,,,,,,LDT,right,0.133611374971224,1,,,right,1,0.133611374971224,,,,,,,,,,,,,,,,,,,,,,1050,2019_Mar_13_1144,mf_amp_cond2,3.0.4,60.00084670291221,
elsewhere,&&&&&&&&&,left,neutral,,,,,,,,0,133,133,184,,,,,,,,,,,,,,,,,,,,,LDT,left,1.217187438858673,1,,,left,1,1.217187438858673,,,,,,,,,,,,,,,,,,,,,,1050,2019_Mar_13_1144,mf_amp_cond2,3.0.4,60.00084670291221,
harassment,&&&&&&&&&&,left,sanctity.vice,,,,,,,,0,134,134,152,,,,,,,,,,,,,,,,,,,,,LDT,left,1.40055542049231,1,,,left,1,1.40055542049231,,,,,,,,,,,,,,,,,,,,,,1050,2019_Mar_13_1144,mf_amp_cond2,3.0.4,60.00084670291221,
there,&&&&&,left,neutral,,,,,,,,0,135,135,55,,,,,,,,,,,,,,,,,,,,,LDT,right,0.8336243320081849,0,,,right,0,0.8336243320081849,,,,,,,,,,,,,,,,,,,,,,1050,2019_Mar_13_1144,mf_amp_cond2,3.0.4,60.00084670291221,
anything,&&&&&&&&,left,neutral,,,,,,,,0,136,136,5,,,,,,,,,,,,,,,,,,,,,LDT,right,0.9004454140085727,0,,,right,0,0.9004454140085727,,,,,,,,,,,,,,,,,,,,,,1050,2019_Mar_13_1144,mf_amp_cond2,3.0.4,60.00084670291221,
tabin,&&&&&,right,nonword,,,,,,,,0,137,137,121,,,,,,,,,,,,,,,,,,,,,LDT,left,0.7170630000473466,0,,,left,0,0.7170630000473466,,,,,,,,,,,,,,,,,,,,,,1050,2019_Mar_13_1144,mf_amp_cond2,3.0.4,60.00084670291221,
lenon,&&&&&,right,nonword,,,,,,,,0,138,138,20,,,,,,,,,,,,,,,,,,,,,LDT,left,0.7837416829715949,0,,,left,0,0.7837416829715949,,,,,,,,,,,,,,,,,,,,,,1050,2019_Mar_13_1144,mf_amp_cond2,3.0.4,60.00084670291221,
therefore,&&&&&&&&&,left,neutral,,,,,,,,0,139,139,24,,,,,,,,,,,,,,,,,,,,,LDT,right,0.7170662072312552,0,,,right,0,0.7170662072312552,,,,,,,,,,,,,,,,,,,,,,1050,2019_Mar_13_1144,mf_amp_cond2,3.0.4,60.00084670291221,
rejected,&&&&&&&&,left,authority.vice,,,,,,,,0,140,140,108,,,,,,,,,,,,,,,,,,,,,LDT,left,1.033833568857517,1,,,left,1,1.033833568857517,,,,,,,,,,,,,,,,,,,,,,1050,2019_Mar_13_1144,mf_amp_cond2,3.0.4,60.00084670291221,
sonvoy,&&&&&&,None,nonword,,,,,,,,0,141,141,58,,,,,,,,,,,,,,,,,,,,,LDT,right,0.23362619220279157,0,,,right,0,0.23362619220279157,,,,,,,,,,,,,,,,,,,,,,1050,2019_Mar_13_1144,mf_amp_cond2,3.0.4,60.00084670291221,
hereby,&&&&&&,left,neutral,,,,,,,,0,142,142,138,,,,,,,,,,,,,,,,,,,,,LDT,left,1.167182916746242,1,,,left,1,1.167182916746242,,,,,,,,,,,,,,,,,,,,,,1050,2019_Mar_13_1144,mf_amp_cond2,3.0.4,60.00084670291221,
less,&&&&,left,neutral,,,,,,,,0,143,143,179,,,,,,,,,,,,,,,,,,,,,LDT,right,1.6339609582792036,0,,,right,0,1.6339609582792036,,,,,,,,,,,,,,,,,,,,,,1050,2019_Mar_13_1144,mf_amp_cond2,3.0.4,60.00084670291221,
erdest,&&&&&&,right,nonword,,,,,,,,0,144,144,52,,,,,,,,,,,,,,,,,,,,,LDT,left,0.45033191167749465,0,,,left,0,0.45033191167749465,,,,,,,,,,,,,,,,,,,,,,1050,2019_Mar_13_1144,mf_amp_cond2,3.0.4,60.00084670291221,
anyhow,&&&&&&,left,neutral,,,,,,,,0,145,145,44,,,,,,,,,,,,,,,,,,,,,LDT,left,0.6169240647286642,1,,,left,1,0.6169240647286642,,,,,,,,,,,,,,,,,,,,,,1050,2019_Mar_13_1144,mf_amp_cond2,3.0.4,60.00084670291221,
gazily,&&&&&&,right,nonword,,,,,,,,0,146,146,136,,,,,,,,,,,,,,,,,,,,,LDT,left,0.583698899106821,0,,,left,0,0.583698899106821,,,,,,,,,,,,,,,,,,,,,,1050,2019_Mar_13_1144,mf_amp_cond2,3.0.4,60.00084670291221,
antral,&&&&&&,right,nonword,,,,,,,,0,147,147,197,,,,,,,,,,,,,,,,,,,,,LDT,right,0.8004508020821959,1,,,right,1,0.8004508020821959,,,,,,,,,,,,,,,,,,,,,,1050,2019_Mar_13_1144,mf_amp_cond2,3.0.4,60.00084670291221,
troops,&&&&&&,left,loyalty.vice,,,,,,,,0,148,148,117,,,,,,,,,,,,,,,,,,,,,LDT,right,0.7670931796601508,0,,,right,0,0.7670931796601508,,,,,,,,,,,,,,,,,,,,,,1050,2019_Mar_13_1144,mf_amp_cond2,3.0.4,60.00084670291221,
gowlands,&&&&&&&&,right,nonword,,,,,,,,0,149,149,146,,,,,,,,,,,,,,,,,,,,,LDT,left,0.6337130428000819,0,,,left,0,0.6337130428000819,,,,,,,,,,,,,,,,,,,,,,1050,2019_Mar_13_1144,mf_amp_cond2,3.0.4,60.00084670291221,
neneficence,&&&&&&&&&&&,right,nonword,,,,,,,,0,150,150,22,,,,,,,,,,,,,,,,,,,,,LDT,left,0.11691283958498389,0,,,left,0,0.11691283958498389,,,,,,,,,,,,,,,,,,,,,,1050,2019_Mar_13_1144,mf_amp_cond2,3.0.4,60.00084670291221,
each,&&&&,left,neutral,,,,,,,,0,151,151,156,,,,,,,,,,,,,,,,,,,,,LDT,left,0.35029175772797316,1,,,left,1,0.35029175772797316,,,,,,,,,,,,,,,,,,,,,,1050,2019_Mar_13_1144,mf_amp_cond2,3.0.4,60.00084670291221,
ammessment,&&&&&&&&&&,right,nonword,,,,,,,,0,152,152,86,,,,,,,,,,,,,,,,,,,,,LDT,left,0.5836982576583978,0,,,left,0,0.5836982576583978,,,,,,,,,,,,,,,,,,,,,,1050,2019_Mar_13_1144,mf_amp_cond2,3.0.4,60.00084670291221,
bycled,&&&&&&,None,nonword,,,,,,,,0,153,153,143,,,,,,,,,,,,,,,,,,,,,LDT,left,0.4336625616706442,0,,,left,0,0.4336625616706442,,,,,,,,,,,,,,,,,,,,,,1050,2019_Mar_13_1144,mf_amp_cond2,3.0.4,60.00084670291221,
with,&&&&,left,neutral,,,,,,,,0,154,154,76,,,,,,,,,,,,,,,,,,,,,LDT,left,1.1671787473896984,1,,,left,1,1.1671787473896984,,,,,,,,,,,,,,,,,,,,,,1050,2019_Mar_13_1144,mf_amp_cond2,3.0.4,60.00084670291221,
divility,&&&&&&&&,right,nonword,,,,,,,,0,155,155,92,,,,,,,,,,,,,,,,,,,,,LDT,right,1.1338458202953916,1,,,right,1,1.1338458202953916,,,,,,,,,,,,,,,,,,,,,,1050,2019_Mar_13_1144,mf_amp_cond2,3.0.4,60.00084670291221,
proached,&&&&&&&&,right,nonword,,,,,,,,0,156,156,84,,,,,,,,,,,,,,,,,,,,,LDT,right,0.8504389675508719,1,,,right,1,0.8504389675508719,,,,,,,,,,,,,,,,,,,,,,1050,2019_Mar_13_1144,mf_amp_cond2,3.0.4,60.00084670291221,
bruthfulness,&&&&&&&&&&&&,right,nonword,,,,,,,,0,157,157,89,,,,,,,,,,,,,,,,,,,,,LDT,right,0.5003611291467678,1,,,right,1,0.5003611291467678,,,,,,,,,,,,,,,,,,,,,,1050,2019_Mar_13_1144,mf_amp_cond2,3.0.4,60.00084670291221,
sliptery,&&&&&&&&,right,nonword,,,,,,,,0,158,158,127,,,,,,,,,,,,,,,,,,,,,LDT,left,1.2505444198322948,0,,,left,0,1.2505444198322948,,,,,,,,,,,,,,,,,,,,,,1050,2019_Mar_13_1144,mf_amp_cond2,3.0.4,60.00084670291221,
been,&&&&,left,neutral,,,,,,,,0,159,159,140,,,,,,,,,,,,,,,,,,,,,LDT,left,1.1338307465193793,1,,,left,1,1.1338307465193793,,,,,,,,,,,,,,,,,,,,,,1050,2019_Mar_13_1144,mf_amp_cond2,3.0.4,60.00084670291221,
promised,&&&&&&&&,left,loyalty.virtue,,,,,,,,0,160,160,40,,,,,,,,,,,,,,,,,,,,,LDT,left,1.3172340072051156,1,,,left,1,1.3172340072051156,,,,,,,,,,,,,,,,,,,,,,1050,2019_Mar_13_1144,mf_amp_cond2,3.0.4,60.00084670291221,
somehow,&&&&&&&,left,neutral,,,,,,,,0,161,161,18,,,,,,,,,,,,,,,,,,,,,LDT,right,0.6670549499976914,0,,,right,0,0.6670549499976914,,,,,,,,,,,,,,,,,,,,,,1050,2019_Mar_13_1144,mf_amp_cond2,3.0.4,60.00084670291221,
wonderfujnoss,&&&&&&&&&&&&&,right,nonword,,,,,,,,0,162,162,66,,,,,,,,,,,,,,,,,,,,,LDT,right,0.7170873746508732,1,,,right,1,0.7170873746508732,,,,,,,,,,,,,,,,,,,,,,1050,2019_Mar_13_1144,mf_amp_cond2,3.0.4,60.00084670291221,
blamed,&&&&&&,left,loyalty.vice,,,,,,,,0,163,163,93,,,,,,,,,,,,,,,,,,,,,LDT,right,0.7170713387313299,0,,,right,0,0.7170713387313299,,,,,,,,,,,,,,,,,,,,,,1050,2019_Mar_13_1144,mf_amp_cond2,3.0.4,60.00084670291221,
whither,&&&&&&&,left,neutral,,,,,,,,0,164,164,175,,,,,,,,,,,,,,,,,,,,,LDT,left,0.717079998110421,1,,,left,1,0.717079998110421,,,,,,,,,,,,,,,,,,,,,,1050,2019_Mar_13_1144,mf_amp_cond2,3.0.4,60.00084670291221,
faspberry,&&&&&&&&&,None,nonword,,,,,,,,0,165,165,27,,,,,,,,,,,,,,,,,,,,,LDT,left,0.8004289932141546,0,,,left,0,0.8004289932141546,,,,,,,,,,,,,,,,,,,,,,1050,2019_Mar_13_1144,mf_amp_cond2,3.0.4,60.00084670291221,
improve,&&&&&&&,left,care.virtue,,,,,,,,0,166,166,153,,,,,,,,,,,,,,,,,,,,,LDT,left,1.2671932438679505,1,,,left,1,1.2671932438679505,,,,,,,,,,,,,,,,,,,,,,1050,2019_Mar_13_1144,mf_amp_cond2,3.0.4,60.00084670291221,
seachwear,&&&&&&&&&,right,nonword,,,,,,,,0,167,167,11,,,,,,,,,,,,,,,,,,,,,LDT,left,0.9504589162825141,0,,,left,0,0.9504589162825141,,,,,,,,,,,,,,,,,,,,,,1050,2019_Mar_13_1144,mf_amp_cond2,3.0.4,60.00084670291221,
asn,&&&,right,nonword,,,,,,,,0,168,168,21,,,,,,,,,,,,,,,,,,,,,LDT,left,0.6837133955850732,0,,,left,0,0.6837133955850732,,,,,,,,,,,,,,,,,,,,,,1050,2019_Mar_13_1144,mf_amp_cond2,3.0.4,60.00084670291221,
lempestuous,&&&&&&&&&&&,right,nonword,,,,,,,,0,169,169,78,,,,,,,,,,,,,,,,,,,,,LDT,right,0.3836474558338523,1,,,right,1,0.3836474558338523,,,,,,,,,,,,,,,,,,,,,,1050,2019_Mar_13_1144,mf_amp_cond2,3.0.4,60.00084670291221,
forepo,&&&&&&,right,nonword,,,,,,,,0,170,170,103,,,,,,,,,,,,,,,,,,,,,LDT,left,0.23362138139782473,0,,,left,0,0.23362138139782473,,,,,,,,,,,,,,,,,,,,,,1050,2019_Mar_13_1144,mf_amp_cond2,3.0.4,60.00084670291221,
killed,&&&&&&,left,care.vice,,,,,,,,0,171,171,124,,,,,,,,,,,,,,,,,,,,,LDT,right,0.050266869948245585,0,,,right,0,0.050266869948245585,,,,,,,,,,,,,,,,,,,,,,1050,2019_Mar_13_1144,mf_amp_cond2,3.0.4,60.00084670291221,
respect,&&&&&&&,left,sanctity.virtue,,,,,,,,0,172,172,106,,,,,,,,,,,,,,,,,,,,,LDT,right,0.20027498414856382,0,,,right,0,0.20027498414856382,,,,,,,,,,,,,,,,,,,,,,1050,2019_Mar_13_1144,mf_amp_cond2,3.0.4,60.00084670291221,
attacks,&&&&&&&,left,care.vice,,,,,,,,0,173,173,176,,,,,,,,,,,,,,,,,,,,,LDT,left,0.016899946698686108,1,,,left,1,0.016899946698686108,,,,,,,,,,,,,,,,,,,,,,1050,2019_Mar_13_1144,mf_amp_cond2,3.0.4,60.00084670291221,
pescinded,&&&&&&&&&,right,nonword,,,,,,,,0,174,174,180,,,,,,,,,,,,,,,,,,,,,LDT,right,0.00023701105965301394,1,,,right,1,0.00023701105965301394,,,,,,,,,,,,,,,,,,,,,,1050,2019_Mar_13_1144,mf_amp_cond2,3.0.4,60.00084670291221,
hate,&&&&,left,fairness.vice,,,,,,,,0,175,175,183,,,,,,,,,,,,,,,,,,,,,LDT,left,0.016890325146960095,1,,,left,1,0.016890325146960095,,,,,,,,,,,,,,,,,,,,,,1050,2019_Mar_13_1144,mf_amp_cond2,3.0.4,60.00084670291221,
besides,&&&&&&&,left,neutral,,,,,,,,0,176,176,125,,,,,,,,,,,,,,,,,,,,,LDT,left,0.23361047697835602,1,,,left,1,0.23361047697835602,,,,,,,,,,,,,,,,,,,,,,1050,2019_Mar_13_1144,mf_amp_cond2,3.0.4,60.00084670291221,
baladroit,&&&&&&&&&,right,nonword,,,,,,,,0,177,177,199,,,,,,,,,,,,,,,,,,,,,LDT,left,0.9504630856099539,0,,,left,0,0.9504630856099539,,,,,,,,,,,,,,,,,,,,,,1050,2019_Mar_13_1144,mf_amp_cond2,3.0.4,60.00084670291221,
both,&&&&,left,neutral,,,,,,,,0,178,178,165,,,,,,,,,,,,,,,,,,,,,LDT,left,0.7170694144151639,1,,,left,1,0.7170694144151639,,,,,,,,,,,,,,,,,,,,,,1050,2019_Mar_13_1144,mf_amp_cond2,3.0.4,60.00084670291221,
pullness,&&&&&&&&,right,nonword,,,,,,,,0,179,179,132,,,,,,,,,,,,,,,,,,,,,LDT,left,3.4510682816326153,0,,,left,0,3.4510682816326153,,,,,,,,,,,,,,,,,,,,,,1050,2019_Mar_13_1144,mf_amp_cond2,3.0.4,60.00084670291221,
actively,&&&&&&&&,left,authority.virtue,,,,,,,,0,180,180,63,,,,,,,,,,,,,,,,,,,,,LDT,right,0.8504264595685527,0,,,right,0,0.8504264595685527,,,,,,,,,,,,,,,,,,,,,,1050,2019_Mar_13_1144,mf_amp_cond2,3.0.4,60.00084670291221,
further,&&&&&&&,left,neutral,,,,,,,,0,181,181,71,,,,,,,,,,,,,,,,,,,,,LDT,left,0.5003383581351954,1,,,left,1,0.5003383581351954,,,,,,,,,,,,,,,,,,,,,,1050,2019_Mar_13_1144,mf_amp_cond2,3.0.4,60.00084670291221,
suggists,&&&&&&&&,right,nonword,,,,,,,,0,182,182,82,,,,,,,,,,,,,,,,,,,,,LDT,right,1.0504936180077493,1,,,right,1,1.0504936180077493,,,,,,,,,,,,,,,,,,,,,,1050,2019_Mar_13_1144,mf_amp_cond2,3.0.4,60.00084670291221,
compassion,&&&&&&&&&&,left,care.virtue,,,,,,,,0,183,183,48,,,,,,,,,,,,,,,,,,,,,LDT,right,0.3336365193245001,0,,,right,0,0.3336365193245001,,,,,,,,,,,,,,,,,,,,,,1050,2019_Mar_13_1144,mf_amp_cond2,3.0.4,60.00084670291221,
letish,&&&&&&,right,nonword,,,,,,,,0,184,184,0,,,,,,,,,,,,,,,,,,,,,LDT,left,0.600405131757725,0,,,left,0,0.600405131757725,,,,,,,,,,,,,,,,,,,,,,1050,2019_Mar_13_1144,mf_amp_cond2,3.0.4,60.00084670291221,
presentkess,&&&&&&&&&&&,right,nonword,,,,,,,,0,185,185,43,,,,,,,,,,,,,,,,,,,,,LDT,right,0.6337287580245174,1,,,right,1,0.6337287580245174,,,,,,,,,,,,,,,,,,,,,,1050,2019_Mar_13_1144,mf_amp_cond2,3.0.4,60.00084670291221,
latterly,&&&&&&&&,left,neutral,,,,,,,,0,186,186,16,,,,,,,,,,,,,,,,,,,,,LDT,left,0.7837666990235448,1,,,left,1,0.7837666990235448,,,,,,,,,,,,,,,,,,,,,,1050,2019_Mar_13_1144,mf_amp_cond2,3.0.4,60.00084670291221,
disregord,&&&&&&&&&,right,nonword,,,,,,,,0,187,187,142,,,,,,,,,,,,,,,,,,,,,LDT,right,0.8504354396718554,1,,,right,1,0.8504354396718554,,,,,,,,,,,,,,,,,,,,,,1050,2019_Mar_13_1144,mf_amp_cond2,3.0.4,60.00084670291221,
useful,&&&&&&,left,authority.virtue,,,,,,,,0,188,188,177,,,,,,,,,,,,,,,,,,,,,LDT,left,1.0004631176707335,1,,,left,1,1.0004631176707335,,,,,,,,,,,,,,,,,,,,,,1050,2019_Mar_13_1144,mf_amp_cond2,3.0.4,60.00084670291221,
troubla,&&&&&&&,right,nonword,,,,,,,,0,189,189,195,,,,,,,,,,,,,,,,,,,,,LDT,right,0.7170726215990726,1,,,right,1,0.7170726215990726,,,,,,,,,,,,,,,,,,,,,,1050,2019_Mar_13_1144,mf_amp_cond2,3.0.4,60.00084670291221,
ejanulated,&&&&&&&&&&,right,nonword,,,,,,,,0,190,190,85,,,,,,,,,,,,,,,,,,,,,LDT,right,0.7170610757311806,1,,,right,1,0.7170610757311806,,,,,,,,,,,,,,,,,,,,,,1050,2019_Mar_13_1144,mf_amp_cond2,3.0.4,60.00084670291221,
forty,&&&&&,left,neutral,,,,,,,,0,191,191,130,,,,,,,,,,,,,,,,,,,,,LDT,right,0.7002656832919456,0,,,right,0,0.7002656832919456,,,,,,,,,,,,,,,,,,,,,,1050,2019_Mar_13_1144,mf_amp_cond2,3.0.4,60.00084670291221,
gusinesslike,&&&&&&&&&&&&,right,nonword,,,,,,,,0,192,192,6,,,,,,,,,,,,,,,,,,,,,LDT,left,0.6337178535759449,0,,,left,0,0.6337178535759449,,,,,,,,,,,,,,,,,,,,,,1050,2019_Mar_13_1144,mf_amp_cond2,3.0.4,60.00084670291221,
accused,&&&&&&&,left,fairness.vice,,,,,,,,0,193,193,181,,,,,,,,,,,,,,,,,,,,,LDT,left,1.0338300409493968,1,,,left,1,1.0338300409493968,,,,,,,,,,,,,,,,,,,,,,1050,2019_Mar_13_1144,mf_amp_cond2,3.0.4,60.00084670291221,
juck,&&&&,right,nonword,,,,,,,,0,194,194,4,,,,,,,,,,,,,,,,,,,,,LDT,right,0.4336696174868848,1,,,right,1,0.4336696174868848,,,,,,,,,,,,,,,,,,,,,,1050,2019_Mar_13_1144,mf_amp_cond2,3.0.4,60.00084670291221,
either,&&&&&&,left,neutral,,,,,,,,0,195,195,167,,,,,,,,,,,,,,,,,,,,,LDT,left,1.1338371608871967,1,,,left,1,1.1338371608871967,,,,,,,,,,,,,,,,,,,,,,1050,2019_Mar_13_1144,mf_amp_cond2,3.0.4,60.00084670291221,
strofe,&&&&&&,right,nonword,,,,,,,,0,196,196,87,,,,,,,,,,,,,,,,,,,,,LDT,right,0.3336644218652509,1,,,right,1,0.3336644218652509,,,,,,,,,,,,,,,,,,,,,,1050,2019_Mar_13_1144,mf_amp_cond2,3.0.4,60.00084670291221,
smapper,&&&&&&&,right,nonword,,,,,,,,0,197,197,107,,,,,,,,,,,,,,,,,,,,,LDT,right,0.7670781058841385,1,,,right,1,0.7670781058841385,,,,,,,,,,,,,,,,,,,,,,1050,2019_Mar_13_1144,mf_amp_cond2,3.0.4,60.00084670291221,
slavery,&&&&&&&,left,loyalty.vice,,,,,,,,0,198,198,97,,,,,,,,,,,,,,,,,,,,,LDT,left,0.9671324356168043,1,,,left,1,0.9671324356168043,,,,,,,,,,,,,,,,,,,,,,1050,2019_Mar_13_1144,mf_amp_cond2,3.0.4,60.00084670291221,
dormandi,&&&&&&&&,None,nonword,,,,,,,,0,199,199,32,,,,,,,,,,,,,,,,,,,,,LDT,right,0.6003698527056258,0,,,right,0,0.6003698527056258,,,,,,,,,,,,,,,,,,,,,,1050,2019_Mar_13_1144,mf_amp_cond2,3.0.4,60.00084670291221,
,,,,,,,,,,,,,,,,,,,,,,,,,,,,,,,,,,,,,,,,,,,,6,12.405,,,,,,,,,,,,,,,,,,,,1050,2019_Mar_13_1144,mf_amp_cond2,3.0.4,60.00084670291221,
,,,,,,,,,,,,,,,,,,,,,,,,,,,,,,,,,,,,,,,,,,,,,,right,1.7673420573119074,,,,,,,,,,,,,,,,,,1050,2019_Mar_13_1144,mf_amp_cond2,3.0.4,60.00084670291221,
car,&&&&&&&&,,,cemtuper,,,,,,,,,,,0,0,0,0,,,,,,,,,,,,,,,,,AMP_prac,right,3.0509884868515655,,,,,,,,,,,right,3.0509884868515655,,,,,,,,,,,,,,,,1050,2019_Mar_13_1144,mf_amp_cond2,3.0.4,60.00084670291221,
scarf,&&&&&&&&,,,bisebell,,,,,,,,,,,0,1,1,3,,,,,,,,,,,,,,,,,AMP_prac,right,2.4008418222365435,,,,,,,,,,,right,2.4008418222365435,,,,,,,,,,,,,,,,1050,2019_Mar_13_1144,mf_amp_cond2,3.0.4,60.00084670291221,
keyboard,&&&&,,,senk,,,,,,,,,,,0,2,2,2,,,,,,,,,,,,,,,,,AMP_prac,right,1.4505849586857948,,,,,,,,,,,right,1.4505849586857948,,,,,,,,,,,,,,,,1050,2019_Mar_13_1144,mf_amp_cond2,3.0.4,60.00084670291221,
banana,&&&&&&,,,kacket,,,,,,,,,,,0,3,3,1,,,,,,,,,,,,,,,,,AMP_prac,left,1.8173414479533676,,,,,,,,,,,left,1.8173414479533676,,,,,,,,,,,,,,,,1050,2019_Mar_13_1144,mf_amp_cond2,3.0.4,60.00084670291221,
,,,,,,,,,,,,,,,,,,,,,,,,,,,,,,,,,,,,,,,,,,,,,,,,,,right,1.6506200452859048,,,,,,,,,,,,,,1050,2019_Mar_13_1144,mf_amp_cond2,3.0.4,60.00084670291221,
injured,&&&&&&&&&,right,care.vice,chressing,,,,,,,,,,,,,,,0,0,0,301,,,,,,,,,,,,,AMP,left,1.133831067243591,0,,,,,,,,,,,,,,left,0,1.133831067243591,,,,,,,,,,,1050,2019_Mar_13_1144,mf_amp_cond2,3.0.4,60.00084670291221,
crime,&&&&&&&&,right,fairness.vice,framatic,,,,,,,,,,,,,,,0,1,1,42,,,,,,,,,,,,,AMP,left,2.1674221728171688,0,,,,,,,,,,,,,,left,0,2.1674221728171688,,,,,,,,,,,1050,2019_Mar_13_1144,mf_amp_cond2,3.0.4,60.00084670291221,
charges,&&&&&&&&&&,right,fairness.vice,ecgagement,,,,,,,,,,,,,,,0,2,2,33,,,,,,,,,,,,,AMP,right,1.2005572165071499,1,,,,,,,,,,,,,,right,1,1.2005572165071499,,,,,,,,,,,1050,2019_Mar_13_1144,mf_amp_cond2,3.0.4,60.00084670291221,
freedom,&&&&&&&&&&&,left,sanctity.virtue,sowntrodden,,,,,,,,,,,,,,,0,3,3,8,,,,,,,,,,,,,AMP,right,1.333880265505286,0,,,,,,,,,,,,,,right,0,1.333880265505286,,,,,,,,,,,1050,2019_Mar_13_1144,mf_amp_cond2,3.0.4,60.00084670291221,
fair,&&&&&,left,fairness.virtue,dumid,,,,,,,,,,,,,,,0,4,4,75,,,,,,,,,,,,,AMP,left,1.3172160469403025,1,,,,,,,,,,,,,,left,1,1.3172160469403025,,,,,,,,,,,1050,2019_Mar_13_1144,mf_amp_cond2,3.0.4,60.00084670291221,
army,&&&&&&&&&&,right,loyalty.vice,lorthwhile,,,,,,,,,,,,,,,0,5,5,177,,,,,,,,,,,,,AMP,right,0.4836696495767683,1,,,,,,,,,,,,,,right,1,0.4836696495767683,,,,,,,,,,,1050,2019_Mar_13_1144,mf_amp_cond2,3.0.4,60.00084670291221,
failure,&&&&&&&,right,loyalty.vice,carvels,,,,,,,,,,,,,,,0,6,6,144,,,,,,,,,,,,,AMP,right,1.0004486853431445,1,,,,,,,,,,,,,,right,1,1.0004486853431445,,,,,,,,,,,1050,2019_Mar_13_1144,mf_amp_cond2,3.0.4,60.00084670291221,
credit,&&&&&&,left,fairness.virtue,prones,,,,,,,,,,,,,,,0,7,7,239,,,,,,,,,,,,,AMP,left,0.7170703765877988,1,,,,,,,,,,,,,,left,1,0.7170703765877988,,,,,,,,,,,1050,2019_Mar_13_1144,mf_amp_cond2,3.0.4,60.00084670291221,
refused,&&&&&&&&,right,authority.vice,clamorek,,,,,,,,,,,,,,,0,8,8,53,,,,,,,,,,,,,AMP,left,0.6837236585561186,0,,,,,,,,,,,,,,left,0,0.6837236585561186,,,,,,,,,,,1050,2019_Mar_13_1144,mf_amp_cond2,3.0.4,60.00084670291221,
honored,&&&&&&,left,authority.virtue,greaks,,,,,,,,,,,,,,,0,9,9,96,,,,,,,,,,,,,AMP,left,1.183835589356022,1,,,,,,,,,,,,,,left,1,1.183835589356022,,,,,,,,,,,1050,2019_Mar_13_1144,mf_amp_cond2,3.0.4,60.00084670291221,
violations,&&&&&&&&,right,sanctity.vice,glacenta,,,,,,,,,,,,,,,0,10,10,175,,,,,,,,,,,,,AMP,right,0.6670485356298741,1,,,,,,,,,,,,,,right,1,0.6670485356298741,,,,,,,,,,,1050,2019_Mar_13_1144,mf_amp_cond2,3.0.4,60.00084670291221,
credit,&&&&&&&&&&,left,fairness.virtue,Oregoniuns,,,,,,,,,,,,,,,0,11,11,121,,,,,,,,,,,,,AMP,right,1.500521167734405,0,,,,,,,,,,,,,,right,0,1.500521167734405,,,,,,,,,,,1050,2019_Mar_13_1144,mf_amp_cond2,3.0.4,60.00084670291221,
unpleasant,&&&&&,None,control,viscs,,,,,,,,,,,,,,,0,12,12,93,,,,,,,,,,,,,AMP,left,1.0171260533097666,0,,,,,,,,,,,,,,left,0,1.0171260533097666,,,,,,,,,,,1050,2019_Mar_13_1144,mf_amp_cond2,3.0.4,60.00084670291221,
pharing,&&&&&&&&&,None,nonword,chressing,,,,,,,,,,,,,,,0,13,13,150,,,,,,,,,,,,,AMP,right,0.700387235643575,0,,,,,,,,,,,,,,right,0,0.700387235643575,,,,,,,,,,,1050,2019_Mar_13_1144,mf_amp_cond2,3.0.4,60.00084670291221,
serial,&&&&&&&,right,sanctity.vice,brudent,,,,,,,,,,,,,,,0,14,14,256,,,,,,,,,,,,,AMP,left,0.6837198099819943,0,,,,,,,,,,,,,,left,0,0.6837198099819943,,,,,,,,,,,1050,2019_Mar_13_1144,mf_amp_cond2,3.0.4,60.00084670291221,
gournful,&&&&&&&&&&&&,None,nonword,edancipation,,,,,,,,,,,,,,,0,15,15,13,,,,,,,,,,,,,AMP,left,0.7337259356863797,0,,,,,,,,,,,,,,left,0,0.7337259356863797,,,,,,,,,,,1050,2019_Mar_13_1144,mf_amp_cond2,3.0.4,60.00084670291221,
shot,&&&&&&&,right,care.vice,scalbel,,,,,,,,,,,,,,,0,16,16,296,,,,,,,,,,,,,AMP,left,0.5336850761377718,0,,,,,,,,,,,,,,left,0,0.5336850761377718,,,,,,,,,,,1050,2019_Mar_13_1144,mf_amp_cond2,3.0.4,60.00084670291221,
fornicalion,&&&&&&&&,None,nonword,glacenta,,,,,,,,,,,,,,,0,17,17,18,,,,,,,,,,,,,AMP,right,0.7670745779760182,0,,,,,,,,,,,,,,right,0,0.7670745779760182,,,,,,,,,,,1050,2019_Mar_13_1144,mf_amp_cond2,3.0.4,60.00084670291221,
growth,&&&&&&&&&&&,left,care.virtue,shoirmaster,,,,,,,,,,,,,,,0,18,18,200,,,,,,,,,,,,,AMP,left,0.7170553027826827,1,,,,,,,,,,,,,,left,1,0.7170553027826827,,,,,,,,,,,1050,2019_Mar_13_1144,mf_amp_cond2,3.0.4,60.00084670291221,
agreement,&&&&,left,fairness.virtue,erks,,,,,,,,,,,,,,,0,19,19,323,,,,,,,,,,,,,AMP,left,0.5337088093219791,1,,,,,,,,,,,,,,left,1,0.5337088093219791,,,,,,,,,,,1050,2019_Mar_13_1144,mf_amp_cond2,3.0.4,60.00084670291221,
photocalkodes,&&&&&&&&&&,None,nonword,clattening,,,,,,,,,,,,,,,0,20,20,271,,,,,,,,,,,,,AMP,left,0.6670661751704756,0,,,,,,,,,,,,,,left,0,0.6670661751704756,,,,,,,,,,,1050,2019_Mar_13_1144,mf_amp_cond2,3.0.4,60.00084670291221,
groups,&&&&&,right,loyalty.vice,dumid,,,,,,,,,,,,,,,0,21,21,229,,,,,,,,,,,,,AMP,right,0.5836982576583978,1,,,,,,,,,,,,,,right,1,0.5836982576583978,,,,,,,,,,,1050,2019_Mar_13_1144,mf_amp_cond2,3.0.4,60.00084670291221,
care,&&&&&&&&&,left,care.virtue,brotesque,,,,,,,,,,,,,,,0,22,22,293,,,,,,,,,,,,,AMP,right,0.700420590408612,0,,,,,,,,,,,,,,right,0,0.700420590408612,,,,,,,,,,,1050,2019_Mar_13_1144,mf_amp_cond2,3.0.4,60.00084670291221,
blunderints,&&&&&&&&&&,None,nonword,imebreaker,,,,,,,,,,,,,,,0,23,23,19,,,,,,,,,,,,,AMP,right,0.9004592048877385,0,,,,,,,,,,,,,,right,0,0.9004592048877385,,,,,,,,,,,1050,2019_Mar_13_1144,mf_amp_cond2,3.0.4,60.00084670291221,
forced,&&&&&&&&,right,fairness.vice,ebbitter,,,,,,,,,,,,,,,0,24,24,163,,,,,,,,,,,,,AMP,left,0.3169536991335917,0,,,,,,,,,,,,,,left,0,0.3169536991335917,,,,,,,,,,,1050,2019_Mar_13_1144,mf_amp_cond2,3.0.4,60.00084670291221,
unpleasant,&&&&&&&&&,None,control,godlaness,,,,,,,,,,,,,,,0,25,25,36,,,,,,,,,,,,,AMP,left,0.9171144433203153,0,,,,,,,,,,,,,,left,0,0.9171144433203153,,,,,,,,,,,1050,2019_Mar_13_1144,mf_amp_cond2,3.0.4,60.00084670291221,
loyalty,&&&&,left,loyalty.virtue,ning,,,,,,,,,,,,,,,0,26,26,47,,,,,,,,,,,,,AMP,right,1.0671517429000232,0,,,,,,,,,,,,,,right,0,1.0671517429000232,,,,,,,,,,,1050,2019_Mar_13_1144,mf_amp_cond2,3.0.4,60.00084670291221,
lachelor,&&&&&&&&,None,nonword,tracious,,,,,,,,,,,,,,,0,27,27,261,,,,,,,,,,,,,AMP,left,0.8337542230729014,0,,,,,,,,,,,,,,left,0,0.8337542230729014,,,,,,,,,,,1050,2019_Mar_13_1144,mf_amp_cond2,3.0.4,60.00084670291221,
penalty,&&&&&&&,right,authority.vice,Loorish,,,,,,,,,,,,,,,0,28,28,127,,,,,,,,,,,,,AMP,left,0.9337850761949085,0,,,,,,,,,,,,,,left,0,0.9337850761949085,,,,,,,,,,,1050,2019_Mar_13_1144,mf_amp_cond2,3.0.4,60.00084670291221,
protect,&&&&&&&&&&&,left,fairness.virtue,sowntrodden,,,,,,,,,,,,,,,0,29,29,156,,,,,,,,,,,,,AMP,left,0.6503852792666294,1,,,,,,,,,,,,,,left,1,0.6503852792666294,,,,,,,,,,,1050,2019_Mar_13_1144,mf_amp_cond2,3.0.4,60.00084670291221,
lies,&&&&&,right,fairness.vice,hasks,,,,,,,,,,,,,,,0,30,30,273,,,,,,,,,,,,,AMP,left,1.467254629416857,0,,,,,,,,,,,,,,left,0,1.467254629416857,,,,,,,,,,,1050,2019_Mar_13_1144,mf_amp_cond2,3.0.4,60.00084670291221,
fair,&&&&&&&&&&,left,fairness.virtue,frocessing,,,,,,,,,,,,,,,0,31,31,92,,,,,,,,,,,,,AMP,right,0.8336573660490103,0,,,,,,,,,,,,,,right,0,0.8336573660490103,,,,,,,,,,,1050,2019_Mar_13_1144,mf_amp_cond2,3.0.4,60.00084670291221,
conspiracy,&&&&&&&,right,sanctity.vice,Daptist,,,,,,,,,,,,,,,0,32,32,128,,,,,,,,,,,,,AMP,left,0.717060755006969,0,,,,,,,,,,,,,,left,0,0.717060755006969,,,,,,,,,,,1050,2019_Mar_13_1144,mf_amp_cond2,3.0.4,60.00084670291221,
loyalty,&&&&&&,left,loyalty.virtue,sgrawl,,,,,,,,,,,,,,,0,33,33,157,,,,,,,,,,,,,AMP,left,0.8837920999212656,1,,,,,,,,,,,,,,left,1,0.8837920999212656,,,,,,,,,,,1050,2019_Mar_13_1144,mf_amp_cond2,3.0.4,60.00084670291221,
increase,&&&&&&&&&,left,care.virtue,ittutable,,,,,,,,,,,,,,,0,34,34,113,,,,,,,,,,,,,AMP,left,0.7170662072312552,1,,,,,,,,,,,,,,left,1,0.7170662072312552,,,,,,,,,,,1050,2019_Mar_13_1144,mf_amp_cond2,3.0.4,60.00084670291221,
violations,&&&&&,right,sanctity.vice,pafer,,,,,,,,,,,,,,,0,35,35,275,,,,,,,,,,,,,AMP,left,0.8837783090420999,0,,,,,,,,,,,,,,left,0,0.8837783090420999,,,,,,,,,,,1050,2019_Mar_13_1144,mf_amp_cond2,3.0.4,60.00084670291221,
totalestic,&&&&&&&,None,nonword,Loorish,,,,,,,,,,,,,,,0,36,36,325,,,,,,,,,,,,,AMP,left,0.7170633207424544,0,,,,,,,,,,,,,,left,0,0.7170633207424544,,,,,,,,,,,1050,2019_Mar_13_1144,mf_amp_cond2,3.0.4,60.00084670291221,
suicide,&&&&&&&&&&,right,care.vice,ecgagement,,,,,,,,,,,,,,,0,37,37,107,,,,,,,,,,,,,AMP,right,2.0007059016788844,1,,,,,,,,,,,,,,right,1,2.0007059016788844,,,,,,,,,,,1050,2019_Mar_13_1144,mf_amp_cond2,3.0.4,60.00084670291221,
protect,&&&&&&&&,left,fairness.virtue,counpy's,,,,,,,,,,,,,,,0,38,38,316,,,,,,,,,,,,,AMP,left,0.900437396048801,1,,,,,,,,,,,,,,left,1,0.900437396048801,,,,,,,,,,,1050,2019_Mar_13_1144,mf_amp_cond2,3.0.4,60.00084670291221,
fornicalion,&&&&&&&&&&&&,None,nonword,rorroborated,,,,,,,,,,,,,,,0,39,39,160,,,,,,,,,,,,,AMP,left,1.1004878771782387,0,,,,,,,,,,,,,,left,0,1.1004878771782387,,,,,,,,,,,1050,2019_Mar_13_1144,mf_amp_cond2,3.0.4,60.00084670291221,
free,&&&&&&,left,fairness.virtue,gikely,,,,,,,,,,,,,,,0,40,40,270,,,,,,,,,,,,,AMP,left,0.900324182381155,1,,,,,,,,,,,,,,left,1,0.900324182381155,,,,,,,,,,,1050,2019_Mar_13_1144,mf_amp_cond2,3.0.4,60.00084670291221,
embrace,&&&&&&&&&&,left,authority.virtue,frocessing,,,,,,,,,,,,,,,0,41,41,315,,,,,,,,,,,,,AMP,right,1.7173032182909083,0,,,,,,,,,,,,,,right,0,1.7173032182909083,,,,,,,,,,,1050,2019_Mar_13_1144,mf_amp_cond2,3.0.4,60.00084670291221,
abuse,&&&&&&&&&,right,sanctity.vice,unscothed,,,,,,,,,,,,,,,0,42,42,183,,,,,,,,,,,,,AMP,left,0.6003595897054765,0,,,,,,,,,,,,,,left,0,0.6003595897054765,,,,,,,,,,,1050,2019_Mar_13_1144,mf_amp_cond2,3.0.4,60.00084670291221,
free,&&&,left,fairness.virtue,oam,,,,,,,,,,,,,,,0,43,43,122,,,,,,,,,,,,,AMP,right,1.083846750378143,0,,,,,,,,,,,,,,right,0,1.083846750378143,,,,,,,,,,,1050,2019_Mar_13_1144,mf_amp_cond2,3.0.4,60.00084670291221,
fear,&&&&&&&&&&&,right,sanctity.vice,shoirmaster,,,,,,,,,,,,,,,0,44,44,23,,,,,,,,,,,,,AMP,left,0.650375978439115,0,,,,,,,,,,,,,,left,0,0.650375978439115,,,,,,,,,,,1050,2019_Mar_13_1144,mf_amp_cond2,3.0.4,60.00084670291221,
penalty,&&&&&&&&&&,right,authority.vice,imebreaker,,,,,,,,,,,,,,,0,45,45,286,,,,,,,,,,,,,AMP,left,0.5503541054204106,0,,,,,,,,,,,,,,left,0,0.5503541054204106,,,,,,,,,,,1050,2019_Mar_13_1144,mf_amp_cond2,3.0.4,60.00084670291221,
violence,&&&&&&&&&,right,care.vice,crilfully,,,,,,,,,,,,,,,0,46,46,204,,,,,,,,,,,,,AMP,left,0.8337686553713866,0,,,,,,,,,,,,,,left,0,0.8337686553713866,,,,,,,,,,,1050,2019_Mar_13_1144,mf_amp_cond2,3.0.4,60.00084670291221,
promote,&&&&&&&&&&&,left,sanctity.virtue,nomparisons,,,,,,,,,,,,,,,0,47,47,266,,,,,,,,,,,,,AMP,right,1.1838436073448975,0,,,,,,,,,,,,,,right,0,1.1838436073448975,,,,,,,,,,,1050,2019_Mar_13_1144,mf_amp_cond2,3.0.4,60.00084670291221,
wump,&&&&&&&&&&&,None,nonword,ronviolence,,,,,,,,,,,,,,,0,48,48,321,,,,,,,,,,,,,AMP,left,1.0338095149490982,0,,,,,,,,,,,,,,left,0,1.0338095149490982,,,,,,,,,,,1050,2019_Mar_13_1144,mf_amp_cond2,3.0.4,60.00084670291221,
pleasant,&&&&&&&&&&&&,None,control,rorroborated,,,,,,,,,,,,,,,0,49,49,41,,,,,,,,,,,,,AMP,left,1.18385451179347,0,,,,,,,,,,,,,,left,0,1.18385451179347,,,,,,,,,,,1050,2019_Mar_13_1144,mf_amp_cond2,3.0.4,60.00084670291221,
shot,&&&&&&&&&,right,care.vice,godlaness,,,,,,,,,,,,,,,0,50,50,164,,,,,,,,,,,,,AMP,left,0.4503396089421585,0,,,,,,,,,,,,,,left,0,0.4503396089421585,,,,,,,,,,,1050,2019_Mar_13_1144,mf_amp_cond2,3.0.4,60.00084670291221,
crime,&&&&&&&&&&,right,fairness.vice,honstables,,,,,,,,,,,,,,,0,51,51,207,,,,,,,,,,,,,AMP,right,0.5170503637054935,1,,,,,,,,,,,,,,right,1,0.5170503637054935,,,,,,,,,,,1050,2019_Mar_13_1144,mf_amp_cond2,3.0.4,60.00084670291221,
officers,&&&&&&,right,authority.vice,openet,,,,,,,,,,,,,,,0,52,52,194,,,,,,,,,,,,,AMP,left,0.5003309815947432,0,,,,,,,,,,,,,,left,0,0.5003309815947432,,,,,,,,,,,1050,2019_Mar_13_1144,mf_amp_cond2,3.0.4,60.00084670291221,
violations,&&&,right,sanctity.vice,oam,,,,,,,,,,,,,,,0,53,53,80,,,,,,,,,,,,,AMP,left,0.6337162499839906,0,,,,,,,,,,,,,,left,0,0.6337162499839906,,,,,,,,,,,1050,2019_Mar_13_1144,mf_amp_cond2,3.0.4,60.00084670291221,
refused,&&&&&&&&&&&,right,authority.vice,nomparisons,,,,,,,,,,,,,,,0,54,54,110,,,,,,,,,,,,,AMP,left,0.7003862735000439,0,,,,,,,,,,,,,,left,0,0.7003862735000439,,,,,,,,,,,1050,2019_Mar_13_1144,mf_amp_cond2,3.0.4,60.00084670291221,
cromiscuity,&&&&&&&,None,nonword,scalbel,,,,,,,,,,,,,,,0,55,55,76,,,,,,,,,,,,,AMP,left,0.6337095148919616,0,,,,,,,,,,,,,,left,0,0.6337095148919616,,,,,,,,,,,1050,2019_Mar_13_1144,mf_amp_cond2,3.0.4,60.00084670291221,
died,&&&&&&&,right,care.vice,carvels,,,,,,,,,,,,,,,0,56,56,251,,,,,,,,,,,,,AMP,left,0.900434509589104,0,,,,,,,,,,,,,,left,0,0.900434509589104,,,,,,,,,,,1050,2019_Mar_13_1144,mf_amp_cond2,3.0.4,60.00084670291221,
health,&&&&&&&,left,care.virtue,reviked,,,,,,,,,,,,,,,0,57,57,3,,,,,,,,,,,,,AMP,left,0.8837757432775106,1,,,,,,,,,,,,,,left,1,0.8837757432775106,,,,,,,,,,,1050,2019_Mar_13_1144,mf_amp_cond2,3.0.4,60.00084670291221,
terrorist,&&&&&,right,loyalty.vice,saned,,,,,,,,,,,,,,,0,58,58,155,,,,,,,,,,,,,AMP,left,0.5336908490571659,0,,,,,,,,,,,,,,left,0,0.5336908490571659,,,,,,,,,,,1050,2019_Mar_13_1144,mf_amp_cond2,3.0.4,60.00084670291221,
gun,&&&&&&&,right,authority.vice,sickyay,,,,,,,,,,,,,,,0,59,59,6,,,,,,,,,,,,,AMP,left,0.4336657688836567,0,,,,,,,,,,,,,,left,0,0.4336657688836567,,,,,,,,,,,1050,2019_Mar_13_1144,mf_amp_cond2,3.0.4,60.00084670291221,
ability,&&&&&&,left,authority.virtue,fostet,,,,,,,,,,,,,,,0,60,60,65,,,,,,,,,,,,,AMP,right,1.0171404856373556,0,,,,,,,,,,,,,,right,0,1.0171404856373556,,,,,,,,,,,1050,2019_Mar_13_1144,mf_amp_cond2,3.0.4,60.00084670291221,
shot,&&&&&&&&&&&&,right,care.vice,feleological,,,,,,,,,,,,,,,0,61,61,146,,,,,,,,,,,,,AMP,left,0.6670655337220524,0,,,,,,,,,,,,,,left,0,0.6670655337220524,,,,,,,,,,,1050,2019_Mar_13_1144,mf_amp_cond2,3.0.4,60.00084670291221,
ability,&&&&&&&&&,left,authority.virtue,fangsters,,,,,,,,,,,,,,,0,62,62,258,,,,,,,,,,,,,AMP,left,0.7337317086348776,1,,,,,,,,,,,,,,left,1,0.7337317086348776,,,,,,,,,,,1050,2019_Mar_13_1144,mf_amp_cond2,3.0.4,60.00084670291221,
perfect,&&&&&&&&&&&&,left,sanctity.virtue,quarterbocks,,,,,,,,,,,,,,,0,63,63,250,,,,,,,,,,,,,AMP,right,0.4503335152985528,0,,,,,,,,,,,,,,right,0,0.4503335152985528,,,,,,,,,,,1050,2019_Mar_13_1144,mf_amp_cond2,3.0.4,60.00084670291221,
injured,&&&&,right,care.vice,ning,,,,,,,,,,,,,,,0,64,64,217,,,,,,,,,,,,,AMP,left,0.4003110328922048,0,,,,,,,,,,,,,,left,0,0.4003110328922048,,,,,,,,,,,1050,2019_Mar_13_1144,mf_amp_cond2,3.0.4,60.00084670291221,
ensure,&&&&&&&&&&,left,fairness.virtue,clattening,,,,,,,,,,,,,,,0,65,65,238,,,,,,,,,,,,,AMP,left,0.4003200130246114,1,,,,,,,,,,,,,,left,1,0.4003200130246114,,,,,,,,,,,1050,2019_Mar_13_1144,mf_amp_cond2,3.0.4,60.00084670291221,
lachelor,&&&&&,None,nonword,pafer,,,,,,,,,,,,,,,0,66,66,181,,,,,,,,,,,,,AMP,right,0.3336349157325458,0,,,,,,,,,,,,,,right,0,0.3336349157325458,,,,,,,,,,,1050,2019_Mar_13_1144,mf_amp_cond2,3.0.4,60.00084670291221,
celebrated,&&&&&&&&,left,authority.virtue,ebbitter,,,,,,,,,,,,,,,0,67,67,246,,,,,,,,,,,,,AMP,left,0.46701537334593013,1,,,,,,,,,,,,,,left,1,0.46701537334593013,,,,,,,,,,,1050,2019_Mar_13_1144,mf_amp_cond2,3.0.4,60.00084670291221,
abuse,&&&&&&&&&&,right,sanctity.vice,honstables,,,,,,,,,,,,,,,0,68,68,82,,,,,,,,,,,,,AMP,left,0.48366355590405874,0,,,,,,,,,,,,,,left,0,0.48366355590405874,,,,,,,,,,,1050,2019_Mar_13_1144,mf_amp_cond2,3.0.4,60.00084670291221,
protect,&&&&&&&&&,left,fairness.virtue,discovars,,,,,,,,,,,,,,,0,69,69,27,,,,,,,,,,,,,AMP,left,0.5003409238706809,1,,,,,,,,,,,,,,left,1,0.5003409238706809,,,,,,,,,,,1050,2019_Mar_13_1144,mf_amp_cond2,3.0.4,60.00084670291221,
freedom,&&&&&&&,left,sanctity.virtue,brudent,,,,,,,,,,,,,,,0,70,70,129,,,,,,,,,,,,,AMP,right,0.5336860382813029,0,,,,,,,,,,,,,,right,0,0.5336860382813029,,,,,,,,,,,1050,2019_Mar_13_1144,mf_amp_cond2,3.0.4,60.00084670291221,
photocalkodes,&&&,None,nonword,oam,,,,,,,,,,,,,,,0,71,71,222,,,,,,,,,,,,,AMP,left,0.9837870325718541,0,,,,,,,,,,,,,,left,0,0.9837870325718541,,,,,,,,,,,1050,2019_Mar_13_1144,mf_amp_cond2,3.0.4,60.00084670291221,
encourage,&&&&&,left,authority.virtue,leact,,,,,,,,,,,,,,,0,72,72,281,,,,,,,,,,,,,AMP,left,1.0004615140787791,1,,,,,,,,,,,,,,left,1,1.0004615140787791,,,,,,,,,,,1050,2019_Mar_13_1144,mf_amp_cond2,3.0.4,60.00084670291221,
intelligence,&&&&&&&&&&&,left,loyalty.virtue,hefurbished,,,,,,,,,,,,,,,0,73,73,220,,,,,,,,,,,,,AMP,left,0.7170652450877242,1,,,,,,,,,,,,,,left,1,0.7170652450877242,,,,,,,,,,,1050,2019_Mar_13_1144,mf_amp_cond2,3.0.4,60.00084670291221,
rebels,&&&&&&&&&&,right,authority.vice,lorthwhile,,,,,,,,,,,,,,,0,74,74,132,,,,,,,,,,,,,AMP,right,0.45032838379847817,1,,,,,,,,,,,,,,right,1,0.45032838379847817,,,,,,,,,,,1050,2019_Mar_13_1144,mf_amp_cond2,3.0.4,60.00084670291221,
blunderints,&&&&&&&&,None,nonword,glacenta,,,,,,,,,,,,,,,0,75,75,304,,,,,,,,,,,,,AMP,left,1.1505061901698355,0,,,,,,,,,,,,,,left,0,1.1505061901698355,,,,,,,,,,,1050,2019_Mar_13_1144,mf_amp_cond2,3.0.4,60.00084670291221,
groups,&&&&&&&,right,loyalty.vice,chreams,,,,,,,,,,,,,,,0,76,76,85,,,,,,,,,,,,,AMP,left,0.6670443662733305,0,,,,,,,,,,,,,,left,0,0.6670443662733305,,,,,,,,,,,1050,2019_Mar_13_1144,mf_amp_cond2,3.0.4,60.00084670291221,
strength,&&&&&&&&&&&&,left,sanctity.virtue,feleological,,,,,,,,,,,,,,,0,77,77,187,,,,,,,,,,,,,AMP,left,0.7337416509108152,1,,,,,,,,,,,,,,left,1,0.7337416509108152,,,,,,,,,,,1050,2019_Mar_13_1144,mf_amp_cond2,3.0.4,60.00084670291221,
illegal,&&&&&,right,fairness.vice,viscs,,,,,,,,,,,,,,,0,78,78,228,,,,,,,,,,,,,AMP,left,1.7506489741208497,0,,,,,,,,,,,,,,left,0,1.7506489741208497,,,,,,,,,,,1050,2019_Mar_13_1144,mf_amp_cond2,3.0.4,60.00084670291221,
wump,&&&&&,None,nonword,leact,,,,,,,,,,,,,,,0,79,79,165,,,,,,,,,,,,,AMP,left,0.46700895894900896,0,,,,,,,,,,,,,,left,0,0.46700895894900896,,,,,,,,,,,1050,2019_Mar_13_1144,mf_amp_cond2,3.0.4,60.00084670291221,
win,&&&&&&&&,left,fairness.virtue,ebbitter,,,,,,,,,,,,,,,0,80,80,62,,,,,,,,,,,,,AMP,left,0.7337233699217904,1,,,,,,,,,,,,,,left,1,0.7337233699217904,,,,,,,,,,,1050,2019_Mar_13_1144,mf_amp_cond2,3.0.4,60.00084670291221,
army,&&&&&,right,loyalty.vice,aubos,,,,,,,,,,,,,,,0,81,81,86,,,,,,,,,,,,,AMP,left,0.5836924847098999,0,,,,,,,,,,,,,,left,0,0.5836924847098999,,,,,,,,,,,1050,2019_Mar_13_1144,mf_amp_cond2,3.0.4,60.00084670291221,
arrests,&&&&&&&&&,right,authority.vice,reprisols,,,,,,,,,,,,,,,0,82,82,88,,,,,,,,,,,,,AMP,right,0.7670588627806865,1,,,,,,,,,,,,,,right,1,0.7670588627806865,,,,,,,,,,,1050,2019_Mar_13_1144,mf_amp_cond2,3.0.4,60.00084670291221,
pleasant,&&&&&&&&&,None,control,Phintoism,,,,,,,,,,,,,,,0,83,83,84,,,,,,,,,,,,,AMP,left,0.4336728246707935,0,,,,,,,,,,,,,,left,0,0.4336728246707935,,,,,,,,,,,1050,2019_Mar_13_1144,mf_amp_cond2,3.0.4,60.00084670291221,
embrace,&&&&&&&,left,authority.virtue,emports,,,,,,,,,,,,,,,0,84,84,219,,,,,,,,,,,,,AMP,left,0.4836792711284943,1,,,,,,,,,,,,,,left,1,0.4836792711284943,,,,,,,,,,,1050,2019_Mar_13_1144,mf_amp_cond2,3.0.4,60.00084670291221,
agreement,&&&&&&&&&,left,fairness.virtue,gaultless,,,,,,,,,,,,,,,0,85,85,131,,,,,,,,,,,,,AMP,left,0.7170642829150893,1,,,,,,,,,,,,,,left,1,0.7170642829150893,,,,,,,,,,,1050,2019_Mar_13_1144,mf_amp_cond2,3.0.4,60.00084670291221,
suicide,&&&&&&&&&,right,care.vice,ittutable,,,,,,,,,,,,,,,0,86,86,54,,,,,,,,,,,,,AMP,left,0.2836214134877082,0,,,,,,,,,,,,,,left,0,0.2836214134877082,,,,,,,,,,,1050,2019_Mar_13_1144,mf_amp_cond2,3.0.4,60.00084670291221,
violence,&&&&&,right,care.vice,mecan,,,,,,,,,,,,,,,0,87,87,141,,,,,,,,,,,,,AMP,left,0.3336089375370648,0,,,,,,,,,,,,,,left,0,0.3336089375370648,,,,,,,,,,,1050,2019_Mar_13_1144,mf_amp_cond2,3.0.4,60.00084670291221,
good,&&&&&,left,care.virtue,framo,,,,,,,,,,,,,,,0,88,88,58,,,,,,,,,,,,,AMP,right,0.4503312702290714,0,,,,,,,,,,,,,,right,0,0.4503312702290714,,,,,,,,,,,1050,2019_Mar_13_1144,mf_amp_cond2,3.0.4,60.00084670291221,
war,&&&&&&&&,right,sanctity.vice,counpy's,,,,,,,,,,,,,,,0,89,89,120,,,,,,,,,,,,,AMP,left,0.7837240434309933,0,,,,,,,,,,,,,,left,0,0.7837240434309933,,,,,,,,,,,1050,2019_Mar_13_1144,mf_amp_cond2,3.0.4,60.00084670291221,
prosecution,&&&&&&&,right,authority.vice,chreams,,,,,,,,,,,,,,,0,90,90,289,,,,,,,,,,,,,AMP,right,0.5837091620778665,1,,,,,,,,,,,,,,right,1,0.5837091620778665,,,,,,,,,,,1050,2019_Mar_13_1144,mf_amp_cond2,3.0.4,60.00084670291221,
energy,&&&&&&&,left,sanctity.virtue,scalbel,,,,,,,,,,,,,,,0,91,91,159,,,,,,,,,,,,,AMP,right,0.7337474238302093,0,,,,,,,,,,,,,,right,0,0.7337474238302093,,,,,,,,,,,1050,2019_Mar_13_1144,mf_amp_cond2,3.0.4,60.00084670291221,
credit,&&&&&,left,fairness.virtue,mecan,,,,,,,,,,,,,,,0,92,92,317,,,,,,,,,,,,,AMP,right,0.33364133012946695,0,,,,,,,,,,,,,,right,0,0.33364133012946695,,,,,,,,,,,1050,2019_Mar_13_1144,mf_amp_cond2,3.0.4,60.00084670291221,
energy,&&&&&&&&,left,sanctity.virtue,drumbled,,,,,,,,,,,,,,,0,93,93,254,,,,,,,,,,,,,AMP,right,0.6837111505446956,0,,,,,,,,,,,,,,right,0,0.6837111505446956,,,,,,,,,,,1050,2019_Mar_13_1144,mf_amp_cond2,3.0.4,60.00084670291221,
cromiscuity,&&&&&&&&&&&&,None,nonword,edancipation,,,,,,,,,,,,,,,0,94,94,136,,,,,,,,,,,,,AMP,right,0.48368504404788837,0,,,,,,,,,,,,,,right,0,0.48368504404788837,,,,,,,,,,,1050,2019_Mar_13_1144,mf_amp_cond2,3.0.4,60.00084670291221,
support,&&&&&&&,left,loyalty.virtue,Loorish,,,,,,,,,,,,,,,0,95,95,10,,,,,,,,,,,,,AMP,right,0.21696870875894092,0,,,,,,,,,,,,,,right,0,0.21696870875894092,,,,,,,,,,,1050,2019_Mar_13_1144,mf_amp_cond2,3.0.4,60.00084670291221,
charges,&&&&&&&&&&&,right,fairness.vice,sowntrodden,,,,,,,,,,,,,,,0,96,96,279,,,,,,,,,,,,,AMP,left,0.9337927734595723,0,,,,,,,,,,,,,,left,0,0.9337927734595723,,,,,,,,,,,1050,2019_Mar_13_1144,mf_amp_cond2,3.0.4,60.00084670291221,
peaceful,&&&&&&&&&,left,authority.virtue,Phintoism,,,,,,,,,,,,,,,0,97,97,5,,,,,,,,,,,,,AMP,left,0.4169502353761345,1,,,,,,,,,,,,,,left,1,0.4169502353761345,,,,,,,,,,,1050,2019_Mar_13_1144,mf_amp_cond2,3.0.4,60.00084670291221,
gun,&&&&,right,authority.vice,erks,,,,,,,,,,,,,,,0,98,98,102,,,,,,,,,,,,,AMP,left,0.38365547379362397,0,,,,,,,,,,,,,,left,0,0.38365547379362397,,,,,,,,,,,1050,2019_Mar_13_1144,mf_amp_cond2,3.0.4,60.00084670291221,
war,&&&,right,sanctity.vice,oam,,,,,,,,,,,,,,,0,99,99,262,,,,,,,,,,,,,AMP,left,0.38365034229354933,0,,,,,,,,,,,,,,left,0,0.38365034229354933,,,,,,,,,,,1050,2019_Mar_13_1144,mf_amp_cond2,3.0.4,60.00084670291221,
conspiracy,&&&&&&&&&&&&&,right,sanctity.vice,synchronazers,,,,,,,,,,,,,,,0,100,100,253,,,,,,,,,,,,,AMP,left,0.7170658865070436,0,,,,,,,,,,,,,,left,0,0.7170658865070436,,,,,,,,,,,1050,2019_Mar_13_1144,mf_amp_cond2,3.0.4,60.00084670291221,
wump,&&&&&&&&&,None,nonword,brotesque,,,,,,,,,,,,,,,0,101,101,16,,,,,,,,,,,,,AMP,left,0.5503547468688339,0,,,,,,,,,,,,,,left,0,0.5503547468688339,,,,,,,,,,,1050,2019_Mar_13_1144,mf_amp_cond2,3.0.4,60.00084670291221,
lies,&&&&&&&&,right,fairness.vice,sidearbs,,,,,,,,,,,,,,,0,102,102,152,,,,,,,,,,,,,AMP,left,0.38365162516129203,0,,,,,,,,,,,,,,left,0,0.38365162516129203,,,,,,,,,,,1050,2019_Mar_13_1144,mf_amp_cond2,3.0.4,60.00084670291221,
pleasant,&&&&&&&&&&,None,control,focomotive,,,,,,,,,,,,,,,0,103,103,290,,,,,,,,,,,,,AMP,right,0.4336689760675654,0,,,,,,,,,,,,,,right,0,0.4336689760675654,,,,,,,,,,,1050,2019_Mar_13_1144,mf_amp_cond2,3.0.4,60.00084670291221,
hope,&&&&&&&&,left,loyalty.virtue,thabbily,,,,,,,,,,,,,,,0,104,104,211,,,,,,,,,,,,,AMP,right,0.46686463555670343,0,,,,,,,,,,,,,,right,0,0.46686463555670343,,,,,,,,,,,1050,2019_Mar_13_1144,mf_amp_cond2,3.0.4,60.00084670291221,
hope,&&&&&&&&&&,left,loyalty.virtue,lorthwhile,,,,,,,,,,,,,,,0,105,105,9,,,,,,,,,,,,,AMP,right,0.4503370431775693,0,,,,,,,,,,,,,,right,0,0.4503370431775693,,,,,,,,,,,1050,2019_Mar_13_1144,mf_amp_cond2,3.0.4,60.00084670291221,
prosecution,&&&&&&&&&&,right,authority.vice,simplustic,,,,,,,,,,,,,,,0,106,106,223,,,,,,,,,,,,,AMP,right,1.1505491664865986,1,,,,,,,,,,,,,,right,1,1.1505491664865986,,,,,,,,,,,1050,2019_Mar_13_1144,mf_amp_cond2,3.0.4,60.00084670291221,
critics,&&&&&&&,right,loyalty.vice,emports,,,,,,,,,,,,,,,0,107,107,119,,,,,,,,,,,,,AMP,right,0.5503553882881533,1,,,,,,,,,,,,,,right,1,0.5503553882881533,,,,,,,,,,,1050,2019_Mar_13_1144,mf_amp_cond2,3.0.4,60.00084670291221,
freedom,&&&&&&&&,left,sanctity.virtue,crinking,,,,,,,,,,,,,,,0,108,108,282,,,,,,,,,,,,,AMP,left,0.717079998110421,1,,,,,,,,,,,,,,left,1,0.717079998110421,,,,,,,,,,,1050,2019_Mar_13_1144,mf_amp_cond2,3.0.4,60.00084670291221,
ensure,&&&&&&&,left,fairness.virtue,halaise,,,,,,,,,,,,,,,0,109,109,265,,,,,,,,,,,,,AMP,left,0.6837140370043926,1,,,,,,,,,,,,,,left,1,0.6837140370043926,,,,,,,,,,,1050,2019_Mar_13_1144,mf_amp_cond2,3.0.4,60.00084670291221,
hope,&&&&&,left,loyalty.virtue,viscs,,,,,,,,,,,,,,,0,110,110,312,,,,,,,,,,,,,AMP,right,0.35030234142323025,0,,,,,,,,,,,,,,right,0,0.35030234142323025,,,,,,,,,,,1050,2019_Mar_13_1144,mf_amp_cond2,3.0.4,60.00084670291221,
freedom,&&&&&&&&&&&&&,left,sanctity.virtue,synchronazers,,,,,,,,,,,,,,,0,111,111,186,,,,,,,,,,,,,AMP,right,0.3503126044233795,0,,,,,,,,,,,,,,right,0,0.3503126044233795,,,,,,,,,,,1050,2019_Mar_13_1144,mf_amp_cond2,3.0.4,60.00084670291221,
critics,&&&&&,right,loyalty.vice,pulge,,,,,,,,,,,,,,,0,112,112,259,,,,,,,,,,,,,AMP,right,0.383637192833703,1,,,,,,,,,,,,,,right,1,0.383637192833703,,,,,,,,,,,1050,2019_Mar_13_1144,mf_amp_cond2,3.0.4,60.00084670291221,
help,&&&&&&,left,care.virtue,fegard,,,,,,,,,,,,,,,0,113,113,247,,,,,,,,,,,,,AMP,left,0.3336378021922428,1,,,,,,,,,,,,,,left,1,0.3336378021922428,,,,,,,,,,,1050,2019_Mar_13_1144,mf_amp_cond2,3.0.4,60.00084670291221,
critics,&&&&&,right,loyalty.vice,pulge,,,,,,,,,,,,,,,0,114,114,226,,,,,,,,,,,,,AMP,right,0.5670285869273357,1,,,,,,,,,,,,,,right,1,0.5670285869273357,,,,,,,,,,,1050,2019_Mar_13_1144,mf_amp_cond2,3.0.4,60.00084670291221,
safe,&&&&&&&&&,left,care.virtue,gaultless,,,,,,,,,,,,,,,0,115,115,235,,,,,,,,,,,,,AMP,left,0.5170144432340749,1,,,,,,,,,,,,,,left,1,0.5170144432340749,,,,,,,,,,,1050,2019_Mar_13_1144,mf_amp_cond2,3.0.4,60.00084670291221,
nonobservalt,&&&&&&&&&&,None,nonword,clattening,,,,,,,,,,,,,,,0,116,116,162,,,,,,,,,,,,,AMP,left,0.567031152691925,0,,,,,,,,,,,,,,left,0,0.567031152691925,,,,,,,,,,,1050,2019_Mar_13_1144,mf_amp_cond2,3.0.4,60.00084670291221,
praised,&&&&&&&&&&&,left,loyalty.virtue,shoirmaster,,,,,,,,,,,,,,,0,117,117,100,,,,,,,,,,,,,AMP,left,0.40032065447303466,1,,,,,,,,,,,,,,left,1,0.40032065447303466,,,,,,,,,,,1050,2019_Mar_13_1144,mf_amp_cond2,3.0.4,60.00084670291221,
prosecution,&&&&&,right,authority.vice,pulge,,,,,,,,,,,,,,,0,118,118,32,,,,,,,,,,,,,AMP,left,0.7337583282787818,0,,,,,,,,,,,,,,left,0,0.7337583282787818,,,,,,,,,,,1050,2019_Mar_13_1144,mf_amp_cond2,3.0.4,60.00084670291221,
care,&&&&&&&&&&&&&,left,care.virtue,esquisiteness,,,,,,,,,,,,,,,0,119,119,29,,,,,,,,,,,,,AMP,left,0.28361050903913565,1,,,,,,,,,,,,,,left,1,0.28361050903913565,,,,,,,,,,,1050,2019_Mar_13_1144,mf_amp_cond2,3.0.4,60.00084670291221,
drug,&&&&&&&&&,right,sanctity.vice,gandbrake,,,,,,,,,,,,,,,0,120,120,118,,,,,,,,,,,,,AMP,left,0.7670816337922588,0,,,,,,,,,,,,,,left,0,0.7670816337922588,,,,,,,,,,,1050,2019_Mar_13_1144,mf_amp_cond2,3.0.4,60.00084670291221,
agreement,&&&&&&&&,left,fairness.virtue,ugeasily,,,,,,,,,,,,,,,0,121,121,21,,,,,,,,,,,,,AMP,left,0.3336127861402929,1,,,,,,,,,,,,,,left,1,0.3336127861402929,,,,,,,,,,,1050,2019_Mar_13_1144,mf_amp_cond2,3.0.4,60.00084670291221,
died,&&&&&&&&,right,care.vice,tracious,,,,,,,,,,,,,,,0,122,122,14,,,,,,,,,,,,,AMP,left,0.7003881978162099,0,,,,,,,,,,,,,,left,0,0.7003881978162099,,,,,,,,,,,1050,2019_Mar_13_1144,mf_amp_cond2,3.0.4,60.00084670291221,
violence,&&&&&&&&&&,right,care.vice,clattening,,,,,,,,,,,,,,,0,123,123,26,,,,,,,,,,,,,AMP,left,0.3836452108225785,0,,,,,,,,,,,,,,left,0,0.3836452108225785,,,,,,,,,,,1050,2019_Mar_13_1144,mf_amp_cond2,3.0.4,60.00084670291221,
support,&&&&&&&&,left,loyalty.virtue,tracious,,,,,,,,,,,,,,,0,124,124,241,,,,,,,,,,,,,AMP,left,0.400296279869508,1,,,,,,,,,,,,,,left,1,0.400296279869508,,,,,,,,,,,1050,2019_Mar_13_1144,mf_amp_cond2,3.0.4,60.00084670291221,
army,&&&&&&&&&,right,loyalty.vice,unscothed,,,,,,,,,,,,,,,0,125,125,294,,,,,,,,,,,,,AMP,left,0.43365326084312983,0,,,,,,,,,,,,,,left,0,0.43365326084312983,,,,,,,,,,,1050,2019_Mar_13_1144,mf_amp_cond2,3.0.4,60.00084670291221,
win,&&&&&&&&,left,fairness.virtue,framatic,,,,,,,,,,,,,,,0,126,126,111,,,,,,,,,,,,,AMP,right,0.4170002674800344,0,,,,,,,,,,,,,,right,0,0.4170002674800344,,,,,,,,,,,1050,2019_Mar_13_1144,mf_amp_cond2,3.0.4,60.00084670291221,
cromiscuity,&&&&&&&,None,nonword,halaise,,,,,,,,,,,,,,,0,127,127,179,,,,,,,,,,,,,AMP,right,0.33362529415171593,0,,,,,,,,,,,,,,right,0,0.33362529415171593,,,,,,,,,,,1050,2019_Mar_13_1144,mf_amp_cond2,3.0.4,60.00084670291221,
torture,&&&&&&&&&&&&,right,care.vice,feleological,,,,,,,,,,,,,,,0,128,128,319,,,,,,,,,,,,,AMP,left,0.4836702909960877,0,,,,,,,,,,,,,,left,0,0.4836702909960877,,,,,,,,,,,1050,2019_Mar_13_1144,mf_amp_cond2,3.0.4,60.00084670291221,
gournful,&&&&&&&&&,None,nonword,gandbrake,,,,,,,,,,,,,,,0,129,129,327,,,,,,,,,,,,,AMP,left,0.7337291428702883,0,,,,,,,,,,,,,,left,0,0.7337291428702883,,,,,,,,,,,1050,2019_Mar_13_1144,mf_amp_cond2,3.0.4,60.00084670291221,
honored,&&&&&&&&&&,left,authority.virtue,honstables,,,,,,,,,,,,,,,0,130,130,249,,,,,,,,,,,,,AMP,left,0.6670578364864923,1,,,,,,,,,,,,,,left,1,0.6670578364864923,,,,,,,,,,,1050,2019_Mar_13_1144,mf_amp_cond2,3.0.4,60.00084670291221,
violations,&&&&&&&&,right,sanctity.vice,drumbled,,,,,,,,,,,,,,,0,131,131,158,,,,,,,,,,,,,AMP,right,0.5503457667364273,1,,,,,,,,,,,,,,right,1,0.5503457667364273,,,,,,,,,,,1050,2019_Mar_13_1144,mf_amp_cond2,3.0.4,60.00084670291221,
died,&&&&&&&&&&,right,care.vice,imebreaker,,,,,,,,,,,,,,,0,132,132,161,,,,,,,,,,,,,AMP,left,0.36697682295925915,0,,,,,,,,,,,,,,left,0,0.36697682295925915,,,,,,,,,,,1050,2019_Mar_13_1144,mf_amp_cond2,3.0.4,60.00084670291221,
black,&&&&&&&,right,loyalty.vice,carvels,,,,,,,,,,,,,,,0,133,133,44,,,,,,,,,,,,,AMP,left,0.5336979048734065,0,,,,,,,,,,,,,,left,0,0.5336979048734065,,,,,,,,,,,1050,2019_Mar_13_1144,mf_amp_cond2,3.0.4,60.00084670291221,
energy,&&&&&,left,sanctity.virtue,mecan,,,,,,,,,,,,,,,0,134,134,34,,,,,,,,,,,,,AMP,left,0.7503888713254128,1,,,,,,,,,,,,,,left,1,0.7503888713254128,,,,,,,,,,,1050,2019_Mar_13_1144,mf_amp_cond2,3.0.4,60.00084670291221,
safe,&&&&&&&&&&,left,care.virtue,simplustic,,,,,,,,,,,,,,,0,135,135,12,,,,,,,,,,,,,AMP,left,1.650616838101996,1,,,,,,,,,,,,,,left,1,1.650616838101996,,,,,,,,,,,1050,2019_Mar_13_1144,mf_amp_cond2,3.0.4,60.00084670291221,
groups,&&&&&,right,loyalty.vice,hasks,,,,,,,,,,,,,,,0,136,136,66,,,,,,,,,,,,,AMP,left,0.25031959611806087,0,,,,,,,,,,,,,,left,0,0.25031959611806087,,,,,,,,,,,1050,2019_Mar_13_1144,mf_amp_cond2,3.0.4,60.00084670291221,
ensure,&&&&&&&&&&&,left,fairness.virtue,ronviolence,,,,,,,,,,,,,,,0,137,137,83,,,,,,,,,,,,,AMP,left,0.48368696836405434,1,,,,,,,,,,,,,,left,1,0.48368696836405434,,,,,,,,,,,1050,2019_Mar_13_1144,mf_amp_cond2,3.0.4,60.00084670291221,
ability,&&&&&,left,authority.virtue,framo,,,,,,,,,,,,,,,0,138,138,142,,,,,,,,,,,,,AMP,right,0.26698253172799014,0,,,,,,,,,,,,,,right,0,0.26698253172799014,,,,,,,,,,,1050,2019_Mar_13_1144,mf_amp_cond2,3.0.4,60.00084670291221,
drug,&&&&&&,right,sanctity.vice,chared,,,,,,,,,,,,,,,0,139,139,178,,,,,,,,,,,,,AMP,left,0.4669845843454823,0,,,,,,,,,,,,,,left,0,0.4669845843454823,,,,,,,,,,,1050,2019_Mar_13_1144,mf_amp_cond2,3.0.4,60.00084670291221,
sharing,&&&&&&,left,loyalty.virtue,gikely,,,,,,,,,,,,,,,0,140,140,205,,,,,,,,,,,,,AMP,right,0.25027982698520645,0,,,,,,,,,,,,,,right,0,0.25027982698520645,,,,,,,,,,,1050,2019_Mar_13_1144,mf_amp_cond2,3.0.4,60.00084670291221,
violence,&&&&&&,right,care.vice,fostet,,,,,,,,,,,,,,,0,141,141,268,,,,,,,,,,,,,AMP,left,0.25028463776106946,0,,,,,,,,,,,,,,left,0,0.25028463776106946,,,,,,,,,,,1050,2019_Mar_13_1144,mf_amp_cond2,3.0.4,60.00084670291221,
peaceful,&&&&&,left,authority.virtue,aubos,,,,,,,,,,,,,,,0,142,142,216,,,,,,,,,,,,,AMP,left,0.6337457560875919,1,,,,,,,,,,,,,,left,1,0.6337457560875919,,,,,,,,,,,1050,2019_Mar_13_1144,mf_amp_cond2,3.0.4,60.00084670291221,
refused,&&&&&&,right,authority.vice,openet,,,,,,,,,,,,,,,0,143,143,257,,,,,,,,,,,,,AMP,right,0.6336867438803893,1,,,,,,,,,,,,,,right,1,0.6336867438803893,,,,,,,,,,,1050,2019_Mar_13_1144,mf_amp_cond2,3.0.4,60.00084670291221,
conspiracy,&&&&&&&&,right,sanctity.vice,ugeasily,,,,,,,,,,,,,,,0,144,144,214,,,,,,,,,,,,,AMP,right,1.7839899191749282,1,,,,,,,,,,,,,,right,1,1.7839899191749282,,,,,,,,,,,1050,2019_Mar_13_1144,mf_amp_cond2,3.0.4,60.00084670291221,
powerful,&&&&&&&&&,left,authority.virtue,chressing,,,,,,,,,,,,,,,0,145,145,79,,,,,,,,,,,,,AMP,right,0.9337793032464106,0,,,,,,,,,,,,,,right,0,0.9337793032464106,,,,,,,,,,,1050,2019_Mar_13_1144,mf_amp_cond2,3.0.4,60.00084670291221,
fear,&&&&&&&,right,sanctity.vice,Daptist,,,,,,,,,,,,,,,0,146,146,184,,,,,,,,,,,,,AMP,left,1.0004676077514887,0,,,,,,,,,,,,,,left,0,1.0004676077514887,,,,,,,,,,,1050,2019_Mar_13_1144,mf_amp_cond2,3.0.4,60.00084670291221,
terrorist,&&&&&&&,right,loyalty.vice,halaise,,,,,,,,,,,,,,,0,147,147,50,,,,,,,,,,,,,AMP,left,0.700260551791871,0,,,,,,,,,,,,,,left,0,0.700260551791871,,,,,,,,,,,1050,2019_Mar_13_1144,mf_amp_cond2,3.0.4,60.00084670291221,
increase,&&&&&&&&,left,care.virtue,clamorek,,,,,,,,,,,,,,,0,148,148,170,,,,,,,,,,,,,AMP,left,0.3836355892417487,1,,,,,,,,,,,,,,left,1,0.3836355892417487,,,,,,,,,,,1050,2019_Mar_13_1144,mf_amp_cond2,3.0.4,60.00084670291221,
growth,&&&&&&&&&&&,left,care.virtue,vicissifude,,,,,,,,,,,,,,,0,149,149,87,,,,,,,,,,,,,AMP,left,0.9337850761949085,1,,,,,,,,,,,,,,left,1,0.9337850761949085,,,,,,,,,,,1050,2019_Mar_13_1144,mf_amp_cond2,3.0.4,60.00084670291221,
illegal,&&&&&,right,fairness.vice,dumid,,,,,,,,,,,,,,,0,150,150,297,,,,,,,,,,,,,AMP,left,0.8504049713956192,0,,,,,,,,,,,,,,left,0,0.8504049713956192,,,,,,,,,,,1050,2019_Mar_13_1144,mf_amp_cond2,3.0.4,60.00084670291221,
unpleasant,&&&&&&,None,control,greaks,,,,,,,,,,,,,,,0,151,151,283,,,,,,,,,,,,,AMP,right,0.8004132780188229,0,,,,,,,,,,,,,,right,0,0.8004132780188229,,,,,,,,,,,1050,2019_Mar_13_1144,mf_amp_cond2,3.0.4,60.00084670291221,
fair,&&&&&&&&,left,fairness.virtue,ebbitter,,,,,,,,,,,,,,,0,152,152,176,,,,,,,,,,,,,AMP,right,0.5503544261446223,0,,,,,,,,,,,,,,right,0,0.5503544261446223,,,,,,,,,,,1050,2019_Mar_13_1144,mf_amp_cond2,3.0.4,60.00084670291221,
health,&&&&&&,left,care.virtue,fostet,,,,,,,,,,,,,,,0,153,153,185,,,,,,,,,,,,,AMP,right,0.4503319117065985,0,,,,,,,,,,,,,,right,0,0.4503319117065985,,,,,,,,,,,1050,2019_Mar_13_1144,mf_amp_cond2,3.0.4,60.00084670291221,
pharing,&&&&&&&&&&&,None,nonword,vicissifude,,,,,,,,,,,,,,,0,154,154,302,,,,,,,,,,,,,AMP,right,0.7170572270988487,0,,,,,,,,,,,,,,right,0,0.7170572270988487,,,,,,,,,,,1050,2019_Mar_13_1144,mf_amp_cond2,3.0.4,60.00084670291221,
fraud,&&&&&&&&&,right,fairness.vice,Phintoism,,,,,,,,,,,,,,,0,155,155,189,,,,,,,,,,,,,AMP,right,0.6837294315046165,1,,,,,,,,,,,,,,right,1,0.6837294315046165,,,,,,,,,,,1050,2019_Mar_13_1144,mf_amp_cond2,3.0.4,60.00084670291221,
help,&&&&&&&&&,left,care.virtue,crilfully,,,,,,,,,,,,,,,0,156,156,57,,,,,,,,,,,,,AMP,right,1.1004888393217698,0,,,,,,,,,,,,,,right,0,1.1004888393217698,,,,,,,,,,,1050,2019_Mar_13_1144,mf_amp_cond2,3.0.4,60.00084670291221,
torture,&&&&&&,right,care.vice,openet,,,,,,,,,,,,,,,0,157,157,55,,,,,,,,,,,,,AMP,left,0.23362041925429367,0,,,,,,,,,,,,,,left,0,0.23362041925429367,,,,,,,,,,,1050,2019_Mar_13_1144,mf_amp_cond2,3.0.4,60.00084670291221,
safe,&&&&&&&&&&,left,care.virtue,lorthwhile,,,,,,,,,,,,,,,0,158,158,300,,,,,,,,,,,,,AMP,right,0.7837455316039268,0,,,,,,,,,,,,,,right,0,0.7837455316039268,,,,,,,,,,,1050,2019_Mar_13_1144,mf_amp_cond2,3.0.4,60.00084670291221,
clean,&&&&,left,sanctity.virtue,erks,,,,,,,,,,,,,,,0,159,159,39,,,,,,,,,,,,,AMP,right,0.9671189654327463,0,,,,,,,,,,,,,,right,0,0.9671189654327463,,,,,,,,,,,1050,2019_Mar_13_1144,mf_amp_cond2,3.0.4,60.00084670291221,
energy,&&&&&&&&&&&,left,sanctity.virtue,shoirmaster,,,,,,,,,,,,,,,0,160,160,203,,,,,,,,,,,,,AMP,left,0.4170191898592748,1,,,,,,,,,,,,,,left,1,0.4170191898592748,,,,,,,,,,,1050,2019_Mar_13_1144,mf_amp_cond2,3.0.4,60.00084670291221,
totalestic,&&&&,None,nonword,coom,,,,,,,,,,,,,,,0,161,161,210,,,,,,,,,,,,,AMP,right,0.38364456937415525,0,,,,,,,,,,,,,,right,0,0.38364456937415525,,,,,,,,,,,1050,2019_Mar_13_1144,mf_amp_cond2,3.0.4,60.00084670291221,
drug,&&&&&&&&&&&,right,sanctity.vice,hefurbished,,,,,,,,,,,,,,,0,162,162,7,,,,,,,,,,,,,AMP,right,0.05023928816081025,1,,,,,,,,,,,,,,right,1,0.05023928816081025,,,,,,,,,,,1050,2019_Mar_13_1144,mf_amp_cond2,3.0.4,60.00084670291221,
photocalkodes,&&&&&&&&&&,None,nonword,simplustic,,,,,,,,,,,,,,,0,163,163,147,,,,,,,,,,,,,AMP,left,0.4836702909960877,0,,,,,,,,,,,,,,left,0,0.4836702909960877,,,,,,,,,,,1050,2019_Mar_13_1144,mf_amp_cond2,3.0.4,60.00084670291221,
fraud,&&&&&&&&&,right,fairness.vice,brotesque,,,,,,,,,,,,,,,0,164,164,134,,,,,,,,,,,,,AMP,left,1.0838172442745417,0,,,,,,,,,,,,,,left,0,1.0838172442745417,,,,,,,,,,,1050,2019_Mar_13_1144,mf_amp_cond2,3.0.4,60.00084670291221,
lachelor,&&&&&&&&,None,nonword,sidearbs,,,,,,,,,,,,,,,0,165,165,2,,,,,,,,,,,,,AMP,right,0.650427934830077,0,,,,,,,,,,,,,,right,0,0.650427934830077,,,,,,,,,,,1050,2019_Mar_13_1144,mf_amp_cond2,3.0.4,60.00084670291221,
ensure,&&&&&&&&&&,left,fairness.virtue,focomotive,,,,,,,,,,,,,,,0,166,166,78,,,,,,,,,,,,,AMP,right,0.9504496154258959,0,,,,,,,,,,,,,,right,0,0.9504496154258959,,,,,,,,,,,1050,2019_Mar_13_1144,mf_amp_cond2,3.0.4,60.00084670291221,
torture,&&&&&&&&,right,care.vice,crinking,,,,,,,,,,,,,,,0,167,167,233,,,,,,,,,,,,,AMP,left,0.2336746207147371,0,,,,,,,,,,,,,,left,0,0.2336746207147371,,,,,,,,,,,1050,2019_Mar_13_1144,mf_amp_cond2,3.0.4,60.00084670291221,
loyalty,&&&&&&&&&&,left,loyalty.virtue,ecgagement,,,,,,,,,,,,,,,0,168,168,190,,,,,,,,,,,,,AMP,right,0.7170530577423051,0,,,,,,,,,,,,,,right,0,0.7170530577423051,,,,,,,,,,,1050,2019_Mar_13_1144,mf_amp_cond2,3.0.4,60.00084670291221,
good,&&&&,left,care.virtue,ning,,,,,,,,,,,,,,,0,169,169,133,,,,,,,,,,,,,AMP,left,0.3169617170933634,1,,,,,,,,,,,,,,left,1,0.3169617170933634,,,,,,,,,,,1050,2019_Mar_13_1144,mf_amp_cond2,3.0.4,60.00084670291221,
fornicalion,&&&&&&&&&&&,None,nonword,nomparisons,,,,,,,,,,,,,,,0,170,170,240,,,,,,,,,,,,,AMP,right,0.5670366049162112,0,,,,,,,,,,,,,,right,0,0.5670366049162112,,,,,,,,,,,1050,2019_Mar_13_1144,mf_amp_cond2,3.0.4,60.00084670291221,
support,&&&&&&&,left,loyalty.virtue,reviked,,,,,,,,,,,,,,,0,171,171,324,,,,,,,,,,,,,AMP,right,0.4836654802202247,0,,,,,,,,,,,,,,right,0,0.4836654802202247,,,,,,,,,,,1050,2019_Mar_13_1144,mf_amp_cond2,3.0.4,60.00084670291221,
peaceful,&&&&&&&&&&,left,authority.virtue,neutralust,,,,,,,,,,,,,,,0,172,172,303,,,,,,,,,,,,,AMP,right,1.0838278279989026,0,,,,,,,,,,,,,,right,0,1.0838278279989026,,,,,,,,,,,1050,2019_Mar_13_1144,mf_amp_cond2,3.0.4,60.00084670291221,
encourage,&&&&&&,left,authority.virtue,greaks,,,,,,,,,,,,,,,0,173,173,73,,,,,,,,,,,,,AMP,right,0.3503017000039108,0,,,,,,,,,,,,,,right,0,0.3503017000039108,,,,,,,,,,,1050,2019_Mar_13_1144,mf_amp_cond2,3.0.4,60.00084670291221,
black,&&&&&&,right,loyalty.vice,fegard,,,,,,,,,,,,,,,0,174,174,148,,,,,,,,,,,,,AMP,right,0.6003624761651736,1,,,,,,,,,,,,,,right,1,0.6003624761651736,,,,,,,,,,,1050,2019_Mar_13_1144,mf_amp_cond2,3.0.4,60.00084670291221,
win,&&&&&,left,fairness.virtue,framo,,,,,,,,,,,,,,,0,175,175,291,,,,,,,,,,,,,AMP,right,0.7170597928634379,0,,,,,,,,,,,,,,right,0,0.7170597928634379,,,,,,,,,,,1050,2019_Mar_13_1144,mf_amp_cond2,3.0.4,60.00084670291221,
hope,&&&&&&&&,left,loyalty.virtue,ugeasily,,,,,,,,,,,,,,,0,176,176,140,,,,,,,,,,,,,AMP,left,0.7337432544736657,1,,,,,,,,,,,,,,left,1,0.7337432544736657,,,,,,,,,,,1050,2019_Mar_13_1144,mf_amp_cond2,3.0.4,60.00084670291221,
dignity,&&&&&&&&&&&&,left,sanctity.virtue,unreflectuve,,,,,,,,,,,,,,,0,177,177,274,,,,,,,,,,,,,AMP,left,1.4337821897352114,1,,,,,,,,,,,,,,left,1,1.4337821897352114,,,,,,,,,,,1050,2019_Mar_13_1144,mf_amp_cond2,3.0.4,60.00084670291221,
help,&&&&&,left,care.virtue,pafer,,,,,,,,,,,,,,,0,178,178,97,,,,,,,,,,,,,AMP,right,1.0504743749042973,0,,,,,,,,,,,,,,right,0,1.0504743749042973,,,,,,,,,,,1050,2019_Mar_13_1144,mf_amp_cond2,3.0.4,60.00084670291221,
cromiscuity,&&&&&&&,None,nonword,sickyay,,,,,,,,,,,,,,,0,179,179,309,,,,,,,,,,,,,AMP,left,0.7170828845992219,0,,,,,,,,,,,,,,left,0,0.7170828845992219,,,,,,,,,,,1050,2019_Mar_13_1144,mf_amp_cond2,3.0.4,60.00084670291221,
terrorists,&&&&&,right,fairness.vice,leact,,,,,,,,,,,,,,,0,180,180,104,,,,,,,,,,,,,AMP,left,0.4170031539397314,0,,,,,,,,,,,,,,left,0,0.4170031539397314,,,,,,,,,,,1050,2019_Mar_13_1144,mf_amp_cond2,3.0.4,60.00084670291221,
failure,&&&&&&&&,right,loyalty.vice,thabbily,,,,,,,,,,,,,,,0,181,181,25,,,,,,,,,,,,,AMP,left,0.31700790059403516,0,,,,,,,,,,,,,,left,0,0.31700790059403516,,,,,,,,,,,1050,2019_Mar_13_1144,mf_amp_cond2,3.0.4,60.00084670291221,
officers,&&&&,right,authority.vice,ning,,,,,,,,,,,,,,,0,182,182,299,,,,,,,,,,,,,AMP,left,0.6503724505309947,0,,,,,,,,,,,,,,left,0,0.6503724505309947,,,,,,,,,,,1050,2019_Mar_13_1144,mf_amp_cond2,3.0.4,60.00084670291221,
increase,&&&&&&&&,left,care.virtue,drumbled,,,,,,,,,,,,,,,0,183,183,40,,,,,,,,,,,,,AMP,right,0.7004161003278568,0,,,,,,,,,,,,,,right,0,0.7004161003278568,,,,,,,,,,,1050,2019_Mar_13_1144,mf_amp_cond2,3.0.4,60.00084670291221,
illegal,&&&&&,right,fairness.vice,hasks,,,,,,,,,,,,,,,0,184,184,130,,,,,,,,,,,,,AMP,left,0.4170002674800344,0,,,,,,,,,,,,,,left,0,0.4170002674800344,,,,,,,,,,,1050,2019_Mar_13_1144,mf_amp_cond2,3.0.4,60.00084670291221,
photocalkodes,&&&&&,None,nonword,leact,,,,,,,,,,,,,,,0,185,185,70,,,,,,,,,,,,,AMP,right,0.8337580717052333,0,,,,,,,,,,,,,,right,0,0.8337580717052333,,,,,,,,,,,1050,2019_Mar_13_1144,mf_amp_cond2,3.0.4,60.00084670291221,
fornicalion,&&&&&&&&,None,nonword,clamorek,,,,,,,,,,,,,,,0,186,186,314,,,,,,,,,,,,,AMP,left,0.9171064253314398,0,,,,,,,,,,,,,,left,0,0.9171064253314398,,,,,,,,,,,1050,2019_Mar_13_1144,mf_amp_cond2,3.0.4,60.00084670291221,
injured,&&&&&&&&&,right,care.vice,fangsters,,,,,,,,,,,,,,,0,187,187,123,,,,,,,,,,,,,AMP,left,1.733970323257381,0,,,,,,,,,,,,,,left,0,1.733970323257381,,,,,,,,,,,1050,2019_Mar_13_1144,mf_amp_cond2,3.0.4,60.00084670291221,
fear,&&&&&&,right,sanctity.vice,prones,,,,,,,,,,,,,,,0,188,188,153,,,,,,,,,,,,,AMP,left,0.31698224309366196,0,,,,,,,,,,,,,,left,0,0.31698224309366196,,,,,,,,,,,1050,2019_Mar_13_1144,mf_amp_cond2,3.0.4,60.00084670291221,
encourage,&&&&&&&&,left,authority.virtue,clamorek,,,,,,,,,,,,,,,0,189,189,149,,,,,,,,,,,,,AMP,right,0.5503730278287549,0,,,,,,,,,,,,,,right,0,0.5503730278287549,,,,,,,,,,,1050,2019_Mar_13_1144,mf_amp_cond2,3.0.4,60.00084670291221,
agreement,&&&&&&&&&,left,fairness.virtue,discovars,,,,,,,,,,,,,,,0,190,190,196,,,,,,,,,,,,,AMP,left,0.2669122943771072,1,,,,,,,,,,,,,,left,1,0.2669122943771072,,,,,,,,,,,1050,2019_Mar_13_1144,mf_amp_cond2,3.0.4,60.00084670291221,
terrorists,&&&&&&&&&&&,right,fairness.vice,shoirmaster,,,,,,,,,,,,,,,0,191,191,288,,,,,,,,,,,,,AMP,left,0.6337233057711273,0,,,,,,,,,,,,,,left,0,0.6337233057711273,,,,,,,,,,,1050,2019_Mar_13_1144,mf_amp_cond2,3.0.4,60.00084670291221,
rebels,&&&&&&&&&&&&,right,authority.vice,edancipation,,,,,,,,,,,,,,,0,192,192,308,,,,,,,,,,,,,AMP,left,2.0840641976101324,0,,,,,,,,,,,,,,left,0,2.0840641976101324,,,,,,,,,,,1050,2019_Mar_13_1144,mf_amp_cond2,3.0.4,60.00084670291221,
serial,&&&&&,right,sanctity.vice,viscs,,,,,,,,,,,,,,,0,193,193,69,,,,,,,,,,,,,AMP,left,0.7504058693884872,0,,,,,,,,,,,,,,left,0,0.7504058693884872,,,,,,,,,,,1050,2019_Mar_13_1144,mf_amp_cond2,3.0.4,60.00084670291221,
health,&&&&&&&&&&&,left,care.virtue,shoirmaster,,,,,,,,,,,,,,,0,194,194,307,,,,,,,,,,,,,AMP,right,0.30034368205815554,0,,,,,,,,,,,,,,right,0,0.30034368205815554,,,,,,,,,,,1050,2019_Mar_13_1144,mf_amp_cond2,3.0.4,60.00084670291221,
death,&&&&&&&&,right,care.vice,crinking,,,,,,,,,,,,,,,0,195,195,63,,,,,,,,,,,,,AMP,left,0.266938593267696,0,,,,,,,,,,,,,,left,0,0.266938593267696,,,,,,,,,,,1050,2019_Mar_13_1144,mf_amp_cond2,3.0.4,60.00084670291221,
embrace,&&&&&&,left,authority.virtue,fostet,,,,,,,,,,,,,,,0,196,196,90,,,,,,,,,,,,,AMP,left,0.2502782233932521,1,,,,,,,,,,,,,,left,1,0.2502782233932521,,,,,,,,,,,1050,2019_Mar_13_1144,mf_amp_cond2,3.0.4,60.00084670291221,
honored,&&&&&&&&&&&&,left,authority.virtue,unreflectuve,,,,,,,,,,,,,,,0,197,197,206,,,,,,,,,,,,,AMP,left,0.5003386788303033,1,,,,,,,,,,,,,,left,1,0.5003386788303033,,,,,,,,,,,1050,2019_Mar_13_1144,mf_amp_cond2,3.0.4,60.00084670291221,
gournful,&&&&&&&&&&,None,nonword,imebreaker,,,,,,,,,,,,,,,0,198,198,174,,,,,,,,,,,,,AMP,left,0.4003196923295036,0,,,,,,,,,,,,,,left,0,0.4003196923295036,,,,,,,,,,,1050,2019_Mar_13_1144,mf_amp_cond2,3.0.4,60.00084670291221,
nonobservalt,&&&&&,None,nonword,aubos,,,,,,,,,,,,,,,0,199,199,20,,,,,,,,,,,,,AMP,right,0.16693564268643968,0,,,,,,,,,,,,,,right,0,0.16693564268643968,,,,,,,,,,,1050,2019_Mar_13_1144,mf_amp_cond2,3.0.4,60.00084670291221,
terrorists,&&&&&&&,right,fairness.vice,scalbel,,,,,,,,,,,,,,,0,200,200,225,,,,,,,,,,,,,AMP,left,0.15025378463906236,0,,,,,,,,,,,,,,left,0,0.15025378463906236,,,,,,,,,,,1050,2019_Mar_13_1144,mf_amp_cond2,3.0.4,60.00084670291221,
rebels,&&&&&&&&&&,right,authority.vice,frocessing,,,,,,,,,,,,,,,0,201,201,180,,,,,,,,,,,,,AMP,left,0.1668974771455396,0,,,,,,,,,,,,,,left,0,0.1668974771455396,,,,,,,,,,,1050,2019_Mar_13_1144,mf_amp_cond2,3.0.4,60.00084670291221,
betrayal,&&&&&&&&&,right,loyalty.vice,neputized,,,,,,,,,,,,,,,0,202,202,188,,,,,,,,,,,,,AMP,left,0.21695555932819843,0,,,,,,,,,,,,,,left,0,0.21695555932819843,,,,,,,,,,,1050,2019_Mar_13_1144,mf_amp_cond2,3.0.4,60.00084670291221,
betrayal,&&&&&&&&&,right,loyalty.vice,gandbrake,,,,,,,,,,,,,,,0,203,203,22,,,,,,,,,,,,,AMP,left,0.26695430849213153,0,,,,,,,,,,,,,,left,0,0.26695430849213153,,,,,,,,,,,1050,2019_Mar_13_1144,mf_amp_cond2,3.0.4,60.00084670291221,
ability,&&&&&&&,left,authority.virtue,dramens,,,,,,,,,,,,,,,0,204,204,224,,,,,,,,,,,,,AMP,right,0.3503097179927863,0,,,,,,,,,,,,,,right,0,0.3503097179927863,,,,,,,,,,,1050,2019_Mar_13_1144,mf_amp_cond2,3.0.4,60.00084670291221,
help,&&&&&,left,care.virtue,ablow,,,,,,,,,,,,,,,0,205,205,172,,,,,,,,,,,,,AMP,right,0.68375861691311,0,,,,,,,,,,,,,,right,0,0.68375861691311,,,,,,,,,,,1050,2019_Mar_13_1144,mf_amp_cond2,3.0.4,60.00084670291221,
gournful,&&&&&&&&&&,None,nonword,neutralust,,,,,,,,,,,,,,,0,206,206,91,,,,,,,,,,,,,AMP,right,0.4003293138812296,0,,,,,,,,,,,,,,right,0,0.4003293138812296,,,,,,,,,,,1050,2019_Mar_13_1144,mf_amp_cond2,3.0.4,60.00084670291221,
arrests,&&&&&&&&&&&&,right,authority.vice,edancipation,,,,,,,,,,,,,,,0,207,207,168,,,,,,,,,,,,,AMP,right,0.21693471260368824,1,,,,,,,,,,,,,,right,1,0.21693471260368824,,,,,,,,,,,1050,2019_Mar_13_1144,mf_amp_cond2,3.0.4,60.00084670291221,
died,&&&&&&&,right,care.vice,sickyay,,,,,,,,,,,,,,,0,208,208,167,,,,,,,,,,,,,AMP,left,0.2836271864362061,0,,,,,,,,,,,,,,left,0,0.2836271864362061,,,,,,,,,,,1050,2019_Mar_13_1144,mf_amp_cond2,3.0.4,60.00084670291221,
gun,&&&&&&,right,authority.vice,fegard,,,,,,,,,,,,,,,0,209,209,232,,,,,,,,,,,,,AMP,left,0.15025602967943996,0,,,,,,,,,,,,,,left,0,0.15025602967943996,,,,,,,,,,,1050,2019_Mar_13_1144,mf_amp_cond2,3.0.4,60.00084670291221,
strength,&&&&&&&&,left,sanctity.virtue,thabbily,,,,,,,,,,,,,,,0,210,210,143,,,,,,,,,,,,,AMP,right,0.23362715434632264,0,,,,,,,,,,,,,,right,0,0.23362715434632264,,,,,,,,,,,1050,2019_Mar_13_1144,mf_amp_cond2,3.0.4,60.00084670291221,
fraud,&&&&&,right,fairness.vice,ablow,,,,,,,,,,,,,,,0,211,211,37,,,,,,,,,,,,,AMP,left,0.7170941097429022,0,,,,,,,,,,,,,,left,0,0.7170941097429022,,,,,,,,,,,1050,2019_Mar_13_1144,mf_amp_cond2,3.0.4,60.00084670291221,
increase,&&&&&,left,care.virtue,ablow,,,,,,,,,,,,,,,0,212,212,311,,,,,,,,,,,,,AMP,left,0.3836474558338523,1,,,,,,,,,,,,,,left,1,0.3836474558338523,,,,,,,,,,,1050,2019_Mar_13_1144,mf_amp_cond2,3.0.4,60.00084670291221,
promote,&&&&&&&&&&,left,sanctity.virtue,focomotive,,,,,,,,,,,,,,,0,213,213,117,,,,,,,,,,,,,AMP,left,0.3336406886810437,1,,,,,,,,,,,,,,left,1,0.3336406886810437,,,,,,,,,,,1050,2019_Mar_13_1144,mf_amp_cond2,3.0.4,60.00084670291221,
good,&&&&&&&&&&&&,left,care.virtue,rorroborated,,,,,,,,,,,,,,,0,214,214,244,,,,,,,,,,,,,AMP,right,0.2169459377473686,0,,,,,,,,,,,,,,right,0,0.2169459377473686,,,,,,,,,,,1050,2019_Mar_13_1144,mf_amp_cond2,3.0.4,60.00084670291221,
forced,&&&&&&,right,fairness.vice,gikely,,,,,,,,,,,,,,,0,215,215,52,,,,,,,,,,,,,AMP,left,0.5170243855391163,0,,,,,,,,,,,,,,left,0,0.5170243855391163,,,,,,,,,,,1050,2019_Mar_13_1144,mf_amp_cond2,3.0.4,60.00084670291221,
celebrated,&&&&&&&&&&&&&,left,authority.virtue,synchronazers,,,,,,,,,,,,,,,0,216,216,124,,,,,,,,,,,,,AMP,right,0.30029300853493623,0,,,,,,,,,,,,,,right,0,0.30029300853493623,,,,,,,,,,,1050,2019_Mar_13_1144,mf_amp_cond2,3.0.4,60.00084670291221,
dignity,&&&&&&,left,sanctity.virtue,greaks,,,,,,,,,,,,,,,0,217,217,166,,,,,,,,,,,,,AMP,right,0.283626544958679,0,,,,,,,,,,,,,,right,0,0.283626544958679,,,,,,,,,,,1050,2019_Mar_13_1144,mf_amp_cond2,3.0.4,60.00084670291221,
prosecution,&&&&&&,right,authority.vice,openet,,,,,,,,,,,,,,,0,218,218,105,,,,,,,,,,,,,AMP,left,0.899787620146526,0,,,,,,,,,,,,,,left,0,0.899787620146526,,,,,,,,,,,1050,2019_Mar_13_1144,mf_amp_cond2,3.0.4,60.00084670291221,
perfect,&&&&&&&&&&&,left,sanctity.virtue,vicissifude,,,,,,,,,,,,,,,0,219,219,208,,,,,,,,,,,,,AMP,left,0.41699417383642867,1,,,,,,,,,,,,,,left,1,0.41699417383642867,,,,,,,,,,,1050,2019_Mar_13_1144,mf_amp_cond2,3.0.4,60.00084670291221,
shot,&&&&&&&&&&,right,care.vice,honstables,,,,,,,,,,,,,,,0,220,220,56,,,,,,,,,,,,,AMP,left,0.4169851937040221,0,,,,,,,,,,,,,,left,0,0.4169851937040221,,,,,,,,,,,1050,2019_Mar_13_1144,mf_amp_cond2,3.0.4,60.00084670291221,
conspiracy,&&&&&&&&&,right,sanctity.vice,reprisols,,,,,,,,,,,,,,,0,221,221,68,,,,,,,,,,,,,AMP,left,0.6837223756883759,0,,,,,,,,,,,,,,left,0,0.6837223756883759,,,,,,,,,,,1050,2019_Mar_13_1144,mf_amp_cond2,3.0.4,60.00084670291221,
terrorists,&&&&&,right,fairness.vice,saned,,,,,,,,,,,,,,,0,222,222,46,,,,,,,,,,,,,AMP,left,4.234596686728764,0,,,,,,,,,,,,,,left,0,4.234596686728764,,,,,,,,,,,1050,2019_Mar_13_1144,mf_amp_cond2,3.0.4,60.00084670291221,
war,&&&&&&&,right,sanctity.vice,chreams,,,,,,,,,,,,,,,0,223,223,28,,,,,,,,,,,,,AMP,left,5.351531976601109,0,,,,,,,,,,,,,,left,0,5.351531976601109,,,,,,,,,,,1050,2019_Mar_13_1144,mf_amp_cond2,3.0.4,60.00084670291221,
sharing,&&&&&&&&&,left,loyalty.virtue,godlaness,,,,,,,,,,,,,,,0,224,224,126,,,,,,,,,,,,,AMP,left,0.3335082318808418,1,,,,,,,,,,,,,,left,1,0.3335082318808418,,,,,,,,,,,1050,2019_Mar_13_1144,mf_amp_cond2,3.0.4,60.00084670291221,
sharing,&&&&&&&&&&,left,loyalty.virtue,Oregoniuns,,,,,,,,,,,,,,,0,225,225,318,,,,,,,,,,,,,AMP,left,0.4503537205455359,1,,,,,,,,,,,,,,left,1,0.4503537205455359,,,,,,,,,,,1050,2019_Mar_13_1144,mf_amp_cond2,3.0.4,60.00084670291221,
powerful,&&&&&&&&&,left,authority.virtue,unscothed,,,,,,,,,,,,,,,0,226,226,138,,,,,,,,,,,,,AMP,right,0.15020567685132846,0,,,,,,,,,,,,,,right,0,0.15020567685132846,,,,,,,,,,,1050,2019_Mar_13_1144,mf_amp_cond2,3.0.4,60.00084670291221,
pharing,&&&&&&&&&,None,nonword,reprisols,,,,,,,,,,,,,,,0,227,227,198,,,,,,,,,,,,,AMP,left,0.2836653519188985,0,,,,,,,,,,,,,,left,0,0.2836653519188985,,,,,,,,,,,1050,2019_Mar_13_1144,mf_amp_cond2,3.0.4,60.00084670291221,
peaceful,&&&&&,left,authority.virtue,dumid,,,,,,,,,,,,,,,0,228,228,125,,,,,,,,,,,,,AMP,right,0.20027241838397458,0,,,,,,,,,,,,,,right,0,0.20027241838397458,,,,,,,,,,,1050,2019_Mar_13_1144,mf_amp_cond2,3.0.4,60.00084670291221,
blunderints,&&&&&,None,nonword,framo,,,,,,,,,,,,,,,0,229,229,193,,,,,,,,,,,,,AMP,right,0.46699003656976856,0,,,,,,,,,,,,,,right,0,0.46699003656976856,,,,,,,,,,,1050,2019_Mar_13_1144,mf_amp_cond2,3.0.4,60.00084670291221,
charges,&&&&&,right,fairness.vice,hasks,,,,,,,,,,,,,,,0,230,230,243,,,,,,,,,,,,,AMP,right,0.5169701840786729,1,,,,,,,,,,,,,,right,1,0.5169701840786729,,,,,,,,,,,1050,2019_Mar_13_1144,mf_amp_cond2,3.0.4,60.00084670291221,
love,&&&&&&,left,loyalty.virtue,prones,,,,,,,,,,,,,,,0,231,231,313,,,,,,,,,,,,,AMP,right,0.033582766889594495,0,,,,,,,,,,,,,,right,0,0.033582766889594495,,,,,,,,,,,1050,2019_Mar_13_1144,mf_amp_cond2,3.0.4,60.00084670291221,
praised,&&&&&&&&&&&,left,loyalty.virtue,shoirmaster,,,,,,,,,,,,,,,0,232,232,38,,,,,,,,,,,,,AMP,right,0.10025279040564783,0,,,,,,,,,,,,,,right,0,0.10025279040564783,,,,,,,,,,,1050,2019_Mar_13_1144,mf_amp_cond2,3.0.4,60.00084670291221,
crime,&&&&&,right,fairness.vice,saned,,,,,,,,,,,,,,,0,233,233,322,,,,,,,,,,,,,AMP,left,0.8670926023623906,0,,,,,,,,,,,,,,left,0,0.8670926023623906,,,,,,,,,,,1050,2019_Mar_13_1144,mf_amp_cond2,3.0.4,60.00084670291221,
war,&&&&&&&,right,sanctity.vice,Loorish,,,,,,,,,,,,,,,0,234,234,199,,,,,,,,,,,,,AMP,left,0.1669314733298961,0,,,,,,,,,,,,,,left,0,0.1669314733298961,,,,,,,,,,,1050,2019_Mar_13_1144,mf_amp_cond2,3.0.4,60.00084670291221,
pleasant,&&&&&&&&&,None,control,chressing,,,,,,,,,,,,,,,0,235,235,231,,,,,,,,,,,,,AMP,left,1.0671485357161146,0,,,,,,,,,,,,,,left,0,1.0671485357161146,,,,,,,,,,,1050,2019_Mar_13_1144,mf_amp_cond2,3.0.4,60.00084670291221,
totalestic,&&&&&&,None,nonword,prones,,,,,,,,,,,,,,,0,236,236,74,,,,,,,,,,,,,AMP,left,0.016894815198611468,0,,,,,,,,,,,,,,left,0,0.016894815198611468,,,,,,,,,,,1050,2019_Mar_13_1144,mf_amp_cond2,3.0.4,60.00084670291221,
health,&&&&&,left,care.virtue,pulge,,,,,,,,,,,,,,,0,237,237,114,,,,,,,,,,,,,AMP,left,0.7170597928634379,1,,,,,,,,,,,,,,left,1,0.7170597928634379,,,,,,,,,,,1050,2019_Mar_13_1144,mf_amp_cond2,3.0.4,60.00084670291221,
failure,&&&&&&&&&,right,loyalty.vice,godlaness,,,,,,,,,,,,,,,0,238,238,280,,,,,,,,,,,,,AMP,left,0.0669439172197599,0,,,,,,,,,,,,,,left,0,0.0669439172197599,,,,,,,,,,,1050,2019_Mar_13_1144,mf_amp_cond2,3.0.4,60.00084670291221,
lachelor,&&&&&&&&&&&&,None,nonword,unreflectuve,,,,,,,,,,,,,,,0,239,239,99,,,,,,,,,,,,,AMP,left,0.5670042122947052,0,,,,,,,,,,,,,,left,0,0.5670042122947052,,,,,,,,,,,1050,2019_Mar_13_1144,mf_amp_cond2,3.0.4,60.00084670291221,
unpleasant,&&&&&&&&,None,control,framatic,,,,,,,,,,,,,,,0,240,240,171,,,,,,,,,,,,,AMP,left,0.18362199078546837,0,,,,,,,,,,,,,,left,0,0.18362199078546837,,,,,,,,,,,1050,2019_Mar_13_1144,mf_amp_cond2,3.0.4,60.00084670291221,
growth,&&&&&&&&&,left,care.virtue,Phintoism,,,,,,,,,,,,,,,0,241,241,263,,,,,,,,,,,,,AMP,left,0.5670247383241076,1,,,,,,,,,,,,,,left,1,0.5670247383241076,,,,,,,,,,,1050,2019_Mar_13_1144,mf_amp_cond2,3.0.4,60.00084670291221,
clean,&&&&,left,sanctity.virtue,erks,,,,,,,,,,,,,,,0,242,242,236,,,,,,,,,,,,,AMP,left,0.28362462067161687,1,,,,,,,,,,,,,,left,1,0.28362462067161687,,,,,,,,,,,1050,2019_Mar_13_1144,mf_amp_cond2,3.0.4,60.00084670291221,
drug,&&&&,right,sanctity.vice,coom,,,,,,,,,,,,,,,0,243,243,306,,,,,,,,,,,,,AMP,left,0.15026308549568057,0,,,,,,,,,,,,,,left,0,0.15026308549568057,,,,,,,,,,,1050,2019_Mar_13_1144,mf_amp_cond2,3.0.4,60.00084670291221,
