words,mask,corr_ans,category,nonwords,tweets,topic,LDT_pracloop.thisRepN,LDT_pracloop.thisTrialN,LDT_pracloop.thisN,LDT_pracloop.thisIndex,LDT_trials.thisRepN,LDT_trials.thisTrialN,LDT_trials.thisN,LDT_trials.thisIndex,AMP_pracloop.thisRepN,AMP_pracloop.thisTrialN,AMP_pracloop.thisN,AMP_pracloop.thisIndex,AMP_trials.thisRepN,AMP_trials.thisTrialN,AMP_trials.thisN,AMP_trials.thisIndex,tweet_loop.thisRepN,tweet_loop.thisTrialN,tweet_loop.thisN,tweet_loop.thisIndex,begin_key.keys,begin_key.rt,key_resp_AMP_instr1.keys,key_resp_AMP_instr1.rt,key_resp_LDT_instr.keys,key_resp_LDT_instr.rt,resp_LDT_prac.keys,resp_LDT_prac.rt,task,keypress,RT,corr,resp_LDT_ready.keys,resp_LDT_ready.rt,resp_LDT.keys,resp_LDT.corr,resp_LDT.rt,LDT_rating.response,LDT_rating.rt,resp_AMP_ready1.keys,resp_AMP_ready1.rt,resp_AMP_prac.keys,resp_AMP_prac.rt,resp_AMP_ready.keys,resp_AMP_ready.rt,resp_AMP.keys,resp_AMP.corr,resp_AMP.rt,AMP_nonword_rating.response,AMP_nonword_rating.rt,AMP_word_rating.response,AMP_word_rating.rt,AMP_random_rating.response,AMP_random_rating.rt,key_resp_LDT_instr_2.keys,key_resp_LDT_instr_2.rt,resp_tweets.keys,resp_tweets.rt,participant,date,expName,psychopyVersion,frameRate,
,,,,,,,,,,,,,,,,,,,,,,,,,,,right,1188.9618942662783,,,,,,,,,,,,,,,,,,,,,,,,,,,,,,,,,,,,,1052,2019_Mar_13_1146,mf_amp_cond2,3.0.4,59.98220456191155,
,,,,,,,,,,,,,,,,,,,,,,,,,,,,,right,1.1505947526311502,,,,,,,,,,,,,,,,,,,,,,,,,,,,,,,,,,,1052,2019_Mar_13_1146,mf_amp_cond2,3.0.4,59.98220456191155,
,,,,,,,,,,,,,,,,,,,,,,,,,,,,,,,right,1.7174127307662275,,,,,,,,,,,,,,,,,,,,,,,,,,,,,,,,,1052,2019_Mar_13_1146,mf_amp_cond2,3.0.4,59.98220456191155,
bisebell,&&&&&&&,,,,,,0,0,0,1,,,,,,,,,,,,,,,,,,,,,,,right,2.584314003470354,LDT_prac,right,2.584314003470354,0,,,,,,,,,,,,,,,,,,,,,,,,,,,1052,2019_Mar_13_1146,mf_amp_cond2,3.0.4,59.98220456191155,
keyboard,&&&&&&&,,,,,,0,1,1,0,,,,,,,,,,,,,,,,,,,,,,,left,1.5673106251633726,LDT_prac,left,1.5673106251633726,0,,,,,,,,,,,,,,,,,,,,,,,,,,,1052,2019_Mar_13_1146,mf_amp_cond2,3.0.4,59.98220456191155,
,,,,,,,,,,,,,,,,,,,,,,,,,,,,,,,,,,,,,,,right,3.167811418825295,,,,,,,,,,,,,,,,,,,,,,,,,1052,2019_Mar_13_1146,mf_amp_cond2,3.0.4,59.98220456191155,
simplustic,&&&&&&&&&&,right,nonword,,,,,,,,0,0,0,192,,,,,,,,,,,,,,,,,,,,,LDT,left,8.902826979232486,0,,,left,0,8.902826979232486,,,,,,,,,,,,,,,,,,,,,,1052,2019_Mar_13_1146,mf_amp_cond2,3.0.4,59.98220456191155,
scalbel,&&&&&&&,right,nonword,,,,,,,,0,1,1,57,,,,,,,,,,,,,,,,,,,,,LDT,left,1.0005192679236643,0,,,left,0,1.0005192679236643,,,,,,,,,,,,,,,,,,,,,,1052,2019_Mar_13_1146,mf_amp_cond2,3.0.4,59.98220456191155,
nomparisons,&&&&&&&&&&&,right,nonword,,,,,,,,0,2,2,104,,,,,,,,,,,,,,,,,,,,,LDT,left,1.0505325623380486,0,,,left,0,1.0505325623380486,,,,,,,,,,,,,,,,,,,,,,1052,2019_Mar_13_1146,mf_amp_cond2,3.0.4,59.98220456191155,
Loorish,&&&&&&&,right,nonword,,,,,,,,0,3,3,80,,,,,,,,,,,,,,,,,,,,,LDT,right,3.651303093036404,1,,,right,1,3.651303093036404,,,,,,,,,,,,,,,,,,,,,,1052,2019_Mar_13_1146,mf_amp_cond2,3.0.4,59.98220456191155,
letish,&&&&&&,right,nonword,,,,,,,,0,4,4,159,,,,,,,,,,,,,,,,,,,,,LDT,right,0.7671187622472644,1,,,right,1,0.7671187622472644,,,,,,,,,,,,,,,,,,,,,,1052,2019_Mar_13_1146,mf_amp_cond2,3.0.4,59.98220456191155,
allears,&&&&&&&,right,nonword,,,,,,,,0,5,5,33,,,,,,,,,,,,,,,,,,,,,LDT,left,0.8338297757145483,0,,,left,0,0.8338297757145483,,,,,,,,,,,,,,,,,,,,,,1052,2019_Mar_13_1146,mf_amp_cond2,3.0.4,59.98220456191155,
itself,&&&&&&,left,neutral,,,,,,,,0,6,6,60,,,,,,,,,,,,,,,,,,,,,LDT,right,1.750746587960748,0,,,right,0,1.750746587960748,,,,,,,,,,,,,,,,,,,,,,1052,2019_Mar_13_1146,mf_amp_cond2,3.0.4,59.98220456191155,
chared,&&&&&&,right,nonword,,,,,,,,0,7,7,30,,,,,,,,,,,,,,,,,,,,,LDT,right,0.9005010181863327,1,,,right,1,0.9005010181863327,,,,,,,,,,,,,,,,,,,,,,1052,2019_Mar_13_1146,mf_amp_cond2,3.0.4,59.98220456191155,
betrayal,&&&&&&&&,left,loyalty.vice,,,,,,,,0,8,8,42,,,,,,,,,,,,,,,,,,,,,LDT,right,0.7671556466375478,0,,,right,0,0.7671556466375478,,,,,,,,,,,,,,,,,,,,,,1052,2019_Mar_13_1146,mf_amp_cond2,3.0.4,59.98220456191155,
hasks,&&&&&,right,nonword,,,,,,,,0,9,9,137,,,,,,,,,,,,,,,,,,,,,LDT,right,1.050544429483125,1,,,right,1,1.050544429483125,,,,,,,,,,,,,,,,,,,,,,1052,2019_Mar_13_1146,mf_amp_cond2,3.0.4,59.98220456191155,
sgrawl,&&&&&&,right,nonword,,,,,,,,0,10,10,16,,,,,,,,,,,,,,,,,,,,,LDT,left,0.7504492677689996,0,,,left,0,0.7504492677689996,,,,,,,,,,,,,,,,,,,,,,1052,2019_Mar_13_1146,mf_amp_cond2,3.0.4,59.98220456191155,
suicide,&&&&&&&,left,care.vice,,,,,,,,0,11,11,3,,,,,,,,,,,,,,,,,,,,,LDT,right,1.0505303172103595,0,,,right,0,1.0505303172103595,,,,,,,,,,,,,,,,,,,,,,1052,2019_Mar_13_1146,mf_amp_cond2,3.0.4,59.98220456191155,
wherever,&&&&&&&&,left,neutral,,,,,,,,0,12,12,69,,,,,,,,,,,,,,,,,,,,,LDT,left,0.833801230386598,1,,,left,1,0.833801230386598,,,,,,,,,,,,,,,,,,,,,,1052,2019_Mar_13_1146,mf_amp_cond2,3.0.4,59.98220456191155,
drumbled,&&&&&&&&,right,nonword,,,,,,,,0,13,13,70,,,,,,,,,,,,,,,,,,,,,LDT,right,1.300615071086213,1,,,right,1,1.300615071086213,,,,,,,,,,,,,,,,,,,,,,1052,2019_Mar_13_1146,mf_amp_cond2,3.0.4,59.98220456191155,
couldnt,&&&&&&&,left,neutral,,,,,,,,0,14,14,134,,,,,,,,,,,,,,,,,,,,,LDT,left,1.5006778707320336,1,,,left,1,1.5006778707320336,,,,,,,,,,,,,,,,,,,,,,1052,2019_Mar_13_1146,mf_amp_cond2,3.0.4,59.98220456191155,
erdest,&&&&&&,right,nonword,,,,,,,,0,15,15,173,,,,,,,,,,,,,,,,,,,,,LDT,left,1.8174313012277707,0,,,left,0,1.8174313012277707,,,,,,,,,,,,,,,,,,,,,,1052,2019_Mar_13_1146,mf_amp_cond2,3.0.4,59.98220456191155,
both,&&&&,left,neutral,,,,,,,,0,16,16,41,,,,,,,,,,,,,,,,,,,,,LDT,left,0.8838167699286714,1,,,left,1,0.8838167699286714,,,,,,,,,,,,,,,,,,,,,,1052,2019_Mar_13_1146,mf_amp_cond2,3.0.4,59.98220456191155,
amount,&&&&&&,left,neutral,,,,,,,,0,17,17,10,,,,,,,,,,,,,,,,,,,,,LDT,left,0.7171003360999748,1,,,left,1,0.7171003360999748,,,,,,,,,,,,,,,,,,,,,,1052,2019_Mar_13_1146,mf_amp_cond2,3.0.4,59.98220456191155,
unscothed,&&&&&&&&&,right,nonword,,,,,,,,0,18,18,140,,,,,,,,,,,,,,,,,,,,,LDT,right,0.7671178000455257,1,,,right,1,0.7671178000455257,,,,,,,,,,,,,,,,,,,,,,1052,2019_Mar_13_1146,mf_amp_cond2,3.0.4,59.98220456191155,
anyhow,&&&&&&,left,neutral,,,,,,,,0,19,19,61,,,,,,,,,,,,,,,,,,,,,LDT,left,1.8174181511276402,1,,,left,1,1.8174181511276402,,,,,,,,,,,,,,,,,,,,,,1052,2019_Mar_13_1146,mf_amp_cond2,3.0.4,59.98220456191155,
uller,&&&&&,right,nonword,,,,,,,,0,20,20,93,,,,,,,,,,,,,,,,,,,,,LDT,right,1.1338979957799893,1,,,right,1,1.1338979957799893,,,,,,,,,,,,,,,,,,,,,,1052,2019_Mar_13_1146,mf_amp_cond2,3.0.4,59.98220456191155,
pharing,&&&&&&&,right,nonword,,,,,,,,0,21,21,89,,,,,,,,,,,,,,,,,,,,,LDT,left,1.350628686224809,0,,,left,0,1.350628686224809,,,,,,,,,,,,,,,,,,,,,,1052,2019_Mar_13_1146,mf_amp_cond2,3.0.4,59.98220456191155,
aubos,&&&&&,right,nonword,,,,,,,,0,22,22,197,,,,,,,,,,,,,,,,,,,,,LDT,right,1.3172598690725863,1,,,right,1,1.3172598690725863,,,,,,,,,,,,,,,,,,,,,,1052,2019_Mar_13_1146,mf_amp_cond2,3.0.4,59.98220456191155,
forepo,&&&&&&,right,nonword,,,,,,,,0,23,23,168,,,,,,,,,,,,,,,,,,,,,LDT,left,0.7837651638837997,0,,,left,0,0.7837651638837997,,,,,,,,,,,,,,,,,,,,,,1052,2019_Mar_13_1146,mf_amp_cond2,3.0.4,59.98220456191155,
corruption,&&&&&&&&&&,left,sanctity.vice,,,,,,,,0,24,24,125,,,,,,,,,,,,,,,,,,,,,LDT,right,1.1172147097531706,0,,,right,0,1.1172147097531706,,,,,,,,,,,,,,,,,,,,,,1052,2019_Mar_13_1146,mf_amp_cond2,3.0.4,59.98220456191155,
compassion,&&&&&&&&&&,left,care.virtue,,,,,,,,0,25,25,46,,,,,,,,,,,,,,,,,,,,,LDT,right,0.9171711541130207,0,,,right,0,0.9171711541130207,,,,,,,,,,,,,,,,,,,,,,1052,2019_Mar_13_1146,mf_amp_cond2,3.0.4,59.98220456191155,
chonograph,&&&&&&&&&&,right,nonword,,,,,,,,0,26,26,130,,,,,,,,,,,,,,,,,,,,,LDT,right,1.0005237581790425,1,,,right,1,1.0005237581790425,,,,,,,,,,,,,,,,,,,,,,1052,2019_Mar_13_1146,mf_amp_cond2,3.0.4,59.98220456191155,
anything,&&&&&&&&,left,neutral,,,,,,,,0,27,27,90,,,,,,,,,,,,,,,,,,,,,LDT,left,0.6170766338764224,1,,,left,1,0.6170766338764224,,,,,,,,,,,,,,,,,,,,,,1052,2019_Mar_13_1146,mf_amp_cond2,3.0.4,59.98220456191155,
epigrach,&&&&&&&&,right,nonword,,,,,,,,0,28,28,94,,,,,,,,,,,,,,,,,,,,,LDT,left,0.7337935648683924,0,,,left,0,0.7337935648683924,,,,,,,,,,,,,,,,,,,,,,1052,2019_Mar_13_1146,mf_amp_cond2,3.0.4,59.98220456191155,
eight,&&&&&,left,neutral,,,,,,,,0,29,29,7,,,,,,,,,,,,,,,,,,,,,LDT,left,0.9671841277740896,1,,,left,1,0.9671841277740896,,,,,,,,,,,,,,,,,,,,,,1052,2019_Mar_13_1146,mf_amp_cond2,3.0.4,59.98220456191155,
good,&&&&,left,care.virtue,,,,,,,,0,30,30,111,,,,,,,,,,,,,,,,,,,,,LDT,right,0.6004533250525128,0,,,right,0,0.6004533250525128,,,,,,,,,,,,,,,,,,,,,,1052,2019_Mar_13_1146,mf_amp_cond2,3.0.4,59.98220456191155,
antral,&&&&&&,right,nonword,,,,,,,,0,31,31,72,,,,,,,,,,,,,,,,,,,,,LDT,left,0.8836891179089434,0,,,left,0,0.8836891179089434,,,,,,,,,,,,,,,,,,,,,,1052,2019_Mar_13_1146,mf_amp_cond2,3.0.4,59.98220456191155,
death,&&&&&,left,care.vice,,,,,,,,0,32,32,126,,,,,,,,,,,,,,,,,,,,,LDT,right,0.66709345637355,0,,,right,0,0.66709345637355,,,,,,,,,,,,,,,,,,,,,,1052,2019_Mar_13_1146,mf_amp_cond2,3.0.4,59.98220456191155,
blunderints,&&&&&&&&&&&,right,nonword,,,,,,,,0,33,33,79,,,,,,,,,,,,,,,,,,,,,LDT,left,0.6337512600875925,0,,,left,0,0.6337512600875925,,,,,,,,,,,,,,,,,,,,,,1052,2019_Mar_13_1146,mf_amp_cond2,3.0.4,59.98220456191155,
faspberry,&&&&&&&&&,None,nonword,,,,,,,,0,34,34,194,,,,,,,,,,,,,,,,,,,,,LDT,right,0.683758460538229,0,,,right,0,0.683758460538229,,,,,,,,,,,,,,,,,,,,,,1052,2019_Mar_13_1146,mf_amp_cond2,3.0.4,59.98220456191155,
noped,&&&&&,right,nonword,,,,,,,,0,35,35,160,,,,,,,,,,,,,,,,,,,,,LDT,left,0.7171016190259252,0,,,left,0,0.7171016190259252,,,,,,,,,,,,,,,,,,,,,,1052,2019_Mar_13_1146,mf_amp_cond2,3.0.4,59.98220456191155,
nuckheap,&&&&&&&&,right,nonword,,,,,,,,0,36,36,128,,,,,,,,,,,,,,,,,,,,,LDT,left,0.9838452831900213,0,,,left,0,0.9838452831900213,,,,,,,,,,,,,,,,,,,,,,1052,2019_Mar_13_1146,mf_amp_cond2,3.0.4,59.98220456191155,
gationwide,&&&&&&&&&&,right,nonword,,,,,,,,0,37,37,114,,,,,,,,,,,,,,,,,,,,,LDT,right,0.667088966089068,1,,,right,1,0.667088966089068,,,,,,,,,,,,,,,,,,,,,,1052,2019_Mar_13_1146,mf_amp_cond2,3.0.4,59.98220456191155,
groups,&&&&&&,left,loyalty.vice,,,,,,,,0,38,38,21,,,,,,,,,,,,,,,,,,,,,LDT,right,1.0005227960064076,0,,,right,0,1.0005227960064076,,,,,,,,,,,,,,,,,,,,,,1052,2019_Mar_13_1146,mf_amp_cond2,3.0.4,59.98220456191155,
riot,&&&&,left,authority.vice,,,,,,,,0,39,39,136,,,,,,,,,,,,,,,,,,,,,LDT,right,0.6004010454635136,0,,,right,0,0.6004010454635136,,,,,,,,,,,,,,,,,,,,,,1052,2019_Mar_13_1146,mf_amp_cond2,3.0.4,59.98220456191155,
voter,&&&&&,left,fairness.vice,,,,,,,,0,40,40,47,,,,,,,,,,,,,,,,,,,,,LDT,right,1.0171890831261408,0,,,right,0,1.0171890831261408,,,,,,,,,,,,,,,,,,,,,,1052,2019_Mar_13_1146,mf_amp_cond2,3.0.4,59.98220456191155,
crilfully,&&&&&&&&&,right,nonword,,,,,,,,0,41,41,81,,,,,,,,,,,,,,,,,,,,,LDT,right,0.60041291260859,1,,,right,1,0.60041291260859,,,,,,,,,,,,,,,,,,,,,,1052,2019_Mar_13_1146,mf_amp_cond2,3.0.4,59.98220456191155,
abuse,&&&&&,left,sanctity.vice,,,,,,,,0,42,42,170,,,,,,,,,,,,,,,,,,,,,LDT,right,0.5003690041776281,0,,,right,0,0.5003690041776281,,,,,,,,,,,,,,,,,,,,,,1052,2019_Mar_13_1146,mf_amp_cond2,3.0.4,59.98220456191155,
chadows,&&&&&&&,right,nonword,,,,,,,,0,43,43,154,,,,,,,,,,,,,,,,,,,,,LDT,left,0.9338332717015874,0,,,left,0,0.9338332717015874,,,,,,,,,,,,,,,,,,,,,,1052,2019_Mar_13_1146,mf_amp_cond2,3.0.4,59.98220456191155,
therefore,&&&&&&&&&,left,neutral,,,,,,,,0,44,44,76,,,,,,,,,,,,,,,,,,,,,LDT,left,0.7004350111819804,1,,,left,1,0.7004350111819804,,,,,,,,,,,,,,,,,,,,,,1052,2019_Mar_13_1146,mf_amp_cond2,3.0.4,59.98220456191155,
sfumatoy,&&&&&&&&,None,nonword,,,,,,,,0,45,45,124,,,,,,,,,,,,,,,,,,,,,LDT,left,0.8338009096623864,0,,,left,0,0.8338009096623864,,,,,,,,,,,,,,,,,,,,,,1052,2019_Mar_13_1146,mf_amp_cond2,3.0.4,59.98220456191155,
halaise,&&&&&&&,None,nonword,,,,,,,,0,46,46,66,,,,,,,,,,,,,,,,,,,,,LDT,left,0.6003506902779918,0,,,left,0,0.6003506902779918,,,,,,,,,,,,,,,,,,,,,,1052,2019_Mar_13_1146,mf_amp_cond2,3.0.4,59.98220456191155,
least,&&&&&,left,neutral,,,,,,,,0,47,47,2,,,,,,,,,,,,,,,,,,,,,LDT,right,1.0338685203460045,0,,,right,0,1.0338685203460045,,,,,,,,,,,,,,,,,,,,,,1052,2019_Mar_13_1146,mf_amp_cond2,3.0.4,59.98220456191155,
photocalkodes,&&&&&&&&&&&&&,right,nonword,,,,,,,,0,48,48,108,,,,,,,,,,,,,,,,,,,,,LDT,left,1.83409149441286,0,,,left,0,1.83409149441286,,,,,,,,,,,,,,,,,,,,,,1052,2019_Mar_13_1146,mf_amp_cond2,3.0.4,59.98220456191155,
three,&&&&&,left,neutral,,,,,,,,0,49,49,64,,,,,,,,,,,,,,,,,,,,,LDT,left,0.8503398655157071,1,,,left,1,0.8503398655157071,,,,,,,,,,,,,,,,,,,,,,1052,2019_Mar_13_1146,mf_amp_cond2,3.0.4,59.98220456191155,
gillipede,&&&&&&&&&,None,nonword,,,,,,,,0,50,50,29,,,,,,,,,,,,,,,,,,,,,LDT,left,0.6670892868132796,0,,,left,0,0.6670892868132796,,,,,,,,,,,,,,,,,,,,,,1052,2019_Mar_13_1146,mf_amp_cond2,3.0.4,59.98220456191155,
promote,&&&&&&&,left,sanctity.virtue,,,,,,,,0,51,51,97,,,,,,,,,,,,,,,,,,,,,LDT,right,0.417024418420624,0,,,right,0,0.417024418420624,,,,,,,,,,,,,,,,,,,,,,1052,2019_Mar_13_1146,mf_amp_cond2,3.0.4,59.98220456191155,
tabin,&&&&&,right,nonword,,,,,,,,0,52,52,163,,,,,,,,,,,,,,,,,,,,,LDT,left,0.767117479321314,0,,,left,0,0.767117479321314,,,,,,,,,,,,,,,,,,,,,,1052,2019_Mar_13_1146,mf_amp_cond2,3.0.4,59.98220456191155,
proached,&&&&&&&&,right,nonword,,,,,,,,0,53,53,196,,,,,,,,,,,,,,,,,,,,,LDT,left,1.2172557315789163,0,,,left,0,1.2172557315789163,,,,,,,,,,,,,,,,,,,,,,1052,2019_Mar_13_1146,mf_amp_cond2,3.0.4,59.98220456191155,
were,&&&&,left,neutral,,,,,,,,0,54,54,135,,,,,,,,,,,,,,,,,,,,,LDT,left,0.6670944185461849,1,,,left,1,0.6670944185461849,,,,,,,,,,,,,,,,,,,,,,1052,2019_Mar_13_1146,mf_amp_cond2,3.0.4,59.98220456191155,
mightingale,&&&&&&&&&&&,right,nonword,,,,,,,,0,55,55,102,,,,,,,,,,,,,,,,,,,,,LDT,left,0.8005023331788834,0,,,left,0,0.8005023331788834,,,,,,,,,,,,,,,,,,,,,,1052,2019_Mar_13_1146,mf_amp_cond2,3.0.4,59.98220456191155,
gandbrake,&&&&&&&&&,right,nonword,,,,,,,,0,56,56,84,,,,,,,,,,,,,,,,,,,,,LDT,left,0.5337301237450447,0,,,left,0,0.5337301237450447,,,,,,,,,,,,,,,,,,,,,,1052,2019_Mar_13_1146,mf_amp_cond2,3.0.4,59.98220456191155,
useful,&&&&&&,left,authority.virtue,,,,,,,,0,57,57,120,,,,,,,,,,,,,,,,,,,,,LDT,left,1.4673254110093694,1,,,left,1,1.4673254110093694,,,,,,,,,,,,,,,,,,,,,,1052,2019_Mar_13_1146,mf_amp_cond2,3.0.4,59.98220456191155,
although,&&&&&&&&,left,neutral,,,,,,,,0,58,58,151,,,,,,,,,,,,,,,,,,,,,LDT,left,1.0505165256618056,1,,,left,1,1.0505165256618056,,,,,,,,,,,,,,,,,,,,,,1052,2019_Mar_13_1146,mf_amp_cond2,3.0.4,59.98220456191155,
bruthfulness,&&&&&&&&&&&&,right,nonword,,,,,,,,0,59,59,50,,,,,,,,,,,,,,,,,,,,,LDT,right,0.6170753509213682,1,,,right,1,0.6170753509213682,,,,,,,,,,,,,,,,,,,,,,1052,2019_Mar_13_1146,mf_amp_cond2,3.0.4,59.98220456191155,
arrests,&&&&&&&,left,authority.vice,,,,,,,,0,60,60,153,,,,,,,,,,,,,,,,,,,,,LDT,right,0.6004135540570132,0,,,right,0,0.6004135540570132,,,,,,,,,,,,,,,,,,,,,,1052,2019_Mar_13_1146,mf_amp_cond2,3.0.4,59.98220456191155,
rebels,&&&&&&,left,authority.vice,,,,,,,,0,61,61,176,,,,,,,,,,,,,,,,,,,,,LDT,right,0.5337118419120088,0,,,right,0,0.5337118419120088,,,,,,,,,,,,,,,,,,,,,,1052,2019_Mar_13_1146,mf_amp_cond2,3.0.4,59.98220456191155,
love,&&&&,left,loyalty.virtue,,,,,,,,0,62,62,23,,,,,,,,,,,,,,,,,,,,,LDT,right,0.41700645731179975,0,,,right,0,0.41700645731179975,,,,,,,,,,,,,,,,,,,,,,1052,2019_Mar_13_1146,mf_amp_cond2,3.0.4,59.98220456191155,
faith,&&&&&,left,sanctity.virtue,,,,,,,,0,63,63,4,,,,,,,,,,,,,,,,,,,,,LDT,right,0.383688636822626,0,,,right,0,0.383688636822626,,,,,,,,,,,,,,,,,,,,,,1052,2019_Mar_13_1146,mf_amp_cond2,3.0.4,59.98220456191155,
frojecting,&&&&&&&&&&,right,nonword,,,,,,,,0,64,64,150,,,,,,,,,,,,,,,,,,,,,LDT,right,0.6170920290751383,1,,,right,1,0.6170920290751383,,,,,,,,,,,,,,,,,,,,,,1052,2019_Mar_13_1146,mf_amp_cond2,3.0.4,59.98220456191155,
imebreaker,&&&&&&&&&&,right,nonword,,,,,,,,0,65,65,22,,,,,,,,,,,,,,,,,,,,,LDT,right,0.5504223903117236,1,,,right,1,0.5504223903117236,,,,,,,,,,,,,,,,,,,,,,1052,2019_Mar_13_1146,mf_amp_cond2,3.0.4,59.98220456191155,
dignity,&&&&&&&,left,sanctity.virtue,,,,,,,,0,66,66,189,,,,,,,,,,,,,,,,,,,,,LDT,right,0.6337554296187591,0,,,right,0,0.6337554296187591,,,,,,,,,,,,,,,,,,,,,,1052,2019_Mar_13_1146,mf_amp_cond2,3.0.4,59.98220456191155,
great,&&&&&,left,loyalty.virtue,,,,,,,,0,67,67,146,,,,,,,,,,,,,,,,,,,,,LDT,right,0.7004356526304036,0,,,right,0,0.7004356526304036,,,,,,,,,,,,,,,,,,,,,,1052,2019_Mar_13_1146,mf_amp_cond2,3.0.4,59.98220456191155,
rejected,&&&&&&&&,left,authority.vice,,,,,,,,0,68,68,8,,,,,,,,,,,,,,,,,,,,,LDT,right,0.6837671203829814,0,,,right,0,0.6837671203829814,,,,,,,,,,,,,,,,,,,,,,1052,2019_Mar_13_1146,mf_amp_cond2,3.0.4,59.98220456191155,
ugeasily,&&&&&&&&,right,nonword,,,,,,,,0,69,69,117,,,,,,,,,,,,,,,,,,,,,LDT,right,0.7337839428510051,1,,,right,1,0.7337839428510051,,,,,,,,,,,,,,,,,,,,,,1052,2019_Mar_13_1146,mf_amp_cond2,3.0.4,59.98220456191155,
gusinesslike,&&&&&&&&&&&&,right,nonword,,,,,,,,0,70,70,178,,,,,,,,,,,,,,,,,,,,,LDT,left,0.7671312708698679,0,,,left,0,0.7671312708698679,,,,,,,,,,,,,,,,,,,,,,1052,2019_Mar_13_1146,mf_amp_cond2,3.0.4,59.98220456191155,
saned,&&&&&,None,nonword,,,,,,,,0,71,71,139,,,,,,,,,,,,,,,,,,,,,LDT,left,0.6837680825556163,0,,,left,0,0.6837680825556163,,,,,,,,,,,,,,,,,,,,,,1052,2019_Mar_13_1146,mf_amp_cond2,3.0.4,59.98220456191155,
coom,&&&&,right,nonword,,,,,,,,0,72,72,38,,,,,,,,,,,,,,,,,,,,,LDT,left,0.5503935242595617,0,,,left,0,0.5503935242595617,,,,,,,,,,,,,,,,,,,,,,1052,2019_Mar_13_1146,mf_amp_cond2,3.0.4,59.98220456191155,
gikely,&&&&&&,right,nonword,,,,,,,,0,73,73,88,,,,,,,,,,,,,,,,,,,,,LDT,left,0.6337400344200432,0,,,left,0,0.6337400344200432,,,,,,,,,,,,,,,,,,,,,,1052,2019_Mar_13_1146,mf_amp_cond2,3.0.4,59.98220456191155,
framatic,&&&&&&&&,right,nonword,,,,,,,,0,74,74,52,,,,,,,,,,,,,,,,,,,,,LDT,left,0.6837597434641793,0,,,left,0,0.6837597434641793,,,,,,,,,,,,,,,,,,,,,,1052,2019_Mar_13_1146,mf_amp_cond2,3.0.4,59.98220456191155,
interests,&&&&&&&&&,left,fairness.virtue,,,,,,,,0,75,75,45,,,,,,,,,,,,,,,,,,,,,LDT,right,0.5168967343342956,0,,,right,0,0.5168967343342956,,,,,,,,,,,,,,,,,,,,,,1052,2019_Mar_13_1146,mf_amp_cond2,3.0.4,59.98220456191155,
openet,&&&&&&,None,nonword,,,,,,,,0,76,76,74,,,,,,,,,,,,,,,,,,,,,LDT,right,0.7337836221267935,0,,,right,0,0.7337836221267935,,,,,,,,,,,,,,,,,,,,,,1052,2019_Mar_13_1146,mf_amp_cond2,3.0.4,59.98220456191155,
crime,&&&&&,left,fairness.vice,,,,,,,,0,77,77,20,,,,,,,,,,,,,,,,,,,,,LDT,right,0.6837648752261885,0,,,right,0,0.6837648752261885,,,,,,,,,,,,,,,,,,,,,,1052,2019_Mar_13_1146,mf_amp_cond2,3.0.4,59.98220456191155,
neputized,&&&&&&&&&,right,nonword,,,,,,,,0,78,78,127,,,,,,,,,,,,,,,,,,,,,LDT,left,0.6004042528220452,0,,,left,0,0.6004042528220452,,,,,,,,,,,,,,,,,,,,,,1052,2019_Mar_13_1146,mf_amp_cond2,3.0.4,59.98220456191155,
disregord,&&&&&&&&&,right,nonword,,,,,,,,0,79,79,27,,,,,,,,,,,,,,,,,,,,,LDT,right,0.6004353639727924,1,,,right,1,0.6004353639727924,,,,,,,,,,,,,,,,,,,,,,1052,2019_Mar_13_1146,mf_amp_cond2,3.0.4,59.98220456191155,
peace,&&&&&,left,care.virtue,,,,,,,,0,80,80,6,,,,,,,,,,,,,,,,,,,,,LDT,right,0.6504175472073257,0,,,right,0,0.6504175472073257,,,,,,,,,,,,,,,,,,,,,,1052,2019_Mar_13_1146,mf_amp_cond2,3.0.4,59.98220456191155,
done,&&&&,left,neutral,,,,,,,,0,81,81,86,,,,,,,,,,,,,,,,,,,,,LDT,right,0.9504985966195818,0,,,right,0,0.9504985966195818,,,,,,,,,,,,,,,,,,,,,,1052,2019_Mar_13_1146,mf_amp_cond2,3.0.4,59.98220456191155,
black,&&&&&,left,loyalty.vice,,,,,,,,0,82,82,149,,,,,,,,,,,,,,,,,,,,,LDT,right,0.6837600642465986,0,,,right,0,0.6837600642465986,,,,,,,,,,,,,,,,,,,,,,1052,2019_Mar_13_1146,mf_amp_cond2,3.0.4,59.98220456191155,
greaks,&&&&&&,right,nonword,,,,,,,,0,83,83,71,,,,,,,,,,,,,,,,,,,,,LDT,right,0.6670915319700725,1,,,right,1,0.6670915319700725,,,,,,,,,,,,,,,,,,,,,,1052,2019_Mar_13_1146,mf_amp_cond2,3.0.4,59.98220456191155,
festate,&&&&&&&,right,nonword,,,,,,,,0,84,84,132,,,,,,,,,,,,,,,,,,,,,LDT,right,0.667084475804586,1,,,right,1,0.667084475804586,,,,,,,,,,,,,,,,,,,,,,1052,2019_Mar_13_1146,mf_amp_cond2,3.0.4,59.98220456191155,
else,&&&&,left,neutral,,,,,,,,0,85,85,141,,,,,,,,,,,,,,,,,,,,,LDT,right,0.6504146606021095,0,,,right,0,0.6504146606021095,,,,,,,,,,,,,,,,,,,,,,1052,2019_Mar_13_1146,mf_amp_cond2,3.0.4,59.98220456191155,
toward,&&&&&&,left,neutral,,,,,,,,0,86,86,186,,,,,,,,,,,,,,,,,,,,,LDT,right,0.6004010454635136,0,,,right,0,0.6004010454635136,,,,,,,,,,,,,,,,,,,,,,1052,2019_Mar_13_1146,mf_amp_cond2,3.0.4,59.98220456191155,
thru,&&&&,left,neutral,,,,,,,,0,87,87,14,,,,,,,,,,,,,,,,,,,,,LDT,right,0.5503957693872508,0,,,right,0,0.5503957693872508,,,,,,,,,,,,,,,,,,,,,,1052,2019_Mar_13_1146,mf_amp_cond2,3.0.4,59.98220456191155,
juck,&&&&,right,nonword,,,,,,,,0,88,88,15,,,,,,,,,,,,,,,,,,,,,LDT,left,1.1838949327648152,0,,,left,0,1.1838949327648152,,,,,,,,,,,,,,,,,,,,,,1052,2019_Mar_13_1146,mf_amp_cond2,3.0.4,59.98220456191155,
myself,&&&&&&,left,neutral,,,,,,,,0,89,89,49,,,,,,,,,,,,,,,,,,,,,LDT,left,0.8338082865520846,1,,,left,1,0.8338082865520846,,,,,,,,,,,,,,,,,,,,,,1052,2019_Mar_13_1146,mf_amp_cond2,3.0.4,59.98220456191155,
accused,&&&&&&&,left,fairness.vice,,,,,,,,0,90,90,99,,,,,,,,,,,,,,,,,,,,,LDT,right,1.3672946526203305,0,,,right,0,1.3672946526203305,,,,,,,,,,,,,,,,,,,,,,1052,2019_Mar_13_1146,mf_amp_cond2,3.0.4,59.98220456191155,
hefurbished,&&&&&&&&&&&,right,nonword,,,,,,,,0,91,91,58,,,,,,,,,,,,,,,,,,,,,LDT,left,0.5503935242595617,0,,,left,0,0.5503935242595617,,,,,,,,,,,,,,,,,,,,,,1052,2019_Mar_13_1146,mf_amp_cond2,3.0.4,59.98220456191155,
integrity,&&&&&&&&&,left,fairness.virtue,,,,,,,,0,92,92,40,,,,,,,,,,,,,,,,,,,,,LDT,right,0.5503903169301338,0,,,right,0,0.5503903169301338,,,,,,,,,,,,,,,,,,,,,,1052,2019_Mar_13_1146,mf_amp_cond2,3.0.4,59.98220456191155,
suggists,&&&&&&&&,right,nonword,,,,,,,,0,93,93,95,,,,,,,,,,,,,,,,,,,,,LDT,right,0.7171160520520061,1,,,right,1,0.7171160520520061,,,,,,,,,,,,,,,,,,,,,,1052,2019_Mar_13_1146,mf_amp_cond2,3.0.4,59.98220456191155,
forty,&&&&&,left,neutral,,,,,,,,0,94,94,28,,,,,,,,,,,,,,,,,,,,,LDT,left,0.9171788517269306,1,,,left,1,0.9171788517269306,,,,,,,,,,,,,,,,,,,,,,1052,2019_Mar_13_1146,mf_amp_cond2,3.0.4,59.98220456191155,
clamorek,&&&&&&&&,right,nonword,,,,,,,,0,95,95,156,,,,,,,,,,,,,,,,,,,,,LDT,left,0.8171381506253965,0,,,left,0,0.8171381506253965,,,,,,,,,,,,,,,,,,,,,,1052,2019_Mar_13_1146,mf_amp_cond2,3.0.4,59.98220456191155,
war,&&&,left,sanctity.vice,,,,,,,,0,96,96,180,,,,,,,,,,,,,,,,,,,,,LDT,left,0.5335796996077988,1,,,left,1,0.5335796996077988,,,,,,,,,,,,,,,,,,,,,,1052,2019_Mar_13_1146,mf_amp_cond2,3.0.4,59.98220456191155,
elsewhere,&&&&&&&&&,left,neutral,,,,,,,,0,97,97,167,,,,,,,,,,,,,,,,,,,,,LDT,right,0.517043951083906,0,,,right,0,0.517043951083906,,,,,,,,,,,,,,,,,,,,,,1052,2019_Mar_13_1146,mf_amp_cond2,3.0.4,59.98220456191155,
everything,&&&&&&&&&&,left,neutral,,,,,,,,0,98,98,175,,,,,,,,,,,,,,,,,,,,,LDT,right,0.4002413841953967,0,,,right,0,0.4002413841953967,,,,,,,,,,,,,,,,,,,,,,1052,2019_Mar_13_1146,mf_amp_cond2,3.0.4,59.98220456191155,
there,&&&&&,left,neutral,,,,,,,,0,99,99,164,,,,,,,,,,,,,,,,,,,,,LDT,left,0.8337967401312198,1,,,left,1,0.8337967401312198,,,,,,,,,,,,,,,,,,,,,,1052,2019_Mar_13_1146,mf_amp_cond2,3.0.4,59.98220456191155,
towards,&&&&&&&,left,neutral,,,,,,,,0,100,100,152,,,,,,,,,,,,,,,,,,,,,LDT,right,1.0838891916209832,0,,,right,0,1.0838891916209832,,,,,,,,,,,,,,,,,,,,,,1052,2019_Mar_13_1146,mf_amp_cond2,3.0.4,59.98220456191155,
charges,&&&&&&&,left,fairness.vice,,,,,,,,0,101,101,101,,,,,,,,,,,,,,,,,,,,,LDT,right,0.6670989088306669,0,,,right,0,0.6670989088306669,,,,,,,,,,,,,,,,,,,,,,1052,2019_Mar_13_1146,mf_amp_cond2,3.0.4,59.98220456191155,
nonobservalt,&&&&&&&&&&&&,right,nonword,,,,,,,,0,102,102,24,,,,,,,,,,,,,,,,,,,,,LDT,right,0.4670232798089273,1,,,right,1,0.4670232798089273,,,,,,,,,,,,,,,,,,,,,,1052,2019_Mar_13_1146,mf_amp_cond2,3.0.4,59.98220456191155,
fontacts,&&&&&&&&,right,nonword,,,,,,,,0,103,103,26,,,,,,,,,,,,,,,,,,,,,LDT,right,0.5002339752682019,1,,,right,1,0.5002339752682019,,,,,,,,,,,,,,,,,,,,,,1052,2019_Mar_13_1146,mf_amp_cond2,3.0.4,59.98220456191155,
seem,&&&&,left,neutral,,,,,,,,0,104,104,82,,,,,,,,,,,,,,,,,,,,,LDT,right,1.0005240789032541,0,,,right,0,1.0005240789032541,,,,,,,,,,,,,,,,,,,,,,1052,2019_Mar_13_1146,mf_amp_cond2,3.0.4,59.98220456191155,
ittutable,&&&&&&&&&,right,nonword,,,,,,,,0,105,105,133,,,,,,,,,,,,,,,,,,,,,LDT,left,0.46698928202386014,0,,,left,0,0.46698928202386014,,,,,,,,,,,,,,,,,,,,,,1052,2019_Mar_13_1146,mf_amp_cond2,3.0.4,59.98220456191155,
stindig,&&&&&&&,right,nonword,,,,,,,,0,106,106,1,,,,,,,,,,,,,,,,,,,,,LDT,left,0.450360200018622,0,,,left,0,0.450360200018622,,,,,,,,,,,,,,,,,,,,,,1052,2019_Mar_13_1146,mf_amp_cond2,3.0.4,59.98220456191155,
safety,&&&&&&,left,care.virtue,,,,,,,,0,107,107,62,,,,,,,,,,,,,,,,,,,,,LDT,left,0.8671572182211094,1,,,left,1,0.8671572182211094,,,,,,,,,,,,,,,,,,,,,,1052,2019_Mar_13_1146,mf_amp_cond2,3.0.4,59.98220456191155,
mostly,&&&&&&,left,neutral,,,,,,,,0,108,108,63,,,,,,,,,,,,,,,,,,,,,LDT,left,0.967173864308279,1,,,left,1,0.967173864308279,,,,,,,,,,,,,,,,,,,,,,1052,2019_Mar_13_1146,mf_amp_cond2,3.0.4,59.98220456191155,
been,&&&&,left,neutral,,,,,,,,0,109,109,106,,,,,,,,,,,,,,,,,,,,,LDT,right,1.1005529128888156,0,,,right,0,1.1005529128888156,,,,,,,,,,,,,,,,,,,,,,1052,2019_Mar_13_1146,mf_amp_cond2,3.0.4,59.98220456191155,
slending,&&&&&&&&,right,nonword,,,,,,,,0,110,110,144,,,,,,,,,,,,,,,,,,,,,LDT,left,0.7837860115687363,0,,,left,0,0.7837860115687363,,,,,,,,,,,,,,,,,,,,,,1052,2019_Mar_13_1146,mf_amp_cond2,3.0.4,59.98220456191155,
feleological,&&&&&&&&&&&&,right,nonword,,,,,,,,0,111,111,44,,,,,,,,,,,,,,,,,,,,,LDT,left,0.5503627338039223,0,,,left,0,0.5503627338039223,,,,,,,,,,,,,,,,,,,,,,1052,2019_Mar_13_1146,mf_amp_cond2,3.0.4,59.98220456191155,
ability,&&&&&&&,left,authority.virtue,,,,,,,,0,112,112,183,,,,,,,,,,,,,,,,,,,,,LDT,left,0.6504175472073257,1,,,left,1,0.6504175472073257,,,,,,,,,,,,,,,,,,,,,,1052,2019_Mar_13_1146,mf_amp_cond2,3.0.4,59.98220456191155,
ebbitter,&&&&&&&&,right,nonword,,,,,,,,0,113,113,75,,,,,,,,,,,,,,,,,,,,,LDT,left,0.6670953807479236,0,,,left,0,0.6670953807479236,,,,,,,,,,,,,,,,,,,,,,1052,2019_Mar_13_1146,mf_amp_cond2,3.0.4,59.98220456191155,
tenuflect,&&&&&&&&&,right,nonword,,,,,,,,0,114,114,92,,,,,,,,,,,,,,,,,,,,,LDT,left,0.5170596670650411,0,,,left,0,0.5170596670650411,,,,,,,,,,,,,,,,,,,,,,1052,2019_Mar_13_1146,mf_amp_cond2,3.0.4,59.98220456191155,
alar,&&&&,right,nonword,,,,,,,,0,115,115,85,,,,,,,,,,,,,,,,,,,,,LDT,left,0.5169121295621153,0,,,left,0,0.5169121295621153,,,,,,,,,,,,,,,,,,,,,,1052,2019_Mar_13_1146,mf_amp_cond2,3.0.4,59.98220456191155,
party,&&&&&,left,loyalty.virtue,,,,,,,,0,116,116,185,,,,,,,,,,,,,,,,,,,,,LDT,right,0.4670139785448555,0,,,right,0,0.4670139785448555,,,,,,,,,,,,,,,,,,,,,,1052,2019_Mar_13_1146,mf_amp_cond2,3.0.4,59.98220456191155,
wonderfujnoss,&&&&&&&&&&&&&,right,nonword,,,,,,,,0,117,117,172,,,,,,,,,,,,,,,,,,,,,LDT,right,0.7504505507240538,1,,,right,1,0.7504505507240538,,,,,,,,,,,,,,,,,,,,,,1052,2019_Mar_13_1146,mf_amp_cond2,3.0.4,59.98220456191155,
pistraught,&&&&&&&&&&,right,nonword,,,,,,,,0,118,118,131,,,,,,,,,,,,,,,,,,,,,LDT,right,1.067201736062998,1,,,right,1,1.067201736062998,,,,,,,,,,,,,,,,,,,,,,1052,2019_Mar_13_1146,mf_amp_cond2,3.0.4,59.98220456191155,
agreement,&&&&&&&&&,left,fairness.virtue,,,,,,,,0,119,119,113,,,,,,,,,,,,,,,,,,,,,LDT,right,0.6504297351057176,0,,,right,0,0.6504297351057176,,,,,,,,,,,,,,,,,,,,,,1052,2019_Mar_13_1146,mf_amp_cond2,3.0.4,59.98220456191155,
gazily,&&&&&&,right,nonword,,,,,,,,0,120,120,59,,,,,,,,,,,,,,,,,,,,,LDT,right,0.9171589662146289,1,,,right,1,0.9171589662146289,,,,,,,,,,,,,,,,,,,,,,1052,2019_Mar_13_1146,mf_amp_cond2,3.0.4,59.98220456191155,
clattening,&&&&&&&&&&,right,nonword,,,,,,,,0,121,121,147,,,,,,,,,,,,,,,,,,,,,LDT,right,0.5670338319323491,1,,,right,1,0.5670338319323491,,,,,,,,,,,,,,,,,,,,,,1052,2019_Mar_13_1146,mf_amp_cond2,3.0.4,59.98220456191155,
less,&&&&,left,neutral,,,,,,,,0,122,122,122,,,,,,,,,,,,,,,,,,,,,LDT,right,0.7170980909722857,0,,,right,0,0.7170980909722857,,,,,,,,,,,,,,,,,,,,,,1052,2019_Mar_13_1146,mf_amp_cond2,3.0.4,59.98220456191155,
perified,&&&&&&&&,right,nonword,,,,,,,,0,123,123,19,,,,,,,,,,,,,,,,,,,,,LDT,left,0.5503915998560842,0,,,left,0,0.5503915998560842,,,,,,,,,,,,,,,,,,,,,,1052,2019_Mar_13_1146,mf_amp_cond2,3.0.4,59.98220456191155,
hereby,&&&&&&,left,neutral,,,,,,,,0,124,124,83,,,,,,,,,,,,,,,,,,,,,LDT,left,0.600402969866991,1,,,left,1,0.600402969866991,,,,,,,,,,,,,,,,,,,,,,1052,2019_Mar_13_1146,mf_amp_cond2,3.0.4,59.98220456191155,
with,&&&&,left,neutral,,,,,,,,0,125,125,145,,,,,,,,,,,,,,,,,,,,,LDT,left,0.5837318717094604,1,,,left,1,0.5837318717094604,,,,,,,,,,,,,,,,,,,,,,1052,2019_Mar_13_1146,mf_amp_cond2,3.0.4,59.98220456191155,
further,&&&&&&&,left,neutral,,,,,,,,0,126,126,115,,,,,,,,,,,,,,,,,,,,,LDT,left,1.117214389028959,1,,,left,1,1.117214389028959,,,,,,,,,,,,,,,,,,,,,,1052,2019_Mar_13_1146,mf_amp_cond2,3.0.4,59.98220456191155,
victim,&&&&&&,left,care.vice,,,,,,,,0,127,127,11,,,,,,,,,,,,,,,,,,,,,LDT,right,0.6170233920856845,0,,,right,0,0.6170233920856845,,,,,,,,,,,,,,,,,,,,,,1052,2019_Mar_13_1146,mf_amp_cond2,3.0.4,59.98220456191155,
asn,&&&,right,nonword,,,,,,,,0,128,128,158,,,,,,,,,,,,,,,,,,,,,LDT,left,0.6670847965287976,0,,,left,0,0.6670847965287976,,,,,,,,,,,,,,,,,,,,,,1052,2019_Mar_13_1146,mf_amp_cond2,3.0.4,59.98220456191155,
unreflectuve,&&&&&&&&&&&&,right,nonword,,,,,,,,0,129,129,96,,,,,,,,,,,,,,,,,,,,,LDT,right,0.5670575662807096,1,,,right,1,0.5670575662807096,,,,,,,,,,,,,,,,,,,,,,1052,2019_Mar_13_1146,mf_amp_cond2,3.0.4,59.98220456191155,
forced,&&&&&&,left,fairness.vice,,,,,,,,0,130,130,121,,,,,,,,,,,,,,,,,,,,,LDT,right,0.95050597350928,0,,,right,0,0.95050597350928,,,,,,,,,,,,,,,,,,,,,,1052,2019_Mar_13_1146,mf_amp_cond2,3.0.4,59.98220456191155,
menizen,&&&&&&&,None,nonword,,,,,,,,0,131,131,105,,,,,,,,,,,,,,,,,,,,,LDT,right,0.6170721435919404,0,,,right,0,0.6170721435919404,,,,,,,,,,,,,,,,,,,,,,1052,2019_Mar_13_1146,mf_amp_cond2,3.0.4,59.98220456191155,
latter,&&&&&&,left,neutral,,,,,,,,0,132,132,174,,,,,,,,,,,,,,,,,,,,,LDT,right,0.5170487621217035,0,,,right,0,0.5170487621217035,,,,,,,,,,,,,,,,,,,,,,1052,2019_Mar_13_1146,mf_amp_cond2,3.0.4,59.98220456191155,
perfect,&&&&&&&,left,sanctity.virtue,,,,,,,,0,133,133,37,,,,,,,,,,,,,,,,,,,,,LDT,left,0.5837325132160913,1,,,left,1,0.5837325132160913,,,,,,,,,,,,,,,,,,,,,,1052,2019_Mar_13_1146,mf_amp_cond2,3.0.4,59.98220456191155,
seachwear,&&&&&&&&&,right,nonword,,,,,,,,0,134,134,166,,,,,,,,,,,,,,,,,,,,,LDT,left,0.6170679740607738,0,,,left,0,0.6170679740607738,,,,,,,,,,,,,,,,,,,,,,1052,2019_Mar_13_1146,mf_amp_cond2,3.0.4,59.98220456191155,
ammessment,&&&&&&&&&&,right,nonword,,,,,,,,0,135,135,12,,,,,,,,,,,,,,,,,,,,,LDT,right,0.6337438832269982,1,,,right,1,0.6337438832269982,,,,,,,,,,,,,,,,,,,,,,1052,2019_Mar_13_1146,mf_amp_cond2,3.0.4,59.98220456191155,
either,&&&&&&,left,neutral,,,,,,,,0,136,136,107,,,,,,,,,,,,,,,,,,,,,LDT,right,0.3670136898581404,0,,,right,0,0.3670136898581404,,,,,,,,,,,,,,,,,,,,,,1052,2019_Mar_13_1146,mf_amp_cond2,3.0.4,59.98220456191155,
vicissifude,&&&&&&&&&&&,right,nonword,,,,,,,,0,137,137,87,,,,,,,,,,,,,,,,,,,,,LDT,right,0.4170096646703314,1,,,right,1,0.4170096646703314,,,,,,,,,,,,,,,,,,,,,,1052,2019_Mar_13_1146,mf_amp_cond2,3.0.4,59.98220456191155,
fornicalion,&&&&&&&&&&&,right,nonword,,,,,,,,0,138,138,34,,,,,,,,,,,,,,,,,,,,,LDT,left,0.58373347541783,0,,,left,0,0.58373347541783,,,,,,,,,,,,,,,,,,,,,,1052,2019_Mar_13_1146,mf_amp_cond2,3.0.4,59.98220456191155,
amoungst,&&&&&&&&,left,neutral,,,,,,,,0,139,139,123,,,,,,,,,,,,,,,,,,,,,LDT,left,0.4670348262297921,1,,,left,1,0.4670348262297921,,,,,,,,,,,,,,,,,,,,,,1052,2019_Mar_13_1146,mf_amp_cond2,3.0.4,59.98220456191155,
ronviolence,&&&&&&&&&&&,right,nonword,,,,,,,,0,140,140,100,,,,,,,,,,,,,,,,,,,,,LDT,right,0.4003388872661162,1,,,right,1,0.4003388872661162,,,,,,,,,,,,,,,,,,,,,,1052,2019_Mar_13_1146,mf_amp_cond2,3.0.4,59.98220456191155,
spag,&&&&,None,nonword,,,,,,,,0,141,141,32,,,,,,,,,,,,,,,,,,,,,LDT,right,0.43367691402090713,0,,,right,0,0.43367691402090713,,,,,,,,,,,,,,,,,,,,,,1052,2019_Mar_13_1146,mf_amp_cond2,3.0.4,59.98220456191155,
precificity,&&&&&&&&&&&,right,nonword,,,,,,,,0,142,142,36,,,,,,,,,,,,,,,,,,,,,LDT,right,0.667101153958356,1,,,right,1,0.667101153958356,,,,,,,,,,,,,,,,,,,,,,1052,2019_Mar_13_1146,mf_amp_cond2,3.0.4,59.98220456191155,
whither,&&&&&&&,left,neutral,,,,,,,,0,143,143,179,,,,,,,,,,,,,,,,,,,,,LDT,right,0.38367644892423414,0,,,right,0,0.38367644892423414,,,,,,,,,,,,,,,,,,,,,,1052,2019_Mar_13_1146,mf_amp_cond2,3.0.4,59.98220456191155,
squets,&&&&&&,right,nonword,,,,,,,,0,144,144,199,,,,,,,,,,,,,,,,,,,,,LDT,right,0.5504015425976831,1,,,right,1,0.5504015425976831,,,,,,,,,,,,,,,,,,,,,,1052,2019_Mar_13_1146,mf_amp_cond2,3.0.4,59.98220456191155,
promised,&&&&&&&&,left,loyalty.virtue,,,,,,,,0,145,145,191,,,,,,,,,,,,,,,,,,,,,LDT,right,0.7837914640840609,0,,,right,0,0.7837914640840609,,,,,,,,,,,,,,,,,,,,,,1052,2019_Mar_13_1146,mf_amp_cond2,3.0.4,59.98220456191155,
bycled,&&&&&&,None,nonword,,,,,,,,0,146,146,18,,,,,,,,,,,,,,,,,,,,,LDT,right,0.6337044329557102,0,,,right,0,0.6337044329557102,,,,,,,,,,,,,,,,,,,,,,1052,2019_Mar_13_1146,mf_amp_cond2,3.0.4,59.98220456191155,
elduringly,&&&&&&&&&&,right,nonword,,,,,,,,0,147,147,13,,,,,,,,,,,,,,,,,,,,,LDT,right,0.9838962798239663,1,,,right,1,0.9838962798239663,,,,,,,,,,,,,,,,,,,,,,1052,2019_Mar_13_1146,mf_amp_cond2,3.0.4,59.98220456191155,
torture,&&&&&&&,left,care.vice,,,,,,,,0,148,148,17,,,,,,,,,,,,,,,,,,,,,LDT,right,0.5003741359105334,0,,,right,0,0.5003741359105334,,,,,,,,,,,,,,,,,,,,,,1052,2019_Mar_13_1146,mf_amp_cond2,3.0.4,59.98220456191155,
presentkess,&&&&&&&&&&&,right,nonword,,,,,,,,0,149,149,195,,,,,,,,,,,,,,,,,,,,,LDT,right,0.36699444585246965,1,,,right,1,0.36699444585246965,,,,,,,,,,,,,,,,,,,,,,1052,2019_Mar_13_1146,mf_amp_cond2,3.0.4,59.98220456191155,
praise,&&&&&&,left,authority.virtue,,,,,,,,0,150,150,109,,,,,,,,,,,,,,,,,,,,,LDT,right,0.46702103468123823,0,,,right,0,0.46702103468123823,,,,,,,,,,,,,,,,,,,,,,1052,2019_Mar_13_1146,mf_amp_cond2,3.0.4,59.98220456191155,
noone,&&&&&,left,neutral,,,,,,,,0,151,151,119,,,,,,,,,,,,,,,,,,,,,LDT,left,0.4503608414961491,1,,,left,1,0.4503608414961491,,,,,,,,,,,,,,,,,,,,,,1052,2019_Mar_13_1146,mf_amp_cond2,3.0.4,59.98220456191155,
whereafter,&&&&&&&&&&,left,neutral,,,,,,,,0,152,152,110,,,,,,,,,,,,,,,,,,,,,LDT,left,0.4002170084568206,1,,,left,1,0.4002170084568206,,,,,,,,,,,,,,,,,,,,,,1052,2019_Mar_13_1146,mf_amp_cond2,3.0.4,59.98220456191155,
hence,&&&&&,left,neutral,,,,,,,,0,153,153,138,,,,,,,,,,,,,,,,,,,,,LDT,left,0.45034961579949595,1,,,left,1,0.45034961579949595,,,,,,,,,,,,,,,,,,,,,,1052,2019_Mar_13_1146,mf_amp_cond2,3.0.4,59.98220456191155,
drug,&&&&,left,sanctity.vice,,,,,,,,0,154,154,118,,,,,,,,,,,,,,,,,,,,,LDT,left,0.6337618443067186,1,,,left,1,0.6337618443067186,,,,,,,,,,,,,,,,,,,,,,1052,2019_Mar_13_1146,mf_amp_cond2,3.0.4,59.98220456191155,
gedious,&&&&&&&,right,nonword,,,,,,,,0,155,155,148,,,,,,,,,,,,,,,,,,,,,LDT,left,0.617079199757427,0,,,left,0,0.617079199757427,,,,,,,,,,,,,,,,,,,,,,1052,2019_Mar_13_1146,mf_amp_cond2,3.0.4,59.98220456191155,
scock,&&&&&,right,nonword,,,,,,,,0,156,156,169,,,,,,,,,,,,,,,,,,,,,LDT,left,0.4003408116695937,0,,,left,0,0.4003408116695937,,,,,,,,,,,,,,,,,,,,,,1052,2019_Mar_13_1146,mf_amp_cond2,3.0.4,59.98220456191155,
each,&&&&,left,neutral,,,,,,,,0,157,157,129,,,,,,,,,,,,,,,,,,,,,LDT,left,0.5837418144801632,1,,,left,1,0.5837418144801632,,,,,,,,,,,,,,,,,,,,,,1052,2019_Mar_13_1146,mf_amp_cond2,3.0.4,59.98220456191155,
help,&&&&,left,care.virtue,,,,,,,,0,158,158,68,,,,,,,,,,,,,,,,,,,,,LDT,left,0.7004372562805656,1,,,left,1,0.7004372562805656,,,,,,,,,,,,,,,,,,,,,,1052,2019_Mar_13_1146,mf_amp_cond2,3.0.4,59.98220456191155,
besides,&&&&&&&,left,neutral,,,,,,,,0,159,159,157,,,,,,,,,,,,,,,,,,,,,LDT,left,0.6004263834038284,1,,,left,1,0.6004263834038284,,,,,,,,,,,,,,,,,,,,,,1052,2019_Mar_13_1146,mf_amp_cond2,3.0.4,59.98220456191155,
fifty,&&&&&,left,neutral,,,,,,,,0,160,160,198,,,,,,,,,,,,,,,,,,,,,LDT,left,0.6336027603538241,1,,,left,1,0.6336027603538241,,,,,,,,,,,,,,,,,,,,,,1052,2019_Mar_13_1146,mf_amp_cond2,3.0.4,59.98220456191155,
fifteen,&&&&&&&,left,neutral,,,,,,,,0,161,161,103,,,,,,,,,,,,,,,,,,,,,LDT,left,0.4170289086760022,1,,,left,1,0.4170289086760022,,,,,,,,,,,,,,,,,,,,,,1052,2019_Mar_13_1146,mf_amp_cond2,3.0.4,59.98220456191155,
fegard,&&&&&&,right,nonword,,,,,,,,0,162,162,190,,,,,,,,,,,,,,,,,,,,,LDT,left,0.3670576304139104,0,,,left,0,0.3670576304139104,,,,,,,,,,,,,,,,,,,,,,1052,2019_Mar_13_1146,mf_amp_cond2,3.0.4,59.98220456191155,
ning,&&&&,right,nonword,,,,,,,,0,163,163,155,,,,,,,,,,,,,,,,,,,,,LDT,left,0.3669998983386904,0,,,left,0,0.3669998983386904,,,,,,,,,,,,,,,,,,,,,,1052,2019_Mar_13_1146,mf_amp_cond2,3.0.4,59.98220456191155,
support,&&&&&&&,left,loyalty.virtue,,,,,,,,0,164,164,193,,,,,,,,,,,,,,,,,,,,,LDT,left,0.8338060413952917,1,,,left,1,0.8338060413952917,,,,,,,,,,,,,,,,,,,,,,1052,2019_Mar_13_1146,mf_amp_cond2,3.0.4,59.98220456191155,
front,&&&&&,left,neutral,,,,,,,,0,165,165,43,,,,,,,,,,,,,,,,,,,,,LDT,left,0.4003462641558144,1,,,left,1,0.4003462641558144,,,,,,,,,,,,,,,,,,,,,,1052,2019_Mar_13_1146,mf_amp_cond2,3.0.4,59.98220456191155,
nomaric,&&&&&&&,None,nonword,,,,,,,,0,166,166,9,,,,,,,,,,,,,,,,,,,,,LDT,left,0.3836687513394281,0,,,left,0,0.3836687513394281,,,,,,,,,,,,,,,,,,,,,,1052,2019_Mar_13_1146,mf_amp_cond2,3.0.4,59.98220456191155,
grovelire,&&&&&&&&&,right,nonword,,,,,,,,0,167,167,162,,,,,,,,,,,,,,,,,,,,,LDT,left,0.33365802277694456,0,,,left,0,0.33365802277694456,,,,,,,,,,,,,,,,,,,,,,1052,2019_Mar_13_1146,mf_amp_cond2,3.0.4,59.98220456191155,
protect,&&&&&&&,left,fairness.virtue,,,,,,,,0,168,168,91,,,,,,,,,,,,,,,,,,,,,LDT,left,0.5503842229954898,1,,,left,1,0.5503842229954898,,,,,,,,,,,,,,,,,,,,,,1052,2019_Mar_13_1146,mf_amp_cond2,3.0.4,59.98220456191155,
embrace,&&&&&&&,left,authority.virtue,,,,,,,,0,169,169,187,,,,,,,,,,,,,,,,,,,,,LDT,right,0.35030506589100696,0,,,right,0,0.35030506589100696,,,,,,,,,,,,,,,,,,,,,,1052,2019_Mar_13_1146,mf_amp_cond2,3.0.4,59.98220456191155,
glacenta,&&&&&&&&,right,nonword,,,,,,,,0,170,170,78,,,,,,,,,,,,,,,,,,,,,LDT,right,0.40035556541988626,1,,,right,1,0.40035556541988626,,,,,,,,,,,,,,,,,,,,,,1052,2019_Mar_13_1146,mf_amp_cond2,3.0.4,59.98220456191155,
scandal,&&&&&&&,left,sanctity.vice,,,,,,,,0,171,171,39,,,,,,,,,,,,,,,,,,,,,LDT,right,0.5003709285520017,0,,,right,0,0.5003709285520017,,,,,,,,,,,,,,,,,,,,,,1052,2019_Mar_13_1146,mf_amp_cond2,3.0.4,59.98220456191155,
neneficence,&&&&&&&&&&&,right,nonword,,,,,,,,0,172,172,31,,,,,,,,,,,,,,,,,,,,,LDT,right,0.8004574304504786,1,,,right,1,0.8004574304504786,,,,,,,,,,,,,,,,,,,,,,1052,2019_Mar_13_1146,mf_amp_cond2,3.0.4,59.98220456191155,
even,&&&&,left,neutral,,,,,,,,0,173,173,116,,,,,,,,,,,,,,,,,,,,,LDT,right,0.5170420267095324,0,,,right,0,0.5170420267095324,,,,,,,,,,,,,,,,,,,,,,1052,2019_Mar_13_1146,mf_amp_cond2,3.0.4,59.98220456191155,
emassion,&&&&&&&&,right,nonword,,,,,,,,0,174,174,56,,,,,,,,,,,,,,,,,,,,,LDT,right,0.40035299956798553,1,,,right,1,0.40035299956798553,,,,,,,,,,,,,,,,,,,,,,1052,2019_Mar_13_1146,mf_amp_cond2,3.0.4,59.98220456191155,
baklara,&&&&&&&,right,nonword,,,,,,,,0,175,175,35,,,,,,,,,,,,,,,,,,,,,LDT,left,0.5003763810382225,0,,,left,0,0.5003763810382225,,,,,,,,,,,,,,,,,,,,,,1052,2019_Mar_13_1146,mf_amp_cond2,3.0.4,59.98220456191155,
failure,&&&&&&&,left,loyalty.vice,,,,,,,,0,176,176,181,,,,,,,,,,,,,,,,,,,,,LDT,right,0.55039320353535,0,,,right,0,0.55039320353535,,,,,,,,,,,,,,,,,,,,,,1052,2019_Mar_13_1146,mf_amp_cond2,3.0.4,59.98220456191155,
lachelor,&&&&&&&&,right,nonword,,,,,,,,0,177,177,161,,,,,,,,,,,,,,,,,,,,,LDT,left,0.5670575662516057,0,,,left,0,0.5670575662516057,,,,,,,,,,,,,,,,,,,,,,1052,2019_Mar_13_1146,mf_amp_cond2,3.0.4,59.98220456191155,
prones,&&&&&&,right,nonword,,,,,,,,0,178,178,25,,,,,,,,,,,,,,,,,,,,,LDT,right,0.5336271681881044,1,,,right,1,0.5336271681881044,,,,,,,,,,,,,,,,,,,,,,1052,2019_Mar_13_1146,mf_amp_cond2,3.0.4,59.98220456191155,
give,&&&&,left,neutral,,,,,,,,0,179,179,182,,,,,,,,,,,,,,,,,,,,,LDT,left,0.40034369827480987,1,,,left,1,0.40034369827480987,,,,,,,,,,,,,,,,,,,,,,1052,2019_Mar_13_1146,mf_amp_cond2,3.0.4,59.98220456191155,
papert,&&&&&&,right,nonword,,,,,,,,0,180,180,171,,,,,,,,,,,,,,,,,,,,,LDT,right,0.3503223855223041,1,,,right,1,0.3503223855223041,,,,,,,,,,,,,,,,,,,,,,1052,2019_Mar_13_1146,mf_amp_cond2,3.0.4,59.98220456191155,
could,&&&&&,left,neutral,,,,,,,,0,181,181,48,,,,,,,,,,,,,,,,,,,,,LDT,right,0.4003462641267106,0,,,right,0,0.4003462641267106,,,,,,,,,,,,,,,,,,,,,,1052,2019_Mar_13_1146,mf_amp_cond2,3.0.4,59.98220456191155,
become,&&&&&&,left,neutral,,,,,,,,0,182,182,53,,,,,,,,,,,,,,,,,,,,,LDT,right,0.3836671476601623,0,,,right,0,0.3836671476601623,,,,,,,,,,,,,,,,,,,,,,1052,2019_Mar_13_1146,mf_amp_cond2,3.0.4,59.98220456191155,
police,&&&&&&,left,authority.vice,,,,,,,,0,183,183,77,,,,,,,,,,,,,,,,,,,,,LDT,left,0.30032961803954095,1,,,left,1,0.30032961803954095,,,,,,,,,,,,,,,,,,,,,,1052,2019_Mar_13_1146,mf_amp_cond2,3.0.4,59.98220456191155,
civilians,&&&&&&&&&,left,care.vice,,,,,,,,0,184,184,142,,,,,,,,,,,,,,,,,,,,,LDT,right,0.26698678033426404,0,,,right,0,0.26698678033426404,,,,,,,,,,,,,,,,,,,,,,1052,2019_Mar_13_1146,mf_amp_cond2,3.0.4,59.98220456191155,
framo,&&&&&,right,nonword,,,,,,,,0,185,185,54,,,,,,,,,,,,,,,,,,,,,LDT,left,0.3503579869866371,0,,,left,0,0.3503579869866371,,,,,,,,,,,,,,,,,,,,,,1052,2019_Mar_13_1146,mf_amp_cond2,3.0.4,59.98220456191155,
sidearbs,&&&&&&&&,right,nonword,,,,,,,,0,186,186,5,,,,,,,,,,,,,,,,,,,,,LDT,right,0.6004048942704685,1,,,right,1,0.6004048942704685,,,,,,,,,,,,,,,,,,,,,,1052,2019_Mar_13_1146,mf_amp_cond2,3.0.4,59.98220456191155,
ensure,&&&&&&,left,fairness.virtue,,,,,,,,0,187,187,55,,,,,,,,,,,,,,,,,,,,,LDT,right,0.38367805260349996,0,,,right,0,0.38367805260349996,,,,,,,,,,,,,,,,,,,,,,1052,2019_Mar_13_1146,mf_amp_cond2,3.0.4,59.98220456191155,
somehow,&&&&&&&,left,neutral,,,,,,,,0,188,188,0,,,,,,,,,,,,,,,,,,,,,LDT,right,0.7004449539235793,0,,,right,0,0.7004449539235793,,,,,,,,,,,,,,,,,,,,,,1052,2019_Mar_13_1146,mf_amp_cond2,3.0.4,59.98220456191155,
latterly,&&&&&&&&,left,neutral,,,,,,,,0,189,189,143,,,,,,,,,,,,,,,,,,,,,LDT,right,0.3503682504524477,0,,,right,0,0.3503682504524477,,,,,,,,,,,,,,,,,,,,,,1052,2019_Mar_13_1146,mf_amp_cond2,3.0.4,59.98220456191155,
also,&&&&,left,neutral,,,,,,,,0,190,190,188,,,,,,,,,,,,,,,,,,,,,LDT,left,0.38371557847131044,1,,,left,1,0.38371557847131044,,,,,,,,,,,,,,,,,,,,,,1052,2019_Mar_13_1146,mf_amp_cond2,3.0.4,59.98220456191155,
lursuer,&&&&&&&,right,nonword,,,,,,,,0,191,191,112,,,,,,,,,,,,,,,,,,,,,LDT,left,0.4503592378459871,0,,,left,0,0.4503592378459871,,,,,,,,,,,,,,,,,,,,,,1052,2019_Mar_13_1146,mf_amp_cond2,3.0.4,59.98220456191155,
touls,&&&&&,right,nonword,,,,,,,,0,192,192,51,,,,,,,,,,,,,,,,,,,,,LDT,left,0.4003372836159542,0,,,left,0,0.4003372836159542,,,,,,,,,,,,,,,,,,,,,,1052,2019_Mar_13_1146,mf_amp_cond2,3.0.4,59.98220456191155,
pullness,&&&&&&&&,right,nonword,,,,,,,,0,193,193,165,,,,,,,,,,,,,,,,,,,,,LDT,left,0.6504223582160193,0,,,left,0,0.6504223582160193,,,,,,,,,,,,,,,,,,,,,,1052,2019_Mar_13_1146,mf_amp_cond2,3.0.4,59.98220456191155,
critics,&&&&&&&,left,loyalty.vice,,,,,,,,0,194,194,67,,,,,,,,,,,,,,,,,,,,,LDT,left,0.40036582888569683,1,,,left,1,0.40036582888569683,,,,,,,,,,,,,,,,,,,,,,1052,2019_Mar_13_1146,mf_amp_cond2,3.0.4,59.98220456191155,
nackers,&&&&&&&,right,nonword,,,,,,,,0,195,195,177,,,,,,,,,,,,,,,,,,,,,LDT,left,0.5337156906898599,0,,,left,0,0.5337156906898599,,,,,,,,,,,,,,,,,,,,,,1052,2019_Mar_13_1146,mf_amp_cond2,3.0.4,59.98220456191155,
smapper,&&&&&&&,right,nonword,,,,,,,,0,196,196,65,,,,,,,,,,,,,,,,,,,,,LDT,left,0.5504089194582775,0,,,left,0,0.5504089194582775,,,,,,,,,,,,,,,,,,,,,,1052,2019_Mar_13_1146,mf_amp_cond2,3.0.4,59.98220456191155,
commitment,&&&&&&&&&&,left,sanctity.virtue,,,,,,,,0,197,197,73,,,,,,,,,,,,,,,,,,,,,LDT,right,0.45035346460645087,0,,,right,0,0.45035346460645087,,,,,,,,,,,,,,,,,,,,,,1052,2019_Mar_13_1146,mf_amp_cond2,3.0.4,59.98220456191155,
about,&&&&&,left,neutral,,,,,,,,0,198,198,98,,,,,,,,,,,,,,,,,,,,,LDT,left,0.6837783460505307,1,,,left,1,0.6837783460505307,,,,,,,,,,,,,,,,,,,,,,1052,2019_Mar_13_1146,mf_amp_cond2,3.0.4,59.98220456191155,
progress,&&&&&&&&,left,authority.virtue,,,,,,,,0,199,199,184,,,,,,,,,,,,,,,,,,,,,LDT,left,0.7671059329004493,1,,,left,1,0.7671059329004493,,,,,,,,,,,,,,,,,,,,,,1052,2019_Mar_13_1146,mf_amp_cond2,3.0.4,59.98220456191155,
,,,,,,,,,,,,,,,,,,,,,,,,,,,,,,,,,,,,,,,,,,,,4,10.271,,,,,,,,,,,,,,,,,,,,1052,2019_Mar_13_1146,mf_amp_cond2,3.0.4,59.98220456191155,
,,,,,,,,,,,,,,,,,,,,,,,,,,,,,,,,,,,,,,,,,,,,,,right,1.834129341004882,,,,,,,,,,,,,,,,,,1052,2019_Mar_13_1146,mf_amp_cond2,3.0.4,59.98220456191155,
scarf,&&&&&&&&,,,bisebell,,,,,,,,,,,0,0,0,3,,,,,,,,,,,,,,,,,AMP_prac,right,4.168077948561404,,,,,,,,,,,right,4.168077948561404,,,,,,,,,,,,,,,,1052,2019_Mar_13_1146,mf_amp_cond2,3.0.4,59.98220456191155,
keyboard,&&&&,,,senk,,,,,,,,,,,0,1,1,2,,,,,,,,,,,,,,,,,AMP_prac,right,5.968612996599404,,,,,,,,,,,right,5.968612996599404,,,,,,,,,,,,,,,,1052,2019_Mar_13_1146,mf_amp_cond2,3.0.4,59.98220456191155,
banana,&&&&&&,,,kacket,,,,,,,,,,,0,2,2,1,,,,,,,,,,,,,,,,,AMP_prac,right,0.8171237175702117,,,,,,,,,,,right,0.8171237175702117,,,,,,,,,,,,,,,,1052,2019_Mar_13_1146,mf_amp_cond2,3.0.4,59.98220456191155,
car,&&&&&&&&,,,cemtuper,,,,,,,,,,,0,3,3,0,,,,,,,,,,,,,,,,,AMP_prac,right,1.2339082271791995,,,,,,,,,,,right,1.2339082271791995,,,,,,,,,,,,,,,,1052,2019_Mar_13_1146,mf_amp_cond2,3.0.4,59.98220456191155,
,,,,,,,,,,,,,,,,,,,,,,,,,,,,,,,,,,,,,,,,,,,,,,,,,,right,1.200603236007737,,,,,,,,,,,,,,1052,2019_Mar_13_1146,mf_amp_cond2,3.0.4,59.98220456191155,
victims,&&&&&&,right,care.vice,pumber,,,,,,,,,,,,,,,0,0,0,261,,,,,,,,,,,,,AMP,left,0.8171551495033782,0,,,,,,,,,,,,,,left,0,0.8171551495033782,,,,,,,,,,,1052,2019_Mar_13_1146,mf_amp_cond2,3.0.4,59.98220456191155,
gun,&&&&&&,right,authority.vice,tislay,,,,,,,,,,,,,,,0,1,1,172,,,,,,,,,,,,,AMP,left,2.951076238095993,0,,,,,,,,,,,,,,left,0,2.951076238095993,,,,,,,,,,,1052,2019_Mar_13_1146,mf_amp_cond2,3.0.4,59.98220456191155,
idexpressible,&&&&&&&&,None,nonword,gowlands,,,,,,,,,,,,,,,0,2,2,220,,,,,,,,,,,,,AMP,right,1.9007861504796892,0,,,,,,,,,,,,,,right,0,1.9007861504796892,,,,,,,,,,,1052,2019_Mar_13_1146,mf_amp_cond2,3.0.4,59.98220456191155,
rorroborated,&&&&&&&&&&&,None,nonword,egpeditious,,,,,,,,,,,,,,,0,3,3,326,,,,,,,,,,,,,AMP,left,1.1338896566885523,0,,,,,,,,,,,,,,left,0,1.1338896566885523,,,,,,,,,,,1052,2019_Mar_13_1146,mf_amp_cond2,3.0.4,59.98220456191155,
free,&&&&&&&&,left,fairness.virtue,thabbily,,,,,,,,,,,,,,,0,4,4,169,,,,,,,,,,,,,AMP,right,0.5503960901405662,0,,,,,,,,,,,,,,right,0,0.5503960901405662,,,,,,,,,,,1052,2019_Mar_13_1146,mf_amp_cond2,3.0.4,59.98220456191155,
rorroborated,&&&&&&&&,None,nonword,hescribe,,,,,,,,,,,,,,,0,5,5,174,,,,,,,,,,,,,AMP,left,1.0672113580803853,0,,,,,,,,,,,,,,left,0,1.0672113580803853,,,,,,,,,,,1052,2019_Mar_13_1146,mf_amp_cond2,3.0.4,59.98220456191155,
violence,&&&&&&&&,right,care.vice,sliptery,,,,,,,,,,,,,,,0,6,6,303,,,,,,,,,,,,,AMP,left,0.45034512554411776,0,,,,,,,,,,,,,,left,0,0.45034512554411776,,,,,,,,,,,1052,2019_Mar_13_1146,mf_amp_cond2,3.0.4,59.98220456191155,
slavery,&&&&&&&&&&,right,loyalty.vice,reelectiob,,,,,,,,,,,,,,,0,7,7,200,,,,,,,,,,,,,AMP,left,0.7337675854214467,0,,,,,,,,,,,,,,left,0,0.7337675854214467,,,,,,,,,,,1052,2019_Mar_13_1146,mf_amp_cond2,3.0.4,59.98220456191155,
threatened,&&&&&&&&&,right,fairness.vice,baladroit,,,,,,,,,,,,,,,0,8,8,79,,,,,,,,,,,,,AMP,left,0.4503544268081896,0,,,,,,,,,,,,,,left,0,0.4503544268081896,,,,,,,,,,,1052,2019_Mar_13_1146,mf_amp_cond2,3.0.4,59.98220456191155,
celebrated,&&&&&&,left,authority.virtue,strofe,,,,,,,,,,,,,,,0,9,9,241,,,,,,,,,,,,,AMP,right,0.45034448406659067,0,,,,,,,,,,,,,,right,0,0.45034448406659067,,,,,,,,,,,1052,2019_Mar_13_1146,mf_amp_cond2,3.0.4,59.98220456191155,
actively,&&&&&&&&&&&&,left,authority.virtue,iptervention,,,,,,,,,,,,,,,0,10,10,305,,,,,,,,,,,,,AMP,right,0.8337932120484766,0,,,,,,,,,,,,,,right,0,0.8337932120484766,,,,,,,,,,,1052,2019_Mar_13_1146,mf_amp_cond2,3.0.4,59.98220456191155,
loyalty,&&&&&&,left,loyalty.virtue,fostet,,,,,,,,,,,,,,,0,11,11,149,,,,,,,,,,,,,AMP,right,1.8674465200456325,0,,,,,,,,,,,,,,right,0,1.8674465200456325,,,,,,,,,,,1052,2019_Mar_13_1146,mf_amp_cond2,3.0.4,59.98220456191155,
tomedians,&&&&&,None,nonword,dumid,,,,,,,,,,,,,,,0,12,12,310,,,,,,,,,,,,,AMP,left,1.0671924347698223,0,,,,,,,,,,,,,,left,0,1.0671924347698223,,,,,,,,,,,1052,2019_Mar_13_1146,mf_amp_cond2,3.0.4,59.98220456191155,
officers,&&&&&,right,authority.vice,viscs,,,,,,,,,,,,,,,0,13,13,6,,,,,,,,,,,,,AMP,right,1.0005173435201868,1,,,,,,,,,,,,,,right,1,1.0005173435201868,,,,,,,,,,,1052,2019_Mar_13_1146,mf_amp_cond2,3.0.4,59.98220456191155,
pleasant,&&&&&&&&&&&,None,control,lempestuous,,,,,,,,,,,,,,,0,14,14,17,,,,,,,,,,,,,AMP,right,0.7337727171834558,0,,,,,,,,,,,,,,right,0,0.7337727171834558,,,,,,,,,,,1052,2019_Mar_13_1146,mf_amp_cond2,3.0.4,59.98220456191155,
gournful,&&&&&&&&,None,nonword,thadowed,,,,,,,,,,,,,,,0,15,15,30,,,,,,,,,,,,,AMP,left,1.2172368082974572,0,,,,,,,,,,,,,,left,0,1.2172368082974572,,,,,,,,,,,1052,2019_Mar_13_1146,mf_amp_cond2,3.0.4,59.98220456191155,
clean,&&&&&&&&&&,left,sanctity.virtue,honstables,,,,,,,,,,,,,,,0,16,16,36,,,,,,,,,,,,,AMP,right,0.45035186092718504,0,,,,,,,,,,,,,,right,0,0.45035186092718504,,,,,,,,,,,1052,2019_Mar_13_1146,mf_amp_cond2,3.0.4,59.98220456191155,
clean,&&&&,left,sanctity.virtue,erks,,,,,,,,,,,,,,,0,17,17,177,,,,,,,,,,,,,AMP,right,0.9005895406880882,0,,,,,,,,,,,,,,right,0,0.9005895406880882,,,,,,,,,,,1052,2019_Mar_13_1146,mf_amp_cond2,3.0.4,59.98220456191155,
supervuned,&&&&&&&&,None,nonword,gowlands,,,,,,,,,,,,,,,0,18,18,72,,,,,,,,,,,,,AMP,left,0.9004208347469103,0,,,,,,,,,,,,,,left,0,0.9004208347469103,,,,,,,,,,,1052,2019_Mar_13_1146,mf_amp_cond2,3.0.4,59.98220456191155,
fair,&&&&&&&&&,left,fairness.virtue,godlaness,,,,,,,,,,,,,,,0,19,19,134,,,,,,,,,,,,,AMP,right,0.8838183736079372,0,,,,,,,,,,,,,,right,0,0.8838183736079372,,,,,,,,,,,1052,2019_Mar_13_1146,mf_amp_cond2,3.0.4,59.98220456191155,
serial,&&&&&&&&,right,sanctity.vice,hescribe,,,,,,,,,,,,,,,0,20,20,291,,,,,,,,,,,,,AMP,left,0.567093809164362,0,,,,,,,,,,,,,,left,0,0.567093809164362,,,,,,,,,,,1052,2019_Mar_13_1146,mf_amp_cond2,3.0.4,59.98220456191155,
care,&&&&&&&,left,care.virtue,troubla,,,,,,,,,,,,,,,0,21,21,22,,,,,,,,,,,,,AMP,right,0.4170237769430969,0,,,,,,,,,,,,,,right,0,0.4170237769430969,,,,,,,,,,,1052,2019_Mar_13_1146,mf_amp_cond2,3.0.4,59.98220456191155,
ban,&&&&&,right,loyalty.vice,pafer,,,,,,,,,,,,,,,0,22,22,14,,,,,,,,,,,,,AMP,left,1.1005634971079417,0,,,,,,,,,,,,,,left,0,1.1005634971079417,,,,,,,,,,,1052,2019_Mar_13_1146,mf_amp_cond2,3.0.4,59.98220456191155,
lies,&&&&&&&&,right,fairness.vice,counpy's,,,,,,,,,,,,,,,0,23,23,293,,,,,,,,,,,,,AMP,right,0.450360200018622,1,,,,,,,,,,,,,,right,1,0.450360200018622,,,,,,,,,,,1052,2019_Mar_13_1146,mf_amp_cond2,3.0.4,59.98220456191155,
refused,&&&&&&&&&&&,right,authority.vice,shoirmaster,,,,,,,,,,,,,,,0,24,24,10,,,,,,,,,,,,,AMP,left,2.3009050143882632,0,,,,,,,,,,,,,,left,0,2.3009050143882632,,,,,,,,,,,1052,2019_Mar_13_1146,mf_amp_cond2,3.0.4,59.98220456191155,
threatened,&&&&&&&,right,fairness.vice,reviked,,,,,,,,,,,,,,,0,25,25,151,,,,,,,,,,,,,AMP,left,0.5170401023060549,0,,,,,,,,,,,,,,left,0,0.5170401023060549,,,,,,,,,,,1052,2019_Mar_13_1146,mf_amp_cond2,3.0.4,59.98220456191155,
hand,&&&&&&&&&&&,left,sanctity.virtue,ilportation,,,,,,,,,,,,,,,0,26,26,104,,,,,,,,,,,,,AMP,right,0.4837133012479171,0,,,,,,,,,,,,,,right,0,0.4837133012479171,,,,,,,,,,,1052,2019_Mar_13_1146,mf_amp_cond2,3.0.4,59.98220456191155,
restore,&&&&&&&&&&,left,care.virtue,frocessing,,,,,,,,,,,,,,,0,27,27,210,,,,,,,,,,,,,AMP,right,0.41702570134657435,0,,,,,,,,,,,,,,right,0,0.41702570134657435,,,,,,,,,,,1052,2019_Mar_13_1146,mf_amp_cond2,3.0.4,59.98220456191155,
improve,&&&&&&,left,care.virtue,pumber,,,,,,,,,,,,,,,0,28,28,212,,,,,,,,,,,,,AMP,right,1.8007467322750017,0,,,,,,,,,,,,,,right,0,1.8007467322750017,,,,,,,,,,,1052,2019_Mar_13_1146,mf_amp_cond2,3.0.4,59.98220456191155,
racist,&&&&,right,sanctity.vice,erks,,,,,,,,,,,,,,,0,29,29,325,,,,,,,,,,,,,AMP,left,0.33364904223708436,0,,,,,,,,,,,,,,left,0,0.33364904223708436,,,,,,,,,,,1052,2019_Mar_13_1146,mf_amp_cond2,3.0.4,59.98220456191155,
rorroborated,&&&&&,None,nonword,viscs,,,,,,,,,,,,,,,0,30,30,133,,,,,,,,,,,,,AMP,left,0.8338070035970304,0,,,,,,,,,,,,,,left,0,0.8338070035970304,,,,,,,,,,,1052,2019_Mar_13_1146,mf_amp_cond2,3.0.4,59.98220456191155,
energy,&&&&&,left,sanctity.virtue,infet,,,,,,,,,,,,,,,0,31,31,252,,,,,,,,,,,,,AMP,right,0.40035332029219717,0,,,,,,,,,,,,,,right,0,0.40035332029219717,,,,,,,,,,,1052,2019_Mar_13_1146,mf_amp_cond2,3.0.4,59.98220456191155,
quarterbocks,&&&&&&&&&,None,nonword,gaultless,,,,,,,,,,,,,,,0,32,32,284,,,,,,,,,,,,,AMP,right,1.000509645906277,0,,,,,,,,,,,,,,right,0,1.000509645906277,,,,,,,,,,,1052,2019_Mar_13_1146,mf_amp_cond2,3.0.4,59.98220456191155,
sharing,&&&&&&&&&,left,loyalty.virtue,Lacedonia,,,,,,,,,,,,,,,0,33,33,295,,,,,,,,,,,,,AMP,right,0.3836632988532074,0,,,,,,,,,,,,,,right,0,0.3836632988532074,,,,,,,,,,,1052,2019_Mar_13_1146,mf_amp_cond2,3.0.4,59.98220456191155,
strength,&&&,left,sanctity.virtue,mih,,,,,,,,,,,,,,,0,34,34,21,,,,,,,,,,,,,AMP,right,0.5003680419758894,0,,,,,,,,,,,,,,right,0,0.5003680419758894,,,,,,,,,,,1052,2019_Mar_13_1146,mf_amp_cond2,3.0.4,59.98220456191155,
prison,&&&&&&&&&,right,fairness.vice,discovars,,,,,,,,,,,,,,,0,35,35,114,,,,,,,,,,,,,AMP,left,0.3837053149472922,0,,,,,,,,,,,,,,left,0,0.3837053149472922,,,,,,,,,,,1052,2019_Mar_13_1146,mf_amp_cond2,3.0.4,59.98220456191155,
army,&&&&&&&&&&&&,right,loyalty.vice,iptervention,,,,,,,,,,,,,,,0,36,36,125,,,,,,,,,,,,,AMP,right,0.5670569247740787,1,,,,,,,,,,,,,,right,1,0.5670569247740787,,,,,,,,,,,1052,2019_Mar_13_1146,mf_amp_cond2,3.0.4,59.98220456191155,
quarterbocks,&&&&&&&&&,None,nonword,Lacedonia,,,,,,,,,,,,,,,0,37,37,93,,,,,,,,,,,,,AMP,left,1.217246109561529,0,,,,,,,,,,,,,,left,0,1.217246109561529,,,,,,,,,,,1052,2019_Mar_13_1146,mf_amp_cond2,3.0.4,59.98220456191155,
harassment,&&&&&&&&&&&,right,sanctity.vice,shoirmaster,,,,,,,,,,,,,,,0,38,38,135,,,,,,,,,,,,,AMP,left,0.4336801213212311,0,,,,,,,,,,,,,,left,0,0.4336801213212311,,,,,,,,,,,1052,2019_Mar_13_1146,mf_amp_cond2,3.0.4,59.98220456191155,
honored,&&&&&&&,left,authority.virtue,troubla,,,,,,,,,,,,,,,0,39,39,185,,,,,,,,,,,,,AMP,right,0.4003433775214944,0,,,,,,,,,,,,,,right,0,0.4003433775214944,,,,,,,,,,,1052,2019_Mar_13_1146,mf_amp_cond2,3.0.4,59.98220456191155,
freedom,&&&&&&&&&,left,sanctity.virtue,chressing,,,,,,,,,,,,,,,0,40,40,273,,,,,,,,,,,,,AMP,right,0.38366907206363976,0,,,,,,,,,,,,,,right,0,0.38366907206363976,,,,,,,,,,,1052,2019_Mar_13_1146,mf_amp_cond2,3.0.4,59.98220456191155,
values,&&&,left,sanctity.virtue,mih,,,,,,,,,,,,,,,0,41,41,107,,,,,,,,,,,,,AMP,right,0.5002323715889361,0,,,,,,,,,,,,,,right,0,0.5002323715889361,,,,,,,,,,,1052,2019_Mar_13_1146,mf_amp_cond2,3.0.4,59.98220456191155,
refused,&&&&&&&&&,right,authority.vice,Lacedonia,,,,,,,,,,,,,,,0,42,42,242,,,,,,,,,,,,,AMP,right,0.700443029490998,1,,,,,,,,,,,,,,right,1,0.700443029490998,,,,,,,,,,,1052,2019_Mar_13_1146,mf_amp_cond2,3.0.4,59.98220456191155,
unpleasant,&&&&&&&&&&&&&,None,control,synchronazers,,,,,,,,,,,,,,,0,43,43,23,,,,,,,,,,,,,AMP,left,0.683758460538229,0,,,,,,,,,,,,,,left,0,0.683758460538229,,,,,,,,,,,1052,2019_Mar_13_1146,mf_amp_cond2,3.0.4,59.98220456191155,
killed,&&&&,right,care.vice,yane,,,,,,,,,,,,,,,0,44,44,224,,,,,,,,,,,,,AMP,left,0.5337185772950761,0,,,,,,,,,,,,,,left,0,0.5337185772950761,,,,,,,,,,,1052,2019_Mar_13_1146,mf_amp_cond2,3.0.4,59.98220456191155,
shot,&&&&&&,right,care.vice,Cunday,,,,,,,,,,,,,,,0,45,45,136,,,,,,,,,,,,,AMP,left,0.9338573267450556,0,,,,,,,,,,,,,,left,0,0.9338573267450556,,,,,,,,,,,1052,2019_Mar_13_1146,mf_amp_cond2,3.0.4,59.98220456191155,
attacks,&&&&&&,right,care.vice,Boeinf,,,,,,,,,,,,,,,0,46,46,228,,,,,,,,,,,,,AMP,left,0.48370849023922347,0,,,,,,,,,,,,,,left,0,0.48370849023922347,,,,,,,,,,,1052,2019_Mar_13_1146,mf_amp_cond2,3.0.4,59.98220456191155,
troops,&&&&&&,right,loyalty.vice,sonvoy,,,,,,,,,,,,,,,0,47,47,243,,,,,,,,,,,,,AMP,right,0.4837472990329843,1,,,,,,,,,,,,,,right,1,0.4837472990329843,,,,,,,,,,,1052,2019_Mar_13_1146,mf_amp_cond2,3.0.4,59.98220456191155,
army,&&&&&&&&&,right,loyalty.vice,discovars,,,,,,,,,,,,,,,0,48,48,15,,,,,,,,,,,,,AMP,right,0.667095060023712,1,,,,,,,,,,,,,,right,1,0.667095060023712,,,,,,,,,,,1052,2019_Mar_13_1146,mf_amp_cond2,3.0.4,59.98220456191155,
peaceful,&&&&&,left,authority.virtue,atson,,,,,,,,,,,,,,,0,49,49,205,,,,,,,,,,,,,AMP,right,0.48368828400271013,0,,,,,,,,,,,,,,right,0,0.48368828400271013,,,,,,,,,,,1052,2019_Mar_13_1146,mf_amp_cond2,3.0.4,59.98220456191155,
fair,&&&&&&&&&,left,fairness.virtue,brotesque,,,,,,,,,,,,,,,0,50,50,57,,,,,,,,,,,,,AMP,right,1.0005128532357048,0,,,,,,,,,,,,,,right,0,1.0005128532357048,,,,,,,,,,,1052,2019_Mar_13_1146,mf_amp_cond2,3.0.4,59.98220456191155,
taxpayung,&&&&&&&,None,nonword,chreams,,,,,,,,,,,,,,,0,51,51,178,,,,,,,,,,,,,AMP,right,1.1671792526321951,0,,,,,,,,,,,,,,right,0,1.1671792526321951,,,,,,,,,,,1052,2019_Mar_13_1146,mf_amp_cond2,3.0.4,59.98220456191155,
credit,&&&&&,left,fairness.virtue,pafer,,,,,,,,,,,,,,,0,52,52,103,,,,,,,,,,,,,AMP,right,0.4169897791580297,0,,,,,,,,,,,,,,right,0,0.4169897791580297,,,,,,,,,,,1052,2019_Mar_13_1146,mf_amp_cond2,3.0.4,59.98220456191155,
sharing,&&&&&&&&&&,left,loyalty.virtue,focomotive,,,,,,,,,,,,,,,0,53,53,35,,,,,,,,,,,,,AMP,right,0.433661198039772,0,,,,,,,,,,,,,,right,0,0.433661198039772,,,,,,,,,,,1052,2019_Mar_13_1146,mf_amp_cond2,3.0.4,59.98220456191155,
intelligence,&&&&&&&&&&,left,loyalty.virtue,reelectiob,,,,,,,,,,,,,,,0,54,54,140,,,,,,,,,,,,,AMP,right,0.783647133881459,0,,,,,,,,,,,,,,right,0,0.783647133881459,,,,,,,,,,,1052,2019_Mar_13_1146,mf_amp_cond2,3.0.4,59.98220456191155,
blamed,&&&&&&&&,right,loyalty.vice,dormandi,,,,,,,,,,,,,,,0,55,55,62,,,,,,,,,,,,,AMP,left,0.46703161890036426,0,,,,,,,,,,,,,,left,0,0.46703161890036426,,,,,,,,,,,1052,2019_Mar_13_1146,mf_amp_cond2,3.0.4,59.98220456191155,
illegal,&&&&&&&&,right,fairness.vice,crinking,,,,,,,,,,,,,,,0,56,56,29,,,,,,,,,,,,,AMP,left,0.833807965827873,0,,,,,,,,,,,,,,left,0,0.833807965827873,,,,,,,,,,,1052,2019_Mar_13_1146,mf_amp_cond2,3.0.4,59.98220456191155,
fear,&&&&&&&&&&,right,sanctity.vice,Oregoniuns,,,,,,,,,,,,,,,0,57,57,279,,,,,,,,,,,,,AMP,left,0.5337407079641707,0,,,,,,,,,,,,,,left,0,0.5337407079641707,,,,,,,,,,,1052,2019_Mar_13_1146,mf_amp_cond2,3.0.4,59.98220456191155,
troops,&&&&&&&&&&&,right,loyalty.vice,shoirmaster,,,,,,,,,,,,,,,0,58,58,65,,,,,,,,,,,,,AMP,right,0.45035538903903216,1,,,,,,,,,,,,,,right,1,0.45035538903903216,,,,,,,,,,,1052,2019_Mar_13_1146,mf_amp_cond2,3.0.4,59.98220456191155,
army,&&&&&&,right,loyalty.vice,tislay,,,,,,,,,,,,,,,0,59,59,277,,,,,,,,,,,,,AMP,right,0.5170397815818433,1,,,,,,,,,,,,,,right,1,0.5170397815818433,,,,,,,,,,,1052,2019_Mar_13_1146,mf_amp_cond2,3.0.4,59.98220456191155,
credit,&&&&&&,left,fairness.virtue,Cunday,,,,,,,,,,,,,,,0,60,60,13,,,,,,,,,,,,,AMP,right,3.0177846856822725,0,,,,,,,,,,,,,,right,0,3.0177846856822725,,,,,,,,,,,1052,2019_Mar_13_1146,mf_amp_cond2,3.0.4,59.98220456191155,
fighters,&&&&&&&&&,right,authority.vice,baladroit,,,,,,,,,,,,,,,0,61,61,278,,,,,,,,,,,,,AMP,right,0.7838023689982947,1,,,,,,,,,,,,,,right,1,0.7838023689982947,,,,,,,,,,,1052,2019_Mar_13_1146,mf_amp_cond2,3.0.4,59.98220456191155,
hand,&&&&&&&&&,left,sanctity.virtue,pescinded,,,,,,,,,,,,,,,0,62,62,68,,,,,,,,,,,,,AMP,right,0.46703675063326955,0,,,,,,,,,,,,,,right,0,0.46703675063326955,,,,,,,,,,,1052,2019_Mar_13_1146,mf_amp_cond2,3.0.4,59.98220456191155,
abointment,&&&&&&&&&,None,nonword,chressing,,,,,,,,,,,,,,,0,63,63,181,,,,,,,,,,,,,AMP,left,1.083884059888078,0,,,,,,,,,,,,,,left,0,1.083884059888078,,,,,,,,,,,1052,2019_Mar_13_1146,mf_amp_cond2,3.0.4,59.98220456191155,
attacks,&&&&&&,right,care.vice,pumber,,,,,,,,,,,,,,,0,64,64,49,,,,,,,,,,,,,AMP,left,0.9838520185730886,0,,,,,,,,,,,,,,left,0,0.9838520185730886,,,,,,,,,,,1052,2019_Mar_13_1146,mf_amp_cond2,3.0.4,59.98220456191155,
clean,&&&&&&&&&&&,left,sanctity.virtue,shoirmaster,,,,,,,,,,,,,,,0,65,65,87,,,,,,,,,,,,,AMP,right,0.4169961938459892,0,,,,,,,,,,,,,,right,0,0.4169961938459892,,,,,,,,,,,1052,2019_Mar_13_1146,mf_amp_cond2,3.0.4,59.98220456191155,
fear,&&&&&,right,sanctity.vice,atson,,,,,,,,,,,,,,,0,66,66,83,,,,,,,,,,,,,AMP,left,0.6671242468000855,0,,,,,,,,,,,,,,left,0,0.6671242468000855,,,,,,,,,,,1052,2019_Mar_13_1146,mf_amp_cond2,3.0.4,59.98220456191155,
killed,&&&&&&&&&,right,care.vice,baladroit,,,,,,,,,,,,,,,0,67,67,97,,,,,,,,,,,,,AMP,left,0.5337179358466528,0,,,,,,,,,,,,,,left,0,0.5337179358466528,,,,,,,,,,,1052,2019_Mar_13_1146,mf_amp_cond2,3.0.4,59.98220456191155,
slavery,&&&&&&&&&&&&,right,loyalty.vice,iptervention,,,,,,,,,,,,,,,0,68,68,46,,,,,,,,,,,,,AMP,left,1.0672091129526962,0,,,,,,,,,,,,,,left,0,1.0672091129526962,,,,,,,,,,,1052,2019_Mar_13_1146,mf_amp_cond2,3.0.4,59.98220456191155,
freedom,&&&&&&&,left,sanctity.virtue,hatigue,,,,,,,,,,,,,,,0,69,69,122,,,,,,,,,,,,,AMP,right,0.41701126834959723,0,,,,,,,,,,,,,,right,0,0.41701126834959723,,,,,,,,,,,1052,2019_Mar_13_1146,mf_amp_cond2,3.0.4,59.98220456191155,
violence,&&&&&,right,care.vice,ablow,,,,,,,,,,,,,,,0,70,70,3,,,,,,,,,,,,,AMP,left,0.4170035707356874,0,,,,,,,,,,,,,,left,0,0.4170035707356874,,,,,,,,,,,1052,2019_Mar_13_1146,mf_amp_cond2,3.0.4,59.98220456191155,
growth,&&&&&,left,care.virtue,atson,,,,,,,,,,,,,,,0,71,71,48,,,,,,,,,,,,,AMP,right,0.4003882802790031,0,,,,,,,,,,,,,,right,0,0.4003882802790031,,,,,,,,,,,1052,2019_Mar_13_1146,mf_amp_cond2,3.0.4,59.98220456191155,
abointment,&&&&&&&&&&&,None,nonword,shoirmaster,,,,,,,,,,,,,,,0,72,72,247,,,,,,,,,,,,,AMP,left,0.650425565574551,0,,,,,,,,,,,,,,left,0,0.650425565574551,,,,,,,,,,,1052,2019_Mar_13_1146,mf_amp_cond2,3.0.4,59.98220456191155,
victims,&&&&&&&,right,care.vice,vurtain,,,,,,,,,,,,,,,0,73,73,230,,,,,,,,,,,,,AMP,left,0.4503508987254463,0,,,,,,,,,,,,,,left,0,0.4503508987254463,,,,,,,,,,,1052,2019_Mar_13_1146,mf_amp_cond2,3.0.4,59.98220456191155,
violence,&&&&&&&&&&,right,care.vice,Oregoniuns,,,,,,,,,,,,,,,0,74,74,101,,,,,,,,,,,,,AMP,left,0.5503800534352195,0,,,,,,,,,,,,,,left,0,0.5503800534352195,,,,,,,,,,,1052,2019_Mar_13_1146,mf_amp_cond2,3.0.4,59.98220456191155,
growth,&&&&&&&&&&&&,left,care.virtue,edancipation,,,,,,,,,,,,,,,0,75,75,266,,,,,,,,,,,,,AMP,right,0.316985962446779,0,,,,,,,,,,,,,,right,0,0.316985962446779,,,,,,,,,,,1052,2019_Mar_13_1146,mf_amp_cond2,3.0.4,59.98220456191155,
taxpayung,&&&&&,None,nonword,infet,,,,,,,,,,,,,,,0,76,76,115,,,,,,,,,,,,,AMP,left,1.2172643913945649,0,,,,,,,,,,,,,,left,0,1.2172643913945649,,,,,,,,,,,1052,2019_Mar_13_1146,mf_amp_cond2,3.0.4,59.98220456191155,
intelligence,&&&&&&,left,loyalty.virtue,Boeinf,,,,,,,,,,,,,,,0,77,77,20,,,,,,,,,,,,,AMP,right,0.31699141493299976,0,,,,,,,,,,,,,,right,0,0.31699141493299976,,,,,,,,,,,1052,2019_Mar_13_1146,mf_amp_cond2,3.0.4,59.98220456191155,
protesters,&&&&&&&&&&,right,authority.vice,lorthwhile,,,,,,,,,,,,,,,0,78,78,63,,,,,,,,,,,,,AMP,left,0.7004452746477909,0,,,,,,,,,,,,,,left,0,0.7004452746477909,,,,,,,,,,,1052,2019_Mar_13_1146,mf_amp_cond2,3.0.4,59.98220456191155,
died,&&&&&&&&&,right,care.vice,chressing,,,,,,,,,,,,,,,0,79,79,145,,,,,,,,,,,,,AMP,left,0.5337166529207025,0,,,,,,,,,,,,,,left,0,0.5337166529207025,,,,,,,,,,,1052,2019_Mar_13_1146,mf_amp_cond2,3.0.4,59.98220456191155,
powerful,&&&&&&&&,left,authority.virtue,bluently,,,,,,,,,,,,,,,0,80,80,180,,,,,,,,,,,,,AMP,right,0.3669934836507309,0,,,,,,,,,,,,,,right,0,0.3669934836507309,,,,,,,,,,,1052,2019_Mar_13_1146,mf_amp_cond2,3.0.4,59.98220456191155,
racist,&&&&&&&&&&&&,right,sanctity.vice,edancipation,,,,,,,,,,,,,,,0,81,81,118,,,,,,,,,,,,,AMP,left,0.5170436303887982,0,,,,,,,,,,,,,,left,0,0.5170436303887982,,,,,,,,,,,1052,2019_Mar_13_1146,mf_amp_cond2,3.0.4,59.98220456191155,
conspiracy,&&&&&&,right,sanctity.vice,fostet,,,,,,,,,,,,,,,0,82,82,1,,,,,,,,,,,,,AMP,right,0.6837584605673328,1,,,,,,,,,,,,,,right,1,0.6837584605673328,,,,,,,,,,,1052,2019_Mar_13_1146,mf_amp_cond2,3.0.4,59.98220456191155,
actively,&&&&&&&&&&,left,authority.virtue,neutralust,,,,,,,,,,,,,,,0,83,83,194,,,,,,,,,,,,,AMP,right,0.7837921055324841,0,,,,,,,,,,,,,,right,0,0.7837921055324841,,,,,,,,,,,1052,2019_Mar_13_1146,mf_amp_cond2,3.0.4,59.98220456191155,
promises,&&&&&&,left,fairness.virtue,Boeinf,,,,,,,,,,,,,,,0,84,84,286,,,,,,,,,,,,,AMP,right,0.4003408116695937,0,,,,,,,,,,,,,,right,0,0.4003408116695937,,,,,,,,,,,1052,2019_Mar_13_1146,mf_amp_cond2,3.0.4,59.98220456191155,
respect,&&&&&,left,sanctity.virtue,ablow,,,,,,,,,,,,,,,0,85,85,268,,,,,,,,,,,,,AMP,right,0.5670495479134843,0,,,,,,,,,,,,,,right,0,0.5670495479134843,,,,,,,,,,,1052,2019_Mar_13_1146,mf_amp_cond2,3.0.4,59.98220456191155,
illegal,&&&&&&&&&,right,fairness.vice,brotesque,,,,,,,,,,,,,,,0,86,86,254,,,,,,,,,,,,,AMP,left,0.33365609840257093,0,,,,,,,,,,,,,,left,0,0.33365609840257093,,,,,,,,,,,1052,2019_Mar_13_1146,mf_amp_cond2,3.0.4,59.98220456191155,
blamed,&&&&&&&&&,right,loyalty.vice,pescinded,,,,,,,,,,,,,,,0,87,87,265,,,,,,,,,,,,,AMP,left,0.46703001522109844,0,,,,,,,,,,,,,,left,0,0.46703001522109844,,,,,,,,,,,1052,2019_Mar_13_1146,mf_amp_cond2,3.0.4,59.98220456191155,
attacks,&&&&&&&&&&,right,care.vice,frocessing,,,,,,,,,,,,,,,0,88,88,112,,,,,,,,,,,,,AMP,left,0.6003988003067207,0,,,,,,,,,,,,,,left,0,0.6003988003067207,,,,,,,,,,,1052,2019_Mar_13_1146,mf_amp_cond2,3.0.4,59.98220456191155,
lies,&&&&&&&&,right,fairness.vice,sliptery,,,,,,,,,,,,,,,0,89,89,188,,,,,,,,,,,,,AMP,left,0.46701975175528787,0,,,,,,,,,,,,,,left,0,0.46701975175528787,,,,,,,,,,,1052,2019_Mar_13_1146,mf_amp_cond2,3.0.4,59.98220456191155,
terrorist,&&&&&&&&&&&&,right,loyalty.vice,edancipation,,,,,,,,,,,,,,,0,90,90,173,,,,,,,,,,,,,AMP,left,0.38366746838437393,0,,,,,,,,,,,,,,left,0,0.38366746838437393,,,,,,,,,,,1052,2019_Mar_13_1146,mf_amp_cond2,3.0.4,59.98220456191155,
gun,&&&&&&&&,right,authority.vice,bluently,,,,,,,,,,,,,,,0,91,91,8,,,,,,,,,,,,,AMP,left,1.100551950687077,0,,,,,,,,,,,,,,left,0,1.100551950687077,,,,,,,,,,,1052,2019_Mar_13_1146,mf_amp_cond2,3.0.4,59.98220456191155,
men,&&&&&&&&&&&,right,loyalty.vice,cromiscuity,,,,,,,,,,,,,,,0,92,92,43,,,,,,,,,,,,,AMP,left,1.600685536308447,0,,,,,,,,,,,,,,left,0,1.600685536308447,,,,,,,,,,,1052,2019_Mar_13_1146,mf_amp_cond2,3.0.4,59.98220456191155,
values,&&&&&&,left,sanctity.virtue,Cunday,,,,,,,,,,,,,,,0,93,93,214,,,,,,,,,,,,,AMP,right,0.9505101430404466,0,,,,,,,,,,,,,,right,0,0.9505101430404466,,,,,,,,,,,1052,2019_Mar_13_1146,mf_amp_cond2,3.0.4,59.98220456191155,
values,&&&&&&&&&&,left,sanctity.virtue,neutralust,,,,,,,,,,,,,,,0,94,94,253,,,,,,,,,,,,,AMP,right,0.40037416797713377,0,,,,,,,,,,,,,,right,0,0.40037416797713377,,,,,,,,,,,1052,2019_Mar_13_1146,mf_amp_cond2,3.0.4,59.98220456191155,
fraud,&&&&&&&,right,fairness.vice,dramens,,,,,,,,,,,,,,,0,95,95,315,,,,,,,,,,,,,AMP,left,0.4336939128988888,0,,,,,,,,,,,,,,left,0,0.4336939128988888,,,,,,,,,,,1052,2019_Mar_13_1146,mf_amp_cond2,3.0.4,59.98220456191155,
honored,&&&&&,left,authority.virtue,leact,,,,,,,,,,,,,,,0,96,96,146,,,,,,,,,,,,,AMP,right,0.7004221818060614,0,,,,,,,,,,,,,,right,0,0.7004221818060614,,,,,,,,,,,1052,2019_Mar_13_1146,mf_amp_cond2,3.0.4,59.98220456191155,
mecan,&&&&&&&&&,None,nonword,refuejing,,,,,,,,,,,,,,,0,97,97,237,,,,,,,,,,,,,AMP,left,1.1505626792204566,0,,,,,,,,,,,,,,left,0,1.1505626792204566,,,,,,,,,,,1052,2019_Mar_13_1146,mf_amp_cond2,3.0.4,59.98220456191155,
prison,&&&&&&&&&,right,fairness.vice,Phintoism,,,,,,,,,,,,,,,0,98,98,304,,,,,,,,,,,,,AMP,left,0.3336535325215664,0,,,,,,,,,,,,,,left,0,0.3336535325215664,,,,,,,,,,,1052,2019_Mar_13_1146,mf_amp_cond2,3.0.4,59.98220456191155,
officers,&&&&&&&,right,authority.vice,brudent,,,,,,,,,,,,,,,0,99,99,90,,,,,,,,,,,,,AMP,right,0.30030428007012233,1,,,,,,,,,,,,,,right,1,0.30030428007012233,,,,,,,,,,,1052,2019_Mar_13_1146,mf_amp_cond2,3.0.4,59.98220456191155,
unpleasant,&&&&&&&,None,control,sickyay,,,,,,,,,,,,,,,0,100,100,196,,,,,,,,,,,,,AMP,left,0.3336721350788139,0,,,,,,,,,,,,,,left,0,0.3336721350788139,,,,,,,,,,,1052,2019_Mar_13_1146,mf_amp_cond2,3.0.4,59.98220456191155,
increase,&&&&&,left,care.virtue,leact,,,,,,,,,,,,,,,0,101,101,81,,,,,,,,,,,,,AMP,right,0.41701158907380886,0,,,,,,,,,,,,,,right,0,0.41701158907380886,,,,,,,,,,,1052,2019_Mar_13_1146,mf_amp_cond2,3.0.4,59.98220456191155,
pleasant,&&&&&&&&,None,control,tracious,,,,,,,,,,,,,,,0,102,102,208,,,,,,,,,,,,,AMP,right,0.41699459016672336,0,,,,,,,,,,,,,,right,0,0.41699459016672336,,,,,,,,,,,1052,2019_Mar_13_1146,mf_amp_cond2,3.0.4,59.98220456191155,
increase,&&&&&&&&&,left,care.virtue,gaultless,,,,,,,,,,,,,,,0,103,103,234,,,,,,,,,,,,,AMP,right,0.4670258456899319,0,,,,,,,,,,,,,,right,0,0.4670258456899319,,,,,,,,,,,1052,2019_Mar_13_1146,mf_amp_cond2,3.0.4,59.98220456191155,
unpleasant,&&&&&&&&&&&&&,None,control,synchronazers,,,,,,,,,,,,,,,0,104,104,91,,,,,,,,,,,,,AMP,left,0.4003392080194317,0,,,,,,,,,,,,,,left,0,0.4003392080194317,,,,,,,,,,,1052,2019_Mar_13_1146,mf_amp_cond2,3.0.4,59.98220456191155,
opportunity,&&&&&&&&,left,fairness.virtue,gowlands,,,,,,,,,,,,,,,0,105,105,106,,,,,,,,,,,,,AMP,right,0.5171193235437386,0,,,,,,,,,,,,,,right,0,0.5171193235437386,,,,,,,,,,,1052,2019_Mar_13_1146,mf_amp_cond2,3.0.4,59.98220456191155,
racist,&&&&&&&&&,right,sanctity.vice,rivernoat,,,,,,,,,,,,,,,0,106,106,70,,,,,,,,,,,,,AMP,left,0.5337172943691257,0,,,,,,,,,,,,,,left,0,0.5337172943691257,,,,,,,,,,,1052,2019_Mar_13_1146,mf_amp_cond2,3.0.4,59.98220456191155,
respect,&&&&&&&&&&,left,sanctity.virtue,fonderland,,,,,,,,,,,,,,,0,107,107,129,,,,,,,,,,,,,AMP,right,2.100826178037096,0,,,,,,,,,,,,,,right,0,2.100826178037096,,,,,,,,,,,1052,2019_Mar_13_1146,mf_amp_cond2,3.0.4,59.98220456191155,
tomedians,&&&&&&&&,None,nonword,tracious,,,,,,,,,,,,,,,0,108,108,119,,,,,,,,,,,,,AMP,left,1.1839029511029366,0,,,,,,,,,,,,,,left,0,1.1839029511029366,,,,,,,,,,,1052,2019_Mar_13_1146,mf_amp_cond2,3.0.4,59.98220456191155,
mecan,&&&&&&&,None,nonword,troubla,,,,,,,,,,,,,,,0,109,109,288,,,,,,,,,,,,,AMP,right,1.2505767594266217,0,,,,,,,,,,,,,,right,0,1.2505767594266217,,,,,,,,,,,1052,2019_Mar_13_1146,mf_amp_cond2,3.0.4,59.98220456191155,
ban,&&&&&&&&&,right,loyalty.vice,gondensed,,,,,,,,,,,,,,,0,110,110,213,,,,,,,,,,,,,AMP,left,0.316979868512135,0,,,,,,,,,,,,,,left,0,0.316979868512135,,,,,,,,,,,1052,2019_Mar_13_1146,mf_amp_cond2,3.0.4,59.98220456191155,
unpleasant,&&&&,None,control,yane,,,,,,,,,,,,,,,0,111,111,299,,,,,,,,,,,,,AMP,left,0.43368300795555115,0,,,,,,,,,,,,,,left,0,0.43368300795555115,,,,,,,,,,,1052,2019_Mar_13_1146,mf_amp_cond2,3.0.4,59.98220456191155,
gournful,&&&&&&&&,None,nonword,bluently,,,,,,,,,,,,,,,0,112,112,100,,,,,,,,,,,,,AMP,left,0.6837562154105399,0,,,,,,,,,,,,,,left,0,0.6837562154105399,,,,,,,,,,,1052,2019_Mar_13_1146,mf_amp_cond2,3.0.4,59.98220456191155,
fighters,&&&&&&&&,right,authority.vice,thabbily,,,,,,,,,,,,,,,0,113,113,154,,,,,,,,,,,,,AMP,left,0.3503297623828985,0,,,,,,,,,,,,,,left,0,0.3503297623828985,,,,,,,,,,,1052,2019_Mar_13_1146,mf_amp_cond2,3.0.4,59.98220456191155,
terrorists,&&&&&&&&,right,fairness.vice,tracious,,,,,,,,,,,,,,,0,114,114,74,,,,,,,,,,,,,AMP,left,1.2339582616405096,0,,,,,,,,,,,,,,left,0,1.2339582616405096,,,,,,,,,,,1052,2019_Mar_13_1146,mf_amp_cond2,3.0.4,59.98220456191155,
benefit,&&&&&&&&&&,left,fairness.virtue,fonderland,,,,,,,,,,,,,,,0,115,115,307,,,,,,,,,,,,,AMP,left,1.3006092978757806,1,,,,,,,,,,,,,,left,1,1.3006092978757806,,,,,,,,,,,1052,2019_Mar_13_1146,mf_amp_cond2,3.0.4,59.98220456191155,
tomedians,&&&&&&,None,nonword,tislay,,,,,,,,,,,,,,,0,116,116,27,,,,,,,,,,,,,AMP,left,1.1005307822488248,0,,,,,,,,,,,,,,left,0,1.1005307822488248,,,,,,,,,,,1052,2019_Mar_13_1146,mf_amp_cond2,3.0.4,59.98220456191155,
friends,&&&&&&&&&&,left,loyalty.virtue,galamitous,,,,,,,,,,,,,,,0,117,117,255,,,,,,,,,,,,,AMP,right,3.6512880185618997,0,,,,,,,,,,,,,,right,0,3.6512880185618997,,,,,,,,,,,1052,2019_Mar_13_1146,mf_amp_cond2,3.0.4,59.98220456191155,
strong,&&&&,left,loyalty.virtue,yane,,,,,,,,,,,,,,,0,118,118,28,,,,,,,,,,,,,AMP,right,0.2669739509583451,0,,,,,,,,,,,,,,right,0,0.2669739509583451,,,,,,,,,,,1052,2019_Mar_13_1146,mf_amp_cond2,3.0.4,59.98220456191155,
quarterbocks,&&&,None,nonword,oam,,,,,,,,,,,,,,,0,119,119,179,,,,,,,,,,,,,AMP,left,0.4170170415600296,0,,,,,,,,,,,,,,left,0,0.4170170415600296,,,,,,,,,,,1052,2019_Mar_13_1146,mf_amp_cond2,3.0.4,59.98220456191155,
serial,&&&&&&&&&&,right,sanctity.vice,Oregoniuns,,,,,,,,,,,,,,,0,120,120,198,,,,,,,,,,,,,AMP,left,0.3836902405018918,0,,,,,,,,,,,,,,left,0,0.3836902405018918,,,,,,,,,,,1052,2019_Mar_13_1146,mf_amp_cond2,3.0.4,59.98220456191155,
rorroborated,&&&&&&&,None,nonword,chreams,,,,,,,,,,,,,,,0,121,121,58,,,,,,,,,,,,,AMP,left,1.2005811053677462,0,,,,,,,,,,,,,,left,0,1.2005811053677462,,,,,,,,,,,1052,2019_Mar_13_1146,mf_amp_cond2,3.0.4,59.98220456191155,
improve,&&&&&&&&&&&&&,left,care.virtue,esquisiteness,,,,,,,,,,,,,,,0,122,122,249,,,,,,,,,,,,,AMP,right,0.46702584566082805,0,,,,,,,,,,,,,,right,0,0.46702584566082805,,,,,,,,,,,1052,2019_Mar_13_1146,mf_amp_cond2,3.0.4,59.98220456191155,
fraud,&&&&&&&&&&&&,right,fairness.vice,iptervention,,,,,,,,,,,,,,,0,123,123,223,,,,,,,,,,,,,AMP,left,0.7671229317784309,0,,,,,,,,,,,,,,left,0,0.7671229317784309,,,,,,,,,,,1052,2019_Mar_13_1146,mf_amp_cond2,3.0.4,59.98220456191155,
hand,&&&&&&&&,left,sanctity.virtue,thadowed,,,,,,,,,,,,,,,0,124,124,227,,,,,,,,,,,,,AMP,left,0.8004753915593028,1,,,,,,,,,,,,,,left,1,0.8004753915593028,,,,,,,,,,,1052,2019_Mar_13_1146,mf_amp_cond2,3.0.4,59.98220456191155,
freedom,&&&&&&&&,left,sanctity.virtue,hescribe,,,,,,,,,,,,,,,0,125,125,9,,,,,,,,,,,,,AMP,right,0.38351736500044353,0,,,,,,,,,,,,,,right,0,0.38351736500044353,,,,,,,,,,,1052,2019_Mar_13_1146,mf_amp_cond2,3.0.4,59.98220456191155,
prison,&&&&&&&&&&,right,fairness.vice,ecgagement,,,,,,,,,,,,,,,0,126,126,211,,,,,,,,,,,,,AMP,right,0.43369647875078954,1,,,,,,,,,,,,,,right,1,0.43369647875078954,,,,,,,,,,,1052,2019_Mar_13_1146,mf_amp_cond2,3.0.4,59.98220456191155,
blamed,&&&&&&&&&,right,loyalty.vice,rivernoat,,,,,,,,,,,,,,,0,127,127,139,,,,,,,,,,,,,AMP,left,0.31698916980531067,0,,,,,,,,,,,,,,left,0,0.31698916980531067,,,,,,,,,,,1052,2019_Mar_13_1146,mf_amp_cond2,3.0.4,59.98220456191155,
totalestic,&&&&&,None,nonword,lenon,,,,,,,,,,,,,,,0,128,128,137,,,,,,,,,,,,,AMP,left,0.4837030377530027,0,,,,,,,,,,,,,,left,0,0.4837030377530027,,,,,,,,,,,1052,2019_Mar_13_1146,mf_amp_cond2,3.0.4,59.98220456191155,
sharing,&&&&&&&&&&&&&,left,loyalty.virtue,esquisiteness,,,,,,,,,,,,,,,0,129,129,215,,,,,,,,,,,,,AMP,right,0.11692893598228693,0,,,,,,,,,,,,,,right,0,0.11692893598228693,,,,,,,,,,,1052,2019_Mar_13_1146,mf_amp_cond2,3.0.4,59.98220456191155,
strong,&&&&&&&&&,left,loyalty.virtue,pescinded,,,,,,,,,,,,,,,0,130,130,120,,,,,,,,,,,,,AMP,right,0.16694094747072086,0,,,,,,,,,,,,,,right,0,0.16694094747072086,,,,,,,,,,,1052,2019_Mar_13_1146,mf_amp_cond2,3.0.4,59.98220456191155,
friends,&&&&,left,loyalty.virtue,wump,,,,,,,,,,,,,,,0,131,131,156,,,,,,,,,,,,,AMP,right,0.10024597070878372,0,,,,,,,,,,,,,,right,0,0.10024597070878372,,,,,,,,,,,1052,2019_Mar_13_1146,mf_amp_cond2,3.0.4,59.98220456191155,
win,&&&&&,left,fairness.virtue,infet,,,,,,,,,,,,,,,0,132,132,11,,,,,,,,,,,,,AMP,right,0.3837011454452295,0,,,,,,,,,,,,,,right,0,0.3837011454452295,,,,,,,,,,,1052,2019_Mar_13_1146,mf_amp_cond2,3.0.4,59.98220456191155,
growth,&&&&&&,left,care.virtue,laming,,,,,,,,,,,,,,,0,133,133,153,,,,,,,,,,,,,AMP,right,0.18361461148015223,0,,,,,,,,,,,,,,right,0,0.18361461148015223,,,,,,,,,,,1052,2019_Mar_13_1146,mf_amp_cond2,3.0.4,59.98220456191155,
fear,&&&&&&&&&,right,sanctity.vice,reprisols,,,,,,,,,,,,,,,0,134,134,56,,,,,,,,,,,,,AMP,left,0.2169471857487224,0,,,,,,,,,,,,,,left,0,0.2169471857487224,,,,,,,,,,,1052,2019_Mar_13_1146,mf_amp_cond2,3.0.4,59.98220456191155,
gournful,&&&&&&&&,None,nonword,gowlands,,,,,,,,,,,,,,,0,135,135,301,,,,,,,,,,,,,AMP,left,0.43369134701788425,0,,,,,,,,,,,,,,left,0,0.43369134701788425,,,,,,,,,,,1052,2019_Mar_13_1146,mf_amp_cond2,3.0.4,59.98220456191155,
officers,&&&&&&&&,right,authority.vice,tracious,,,,,,,,,,,,,,,0,136,136,259,,,,,,,,,,,,,AMP,right,0.43368172500049695,1,,,,,,,,,,,,,,right,1,0.43368172500049695,,,,,,,,,,,1052,2019_Mar_13_1146,mf_amp_cond2,3.0.4,59.98220456191155,
free,&&&&&&&&&,left,fairness.virtue,gondensed,,,,,,,,,,,,,,,0,137,137,53,,,,,,,,,,,,,AMP,right,0.1336025999917183,0,,,,,,,,,,,,,,right,0,0.1336025999917183,,,,,,,,,,,1052,2019_Mar_13_1146,mf_amp_cond2,3.0.4,59.98220456191155,
sharing,&&&&&&&,left,loyalty.virtue,Daptist,,,,,,,,,,,,,,,0,138,138,142,,,,,,,,,,,,,AMP,right,0.16696500248508528,0,,,,,,,,,,,,,,right,0,0.16696500248508528,,,,,,,,,,,1052,2019_Mar_13_1146,mf_amp_cond2,3.0.4,59.98220456191155,
prosecution,&&&&&&&&,right,authority.vice,sliptery,,,,,,,,,,,,,,,0,139,139,88,,,,,,,,,,,,,AMP,left,1.0005083629803266,0,,,,,,,,,,,,,,left,0,1.0005083629803266,,,,,,,,,,,1052,2019_Mar_13_1146,mf_amp_cond2,3.0.4,59.98220456191155,
men,&&&&&&,right,loyalty.vice,fostet,,,,,,,,,,,,,,,0,140,140,195,,,,,,,,,,,,,AMP,left,0.5337221054069232,0,,,,,,,,,,,,,,left,0,0.5337221054069232,,,,,,,,,,,1052,2019_Mar_13_1146,mf_amp_cond2,3.0.4,59.98220456191155,
actively,&&&&&&,left,authority.virtue,pumber,,,,,,,,,,,,,,,0,141,141,86,,,,,,,,,,,,,AMP,left,0.833797381608747,1,,,,,,,,,,,,,,left,1,0.833797381608747,,,,,,,,,,,1052,2019_Mar_13_1146,mf_amp_cond2,3.0.4,59.98220456191155,
win,&&&&&&&&,left,fairness.virtue,thadowed,,,,,,,,,,,,,,,0,142,142,297,,,,,,,,,,,,,AMP,right,0.7337679061747622,0,,,,,,,,,,,,,,right,0,0.7337679061747622,,,,,,,,,,,1052,2019_Mar_13_1146,mf_amp_cond2,3.0.4,59.98220456191155,
friends,&&&&&&&,left,loyalty.virtue,Daptist,,,,,,,,,,,,,,,0,143,143,7,,,,,,,,,,,,,AMP,right,0.9004699069773778,0,,,,,,,,,,,,,,right,0,0.9004699069773778,,,,,,,,,,,1052,2019_Mar_13_1146,mf_amp_cond2,3.0.4,59.98220456191155,
gun,&&&&&&&&&&&,right,authority.vice,shoirmaster,,,,,,,,,,,,,,,0,144,144,294,,,,,,,,,,,,,AMP,left,1.3173066961753648,0,,,,,,,,,,,,,,left,0,1.3173066961753648,,,,,,,,,,,1052,2019_Mar_13_1146,mf_amp_cond2,3.0.4,59.98220456191155,
health,&&&&&&&&&&&,left,care.virtue,ilportation,,,,,,,,,,,,,,,0,145,145,45,,,,,,,,,,,,,AMP,right,1.5673439814709127,0,,,,,,,,,,,,,,right,0,1.5673439814709127,,,,,,,,,,,1052,2019_Mar_13_1146,mf_amp_cond2,3.0.4,59.98220456191155,
hope,&&&&&&&&,left,loyalty.virtue,counpy's,,,,,,,,,,,,,,,0,146,146,108,,,,,,,,,,,,,AMP,right,0.3669982946594246,0,,,,,,,,,,,,,,right,0,0.3669982946594246,,,,,,,,,,,1052,2019_Mar_13_1146,mf_amp_cond2,3.0.4,59.98220456191155,
powerful,&&&&&&&,left,authority.virtue,brudent,,,,,,,,,,,,,,,0,147,147,270,,,,,,,,,,,,,AMP,right,0.6003856502647977,0,,,,,,,,,,,,,,right,0,0.6003856502647977,,,,,,,,,,,1052,2019_Mar_13_1146,mf_amp_cond2,3.0.4,59.98220456191155,
violations,&&&&&&&,right,sanctity.vice,reviked,,,,,,,,,,,,,,,0,148,148,168,,,,,,,,,,,,,AMP,right,1.5840423419722356,1,,,,,,,,,,,,,,right,1,1.5840423419722356,,,,,,,,,,,1052,2019_Mar_13_1146,mf_amp_cond2,3.0.4,59.98220456191155,
hate,&&&&&&&&&&,right,fairness.vice,honstables,,,,,,,,,,,,,,,0,149,149,232,,,,,,,,,,,,,AMP,left,0.3836360364803113,0,,,,,,,,,,,,,,left,0,0.3836360364803113,,,,,,,,,,,1052,2019_Mar_13_1146,mf_amp_cond2,3.0.4,59.98220456191155,
hope,&&&&&&&&&,left,loyalty.virtue,pescinded,,,,,,,,,,,,,,,0,150,150,201,,,,,,,,,,,,,AMP,right,0.3836543183133472,0,,,,,,,,,,,,,,right,0,0.3836543183133472,,,,,,,,,,,1052,2019_Mar_13_1146,mf_amp_cond2,3.0.4,59.98220456191155,
promises,&&&&,left,fairness.virtue,wump,,,,,,,,,,,,,,,0,151,151,204,,,,,,,,,,,,,AMP,right,0.567055000399705,0,,,,,,,,,,,,,,right,0,0.567055000399705,,,,,,,,,,,1052,2019_Mar_13_1146,mf_amp_cond2,3.0.4,59.98220456191155,
injured,&&&&&&&&&,right,care.vice,fangsters,,,,,,,,,,,,,,,0,152,152,209,,,,,,,,,,,,,AMP,left,0.33365802277694456,0,,,,,,,,,,,,,,left,0,0.33365802277694456,,,,,,,,,,,1052,2019_Mar_13_1146,mf_amp_cond2,3.0.4,59.98220456191155,
improve,&&&&&&&&&,left,care.virtue,refuejing,,,,,,,,,,,,,,,0,153,153,61,,,,,,,,,,,,,AMP,right,0.283511944609927,0,,,,,,,,,,,,,,right,0,0.283511944609927,,,,,,,,,,,1052,2019_Mar_13_1146,mf_amp_cond2,3.0.4,59.98220456191155,
loyalty,&&&&&&&&&&,left,loyalty.virtue,frocessing,,,,,,,,,,,,,,,0,154,154,64,,,,,,,,,,,,,AMP,right,0.28365274670068175,0,,,,,,,,,,,,,,right,0,0.28365274670068175,,,,,,,,,,,1052,2019_Mar_13_1146,mf_amp_cond2,3.0.4,59.98220456191155,
free,&&&&,left,fairness.virtue,tove,,,,,,,,,,,,,,,0,155,155,123,,,,,,,,,,,,,AMP,right,0.33364679710939527,0,,,,,,,,,,,,,,right,0,0.33364679710939527,,,,,,,,,,,1052,2019_Mar_13_1146,mf_amp_cond2,3.0.4,59.98220456191155,
penalty,&&&&&&&&&&&,right,authority.vice,cromiscuity,,,,,,,,,,,,,,,0,156,156,170,,,,,,,,,,,,,AMP,left,1.1172172756050713,0,,,,,,,,,,,,,,left,0,1.1172172756050713,,,,,,,,,,,1052,2019_Mar_13_1146,mf_amp_cond2,3.0.4,59.98220456191155,
safe,&&&&&&&&&,left,care.virtue,metibolic,,,,,,,,,,,,,,,0,157,157,42,,,,,,,,,,,,,AMP,right,0.16684151999652386,0,,,,,,,,,,,,,,right,0,0.16684151999652386,,,,,,,,,,,1052,2019_Mar_13_1146,mf_amp_cond2,3.0.4,59.98220456191155,
slavery,&&&,right,loyalty.vice,oam,,,,,,,,,,,,,,,0,158,158,316,,,,,,,,,,,,,AMP,left,0.3669938044040464,0,,,,,,,,,,,,,,left,0,0.3669938044040464,,,,,,,,,,,1052,2019_Mar_13_1146,mf_amp_cond2,3.0.4,59.98220456191155,
pleasant,&&&&&,None,control,ablow,,,,,,,,,,,,,,,0,159,159,163,,,,,,,,,,,,,AMP,right,1.3172842448402662,0,,,,,,,,,,,,,,right,0,1.3172842448402662,,,,,,,,,,,1052,2019_Mar_13_1146,mf_amp_cond2,3.0.4,59.98220456191155,
troops,&&&&&&&&&,right,loyalty.vice,Phintoism,,,,,,,,,,,,,,,0,160,160,132,,,,,,,,,,,,,AMP,right,0.23362277416163124,1,,,,,,,,,,,,,,right,1,0.23362277416163124,,,,,,,,,,,1052,2019_Mar_13_1146,mf_amp_cond2,3.0.4,59.98220456191155,
peaceful,&&&&&&&,left,authority.virtue,carvels,,,,,,,,,,,,,,,0,161,161,312,,,,,,,,,,,,,AMP,right,0.16693709866376594,0,,,,,,,,,,,,,,right,0,0.16693709866376594,,,,,,,,,,,1052,2019_Mar_13_1146,mf_amp_cond2,3.0.4,59.98220456191155,
growth,&&&&&&&&&&&,left,care.virtue,ilportation,,,,,,,,,,,,,,,0,162,162,222,,,,,,,,,,,,,AMP,left,1.1505655658256728,1,,,,,,,,,,,,,,left,1,1.1505655658256728,,,,,,,,,,,1052,2019_Mar_13_1146,mf_amp_cond2,3.0.4,59.98220456191155,
sexual,&&&&&&&&&&&,right,sanctity.vice,sowntrodden,,,,,,,,,,,,,,,0,163,163,314,,,,,,,,,,,,,AMP,left,0.46702199688297696,0,,,,,,,,,,,,,,left,0,0.46702199688297696,,,,,,,,,,,1052,2019_Mar_13_1146,mf_amp_cond2,3.0.4,59.98220456191155,
totalestic,&&&&&&&&&,None,nonword,fangsters,,,,,,,,,,,,,,,0,164,164,271,,,,,,,,,,,,,AMP,left,0.3503647223697044,0,,,,,,,,,,,,,,left,0,0.3503647223697044,,,,,,,,,,,1052,2019_Mar_13_1146,mf_amp_cond2,3.0.4,59.98220456191155,
free,&&&&&&,left,fairness.virtue,Cunday,,,,,,,,,,,,,,,0,165,165,290,,,,,,,,,,,,,AMP,right,0.5503935242595617,0,,,,,,,,,,,,,,right,0,0.5503935242595617,,,,,,,,,,,1052,2019_Mar_13_1146,mf_amp_cond2,3.0.4,59.98220456191155,
injured,&&&&&&&&&&&&&,right,care.vice,esquisiteness,,,,,,,,,,,,,,,0,166,166,110,,,,,,,,,,,,,AMP,right,0.8338015511399135,1,,,,,,,,,,,,,,right,1,0.8338015511399135,,,,,,,,,,,1052,2019_Mar_13_1146,mf_amp_cond2,3.0.4,59.98220456191155,
safe,&&&&&&&,left,care.virtue,Daptist,,,,,,,,,,,,,,,0,167,167,216,,,,,,,,,,,,,AMP,left,0.800463845138438,1,,,,,,,,,,,,,,left,1,0.800463845138438,,,,,,,,,,,1052,2019_Mar_13_1146,mf_amp_cond2,3.0.4,59.98220456191155,
terrorists,&&&&&&&&&&,right,fairness.vice,galamitous,,,,,,,,,,,,,,,0,168,168,217,,,,,,,,,,,,,AMP,left,0.41700934391701594,0,,,,,,,,,,,,,,left,0,0.41700934391701594,,,,,,,,,,,1052,2019_Mar_13_1146,mf_amp_cond2,3.0.4,59.98220456191155,
fair,&&&&&&&&,left,fairness.virtue,bluently,,,,,,,,,,,,,,,0,169,169,280,,,,,,,,,,,,,AMP,right,0.46703065669862553,0,,,,,,,,,,,,,,right,0,0.46703065669862553,,,,,,,,,,,1052,2019_Mar_13_1146,mf_amp_cond2,3.0.4,59.98220456191155,
trust,&&&&&,left,authority.virtue,dumid,,,,,,,,,,,,,,,0,170,170,113,,,,,,,,,,,,,AMP,right,0.3836655439808965,0,,,,,,,,,,,,,,right,0,0.3836655439808965,,,,,,,,,,,1052,2019_Mar_13_1146,mf_amp_cond2,3.0.4,59.98220456191155,
attacks,&&&&&&&&&&&,right,care.vice,ilportation,,,,,,,,,,,,,,,0,171,171,285,,,,,,,,,,,,,AMP,right,0.6504608462855686,1,,,,,,,,,,,,,,right,1,0.6504608462855686,,,,,,,,,,,1052,2019_Mar_13_1146,mf_amp_cond2,3.0.4,59.98220456191155,
credit,&&&&&&,left,fairness.virtue,sonvoy,,,,,,,,,,,,,,,0,172,172,267,,,,,,,,,,,,,AMP,right,0.7004356526304036,0,,,,,,,,,,,,,,right,0,0.7004356526304036,,,,,,,,,,,1052,2019_Mar_13_1146,mf_amp_cond2,3.0.4,59.98220456191155,
totalestic,&&&&&&&&&&,None,nonword,galamitous,,,,,,,,,,,,,,,0,173,173,60,,,,,,,,,,,,,AMP,right,0.5003715700295288,0,,,,,,,,,,,,,,right,0,0.5003715700295288,,,,,,,,,,,1052,2019_Mar_13_1146,mf_amp_cond2,3.0.4,59.98220456191155,
violence,&&&&&&&&&&&,right,care.vice,shoirmaster,,,,,,,,,,,,,,,0,174,174,245,,,,,,,,,,,,,AMP,left,0.8171278871304821,0,,,,,,,,,,,,,,left,0,0.8171278871304821,,,,,,,,,,,1052,2019_Mar_13_1146,mf_amp_cond2,3.0.4,59.98220456191155,
terrorists,&&&&&&&,right,fairness.vice,chreams,,,,,,,,,,,,,,,0,175,175,256,,,,,,,,,,,,,AMP,left,0.4836940572131425,0,,,,,,,,,,,,,,left,0,0.4836940572131425,,,,,,,,,,,1052,2019_Mar_13_1146,mf_amp_cond2,3.0.4,59.98220456191155,
strong,&&&&&&&,left,loyalty.virtue,reviked,,,,,,,,,,,,,,,0,176,176,282,,,,,,,,,,,,,AMP,left,0.4336759517900646,1,,,,,,,,,,,,,,left,1,0.4336759517900646,,,,,,,,,,,1052,2019_Mar_13_1146,mf_amp_cond2,3.0.4,59.98220456191155,
praised,&&&&&&&&&&,left,loyalty.virtue,focomotive,,,,,,,,,,,,,,,0,177,177,229,,,,,,,,,,,,,AMP,left,0.08357551402878016,1,,,,,,,,,,,,,,left,1,0.08357551402878016,,,,,,,,,,,1052,2019_Mar_13_1146,mf_amp_cond2,3.0.4,59.98220456191155,
protesters,&&&&,right,authority.vice,tove,,,,,,,,,,,,,,,0,178,178,197,,,,,,,,,,,,,AMP,right,0.7170015501033049,1,,,,,,,,,,,,,,right,1,0.7170015501033049,,,,,,,,,,,1052,2019_Mar_13_1146,mf_amp_cond2,3.0.4,59.98220456191155,
values,&&&&&&&,left,sanctity.virtue,carvels,,,,,,,,,,,,,,,0,179,179,12,,,,,,,,,,,,,AMP,right,0.00023573930957354605,0,,,,,,,,,,,,,,right,0,0.00023573930957354605,,,,,,,,,,,1052,2019_Mar_13_1146,mf_amp_cond2,3.0.4,59.98220456191155,
honored,&&&&&&&,left,authority.virtue,emports,,,,,,,,,,,,,,,0,180,180,323,,,,,,,,,,,,,AMP,right,0.00023734295973554254,0,,,,,,,,,,,,,,right,0,0.00023734295973554254,,,,,,,,,,,1052,2019_Mar_13_1146,mf_amp_cond2,3.0.4,59.98220456191155,
prison,&&&&&&&&&,right,fairness.vice,gaultless,,,,,,,,,,,,,,,0,181,181,69,,,,,,,,,,,,,AMP,left,0.26697298875660636,0,,,,,,,,,,,,,,left,0,0.26697298875660636,,,,,,,,,,,1052,2019_Mar_13_1146,mf_amp_cond2,3.0.4,59.98220456191155,
threatened,&&&&&&&&,right,fairness.vice,thabbily,,,,,,,,,,,,,,,0,182,182,302,,,,,,,,,,,,,AMP,left,0.4170154378807638,0,,,,,,,,,,,,,,left,0,0.4170154378807638,,,,,,,,,,,1052,2019_Mar_13_1146,mf_amp_cond2,3.0.4,59.98220456191155,
credit,&&&&&&&&&&&,left,fairness.virtue,shoirmaster,,,,,,,,,,,,,,,0,183,183,236,,,,,,,,,,,,,AMP,left,0.633738751464989,1,,,,,,,,,,,,,,left,1,0.633738751464989,,,,,,,,,,,1052,2019_Mar_13_1146,mf_amp_cond2,3.0.4,59.98220456191155,
conspiracy,&&&&&,right,sanctity.vice,pulge,,,,,,,,,,,,,,,0,184,184,251,,,,,,,,,,,,,AMP,right,0.43368461160571314,1,,,,,,,,,,,,,,right,1,0.43368461160571314,,,,,,,,,,,1052,2019_Mar_13_1146,mf_amp_cond2,3.0.4,59.98220456191155,
celebrated,&&&&&&&&&&&&&,left,authority.virtue,synchronazers,,,,,,,,,,,,,,,0,185,185,318,,,,,,,,,,,,,AMP,left,0.15027947135968134,1,,,,,,,,,,,,,,left,1,0.15027947135968134,,,,,,,,,,,1052,2019_Mar_13_1146,mf_amp_cond2,3.0.4,59.98220456191155,
lies,&&&&&,right,fairness.vice,lenon,,,,,,,,,,,,,,,0,186,186,34,,,,,,,,,,,,,AMP,right,0.1336025999917183,1,,,,,,,,,,,,,,right,1,0.1336025999917183,,,,,,,,,,,1052,2019_Mar_13_1146,mf_amp_cond2,3.0.4,59.98220456191155,
trust,&&&&&&&,left,authority.virtue,dramens,,,,,,,,,,,,,,,0,187,187,183,,,,,,,,,,,,,AMP,right,0.3003055630251765,0,,,,,,,,,,,,,,right,0,0.3003055630251765,,,,,,,,,,,1052,2019_Mar_13_1146,mf_amp_cond2,3.0.4,59.98220456191155,
peaceful,&&&&&&,left,authority.virtue,tislay,,,,,,,,,,,,,,,0,188,188,160,,,,,,,,,,,,,AMP,right,0.016889517835807055,0,,,,,,,,,,,,,,right,0,0.016889517835807055,,,,,,,,,,,1052,2019_Mar_13_1146,mf_amp_cond2,3.0.4,59.98220456191155,
blamed,&&&&&&&&&&&,right,loyalty.vice,sowntrodden,,,,,,,,,,,,,,,0,189,189,171,,,,,,,,,,,,,AMP,right,0.15029647020855919,1,,,,,,,,,,,,,,right,1,0.15029647020855919,,,,,,,,,,,1052,2019_Mar_13_1146,mf_amp_cond2,3.0.4,59.98220456191155,
strength,&&&&&&&&&&,left,sanctity.virtue,honstables,,,,,,,,,,,,,,,0,190,190,257,,,,,,,,,,,,,AMP,right,0.100251102441689,0,,,,,,,,,,,,,,right,0,0.100251102441689,,,,,,,,,,,1052,2019_Mar_13_1146,mf_amp_cond2,3.0.4,59.98220456191155,
respect,&&&&&&&&&&,left,sanctity.virtue,neutralust,,,,,,,,,,,,,,,0,191,191,38,,,,,,,,,,,,,AMP,right,0.43368589456076734,0,,,,,,,,,,,,,,right,0,0.43368589456076734,,,,,,,,,,,1052,2019_Mar_13_1146,mf_amp_cond2,3.0.4,59.98220456191155,
energy,&&&&&,left,sanctity.virtue,pulge,,,,,,,,,,,,,,,0,192,192,239,,,,,,,,,,,,,AMP,right,0.43368172500049695,0,,,,,,,,,,,,,,right,0,0.43368172500049695,,,,,,,,,,,1052,2019_Mar_13_1146,mf_amp_cond2,3.0.4,59.98220456191155,
benefit,&&&&&,left,fairness.virtue,pulge,,,,,,,,,,,,,,,0,193,193,51,,,,,,,,,,,,,AMP,right,0.3836613744497299,0,,,,,,,,,,,,,,right,0,0.3836613744497299,,,,,,,,,,,1052,2019_Mar_13_1146,mf_amp_cond2,3.0.4,59.98220456191155,
injured,&&&&&&,right,care.vice,fostet,,,,,,,,,,,,,,,0,194,194,298,,,,,,,,,,,,,AMP,right,0.7837834456877317,1,,,,,,,,,,,,,,right,1,0.7837834456877317,,,,,,,,,,,1052,2019_Mar_13_1146,mf_amp_cond2,3.0.4,59.98220456191155,
racist,&&&&&,right,sanctity.vice,infet,,,,,,,,,,,,,,,0,195,195,165,,,,,,,,,,,,,AMP,left,0.5002326923422515,0,,,,,,,,,,,,,,left,0,0.5002326923422515,,,,,,,,,,,1052,2019_Mar_13_1146,mf_amp_cond2,3.0.4,59.98220456191155,
loyalty,&&&&&,left,loyalty.virtue,lenon,,,,,,,,,,,,,,,0,196,196,219,,,,,,,,,,,,,AMP,right,0.2335550993157085,0,,,,,,,,,,,,,,right,0,0.2335550993157085,,,,,,,,,,,1052,2019_Mar_13_1146,mf_amp_cond2,3.0.4,59.98220456191155,
terrorist,&&&&&&&&&&&,right,loyalty.vice,cromiscuity,,,,,,,,,,,,,,,0,197,197,98,,,,,,,,,,,,,AMP,left,0.6170753509213682,0,,,,,,,,,,,,,,left,0,0.6170753509213682,,,,,,,,,,,1052,2019_Mar_13_1146,mf_amp_cond2,3.0.4,59.98220456191155,
died,&&&&&&&,right,care.vice,dramens,,,,,,,,,,,,,,,0,198,198,18,,,,,,,,,,,,,AMP,right,0.11693535067024641,1,,,,,,,,,,,,,,right,1,0.11693535067024641,,,,,,,,,,,1052,2019_Mar_13_1146,mf_amp_cond2,3.0.4,59.98220456191155,
quarterbocks,&&&&&&&&&,None,nonword,Lacedonia,,,,,,,,,,,,,,,0,199,199,39,,,,,,,,,,,,,AMP,left,0.6337381100165658,0,,,,,,,,,,,,,,left,0,0.6337381100165658,,,,,,,,,,,1052,2019_Mar_13_1146,mf_amp_cond2,3.0.4,59.98220456191155,
penalty,&&&&&&&&&,right,authority.vice,refuejing,,,,,,,,,,,,,,,0,200,200,155,,,,,,,,,,,,,AMP,left,0.18361172487493604,0,,,,,,,,,,,,,,left,0,0.18361172487493604,,,,,,,,,,,1052,2019_Mar_13_1146,mf_amp_cond2,3.0.4,59.98220456191155,
sexual,&&&&&&&&&&,right,sanctity.vice,focomotive,,,,,,,,,,,,,,,0,201,201,84,,,,,,,,,,,,,AMP,right,0.3835417407681234,1,,,,,,,,,,,,,,right,1,0.3835417407681234,,,,,,,,,,,1052,2019_Mar_13_1146,mf_amp_cond2,3.0.4,59.98220456191155,
fraud,&&&&&&&,right,fairness.vice,sickyay,,,,,,,,,,,,,,,0,202,202,152,,,,,,,,,,,,,AMP,left,0.01688983856001869,0,,,,,,,,,,,,,,left,0,0.01688983856001869,,,,,,,,,,,1052,2019_Mar_13_1146,mf_amp_cond2,3.0.4,59.98220456191155,
supervuned,&&&&&&&,None,nonword,carvels,,,,,,,,,,,,,,,0,203,203,105,,,,,,,,,,,,,AMP,left,0.016897856869036332,0,,,,,,,,,,,,,,left,0,0.016897856869036332,,,,,,,,,,,1052,2019_Mar_13_1146,mf_amp_cond2,3.0.4,59.98220456191155,
clean,&&&&&,left,sanctity.virtue,viscs,,,,,,,,,,,,,,,0,204,204,250,,,,,,,,,,,,,AMP,left,0.2503201724612154,1,,,,,,,,,,,,,,left,1,0.2503201724612154,,,,,,,,,,,1052,2019_Mar_13_1146,mf_amp_cond2,3.0.4,59.98220456191155,
peaceful,&&&&&,left,authority.virtue,dumid,,,,,,,,,,,,,,,0,205,205,55,,,,,,,,,,,,,AMP,left,0.33364615563186817,1,,,,,,,,,,,,,,left,1,0.33364615563186817,,,,,,,,,,,1052,2019_Mar_13_1146,mf_amp_cond2,3.0.4,59.98220456191155,
care,&&&&&&,left,care.virtue,laming,,,,,,,,,,,,,,,0,206,206,191,,,,,,,,,,,,,AMP,right,0.6671329065866303,0,,,,,,,,,,,,,,right,0,0.6671329065866303,,,,,,,,,,,1052,2019_Mar_13_1146,mf_amp_cond2,3.0.4,59.98220456191155,
conspiracy,&&&&&&&&&,right,sanctity.vice,reprisols,,,,,,,,,,,,,,,0,207,207,116,,,,,,,,,,,,,AMP,right,0.41703211603453383,1,,,,,,,,,,,,,,right,1,0.41703211603453383,,,,,,,,,,,1052,2019_Mar_13_1146,mf_amp_cond2,3.0.4,59.98220456191155,
victims,&&&&&&&,right,care.vice,reviked,,,,,,,,,,,,,,,0,208,208,50,,,,,,,,,,,,,AMP,left,0.06691949037485756,0,,,,,,,,,,,,,,left,0,0.06691949037485756,,,,,,,,,,,1052,2019_Mar_13_1146,mf_amp_cond2,3.0.4,59.98220456191155,
safe,&&&&&&&&,left,care.virtue,hescribe,,,,,,,,,,,,,,,0,209,209,96,,,,,,,,,,,,,AMP,left,0.45035025727702305,1,,,,,,,,,,,,,,left,1,0.45035025727702305,,,,,,,,,,,1052,2019_Mar_13_1146,mf_amp_cond2,3.0.4,59.98220456191155,
actively,&&&&&&&&,left,authority.virtue,divility,,,,,,,,,,,,,,,0,210,210,40,,,,,,,,,,,,,AMP,right,0.28363254049327224,0,,,,,,,,,,,,,,right,0,0.28363254049327224,,,,,,,,,,,1052,2019_Mar_13_1146,mf_amp_cond2,3.0.4,59.98220456191155,
penalty,&&&&&&&&&,right,authority.vice,godlaness,,,,,,,,,,,,,,,0,211,211,248,,,,,,,,,,,,,AMP,right,0.43368685673340224,1,,,,,,,,,,,,,,right,1,0.43368685673340224,,,,,,,,,,,1052,2019_Mar_13_1146,mf_amp_cond2,3.0.4,59.98220456191155,
tomedians,&&&&&&&&&&,None,nonword,fonderland,,,,,,,,,,,,,,,0,212,212,231,,,,,,,,,,,,,AMP,right,0.20029372794670053,0,,,,,,,,,,,,,,right,0,0.20029372794670053,,,,,,,,,,,1052,2019_Mar_13_1146,mf_amp_cond2,3.0.4,59.98220456191155,
killed,&&&&&&&&,right,care.vice,sliptery,,,,,,,,,,,,,,,0,213,213,19,,,,,,,,,,,,,AMP,right,0.05022914821165614,1,,,,,,,,,,,,,,right,1,0.05022914821165614,,,,,,,,,,,1052,2019_Mar_13_1146,mf_amp_cond2,3.0.4,59.98220456191155,
fighters,&&&,right,authority.vice,oam,,,,,,,,,,,,,,,0,214,214,2,,,,,,,,,,,,,AMP,left,0.016894970292923972,0,,,,,,,,,,,,,,left,0,0.016894970292923972,,,,,,,,,,,1052,2019_Mar_13_1146,mf_amp_cond2,3.0.4,59.98220456191155,
praised,&&&&&&&&&,left,loyalty.virtue,Phintoism,,,,,,,,,,,,,,,0,215,215,32,,,,,,,,,,,,,AMP,right,0.600400724739302,0,,,,,,,,,,,,,,right,0,0.600400724739302,,,,,,,,,,,1052,2019_Mar_13_1146,mf_amp_cond2,3.0.4,59.98220456191155,
injured,&&&&,right,care.vice,wump,,,,,,,,,,,,,,,0,216,216,16,,,,,,,,,,,,,AMP,right,0.1836165358836297,1,,,,,,,,,,,,,,right,1,0.1836165358836297,,,,,,,,,,,1052,2019_Mar_13_1146,mf_amp_cond2,3.0.4,59.98220456191155,
opportunity,&&&&&&&&&&,left,fairness.virtue,Oregoniuns,,,,,,,,,,,,,,,0,217,217,54,,,,,,,,,,,,,AMP,right,0.083584815292852,0,,,,,,,,,,,,,,right,0,0.083584815292852,,,,,,,,,,,1052,2019_Mar_13_1146,mf_amp_cond2,3.0.4,59.98220456191155,
terrorist,&&&&&&&&&&,right,loyalty.vice,ejanulated,,,,,,,,,,,,,,,0,218,218,75,,,,,,,,,,,,,AMP,right,0.016885989753063768,1,,,,,,,,,,,,,,right,1,0.016885989753063768,,,,,,,,,,,1052,2019_Mar_13_1146,mf_amp_cond2,3.0.4,59.98220456191155,
sexual,&&&&&&&&&,right,sanctity.vice,baladroit,,,,,,,,,,,,,,,0,219,219,164,,,,,,,,,,,,,AMP,left,0.00024055028916336596,0,,,,,,,,,,,,,,left,0,0.00024055028916336596,,,,,,,,,,,1052,2019_Mar_13_1146,mf_amp_cond2,3.0.4,59.98220456191155,
violations,&&&&&&,right,sanctity.vice,sonvoy,,,,,,,,,,,,,,,0,220,220,121,,,,,,,,,,,,,AMP,left,0.36699604950263165,0,,,,,,,,,,,,,,left,0,0.36699604950263165,,,,,,,,,,,1052,2019_Mar_13_1146,mf_amp_cond2,3.0.4,59.98220456191155,
taxpayung,&&&&&&&&&&&,None,nonword,egpeditious,,,,,,,,,,,,,,,0,221,221,67,,,,,,,,,,,,,AMP,left,0.2502993247762788,0,,,,,,,,,,,,,,left,0,0.2502993247762788,,,,,,,,,,,1052,2019_Mar_13_1146,mf_amp_cond2,3.0.4,59.98220456191155,
trust,&&&&&&&&&&&,left,authority.virtue,sowntrodden,,,,,,,,,,,,,,,0,222,222,80,,,,,,,,,,,,,AMP,left,0.016907158162212,1,,,,,,,,,,,,,,left,1,0.016907158162212,,,,,,,,,,,1052,2019_Mar_13_1146,mf_amp_cond2,3.0.4,59.98220456191155,
violations,&&&&,right,sanctity.vice,tove,,,,,,,,,,,,,,,0,223,223,281,,,,,,,,,,,,,AMP,right,0.08358641900122166,1,,,,,,,,,,,,,,right,1,0.08358641900122166,,,,,,,,,,,1052,2019_Mar_13_1146,mf_amp_cond2,3.0.4,59.98220456191155,
illegal,&&&&&&&&&&&,right,fairness.vice,sowntrodden,,,,,,,,,,,,,,,0,224,224,111,,,,,,,,,,,,,AMP,right,0.00023830519057810307,1,,,,,,,,,,,,,,right,1,0.00023830519057810307,,,,,,,,,,,1052,2019_Mar_13_1146,mf_amp_cond2,3.0.4,59.98220456191155,
men,&&&&&&,right,loyalty.vice,laming,,,,,,,,,,,,,,,0,225,225,276,,,,,,,,,,,,,AMP,right,0.08357070302008651,1,,,,,,,,,,,,,,right,1,0.08357070302008651,,,,,,,,,,,1052,2019_Mar_13_1146,mf_amp_cond2,3.0.4,59.98220456191155,
encourage,&&&&&&&&&&&,left,authority.virtue,egpeditious,,,,,,,,,,,,,,,0,226,226,226,,,,,,,,,,,,,AMP,right,0.11686960025690496,0,,,,,,,,,,,,,,right,0,0.11686960025690496,,,,,,,,,,,1052,2019_Mar_13_1146,mf_amp_cond2,3.0.4,59.98220456191155,
strength,&&&&&&&&,left,sanctity.virtue,divility,,,,,,,,,,,,,,,0,227,227,202,,,,,,,,,,,,,AMP,right,0.06690730250556953,0,,,,,,,,,,,,,,right,0,0.06690730250556953,,,,,,,,,,,1052,2019_Mar_13_1146,mf_amp_cond2,3.0.4,59.98220456191155,
shot,&&&&&,right,care.vice,dumid,,,,,,,,,,,,,,,0,228,228,190,,,,,,,,,,,,,AMP,left,0.16692843884811737,0,,,,,,,,,,,,,,left,0,0.16692843884811737,,,,,,,,,,,1052,2019_Mar_13_1146,mf_amp_cond2,3.0.4,59.98220456191155,
ban,&&&&&&&&&,right,loyalty.vice,discovars,,,,,,,,,,,,,,,0,229,229,260,,,,,,,,,,,,,AMP,left,0.08362426556413993,0,,,,,,,,,,,,,,left,0,0.08362426556413993,,,,,,,,,,,1052,2019_Mar_13_1146,mf_amp_cond2,3.0.4,59.98220456191155,
prosecution,&&&&&&&&&,right,authority.vice,godlaness,,,,,,,,,,,,,,,0,230,230,76,,,,,,,,,,,,,AMP,left,0.16695666342275217,0,,,,,,,,,,,,,,left,0,0.16695666342275217,,,,,,,,,,,1052,2019_Mar_13_1146,mf_amp_cond2,3.0.4,59.98220456191155,
promises,&&&&&&&,left,fairness.virtue,brudent,,,,,,,,,,,,,,,0,231,231,0,,,,,,,,,,,,,AMP,left,0.016764110914664343,1,,,,,,,,,,,,,,left,1,0.016764110914664343,,,,,,,,,,,1052,2019_Mar_13_1146,mf_amp_cond2,3.0.4,59.98220456191155,
fair,&&&&&&&&&,left,fairness.virtue,brotesque,,,,,,,,,,,,,,,0,232,232,184,,,,,,,,,,,,,AMP,left,0.15032180820708163,1,,,,,,,,,,,,,,left,1,0.15032180820708163,,,,,,,,,,,1052,2019_Mar_13_1146,mf_amp_cond2,3.0.4,59.98220456191155,
shot,&&&&&&&&&&,right,care.vice,fonderland,,,,,,,,,,,,,,,0,233,233,5,,,,,,,,,,,,,AMP,left,0.1169167481129989,0,,,,,,,,,,,,,,left,0,0.1169167481129989,,,,,,,,,,,1052,2019_Mar_13_1146,mf_amp_cond2,3.0.4,59.98220456191155,
fear,&&&&&&&&&&&,right,sanctity.vice,lempestuous,,,,,,,,,,,,,,,0,234,234,233,,,,,,,,,,,,,AMP,right,0.11691867251647636,1,,,,,,,,,,,,,,right,1,0.11691867251647636,,,,,,,,,,,1052,2019_Mar_13_1146,mf_amp_cond2,3.0.4,59.98220456191155,
hand,&&&&&,left,sanctity.virtue,atson,,,,,,,,,,,,,,,0,235,235,321,,,,,,,,,,,,,AMP,right,0.15026054804911837,0,,,,,,,,,,,,,,right,0,0.15026054804911837,,,,,,,,,,,1052,2019_Mar_13_1146,mf_amp_cond2,3.0.4,59.98220456191155,
promises,&&&&&&&&&&,left,fairness.virtue,honstables,,,,,,,,,,,,,,,0,236,236,147,,,,,,,,,,,,,AMP,right,0.00023638075799681246,0,,,,,,,,,,,,,,right,0,0.00023638075799681246,,,,,,,,,,,1052,2019_Mar_13_1146,mf_amp_cond2,3.0.4,59.98220456191155,
energy,&&&&&&&&&&,left,sanctity.virtue,ejanulated,,,,,,,,,,,,,,,0,237,237,82,,,,,,,,,,,,,AMP,right,0.15026086877333,0,,,,,,,,,,,,,,right,0,0.15026086877333,,,,,,,,,,,1052,2019_Mar_13_1146,mf_amp_cond2,3.0.4,59.98220456191155,
threatened,&&&&&&&&&&,right,fairness.vice,lorthwhile,,,,,,,,,,,,,,,0,238,238,207,,,,,,,,,,,,,AMP,right,0.0669576576910913,1,,,,,,,,,,,,,,right,1,0.0669576576910913,,,,,,,,,,,1052,2019_Mar_13_1146,mf_amp_cond2,3.0.4,59.98220456191155,
mecan,&&&&&&&,None,nonword,dramens,,,,,,,,,,,,,,,0,239,239,85,,,,,,,,,,,,,AMP,left,0.16696404028334655,0,,,,,,,,,,,,,,left,0,0.16696404028334655,,,,,,,,,,,1052,2019_Mar_13_1146,mf_amp_cond2,3.0.4,59.98220456191155,
win,&&&&&&&&,left,fairness.virtue,divility,,,,,,,,,,,,,,,0,240,240,157,,,,,,,,,,,,,AMP,left,0.16684825540869497,1,,,,,,,,,,,,,,left,1,0.16684825540869497,,,,,,,,,,,1052,2019_Mar_13_1146,mf_amp_cond2,3.0.4,59.98220456191155,
pleasant,&&&&&&&&&,None,control,reprisols,,,,,,,,,,,,,,,0,241,241,263,,,,,,,,,,,,,AMP,left,0.08359315438428894,0,,,,,,,,,,,,,,left,0,0.08359315438428894,,,,,,,,,,,1052,2019_Mar_13_1146,mf_amp_cond2,3.0.4,59.98220456191155,
restore,&&&&&&,left,care.virtue,strofe,,,,,,,,,,,,,,,0,242,242,296,,,,,,,,,,,,,AMP,left,0.05024165683425963,1,,,,,,,,,,,,,,left,1,0.05024165683425963,,,,,,,,,,,1052,2019_Mar_13_1146,mf_amp_cond2,3.0.4,59.98220456191155,
