words,nonwords,mask,corr_ans,category,tweets,topic,AMP_pracloop.thisRepN,AMP_pracloop.thisTrialN,AMP_pracloop.thisN,AMP_pracloop.thisIndex,AMP_trials.thisRepN,AMP_trials.thisTrialN,AMP_trials.thisN,AMP_trials.thisIndex,LDT_pracloop.thisRepN,LDT_pracloop.thisTrialN,LDT_pracloop.thisN,LDT_pracloop.thisIndex,LDT_trials.thisRepN,LDT_trials.thisTrialN,LDT_trials.thisN,LDT_trials.thisIndex,tweet_loop.thisRepN,tweet_loop.thisTrialN,tweet_loop.thisN,tweet_loop.thisIndex,begin_key.keys,begin_key.rt,key_resp_AMP_instr1.keys,key_resp_AMP_instr1.rt,resp_AMP_ready1.keys,resp_AMP_ready1.rt,resp_AMP_prac.keys,resp_AMP_prac.rt,task,keypress,RT,resp_AMP_ready.keys,resp_AMP_ready.rt,resp_AMP.keys,resp_AMP.corr,resp_AMP.rt,corr,AMP_nonword_rating.response,AMP_nonword_rating.rt,AMP_word_rating.response,AMP_word_rating.rt,AMP_random_rating.response,AMP_random_rating.rt,key_resp_LDT_instr.keys,key_resp_LDT_instr.rt,resp_LDT_prac.keys,resp_LDT_prac.rt,resp_LDT_ready.keys,resp_LDT_ready.rt,resp_LDT.keys,resp_LDT.corr,resp_LDT.rt,LDT_rating.response,LDT_rating.rt,key_resp_LDT_instr_2.keys,key_resp_LDT_instr_2.rt,resp_tweets.keys,resp_tweets.rt,participant,date,expName,psychopyVersion,frameRate,
,,,,,,,,,,,,,,,,,,,,,,,,,,,right,1526.9720345008827,,,,,,,,,,,,,,,,,,,,,,,,,,,,,,,,,,,,,1053,2019_Mar_13_1241,mf_amp_cond1,3.0.4,59.9906683944439,
,,,,,,,,,,,,,,,,,,,,,,,,,,,,,right,1.0338555890193675,,,,,,,,,,,,,,,,,,,,,,,,,,,,,,,,,,,1053,2019_Mar_13_1241,mf_amp_cond1,3.0.4,59.9906683944439,
,,,,,,,,,,,,,,,,,,,,,,,,,,,,,,,right,3.2511259805760346,,,,,,,,,,,,,,,,,,,,,,,,,,,,,,,,,1053,2019_Mar_13_1241,mf_amp_cond1,3.0.4,59.9906683944439,
car,cemtuper,&&&&&&&&,,,,,0,0,0,0,,,,,,,,,,,,,,,,,,,,,,,right,2.384162152739009,AMP_prac,right,2.384162152739009,,,,,,,,,,,,,,,,,,,,,,,,,,,,1053,2019_Mar_13_1241,mf_amp_cond1,3.0.4,59.9906683944439,
keyboard,senk,&&&&,,,,,0,1,1,2,,,,,,,,,,,,,,,,,,,,,,,right,0.41701259385445155,AMP_prac,right,0.41701259385445155,,,,,,,,,,,,,,,,,,,,,,,,,,,,1053,2019_Mar_13_1241,mf_amp_cond1,3.0.4,59.9906683944439,
banana,kacket,&&&&&&,,,,,0,2,2,1,,,,,,,,,,,,,,,,,,,,,,,right,0.23361350683262572,AMP_prac,right,0.23361350683262572,,,,,,,,,,,,,,,,,,,,,,,,,,,,1053,2019_Mar_13_1241,mf_amp_cond1,3.0.4,59.9906683944439,
scarf,bisebell,&&&&&&&&,,,,,0,3,3,3,,,,,,,,,,,,,,,,,,,,,,,right,0.2669585038383957,AMP_prac,right,0.2669585038383957,,,,,,,,,,,,,,,,,,,,,,,,,,,,1053,2019_Mar_13_1241,mf_amp_cond1,3.0.4,59.9906683944439,
,,,,,,,,,,,,,,,,,,,,,,,,,,,,,,,,,,,,,,right,2.5008949793409556,,,,,,,,,,,,,,,,,,,,,,,,,,1053,2019_Mar_13_1241,mf_amp_cond1,3.0.4,59.9906683944439,
hope,thadowed,&&&&&&&&,left,loyalty.virtue,,,,,,,0,0,0,0,,,,,,,,,,,,,,,,,,,,,AMP,right,0.5003417310654186,,,right,0,0.5003417310654186,0,,,,,,,,,,,,,,,,,,,,,,1053,2019_Mar_13_1241,mf_amp_cond1,3.0.4,59.9906683944439,
riot,hescribe,&&&&&&&&,right,authority.vice,,,,,,,0,1,1,1,,,,,,,,,,,,,,,,,,,,,AMP,left,1.0005263074999675,,,left,0,1.0005263074999675,0,,,,,,,,,,,,,,,,,,,,,,1053,2019_Mar_13_1241,mf_amp_cond1,3.0.4,59.9906683944439,
betrayal,spag,&&&&,right,loyalty.vice,,,,,,,0,2,2,2,,,,,,,,,,,,,,,,,,,,,AMP,left,0.6170492204837501,,,left,0,0.6170492204837501,0,,,,,,,,,,,,,,,,,,,,,,1053,2019_Mar_13_1241,mf_amp_cond1,3.0.4,59.9906683944439,
accused,totalestic,&&&&&&&&&&,right,fairness.vice,,,,,,,0,3,3,3,,,,,,,,,,,,,,,,,,,,,AMP,left,0.5170276999415364,,,left,0,0.5170276999415364,0,,,,,,,,,,,,,,,,,,,,,,1053,2019_Mar_13_1241,mf_amp_cond1,3.0.4,59.9906683944439,
friends,clattening,&&&&&&&&&&,left,loyalty.virtue,,,,,,,0,4,4,4,,,,,,,,,,,,,,,,,,,,,AMP,right,0.30017072122427635,,,right,0,0.30017072122427635,0,,,,,,,,,,,,,,,,,,,,,,1053,2019_Mar_13_1241,mf_amp_cond1,3.0.4,59.9906683944439,
praise,reelectiob,&&&&&&&&&&,left,authority.virtue,,,,,,,0,5,5,5,,,,,,,,,,,,,,,,,,,,,AMP,right,0.31697118844022043,,,right,0,0.31697118844022043,0,,,,,,,,,,,,,,,,,,,,,,1053,2019_Mar_13_1241,mf_amp_cond1,3.0.4,59.9906683944439,
prones,bluently,&&&&&&&&,None,nonword,,,,,,,0,6,6,6,,,,,,,,,,,,,,,,,,,,,AMP,left,1.5839794043859001,,,left,0,1.5839794043859001,0,,,,,,,,,,,,,,,,,,,,,,1053,2019_Mar_13_1241,mf_amp_cond1,3.0.4,59.9906683944439,
threatened,refuejing,&&&&&&&&&,right,fairness.vice,,,,,,,0,7,7,7,,,,,,,,,,,,,,,,,,,,,AMP,left,0.48370130494004115,,,left,0,0.48370130494004115,0,,,,,,,,,,,,,,,,,,,,,,1053,2019_Mar_13_1241,mf_amp_cond1,3.0.4,59.9906683944439,
saned,wump,&&&&,None,nonword,,,,,,,0,8,8,8,,,,,,,,,,,,,,,,,,,,,AMP,left,0.4169943126034923,,,left,0,0.4169943126034923,0,,,,,,,,,,,,,,,,,,,,,,1053,2019_Mar_13_1241,mf_amp_cond1,3.0.4,59.9906683944439,
care,fornicalion,&&&&&&&&&&&,left,care.virtue,,,,,,,0,9,9,9,,,,,,,,,,,,,,,,,,,,,AMP,right,0.25028857111465186,,,right,0,0.25028857111465186,0,,,,,,,,,,,,,,,,,,,,,,1053,2019_Mar_13_1241,mf_amp_cond1,3.0.4,59.9906683944439,
pleasant,chared,&&&&&&,None,control,,,,,,,0,10,10,10,,,,,,,,,,,,,,,,,,,,,AMP,right,0.30031953696743585,,,right,0,0.30031953696743585,0,,,,,,,,,,,,,,,,,,,,,,1053,2019_Mar_13_1241,mf_amp_cond1,3.0.4,59.9906683944439,
violence,tenuflect,&&&&&&&&&,right,care.vice,,,,,,,0,11,11,11,,,,,,,,,,,,,,,,,,,,,AMP,left,0.18360178437433206,,,left,0,0.18360178437433206,0,,,,,,,,,,,,,,,,,,,,,,1053,2019_Mar_13_1241,mf_amp_cond1,3.0.4,59.9906683944439,
drug,greaks,&&&&&&,right,sanctity.vice,,,,,,,0,12,12,12,,,,,,,,,,,,,,,,,,,,,AMP,left,0.3836724077409599,,,left,0,0.3836724077409599,0,,,,,,,,,,,,,,,,,,,,,,1053,2019_Mar_13_1241,mf_amp_cond1,3.0.4,59.9906683944439,
galamitous,pafer,&&&&&,None,nonword,,,,,,,0,13,13,13,,,,,,,,,,,,,,,,,,,,,AMP,left,1.3005517408892047,,,left,0,1.3005517408892047,0,,,,,,,,,,,,,,,,,,,,,,1053,2019_Mar_13_1241,mf_amp_cond1,3.0.4,59.9906683944439,
clean,divility,&&&&&&&&,left,sanctity.virtue,,,,,,,0,14,14,14,,,,,,,,,,,,,,,,,,,,,AMP,right,0.20026754765422083,,,right,0,0.20026754765422083,0,,,,,,,,,,,,,,,,,,,,,,1053,2019_Mar_13_1241,mf_amp_cond1,3.0.4,59.9906683944439,
credit,neutralust,&&&&&&&&&&,left,fairness.virtue,,,,,,,0,15,15,15,,,,,,,,,,,,,,,,,,,,,AMP,right,0.6170251662260853,,,right,0,0.6170251662260853,0,,,,,,,,,,,,,,,,,,,,,,1053,2019_Mar_13_1241,mf_amp_cond1,3.0.4,59.9906683944439,
energy,juck,&&&&,left,sanctity.virtue,,,,,,,0,16,16,16,,,,,,,,,,,,,,,,,,,,,AMP,right,0.6837244611815549,,,right,0,0.6837244611815549,0,,,,,,,,,,,,,,,,,,,,,,1053,2019_Mar_13_1241,mf_amp_cond1,3.0.4,59.9906683944439,
ban,quarterbocks,&&&&&&&&&&&&,right,loyalty.vice,,,,,,,0,17,17,17,,,,,,,,,,,,,,,,,,,,,AMP,left,0.5003497491416056,,,left,0,0.5003497491416056,0,,,,,,,,,,,,,,,,,,,,,,1053,2019_Mar_13_1241,mf_amp_cond1,3.0.4,59.9906683944439,
critics,Oregoniuns,&&&&&&&&&&,right,loyalty.vice,,,,,,,0,18,18,18,,,,,,,,,,,,,,,,,,,,,AMP,left,0.5670307628752198,,,left,0,0.5670307628752198,0,,,,,,,,,,,,,,,,,,,,,,1053,2019_Mar_13_1241,mf_amp_cond1,3.0.4,59.9906683944439,
men,halaise,&&&&&&&,right,loyalty.vice,,,,,,,0,19,19,19,,,,,,,,,,,,,,,,,,,,,AMP,right,0.7504263219307177,,,right,1,0.7504263219307177,1,,,,,,,,,,,,,,,,,,,,,,1053,2019_Mar_13_1241,mf_amp_cond1,3.0.4,59.9906683944439,
trust,precificity,&&&&&&&&&&&,left,authority.virtue,,,,,,,0,20,20,20,,,,,,,,,,,,,,,,,,,,,AMP,right,0.3503347873920575,,,right,0,0.3503347873920575,0,,,,,,,,,,,,,,,,,,,,,,1053,2019_Mar_13_1241,mf_amp_cond1,3.0.4,59.9906683944439,
sexual,synchronazers,&&&&&&&&&&&&&,right,sanctity.vice,,,,,,,0,21,21,21,,,,,,,,,,,,,,,,,,,,,AMP,right,0.7003674530715216,,,right,1,0.7003674530715216,1,,,,,,,,,,,,,,,,,,,,,,1053,2019_Mar_13_1241,mf_amp_cond1,3.0.4,59.9906683944439,
improve,gowlands,&&&&&&&&,left,care.virtue,,,,,,,0,22,22,22,,,,,,,,,,,,,,,,,,,,,AMP,right,0.18361717913649045,,,right,0,0.18361717913649045,0,,,,,,,,,,,,,,,,,,,,,,1053,2019_Mar_13_1241,mf_amp_cond1,3.0.4,59.9906683944439,
illegal,stindig,&&&&&&&,right,fairness.vice,,,,,,,0,23,23,23,,,,,,,,,,,,,,,,,,,,,AMP,left,0.7669493631983642,,,left,0,0.7669493631983642,0,,,,,,,,,,,,,,,,,,,,,,1053,2019_Mar_13_1241,mf_amp_cond1,3.0.4,59.9906683944439,
strong,chonograph,&&&&&&&&&&,left,loyalty.virtue,,,,,,,0,24,24,24,,,,,,,,,,,,,,,,,,,,,AMP,right,0.3003275550727267,,,right,0,0.3003275550727267,0,,,,,,,,,,,,,,,,,,,,,,1053,2019_Mar_13_1241,mf_amp_cond1,3.0.4,59.9906683944439,
commitment,bycled,&&&&&&,left,sanctity.virtue,,,,,,,0,25,25,25,,,,,,,,,,,,,,,,,,,,,AMP,right,0.3669800243806094,,,right,0,0.3669800243806094,0,,,,,,,,,,,,,,,,,,,,,,1053,2019_Mar_13_1241,mf_amp_cond1,3.0.4,59.9906683944439,
fraud,cromiscuity,&&&&&&&&&&&,right,fairness.vice,,,,,,,0,26,26,26,,,,,,,,,,,,,,,,,,,,,AMP,left,0.500373161979951,,,left,0,0.500373161979951,0,,,,,,,,,,,,,,,,,,,,,,1053,2019_Mar_13_1241,mf_amp_cond1,3.0.4,59.9906683944439,
ensure,supervuned,&&&&&&&&&&,left,fairness.virtue,,,,,,,0,27,27,27,,,,,,,,,,,,,,,,,,,,,AMP,right,1.0005003289261367,,,right,0,1.0005003289261367,0,,,,,,,,,,,,,,,,,,,,,,1053,2019_Mar_13_1241,mf_amp_cond1,3.0.4,59.9906683944439,
honored,nomparisons,&&&&&&&&&&&,left,authority.virtue,,,,,,,0,28,28,28,,,,,,,,,,,,,,,,,,,,,AMP,right,0.5336835207999684,,,right,0,0.5336835207999684,0,,,,,,,,,,,,,,,,,,,,,,1053,2019_Mar_13_1241,mf_amp_cond1,3.0.4,59.9906683944439,
injured,perified,&&&&&&&&,right,care.vice,,,,,,,0,29,29,29,,,,,,,,,,,,,,,,,,,,,AMP,left,0.8837812934070826,,,left,0,0.8837812934070826,0,,,,,,,,,,,,,,,,,,,,,,1053,2019_Mar_13_1241,mf_amp_cond1,3.0.4,59.9906683944439,
fonderland,imebreaker,&&&&&&&&&&,None,nonword,,,,,,,0,30,30,30,,,,,,,,,,,,,,,,,,,,,AMP,left,1.300558476097649,,,left,0,1.300558476097649,0,,,,,,,,,,,,,,,,,,,,,,1053,2019_Mar_13_1241,mf_amp_cond1,3.0.4,59.9906683944439,
help,pullness,&&&&&&&&,left,care.virtue,,,,,,,0,31,31,31,,,,,,,,,,,,,,,,,,,,,AMP,right,0.35030528079369105,,,right,0,0.35030528079369105,0,,,,,,,,,,,,,,,,,,,,,,1053,2019_Mar_13_1241,mf_amp_cond1,3.0.4,59.9906683944439,
counpy's,uller,&&&&&,None,nonword,,,,,,,0,32,32,32,,,,,,,,,,,,,,,,,,,,,AMP,left,0.8504683687933721,,,left,0,0.8504683687933721,0,,,,,,,,,,,,,,,,,,,,,,1053,2019_Mar_13_1241,mf_amp_cond1,3.0.4,59.9906683944439,
encourage,letish,&&&&&&,left,authority.virtue,,,,,,,0,33,33,33,,,,,,,,,,,,,,,,,,,,,AMP,right,0.36699349476839416,,,right,0,0.36699349476839416,0,,,,,,,,,,,,,,,,,,,,,,1053,2019_Mar_13_1241,mf_amp_cond1,3.0.4,59.9906683944439,
honstables,chressing,&&&&&&&&&,None,nonword,,,,,,,0,34,34,34,,,,,,,,,,,,,,,,,,,,,AMP,right,0.4003538864781149,,,right,0,0.4003538864781149,0,,,,,,,,,,,,,,,,,,,,,,1053,2019_Mar_13_1241,mf_amp_cond1,3.0.4,59.9906683944439,
photocalkodes,aubos,&&&&&,None,nonword,,,,,,,0,35,35,35,,,,,,,,,,,,,,,,,,,,,AMP,right,0.8170803948596586,,,right,0,0.8170803948596586,0,,,,,,,,,,,,,,,,,,,,,,1053,2019_Mar_13_1241,mf_amp_cond1,3.0.4,59.9906683944439,
interests,rorroborated,&&&&&&&&&&&&,left,fairness.virtue,,,,,,,0,36,36,36,,,,,,,,,,,,,,,,,,,,,AMP,right,0.3670008713961579,,,right,0,0.3670008713961579,0,,,,,,,,,,,,,,,,,,,,,,1053,2019_Mar_13_1241,mf_amp_cond1,3.0.4,59.9906683944439,
great,brotesque,&&&&&&&&&,left,loyalty.virtue,,,,,,,0,37,37,37,,,,,,,,,,,,,,,,,,,,,AMP,right,0.30030863237334415,,,right,0,0.30030863237334415,0,,,,,,,,,,,,,,,,,,,,,,1053,2019_Mar_13_1241,mf_amp_cond1,3.0.4,59.9906683944439,
refused,bruthfulness,&&&&&&&&&&&&,right,authority.vice,,,,,,,0,38,38,38,,,,,,,,,,,,,,,,,,,,,AMP,right,0.5668867579079233,,,right,1,0.5668867579079233,1,,,,,,,,,,,,,,,,,,,,,,1053,2019_Mar_13_1241,mf_amp_cond1,3.0.4,59.9906683944439,
groups,vicissifude,&&&&&&&&&&&,right,loyalty.vice,,,,,,,0,39,39,39,,,,,,,,,,,,,,,,,,,,,AMP,right,0.4003323979850393,,,right,1,0.4003323979850393,1,,,,,,,,,,,,,,,,,,,,,,1053,2019_Mar_13_1241,mf_amp_cond1,3.0.4,59.9906683944439,
scandal,feleological,&&&&&&&&&&&&,right,sanctity.vice,,,,,,,0,40,40,40,,,,,,,,,,,,,,,,,,,,,AMP,left,0.4169943126325961,,,left,0,0.4169943126325961,0,,,,,,,,,,,,,,,,,,,,,,1053,2019_Mar_13_1241,mf_amp_cond1,3.0.4,59.9906683944439,
death,framatic,&&&&&&&&,right,care.vice,,,,,,,0,41,41,41,,,,,,,,,,,,,,,,,,,,,AMP,left,0.38366503108409233,,,left,0,0.38366503108409233,0,,,,,,,,,,,,,,,,,,,,,,1053,2019_Mar_13_1241,mf_amp_cond1,3.0.4,59.9906683944439,
perfect,ning,&&&&,left,sanctity.virtue,,,,,,,0,42,42,42,,,,,,,,,,,,,,,,,,,,,AMP,right,0.45020941650727764,,,right,0,0.45020941650727764,0,,,,,,,,,,,,,,,,,,,,,,1053,2019_Mar_13_1241,mf_amp_cond1,3.0.4,59.9906683944439,
opportunity,baladroit,&&&&&&&&&,left,fairness.virtue,,,,,,,0,43,43,43,,,,,,,,,,,,,,,,,,,,,AMP,right,0.4336818851297721,,,right,0,0.4336818851297721,0,,,,,,,,,,,,,,,,,,,,,,1053,2019_Mar_13_1241,mf_amp_cond1,3.0.4,59.9906683944439,
values,fostet,&&&&&&,left,sanctity.virtue,,,,,,,0,44,44,44,,,,,,,,,,,,,,,,,,,,,AMP,right,0.31697022626758553,,,right,0,0.31697022626758553,0,,,,,,,,,,,,,,,,,,,,,,1053,2019_Mar_13_1241,mf_amp_cond1,3.0.4,59.9906683944439,
suicide,suggists,&&&&&&&&,right,care.vice,,,,,,,0,45,45,45,,,,,,,,,,,,,,,,,,,,,AMP,left,0.4003570937202312,,,left,0,0.4003570937202312,0,,,,,,,,,,,,,,,,,,,,,,1053,2019_Mar_13_1241,mf_amp_cond1,3.0.4,59.9906683944439,
fighters,faspberry,&&&&&&&&&,right,authority.vice,,,,,,,0,46,46,46,,,,,,,,,,,,,,,,,,,,,AMP,left,0.7003979218425229,,,left,0,0.7003979218425229,0,,,,,,,,,,,,,,,,,,,,,,1053,2019_Mar_13_1241,mf_amp_cond1,3.0.4,59.9906683944439,
serial,unreflectuve,&&&&&&&&&&&&,right,sanctity.vice,,,,,,,0,47,47,47,,,,,,,,,,,,,,,,,,,,,AMP,left,0.5003584086953197,,,left,0,0.5003584086953197,0,,,,,,,,,,,,,,,,,,,,,,1053,2019_Mar_13_1241,mf_amp_cond1,3.0.4,59.9906683944439,
celebrated,reviked,&&&&&&&,left,authority.virtue,,,,,,,0,48,48,48,,,,,,,,,,,,,,,,,,,,,AMP,right,0.36698483521468006,,,right,0,0.36698483521468006,0,,,,,,,,,,,,,,,,,,,,,,1053,2019_Mar_13_1241,mf_amp_cond1,3.0.4,59.9906683944439,
unpleasant,abointment,&&&&&&&&&&,None,control,,,,,,,0,49,49,49,,,,,,,,,,,,,,,,,,,,,AMP,left,0.7170851736154873,,,left,0,0.7170851736154873,0,,,,,,,,,,,,,,,,,,,,,,1053,2019_Mar_13_1241,mf_amp_cond1,3.0.4,59.9906683944439,
party,metibolic,&&&&&&&&&,left,loyalty.virtue,,,,,,,0,50,50,50,,,,,,,,,,,,,,,,,,,,,AMP,right,0.3669829108985141,,,right,0,0.3669829108985141,0,,,,,,,,,,,,,,,,,,,,,,1053,2019_Mar_13_1241,mf_amp_cond1,3.0.4,59.9906683944439,
benefit,emassion,&&&&&&&&,left,fairness.virtue,,,,,,,0,51,51,51,,,,,,,,,,,,,,,,,,,,,AMP,right,0.3503280521836132,,,right,0,0.3503280521836132,0,,,,,,,,,,,,,,,,,,,,,,1053,2019_Mar_13_1241,mf_amp_cond1,3.0.4,59.9906683944439,
increase,touls,&&&&&,left,care.virtue,,,,,,,0,52,52,52,,,,,,,,,,,,,,,,,,,,,AMP,right,0.7837559241743293,,,right,0,0.7837559241743293,0,,,,,,,,,,,,,,,,,,,,,,1053,2019_Mar_13_1241,mf_amp_cond1,3.0.4,59.9906683944439,
conspiracy,egpeditious,&&&&&&&&&&&,right,sanctity.vice,,,,,,,0,53,53,53,,,,,,,,,,,,,,,,,,,,,AMP,left,0.5337056507414673,,,left,0,0.5337056507414673,0,,,,,,,,,,,,,,,,,,,,,,1053,2019_Mar_13_1241,mf_amp_cond1,3.0.4,59.9906683944439,
rebels,simplustic,&&&&&&&&&&,right,authority.vice,,,,,,,0,54,54,54,,,,,,,,,,,,,,,,,,,,,AMP,left,0.483672439790098,,,left,0,0.483672439790098,0,,,,,,,,,,,,,,,,,,,,,,1053,2019_Mar_13_1241,mf_amp_cond1,3.0.4,59.9906683944439,
racist,laming,&&&&&&,right,sanctity.vice,,,,,,,0,55,55,55,,,,,,,,,,,,,,,,,,,,,AMP,left,0.6503881237294991,,,left,0,0.6503881237294991,0,,,,,,,,,,,,,,,,,,,,,,1053,2019_Mar_13_1241,mf_amp_cond1,3.0.4,59.9906683944439,
health,lursuer,&&&&&&&,left,care.virtue,,,,,,,0,56,56,56,,,,,,,,,,,,,,,,,,,,,AMP,right,0.2836390204029158,,,right,0,0.2836390204029158,0,,,,,,,,,,,,,,,,,,,,,,1053,2019_Mar_13_1241,mf_amp_cond1,3.0.4,59.9906683944439,
penalty,edancipation,&&&&&&&&&&&&,right,authority.vice,,,,,,,0,57,57,57,,,,,,,,,,,,,,,,,,,,,AMP,right,0.6003722318564542,,,right,1,0.6003722318564542,1,,,,,,,,,,,,,,,,,,,,,,1053,2019_Mar_13_1241,mf_amp_cond1,3.0.4,59.9906683944439,
tabin,gazily,&&&&&&,None,nonword,,,,,,,0,58,58,58,,,,,,,,,,,,,,,,,,,,,AMP,right,0.5170309071836527,,,right,0,0.5170309071836527,0,,,,,,,,,,,,,,,,,,,,,,1053,2019_Mar_13_1241,mf_amp_cond1,3.0.4,59.9906683944439,
hate,squets,&&&&&&,right,fairness.vice,,,,,,,0,59,59,59,,,,,,,,,,,,,,,,,,,,,AMP,left,0.3503229206253309,,,left,0,0.3503229206253309,0,,,,,,,,,,,,,,,,,,,,,,1053,2019_Mar_13_1241,mf_amp_cond1,3.0.4,59.9906683944439,
terrorist,seachwear,&&&&&&&&&,right,loyalty.vice,,,,,,,0,60,60,60,,,,,,,,,,,,,,,,,,,,,AMP,left,0.48367660920484923,,,left,0,0.48367660920484923,0,,,,,,,,,,,,,,,,,,,,,,1053,2019_Mar_13_1241,mf_amp_cond1,3.0.4,59.9906683944439,
gun,ittutable,&&&&&&&&&,right,authority.vice,,,,,,,0,61,61,61,,,,,,,,,,,,,,,,,,,,,AMP,left,0.30033813894260675,,,left,0,0.30033813894260675,0,,,,,,,,,,,,,,,,,,,,,,1053,2019_Mar_13_1241,mf_amp_cond1,3.0.4,59.9906683944439,
failure,gondensed,&&&&&&&&&,right,loyalty.vice,,,,,,,0,62,62,62,,,,,,,,,,,,,,,,,,,,,AMP,left,0.8671341320732608,,,left,0,0.8671341320732608,0,,,,,,,,,,,,,,,,,,,,,,1053,2019_Mar_13_1241,mf_amp_cond1,3.0.4,59.9906683944439,
ebbitter,Phintoism,&&&&&&&&&,None,nonword,,,,,,,0,63,63,63,,,,,,,,,,,,,,,,,,,,,AMP,right,0.8504449559550267,,,right,0,0.8504449559550267,0,,,,,,,,,,,,,,,,,,,,,,1053,2019_Mar_13_1241,mf_amp_cond1,3.0.4,59.9906683944439,
good,ronviolence,&&&&&&&&&&&,left,care.virtue,,,,,,,0,64,64,64,,,,,,,,,,,,,,,,,,,,,AMP,right,0.5837016577133909,,,right,0,0.5837016577133909,0,,,,,,,,,,,,,,,,,,,,,,1053,2019_Mar_13_1241,mf_amp_cond1,3.0.4,59.9906683944439,
promises,proached,&&&&&&&&,left,fairness.virtue,,,,,,,0,65,65,65,,,,,,,,,,,,,,,,,,,,,AMP,right,0.2502853638725355,,,right,0,0.2502853638725355,0,,,,,,,,,,,,,,,,,,,,,,1053,2019_Mar_13_1241,mf_amp_cond1,3.0.4,59.9906683944439,
lies,menizen,&&&&&&&,right,fairness.vice,,,,,,,0,66,66,66,,,,,,,,,,,,,,,,,,,,,AMP,left,0.38365765442722477,,,left,0,0.38365765442722477,0,,,,,,,,,,,,,,,,,,,,,,1053,2019_Mar_13_1241,mf_amp_cond1,3.0.4,59.9906683944439,
corruption,frojecting,&&&&&&&&&&,right,sanctity.vice,,,,,,,0,67,67,67,,,,,,,,,,,,,,,,,,,,,AMP,left,0.6504025562899187,,,left,0,0.6504025562899187,0,,,,,,,,,,,,,,,,,,,,,,1053,2019_Mar_13_1241,mf_amp_cond1,3.0.4,59.9906683944439,
voter,tislay,&&&&&&,right,fairness.vice,,,,,,,0,68,68,68,,,,,,,,,,,,,,,,,,,,,AMP,left,0.40033015291555785,,,left,0,0.40033015291555785,0,,,,,,,,,,,,,,,,,,,,,,1053,2019_Mar_13_1241,mf_amp_cond1,3.0.4,59.9906683944439,
prosecution,gillipede,&&&&&&&&&,right,authority.vice,,,,,,,0,69,69,69,,,,,,,,,,,,,,,,,,,,,AMP,left,0.4670288064517081,,,left,0,0.4670288064517081,0,,,,,,,,,,,,,,,,,,,,,,1053,2019_Mar_13_1241,mf_amp_cond1,3.0.4,59.9906683944439,
embrace,Lacedonia,&&&&&&&&&,left,authority.virtue,,,,,,,0,70,70,70,,,,,,,,,,,,,,,,,,,,,AMP,left,0.6337207568285521,,,left,1,0.6337207568285521,1,,,,,,,,,,,,,,,,,,,,,,1053,2019_Mar_13_1241,mf_amp_cond1,3.0.4,59.9906683944439,
growth,rivernoat,&&&&&&&&&,left,care.virtue,,,,,,,0,71,71,71,,,,,,,,,,,,,,,,,,,,,AMP,right,0.3336978892039042,,,right,0,0.3336978892039042,0,,,,,,,,,,,,,,,,,,,,,,1053,2019_Mar_13_1241,mf_amp_cond1,3.0.4,59.9906683944439,
win,troubla,&&&&&&&,left,fairness.virtue,,,,,,,0,72,72,72,,,,,,,,,,,,,,,,,,,,,AMP,right,0.4003400953661185,,,right,0,0.4003400953661185,0,,,,,,,,,,,,,,,,,,,,,,1053,2019_Mar_13_1241,mf_amp_cond1,3.0.4,59.9906683944439,
peaceful,atson,&&&&&,left,authority.virtue,,,,,,,0,73,73,73,,,,,,,,,,,,,,,,,,,,,AMP,right,0.43364275683416054,,,right,0,0.43364275683416054,0,,,,,,,,,,,,,,,,,,,,,,1053,2019_Mar_13_1241,mf_amp_cond1,3.0.4,59.9906683944439,
strength,mightingale,&&&&&&&&&&&,left,sanctity.virtue,,,,,,,0,74,74,74,,,,,,,,,,,,,,,,,,,,,AMP,right,0.3669774585578125,,,right,0,0.3669774585578125,0,,,,,,,,,,,,,,,,,,,,,,1053,2019_Mar_13_1241,mf_amp_cond1,3.0.4,59.9906683944439,
faith,hatigue,&&&&&&&,left,sanctity.virtue,,,,,,,0,75,75,75,,,,,,,,,,,,,,,,,,,,,AMP,right,0.3836191676091403,,,right,0,0.3836191676091403,0,,,,,,,,,,,,,,,,,,,,,,1053,2019_Mar_13_1241,mf_amp_cond1,3.0.4,59.9906683944439,
shot,sonvoy,&&&&&&,right,care.vice,,,,,,,0,76,76,76,,,,,,,,,,,,,,,,,,,,,AMP,left,0.43366007588338107,,,left,0,0.43366007588338107,0,,,,,,,,,,,,,,,,,,,,,,1053,2019_Mar_13_1241,mf_amp_cond1,3.0.4,59.9906683944439,
died,grovelire,&&&&&&&&&,right,care.vice,,,,,,,0,77,77,77,,,,,,,,,,,,,,,,,,,,,AMP,left,0.5170158331748098,,,left,0,0.5170158331748098,0,,,,,,,,,,,,,,,,,,,,,,1053,2019_Mar_13_1241,mf_amp_cond1,3.0.4,59.9906683944439,
victim,mecan,&&&&&,right,care.vice,,,,,,,0,78,78,78,,,,,,,,,,,,,,,,,,,,,AMP,right,1.200536314107012,,,right,1,1.200536314107012,1,,,,,,,,,,,,,,,,,,,,,,1053,2019_Mar_13_1241,mf_amp_cond1,3.0.4,59.9906683944439,
sharing,smapper,&&&&&&&,left,loyalty.virtue,,,,,,,0,79,79,79,,,,,,,,,,,,,,,,,,,,,AMP,left,0.5503544156963471,,,left,1,0.5503544156963471,1,,,,,,,,,,,,,,,,,,,,,,1053,2019_Mar_13_1241,mf_amp_cond1,3.0.4,59.9906683944439,
intelligence,leact,&&&&&,left,loyalty.virtue,,,,,,,0,80,80,80,,,,,,,,,,,,,,,,,,,,,AMP,right,0.6670728097087704,,,right,0,0.6670728097087704,0,,,,,,,,,,,,,,,,,,,,,,1053,2019_Mar_13_1241,mf_amp_cond1,3.0.4,59.9906683944439,
Daptist,Loorish,&&&&&&&,None,nonword,,,,,,,0,81,81,81,,,,,,,,,,,,,,,,,,,,,AMP,left,0.5170267377689015,,,left,0,0.5170267377689015,0,,,,,,,,,,,,,,,,,,,,,,1053,2019_Mar_13_1241,mf_amp_cond1,3.0.4,59.9906683944439,
terrorist,vicissifude,&&&&&&&&&&&,right,loyalty.vice,,,,,,,0,82,82,82,,,,,,,,,,,,,,,,,,,,,AMP,right,0.617050182656385,,,right,1,0.617050182656385,1,,,,,,,,,,,,,,,,,,,,,,1053,2019_Mar_13_1241,mf_amp_cond1,3.0.4,59.9906683944439,
illegal,stindig,&&&&&&&,right,fairness.vice,,,,,,,0,83,83,83,,,,,,,,,,,,,,,,,,,,,AMP,right,0.7838441231870092,,,right,1,0.7838441231870092,1,,,,,,,,,,,,,,,,,,,,,,1053,2019_Mar_13_1241,mf_amp_cond1,3.0.4,59.9906683944439,
conspiracy,neutralust,&&&&&&&&&&,right,sanctity.vice,,,,,,,0,84,84,84,,,,,,,,,,,,,,,,,,,,,AMP,left,0.8004197631089482,,,left,0,0.8004197631089482,0,,,,,,,,,,,,,,,,,,,,,,1053,2019_Mar_13_1241,mf_amp_cond1,3.0.4,59.9906683944439,
honored,framatic,&&&&&&&&,left,authority.virtue,,,,,,,0,85,85,85,,,,,,,,,,,,,,,,,,,,,AMP,right,0.4503377059591003,,,right,0,0.4503377059591003,0,,,,,,,,,,,,,,,,,,,,,,1053,2019_Mar_13_1241,mf_amp_cond1,3.0.4,59.9906683944439,
good,ittutable,&&&&&&&&&,left,care.virtue,,,,,,,0,86,86,86,,,,,,,,,,,,,,,,,,,,,AMP,right,0.5003657853230834,,,right,0,0.5003657853230834,0,,,,,,,,,,,,,,,,,,,,,,1053,2019_Mar_13_1241,mf_amp_cond1,3.0.4,59.9906683944439,
hope,baladroit,&&&&&&&&&,left,loyalty.virtue,,,,,,,0,87,87,87,,,,,,,,,,,,,,,,,,,,,AMP,right,0.46697556631988846,,,right,0,0.46697556631988846,0,,,,,,,,,,,,,,,,,,,,,,1053,2019_Mar_13_1241,mf_amp_cond1,3.0.4,59.9906683944439,
hate,chressing,&&&&&&&&&,right,fairness.vice,,,,,,,0,88,88,88,,,,,,,,,,,,,,,,,,,,,AMP,left,0.9504789847414941,,,left,0,0.9504789847414941,0,,,,,,,,,,,,,,,,,,,,,,1053,2019_Mar_13_1241,mf_amp_cond1,3.0.4,59.9906683944439,
fraud,abointment,&&&&&&&&&&,right,fairness.vice,,,,,,,0,89,89,89,,,,,,,,,,,,,,,,,,,,,AMP,left,1.4172550609509926,,,left,0,1.4172550609509926,0,,,,,,,,,,,,,,,,,,,,,,1053,2019_Mar_13_1241,mf_amp_cond1,3.0.4,59.9906683944439,
encourage,smapper,&&&&&&&,left,authority.virtue,,,,,,,0,90,90,90,,,,,,,,,,,,,,,,,,,,,AMP,right,0.5503733383666258,,,right,0,0.5503733383666258,0,,,,,,,,,,,,,,,,,,,,,,1053,2019_Mar_13_1241,mf_amp_cond1,3.0.4,59.9906683944439,
growth,brotesque,&&&&&&&&&,left,care.virtue,,,,,,,0,91,91,91,,,,,,,,,,,,,,,,,,,,,AMP,right,0.4170398553542327,,,right,0,0.4170398553542327,0,,,,,,,,,,,,,,,,,,,,,,1053,2019_Mar_13_1241,mf_amp_cond1,3.0.4,59.9906683944439,
prosecution,mecan,&&&&&,right,authority.vice,,,,,,,0,92,92,92,,,,,,,,,,,,,,,,,,,,,AMP,right,1.6006384324864484,,,right,1,1.6006384324864484,1,,,,,,,,,,,,,,,,,,,,,,1053,2019_Mar_13_1241,mf_amp_cond1,3.0.4,59.9906683944439,
friends,bluently,&&&&&&&&,left,loyalty.virtue,,,,,,,0,93,93,93,,,,,,,,,,,,,,,,,,,,,AMP,right,0.5170161538990214,,,right,0,0.5170161538990214,0,,,,,,,,,,,,,,,,,,,,,,1053,2019_Mar_13_1241,mf_amp_cond1,3.0.4,59.9906683944439,
critics,reelectiob,&&&&&&&&&&,right,loyalty.vice,,,,,,,0,94,94,94,,,,,,,,,,,,,,,,,,,,,AMP,left,0.4836810993438121,,,left,0,0.4836810993438121,0,,,,,,,,,,,,,,,,,,,,,,1053,2019_Mar_13_1241,mf_amp_cond1,3.0.4,59.9906683944439,
faith,perified,&&&&&&&&,left,sanctity.virtue,,,,,,,0,95,95,95,,,,,,,,,,,,,,,,,,,,,AMP,right,0.5003516734868754,,,right,0,0.5003516734868754,0,,,,,,,,,,,,,,,,,,,,,,1053,2019_Mar_13_1241,mf_amp_cond1,3.0.4,59.9906683944439,
commitment,chonograph,&&&&&&&&&&,left,sanctity.virtue,,,,,,,0,96,96,96,,,,,,,,,,,,,,,,,,,,,AMP,right,0.533698915533023,,,right,0,0.533698915533023,0,,,,,,,,,,,,,,,,,,,,,,1053,2019_Mar_13_1241,mf_amp_cond1,3.0.4,59.9906683944439,
pleasant,supervuned,&&&&&&&&&&,None,control,,,,,,,0,97,97,97,,,,,,,,,,,,,,,,,,,,,AMP,right,0.43365654794615693,,,right,0,0.43365654794615693,0,,,,,,,,,,,,,,,,,,,,,,1053,2019_Mar_13_1241,mf_amp_cond1,3.0.4,59.9906683944439,
voter,ronviolence,&&&&&&&&&&&,right,fairness.vice,,,,,,,0,98,98,98,,,,,,,,,,,,,,,,,,,,,AMP,left,0.4670162982074544,,,left,0,0.4670162982074544,0,,,,,,,,,,,,,,,,,,,,,,1053,2019_Mar_13_1241,mf_amp_cond1,3.0.4,59.9906683944439,
counpy's,wump,&&&&,None,nonword,,,,,,,0,99,99,99,,,,,,,,,,,,,,,,,,,,,AMP,left,0.4170106695382856,,,left,0,0.4170106695382856,0,,,,,,,,,,,,,,,,,,,,,,1053,2019_Mar_13_1241,mf_amp_cond1,3.0.4,59.9906683944439,
benefit,cromiscuity,&&&&&&&&&&&,left,fairness.virtue,,,,,,,0,100,100,100,,,,,,,,,,,,,,,,,,,,,AMP,right,0.4336620002577547,,,right,0,0.4336620002577547,0,,,,,,,,,,,,,,,,,,,,,,1053,2019_Mar_13_1241,mf_amp_cond1,3.0.4,59.9906683944439,
violence,aubos,&&&&&,right,care.vice,,,,,,,0,101,101,101,,,,,,,,,,,,,,,,,,,,,AMP,left,1.317223918653326,,,left,0,1.317223918653326,0,,,,,,,,,,,,,,,,,,,,,,1053,2019_Mar_13_1241,mf_amp_cond1,3.0.4,59.9906683944439,
praise,gondensed,&&&&&&&&&,left,authority.virtue,,,,,,,0,102,102,102,,,,,,,,,,,,,,,,,,,,,AMP,right,0.43367130123078823,,,right,0,0.43367130123078823,0,,,,,,,,,,,,,,,,,,,,,,1053,2019_Mar_13_1241,mf_amp_cond1,3.0.4,59.9906683944439,
saned,uller,&&&&&,None,nonword,,,,,,,0,103,103,103,,,,,,,,,,,,,,,,,,,,,AMP,left,0.28364960427279584,,,left,0,0.28364960427279584,0,,,,,,,,,,,,,,,,,,,,,,1053,2019_Mar_13_1241,mf_amp_cond1,3.0.4,59.9906683944439,
failure,proached,&&&&&&&&,right,loyalty.vice,,,,,,,0,104,104,104,,,,,,,,,,,,,,,,,,,,,AMP,left,0.5337008398782928,,,left,0,0.5337008398782928,0,,,,,,,,,,,,,,,,,,,,,,1053,2019_Mar_13_1241,mf_amp_cond1,3.0.4,59.9906683944439,
died,greaks,&&&&&&,right,care.vice,,,,,,,0,105,105,105,,,,,,,,,,,,,,,,,,,,,AMP,left,0.46701212879270315,,,left,0,0.46701212879270315,0,,,,,,,,,,,,,,,,,,,,,,1053,2019_Mar_13_1241,mf_amp_cond1,3.0.4,59.9906683944439,
scandal,halaise,&&&&&&&,right,sanctity.vice,,,,,,,0,106,106,106,,,,,,,,,,,,,,,,,,,,,AMP,left,0.6837302341882605,,,left,0,0.6837302341882605,0,,,,,,,,,,,,,,,,,,,,,,1053,2019_Mar_13_1241,mf_amp_cond1,3.0.4,59.9906683944439,
death,pafer,&&&&&,right,care.vice,,,,,,,0,107,107,107,,,,,,,,,,,,,,,,,,,,,AMP,left,0.45033032933133654,,,left,0,0.45033032933133654,0,,,,,,,,,,,,,,,,,,,,,,1053,2019_Mar_13_1241,mf_amp_cond1,3.0.4,59.9906683944439,
clean,unreflectuve,&&&&&&&&&&&&,left,sanctity.virtue,,,,,,,0,108,108,108,,,,,,,,,,,,,,,,,,,,,AMP,right,0.4336680939886719,,,right,0,0.4336680939886719,0,,,,,,,,,,,,,,,,,,,,,,1053,2019_Mar_13_1241,mf_amp_cond1,3.0.4,59.9906683944439,
credit,tenuflect,&&&&&&&&&,left,fairness.virtue,,,,,,,0,109,109,109,,,,,,,,,,,,,,,,,,,,,AMP,right,0.46698935743188486,,,right,0,0.46698935743188486,0,,,,,,,,,,,,,,,,,,,,,,1053,2019_Mar_13_1241,mf_amp_cond1,3.0.4,59.9906683944439,
accused,rorroborated,&&&&&&&&&&&&,right,fairness.vice,,,,,,,0,110,110,110,,,,,,,,,,,,,,,,,,,,,AMP,right,0.5003497491707094,,,right,1,0.5003497491707094,1,,,,,,,,,,,,,,,,,,,,,,1053,2019_Mar_13_1241,mf_amp_cond1,3.0.4,59.9906683944439,
improve,imebreaker,&&&&&&&&&&,left,care.virtue,,,,,,,0,111,111,111,,,,,,,,,,,,,,,,,,,,,AMP,right,1.1838670228607953,,,right,0,1.1838670228607953,0,,,,,,,,,,,,,,,,,,,,,,1053,2019_Mar_13_1241,mf_amp_cond1,3.0.4,59.9906683944439,
values,laming,&&&&&&,left,sanctity.virtue,,,,,,,0,112,112,112,,,,,,,,,,,,,,,,,,,,,AMP,right,0.5336896145308856,,,right,0,0.5336896145308856,0,,,,,,,,,,,,,,,,,,,,,,1053,2019_Mar_13_1241,mf_amp_cond1,3.0.4,59.9906683944439,
injured,tislay,&&&&&&,right,care.vice,,,,,,,0,113,113,113,,,,,,,,,,,,,,,,,,,,,AMP,left,0.5670217825972941,,,left,0,0.5670217825972941,0,,,,,,,,,,,,,,,,,,,,,,1053,2019_Mar_13_1241,mf_amp_cond1,3.0.4,59.9906683944439,
trust,feleological,&&&&&&&&&&&&,left,authority.virtue,,,,,,,0,114,114,114,,,,,,,,,,,,,,,,,,,,,AMP,right,0.45034412044333294,,,right,0,0.45034412044333294,0,,,,,,,,,,,,,,,,,,,,,,1053,2019_Mar_13_1241,mf_amp_cond1,3.0.4,59.9906683944439,
unpleasant,pullness,&&&&&&&&,None,control,,,,,,,0,115,115,115,,,,,,,,,,,,,,,,,,,,,AMP,left,0.5337034056719858,,,left,0,0.5337034056719858,0,,,,,,,,,,,,,,,,,,,,,,1053,2019_Mar_13_1241,mf_amp_cond1,3.0.4,59.9906683944439,
rebels,hescribe,&&&&&&&&,right,authority.vice,,,,,,,0,116,116,116,,,,,,,,,,,,,,,,,,,,,AMP,left,0.8337647601147182,,,left,0,0.8337647601147182,0,,,,,,,,,,,,,,,,,,,,,,1053,2019_Mar_13_1241,mf_amp_cond1,3.0.4,59.9906683944439,
refused,atson,&&&&&,right,authority.vice,,,,,,,0,117,117,117,,,,,,,,,,,,,,,,,,,,,AMP,left,0.5003612952132244,,,left,0,0.5003612952132244,0,,,,,,,,,,,,,,,,,,,,,,1053,2019_Mar_13_1241,mf_amp_cond1,3.0.4,59.9906683944439,
threatened,gowlands,&&&&&&&&,right,fairness.vice,,,,,,,0,118,118,118,,,,,,,,,,,,,,,,,,,,,AMP,right,0.9337914122152142,,,right,1,0.9337914122152142,1,,,,,,,,,,,,,,,,,,,,,,1053,2019_Mar_13_1241,mf_amp_cond1,3.0.4,59.9906683944439,
intelligence,divility,&&&&&&&&,left,loyalty.virtue,,,,,,,0,119,119,119,,,,,,,,,,,,,,,,,,,,,AMP,right,0.533695387566695,,,right,0,0.533695387566695,0,,,,,,,,,,,,,,,,,,,,,,1053,2019_Mar_13_1241,mf_amp_cond1,3.0.4,59.9906683944439,
suicide,touls,&&&&&,right,care.vice,,,,,,,0,120,120,120,,,,,,,,,,,,,,,,,,,,,AMP,left,0.5670249898394104,,,left,0,0.5670249898394104,0,,,,,,,,,,,,,,,,,,,,,,1053,2019_Mar_13_1241,mf_amp_cond1,3.0.4,59.9906683944439,
celebrated,clattening,&&&&&&&&&&,left,authority.virtue,,,,,,,0,121,121,121,,,,,,,,,,,,,,,,,,,,,AMP,right,0.9337830734439194,,,right,0,0.9337830734439194,0,,,,,,,,,,,,,,,,,,,,,,1053,2019_Mar_13_1241,mf_amp_cond1,3.0.4,59.9906683944439,
honstables,leact,&&&&&,None,nonword,,,,,,,0,122,122,122,,,,,,,,,,,,,,,,,,,,,AMP,left,1.01714460371295,,,left,0,1.01714460371295,0,,,,,,,,,,,,,,,,,,,,,,1053,2019_Mar_13_1241,mf_amp_cond1,3.0.4,59.9906683944439,
peaceful,fornicalion,&&&&&&&&&&&,left,authority.virtue,,,,,,,0,123,123,123,,,,,,,,,,,,,,,,,,,,,AMP,right,0.7837312284682412,,,right,0,0.7837312284682412,0,,,,,,,,,,,,,,,,,,,,,,1053,2019_Mar_13_1241,mf_amp_cond1,3.0.4,59.9906683944439,
galamitous,simplustic,&&&&&&&&&&,None,nonword,,,,,,,0,124,124,124,,,,,,,,,,,,,,,,,,,,,AMP,right,0.7837665080442093,,,right,0,0.7837665080442093,0,,,,,,,,,,,,,,,,,,,,,,1053,2019_Mar_13_1241,mf_amp_cond1,3.0.4,59.9906683944439,
lies,squets,&&&&&&,right,fairness.vice,,,,,,,0,125,125,125,,,,,,,,,,,,,,,,,,,,,AMP,left,0.4670057143375743,,,left,0,0.4670057143375743,0,,,,,,,,,,,,,,,,,,,,,,1053,2019_Mar_13_1241,mf_amp_cond1,3.0.4,59.9906683944439,
opportunity,grovelire,&&&&&&&&&,left,fairness.virtue,,,,,,,0,126,126,126,,,,,,,,,,,,,,,,,,,,,AMP,right,0.38367882219608873,,,right,0,0.38367882219608873,0,,,,,,,,,,,,,,,,,,,,,,1053,2019_Mar_13_1241,mf_amp_cond1,3.0.4,59.9906683944439,
racist,egpeditious,&&&&&&&&&&&,right,sanctity.vice,,,,,,,0,127,127,127,,,,,,,,,,,,,,,,,,,,,AMP,left,0.733743880991824,,,left,0,0.733743880991824,0,,,,,,,,,,,,,,,,,,,,,,1053,2019_Mar_13_1241,mf_amp_cond1,3.0.4,59.9906683944439,
help,menizen,&&&&&&&,left,care.virtue,,,,,,,0,128,128,128,,,,,,,,,,,,,,,,,,,,,AMP,right,0.35032484494149685,,,right,0,0.35032484494149685,0,,,,,,,,,,,,,,,,,,,,,,1053,2019_Mar_13_1241,mf_amp_cond1,3.0.4,59.9906683944439,
sharing,sonvoy,&&&&&&,left,loyalty.virtue,,,,,,,0,129,129,129,,,,,,,,,,,,,,,,,,,,,AMP,right,0.4003298321913462,,,right,0,0.4003298321913462,0,,,,,,,,,,,,,,,,,,,,,,1053,2019_Mar_13_1241,mf_amp_cond1,3.0.4,59.9906683944439,
corruption,bruthfulness,&&&&&&&&&&&&,right,sanctity.vice,,,,,,,0,130,130,130,,,,,,,,,,,,,,,,,,,,,AMP,left,0.7170752311940305,,,left,0,0.7170752311940305,0,,,,,,,,,,,,,,,,,,,,,,1053,2019_Mar_13_1241,mf_amp_cond1,3.0.4,59.9906683944439,
riot,hatigue,&&&&&&&,right,authority.vice,,,,,,,0,131,131,131,,,,,,,,,,,,,,,,,,,,,AMP,left,0.4169955955003388,,,left,0,0.4169955955003388,0,,,,,,,,,,,,,,,,,,,,,,1053,2019_Mar_13_1241,mf_amp_cond1,3.0.4,59.9906683944439,
gun,refuejing,&&&&&&&&&,right,authority.vice,,,,,,,0,132,132,132,,,,,,,,,,,,,,,,,,,,,AMP,left,0.7003902244614437,,,left,0,0.7003902244614437,0,,,,,,,,,,,,,,,,,,,,,,1053,2019_Mar_13_1241,mf_amp_cond1,3.0.4,59.9906683944439,
promises,edancipation,&&&&&&&&&&&&,left,fairness.virtue,,,,,,,0,133,133,133,,,,,,,,,,,,,,,,,,,,,AMP,right,0.43366039663669653,,,right,0,0.43366039663669653,0,,,,,,,,,,,,,,,,,,,,,,1053,2019_Mar_13_1241,mf_amp_cond1,3.0.4,59.9906683944439,
perfect,seachwear,&&&&&&&&&,left,sanctity.virtue,,,,,,,0,134,134,134,,,,,,,,,,,,,,,,,,,,,AMP,right,0.5336928218021058,,,right,0,0.5336928218021058,0,,,,,,,,,,,,,,,,,,,,,,1053,2019_Mar_13_1241,mf_amp_cond1,3.0.4,59.9906683944439,
Daptist,totalestic,&&&&&&&&&&,None,nonword,,,,,,,0,135,135,135,,,,,,,,,,,,,,,,,,,,,AMP,left,0.5503762248845305,,,left,0,0.5503762248845305,0,,,,,,,,,,,,,,,,,,,,,,1053,2019_Mar_13_1241,mf_amp_cond1,3.0.4,59.9906683944439,
party,rivernoat,&&&&&&&&&,left,loyalty.virtue,,,,,,,0,136,136,136,,,,,,,,,,,,,,,,,,,,,AMP,right,0.3670069651561789,,,right,0,0.3670069651561789,0,,,,,,,,,,,,,,,,,,,,,,1053,2019_Mar_13_1241,mf_amp_cond1,3.0.4,59.9906683944439,
energy,juck,&&&&,left,sanctity.virtue,,,,,,,0,137,137,137,,,,,,,,,,,,,,,,,,,,,AMP,right,1.6006358667218592,,,right,0,1.6006358667218592,0,,,,,,,,,,,,,,,,,,,,,,1053,2019_Mar_13_1241,mf_amp_cond1,3.0.4,59.9906683944439,
shot,emassion,&&&&&&&&,right,care.vice,,,,,,,0,138,138,138,,,,,,,,,,,,,,,,,,,,,AMP,left,1.067166589316912,,,left,0,1.067166589316912,0,,,,,,,,,,,,,,,,,,,,,,1053,2019_Mar_13_1241,mf_amp_cond1,3.0.4,59.9906683944439,
win,precificity,&&&&&&&&&&&,left,fairness.virtue,,,,,,,0,139,139,139,,,,,,,,,,,,,,,,,,,,,AMP,right,0.3003051044070162,,,right,0,0.3003051044070162,0,,,,,,,,,,,,,,,,,,,,,,1053,2019_Mar_13_1241,mf_amp_cond1,3.0.4,59.9906683944439,
strong,lursuer,&&&&&&&,left,loyalty.virtue,,,,,,,0,140,140,140,,,,,,,,,,,,,,,,,,,,,AMP,right,0.30030574585543945,,,right,0,0.30030574585543945,0,,,,,,,,,,,,,,,,,,,,,,1053,2019_Mar_13_1241,mf_amp_cond1,3.0.4,59.9906683944439,
sexual,Lacedonia,&&&&&&&&&,right,sanctity.vice,,,,,,,0,141,141,141,,,,,,,,,,,,,,,,,,,,,AMP,right,0.4336700183339417,,,right,1,0.4336700183339417,1,,,,,,,,,,,,,,,,,,,,,,1053,2019_Mar_13_1241,mf_amp_cond1,3.0.4,59.9906683944439,
great,thadowed,&&&&&&&&,left,loyalty.virtue,,,,,,,0,142,142,142,,,,,,,,,,,,,,,,,,,,,AMP,right,0.6837299134931527,,,right,0,0.6837299134931527,0,,,,,,,,,,,,,,,,,,,,,,1053,2019_Mar_13_1241,mf_amp_cond1,3.0.4,59.9906683944439,
embrace,Oregoniuns,&&&&&&&&&&,left,authority.virtue,,,,,,,0,143,143,143,,,,,,,,,,,,,,,,,,,,,AMP,left,0.6170363915443886,,,left,1,0.6170363915443886,1,,,,,,,,,,,,,,,,,,,,,,1053,2019_Mar_13_1241,mf_amp_cond1,3.0.4,59.9906683944439,
prones,suggists,&&&&&&&&,None,nonword,,,,,,,0,144,144,144,,,,,,,,,,,,,,,,,,,,,AMP,left,0.33365715731633827,,,left,0,0.33365715731633827,0,,,,,,,,,,,,,,,,,,,,,,1053,2019_Mar_13_1241,mf_amp_cond1,3.0.4,59.9906683944439,
interests,synchronazers,&&&&&&&&&&&&&,left,fairness.virtue,,,,,,,0,145,145,145,,,,,,,,,,,,,,,,,,,,,AMP,right,0.567033328639809,,,right,0,0.567033328639809,0,,,,,,,,,,,,,,,,,,,,,,1053,2019_Mar_13_1241,mf_amp_cond1,3.0.4,59.9906683944439,
ensure,troubla,&&&&&&&,left,fairness.virtue,,,,,,,0,146,146,146,,,,,,,,,,,,,,,,,,,,,AMP,right,0.6337169081380125,,,right,0,0.6337169081380125,0,,,,,,,,,,,,,,,,,,,,,,1053,2019_Mar_13_1241,mf_amp_cond1,3.0.4,59.9906683944439,
betrayal,faspberry,&&&&&&&&&,right,loyalty.vice,,,,,,,0,147,147,147,,,,,,,,,,,,,,,,,,,,,AMP,left,0.4169927089824341,,,left,0,0.4169927089824341,0,,,,,,,,,,,,,,,,,,,,,,1053,2019_Mar_13_1241,mf_amp_cond1,3.0.4,59.9906683944439,
tabin,frojecting,&&&&&&&&&&,None,nonword,,,,,,,0,148,148,148,,,,,,,,,,,,,,,,,,,,,AMP,left,0.35031265747966245,,,left,0,0.35031265747966245,0,,,,,,,,,,,,,,,,,,,,,,1053,2019_Mar_13_1241,mf_amp_cond1,3.0.4,59.9906683944439,
increase,metibolic,&&&&&&&&&,left,care.virtue,,,,,,,0,149,149,149,,,,,,,,,,,,,,,,,,,,,AMP,right,0.36697970362729393,,,right,0,0.36697970362729393,0,,,,,,,,,,,,,,,,,,,,,,1053,2019_Mar_13_1241,mf_amp_cond1,3.0.4,59.9906683944439,
serial,reviked,&&&&&&&,right,sanctity.vice,,,,,,,0,150,150,150,,,,,,,,,,,,,,,,,,,,,AMP,left,0.5003491076931823,,,left,0,0.5003491076931823,0,,,,,,,,,,,,,,,,,,,,,,1053,2019_Mar_13_1241,mf_amp_cond1,3.0.4,59.9906683944439,
fonderland,mightingale,&&&&&&&&&&&,None,nonword,,,,,,,0,151,151,151,,,,,,,,,,,,,,,,,,,,,AMP,right,1.4172342139063403,,,right,0,1.4172342139063403,0,,,,,,,,,,,,,,,,,,,,,,1053,2019_Mar_13_1241,mf_amp_cond1,3.0.4,59.9906683944439,
ban,bycled,&&&&&&,right,loyalty.vice,,,,,,,0,152,152,152,,,,,,,,,,,,,,,,,,,,,AMP,left,0.717080042057205,,,left,0,0.717080042057205,0,,,,,,,,,,,,,,,,,,,,,,1053,2019_Mar_13_1241,mf_amp_cond1,3.0.4,59.9906683944439,
penalty,nomparisons,&&&&&&&&&&&,right,authority.vice,,,,,,,0,153,153,153,,,,,,,,,,,,,,,,,,,,,AMP,right,0.41699110536137596,,,right,1,0.41699110536137596,1,,,,,,,,,,,,,,,,,,,,,,1053,2019_Mar_13_1241,mf_amp_cond1,3.0.4,59.9906683944439,
health,Loorish,&&&&&&&,left,care.virtue,,,,,,,0,154,154,154,,,,,,,,,,,,,,,,,,,,,AMP,right,0.33364689417066984,,,right,0,0.33364689417066984,0,,,,,,,,,,,,,,,,,,,,,,1053,2019_Mar_13_1241,mf_amp_cond1,3.0.4,59.9906683944439,
fighters,quarterbocks,&&&&&&&&&&&&,right,authority.vice,,,,,,,0,155,155,155,,,,,,,,,,,,,,,,,,,,,AMP,right,0.6003796085133217,,,right,1,0.6003796085133217,1,,,,,,,,,,,,,,,,,,,,,,1053,2019_Mar_13_1241,mf_amp_cond1,3.0.4,59.9906683944439,
ebbitter,fostet,&&&&&&,None,nonword,,,,,,,0,156,156,156,,,,,,,,,,,,,,,,,,,,,AMP,right,1.4672735185886268,,,right,0,1.4672735185886268,0,,,,,,,,,,,,,,,,,,,,,,1053,2019_Mar_13_1241,mf_amp_cond1,3.0.4,59.9906683944439,
drug,spag,&&&&,right,sanctity.vice,,,,,,,0,157,157,157,,,,,,,,,,,,,,,,,,,,,AMP,left,0.45035277999704704,,,left,0,0.45035277999704704,0,,,,,,,,,,,,,,,,,,,,,,1053,2019_Mar_13_1241,mf_amp_cond1,3.0.4,59.9906683944439,
men,chared,&&&&&&,right,loyalty.vice,,,,,,,0,158,158,158,,,,,,,,,,,,,,,,,,,,,AMP,right,0.5003670682199299,,,right,1,0.5003670682199299,1,,,,,,,,,,,,,,,,,,,,,,1053,2019_Mar_13_1241,mf_amp_cond1,3.0.4,59.9906683944439,
strength,Phintoism,&&&&&&&&&,left,sanctity.virtue,,,,,,,0,159,159,159,,,,,,,,,,,,,,,,,,,,,AMP,right,0.4336241548298858,,,right,0,0.4336241548298858,0,,,,,,,,,,,,,,,,,,,,,,1053,2019_Mar_13_1241,mf_amp_cond1,3.0.4,59.9906683944439,
victim,letish,&&&&&&,right,care.vice,,,,,,,0,160,160,160,,,,,,,,,,,,,,,,,,,,,AMP,left,0.7170761933666654,,,left,0,0.7170761933666654,0,,,,,,,,,,,,,,,,,,,,,,1053,2019_Mar_13_1241,mf_amp_cond1,3.0.4,59.9906683944439,
care,ning,&&&&,left,care.virtue,,,,,,,0,161,161,161,,,,,,,,,,,,,,,,,,,,,AMP,right,0.7837629801069852,,,right,0,0.7837629801069852,0,,,,,,,,,,,,,,,,,,,,,,1053,2019_Mar_13_1241,mf_amp_cond1,3.0.4,59.9906683944439,
photocalkodes,gillipede,&&&&&&&&&,None,nonword,,,,,,,0,162,162,162,,,,,,,,,,,,,,,,,,,,,AMP,left,0.5837225047580432,,,left,0,0.5837225047580432,0,,,,,,,,,,,,,,,,,,,,,,1053,2019_Mar_13_1241,mf_amp_cond1,3.0.4,59.9906683944439,
groups,gazily,&&&&&&,right,loyalty.vice,,,,,,,0,163,163,163,,,,,,,,,,,,,,,,,,,,,AMP,right,0.8837761618488003,,,right,1,0.8837761618488003,1,,,,,,,,,,,,,,,,,,,,,,1053,2019_Mar_13_1241,mf_amp_cond1,3.0.4,59.9906683944439,
clean,Loorish,&&&&&&&,left,sanctity.virtue,,,,,,,0,164,164,164,,,,,,,,,,,,,,,,,,,,,AMP,right,0.40033015291555785,,,right,0,0.40033015291555785,0,,,,,,,,,,,,,,,,,,,,,,1053,2019_Mar_13_1241,mf_amp_cond1,3.0.4,59.9906683944439,
fonderland,mightingale,&&&&&&&&&&&,None,nonword,,,,,,,0,165,165,165,,,,,,,,,,,,,,,,,,,,,AMP,right,0.8837886700639501,,,right,0,0.8837886700639501,0,,,,,,,,,,,,,,,,,,,,,,1053,2019_Mar_13_1241,mf_amp_cond1,3.0.4,59.9906683944439,
accused,suggists,&&&&&&&&,right,fairness.vice,,,,,,,0,166,166,166,,,,,,,,,,,,,,,,,,,,,AMP,left,0.4503139724256471,,,left,0,0.4503139724256471,0,,,,,,,,,,,,,,,,,,,,,,1053,2019_Mar_13_1241,mf_amp_cond1,3.0.4,59.9906683944439,
photocalkodes,gazily,&&&&&&,None,nonword,,,,,,,0,167,167,167,,,,,,,,,,,,,,,,,,,,,AMP,left,1.6839797572174575,,,left,0,1.6839797572174575,0,,,,,,,,,,,,,,,,,,,,,,1053,2019_Mar_13_1241,mf_amp_cond1,3.0.4,59.9906683944439,
party,hatigue,&&&&&&&,left,loyalty.virtue,,,,,,,0,168,168,168,,,,,,,,,,,,,,,,,,,,,AMP,right,0.11692269501509145,,,right,0,0.11692269501509145,0,,,,,,,,,,,,,,,,,,,,,,1053,2019_Mar_13_1241,mf_amp_cond1,3.0.4,59.9906683944439,
ban,rivernoat,&&&&&&&&&,right,loyalty.vice,,,,,,,0,169,169,169,,,,,,,,,,,,,,,,,,,,,AMP,left,0.4003356052271556,,,left,0,0.4003356052271556,0,,,,,,,,,,,,,,,,,,,,,,1053,2019_Mar_13_1241,mf_amp_cond1,3.0.4,59.9906683944439,
ebbitter,juck,&&&&,None,nonword,,,,,,,0,170,170,170,,,,,,,,,,,,,,,,,,,,,AMP,left,0.6337169081380125,,,left,0,0.6337169081380125,0,,,,,,,,,,,,,,,,,,,,,,1053,2019_Mar_13_1241,mf_amp_cond1,3.0.4,59.9906683944439,
celebrated,chared,&&&&&&,left,authority.virtue,,,,,,,0,171,171,171,,,,,,,,,,,,,,,,,,,,,AMP,right,0.450338668160839,,,right,0,0.450338668160839,0,,,,,,,,,,,,,,,,,,,,,,1053,2019_Mar_13_1241,mf_amp_cond1,3.0.4,59.9906683944439,
growth,menizen,&&&&&&&,left,care.virtue,,,,,,,0,172,172,172,,,,,,,,,,,,,,,,,,,,,AMP,right,0.38353161004488356,,,right,0,0.38353161004488356,0,,,,,,,,,,,,,,,,,,,,,,1053,2019_Mar_13_1241,mf_amp_cond1,3.0.4,59.9906683944439,
ensure,ittutable,&&&&&&&&&,left,fairness.virtue,,,,,,,0,173,173,173,,,,,,,,,,,,,,,,,,,,,AMP,right,0.43370016635162756,,,right,0,0.43370016635162756,0,,,,,,,,,,,,,,,,,,,,,,1053,2019_Mar_13_1241,mf_amp_cond1,3.0.4,59.9906683944439,
energy,totalestic,&&&&&&&&&&,left,sanctity.virtue,,,,,,,0,174,174,174,,,,,,,,,,,,,,,,,,,,,AMP,left,1.1171529745915905,,,left,1,1.1171529745915905,1,,,,,,,,,,,,,,,,,,,,,,1053,2019_Mar_13_1241,mf_amp_cond1,3.0.4,59.9906683944439,
lies,pafer,&&&&&,right,fairness.vice,,,,,,,0,175,175,175,,,,,,,,,,,,,,,,,,,,,AMP,left,0.7670914437621832,,,left,0,0.7670914437621832,0,,,,,,,,,,,,,,,,,,,,,,1053,2019_Mar_13_1241,mf_amp_cond1,3.0.4,59.9906683944439,
terrorist,edancipation,&&&&&&&&&&&&,right,loyalty.vice,,,,,,,0,176,176,176,,,,,,,,,,,,,,,,,,,,,AMP,left,0.3503408811229747,,,left,0,0.3503408811229747,0,,,,,,,,,,,,,,,,,,,,,,1053,2019_Mar_13_1241,mf_amp_cond1,3.0.4,59.9906683944439,
galamitous,nomparisons,&&&&&&&&&&&,None,nonword,,,,,,,0,177,177,177,,,,,,,,,,,,,,,,,,,,,AMP,left,0.5503675653308164,,,left,0,0.5503675653308164,0,,,,,,,,,,,,,,,,,,,,,,1053,2019_Mar_13_1241,mf_amp_cond1,3.0.4,59.9906683944439,
praise,perified,&&&&&&&&,left,authority.virtue,,,,,,,0,178,178,178,,,,,,,,,,,,,,,,,,,,,AMP,right,0.28364158619660884,,,right,0,0.28364158619660884,0,,,,,,,,,,,,,,,,,,,,,,1053,2019_Mar_13_1241,mf_amp_cond1,3.0.4,59.9906683944439,
died,tenuflect,&&&&&&&&&,right,care.vice,,,,,,,0,179,179,179,,,,,,,,,,,,,,,,,,,,,AMP,left,0.31697439568233676,,,left,0,0.31697439568233676,0,,,,,,,,,,,,,,,,,,,,,,1053,2019_Mar_13_1241,mf_amp_cond1,3.0.4,59.9906683944439,
counpy's,smapper,&&&&&&&,None,nonword,,,,,,,0,180,180,180,,,,,,,,,,,,,,,,,,,,,AMP,left,0.5836144209024496,,,left,0,0.5836144209024496,0,,,,,,,,,,,,,,,,,,,,,,1053,2019_Mar_13_1241,mf_amp_cond1,3.0.4,59.9906683944439,
hate,pullness,&&&&&&&&,right,fairness.vice,,,,,,,0,181,181,181,,,,,,,,,,,,,,,,,,,,,AMP,left,0.5170203232846688,,,left,0,0.5170203232846688,0,,,,,,,,,,,,,,,,,,,,,,1053,2019_Mar_13_1241,mf_amp_cond1,3.0.4,59.9906683944439,
rebels,leact,&&&&&,right,authority.vice,,,,,,,0,182,182,182,,,,,,,,,,,,,,,,,,,,,AMP,left,0.5003491076931823,,,left,0,0.5003491076931823,0,,,,,,,,,,,,,,,,,,,,,,1053,2019_Mar_13_1241,mf_amp_cond1,3.0.4,59.9906683944439,
tabin,bruthfulness,&&&&&&&&&&&&,None,nonword,,,,,,,0,183,183,183,,,,,,,,,,,,,,,,,,,,,AMP,left,0.46701084592496045,,,left,0,0.46701084592496045,0,,,,,,,,,,,,,,,,,,,,,,1053,2019_Mar_13_1241,mf_amp_cond1,3.0.4,59.9906683944439,
critics,chressing,&&&&&&&&&,right,loyalty.vice,,,,,,,0,184,184,184,,,,,,,,,,,,,,,,,,,,,AMP,left,0.7004059399187099,,,left,0,0.7004059399187099,0,,,,,,,,,,,,,,,,,,,,,,1053,2019_Mar_13_1241,mf_amp_cond1,3.0.4,59.9906683944439,
threatened,reelectiob,&&&&&&&&&&,right,fairness.vice,,,,,,,0,185,185,185,,,,,,,,,,,,,,,,,,,,,AMP,left,0.38365957877249457,,,left,0,0.38365957877249457,0,,,,,,,,,,,,,,,,,,,,,,1053,2019_Mar_13_1241,mf_amp_cond1,3.0.4,59.9906683944439,
opportunity,synchronazers,&&&&&&&&&&&&&,left,fairness.virtue,,,,,,,0,186,186,186,,,,,,,,,,,,,,,,,,,,,AMP,right,0.4003198897698894,,,right,0,0.4003198897698894,0,,,,,,,,,,,,,,,,,,,,,,1053,2019_Mar_13_1241,mf_amp_cond1,3.0.4,59.9906683944439,
increase,fornicalion,&&&&&&&&&&&,left,care.virtue,,,,,,,0,187,187,187,,,,,,,,,,,,,,,,,,,,,AMP,right,0.5503649995662272,,,right,0,0.5503649995662272,0,,,,,,,,,,,,,,,,,,,,,,1053,2019_Mar_13_1241,mf_amp_cond1,3.0.4,59.9906683944439,
promises,framatic,&&&&&&&&,left,fairness.virtue,,,,,,,0,188,188,188,,,,,,,,,,,,,,,,,,,,,AMP,right,0.6003481775987893,,,right,0,0.6003481775987893,0,,,,,,,,,,,,,,,,,,,,,,1053,2019_Mar_13_1241,mf_amp_cond1,3.0.4,59.9906683944439,
men,cromiscuity,&&&&&&&&&&&,right,loyalty.vice,,,,,,,0,189,189,189,,,,,,,,,,,,,,,,,,,,,AMP,right,1.0671643442474306,,,right,1,1.0671643442474306,1,,,,,,,,,,,,,,,,,,,,,,1053,2019_Mar_13_1241,mf_amp_cond1,3.0.4,59.9906683944439,
win,touls,&&&&&,left,fairness.virtue,,,,,,,0,190,190,190,,,,,,,,,,,,,,,,,,,,,AMP,right,0.3003102359944023,,,right,0,0.3003102359944023,0,,,,,,,,,,,,,,,,,,,,,,1053,2019_Mar_13_1241,mf_amp_cond1,3.0.4,59.9906683944439,
values,frojecting,&&&&&&&&&&,left,sanctity.virtue,,,,,,,0,191,191,191,,,,,,,,,,,,,,,,,,,,,AMP,right,0.266954013670329,,,right,0,0.266954013670329,0,,,,,,,,,,,,,,,,,,,,,,1053,2019_Mar_13_1241,mf_amp_cond1,3.0.4,59.9906683944439,
death,unreflectuve,&&&&&&&&&&&&,right,care.vice,,,,,,,0,192,192,192,,,,,,,,,,,,,,,,,,,,,AMP,left,1.050492166512413,,,left,0,1.050492166512413,0,,,,,,,,,,,,,,,,,,,,,,1053,2019_Mar_13_1241,mf_amp_cond1,3.0.4,59.9906683944439,
conspiracy,rorroborated,&&&&&&&&&&&&,right,sanctity.vice,,,,,,,0,193,193,193,,,,,,,,,,,,,,,,,,,,,AMP,left,0.4503396303043701,,,left,0,0.4503396303043701,0,,,,,,,,,,,,,,,,,,,,,,1053,2019_Mar_13_1241,mf_amp_cond1,3.0.4,59.9906683944439,
benefit,neutralust,&&&&&&&&&&,left,fairness.virtue,,,,,,,0,194,194,194,,,,,,,,,,,,,,,,,,,,,AMP,right,2.3841660014586523,,,right,0,2.3841660014586523,0,,,,,,,,,,,,,,,,,,,,,,1053,2019_Mar_13_1241,mf_amp_cond1,3.0.4,59.9906683944439,
gun,grovelire,&&&&&&&&&,right,authority.vice,,,,,,,0,195,195,195,,,,,,,,,,,,,,,,,,,,,AMP,left,0.43369343114318326,,,left,0,0.43369343114318326,0,,,,,,,,,,,,,,,,,,,,,,1053,2019_Mar_13_1241,mf_amp_cond1,3.0.4,59.9906683944439,
embrace,gowlands,&&&&&&&&,left,authority.virtue,,,,,,,0,196,196,196,,,,,,,,,,,,,,,,,,,,,AMP,left,2.5842183435161132,,,left,1,2.5842183435161132,1,,,,,,,,,,,,,,,,,,,,,,1053,2019_Mar_13_1241,mf_amp_cond1,3.0.4,59.9906683944439,
help,chonograph,&&&&&&&&&&,left,care.virtue,,,,,,,0,197,197,197,,,,,,,,,,,,,,,,,,,,,AMP,right,0.10023736758739688,,,right,0,0.10023736758739688,0,,,,,,,,,,,,,,,,,,,,,,1053,2019_Mar_13_1241,mf_amp_cond1,3.0.4,59.9906683944439,
shot,mecan,&&&&&,right,care.vice,,,,,,,0,198,198,198,,,,,,,,,,,,,,,,,,,,,AMP,left,0.8504308441188186,,,left,0,0.8504308441188186,0,,,,,,,,,,,,,,,,,,,,,,1053,2019_Mar_13_1241,mf_amp_cond1,3.0.4,59.9906683944439,
prones,ronviolence,&&&&&&&&&&&,None,nonword,,,,,,,0,199,199,199,,,,,,,,,,,,,,,,,,,,,AMP,left,0.5670442332339007,,,left,0,0.5670442332339007,0,,,,,,,,,,,,,,,,,,,,,,1053,2019_Mar_13_1241,mf_amp_cond1,3.0.4,59.9906683944439,
sharing,gondensed,&&&&&&&&&,left,loyalty.virtue,,,,,,,0,200,200,200,,,,,,,,,,,,,,,,,,,,,AMP,right,0.40025734866503626,,,right,0,0.40025734866503626,0,,,,,,,,,,,,,,,,,,,,,,1053,2019_Mar_13_1241,mf_amp_cond1,3.0.4,59.9906683944439,
perfect,brotesque,&&&&&&&&&,left,sanctity.virtue,,,,,,,0,201,201,201,,,,,,,,,,,,,,,,,,,,,AMP,right,0.4336959969368763,,,right,0,0.4336959969368763,0,,,,,,,,,,,,,,,,,,,,,,1053,2019_Mar_13_1241,mf_amp_cond1,3.0.4,59.9906683944439,
encourage,thadowed,&&&&&&&&,left,authority.virtue,,,,,,,0,202,202,202,,,,,,,,,,,,,,,,,,,,,AMP,right,0.2836354924365878,,,right,0,0.2836354924365878,0,,,,,,,,,,,,,,,,,,,,,,1053,2019_Mar_13_1241,mf_amp_cond1,3.0.4,59.9906683944439,
groups,bluently,&&&&&&&&,right,loyalty.vice,,,,,,,0,203,203,203,,,,,,,,,,,,,,,,,,,,,AMP,right,0.416979559318861,,,right,1,0.416979559318861,1,,,,,,,,,,,,,,,,,,,,,,1053,2019_Mar_13_1241,mf_amp_cond1,3.0.4,59.9906683944439,
refused,letish,&&&&&&,right,authority.vice,,,,,,,0,204,204,204,,,,,,,,,,,,,,,,,,,,,AMP,left,0.4836952111800201,,,left,0,0.4836952111800201,0,,,,,,,,,,,,,,,,,,,,,,1053,2019_Mar_13_1241,mf_amp_cond1,3.0.4,59.9906683944439,
victim,quarterbocks,&&&&&&&&&&&&,right,care.vice,,,,,,,0,205,205,205,,,,,,,,,,,,,,,,,,,,,AMP,left,0.6170511448290199,,,left,0,0.6170511448290199,0,,,,,,,,,,,,,,,,,,,,,,1053,2019_Mar_13_1241,mf_amp_cond1,3.0.4,59.9906683944439,
honstables,emassion,&&&&&&&&,None,nonword,,,,,,,0,206,206,206,,,,,,,,,,,,,,,,,,,,,AMP,left,0.38365284356405027,,,left,0,0.38365284356405027,0,,,,,,,,,,,,,,,,,,,,,,1053,2019_Mar_13_1241,mf_amp_cond1,3.0.4,59.9906683944439,
credit,stindig,&&&&&&&,left,fairness.virtue,,,,,,,0,207,207,207,,,,,,,,,,,,,,,,,,,,,AMP,right,0.40035452792653814,,,right,0,0.40035452792653814,0,,,,,,,,,,,,,,,,,,,,,,1053,2019_Mar_13_1241,mf_amp_cond1,3.0.4,59.9906683944439,
intelligence,metibolic,&&&&&&&&&,left,loyalty.virtue,,,,,,,0,208,208,208,,,,,,,,,,,,,,,,,,,,,AMP,left,1.18388049324858,,,left,1,1.18388049324858,1,,,,,,,,,,,,,,,,,,,,,,1053,2019_Mar_13_1241,mf_amp_cond1,3.0.4,59.9906683944439,
strong,refuejing,&&&&&&&&&,left,loyalty.virtue,,,,,,,0,209,209,209,,,,,,,,,,,,,,,,,,,,,AMP,right,0.3002961241581943,,,right,0,0.3002961241581943,0,,,,,,,,,,,,,,,,,,,,,,1053,2019_Mar_13_1241,mf_amp_cond1,3.0.4,59.9906683944439,
suicide,clattening,&&&&&&&&&&,right,care.vice,,,,,,,0,210,210,210,,,,,,,,,,,,,,,,,,,,,AMP,left,0.41701355602708645,,,left,0,0.41701355602708645,0,,,,,,,,,,,,,,,,,,,,,,1053,2019_Mar_13_1241,mf_amp_cond1,3.0.4,59.9906683944439,
saned,precificity,&&&&&&&&&&&,None,nonword,,,,,,,0,211,211,211,,,,,,,,,,,,,,,,,,,,,AMP,right,0.5336722954816651,,,right,0,0.5336722954816651,0,,,,,,,,,,,,,,,,,,,,,,1053,2019_Mar_13_1241,mf_amp_cond1,3.0.4,59.9906683944439,
hope,lursuer,&&&&&&&,left,loyalty.virtue,,,,,,,0,212,212,212,,,,,,,,,,,,,,,,,,,,,AMP,right,0.41700489647337236,,,right,0,0.41700489647337236,0,,,,,,,,,,,,,,,,,,,,,,1053,2019_Mar_13_1241,mf_amp_cond1,3.0.4,59.9906683944439,
drug,greaks,&&&&&&,right,sanctity.vice,,,,,,,0,213,213,213,,,,,,,,,,,,,,,,,,,,,AMP,left,0.35030431862105615,,,left,0,0.35030431862105615,0,,,,,,,,,,,,,,,,,,,,,,1053,2019_Mar_13_1241,mf_amp_cond1,3.0.4,59.9906683944439,
great,gillipede,&&&&&&&&&,left,loyalty.virtue,,,,,,,0,214,214,214,,,,,,,,,,,,,,,,,,,,,AMP,left,1.3839139126357622,,,left,1,1.3839139126357622,1,,,,,,,,,,,,,,,,,,,,,,1053,2019_Mar_13_1241,mf_amp_cond1,3.0.4,59.9906683944439,
commitment,supervuned,&&&&&&&&&&,left,sanctity.virtue,,,,,,,0,215,215,215,,,,,,,,,,,,,,,,,,,,,AMP,right,0.6837404973630328,,,right,0,0.6837404973630328,0,,,,,,,,,,,,,,,,,,,,,,1053,2019_Mar_13_1241,mf_amp_cond1,3.0.4,59.9906683944439,
care,simplustic,&&&&&&&&&&,left,care.virtue,,,,,,,0,216,216,216,,,,,,,,,,,,,,,,,,,,,AMP,right,0.316845464752987,,,right,0,0.316845464752987,0,,,,,,,,,,,,,,,,,,,,,,1053,2019_Mar_13_1241,mf_amp_cond1,3.0.4,59.9906683944439,
riot,egpeditious,&&&&&&&&&&&,right,authority.vice,,,,,,,0,217,217,217,,,,,,,,,,,,,,,,,,,,,AMP,left,0.31696733974968083,,,left,0,0.31696733974968083,0,,,,,,,,,,,,,,,,,,,,,,1053,2019_Mar_13_1241,mf_amp_cond1,3.0.4,59.9906683944439,
serial,tislay,&&&&&&,right,sanctity.vice,,,,,,,0,218,218,218,,,,,,,,,,,,,,,,,,,,,AMP,left,0.6337127387232613,,,left,0,0.6337127387232613,0,,,,,,,,,,,,,,,,,,,,,,1053,2019_Mar_13_1241,mf_amp_cond1,3.0.4,59.9906683944439,
interests,Oregoniuns,&&&&&&&&&&,left,fairness.virtue,,,,,,,0,219,219,219,,,,,,,,,,,,,,,,,,,,,AMP,left,1.8006808321806602,,,left,1,1.8006808321806602,1,,,,,,,,,,,,,,,,,,,,,,1053,2019_Mar_13_1241,mf_amp_cond1,3.0.4,59.9906683944439,
peaceful,reviked,&&&&&&&,left,authority.virtue,,,,,,,0,220,220,220,,,,,,,,,,,,,,,,,,,,,AMP,right,2.3341555618681014,,,right,0,2.3341555618681014,0,,,,,,,,,,,,,,,,,,,,,,1053,2019_Mar_13_1241,mf_amp_cond1,3.0.4,59.9906683944439,
prosecution,aubos,&&&&&,right,authority.vice,,,,,,,0,221,221,221,,,,,,,,,,,,,,,,,,,,,AMP,left,1.0839462095173076,,,left,0,1.0839462095173076,0,,,,,,,,,,,,,,,,,,,,,,1053,2019_Mar_13_1241,mf_amp_cond1,3.0.4,59.9906683944439,
fighters,bycled,&&&&&&,right,authority.vice,,,,,,,0,222,222,222,,,,,,,,,,,,,,,,,,,,,AMP,right,0.6837680795870256,,,right,1,0.6837680795870256,1,,,,,,,,,,,,,,,,,,,,,,1053,2019_Mar_13_1241,mf_amp_cond1,3.0.4,59.9906683944439,
corruption,feleological,&&&&&&&&&&&&,right,sanctity.vice,,,,,,,0,223,223,223,,,,,,,,,,,,,,,,,,,,,AMP,left,0.48355665858252905,,,left,0,0.48355665858252905,0,,,,,,,,,,,,,,,,,,,,,,1053,2019_Mar_13_1241,mf_amp_cond1,3.0.4,59.9906683944439,
racist,sonvoy,&&&&&&,right,sanctity.vice,,,,,,,0,224,224,224,,,,,,,,,,,,,,,,,,,,,AMP,right,0.5836936396372039,,,right,1,0.5836936396372039,1,,,,,,,,,,,,,,,,,,,,,,1053,2019_Mar_13_1241,mf_amp_cond1,3.0.4,59.9906683944439,
voter,divility,&&&&&&&&,right,fairness.vice,,,,,,,0,225,225,225,,,,,,,,,,,,,,,,,,,,,AMP,left,0.7003950353246182,,,left,0,0.7003950353246182,0,,,,,,,,,,,,,,,,,,,,,,1053,2019_Mar_13_1241,mf_amp_cond1,3.0.4,59.9906683944439,
trust,squets,&&&&&&,left,authority.virtue,,,,,,,0,226,226,226,,,,,,,,,,,,,,,,,,,,,AMP,right,0.2836252292909194,,,right,0,0.2836252292909194,0,,,,,,,,,,,,,,,,,,,,,,1053,2019_Mar_13_1241,mf_amp_cond1,3.0.4,59.9906683944439,
failure,proached,&&&&&&&&,right,loyalty.vice,,,,,,,0,227,227,227,,,,,,,,,,,,,,,,,,,,,AMP,left,0.7004069020913448,,,left,0,0.7004069020913448,0,,,,,,,,,,,,,,,,,,,,,,1053,2019_Mar_13_1241,mf_amp_cond1,3.0.4,59.9906683944439,
betrayal,seachwear,&&&&&&&&&,right,loyalty.vice,,,,,,,0,228,228,228,,,,,,,,,,,,,,,,,,,,,AMP,left,0.48368462728103623,,,left,0,0.48368462728103623,0,,,,,,,,,,,,,,,,,,,,,,1053,2019_Mar_13_1241,mf_amp_cond1,3.0.4,59.9906683944439,
health,Lacedonia,&&&&&&&&&,left,care.virtue,,,,,,,0,229,229,229,,,,,,,,,,,,,,,,,,,,,AMP,right,0.3169974877673667,,,right,0,0.3169974877673667,0,,,,,,,,,,,,,,,,,,,,,,1053,2019_Mar_13_1241,mf_amp_cond1,3.0.4,59.9906683944439,
unpleasant,uller,&&&&&,None,control,,,,,,,0,230,230,230,,,,,,,,,,,,,,,,,,,,,AMP,left,0.5003494284173939,,,left,0,0.5003494284173939,0,,,,,,,,,,,,,,,,,,,,,,1053,2019_Mar_13_1241,mf_amp_cond1,3.0.4,59.9906683944439,
sexual,faspberry,&&&&&&&&&,right,sanctity.vice,,,,,,,0,231,231,231,,,,,,,,,,,,,,,,,,,,,AMP,right,0.8171140708436724,,,right,1,0.8171140708436724,1,,,,,,,,,,,,,,,,,,,,,,1053,2019_Mar_13_1241,mf_amp_cond1,3.0.4,59.9906683944439,
fraud,hescribe,&&&&&&&&,right,fairness.vice,,,,,,,0,232,232,232,,,,,,,,,,,,,,,,,,,,,AMP,left,0.40032309701200575,,,left,0,0.40032309701200575,0,,,,,,,,,,,,,,,,,,,,,,1053,2019_Mar_13_1241,mf_amp_cond1,3.0.4,59.9906683944439,
pleasant,spag,&&&&,None,control,,,,,,,0,233,233,233,,,,,,,,,,,,,,,,,,,,,AMP,right,0.30029516195645556,,,right,0,0.30029516195645556,0,,,,,,,,,,,,,,,,,,,,,,1053,2019_Mar_13_1241,mf_amp_cond1,3.0.4,59.9906683944439,
honored,vicissifude,&&&&&&&&&&&,left,authority.virtue,,,,,,,0,234,234,234,,,,,,,,,,,,,,,,,,,,,AMP,right,1.2005475394253153,,,right,0,1.2005475394253153,0,,,,,,,,,,,,,,,,,,,,,,1053,2019_Mar_13_1241,mf_amp_cond1,3.0.4,59.9906683944439,
scandal,atson,&&&&&,right,sanctity.vice,,,,,,,0,235,235,235,,,,,,,,,,,,,,,,,,,,,AMP,left,0.28366371610900387,,,left,0,0.28366371610900387,0,,,,,,,,,,,,,,,,,,,,,,1053,2019_Mar_13_1241,mf_amp_cond1,3.0.4,59.9906683944439,
injured,imebreaker,&&&&&&&&&&,right,care.vice,,,,,,,0,236,236,236,,,,,,,,,,,,,,,,,,,,,AMP,left,0.43367418774869293,,,left,0,0.43367418774869293,0,,,,,,,,,,,,,,,,,,,,,,1053,2019_Mar_13_1241,mf_amp_cond1,3.0.4,59.9906683944439,
penalty,wump,&&&&,right,authority.vice,,,,,,,0,237,237,237,,,,,,,,,,,,,,,,,,,,,AMP,left,0.6170934803667478,,,left,0,0.6170934803667478,0,,,,,,,,,,,,,,,,,,,,,,1053,2019_Mar_13_1241,mf_amp_cond1,3.0.4,59.9906683944439,
faith,fostet,&&&&&&,left,sanctity.virtue,,,,,,,0,238,238,238,,,,,,,,,,,,,,,,,,,,,AMP,right,0.7504195867222734,,,right,0,0.7504195867222734,0,,,,,,,,,,,,,,,,,,,,,,1053,2019_Mar_13_1241,mf_amp_cond1,3.0.4,59.9906683944439,
good,abointment,&&&&&&&&&&,left,care.virtue,,,,,,,0,239,239,239,,,,,,,,,,,,,,,,,,,,,AMP,right,0.266995387035422,,,right,0,0.266995387035422,0,,,,,,,,,,,,,,,,,,,,,,1053,2019_Mar_13_1241,mf_amp_cond1,3.0.4,59.9906683944439,
improve,halaise,&&&&&&&,left,care.virtue,,,,,,,0,240,240,240,,,,,,,,,,,,,,,,,,,,,AMP,right,0.31698722459259443,,,right,0,0.31698722459259443,0,,,,,,,,,,,,,,,,,,,,,,1053,2019_Mar_13_1241,mf_amp_cond1,3.0.4,59.9906683944439,
Daptist,Phintoism,&&&&&&&&&,None,nonword,,,,,,,0,241,241,241,,,,,,,,,,,,,,,,,,,,,AMP,left,0.6337188324832823,,,left,0,0.6337188324832823,0,,,,,,,,,,,,,,,,,,,,,,1053,2019_Mar_13_1241,mf_amp_cond1,3.0.4,59.9906683944439,
violence,laming,&&&&&&,right,care.vice,,,,,,,0,242,242,242,,,,,,,,,,,,,,,,,,,,,AMP,left,0.8170784705143888,,,left,0,0.8170784705143888,0,,,,,,,,,,,,,,,,,,,,,,1053,2019_Mar_13_1241,mf_amp_cond1,3.0.4,59.9906683944439,
illegal,ning,&&&&,right,fairness.vice,,,,,,,0,243,243,243,,,,,,,,,,,,,,,,,,,,,AMP,right,0.5503367758938111,,,right,1,0.5503367758938111,1,,,,,,,,,,,,,,,,,,,,,,1053,2019_Mar_13_1241,mf_amp_cond1,3.0.4,59.9906683944439,
strength,troubla,&&&&&&&,left,sanctity.virtue,,,,,,,0,244,244,244,,,,,,,,,,,,,,,,,,,,,AMP,right,0.41700457577826455,,,right,0,0.41700457577826455,0,,,,,,,,,,,,,,,,,,,,,,1053,2019_Mar_13_1241,mf_amp_cond1,3.0.4,59.9906683944439,
friends,baladroit,&&&&&&&&&,left,loyalty.virtue,,,,,,,0,245,245,245,,,,,,,,,,,,,,,,,,,,,AMP,right,0.08357096285908483,,,right,0,0.08357096285908483,0,,,,,,,,,,,,,,,,,,,,,,1053,2019_Mar_13_1241,mf_amp_cond1,3.0.4,59.9906683944439,
corruption,touls,&&&&&,right,sanctity.vice,,,,,,,0,246,246,246,,,,,,,,,,,,,,,,,,,,,AMP,left,0.5170225683541503,,,left,0,0.5170225683541503,0,,,,,,,,,,,,,,,,,,,,,,1053,2019_Mar_13_1241,mf_amp_cond1,3.0.4,59.9906683944439,
sexual,bruthfulness,&&&&&&&&&&&&,right,sanctity.vice,,,,,,,0,247,247,247,,,,,,,,,,,,,,,,,,,,,AMP,right,0.3836608616693411,,,right,1,0.3836608616693411,1,,,,,,,,,,,,,,,,,,,,,,1053,2019_Mar_13_1241,mf_amp_cond1,3.0.4,59.9906683944439,
great,unreflectuve,&&&&&&&&&&&&,left,loyalty.virtue,,,,,,,0,248,248,248,,,,,,,,,,,,,,,,,,,,,AMP,right,0.4170055379217956,,,right,0,0.4170055379217956,0,,,,,,,,,,,,,,,,,,,,,,1053,2019_Mar_13_1241,mf_amp_cond1,3.0.4,59.9906683944439,
racist,halaise,&&&&&&&,right,sanctity.vice,,,,,,,0,249,249,249,,,,,,,,,,,,,,,,,,,,,AMP,left,3.017700097087072,,,left,0,3.017700097087072,0,,,,,,,,,,,,,,,,,,,,,,1053,2019_Mar_13_1241,mf_amp_cond1,3.0.4,59.9906683944439,
peaceful,brotesque,&&&&&&&&&,left,authority.virtue,,,,,,,0,250,250,250,,,,,,,,,,,,,,,,,,,,,AMP,left,3.2844087571720593,,,left,1,3.2844087571720593,1,,,,,,,,,,,,,,,,,,,,,,1053,2019_Mar_13_1241,mf_amp_cond1,3.0.4,59.9906683944439,
hate,synchronazers,&&&&&&&&&&&&&,right,fairness.vice,,,,,,,0,251,251,251,,,,,,,,,,,,,,,,,,,,,AMP,left,0.6837462703988422,,,left,0,0.6837462703988422,0,,,,,,,,,,,,,,,,,,,,,,1053,2019_Mar_13_1241,mf_amp_cond1,3.0.4,59.9906683944439,
interests,refuejing,&&&&&&&&&,left,fairness.virtue,,,,,,,0,252,252,252,,,,,,,,,,,,,,,,,,,,,AMP,right,0.13359262770973146,,,right,0,0.13359262770973146,0,,,,,,,,,,,,,,,,,,,,,,1053,2019_Mar_13_1241,mf_amp_cond1,3.0.4,59.9906683944439,
embrace,Lacedonia,&&&&&&&&&,left,authority.virtue,,,,,,,0,253,253,253,,,,,,,,,,,,,,,,,,,,,AMP,left,0.48370258780778386,,,left,1,0.48370258780778386,1,,,,,,,,,,,,,,,,,,,,,,1053,2019_Mar_13_1241,mf_amp_cond1,3.0.4,59.9906683944439,
betrayal,gondensed,&&&&&&&&&,right,loyalty.vice,,,,,,,0,254,254,254,,,,,,,,,,,,,,,,,,,,,AMP,left,0.567027234879788,,,left,0,0.567027234879788,0,,,,,,,,,,,,,,,,,,,,,,1053,2019_Mar_13_1241,mf_amp_cond1,3.0.4,59.9906683944439,
pleasant,chared,&&&&&&,None,control,,,,,,,0,255,255,255,,,,,,,,,,,,,,,,,,,,,AMP,right,0.15026801274507307,,,right,0,0.15026801274507307,0,,,,,,,,,,,,,,,,,,,,,,1053,2019_Mar_13_1241,mf_amp_cond1,3.0.4,59.9906683944439,
opportunity,chonograph,&&&&&&&&&&,left,fairness.virtue,,,,,,,0,256,256,256,,,,,,,,,,,,,,,,,,,,,AMP,right,0.1502757100679446,,,right,0,0.1502757100679446,0,,,,,,,,,,,,,,,,,,,,,,1053,2019_Mar_13_1241,mf_amp_cond1,3.0.4,59.9906683944439,
strength,ning,&&&&,left,sanctity.virtue,,,,,,,0,257,257,257,,,,,,,,,,,,,,,,,,,,,AMP,right,0.20026337826857343,,,right,0,0.20026337826857343,0,,,,,,,,,,,,,,,,,,,,,,1053,2019_Mar_13_1241,mf_amp_cond1,3.0.4,59.9906683944439,
ebbitter,Phintoism,&&&&&&&&&,None,nonword,,,,,,,0,258,258,258,,,,,,,,,,,,,,,,,,,,,AMP,left,1.2005132219928782,,,left,0,1.2005132219928782,0,,,,,,,,,,,,,,,,,,,,,,1053,2019_Mar_13_1241,mf_amp_cond1,3.0.4,59.9906683944439,
died,wump,&&&&,right,care.vice,,,,,,,0,259,259,259,,,,,,,,,,,,,,,,,,,,,AMP,left,0.33363631027168594,,,left,0,0.33363631027168594,0,,,,,,,,,,,,,,,,,,,,,,1053,2019_Mar_13_1241,mf_amp_cond1,3.0.4,59.9906683944439,
good,reelectiob,&&&&&&&&&&,left,care.virtue,,,,,,,0,260,260,260,,,,,,,,,,,,,,,,,,,,,AMP,right,0.4003247006330639,,,right,0,0.4003247006330639,0,,,,,,,,,,,,,,,,,,,,,,1053,2019_Mar_13_1241,mf_amp_cond1,3.0.4,59.9906683944439,
benefit,stindig,&&&&&&&,left,fairness.virtue,,,,,,,0,261,261,261,,,,,,,,,,,,,,,,,,,,,AMP,right,0.26695625873981044,,,right,0,0.26695625873981044,0,,,,,,,,,,,,,,,,,,,,,,1053,2019_Mar_13_1241,mf_amp_cond1,3.0.4,59.9906683944439,
celebrated,quarterbocks,&&&&&&&&&&&&,left,authority.virtue,,,,,,,0,262,262,262,,,,,,,,,,,,,,,,,,,,,AMP,right,0.4836875137989409,,,right,0,0.4836875137989409,0,,,,,,,,,,,,,,,,,,,,,,1053,2019_Mar_13_1241,mf_amp_cond1,3.0.4,59.9906683944439,
ensure,menizen,&&&&&&&,left,fairness.virtue,,,,,,,0,263,263,263,,,,,,,,,,,,,,,,,,,,,AMP,right,0.45040120926569216,,,right,0,0.45040120926569216,0,,,,,,,,,,,,,,,,,,,,,,1053,2019_Mar_13_1241,mf_amp_cond1,3.0.4,59.9906683944439,
increase,ronviolence,&&&&&&&&&&&,left,care.virtue,,,,,,,0,264,264,264,,,,,,,,,,,,,,,,,,,,,AMP,right,0.400327266426757,,,right,0,0.400327266426757,0,,,,,,,,,,,,,,,,,,,,,,1053,2019_Mar_13_1241,mf_amp_cond1,3.0.4,59.9906683944439,
honstables,tislay,&&&&&&,None,nonword,,,,,,,0,265,265,265,,,,,,,,,,,,,,,,,,,,,AMP,right,0.3334993612661492,,,right,0,0.3334993612661492,0,,,,,,,,,,,,,,,,,,,,,,1053,2019_Mar_13_1241,mf_amp_cond1,3.0.4,59.9906683944439,
strong,frojecting,&&&&&&&&&&,left,loyalty.virtue,,,,,,,0,266,266,266,,,,,,,,,,,,,,,,,,,,,AMP,right,0.5503662824339699,,,right,0,0.5503662824339699,0,,,,,,,,,,,,,,,,,,,,,,1053,2019_Mar_13_1241,mf_amp_cond1,3.0.4,59.9906683944439,
values,rorroborated,&&&&&&&&&&&&,left,sanctity.virtue,,,,,,,0,267,267,267,,,,,,,,,,,,,,,,,,,,,AMP,left,0.8837915565818548,,,left,1,0.8837915565818548,1,,,,,,,,,,,,,,,,,,,,,,1053,2019_Mar_13_1241,mf_amp_cond1,3.0.4,59.9906683944439,
care,bluently,&&&&&&&&,left,care.virtue,,,,,,,0,268,268,268,,,,,,,,,,,,,,,,,,,,,AMP,right,0.28362779508461244,,,right,0,0.28362779508461244,0,,,,,,,,,,,,,,,,,,,,,,1053,2019_Mar_13_1241,mf_amp_cond1,3.0.4,59.9906683944439,
serial,clattening,&&&&&&&&&&,right,sanctity.vice,,,,,,,0,269,269,269,,,,,,,,,,,,,,,,,,,,,AMP,left,1.0171494145761244,,,left,0,1.0171494145761244,0,,,,,,,,,,,,,,,,,,,,,,1053,2019_Mar_13_1241,mf_amp_cond1,3.0.4,59.9906683944439,
critics,pafer,&&&&&,right,loyalty.vice,,,,,,,0,270,270,270,,,,,,,,,,,,,,,,,,,,,AMP,right,0.6503826714470051,,,right,1,0.6503826714470051,1,,,,,,,,,,,,,,,,,,,,,,1053,2019_Mar_13_1241,mf_amp_cond1,3.0.4,59.9906683944439,
counpy's,cromiscuity,&&&&&&&&&&&,None,nonword,,,,,,,0,271,271,271,,,,,,,,,,,,,,,,,,,,,AMP,left,2.6009155377396382,,,left,0,2.6009155377396382,0,,,,,,,,,,,,,,,,,,,,,,1053,2019_Mar_13_1241,mf_amp_cond1,3.0.4,59.9906683944439,
injured,rivernoat,&&&&&&&&&,right,care.vice,,,,,,,0,272,272,272,,,,,,,,,,,,,,,,,,,,,AMP,left,0.5170158331748098,,,left,0,0.5170158331748098,0,,,,,,,,,,,,,,,,,,,,,,1053,2019_Mar_13_1241,mf_amp_cond1,3.0.4,59.9906683944439,
shot,mightingale,&&&&&&&&&&&,right,care.vice,,,,,,,0,273,273,273,,,,,,,,,,,,,,,,,,,,,AMP,left,0.6337233226222452,,,left,0,0.6337233226222452,0,,,,,,,,,,,,,,,,,,,,,,1053,2019_Mar_13_1241,mf_amp_cond1,3.0.4,59.9906683944439,
intelligence,mecan,&&&&&,left,loyalty.virtue,,,,,,,0,274,274,274,,,,,,,,,,,,,,,,,,,,,AMP,right,1.5839893468655646,,,right,0,1.5839893468655646,0,,,,,,,,,,,,,,,,,,,,,,1053,2019_Mar_13_1241,mf_amp_cond1,3.0.4,59.9906683944439,
suicide,faspberry,&&&&&&&&&,right,care.vice,,,,,,,0,275,275,275,,,,,,,,,,,,,,,,,,,,,AMP,left,0.41699399187928066,,,left,0,0.41699399187928066,0,,,,,,,,,,,,,,,,,,,,,,1053,2019_Mar_13_1241,mf_amp_cond1,3.0.4,59.9906683944439,
conspiracy,gowlands,&&&&&&&&,right,sanctity.vice,,,,,,,0,276,276,276,,,,,,,,,,,,,,,,,,,,,AMP,left,1.1671884305833373,,,left,0,1.1671884305833373,0,,,,,,,,,,,,,,,,,,,,,,1053,2019_Mar_13_1241,mf_amp_cond1,3.0.4,59.9906683944439,
ban,laming,&&&&&&,right,loyalty.vice,,,,,,,0,277,277,277,,,,,,,,,,,,,,,,,,,,,AMP,left,0.28363677533343434,,,left,0,0.28363677533343434,0,,,,,,,,,,,,,,,,,,,,,,1053,2019_Mar_13_1241,mf_amp_cond1,3.0.4,59.9906683944439,
health,lursuer,&&&&&&&,left,care.virtue,,,,,,,0,278,278,278,,,,,,,,,,,,,,,,,,,,,AMP,right,0.3170045436709188,,,right,0,0.3170045436709188,0,,,,,,,,,,,,,,,,,,,,,,1053,2019_Mar_13_1241,mf_amp_cond1,3.0.4,59.9906683944439,
unpleasant,Loorish,&&&&&&&,None,control,,,,,,,0,279,279,279,,,,,,,,,,,,,,,,,,,,,AMP,left,0.517031548632076,,,left,0,0.517031548632076,0,,,,,,,,,,,,,,,,,,,,,,1053,2019_Mar_13_1241,mf_amp_cond1,3.0.4,59.9906683944439,
penalty,seachwear,&&&&&&&&&,right,authority.vice,,,,,,,0,280,280,280,,,,,,,,,,,,,,,,,,,,,AMP,left,0.7337425980949774,,,left,0,0.7337425980949774,0,,,,,,,,,,,,,,,,,,,,,,1053,2019_Mar_13_1241,mf_amp_cond1,3.0.4,59.9906683944439,
galamitous,letish,&&&&&&,None,nonword,,,,,,,0,281,281,281,,,,,,,,,,,,,,,,,,,,,AMP,left,0.36697521348833106,,,left,0,0.36697521348833106,0,,,,,,,,,,,,,,,,,,,,,,1053,2019_Mar_13_1241,mf_amp_cond1,3.0.4,59.9906683944439,
trust,thadowed,&&&&&&&&,left,authority.virtue,,,,,,,0,282,282,282,,,,,,,,,,,,,,,,,,,,,AMP,right,0.25028376025147736,,,right,0,0.25028376025147736,0,,,,,,,,,,,,,,,,,,,,,,1053,2019_Mar_13_1241,mf_amp_cond1,3.0.4,59.9906683944439,
photocalkodes,aubos,&&&&&,None,nonword,,,,,,,0,283,283,283,,,,,,,,,,,,,,,,,,,,,AMP,left,0.6504516270069871,,,left,0,0.6504516270069871,0,,,,,,,,,,,,,,,,,,,,,,1053,2019_Mar_13_1241,mf_amp_cond1,3.0.4,59.9906683944439,
fraud,atson,&&&&&,right,fairness.vice,,,,,,,0,284,284,284,,,,,,,,,,,,,,,,,,,,,AMP,left,0.817112787917722,,,left,0,0.817112787917722,0,,,,,,,,,,,,,,,,,,,,,,1053,2019_Mar_13_1241,mf_amp_cond1,3.0.4,59.9906683944439,
voter,sonvoy,&&&&&&,right,fairness.vice,,,,,,,0,285,285,285,,,,,,,,,,,,,,,,,,,,,AMP,left,0.283627474331297,,,left,0,0.283627474331297,0,,,,,,,,,,,,,,,,,,,,,,1053,2019_Mar_13_1241,mf_amp_cond1,3.0.4,59.9906683944439,
lies,baladroit,&&&&&&&&&,right,fairness.vice,,,,,,,0,286,286,286,,,,,,,,,,,,,,,,,,,,,AMP,left,0.3836470705573447,,,left,0,0.3836470705573447,0,,,,,,,,,,,,,,,,,,,,,,1053,2019_Mar_13_1241,mf_amp_cond1,3.0.4,59.9906683944439,
terrorist,troubla,&&&&&&&,right,loyalty.vice,,,,,,,0,287,287,287,,,,,,,,,,,,,,,,,,,,,AMP,left,0.40033015291555785,,,left,0,0.40033015291555785,0,,,,,,,,,,,,,,,,,,,,,,1053,2019_Mar_13_1241,mf_amp_cond1,3.0.4,59.9906683944439,
refused,bycled,&&&&&&,right,authority.vice,,,,,,,0,288,288,288,,,,,,,,,,,,,,,,,,,,,AMP,right,0.6670814692624845,,,right,1,0.6670814692624845,1,,,,,,,,,,,,,,,,,,,,,,1053,2019_Mar_13_1241,mf_amp_cond1,3.0.4,59.9906683944439,
groups,framatic,&&&&&&&&,right,loyalty.vice,,,,,,,0,289,289,289,,,,,,,,,,,,,,,,,,,,,AMP,right,0.2836284365039319,,,right,1,0.2836284365039319,1,,,,,,,,,,,,,,,,,,,,,,1053,2019_Mar_13_1241,mf_amp_cond1,3.0.4,59.9906683944439,
illegal,abointment,&&&&&&&&&&,right,fairness.vice,,,,,,,0,290,290,290,,,,,,,,,,,,,,,,,,,,,AMP,right,0.6503903687698767,,,right,1,0.6503903687698767,1,,,,,,,,,,,,,,,,,,,,,,1053,2019_Mar_13_1241,mf_amp_cond1,3.0.4,59.9906683944439,
party,totalestic,&&&&&&&&&&,left,loyalty.virtue,,,,,,,0,291,291,291,,,,,,,,,,,,,,,,,,,,,AMP,left,1.4505965299613308,,,left,1,1.4505965299613308,1,,,,,,,,,,,,,,,,,,,,,,1053,2019_Mar_13_1241,mf_amp_cond1,3.0.4,59.9906683944439,
growth,tenuflect,&&&&&&&&&,left,care.virtue,,,,,,,0,292,292,292,,,,,,,,,,,,,,,,,,,,,AMP,right,0.26697004985180683,,,right,0,0.26697004985180683,0,,,,,,,,,,,,,,,,,,,,,,1053,2019_Mar_13_1241,mf_amp_cond1,3.0.4,59.9906683944439,
tabin,juck,&&&&,None,nonword,,,,,,,0,293,293,293,,,,,,,,,,,,,,,,,,,,,AMP,left,0.4169914261146914,,,left,0,0.4169914261146914,0,,,,,,,,,,,,,,,,,,,,,,1053,2019_Mar_13_1241,mf_amp_cond1,3.0.4,59.9906683944439,
men,reviked,&&&&&&&,right,loyalty.vice,,,,,,,0,294,294,294,,,,,,,,,,,,,,,,,,,,,AMP,right,0.3503116952779237,,,right,1,0.3503116952779237,1,,,,,,,,,,,,,,,,,,,,,,1053,2019_Mar_13_1241,mf_amp_cond1,3.0.4,59.9906683944439,
help,smapper,&&&&&&&,left,care.virtue,,,,,,,0,295,295,295,,,,,,,,,,,,,,,,,,,,,AMP,right,0.38365476790932007,,,right,0,0.38365476790932007,0,,,,,,,,,,,,,,,,,,,,,,1053,2019_Mar_13_1241,mf_amp_cond1,3.0.4,59.9906683944439,
riot,egpeditious,&&&&&&&&&&&,right,authority.vice,,,,,,,0,296,296,296,,,,,,,,,,,,,,,,,,,,,AMP,left,0.6837382522935513,,,left,0,0.6837382522935513,0,,,,,,,,,,,,,,,,,,,,,,1053,2019_Mar_13_1241,mf_amp_cond1,3.0.4,59.9906683944439,
commitment,gillipede,&&&&&&&&&,left,sanctity.virtue,,,,,,,0,297,297,297,,,,,,,,,,,,,,,,,,,,,AMP,left,2.0841287012735847,,,left,1,2.0841287012735847,1,,,,,,,,,,,,,,,,,,,,,,1053,2019_Mar_13_1241,mf_amp_cond1,3.0.4,59.9906683944439,
Daptist,proached,&&&&&&&&,None,nonword,,,,,,,0,298,298,298,,,,,,,,,,,,,,,,,,,,,AMP,left,0.3503203548316378,,,left,0,0.3503203548316378,0,,,,,,,,,,,,,,,,,,,,,,1053,2019_Mar_13_1241,mf_amp_cond1,3.0.4,59.9906683944439,
friends,fornicalion,&&&&&&&&&&&,left,loyalty.virtue,,,,,,,0,299,299,299,,,,,,,,,,,,,,,,,,,,,AMP,right,0.26696491829352453,,,right,0,0.26696491829352453,0,,,,,,,,,,,,,,,,,,,,,,1053,2019_Mar_13_1241,mf_amp_cond1,3.0.4,59.9906683944439,
win,pullness,&&&&&&&&,left,fairness.virtue,,,,,,,0,300,300,300,,,,,,,,,,,,,,,,,,,,,AMP,right,0.3503126574505586,,,right,0,0.3503126574505586,0,,,,,,,,,,,,,,,,,,,,,,1053,2019_Mar_13_1241,mf_amp_cond1,3.0.4,59.9906683944439,
saned,grovelire,&&&&&&&&&,None,nonword,,,,,,,0,301,301,301,,,,,,,,,,,,,,,,,,,,,AMP,left,0.4836891174199991,,,left,0,0.4836891174199991,0,,,,,,,,,,,,,,,,,,,,,,1053,2019_Mar_13_1241,mf_amp_cond1,3.0.4,59.9906683944439,
threatened,spag,&&&&,right,fairness.vice,,,,,,,0,302,302,302,,,,,,,,,,,,,,,,,,,,,AMP,left,0.5670378187787719,,,left,0,0.5670378187787719,0,,,,,,,,,,,,,,,,,,,,,,1053,2019_Mar_13_1241,mf_amp_cond1,3.0.4,59.9906683944439,
encourage,metibolic,&&&&&&&&&,left,authority.virtue,,,,,,,0,303,303,303,,,,,,,,,,,,,,,,,,,,,AMP,right,0.3503152232442517,,,right,0,0.3503152232442517,0,,,,,,,,,,,,,,,,,,,,,,1053,2019_Mar_13_1241,mf_amp_cond1,3.0.4,59.9906683944439,
gun,supervuned,&&&&&&&&&&,right,authority.vice,,,,,,,0,304,304,304,,,,,,,,,,,,,,,,,,,,,AMP,left,0.600384740071604,,,left,0,0.600384740071604,0,,,,,,,,,,,,,,,,,,,,,,1053,2019_Mar_13_1241,mf_amp_cond1,3.0.4,59.9906683944439,
fighters,leact,&&&&&,right,authority.vice,,,,,,,0,305,305,305,,,,,,,,,,,,,,,,,,,,,AMP,left,0.4670425975637045,,,left,0,0.4670425975637045,0,,,,,,,,,,,,,,,,,,,,,,1053,2019_Mar_13_1241,mf_amp_cond1,3.0.4,59.9906683944439,
improve,ittutable,&&&&&&&&&,left,care.virtue,,,,,,,0,306,306,306,,,,,,,,,,,,,,,,,,,,,AMP,right,0.41699784056982026,,,right,0,0.41699784056982026,0,,,,,,,,,,,,,,,,,,,,,,1053,2019_Mar_13_1241,mf_amp_cond1,3.0.4,59.9906683944439,
prosecution,fostet,&&&&&&,right,authority.vice,,,,,,,0,307,307,307,,,,,,,,,,,,,,,,,,,,,AMP,right,0.5670262727071531,,,right,1,0.5670262727071531,1,,,,,,,,,,,,,,,,,,,,,,1053,2019_Mar_13_1241,mf_amp_cond1,3.0.4,59.9906683944439,
hope,neutralust,&&&&&&&&&&,left,loyalty.virtue,,,,,,,0,308,308,308,,,,,,,,,,,,,,,,,,,,,AMP,right,0.2836326059186831,,,right,0,0.2836326059186831,0,,,,,,,,,,,,,,,,,,,,,,1053,2019_Mar_13_1241,mf_amp_cond1,3.0.4,59.9906683944439,
perfect,edancipation,&&&&&&&&&&&&,left,sanctity.virtue,,,,,,,0,309,309,309,,,,,,,,,,,,,,,,,,,,,AMP,right,0.5670365358819254,,,right,0,0.5670365358819254,0,,,,,,,,,,,,,,,,,,,,,,1053,2019_Mar_13_1241,mf_amp_cond1,3.0.4,59.9906683944439,
energy,perified,&&&&&&&&,left,sanctity.virtue,,,,,,,0,310,310,310,,,,,,,,,,,,,,,,,,,,,AMP,right,1.550635048886761,,,right,0,1.550635048886761,0,,,,,,,,,,,,,,,,,,,,,,1053,2019_Mar_13_1241,mf_amp_cond1,3.0.4,59.9906683944439,
fonderland,squets,&&&&&&,None,nonword,,,,,,,0,311,311,311,,,,,,,,,,,,,,,,,,,,,AMP,right,1.3339211128768511,,,right,0,1.3339211128768511,0,,,,,,,,,,,,,,,,,,,,,,1053,2019_Mar_13_1241,mf_amp_cond1,3.0.4,59.9906683944439,
rebels,precificity,&&&&&&&&&&&,right,authority.vice,,,,,,,0,312,312,312,,,,,,,,,,,,,,,,,,,,,AMP,left,0.5503534534946084,,,left,0,0.5503534534946084,0,,,,,,,,,,,,,,,,,,,,,,1053,2019_Mar_13_1241,mf_amp_cond1,3.0.4,59.9906683944439,
drug,chressing,&&&&&&&&&,right,sanctity.vice,,,,,,,0,313,313,313,,,,,,,,,,,,,,,,,,,,,AMP,left,0.4003622252785135,,,left,0,0.4003622252785135,0,,,,,,,,,,,,,,,,,,,,,,1053,2019_Mar_13_1241,mf_amp_cond1,3.0.4,59.9906683944439,
victim,greaks,&&&&&&,right,care.vice,,,,,,,0,314,314,314,,,,,,,,,,,,,,,,,,,,,AMP,left,0.41700778299127705,,,left,0,0.41700778299127705,0,,,,,,,,,,,,,,,,,,,,,,1053,2019_Mar_13_1241,mf_amp_cond1,3.0.4,59.9906683944439,
clean,nomparisons,&&&&&&&&&&&,left,sanctity.virtue,,,,,,,0,315,315,315,,,,,,,,,,,,,,,,,,,,,AMP,right,0.2836351717123762,,,right,0,0.2836351717123762,0,,,,,,,,,,,,,,,,,,,,,,1053,2019_Mar_13_1241,mf_amp_cond1,3.0.4,59.9906683944439,
promises,imebreaker,&&&&&&&&&&,left,fairness.virtue,,,,,,,0,316,316,316,,,,,,,,,,,,,,,,,,,,,AMP,right,0.4503486105822958,,,right,0,0.4503486105822958,0,,,,,,,,,,,,,,,,,,,,,,1053,2019_Mar_13_1241,mf_amp_cond1,3.0.4,59.9906683944439,
faith,simplustic,&&&&&&&&&&,left,sanctity.virtue,,,,,,,0,317,317,317,,,,,,,,,,,,,,,,,,,,,AMP,right,0.5003519942401908,,,right,0,0.5003519942401908,0,,,,,,,,,,,,,,,,,,,,,,1053,2019_Mar_13_1241,mf_amp_cond1,3.0.4,59.9906683944439,
credit,vicissifude,&&&&&&&&&&&,left,fairness.virtue,,,,,,,0,318,318,318,,,,,,,,,,,,,,,,,,,,,AMP,right,0.3503036772017367,,,right,0,0.3503036772017367,0,,,,,,,,,,,,,,,,,,,,,,1053,2019_Mar_13_1241,mf_amp_cond1,3.0.4,59.9906683944439,
death,emassion,&&&&&&&&,right,care.vice,,,,,,,0,319,319,319,,,,,,,,,,,,,,,,,,,,,AMP,left,0.3336504221369978,,,left,0,0.3336504221369978,0,,,,,,,,,,,,,,,,,,,,,,1053,2019_Mar_13_1241,mf_amp_cond1,3.0.4,59.9906683944439,
accused,feleological,&&&&&&&&&&&&,right,fairness.vice,,,,,,,0,320,320,320,,,,,,,,,,,,,,,,,,,,,AMP,left,0.8337763061572332,,,left,0,0.8337763061572332,0,,,,,,,,,,,,,,,,,,,,,,1053,2019_Mar_13_1241,mf_amp_cond1,3.0.4,59.9906683944439,
failure,suggists,&&&&&&&&,right,loyalty.vice,,,,,,,0,321,321,321,,,,,,,,,,,,,,,,,,,,,AMP,right,0.6003962861432228,,,right,1,0.6003962861432228,1,,,,,,,,,,,,,,,,,,,,,,1053,2019_Mar_13_1241,mf_amp_cond1,3.0.4,59.9906683944439,
sharing,hescribe,&&&&&&&&,left,loyalty.virtue,,,,,,,0,322,322,322,,,,,,,,,,,,,,,,,,,,,AMP,right,0.6003927582059987,,,right,0,0.6003927582059987,0,,,,,,,,,,,,,,,,,,,,,,1053,2019_Mar_13_1241,mf_amp_cond1,3.0.4,59.9906683944439,
prones,divility,&&&&&&&&,None,nonword,,,,,,,0,323,323,323,,,,,,,,,,,,,,,,,,,,,AMP,left,0.3336408004106488,,,left,0,0.3336408004106488,0,,,,,,,,,,,,,,,,,,,,,,1053,2019_Mar_13_1241,mf_amp_cond1,3.0.4,59.9906683944439,
scandal,Oregoniuns,&&&&&&&&&&,right,sanctity.vice,,,,,,,0,324,324,324,,,,,,,,,,,,,,,,,,,,,AMP,left,0.45034412044333294,,,left,0,0.45034412044333294,0,,,,,,,,,,,,,,,,,,,,,,1053,2019_Mar_13_1241,mf_amp_cond1,3.0.4,59.9906683944439,
praise,gazily,&&&&&&,left,authority.virtue,,,,,,,0,325,325,325,,,,,,,,,,,,,,,,,,,,,AMP,left,0.3836765771266073,,,left,1,0.3836765771266073,1,,,,,,,,,,,,,,,,,,,,,,1053,2019_Mar_13_1241,mf_amp_cond1,3.0.4,59.9906683944439,
honored,uller,&&&&&,left,authority.virtue,,,,,,,0,326,326,326,,,,,,,,,,,,,,,,,,,,,AMP,left,0.4003067401063163,,,left,1,0.4003067401063163,1,,,,,,,,,,,,,,,,,,,,,,1053,2019_Mar_13_1241,mf_amp_cond1,3.0.4,59.9906683944439,
violence,hatigue,&&&&&&&,right,care.vice,,,,,,,0,327,327,327,,,,,,,,,,,,,,,,,,,,,AMP,left,0.7170858150639106,,,left,0,0.7170858150639106,0,,,,,,,,,,,,,,,,,,,,,,1053,2019_Mar_13_1241,mf_amp_cond1,3.0.4,59.9906683944439,
,,,,,,,,,,,,,,,,,,,,,,,,,,,,,,,,,,,,,,,,,,,,6,25.358,,,,,,,,,,,,,,,,,,,,1053,2019_Mar_13_1241,mf_amp_cond1,3.0.4,59.9906683944439,
,,,,,,,,,,,,,,,,,,,,,,,,,,,,,,,,,,,,,,,,,,,,,,5,17.673,,,,,,,,,,,,,,,,,,1053,2019_Mar_13_1241,mf_amp_cond1,3.0.4,59.9906683944439,
,,,,,,,,,,,,,,,,,,,,,,,,,,,,,,,,,,,,,,,,,,,,,,,,6,4.47,,,,,,,,,,,,,,,,1053,2019_Mar_13_1241,mf_amp_cond1,3.0.4,59.9906683944439,
,,,,,,,,,,,,,,,,,,,,,,,,,,,,,,,,,,,,,,,,,,,,,,,,,,right,1.7340642839262728,,,,,,,,,,,,,,1053,2019_Mar_13_1241,mf_amp_cond1,3.0.4,59.9906683944439,
bisebell,,&&&&&&&,,,,,,,,,,,,,0,0,0,1,,,,,,,,,,,,,,,,,LDT_prac,left,2.217452562559629,,,,,,0,,,,,,,,,left,2.217452562559629,,,,,,,,,,,,1053,2019_Mar_13_1241,mf_amp_cond1,3.0.4,59.9906683944439,
keyboard,,&&&&&&&,,,,,,,,,,,,,0,1,1,0,,,,,,,,,,,,,,,,,LDT_prac,left,0.8504237881861627,,,,,,0,,,,,,,,,left,0.8504237881861627,,,,,,,,,,,,1053,2019_Mar_13_1241,mf_amp_cond1,3.0.4,59.9906683944439,
,,,,,,,,,,,,,,,,,,,,,,,,,,,,,,,,,,,,,,,,,,,,,,,,,,,,,,right,1.8674121994990855,,,,,,,,,,1053,2019_Mar_13_1241,mf_amp_cond1,3.0.4,59.9906683944439,
dramens,,&&&&&&&,right,nonword,,,,,,,,,,,,,,,0,0,0,120,,,,,,,,,,,,,LDT,left,1.4339237107196823,,,,,,0,,,,,,,,,,,,,left,0,1.4339237107196823,,,,,,,1053,2019_Mar_13_1241,mf_amp_cond1,3.0.4,59.9906683944439,
support,,&&&&&&&,left,loyalty.virtue,,,,,,,,,,,,,,,0,1,1,168,,,,,,,,,,,,,LDT,left,1.9840674109582324,,,,,,1,,,,,,,,,,,,,left,1,1.9840674109582324,,,,,,,1053,2019_Mar_13_1241,mf_amp_cond1,3.0.4,59.9906683944439,
somehow,,&&&&&&&,left,neutral,,,,,,,,,,,,,,,0,2,2,65,,,,,,,,,,,,,LDT,left,0.8837909151043277,,,,,,1,,,,,,,,,,,,,left,1,0.8837909151043277,,,,,,,1053,2019_Mar_13_1241,mf_amp_cond1,3.0.4,59.9906683944439,
disregord,,&&&&&&&&&,right,nonword,,,,,,,,,,,,,,,0,3,3,122,,,,,,,,,,,,,LDT,left,0.6837895680801012,,,,,,0,,,,,,,,,,,,,left,0,0.6837895680801012,,,,,,,1053,2019_Mar_13_1241,mf_amp_cond1,3.0.4,59.9906683944439,
pistraught,,&&&&&&&&&&,right,nonword,,,,,,,,,,,,,,,0,4,4,110,,,,,,,,,,,,,LDT,left,1.0671855120162945,,,,,,0,,,,,,,,,,,,,left,0,1.0671855120162945,,,,,,,1053,2019_Mar_13_1241,mf_amp_cond1,3.0.4,59.9906683944439,
both,,&&&&,left,neutral,,,,,,,,,,,,,,,0,5,5,157,,,,,,,,,,,,,LDT,right,1.3672552052885294,,,,,,0,,,,,,,,,,,,,right,0,1.3672552052885294,,,,,,,1053,2019_Mar_13_1241,mf_amp_cond1,3.0.4,59.9906683944439,
gournful,,&&&&&&&&,right,nonword,,,,,,,,,,,,,,,0,6,6,151,,,,,,,,,,,,,LDT,left,0.7670927266590297,,,,,,0,,,,,,,,,,,,,left,0,0.7670927266590297,,,,,,,1053,2019_Mar_13_1241,mf_amp_cond1,3.0.4,59.9906683944439,
although,,&&&&&&&&,left,neutral,,,,,,,,,,,,,,,0,7,7,145,,,,,,,,,,,,,LDT,left,0.7004142787482124,,,,,,1,,,,,,,,,,,,,left,1,0.7004142787482124,,,,,,,1053,2019_Mar_13_1241,mf_amp_cond1,3.0.4,59.9906683944439,
godlaness,,&&&&&&&&&,right,nonword,,,,,,,,,,,,,,,0,8,8,143,,,,,,,,,,,,,LDT,left,0.5172079466283321,,,,,,0,,,,,,,,,,,,,left,0,0.5172079466283321,,,,,,,1053,2019_Mar_13_1241,mf_amp_cond1,3.0.4,59.9906683944439,
anything,,&&&&&&&&,left,neutral,,,,,,,,,,,,,,,0,9,9,89,,,,,,,,,,,,,LDT,left,0.4003275871509686,,,,,,1,,,,,,,,,,,,,left,1,0.4003275871509686,,,,,,,1053,2019_Mar_13_1241,mf_amp_cond1,3.0.4,59.9906683944439,
infet,,&&&&&,right,nonword,,,,,,,,,,,,,,,0,10,10,117,,,,,,,,,,,,,LDT,right,1.8173568586353213,,,,,,1,,,,,,,,,,,,,right,1,1.8173568586353213,,,,,,,1053,2019_Mar_13_1241,mf_amp_cond1,3.0.4,59.9906683944439,
ammessment,,&&&&&&&&&&,right,nonword,,,,,,,,,,,,,,,0,11,11,162,,,,,,,,,,,,,LDT,left,1.3172367476217914,,,,,,0,,,,,,,,,,,,,left,0,1.3172367476217914,,,,,,,1053,2019_Mar_13_1241,mf_amp_cond1,3.0.4,59.9906683944439,
forced,,&&&&&&,left,fairness.vice,,,,,,,,,,,,,,,0,12,12,111,,,,,,,,,,,,,LDT,left,1.0171818076632917,,,,,,1,,,,,,,,,,,,,left,1,1.0171818076632917,,,,,,,1053,2019_Mar_13_1241,mf_amp_cond1,3.0.4,59.9906683944439,
fear,,&&&&,left,sanctity.vice,,,,,,,,,,,,,,,0,13,13,43,,,,,,,,,,,,,LDT,left,1.5839887054171413,,,,,,1,,,,,,,,,,,,,left,1,1.5839887054171413,,,,,,,1053,2019_Mar_13_1241,mf_amp_cond1,3.0.4,59.9906683944439,
compassion,,&&&&&&&&&&,left,care.virtue,,,,,,,,,,,,,,,0,14,14,84,,,,,,,,,,,,,LDT,right,0.8337830413365737,,,,,,0,,,,,,,,,,,,,right,0,0.8337830413365737,,,,,,,1053,2019_Mar_13_1241,mf_amp_cond1,3.0.4,59.9906683944439,
tracious,,&&&&&&&&,right,nonword,,,,,,,,,,,,,,,0,15,15,141,,,,,,,,,,,,,LDT,left,1.3338755701261107,,,,,,0,,,,,,,,,,,,,left,0,1.3338755701261107,,,,,,,1053,2019_Mar_13_1241,mf_amp_cond1,3.0.4,59.9906683944439,
focomotive,,&&&&&&&&&&,right,nonword,,,,,,,,,,,,,,,0,16,16,14,,,,,,,,,,,,,LDT,left,0.6670609429420438,,,,,,0,,,,,,,,,,,,,left,0,0.6670609429420438,,,,,,,1053,2019_Mar_13_1241,mf_amp_cond1,3.0.4,59.9906683944439,
army,,&&&&,left,loyalty.vice,,,,,,,,,,,,,,,0,17,17,51,,,,,,,,,,,,,LDT,right,0.833640640048543,,,,,,0,,,,,,,,,,,,,right,0,0.833640640048543,,,,,,,1053,2019_Mar_13_1241,mf_amp_cond1,3.0.4,59.9906683944439,
scock,,&&&&&,right,nonword,,,,,,,,,,,,,,,0,18,18,41,,,,,,,,,,,,,LDT,left,0.750426001206506,,,,,,0,,,,,,,,,,,,,left,0,0.750426001206506,,,,,,,1053,2019_Mar_13_1241,mf_amp_cond1,3.0.4,59.9906683944439,
actively,,&&&&&&&&,left,authority.virtue,,,,,,,,,,,,,,,0,19,19,161,,,,,,,,,,,,,LDT,left,0.9837142942415085,,,,,,1,,,,,,,,,,,,,left,1,0.9837142942415085,,,,,,,1053,2019_Mar_13_1241,mf_amp_cond1,3.0.4,59.9906683944439,
even,,&&&&,left,neutral,,,,,,,,,,,,,,,0,20,20,160,,,,,,,,,,,,,LDT,left,2.117417892353842,,,,,,1,,,,,,,,,,,,,left,1,2.117417892353842,,,,,,,1053,2019_Mar_13_1241,mf_amp_cond1,3.0.4,59.9906683944439,
erks,,&&&&,right,nonword,,,,,,,,,,,,,,,0,21,21,176,,,,,,,,,,,,,LDT,left,0.9004547540680505,,,,,,0,,,,,,,,,,,,,left,0,0.9004547540680505,,,,,,,1053,2019_Mar_13_1241,mf_amp_cond1,3.0.4,59.9906683944439,
further,,&&&&&&&,left,neutral,,,,,,,,,,,,,,,0,22,22,96,,,,,,,,,,,,,LDT,right,0.7170761933375616,,,,,,0,,,,,,,,,,,,,right,0,0.7170761933375616,,,,,,,1053,2019_Mar_13_1241,mf_amp_cond1,3.0.4,59.9906683944439,
ecgagement,,&&&&&&&&&&,None,nonword,,,,,,,,,,,,,,,0,23,23,22,,,,,,,,,,,,,LDT,left,1.3505746886658017,,,,,,0,,,,,,,,,,,,,left,0,1.3505746886658017,,,,,,,1053,2019_Mar_13_1241,mf_amp_cond1,3.0.4,59.9906683944439,
taxpayung,,&&&&&&&&&,right,nonword,,,,,,,,,,,,,,,0,24,24,198,,,,,,,,,,,,,LDT,left,0.9504693630442489,,,,,,0,,,,,,,,,,,,,left,0,0.9504693630442489,,,,,,,1053,2019_Mar_13_1241,mf_amp_cond1,3.0.4,59.9906683944439,
noped,,&&&&&,right,nonword,,,,,,,,,,,,,,,0,25,25,171,,,,,,,,,,,,,LDT,left,0.500348466244759,,,,,,0,,,,,,,,,,,,,left,0,0.500348466244759,,,,,,,1053,2019_Mar_13_1241,mf_amp_cond1,3.0.4,59.9906683944439,
lorthwhile,,&&&&&&&&&&,right,nonword,,,,,,,,,,,,,,,0,26,26,199,,,,,,,,,,,,,LDT,right,0.6337252469384111,,,,,,1,,,,,,,,,,,,,right,1,0.6337252469384111,,,,,,,1053,2019_Mar_13_1241,mf_amp_cond1,3.0.4,59.9906683944439,
asn,,&&&,right,nonword,,,,,,,,,,,,,,,0,27,27,178,,,,,,,,,,,,,LDT,right,0.5670432710612658,,,,,,1,,,,,,,,,,,,,right,1,0.5670432710612658,,,,,,,1053,2019_Mar_13_1241,mf_amp_cond1,3.0.4,59.9906683944439,
baklara,,&&&&&&&,right,nonword,,,,,,,,,,,,,,,0,28,28,20,,,,,,,,,,,,,LDT,left,0.8504455974034499,,,,,,0,,,,,,,,,,,,,left,0,0.8504455974034499,,,,,,,1053,2019_Mar_13_1241,mf_amp_cond1,3.0.4,59.9906683944439,
violations,,&&&&&&&&&&,left,sanctity.vice,,,,,,,,,,,,,,,0,29,29,59,,,,,,,,,,,,,LDT,left,1.6338756663608365,,,,,,1,,,,,,,,,,,,,left,1,1.6338756663608365,,,,,,,1053,2019_Mar_13_1241,mf_amp_cond1,3.0.4,59.9906683944439,
shoirmaster,,&&&&&&&&&&&,None,nonword,,,,,,,,,,,,,,,0,30,30,158,,,,,,,,,,,,,LDT,left,0.7503952117403969,,,,,,0,,,,,,,,,,,,,left,0,0.7503952117403969,,,,,,,1053,2019_Mar_13_1241,mf_amp_cond1,3.0.4,59.9906683944439,
powerful,,&&&&&&&&,left,authority.virtue,,,,,,,,,,,,,,,0,31,31,135,,,,,,,,,,,,,LDT,left,0.9504667972505558,,,,,,1,,,,,,,,,,,,,left,1,0.9504667972505558,,,,,,,1053,2019_Mar_13_1241,mf_amp_cond1,3.0.4,59.9906683944439,
officers,,&&&&&&&&,left,authority.vice,,,,,,,,,,,,,,,0,32,32,170,,,,,,,,,,,,,LDT,left,0.76714019375504,,,,,,1,,,,,,,,,,,,,left,1,0.76714019375504,,,,,,,1053,2019_Mar_13_1241,mf_amp_cond1,3.0.4,59.9906683944439,
nonobservalt,,&&&&&&&&&&&&,right,nonword,,,,,,,,,,,,,,,0,33,33,6,,,,,,,,,,,,,LDT,right,0.8004152729699854,,,,,,1,,,,,,,,,,,,,right,1,0.8004152729699854,,,,,,,1053,2019_Mar_13_1241,mf_amp_cond1,3.0.4,59.9906683944439,
progress,,&&&&&&&&,left,authority.virtue,,,,,,,,,,,,,,,0,34,34,28,,,,,,,,,,,,,LDT,right,1.0338341005553957,,,,,,0,,,,,,,,,,,,,right,0,1.0338341005553957,,,,,,,1053,2019_Mar_13_1241,mf_amp_cond1,3.0.4,59.9906683944439,
pulge,,&&&&&,right,nonword,,,,,,,,,,,,,,,0,35,35,169,,,,,,,,,,,,,LDT,left,0.8671299626876134,,,,,,0,,,,,,,,,,,,,left,0,0.8671299626876134,,,,,,,1053,2019_Mar_13_1241,mf_amp_cond1,3.0.4,59.9906683944439,
drumbled,,&&&&&&&&,right,nonword,,,,,,,,,,,,,,,0,36,36,35,,,,,,,,,,,,,LDT,left,0.8837886700348463,,,,,,0,,,,,,,,,,,,,left,0,0.8837886700348463,,,,,,,1053,2019_Mar_13_1241,mf_amp_cond1,3.0.4,59.9906683944439,
promote,,&&&&&&&,left,sanctity.virtue,,,,,,,,,,,,,,,0,37,37,130,,,,,,,,,,,,,LDT,left,1.7673647003248334,,,,,,1,,,,,,,,,,,,,left,1,1.7673647003248334,,,,,,,1053,2019_Mar_13_1241,mf_amp_cond1,3.0.4,59.9906683944439,
latter,,&&&&&&,left,neutral,,,,,,,,,,,,,,,0,38,38,15,,,,,,,,,,,,,LDT,left,1.7673999799008016,,,,,,1,,,,,,,,,,,,,left,1,1.7673999799008016,,,,,,,1053,2019_Mar_13_1241,mf_amp_cond1,3.0.4,59.9906683944439,
blamed,,&&&&&&,left,loyalty.vice,,,,,,,,,,,,,,,0,39,39,78,,,,,,,,,,,,,LDT,left,1.0671685136621818,,,,,,1,,,,,,,,,,,,,left,1,1.0671685136621818,,,,,,,1053,2019_Mar_13_1241,mf_amp_cond1,3.0.4,59.9906683944439,
lempestuous,,&&&&&&&&&&&,right,nonword,,,,,,,,,,,,,,,0,40,40,136,,,,,,,,,,,,,LDT,left,1.400592825608328,,,,,,0,,,,,,,,,,,,,left,0,1.400592825608328,,,,,,,1053,2019_Mar_13_1241,mf_amp_cond1,3.0.4,59.9906683944439,
therefore,,&&&&&&&&&,left,neutral,,,,,,,,,,,,,,,0,41,41,19,,,,,,,,,,,,,LDT,left,1.0504854313039687,,,,,,1,,,,,,,,,,,,,left,1,1.0504854313039687,,,,,,,1053,2019_Mar_13_1241,mf_amp_cond1,3.0.4,59.9906683944439,
towards,,&&&&&&&,left,neutral,,,,,,,,,,,,,,,0,42,42,62,,,,,,,,,,,,,LDT,left,1.0671739659737796,,,,,,1,,,,,,,,,,,,,left,1,1.0671739659737796,,,,,,,1053,2019_Mar_13_1241,mf_amp_cond1,3.0.4,59.9906683944439,
gandbrake,,&&&&&&&&&,right,nonword,,,,,,,,,,,,,,,0,43,43,77,,,,,,,,,,,,,LDT,right,1.8006910953554325,,,,,,1,,,,,,,,,,,,,right,1,1.8006910953554325,,,,,,,1053,2019_Mar_13_1241,mf_amp_cond1,3.0.4,59.9906683944439,
police,,&&&&&&,left,authority.vice,,,,,,,,,,,,,,,0,44,44,197,,,,,,,,,,,,,LDT,right,1.3505942528427113,,,,,,0,,,,,,,,,,,,,right,0,1.3505942528427113,,,,,,,1053,2019_Mar_13_1241,mf_amp_cond1,3.0.4,59.9906683944439,
terrorists,,&&&&&&&&&&,left,fairness.vice,,,,,,,,,,,,,,,0,45,45,26,,,,,,,,,,,,,LDT,right,1.333914056973299,,,,,,0,,,,,,,,,,,,,right,0,1.333914056973299,,,,,,,1053,2019_Mar_13_1241,mf_amp_cond1,3.0.4,59.9906683944439,
hence,,&&&&&,left,neutral,,,,,,,,,,,,,,,0,46,46,13,,,,,,,,,,,,,LDT,right,1.8173639145388734,,,,,,0,,,,,,,,,,,,,right,0,1.8173639145388734,,,,,,,1053,2019_Mar_13_1241,mf_amp_cond1,3.0.4,59.9906683944439,
freedom,,&&&&&&&,left,sanctity.virtue,,,,,,,,,,,,,,,0,47,47,71,,,,,,,,,,,,,LDT,left,1.100533716235077,,,,,,1,,,,,,,,,,,,,left,1,1.100533716235077,,,,,,,1053,2019_Mar_13_1241,mf_amp_cond1,3.0.4,59.9906683944439,
forepo,,&&&&&&,right,nonword,,,,,,,,,,,,,,,0,48,48,147,,,,,,,,,,,,,LDT,left,0.9838146807160228,,,,,,0,,,,,,,,,,,,,left,0,0.9838146807160228,,,,,,,1053,2019_Mar_13_1241,mf_amp_cond1,3.0.4,59.9906683944439,
everything,,&&&&&&&&&&,left,neutral,,,,,,,,,,,,,,,0,49,49,124,,,,,,,,,,,,,LDT,left,1.0338305725890677,,,,,,1,,,,,,,,,,,,,left,1,1.0338305725890677,,,,,,,1053,2019_Mar_13_1241,mf_amp_cond1,3.0.4,59.9906683944439,
prison,,&&&&&&,left,fairness.vice,,,,,,,,,,,,,,,0,50,50,112,,,,,,,,,,,,,LDT,left,1.517288448259933,,,,,,1,,,,,,,,,,,,,left,1,1.517288448259933,,,,,,,1053,2019_Mar_13_1241,mf_amp_cond1,3.0.4,59.9906683944439,
sgrawl,,&&&&&&,right,nonword,,,,,,,,,,,,,,,0,51,51,159,,,,,,,,,,,,,LDT,left,1.050531936227344,,,,,,0,,,,,,,,,,,,,left,0,1.050531936227344,,,,,,,1053,2019_Mar_13_1241,mf_amp_cond1,3.0.4,59.9906683944439,
iptervention,,&&&&&&&&&&&&,right,nonword,,,,,,,,,,,,,,,0,52,52,129,,,,,,,,,,,,,LDT,left,0.6837401766388211,,,,,,0,,,,,,,,,,,,,left,0,0.6837401766388211,,,,,,,1053,2019_Mar_13_1241,mf_amp_cond1,3.0.4,59.9906683944439,
toward,,&&&&&&,left,neutral,,,,,,,,,,,,,,,0,53,53,24,,,,,,,,,,,,,LDT,left,0.9171416851459071,,,,,,1,,,,,,,,,,,,,left,1,0.9171416851459071,,,,,,,1053,2019_Mar_13_1241,mf_amp_cond1,3.0.4,59.9906683944439,
war,,&&&,left,sanctity.vice,,,,,,,,,,,,,,,0,54,54,186,,,,,,,,,,,,,LDT,left,1.9674016477074474,,,,,,1,,,,,,,,,,,,,left,1,1.9674016477074474,,,,,,,1053,2019_Mar_13_1241,mf_amp_cond1,3.0.4,59.9906683944439,
hasks,,&&&&&,right,nonword,,,,,,,,,,,,,,,0,55,55,68,,,,,,,,,,,,,LDT,right,1.0505065990728326,,,,,,1,,,,,,,,,,,,,right,1,1.0505065990728326,,,,,,,1053,2019_Mar_13_1241,mf_amp_cond1,3.0.4,59.9906683944439,
amoungst,,&&&&&&&&,left,neutral,,,,,,,,,,,,,,,0,56,56,183,,,,,,,,,,,,,LDT,left,1.100530188268749,,,,,,1,,,,,,,,,,,,,left,1,1.100530188268749,,,,,,,1053,2019_Mar_13_1241,mf_amp_cond1,3.0.4,59.9906683944439,
nackers,,&&&&&&&,right,nonword,,,,,,,,,,,,,,,0,57,57,165,,,,,,,,,,,,,LDT,right,0.750468336744234,,,,,,1,,,,,,,,,,,,,right,1,0.750468336744234,,,,,,,1053,2019_Mar_13_1241,mf_amp_cond1,3.0.4,59.9906683944439,
sowntrodden,,&&&&&&&&&&&,right,nonword,,,,,,,,,,,,,,,0,58,58,46,,,,,,,,,,,,,LDT,right,1.2672275909571908,,,,,,1,,,,,,,,,,,,,right,1,1.2672275909571908,,,,,,,1053,2019_Mar_13_1241,mf_amp_cond1,3.0.4,59.9906683944439,
besides,,&&&&&&&,left,neutral,,,,,,,,,,,,,,,0,59,59,148,,,,,,,,,,,,,LDT,right,0.7503047676582355,,,,,,0,,,,,,,,,,,,,right,0,0.7503047676582355,,,,,,,1053,2019_Mar_13_1241,mf_amp_cond1,3.0.4,59.9906683944439,
sfumatoy,,&&&&&&&&,None,nonword,,,,,,,,,,,,,,,0,60,60,1,,,,,,,,,,,,,LDT,left,1.3005594382702839,,,,,,0,,,,,,,,,,,,,left,0,1.3005594382702839,,,,,,,1053,2019_Mar_13_1241,mf_amp_cond1,3.0.4,59.9906683944439,
mih,,&&&,right,nonword,,,,,,,,,,,,,,,0,61,61,118,,,,,,,,,,,,,LDT,left,1.233889329188969,,,,,,0,,,,,,,,,,,,,left,0,1.233889329188969,,,,,,,1053,2019_Mar_13_1241,mf_amp_cond1,3.0.4,59.9906683944439,
nomaric,,&&&&&&&,None,nonword,,,,,,,,,,,,,,,0,62,62,127,,,,,,,,,,,,,LDT,left,0.8004412516020238,,,,,,0,,,,,,,,,,,,,left,0,0.8004412516020238,,,,,,,1053,2019_Mar_13_1241,mf_amp_cond1,3.0.4,59.9906683944439,
dormandi,,&&&&&&&&,None,nonword,,,,,,,,,,,,,,,0,63,63,115,,,,,,,,,,,,,LDT,left,0.4836891174199991,,,,,,0,,,,,,,,,,,,,left,0,0.4836891174199991,,,,,,,1053,2019_Mar_13_1241,mf_amp_cond1,3.0.4,59.9906683944439,
pescinded,,&&&&&&&&&,right,nonword,,,,,,,,,,,,,,,0,64,64,133,,,,,,,,,,,,,LDT,left,1.0171580741007347,,,,,,0,,,,,,,,,,,,,left,0,1.0171580741007347,,,,,,,1053,2019_Mar_13_1241,mf_amp_cond1,3.0.4,59.9906683944439,
shoirmaster,,&&&&&&&&&&&,right,nonword,,,,,,,,,,,,,,,0,65,65,48,,,,,,,,,,,,,LDT,left,0.9171317426953465,,,,,,0,,,,,,,,,,,,,left,0,0.9171317426953465,,,,,,,1053,2019_Mar_13_1241,mf_amp_cond1,3.0.4,59.9906683944439,
front,,&&&&&,left,neutral,,,,,,,,,,,,,,,0,66,66,87,,,,,,,,,,,,,LDT,left,1.0504985809675418,,,,,,1,,,,,,,,,,,,,left,1,1.0504985809675418,,,,,,,1053,2019_Mar_13_1241,mf_amp_cond1,3.0.4,59.9906683944439,
yane,,&&&&,right,nonword,,,,,,,,,,,,,,,0,67,67,155,,,,,,,,,,,,,LDT,left,0.6837488361634314,,,,,,0,,,,,,,,,,,,,left,0,0.6837488361634314,,,,,,,1053,2019_Mar_13_1241,mf_amp_cond1,3.0.4,59.9906683944439,
antral,,&&&&&&,right,nonword,,,,,,,,,,,,,,,0,68,68,31,,,,,,,,,,,,,LDT,right,0.4169984820182435,,,,,,1,,,,,,,,,,,,,right,1,0.4169984820182435,,,,,,,1053,2019_Mar_13_1241,mf_amp_cond1,3.0.4,59.9906683944439,
epigrach,,&&&&&&&&,right,nonword,,,,,,,,,,,,,,,0,69,69,139,,,,,,,,,,,,,LDT,right,0.41700585864600725,,,,,,1,,,,,,,,,,,,,right,1,0.41700585864600725,,,,,,,1053,2019_Mar_13_1241,mf_amp_cond1,3.0.4,59.9906683944439,
fair,,&&&&,left,fairness.virtue,,,,,,,,,,,,,,,0,70,70,172,,,,,,,,,,,,,LDT,left,0.8505710003664717,,,,,,1,,,,,,,,,,,,,left,1,0.8505710003664717,,,,,,,1053,2019_Mar_13_1241,mf_amp_cond1,3.0.4,59.9906683944439,
crinking,,&&&&&&&&,right,nonword,,,,,,,,,,,,,,,0,71,71,34,,,,,,,,,,,,,LDT,left,0.7670981789706275,,,,,,0,,,,,,,,,,,,,left,0,0.7670981789706275,,,,,,,1053,2019_Mar_13_1241,mf_amp_cond1,3.0.4,59.9906683944439,
carvels,,&&&&&&&,None,nonword,,,,,,,,,,,,,,,0,72,72,126,,,,,,,,,,,,,LDT,left,0.6170498619321734,,,,,,0,,,,,,,,,,,,,left,0,0.6170498619321734,,,,,,,1053,2019_Mar_13_1241,mf_amp_cond1,3.0.4,59.9906683944439,
fegard,,&&&&&&,right,nonword,,,,,,,,,,,,,,,0,73,73,42,,,,,,,,,,,,,LDT,left,0.8837790483376011,,,,,,0,,,,,,,,,,,,,left,0,0.8837790483376011,,,,,,,1053,2019_Mar_13_1241,mf_amp_cond1,3.0.4,59.9906683944439,
idexpressible,,&&&&&&&&&&&&&,right,nonword,,,,,,,,,,,,,,,0,74,74,128,,,,,,,,,,,,,LDT,left,1.2505512437783182,,,,,,0,,,,,,,,,,,,,left,0,1.2505512437783182,,,,,,,1053,2019_Mar_13_1241,mf_amp_cond1,3.0.4,59.9906683944439,
safety,,&&&&&&,left,care.virtue,,,,,,,,,,,,,,,0,75,75,107,,,,,,,,,,,,,LDT,right,1.1003698264539707,,,,,,0,,,,,,,,,,,,,right,0,1.1003698264539707,,,,,,,1053,2019_Mar_13_1241,mf_amp_cond1,3.0.4,59.9906683944439,
erdest,,&&&&&&,right,nonword,,,,,,,,,,,,,,,0,76,76,33,,,,,,,,,,,,,LDT,right,0.9838204537518322,,,,,,1,,,,,,,,,,,,,right,1,0.9838204537518322,,,,,,,1053,2019_Mar_13_1241,mf_amp_cond1,3.0.4,59.9906683944439,
also,,&&&&,left,neutral,,,,,,,,,,,,,,,0,77,77,95,,,,,,,,,,,,,LDT,left,1.7673435325559694,,,,,,1,,,,,,,,,,,,,left,1,1.7673435325559694,,,,,,,1053,2019_Mar_13_1241,mf_amp_cond1,3.0.4,59.9906683944439,
integrity,,&&&&&&&&&,left,fairness.virtue,,,,,,,,,,,,,,,0,78,78,190,,,,,,,,,,,,,LDT,left,0.7170826078217942,,,,,,1,,,,,,,,,,,,,left,1,0.7170826078217942,,,,,,,1053,2019_Mar_13_1241,mf_amp_cond1,3.0.4,59.9906683944439,
eight,,&&&&&,left,neutral,,,,,,,,,,,,,,,0,79,79,194,,,,,,,,,,,,,LDT,left,1.5841359175683465,,,,,,1,,,,,,,,,,,,,left,1,1.5841359175683465,,,,,,,1053,2019_Mar_13_1241,mf_amp_cond1,3.0.4,59.9906683944439,
hand,,&&&&,left,sanctity.virtue,,,,,,,,,,,,,,,0,80,80,175,,,,,,,,,,,,,LDT,right,0.9004614892764948,,,,,,0,,,,,,,,,,,,,right,0,0.9004614892764948,,,,,,,1053,2019_Mar_13_1241,mf_amp_cond1,3.0.4,59.9906683944439,
fangsters,,&&&&&&&&&,right,nonword,,,,,,,,,,,,,,,0,81,81,57,,,,,,,,,,,,,LDT,right,0.800436761463061,,,,,,1,,,,,,,,,,,,,right,1,0.800436761463061,,,,,,,1053,2019_Mar_13_1241,mf_amp_cond1,3.0.4,59.9906683944439,
charges,,&&&&&&&,left,fairness.vice,,,,,,,,,,,,,,,0,82,82,38,,,,,,,,,,,,,LDT,right,1.1672022216953337,,,,,,0,,,,,,,,,,,,,right,0,1.1672022216953337,,,,,,,1053,2019_Mar_13_1241,mf_amp_cond1,3.0.4,59.9906683944439,
protesters,,&&&&&&&&&&,left,authority.vice,,,,,,,,,,,,,,,0,83,83,185,,,,,,,,,,,,,LDT,left,0.9004553955164738,,,,,,1,,,,,,,,,,,,,left,1,0.9004553955164738,,,,,,,1053,2019_Mar_13_1241,mf_amp_cond1,3.0.4,59.9906683944439,
alar,,&&&&,right,nonword,,,,,,,,,,,,,,,0,84,84,36,,,,,,,,,,,,,LDT,left,0.6670368886552751,,,,,,0,,,,,,,,,,,,,left,0,0.6670368886552751,,,,,,,1053,2019_Mar_13_1241,mf_amp_cond1,3.0.4,59.9906683944439,
safe,,&&&&,left,care.virtue,,,,,,,,,,,,,,,0,85,85,39,,,,,,,,,,,,,LDT,right,0.6170735954947304,,,,,,0,,,,,,,,,,,,,right,0,0.6170735954947304,,,,,,,1053,2019_Mar_13_1241,mf_amp_cond1,3.0.4,59.9906683944439,
chadows,,&&&&&&&,right,nonword,,,,,,,,,,,,,,,0,86,86,18,,,,,,,,,,,,,LDT,left,0.7337663316575345,,,,,,0,,,,,,,,,,,,,left,0,0.7337663316575345,,,,,,,1053,2019_Mar_13_1241,mf_amp_cond1,3.0.4,59.9906683944439,
agreement,,&&&&&&&&&,left,fairness.virtue,,,,,,,,,,,,,,,0,87,87,90,,,,,,,,,,,,,LDT,left,0.9671341641806066,,,,,,1,,,,,,,,,,,,,left,1,0.9671341641806066,,,,,,,1053,2019_Mar_13_1241,mf_amp_cond1,3.0.4,59.9906683944439,
sickyay,,&&&&&&&,right,nonword,,,,,,,,,,,,,,,0,88,88,12,,,,,,,,,,,,,LDT,left,0.7837681116652675,,,,,,0,,,,,,,,,,,,,left,0,0.7837681116652675,,,,,,,1053,2019_Mar_13_1241,mf_amp_cond1,3.0.4,59.9906683944439,
gedious,,&&&&&&&,right,nonword,,,,,,,,,,,,,,,0,89,89,74,,,,,,,,,,,,,LDT,right,0.7337409944739193,,,,,,1,,,,,,,,,,,,,right,1,0.7337409944739193,,,,,,,1053,2019_Mar_13_1241,mf_amp_cond1,3.0.4,59.9906683944439,
hefurbished,,&&&&&&&&&&&,right,nonword,,,,,,,,,,,,,,,0,90,90,109,,,,,,,,,,,,,LDT,right,0.7337682560028043,,,,,,1,,,,,,,,,,,,,right,1,0.7337682560028043,,,,,,,1053,2019_Mar_13_1241,mf_amp_cond1,3.0.4,59.9906683944439,
presentkess,,&&&&&&&&&&&,right,nonword,,,,,,,,,,,,,,,0,91,91,174,,,,,,,,,,,,,LDT,left,1.2338793867384084,,,,,,0,,,,,,,,,,,,,left,0,1.2338793867384084,,,,,,,1053,2019_Mar_13_1241,mf_amp_cond1,3.0.4,59.9906683944439,
noone,,&&&&&,left,neutral,,,,,,,,,,,,,,,0,92,92,191,,,,,,,,,,,,,LDT,left,1.1505184978886973,,,,,,1,,,,,,,,,,,,,left,1,1.1505184978886973,,,,,,,1053,2019_Mar_13_1241,mf_amp_cond1,3.0.4,59.9906683944439,
useful,,&&&&&&,left,authority.virtue,,,,,,,,,,,,,,,0,93,93,7,,,,,,,,,,,,,LDT,right,0.6670772998477332,,,,,,0,,,,,,,,,,,,,right,0,0.6670772998477332,,,,,,,1053,2019_Mar_13_1241,mf_amp_cond1,3.0.4,59.9906683944439,
harassment,,&&&&&&&&&&,left,sanctity.vice,,,,,,,,,,,,,,,0,94,94,9,,,,,,,,,,,,,LDT,left,1.1005122277420014,,,,,,1,,,,,,,,,,,,,left,1,1.1005122277420014,,,,,,,1053,2019_Mar_13_1241,mf_amp_cond1,3.0.4,59.9906683944439,
strofe,,&&&&&&,right,nonword,,,,,,,,,,,,,,,0,95,95,11,,,,,,,,,,,,,LDT,left,0.8171252961619757,,,,,,0,,,,,,,,,,,,,left,0,0.8171252961619757,,,,,,,1053,2019_Mar_13_1241,mf_amp_cond1,3.0.4,59.9906683944439,
civilians,,&&&&&&&&&,left,care.vice,,,,,,,,,,,,,,,0,96,96,179,,,,,,,,,,,,,LDT,left,1.3339102082827594,,,,,,1,,,,,,,,,,,,,left,1,1.3339102082827594,,,,,,,1053,2019_Mar_13_1241,mf_amp_cond1,3.0.4,59.9906683944439,
fifty,,&&&&&,left,neutral,,,,,,,,,,,,,,,0,97,97,44,,,,,,,,,,,,,LDT,left,1.0838483887782786,,,,,,1,,,,,,,,,,,,,left,1,1.0838483887782786,,,,,,,1053,2019_Mar_13_1241,mf_amp_cond1,3.0.4,59.9906683944439,
Boeinf,,&&&&&&,right,nonword,,,,,,,,,,,,,,,0,98,98,82,,,,,,,,,,,,,LDT,left,0.5170267377689015,,,,,,0,,,,,,,,,,,,,left,0,0.5170267377689015,,,,,,,1053,2019_Mar_13_1241,mf_amp_cond1,3.0.4,59.9906683944439,
hereby,,&&&&&&,left,neutral,,,,,,,,,,,,,,,0,99,99,131,,,,,,,,,,,,,LDT,left,0.4003298321913462,,,,,,1,,,,,,,,,,,,,left,1,0.4003298321913462,,,,,,,1053,2019_Mar_13_1241,mf_amp_cond1,3.0.4,59.9906683944439,
gusinesslike,,&&&&&&&&&&&&,right,nonword,,,,,,,,,,,,,,,0,100,100,3,,,,,,,,,,,,,LDT,left,0.4670320136938244,,,,,,0,,,,,,,,,,,,,left,0,0.4670320136938244,,,,,,,1053,2019_Mar_13_1241,mf_amp_cond1,3.0.4,59.9906683944439,
seem,,&&&&,left,neutral,,,,,,,,,,,,,,,0,101,101,27,,,,,,,,,,,,,LDT,left,0.7170781176828314,,,,,,1,,,,,,,,,,,,,left,1,0.7170781176828314,,,,,,,1053,2019_Mar_13_1241,mf_amp_cond1,3.0.4,59.9906683944439,
nuckheap,,&&&&&&&&,right,nonword,,,,,,,,,,,,,,,0,102,102,137,,,,,,,,,,,,,LDT,left,0.8004402894293889,,,,,,0,,,,,,,,,,,,,left,0,0.8004402894293889,,,,,,,1053,2019_Mar_13_1241,mf_amp_cond1,3.0.4,59.9906683944439,
crilfully,,&&&&&&&&&,right,nonword,,,,,,,,,,,,,,,0,103,103,55,,,,,,,,,,,,,LDT,right,0.5337290635798126,,,,,,1,,,,,,,,,,,,,right,1,0.5337290635798126,,,,,,,1053,2019_Mar_13_1241,mf_amp_cond1,3.0.4,59.9906683944439,
mostly,,&&&&&&,left,neutral,,,,,,,,,,,,,,,0,104,104,85,,,,,,,,,,,,,LDT,left,0.40035292430548,,,,,,1,,,,,,,,,,,,,left,1,0.40035292430548,,,,,,,1053,2019_Mar_13_1241,mf_amp_cond1,3.0.4,59.9906683944439,
blunderints,,&&&&&&&&&&&,right,nonword,,,,,,,,,,,,,,,0,105,105,69,,,,,,,,,,,,,LDT,left,0.5336934632214252,,,,,,0,,,,,,,,,,,,,left,0,0.5336934632214252,,,,,,,1053,2019_Mar_13_1241,mf_amp_cond1,3.0.4,59.9906683944439,
ejanulated,,&&&&&&&&&&,right,nonword,,,,,,,,,,,,,,,0,106,106,100,,,,,,,,,,,,,LDT,left,0.4336786778876558,,,,,,0,,,,,,,,,,,,,left,0,0.4336786778876558,,,,,,,1053,2019_Mar_13_1241,mf_amp_cond1,3.0.4,59.9906683944439,
give,,&&&&,left,neutral,,,,,,,,,,,,,,,0,107,107,138,,,,,,,,,,,,,LDT,right,0.8671251518244389,,,,,,0,,,,,,,,,,,,,right,0,0.8671251518244389,,,,,,,1053,2019_Mar_13_1241,mf_amp_cond1,3.0.4,59.9906683944439,
respect,,&&&&&&&,left,sanctity.virtue,,,,,,,,,,,,,,,0,108,108,106,,,,,,,,,,,,,LDT,right,0.9338055240805261,,,,,,0,,,,,,,,,,,,,right,0,0.9338055240805261,,,,,,,1053,2019_Mar_13_1241,mf_amp_cond1,3.0.4,59.9906683944439,
crime,,&&&&&,left,fairness.vice,,,,,,,,,,,,,,,0,109,109,181,,,,,,,,,,,,,LDT,right,0.7503977775049862,,,,,,0,,,,,,,,,,,,,right,0,0.7503977775049862,,,,,,,1053,2019_Mar_13_1241,mf_amp_cond1,3.0.4,59.9906683944439,
