words,nonwords,mask,corr_ans,category,tweets,topic,AMP_pracloop.thisRepN,AMP_pracloop.thisTrialN,AMP_pracloop.thisN,AMP_pracloop.thisIndex,AMP_trials.thisRepN,AMP_trials.thisTrialN,AMP_trials.thisN,AMP_trials.thisIndex,LDT_pracloop.thisRepN,LDT_pracloop.thisTrialN,LDT_pracloop.thisN,LDT_pracloop.thisIndex,LDT_trials.thisRepN,LDT_trials.thisTrialN,LDT_trials.thisN,LDT_trials.thisIndex,tweet_loop.thisRepN,tweet_loop.thisTrialN,tweet_loop.thisN,tweet_loop.thisIndex,begin_key.keys,begin_key.rt,key_resp_AMP_instr1.keys,key_resp_AMP_instr1.rt,resp_AMP_ready1.keys,resp_AMP_ready1.rt,resp_AMP_prac.keys,resp_AMP_prac.rt,task,keypress,RT,resp_AMP_ready.keys,resp_AMP_ready.rt,resp_AMP.keys,resp_AMP.corr,resp_AMP.rt,corr,AMP_nonword_rating.response,AMP_nonword_rating.rt,AMP_word_rating.response,AMP_word_rating.rt,AMP_random_rating.response,AMP_random_rating.rt,key_resp_LDT_instr.keys,key_resp_LDT_instr.rt,resp_LDT_prac.keys,resp_LDT_prac.rt,resp_LDT_ready.keys,resp_LDT_ready.rt,resp_LDT.keys,resp_LDT.corr,resp_LDT.rt,LDT_rating.response,LDT_rating.rt,key_resp_LDT_instr_2.keys,key_resp_LDT_instr_2.rt,resp_tweets.keys,resp_tweets.rt,participant,date,expName,psychopyVersion,frameRate,
,,,,,,,,,,,,,,,,,,,,,,,,,,,right,1392.7292153490998,,,,,,,,,,,,,,,,,,,,,,,,,,,,,,,,,,,,,1055,2019_Mar_13_1243,mf_amp_cond1,3.0.4,59.988033169196214,
,,,,,,,,,,,,,,,,,,,,,,,,,,,,,right,5.401557345467154,,,,,,,,,,,,,,,,,,,,,,,,,,,,,,,,,,,1055,2019_Mar_13_1243,mf_amp_cond1,3.0.4,59.988033169196214,
,,,,,,,,,,,,,,,,,,,,,,,,,,,,,,,right,1.8340293996443506,,,,,,,,,,,,,,,,,,,,,,,,,,,,,,,,,1055,2019_Mar_13_1243,mf_amp_cond1,3.0.4,59.988033169196214,
scarf,bisebell,&&&&&&&&,,,,,0,0,0,3,,,,,,,,,,,,,,,,,,,,,,,right,2.634204383735778,AMP_prac,right,2.634204383735778,,,,,,,,,,,,,,,,,,,,,,,,,,,,1055,2019_Mar_13_1243,mf_amp_cond1,3.0.4,59.988033169196214,
keyboard,senk,&&&&,,,,,0,1,1,2,,,,,,,,,,,,,,,,,,,,,,,left,1.0504368508409243,AMP_prac,left,1.0504368508409243,,,,,,,,,,,,,,,,,,,,,,,,,,,,1055,2019_Mar_13_1243,mf_amp_cond1,3.0.4,59.988033169196214,
car,cemtuper,&&&&&&&&,,,,,0,2,2,0,,,,,,,,,,,,,,,,,,,,,,,left,0.8337632031762041,AMP_prac,left,0.8337632031762041,,,,,,,,,,,,,,,,,,,,,,,,,,,,1055,2019_Mar_13_1243,mf_amp_cond1,3.0.4,59.988033169196214,
banana,kacket,&&&&&&,,,,,0,3,3,1,,,,,,,,,,,,,,,,,,,,,,,left,1.0504807893012185,AMP_prac,left,1.0504807893012185,,,,,,,,,,,,,,,,,,,,,,,,,,,,1055,2019_Mar_13_1243,mf_amp_cond1,3.0.4,59.988033169196214,
,,,,,,,,,,,,,,,,,,,,,,,,,,,,,,,,,,,,,,right,1.783984466950642,,,,,,,,,,,,,,,,,,,,,,,,,,1055,2019_Mar_13_1243,mf_amp_cond1,3.0.4,59.988033169196214,
blamed,wump,&&&&,right,loyalty.vice,,,,,,,0,0,0,0,,,,,,,,,,,,,,,,,,,,,AMP,left,0.9671295491571072,,,left,0,0.9671295491571072,0,,,,,,,,,,,,,,,,,,,,,,1055,2019_Mar_13_1243,mf_amp_cond1,3.0.4,59.988033169196214,
useful,tislay,&&&&&&,left,authority.virtue,,,,,,,0,1,1,1,,,,,,,,,,,,,,,,,,,,,AMP,right,4.1345741722907405,,,right,0,4.1345741722907405,0,,,,,,,,,,,,,,,,,,,,,,1055,2019_Mar_13_1243,mf_amp_cond1,3.0.4,59.988033169196214,
fraud,bycled,&&&&&&,right,fairness.vice,,,,,,,0,2,2,2,,,,,,,,,,,,,,,,,,,,,AMP,right,1.6340161218831781,,,right,1,1.6340161218831781,1,,,,,,,,,,,,,,,,,,,,,,1055,2019_Mar_13_1243,mf_amp_cond1,3.0.4,59.988033169196214,
love,mecan,&&&&&,left,loyalty.virtue,,,,,,,0,3,3,3,,,,,,,,,,,,,,,,,,,,,AMP,left,0.5170121981936973,,,left,1,0.5170121981936973,1,,,,,,,,,,,,,,,,,,,,,,1055,2019_Mar_13_1243,mf_amp_cond1,3.0.4,59.988033169196214,
win,clamorek,&&&&&&&&,left,fairness.virtue,,,,,,,0,4,4,4,,,,,,,,,,,,,,,,,,,,,AMP,left,1.0171404856664594,,,left,1,1.0171404856664594,1,,,,,,,,,,,,,,,,,,,,,,1055,2019_Mar_13_1243,mf_amp_cond1,3.0.4,59.988033169196214,
ability,uller,&&&&&,left,authority.virtue,,,,,,,0,5,5,5,,,,,,,,,,,,,,,,,,,,,AMP,left,0.4003235409327317,,,left,1,0.4003235409327317,1,,,,,,,,,,,,,,,,,,,,,,1055,2019_Mar_13_1243,mf_amp_cond1,3.0.4,59.988033169196214,
promised,pumber,&&&&&&,left,loyalty.virtue,,,,,,,0,6,6,6,,,,,,,,,,,,,,,,,,,,,AMP,left,0.7003878770919982,,,left,1,0.7003878770919982,1,,,,,,,,,,,,,,,,,,,,,,1055,2019_Mar_13_1243,mf_amp_cond1,3.0.4,59.988033169196214,
unpleasant,rorroborated,&&&&&&&&&&&&,None,control,,,,,,,0,7,7,7,,,,,,,,,,,,,,,,,,,,,AMP,right,2.467510883609066,,,right,0,2.467510883609066,0,,,,,,,,,,,,,,,,,,,,,,1055,2019_Mar_13_1243,mf_amp_cond1,3.0.4,59.988033169196214,
suicide,ablow,&&&&&,right,care.vice,,,,,,,0,8,8,8,,,,,,,,,,,,,,,,,,,,,AMP,left,1.0171398442180362,,,left,0,1.0171398442180362,0,,,,,,,,,,,,,,,,,,,,,,1055,2019_Mar_13_1243,mf_amp_cond1,3.0.4,59.988033169196214,
voter,infet,&&&&&,right,fairness.vice,,,,,,,0,9,9,9,,,,,,,,,,,,,,,,,,,,,AMP,left,0.40033220034092665,,,left,0,0.40033220034092665,0,,,,,,,,,,,,,,,,,,,,,,1055,2019_Mar_13_1243,mf_amp_cond1,3.0.4,59.988033169196214,
gun,chressing,&&&&&&&&&,right,authority.vice,,,,,,,0,10,10,10,,,,,,,,,,,,,,,,,,,,,AMP,left,0.7669488562969491,,,left,0,0.7669488562969491,0,,,,,,,,,,,,,,,,,,,,,,1055,2019_Mar_13_1243,mf_amp_cond1,3.0.4,59.988033169196214,
hope,suggists,&&&&&&&&,left,loyalty.virtue,,,,,,,0,11,11,11,,,,,,,,,,,,,,,,,,,,,AMP,right,1.333742997929221,,,right,0,1.333742997929221,0,,,,,,,,,,,,,,,,,,,,,,1055,2019_Mar_13_1243,mf_amp_cond1,3.0.4,59.988033169196214,
terrorist,nuckheap,&&&&&&&&,right,loyalty.vice,,,,,,,0,12,12,12,,,,,,,,,,,,,,,,,,,,,AMP,left,0.5336985463218298,,,left,0,0.5336985463218298,0,,,,,,,,,,,,,,,,,,,,,,1055,2019_Mar_13_1243,mf_amp_cond1,3.0.4,59.988033169196214,
encourage,menizen,&&&&&&&,left,authority.virtue,,,,,,,0,13,13,13,,,,,,,,,,,,,,,,,,,,,AMP,left,1.8339982899196912,,,left,1,1.8339982899196912,1,,,,,,,,,,,,,,,,,,,,,,1055,2019_Mar_13_1243,mf_amp_cond1,3.0.4,59.988033169196214,
improve,Boeinf,&&&&&&,left,care.virtue,,,,,,,0,14,14,14,,,,,,,,,,,,,,,,,,,,,AMP,left,1.4339063078223262,,,left,1,1.4339063078223262,1,,,,,,,,,,,,,,,,,,,,,,1055,2019_Mar_13_1243,mf_amp_cond1,3.0.4,59.988033169196214,
letish,godlaness,&&&&&&&&&,None,nonword,,,,,,,0,15,15,15,,,,,,,,,,,,,,,,,,,,,AMP,right,0.6670655336929485,,,right,0,0.6670655336929485,0,,,,,,,,,,,,,,,,,,,,,,1055,2019_Mar_13_1243,mf_amp_cond1,3.0.4,59.988033169196214,
pleasant,baklara,&&&&&&&,None,control,,,,,,,0,16,16,16,,,,,,,,,,,,,,,,,,,,,AMP,left,0.8504309495911002,,,left,0,0.8504309495911002,0,,,,,,,,,,,,,,,,,,,,,,1055,2019_Mar_13_1243,mf_amp_cond1,3.0.4,59.988033169196214,
safe,shoirmaster,&&&&&&&&&&&,left,care.virtue,,,,,,,0,17,17,17,,,,,,,,,,,,,,,,,,,,,AMP,right,1.6004622196487617,,,right,0,1.6004622196487617,0,,,,,,,,,,,,,,,,,,,,,,1055,2019_Mar_13_1243,mf_amp_cond1,3.0.4,59.988033169196214,
arrests,squets,&&&&&&,right,authority.vice,,,,,,,0,18,18,18,,,,,,,,,,,,,,,,,,,,,AMP,left,0.7670704086485785,,,left,0,0.7670704086485785,0,,,,,,,,,,,,,,,,,,,,,,1055,2019_Mar_13_1243,mf_amp_cond1,3.0.4,59.988033169196214,
shot,precificity,&&&&&&&&&&&,right,care.vice,,,,,,,0,19,19,19,,,,,,,,,,,,,,,,,,,,,AMP,right,2.9509435220679734,,,right,1,2.9509435220679734,1,,,,,,,,,,,,,,,,,,,,,,1055,2019_Mar_13_1243,mf_amp_cond1,3.0.4,59.988033169196214,
army,pistraught,&&&&&&&&&&,right,loyalty.vice,,,,,,,0,20,20,20,,,,,,,,,,,,,,,,,,,,,AMP,right,0.6170215632009786,,,right,1,0.6170215632009786,1,,,,,,,,,,,,,,,,,,,,,,1055,2019_Mar_13_1243,mf_amp_cond1,3.0.4,59.988033169196214,
conspiracy,frojecting,&&&&&&&&&&,right,sanctity.vice,,,,,,,0,21,21,21,,,,,,,,,,,,,,,,,,,,,AMP,left,0.867071114218561,,,left,0,0.867071114218561,0,,,,,,,,,,,,,,,,,,,,,,1055,2019_Mar_13_1243,mf_amp_cond1,3.0.4,59.988033169196214,
chreams,Daptist,&&&&&&&,None,nonword,,,,,,,0,22,22,22,,,,,,,,,,,,,,,,,,,,,AMP,left,1.8673260855139233,,,left,0,1.8673260855139233,0,,,,,,,,,,,,,,,,,,,,,,1055,2019_Mar_13_1243,mf_amp_cond1,3.0.4,59.988033169196214,
rejected,emassion,&&&&&&&&,right,authority.vice,,,,,,,0,23,23,23,,,,,,,,,,,,,,,,,,,,,AMP,right,0.6670511013653595,,,right,1,0.6670511013653595,1,,,,,,,,,,,,,,,,,,,,,,1055,2019_Mar_13_1243,mf_amp_cond1,3.0.4,59.988033169196214,
intelligence,gusinesslike,&&&&&&&&&&&&,left,loyalty.virtue,,,,,,,0,24,24,24,,,,,,,,,,,,,,,,,,,,,AMP,right,2.734224653133424,,,right,0,2.734224653133424,0,,,,,,,,,,,,,,,,,,,,,,1055,2019_Mar_13_1243,mf_amp_cond1,3.0.4,59.988033169196214,
penalty,openet,&&&&&&,right,authority.vice,,,,,,,0,25,25,25,,,,,,,,,,,,,,,,,,,,,AMP,right,0.6837133955850732,,,right,1,0.6837133955850732,1,,,,,,,,,,,,,,,,,,,,,,1055,2019_Mar_13_1243,mf_amp_cond1,3.0.4,59.988033169196214,
strong,supervuned,&&&&&&&&&&,left,loyalty.virtue,,,,,,,0,26,26,26,,,,,,,,,,,,,,,,,,,,,AMP,right,0.483678629680071,,,right,0,0.483678629680071,0,,,,,,,,,,,,,,,,,,,,,,1055,2019_Mar_13_1243,mf_amp_cond1,3.0.4,59.988033169196214,
killed,counpy's,&&&&&&&&,right,care.vice,,,,,,,0,27,27,27,,,,,,,,,,,,,,,,,,,,,AMP,left,0.7837391172070056,,,left,0,0.7837391172070056,0,,,,,,,,,,,,,,,,,,,,,,1055,2019_Mar_13_1243,mf_amp_cond1,3.0.4,59.988033169196214,
safety,quarterbocks,&&&&&&&&&&&&,left,care.virtue,,,,,,,0,28,28,28,,,,,,,,,,,,,,,,,,,,,AMP,right,0.5170150846824981,,,right,0,0.5170150846824981,0,,,,,,,,,,,,,,,,,,,,,,1055,2019_Mar_13_1243,mf_amp_cond1,3.0.4,59.988033169196214,
violations,mightingale,&&&&&&&&&&&,right,sanctity.vice,,,,,,,0,29,29,29,,,,,,,,,,,,,,,,,,,,,AMP,right,0.6503823928069323,,,right,1,0.6503823928069323,1,,,,,,,,,,,,,,,,,,,,,,1055,2019_Mar_13_1243,mf_amp_cond1,3.0.4,59.988033169196214,
commitment,photocalkodes,&&&&&&&&&&&&&,left,sanctity.virtue,,,,,,,0,30,30,30,,,,,,,,,,,,,,,,,,,,,AMP,right,2.7342278603173327,,,right,0,2.7342278603173327,0,,,,,,,,,,,,,,,,,,,,,,1055,2019_Mar_13_1243,mf_amp_cond1,3.0.4,59.988033169196214,
simplustic,tomedians,&&&&&&&&&,None,nonword,,,,,,,0,31,31,31,,,,,,,,,,,,,,,,,,,,,AMP,left,0.9337825104303192,,,left,0,0.9337825104303192,0,,,,,,,,,,,,,,,,,,,,,,1055,2019_Mar_13_1243,mf_amp_cond1,3.0.4,59.988033169196214,
drug,troubla,&&&&&&&,right,sanctity.vice,,,,,,,0,32,32,32,,,,,,,,,,,,,,,,,,,,,AMP,left,0.5670269833644852,,,left,0,0.5670269833644852,0,,,,,,,,,,,,,,,,,,,,,,1055,2019_Mar_13_1243,mf_amp_cond1,3.0.4,59.988033169196214,
civilians,epigrach,&&&&&&&&,right,care.vice,,,,,,,0,33,33,33,,,,,,,,,,,,,,,,,,,,,AMP,left,0.6836883795331232,,,left,0,0.6836883795331232,0,,,,,,,,,,,,,,,,,,,,,,1055,2019_Mar_13_1243,mf_amp_cond1,3.0.4,59.988033169196214,
troops,fegard,&&&&&&,right,loyalty.vice,,,,,,,0,34,34,34,,,,,,,,,,,,,,,,,,,,,AMP,left,1.0338364553172141,,,left,0,1.0338364553172141,0,,,,,,,,,,,,,,,,,,,,,,1055,2019_Mar_13_1243,mf_amp_cond1,3.0.4,59.988033169196214,
terrorists,scock,&&&&&,right,fairness.vice,,,,,,,0,35,35,35,,,,,,,,,,,,,,,,,,,,,AMP,right,0.6670424419571646,,,right,1,0.6670424419571646,1,,,,,,,,,,,,,,,,,,,,,,1055,2019_Mar_13_1243,mf_amp_cond1,3.0.4,59.988033169196214,
benefit,atson,&&&&&,left,fairness.virtue,,,,,,,0,36,36,36,,,,,,,,,,,,,,,,,,,,,AMP,left,0.40031808873754926,,,left,1,0.40031808873754926,1,,,,,,,,,,,,,,,,,,,,,,1055,2019_Mar_13_1243,mf_amp_cond1,3.0.4,59.988033169196214,
health,fornicalion,&&&&&&&&&&&,left,care.virtue,,,,,,,0,37,37,37,,,,,,,,,,,,,,,,,,,,,AMP,left,0.5837197458022274,,,left,1,0.5837197458022274,1,,,,,,,,,,,,,,,,,,,,,,1055,2019_Mar_13_1243,mf_amp_cond1,3.0.4,59.988033169196214,
victims,dormandi,&&&&&&&&,right,care.vice,,,,,,,0,38,38,38,,,,,,,,,,,,,,,,,,,,,AMP,right,4.001238936005393,,,right,1,4.001238936005393,1,,,,,,,,,,,,,,,,,,,,,,1055,2019_Mar_13_1243,mf_amp_cond1,3.0.4,59.988033169196214,
critics,idexpressible,&&&&&&&&&&&&&,right,loyalty.vice,,,,,,,0,39,39,39,,,,,,,,,,,,,,,,,,,,,AMP,right,1.2671948474599048,,,right,1,1.2671948474599048,1,,,,,,,,,,,,,,,,,,,,,,1055,2019_Mar_13_1243,mf_amp_cond1,3.0.4,59.988033169196214,
promises,gillipede,&&&&&&&&&,left,fairness.virtue,,,,,,,0,40,40,40,,,,,,,,,,,,,,,,,,,,,AMP,right,0.6003595897054765,,,right,0,0.6003595897054765,0,,,,,,,,,,,,,,,,,,,,,,1055,2019_Mar_13_1243,mf_amp_cond1,3.0.4,59.988033169196214,
illegal,proached,&&&&&&&&,right,fairness.vice,,,,,,,0,41,41,41,,,,,,,,,,,,,,,,,,,,,AMP,right,0.9671382085653022,,,right,1,0.9671382085653022,1,,,,,,,,,,,,,,,,,,,,,,1055,2019_Mar_13_1243,mf_amp_cond1,3.0.4,59.988033169196214,
erks,asn,&&&,None,nonword,,,,,,,0,42,42,42,,,,,,,,,,,,,,,,,,,,,AMP,right,1.1005080824252218,,,right,0,1.1005080824252218,0,,,,,,,,,,,,,,,,,,,,,,1055,2019_Mar_13_1243,mf_amp_cond1,3.0.4,59.988033169196214,
restore,rivernoat,&&&&&&&&&,left,care.virtue,,,,,,,0,43,43,43,,,,,,,,,,,,,,,,,,,,,AMP,right,0.46701505259261467,,,right,0,0.46701505259261467,0,,,,,,,,,,,,,,,,,,,,,,1055,2019_Mar_13_1243,mf_amp_cond1,3.0.4,59.988033169196214,
sharing,tove,&&&&,left,loyalty.virtue,,,,,,,0,44,44,44,,,,,,,,,,,,,,,,,,,,,AMP,right,1.517267490242375,,,right,0,1.517267490242375,0,,,,,,,,,,,,,,,,,,,,,,1055,2019_Mar_13_1243,mf_amp_cond1,3.0.4,59.988033169196214,
war,prones,&&&&&&,right,sanctity.vice,,,,,,,0,45,45,45,,,,,,,,,,,,,,,,,,,,,AMP,right,0.8837744604097679,,,right,1,0.8837744604097679,1,,,,,,,,,,,,,,,,,,,,,,1055,2019_Mar_13_1243,mf_amp_cond1,3.0.4,59.988033169196214,
opportunity,refuejing,&&&&&&&&&,left,fairness.virtue,,,,,,,0,46,46,46,,,,,,,,,,,,,,,,,,,,,AMP,left,0.7670665600162465,,,left,1,0.7670665600162465,1,,,,,,,,,,,,,,,,,,,,,,1055,2019_Mar_13_1243,mf_amp_cond1,3.0.4,59.988033169196214,
integrity,sickyay,&&&&&&&,left,fairness.virtue,,,,,,,0,47,47,47,,,,,,,,,,,,,,,,,,,,,AMP,left,2.017380062461598,,,left,1,2.017380062461598,1,,,,,,,,,,,,,,,,,,,,,,1055,2019_Mar_13_1243,mf_amp_cond1,3.0.4,59.988033169196214,
strength,disregord,&&&&&&&&&,left,sanctity.virtue,,,,,,,0,48,48,48,,,,,,,,,,,,,,,,,,,,,AMP,left,0.3669668806833215,,,left,1,0.3669668806833215,1,,,,,,,,,,,,,,,,,,,,,,1055,2019_Mar_13_1243,mf_amp_cond1,3.0.4,59.988033169196214,
crime,dumid,&&&&&,right,fairness.vice,,,,,,,0,49,49,49,,,,,,,,,,,,,,,,,,,,,AMP,left,0.8170912874338683,,,left,0,0.8170912874338683,0,,,,,,,,,,,,,,,,,,,,,,1055,2019_Mar_13_1243,mf_amp_cond1,3.0.4,59.988033169196214,
corruption,antral,&&&&&&,right,sanctity.vice,,,,,,,0,50,50,50,,,,,,,,,,,,,,,,,,,,,AMP,left,0.4003161644213833,,,left,0,0.4003161644213833,0,,,,,,,,,,,,,,,,,,,,,,1055,2019_Mar_13_1243,mf_amp_cond1,3.0.4,59.988033169196214,
injured,Loorish,&&&&&&&,right,care.vice,,,,,,,0,51,51,51,,,,,,,,,,,,,,,,,,,,,AMP,left,0.6670536671299487,,,left,0,0.6670536671299487,0,,,,,,,,,,,,,,,,,,,,,,1055,2019_Mar_13_1243,mf_amp_cond1,3.0.4,59.988033169196214,
forced,faspberry,&&&&&&&&&,right,fairness.vice,,,,,,,0,52,52,52,,,,,,,,,,,,,,,,,,,,,AMP,right,0.7004000643792097,,,right,1,0.7004000643792097,1,,,,,,,,,,,,,,,,,,,,,,1055,2019_Mar_13_1243,mf_amp_cond1,3.0.4,59.988033169196214,
progress,lachelor,&&&&&&&&,left,authority.virtue,,,,,,,0,53,53,53,,,,,,,,,,,,,,,,,,,,,AMP,right,1.8507215206627734,,,right,0,1.8507215206627734,0,,,,,,,,,,,,,,,,,,,,,,1055,2019_Mar_13_1243,mf_amp_cond1,3.0.4,59.988033169196214,
care,dramens,&&&&&&&,left,care.virtue,,,,,,,0,54,54,54,,,,,,,,,,,,,,,,,,,,,AMP,right,0.5670128717029002,,,right,0,0.5670128717029002,0,,,,,,,,,,,,,,,,,,,,,,1055,2019_Mar_13_1243,mf_amp_cond1,3.0.4,59.988033169196214,
glacenta,hatigue,&&&&&&&,None,nonword,,,,,,,0,55,55,55,,,,,,,,,,,,,,,,,,,,,AMP,left,0.40032418238115497,,,left,0,0.40032418238115497,0,,,,,,,,,,,,,,,,,,,,,,1055,2019_Mar_13_1243,mf_amp_cond1,3.0.4,59.988033169196214,
ilportation,presentkess,&&&&&&&&&&&,None,nonword,,,,,,,0,56,56,56,,,,,,,,,,,,,,,,,,,,,AMP,right,0.4670057517942041,,,right,0,0.4670057517942041,0,,,,,,,,,,,,,,,,,,,,,,1055,2019_Mar_13_1243,mf_amp_cond1,3.0.4,59.988033169196214,
actively,coom,&&&&,left,authority.virtue,,,,,,,0,57,57,57,,,,,,,,,,,,,,,,,,,,,AMP,left,0.38369363933452405,,,left,1,0.38369363933452405,1,,,,,,,,,,,,,,,,,,,,,,1055,2019_Mar_13_1243,mf_amp_cond1,3.0.4,59.988033169196214,
growth,honstables,&&&&&&&&&&,left,care.virtue,,,,,,,0,58,58,58,,,,,,,,,,,,,,,,,,,,,AMP,left,0.9671228140359744,,,left,1,0.9671228140359744,1,,,,,,,,,,,,,,,,,,,,,,1055,2019_Mar_13_1243,mf_amp_cond1,3.0.4,59.988033169196214,
interests,totalestic,&&&&&&&&&&,left,fairness.virtue,,,,,,,0,59,59,59,,,,,,,,,,,,,,,,,,,,,AMP,right,0.500340603175573,,,right,0,0.500340603175573,0,,,,,,,,,,,,,,,,,,,,,,1055,2019_Mar_13_1243,mf_amp_cond1,3.0.4,59.988033169196214,
freedom,unreflectuve,&&&&&&&&&&&&,left,sanctity.virtue,,,,,,,0,60,60,60,,,,,,,,,,,,,,,,,,,,,AMP,left,0.6670530256815255,,,left,1,0.6670530256815255,1,,,,,,,,,,,,,,,,,,,,,,1055,2019_Mar_13_1243,mf_amp_cond1,3.0.4,59.988033169196214,
celebrated,esquisiteness,&&&&&&&&&&&&&,left,authority.virtue,,,,,,,0,61,61,61,,,,,,,,,,,,,,,,,,,,,AMP,left,0.583700823422987,,,left,1,0.583700823422987,1,,,,,,,,,,,,,,,,,,,,,,1055,2019_Mar_13_1243,mf_amp_cond1,3.0.4,59.988033169196214,
grovelire,tenuflect,&&&&&&&&&,None,nonword,,,,,,,0,62,62,62,,,,,,,,,,,,,,,,,,,,,AMP,left,0.3003045544028282,,,left,0,0.3003045544028282,0,,,,,,,,,,,,,,,,,,,,,,1055,2019_Mar_13_1243,mf_amp_cond1,3.0.4,59.988033169196214,
fair,iptervention,&&&&&&&&&&&&,left,fairness.virtue,,,,,,,0,63,63,63,,,,,,,,,,,,,,,,,,,,,AMP,left,1.083817244245438,,,left,1,1.083817244245438,1,,,,,,,,,,,,,,,,,,,,,,1055,2019_Mar_13_1243,mf_amp_cond1,3.0.4,59.988033169196214,
gikely,halaise,&&&&&&&,None,nonword,,,,,,,0,64,64,64,,,,,,,,,,,,,,,,,,,,,AMP,left,0.6670469320379198,,,left,0,0.6670469320379198,0,,,,,,,,,,,,,,,,,,,,,,1055,2019_Mar_13_1243,mf_amp_cond1,3.0.4,59.988033169196214,
party,viscs,&&&&&,left,loyalty.virtue,,,,,,,0,65,65,65,,,,,,,,,,,,,,,,,,,,,AMP,left,0.5503573126043193,,,left,1,0.5503573126043193,1,,,,,,,,,,,,,,,,,,,,,,1055,2019_Mar_13_1243,mf_amp_cond1,3.0.4,59.988033169196214,
serial,wonderfujnoss,&&&&&&&&&&&&&,right,sanctity.vice,,,,,,,0,66,66,66,,,,,,,,,,,,,,,,,,,,,AMP,right,0.4169758928474039,,,right,1,0.4169758928474039,1,,,,,,,,,,,,,,,,,,,,,,1055,2019_Mar_13_1243,mf_amp_cond1,3.0.4,59.988033169196214,
fontacts,drumbled,&&&&&&&&,None,nonword,,,,,,,0,67,67,67,,,,,,,,,,,,,,,,,,,,,AMP,right,0.5837030684633646,,,right,0,0.5837030684633646,0,,,,,,,,,,,,,,,,,,,,,,1055,2019_Mar_13_1243,mf_amp_cond1,3.0.4,59.988033169196214,
feleological,thadowed,&&&&&&&&,None,nonword,,,,,,,0,68,68,68,,,,,,,,,,,,,,,,,,,,,AMP,right,1.4171779455791693,,,right,0,1.4171779455791693,0,,,,,,,,,,,,,,,,,,,,,,1055,2019_Mar_13_1243,mf_amp_cond1,3.0.4,59.988033169196214,
powerful,ecgagement,&&&&&&&&&&,left,authority.virtue,,,,,,,0,69,69,69,,,,,,,,,,,,,,,,,,,,,AMP,right,0.6837425809935667,,,right,0,0.6837425809935667,0,,,,,,,,,,,,,,,,,,,,,,1055,2019_Mar_13_1243,mf_amp_cond1,3.0.4,59.988033169196214,
hand,vicissifude,&&&&&&&&&&&,left,sanctity.virtue,,,,,,,0,70,70,70,,,,,,,,,,,,,,,,,,,,,AMP,left,0.7003827455919236,,,left,1,0.7003827455919236,1,,,,,,,,,,,,,,,,,,,,,,1055,2019_Mar_13_1243,mf_amp_cond1,3.0.4,59.988033169196214,
died,sgrawl,&&&&&&,right,care.vice,,,,,,,0,71,71,71,,,,,,,,,,,,,,,,,,,,,AMP,left,0.6837101884011645,,,left,0,0.6837101884011645,0,,,,,,,,,,,,,,,,,,,,,,1055,2019_Mar_13_1243,mf_amp_cond1,3.0.4,59.988033169196214,
clean,lursuer,&&&&&&&,left,sanctity.virtue,,,,,,,0,72,72,72,,,,,,,,,,,,,,,,,,,,,AMP,left,1.1004782555974089,,,left,1,1.1004782555974089,1,,,,,,,,,,,,,,,,,,,,,,1055,2019_Mar_13_1243,mf_amp_cond1,3.0.4,59.988033169196214,
officers,hasks,&&&&&,right,authority.vice,,,,,,,0,73,73,73,,,,,,,,,,,,,,,,,,,,,AMP,right,0.3336390850599855,,,right,1,0.3336390850599855,1,,,,,,,,,,,,,,,,,,,,,,1055,2019_Mar_13_1243,mf_amp_cond1,3.0.4,59.988033169196214,
fear,sfumatoy,&&&&&&&&,right,sanctity.vice,,,,,,,0,74,74,74,,,,,,,,,,,,,,,,,,,,,AMP,left,0.8504421747347806,,,left,0,0.8504421747347806,0,,,,,,,,,,,,,,,,,,,,,,1055,2019_Mar_13_1243,mf_amp_cond1,3.0.4,59.988033169196214,
ban,papert,&&&&&&,right,loyalty.vice,,,,,,,0,75,75,75,,,,,,,,,,,,,,,,,,,,,AMP,right,0.6503695640712976,,,right,1,0.6503695640712976,1,,,,,,,,,,,,,,,,,,,,,,1055,2019_Mar_13_1243,mf_amp_cond1,3.0.4,59.988033169196214,
groups,reelectiob,&&&&&&&&&&,right,loyalty.vice,,,,,,,0,76,76,76,,,,,,,,,,,,,,,,,,,,,AMP,left,1.2839087773463689,,,left,0,1.2839087773463689,0,,,,,,,,,,,,,,,,,,,,,,1055,2019_Mar_13_1243,mf_amp_cond1,3.0.4,59.988033169196214,
accused,pescinded,&&&&&&&&&,right,fairness.vice,,,,,,,0,77,77,77,,,,,,,,,,,,,,,,,,,,,AMP,right,0.9337876419303939,,,right,1,0.9337876419303939,1,,,,,,,,,,,,,,,,,,,,,,1055,2019_Mar_13_1243,mf_amp_cond1,3.0.4,59.988033169196214,
respect,laming,&&&&&&,left,sanctity.virtue,,,,,,,0,78,78,78,,,,,,,,,,,,,,,,,,,,,AMP,right,0.41699641884770244,,,right,0,0.41699641884770244,0,,,,,,,,,,,,,,,,,,,,,,1055,2019_Mar_13_1243,mf_amp_cond1,3.0.4,59.988033169196214,
faith,fostet,&&&&&&,left,sanctity.virtue,,,,,,,0,79,79,79,,,,,,,,,,,,,,,,,,,,,AMP,right,0.500352149043465,,,right,0,0.500352149043465,0,,,,,,,,,,,,,,,,,,,,,,1055,2019_Mar_13_1243,mf_amp_cond1,3.0.4,59.988033169196214,
riot,festate,&&&&&&&,right,authority.vice,,,,,,,0,80,80,80,,,,,,,,,,,,,,,,,,,,,AMP,left,0.30035907655837946,,,left,0,0.30035907655837946,0,,,,,,,,,,,,,,,,,,,,,,1055,2019_Mar_13_1243,mf_amp_cond1,3.0.4,59.988033169196214,
refused,lempestuous,&&&&&&&&&&&,right,authority.vice,,,,,,,0,81,81,81,,,,,,,,,,,,,,,,,,,,,AMP,left,0.7837477766152006,,,left,0,0.7837477766152006,0,,,,,,,,,,,,,,,,,,,,,,1055,2019_Mar_13_1243,mf_amp_cond1,3.0.4,59.988033169196214,
voter,dormandi,&&&&&&&&,right,fairness.vice,,,,,,,0,82,82,82,,,,,,,,,,,,,,,,,,,,,AMP,left,2.2174270156829152,,,left,0,2.2174270156829152,0,,,,,,,,,,,,,,,,,,,,,,1055,2019_Mar_13_1243,mf_amp_cond1,3.0.4,59.988033169196214,
crime,presentkess,&&&&&&&&&&&,right,fairness.vice,,,,,,,0,83,83,83,,,,,,,,,,,,,,,,,,,,,AMP,right,0.6670517428137828,,,right,1,0.6670517428137828,1,,,,,,,,,,,,,,,,,,,,,,1055,2019_Mar_13_1243,mf_amp_cond1,3.0.4,59.988033169196214,
shot,viscs,&&&&&,right,care.vice,,,,,,,0,84,84,84,,,,,,,,,,,,,,,,,,,,,AMP,left,1.2671849051839672,,,left,0,1.2671849051839672,0,,,,,,,,,,,,,,,,,,,,,,1055,2019_Mar_13_1243,mf_amp_cond1,3.0.4,59.988033169196214,
health,thadowed,&&&&&&&&,left,care.virtue,,,,,,,0,85,85,85,,,,,,,,,,,,,,,,,,,,,AMP,right,0.8837808747775853,,,right,0,0.8837808747775853,0,,,,,,,,,,,,,,,,,,,,,,1055,2019_Mar_13_1243,mf_amp_cond1,3.0.4,59.988033169196214,
sharing,baklara,&&&&&&&,left,loyalty.virtue,,,,,,,0,86,86,86,,,,,,,,,,,,,,,,,,,,,AMP,left,1.0504779027833138,,,left,1,1.0504779027833138,1,,,,,,,,,,,,,,,,,,,,,,1055,2019_Mar_13_1243,mf_amp_cond1,3.0.4,59.988033169196214,
fair,chressing,&&&&&&&&&,left,fairness.virtue,,,,,,,0,87,87,87,,,,,,,,,,,,,,,,,,,,,AMP,right,1.6672932439250872,,,right,0,1.6672932439250872,0,,,,,,,,,,,,,,,,,,,,,,1055,2019_Mar_13_1243,mf_amp_cond1,3.0.4,59.988033169196214,
riot,tislay,&&&&&&,right,authority.vice,,,,,,,0,88,88,88,,,,,,,,,,,,,,,,,,,,,AMP,left,1.4005560619116295,,,left,0,1.4005560619116295,0,,,,,,,,,,,,,,,,,,,,,,1055,2019_Mar_13_1243,mf_amp_cond1,3.0.4,59.988033169196214,
promised,tove,&&&&,left,loyalty.virtue,,,,,,,0,89,89,89,,,,,,,,,,,,,,,,,,,,,AMP,right,1.067175155330915,,,right,0,1.067175155330915,0,,,,,,,,,,,,,,,,,,,,,,1055,2019_Mar_13_1243,mf_amp_cond1,3.0.4,59.988033169196214,
violations,gillipede,&&&&&&&&&,right,sanctity.vice,,,,,,,0,90,90,90,,,,,,,,,,,,,,,,,,,,,AMP,left,1.8173273363208864,,,left,0,1.8173273363208864,0,,,,,,,,,,,,,,,,,,,,,,1055,2019_Mar_13_1243,mf_amp_cond1,3.0.4,59.988033169196214,
celebrated,mecan,&&&&&,left,authority.virtue,,,,,,,0,91,91,91,,,,,,,,,,,,,,,,,,,,,AMP,left,1.0504769406688865,,,left,1,1.0504769406688865,1,,,,,,,,,,,,,,,,,,,,,,1055,2019_Mar_13_1243,mf_amp_cond1,3.0.4,59.988033169196214,
feleological,openet,&&&&&&,None,nonword,,,,,,,0,92,92,92,,,,,,,,,,,,,,,,,,,,,AMP,right,0.5337193930172361,,,right,0,0.5337193930172361,0,,,,,,,,,,,,,,,,,,,,,,1055,2019_Mar_13_1243,mf_amp_cond1,3.0.4,59.988033169196214,
pleasant,shoirmaster,&&&&&&&&&&&,None,control,,,,,,,0,93,93,93,,,,,,,,,,,,,,,,,,,,,AMP,right,1.0338226644089445,,,right,0,1.0338226644089445,0,,,,,,,,,,,,,,,,,,,,,,1055,2019_Mar_13_1243,mf_amp_cond1,3.0.4,59.988033169196214,
clean,infet,&&&&&,left,sanctity.virtue,,,,,,,0,94,94,94,,,,,,,,,,,,,,,,,,,,,AMP,right,0.8337760319118388,,,right,0,0.8337760319118388,0,,,,,,,,,,,,,,,,,,,,,,1055,2019_Mar_13_1243,mf_amp_cond1,3.0.4,59.988033169196214,
officers,hasks,&&&&&,right,authority.vice,,,,,,,0,95,95,95,,,,,,,,,,,,,,,,,,,,,AMP,right,0.3669777851027902,,,right,1,0.3669777851027902,1,,,,,,,,,,,,,,,,,,,,,,1055,2019_Mar_13_1243,mf_amp_cond1,3.0.4,59.988033169196214,
letish,rorroborated,&&&&&&&&&&&&,None,nonword,,,,,,,0,96,96,96,,,,,,,,,,,,,,,,,,,,,AMP,left,0.7170456812309567,,,left,0,0.7170456812309567,0,,,,,,,,,,,,,,,,,,,,,,1055,2019_Mar_13_1243,mf_amp_cond1,3.0.4,59.988033169196214,
respect,tenuflect,&&&&&&&&&,left,sanctity.virtue,,,,,,,0,97,97,97,,,,,,,,,,,,,,,,,,,,,AMP,left,0.8003895448346157,,,left,1,0.8003895448346157,1,,,,,,,,,,,,,,,,,,,,,,1055,2019_Mar_13_1243,mf_amp_cond1,3.0.4,59.988033169196214,
victims,coom,&&&&,right,care.vice,,,,,,,0,98,98,98,,,,,,,,,,,,,,,,,,,,,AMP,right,0.7504010586126242,,,right,1,0.7504010586126242,1,,,,,,,,,,,,,,,,,,,,,,1055,2019_Mar_13_1243,mf_amp_cond1,3.0.4,59.988033169196214,
encourage,idexpressible,&&&&&&&&&&&&&,left,authority.virtue,,,,,,,0,99,99,99,,,,,,,,,,,,,,,,,,,,,AMP,left,0.6337181742710527,,,left,1,0.6337181742710527,1,,,,,,,,,,,,,,,,,,,,,,1055,2019_Mar_13_1243,mf_amp_cond1,3.0.4,59.988033169196214,
penalty,wump,&&&&,right,authority.vice,,,,,,,0,100,100,100,,,,,,,,,,,,,,,,,,,,,AMP,left,0.5837005026987754,,,left,0,0.5837005026987754,0,,,,,,,,,,,,,,,,,,,,,,1055,2019_Mar_13_1243,mf_amp_cond1,3.0.4,59.988033169196214,
love,rivernoat,&&&&&&&&&,left,loyalty.virtue,,,,,,,0,101,101,101,,,,,,,,,,,,,,,,,,,,,AMP,right,0.5336946976894978,,,right,0,0.5336946976894978,0,,,,,,,,,,,,,,,,,,,,,,1055,2019_Mar_13_1243,mf_amp_cond1,3.0.4,59.988033169196214,
actively,dumid,&&&&&,left,authority.virtue,,,,,,,0,102,102,102,,,,,,,,,,,,,,,,,,,,,AMP,left,0.35029720995225944,,,left,1,0.35029720995225944,1,,,,,,,,,,,,,,,,,,,,,,1055,2019_Mar_13_1243,mf_amp_cond1,3.0.4,59.988033169196214,
hand,totalestic,&&&&&&&&&&,left,sanctity.virtue,,,,,,,0,103,103,103,,,,,,,,,,,,,,,,,,,,,AMP,right,0.9004367546003778,,,right,0,0.9004367546003778,0,,,,,,,,,,,,,,,,,,,,,,1055,2019_Mar_13_1243,mf_amp_cond1,3.0.4,59.988033169196214,
injured,Daptist,&&&&&&&,right,care.vice,,,,,,,0,104,104,104,,,,,,,,,,,,,,,,,,,,,AMP,left,0.6503801477665547,,,left,0,0.6503801477665547,0,,,,,,,,,,,,,,,,,,,,,,1055,2019_Mar_13_1243,mf_amp_cond1,3.0.4,59.988033169196214,
hope,uller,&&&&&,left,loyalty.virtue,,,,,,,0,105,105,105,,,,,,,,,,,,,,,,,,,,,AMP,left,0.4170050782558974,,,left,1,0.4170050782558974,1,,,,,,,,,,,,,,,,,,,,,,1055,2019_Mar_13_1243,mf_amp_cond1,3.0.4,59.988033169196214,
terrorists,festate,&&&&&&&,right,fairness.vice,,,,,,,0,106,106,106,,,,,,,,,,,,,,,,,,,,,AMP,left,0.7670960661489516,,,left,0,0.7670960661489516,0,,,,,,,,,,,,,,,,,,,,,,1055,2019_Mar_13_1243,mf_amp_cond1,3.0.4,59.988033169196214,
fraud,esquisiteness,&&&&&&&&&&&&&,right,fairness.vice,,,,,,,0,107,107,107,,,,,,,,,,,,,,,,,,,,,AMP,left,0.5002126364561263,,,left,0,0.5002126364561263,0,,,,,,,,,,,,,,,,,,,,,,1055,2019_Mar_13_1243,mf_amp_cond1,3.0.4,59.988033169196214,
party,asn,&&&,left,loyalty.virtue,,,,,,,0,108,108,108,,,,,,,,,,,,,,,,,,,,,AMP,left,0.38365611524204724,,,left,1,0.38365611524204724,1,,,,,,,,,,,,,,,,,,,,,,1055,2019_Mar_13_1243,mf_amp_cond1,3.0.4,59.988033169196214,
grovelire,laming,&&&&&&,None,nonword,,,,,,,0,109,109,109,,,,,,,,,,,,,,,,,,,,,AMP,right,1.4339018177706748,,,right,0,1.4339018177706748,0,,,,,,,,,,,,,,,,,,,,,,1055,2019_Mar_13_1243,mf_amp_cond1,3.0.4,59.988033169196214,
simplustic,suggists,&&&&&&&&,None,nonword,,,,,,,0,110,110,110,,,,,,,,,,,,,,,,,,,,,AMP,right,0.48366708381217904,,,right,0,0.48366708381217904,0,,,,,,,,,,,,,,,,,,,,,,1055,2019_Mar_13_1243,mf_amp_cond1,3.0.4,59.988033169196214,
restore,hatigue,&&&&&&&,left,care.virtue,,,,,,,0,111,111,111,,,,,,,,,,,,,,,,,,,,,AMP,left,0.5003543940838426,,,left,1,0.5003543940838426,1,,,,,,,,,,,,,,,,,,,,,,1055,2019_Mar_13_1243,mf_amp_cond1,3.0.4,59.988033169196214,
erks,unreflectuve,&&&&&&&&&&&&,None,nonword,,,,,,,0,112,112,112,,,,,,,,,,,,,,,,,,,,,AMP,left,0.8504319117346313,,,left,0,0.8504319117346313,0,,,,,,,,,,,,,,,,,,,,,,1055,2019_Mar_13_1243,mf_amp_cond1,3.0.4,59.988033169196214,
killed,dramens,&&&&&&&,right,care.vice,,,,,,,0,113,113,113,,,,,,,,,,,,,,,,,,,,,AMP,left,2.0507120274123736,,,left,0,2.0507120274123736,0,,,,,,,,,,,,,,,,,,,,,,1055,2019_Mar_13_1243,mf_amp_cond1,3.0.4,59.988033169196214,
glacenta,bycled,&&&&&&,None,nonword,,,,,,,0,114,114,114,,,,,,,,,,,,,,,,,,,,,AMP,right,0.8837680460419506,,,right,0,0.8837680460419506,0,,,,,,,,,,,,,,,,,,,,,,1055,2019_Mar_13_1243,mf_amp_cond1,3.0.4,59.988033169196214,
win,counpy's,&&&&&&&&,left,fairness.virtue,,,,,,,0,115,115,115,,,,,,,,,,,,,,,,,,,,,AMP,left,0.5170102739066351,,,left,1,0.5170102739066351,1,,,,,,,,,,,,,,,,,,,,,,1055,2019_Mar_13_1243,mf_amp_cond1,3.0.4,59.988033169196214,
faith,wonderfujnoss,&&&&&&&&&&&&&,left,sanctity.virtue,,,,,,,0,116,116,116,,,,,,,,,,,,,,,,,,,,,AMP,right,0.7003821041726042,,,right,0,0.7003821041726042,0,,,,,,,,,,,,,,,,,,,,,,1055,2019_Mar_13_1243,mf_amp_cond1,3.0.4,59.988033169196214,
powerful,epigrach,&&&&&&&&,left,authority.virtue,,,,,,,0,117,117,117,,,,,,,,,,,,,,,,,,,,,AMP,left,0.6337239472195506,,,left,1,0.6337239472195506,1,,,,,,,,,,,,,,,,,,,,,,1055,2019_Mar_13_1243,mf_amp_cond1,3.0.4,59.988033169196214,
promises,lempestuous,&&&&&&&&&&&,left,fairness.virtue,,,,,,,0,118,118,118,,,,,,,,,,,,,,,,,,,,,AMP,left,0.5670494336518459,,,left,1,0.5670494336518459,1,,,,,,,,,,,,,,,,,,,,,,1055,2019_Mar_13_1243,mf_amp_cond1,3.0.4,59.988033169196214,
accused,mightingale,&&&&&&&&&&&,right,fairness.vice,,,,,,,0,119,119,119,,,,,,,,,,,,,,,,,,,,,AMP,right,0.6003631176135968,,,right,1,0.6003631176135968,1,,,,,,,,,,,,,,,,,,,,,,1055,2019_Mar_13_1243,mf_amp_cond1,3.0.4,59.988033169196214,
illegal,godlaness,&&&&&&&&&,right,fairness.vice,,,,,,,0,120,120,120,,,,,,,,,,,,,,,,,,,,,AMP,right,0.4503405711147934,,,right,1,0.4503405711147934,1,,,,,,,,,,,,,,,,,,,,,,1055,2019_Mar_13_1243,mf_amp_cond1,3.0.4,59.988033169196214,
strong,scock,&&&&&,left,loyalty.virtue,,,,,,,0,121,121,121,,,,,,,,,,,,,,,,,,,,,AMP,left,0.5170202161825728,,,left,1,0.5170202161825728,1,,,,,,,,,,,,,,,,,,,,,,1055,2019_Mar_13_1243,mf_amp_cond1,3.0.4,59.988033169196214,
commitment,proached,&&&&&&&&,left,sanctity.virtue,,,,,,,0,122,122,122,,,,,,,,,,,,,,,,,,,,,AMP,right,1.8673661753418855,,,right,0,1.8673661753418855,0,,,,,,,,,,,,,,,,,,,,,,1055,2019_Mar_13_1243,mf_amp_cond1,3.0.4,59.988033169196214,
fontacts,lursuer,&&&&&&&,None,nonword,,,,,,,0,123,123,123,,,,,,,,,,,,,,,,,,,,,AMP,right,1.2005190510244574,,,right,0,1.2005190510244574,0,,,,,,,,,,,,,,,,,,,,,,1055,2019_Mar_13_1243,mf_amp_cond1,3.0.4,59.988033169196214,
safe,faspberry,&&&&&&&&&,left,care.virtue,,,,,,,0,124,124,124,,,,,,,,,,,,,,,,,,,,,AMP,right,0.6337124013516586,,,right,0,0.6337124013516586,0,,,,,,,,,,,,,,,,,,,,,,1055,2019_Mar_13_1243,mf_amp_cond1,3.0.4,59.988033169196214,
army,ablow,&&&&&,right,loyalty.vice,,,,,,,0,125,125,125,,,,,,,,,,,,,,,,,,,,,AMP,left,0.533797327632783,,,left,0,0.533797327632783,0,,,,,,,,,,,,,,,,,,,,,,1055,2019_Mar_13_1243,mf_amp_cond1,3.0.4,59.988033169196214,
interests,Loorish,&&&&&&&,left,fairness.virtue,,,,,,,0,126,126,126,,,,,,,,,,,,,,,,,,,,,AMP,right,0.5503618026850745,,,right,0,0.5503618026850745,0,,,,,,,,,,,,,,,,,,,,,,1055,2019_Mar_13_1243,mf_amp_cond1,3.0.4,59.988033169196214,
progress,sickyay,&&&&&&&,left,authority.virtue,,,,,,,0,127,127,127,,,,,,,,,,,,,,,,,,,,,AMP,left,0.3669777851027902,,,left,1,0.3669777851027902,1,,,,,,,,,,,,,,,,,,,,,,1055,2019_Mar_13_1243,mf_amp_cond1,3.0.4,59.988033169196214,
unpleasant,fostet,&&&&&&,None,control,,,,,,,0,128,128,128,,,,,,,,,,,,,,,,,,,,,AMP,left,0.9504512190178502,,,left,0,0.9504512190178502,0,,,,,,,,,,,,,,,,,,,,,,1055,2019_Mar_13_1243,mf_amp_cond1,3.0.4,59.988033169196214,
critics,photocalkodes,&&&&&&&&&&&&&,right,loyalty.vice,,,,,,,0,129,129,129,,,,,,,,,,,,,,,,,,,,,AMP,left,0.5003627327387221,,,left,0,0.5003627327387221,0,,,,,,,,,,,,,,,,,,,,,,1055,2019_Mar_13_1243,mf_amp_cond1,3.0.4,59.988033169196214,
rejected,sfumatoy,&&&&&&&&,right,authority.vice,,,,,,,0,130,130,130,,,,,,,,,,,,,,,,,,,,,AMP,left,0.6170520314772148,,,left,0,0.6170520314772148,0,,,,,,,,,,,,,,,,,,,,,,1055,2019_Mar_13_1243,mf_amp_cond1,3.0.4,59.988033169196214,
opportunity,Boeinf,&&&&&&,left,fairness.virtue,,,,,,,0,131,131,131,,,,,,,,,,,,,,,,,,,,,AMP,left,0.5003213600430172,,,left,1,0.5003213600430172,1,,,,,,,,,,,,,,,,,,,,,,1055,2019_Mar_13_1243,mf_amp_cond1,3.0.4,59.988033169196214,
useful,pescinded,&&&&&&&&&,left,authority.virtue,,,,,,,0,132,132,132,,,,,,,,,,,,,,,,,,,,,AMP,left,1.2005097501678392,,,left,1,1.2005097501678392,1,,,,,,,,,,,,,,,,,,,,,,1055,2019_Mar_13_1243,mf_amp_cond1,3.0.4,59.988033169196214,
ability,refuejing,&&&&&&&&&,left,authority.virtue,,,,,,,0,133,133,133,,,,,,,,,,,,,,,,,,,,,AMP,left,0.7170697351102717,,,left,1,0.7170697351102717,1,,,,,,,,,,,,,,,,,,,,,,1055,2019_Mar_13_1243,mf_amp_cond1,3.0.4,59.988033169196214,
drug,quarterbocks,&&&&&&&&&&&&,right,sanctity.vice,,,,,,,0,134,134,134,,,,,,,,,,,,,,,,,,,,,AMP,right,1.7173077083425596,,,right,1,1.7173077083425596,1,,,,,,,,,,,,,,,,,,,,,,1055,2019_Mar_13_1243,mf_amp_cond1,3.0.4,59.988033169196214,
blamed,precificity,&&&&&&&&&&&,right,loyalty.vice,,,,,,,0,135,135,135,,,,,,,,,,,,,,,,,,,,,AMP,right,0.750400096498197,,,right,1,0.750400096498197,1,,,,,,,,,,,,,,,,,,,,,,1055,2019_Mar_13_1243,mf_amp_cond1,3.0.4,59.988033169196214,
safety,honstables,&&&&&&&&&&,left,care.virtue,,,,,,,0,136,136,136,,,,,,,,,,,,,,,,,,,,,AMP,right,1.984042324591428,,,right,0,1.984042324591428,0,,,,,,,,,,,,,,,,,,,,,,1055,2019_Mar_13_1243,mf_amp_cond1,3.0.4,59.988033169196214,
benefit,supervuned,&&&&&&&&&&,left,fairness.virtue,,,,,,,0,137,137,137,,,,,,,,,,,,,,,,,,,,,AMP,left,1.2838590659957845,,,left,1,1.2838590659957845,1,,,,,,,,,,,,,,,,,,,,,,1055,2019_Mar_13_1243,mf_amp_cond1,3.0.4,59.988033169196214,
civilians,reelectiob,&&&&&&&&&&,right,care.vice,,,,,,,0,138,138,138,,,,,,,,,,,,,,,,,,,,,AMP,left,0.5170497222861741,,,left,0,0.5170497222861741,0,,,,,,,,,,,,,,,,,,,,,,1055,2019_Mar_13_1243,mf_amp_cond1,3.0.4,59.988033169196214,
strength,antral,&&&&&&,left,sanctity.virtue,,,,,,,0,139,139,139,,,,,,,,,,,,,,,,,,,,,AMP,left,0.9337834726029541,,,left,1,0.9337834726029541,1,,,,,,,,,,,,,,,,,,,,,,1055,2019_Mar_13_1243,mf_amp_cond1,3.0.4,59.988033169196214,
troops,ecgagement,&&&&&&&&&&,right,loyalty.vice,,,,,,,0,140,140,140,,,,,,,,,,,,,,,,,,,,,AMP,left,0.5003556769224815,,,left,0,0.5003556769224815,0,,,,,,,,,,,,,,,,,,,,,,1055,2019_Mar_13_1243,mf_amp_cond1,3.0.4,59.988033169196214,
terrorist,tomedians,&&&&&&&&&,right,loyalty.vice,,,,,,,0,141,141,141,,,,,,,,,,,,,,,,,,,,,AMP,right,1.2671868294710293,,,right,1,1.2671868294710293,1,,,,,,,,,,,,,,,,,,,,,,1055,2019_Mar_13_1243,mf_amp_cond1,3.0.4,59.988033169196214,
ilportation,drumbled,&&&&&&&&,None,nonword,,,,,,,0,142,142,142,,,,,,,,,,,,,,,,,,,,,AMP,left,1.3838950506178662,,,left,0,1.3838950506178662,0,,,,,,,,,,,,,,,,,,,,,,1055,2019_Mar_13_1243,mf_amp_cond1,3.0.4,59.988033169196214,
intelligence,squets,&&&&&&,left,loyalty.virtue,,,,,,,0,143,143,143,,,,,,,,,,,,,,,,,,,,,AMP,left,1.583948418207001,,,left,1,1.583948418207001,1,,,,,,,,,,,,,,,,,,,,,,1055,2019_Mar_13_1243,mf_amp_cond1,3.0.4,59.988033169196214,
ban,clamorek,&&&&&&&&,right,loyalty.vice,,,,,,,0,144,144,144,,,,,,,,,,,,,,,,,,,,,AMP,left,0.400322258064989,,,left,0,0.400322258064989,0,,,,,,,,,,,,,,,,,,,,,,1055,2019_Mar_13_1243,mf_amp_cond1,3.0.4,59.988033169196214,
care,disregord,&&&&&&&&&,left,care.virtue,,,,,,,0,145,145,145,,,,,,,,,,,,,,,,,,,,,AMP,left,1.3338963013957255,,,left,1,1.3338963013957255,1,,,,,,,,,,,,,,,,,,,,,,1055,2019_Mar_13_1243,mf_amp_cond1,3.0.4,59.988033169196214,
chreams,troubla,&&&&&&&,None,nonword,,,,,,,0,146,146,146,,,,,,,,,,,,,,,,,,,,,AMP,left,0.6503823928069323,,,left,0,0.6503823928069323,0,,,,,,,,,,,,,,,,,,,,,,1055,2019_Mar_13_1243,mf_amp_cond1,3.0.4,59.988033169196214,
arrests,fegard,&&&&&&,right,authority.vice,,,,,,,0,147,147,147,,,,,,,,,,,,,,,,,,,,,AMP,left,0.7837561152991839,,,left,0,0.7837561152991839,0,,,,,,,,,,,,,,,,,,,,,,1055,2019_Mar_13_1243,mf_amp_cond1,3.0.4,59.988033169196214,
conspiracy,emassion,&&&&&&&&,right,sanctity.vice,,,,,,,0,148,148,148,,,,,,,,,,,,,,,,,,,,,AMP,left,0.8170893630885985,,,left,0,0.8170893630885985,0,,,,,,,,,,,,,,,,,,,,,,1055,2019_Mar_13_1243,mf_amp_cond1,3.0.4,59.988033169196214,
fear,pistraught,&&&&&&&&&&,right,sanctity.vice,,,,,,,0,149,149,149,,,,,,,,,,,,,,,,,,,,,AMP,left,0.6337159292597789,,,left,0,0.6337159292597789,0,,,,,,,,,,,,,,,,,,,,,,1055,2019_Mar_13_1243,mf_amp_cond1,3.0.4,59.988033169196214,
war,atson,&&&&&,right,sanctity.vice,,,,,,,0,150,150,150,,,,,,,,,,,,,,,,,,,,,AMP,right,0.5670257004676387,,,right,1,0.5670257004676387,1,,,,,,,,,,,,,,,,,,,,,,1055,2019_Mar_13_1243,mf_amp_cond1,3.0.4,59.988033169196214,
suicide,iptervention,&&&&&&&&&&&&,right,care.vice,,,,,,,0,151,151,151,,,,,,,,,,,,,,,,,,,,,AMP,right,3.91783573947032,,,right,1,3.91783573947032,1,,,,,,,,,,,,,,,,,,,,,,1055,2019_Mar_13_1243,mf_amp_cond1,3.0.4,59.988033169196214,
improve,fornicalion,&&&&&&&&&&&,left,care.virtue,,,,,,,0,152,152,152,,,,,,,,,,,,,,,,,,,,,AMP,left,0.4336702589353081,,,left,1,0.4336702589353081,1,,,,,,,,,,,,,,,,,,,,,,1055,2019_Mar_13_1243,mf_amp_cond1,3.0.4,59.988033169196214,
freedom,pumber,&&&&&&,left,sanctity.virtue,,,,,,,0,153,153,153,,,,,,,,,,,,,,,,,,,,,AMP,left,0.7004119310004171,,,left,1,0.7004119310004171,1,,,,,,,,,,,,,,,,,,,,,,1055,2019_Mar_13_1243,mf_amp_cond1,3.0.4,59.988033169196214,
growth,menizen,&&&&&&&,left,care.virtue,,,,,,,0,154,154,154,,,,,,,,,,,,,,,,,,,,,AMP,left,0.7004847341158893,,,left,1,0.7004847341158893,1,,,,,,,,,,,,,,,,,,,,,,1055,2019_Mar_13_1243,mf_amp_cond1,3.0.4,59.988033169196214,
gikely,prones,&&&&&&,None,nonword,,,,,,,0,155,155,155,,,,,,,,,,,,,,,,,,,,,AMP,right,0.6837352044531144,,,right,0,0.6837352044531144,0,,,,,,,,,,,,,,,,,,,,,,1055,2019_Mar_13_1243,mf_amp_cond1,3.0.4,59.988033169196214,
died,vicissifude,&&&&&&&&&&&,right,care.vice,,,,,,,0,156,156,156,,,,,,,,,,,,,,,,,,,,,AMP,left,0.6170343919366132,,,left,0,0.6170343919366132,0,,,,,,,,,,,,,,,,,,,,,,1055,2019_Mar_13_1243,mf_amp_cond1,3.0.4,59.988033169196214,
serial,lachelor,&&&&&&&&,right,sanctity.vice,,,,,,,0,157,157,157,,,,,,,,,,,,,,,,,,,,,AMP,left,1.950702983129304,,,left,0,1.950702983129304,0,,,,,,,,,,,,,,,,,,,,,,1055,2019_Mar_13_1243,mf_amp_cond1,3.0.4,59.988033169196214,
refused,papert,&&&&&&,right,authority.vice,,,,,,,0,158,158,158,,,,,,,,,,,,,,,,,,,,,AMP,right,0.9504220336384606,,,right,1,0.9504220336384606,1,,,,,,,,,,,,,,,,,,,,,,1055,2019_Mar_13_1243,mf_amp_cond1,3.0.4,59.988033169196214,
groups,halaise,&&&&&&&,right,loyalty.vice,,,,,,,0,159,159,159,,,,,,,,,,,,,,,,,,,,,AMP,left,1.9340291430416983,,,left,0,1.9340291430416983,0,,,,,,,,,,,,,,,,,,,,,,1055,2019_Mar_13_1243,mf_amp_cond1,3.0.4,59.988033169196214,
integrity,nuckheap,&&&&&&&&,left,fairness.virtue,,,,,,,0,160,160,160,,,,,,,,,,,,,,,,,,,,,AMP,left,0.46699709235690534,,,left,1,0.46699709235690534,1,,,,,,,,,,,,,,,,,,,,,,1055,2019_Mar_13_1243,mf_amp_cond1,3.0.4,59.988033169196214,
gun,frojecting,&&&&&&&&&&,right,authority.vice,,,,,,,0,161,161,161,,,,,,,,,,,,,,,,,,,,,AMP,left,0.40031937160529196,,,left,0,0.40031937160529196,0,,,,,,,,,,,,,,,,,,,,,,1055,2019_Mar_13_1243,mf_amp_cond1,3.0.4,59.988033169196214,
forced,gusinesslike,&&&&&&&&&&&&,right,fairness.vice,,,,,,,0,162,162,162,,,,,,,,,,,,,,,,,,,,,AMP,left,0.3669819544593338,,,left,0,0.3669819544593338,0,,,,,,,,,,,,,,,,,,,,,,1055,2019_Mar_13_1243,mf_amp_cond1,3.0.4,59.988033169196214,
corruption,sgrawl,&&&&&&,right,sanctity.vice,,,,,,,0,163,163,163,,,,,,,,,,,,,,,,,,,,,AMP,left,0.4502879732463043,,,left,0,0.4502879732463043,0,,,,,,,,,,,,,,,,,,,,,,1055,2019_Mar_13_1243,mf_amp_cond1,3.0.4,59.988033169196214,
groups,halaise,&&&&&&&,right,loyalty.vice,,,,,,,0,164,164,164,,,,,,,,,,,,,,,,,,,,,AMP,left,0.41699064592830837,,,left,0,0.41699064592830837,0,,,,,,,,,,,,,,,,,,,,,,1055,2019_Mar_13_1243,mf_amp_cond1,3.0.4,59.988033169196214,
grovelire,scock,&&&&&,None,nonword,,,,,,,0,165,165,165,,,,,,,,,,,,,,,,,,,,,AMP,left,0.583699861279456,,,left,0,0.583699861279456,0,,,,,,,,,,,,,,,,,,,,,,1055,2019_Mar_13_1243,mf_amp_cond1,3.0.4,59.988033169196214,
terrorist,shoirmaster,&&&&&&&&&&&,right,loyalty.vice,,,,,,,0,166,166,166,,,,,,,,,,,,,,,,,,,,,AMP,right,0.5670343598467298,,,right,1,0.5670343598467298,1,,,,,,,,,,,,,,,,,,,,,,1055,2019_Mar_13_1243,mf_amp_cond1,3.0.4,59.988033169196214,
opportunity,festate,&&&&&&&,left,fairness.virtue,,,,,,,0,167,167,167,,,,,,,,,,,,,,,,,,,,,AMP,right,0.7003901221323758,,,right,0,0.7003901221323758,0,,,,,,,,,,,,,,,,,,,,,,1055,2019_Mar_13_1243,mf_amp_cond1,3.0.4,59.988033169196214,
arrests,thadowed,&&&&&&&&,right,authority.vice,,,,,,,0,168,168,168,,,,,,,,,,,,,,,,,,,,,AMP,right,0.4336641652917024,,,right,1,0.4336641652917024,1,,,,,,,,,,,,,,,,,,,,,,1055,2019_Mar_13_1243,mf_amp_cond1,3.0.4,59.988033169196214,
strength,nuckheap,&&&&&&&&,left,sanctity.virtue,,,,,,,0,169,169,169,,,,,,,,,,,,,,,,,,,,,AMP,left,0.48367991254781373,,,left,1,0.48367991254781373,1,,,,,,,,,,,,,,,,,,,,,,1055,2019_Mar_13_1243,mf_amp_cond1,3.0.4,59.988033169196214,
voter,bycled,&&&&&&,right,fairness.vice,,,,,,,0,170,170,170,,,,,,,,,,,,,,,,,,,,,AMP,right,0.6837255829013884,,,right,1,0.6837255829013884,1,,,,,,,,,,,,,,,,,,,,,,1055,2019_Mar_13_1243,mf_amp_cond1,3.0.4,59.988033169196214,
forced,rorroborated,&&&&&&&&&&&&,right,fairness.vice,,,,,,,0,171,171,171,,,,,,,,,,,,,,,,,,,,,AMP,left,0.5503582747478504,,,left,0,0.5503582747478504,0,,,,,,,,,,,,,,,,,,,,,,1055,2019_Mar_13_1243,mf_amp_cond1,3.0.4,59.988033169196214,
civilians,atson,&&&&&,right,care.vice,,,,,,,0,172,172,172,,,,,,,,,,,,,,,,,,,,,AMP,left,0.5503598783689085,,,left,0,0.5503598783689085,0,,,,,,,,,,,,,,,,,,,,,,1055,2019_Mar_13_1243,mf_amp_cond1,3.0.4,59.988033169196214,
health,godlaness,&&&&&&&&&,left,care.virtue,,,,,,,0,173,173,173,,,,,,,,,,,,,,,,,,,,,AMP,right,0.4670015824085567,,,right,0,0.4670015824085567,0,,,,,,,,,,,,,,,,,,,,,,1055,2019_Mar_13_1243,mf_amp_cond1,3.0.4,59.988033169196214,
commitment,frojecting,&&&&&&&&&&,left,sanctity.virtue,,,,,,,0,174,174,174,,,,,,,,,,,,,,,,,,,,,AMP,left,0.3503049071878195,,,left,1,0.3503049071878195,1,,,,,,,,,,,,,,,,,,,,,,1055,2019_Mar_13_1243,mf_amp_cond1,3.0.4,59.988033169196214,
fraud,esquisiteness,&&&&&&&&&&&&&,right,fairness.vice,,,,,,,0,175,175,175,,,,,,,,,,,,,,,,,,,,,AMP,left,0.5837197458022274,,,left,0,0.5837197458022274,0,,,,,,,,,,,,,,,,,,,,,,1055,2019_Mar_13_1243,mf_amp_cond1,3.0.4,59.988033169196214,
unpleasant,drumbled,&&&&&&&&,None,control,,,,,,,0,176,176,176,,,,,,,,,,,,,,,,,,,,,AMP,right,0.8004212959785946,,,right,0,0.8004212959785946,0,,,,,,,,,,,,,,,,,,,,,,1055,2019_Mar_13_1243,mf_amp_cond1,3.0.4,59.988033169196214,
care,quarterbocks,&&&&&&&&&&&&,left,care.virtue,,,,,,,0,177,177,177,,,,,,,,,,,,,,,,,,,,,AMP,right,0.4336702589353081,,,right,0,0.4336702589353081,0,,,,,,,,,,,,,,,,,,,,,,1055,2019_Mar_13_1243,mf_amp_cond1,3.0.4,59.988033169196214,
feleological,sickyay,&&&&&&&,None,nonword,,,,,,,0,178,178,178,,,,,,,,,,,,,,,,,,,,,AMP,left,1.9340275394788478,,,left,0,1.9340275394788478,0,,,,,,,,,,,,,,,,,,,,,,1055,2019_Mar_13_1243,mf_amp_cond1,3.0.4,59.988033169196214,
clean,tomedians,&&&&&&&&&,left,sanctity.virtue,,,,,,,0,179,179,179,,,,,,,,,,,,,,,,,,,,,AMP,left,0.8670929230866022,,,left,1,0.8670929230866022,1,,,,,,,,,,,,,,,,,,,,,,1055,2019_Mar_13_1243,mf_amp_cond1,3.0.4,59.988033169196214,
chreams,supervuned,&&&&&&&&&&,None,nonword,,,,,,,0,180,180,180,,,,,,,,,,,,,,,,,,,,,AMP,left,0.6670806074689608,,,left,0,0.6670806074689608,0,,,,,,,,,,,,,,,,,,,,,,1055,2019_Mar_13_1243,mf_amp_cond1,3.0.4,59.988033169196214,
suicide,counpy's,&&&&&&&&,right,care.vice,,,,,,,0,181,181,181,,,,,,,,,,,,,,,,,,,,,AMP,left,0.5336956598330289,,,left,0,0.5336956598330289,0,,,,,,,,,,,,,,,,,,,,,,1055,2019_Mar_13_1243,mf_amp_cond1,3.0.4,59.988033169196214,
riot,gillipede,&&&&&&&&&,right,authority.vice,,,,,,,0,182,182,182,,,,,,,,,,,,,,,,,,,,,AMP,left,0.3501753368473146,,,left,0,0.3501753368473146,0,,,,,,,,,,,,,,,,,,,,,,1055,2019_Mar_13_1243,mf_amp_cond1,3.0.4,59.988033169196214,
fear,dramens,&&&&&&&,right,sanctity.vice,,,,,,,0,183,183,183,,,,,,,,,,,,,,,,,,,,,AMP,left,1.133825294295093,,,left,0,1.133825294295093,0,,,,,,,,,,,,,,,,,,,,,,1055,2019_Mar_13_1243,mf_amp_cond1,3.0.4,59.988033169196214,
safe,Loorish,&&&&&&&,left,care.virtue,,,,,,,0,184,184,184,,,,,,,,,,,,,,,,,,,,,AMP,right,0.4836792711284943,,,right,0,0.4836792711284943,0,,,,,,,,,,,,,,,,,,,,,,1055,2019_Mar_13_1243,mf_amp_cond1,3.0.4,59.988033169196214,
illegal,lachelor,&&&&&&&&,right,fairness.vice,,,,,,,0,185,185,185,,,,,,,,,,,,,,,,,,,,,AMP,left,0.7337923244340345,,,left,0,0.7337923244340345,0,,,,,,,,,,,,,,,,,,,,,,1055,2019_Mar_13_1243,mf_amp_cond1,3.0.4,59.988033169196214,
actively,gusinesslike,&&&&&&&&&&&&,left,authority.virtue,,,,,,,0,186,186,186,,,,,,,,,,,,,,,,,,,,,AMP,left,0.5003543940547388,,,left,1,0.5003543940547388,1,,,,,,,,,,,,,,,,,,,,,,1055,2019_Mar_13_1243,mf_amp_cond1,3.0.4,59.988033169196214,
penalty,precificity,&&&&&&&&&&&,right,authority.vice,,,,,,,0,187,187,187,,,,,,,,,,,,,,,,,,,,,AMP,left,1.567294141947059,,,left,0,1.567294141947059,0,,,,,,,,,,,,,,,,,,,,,,1055,2019_Mar_13_1243,mf_amp_cond1,3.0.4,59.988033169196214,
freedom,tislay,&&&&&&,left,sanctity.virtue,,,,,,,0,188,188,188,,,,,,,,,,,,,,,,,,,,,AMP,left,0.7170729423232842,,,left,1,0.7170729423232842,1,,,,,,,,,,,,,,,,,,,,,,1055,2019_Mar_13_1243,mf_amp_cond1,3.0.4,59.988033169196214,
troops,disregord,&&&&&&&&&,right,loyalty.vice,,,,,,,0,189,189,189,,,,,,,,,,,,,,,,,,,,,AMP,right,4.267937952477951,,,right,1,4.267937952477951,1,,,,,,,,,,,,,,,,,,,,,,1055,2019_Mar_13_1243,mf_amp_cond1,3.0.4,59.988033169196214,
simplustic,troubla,&&&&&&&,None,nonword,,,,,,,0,190,190,190,,,,,,,,,,,,,,,,,,,,,AMP,left,0.6169009729928803,,,left,0,0.6169009729928803,0,,,,,,,,,,,,,,,,,,,,,,1055,2019_Mar_13_1243,mf_amp_cond1,3.0.4,59.988033169196214,
love,pumber,&&&&&&,left,loyalty.virtue,,,,,,,0,191,191,191,,,,,,,,,,,,,,,,,,,,,AMP,right,0.8004145608865656,,,right,0,0.8004145608865656,0,,,,,,,,,,,,,,,,,,,,,,1055,2019_Mar_13_1243,mf_amp_cond1,3.0.4,59.988033169196214,
fair,menizen,&&&&&&&,left,fairness.virtue,,,,,,,0,192,192,192,,,,,,,,,,,,,,,,,,,,,AMP,left,0.6837194892286789,,,left,1,0.6837194892286789,1,,,,,,,,,,,,,,,,,,,,,,1055,2019_Mar_13_1243,mf_amp_cond1,3.0.4,59.988033169196214,
hope,clamorek,&&&&&&&&,left,loyalty.virtue,,,,,,,0,193,193,193,,,,,,,,,,,,,,,,,,,,,AMP,left,0.9170650526357349,,,left,1,0.9170650526357349,1,,,,,,,,,,,,,,,,,,,,,,1055,2019_Mar_13_1243,mf_amp_cond1,3.0.4,59.988033169196214,
promises,Daptist,&&&&&&&,left,fairness.virtue,,,,,,,0,194,194,194,,,,,,,,,,,,,,,,,,,,,AMP,left,0.5170189333148301,,,left,1,0.5170189333148301,1,,,,,,,,,,,,,,,,,,,,,,1055,2019_Mar_13_1243,mf_amp_cond1,3.0.4,59.988033169196214,
ban,coom,&&&&,right,loyalty.vice,,,,,,,0,195,195,195,,,,,,,,,,,,,,,,,,,,,AMP,right,1.0338091942539904,,,right,1,1.0338091942539904,1,,,,,,,,,,,,,,,,,,,,,,1055,2019_Mar_13_1243,mf_amp_cond1,3.0.4,59.988033169196214,
victims,lempestuous,&&&&&&&&&&&,right,care.vice,,,,,,,0,196,196,196,,,,,,,,,,,,,,,,,,,,,AMP,left,0.5503678963286802,,,left,0,0.5503678963286802,0,,,,,,,,,,,,,,,,,,,,,,1055,2019_Mar_13_1243,mf_amp_cond1,3.0.4,59.988033169196214,
conspiracy,openet,&&&&&&,right,sanctity.vice,,,,,,,0,197,197,197,,,,,,,,,,,,,,,,,,,,,AMP,right,0.6503817513585091,,,right,1,0.6503817513585091,1,,,,,,,,,,,,,,,,,,,,,,1055,2019_Mar_13_1243,mf_amp_cond1,3.0.4,59.988033169196214,
ilportation,tenuflect,&&&&&&&&&,None,nonword,,,,,,,0,198,198,198,,,,,,,,,,,,,,,,,,,,,AMP,left,0.9838065963995177,,,left,0,0.9838065963995177,0,,,,,,,,,,,,,,,,,,,,,,1055,2019_Mar_13_1243,mf_amp_cond1,3.0.4,59.988033169196214,
corruption,fegard,&&&&&&,right,sanctity.vice,,,,,,,0,199,199,199,,,,,,,,,,,,,,,,,,,,,AMP,left,0.7337301050429232,,,left,0,0.7337301050429232,0,,,,,,,,,,,,,,,,,,,,,,1055,2019_Mar_13_1243,mf_amp_cond1,3.0.4,59.988033169196214,
shot,prones,&&&&&&,right,care.vice,,,,,,,0,200,200,200,,,,,,,,,,,,,,,,,,,,,AMP,right,0.8171076440776233,,,right,1,0.8171076440776233,1,,,,,,,,,,,,,,,,,,,,,,1055,2019_Mar_13_1243,mf_amp_cond1,3.0.4,59.988033169196214,
hand,tove,&&&&,left,sanctity.virtue,,,,,,,0,201,201,201,,,,,,,,,,,,,,,,,,,,,AMP,right,1.7173077083425596,,,right,0,1.7173077083425596,0,,,,,,,,,,,,,,,,,,,,,,1055,2019_Mar_13_1243,mf_amp_cond1,3.0.4,59.988033169196214,
encourage,sgrawl,&&&&&&,left,authority.virtue,,,,,,,0,202,202,202,,,,,,,,,,,,,,,,,,,,,AMP,left,0.40032289948430844,,,left,1,0.40032289948430844,1,,,,,,,,,,,,,,,,,,,,,,1055,2019_Mar_13_1243,mf_amp_cond1,3.0.4,59.988033169196214,
improve,reelectiob,&&&&&&&&&&,left,care.virtue,,,,,,,0,203,203,203,,,,,,,,,,,,,,,,,,,,,AMP,left,0.8504312703153118,,,left,1,0.8504312703153118,1,,,,,,,,,,,,,,,,,,,,,,1055,2019_Mar_13_1243,mf_amp_cond1,3.0.4,59.988033169196214,
glacenta,dormandi,&&&&&&&&,None,nonword,,,,,,,0,204,204,204,,,,,,,,,,,,,,,,,,,,,AMP,right,1.6339532610145397,,,right,0,1.6339532610145397,0,,,,,,,,,,,,,,,,,,,,,,1055,2019_Mar_13_1243,mf_amp_cond1,3.0.4,59.988033169196214,
strong,totalestic,&&&&&&&&&&,left,loyalty.virtue,,,,,,,0,205,205,205,,,,,,,,,,,,,,,,,,,,,AMP,left,0.8671140905062202,,,left,1,0.8671140905062202,1,,,,,,,,,,,,,,,,,,,,,,1055,2019_Mar_13_1243,mf_amp_cond1,3.0.4,59.988033169196214,
fontacts,sfumatoy,&&&&&&&&,None,nonword,,,,,,,0,206,206,206,,,,,,,,,,,,,,,,,,,,,AMP,left,0.5503492946445476,,,left,0,0.5503492946445476,0,,,,,,,,,,,,,,,,,,,,,,1055,2019_Mar_13_1243,mf_amp_cond1,3.0.4,59.988033169196214,
serial,mecan,&&&&&,right,sanctity.vice,,,,,,,0,207,207,207,,,,,,,,,,,,,,,,,,,,,AMP,left,0.6503798270423431,,,left,0,0.6503798270423431,0,,,,,,,,,,,,,,,,,,,,,,1055,2019_Mar_13_1243,mf_amp_cond1,3.0.4,59.988033169196214,
powerful,refuejing,&&&&&&&&&,left,authority.virtue,,,,,,,0,208,208,208,,,,,,,,,,,,,,,,,,,,,AMP,left,0.667092794785276,,,left,1,0.667092794785276,1,,,,,,,,,,,,,,,,,,,,,,1055,2019_Mar_13_1243,mf_amp_cond1,3.0.4,59.988033169196214,
injured,hatigue,&&&&&&&,right,care.vice,,,,,,,0,209,209,209,,,,,,,,,,,,,,,,,,,,,AMP,left,0.5670497543469537,,,left,0,0.5670497543469537,0,,,,,,,,,,,,,,,,,,,,,,1055,2019_Mar_13_1243,mf_amp_cond1,3.0.4,59.988033169196214,
win,laming,&&&&&&,left,fairness.virtue,,,,,,,0,210,210,210,,,,,,,,,,,,,,,,,,,,,AMP,left,0.8670990167593118,,,left,1,0.8670990167593118,1,,,,,,,,,,,,,,,,,,,,,,1055,2019_Mar_13_1243,mf_amp_cond1,3.0.4,59.988033169196214,
safety,viscs,&&&&&,left,care.virtue,,,,,,,0,211,211,211,,,,,,,,,,,,,,,,,,,,,AMP,right,0.6170837826211937,,,right,0,0.6170837826211937,0,,,,,,,,,,,,,,,,,,,,,,1055,2019_Mar_13_1243,mf_amp_cond1,3.0.4,59.988033169196214,
respect,Boeinf,&&&&&&,left,sanctity.virtue,,,,,,,0,212,212,212,,,,,,,,,,,,,,,,,,,,,AMP,left,0.4003036563808564,,,left,1,0.4003036563808564,1,,,,,,,,,,,,,,,,,,,,,,1055,2019_Mar_13_1243,mf_amp_cond1,3.0.4,59.988033169196214,
drug,photocalkodes,&&&&&&&&&&&&&,right,sanctity.vice,,,,,,,0,213,213,213,,,,,,,,,,,,,,,,,,,,,AMP,left,0.5670180032029748,,,left,0,0.5670180032029748,0,,,,,,,,,,,,,,,,,,,,,,1055,2019_Mar_13_1243,mf_amp_cond1,3.0.4,59.988033169196214,
useful,infet,&&&&&,left,authority.virtue,,,,,,,0,214,214,214,,,,,,,,,,,,,,,,,,,,,AMP,right,1.5005445801944006,,,right,0,1.5005445801944006,0,,,,,,,,,,,,,,,,,,,,,,1055,2019_Mar_13_1243,mf_amp_cond1,3.0.4,59.988033169196214,
killed,faspberry,&&&&&&&&&,right,care.vice,,,,,,,0,215,215,215,,,,,,,,,,,,,,,,,,,,,AMP,left,0.36699670751113445,,,left,0,0.36699670751113445,0,,,,,,,,,,,,,,,,,,,,,,1055,2019_Mar_13_1243,mf_amp_cond1,3.0.4,59.988033169196214,
refused,chressing,&&&&&&&&&,right,authority.vice,,,,,,,0,216,216,216,,,,,,,,,,,,,,,,,,,,,AMP,left,0.4670176183572039,,,left,0,0.4670176183572039,0,,,,,,,,,,,,,,,,,,,,,,1055,2019_Mar_13_1243,mf_amp_cond1,3.0.4,59.988033169196214,
growth,suggists,&&&&&&&&,left,care.virtue,,,,,,,0,217,217,217,,,,,,,,,,,,,,,,,,,,,AMP,right,0.6337675649556331,,,right,0,0.6337675649556331,0,,,,,,,,,,,,,,,,,,,,,,1055,2019_Mar_13_1243,mf_amp_cond1,3.0.4,59.988033169196214,
letish,hasks,&&&&&,None,nonword,,,,,,,0,218,218,218,,,,,,,,,,,,,,,,,,,,,AMP,right,0.5170259891019668,,,right,0,0.5170259891019668,0,,,,,,,,,,,,,,,,,,,,,,1055,2019_Mar_13_1243,mf_amp_cond1,3.0.4,59.988033169196214,
gun,papert,&&&&&&,right,authority.vice,,,,,,,0,219,219,219,,,,,,,,,,,,,,,,,,,,,AMP,left,0.7670755401486531,,,left,0,0.7670755401486531,0,,,,,,,,,,,,,,,,,,,,,,1055,2019_Mar_13_1243,mf_amp_cond1,3.0.4,59.988033169196214,
died,squets,&&&&&&,right,care.vice,,,,,,,0,220,220,220,,,,,,,,,,,,,,,,,,,,,AMP,left,0.5169968037225772,,,left,0,0.5169968037225772,0,,,,,,,,,,,,,,,,,,,,,,1055,2019_Mar_13_1243,mf_amp_cond1,3.0.4,59.988033169196214,
celebrated,idexpressible,&&&&&&&&&&&&&,left,authority.virtue,,,,,,,0,221,221,221,,,,,,,,,,,,,,,,,,,,,AMP,right,0.7503805326414295,,,right,0,0.7503805326414295,0,,,,,,,,,,,,,,,,,,,,,,1055,2019_Mar_13_1243,mf_amp_cond1,3.0.4,59.988033169196214,
accused,ecgagement,&&&&&&&&&&,right,fairness.vice,,,,,,,0,222,222,222,,,,,,,,,,,,,,,,,,,,,AMP,left,0.4670067139377352,,,left,0,0.4670067139377352,0,,,,,,,,,,,,,,,,,,,,,,1055,2019_Mar_13_1243,mf_amp_cond1,3.0.4,59.988033169196214,
war,antral,&&&&&&,right,sanctity.vice,,,,,,,0,223,223,223,,,,,,,,,,,,,,,,,,,,,AMP,left,0.5170224612229504,,,left,0,0.5170224612229504,0,,,,,,,,,,,,,,,,,,,,,,1055,2019_Mar_13_1243,mf_amp_cond1,3.0.4,59.988033169196214,
interests,pescinded,&&&&&&&&&,left,fairness.virtue,,,,,,,0,224,224,224,,,,,,,,,,,,,,,,,,,,,AMP,left,0.2836249413958285,,,left,1,0.2836249413958285,1,,,,,,,,,,,,,,,,,,,,,,1055,2019_Mar_13_1243,mf_amp_cond1,3.0.4,59.988033169196214,
gikely,pistraught,&&&&&&&&&&,None,nonword,,,,,,,0,225,225,225,,,,,,,,,,,,,,,,,,,,,AMP,left,0.28363135576364584,,,left,0,0.28363135576364584,0,,,,,,,,,,,,,,,,,,,,,,1055,2019_Mar_13_1243,mf_amp_cond1,3.0.4,59.988033169196214,
erks,honstables,&&&&&&&&&&,None,nonword,,,,,,,0,226,226,226,,,,,,,,,,,,,,,,,,,,,AMP,left,0.4503312702581752,,,left,0,0.4503312702581752,0,,,,,,,,,,,,,,,,,,,,,,1055,2019_Mar_13_1243,mf_amp_cond1,3.0.4,59.988033169196214,
crime,asn,&&&,right,fairness.vice,,,,,,,0,227,227,227,,,,,,,,,,,,,,,,,,,,,AMP,left,0.567017682507867,,,left,0,0.567017682507867,0,,,,,,,,,,,,,,,,,,,,,,1055,2019_Mar_13_1243,mf_amp_cond1,3.0.4,59.988033169196214,
restore,uller,&&&&&,left,care.virtue,,,,,,,0,228,228,228,,,,,,,,,,,,,,,,,,,,,AMP,left,0.15025218104710802,,,left,1,0.15025218104710802,1,,,,,,,,,,,,,,,,,,,,,,1055,2019_Mar_13_1243,mf_amp_cond1,3.0.4,59.988033169196214,
pleasant,presentkess,&&&&&&&&&&&,None,control,,,,,,,0,229,229,229,,,,,,,,,,,,,,,,,,,,,AMP,right,0.7337285014218651,,,right,0,0.7337285014218651,0,,,,,,,,,,,,,,,,,,,,,,1055,2019_Mar_13_1243,mf_amp_cond1,3.0.4,59.988033169196214,
army,wonderfujnoss,&&&&&&&&&&&&&,right,loyalty.vice,,,,,,,0,230,230,230,,,,,,,,,,,,,,,,,,,,,AMP,right,0.9003164851455949,,,right,1,0.9003164851455949,1,,,,,,,,,,,,,,,,,,,,,,1055,2019_Mar_13_1243,mf_amp_cond1,3.0.4,59.988033169196214,
progress,fornicalion,&&&&&&&&&&&,left,authority.virtue,,,,,,,0,231,231,231,,,,,,,,,,,,,,,,,,,,,AMP,left,0.6337290787196252,,,left,1,0.6337290787196252,1,,,,,,,,,,,,,,,,,,,,,,1055,2019_Mar_13_1243,mf_amp_cond1,3.0.4,59.988033169196214,
promised,emassion,&&&&&&&&,left,loyalty.virtue,,,,,,,0,232,232,232,,,,,,,,,,,,,,,,,,,,,AMP,right,0.7504199810500722,,,right,0,0.7504199810500722,0,,,,,,,,,,,,,,,,,,,,,,1055,2019_Mar_13_1243,mf_amp_cond1,3.0.4,59.988033169196214,
officers,unreflectuve,&&&&&&&&&&&&,right,authority.vice,,,,,,,0,233,233,233,,,,,,,,,,,,,,,,,,,,,AMP,right,0.6503820720827207,,,right,1,0.6503820720827207,1,,,,,,,,,,,,,,,,,,,,,,1055,2019_Mar_13_1243,mf_amp_cond1,3.0.4,59.988033169196214,
sharing,epigrach,&&&&&&&&,left,loyalty.virtue,,,,,,,0,234,234,234,,,,,,,,,,,,,,,,,,,,,AMP,left,0.7503988136013504,,,left,1,0.7503988136013504,1,,,,,,,,,,,,,,,,,,,,,,1055,2019_Mar_13_1243,mf_amp_cond1,3.0.4,59.988033169196214,
violations,iptervention,&&&&&&&&&&&&,right,sanctity.vice,,,,,,,0,235,235,235,,,,,,,,,,,,,,,,,,,,,AMP,left,2.3841387967404444,,,left,0,2.3841387967404444,0,,,,,,,,,,,,,,,,,,,,,,1055,2019_Mar_13_1243,mf_amp_cond1,3.0.4,59.988033169196214,
benefit,fostet,&&&&&&,left,fairness.virtue,,,,,,,0,236,236,236,,,,,,,,,,,,,,,,,,,,,AMP,right,0.9171061046072282,,,right,0,0.9171061046072282,0,,,,,,,,,,,,,,,,,,,,,,1055,2019_Mar_13_1243,mf_amp_cond1,3.0.4,59.988033169196214,
ability,ablow,&&&&&,left,authority.virtue,,,,,,,0,237,237,237,,,,,,,,,,,,,,,,,,,,,AMP,left,0.41699513600906357,,,left,1,0.41699513600906357,1,,,,,,,,,,,,,,,,,,,,,,1055,2019_Mar_13_1243,mf_amp_cond1,3.0.4,59.988033169196214,
faith,baklara,&&&&&&&,left,sanctity.virtue,,,,,,,0,238,238,238,,,,,,,,,,,,,,,,,,,,,AMP,left,0.35027764609549195,,,left,1,0.35027764609549195,1,,,,,,,,,,,,,,,,,,,,,,1055,2019_Mar_13_1243,mf_amp_cond1,3.0.4,59.988033169196214,
intelligence,proached,&&&&&&&&,left,loyalty.virtue,,,,,,,0,239,239,239,,,,,,,,,,,,,,,,,,,,,AMP,right,0.7837638125347439,,,right,0,0.7837638125347439,0,,,,,,,,,,,,,,,,,,,,,,1055,2019_Mar_13_1243,mf_amp_cond1,3.0.4,59.988033169196214,
party,dumid,&&&&&,left,loyalty.virtue,,,,,,,0,240,240,240,,,,,,,,,,,,,,,,,,,,,AMP,right,0.5836924847098999,,,right,0,0.5836924847098999,0,,,,,,,,,,,,,,,,,,,,,,1055,2019_Mar_13_1243,mf_amp_cond1,3.0.4,59.988033169196214,
integrity,vicissifude,&&&&&&&&&&&,left,fairness.virtue,,,,,,,0,241,241,241,,,,,,,,,,,,,,,,,,,,,AMP,right,0.3001602310105227,,,right,0,0.3001602310105227,0,,,,,,,,,,,,,,,,,,,,,,1055,2019_Mar_13_1243,mf_amp_cond1,3.0.4,59.988033169196214,
terrorists,rivernoat,&&&&&&&&&,right,fairness.vice,,,,,,,0,242,242,242,,,,,,,,,,,,,,,,,,,,,AMP,left,0.5170080288662575,,,left,0,0.5170080288662575,0,,,,,,,,,,,,,,,,,,,,,,1055,2019_Mar_13_1243,mf_amp_cond1,3.0.4,59.988033169196214,
rejected,lursuer,&&&&&&&,right,authority.vice,,,,,,,0,243,243,243,,,,,,,,,,,,,,,,,,,,,AMP,left,0.40031007074867375,,,left,0,0.40031007074867375,0,,,,,,,,,,,,,,,,,,,,,,1055,2019_Mar_13_1243,mf_amp_cond1,3.0.4,59.988033169196214,
critics,mightingale,&&&&&&&&&&&,right,loyalty.vice,,,,,,,0,244,244,244,,,,,,,,,,,,,,,,,,,,,AMP,left,0.6170343919366132,,,left,0,0.6170343919366132,0,,,,,,,,,,,,,,,,,,,,,,1055,2019_Mar_13_1243,mf_amp_cond1,3.0.4,59.988033169196214,
blamed,wump,&&&&,right,loyalty.vice,,,,,,,0,245,245,245,,,,,,,,,,,,,,,,,,,,,AMP,right,1.5673024806310423,,,right,1,1.5673024806310423,1,,,,,,,,,,,,,,,,,,,,,,1055,2019_Mar_13_1243,mf_amp_cond1,3.0.4,59.988033169196214,
illegal,godlaness,&&&&&&&&&,right,fairness.vice,,,,,,,0,246,246,246,,,,,,,,,,,,,,,,,,,,,AMP,right,0.333660573232919,,,right,1,0.333660573232919,1,,,,,,,,,,,,,,,,,,,,,,1055,2019_Mar_13_1243,mf_amp_cond1,3.0.4,59.988033169196214,
fontacts,honstables,&&&&&&&&&&,None,nonword,,,,,,,0,247,247,247,,,,,,,,,,,,,,,,,,,,,AMP,right,0.6837175649416167,,,right,0,0.6837175649416167,0,,,,,,,,,,,,,,,,,,,,,,1055,2019_Mar_13_1243,mf_amp_cond1,3.0.4,59.988033169196214,
conspiracy,mecan,&&&&&,right,sanctity.vice,,,,,,,0,248,248,248,,,,,,,,,,,,,,,,,,,,,AMP,left,0.8504389675799757,,,left,0,0.8504389675799757,0,,,,,,,,,,,,,,,,,,,,,,1055,2019_Mar_13_1243,mf_amp_cond1,3.0.4,59.988033169196214,
unpleasant,atson,&&&&&,None,control,,,,,,,0,249,249,249,,,,,,,,,,,,,,,,,,,,,AMP,left,2.767577785474714,,,left,0,2.767577785474714,0,,,,,,,,,,,,,,,,,,,,,,1055,2019_Mar_13_1243,mf_amp_cond1,3.0.4,59.988033169196214,
critics,fegard,&&&&&&,right,loyalty.vice,,,,,,,0,250,250,250,,,,,,,,,,,,,,,,,,,,,AMP,left,0.6003842850623187,,,left,0,0.6003842850623187,0,,,,,,,,,,,,,,,,,,,,,,1055,2019_Mar_13_1243,mf_amp_cond1,3.0.4,59.988033169196214,
actively,squets,&&&&&&,left,authority.virtue,,,,,,,0,251,251,251,,,,,,,,,,,,,,,,,,,,,AMP,left,1.6172742894559633,,,left,1,1.6172742894559633,1,,,,,,,,,,,,,,,,,,,,,,1055,2019_Mar_13_1243,mf_amp_cond1,3.0.4,59.988033169196214,
fraud,festate,&&&&&&&,right,fairness.vice,,,,,,,0,252,252,252,,,,,,,,,,,,,,,,,,,,,AMP,left,0.633710156311281,,,left,0,0.633710156311281,0,,,,,,,,,,,,,,,,,,,,,,1055,2019_Mar_13_1243,mf_amp_cond1,3.0.4,59.988033169196214,
forced,lursuer,&&&&&&&,right,fairness.vice,,,,,,,0,253,253,253,,,,,,,,,,,,,,,,,,,,,AMP,left,0.6170247703848872,,,left,0,0.6170247703848872,0,,,,,,,,,,,,,,,,,,,,,,1055,2019_Mar_13_1243,mf_amp_cond1,3.0.4,59.988033169196214,
erks,epigrach,&&&&&&&&,None,nonword,,,,,,,0,254,254,254,,,,,,,,,,,,,,,,,,,,,AMP,left,0.500373316463083,,,left,0,0.500373316463083,0,,,,,,,,,,,,,,,,,,,,,,1055,2019_Mar_13_1243,mf_amp_cond1,3.0.4,59.988033169196214,
useful,iptervention,&&&&&&&&&&&&,left,authority.virtue,,,,,,,0,255,255,255,,,,,,,,,,,,,,,,,,,,,AMP,right,0.850480019551469,,,right,0,0.850480019551469,0,,,,,,,,,,,,,,,,,,,,,,1055,2019_Mar_13_1243,mf_amp_cond1,3.0.4,59.988033169196214,
opportunity,prones,&&&&&&,left,fairness.virtue,,,,,,,0,256,256,256,,,,,,,,,,,,,,,,,,,,,AMP,right,0.7670723329356406,,,right,0,0.7670723329356406,0,,,,,,,,,,,,,,,,,,,,,,1055,2019_Mar_13_1243,mf_amp_cond1,3.0.4,59.988033169196214,
health,suggists,&&&&&&&&,left,care.virtue,,,,,,,0,257,257,257,,,,,,,,,,,,,,,,,,,,,AMP,left,1.6839734983805101,,,left,1,1.6839734983805101,1,,,,,,,,,,,,,,,,,,,,,,1055,2019_Mar_13_1243,mf_amp_cond1,3.0.4,59.988033169196214,
officers,antral,&&&&&&,right,authority.vice,,,,,,,0,258,258,258,,,,,,,,,,,,,,,,,,,,,AMP,left,3.1342784697189927,,,left,0,3.1342784697189927,0,,,,,,,,,,,,,,,,,,,,,,1055,2019_Mar_13_1243,mf_amp_cond1,3.0.4,59.988033169196214,
interests,Loorish,&&&&&&&,left,fairness.virtue,,,,,,,0,259,259,259,,,,,,,,,,,,,,,,,,,,,AMP,left,0.7837638125638478,,,left,1,0.7837638125638478,1,,,,,,,,,,,,,,,,,,,,,,1055,2019_Mar_13_1243,mf_amp_cond1,3.0.4,59.988033169196214,
terrorists,photocalkodes,&&&&&&&&&&&&&,right,fairness.vice,,,,,,,0,260,260,260,,,,,,,,,,,,,,,,,,,,,AMP,left,0.8337763526360504,,,left,0,0.8337763526360504,0,,,,,,,,,,,,,,,,,,,,,,1055,2019_Mar_13_1243,mf_amp_cond1,3.0.4,59.988033169196214,
respect,coom,&&&&,left,sanctity.virtue,,,,,,,0,261,261,261,,,,,,,,,,,,,,,,,,,,,AMP,left,0.6336979690240696,,,left,1,0.6336979690240696,1,,,,,,,,,,,,,,,,,,,,,,1055,2019_Mar_13_1243,mf_amp_cond1,3.0.4,59.988033169196214,
powerful,ecgagement,&&&&&&&&&&,left,authority.virtue,,,,,,,0,262,262,262,,,,,,,,,,,,,,,,,,,,,AMP,left,0.8504274217120837,,,left,1,0.8504274217120837,1,,,,,,,,,,,,,,,,,,,,,,1055,2019_Mar_13_1243,mf_amp_cond1,3.0.4,59.988033169196214,
civilians,tomedians,&&&&&&&&&,right,care.vice,,,,,,,0,263,263,263,,,,,,,,,,,,,,,,,,,,,AMP,left,2.0173726859502494,,,left,0,2.0173726859502494,0,,,,,,,,,,,,,,,,,,,,,,1055,2019_Mar_13_1243,mf_amp_cond1,3.0.4,59.988033169196214,
hand,rorroborated,&&&&&&&&&&&&,left,sanctity.virtue,,,,,,,0,264,264,264,,,,,,,,,,,,,,,,,,,,,AMP,left,0.6503756577149034,,,left,1,0.6503756577149034,1,,,,,,,,,,,,,,,,,,,,,,1055,2019_Mar_13_1243,mf_amp_cond1,3.0.4,59.988033169196214,
blamed,fostet,&&&&&&,right,loyalty.vice,,,,,,,0,265,265,265,,,,,,,,,,,,,,,,,,,,,AMP,left,0.5003441310836934,,,left,0,0.5003441310836934,0,,,,,,,,,,,,,,,,,,,,,,1055,2019_Mar_13_1243,mf_amp_cond1,3.0.4,59.988033169196214,
grovelire,hasks,&&&&&,None,nonword,,,,,,,0,266,266,266,,,,,,,,,,,,,,,,,,,,,AMP,right,0.5170202161825728,,,right,0,0.5170202161825728,0,,,,,,,,,,,,,,,,,,,,,,1055,2019_Mar_13_1243,mf_amp_cond1,3.0.4,59.988033169196214,
hope,menizen,&&&&&&&,left,loyalty.virtue,,,,,,,0,267,267,267,,,,,,,,,,,,,,,,,,,,,AMP,left,0.7337406887381803,,,left,1,0.7337406887381803,1,,,,,,,,,,,,,,,,,,,,,,1055,2019_Mar_13_1243,mf_amp_cond1,3.0.4,59.988033169196214,
sharing,openet,&&&&&&,left,loyalty.virtue,,,,,,,0,268,268,268,,,,,,,,,,,,,,,,,,,,,AMP,right,0.9837998613365926,,,right,0,0.9837998613365926,0,,,,,,,,,,,,,,,,,,,,,,1055,2019_Mar_13_1243,mf_amp_cond1,3.0.4,59.988033169196214,
chreams,bycled,&&&&&&,None,nonword,,,,,,,0,269,269,269,,,,,,,,,,,,,,,,,,,,,AMP,right,0.7337336329219397,,,right,0,0.7337336329219397,0,,,,,,,,,,,,,,,,,,,,,,1055,2019_Mar_13_1243,mf_amp_cond1,3.0.4,59.988033169196214,
celebrated,sgrawl,&&&&&&,left,authority.virtue,,,,,,,0,270,270,270,,,,,,,,,,,,,,,,,,,,,AMP,left,0.4003209751972463,,,left,1,0.4003209751972463,1,,,,,,,,,,,,,,,,,,,,,,1055,2019_Mar_13_1243,mf_amp_cond1,3.0.4,59.988033169196214,
shot,nuckheap,&&&&&&&&,right,care.vice,,,,,,,0,271,271,271,,,,,,,,,,,,,,,,,,,,,AMP,left,1.1338005989673547,,,left,0,1.1338005989673547,0,,,,,,,,,,,,,,,,,,,,,,1055,2019_Mar_13_1243,mf_amp_cond1,3.0.4,59.988033169196214,
gikely,wump,&&&&,None,nonword,,,,,,,0,272,272,272,,,,,,,,,,,,,,,,,,,,,AMP,left,0.4169932116637938,,,left,0,0.4169932116637938,0,,,,,,,,,,,,,,,,,,,,,,1055,2019_Mar_13_1243,mf_amp_cond1,3.0.4,59.988033169196214,
ban,proached,&&&&&&&&,right,loyalty.vice,,,,,,,0,273,273,273,,,,,,,,,,,,,,,,,,,,,AMP,right,0.9004627328249626,,,right,1,0.9004627328249626,1,,,,,,,,,,,,,,,,,,,,,,1055,2019_Mar_13_1243,mf_amp_cond1,3.0.4,59.988033169196214,
refused,lachelor,&&&&&&&&,right,authority.vice,,,,,,,0,274,274,274,,,,,,,,,,,,,,,,,,,,,AMP,right,0.8671605947311036,,,right,1,0.8671605947311036,1,,,,,,,,,,,,,,,,,,,,,,1055,2019_Mar_13_1243,mf_amp_cond1,3.0.4,59.988033169196214,
ability,viscs,&&&&&,left,authority.virtue,,,,,,,0,275,275,275,,,,,,,,,,,,,,,,,,,,,AMP,left,0.7670729743840639,,,left,1,0.7670729743840639,1,,,,,,,,,,,,,,,,,,,,,,1055,2019_Mar_13_1243,mf_amp_cond1,3.0.4,59.988033169196214,
safe,troubla,&&&&&&&,left,care.virtue,,,,,,,0,276,276,276,,,,,,,,,,,,,,,,,,,,,AMP,left,0.35029720995225944,,,left,1,0.35029720995225944,1,,,,,,,,,,,,,,,,,,,,,,1055,2019_Mar_13_1243,mf_amp_cond1,3.0.4,59.988033169196214,
victims,baklara,&&&&&&&,right,care.vice,,,,,,,0,277,277,277,,,,,,,,,,,,,,,,,,,,,AMP,left,0.9337825104594231,,,left,0,0.9337825104594231,0,,,,,,,,,,,,,,,,,,,,,,1055,2019_Mar_13_1243,mf_amp_cond1,3.0.4,59.988033169196214,
strong,sfumatoy,&&&&&&&&,left,loyalty.virtue,,,,,,,0,278,278,278,,,,,,,,,,,,,,,,,,,,,AMP,right,0.783750342350686,,,right,0,0.783750342350686,0,,,,,,,,,,,,,,,,,,,,,,1055,2019_Mar_13_1243,mf_amp_cond1,3.0.4,59.988033169196214,
fair,wonderfujnoss,&&&&&&&&&&&&&,left,fairness.virtue,,,,,,,0,279,279,279,,,,,,,,,,,,,,,,,,,,,AMP,right,0.9837918433768209,,,right,0,0.9837918433768209,0,,,,,,,,,,,,,,,,,,,,,,1055,2019_Mar_13_1243,mf_amp_cond1,3.0.4,59.988033169196214,
clean,shoirmaster,&&&&&&&&&&&,left,sanctity.virtue,,,,,,,0,280,280,280,,,,,,,,,,,,,,,,,,,,,AMP,right,0.5336959805572405,,,right,0,0.5336959805572405,0,,,,,,,,,,,,,,,,,,,,,,1055,2019_Mar_13_1243,mf_amp_cond1,3.0.4,59.988033169196214,
army,drumbled,&&&&&&&&,right,loyalty.vice,,,,,,,0,281,281,281,,,,,,,,,,,,,,,,,,,,,AMP,right,0.5170144432631787,,,right,1,0.5170144432631787,1,,,,,,,,,,,,,,,,,,,,,,1055,2019_Mar_13_1243,mf_amp_cond1,3.0.4,59.988033169196214,
fear,lempestuous,&&&&&&&&&&&,right,sanctity.vice,,,,,,,0,282,282,282,,,,,,,,,,,,,,,,,,,,,AMP,left,0.5170141225389671,,,left,0,0.5170141225389671,0,,,,,,,,,,,,,,,,,,,,,,1055,2019_Mar_13_1243,mf_amp_cond1,3.0.4,59.988033169196214,
strength,halaise,&&&&&&&,left,sanctity.virtue,,,,,,,0,283,283,283,,,,,,,,,,,,,,,,,,,,,AMP,left,0.9004178322211374,,,left,1,0.9004178322211374,1,,,,,,,,,,,,,,,,,,,,,,1055,2019_Mar_13_1243,mf_amp_cond1,3.0.4,59.988033169196214,
killed,reelectiob,&&&&&&&&&&,right,care.vice,,,,,,,0,284,284,284,,,,,,,,,,,,,,,,,,,,,AMP,left,0.45036943576997146,,,left,0,0.45036943576997146,0,,,,,,,,,,,,,,,,,,,,,,1055,2019_Mar_13_1243,mf_amp_cond1,3.0.4,59.988033169196214,
benefit,clamorek,&&&&&&&&,left,fairness.virtue,,,,,,,0,285,285,285,,,,,,,,,,,,,,,,,,,,,AMP,left,0.40032546524889767,,,left,1,0.40032546524889767,1,,,,,,,,,,,,,,,,,,,,,,1055,2019_Mar_13_1243,mf_amp_cond1,3.0.4,59.988033169196214,
ilportation,dormandi,&&&&&&&&,None,nonword,,,,,,,0,286,286,286,,,,,,,,,,,,,,,,,,,,,AMP,left,0.33362753922119737,,,left,0,0.33362753922119737,0,,,,,,,,,,,,,,,,,,,,,,1055,2019_Mar_13_1243,mf_amp_cond1,3.0.4,59.988033169196214,
accused,esquisiteness,&&&&&&&&&&&&&,right,fairness.vice,,,,,,,0,287,287,287,,,,,,,,,,,,,,,,,,,,,AMP,left,0.4003190508519765,,,left,0,0.4003190508519765,0,,,,,,,,,,,,,,,,,,,,,,1055,2019_Mar_13_1243,mf_amp_cond1,3.0.4,59.988033169196214,
pleasant,quarterbocks,&&&&&&&&&&&&,None,control,,,,,,,0,288,288,288,,,,,,,,,,,,,,,,,,,,,AMP,right,0.3503180566476658,,,right,0,0.3503180566476658,0,,,,,,,,,,,,,,,,,,,,,,1055,2019_Mar_13_1243,mf_amp_cond1,3.0.4,59.988033169196214,
glacenta,uller,&&&&&,None,nonword,,,,,,,0,289,289,289,,,,,,,,,,,,,,,,,,,,,AMP,left,0.33362882208894007,,,left,0,0.33362882208894007,0,,,,,,,,,,,,,,,,,,,,,,1055,2019_Mar_13_1243,mf_amp_cond1,3.0.4,59.988033169196214,
suicide,dumid,&&&&&,right,care.vice,,,,,,,0,290,290,290,,,,,,,,,,,,,,,,,,,,,AMP,left,0.4836927412834484,,,left,0,0.4836927412834484,0,,,,,,,,,,,,,,,,,,,,,,1055,2019_Mar_13_1243,mf_amp_cond1,3.0.4,59.988033169196214,
commitment,rivernoat,&&&&&&&&&,left,sanctity.virtue,,,,,,,0,291,291,291,,,,,,,,,,,,,,,,,,,,,AMP,left,0.4170211142045446,,,left,1,0.4170211142045446,1,,,,,,,,,,,,,,,,,,,,,,1055,2019_Mar_13_1243,mf_amp_cond1,3.0.4,59.988033169196214,
rejected,tenuflect,&&&&&&&&&,right,authority.vice,,,,,,,0,292,292,292,,,,,,,,,,,,,,,,,,,,,AMP,left,0.5503656512883026,,,left,0,0.5503656512883026,0,,,,,,,,,,,,,,,,,,,,,,1055,2019_Mar_13_1243,mf_amp_cond1,3.0.4,59.988033169196214,
promised,thadowed,&&&&&&&&,left,loyalty.virtue,,,,,,,0,293,293,293,,,,,,,,,,,,,,,,,,,,,AMP,left,0.48360518511617556,,,left,1,0.48360518511617556,1,,,,,,,,,,,,,,,,,,,,,,1055,2019_Mar_13_1243,mf_amp_cond1,3.0.4,59.988033169196214,
simplustic,totalestic,&&&&&&&&&&,None,nonword,,,,,,,0,294,294,294,,,,,,,,,,,,,,,,,,,,,AMP,left,0.38364489006926306,,,left,0,0.38364489006926306,0,,,,,,,,,,,,,,,,,,,,,,1055,2019_Mar_13_1243,mf_amp_cond1,3.0.4,59.988033169196214,
arrests,gillipede,&&&&&&&&&,right,authority.vice,,,,,,,0,295,295,295,,,,,,,,,,,,,,,,,,,,,AMP,left,0.650369243347086,,,left,0,0.650369243347086,0,,,,,,,,,,,,,,,,,,,,,,1055,2019_Mar_13_1243,mf_amp_cond1,3.0.4,59.988033169196214,
serial,pistraught,&&&&&&&&&&,right,sanctity.vice,,,,,,,0,296,296,296,,,,,,,,,,,,,,,,,,,,,AMP,right,0.4169960981234908,,,right,1,0.4169960981234908,1,,,,,,,,,,,,,,,,,,,,,,1055,2019_Mar_13_1243,mf_amp_cond1,3.0.4,59.988033169196214,
party,unreflectuve,&&&&&&&&&&&&,left,loyalty.virtue,,,,,,,0,297,297,297,,,,,,,,,,,,,,,,,,,,,AMP,left,0.5003293780318927,,,left,1,0.5003293780318927,1,,,,,,,,,,,,,,,,,,,,,,1055,2019_Mar_13_1243,mf_amp_cond1,3.0.4,59.988033169196214,
crime,pescinded,&&&&&&&&&,right,fairness.vice,,,,,,,0,298,298,298,,,,,,,,,,,,,,,,,,,,,AMP,left,0.3836545116500929,,,left,0,0.3836545116500929,0,,,,,,,,,,,,,,,,,,,,,,1055,2019_Mar_13_1243,mf_amp_cond1,3.0.4,59.988033169196214,
progress,tove,&&&&,left,authority.virtue,,,,,,,0,299,299,299,,,,,,,,,,,,,,,,,,,,,AMP,right,0.25030644665821455,,,right,0,0.25030644665821455,0,,,,,,,,,,,,,,,,,,,,,,1055,2019_Mar_13_1243,mf_amp_cond1,3.0.4,59.988033169196214,
groups,vicissifude,&&&&&&&&&&&,right,loyalty.vice,,,,,,,0,300,300,300,,,,,,,,,,,,,,,,,,,,,AMP,left,0.4503322324308101,,,left,0,0.4503322324308101,0,,,,,,,,,,,,,,,,,,,,,,1055,2019_Mar_13_1243,mf_amp_cond1,3.0.4,59.988033169196214,
violations,papert,&&&&&&,right,sanctity.vice,,,,,,,0,301,301,301,,,,,,,,,,,,,,,,,,,,,AMP,left,0.40031969230039977,,,left,0,0.40031969230039977,0,,,,,,,,,,,,,,,,,,,,,,1055,2019_Mar_13_1243,mf_amp_cond1,3.0.4,59.988033169196214,
letish,emassion,&&&&&&&&,None,nonword,,,,,,,0,302,302,302,,,,,,,,,,,,,,,,,,,,,AMP,left,0.6504102953185793,,,left,0,0.6504102953185793,0,,,,,,,,,,,,,,,,,,,,,,1055,2019_Mar_13_1243,mf_amp_cond1,3.0.4,59.988033169196214,
restore,presentkess,&&&&&&&&&&&,left,care.virtue,,,,,,,0,303,303,303,,,,,,,,,,,,,,,,,,,,,AMP,left,0.3336445373133756,,,left,1,0.3336445373133756,1,,,,,,,,,,,,,,,,,,,,,,1055,2019_Mar_13_1243,mf_amp_cond1,3.0.4,59.988033169196214,
integrity,asn,&&&,left,fairness.virtue,,,,,,,0,304,304,304,,,,,,,,,,,,,,,,,,,,,AMP,left,1.2338583924574777,,,left,1,1.2338583924574777,1,,,,,,,,,,,,,,,,,,,,,,1055,2019_Mar_13_1243,mf_amp_cond1,3.0.4,59.988033169196214,
safety,dramens,&&&&&&&,left,care.virtue,,,,,,,0,305,305,305,,,,,,,,,,,,,,,,,,,,,AMP,left,1.1838516253046691,,,left,1,1.1838516253046691,1,,,,,,,,,,,,,,,,,,,,,,1055,2019_Mar_13_1243,mf_amp_cond1,3.0.4,59.988033169196214,
freedom,tislay,&&&&&&,left,sanctity.virtue,,,,,,,0,306,306,306,,,,,,,,,,,,,,,,,,,,,AMP,left,2.034043639549054,,,left,1,2.034043639549054,1,,,,,,,,,,,,,,,,,,,,,,1055,2019_Mar_13_1243,mf_amp_cond1,3.0.4,59.988033169196214,
win,scock,&&&&&,left,fairness.virtue,,,,,,,0,307,307,307,,,,,,,,,,,,,,,,,,,,,AMP,left,0.5837001819745637,,,left,1,0.5837001819745637,1,,,,,,,,,,,,,,,,,,,,,,1055,2019_Mar_13_1243,mf_amp_cond1,3.0.4,59.988033169196214,
corruption,supervuned,&&&&&&&&&&,right,sanctity.vice,,,,,,,0,308,308,308,,,,,,,,,,,,,,,,,,,,,AMP,left,0.4003103914728854,,,left,0,0.4003103914728854,0,,,,,,,,,,,,,,,,,,,,,,1055,2019_Mar_13_1243,mf_amp_cond1,3.0.4,59.988033169196214,
troops,infet,&&&&&,right,loyalty.vice,,,,,,,0,309,309,309,,,,,,,,,,,,,,,,,,,,,AMP,left,0.38352590348222293,,,left,0,0.38352590348222293,0,,,,,,,,,,,,,,,,,,,,,,1055,2019_Mar_13_1243,mf_amp_cond1,3.0.4,59.988033169196214,
injured,gusinesslike,&&&&&&&&&&&&,right,care.vice,,,,,,,0,310,310,310,,,,,,,,,,,,,,,,,,,,,AMP,left,0.38365354950656183,,,left,0,0.38365354950656183,0,,,,,,,,,,,,,,,,,,,,,,1055,2019_Mar_13_1243,mf_amp_cond1,3.0.4,59.988033169196214,
encourage,idexpressible,&&&&&&&&&&&&&,left,authority.virtue,,,,,,,0,311,311,311,,,,,,,,,,,,,,,,,,,,,AMP,left,0.6002434895781334,,,left,1,0.6002434895781334,1,,,,,,,,,,,,,,,,,,,,,,1055,2019_Mar_13_1243,mf_amp_cond1,3.0.4,59.988033169196214,
died,fornicalion,&&&&&&&&&&&,right,care.vice,,,,,,,0,312,312,312,,,,,,,,,,,,,,,,,,,,,AMP,left,0.3669716914591845,,,left,0,0.3669716914591845,0,,,,,,,,,,,,,,,,,,,,,,1055,2019_Mar_13_1243,mf_amp_cond1,3.0.4,59.988033169196214,
care,laming,&&&&&&,left,care.virtue,,,,,,,0,313,313,313,,,,,,,,,,,,,,,,,,,,,AMP,left,1.0004602312110364,,,left,1,1.0004602312110364,1,,,,,,,,,,,,,,,,,,,,,,1055,2019_Mar_13_1243,mf_amp_cond1,3.0.4,59.988033169196214,
promises,disregord,&&&&&&&&&,left,fairness.virtue,,,,,,,0,314,314,314,,,,,,,,,,,,,,,,,,,,,AMP,left,1.2505309496773407,,,left,1,1.2505309496773407,1,,,,,,,,,,,,,,,,,,,,,,1055,2019_Mar_13_1243,mf_amp_cond1,3.0.4,59.988033169196214,
gun,counpy's,&&&&&&&&,right,authority.vice,,,,,,,0,315,315,315,,,,,,,,,,,,,,,,,,,,,AMP,left,0.4170028332155198,,,left,0,0.4170028332155198,0,,,,,,,,,,,,,,,,,,,,,,1055,2019_Mar_13_1243,mf_amp_cond1,3.0.4,59.988033169196214,
growth,refuejing,&&&&&&&&&,left,care.virtue,,,,,,,0,316,316,316,,,,,,,,,,,,,,,,,,,,,AMP,left,0.9171154054638464,,,left,1,0.9171154054638464,1,,,,,,,,,,,,,,,,,,,,,,1055,2019_Mar_13_1243,mf_amp_cond1,3.0.4,59.988033169196214,
faith,Boeinf,&&&&&&,left,sanctity.virtue,,,,,,,0,317,317,317,,,,,,,,,,,,,,,,,,,,,AMP,left,0.3336419715487864,,,left,1,0.3336419715487864,1,,,,,,,,,,,,,,,,,,,,,,1055,2019_Mar_13_1243,mf_amp_cond1,3.0.4,59.988033169196214,
intelligence,pumber,&&&&&&,left,loyalty.virtue,,,,,,,0,318,318,318,,,,,,,,,,,,,,,,,,,,,AMP,left,0.5336972634249832,,,left,1,0.5336972634249832,1,,,,,,,,,,,,,,,,,,,,,,1055,2019_Mar_13_1243,mf_amp_cond1,3.0.4,59.988033169196214,
terrorist,frojecting,&&&&&&&&&&,right,loyalty.vice,,,,,,,0,319,319,319,,,,,,,,,,,,,,,,,,,,,AMP,left,0.40031712656491436,,,left,0,0.40031712656491436,0,,,,,,,,,,,,,,,,,,,,,,1055,2019_Mar_13_1243,mf_amp_cond1,3.0.4,59.988033169196214,
improve,mightingale,&&&&&&&&&&&,left,care.virtue,,,,,,,0,320,320,320,,,,,,,,,,,,,,,,,,,,,AMP,right,0.41697653429582715,,,right,0,0.41697653429582715,0,,,,,,,,,,,,,,,,,,,,,,1055,2019_Mar_13_1243,mf_amp_cond1,3.0.4,59.988033169196214,
war,chressing,&&&&&&&&&,right,sanctity.vice,,,,,,,0,321,321,321,,,,,,,,,,,,,,,,,,,,,AMP,left,0.41698583512334153,,,left,0,0.41698583512334153,0,,,,,,,,,,,,,,,,,,,,,,1055,2019_Mar_13_1243,mf_amp_cond1,3.0.4,59.988033169196214,
love,hatigue,&&&&&&&,left,loyalty.virtue,,,,,,,0,322,322,322,,,,,,,,,,,,,,,,,,,,,AMP,left,0.56703019051929,,,left,1,0.56703019051929,1,,,,,,,,,,,,,,,,,,,,,,1055,2019_Mar_13_1243,mf_amp_cond1,3.0.4,59.988033169196214,
drug,Daptist,&&&&&&&,right,sanctity.vice,,,,,,,0,323,323,323,,,,,,,,,,,,,,,,,,,,,AMP,left,0.6337124013516586,,,left,0,0.6337124013516586,0,,,,,,,,,,,,,,,,,,,,,,1055,2019_Mar_13_1243,mf_amp_cond1,3.0.4,59.988033169196214,
penalty,precificity,&&&&&&&&&&&,right,authority.vice,,,,,,,0,324,324,324,,,,,,,,,,,,,,,,,,,,,AMP,left,0.6170372783963103,,,left,0,0.6170372783963103,0,,,,,,,,,,,,,,,,,,,,,,1055,2019_Mar_13_1243,mf_amp_cond1,3.0.4,59.988033169196214,
voter,faspberry,&&&&&&&&&,right,fairness.vice,,,,,,,0,325,325,325,,,,,,,,,,,,,,,,,,,,,AMP,left,0.5503380694717634,,,left,0,0.5503380694717634,0,,,,,,,,,,,,,,,,,,,,,,1055,2019_Mar_13_1243,mf_amp_cond1,3.0.4,59.988033169196214,
feleological,sickyay,&&&&&&&,None,nonword,,,,,,,0,326,326,326,,,,,,,,,,,,,,,,,,,,,AMP,left,0.40032161661656573,,,left,0,0.40032161661656573,0,,,,,,,,,,,,,,,,,,,,,,1055,2019_Mar_13_1243,mf_amp_cond1,3.0.4,59.988033169196214,
riot,ablow,&&&&&,right,authority.vice,,,,,,,0,327,327,327,,,,,,,,,,,,,,,,,,,,,AMP,left,0.4169890423072502,,,left,0,0.4169890423072502,0,,,,,,,,,,,,,,,,,,,,,,1055,2019_Mar_13_1243,mf_amp_cond1,3.0.4,59.988033169196214,
,,,,,,,,,,,,,,,,,,,,,,,,,,,,,,,,,,,,,,,,,,,,6,9.537,,,,,,,,,,,,,,,,,,,,1055,2019_Mar_13_1243,mf_amp_cond1,3.0.4,59.988033169196214,
,,,,,,,,,,,,,,,,,,,,,,,,,,,,,,,,,,,,,,,,,,,,,,5,6.02,,,,,,,,,,,,,,,,,,1055,2019_Mar_13_1243,mf_amp_cond1,3.0.4,59.988033169196214,
,,,,,,,,,,,,,,,,,,,,,,,,,,,,,,,,,,,,,,,,,,,,,,,,1,5.903,,,,,,,,,,,,,,,,1055,2019_Mar_13_1243,mf_amp_cond1,3.0.4,59.988033169196214,
,,,,,,,,,,,,,,,,,,,,,,,,,,,,,,,,,,,,,,,,,,,,,,,,,,right,0.983905057044467,,,,,,,,,,,,,,1055,2019_Mar_13_1243,mf_amp_cond1,3.0.4,59.988033169196214,
keyboard,,&&&&&&&,,,,,,,,,,,,,0,0,0,0,,,,,,,,,,,,,,,,,LDT_prac,left,2.267470024060458,,,,,,0,,,,,,,,,left,2.267470024060458,,,,,,,,,,,,1055,2019_Mar_13_1243,mf_amp_cond1,3.0.4,59.988033169196214,
bisebell,,&&&&&&&,,,,,,,,,,,,,0,1,1,1,,,,,,,,,,,,,,,,,LDT_prac,left,1.017204308649525,,,,,,0,,,,,,,,,left,1.017204308649525,,,,,,,,,,,,1055,2019_Mar_13_1243,mf_amp_cond1,3.0.4,59.988033169196214,
,,,,,,,,,,,,,,,,,,,,,,,,,,,,,,,,,,,,,,,,,,,,,,,,,,,,,,right,0.40033701111678965,,,,,,,,,,1055,2019_Mar_13_1243,mf_amp_cond1,3.0.4,59.988033169196214,
reviked,,&&&&&&&,right,nonword,,,,,,,,,,,,,,,0,0,0,69,,,,,,,,,,,,,LDT,left,1.6339391494111624,,,,,,0,,,,,,,,,,,,,left,0,1.6339391494111624,,,,,,,1055,2019_Mar_13_1243,mf_amp_cond1,3.0.4,59.988033169196214,
embrace,,&&&&&&&,left,authority.virtue,,,,,,,,,,,,,,,0,1,1,189,,,,,,,,,,,,,LDT,right,0.6003576653893106,,,,,,0,,,,,,,,,,,,,right,0,0.6003576653893106,,,,,,,1055,2019_Mar_13_1243,mf_amp_cond1,3.0.4,59.988033169196214,
victim,,&&&&&&,left,care.vice,,,,,,,,,,,,,,,0,2,2,32,,,,,,,,,,,,,LDT,right,0.7337355572381057,,,,,,0,,,,,,,,,,,,,right,0,0.7337355572381057,,,,,,,1055,2019_Mar_13_1243,mf_amp_cond1,3.0.4,59.988033169196214,
trust,,&&&&&,left,authority.virtue,,,,,,,,,,,,,,,0,3,3,87,,,,,,,,,,,,,LDT,right,0.6670693823543843,,,,,,0,,,,,,,,,,,,,right,0,0.6670693823543843,,,,,,,1055,2019_Mar_13_1243,mf_amp_cond1,3.0.4,59.988033169196214,
amoungst,,&&&&&&&&,left,neutral,,,,,,,,,,,,,,,0,4,4,186,,,,,,,,,,,,,LDT,right,1.0504846379044466,,,,,,0,,,,,,,,,,,,,right,0,1.0504846379044466,,,,,,,1055,2019_Mar_13_1243,mf_amp_cond1,3.0.4,59.988033169196214,
couldnt,,&&&&&&&,left,neutral,,,,,,,,,,,,,,,0,5,5,150,,,,,,,,,,,,,LDT,right,1.6172810245479923,,,,,,0,,,,,,,,,,,,,right,0,1.6172810245479923,,,,,,,1055,2019_Mar_13_1243,mf_amp_cond1,3.0.4,59.988033169196214,
fonderland,,&&&&&&&&&&,right,nonword,,,,,,,,,,,,,,,0,6,6,122,,,,,,,,,,,,,LDT,left,0.7837448901555035,,,,,,0,,,,,,,,,,,,,left,0,0.7837448901555035,,,,,,,1055,2019_Mar_13_1243,mf_amp_cond1,3.0.4,59.988033169196214,
reprisols,,&&&&&&&&&,right,nonword,,,,,,,,,,,,,,,0,7,7,6,,,,,,,,,,,,,LDT,left,0.8339482578157913,,,,,,0,,,,,,,,,,,,,left,0,0.8339482578157913,,,,,,,1055,2019_Mar_13_1243,mf_amp_cond1,3.0.4,59.988033169196214,
framo,,&&&&&,right,nonword,,,,,,,,,,,,,,,0,8,8,145,,,,,,,,,,,,,LDT,left,2.3841128185449634,,,,,,0,,,,,,,,,,,,,left,0,2.3841128185449634,,,,,,,1055,2019_Mar_13_1243,mf_amp_cond1,3.0.4,59.988033169196214,
praised,,&&&&&&&,left,loyalty.virtue,,,,,,,,,,,,,,,0,9,9,134,,,,,,,,,,,,,LDT,right,0.5671119737962727,,,,,,0,,,,,,,,,,,,,right,0,0.5671119737962727,,,,,,,1055,2019_Mar_13_1243,mf_amp_cond1,3.0.4,59.988033169196214,
touls,,&&&&&,right,nonword,,,,,,,,,,,,,,,0,10,10,70,,,,,,,,,,,,,LDT,left,0.7003955743275583,,,,,,0,,,,,,,,,,,,,left,0,0.7003955743275583,,,,,,,1055,2019_Mar_13_1243,mf_amp_cond1,3.0.4,59.988033169196214,
front,,&&&&&,left,neutral,,,,,,,,,,,,,,,0,11,11,159,,,,,,,,,,,,,LDT,right,0.7004029508680105,,,,,,0,,,,,,,,,,,,,right,0,0.7004029508680105,,,,,,,1055,2019_Mar_13_1243,mf_amp_cond1,3.0.4,59.988033169196214,
galamitous,,&&&&&&&&&&,right,nonword,,,,,,,,,,,,,,,0,12,12,71,,,,,,,,,,,,,LDT,left,0.7337429337785579,,,,,,0,,,,,,,,,,,,,left,0,0.7337429337785579,,,,,,,1055,2019_Mar_13_1243,mf_amp_cond1,3.0.4,59.988033169196214,
were,,&&&&,left,neutral,,,,,,,,,,,,,,,0,13,13,199,,,,,,,,,,,,,LDT,right,0.8336871928768232,,,,,,0,,,,,,,,,,,,,right,0,0.8336871928768232,,,,,,,1055,2019_Mar_13_1243,mf_amp_cond1,3.0.4,59.988033169196214,
frocessing,,&&&&&&&&&&,right,nonword,,,,,,,,,,,,,,,0,14,14,39,,,,,,,,,,,,,LDT,left,1.8006688907335047,,,,,,0,,,,,,,,,,,,,left,0,1.8006688907335047,,,,,,,1055,2019_Mar_13_1243,mf_amp_cond1,3.0.4,59.988033169196214,
brotesque,,&&&&&&&&&,right,nonword,,,,,,,,,,,,,,,0,15,15,135,,,,,,,,,,,,,LDT,left,0.6170443342416547,,,,,,0,,,,,,,,,,,,,left,0,0.6170443342416547,,,,,,,1055,2019_Mar_13_1243,mf_amp_cond1,3.0.4,59.988033169196214,
honored,,&&&&&&&,left,authority.virtue,,,,,,,,,,,,,,,0,16,16,99,,,,,,,,,,,,,LDT,right,0.6170517107530031,,,,,,0,,,,,,,,,,,,,right,0,0.6170517107530031,,,,,,,1055,2019_Mar_13_1243,mf_amp_cond1,3.0.4,59.988033169196214,
ronviolence,,&&&&&&&&&&&,right,nonword,,,,,,,,,,,,,,,0,17,17,29,,,,,,,,,,,,,LDT,left,0.6503650739905424,,,,,,0,,,,,,,,,,,,,left,0,0.6503650739905424,,,,,,,1055,2019_Mar_13_1243,mf_amp_cond1,3.0.4,59.988033169196214,
ebbitter,,&&&&&&&&,right,nonword,,,,,,,,,,,,,,,0,18,18,165,,,,,,,,,,,,,LDT,left,0.8337696175440215,,,,,,0,,,,,,,,,,,,,left,0,0.8337696175440215,,,,,,,1055,2019_Mar_13_1243,mf_amp_cond1,3.0.4,59.988033169196214,
whereafter,,&&&&&&&&&&,left,neutral,,,,,,,,,,,,,,,0,19,19,10,,,,,,,,,,,,,LDT,right,0.7170703765877988,,,,,,0,,,,,,,,,,,,,right,0,0.7170703765877988,,,,,,,1055,2019_Mar_13_1243,mf_amp_cond1,3.0.4,59.988033169196214,
erdest,,&&&&&&,right,nonword,,,,,,,,,,,,,,,0,20,20,17,,,,,,,,,,,,,LDT,left,0.7337503102899063,,,,,,0,,,,,,,,,,,,,left,0,0.7337503102899063,,,,,,,1055,2019_Mar_13_1243,mf_amp_cond1,3.0.4,59.988033169196214,
therefore,,&&&&&&&&&,left,neutral,,,,,,,,,,,,,,,0,21,21,95,,,,,,,,,,,,,LDT,right,0.733739085146226,,,,,,0,,,,,,,,,,,,,right,0,0.733739085146226,,,,,,,1055,2019_Mar_13_1243,mf_amp_cond1,3.0.4,59.988033169196214,
seachwear,,&&&&&&&&&,right,nonword,,,,,,,,,,,,,,,0,22,22,90,,,,,,,,,,,,,LDT,right,1.7173243857105263,,,,,,1,,,,,,,,,,,,,right,1,1.7173243857105263,,,,,,,1055,2019_Mar_13_1243,mf_amp_cond1,3.0.4,59.988033169196214,
slending,,&&&&&&&&,right,nonword,,,,,,,,,,,,,,,0,23,23,4,,,,,,,,,,,,,LDT,right,1.4672607230604626,,,,,,1,,,,,,,,,,,,,right,1,1.4672607230604626,,,,,,,1055,2019_Mar_13_1243,mf_amp_cond1,3.0.4,59.988033169196214,
gaultless,,&&&&&&&&&,right,nonword,,,,,,,,,,,,,,,0,24,24,169,,,,,,,,,,,,,LDT,left,0.6003797949815635,,,,,,0,,,,,,,,,,,,,left,0,0.6003797949815635,,,,,,,1055,2019_Mar_13_1243,mf_amp_cond1,3.0.4,59.988033169196214,
energy,,&&&&&&,left,sanctity.virtue,,,,,,,,,,,,,,,0,25,25,129,,,,,,,,,,,,,LDT,right,0.5336972634249832,,,,,,0,,,,,,,,,,,,,right,0,0.5336972634249832,,,,,,,1055,2019_Mar_13_1243,mf_amp_cond1,3.0.4,59.988033169196214,
aubos,,&&&&&,right,nonword,,,,,,,,,,,,,,,0,26,26,104,,,,,,,,,,,,,LDT,left,0.5669063931563869,,,,,,0,,,,,,,,,,,,,left,0,0.5669063931563869,,,,,,,1055,2019_Mar_13_1243,mf_amp_cond1,3.0.4,59.988033169196214,
failure,,&&&&&&&,left,loyalty.vice,,,,,,,,,,,,,,,0,27,27,97,,,,,,,,,,,,,LDT,left,0.48367798823164776,,,,,,1,,,,,,,,,,,,,left,1,0.48367798823164776,,,,,,,1055,2019_Mar_13_1243,mf_amp_cond1,3.0.4,59.988033169196214,
ittutable,,&&&&&&&&&,right,nonword,,,,,,,,,,,,,,,0,28,28,89,,,,,,,,,,,,,LDT,left,1.0838358459586743,,,,,,0,,,,,,,,,,,,,left,0,1.0838358459586743,,,,,,,1055,2019_Mar_13_1243,mf_amp_cond1,3.0.4,59.988033169196214,
hate,,&&&&,left,fairness.vice,,,,,,,,,,,,,,,0,29,29,149,,,,,,,,,,,,,LDT,right,0.5003787686873693,,,,,,0,,,,,,,,,,,,,right,0,0.5003787686873693,,,,,,,1055,2019_Mar_13_1243,mf_amp_cond1,3.0.4,59.988033169196214,
noped,,&&&&&,right,nonword,,,,,,,,,,,,,,,0,30,30,138,,,,,,,,,,,,,LDT,left,1.783993126358837,,,,,,0,,,,,,,,,,,,,left,0,1.783993126358837,,,,,,,1055,2019_Mar_13_1243,mf_amp_cond1,3.0.4,59.988033169196214,
bluently,,&&&&&&&&,None,nonword,,,,,,,,,,,,,,,0,31,31,117,,,,,,,,,,,,,LDT,left,1.533925935800653,,,,,,0,,,,,,,,,,,,,left,0,1.533925935800653,,,,,,,1055,2019_Mar_13_1243,mf_amp_cond1,3.0.4,59.988033169196214,
forepo,,&&&&&&,right,nonword,,,,,,,,,,,,,,,0,32,32,63,,,,,,,,,,,,,LDT,left,1.1338317086629104,,,,,,0,,,,,,,,,,,,,left,0,1.1338317086629104,,,,,,,1055,2019_Mar_13_1243,mf_amp_cond1,3.0.4,59.988033169196214,
allears,,&&&&&&&,right,nonword,,,,,,,,,,,,,,,0,33,33,136,,,,,,,,,,,,,LDT,left,0.7004135345632676,,,,,,0,,,,,,,,,,,,,left,0,0.7004135345632676,,,,,,,1055,2019_Mar_13_1243,mf_amp_cond1,3.0.4,59.988033169196214,
gationwide,,&&&&&&&&&&,right,nonword,,,,,,,,,,,,,,,0,34,34,187,,,,,,,,,,,,,LDT,left,1.3670986960059963,,,,,,0,,,,,,,,,,,,,left,0,1.3670986960059963,,,,,,,1055,2019_Mar_13_1243,mf_amp_cond1,3.0.4,59.988033169196214,
there,,&&&&&,left,neutral,,,,,,,,,,,,,,,0,35,35,51,,,,,,,,,,,,,LDT,right,0.6170491449884139,,,,,,0,,,,,,,,,,,,,right,0,0.6170491449884139,,,,,,,1055,2019_Mar_13_1243,mf_amp_cond1,3.0.4,59.988033169196214,
itself,,&&&&&&,left,neutral,,,,,,,,,,,,,,,0,36,36,193,,,,,,,,,,,,,LDT,right,0.9838284052966628,,,,,,0,,,,,,,,,,,,,right,0,0.9838284052966628,,,,,,,1055,2019_Mar_13_1243,mf_amp_cond1,3.0.4,59.988033169196214,
leact,,&&&&&,right,nonword,,,,,,,,,,,,,,,0,37,37,67,,,,,,,,,,,,,LDT,right,1.633913491939893,,,,,,1,,,,,,,,,,,,,right,1,1.633913491939893,,,,,,,1055,2019_Mar_13_1243,mf_amp_cond1,3.0.4,59.988033169196214,
egpeditious,,&&&&&&&&&&&,right,nonword,,,,,,,,,,,,,,,0,38,38,155,,,,,,,,,,,,,LDT,left,0.5503666134609375,,,,,,0,,,,,,,,,,,,,left,0,0.5503666134609375,,,,,,,1055,2019_Mar_13_1243,mf_amp_cond1,3.0.4,59.988033169196214,
lorthwhile,,&&&&&&&&&&,right,nonword,,,,,,,,,,,,,,,0,39,39,195,,,,,,,,,,,,,LDT,left,1.1838836971728597,,,,,,0,,,,,,,,,,,,,left,0,1.1838836971728597,,,,,,,1055,2019_Mar_13_1243,mf_amp_cond1,3.0.4,59.988033169196214,
gazily,,&&&&&&,right,nonword,,,,,,,,,,,,,,,0,40,40,167,,,,,,,,,,,,,LDT,left,0.8004341247142293,,,,,,0,,,,,,,,,,,,,left,0,0.8004341247142293,,,,,,,1055,2019_Mar_13_1243,mf_amp_cond1,3.0.4,59.988033169196214,
gedious,,&&&&&&&,right,nonword,,,,,,,,,,,,,,,0,41,41,151,,,,,,,,,,,,,LDT,left,0.7170739044668153,,,,,,0,,,,,,,,,,,,,left,0,0.7170739044668153,,,,,,,1055,2019_Mar_13_1243,mf_amp_cond1,3.0.4,59.988033169196214,
bruthfulness,,&&&&&&&&&&&&,right,nonword,,,,,,,,,,,,,,,0,42,42,53,,,,,,,,,,,,,LDT,left,0.6337136842194013,,,,,,0,,,,,,,,,,,,,left,0,0.6337136842194013,,,,,,,1055,2019_Mar_13_1243,mf_amp_cond1,3.0.4,59.988033169196214,
mostly,,&&&&&&,left,neutral,,,,,,,,,,,,,,,0,43,43,132,,,,,,,,,,,,,LDT,right,0.5336914905055892,,,,,,0,,,,,,,,,,,,,right,0,0.5336914905055892,,,,,,,1055,2019_Mar_13_1243,mf_amp_cond1,3.0.4,59.988033169196214,
framatic,,&&&&&&&&,right,nonword,,,,,,,,,,,,,,,0,44,44,8,,,,,,,,,,,,,LDT,right,0.8504501927236561,,,,,,1,,,,,,,,,,,,,right,1,0.8504501927236561,,,,,,,1055,2019_Mar_13_1243,mf_amp_cond1,3.0.4,59.988033169196214,
great,,&&&&&,left,loyalty.virtue,,,,,,,,,,,,,,,0,45,45,166,,,,,,,,,,,,,LDT,right,0.583715255750576,,,,,,0,,,,,,,,,,,,,right,0,0.583715255750576,,,,,,,1055,2019_Mar_13_1243,mf_amp_cond1,3.0.4,59.988033169196214,
vurtain,,&&&&&&&,right,nonword,,,,,,,,,,,,,,,0,46,46,0,,,,,,,,,,,,,LDT,left,1.4172135453554802,,,,,,0,,,,,,,,,,,,,left,0,1.4172135453554802,,,,,,,1055,2019_Mar_13_1243,mf_amp_cond1,3.0.4,59.988033169196214,
black,,&&&&&,left,loyalty.vice,,,,,,,,,,,,,,,0,47,47,68,,,,,,,,,,,,,LDT,right,0.6003756256250199,,,,,,0,,,,,,,,,,,,,right,0,0.6003756256250199,,,,,,,1055,2019_Mar_13_1243,mf_amp_cond1,3.0.4,59.988033169196214,
Phintoism,,&&&&&&&&&,right,nonword,,,,,,,,,,,,,,,0,48,48,172,,,,,,,,,,,,,LDT,left,0.6337104770354927,,,,,,0,,,,,,,,,,,,,left,0,0.6337104770354927,,,,,,,1055,2019_Mar_13_1243,mf_amp_cond1,3.0.4,59.988033169196214,
latter,,&&&&&&,left,neutral,,,,,,,,,,,,,,,0,49,49,81,,,,,,,,,,,,,LDT,right,1.3171839751012158,,,,,,0,,,,,,,,,,,,,right,0,1.3171839751012158,,,,,,,1055,2019_Mar_13_1243,mf_amp_cond1,3.0.4,59.988033169196214,
further,,&&&&&&&,left,neutral,,,,,,,,,,,,,,,0,50,50,44,,,,,,,,,,,,,LDT,right,0.5837021062907297,,,,,,0,,,,,,,,,,,,,right,0,0.5837021062907297,,,,,,,1055,2019_Mar_13_1243,mf_amp_cond1,3.0.4,59.988033169196214,
sliptery,,&&&&&&&&,right,nonword,,,,,,,,,,,,,,,0,51,51,128,,,,,,,,,,,,,LDT,right,0.7170793566911016,,,,,,1,,,,,,,,,,,,,right,1,0.7170793566911016,,,,,,,1055,2019_Mar_13_1243,mf_amp_cond1,3.0.4,59.988033169196214,
become,,&&&&&&,left,neutral,,,,,,,,,,,,,,,0,52,52,19,,,,,,,,,,,,,LDT,right,0.7004125724488404,,,,,,0,,,,,,,,,,,,,right,0,0.7004125724488404,,,,,,,1055,2019_Mar_13_1243,mf_amp_cond1,3.0.4,59.988033169196214,
abuse,,&&&&&,left,sanctity.vice,,,,,,,,,,,,,,,0,53,53,75,,,,,,,,,,,,,LDT,right,0.6003823607461527,,,,,,0,,,,,,,,,,,,,right,0,0.6003823607461527,,,,,,,1055,2019_Mar_13_1243,mf_amp_cond1,3.0.4,59.988033169196214,
chared,,&&&&&&,right,nonword,,,,,,,,,,,,,,,0,54,54,80,,,,,,,,,,,,,LDT,right,1.0171513900859281,,,,,,1,,,,,,,,,,,,,right,1,1.0171513900859281,,,,,,,1055,2019_Mar_13_1243,mf_amp_cond1,3.0.4,59.988033169196214,
Cunday,,&&&&&&,None,nonword,,,,,,,,,,,,,,,0,55,55,13,,,,,,,,,,,,,LDT,left,0.5336911697813775,,,,,,0,,,,,,,,,,,,,left,0,0.5336911697813775,,,,,,,1055,2019_Mar_13_1243,mf_amp_cond1,3.0.4,59.988033169196214,
cromiscuity,,&&&&&&&&&&&,right,nonword,,,,,,,,,,,,,,,0,56,56,30,,,,,,,,,,,,,LDT,left,0.6503884864796419,,,,,,0,,,,,,,,,,,,,left,0,0.6503884864796419,,,,,,,1055,2019_Mar_13_1243,mf_amp_cond1,3.0.4,59.988033169196214,
also,,&&&&,left,neutral,,,,,,,,,,,,,,,0,57,57,98,,,,,,,,,,,,,LDT,right,0.8337587131245527,,,,,,0,,,,,,,,,,,,,right,0,0.8337587131245527,,,,,,,1055,2019_Mar_13_1243,mf_amp_cond1,3.0.4,59.988033169196214,
elduringly,,&&&&&&&&&&,right,nonword,,,,,,,,,,,,,,,0,58,58,77,,,,,,,,,,,,,LDT,left,0.6170542764884885,,,,,,0,,,,,,,,,,,,,left,0,0.6170542764884885,,,,,,,1055,2019_Mar_13_1243,mf_amp_cond1,3.0.4,59.988033169196214,
dignity,,&&&&&&&,left,sanctity.virtue,,,,,,,,,,,,,,,0,59,59,160,,,,,,,,,,,,,LDT,right,3.85115256649442,,,,,,0,,,,,,,,,,,,,right,0,3.85115256649442,,,,,,,1055,2019_Mar_13_1243,mf_amp_cond1,3.0.4,59.988033169196214,
neutralust,,&&&&&&&&&&,right,nonword,,,,,,,,,,,,,,,0,60,60,173,,,,,,,,,,,,,LDT,left,0.7337701948708855,,,,,,0,,,,,,,,,,,,,left,0,0.7337701948708855,,,,,,,1055,2019_Mar_13_1243,mf_amp_cond1,3.0.4,59.988033169196214,
free,,&&&&,left,fairness.virtue,,,,,,,,,,,,,,,0,61,61,175,,,,,,,,,,,,,LDT,right,0.7504206224693917,,,,,,0,,,,,,,,,,,,,right,0,0.7504206224693917,,,,,,,1055,2019_Mar_13_1243,mf_amp_cond1,3.0.4,59.988033169196214,
been,,&&&&,left,neutral,,,,,,,,,,,,,,,0,62,62,35,,,,,,,,,,,,,LDT,right,0.8004540092661045,,,,,,0,,,,,,,,,,,,,right,0,0.8004540092661045,,,,,,,1055,2019_Mar_13_1243,mf_amp_cond1,3.0.4,59.988033169196214,
increase,,&&&&&&&&,left,care.virtue,,,,,,,,,,,,,,,0,63,63,46,,,,,,,,,,,,,LDT,right,0.61703375048819,,,,,,0,,,,,,,,,,,,,right,0,0.61703375048819,,,,,,,1055,2019_Mar_13_1243,mf_amp_cond1,3.0.4,59.988033169196214,
tabin,,&&&&&,right,nonword,,,,,,,,,,,,,,,0,64,64,5,,,,,,,,,,,,,LDT,left,0.617050107131945,,,,,,0,,,,,,,,,,,,,left,0,0.617050107131945,,,,,,,1055,2019_Mar_13_1243,mf_amp_cond1,3.0.4,59.988033169196214,
ejanulated,,&&&&&&&&&&,right,nonword,,,,,,,,,,,,,,,0,65,65,180,,,,,,,,,,,,,LDT,left,0.6503419822547585,,,,,,0,,,,,,,,,,,,,left,0,0.6503419822547585,,,,,,,1055,2019_Mar_13_1243,mf_amp_cond1,3.0.4,59.988033169196214,
protesters,,&&&&&&&&&&,left,authority.vice,,,,,,,,,,,,,,,0,66,66,107,,,,,,,,,,,,,LDT,right,1.0004743428435177,,,,,,0,,,,,,,,,,,,,right,0,1.0004743428435177,,,,,,,1055,2019_Mar_13_1243,mf_amp_cond1,3.0.4,59.988033169196214,
support,,&&&&&&&,left,loyalty.virtue,,,,,,,,,,,,,,,0,67,67,101,,,,,,,,,,,,,LDT,right,0.6503897693182807,,,,,,0,,,,,,,,,,,,,right,0,0.6503897693182807,,,,,,,1055,2019_Mar_13_1243,mf_amp_cond1,3.0.4,59.988033169196214,
even,,&&&&,left,neutral,,,,,,,,,,,,,,,0,68,68,41,,,,,,,,,,,,,LDT,right,0.6337056662596297,,,,,,0,,,,,,,,,,,,,right,0,0.6337056662596297,,,,,,,1055,2019_Mar_13_1243,mf_amp_cond1,3.0.4,59.988033169196214,
nackers,,&&&&&&&,right,nonword,,,,,,,,,,,,,,,0,69,69,9,,,,,,,,,,,,,LDT,left,0.6837178856658284,,,,,,0,,,,,,,,,,,,,left,0,0.6837178856658284,,,,,,,1055,2019_Mar_13_1243,mf_amp_cond1,3.0.4,59.988033169196214,
metibolic,,&&&&&&&&&,right,nonword,,,,,,,,,,,,,,,0,70,70,184,,,,,,,,,,,,,LDT,right,4.501331302977633,,,,,,1,,,,,,,,,,,,,right,1,4.501331302977633,,,,,,,1055,2019_Mar_13_1243,mf_amp_cond1,3.0.4,59.988033169196214,
racist,,&&&&&&,left,sanctity.vice,,,,,,,,,,,,,,,0,71,71,38,,,,,,,,,,,,,LDT,left,3.8345072703668848,,,,,,1,,,,,,,,,,,,,left,1,3.8345072703668848,,,,,,,1055,2019_Mar_13_1243,mf_amp_cond1,3.0.4,59.988033169196214,
saned,,&&&&&,None,nonword,,,,,,,,,,,,,,,0,72,72,197,,,,,,,,,,,,,LDT,right,2.9009361134958453,,,,,,0,,,,,,,,,,,,,right,0,2.9009361134958453,,,,,,,1055,2019_Mar_13_1243,mf_amp_cond1,3.0.4,59.988033169196214,
everything,,&&&&&&&&&&,left,neutral,,,,,,,,,,,,,,,0,73,73,56,,,,,,,,,,,,,LDT,right,4.351162188046146,,,,,,0,,,,,,,,,,,,,right,0,4.351162188046146,,,,,,,1055,2019_Mar_13_1243,mf_amp_cond1,3.0.4,59.988033169196214,
credit,,&&&&&&,left,fairness.virtue,,,,,,,,,,,,,,,0,74,74,105,,,,,,,,,,,,,LDT,right,1.9507190190488473,,,,,,0,,,,,,,,,,,,,right,0,1.9507190190488473,,,,,,,1055,2019_Mar_13_1243,mf_amp_cond1,3.0.4,59.988033169196214,
lenon,,&&&&&,right,nonword,,,,,,,,,,,,,,,0,75,75,137,,,,,,,,,,,,,LDT,left,2.550842239143094,,,,,,0,,,,,,,,,,,,,left,0,2.550842239143094,,,,,,,1055,2019_Mar_13_1243,mf_amp_cond1,3.0.4,59.988033169196214,
fifty,,&&&&&,left,neutral,,,,,,,,,,,,,,,0,76,76,161,,,,,,,,,,,,,LDT,right,2.284069457411533,,,,,,0,,,,,,,,,,,,,right,0,2.284069457411533,,,,,,,1055,2019_Mar_13_1243,mf_amp_cond1,3.0.4,59.988033169196214,
brudent,,&&&&&&&,right,nonword,,,,,,,,,,,,,,,0,77,77,92,,,,,,,,,,,,,LDT,right,2.800920013425639,,,,,,1,,,,,,,,,,,,,right,1,2.800920013425639,,,,,,,1055,2019_Mar_13_1243,mf_amp_cond1,3.0.4,59.988033169196214,
tracious,,&&&&&&&&,right,nonword,,,,,,,,,,,,,,,0,78,78,130,,,,,,,,,,,,,LDT,left,1.7339757754816674,,,,,,0,,,,,,,,,,,,,left,0,1.7339757754816674,,,,,,,1055,2019_Mar_13_1243,mf_amp_cond1,3.0.4,59.988033169196214,
abointment,,&&&&&&&&&&,right,nonword,,,,,,,,,,,,,,,0,79,79,3,,,,,,,,,,,,,LDT,left,4.61804465559544,,,,,,0,,,,,,,,,,,,,left,0,4.61804465559544,,,,,,,1055,2019_Mar_13_1243,mf_amp_cond1,3.0.4,59.988033169196214,
oam,,&&&,right,nonword,,,,,,,,,,,,,,,0,80,80,141,,,,,,,,,,,,,LDT,left,1.1171482470526826,,,,,,0,,,,,,,,,,,,,left,0,1.1171482470526826,,,,,,,1055,2019_Mar_13_1243,mf_amp_cond1,3.0.4,59.988033169196214,
spag,,&&&&,None,nonword,,,,,,,,,,,,,,,0,81,81,64,,,,,,,,,,,,,LDT,left,0.9171227819751948,,,,,,0,,,,,,,,,,,,,left,0,0.9171227819751948,,,,,,,1055,2019_Mar_13_1243,mf_amp_cond1,3.0.4,59.988033169196214,
scandal,,&&&&&&&,left,sanctity.vice,,,,,,,,,,,,,,,0,82,82,152,,,,,,,,,,,,,LDT,right,0.8671086383110378,,,,,,0,,,,,,,,,,,,,right,0,0.8671086383110378,,,,,,,1055,2019_Mar_13_1243,mf_amp_cond1,3.0.4,59.988033169196214,
gandbrake,,&&&&&&&&&,right,nonword,,,,,,,,,,,,,,,0,83,83,154,,,,,,,,,,,,,LDT,left,0.6004000002576504,,,,,,0,,,,,,,,,,,,,left,0,0.6004000002576504,,,,,,,1055,2019_Mar_13_1243,mf_amp_cond1,3.0.4,59.988033169196214,
violence,,&&&&&&&&,left,care.vice,,,,,,,,,,,,,,,0,84,84,96,,,,,,,,,,,,,LDT,right,0.7337406887381803,,,,,,0,,,,,,,,,,,,,right,0,0.7337406887381803,,,,,,,1055,2019_Mar_13_1243,mf_amp_cond1,3.0.4,59.988033169196214,
latterly,,&&&&&&&&,left,neutral,,,,,,,,,,,,,,,0,85,85,179,,,,,,,,,,,,,LDT,left,0.96713852926041,,,,,,1,,,,,,,,,,,,,left,1,0.96713852926041,,,,,,,1055,2019_Mar_13_1243,mf_amp_cond1,3.0.4,59.988033169196214,
yane,,&&&&,right,nonword,,,,,,,,,,,,,,,0,86,86,170,,,,,,,,,,,,,LDT,left,0.7837596432073042,,,,,,0,,,,,,,,,,,,,left,0,0.7837596432073042,,,,,,,1055,2019_Mar_13_1243,mf_amp_cond1,3.0.4,59.988033169196214,
unscothed,,&&&&&&&&&,right,nonword,,,,,,,,,,,,,,,0,87,87,171,,,,,,,,,,,,,LDT,left,0.8671060725464486,,,,,,0,,,,,,,,,,,,,left,0,0.8671060725464486,,,,,,,1055,2019_Mar_13_1243,mf_amp_cond1,3.0.4,59.988033169196214,
pulge,,&&&&&,right,nonword,,,,,,,,,,,,,,,0,88,88,33,,,,,,,,,,,,,LDT,left,1.167177143797744,,,,,,0,,,,,,,,,,,,,left,0,1.167177143797744,,,,,,,1055,2019_Mar_13_1243,mf_amp_cond1,3.0.4,59.988033169196214,
charges,,&&&&&&&,left,fairness.vice,,,,,,,,,,,,,,,0,89,89,194,,,,,,,,,,,,,LDT,right,3.334339855267899,,,,,,0,,,,,,,,,,,,,right,0,3.334339855267899,,,,,,,1055,2019_Mar_13_1243,mf_amp_cond1,3.0.4,59.988033169196214,
pullness,,&&&&&&&&,right,nonword,,,,,,,,,,,,,,,0,90,90,181,,,,,,,,,,,,,LDT,left,0.5335638445103541,,,,,,0,,,,,,,,,,,,,left,0,0.5335638445103541,,,,,,,1055,2019_Mar_13_1243,mf_amp_cond1,3.0.4,59.988033169196214,
police,,&&&&&&,left,authority.vice,,,,,,,,,,,,,,,0,91,91,18,,,,,,,,,,,,,LDT,right,0.5837290466588456,,,,,,0,,,,,,,,,,,,,right,0,0.5837290466588456,,,,,,,1055,2019_Mar_13_1243,mf_amp_cond1,3.0.4,59.988033169196214,
baladroit,,&&&&&&&&&,right,nonword,,,,,,,,,,,,,,,0,92,92,162,,,,,,,,,,,,,LDT,left,0.5003678642387968,,,,,,0,,,,,,,,,,,,,left,0,0.5003678642387968,,,,,,,1055,2019_Mar_13_1243,mf_amp_cond1,3.0.4,59.988033169196214,
Oregoniuns,,&&&&&&&&&&,right,nonword,,,,,,,,,,,,,,,0,93,93,119,,,,,,,,,,,,,LDT,left,0.667054308578372,,,,,,0,,,,,,,,,,,,,left,0,0.667054308578372,,,,,,,1055,2019_Mar_13_1243,mf_amp_cond1,3.0.4,59.988033169196214,
sexual,,&&&&&&,left,sanctity.vice,,,,,,,,,,,,,,,0,94,94,114,,,,,,,,,,,,,LDT,right,2.1674587347370107,,,,,,0,,,,,,,,,,,,,right,0,2.1674587347370107,,,,,,,1055,2019_Mar_13_1243,mf_amp_cond1,3.0.4,59.988033169196214,
rebels,,&&&&&&,left,authority.vice,,,,,,,,,,,,,,,0,95,95,91,,,,,,,,,,,,,LDT,right,0.6503987494506873,,,,,,0,,,,,,,,,,,,,right,0,0.6503987494506873,,,,,,,1055,2019_Mar_13_1243,mf_amp_cond1,3.0.4,59.988033169196214,
ensure,,&&&&&&,left,fairness.virtue,,,,,,,,,,,,,,,0,96,96,190,,,,,,,,,,,,,LDT,right,0.6170388820173685,,,,,,0,,,,,,,,,,,,,right,0,0.6170388820173685,,,,,,,1055,2019_Mar_13_1243,mf_amp_cond1,3.0.4,59.988033169196214,
lies,,&&&&,left,fairness.vice,,,,,,,,,,,,,,,0,97,97,131,,,,,,,,,,,,,LDT,right,0.5503608405124396,,,,,,0,,,,,,,,,,,,,right,0,0.5503608405124396,,,,,,,1055,2019_Mar_13_1243,mf_amp_cond1,3.0.4,59.988033169196214,
gowlands,,&&&&&&&&,right,nonword,,,,,,,,,,,,,,,0,98,98,86,,,,,,,,,,,,,LDT,right,1.1338528760825284,,,,,,1,,,,,,,,,,,,,right,1,1.1338528760825284,,,,,,,1055,2019_Mar_13_1243,mf_amp_cond1,3.0.4,59.988033169196214,
imebreaker,,&&&&&&&&&&,right,nonword,,,,,,,,,,,,,,,0,99,99,1,,,,,,,,,,,,,LDT,left,0.9004697886412032,,,,,,0,,,,,,,,,,,,,left,0,0.9004697886412032,,,,,,,1055,2019_Mar_13_1243,mf_amp_cond1,3.0.4,59.988033169196214,
less,,&&&&,left,neutral,,,,,,,,,,,,,,,0,100,100,61,,,,,,,,,,,,,LDT,right,0.6337063076789491,,,,,,0,,,,,,,,,,,,,right,0,0.6337063076789491,,,,,,,1055,2019_Mar_13_1243,mf_amp_cond1,3.0.4,59.988033169196214,
men,,&&&,left,loyalty.vice,,,,,,,,,,,,,,,0,101,101,14,,,,,,,,,,,,,LDT,right,0.8171108512615319,,,,,,0,,,,,,,,,,,,,right,0,0.8171108512615319,,,,,,,1055,2019_Mar_13_1243,mf_amp_cond1,3.0.4,59.988033169196214,
taxpayung,,&&&&&&&&&,right,nonword,,,,,,,,,,,,,,,0,102,102,133,,,,,,,,,,,,,LDT,left,1.5172748667537235,,,,,,0,,,,,,,,,,,,,left,0,1.5172748667537235,,,,,,,1055,2019_Mar_13_1243,mf_amp_cond1,3.0.4,59.988033169196214,
elsewhere,,&&&&&&&&&,left,neutral,,,,,,,,,,,,,,,0,103,103,157,,,,,,,,,,,,,LDT,right,1.0171414478099905,,,,,,0,,,,,,,,,,,,,right,0,1.0171414478099905,,,,,,,1055,2019_Mar_13_1243,mf_amp_cond1,3.0.4,59.988033169196214,
although,,&&&&&&&&,left,neutral,,,,,,,,,,,,,,,0,104,104,191,,,,,,,,,,,,,LDT,right,0.8504415333154611,,,,,,0,,,,,,,,,,,,,right,0,0.8504415333154611,,,,,,,1055,2019_Mar_13_1243,mf_amp_cond1,3.0.4,59.988033169196214,
chonograph,,&&&&&&&&&&,right,nonword,,,,,,,,,,,,,,,0,105,105,47,,,,,,,,,,,,,LDT,left,0.6837319972692057,,,,,,0,,,,,,,,,,,,,left,0,0.6837319972692057,,,,,,,1055,2019_Mar_13_1243,mf_amp_cond1,3.0.4,59.988033169196214,
seem,,&&&&,left,neutral,,,,,,,,,,,,,,,0,106,106,48,,,,,,,,,,,,,LDT,right,0.6003749842057005,,,,,,0,,,,,,,,,,,,,right,0,0.6003749842057005,,,,,,,1055,2019_Mar_13_1243,mf_amp_cond1,3.0.4,59.988033169196214,
fifteen,,&&&&&&&,left,neutral,,,,,,,,,,,,,,,0,107,107,109,,,,,,,,,,,,,LDT,right,1.1505222261184826,,,,,,0,,,,,,,,,,,,,right,0,1.1505222261184826,,,,,,,1055,2019_Mar_13_1243,mf_amp_cond1,3.0.4,59.988033169196214,
