words,mask,corr_ans,category,nonwords,tweets,topic,LDT_pracloop.thisRepN,LDT_pracloop.thisTrialN,LDT_pracloop.thisN,LDT_pracloop.thisIndex,LDT_trials.thisRepN,LDT_trials.thisTrialN,LDT_trials.thisN,LDT_trials.thisIndex,AMP_pracloop.thisRepN,AMP_pracloop.thisTrialN,AMP_pracloop.thisN,AMP_pracloop.thisIndex,AMP_trials.thisRepN,AMP_trials.thisTrialN,AMP_trials.thisN,AMP_trials.thisIndex,tweet_loop.thisRepN,tweet_loop.thisTrialN,tweet_loop.thisN,tweet_loop.thisIndex,begin_key.keys,begin_key.rt,key_resp_AMP_instr1.keys,key_resp_AMP_instr1.rt,key_resp_LDT_instr.keys,key_resp_LDT_instr.rt,resp_LDT_prac.keys,resp_LDT_prac.rt,task,keypress,RT,corr,resp_LDT_ready.keys,resp_LDT_ready.rt,resp_LDT.keys,resp_LDT.corr,resp_LDT.rt,LDT_rating.response,LDT_rating.rt,resp_AMP_ready1.keys,resp_AMP_ready1.rt,resp_AMP_prac.keys,resp_AMP_prac.rt,resp_AMP_ready.keys,resp_AMP_ready.rt,resp_AMP.keys,resp_AMP.corr,resp_AMP.rt,AMP_nonword_rating.response,AMP_nonword_rating.rt,AMP_word_rating.response,AMP_word_rating.rt,AMP_random_rating.response,AMP_random_rating.rt,key_resp_LDT_instr_2.keys,key_resp_LDT_instr_2.rt,resp_tweets.keys,resp_tweets.rt,participant,date,expName,psychopyVersion,frameRate,
,,,,,,,,,,,,,,,,,,,,,,,,,,,right,1270.3835190098034,,,,,,,,,,,,,,,,,,,,,,,,,,,,,,,,,,,,,1060,2019_Mar_13_1245,mf_amp_cond2,3.0.4,59.98826388420665,
,,,,,,,,,,,,,,,,,,,,,,,,,,,,,right,0.2836517244577408,,,,,,,,,,,,,,,,,,,,,,,,,,,,,,,,,,,1060,2019_Mar_13_1245,mf_amp_cond2,3.0.4,59.98826388420665,
,,,,,,,,,,,,,,,,,,,,,,,,,,,,,,,right,1.8174092870613094,,,,,,,,,,,,,,,,,,,,,,,,,,,,,,,,,1060,2019_Mar_13_1245,mf_amp_cond2,3.0.4,59.98826388420665,
keyboard,&&&&&&&,,,,,,0,0,0,0,,,,,,,,,,,,,,,,,,,,,,,left,0.7171090274350718,LDT_prac,left,0.7171090274350718,0,,,,,,,,,,,,,,,,,,,,,,,,,,,1060,2019_Mar_13_1245,mf_amp_cond2,3.0.4,59.98826388420665,
bisebell,&&&&&&&,,,,,,0,1,1,1,,,,,,,,,,,,,,,,,,,,,,,left,0.6837398587667849,LDT_prac,left,0.6837398587667849,0,,,,,,,,,,,,,,,,,,,,,,,,,,,1060,2019_Mar_13_1245,mf_amp_cond2,3.0.4,59.98826388420665,
,,,,,,,,,,,,,,,,,,,,,,,,,,,,,,,,,,,,,,,right,1.233893356169574,,,,,,,,,,,,,,,,,,,,,,,,,1060,2019_Mar_13_1245,mf_amp_cond2,3.0.4,59.98826388420665,
towards,&&&&&&&,left,neutral,,,,,,,,0,0,0,138,,,,,,,,,,,,,,,,,,,,,LDT,left,0.6504011586948764,1,,,left,1,0.6504011586948764,,,,,,,,,,,,,,,,,,,,,,1060,2019_Mar_13_1245,mf_amp_cond2,3.0.4,59.98826388420665,
died,&&&&,left,care.vice,,,,,,,,0,1,1,1,,,,,,,,,,,,,,,,,,,,,LDT,left,0.6170781739929225,1,,,left,1,0.6170781739929225,,,,,,,,,,,,,,,,,,,,,,1060,2019_Mar_13_1245,mf_amp_cond2,3.0.4,59.98826388420665,
lachelor,&&&&&&&&,right,nonword,,,,,,,,0,2,2,112,,,,,,,,,,,,,,,,,,,,,LDT,left,0.6504030830401462,0,,,left,0,0.6504030830401462,,,,,,,,,,,,,,,,,,,,,,1060,2019_Mar_13_1245,mf_amp_cond2,3.0.4,59.98826388420665,
could,&&&&&,left,neutral,,,,,,,,0,3,3,43,,,,,,,,,,,,,,,,,,,,,LDT,left,0.7836321604263503,1,,,left,1,0.7836321604263503,,,,,,,,,,,,,,,,,,,,,,1060,2019_Mar_13_1245,mf_amp_cond2,3.0.4,59.98826388420665,
accused,&&&&&&&,left,fairness.vice,,,,,,,,0,4,4,192,,,,,,,,,,,,,,,,,,,,,LDT,right,3.13438912780839,0,,,right,0,3.13438912780839,,,,,,,,,,,,,,,,,,,,,,1060,2019_Mar_13_1245,mf_amp_cond2,3.0.4,59.98826388420665,
egpeditious,&&&&&&&&&&&,right,nonword,,,,,,,,0,5,5,147,,,,,,,,,,,,,,,,,,,,,LDT,right,0.8004540136316791,1,,,right,1,0.8004540136316791,,,,,,,,,,,,,,,,,,,,,,1060,2019_Mar_13_1245,mf_amp_cond2,3.0.4,59.98826388420665,
mecan,&&&&&,right,nonword,,,,,,,,0,6,6,117,,,,,,,,,,,,,,,,,,,,,LDT,right,0.6170759289525449,1,,,right,1,0.6170759289525449,,,,,,,,,,,,,,,,,,,,,,1060,2019_Mar_13_1245,mf_amp_cond2,3.0.4,59.98826388420665,
further,&&&&&&&,left,neutral,,,,,,,,0,7,7,124,,,,,,,,,,,,,,,,,,,,,LDT,right,0.967169964540517,0,,,right,0,0.967169964540517,,,,,,,,,,,,,,,,,,,,,,1060,2019_Mar_13_1245,mf_amp_cond2,3.0.4,59.98826388420665,
clean,&&&&&,left,sanctity.virtue,,,,,,,,0,8,8,123,,,,,,,,,,,,,,,,,,,,,LDT,right,2.684260390116833,0,,,right,0,2.684260390116833,,,,,,,,,,,,,,,,,,,,,,1060,2019_Mar_13_1245,mf_amp_cond2,3.0.4,59.98826388420665,
thru,&&&&,left,neutral,,,,,,,,0,9,9,109,,,,,,,,,,,,,,,,,,,,,LDT,left,0.7004337440303061,1,,,left,1,0.7004337440303061,,,,,,,,,,,,,,,,,,,,,,1060,2019_Mar_13_1245,mf_amp_cond2,3.0.4,59.98826388420665,
fostet,&&&&&&,right,nonword,,,,,,,,0,10,10,197,,,,,,,,,,,,,,,,,,,,,LDT,right,1.250517324107932,1,,,right,1,1.250517324107932,,,,,,,,,,,,,,,,,,,,,,1060,2019_Mar_13_1245,mf_amp_cond2,3.0.4,59.98826388420665,
papert,&&&&&&,right,nonword,,,,,,,,0,11,11,151,,,,,,,,,,,,,,,,,,,,,LDT,right,0.6670950439583976,1,,,right,1,0.6670950439583976,,,,,,,,,,,,,,,,,,,,,,1060,2019_Mar_13_1245,mf_amp_cond2,3.0.4,59.98826388420665,
juck,&&&&,right,nonword,,,,,,,,0,12,12,34,,,,,,,,,,,,,,,,,,,,,LDT,left,1.2172260908409953,0,,,left,0,1.2172260908409953,,,,,,,,,,,,,,,,,,,,,,1060,2019_Mar_13_1245,mf_amp_cond2,3.0.4,59.98826388420665,
reprisols,&&&&&&&&&,right,nonword,,,,,,,,0,13,13,95,,,,,,,,,,,,,,,,,,,,,LDT,left,1.9340564110898413,0,,,left,0,1.9340564110898413,,,,,,,,,,,,,,,,,,,,,,1060,2019_Mar_13_1245,mf_amp_cond2,3.0.4,59.98826388420665,
values,&&&&&&,left,sanctity.virtue,,,,,,,,0,14,14,66,,,,,,,,,,,,,,,,,,,,,LDT,right,0.8503057119378354,0,,,right,0,0.8503057119378354,,,,,,,,,,,,,,,,,,,,,,1060,2019_Mar_13_1245,mf_amp_cond2,3.0.4,59.98826388420665,
least,&&&&&,left,neutral,,,,,,,,0,15,15,94,,,,,,,,,,,,,,,,,,,,,LDT,right,0.750436181522673,0,,,right,0,0.750436181522673,,,,,,,,,,,,,,,,,,,,,,1060,2019_Mar_13_1245,mf_amp_cond2,3.0.4,59.98826388420665,
seem,&&&&,left,neutral,,,,,,,,0,16,16,20,,,,,,,,,,,,,,,,,,,,,LDT,left,0.5171040882996749,1,,,left,1,0.5171040882996749,,,,,,,,,,,,,,,,,,,,,,1060,2019_Mar_13_1245,mf_amp_cond2,3.0.4,59.98826388420665,
clattening,&&&&&&&&&&,right,nonword,,,,,,,,0,17,17,23,,,,,,,,,,,,,,,,,,,,,LDT,left,0.9338184355874546,0,,,left,0,0.9338184355874546,,,,,,,,,,,,,,,,,,,,,,1060,2019_Mar_13_1245,mf_amp_cond2,3.0.4,59.98826388420665,
metibolic,&&&&&&&&&,right,nonword,,,,,,,,0,18,18,113,,,,,,,,,,,,,,,,,,,,,LDT,right,1.2837604490923695,1,,,right,1,1.2837604490923695,,,,,,,,,,,,,,,,,,,,,,1060,2019_Mar_13_1245,mf_amp_cond2,3.0.4,59.98826388420665,
tenuflect,&&&&&&&&&,right,nonword,,,,,,,,0,19,19,175,,,,,,,,,,,,,,,,,,,,,LDT,right,1.0171707984118257,1,,,right,1,1.0171707984118257,,,,,,,,,,,,,,,,,,,,,,1060,2019_Mar_13_1245,mf_amp_cond2,3.0.4,59.98826388420665,
threatened,&&&&&&&&&&,left,fairness.vice,,,,,,,,0,20,20,46,,,,,,,,,,,,,,,,,,,,,LDT,right,0.9338309437443968,0,,,right,0,0.9338309437443968,,,,,,,,,,,,,,,,,,,,,,1060,2019_Mar_13_1245,mf_amp_cond2,3.0.4,59.98826388420665,
sowntrodden,&&&&&&&&&&&,right,nonword,,,,,,,,0,21,21,141,,,,,,,,,,,,,,,,,,,,,LDT,left,0.8671147362911142,0,,,left,0,0.8671147362911142,,,,,,,,,,,,,,,,,,,,,,1060,2019_Mar_13_1245,mf_amp_cond2,3.0.4,59.98826388420665,
antral,&&&&&&,right,nonword,,,,,,,,0,22,22,156,,,,,,,,,,,,,,,,,,,,,LDT,right,3.8512152786715887,1,,,right,1,3.8512152786715887,,,,,,,,,,,,,,,,,,,,,,1060,2019_Mar_13_1245,mf_amp_cond2,3.0.4,59.98826388420665,
fifteen,&&&&&&&,left,neutral,,,,,,,,0,23,23,81,,,,,,,,,,,,,,,,,,,,,LDT,right,0.7504365022177808,0,,,right,0,0.7504365022177808,,,,,,,,,,,,,,,,,,,,,,1060,2019_Mar_13_1245,mf_amp_cond2,3.0.4,59.98826388420665,
lorthwhile,&&&&&&&&&&,right,nonword,,,,,,,,0,24,24,125,,,,,,,,,,,,,,,,,,,,,LDT,right,1.0004820447065867,1,,,right,1,1.0004820447065867,,,,,,,,,,,,,,,,,,,,,,1060,2019_Mar_13_1245,mf_amp_cond2,3.0.4,59.98826388420665,
honored,&&&&&&&,left,authority.virtue,,,,,,,,0,25,25,190,,,,,,,,,,,,,,,,,,,,,LDT,right,0.6504213641746901,0,,,right,0,0.6504213641746901,,,,,,,,,,,,,,,,,,,,,,1060,2019_Mar_13_1245,mf_amp_cond2,3.0.4,59.98826388420665,
elduringly,&&&&&&&&&&,right,nonword,,,,,,,,0,26,26,187,,,,,,,,,,,,,,,,,,,,,LDT,right,1.6339744346332736,1,,,right,1,1.6339744346332736,,,,,,,,,,,,,,,,,,,,,,1060,2019_Mar_13_1245,mf_amp_cond2,3.0.4,59.98826388420665,
prones,&&&&&&,right,nonword,,,,,,,,0,27,27,33,,,,,,,,,,,,,,,,,,,,,LDT,right,2.2674835020734463,1,,,right,1,2.2674835020734463,,,,,,,,,,,,,,,,,,,,,,1060,2019_Mar_13_1245,mf_amp_cond2,3.0.4,59.98826388420665,
spag,&&&&,None,nonword,,,,,,,,0,28,28,27,,,,,,,,,,,,,,,,,,,,,LDT,left,0.7004395170079079,0,,,left,0,0.7004395170079079,,,,,,,,,,,,,,,,,,,,,,1060,2019_Mar_13_1245,mf_amp_cond2,3.0.4,59.98826388420665,
forty,&&&&&,left,neutral,,,,,,,,0,29,29,6,,,,,,,,,,,,,,,,,,,,,LDT,right,0.833804901165422,0,,,right,0,0.833804901165422,,,,,,,,,,,,,,,,,,,,,,1060,2019_Mar_13_1245,mf_amp_cond2,3.0.4,59.98826388420665,
mightingale,&&&&&&&&&&&,right,nonword,,,,,,,,0,30,30,75,,,,,,,,,,,,,,,,,,,,,LDT,left,1.0338236312672962,0,,,left,0,1.0338236312672962,,,,,,,,,,,,,,,,,,,,,,1060,2019_Mar_13_1245,mf_amp_cond2,3.0.4,59.98826388420665,
chonograph,&&&&&&&&&&,right,nonword,,,,,,,,0,31,31,159,,,,,,,,,,,,,,,,,,,,,LDT,right,1.017170477687614,1,,,right,1,1.017170477687614,,,,,,,,,,,,,,,,,,,,,,1060,2019_Mar_13_1245,mf_amp_cond2,3.0.4,59.98826388420665,
tove,&&&&,right,nonword,,,,,,,,0,32,32,170,,,,,,,,,,,,,,,,,,,,,LDT,right,0.800450485694455,1,,,right,1,0.800450485694455,,,,,,,,,,,,,,,,,,,,,,1060,2019_Mar_13_1245,mf_amp_cond2,3.0.4,59.98826388420665,
atson,&&&&&,right,nonword,,,,,,,,0,33,33,64,,,,,,,,,,,,,,,,,,,,,LDT,left,0.7004347061738372,0,,,left,0,0.7004347061738372,,,,,,,,,,,,,,,,,,,,,,1060,2019_Mar_13_1245,mf_amp_cond2,3.0.4,59.98826388420665,
intelligence,&&&&&&&&&&&&,left,loyalty.virtue,,,,,,,,0,34,34,171,,,,,,,,,,,,,,,,,,,,,LDT,left,0.6504111010581255,1,,,left,1,0.6504111010581255,,,,,,,,,,,,,,,,,,,,,,1060,2019_Mar_13_1245,mf_amp_cond2,3.0.4,59.98826388420665,
dignity,&&&&&&&,left,sanctity.virtue,,,,,,,,0,35,35,49,,,,,,,,,,,,,,,,,,,,,LDT,right,1.133831072045723,0,,,right,0,1.133831072045723,,,,,,,,,,,,,,,,,,,,,,1060,2019_Mar_13_1245,mf_amp_cond2,3.0.4,59.98826388420665,
increase,&&&&&&&&,left,care.virtue,,,,,,,,0,36,36,131,,,,,,,,,,,,,,,,,,,,,LDT,right,1.683986493764678,0,,,right,0,1.683986493764678,,,,,,,,,,,,,,,,,,,,,,1060,2019_Mar_13_1245,mf_amp_cond2,3.0.4,59.98826388420665,
pulge,&&&&&,right,nonword,,,,,,,,0,37,37,89,,,,,,,,,,,,,,,,,,,,,LDT,left,0.8838336378103122,0,,,left,0,0.8838336378103122,,,,,,,,,,,,,,,,,,,,,,1060,2019_Mar_13_1245,mf_amp_cond2,3.0.4,59.98826388420665,
alar,&&&&,right,nonword,,,,,,,,0,38,38,90,,,,,,,,,,,,,,,,,,,,,LDT,left,1.0671844611351844,0,,,left,0,1.0671844611351844,,,,,,,,,,,,,,,,,,,,,,1060,2019_Mar_13_1245,mf_amp_cond2,3.0.4,59.98826388420665,
strofe,&&&&&&,right,nonword,,,,,,,,0,39,39,153,,,,,,,,,,,,,,,,,,,,,LDT,right,0.8004479199298657,1,,,right,1,0.8004479199298657,,,,,,,,,,,,,,,,,,,,,,1060,2019_Mar_13_1245,mf_amp_cond2,3.0.4,59.98826388420665,
police,&&&&&&,left,authority.vice,,,,,,,,0,40,40,100,,,,,,,,,,,,,,,,,,,,,LDT,left,1.7340219655598048,1,,,left,1,1.7340219655598048,,,,,,,,,,,,,,,,,,,,,,1060,2019_Mar_13_1245,mf_amp_cond2,3.0.4,59.98826388420665,
elsewhere,&&&&&&&&&,left,neutral,,,,,,,,0,41,41,116,,,,,,,,,,,,,,,,,,,,,LDT,right,0.6503953857172746,0,,,right,0,0.6503953857172746,,,,,,,,,,,,,,,,,,,,,,1060,2019_Mar_13_1245,mf_amp_cond2,3.0.4,59.98826388420665,
penalty,&&&&&&&,left,authority.vice,,,,,,,,0,42,42,139,,,,,,,,,,,,,,,,,,,,,LDT,right,1.2505760161729995,0,,,right,0,1.2505760161729995,,,,,,,,,,,,,,,,,,,,,,1060,2019_Mar_13_1245,mf_amp_cond2,3.0.4,59.98826388420665,
actively,&&&&&&&&,left,authority.virtue,,,,,,,,0,43,43,87,,,,,,,,,,,,,,,,,,,,,LDT,right,7.552178213518346,0,,,right,0,7.552178213518346,,,,,,,,,,,,,,,,,,,,,,1060,2019_Mar_13_1245,mf_amp_cond2,3.0.4,59.98826388420665,
strong,&&&&&&,left,loyalty.virtue,,,,,,,,0,44,44,63,,,,,,,,,,,,,,,,,,,,,LDT,right,0.6504226470424328,0,,,right,0,0.6504226470424328,,,,,,,,,,,,,,,,,,,,,,1060,2019_Mar_13_1245,mf_amp_cond2,3.0.4,59.98826388420665,
saned,&&&&&,None,nonword,,,,,,,,0,45,45,195,,,,,,,,,,,,,,,,,,,,,LDT,left,1.6840208109933883,0,,,left,0,1.6840208109933883,,,,,,,,,,,,,,,,,,,,,,1060,2019_Mar_13_1245,mf_amp_cond2,3.0.4,59.98826388420665,
perified,&&&&&&&&,right,nonword,,,,,,,,0,46,46,30,,,,,,,,,,,,,,,,,,,,,LDT,right,1.7006691537681036,1,,,right,1,1.7006691537681036,,,,,,,,,,,,,,,,,,,,,,1060,2019_Mar_13_1245,mf_amp_cond2,3.0.4,59.98826388420665,
reelectiob,&&&&&&&&&&,right,nonword,,,,,,,,0,47,47,150,,,,,,,,,,,,,,,,,,,,,LDT,right,0.8004306009679567,1,,,right,1,0.8004306009679567,,,,,,,,,,,,,,,,,,,,,,1060,2019_Mar_13_1245,mf_amp_cond2,3.0.4,59.98826388420665,
wherever,&&&&&&&&,left,neutral,,,,,,,,0,48,48,86,,,,,,,,,,,,,,,,,,,,,LDT,left,5.6350392306922,1,,,left,1,5.6350392306922,,,,,,,,,,,,,,,,,,,,,,1060,2019_Mar_13_1245,mf_amp_cond2,3.0.4,59.98826388420665,
give,&&&&,left,neutral,,,,,,,,0,49,49,189,,,,,,,,,,,,,,,,,,,,,LDT,right,0.6337743042968214,0,,,right,0,0.6337743042968214,,,,,,,,,,,,,,,,,,,,,,1060,2019_Mar_13_1245,mf_amp_cond2,3.0.4,59.98826388420665,
both,&&&&,left,neutral,,,,,,,,0,50,50,76,,,,,,,,,,,,,,,,,,,,,LDT,right,0.716976890078513,0,,,right,0,0.716976890078513,,,,,,,,,,,,,,,,,,,,,,1060,2019_Mar_13_1245,mf_amp_cond2,3.0.4,59.98826388420665,
help,&&&&,left,care.virtue,,,,,,,,0,51,51,127,,,,,,,,,,,,,,,,,,,,,LDT,right,1.0672004972584546,0,,,right,0,1.0672004972584546,,,,,,,,,,,,,,,,,,,,,,1060,2019_Mar_13_1245,mf_amp_cond2,3.0.4,59.98826388420665,
promote,&&&&&&&,left,sanctity.virtue,,,,,,,,0,52,52,54,,,,,,,,,,,,,,,,,,,,,LDT,right,1.5839703935489524,0,,,right,0,1.5839703935489524,,,,,,,,,,,,,,,,,,,,,,1060,2019_Mar_13_1245,mf_amp_cond2,3.0.4,59.98826388420665,
latterly,&&&&&&&&,left,neutral,,,,,,,,0,53,53,13,,,,,,,,,,,,,,,,,,,,,LDT,left,2.03406962484587,1,,,left,1,2.03406962484587,,,,,,,,,,,,,,,,,,,,,,1060,2019_Mar_13_1245,mf_amp_cond2,3.0.4,59.98826388420665,
photocalkodes,&&&&&&&&&&&&&,right,nonword,,,,,,,,0,54,54,40,,,,,,,,,,,,,,,,,,,,,LDT,right,1.483936012169579,1,,,right,1,1.483936012169579,,,,,,,,,,,,,,,,,,,,,,1060,2019_Mar_13_1245,mf_amp_cond2,3.0.4,59.98826388420665,
mostly,&&&&&&,left,neutral,,,,,,,,0,55,55,134,,,,,,,,,,,,,,,,,,,,,LDT,right,0.6170772118202876,0,,,right,0,0.6170772118202876,,,,,,,,,,,,,,,,,,,,,,1060,2019_Mar_13_1245,mf_amp_cond2,3.0.4,59.98826388420665,
hasks,&&&&&,right,nonword,,,,,,,,0,56,56,102,,,,,,,,,,,,,,,,,,,,,LDT,right,1.5672883749939501,1,,,right,1,1.5672883749939501,,,,,,,,,,,,,,,,,,,,,,1060,2019_Mar_13_1245,mf_amp_cond2,3.0.4,59.98826388420665,
latter,&&&&&&,left,neutral,,,,,,,,0,57,57,118,,,,,,,,,,,,,,,,,,,,,LDT,right,1.3339120221789926,0,,,right,0,1.3339120221789926,,,,,,,,,,,,,,,,,,,,,,1060,2019_Mar_13_1245,mf_amp_cond2,3.0.4,59.98826388420665,
victims,&&&&&&&,left,care.vice,,,,,,,,0,58,58,152,,,,,,,,,,,,,,,,,,,,,LDT,right,0.6837690444372129,0,,,right,0,0.6837690444372129,,,,,,,,,,,,,,,,,,,,,,1060,2019_Mar_13_1245,mf_amp_cond2,3.0.4,59.98826388420665,
fornicalion,&&&&&&&&&&&,right,nonword,,,,,,,,0,59,59,17,,,,,,,,,,,,,,,,,,,,,LDT,left,1.8507117456174456,0,,,left,0,1.8507117456174456,,,,,,,,,,,,,,,,,,,,,,1060,2019_Mar_13_1245,mf_amp_cond2,3.0.4,59.98826388420665,
bluently,&&&&&&&&,None,nonword,,,,,,,,0,60,60,168,,,,,,,,,,,,,,,,,,,,,LDT,left,2.2174544446752407,0,,,left,0,2.2174544446752407,,,,,,,,,,,,,,,,,,,,,,1060,2019_Mar_13_1245,mf_amp_cond2,3.0.4,59.98826388420665,
proached,&&&&&&&&,right,nonword,,,,,,,,0,61,61,172,,,,,,,,,,,,,,,,,,,,,LDT,right,0.7670906179700978,1,,,right,1,0.7670906179700978,,,,,,,,,,,,,,,,,,,,,,1060,2019_Mar_13_1245,mf_amp_cond2,3.0.4,59.98826388420665,
wump,&&&&,right,nonword,,,,,,,,0,62,62,52,,,,,,,,,,,,,,,,,,,,,LDT,left,0.7337855936784763,0,,,left,0,0.7337855936784763,,,,,,,,,,,,,,,,,,,,,,1060,2019_Mar_13_1245,mf_amp_cond2,3.0.4,59.98826388420665,
with,&&&&,left,neutral,,,,,,,,0,63,63,79,,,,,,,,,,,,,,,,,,,,,LDT,right,0.9504876252904069,0,,,right,0,0.9504876252904069,,,,,,,,,,,,,,,,,,,,,,1060,2019_Mar_13_1245,mf_amp_cond2,3.0.4,59.98826388420665,
less,&&&&,left,neutral,,,,,,,,0,64,64,174,,,,,,,,,,,,,,,,,,,,,LDT,right,0.9505350920953788,0,,,right,0,0.9505350920953788,,,,,,,,,,,,,,,,,,,,,,1060,2019_Mar_13_1245,mf_amp_cond2,3.0.4,59.98826388420665,
hence,&&&&&,left,neutral,,,,,,,,0,65,65,149,,,,,,,,,,,,,,,,,,,,,LDT,right,0.7171196112467442,0,,,right,0,0.7171196112467442,,,,,,,,,,,,,,,,,,,,,,1060,2019_Mar_13_1245,mf_amp_cond2,3.0.4,59.98826388420665,
gationwide,&&&&&&&&&&,right,nonword,,,,,,,,0,66,66,145,,,,,,,,,,,,,,,,,,,,,LDT,right,1.6673298122477718,1,,,right,1,1.6673298122477718,,,,,,,,,,,,,,,,,,,,,,1060,2019_Mar_13_1245,mf_amp_cond2,3.0.4,59.98826388420665,
ban,&&&,left,loyalty.vice,,,,,,,,0,67,67,160,,,,,,,,,,,,,,,,,,,,,LDT,right,0.9672029989014845,0,,,right,0,0.9672029989014845,,,,,,,,,,,,,,,,,,,,,,1060,2019_Mar_13_1245,mf_amp_cond2,3.0.4,59.98826388420665,
fonderland,&&&&&&&&&&,right,nonword,,,,,,,,0,68,68,111,,,,,,,,,,,,,,,,,,,,,LDT,left,1.817376894177869,0,,,left,0,1.817376894177869,,,,,,,,,,,,,,,,,,,,,,1060,2019_Mar_13_1245,mf_amp_cond2,3.0.4,59.98826388420665,
hereby,&&&&&&,left,neutral,,,,,,,,0,69,69,146,,,,,,,,,,,,,,,,,,,,,LDT,right,0.7504576698702294,0,,,right,0,0.7504576698702294,,,,,,,,,,,,,,,,,,,,,,1060,2019_Mar_13_1245,mf_amp_cond2,3.0.4,59.98826388420665,
trust,&&&&&,left,authority.virtue,,,,,,,,0,70,70,164,,,,,,,,,,,,,,,,,,,,,LDT,right,0.7837861068546772,0,,,right,0,0.7837861068546772,,,,,,,,,,,,,,,,,,,,,,1060,2019_Mar_13_1245,mf_amp_cond2,3.0.4,59.98826388420665,
frojecting,&&&&&&&&&&,right,nonword,,,,,,,,0,71,71,45,,,,,,,,,,,,,,,,,,,,,LDT,right,2.0007027012470644,1,,,right,1,2.0007027012470644,,,,,,,,,,,,,,,,,,,,,,1060,2019_Mar_13_1245,mf_amp_cond2,3.0.4,59.98826388420665,
refused,&&&&&&&,left,authority.vice,,,,,,,,0,72,72,57,,,,,,,,,,,,,,,,,,,,,LDT,right,0.8171065257920418,0,,,right,0,0.8171065257920418,,,,,,,,,,,,,,,,,,,,,,1060,2019_Mar_13_1245,mf_amp_cond2,3.0.4,59.98826388420665,
shot,&&&&,left,care.vice,,,,,,,,0,73,73,98,,,,,,,,,,,,,,,,,,,,,LDT,right,0.8671538643247914,0,,,right,0,0.8671538643247914,,,,,,,,,,,,,,,,,,,,,,1060,2019_Mar_13_1245,mf_amp_cond2,3.0.4,59.98826388420665,
noone,&&&&&,left,neutral,,,,,,,,0,74,74,35,,,,,,,,,,,,,,,,,,,,,LDT,right,1.66733686812222,0,,,right,0,1.66733686812222,,,,,,,,,,,,,,,,,,,,,,1060,2019_Mar_13_1245,mf_amp_cond2,3.0.4,59.98826388420665,
shoirmaster,&&&&&&&&&&&,right,nonword,,,,,,,,0,75,75,129,,,,,,,,,,,,,,,,,,,,,LDT,left,0.983817665866809,0,,,left,0,0.983817665866809,,,,,,,,,,,,,,,,,,,,,,1060,2019_Mar_13_1245,mf_amp_cond2,3.0.4,59.98826388420665,
done,&&&&,left,neutral,,,,,,,,0,76,76,162,,,,,,,,,,,,,,,,,,,,,LDT,right,2.3508393928350415,0,,,right,0,2.3508393928350415,,,,,,,,,,,,,,,,,,,,,,1060,2019_Mar_13_1245,mf_amp_cond2,3.0.4,59.98826388420665,
nonobservalt,&&&&&&&&&&&&,right,nonword,,,,,,,,0,77,77,62,,,,,,,,,,,,,,,,,,,,,LDT,left,1.734004325902788,0,,,left,0,1.734004325902788,,,,,,,,,,,,,,,,,,,,,,1060,2019_Mar_13_1245,mf_amp_cond2,3.0.4,59.98826388420665,
brudent,&&&&&&&,right,nonword,,,,,,,,0,78,78,24,,,,,,,,,,,,,,,,,,,,,LDT,right,1.9507400332659017,1,,,right,1,1.9507400332659017,,,,,,,,,,,,,,,,,,,,,,1060,2019_Mar_13_1245,mf_amp_cond2,3.0.4,59.98826388420665,
framo,&&&&&,right,nonword,,,,,,,,0,79,79,74,,,,,,,,,,,,,,,,,,,,,LDT,left,0.967157135688467,0,,,left,0,0.967157135688467,,,,,,,,,,,,,,,,,,,,,,1060,2019_Mar_13_1245,mf_amp_cond2,3.0.4,59.98826388420665,
there,&&&&&,left,neutral,,,,,,,,0,80,80,92,,,,,,,,,,,,,,,,,,,,,LDT,right,0.7338375506224111,0,,,right,0,0.7338375506224111,,,,,,,,,,,,,,,,,,,,,,1060,2019_Mar_13_1245,mf_amp_cond2,3.0.4,59.98826388420665,
death,&&&&&,left,care.vice,,,,,,,,0,81,81,184,,,,,,,,,,,,,,,,,,,,,LDT,right,1.41728042109753,0,,,right,0,1.41728042109753,,,,,,,,,,,,,,,,,,,,,,1060,2019_Mar_13_1245,mf_amp_cond2,3.0.4,59.98826388420665,
greaks,&&&&&&,right,nonword,,,,,,,,0,82,82,8,,,,,,,,,,,,,,,,,,,,,LDT,right,1.3005848680913914,1,,,right,1,1.3005848680913914,,,,,,,,,,,,,,,,,,,,,,1060,2019_Mar_13_1245,mf_amp_cond2,3.0.4,59.98826388420665,
infet,&&&&&,right,nonword,,,,,,,,0,83,83,50,,,,,,,,,,,,,,,,,,,,,LDT,right,1.350620339915622,1,,,right,1,1.350620339915622,,,,,,,,,,,,,,,,,,,,,,1060,2019_Mar_13_1245,mf_amp_cond2,3.0.4,59.98826388420665,
Cunday,&&&&&&,None,nonword,,,,,,,,0,84,84,167,,,,,,,,,,,,,,,,,,,,,LDT,left,0.8337741118448321,0,,,left,0,0.8337741118448321,,,,,,,,,,,,,,,,,,,,,,1060,2019_Mar_13_1245,mf_amp_cond2,3.0.4,59.98826388420665,
also,&&&&,left,neutral,,,,,,,,0,85,85,191,,,,,,,,,,,,,,,,,,,,,LDT,right,1.4506229698308744,0,,,right,0,1.4506229698308744,,,,,,,,,,,,,,,,,,,,,,1060,2019_Mar_13_1245,mf_amp_cond2,3.0.4,59.98826388420665,
nomparisons,&&&&&&&&&&&,right,nonword,,,,,,,,0,86,86,163,,,,,,,,,,,,,,,,,,,,,LDT,left,1.300616940279724,0,,,left,0,1.300616940279724,,,,,,,,,,,,,,,,,,,,,,1060,2019_Mar_13_1245,mf_amp_cond2,3.0.4,59.98826388420665,
drug,&&&&,left,sanctity.vice,,,,,,,,0,87,87,10,,,,,,,,,,,,,,,,,,,,,LDT,right,1.417283307586331,0,,,right,0,1.417283307586331,,,,,,,,,,,,,,,,,,,,,,1060,2019_Mar_13_1245,mf_amp_cond2,3.0.4,59.98826388420665,
whither,&&&&&&&,left,neutral,,,,,,,,0,88,88,121,,,,,,,,,,,,,,,,,,,,,LDT,right,1.5839639791229274,0,,,right,0,1.5839639791229274,,,,,,,,,,,,,,,,,,,,,,1060,2019_Mar_13_1245,mf_amp_cond2,3.0.4,59.98826388420665,
gazily,&&&&&&,right,nonword,,,,,,,,0,89,89,193,,,,,,,,,,,,,,,,,,,,,LDT,left,1.4172573291289154,0,,,left,0,1.4172573291289154,,,,,,,,,,,,,,,,,,,,,,1060,2019_Mar_13_1245,mf_amp_cond2,3.0.4,59.98826388420665,
rorroborated,&&&&&&&&&&&&,right,nonword,,,,,,,,0,90,90,120,,,,,,,,,,,,,,,,,,,,,LDT,left,1.617319998156745,0,,,left,0,1.617319998156745,,,,,,,,,,,,,,,,,,,,,,1060,2019_Mar_13_1245,mf_amp_cond2,3.0.4,59.98826388420665,
scandal,&&&&&&&,left,sanctity.vice,,,,,,,,0,91,91,101,,,,,,,,,,,,,,,,,,,,,LDT,right,2.2841539746441413,0,,,right,0,2.2841539746441413,,,,,,,,,,,,,,,,,,,,,,1060,2019_Mar_13_1245,mf_amp_cond2,3.0.4,59.98826388420665,
neutralust,&&&&&&&&&&,right,nonword,,,,,,,,0,92,92,176,,,,,,,,,,,,,,,,,,,,,LDT,right,2.0340827744221315,1,,,right,1,2.0340827744221315,,,,,,,,,,,,,,,,,,,,,,1060,2019_Mar_13_1245,mf_amp_cond2,3.0.4,59.98826388420665,
honstables,&&&&&&&&&&,right,nonword,,,,,,,,0,93,93,154,,,,,,,,,,,,,,,,,,,,,LDT,right,1.5172875411226414,1,,,right,1,1.5172875411226414,,,,,,,,,,,,,,,,,,,,,,1060,2019_Mar_13_1245,mf_amp_cond2,3.0.4,59.98826388420665,
although,&&&&&&&&,left,neutral,,,,,,,,0,94,94,122,,,,,,,,,,,,,,,,,,,,,LDT,right,5.985099911224097,0,,,right,0,5.985099911224097,,,,,,,,,,,,,,,,,,,,,,1060,2019_Mar_13_1245,mf_amp_cond2,3.0.4,59.98826388420665,
smapper,&&&&&&&,right,nonword,,,,,,,,0,95,95,0,,,,,,,,,,,,,,,,,,,,,LDT,left,1.3339245303359348,0,,,left,0,1.3339245303359348,,,,,,,,,,,,,,,,,,,,,,1060,2019_Mar_13_1245,mf_amp_cond2,3.0.4,59.98826388420665,
restore,&&&&&&&,left,care.virtue,,,,,,,,0,96,96,180,,,,,,,,,,,,,,,,,,,,,LDT,right,1.0671886305499356,0,,,right,0,1.0671886305499356,,,,,,,,,,,,,,,,,,,,,,1060,2019_Mar_13_1245,mf_amp_cond2,3.0.4,59.98826388420665,
amoungst,&&&&&&&&,left,neutral,,,,,,,,0,97,97,158,,,,,,,,,,,,,,,,,,,,,LDT,right,1.3005579274904449,0,,,right,0,1.3005579274904449,,,,,,,,,,,,,,,,,,,,,,1060,2019_Mar_13_1245,mf_amp_cond2,3.0.4,59.98826388420665,
eight,&&&&&,left,neutral,,,,,,,,0,98,98,9,,,,,,,,,,,,,,,,,,,,,LDT,right,1.2505586972110905,0,,,right,0,1.2505586972110905,,,,,,,,,,,,,,,,,,,,,,1060,2019_Mar_13_1245,mf_amp_cond2,3.0.4,59.98826388420665,
three,&&&&&,left,neutral,,,,,,,,0,99,99,135,,,,,,,,,,,,,,,,,,,,,LDT,right,1.2672509788244497,0,,,right,0,1.2672509788244497,,,,,,,,,,,,,,,,,,,,,,1060,2019_Mar_13_1245,mf_amp_cond2,3.0.4,59.98826388420665,
Daptist,&&&&&&&,right,nonword,,,,,,,,0,100,100,26,,,,,,,,,,,,,,,,,,,,,LDT,left,1.1005382351577282,0,,,left,0,1.1005382351577282,,,,,,,,,,,,,,,,,,,,,,1060,2019_Mar_13_1245,mf_amp_cond2,3.0.4,59.98826388420665,
fighters,&&&&&&&&,left,authority.vice,,,,,,,,0,101,101,78,,,,,,,,,,,,,,,,,,,,,LDT,right,0.9171344927162863,0,,,right,0,0.9171344927162863,,,,,,,,,,,,,,,,,,,,,,1060,2019_Mar_13_1245,mf_amp_cond2,3.0.4,59.98826388420665,
gikely,&&&&&&,right,nonword,,,,,,,,0,102,102,69,,,,,,,,,,,,,,,,,,,,,LDT,left,1.0671713115880266,0,,,left,0,1.0671713115880266,,,,,,,,,,,,,,,,,,,,,,1060,2019_Mar_13_1245,mf_amp_cond2,3.0.4,59.98826388420665,
ebbitter,&&&&&&&&,right,nonword,,,,,,,,0,103,103,32,,,,,,,,,,,,,,,,,,,,,LDT,right,1.100501031440217,1,,,right,1,1.100501031440217,,,,,,,,,,,,,,,,,,,,,,1060,2019_Mar_13_1245,mf_amp_cond2,3.0.4,59.98826388420665,
focomotive,&&&&&&&&&&,right,nonword,,,,,,,,0,104,104,19,,,,,,,,,,,,,,,,,,,,,LDT,left,1.683992908190703,0,,,left,0,1.683992908190703,,,,,,,,,,,,,,,,,,,,,,1060,2019_Mar_13_1245,mf_amp_cond2,3.0.4,59.98826388420665,
lursuer,&&&&&&&,right,nonword,,,,,,,,0,105,105,182,,,,,,,,,,,,,,,,,,,,,LDT,right,1.7507007769308984,1,,,right,1,1.7507007769308984,,,,,,,,,,,,,,,,,,,,,,1060,2019_Mar_13_1245,mf_amp_cond2,3.0.4,59.98826388420665,
totalestic,&&&&&&&&&&,None,nonword,,,,,,,,0,106,106,136,,,,,,,,,,,,,,,,,,,,,LDT,left,1.00049006275367,0,,,left,0,1.00049006275367,,,,,,,,,,,,,,,,,,,,,,1060,2019_Mar_13_1245,mf_amp_cond2,3.0.4,59.98826388420665,
hefurbished,&&&&&&&&&&&,right,nonword,,,,,,,,0,107,107,132,,,,,,,,,,,,,,,,,,,,,LDT,left,1.450601481483318,0,,,left,0,1.450601481483318,,,,,,,,,,,,,,,,,,,,,,1060,2019_Mar_13_1245,mf_amp_cond2,3.0.4,59.98826388420665,
refuejing,&&&&&&&&&,right,nonword,,,,,,,,0,108,108,143,,,,,,,,,,,,,,,,,,,,,LDT,right,1.533994896657532,1,,,right,1,1.533994896657532,,,,,,,,,,,,,,,,,,,,,,1060,2019_Mar_13_1245,mf_amp_cond2,3.0.4,59.98826388420665,
amount,&&&&&&,left,neutral,,,,,,,,0,109,109,15,,,,,,,,,,,,,,,,,,,,,LDT,right,1.0505165543581825,0,,,right,0,1.0505165543581825,,,,,,,,,,,,,,,,,,,,,,1060,2019_Mar_13_1245,mf_amp_cond2,3.0.4,59.98826388420665,
iptervention,&&&&&&&&&&&&,right,nonword,,,,,,,,0,110,110,42,,,,,,,,,,,,,,,,,,,,,LDT,left,1.3337654523784295,0,,,left,0,1.3337654523784295,,,,,,,,,,,,,,,,,,,,,,1060,2019_Mar_13_1245,mf_amp_cond2,3.0.4,59.98826388420665,
injured,&&&&&&&,left,care.vice,,,,,,,,0,111,111,47,,,,,,,,,,,,,,,,,,,,,LDT,right,0.8671512985310983,0,,,right,0,0.8671512985310983,,,,,,,,,,,,,,,,,,,,,,1060,2019_Mar_13_1245,mf_amp_cond2,3.0.4,59.98826388420665,
love,&&&&,left,loyalty.virtue,,,,,,,,0,112,112,55,,,,,,,,,,,,,,,,,,,,,LDT,right,1.300568831997225,0,,,right,0,1.300568831997225,,,,,,,,,,,,,,,,,,,,,,1060,2019_Mar_13_1245,mf_amp_cond2,3.0.4,59.98826388420665,
pistraught,&&&&&&&&&&,right,nonword,,,,,,,,0,113,113,36,,,,,,,,,,,,,,,,,,,,,LDT,left,0.8671638066880405,0,,,left,0,0.8671638066880405,,,,,,,,,,,,,,,,,,,,,,1060,2019_Mar_13_1245,mf_amp_cond2,3.0.4,59.98826388420665,
sickyay,&&&&&&&,right,nonword,,,,,,,,0,114,114,29,,,,,,,,,,,,,,,,,,,,,LDT,left,4.468068947462598,0,,,left,0,4.468068947462598,,,,,,,,,,,,,,,,,,,,,,1060,2019_Mar_13_1245,mf_amp_cond2,3.0.4,59.98826388420665,
myself,&&&&&&,left,neutral,,,,,,,,0,115,115,179,,,,,,,,,,,,,,,,,,,,,LDT,right,0.6170756081992295,0,,,right,0,0.6170756081992295,,,,,,,,,,,,,,,,,,,,,,1060,2019_Mar_13_1245,mf_amp_cond2,3.0.4,59.98826388420665,
baklara,&&&&&&&,right,nonword,,,,,,,,0,116,116,115,,,,,,,,,,,,,,,,,,,,,LDT,right,1.350603983097244,1,,,right,1,1.350603983097244,,,,,,,,,,,,,,,,,,,,,,1060,2019_Mar_13_1245,mf_amp_cond2,3.0.4,59.98826388420665,
dormandi,&&&&&&&&,None,nonword,,,,,,,,0,117,117,41,,,,,,,,,,,,,,,,,,,,,LDT,left,1.3339303033135366,0,,,left,0,1.3339303033135366,,,,,,,,,,,,,,,,,,,,,,1060,2019_Mar_13_1245,mf_amp_cond2,3.0.4,59.98826388420665,
idexpressible,&&&&&&&&&&&&&,right,nonword,,,,,,,,0,118,118,188,,,,,,,,,,,,,,,,,,,,,LDT,left,1.300561455427669,0,,,left,0,1.300561455427669,,,,,,,,,,,,,,,,,,,,,,1060,2019_Mar_13_1245,mf_amp_cond2,3.0.4,59.98826388420665,
menizen,&&&&&&&,None,nonword,,,,,,,,0,119,119,58,,,,,,,,,,,,,,,,,,,,,LDT,left,0.7838024636439513,0,,,left,0,0.7838024636439513,,,,,,,,,,,,,,,,,,,,,,1060,2019_Mar_13_1245,mf_amp_cond2,3.0.4,59.98826388420665,
gaultless,&&&&&&&&&,right,nonword,,,,,,,,0,120,120,137,,,,,,,,,,,,,,,,,,,,,LDT,left,0.8169464856619015,0,,,left,0,0.8169464856619015,,,,,,,,,,,,,,,,,,,,,,1060,2019_Mar_13_1245,mf_amp_cond2,3.0.4,59.98826388420665,
erdest,&&&&&&,right,nonword,,,,,,,,0,121,121,39,,,,,,,,,,,,,,,,,,,,,LDT,left,0.7337528800708242,0,,,left,0,0.7337528800708242,,,,,,,,,,,,,,,,,,,,,,1060,2019_Mar_13_1245,mf_amp_cond2,3.0.4,59.98826388420665,
lempestuous,&&&&&&&&&&&,right,nonword,,,,,,,,0,122,122,96,,,,,,,,,,,,,,,,,,,,,LDT,left,0.9838340226560831,0,,,left,0,0.9838340226560831,,,,,,,,,,,,,,,,,,,,,,1060,2019_Mar_13_1245,mf_amp_cond2,3.0.4,59.98826388420665,
even,&&&&,left,neutral,,,,,,,,0,123,123,73,,,,,,,,,,,,,,,,,,,,,LDT,right,0.9171556603396311,0,,,right,0,0.9171556603396311,,,,,,,,,,,,,,,,,,,,,,1060,2019_Mar_13_1245,mf_amp_cond2,3.0.4,59.98826388420665,
gowlands,&&&&&&&&,right,nonword,,,,,,,,0,124,124,173,,,,,,,,,,,,,,,,,,,,,LDT,left,1.3172389838437084,0,,,left,0,1.3172389838437084,,,,,,,,,,,,,,,,,,,,,,1060,2019_Mar_13_1245,mf_amp_cond2,3.0.4,59.98826388420665,
pescinded,&&&&&&&&&,right,nonword,,,,,,,,0,125,125,28,,,,,,,,,,,,,,,,,,,,,LDT,left,0.7837655806797557,0,,,left,0,0.7837655806797557,,,,,,,,,,,,,,,,,,,,,,1060,2019_Mar_13_1245,mf_amp_cond2,3.0.4,59.98826388420665,
groups,&&&&&&,left,loyalty.vice,,,,,,,,0,126,126,106,,,,,,,,,,,,,,,,,,,,,LDT,right,0.6337512123282067,0,,,right,0,0.6337512123282067,,,,,,,,,,,,,,,,,,,,,,1060,2019_Mar_13_1245,mf_amp_cond2,3.0.4,59.98826388420665,
about,&&&&&,left,neutral,,,,,,,,0,127,127,178,,,,,,,,,,,,,,,,,,,,,LDT,right,0.8171283348638099,0,,,right,0,0.8171283348638099,,,,,,,,,,,,,,,,,,,,,,1060,2019_Mar_13_1245,mf_amp_cond2,3.0.4,59.98826388420665,
anything,&&&&&&&&,left,neutral,,,,,,,,0,128,128,107,,,,,,,,,,,,,,,,,,,,,LDT,right,0.7004096898890566,0,,,right,0,0.7004096898890566,,,,,,,,,,,,,,,,,,,,,,1060,2019_Mar_13_1245,mf_amp_cond2,3.0.4,59.98826388420665,
sliptery,&&&&&&&&,right,nonword,,,,,,,,0,129,129,108,,,,,,,,,,,,,,,,,,,,,LDT,right,1.0671822160948068,1,,,right,1,1.0671822160948068,,,,,,,,,,,,,,,,,,,,,,1060,2019_Mar_13_1245,mf_amp_cond2,3.0.4,59.98826388420665,
abuse,&&&&&,left,sanctity.vice,,,,,,,,0,130,130,72,,,,,,,,,,,,,,,,,,,,,LDT,right,1.0171756092458963,0,,,right,0,1.0171756092458963,,,,,,,,,,,,,,,,,,,,,,1060,2019_Mar_13_1245,mf_amp_cond2,3.0.4,59.98826388420665,
front,&&&&&,left,neutral,,,,,,,,0,131,131,196,,,,,,,,,,,,,,,,,,,,,LDT,right,0.7504640842962544,0,,,right,0,0.7504640842962544,,,,,,,,,,,,,,,,,,,,,,1060,2019_Mar_13_1245,mf_amp_cond2,3.0.4,59.98826388420665,
couldnt,&&&&&&&,left,neutral,,,,,,,,0,132,132,38,,,,,,,,,,,,,,,,,,,,,LDT,left,1.4172794589248952,1,,,left,1,1.4172794589248952,,,,,,,,,,,,,,,,,,,,,,1060,2019_Mar_13_1245,mf_amp_cond2,3.0.4,59.98826388420665,
edancipation,&&&&&&&&&&&&,None,nonword,,,,,,,,0,133,133,198,,,,,,,,,,,,,,,,,,,,,LDT,left,1.167202165001072,0,,,left,0,1.167202165001072,,,,,,,,,,,,,,,,,,,,,,1060,2019_Mar_13_1245,mf_amp_cond2,3.0.4,59.98826388420665,
everything,&&&&&&&&&&,left,neutral,,,,,,,,0,134,134,105,,,,,,,,,,,,,,,,,,,,,LDT,right,0.5670430228929035,0,,,right,0,0.5670430228929035,,,,,,,,,,,,,,,,,,,,,,1060,2019_Mar_13_1245,mf_amp_cond2,3.0.4,59.98826388420665,
sonvoy,&&&&&&,None,nonword,,,,,,,,0,135,135,82,,,,,,,,,,,,,,,,,,,,,LDT,right,1.2672545067616738,0,,,right,0,1.2672545067616738,,,,,,,,,,,,,,,,,,,,,,1060,2019_Mar_13_1245,mf_amp_cond2,3.0.4,59.98826388420665,
were,&&&&,left,neutral,,,,,,,,0,136,136,16,,,,,,,,,,,,,,,,,,,,,LDT,right,0.7504502932715695,0,,,right,0,0.7504502932715695,,,,,,,,,,,,,,,,,,,,,,1060,2019_Mar_13_1245,mf_amp_cond2,3.0.4,59.98826388420665,
grovelire,&&&&&&&&&,right,nonword,,,,,,,,0,137,137,88,,,,,,,,,,,,,,,,,,,,,LDT,left,1.7173367398208939,0,,,left,0,1.7173367398208939,,,,,,,,,,,,,,,,,,,,,,1060,2019_Mar_13_1245,mf_amp_cond2,3.0.4,59.98826388420665,
rebels,&&&&&&,left,authority.vice,,,,,,,,0,138,138,85,,,,,,,,,,,,,,,,,,,,,LDT,right,1.5173301971226465,0,,,right,0,1.5173301971226465,,,,,,,,,,,,,,,,,,,,,,1060,2019_Mar_13_1245,mf_amp_cond2,3.0.4,59.98826388420665,
pumber,&&&&&&,None,nonword,,,,,,,,0,139,139,51,,,,,,,,,,,,,,,,,,,,,LDT,left,1.0838603859883733,0,,,left,0,1.0838603859883733,,,,,,,,,,,,,,,,,,,,,,1060,2019_Mar_13_1245,mf_amp_cond2,3.0.4,59.98826388420665,
vicissifude,&&&&&&&&&&&,right,nonword,,,,,,,,0,140,140,133,,,,,,,,,,,,,,,,,,,,,LDT,left,1.1172276303113904,0,,,left,0,1.1172276303113904,,,,,,,,,,,,,,,,,,,,,,1060,2019_Mar_13_1245,mf_amp_cond2,3.0.4,59.98826388420665,
dramens,&&&&&&&,right,nonword,,,,,,,,0,141,141,70,,,,,,,,,,,,,,,,,,,,,LDT,right,1.017143216333352,1,,,right,1,1.017143216333352,,,,,,,,,,,,,,,,,,,,,,1060,2019_Mar_13_1245,mf_amp_cond2,3.0.4,59.98826388420665,
allears,&&&&&&&,right,nonword,,,,,,,,0,142,142,59,,,,,,,,,,,,,,,,,,,,,LDT,left,1.350581211852841,0,,,left,0,1.350581211852841,,,,,,,,,,,,,,,,,,,,,,1060,2019_Mar_13_1245,mf_amp_cond2,3.0.4,59.98826388420665,
harassment,&&&&&&&&&&,left,sanctity.vice,,,,,,,,0,143,143,165,,,,,,,,,,,,,,,,,,,,,LDT,right,1.217208130430663,0,,,right,0,1.217208130430663,,,,,,,,,,,,,,,,,,,,,,1060,2019_Mar_13_1245,mf_amp_cond2,3.0.4,59.98826388420665,
improve,&&&&&&&,left,care.virtue,,,,,,,,0,144,144,144,,,,,,,,,,,,,,,,,,,,,LDT,right,1.3172736217966303,0,,,right,0,1.3172736217966303,,,,,,,,,,,,,,,,,,,,,,1060,2019_Mar_13_1245,mf_amp_cond2,3.0.4,59.98826388420665,
mih,&&&,right,nonword,,,,,,,,0,145,145,199,,,,,,,,,,,,,,,,,,,,,LDT,left,1.0004887798859272,0,,,left,0,1.0004887798859272,,,,,,,,,,,,,,,,,,,,,,1060,2019_Mar_13_1245,mf_amp_cond2,3.0.4,59.98826388420665,
therefore,&&&&&&&&&,left,neutral,,,,,,,,0,146,146,37,,,,,,,,,,,,,,,,,,,,,LDT,right,1.1172087077284232,0,,,right,0,1.1172087077284232,,,,,,,,,,,,,,,,,,,,,,1060,2019_Mar_13_1245,mf_amp_cond2,3.0.4,59.98826388420665,
laming,&&&&&&,right,nonword,,,,,,,,0,147,147,80,,,,,,,,,,,,,,,,,,,,,LDT,left,0.8838172809919342,0,,,left,0,0.8838172809919342,,,,,,,,,,,,,,,,,,,,,,1060,2019_Mar_13_1245,mf_amp_cond2,3.0.4,59.98826388420665,
framatic,&&&&&&&&,right,nonword,,,,,,,,0,148,148,186,,,,,,,,,,,,,,,,,,,,,LDT,left,1.867384783923626,0,,,left,0,1.867384783923626,,,,,,,,,,,,,,,,,,,,,,1060,2019_Mar_13_1245,mf_amp_cond2,3.0.4,59.98826388420665,
else,&&&&,left,neutral,,,,,,,,0,149,149,142,,,,,,,,,,,,,,,,,,,,,LDT,right,0.7671217280148994,0,,,right,0,0.7671217280148994,,,,,,,,,,,,,,,,,,,,,,1060,2019_Mar_13_1245,mf_amp_cond2,3.0.4,59.98826388420665,
oam,&&&,right,nonword,,,,,,,,0,150,150,183,,,,,,,,,,,,,,,,,,,,,LDT,right,0.9505052649474237,1,,,right,1,0.9505052649474237,,,,,,,,,,,,,,,,,,,,,,1060,2019_Mar_13_1245,mf_amp_cond2,3.0.4,59.98826388420665,
hatigue,&&&&&&&,right,nonword,,,,,,,,0,151,151,103,,,,,,,,,,,,,,,,,,,,,LDT,left,0.8338270309614018,0,,,left,0,0.8338270309614018,,,,,,,,,,,,,,,,,,,,,,1060,2019_Mar_13_1245,mf_amp_cond2,3.0.4,59.98826388420665,
vurtain,&&&&&&&,right,nonword,,,,,,,,0,152,152,48,,,,,,,,,,,,,,,,,,,,,LDT,right,0.7504393887356855,1,,,right,1,0.7504393887356855,,,,,,,,,,,,,,,,,,,,,,1060,2019_Mar_13_1245,mf_amp_cond2,3.0.4,59.98826388420665,
anyhow,&&&&&&,left,neutral,,,,,,,,0,153,153,18,,,,,,,,,,,,,,,,,,,,,LDT,right,0.7504628014285117,0,,,right,0,0.7504628014285117,,,,,,,,,,,,,,,,,,,,,,1060,2019_Mar_13_1245,mf_amp_cond2,3.0.4,59.98826388420665,
agreement,&&&&&&&&&,left,fairness.virtue,,,,,,,,0,154,154,67,,,,,,,,,,,,,,,,,,,,,LDT,right,0.9838340226851869,0,,,right,0,0.9838340226851869,,,,,,,,,,,,,,,,,,,,,,1060,2019_Mar_13_1245,mf_amp_cond2,3.0.4,59.98826388420665,
gusinesslike,&&&&&&&&&&&&,right,nonword,,,,,,,,0,155,155,4,,,,,,,,,,,,,,,,,,,,,LDT,left,1.0172057570889592,0,,,left,0,1.0172057570889592,,,,,,,,,,,,,,,,,,,,,,1060,2019_Mar_13_1245,mf_amp_cond2,3.0.4,59.98826388420665,
nuckheap,&&&&&&&&,right,nonword,,,,,,,,0,156,156,130,,,,,,,,,,,,,,,,,,,,,LDT,left,0.833762245165417,0,,,left,0,0.833762245165417,,,,,,,,,,,,,,,,,,,,,,1060,2019_Mar_13_1245,mf_amp_cond2,3.0.4,59.98826388420665,
chressing,&&&&&&&&&,None,nonword,,,,,,,,0,157,157,22,,,,,,,,,,,,,,,,,,,,,LDT,right,0.9004678688070271,0,,,right,0,0.9004678688070271,,,,,,,,,,,,,,,,,,,,,,1060,2019_Mar_13_1245,mf_amp_cond2,3.0.4,59.98826388420665,
prison,&&&&&&,left,fairness.vice,,,,,,,,0,158,158,68,,,,,,,,,,,,,,,,,,,,,LDT,right,0.6004352835007012,0,,,right,0,0.6004352835007012,,,,,,,,,,,,,,,,,,,,,,1060,2019_Mar_13_1245,mf_amp_cond2,3.0.4,59.98826388420665,
troubla,&&&&&&&,right,nonword,,,,,,,,0,159,159,148,,,,,,,,,,,,,,,,,,,,,LDT,right,0.650446059735259,1,,,right,1,0.650446059735259,,,,,,,,,,,,,,,,,,,,,,1060,2019_Mar_13_1245,mf_amp_cond2,3.0.4,59.98826388420665,
precificity,&&&&&&&&&&&,right,nonword,,,,,,,,0,160,160,126,,,,,,,,,,,,,,,,,,,,,LDT,right,2.7342580167460255,1,,,right,1,2.7342580167460255,,,,,,,,,,,,,,,,,,,,,,1060,2019_Mar_13_1245,mf_amp_cond2,3.0.4,59.98826388420665,
celebrated,&&&&&&&&&&,left,authority.virtue,,,,,,,,0,161,161,155,,,,,,,,,,,,,,,,,,,,,LDT,right,0.9004691517038736,0,,,right,0,0.9004691517038736,,,,,,,,,,,,,,,,,,,,,,1060,2019_Mar_13_1245,mf_amp_cond2,3.0.4,59.98826388420665,
Lacedonia,&&&&&&&&&,right,nonword,,,,,,,,0,162,162,110,,,,,,,,,,,,,,,,,,,,,LDT,left,1.0171688740956597,0,,,left,0,1.0171688740956597,,,,,,,,,,,,,,,,,,,,,,1060,2019_Mar_13_1245,mf_amp_cond2,3.0.4,59.98826388420665,
each,&&&&,left,neutral,,,,,,,,0,163,163,71,,,,,,,,,,,,,,,,,,,,,LDT,right,0.6837600642465986,0,,,right,0,0.6837600642465986,,,,,,,,,,,,,,,,,,,,,,1060,2019_Mar_13_1245,mf_amp_cond2,3.0.4,59.98826388420665,
imebreaker,&&&&&&&&&&,right,nonword,,,,,,,,0,164,164,56,,,,,,,,,,,,,,,,,,,,,LDT,right,1.6506506801815704,1,,,right,1,1.6506506801815704,,,,,,,,,,,,,,,,,,,,,,1060,2019_Mar_13_1245,mf_amp_cond2,3.0.4,59.98826388420665,
perfect,&&&&&&&,left,sanctity.virtue,,,,,,,,0,165,165,104,,,,,,,,,,,,,,,,,,,,,LDT,right,2.7009199581225403,0,,,right,0,2.7009199581225403,,,,,,,,,,,,,,,,,,,,,,1060,2019_Mar_13_1245,mf_amp_cond2,3.0.4,59.98826388420665,
tabin,&&&&&,right,nonword,,,,,,,,0,166,166,161,,,,,,,,,,,,,,,,,,,,,LDT,left,0.7337644260551315,0,,,left,0,0.7337644260551315,,,,,,,,,,,,,,,,,,,,,,1060,2019_Mar_13_1245,mf_amp_cond2,3.0.4,59.98826388420665,
been,&&&&,left,neutral,,,,,,,,0,167,167,21,,,,,,,,,,,,,,,,,,,,,LDT,right,0.7004215566266794,0,,,right,0,0.7004215566266794,,,,,,,,,,,,,,,,,,,,,,1060,2019_Mar_13_1245,mf_amp_cond2,3.0.4,59.98826388420665,
become,&&&&&&,left,neutral,,,,,,,,0,168,168,11,,,,,,,,,,,,,,,,,,,,,LDT,right,0.5504206585756037,0,,,right,0,0.5504206585756037,,,,,,,,,,,,,,,,,,,,,,1060,2019_Mar_13_1245,mf_amp_cond2,3.0.4,59.98826388420665,
toward,&&&&&&,left,neutral,,,,,,,,0,169,169,177,,,,,,,,,,,,,,,,,,,,,LDT,right,0.717111593199661,0,,,right,0,0.717111593199661,,,,,,,,,,,,,,,,,,,,,,1060,2019_Mar_13_1245,mf_amp_cond2,3.0.4,59.98826388420665,
ittutable,&&&&&&&&&,right,nonword,,,,,,,,0,170,170,84,,,,,,,,,,,,,,,,,,,,,LDT,left,0.8338016939233057,0,,,left,0,0.8338016939233057,,,,,,,,,,,,,,,,,,,,,,1060,2019_Mar_13_1245,mf_amp_cond2,3.0.4,59.98826388420665,
health,&&&&&&,left,care.virtue,,,,,,,,0,171,171,14,,,,,,,,,,,,,,,,,,,,,LDT,right,0.9838074027793482,0,,,right,0,0.9838074027793482,,,,,,,,,,,,,,,,,,,,,,1060,2019_Mar_13_1245,mf_amp_cond2,3.0.4,59.98826388420665,
ensure,&&&&&&,left,fairness.virtue,,,,,,,,0,172,172,31,,,,,,,,,,,,,,,,,,,,,LDT,right,0.7837870689982083,0,,,right,0,0.7837870689982083,,,,,,,,,,,,,,,,,,,,,,1060,2019_Mar_13_1245,mf_amp_cond2,3.0.4,59.98826388420665,
free,&&&&,left,fairness.virtue,,,,,,,,0,173,173,61,,,,,,,,,,,,,,,,,,,,,LDT,right,0.9171261539449915,0,,,right,0,0.9171261539449915,,,,,,,,,,,,,,,,,,,,,,1060,2019_Mar_13_1245,mf_amp_cond2,3.0.4,59.98826388420665,
slavery,&&&&&&&,left,loyalty.vice,,,,,,,,0,174,174,7,,,,,,,,,,,,,,,,,,,,,LDT,right,0.7004186701087747,0,,,right,0,0.7004186701087747,,,,,,,,,,,,,,,,,,,,,,1060,2019_Mar_13_1245,mf_amp_cond2,3.0.4,59.98826388420665,
reviked,&&&&&&&,right,nonword,,,,,,,,0,175,175,194,,,,,,,,,,,,,,,,,,,,,LDT,right,2.350861522631021,1,,,right,1,2.350861522631021,,,,,,,,,,,,,,,,,,,,,,1060,2019_Mar_13_1245,mf_amp_cond2,3.0.4,59.98826388420665,
racist,&&&&&&,left,sanctity.vice,,,,,,,,0,176,176,114,,,,,,,,,,,,,,,,,,,,,LDT,right,0.7004844180773944,0,,,right,0,0.7004844180773944,,,,,,,,,,,,,,,,,,,,,,1060,2019_Mar_13_1245,mf_amp_cond2,3.0.4,59.98826388420665,
gournful,&&&&&&&&,right,nonword,,,,,,,,0,177,177,91,,,,,,,,,,,,,,,,,,,,,LDT,left,0.8171549547696486,0,,,left,0,0.8171549547696486,,,,,,,,,,,,,,,,,,,,,,1060,2019_Mar_13_1245,mf_amp_cond2,3.0.4,59.98826388420665,
ejanulated,&&&&&&&&&&,right,nonword,,,,,,,,0,178,178,44,,,,,,,,,,,,,,,,,,,,,LDT,left,2.050747473986121,0,,,left,0,2.050747473986121,,,,,,,,,,,,,,,,,,,,,,1060,2019_Mar_13_1245,mf_amp_cond2,3.0.4,59.98826388420665,
charges,&&&&&&&,left,fairness.vice,,,,,,,,0,179,179,97,,,,,,,,,,,,,,,,,,,,,LDT,right,0.7670999189140275,0,,,right,0,0.7670999189140275,,,,,,,,,,,,,,,,,,,,,,1060,2019_Mar_13_1245,mf_amp_cond2,3.0.4,59.98826388420665,
betrayal,&&&&&&&&,left,loyalty.vice,,,,,,,,0,180,180,25,,,,,,,,,,,,,,,,,,,,,LDT,right,0.5837596793717239,0,,,right,0,0.5837596793717239,,,,,,,,,,,,,,,,,,,,,,1060,2019_Mar_13_1245,mf_amp_cond2,3.0.4,59.98826388420665,
either,&&&&&&,left,neutral,,,,,,,,0,181,181,169,,,,,,,,,,,,,,,,,,,,,LDT,right,1.067125448375009,0,,,right,0,1.067125448375009,,,,,,,,,,,,,,,,,,,,,,1060,2019_Mar_13_1245,mf_amp_cond2,3.0.4,59.98826388420665,
loyalty,&&&&&&&,left,loyalty.virtue,,,,,,,,0,182,182,65,,,,,,,,,,,,,,,,,,,,,LDT,right,0.8171219204377849,0,,,right,0,0.8171219204377849,,,,,,,,,,,,,,,,,,,,,,1060,2019_Mar_13_1245,mf_amp_cond2,3.0.4,59.98826388420665,
itself,&&&&&&,left,neutral,,,,,,,,0,183,183,140,,,,,,,,,,,,,,,,,,,,,LDT,right,0.983945954561932,0,,,right,0,0.983945954561932,,,,,,,,,,,,,,,,,,,,,,1060,2019_Mar_13_1245,mf_amp_cond2,3.0.4,59.98826388420665,
glacenta,&&&&&&&&,right,nonword,,,,,,,,0,184,184,77,,,,,,,,,,,,,,,,,,,,,LDT,left,1.0005048159509897,0,,,left,0,1.0005048159509897,,,,,,,,,,,,,,,,,,,,,,1060,2019_Mar_13_1245,mf_amp_cond2,3.0.4,59.98826388420665,
besides,&&&&&&&,left,neutral,,,,,,,,0,185,185,185,,,,,,,,,,,,,,,,,,,,,LDT,right,0.7169611747085582,0,,,right,0,0.7169611747085582,,,,,,,,,,,,,,,,,,,,,,1060,2019_Mar_13_1245,mf_amp_cond2,3.0.4,59.98826388420665,
gandbrake,&&&&&&&&&,right,nonword,,,,,,,,0,186,186,60,,,,,,,,,,,,,,,,,,,,,LDT,left,1.4506040472479071,0,,,left,0,1.4506040472479071,,,,,,,,,,,,,,,,,,,,,,1060,2019_Mar_13_1245,mf_amp_cond2,3.0.4,59.98826388420665,
whereafter,&&&&&&&&&&,left,neutral,,,,,,,,0,187,187,53,,,,,,,,,,,,,,,,,,,,,LDT,right,2.3842040713934693,0,,,right,0,2.3842040713934693,,,,,,,,,,,,,,,,,,,,,,1060,2019_Mar_13_1245,mf_amp_cond2,3.0.4,59.98826388420665,
fontacts,&&&&&&&&,right,nonword,,,,,,,,0,188,188,2,,,,,,,,,,,,,,,,,,,,,LDT,left,1.0671559169422835,0,,,left,0,1.0671559169422835,,,,,,,,,,,,,,,,,,,,,,1060,2019_Mar_13_1245,mf_amp_cond2,3.0.4,59.98826388420665,
protect,&&&&&&&,left,fairness.virtue,,,,,,,,0,189,189,12,,,,,,,,,,,,,,,,,,,,,LDT,right,1.7506969282694627,0,,,right,0,1.7506969282694627,,,,,,,,,,,,,,,,,,,,,,1060,2019_Mar_13_1245,mf_amp_cond2,3.0.4,59.98826388420665,
powerful,&&&&&&&&,left,authority.virtue,,,,,,,,0,190,190,99,,,,,,,,,,,,,,,,,,,,,LDT,right,0.8004453541361727,0,,,right,0,0.8004453541361727,,,,,,,,,,,,,,,,,,,,,,1060,2019_Mar_13_1245,mf_amp_cond2,3.0.4,59.98826388420665,
great,&&&&&,left,loyalty.virtue,,,,,,,,0,191,191,3,,,,,,,,,,,,,,,,,,,,,LDT,right,0.8004552965285257,0,,,right,0,0.8004552965285257,,,,,,,,,,,,,,,,,,,,,,1060,2019_Mar_13_1245,mf_amp_cond2,3.0.4,59.98826388420665,
divility,&&&&&&&&,right,nonword,,,,,,,,0,192,192,5,,,,,,,,,,,,,,,,,,,,,LDT,right,0.9504812108643819,1,,,right,1,0.9504812108643819,,,,,,,,,,,,,,,,,,,,,,1060,2019_Mar_13_1245,mf_amp_cond2,3.0.4,59.98826388420665,
fifty,&&&&&,left,neutral,,,,,,,,0,193,193,166,,,,,,,,,,,,,,,,,,,,,LDT,right,1.300546060781926,0,,,right,0,1.300546060781926,,,,,,,,,,,,,,,,,,,,,,1060,2019_Mar_13_1245,mf_amp_cond2,3.0.4,59.98826388420665,
somehow,&&&&&&&,left,neutral,,,,,,,,0,194,194,93,,,,,,,,,,,,,,,,,,,,,LDT,right,1.0005060988478363,0,,,right,0,1.0005060988478363,,,,,,,,,,,,,,,,,,,,,,1060,2019_Mar_13_1245,mf_amp_cond2,3.0.4,59.98826388420665,
gedious,&&&&&&&,right,nonword,,,,,,,,0,195,195,128,,,,,,,,,,,,,,,,,,,,,LDT,right,1.8840940638328902,1,,,right,1,1.8840940638328902,,,,,,,,,,,,,,,,,,,,,,1060,2019_Mar_13_1245,mf_amp_cond2,3.0.4,59.98826388420665,
crime,&&&&&,left,fairness.vice,,,,,,,,0,196,196,157,,,,,,,,,,,,,,,,,,,,,LDT,right,0.6170759289525449,0,,,right,0,0.6170759289525449,,,,,,,,,,,,,,,,,,,,,,1060,2019_Mar_13_1245,mf_amp_cond2,3.0.4,59.98826388420665,
benefit,&&&&&&&,left,fairness.virtue,,,,,,,,0,197,197,83,,,,,,,,,,,,,,,,,,,,,LDT,right,0.4670237154350616,0,,,right,0,0.4670237154350616,,,,,,,,,,,,,,,,,,,,,,1060,2019_Mar_13_1245,mf_amp_cond2,3.0.4,59.98826388420665,
troops,&&&&&&,left,loyalty.vice,,,,,,,,0,198,198,119,,,,,,,,,,,,,,,,,,,,,LDT,right,0.7504528590361588,0,,,right,0,0.7504528590361588,,,,,,,,,,,,,,,,,,,,,,1060,2019_Mar_13_1245,mf_amp_cond2,3.0.4,59.98826388420665,
tracious,&&&&&&&&,right,nonword,,,,,,,,0,199,199,181,,,,,,,,,,,,,,,,,,,,,LDT,left,1.183837999618845,0,,,left,0,1.183837999618845,,,,,,,,,,,,,,,,,,,,,,1060,2019_Mar_13_1245,mf_amp_cond2,3.0.4,59.98826388420665,
,,,,,,,,,,,,,,,,,,,,,,,,,,,,,,,,,,,,,,,,,,,,3,16.423,,,,,,,,,,,,,,,,,,,,1060,2019_Mar_13_1245,mf_amp_cond2,3.0.4,59.98826388420665,
,,,,,,,,,,,,,,,,,,,,,,,,,,,,,,,,,,,,,,,,,,,,,,right,0.5337238868232816,,,,,,,,,,,,,,,,,,1060,2019_Mar_13_1245,mf_amp_cond2,3.0.4,59.98826388420665,
banana,&&&&&&,,,kacket,,,,,,,,,,,0,0,0,1,,,,,,,,,,,,,,,,,AMP_prac,left,1.1672165974741802,,,,,,,,,,,left,1.1672165974741802,,,,,,,,,,,,,,,,1060,2019_Mar_13_1245,mf_amp_cond2,3.0.4,59.98826388420665,
car,&&&&&&&&,,,cemtuper,,,,,,,,,,,0,1,1,0,,,,,,,,,,,,,,,,,AMP_prac,left,0.6337521744717378,,,,,,,,,,,left,0.6337521744717378,,,,,,,,,,,,,,,,1060,2019_Mar_13_1245,mf_amp_cond2,3.0.4,59.98826388420665,
scarf,&&&&&&&&,,,bisebell,,,,,,,,,,,0,2,2,3,,,,,,,,,,,,,,,,,AMP_prac,right,0.9671882456750609,,,,,,,,,,,right,0.9671882456750609,,,,,,,,,,,,,,,,1060,2019_Mar_13_1245,mf_amp_cond2,3.0.4,59.98826388420665,
keyboard,&&&&,,,senk,,,,,,,,,,,0,3,3,2,,,,,,,,,,,,,,,,,AMP_prac,left,0.6670626510749571,,,,,,,,,,,left,0.6670626510749571,,,,,,,,,,,,,,,,1060,2019_Mar_13_1245,mf_amp_cond2,3.0.4,59.98826388420665,
,,,,,,,,,,,,,,,,,,,,,,,,,,,,,,,,,,,,,,,,,,,,,,,,,,right,0.8171203168167267,,,,,,,,,,,,,,1060,2019_Mar_13_1245,mf_amp_cond2,3.0.4,59.98826388420665,
victim,&&&&,right,care.vice,ning,,,,,,,,,,,,,,,0,0,0,89,,,,,,,,,,,,,AMP,left,1.6006463183730375,0,,,,,,,,,,,,,,left,0,1.6006463183730375,,,,,,,,,,,1060,2019_Mar_13_1245,mf_amp_cond2,3.0.4,59.98826388420665,
civilians,&&&&&&&&&&,right,care.vice,frocessing,,,,,,,,,,,,,,,0,1,1,215,,,,,,,,,,,,,AMP,left,0.6337242716981564,0,,,,,,,,,,,,,,left,0,0.6337242716981564,,,,,,,,,,,1060,2019_Mar_13_1245,mf_amp_cond2,3.0.4,59.98826388420665,
terrorists,&&&&&&&&&&&&&,right,fairness.vice,synchronazers,,,,,,,,,,,,,,,0,2,2,172,,,,,,,,,,,,,AMP,left,1.2505388124554884,0,,,,,,,,,,,,,,left,0,1.2505388124554884,,,,,,,,,,,1060,2019_Mar_13_1245,mf_amp_cond2,3.0.4,59.98826388420665,
freedom,&&&&&&&,left,sanctity.virtue,scalbel,,,,,,,,,,,,,,,0,3,3,179,,,,,,,,,,,,,AMP,left,1.2005370164115448,1,,,,,,,,,,,,,,left,1,1.2005370164115448,,,,,,,,,,,1060,2019_Mar_13_1245,mf_amp_cond2,3.0.4,59.98826388420665,
faith,&&&&&&&&&&,left,sanctity.virtue,Oregoniuns,,,,,,,,,,,,,,,0,4,4,98,,,,,,,,,,,,,AMP,left,0.8837884160457179,1,,,,,,,,,,,,,,left,1,0.8837884160457179,,,,,,,,,,,1060,2019_Mar_13_1245,mf_amp_cond2,3.0.4,59.98826388420665,
peaceful,&&&&&,left,authority.virtue,ablow,,,,,,,,,,,,,,,0,5,5,270,,,,,,,,,,,,,AMP,left,1.483934087853413,1,,,,,,,,,,,,,,left,1,1.483934087853413,,,,,,,,,,,1060,2019_Mar_13_1245,mf_amp_cond2,3.0.4,59.98826388420665,
illegal,&&&&&&&,right,fairness.vice,Loorish,,,,,,,,,,,,,,,0,6,6,321,,,,,,,,,,,,,AMP,right,0.950470306299394,1,,,,,,,,,,,,,,right,1,0.950470306299394,,,,,,,,,,,1060,2019_Mar_13_1245,mf_amp_cond2,3.0.4,59.98826388420665,
care,&&&&&&&&,left,care.virtue,slending,,,,,,,,,,,,,,,0,7,7,228,,,,,,,,,,,,,AMP,left,0.7837514689017553,1,,,,,,,,,,,,,,left,1,0.7837514689017553,,,,,,,,,,,1060,2019_Mar_13_1245,mf_amp_cond2,3.0.4,59.98826388420665,
gun,&&&&&&&,right,authority.vice,emports,,,,,,,,,,,,,,,0,8,8,259,,,,,,,,,,,,,AMP,right,2.9342927830002736,1,,,,,,,,,,,,,,right,1,2.9342927830002736,,,,,,,,,,,1060,2019_Mar_13_1245,mf_amp_cond2,3.0.4,59.98826388420665,
commitment,&&&&&&&&,left,sanctity.virtue,crinking,,,,,,,,,,,,,,,0,9,9,102,,,,,,,,,,,,,AMP,left,0.5837096468021628,1,,,,,,,,,,,,,,left,1,0.5837096468021628,,,,,,,,,,,1060,2019_Mar_13_1245,mf_amp_cond2,3.0.4,59.98826388420665,
voter,&&&&&&&&,right,fairness.vice,drumbled,,,,,,,,,,,,,,,0,10,10,264,,,,,,,,,,,,,AMP,left,0.7337538422434591,0,,,,,,,,,,,,,,left,0,0.7337538422434591,,,,,,,,,,,1060,2019_Mar_13_1245,mf_amp_cond2,3.0.4,59.98826388420665,
terrorist,&&&&&&&,right,loyalty.vice,chreams,,,,,,,,,,,,,,,0,11,11,35,,,,,,,,,,,,,AMP,left,1.2172013952513225,0,,,,,,,,,,,,,,left,0,1.2172013952513225,,,,,,,,,,,1060,2019_Mar_13_1245,mf_amp_cond2,3.0.4,59.98826388420665,
conspiracy,&&&&&&&&,right,sanctity.vice,thabbily,,,,,,,,,,,,,,,0,12,12,192,,,,,,,,,,,,,AMP,left,0.6003608760656789,0,,,,,,,,,,,,,,left,0,0.6003608760656789,,,,,,,,,,,1060,2019_Mar_13_1245,mf_amp_cond2,3.0.4,59.98826388420665,
terrorist,&&&&&&&&,right,loyalty.vice,crinking,,,,,,,,,,,,,,,0,13,13,196,,,,,,,,,,,,,AMP,right,0.7504297670675442,1,,,,,,,,,,,,,,right,1,0.7504297670675442,,,,,,,,,,,1060,2019_Mar_13_1245,mf_amp_cond2,3.0.4,59.98826388420665,
protesters,&&&&&&&&,right,authority.vice,sfumatoy,,,,,,,,,,,,,,,0,14,14,143,,,,,,,,,,,,,AMP,left,0.8671391110983677,0,,,,,,,,,,,,,,left,0,0.8671391110983677,,,,,,,,,,,1060,2019_Mar_13_1245,mf_amp_cond2,3.0.4,59.98826388420665,
clamorek,&&&&&&&&,None,nonword,emassion,,,,,,,,,,,,,,,0,15,15,220,,,,,,,,,,,,,AMP,left,2.1174280813720543,0,,,,,,,,,,,,,,left,0,2.1174280813720543,,,,,,,,,,,1060,2019_Mar_13_1245,mf_amp_cond2,3.0.4,59.98826388420665,
tomedians,&&&&&&&&&&&,None,nonword,neneficence,,,,,,,,,,,,,,,0,16,16,146,,,,,,,,,,,,,AMP,left,0.5670372499153018,0,,,,,,,,,,,,,,left,0,0.5670372499153018,,,,,,,,,,,1060,2019_Mar_13_1245,mf_amp_cond2,3.0.4,59.98826388420665,
terrorists,&&&&&&&,right,fairness.vice,Loorish,,,,,,,,,,,,,,,0,17,17,104,,,,,,,,,,,,,AMP,left,2.18413210142171,0,,,,,,,,,,,,,,left,0,2.18413210142171,,,,,,,,,,,1060,2019_Mar_13_1245,mf_amp_cond2,3.0.4,59.98826388420665,
hate,&&&&&&&&&&&&,right,fairness.vice,feleological,,,,,,,,,,,,,,,0,18,18,160,,,,,,,,,,,,,AMP,left,0.5003502281033434,0,,,,,,,,,,,,,,left,0,0.5003502281033434,,,,,,,,,,,1060,2019_Mar_13_1245,mf_amp_cond2,3.0.4,59.98826388420665,
nackers,&&&&&&&,None,nonword,pharing,,,,,,,,,,,,,,,0,19,19,53,,,,,,,,,,,,,AMP,left,1.1171965202956926,0,,,,,,,,,,,,,,left,0,1.1171965202956926,,,,,,,,,,,1060,2019_Mar_13_1245,mf_amp_cond2,3.0.4,59.98826388420665,
freedom,&&&&,left,sanctity.virtue,coom,,,,,,,,,,,,,,,0,20,20,55,,,,,,,,,,,,,AMP,right,1.8006044321227819,0,,,,,,,,,,,,,,right,0,1.8006044321227819,,,,,,,,,,,1060,2019_Mar_13_1245,mf_amp_cond2,3.0.4,59.98826388420665,
suicide,&&&&&&,right,care.vice,fegard,,,,,,,,,,,,,,,0,21,21,302,,,,,,,,,,,,,AMP,left,0.8671121704974212,0,,,,,,,,,,,,,,left,0,0.8671121704974212,,,,,,,,,,,1060,2019_Mar_13_1245,mf_amp_cond2,3.0.4,59.98826388420665,
corruption,&&&&&&&&&&&&,right,sanctity.vice,quarterbocks,,,,,,,,,,,,,,,0,22,22,20,,,,,,,,,,,,,AMP,left,2.3008180327597074,0,,,,,,,,,,,,,,left,0,2.3008180327597074,,,,,,,,,,,1060,2019_Mar_13_1245,mf_amp_cond2,3.0.4,59.98826388420665,
army,&&&&&,right,loyalty.vice,aubos,,,,,,,,,,,,,,,0,23,23,131,,,,,,,,,,,,,AMP,left,0.5503552313602995,0,,,,,,,,,,,,,,left,0,0.5503552313602995,,,,,,,,,,,1060,2019_Mar_13_1245,mf_amp_cond2,3.0.4,59.98826388420665,
sharing,&&&&&&&&,left,loyalty.virtue,pullness,,,,,,,,,,,,,,,0,24,24,256,,,,,,,,,,,,,AMP,right,1.2005633155931719,0,,,,,,,,,,,,,,right,0,1.2005633155931719,,,,,,,,,,,1060,2019_Mar_13_1245,mf_amp_cond2,3.0.4,59.98826388420665,
violations,&&&&&&,right,sanctity.vice,fegard,,,,,,,,,,,,,,,0,25,25,219,,,,,,,,,,,,,AMP,left,0.6170525162597187,0,,,,,,,,,,,,,,left,0,0.6170525162597187,,,,,,,,,,,1060,2019_Mar_13_1245,mf_amp_cond2,3.0.4,59.98826388420665,
clamorek,&&&&,None,nonword,erks,,,,,,,,,,,,,,,0,26,26,290,,,,,,,,,,,,,AMP,left,0.7671082576853223,0,,,,,,,,,,,,,,left,0,0.7671082576853223,,,,,,,,,,,1060,2019_Mar_13_1245,mf_amp_cond2,3.0.4,59.98826388420665,
fear,&&&&&&&,right,sanctity.vice,emports,,,,,,,,,,,,,,,0,27,27,5,,,,,,,,,,,,,AMP,right,1.5171024847077206,1,,,,,,,,,,,,,,right,1,1.5171024847077206,,,,,,,,,,,1060,2019_Mar_13_1245,mf_amp_cond2,3.0.4,59.98826388420665,
promises,&&&&&&&&&&&&&,left,fairness.virtue,esquisiteness,,,,,,,,,,,,,,,0,28,28,300,,,,,,,,,,,,,AMP,right,0.9504648540169001,0,,,,,,,,,,,,,,right,0,0.9504648540169001,,,,,,,,,,,1060,2019_Mar_13_1245,mf_amp_cond2,3.0.4,59.98826388420665,
violations,&&&&&&&&,right,sanctity.vice,sidearbs,,,,,,,,,,,,,,,0,29,29,295,,,,,,,,,,,,,AMP,left,0.6503761424100958,0,,,,,,,,,,,,,,left,0,0.6503761424100958,,,,,,,,,,,1060,2019_Mar_13_1245,mf_amp_cond2,3.0.4,59.98826388420665,
praise,&&&&&&&&,left,authority.virtue,thadowed,,,,,,,,,,,,,,,0,30,30,317,,,,,,,,,,,,,AMP,left,0.600253434269689,1,,,,,,,,,,,,,,left,1,0.600253434269689,,,,,,,,,,,1060,2019_Mar_13_1245,mf_amp_cond2,3.0.4,59.98826388420665,
growth,&&&&&&&,left,care.virtue,nomaric,,,,,,,,,,,,,,,0,31,31,304,,,,,,,,,,,,,AMP,left,1.6506279089371674,1,,,,,,,,,,,,,,left,1,1.6506279089371674,,,,,,,,,,,1060,2019_Mar_13_1245,mf_amp_cond2,3.0.4,59.98826388420665,
win,&&&&&&,left,fairness.virtue,bycled,,,,,,,,,,,,,,,0,32,32,176,,,,,,,,,,,,,AMP,left,1.6839880973857362,1,,,,,,,,,,,,,,left,1,1.6839880973857362,,,,,,,,,,,1060,2019_Mar_13_1245,mf_amp_cond2,3.0.4,59.98826388420665,
growth,&&&&&&&,left,care.virtue,stindig,,,,,,,,,,,,,,,0,33,33,142,,,,,,,,,,,,,AMP,left,2.150726691237651,1,,,,,,,,,,,,,,left,1,2.150726691237651,,,,,,,,,,,1060,2019_Mar_13_1245,mf_amp_cond2,3.0.4,59.98826388420665,
rivernoat,&&&&&&&&&&&,None,nonword,shoirmaster,,,,,,,,,,,,,,,0,34,34,327,,,,,,,,,,,,,AMP,right,2.7509259235521313,0,,,,,,,,,,,,,,right,0,2.7509259235521313,,,,,,,,,,,1060,2019_Mar_13_1245,mf_amp_cond2,3.0.4,59.98826388420665,
win,&&&&&,left,fairness.virtue,scock,,,,,,,,,,,,,,,0,35,35,37,,,,,,,,,,,,,AMP,left,0.8671134533942677,1,,,,,,,,,,,,,,left,1,0.8671134533942677,,,,,,,,,,,1060,2019_Mar_13_1245,mf_amp_cond2,3.0.4,59.98826388420665,
pleasant,&&&&&&,None,control,openet,,,,,,,,,,,,,,,0,36,36,112,,,,,,,,,,,,,AMP,left,0.700384673604276,0,,,,,,,,,,,,,,left,0,0.700384673604276,,,,,,,,,,,1060,2019_Mar_13_1245,mf_amp_cond2,3.0.4,59.98826388420665,
ability,&&&&,left,authority.virtue,yane,,,,,,,,,,,,,,,0,37,37,134,,,,,,,,,,,,,AMP,left,0.5337219625071157,1,,,,,,,,,,,,,,left,1,0.5337219625071157,,,,,,,,,,,1060,2019_Mar_13_1245,mf_amp_cond2,3.0.4,59.98826388420665,
rejected,&&&&&&&,right,authority.vice,stindig,,,,,,,,,,,,,,,0,38,38,195,,,,,,,,,,,,,AMP,left,0.9838019505259581,0,,,,,,,,,,,,,,left,0,0.9838019505259581,,,,,,,,,,,1060,2019_Mar_13_1245,mf_amp_cond2,3.0.4,59.98826388420665,
embrace,&&&&&&&,left,authority.virtue,Loorish,,,,,,,,,,,,,,,0,39,39,178,,,,,,,,,,,,,AMP,left,0.917134813440498,1,,,,,,,,,,,,,,left,1,0.917134813440498,,,,,,,,,,,1060,2019_Mar_13_1245,mf_amp_cond2,3.0.4,59.98826388420665,
fair,&&&&&&&&&&&,left,fairness.virtue,blunderints,,,,,,,,,,,,,,,0,40,40,275,,,,,,,,,,,,,AMP,left,0.4503506771288812,1,,,,,,,,,,,,,,left,1,0.4503506771288812,,,,,,,,,,,1060,2019_Mar_13_1245,mf_amp_cond2,3.0.4,59.98826388420665,
embrace,&&&&&&&&&,left,authority.virtue,taxpayung,,,,,,,,,,,,,,,0,41,41,115,,,,,,,,,,,,,AMP,right,1.1338442216219846,0,,,,,,,,,,,,,,right,0,1.1338442216219846,,,,,,,,,,,1060,2019_Mar_13_1245,mf_amp_cond2,3.0.4,59.98826388420665,
strength,&&&&&,left,sanctity.virtue,lenon,,,,,,,,,,,,,,,0,42,42,150,,,,,,,,,,,,,AMP,left,0.7837649392022286,1,,,,,,,,,,,,,,left,1,0.7837649392022286,,,,,,,,,,,1060,2019_Mar_13_1245,mf_amp_cond2,3.0.4,59.98826388420665,
faith,&&&&&&&&&&&&&,left,sanctity.virtue,esquisiteness,,,,,,,,,,,,,,,0,43,43,233,,,,,,,,,,,,,AMP,right,0.8170943383593112,0,,,,,,,,,,,,,,right,0,0.8170943383593112,,,,,,,,,,,1060,2019_Mar_13_1245,mf_amp_cond2,3.0.4,59.98826388420665,
faspberry,&&&&&&&,None,nonword,chreams,,,,,,,,,,,,,,,0,44,44,206,,,,,,,,,,,,,AMP,left,0.5837250414479058,0,,,,,,,,,,,,,,left,0,0.5837250414479058,,,,,,,,,,,1060,2019_Mar_13_1245,mf_amp_cond2,3.0.4,59.98826388420665,
conspiracy,&&&&&&&&&&,right,sanctity.vice,Oregoniuns,,,,,,,,,,,,,,,0,45,45,319,,,,,,,,,,,,,AMP,left,1.7173300046706572,0,,,,,,,,,,,,,,left,0,1.7173300046706572,,,,,,,,,,,1060,2019_Mar_13_1245,mf_amp_cond2,3.0.4,59.98826388420665,
compassion,&&&&&,left,care.virtue,lenon,,,,,,,,,,,,,,,0,46,46,247,,,,,,,,,,,,,AMP,left,0.6837523669237271,1,,,,,,,,,,,,,,left,1,0.6837523669237271,,,,,,,,,,,1060,2019_Mar_13_1245,mf_amp_cond2,3.0.4,59.98826388420665,
violence,&&&&&&&&,right,care.vice,pullness,,,,,,,,,,,,,,,0,47,47,7,,,,,,,,,,,,,AMP,left,1.4339168971637264,0,,,,,,,,,,,,,,left,0,1.4339168971637264,,,,,,,,,,,1060,2019_Mar_13_1245,mf_amp_cond2,3.0.4,59.98826388420665,
hate,&&&&&&&&&,right,fairness.vice,godlaness,,,,,,,,,,,,,,,0,48,48,309,,,,,,,,,,,,,AMP,left,2.0507429839053657,0,,,,,,,,,,,,,,left,0,2.0507429839053657,,,,,,,,,,,1060,2019_Mar_13_1245,mf_amp_cond2,3.0.4,59.98826388420665,
asn,&&&&&&&&&&,None,nonword,ecgagement,,,,,,,,,,,,,,,0,49,49,97,,,,,,,,,,,,,AMP,left,0.3503108434670139,0,,,,,,,,,,,,,,left,0,0.3503108434670139,,,,,,,,,,,1060,2019_Mar_13_1245,mf_amp_cond2,3.0.4,59.98826388420665,
credit,&&&&&&&&&&,left,fairness.virtue,simplustic,,,,,,,,,,,,,,,0,50,50,75,,,,,,,,,,,,,AMP,right,1.1838646195246838,0,,,,,,,,,,,,,,right,0,1.1838646195246838,,,,,,,,,,,1060,2019_Mar_13_1245,mf_amp_cond2,3.0.4,59.98826388420665,
sharing,&&&&&&&&&&,left,loyalty.virtue,galamitous,,,,,,,,,,,,,,,0,51,51,14,,,,,,,,,,,,,AMP,left,0.6337220266577788,1,,,,,,,,,,,,,,left,1,0.6337220266577788,,,,,,,,,,,1060,2019_Mar_13_1245,mf_amp_cond2,3.0.4,59.98826388420665,
protesters,&&&&&&&,right,authority.vice,festate,,,,,,,,,,,,,,,0,52,52,166,,,,,,,,,,,,,AMP,left,1.617298189084977,0,,,,,,,,,,,,,,left,0,1.617298189084977,,,,,,,,,,,1060,2019_Mar_13_1245,mf_amp_cond2,3.0.4,59.98826388420665,
forced,&&&&,right,fairness.vice,yane,,,,,,,,,,,,,,,0,53,53,171,,,,,,,,,,,,,AMP,left,0.8504397735814564,0,,,,,,,,,,,,,,left,0,0.8504397735814564,,,,,,,,,,,1060,2019_Mar_13_1245,mf_amp_cond2,3.0.4,59.98826388420665,
rivernoat,&&&&&&&&&,None,nonword,baladroit,,,,,,,,,,,,,,,0,54,54,25,,,,,,,,,,,,,AMP,left,0.6837263884663116,0,,,,,,,,,,,,,,left,0,0.6837263884663116,,,,,,,,,,,1060,2019_Mar_13_1245,mf_amp_cond2,3.0.4,59.98826388420665,
clamorek,&&&&&&&&&&&&&,None,nonword,esquisiteness,,,,,,,,,,,,,,,0,55,55,21,,,,,,,,,,,,,AMP,right,0.6670761213463265,0,,,,,,,,,,,,,,right,0,0.6670761213463265,,,,,,,,,,,1060,2019_Mar_13_1245,mf_amp_cond2,3.0.4,59.98826388420665,
interests,&&&&&&&&,left,fairness.virtue,pullness,,,,,,,,,,,,,,,0,56,56,147,,,,,,,,,,,,,AMP,right,0.817096262704581,0,,,,,,,,,,,,,,right,0,0.817096262704581,,,,,,,,,,,1060,2019_Mar_13_1245,mf_amp_cond2,3.0.4,59.98826388420665,
gondensed,&&&&&&&&&,None,nonword,baladroit,,,,,,,,,,,,,,,0,57,57,316,,,,,,,,,,,,,AMP,left,5.06817773624789,0,,,,,,,,,,,,,,left,0,5.06817773624789,,,,,,,,,,,1060,2019_Mar_13_1245,mf_amp_cond2,3.0.4,59.98826388420665,
officers,&&&&&&&&,right,authority.vice,ugeasily,,,,,,,,,,,,,,,0,58,58,182,,,,,,,,,,,,,AMP,left,0.5670468715543393,0,,,,,,,,,,,,,,left,0,0.5670468715543393,,,,,,,,,,,1060,2019_Mar_13_1245,mf_amp_cond2,3.0.4,59.98826388420665,
disregord,&&&&&&&&,None,nonword,sidearbs,,,,,,,,,,,,,,,0,59,59,201,,,,,,,,,,,,,AMP,left,2.1341004782589152,0,,,,,,,,,,,,,,left,0,2.1341004782589152,,,,,,,,,,,1060,2019_Mar_13_1245,mf_amp_cond2,3.0.4,59.98826388420665,
killed,&&&&&&&&&&,right,care.vice,ecgagement,,,,,,,,,,,,,,,0,60,60,51,,,,,,,,,,,,,AMP,left,0.7504134102491662,0,,,,,,,,,,,,,,left,0,0.7504134102491662,,,,,,,,,,,1060,2019_Mar_13_1245,mf_amp_cond2,3.0.4,59.98826388420665,
blamed,&&&&,right,loyalty.vice,erks,,,,,,,,,,,,,,,0,61,61,183,,,,,,,,,,,,,AMP,left,2.584177579759853,0,,,,,,,,,,,,,,left,0,2.584177579759853,,,,,,,,,,,1060,2019_Mar_13_1245,mf_amp_cond2,3.0.4,59.98826388420665,
embrace,&&&&&&&&&,left,authority.virtue,fangsters,,,,,,,,,,,,,,,0,62,62,59,,,,,,,,,,,,,AMP,right,1.4005788385111373,0,,,,,,,,,,,,,,right,0,1.4005788385111373,,,,,,,,,,,1060,2019_Mar_13_1245,mf_amp_cond2,3.0.4,59.98826388420665,
good,&&&&&&&&&&&,left,care.virtue,ilportation,,,,,,,,,,,,,,,0,63,63,62,,,,,,,,,,,,,AMP,left,0.8671189056476578,1,,,,,,,,,,,,,,left,1,0.8671189056476578,,,,,,,,,,,1060,2019_Mar_13_1245,mf_amp_cond2,3.0.4,59.98826388420665,
care,&&&&&&&&&,left,care.virtue,crilfully,,,,,,,,,,,,,,,0,64,64,279,,,,,,,,,,,,,AMP,left,0.8671227543090936,1,,,,,,,,,,,,,,left,1,0.8671227543090936,,,,,,,,,,,1060,2019_Mar_13_1245,mf_amp_cond2,3.0.4,59.98826388420665,
integrity,&&&&&&&&,left,fairness.virtue,slending,,,,,,,,,,,,,,,0,65,65,274,,,,,,,,,,,,,AMP,left,1.4339146521233488,1,,,,,,,,,,,,,,left,1,1.4339146521233488,,,,,,,,,,,1060,2019_Mar_13_1245,mf_amp_cond2,3.0.4,59.98826388420665,
lies,&&&&&&&,right,fairness.vice,nomaric,,,,,,,,,,,,,,,0,66,66,114,,,,,,,,,,,,,AMP,left,2.084079118212685,0,,,,,,,,,,,,,,left,0,2.084079118212685,,,,,,,,,,,1060,2019_Mar_13_1245,mf_amp_cond2,3.0.4,59.98826388420665,
fraud,&&&&&&&&&&,right,fairness.vice,frocessing,,,,,,,,,,,,,,,0,67,67,122,,,,,,,,,,,,,AMP,left,0.6837873256008606,0,,,,,,,,,,,,,,left,0,0.6837873256008606,,,,,,,,,,,1060,2019_Mar_13_1245,mf_amp_cond2,3.0.4,59.98826388420665,
rivernoat,&&&&&,None,nonword,aubos,,,,,,,,,,,,,,,0,68,68,210,,,,,,,,,,,,,AMP,left,1.9007077686255798,0,,,,,,,,,,,,,,left,0,1.9007077686255798,,,,,,,,,,,1060,2019_Mar_13_1245,mf_amp_cond2,3.0.4,59.98826388420665,
voter,&&&&&&&&,right,fairness.vice,thabbily,,,,,,,,,,,,,,,0,69,69,0,,,,,,,,,,,,,AMP,right,0.8837855295278132,1,,,,,,,,,,,,,,right,1,0.8837855295278132,,,,,,,,,,,1060,2019_Mar_13_1245,mf_amp_cond2,3.0.4,59.98826388420665,
encourage,&&&&&&&&&&&&&,left,authority.virtue,wonderfujnoss,,,,,,,,,,,,,,,0,70,70,278,,,,,,,,,,,,,AMP,right,0.7837662220990751,0,,,,,,,,,,,,,,right,0,0.7837662220990751,,,,,,,,,,,1060,2019_Mar_13_1245,mf_amp_cond2,3.0.4,59.98826388420665,
hate,&&&&&&&&&,right,fairness.vice,godlaness,,,,,,,,,,,,,,,0,71,71,27,,,,,,,,,,,,,AMP,right,0.6169915791542735,1,,,,,,,,,,,,,,right,1,0.6169915791542735,,,,,,,,,,,1060,2019_Mar_13_1245,mf_amp_cond2,3.0.4,59.98826388420665,
fraud,&&&&&&&&&,right,fairness.vice,Phintoism,,,,,,,,,,,,,,,0,72,72,6,,,,,,,,,,,,,AMP,right,1.217214544856688,1,,,,,,,,,,,,,,right,1,1.217214544856688,,,,,,,,,,,1060,2019_Mar_13_1245,mf_amp_cond2,3.0.4,59.98826388420665,
illegal,&&&&&&&&&,right,fairness.vice,brotesque,,,,,,,,,,,,,,,0,73,73,52,,,,,,,,,,,,,AMP,right,0.9337898913654499,1,,,,,,,,,,,,,,right,1,0.9337898913654499,,,,,,,,,,,1060,2019_Mar_13_1245,mf_amp_cond2,3.0.4,59.98826388420665,
safe,&&&&,left,care.virtue,coom,,,,,,,,,,,,,,,0,74,74,223,,,,,,,,,,,,,AMP,right,0.6170768911251798,0,,,,,,,,,,,,,,right,0,0.6170768911251798,,,,,,,,,,,1060,2019_Mar_13_1245,mf_amp_cond2,3.0.4,59.98826388420665,
war,&&&&&&,right,sanctity.vice,chared,,,,,,,,,,,,,,,0,75,75,293,,,,,,,,,,,,,AMP,left,0.6837260677421,0,,,,,,,,,,,,,,left,0,0.6837260677421,,,,,,,,,,,1060,2019_Mar_13_1245,mf_amp_cond2,3.0.4,59.98826388420665,
credit,&&&&&&,left,fairness.virtue,Boeinf,,,,,,,,,,,,,,,0,76,76,237,,,,,,,,,,,,,AMP,left,0.46700222708750516,1,,,,,,,,,,,,,,left,1,0.46700222708750516,,,,,,,,,,,1060,2019_Mar_13_1245,mf_amp_cond2,3.0.4,59.98826388420665,
encourage,&&&&&&&&&&&,left,authority.virtue,shoirmaster,,,,,,,,,,,,,,,0,77,77,22,,,,,,,,,,,,,AMP,right,0.9504254052590113,0,,,,,,,,,,,,,,right,0,0.9504254052590113,,,,,,,,,,,1060,2019_Mar_13_1245,mf_amp_cond2,3.0.4,59.98826388420665,
hope,&&&&&&&&&&&&,left,loyalty.virtue,quarterbocks,,,,,,,,,,,,,,,0,78,78,94,,,,,,,,,,,,,AMP,left,0.6503889712912496,1,,,,,,,,,,,,,,left,1,0.6503889712912496,,,,,,,,,,,1060,2019_Mar_13_1245,mf_amp_cond2,3.0.4,59.98826388420665,
nackers,&&&&&&,None,nonword,squets,,,,,,,,,,,,,,,0,79,79,113,,,,,,,,,,,,,AMP,left,0.5837141369120218,0,,,,,,,,,,,,,,left,0,0.5837141369120218,,,,,,,,,,,1060,2019_Mar_13_1245,mf_amp_cond2,3.0.4,59.98826388420665,
fair,&&&&&&&&&&&,left,fairness.virtue,presentkess,,,,,,,,,,,,,,,0,80,80,229,,,,,,,,,,,,,AMP,left,0.6170589306857437,1,,,,,,,,,,,,,,left,1,0.6170589306857437,,,,,,,,,,,1060,2019_Mar_13_1245,mf_amp_cond2,3.0.4,59.98826388420665,
promised,&&&&&&&&,left,loyalty.virtue,epigrach,,,,,,,,,,,,,,,0,81,81,189,,,,,,,,,,,,,AMP,left,0.4336808460066095,1,,,,,,,,,,,,,,left,1,0.4336808460066095,,,,,,,,,,,1060,2019_Mar_13_1245,mf_amp_cond2,3.0.4,59.98826388420665,
serial,&&&&&&&&&&,right,sanctity.vice,simplustic,,,,,,,,,,,,,,,0,82,82,222,,,,,,,,,,,,,AMP,right,0.8504670349648222,1,,,,,,,,,,,,,,right,1,0.8504670349648222,,,,,,,,,,,1060,2019_Mar_13_1245,mf_amp_cond2,3.0.4,59.98826388420665,
safety,&&&&&&&&&,left,care.virtue,discovars,,,,,,,,,,,,,,,0,83,83,26,,,,,,,,,,,,,AMP,left,0.5670449472090695,1,,,,,,,,,,,,,,left,1,0.5670449472090695,,,,,,,,,,,1060,2019_Mar_13_1245,mf_amp_cond2,3.0.4,59.98826388420665,
useful,&&&&&&&&,left,authority.virtue,slending,,,,,,,,,,,,,,,0,84,84,83,,,,,,,,,,,,,AMP,left,0.6837353686860297,1,,,,,,,,,,,,,,left,1,0.6837353686860297,,,,,,,,,,,1060,2019_Mar_13_1245,mf_amp_cond2,3.0.4,59.98826388420665,
peace,&&&&&&&&&,left,care.virtue,crilfully,,,,,,,,,,,,,,,0,85,85,236,,,,,,,,,,,,,AMP,left,0.717193697928451,1,,,,,,,,,,,,,,left,1,0.717193697928451,,,,,,,,,,,1060,2019_Mar_13_1245,mf_amp_cond2,3.0.4,59.98826388420665,
opportunity,&&&&&,left,fairness.virtue,leact,,,,,,,,,,,,,,,0,86,86,305,,,,,,,,,,,,,AMP,left,0.8336323528783396,1,,,,,,,,,,,,,,left,1,0.8336323528783396,,,,,,,,,,,1060,2019_Mar_13_1245,mf_amp_cond2,3.0.4,59.98826388420665,
hand,&&&&&&&&&&&,left,sanctity.virtue,cromiscuity,,,,,,,,,,,,,,,0,87,87,76,,,,,,,,,,,,,AMP,left,0.6170512333628722,1,,,,,,,,,,,,,,left,1,0.6170512333628722,,,,,,,,,,,1060,2019_Mar_13_1245,mf_amp_cond2,3.0.4,59.98826388420665,
faith,&&&&&&&&&,left,sanctity.virtue,discovars,,,,,,,,,,,,,,,0,88,88,251,,,,,,,,,,,,,AMP,left,0.917135775584029,1,,,,,,,,,,,,,,left,1,0.917135775584029,,,,,,,,,,,1060,2019_Mar_13_1245,mf_amp_cond2,3.0.4,59.98826388420665,
fear,&&&&&&&&&&&,right,sanctity.vice,shoirmaster,,,,,,,,,,,,,,,0,89,89,168,,,,,,,,,,,,,AMP,right,0.8504352834715974,1,,,,,,,,,,,,,,right,1,0.8504352834715974,,,,,,,,,,,1060,2019_Mar_13_1245,mf_amp_cond2,3.0.4,59.98826388420665,
integrity,&&&&&&&,left,fairness.virtue,pharing,,,,,,,,,,,,,,,0,90,90,199,,,,,,,,,,,,,AMP,left,0.8671179434750229,1,,,,,,,,,,,,,,left,1,0.8671179434750229,,,,,,,,,,,1060,2019_Mar_13_1245,mf_amp_cond2,3.0.4,59.98826388420665,
freedom,&&&&&&&,left,sanctity.virtue,pharing,,,,,,,,,,,,,,,0,91,91,96,,,,,,,,,,,,,AMP,left,0.9338245293183718,1,,,,,,,,,,,,,,left,1,0.9338245293183718,,,,,,,,,,,1060,2019_Mar_13_1245,mf_amp_cond2,3.0.4,59.98826388420665,
tomedians,&&&&&&&&,None,nonword,drumbled,,,,,,,,,,,,,,,0,92,92,43,,,,,,,,,,,,,AMP,left,2.8676089684013277,0,,,,,,,,,,,,,,left,0,2.8676089684013277,,,,,,,,,,,1060,2019_Mar_13_1245,mf_amp_cond2,3.0.4,59.98826388420665,
gillipede,&&&&&&&&&&&,None,nonword,presentkess,,,,,,,,,,,,,,,0,93,93,117,,,,,,,,,,,,,AMP,left,0.31699202812160365,0,,,,,,,,,,,,,,left,0,0.31699202812160365,,,,,,,,,,,1060,2019_Mar_13_1245,mf_amp_cond2,3.0.4,59.98826388420665,
care,&&&&&&,left,care.virtue,fegard,,,,,,,,,,,,,,,0,94,94,70,,,,,,,,,,,,,AMP,left,0.7004241223621648,1,,,,,,,,,,,,,,left,1,0.7004241223621648,,,,,,,,,,,1060,2019_Mar_13_1245,mf_amp_cond2,3.0.4,59.98826388420665,
hand,&&&&&&,left,sanctity.virtue,forepo,,,,,,,,,,,,,,,0,95,95,242,,,,,,,,,,,,,AMP,left,0.9504735135415103,1,,,,,,,,,,,,,,left,1,0.9504735135415103,,,,,,,,,,,1060,2019_Mar_13_1245,mf_amp_cond2,3.0.4,59.98826388420665,
asn,&&&&&&,None,nonword,bycled,,,,,,,,,,,,,,,0,96,96,81,,,,,,,,,,,,,AMP,left,0.5837118918425404,0,,,,,,,,,,,,,,left,0,0.5837118918425404,,,,,,,,,,,1060,2019_Mar_13_1245,mf_amp_cond2,3.0.4,59.98826388420665,
disregord,&&&&&&&,None,nonword,halaise,,,,,,,,,,,,,,,0,97,97,32,,,,,,,,,,,,,AMP,left,2.300810976914363,0,,,,,,,,,,,,,,left,0,2.300810976914363,,,,,,,,,,,1060,2019_Mar_13_1245,mf_amp_cond2,3.0.4,59.98826388420665,
interests,&&&&&,left,fairness.virtue,viscs,,,,,,,,,,,,,,,0,98,98,36,,,,,,,,,,,,,AMP,right,1.0172063985373825,0,,,,,,,,,,,,,,right,0,1.0172063985373825,,,,,,,,,,,1060,2019_Mar_13_1245,mf_amp_cond2,3.0.4,59.98826388420665,
war,&&&&&,right,sanctity.vice,leact,,,,,,,,,,,,,,,0,99,99,84,,,,,,,,,,,,,AMP,left,0.5670391742314678,0,,,,,,,,,,,,,,left,0,0.5670391742314678,,,,,,,,,,,1060,2019_Mar_13_1245,mf_amp_cond2,3.0.4,59.98826388420665,
officers,&&&&&&&&&&,right,authority.vice,ammessment,,,,,,,,,,,,,,,0,100,100,257,,,,,,,,,,,,,AMP,right,0.6837546119641047,1,,,,,,,,,,,,,,right,1,0.6837546119641047,,,,,,,,,,,1060,2019_Mar_13_1245,mf_amp_cond2,3.0.4,59.98826388420665,
violations,&&&&&,right,sanctity.vice,noped,,,,,,,,,,,,,,,0,101,101,100,,,,,,,,,,,,,AMP,right,1.1171785598853603,1,,,,,,,,,,,,,,right,1,1.1171785598853603,,,,,,,,,,,1060,2019_Mar_13_1245,mf_amp_cond2,3.0.4,59.98826388420665,
supervuned,&&&&&,None,nonword,dumid,,,,,,,,,,,,,,,0,102,102,226,,,,,,,,,,,,,AMP,left,0.9169815084605943,0,,,,,,,,,,,,,,left,0,0.9169815084605943,,,,,,,,,,,1060,2019_Mar_13_1245,mf_amp_cond2,3.0.4,59.98826388420665,
asn,&&&&&&&&,None,nonword,thadowed,,,,,,,,,,,,,,,0,103,103,185,,,,,,,,,,,,,AMP,left,0.7837501860049088,0,,,,,,,,,,,,,,left,0,0.7837501860049088,,,,,,,,,,,1060,2019_Mar_13_1245,mf_amp_cond2,3.0.4,59.98826388420665,
critics,&&&&&&&&,right,loyalty.vice,sfumatoy,,,,,,,,,,,,,,,0,104,104,67,,,,,,,,,,,,,AMP,left,1.2505388124554884,0,,,,,,,,,,,,,,left,0,1.2505388124554884,,,,,,,,,,,1060,2019_Mar_13_1245,mf_amp_cond2,3.0.4,59.98826388420665,
good,&&&&&&&&&&,left,care.virtue,simplustic,,,,,,,,,,,,,,,0,105,105,116,,,,,,,,,,,,,AMP,right,1.800686216156464,0,,,,,,,,,,,,,,right,0,1.800686216156464,,,,,,,,,,,1060,2019_Mar_13_1245,mf_amp_cond2,3.0.4,59.98826388420665,
army,&&&&&&&&&&&&,right,loyalty.vice,bruthfulness,,,,,,,,,,,,,,,0,106,106,244,,,,,,,,,,,,,AMP,left,2.2841575025813654,0,,,,,,,,,,,,,,left,0,2.2841575025813654,,,,,,,,,,,1060,2019_Mar_13_1245,mf_amp_cond2,3.0.4,59.98826388420665,
killed,&&&&&&&&&,right,care.vice,Phintoism,,,,,,,,,,,,,,,0,107,107,162,,,,,,,,,,,,,AMP,left,1.3172319279692601,0,,,,,,,,,,,,,,left,0,1.3172319279692601,,,,,,,,,,,1060,2019_Mar_13_1245,mf_amp_cond2,3.0.4,59.98826388420665,
support,&&&&&&&,left,loyalty.virtue,festate,,,,,,,,,,,,,,,0,108,108,248,,,,,,,,,,,,,AMP,left,1.3339091356901918,1,,,,,,,,,,,,,,left,1,1.3339091356901918,,,,,,,,,,,1060,2019_Mar_13_1245,mf_amp_cond2,3.0.4,59.98826388420665,
friends,&&&&&&&&&&&&,left,loyalty.virtue,unreflectuve,,,,,,,,,,,,,,,0,109,109,307,,,,,,,,,,,,,AMP,left,1.200540544348769,1,,,,,,,,,,,,,,left,1,1.200540544348769,,,,,,,,,,,1060,2019_Mar_13_1245,mf_amp_cond2,3.0.4,59.98826388420665,
strength,&&&&&&&&&,left,sanctity.virtue,taxpayung,,,,,,,,,,,,,,,0,110,110,267,,,,,,,,,,,,,AMP,left,1.1505265608720947,1,,,,,,,,,,,,,,left,1,1.1505265608720947,,,,,,,,,,,1060,2019_Mar_13_1245,mf_amp_cond2,3.0.4,59.98826388420665,
violence,&&&&&&,right,care.vice,letish,,,,,,,,,,,,,,,0,111,111,296,,,,,,,,,,,,,AMP,left,0.6670571987924632,0,,,,,,,,,,,,,,left,0,0.6670571987924632,,,,,,,,,,,1060,2019_Mar_13_1245,mf_amp_cond2,3.0.4,59.98826388420665,
failure,&&&&&&&&&&&&,right,loyalty.vice,bruthfulness,,,,,,,,,,,,,,,0,112,112,269,,,,,,,,,,,,,AMP,left,6.001740235951729,0,,,,,,,,,,,,,,left,0,6.001740235951729,,,,,,,,,,,1060,2019_Mar_13_1245,mf_amp_cond2,3.0.4,59.98826388420665,
protesters,&&&&&&&&&&&&,right,authority.vice,feleological,,,,,,,,,,,,,,,0,113,113,77,,,,,,,,,,,,,AMP,left,1.0171592524275184,0,,,,,,,,,,,,,,left,0,1.0171592524275184,,,,,,,,,,,1060,2019_Mar_13_1245,mf_amp_cond2,3.0.4,59.98826388420665,
suicide,&&&&&&&&,right,care.vice,pullness,,,,,,,,,,,,,,,0,114,114,174,,,,,,,,,,,,,AMP,left,0.7670938252122141,0,,,,,,,,,,,,,,left,0,0.7670938252122141,,,,,,,,,,,1060,2019_Mar_13_1245,mf_amp_cond2,3.0.4,59.98826388420665,
sharing,&&&&&&&&,left,loyalty.virtue,epigrach,,,,,,,,,,,,,,,0,115,115,144,,,,,,,,,,,,,AMP,left,1.083836973324651,1,,,,,,,,,,,,,,left,1,1.083836973324651,,,,,,,,,,,1060,2019_Mar_13_1245,mf_amp_cond2,3.0.4,59.98826388420665,
tomedians,&&&&&&&,None,nonword,chadows,,,,,,,,,,,,,,,0,116,116,217,,,,,,,,,,,,,AMP,left,0.5003486244822852,0,,,,,,,,,,,,,,left,0,0.5003486244822852,,,,,,,,,,,1060,2019_Mar_13_1245,mf_amp_cond2,3.0.4,59.98826388420665,
praised,&&&&&&&&,left,loyalty.virtue,epigrach,,,,,,,,,,,,,,,0,117,117,262,,,,,,,,,,,,,AMP,left,0.6337133671622723,1,,,,,,,,,,,,,,left,1,0.6337133671622723,,,,,,,,,,,1060,2019_Mar_13_1245,mf_amp_cond2,3.0.4,59.98826388420665,
faspberry,&&&&&&,None,nonword,squets,,,,,,,,,,,,,,,0,118,118,50,,,,,,,,,,,,,AMP,left,0.6503864055266604,0,,,,,,,,,,,,,,left,0,0.6503864055266604,,,,,,,,,,,1060,2019_Mar_13_1245,mf_amp_cond2,3.0.4,59.98826388420665,
gondensed,&&&&&&&&&,None,nonword,discovars,,,,,,,,,,,,,,,0,119,119,202,,,,,,,,,,,,,AMP,left,0.617041290999623,0,,,,,,,,,,,,,,left,0,0.617041290999623,,,,,,,,,,,1060,2019_Mar_13_1245,mf_amp_cond2,3.0.4,59.98826388420665,
useful,&&&&&&,left,authority.virtue,Boeinf,,,,,,,,,,,,,,,0,120,120,297,,,,,,,,,,,,,AMP,left,1.4839267112256493,1,,,,,,,,,,,,,,left,1,1.4839267112256493,,,,,,,,,,,1060,2019_Mar_13_1245,mf_amp_cond2,3.0.4,59.98826388420665,
promises,&&&&&&&&,left,fairness.virtue,hescribe,,,,,,,,,,,,,,,0,121,121,10,,,,,,,,,,,,,AMP,left,0.7170856147131417,1,,,,,,,,,,,,,,left,1,0.7170856147131417,,,,,,,,,,,1060,2019_Mar_13_1245,mf_amp_cond2,3.0.4,59.98826388420665,
sharing,&&&&&&&&&&&,left,loyalty.virtue,ronviolence,,,,,,,,,,,,,,,0,122,122,232,,,,,,,,,,,,,AMP,left,1.517268939234782,1,,,,,,,,,,,,,,left,1,1.517268939234782,,,,,,,,,,,1060,2019_Mar_13_1245,mf_amp_cond2,3.0.4,59.98826388420665,
freedom,&&&&&&,left,sanctity.virtue,tislay,,,,,,,,,,,,,,,0,123,123,315,,,,,,,,,,,,,AMP,left,1.200525791180553,1,,,,,,,,,,,,,,left,1,1.200525791180553,,,,,,,,,,,1060,2019_Mar_13_1245,mf_amp_cond2,3.0.4,59.98826388420665,
voter,&&&&&&&,right,fairness.vice,festate,,,,,,,,,,,,,,,0,124,124,93,,,,,,,,,,,,,AMP,left,1.9340397335763555,0,,,,,,,,,,,,,,left,0,1.9340397335763555,,,,,,,,,,,1060,2019_Mar_13_1245,mf_amp_cond2,3.0.4,59.98826388420665,
conspiracy,&&&&&&,right,sanctity.vice,forepo,,,,,,,,,,,,,,,0,125,125,127,,,,,,,,,,,,,AMP,right,0.6337319690210279,1,,,,,,,,,,,,,,right,1,0.6337319690210279,,,,,,,,,,,1060,2019_Mar_13_1245,mf_amp_cond2,3.0.4,59.98826388420665,
hand,&&&&&&,left,sanctity.virtue,bycled,,,,,,,,,,,,,,,0,126,126,124,,,,,,,,,,,,,AMP,left,0.8671355831611436,1,,,,,,,,,,,,,,left,1,0.8671355831611436,,,,,,,,,,,1060,2019_Mar_13_1245,mf_amp_cond2,3.0.4,59.98826388420665,
respect,&&&&&,left,sanctity.virtue,leact,,,,,,,,,,,,,,,0,127,127,42,,,,,,,,,,,,,AMP,left,0.817159124155296,1,,,,,,,,,,,,,,left,1,0.817159124155296,,,,,,,,,,,1060,2019_Mar_13_1245,mf_amp_cond2,3.0.4,59.98826388420665,
safe,&&&&&&&,left,care.virtue,carvels,,,,,,,,,,,,,,,0,128,128,299,,,,,,,,,,,,,AMP,right,0.717073427309515,0,,,,,,,,,,,,,,right,0,0.717073427309515,,,,,,,,,,,1060,2019_Mar_13_1245,mf_amp_cond2,3.0.4,59.98826388420665,
failure,&&&&&&,right,loyalty.vice,openet,,,,,,,,,,,,,,,0,129,129,44,,,,,,,,,,,,,AMP,right,1.5006007117626723,1,,,,,,,,,,,,,,right,1,1.5006007117626723,,,,,,,,,,,1060,2019_Mar_13_1245,mf_amp_cond2,3.0.4,59.98826388420665,
failure,&&&&&&&&&&&&&,right,loyalty.vice,synchronazers,,,,,,,,,,,,,,,0,130,130,137,,,,,,,,,,,,,AMP,left,0.5503658151719719,0,,,,,,,,,,,,,,left,0,0.5503658151719719,,,,,,,,,,,1060,2019_Mar_13_1245,mf_amp_cond2,3.0.4,59.98826388420665,
officers,&&&&&&&&&,right,authority.vice,discovars,,,,,,,,,,,,,,,0,131,131,140,,,,,,,,,,,,,AMP,left,1.2005309227097314,0,,,,,,,,,,,,,,left,0,1.2005309227097314,,,,,,,,,,,1060,2019_Mar_13_1245,mf_amp_cond2,3.0.4,59.98826388420665,
unpleasant,&&&&&&,None,control,chared,,,,,,,,,,,,,,,0,132,132,11,,,,,,,,,,,,,AMP,left,2.0840832875983324,0,,,,,,,,,,,,,,left,0,2.0840832875983324,,,,,,,,,,,1060,2019_Mar_13_1245,mf_amp_cond2,3.0.4,59.98826388420665,
voter,&&&&&&&,right,fairness.vice,carvels,,,,,,,,,,,,,,,0,133,133,186,,,,,,,,,,,,,AMP,right,0.8336259384232108,1,,,,,,,,,,,,,,right,1,0.8336259384232108,,,,,,,,,,,1060,2019_Mar_13_1245,mf_amp_cond2,3.0.4,59.98826388420665,
friends,&&&&&,left,loyalty.virtue,dumid,,,,,,,,,,,,,,,0,134,134,99,,,,,,,,,,,,,AMP,left,0.6003874959715176,1,,,,,,,,,,,,,,left,1,0.6003874959715176,,,,,,,,,,,1060,2019_Mar_13_1245,mf_amp_cond2,3.0.4,59.98826388420665,
black,&&&&&&&,right,loyalty.vice,scalbel,,,,,,,,,,,,,,,0,135,135,154,,,,,,,,,,,,,AMP,left,3.0508661410131026,0,,,,,,,,,,,,,,left,0,3.0508661410131026,,,,,,,,,,,1060,2019_Mar_13_1245,mf_amp_cond2,3.0.4,59.98826388420665,
arrests,&&&&&&&&,right,authority.vice,hescribe,,,,,,,,,,,,,,,0,136,136,266,,,,,,,,,,,,,AMP,left,6.11843226099154,0,,,,,,,,,,,,,,left,0,6.11843226099154,,,,,,,,,,,1060,2019_Mar_13_1245,mf_amp_cond2,3.0.4,59.98826388420665,
gondensed,&&&&&&&&&,None,nonword,seachwear,,,,,,,,,,,,,,,0,137,137,145,,,,,,,,,,,,,AMP,left,0.40034952250425704,0,,,,,,,,,,,,,,left,0,0.40034952250425704,,,,,,,,,,,1060,2019_Mar_13_1245,mf_amp_cond2,3.0.4,59.98826388420665,
gillipede,&&&&&&&&,None,nonword,thabbily,,,,,,,,,,,,,,,0,138,138,288,,,,,,,,,,,,,AMP,left,1.2672217931540217,0,,,,,,,,,,,,,,left,0,1.2672217931540217,,,,,,,,,,,1060,2019_Mar_13_1245,mf_amp_cond2,3.0.4,59.98826388420665,
supervuned,&&&&&&&&&&&,None,nonword,blunderints,,,,,,,,,,,,,,,0,139,139,61,,,,,,,,,,,,,AMP,left,0.5503658151719719,0,,,,,,,,,,,,,,left,0,0.5503658151719719,,,,,,,,,,,1060,2019_Mar_13_1245,mf_amp_cond2,3.0.4,59.98826388420665,
men,&&&&&&&&&&,right,loyalty.vice,abointment,,,,,,,,,,,,,,,0,140,140,153,,,,,,,,,,,,,AMP,right,1.2672115300956648,1,,,,,,,,,,,,,,right,1,1.2672115300956648,,,,,,,,,,,1060,2019_Mar_13_1245,mf_amp_cond2,3.0.4,59.98826388420665,
prosecution,&&&&&&&&,right,authority.vice,suggists,,,,,,,,,,,,,,,0,141,141,252,,,,,,,,,,,,,AMP,left,0.7337422962591518,0,,,,,,,,,,,,,,left,0,0.7337422962591518,,,,,,,,,,,1060,2019_Mar_13_1245,mf_amp_cond2,3.0.4,59.98826388420665,
terrorists,&&&&&&&&&,right,fairness.vice,fangsters,,,,,,,,,,,,,,,0,142,142,261,,,,,,,,,,,,,AMP,left,0.783773598697735,0,,,,,,,,,,,,,,left,0,0.783773598697735,,,,,,,,,,,1060,2019_Mar_13_1245,mf_amp_cond2,3.0.4,59.98826388420665,
rejected,&&&&&&&&,right,authority.vice,emassion,,,,,,,,,,,,,,,0,143,143,72,,,,,,,,,,,,,AMP,left,1.133849353180267,0,,,,,,,,,,,,,,left,0,1.133849353180267,,,,,,,,,,,1060,2019_Mar_13_1245,mf_amp_cond2,3.0.4,59.98826388420665,
strength,&&&&&&&&&,left,sanctity.virtue,fangsters,,,,,,,,,,,,,,,0,144,144,190,,,,,,,,,,,,,AMP,left,0.7335222811670974,1,,,,,,,,,,,,,,left,1,0.7335222811670974,,,,,,,,,,,1060,2019_Mar_13_1245,mf_amp_cond2,3.0.4,59.98826388420665,
sexual,&&&&&&&&,right,sanctity.vice,thadowed,,,,,,,,,,,,,,,0,145,145,13,,,,,,,,,,,,,AMP,left,2.217453161778394,0,,,,,,,,,,,,,,left,0,2.217453161778394,,,,,,,,,,,1060,2019_Mar_13_1245,mf_amp_cond2,3.0.4,59.98826388420665,
growth,&&&&&,left,care.virtue,pafer,,,,,,,,,,,,,,,0,146,146,187,,,,,,,,,,,,,AMP,left,0.8502951280970592,1,,,,,,,,,,,,,,left,1,0.8502951280970592,,,,,,,,,,,1060,2019_Mar_13_1245,mf_amp_cond2,3.0.4,59.98826388420665,
promises,&&&&&&&&&&&&&,left,fairness.virtue,wonderfujnoss,,,,,,,,,,,,,,,0,147,147,121,,,,,,,,,,,,,AMP,right,0.7337506350304466,0,,,,,,,,,,,,,,right,0,0.7337506350304466,,,,,,,,,,,1060,2019_Mar_13_1245,mf_amp_cond2,3.0.4,59.98826388420665,
riot,&&&&&,right,authority.vice,leact,,,,,,,,,,,,,,,0,148,148,238,,,,,,,,,,,,,AMP,left,0.9171210224158131,0,,,,,,,,,,,,,,left,0,0.9171210224158131,,,,,,,,,,,1060,2019_Mar_13_1245,mf_amp_cond2,3.0.4,59.98826388420665,
violence,&&&&&&&,right,care.vice,chadows,,,,,,,,,,,,,,,0,149,149,148,,,,,,,,,,,,,AMP,left,0.7004048790840898,0,,,,,,,,,,,,,,left,0,0.7004048790840898,,,,,,,,,,,1060,2019_Mar_13_1245,mf_amp_cond2,3.0.4,59.98826388420665,
critics,&&&&&&&,right,loyalty.vice,halaise,,,,,,,,,,,,,,,0,150,150,227,,,,,,,,,,,,,AMP,left,0.5503828134096693,0,,,,,,,,,,,,,,left,0,0.5503828134096693,,,,,,,,,,,1060,2019_Mar_13_1245,mf_amp_cond2,3.0.4,59.98826388420665,
friends,&&&&&&,left,loyalty.virtue,forepo,,,,,,,,,,,,,,,0,151,151,40,,,,,,,,,,,,,AMP,left,0.5003447758499533,1,,,,,,,,,,,,,,left,1,0.5003447758499533,,,,,,,,,,,1060,2019_Mar_13_1245,mf_amp_cond2,3.0.4,59.98826388420665,
credit,&&&&&&&,left,fairness.virtue,emports,,,,,,,,,,,,,,,0,152,152,133,,,,,,,,,,,,,AMP,right,2.4675070430675987,0,,,,,,,,,,,,,,right,0,2.4675070430675987,,,,,,,,,,,1060,2019_Mar_13_1245,mf_amp_cond2,3.0.4,59.98826388420665,
gun,&&&&&&&&&&&&&,right,authority.vice,synchronazers,,,,,,,,,,,,,,,0,153,153,4,,,,,,,,,,,,,AMP,left,1.0338111231394578,0,,,,,,,,,,,,,,left,0,1.0338111231394578,,,,,,,,,,,1060,2019_Mar_13_1245,mf_amp_cond2,3.0.4,59.98826388420665,
respect,&&&&&,left,sanctity.virtue,pafer,,,,,,,,,,,,,,,0,154,154,87,,,,,,,,,,,,,AMP,left,3.000992633664282,1,,,,,,,,,,,,,,left,1,3.000992633664282,,,,,,,,,,,1060,2019_Mar_13_1245,mf_amp_cond2,3.0.4,59.98826388420665,
party,&&&&&&&&,left,loyalty.virtue,counpy's,,,,,,,,,,,,,,,0,155,155,105,,,,,,,,,,,,,AMP,left,1.2505407368007582,1,,,,,,,,,,,,,,left,1,1.2505407368007582,,,,,,,,,,,1060,2019_Mar_13_1245,mf_amp_cond2,3.0.4,59.98826388420665,
black,&&&&&&&&&&&&,right,loyalty.vice,quarterbocks,,,,,,,,,,,,,,,0,156,156,306,,,,,,,,,,,,,AMP,left,0.7337641053600237,0,,,,,,,,,,,,,,left,0,0.7337641053600237,,,,,,,,,,,1060,2019_Mar_13_1245,mf_amp_cond2,3.0.4,59.98826388420665,
unpleasant,&&&&&,None,control,dumid,,,,,,,,,,,,,,,0,157,157,320,,,,,,,,,,,,,AMP,left,0.533699832711136,0,,,,,,,,,,,,,,left,0,0.533699832711136,,,,,,,,,,,1060,2019_Mar_13_1245,mf_amp_cond2,3.0.4,59.98826388420665,
arrests,&&&&&&,right,authority.vice,sgrawl,,,,,,,,,,,,,,,0,158,158,118,,,,,,,,,,,,,AMP,left,1.3505645343102515,0,,,,,,,,,,,,,,left,0,1.3505645343102515,,,,,,,,,,,1060,2019_Mar_13_1245,mf_amp_cond2,3.0.4,59.98826388420665,
support,&&&&&,left,loyalty.virtue,lenon,,,,,,,,,,,,,,,0,159,159,218,,,,,,,,,,,,,AMP,left,1.0004733852401841,1,,,,,,,,,,,,,,left,1,1.0004733852401841,,,,,,,,,,,1060,2019_Mar_13_1245,mf_amp_cond2,3.0.4,59.98826388420665,
suicide,&&&&&&&&,right,care.vice,suggists,,,,,,,,,,,,,,,0,160,160,163,,,,,,,,,,,,,AMP,left,1.0004897420294583,0,,,,,,,,,,,,,,left,0,1.0004897420294583,,,,,,,,,,,1060,2019_Mar_13_1245,mf_amp_cond2,3.0.4,59.98826388420665,
compassion,&&&&&&&&&,left,care.virtue,godlaness,,,,,,,,,,,,,,,0,161,161,181,,,,,,,,,,,,,AMP,left,0.9671446275315247,1,,,,,,,,,,,,,,left,1,0.9671446275315247,,,,,,,,,,,1060,2019_Mar_13_1245,mf_amp_cond2,3.0.4,59.98826388420665,
arrests,&&&&&&&&&,right,authority.vice,neputized,,,,,,,,,,,,,,,0,162,162,225,,,,,,,,,,,,,AMP,left,1.8340332549996674,0,,,,,,,,,,,,,,left,0,1.8340332549996674,,,,,,,,,,,1060,2019_Mar_13_1245,mf_amp_cond2,3.0.4,59.98826388420665,
riot,&&&&&&&&,right,authority.vice,epigrach,,,,,,,,,,,,,,,0,163,163,65,,,,,,,,,,,,,AMP,left,1.2838868134422228,0,,,,,,,,,,,,,,left,0,1.2838868134422228,,,,,,,,,,,1060,2019_Mar_13_1245,mf_amp_cond2,3.0.4,59.98826388420665,
riot,&&&&&&&,right,authority.vice,chreams,,,,,,,,,,,,,,,0,164,164,271,,,,,,,,,,,,,AMP,left,1.23373652328155,0,,,,,,,,,,,,,,left,0,1.23373652328155,,,,,,,,,,,1060,2019_Mar_13_1245,mf_amp_cond2,3.0.4,59.98826388420665,
corruption,&&&&&&&&&,right,sanctity.vice,brotesque,,,,,,,,,,,,,,,0,165,165,312,,,,,,,,,,,,,AMP,left,1.6339725103171077,0,,,,,,,,,,,,,,left,0,1.6339725103171077,,,,,,,,,,,1060,2019_Mar_13_1245,mf_amp_cond2,3.0.4,59.98826388420665,
useful,&&&&&,left,authority.virtue,pafer,,,,,,,,,,,,,,,0,166,166,45,,,,,,,,,,,,,AMP,left,0.9337975886883214,1,,,,,,,,,,,,,,left,1,0.9337975886883214,,,,,,,,,,,1060,2019_Mar_13_1245,mf_amp_cond2,3.0.4,59.98826388420665,
party,&&&&&&&,left,loyalty.virtue,pharing,,,,,,,,,,,,,,,0,167,167,326,,,,,,,,,,,,,AMP,left,3.117534881690517,1,,,,,,,,,,,,,,left,1,3.117534881690517,,,,,,,,,,,1060,2019_Mar_13_1245,mf_amp_cond2,3.0.4,59.98826388420665,
serial,&&&&&&&,right,sanctity.vice,nomaric,,,,,,,,,,,,,,,0,168,168,1,,,,,,,,,,,,,AMP,left,1.7506863444577903,0,,,,,,,,,,,,,,left,0,1.7506863444577903,,,,,,,,,,,1060,2019_Mar_13_1245,mf_amp_cond2,3.0.4,59.98826388420665,
respect,&&&&&&&&&&,left,sanctity.virtue,galamitous,,,,,,,,,,,,,,,0,169,169,175,,,,,,,,,,,,,AMP,left,6.735271818062756,1,,,,,,,,,,,,,,left,1,6.735271818062756,,,,,,,,,,,1060,2019_Mar_13_1245,mf_amp_cond2,3.0.4,59.98826388420665,
pleasant,&&&&&&&&&&&&,None,control,unreflectuve,,,,,,,,,,,,,,,0,170,170,214,,,,,,,,,,,,,AMP,left,0.5837202306138352,0,,,,,,,,,,,,,,left,0,0.5837202306138352,,,,,,,,,,,1060,2019_Mar_13_1245,mf_amp_cond2,3.0.4,59.98826388420665,
protesters,&&&&,right,authority.vice,coom,,,,,,,,,,,,,,,0,171,171,322,,,,,,,,,,,,,AMP,left,0.6337217059335671,0,,,,,,,,,,,,,,left,0,0.6337217059335671,,,,,,,,,,,1060,2019_Mar_13_1245,mf_amp_cond2,3.0.4,59.98826388420665,
lies,&&&&&&&&&&&,right,fairness.vice,neneficence,,,,,,,,,,,,,,,0,172,172,165,,,,,,,,,,,,,AMP,left,1.050484161474742,0,,,,,,,,,,,,,,left,0,1.050484161474742,,,,,,,,,,,1060,2019_Mar_13_1245,mf_amp_cond2,3.0.4,59.98826388420665,
respect,&&&&&&&&,left,sanctity.virtue,crinking,,,,,,,,,,,,,,,0,173,173,303,,,,,,,,,,,,,AMP,right,1.0337934834242333,0,,,,,,,,,,,,,,right,0,1.0337934834242333,,,,,,,,,,,1060,2019_Mar_13_1245,mf_amp_cond2,3.0.4,59.98826388420665,
safety,&&&&&&&&&&,left,care.virtue,Oregoniuns,,,,,,,,,,,,,,,0,174,174,184,,,,,,,,,,,,,AMP,left,0.9504600431828294,1,,,,,,,,,,,,,,left,1,0.9504600431828294,,,,,,,,,,,1060,2019_Mar_13_1245,mf_amp_cond2,3.0.4,59.98826388420665,
hand,&&&&&&,left,sanctity.virtue,sgrawl,,,,,,,,,,,,,,,0,175,175,287,,,,,,,,,,,,,AMP,left,0.4669970955583267,1,,,,,,,,,,,,,,left,1,0.4669970955583267,,,,,,,,,,,1060,2019_Mar_13_1245,mf_amp_cond2,3.0.4,59.98826388420665,
officers,&&&&&&&,right,authority.vice,carvels,,,,,,,,,,,,,,,0,176,176,54,,,,,,,,,,,,,AMP,left,1.5005907693703193,0,,,,,,,,,,,,,,left,0,1.5005907693703193,,,,,,,,,,,1060,2019_Mar_13_1245,mf_amp_cond2,3.0.4,59.98826388420665,
safe,&&&&&&&&&,left,care.virtue,taxpayung,,,,,,,,,,,,,,,0,177,177,68,,,,,,,,,,,,,AMP,left,0.600377232854953,1,,,,,,,,,,,,,,left,1,0.600377232854953,,,,,,,,,,,1060,2019_Mar_13_1245,mf_amp_cond2,3.0.4,59.98826388420665,
credit,&&&&,left,fairness.virtue,yane,,,,,,,,,,,,,,,0,178,178,263,,,,,,,,,,,,,AMP,left,0.8171017149579711,1,,,,,,,,,,,,,,left,1,0.8171017149579711,,,,,,,,,,,1060,2019_Mar_13_1245,mf_amp_cond2,3.0.4,59.98826388420665,
praised,&&&&&&,left,loyalty.virtue,fegard,,,,,,,,,,,,,,,0,179,179,152,,,,,,,,,,,,,AMP,left,0.667072914133314,1,,,,,,,,,,,,,,left,1,0.667072914133314,,,,,,,,,,,1060,2019_Mar_13_1245,mf_amp_cond2,3.0.4,59.98826388420665,
nackers,&&&&&&&&&&&,None,nonword,neneficence,,,,,,,,,,,,,,,0,180,180,273,,,,,,,,,,,,,AMP,left,0.8671179435041267,0,,,,,,,,,,,,,,left,0,0.8671179435041267,,,,,,,,,,,1060,2019_Mar_13_1245,mf_amp_cond2,3.0.4,59.98826388420665,
ability,&&&&&&&&,left,authority.virtue,drumbled,,,,,,,,,,,,,,,0,181,181,204,,,,,,,,,,,,,AMP,left,0.5503840963065159,1,,,,,,,,,,,,,,left,1,0.5503840963065159,,,,,,,,,,,1060,2019_Mar_13_1245,mf_amp_cond2,3.0.4,59.98826388420665,
promised,&&&&&,left,loyalty.virtue,viscs,,,,,,,,,,,,,,,0,182,182,282,,,,,,,,,,,,,AMP,left,0.6170361594413407,1,,,,,,,,,,,,,,left,1,0.6170361594413407,,,,,,,,,,,1060,2019_Mar_13_1245,mf_amp_cond2,3.0.4,59.98826388420665,
war,&&&&&&&&&&&&,right,sanctity.vice,quarterbocks,,,,,,,,,,,,,,,0,183,183,205,,,,,,,,,,,,,AMP,left,0.6337194608931895,0,,,,,,,,,,,,,,left,0,0.6337194608931895,,,,,,,,,,,1060,2019_Mar_13_1245,mf_amp_cond2,3.0.4,59.98826388420665,
support,&&&&&&&&,left,loyalty.virtue,crinking,,,,,,,,,,,,,,,0,184,184,38,,,,,,,,,,,,,AMP,left,1.1505191842734348,1,,,,,,,,,,,,,,left,1,1.1505191842734348,,,,,,,,,,,1060,2019_Mar_13_1245,mf_amp_cond2,3.0.4,59.98826388420665,
serial,&&&&,right,sanctity.vice,coom,,,,,,,,,,,,,,,0,185,185,129,,,,,,,,,,,,,AMP,left,1.5506374664546456,0,,,,,,,,,,,,,,left,0,1.5506374664546456,,,,,,,,,,,1060,2019_Mar_13_1245,mf_amp_cond2,3.0.4,59.98826388420665,
safety,&&&&&&&,left,care.virtue,chadows,,,,,,,,,,,,,,,0,186,186,283,,,,,,,,,,,,,AMP,left,2.867601591802668,1,,,,,,,,,,,,,,left,1,2.867601591802668,,,,,,,,,,,1060,2019_Mar_13_1245,mf_amp_cond2,3.0.4,59.98826388420665,
friends,&&&&&&,left,loyalty.virtue,squets,,,,,,,,,,,,,,,0,187,187,231,,,,,,,,,,,,,AMP,left,0.9504792865191121,1,,,,,,,,,,,,,,left,1,0.9504792865191121,,,,,,,,,,,1060,2019_Mar_13_1245,mf_amp_cond2,3.0.4,59.98826388420665,
peaceful,&&&&&&&,left,authority.virtue,festate,,,,,,,,,,,,,,,0,188,188,39,,,,,,,,,,,,,AMP,left,1.1338416558573954,1,,,,,,,,,,,,,,left,1,1.1338416558573954,,,,,,,,,,,1060,2019_Mar_13_1245,mf_amp_cond2,3.0.4,59.98826388420665,
integrity,&&&&&&&&&&&,left,fairness.virtue,neneficence,,,,,,,,,,,,,,,0,189,189,49,,,,,,,,,,,,,AMP,right,0.5670362877426669,0,,,,,,,,,,,,,,right,0,0.5670362877426669,,,,,,,,,,,1060,2019_Mar_13_1245,mf_amp_cond2,3.0.4,59.98826388420665,
killed,&&&&&&&&&&&&&,right,care.vice,wonderfujnoss,,,,,,,,,,,,,,,0,190,190,208,,,,,,,,,,,,,AMP,right,0.3836533922003582,1,,,,,,,,,,,,,,right,1,0.3836533922003582,,,,,,,,,,,1060,2019_Mar_13_1245,mf_amp_cond2,3.0.4,59.98826388420665,
sexual,&&&&&&&&&,right,sanctity.vice,seachwear,,,,,,,,,,,,,,,0,191,191,284,,,,,,,,,,,,,AMP,right,1.5006035982223693,1,,,,,,,,,,,,,,right,1,1.5006035982223693,,,,,,,,,,,1060,2019_Mar_13_1245,mf_amp_cond2,3.0.4,59.98826388420665,
torture,&&&&&&&&&&&,right,care.vice,presentkess,,,,,,,,,,,,,,,0,192,192,260,,,,,,,,,,,,,AMP,left,0.6503957064414863,0,,,,,,,,,,,,,,left,0,0.6503957064414863,,,,,,,,,,,1060,2019_Mar_13_1245,mf_amp_cond2,3.0.4,59.98826388420665,
energy,&&&&&&&&&&,left,sanctity.virtue,abointment,,,,,,,,,,,,,,,0,193,193,24,,,,,,,,,,,,,AMP,left,0.7170785588386934,1,,,,,,,,,,,,,,left,1,0.7170785588386934,,,,,,,,,,,1060,2019_Mar_13_1245,mf_amp_cond2,3.0.4,59.98826388420665,
energy,&&&&&&&&&&&,left,sanctity.virtue,ilportation,,,,,,,,,,,,,,,0,194,194,258,,,,,,,,,,,,,AMP,left,0.7004023132903967,1,,,,,,,,,,,,,,left,1,0.7004023132903967,,,,,,,,,,,1060,2019_Mar_13_1245,mf_amp_cond2,3.0.4,59.98826388420665,
energy,&&&&&&&,left,sanctity.virtue,chreams,,,,,,,,,,,,,,,0,195,195,159,,,,,,,,,,,,,AMP,left,3.00100706613739,1,,,,,,,,,,,,,,left,1,3.00100706613739,,,,,,,,,,,1060,2019_Mar_13_1245,mf_amp_cond2,3.0.4,59.98826388420665,
unpleasant,&&&&&&&&&,None,control,unscothed,,,,,,,,,,,,,,,0,196,196,240,,,,,,,,,,,,,AMP,left,1.567289337166585,0,,,,,,,,,,,,,,left,0,1.567289337166585,,,,,,,,,,,1060,2019_Mar_13_1245,mf_amp_cond2,3.0.4,59.98826388420665,
hope,&&&&&&&&&&,left,loyalty.virtue,ammessment,,,,,,,,,,,,,,,0,197,197,41,,,,,,,,,,,,,AMP,right,10.06944490771275,0,,,,,,,,,,,,,,right,0,10.06944490771275,,,,,,,,,,,1060,2019_Mar_13_1245,mf_amp_cond2,3.0.4,59.98826388420665,
promised,&&&&&,left,loyalty.virtue,ablow,,,,,,,,,,,,,,,0,198,198,111,,,,,,,,,,,,,AMP,right,1.1505073175940197,0,,,,,,,,,,,,,,right,0,1.1505073175940197,,,,,,,,,,,1060,2019_Mar_13_1245,mf_amp_cond2,3.0.4,59.98826388420665,
gondensed,&&&&&&&,None,nonword,scalbel,,,,,,,,,,,,,,,0,199,199,23,,,,,,,,,,,,,AMP,left,1.7506699876394123,0,,,,,,,,,,,,,,left,0,1.7506699876394123,,,,,,,,,,,1060,2019_Mar_13_1245,mf_amp_cond2,3.0.4,59.98826388420665,
faith,&&&&&&,left,sanctity.virtue,letish,,,,,,,,,,,,,,,0,200,200,64,,,,,,,,,,,,,AMP,left,1.2505323980003595,1,,,,,,,,,,,,,,left,1,1.2505323980003595,,,,,,,,,,,1060,2019_Mar_13_1245,mf_amp_cond2,3.0.4,59.98826388420665,
rejected,&&&&&&&&&&&&,right,authority.vice,bruthfulness,,,,,,,,,,,,,,,0,201,201,138,,,,,,,,,,,,,AMP,left,1.4505889733554795,0,,,,,,,,,,,,,,left,0,1.4505889733554795,,,,,,,,,,,1060,2019_Mar_13_1245,mf_amp_cond2,3.0.4,59.98826388420665,
opportunity,&&&&&,left,fairness.virtue,viscs,,,,,,,,,,,,,,,0,202,202,85,,,,,,,,,,,,,AMP,left,3.0176791423291434,1,,,,,,,,,,,,,,left,1,3.0176791423291434,,,,,,,,,,,1060,2019_Mar_13_1245,mf_amp_cond2,3.0.4,59.98826388420665,
fair,&&&&&&&&,left,fairness.virtue,slending,,,,,,,,,,,,,,,0,203,203,17,,,,,,,,,,,,,AMP,left,2.5842269709100947,1,,,,,,,,,,,,,,left,1,2.5842269709100947,,,,,,,,,,,1060,2019_Mar_13_1245,mf_amp_cond2,3.0.4,59.98826388420665,
riot,&&&&&&&&,right,authority.vice,sidearbs,,,,,,,,,,,,,,,0,204,204,136,,,,,,,,,,,,,AMP,left,0.5503545899118762,0,,,,,,,,,,,,,,left,0,0.5503545899118762,,,,,,,,,,,1060,2019_Mar_13_1245,mf_amp_cond2,3.0.4,59.98826388420665,
integrity,&&&&&&,left,fairness.virtue,tislay,,,,,,,,,,,,,,,0,205,205,103,,,,,,,,,,,,,AMP,left,0.633713687886484,1,,,,,,,,,,,,,,left,1,0.633713687886484,,,,,,,,,,,1060,2019_Mar_13_1245,mf_amp_cond2,3.0.4,59.98826388420665,
embrace,&&&&&&&&,left,authority.virtue,emassion,,,,,,,,,,,,,,,0,206,206,294,,,,,,,,,,,,,AMP,left,0.9504626090056263,1,,,,,,,,,,,,,,left,1,0.9504626090056263,,,,,,,,,,,1060,2019_Mar_13_1245,mf_amp_cond2,3.0.4,59.98826388420665,
men,&&&&,right,loyalty.vice,yane,,,,,,,,,,,,,,,0,207,207,57,,,,,,,,,,,,,AMP,left,0.983799384732265,0,,,,,,,,,,,,,,left,0,0.983799384732265,,,,,,,,,,,1060,2019_Mar_13_1245,mf_amp_cond2,3.0.4,59.98826388420665,
peace,&&&&&&&,left,care.virtue,stindig,,,,,,,,,,,,,,,0,208,208,268,,,,,,,,,,,,,AMP,left,0.8504558096756227,1,,,,,,,,,,,,,,left,1,0.8504558096756227,,,,,,,,,,,1060,2019_Mar_13_1245,mf_amp_cond2,3.0.4,59.98826388420665,
corruption,&&&&&&&&&,right,sanctity.vice,brotesque,,,,,,,,,,,,,,,0,209,209,139,,,,,,,,,,,,,AMP,left,1.1004821088572498,0,,,,,,,,,,,,,,left,0,1.1004821088572498,,,,,,,,,,,1060,2019_Mar_13_1245,mf_amp_cond2,3.0.4,59.98826388420665,
disregord,&&&&&&&&,None,nonword,drumbled,,,,,,,,,,,,,,,0,210,210,151,,,,,,,,,,,,,AMP,left,0.5003473416145425,0,,,,,,,,,,,,,,left,0,0.5003473416145425,,,,,,,,,,,1060,2019_Mar_13_1245,mf_amp_cond2,3.0.4,59.98826388420665,
promises,&&&&&,left,fairness.virtue,noped,,,,,,,,,,,,,,,0,211,211,170,,,,,,,,,,,,,AMP,left,0.4836723789339885,1,,,,,,,,,,,,,,left,1,0.4836723789339885,,,,,,,,,,,1060,2019_Mar_13_1245,mf_amp_cond2,3.0.4,59.98826388420665,
growth,&&&&,left,care.virtue,erks,,,,,,,,,,,,,,,0,212,212,28,,,,,,,,,,,,,AMP,left,0.7337422962882556,1,,,,,,,,,,,,,,left,1,0.7337422962882556,,,,,,,,,,,1060,2019_Mar_13_1245,mf_amp_cond2,3.0.4,59.98826388420665,
victim,&&&&&&&,right,care.vice,Loorish,,,,,,,,,,,,,,,0,213,213,74,,,,,,,,,,,,,AMP,left,0.33370836393442005,0,,,,,,,,,,,,,,left,0,0.33370836393442005,,,,,,,,,,,1060,2019_Mar_13_1245,mf_amp_cond2,3.0.4,59.98826388420665,
supervuned,&&&&&&&&&&,None,nonword,galamitous,,,,,,,,,,,,,,,0,214,214,281,,,,,,,,,,,,,AMP,left,2.56754174514208,0,,,,,,,,,,,,,,left,0,2.56754174514208,,,,,,,,,,,1060,2019_Mar_13_1245,mf_amp_cond2,3.0.4,59.98826388420665,
praised,&&&&&&&&&&,left,loyalty.virtue,ecgagement,,,,,,,,,,,,,,,0,215,215,191,,,,,,,,,,,,,AMP,left,11.136476384621346,1,,,,,,,,,,,,,,left,1,11.136476384621346,,,,,,,,,,,1060,2019_Mar_13_1245,mf_amp_cond2,3.0.4,59.98826388420665,
strength,&&&&&&,left,sanctity.virtue,sgrawl,,,,,,,,,,,,,,,0,216,216,69,,,,,,,,,,,,,AMP,left,0.3836466570501216,1,,,,,,,,,,,,,,left,1,0.3836466570501216,,,,,,,,,,,1060,2019_Mar_13_1245,mf_amp_cond2,3.0.4,59.98826388420665,
forced,&&&&&&&&&&&&,right,fairness.vice,bruthfulness,,,,,,,,,,,,,,,0,217,217,8,,,,,,,,,,,,,AMP,left,14.387222383287735,0,,,,,,,,,,,,,,left,0,14.387222383287735,,,,,,,,,,,1060,2019_Mar_13_1245,mf_amp_cond2,3.0.4,59.98826388420665,
commitment,&&&&&,left,sanctity.virtue,pafer,,,,,,,,,,,,,,,0,218,218,254,,,,,,,,,,,,,AMP,left,0.36697971244575456,1,,,,,,,,,,,,,,left,1,0.36697971244575456,,,,,,,,,,,1060,2019_Mar_13_1245,mf_amp_cond2,3.0.4,59.98826388420665,
asn,&&&&&&,None,nonword,squets,,,,,,,,,,,,,,,0,219,219,325,,,,,,,,,,,,,AMP,left,0.7837521103501786,0,,,,,,,,,,,,,,left,0,0.7837521103501786,,,,,,,,,,,1060,2019_Mar_13_1245,mf_amp_cond2,3.0.4,59.98826388420665,
faspberry,&&&&&,None,nonword,scock,,,,,,,,,,,,,,,0,220,220,272,,,,,,,,,,,,,AMP,left,1.1338397315121256,0,,,,,,,,,,,,,,left,0,1.1338397315121256,,,,,,,,,,,1060,2019_Mar_13_1245,mf_amp_cond2,3.0.4,59.98826388420665,
win,&&&&&&&&,left,fairness.virtue,sfumatoy,,,,,,,,,,,,,,,0,221,221,285,,,,,,,,,,,,,AMP,left,0.7170708615449257,1,,,,,,,,,,,,,,left,1,0.7170708615449257,,,,,,,,,,,1060,2019_Mar_13_1245,mf_amp_cond2,3.0.4,59.98826388420665,
praise,&&&&&&&,left,authority.virtue,chadows,,,,,,,,,,,,,,,0,222,222,31,,,,,,,,,,,,,AMP,left,0.850462865550071,1,,,,,,,,,,,,,,left,1,0.850462865550071,,,,,,,,,,,1060,2019_Mar_13_1245,mf_amp_cond2,3.0.4,59.98826388420665,
rejected,&&&&&&,right,authority.vice,openet,,,,,,,,,,,,,,,0,223,223,308,,,,,,,,,,,,,AMP,left,0.5336401784734335,0,,,,,,,,,,,,,,left,0,0.5336401784734335,,,,,,,,,,,1060,2019_Mar_13_1245,mf_amp_cond2,3.0.4,59.98826388420665,
black,&&&&&&&&,right,loyalty.vice,sidearbs,,,,,,,,,,,,,,,0,224,224,47,,,,,,,,,,,,,AMP,left,1.0838629517820664,0,,,,,,,,,,,,,,left,0,1.0838629517820664,,,,,,,,,,,1060,2019_Mar_13_1245,mf_amp_cond2,3.0.4,59.98826388420665,
illegal,&&&&&&&,right,fairness.vice,carvels,,,,,,,,,,,,,,,0,225,225,126,,,,,,,,,,,,,AMP,left,0.5003457379934844,0,,,,,,,,,,,,,,left,0,0.5003457379934844,,,,,,,,,,,1060,2019_Mar_13_1245,mf_amp_cond2,3.0.4,59.98826388420665,
compassion,&&&&&&&&&&,left,care.virtue,ammessment,,,,,,,,,,,,,,,0,226,226,82,,,,,,,,,,,,,AMP,right,0.6170451396610588,0,,,,,,,,,,,,,,right,0,0.6170451396610588,,,,,,,,,,,1060,2019_Mar_13_1245,mf_amp_cond2,3.0.4,59.98826388420665,
opportunity,&&&&&&&&&,left,fairness.virtue,Phintoism,,,,,,,,,,,,,,,0,227,227,234,,,,,,,,,,,,,AMP,right,0.717077917419374,0,,,,,,,,,,,,,,right,0,0.717077917419374,,,,,,,,,,,1060,2019_Mar_13_1245,mf_amp_cond2,3.0.4,59.98826388420665,
attacks,&&&&&&&&&,right,care.vice,godlaness,,,,,,,,,,,,,,,0,228,228,88,,,,,,,,,,,,,AMP,right,0.8171007527853362,1,,,,,,,,,,,,,,right,1,0.8171007527853362,,,,,,,,,,,1060,2019_Mar_13_1245,mf_amp_cond2,3.0.4,59.98826388420665,
compassion,&&&&&&&&&&,left,care.virtue,frocessing,,,,,,,,,,,,,,,0,229,229,79,,,,,,,,,,,,,AMP,left,0.833773149701301,1,,,,,,,,,,,,,,left,1,0.833773149701301,,,,,,,,,,,1060,2019_Mar_13_1245,mf_amp_cond2,3.0.4,59.98826388420665,
prosecution,&&&&&&&,right,authority.vice,emports,,,,,,,,,,,,,,,0,230,230,180,,,,,,,,,,,,,AMP,left,0.6003804400679655,0,,,,,,,,,,,,,,left,0,0.6003804400679655,,,,,,,,,,,1060,2019_Mar_13_1245,mf_amp_cond2,3.0.4,59.98826388420665,
useful,&&&&&&&&&,left,authority.virtue,brotesque,,,,,,,,,,,,,,,0,231,231,245,,,,,,,,,,,,,AMP,left,4.90146723765065,1,,,,,,,,,,,,,,left,1,4.90146723765065,,,,,,,,,,,1060,2019_Mar_13_1245,mf_amp_cond2,3.0.4,59.98826388420665,
hate,&&&&&,right,fairness.vice,ablow,,,,,,,,,,,,,,,0,232,232,209,,,,,,,,,,,,,AMP,left,0.8171058843436185,0,,,,,,,,,,,,,,left,0,0.8171058843436185,,,,,,,,,,,1060,2019_Mar_13_1245,mf_amp_cond2,3.0.4,59.98826388420665,
interests,&&&&&&&&&&,left,fairness.virtue,simplustic,,,,,,,,,,,,,,,0,233,233,255,,,,,,,,,,,,,AMP,right,0.5170296808646526,0,,,,,,,,,,,,,,right,0,0.5170296808646526,,,,,,,,,,,1060,2019_Mar_13_1245,mf_amp_cond2,3.0.4,59.98826388420665,
disregord,&&&&,None,nonword,ning,,,,,,,,,,,,,,,0,234,234,265,,,,,,,,,,,,,AMP,left,0.9671394959732424,0,,,,,,,,,,,,,,left,0,0.9671394959732424,,,,,,,,,,,1060,2019_Mar_13_1245,mf_amp_cond2,3.0.4,59.98826388420665,
progress,&&&&&&,left,authority.virtue,tislay,,,,,,,,,,,,,,,0,235,235,224,,,,,,,,,,,,,AMP,left,18.95504508065642,1,,,,,,,,,,,,,,left,1,18.95504508065642,,,,,,,,,,,1060,2019_Mar_13_1245,mf_amp_cond2,3.0.4,59.98826388420665,
interests,&&&&&,left,fairness.virtue,touls,,,,,,,,,,,,,,,0,236,236,169,,,,,,,,,,,,,AMP,right,1.0338261970609892,0,,,,,,,,,,,,,,right,0,1.0338261970609892,,,,,,,,,,,1060,2019_Mar_13_1245,mf_amp_cond2,3.0.4,59.98826388420665,
commitment,&&&&&,left,sanctity.virtue,aubos,,,,,,,,,,,,,,,0,237,237,3,,,,,,,,,,,,,AMP,left,0.5670260246552061,1,,,,,,,,,,,,,,left,1,0.5670260246552061,,,,,,,,,,,1060,2019_Mar_13_1245,mf_amp_cond2,3.0.4,59.98826388420665,
progress,&&&&&&&&&&&&,left,authority.virtue,feleological,,,,,,,,,,,,,,,0,238,238,310,,,,,,,,,,,,,AMP,left,1.8507024446735159,1,,,,,,,,,,,,,,left,1,1.8507024446735159,,,,,,,,,,,1060,2019_Mar_13_1245,mf_amp_cond2,3.0.4,59.98826388420665,
blamed,&&&&&,right,loyalty.vice,scock,,,,,,,,,,,,,,,0,239,239,149,,,,,,,,,,,,,AMP,left,1.2004767207545228,0,,,,,,,,,,,,,,left,0,1.2004767207545228,,,,,,,,,,,1060,2019_Mar_13_1245,mf_amp_cond2,3.0.4,59.98826388420665,
hope,&&&&&&&&&,left,loyalty.virtue,taxpayung,,,,,,,,,,,,,,,0,240,240,243,,,,,,,,,,,,,AMP,left,0.8837820015905891,1,,,,,,,,,,,,,,left,1,0.8837820015905891,,,,,,,,,,,1060,2019_Mar_13_1245,mf_amp_cond2,3.0.4,59.98826388420665,
hope,&&&&&&&&&,left,loyalty.virtue,unscothed,,,,,,,,,,,,,,,0,241,241,292,,,,,,,,,,,,,AMP,left,0.6670684240525588,1,,,,,,,,,,,,,,left,1,0.6670684240525588,,,,,,,,,,,1060,2019_Mar_13_1245,mf_amp_cond2,3.0.4,59.98826388420665,
win,&&&&&&,left,fairness.virtue,chared,,,,,,,,,,,,,,,0,242,242,95,,,,,,,,,,,,,AMP,left,0.7504130895249546,1,,,,,,,,,,,,,,left,1,0.7504130895249546,,,,,,,,,,,1060,2019_Mar_13_1245,mf_amp_cond2,3.0.4,59.98826388420665,
civilians,&&&&&&&&&,right,care.vice,neputized,,,,,,,,,,,,,,,0,243,243,12,,,,,,,,,,,,,AMP,left,0.9004547192307655,0,,,,,,,,,,,,,,left,0,0.9004547192307655,,,,,,,,,,,1060,2019_Mar_13_1245,mf_amp_cond2,3.0.4,59.98826388420665,
conspiracy,&&&&&,right,sanctity.vice,noped,,,,,,,,,,,,,,,0,244,244,80,,,,,,,,,,,,,AMP,left,0.9171428314875811,0,,,,,,,,,,,,,,left,0,0.9171428314875811,,,,,,,,,,,1060,2019_Mar_13_1245,mf_amp_cond2,3.0.4,59.98826388420665,
