words,nonwords,mask,corr_ans,category,tweets,topic,AMP_pracloop.thisRepN,AMP_pracloop.thisTrialN,AMP_pracloop.thisN,AMP_pracloop.thisIndex,AMP_trials.thisRepN,AMP_trials.thisTrialN,AMP_trials.thisN,AMP_trials.thisIndex,LDT_pracloop.thisRepN,LDT_pracloop.thisTrialN,LDT_pracloop.thisN,LDT_pracloop.thisIndex,LDT_trials.thisRepN,LDT_trials.thisTrialN,LDT_trials.thisN,LDT_trials.thisIndex,tweet_loop.thisRepN,tweet_loop.thisTrialN,tweet_loop.thisN,tweet_loop.thisIndex,begin_key.keys,begin_key.rt,key_resp_AMP_instr1.keys,key_resp_AMP_instr1.rt,resp_AMP_ready1.keys,resp_AMP_ready1.rt,resp_AMP_prac.keys,resp_AMP_prac.rt,task,keypress,RT,resp_AMP_ready.keys,resp_AMP_ready.rt,resp_AMP.keys,resp_AMP.corr,resp_AMP.rt,corr,AMP_nonword_rating.response,AMP_nonword_rating.rt,AMP_word_rating.response,AMP_word_rating.rt,AMP_random_rating.response,AMP_random_rating.rt,key_resp_LDT_instr.keys,key_resp_LDT_instr.rt,resp_LDT_prac.keys,resp_LDT_prac.rt,resp_LDT_ready.keys,resp_LDT_ready.rt,resp_LDT.keys,resp_LDT.corr,resp_LDT.rt,LDT_rating.response,LDT_rating.rt,key_resp_LDT_instr_2.keys,key_resp_LDT_instr_2.rt,resp_tweets.keys,resp_tweets.rt,participant,date,expName,psychopyVersion,frameRate,
,,,,,,,,,,,,,,,,,,,,,,,,,,,right,593.1054340529663,,,,,,,,,,,,,,,,,,,,,,,,,,,,,,,,,,,,,1061,2019_Mar_13_1458,mf_amp_cond1,3.0.4,59.98155123116491,
,,,,,,,,,,,,,,,,,,,,,,,,,,,,,right,13.520441161817871,,,,,,,,,,,,,,,,,,,,,,,,,,,,,,,,,,,1061,2019_Mar_13_1458,mf_amp_cond1,3.0.4,59.98155123116491,
,,,,,,,,,,,,,,,,,,,,,,,,,,,,,,,right,2.20083619072102,,,,,,,,,,,,,,,,,,,,,,,,,,,,,,,,,1061,2019_Mar_13_1458,mf_amp_cond1,3.0.4,59.98155123116491,
keyboard,senk,&&&&,,,,,0,0,0,2,,,,,,,,,,,,,,,,,,,,,,,left,2.9509866902953945,AMP_prac,left,2.9509866902953945,,,,,,,,,,,,,,,,,,,,,,,,,,,,1061,2019_Mar_13_1458,mf_amp_cond1,3.0.4,59.98155123116491,
banana,kacket,&&&&&&,,,,,0,1,1,1,,,,,,,,,,,,,,,,,,,,,,,left,4.6013995097600855,AMP_prac,left,4.6013995097600855,,,,,,,,,,,,,,,,,,,,,,,,,,,,1061,2019_Mar_13_1458,mf_amp_cond1,3.0.4,59.98155123116491,
car,cemtuper,&&&&&&&&,,,,,0,2,2,0,,,,,,,,,,,,,,,,,,,,,,,left,2.8676283672393765,AMP_prac,left,2.8676283672393765,,,,,,,,,,,,,,,,,,,,,,,,,,,,1061,2019_Mar_13_1458,mf_amp_cond1,3.0.4,59.98155123116491,
scarf,bisebell,&&&&&&&&,,,,,0,3,3,3,,,,,,,,,,,,,,,,,,,,,,,left,1.7840214833559003,AMP_prac,left,1.7840214833559003,,,,,,,,,,,,,,,,,,,,,,,,,,,,1061,2019_Mar_13_1458,mf_amp_cond1,3.0.4,59.98155123116491,
,,,,,,,,,,,,,,,,,,,,,,,,,,,,,,,,,,,,,,right,1.667337727471022,,,,,,,,,,,,,,,,,,,,,,,,,,1061,2019_Mar_13_1458,mf_amp_cond1,3.0.4,59.98155123116491,
respect,seachwear,&&&&&&&&&,left,sanctity.virtue,,,,,,,0,0,0,0,,,,,,,,,,,,,,,,,,,,,AMP,right,3.1343575536448043,,,right,0,3.1343575536448043,0,,,,,,,,,,,,,,,,,,,,,,1061,2019_Mar_13_1458,mf_amp_cond1,3.0.4,59.98155123116491,
values,feleological,&&&&&&&&&&&&,left,sanctity.virtue,,,,,,,0,1,1,1,,,,,,,,,,,,,,,,,,,,,AMP,left,1.4005844868079294,,,left,1,1.4005844868079294,1,,,,,,,,,,,,,,,,,,,,,,1061,2019_Mar_13_1458,mf_amp_cond1,3.0.4,59.98155123116491,
groups,Oregoniuns,&&&&&&&&&&,right,loyalty.vice,,,,,,,0,2,2,2,,,,,,,,,,,,,,,,,,,,,AMP,left,1.4504627881979104,,,left,0,1.4504627881979104,0,,,,,,,,,,,,,,,,,,,,,,1061,2019_Mar_13_1458,mf_amp_cond1,3.0.4,59.98155123116491,
celebrated,nomaric,&&&&&&&,left,authority.virtue,,,,,,,0,3,3,3,,,,,,,,,,,,,,,,,,,,,AMP,left,1.3339134155248757,,,left,1,1.3339134155248757,1,,,,,,,,,,,,,,,,,,,,,,1061,2019_Mar_13_1458,mf_amp_cond1,3.0.4,59.98155123116491,
ammessment,chadows,&&&&&&&,None,nonword,,,,,,,0,4,4,4,,,,,,,,,,,,,,,,,,,,,AMP,right,1.467268066277029,,,right,0,1.467268066277029,0,,,,,,,,,,,,,,,,,,,,,,1061,2019_Mar_13_1458,mf_amp_cond1,3.0.4,59.98155123116491,
crime,divility,&&&&&&&&,right,fairness.vice,,,,,,,0,5,5,5,,,,,,,,,,,,,,,,,,,,,AMP,left,1.283881487470353,,,left,0,1.283881487470353,0,,,,,,,,,,,,,,,,,,,,,,1061,2019_Mar_13_1458,mf_amp_cond1,3.0.4,59.98155123116491,
great,atson,&&&&&,left,loyalty.virtue,,,,,,,0,6,6,6,,,,,,,,,,,,,,,,,,,,,AMP,left,0.8504273161524907,,,left,1,0.8504273161524907,1,,,,,,,,,,,,,,,,,,,,,,1061,2019_Mar_13_1458,mf_amp_cond1,3.0.4,59.98155123116491,
emassion,pullness,&&&&&&&&,None,nonword,,,,,,,0,7,7,7,,,,,,,,,,,,,,,,,,,,,AMP,right,1.1505534567986615,,,right,0,1.1505534567986615,0,,,,,,,,,,,,,,,,,,,,,,1061,2019_Mar_13_1458,mf_amp_cond1,3.0.4,59.98155123116491,
growth,bluently,&&&&&&&&,left,care.virtue,,,,,,,0,8,8,8,,,,,,,,,,,,,,,,,,,,,AMP,left,2.300799339573132,,,left,1,2.300799339573132,1,,,,,,,,,,,,,,,,,,,,,,1061,2019_Mar_13_1458,mf_amp_cond1,3.0.4,59.98155123116491,
violations,presentkess,&&&&&&&&&&&,right,sanctity.vice,,,,,,,0,9,9,9,,,,,,,,,,,,,,,,,,,,,AMP,left,0.8671203409612644,,,left,0,0.8671203409612644,0,,,,,,,,,,,,,,,,,,,,,,1061,2019_Mar_13_1458,mf_amp_cond1,3.0.4,59.98155123116491,
police,chreams,&&&&&&&,right,authority.vice,,,,,,,0,10,10,10,,,,,,,,,,,,,,,,,,,,,AMP,left,5.668358590861317,,,left,0,5.668358590861317,0,,,,,,,,,,,,,,,,,,,,,,1061,2019_Mar_13_1458,mf_amp_cond1,3.0.4,59.98155123116491,
compassion,sgrawl,&&&&&&,left,care.virtue,,,,,,,0,11,11,11,,,,,,,,,,,,,,,,,,,,,AMP,left,1.667329709365731,,,left,1,1.667329709365731,1,,,,,,,,,,,,,,,,,,,,,,1061,2019_Mar_13_1458,mf_amp_cond1,3.0.4,59.98155123116491,
good,Loorish,&&&&&&&,left,care.virtue,,,,,,,0,12,12,12,,,,,,,,,,,,,,,,,,,,,AMP,left,0.7670808598923031,,,left,1,0.7670808598923031,1,,,,,,,,,,,,,,,,,,,,,,1061,2019_Mar_13_1458,mf_amp_cond1,3.0.4,59.98155123116491,
freedom,hefurbished,&&&&&&&&&&&,left,sanctity.virtue,,,,,,,0,13,13,13,,,,,,,,,,,,,,,,,,,,,AMP,left,1.200533748284215,,,left,1,1.200533748284215,1,,,,,,,,,,,,,,,,,,,,,,1061,2019_Mar_13_1458,mf_amp_cond1,3.0.4,59.98155123116491,
arrests,Cunday,&&&&&&,right,authority.vice,,,,,,,0,14,14,14,,,,,,,,,,,,,,,,,,,,,AMP,left,1.0838368427357636,,,left,0,1.0838368427357636,0,,,,,,,,,,,,,,,,,,,,,,1061,2019_Mar_13_1458,mf_amp_cond1,3.0.4,59.98155123116491,
hope,precificity,&&&&&&&&&&&,left,loyalty.virtue,,,,,,,0,15,15,15,,,,,,,,,,,,,,,,,,,,,AMP,left,0.6337178703106474,,,left,1,0.6337178703106474,1,,,,,,,,,,,,,,,,,,,,,,1061,2019_Mar_13_1458,mf_amp_cond1,3.0.4,59.98155123116491,
gun,thadowed,&&&&&&&&,right,authority.vice,,,,,,,0,16,16,16,,,,,,,,,,,,,,,,,,,,,AMP,left,2.0341387880325783,,,left,0,2.0341387880325783,0,,,,,,,,,,,,,,,,,,,,,,1061,2019_Mar_13_1458,mf_amp_cond1,3.0.4,59.98155123116491,
actively,halaise,&&&&&&&,left,authority.virtue,,,,,,,0,17,17,17,,,,,,,,,,,,,,,,,,,,,AMP,right,2.53420790398377,,,right,0,2.53420790398377,0,,,,,,,,,,,,,,,,,,,,,,1061,2019_Mar_13_1458,mf_amp_cond1,3.0.4,59.98155123116491,
ability,dramens,&&&&&&&,left,authority.virtue,,,,,,,0,18,18,18,,,,,,,,,,,,,,,,,,,,,AMP,left,1.5172704877622891,,,left,1,1.5172704877622891,1,,,,,,,,,,,,,,,,,,,,,,1061,2019_Mar_13_1458,mf_amp_cond1,3.0.4,59.98155123116491,
praised,nackers,&&&&&&&,left,loyalty.virtue,,,,,,,0,19,19,19,,,,,,,,,,,,,,,,,,,,,AMP,right,0.7003998461877927,,,right,0,0.7003998461877927,0,,,,,,,,,,,,,,,,,,,,,,1061,2019_Mar_13_1458,mf_amp_cond1,3.0.4,59.98155123116491,
tabin,gedious,&&&&&&&,None,nonword,,,,,,,0,20,20,20,,,,,,,,,,,,,,,,,,,,,AMP,right,2.7509189534466714,,,right,0,2.7509189534466714,0,,,,,,,,,,,,,,,,,,,,,,1061,2019_Mar_13_1458,mf_amp_cond1,3.0.4,59.98155123116491,
hate,saned,&&&&&,right,fairness.vice,,,,,,,0,21,21,21,,,,,,,,,,,,,,,,,,,,,AMP,left,1.0838509545719717,,,left,0,1.0838509545719717,0,,,,,,,,,,,,,,,,,,,,,,1061,2019_Mar_13_1458,mf_amp_cond1,3.0.4,59.98155123116491,
attacks,bruthfulness,&&&&&&&&&&&&,right,care.vice,,,,,,,0,22,22,22,,,,,,,,,,,,,,,,,,,,,AMP,left,1.8506989690940827,,,left,0,1.8506989690940827,0,,,,,,,,,,,,,,,,,,,,,,1061,2019_Mar_13_1458,mf_amp_cond1,3.0.4,59.98155123116491,
protect,papert,&&&&&&,left,fairness.virtue,,,,,,,0,23,23,23,,,,,,,,,,,,,,,,,,,,,AMP,right,0.8171272205072455,,,right,0,0.8171272205072455,0,,,,,,,,,,,,,,,,,,,,,,1061,2019_Mar_13_1458,mf_amp_cond1,3.0.4,59.98155123116491,
slavery,honstables,&&&&&&&&&&,right,loyalty.vice,,,,,,,0,24,24,24,,,,,,,,,,,,,,,,,,,,,AMP,right,1.2672307981993072,,,right,1,1.2672307981993072,1,,,,,,,,,,,,,,,,,,,,,,1061,2019_Mar_13_1458,mf_amp_cond1,3.0.4,59.98155123116491,
corruption,spag,&&&&,right,sanctity.vice,,,,,,,0,25,25,25,,,,,,,,,,,,,,,,,,,,,AMP,right,0.7170694581582211,,,right,1,0.7170694581582211,1,,,,,,,,,,,,,,,,,,,,,,1061,2019_Mar_13_1458,mf_amp_cond1,3.0.4,59.98155123116491,
win,counpy's,&&&&&&&&,left,fairness.virtue,,,,,,,0,26,26,26,,,,,,,,,,,,,,,,,,,,,AMP,left,0.8004768519313075,,,left,1,0.8004768519313075,1,,,,,,,,,,,,,,,,,,,,,,1061,2019_Mar_13_1458,mf_amp_cond1,3.0.4,59.98155123116491,
prison,nomparisons,&&&&&&&&&&&,right,fairness.vice,,,,,,,0,27,27,27,,,,,,,,,,,,,,,,,,,,,AMP,left,1.734006553684594,,,left,0,1.734006553684594,0,,,,,,,,,,,,,,,,,,,,,,1061,2019_Mar_13_1458,mf_amp_cond1,3.0.4,59.98155123116491,
refused,gikely,&&&&&&,right,authority.vice,,,,,,,0,28,28,28,,,,,,,,,,,,,,,,,,,,,AMP,right,0.8671142472303472,,,right,1,0.8671142472303472,1,,,,,,,,,,,,,,,,,,,,,,1061,2019_Mar_13_1458,mf_amp_cond1,3.0.4,59.98155123116491,
fair,focomotive,&&&&&&&&&&,left,fairness.virtue,,,,,,,0,29,29,29,,,,,,,,,,,,,,,,,,,,,AMP,right,0.9671328812546562,,,right,0,0.9671328812546562,0,,,,,,,,,,,,,,,,,,,,,,1061,2019_Mar_13_1458,mf_amp_cond1,3.0.4,59.98155123116491,
died,neutralust,&&&&&&&&&&,right,care.vice,,,,,,,0,30,30,30,,,,,,,,,,,,,,,,,,,,,AMP,right,0.8171073356352281,,,right,1,0.8171073356352281,1,,,,,,,,,,,,,,,,,,,,,,1061,2019_Mar_13_1458,mf_amp_cond1,3.0.4,59.98155123116491,
troops,greaks,&&&&&&,right,loyalty.vice,,,,,,,0,31,31,31,,,,,,,,,,,,,,,,,,,,,AMP,right,0.8504324477398768,,,right,1,0.8504324477398768,1,,,,,,,,,,,,,,,,,,,,,,1061,2019_Mar_13_1458,mf_amp_cond1,3.0.4,59.98155123116491,
threatened,grovelire,&&&&&&&&&,right,fairness.vice,,,,,,,0,32,32,32,,,,,,,,,,,,,,,,,,,,,AMP,left,0.7004094679141417,,,left,0,0.7004094679141417,0,,,,,,,,,,,,,,,,,,,,,,1061,2019_Mar_13_1458,mf_amp_cond1,3.0.4,59.98155123116491,
restore,ronviolence,&&&&&&&&&&&,left,care.virtue,,,,,,,0,33,33,33,,,,,,,,,,,,,,,,,,,,,AMP,left,1.6339532814454287,,,left,1,1.6339532814454287,1,,,,,,,,,,,,,,,,,,,,,,1061,2019_Mar_13_1458,mf_amp_cond1,3.0.4,59.98155123116491,
hand,blunderints,&&&&&&&&&&&,left,sanctity.virtue,,,,,,,0,34,34,34,,,,,,,,,,,,,,,,,,,,,AMP,right,1.0838432572199963,,,right,0,1.0838432572199963,0,,,,,,,,,,,,,,,,,,,,,,1061,2019_Mar_13_1458,mf_amp_cond1,3.0.4,59.98155123116491,
war,mecan,&&&&&,right,sanctity.vice,,,,,,,0,35,35,35,,,,,,,,,,,,,,,,,,,,,AMP,left,0.583703261334449,,,left,0,0.583703261334449,0,,,,,,,,,,,,,,,,,,,,,,1061,2019_Mar_13_1458,mf_amp_cond1,3.0.4,59.98155123116491,
army,gationwide,&&&&&&&&&&,right,loyalty.vice,,,,,,,0,36,36,36,,,,,,,,,,,,,,,,,,,,,AMP,left,1.0171558290312532,,,left,0,1.0171558290312532,0,,,,,,,,,,,,,,,,,,,,,,1061,2019_Mar_13_1458,mf_amp_cond1,3.0.4,59.98155123116491,
elduringly,strofe,&&&&&&,None,nonword,,,,,,,0,37,37,37,,,,,,,,,,,,,,,,,,,,,AMP,left,0.6837565335445106,,,left,0,0.6837565335445106,0,,,,,,,,,,,,,,,,,,,,,,1061,2019_Mar_13_1458,mf_amp_cond1,3.0.4,59.98155123116491,
friends,supervuned,&&&&&&&&&&,left,loyalty.virtue,,,,,,,0,38,38,38,,,,,,,,,,,,,,,,,,,,,AMP,left,1.2838843739882577,,,left,1,1.2838843739882577,1,,,,,,,,,,,,,,,,,,,,,,1061,2019_Mar_13_1458,mf_amp_cond1,3.0.4,59.98155123116491,
pleasant,totalestic,&&&&&&&&&&,None,control,,,,,,,0,39,39,39,,,,,,,,,,,,,,,,,,,,,AMP,left,1.067213414964499,,,left,0,1.067213414964499,0,,,,,,,,,,,,,,,,,,,,,,1061,2019_Mar_13_1458,mf_amp_cond1,3.0.4,59.98155123116491,
violence,forepo,&&&&&&,right,care.vice,,,,,,,0,40,40,40,,,,,,,,,,,,,,,,,,,,,AMP,left,0.46699609264032915,,,left,0,0.46699609264032915,0,,,,,,,,,,,,,,,,,,,,,,1061,2019_Mar_13_1458,mf_amp_cond1,3.0.4,59.98155123116491,
love,asn,&&&,left,loyalty.virtue,,,,,,,0,41,41,41,,,,,,,,,,,,,,,,,,,,,AMP,left,0.5836917152919341,,,left,1,0.5836917152919341,1,,,,,,,,,,,,,,,,,,,,,,1061,2019_Mar_13_1458,mf_amp_cond1,3.0.4,59.98155123116491,
ensure,ugeasily,&&&&&&&&,left,fairness.virtue,,,,,,,0,42,42,42,,,,,,,,,,,,,,,,,,,,,AMP,left,1.383912309014704,,,left,1,1.383912309014704,1,,,,,,,,,,,,,,,,,,,,,,1061,2019_Mar_13_1458,mf_amp_cond1,3.0.4,59.98155123116491,
men,fontacts,&&&&&&&&,right,loyalty.vice,,,,,,,0,43,43,43,,,,,,,,,,,,,,,,,,,,,AMP,left,0.7170672130887397,,,left,0,0.7170672130887397,0,,,,,,,,,,,,,,,,,,,,,,1061,2019_Mar_13_1458,mf_amp_cond1,3.0.4,59.98155123116491,
encourage,quarterbocks,&&&&&&&&&&&&,left,authority.virtue,,,,,,,0,44,44,44,,,,,,,,,,,,,,,,,,,,,AMP,left,0.5336928217730019,,,left,1,0.5336928217730019,1,,,,,,,,,,,,,,,,,,,,,,1061,2019_Mar_13_1458,mf_amp_cond1,3.0.4,59.98155123116491,
prosecution,perified,&&&&&&&&,right,authority.vice,,,,,,,0,45,45,45,,,,,,,,,,,,,,,,,,,,,AMP,left,0.6003635723318439,,,left,0,0.6003635723318439,0,,,,,,,,,,,,,,,,,,,,,,1061,2019_Mar_13_1458,mf_amp_cond1,3.0.4,59.98155123116491,
allears,vurtain,&&&&&&&,None,nonword,,,,,,,0,46,46,46,,,,,,,,,,,,,,,,,,,,,AMP,left,0.41699591622455046,,,left,0,0.41699591622455046,0,,,,,,,,,,,,,,,,,,,,,,1061,2019_Mar_13_1458,mf_amp_cond1,3.0.4,59.98155123116491,
hescribe,letish,&&&&&&,None,nonword,,,,,,,0,47,47,47,,,,,,,,,,,,,,,,,,,,,AMP,left,0.43365462360088713,,,left,0,0.43365462360088713,0,,,,,,,,,,,,,,,,,,,,,,1061,2019_Mar_13_1458,mf_amp_cond1,3.0.4,59.98155123116491,
black,viscs,&&&&&,right,loyalty.vice,,,,,,,0,48,48,48,,,,,,,,,,,,,,,,,,,,,AMP,left,0.5837196182692423,,,left,0,0.5837196182692423,0,,,,,,,,,,,,,,,,,,,,,,1061,2019_Mar_13_1458,mf_amp_cond1,3.0.4,59.98155123116491,
energy,laming,&&&&&&,left,sanctity.virtue,,,,,,,0,49,49,49,,,,,,,,,,,,,,,,,,,,,AMP,right,1.3839068567322101,,,right,0,1.3839068567322101,0,,,,,,,,,,,,,,,,,,,,,,1061,2019_Mar_13_1458,mf_amp_cond1,3.0.4,59.98155123116491,
strong,erks,&&&&,left,loyalty.virtue,,,,,,,0,50,50,50,,,,,,,,,,,,,,,,,,,,,AMP,left,0.7337506161711644,,,left,1,0.7337506161711644,1,,,,,,,,,,,,,,,,,,,,,,1061,2019_Mar_13_1458,mf_amp_cond1,3.0.4,59.98155123116491,
racist,neputized,&&&&&&&&&,right,sanctity.vice,,,,,,,0,51,51,51,,,,,,,,,,,,,,,,,,,,,AMP,left,0.6337300578015856,,,left,0,0.6337300578015856,0,,,,,,,,,,,,,,,,,,,,,,1061,2019_Mar_13_1458,mf_amp_cond1,3.0.4,59.98155123116491,
trust,lempestuous,&&&&&&&&&&&,left,authority.virtue,,,,,,,0,52,52,52,,,,,,,,,,,,,,,,,,,,,AMP,left,0.9671357677725609,,,left,1,0.9671357677725609,1,,,,,,,,,,,,,,,,,,,,,,1061,2019_Mar_13_1458,mf_amp_cond1,3.0.4,59.98155123116491,
credit,ebbitter,&&&&&&&&,left,fairness.virtue,,,,,,,0,53,53,53,,,,,,,,,,,,,,,,,,,,,AMP,left,1.3338948135497048,,,left,1,1.3338948135497048,1,,,,,,,,,,,,,,,,,,,,,,1061,2019_Mar_13_1458,mf_amp_cond1,3.0.4,59.98155123116491,
help,synchronazers,&&&&&&&&&&&&&,left,care.virtue,,,,,,,0,54,54,54,,,,,,,,,,,,,,,,,,,,,AMP,right,0.9838159636419732,,,right,0,0.9838159636419732,0,,,,,,,,,,,,,,,,,,,,,,1061,2019_Mar_13_1458,mf_amp_cond1,3.0.4,59.98155123116491,
brudent,chared,&&&&&&,None,nonword,,,,,,,0,55,55,55,,,,,,,,,,,,,,,,,,,,,AMP,left,0.7837681116652675,,,left,0,0.7837681116652675,0,,,,,,,,,,,,,,,,,,,,,,1061,2019_Mar_13_1458,mf_amp_cond1,3.0.4,59.98155123116491,
rebels,rorroborated,&&&&&&&&&&&&,right,authority.vice,,,,,,,0,56,56,56,,,,,,,,,,,,,,,,,,,,,AMP,left,0.8671155301271938,,,left,0,0.8671155301271938,0,,,,,,,,,,,,,,,,,,,,,,1061,2019_Mar_13_1458,mf_amp_cond1,3.0.4,59.98155123116491,
charges,wump,&&&&,right,fairness.vice,,,,,,,0,57,57,57,,,,,,,,,,,,,,,,,,,,,AMP,left,0.6170437682012562,,,left,0,0.6170437682012562,0,,,,,,,,,,,,,,,,,,,,,,1061,2019_Mar_13_1458,mf_amp_cond1,3.0.4,59.98155123116491,
lies,scalbel,&&&&&&&,right,fairness.vice,,,,,,,0,58,58,58,,,,,,,,,,,,,,,,,,,,,AMP,left,1.800684680842096,,,left,0,1.800684680842096,0,,,,,,,,,,,,,,,,,,,,,,1061,2019_Mar_13_1458,mf_amp_cond1,3.0.4,59.98155123116491,
progress,disregord,&&&&&&&&&,left,authority.virtue,,,,,,,0,59,59,59,,,,,,,,,,,,,,,,,,,,,AMP,right,1.2838741108425893,,,right,0,1.2838741108425893,0,,,,,,,,,,,,,,,,,,,,,,1061,2019_Mar_13_1458,mf_amp_cond1,3.0.4,59.98155123116491,
torture,uller,&&&&&,right,care.vice,,,,,,,0,60,60,60,,,,,,,,,,,,,,,,,,,,,AMP,right,1.2672214971971698,,,right,1,1.2672214971971698,1,,,,,,,,,,,,,,,,,,,,,,1061,2019_Mar_13_1458,mf_amp_cond1,3.0.4,59.98155123116491,
victim,imebreaker,&&&&&&&&&&,right,care.vice,,,,,,,0,61,61,61,,,,,,,,,,,,,,,,,,,,,AMP,left,0.8171018833236303,,,left,0,0.8171018833236303,0,,,,,,,,,,,,,,,,,,,,,,1061,2019_Mar_13_1458,mf_amp_cond1,3.0.4,59.98155123116491,
abuse,bycled,&&&&&&,right,sanctity.vice,,,,,,,0,62,62,62,,,,,,,,,,,,,,,,,,,,,AMP,left,0.8170688487880398,,,left,0,0.8170688487880398,0,,,,,,,,,,,,,,,,,,,,,,1061,2019_Mar_13_1458,mf_amp_cond1,3.0.4,59.98155123116491,
embrace,tislay,&&&&&&,left,authority.virtue,,,,,,,0,63,63,63,,,,,,,,,,,,,,,,,,,,,AMP,left,0.6503919723909348,,,left,1,0.6503919723909348,1,,,,,,,,,,,,,,,,,,,,,,1061,2019_Mar_13_1458,mf_amp_cond1,3.0.4,59.98155123116491,
fear,oam,&&&,right,sanctity.vice,,,,,,,0,64,64,64,,,,,,,,,,,,,,,,,,,,,AMP,left,0.6337233226222452,,,left,0,0.6337233226222452,0,,,,,,,,,,,,,,,,,,,,,,1061,2019_Mar_13_1458,mf_amp_cond1,3.0.4,59.98155123116491,
shot,brotesque,&&&&&&&&&,right,care.vice,,,,,,,0,65,65,65,,,,,,,,,,,,,,,,,,,,,AMP,left,0.8170909787295386,,,left,0,0.8170909787295386,0,,,,,,,,,,,,,,,,,,,,,,1061,2019_Mar_13_1458,mf_amp_cond1,3.0.4,59.98155123116491,
free,crilfully,&&&&&&&&&,left,fairness.virtue,,,,,,,0,66,66,66,,,,,,,,,,,,,,,,,,,,,AMP,right,1.8673810893087648,,,right,0,1.8673810893087648,0,,,,,,,,,,,,,,,,,,,,,,1061,2019_Mar_13_1458,mf_amp_cond1,3.0.4,59.98155123116491,
chonograph,metibolic,&&&&&&&&&,None,nonword,,,,,,,0,67,67,67,,,,,,,,,,,,,,,,,,,,,AMP,right,0.933802958286833,,,right,0,0.933802958286833,0,,,,,,,,,,,,,,,,,,,,,,1061,2019_Mar_13_1458,mf_amp_cond1,3.0.4,59.98155123116491,
rejected,erdest,&&&&&&,right,authority.vice,,,,,,,0,68,68,68,,,,,,,,,,,,,,,,,,,,,AMP,left,1.0504831862344872,,,left,0,1.0504831862344872,0,,,,,,,,,,,,,,,,,,,,,,1061,2019_Mar_13_1458,mf_amp_cond1,3.0.4,59.98155123116491,
promises,iptervention,&&&&&&&&&&&&,left,fairness.virtue,,,,,,,0,69,69,69,,,,,,,,,,,,,,,,,,,,,AMP,left,0.9171169894107152,,,left,1,0.9171169894107152,1,,,,,,,,,,,,,,,,,,,,,,1061,2019_Mar_13_1458,mf_amp_cond1,3.0.4,59.98155123116491,
improve,Lacedonia,&&&&&&&&&,left,care.virtue,,,,,,,0,70,70,70,,,,,,,,,,,,,,,,,,,,,AMP,left,0.6337140216201078,,,left,1,0.6337140216201078,1,,,,,,,,,,,,,,,,,,,,,,1061,2019_Mar_13_1458,mf_amp_cond1,3.0.4,59.98155123116491,
promote,leact,&&&&&,left,sanctity.virtue,,,,,,,0,71,71,71,,,,,,,,,,,,,,,,,,,,,AMP,right,0.8337868900271133,,,right,0,0.8337868900271133,0,,,,,,,,,,,,,,,,,,,,,,1061,2019_Mar_13_1458,mf_amp_cond1,3.0.4,59.98155123116491,
killed,edancipation,&&&&&&&&&&&&,right,care.vice,,,,,,,0,72,72,72,,,,,,,,,,,,,,,,,,,,,AMP,left,1.5172762607689947,,,left,0,1.5172762607689947,0,,,,,,,,,,,,,,,,,,,,,,1061,2019_Mar_13_1458,mf_amp_cond1,3.0.4,59.98155123116491,
failure,stindig,&&&&&&&,right,loyalty.vice,,,,,,,0,73,73,73,,,,,,,,,,,,,,,,,,,,,AMP,left,1.2005282960017212,,,left,0,1.2005282960017212,0,,,,,,,,,,,,,,,,,,,,,,1061,2019_Mar_13_1458,mf_amp_cond1,3.0.4,59.98155123116491,
fraud,thabbily,&&&&&&&&,right,fairness.vice,,,,,,,0,74,74,74,,,,,,,,,,,,,,,,,,,,,AMP,left,0.8504629164817743,,,left,0,0.8504629164817743,0,,,,,,,,,,,,,,,,,,,,,,1061,2019_Mar_13_1458,mf_amp_cond1,3.0.4,59.98155123116491,
faith,galamitous,&&&&&&&&&&,left,sanctity.virtue,,,,,,,0,75,75,75,,,,,,,,,,,,,,,,,,,,,AMP,left,0.8504417487420142,,,left,1,0.8504417487420142,1,,,,,,,,,,,,,,,,,,,,,,1061,2019_Mar_13_1458,mf_amp_cond1,3.0.4,59.98155123116491,
serial,festate,&&&&&&&,right,sanctity.vice,,,,,,,0,76,76,76,,,,,,,,,,,,,,,,,,,,,AMP,left,0.8837970088643488,,,left,0,0.8837970088643488,0,,,,,,,,,,,,,,,,,,,,,,1061,2019_Mar_13_1458,mf_amp_cond1,3.0.4,59.98155123116491,
increase,gandbrake,&&&&&&&&&,left,care.virtue,,,,,,,0,77,77,77,,,,,,,,,,,,,,,,,,,,,AMP,left,0.7003459646075498,,,left,1,0.7003459646075498,1,,,,,,,,,,,,,,,,,,,,,,1061,2019_Mar_13_1458,mf_amp_cond1,3.0.4,59.98155123116491,
sharing,rivernoat,&&&&&&&&&,left,loyalty.virtue,,,,,,,0,78,78,78,,,,,,,,,,,,,,,,,,,,,AMP,left,0.7170691374340095,,,left,1,0.7170691374340095,1,,,,,,,,,,,,,,,,,,,,,,1061,2019_Mar_13_1458,mf_amp_cond1,3.0.4,59.98155123116491,
alar,carvels,&&&&&&&,None,nonword,,,,,,,0,79,79,79,,,,,,,,,,,,,,,,,,,,,AMP,right,1.2338768209738191,,,right,0,1.2338768209738191,0,,,,,,,,,,,,,,,,,,,,,,1061,2019_Mar_13_1458,mf_amp_cond1,3.0.4,59.98155123116491,
sfumatoy,sliptery,&&&&&&&&,None,nonword,,,,,,,0,80,80,80,,,,,,,,,,,,,,,,,,,,,AMP,left,0.7337406737497076,,,left,0,0.7337406737497076,0,,,,,,,,,,,,,,,,,,,,,,1061,2019_Mar_13_1458,mf_amp_cond1,3.0.4,59.98155123116491,
unpleasant,discovars,&&&&&&&&&,None,control,,,,,,,0,81,81,81,,,,,,,,,,,,,,,,,,,,,AMP,left,0.8004396479809657,,,left,0,0.8004396479809657,0,,,,,,,,,,,,,,,,,,,,,,1061,2019_Mar_13_1458,mf_amp_cond1,3.0.4,59.98155123116491,
chonograph,discovars,&&&&&&&&&,None,nonword,,,,,,,0,82,82,82,,,,,,,,,,,,,,,,,,,,,AMP,right,0.9004553955164738,,,right,0,0.9004553955164738,0,,,,,,,,,,,,,,,,,,,,,,1061,2019_Mar_13_1458,mf_amp_cond1,3.0.4,59.98155123116491,
fair,sgrawl,&&&&&&,left,fairness.virtue,,,,,,,0,83,83,83,,,,,,,,,,,,,,,,,,,,,AMP,left,0.5670298007025849,,,left,1,0.5670298007025849,1,,,,,,,,,,,,,,,,,,,,,,1061,2019_Mar_13_1458,mf_amp_cond1,3.0.4,59.98155123116491,
torture,leact,&&&&&,right,care.vice,,,,,,,0,84,84,84,,,,,,,,,,,,,,,,,,,,,AMP,left,0.5503624337725341,,,left,0,0.5503624337725341,0,,,,,,,,,,,,,,,,,,,,,,1061,2019_Mar_13_1458,mf_amp_cond1,3.0.4,59.98155123116491,
serial,festate,&&&&&&&,right,sanctity.vice,,,,,,,0,85,85,85,,,,,,,,,,,,,,,,,,,,,AMP,left,0.7170851736154873,,,left,0,0.7170851736154873,0,,,,,,,,,,,,,,,,,,,,,,1061,2019_Mar_13_1458,mf_amp_cond1,3.0.4,59.98155123116491,
threatened,focomotive,&&&&&&&&&&,right,fairness.vice,,,,,,,0,86,86,86,,,,,,,,,,,,,,,,,,,,,AMP,left,0.6670679988455959,,,left,0,0.6670679988455959,0,,,,,,,,,,,,,,,,,,,,,,1061,2019_Mar_13_1458,mf_amp_cond1,3.0.4,59.98155123116491,
ammessment,ugeasily,&&&&&&&&,None,nonword,,,,,,,0,87,87,87,,,,,,,,,,,,,,,,,,,,,AMP,left,0.38366855902131647,,,left,0,0.38366855902131647,0,,,,,,,,,,,,,,,,,,,,,,1061,2019_Mar_13_1458,mf_amp_cond1,3.0.4,59.98155123116491,
respect,gedious,&&&&&&&,left,sanctity.virtue,,,,,,,0,88,88,88,,,,,,,,,,,,,,,,,,,,,AMP,left,0.3669947776652407,,,left,1,0.3669947776652407,1,,,,,,,,,,,,,,,,,,,,,,1061,2019_Mar_13_1458,mf_amp_cond1,3.0.4,59.98155123116491,
lies,nackers,&&&&&&&,right,fairness.vice,,,,,,,0,89,89,89,,,,,,,,,,,,,,,,,,,,,AMP,left,0.517015833145706,,,left,0,0.517015833145706,0,,,,,,,,,,,,,,,,,,,,,,1061,2019_Mar_13_1458,mf_amp_cond1,3.0.4,59.98155123116491,
hope,synchronazers,&&&&&&&&&&&&&,left,loyalty.virtue,,,,,,,0,90,90,90,,,,,,,,,,,,,,,,,,,,,AMP,right,0.183599218580639,,,right,0,0.183599218580639,0,,,,,,,,,,,,,,,,,,,,,,1061,2019_Mar_13_1458,mf_amp_cond1,3.0.4,59.98155123116491,
sfumatoy,rorroborated,&&&&&&&&&&&&,None,nonword,,,,,,,0,91,91,91,,,,,,,,,,,,,,,,,,,,,AMP,left,0.06692861235933378,,,left,0,0.06692861235933378,0,,,,,,,,,,,,,,,,,,,,,,1061,2019_Mar_13_1458,mf_amp_cond1,3.0.4,59.98155123116491,
men,forepo,&&&&&&,right,loyalty.vice,,,,,,,0,92,92,92,,,,,,,,,,,,,,,,,,,,,AMP,right,0.6003696660627611,,,right,1,0.6003696660627611,1,,,,,,,,,,,,,,,,,,,,,,1061,2019_Mar_13_1458,mf_amp_cond1,3.0.4,59.98155123116491,
killed,presentkess,&&&&&&&&&&&,right,care.vice,,,,,,,0,93,93,93,,,,,,,,,,,,,,,,,,,,,AMP,left,0.8004226496559568,,,left,0,0.8004226496559568,0,,,,,,,,,,,,,,,,,,,,,,1061,2019_Mar_13_1458,mf_amp_cond1,3.0.4,59.98155123116491,
strong,pullness,&&&&&&&&,left,loyalty.virtue,,,,,,,0,94,94,94,,,,,,,,,,,,,,,,,,,,,AMP,right,0.4670057143375743,,,right,0,0.4670057143375743,0,,,,,,,,,,,,,,,,,,,,,,1061,2019_Mar_13_1458,mf_amp_cond1,3.0.4,59.98155123116491,
racist,bruthfulness,&&&&&&&&&&&&,right,sanctity.vice,,,,,,,0,95,95,95,,,,,,,,,,,,,,,,,,,,,AMP,left,0.6503829921421129,,,left,0,0.6503829921421129,0,,,,,,,,,,,,,,,,,,,,,,1061,2019_Mar_13_1458,mf_amp_cond1,3.0.4,59.98155123116491,
help,nomparisons,&&&&&&&&&&&,left,care.virtue,,,,,,,0,96,96,96,,,,,,,,,,,,,,,,,,,,,AMP,left,0.6170479375869036,,,left,1,0.6170479375869036,1,,,,,,,,,,,,,,,,,,,,,,1061,2019_Mar_13_1458,mf_amp_cond1,3.0.4,59.98155123116491,
army,laming,&&&&&&,right,loyalty.vice,,,,,,,0,97,97,97,,,,,,,,,,,,,,,,,,,,,AMP,left,0.9671399371873122,,,left,0,0.9671399371873122,0,,,,,,,,,,,,,,,,,,,,,,1061,2019_Mar_13_1458,mf_amp_cond1,3.0.4,59.98155123116491,
actively,gandbrake,&&&&&&&&&,left,authority.virtue,,,,,,,0,98,98,98,,,,,,,,,,,,,,,,,,,,,AMP,left,0.8004239325528033,,,left,1,0.8004239325528033,1,,,,,,,,,,,,,,,,,,,,,,1061,2019_Mar_13_1458,mf_amp_cond1,3.0.4,59.98155123116491,
credit,crilfully,&&&&&&&&&,left,fairness.virtue,,,,,,,0,99,99,99,,,,,,,,,,,,,,,,,,,,,AMP,left,0.5837071100249887,,,left,1,0.5837071100249887,1,,,,,,,,,,,,,,,,,,,,,,1061,2019_Mar_13_1458,mf_amp_cond1,3.0.4,59.98155123116491,
allears,dramens,&&&&&&&,None,nonword,,,,,,,0,100,100,100,,,,,,,,,,,,,,,,,,,,,AMP,left,0.43368445089436136,,,left,0,0.43368445089436136,0,,,,,,,,,,,,,,,,,,,,,,1061,2019_Mar_13_1458,mf_amp_cond1,3.0.4,59.98155123116491,
died,Lacedonia,&&&&&&&&&,right,care.vice,,,,,,,0,101,101,101,,,,,,,,,,,,,,,,,,,,,AMP,left,0.567015688837273,,,left,0,0.567015688837273,0,,,,,,,,,,,,,,,,,,,,,,1061,2019_Mar_13_1458,mf_amp_cond1,3.0.4,59.98155123116491,
sharing,Loorish,&&&&&&&,left,loyalty.virtue,,,,,,,0,102,102,102,,,,,,,,,,,,,,,,,,,,,AMP,left,0.3836393731762655,,,left,1,0.3836393731762655,1,,,,,,,,,,,,,,,,,,,,,,1061,2019_Mar_13_1458,mf_amp_cond1,3.0.4,59.98155123116491,
corruption,iptervention,&&&&&&&&&&&&,right,sanctity.vice,,,,,,,0,103,103,103,,,,,,,,,,,,,,,,,,,,,AMP,left,0.2502959477424156,,,left,0,0.2502959477424156,0,,,,,,,,,,,,,,,,,,,,,,1061,2019_Mar_13_1458,mf_amp_cond1,3.0.4,59.98155123116491,
prison,erdest,&&&&&&,right,fairness.vice,,,,,,,0,104,104,104,,,,,,,,,,,,,,,,,,,,,AMP,left,0.8003065476659685,,,left,0,0.8003065476659685,0,,,,,,,,,,,,,,,,,,,,,,1061,2019_Mar_13_1458,mf_amp_cond1,3.0.4,59.98155123116491,
war,oam,&&&,right,sanctity.vice,,,,,,,0,105,105,105,,,,,,,,,,,,,,,,,,,,,AMP,right,0.45035406286478974,,,right,1,0.45035406286478974,1,,,,,,,,,,,,,,,,,,,,,,1061,2019_Mar_13_1458,mf_amp_cond1,3.0.4,59.98155123116491,
celebrated,halaise,&&&&&&&,left,authority.virtue,,,,,,,0,106,106,106,,,,,,,,,,,,,,,,,,,,,AMP,right,0.3669848352437839,,,right,0,0.3669848352437839,0,,,,,,,,,,,,,,,,,,,,,,1061,2019_Mar_13_1458,mf_amp_cond1,3.0.4,59.98155123116491,
pleasant,precificity,&&&&&&&&&&&,None,control,,,,,,,0,107,107,107,,,,,,,,,,,,,,,,,,,,,AMP,right,0.5837167317513376,,,right,0,0.5837167317513376,0,,,,,,,,,,,,,,,,,,,,,,1061,2019_Mar_13_1458,mf_amp_cond1,3.0.4,59.98155123116491,
groups,fontacts,&&&&&&&&,right,loyalty.vice,,,,,,,0,108,108,108,,,,,,,,,,,,,,,,,,,,,AMP,left,0.46688897092826664,,,left,0,0.46688897092826664,0,,,,,,,,,,,,,,,,,,,,,,1061,2019_Mar_13_1458,mf_amp_cond1,3.0.4,59.98155123116491,
free,ronviolence,&&&&&&&&&&&,left,fairness.virtue,,,,,,,0,109,109,109,,,,,,,,,,,,,,,,,,,,,AMP,right,0.4503280842618551,,,right,0,0.4503280842618551,0,,,,,,,,,,,,,,,,,,,,,,1061,2019_Mar_13_1458,mf_amp_cond1,3.0.4,59.98155123116491,
fraud,gikely,&&&&&&,right,fairness.vice,,,,,,,0,110,110,110,,,,,,,,,,,,,,,,,,,,,AMP,left,0.5003433346573729,,,left,0,0.5003433346573729,0,,,,,,,,,,,,,,,,,,,,,,1061,2019_Mar_13_1458,mf_amp_cond1,3.0.4,59.98155123116491,
rebels,atson,&&&&&,right,authority.vice,,,,,,,0,111,111,111,,,,,,,,,,,,,,,,,,,,,AMP,right,0.2502844016999006,,,right,1,0.2502844016999006,1,,,,,,,,,,,,,,,,,,,,,,1061,2019_Mar_13_1458,mf_amp_cond1,3.0.4,59.98155123116491,
police,sliptery,&&&&&&&&,right,authority.vice,,,,,,,0,112,112,112,,,,,,,,,,,,,,,,,,,,,AMP,left,0.5336883316631429,,,left,0,0.5336883316631429,0,,,,,,,,,,,,,,,,,,,,,,1061,2019_Mar_13_1458,mf_amp_cond1,3.0.4,59.98155123116491,
compassion,edancipation,&&&&&&&&&&&&,left,care.virtue,,,,,,,0,113,113,113,,,,,,,,,,,,,,,,,,,,,AMP,right,0.18361236827331595,,,right,0,0.18361236827331595,0,,,,,,,,,,,,,,,,,,,,,,1061,2019_Mar_13_1458,mf_amp_cond1,3.0.4,59.98155123116491,
hescribe,thadowed,&&&&&&&&,None,nonword,,,,,,,0,114,114,114,,,,,,,,,,,,,,,,,,,,,AMP,right,0.5670362151577137,,,right,0,0.5670362151577137,0,,,,,,,,,,,,,,,,,,,,,,1061,2019_Mar_13_1458,mf_amp_cond1,3.0.4,59.98155123116491,
encourage,perified,&&&&&&&&,left,authority.virtue,,,,,,,0,115,115,115,,,,,,,,,,,,,,,,,,,,,AMP,right,0.26698672748170793,,,right,0,0.26698672748170793,0,,,,,,,,,,,,,,,,,,,,,,1061,2019_Mar_13_1458,mf_amp_cond1,3.0.4,59.98155123116491,
abuse,divility,&&&&&&&&,right,sanctity.vice,,,,,,,0,116,116,116,,,,,,,,,,,,,,,,,,,,,AMP,right,0.7837353978538886,,,right,1,0.7837353978538886,1,,,,,,,,,,,,,,,,,,,,,,1061,2019_Mar_13_1458,mf_amp_cond1,3.0.4,59.98155123116491,
gun,rivernoat,&&&&&&&&&,right,authority.vice,,,,,,,0,117,117,117,,,,,,,,,,,,,,,,,,,,,AMP,left,0.6170694260799792,,,left,0,0.6170694260799792,0,,,,,,,,,,,,,,,,,,,,,,1061,2019_Mar_13_1458,mf_amp_cond1,3.0.4,59.98155123116491,
faith,honstables,&&&&&&&&&&,left,sanctity.virtue,,,,,,,0,118,118,118,,,,,,,,,,,,,,,,,,,,,AMP,left,0.41696127806790173,,,left,1,0.41696127806790173,1,,,,,,,,,,,,,,,,,,,,,,1061,2019_Mar_13_1458,mf_amp_cond1,3.0.4,59.98155123116491,
ensure,erks,&&&&,left,fairness.virtue,,,,,,,0,119,119,119,,,,,,,,,,,,,,,,,,,,,AMP,left,0.45033930958015844,,,left,1,0.45033930958015844,1,,,,,,,,,,,,,,,,,,,,,,1061,2019_Mar_13_1458,mf_amp_cond1,3.0.4,59.98155123116491,
charges,blunderints,&&&&&&&&&&&,right,fairness.vice,,,,,,,0,120,120,120,,,,,,,,,,,,,,,,,,,,,AMP,right,0.6837327999819536,,,right,1,0.6837327999819536,1,,,,,,,,,,,,,,,,,,,,,,1061,2019_Mar_13_1458,mf_amp_cond1,3.0.4,59.98155123116491,
improve,saned,&&&&&,left,care.virtue,,,,,,,0,121,121,121,,,,,,,,,,,,,,,,,,,,,AMP,left,0.600375759851886,,,left,1,0.600375759851886,1,,,,,,,,,,,,,,,,,,,,,,1061,2019_Mar_13_1458,mf_amp_cond1,3.0.4,59.98155123116491,
refused,tislay,&&&&&&,right,authority.vice,,,,,,,0,122,122,122,,,,,,,,,,,,,,,,,,,,,AMP,right,0.5837087136460468,,,right,1,0.5837087136460468,1,,,,,,,,,,,,,,,,,,,,,,1061,2019_Mar_13_1458,mf_amp_cond1,3.0.4,59.98155123116491,
ability,vurtain,&&&&&&&,left,authority.virtue,,,,,,,0,123,123,123,,,,,,,,,,,,,,,,,,,,,AMP,left,0.45034700696123764,,,left,1,0.45034700696123764,1,,,,,,,,,,,,,,,,,,,,,,1061,2019_Mar_13_1458,mf_amp_cond1,3.0.4,59.98155123116491,
friends,nomaric,&&&&&&&,left,loyalty.virtue,,,,,,,0,124,124,124,,,,,,,,,,,,,,,,,,,,,AMP,left,0.4669999413017649,,,left,1,0.4669999413017649,1,,,,,,,,,,,,,,,,,,,,,,1061,2019_Mar_13_1458,mf_amp_cond1,3.0.4,59.98155123116491,
shot,seachwear,&&&&&&&&&,right,care.vice,,,,,,,0,125,125,125,,,,,,,,,,,,,,,,,,,,,AMP,left,0.4670191847253591,,,left,0,0.4670191847253591,0,,,,,,,,,,,,,,,,,,,,,,1061,2019_Mar_13_1458,mf_amp_cond1,3.0.4,59.98155123116491,
attacks,spag,&&&&,right,care.vice,,,,,,,0,126,126,126,,,,,,,,,,,,,,,,,,,,,AMP,left,0.3336494599643629,,,left,0,0.3336494599643629,0,,,,,,,,,,,,,,,,,,,,,,1061,2019_Mar_13_1458,mf_amp_cond1,3.0.4,59.98155123116491,
troops,neutralust,&&&&&&&&&&,right,loyalty.vice,,,,,,,0,127,127,127,,,,,,,,,,,,,,,,,,,,,AMP,right,0.23360388510627672,,,right,1,0.23360388510627672,1,,,,,,,,,,,,,,,,,,,,,,1061,2019_Mar_13_1458,mf_amp_cond1,3.0.4,59.98155123116491,
victim,galamitous,&&&&&&&&&&,right,care.vice,,,,,,,0,128,128,128,,,,,,,,,,,,,,,,,,,,,AMP,left,0.350318430486368,,,left,0,0.350318430486368,0,,,,,,,,,,,,,,,,,,,,,,1061,2019_Mar_13_1458,mf_amp_cond1,3.0.4,59.98155123116491,
rejected,totalestic,&&&&&&&&&&,right,authority.vice,,,,,,,0,129,129,129,,,,,,,,,,,,,,,,,,,,,AMP,left,0.43367130123078823,,,left,0,0.43367130123078823,0,,,,,,,,,,,,,,,,,,,,,,1061,2019_Mar_13_1458,mf_amp_cond1,3.0.4,59.98155123116491,
crime,quarterbocks,&&&&&&&&&&&&,right,fairness.vice,,,,,,,0,130,130,130,,,,,,,,,,,,,,,,,,,,,AMP,left,0.45035117634688504,,,left,0,0.45035117634688504,0,,,,,,,,,,,,,,,,,,,,,,1061,2019_Mar_13_1458,mf_amp_cond1,3.0.4,59.98155123116491,
prosecution,neputized,&&&&&&&&&,right,authority.vice,,,,,,,0,131,131,131,,,,,,,,,,,,,,,,,,,,,AMP,right,0.6170533899276052,,,right,1,0.6170533899276052,1,,,,,,,,,,,,,,,,,,,,,,1061,2019_Mar_13_1458,mf_amp_cond1,3.0.4,59.98155123116491,
hand,disregord,&&&&&&&&&,left,sanctity.virtue,,,,,,,0,132,132,132,,,,,,,,,,,,,,,,,,,,,AMP,left,0.4336924689996522,,,left,1,0.4336924689996522,1,,,,,,,,,,,,,,,,,,,,,,1061,2019_Mar_13_1458,mf_amp_cond1,3.0.4,59.98155123116491,
emassion,chadows,&&&&&&&,None,nonword,,,,,,,0,133,133,133,,,,,,,,,,,,,,,,,,,,,AMP,left,0.4503142931498587,,,left,0,0.4503142931498587,0,,,,,,,,,,,,,,,,,,,,,,1061,2019_Mar_13_1458,mf_amp_cond1,3.0.4,59.98155123116491,
win,asn,&&&,left,fairness.virtue,,,,,,,0,134,134,134,,,,,,,,,,,,,,,,,,,,,AMP,right,0.4503514971002005,,,right,0,0.4503514971002005,0,,,,,,,,,,,,,,,,,,,,,,1061,2019_Mar_13_1458,mf_amp_cond1,3.0.4,59.98155123116491,
unpleasant,grovelire,&&&&&&&&&,None,control,,,,,,,0,135,135,135,,,,,,,,,,,,,,,,,,,,,AMP,left,0.5503723761939909,,,left,0,0.5503723761939909,0,,,,,,,,,,,,,,,,,,,,,,1061,2019_Mar_13_1458,mf_amp_cond1,3.0.4,59.98155123116491,
good,bycled,&&&&&&,left,care.virtue,,,,,,,0,136,136,136,,,,,,,,,,,,,,,,,,,,,AMP,left,0.4670047521649394,,,left,1,0.4670047521649394,1,,,,,,,,,,,,,,,,,,,,,,1061,2019_Mar_13_1458,mf_amp_cond1,3.0.4,59.98155123116491,
alar,scalbel,&&&&&&&,None,nonword,,,,,,,0,137,137,137,,,,,,,,,,,,,,,,,,,,,AMP,left,0.46701277027023025,,,left,0,0.46701277027023025,0,,,,,,,,,,,,,,,,,,,,,,1061,2019_Mar_13_1458,mf_amp_cond1,3.0.4,59.98155123116491,
brudent,supervuned,&&&&&&&&&&,None,nonword,,,,,,,0,138,138,138,,,,,,,,,,,,,,,,,,,,,AMP,right,0.4670230334158987,,,right,0,0.4670230334158987,0,,,,,,,,,,,,,,,,,,,,,,1061,2019_Mar_13_1458,mf_amp_cond1,3.0.4,59.98155123116491,
embrace,uller,&&&&&,left,authority.virtue,,,,,,,0,139,139,139,,,,,,,,,,,,,,,,,,,,,AMP,left,0.45033129150397144,,,left,1,0.45033129150397144,1,,,,,,,,,,,,,,,,,,,,,,1061,2019_Mar_13_1458,mf_amp_cond1,3.0.4,59.98155123116491,
tabin,strofe,&&&&&&,None,nonword,,,,,,,0,140,140,140,,,,,,,,,,,,,,,,,,,,,AMP,left,0.7170700996066444,,,left,0,0.7170700996066444,0,,,,,,,,,,,,,,,,,,,,,,1061,2019_Mar_13_1458,mf_amp_cond1,3.0.4,59.98155123116491,
restore,letish,&&&&&&,left,care.virtue,,,,,,,0,141,141,141,,,,,,,,,,,,,,,,,,,,,AMP,right,0.5503659617388621,,,right,0,0.5503659617388621,0,,,,,,,,,,,,,,,,,,,,,,1061,2019_Mar_13_1458,mf_amp_cond1,3.0.4,59.98155123116491,
promises,papert,&&&&&&,left,fairness.virtue,,,,,,,0,142,142,142,,,,,,,,,,,,,,,,,,,,,AMP,left,0.43361325026489794,,,left,1,0.43361325026489794,1,,,,,,,,,,,,,,,,,,,,,,1061,2019_Mar_13_1458,mf_amp_cond1,3.0.4,59.98155123116491,
slavery,mecan,&&&&&,right,loyalty.vice,,,,,,,0,143,143,143,,,,,,,,,,,,,,,,,,,,,AMP,left,0.38364450476365164,,,left,0,0.38364450476365164,0,,,,,,,,,,,,,,,,,,,,,,1061,2019_Mar_13_1458,mf_amp_cond1,3.0.4,59.98155123116491,
praised,stindig,&&&&&&&,left,loyalty.virtue,,,,,,,0,144,144,144,,,,,,,,,,,,,,,,,,,,,AMP,right,0.93377730040811,,,right,0,0.93377730040811,0,,,,,,,,,,,,,,,,,,,,,,1061,2019_Mar_13_1458,mf_amp_cond1,3.0.4,59.98155123116491,
fear,feleological,&&&&&&&&&&&&,right,sanctity.vice,,,,,,,0,145,145,145,,,,,,,,,,,,,,,,,,,,,AMP,left,0.3003054251312278,,,left,0,0.3003054251312278,0,,,,,,,,,,,,,,,,,,,,,,1061,2019_Mar_13_1458,mf_amp_cond1,3.0.4,59.98155123116491,
elduringly,imebreaker,&&&&&&&&&&,None,nonword,,,,,,,0,146,146,146,,,,,,,,,,,,,,,,,,,,,AMP,left,0.40034458550508134,,,left,0,0.40034458550508134,0,,,,,,,,,,,,,,,,,,,,,,1061,2019_Mar_13_1458,mf_amp_cond1,3.0.4,59.98155123116491,
great,counpy's,&&&&&&&&,left,loyalty.virtue,,,,,,,0,147,147,147,,,,,,,,,,,,,,,,,,,,,AMP,left,0.36697777931112796,,,left,1,0.36697777931112796,1,,,,,,,,,,,,,,,,,,,,,,1061,2019_Mar_13_1458,mf_amp_cond1,3.0.4,59.98155123116491,
failure,Cunday,&&&&&&,right,loyalty.vice,,,,,,,0,148,148,148,,,,,,,,,,,,,,,,,,,,,AMP,left,0.2836383789544925,,,left,0,0.2836383789544925,0,,,,,,,,,,,,,,,,,,,,,,1061,2019_Mar_13_1458,mf_amp_cond1,3.0.4,59.98155123116491,
hate,gationwide,&&&&&&&&&&,right,fairness.vice,,,,,,,0,149,149,149,,,,,,,,,,,,,,,,,,,,,AMP,left,0.1502449206309393,,,left,0,0.1502449206309393,0,,,,,,,,,,,,,,,,,,,,,,1061,2019_Mar_13_1458,mf_amp_cond1,3.0.4,59.98155123116491,
growth,brotesque,&&&&&&&&&,left,care.virtue,,,,,,,0,150,150,150,,,,,,,,,,,,,,,,,,,,,AMP,left,0.7837735639768653,,,left,1,0.7837735639768653,1,,,,,,,,,,,,,,,,,,,,,,1061,2019_Mar_13_1458,mf_amp_cond1,3.0.4,59.98155123116491,
energy,ebbitter,&&&&&&&&,left,sanctity.virtue,,,,,,,0,151,151,151,,,,,,,,,,,,,,,,,,,,,AMP,right,0.5169978726189584,,,right,0,0.5169978726189584,0,,,,,,,,,,,,,,,,,,,,,,1061,2019_Mar_13_1458,mf_amp_cond1,3.0.4,59.98155123116491,
love,viscs,&&&&&,left,loyalty.virtue,,,,,,,0,152,152,152,,,,,,,,,,,,,,,,,,,,,AMP,left,1.3338864747493062,,,left,1,1.3338864747493062,1,,,,,,,,,,,,,,,,,,,,,,1061,2019_Mar_13_1458,mf_amp_cond1,3.0.4,59.98155123116491,
increase,carvels,&&&&&&&,left,care.virtue,,,,,,,0,153,153,153,,,,,,,,,,,,,,,,,,,,,AMP,right,0.6337053620954975,,,right,0,0.6337053620954975,0,,,,,,,,,,,,,,,,,,,,,,1061,2019_Mar_13_1458,mf_amp_cond1,3.0.4,59.98155123116491,
black,lempestuous,&&&&&&&&&&&,right,loyalty.vice,,,,,,,0,154,154,154,,,,,,,,,,,,,,,,,,,,,AMP,left,0.41700746229616925,,,left,0,0.41700746229616925,0,,,,,,,,,,,,,,,,,,,,,,1061,2019_Mar_13_1458,mf_amp_cond1,3.0.4,59.98155123116491,
values,chreams,&&&&&&&,left,sanctity.virtue,,,,,,,0,155,155,155,,,,,,,,,,,,,,,,,,,,,AMP,right,0.45034508261596784,,,right,0,0.45034508261596784,0,,,,,,,,,,,,,,,,,,,,,,1061,2019_Mar_13_1458,mf_amp_cond1,3.0.4,59.98155123116491,
promote,chared,&&&&&&,left,sanctity.virtue,,,,,,,0,156,156,156,,,,,,,,,,,,,,,,,,,,,AMP,left,0.4170084244397003,,,left,1,0.4170084244397003,1,,,,,,,,,,,,,,,,,,,,,,1061,2019_Mar_13_1458,mf_amp_cond1,3.0.4,59.98155123116491,
violence,metibolic,&&&&&&&&&,right,care.vice,,,,,,,0,157,157,157,,,,,,,,,,,,,,,,,,,,,AMP,right,0.20027460358687676,,,right,1,0.20027460358687676,1,,,,,,,,,,,,,,,,,,,,,,1061,2019_Mar_13_1458,mf_amp_cond1,3.0.4,59.98155123116491,
freedom,hefurbished,&&&&&&&&&&&,left,sanctity.virtue,,,,,,,0,158,158,158,,,,,,,,,,,,,,,,,,,,,AMP,left,0.15025422160397284,,,left,1,0.15025422160397284,1,,,,,,,,,,,,,,,,,,,,,,1061,2019_Mar_13_1458,mf_amp_cond1,3.0.4,59.98155123116491,
trust,thabbily,&&&&&&&&,left,authority.virtue,,,,,,,0,159,159,159,,,,,,,,,,,,,,,,,,,,,AMP,left,0.3336347066506278,,,left,1,0.3336347066506278,1,,,,,,,,,,,,,,,,,,,,,,1061,2019_Mar_13_1458,mf_amp_cond1,3.0.4,59.98155123116491,
progress,bluently,&&&&&&&&,left,authority.virtue,,,,,,,0,160,160,160,,,,,,,,,,,,,,,,,,,,,AMP,left,0.28349244967103004,,,left,1,0.28349244967103004,1,,,,,,,,,,,,,,,,,,,,,,1061,2019_Mar_13_1458,mf_amp_cond1,3.0.4,59.98155123116491,
violations,wump,&&&&,right,sanctity.vice,,,,,,,0,161,161,161,,,,,,,,,,,,,,,,,,,,,AMP,left,0.21694485703483224,,,left,0,0.21694485703483224,0,,,,,,,,,,,,,,,,,,,,,,1061,2019_Mar_13_1458,mf_amp_cond1,3.0.4,59.98155123116491,
arrests,greaks,&&&&&&,right,authority.vice,,,,,,,0,162,162,162,,,,,,,,,,,,,,,,,,,,,AMP,left,0.21696185538894497,,,left,0,0.21696185538894497,0,,,,,,,,,,,,,,,,,,,,,,1061,2019_Mar_13_1458,mf_amp_cond1,3.0.4,59.98155123116491,
protect,Oregoniuns,&&&&&&&&&&,left,fairness.virtue,,,,,,,0,163,163,163,,,,,,,,,,,,,,,,,,,,,AMP,right,0.4502030020521488,,,right,0,0.4502030020521488,0,,,,,,,,,,,,,,,,,,,,,,1061,2019_Mar_13_1458,mf_amp_cond1,3.0.4,59.98155123116491,
sfumatoy,scalbel,&&&&&&&,None,nonword,,,,,,,0,164,164,164,,,,,,,,,,,,,,,,,,,,,AMP,right,0.4003365673997905,,,right,0,0.4003365673997905,0,,,,,,,,,,,,,,,,,,,,,,1061,2019_Mar_13_1458,mf_amp_cond1,3.0.4,59.98155123116491,
refused,bluently,&&&&&&&&,right,authority.vice,,,,,,,0,165,165,165,,,,,,,,,,,,,,,,,,,,,AMP,left,0.2169416497927159,,,left,0,0.2169416497927159,0,,,,,,,,,,,,,,,,,,,,,,1061,2019_Mar_13_1458,mf_amp_cond1,3.0.4,59.98155123116491,
abuse,pullness,&&&&&&&&,right,sanctity.vice,,,,,,,0,166,166,166,,,,,,,,,,,,,,,,,,,,,AMP,right,0.08359501711674966,,,right,1,0.08359501711674966,1,,,,,,,,,,,,,,,,,,,,,,1061,2019_Mar_13_1458,mf_amp_cond1,3.0.4,59.98155123116491,
crime,greaks,&&&&&&,right,fairness.vice,,,,,,,0,167,167,167,,,,,,,,,,,,,,,,,,,,,AMP,right,0.25026996913948096,,,right,1,0.25026996913948096,1,,,,,,,,,,,,,,,,,,,,,,1061,2019_Mar_13_1458,mf_amp_cond1,3.0.4,59.98155123116491,
protect,chared,&&&&&&,left,fairness.virtue,,,,,,,0,168,168,168,,,,,,,,,,,,,,,,,,,,,AMP,left,0.26693541172426194,,,left,1,0.26693541172426194,1,,,,,,,,,,,,,,,,,,,,,,1061,2019_Mar_13_1458,mf_amp_cond1,3.0.4,59.98155123116491,
violence,halaise,&&&&&&&,right,care.vice,,,,,,,0,169,169,169,,,,,,,,,,,,,,,,,,,,,AMP,right,0.26696171102230437,,,right,1,0.26696171102230437,1,,,,,,,,,,,,,,,,,,,,,,1061,2019_Mar_13_1458,mf_amp_cond1,3.0.4,59.98155123116491,
unpleasant,mecan,&&&&&,None,control,,,,,,,0,170,170,170,,,,,,,,,,,,,,,,,,,,,AMP,left,0.16691196680767462,,,left,0,0.16691196680767462,0,,,,,,,,,,,,,,,,,,,,,,1061,2019_Mar_13_1458,mf_amp_cond1,3.0.4,59.98155123116491,
shot,ebbitter,&&&&&&&&,right,care.vice,,,,,,,0,171,171,171,,,,,,,,,,,,,,,,,,,,,AMP,right,0.000251126621151343,,,right,1,0.000251126621151343,1,,,,,,,,,,,,,,,,,,,,,,1061,2019_Mar_13_1458,mf_amp_cond1,3.0.4,59.98155123116491,
embrace,disregord,&&&&&&&&&,left,authority.virtue,,,,,,,0,172,172,172,,,,,,,,,,,,,,,,,,,,,AMP,left,0.6670477932784706,,,left,1,0.6670477932784706,1,,,,,,,,,,,,,,,,,,,,,,1061,2019_Mar_13_1458,mf_amp_cond1,3.0.4,59.98155123116491,
great,neputized,&&&&&&&&&,left,loyalty.virtue,,,,,,,0,173,173,173,,,,,,,,,,,,,,,,,,,,,AMP,left,0.2002768486563582,,,left,1,0.2002768486563582,1,,,,,,,,,,,,,,,,,,,,,,1061,2019_Mar_13_1458,mf_amp_cond1,3.0.4,59.98155123116491,
racist,presentkess,&&&&&&&&&&&,right,sanctity.vice,,,,,,,0,174,174,174,,,,,,,,,,,,,,,,,,,,,AMP,left,0.11693327888497151,,,left,0,0.11693327888497151,0,,,,,,,,,,,,,,,,,,,,,,1061,2019_Mar_13_1458,mf_amp_cond1,3.0.4,59.98155123116491,
emassion,ugeasily,&&&&&&&&,None,nonword,,,,,,,0,175,175,175,,,,,,,,,,,,,,,,,,,,,AMP,right,0.18361429261858575,,,right,0,0.18361429261858575,0,,,,,,,,,,,,,,,,,,,,,,1061,2019_Mar_13_1458,mf_amp_cond1,3.0.4,59.98155123116491,
good,counpy's,&&&&&&&&,left,care.virtue,,,,,,,0,176,176,176,,,,,,,,,,,,,,,,,,,,,AMP,right,0.3003118396154605,,,right,0,0.3003118396154605,0,,,,,,,,,,,,,,,,,,,,,,1061,2019_Mar_13_1458,mf_amp_cond1,3.0.4,59.98155123116491,
threatened,honstables,&&&&&&&&&&,right,fairness.vice,,,,,,,0,177,177,177,,,,,,,,,,,,,,,,,,,,,AMP,right,0.25027862869319506,,,right,1,0.25027862869319506,1,,,,,,,,,,,,,,,,,,,,,,1061,2019_Mar_13_1458,mf_amp_cond1,3.0.4,59.98155123116491,
actively,synchronazers,&&&&&&&&&&&&&,left,authority.virtue,,,,,,,0,178,178,178,,,,,,,,,,,,,,,,,,,,,AMP,left,0.3836560508061666,,,left,1,0.3836560508061666,1,,,,,,,,,,,,,,,,,,,,,,1061,2019_Mar_13_1458,mf_amp_cond1,3.0.4,59.98155123116491,
ammessment,gandbrake,&&&&&&&&&,None,nonword,,,,,,,0,179,179,179,,,,,,,,,,,,,,,,,,,,,AMP,left,0.4670037899923045,,,left,0,0.4670037899923045,0,,,,,,,,,,,,,,,,,,,,,,1061,2019_Mar_13_1458,mf_amp_cond1,3.0.4,59.98155123116491,
faith,seachwear,&&&&&&&&&,left,sanctity.virtue,,,,,,,0,180,180,180,,,,,,,,,,,,,,,,,,,,,AMP,left,0.4836753263080027,,,left,1,0.4836753263080027,1,,,,,,,,,,,,,,,,,,,,,,1061,2019_Mar_13_1458,mf_amp_cond1,3.0.4,59.98155123116491,
hescribe,divility,&&&&&&&&,None,nonword,,,,,,,0,181,181,181,,,,,,,,,,,,,,,,,,,,,AMP,left,0.23361126176314428,,,left,0,0.23361126176314428,0,,,,,,,,,,,,,,,,,,,,,,1061,2019_Mar_13_1458,mf_amp_cond1,3.0.4,59.98155123116491,
love,viscs,&&&&&,left,loyalty.virtue,,,,,,,0,182,182,182,,,,,,,,,,,,,,,,,,,,,AMP,left,1.133860431960784,,,left,1,1.133860431960784,1,,,,,,,,,,,,,,,,,,,,,,1061,2019_Mar_13_1458,mf_amp_cond1,3.0.4,59.98155123116491,
brudent,Cunday,&&&&&&,None,nonword,,,,,,,0,183,183,183,,,,,,,,,,,,,,,,,,,,,AMP,left,0.4503258391923737,,,left,0,0.4503258391923737,0,,,,,,,,,,,,,,,,,,,,,,1061,2019_Mar_13_1458,mf_amp_cond1,3.0.4,59.98155123116491,
serial,neutralust,&&&&&&&&&&,right,sanctity.vice,,,,,,,0,184,184,184,,,,,,,,,,,,,,,,,,,,,AMP,left,0.26693669459200464,,,left,0,0.26693669459200464,0,,,,,,,,,,,,,,,,,,,,,,1061,2019_Mar_13_1458,mf_amp_cond1,3.0.4,59.98155123116491,
help,grovelire,&&&&&&&&&,left,care.virtue,,,,,,,0,185,185,185,,,,,,,,,,,,,,,,,,,,,AMP,left,0.6003703075402882,,,left,1,0.6003703075402882,1,,,,,,,,,,,,,,,,,,,,,,1061,2019_Mar_13_1458,mf_amp_cond1,3.0.4,59.98155123116491,
attacks,supervuned,&&&&&&&&&&,right,care.vice,,,,,,,0,186,186,186,,,,,,,,,,,,,,,,,,,,,AMP,left,0.3836576544563286,,,left,0,0.3836576544563286,0,,,,,,,,,,,,,,,,,,,,,,1061,2019_Mar_13_1458,mf_amp_cond1,3.0.4,59.98155123116491,
violations,ronviolence,&&&&&&&&&&&,right,sanctity.vice,,,,,,,0,187,187,187,,,,,,,,,,,,,,,,,,,,,AMP,left,0.8504269954573829,,,left,0,0.8504269954573829,0,,,,,,,,,,,,,,,,,,,,,,1061,2019_Mar_13_1458,mf_amp_cond1,3.0.4,59.98155123116491,
trust,atson,&&&&&,left,authority.virtue,,,,,,,0,188,188,188,,,,,,,,,,,,,,,,,,,,,AMP,right,0.30027527711354196,,,right,0,0.30027527711354196,0,,,,,,,,,,,,,,,,,,,,,,1061,2019_Mar_13_1458,mf_amp_cond1,3.0.4,59.98155123116491,
chonograph,saned,&&&&&,None,nonword,,,,,,,0,189,189,189,,,,,,,,,,,,,,,,,,,,,AMP,right,0.26695337225100957,,,right,0,0.26695337225100957,0,,,,,,,,,,,,,,,,,,,,,,1061,2019_Mar_13_1458,mf_amp_cond1,3.0.4,59.98155123116491,
fear,gationwide,&&&&&&&&&&,right,sanctity.vice,,,,,,,0,190,190,190,,,,,,,,,,,,,,,,,,,,,AMP,right,0.767099461867474,,,right,1,0.767099461867474,1,,,,,,,,,,,,,,,,,,,,,,1061,2019_Mar_13_1458,mf_amp_cond1,3.0.4,59.98155123116491,
black,nomparisons,&&&&&&&&&&&,right,loyalty.vice,,,,,,,0,191,191,191,,,,,,,,,,,,,,,,,,,,,AMP,left,0.4003170032519847,,,left,0,0.4003170032519847,0,,,,,,,,,,,,,,,,,,,,,,1061,2019_Mar_13_1458,mf_amp_cond1,3.0.4,59.98155123116491,
growth,lempestuous,&&&&&&&&&&&,left,care.virtue,,,,,,,0,192,192,192,,,,,,,,,,,,,,,,,,,,,AMP,left,0.48368174079223536,,,left,1,0.48368174079223536,1,,,,,,,,,,,,,,,,,,,,,,1061,2019_Mar_13_1458,mf_amp_cond1,3.0.4,59.98155123116491,
victim,metibolic,&&&&&&&&&,right,care.vice,,,,,,,0,193,193,193,,,,,,,,,,,,,,,,,,,,,AMP,left,0.28358064868371,,,left,0,0.28358064868371,0,,,,,,,,,,,,,,,,,,,,,,1061,2019_Mar_13_1458,mf_amp_cond1,3.0.4,59.98155123116491,
respect,spag,&&&&,left,sanctity.virtue,,,,,,,0,194,194,194,,,,,,,,,,,,,,,,,,,,,AMP,left,0.7337406737497076,,,left,1,0.7337406737497076,1,,,,,,,,,,,,,,,,,,,,,,1061,2019_Mar_13_1458,mf_amp_cond1,3.0.4,59.98155123116491,
hate,gikely,&&&&&&,right,fairness.vice,,,,,,,0,195,195,195,,,,,,,,,,,,,,,,,,,,,AMP,left,0.45033032933133654,,,left,0,0.45033032933133654,0,,,,,,,,,,,,,,,,,,,,,,1061,2019_Mar_13_1458,mf_amp_cond1,3.0.4,59.98155123116491,
credit,thadowed,&&&&&&&&,left,fairness.virtue,,,,,,,0,196,196,196,,,,,,,,,,,,,,,,,,,,,AMP,left,0.30029868995188735,,,left,1,0.30029868995188735,1,,,,,,,,,,,,,,,,,,,,,,1061,2019_Mar_13_1458,mf_amp_cond1,3.0.4,59.98155123116491,
police,laming,&&&&&&,right,authority.vice,,,,,,,0,197,197,197,,,,,,,,,,,,,,,,,,,,,AMP,right,0.25028472242411226,,,right,1,0.25028472242411226,1,,,,,,,,,,,,,,,,,,,,,,1061,2019_Mar_13_1458,mf_amp_cond1,3.0.4,59.98155123116491,
values,imebreaker,&&&&&&&&&&,left,sanctity.virtue,,,,,,,0,198,198,198,,,,,,,,,,,,,,,,,,,,,AMP,left,0.21694261193624698,,,left,1,0.21694261193624698,1,,,,,,,,,,,,,,,,,,,,,,1061,2019_Mar_13_1458,mf_amp_cond1,3.0.4,59.98155123116491,
encourage,Loorish,&&&&&&&,left,authority.virtue,,,,,,,0,199,199,199,,,,,,,,,,,,,,,,,,,,,AMP,left,0.26709064198075794,,,left,1,0.26709064198075794,1,,,,,,,,,,,,,,,,,,,,,,1061,2019_Mar_13_1458,mf_amp_cond1,3.0.4,59.98155123116491,
hand,hefurbished,&&&&&&&&&&&,left,sanctity.virtue,,,,,,,0,200,200,200,,,,,,,,,,,,,,,,,,,,,AMP,left,0.4670076386828441,,,left,1,0.4670076386828441,1,,,,,,,,,,,,,,,,,,,,,,1061,2019_Mar_13_1458,mf_amp_cond1,3.0.4,59.98155123116491,
strong,fontacts,&&&&&&&&,left,loyalty.virtue,,,,,,,0,201,201,201,,,,,,,,,,,,,,,,,,,,,AMP,left,0.6837257440784015,,,left,1,0.6837257440784015,1,,,,,,,,,,,,,,,,,,,,,,1061,2019_Mar_13_1458,mf_amp_cond1,3.0.4,59.98155123116491,
fair,tislay,&&&&&&,left,fairness.virtue,,,,,,,0,202,202,202,,,,,,,,,,,,,,,,,,,,,AMP,left,0.6670638294599485,,,left,1,0.6670638294599485,1,,,,,,,,,,,,,,,,,,,,,,1061,2019_Mar_13_1458,mf_amp_cond1,3.0.4,59.98155123116491,
war,erdest,&&&&&&,right,sanctity.vice,,,,,,,0,203,203,203,,,,,,,,,,,,,,,,,,,,,AMP,left,0.31697535785497166,,,left,0,0.31697535785497166,0,,,,,,,,,,,,,,,,,,,,,,1061,2019_Mar_13_1458,mf_amp_cond1,3.0.4,59.98155123116491,
hope,brotesque,&&&&&&&&&,left,loyalty.virtue,,,,,,,0,204,204,204,,,,,,,,,,,,,,,,,,,,,AMP,left,0.4670162982365582,,,left,1,0.4670162982365582,1,,,,,,,,,,,,,,,,,,,,,,1061,2019_Mar_13_1458,mf_amp_cond1,3.0.4,59.98155123116491,
allears,iptervention,&&&&&&&&&&&&,None,nonword,,,,,,,0,205,205,205,,,,,,,,,,,,,,,,,,,,,AMP,left,0.7337425980949774,,,left,0,0.7337425980949774,0,,,,,,,,,,,,,,,,,,,,,,1061,2019_Mar_13_1458,mf_amp_cond1,3.0.4,59.98155123116491,
sharing,chreams,&&&&&&&,left,loyalty.virtue,,,,,,,0,206,206,206,,,,,,,,,,,,,,,,,,,,,AMP,left,0.38364674983313307,,,left,1,0.38364674983313307,1,,,,,,,,,,,,,,,,,,,,,,1061,2019_Mar_13_1458,mf_amp_cond1,3.0.4,59.98155123116491,
friends,sliptery,&&&&&&&&,left,loyalty.virtue,,,,,,,0,207,207,207,,,,,,,,,,,,,,,,,,,,,AMP,left,0.45033129150397144,,,left,1,0.45033129150397144,1,,,,,,,,,,,,,,,,,,,,,,1061,2019_Mar_13_1458,mf_amp_cond1,3.0.4,59.98155123116491,
torture,asn,&&&,right,care.vice,,,,,,,0,208,208,208,,,,,,,,,,,,,,,,,,,,,AMP,left,0.11691595983575098,,,left,0,0.11691595983575098,0,,,,,,,,,,,,,,,,,,,,,,1061,2019_Mar_13_1458,mf_amp_cond1,3.0.4,59.98155123116491,
rebels,vurtain,&&&&&&&,right,authority.vice,,,,,,,0,209,209,209,,,,,,,,,,,,,,,,,,,,,AMP,left,0.0002520887937862426,,,left,0,0.0002520887937862426,0,,,,,,,,,,,,,,,,,,,,,,1061,2019_Mar_13_1458,mf_amp_cond1,3.0.4,59.98155123116491,
lies,crilfully,&&&&&&&&&,right,fairness.vice,,,,,,,0,210,210,210,,,,,,,,,,,,,,,,,,,,,AMP,left,0.36698066582903266,,,left,0,0.36698066582903266,0,,,,,,,,,,,,,,,,,,,,,,1061,2019_Mar_13_1458,mf_amp_cond1,3.0.4,59.98155123116491,
progress,gedious,&&&&&&&,left,authority.virtue,,,,,,,0,211,211,211,,,,,,,,,,,,,,,,,,,,,AMP,left,0.383652202115627,,,left,1,0.383652202115627,1,,,,,,,,,,,,,,,,,,,,,,1061,2019_Mar_13_1458,mf_amp_cond1,3.0.4,59.98155123116491,
died,nomaric,&&&&&&&,right,care.vice,,,,,,,0,212,212,212,,,,,,,,,,,,,,,,,,,,,AMP,right,0.4336652074707672,,,right,1,0.4336652074707672,1,,,,,,,,,,,,,,,,,,,,,,1061,2019_Mar_13_1458,mf_amp_cond1,3.0.4,59.98155123116491,
restore,bycled,&&&&&&,left,care.virtue,,,,,,,0,213,213,213,,,,,,,,,,,,,,,,,,,,,AMP,right,0.2169426119653508,,,right,0,0.2169426119653508,0,,,,,,,,,,,,,,,,,,,,,,1061,2019_Mar_13_1458,mf_amp_cond1,3.0.4,59.98155123116491,
killed,precificity,&&&&&&&&&&&,right,care.vice,,,,,,,0,214,214,214,,,,,,,,,,,,,,,,,,,,,AMP,right,0.45033129150397144,,,right,1,0.45033129150397144,1,,,,,,,,,,,,,,,,,,,,,,1061,2019_Mar_13_1458,mf_amp_cond1,3.0.4,59.98155123116491,
men,edancipation,&&&&&&&&&&&&,right,loyalty.vice,,,,,,,0,215,215,215,,,,,,,,,,,,,,,,,,,,,AMP,right,0.03356437195907347,,,right,1,0.03356437195907347,1,,,,,,,,,,,,,,,,,,,,,,1061,2019_Mar_13_1458,mf_amp_cond1,3.0.4,59.98155123116491,
increase,perified,&&&&&&&&,left,care.virtue,,,,,,,0,216,216,216,,,,,,,,,,,,,,,,,,,,,AMP,right,0.11690697955782525,,,right,0,0.11690697955782525,0,,,,,,,,,,,,,,,,,,,,,,1061,2019_Mar_13_1458,mf_amp_cond1,3.0.4,59.98155123116491,
improve,feleological,&&&&&&&&&&&&,left,care.virtue,,,,,,,0,217,217,217,,,,,,,,,,,,,,,,,,,,,AMP,left,0.6503906895231921,,,left,1,0.6503906895231921,1,,,,,,,,,,,,,,,,,,,,,,1061,2019_Mar_13_1458,mf_amp_cond1,3.0.4,59.98155123116491,
pleasant,nackers,&&&&&&&,None,control,,,,,,,0,218,218,218,,,,,,,,,,,,,,,,,,,,,AMP,left,0.30030863237334415,,,left,0,0.30030863237334415,0,,,,,,,,,,,,,,,,,,,,,,1061,2019_Mar_13_1458,mf_amp_cond1,3.0.4,59.98155123116491,
promises,sgrawl,&&&&&&,left,fairness.virtue,,,,,,,0,219,219,219,,,,,,,,,,,,,,,,,,,,,AMP,left,0.2669649182644207,,,left,1,0.2669649182644207,1,,,,,,,,,,,,,,,,,,,,,,1061,2019_Mar_13_1458,mf_amp_cond1,3.0.4,59.98155123116491,
arrests,carvels,&&&&&&&,right,authority.vice,,,,,,,0,220,220,220,,,,,,,,,,,,,,,,,,,,,AMP,left,0.38365027779946104,,,left,0,0.38365027779946104,0,,,,,,,,,,,,,,,,,,,,,,1061,2019_Mar_13_1458,mf_amp_cond1,3.0.4,59.98155123116491,
praised,dramens,&&&&&&&,left,loyalty.virtue,,,,,,,0,221,221,221,,,,,,,,,,,,,,,,,,,,,AMP,left,0.3836294307548087,,,left,1,0.3836294307548087,1,,,,,,,,,,,,,,,,,,,,,,1061,2019_Mar_13_1458,mf_amp_cond1,3.0.4,59.98155123116491,
alar,thabbily,&&&&&&&&,None,nonword,,,,,,,0,222,222,222,,,,,,,,,,,,,,,,,,,,,AMP,left,0.5003622573567554,,,left,0,0.5003622573567554,0,,,,,,,,,,,,,,,,,,,,,,1061,2019_Mar_13_1458,mf_amp_cond1,3.0.4,59.98155123116491,
promote,uller,&&&&&,left,sanctity.virtue,,,,,,,0,223,223,223,,,,,,,,,,,,,,,,,,,,,AMP,left,0.2502940233971458,,,left,1,0.2502940233971458,1,,,,,,,,,,,,,,,,,,,,,,1061,2019_Mar_13_1458,mf_amp_cond1,3.0.4,59.98155123116491,
ability,blunderints,&&&&&&&&&&&,left,authority.virtue,,,,,,,0,224,224,224,,,,,,,,,,,,,,,,,,,,,AMP,left,0.18360370871960185,,,left,1,0.18360370871960185,1,,,,,,,,,,,,,,,,,,,,,,1061,2019_Mar_13_1458,mf_amp_cond1,3.0.4,59.98155123116491,
ensure,festate,&&&&&&&,left,fairness.virtue,,,,,,,0,225,225,225,,,,,,,,,,,,,,,,,,,,,AMP,left,0.3169650946801994,,,left,1,0.3169650946801994,1,,,,,,,,,,,,,,,,,,,,,,1061,2019_Mar_13_1458,mf_amp_cond1,3.0.4,59.98155123116491,
army,rivernoat,&&&&&&&&&,right,loyalty.vice,,,,,,,0,226,226,226,,,,,,,,,,,,,,,,,,,,,AMP,left,0.3002999728487339,,,left,0,0.3002999728487339,0,,,,,,,,,,,,,,,,,,,,,,1061,2019_Mar_13_1458,mf_amp_cond1,3.0.4,59.98155123116491,
fraud,focomotive,&&&&&&&&&&,right,fairness.vice,,,,,,,0,227,227,227,,,,,,,,,,,,,,,,,,,,,AMP,left,0.31696669830125757,,,left,0,0.31696669830125757,0,,,,,,,,,,,,,,,,,,,,,,1061,2019_Mar_13_1458,mf_amp_cond1,3.0.4,59.98155123116491,
charges,stindig,&&&&&&&,right,fairness.vice,,,,,,,0,228,228,228,,,,,,,,,,,,,,,,,,,,,AMP,left,0.8504369378497358,,,left,0,0.8504369378497358,0,,,,,,,,,,,,,,,,,,,,,,1061,2019_Mar_13_1458,mf_amp_cond1,3.0.4,59.98155123116491,
celebrated,forepo,&&&&&&,left,authority.virtue,,,,,,,0,229,229,229,,,,,,,,,,,,,,,,,,,,,AMP,right,0.3669870802841615,,,right,0,0.3669870802841615,0,,,,,,,,,,,,,,,,,,,,,,1061,2019_Mar_13_1458,mf_amp_cond1,3.0.4,59.98155123116491,
freedom,discovars,&&&&&&&&&,left,sanctity.virtue,,,,,,,0,230,230,230,,,,,,,,,,,,,,,,,,,,,AMP,right,0.35030912948423065,,,right,0,0.35030912948423065,0,,,,,,,,,,,,,,,,,,,,,,1061,2019_Mar_13_1458,mf_amp_cond1,3.0.4,59.98155123116491,
energy,leact,&&&&&,left,sanctity.virtue,,,,,,,0,231,231,231,,,,,,,,,,,,,,,,,,,,,AMP,right,0.20028903614729643,,,right,0,0.20028903614729643,0,,,,,,,,,,,,,,,,,,,,,,1061,2019_Mar_13_1458,mf_amp_cond1,3.0.4,59.98155123116491,
free,wump,&&&&,left,fairness.virtue,,,,,,,0,232,232,232,,,,,,,,,,,,,,,,,,,,,AMP,right,0.25028279807884246,,,right,0,0.25028279807884246,0,,,,,,,,,,,,,,,,,,,,,,1061,2019_Mar_13_1458,mf_amp_cond1,3.0.4,59.98155123116491,
troops,papert,&&&&&&,right,loyalty.vice,,,,,,,0,233,233,233,,,,,,,,,,,,,,,,,,,,,AMP,left,0.18359761498868465,,,left,0,0.18359761498868465,0,,,,,,,,,,,,,,,,,,,,,,1061,2019_Mar_13_1458,mf_amp_cond1,3.0.4,59.98155123116491,
elduringly,oam,&&&,None,nonword,,,,,,,0,234,234,234,,,,,,,,,,,,,,,,,,,,,AMP,left,0.3002759185619652,,,left,0,0.3002759185619652,0,,,,,,,,,,,,,,,,,,,,,,1061,2019_Mar_13_1458,mf_amp_cond1,3.0.4,59.98155123116491,
rejected,Oregoniuns,&&&&&&&&&&,right,authority.vice,,,,,,,0,235,235,235,,,,,,,,,,,,,,,,,,,,,AMP,left,0.26682732783956453,,,left,0,0.26682732783956453,0,,,,,,,,,,,,,,,,,,,,,,1061,2019_Mar_13_1458,mf_amp_cond1,3.0.4,59.98155123116491,
compassion,erks,&&&&,left,care.virtue,,,,,,,0,236,236,236,,,,,,,,,,,,,,,,,,,,,AMP,left,0.2169467813509982,,,left,1,0.2169467813509982,1,,,,,,,,,,,,,,,,,,,,,,1061,2019_Mar_13_1458,mf_amp_cond1,3.0.4,59.98155123116491,
groups,bruthfulness,&&&&&&&&&&&&,right,loyalty.vice,,,,,,,0,237,237,237,,,,,,,,,,,,,,,,,,,,,AMP,left,0.26695946598192677,,,left,0,0.26695946598192677,0,,,,,,,,,,,,,,,,,,,,,,1061,2019_Mar_13_1458,mf_amp_cond1,3.0.4,59.98155123116491,
corruption,galamitous,&&&&&&&&&&,right,sanctity.vice,,,,,,,0,238,238,238,,,,,,,,,,,,,,,,,,,,,AMP,left,0.01689668433391489,,,left,0,0.01689668433391489,0,,,,,,,,,,,,,,,,,,,,,,1061,2019_Mar_13_1458,mf_amp_cond1,3.0.4,59.98155123116491,
tabin,chadows,&&&&&&&,None,nonword,,,,,,,0,239,239,239,,,,,,,,,,,,,,,,,,,,,AMP,left,0.5503585850819945,,,left,0,0.5503585850819945,0,,,,,,,,,,,,,,,,,,,,,,1061,2019_Mar_13_1458,mf_amp_cond1,3.0.4,59.98155123116491,
prosecution,Lacedonia,&&&&&&&&&,right,authority.vice,,,,,,,0,240,240,240,,,,,,,,,,,,,,,,,,,,,AMP,left,0.03357174861594103,,,left,0,0.03357174861594103,0,,,,,,,,,,,,,,,,,,,,,,1061,2019_Mar_13_1458,mf_amp_cond1,3.0.4,59.98155123116491,
slavery,letish,&&&&&&,right,loyalty.vice,,,,,,,0,241,241,241,,,,,,,,,,,,,,,,,,,,,AMP,left,0.4003189275972545,,,left,0,0.4003189275972545,0,,,,,,,,,,,,,,,,,,,,,,1061,2019_Mar_13_1458,mf_amp_cond1,3.0.4,59.98155123116491,
failure,strofe,&&&&&&,right,loyalty.vice,,,,,,,0,242,242,242,,,,,,,,,,,,,,,,,,,,,AMP,left,0.08357224572682753,,,left,0,0.08357224572682753,0,,,,,,,,,,,,,,,,,,,,,,1061,2019_Mar_13_1458,mf_amp_cond1,3.0.4,59.98155123116491,
gun,rorroborated,&&&&&&&&&&&&,right,authority.vice,,,,,,,0,243,243,243,,,,,,,,,,,,,,,,,,,,,AMP,left,0.25029723066836596,,,left,0,0.25029723066836596,0,,,,,,,,,,,,,,,,,,,,,,1061,2019_Mar_13_1458,mf_amp_cond1,3.0.4,59.98155123116491,
win,totalestic,&&&&&&&&&&,left,fairness.virtue,,,,,,,0,244,244,244,,,,,,,,,,,,,,,,,,,,,AMP,left,0.18360146365012042,,,left,1,0.18360146365012042,1,,,,,,,,,,,,,,,,,,,,,,1061,2019_Mar_13_1458,mf_amp_cond1,3.0.4,59.98155123116491,
prison,quarterbocks,&&&&&&&&&&&&,right,fairness.vice,,,,,,,0,245,245,245,,,,,,,,,,,,,,,,,,,,,AMP,left,0.13358974119182676,,,left,0,0.13358974119182676,0,,,,,,,,,,,,,,,,,,,,,,1061,2019_Mar_13_1458,mf_amp_cond1,3.0.4,59.98155123116491,
allears,asn,&&&,None,nonword,,,,,,,0,246,246,246,,,,,,,,,,,,,,,,,,,,,AMP,left,0.13358621325460263,,,left,0,0.13358621325460263,0,,,,,,,,,,,,,,,,,,,,,,1061,2019_Mar_13_1458,mf_amp_cond1,3.0.4,59.98155123116491,
embrace,bycled,&&&&&&,left,authority.virtue,,,,,,,0,247,247,247,,,,,,,,,,,,,,,,,,,,,AMP,left,0.11692044994561002,,,left,1,0.11692044994561002,1,,,,,,,,,,,,,,,,,,,,,,1061,2019_Mar_13_1458,mf_amp_cond1,3.0.4,59.98155123116491,
serial,hefurbished,&&&&&&&&&&&,right,sanctity.vice,,,,,,,0,248,248,248,,,,,,,,,,,,,,,,,,,,,AMP,left,0.08357160427840427,,,left,0,0.08357160427840427,0,,,,,,,,,,,,,,,,,,,,,,1061,2019_Mar_13_1458,mf_amp_cond1,3.0.4,59.98155123116491,
refused,imebreaker,&&&&&&&&&&,right,authority.vice,,,,,,,0,249,249,249,,,,,,,,,,,,,,,,,,,,,AMP,left,0.8004162351426203,,,left,0,0.8004162351426203,0,,,,,,,,,,,,,,,,,,,,,,1061,2019_Mar_13_1458,mf_amp_cond1,3.0.4,59.98155123116491,
freedom,honstables,&&&&&&&&&&,left,sanctity.virtue,,,,,,,0,250,250,250,,,,,,,,,,,,,,,,,,,,,AMP,left,1.6006531858001836,,,left,1,1.6006531858001836,1,,,,,,,,,,,,,,,,,,,,,,1061,2019_Mar_13_1458,mf_amp_cond1,3.0.4,59.98155123116491,
rebels,Loorish,&&&&&&&,right,authority.vice,,,,,,,0,251,251,251,,,,,,,,,,,,,,,,,,,,,AMP,left,0.1669373039912898,,,left,0,0.1669373039912898,0,,,,,,,,,,,,,,,,,,,,,,1061,2019_Mar_13_1458,mf_amp_cond1,3.0.4,59.98155123116491,
protect,festate,&&&&&&&,left,fairness.virtue,,,,,,,0,252,252,252,,,,,,,,,,,,,,,,,,,,,AMP,left,0.20029192266520113,,,left,1,0.20029192266520113,1,,,,,,,,,,,,,,,,,,,,,,1061,2019_Mar_13_1458,mf_amp_cond1,3.0.4,59.98155123116491,
killed,metibolic,&&&&&&&&&,right,care.vice,,,,,,,0,253,253,253,,,,,,,,,,,,,,,,,,,,,AMP,left,0.4670034692680929,,,left,0,0.4670034692680929,0,,,,,,,,,,,,,,,,,,,,,,1061,2019_Mar_13_1458,mf_amp_cond1,3.0.4,59.98155123116491,
progress,presentkess,&&&&&&&&&&&,left,authority.virtue,,,,,,,0,254,254,254,,,,,,,,,,,,,,,,,,,,,AMP,left,0.23361350683262572,,,left,1,0.23361350683262572,1,,,,,,,,,,,,,,,,,,,,,,1061,2019_Mar_13_1458,mf_amp_cond1,3.0.4,59.98155123116491,
credit,rivernoat,&&&&&&&&&,left,fairness.virtue,,,,,,,0,255,255,255,,,,,,,,,,,,,,,,,,,,,AMP,right,0.1502590324380435,,,right,0,0.1502590324380435,0,,,,,,,,,,,,,,,,,,,,,,1061,2019_Mar_13_1458,mf_amp_cond1,3.0.4,59.98155123116491,
abuse,vurtain,&&&&&&&,right,sanctity.vice,,,,,,,0,256,256,256,,,,,,,,,,,,,,,,,,,,,AMP,left,0.06675445940345526,,,left,0,0.06675445940345526,0,,,,,,,,,,,,,,,,,,,,,,1061,2019_Mar_13_1458,mf_amp_cond1,3.0.4,59.98155123116491,
pleasant,fontacts,&&&&&&&&,None,control,,,,,,,0,257,257,257,,,,,,,,,,,,,,,,,,,,,AMP,left,0.06687633440014906,,,left,0,0.06687633440014906,0,,,,,,,,,,,,,,,,,,,,,,1061,2019_Mar_13_1458,mf_amp_cond1,3.0.4,59.98155123116491,
crime,galamitous,&&&&&&&&&&,right,fairness.vice,,,,,,,0,258,258,258,,,,,,,,,,,,,,,,,,,,,AMP,right,0.5836859422561247,,,right,1,0.5836859422561247,1,,,,,,,,,,,,,,,,,,,,,,1061,2019_Mar_13_1458,mf_amp_cond1,3.0.4,59.98155123116491,
strong,wump,&&&&,left,loyalty.virtue,,,,,,,0,259,259,259,,,,,,,,,,,,,,,,,,,,,AMP,left,0.4670162982074544,,,left,1,0.4670162982074544,1,,,,,,,,,,,,,,,,,,,,,,1061,2019_Mar_13_1458,mf_amp_cond1,3.0.4,59.98155123116491,
hope,halaise,&&&&&&&,left,loyalty.virtue,,,,,,,0,260,260,260,,,,,,,,,,,,,,,,,,,,,AMP,left,0.4336482091457583,,,left,1,0.4336482091457583,1,,,,,,,,,,,,,,,,,,,,,,1061,2019_Mar_13_1458,mf_amp_cond1,3.0.4,59.98155123116491,
encourage,disregord,&&&&&&&&&,left,authority.virtue,,,,,,,0,261,261,261,,,,,,,,,,,,,,,,,,,,,AMP,right,0.033573031483683735,,,right,0,0.033573031483683735,0,,,,,,,,,,,,,,,,,,,,,,1061,2019_Mar_13_1458,mf_amp_cond1,3.0.4,59.98155123116491,
tabin,nackers,&&&&&&&,None,nonword,,,,,,,0,262,262,262,,,,,,,,,,,,,,,,,,,,,AMP,right,0.08359084770199843,,,right,0,0.08359084770199843,0,,,,,,,,,,,,,,,,,,,,,,1061,2019_Mar_13_1458,mf_amp_cond1,3.0.4,59.98155123116491,
chonograph,erks,&&&&,None,nonword,,,,,,,0,263,263,263,,,,,,,,,,,,,,,,,,,,,AMP,left,0.20026626478647813,,,left,0,0.20026626478647813,0,,,,,,,,,,,,,,,,,,,,,,1061,2019_Mar_13_1458,mf_amp_cond1,3.0.4,59.98155123116491,
threatened,letish,&&&&&&,right,fairness.vice,,,,,,,0,264,264,264,,,,,,,,,,,,,,,,,,,,,AMP,left,0.05023302175686695,,,left,0,0.05023302175686695,0,,,,,,,,,,,,,,,,,,,,,,1061,2019_Mar_13_1458,mf_amp_cond1,3.0.4,59.98155123116491,
respect,ronviolence,&&&&&&&&&&&,left,sanctity.virtue,,,,,,,0,265,265,265,,,,,,,,,,,,,,,,,,,,,AMP,left,0.06691610414418392,,,left,1,0.06691610414418392,1,,,,,,,,,,,,,,,,,,,,,,1061,2019_Mar_13_1458,mf_amp_cond1,3.0.4,59.98155123116491,
energy,viscs,&&&&&,left,sanctity.virtue,,,,,,,0,266,266,266,,,,,,,,,,,,,,,,,,,,,AMP,left,0.10028034454444423,,,left,1,0.10028034454444423,1,,,,,,,,,,,,,,,,,,,,,,1061,2019_Mar_13_1458,mf_amp_cond1,3.0.4,59.98155123116491,
shot,gedious,&&&&&&&,right,care.vice,,,,,,,0,267,267,267,,,,,,,,,,,,,,,,,,,,,AMP,left,0.15025518377660774,,,left,0,0.15025518377660774,0,,,,,,,,,,,,,,,,,,,,,,1061,2019_Mar_13_1458,mf_amp_cond1,3.0.4,59.98155123116491,
attacks,totalestic,&&&&&&&&&&,right,care.vice,,,,,,,0,268,268,268,,,,,,,,,,,,,,,,,,,,,AMP,right,0.1335890997434035,,,right,1,0.1335890997434035,1,,,,,,,,,,,,,,,,,,,,,,1061,2019_Mar_13_1458,mf_amp_cond1,3.0.4,59.98155123116491,
increase,stindig,&&&&&&&,left,care.virtue,,,,,,,0,269,269,269,,,,,,,,,,,,,,,,,,,,,AMP,left,0.4503399510285817,,,left,1,0.4503399510285817,1,,,,,,,,,,,,,,,,,,,,,,1061,2019_Mar_13_1458,mf_amp_cond1,3.0.4,59.98155123116491,
love,bruthfulness,&&&&&&&&&&&&,left,loyalty.virtue,,,,,,,0,270,270,270,,,,,,,,,,,,,,,,,,,,,AMP,left,0.01676518763997592,,,left,1,0.01676518763997592,1,,,,,,,,,,,,,,,,,,,,,,1061,2019_Mar_13_1458,mf_amp_cond1,3.0.4,59.98155123116491,
torture,erdest,&&&&&&,right,care.vice,,,,,,,0,271,271,271,,,,,,,,,,,,,,,,,,,,,AMP,right,0.016916889901040122,,,right,1,0.016916889901040122,1,,,,,,,,,,,,,,,,,,,,,,1061,2019_Mar_13_1458,mf_amp_cond1,3.0.4,59.98155123116491,
elduringly,focomotive,&&&&&&&&&&,None,nonword,,,,,,,0,272,272,272,,,,,,,,,,,,,,,,,,,,,AMP,left,0.21694453628151678,,,left,0,0.21694453628151678,0,,,,,,,,,,,,,,,,,,,,,,1061,2019_Mar_13_1458,mf_amp_cond1,3.0.4,59.98155123116491,
sfumatoy,nomparisons,&&&&&&&&&&&,None,nonword,,,,,,,0,273,273,273,,,,,,,,,,,,,,,,,,,,,AMP,right,0.13359423133078963,,,right,0,0.13359423133078963,0,,,,,,,,,,,,,,,,,,,,,,1061,2019_Mar_13_1458,mf_amp_cond1,3.0.4,59.98155123116491,
faith,mecan,&&&&&,left,sanctity.virtue,,,,,,,0,274,274,274,,,,,,,,,,,,,,,,,,,,,AMP,left,0.2502863260451704,,,left,1,0.2502863260451704,1,,,,,,,,,,,,,,,,,,,,,,1061,2019_Mar_13_1458,mf_amp_cond1,3.0.4,59.98155123116491,
alar,chadows,&&&&&&&,None,nonword,,,,,,,0,275,275,275,,,,,,,,,,,,,,,,,,,,,AMP,left,0.200278773001628,,,left,0,0.200278773001628,0,,,,,,,,,,,,,,,,,,,,,,1061,2019_Mar_13_1458,mf_amp_cond1,3.0.4,59.98155123116491,
praised,crilfully,&&&&&&&&&,left,loyalty.virtue,,,,,,,0,276,276,276,,,,,,,,,,,,,,,,,,,,,AMP,left,0.01688866625772789,,,left,1,0.01688866625772789,1,,,,,,,,,,,,,,,,,,,,,,1061,2019_Mar_13_1458,mf_amp_cond1,3.0.4,59.98155123116491,
emassion,Lacedonia,&&&&&&&&&,None,nonword,,,,,,,0,277,277,277,,,,,,,,,,,,,,,,,,,,,AMP,left,0.7837440574076027,,,left,0,0.7837440574076027,0,,,,,,,,,,,,,,,,,,,,,,1061,2019_Mar_13_1458,mf_amp_cond1,3.0.4,59.98155123116491,
promote,leact,&&&&&,left,sanctity.virtue,,,,,,,0,278,278,278,,,,,,,,,,,,,,,,,,,,,AMP,left,2.2841473673761357,,,left,1,2.2841473673761357,1,,,,,,,,,,,,,,,,,,,,,,1061,2019_Mar_13_1458,mf_amp_cond1,3.0.4,59.98155123116491,
great,ebbitter,&&&&&&&&,left,loyalty.virtue,,,,,,,0,279,279,279,,,,,,,,,,,,,,,,,,,,,AMP,left,0.5503781492298003,,,left,1,0.5503781492298003,1,,,,,,,,,,,,,,,,,,,,,,1061,2019_Mar_13_1458,mf_amp_cond1,3.0.4,59.98155123116491,
free,grovelire,&&&&&&&&&,left,fairness.virtue,,,,,,,0,280,280,280,,,,,,,,,,,,,,,,,,,,,AMP,left,0.6670538870384917,,,left,1,0.6670538870384917,1,,,,,,,,,,,,,,,,,,,,,,1061,2019_Mar_13_1458,mf_amp_cond1,3.0.4,59.98155123116491,
corruption,pullness,&&&&&&&&,right,sanctity.vice,,,,,,,0,281,281,281,,,,,,,,,,,,,,,,,,,,,AMP,left,0.43364917128928937,,,left,0,0.43364917128928937,0,,,,,,,,,,,,,,,,,,,,,,1061,2019_Mar_13_1458,mf_amp_cond1,3.0.4,59.98155123116491,
fear,sliptery,&&&&&&&&,right,sanctity.vice,,,,,,,0,282,282,282,,,,,,,,,,,,,,,,,,,,,AMP,left,0.5837132037850097,,,left,0,0.5837132037850097,0,,,,,,,,,,,,,,,,,,,,,,1061,2019_Mar_13_1458,mf_amp_cond1,3.0.4,59.98155123116491,
sharing,divility,&&&&&&&&,left,loyalty.virtue,,,,,,,0,283,283,283,,,,,,,,,,,,,,,,,,,,,AMP,left,0.26696748405811377,,,left,1,0.26696748405811377,1,,,,,,,,,,,,,,,,,,,,,,1061,2019_Mar_13_1458,mf_amp_cond1,3.0.4,59.98155123116491,
good,thabbily,&&&&&&&&,left,care.virtue,,,,,,,0,284,284,284,,,,,,,,,,,,,,,,,,,,,AMP,left,1.2338976679893676,,,left,1,1.2338976679893676,1,,,,,,,,,,,,,,,,,,,,,,1061,2019_Mar_13_1458,mf_amp_cond1,3.0.4,59.98155123116491,
slavery,nomaric,&&&&&&&,right,loyalty.vice,,,,,,,0,285,285,285,,,,,,,,,,,,,,,,,,,,,AMP,left,0.35038193376385607,,,left,0,0.35038193376385607,0,,,,,,,,,,,,,,,,,,,,,,1061,2019_Mar_13_1458,mf_amp_cond1,3.0.4,59.98155123116491,
hescribe,bluently,&&&&&&&&,None,nonword,,,,,,,0,286,286,286,,,,,,,,,,,,,,,,,,,,,AMP,left,0.31697439565323293,,,left,0,0.31697439565323293,0,,,,,,,,,,,,,,,,,,,,,,1061,2019_Mar_13_1458,mf_amp_cond1,3.0.4,59.98155123116491,
trust,laming,&&&&&&,left,authority.virtue,,,,,,,0,287,287,287,,,,,,,,,,,,,,,,,,,,,AMP,left,0.3836342416179832,,,left,1,0.3836342416179832,1,,,,,,,,,,,,,,,,,,,,,,1061,2019_Mar_13_1458,mf_amp_cond1,3.0.4,59.98155123116491,
war,forepo,&&&&&&,right,sanctity.vice,,,,,,,0,288,288,288,,,,,,,,,,,,,,,,,,,,,AMP,left,4.117960556759499,,,left,0,4.117960556759499,0,,,,,,,,,,,,,,,,,,,,,,1061,2019_Mar_13_1458,mf_amp_cond1,3.0.4,59.98155123116491,
rejected,thadowed,&&&&&&&&,right,authority.vice,,,,,,,0,289,289,289,,,,,,,,,,,,,,,,,,,,,AMP,left,0.4670124495460186,,,left,0,0.4670124495460186,0,,,,,,,,,,,,,,,,,,,,,,1061,2019_Mar_13_1458,mf_amp_cond1,3.0.4,59.98155123116491,
values,saned,&&&&&,left,sanctity.virtue,,,,,,,0,290,290,290,,,,,,,,,,,,,,,,,,,,,AMP,left,0.4670076386537403,,,left,1,0.4670076386537403,1,,,,,,,,,,,,,,,,,,,,,,1061,2019_Mar_13_1458,mf_amp_cond1,3.0.4,59.98155123116491,
failure,neputized,&&&&&&&&&,right,loyalty.vice,,,,,,,0,291,291,291,,,,,,,,,,,,,,,,,,,,,AMP,right,0.41700361360562965,,,right,1,0.41700361360562965,1,,,,,,,,,,,,,,,,,,,,,,1061,2019_Mar_13_1458,mf_amp_cond1,3.0.4,59.98155123116491,
friends,dramens,&&&&&&&,left,loyalty.virtue,,,,,,,0,292,292,292,,,,,,,,,,,,,,,,,,,,,AMP,left,0.26698768965434283,,,left,1,0.26698768965434283,1,,,,,,,,,,,,,,,,,,,,,,1061,2019_Mar_13_1458,mf_amp_cond1,3.0.4,59.98155123116491,
black,brotesque,&&&&&&&&&,right,loyalty.vice,,,,,,,0,293,293,293,,,,,,,,,,,,,,,,,,,,,AMP,right,0.11691146966768429,,,right,1,0.11691146966768429,1,,,,,,,,,,,,,,,,,,,,,,1061,2019_Mar_13_1458,mf_amp_cond1,3.0.4,59.98155123116491,
groups,edancipation,&&&&&&&&&&&&,right,loyalty.vice,,,,,,,0,294,294,294,,,,,,,,,,,,,,,,,,,,,AMP,left,0.3503165061410982,,,left,0,0.3503165061410982,0,,,,,,,,,,,,,,,,,,,,,,1061,2019_Mar_13_1458,mf_amp_cond1,3.0.4,59.98155123116491,
gun,oam,&&&,right,authority.vice,,,,,,,0,295,295,295,,,,,,,,,,,,,,,,,,,,,AMP,right,0.2502831188030541,,,right,1,0.2502831188030541,1,,,,,,,,,,,,,,,,,,,,,,1061,2019_Mar_13_1458,mf_amp_cond1,3.0.4,59.98155123116491,
help,gandbrake,&&&&&&&&&,left,care.virtue,,,,,,,0,296,296,296,,,,,,,,,,,,,,,,,,,,,AMP,left,0.5670365358528215,,,left,1,0.5670365358528215,1,,,,,,,,,,,,,,,,,,,,,,1061,2019_Mar_13_1458,mf_amp_cond1,3.0.4,59.98155123116491,
men,precificity,&&&&&&&&&&&,right,loyalty.vice,,,,,,,0,297,297,297,,,,,,,,,,,,,,,,,,,,,AMP,right,0.41698918104521,,,right,1,0.41698918104521,1,,,,,,,,,,,,,,,,,,,,,,1061,2019_Mar_13_1458,mf_amp_cond1,3.0.4,59.98155123116491,
troops,greaks,&&&&&&,right,loyalty.vice,,,,,,,0,298,298,298,,,,,,,,,,,,,,,,,,,,,AMP,right,0.4503239148471039,,,right,1,0.4503239148471039,1,,,,,,,,,,,,,,,,,,,,,,1061,2019_Mar_13_1458,mf_amp_cond1,3.0.4,59.98155123116491,
fraud,iptervention,&&&&&&&&&&&&,right,fairness.vice,,,,,,,0,299,299,299,,,,,,,,,,,,,,,,,,,,,AMP,left,0.16692479577613994,,,left,0,0.16692479577613994,0,,,,,,,,,,,,,,,,,,,,,,1061,2019_Mar_13_1458,mf_amp_cond1,3.0.4,59.98155123116491,
celebrated,feleological,&&&&&&&&&&&&,left,authority.virtue,,,,,,,0,300,300,300,,,,,,,,,,,,,,,,,,,,,AMP,right,0.18361525476211682,,,right,0,0.18361525476211682,0,,,,,,,,,,,,,,,,,,,,,,1061,2019_Mar_13_1458,mf_amp_cond1,3.0.4,59.98155123116491,
growth,Cunday,&&&&&&,left,care.virtue,,,,,,,0,301,301,301,,,,,,,,,,,,,,,,,,,,,AMP,left,0.1335977592971176,,,left,1,0.1335977592971176,1,,,,,,,,,,,,,,,,,,,,,,1061,2019_Mar_13_1458,mf_amp_cond1,3.0.4,59.98155123116491,
ammessment,rorroborated,&&&&&&&&&&&&,None,nonword,,,,,,,0,302,302,302,,,,,,,,,,,,,,,,,,,,,AMP,left,2.184163692232687,,,left,0,2.184163692232687,0,,,,,,,,,,,,,,,,,,,,,,1061,2019_Mar_13_1458,mf_amp_cond1,3.0.4,59.98155123116491,
hand,gikely,&&&&&&,left,sanctity.virtue,,,,,,,0,303,303,303,,,,,,,,,,,,,,,,,,,,,AMP,right,0.23361446900526062,,,right,0,0.23361446900526062,0,,,,,,,,,,,,,,,,,,,,,,1061,2019_Mar_13_1458,mf_amp_cond1,3.0.4,59.98155123116491,
win,atson,&&&&&,left,fairness.virtue,,,,,,,0,304,304,304,,,,,,,,,,,,,,,,,,,,,AMP,left,0.2336382025387138,,,left,1,0.2336382025387138,1,,,,,,,,,,,,,,,,,,,,,,1061,2019_Mar_13_1458,mf_amp_cond1,3.0.4,59.98155123116491,
lies,tislay,&&&&&&,right,fairness.vice,,,,,,,0,305,305,305,,,,,,,,,,,,,,,,,,,,,AMP,left,0.5336925010778941,,,left,0,0.5336925010778941,0,,,,,,,,,,,,,,,,,,,,,,1061,2019_Mar_13_1458,mf_amp_cond1,3.0.4,59.98155123116491,
charges,gationwide,&&&&&&&&&&,right,fairness.vice,,,,,,,0,306,306,306,,,,,,,,,,,,,,,,,,,,,AMP,left,0.33364240400260314,,,left,0,0.33364240400260314,0,,,,,,,,,,,,,,,,,,,,,,1061,2019_Mar_13_1458,mf_amp_cond1,3.0.4,59.98155123116491,
prosecution,strofe,&&&&&&,right,authority.vice,,,,,,,0,307,307,307,,,,,,,,,,,,,,,,,,,,,AMP,left,0.5836830557673238,,,left,0,0.5836830557673238,0,,,,,,,,,,,,,,,,,,,,,,1061,2019_Mar_13_1458,mf_amp_cond1,3.0.4,59.98155123116491,
unpleasant,ugeasily,&&&&&&&&,None,control,,,,,,,0,308,308,308,,,,,,,,,,,,,,,,,,,,,AMP,left,0.45031076518353075,,,left,0,0.45031076518353075,0,,,,,,,,,,,,,,,,,,,,,,1061,2019_Mar_13_1458,mf_amp_cond1,3.0.4,59.98155123116491,
arrests,carvels,&&&&&&&,right,authority.vice,,,,,,,0,309,309,309,,,,,,,,,,,,,,,,,,,,,AMP,right,0.9171179515542462,,,right,1,0.9171179515542462,1,,,,,,,,,,,,,,,,,,,,,,1061,2019_Mar_13_1458,mf_amp_cond1,3.0.4,59.98155123116491,
fair,papert,&&&&&&,left,fairness.virtue,,,,,,,0,310,310,310,,,,,,,,,,,,,,,,,,,,,AMP,left,0.25028376025147736,,,left,1,0.25028376025147736,1,,,,,,,,,,,,,,,,,,,,,,1061,2019_Mar_13_1458,mf_amp_cond1,3.0.4,59.98155123116491,
prison,scalbel,&&&&&&&,right,fairness.vice,,,,,,,0,311,311,311,,,,,,,,,,,,,,,,,,,,,AMP,left,0.016905985306948423,,,left,0,0.016905985306948423,0,,,,,,,,,,,,,,,,,,,,,,1061,2019_Mar_13_1458,mf_amp_cond1,3.0.4,59.98155123116491,
police,sgrawl,&&&&&&,right,authority.vice,,,,,,,0,312,312,312,,,,,,,,,,,,,,,,,,,,,AMP,right,0.26695497587206773,,,right,1,0.26695497587206773,1,,,,,,,,,,,,,,,,,,,,,,1061,2019_Mar_13_1458,mf_amp_cond1,3.0.4,59.98155123116491,
compassion,discovars,&&&&&&&&&,left,care.virtue,,,,,,,0,313,313,313,,,,,,,,,,,,,,,,,,,,,AMP,left,0.15025229725870304,,,left,1,0.15025229725870304,1,,,,,,,,,,,,,,,,,,,,,,1061,2019_Mar_13_1458,mf_amp_cond1,3.0.4,59.98155123116491,
restore,quarterbocks,&&&&&&&&&&&&,left,care.virtue,,,,,,,0,314,314,314,,,,,,,,,,,,,,,,,,,,,AMP,right,0.23361414828104898,,,right,0,0.23361414828104898,0,,,,,,,,,,,,,,,,,,,,,,1061,2019_Mar_13_1458,mf_amp_cond1,3.0.4,59.98155123116491,
improve,counpy's,&&&&&&&&,left,care.virtue,,,,,,,0,315,315,315,,,,,,,,,,,,,,,,,,,,,AMP,left,0.21694004617165774,,,left,1,0.21694004617165774,1,,,,,,,,,,,,,,,,,,,,,,1061,2019_Mar_13_1458,mf_amp_cond1,3.0.4,59.98155123116491,
ensure,spag,&&&&,left,fairness.virtue,,,,,,,0,316,316,316,,,,,,,,,,,,,,,,,,,,,AMP,right,0.0502715086331591,,,right,0,0.0502715086331591,0,,,,,,,,,,,,,,,,,,,,,,1061,2019_Mar_13_1458,mf_amp_cond1,3.0.4,59.98155123116491,
actively,perified,&&&&&&&&,left,authority.virtue,,,,,,,0,317,317,317,,,,,,,,,,,,,,,,,,,,,AMP,left,0.28359572269255295,,,left,1,0.28359572269255295,1,,,,,,,,,,,,,,,,,,,,,,1061,2019_Mar_13_1458,mf_amp_cond1,3.0.4,59.98155123116491,
promises,seachwear,&&&&&&&&&,left,fairness.virtue,,,,,,,0,318,318,318,,,,,,,,,,,,,,,,,,,,,AMP,right,0.25028279807884246,,,right,0,0.25028279807884246,0,,,,,,,,,,,,,,,,,,,,,,1061,2019_Mar_13_1458,mf_amp_cond1,3.0.4,59.98155123116491,
ability,blunderints,&&&&&&&&&&&,left,authority.virtue,,,,,,,0,319,319,319,,,,,,,,,,,,,,,,,,,,,AMP,left,0.21693042447441258,,,left,1,0.21693042447441258,1,,,,,,,,,,,,,,,,,,,,,,1061,2019_Mar_13_1458,mf_amp_cond1,3.0.4,59.98155123116491,
died,Oregoniuns,&&&&&&&&&&,right,care.vice,,,,,,,0,320,320,320,,,,,,,,,,,,,,,,,,,,,AMP,left,0.133584288880229,,,left,0,0.133584288880229,0,,,,,,,,,,,,,,,,,,,,,,1061,2019_Mar_13_1458,mf_amp_cond1,3.0.4,59.98155123116491,
army,uller,&&&&&,right,loyalty.vice,,,,,,,0,321,321,321,,,,,,,,,,,,,,,,,,,,,AMP,left,0.23361318610841408,,,left,0,0.23361318610841408,0,,,,,,,,,,,,,,,,,,,,,,1061,2019_Mar_13_1458,mf_amp_cond1,3.0.4,59.98155123116491,
brudent,chared,&&&&&&,None,nonword,,,,,,,0,322,322,322,,,,,,,,,,,,,,,,,,,,,AMP,right,0.21694004617165774,,,right,0,0.21694004617165774,0,,,,,,,,,,,,,,,,,,,,,,1061,2019_Mar_13_1458,mf_amp_cond1,3.0.4,59.98155123116491,
hate,chreams,&&&&&&&,right,fairness.vice,,,,,,,0,323,323,323,,,,,,,,,,,,,,,,,,,,,AMP,left,0.23362601504777558,,,left,0,0.23362601504777558,0,,,,,,,,,,,,,,,,,,,,,,1061,2019_Mar_13_1458,mf_amp_cond1,3.0.4,59.98155123116491,
violations,lempestuous,&&&&&&&&&&&,right,sanctity.vice,,,,,,,0,324,324,324,,,,,,,,,,,,,,,,,,,,,AMP,right,0.00023797695757821202,,,right,1,0.00023797695757821202,1,,,,,,,,,,,,,,,,,,,,,,1061,2019_Mar_13_1458,mf_amp_cond1,3.0.4,59.98155123116491,
violence,supervuned,&&&&&&&&&&,right,care.vice,,,,,,,0,325,325,325,,,,,,,,,,,,,,,,,,,,,AMP,left,0.2169358767569065,,,left,0,0.2169358767569065,0,,,,,,,,,,,,,,,,,,,,,,1061,2019_Mar_13_1458,mf_amp_cond1,3.0.4,59.98155123116491,
racist,neutralust,&&&&&&&&&&,right,sanctity.vice,,,,,,,0,326,326,326,,,,,,,,,,,,,,,,,,,,,AMP,right,0.2169515922141727,,,right,1,0.2169515922141727,1,,,,,,,,,,,,,,,,,,,,,,1061,2019_Mar_13_1458,mf_amp_cond1,3.0.4,59.98155123116491,
victim,synchronazers,&&&&&&&&&&&&&,right,care.vice,,,,,,,0,327,327,327,,,,,,,,,,,,,,,,,,,,,AMP,left,0.21691535043646581,,,left,0,0.21691535043646581,0,,,,,,,,,,,,,,,,,,,,,,1061,2019_Mar_13_1458,mf_amp_cond1,3.0.4,59.98155123116491,
,,,,,,,,,,,,,,,,,,,,,,,,,,,,,,,,,,,,,,,,,,,,5,14.322,,,,,,,,,,,,,,,,,,,,1061,2019_Mar_13_1458,mf_amp_cond1,3.0.4,59.98155123116491,
,,,,,,,,,,,,,,,,,,,,,,,,,,,,,,,,,,,,,,,,,,,,,,4,7.587,,,,,,,,,,,,,,,,,,1061,2019_Mar_13_1458,mf_amp_cond1,3.0.4,59.98155123116491,
,,,,,,,,,,,,,,,,,,,,,,,,,,,,,,,,,,,,,,,,,,,,,,,,3,5.553,,,,,,,,,,,,,,,,1061,2019_Mar_13_1458,mf_amp_cond1,3.0.4,59.98155123116491,
,,,,,,,,,,,,,,,,,,,,,,,,,,,,,,,,,,,,,,,,,,,,,,,,,,right,16.621219590189867,,,,,,,,,,,,,,1061,2019_Mar_13_1458,mf_amp_cond1,3.0.4,59.98155123116491,
bisebell,,&&&&&&&,,,,,,,,,,,,,0,0,0,1,,,,,,,,,,,,,,,,,LDT_prac,left,3.234384205774404,,,,,,0,,,,,,,,,left,3.234384205774404,,,,,,,,,,,,1061,2019_Mar_13_1458,mf_amp_cond1,3.0.4,59.98155123116491,
keyboard,,&&&&&&&,,,,,,,,,,,,,0,1,1,0,,,,,,,,,,,,,,,,,LDT_prac,left,0.7670879157958552,,,,,,0,,,,,,,,,left,0.7670879157958552,,,,,,,,,,,,1061,2019_Mar_13_1458,mf_amp_cond1,3.0.4,59.98155123116491,
,,,,,,,,,,,,,,,,,,,,,,,,,,,,,,,,,,,,,,,,,,,,,,,,,,,,,,right,1.6506568901531864,,,,,,,,,,1061,2019_Mar_13_1458,mf_amp_cond1,3.0.4,59.98155123116491,
fifty,,&&&&&,left,neutral,,,,,,,,,,,,,,,0,0,0,13,,,,,,,,,,,,,LDT,right,2.3174827426555566,,,,,,0,,,,,,,,,,,,,right,0,2.3174827426555566,,,,,,,1061,2019_Mar_13_1458,mf_amp_cond1,3.0.4,59.98155123116491,
vicissifude,,&&&&&&&&&&&,right,nonword,,,,,,,,,,,,,,,0,1,1,6,,,,,,,,,,,,,LDT,left,1.7006673296855297,,,,,,0,,,,,,,,,,,,,left,0,1.7006673296855297,,,,,,,1061,2019_Mar_13_1458,mf_amp_cond1,3.0.4,59.98155123116491,
honored,,&&&&&&&,left,authority.virtue,,,,,,,,,,,,,,,0,2,2,176,,,,,,,,,,,,,LDT,right,0.7004104300867766,,,,,,0,,,,,,,,,,,,,right,0,0.7004104300867766,,,,,,,1061,2019_Mar_13_1458,mf_amp_cond1,3.0.4,59.98155123116491,
noone,,&&&&&,left,neutral,,,,,,,,,,,,,,,0,3,3,83,,,,,,,,,,,,,LDT,left,1.9173947360832244,,,,,,1,,,,,,,,,,,,,left,1,1.9173947360832244,,,,,,,1061,2019_Mar_13_1458,mf_amp_cond1,3.0.4,59.98155123116491,
gaultless,,&&&&&&&&&,right,nonword,,,,,,,,,,,,,,,0,4,4,154,,,,,,,,,,,,,LDT,right,0.7670885572442785,,,,,,1,,,,,,,,,,,,,right,1,0.7670885572442785,,,,,,,1061,2019_Mar_13_1458,mf_amp_cond1,3.0.4,59.98155123116491,
cromiscuity,,&&&&&&&&&&&,right,nonword,,,,,,,,,,,,,,,0,5,5,54,,,,,,,,,,,,,LDT,left,2.0840979118074756,,,,,,0,,,,,,,,,,,,,left,0,2.0840979118074756,,,,,,,1061,2019_Mar_13_1458,mf_amp_cond1,3.0.4,59.98155123116491,
antral,,&&&&&&,right,nonword,,,,,,,,,,,,,,,0,6,6,129,,,,,,,,,,,,,LDT,left,0.7337454846128821,,,,,,0,,,,,,,,,,,,,left,0,0.7337454846128821,,,,,,,1061,2019_Mar_13_1458,mf_amp_cond1,3.0.4,59.98155123116491,
chressing,,&&&&&&&&&,None,nonword,,,,,,,,,,,,,,,0,7,7,121,,,,,,,,,,,,,LDT,right,0.8004447795683518,,,,,,0,,,,,,,,,,,,,right,0,0.8004447795683518,,,,,,,1061,2019_Mar_13_1458,mf_amp_cond1,3.0.4,59.98155123116491,
each,,&&&&,left,neutral,,,,,,,,,,,,,,,0,8,8,111,,,,,,,,,,,,,LDT,right,0.7004062606429216,,,,,,0,,,,,,,,,,,,,right,0,0.7004062606429216,,,,,,,1061,2019_Mar_13_1458,mf_amp_cond1,3.0.4,59.98155123116491,
pistraught,,&&&&&&&&&&,right,nonword,,,,,,,,,,,,,,,0,9,9,180,,,,,,,,,,,,,LDT,left,2.2674844906141516,,,,,,0,,,,,,,,,,,,,left,0,2.2674844906141516,,,,,,,1061,2019_Mar_13_1458,mf_amp_cond1,3.0.4,59.98155123116491,
sowntrodden,,&&&&&&&&&&&,right,nonword,,,,,,,,,,,,,,,0,10,10,41,,,,,,,,,,,,,LDT,left,0.5670506477181334,,,,,,0,,,,,,,,,,,,,left,0,0.5670506477181334,,,,,,,1061,2019_Mar_13_1458,mf_amp_cond1,3.0.4,59.98155123116491,
perfect,,&&&&&&&,left,sanctity.virtue,,,,,,,,,,,,,,,0,11,11,29,,,,,,,,,,,,,LDT,right,0.733741956675658,,,,,,0,,,,,,,,,,,,,right,0,0.733741956675658,,,,,,,1061,2019_Mar_13_1458,mf_amp_cond1,3.0.4,59.98155123116491,
conspiracy,,&&&&&&&&&&,left,sanctity.vice,,,,,,,,,,,,,,,0,12,12,186,,,,,,,,,,,,,LDT,right,0.8171236925409175,,,,,,0,,,,,,,,,,,,,right,0,0.8171236925409175,,,,,,,1061,2019_Mar_13_1458,mf_amp_cond1,3.0.4,59.98155123116491,
three,,&&&&&,left,neutral,,,,,,,,,,,,,,,0,13,13,58,,,,,,,,,,,,,LDT,right,0.6337374344584532,,,,,,0,,,,,,,,,,,,,right,0,0.6337374344584532,,,,,,,1061,2019_Mar_13_1458,mf_amp_cond1,3.0.4,59.98155123116491,
juck,,&&&&,right,nonword,,,,,,,,,,,,,,,0,14,14,9,,,,,,,,,,,,,LDT,left,0.8171095806756057,,,,,,0,,,,,,,,,,,,,left,0,0.8171095806756057,,,,,,,1061,2019_Mar_13_1458,mf_amp_cond1,3.0.4,59.98155123116491,
latter,,&&&&&&,left,neutral,,,,,,,,,,,,,,,0,15,15,158,,,,,,,,,,,,,LDT,right,1.117186971299816,,,,,,0,,,,,,,,,,,,,right,0,1.117186971299816,,,,,,,1061,2019_Mar_13_1458,mf_amp_cond1,3.0.4,59.98155123116491,
further,,&&&&&&&,left,neutral,,,,,,,,,,,,,,,0,16,16,1,,,,,,,,,,,,,LDT,right,0.6170610872795805,,,,,,0,,,,,,,,,,,,,right,0,0.6170610872795805,,,,,,,1061,2019_Mar_13_1458,mf_amp_cond1,3.0.4,59.98155123116491,
lenon,,&&&&&,right,nonword,,,,,,,,,,,,,,,0,17,17,134,,,,,,,,,,,,,LDT,left,0.900453471171204,,,,,,0,,,,,,,,,,,,,left,0,0.900453471171204,,,,,,,1061,2019_Mar_13_1458,mf_amp_cond1,3.0.4,59.98155123116491,
thru,,&&&&,left,neutral,,,,,,,,,,,,,,,0,18,18,55,,,,,,,,,,,,,LDT,right,0.8004319505998865,,,,,,0,,,,,,,,,,,,,right,0,0.8004319505998865,,,,,,,1061,2019_Mar_13_1458,mf_amp_cond1,3.0.4,59.98155123116491,
gillipede,,&&&&&&&&&,None,nonword,,,,,,,,,,,,,,,0,19,19,187,,,,,,,,,,,,,LDT,left,0.8337660430115648,,,,,,0,,,,,,,,,,,,,left,0,0.8337660430115648,,,,,,,1061,2019_Mar_13_1458,mf_amp_cond1,3.0.4,59.98155123116491,
clattening,,&&&&&&&&&&,right,nonword,,,,,,,,,,,,,,,0,20,20,126,,,,,,,,,,,,,LDT,left,1.250559261883609,,,,,,0,,,,,,,,,,,,,left,0,1.250559261883609,,,,,,,1061,2019_Mar_13_1458,mf_amp_cond1,3.0.4,59.98155123116491,
even,,&&&&,left,neutral,,,,,,,,,,,,,,,0,21,21,19,,,,,,,,,,,,,LDT,right,0.6504278934735339,,,,,,0,,,,,,,,,,,,,right,0,0.6504278934735339,,,,,,,1061,2019_Mar_13_1458,mf_amp_cond1,3.0.4,59.98155123116491,
idexpressible,,&&&&&&&&&&&&&,right,nonword,,,,,,,,,,,,,,,0,22,22,152,,,,,,,,,,,,,LDT,left,0.9671447480213828,,,,,,0,,,,,,,,,,,,,left,0,0.9671447480213828,,,,,,,1061,2019_Mar_13_1458,mf_amp_cond1,3.0.4,59.98155123116491,
hasks,,&&&&&,right,nonword,,,,,,,,,,,,,,,0,23,23,57,,,,,,,,,,,,,LDT,right,1.1005083790514618,,,,,,1,,,,,,,,,,,,,right,1,1.1005083790514618,,,,,,,1061,2019_Mar_13_1458,mf_amp_cond1,3.0.4,59.98155123116491,
shoirmaster,,&&&&&&&&&&&,None,nonword,,,,,,,,,,,,,,,0,24,24,50,,,,,,,,,,,,,LDT,left,0.7170790798845701,,,,,,0,,,,,,,,,,,,,left,0,0.7170790798845701,,,,,,,1061,2019_Mar_13_1458,mf_amp_cond1,3.0.4,59.98155123116491,
interests,,&&&&&&&&&,left,fairness.virtue,,,,,,,,,,,,,,,0,25,25,131,,,,,,,,,,,,,LDT,right,0.7837764504656661,,,,,,0,,,,,,,,,,,,,right,0,0.7837764504656661,,,,,,,1061,2019_Mar_13_1458,mf_amp_cond1,3.0.4,59.98155123116491,
safe,,&&&&,left,care.virtue,,,,,,,,,,,,,,,0,26,26,113,,,,,,,,,,,,,LDT,right,0.8504430316097569,,,,,,0,,,,,,,,,,,,,right,0,0.8504430316097569,,,,,,,1061,2019_Mar_13_1458,mf_amp_cond1,3.0.4,59.98155123116491,
prones,,&&&&&&,right,nonword,,,,,,,,,,,,,,,0,27,27,135,,,,,,,,,,,,,LDT,right,0.733788782323245,,,,,,1,,,,,,,,,,,,,right,1,0.733788782323245,,,,,,,1061,2019_Mar_13_1458,mf_amp_cond1,3.0.4,59.98155123116491,
smapper,,&&&&&&&,right,nonword,,,,,,,,,,,,,,,0,28,28,85,,,,,,,,,,,,,LDT,left,0.9503401113906875,,,,,,0,,,,,,,,,,,,,left,0,0.9503401113906875,,,,,,,1061,2019_Mar_13_1458,mf_amp_cond1,3.0.4,59.98155123116491,
give,,&&&&,left,neutral,,,,,,,,,,,,,,,0,29,29,128,,,,,,,,,,,,,LDT,left,0.8671238689275924,,,,,,1,,,,,,,,,,,,,left,1,0.8671238689275924,,,,,,,1061,2019_Mar_13_1458,mf_amp_cond1,3.0.4,59.98155123116491,
tracious,,&&&&&&&&,right,nonword,,,,,,,,,,,,,,,0,30,30,104,,,,,,,,,,,,,LDT,right,1.6173128553491551,,,,,,1,,,,,,,,,,,,,right,1,1.6173128553491551,,,,,,,1061,2019_Mar_13_1458,mf_amp_cond1,3.0.4,59.98155123116491,
emports,,&&&&&&&,right,nonword,,,,,,,,,,,,,,,0,31,31,77,,,,,,,,,,,,,LDT,left,1.1505271574424114,,,,,,0,,,,,,,,,,,,,left,0,1.1505271574424114,,,,,,,1061,2019_Mar_13_1458,mf_amp_cond1,3.0.4,59.98155123116491,
scock,,&&&&&,right,nonword,,,,,,,,,,,,,,,0,32,32,8,,,,,,,,,,,,,LDT,right,0.833764118666295,,,,,,1,,,,,,,,,,,,,right,1,0.833764118666295,,,,,,,1061,2019_Mar_13_1458,mf_amp_cond1,3.0.4,59.98155123116491,
unscothed,,&&&&&&&&&,right,nonword,,,,,,,,,,,,,,,0,33,33,164,,,,,,,,,,,,,LDT,left,0.7170675338129513,,,,,,0,,,,,,,,,,,,,left,0,0.7170675338129513,,,,,,,1061,2019_Mar_13_1458,mf_amp_cond1,3.0.4,59.98155123116491,
noped,,&&&&&,right,nonword,,,,,,,,,,,,,,,0,34,34,169,,,,,,,,,,,,,LDT,right,0.5503624337725341,,,,,,1,,,,,,,,,,,,,right,1,0.5503624337725341,,,,,,,1061,2019_Mar_13_1458,mf_amp_cond1,3.0.4,59.98155123116491,
lachelor,,&&&&&&&&,right,nonword,,,,,,,,,,,,,,,0,35,35,20,,,,,,,,,,,,,LDT,left,0.6837372901209164,,,,,,0,,,,,,,,,,,,,left,0,0.6837372901209164,,,,,,,1061,2019_Mar_13_1458,mf_amp_cond1,3.0.4,59.98155123116491,
glacenta,,&&&&&&&&,right,nonword,,,,,,,,,,,,,,,0,36,36,47,,,,,,,,,,,,,LDT,left,0.7337502954469528,,,,,,0,,,,,,,,,,,,,left,0,0.7337502954469528,,,,,,,1061,2019_Mar_13_1458,mf_amp_cond1,3.0.4,59.98155123116491,
clean,,&&&&&,left,sanctity.virtue,,,,,,,,,,,,,,,0,37,37,22,,,,,,,,,,,,,LDT,right,0.5504073350748513,,,,,,0,,,,,,,,,,,,,right,0,0.5504073350748513,,,,,,,1061,2019_Mar_13_1458,mf_amp_cond1,3.0.4,59.98155123116491,
hereby,,&&&&&&,left,neutral,,,,,,,,,,,,,,,0,38,38,46,,,,,,,,,,,,,LDT,right,0.6670625465631019,,,,,,0,,,,,,,,,,,,,right,0,0.6670625465631019,,,,,,,1061,2019_Mar_13_1458,mf_amp_cond1,3.0.4,59.98155123116491,
wonderfujnoss,,&&&&&&&&&&&&&,right,nonword,,,,,,,,,,,,,,,0,39,39,179,,,,,,,,,,,,,LDT,left,1.0338353834522422,,,,,,0,,,,,,,,,,,,,left,0,1.0338353834522422,,,,,,,1061,2019_Mar_13_1458,mf_amp_cond1,3.0.4,59.98155123116491,
epigrach,,&&&&&&&&,right,nonword,,,,,,,,,,,,,,,0,40,40,96,,,,,,,,,,,,,LDT,left,0.8837771239923313,,,,,,0,,,,,,,,,,,,,left,0,0.8837771239923313,,,,,,,1061,2019_Mar_13_1458,mf_amp_cond1,3.0.4,59.98155123116491,
about,,&&&&&,left,neutral,,,,,,,,,,,,,,,0,41,41,163,,,,,,,,,,,,,LDT,right,1.0171587155782618,,,,,,0,,,,,,,,,,,,,right,0,1.0171587155782618,,,,,,,1061,2019_Mar_13_1458,mf_amp_cond1,3.0.4,59.98155123116491,
baladroit,,&&&&&&&&&,right,nonword,,,,,,,,,,,,,,,0,42,42,21,,,,,,,,,,,,,LDT,left,1.0171619227912743,,,,,,0,,,,,,,,,,,,,left,0,1.0171619227912743,,,,,,,1061,2019_Mar_13_1458,mf_amp_cond1,3.0.4,59.98155123116491,
blamed,,&&&&&&,left,loyalty.vice,,,,,,,,,,,,,,,0,43,43,78,,,,,,,,,,,,,LDT,right,0.6337127387232613,,,,,,0,,,,,,,,,,,,,right,0,0.6337127387232613,,,,,,,1061,2019_Mar_13_1458,mf_amp_cond1,3.0.4,59.98155123116491,
opportunity,,&&&&&&&&&&&,left,fairness.virtue,,,,,,,,,,,,,,,0,44,44,171,,,,,,,,,,,,,LDT,right,0.7504211903433315,,,,,,0,,,,,,,,,,,,,right,0,0.7504211903433315,,,,,,,1061,2019_Mar_13_1458,mf_amp_cond1,3.0.4,59.98155123116491,
praise,,&&&&&&,left,authority.virtue,,,,,,,,,,,,,,,0,45,45,87,,,,,,,,,,,,,LDT,right,0.8504439937823918,,,,,,0,,,,,,,,,,,,,right,0,0.8504439937823918,,,,,,,1061,2019_Mar_13_1458,mf_amp_cond1,3.0.4,59.98155123116491,
unreflectuve,,&&&&&&&&&&&&,right,nonword,,,,,,,,,,,,,,,0,46,46,122,,,,,,,,,,,,,LDT,left,0.900465017213719,,,,,,0,,,,,,,,,,,,,left,0,0.900465017213719,,,,,,,1061,2019_Mar_13_1458,mf_amp_cond1,3.0.4,59.98155123116491,
reprisols,,&&&&&&&&&,right,nonword,,,,,,,,,,,,,,,0,47,47,189,,,,,,,,,,,,,LDT,left,1.2839084282750264,,,,,,0,,,,,,,,,,,,,left,0,1.2839084282750264,,,,,,,1061,2019_Mar_13_1458,mf_amp_cond1,3.0.4,59.98155123116491,
photocalkodes,,&&&&&&&&&&&&&,right,nonword,,,,,,,,,,,,,,,0,48,48,105,,,,,,,,,,,,,LDT,left,0.7670927266590297,,,,,,0,,,,,,,,,,,,,left,0,0.7670927266590297,,,,,,,1061,2019_Mar_13_1458,mf_amp_cond1,3.0.4,59.98155123116491,
accused,,&&&&&&&,left,fairness.vice,,,,,,,,,,,,,,,0,49,49,12,,,,,,,,,,,,,LDT,right,0.6337326235952787,,,,,,0,,,,,,,,,,,,,right,0,0.6337326235952787,,,,,,,1061,2019_Mar_13_1458,mf_amp_cond1,3.0.4,59.98155123116491,
protesters,,&&&&&&&&&&,left,authority.vice,,,,,,,,,,,,,,,0,50,50,72,,,,,,,,,,,,,LDT,left,0.7504029090923723,,,,,,1,,,,,,,,,,,,,left,1,0.7504029090923723,,,,,,,1061,2019_Mar_13_1458,mf_amp_cond1,3.0.4,59.98155123116491,
infet,,&&&&&,right,nonword,,,,,,,,,,,,,,,0,51,51,159,,,,,,,,,,,,,LDT,right,0.6838710318843368,,,,,,1,,,,,,,,,,,,,right,1,0.6838710318843368,,,,,,,1061,2019_Mar_13_1458,mf_amp_cond1,3.0.4,59.98155123116491,
egpeditious,,&&&&&&&&&&&,right,nonword,,,,,,,,,,,,,,,0,52,52,194,,,,,,,,,,,,,LDT,left,0.8504385414998978,,,,,,0,,,,,,,,,,,,,left,0,0.8504385414998978,,,,,,,1061,2019_Mar_13_1458,mf_amp_cond1,3.0.4,59.98155123116491,
intelligence,,&&&&&&&&&&&&,left,loyalty.virtue,,,,,,,,,,,,,,,0,53,53,102,,,,,,,,,,,,,LDT,right,0.900555782020092,,,,,,0,,,,,,,,,,,,,right,0,0.900555782020092,,,,,,,1061,2019_Mar_13_1458,mf_amp_cond1,3.0.4,59.98155123116491,
squets,,&&&&&&,right,nonword,,,,,,,,,,,,,,,0,54,54,49,,,,,,,,,,,,,LDT,left,1.133836377703119,,,,,,0,,,,,,,,,,,,,left,0,1.133836377703119,,,,,,,1061,2019_Mar_13_1458,mf_amp_cond1,3.0.4,59.98155123116491,
forced,,&&&&&&,left,fairness.vice,,,,,,,,,,,,,,,0,55,55,91,,,,,,,,,,,,,LDT,right,0.6337098522053566,,,,,,0,,,,,,,,,,,,,right,0,0.6337098522053566,,,,,,,1061,2019_Mar_13_1458,mf_amp_cond1,3.0.4,59.98155123116491,
tove,,&&&&,right,nonword,,,,,,,,,,,,,,,0,56,56,191,,,,,,,,,,,,,LDT,left,0.7837459817237686,,,,,,0,,,,,,,,,,,,,left,0,0.7837459817237686,,,,,,,1061,2019_Mar_13_1458,mf_amp_cond1,3.0.4,59.98155123116491,
pharing,,&&&&&&&,right,nonword,,,,,,,,,,,,,,,0,57,57,35,,,,,,,,,,,,,LDT,left,0.7670895194169134,,,,,,0,,,,,,,,,,,,,left,0,0.7670895194169134,,,,,,,1061,2019_Mar_13_1458,mf_amp_cond1,3.0.4,59.98155123116491,
somehow,,&&&&&&&,left,neutral,,,,,,,,,,,,,,,0,58,58,7,,,,,,,,,,,,,LDT,right,0.6003921167575754,,,,,,0,,,,,,,,,,,,,right,0,0.6003921167575754,,,,,,,1061,2019_Mar_13_1458,mf_amp_cond1,3.0.4,59.98155123116491,
health,,&&&&&&,left,care.virtue,,,,,,,,,,,,,,,0,59,59,190,,,,,,,,,,,,,LDT,left,0.9504709666653071,,,,,,1,,,,,,,,,,,,,left,1,0.9504709666653071,,,,,,,1061,2019_Mar_13_1458,mf_amp_cond1,3.0.4,59.98155123116491,
wherever,,&&&&&&&&,left,neutral,,,,,,,,,,,,,,,0,60,60,168,,,,,,,,,,,,,LDT,right,0.6670750548073556,,,,,,0,,,,,,,,,,,,,right,0,0.6670750548073556,,,,,,,1061,2019_Mar_13_1458,mf_amp_cond1,3.0.4,59.98155123116491,
gondensed,,&&&&&&&&&,right,nonword,,,,,,,,,,,,,,,0,61,61,52,,,,,,,,,,,,,LDT,left,0.6837276684236713,,,,,,0,,,,,,,,,,,,,left,0,0.6837276684236713,,,,,,,1061,2019_Mar_13_1458,mf_amp_cond1,3.0.4,59.98155123116491,
also,,&&&&,left,neutral,,,,,,,,,,,,,,,0,62,62,195,,,,,,,,,,,,,LDT,right,0.683731517085107,,,,,,0,,,,,,,,,,,,,right,0,0.683731517085107,,,,,,,1061,2019_Mar_13_1458,mf_amp_cond1,3.0.4,59.98155123116491,
nonobservalt,,&&&&&&&&&&&&,right,nonword,,,,,,,,,,,,,,,0,63,63,80,,,,,,,,,,,,,LDT,left,0.6504015941172838,,,,,,0,,,,,,,,,,,,,left,0,0.6504015941172838,,,,,,,1061,2019_Mar_13_1458,mf_amp_cond1,3.0.4,59.98155123116491,
forty,,&&&&&,left,neutral,,,,,,,,,,,,,,,0,64,64,76,,,,,,,,,,,,,LDT,left,0.7337798020453192,,,,,,1,,,,,,,,,,,,,left,1,0.7337798020453192,,,,,,,1061,2019_Mar_13_1458,mf_amp_cond1,3.0.4,59.98155123116491,
gazily,,&&&&&&,right,nonword,,,,,,,,,,,,,,,0,65,65,62,,,,,,,,,,,,,LDT,right,0.6837369693967048,,,,,,1,,,,,,,,,,,,,right,1,0.6837369693967048,,,,,,,1061,2019_Mar_13_1458,mf_amp_cond1,3.0.4,59.98155123116491,
towards,,&&&&&&&,left,neutral,,,,,,,,,,,,,,,0,66,66,139,,,,,,,,,,,,,LDT,left,0.6670824314351194,,,,,,1,,,,,,,,,,,,,left,1,0.6670824314351194,,,,,,,1061,2019_Mar_13_1458,mf_amp_cond1,3.0.4,59.98155123116491,
riot,,&&&&,left,authority.vice,,,,,,,,,,,,,,,0,67,67,155,,,,,,,,,,,,,LDT,left,0.6170238833292387,,,,,,1,,,,,,,,,,,,,left,1,0.6170238833292387,,,,,,,1061,2019_Mar_13_1458,mf_amp_cond1,3.0.4,59.98155123116491,
there,,&&&&&,left,neutral,,,,,,,,,,,,,,,0,68,68,183,,,,,,,,,,,,,LDT,left,0.6670622258388903,,,,,,1,,,,,,,,,,,,,left,1,0.6670622258388903,,,,,,,1061,2019_Mar_13_1458,mf_amp_cond1,3.0.4,59.98155123116491,
powerful,,&&&&&&&&,left,authority.virtue,,,,,,,,,,,,,,,0,69,69,23,,,,,,,,,,,,,LDT,right,0.5503733383666258,,,,,,0,,,,,,,,,,,,,right,0,0.5503733383666258,,,,,,,1061,2019_Mar_13_1458,mf_amp_cond1,3.0.4,59.98155123116491,
mostly,,&&&&&&,left,neutral,,,,,,,,,,,,,,,0,70,70,67,,,,,,,,,,,,,LDT,right,0.6670789034687914,,,,,,0,,,,,,,,,,,,,right,0,0.6670789034687914,,,,,,,1061,2019_Mar_13_1458,mf_amp_cond1,3.0.4,59.98155123116491,
front,,&&&&&,left,neutral,,,,,,,,,,,,,,,0,71,71,65,,,,,,,,,,,,,LDT,left,0.6837334414303768,,,,,,1,,,,,,,,,,,,,left,1,0.6837334414303768,,,,,,,1061,2019_Mar_13_1458,mf_amp_cond1,3.0.4,59.98155123116491,
Daptist,,&&&&&&&,right,nonword,,,,,,,,,,,,,,,0,72,72,144,,,,,,,,,,,,,LDT,left,0.7004101093334612,,,,,,0,,,,,,,,,,,,,left,0,0.7004101093334612,,,,,,,1061,2019_Mar_13_1458,mf_amp_cond1,3.0.4,59.98155123116491,
aubos,,&&&&&,right,nonword,,,,,,,,,,,,,,,0,73,73,31,,,,,,,,,,,,,LDT,left,0.5670548171328846,,,,,,0,,,,,,,,,,,,,left,0,0.5670548171328846,,,,,,,1061,2019_Mar_13_1458,mf_amp_cond1,3.0.4,59.98155123116491,
victims,,&&&&&&&,left,care.vice,,,,,,,,,,,,,,,0,74,74,89,,,,,,,,,,,,,LDT,left,0.5670339700882323,,,,,,1,,,,,,,,,,,,,left,1,0.5670339700882323,,,,,,,1061,2019_Mar_13_1458,mf_amp_cond1,3.0.4,59.98155123116491,
dumid,,&&&&&,right,nonword,,,,,,,,,,,,,,,0,75,75,118,,,,,,,,,,,,,LDT,left,0.5003507113142405,,,,,,0,,,,,,,,,,,,,left,0,0.5003507113142405,,,,,,,1061,2019_Mar_13_1458,mf_amp_cond1,3.0.4,59.98155123116491,
gowlands,,&&&&&&&&,right,nonword,,,,,,,,,,,,,,,0,76,76,101,,,,,,,,,,,,,LDT,left,0.5837273156212177,,,,,,0,,,,,,,,,,,,,left,0,0.5837273156212177,,,,,,,1061,2019_Mar_13_1458,mf_amp_cond1,3.0.4,59.98155123116491,
with,,&&&&,left,neutral,,,,,,,,,,,,,,,0,77,77,141,,,,,,,,,,,,,LDT,left,0.5503922610660084,,,,,,1,,,,,,,,,,,,,left,1,0.5503922610660084,,,,,,,1061,2019_Mar_13_1458,mf_amp_cond1,3.0.4,59.98155123116491,
support,,&&&&&&&,left,loyalty.virtue,,,,,,,,,,,,,,,0,78,78,63,,,,,,,,,,,,,LDT,right,0.550381035747705,,,,,,0,,,,,,,,,,,,,right,0,0.550381035747705,,,,,,,1061,2019_Mar_13_1458,mf_amp_cond1,3.0.4,59.98155123116491,
reviked,,&&&&&&&,right,nonword,,,,,,,,,,,,,,,0,79,79,82,,,,,,,,,,,,,LDT,left,0.6670753755024634,,,,,,0,,,,,,,,,,,,,left,0,0.6670753755024634,,,,,,,1061,2019_Mar_13_1458,mf_amp_cond1,3.0.4,59.98155123116491,
crinking,,&&&&&&&&,right,nonword,,,,,,,,,,,,,,,0,80,80,162,,,,,,,,,,,,,LDT,right,1.15051432850305,,,,,,1,,,,,,,,,,,,,right,1,1.15051432850305,,,,,,,1061,2019_Mar_13_1458,mf_amp_cond1,3.0.4,59.98155123116491,
frojecting,,&&&&&&&&&&,right,nonword,,,,,,,,,,,,,,,0,81,81,98,,,,,,,,,,,,,LDT,left,0.8837883493397385,,,,,,0,,,,,,,,,,,,,left,0,0.8837883493397385,,,,,,,1061,2019_Mar_13_1458,mf_amp_cond1,3.0.4,59.98155123116491,
tenuflect,,&&&&&&&&&,right,nonword,,,,,,,,,,,,,,,0,82,82,66,,,,,,,,,,,,,LDT,left,0.6170476168626919,,,,,,0,,,,,,,,,,,,,left,0,0.6170476168626919,,,,,,,1061,2019_Mar_13_1458,mf_amp_cond1,3.0.4,59.98155123116491,
less,,&&&&,left,neutral,,,,,,,,,,,,,,,0,83,83,107,,,,,,,,,,,,,LDT,right,0.6003905131074134,,,,,,0,,,,,,,,,,,,,right,0,0.6003905131074134,,,,,,,1061,2019_Mar_13_1458,mf_amp_cond1,3.0.4,59.98155123116491,
care,,&&&&,left,care.virtue,,,,,,,,,,,,,,,0,84,84,74,,,,,,,,,,,,,LDT,right,1.017158715549158,,,,,,0,,,,,,,,,,,,,right,0,1.017158715549158,,,,,,,1061,2019_Mar_13_1458,mf_amp_cond1,3.0.4,59.98155123116491,
could,,&&&&&,left,neutral,,,,,,,,,,,,,,,0,85,85,11,,,,,,,,,,,,,LDT,right,0.7337602378975134,,,,,,0,,,,,,,,,,,,,right,0,0.7337602378975134,,,,,,,1061,2019_Mar_13_1458,mf_amp_cond1,3.0.4,59.98155123116491,
everything,,&&&&&&&&&&,left,neutral,,,,,,,,,,,,,,,0,86,86,198,,,,,,,,,,,,,LDT,left,0.4003362466755789,,,,,,1,,,,,,,,,,,,,left,1,0.4003362466755789,,,,,,,1061,2019_Mar_13_1458,mf_amp_cond1,3.0.4,59.98155123116491,
anything,,&&&&&&&&,left,neutral,,,,,,,,,,,,,,,0,87,87,70,,,,,,,,,,,,,LDT,left,0.383687481720699,,,,,,1,,,,,,,,,,,,,left,1,0.383687481720699,,,,,,,1061,2019_Mar_13_1458,mf_amp_cond1,3.0.4,59.98155123116491,
become,,&&&&&&,left,neutral,,,,,,,,,,,,,,,0,88,88,114,,,,,,,,,,,,,LDT,left,0.2836425483401399,,,,,,1,,,,,,,,,,,,,left,1,0.2836425483401399,,,,,,,1061,2019_Mar_13_1458,mf_amp_cond1,3.0.4,59.98155123116491,
myself,,&&&&&&,left,neutral,,,,,,,,,,,,,,,0,89,89,192,,,,,,,,,,,,,LDT,left,0.3669902875262778,,,,,,1,,,,,,,,,,,,,left,1,0.3669902875262778,,,,,,,1061,2019_Mar_13_1458,mf_amp_cond1,3.0.4,59.98155123116491,
suggists,,&&&&&&&&,right,nonword,,,,,,,,,,,,,,,0,90,90,136,,,,,,,,,,,,,LDT,right,0.43366039663669653,,,,,,1,,,,,,,,,,,,,right,1,0.43366039663669653,,,,,,,1061,2019_Mar_13_1458,mf_amp_cond1,3.0.4,59.98155123116491,
terrorist,,&&&&&&&&&,left,loyalty.vice,,,,,,,,,,,,,,,0,91,91,68,,,,,,,,,,,,,LDT,right,0.46702463703695685,,,,,,0,,,,,,,,,,,,,right,0,0.46702463703695685,,,,,,,1061,2019_Mar_13_1458,mf_amp_cond1,3.0.4,59.98155123116491,
useful,,&&&&&&,left,authority.virtue,,,,,,,,,,,,,,,0,92,92,199,,,,,,,,,,,,,LDT,right,0.5669637316023,,,,,,0,,,,,,,,,,,,,right,0,0.5669637316023,,,,,,,1061,2019_Mar_13_1458,mf_amp_cond1,3.0.4,59.98155123116491,
benefit,,&&&&&&&,left,fairness.virtue,,,,,,,,,,,,,,,0,93,93,40,,,,,,,,,,,,,LDT,left,0.7004171652661171,,,,,,1,,,,,,,,,,,,,left,1,0.7004171652661171,,,,,,,1061,2019_Mar_13_1458,mf_amp_cond1,3.0.4,59.98155123116491,
itself,,&&&&&&,left,neutral,,,,,,,,,,,,,,,0,94,94,167,,,,,,,,,,,,,LDT,right,0.6837414595356677,,,,,,0,,,,,,,,,,,,,right,0,0.6837414595356677,,,,,,,1061,2019_Mar_13_1458,mf_amp_cond1,3.0.4,59.98155123116491,
amount,,&&&&&&,left,neutral,,,,,,,,,,,,,,,0,95,95,117,,,,,,,,,,,,,LDT,left,0.3169708677160088,,,,,,1,,,,,,,,,,,,,left,1,0.3169708677160088,,,,,,,1061,2019_Mar_13_1458,mf_amp_cond1,3.0.4,59.98155123116491,
ablow,,&&&&&,right,nonword,,,,,,,,,,,,,,,0,96,96,26,,,,,,,,,,,,,LDT,left,0.2836091930803377,,,,,,0,,,,,,,,,,,,,left,0,0.2836091930803377,,,,,,,1061,2019_Mar_13_1458,mf_amp_cond1,3.0.4,59.98155123116491,
eight,,&&&&&,left,neutral,,,,,,,,,,,,,,,0,97,97,39,,,,,,,,,,,,,LDT,left,0.2336240907316096,,,,,,1,,,,,,,,,,,,,left,1,0.2336240907316096,,,,,,,1061,2019_Mar_13_1458,mf_amp_cond1,3.0.4,59.98155123116491,
nuckheap,,&&&&&&&&,right,nonword,,,,,,,,,,,,,,,0,98,98,170,,,,,,,,,,,,,LDT,left,0.4170109902333934,,,,,,0,,,,,,,,,,,,,left,0,0.4170109902333934,,,,,,,1061,2019_Mar_13_1458,mf_amp_cond1,3.0.4,59.98155123116491,
tomedians,,&&&&&&&&&,right,nonword,,,,,,,,,,,,,,,0,99,99,42,,,,,,,,,,,,,LDT,left,0.30030959454597905,,,,,,0,,,,,,,,,,,,,left,0,0.30030959454597905,,,,,,,1061,2019_Mar_13_1458,mf_amp_cond1,3.0.4,59.98155123116491,
civilians,,&&&&&&&&&,left,care.vice,,,,,,,,,,,,,,,0,100,100,125,,,,,,,,,,,,,LDT,left,0.40034586837282404,,,,,,1,,,,,,,,,,,,,left,1,0.40034586837282404,,,,,,,1061,2019_Mar_13_1458,mf_amp_cond1,3.0.4,59.98155123116491,
couldnt,,&&&&&&&,left,neutral,,,,,,,,,,,,,,,0,101,101,37,,,,,,,,,,,,,LDT,left,0.36699060825048946,,,,,,1,,,,,,,,,,,,,left,1,0.36699060825048946,,,,,,,1061,2019_Mar_13_1458,mf_amp_cond1,3.0.4,59.98155123116491,
whereafter,,&&&&&&&&&&,left,neutral,,,,,,,,,,,,,,,0,102,102,130,,,,,,,,,,,,,LDT,left,0.33366774121532217,,,,,,1,,,,,,,,,,,,,left,1,0.33366774121532217,,,,,,,1061,2019_Mar_13_1458,mf_amp_cond1,3.0.4,59.98155123116491,
framatic,,&&&&&&&&,right,nonword,,,,,,,,,,,,,,,0,103,103,81,,,,,,,,,,,,,LDT,right,0.4170058586751111,,,,,,1,,,,,,,,,,,,,right,1,0.4170058586751111,,,,,,,1061,2019_Mar_13_1458,mf_amp_cond1,3.0.4,59.98155123116491,
mih,,&&&,right,nonword,,,,,,,,,,,,,,,0,104,104,103,,,,,,,,,,,,,LDT,right,0.7004155616450589,,,,,,1,,,,,,,,,,,,,right,1,0.7004155616450589,,,,,,,1061,2019_Mar_13_1458,mf_amp_cond1,3.0.4,59.98155123116491,
betrayal,,&&&&&&&&,left,loyalty.vice,,,,,,,,,,,,,,,0,105,105,174,,,,,,,,,,,,,LDT,left,0.7837671494926326,,,,,,1,,,,,,,,,,,,,left,1,0.7837671494926326,,,,,,,1061,2019_Mar_13_1458,mf_amp_cond1,3.0.4,59.98155123116491,
party,,&&&&&,left,loyalty.virtue,,,,,,,,,,,,,,,0,106,106,0,,,,,,,,,,,,,LDT,right,0.7837633008311968,,,,,,0,,,,,,,,,,,,,right,0,0.7837633008311968,,,,,,,1061,2019_Mar_13_1458,mf_amp_cond1,3.0.4,59.98155123116491,
officers,,&&&&&&&&,left,authority.vice,,,,,,,,,,,,,,,0,107,107,100,,,,,,,,,,,,,LDT,left,0.4003179654246196,,,,,,1,,,,,,,,,,,,,left,1,0.4003179654246196,,,,,,,1061,2019_Mar_13_1458,mf_amp_cond1,3.0.4,59.98155123116491,
gusinesslike,,&&&&&&&&&&&&,right,nonword,,,,,,,,,,,,,,,0,108,108,4,,,,,,,,,,,,,LDT,right,0.31696669830125757,,,,,,1,,,,,,,,,,,,,right,1,0.31696669830125757,,,,,,,1061,2019_Mar_13_1458,mf_amp_cond1,3.0.4,59.98155123116491,
scandal,,&&&&&&&,left,sanctity.vice,,,,,,,,,,,,,,,0,109,109,147,,,,,,,,,,,,,LDT,left,0.4336748291971162,,,,,,1,,,,,,,,,,,,,left,1,0.4336748291971162,,,,,,,1061,2019_Mar_13_1458,mf_amp_cond1,3.0.4,59.98155123116491,
