words,nonwords,mask,corr_ans,category,tweets,topic,AMP_pracloop.thisRepN,AMP_pracloop.thisTrialN,AMP_pracloop.thisN,AMP_pracloop.thisIndex,AMP_trials.thisRepN,AMP_trials.thisTrialN,AMP_trials.thisN,AMP_trials.thisIndex,LDT_pracloop.thisRepN,LDT_pracloop.thisTrialN,LDT_pracloop.thisN,LDT_pracloop.thisIndex,LDT_trials.thisRepN,LDT_trials.thisTrialN,LDT_trials.thisN,LDT_trials.thisIndex,tweet_loop.thisRepN,tweet_loop.thisTrialN,tweet_loop.thisN,tweet_loop.thisIndex,begin_key.keys,begin_key.rt,key_resp_AMP_instr1.keys,key_resp_AMP_instr1.rt,resp_AMP_ready1.keys,resp_AMP_ready1.rt,resp_AMP_prac.keys,resp_AMP_prac.rt,task,keypress,RT,resp_AMP_ready.keys,resp_AMP_ready.rt,resp_AMP.keys,resp_AMP.corr,resp_AMP.rt,corr,AMP_nonword_rating.response,AMP_nonword_rating.rt,AMP_word_rating.response,AMP_word_rating.rt,AMP_random_rating.response,AMP_random_rating.rt,key_resp_LDT_instr.keys,key_resp_LDT_instr.rt,resp_LDT_prac.keys,resp_LDT_prac.rt,resp_LDT_ready.keys,resp_LDT_ready.rt,resp_LDT.keys,resp_LDT.corr,resp_LDT.rt,LDT_rating.response,LDT_rating.rt,key_resp_LDT_instr_2.keys,key_resp_LDT_instr_2.rt,resp_tweets.keys,resp_tweets.rt,participant,date,expName,psychopyVersion,frameRate,
,,,,,,,,,,,,,,,,,,,,,,,,,,,right,463.5460263284331,,,,,,,,,,,,,,,,,,,,,,,,,,,,,,,,,,,,,1063,2019_Mar_13_1500,mf_amp_cond1,3.0.4,59.9986530095063,
,,,,,,,,,,,,,,,,,,,,,,,,,,,,,right,0.08358760972623713,,,,,,,,,,,,,,,,,,,,,,,,,,,,,,,,,,,1063,2019_Mar_13_1500,mf_amp_cond1,3.0.4,59.9986530095063,
,,,,,,,,,,,,,,,,,,,,,,,,,,,,,,,right,2.267466496123234,,,,,,,,,,,,,,,,,,,,,,,,,,,,,,,,,1063,2019_Mar_13_1500,mf_amp_cond1,3.0.4,59.9986530095063,
car,cemtuper,&&&&&&&&,,,,,0,0,0,0,,,,,,,,,,,,,,,,,,,,,,,right,4.501328095793724,AMP_prac,right,4.501328095793724,,,,,,,,,,,,,,,,,,,,,,,,,,,,1063,2019_Mar_13_1500,mf_amp_cond1,3.0.4,59.9986530095063,
keyboard,senk,&&&&,,,,,0,1,1,2,,,,,,,,,,,,,,,,,,,,,,,right,2.484161311178468,AMP_prac,right,2.484161311178468,,,,,,,,,,,,,,,,,,,,,,,,,,,,1063,2019_Mar_13_1500,mf_amp_cond1,3.0.4,59.9986530095063,
banana,kacket,&&&&&&,,,,,0,2,2,1,,,,,,,,,,,,,,,,,,,,,,,right,2.334155762771843,AMP_prac,right,2.334155762771843,,,,,,,,,,,,,,,,,,,,,,,,,,,,1063,2019_Mar_13_1500,mf_amp_cond1,3.0.4,59.9986530095063,
scarf,bisebell,&&&&&&&&,,,,,0,3,3,3,,,,,,,,,,,,,,,,,,,,,,,right,2.0674057520227507,AMP_prac,right,2.0674057520227507,,,,,,,,,,,,,,,,,,,,,,,,,,,,1063,2019_Mar_13_1500,mf_amp_cond1,3.0.4,59.9986530095063,
,,,,,,,,,,,,,,,,,,,,,,,,,,,,,,,,,,,,,,right,1.2338760319689754,,,,,,,,,,,,,,,,,,,,,,,,,,1063,2019_Mar_13_1500,mf_amp_cond1,3.0.4,59.9986530095063,
police,synchronazers,&&&&&&&&&&&&&,right,authority.vice,,,,,,,0,0,0,0,,,,,,,,,,,,,,,,,,,,,AMP,right,1.0004759464063682,,,right,1,1.0004759464063682,1,,,,,,,,,,,,,,,,,,,,,,1063,2019_Mar_13_1500,mf_amp_cond1,3.0.4,59.9986530095063,
fear,quarterbocks,&&&&&&&&&&&&,right,sanctity.vice,,,,,,,0,1,1,1,,,,,,,,,,,,,,,,,,,,,AMP,left,0.8004289932141546,,,left,0,0.8004289932141546,0,,,,,,,,,,,,,,,,,,,,,,1063,2019_Mar_13_1500,mf_amp_cond1,3.0.4,59.9986530095063,
useful,brotesque,&&&&&&&&&,left,authority.virtue,,,,,,,0,2,2,2,,,,,,,,,,,,,,,,,,,,,AMP,right,0.6337200986163225,,,right,0,0.6337200986163225,0,,,,,,,,,,,,,,,,,,,,,,1063,2019_Mar_13_1500,mf_amp_cond1,3.0.4,59.9986530095063,
rejected,gondensed,&&&&&&&&&,right,authority.vice,,,,,,,0,3,3,3,,,,,,,,,,,,,,,,,,,,,AMP,right,0.800428672489943,,,right,1,0.800428672489943,1,,,,,,,,,,,,,,,,,,,,,,1063,2019_Mar_13_1500,mf_amp_cond1,3.0.4,59.9986530095063,
restore,baladroit,&&&&&&&&&,left,care.virtue,,,,,,,0,4,4,4,,,,,,,,,,,,,,,,,,,,,AMP,right,0.7504090766014997,,,right,0,0.7504090766014997,0,,,,,,,,,,,,,,,,,,,,,,1063,2019_Mar_13_1500,mf_amp_cond1,3.0.4,59.9986530095063,
ensure,gationwide,&&&&&&&&&&,left,fairness.virtue,,,,,,,0,5,5,5,,,,,,,,,,,,,,,,,,,,,AMP,right,0.4336846912628971,,,right,0,0.4336846912628971,0,,,,,,,,,,,,,,,,,,,,,,1063,2019_Mar_13_1500,mf_amp_cond1,3.0.4,59.9986530095063,
scandal,gillipede,&&&&&&&&&,right,sanctity.vice,,,,,,,0,6,6,6,,,,,,,,,,,,,,,,,,,,,AMP,left,0.6003733806137461,,,left,0,0.6003733806137461,0,,,,,,,,,,,,,,,,,,,,,,1063,2019_Mar_13_1500,mf_amp_cond1,3.0.4,59.9986530095063,
framatic,divility,&&&&&&&&,None,nonword,,,,,,,0,7,7,7,,,,,,,,,,,,,,,,,,,,,AMP,right,0.6503913729393389,,,right,0,0.6503913729393389,0,,,,,,,,,,,,,,,,,,,,,,1063,2019_Mar_13_1500,mf_amp_cond1,3.0.4,59.9986530095063,
killed,juck,&&&&,right,care.vice,,,,,,,0,8,8,8,,,,,,,,,,,,,,,,,,,,,AMP,left,0.5836985783826094,,,left,0,0.5836985783826094,0,,,,,,,,,,,,,,,,,,,,,,1063,2019_Mar_13_1500,mf_amp_cond1,3.0.4,59.9986530095063,
interests,seachwear,&&&&&&&&&,left,fairness.virtue,,,,,,,0,9,9,9,,,,,,,,,,,,,,,,,,,,,AMP,right,0.7003862735000439,,,right,0,0.7003862735000439,0,,,,,,,,,,,,,,,,,,,,,,1063,2019_Mar_13_1500,mf_amp_cond1,3.0.4,59.9986530095063,
help,pulge,&&&&&,left,care.virtue,,,,,,,0,10,10,10,,,,,,,,,,,,,,,,,,,,,AMP,right,0.40032033374882303,,,right,0,0.40032033374882303,0,,,,,,,,,,,,,,,,,,,,,,1063,2019_Mar_13_1500,mf_amp_cond1,3.0.4,59.9986530095063,
ability,clamorek,&&&&&&&&,left,authority.virtue,,,,,,,0,11,11,11,,,,,,,,,,,,,,,,,,,,,AMP,right,0.4336648067110218,,,right,0,0.4336648067110218,0,,,,,,,,,,,,,,,,,,,,,,1063,2019_Mar_13_1500,mf_amp_cond1,3.0.4,59.9986530095063,
officers,hatigue,&&&&&&&,right,authority.vice,,,,,,,0,12,12,12,,,,,,,,,,,,,,,,,,,,,AMP,right,0.6503888071747497,,,right,1,0.6503888071747497,1,,,,,,,,,,,,,,,,,,,,,,1063,2019_Mar_13_1500,mf_amp_cond1,3.0.4,59.9986530095063,
praise,carvels,&&&&&&&,left,authority.virtue,,,,,,,0,13,13,13,,,,,,,,,,,,,,,,,,,,,AMP,right,0.7670870860165451,,,right,0,0.7670870860165451,0,,,,,,,,,,,,,,,,,,,,,,1063,2019_Mar_13_1500,mf_amp_cond1,3.0.4,59.9986530095063,
charges,Loorish,&&&&&&&,right,fairness.vice,,,,,,,0,14,14,14,,,,,,,,,,,,,,,,,,,,,AMP,right,1.217213417054154,,,right,1,1.217213417054154,1,,,,,,,,,,,,,,,,,,,,,,1063,2019_Mar_13_1500,mf_amp_cond1,3.0.4,59.9986530095063,
credit,rorroborated,&&&&&&&&&&&&,left,fairness.virtue,,,,,,,0,15,15,15,,,,,,,,,,,,,,,,,,,,,AMP,right,0.5336735302698798,,,right,0,0.5336735302698798,0,,,,,,,,,,,,,,,,,,,,,,1063,2019_Mar_13_1500,mf_amp_cond1,3.0.4,59.9986530095063,
friends,pistraught,&&&&&&&&&&,left,loyalty.virtue,,,,,,,0,16,16,16,,,,,,,,,,,,,,,,,,,,,AMP,right,0.33364261299720965,,,right,0,0.33364261299720965,0,,,,,,,,,,,,,,,,,,,,,,1063,2019_Mar_13_1500,mf_amp_cond1,3.0.4,59.9986530095063,
blamed,lachelor,&&&&&&&&,right,loyalty.vice,,,,,,,0,17,17,17,,,,,,,,,,,,,,,,,,,,,AMP,left,1.1838477766723372,,,left,0,1.1838477766723372,0,,,,,,,,,,,,,,,,,,,,,,1063,2019_Mar_13_1500,mf_amp_cond1,3.0.4,59.9986530095063,
coom,sliptery,&&&&&&&&,None,nonword,,,,,,,0,18,18,18,,,,,,,,,,,,,,,,,,,,,AMP,right,2.7675758611876518,,,right,0,2.7675758611876518,0,,,,,,,,,,,,,,,,,,,,,,1063,2019_Mar_13_1500,mf_amp_cond1,3.0.4,59.9986530095063,
agreement,Boeinf,&&&&&&,left,fairness.virtue,,,,,,,0,19,19,19,,,,,,,,,,,,,,,,,,,,,AMP,right,0.13359084900002927,,,right,0,0.13359084900002927,0,,,,,,,,,,,,,,,,,,,,,,1063,2019_Mar_13_1500,mf_amp_cond1,3.0.4,59.9986530095063,
protesters,fonderland,&&&&&&&&&&,right,authority.vice,,,,,,,0,20,20,20,,,,,,,,,,,,,,,,,,,,,AMP,left,1.633970259106718,,,left,0,1.633970259106718,0,,,,,,,,,,,,,,,,,,,,,,1063,2019_Mar_13_1500,mf_amp_cond1,3.0.4,59.9986530095063,
accused,imebreaker,&&&&&&&&&&,right,fairness.vice,,,,,,,0,21,21,21,,,,,,,,,,,,,,,,,,,,,AMP,left,0.6503820720827207,,,left,0,0.6503820720827207,0,,,,,,,,,,,,,,,,,,,,,,1063,2019_Mar_13_1500,mf_amp_cond1,3.0.4,59.9986530095063,
sharing,chonograph,&&&&&&&&&&,left,loyalty.virtue,,,,,,,0,22,22,22,,,,,,,,,,,,,,,,,,,,,AMP,right,0.4003334832377732,,,right,0,0.4003334832377732,0,,,,,,,,,,,,,,,,,,,,,,1063,2019_Mar_13_1500,mf_amp_cond1,3.0.4,59.9986530095063,
failure,dormandi,&&&&&&&&,right,loyalty.vice,,,,,,,0,23,23,23,,,,,,,,,,,,,,,,,,,,,AMP,left,0.5336805860570166,,,left,0,0.5336805860570166,0,,,,,,,,,,,,,,,,,,,,,,1063,2019_Mar_13_1500,mf_amp_cond1,3.0.4,59.9986530095063,
Lacedonia,lempestuous,&&&&&&&&&&&,None,nonword,,,,,,,0,24,24,24,,,,,,,,,,,,,,,,,,,,,AMP,right,1.6173082856403198,,,right,0,1.6173082856403198,0,,,,,,,,,,,,,,,,,,,,,,1063,2019_Mar_13_1500,mf_amp_cond1,3.0.4,59.9986530095063,
voter,bruthfulness,&&&&&&&&&&&&,right,fairness.vice,,,,,,,0,25,25,25,,,,,,,,,,,,,,,,,,,,,AMP,right,1.4505817515018862,,,right,1,1.4505817515018862,1,,,,,,,,,,,,,,,,,,,,,,1063,2019_Mar_13_1500,mf_amp_cond1,3.0.4,59.9986530095063,
serial,smapper,&&&&&&&,right,sanctity.vice,,,,,,,0,26,26,26,,,,,,,,,,,,,,,,,,,,,AMP,left,1.7006745995313395,,,left,0,1.7006745995313395,0,,,,,,,,,,,,,,,,,,,,,,1063,2019_Mar_13_1500,mf_amp_cond1,3.0.4,59.9986530095063,
critics,troubla,&&&&&&&,right,loyalty.vice,,,,,,,0,27,27,27,,,,,,,,,,,,,,,,,,,,,AMP,left,0.5170179711421952,,,left,0,0.5170179711421952,0,,,,,,,,,,,,,,,,,,,,,,1063,2019_Mar_13_1500,mf_amp_cond1,3.0.4,59.9986530095063,
gun,taxpayung,&&&&&&&&&,right,authority.vice,,,,,,,0,28,28,28,,,,,,,,,,,,,,,,,,,,,AMP,right,1.233879239181988,,,right,1,1.233879239181988,1,,,,,,,,,,,,,,,,,,,,,,1063,2019_Mar_13_1500,mf_amp_cond1,3.0.4,59.9986530095063,
harassment,tabin,&&&&&,right,sanctity.vice,,,,,,,0,29,29,29,,,,,,,,,,,,,,,,,,,,,AMP,right,4.401304298458854,,,right,1,4.401304298458854,1,,,,,,,,,,,,,,,,,,,,,,1063,2019_Mar_13_1500,mf_amp_cond1,3.0.4,59.9986530095063,
crime,gournful,&&&&&&&&,right,fairness.vice,,,,,,,0,30,30,30,,,,,,,,,,,,,,,,,,,,,AMP,left,0.4170275285723619,,,left,0,0.4170275285723619,0,,,,,,,,,,,,,,,,,,,,,,1063,2019_Mar_13_1500,mf_amp_cond1,3.0.4,59.9986530095063,
mecan,lorthwhile,&&&&&&&&&&,None,nonword,,,,,,,0,31,31,31,,,,,,,,,,,,,,,,,,,,,AMP,right,1.8840252623776905,,,right,0,1.8840252623776905,0,,,,,,,,,,,,,,,,,,,,,,1063,2019_Mar_13_1500,mf_amp_cond1,3.0.4,59.9986530095063,
gandbrake,gazily,&&&&&&,None,nonword,,,,,,,0,32,32,32,,,,,,,,,,,,,,,,,,,,,AMP,left,1.5339349159330595,,,left,0,1.5339349159330595,0,,,,,,,,,,,,,,,,,,,,,,1063,2019_Mar_13_1500,mf_amp_cond1,3.0.4,59.9986530095063,
praised,hescribe,&&&&&&&&,left,loyalty.virtue,,,,,,,0,33,33,33,,,,,,,,,,,,,,,,,,,,,AMP,right,0.4170086061640177,,,right,0,0.4170086061640177,0,,,,,,,,,,,,,,,,,,,,,,1063,2019_Mar_13_1500,mf_amp_cond1,3.0.4,59.9986530095063,
values,prones,&&&&&&,left,sanctity.virtue,,,,,,,0,34,34,34,,,,,,,,,,,,,,,,,,,,,AMP,right,0.7502612253301777,,,right,0,0.7502612253301777,0,,,,,,,,,,,,,,,,,,,,,,1063,2019_Mar_13_1500,mf_amp_cond1,3.0.4,59.9986530095063,
injured,dramens,&&&&&&&,right,care.vice,,,,,,,0,35,35,35,,,,,,,,,,,,,,,,,,,,,AMP,left,0.917117650504224,,,left,0,0.917117650504224,0,,,,,,,,,,,,,,,,,,,,,,1063,2019_Mar_13_1500,mf_amp_cond1,3.0.4,59.9986530095063,
energy,elduringly,&&&&&&&&&&,left,sanctity.virtue,,,,,,,0,36,36,36,,,,,,,,,,,,,,,,,,,,,AMP,right,1.1505260747508146,,,right,0,1.1505260747508146,0,,,,,,,,,,,,,,,,,,,,,,1063,2019_Mar_13_1500,mf_amp_cond1,3.0.4,59.9986530095063,
strength,oam,&&&,left,sanctity.virtue,,,,,,,0,37,37,37,,,,,,,,,,,,,,,,,,,,,AMP,right,0.917125347739784,,,right,0,0.917125347739784,0,,,,,,,,,,,,,,,,,,,,,,1063,2019_Mar_13_1500,mf_amp_cond1,3.0.4,59.9986530095063,
peaceful,menizen,&&&&&&&,left,authority.virtue,,,,,,,0,38,38,38,,,,,,,,,,,,,,,,,,,,,AMP,right,0.4503601349424571,,,right,0,0.4503601349424571,0,,,,,,,,,,,,,,,,,,,,,,1063,2019_Mar_13_1500,mf_amp_cond1,3.0.4,59.9986530095063,
pafer,blunderints,&&&&&&&&&&&,None,nonword,,,,,,,0,39,39,39,,,,,,,,,,,,,,,,,,,,,AMP,left,3.2343593549448997,,,left,0,3.2343593549448997,0,,,,,,,,,,,,,,,,,,,,,,1063,2019_Mar_13_1500,mf_amp_cond1,3.0.4,59.9986530095063,
clean,wonderfujnoss,&&&&&&&&&&&&&,left,sanctity.virtue,,,,,,,0,40,40,40,,,,,,,,,,,,,,,,,,,,,AMP,right,0.4003373318410013,,,right,0,0.4003373318410013,0,,,,,,,,,,,,,,,,,,,,,,1063,2019_Mar_13_1500,mf_amp_cond1,3.0.4,59.9986530095063,
arrests,mightingale,&&&&&&&&&&&,right,authority.vice,,,,,,,0,41,41,41,,,,,,,,,,,,,,,,,,,,,AMP,left,0.5337145822413731,,,left,0,0.5337145822413731,0,,,,,,,,,,,,,,,,,,,,,,1063,2019_Mar_13_1500,mf_amp_cond1,3.0.4,59.9986530095063,
increase,lenon,&&&&&,left,care.virtue,,,,,,,0,42,42,42,,,,,,,,,,,,,,,,,,,,,AMP,right,0.8169569063466042,,,right,0,0.8169569063466042,0,,,,,,,,,,,,,,,,,,,,,,1063,2019_Mar_13_1500,mf_amp_cond1,3.0.4,59.9986530095063,
slavery,egpeditious,&&&&&&&&&&&,right,loyalty.vice,,,,,,,0,43,43,43,,,,,,,,,,,,,,,,,,,,,AMP,left,0.4670221084088553,,,left,0,0.4670221084088553,0,,,,,,,,,,,,,,,,,,,,,,1063,2019_Mar_13_1500,mf_amp_cond1,3.0.4,59.9986530095063,
fraud,glacenta,&&&&&&&&,right,fairness.vice,,,,,,,0,44,44,44,,,,,,,,,,,,,,,,,,,,,AMP,left,0.35030458646360785,,,left,0,0.35030458646360785,0,,,,,,,,,,,,,,,,,,,,,,1063,2019_Mar_13_1500,mf_amp_cond1,3.0.4,59.9986530095063,
peace,suggists,&&&&&&&&,left,care.virtue,,,,,,,0,45,45,45,,,,,,,,,,,,,,,,,,,,,AMP,right,0.5003563184000086,,,right,0,0.5003563184000086,0,,,,,,,,,,,,,,,,,,,,,,1063,2019_Mar_13_1500,mf_amp_cond1,3.0.4,59.9986530095063,
black,ittutable,&&&&&&&&&,right,loyalty.vice,,,,,,,0,46,46,46,,,,,,,,,,,,,,,,,,,,,AMP,right,1.1171748666965868,,,right,1,1.1171748666965868,1,,,,,,,,,,,,,,,,,,,,,,1063,2019_Mar_13_1500,mf_amp_cond1,3.0.4,59.9986530095063,
care,sgrawl,&&&&&&,left,care.virtue,,,,,,,0,47,47,47,,,,,,,,,,,,,,,,,,,,,AMP,right,0.6504721940145828,,,right,0,0.6504721940145828,0,,,,,,,,,,,,,,,,,,,,,,1063,2019_Mar_13_1500,mf_amp_cond1,3.0.4,59.9986530095063,
corruption,dumid,&&&&&,right,sanctity.vice,,,,,,,0,48,48,48,,,,,,,,,,,,,,,,,,,,,AMP,left,0.81709930539364,,,left,0,0.81709930539364,0,,,,,,,,,,,,,,,,,,,,,,1063,2019_Mar_13_1500,mf_amp_cond1,3.0.4,59.9986530095063,
commitment,allears,&&&&&&&,left,sanctity.virtue,,,,,,,0,49,49,49,,,,,,,,,,,,,,,,,,,,,AMP,right,0.4336667310271878,,,right,0,0.4336667310271878,0,,,,,,,,,,,,,,,,,,,,,,1063,2019_Mar_13_1500,mf_amp_cond1,3.0.4,59.9986530095063,
intelligence,faspberry,&&&&&&&&&,left,loyalty.virtue,,,,,,,0,50,50,50,,,,,,,,,,,,,,,,,,,,,AMP,right,2.834277956542792,,,right,0,2.834277956542792,0,,,,,,,,,,,,,,,,,,,,,,1063,2019_Mar_13_1500,mf_amp_cond1,3.0.4,59.9986530095063,
actively,nomparisons,&&&&&&&&&&&,left,authority.virtue,,,,,,,0,51,51,51,,,,,,,,,,,,,,,,,,,,,AMP,right,1.1338438959792256,,,right,0,1.1338438959792256,0,,,,,,,,,,,,,,,,,,,,,,1063,2019_Mar_13_1500,mf_amp_cond1,3.0.4,59.9986530095063,
integrity,feleological,&&&&&&&&&&&&,left,fairness.virtue,,,,,,,0,52,52,52,,,,,,,,,,,,,,,,,,,,,AMP,right,0.4003466326976195,,,right,0,0.4003466326976195,0,,,,,,,,,,,,,,,,,,,,,,1063,2019_Mar_13_1500,mf_amp_cond1,3.0.4,59.9986530095063,
violence,ejanulated,&&&&&&&&&&,right,care.vice,,,,,,,0,53,53,53,,,,,,,,,,,,,,,,,,,,,AMP,left,2.25078111019684,,,left,0,2.25078111019684,0,,,,,,,,,,,,,,,,,,,,,,1063,2019_Mar_13_1500,mf_amp_cond1,3.0.4,59.9986530095063,
army,galamitous,&&&&&&&&&&,right,loyalty.vice,,,,,,,0,54,54,54,,,,,,,,,,,,,,,,,,,,,AMP,right,0.6670806074980646,,,right,1,0.6670806074980646,1,,,,,,,,,,,,,,,,,,,,,,1063,2019_Mar_13_1500,mf_amp_cond1,3.0.4,59.9986530095063,
promote,saned,&&&&&,left,sanctity.virtue,,,,,,,0,55,55,55,,,,,,,,,,,,,,,,,,,,,AMP,right,1.0671748346067034,,,right,0,1.0671748346067034,0,,,,,,,,,,,,,,,,,,,,,,1063,2019_Mar_13_1500,mf_amp_cond1,3.0.4,59.9986530095063,
drug,counpy's,&&&&&&&&,right,sanctity.vice,,,,,,,0,56,56,56,,,,,,,,,,,,,,,,,,,,,AMP,left,2.0340539025200997,,,left,0,2.0340539025200997,0,,,,,,,,,,,,,,,,,,,,,,1063,2019_Mar_13_1500,mf_amp_cond1,3.0.4,59.9986530095063,
conspiracy,metibolic,&&&&&&&&&,right,sanctity.vice,,,,,,,0,57,57,57,,,,,,,,,,,,,,,,,,,,,AMP,right,0.933789245551452,,,right,1,0.933789245551452,1,,,,,,,,,,,,,,,,,,,,,,1063,2019_Mar_13_1500,mf_amp_cond1,3.0.4,59.9986530095063,
support,ecgagement,&&&&&&&&&&,left,loyalty.virtue,,,,,,,0,58,58,58,,,,,,,,,,,,,,,,,,,,,AMP,right,1.0171536351263057,,,right,0,1.0171536351263057,0,,,,,,,,,,,,,,,,,,,,,,1063,2019_Mar_13_1500,mf_amp_cond1,3.0.4,59.9986530095063,
unpleasant,nuckheap,&&&&&&&&,None,control,,,,,,,0,59,59,59,,,,,,,,,,,,,,,,,,,,,AMP,left,0.5337030363734812,,,left,0,0.5337030363734812,0,,,,,,,,,,,,,,,,,,,,,,1063,2019_Mar_13_1500,mf_amp_cond1,3.0.4,59.9986530095063,
opportunity,simplustic,&&&&&&&&&&,left,fairness.virtue,,,,,,,0,60,60,60,,,,,,,,,,,,,,,,,,,,,AMP,right,1.7673122304840945,,,right,0,1.7673122304840945,0,,,,,,,,,,,,,,,,,,,,,,1063,2019_Mar_13_1500,mf_amp_cond1,3.0.4,59.9986530095063,
prison,pharing,&&&&&&&,right,fairness.vice,,,,,,,0,61,61,61,,,,,,,,,,,,,,,,,,,,,AMP,left,1.2505482684937306,,,left,0,1.2505482684937306,0,,,,,,,,,,,,,,,,,,,,,,1063,2019_Mar_13_1500,mf_amp_cond1,3.0.4,59.9986530095063,
nomaric,shoirmaster,&&&&&&&&&&&,None,nonword,,,,,,,0,62,62,62,,,,,,,,,,,,,,,,,,,,,AMP,right,3.1676845206529833,,,right,0,3.1676845206529833,0,,,,,,,,,,,,,,,,,,,,,,1063,2019_Mar_13_1500,mf_amp_cond1,3.0.4,59.9986530095063,
pleasant,mih,&&&,None,control,,,,,,,0,63,63,63,,,,,,,,,,,,,,,,,,,,,AMP,right,1.367223776265746,,,right,0,1.367223776265746,0,,,,,,,,,,,,,,,,,,,,,,1063,2019_Mar_13_1500,mf_amp_cond1,3.0.4,59.9986530095063,
refused,erdest,&&&&&&,right,authority.vice,,,,,,,0,64,64,64,,,,,,,,,,,,,,,,,,,,,AMP,left,0.7004007058276329,,,left,0,0.7004007058276329,0,,,,,,,,,,,,,,,,,,,,,,1063,2019_Mar_13_1500,mf_amp_cond1,3.0.4,59.9986530095063,
hand,crinking,&&&&&&&&,left,sanctity.virtue,,,,,,,0,65,65,65,,,,,,,,,,,,,,,,,,,,,AMP,right,0.4670121661329176,,,right,0,0.4670121661329176,0,,,,,,,,,,,,,,,,,,,,,,1063,2019_Mar_13_1500,mf_amp_cond1,3.0.4,59.9986530095063,
improve,alar,&&&&,left,care.virtue,,,,,,,0,66,66,66,,,,,,,,,,,,,,,,,,,,,AMP,right,0.6003711356024724,,,right,0,0.6003711356024724,0,,,,,,,,,,,,,,,,,,,,,,1063,2019_Mar_13_1500,mf_amp_cond1,3.0.4,59.9986530095063,
tomedians,hasks,&&&&&,None,nonword,,,,,,,0,67,67,67,,,,,,,,,,,,,,,,,,,,,AMP,left,3.201010071206838,,,left,0,3.201010071206838,0,,,,,,,,,,,,,,,,,,,,,,1063,2019_Mar_13_1500,mf_amp_cond1,3.0.4,59.9986530095063,
sickyay,bycled,&&&&&&,None,nonword,,,,,,,0,68,68,68,,,,,,,,,,,,,,,,,,,,,AMP,left,0.6504006737668533,,,left,0,0.6504006737668533,0,,,,,,,,,,,,,,,,,,,,,,1063,2019_Mar_13_1500,mf_amp_cond1,3.0.4,59.9986530095063,
powerful,honstables,&&&&&&&&&&,left,authority.virtue,,,,,,,0,69,69,69,,,,,,,,,,,,,,,,,,,,,AMP,right,0.35032447101548314,,,right,0,0.35032447101548314,0,,,,,,,,,,,,,,,,,,,,,,1063,2019_Mar_13_1500,mf_amp_cond1,3.0.4,59.9986530095063,
safe,refuejing,&&&&&&&&&,left,care.virtue,,,,,,,0,70,70,70,,,,,,,,,,,,,,,,,,,,,AMP,right,0.25030676735332236,,,right,0,0.25030676735332236,0,,,,,,,,,,,,,,,,,,,,,,1063,2019_Mar_13_1500,mf_amp_cond1,3.0.4,59.9986530095063,
died,asn,&&&,right,care.vice,,,,,,,0,71,71,71,,,,,,,,,,,,,,,,,,,,,AMP,left,0.41701213404303417,,,left,0,0.41701213404303417,0,,,,,,,,,,,,,,,,,,,,,,1063,2019_Mar_13_1500,mf_amp_cond1,3.0.4,59.9986530095063,
death,fangsters,&&&&&&&&&,right,care.vice,,,,,,,0,72,72,72,,,,,,,,,,,,,,,,,,,,,AMP,left,0.4003354075248353,,,left,0,0.4003354075248353,0,,,,,,,,,,,,,,,,,,,,,,1063,2019_Mar_13_1500,mf_amp_cond1,3.0.4,59.9986530095063,
festate,neneficence,&&&&&&&&&&&,None,nonword,,,,,,,0,73,73,73,,,,,,,,,,,,,,,,,,,,,AMP,right,1.6006578580418136,,,right,0,1.6006578580418136,0,,,,,,,,,,,,,,,,,,,,,,1063,2019_Mar_13_1500,mf_amp_cond1,3.0.4,59.9986530095063,
illegal,sowntrodden,&&&&&&&&&&&,right,fairness.vice,,,,,,,0,74,74,74,,,,,,,,,,,,,,,,,,,,,AMP,left,0.5003508661466185,,,left,0,0.5003508661466185,0,,,,,,,,,,,,,,,,,,,,,,1063,2019_Mar_13_1500,mf_amp_cond1,3.0.4,59.9986530095063,
promised,touls,&&&&&,left,loyalty.virtue,,,,,,,0,75,75,75,,,,,,,,,,,,,,,,,,,,,AMP,right,0.500358884135494,,,right,0,0.500358884135494,0,,,,,,,,,,,,,,,,,,,,,,1063,2019_Mar_13_1500,mf_amp_cond1,3.0.4,59.9986530095063,
embrace,ilportation,&&&&&&&&&&&,left,authority.virtue,,,,,,,0,76,76,76,,,,,,,,,,,,,,,,,,,,,AMP,right,1.467254629387753,,,right,0,1.467254629387753,0,,,,,,,,,,,,,,,,,,,,,,1063,2019_Mar_13_1500,mf_amp_cond1,3.0.4,59.9986530095063,
promises,leact,&&&&&,left,fairness.virtue,,,,,,,0,77,77,77,,,,,,,,,,,,,,,,,,,,,AMP,right,1.2338702590495814,,,right,0,1.2338702590495814,0,,,,,,,,,,,,,,,,,,,,,,1063,2019_Mar_13_1500,mf_amp_cond1,3.0.4,59.9986530095063,
attacks,greaks,&&&&&&,right,care.vice,,,,,,,0,78,78,78,,,,,,,,,,,,,,,,,,,,,AMP,left,2.634207270195475,,,left,0,2.634207270195475,0,,,,,,,,,,,,,,,,,,,,,,1063,2019_Mar_13_1500,mf_amp_cond1,3.0.4,59.9986530095063,
suicide,gusinesslike,&&&&&&&&&&&&,right,care.vice,,,,,,,0,79,79,79,,,,,,,,,,,,,,,,,,,,,AMP,left,1.567137631267542,,,left,0,1.567137631267542,0,,,,,,,,,,,,,,,,,,,,,,1063,2019_Mar_13_1500,mf_amp_cond1,3.0.4,59.9986530095063,
love,crilfully,&&&&&&&&&,left,loyalty.virtue,,,,,,,0,80,80,80,,,,,,,,,,,,,,,,,,,,,AMP,right,0.4837030043127015,,,right,0,0.4837030043127015,0,,,,,,,,,,,,,,,,,,,,,,1063,2019_Mar_13_1500,mf_amp_cond1,3.0.4,59.9986530095063,
betrayal,erks,&&&&,right,loyalty.vice,,,,,,,0,81,81,81,,,,,,,,,,,,,,,,,,,,,AMP,left,1.5506106803077273,,,left,0,1.5506106803077273,0,,,,,,,,,,,,,,,,,,,,,,1063,2019_Mar_13_1500,mf_amp_cond1,3.0.4,59.9986530095063,
arrests,rorroborated,&&&&&&&&&&&&,right,authority.vice,,,,,,,0,82,82,82,,,,,,,,,,,,,,,,,,,,,AMP,left,1.3505691793398,,,left,0,1.3505691793398,0,,,,,,,,,,,,,,,,,,,,,,1063,2019_Mar_13_1500,mf_amp_cond1,3.0.4,59.9986530095063,
failure,dumid,&&&&&,right,loyalty.vice,,,,,,,0,83,83,83,,,,,,,,,,,,,,,,,,,,,AMP,left,2.4341478089336306,,,left,0,2.4341478089336306,0,,,,,,,,,,,,,,,,,,,,,,1063,2019_Mar_13_1500,mf_amp_cond1,3.0.4,59.9986530095063,
corruption,mih,&&&,right,sanctity.vice,,,,,,,0,84,84,84,,,,,,,,,,,,,,,,,,,,,AMP,left,0.6337200985872187,,,left,0,0.6337200985872187,0,,,,,,,,,,,,,,,,,,,,,,1063,2019_Mar_13_1500,mf_amp_cond1,3.0.4,59.9986530095063,
killed,hasks,&&&&&,right,care.vice,,,,,,,0,85,85,85,,,,,,,,,,,,,,,,,,,,,AMP,left,0.36697457791888155,,,left,0,0.36697457791888155,0,,,,,,,,,,,,,,,,,,,,,,1063,2019_Mar_13_1500,mf_amp_cond1,3.0.4,59.9986530095063,
praise,fangsters,&&&&&&&&&,left,authority.virtue,,,,,,,0,86,86,86,,,,,,,,,,,,,,,,,,,,,AMP,right,0.3003023093624506,,,right,0,0.3003023093624506,0,,,,,,,,,,,,,,,,,,,,,,1063,2019_Mar_13_1500,mf_amp_cond1,3.0.4,59.9986530095063,
restore,sgrawl,&&&&&&,left,care.virtue,,,,,,,0,87,87,87,,,,,,,,,,,,,,,,,,,,,AMP,right,3.4010878133994993,,,right,0,3.4010878133994993,0,,,,,,,,,,,,,,,,,,,,,,1063,2019_Mar_13_1500,mf_amp_cond1,3.0.4,59.9986530095063,
officers,crilfully,&&&&&&&&&,right,authority.vice,,,,,,,0,88,88,88,,,,,,,,,,,,,,,,,,,,,AMP,right,4.78472372336546,,,right,1,4.78472372336546,1,,,,,,,,,,,,,,,,,,,,,,1063,2019_Mar_13_1500,mf_amp_cond1,3.0.4,59.9986530095063,
help,neneficence,&&&&&&&&&&&,left,care.virtue,,,,,,,0,89,89,89,,,,,,,,,,,,,,,,,,,,,AMP,right,0.18362167006125674,,,right,0,0.18362167006125674,0,,,,,,,,,,,,,,,,,,,,,,1063,2019_Mar_13_1500,mf_amp_cond1,3.0.4,59.9986530095063,
illegal,dormandi,&&&&&&&&,right,fairness.vice,,,,,,,0,90,90,90,,,,,,,,,,,,,,,,,,,,,AMP,left,0.2336255507543683,,,left,0,0.2336255507543683,0,,,,,,,,,,,,,,,,,,,,,,1063,2019_Mar_13_1500,mf_amp_cond1,3.0.4,59.9986530095063,
interests,pharing,&&&&&&&,left,fairness.virtue,,,,,,,0,91,91,91,,,,,,,,,,,,,,,,,,,,,AMP,right,1.1171854504209477,,,right,0,1.1171854504209477,0,,,,,,,,,,,,,,,,,,,,,,1063,2019_Mar_13_1500,mf_amp_cond1,3.0.4,59.9986530095063,
died,simplustic,&&&&&&&&&&,right,care.vice,,,,,,,0,92,92,92,,,,,,,,,,,,,,,,,,,,,AMP,left,0.7003958950808737,,,left,0,0.7003958950808737,0,,,,,,,,,,,,,,,,,,,,,,1063,2019_Mar_13_1500,mf_amp_cond1,3.0.4,59.9986530095063,
police,galamitous,&&&&&&&&&&,right,authority.vice,,,,,,,0,93,93,93,,,,,,,,,,,,,,,,,,,,,AMP,right,0.7170678107941058,,,right,1,0.7170678107941058,1,,,,,,,,,,,,,,,,,,,,,,1063,2019_Mar_13_1500,mf_amp_cond1,3.0.4,59.9986530095063,
slavery,allears,&&&&&&&,right,loyalty.vice,,,,,,,0,94,94,94,,,,,,,,,,,,,,,,,,,,,AMP,left,0.43366993821109645,,,left,0,0.43366993821109645,0,,,,,,,,,,,,,,,,,,,,,,1063,2019_Mar_13_1500,mf_amp_cond1,3.0.4,59.9986530095063,
gun,synchronazers,&&&&&&&&&&&&&,right,authority.vice,,,,,,,0,95,95,95,,,,,,,,,,,,,,,,,,,,,AMP,right,0.5171061687869951,,,right,1,0.5171061687869951,1,,,,,,,,,,,,,,,,,,,,,,1063,2019_Mar_13_1500,mf_amp_cond1,3.0.4,59.9986530095063,
injured,pistraught,&&&&&&&&&&,right,care.vice,,,,,,,0,96,96,96,,,,,,,,,,,,,,,,,,,,,AMP,left,0.4836927412834484,,,left,0,0.4836927412834484,0,,,,,,,,,,,,,,,,,,,,,,1063,2019_Mar_13_1500,mf_amp_cond1,3.0.4,59.9986530095063,
fear,bruthfulness,&&&&&&&&&&&&,right,sanctity.vice,,,,,,,0,97,97,97,,,,,,,,,,,,,,,,,,,,,AMP,left,0.5003556769515853,,,left,0,0.5003556769515853,0,,,,,,,,,,,,,,,,,,,,,,1063,2019_Mar_13_1500,mf_amp_cond1,3.0.4,59.9986530095063,
useful,oam,&&&,left,authority.virtue,,,,,,,0,98,98,98,,,,,,,,,,,,,,,,,,,,,AMP,right,0.3336592903651763,,,right,0,0.3336592903651763,0,,,,,,,,,,,,,,,,,,,,,,1063,2019_Mar_13_1500,mf_amp_cond1,3.0.4,59.9986530095063,
energy,gusinesslike,&&&&&&&&&&&&,left,sanctity.virtue,,,,,,,0,99,99,99,,,,,,,,,,,,,,,,,,,,,AMP,right,0.41701405838830397,,,right,0,0.41701405838830397,0,,,,,,,,,,,,,,,,,,,,,,1063,2019_Mar_13_1500,mf_amp_cond1,3.0.4,59.9986530095063,
refused,glacenta,&&&&&&&&,right,authority.vice,,,,,,,0,100,100,100,,,,,,,,,,,,,,,,,,,,,AMP,left,0.9004845416930038,,,left,0,0.9004845416930038,0,,,,,,,,,,,,,,,,,,,,,,1063,2019_Mar_13_1500,mf_amp_cond1,3.0.4,59.9986530095063,
harassment,baladroit,&&&&&&&&&,right,sanctity.vice,,,,,,,0,101,101,101,,,,,,,,,,,,,,,,,,,,,AMP,left,1.8006813987740315,,,left,0,1.8006813987740315,0,,,,,,,,,,,,,,,,,,,,,,1063,2019_Mar_13_1500,mf_amp_cond1,3.0.4,59.9986530095063,
conspiracy,gournful,&&&&&&&&,right,sanctity.vice,,,,,,,0,102,102,102,,,,,,,,,,,,,,,,,,,,,AMP,right,0.750422226061346,,,right,1,0.750422226061346,1,,,,,,,,,,,,,,,,,,,,,,1063,2019_Mar_13_1500,mf_amp_cond1,3.0.4,59.9986530095063,
love,greaks,&&&&&&,left,loyalty.virtue,,,,,,,0,103,103,103,,,,,,,,,,,,,,,,,,,,,AMP,right,0.500362732767826,,,right,0,0.500362732767826,0,,,,,,,,,,,,,,,,,,,,,,1063,2019_Mar_13_1500,mf_amp_cond1,3.0.4,59.9986530095063,
protesters,carvels,&&&&&&&,right,authority.vice,,,,,,,0,104,104,104,,,,,,,,,,,,,,,,,,,,,AMP,right,1.6839757434208877,,,right,1,1.6839757434208877,1,,,,,,,,,,,,,,,,,,,,,,1063,2019_Mar_13_1500,mf_amp_cond1,3.0.4,59.9986530095063,
integrity,egpeditious,&&&&&&&&&&&,left,fairness.virtue,,,,,,,0,105,105,105,,,,,,,,,,,,,,,,,,,,,AMP,left,1.1171912233403418,,,left,1,1.1171912233403418,1,,,,,,,,,,,,,,,,,,,,,,1063,2019_Mar_13_1500,mf_amp_cond1,3.0.4,59.9986530095063,
friends,seachwear,&&&&&&&&&,left,loyalty.virtue,,,,,,,0,106,106,106,,,,,,,,,,,,,,,,,,,,,AMP,right,0.3670018390112091,,,right,0,0.3670018390112091,0,,,,,,,,,,,,,,,,,,,,,,1063,2019_Mar_13_1500,mf_amp_cond1,3.0.4,59.9986530095063,
death,divility,&&&&&&&&,right,care.vice,,,,,,,0,107,107,107,,,,,,,,,,,,,,,,,,,,,AMP,left,0.18361974574509077,,,left,0,0.18361974574509077,0,,,,,,,,,,,,,,,,,,,,,,1063,2019_Mar_13_1500,mf_amp_cond1,3.0.4,59.9986530095063,
embrace,alar,&&&&,left,authority.virtue,,,,,,,0,108,108,108,,,,,,,,,,,,,,,,,,,,,AMP,right,3.267563994595548,,,right,0,3.267563994595548,0,,,,,,,,,,,,,,,,,,,,,,1063,2019_Mar_13_1500,mf_amp_cond1,3.0.4,59.9986530095063,
drug,bycled,&&&&&&,right,sanctity.vice,,,,,,,0,109,109,109,,,,,,,,,,,,,,,,,,,,,AMP,left,0.4336984821711667,,,left,0,0.4336984821711667,0,,,,,,,,,,,,,,,,,,,,,,1063,2019_Mar_13_1500,mf_amp_cond1,3.0.4,59.9986530095063,
blamed,brotesque,&&&&&&&&&,right,loyalty.vice,,,,,,,0,110,110,110,,,,,,,,,,,,,,,,,,,,,AMP,left,1.3505810459319036,,,left,0,1.3505810459319036,0,,,,,,,,,,,,,,,,,,,,,,1063,2019_Mar_13_1500,mf_amp_cond1,3.0.4,59.9986530095063,
sickyay,blunderints,&&&&&&&&&&&,None,nonword,,,,,,,0,111,111,111,,,,,,,,,,,,,,,,,,,,,AMP,right,1.2338654482737184,,,right,0,1.2338654482737184,0,,,,,,,,,,,,,,,,,,,,,,1063,2019_Mar_13_1500,mf_amp_cond1,3.0.4,59.9986530095063,
fraud,mightingale,&&&&&&&&&&&,right,fairness.vice,,,,,,,0,112,112,112,,,,,,,,,,,,,,,,,,,,,AMP,left,3.1343515935586765,,,left,0,3.1343515935586765,0,,,,,,,,,,,,,,,,,,,,,,1063,2019_Mar_13_1500,mf_amp_cond1,3.0.4,59.9986530095063,
strength,dramens,&&&&&&&,left,sanctity.virtue,,,,,,,0,113,113,113,,,,,,,,,,,,,,,,,,,,,AMP,right,0.400328993157018,,,right,0,0.400328993157018,0,,,,,,,,,,,,,,,,,,,,,,1063,2019_Mar_13_1500,mf_amp_cond1,3.0.4,59.9986530095063,
critics,chonograph,&&&&&&&&&&,right,loyalty.vice,,,,,,,0,114,114,114,,,,,,,,,,,,,,,,,,,,,AMP,right,1.0671552708081435,,,right,1,1.0671552708081435,1,,,,,,,,,,,,,,,,,,,,,,1063,2019_Mar_13_1500,mf_amp_cond1,3.0.4,59.9986530095063,
framatic,suggists,&&&&&&&&,None,nonword,,,,,,,0,115,115,115,,,,,,,,,,,,,,,,,,,,,AMP,right,0.8671156940981746,,,right,0,0.8671156940981746,0,,,,,,,,,,,,,,,,,,,,,,1063,2019_Mar_13_1500,mf_amp_cond1,3.0.4,59.9986530095063,
army,taxpayung,&&&&&&&&&,right,loyalty.vice,,,,,,,0,116,116,116,,,,,,,,,,,,,,,,,,,,,AMP,right,0.4336638445383869,,,right,1,0.4336638445383869,1,,,,,,,,,,,,,,,,,,,,,,1063,2019_Mar_13_1500,mf_amp_cond1,3.0.4,59.9986530095063,
sharing,elduringly,&&&&&&&&&&,left,loyalty.virtue,,,,,,,0,117,117,117,,,,,,,,,,,,,,,,,,,,,AMP,right,0.2669751552166417,,,right,0,0.2669751552166417,0,,,,,,,,,,,,,,,,,,,,,,1063,2019_Mar_13_1500,mf_amp_cond1,3.0.4,59.9986530095063,
mecan,gillipede,&&&&&&&&&,None,nonword,,,,,,,0,118,118,118,,,,,,,,,,,,,,,,,,,,,AMP,left,0.9004669021524023,,,left,0,0.9004669021524023,0,,,,,,,,,,,,,,,,,,,,,,1063,2019_Mar_13_1500,mf_amp_cond1,3.0.4,59.9986530095063,
powerful,lorthwhile,&&&&&&&&&&,left,authority.virtue,,,,,,,0,119,119,119,,,,,,,,,,,,,,,,,,,,,AMP,right,0.7170806395588443,,,right,0,0.7170806395588443,0,,,,,,,,,,,,,,,,,,,,,,1063,2019_Mar_13_1500,mf_amp_cond1,3.0.4,59.9986530095063,
clean,honstables,&&&&&&&&&&,left,sanctity.virtue,,,,,,,0,120,120,120,,,,,,,,,,,,,,,,,,,,,AMP,right,0.70037857623538,,,right,0,0.70037857623538,0,,,,,,,,,,,,,,,,,,,,,,1063,2019_Mar_13_1500,mf_amp_cond1,3.0.4,59.9986530095063,
peace,asn,&&&,left,care.virtue,,,,,,,0,121,121,121,,,,,,,,,,,,,,,,,,,,,AMP,right,0.6003778706945013,,,right,0,0.6003778706945013,0,,,,,,,,,,,,,,,,,,,,,,1063,2019_Mar_13_1500,mf_amp_cond1,3.0.4,59.9986530095063,
values,Loorish,&&&&&&&,left,sanctity.virtue,,,,,,,0,122,122,122,,,,,,,,,,,,,,,,,,,,,AMP,right,0.4503453818615526,,,right,0,0.4503453818615526,0,,,,,,,,,,,,,,,,,,,,,,1063,2019_Mar_13_1500,mf_amp_cond1,3.0.4,59.9986530095063,
coom,ittutable,&&&&&&&&&,None,nonword,,,,,,,0,123,123,123,,,,,,,,,,,,,,,,,,,,,AMP,left,3.434386423585238,,,left,0,3.434386423585238,0,,,,,,,,,,,,,,,,,,,,,,1063,2019_Mar_13_1500,mf_amp_cond1,3.0.4,59.9986530095063,
Lacedonia,Boeinf,&&&&&&,None,nonword,,,,,,,0,124,124,124,,,,,,,,,,,,,,,,,,,,,AMP,left,1.7673417365876958,,,left,0,1.7673417365876958,0,,,,,,,,,,,,,,,,,,,,,,1063,2019_Mar_13_1500,mf_amp_cond1,3.0.4,59.9986530095063,
hand,crinking,&&&&&&&&,left,sanctity.virtue,,,,,,,0,125,125,125,,,,,,,,,,,,,,,,,,,,,AMP,right,2.8009097504254896,,,right,0,2.8009097504254896,0,,,,,,,,,,,,,,,,,,,,,,1063,2019_Mar_13_1500,mf_amp_cond1,3.0.4,59.9986530095063,
rejected,counpy's,&&&&&&&&,right,authority.vice,,,,,,,0,126,126,126,,,,,,,,,,,,,,,,,,,,,AMP,left,1.2838718947314192,,,left,0,1.2838718947314192,0,,,,,,,,,,,,,,,,,,,,,,1063,2019_Mar_13_1500,mf_amp_cond1,3.0.4,59.9986530095063,
promote,prones,&&&&&&,left,sanctity.virtue,,,,,,,0,127,127,127,,,,,,,,,,,,,,,,,,,,,AMP,right,0.6670600814977661,,,right,0,0.6670600814977661,0,,,,,,,,,,,,,,,,,,,,,,1063,2019_Mar_13_1500,mf_amp_cond1,3.0.4,59.9986530095063,
actively,sliptery,&&&&&&&&,left,authority.virtue,,,,,,,0,128,128,128,,,,,,,,,,,,,,,,,,,,,AMP,right,0.6837243000045419,,,right,0,0.6837243000045419,0,,,,,,,,,,,,,,,,,,,,,,1063,2019_Mar_13_1500,mf_amp_cond1,3.0.4,59.9986530095063,
crime,ejanulated,&&&&&&&&&&,right,fairness.vice,,,,,,,0,129,129,129,,,,,,,,,,,,,,,,,,,,,AMP,left,0.2836576546833385,,,left,0,0.2836576546833385,0,,,,,,,,,,,,,,,,,,,,,,1063,2019_Mar_13_1500,mf_amp_cond1,3.0.4,59.9986530095063,
black,shoirmaster,&&&&&&&&&&&,right,loyalty.vice,,,,,,,0,130,130,130,,,,,,,,,,,,,,,,,,,,,AMP,right,1.7840123694913927,,,right,1,1.7840123694913927,1,,,,,,,,,,,,,,,,,,,,,,1063,2019_Mar_13_1500,mf_amp_cond1,3.0.4,59.9986530095063,
intelligence,hescribe,&&&&&&&&,left,loyalty.virtue,,,,,,,0,131,131,131,,,,,,,,,,,,,,,,,,,,,AMP,right,0.9838098036125302,,,right,0,0.9838098036125302,0,,,,,,,,,,,,,,,,,,,,,,1063,2019_Mar_13_1500,mf_amp_cond1,3.0.4,59.9986530095063,
festate,erks,&&&&,None,nonword,,,,,,,0,132,132,132,,,,,,,,,,,,,,,,,,,,,AMP,left,1.967357259360142,,,left,0,1.967357259360142,0,,,,,,,,,,,,,,,,,,,,,,1063,2019_Mar_13_1500,mf_amp_cond1,3.0.4,59.9986530095063,
ability,erdest,&&&&&&,left,authority.virtue,,,,,,,0,133,133,133,,,,,,,,,,,,,,,,,,,,,AMP,right,0.5503640476963483,,,right,0,0.5503640476963483,0,,,,,,,,,,,,,,,,,,,,,,1063,2019_Mar_13_1500,mf_amp_cond1,3.0.4,59.9986530095063,
attacks,fonderland,&&&&&&&&&&,right,care.vice,,,,,,,0,134,134,134,,,,,,,,,,,,,,,,,,,,,AMP,left,0.35032318814774044,,,left,0,0.35032318814774044,0,,,,,,,,,,,,,,,,,,,,,,1063,2019_Mar_13_1500,mf_amp_cond1,3.0.4,59.9986530095063,
credit,sowntrodden,&&&&&&&&&&&,left,fairness.virtue,,,,,,,0,135,135,135,,,,,,,,,,,,,,,,,,,,,AMP,right,0.6670680994866416,,,right,0,0.6670680994866416,0,,,,,,,,,,,,,,,,,,,,,,1063,2019_Mar_13_1500,mf_amp_cond1,3.0.4,59.9986530095063,
unpleasant,lenon,&&&&&,None,control,,,,,,,0,136,136,136,,,,,,,,,,,,,,,,,,,,,AMP,left,0.550363406247925,,,left,0,0.550363406247925,0,,,,,,,,,,,,,,,,,,,,,,1063,2019_Mar_13_1500,mf_amp_cond1,3.0.4,59.9986530095063,
agreement,juck,&&&&,left,fairness.virtue,,,,,,,0,137,137,137,,,,,,,,,,,,,,,,,,,,,AMP,right,0.6670873425609898,,,right,0,0.6670873425609898,0,,,,,,,,,,,,,,,,,,,,,,1063,2019_Mar_13_1500,mf_amp_cond1,3.0.4,59.9986530095063,
safe,gondensed,&&&&&&&&&,left,care.virtue,,,,,,,0,138,138,138,,,,,,,,,,,,,,,,,,,,,AMP,right,0.7504347340727691,,,right,0,0.7504347340727691,0,,,,,,,,,,,,,,,,,,,,,,1063,2019_Mar_13_1500,mf_amp_cond1,3.0.4,59.9986530095063,
betrayal,lempestuous,&&&&&&&&&&&,right,loyalty.vice,,,,,,,0,139,139,139,,,,,,,,,,,,,,,,,,,,,AMP,left,0.43368533271132037,,,left,0,0.43368533271132037,0,,,,,,,,,,,,,,,,,,,,,,1063,2019_Mar_13_1500,mf_amp_cond1,3.0.4,59.9986530095063,
prison,nuckheap,&&&&&&&&,right,fairness.vice,,,,,,,0,140,140,140,,,,,,,,,,,,,,,,,,,,,AMP,left,0.5837178215151653,,,left,0,0.5837178215151653,0,,,,,,,,,,,,,,,,,,,,,,1063,2019_Mar_13_1500,mf_amp_cond1,3.0.4,59.9986530095063,
promises,faspberry,&&&&&&&&&,left,fairness.virtue,,,,,,,0,141,141,141,,,,,,,,,,,,,,,,,,,,,AMP,right,1.250542174821021,,,right,0,1.250542174821021,0,,,,,,,,,,,,,,,,,,,,,,1063,2019_Mar_13_1500,mf_amp_cond1,3.0.4,59.9986530095063,
opportunity,refuejing,&&&&&&&&&,left,fairness.virtue,,,,,,,0,142,142,142,,,,,,,,,,,,,,,,,,,,,AMP,right,0.43369078493560664,,,right,0,0.43369078493560664,0,,,,,,,,,,,,,,,,,,,,,,1063,2019_Mar_13_1500,mf_amp_cond1,3.0.4,59.9986530095063,
improve,quarterbocks,&&&&&&&&&&&&,left,care.virtue,,,,,,,0,143,143,143,,,,,,,,,,,,,,,,,,,,,AMP,right,0.13359694264363497,,,right,0,0.13359694264363497,0,,,,,,,,,,,,,,,,,,,,,,1063,2019_Mar_13_1500,mf_amp_cond1,3.0.4,59.9986530095063,
pafer,hatigue,&&&&&&&,None,nonword,,,,,,,0,144,144,144,,,,,,,,,,,,,,,,,,,,,AMP,left,1.317215405520983,,,left,0,1.317215405520983,0,,,,,,,,,,,,,,,,,,,,,,1063,2019_Mar_13_1500,mf_amp_cond1,3.0.4,59.9986530095063,
increase,nomparisons,&&&&&&&&&&&,left,care.virtue,,,,,,,0,145,145,145,,,,,,,,,,,,,,,,,,,,,AMP,right,1.0504904108238406,,,right,0,1.0504904108238406,0,,,,,,,,,,,,,,,,,,,,,,1063,2019_Mar_13_1500,mf_amp_cond1,3.0.4,59.9986530095063,
promised,imebreaker,&&&&&&&&&&,left,loyalty.virtue,,,,,,,0,146,146,146,,,,,,,,,,,,,,,,,,,,,AMP,right,0.8337603167165071,,,right,0,0.8337603167165071,0,,,,,,,,,,,,,,,,,,,,,,1063,2019_Mar_13_1500,mf_amp_cond1,3.0.4,59.9986530095063,
scandal,saned,&&&&&,right,sanctity.vice,,,,,,,0,147,147,147,,,,,,,,,,,,,,,,,,,,,AMP,left,2.217293917463394,,,left,0,2.217293917463394,0,,,,,,,,,,,,,,,,,,,,,,1063,2019_Mar_13_1500,mf_amp_cond1,3.0.4,59.9986530095063,
care,tabin,&&&&&,left,care.virtue,,,,,,,0,148,148,148,,,,,,,,,,,,,,,,,,,,,AMP,right,1.1338589697843418,,,right,0,1.1338589697843418,0,,,,,,,,,,,,,,,,,,,,,,1063,2019_Mar_13_1500,mf_amp_cond1,3.0.4,59.9986530095063,
tomedians,leact,&&&&&,None,nonword,,,,,,,0,149,149,149,,,,,,,,,,,,,,,,,,,,,AMP,left,2.5008428485307377,,,left,0,2.5008428485307377,0,,,,,,,,,,,,,,,,,,,,,,1063,2019_Mar_13_1500,mf_amp_cond1,3.0.4,59.9986530095063,
charges,lachelor,&&&&&&&&,right,fairness.vice,,,,,,,0,150,150,150,,,,,,,,,,,,,,,,,,,,,AMP,right,1.5839500217989553,,,right,1,1.5839500217989553,1,,,,,,,,,,,,,,,,,,,,,,1063,2019_Mar_13_1500,mf_amp_cond1,3.0.4,59.9986530095063,
nomaric,smapper,&&&&&&&,None,nonword,,,,,,,0,151,151,151,,,,,,,,,,,,,,,,,,,,,AMP,right,1.1837037740333471,,,right,0,1.1837037740333471,0,,,,,,,,,,,,,,,,,,,,,,1063,2019_Mar_13_1500,mf_amp_cond1,3.0.4,59.9986530095063,
pleasant,pulge,&&&&&,None,control,,,,,,,0,152,152,152,,,,,,,,,,,,,,,,,,,,,AMP,right,0.5170179711421952,,,right,0,0.5170179711421952,0,,,,,,,,,,,,,,,,,,,,,,1063,2019_Mar_13_1500,mf_amp_cond1,3.0.4,59.9986530095063,
praised,ilportation,&&&&&&&&&&&,left,loyalty.virtue,,,,,,,0,153,153,153,,,,,,,,,,,,,,,,,,,,,AMP,right,1.7673115890356712,,,right,0,1.7673115890356712,0,,,,,,,,,,,,,,,,,,,,,,1063,2019_Mar_13_1500,mf_amp_cond1,3.0.4,59.9986530095063,
voter,troubla,&&&&&&&,right,fairness.vice,,,,,,,0,154,154,154,,,,,,,,,,,,,,,,,,,,,AMP,right,0.5170057838258799,,,right,1,0.5170057838258799,1,,,,,,,,,,,,,,,,,,,,,,1063,2019_Mar_13_1500,mf_amp_cond1,3.0.4,59.9986530095063,
serial,feleological,&&&&&&&&&&&&,right,sanctity.vice,,,,,,,0,155,155,155,,,,,,,,,,,,,,,,,,,,,AMP,left,0.7337939280259889,,,left,0,0.7337939280259889,0,,,,,,,,,,,,,,,,,,,,,,1063,2019_Mar_13_1500,mf_amp_cond1,3.0.4,59.9986530095063,
support,wonderfujnoss,&&&&&&&&&&&&&,left,loyalty.virtue,,,,,,,0,156,156,156,,,,,,,,,,,,,,,,,,,,,AMP,right,0.4336741075385362,,,right,0,0.4336741075385362,0,,,,,,,,,,,,,,,,,,,,,,1063,2019_Mar_13_1500,mf_amp_cond1,3.0.4,59.9986530095063,
peaceful,ecgagement,&&&&&&&&&&,left,authority.virtue,,,,,,,0,157,157,157,,,,,,,,,,,,,,,,,,,,,AMP,right,1.06716649592272,,,right,0,1.06716649592272,0,,,,,,,,,,,,,,,,,,,,,,1063,2019_Mar_13_1500,mf_amp_cond1,3.0.4,59.9986530095063,
commitment,menizen,&&&&&&&,left,sanctity.virtue,,,,,,,0,158,158,158,,,,,,,,,,,,,,,,,,,,,AMP,right,0.5836931261583231,,,right,0,0.5836931261583231,0,,,,,,,,,,,,,,,,,,,,,,1063,2019_Mar_13_1500,mf_amp_cond1,3.0.4,59.9986530095063,
suicide,clamorek,&&&&&&&&,right,care.vice,,,,,,,0,159,159,159,,,,,,,,,,,,,,,,,,,,,AMP,left,0.4669999788166024,,,left,0,0.4669999788166024,0,,,,,,,,,,,,,,,,,,,,,,1063,2019_Mar_13_1500,mf_amp_cond1,3.0.4,59.9986530095063,
violence,gationwide,&&&&&&&&&&,right,care.vice,,,,,,,0,160,160,160,,,,,,,,,,,,,,,,,,,,,AMP,left,1.4839364874351304,,,left,0,1.4839364874351304,0,,,,,,,,,,,,,,,,,,,,,,1063,2019_Mar_13_1500,mf_amp_cond1,3.0.4,59.9986530095063,
ensure,gazily,&&&&&&,left,fairness.virtue,,,,,,,0,161,161,161,,,,,,,,,,,,,,,,,,,,,AMP,right,1.0338268337654881,,,right,0,1.0338268337654881,0,,,,,,,,,,,,,,,,,,,,,,1063,2019_Mar_13_1500,mf_amp_cond1,3.0.4,59.9986530095063,
accused,touls,&&&&&,right,fairness.vice,,,,,,,0,162,162,162,,,,,,,,,,,,,,,,,,,,,AMP,left,0.6337310030357912,,,left,0,0.6337310030357912,0,,,,,,,,,,,,,,,,,,,,,,1063,2019_Mar_13_1500,mf_amp_cond1,3.0.4,59.9986530095063,
gandbrake,metibolic,&&&&&&&&&,None,nonword,,,,,,,0,163,163,163,,,,,,,,,,,,,,,,,,,,,AMP,left,1.2172002676234115,,,left,0,1.2172002676234115,0,,,,,,,,,,,,,,,,,,,,,,1063,2019_Mar_13_1500,mf_amp_cond1,3.0.4,59.9986530095063,
sickyay,ecgagement,&&&&&&&&&&,None,nonword,,,,,,,0,164,164,164,,,,,,,,,,,,,,,,,,,,,AMP,left,1.9506997759453952,,,left,0,1.9506997759453952,0,,,,,,,,,,,,,,,,,,,,,,1063,2019_Mar_13_1500,mf_amp_cond1,3.0.4,59.9986530095063,
strength,pistraught,&&&&&&&&&&,left,sanctity.virtue,,,,,,,0,165,165,165,,,,,,,,,,,,,,,,,,,,,AMP,right,0.633721702179173,,,right,0,0.633721702179173,0,,,,,,,,,,,,,,,,,,,,,,1063,2019_Mar_13_1500,mf_amp_cond1,3.0.4,59.9986530095063,
arrests,tabin,&&&&&,right,authority.vice,,,,,,,0,166,166,166,,,,,,,,,,,,,,,,,,,,,AMP,left,0.5003620913194027,,,left,0,0.5003620913194027,0,,,,,,,,,,,,,,,,,,,,,,1063,2019_Mar_13_1500,mf_amp_cond1,3.0.4,59.9986530095063,
ensure,hasks,&&&&&,left,fairness.virtue,,,,,,,0,167,167,167,,,,,,,,,,,,,,,,,,,,,AMP,right,0.4670246741443407,,,right,0,0.4670246741443407,0,,,,,,,,,,,,,,,,,,,,,,1063,2019_Mar_13_1500,mf_amp_cond1,3.0.4,59.9986530095063,
died,lenon,&&&&&,right,care.vice,,,,,,,0,168,168,168,,,,,,,,,,,,,,,,,,,,,AMP,left,0.2503061259340029,,,left,0,0.2503061259340029,0,,,,,,,,,,,,,,,,,,,,,,1063,2019_Mar_13_1500,mf_amp_cond1,3.0.4,59.9986530095063,
killed,gusinesslike,&&&&&&&&&&&&,right,care.vice,,,,,,,0,169,169,169,,,,,,,,,,,,,,,,,,,,,AMP,left,1.3839085208019242,,,left,0,1.3839085208019242,0,,,,,,,,,,,,,,,,,,,,,,1063,2019_Mar_13_1500,mf_amp_cond1,3.0.4,59.9986530095063,
mecan,sliptery,&&&&&&&&,None,nonword,,,,,,,0,170,170,170,,,,,,,,,,,,,,,,,,,,,AMP,left,2.917513096530456,,,left,0,2.917513096530456,0,,,,,,,,,,,,,,,,,,,,,,1063,2019_Mar_13_1500,mf_amp_cond1,3.0.4,59.9986530095063,
illegal,suggists,&&&&&&&&,right,fairness.vice,,,,,,,0,171,171,171,,,,,,,,,,,,,,,,,,,,,AMP,left,0.36698868952225894,,,left,0,0.36698868952225894,0,,,,,,,,,,,,,,,,,,,,,,1063,2019_Mar_13_1500,mf_amp_cond1,3.0.4,59.9986530095063,
police,seachwear,&&&&&&&&&,right,authority.vice,,,,,,,0,172,172,172,,,,,,,,,,,,,,,,,,,,,AMP,right,0.7670845202810597,,,right,1,0.7670845202810597,1,,,,,,,,,,,,,,,,,,,,,,1063,2019_Mar_13_1500,mf_amp_cond1,3.0.4,59.9986530095063,
help,hescribe,&&&&&&&&,left,care.virtue,,,,,,,0,173,173,173,,,,,,,,,,,,,,,,,,,,,AMP,left,2.217444655194413,,,left,1,2.217444655194413,1,,,,,,,,,,,,,,,,,,,,,,1063,2019_Mar_13_1500,mf_amp_cond1,3.0.4,59.9986530095063,
pafer,ejanulated,&&&&&&&&&&,None,nonword,,,,,,,0,174,174,174,,,,,,,,,,,,,,,,,,,,,AMP,left,1.6339734662906267,,,left,0,1.6339734662906267,0,,,,,,,,,,,,,,,,,,,,,,1063,2019_Mar_13_1500,mf_amp_cond1,3.0.4,59.9986530095063,
ability,imebreaker,&&&&&&&&&&,left,authority.virtue,,,,,,,0,175,175,175,,,,,,,,,,,,,,,,,,,,,AMP,right,1.3005656193417963,,,right,0,1.3005656193417963,0,,,,,,,,,,,,,,,,,,,,,,1063,2019_Mar_13_1500,mf_amp_cond1,3.0.4,59.9986530095063,
slavery,ilportation,&&&&&&&&&&&,right,loyalty.vice,,,,,,,0,176,176,176,,,,,,,,,,,,,,,,,,,,,AMP,left,0.5170288755616639,,,left,0,0.5170288755616639,0,,,,,,,,,,,,,,,,,,,,,,1063,2019_Mar_13_1500,mf_amp_cond1,3.0.4,59.9986530095063,
protesters,metibolic,&&&&&&&&&,right,authority.vice,,,,,,,0,177,177,177,,,,,,,,,,,,,,,,,,,,,AMP,right,1.7840094830025919,,,right,1,1.7840094830025919,1,,,,,,,,,,,,,,,,,,,,,,1063,2019_Mar_13_1500,mf_amp_cond1,3.0.4,59.9986530095063,
peace,brotesque,&&&&&&&&&,left,care.virtue,,,,,,,0,178,178,178,,,,,,,,,,,,,,,,,,,,,AMP,right,0.6503859207150526,,,right,0,0.6503859207150526,0,,,,,,,,,,,,,,,,,,,,,,1063,2019_Mar_13_1500,mf_amp_cond1,3.0.4,59.9986530095063,
praise,asn,&&&,left,authority.virtue,,,,,,,0,179,179,179,,,,,,,,,,,,,,,,,,,,,AMP,right,0.4170015503477771,,,right,0,0.4170015503477771,0,,,,,,,,,,,,,,,,,,,,,,1063,2019_Mar_13_1500,mf_amp_cond1,3.0.4,59.9986530095063,
restore,gazily,&&&&&&,left,care.virtue,,,,,,,0,180,180,180,,,,,,,,,,,,,,,,,,,,,AMP,right,0.5170186125906184,,,right,0,0.5170186125906184,0,,,,,,,,,,,,,,,,,,,,,,1063,2019_Mar_13_1500,mf_amp_cond1,3.0.4,59.9986530095063,
values,gillipede,&&&&&&&&&,left,sanctity.virtue,,,,,,,0,181,181,181,,,,,,,,,,,,,,,,,,,,,AMP,right,0.4168572269845754,,,right,0,0.4168572269845754,0,,,,,,,,,,,,,,,,,,,,,,1063,2019_Mar_13_1500,mf_amp_cond1,3.0.4,59.9986530095063,
scandal,pulge,&&&&&,right,sanctity.vice,,,,,,,0,182,182,182,,,,,,,,,,,,,,,,,,,,,AMP,left,0.4336798804870341,,,left,0,0.4336798804870341,0,,,,,,,,,,,,,,,,,,,,,,1063,2019_Mar_13_1500,mf_amp_cond1,3.0.4,59.9986530095063,
gandbrake,dumid,&&&&&,None,nonword,,,,,,,0,183,183,183,,,,,,,,,,,,,,,,,,,,,AMP,left,2.817660883680219,,,left,0,2.817660883680219,0,,,,,,,,,,,,,,,,,,,,,,1063,2019_Mar_13_1500,mf_amp_cond1,3.0.4,59.9986530095063,
care,wonderfujnoss,&&&&&&&&&&&&&,left,care.virtue,,,,,,,0,184,184,184,,,,,,,,,,,,,,,,,,,,,AMP,right,0.4336442807398271,,,right,0,0.4336442807398271,0,,,,,,,,,,,,,,,,,,,,,,1063,2019_Mar_13_1500,mf_amp_cond1,3.0.4,59.9986530095063,
unpleasant,clamorek,&&&&&&&&,None,control,,,,,,,0,185,185,185,,,,,,,,,,,,,,,,,,,,,AMP,right,1.4339107979030814,,,right,0,1.4339107979030814,0,,,,,,,,,,,,,,,,,,,,,,1063,2019_Mar_13_1500,mf_amp_cond1,3.0.4,59.9986530095063,
violence,nuckheap,&&&&&&&&,right,care.vice,,,,,,,0,186,186,186,,,,,,,,,,,,,,,,,,,,,AMP,left,1.3839046721404884,,,left,0,1.3839046721404884,0,,,,,,,,,,,,,,,,,,,,,,1063,2019_Mar_13_1500,mf_amp_cond1,3.0.4,59.9986530095063,
tomedians,crilfully,&&&&&&&&&,None,nonword,,,,,,,0,187,187,187,,,,,,,,,,,,,,,,,,,,,AMP,left,1.0504923351400066,,,left,0,1.0504923351400066,0,,,,,,,,,,,,,,,,,,,,,,1063,2019_Mar_13_1500,mf_amp_cond1,3.0.4,59.9986530095063,
praised,counpy's,&&&&&&&&,left,loyalty.virtue,,,,,,,0,188,188,188,,,,,,,,,,,,,,,,,,,,,AMP,right,0.4837087772320956,,,right,0,0.4837087772320956,0,,,,,,,,,,,,,,,,,,,,,,1063,2019_Mar_13_1500,mf_amp_cond1,3.0.4,59.9986530095063,
embrace,neneficence,&&&&&&&&&&&,left,authority.virtue,,,,,,,0,189,189,189,,,,,,,,,,,,,,,,,,,,,AMP,right,0.43366737247561105,,,right,0,0.43366737247561105,0,,,,,,,,,,,,,,,,,,,,,,1063,2019_Mar_13_1500,mf_amp_cond1,3.0.4,59.9986530095063,
betrayal,faspberry,&&&&&&&&&,right,loyalty.vice,,,,,,,0,190,190,190,,,,,,,,,,,,,,,,,,,,,AMP,left,0.35035365642397664,,,left,0,0.35035365642397664,0,,,,,,,,,,,,,,,,,,,,,,1063,2019_Mar_13_1500,mf_amp_cond1,3.0.4,59.9986530095063,
actively,troubla,&&&&&&&,left,authority.virtue,,,,,,,0,191,191,191,,,,,,,,,,,,,,,,,,,,,AMP,right,0.5837088413827587,,,right,0,0.5837088413827587,0,,,,,,,,,,,,,,,,,,,,,,1063,2019_Mar_13_1500,mf_amp_cond1,3.0.4,59.9986530095063,
interests,smapper,&&&&&&&,left,fairness.virtue,,,,,,,0,192,192,192,,,,,,,,,,,,,,,,,,,,,AMP,right,1.133866666990798,,,right,0,1.133866666990798,0,,,,,,,,,,,,,,,,,,,,,,1063,2019_Mar_13_1500,mf_amp_cond1,3.0.4,59.9986530095063,
fraud,ittutable,&&&&&&&&&,right,fairness.vice,,,,,,,0,193,193,193,,,,,,,,,,,,,,,,,,,,,AMP,left,0.38368241416173987,,,left,0,0.38368241416173987,0,,,,,,,,,,,,,,,,,,,,,,1063,2019_Mar_13_1500,mf_amp_cond1,3.0.4,59.9986530095063,
fear,refuejing,&&&&&&&&&,right,sanctity.vice,,,,,,,0,194,194,194,,,,,,,,,,,,,,,,,,,,,AMP,left,2.8342433189682197,,,left,0,2.8342433189682197,0,,,,,,,,,,,,,,,,,,,,,,1063,2019_Mar_13_1500,mf_amp_cond1,3.0.4,59.9986530095063,
safe,simplustic,&&&&&&&&&&,left,care.virtue,,,,,,,0,195,195,195,,,,,,,,,,,,,,,,,,,,,AMP,right,0.30031577954650857,,,right,0,0.30031577954650857,0,,,,,,,,,,,,,,,,,,,,,,1063,2019_Mar_13_1500,mf_amp_cond1,3.0.4,59.9986530095063,
harassment,lorthwhile,&&&&&&&&&&,right,sanctity.vice,,,,,,,0,196,196,196,,,,,,,,,,,,,,,,,,,,,AMP,left,1.4173290040344,,,left,0,1.4173290040344,0,,,,,,,,,,,,,,,,,,,,,,1063,2019_Mar_13_1500,mf_amp_cond1,3.0.4,59.9986530095063,
friends,mih,&&&,left,loyalty.virtue,,,,,,,0,197,197,197,,,,,,,,,,,,,,,,,,,,,AMP,right,0.6168990486767143,,,right,0,0.6168990486767143,0,,,,,,,,,,,,,,,,,,,,,,1063,2019_Mar_13_1500,mf_amp_cond1,3.0.4,59.9986530095063,
crime,erdest,&&&&&&,right,fairness.vice,,,,,,,0,198,198,198,,,,,,,,,,,,,,,,,,,,,AMP,left,0.9504541054775473,,,left,0,0.9504541054775473,0,,,,,,,,,,,,,,,,,,,,,,1063,2019_Mar_13_1500,mf_amp_cond1,3.0.4,59.9986530095063,
promises,menizen,&&&&&&&,left,fairness.virtue,,,,,,,0,199,199,199,,,,,,,,,,,,,,,,,,,,,AMP,right,0.41699609815259464,,,right,0,0.41699609815259464,0,,,,,,,,,,,,,,,,,,,,,,1063,2019_Mar_13_1500,mf_amp_cond1,3.0.4,59.9986530095063,
energy,shoirmaster,&&&&&&&&&&&,left,sanctity.virtue,,,,,,,0,200,200,200,,,,,,,,,,,,,,,,,,,,,AMP,right,0.5335606372973416,,,right,0,0.5335606372973416,0,,,,,,,,,,,,,,,,,,,,,,1063,2019_Mar_13_1500,mf_amp_cond1,3.0.4,59.9986530095063,
officers,sowntrodden,&&&&&&&&&&&,right,authority.vice,,,,,,,0,201,201,201,,,,,,,,,,,,,,,,,,,,,AMP,right,0.8504437783267349,,,right,1,0.8504437783267349,1,,,,,,,,,,,,,,,,,,,,,,1063,2019_Mar_13_1500,mf_amp_cond1,3.0.4,59.9986530095063,
festate,crinking,&&&&&&&&,None,nonword,,,,,,,0,202,202,202,,,,,,,,,,,,,,,,,,,,,AMP,left,1.2338577510381583,,,left,0,1.2338577510381583,0,,,,,,,,,,,,,,,,,,,,,,1063,2019_Mar_13_1500,mf_amp_cond1,3.0.4,59.9986530095063,
useful,lempestuous,&&&&&&&&&&&,left,authority.virtue,,,,,,,0,203,203,203,,,,,,,,,,,,,,,,,,,,,AMP,right,0.3169710179208778,,,right,0,0.3169710179208778,0,,,,,,,,,,,,,,,,,,,,,,1063,2019_Mar_13_1500,mf_amp_cond1,3.0.4,59.9986530095063,
support,dormandi,&&&&&&&&,left,loyalty.virtue,,,,,,,0,204,204,204,,,,,,,,,,,,,,,,,,,,,AMP,right,1.0338223437138367,,,right,0,1.0338223437138367,0,,,,,,,,,,,,,,,,,,,,,,1063,2019_Mar_13_1500,mf_amp_cond1,3.0.4,59.9986530095063,
drug,greaks,&&&&&&,right,sanctity.vice,,,,,,,0,205,205,205,,,,,,,,,,,,,,,,,,,,,AMP,left,0.5003515075950418,,,left,0,0.5003515075950418,0,,,,,,,,,,,,,,,,,,,,,,1063,2019_Mar_13_1500,mf_amp_cond1,3.0.4,59.9986530095063,
attacks,elduringly,&&&&&&&&&&,right,care.vice,,,,,,,0,206,206,206,,,,,,,,,,,,,,,,,,,,,AMP,left,1.000486530130729,,,left,0,1.000486530130729,0,,,,,,,,,,,,,,,,,,,,,,1063,2019_Mar_13_1500,mf_amp_cond1,3.0.4,59.9986530095063,
gun,sgrawl,&&&&&&,right,authority.vice,,,,,,,0,207,207,207,,,,,,,,,,,,,,,,,,,,,AMP,right,0.6337377381278202,,,right,1,0.6337377381278202,1,,,,,,,,,,,,,,,,,,,,,,1063,2019_Mar_13_1500,mf_amp_cond1,3.0.4,59.9986530095063,
rejected,saned,&&&&&,right,authority.vice,,,,,,,0,208,208,208,,,,,,,,,,,,,,,,,,,,,AMP,left,1.5172597929777112,,,left,0,1.5172597929777112,0,,,,,,,,,,,,,,,,,,,,,,1063,2019_Mar_13_1500,mf_amp_cond1,3.0.4,59.9986530095063,
charges,egpeditious,&&&&&&&&&&&,right,fairness.vice,,,,,,,0,209,209,209,,,,,,,,,,,,,,,,,,,,,AMP,right,0.7337454995140433,,,right,1,0.7337454995140433,1,,,,,,,,,,,,,,,,,,,,,,1063,2019_Mar_13_1500,mf_amp_cond1,3.0.4,59.9986530095063,
death,gournful,&&&&&&&&,right,care.vice,,,,,,,0,210,210,210,,,,,,,,,,,,,,,,,,,,,AMP,left,0.36699317960301414,,,left,0,0.36699317960301414,0,,,,,,,,,,,,,,,,,,,,,,1063,2019_Mar_13_1500,mf_amp_cond1,3.0.4,59.9986530095063,
suicide,Boeinf,&&&&&&,right,care.vice,,,,,,,0,211,211,211,,,,,,,,,,,,,,,,,,,,,AMP,left,1.283885685610585,,,left,0,1.283885685610585,0,,,,,,,,,,,,,,,,,,,,,,1063,2019_Mar_13_1500,mf_amp_cond1,3.0.4,59.9986530095063,
corruption,touls,&&&&&,right,sanctity.vice,,,,,,,0,212,212,212,,,,,,,,,,,,,,,,,,,,,AMP,left,1.9340461411629803,,,left,0,1.9340461411629803,0,,,,,,,,,,,,,,,,,,,,,,1063,2019_Mar_13_1500,mf_amp_cond1,3.0.4,59.9986530095063,
powerful,erks,&&&&,left,authority.virtue,,,,,,,0,213,213,213,,,,,,,,,,,,,,,,,,,,,AMP,right,2.7509090769162867,,,right,0,2.7509090769162867,0,,,,,,,,,,,,,,,,,,,,,,1063,2019_Mar_13_1500,mf_amp_cond1,3.0.4,59.9986530095063,
coom,leact,&&&&&,None,nonword,,,,,,,0,214,214,214,,,,,,,,,,,,,,,,,,,,,AMP,left,0.4670067139377352,,,left,0,0.4670067139377352,0,,,,,,,,,,,,,,,,,,,,,,1063,2019_Mar_13_1500,mf_amp_cond1,3.0.4,59.9986530095063,
sharing,hatigue,&&&&&&&,left,loyalty.virtue,,,,,,,0,215,215,215,,,,,,,,,,,,,,,,,,,,,AMP,right,0.500356959819328,,,right,0,0.500356959819328,0,,,,,,,,,,,,,,,,,,,,,,1063,2019_Mar_13_1500,mf_amp_cond1,3.0.4,59.9986530095063,
intelligence,baladroit,&&&&&&&&&,left,loyalty.virtue,,,,,,,0,216,216,216,,,,,,,,,,,,,,,,,,,,,AMP,right,0.583712369290879,,,right,0,0.583712369290879,0,,,,,,,,,,,,,,,,,,,,,,1063,2019_Mar_13_1500,mf_amp_cond1,3.0.4,59.9986530095063,
blamed,rorroborated,&&&&&&&&&&&&,right,loyalty.vice,,,,,,,0,217,217,217,,,,,,,,,,,,,,,,,,,,,AMP,left,0.4670060724893119,,,left,0,0.4670060724893119,0,,,,,,,,,,,,,,,,,,,,,,1063,2019_Mar_13_1500,mf_amp_cond1,3.0.4,59.9986530095063,
refused,glacenta,&&&&&&&&,right,authority.vice,,,,,,,0,218,218,218,,,,,,,,,,,,,,,,,,,,,AMP,right,1.100503913097782,,,right,1,1.100503913097782,1,,,,,,,,,,,,,,,,,,,,,,1063,2019_Mar_13_1500,mf_amp_cond1,3.0.4,59.9986530095063,
accused,prones,&&&&&&,right,fairness.vice,,,,,,,0,219,219,219,,,,,,,,,,,,,,,,,,,,,AMP,left,0.733751593157649,,,left,0,0.733751593157649,0,,,,,,,,,,,,,,,,,,,,,,1063,2019_Mar_13_1500,mf_amp_cond1,3.0.4,59.9986530095063,
framatic,juck,&&&&,None,nonword,,,,,,,0,220,220,220,,,,,,,,,,,,,,,,,,,,,AMP,left,1.0338091942248866,,,left,0,1.0338091942248866,0,,,,,,,,,,,,,,,,,,,,,,1063,2019_Mar_13_1500,mf_amp_cond1,3.0.4,59.9986530095063,
promised,mightingale,&&&&&&&&&&&,left,loyalty.virtue,,,,,,,0,221,221,221,,,,,,,,,,,,,,,,,,,,,AMP,right,0.3169742251338903,,,right,0,0.3169742251338903,0,,,,,,,,,,,,,,,,,,,,,,1063,2019_Mar_13_1500,mf_amp_cond1,3.0.4,59.9986530095063,
conspiracy,oam,&&&,right,sanctity.vice,,,,,,,0,222,222,222,,,,,,,,,,,,,,,,,,,,,AMP,right,0.3669389781425707,,,right,1,0.3669389781425707,1,,,,,,,,,,,,,,,,,,,,,,1063,2019_Mar_13_1500,mf_amp_cond1,3.0.4,59.9986530095063,
clean,feleological,&&&&&&&&&&&&,left,sanctity.virtue,,,,,,,0,223,223,223,,,,,,,,,,,,,,,,,,,,,AMP,right,1.834013684419915,,,right,0,1.834013684419915,0,,,,,,,,,,,,,,,,,,,,,,1063,2019_Mar_13_1500,mf_amp_cond1,3.0.4,59.9986530095063,
prison,allears,&&&&&&&,right,fairness.vice,,,,,,,0,224,224,224,,,,,,,,,,,,,,,,,,,,,AMP,left,1.8006846059579402,,,left,0,1.8006846059579402,0,,,,,,,,,,,,,,,,,,,,,,1063,2019_Mar_13_1500,mf_amp_cond1,3.0.4,59.9986530095063,
peaceful,divility,&&&&&&&&,left,authority.virtue,,,,,,,0,225,225,225,,,,,,,,,,,,,,,,,,,,,AMP,right,0.8504258180910256,,,right,0,0.8504258180910256,0,,,,,,,,,,,,,,,,,,,,,,1063,2019_Mar_13_1500,mf_amp_cond1,3.0.4,59.9986530095063,
love,blunderints,&&&&&&&&&&&,left,loyalty.virtue,,,,,,,0,226,226,226,,,,,,,,,,,,,,,,,,,,,AMP,right,0.216943692706991,,,right,0,0.216943692706991,0,,,,,,,,,,,,,,,,,,,,,,1063,2019_Mar_13_1500,mf_amp_cond1,3.0.4,59.9986530095063,
increase,galamitous,&&&&&&&&&&,left,care.virtue,,,,,,,0,227,227,227,,,,,,,,,,,,,,,,,,,,,AMP,right,0.4003267481166404,,,right,0,0.4003267481166404,0,,,,,,,,,,,,,,,,,,,,,,1063,2019_Mar_13_1500,mf_amp_cond1,3.0.4,59.9986530095063,
injured,bycled,&&&&&&,right,care.vice,,,,,,,0,228,228,228,,,,,,,,,,,,,,,,,,,,,AMP,left,0.36698772737872787,,,left,0,0.36698772737872787,0,,,,,,,,,,,,,,,,,,,,,,1063,2019_Mar_13_1500,mf_amp_cond1,3.0.4,59.9986530095063,
black,taxpayung,&&&&&&&&&,right,loyalty.vice,,,,,,,0,229,229,229,,,,,,,,,,,,,,,,,,,,,AMP,right,3.301026492001256,,,right,1,3.301026492001256,1,,,,,,,,,,,,,,,,,,,,,,1063,2019_Mar_13_1500,mf_amp_cond1,3.0.4,59.9986530095063,
opportunity,nomparisons,&&&&&&&&&&&,left,fairness.virtue,,,,,,,0,230,230,230,,,,,,,,,,,,,,,,,,,,,AMP,right,2.5841693933180068,,,right,0,2.5841693933180068,0,,,,,,,,,,,,,,,,,,,,,,1063,2019_Mar_13_1500,mf_amp_cond1,3.0.4,59.9986530095063,
promote,Loorish,&&&&&&&,left,sanctity.virtue,,,,,,,0,231,231,231,,,,,,,,,,,,,,,,,,,,,AMP,right,0.23362587147857994,,,right,0,0.23362587147857994,0,,,,,,,,,,,,,,,,,,,,,,1063,2019_Mar_13_1500,mf_amp_cond1,3.0.4,59.9986530095063,
failure,gationwide,&&&&&&&&&&,right,loyalty.vice,,,,,,,0,232,232,232,,,,,,,,,,,,,,,,,,,,,AMP,left,0.20027209768886678,,,left,0,0.20027209768886678,0,,,,,,,,,,,,,,,,,,,,,,1063,2019_Mar_13_1500,mf_amp_cond1,3.0.4,59.9986530095063,
improve,dramens,&&&&&&&,left,care.virtue,,,,,,,0,233,233,233,,,,,,,,,,,,,,,,,,,,,AMP,right,0.4336692967626732,,,right,0,0.4336692967626732,0,,,,,,,,,,,,,,,,,,,,,,1063,2019_Mar_13_1500,mf_amp_cond1,3.0.4,59.9986530095063,
integrity,quarterbocks,&&&&&&&&&&&&,left,fairness.virtue,,,,,,,0,234,234,234,,,,,,,,,,,,,,,,,,,,,AMP,right,0.6337300408631563,,,right,0,0.6337300408631563,0,,,,,,,,,,,,,,,,,,,,,,1063,2019_Mar_13_1500,mf_amp_cond1,3.0.4,59.9986530095063,
hand,synchronazers,&&&&&&&&&&&&&,left,sanctity.virtue,,,,,,,0,235,235,235,,,,,,,,,,,,,,,,,,,,,AMP,right,0.4003678001172375,,,right,0,0.4003678001172375,0,,,,,,,,,,,,,,,,,,,,,,1063,2019_Mar_13_1500,mf_amp_cond1,3.0.4,59.9986530095063,
commitment,pharing,&&&&&&&,left,sanctity.virtue,,,,,,,0,236,236,236,,,,,,,,,,,,,,,,,,,,,AMP,right,0.8004341247433331,,,right,0,0.8004341247433331,0,,,,,,,,,,,,,,,,,,,,,,1063,2019_Mar_13_1500,mf_amp_cond1,3.0.4,59.9986530095063,
serial,fonderland,&&&&&&&&&&,right,sanctity.vice,,,,,,,0,237,237,237,,,,,,,,,,,,,,,,,,,,,AMP,left,0.5670228140079416,,,left,0,0.5670228140079416,0,,,,,,,,,,,,,,,,,,,,,,1063,2019_Mar_13_1500,mf_amp_cond1,3.0.4,59.9986530095063,
nomaric,chonograph,&&&&&&&&&&,None,nonword,,,,,,,0,238,238,238,,,,,,,,,,,,,,,,,,,,,AMP,right,2.26742191624362,,,right,0,2.26742191624362,0,,,,,,,,,,,,,,,,,,,,,,1063,2019_Mar_13_1500,mf_amp_cond1,3.0.4,59.9986530095063,
voter,gondensed,&&&&&&&&&,right,fairness.vice,,,,,,,0,239,239,239,,,,,,,,,,,,,,,,,,,,,AMP,right,0.5336982255976181,,,right,1,0.5336982255976181,1,,,,,,,,,,,,,,,,,,,,,,1063,2019_Mar_13_1500,mf_amp_cond1,3.0.4,59.9986530095063,
agreement,lachelor,&&&&&&&&,left,fairness.virtue,,,,,,,0,240,240,240,,,,,,,,,,,,,,,,,,,,,AMP,right,0.4170272078481503,,,right,0,0.4170272078481503,0,,,,,,,,,,,,,,,,,,,,,,1063,2019_Mar_13_1500,mf_amp_cond1,3.0.4,59.9986530095063,
army,honstables,&&&&&&&&&&,right,loyalty.vice,,,,,,,0,241,241,241,,,,,,,,,,,,,,,,,,,,,AMP,right,0.6670581571816001,,,right,1,0.6670581571816001,1,,,,,,,,,,,,,,,,,,,,,,1063,2019_Mar_13_1500,mf_amp_cond1,3.0.4,59.9986530095063,
pleasant,alar,&&&&,None,control,,,,,,,0,242,242,242,,,,,,,,,,,,,,,,,,,,,AMP,right,2.017381666053552,,,right,0,2.017381666053552,0,,,,,,,,,,,,,,,,,,,,,,1063,2019_Mar_13_1500,mf_amp_cond1,3.0.4,59.9986530095063,
Lacedonia,bruthfulness,&&&&&&&&&&&&,None,nonword,,,,,,,0,243,243,243,,,,,,,,,,,,,,,,,,,,,AMP,right,0.7504074729804415,,,right,0,0.7504074729804415,0,,,,,,,,,,,,,,,,,,,,,,1063,2019_Mar_13_1500,mf_amp_cond1,3.0.4,59.9986530095063,
critics,fangsters,&&&&&&&&&,right,loyalty.vice,,,,,,,0,244,244,244,,,,,,,,,,,,,,,,,,,,,AMP,left,0.5503592369204853,,,left,0,0.5503592369204853,0,,,,,,,,,,,,,,,,,,,,,,1063,2019_Mar_13_1500,mf_amp_cond1,3.0.4,59.9986530095063,
credit,carvels,&&&&&&&,left,fairness.virtue,,,,,,,0,245,245,245,,,,,,,,,,,,,,,,,,,,,AMP,right,0.21696004935074598,,,right,0,0.21696004935074598,0,,,,,,,,,,,,,,,,,,,,,,1063,2019_Mar_13_1500,mf_amp_cond1,3.0.4,59.9986530095063,
ensure,leact,&&&&&,left,fairness.virtue,,,,,,,0,246,246,246,,,,,,,,,,,,,,,,,,,,,AMP,left,2.217466464062454,,,left,1,2.217466464062454,1,,,,,,,,,,,,,,,,,,,,,,1063,2019_Mar_13_1500,mf_amp_cond1,3.0.4,59.9986530095063,
clean,synchronazers,&&&&&&&&&&&&&,left,sanctity.virtue,,,,,,,0,247,247,247,,,,,,,,,,,,,,,,,,,,,AMP,right,0.10026048764120787,,,right,0,0.10026048764120787,0,,,,,,,,,,,,,,,,,,,,,,1063,2019_Mar_13_1500,mf_amp_cond1,3.0.4,59.9986530095063,
values,faspberry,&&&&&&&&&,left,sanctity.virtue,,,,,,,0,248,248,248,,,,,,,,,,,,,,,,,,,,,AMP,left,0.483690175547963,,,left,1,0.483690175547963,1,,,,,,,,,,,,,,,,,,,,,,1063,2019_Mar_13_1500,mf_amp_cond1,3.0.4,59.9986530095063,
tomedians,hescribe,&&&&&&&&,None,nonword,,,,,,,0,249,249,249,,,,,,,,,,,,,,,,,,,,,AMP,right,0.7170739044959191,,,right,0,0.7170739044959191,0,,,,,,,,,,,,,,,,,,,,,,1063,2019_Mar_13_1500,mf_amp_cond1,3.0.4,59.9986530095063,
killed,counpy's,&&&&&&&&,right,care.vice,,,,,,,0,250,250,250,,,,,,,,,,,,,,,,,,,,,AMP,left,0.4170060404285323,,,left,0,0.4170060404285323,0,,,,,,,,,,,,,,,,,,,,,,1063,2019_Mar_13_1500,mf_amp_cond1,3.0.4,59.9986530095063,
black,fonderland,&&&&&&&&&&,right,loyalty.vice,,,,,,,0,251,251,251,,,,,,,,,,,,,,,,,,,,,AMP,right,0.6670536671299487,,,right,1,0.6670536671299487,1,,,,,,,,,,,,,,,,,,,,,,1063,2019_Mar_13_1500,mf_amp_cond1,3.0.4,59.9986530095063,
failure,dormandi,&&&&&&&&,right,loyalty.vice,,,,,,,0,252,252,252,,,,,,,,,,,,,,,,,,,,,AMP,right,0.5837219908135012,,,right,1,0.5837219908135012,1,,,,,,,,,,,,,,,,,,,,,,1063,2019_Mar_13_1500,mf_amp_cond1,3.0.4,59.9986530095063,
safe,refuejing,&&&&&&&&&,left,care.virtue,,,,,,,0,253,253,253,,,,,,,,,,,,,,,,,,,,,AMP,left,3.251047948084306,,,left,1,3.251047948084306,1,,,,,,,,,,,,,,,,,,,,,,1063,2019_Mar_13_1500,mf_amp_cond1,3.0.4,59.9986530095063,
violence,seachwear,&&&&&&&&&,right,care.vice,,,,,,,0,254,254,254,,,,,,,,,,,,,,,,,,,,,AMP,left,0.31698224309366196,,,left,0,0.31698224309366196,0,,,,,,,,,,,,,,,,,,,,,,1063,2019_Mar_13_1500,mf_amp_cond1,3.0.4,59.9986530095063,
actively,elduringly,&&&&&&&&&&,left,authority.virtue,,,,,,,0,255,255,255,,,,,,,,,,,,,,,,,,,,,AMP,right,0.5337075264251325,,,right,0,0.5337075264251325,0,,,,,,,,,,,,,,,,,,,,,,1063,2019_Mar_13_1500,mf_amp_cond1,3.0.4,59.9986530095063,
promote,gournful,&&&&&&&&,left,sanctity.virtue,,,,,,,0,256,256,256,,,,,,,,,,,,,,,,,,,,,AMP,right,0.5670423778356053,,,right,0,0.5670423778356053,0,,,,,,,,,,,,,,,,,,,,,,1063,2019_Mar_13_1500,mf_amp_cond1,3.0.4,59.9986530095063,
interests,Loorish,&&&&&&&,left,fairness.virtue,,,,,,,0,257,257,257,,,,,,,,,,,,,,,,,,,,,AMP,right,0.4503489097696729,,,right,0,0.4503489097696729,0,,,,,,,,,,,,,,,,,,,,,,1063,2019_Mar_13_1500,mf_amp_cond1,3.0.4,59.9986530095063,
scandal,crilfully,&&&&&&&&&,right,sanctity.vice,,,,,,,0,258,258,258,,,,,,,,,,,,,,,,,,,,,AMP,left,0.41700924758333713,,,left,0,0.41700924758333713,0,,,,,,,,,,,,,,,,,,,,,,1063,2019_Mar_13_1500,mf_amp_cond1,3.0.4,59.9986530095063,
mecan,pulge,&&&&&,None,nonword,,,,,,,0,259,259,259,,,,,,,,,,,,,,,,,,,,,AMP,left,0.6670648922736291,,,left,0,0.6670648922736291,0,,,,,,,,,,,,,,,,,,,,,,1063,2019_Mar_13_1500,mf_amp_cond1,3.0.4,59.9986530095063,
Lacedonia,honstables,&&&&&&&&&&,None,nonword,,,,,,,0,260,260,260,,,,,,,,,,,,,,,,,,,,,AMP,left,1.2672083176439628,,,left,0,1.2672083176439628,0,,,,,,,,,,,,,,,,,,,,,,1063,2019_Mar_13_1500,mf_amp_cond1,3.0.4,59.9986530095063,
commitment,gazily,&&&&&&,left,sanctity.virtue,,,,,,,0,261,261,261,,,,,,,,,,,,,,,,,,,,,AMP,right,0.6503897693473846,,,right,0,0.6503897693473846,0,,,,,,,,,,,,,,,,,,,,,,1063,2019_Mar_13_1500,mf_amp_cond1,3.0.4,59.9986530095063,
promised,feleological,&&&&&&&&&&&&,left,loyalty.virtue,,,,,,,0,262,262,262,,,,,,,,,,,,,,,,,,,,,AMP,right,0.5503621234092861,,,right,0,0.5503621234092861,0,,,,,,,,,,,,,,,,,,,,,,1063,2019_Mar_13_1500,mf_amp_cond1,3.0.4,59.9986530095063,
promises,mightingale,&&&&&&&&&&&,left,fairness.virtue,,,,,,,0,263,263,263,,,,,,,,,,,,,,,,,,,,,AMP,right,1.9507055488938931,,,right,0,1.9507055488938931,0,,,,,,,,,,,,,,,,,,,,,,1063,2019_Mar_13_1500,mf_amp_cond1,3.0.4,59.9986530095063,
conspiracy,taxpayung,&&&&&&&&&,right,sanctity.vice,,,,,,,0,264,264,264,,,,,,,,,,,,,,,,,,,,,AMP,right,0.9504685378342401,,,right,1,0.9504685378342401,1,,,,,,,,,,,,,,,,,,,,,,1063,2019_Mar_13_1500,mf_amp_cond1,3.0.4,59.9986530095063,
betrayal,nomparisons,&&&&&&&&&&&,right,loyalty.vice,,,,,,,0,265,265,265,,,,,,,,,,,,,,,,,,,,,AMP,right,1.8173510695050936,,,right,1,1.8173510695050936,1,,,,,,,,,,,,,,,,,,,,,,1063,2019_Mar_13_1500,mf_amp_cond1,3.0.4,59.9986530095063,
critics,smapper,&&&&&&&,right,loyalty.vice,,,,,,,0,266,266,266,,,,,,,,,,,,,,,,,,,,,AMP,left,0.5837059548939578,,,left,0,0.5837059548939578,0,,,,,,,,,,,,,,,,,,,,,,1063,2019_Mar_13_1500,mf_amp_cond1,3.0.4,59.9986530095063,
opportunity,crinking,&&&&&&&&,left,fairness.virtue,,,,,,,0,267,267,267,,,,,,,,,,,,,,,,,,,,,AMP,left,1.6673070348333567,,,left,1,1.6673070348333567,1,,,,,,,,,,,,,,,,,,,,,,1063,2019_Mar_13_1500,mf_amp_cond1,3.0.4,59.9986530095063,
accused,simplustic,&&&&&&&&&&,right,fairness.vice,,,,,,,0,268,268,268,,,,,,,,,,,,,,,,,,,,,AMP,right,0.4503428161260672,,,right,1,0.4503428161260672,1,,,,,,,,,,,,,,,,,,,,,,1063,2019_Mar_13_1500,mf_amp_cond1,3.0.4,59.9986530095063,
death,wonderfujnoss,&&&&&&&&&&&&&,right,care.vice,,,,,,,0,269,269,269,,,,,,,,,,,,,,,,,,,,,AMP,left,0.4836876097833738,,,left,0,0.4836876097833738,0,,,,,,,,,,,,,,,,,,,,,,1063,2019_Mar_13_1500,mf_amp_cond1,3.0.4,59.9986530095063,
praise,sgrawl,&&&&&&,left,authority.virtue,,,,,,,0,270,270,270,,,,,,,,,,,,,,,,,,,,,AMP,left,1.3672269834496547,,,left,1,1.3672269834496547,1,,,,,,,,,,,,,,,,,,,,,,1063,2019_Mar_13_1500,mf_amp_cond1,3.0.4,59.9986530095063,
increase,erks,&&&&,left,care.virtue,,,,,,,0,271,271,271,,,,,,,,,,,,,,,,,,,,,AMP,right,0.2669620057567954,,,right,0,0.2669620057567954,0,,,,,,,,,,,,,,,,,,,,,,1063,2019_Mar_13_1500,mf_amp_cond1,3.0.4,59.9986530095063,
suicide,hasks,&&&&&,right,care.vice,,,,,,,0,272,272,272,,,,,,,,,,,,,,,,,,,,,AMP,left,0.35032126383157447,,,left,0,0.35032126383157447,0,,,,,,,,,,,,,,,,,,,,,,1063,2019_Mar_13_1500,mf_amp_cond1,3.0.4,59.9986530095063,
drug,shoirmaster,&&&&&&&&&&&,right,sanctity.vice,,,,,,,0,273,273,273,,,,,,,,,,,,,,,,,,,,,AMP,left,0.3503263953316491,,,left,0,0.3503263953316491,0,,,,,,,,,,,,,,,,,,,,,,1063,2019_Mar_13_1500,mf_amp_cond1,3.0.4,59.9986530095063,
pleasant,suggists,&&&&&&&&,None,control,,,,,,,0,274,274,274,,,,,,,,,,,,,,,,,,,,,AMP,left,1.0338399832253344,,,left,0,1.0338399832253344,0,,,,,,,,,,,,,,,,,,,,,,1063,2019_Mar_13_1500,mf_amp_cond1,3.0.4,59.9986530095063,
strength,prones,&&&&&&,left,sanctity.virtue,,,,,,,0,275,275,275,,,,,,,,,,,,,,,,,,,,,AMP,right,0.3669845201948192,,,right,0,0.3669845201948192,0,,,,,,,,,,,,,,,,,,,,,,1063,2019_Mar_13_1500,mf_amp_cond1,3.0.4,59.9986530095063,
ability,blunderints,&&&&&&&&&&&,left,authority.virtue,,,,,,,0,276,276,276,,,,,,,,,,,,,,,,,,,,,AMP,right,0.31698577100178227,,,right,0,0.31698577100178227,0,,,,,,,,,,,,,,,,,,,,,,1063,2019_Mar_13_1500,mf_amp_cond1,3.0.4,59.9986530095063,
nomaric,menizen,&&&&&&&,None,nonword,,,,,,,0,277,277,277,,,,,,,,,,,,,,,,,,,,,AMP,left,0.9338229209824931,,,left,0,0.9338229209824931,0,,,,,,,,,,,,,,,,,,,,,,1063,2019_Mar_13_1500,mf_amp_cond1,3.0.4,59.9986530095063,
coom,clamorek,&&&&&&&&,None,nonword,,,,,,,0,278,278,278,,,,,,,,,,,,,,,,,,,,,AMP,left,0.9338014328386635,,,left,0,0.9338014328386635,0,,,,,,,,,,,,,,,,,,,,,,1063,2019_Mar_13_1500,mf_amp_cond1,3.0.4,59.9986530095063,
support,juck,&&&&,left,loyalty.virtue,,,,,,,0,279,279,279,,,,,,,,,,,,,,,,,,,,,AMP,right,0.9837966541526839,,,right,0,0.9837966541526839,0,,,,,,,,,,,,,,,,,,,,,,1063,2019_Mar_13_1500,mf_amp_cond1,3.0.4,59.9986530095063,
gun,chonograph,&&&&&&&&&&,right,authority.vice,,,,,,,0,280,280,280,,,,,,,,,,,,,,,,,,,,,AMP,right,4.384639438503655,,,right,1,4.384639438503655,1,,,,,,,,,,,,,,,,,,,,,,1063,2019_Mar_13_1500,mf_amp_cond1,3.0.4,59.9986530095063,
integrity,hatigue,&&&&&&&,left,fairness.virtue,,,,,,,0,281,281,281,,,,,,,,,,,,,,,,,,,,,AMP,left,0.6837380909128115,,,left,1,0.6837380909128115,1,,,,,,,,,,,,,,,,,,,,,,1063,2019_Mar_13_1500,mf_amp_cond1,3.0.4,59.9986530095063,
prison,dramens,&&&&&&&,right,fairness.vice,,,,,,,0,282,282,282,,,,,,,,,,,,,,,,,,,,,AMP,left,1.1672063292062376,,,left,0,1.1672063292062376,0,,,,,,,,,,,,,,,,,,,,,,1063,2019_Mar_13_1500,mf_amp_cond1,3.0.4,59.9986530095063,
fear,tabin,&&&&&,right,sanctity.vice,,,,,,,0,283,283,283,,,,,,,,,,,,,,,,,,,,,AMP,right,0.5670478300307877,,,right,1,0.5670478300307877,1,,,,,,,,,,,,,,,,,,,,,,1063,2019_Mar_13_1500,mf_amp_cond1,3.0.4,59.9986530095063,
officers,gusinesslike,&&&&&&&&&&&&,right,authority.vice,,,,,,,0,284,284,284,,,,,,,,,,,,,,,,,,,,,AMP,right,1.1338416509679519,,,right,1,1.1338416509679519,1,,,,,,,,,,,,,,,,,,,,,,1063,2019_Mar_13_1500,mf_amp_cond1,3.0.4,59.9986530095063,
peaceful,carvels,&&&&&&&,left,authority.virtue,,,,,,,0,285,285,285,,,,,,,,,,,,,,,,,,,,,AMP,right,0.21697448170743883,,,right,0,0.21697448170743883,0,,,,,,,,,,,,,,,,,,,,,,1063,2019_Mar_13_1500,mf_amp_cond1,3.0.4,59.9986530095063,
fraud,gillipede,&&&&&&&&&,right,fairness.vice,,,,,,,0,286,286,286,,,,,,,,,,,,,,,,,,,,,AMP,left,0.5337036777928006,,,left,0,0.5337036777928006,0,,,,,,,,,,,,,,,,,,,,,,1063,2019_Mar_13_1500,mf_amp_cond1,3.0.4,59.9986530095063,
died,lenon,&&&&&,right,care.vice,,,,,,,0,287,287,287,,,,,,,,,,,,,,,,,,,,,AMP,right,0.8504238938039634,,,right,1,0.8504238938039634,1,,,,,,,,,,,,,,,,,,,,,,1063,2019_Mar_13_1500,mf_amp_cond1,3.0.4,59.9986530095063,
agreement,saned,&&&&&,left,fairness.virtue,,,,,,,0,288,288,288,,,,,,,,,,,,,,,,,,,,,AMP,left,1.033811759960372,,,left,1,1.033811759960372,1,,,,,,,,,,,,,,,,,,,,,,1063,2019_Mar_13_1500,mf_amp_cond1,3.0.4,59.9986530095063,
protesters,brotesque,&&&&&&&&&,right,authority.vice,,,,,,,0,289,289,289,,,,,,,,,,,,,,,,,,,,,AMP,left,0.4336891813436523,,,left,0,0.4336891813436523,0,,,,,,,,,,,,,,,,,,,,,,1063,2019_Mar_13_1500,mf_amp_cond1,3.0.4,59.9986530095063,
rejected,alar,&&&&,right,authority.vice,,,,,,,0,290,290,290,,,,,,,,,,,,,,,,,,,,,AMP,right,1.0505272934678942,,,right,1,1.0505272934678942,1,,,,,,,,,,,,,,,,,,,,,,1063,2019_Mar_13_1500,mf_amp_cond1,3.0.4,59.9986530095063,
voter,mih,&&&,right,fairness.vice,,,,,,,0,291,291,291,,,,,,,,,,,,,,,,,,,,,AMP,left,1.250534477585461,,,left,0,1.250534477585461,0,,,,,,,,,,,,,,,,,,,,,,1063,2019_Mar_13_1500,mf_amp_cond1,3.0.4,59.9986530095063,
gandbrake,Boeinf,&&&&&&,None,nonword,,,,,,,0,292,292,292,,,,,,,,,,,,,,,,,,,,,AMP,right,0.9338023950112984,,,right,0,0.9338023950112984,0,,,,,,,,,,,,,,,,,,,,,,1063,2019_Mar_13_1500,mf_amp_cond1,3.0.4,59.9986530095063,
care,touls,&&&&&,left,care.virtue,,,,,,,0,293,293,293,,,,,,,,,,,,,,,,,,,,,AMP,left,0.9504675756616052,,,left,1,0.9504675756616052,1,,,,,,,,,,,,,,,,,,,,,,1063,2019_Mar_13_1500,mf_amp_cond1,3.0.4,59.9986530095063,
sickyay,quarterbocks,&&&&&&&&&&&&,None,nonword,,,,,,,0,294,294,294,,,,,,,,,,,,,,,,,,,,,AMP,left,0.9171266306075267,,,left,0,0.9171266306075267,0,,,,,,,,,,,,,,,,,,,,,,1063,2019_Mar_13_1500,mf_amp_cond1,3.0.4,59.9986530095063,
restore,nuckheap,&&&&&&&&,left,care.virtue,,,,,,,0,295,295,295,,,,,,,,,,,,,,,,,,,,,AMP,right,0.7337394058704376,,,right,0,0.7337394058704376,0,,,,,,,,,,,,,,,,,,,,,,1063,2019_Mar_13_1500,mf_amp_cond1,3.0.4,59.9986530095063,
love,erdest,&&&&&&,left,loyalty.virtue,,,,,,,0,296,296,296,,,,,,,,,,,,,,,,,,,,,AMP,right,0.20027498414856382,,,right,0,0.20027498414856382,0,,,,,,,,,,,,,,,,,,,,,,1063,2019_Mar_13_1500,mf_amp_cond1,3.0.4,59.9986530095063,
police,allears,&&&&&&&,right,authority.vice,,,,,,,0,297,297,297,,,,,,,,,,,,,,,,,,,,,AMP,right,0.3669963867869228,,,right,1,0.3669963867869228,1,,,,,,,,,,,,,,,,,,,,,,1063,2019_Mar_13_1500,mf_amp_cond1,3.0.4,59.9986530095063,
pafer,sowntrodden,&&&&&&&&&&&,None,nonword,,,,,,,0,298,298,298,,,,,,,,,,,,,,,,,,,,,AMP,left,0.9004332267213613,,,left,0,0.9004332267213613,0,,,,,,,,,,,,,,,,,,,,,,1063,2019_Mar_13_1500,mf_amp_cond1,3.0.4,59.9986530095063,
hand,baladroit,&&&&&&&&&,left,sanctity.virtue,,,,,,,0,299,299,299,,,,,,,,,,,,,,,,,,,,,AMP,right,0.3669915760110598,,,right,0,0.3669915760110598,0,,,,,,,,,,,,,,,,,,,,,,1063,2019_Mar_13_1500,mf_amp_cond1,3.0.4,59.9986530095063,
festate,sliptery,&&&&&&&&,None,nonword,,,,,,,0,300,300,300,,,,,,,,,,,,,,,,,,,,,AMP,left,0.567029228375759,,,left,0,0.567029228375759,0,,,,,,,,,,,,,,,,,,,,,,1063,2019_Mar_13_1500,mf_amp_cond1,3.0.4,59.9986530095063,
harassment,ejanulated,&&&&&&&&&&,right,sanctity.vice,,,,,,,0,301,301,301,,,,,,,,,,,,,,,,,,,,,AMP,left,0.600372418470215,,,left,0,0.600372418470215,0,,,,,,,,,,,,,,,,,,,,,,1063,2019_Mar_13_1500,mf_amp_cond1,3.0.4,59.9986530095063,
help,ilportation,&&&&&&&&&&&,left,care.virtue,,,,,,,0,302,302,302,,,,,,,,,,,,,,,,,,,,,AMP,left,1.9006837079359684,,,left,1,1.9006837079359684,1,,,,,,,,,,,,,,,,,,,,,,1063,2019_Mar_13_1500,mf_amp_cond1,3.0.4,59.9986530095063,
energy,pistraught,&&&&&&&&&&,left,sanctity.virtue,,,,,,,0,303,303,303,,,,,,,,,,,,,,,,,,,,,AMP,right,1.3172109154693317,,,right,0,1.3172109154693317,0,,,,,,,,,,,,,,,,,,,,,,1063,2019_Mar_13_1500,mf_amp_cond1,3.0.4,59.9986530095063,
charges,divility,&&&&&&&&,right,fairness.vice,,,,,,,0,304,304,304,,,,,,,,,,,,,,,,,,,,,AMP,left,0.8504556449188385,,,left,0,0.8504556449188385,0,,,,,,,,,,,,,,,,,,,,,,1063,2019_Mar_13_1500,mf_amp_cond1,3.0.4,59.9986530095063,
friends,ecgagement,&&&&&&&&&&,left,loyalty.virtue,,,,,,,0,305,305,305,,,,,,,,,,,,,,,,,,,,,AMP,right,0.28366182403988205,,,right,0,0.28366182403988205,0,,,,,,,,,,,,,,,,,,,,,,1063,2019_Mar_13_1500,mf_amp_cond1,3.0.4,59.9986530095063,
refused,ittutable,&&&&&&&&&,right,authority.vice,,,,,,,0,306,306,306,,,,,,,,,,,,,,,,,,,,,AMP,left,2.0007010909030214,,,left,0,2.0007010909030214,0,,,,,,,,,,,,,,,,,,,,,,1063,2019_Mar_13_1500,mf_amp_cond1,3.0.4,59.9986530095063,
army,bycled,&&&&&&,right,loyalty.vice,,,,,,,0,307,307,307,,,,,,,,,,,,,,,,,,,,,AMP,right,0.4837155123241246,,,right,1,0.4837155123241246,1,,,,,,,,,,,,,,,,,,,,,,1063,2019_Mar_13_1500,mf_amp_cond1,3.0.4,59.9986530095063,
praised,galamitous,&&&&&&&&&&,left,loyalty.virtue,,,,,,,0,308,308,308,,,,,,,,,,,,,,,,,,,,,AMP,right,0.21694978637970053,,,right,0,0.21694978637970053,0,,,,,,,,,,,,,,,,,,,,,,1063,2019_Mar_13_1500,mf_amp_cond1,3.0.4,59.9986530095063,
crime,bruthfulness,&&&&&&&&&&&&,right,fairness.vice,,,,,,,0,309,309,309,,,,,,,,,,,,,,,,,,,,,AMP,right,0.3503215845557861,,,right,1,0.3503215845557861,1,,,,,,,,,,,,,,,,,,,,,,1063,2019_Mar_13_1500,mf_amp_cond1,3.0.4,59.9986530095063,
intelligence,asn,&&&,left,loyalty.virtue,,,,,,,0,310,310,310,,,,,,,,,,,,,,,,,,,,,AMP,right,0.5503810457885265,,,right,0,0.5503810457885265,0,,,,,,,,,,,,,,,,,,,,,,1063,2019_Mar_13_1500,mf_amp_cond1,3.0.4,59.9986530095063,
unpleasant,gondensed,&&&&&&&&&,None,control,,,,,,,0,311,311,311,,,,,,,,,,,,,,,,,,,,,AMP,left,1.1171674901561346,,,left,0,1.1171674901561346,0,,,,,,,,,,,,,,,,,,,,,,1063,2019_Mar_13_1500,mf_amp_cond1,3.0.4,59.9986530095063,
arrests,rorroborated,&&&&&&&&&&&&,right,authority.vice,,,,,,,0,312,312,312,,,,,,,,,,,,,,,,,,,,,AMP,left,2.3674736160901375,,,left,0,2.3674736160901375,0,,,,,,,,,,,,,,,,,,,,,,1063,2019_Mar_13_1500,mf_amp_cond1,3.0.4,59.9986530095063,
corruption,pharing,&&&&&&&,right,sanctity.vice,,,,,,,0,313,313,313,,,,,,,,,,,,,,,,,,,,,AMP,left,4.084619040833786,,,left,0,4.084619040833786,0,,,,,,,,,,,,,,,,,,,,,,1063,2019_Mar_13_1500,mf_amp_cond1,3.0.4,59.9986530095063,
peace,troubla,&&&&&&&,left,care.virtue,,,,,,,0,314,314,314,,,,,,,,,,,,,,,,,,,,,AMP,right,0.3503276781993918,,,right,0,0.3503276781993918,0,,,,,,,,,,,,,,,,,,,,,,1063,2019_Mar_13_1500,mf_amp_cond1,3.0.4,59.9986530095063,
serial,lempestuous,&&&&&&&&&&&,right,sanctity.vice,,,,,,,0,315,315,315,,,,,,,,,,,,,,,,,,,,,AMP,left,0.21695716289104894,,,left,0,0.21695716289104894,0,,,,,,,,,,,,,,,,,,,,,,1063,2019_Mar_13_1500,mf_amp_cond1,3.0.4,59.9986530095063,
sharing,lorthwhile,&&&&&&&&&&,left,loyalty.virtue,,,,,,,0,316,316,316,,,,,,,,,,,,,,,,,,,,,AMP,right,0.48368696836405434,,,right,0,0.48368696836405434,0,,,,,,,,,,,,,,,,,,,,,,1063,2019_Mar_13_1500,mf_amp_cond1,3.0.4,59.9986530095063,
improve,fangsters,&&&&&&&&&,left,care.virtue,,,,,,,0,317,317,317,,,,,,,,,,,,,,,,,,,,,AMP,right,0.6503920143586583,,,right,0,0.6503920143586583,0,,,,,,,,,,,,,,,,,,,,,,1063,2019_Mar_13_1500,mf_amp_cond1,3.0.4,59.9986530095063,
credit,imebreaker,&&&&&&&&&&,left,fairness.virtue,,,,,,,0,318,318,318,,,,,,,,,,,,,,,,,,,,,AMP,right,2.0173925705021247,,,right,0,2.0173925705021247,0,,,,,,,,,,,,,,,,,,,,,,1063,2019_Mar_13_1500,mf_amp_cond1,3.0.4,59.9986530095063,
powerful,neneficence,&&&&&&&&&&&,left,authority.virtue,,,,,,,0,319,319,319,,,,,,,,,,,,,,,,,,,,,AMP,right,0.23349822545424104,,,right,0,0.23349822545424104,0,,,,,,,,,,,,,,,,,,,,,,1063,2019_Mar_13_1500,mf_amp_cond1,3.0.4,59.9986530095063,
slavery,lachelor,&&&&&&&&,right,loyalty.vice,,,,,,,0,320,320,320,,,,,,,,,,,,,,,,,,,,,AMP,left,0.28361756485537626,,,left,0,0.28361756485537626,0,,,,,,,,,,,,,,,,,,,,,,1063,2019_Mar_13_1500,mf_amp_cond1,3.0.4,59.9986530095063,
illegal,metibolic,&&&&&&&&&,right,fairness.vice,,,,,,,0,321,321,321,,,,,,,,,,,,,,,,,,,,,AMP,left,0.30031417598365806,,,left,0,0.30031417598365806,0,,,,,,,,,,,,,,,,,,,,,,1063,2019_Mar_13_1500,mf_amp_cond1,3.0.4,59.9986530095063,
blamed,glacenta,&&&&&&&&,right,loyalty.vice,,,,,,,0,322,322,322,,,,,,,,,,,,,,,,,,,,,AMP,left,0.26698221103288233,,,left,0,0.26698221103288233,0,,,,,,,,,,,,,,,,,,,,,,1063,2019_Mar_13_1500,mf_amp_cond1,3.0.4,59.9986530095063,
framatic,greaks,&&&&&&,None,nonword,,,,,,,0,323,323,323,,,,,,,,,,,,,,,,,,,,,AMP,right,1.3505794423399493,,,right,0,1.3505794423399493,0,,,,,,,,,,,,,,,,,,,,,,1063,2019_Mar_13_1500,mf_amp_cond1,3.0.4,59.9986530095063,
injured,gationwide,&&&&&&&&&&,right,care.vice,,,,,,,0,324,324,324,,,,,,,,,,,,,,,,,,,,,AMP,left,1.5006013474194333,,,left,0,1.5006013474194333,0,,,,,,,,,,,,,,,,,,,,,,1063,2019_Mar_13_1500,mf_amp_cond1,3.0.4,59.9986530095063,
embrace,egpeditious,&&&&&&&&&&&,left,authority.virtue,,,,,,,0,325,325,325,,,,,,,,,,,,,,,,,,,,,AMP,right,0.4836885719851125,,,right,0,0.4836885719851125,0,,,,,,,,,,,,,,,,,,,,,,1063,2019_Mar_13_1500,mf_amp_cond1,3.0.4,59.9986530095063,
useful,dumid,&&&&&,left,authority.virtue,,,,,,,0,326,326,326,,,,,,,,,,,,,,,,,,,,,AMP,right,0.3503507699642796,,,right,0,0.3503507699642796,0,,,,,,,,,,,,,,,,,,,,,,1063,2019_Mar_13_1500,mf_amp_cond1,3.0.4,59.9986530095063,
attacks,oam,&&&,right,care.vice,,,,,,,0,327,327,327,,,,,,,,,,,,,,,,,,,,,AMP,left,0.26695302562438883,,,left,0,0.26695302562438883,0,,,,,,,,,,,,,,,,,,,,,,1063,2019_Mar_13_1500,mf_amp_cond1,3.0.4,59.9986530095063,
,,,,,,,,,,,,,,,,,,,,,,,,,,,,,,,,,,,,,,,,,,,,3,7.687,,,,,,,,,,,,,,,,,,,,1063,2019_Mar_13_1500,mf_amp_cond1,3.0.4,59.9986530095063,
,,,,,,,,,,,,,,,,,,,,,,,,,,,,,,,,,,,,,,,,,,,,,,6,6.82,,,,,,,,,,,,,,,,,,1063,2019_Mar_13_1500,mf_amp_cond1,3.0.4,59.9986530095063,
,,,,,,,,,,,,,,,,,,,,,,,,,,,,,,,,,,,,,,,,,,,,,,,,4,6.32,,,,,,,,,,,,,,,,1063,2019_Mar_13_1500,mf_amp_cond1,3.0.4,59.9986530095063,
,,,,,,,,,,,,,,,,,,,,,,,,,,,,,,,,,,,,,,,,,,,,,,,,,,right,1.600630596949486,,,,,,,,,,,,,,1063,2019_Mar_13_1500,mf_amp_cond1,3.0.4,59.9986530095063,
keyboard,,&&&&&&&,,,,,,,,,,,,,0,0,0,0,,,,,,,,,,,,,,,,,LDT_prac,right,1.833859418751672,,,,,,0,,,,,,,,,right,1.833859418751672,,,,,,,,,,,,1063,2019_Mar_13_1500,mf_amp_cond1,3.0.4,59.9986530095063,
bisebell,,&&&&&&&,,,,,,,,,,,,,0,1,1,1,,,,,,,,,,,,,,,,,LDT_prac,right,0.7170796774153132,,,,,,0,,,,,,,,,right,0.7170796774153132,,,,,,,,,,,,1063,2019_Mar_13_1500,mf_amp_cond1,3.0.4,59.9986530095063,
,,,,,,,,,,,,,,,,,,,,,,,,,,,,,,,,,,,,,,,,,,,,,,,,,,,,,,right,1.133839726651786,,,,,,,,,,1063,2019_Mar_13_1500,mf_amp_cond1,3.0.4,59.9986530095063,
although,,&&&&&&&&,left,neutral,,,,,,,,,,,,,,,0,0,0,64,,,,,,,,,,,,,LDT,left,2.067406393471174,,,,,,1,,,,,,,,,,,,,left,1,2.067406393471174,,,,,,,1063,2019_Mar_13_1500,mf_amp_cond1,3.0.4,59.9986530095063,
further,,&&&&&&&,left,neutral,,,,,,,,,,,,,,,0,1,1,199,,,,,,,,,,,,,LDT,right,0.8837908170535229,,,,,,0,,,,,,,,,,,,,right,0,0.8837908170535229,,,,,,,1063,2019_Mar_13_1500,mf_amp_cond1,3.0.4,59.9986530095063,
party,,&&&&&,left,loyalty.virtue,,,,,,,,,,,,,,,0,2,2,41,,,,,,,,,,,,,LDT,right,1.4339149672305211,,,,,,0,,,,,,,,,,,,,right,0,1.4339149672305211,,,,,,,1063,2019_Mar_13_1500,mf_amp_cond1,3.0.4,59.9986530095063,
war,,&&&,left,sanctity.vice,,,,,,,,,,,,,,,0,3,3,123,,,,,,,,,,,,,LDT,right,0.6837348837289028,,,,,,0,,,,,,,,,,,,,right,0,0.6837348837289028,,,,,,,1063,2019_Mar_13_1500,mf_amp_cond1,3.0.4,59.9986530095063,
great,,&&&&&,left,loyalty.virtue,,,,,,,,,,,,,,,0,4,4,135,,,,,,,,,,,,,LDT,right,0.6004019245447125,,,,,,0,,,,,,,,,,,,,right,0,0.6004019245447125,,,,,,,1063,2019_Mar_13_1500,mf_amp_cond1,3.0.4,59.9986530095063,
fair,,&&&&,left,fairness.virtue,,,,,,,,,,,,,,,0,5,5,122,,,,,,,,,,,,,LDT,right,0.6503609046631027,,,,,,0,,,,,,,,,,,,,right,0,0.6503609046631027,,,,,,,1063,2019_Mar_13_1500,mf_amp_cond1,3.0.4,59.9986530095063,
give,,&&&&,left,neutral,,,,,,,,,,,,,,,0,6,6,190,,,,,,,,,,,,,LDT,right,0.6170590872934554,,,,,,0,,,,,,,,,,,,,right,0,0.6170590872934554,,,,,,,1063,2019_Mar_13_1500,mf_amp_cond1,3.0.4,59.9986530095063,
fegard,,&&&&&&,right,nonword,,,,,,,,,,,,,,,0,7,7,189,,,,,,,,,,,,,LDT,left,1.3672465473064221,,,,,,0,,,,,,,,,,,,,left,0,1.3672465473064221,,,,,,,1063,2019_Mar_13_1500,mf_amp_cond1,3.0.4,59.9986530095063,
about,,&&&&&,left,neutral,,,,,,,,,,,,,,,0,8,8,84,,,,,,,,,,,,,LDT,right,1.3171897480206098,,,,,,0,,,,,,,,,,,,,right,0,1.3171897480206098,,,,,,,1063,2019_Mar_13_1500,mf_amp_cond1,3.0.4,59.9986530095063,
less,,&&&&,left,neutral,,,,,,,,,,,,,,,0,9,9,8,,,,,,,,,,,,,LDT,right,0.6670652129978407,,,,,,0,,,,,,,,,,,,,right,0,0.6670652129978407,,,,,,,1063,2019_Mar_13_1500,mf_amp_cond1,3.0.4,59.9986530095063,
ugeasily,,&&&&&&&&,right,nonword,,,,,,,,,,,,,,,0,10,10,193,,,,,,,,,,,,,LDT,left,0.9337748131947592,,,,,,0,,,,,,,,,,,,,left,0,0.9337748131947592,,,,,,,1063,2019_Mar_13_1500,mf_amp_cond1,3.0.4,59.9986530095063,
prosecution,,&&&&&&&&&&&,left,authority.vice,,,,,,,,,,,,,,,0,11,11,196,,,,,,,,,,,,,LDT,left,0.9838152558077127,,,,,,1,,,,,,,,,,,,,left,1,0.9838152558077127,,,,,,,1063,2019_Mar_13_1500,mf_amp_cond1,3.0.4,59.9986530095063,
benefit,,&&&&&&&,left,fairness.virtue,,,,,,,,,,,,,,,0,12,12,52,,,,,,,,,,,,,LDT,left,1.5506193397159223,,,,,,1,,,,,,,,,,,,,left,1,1.5506193397159223,,,,,,,1063,2019_Mar_13_1500,mf_amp_cond1,3.0.4,59.9986530095063,
forced,,&&&&&&,left,fairness.vice,,,,,,,,,,,,,,,0,13,13,165,,,,,,,,,,,,,LDT,right,0.6670719480898697,,,,,,0,,,,,,,,,,,,,right,0,0.6670719480898697,,,,,,,1063,2019_Mar_13_1500,mf_amp_cond1,3.0.4,59.9986530095063,
latterly,,&&&&&&&&,left,neutral,,,,,,,,,,,,,,,0,14,14,55,,,,,,,,,,,,,LDT,left,2.1507557092700154,,,,,,1,,,,,,,,,,,,,left,1,2.1507557092700154,,,,,,,1063,2019_Mar_13_1500,mf_amp_cond1,3.0.4,59.9986530095063,
focomotive,,&&&&&&&&&&,right,nonword,,,,,,,,,,,,,,,0,15,15,61,,,,,,,,,,,,,LDT,right,0.7670627113839146,,,,,,1,,,,,,,,,,,,,right,1,0.7670627113839146,,,,,,,1063,2019_Mar_13_1500,mf_amp_cond1,3.0.4,59.9986530095063,
brudent,,&&&&&&&,right,nonword,,,,,,,,,,,,,,,0,16,16,57,,,,,,,,,,,,,LDT,left,1.9507145289971959,,,,,,0,,,,,,,,,,,,,left,0,1.9507145289971959,,,,,,,1063,2019_Mar_13_1500,mf_amp_cond1,3.0.4,59.9986530095063,
precificity,,&&&&&&&&&&&,right,nonword,,,,,,,,,,,,,,,0,17,17,47,,,,,,,,,,,,,LDT,left,1.7506419183046091,,,,,,0,,,,,,,,,,,,,left,0,1.7506419183046091,,,,,,,1063,2019_Mar_13_1500,mf_amp_cond1,3.0.4,59.9986530095063,
dignity,,&&&&&&&,left,sanctity.virtue,,,,,,,,,,,,,,,0,18,18,181,,,,,,,,,,,,,LDT,right,0.6837473917694297,,,,,,0,,,,,,,,,,,,,right,0,0.6837473917694297,,,,,,,1063,2019_Mar_13_1500,mf_amp_cond1,3.0.4,59.9986530095063,
Phintoism,,&&&&&&&&&,right,nonword,,,,,,,,,,,,,,,0,19,19,109,,,,,,,,,,,,,LDT,right,1.0171587666263804,,,,,,1,,,,,,,,,,,,,right,1,1.0171587666263804,,,,,,,1063,2019_Mar_13_1500,mf_amp_cond1,3.0.4,59.9986530095063,
else,,&&&&,left,neutral,,,,,,,,,,,,,,,0,20,20,169,,,,,,,,,,,,,LDT,left,0.8170941738935653,,,,,,1,,,,,,,,,,,,,left,1,0.8170941738935653,,,,,,,1063,2019_Mar_13_1500,mf_amp_cond1,3.0.4,59.9986530095063,
mostly,,&&&&&&,left,neutral,,,,,,,,,,,,,,,0,21,21,21,,,,,,,,,,,,,LDT,left,1.9673700881248806,,,,,,1,,,,,,,,,,,,,left,1,1.9673700881248806,,,,,,,1063,2019_Mar_13_1500,mf_amp_cond1,3.0.4,59.9986530095063,
honored,,&&&&&&&,left,authority.virtue,,,,,,,,,,,,,,,0,22,22,116,,,,,,,,,,,,,LDT,right,1.0171545972989406,,,,,,0,,,,,,,,,,,,,right,0,1.0171545972989406,,,,,,,1063,2019_Mar_13_1500,mf_amp_cond1,3.0.4,59.9986530095063,
toward,,&&&&&&,left,neutral,,,,,,,,,,,,,,,0,23,23,54,,,,,,,,,,,,,LDT,right,0.650403880950762,,,,,,0,,,,,,,,,,,,,right,0,0.650403880950762,,,,,,,1063,2019_Mar_13_1500,mf_amp_cond1,3.0.4,59.9986530095063,
perified,,&&&&&&&&,right,nonword,,,,,,,,,,,,,,,0,24,24,111,,,,,,,,,,,,,LDT,right,0.6837387323612347,,,,,,1,,,,,,,,,,,,,right,1,0.6837387323612347,,,,,,,1063,2019_Mar_13_1500,mf_amp_cond1,3.0.4,59.9986530095063,
latter,,&&&&&&,left,neutral,,,,,,,,,,,,,,,0,25,25,147,,,,,,,,,,,,,LDT,left,1.834020419511944,,,,,,1,,,,,,,,,,,,,left,1,1.834020419511944,,,,,,,1063,2019_Mar_13_1500,mf_amp_cond1,3.0.4,59.9986530095063,
there,,&&&&&,left,neutral,,,,,,,,,,,,,,,0,26,26,43,,,,,,,,,,,,,LDT,right,0.7004141760407947,,,,,,0,,,,,,,,,,,,,right,0,0.7004141760407947,,,,,,,1063,2019_Mar_13_1500,mf_amp_cond1,3.0.4,59.9986530095063,
become,,&&&&&&,left,neutral,,,,,,,,,,,,,,,0,27,27,138,,,,,,,,,,,,,LDT,left,0.48368087472044863,,,,,,1,,,,,,,,,,,,,left,1,0.48368087472044863,,,,,,,1063,2019_Mar_13_1500,mf_amp_cond1,3.0.4,59.9986530095063,
freedom,,&&&&&&&,left,sanctity.virtue,,,,,,,,,,,,,,,0,28,28,70,,,,,,,,,,,,,LDT,right,0.483711342967581,,,,,,0,,,,,,,,,,,,,right,0,0.483711342967581,,,,,,,1063,2019_Mar_13_1500,mf_amp_cond1,3.0.4,59.9986530095063,
pescinded,,&&&&&&&&&,right,nonword,,,,,,,,,,,,,,,0,29,29,90,,,,,,,,,,,,,LDT,left,0.5337059228331782,,,,,,0,,,,,,,,,,,,,left,0,0.5337059228331782,,,,,,,1063,2019_Mar_13_1500,mf_amp_cond1,3.0.4,59.9986530095063,
papert,,&&&&&&,right,nonword,,,,,,,,,,,,,,,0,30,30,192,,,,,,,,,,,,,LDT,right,0.7003917257243302,,,,,,1,,,,,,,,,,,,,right,1,0.7003917257243302,,,,,,,1063,2019_Mar_13_1500,mf_amp_cond1,3.0.4,59.9986530095063,
presentkess,,&&&&&&&&&&&,right,nonword,,,,,,,,,,,,,,,0,31,31,59,,,,,,,,,,,,,LDT,right,0.8671096004545689,,,,,,1,,,,,,,,,,,,,right,1,0.8671096004545689,,,,,,,1063,2019_Mar_13_1500,mf_amp_cond1,3.0.4,59.9986530095063,
civilians,,&&&&&&&&&,left,care.vice,,,,,,,,,,,,,,,0,32,32,175,,,,,,,,,,,,,LDT,left,0.7837936393625569,,,,,,1,,,,,,,,,,,,,left,1,0.7837936393625569,,,,,,,1063,2019_Mar_13_1500,mf_amp_cond1,3.0.4,59.9986530095063,
shoirmaster,,&&&&&&&&&&&,None,nonword,,,,,,,,,,,,,,,0,33,33,151,,,,,,,,,,,,,LDT,right,0.7670713707921095,,,,,,0,,,,,,,,,,,,,right,0,0.7670713707921095,,,,,,,1063,2019_Mar_13_1500,mf_amp_cond1,3.0.4,59.9986530095063,
been,,&&&&,left,neutral,,,,,,,,,,,,,,,0,34,34,85,,,,,,,,,,,,,LDT,right,1.2838686875475105,,,,,,0,,,,,,,,,,,,,right,0,1.2838686875475105,,,,,,,1063,2019_Mar_13_1500,mf_amp_cond1,3.0.4,59.9986530095063,
each,,&&&&,left,neutral,,,,,,,,,,,,,,,0,35,35,83,,,,,,,,,,,,,LDT,right,0.7670758608437609,,,,,,0,,,,,,,,,,,,,right,0,0.7670758608437609,,,,,,,1063,2019_Mar_13_1500,mf_amp_cond1,3.0.4,59.9986530095063,
reviked,,&&&&&&&,right,nonword,,,,,,,,,,,,,,,0,36,36,103,,,,,,,,,,,,,LDT,left,1.150522867566906,,,,,,0,,,,,,,,,,,,,left,0,1.150522867566906,,,,,,,1063,2019_Mar_13_1500,mf_amp_cond1,3.0.4,59.9986530095063,
cromiscuity,,&&&&&&&&&&&,right,nonword,,,,,,,,,,,,,,,0,37,37,93,,,,,,,,,,,,,LDT,left,0.9337905284191947,,,,,,0,,,,,,,,,,,,,left,0,0.9337905284191947,,,,,,,1063,2019_Mar_13_1500,mf_amp_cond1,3.0.4,59.9986530095063,
neutralust,,&&&&&&&&&&,right,nonword,,,,,,,,,,,,,,,0,38,38,5,,,,,,,,,,,,,LDT,left,1.0504801478236914,,,,,,0,,,,,,,,,,,,,left,0,1.0504801478236914,,,,,,,1063,2019_Mar_13_1500,mf_amp_cond1,3.0.4,59.9986530095063,
towards,,&&&&&&&,left,neutral,,,,,,,,,,,,,,,0,39,39,173,,,,,,,,,,,,,LDT,right,0.6337245886679739,,,,,,0,,,,,,,,,,,,,right,0,0.6337245886679739,,,,,,,1063,2019_Mar_13_1500,mf_amp_cond1,3.0.4,59.9986530095063,
respect,,&&&&&&&,left,sanctity.virtue,,,,,,,,,,,,,,,0,40,40,164,,,,,,,,,,,,,LDT,right,0.43368148407898843,,,,,,0,,,,,,,,,,,,,right,0,0.43368148407898843,,,,,,,1063,2019_Mar_13_1500,mf_amp_cond1,3.0.4,59.9986530095063,
victims,,&&&&&&&,left,care.vice,,,,,,,,,,,,,,,0,41,41,174,,,,,,,,,,,,,LDT,right,0.43369206780334935,,,,,,0,,,,,,,,,,,,,right,0,0.43369206780334935,,,,,,,1063,2019_Mar_13_1500,mf_amp_cond1,3.0.4,59.9986530095063,
clattening,,&&&&&&&&&&,right,nonword,,,,,,,,,,,,,,,0,42,42,126,,,,,,,,,,,,,LDT,right,0.4336635238141753,,,,,,1,,,,,,,,,,,,,right,1,0.4336635238141753,,,,,,,1063,2019_Mar_13_1500,mf_amp_cond1,3.0.4,59.9986530095063,
could,,&&&&&,left,neutral,,,,,,,,,,,,,,,0,43,43,142,,,,,,,,,,,,,LDT,right,0.800440218357835,,,,,,0,,,,,,,,,,,,,right,0,0.800440218357835,,,,,,,1063,2019_Mar_13_1500,mf_amp_cond1,3.0.4,59.9986530095063,
ebbitter,,&&&&&&&&,right,nonword,,,,,,,,,,,,,,,0,44,44,100,,,,,,,,,,,,,LDT,left,1.1671912554302253,,,,,,0,,,,,,,,,,,,,left,0,1.1671912554302253,,,,,,,1063,2019_Mar_13_1500,mf_amp_cond1,3.0.4,59.9986530095063,
rivernoat,,&&&&&&&&&,right,nonword,,,,,,,,,,,,,,,0,45,45,4,,,,,,,,,,,,,LDT,right,1.6839818370644934,,,,,,1,,,,,,,,,,,,,right,1,1.6839818370644934,,,,,,,1063,2019_Mar_13_1500,mf_amp_cond1,3.0.4,59.9986530095063,
slending,,&&&&&&&&,right,nonword,,,,,,,,,,,,,,,0,46,46,162,,,,,,,,,,,,,LDT,right,0.9671346806571819,,,,,,1,,,,,,,,,,,,,right,1,0.9671346806571819,,,,,,,1063,2019_Mar_13_1500,mf_amp_cond1,3.0.4,59.9986530095063,
terrorists,,&&&&&&&&&&,left,fairness.vice,,,,,,,,,,,,,,,0,47,47,14,,,,,,,,,,,,,LDT,left,0.8337878985330462,,,,,,1,,,,,,,,,,,,,left,1,0.8337878985330462,,,,,,,1063,2019_Mar_13_1500,mf_amp_cond1,3.0.4,59.9986530095063,
violations,,&&&&&&&&&&,left,sanctity.vice,,,,,,,,,,,,,,,0,48,48,74,,,,,,,,,,,,,LDT,right,1.1005119310575537,,,,,,0,,,,,,,,,,,,,right,0,1.1005119310575537,,,,,,,1063,2019_Mar_13_1500,mf_amp_cond1,3.0.4,59.9986530095063,
least,,&&&&&,left,neutral,,,,,,,,,,,,,,,0,49,49,16,,,,,,,,,,,,,LDT,right,0.6504042016458698,,,,,,0,,,,,,,,,,,,,right,0,0.6504042016458698,,,,,,,1063,2019_Mar_13_1500,mf_amp_cond1,3.0.4,59.9986530095063,
free,,&&&&,left,fairness.virtue,,,,,,,,,,,,,,,0,50,50,38,,,,,,,,,,,,,LDT,right,0.8504713601432741,,,,,,0,,,,,,,,,,,,,right,0,0.8504713601432741,,,,,,,1063,2019_Mar_13_1500,mf_amp_cond1,3.0.4,59.9986530095063,
done,,&&&&,left,neutral,,,,,,,,,,,,,,,0,51,51,112,,,,,,,,,,,,,LDT,left,0.5170314413262531,,,,,,1,,,,,,,,,,,,,left,1,0.5170314413262531,,,,,,,1063,2019_Mar_13_1500,mf_amp_cond1,3.0.4,59.9986530095063,
infet,,&&&&&,right,nonword,,,,,,,,,,,,,,,0,52,52,75,,,,,,,,,,,,,LDT,right,0.6003807571250945,,,,,,1,,,,,,,,,,,,,right,1,0.6003807571250945,,,,,,,1063,2019_Mar_13_1500,mf_amp_cond1,3.0.4,59.9986530095063,
fontacts,,&&&&&&&&,right,nonword,,,,,,,,,,,,,,,0,53,53,13,,,,,,,,,,,,,LDT,right,0.8837805540533736,,,,,,1,,,,,,,,,,,,,right,1,0.8837805540533736,,,,,,,1063,2019_Mar_13_1500,mf_amp_cond1,3.0.4,59.9986530095063,
grovelire,,&&&&&&&&&,right,nonword,,,,,,,,,,,,,,,0,54,54,72,,,,,,,,,,,,,LDT,right,1.8673661753418855,,,,,,1,,,,,,,,,,,,,right,1,1.8673661753418855,,,,,,,1063,2019_Mar_13_1500,mf_amp_cond1,3.0.4,59.9986530095063,
whereafter,,&&&&&&&&&&,left,neutral,,,,,,,,,,,,,,,0,55,55,39,,,,,,,,,,,,,LDT,left,2.050698236504104,,,,,,1,,,,,,,,,,,,,left,1,2.050698236504104,,,,,,,1063,2019_Mar_13_1500,mf_amp_cond1,3.0.4,59.9986530095063,
win,,&&&,left,fairness.virtue,,,,,,,,,,,,,,,0,56,56,152,,,,,,,,,,,,,LDT,right,0.7170799981395248,,,,,,0,,,,,,,,,,,,,right,0,0.7170799981395248,,,,,,,1063,2019_Mar_13_1500,mf_amp_cond1,3.0.4,59.9986530095063,
front,,&&&&&,left,neutral,,,,,,,,,,,,,,,0,57,57,15,,,,,,,,,,,,,LDT,right,0.6503743748471607,,,,,,0,,,,,,,,,,,,,right,0,0.6503743748471607,,,,,,,1063,2019_Mar_13_1500,mf_amp_cond1,3.0.4,59.9986530095063,
with,,&&&&,left,neutral,,,,,,,,,,,,,,,0,58,58,117,,,,,,,,,,,,,LDT,right,0.650369243347086,,,,,,0,,,,,,,,,,,,,right,0,0.650369243347086,,,,,,,1063,2019_Mar_13_1500,mf_amp_cond1,3.0.4,59.9986530095063,
totalestic,,&&&&&&&&&&,None,nonword,,,,,,,,,,,,,,,0,59,59,148,,,,,,,,,,,,,LDT,left,0.9337796239706222,,,,,,0,,,,,,,,,,,,,left,0,0.9337796239706222,,,,,,,1063,2019_Mar_13_1500,mf_amp_cond1,3.0.4,59.9986530095063,
seem,,&&&&,left,neutral,,,,,,,,,,,,,,,0,60,60,188,,,,,,,,,,,,,LDT,right,0.6337556983635295,,,,,,0,,,,,,,,,,,,,right,0,0.6337556983635295,,,,,,,1063,2019_Mar_13_1500,mf_amp_cond1,3.0.4,59.9986530095063,
noped,,&&&&&,right,nonword,,,,,,,,,,,,,,,0,61,61,81,,,,,,,,,,,,,LDT,right,0.6837791429134086,,,,,,1,,,,,,,,,,,,,right,1,0.6837791429134086,,,,,,,1063,2019_Mar_13_1500,mf_amp_cond1,3.0.4,59.9986530095063,
chared,,&&&&&&,right,nonword,,,,,,,,,,,,,,,0,62,62,60,,,,,,,,,,,,,LDT,right,0.6670703444979154,,,,,,1,,,,,,,,,,,,,right,1,0.6670703444979154,,,,,,,1063,2019_Mar_13_1500,mf_amp_cond1,3.0.4,59.9986530095063,
frojecting,,&&&&&&&&&&,right,nonword,,,,,,,,,,,,,,,0,63,63,73,,,,,,,,,,,,,LDT,right,0.7170774323749356,,,,,,1,,,,,,,,,,,,,right,1,0.7170774323749356,,,,,,,1063,2019_Mar_13_1500,mf_amp_cond1,3.0.4,59.9986530095063,
thru,,&&&&,left,neutral,,,,,,,,,,,,,,,0,64,64,86,,,,,,,,,,,,,LDT,right,0.633739983139094,,,,,,0,,,,,,,,,,,,,right,0,0.633739983139094,,,,,,,1063,2019_Mar_13_1500,mf_amp_cond1,3.0.4,59.9986530095063,
ning,,&&&&,right,nonword,,,,,,,,,,,,,,,0,65,65,158,,,,,,,,,,,,,LDT,right,0.76709574542474,,,,,,1,,,,,,,,,,,,,right,1,0.76709574542474,,,,,,,1063,2019_Mar_13_1500,mf_amp_cond1,3.0.4,59.9986530095063,
frocessing,,&&&&&&&&&&,right,nonword,,,,,,,,,,,,,,,0,66,66,110,,,,,,,,,,,,,LDT,right,0.9171144432912115,,,,,,1,,,,,,,,,,,,,right,1,0.9171144432912115,,,,,,,1063,2019_Mar_13_1500,mf_amp_cond1,3.0.4,59.9986530095063,
squets,,&&&&&&,right,nonword,,,,,,,,,,,,,,,0,67,67,106,,,,,,,,,,,,,LDT,left,0.5837165386183187,,,,,,0,,,,,,,,,,,,,left,0,0.5837165386183187,,,,,,,1063,2019_Mar_13_1500,mf_amp_cond1,3.0.4,59.9986530095063,
loyalty,,&&&&&&&,left,loyalty.virtue,,,,,,,,,,,,,,,0,68,68,136,,,,,,,,,,,,,LDT,right,0.5337120165058877,,,,,,0,,,,,,,,,,,,,right,0,0.5337120165058877,,,,,,,1063,2019_Mar_13_1500,mf_amp_cond1,3.0.4,59.9986530095063,
disregord,,&&&&&&&&&,right,nonword,,,,,,,,,,,,,,,0,69,69,114,,,,,,,,,,,,,LDT,left,0.6003862093493808,,,,,,0,,,,,,,,,,,,,left,0,0.6003862093493808,,,,,,,1063,2019_Mar_13_1500,mf_amp_cond1,3.0.4,59.9986530095063,
couldnt,,&&&&&&&,left,neutral,,,,,,,,,,,,,,,0,70,70,177,,,,,,,,,,,,,LDT,right,0.433680842659669,,,,,,0,,,,,,,,,,,,,right,0,0.433680842659669,,,,,,,1063,2019_Mar_13_1500,mf_amp_cond1,3.0.4,59.9986530095063,
framo,,&&&&&,right,nonword,,,,,,,,,,,,,,,0,71,71,104,,,,,,,,,,,,,LDT,left,0.5837290466588456,,,,,,0,,,,,,,,,,,,,left,0,0.5837290466588456,,,,,,,1063,2019_Mar_13_1500,mf_amp_cond1,3.0.4,59.9986530095063,
safety,,&&&&&&,left,care.virtue,,,,,,,,,,,,,,,0,72,72,198,,,,,,,,,,,,,LDT,right,0.4837042871804442,,,,,,0,,,,,,,,,,,,,right,0,0.4837042871804442,,,,,,,1063,2019_Mar_13_1500,mf_amp_cond1,3.0.4,59.9986530095063,
fornicalion,,&&&&&&&&&&&,right,nonword,,,,,,,,,,,,,,,0,73,73,40,,,,,,,,,,,,,LDT,right,0.6337441524956375,,,,,,1,,,,,,,,,,,,,right,1,0.6337441524956375,,,,,,,1063,2019_Mar_13_1500,mf_amp_cond1,3.0.4,59.9986530095063,
everything,,&&&&&&&&&&,left,neutral,,,,,,,,,,,,,,,0,74,74,176,,,,,,,,,,,,,LDT,right,0.40031103292130865,,,,,,0,,,,,,,,,,,,,right,0,0.40031103292130865,,,,,,,1063,2019_Mar_13_1500,mf_amp_cond1,3.0.4,59.9986530095063,
troops,,&&&&&&,left,loyalty.vice,,,,,,,,,,,,,,,0,75,75,118,,,,,,,,,,,,,LDT,right,0.8004726109502371,,,,,,0,,,,,,,,,,,,,right,0,0.8004726109502371,,,,,,,1063,2019_Mar_13_1500,mf_amp_cond1,3.0.4,59.9986530095063,
victim,,&&&&&&,left,care.vice,,,,,,,,,,,,,,,0,76,76,98,,,,,,,,,,,,,LDT,right,0.6670703444979154,,,,,,0,,,,,,,,,,,,,right,0,0.6670703444979154,,,,,,,1063,2019_Mar_13_1500,mf_amp_cond1,3.0.4,59.9986530095063,
forepo,,&&&&&&,right,nonword,,,,,,,,,,,,,,,0,77,77,107,,,,,,,,,,,,,LDT,left,1.2171941739798058,,,,,,0,,,,,,,,,,,,,left,0,1.2171941739798058,,,,,,,1063,2019_Mar_13_1500,mf_amp_cond1,3.0.4,59.9986530095063,
compassion,,&&&&&&&&&&,left,care.virtue,,,,,,,,,,,,,,,0,78,78,153,,,,,,,,,,,,,LDT,right,0.500367543543689,,,,,,0,,,,,,,,,,,,,right,0,0.500367543543689,,,,,,,1063,2019_Mar_13_1500,mf_amp_cond1,3.0.4,59.9986530095063,
photocalkodes,,&&&&&&&&&&&&&,right,nonword,,,,,,,,,,,,,,,0,79,79,186,,,,,,,,,,,,,LDT,left,0.867111524741631,,,,,,0,,,,,,,,,,,,,left,0,0.867111524741631,,,,,,,1063,2019_Mar_13_1500,mf_amp_cond1,3.0.4,59.9986530095063,
edancipation,,&&&&&&&&&&&&,None,nonword,,,,,,,,,,,,,,,0,80,80,78,,,,,,,,,,,,,LDT,right,0.7504164531419519,,,,,,0,,,,,,,,,,,,,right,0,0.7504164531419519,,,,,,,1063,2019_Mar_13_1500,mf_amp_cond1,3.0.4,59.9986530095063,
tislay,,&&&&&&,right,nonword,,,,,,,,,,,,,,,0,81,81,108,,,,,,,,,,,,,LDT,right,0.6335802652756684,,,,,,1,,,,,,,,,,,,,right,1,0.6335802652756684,,,,,,,1063,2019_Mar_13_1500,mf_amp_cond1,3.0.4,59.9986530095063,
encourage,,&&&&&&&&&,left,authority.virtue,,,,,,,,,,,,,,,0,82,82,58,,,,,,,,,,,,,LDT,right,0.8503020207281224,,,,,,0,,,,,,,,,,,,,right,0,0.8503020207281224,,,,,,,1063,2019_Mar_13_1500,mf_amp_cond1,3.0.4,59.9986530095063,
lursuer,,&&&&&&&,right,nonword,,,,,,,,,,,,,,,0,83,83,51,,,,,,,,,,,,,LDT,right,0.9671568102494348,,,,,,1,,,,,,,,,,,,,right,1,0.9671568102494348,,,,,,,1063,2019_Mar_13_1500,mf_amp_cond1,3.0.4,59.9986530095063,
anyhow,,&&&&&&,left,neutral,,,,,,,,,,,,,,,0,84,84,26,,,,,,,,,,,,,LDT,right,1.0338146464491729,,,,,,0,,,,,,,,,,,,,right,0,1.0338146464491729,,,,,,,1063,2019_Mar_13_1500,mf_amp_cond1,3.0.4,59.9986530095063,
men,,&&&,left,loyalty.vice,,,,,,,,,,,,,,,0,85,85,159,,,,,,,,,,,,,LDT,right,0.717075187334558,,,,,,0,,,,,,,,,,,,,right,0,0.717075187334558,,,,,,,1063,2019_Mar_13_1500,mf_amp_cond1,3.0.4,59.9986530095063,
spag,,&&&&,None,nonword,,,,,,,,,,,,,,,0,86,86,42,,,,,,,,,,,,,LDT,right,0.8504309495911002,,,,,,0,,,,,,,,,,,,,right,0,0.8504309495911002,,,,,,,1063,2019_Mar_13_1500,mf_amp_cond1,3.0.4,59.9986530095063,
abuse,,&&&&&,left,sanctity.vice,,,,,,,,,,,,,,,0,87,87,167,,,,,,,,,,,,,LDT,right,0.6837175649416167,,,,,,0,,,,,,,,,,,,,right,0,0.6837175649416167,,,,,,,1063,2019_Mar_13_1500,mf_amp_cond1,3.0.4,59.9986530095063,
reelectiob,,&&&&&&&&&&,right,nonword,,,,,,,,,,,,,,,0,88,88,46,,,,,,,,,,,,,LDT,right,0.6170664637757,,,,,,1,,,,,,,,,,,,,right,1,0.6170664637757,,,,,,,1063,2019_Mar_13_1500,mf_amp_cond1,3.0.4,59.9986530095063,
stindig,,&&&&&&&,right,nonword,,,,,,,,,,,,,,,0,89,89,161,,,,,,,,,,,,,LDT,right,1.017161973810289,,,,,,1,,,,,,,,,,,,,right,1,1.017161973810289,,,,,,,1063,2019_Mar_13_1500,mf_amp_cond1,3.0.4,59.9986530095063,
both,,&&&&,left,neutral,,,,,,,,,,,,,,,0,90,90,50,,,,,,,,,,,,,LDT,left,0.6003980759414844,,,,,,1,,,,,,,,,,,,,left,1,0.6003980759414844,,,,,,,1063,2019_Mar_13_1500,mf_amp_cond1,3.0.4,59.9986530095063,
pullness,,&&&&&&&&,right,nonword,,,,,,,,,,,,,,,0,91,91,66,,,,,,,,,,,,,LDT,right,0.683661759889219,,,,,,1,,,,,,,,,,,,,right,1,0.683661759889219,,,,,,,1063,2019_Mar_13_1500,mf_amp_cond1,3.0.4,59.9986530095063,
hereby,,&&&&&&,left,neutral,,,,,,,,,,,,,,,0,92,92,27,,,,,,,,,,,,,LDT,left,0.7004250804602634,,,,,,1,,,,,,,,,,,,,left,1,0.7004250804602634,,,,,,,1063,2019_Mar_13_1500,mf_amp_cond1,3.0.4,59.9986530095063,
laming,,&&&&&&,right,nonword,,,,,,,,,,,,,,,0,93,93,145,,,,,,,,,,,,,LDT,right,0.6670988884579856,,,,,,1,,,,,,,,,,,,,right,1,0.6670988884579856,,,,,,,1063,2019_Mar_13_1500,mf_amp_cond1,3.0.4,59.9986530095063,
antral,,&&&&&&,right,nonword,,,,,,,,,,,,,,,0,94,94,67,,,,,,,,,,,,,LDT,right,1.033813684276538,,,,,,1,,,,,,,,,,,,,right,1,1.033813684276538,,,,,,,1063,2019_Mar_13_1500,mf_amp_cond1,3.0.4,59.9986530095063,
letish,,&&&&&&,right,nonword,,,,,,,,,,,,,,,0,95,95,3,,,,,,,,,,,,,LDT,right,0.6502415973518509,,,,,,1,,,,,,,,,,,,,right,1,0.6502415973518509,,,,,,,1063,2019_Mar_13_1500,mf_amp_cond1,3.0.4,59.9986530095063,
chadows,,&&&&&&&,right,nonword,,,,,,,,,,,,,,,0,96,96,125,,,,,,,,,,,,,LDT,right,0.9504691792535596,,,,,,1,,,,,,,,,,,,,right,1,0.9504691792535596,,,,,,,1063,2019_Mar_13_1500,mf_amp_cond1,3.0.4,59.9986530095063,
elsewhere,,&&&&&&&&&,left,neutral,,,,,,,,,,,,,,,0,97,97,183,,,,,,,,,,,,,LDT,left,0.567045585019514,,,,,,1,,,,,,,,,,,,,left,1,0.567045585019514,,,,,,,1063,2019_Mar_13_1500,mf_amp_cond1,3.0.4,59.9986530095063,
vicissifude,,&&&&&&&&&&&,right,nonword,,,,,,,,,,,,,,,0,98,98,28,,,,,,,,,,,,,LDT,right,0.533687000424834,,,,,,1,,,,,,,,,,,,,right,1,0.533687000424834,,,,,,,1063,2019_Mar_13_1500,mf_amp_cond1,3.0.4,59.9986530095063,
nackers,,&&&&&&&,right,nonword,,,,,,,,,,,,,,,0,99,99,9,,,,,,,,,,,,,LDT,right,0.5837306502508,,,,,,1,,,,,,,,,,,,,right,1,0.5837306502508,,,,,,,1063,2019_Mar_13_1500,mf_amp_cond1,3.0.4,59.9986530095063,
either,,&&&&&&,left,neutral,,,,,,,,,,,,,,,0,100,100,87,,,,,,,,,,,,,LDT,right,0.7170767909556162,,,,,,0,,,,,,,,,,,,,right,0,0.7170767909556162,,,,,,,1063,2019_Mar_13_1500,mf_amp_cond1,3.0.4,59.9986530095063,
good,,&&&&,left,care.virtue,,,,,,,,,,,,,,,0,101,101,32,,,,,,,,,,,,,LDT,right,0.9338020742870867,,,,,,0,,,,,,,,,,,,,right,0,0.9338020742870867,,,,,,,1063,2019_Mar_13_1500,mf_amp_cond1,3.0.4,59.9986530095063,
baklara,,&&&&&&&,right,nonword,,,,,,,,,,,,,,,0,102,102,157,,,,,,,,,,,,,LDT,right,0.7837586810637731,,,,,,1,,,,,,,,,,,,,right,1,0.7837586810637731,,,,,,,1063,2019_Mar_13_1500,mf_amp_cond1,3.0.4,59.9986530095063,
chreams,,&&&&&&&,right,nonword,,,,,,,,,,,,,,,0,103,103,44,,,,,,,,,,,,,LDT,right,0.817105078313034,,,,,,1,,,,,,,,,,,,,right,1,0.817105078313034,,,,,,,1063,2019_Mar_13_1500,mf_amp_cond1,3.0.4,59.9986530095063,
besides,,&&&&&&&,left,neutral,,,,,,,,,,,,,,,0,104,104,69,,,,,,,,,,,,,LDT,right,0.9171394593431614,,,,,,0,,,,,,,,,,,,,right,0,0.9171394593431614,,,,,,,1063,2019_Mar_13_1500,mf_amp_cond1,3.0.4,59.9986530095063,
torture,,&&&&&&&,left,care.vice,,,,,,,,,,,,,,,0,105,105,140,,,,,,,,,,,,,LDT,left,1.5339583283639513,,,,,,1,,,,,,,,,,,,,left,1,1.5339583283639513,,,,,,,1063,2019_Mar_13_1500,mf_amp_cond1,3.0.4,59.9986530095063,
sonvoy,,&&&&&&,None,nonword,,,,,,,,,,,,,,,0,106,106,6,,,,,,,,,,,,,LDT,right,0.5837171800376382,,,,,,0,,,,,,,,,,,,,right,0,0.5837171800376382,,,,,,,1063,2019_Mar_13_1500,mf_amp_cond1,3.0.4,59.9986530095063,
forty,,&&&&&,left,neutral,,,,,,,,,,,,,,,0,107,107,76,,,,,,,,,,,,,LDT,left,0.5336959805863444,,,,,,1,,,,,,,,,,,,,left,1,0.5336959805863444,,,,,,,1063,2019_Mar_13_1500,mf_amp_cond1,3.0.4,59.9986530095063,
hope,,&&&&,left,loyalty.virtue,,,,,,,,,,,,,,,0,108,108,71,,,,,,,,,,,,,LDT,left,1.4172661431948654,,,,,,1,,,,,,,,,,,,,left,1,1.4172661431948654,,,,,,,1063,2019_Mar_13_1500,mf_amp_cond1,3.0.4,59.9986530095063,
rebels,,&&&&&&,left,authority.vice,,,,,,,,,,,,,,,0,109,109,68,,,,,,,,,,,,,LDT,right,0.9504711035697255,,,,,,0,,,,,,,,,,,,,right,0,0.9504711035697255,,,,,,,1063,2019_Mar_13_1500,mf_amp_cond1,3.0.4,59.9986530095063,
anything,,&&&&&&&&,left,neutral,,,,,,,,,,,,,,,0,110,110,25,,,,,,,,,,,,,LDT,right,0.8171028332726564,,,,,,0,,,,,,,,,,,,,right,0,0.8171028332726564,,,,,,,1063,2019_Mar_13_1500,mf_amp_cond1,3.0.4,59.9986530095063,
