words,mask,corr_ans,category,nonwords,tweets,topic,LDT_pracloop.thisRepN,LDT_pracloop.thisTrialN,LDT_pracloop.thisN,LDT_pracloop.thisIndex,LDT_trials.thisRepN,LDT_trials.thisTrialN,LDT_trials.thisN,LDT_trials.thisIndex,AMP_pracloop.thisRepN,AMP_pracloop.thisTrialN,AMP_pracloop.thisN,AMP_pracloop.thisIndex,AMP_trials.thisRepN,AMP_trials.thisTrialN,AMP_trials.thisN,AMP_trials.thisIndex,tweet_loop.thisRepN,tweet_loop.thisTrialN,tweet_loop.thisN,tweet_loop.thisIndex,begin_key.keys,begin_key.rt,key_resp_AMP_instr1.keys,key_resp_AMP_instr1.rt,key_resp_LDT_instr.keys,key_resp_LDT_instr.rt,resp_LDT_prac.keys,resp_LDT_prac.rt,task,keypress,RT,corr,resp_LDT_ready.keys,resp_LDT_ready.rt,resp_LDT.keys,resp_LDT.corr,resp_LDT.rt,LDT_rating.response,LDT_rating.rt,resp_AMP_ready1.keys,resp_AMP_ready1.rt,resp_AMP_prac.keys,resp_AMP_prac.rt,resp_AMP_ready.keys,resp_AMP_ready.rt,resp_AMP.keys,resp_AMP.corr,resp_AMP.rt,AMP_nonword_rating.response,AMP_nonword_rating.rt,AMP_word_rating.response,AMP_word_rating.rt,AMP_random_rating.response,AMP_random_rating.rt,key_resp_LDT_instr_2.keys,key_resp_LDT_instr_2.rt,resp_tweets.keys,resp_tweets.rt,participant,date,expName,psychopyVersion,frameRate,
,,,,,,,,,,,,,,,,,,,,,,,,,,,right,646.575795324432,,,,,,,,,,,,,,,,,,,,,,,,,,,,,,,,,,,,,1068,2019_Mar_14_1400,mf_amp_cond2,3.0.4,60.002732724173995,
,,,,,,,,,,,,,,,,,,,,,,,,,,,,,right,3.0177381643472927,,,,,,,,,,,,,,,,,,,,,,,,,,,,,,,,,,,1068,2019_Mar_14_1400,mf_amp_cond2,3.0.4,60.002732724173995,
,,,,,,,,,,,,,,,,,,,,,,,,,,,,,,,right,2.7009884826695725,,,,,,,,,,,,,,,,,,,,,,,,,,,,,,,,,1068,2019_Mar_14_1400,mf_amp_cond2,3.0.4,60.002732724173995,
bisebell,&&&&&&&,,,,,,0,0,0,1,,,,,,,,,,,,,,,,,,,,,,,left,4.201363092584415,LDT_prac,left,4.201363092584415,0,,,,,,,,,,,,,,,,,,,,,,,,,,,1068,2019_Mar_14_1400,mf_amp_cond2,3.0.4,60.002732724173995,
keyboard,&&&&&&&,,,,,,0,1,1,0,,,,,,,,,,,,,,,,,,,,,,,right,1.1672318957248535,LDT_prac,right,1.1672318957248535,0,,,,,,,,,,,,,,,,,,,,,,,,,,,1068,2019_Mar_14_1400,mf_amp_cond2,3.0.4,60.002732724173995,
,,,,,,,,,,,,,,,,,,,,,,,,,,,,,,,,,,,,,,,right,1.4673194543781847,,,,,,,,,,,,,,,,,,,,,,,,,1068,2019_Mar_14_1400,mf_amp_cond2,3.0.4,60.002732724173995,
ban,&&&,left,loyalty.vice,,,,,,,,0,0,0,171,,,,,,,,,,,,,,,,,,,,,LDT,left,1.1838677190810358,1,,,left,1,1.1838677190810358,,,,,,,,,,,,,,,,,,,,,,1068,2019_Mar_14_1400,mf_amp_cond2,3.0.4,60.002732724173995,
anyhow,&&&&&&,left,neutral,,,,,,,,0,1,1,124,,,,,,,,,,,,,,,,,,,,,LDT,left,0.9838580972511863,1,,,left,1,0.9838580972511863,,,,,,,,,,,,,,,,,,,,,,1068,2019_Mar_14_1400,mf_amp_cond2,3.0.4,60.002732724173995,
whither,&&&&&&&,left,neutral,,,,,,,,0,2,2,144,,,,,,,,,,,,,,,,,,,,,LDT,right,0.8004448492740721,0,,,right,0,0.8004448492740721,,,,,,,,,,,,,,,,,,,,,,1068,2019_Mar_14_1400,mf_amp_cond2,3.0.4,60.002732724173995,
reviked,&&&&&&&,right,nonword,,,,,,,,0,3,3,121,,,,,,,,,,,,,,,,,,,,,LDT,right,0.6670766635340897,1,,,right,1,0.6670766635340897,,,,,,,,,,,,,,,,,,,,,,1068,2019_Mar_14_1400,mf_amp_cond2,3.0.4,60.002732724173995,
freedom,&&&&&&&,left,sanctity.virtue,,,,,,,,0,4,4,147,,,,,,,,,,,,,,,,,,,,,LDT,right,0.5170357707565927,0,,,right,0,0.5170357707565927,,,,,,,,,,,,,,,,,,,,,,1068,2019_Mar_14_1400,mf_amp_cond2,3.0.4,60.002732724173995,
pullness,&&&&&&&&,right,nonword,,,,,,,,0,5,5,169,,,,,,,,,,,,,,,,,,,,,LDT,right,0.5336847439471057,1,,,right,1,0.5336847439471057,,,,,,,,,,,,,,,,,,,,,,1068,2019_Mar_14_1400,mf_amp_cond2,3.0.4,60.002732724173995,
increase,&&&&&&&&,left,care.virtue,,,,,,,,0,6,6,149,,,,,,,,,,,,,,,,,,,,,LDT,right,0.5170402609442135,0,,,right,0,0.5170402609442135,,,,,,,,,,,,,,,,,,,,,,1068,2019_Mar_14_1400,mf_amp_cond2,3.0.4,60.002732724173995,
dramens,&&&&&&&,right,nonword,,,,,,,,0,7,7,50,,,,,,,,,,,,,,,,,,,,,LDT,right,0.533698535236681,1,,,right,1,0.533698535236681,,,,,,,,,,,,,,,,,,,,,,1068,2019_Mar_14_1400,mf_amp_cond2,3.0.4,60.002732724173995,
fangsters,&&&&&&&&&,right,nonword,,,,,,,,0,8,8,62,,,,,,,,,,,,,,,,,,,,,LDT,right,0.6337148923475979,1,,,right,1,0.6337148923475979,,,,,,,,,,,,,,,,,,,,,,1068,2019_Mar_14_1400,mf_amp_cond2,3.0.4,60.002732724173995,
sgrawl,&&&&&&,right,nonword,,,,,,,,0,9,9,57,,,,,,,,,,,,,,,,,,,,,LDT,left,1.2672556295722188,0,,,left,0,1.2672556295722188,,,,,,,,,,,,,,,,,,,,,,1068,2019_Mar_14_1400,mf_amp_cond2,3.0.4,60.002732724173995,
besides,&&&&&&&,left,neutral,,,,,,,,0,10,10,19,,,,,,,,,,,,,,,,,,,,,LDT,right,0.48369965778374535,0,,,right,0,0.48369965778374535,,,,,,,,,,,,,,,,,,,,,,1068,2019_Mar_14_1400,mf_amp_cond2,3.0.4,60.002732724173995,
gazily,&&&&&&,right,nonword,,,,,,,,0,11,11,101,,,,,,,,,,,,,,,,,,,,,LDT,right,0.6504013906753698,1,,,right,1,0.6504013906753698,,,,,,,,,,,,,,,,,,,,,,1068,2019_Mar_14_1400,mf_amp_cond2,3.0.4,60.002732724173995,
scandal,&&&&&&&,left,sanctity.vice,,,,,,,,0,12,12,189,,,,,,,,,,,,,,,,,,,,,LDT,right,0.450337565869404,0,,,right,0,0.450337565869404,,,,,,,,,,,,,,,,,,,,,,1068,2019_Mar_14_1400,mf_amp_cond2,3.0.4,60.002732724173995,
trust,&&&&&,left,authority.virtue,,,,,,,,0,13,13,103,,,,,,,,,,,,,,,,,,,,,LDT,right,0.9004733940364531,0,,,right,0,0.9004733940364531,,,,,,,,,,,,,,,,,,,,,,1068,2019_Mar_14_1400,mf_amp_cond2,3.0.4,60.002732724173995,
ning,&&&&,right,nonword,,,,,,,,0,14,14,96,,,,,,,,,,,,,,,,,,,,,LDT,left,2.9177359192535732,0,,,left,0,2.9177359192535732,,,,,,,,,,,,,,,,,,,,,,1068,2019_Mar_14_1400,mf_amp_cond2,3.0.4,60.002732724173995,
war,&&&,left,sanctity.vice,,,,,,,,0,15,15,1,,,,,,,,,,,,,,,,,,,,,LDT,right,0.5336953279600039,0,,,right,0,0.5336953279600039,,,,,,,,,,,,,,,,,,,,,,1068,2019_Mar_14_1400,mf_amp_cond2,3.0.4,60.002732724173995,
baladroit,&&&&&&&&&,right,nonword,,,,,,,,0,16,16,165,,,,,,,,,,,,,,,,,,,,,LDT,right,0.7837734251468191,1,,,right,1,0.7837734251468191,,,,,,,,,,,,,,,,,,,,,,1068,2019_Mar_14_1400,mf_amp_cond2,3.0.4,60.002732724173995,
strong,&&&&&&,left,loyalty.virtue,,,,,,,,0,17,17,182,,,,,,,,,,,,,,,,,,,,,LDT,right,0.48370254433257287,0,,,right,0,0.48370254433257287,,,,,,,,,,,,,,,,,,,,,,1068,2019_Mar_14_1400,mf_amp_cond2,3.0.4,60.002732724173995,
saned,&&&&&,None,nonword,,,,,,,,0,18,18,26,,,,,,,,,,,,,,,,,,,,,LDT,right,0.7170935017368265,0,,,right,0,0.7170935017368265,,,,,,,,,,,,,,,,,,,,,,1068,2019_Mar_14_1400,mf_amp_cond2,3.0.4,60.002732724173995,
torture,&&&&&&&,left,care.vice,,,,,,,,0,19,19,196,,,,,,,,,,,,,,,,,,,,,LDT,right,0.6670654380657197,0,,,right,0,0.6670654380657197,,,,,,,,,,,,,,,,,,,,,,1068,2019_Mar_14_1400,mf_amp_cond2,3.0.4,60.002732724173995,
gondensed,&&&&&&&&&,right,nonword,,,,,,,,0,20,20,188,,,,,,,,,,,,,,,,,,,,,LDT,right,0.7337739062384117,1,,,right,1,0.7337739062384117,,,,,,,,,,,,,,,,,,,,,,1068,2019_Mar_14_1400,mf_amp_cond2,3.0.4,60.002732724173995,
honstables,&&&&&&&&&&,right,nonword,,,,,,,,0,21,21,12,,,,,,,,,,,,,,,,,,,,,LDT,right,0.533715854530783,1,,,right,1,0.533715854530783,,,,,,,,,,,,,,,,,,,,,,1068,2019_Mar_14_1400,mf_amp_cond2,3.0.4,60.002732724173995,
brotesque,&&&&&&&&&,right,nonword,,,,,,,,0,22,22,55,,,,,,,,,,,,,,,,,,,,,LDT,right,0.4003489517017442,1,,,right,1,0.4003489517017442,,,,,,,,,,,,,,,,,,,,,,1068,2019_Mar_14_1400,mf_amp_cond2,3.0.4,60.002732724173995,
tomedians,&&&&&&&&&,right,nonword,,,,,,,,0,23,23,86,,,,,,,,,,,,,,,,,,,,,LDT,right,1.9841053782822655,1,,,right,1,1.9841053782822655,,,,,,,,,,,,,,,,,,,,,,1068,2019_Mar_14_1400,mf_amp_cond2,3.0.4,60.002732724173995,
agreement,&&&&&&&&&,left,fairness.virtue,,,,,,,,0,24,24,6,,,,,,,,,,,,,,,,,,,,,LDT,right,0.5170537315061665,0,,,right,0,0.5170537315061665,,,,,,,,,,,,,,,,,,,,,,1068,2019_Mar_14_1400,mf_amp_cond2,3.0.4,60.002732724173995,
protesters,&&&&&&&&&&,left,authority.vice,,,,,,,,0,25,25,31,,,,,,,,,,,,,,,,,,,,,LDT,right,0.7004249641586284,0,,,right,0,0.7004249641586284,,,,,,,,,,,,,,,,,,,,,,1068,2019_Mar_14_1400,mf_amp_cond2,3.0.4,60.002732724173995,
idexpressible,&&&&&&&&&&&&&,right,nonword,,,,,,,,0,26,26,192,,,,,,,,,,,,,,,,,,,,,LDT,right,0.6504023528582366,1,,,right,1,0.6504023528582366,,,,,,,,,,,,,,,,,,,,,,1068,2019_Mar_14_1400,mf_amp_cond2,3.0.4,60.002732724173995,
asn,&&&,right,nonword,,,,,,,,0,27,27,93,,,,,,,,,,,,,,,,,,,,,LDT,left,0.7337367018290024,0,,,left,0,0.7337367018290024,,,,,,,,,,,,,,,,,,,,,,1068,2019_Mar_14_1400,mf_amp_cond2,3.0.4,60.002732724173995,
hatigue,&&&&&&&,right,nonword,,,,,,,,0,28,28,130,,,,,,,,,,,,,,,,,,,,,LDT,left,2.1174559240005237,0,,,left,0,2.1174559240005237,,,,,,,,,,,,,,,,,,,,,,1068,2019_Mar_14_1400,mf_amp_cond2,3.0.4,60.002732724173995,
noone,&&&&&,left,neutral,,,,,,,,0,29,29,102,,,,,,,,,,,,,,,,,,,,,LDT,right,1.0338319579461768,0,,,right,0,1.0338319579461768,,,,,,,,,,,,,,,,,,,,,,1068,2019_Mar_14_1400,mf_amp_cond2,3.0.4,60.002732724173995,
bruthfulness,&&&&&&&&&&&&,right,nonword,,,,,,,,0,30,30,17,,,,,,,,,,,,,,,,,,,,,LDT,right,0.9338168837457488,1,,,right,1,0.9338168837457488,,,,,,,,,,,,,,,,,,,,,,1068,2019_Mar_14_1400,mf_amp_cond2,3.0.4,60.002732724173995,
compassion,&&&&&&&&&&,left,care.virtue,,,,,,,,0,31,31,185,,,,,,,,,,,,,,,,,,,,,LDT,right,0.7671071326624315,0,,,right,0,0.7671071326624315,,,,,,,,,,,,,,,,,,,,,,1068,2019_Mar_14_1400,mf_amp_cond2,3.0.4,60.002732724173995,
vurtain,&&&&&&&,right,nonword,,,,,,,,0,32,32,15,,,,,,,,,,,,,,,,,,,,,LDT,right,1.4506502753447421,1,,,right,1,1.4506502753447421,,,,,,,,,,,,,,,,,,,,,,1068,2019_Mar_14_1400,mf_amp_cond2,3.0.4,60.002732724173995,
rorroborated,&&&&&&&&&&&&,right,nonword,,,,,,,,0,33,33,14,,,,,,,,,,,,,,,,,,,,,LDT,left,1.0171496290786308,0,,,left,0,1.0171496290786308,,,,,,,,,,,,,,,,,,,,,,1068,2019_Mar_14_1400,mf_amp_cond2,3.0.4,60.002732724173995,
whereafter,&&&&&&&&&&,left,neutral,,,,,,,,0,34,34,136,,,,,,,,,,,,,,,,,,,,,LDT,right,0.6504232001566379,0,,,right,0,0.6504232001566379,,,,,,,,,,,,,,,,,,,,,,1068,2019_Mar_14_1400,mf_amp_cond2,3.0.4,60.002732724173995,
accused,&&&&&&&,left,fairness.vice,,,,,,,,0,35,35,67,,,,,,,,,,,,,,,,,,,,,LDT,right,0.6003993059453023,0,,,right,0,0.6003993059453023,,,,,,,,,,,,,,,,,,,,,,1068,2019_Mar_14_1400,mf_amp_cond2,3.0.4,60.002732724173995,
fegard,&&&&&&,right,nonword,,,,,,,,0,36,36,75,,,,,,,,,,,,,,,,,,,,,LDT,right,0.7004140594178807,1,,,right,1,0.7004140594178807,,,,,,,,,,,,,,,,,,,,,,1068,2019_Mar_14_1400,mf_amp_cond2,3.0.4,60.002732724173995,
thru,&&&&,left,neutral,,,,,,,,0,37,37,5,,,,,,,,,,,,,,,,,,,,,LDT,right,0.7170806726298906,0,,,right,0,0.7170806726298906,,,,,,,,,,,,,,,,,,,,,,1068,2019_Mar_14_1400,mf_amp_cond2,3.0.4,60.002732724173995,
greaks,&&&&&&,right,nonword,,,,,,,,0,38,38,190,,,,,,,,,,,,,,,,,,,,,LDT,right,0.8837689349595621,1,,,right,1,0.8837689349595621,,,,,,,,,,,,,,,,,,,,,,1068,2019_Mar_14_1400,mf_amp_cond2,3.0.4,60.002732724173995,
else,&&&&,left,neutral,,,,,,,,0,39,39,134,,,,,,,,,,,,,,,,,,,,,LDT,right,0.9004563954699734,0,,,right,0,0.9004563954699734,,,,,,,,,,,,,,,,,,,,,,1068,2019_Mar_14_1400,mf_amp_cond2,3.0.4,60.002732724173995,
friends,&&&&&&&,left,loyalty.virtue,,,,,,,,0,40,40,54,,,,,,,,,,,,,,,,,,,,,LDT,right,0.700430416529116,0,,,right,0,0.700430416529116,,,,,,,,,,,,,,,,,,,,,,1068,2019_Mar_14_1400,mf_amp_cond2,3.0.4,60.002732724173995,
framo,&&&&&,right,nonword,,,,,,,,0,41,41,47,,,,,,,,,,,,,,,,,,,,,LDT,left,0.8004458114571662,0,,,left,0,0.8004458114571662,,,,,,,,,,,,,,,,,,,,,,1068,2019_Mar_14_1400,mf_amp_cond2,3.0.4,60.002732724173995,
gationwide,&&&&&&&&&&,right,nonword,,,,,,,,0,42,42,24,,,,,,,,,,,,,,,,,,,,,LDT,right,0.6670997559263014,1,,,right,1,0.6670997559263014,,,,,,,,,,,,,,,,,,,,,,1068,2019_Mar_14_1400,mf_amp_cond2,3.0.4,60.002732724173995,
conspiracy,&&&&&&&&&&,left,sanctity.vice,,,,,,,,0,43,43,84,,,,,,,,,,,,,,,,,,,,,LDT,right,0.717102482111386,0,,,right,0,0.717102482111386,,,,,,,,,,,,,,,,,,,,,,1068,2019_Mar_14_1400,mf_amp_cond2,3.0.4,60.002732724173995,
were,&&&&,left,neutral,,,,,,,,0,44,44,88,,,,,,,,,,,,,,,,,,,,,LDT,right,1.1838824725539325,0,,,right,0,1.1838824725539325,,,,,,,,,,,,,,,,,,,,,,1068,2019_Mar_14_1400,mf_amp_cond2,3.0.4,60.002732724173995,
hasks,&&&&&,right,nonword,,,,,,,,0,45,45,194,,,,,,,,,,,,,,,,,,,,,LDT,left,1.2839206391461175,0,,,left,0,1.2839206391461175,,,,,,,,,,,,,,,,,,,,,,1068,2019_Mar_14_1400,mf_amp_cond2,3.0.4,60.002732724173995,
forty,&&&&&,left,neutral,,,,,,,,0,46,46,137,,,,,,,,,,,,,,,,,,,,,LDT,right,0.9838260244841877,0,,,right,0,0.9838260244841877,,,,,,,,,,,,,,,,,,,,,,1068,2019_Mar_14_1400,mf_amp_cond2,3.0.4,60.002732724173995,
crinking,&&&&&&&&,right,nonword,,,,,,,,0,47,47,34,,,,,,,,,,,,,,,,,,,,,LDT,right,0.8838292317611831,1,,,right,1,0.8838292317611831,,,,,,,,,,,,,,,,,,,,,,1068,2019_Mar_14_1400,mf_amp_cond2,3.0.4,60.002732724173995,
victim,&&&&&&,left,care.vice,,,,,,,,0,48,48,191,,,,,,,,,,,,,,,,,,,,,LDT,right,0.6004021924943572,0,,,right,0,0.6004021924943572,,,,,,,,,,,,,,,,,,,,,,1068,2019_Mar_14_1400,mf_amp_cond2,3.0.4,60.002732724173995,
front,&&&&&,left,neutral,,,,,,,,0,49,49,177,,,,,,,,,,,,,,,,,,,,,LDT,right,2.650937968061953,0,,,right,0,2.650937968061953,,,,,,,,,,,,,,,,,,,,,,1068,2019_Mar_14_1400,mf_amp_cond2,3.0.4,60.002732724173995,
shot,&&&&,left,care.vice,,,,,,,,0,50,50,63,,,,,,,,,,,,,,,,,,,,,LDT,right,0.7671052082964707,0,,,right,0,0.7671052082964707,,,,,,,,,,,,,,,,,,,,,,1068,2019_Mar_14_1400,mf_amp_cond2,3.0.4,60.002732724173995,
hereby,&&&&&&,left,neutral,,,,,,,,0,51,51,148,,,,,,,,,,,,,,,,,,,,,LDT,right,1.1671273385056793,0,,,right,0,1.1671273385056793,,,,,,,,,,,,,,,,,,,,,,1068,2019_Mar_14_1400,mf_amp_cond2,3.0.4,60.002732724173995,
officers,&&&&&&&&,left,authority.vice,,,,,,,,0,52,52,77,,,,,,,,,,,,,,,,,,,,,LDT,right,1.2672376688230997,0,,,right,0,1.2672376688230997,,,,,,,,,,,,,,,,,,,,,,1068,2019_Mar_14_1400,mf_amp_cond2,3.0.4,60.002732724173995,
scock,&&&&&,right,nonword,,,,,,,,0,53,53,183,,,,,,,,,,,,,,,,,,,,,LDT,right,0.8171050479327278,1,,,right,1,0.8171050479327278,,,,,,,,,,,,,,,,,,,,,,1068,2019_Mar_14_1400,mf_amp_cond2,3.0.4,60.002732724173995,
suggists,&&&&&&&&,right,nonword,,,,,,,,0,54,54,81,,,,,,,,,,,,,,,,,,,,,LDT,right,0.9004737147640753,1,,,right,1,0.9004737147640753,,,,,,,,,,,,,,,,,,,,,,1068,2019_Mar_14_1400,mf_amp_cond2,3.0.4,60.002732724173995,
taxpayung,&&&&&&&&&,right,nonword,,,,,,,,0,55,55,56,,,,,,,,,,,,,,,,,,,,,LDT,right,0.7337511345740495,1,,,right,1,0.7337511345740495,,,,,,,,,,,,,,,,,,,,,,1068,2019_Mar_14_1400,mf_amp_cond2,3.0.4,60.002732724173995,
latterly,&&&&&&&&,left,neutral,,,,,,,,0,56,56,170,,,,,,,,,,,,,,,,,,,,,LDT,right,1.9674195214101928,0,,,right,0,1.9674195214101928,,,,,,,,,,,,,,,,,,,,,,1068,2019_Mar_14_1400,mf_amp_cond2,3.0.4,60.002732724173995,
presentkess,&&&&&&&&&&&,right,nonword,,,,,,,,0,57,57,91,,,,,,,,,,,,,,,,,,,,,LDT,right,0.7504199928798698,1,,,right,1,0.7504199928798698,,,,,,,,,,,,,,,,,,,,,,1068,2019_Mar_14_1400,mf_amp_cond2,3.0.4,60.002732724173995,
itself,&&&&&&,left,neutral,,,,,,,,0,58,58,146,,,,,,,,,,,,,,,,,,,,,LDT,right,1.0838465510551032,0,,,right,0,1.0838465510551032,,,,,,,,,,,,,,,,,,,,,,1068,2019_Mar_14_1400,mf_amp_cond2,3.0.4,60.002732724173995,
reprisols,&&&&&&&&&,right,nonword,,,,,,,,0,59,59,143,,,,,,,,,,,,,,,,,,,,,LDT,right,2.634269109756133,1,,,right,1,2.634269109756133,,,,,,,,,,,,,,,,,,,,,,1068,2019_Mar_14_1400,mf_amp_cond2,3.0.4,60.002732724173995,
shoirmaster,&&&&&&&&&&&,None,nonword,,,,,,,,0,60,60,37,,,,,,,,,,,,,,,,,,,,,LDT,left,1.6173423864063352,0,,,left,0,1.6173423864063352,,,,,,,,,,,,,,,,,,,,,,1068,2019_Mar_14_1400,mf_amp_cond2,3.0.4,60.002732724173995,
amount,&&&&&&,left,neutral,,,,,,,,0,61,61,152,,,,,,,,,,,,,,,,,,,,,LDT,right,0.6337472858419915,0,,,right,0,0.6337472858419915,,,,,,,,,,,,,,,,,,,,,,1068,2019_Mar_14_1400,mf_amp_cond2,3.0.4,60.002732724173995,
emports,&&&&&&&,right,nonword,,,,,,,,0,62,62,4,,,,,,,,,,,,,,,,,,,,,LDT,left,2.484227575523164,0,,,left,0,2.484227575523164,,,,,,,,,,,,,,,,,,,,,,1068,2019_Mar_14_1400,mf_amp_cond2,3.0.4,60.002732724173995,
neutralust,&&&&&&&&&&,right,nonword,,,,,,,,0,63,63,48,,,,,,,,,,,,,,,,,,,,,LDT,right,0.5670500431378969,1,,,right,1,0.5670500431378969,,,,,,,,,,,,,,,,,,,,,,1068,2019_Mar_14_1400,mf_amp_cond2,3.0.4,60.002732724173995,
everything,&&&&&&&&&&,left,neutral,,,,,,,,0,64,64,128,,,,,,,,,,,,,,,,,,,,,LDT,right,0.5670708904362982,0,,,right,0,0.5670708904362982,,,,,,,,,,,,,,,,,,,,,,1068,2019_Mar_14_1400,mf_amp_cond2,3.0.4,60.002732724173995,
metibolic,&&&&&&&&&,right,nonword,,,,,,,,0,65,65,120,,,,,,,,,,,,,,,,,,,,,LDT,right,0.5503799019213602,1,,,right,1,0.5503799019213602,,,,,,,,,,,,,,,,,,,,,,1068,2019_Mar_14_1400,mf_amp_cond2,3.0.4,60.002732724173995,
erdest,&&&&&&,right,nonword,,,,,,,,0,66,66,68,,,,,,,,,,,,,,,,,,,,,LDT,right,0.7170858042727559,1,,,right,1,0.7170858042727559,,,,,,,,,,,,,,,,,,,,,,1068,2019_Mar_14_1400,mf_amp_cond2,3.0.4,60.002732724173995,
health,&&&&&&,left,care.virtue,,,,,,,,0,67,67,25,,,,,,,,,,,,,,,,,,,,,LDT,right,0.767095265738817,0,,,right,0,0.767095265738817,,,,,,,,,,,,,,,,,,,,,,1068,2019_Mar_14_1400,mf_amp_cond2,3.0.4,60.002732724173995,
erks,&&&&,right,nonword,,,,,,,,0,68,68,112,,,,,,,,,,,,,,,,,,,,,LDT,left,1.150540586482748,0,,,left,0,1.150540586482748,,,,,,,,,,,,,,,,,,,,,,1068,2019_Mar_14_1400,mf_amp_cond2,3.0.4,60.002732724173995,
counpy's,&&&&&&&&,right,nonword,,,,,,,,0,69,69,111,,,,,,,,,,,,,,,,,,,,,LDT,right,1.0671946913155352,1,,,right,1,1.0671946913155352,,,,,,,,,,,,,,,,,,,,,,1068,2019_Mar_14_1400,mf_amp_cond2,3.0.4,60.002732724173995,
seem,&&&&,left,neutral,,,,,,,,0,70,70,13,,,,,,,,,,,,,,,,,,,,,LDT,right,1.317263808127791,0,,,right,0,1.317263808127791,,,,,,,,,,,,,,,,,,,,,,1068,2019_Mar_14_1400,mf_amp_cond2,3.0.4,60.002732724173995,
progress,&&&&&&&&,left,authority.virtue,,,,,,,,0,71,71,174,,,,,,,,,,,,,,,,,,,,,LDT,right,0.9338046960945121,0,,,right,0,0.9338046960945121,,,,,,,,,,,,,,,,,,,,,,1068,2019_Mar_14_1400,mf_amp_cond2,3.0.4,60.002732724173995,
refused,&&&&&&&,left,authority.vice,,,,,,,,0,72,72,107,,,,,,,,,,,,,,,,,,,,,LDT,right,0.7337553040338207,0,,,right,0,0.7337553040338207,,,,,,,,,,,,,,,,,,,,,,1068,2019_Mar_14_1400,mf_amp_cond2,3.0.4,60.002732724173995,
protect,&&&&&&&,left,fairness.virtue,,,,,,,,0,73,73,162,,,,,,,,,,,,,,,,,,,,,LDT,right,0.483692281047297,0,,,right,0,0.483692281047297,,,,,,,,,,,,,,,,,,,,,,1068,2019_Mar_14_1400,mf_amp_cond2,3.0.4,60.002732724173995,
nomaric,&&&&&&&,None,nonword,,,,,,,,0,74,74,158,,,,,,,,,,,,,,,,,,,,,LDT,right,2.3842073696803254,0,,,right,0,2.3842073696803254,,,,,,,,,,,,,,,,,,,,,,1068,2019_Mar_14_1400,mf_amp_cond2,3.0.4,60.002732724173995,
yane,&&&&,right,nonword,,,,,,,,0,75,75,181,,,,,,,,,,,,,,,,,,,,,LDT,left,1.2839119794991802,0,,,left,0,1.2839119794991802,,,,,,,,,,,,,,,,,,,,,,1068,2019_Mar_14_1400,mf_amp_cond2,3.0.4,60.002732724173995,
fair,&&&&,left,fairness.virtue,,,,,,,,0,76,76,32,,,,,,,,,,,,,,,,,,,,,LDT,right,1.250554698500082,0,,,right,0,1.250554698500082,,,,,,,,,,,,,,,,,,,,,,1068,2019_Mar_14_1400,mf_amp_cond2,3.0.4,60.002732724173995,
framatic,&&&&&&&&,right,nonword,,,,,,,,0,77,77,97,,,,,,,,,,,,,,,,,,,,,LDT,right,1.483977087215635,1,,,right,1,1.483977087215635,,,,,,,,,,,,,,,,,,,,,,1068,2019_Mar_14_1400,mf_amp_cond2,3.0.4,60.002732724173995,
lies,&&&&,left,fairness.vice,,,,,,,,0,78,78,184,,,,,,,,,,,,,,,,,,,,,LDT,right,0.5170530900506947,0,,,right,0,0.5170530900506947,,,,,,,,,,,,,,,,,,,,,,1068,2019_Mar_14_1400,mf_amp_cond2,3.0.4,60.002732724173995,
arrests,&&&&&&&,left,authority.vice,,,,,,,,0,79,79,64,,,,,,,,,,,,,,,,,,,,,LDT,right,0.9338200910226533,0,,,right,0,0.9338200910226533,,,,,,,,,,,,,,,,,,,,,,1068,2019_Mar_14_1400,mf_amp_cond2,3.0.4,60.002732724173995,
praised,&&&&&&&,left,loyalty.virtue,,,,,,,,0,80,80,18,,,,,,,,,,,,,,,,,,,,,LDT,right,0.9338325994015122,0,,,right,0,0.9338325994015122,,,,,,,,,,,,,,,,,,,,,,1068,2019_Mar_14_1400,mf_amp_cond2,3.0.4,60.002732724173995,
synchronazers,&&&&&&&&&&&&&,right,nonword,,,,,,,,0,81,81,78,,,,,,,,,,,,,,,,,,,,,LDT,right,0.9838526448806988,1,,,right,1,0.9838526448806988,,,,,,,,,,,,,,,,,,,,,,1068,2019_Mar_14_1400,mf_amp_cond2,3.0.4,60.002732724173995,
reelectiob,&&&&&&&&&&,right,nonword,,,,,,,,0,82,82,109,,,,,,,,,,,,,,,,,,,,,LDT,right,0.5670737769853531,1,,,right,1,0.5670737769853531,,,,,,,,,,,,,,,,,,,,,,1068,2019_Mar_14_1400,mf_amp_cond2,3.0.4,60.002732724173995,
focomotive,&&&&&&&&&&,right,nonword,,,,,,,,0,83,83,116,,,,,,,,,,,,,,,,,,,,,LDT,right,0.8170893322771917,1,,,right,1,0.8170893322771917,,,,,,,,,,,,,,,,,,,,,,1068,2019_Mar_14_1400,mf_amp_cond2,3.0.4,60.002732724173995,
therefore,&&&&&&&&&,left,neutral,,,,,,,,0,84,84,129,,,,,,,,,,,,,,,,,,,,,LDT,right,0.7004291336183996,0,,,right,0,0.7004291336183996,,,,,,,,,,,,,,,,,,,,,,1068,2019_Mar_14_1400,mf_amp_cond2,3.0.4,60.002732724173995,
although,&&&&&&&&,left,neutral,,,,,,,,0,85,85,23,,,,,,,,,,,,,,,,,,,,,LDT,right,0.6337476065698411,0,,,right,0,0.6337476065698411,,,,,,,,,,,,,,,,,,,,,,1068,2019_Mar_14_1400,mf_amp_cond2,3.0.4,60.002732724173995,
been,&&&&,left,neutral,,,,,,,,0,86,86,173,,,,,,,,,,,,,,,,,,,,,LDT,right,0.6837112039795556,0,,,right,0,0.6837112039795556,,,,,,,,,,,,,,,,,,,,,,1068,2019_Mar_14_1400,mf_amp_cond2,3.0.4,60.002732724173995,
feleological,&&&&&&&&&&&&,right,nonword,,,,,,,,0,87,87,151,,,,,,,,,,,,,,,,,,,,,LDT,right,0.5170357707565927,1,,,right,1,0.5170357707565927,,,,,,,,,,,,,,,,,,,,,,1068,2019_Mar_14_1400,mf_amp_cond2,3.0.4,60.002732724173995,
also,&&&&,left,neutral,,,,,,,,0,88,88,52,,,,,,,,,,,,,,,,,,,,,LDT,right,1.233945816268033,0,,,right,0,1.233945816268033,,,,,,,,,,,,,,,,,,,,,,1068,2019_Mar_14_1400,mf_amp_cond2,3.0.4,60.002732724173995,
photocalkodes,&&&&&&&&&&&&&,right,nonword,,,,,,,,0,89,89,140,,,,,,,,,,,,,,,,,,,,,LDT,right,1.3505575850488185,1,,,right,1,1.3505575850488185,,,,,,,,,,,,,,,,,,,,,,1068,2019_Mar_14_1400,mf_amp_cond2,3.0.4,60.002732724173995,
clean,&&&&&,left,sanctity.virtue,,,,,,,,0,90,90,43,,,,,,,,,,,,,,,,,,,,,LDT,right,0.9838452681444778,0,,,right,0,0.9838452681444778,,,,,,,,,,,,,,,,,,,,,,1068,2019_Mar_14_1400,mf_amp_cond2,3.0.4,60.002732724173995,
amoungst,&&&&&&&&,left,neutral,,,,,,,,0,91,91,49,,,,,,,,,,,,,,,,,,,,,LDT,right,0.7504273696160908,0,,,right,0,0.7504273696160908,,,,,,,,,,,,,,,,,,,,,,1068,2019_Mar_14_1400,mf_amp_cond2,3.0.4,60.002732724173995,
hand,&&&&,left,sanctity.virtue,,,,,,,,0,92,92,69,,,,,,,,,,,,,,,,,,,,,LDT,right,0.7337819244301045,0,,,right,0,0.7337819244301045,,,,,,,,,,,,,,,,,,,,,,1068,2019_Mar_14_1400,mf_amp_cond2,3.0.4,60.002732724173995,
dumid,&&&&&,right,nonword,,,,,,,,0,93,93,199,,,,,,,,,,,,,,,,,,,,,LDT,right,0.5503834299256596,1,,,right,1,0.5503834299256596,,,,,,,,,,,,,,,,,,,,,,1068,2019_Mar_14_1400,mf_amp_cond2,3.0.4,60.002732724173995,
least,&&&&&,left,neutral,,,,,,,,0,94,94,123,,,,,,,,,,,,,,,,,,,,,LDT,right,0.8838253830290341,0,,,right,0,0.8838253830290341,,,,,,,,,,,,,,,,,,,,,,1068,2019_Mar_14_1400,mf_amp_cond2,3.0.4,60.002732724173995,
supervuned,&&&&&&&&&&,right,nonword,,,,,,,,0,95,95,60,,,,,,,,,,,,,,,,,,,,,LDT,right,0.7337662087743411,1,,,right,1,0.7337662087743411,,,,,,,,,,,,,,,,,,,,,,1068,2019_Mar_14_1400,mf_amp_cond2,3.0.4,60.002732724173995,
less,&&&&,left,neutral,,,,,,,,0,96,96,187,,,,,,,,,,,,,,,,,,,,,LDT,right,0.700411814324525,0,,,right,0,0.700411814324525,,,,,,,,,,,,,,,,,,,,,,1068,2019_Mar_14_1400,mf_amp_cond2,3.0.4,60.002732724173995,
tenuflect,&&&&&&&&&,right,nonword,,,,,,,,0,97,97,176,,,,,,,,,,,,,,,,,,,,,LDT,left,0.8838096673732707,0,,,left,0,0.8838096673732707,,,,,,,,,,,,,,,,,,,,,,1068,2019_Mar_14_1400,mf_amp_cond2,3.0.4,60.002732724173995,
spag,&&&&,None,nonword,,,,,,,,0,98,98,2,,,,,,,,,,,,,,,,,,,,,LDT,right,0.8004393969035846,0,,,right,0,0.8004393969035846,,,,,,,,,,,,,,,,,,,,,,1068,2019_Mar_14_1400,mf_amp_cond2,3.0.4,60.002732724173995,
imebreaker,&&&&&&&&&&,right,nonword,,,,,,,,0,99,99,79,,,,,,,,,,,,,,,,,,,,,LDT,right,0.9004826951386349,1,,,right,1,0.9004826951386349,,,,,,,,,,,,,,,,,,,,,,1068,2019_Mar_14_1400,mf_amp_cond2,3.0.4,60.002732724173995,
ablow,&&&&&,right,nonword,,,,,,,,0,100,100,82,,,,,,,,,,,,,,,,,,,,,LDT,right,0.5670587027848342,1,,,right,1,0.5670587027848342,,,,,,,,,,,,,,,,,,,,,,1068,2019_Mar_14_1400,mf_amp_cond2,3.0.4,60.002732724173995,
sidearbs,&&&&&&&&,right,nonword,,,,,,,,0,101,101,42,,,,,,,,,,,,,,,,,,,,,LDT,right,0.7671552418125884,1,,,right,1,0.7671552418125884,,,,,,,,,,,,,,,,,,,,,,1068,2019_Mar_14_1400,mf_amp_cond2,3.0.4,60.002732724173995,
suicide,&&&&&&&,left,care.vice,,,,,,,,0,102,102,150,,,,,,,,,,,,,,,,,,,,,LDT,right,0.650411974688268,0,,,right,0,0.650411974688268,,,,,,,,,,,,,,,,,,,,,,1068,2019_Mar_14_1400,mf_amp_cond2,3.0.4,60.002732724173995,
abointment,&&&&&&&&&&,right,nonword,,,,,,,,0,103,103,8,,,,,,,,,,,,,,,,,,,,,LDT,right,0.5337386261951451,1,,,right,1,0.5337386261951451,,,,,,,,,,,,,,,,,,,,,,1068,2019_Mar_14_1400,mf_amp_cond2,3.0.4,60.002732724173995,
anything,&&&&&&&&,left,neutral,,,,,,,,0,104,104,0,,,,,,,,,,,,,,,,,,,,,LDT,right,0.4503667520871204,0,,,right,0,0.4503667520871204,,,,,,,,,,,,,,,,,,,,,,1068,2019_Mar_14_1400,mf_amp_cond2,3.0.4,60.002732724173995,
shoirmaster,&&&&&&&&&&&,right,nonword,,,,,,,,0,105,105,44,,,,,,,,,,,,,,,,,,,,,LDT,right,0.4503969004879309,1,,,right,1,0.4503969004879309,,,,,,,,,,,,,,,,,,,,,,1068,2019_Mar_14_1400,mf_amp_cond2,3.0.4,60.002732724173995,
myself,&&&&&&,left,neutral,,,,,,,,0,106,106,7,,,,,,,,,,,,,,,,,,,,,LDT,right,0.4336908377729287,0,,,right,0,0.4336908377729287,,,,,,,,,,,,,,,,,,,,,,1068,2019_Mar_14_1400,mf_amp_cond2,3.0.4,60.002732724173995,
fifty,&&&&&,left,neutral,,,,,,,,0,107,107,154,,,,,,,,,,,,,,,,,,,,,LDT,right,0.500375572097937,0,,,right,0,0.500375572097937,,,,,,,,,,,,,,,,,,,,,,1068,2019_Mar_14_1400,mf_amp_cond2,3.0.4,60.002732724173995,
cromiscuity,&&&&&&&&&&&,right,nonword,,,,,,,,0,108,108,66,,,,,,,,,,,,,,,,,,,,,LDT,right,0.8004358688992852,1,,,right,1,0.8004358688992852,,,,,,,,,,,,,,,,,,,,,,1068,2019_Mar_14_1400,mf_amp_cond2,3.0.4,60.002732724173995,
embrace,&&&&&&&,left,authority.virtue,,,,,,,,0,109,109,139,,,,,,,,,,,,,,,,,,,,,LDT,right,0.5170944639196478,0,,,right,0,0.5170944639196478,,,,,,,,,,,,,,,,,,,,,,1068,2019_Mar_14_1400,mf_amp_cond2,3.0.4,60.002732724173995,
slavery,&&&&&&&,left,loyalty.vice,,,,,,,,0,110,110,133,,,,,,,,,,,,,,,,,,,,,LDT,right,0.7837634825893929,0,,,right,0,0.7837634825893929,,,,,,,,,,,,,,,,,,,,,,1068,2019_Mar_14_1400,mf_amp_cond2,3.0.4,60.002732724173995,
elduringly,&&&&&&&&&&,right,nonword,,,,,,,,0,111,111,27,,,,,,,,,,,,,,,,,,,,,LDT,right,0.6671305457823564,1,,,right,1,0.6671305457823564,,,,,,,,,,,,,,,,,,,,,,1068,2019_Mar_14_1400,mf_amp_cond2,3.0.4,60.002732724173995,
could,&&&&&,left,neutral,,,,,,,,0,112,112,198,,,,,,,,,,,,,,,,,,,,,LDT,right,0.7171239708650319,0,,,right,0,0.7171239708650319,,,,,,,,,,,,,,,,,,,,,,1068,2019_Mar_14_1400,mf_amp_cond2,3.0.4,60.002732724173995,
towards,&&&&&&&,left,neutral,,,,,,,,0,113,113,104,,,,,,,,,,,,,,,,,,,,,LDT,right,0.7671584490892656,0,,,right,0,0.7671584490892656,,,,,,,,,,,,,,,,,,,,,,1068,2019_Mar_14_1400,mf_amp_cond2,3.0.4,60.002732724173995,
ugeasily,&&&&&&&&,right,nonword,,,,,,,,0,114,114,28,,,,,,,,,,,,,,,,,,,,,LDT,right,0.783780160428023,1,,,right,1,0.783780160428023,,,,,,,,,,,,,,,,,,,,,,1068,2019_Mar_14_1400,mf_amp_cond2,3.0.4,60.002732724173995,
divility,&&&&&&&&,right,nonword,,,,,,,,0,115,115,30,,,,,,,,,,,,,,,,,,,,,LDT,right,0.6670981522879629,1,,,right,1,0.6670981522879629,,,,,,,,,,,,,,,,,,,,,,1068,2019_Mar_14_1400,mf_amp_cond2,3.0.4,60.002732724173995,
illegal,&&&&&&&,left,fairness.vice,,,,,,,,0,116,116,179,,,,,,,,,,,,,,,,,,,,,LDT,right,0.7504661776638386,0,,,right,0,0.7504661776638386,,,,,,,,,,,,,,,,,,,,,,1068,2019_Mar_14_1400,mf_amp_cond2,3.0.4,60.002732724173995,
couldnt,&&&&&&&,left,neutral,,,,,,,,0,117,117,119,,,,,,,,,,,,,,,,,,,,,LDT,right,0.7671016802921713,0,,,right,0,0.7671016802921713,,,,,,,,,,,,,,,,,,,,,,1068,2019_Mar_14_1400,mf_amp_cond2,3.0.4,60.002732724173995,
there,&&&&&,left,neutral,,,,,,,,0,118,118,122,,,,,,,,,,,,,,,,,,,,,LDT,right,0.5337078363390901,0,,,right,0,0.5337078363390901,,,,,,,,,,,,,,,,,,,,,,1068,2019_Mar_14_1400,mf_amp_cond2,3.0.4,60.002732724173995,
nuckheap,&&&&&&&&,right,nonword,,,,,,,,0,119,119,163,,,,,,,,,,,,,,,,,,,,,LDT,left,0.8671536381741589,0,,,left,0,0.8671536381741589,,,,,,,,,,,,,,,,,,,,,,1068,2019_Mar_14_1400,mf_amp_cond2,3.0.4,60.002732724173995,
betrayal,&&&&&&&&,left,loyalty.vice,,,,,,,,0,120,120,142,,,,,,,,,,,,,,,,,,,,,LDT,right,0.6837577094911467,0,,,right,0,0.6837577094911467,,,,,,,,,,,,,,,,,,,,,,1068,2019_Mar_14_1400,mf_amp_cond2,3.0.4,60.002732724173995,
sowntrodden,&&&&&&&&&&&,right,nonword,,,,,,,,0,121,121,73,,,,,,,,,,,,,,,,,,,,,LDT,left,1.3839244878781756,0,,,left,0,1.3839244878781756,,,,,,,,,,,,,,,,,,,,,,1068,2019_Mar_14_1400,mf_amp_cond2,3.0.4,60.002732724173995,
menizen,&&&&&&&,None,nonword,,,,,,,,0,122,122,157,,,,,,,,,,,,,,,,,,,,,LDT,left,0.6504052394070641,0,,,left,0,0.6504052394070641,,,,,,,,,,,,,,,,,,,,,,1068,2019_Mar_14_1400,mf_amp_cond2,3.0.4,60.002732724173995,
credit,&&&&&&,left,fairness.virtue,,,,,,,,0,123,123,127,,,,,,,,,,,,,,,,,,,,,LDT,right,0.567059344240306,0,,,right,0,0.567059344240306,,,,,,,,,,,,,,,,,,,,,,1068,2019_Mar_14_1400,mf_amp_cond2,3.0.4,60.002732724173995,
rivernoat,&&&&&&&&&,right,nonword,,,,,,,,0,124,124,172,,,,,,,,,,,,,,,,,,,,,LDT,right,1.1672152178864508,1,,,right,1,1.1672152178864508,,,,,,,,,,,,,,,,,,,,,,1068,2019_Mar_14_1400,mf_amp_cond2,3.0.4,60.002732724173995,
either,&&&&&&,left,neutral,,,,,,,,0,125,125,36,,,,,,,,,,,,,,,,,,,,,LDT,right,0.5670551747805348,0,,,right,0,0.5670551747805348,,,,,,,,,,,,,,,,,,,,,,1068,2019_Mar_14_1400,mf_amp_cond2,3.0.4,60.002732724173995,
lachelor,&&&&&&&&,right,nonword,,,,,,,,0,126,126,83,,,,,,,,,,,,,,,,,,,,,LDT,left,0.6170396194886507,0,,,left,0,0.6170396194886507,,,,,,,,,,,,,,,,,,,,,,1068,2019_Mar_14_1400,mf_amp_cond2,3.0.4,60.002732724173995,
neputized,&&&&&&&&&,right,nonword,,,,,,,,0,127,127,114,,,,,,,,,,,,,,,,,,,,,LDT,right,0.9004689038490596,1,,,right,1,0.9004689038490596,,,,,,,,,,,,,,,,,,,,,,1068,2019_Mar_14_1400,mf_amp_cond2,3.0.4,60.002732724173995,
wherever,&&&&&&&&,left,neutral,,,,,,,,0,128,128,38,,,,,,,,,,,,,,,,,,,,,LDT,left,2.0341052179182952,1,,,left,1,2.0341052179182952,,,,,,,,,,,,,,,,,,,,,,1068,2019_Mar_14_1400,mf_amp_cond2,3.0.4,60.002732724173995,
thadowed,&&&&&&&&,right,nonword,,,,,,,,0,129,129,87,,,,,,,,,,,,,,,,,,,,,LDT,left,1.1672126520650181,0,,,left,0,1.1672126520650181,,,,,,,,,,,,,,,,,,,,,,1068,2019_Mar_14_1400,mf_amp_cond2,3.0.4,60.002732724173995,
three,&&&&&,left,neutral,,,,,,,,0,130,130,159,,,,,,,,,,,,,,,,,,,,,LDT,right,0.8004483772783715,0,,,right,0,0.8004483772783715,,,,,,,,,,,,,,,,,,,,,,1068,2019_Mar_14_1400,mf_amp_cond2,3.0.4,60.002732724173995,
drumbled,&&&&&&&&,right,nonword,,,,,,,,0,131,131,108,,,,,,,,,,,,,,,,,,,,,LDT,right,2.867690536288819,1,,,right,1,2.867690536288819,,,,,,,,,,,,,,,,,,,,,,1068,2019_Mar_14_1400,mf_amp_cond2,3.0.4,60.002732724173995,
mostly,&&&&&&,left,neutral,,,,,,,,0,132,132,33,,,,,,,,,,,,,,,,,,,,,LDT,right,4.434767199823,0,,,right,0,4.434767199823,,,,,,,,,,,,,,,,,,,,,,1068,2019_Mar_14_1400,mf_amp_cond2,3.0.4,60.002732724173995,
fraud,&&&&&,left,fairness.vice,,,,,,,,0,133,133,99,,,,,,,,,,,,,,,,,,,,,LDT,right,0.7503949761216973,0,,,right,0,0.7503949761216973,,,,,,,,,,,,,,,,,,,,,,1068,2019_Mar_14_1400,mf_amp_cond2,3.0.4,60.002732724173995,
done,&&&&,left,neutral,,,,,,,,0,134,134,29,,,,,,,,,,,,,,,,,,,,,LDT,right,0.6670647966107026,0,,,right,0,0.6670647966107026,,,,,,,,,,,,,,,,,,,,,,1068,2019_Mar_14_1400,mf_amp_cond2,3.0.4,60.002732724173995,
restore,&&&&&&&,left,care.virtue,,,,,,,,0,135,135,94,,,,,,,,,,,,,,,,,,,,,LDT,right,0.7170899737325271,0,,,right,0,0.7170899737325271,,,,,,,,,,,,,,,,,,,,,,1068,2019_Mar_14_1400,mf_amp_cond2,3.0.4,60.002732724173995,
chreams,&&&&&&&,right,nonword,,,,,,,,0,136,136,118,,,,,,,,,,,,,,,,,,,,,LDT,right,0.8004387554483401,1,,,right,1,0.8004387554483401,,,,,,,,,,,,,,,,,,,,,,1068,2019_Mar_14_1400,mf_amp_cond2,3.0.4,60.002732724173995,
honored,&&&&&&&,left,authority.virtue,,,,,,,,0,137,137,22,,,,,,,,,,,,,,,,,,,,,LDT,right,0.7337453614761671,0,,,right,0,0.7337453614761671,,,,,,,,,,,,,,,,,,,,,,1068,2019_Mar_14_1400,mf_amp_cond2,3.0.4,60.002732724173995,
precificity,&&&&&&&&&&&,right,nonword,,,,,,,,0,138,138,16,,,,,,,,,,,,,,,,,,,,,LDT,right,1.1003877597493101,1,,,right,1,1.1003877597493101,,,,,,,,,,,,,,,,,,,,,,1068,2019_Mar_14_1400,mf_amp_cond2,3.0.4,60.002732724173995,
Lacedonia,&&&&&&&&&,right,nonword,,,,,,,,0,139,139,113,,,,,,,,,,,,,,,,,,,,,LDT,left,0.5670477980440864,0,,,left,0,0.5670477980440864,,,,,,,,,,,,,,,,,,,,,,1068,2019_Mar_14_1400,mf_amp_cond2,3.0.4,60.002732724173995,
about,&&&&&,left,neutral,,,,,,,,0,140,140,167,,,,,,,,,,,,,,,,,,,,,LDT,right,0.9504860627791913,0,,,right,0,0.9504860627791913,,,,,,,,,,,,,,,,,,,,,,1068,2019_Mar_14_1400,mf_amp_cond2,3.0.4,60.002732724173995,
sexual,&&&&&&,left,sanctity.vice,,,,,,,,0,141,141,168,,,,,,,,,,,,,,,,,,,,,LDT,right,1.2172192269820243,0,,,right,0,1.2172192269820243,,,,,,,,,,,,,,,,,,,,,,1068,2019_Mar_14_1400,mf_amp_cond2,3.0.4,60.002732724173995,
infet,&&&&&,right,nonword,,,,,,,,0,142,142,58,,,,,,,,,,,,,,,,,,,,,LDT,right,1.41728625906444,1,,,right,1,1.41728625906444,,,,,,,,,,,,,,,,,,,,,,1068,2019_Mar_14_1400,mf_amp_cond2,3.0.4,60.002732724173995,
hence,&&&&&,left,neutral,,,,,,,,0,143,143,98,,,,,,,,,,,,,,,,,,,,,LDT,right,0.5503815055599262,0,,,right,0,0.5503815055599262,,,,,,,,,,,,,,,,,,,,,,1068,2019_Mar_14_1400,mf_amp_cond2,3.0.4,60.002732724173995,
latter,&&&&&&,left,neutral,,,,,,,,0,144,144,76,,,,,,,,,,,,,,,,,,,,,LDT,right,0.5670282336564014,0,,,right,0,0.5670282336564014,,,,,,,,,,,,,,,,,,,,,,1068,2019_Mar_14_1400,mf_amp_cond2,3.0.4,60.002732724173995,
ensure,&&&&&&,left,fairness.virtue,,,,,,,,0,145,145,161,,,,,,,,,,,,,,,,,,,,,LDT,right,0.6004092485031833,0,,,right,0,0.6004092485031833,,,,,,,,,,,,,,,,,,,,,,1068,2019_Mar_14_1400,mf_amp_cond2,3.0.4,60.002732724173995,
ilportation,&&&&&&&&&&&,right,nonword,,,,,,,,0,146,146,135,,,,,,,,,,,,,,,,,,,,,LDT,left,0.6503965797601268,0,,,left,0,0.6503965797601268,,,,,,,,,,,,,,,,,,,,,,1068,2019_Mar_14_1400,mf_amp_cond2,3.0.4,60.002732724173995,
penalty,&&&&&&&,left,authority.vice,,,,,,,,0,147,147,70,,,,,,,,,,,,,,,,,,,,,LDT,right,0.50036113935289,0,,,right,0,0.50036113935289,,,,,,,,,,,,,,,,,,,,,,1068,2019_Mar_14_1400,mf_amp_cond2,3.0.4,60.002732724173995,
uller,&&&&&,right,nonword,,,,,,,,0,148,148,35,,,,,,,,,,,,,,,,,,,,,LDT,right,0.5503555266186595,1,,,right,1,0.5503555266186595,,,,,,,,,,,,,,,,,,,,,,1068,2019_Mar_14_1400,mf_amp_cond2,3.0.4,60.002732724173995,
pistraught,&&&&&&&&&&,right,nonword,,,,,,,,0,149,149,117,,,,,,,,,,,,,,,,,,,,,LDT,left,2.1341440259661795,0,,,left,0,2.1341440259661795,,,,,,,,,,,,,,,,,,,,,,1068,2019_Mar_14_1400,mf_amp_cond2,3.0.4,60.002732724173995,
juck,&&&&,right,nonword,,,,,,,,0,150,150,74,,,,,,,,,,,,,,,,,,,,,LDT,right,0.5337043083347908,1,,,right,1,0.5337043083347908,,,,,,,,,,,,,,,,,,,,,,1068,2019_Mar_14_1400,mf_amp_cond2,3.0.4,60.002732724173995,
party,&&&&&,left,loyalty.virtue,,,,,,,,0,151,151,125,,,,,,,,,,,,,,,,,,,,,LDT,right,0.4170303183861961,0,,,right,0,0.4170303183861961,,,,,,,,,,,,,,,,,,,,,,1068,2019_Mar_14_1400,mf_amp_cond2,3.0.4,60.002732724173995,
encourage,&&&&&&&&&,left,authority.virtue,,,,,,,,0,152,152,53,,,,,,,,,,,,,,,,,,,,,LDT,right,0.5170441096759077,0,,,right,0,0.5170441096759077,,,,,,,,,,,,,,,,,,,,,,1068,2019_Mar_14_1400,mf_amp_cond2,3.0.4,60.002732724173995,
gusinesslike,&&&&&&&&&&&&,right,nonword,,,,,,,,0,153,153,141,,,,,,,,,,,,,,,,,,,,,LDT,right,1.3337758306045089,1,,,right,1,1.3337758306045089,,,,,,,,,,,,,,,,,,,,,,1068,2019_Mar_14_1400,mf_amp_cond2,3.0.4,60.002732724173995,
give,&&&&,left,neutral,,,,,,,,0,154,154,92,,,,,,,,,,,,,,,,,,,,,LDT,right,0.6004246434310971,0,,,right,0,0.6004246434310971,,,,,,,,,,,,,,,,,,,,,,1068,2019_Mar_14_1400,mf_amp_cond2,3.0.4,60.002732724173995,
oam,&&&,right,nonword,,,,,,,,0,155,155,178,,,,,,,,,,,,,,,,,,,,,LDT,left,0.7336270129671902,0,,,left,0,0.7336270129671902,,,,,,,,,,,,,,,,,,,,,,1068,2019_Mar_14_1400,mf_amp_cond2,3.0.4,60.002732724173995,
pharing,&&&&&&&,right,nonword,,,,,,,,0,156,156,186,,,,,,,,,,,,,,,,,,,,,LDT,right,0.6337257970883456,1,,,right,1,0.6337257970883456,,,,,,,,,,,,,,,,,,,,,,1068,2019_Mar_14_1400,mf_amp_cond2,3.0.4,60.002732724173995,
somehow,&&&&&&&,left,neutral,,,,,,,,0,157,157,40,,,,,,,,,,,,,,,,,,,,,LDT,right,0.7837009406941888,0,,,right,0,0.7837009406941888,,,,,,,,,,,,,,,,,,,,,,1068,2019_Mar_14_1400,mf_amp_cond2,3.0.4,60.002732724173995,
refuejing,&&&&&&&&&,right,nonword,,,,,,,,0,158,158,41,,,,,,,,,,,,,,,,,,,,,LDT,right,0.833794753536722,1,,,right,1,0.833794753536722,,,,,,,,,,,,,,,,,,,,,,1068,2019_Mar_14_1400,mf_amp_cond2,3.0.4,60.002732724173995,
elsewhere,&&&&&&&&&,left,neutral,,,,,,,,0,159,159,132,,,,,,,,,,,,,,,,,,,,,LDT,right,0.43369276213866215,0,,,right,0,0.43369276213866215,,,,,,,,,,,,,,,,,,,,,,1068,2019_Mar_14_1400,mf_amp_cond2,3.0.4,60.002732724173995,
discovars,&&&&&&&&&,right,nonword,,,,,,,,0,160,160,153,,,,,,,,,,,,,,,,,,,,,LDT,right,1.2339156678672225,1,,,right,1,1.2339156678672225,,,,,,,,,,,,,,,,,,,,,,1068,2019_Mar_14_1400,mf_amp_cond2,3.0.4,60.002732724173995,
intelligence,&&&&&&&&&&&&,left,loyalty.virtue,,,,,,,,0,161,161,180,,,,,,,,,,,,,,,,,,,,,LDT,right,0.5503840713811314,0,,,right,0,0.5503840713811314,,,,,,,,,,,,,,,,,,,,,,1068,2019_Mar_14_1400,mf_amp_cond2,3.0.4,60.002732724173995,
further,&&&&&&&,left,neutral,,,,,,,,0,162,162,65,,,,,,,,,,,,,,,,,,,,,LDT,right,0.4503892030238603,0,,,right,0,0.4503892030238603,,,,,,,,,,,,,,,,,,,,,,1068,2019_Mar_14_1400,mf_amp_cond2,3.0.4,60.002732724173995,
even,&&&&,left,neutral,,,,,,,,0,163,163,197,,,,,,,,,,,,,,,,,,,,,LDT,right,0.41701011254349396,0,,,right,0,0.41701011254349396,,,,,,,,,,,,,,,,,,,,,,1068,2019_Mar_14_1400,mf_amp_cond2,3.0.4,60.002732724173995,
energy,&&&&&&,left,sanctity.virtue,,,,,,,,0,164,164,166,,,,,,,,,,,,,,,,,,,,,LDT,right,0.4336757635724098,0,,,right,0,0.4336757635724098,,,,,,,,,,,,,,,,,,,,,,1068,2019_Mar_14_1400,mf_amp_cond2,3.0.4,60.002732724173995,
tove,&&&&,right,nonword,,,,,,,,0,165,165,138,,,,,,,,,,,,,,,,,,,,,LDT,right,0.5170280732927495,1,,,right,1,0.5170280732927495,,,,,,,,,,,,,,,,,,,,,,1068,2019_Mar_14_1400,mf_amp_cond2,3.0.4,60.002732724173995,
become,&&&&&&,left,neutral,,,,,,,,0,166,166,195,,,,,,,,,,,,,,,,,,,,,LDT,right,0.43368506467481893,0,,,right,0,0.43368506467481893,,,,,,,,,,,,,,,,,,,,,,1068,2019_Mar_14_1400,mf_amp_cond2,3.0.4,60.002732724173995,
chonograph,&&&&&&&&&&,right,nonword,,,,,,,,0,167,167,3,,,,,,,,,,,,,,,,,,,,,LDT,right,0.6670785879002779,1,,,right,1,0.6670785879002779,,,,,,,,,,,,,,,,,,,,,,1068,2019_Mar_14_1400,mf_amp_cond2,3.0.4,60.002732724173995,
alar,&&&&,right,nonword,,,,,,,,0,168,168,45,,,,,,,,,,,,,,,,,,,,,LDT,right,0.7004179081500297,1,,,right,1,0.7004179081500297,,,,,,,,,,,,,,,,,,,,,,1068,2019_Mar_14_1400,mf_amp_cond2,3.0.4,60.002732724173995,
toward,&&&&&&,left,neutral,,,,,,,,0,169,169,51,,,,,,,,,,,,,,,,,,,,,LDT,right,0.567042024946204,0,,,right,0,0.567042024946204,,,,,,,,,,,,,,,,,,,,,,1068,2019_Mar_14_1400,mf_amp_cond2,3.0.4,60.002732724173995,
faspberry,&&&&&&&&&,None,nonword,,,,,,,,0,170,170,71,,,,,,,,,,,,,,,,,,,,,LDT,right,0.7171034442942528,0,,,right,0,0.7171034442942528,,,,,,,,,,,,,,,,,,,,,,1068,2019_Mar_14_1400,mf_amp_cond2,3.0.4,60.002732724173995,
blunderints,&&&&&&&&&&&,right,nonword,,,,,,,,0,171,171,156,,,,,,,,,,,,,,,,,,,,,LDT,right,0.7337549833059711,1,,,right,1,0.7337549833059711,,,,,,,,,,,,,,,,,,,,,,1068,2019_Mar_14_1400,mf_amp_cond2,3.0.4,60.002732724173995,
eight,&&&&&,left,neutral,,,,,,,,0,172,172,164,,,,,,,,,,,,,,,,,,,,,LDT,right,0.68374552183991,0,,,right,0,0.68374552183991,,,,,,,,,,,,,,,,,,,,,,1068,2019_Mar_14_1400,mf_amp_cond2,3.0.4,60.002732724173995,
disregord,&&&&&&&&&,right,nonword,,,,,,,,0,173,173,20,,,,,,,,,,,,,,,,,,,,,LDT,right,0.5837359000097422,1,,,right,1,0.5837359000097422,,,,,,,,,,,,,,,,,,,,,,1068,2019_Mar_14_1400,mf_amp_cond2,3.0.4,60.002732724173995,
Oregoniuns,&&&&&&&&&&,right,nonword,,,,,,,,0,174,174,145,,,,,,,,,,,,,,,,,,,,,LDT,left,0.6504135783266065,0,,,left,0,0.6504135783266065,,,,,,,,,,,,,,,,,,,,,,1068,2019_Mar_14_1400,mf_amp_cond2,3.0.4,60.002732724173995,
grovelire,&&&&&&&&&,right,nonword,,,,,,,,0,175,175,80,,,,,,,,,,,,,,,,,,,,,LDT,left,2.1508282791999136,0,,,left,0,2.1508282791999136,,,,,,,,,,,,,,,,,,,,,,1068,2019_Mar_14_1400,mf_amp_cond2,3.0.4,60.002732724173995,
hefurbished,&&&&&&&&&&&,right,nonword,,,,,,,,0,176,176,9,,,,,,,,,,,,,,,,,,,,,LDT,right,0.9838208928415497,1,,,right,1,0.9838208928415497,,,,,,,,,,,,,,,,,,,,,,1068,2019_Mar_14_1400,mf_amp_cond2,3.0.4,60.002732724173995,
scalbel,&&&&&&&,right,nonword,,,,,,,,0,177,177,110,,,,,,,,,,,,,,,,,,,,,LDT,right,1.2338855194666394,1,,,right,1,1.2338855194666394,,,,,,,,,,,,,,,,,,,,,,1068,2019_Mar_14_1400,mf_amp_cond2,3.0.4,60.002732724173995,
godlaness,&&&&&&&&&,right,nonword,,,,,,,,0,178,178,11,,,,,,,,,,,,,,,,,,,,,LDT,right,0.5337306080034523,1,,,right,1,0.5337306080034523,,,,,,,,,,,,,,,,,,,,,,1068,2019_Mar_14_1400,mf_amp_cond2,3.0.4,60.002732724173995,
with,&&&&,left,neutral,,,,,,,,0,179,179,89,,,,,,,,,,,,,,,,,,,,,LDT,right,0.8838170441094917,0,,,right,0,0.8838170441094917,,,,,,,,,,,,,,,,,,,,,,1068,2019_Mar_14_1400,mf_amp_cond2,3.0.4,60.002732724173995,
edancipation,&&&&&&&&&&&&,None,nonword,,,,,,,,0,180,180,61,,,,,,,,,,,,,,,,,,,,,LDT,right,0.9338165630183539,0,,,right,0,0.9338165630183539,,,,,,,,,,,,,,,,,,,,,,1068,2019_Mar_14_1400,mf_amp_cond2,3.0.4,60.002732724173995,
groups,&&&&&&,left,loyalty.vice,,,,,,,,0,181,181,155,,,,,,,,,,,,,,,,,,,,,LDT,right,0.5670699282532041,0,,,right,0,0.5670699282532041,,,,,,,,,,,,,,,,,,,,,,1068,2019_Mar_14_1400,mf_amp_cond2,3.0.4,60.002732724173995,
prison,&&&&&&,left,fairness.vice,,,,,,,,0,182,182,175,,,,,,,,,,,,,,,,,,,,,LDT,right,0.7170874079110945,0,,,right,0,0.7170874079110945,,,,,,,,,,,,,,,,,,,,,,1068,2019_Mar_14_1400,mf_amp_cond2,3.0.4,60.002732724173995,
ebbitter,&&&&&&&&,right,nonword,,,,,,,,0,183,183,126,,,,,,,,,,,,,,,,,,,,,LDT,right,1.100534653020759,1,,,right,1,1.100534653020759,,,,,,,,,,,,,,,,,,,,,,1068,2019_Mar_14_1400,mf_amp_cond2,3.0.4,60.002732724173995,
Cunday,&&&&&&,None,nonword,,,,,,,,0,184,184,95,,,,,,,,,,,,,,,,,,,,,LDT,left,0.8004134179627727,0,,,left,0,0.8004134179627727,,,,,,,,,,,,,,,,,,,,,,1068,2019_Mar_14_1400,mf_amp_cond2,3.0.4,60.002732724173995,
values,&&&&&&,left,sanctity.virtue,,,,,,,,0,185,185,39,,,,,,,,,,,,,,,,,,,,,LDT,right,0.4170152441861319,0,,,right,0,0.4170152441861319,,,,,,,,,,,,,,,,,,,,,,1068,2019_Mar_14_1400,mf_amp_cond2,3.0.4,60.002732724173995,
tislay,&&&&&&,right,nonword,,,,,,,,0,186,186,106,,,,,,,,,,,,,,,,,,,,,LDT,right,0.6670801915386164,1,,,right,1,0.6670801915386164,,,,,,,,,,,,,,,,,,,,,,1068,2019_Mar_14_1400,mf_amp_cond2,3.0.4,60.002732724173995,
wonderfujnoss,&&&&&&&&&&&&&,right,nonword,,,,,,,,0,187,187,115,,,,,,,,,,,,,,,,,,,,,LDT,right,1.117224037897131,1,,,right,1,1.117224037897131,,,,,,,,,,,,,,,,,,,,,,1068,2019_Mar_14_1400,mf_amp_cond2,3.0.4,60.002732724173995,
ittutable,&&&&&&&&&,right,nonword,,,,,,,,0,188,188,85,,,,,,,,,,,,,,,,,,,,,LDT,right,0.6670721733469236,1,,,right,1,0.6670721733469236,,,,,,,,,,,,,,,,,,,,,,1068,2019_Mar_14_1400,mf_amp_cond2,3.0.4,60.002732724173995,
nomparisons,&&&&&&&&&&&,right,nonword,,,,,,,,0,189,189,160,,,,,,,,,,,,,,,,,,,,,LDT,right,0.6337607564039445,1,,,right,1,0.6337607564039445,,,,,,,,,,,,,,,,,,,,,,1068,2019_Mar_14_1400,mf_amp_cond2,3.0.4,60.002732724173995,
each,&&&&,left,neutral,,,,,,,,0,190,190,100,,,,,,,,,,,,,,,,,,,,,LDT,right,0.5170463547694908,0,,,right,0,0.5170463547694908,,,,,,,,,,,,,,,,,,,,,,1068,2019_Mar_14_1400,mf_amp_cond2,3.0.4,60.002732724173995,
fifteen,&&&&&&&,left,neutral,,,,,,,,0,191,191,193,,,,,,,,,,,,,,,,,,,,,LDT,right,0.5170537315061665,0,,,right,0,0.5170537315061665,,,,,,,,,,,,,,,,,,,,,,1068,2019_Mar_14_1400,mf_amp_cond2,3.0.4,60.002732724173995,
failure,&&&&&&&,left,loyalty.vice,,,,,,,,0,192,192,72,,,,,,,,,,,,,,,,,,,,,LDT,right,0.5670538918700458,0,,,right,0,0.5670538918700458,,,,,,,,,,,,,,,,,,,,,,1068,2019_Mar_14_1400,mf_amp_cond2,3.0.4,60.002732724173995,
forepo,&&&&&&,right,nonword,,,,,,,,0,193,193,90,,,,,,,,,,,,,,,,,,,,,LDT,left,0.9671629392767045,0,,,left,0,0.9671629392767045,,,,,,,,,,,,,,,,,,,,,,1068,2019_Mar_14_1400,mf_amp_cond2,3.0.4,60.002732724173995,
drug,&&&&,left,sanctity.vice,,,,,,,,0,194,194,105,,,,,,,,,,,,,,,,,,,,,LDT,right,0.650433784169536,0,,,right,0,0.650433784169536,,,,,,,,,,,,,,,,,,,,,,1068,2019_Mar_14_1400,mf_amp_cond2,3.0.4,60.002732724173995,
baklara,&&&&&&&,right,nonword,,,,,,,,0,195,195,59,,,,,,,,,,,,,,,,,,,,,LDT,left,0.5337367018289569,0,,,left,0,0.5337367018289569,,,,,,,,,,,,,,,,,,,,,,1068,2019_Mar_14_1400,mf_amp_cond2,3.0.4,60.002732724173995,
died,&&&&,left,care.vice,,,,,,,,0,196,196,46,,,,,,,,,,,,,,,,,,,,,LDT,right,0.6670920584622309,0,,,right,0,0.6670920584622309,,,,,,,,,,,,,,,,,,,,,,1068,2019_Mar_14_1400,mf_amp_cond2,3.0.4,60.002732724173995,
both,&&&&,left,neutral,,,,,,,,0,197,197,10,,,,,,,,,,,,,,,,,,,,,LDT,right,0.7504411609058934,0,,,right,0,0.7504411609058934,,,,,,,,,,,,,,,,,,,,,,1068,2019_Mar_14_1400,mf_amp_cond2,3.0.4,60.002732724173995,
viscs,&&&&&,None,nonword,,,,,,,,0,198,198,21,,,,,,,,,,,,,,,,,,,,,LDT,right,1.0171650240065446,0,,,right,0,1.0171650240065446,,,,,,,,,,,,,,,,,,,,,,1068,2019_Mar_14_1400,mf_amp_cond2,3.0.4,60.002732724173995,
safe,&&&&,left,care.virtue,,,,,,,,0,199,199,131,,,,,,,,,,,,,,,,,,,,,LDT,right,0.6837625204063897,0,,,right,0,0.6837625204063897,,,,,,,,,,,,,,,,,,,,,,1068,2019_Mar_14_1400,mf_amp_cond2,3.0.4,60.002732724173995,
,,,,,,,,,,,,,,,,,,,,,,,,,,,,,,,,,,,,,,,,,,,,4,11.122,,,,,,,,,,,,,,,,,,,,1068,2019_Mar_14_1400,mf_amp_cond2,3.0.4,60.002732724173995,
,,,,,,,,,,,,,,,,,,,,,,,,,,,,,,,,,,,,,,,,,,,,,,right,1.1172391120974225,,,,,,,,,,,,,,,,,,1068,2019_Mar_14_1400,mf_amp_cond2,3.0.4,60.002732724173995,
scarf,&&&&&&&&,,,bisebell,,,,,,,,,,,0,0,0,3,,,,,,,,,,,,,,,,,AMP_prac,right,2.267501306965187,,,,,,,,,,,right,2.267501306965187,,,,,,,,,,,,,,,,1068,2019_Mar_14_1400,mf_amp_cond2,3.0.4,60.002732724173995,
keyboard,&&&&,,,senk,,,,,,,,,,,0,1,1,2,,,,,,,,,,,,,,,,,AMP_prac,right,3.034392910635688,,,,,,,,,,,right,3.034392910635688,,,,,,,,,,,,,,,,1068,2019_Mar_14_1400,mf_amp_cond2,3.0.4,60.002732724173995,
car,&&&&&&&&,,,cemtuper,,,,,,,,,,,0,2,2,0,,,,,,,,,,,,,,,,,AMP_prac,right,2.0674310676063214,,,,,,,,,,,right,2.0674310676063214,,,,,,,,,,,,,,,,1068,2019_Mar_14_1400,mf_amp_cond2,3.0.4,60.002732724173995,
banana,&&&&&&,,,kacket,,,,,,,,,,,0,3,3,1,,,,,,,,,,,,,,,,,AMP_prac,right,1.8174103806716175,,,,,,,,,,,right,1.8174103806716175,,,,,,,,,,,,,,,,1068,2019_Mar_14_1400,mf_amp_cond2,3.0.4,60.002732724173995,
,,,,,,,,,,,,,,,,,,,,,,,,,,,,,,,,,,,,,,,,,,,,,,,,,,right,13.8873517837269,,,,,,,,,,,,,,1068,2019_Mar_14_1400,mf_amp_cond2,3.0.4,60.002732724173995,
rebels,&&&&&,right,authority.vice,touls,,,,,,,,,,,,,,,0,0,0,109,,,,,,,,,,,,,AMP,right,2.5175466899302137,1,,,,,,,,,,,,,,right,1,2.5175466899302137,,,,,,,,,,,1068,2019_Mar_14_1400,mf_amp_cond2,3.0.4,60.002732724173995,
galamitous,&&&&&,None,nonword,touls,,,,,,,,,,,,,,,0,1,1,250,,,,,,,,,,,,,AMP,right,0.9004599234745001,0,,,,,,,,,,,,,,right,0,0.9004599234745001,,,,,,,,,,,1068,2019_Mar_14_1400,mf_amp_cond2,3.0.4,60.002732724173995,
simplustic,&&&&&&,None,nonword,bycled,,,,,,,,,,,,,,,0,2,2,49,,,,,,,,,,,,,AMP,left,2.2174844687629047,0,,,,,,,,,,,,,,left,0,2.2174844687629047,,,,,,,,,,,1068,2019_Mar_14_1400,mf_amp_cond2,3.0.4,60.002732724173995,
perfect,&&&&&&&&&,left,sanctity.virtue,seachwear,,,,,,,,,,,,,,,0,3,3,211,,,,,,,,,,,,,AMP,left,1.4340106032566382,1,,,,,,,,,,,,,,left,1,1.4340106032566382,,,,,,,,,,,1068,2019_Mar_14_1400,mf_amp_cond2,3.0.4,60.002732724173995,
antral,&&&&&&,None,nonword,pumber,,,,,,,,,,,,,,,0,4,4,55,,,,,,,,,,,,,AMP,right,1.3672549881171108,0,,,,,,,,,,,,,,right,0,1.3672549881171108,,,,,,,,,,,1068,2019_Mar_14_1400,mf_amp_cond2,3.0.4,60.002732724173995,
care,&&&&&&&,left,care.virtue,Loorish,,,,,,,,,,,,,,,0,5,5,122,,,,,,,,,,,,,AMP,left,3.4678460892071143,1,,,,,,,,,,,,,,left,1,3.4678460892071143,,,,,,,,,,,1068,2019_Mar_14_1400,mf_amp_cond2,3.0.4,60.002732724173995,
peaceful,&&&&&&&&,left,authority.virtue,epigrach,,,,,,,,,,,,,,,0,6,6,275,,,,,,,,,,,,,AMP,left,2.2341552514344585,1,,,,,,,,,,,,,,left,1,2.2341552514344585,,,,,,,,,,,1068,2019_Mar_14_1400,mf_amp_cond2,3.0.4,60.002732724173995,
gun,&&&&,right,authority.vice,wump,,,,,,,,,,,,,,,0,7,7,81,,,,,,,,,,,,,AMP,left,3.017698073389056,0,,,,,,,,,,,,,,left,0,3.017698073389056,,,,,,,,,,,1068,2019_Mar_14_1400,mf_amp_cond2,3.0.4,60.002732724173995,
celebrated,&&&&&&&,left,authority.virtue,halaise,,,,,,,,,,,,,,,0,8,8,105,,,,,,,,,,,,,AMP,left,0.6004047583157899,1,,,,,,,,,,,,,,left,1,0.6004047583157899,,,,,,,,,,,1068,2019_Mar_14_1400,mf_amp_cond2,3.0.4,60.002732724173995,
free,&&&&&&&&&&,left,fairness.virtue,lorthwhile,,,,,,,,,,,,,,,0,9,9,138,,,,,,,,,,,,,AMP,left,1.2338826329175845,1,,,,,,,,,,,,,,left,1,1.2338826329175845,,,,,,,,,,,1068,2019_Mar_14_1400,mf_amp_cond2,3.0.4,60.002732724173995,
hope,&&&&&&&,left,loyalty.virtue,gedious,,,,,,,,,,,,,,,0,10,10,264,,,,,,,,,,,,,AMP,left,0.667064475882853,1,,,,,,,,,,,,,,left,1,0.667064475882853,,,,,,,,,,,1068,2019_Mar_14_1400,mf_amp_cond2,3.0.4,60.002732724173995,
interests,&&&&&,left,fairness.virtue,pulge,,,,,,,,,,,,,,,0,11,11,307,,,,,,,,,,,,,AMP,left,0.8837952346282236,1,,,,,,,,,,,,,,left,1,0.8837952346282236,,,,,,,,,,,1068,2019_Mar_14_1400,mf_amp_cond2,3.0.4,60.002732724173995,
attacks,&&&&&&&&&&&&,right,care.vice,unreflectuve,,,,,,,,,,,,,,,0,12,12,127,,,,,,,,,,,,,AMP,left,2.2841833151051105,0,,,,,,,,,,,,,,left,0,2.2841833151051105,,,,,,,,,,,1068,2019_Mar_14_1400,mf_amp_cond2,3.0.4,60.002732724173995,
army,&&&&&&,right,loyalty.vice,chared,,,,,,,,,,,,,,,0,13,13,14,,,,,,,,,,,,,AMP,right,1.1005089948073419,1,,,,,,,,,,,,,,right,1,1.1005089948073419,,,,,,,,,,,1068,2019_Mar_14_1400,mf_amp_cond2,3.0.4,60.002732724173995,
riot,&&&&&&&&&,right,authority.vice,gaultless,,,,,,,,,,,,,,,0,14,14,266,,,,,,,,,,,,,AMP,right,0.8171582887255227,1,,,,,,,,,,,,,,right,1,0.8171582887255227,,,,,,,,,,,1068,2019_Mar_14_1400,mf_amp_cond2,3.0.4,60.002732724173995,
antral,&&&&&&&&&&,None,nonword,fonderland,,,,,,,,,,,,,,,0,15,15,133,,,,,,,,,,,,,AMP,right,1.1505402657548984,0,,,,,,,,,,,,,,right,0,1.1505402657548984,,,,,,,,,,,1068,2019_Mar_14_1400,mf_amp_cond2,3.0.4,60.002732724173995,
peaceful,&&&&,left,authority.virtue,wump,,,,,,,,,,,,,,,0,16,16,148,,,,,,,,,,,,,AMP,left,1.4005933461837685,1,,,,,,,,,,,,,,left,1,1.4005933461837685,,,,,,,,,,,1068,2019_Mar_14_1400,mf_amp_cond2,3.0.4,60.002732724173995,
abuse,&&&&&,right,sanctity.vice,atson,,,,,,,,,,,,,,,0,17,17,83,,,,,,,,,,,,,AMP,right,1.333912781318304,1,,,,,,,,,,,,,,right,1,1.333912781318304,,,,,,,,,,,1068,2019_Mar_14_1400,mf_amp_cond2,3.0.4,60.002732724173995,
galamitous,&&&&&&&&&,None,nonword,chressing,,,,,,,,,,,,,,,0,18,18,207,,,,,,,,,,,,,AMP,left,1.2005461992166602,0,,,,,,,,,,,,,,left,0,1.2005461992166602,,,,,,,,,,,1068,2019_Mar_14_1400,mf_amp_cond2,3.0.4,60.002732724173995,
useful,&&&&&&,left,authority.virtue,squets,,,,,,,,,,,,,,,0,19,19,284,,,,,,,,,,,,,AMP,right,1.1338592197980688,0,,,,,,,,,,,,,,right,0,1.1338592197980688,,,,,,,,,,,1068,2019_Mar_14_1400,mf_amp_cond2,3.0.4,60.002732724173995,
prosecution,&&&&&&&&&,right,authority.vice,pescinded,,,,,,,,,,,,,,,0,20,20,243,,,,,,,,,,,,,AMP,right,1.6006494735254364,1,,,,,,,,,,,,,,right,1,1.6006494735254364,,,,,,,,,,,1068,2019_Mar_14_1400,mf_amp_cond2,3.0.4,60.002732724173995,
strength,&&&&&&&&,left,sanctity.virtue,slending,,,,,,,,,,,,,,,0,21,21,132,,,,,,,,,,,,,AMP,right,0.6337367018290934,0,,,,,,,,,,,,,,right,0,0.6337367018290934,,,,,,,,,,,1068,2019_Mar_14_1400,mf_amp_cond2,3.0.4,60.002732724173995,
gun,&&&&&&&&&&,right,authority.vice,totalestic,,,,,,,,,,,,,,,0,22,22,103,,,,,,,,,,,,,AMP,left,1.2172237171694178,0,,,,,,,,,,,,,,left,0,1.2172237171694178,,,,,,,,,,,1068,2019_Mar_14_1400,mf_amp_cond2,3.0.4,60.002732724173995,
ecgagement,&&&&&&&&&&,None,nonword,fonderland,,,,,,,,,,,,,,,0,23,23,177,,,,,,,,,,,,,AMP,right,0.8171088966646494,0,,,,,,,,,,,,,,right,0,0.8171088966646494,,,,,,,,,,,1068,2019_Mar_14_1400,mf_amp_cond2,3.0.4,60.002732724173995,
love,&&&&&,left,loyalty.virtue,lenon,,,,,,,,,,,,,,,0,24,24,289,,,,,,,,,,,,,AMP,left,1.4839616922874939,1,,,,,,,,,,,,,,left,1,1.4839616922874939,,,,,,,,,,,1068,2019_Mar_14_1400,mf_amp_cond2,3.0.4,60.002732724173995,
free,&&&&&&&&&,left,fairness.virtue,gandbrake,,,,,,,,,,,,,,,0,25,25,230,,,,,,,,,,,,,AMP,right,0.6170675227958782,0,,,,,,,,,,,,,,right,0,0.6170675227958782,,,,,,,,,,,1068,2019_Mar_14_1400,mf_amp_cond2,3.0.4,60.002732724173995,
respect,&&&&&&&&,left,sanctity.virtue,emassion,,,,,,,,,,,,,,,0,26,26,28,,,,,,,,,,,,,AMP,left,1.800724844527167,1,,,,,,,,,,,,,,left,1,1.800724844527167,,,,,,,,,,,1068,2019_Mar_14_1400,mf_amp_cond2,3.0.4,60.002732724173995,
free,&&&&&&,left,fairness.virtue,papert,,,,,,,,,,,,,,,0,27,27,12,,,,,,,,,,,,,AMP,left,1.1171842676665165,1,,,,,,,,,,,,,,left,1,1.1171842676665165,,,,,,,,,,,1068,2019_Mar_14_1400,mf_amp_cond2,3.0.4,60.002732724173995,
help,&&&&&&&&&&,left,care.virtue,frocessing,,,,,,,,,,,,,,,0,28,28,23,,,,,,,,,,,,,AMP,right,1.167209444788341,0,,,,,,,,,,,,,,right,0,1.167209444788341,,,,,,,,,,,1068,2019_Mar_14_1400,mf_amp_cond2,3.0.4,60.002732724173995,
unpleasant,&&&&&&&,None,control,lursuer,,,,,,,,,,,,,,,0,29,29,42,,,,,,,,,,,,,AMP,right,1.4006004021925946,0,,,,,,,,,,,,,,right,0,1.4006004021925946,,,,,,,,,,,1068,2019_Mar_14_1400,mf_amp_cond2,3.0.4,60.002732724173995,
gun,&&&&&&&&,right,authority.vice,clamorek,,,,,,,,,,,,,,,0,30,30,175,,,,,,,,,,,,,AMP,right,1.300554217408262,1,,,,,,,,,,,,,,right,1,1.300554217408262,,,,,,,,,,,1068,2019_Mar_14_1400,mf_amp_cond2,3.0.4,60.002732724173995,
perfect,&&&&&&&,left,sanctity.virtue,Loorish,,,,,,,,,,,,,,,0,31,31,27,,,,,,,,,,,,,AMP,right,2.0841146793845837,0,,,,,,,,,,,,,,right,0,2.0841146793845837,,,,,,,,,,,1068,2019_Mar_14_1400,mf_amp_cond2,3.0.4,60.002732724173995,
harassment,&&&&&&&&,right,sanctity.vice,bluently,,,,,,,,,,,,,,,0,32,32,32,,,,,,,,,,,,,AMP,right,0.6670535711421053,1,,,,,,,,,,,,,,right,1,0.6670535711421053,,,,,,,,,,,1068,2019_Mar_14_1400,mf_amp_cond2,3.0.4,60.002732724173995,
violence,&&&&&&&&&,right,care.vice,unscothed,,,,,,,,,,,,,,,0,33,33,54,,,,,,,,,,,,,AMP,right,0.7671189995862733,1,,,,,,,,,,,,,,right,1,0.7671189995862733,,,,,,,,,,,1068,2019_Mar_14_1400,mf_amp_cond2,3.0.4,60.002732724173995,
hate,&&&&&&&&&&&,right,fairness.vice,fornicalion,,,,,,,,,,,,,,,0,34,34,173,,,,,,,,,,,,,AMP,left,0.8337662087742501,0,,,,,,,,,,,,,,left,0,0.8337662087742501,,,,,,,,,,,1068,2019_Mar_14_1400,mf_amp_cond2,3.0.4,60.002732724173995,
growth,&&&&&&,left,care.virtue,letish,,,,,,,,,,,,,,,0,35,35,24,,,,,,,,,,,,,AMP,left,1.0171480254400649,1,,,,,,,,,,,,,,left,1,1.0171480254400649,,,,,,,,,,,1068,2019_Mar_14_1400,mf_amp_cond2,3.0.4,60.002732724173995,
commitment,&&&&&&&&&,left,sanctity.virtue,gillipede,,,,,,,,,,,,,,,0,36,36,187,,,,,,,,,,,,,AMP,right,1.7340102825289705,0,,,,,,,,,,,,,,right,0,1.7340102825289705,,,,,,,,,,,1068,2019_Mar_14_1400,mf_amp_cond2,3.0.4,60.002732724173995,
praise,&&&&&&&&&,left,authority.virtue,seachwear,,,,,,,,,,,,,,,0,37,37,40,,,,,,,,,,,,,AMP,right,1.0505283988311476,0,,,,,,,,,,,,,,right,0,1.0505283988311476,,,,,,,,,,,1068,2019_Mar_14_1400,mf_amp_cond2,3.0.4,60.002732724173995,
sharing,&&&&&&,left,loyalty.virtue,squets,,,,,,,,,,,,,,,0,38,38,150,,,,,,,,,,,,,AMP,right,0.5170190929181899,0,,,,,,,,,,,,,,right,0,0.5170190929181899,,,,,,,,,,,1068,2019_Mar_14_1400,mf_amp_cond2,3.0.4,60.002732724173995,
opportunity,&&&,left,fairness.virtue,mih,,,,,,,,,,,,,,,0,39,39,97,,,,,,,,,,,,,AMP,right,1.1672104069712077,0,,,,,,,,,,,,,,right,0,1.1672104069712077,,,,,,,,,,,1068,2019_Mar_14_1400,mf_amp_cond2,3.0.4,60.002732724173995,
racist,&&&&&,right,sanctity.vice,touls,,,,,,,,,,,,,,,0,40,40,31,,,,,,,,,,,,,AMP,left,1.200547802855226,0,,,,,,,,,,,,,,left,0,1.200547802855226,,,,,,,,,,,1068,2019_Mar_14_1400,mf_amp_cond2,3.0.4,60.002732724173995,
forced,&&&&&,right,fairness.vice,pafer,,,,,,,,,,,,,,,0,41,41,319,,,,,,,,,,,,,AMP,right,0.5170206965563011,1,,,,,,,,,,,,,,right,1,0.5170206965563011,,,,,,,,,,,1068,2019_Mar_14_1400,mf_amp_cond2,3.0.4,60.002732724173995,
benefit,&&&&&&&&&,left,fairness.virtue,chressing,,,,,,,,,,,,,,,0,42,42,263,,,,,,,,,,,,,AMP,right,1.1505207013672134,0,,,,,,,,,,,,,,right,0,1.1505207013672134,,,,,,,,,,,1068,2019_Mar_14_1400,mf_amp_cond2,3.0.4,60.002732724173995,
good,&&&&&&&&,left,care.virtue,slending,,,,,,,,,,,,,,,0,43,43,294,,,,,,,,,,,,,AMP,right,0.5670128387284876,0,,,,,,,,,,,,,,right,0,0.5670128387284876,,,,,,,,,,,1068,2019_Mar_14_1400,mf_amp_cond2,3.0.4,60.002732724173995,
free,&&&&&&&&,left,fairness.virtue,emassion,,,,,,,,,,,,,,,0,44,44,299,,,,,,,,,,,,,AMP,left,0.7837609167679602,1,,,,,,,,,,,,,,left,1,0.7837609167679602,,,,,,,,,,,1068,2019_Mar_14_1400,mf_amp_cond2,3.0.4,60.002732724173995,
forced,&&&&&&&&,right,fairness.vice,proached,,,,,,,,,,,,,,,0,45,45,72,,,,,,,,,,,,,AMP,left,0.8004316994397414,0,,,,,,,,,,,,,,left,0,0.8004316994397414,,,,,,,,,,,1068,2019_Mar_14_1400,mf_amp_cond2,3.0.4,60.002732724173995,
praise,&&&&&&&&,left,authority.virtue,bluently,,,,,,,,,,,,,,,0,46,46,310,,,,,,,,,,,,,AMP,right,0.45041293687131656,0,,,,,,,,,,,,,,right,0,0.45041293687131656,,,,,,,,,,,1068,2019_Mar_14_1400,mf_amp_cond2,3.0.4,60.002732724173995,
ecgagement,&&&&&,None,nonword,aubos,,,,,,,,,,,,,,,0,47,47,10,,,,,,,,,,,,,AMP,left,0.833766850229722,0,,,,,,,,,,,,,,left,0,0.833766850229722,,,,,,,,,,,1068,2019_Mar_14_1400,mf_amp_cond2,3.0.4,60.002732724173995,
men,&&&&&&&,right,loyalty.vice,carvels,,,,,,,,,,,,,,,0,48,48,205,,,,,,,,,,,,,AMP,right,1.9340715415135037,1,,,,,,,,,,,,,,right,1,1.9340715415135037,,,,,,,,,,,1068,2019_Mar_14_1400,mf_amp_cond2,3.0.4,60.002732724173995,
faith,&&&&&&&&,left,sanctity.virtue,emassion,,,,,,,,,,,,,,,0,49,49,216,,,,,,,,,,,,,AMP,left,2.1174652251027055,1,,,,,,,,,,,,,,left,1,2.1174652251027055,,,,,,,,,,,1068,2019_Mar_14_1400,mf_amp_cond2,3.0.4,60.002732724173995,
love,&&&&&&&&&&&,left,loyalty.virtue,ronviolence,,,,,,,,,,,,,,,0,50,50,163,,,,,,,,,,,,,AMP,right,0.7004102106861865,0,,,,,,,,,,,,,,right,0,0.7004102106861865,,,,,,,,,,,1068,2019_Mar_14_1400,mf_amp_cond2,3.0.4,60.002732724173995,
stindig,&&&&&&&&&&&,None,nonword,vicissifude,,,,,,,,,,,,,,,0,51,51,116,,,,,,,,,,,,,AMP,left,1.1671953327711435,0,,,,,,,,,,,,,,left,0,1.1671953327711435,,,,,,,,,,,1068,2019_Mar_14_1400,mf_amp_cond2,3.0.4,60.002732724173995,
promised,&&&&&&,left,loyalty.virtue,openet,,,,,,,,,,,,,,,0,52,52,5,,,,,,,,,,,,,AMP,right,1.500617400758756,0,,,,,,,,,,,,,,right,0,1.500617400758756,,,,,,,,,,,1068,2019_Mar_14_1400,mf_amp_cond2,3.0.4,60.002732724173995,
benefit,&&&&&&&&&,left,fairness.virtue,gandbrake,,,,,,,,,,,,,,,0,53,53,108,,,,,,,,,,,,,AMP,left,1.8673710915325046,1,,,,,,,,,,,,,,left,1,1.8673710915325046,,,,,,,,,,,1068,2019_Mar_14_1400,mf_amp_cond2,3.0.4,60.002732724173995,
good,&&&&&&&&&&,left,care.virtue,ejanulated,,,,,,,,,,,,,,,0,54,54,145,,,,,,,,,,,,,AMP,right,0.9838096673734071,0,,,,,,,,,,,,,,right,0,0.9838096673734071,,,,,,,,,,,1068,2019_Mar_14_1400,mf_amp_cond2,3.0.4,60.002732724173995,
tracious,&&&&&&&&&,None,nonword,crilfully,,,,,,,,,,,,,,,0,55,55,45,,,,,,,,,,,,,AMP,left,0.8838083844627818,0,,,,,,,,,,,,,,left,0,0.8838083844627818,,,,,,,,,,,1068,2019_Mar_14_1400,mf_amp_cond2,3.0.4,60.002732724173995,
violations,&&&&,right,sanctity.vice,wump,,,,,,,,,,,,,,,0,56,56,280,,,,,,,,,,,,,AMP,left,0.6003736477318853,0,,,,,,,,,,,,,,left,0,0.6003736477318853,,,,,,,,,,,1068,2019_Mar_14_1400,mf_amp_cond2,3.0.4,60.002732724173995,
abuse,&&&&&&&&,right,sanctity.vice,gournful,,,,,,,,,,,,,,,0,57,57,226,,,,,,,,,,,,,AMP,left,0.5169661728530173,0,,,,,,,,,,,,,,left,0,0.5169661728530173,,,,,,,,,,,1068,2019_Mar_14_1400,mf_amp_cond2,3.0.4,60.002732724173995,
charges,&&&&&&&&&&&&&,right,fairness.vice,esquisiteness,,,,,,,,,,,,,,,0,58,58,114,,,,,,,,,,,,,AMP,right,1.3172464888339164,1,,,,,,,,,,,,,,right,1,1.3172464888339164,,,,,,,,,,,1068,2019_Mar_14_1400,mf_amp_cond2,3.0.4,60.002732724173995,
terrorist,&&&&&&&&,right,loyalty.vice,dormandi,,,,,,,,,,,,,,,0,59,59,11,,,,,,,,,,,,,AMP,left,0.6337437578376921,0,,,,,,,,,,,,,,left,0,0.6337437578376921,,,,,,,,,,,1068,2019_Mar_14_1400,mf_amp_cond2,3.0.4,60.002732724173995,
hate,&&&&&,right,fairness.vice,atson,,,,,,,,,,,,,,,0,60,60,60,,,,,,,,,,,,,AMP,right,0.8504491790974953,1,,,,,,,,,,,,,,right,1,0.8504491790974953,,,,,,,,,,,1068,2019_Mar_14_1400,mf_amp_cond2,3.0.4,60.002732724173995,
serial,&&&&&&&&&&,right,sanctity.vice,clattening,,,,,,,,,,,,,,,0,61,61,305,,,,,,,,,,,,,AMP,right,2.367532096821378,1,,,,,,,,,,,,,,right,1,2.367532096821378,,,,,,,,,,,1068,2019_Mar_14_1400,mf_amp_cond2,3.0.4,60.002732724173995,
peaceful,&&&&&&&&,left,authority.virtue,clamorek,,,,,,,,,,,,,,,0,62,62,75,,,,,,,,,,,,,AMP,left,1.1838600216169652,1,,,,,,,,,,,,,,left,1,1.1838600216169652,,,,,,,,,,,1068,2019_Mar_14_1400,mf_amp_cond2,3.0.4,60.002732724173995,
promote,&&&&&&&&&&,left,sanctity.virtue,totalestic,,,,,,,,,,,,,,,0,63,63,273,,,,,,,,,,,,,AMP,right,1.567178013476905,0,,,,,,,,,,,,,,right,0,1.567178013476905,,,,,,,,,,,1068,2019_Mar_14_1400,mf_amp_cond2,3.0.4,60.002732724173995,
army,&&&&&&,right,loyalty.vice,fostet,,,,,,,,,,,,,,,0,64,64,178,,,,,,,,,,,,,AMP,left,2.3341850791073284,0,,,,,,,,,,,,,,left,0,2.3341850791073284,,,,,,,,,,,1068,2019_Mar_14_1400,mf_amp_cond2,3.0.4,60.002732724173995,
sharing,&&&&&&,left,loyalty.virtue,strofe,,,,,,,,,,,,,,,0,65,65,18,,,,,,,,,,,,,AMP,right,0.9338043753668899,0,,,,,,,,,,,,,,right,0,0.9338043753668899,,,,,,,,,,,1068,2019_Mar_14_1400,mf_amp_cond2,3.0.4,60.002732724173995,
love,&&&&&&,left,loyalty.virtue,sonvoy,,,,,,,,,,,,,,,0,66,66,244,,,,,,,,,,,,,AMP,right,3.817955938433215,0,,,,,,,,,,,,,,right,0,3.817955938433215,,,,,,,,,,,1068,2019_Mar_14_1400,mf_amp_cond2,3.0.4,60.002732724173995,
growth,&&&&&&&&,left,care.virtue,epigrach,,,,,,,,,,,,,,,0,67,67,139,,,,,,,,,,,,,AMP,left,0.5670583820572119,1,,,,,,,,,,,,,,left,1,0.5670583820572119,,,,,,,,,,,1068,2019_Mar_14_1400,mf_amp_cond2,3.0.4,60.002732724173995,
forced,&&&&&&&&,right,fairness.vice,perified,,,,,,,,,,,,,,,0,68,68,217,,,,,,,,,,,,,AMP,right,0.7004464529125016,1,,,,,,,,,,,,,,right,1,0.7004464529125016,,,,,,,,,,,1068,2019_Mar_14_1400,mf_amp_cond2,3.0.4,60.002732724173995,
peace,&&&&&&&&,left,care.virtue,slending,,,,,,,,,,,,,,,0,69,69,48,,,,,,,,,,,,,AMP,right,0.4670410627632009,0,,,,,,,,,,,,,,right,0,0.4670410627632009,,,,,,,,,,,1068,2019_Mar_14_1400,mf_amp_cond2,3.0.4,60.002732724173995,
blamed,&&&&&&&&&,right,loyalty.vice,gandbrake,,,,,,,,,,,,,,,0,70,70,309,,,,,,,,,,,,,AMP,left,0.48370254433257287,0,,,,,,,,,,,,,,left,0,0.48370254433257287,,,,,,,,,,,1068,2019_Mar_14_1400,mf_amp_cond2,3.0.4,60.002732724173995,
great,&&&&&&&&&,left,loyalty.virtue,seachwear,,,,,,,,,,,,,,,0,71,71,155,,,,,,,,,,,,,AMP,left,0.9004717903978872,1,,,,,,,,,,,,,,left,1,0.9004717903978872,,,,,,,,,,,1068,2019_Mar_14_1400,mf_amp_cond2,3.0.4,60.002732724173995,
egpeditious,&&&&&&&&,None,nonword,perified,,,,,,,,,,,,,,,0,72,72,89,,,,,,,,,,,,,AMP,left,1.6340208665419595,0,,,,,,,,,,,,,,left,0,1.6340208665419595,,,,,,,,,,,1068,2019_Mar_14_1400,mf_amp_cond2,3.0.4,60.002732724173995,
loyalty,&&&&&&&,left,loyalty.virtue,Daptist,,,,,,,,,,,,,,,0,73,73,43,,,,,,,,,,,,,AMP,right,1.3839328267974906,0,,,,,,,,,,,,,,right,0,1.3839328267974906,,,,,,,,,,,1068,2019_Mar_14_1400,mf_amp_cond2,3.0.4,60.002732724173995,
improve,&&&&&&&&&&,left,care.virtue,totalestic,,,,,,,,,,,,,,,0,74,74,182,,,,,,,,,,,,,AMP,right,0.717100237017803,0,,,,,,,,,,,,,,right,0,0.717100237017803,,,,,,,,,,,1068,2019_Mar_14_1400,mf_amp_cond2,3.0.4,60.002732724173995,
win,&&&&&&&&&,left,fairness.virtue,seachwear,,,,,,,,,,,,,,,0,75,75,269,,,,,,,,,,,,,AMP,right,0.7837583509465276,0,,,,,,,,,,,,,,right,0,0.7837583509465276,,,,,,,,,,,1068,2019_Mar_14_1400,mf_amp_cond2,3.0.4,60.002732724173995,
fighters,&&&&&&&&&,right,authority.vice,Phintoism,,,,,,,,,,,,,,,0,76,76,71,,,,,,,,,,,,,AMP,right,1.367251460112584,1,,,,,,,,,,,,,,right,1,1.367251460112584,,,,,,,,,,,1068,2019_Mar_14_1400,mf_amp_cond2,3.0.4,60.002732724173995,
harassment,&&&&&,right,sanctity.vice,leact,,,,,,,,,,,,,,,0,77,77,288,,,,,,,,,,,,,AMP,left,0.5003563284378743,0,,,,,,,,,,,,,,left,0,0.5003563284378743,,,,,,,,,,,1068,2019_Mar_14_1400,mf_amp_cond2,3.0.4,60.002732724173995,
troops,&&&&&&&&&,right,loyalty.vice,gaultless,,,,,,,,,,,,,,,0,78,78,156,,,,,,,,,,,,,AMP,left,0.967146261437847,0,,,,,,,,,,,,,,left,0,0.967146261437847,,,,,,,,,,,1068,2019_Mar_14_1400,mf_amp_cond2,3.0.4,60.002732724173995,
perfect,&&&&&&&&&,left,sanctity.virtue,unscothed,,,,,,,,,,,,,,,0,79,79,115,,,,,,,,,,,,,AMP,right,0.4671010388369723,0,,,,,,,,,,,,,,right,0,0.4671010388369723,,,,,,,,,,,1068,2019_Mar_14_1400,mf_amp_cond2,3.0.4,60.002732724173995,
rejected,&&&&&&&&,right,authority.vice,sfumatoy,,,,,,,,,,,,,,,0,80,80,195,,,,,,,,,,,,,AMP,left,1.6840062734331696,0,,,,,,,,,,,,,,left,0,1.6840062734331696,,,,,,,,,,,1068,2019_Mar_14_1400,mf_amp_cond2,3.0.4,60.002732724173995,
opportunity,&&&&&&&&,left,fairness.virtue,gowlands,,,,,,,,,,,,,,,0,81,81,176,,,,,,,,,,,,,AMP,left,0.9504873456899077,1,,,,,,,,,,,,,,left,1,0.9504873456899077,,,,,,,,,,,1068,2019_Mar_14_1400,mf_amp_cond2,3.0.4,60.002732724173995,
unpleasant,&&&&&&,None,control,laming,,,,,,,,,,,,,,,0,82,82,253,,,,,,,,,,,,,AMP,left,0.7670843609982967,0,,,,,,,,,,,,,,left,0,0.7670843609982967,,,,,,,,,,,1068,2019_Mar_14_1400,mf_amp_cond2,3.0.4,60.002732724173995,
voter,&&&&&&,right,fairness.vice,prones,,,,,,,,,,,,,,,0,83,83,292,,,,,,,,,,,,,AMP,right,0.7504206343351143,1,,,,,,,,,,,,,,right,1,0.7504206343351143,,,,,,,,,,,1068,2019_Mar_14_1400,mf_amp_cond2,3.0.4,60.002732724173995,
hope,&&&&&,left,loyalty.virtue,tabin,,,,,,,,,,,,,,,0,84,84,0,,,,,,,,,,,,,AMP,right,0.7170983126518422,0,,,,,,,,,,,,,,right,0,0.7170983126518422,,,,,,,,,,,1068,2019_Mar_14_1400,mf_amp_cond2,3.0.4,60.002732724173995,
respect,&&&&,left,sanctity.virtue,coom,,,,,,,,,,,,,,,0,85,85,119,,,,,,,,,,,,,AMP,left,1.1671905218559004,1,,,,,,,,,,,,,,left,1,1.1671905218559004,,,,,,,,,,,1068,2019_Mar_14_1400,mf_amp_cond2,3.0.4,60.002732724173995,
ecgagement,&&&&&,None,nonword,noped,,,,,,,,,,,,,,,0,86,86,318,,,,,,,,,,,,,AMP,right,0.7837487291167236,0,,,,,,,,,,,,,,right,0,0.7837487291167236,,,,,,,,,,,1068,2019_Mar_14_1400,mf_amp_cond2,3.0.4,60.002732724173995,
violations,&&&&&&&,right,sanctity.vice,lursuer,,,,,,,,,,,,,,,0,87,87,123,,,,,,,,,,,,,AMP,left,0.9671443370721136,0,,,,,,,,,,,,,,left,0,0.9671443370721136,,,,,,,,,,,1068,2019_Mar_14_1400,mf_amp_cond2,3.0.4,60.002732724173995,
corruption,&&&&&&&&,right,sanctity.vice,dormandi,,,,,,,,,,,,,,,0,88,88,221,,,,,,,,,,,,,AMP,right,1.2338935376583322,1,,,,,,,,,,,,,,right,1,1.2338935376583322,,,,,,,,,,,1068,2019_Mar_14_1400,mf_amp_cond2,3.0.4,60.002732724173995,
useful,&&&&&,left,authority.virtue,atson,,,,,,,,,,,,,,,0,89,89,201,,,,,,,,,,,,,AMP,left,1.2005593490512183,1,,,,,,,,,,,,,,left,1,1.2005593490512183,,,,,,,,,,,1068,2019_Mar_14_1400,mf_amp_cond2,3.0.4,60.002732724173995,
help,&&&&&&,left,care.virtue,openet,,,,,,,,,,,,,,,0,90,90,255,,,,,,,,,,,,,AMP,right,0.9671414505228313,0,,,,,,,,,,,,,,right,0,0.9671414505228313,,,,,,,,,,,1068,2019_Mar_14_1400,mf_amp_cond2,3.0.4,60.002732724173995,
critics,&&&&&&&&&&&,right,loyalty.vice,mightingale,,,,,,,,,,,,,,,0,91,91,248,,,,,,,,,,,,,AMP,right,0.5503638655382019,1,,,,,,,,,,,,,,right,1,0.5503638655382019,,,,,,,,,,,1068,2019_Mar_14_1400,mf_amp_cond2,3.0.4,60.002732724173995,
integrity,&&&&&&&&&,left,fairness.virtue,crilfully,,,,,,,,,,,,,,,0,92,92,86,,,,,,,,,,,,,AMP,left,1.050493760243171,1,,,,,,,,,,,,,,left,1,1.050493760243171,,,,,,,,,,,1068,2019_Mar_14_1400,mf_amp_cond2,3.0.4,60.002732724173995,
ability,&&&&&&&&&&,left,authority.virtue,frojecting,,,,,,,,,,,,,,,0,93,93,50,,,,,,,,,,,,,AMP,right,0.5503616204443915,0,,,,,,,,,,,,,,right,0,0.5503616204443915,,,,,,,,,,,1068,2019_Mar_14_1400,mf_amp_cond2,3.0.4,60.002732724173995,
serial,&&&&&&&,right,sanctity.vice,allears,,,,,,,,,,,,,,,0,94,94,232,,,,,,,,,,,,,AMP,left,0.9504732336727102,0,,,,,,,,,,,,,,left,0,0.9504732336727102,,,,,,,,,,,1068,2019_Mar_14_1400,mf_amp_cond2,3.0.4,60.002732724173995,
antral,&&&&&,None,nonword,mecan,,,,,,,,,,,,,,,0,95,95,325,,,,,,,,,,,,,AMP,right,1.333908932586155,0,,,,,,,,,,,,,,right,0,1.333908932586155,,,,,,,,,,,1068,2019_Mar_14_1400,mf_amp_cond2,3.0.4,60.002732724173995,
injured,&&&&&&&&&,right,care.vice,gandbrake,,,,,,,,,,,,,,,0,96,96,41,,,,,,,,,,,,,AMP,left,0.5837044686986701,0,,,,,,,,,,,,,,left,0,0.5837044686986701,,,,,,,,,,,1068,2019_Mar_14_1400,mf_amp_cond2,3.0.4,60.002732724173995,
respect,&&&&&&,left,sanctity.virtue,pumber,,,,,,,,,,,,,,,0,97,97,242,,,,,,,,,,,,,AMP,left,0.433687309768402,1,,,,,,,,,,,,,,left,1,0.433687309768402,,,,,,,,,,,1068,2019_Mar_14_1400,mf_amp_cond2,3.0.4,60.002732724173995,
promises,&&&&&&&&&,left,fairness.virtue,gaultless,,,,,,,,,,,,,,,0,98,98,39,,,,,,,,,,,,,AMP,left,0.5337184203519882,1,,,,,,,,,,,,,,left,1,0.5337184203519882,,,,,,,,,,,1068,2019_Mar_14_1400,mf_amp_cond2,3.0.4,60.002732724173995,
terrorists,&&&&&&&&,right,fairness.vice,sfumatoy,,,,,,,,,,,,,,,0,99,99,16,,,,,,,,,,,,,AMP,right,0.46702213983076035,1,,,,,,,,,,,,,,right,1,0.46702213983076035,,,,,,,,,,,1068,2019_Mar_14_1400,mf_amp_cond2,3.0.4,60.002732724173995,
great,&&&&&&&&&&&&,left,loyalty.virtue,iptervention,,,,,,,,,,,,,,,0,100,100,293,,,,,,,,,,,,,AMP,left,0.6170566180549031,1,,,,,,,,,,,,,,left,1,0.6170566180549031,,,,,,,,,,,1068,2019_Mar_14_1400,mf_amp_cond2,3.0.4,60.002732724173995,
critics,&&&&&,right,loyalty.vice,lenon,,,,,,,,,,,,,,,0,101,101,245,,,,,,,,,,,,,AMP,left,0.6171143490350914,0,,,,,,,,,,,,,,left,0,0.6171143490350914,,,,,,,,,,,1068,2019_Mar_14_1400,mf_amp_cond2,3.0.4,60.002732724173995,
tracious,&&&&&&,None,nonword,papert,,,,,,,,,,,,,,,0,102,102,212,,,,,,,,,,,,,AMP,right,1.2005567832297857,0,,,,,,,,,,,,,,right,0,1.2005567832297857,,,,,,,,,,,1068,2019_Mar_14_1400,mf_amp_cond2,3.0.4,60.002732724173995,
black,&&&&&&&&&&&&,right,loyalty.vice,nonobservalt,,,,,,,,,,,,,,,0,103,103,130,,,,,,,,,,,,,AMP,left,2.367533059004245,0,,,,,,,,,,,,,,left,0,2.367533059004245,,,,,,,,,,,1068,2019_Mar_14_1400,mf_amp_cond2,3.0.4,60.002732724173995,
hope,&&&&&&&&,left,loyalty.virtue,dormandi,,,,,,,,,,,,,,,0,104,104,120,,,,,,,,,,,,,AMP,right,0.7837692556872753,0,,,,,,,,,,,,,,right,0,0.7837692556872753,,,,,,,,,,,1068,2019_Mar_14_1400,mf_amp_cond2,3.0.4,60.002732724173995,
support,&&&&&&&&&,left,loyalty.virtue,gaultless,,,,,,,,,,,,,,,0,105,105,202,,,,,,,,,,,,,AMP,right,0.6004060412262788,0,,,,,,,,,,,,,,right,0,0.6004060412262788,,,,,,,,,,,1068,2019_Mar_14_1400,mf_amp_cond2,3.0.4,60.002732724173995,
improve,&&&&&&&&&&&,left,care.virtue,neneficence,,,,,,,,,,,,,,,0,106,106,13,,,,,,,,,,,,,AMP,left,0.6170370536674454,1,,,,,,,,,,,,,,left,1,0.6170370536674454,,,,,,,,,,,1068,2019_Mar_14_1400,mf_amp_cond2,3.0.4,60.002732724173995,
strength,&&&&&&&&,left,sanctity.virtue,glacenta,,,,,,,,,,,,,,,0,107,107,260,,,,,,,,,,,,,AMP,right,0.8669907085193245,0,,,,,,,,,,,,,,right,0,0.8669907085193245,,,,,,,,,,,1068,2019_Mar_14_1400,mf_amp_cond2,3.0.4,60.002732724173995,
ability,&&&&&&,left,authority.virtue,chared,,,,,,,,,,,,,,,0,108,108,160,,,,,,,,,,,,,AMP,right,0.5837179392606231,0,,,,,,,,,,,,,,right,0,0.5837179392606231,,,,,,,,,,,1068,2019_Mar_14_1400,mf_amp_cond2,3.0.4,60.002732724173995,
good,&&&&&&&,left,care.virtue,smapper,,,,,,,,,,,,,,,0,109,109,209,,,,,,,,,,,,,AMP,right,0.6170518071401148,0,,,,,,,,,,,,,,right,0,0.6170518071401148,,,,,,,,,,,1068,2019_Mar_14_1400,mf_amp_cond2,3.0.4,60.002732724173995,
threatened,&&&&&&&,right,fairness.vice,sickyay,,,,,,,,,,,,,,,0,110,110,261,,,,,,,,,,,,,AMP,right,0.9507185903378286,1,,,,,,,,,,,,,,right,1,0.9507185903378286,,,,,,,,,,,1068,2019_Mar_14_1400,mf_amp_cond2,3.0.4,60.002732724173995,
pleasant,&&&&&&&,None,control,halaise,,,,,,,,,,,,,,,0,111,111,15,,,,,,,,,,,,,AMP,left,0.7670837195430522,0,,,,,,,,,,,,,,left,0,0.7670837195430522,,,,,,,,,,,1068,2019_Mar_14_1400,mf_amp_cond2,3.0.4,60.002732724173995,
dignity,&&&&&&&&&,left,sanctity.virtue,pescinded,,,,,,,,,,,,,,,0,112,112,128,,,,,,,,,,,,,AMP,right,0.8004525467381427,0,,,,,,,,,,,,,,right,0,0.8004525467381427,,,,,,,,,,,1068,2019_Mar_14_1400,mf_amp_cond2,3.0.4,60.002732724173995,
stindig,&&&&&,None,nonword,lenon,,,,,,,,,,,,,,,0,113,113,57,,,,,,,,,,,,,AMP,left,0.4836881115875258,0,,,,,,,,,,,,,,left,0,0.4836881115875258,,,,,,,,,,,1068,2019_Mar_14_1400,mf_amp_cond2,3.0.4,60.002732724173995,
win,&&&&&&,left,fairness.virtue,sonvoy,,,,,,,,,,,,,,,0,114,114,101,,,,,,,,,,,,,AMP,right,0.767079550083281,0,,,,,,,,,,,,,,right,0,0.767079550083281,,,,,,,,,,,1068,2019_Mar_14_1400,mf_amp_cond2,3.0.4,60.002732724173995,
attacks,&&&&&,right,care.vice,noped,,,,,,,,,,,,,,,0,115,115,180,,,,,,,,,,,,,AMP,right,0.8004483772783715,1,,,,,,,,,,,,,,right,1,0.8004483772783715,,,,,,,,,,,1068,2019_Mar_14_1400,mf_amp_cond2,3.0.4,60.002732724173995,
support,&&&,left,loyalty.virtue,mih,,,,,,,,,,,,,,,0,116,116,283,,,,,,,,,,,,,AMP,left,0.5836996577836544,1,,,,,,,,,,,,,,left,1,0.5836996577836544,,,,,,,,,,,1068,2019_Mar_14_1400,mf_amp_cond2,3.0.4,60.002732724173995,
loyalty,&&&&&&&&&,left,loyalty.virtue,crilfully,,,,,,,,,,,,,,,0,117,117,324,,,,,,,,,,,,,AMP,left,0.5503815055599262,1,,,,,,,,,,,,,,left,1,0.5503815055599262,,,,,,,,,,,1068,2019_Mar_14_1400,mf_amp_cond2,3.0.4,60.002732724173995,
win,&&&&&&,left,fairness.virtue,prones,,,,,,,,,,,,,,,0,118,118,234,,,,,,,,,,,,,AMP,left,0.4003463858803116,1,,,,,,,,,,,,,,left,1,0.4003463858803116,,,,,,,,,,,1068,2019_Mar_14_1400,mf_amp_cond2,3.0.4,60.002732724173995,
hope,&&&&&&,left,loyalty.virtue,Boeinf,,,,,,,,,,,,,,,0,119,119,200,,,,,,,,,,,,,AMP,left,0.6170421853100834,1,,,,,,,,,,,,,,left,1,0.6170421853100834,,,,,,,,,,,1068,2019_Mar_14_1400,mf_amp_cond2,3.0.4,60.002732724173995,
terrorist,&&&&&&&&&&&,right,loyalty.vice,vicissifude,,,,,,,,,,,,,,,0,120,120,193,,,,,,,,,,,,,AMP,left,0.5003694782724324,0,,,,,,,,,,,,,,left,0,0.5003694782724324,,,,,,,,,,,1068,2019_Mar_14_1400,mf_amp_cond2,3.0.4,60.002732724173995,
forced,&&&&&&&&&&&,right,fairness.vice,lempestuous,,,,,,,,,,,,,,,0,121,121,126,,,,,,,,,,,,,AMP,left,0.4837076759754382,0,,,,,,,,,,,,,,left,0,0.4837076759754382,,,,,,,,,,,1068,2019_Mar_14_1400,mf_amp_cond2,3.0.4,60.002732724173995,
promised,&&&&&&&,left,loyalty.virtue,chadows,,,,,,,,,,,,,,,0,122,122,246,,,,,,,,,,,,,AMP,left,0.600404116860318,1,,,,,,,,,,,,,,left,1,0.600404116860318,,,,,,,,,,,1068,2019_Mar_14_1400,mf_amp_cond2,3.0.4,60.002732724173995,
critics,&&&&&,right,loyalty.vice,pafer,,,,,,,,,,,,,,,0,123,123,74,,,,,,,,,,,,,AMP,left,0.7003993059452114,0,,,,,,,,,,,,,,left,0,0.7003993059452114,,,,,,,,,,,1068,2019_Mar_14_1400,mf_amp_cond2,3.0.4,60.002732724173995,
hate,&&&&&&,right,fairness.vice,fostet,,,,,,,,,,,,,,,0,124,124,249,,,,,,,,,,,,,AMP,left,0.43368314030885813,0,,,,,,,,,,,,,,left,0,0.43368314030885813,,,,,,,,,,,1068,2019_Mar_14_1400,mf_amp_cond2,3.0.4,60.002732724173995,
powerful,&&&&&&&&&&&,left,authority.virtue,ronviolence,,,,,,,,,,,,,,,0,125,125,52,,,,,,,,,,,,,AMP,left,0.7504350670801614,1,,,,,,,,,,,,,,left,1,0.7504350670801614,,,,,,,,,,,1068,2019_Mar_14_1400,mf_amp_cond2,3.0.4,60.002732724173995,
safety,&&&&&&,left,care.virtue,bycled,,,,,,,,,,,,,,,0,126,126,158,,,,,,,,,,,,,AMP,left,0.5670644758827166,1,,,,,,,,,,,,,,left,1,0.5670644758827166,,,,,,,,,,,1068,2019_Mar_14_1400,mf_amp_cond2,3.0.4,60.002732724173995,
improve,&&&&&&&&,left,care.virtue,gowlands,,,,,,,,,,,,,,,0,127,127,136,,,,,,,,,,,,,AMP,left,0.517037053667309,1,,,,,,,,,,,,,,left,1,0.517037053667309,,,,,,,,,,,1068,2019_Mar_14_1400,mf_amp_cond2,3.0.4,60.002732724173995,
men,&&&&&&,right,loyalty.vice,bycled,,,,,,,,,,,,,,,0,128,128,316,,,,,,,,,,,,,AMP,left,0.30031367165815936,0,,,,,,,,,,,,,,left,0,0.30031367165815936,,,,,,,,,,,1068,2019_Mar_14_1400,mf_amp_cond2,3.0.4,60.002732724173995,
commitment,&&&&&&&&&&&&,left,sanctity.virtue,unreflectuve,,,,,,,,,,,,,,,0,129,129,287,,,,,,,,,,,,,AMP,left,0.7337706989617345,1,,,,,,,,,,,,,,left,1,0.7337706989617345,,,,,,,,,,,1068,2019_Mar_14_1400,mf_amp_cond2,3.0.4,60.002732724173995,
praise,&&&&&&&&,left,authority.virtue,fontacts,,,,,,,,,,,,,,,0,130,130,100,,,,,,,,,,,,,AMP,left,0.7170983126518422,1,,,,,,,,,,,,,,left,1,0.7170983126518422,,,,,,,,,,,1068,2019_Mar_14_1400,mf_amp_cond2,3.0.4,60.002732724173995,
injured,&&&&&&,right,care.vice,strofe,,,,,,,,,,,,,,,0,131,131,295,,,,,,,,,,,,,AMP,left,1.0171467425293486,0,,,,,,,,,,,,,,left,0,1.0171467425293486,,,,,,,,,,,1068,2019_Mar_14_1400,mf_amp_cond2,3.0.4,60.002732724173995,
racist,&&&&&,right,sanctity.vice,aubos,,,,,,,,,,,,,,,0,132,132,183,,,,,,,,,,,,,AMP,left,0.6503911273896392,0,,,,,,,,,,,,,,left,0,0.6503911273896392,,,,,,,,,,,1068,2019_Mar_14_1400,mf_amp_cond2,3.0.4,60.002732724173995,
actively,&&&&&&&&,left,authority.virtue,gournful,,,,,,,,,,,,,,,0,133,133,151,,,,,,,,,,,,,AMP,left,0.1669531833824749,1,,,,,,,,,,,,,,left,1,0.1669531833824749,,,,,,,,,,,1068,2019_Mar_14_1400,mf_amp_cond2,3.0.4,60.002732724173995,
victims,&&&&&&,right,care.vice,gikely,,,,,,,,,,,,,,,0,134,134,64,,,,,,,,,,,,,AMP,left,0.7837763116961014,0,,,,,,,,,,,,,,left,0,0.7837763116961014,,,,,,,,,,,1068,2019_Mar_14_1400,mf_amp_cond2,3.0.4,60.002732724173995,
love,&&&&&,left,loyalty.virtue,noped,,,,,,,,,,,,,,,0,135,135,38,,,,,,,,,,,,,AMP,left,0.7170742580765364,1,,,,,,,,,,,,,,left,1,0.7170742580765364,,,,,,,,,,,1068,2019_Mar_14_1400,mf_amp_cond2,3.0.4,60.002732724173995,
threatened,&&&&&&&,right,fairness.vice,sickyay,,,,,,,,,,,,,,,0,136,136,30,,,,,,,,,,,,,AMP,left,0.567060627150795,0,,,,,,,,,,,,,,left,0,0.567060627150795,,,,,,,,,,,1068,2019_Mar_14_1400,mf_amp_cond2,3.0.4,60.002732724173995,
actively,&&&&&&&&&&&&,left,authority.virtue,nonobservalt,,,,,,,,,,,,,,,0,137,137,259,,,,,,,,,,,,,AMP,left,0.5670413834909596,1,,,,,,,,,,,,,,left,1,0.5670413834909596,,,,,,,,,,,1068,2019_Mar_14_1400,mf_amp_cond2,3.0.4,60.002732724173995,
ammessment,&&&&&,None,nonword,leact,,,,,,,,,,,,,,,0,138,138,165,,,,,,,,,,,,,AMP,left,0.40034029205457955,0,,,,,,,,,,,,,,left,0,0.40034029205457955,,,,,,,,,,,1068,2019_Mar_14_1400,mf_amp_cond2,3.0.4,60.002732724173995,
peace,&&&&&&&&&,left,care.virtue,unscothed,,,,,,,,,,,,,,,0,139,139,323,,,,,,,,,,,,,AMP,left,0.43368217812576404,1,,,,,,,,,,,,,,left,1,0.43368217812576404,,,,,,,,,,,1068,2019_Mar_14_1400,mf_amp_cond2,3.0.4,60.002732724173995,
interests,&&&&&&&&&&&,left,fairness.virtue,mightingale,,,,,,,,,,,,,,,0,140,140,85,,,,,,,,,,,,,AMP,left,0.5503840713811314,1,,,,,,,,,,,,,,left,1,0.5503840713811314,,,,,,,,,,,1068,2019_Mar_14_1400,mf_amp_cond2,3.0.4,60.002732724173995,
hescribe,&&&&&&&&&&&,None,nonword,mightingale,,,,,,,,,,,,,,,0,141,141,76,,,,,,,,,,,,,AMP,right,0.2336311824265067,0,,,,,,,,,,,,,,right,0,0.2336311824265067,,,,,,,,,,,1068,2019_Mar_14_1400,mf_amp_cond2,3.0.4,60.002732724173995,
galamitous,&&&&&&,None,nonword,Boeinf,,,,,,,,,,,,,,,0,142,142,66,,,,,,,,,,,,,AMP,right,0.6837631618616342,0,,,,,,,,,,,,,,right,0,0.6837631618616342,,,,,,,,,,,1068,2019_Mar_14_1400,mf_amp_cond2,3.0.4,60.002732724173995,
tracious,&&&&&&&&&&&,None,nonword,lempestuous,,,,,,,,,,,,,,,0,143,143,320,,,,,,,,,,,,,AMP,right,0.7504206343353417,0,,,,,,,,,,,,,,right,0,0.7504206343353417,,,,,,,,,,,1068,2019_Mar_14_1400,mf_amp_cond2,3.0.4,60.002732724173995,
critics,&&&&&&&&,right,loyalty.vice,clamorek,,,,,,,,,,,,,,,0,144,144,124,,,,,,,,,,,,,AMP,left,0.20028705126196655,0,,,,,,,,,,,,,,left,0,0.20028705126196655,,,,,,,,,,,1068,2019_Mar_14_1400,mf_amp_cond2,3.0.4,60.002732724173995,
peace,&&&&&&&,left,care.virtue,halaise,,,,,,,,,,,,,,,0,145,145,186,,,,,,,,,,,,,AMP,left,1.3339092533140047,1,,,,,,,,,,,,,,left,1,1.3339092533140047,,,,,,,,,,,1068,2019_Mar_14_1400,mf_amp_cond2,3.0.4,60.002732724173995,
quarterbocks,&&&&&&,None,nonword,chared,,,,,,,,,,,,,,,0,146,146,256,,,,,,,,,,,,,AMP,left,0.8504815725918888,0,,,,,,,,,,,,,,left,0,0.8504815725918888,,,,,,,,,,,1068,2019_Mar_14_1400,mf_amp_cond2,3.0.4,60.002732724173995,
violence,&&&&&&&&,right,care.vice,thabbily,,,,,,,,,,,,,,,0,147,147,129,,,,,,,,,,,,,AMP,left,0.533718099624366,0,,,,,,,,,,,,,,left,0,0.533718099624366,,,,,,,,,,,1068,2019_Mar_14_1400,mf_amp_cond2,3.0.4,60.002732724173995,
safety,&&&&&&&&,left,care.virtue,perified,,,,,,,,,,,,,,,0,148,148,277,,,,,,,,,,,,,AMP,right,1.1837487291165871,0,,,,,,,,,,,,,,right,0,1.1837487291165871,,,,,,,,,,,1068,2019_Mar_14_1400,mf_amp_cond2,3.0.4,60.002732724173995,
corruption,&&&&&&&,right,sanctity.vice,troubla,,,,,,,,,,,,,,,0,149,149,70,,,,,,,,,,,,,AMP,left,0.6337139301647312,0,,,,,,,,,,,,,,left,0,0.6337139301647312,,,,,,,,,,,1068,2019_Mar_14_1400,mf_amp_cond2,3.0.4,60.002732724173995,
strength,&&&&&&&,left,sanctity.virtue,brudent,,,,,,,,,,,,,,,0,150,150,34,,,,,,,,,,,,,AMP,left,0.6337671709572987,1,,,,,,,,,,,,,,left,1,0.6337671709572987,,,,,,,,,,,1068,2019_Mar_14_1400,mf_amp_cond2,3.0.4,60.002732724173995,
benefit,&&&&&&&,left,fairness.virtue,Loorish,,,,,,,,,,,,,,,0,151,151,194,,,,,,,,,,,,,AMP,left,0.5670625515169831,1,,,,,,,,,,,,,,left,1,0.5670625515169831,,,,,,,,,,,1068,2019_Mar_14_1400,mf_amp_cond2,3.0.4,60.002732724173995,
unpleasant,&&&&&&&&,None,control,slending,,,,,,,,,,,,,,,0,152,152,172,,,,,,,,,,,,,AMP,left,0.38367271665947555,0,,,,,,,,,,,,,,left,0,0.38367271665947555,,,,,,,,,,,1068,2019_Mar_14_1400,mf_amp_cond2,3.0.4,60.002732724173995,
tracious,&&&&&&&&,None,nonword,emassion,,,,,,,,,,,,,,,0,153,153,154,,,,,,,,,,,,,AMP,left,0.5504004284921393,0,,,,,,,,,,,,,,left,0,0.5504004284921393,,,,,,,,,,,1068,2019_Mar_14_1400,mf_amp_cond2,3.0.4,60.002732724173995,
care,&&&&&&&&&&&,left,care.virtue,ronviolence,,,,,,,,,,,,,,,0,154,154,306,,,,,,,,,,,,,AMP,left,0.31696296557629466,1,,,,,,,,,,,,,,left,1,0.31696296557629466,,,,,,,,,,,1068,2019_Mar_14_1400,mf_amp_cond2,3.0.4,60.002732724173995,
help,&&&&&&,left,care.virtue,laming,,,,,,,,,,,,,,,0,155,155,241,,,,,,,,,,,,,AMP,right,0.3836653399232546,0,,,,,,,,,,,,,,right,0,0.3836653399232546,,,,,,,,,,,1068,2019_Mar_14_1400,mf_amp_cond2,3.0.4,60.002732724173995,
riot,&&&&&&,right,authority.vice,sonvoy,,,,,,,,,,,,,,,0,156,156,67,,,,,,,,,,,,,AMP,right,0.1502750239744728,1,,,,,,,,,,,,,,right,1,0.1502750239744728,,,,,,,,,,,1068,2019_Mar_14_1400,mf_amp_cond2,3.0.4,60.002732724173995,
troops,&&&&&&&,right,loyalty.vice,lursuer,,,,,,,,,,,,,,,0,157,157,184,,,,,,,,,,,,,AMP,left,0.2336282958776792,0,,,,,,,,,,,,,,left,0,0.2336282958776792,,,,,,,,,,,1068,2019_Mar_14_1400,mf_amp_cond2,3.0.4,60.002732724173995,
rejected,&&&&&&,right,authority.vice,gikely,,,,,,,,,,,,,,,0,158,158,322,,,,,,,,,,,,,AMP,left,0.16693041171811274,0,,,,,,,,,,,,,,left,0,0.16693041171811274,,,,,,,,,,,1068,2019_Mar_14_1400,mf_amp_cond2,3.0.4,60.002732724173995,
troops,&&&&&&&&,right,loyalty.vice,gournful,,,,,,,,,,,,,,,0,159,159,282,,,,,,,,,,,,,AMP,left,0.7837484083888739,0,,,,,,,,,,,,,,left,0,0.7837484083888739,,,,,,,,,,,1068,2019_Mar_14_1400,mf_amp_cond2,3.0.4,60.002732724173995,
fighters,&&&&&&&,right,authority.vice,carvels,,,,,,,,,,,,,,,0,160,160,285,,,,,,,,,,,,,AMP,left,0.28365219008901477,0,,,,,,,,,,,,,,left,0,0.28365219008901477,,,,,,,,,,,1068,2019_Mar_14_1400,mf_amp_cond2,3.0.4,60.002732724173995,
crime,&&&&&&,right,fairness.vice,gikely,,,,,,,,,,,,,,,0,161,161,84,,,,,,,,,,,,,AMP,left,0.15027855197877216,0,,,,,,,,,,,,,,left,0,0.15027855197877216,,,,,,,,,,,1068,2019_Mar_14_1400,mf_amp_cond2,3.0.4,60.002732724173995,
charges,&&&&&&,right,fairness.vice,Boeinf,,,,,,,,,,,,,,,0,162,162,297,,,,,,,,,,,,,AMP,left,0.016918384430482547,0,,,,,,,,,,,,,,left,0,0.016918384430482547,,,,,,,,,,,1068,2019_Mar_14_1400,mf_amp_cond2,3.0.4,60.002732724173995,
powerful,&&&&&&,left,authority.virtue,fostet,,,,,,,,,,,,,,,0,163,163,117,,,,,,,,,,,,,AMP,left,0.3003550455273398,1,,,,,,,,,,,,,,left,1,0.3003550455273398,,,,,,,,,,,1068,2019_Mar_14_1400,mf_amp_cond2,3.0.4,60.002732724173995,
fear,&&&&&&&&,right,sanctity.vice,fontacts,,,,,,,,,,,,,,,0,164,164,170,,,,,,,,,,,,,AMP,left,0.2669682575829029,0,,,,,,,,,,,,,,left,0,0.2669682575829029,,,,,,,,,,,1068,2019_Mar_14_1400,mf_amp_cond2,3.0.4,60.002732724173995,
victims,&&&&&&&,right,care.vice,festate,,,,,,,,,,,,,,,0,165,165,317,,,,,,,,,,,,,AMP,left,0.6837227501755478,0,,,,,,,,,,,,,,left,0,0.6837227501755478,,,,,,,,,,,1068,2019_Mar_14_1400,mf_amp_cond2,3.0.4,60.002732724173995,
pleasant,&&&&&&&,None,control,troubla,,,,,,,,,,,,,,,0,166,166,231,,,,,,,,,,,,,AMP,left,0.8838071015520654,0,,,,,,,,,,,,,,left,0,0.8838071015520654,,,,,,,,,,,1068,2019_Mar_14_1400,mf_amp_cond2,3.0.4,60.002732724173995,
safety,&&&&&&&&&&&&,left,care.virtue,unreflectuve,,,,,,,,,,,,,,,0,167,167,7,,,,,,,,,,,,,AMP,left,0.01690363095781322,1,,,,,,,,,,,,,,left,1,0.01690363095781322,,,,,,,,,,,1068,2019_Mar_14_1400,mf_amp_cond2,3.0.4,60.002732724173995,
promote,&&&&&&&&,left,sanctity.virtue,proached,,,,,,,,,,,,,,,0,168,168,229,,,,,,,,,,,,,AMP,left,0.05023878174802121,1,,,,,,,,,,,,,,left,1,0.05023878174802121,,,,,,,,,,,1068,2019_Mar_14_1400,mf_amp_cond2,3.0.4,60.002732724173995,
terrorists,&&&&&&&&,right,fairness.vice,fontacts,,,,,,,,,,,,,,,0,169,169,254,,,,,,,,,,,,,AMP,left,0.750437632901594,0,,,,,,,,,,,,,,left,0,0.750437632901594,,,,,,,,,,,1068,2019_Mar_14_1400,mf_amp_cond2,3.0.4,60.002732724173995,
promote,&&&&&&&&&,left,sanctity.virtue,gillipede,,,,,,,,,,,,,,,0,170,170,68,,,,,,,,,,,,,AMP,left,0.4336905170450791,1,,,,,,,,,,,,,,left,1,0.4336905170450791,,,,,,,,,,,1068,2019_Mar_14_1400,mf_amp_cond2,3.0.4,60.002732724173995,
violations,&&&&&&&&,right,sanctity.vice,fontacts,,,,,,,,,,,,,,,0,171,171,47,,,,,,,,,,,,,AMP,left,0.13359654383862107,0,,,,,,,,,,,,,,left,0,0.13359654383862107,,,,,,,,,,,1068,2019_Mar_14_1400,mf_amp_cond2,3.0.4,60.002732724173995,
injured,&&&&&&&&,right,care.vice,proached,,,,,,,,,,,,,,,0,172,172,157,,,,,,,,,,,,,AMP,left,1.1171903614922485,0,,,,,,,,,,,,,,left,0,1.1171903614922485,,,,,,,,,,,1068,2019_Mar_14_1400,mf_amp_cond2,3.0.4,60.002732724173995,
stindig,&&&&&&&&&&&,None,nonword,mightingale,,,,,,,,,,,,,,,0,173,173,235,,,,,,,,,,,,,AMP,left,0.5336857061299725,0,,,,,,,,,,,,,,left,0,0.5336857061299725,,,,,,,,,,,1068,2019_Mar_14_1400,mf_amp_cond2,3.0.4,60.002732724173995,
men,&&&&&,right,loyalty.vice,aubos,,,,,,,,,,,,,,,0,174,174,82,,,,,,,,,,,,,AMP,left,0.4836874701322813,0,,,,,,,,,,,,,,left,0,0.4836874701322813,,,,,,,,,,,1068,2019_Mar_14_1400,mf_amp_cond2,3.0.4,60.002732724173995,
rebels,&&&&&&&&,right,authority.vice,epigrach,,,,,,,,,,,,,,,0,175,175,2,,,,,,,,,,,,,AMP,right,0.4170335256631006,1,,,,,,,,,,,,,,right,1,0.4170335256631006,,,,,,,,,,,1068,2019_Mar_14_1400,mf_amp_cond2,3.0.4,60.002732724173995,
victims,&&&&&&&&&,right,care.vice,crilfully,,,,,,,,,,,,,,,0,176,176,210,,,,,,,,,,,,,AMP,right,0.3836788104852076,1,,,,,,,,,,,,,,right,1,0.3836788104852076,,,,,,,,,,,1068,2019_Mar_14_1400,mf_amp_cond2,3.0.4,60.002732724173995,
powerful,&&&&&&,left,authority.virtue,gikely,,,,,,,,,,,,,,,0,177,177,196,,,,,,,,,,,,,AMP,right,0.7170723337108029,0,,,,,,,,,,,,,,right,0,0.7170723337108029,,,,,,,,,,,1068,2019_Mar_14_1400,mf_amp_cond2,3.0.4,60.002732724173995,
growth,&&&&&&&&,left,care.virtue,sliptery,,,,,,,,,,,,,,,0,178,178,203,,,,,,,,,,,,,AMP,right,2.067436199248732,0,,,,,,,,,,,,,,right,0,2.067436199248732,,,,,,,,,,,1068,2019_Mar_14_1400,mf_amp_cond2,3.0.4,60.002732724173995,
killed,&&&&&&&&&&&,right,care.vice,ronviolence,,,,,,,,,,,,,,,0,179,179,228,,,,,,,,,,,,,AMP,left,0.15027374106375646,0,,,,,,,,,,,,,,left,0,0.15027374106375646,,,,,,,,,,,1068,2019_Mar_14_1400,mf_amp_cond2,3.0.4,60.002732724173995,
celebrated,&&&&&&&&,left,authority.virtue,sliptery,,,,,,,,,,,,,,,0,180,180,296,,,,,,,,,,,,,AMP,left,0.7004111728690532,1,,,,,,,,,,,,,,left,1,0.7004111728690532,,,,,,,,,,,1068,2019_Mar_14_1400,mf_amp_cond2,3.0.4,60.002732724173995,
blamed,&&&&&&&&&&,right,loyalty.vice,frocessing,,,,,,,,,,,,,,,0,181,181,161,,,,,,,,,,,,,AMP,right,1.4839389206231317,1,,,,,,,,,,,,,,right,1,1.4839389206231317,,,,,,,,,,,1068,2019_Mar_14_1400,mf_amp_cond2,3.0.4,60.002732724173995,
egpeditious,&&&&&,None,nonword,mecan,,,,,,,,,,,,,,,0,182,182,21,,,,,,,,,,,,,AMP,left,0.6335901292852668,0,,,,,,,,,,,,,,left,0,0.6335901292852668,,,,,,,,,,,1068,2019_Mar_14_1400,mf_amp_cond2,3.0.4,60.002732724173995,
quarterbocks,&&&&&&&&,None,nonword,bluently,,,,,,,,,,,,,,,0,183,183,146,,,,,,,,,,,,,AMP,right,0.717082917723701,0,,,,,,,,,,,,,,right,0,0.717082917723701,,,,,,,,,,,1068,2019_Mar_14_1400,mf_amp_cond2,3.0.4,60.002732724173995,
black,&&&&&&&&&&,right,loyalty.vice,clattening,,,,,,,,,,,,,,,0,184,184,53,,,,,,,,,,,,,AMP,left,0.6337248349054789,0,,,,,,,,,,,,,,left,0,0.6337248349054789,,,,,,,,,,,1068,2019_Mar_14_1400,mf_amp_cond2,3.0.4,60.002732724173995,
fighters,&&&&&&&&,right,authority.vice,sfumatoy,,,,,,,,,,,,,,,0,185,185,131,,,,,,,,,,,,,AMP,right,0.35031254911154974,1,,,,,,,,,,,,,,right,1,0.35031254911154974,,,,,,,,,,,1068,2019_Mar_14_1400,mf_amp_cond2,3.0.4,60.002732724173995,
ammessment,&&&&&&,None,nonword,pumber,,,,,,,,,,,,,,,0,186,186,308,,,,,,,,,,,,,AMP,right,0.3670048205369767,0,,,,,,,,,,,,,,right,0,0.3670048205369767,,,,,,,,,,,1068,2019_Mar_14_1400,mf_amp_cond2,3.0.4,60.002732724173995,
hate,&&&&&&,right,fairness.vice,pumber,,,,,,,,,,,,,,,0,187,187,142,,,,,,,,,,,,,AMP,left,0.9671286214163501,0,,,,,,,,,,,,,,left,0,0.9671286214163501,,,,,,,,,,,1068,2019_Mar_14_1400,mf_amp_cond2,3.0.4,60.002732724173995,
racist,&&&&&&&&&&&&&,right,sanctity.vice,esquisiteness,,,,,,,,,,,,,,,0,188,188,262,,,,,,,,,,,,,AMP,left,0.7671013595645491,0,,,,,,,,,,,,,,left,0,0.7671013595645491,,,,,,,,,,,1068,2019_Mar_14_1400,mf_amp_cond2,3.0.4,60.002732724173995,
dignity,&&&&&&&&&&,left,sanctity.virtue,lorthwhile,,,,,,,,,,,,,,,0,189,189,204,,,,,,,,,,,,,AMP,left,0.5503596960784307,1,,,,,,,,,,,,,,left,1,0.5503596960784307,,,,,,,,,,,1068,2019_Mar_14_1400,mf_amp_cond2,3.0.4,60.002732724173995,
opportunity,&&&&&,left,fairness.virtue,atson,,,,,,,,,,,,,,,0,190,190,265,,,,,,,,,,,,,AMP,left,1.3172230757140824,1,,,,,,,,,,,,,,left,1,1.3172230757140824,,,,,,,,,,,1068,2019_Mar_14_1400,mf_amp_cond2,3.0.4,60.002732724173995,
powerful,&&&&&&&&&&&,left,authority.virtue,vicissifude,,,,,,,,,,,,,,,0,191,191,302,,,,,,,,,,,,,AMP,left,0.5337171374414993,1,,,,,,,,,,,,,,left,1,0.5337171374414993,,,,,,,,,,,1068,2019_Mar_14_1400,mf_amp_cond2,3.0.4,60.002732724173995,
rejected,&&&&&&&&&&&,right,authority.vice,fornicalion,,,,,,,,,,,,,,,0,192,192,143,,,,,,,,,,,,,AMP,left,0.5503619411722411,0,,,,,,,,,,,,,,left,0,0.5503619411722411,,,,,,,,,,,1068,2019_Mar_14_1400,mf_amp_cond2,3.0.4,60.002732724173995,
civilians,&&&&&&&,right,care.vice,nackers,,,,,,,,,,,,,,,0,193,193,152,,,,,,,,,,,,,AMP,right,0.6503898444791503,1,,,,,,,,,,,,,,right,1,0.6503898444791503,,,,,,,,,,,1068,2019_Mar_14_1400,mf_amp_cond2,3.0.4,60.002732724173995,
good,&&&&&,left,care.virtue,pulge,,,,,,,,,,,,,,,0,194,194,56,,,,,,,,,,,,,AMP,right,0.4170081881773058,0,,,,,,,,,,,,,,right,0,0.4170081881773058,,,,,,,,,,,1068,2019_Mar_14_1400,mf_amp_cond2,3.0.4,60.002732724173995,
respect,&&&&&,left,sanctity.virtue,aubos,,,,,,,,,,,,,,,0,195,195,327,,,,,,,,,,,,,AMP,left,0.4836865079491872,1,,,,,,,,,,,,,,left,1,0.4836865079491872,,,,,,,,,,,1068,2019_Mar_14_1400,mf_amp_cond2,3.0.4,60.002732724173995,
riot,&&&&&&&&&&,right,authority.vice,clattening,,,,,,,,,,,,,,,0,196,196,223,,,,,,,,,,,,,AMP,left,0.7170761824427245,0,,,,,,,,,,,,,,left,0,0.7170761824427245,,,,,,,,,,,1068,2019_Mar_14_1400,mf_amp_cond2,3.0.4,60.002732724173995,
hescribe,&&&&&&&&,None,nonword,proached,,,,,,,,,,,,,,,0,197,197,281,,,,,,,,,,,,,AMP,right,1.083845588872009,0,,,,,,,,,,,,,,right,0,1.083845588872009,,,,,,,,,,,1068,2019_Mar_14_1400,mf_amp_cond2,3.0.4,60.002732724173995,
useful,&&&&&&&&&&&&,left,authority.virtue,iptervention,,,,,,,,,,,,,,,0,198,198,19,,,,,,,,,,,,,AMP,left,1.3172410364636562,1,,,,,,,,,,,,,,left,1,1.3172410364636562,,,,,,,,,,,1068,2019_Mar_14_1400,mf_amp_cond2,3.0.4,60.002732724173995,
blamed,&&&&&&&,right,loyalty.vice,festate,,,,,,,,,,,,,,,0,199,199,237,,,,,,,,,,,,,AMP,right,0.7170771446255912,1,,,,,,,,,,,,,,right,1,0.7170771446255912,,,,,,,,,,,1068,2019_Mar_14_1400,mf_amp_cond2,3.0.4,60.002732724173995,
benefit,&&&&&&,left,fairness.virtue,laming,,,,,,,,,,,,,,,0,200,200,80,,,,,,,,,,,,,AMP,right,0.650387278657945,0,,,,,,,,,,,,,,right,0,0.650387278657945,,,,,,,,,,,1068,2019_Mar_14_1400,mf_amp_cond2,3.0.4,60.002732724173995,
great,&&&&&&&&,left,loyalty.virtue,gowlands,,,,,,,,,,,,,,,0,201,201,6,,,,,,,,,,,,,AMP,right,0.7337527382123881,0,,,,,,,,,,,,,,right,0,0.7337527382123881,,,,,,,,,,,1068,2019_Mar_14_1400,mf_amp_cond2,3.0.4,60.002732724173995,
blamed,&&&&&&&&&&&&&,right,loyalty.vice,esquisiteness,,,,,,,,,,,,,,,0,202,202,26,,,,,,,,,,,,,AMP,left,0.9170441096762261,0,,,,,,,,,,,,,,left,0,0.9170441096762261,,,,,,,,,,,1068,2019_Mar_14_1400,mf_amp_cond2,3.0.4,60.002732724173995,
quarterbocks,&&&&&&,None,nonword,squets,,,,,,,,,,,,,,,0,203,203,17,,,,,,,,,,,,,AMP,right,0.6670943035558139,0,,,,,,,,,,,,,,right,0,0.6670943035558139,,,,,,,,,,,1068,2019_Mar_14_1400,mf_amp_cond2,3.0.4,60.002732724173995,
peaceful,&&&&,left,authority.virtue,wump,,,,,,,,,,,,,,,0,204,204,181,,,,,,,,,,,,,AMP,right,1.0004801293173387,0,,,,,,,,,,,,,,right,0,1.0004801293173387,,,,,,,,,,,1068,2019_Mar_14_1400,mf_amp_cond2,3.0.4,60.002732724173995,
civilians,&&&&&&&&&&&,right,care.vice,vicissifude,,,,,,,,,,,,,,,0,205,205,61,,,,,,,,,,,,,AMP,right,0.5836929225024505,1,,,,,,,,,,,,,,right,1,0.5836929225024505,,,,,,,,,,,1068,2019_Mar_14_1400,mf_amp_cond2,3.0.4,60.002732724173995,
galamitous,&&&&&,None,nonword,lenon,,,,,,,,,,,,,,,0,206,206,90,,,,,,,,,,,,,AMP,left,0.650394655394166,0,,,,,,,,,,,,,,left,0,0.650394655394166,,,,,,,,,,,1068,2019_Mar_14_1400,mf_amp_cond2,3.0.4,60.002732724173995,
simplustic,&&&&&&&&&&&&,None,nonword,unreflectuve,,,,,,,,,,,,,,,0,207,207,227,,,,,,,,,,,,,AMP,right,0.7170761824427245,0,,,,,,,,,,,,,,right,0,0.7170761824427245,,,,,,,,,,,1068,2019_Mar_14_1400,mf_amp_cond2,3.0.4,60.002732724173995,
safety,&&&&&,left,care.virtue,touls,,,,,,,,,,,,,,,0,208,208,185,,,,,,,,,,,,,AMP,left,0.7671170752200851,1,,,,,,,,,,,,,,left,1,0.7671170752200851,,,,,,,,,,,1068,2019_Mar_14_1400,mf_amp_cond2,3.0.4,60.002732724173995,
gun,&&&&&&&,right,authority.vice,allears,,,,,,,,,,,,,,,0,209,209,274,,,,,,,,,,,,,AMP,left,1.3839193562353103,0,,,,,,,,,,,,,,left,0,1.3839193562353103,,,,,,,,,,,1068,2019_Mar_14_1400,mf_amp_cond2,3.0.4,60.002732724173995,
hescribe,&&&&&&&&&,None,nonword,Phintoism,,,,,,,,,,,,,,,0,210,210,220,,,,,,,,,,,,,AMP,left,0.5670551747805348,0,,,,,,,,,,,,,,left,0,0.5670551747805348,,,,,,,,,,,1068,2019_Mar_14_1400,mf_amp_cond2,3.0.4,60.002732724173995,
integrity,&&&&&,left,fairness.virtue,leact,,,,,,,,,,,,,,,0,211,211,59,,,,,,,,,,,,,AMP,left,0.45032666112865627,1,,,,,,,,,,,,,,left,1,0.45032666112865627,,,,,,,,,,,1068,2019_Mar_14_1400,mf_amp_cond2,3.0.4,60.002732724173995,
police,&&&&&&&&&,right,authority.vice,chressing,,,,,,,,,,,,,,,0,212,212,149,,,,,,,,,,,,,AMP,right,0.38367656539162454,1,,,,,,,,,,,,,,right,1,0.38367656539162454,,,,,,,,,,,1068,2019_Mar_14_1400,mf_amp_cond2,3.0.4,60.002732724173995,
prosecution,&&&&&&&,right,authority.vice,Daptist,,,,,,,,,,,,,,,0,213,213,247,,,,,,,,,,,,,AMP,left,0.43370847779442556,0,,,,,,,,,,,,,,left,0,0.43370847779442556,,,,,,,,,,,1068,2019_Mar_14_1400,mf_amp_cond2,3.0.4,60.002732724173995,
growth,&&&&&&&&,left,care.virtue,clamorek,,,,,,,,,,,,,,,0,214,214,311,,,,,,,,,,,,,AMP,right,0.40033259459050896,0,,,,,,,,,,,,,,right,0,0.40033259459050896,,,,,,,,,,,1068,2019_Mar_14_1400,mf_amp_cond2,3.0.4,60.002732724173995,
violence,&&&&&&&&&&&&,right,care.vice,iptervention,,,,,,,,,,,,,,,0,215,215,240,,,,,,,,,,,,,AMP,left,0.5170325634801429,0,,,,,,,,,,,,,,left,0,0.5170325634801429,,,,,,,,,,,1068,2019_Mar_14_1400,mf_amp_cond2,3.0.4,60.002732724173995,
victims,&&&&&&&,right,care.vice,sickyay,,,,,,,,,,,,,,,0,216,216,88,,,,,,,,,,,,,AMP,left,0.13361867404751138,0,,,,,,,,,,,,,,left,0,0.13361867404751138,,,,,,,,,,,1068,2019_Mar_14_1400,mf_amp_cond2,3.0.4,60.002732724173995,
death,&&&&&&&,right,care.vice,lursuer,,,,,,,,,,,,,,,0,217,217,279,,,,,,,,,,,,,AMP,left,0.5670391383973765,0,,,,,,,,,,,,,,left,0,0.5670391383973765,,,,,,,,,,,1068,2019_Mar_14_1400,mf_amp_cond2,3.0.4,60.002732724173995,
crime,&&&&&&&&,right,fairness.vice,sfumatoy,,,,,,,,,,,,,,,0,218,218,278,,,,,,,,,,,,,AMP,left,0.5170203758286789,0,,,,,,,,,,,,,,left,0,0.5170203758286789,,,,,,,,,,,1068,2019_Mar_14_1400,mf_amp_cond2,3.0.4,60.002732724173995,
faith,&&&&,left,sanctity.virtue,coom,,,,,,,,,,,,,,,0,219,219,58,,,,,,,,,,,,,AMP,right,0.3669688990380564,0,,,,,,,,,,,,,,right,0,0.3669688990380564,,,,,,,,,,,1068,2019_Mar_14_1400,mf_amp_cond2,3.0.4,60.002732724173995,
promises,&&&&&&&&&&,left,fairness.virtue,frocessing,,,,,,,,,,,,,,,0,220,220,179,,,,,,,,,,,,,AMP,right,0.2169607204825752,0,,,,,,,,,,,,,,right,0,0.2169607204825752,,,,,,,,,,,1068,2019_Mar_14_1400,mf_amp_cond2,3.0.4,60.002732724173995,
care,&&&&&&&,left,care.virtue,gedious,,,,,,,,,,,,,,,0,221,221,46,,,,,,,,,,,,,AMP,right,0.5003088607431891,0,,,,,,,,,,,,,,right,0,0.5003088607431891,,,,,,,,,,,1068,2019_Mar_14_1400,mf_amp_cond2,3.0.4,60.002732724173995,
abuse,&&&&&&,right,sanctity.vice,letish,,,,,,,,,,,,,,,0,222,222,270,,,,,,,,,,,,,AMP,left,0.20028897562792736,0,,,,,,,,,,,,,,left,0,0.20028897562792736,,,,,,,,,,,1068,2019_Mar_14_1400,mf_amp_cond2,3.0.4,60.002732724173995,
violence,&&&&&&&&&&&,right,care.vice,fornicalion,,,,,,,,,,,,,,,0,223,223,286,,,,,,,,,,,,,AMP,left,0.4836797726682107,0,,,,,,,,,,,,,,left,0,0.4836797726682107,,,,,,,,,,,1068,2019_Mar_14_1400,mf_amp_cond2,3.0.4,60.002732724173995,
attacks,&&&&&&&&&&,right,care.vice,fonderland,,,,,,,,,,,,,,,0,224,224,78,,,,,,,,,,,,,AMP,left,0.16681462903034117,0,,,,,,,,,,,,,,left,0,0.16681462903034117,,,,,,,,,,,1068,2019_Mar_14_1400,mf_amp_cond2,3.0.4,60.002732724173995,
interests,&&&&&&&&&&,left,fairness.virtue,ejanulated,,,,,,,,,,,,,,,0,225,225,20,,,,,,,,,,,,,AMP,left,0.6503911273898666,1,,,,,,,,,,,,,,left,1,0.6503911273898666,,,,,,,,,,,1068,2019_Mar_14_1400,mf_amp_cond2,3.0.4,60.002732724173995,
black,&&&&&&&,right,loyalty.vice,gedious,,,,,,,,,,,,,,,0,226,226,190,,,,,,,,,,,,,AMP,left,0.3169790019596803,0,,,,,,,,,,,,,,left,0,0.3169790019596803,,,,,,,,,,,1068,2019_Mar_14_1400,mf_amp_cond2,3.0.4,60.002732724173995,
ecgagement,&&&&&&&,None,nonword,carvels,,,,,,,,,,,,,,,0,227,227,140,,,,,,,,,,,,,AMP,left,0.36703336529922126,0,,,,,,,,,,,,,,left,0,0.36703336529922126,,,,,,,,,,,1068,2019_Mar_14_1400,mf_amp_cond2,3.0.4,60.002732724173995,
army,&&&&&,right,loyalty.vice,pafer,,,,,,,,,,,,,,,0,228,228,147,,,,,,,,,,,,,AMP,left,0.35033371713734596,0,,,,,,,,,,,,,,left,0,0.35033371713734596,,,,,,,,,,,1068,2019_Mar_14_1400,mf_amp_cond2,3.0.4,60.002732724173995,
celebrated,&&&&&&,left,authority.virtue,chared,,,,,,,,,,,,,,,0,229,229,199,,,,,,,,,,,,,AMP,left,0.06690539496025849,1,,,,,,,,,,,,,,left,1,0.06690539496025849,,,,,,,,,,,1068,2019_Mar_14_1400,mf_amp_cond2,3.0.4,60.002732724173995,
violations,&&&&&&&&&&&,right,sanctity.vice,neneficence,,,,,,,,,,,,,,,0,230,230,189,,,,,,,,,,,,,AMP,right,0.7004098899583369,1,,,,,,,,,,,,,,right,1,0.7004098899583369,,,,,,,,,,,1068,2019_Mar_14_1400,mf_amp_cond2,3.0.4,60.002732724173995,
voter,&&&&&&&&&&,right,fairness.vice,ejanulated,,,,,,,,,,,,,,,0,231,231,238,,,,,,,,,,,,,AMP,left,0.5503632240829575,0,,,,,,,,,,,,,,left,0,0.5503632240829575,,,,,,,,,,,1068,2019_Mar_14_1400,mf_amp_cond2,3.0.4,60.002732724173995,
riot,&&&&&&&&&,right,authority.vice,Phintoism,,,,,,,,,,,,,,,0,232,232,99,,,,,,,,,,,,,AMP,left,0.7837368621928817,0,,,,,,,,,,,,,,left,0,0.7837368621928817,,,,,,,,,,,1068,2019_Mar_14_1400,mf_amp_cond2,3.0.4,60.002732724173995,
integrity,&&&&&&&&,left,fairness.virtue,glacenta,,,,,,,,,,,,,,,0,233,233,171,,,,,,,,,,,,,AMP,left,0.11692095025182425,1,,,,,,,,,,,,,,left,1,0.11692095025182425,,,,,,,,,,,1068,2019_Mar_14_1400,mf_amp_cond2,3.0.4,60.002732724173995,
antral,&&&,None,nonword,mih,,,,,,,,,,,,,,,0,234,234,168,,,,,,,,,,,,,AMP,left,0.46700770708594064,0,,,,,,,,,,,,,,left,0,0.46700770708594064,,,,,,,,,,,1068,2019_Mar_14_1400,mf_amp_cond2,3.0.4,60.002732724173995,
commitment,&&&&&&&,left,sanctity.virtue,nackers,,,,,,,,,,,,,,,0,235,235,63,,,,,,,,,,,,,AMP,left,0.25031158692831923,1,,,,,,,,,,,,,,left,1,0.25031158692831923,,,,,,,,,,,1068,2019_Mar_14_1400,mf_amp_cond2,3.0.4,60.002732724173995,
charges,&&&&&&&&,right,fairness.vice,bluently,,,,,,,,,,,,,,,0,236,236,219,,,,,,,,,,,,,AMP,left,0.016905555324001398,0,,,,,,,,,,,,,,left,0,0.016905555324001398,,,,,,,,,,,1068,2019_Mar_14_1400,mf_amp_cond2,3.0.4,60.002732724173995,
integrity,&&&&&&&&&&,left,fairness.virtue,lorthwhile,,,,,,,,,,,,,,,0,237,237,303,,,,,,,,,,,,,AMP,left,0.43368602685768565,1,,,,,,,,,,,,,,left,1,0.43368602685768565,,,,,,,,,,,1068,2019_Mar_14_1400,mf_amp_cond2,3.0.4,60.002732724173995,
abuse,&&&&&&,right,sanctity.vice,prones,,,,,,,,,,,,,,,0,238,238,77,,,,,,,,,,,,,AMP,right,0.9838208928417771,1,,,,,,,,,,,,,,right,1,0.9838208928417771,,,,,,,,,,,1068,2019_Mar_14_1400,mf_amp_cond2,3.0.4,60.002732724173995,
death,&&&&&&&,right,care.vice,smapper,,,,,,,,,,,,,,,0,239,239,22,,,,,,,,,,,,,AMP,left,0.4670099521792963,0,,,,,,,,,,,,,,left,0,0.4670099521792963,,,,,,,,,,,1068,2019_Mar_14_1400,mf_amp_cond2,3.0.4,60.002732724173995,
army,&&&&&&&&,right,loyalty.vice,gowlands,,,,,,,,,,,,,,,0,240,240,301,,,,,,,,,,,,,AMP,left,0.26697178558720225,0,,,,,,,,,,,,,,left,0,0.26697178558720225,,,,,,,,,,,1068,2019_Mar_14_1400,mf_amp_cond2,3.0.4,60.002732724173995,
improve,&&&&&&&&&&,left,care.virtue,ejanulated,,,,,,,,,,,,,,,0,241,241,300,,,,,,,,,,,,,AMP,right,0.3002989181857174,0,,,,,,,,,,,,,,right,0,0.3002989181857174,,,,,,,,,,,1068,2019_Mar_14_1400,mf_amp_cond2,3.0.4,60.002732724173995,
